timestamp,thigh_acc_x,thigh_acc_y,thigh_acc_z,thigh_gyro_x,thigh_gyro_y,thigh_gyro_z,thigh_mag_x,thigh_mag_y,thigh_mag_z,shank_acc_x,shank_acc_y,shank_acc_z,shank_gyro_x,shank_gyro_y,shank_gyro_z,shank_mag_x,shank_mag_y,shank_mag_z,foot_acc_x,foot_acc_y,foot_acc_z,foot_gyro_x,foot_gyro_y,foot_gyro_z,foot_mag_x,foot_mag_y,foot_mag_z,foot_euler_x,foot_euler_y,foot_euler_z,perturbation_event,time_s,thigh_acc_mag,thigh_gyro_mag,shank_acc_mag,shank_gyro_mag,foot_acc_mag,foot_gyro_mag
1776970346.214,8.8992,-0.0383,2.8683,-1.0637,0.1767,0.0706,-88.05,-16.35,-0.6,9.5265,2.138,-0.1748,-0.4183,0.7538,0.5105,-39.45,6.75,32.7,6.43,-0.54,-8.21,0.096,0.5116,0.0273,-29.875,19.0,18.0625,67.125,36.5,172.1875,0,0.0,9.350100128875626,1.0805854616826935,9.765029507891924,1.001897988819221,10.442250715243338,0.5212445203548907
1776970346.218,8.8346,0.1077,2.7892,-0.9561,0.1743,0.1327,-88.35,-18.0,-0.3,9.5265,2.138,-0.1748,-0.4183,0.7538,0.5105,-38.1,6.75,33.0,5.8,-1.01,-7.74,0.096,0.5116,0.0273,-29.875,19.0,18.0625,67.1875,36.75,172.125,0,0.003999948501586914,9.26506303756213,0.9808756241236704,9.765029507891924,1.001897988819221,9.724592536451077,0.5212445203548907
1776970346.223,8.8346,0.1077,2.7892,-0.9561,0.1743,0.1327,-88.35,-18.0,-0.3,9.1195,2.0518,-0.3783,-0.308,0.7304,0.4823,-38.1,6.75,33.0,5.8,-1.01,-7.74,0.0469,0.2847,0.0196,-29.875,19.0,18.0625,67.1875,36.9375,172.0625,0,0.009000062942504883,9.26506303756213,0.9808756241236704,9.35512022263744,0.9278800838470455,9.724592536451077,0.28920210925925144
1776970346.23,8.8274,0.4142,2.6983,-0.8279,0.1828,0.1591,-87.75,-16.5,0.15,9.1195,2.0518,-0.3783,-0.2731,0.7037,0.4525,-37.65,7.05,33.45,5.71,-0.87,-7.73,0.0469,0.2847,0.0196,-29.875,19.0,18.0625,67.25,37.125,172.0625,0,0.016000032424926758,9.239879614475505,0.8626395887043441,9.35512022263744,0.8800758774105787,9.649554393856745,0.28920210925925144
1776970346.239,8.904,0.5626,2.6193,-0.7416,0.2057,0.1657,-87.75,-16.5,0.15,9.2512,1.7621,0.0527,-0.2731,0.7037,0.4525,-37.65,7.05,33.45,5.81,-0.73,-7.81,-0.0404,0.3491,0.0404,-29.875,19.0,18.0625,67.25,37.125,172.0625,0,0.02500009536743164,9.298304536311983,0.78723537776195,9.417668243254273,0.8800758774105787,9.76140870981233,0.3537444416524449
1776970346.249,8.746,1.3216,2.9018,-0.6792,0.2393,0.1793,-85.95,-16.5,0.45,9.1099,1.5299,0.0359,-0.3842,0.6664,0.4383,-37.95,5.4,34.65,5.82,-0.74,-7.79,-0.0524,0.3447,0.0491,-29.875,19.0,18.0625,67.25,37.3125,172.0625,0,0.03500008583068848,9.309113051198809,0.7421089003643603,9.237540843211466,0.8853278997072215,9.752133099994074,0.3521003550126015
1776970346.254,8.8274,1.3599,3.0239,-0.6384,0.3083,0.1703,-85.95,-16.5,0.45,9.4332,1.4772,0.249,-0.3842,0.6664,0.4383,-38.85,5.55,33.75,5.82,-0.74,-7.79,-0.0524,0.3447,0.0491,-29.875,19.0,18.0625,67.25,37.3125,172.0625,0,0.039999961853027344,9.429543466149356,0.729112844489795,9.551407387395848,0.8853278997072215,9.752133099994074,0.3521003550126015
1776970346.259,8.8274,1.3599,3.0239,-0.6384,0.3083,0.1703,-85.95,-16.5,0.45,9.493,1.3695,0.0383,-0.4879,0.6702,0.4485,-38.85,5.55,33.75,5.84,-0.68,-7.88,-0.0545,0.3327,0.072,-31.6875,19.25,18.1875,67.3125,37.5,172.0,0,0.04500007629394531,9.429543466149356,0.729112844489795,9.59135267519655,0.9425320684199557,9.831703819786274,0.344736914182395
1776970346.264,8.9591,1.3288,3.2298,-0.5915,0.3291,0.1775,-85.95,-16.5,0.45,9.493,1.3695,0.0383,-0.4879,0.6702,0.4485,-37.35,4.8,34.2,5.84,-0.68,-7.88,-0.0545,0.3327,0.072,-31.6875,19.25,18.1875,67.3125,37.5,172.0,0,0.04999995231628418,9.615757395546124,0.6997751853274022,9.59135267519655,0.9425320684199557,9.831703819786274,0.344736914182395
1776970346.269,8.9591,1.3288,3.2298,-0.5915,0.3291,0.1775,-86.85,-18.3,-1.05,9.6582,1.221,-0.0742,-0.5367,0.6502,0.4612,-37.35,4.8,34.2,5.96,-0.67,-7.64,-0.0022,0.3011,0.0665,-31.6875,19.25,18.1875,67.375,37.625,172.0,0,0.05500006675720215,9.615757395546124,0.6997751853274022,9.735356895358281,0.9609955098750462,9.712883197073875,0.3083639083939623
1776970346.274,9.0692,1.2043,3.2489,-0.5404,0.3328,0.1945,-86.85,-18.3,-1.05,9.6582,1.221,-0.0742,-0.5367,0.6502,0.4612,-37.2,4.2,34.65,5.96,-0.67,-7.64,0.0207,0.2694,0.1014,-31.6875,19.25,18.1875,67.4375,37.75,171.9375,0,0.059999942779541016,9.708556964863522,0.6637908179539695,9.735356895358281,0.9609955098750462,9.712883197073875,0.28859454256794254
1776970346.28,9.0692,1.2043,3.2489,-0.5404,0.3328,0.1945,-86.55,-16.8,0.3,9.6893,1.336,-0.2586,-0.5585,0.652,0.4618,-37.2,4.2,34.65,6.09,-0.67,-7.6,0.0207,0.2694,0.1014,-31.6875,19.25,18.1875,67.4375,37.75,171.9375,0,0.06599998474121094,9.708556964863522,0.6637908179539695,9.784390857380954,0.9748258767595369,9.76201823395142,0.28859454256794254
1776970346.289,9.1985,0.905,3.0071,-0.4719,0.3576,0.2068,-86.25,-16.95,-0.15,9.6031,1.3168,-0.4405,-0.506,0.643,0.4668,-37.2,4.2,34.65,5.75,-0.78,-7.81,0.0393,0.2782,0.1145,-31.6875,19.25,18.1875,67.5,37.875,171.875,0,0.07500004768371582,9.719777654864332,0.6271631446441985,9.702965118972653,0.9420123353757105,9.729696809253616,0.30339739616549116
1776970346.294,9.3518,0.7494,2.7916,-0.3648,0.3722,0.211,-86.25,-16.95,-0.15,9.6031,1.3168,-0.4405,-0.506,0.643,0.4668,-37.2,4.2,34.65,5.75,-0.78,-7.81,0.0654,0.2825,0.0949,-31.6875,19.25,18.1875,67.5625,38.0625,171.8125,0,0.07999992370605469,9.788298838919866,0.5622569519356786,9.702965118972653,0.9420123353757105,9.729696809253616,0.30510558828051637
1776970346.3,9.3518,0.7494,2.7916,-0.3648,0.3722,0.211,-86.7,-16.5,0.15,9.5074,1.2306,-0.3974,-0.4463,0.6494,0.473,-37.2,4.2,34.65,6.05,-0.72,-7.75,0.0654,0.2825,0.0949,-31.6875,19.25,18.1875,67.5625,38.0625,171.8125,0,0.08599996566772461,9.788298838919866,0.5622569519356786,9.594944391709626,0.919039199381615,9.858164129288983,0.30510558828051637
1776970346.305,9.4355,0.8021,2.4014,-0.2998,0.3744,0.2153,-86.7,-16.5,0.15,9.5074,1.2306,-0.3974,-0.4463,0.6494,0.473,-38.25,3.9,35.7,6.05,-0.72,-7.75,0.0884,0.2738,0.0818,-30.875,20.0,18.6875,67.5625,38.1875,171.75,0,0.09100008010864258,9.769275644591056,0.5257466024616803,9.594944391709626,0.919039199381615,9.858164129288983,0.299119106711691
1776970346.31,9.4236,0.838,2.0039,-0.2998,0.3744,0.2153,-87.0,-16.5,-0.15,9.4858,1.2809,-0.3639,-0.3661,0.6656,0.4834,-38.25,3.9,35.7,6.07,-0.64,-7.76,0.0884,0.2738,0.0818,-30.875,20.0,18.6875,67.5625,38.1875,171.75,0,0.09599995613098145,9.67068230116159,0.5257466024616803,9.578806275314268,0.9004044257998736,9.87279595656671,0.299119106711691
1776970346.315,9.4236,0.838,2.0039,-0.2515,0.3635,0.2236,-87.0,-16.5,-0.15,9.4858,1.2809,-0.3639,-0.3661,0.6656,0.4834,-37.2,5.4,37.2,6.07,-0.64,-7.76,0.1047,0.264,0.0687,-30.875,20.0,18.6875,67.5625,38.3125,171.6875,0,0.10100007057189941,9.67068230116159,0.495359929748057,9.578806275314268,0.9004044257998736,9.87279595656671,0.2921947638134537
1776970346.32,9.4164,0.8547,1.6448,-0.2515,0.3635,0.2236,-85.8,-17.55,1.05,9.4858,1.5131,-0.5124,-0.3168,0.6731,0.489,-37.2,5.4,37.2,6.02,-0.91,-7.64,0.1047,0.264,0.0687,-30.875,20.0,18.6875,67.5625,38.3125,171.6875,0,0.10599994659423828,9.597107277195562,0.495359929748057,9.619377683093642,0.8902510039309139,9.769242549962613,0.2921947638134537
1776970346.325,9.4164,0.8547,1.6448,-0.2201,0.3395,0.223,-85.8,-17.55,1.05,9.4858,1.5131,-0.5124,-0.3168,0.6731,0.489,-36.45,3.45,35.7,6.02,-0.91,-7.64,0.1058,0.2618,0.0687,-30.875,20.0,18.6875,67.625,38.4375,171.5625,0,0.11100006103515625,9.597107277195562,0.46198837647715774,9.619377683093642,0.8902510039309139,9.769242549962613,0.2906072435435841
1776970346.331,9.4906,1.0558,1.3192,-0.2129,0.2944,0.2222,-85.8,-17.55,1.05,9.4619,1.7334,-0.5411,-0.2417,0.6899,0.5028,-36.45,3.45,35.7,6.1,-0.89,-7.67,0.1058,0.2618,0.0687,-30.875,20.0,18.6875,67.625,38.625,171.5,0,0.11700010299682617,9.63983872479203,0.42587628485277274,9.634574011340614,0.887236574990008,9.840274386418297,0.2906072435435841
1776970346.34,9.4667,1.1803,1.2234,-0.2129,0.2944,0.2222,-85.8,-16.8,0.3,9.3518,1.901,-0.668,-0.1591,0.7115,0.5169,-37.5,3.15,36.75,6.16,-0.87,-7.69,0.1036,0.2716,0.0567,-30.875,20.0,18.6875,67.625,38.625,171.5,0,0.12599992752075195,9.61811959480646,0.42587628485277274,9.566409370291447,0.8937173322701089,9.891339646377533,0.2961661864561855
1776970346.346,9.4667,1.1803,1.2234,-0.2318,0.2585,0.2126,-85.8,-16.8,0.3,9.3518,1.901,-0.668,-0.1591,0.7115,0.5169,-37.5,3.15,36.75,6.12,-0.88,-7.61,0.0807,0.2694,0.0578,-30.875,20.0,18.6875,67.625,38.75,171.4375,0,0.13199996948242188,9.61811959480646,0.4071268229925412,9.566409370291447,0.8937173322701089,9.805146607776958,0.2871057122385411
1776970346.351,9.4092,1.4629,1.1851,-0.2622,0.202,0.2118,-85.8,-16.8,0.3,9.1937,2.0877,-0.7446,-0.113,0.736,0.5263,-37.5,3.15,36.75,6.12,-0.88,-7.61,0.0807,0.2694,0.0578,-30.875,20.0,18.6875,67.625,38.75,171.4375,0,0.13700008392333984,9.595706490926034,0.39295302518240016,9.457115846810803,0.9118424699475234,9.805146607776958,0.2871057122385411
1776970346.356,9.4092,1.4629,1.1851,-0.2622,0.202,0.2118,-85.8,-16.8,0.3,9.1937,2.0877,-0.7446,-0.0685,0.7592,0.5494,-37.65,3.0,35.85,6.0,-0.8,-7.6,0.0851,0.2542,0.0491,-31.6875,19.25,17.5,67.6875,38.875,171.375,0,0.1419999599456787,9.595706490926034,0.39295302518240016,9.457115846810803,0.9396367649256813,9.715966241192895,0.27252607214723507
1776970346.36,9.3158,1.6496,1.2306,-0.3086,0.1601,0.198,-87.45,-17.7,0.9,9.2751,2.1332,-0.7207,-0.0685,0.7592,0.5494,-37.65,3.0,35.85,6.0,-0.8,-7.6,0.0851,0.2542,0.0491,-31.6875,19.25,17.5,67.6875,38.875,171.375,0,0.14599990844726562,9.540423793521962,0.4000874529399791,9.544497406359332,0.9396367649256813,9.715966241192895,0.27252607214723507
1776970346.365,9.3158,1.6496,1.2306,-0.3086,0.1601,0.198,-87.45,-17.7,0.9,9.2751,2.1332,-0.7207,-0.0304,0.7709,0.554,-36.75,2.4,37.2,6.0,-0.8,-7.6,0.0665,0.2629,0.0415,-31.6875,19.25,17.5,67.6875,39.0,171.3125,0,0.1510000228881836,9.540423793521962,0.4000874529399791,9.544497406359332,0.9498036481294437,9.715966241192895,0.27433721949454837
1776970346.37,9.2177,1.8076,1.482,-0.3992,0.1575,0.1948,-86.1,-18.3,0.3,9.4451,2.1189,-0.498,-0.0304,0.7709,0.554,-36.75,2.4,37.2,6.1,-0.73,-7.56,0.0665,0.2629,0.0415,-31.6875,19.25,17.5,67.6875,39.0,171.3125,0,0.15599989891052246,9.509455034332936,0.47128964554719427,9.692659863009741,0.9498036481294437,9.741483459925393,0.27433721949454837
1776970346.375,9.2177,1.8076,1.482,-0.3992,0.1575,0.1948,-86.1,-18.3,0.3,9.6726,1.798,-0.2298,0.0216,0.7717,0.57,-37.35,1.5,36.6,6.1,-0.73,-7.56,0.0491,0.2651,0.0491,-31.6875,19.25,17.5,67.6875,39.125,171.25,0,0.16100001335144043,9.509455034332936,0.47128964554719427,9.840975703658657,0.9596288084462659,9.741483459925393,0.2740431170454752
1776970346.38,9.2201,1.8818,1.968,-0.4855,0.15,0.1876,-86.85,-18.3,1.8,9.6726,1.798,-0.2298,0.0216,0.7717,0.57,-37.35,1.5,36.6,5.92,-0.9,-7.58,0.0491,0.2651,0.0491,-31.6875,19.25,17.5,67.6875,39.125,171.25,0,0.1660001277923584,9.613763011953228,0.5416678041013698,9.840975703658657,0.9596288084462659,9.659855071376588,0.2740431170454752
1776970346.389,9.2727,2.083,2.2027,-0.5476,0.1415,0.1863,-85.5,-17.4,1.65,9.5696,1.7813,-0.2059,0.0669,0.7834,0.583,-36.0,2.4,37.5,6.08,-0.76,-7.62,0.0404,0.2923,0.0502,-31.6875,19.25,17.5,67.6875,39.25,171.25,0,0.17499995231628418,9.755703028485442,0.5954793867129239,9.736152662114538,0.9788156976673391,9.77795479637741,0.29931837564706915
1776970346.394,9.2727,2.083,2.2027,-0.5476,0.1415,0.1863,-85.5,-17.4,1.65,9.5696,1.7813,-0.2059,0.0336,0.8164,0.615,-37.35,1.8,38.1,6.08,-0.76,-7.62,0.0065,0.2956,0.0382,-31.6875,19.25,17.5,67.75,39.4375,171.25,0,0.18000006675720215,9.755703028485442,0.5954793867129239,9.736152662114538,1.0226743958856113,9.77795479637741,0.29812891506863265
1776970346.401,9.2727,2.1668,2.3415,-0.5337,0.1234,0.1721,-85.05,-18.0,1.05,9.3613,1.4892,0.1077,0.0336,0.8164,0.615,-37.35,1.8,38.1,6.2,-0.82,-7.55,0.0065,0.2956,0.0382,-31.6875,19.25,17.5,67.75,39.4375,171.25,0,0.18700003623962402,9.806151629461988,0.5741791183942515,9.479623073730306,1.0226743958856113,9.80382068379466,0.29812891506863265
1776970346.405,9.2727,2.1668,2.3415,-0.5337,0.1234,0.1721,-85.05,-18.0,1.05,9.4547,1.5586,-0.0862,0.0317,0.8644,0.6648,-37.35,1.8,38.1,6.2,-0.82,-7.55,0.0065,0.2956,0.0382,-31.6875,19.0,17.0625,67.75,39.5625,171.1875,0,0.19099998474121094,9.806151629461988,0.5741791183942515,9.582693592617892,1.0909405529175271,9.80382068379466,0.29812891506863265
1776970346.411,9.1913,2.0734,2.5666,-0.4868,0.154,0.1655,-85.5,-18.45,1.95,9.4547,1.5586,-0.0862,0.0317,0.8644,0.6648,-37.35,1.8,38.1,6.23,-0.98,-7.57,-0.0131,0.2738,0.0327,-31.6875,19.0,17.0625,67.75,39.5625,171.1875,0,0.19700002670288086,9.765573142934315,0.5367313014907925,9.582693592617892,1.0909405529175271,9.852827005484263,0.27605676952395136
1776970346.415,9.1913,2.0734,2.5666,-0.4868,0.154,0.1655,-85.5,-18.45,1.95,9.3948,1.6759,-0.0503,0.0474,0.9052,0.6984,-34.5,1.05,39.9,6.23,-0.98,-7.57,-0.0131,0.2738,0.0327,-31.6875,19.0,17.0625,67.8125,39.6875,171.1875,0,0.20099997520446777,9.765573142934315,0.5367313014907925,9.54324043184494,1.1442885824825835,9.852827005484263,0.27605676952395136
1776970346.42,9.1698,1.9872,2.6384,-0.3714,0.1719,0.1753,-85.5,-18.45,1.95,9.3948,1.6759,-0.0503,0.0474,0.9052,0.6984,-34.5,1.05,39.9,6.26,-1.1,-7.59,-0.0196,0.2411,0.0273,-31.6875,19.0,17.0625,67.8125,39.6875,171.1875,0,0.20600008964538574,9.746555824495134,0.44521641928392536,9.54324043184494,1.1442885824825835,9.899782825900777,0.24343101692265925
1776970346.425,9.1698,1.9872,2.6384,-0.3714,0.1719,0.1753,-85.5,-18.45,1.95,9.4308,1.6903,0.0814,0.0221,0.9268,0.721,-35.1,0.3,39.45,6.26,-1.1,-7.59,-0.0273,0.2356,0.012,-31.6875,19.0,17.0625,67.8125,39.8125,171.1875,0,0.2109999656677246,9.746555824495134,0.44521641928392536,9.58142623464795,1.1744307770149758,9.899782825900777,0.23747978861368393
1776970346.431,9.2201,2.2505,2.4876,-0.3128,0.1375,0.1679,-84.75,-17.7,1.65,9.4308,1.6903,0.0814,0.0221,0.9268,0.721,-36.3,0.75,40.2,6.28,-0.99,-7.69,-0.0273,0.2356,0.012,-31.6875,19.0,17.0625,67.8125,39.9375,171.1875,0,0.21700000762939453,9.811378497438575,0.3807105199492129,9.58142623464795,1.1744307770149758,9.977705146976433,0.23747978861368393
1776970346.44,9.0381,2.1644,2.5953,-0.2809,0.1372,0.1655,-85.2,-18.15,0.45,9.4475,1.6352,0.1341,-0.0109,0.9358,0.756,-36.3,0.75,40.2,6.31,-0.95,-7.52,-0.0273,0.2182,0.0044,-31.6875,19.0,17.0625,67.8125,39.9375,171.1875,0,0.22600007057189941,9.649220748848064,0.3537215006187777,9.588905990779136,1.203069594828163,9.862504752850565,0.21994519771979565
1776970346.445,9.0453,2.0255,2.66,-0.2809,0.1372,0.1655,-85.2,-18.15,0.45,9.4571,1.7573,0.3496,0.0309,0.9582,0.7608,-34.8,-0.3,40.95,6.31,-0.95,-7.52,-0.0425,0.1767,0.0033,-31.6875,19.0,17.0625,67.8125,40.0625,171.25,0,0.23099994659423828,9.643427935127631,0.3537215006187777,9.625334480421968,1.223894885192352,9.862504752850565,0.1817691668022935
1776970346.451,9.0453,2.0255,2.66,-0.2361,0.1383,0.1514,-84.75,-20.4,0.45,9.4571,1.7573,0.3496,0.0309,0.9582,0.7608,-34.8,-0.3,40.95,6.21,-0.88,-7.53,-0.0425,0.1767,0.0033,-31.6875,19.0,17.0625,67.8125,40.0625,171.25,0,0.2369999885559082,9.643427935127631,0.3127172205044039,9.625334480421968,1.223894885192352,9.799969387707291,0.1817691668022935
1776970346.456,9.0836,1.743,2.988,-0.211,0.1199,0.1545,-84.75,-20.4,0.45,9.7037,1.3455,0.7374,0.073,0.9558,0.7528,-34.8,-0.3,40.95,6.21,-0.88,-7.53,-0.0589,0.168,-0.0033,-32.875,19.25,17.875,67.875,40.125,171.3125,0,0.24200010299682617,9.719978495860987,0.28769299609131954,9.824251762857058,1.2188480134947097,9.799969387707291,0.1780564517224804
1776970346.461,9.0836,1.743,2.988,-0.211,0.1199,0.1545,-85.2,-18.9,-0.15,9.7037,1.3455,0.7374,0.073,0.9558,0.7528,-34.8,-0.3,40.95,5.79,-0.83,-7.68,-0.0589,0.168,-0.0033,-32.875,19.25,17.875,67.875,40.125,171.3125,0,0.24699997901916504,9.719978495860987,0.28769299609131954,9.824251762857058,1.2188480134947097,9.653776463125713,0.1780564517224804
1776970346.466,9.1889,1.2043,3.0885,-0.2206,0.1263,0.1689,-85.2,-18.9,-0.15,9.924,0.9529,1.2067,0.1026,0.9369,0.7378,-34.8,-0.3,40.95,5.79,-0.83,-7.68,-0.0731,0.2182,-0.0076,-32.875,19.25,17.875,67.875,40.1875,171.3125,0,0.252000093460083,9.76857481672736,0.30519380727662215,10.042406051340485,1.196936593976473,9.653776463125713,0.23024467420550684
1776970346.471,9.1889,1.2043,3.0885,-0.2206,0.1263,0.1689,-83.7,-18.45,1.95,9.924,0.9529,1.2067,0.1026,0.9369,0.7378,-34.05,-0.3,41.55,5.85,-0.88,-7.9,-0.0731,0.2182,-0.0076,-32.875,19.25,17.875,67.875,40.1875,171.3125,0,0.2569999694824219,9.76857481672736,0.30519380727662215,10.042406051340485,1.196936593976473,9.86949340138591,0.23024467420550684
1776970346.475,9.1363,0.838,2.8898,-0.1916,0.1468,0.1836,-83.7,-18.45,1.95,9.8737,0.7278,1.4796,0.1005,0.9782,0.7373,-34.05,-0.3,41.55,5.85,-0.88,-7.9,-0.0447,0.3382,-0.0011,-32.875,19.25,17.875,67.875,40.375,171.3125,0,0.2609999179840088,9.61900024586755,0.3032651645012991,10.010437587338526,1.2290593069498315,9.86949340138591,0.3411429905479519
1776970346.481,9.1363,0.838,2.8898,-0.1916,0.1468,0.1836,-85.8,-18.3,0.6,9.8737,0.7278,1.4796,0.1005,0.9782,0.7373,-34.2,-0.9,42.45,5.74,-0.75,-7.77,-0.0447,0.3382,-0.0011,-32.875,19.25,17.875,67.9375,40.625,171.3125,0,0.2669999599456787,9.61900024586755,0.3032651645012991,10.010437587338526,1.2290593069498315,9.689324021829387,0.3411429905479519
1776970346.49,9.2081,0.4142,2.7749,-0.1748,0.1474,0.2033,-85.8,-18.3,0.6,9.991,0.2825,1.3886,0.0959,1.0483,0.7314,-33.15,-1.2,42.15,6.19,-1.18,-7.64,-0.0371,0.4374,0.0098,-32.875,19.25,17.875,67.9375,40.625,171.3125,0,0.2760000228881836,9.626044736027357,0.3059619093939636,10.09099089336622,1.2818251284789202,9.903438796700872,0.43907995854969284
1776970346.5,9.244,0.3448,2.4636,-0.1943,0.121,0.2148,-84.75,-19.35,1.2,9.6726,-0.4166,1.4054,-0.0061,0.9758,0.7759,-33.15,-1.2,42.15,6.57,-1.12,-7.57,-0.024,0.4832,-0.0098,-32.875,19.25,17.875,67.9375,40.9375,171.3125,0,0.28600001335144043,9.572865192824977,0.31389891685063204,9.783041218353318,1.2466930897378072,10.085841561317528,0.48389490594549556
1776970346.505,9.1482,0.1987,2.2769,-0.2121,0.0839,0.2284,-84.75,-19.35,1.2,9.5002,-0.5602,1.3264,-0.1428,0.992,0.8087,-33.15,-1.2,42.15,6.57,-1.12,-7.57,-0.024,0.4832,-0.0098,-32.875,19.25,17.875,67.9375,40.9375,171.3125,0,0.2910001277923584,9.429385904712989,0.32278813485009017,9.608691952602081,1.2878088095676314,10.085841561317528,0.48389490594549556
1776970346.51,9.1482,0.1987,2.2769,-0.2121,0.0839,0.2284,-84.75,-19.35,1.2,9.5002,-0.5602,1.3264,-0.1428,0.992,0.8087,-33.15,-1.2,42.15,6.39,-1.09,-7.44,-0.0371,0.4745,-0.0316,-31.75,20.0,17.0625,67.9375,41.1875,171.3125,0,0.29600000381469727,9.429385904712989,0.32278813485009017,9.608691952602081,1.2878088095676314,9.867816374456915,0.47699603771939236
1776970346.515,9.0788,0.1389,2.1165,-0.255,0.0986,0.2454,-84.75,-19.35,1.2,9.6103,-0.7877,0.972,-0.3285,0.999,0.8489,-33.15,-1.2,42.15,6.39,-1.09,-7.44,-0.0371,0.4745,-0.0316,-31.75,20.0,17.0625,67.9375,41.1875,171.3125,0,0.30100011825561523,9.32327597467757,0.3673800756709596,9.6913941917559,1.3514971180139452,9.867816374456915,0.47699603771939236
1776970346.52,9.0788,0.1389,2.1165,-0.255,0.0986,0.2454,-85.05,-18.3,1.35,9.6103,-0.7877,0.972,-0.3285,0.999,0.8489,-32.55,-3.0,43.8,6.28,-1.35,-7.52,-0.0458,0.4385,-0.0513,-31.75,20.0,17.0625,67.9375,41.4375,171.3125,0,0.3059999942779541,9.32327597467757,0.3673800756709596,9.6913941917559,1.3514971180139452,9.889959555023468,0.44385986527281335
1776970346.527,9.2105,0.2921,1.9585,-0.2846,0.065,0.2675,-85.05,-18.3,1.35,9.821,-0.6249,0.7254,-0.4655,1.0006,0.8836,-32.55,-3.0,43.8,6.26,-1.57,-7.51,-0.108,0.5094,-0.0949,-31.75,20.0,17.0625,67.9375,41.6875,171.375,0,0.312999963760376,9.420952972496996,0.3959525350341882,9.867560294723312,1.4137324959128583,9.902151281413548,0.5292998866427235
1776970346.532,9.3948,0.5483,1.8292,-0.2846,0.065,0.2675,-84.75,-20.1,0.45,9.73,0.0335,0.929,-0.5159,1.0086,0.8961,-33.0,-2.25,43.05,6.26,-1.57,-7.51,-0.108,0.5094,-0.0949,-31.75,20.0,17.0625,67.875,42.0625,171.5,0,0.31800007820129395,9.586911524051946,0.3959525350341882,9.77430627973157,1.4444452152989395,9.902151281413548,0.5292998866427235
1776970346.54,9.3948,0.5483,1.8292,-0.3131,-0.0077,0.2801,-84.6,-18.3,1.05,9.9216,0.5363,0.9792,-0.506,1.0171,0.903,-33.3,-3.3,43.8,6.36,-1.34,-7.47,-0.1778,0.5803,-0.1636,-31.75,20.0,17.0625,67.8125,42.4375,171.75,0,0.3259999752044678,9.586911524051946,0.4201748564585939,9.984217389961017,1.4511848297167387,9.901823064466463,0.6285903992267142
1776970346.55,9.4499,0.8164,1.9537,-0.3864,-0.1085,0.2734,-84.6,-18.3,1.05,9.9192,0.6321,1.5131,-0.4178,1.0389,0.919,-33.9,-4.2,43.95,6.32,-1.35,-7.55,-0.2585,0.6632,-0.2509,-31.75,20.0,17.0625,67.8125,42.4375,171.75,0,0.3359999656677246,9.684217193970817,0.4856179259459025,10.053832635368463,1.448596234290287,9.93817890762689,0.7547233267893606
1776970346.555,9.4834,1.0104,2.1069,-0.4906,-0.2188,0.2795,-84.45,-20.1,1.95,9.9192,0.6321,1.5131,-0.4178,1.0389,0.919,-33.9,-4.2,43.95,6.32,-1.35,-7.55,-0.2585,0.6632,-0.2509,-31.75,20.0,17.0625,67.8125,42.4375,171.75,0,0.3410000801086426,9.76702673949447,0.6055427730557107,10.053832635368463,1.448596234290287,9.93817890762689,0.7547233267893606
1776970346.56,9.4858,0.9409,2.2098,-0.4906,-0.2188,0.2795,-84.75,-20.1,1.2,9.9359,0.6249,1.7837,-0.3043,1.0635,0.9185,-31.35,-4.65,43.2,6.51,-0.77,-7.35,-0.3556,0.7189,-0.2902,-32.5,20.0,14.6875,67.75,42.8125,172.0,0,0.34599995613098145,9.785137223871722,0.6055427730557107,10.114059249875888,1.4378014431763517,9.848629346259305,0.8529270836361101
1776970346.565,9.4858,0.9409,2.2098,-0.5971,-0.2992,0.2899,-84.75,-20.1,1.2,9.9359,0.6249,1.7837,-0.3043,1.0635,0.9185,-31.35,-4.65,43.2,6.51,-0.77,-7.35,-0.3556,0.7189,-0.2902,-32.5,20.0,14.6875,67.75,42.8125,172.0,0,0.3510000705718994,9.785137223871722,0.728073526506767,10.114059249875888,1.4378014431763517,9.848629346259305,0.8529270836361101
1776970346.57,9.56,0.9098,2.4229,-0.5971,-0.2992,0.2899,-84.75,-20.1,1.2,10.1323,-0.0359,1.9728,-0.2385,1.0826,0.9236,-31.35,-4.65,43.2,6.62,-0.7,-7.36,-0.4854,0.697,-0.2847,-32.5,20.0,14.6875,67.75,43.25,172.375,0,0.3559999465942383,9.904129464521352,0.728073526506767,10.322632025796523,1.4428936100766403,9.92391051954823,0.8958103873030273
1776970346.576,9.56,0.9098,2.4229,-0.7099,-0.3413,0.2992,-85.05,-19.95,0.6,10.1323,-0.0359,1.9728,-0.2385,1.0826,0.9236,-31.35,-4.65,43.2,6.63,-0.81,-7.41,-0.648,0.6938,-0.2302,-32.5,20.0,14.6875,67.8125,43.625,172.8125,0,0.3619999885559082,9.904129464521352,0.8425938167349675,10.322632025796523,1.4428936100766403,9.976026262996704,0.9768594985974186
1776970346.581,9.5457,0.8667,2.4876,-0.749,-0.3224,0.3158,-85.05,-19.95,0.6,10.0437,-0.5674,1.8723,-0.2102,1.1026,0.9297,-31.35,-4.95,45.75,6.63,-0.81,-7.41,-0.648,0.6938,-0.2302,-32.5,20.0,14.6875,67.875,44.0625,173.3125,0,0.36700010299682617,9.902510345361927,0.8744554877179284,10.232465965738658,1.4574816945677225,9.976026262996704,0.9768594985974186
1776970346.59,9.5864,0.7949,2.4876,-0.7466,-0.2819,0.3405,-85.05,-19.95,0.6,10.1658,-1.2833,1.4844,-0.3611,1.1194,0.9723,-30.75,-5.55,46.65,6.69,-0.78,-7.43,-0.7647,0.769,-0.216,-32.5,20.0,14.6875,67.875,44.0625,173.3125,0,0.37599992752075195,9.935747819364178,0.867651669738496,10.353443479828343,1.526046152644146,10.028429587926517,1.105795229687667
1776970346.6,9.5864,0.9026,2.2865,-0.6936,-0.2406,0.372,-84.6,-20.7,-0.3,10.4531,-1.4126,1.2833,-0.6307,1.101,1.0064,-31.05,-6.15,46.35,6.43,-0.25,-7.92,-0.7396,0.8574,-0.2127,-32.5,20.0,14.6875,67.9375,44.5625,173.8125,0,0.3859999179840088,9.896556672398738,0.8230147750800103,10.625892774727212,1.6195136461296025,10.204597003311791,1.1521216125045135
1776970346.605,9.5864,0.9026,2.2865,-0.6936,-0.2406,0.372,-84.6,-20.7,-0.3,10.4531,-1.4126,1.2833,-0.6307,1.101,1.0064,-31.05,-6.15,46.35,6.43,-0.25,-7.92,-0.7396,0.8574,-0.2127,-32.5,20.0,14.6875,56.4375,45.125,174.125,0,0.39100003242492676,9.896556672398738,0.8230147750800103,10.625892774727212,1.6195136461296025,10.204597003311791,1.1521216125045135
1776970346.61,9.5864,1.2378,1.8651,-0.6057,-0.2206,0.401,-84.6,-20.7,-0.3,10.307,-1.0534,1.3264,-0.8569,1.0912,1.0629,-30.45,-6.3,46.95,6.56,0.4,-7.89,-0.5825,1.0134,-0.1473,-33.5625,19.6875,14.25,56.4375,45.125,174.125,0,0.3959999084472656,9.84427812538837,0.7591691840426612,10.445249519279088,1.7477847293073594,10.268675669237975,1.1781269456217358
1776970346.615,9.5864,1.2378,1.8651,-0.6057,-0.2206,0.401,-87.0,-22.05,-0.15,10.307,-1.0534,1.3264,-0.8569,1.0912,1.0629,-30.45,-6.3,46.95,6.56,0.4,-7.89,-0.5825,1.0134,-0.1473,-33.5625,19.6875,14.25,57.0625,45.75,174.3125,0,0.4010000228881836,9.84427812538837,0.7591691840426612,10.445249519279088,1.7477847293073594,10.268675669237975,1.1781269456217358
1776970346.62,9.4427,1.6807,1.5586,-0.5798,-0.1655,0.4191,-87.0,-22.05,-0.15,10.0102,-0.3855,1.4533,-0.9896,1.0973,1.1242,-30.45,-6.3,46.95,6.83,-0.66,-7.33,-0.324,1.1552,-0.0753,-33.5625,19.6875,14.25,57.0625,45.75,174.3125,0,0.40599989891052246,9.716921824322762,0.7343045008714028,10.122489574210487,1.8566639679812822,10.040587632205597,1.2021369015216194
1776970346.626,9.4427,1.6807,1.5586,-0.5798,-0.1655,0.4191,-85.05,-20.7,1.35,10.0102,-0.3855,1.4533,-0.9896,1.0973,1.1242,-30.45,-6.3,46.95,6.47,-0.49,-7.33,-0.2509,1.261,-0.0578,-33.5625,19.6875,14.25,57.5625,46.5,174.375,0,0.4119999408721924,9.716921824322762,0.7343045008714028,10.122489574210487,1.8566639679812822,9.789274743309639,1.2870169579302362
1776970346.631,9.4954,1.9345,1.4461,-0.5228,-0.2627,0.4375,-85.2,-21.3,-0.45,10.1299,-0.1125,1.2522,-0.9553,1.1146,1.1594,-28.65,-6.3,46.2,6.47,-0.49,-7.33,-0.2509,1.261,-0.0578,-33.5625,19.6875,14.25,57.9375,47.25,174.4375,0,0.41700005531311035,9.797760796222777,0.7305733228088745,10.20762142225112,1.8705987303534664,9.789274743309639,1.2870169579302362
1776970346.64,9.6175,2.0925,1.1396,-0.4775,-0.3035,0.4708,-85.2,-21.3,-0.45,10.137,0.1556,1.1779,-0.7935,1.1378,1.1895,-29.85,-9.15,48.15,6.58,-0.35,-7.59,-0.0905,1.4159,-0.0807,-33.5625,19.6875,14.25,57.9375,47.25,174.4375,0,0.42600011825561523,9.908256691265118,0.7360510444255887,10.206391564603036,1.8273317542252692,10.051218831564658,1.4210825275120373
1776970346.65,9.5553,2.3918,0.6249,-0.469,-0.307,0.477,-84.45,-22.5,-1.95,10.1801,0.6321,0.8739,-0.6235,1.166,1.2209,-26.85,-10.05,49.05,6.29,0.32,-8.07,0.1865,1.5937,-0.0698,-33.5625,19.6875,14.25,57.875,48.125,174.25,0,0.43600010871887207,9.869901992421202,0.7360292113768311,10.237074173317295,1.7996958242992065,10.236767067780727,1.6060927681799704
1776970346.655,9.5553,2.3918,0.6249,-0.469,-0.307,0.477,-83.7,-21.3,-0.9,10.1801,0.6321,0.8739,-0.6235,1.166,1.2209,-26.85,-10.05,49.05,6.29,0.32,-8.07,0.1865,1.5937,-0.0698,-33.5625,19.6875,14.25,57.875,48.125,174.25,0,0.44099998474121094,9.869901992421202,0.7360292113768311,10.237074173317295,1.7996958242992065,10.236767067780727,1.6060927681799704
1776970346.66,9.7324,2.7916,0.0215,-0.4655,-0.3373,0.481,-83.7,-21.3,-0.9,10.9463,0.7039,-0.0503,-0.5894,1.2103,1.2718,-27.6,-9.3,49.05,8.04,-2.13,-7.06,0.8552,1.9788,-0.024,-34.6875,18.5625,14.25,57.0625,49.25,173.6875,0,0.4460000991821289,10.12487543478931,0.7495482239322565,10.96902406734528,1.85194321997193,10.90972501944939,2.1558275626774974
1776970346.665,9.7324,2.7916,0.0215,-0.4655,-0.3373,0.481,-83.85,-22.2,-1.8,10.9463,0.7039,-0.0503,-0.5894,1.2103,1.2718,-27.6,-9.3,49.05,8.04,-2.13,-7.06,0.8552,1.9788,-0.024,-34.6875,18.5625,14.25,57.0625,49.25,173.6875,0,0.4509999752044678,10.12487543478931,0.7495482239322565,10.96902406734528,1.85194321997193,10.90972501944939,2.1558275626774974
1776970346.67,10.58,3.699,-0.4046,-0.4442,-0.4373,0.4359,-83.85,-22.2,-1.8,11.5233,0.5674,-0.1053,-0.5436,1.2478,1.3302,-26.7,-9.9,48.9,4.62,0.32,-7.55,0.9883,1.6864,-0.0273,-34.6875,18.5625,14.25,56.125,50.1875,173.0,0,0.45600008964538574,11.21528876846245,0.7606272017223681,11.53774127548369,1.9031389439554853,8.857160944681992,1.9548470886491351
1776970346.675,10.58,3.699,-0.4046,-0.4442,-0.4373,0.4359,-83.85,-22.2,-1.8,11.5233,0.5674,-0.1053,-0.6699,1.3137,1.4306,-26.7,-9.9,48.9,4.62,0.32,-7.55,0.7243,1.3057,-0.6403,-34.6875,18.5625,14.25,55.8125,50.9375,172.9375,0,0.4609999656677246,11.21528876846245,0.7606272017223681,11.53774127548369,2.054553494071157,8.857160944681992,1.6246375195716736
1776970346.681,10.6159,4.3551,-0.8739,-0.4828,-0.5351,0.3813,-83.85,-22.2,-1.8,12.062,0.0024,-0.9385,-0.6699,1.3137,1.4306,-26.7,-9.9,48.9,7.3,-0.71,-6.63,0.7243,1.3057,-0.6403,-34.6875,18.5625,14.25,56.625,51.75,173.4375,0,0.46700000762939453,11.507733487963648,0.8153634404362265,12.098455769642669,2.054553494071157,9.886910538686998,1.6246375195716736
1776970346.69,11.1067,5.3654,-1.1061,-0.4525,-0.5812,0.2952,-84.45,-21.3,-1.65,12.402,-0.17,-1.7358,-0.8042,1.3558,1.5375,-25.35,-11.55,48.45,5.49,-1.37,-10.26,-0.2542,1.4366,-0.7003,-34.6875,18.5625,14.25,56.625,51.75,173.4375,0,0.4760000705718994,12.3842544894717,0.7935318078060892,12.524037114285472,2.2020076135199895,11.716851112820374,1.6182883828292163
1776970346.7,11.0085,6.1986,-1.573,-0.3997,-0.7237,0.1884,-84.45,-21.3,-1.65,12.8018,1.1133,-2.0758,-1.0682,1.4144,1.667,-23.85,-12.75,49.5,5.42,-0.07,-7.88,-0.2422,1.6352,-0.8585,-34.6875,18.5625,14.25,57.5625,52.75,174.0625,0,0.48600006103515625,12.731223162367392,0.8479365188503205,13.016699496032011,2.433201101429966,9.564292969164004,1.8626760668457627
1776970346.705,11.066,6.62,-1.6257,-0.5529,-0.8695,0.0709,-84.15,-21.9,-3.3,13.2974,2.2075,-2.66,-1.4075,1.473,1.8295,-23.85,-12.75,49.5,5.42,-0.07,-7.88,-0.2422,1.6352,-0.8585,-34.6875,18.5625,14.25,57.5625,52.75,174.0625,0,0.4909999370574951,12.997063379471534,1.0328385498227688,13.739341432907183,2.7382212291924115,9.564292969164004,1.8626760668457627
1776970346.71,11.066,6.62,-1.6257,-0.5529,-0.8695,0.0709,-84.15,-21.9,-3.3,13.2974,2.2075,-2.66,-1.4075,1.473,1.8295,-23.55,-13.8,49.8,7.3,0.57,-7.48,-0.0982,1.7617,-0.8149,-36.1875,21.5,10.0,58.25,53.75,174.5625,0,0.4960000514984131,12.997063379471534,1.0328385498227688,13.739341432907183,2.7382212291924115,10.467344457884245,1.9435256983122193
1776970346.715,11.5855,5.8323,-2.0518,-0.7408,-1.1674,-0.0485,-85.05,-23.85,-4.35,13.5296,2.4852,-3.3255,-1.5617,1.4797,2.0075,-23.55,-13.8,49.8,7.3,0.57,-7.48,-0.0982,1.7617,-0.8149,-36.1875,21.5,10.0,58.25,53.75,174.5625,0,0.500999927520752,13.131999725098993,1.3834593055092008,14.15221698003532,2.9425287135387483,10.467344457884245,1.9435256983122193
1776970346.72,11.5855,5.8323,-2.0518,-0.7408,-1.1674,-0.0485,-85.05,-23.85,-4.35,13.5296,2.4852,-3.3255,-1.5617,1.4797,2.0075,-23.55,-14.25,50.1,6.74,0.5,-8.32,0.1909,1.6013,-0.5083,-36.1875,21.5,10.0,58.4375,54.625,174.75,0,0.5060000419616699,13.131999725098993,1.3834593055092008,14.15221698003532,2.9425287135387483,10.719141756689293,1.6908499016766685
1776970346.727,12.2751,4.4341,-2.1548,-0.7877,-1.6289,-0.1644,-85.5,-23.25,-3.0,13.3668,2.8323,-3.0837,-1.473,1.5212,2.0733,-23.55,-14.25,50.1,5.51,1.92,-10.26,0.7559,1.9079,-0.4451,-36.1875,21.5,10.0,58.0,55.75,174.5625,0,0.5130000114440918,13.228094566489915,1.8168142062412436,14.00722924849879,2.9635032191647777,11.80313941288503,2.099900290490003
1776970346.732,12.2751,4.4341,-2.1548,-0.7877,-1.6289,-0.1644,-85.5,-23.25,-3.0,13.3668,2.8323,-3.0837,-1.473,1.5212,2.0733,-23.55,-14.25,50.1,5.51,1.92,-10.26,0.7559,1.9079,-0.4451,-36.1875,21.5,10.0,57.375,57.1875,174.125,0,0.5180001258850098,13.228094566489915,1.8168142062412436,14.00722924849879,2.9635032191647777,11.80313941288503,2.099900290490003
1776970346.741,12.3062,3.4357,-1.3048,-0.6989,-1.9777,-0.2659,-86.25,-22.5,-4.95,12.9359,2.9497,-2.569,-1.2758,1.5599,2.0587,-23.55,-14.25,50.1,5.62,1.51,-8.35,1.0614,2.5918,-0.4701,-36.1875,21.5,10.0,57.375,57.1875,174.125,0,0.5269999504089355,12.843250989138225,2.11434654444346,13.514362726373745,2.8808330982547394,10.177769893252647,2.839892816639389
1776970346.751,11.9207,2.8611,-0.8212,-0.469,-2.0342,-0.3909,-85.95,-22.05,-6.0,12.3397,2.6647,-1.7502,-1.0664,1.6355,1.9833,-21.6,-16.95,50.4,7.24,0.97,-7.23,0.985,3.8943,-0.0829,-36.1875,21.5,10.0,56.6875,59.3125,173.25,0,0.5369999408721924,12.286714415986072,2.1238487351974946,12.744882197180168,2.783082481709804,10.27771375355434,4.017794158490452
1776970346.755,11.5903,2.4972,-0.8021,-0.336,-2.2335,-0.5401,-86.25,-22.5,-7.95,11.3509,2.8587,-0.4812,-0.9489,1.6915,1.9244,-20.1,-19.65,51.0,7.24,0.97,-7.23,0.985,3.8943,-0.0829,-36.1875,21.5,10.0,55.75,62.3125,171.3125,0,0.5410001277923584,11.883367634639601,2.3223105434028413,11.715231535910844,2.7321967022892037,10.27771375355434,4.017794158490452
1776970346.761,11.5903,2.4972,-0.8021,-0.336,-2.2335,-0.5401,-86.25,-22.5,-7.95,11.3509,2.8587,-0.4812,-0.9489,1.6915,1.9244,-20.1,-19.65,51.0,10.94,1.53,-9.76,0.9861,5.5316,0.6763,-38.375,18.5625,9.1875,55.75,62.3125,171.3125,0,0.5469999313354492,11.883367634639601,2.3223105434028413,11.715231535910844,2.7321967022892037,14.740491850681238,5.659361577068565
1776970346.765,11.0995,2.466,-0.4549,-0.2129,-2.6212,-0.6952,-86.25,-22.5,-7.95,12.3876,1.4389,2.2314,-0.7975,1.8764,1.8866,-19.65,-19.95,51.0,10.94,1.53,-9.76,0.9861,5.5316,0.6763,-38.375,18.5625,9.1875,54.6875,65.5,168.375,0,0.5510001182556152,11.379235047225276,2.72016890835845,12.668946796399457,2.777794587438027,14.740491850681238,5.659361577068565
1776970346.77,11.0995,2.466,-0.4549,-0.2129,-2.6212,-0.6952,-86.25,-22.5,-7.95,12.3876,1.4389,2.2314,-0.7975,1.8764,1.8866,-19.65,-19.95,51.0,12.84,1.51,-10.41,1.0908,6.0334,1.0297,-38.375,18.5625,9.1875,54.6875,65.5,168.375,0,0.5559999942779541,11.379235047225276,2.72016890835845,12.668946796399457,2.777794587438027,16.598608375403042,6.217076667534349
1776970346.775,10.2639,2.047,1.5562,-0.0386,-2.6276,-0.8284,-86.25,-20.85,-10.05,12.627,0.4549,3.6152,-0.684,1.9119,1.8271,-17.85,-21.45,50.7,12.84,1.51,-10.41,1.3624,5.5458,1.0941,-38.375,18.5625,9.1875,53.4375,68.375,164.5625,0,0.5610001087188721,10.581096854768886,2.75536173305793,13.142211916188234,2.7315768376525673,16.598608375403042,5.81455812680551
1776970346.781,10.307,1.2258,2.6863,-0.0386,-2.6276,-0.8284,-86.25,-20.85,-10.05,12.627,0.4549,3.6152,-0.5484,2.0669,1.7693,-17.85,-21.45,50.7,14.77,1.08,-10.41,1.3624,5.5458,1.0941,-38.375,18.5625,9.1875,52.3125,70.9375,159.875,0,0.5669999122619629,10.721615658565645,2.75536173305793,13.142211916188234,2.7754712500762824,18.102137995275587,5.81455812680551
1776970346.791,10.6303,-0.34,3.0909,0.2481,-2.3835,-0.9459,-86.25,-20.85,-10.05,12.1506,-0.9218,5.1356,-0.5484,2.0669,1.7693,-17.85,-21.45,50.7,15.33,0.96,-9.83,1.1966,5.2665,1.1148,-38.375,18.5625,9.1875,52.3125,70.9375,159.875,0,0.5769999027252197,11.075763671187644,2.5763060124915285,13.223508723481828,2.7754712500762824,18.236211229309667,5.514585464928438
1776970346.801,11.2791,-1.9178,2.5283,0.4892,-1.9172,-1.0722,-86.85,-22.65,-12.45,12.2104,-1.4054,6.8235,-0.2763,2.2404,1.7224,-16.65,-21.3,51.6,19.77,0.12,-12.55,1.0527,5.5654,1.1585,-38.375,18.5625,9.1875,51.4375,73.5625,153.625,0,0.5870001316070557,11.717011331393342,2.250463356733453,14.058064218447717,2.839435790786613,23.41729702591655,5.781347308370256
1776970346.805,11.2791,-1.9178,2.5283,0.7032,-1.6318,-1.1631,-87.0,-20.1,-12.75,11.4706,-2.5426,6.4739,-0.2763,2.2404,1.7224,-15.3,-22.95,53.55,19.77,0.12,-12.55,1.0527,5.5654,1.1585,-38.375,18.5625,9.1875,51.4375,73.5625,153.625,0,0.5910000801086426,11.717011331393342,2.12369091206795,13.41457641261922,2.839435790786613,23.41729702591655,5.781347308370256
1776970346.811,11.2025,-2.7342,2.5187,0.7032,-1.6318,-1.1631,-87.0,-20.1,-12.75,10.6757,-3.5745,6.7062,-0.2006,2.0915,1.6721,-15.3,-22.95,53.55,19.47,0.7,-14.86,0.7309,5.3702,1.0112,-39.75,21.1875,-0.5625,50.875,75.8125,145.9375,0,0.5970001220703125,11.803207427644404,2.12369091206795,13.104226004613931,2.6852431956901035,24.50286717916905,5.513237550659322
1776970346.815,11.2025,-2.7342,2.5187,0.7855,-1.4365,-1.2073,-88.2,-18.45,-12.75,10.6757,-3.5745,6.7062,-0.2006,2.0915,1.6721,-14.1,-24.3,52.35,19.47,0.7,-14.86,0.7309,5.3702,1.0112,-39.75,21.1875,-0.5625,50.875,75.8125,145.9375,0,0.6010000705718994,11.803207427644404,2.034235922895867,13.104226004613931,2.6852431956901035,24.50286717916905,5.513237550659322
1776970346.82,11.9016,-2.9018,1.6496,0.9531,-1.57,-1.2092,-88.2,-18.45,-12.75,10.0365,-5.1188,6.5242,-0.2779,1.881,1.6134,-14.1,-24.3,52.35,15.08,0.03,-14.16,0.7549,4.2684,1.0276,-39.75,21.1875,-0.5625,50.1875,77.375,137.5,0,0.6059999465942383,12.360813321137083,2.198968906101221,13.019164002730745,2.4936818100952656,20.686055689763577,4.454781064205063
1776970346.828,11.9016,-2.9018,1.6496,0.9531,-1.57,-1.2092,-87.0,-18.15,-13.5,10.0365,-5.1188,6.5242,-0.2779,1.881,1.6134,-14.25,-22.65,52.8,8.01,1.3,-12.55,0.7189,3.6248,1.0745,-39.75,21.1875,-0.5625,49.5,78.3125,128.375,0,0.6140000820159912,12.360813321137083,2.198968906101221,13.019164002730745,2.4936818100952656,14.944985781190962,3.84844676460517
1776970346.833,11.8489,-2.8299,1.8172,0.586,-1.1386,-1.2113,-85.95,-16.5,-13.8,8.1977,-5.363,6.8833,-0.32,1.5282,1.493,-14.25,-22.65,52.8,8.01,1.3,-12.55,0.7189,3.6248,1.0745,-39.75,21.1875,-0.5625,48.625,78.625,118.6875,0,0.6189999580383301,12.316938786078302,1.7626836500064327,11.972630169682851,2.1602879993186095,14.944985781190962,3.84844676460517
1776970346.841,12.8593,-2.15,1.4437,0.3376,-1.0645,-1.2068,-85.95,-16.5,-13.8,7.1204,-6.1052,6.596,-0.5993,1.2609,1.3835,-13.8,-24.0,56.25,3.04,2.97,-11.74,0.7079,3.171,1.3548,-39.75,21.1875,-0.5625,47.25,78.3125,109.9375,0,0.627000093460083,13.117483225832613,1.6442324197022757,11.466506843847432,1.9654774356374585,12.485595700646407,3.520205455651701
1776970346.851,12.8066,-1.5036,1.5179,0.2491,-1.0195,-1.1858,-86.55,-15.9,-13.2,6.5673,-7.264,7.0916,-0.5761,0.8354,1.1874,-13.8,-24.0,56.25,-5.91,0.67,-11.63,1.1334,2.4871,1.7497,-39.75,21.1875,-0.5625,47.25,78.3125,109.9375,0,0.6370000839233398,12.983598766520783,1.5835254023854495,12.090736778625198,1.5619549065193912,13.06269114692681,3.245259937200717
1776970346.856,12.8066,-1.5036,1.5179,0.2491,-1.0195,-1.1858,-86.55,-15.9,-13.2,6.5673,-7.264,7.0916,-0.5761,0.8354,1.1874,-11.85,-24.75,53.7,-5.91,0.67,-11.63,1.1334,2.4871,1.7497,-39.75,21.1875,-0.5625,46.0,77.875,101.5625,0,0.6419999599456787,12.983598766520783,1.5835254023854495,12.090736778625198,1.5619549065193912,13.06269114692681,3.245259937200717
1776970346.861,13.1921,-0.5938,1.3144,0.1855,-0.9324,-1.1527,-86.55,-15.9,-13.2,5.2313,-6.5362,7.8219,-0.3251,0.3381,0.8029,-11.85,-24.75,53.7,18.42,-4.22,-14.64,1.1726,2.5864,1.6101,-39.0625,25.5,-10.0,46.0,77.875,101.5625,0,0.6470000743865967,13.270710162233218,1.4941543762275704,11.457335193665235,0.929865597815082,23.90469409969515,3.2644873609802807
1776970346.866,13.1921,-0.5938,1.3144,0.1855,-0.9324,-1.1527,-86.7,-14.25,-17.55,5.2313,-6.5362,7.8219,-0.3251,0.3381,0.8029,-12.3,-25.8,54.15,18.42,-4.22,-14.64,1.1726,2.5864,1.6101,-39.0625,25.5,-10.0,45.8125,77.1875,94.875,0,0.6519999504089355,13.270710162233218,1.4941543762275704,11.457335193665235,0.929865597815082,23.90469409969515,3.2644873609802807
1776970346.871,12.4235,-0.146,1.6281,0.2046,-1.0219,-1.1002,-86.7,-14.25,-17.55,4.3527,-5.2122,6.1363,-0.6995,-0.0557,0.4919,-12.3,-25.8,54.15,15.59,-2.32,-19.37,-0.6534,2.606,1.6352,-39.0625,25.5,-10.0,45.8125,77.1875,94.875,0,0.6570000648498535,12.530577714534953,1.515447395985753,9.152442505692127,0.8569529450325729,24.972532911180636,3.1451624123405773
1776970346.876,12.4235,-0.146,1.6281,0.2046,-1.0219,-1.1002,-86.7,-14.25,-17.55,4.3527,-5.2122,6.1363,-0.6995,-0.0557,0.4919,-10.8,-24.0,54.45,15.59,-2.32,-19.37,-2.3736,1.0079,2.3867,-39.0625,25.5,-10.0,45.875,75.875,93.4375,0,0.6619999408721924,12.530577714534953,1.515447395985753,9.152442505692127,0.8569529450325729,24.972532911180636,3.5137126035007475
1776970346.882,12.3469,0.4357,2.0087,0.2081,-0.902,-1.1415,-86.7,-14.25,-17.55,5.952,-3.699,5.1188,-1.1602,-0.0871,0.2638,-10.8,-24.0,54.45,9.03,2.11,-18.69,-2.3736,1.0079,2.3867,-39.0625,25.5,-10.0,45.5,74.6875,98.0,0,0.6679999828338623,12.516814682258422,1.4696706637883197,8.678192118177611,1.1929966010010253,20.864062404047782,3.5137126035007475
1776970346.891,12.0764,0.7661,1.8172,0.3584,-0.7394,-1.2313,-86.85,-14.4,-17.4,7.2496,-2.7485,5.2122,-1.4722,-0.3765,0.0946,-11.25,-25.5,53.7,3.44,4.24,-13.9,-1.6635,-1.9122,1.9166,-39.0625,25.5,-10.0,44.1875,73.375,103.75,0,0.6770000457763672,12.236362286643853,1.4802913936114064,9.342268528039643,1.5225223315275214,14.933894334700511,3.177592901867701
1776970346.901,12.0476,1.0008,2.2051,0.5913,-0.5137,-1.3201,-86.7,-12.3,-17.85,6.3686,-2.0375,4.6184,-1.3078,-0.7869,-0.2009,-11.25,-25.5,53.7,-2.74,4.0,-3.92,-0.4222,-3.2463,1.8773,-39.0625,25.5,-10.0,44.1875,73.375,103.75,0,0.687000036239624,12.288561039031379,1.5349877491367807,8.126505446377305,1.5394522597339615,6.234901763460271,3.7737212165182528
1776970346.906,11.7962,1.0846,2.0566,0.5913,-0.5137,-1.3201,-86.1,-13.2,-17.4,6.3686,-2.0375,4.6184,-1.3078,-0.7869,-0.2009,-11.25,-25.5,53.7,-2.74,4.0,-3.92,-0.4222,-3.2463,1.8773,-39.0625,25.5,-10.0,42.9375,72.0625,107.75,0,0.6919999122619629,12.023156622118837,1.5349877491367807,8.126505446377305,1.5394522597339615,6.234901763460271,3.7737212165182528
1776970346.911,11.7962,1.0846,2.0566,0.8404,-0.3421,-1.3504,-86.1,-13.2,-17.4,5.4731,-1.8771,4.3407,-0.7973,-1.0451,-0.4549,-11.25,-25.5,53.7,-1.74,3.62,-4.08,-0.2651,-2.7467,1.669,-37.25,27.0,-15.875,42.9375,72.0625,107.75,0,0.6970000267028809,12.023156622118837,1.6269249306590639,7.233256839764505,1.3909907656055809,5.725242352948913,3.2249340923497956
1776970346.916,11.0277,0.9768,2.0806,0.8404,-0.3421,-1.3504,-86.1,-12.9,-17.4,5.4731,-1.8771,4.3407,-0.7973,-1.0451,-0.4549,-13.8,-25.05,50.85,-1.74,3.62,-4.08,-0.2651,-2.7467,1.669,-37.25,27.0,-15.875,41.8125,70.9375,110.1875,0,0.7019999027252197,11.264688273094821,1.6269249306590639,7.233256839764505,1.3909907656055809,5.725242352948913,3.2249340923497956
1776970346.921,11.0277,0.9768,2.0806,1.1357,-0.2212,-1.3915,-86.1,-12.9,-17.4,5.1284,-2.3822,4.3742,-0.1151,-1.2516,-0.7096,-13.8,-25.05,50.85,-0.86,3.39,-4.76,-0.1254,-1.9984,1.4268,-37.25,27.0,-15.875,41.8125,70.9375,110.1875,0,0.7070000171661377,11.264688273094821,1.809700577443683,7.1490551151883,1.443358143358744,5.906716515967226,2.458675651646634
1776970346.929,11.1259,0.3998,1.8771,1.4381,-0.2324,-1.4365,-85.8,-10.95,-17.4,5.1667,-3.7182,4.3407,0.4538,-1.4773,-1.0539,-13.2,-23.4,51.0,1.74,1.77,-6.2,0.012,-1.6352,1.189,-37.25,27.0,-15.875,40.8125,70.0,111.9375,0,0.7149999141693115,11.290216794198418,2.04589188863928,7.704639940970635,1.8705760984252955,6.678360577267449,2.0218170144699052
1776970346.934,11.1259,0.3998,1.8771,1.4381,-0.2324,-1.4365,-87.0,-10.65,-18.3,5.1667,-3.7182,4.3407,0.4538,-1.4773,-1.0539,-15.15,-24.3,50.55,1.74,1.77,-6.2,0.012,-1.6352,1.189,-37.25,27.0,-15.875,39.875,69.125,113.625,0,0.7200000286102295,11.290216794198418,2.04589188863928,7.704639940970635,1.8705760984252955,6.678360577267449,2.0218170144699052
1776970346.941,10.7308,-0.3017,1.8292,1.7038,-0.235,-1.4653,-87.0,-10.65,-18.3,5.0973,-5.0589,4.2832,0.8799,-1.7307,-1.4013,-15.15,-24.3,50.55,2.7,0.79,-7.41,0.0982,-1.6984,0.9479,-37.25,27.0,-15.875,38.6875,68.25,115.8125,0,0.7269999980926514,10.889768784046794,2.259483022728872,8.361862157438377,2.39440769084966,7.926045672338762,1.9474907470897005
1776970346.951,10.3908,-0.3232,1.6783,2.0427,-0.4724,-1.4743,-87.0,-10.65,-18.3,5.1068,-5.5737,4.5993,0.984,-1.9961,-1.6339,-14.85,-23.25,50.1,3.48,-0.83,-7.46,0.5061,-2.2515,0.7461,-37.25,27.0,-15.875,38.6875,68.25,115.8125,0,0.7369999885559082,10.530426096317282,2.5630734558338353,8.848677778063793,2.7608513940449604,8.273505907413133,2.425294759405545
1776970346.956,10.1299,-0.3543,1.5897,2.2924,-0.4924,-1.4437,-87.45,-9.15,-17.1,5.0685,-5.4348,4.4556,0.9148,-2.1125,-1.7312,-14.85,-23.25,50.1,3.48,-0.83,-7.46,0.5061,-2.2515,0.7461,-37.25,27.0,-15.875,38.6875,68.25,115.8125,0,0.7420001029968262,10.25999749463907,2.7535114326982555,8.664820520357013,2.880376491016409,8.273505907413133,2.425294759405545
1776970346.961,10.1299,-0.3543,1.5897,2.2924,-0.4924,-1.4437,-87.45,-9.15,-17.1,5.0685,-5.4348,4.4556,0.9148,-2.1125,-1.7312,-14.85,-23.25,50.1,4.0,-1.19,-7.21,0.3043,-2.8133,0.5618,-37.875,32.1875,-16.375,37.5625,67.25,118.6875,0,0.746999979019165,10.25999749463907,2.7535114326982555,8.664820520357013,2.880376491016409,8.330678243696608,2.8849392749241707
1776970346.966,10.0916,-0.2586,1.4461,2.465,-0.5065,-1.3851,-87.45,-9.15,-17.1,5.7581,-5.442,4.7381,0.8045,-2.3627,-1.7896,-18.6,-21.15,47.85,4.0,-1.19,-7.21,0.3043,-2.8133,0.5618,-37.875,32.1875,-16.375,37.5625,67.25,118.6875,0,0.752000093460083,10.197963999250046,2.872502264577001,9.231504277202063,3.071195158240518,8.330678243696608,2.8849392749241707
1776970346.971,10.0916,-0.2586,1.4461,2.465,-0.5065,-1.3851,-87.45,-9.15,-17.1,5.7581,-5.442,4.7381,0.8045,-2.3627,-1.7896,-18.6,-21.15,47.85,3.67,-0.81,-6.74,-0.1396,-3.279,0.3731,-37.875,32.1875,-16.375,36.6875,66.125,122.1875,0,0.7569999694824219,10.197963999250046,2.872502264577001,9.231504277202063,3.071195158240518,7.717033108649982,3.3031095607018544
1776970346.976,10.0269,-0.5602,1.6376,2.4725,-0.3323,-1.3113,-86.1,-8.55,-18.45,6.2034,-5.1691,4.8219,0.7144,-2.5141,-1.8431,-19.95,-19.8,48.0,3.67,-0.81,-6.74,-0.4832,-3.4939,0.1996,-37.875,32.1875,-16.375,36.0,64.9375,125.875,0,0.7620000839233398,10.17517967458069,2.818366056778289,9.404918180399019,3.198137548636706,7.717033108649982,3.5327977029544164
1776970346.982,10.0269,-0.5602,1.6376,2.4725,-0.3323,-1.3113,-86.1,-8.55,-18.45,6.2034,-5.1691,4.8219,0.7144,-2.5141,-1.8431,-22.05,-19.05,47.7,3.98,-0.41,-6.32,-0.4832,-3.4939,0.1996,-37.875,32.1875,-16.375,35.5,63.8125,129.375,0,0.7680001258850098,10.17517967458069,2.818366056778289,9.404918180399019,3.198137548636706,7.480033422385223,3.5327977029544164
1776970346.991,10.3046,-0.9457,1.6472,2.5463,-0.4231,-1.258,-85.5,-9.15,-17.85,6.0885,-5.3822,4.3886,0.7003,-2.6281,-1.9497,-21.6,-17.7,45.75,4.86,0.04,-6.24,-0.6054,-3.4808,-0.0065,-37.875,32.1875,-16.375,35.5,63.8125,129.375,0,0.7769999504089355,10.47818674628392,2.8714493378779995,9.235676426228888,3.3464398679791034,7.9094121146896885,3.5330610028698906
1776970347.001,9.5648,-1.4844,1.8292,2.4491,-0.3504,-1.1938,-85.05,-6.6,-18.45,6.1459,-4.6807,3.9863,0.8074,-2.6779,-2.0656,-23.7,-16.95,45.3,6.94,0.59,-6.3,-0.6076,-3.6434,-0.2062,-37.875,32.1875,-16.375,35.0625,62.5625,132.875,0,0.7869999408721924,9.850625109098408,2.7470037149592645,8.693194291513333,3.477031281136251,9.391576012576378,3.699467496816265
1776970347.006,9.1818,-1.9489,1.8196,2.2886,-0.3837,-1.137,-85.8,-6.15,-18.45,6.2848,-3.7206,3.4046,1.1892,-2.7294,-2.2172,-23.7,-16.95,45.3,6.94,0.59,-6.3,-0.6076,-3.6434,-0.2062,-37.875,32.1875,-16.375,35.0625,62.5625,132.875,0,0.7920000553131104,9.561098608946569,2.5841216399388016,8.058093854007906,3.7121148743000942,9.391576012576378,3.699467496816265
1776970347.011,9.1818,-1.9489,1.8196,2.2886,-0.3837,-1.137,-85.8,-6.15,-18.45,6.2848,-3.7206,3.4046,1.1892,-2.7294,-2.2172,-23.7,-16.95,45.3,7.51,0.51,-5.98,-0.5716,-3.9619,-0.4734,-47.5625,36.875,-11.0625,34.6875,61.1875,136.5,0,0.7969999313354492,9.561098608946569,2.5841216399388016,8.058093854007906,3.7121148743000942,9.61356333520511,4.030817005273248
1776970347.016,9.1099,-2.2338,1.336,2.0941,-0.4967,-1.0922,-86.1,-6.15,-17.7,6.4236,-3.5482,3.1867,1.6457,-2.832,-2.3307,-23.7,-16.95,45.3,7.51,0.51,-5.98,-0.5716,-3.9619,-0.4734,-47.5625,36.875,-11.0625,34.6875,61.1875,136.5,0,0.8020000457763672,9.474441220990292,2.41347602847014,8.000463554694816,4.020039176426021,9.61356333520511,4.030817005273248
1776970347.021,9.1099,-2.2338,1.336,2.0941,-0.4967,-1.0922,-86.1,-6.15,-17.7,6.4236,-3.5482,3.1867,1.6457,-2.832,-2.3307,-23.7,-14.4,43.95,7.96,0.5,-5.77,-0.5007,-4.1702,-0.8214,-47.5625,36.875,-11.0625,34.3125,59.75,140.0625,0,0.806999921798706,9.474441220990292,2.41347602847014,8.000463554694816,4.020039176426021,9.844008329943652,4.279715702006385
1776970347.027,8.6526,-2.3774,0.7183,1.8711,-0.5865,-1.0443,-85.35,-7.35,-18.75,7.2903,-4.1061,3.9576,2.0403,-2.9964,-2.4022,-23.7,-14.4,43.95,7.81,0.45,-5.41,-0.4047,-4.3306,-1.213,-47.5625,36.875,-11.0625,34.0625,58.3125,143.625,0,0.812999963760376,9.001970473735181,2.221612016082016,9.255869978559552,4.348770158332123,9.511398425047707,4.515445432069797
1776970347.032,8.0828,-2.2529,0.2658,1.5569,-0.4519,-0.9798,-85.35,-7.35,-18.75,7.2903,-4.1061,3.9576,2.0403,-2.9964,-2.4022,-26.25,-13.95,41.85,7.81,0.45,-5.41,-0.4047,-4.3306,-1.213,-47.5625,36.875,-11.0625,33.875,56.875,147.0625,0,0.818000078201294,8.395109522215895,1.8942437171599646,9.255869978559552,4.348770158332123,9.511398425047707,4.515445432069797
1776970347.041,8.248,-1.8699,0.0383,1.5569,-0.4519,-0.9798,-85.35,-7.35,-18.75,8.3582,-4.8985,5.2577,2.1597,-3.2165,-2.4323,-27.0,-12.15,42.15,8.22,0.02,-5.73,-0.2727,-4.2411,-1.6352,-47.5625,36.875,-11.0625,33.875,56.875,147.0625,0,0.8269999027252197,8.457393032134666,1.8942437171599646,11.022623044448178,4.574522885504018,10.020064870049495,4.553589083349529
1776970347.051,7.9152,-1.4174,-0.2083,1.1474,-0.3848,-0.9014,-86.1,-5.4,-18.75,8.8945,-5.0302,5.8323,1.8634,-3.371,-2.4152,-28.05,-10.65,41.1,8.39,-0.13,-6.3,-0.156,-4.0753,-1.9275,-47.5625,36.875,-11.0625,33.875,55.5,150.3125,0,0.8370001316070557,8.043805236950979,1.5090128428876939,11.76566043960134,4.546327264946948,10.492807060076919,4.510838318982405
1776970347.056,7.9152,-1.4174,-0.2083,1.1474,-0.3848,-0.9014,-85.2,-5.55,-19.05,9.2105,-5.3965,5.3846,1.3483,-3.4368,-2.3859,-28.05,-10.65,41.1,8.39,-0.13,-6.3,-0.156,-4.0753,-1.9275,-47.5625,36.875,-11.0625,33.75,54.0625,153.1875,0,0.8420000076293945,8.043805236950979,1.5090128428876939,11.95614652218682,4.395682647780661,10.492807060076919,4.510838318982405
1776970347.061,7.5705,-0.3615,-0.2131,1.0645,-0.3035,-0.8572,-85.2,-5.55,-19.05,9.2105,-5.3965,5.3846,1.3483,-3.4368,-2.3859,-28.05,-10.65,41.1,9.94,-1.72,-7.43,0.0076,-4.0099,-2.0628,-53.75,35.25,10.25,33.75,54.0625,153.1875,0,0.8470001220703125,7.582121346298805,1.400022978382855,11.95614652218682,4.395682647780661,12.528643182723338,4.509379071446534
1776970347.066,7.5705,-0.3615,-0.2131,1.0645,-0.3035,-0.8572,-84.45,-4.8,-20.55,9.019,-4.798,4.877,1.0981,-3.5125,-2.3776,-28.05,-10.65,41.1,9.94,-1.72,-7.43,0.0076,-4.0099,-2.0628,-53.75,35.25,10.25,33.6875,52.5625,155.875,0,0.8519999980926514,7.582121346298805,1.400022978382855,11.320260332695534,4.381376680907498,12.528643182723338,4.509379071446534
1776970347.071,7.4747,0.2801,-0.1556,1.0621,-0.0602,-0.7837,-84.45,-4.8,-20.55,9.019,-4.798,4.877,1.0981,-3.5125,-2.3776,-28.95,-6.75,38.4,12.1,-2.12,-8.29,0.0425,-3.939,-2.0791,-53.75,35.25,10.25,33.6875,52.5625,155.875,0,0.8570001125335693,7.481564506171153,1.3213122795160877,11.320260332695534,4.381376680907498,14.819868420468516,4.45423215156103
1776970347.076,7.4747,0.2801,-0.1556,1.0621,-0.0602,-0.7837,-85.5,-4.05,-19.05,8.4946,-3.5506,4.3311,1.1511,-3.525,-2.3782,-28.95,-6.75,38.4,12.1,-2.12,-8.29,-0.1047,-4.0088,-2.0606,-53.75,35.25,10.25,33.6875,51.0,158.375,0,0.8619999885559082,7.481564506171153,1.3213122795160877,10.174645779092263,4.40527995137653,14.819868420468516,4.508604206403573
1776970347.082,7.5968,-0.2322,0.0958,1.0821,0.1234,-0.7069,-85.5,-4.05,-19.05,7.9775,-2.217,3.8116,1.4528,-3.4816,-2.3992,-29.7,-8.25,38.7,13.67,-1.62,-8.67,-0.1047,-4.0088,-2.0606,-53.75,35.25,10.25,33.75,49.1875,160.6875,0,0.8680000305175781,7.600951566744785,1.2984127155877672,9.115036467837086,4.470830687914719,16.268441843028484,4.508604206403573
1776970347.091,7.9487,-1.2019,-0.1006,1.1916,0.0695,-0.6395,-85.05,-4.2,-18.45,8.3749,-1.5826,3.2705,1.9108,-3.4102,-2.4459,-29.85,-5.7,34.95,14.42,-0.32,-8.69,-0.2236,-4.1364,-1.9657,-53.75,35.25,10.25,33.75,49.1875,160.6875,0,0.877000093460083,8.039683803483817,1.3541421860351297,9.129060357999613,4.611187210469772,16.83908845513913,4.585169398179309
1776970347.101,7.7333,-1.9034,-0.3112,1.2804,0.0608,-0.5761,-84.75,-4.5,-19.05,9.5122,-1.8986,3.8906,2.4195,-3.3739,-2.5077,-30.6,-4.95,35.4,14.17,2.02,-7.67,-0.0742,-4.2761,-1.8795,-53.75,35.25,10.25,33.5,47.3125,162.625,0,0.8870000839233398,7.970176026286998,1.4053512052152657,10.450999911970147,4.850334086431573,16.238786900504607,4.671515503559846
1776970347.106,7.7333,-1.9034,-0.3112,1.2804,0.0608,-0.5761,-84.75,-4.5,-19.05,9.5122,-1.8986,3.8906,2.4195,-3.3739,-2.5077,-30.6,-4.95,35.4,14.17,2.02,-7.67,-0.0742,-4.2761,-1.8795,-53.75,35.25,10.25,33.5,47.3125,162.625,0,0.8919999599456787,7.970176026286998,1.4053512052152657,10.450999911970147,4.850334086431573,16.238786900504607,4.671515503559846
1776970347.111,7.8721,-1.1875,-0.9888,1.3595,0.1252,-0.4711,-84.75,-4.5,-19.05,10.1801,-1.9393,3.7757,2.7041,-3.3332,-2.5317,-29.1,-4.2,33.3,13.88,2.67,-7.24,0.2847,-4.3393,-1.8522,-41.6875,24.375,29.5,32.8125,45.25,164.25,0,0.8970000743865967,8.022333831248858,1.4442473818567232,11.029561686214008,4.983160035559765,15.880834360952198,4.72665033824166
1776970347.116,7.8721,-1.1875,-0.9888,1.3595,0.1252,-0.4711,-85.05,-3.0,-18.45,10.1801,-1.9393,3.7757,2.7041,-3.3332,-2.5317,-29.1,-4.2,33.3,13.88,2.67,-7.24,0.2847,-4.3393,-1.8522,-41.6875,24.375,29.5,32.8125,45.25,164.25,0,0.9019999504089355,8.022333831248858,1.4442473818567232,11.029561686214008,4.983160035559765,15.880834360952198,4.72665033824166
1776970347.121,8.0852,0.1053,-1.4437,1.4866,0.2787,-0.3254,-85.05,-3.0,-18.45,10.7763,-2.5474,3.7182,2.7693,-3.281,-2.4813,-29.1,-4.2,33.3,13.52,2.81,-6.95,0.6752,-4.2553,-1.921,-41.6875,24.375,29.5,31.625,43.25,165.4375,0,0.9070000648498535,8.213757777046995,1.5471064636927867,11.680877522258335,4.958914516302938,15.459269064221631,4.717384246592597
1776970347.127,8.5042,0.7709,-1.5395,1.4866,0.2787,-0.3254,-85.05,-3.0,-18.45,10.7763,-2.5474,3.7182,2.7693,-3.281,-2.4813,-29.1,-4.2,33.3,12.9,1.17,-6.18,0.9839,-4.1561,-2.0813,-41.6875,24.375,29.5,59.75,41.3125,166.4375,0,0.9130001068115234,8.676736984604293,1.5471064636927867,11.680877522258335,4.958914516302938,14.351700247705844,4.751108934764599
1776970347.132,8.5042,0.7709,-1.5395,1.6438,0.3275,-0.207,-85.05,-3.0,-18.45,10.3669,-2.9209,3.6057,2.8184,-3.2575,-2.4331,-31.5,0.0,30.9,12.9,1.17,-6.18,0.9839,-4.1561,-2.0813,-41.6875,24.375,29.5,58.0625,39.375,167.3125,0,0.9179999828338623,8.676736984604293,1.6888409309345862,11.358051985706,4.9471871219916475,14.351700247705844,4.751108934764599
1776970347.141,8.6287,0.9529,-1.7166,1.752,0.2174,-0.1196,-84.6,-3.9,-18.0,9.8928,-3.2058,3.4285,2.7648,-3.2098,-2.3915,-31.65,0.15,31.05,12.58,0.46,-5.96,1.1192,-4.0939,-2.2406,-41.6875,24.375,29.5,58.0625,39.375,167.3125,0,0.9270000457763672,8.849248423453826,1.7694832352978087,10.949851950140696,4.864792629701702,13.928014933938003,4.799261840116665
1776970347.152,8.5449,1.1636,-1.6185,1.676,0.1998,-0.0735,-84.45,-3.6,-17.85,9.8426,-3.1603,3.2992,2.6556,-3.157,-2.3206,-33.75,1.05,30.6,12.24,-0.11,-5.8,1.1323,-3.9335,-2.3049,-41.6875,24.375,29.5,56.3125,37.5625,168.0,0,0.937999963760376,8.77432750813417,1.6894668656117526,10.85122073731799,4.733291108731851,13.545098744564397,4.697562085805785
1776970347.156,8.2648,0.9194,-1.2785,1.676,0.1998,-0.0735,-84.6,-4.65,-17.7,9.8426,-3.1603,3.2992,2.6556,-3.157,-2.3206,-33.75,1.05,30.6,12.24,-0.11,-5.8,1.1323,-3.9335,-2.3049,-41.6875,24.375,29.5,54.6875,35.75,168.625,0,0.9419999122619629,8.413487840961084,1.6894668656117526,10.85122073731799,4.733291108731851,13.545098744564397,4.697562085805785
1776970347.161,8.2648,0.9194,-1.2785,1.477,0.2313,-0.029,-84.6,-4.65,-17.7,10.0006,-3.0287,3.0191,2.4112,-3.1157,-2.2473,-32.4,2.7,28.95,11.9,-1.82,-6.19,1.1148,-3.7143,-2.2798,-22.75,19.5,31.375,54.6875,35.75,168.625,0,0.9470000267028809,8.413487840961084,1.4952824783297638,10.876579832833482,4.535617843249142,13.53656160182489,4.4984765832445985
1776970347.166,7.8051,0.5483,-0.8906,1.2537,0.2214,0.0474,-84.0,-3.3,-18.3,10.0006,-3.0287,3.0191,2.4112,-3.1157,-2.2473,-32.4,2.7,28.95,11.9,-1.82,-6.19,1.1148,-3.7143,-2.2798,-22.75,19.5,31.375,53.125,34.125,169.1875,0,0.9519999027252197,7.874857919988145,1.2739813224690542,10.876579832833482,4.535617843249142,13.53656160182489,4.4984765832445985
1776970347.171,7.8051,0.5483,-0.8906,1.2537,0.2214,0.0474,-84.0,-3.3,-18.3,10.0652,-2.7438,2.6504,2.0755,-3.1054,-2.153,-30.45,2.25,28.8,11.75,-2.38,-6.67,1.0101,-3.4863,-2.1489,-22.75,19.5,31.375,53.125,34.125,169.1875,0,0.9570000171661377,7.874857919988145,1.2739813224690542,10.763889150302507,4.311220060493317,13.71917636011725,4.218099205803486
1776970347.176,7.5465,0.1891,-0.4788,1.0453,0.2814,0.1351,-85.5,-3.6,-17.85,10.0652,-2.7438,2.6504,2.0755,-3.1054,-2.153,-30.45,2.25,28.8,11.75,-2.38,-6.67,0.8814,-3.3499,-1.9919,-22.75,19.5,31.375,51.75,32.5,169.625,0,0.9620001316070557,7.564037975843326,1.0909124896159177,10.763889150302507,4.311220060493317,13.71917636011725,3.995792985128234
1776970347.182,7.5465,0.1891,-0.4788,1.0453,0.2814,0.1351,-85.5,-3.6,-17.85,10.0461,-2.6288,1.9752,1.622,-3.1075,-2.0709,-30.45,2.25,28.8,11.82,-3.0,-7.12,0.8814,-3.3499,-1.9919,-22.75,19.5,31.375,50.5,30.875,170.0,0,0.9679999351501465,7.564037975843326,1.0909124896159177,10.570531192423585,4.071371643561909,14.12114726217385,3.995792985128234
1776970347.192,7.5298,0.1125,-0.3112,0.8604,0.2918,0.2228,-84.6,-4.2,-18.0,10.2687,-1.9034,1.1779,1.1826,-3.0563,-1.9764,-31.65,4.65,25.35,12.12,-3.66,-7.58,0.7309,-3.2943,-1.7824,-22.75,19.5,31.375,50.5,30.875,170.0,0,0.9779999256134033,7.5370677143037526,0.9354545633006448,10.509832522928232,3.8269660842500284,14.756232581522967,3.8162254991024835
1776970347.202,7.7907,0.5004,-0.7207,0.6979,0.2337,0.316,-84.6,-4.2,-18.0,10.0293,-1.2617,0.6584,0.7202,-3.0012,-1.8879,-29.85,5.4,24.0,12.16,-3.57,-7.36,0.4701,-3.1492,-1.4519,-22.75,19.5,31.375,49.4375,29.25,170.375,0,0.9879999160766602,7.839949944993271,0.8009594871152972,10.129769787117572,3.6180182268750385,14.655377852515437,3.4994954293440648
1776970347.206,8.2504,1.2378,-1.2258,0.5105,0.1943,0.3509,-83.4,-3.9,-18.45,10.0293,-1.2617,0.6584,0.7202,-3.0012,-1.8879,-29.85,5.4,24.0,12.16,-3.57,-7.36,0.4701,-3.1492,-1.4519,-22.75,19.5,31.375,48.75,27.9375,170.75,0,0.9920001029968262,8.432308974415017,0.6492253460856253,10.129769787117572,3.6180182268750385,14.655377852515437,3.4994954293440648
1776970347.212,8.2504,1.2378,-1.2258,0.5105,0.1943,0.3509,-83.4,-3.9,-18.45,9.7085,-0.8787,0.3184,0.3464,-2.8621,-1.8165,-30.3,5.7,22.95,12.7,-3.55,-7.95,0.1647,-2.5602,-1.1039,-15.5,19.0625,26.1875,48.75,27.9375,170.75,0,0.997999906539917,8.432308974415017,0.6492253460856253,9.753382208239355,3.407533069538724,15.397889465767703,2.7929098338471294
1776970347.216,8.6095,1.7549,-1.7502,0.4042,0.1655,0.2904,-83.4,-3.9,-18.45,9.7085,-0.8787,0.3184,0.057,-2.7446,-1.7645,-30.3,5.7,22.95,12.7,-3.55,-7.95,0.1647,-2.5602,-1.1039,-15.5,19.0625,26.1875,48.1875,26.875,171.0,0,1.002000093460083,8.959149753185288,0.524499809342196,9.753382208239355,3.2633630521288928,15.397889465767703,2.7929098338471294
1776970347.222,8.6095,1.7549,-1.7502,0.4042,0.1655,0.2904,-83.4,-3.9,-18.45,9.2105,-0.7278,-0.1341,0.057,-2.7446,-1.7645,-31.2,6.3,23.4,13.34,-3.72,-8.63,0.0731,-2.1631,-0.7527,-15.5,19.0625,26.1875,48.1875,26.875,171.0,0,1.0079998970031738,8.959149753185288,0.524499809342196,9.240183217880476,3.2633630521288928,16.31780928923978,2.291484782842775
1776970347.23,8.6646,1.992,-2.2673,0.3549,0.2196,0.2345,-84.0,-6.0,-18.3,9.0692,-0.3998,-0.4788,-0.1583,-2.5548,-1.728,-31.2,6.3,23.4,12.88,-4.07,-8.08,0.0425,-2.2427,-0.288,-15.5,19.0625,26.1875,47.9375,25.625,171.1875,0,1.0160000324249268,9.17518427335386,0.47871538517160694,9.090625837641763,3.0883726993353635,15.739939644102833,2.2615157616076877
1776970347.235,8.9519,2.1404,-2.9042,0.2904,0.2974,0.1916,-84.0,-6.0,-18.3,9.0692,-0.3998,-0.4788,-0.1583,-2.5548,-1.728,-31.2,6.3,23.4,12.88,-4.07,-8.08,0.0425,-2.2427,-0.288,-15.5,19.0625,26.1875,47.9375,24.3125,171.25,0,1.0209999084472656,9.651538914079971,0.45770020755948976,9.090625837641763,3.0883726993353635,15.739939644102833,2.2615157616076877
1776970347.242,8.9519,2.1404,-2.9042,0.2904,0.2974,0.1916,-85.05,-3.9,-18.45,9.0549,-0.3807,-0.644,-0.3704,-2.3422,-1.6702,-31.65,8.7,22.5,12.01,-4.38,-7.32,-0.0218,-2.39,0.1789,-15.5,19.0625,26.1875,48.1875,22.9375,171.3125,0,1.0280001163482666,9.651538914079971,0.45770020755948976,9.085751619981695,2.900459453259087,14.731154062055015,2.3967854409604548
1776970347.252,8.7245,2.3774,-3.2705,0.2212,0.3456,0.117,-85.2,-4.5,-17.55,8.8921,-0.2562,-0.996,-0.5923,-2.1205,-1.5937,-29.85,8.4,19.05,11.11,-4.62,-6.56,-0.2171,-2.3867,0.5509,-15.5,19.0625,26.1875,48.1875,22.9375,171.3125,0,1.0380001068115234,9.61587756057657,0.42668231742128715,8.951374020227284,2.717943934300338,13.704382510715321,2.4590567520901176
1776970347.257,8.7245,2.3774,-3.2705,0.1444,0.4325,0.045,-85.2,-4.5,-17.55,9.019,-0.6225,-1.221,-0.8804,-1.8985,-1.5114,-30.15,10.5,17.4,11.11,-4.62,-6.56,-0.2171,-2.3867,0.5509,-15.5,19.0625,26.1875,48.1875,22.9375,171.3125,0,1.0429999828338623,9.61587756057657,0.4581840350776094,9.122538476213734,2.5814213855936035,13.704382510715321,2.4590567520901176
1776970347.262,8.5042,2.3822,-3.043,0.1444,0.4325,0.045,-85.5,-4.5,-18.3,9.019,-0.6225,-1.221,-0.8804,-1.8985,-1.5114,-30.15,10.5,17.4,9.39,-4.81,-5.21,-0.5421,-2.2602,0.8508,-14.1875,19.0,21.25,48.625,21.625,171.5,0,1.0480000972747803,9.341099693290936,0.4581840350776094,9.122538476213734,2.5814213855936035,11.766575542612218,2.47512365145663
1776970347.267,8.5042,2.3822,-3.043,0.0245,0.5761,-0.0027,-85.2,-5.55,-18.3,9.074,-0.5602,0.8475,-0.8855,-1.8405,-1.4594,-31.2,9.75,16.35,9.39,-4.81,-5.21,-0.5421,-2.2602,0.8508,-14.1875,19.0,21.25,48.625,21.625,171.5,0,1.0529999732971191,9.341099693290936,0.5766270458450592,9.130693089245744,2.5102587237175378,11.766575542612218,2.47512365145663
1776970347.272,8.1044,2.2098,-2.9736,0.0245,0.5761,-0.0027,-85.2,-5.55,-16.35,9.074,-0.5602,0.8475,-0.8855,-1.8405,-1.4594,-31.2,9.75,16.35,8.7,-4.97,-4.58,-0.9065,-2.1195,1.0941,-14.1875,19.0,21.25,49.25,20.375,171.8125,0,1.058000087738037,8.911050014448353,0.5766270458450592,9.130693089245744,2.5102587237175378,11.016682803820757,2.551681271240591
1776970347.277,8.1044,2.2098,-2.9736,-0.2142,0.7258,-0.0218,-85.2,-5.55,-16.35,8.2384,0.6943,-0.7925,-1.433,-1.7424,-1.2716,-30.3,10.65,17.55,8.7,-4.97,-4.58,-1.237,-1.9133,1.3035,-14.1875,19.0,21.25,50.0,19.25,172.3125,0,1.062999963760376,8.911050014448353,0.7570617676253373,8.305500785623947,2.5896743656297794,11.016682803820757,2.624880595379531
1776970347.282,7.9751,2.2817,-2.964,-0.4826,0.8849,-0.0024,-83.7,-4.8,-16.8,8.2384,0.6943,-0.7925,-1.433,-1.7424,-1.2716,-30.3,10.65,17.55,7.96,-5.37,-4.19,-1.237,-1.9133,1.3035,-14.1875,19.0,21.25,50.9375,18.1875,172.875,0,1.068000078201294,8.808726973859503,1.0079466900585565,8.305500785623947,2.5896743656297794,10.476382963599603,2.624880595379531
1776970347.292,8.2432,2.7485,-2.7007,-0.7799,0.9582,0.0075,-83.7,-4.8,-16.8,8.2241,0.3208,-1.8028,-1.93,-1.5495,-1.0789,-30.3,10.65,17.55,7.7,-6.25,-3.68,-1.513,-1.6952,1.513,-14.1875,19.0,21.25,52.0,17.3125,173.625,0,1.0780000686645508,9.099361460014654,1.2354948401349155,8.42548641266485,2.699976936938536,10.578038570547944,2.7298426767856054
1776970347.302,8.4994,3.6488,-2.4636,-1.1194,0.9569,-0.0272,-84.0,-3.6,-17.1,8.0541,0.9098,-1.7095,-2.1837,-1.4674,-0.8831,-30.15,10.8,15.9,8.29,-5.87,-2.87,-1.8064,-1.4726,1.7508,-14.1875,19.0,21.25,52.0,17.3125,173.625,0,1.0880000591278076,9.571983428736178,1.4729065856326395,8.283637673148194,2.775189013382692,10.555467777412805,2.9149498040275064
1776970347.307,8.4994,3.6488,-2.4636,-1.1194,0.9569,-0.0272,-84.0,-3.6,-17.1,8.2528,1.8172,-1.8483,-2.4818,-1.3291,-0.6829,-29.7,12.0,15.3,8.29,-5.87,-2.87,-1.8064,-1.4726,1.7508,-14.1875,19.0,21.25,53.25,16.5625,174.4375,0,1.0929999351501465,9.571983428736178,1.4729065856326395,8.650268005674738,2.8969277623026777,10.555467777412805,2.9149498040275064
1776970347.312,9.1842,3.383,-2.0375,-1.4115,1.0032,0.0011,-84.0,-3.6,-17.1,8.2528,1.8172,-1.8483,-2.4818,-1.3291,-0.6829,-29.7,12.0,15.3,8.58,-5.41,-2.73,-2.0857,-1.153,2.018,-13.375,18.375,17.75,53.25,16.5625,174.4375,0,1.0980000495910645,9.997280874817912,1.731688107021585,8.650268005674738,2.8969277623026777,10.50416108025767,3.122799623735087
1776970347.317,9.1842,3.383,-2.0375,-1.4115,1.0032,0.0011,-84.0,-3.6,-17.1,7.6519,2.0901,-1.8866,-2.6526,-1.0818,-0.5156,-28.05,13.2,14.4,8.58,-5.41,-2.73,-2.0857,-1.153,2.018,-13.375,18.375,17.75,54.6875,15.9375,175.3125,0,1.1029999256134033,9.997280874817912,1.731688107021585,8.15348705646854,2.910742407015777,10.50416108025767,3.122799623735087
1776970347.322,9.517,3.6224,-2.5522,-1.6438,1.1183,0.0626,-83.1,-3.9,-16.95,7.6519,2.0901,-1.8866,-2.6526,-1.0818,-0.5156,-28.05,13.2,14.4,8.64,-4.93,-2.41,-2.1915,-0.8934,2.2897,-13.375,18.375,17.75,54.6875,15.9375,175.3125,0,1.1080000400543213,10.498037702351805,1.9891184203058399,8.15348705646854,2.910742407015777,10.235360277000511,3.292956407242586
1776970347.331,9.5481,3.7014,-2.7461,-1.6065,1.104,0.008,-83.85,-5.4,-15.9,7.2903,2.6432,-2.4349,-2.8008,-0.8679,-0.3011,-28.65,13.8,14.55,8.19,-4.72,-1.08,-2.1293,-0.6992,2.5624,-13.375,18.375,17.75,56.25,15.4375,176.125,0,1.1170001029968262,10.60224696844966,1.949287626288127,8.127959051324016,2.9476078877625502,9.514247211419304,3.404216927576737
1776970347.338,9.5481,3.7014,-2.7461,-1.6065,1.104,0.008,-83.1,-5.4,-13.95,6.9863,2.2218,-3.3088,-2.9473,-0.5777,-0.1085,-28.65,13.8,14.55,8.19,-4.72,-1.08,-1.9755,-0.4494,2.8383,-13.375,18.375,17.75,58.0,15.0625,176.75,0,1.124000072479248,10.60224696844966,1.949287626288127,8.043192175374154,3.0053430469748372,9.514247211419304,3.487191921876397
1776970347.343,9.56,3.6368,-3.0023,-1.5364,1.185,-0.057,-83.1,-5.4,-13.95,6.9145,1.6544,-3.5578,-2.9985,-0.2774,0.0285,-28.65,13.8,14.55,8.37,-4.92,-0.58,-1.9755,-0.4494,2.8383,-13.375,18.375,17.75,59.875,14.9375,177.375,0,1.128999948501587,10.6599117974775,1.9411334214834381,7.9501754980629205,3.011439067954057,9.726237710440763,3.487191921876397
1776970347.352,9.596,3.3423,-3.0502,-1.4994,1.1032,-0.1186,-84.0,-5.25,-14.55,7.2856,1.324,-3.0239,-3.0435,-0.0711,0.1721,-28.65,13.8,14.55,8.91,-5.08,-0.26,-1.8926,-0.0644,3.1154,-13.375,18.375,17.75,59.875,14.9375,177.375,0,1.1380000114440918,10.60933105007097,1.8652926204754041,7.998557030489937,3.049191018942565,10.259731965309815,3.645791996260895
1776970347.357,9.596,3.3423,-3.0502,-1.4994,1.1032,-0.1186,-84.0,-5.25,-14.55,7.2856,1.324,-3.0239,-3.0435,-0.0711,0.1721,-26.25,13.95,13.65,8.91,-5.08,-0.26,-1.8926,-0.0644,3.1154,-13.375,18.375,17.75,61.875,15.0625,177.9375,0,1.1430001258850098,10.60933105007097,1.8652926204754041,7.998557030489937,3.049191018942565,10.259731965309815,3.645791996260895
1776970347.362,9.4499,3.1388,-2.7964,-1.5839,1.0936,-0.1383,-84.0,-5.25,-14.25,7.0485,0.8547,-2.4636,-3.1581,0.145,0.2998,-26.25,13.95,13.65,9.98,-4.59,-0.34,-1.9133,0.3469,3.3772,-15.25,18.25,18.1875,61.875,15.0625,177.9375,0,1.1480000019073486,10.342752458122547,1.929722016250009,7.515396815870736,3.1756102799304577,10.990181982114764,3.896990677433037
1776970347.367,9.4499,3.1388,-2.7964,-1.5839,1.0936,-0.1383,-84.0,-5.25,-14.25,7.0485,0.8547,-2.4636,-3.1581,0.145,0.2998,-29.1,14.4,13.95,9.98,-4.59,-0.34,-1.9133,0.3469,3.3772,-15.25,18.25,18.1875,64.0,15.375,178.5,0,1.1530001163482666,10.342752458122547,1.929722016250009,7.515396815870736,3.1756102799304577,10.990181982114764,3.896990677433037
1776970347.372,9.3063,3.1436,-2.6408,-1.7112,1.1165,-0.133,-84.0,-3.6,-13.5,7.3071,0.9146,-1.7789,-3.2559,0.3635,0.4503,-29.1,14.4,13.95,10.03,-3.72,-0.35,-2.0202,0.588,3.5997,-15.25,18.25,18.1875,64.0,15.375,178.5,0,1.1579999923706055,10.171689401962686,2.047551388854502,7.575928245436331,3.3069301701124565,10.703354614325361,4.16950742054742
1776970347.378,9.1889,2.9113,-2.4493,-1.8636,1.2188,-0.0879,-84.0,-3.6,-13.5,7.3071,0.9146,-1.7789,-3.2559,0.3635,0.4503,-27.6,14.25,14.85,9.83,-2.57,-0.61,-2.1653,0.7898,3.723,-15.25,18.25,18.1875,66.25,15.75,179.125,0,1.1640000343322754,9.945381912727132,2.228498330715103,7.575928245436331,3.3069301701124565,10.178698345073402,4.378702676592691
1776970347.383,9.1889,2.9113,-2.4493,-1.8636,1.2188,-0.0879,-84.0,-3.6,-13.5,7.9224,1.2498,-1.6328,-3.3159,0.6006,0.5822,-27.6,14.25,14.85,9.83,-2.57,-0.61,-2.1653,0.7898,3.723,-15.25,18.25,18.1875,68.5,16.3125,179.75,0,1.1689999103546143,9.945381912727132,2.228498330715103,8.184892035940363,3.4197763099360756,10.178698345073402,4.378702676592691
1776970347.392,8.8322,2.2697,-2.1045,-2.1011,1.6856,-0.0021,-82.65,-4.95,-13.65,8.3941,1.5155,-1.652,-3.3001,0.7783,0.6891,-28.5,14.4,15.45,9.55,-1.2,-0.99,-2.2602,1.0003,3.7252,-15.25,18.25,18.1875,70.6875,16.9375,-179.5625,0,1.1779999732971191,9.358857578785992,2.693672767802355,8.688311634604274,3.4599522699019998,9.67587722121359,4.470594945865707
1776970347.402,9.0166,1.8818,-1.7693,-2.1671,1.5412,0.0762,-82.65,-4.95,-13.65,8.4156,1.901,-1.6352,-3.1419,1.0072,0.7815,-28.5,14.4,15.45,9.37,1.34,-2.07,-2.2067,1.2228,3.6172,-15.25,18.25,18.1875,70.6875,16.9375,-179.5625,0,1.187999963760376,9.379268057263317,2.6603432654452694,8.781230175778335,3.390682777848733,9.689035039672422,4.410090766639616
1776970347.407,8.8873,1.9992,-0.8787,-2.2015,1.5066,0.122,-82.65,-4.95,-13.65,8.4156,1.901,-1.6352,-3.1419,1.0072,0.7815,-30.15,15.0,15.9,9.37,1.34,-2.07,-2.2067,1.2228,3.6172,-15.25,18.25,18.1875,70.6875,16.9375,-179.5625,0,1.193000078201294,9.151667368299615,2.67045498183362,8.781230175778335,3.390682777848733,9.689035039672422,4.410090766639616
1776970347.412,8.8873,1.9992,-0.8787,-2.2015,1.5066,0.122,-81.75,-6.0,-11.55,8.2097,2.0566,-1.3144,-2.7643,1.2489,0.8657,-30.15,15.0,15.9,10.07,2.09,-2.92,-2.0213,1.5064,3.3958,-15.25,20.0625,17.5,72.75,17.8125,-179.0,0,1.1979999542236328,9.151667368299615,2.67045498183362,8.564836543098766,3.1544480008394498,10.691089748009789,4.229225968188505
1776970347.417,8.6072,2.4828,-0.8236,-2.2242,1.6401,0.1948,-81.75,-6.0,-11.55,8.2097,2.0566,-1.3144,-2.7643,1.2489,0.8657,-28.05,14.7,14.7,10.07,2.09,-2.92,-2.0213,1.5064,3.3958,-15.25,20.0625,17.5,72.75,17.8125,-179.0,0,1.2030000686645508,8.995915997829238,2.7703683311068947,8.564836543098766,3.1544480008394498,10.691089748009789,4.229225968188505
1776970347.422,8.6072,2.4828,-0.8236,-2.2242,1.6401,0.1948,-83.85,-6.9,-11.85,7.9176,2.2649,-1.9082,-2.2076,1.4589,0.9697,-28.05,14.7,14.7,10.95,2.85,-3.91,-1.8108,1.7606,3.0281,-15.25,20.0625,17.5,74.5625,18.8125,-178.5625,0,1.2079999446868896,8.995915997829238,2.7703683311068947,8.45336554337975,2.818191806815143,11.971344953680017,3.943107735023226
1776970347.428,8.3342,3.1699,-0.7685,-1.7573,1.3446,0.2649,-84.0,-7.2,-11.25,7.9176,2.2649,-1.9082,-2.2076,1.4589,0.9697,-27.9,13.8,16.65,12.41,5.59,-6.56,-1.5828,1.8195,2.5482,-15.25,20.0625,17.5,76.125,19.875,-178.1875,0,1.2139999866485596,8.949734515615532,2.228502739509198,8.45336554337975,2.818191806815143,15.109262060074277,3.508441153845964
1776970347.433,8.3342,3.1699,-0.7685,-1.7573,1.3446,0.2649,-84.0,-7.2,-11.25,8.26,5.5402,1.9537,-1.145,1.7872,0.9036,-28.8,14.4,18.6,12.41,5.59,-6.56,-1.5828,1.8195,2.5482,-15.25,20.0625,17.5,77.3125,20.8125,-177.9375,0,1.2190001010894775,8.949734515615532,2.228502739509198,10.135993277918056,2.306859726988184,15.109262060074277,3.508441153845964
1776970347.442,7.9392,3.4884,0.0862,-1.0539,1.2345,0.3997,-83.25,-6.45,-12.3,11.8082,7.197,-5.2122,-1.8908,2.0478,0.854,-28.8,14.4,18.6,-2.76,16.37,-11.8,-1.0843,1.6646,1.945,-15.25,20.0625,17.5,78.8125,22.9375,-178.5,0,1.2279999256134033,8.67221203845939,1.6716625107957646,14.778275443366184,2.915120148467298,20.367486344662172,2.780220252066372
1776970347.452,7.6423,2.9808,1.5275,-0.3238,0.9132,0.6334,-83.25,-6.0,-9.75,13.3764,10.2663,-4.5298,-0.6534,1.2889,0.3387,-28.2,13.8,17.4,0.64,19.66,-22.45,-0.096,3.6881,2.7936,-15.25,20.0625,17.5,78.8125,22.9375,-178.5,0,1.2379999160766602,8.344050226358899,1.1575734274766332,17.459784669061644,1.4842211627651722,29.8484120180622,4.627688253329086
1776970347.457,8.2528,2.7629,3.2968,-0.0376,0.591,0.8354,-83.25,-6.0,-9.75,13.3764,10.2663,-4.5298,-0.6534,1.2889,0.3387,-28.2,13.8,17.4,0.64,19.66,-22.45,-0.096,3.6881,2.7936,-13.0,21.1875,12.75,79.75,25.9375,-179.5,0,1.2430000305175781,9.306514626324939,1.024005820295959,17.459784669061644,1.4842211627651722,29.8484120180622,4.627688253329086
1776970347.463,8.2528,2.7629,3.2968,-0.0376,0.591,0.8354,-82.5,-5.25,-9.75,13.2591,13.3261,-10.4004,0.2563,0.9705,-0.044,-28.2,13.8,17.4,10.6,17.34,-21.47,0.9479,5.3974,1.9471,-13.0,21.1875,12.75,79.75,25.9375,-179.5,0,1.249000072479248,9.306514626324939,1.024005820295959,21.483877540611704,1.004736751592177,29.563431803496698,5.815637504177853
1776970347.467,9.7851,2.6193,2.5929,0.2622,0.4842,0.995,-82.5,-5.25,-9.75,13.2591,13.3261,-10.4004,0.2563,0.9705,-0.044,-27.9,13.5,18.15,10.6,17.34,-21.47,0.9479,5.3974,1.9471,-13.0,21.1875,12.75,80.3125,27.375,178.75,0,1.253000020980835,10.456196483903694,1.1371998417164857,21.483877540611704,1.004736751592177,29.563431803496698,5.815637504177853
1776970347.472,9.7851,2.6193,2.5929,0.2622,0.4842,0.995,-82.5,-5.25,-9.75,15.026,2.7054,-9.3518,3.3505,0.3477,-0.3986,-28.05,13.5,18.15,-1.71,-8.9,-9.06,2.3431,2.6256,1.4977,-13.0,21.1875,12.75,80.3125,27.375,178.75,0,1.2579998970031738,10.456196483903694,1.1371998417164857,17.90407854093586,3.391994619689129,12.814745412999823,3.8245258869564474
1776970347.481,13.1178,2.296,2.3942,0.8996,0.6086,1.3576,-82.35,-9.0,-9.15,14.8943,-2.897,-8.2552,6.1849,0.1561,-0.6107,-28.05,13.95,19.05,-5.49,-16.21,-6.49,3.0107,-0.577,0.6829,-13.0,21.1875,12.75,80.25,27.0625,176.875,0,1.2669999599456787,13.530723797343585,1.7386063039112678,17.273711486822975,6.216937325564735,18.303669031098657,3.1406362253530733
1776970347.485,17.7123,-0.7638,4.0965,1.5122,0.6488,1.4746,-82.35,-9.0,-9.15,14.8943,-2.897,-8.2552,6.1849,0.1561,-0.6107,-28.65,12.75,18.15,-5.49,-16.21,-6.49,3.0107,-0.577,0.6829,-13.0,21.1875,12.75,79.625,28.0,175.25,0,1.2709999084472656,18.195886182871114,2.2095554847072747,17.273711486822975,6.216937325564735,18.303669031098657,3.1406362253530733
1776970347.493,18.646,-3.7948,4.7549,1.5122,0.6488,1.4746,-82.35,-9.0,-9.15,13.1298,-3.5769,-0.723,6.1707,0.7618,-0.4996,-27.75,10.95,19.05,8.11,-13.41,-10.38,3.0347,1.7181,-0.4069,-13.0,21.1875,12.75,79.3125,30.25,173.6875,0,1.2790000438690186,19.613334674399457,2.2095554847072747,13.627493924049277,6.237585902414491,18.797462594722724,3.5109598844190746
1776970347.502,17.911,-3.1532,2.3774,1.8,1.1655,1.4823,-81.75,-9.45,-10.05,16.0483,-4.5274,1.9058,4.6825,1.408,-0.0735,-27.75,10.95,19.05,14.07,-8.08,-8.6,2.702,4.0328,-0.1069,-13.0,21.1875,12.75,79.3125,30.25,173.6875,0,1.2880001068115234,18.34117286326041,2.606837843058137,16.783246327513638,4.890160784677739,18.363313971067424,4.855482205713455
1776970347.507,17.911,-3.1532,2.3774,2.1751,1.4522,1.1775,-81.75,-9.45,-10.05,14.4394,-5.1906,2.0255,2.9841,1.2044,0.2348,-27.75,10.95,19.05,14.07,-8.08,-8.6,2.702,4.0328,-0.1069,-13.0,21.1875,12.75,78.9375,31.0625,172.625,0,1.2929999828338623,18.34117286326041,2.8681790564746827,15.477120241504878,3.2265404398519477,18.363313971067424,4.855482205713455
1776970347.512,15.8448,-1.7358,0.8811,1.7427,1.3952,0.7176,-81.75,-8.4,-7.5,14.4394,-5.1906,2.0255,2.9841,1.2044,0.2348,-27.75,10.95,19.05,10.17,-13.15,-7.86,1.945,1.393,-0.1767,-11.0,23.25,7.1875,78.9375,31.0625,172.625,0,1.2980000972747803,15.963928898927106,2.3448957524802676,15.477120241504878,3.2265404398519477,18.38833869603233,2.3988949310046905
1776970347.517,15.8448,-1.7358,0.8811,1.7427,1.3952,0.7176,-81.75,-8.4,-7.5,10.3573,-2.7126,0.3974,1.6385,1.4043,0.2478,-27.75,10.95,19.05,10.17,-13.15,-7.86,1.945,1.393,-0.1767,-11.0,23.25,7.1875,78.875,31.25,171.9375,0,1.3029999732971191,15.963928898927106,2.3448957524802676,10.713999664457713,2.172129273316853,18.38833869603233,2.3988949310046905
1776970347.522,13.2184,-0.0551,-0.7302,0.3104,0.6872,0.1439,-81.15,-9.0,-8.1,10.3573,-2.7126,0.3974,1.6385,1.4043,0.2478,-28.5,10.95,21.9,8.5,-12.65,-7.75,1.1377,0.3687,0.1407,-11.0,23.25,7.1875,78.875,31.25,171.9375,0,1.308000087738037,13.238667856321497,0.7676582638127463,10.713999664457713,2.172129273316853,17.09780687690676,1.2041999294137167
1776970347.53,13.2184,-0.0551,-0.7302,0.3104,0.6872,0.1439,-82.35,-10.05,-7.65,8.6718,1.063,-0.5459,1.4538,1.3691,0.3014,-28.5,10.95,21.9,5.82,4.78,-9.13,0.5978,0.9654,0.2258,-11.0,23.25,7.1875,78.9375,31.75,171.4375,0,1.315999984741211,13.238667856321497,0.7676582638127463,8.753747257603454,2.0196066968595643,11.835442535030113,1.1577338381510667
1776970347.535,8.4204,-0.7877,-0.0551,-1.465,-0.0879,-0.2499,-82.35,-10.05,-7.65,8.6718,1.063,-0.5459,1.4538,1.3691,0.3014,-28.8,9.9,22.2,5.82,4.78,-9.13,0.5978,0.9654,0.2258,-11.0,23.25,7.1875,78.875,31.8125,171.0625,0,1.321000099182129,8.457342576719949,1.488758348423276,8.753747257603454,2.0196066968595643,11.835442535030113,1.1577338381510667
1776970347.543,5.2553,-2.6312,1.3886,-2.5303,0.1183,-0.1966,-81.15,-8.1,-9.15,8.1211,3.4788,1.4174,1.506,1.3494,0.2566,-28.8,8.7,21.9,5.31,-1.98,-7.95,0.6349,0.1527,0.1014,-11.0,23.25,7.1875,78.75,32.0625,170.875,0,1.3289999961853027,6.0390066641791345,2.5406819045287823,8.947811878330926,2.0383228203599155,9.763144985095735,0.6608307347573961
1776970347.553,4.9512,-4.0725,0.7374,-2.6249,0.7754,0.0165,-79.65,-10.5,-6.6,8.8202,3.553,0.3903,1.3065,1.2239,0.2835,-29.85,9.45,22.5,5.2,-4.31,-8.12,0.3622,0.4167,-0.1233,-11.0,23.25,7.1875,78.75,32.0625,170.875,0,1.3389999866485596,6.45316948870863,2.737081916932703,9.516936015861406,1.8125246784526825,10.561747014580494,0.5657124888138851
1776970347.557,4.9512,-4.0725,0.7374,-2.6249,0.7754,0.0165,-79.65,-10.5,-6.6,8.5162,3.7924,-0.5602,0.6265,1.0168,0.1871,-29.85,9.45,22.5,5.2,-4.31,-8.12,0.3622,0.4167,-0.1233,-11.0,23.25,7.1875,78.75,32.0625,170.875,0,1.3429999351501465,6.45316948870863,2.737081916932703,9.33926036900139,1.2088800188604325,10.561747014580494,0.5657124888138851
1776970347.562,7.276,-3.8595,-0.6393,-1.4714,0.8423,0.2358,-79.65,-10.5,-6.6,8.5162,3.7924,-0.5602,0.6265,1.0168,0.1871,-29.85,9.45,22.5,6.27,-2.1,-8.98,-0.0338,0.7756,-0.1582,-11.6875,25.5,1.75,78.75,32.5,170.9375,0,1.3480000495910645,8.261030246888096,1.7117502417116814,9.33926036900139,1.2088800188604325,11.151829446328527,0.7922910071432087
1776970347.567,7.276,-3.8595,-0.6393,-1.4714,0.8423,0.2358,-79.65,-10.5,-6.6,7.3406,5.126,-1.9106,-0.041,0.9888,0.0722,-29.85,9.45,22.5,6.27,-2.1,-8.98,-0.0338,0.7756,-0.1582,-11.6875,25.5,1.75,78.75,32.5,170.9375,0,1.3529999256134033,8.261030246888096,1.7117502417116814,9.1548171319803,0.9922798395614012,11.151829446328527,0.7922910071432087
1776970347.572,7.3861,-2.15,-0.4286,-0.1306,0.7285,0.3667,-82.35,-9.75,-8.4,7.3406,5.126,-1.9106,-0.041,0.9888,0.0722,-28.8,10.65,22.95,5.13,0.35,-7.89,-0.1113,0.3512,-0.1091,-11.6875,25.5,1.75,78.6875,32.6875,171.0,0,1.3580000400543213,7.704587670342911,0.8259766945864756,9.1548171319803,0.9922798395614012,9.417616471273398,0.38422902024703964
1776970347.577,7.3861,-2.15,-0.4286,-0.1306,0.7285,0.3667,-82.35,-9.75,-8.4,8.1906,4.6088,-1.9393,-0.6291,0.9052,0.1804,-28.8,10.65,22.95,5.13,0.35,-7.89,-0.2051,0.3807,-0.0589,-11.6875,25.5,1.75,78.6875,32.9375,171.125,0,1.3629999160766602,7.704587670342911,0.8259766945864756,9.596241466845235,1.1170040331171593,9.417616471273398,0.4364260647578236
1776970347.583,7.3406,0.2634,1.1612,0.895,1.303,0.5044,-82.35,-9.75,-8.4,8.1906,4.6088,-1.9393,-0.6291,0.9052,0.1804,-28.95,9.75,23.85,5.24,-0.23,-7.91,-0.2051,0.3807,-0.0589,-11.6875,25.5,1.75,78.75,33.1875,171.25,0,1.36899995803833,7.436543105502718,1.659293030178817,9.596241466845235,1.1170040331171593,9.490974660170577,0.4364260647578236
1776970347.592,8.169,3.5698,3.9983,1.1088,0.9174,0.6249,-80.85,-9.75,-5.55,8.5329,3.79,-1.3719,-1.2111,0.8314,0.4072,-27.9,8.25,24.15,3.95,-0.45,-7.59,-0.24,0.4745,0.0098,-11.6875,25.5,1.75,78.75,33.1875,171.25,0,1.378000020980835,9.770488008794647,1.568936012079524,9.436980026470332,1.5244018531870132,8.568144489911454,0.5318329530971168
1776970347.602,9.7803,6.3039,7.1563,0.0767,0.4932,0.5196,-80.1,-10.05,-6.15,8.5521,3.0406,-0.7614,-1.5087,0.8084,0.4964,-29.85,10.65,25.05,5.99,-2.29,-8.67,-0.1625,0.5149,0.084,-11.6875,25.5,1.75,78.875,33.4375,171.25,0,1.3880000114440918,13.660382607745655,0.7204951700046295,9.10842427261708,1.782161387192529,10.783927855841767,0.5464286412698368
1776970347.607,10.6877,6.8354,8.4036,0.0767,0.4932,0.5196,-80.1,-10.05,-6.15,9.2775,3.474,-0.7374,-1.5404,0.7719,0.4983,-29.85,10.65,25.05,5.99,-2.29,-8.67,-0.1625,0.5149,0.084,-11.6875,25.5,1.75,78.9375,33.8125,171.25,0,1.3930001258850098,15.217428081315187,0.7204951700046295,9.93400427873876,1.7935898806583406,10.783927855841767,0.5464286412698368
1776970347.612,10.6877,6.8354,8.4036,-1.5047,0.2292,0.2856,-81.6,-9.75,-4.8,9.2775,3.474,-0.7374,-1.5404,0.7719,0.4983,-30.45,8.55,23.4,5.87,-1.67,-8.09,-0.0851,0.6512,0.1069,-13.25,25.0625,1.5,78.9375,33.8125,171.25,0,1.3980000019073486,15.217428081315187,1.548619414188005,9.93400427873876,1.7935898806583406,10.133799879610807,0.6653803874476614
1776970347.617,11.3006,5.5713,6.3829,-1.5047,0.2292,0.2856,-81.6,-9.75,-4.8,9.9599,4.1563,-0.431,-1.2257,0.7424,0.5263,-30.45,8.55,23.4,5.87,-1.67,-8.09,-0.0851,0.6512,0.1069,-13.25,25.0625,1.5,78.9375,33.8125,171.25,0,1.4030001163482666,14.123893105656103,1.548619414188005,10.800935084519303,1.5265942289947254,10.133799879610807,0.6653803874476614
1776970347.622,11.3006,5.5713,6.3829,-2.7411,-0.0149,0.0456,-82.2,-10.65,-5.25,9.9599,4.1563,-0.431,-1.2257,0.7424,0.5263,-30.45,8.55,23.4,5.75,-1.14,-8.35,-0.0404,0.4603,0.1658,-13.25,25.0625,1.5,79.0625,34.0625,171.1875,0,1.4079999923706055,14.123893105656103,2.7415197573608694,10.800935084519303,1.5265942289947254,10.202186040256274,0.4909153593034139
1776970347.63,10.4459,3.3471,4.853,-3.2959,-0.3523,-0.1679,-81.6,-10.5,-5.85,10.173,4.4317,-0.3448,-0.7512,0.7693,0.5364,-30.3,8.7,26.1,6.38,-1.5,-8.31,-0.0098,0.4396,0.1429,-13.25,25.0625,1.5,79.1875,34.25,171.0625,0,1.4160001277923584,11.994645231102085,3.3189249027358243,11.101746751299995,1.2016026339851291,10.583501311002896,0.4623468503191084
1776970347.635,10.4459,3.3471,4.853,-3.2959,-0.3523,-0.1679,-81.6,-10.5,-5.85,10.1107,3.9002,-0.1508,-0.4186,0.7733,0.6235,-30.3,8.7,26.1,6.38,-1.5,-8.31,-0.0098,0.4396,0.1429,-13.25,25.0625,1.5,79.25,34.5,171.0,0,1.4210000038146973,11.994645231102085,3.3189249027358243,10.837922087282228,1.0779476332364204,10.583501311002896,0.4623468503191084
1776970347.643,9.9096,1.4006,3.3303,-2.9268,-0.279,-0.2864,-81.3,-11.1,-6.45,9.3206,3.0478,-0.4669,-0.2569,0.7703,0.6566,-29.55,7.2,23.55,6.23,-1.23,-8.2,0.0415,0.3992,0.0905,-13.25,25.0625,1.5,79.25,34.625,170.875,0,1.428999900817871,10.54764194547767,2.9539844617059177,9.81736547195835,1.044262064809404,10.371393349015358,0.4114281711307577
1776970347.653,9.5337,0.0144,2.1835,-2.144,-0.0184,-0.3736,-81.3,-11.1,-6.45,9.074,2.4972,-0.8715,-0.1793,0.7514,0.6107,-30.45,9.3,24.45,5.95,-1.12,-8.02,0.1102,0.2323,0.0731,-13.25,25.0625,1.5,79.25,34.625,170.875,0,1.439000129699707,9.780558026002401,2.176384965946972,9.451613412005381,0.9847359747668407,10.04874619044585,0.2673030864019344
1776970347.657,9.3925,0.5962,1.8651,-1.3816,0.2278,-0.4333,-81.3,-11.1,-6.45,9.074,2.4972,-0.8715,-0.1793,0.7514,0.6107,-30.45,9.3,24.45,5.95,-1.12,-8.02,0.1102,0.2323,0.0731,-13.25,25.0625,1.5,79.25,34.6875,170.75,0,1.443000078201294,9.594431129566777,1.4657626990751265,9.451613412005381,0.9847359747668407,10.04874619044585,0.2673030864019344
1776970347.663,9.3925,0.5962,1.8651,-1.3816,0.2278,-0.4333,-81.3,-11.4,-7.2,9.177,2.2482,-1.0367,-0.1628,0.7344,0.5753,-28.5,7.65,24.75,5.84,-1.08,-8.0,0.1625,0.1364,0.0589,-12.6875,25.375,1.0625,79.25,34.6875,170.75,0,1.4490001201629639,9.594431129566777,1.4657626990751265,9.505076492590682,0.9470043769698218,9.963533509754457,0.22018269686785108
1776970347.668,9.0644,1.2761,2.1332,-0.9174,0.4085,-0.4698,-81.3,-11.4,-7.2,9.177,2.2482,-1.0367,-0.1628,0.7344,0.5753,-28.5,7.65,24.75,5.84,-1.08,-8.0,0.1625,0.1364,0.0589,-12.6875,25.375,1.0625,79.3125,34.75,170.6875,0,1.4539999961853027,9.399059570510232,1.108696103537845,9.505076492590682,0.9470043769698218,9.963533509754457,0.22018269686785108
1776970347.673,9.0644,1.2761,2.1332,-0.9174,0.4085,-0.4698,-81.9,-13.2,-6.9,9.2991,2.3703,-1.1301,-0.2196,0.7083,0.5537,-28.5,7.65,24.75,5.67,-1.12,-7.98,0.1593,0.1189,0.0524,-12.6875,25.375,1.0625,79.3125,34.75,170.6875,0,1.4590001106262207,9.399059570510232,1.108696103537845,9.662748517373304,0.9254710908504922,9.853106109242912,0.20557105827426195
1776970347.679,8.5114,1.9848,2.4397,-0.6107,0.3992,-0.3832,-81.9,-13.2,-6.9,9.2991,2.3703,-1.1301,-0.2196,0.7083,0.5537,-28.5,7.65,24.75,5.35,-0.95,-7.92,0.1582,0.1145,0.0524,-12.6875,25.375,1.0625,79.3125,34.8125,170.5625,0,1.4649999141693115,9.073890956475067,0.8241100472631067,9.662748517373304,0.9254710908504922,9.604759236961643,0.20219606821103125
1776970347.684,8.5114,1.9848,2.4397,-0.6107,0.3992,-0.3832,-80.25,-11.1,-6.0,9.268,2.2146,-0.7039,-0.3014,0.7051,0.563,-28.5,7.65,24.75,5.35,-0.95,-7.92,0.1582,0.1145,0.0524,-12.6875,25.375,1.0625,79.3125,34.875,170.4375,0,1.4700000286102295,9.073890956475067,0.8241100472631067,9.554881075659708,0.9513027751457471,9.604759236961643,0.20219606821103125
1776970347.693,7.9847,1.9704,2.1572,-0.4687,0.3621,-0.2246,-80.4,-10.5,-6.15,8.8178,1.9321,-0.9577,-0.4146,0.6552,0.5676,-29.85,7.65,26.1,5.37,-0.94,-7.89,0.1527,0.1298,0.0491,-12.6875,25.375,1.0625,79.3125,34.875,170.4375,0,1.4790000915527344,8.502436244394897,0.6334360741227169,9.077653691345578,0.9609110052445023,9.590234616525292,0.2063398652708681
1776970347.703,7.5609,1.3934,1.7645,-0.4583,0.3688,-0.0043,-81.75,-13.5,-6.0,8.8466,2.0638,-0.759,-0.3794,0.6478,0.5582,-28.95,7.8,27.75,5.45,-0.93,-7.75,0.1625,0.1374,0.0556,-12.6875,25.375,1.0625,79.3125,34.9375,170.3125,0,1.4890000820159912,7.888107036545588,0.5882778425200119,9.115793053815999,0.9355086530866511,9.519973739459578,0.21994628889799436
1776970347.708,8.0278,0.2849,1.4365,-0.4351,0.3333,0.1791,-81.75,-13.5,-6.0,8.8466,2.0638,-0.759,-0.3794,0.6478,0.5582,-28.95,7.8,27.75,5.45,-0.93,-7.75,0.1625,0.1374,0.0556,-12.6875,25.375,1.0625,79.3125,34.9375,170.3125,0,1.49399995803833,8.160286336887939,0.5766088015283846,9.115793053815999,0.9355086530866511,9.519973739459578,0.21994628889799436
1776970347.713,8.0278,0.2849,1.4365,-0.4351,0.3333,0.1791,-80.55,-11.4,-6.45,9.0453,2.0806,-0.5291,-0.2936,0.6542,0.5537,-28.95,7.5,27.0,5.69,-1.19,-7.91,0.1527,0.1571,0.0742,-12.6875,26.0625,1.0625,79.3125,35.0,170.1875,0,1.499000072479248,8.160286336887939,0.5766088015283846,9.296574383072508,0.905959320278786,9.816328234120943,0.23130789005133395
1776970347.718,9.019,-0.7063,1.6807,-0.3725,0.2057,0.283,-80.55,-11.4,-6.45,9.0453,2.0806,-0.5291,-0.2936,0.6542,0.5537,-28.95,7.5,27.0,5.69,-1.19,-7.91,0.1527,0.1571,0.0742,-12.6875,26.0625,1.0625,79.3125,35.0,170.1875,0,1.503999948501587,9.201411477594077,0.511035947854943,9.296574383072508,0.905959320278786,9.816328234120943,0.23130789005133395
1776970347.723,9.5074,-0.5315,2.2936,-0.3725,0.2057,0.283,-80.55,-11.4,-6.45,9.2871,1.7597,-0.4908,-0.1522,0.6547,0.5343,-29.7,7.8,26.7,5.64,-1.35,-7.99,0.1211,0.1734,0.084,-12.6875,26.0625,1.0625,79.375,35.0625,170.0625,0,1.5090000629425049,9.79457747787009,0.511035947854943,9.465075548562726,0.8586462717557213,9.872801020986902,0.22757146130391656
1776970347.727,9.5074,-0.5315,2.2936,-0.2974,0.0911,0.287,-80.55,-11.4,-6.45,9.2871,1.7597,-0.4908,-0.1522,0.6547,0.5343,-29.7,7.8,26.7,5.64,-1.35,-7.99,0.0818,0.2269,0.0665,-12.6875,26.0625,1.0625,79.375,35.1875,170.0,0,1.5130000114440918,9.79457747787009,0.4232197656064754,9.465075548562726,0.8586462717557213,9.872801020986902,0.25019412463125507
1776970347.733,9.5936,0.0599,2.8898,-0.2361,0.0269,0.2545,-81.9,-12.45,-5.55,9.56,1.6807,0.012,0.0064,0.6392,0.5199,-29.7,7.8,26.7,5.83,-1.31,-7.91,0.0818,0.2269,0.0665,-12.6875,26.0625,1.0625,79.4375,35.3125,169.9375,0,1.5190000534057617,10.019565510040843,0.3481911400366184,9.706621270555477,0.8239621411205735,9.913278973175323,0.25019412463125507
1776970347.743,9.3039,1.0391,3.5291,-0.2518,0.0024,0.2097,-81.9,-12.45,-5.55,9.6917,1.4246,0.1772,0.1092,0.6611,0.4999,-28.95,6.0,27.75,5.67,-1.35,-7.89,0.0436,0.24,0.0545,-12.6875,26.0625,1.0625,79.4375,35.3125,169.9375,0,1.5290000438690186,10.004840370040894,0.32769359163706574,9.797445273641493,0.8359891506473036,9.80935777714321,0.24994241336755954
1776970347.753,9.0692,1.5395,3.9361,-0.3946,0.0213,0.1783,-79.35,-12.45,-6.6,9.8928,1.4365,0.5052,0.1961,0.6611,0.486,-30.15,4.05,27.3,5.78,-1.26,-7.82,0.0218,0.264,0.0447,-12.6875,26.0625,1.0625,79.4375,35.5,169.875,0,1.5390000343322754,10.00566500038853,0.4335363191244766,10.009308224347974,0.8436257582601423,9.805529052529497,0.26864349982830404
1776970347.758,9.0692,1.5395,3.9361,-0.3946,0.0213,0.1783,-79.35,-12.45,-6.6,9.8928,1.4365,0.5052,0.1961,0.6611,0.486,-28.5,4.95,26.4,5.78,-1.26,-7.82,0.0218,0.264,0.0447,-12.6875,26.0625,1.0625,79.4375,35.5,169.875,0,1.5439999103546143,10.00566500038853,0.4335363191244766,10.009308224347974,0.8436257582601423,9.805529052529497,0.26864349982830404
1776970347.763,9.0668,1.4533,4.0151,-0.5881,0.0826,0.1572,-79.5,-12.6,-6.0,9.9479,1.4796,0.6536,0.186,0.6358,0.4738,-28.5,4.95,26.4,5.76,-1.16,-7.92,0.0076,0.2629,0.0371,-12.0,26.375,0.0,79.5,35.625,169.875,0,1.5490000247955322,10.021974413258098,0.6143258174617113,10.078547689523527,0.8144471007990636,9.861521180832092,0.26561359151971126
1776970347.768,9.0668,1.4533,4.0151,-0.5881,0.0826,0.1572,-79.5,-12.6,-6.0,9.9479,1.4796,0.6536,0.186,0.6358,0.4738,-30.3,4.95,28.2,5.76,-1.16,-7.92,0.0076,0.2629,0.0371,-12.0,26.375,0.0,79.5,35.625,169.875,0,1.553999900817871,10.021974413258098,0.6143258174617113,10.078547689523527,0.8144471007990636,9.861521180832092,0.26561359151971126
1776970347.773,9.1866,0.9242,3.7613,-0.6395,0.1172,0.1298,-80.4,-13.65,-5.85,9.833,1.3982,0.4549,0.1292,0.5969,0.4671,-30.3,4.95,28.2,5.79,-1.35,-7.79,0.0076,0.2607,0.0316,-12.0,26.375,0.0,79.5,35.75,169.8125,0,1.559000015258789,9.969711274154333,0.6629812440785938,9.942322980571491,0.7688723301042898,9.799525498716761,0.26271811890313157
1776970347.778,9.1866,0.9242,3.7613,-0.6395,0.1172,0.1298,-80.4,-13.65,-5.85,9.833,1.3982,0.4549,0.0448,0.5729,0.4562,-29.7,5.55,29.1,5.79,-1.35,-7.79,0.0098,0.2454,0.0284,-12.0,26.375,0.0,79.5625,35.875,169.8125,0,1.564000129699707,9.969711274154333,0.6629812440785938,9.942322980571491,0.7337164915687803,9.799525498716761,0.24723219855026973
1776970347.784,9.1866,0.34,3.122,-0.5452,0.1308,0.1124,-81.0,-13.05,-7.2,9.6654,1.3264,0.2993,0.0448,0.5729,0.4562,-29.7,5.55,29.1,5.74,-1.12,-7.83,0.0098,0.2454,0.0284,-12.0,26.375,0.0,79.5625,35.875,169.8125,0,1.5699999332427979,9.708558263717636,0.5718264072251298,9.760577575635573,0.7337164915687803,9.772967819449729,0.24723219855026973
1776970347.792,9.1482,0.0215,2.4157,-0.4469,0.174,0.1045,-80.4,-13.2,-6.9,9.4068,1.0678,0.0934,-0.0253,0.5407,0.4482,-29.7,5.55,29.1,5.9,-1.18,-7.78,0.0207,0.2465,0.0273,-12.0,26.375,0.0,79.5625,36.0,169.75,0,1.5780000686645508,9.461798559470603,0.49083180418550715,9.467671658861011,0.7027658358230001,9.835181747176817,0.2488695039573953
1776970347.797,9.1482,0.0215,2.4157,-0.4469,0.174,0.1045,-80.4,-13.2,-6.9,9.4739,0.9361,0.3065,-0.1271,0.5113,0.4565,-28.95,4.05,26.7,5.9,-1.18,-7.78,0.0393,0.2356,0.0349,-12.0,26.375,0.0,79.5625,36.125,169.75,0,1.5829999446868896,9.461798559470603,0.49083180418550715,9.524967541676979,0.6971186054037003,9.835181747176817,0.2413915077213778
1776970347.804,9.1866,-0.3926,1.6448,-0.4618,0.202,0.1127,-80.25,-13.05,-6.75,9.4739,0.9361,0.3065,-0.1271,0.5113,0.4565,-28.95,4.05,26.7,5.93,-1.29,-7.84,0.0393,0.2356,0.0349,-12.0,26.375,0.0,79.5625,36.125,169.75,0,1.5899999141693115,9.340937927210522,0.5164925265674228,9.524967541676979,0.6971186054037003,9.914363317934237,0.2413915077213778
1776970347.809,9.1866,-0.3926,1.6448,-0.4618,0.202,0.1127,-80.25,-13.05,-6.75,9.6271,0.9385,0.2658,-0.2457,0.4786,0.4533,-29.55,3.9,30.75,5.93,-1.29,-7.84,0.0665,0.1996,0.0545,-12.0,26.6875,-0.375,79.625,36.25,169.6875,0,1.5950000286102295,9.340937927210522,0.5164925265674228,9.676388081303891,0.7034965102969595,9.914363317934237,0.2173307617434771
1776970347.814,9.1482,-0.4238,1.7238,-0.5564,0.2297,0.1167,-80.25,-13.05,-6.75,9.6271,0.9385,0.2658,-0.2457,0.4786,0.4533,-29.55,3.9,30.75,5.8,-1.29,-7.76,0.0665,0.1996,0.0545,-12.0,26.6875,-0.375,79.625,36.25,169.6875,0,1.5999999046325684,9.31883340982121,0.6131573533767658,9.676388081303891,0.7034965102969595,9.773520348369875,0.2173307617434771
1776970347.819,9.2033,-0.6081,1.9369,-0.5564,0.2297,0.1167,-80.25,-13.05,-6.75,9.7995,0.8763,0.3615,-0.319,0.4525,0.4514,-30.3,3.45,28.95,5.8,-1.29,-7.76,0.0665,0.1996,0.0545,-12.0,26.6875,-0.375,79.625,36.375,169.5625,0,1.6050000190734863,9.424547634236882,0.6131573533767658,9.845241702975098,0.7143383022070146,9.773520348369875,0.2173307617434771
1776970347.824,9.2033,-0.6081,1.9369,-0.7605,0.2388,0.129,-80.25,-12.6,-6.0,9.7995,0.8763,0.3615,-0.319,0.4525,0.4514,-30.3,3.45,28.95,5.86,-1.26,-7.73,0.1036,0.1898,0.0611,-12.0,26.6875,-0.375,79.625,36.375,169.5625,0,1.6099998950958252,9.424547634236882,0.8074816963869831,9.845241702975098,0.7143383022070146,9.781620520138778,0.22470026702253829
1776970347.829,9.3589,-0.6823,2.2577,-0.7605,0.2388,0.129,-80.25,-12.6,-6.0,9.8497,1.0511,0.4669,-0.311,0.4064,0.4229,-30.15,4.05,30.9,5.86,-1.26,-7.73,0.1211,0.1647,0.0633,-12.0,26.6875,-0.375,79.625,36.4375,169.4375,0,1.6150000095367432,9.651515517782686,0.8074816963869831,9.916622253065809,0.6638722542778844,9.781620520138778,0.21400511676125877
1776970347.834,9.3589,-0.6823,2.2577,-0.8961,0.1186,0.1503,-80.25,-12.6,-6.0,9.8497,1.0511,0.4669,-0.311,0.4064,0.4229,-30.15,4.05,30.9,5.74,-1.36,-7.82,0.1211,0.1647,0.0633,-12.0,26.6875,-0.375,79.625,36.4375,169.4375,0,1.6200001239776611,9.651515517782686,0.9163248659727619,9.916622253065809,0.6638722542778844,9.795386669243843,0.21400511676125877
1776970347.843,9.1363,-0.9146,2.4732,-1.0568,0.0077,0.2086,-79.65,-14.4,-5.85,9.9168,0.984,0.9242,-0.3142,0.373,0.4159,-30.15,4.05,30.9,5.89,-1.42,-7.74,0.1342,0.1451,0.0556,-12.0,26.6875,-0.375,79.6875,36.5,169.375,0,1.628999948501587,9.509216008168076,1.0772184040388468,10.008262780323067,0.6409551076323521,9.82934891027885,0.20531685269358677
1776970347.848,9.2368,-1.087,3.0502,-1.0568,0.0077,0.2086,-79.65,-14.4,-5.85,9.9216,0.6967,1.1492,-0.2912,0.3507,0.4112,-30.15,3.0,29.85,5.89,-1.42,-7.74,0.1418,0.1582,0.0436,-12.0,26.6875,-0.375,79.6875,36.5625,169.25,0,1.6340000629425049,9.787939685143142,1.0772184040388468,10.01220245949911,0.6139001303143696,9.82934891027885,0.21687655474947035
1776970347.854,9.2368,-1.087,3.0502,-1.1517,-0.0344,0.222,-80.4,-13.95,-7.35,9.9216,0.6967,1.1492,-0.2912,0.3507,0.4112,-30.15,3.0,29.85,6.06,-1.35,-7.62,0.1418,0.1582,0.0436,-12.0,26.6875,-0.375,79.6875,36.5625,169.25,0,1.6400001049041748,9.787939685143142,1.1734054073507587,10.01220245949911,0.6139001303143696,9.829064044963793,0.21687655474947035
1776970347.859,9.2225,-0.9625,3.4165,-1.2233,-0.0775,0.2822,-80.4,-13.95,-7.35,10.0102,0.6991,1.1325,-0.3,0.3296,0.4058,-29.1,2.7,28.65,5.81,-1.55,-7.9,0.1156,0.1374,0.0469,-12.5,26.0,0.5,79.6875,36.6875,169.1875,0,1.6449999809265137,9.881972715505746,1.2578179439012627,10.098287037908953,0.6027518560734592,9.928172037187913,0.185584832354371
1776970347.864,9.2225,-0.9625,3.4165,-1.2233,-0.0775,0.2822,-80.85,-13.2,-7.35,10.0102,0.6991,1.1325,-0.3,0.3296,0.4058,-29.1,2.7,28.65,5.81,-1.55,-7.9,0.1156,0.1374,0.0469,-12.5,26.0,0.5,79.6875,36.6875,169.1875,0,1.6500000953674316,9.881972715505746,1.2578179439012627,10.098287037908953,0.6027518560734592,9.928172037187913,0.185584832354371
1776970347.869,9.1219,-1.0846,3.6655,-1.1956,-0.0959,0.2998,-80.85,-13.2,-7.35,9.9503,0.3591,1.0127,-0.3525,0.2971,0.3978,-28.65,4.05,29.55,6.01,-1.33,-7.74,0.1145,0.1407,0.0316,-12.5,26.0,0.5,79.6875,36.75,169.0625,0,1.6549999713897705,9.890465460229867,1.2363398440558324,10.008145891722403,0.6089084496047004,9.889216349135053,0.184133918657047
1776970347.874,9.1219,-1.0846,3.6655,-1.1956,-0.0959,0.2998,-80.4,-15.15,-8.1,9.9503,0.3591,1.0127,-0.3525,0.2971,0.3978,-28.65,4.05,29.55,6.01,-1.33,-7.74,0.1145,0.1407,0.0316,-12.5,26.0,0.5,79.6875,36.75,169.0625,0,1.6600000858306885,9.890465460229867,1.2363398440558324,10.008145891722403,0.6089084496047004,9.889216349135053,0.184133918657047
1776970347.879,8.9902,-1.0678,3.7685,-1.1908,-0.0642,0.3131,-80.4,-15.15,-8.1,9.9599,0.249,1.2474,-0.445,0.2638,0.3888,-28.8,2.4,29.7,6.01,-1.33,-7.74,0.0927,0.1396,0.0229,-12.5,26.0,0.5,79.6875,36.8125,169.0,0,1.6649999618530273,9.806400212616248,1.2329468317814845,10.040797566428674,0.647132814806976,9.889216349135053,0.16913266981869587
1776970347.884,8.9902,-1.0678,3.7685,-1.1908,-0.0642,0.3131,-79.65,-14.4,-6.9,9.9599,0.249,1.2474,-0.5758,0.2395,0.4002,-28.8,2.4,29.7,6.15,-1.4,-7.57,0.0927,0.1396,0.0229,-12.5,26.0,0.5,79.6875,36.8125,169.0,0,1.6700000762939453,9.806400212616248,1.2329468317814845,10.040797566428674,0.7409898312392688,9.853293865505078,0.16913266981869587
1776970347.893,9.2368,-1.0439,3.6033,-1.2039,-0.0386,0.3336,-79.8,-14.55,-6.9,9.9838,0.3184,1.4054,-0.5758,0.2395,0.4002,-27.9,2.25,29.55,5.89,-1.51,-7.89,0.0458,0.1156,0.0415,-12.5,26.0,0.5,79.6875,36.875,168.9375,0,1.678999900817871,9.969552263767918,1.2498616443430848,10.087258803064389,0.7409898312392688,9.961139493049979,0.13108489615512536
1776970347.898,9.1147,-0.5674,3.2394,-1.2204,-0.0085,0.3288,-79.8,-14.55,-8.7,9.8665,0.4621,1.1995,-0.7357,0.2332,0.3973,-27.9,2.25,29.55,5.89,-1.51,-7.89,0.0622,0.1113,0.0142,-12.5,26.0,0.5,79.6875,36.9375,168.9375,0,1.684000015258789,9.689861258552673,1.2639453508755827,9.949882356590956,0.8680345730441847,9.961139493049979,0.1282893994061863
1776970347.904,9.1147,-0.5674,3.2394,-1.2204,-0.0085,0.3288,-79.8,-14.55,-8.7,9.6223,0.5866,1.0822,-0.7986,0.1958,0.3938,-27.9,2.25,29.55,6.24,-1.41,-7.69,0.0622,0.1113,0.0142,-12.5,26.0,0.5,79.6875,36.9375,168.9375,0,1.690000057220459,9.689861258552673,1.2639453508755827,9.700717174003167,0.9116896621109619,10.003089522742462,0.1282893994061863
1776970347.909,8.983,-0.6129,2.8084,-1.2033,0.0314,0.3206,-79.8,-14.55,-8.7,9.6223,0.5866,1.0822,-0.7986,0.1958,0.3938,-30.45,1.5,30.15,6.24,-1.41,-7.69,0.0622,0.1113,0.0142,-12.5,26.0,0.0625,79.6875,37.0,168.875,0,1.6949999332427979,9.431704298269747,1.245672994810436,9.700717174003167,0.9116896621109619,10.003089522742462,0.1282893994061863
1776970347.914,8.983,-0.6129,2.8084,-1.2033,0.0314,0.3206,-79.8,-15.75,-9.0,9.6151,0.9361,0.9936,-0.8559,0.1692,0.393,-30.45,1.5,30.15,6.25,-1.3,-7.64,0.0415,0.1091,0.0044,-12.5,26.0,0.0625,79.6875,37.0,168.875,0,1.7000000476837158,9.431704298269747,1.245672994810436,9.711522649924676,0.9568920785543163,9.956008236236046,0.11680933181899467
1776970347.919,9.0477,-0.3041,3.0789,-1.2033,-0.0056,0.373,-79.8,-15.75,-9.0,9.6151,0.9361,0.9936,-0.8559,0.1692,0.393,-29.1,2.4,31.05,6.25,-1.3,-7.64,0.0415,0.1091,0.0044,-12.5,26.0,0.0625,79.6875,37.0625,168.875,0,1.7049999237060547,9.5620592609542,1.2597980989031536,9.711522649924676,0.9568920785543163,9.956008236236046,0.11680933181899467
1776970347.924,9.0477,-0.3041,3.0789,-1.2033,-0.0056,0.373,-79.8,-15.75,-9.0,9.5481,1.221,0.7278,-0.8314,0.1375,0.3912,-29.1,2.4,31.05,6.08,-1.39,-7.67,0.0207,0.0796,0.0131,-12.5,26.0,0.0625,79.6875,37.0625,168.875,0,1.7100000381469727,9.5620592609542,1.2597980989031536,9.653328309448508,0.9290692385393029,9.885716969446374,0.08328421218934595
1776970347.928,8.9974,-0.0527,2.8635,-1.2398,-0.0218,0.4053,-79.8,-15.75,-9.0,9.5481,1.221,0.7278,-0.8314,0.1375,0.3912,-29.1,2.4,30.45,6.08,-1.39,-7.67,0.0229,0.048,0.0207,-12.5,26.0,0.0625,79.6875,37.0625,168.875,0,1.7139999866485596,9.442225177361532,1.3045487227390167,9.653328309448508,0.9290692385393029,9.885716969446374,0.05706925617177781
1776970347.934,9.4403,0.3998,3.0311,-1.2398,-0.0218,0.4053,-80.1,-15.15,-6.15,9.5864,1.5682,0.6632,-0.817,0.1255,0.4104,-29.1,2.4,30.45,6.1,-1.42,-7.65,0.0229,0.048,0.0207,-12.5,26.0,0.0625,79.6875,37.0625,168.875,0,1.7200000286102295,9.923037404948145,1.3045487227390167,9.736434174789043,0.922858282728177,9.886804337094974,0.05706925617177781
1776970347.943,9.4403,0.3998,3.0311,-1.2446,-0.0266,0.3762,-80.1,-15.15,-6.15,9.5936,2.0087,0.6273,-0.781,0.1151,0.4295,-29.1,0.9,30.45,6.07,-1.55,-7.59,0.0196,0.0349,0.0207,-12.5,26.0,0.0625,79.6875,37.125,168.8125,0,1.7290000915527344,9.923037404948145,1.3004857400217813,9.821687326523891,0.8987097751777267,9.841519191669546,0.045062845005614104
1776970347.949,9.0477,0.9361,2.9784,-1.3352,-0.0917,0.4223,-79.65,-15.9,-8.85,9.5936,2.0087,0.6273,-0.781,0.1151,0.4295,-27.75,1.95,28.2,6.07,-1.55,-7.59,0.0218,0.0316,0.0164,-12.5,26.0,0.0625,79.6875,37.125,168.8125,0,1.7349998950958252,9.571208129593673,1.4033906156163365,9.821687326523891,0.8987097751777267,9.841519191669546,0.0417463770883175
1776970347.954,9.6558,1.5467,3.5123,-1.4067,-0.1029,0.3842,-80.25,-15.45,-8.7,9.6103,2.4708,0.6823,-0.7687,0.1135,0.4695,-27.75,1.95,28.2,6.01,-1.55,-7.67,0.0218,0.0316,0.0164,-12.5,26.0,0.0625,79.6875,37.125,168.8125,0,1.7400000095367432,10.390524809652302,1.4618491509044291,9.94626824593023,0.9078613275164881,9.866686373854193,0.0417463770883175
1776970347.959,9.6558,1.5467,3.5123,-1.4067,-0.1029,0.3842,-80.25,-15.45,-8.7,9.6103,2.4708,0.6823,-0.7687,0.1135,0.4695,-27.75,1.95,28.2,6.01,-1.55,-7.67,0.0262,0.0229,0.0098,-11.75,25.5625,-1.0625,79.6875,37.125,168.8125,0,1.7450001239776611,10.390524809652302,1.4618491509044291,9.94626824593023,0.9078613275164881,9.866686373854193,0.03615093359790311
1776970347.964,9.3326,2.138,3.6847,-1.5234,-0.1015,0.3467,-79.5,-15.0,-8.25,9.6462,2.8347,0.6081,-0.8047,0.1252,0.5217,-27.75,1.95,28.2,6.01,-1.47,-7.6,0.0262,0.0229,0.0098,-11.75,25.5625,-1.0625,79.6875,37.125,168.8125,0,1.75,10.258922012082945,1.5656470547348789,10.072461672302357,0.9671545998443062,9.800051020275353,0.03615093359790311
1776970347.969,9.3326,2.138,3.6847,-1.5234,-0.1015,0.3467,-79.5,-15.0,-8.25,9.6462,2.8347,0.6081,-0.8047,0.1252,0.5217,-28.8,1.95,30.75,6.01,-1.47,-7.6,0.0316,0.0284,0.0109,-11.75,25.5625,-1.0625,79.6875,37.1875,168.75,0,1.755000114440918,10.258922012082945,1.5656470547348789,10.072461672302357,0.9671545998443062,9.800051020275353,0.04386262646034777
1776970347.974,9.3781,2.4732,3.4955,-1.6278,-0.1061,0.332,-79.05,-16.2,-7.95,9.675,2.7414,0.4621,-0.8231,0.1303,0.583,-30.45,0.3,29.55,5.96,-1.43,-7.6,0.0316,0.0284,0.0109,-11.75,25.5625,-1.0625,79.6875,37.1875,168.75,0,1.7599999904632568,10.309413082227328,1.6646963837288768,10.066500651666399,1.0170352501265627,9.763529075083456,0.04386262646034777
1776970347.979,9.3781,2.4732,3.4955,-1.6278,-0.1061,0.332,-79.05,-16.2,-7.95,9.675,2.7414,0.4621,-0.8231,0.1303,0.583,-30.45,0.3,29.55,5.96,-1.43,-7.6,0.0458,0.0469,-0.0033,-11.75,25.5625,-1.0625,79.6875,37.1875,168.75,0,1.7650001049041748,10.309413082227328,1.6646963837288768,10.066500651666399,1.0170352501265627,9.763529075083456,0.06563642281538506
1776970347.984,9.7133,2.5929,3.3136,-1.7059,-0.1404,0.2875,-78.75,-16.2,-9.75,9.7947,2.4157,-0.0503,-0.8908,0.1412,0.6568,-28.2,1.5,29.85,6.02,-1.34,-7.58,0.0458,0.0469,-0.0033,-11.75,25.5625,-1.0625,79.6875,37.1875,168.75,0,1.7699999809265137,10.585427353678263,1.7356449003180345,10.088324175501103,1.115727708717499,9.772021285281772,0.06563642281538506
1776970347.993,9.5265,2.4445,2.9616,-1.7605,-0.1151,0.2705,-78.75,-16.2,-9.75,9.7803,1.9968,-0.3567,-1.0653,0.1362,0.7354,-28.05,37.2,29.85,5.97,-1.43,-7.64,0.0513,0.0425,-0.0044,-11.75,25.5625,-1.0625,79.6875,37.1875,168.6875,0,1.7790000438690186,10.271361013030358,1.7848749283913423,9.988428966559255,1.301625018966676,9.800785682790947,0.06676301371268377
1776970348.0,9.5265,2.4445,2.9616,-1.7605,-0.1151,0.2705,-78.75,-16.2,-9.75,9.7803,1.9968,-0.3567,-1.0653,0.1362,0.7354,-28.05,-1.2,29.7,5.88,-1.35,-7.68,0.0491,0.0305,-0.0076,-11.75,25.5625,-1.0625,79.6875,37.25,168.6875,0,1.7860000133514404,10.271361013030358,1.7848749283913423,9.988428966559255,1.301625018966676,9.766232641095542,0.058299399653855784
1776970348.005,9.2584,2.1332,2.466,-1.8173,-0.1268,0.2753,-79.8,-17.4,-10.5,9.7755,1.6592,-0.7374,-1.2854,0.1311,0.8316,-28.05,-1.2,29.7,5.88,-1.35,-7.68,0.0491,0.0305,-0.0076,-11.75,25.5625,-1.0625,79.6875,37.25,168.6875,0,1.7910001277923584,9.815786713249224,1.8424026758556338,9.94269096623243,1.536554239198864,9.766232641095542,0.058299399653855784
1776970348.009,9.2584,2.1332,2.466,-1.8173,-0.1268,0.2753,-79.8,-17.4,-10.5,9.7755,1.6592,-0.7374,-1.2854,0.1311,0.8316,-28.05,-1.2,29.7,5.87,-1.38,-7.6,0.0447,0.0382,-0.0142,-11.75,25.25,-0.25,79.6875,37.25,168.6875,0,1.7950000762939453,9.815786713249224,1.8424026758556338,9.94269096623243,1.536554239198864,9.701613267905499,0.06048942056260747
1776970348.014,9.414,1.8866,2.15,-1.8572,-0.1529,0.2782,-79.8,-17.4,-10.5,9.6486,1.7238,-0.5004,-1.4917,0.1162,0.9137,-28.05,-0.15,29.7,5.87,-1.38,-7.6,0.0447,0.0382,-0.0142,-11.75,25.25,-0.25,79.6875,37.25,168.6875,0,1.7999999523162842,9.83896110166109,1.8841352101163016,9.814141254332954,1.7531454645864386,9.701613267905499,0.06048942056260747
1776970348.019,9.414,1.8866,2.15,-1.8572,-0.1529,0.2782,-79.8,-17.4,-10.5,9.6486,1.7238,-0.5004,-1.4917,0.1162,0.9137,-28.05,-0.15,29.7,5.87,-1.38,-7.6,0.0447,0.0382,-0.0142,-11.75,25.25,-0.25,79.6875,37.25,168.625,0,1.8050000667572021,9.83896110166109,1.8841352101163016,9.814141254332954,1.7531454645864386,9.701613267905499,0.06048942056260747
1776970348.024,9.4427,1.7909,2.2649,-1.9529,-0.186,0.2806,-78.45,-16.8,-10.65,9.5984,2.0973,-0.8811,-1.5572,0.1143,1.0006,-27.9,-1.05,30.15,5.86,-1.39,-7.6,0.0382,0.0415,-0.0153,-11.75,25.25,-0.25,79.6875,37.25,168.625,0,1.809999942779541,9.874293803103086,1.9817040066568974,9.86429354084721,1.8544909517169395,9.696994379703435,0.05844296364832982
1776970348.029,9.4427,1.7909,2.2649,-1.9529,-0.186,0.2806,-78.45,-16.8,-10.65,9.5984,2.0973,-0.8811,-1.5572,0.1143,1.0006,-27.9,-1.05,30.15,5.86,-1.39,-7.6,0.0425,0.0382,-0.0131,-11.75,25.25,-0.25,79.625,37.3125,168.625,0,1.815000057220459,9.874293803103086,1.9817040066568974,9.86429354084721,1.8544909517169395,9.696994379703435,0.05862678568709016
1776970348.034,9.5193,1.6209,2.0423,-2.0091,-0.2851,0.2827,-81.0,-16.8,-10.65,9.4643,2.7294,-0.9242,-1.4797,0.1322,1.0821,-28.05,-1.2,28.65,5.87,-1.33,-7.7,0.0425,0.0382,-0.0131,-11.75,25.25,-0.25,79.625,37.3125,168.625,0,1.8199999332427979,9.869922927257333,2.048825055977206,9.8932676346089,1.8379143995300762,9.773218507738381,0.05862678568709016
1776970348.043,9.3039,1.8723,1.9704,-2.0342,-0.3912,0.316,-81.0,-18.45,-10.5,9.5648,3.0047,-0.6752,-1.3931,0.1567,1.1511,-26.7,-0.45,29.7,5.83,-1.44,-7.75,0.0556,0.0273,-0.0175,-11.75,25.25,-0.25,79.625,37.3125,168.625,0,1.8289999961853027,9.692808605352734,2.0954386366582054,10.04835887943897,1.8139221896211537,9.80433577556379,0.06436536335638912
1776970348.048,9.3039,1.8723,1.9704,-2.0342,-0.3912,0.316,-78.9,-17.1,-12.45,9.5648,3.0047,-0.6752,-1.3931,0.1567,1.1511,-26.7,-0.45,29.7,5.83,-1.44,-7.75,0.0513,0.0589,-0.0218,-11.75,25.25,-0.25,79.625,37.375,168.625,0,1.8340001106262207,9.692808605352734,2.0954386366582054,10.04835887943897,1.8139221896211537,9.80433577556379,0.08109340293760028
1776970348.054,9.3589,2.3032,1.8268,-2.0275,-0.4999,0.3472,-80.4,-18.0,-12.15,9.4116,3.5171,-1.0439,-1.2316,0.1948,1.2063,-26.1,-3.75,30.15,6.03,-1.33,-7.57,0.0513,0.0589,-0.0218,-11.75,25.25,-0.25,79.625,37.375,168.625,0,1.8399999141693115,9.809736881792498,2.116885471630433,10.10138278553981,1.734919390058224,9.769068532874565,0.08109340293760028
1776970348.059,9.0956,2.7892,1.9034,-2.0275,-0.4999,0.3472,-80.4,-18.0,-12.15,9.1961,3.4309,-0.893,-1.2089,0.2284,1.2351,-26.1,-3.75,30.15,6.03,-1.33,-7.57,0.0513,0.0589,-0.0218,-12.5,25.25,-1.5,79.625,37.375,168.625,0,1.8450000286102295,9.702190863923468,2.116885471630433,9.855799258304726,1.7432950926334876,9.769068532874565,0.08109340293760028
1776970348.064,9.0956,2.7892,1.9034,-1.9966,-0.5862,0.3834,-79.05,-18.15,-11.55,9.1961,3.4309,-0.893,-1.2089,0.2284,1.2351,-26.1,-3.75,30.15,5.74,-1.5,-7.68,0.0087,0.0916,-0.0175,-12.5,25.25,-1.5,79.625,37.375,168.625,0,1.8499999046325684,9.702190863923468,2.1159011224535043,9.855799258304726,1.7432950926334876,9.704638066409277,0.0936616250125952
1776970348.069,8.9208,3.0742,1.7573,-1.9966,-0.5862,0.3834,-79.05,-18.15,-11.55,8.9208,2.7198,-0.8859,-1.1191,0.2718,1.2569,-26.1,-3.75,30.15,5.74,-1.5,-7.68,0.0087,0.0916,-0.0175,-12.5,25.25,-1.5,79.5625,37.4375,168.625,0,1.8550000190734863,9.597889433099342,2.1159011224535043,9.368180372409576,1.7047162989776332,9.704638066409277,0.0936616250125952
1776970348.074,8.9208,3.0742,1.7573,-1.9428,-0.6273,0.4042,-79.05,-18.15,-11.55,8.9208,2.7198,-0.8859,-1.1191,0.2718,1.2569,-27.15,-4.05,28.05,6.08,-1.16,-7.43,-0.0087,0.1102,-0.0185,-12.5,25.25,-1.5,79.5625,37.4375,168.625,0,1.8599998950958252,9.597889433099342,2.0811907096659836,9.368180372409576,1.7047162989776332,9.670413641618438,0.11208023911466286
1776970348.079,8.8897,3.1915,1.7023,-1.8666,-0.619,0.3901,-80.1,-18.75,-12.45,8.588,2.071,-1.087,-1.0445,0.3325,1.2923,-27.15,-4.05,28.05,6.08,-1.16,-7.43,-0.0185,0.1604,0.0033,-12.5,25.25,-1.5,79.625,37.5625,168.625,0,1.8650000095367432,9.59740921447033,2.0048776945240325,8.900806367964645,1.6945724505018958,9.670413641618438,0.1614970587967471
1776970348.084,8.8897,3.1915,1.7023,-1.8666,-0.619,0.3901,-80.1,-18.75,-12.45,8.588,2.071,-1.087,-1.0445,0.3325,1.2923,-26.85,-3.3,28.8,6.12,-1.17,-7.51,-0.0185,0.1604,0.0033,-12.5,25.25,-1.5,79.625,37.625,168.625,0,1.8700001239776611,9.59740921447033,2.0048776945240325,8.900806367964645,1.6945724505018958,9.758247793533426,0.1614970587967471
1776970348.094,8.7436,3.2298,1.5012,-1.7992,-0.5862,0.3765,-80.1,-18.75,-12.45,8.8322,1.1468,-1.0391,-1.0954,0.4021,1.3158,-26.4,-5.55,29.55,6.32,-0.95,-7.33,-0.0709,0.1451,0.0622,-12.5,25.25,-1.5,79.75,37.6875,168.625,0,1.880000114440918,9.441173149561447,1.9293790011296381,8.966751691108659,1.7586685901556325,9.72490616921315,0.1730597006815856
1776970348.104,8.8298,3.1891,1.0199,-1.7261,-0.5529,0.3898,-78.9,-19.05,-15.45,8.8992,0.6201,-1.4222,-1.2151,0.4567,1.364,-28.5,-4.95,28.65,5.8,-1.78,-7.59,-0.096,0.1244,0.1178,-12.5,25.25,-1.5,79.75,37.6875,168.625,0,1.8900001049041748,9.443300421992303,1.8539319458922972,9.033434423850101,1.882960142966388,9.7168153219046,0.19638788149985223
1776970348.109,8.9423,2.8443,0.5555,-1.715,-0.4802,0.4096,-78.9,-19.05,-15.45,8.8705,0.1604,-1.245,-1.2604,0.4852,1.4056,-28.5,-4.95,28.65,5.8,-1.78,-7.59,-0.096,0.1244,0.1178,-12.5,25.25,-1.5,79.875,37.75,168.625,0,1.8949999809265137,9.400178297777122,1.8274542949141026,8.958879584523949,1.9492918098632641,9.7168153219046,0.19638788149985223
1776970348.114,8.9423,2.8443,0.5555,-1.715,-0.4802,0.4096,-78.9,-19.05,-15.45,8.8705,0.1604,-1.245,-1.2604,0.4852,1.4056,-26.4,-6.0,28.5,5.87,-1.64,-7.47,-0.1091,0.1233,0.1702,-11.5,25.25,-1.0625,79.875,37.75,168.625,0,1.9000000953674316,9.400178297777122,1.8274542949141026,8.958879584523949,1.9492918098632641,9.64092319230892,0.2367989442544033
1776970348.118,9.0525,2.7892,0.3879,-1.6742,-0.4884,0.4367,-78.45,-19.05,-16.65,9.0549,0.8571,-1.3503,-1.2636,0.5561,1.4424,-26.4,-6.0,28.5,5.87,-1.64,-7.47,-0.1091,0.1233,0.1702,-11.5,25.25,-1.0625,80.0,37.8125,168.5625,0,1.9040000438690186,9.48039341483253,1.7978284373098563,9.195060875818061,1.9966096088118979,9.64092319230892,0.2367989442544033
1776970348.124,9.0525,2.7892,0.3879,-1.6742,-0.4884,0.4367,-78.45,-19.05,-16.65,9.0549,0.8571,-1.3503,-1.2636,0.5561,1.4424,-26.4,-6.0,28.5,6.02,-1.73,-7.3,-0.0916,0.1669,0.1909,-11.5,25.25,-1.0625,80.0,37.8125,168.5625,0,1.9100000858306885,9.48039341483253,1.7978284373098563,9.195060875818061,1.9966096088118979,9.61890326388617,0.2696089390209456
1776970348.132,9.6223,2.7414,0.735,-1.6641,-0.47,0.412,-79.65,-19.95,-14.7,9.7899,2.2817,-1.8794,-1.2287,0.5875,1.4602,-27.15,-7.05,28.05,5.86,-1.61,-7.66,-0.1494,0.1854,0.2422,-11.5,25.25,-1.0625,80.1875,37.875,168.5,0,1.9179999828338623,10.032156111723939,1.777603108120595,10.226457903888324,1.9967583679554217,9.777898547233962,0.3396385726032896
1776970348.137,10.6183,2.8228,0.7135,-1.6641,-0.47,0.412,-78.9,-18.3,-17.4,10.3789,4.4269,-2.2913,-1.2105,0.6328,1.5012,-27.15,-7.05,28.05,5.86,-1.61,-7.66,-0.1494,0.1854,0.2422,-11.5,25.25,-1.0625,80.375,37.9375,168.5,0,1.9230000972747803,11.01024872471099,1.777603108120595,11.513864013006234,2.0296175822060665,9.777898547233962,0.3396385726032896
1776970348.144,10.6183,2.8228,0.7135,-1.6867,-0.6057,0.3208,-78.9,-18.3,-17.4,10.3789,4.4269,-2.2913,-1.2105,0.6328,1.5012,-26.7,-7.65,26.85,5.02,0.8,-9.24,-0.1996,0.1516,0.2825,-11.5,25.25,-1.0625,80.5625,38.0,168.4375,0,1.9300000667572021,11.01024872471099,1.8206432983975747,11.513864013006234,2.0296175822060665,10.545994500283033,0.37766250806771906
1776970348.154,11.1259,3.1603,0.3711,-1.5775,-0.8593,0.1106,-79.05,-19.35,-18.3,10.8026,6.529,-3.5243,-1.1269,0.7965,1.554,-25.65,-9.0,28.8,5.65,0.71,-8.71,-0.1745,0.1876,0.3011,-11.5,25.25,-1.0625,80.5625,38.0,168.4375,0,1.940000057220459,11.571986091851304,1.7997597339645088,13.105140146141132,2.0782761751028183,10.406281756708301,0.39535454973985057
1776970348.159,12.7252,3.3998,-0.1748,-1.218,-1.1008,-0.141,-79.65,-19.05,-18.0,11.5089,5.5258,-4.7525,-0.7853,0.9132,1.5103,-25.65,-9.0,28.8,5.65,0.71,-8.71,-0.1745,0.1876,0.3011,-11.5,25.25,-1.0625,80.75,38.1875,168.3125,0,1.9449999332427979,13.172695628458131,1.647775967782028,13.622609922478146,1.9317443982059324,10.406281756708301,0.39535454973985057
1776970348.164,12.7252,3.3998,-0.1748,-1.218,-1.1008,-0.141,-79.65,-19.05,-18.0,11.5089,5.5258,-4.7525,-0.7853,0.9132,1.5103,-25.2,-8.7,30.45,5.71,1.84,-9.46,-0.048,0.4396,0.2705,-11.5,25.5625,-1.0625,80.75,38.1875,168.3125,0,1.9500000476837158,13.172695628458131,1.647775967782028,13.622609922478146,1.9317443982059324,11.201843598265421,0.5183844229912778
1776970348.169,13.8026,3.5674,0.2705,-0.7605,-1.259,-0.296,-78.75,-18.45,-19.8,11.904,3.4692,-4.5322,-0.3179,1.1245,1.4346,-25.2,-8.7,30.45,5.71,1.84,-9.46,-0.048,0.4396,0.2705,-11.5,25.5625,-1.0625,80.9375,38.5625,168.125,0,1.9549999237060547,14.258726442778823,1.5003523752772212,13.201568144731898,1.8503074933642787,11.201843598265421,0.5183844229912778
1776970348.174,13.8026,3.5674,0.2705,-0.7605,-1.259,-0.296,-78.75,-18.45,-19.8,11.904,3.4692,-4.5322,-0.3179,1.1245,1.4346,-25.2,-8.7,30.45,5.52,1.47,-9.93,0.0447,0.6916,0.2858,-11.5,25.5625,-1.0625,80.9375,38.5625,168.125,0,1.9600000381469727,14.258726442778823,1.5003523752772212,13.201568144731898,1.8503074933642787,11.45583694018032,0.7496601163193891
1776970348.179,14.3939,3.1196,-0.7566,-0.3848,-1.4951,-0.4543,-78.75,-18.45,-19.8,10.6135,1.1875,-3.6607,-0.1111,1.5199,1.34,-25.2,-8.7,30.45,5.52,1.47,-9.93,0.1167,0.937,0.4178,-11.5,25.5625,-1.0625,81.1875,39.0,167.75,0,1.9649999141693115,14.747498260043972,1.6092804416881479,11.289697205416982,2.0292952520518055,11.45583694018032,1.0325428465686062
1776970348.184,14.2096,2.3822,-1.9465,-0.3848,-1.4951,-0.4543,-78.75,-18.45,-19.8,10.8242,-1.0822,0.1365,-0.3451,2.043,1.2076,-25.5,-10.95,30.0,7.14,-0.06,-9.19,0.1167,0.937,0.4178,-11.5,25.5625,-1.0625,81.75,39.5625,167.125,0,1.9700000286102295,14.538791946031829,1.6092804416881479,10.879020853459192,2.3981744661304356,11.637839146508256,1.0325428465686062
1776970348.194,14.0947,-0.1867,-1.9704,-0.5316,-1.4853,-0.7045,-79.5,-18.15,-20.55,11.8752,-3.1244,0.6105,-0.7855,2.3502,1.0485,-24.3,-11.55,28.05,6.87,-6.4,-7.49,0.2007,1.2435,0.9588,-11.5,25.5625,-1.0625,81.75,39.5625,167.125,0,1.9800000190734863,14.232986374615834,1.727725354331527,12.294509370039945,2.690688116449025,12.010703559742035,1.5829940555794895
1776970348.204,14.6908,-2.557,-0.7901,-1.1111,-1.2859,-1.0211,-79.5,-18.15,-20.55,13.8576,-5.0254,0.917,-1.7054,2.3411,0.7802,-25.5,-12.15,31.05,7.51,0.09,-9.38,-0.5672,1.4279,1.7802,-11.5,25.5625,-1.0625,82.9375,40.125,166.5,0,1.9900000095367432,14.932585564797545,1.982606171179743,14.769177767228614,2.999641713605143,12.016347198712262,2.3515370058750933
1776970348.209,14.6908,-2.557,-0.7901,-1.8061,-1.2452,-1.2622,-80.25,-18.15,-22.65,13.8576,-5.0254,0.917,-1.7054,2.3411,0.7802,-25.5,-12.15,31.05,7.51,0.09,-9.38,-0.5672,1.4279,1.7802,-11.5,25.5625,-1.0625,82.9375,40.125,166.5,0,1.9950001239776611,14.932585564797545,2.530942332412969,14.769177767228614,2.999641713605143,12.016347198712262,2.3515370058750933
1776970348.214,14.8225,-4.2856,0.2538,-2.5317,-1.2375,-1.3997,-80.25,-18.15,-22.65,14.5974,-6.2465,2.3176,-2.8663,2.2692,0.5231,-25.65,-14.25,30.15,8.84,5.47,-8.89,-1.0832,1.9166,2.3344,-11.875,26.375,-1.5,84.5625,40.8125,165.8125,0,2.0,15.431697510319466,3.146437863680133,16.046000086314347,3.6930445353393724,13.67839902912618,3.2087538328765577
1776970348.219,14.8225,-4.2856,0.2538,-2.5317,-1.2375,-1.3997,-80.25,-16.95,-25.35,14.5974,-6.2465,2.3176,-2.8663,2.2692,0.5231,-25.65,-14.25,30.15,8.84,5.47,-8.89,-1.0832,1.9166,2.3344,-11.875,26.375,-1.5,84.5625,40.8125,165.8125,0,2.005000114440918,15.431697510319466,3.146437863680133,16.046000086314347,3.6930445353393724,13.67839902912618,3.2087538328765577
1776970348.224,13.6158,-4.9416,1.1708,-3.2905,-1.4234,-1.4176,-80.25,-16.95,-25.35,14.7243,-7.3047,3.2753,-4.1232,1.9899,0.3765,-24.3,-12.3,30.6,7.9,4.36,-10.31,-1.4661,2.4555,2.4958,-11.875,26.375,-1.5,86.4375,41.8125,165.125,0,2.009999990463257,14.532040216019224,3.855262321814172,16.759810341110665,4.593716632531876,13.700937924098483,3.795780170136305
1776970348.232,13.3309,-3.9385,1.0008,-3.2905,-1.4234,-1.4176,-79.8,-15.0,-25.35,14.7243,-7.3047,3.2753,-4.1232,1.9899,0.3765,-24.3,-12.3,30.6,7.8,2.96,-11.0,-1.4464,2.9987,3.543,-11.875,26.375,-1.5,55.5,42.875,163.8125,0,2.0180001258850098,13.936508806010206,3.855262321814172,16.759810341110665,4.593716632531876,13.805853830893618,4.861802510386451
1776970348.237,13.3309,-3.9385,1.0008,-3.622,-1.8106,-1.343,-81.0,-14.55,-26.1,12.7611,-5.0925,7.039,-5.4414,1.7539,0.2681,-24.3,-12.3,30.6,7.8,2.96,-11.0,-1.4464,2.9987,3.543,-11.875,26.375,-1.5,55.6875,43.75,161.875,0,2.0230000019073486,13.936508806010206,4.266240190144011,15.4378350315062,5.723362366651267,13.805853830893618,4.861802510386451
1776970348.244,11.303,-3.7757,0.1245,-3.4152,-1.8042,-1.2457,-81.0,-14.55,-26.1,11.5712,-3.5075,7.367,-6.5211,1.6721,0.1561,-23.4,-13.2,29.7,8.47,1.12,-8.27,-1.0112,2.8492,4.0241,-11.875,26.375,-1.5,55.375,44.3125,159.8125,0,2.0299999713897705,11.91760125780352,4.058386030184906,14.158669241493001,6.733871904781082,11.890677020254145,5.033273973270281
1776970348.254,10.0317,-3.9887,-1.2522,-2.7832,-1.4623,-1.1847,-79.65,-12.45,-28.5,10.4363,-4.9153,6.0765,-6.7951,1.4789,0.0125,-25.2,-13.95,29.25,8.33,-0.28,-10.07,-0.8138,2.5645,4.1408,-11.875,26.375,-1.5,55.375,44.3125,159.8125,0,2.0399999618530273,10.867968412725537,3.359767494931755,13.038419537275214,6.954184745173225,13.071809362134992,4.938132777680243
1776970348.259,10.0317,-3.9887,-1.2522,-2.7832,-1.4623,-1.1847,-80.4,-13.95,-29.55,10.4363,-4.9153,6.0765,-6.7951,1.4789,0.0125,-24.75,-13.65,26.1,8.33,-0.28,-10.07,-0.8138,2.5645,4.1408,-11.875,26.375,-1.5,54.5625,44.5625,157.6875,0,2.0450000762939453,10.867968412725537,3.359767494931755,13.038419537275214,6.954184745173225,13.071809362134992,4.938132777680243
1776970348.264,8.8011,-5.5737,-1.9106,-2.3779,-1.092,-1.161,-80.4,-13.95,-29.55,8.4491,-5.2002,6.4117,-6.8713,1.3486,-0.1929,-24.75,-13.65,26.1,13.36,-1.12,-8.34,-0.4887,1.9395,3.9597,-10.0,27.875,-1.875,54.5625,44.5625,157.6875,0,2.049999952316284,10.591311781833259,2.8626549582511687,11.812674030040784,7.005047898480067,15.789224173467169,4.436182145719448
1776970348.269,8.8011,-5.5737,-1.9106,-2.3779,-1.092,-1.161,-80.4,-13.95,-29.55,8.4491,-5.2002,6.4117,-6.8713,1.3486,-0.1929,-25.35,-13.65,26.1,13.36,-1.12,-8.34,-0.4887,1.9395,3.9597,-10.0,27.875,-1.875,54.5625,44.5625,157.6875,0,2.055000066757202,10.591311781833259,2.8626549582511687,11.812674030040784,7.005047898480067,15.789224173467169,4.436182145719448
