timestamp,thigh_acc_x,thigh_acc_y,thigh_acc_z,thigh_gyro_x,thigh_gyro_y,thigh_gyro_z,thigh_mag_x,thigh_mag_y,thigh_mag_z,shank_acc_x,shank_acc_y,shank_acc_z,shank_gyro_x,shank_gyro_y,shank_gyro_z,shank_mag_x,shank_mag_y,shank_mag_z,foot_acc_x,foot_acc_y,foot_acc_z,foot_gyro_x,foot_gyro_y,foot_gyro_z,foot_mag_x,foot_mag_y,foot_mag_z,foot_euler_x,foot_euler_y,foot_euler_z,perturbation_event,time_s,thigh_acc_mag,thigh_gyro_mag,shank_acc_mag,shank_gyro_mag,foot_acc_mag,foot_gyro_mag
1776973299.955,9.6702,-1.6041,1.7669,-0.1823,0.0674,0.4338,-85.35,3.45,-10.65,9.5864,1.6927,1.154,-0.1013,0.1375,0.3147,-106.95,-0.45,7.2,-4.62,-2.12,-8.46,-0.0578,-0.0654,0.0818,12.6875,10.75,37.0625,269.9375,-28.5,164.6875,0,0.0,9.960313271177768,0.47535091248466116,9.802857453314314,0.35805590345642957,9.869670713858696,0.11962123557295334
1776973299.96,9.7516,-1.3791,1.8483,-0.1801,0.0594,0.449,-85.35,3.45,-10.65,9.5696,1.7023,1.1444,-0.0562,0.1663,0.3256,-106.5,-1.2,6.45,-4.62,-2.12,-8.46,-0.048,-0.0644,0.0753,12.6875,10.75,37.0625,269.9375,-28.5,164.75,0,0.005000114440917969,10.020570455817372,0.48740678083096056,9.786966885097753,0.3699047039441375,9.869670713858696,0.11009745682803032
1776973299.966,9.6247,-1.1396,1.719,-0.1801,0.0594,0.449,-86.1,2.7,-11.4,9.5696,1.7023,1.1444,-0.0562,0.1663,0.3256,-106.5,-1.2,6.45,-4.49,-2.11,-8.51,-0.048,-0.0644,0.0753,12.6875,10.75,37.0625,270.0,-28.5625,164.8125,0,0.01100015640258789,9.843195581212434,0.48740678083096056,9.786966885097753,0.3699047039441375,9.850497449367722,0.11009745682803032
1776973299.974,9.6247,-1.1396,1.719,-0.1929,0.0578,0.4546,-84.6,4.2,-11.4,9.5361,1.6328,1.0942,-0.0799,0.149,0.3408,-105.6,-1.8,7.35,-4.54,-2.23,-8.49,-0.0316,-0.0764,0.0742,12.6875,10.75,37.0625,270.0,-28.5625,164.8125,0,0.01900005340576172,9.843195581212434,0.49720459571488274,9.736555483845404,0.3804335027307663,9.88254015929103,0.11109077369430821
1776973299.979,9.5457,-1.1109,2.0279,-0.1228,0.0589,0.4575,-84.6,4.2,-11.4,9.5098,1.6041,1.1732,-0.0485,0.1426,0.3624,-105.6,-1.8,7.35,-4.54,-2.23,-8.49,-0.0185,-0.0873,0.0731,12.6875,10.75,37.0625,270.0,-28.625,164.8125,0,0.024000167846679688,9.821754716444511,0.47734191100300427,9.715237057838578,0.3924547999451657,9.88254015929103,0.11535662096299458
1776973299.985,9.6606,-0.9673,1.9369,-0.0432,0.0608,0.4754,-86.55,3.9,-11.1,9.5098,1.6041,1.1732,-0.0485,0.1426,0.3624,-105.6,-1.8,7.35,-4.62,-2.1,-8.45,-0.0185,-0.0873,0.0731,12.6875,10.75,37.0625,270.0,-28.625,164.8125,0,0.029999971389770508,9.900224404527405,0.48121517016818993,9.715237057838578,0.3924547999451657,9.856819974007845,0.11535662096299458
1776973299.99,9.6606,-0.9673,1.9369,-0.0432,0.0608,0.4754,-86.55,3.9,-11.1,9.5409,1.8483,1.3455,0.0008,0.1319,0.3741,-107.85,-0.75,7.05,-4.62,-2.1,-8.45,-0.0065,-0.0807,0.0665,11.875,11.5,36.75,270.375,-28.625,164.8125,0,0.03500008583068848,9.900224404527405,0.48121517016818993,9.810981395864534,0.39667248455117227,9.856819974007845,0.10477113152009002
1776973299.995,9.5313,-0.9194,1.6424,-0.0125,0.0653,0.4943,-85.5,2.4,-10.5,9.5409,1.8483,1.3455,0.0008,0.1319,0.3741,-107.85,-0.75,7.05,-4.64,-2.05,-8.43,-0.0065,-0.0807,0.0665,11.875,11.5,36.75,270.375,-28.625,164.8125,0,0.039999961853027344,9.715372036623199,0.4987512706750731,9.810981395864534,0.39667248455117227,9.838546640637528,0.10477113152009002
1776973300.0,9.5313,-0.9194,1.6424,-0.0125,0.0653,0.4943,-85.5,2.4,-10.5,9.4355,2.0255,1.3527,0.0285,0.1442,0.3832,-106.2,-0.9,9.0,-4.64,-2.05,-8.43,0.0076,-0.0796,0.0589,11.875,11.5,36.75,270.375,-28.6875,164.875,0,0.04500007629394531,9.715372036623199,0.4987512706750731,9.744799012293685,0.41042432920088934,9.838546640637528,0.09931329216172426
1776973300.005,9.4547,-0.7925,1.9465,0.0208,0.0624,0.5201,-85.5,2.4,-10.5,9.4355,2.0255,1.3527,0.0285,0.1442,0.3832,-106.2,-0.9,9.0,-4.64,-2.05,-8.51,0.0076,-0.0796,0.0589,11.875,11.5,36.75,270.375,-28.6875,164.875,0,0.05000019073486328,9.685466978416684,0.5242427014274973,9.744799012293685,0.41042432920088934,9.907179215094477,0.09931329216172426
1776973300.01,9.4547,-0.7925,1.9465,0.0208,0.0624,0.5201,-85.5,2.4,-10.5,8.9902,1.5323,0.9194,0.0509,0.194,0.3917,-106.5,-1.65,8.25,-4.64,-2.05,-8.51,0.0229,-0.0829,0.0502,11.875,11.5,36.75,270.4375,-28.75,164.875,0,0.05500006675720215,9.685466978416684,0.5242427014274973,9.166075260982751,0.44006329090257007,9.907179215094477,0.099583432356994
1776973300.016,9.5289,-1.0271,1.8483,0.0067,0.0509,0.5391,-85.2,2.85,-10.05,8.9902,1.5323,0.9194,0.0509,0.194,0.3917,-106.2,-1.2,8.7,-4.63,-2.08,-8.46,0.0229,-0.0829,0.0502,11.875,11.5,36.75,270.4375,-28.75,164.875,0,0.06100010871887207,9.76069067791824,0.541539019831443,9.166075260982751,0.44006329090257007,9.86584512345496,0.099583432356994
1776973300.025,9.2584,-1.403,2.2697,-0.0402,0.0384,0.5484,-85.2,2.85,-10.05,9.5696,1.3312,1.0511,-0.1745,0.234,0.4104,-106.2,-1.2,8.7,-4.59,-2.19,-8.43,0.0251,-0.0774,0.0436,11.875,11.5,36.75,270.4375,-28.75,164.875,0,0.07000017166137695,9.63524351793975,0.5512106312472574,9.718752430739245,0.5036212962137324,9.845257741674414,0.09231321682186143
1776973300.03,9.2584,-1.403,2.2697,-0.0402,0.0384,0.5484,-85.2,2.85,-10.05,8.9591,1.2617,1.2522,0.283,0.1423,0.4181,-106.2,-1.2,8.7,-4.59,-2.19,-8.43,0.0251,-0.0698,0.048,11.875,11.5,36.75,270.5,-28.8125,164.875,0,0.07500004768371582,9.63524351793975,0.5512106312472574,9.133748657588514,0.5245435158306697,9.845257741674414,0.08835185340444195
1776973300.036,9.2775,-1.8699,2.3583,-0.0434,0.0709,0.571,-85.8,2.25,-9.6,9.2823,0.7781,1.6592,0.234,0.1815,0.429,-106.2,-1.2,8.7,-4.71,-2.16,-8.26,0.0251,-0.0698,0.048,11.875,11.5,36.75,270.5,-28.8125,164.875,0,0.08100008964538574,9.753466622181058,0.5770193844230885,9.461473328187317,0.5212861498256021,9.750758944820655,0.08835185340444195
1776973300.041,9.2775,-1.8699,2.3583,-0.0434,0.0709,0.571,-85.8,2.25,-9.6,9.2823,0.7781,1.6592,0.234,0.1815,0.429,-106.2,-1.2,8.7,-4.71,-2.16,-8.26,0.0098,-0.0524,0.048,11.875,10.75,37.0625,270.6875,-28.875,164.875,0,0.08599996566772461,9.753466622181058,0.5770193844230885,9.461473328187317,0.5212861498256021,9.750758944820655,0.07173423171680311
1776973300.046,9.6223,-2.0279,2.3487,-0.0946,0.0426,0.5769,-86.1,3.0,-10.35,9.5289,0.3807,1.7502,-0.0597,0.1855,0.4746,-105.15,-2.7,7.95,-4.63,-2.18,-8.3,0.0098,-0.0524,0.048,11.875,10.75,37.0625,270.6875,-28.875,164.875,0,0.09100008010864258,10.110263467882525,0.586154868614089,9.695775767827968,0.5130492179118881,9.750861500400875,0.07173423171680311
1776973300.05,9.6223,-2.0279,2.3487,-0.0946,0.0426,0.5769,-86.1,3.0,-10.35,9.5289,0.3807,1.7502,-0.0597,0.1855,0.4746,-105.15,-2.7,7.95,-4.63,-2.18,-8.3,0.0098,-0.0524,0.048,11.875,10.75,37.0625,270.6875,-28.875,164.875,0,0.09500002861022949,10.110263467882525,0.586154868614089,9.695775767827968,0.5130492179118881,9.750861500400875,0.07173423171680311
1776973300.056,9.426,-2.0806,2.5857,-0.1172,0.0362,0.5633,-85.2,2.1,-10.5,9.5816,0.4908,2.241,0.0616,0.1895,0.5367,-103.65,-2.4,8.25,-4.58,-2.11,-8.37,-0.0033,-0.0393,0.0447,11.875,10.75,37.0625,270.6875,-28.875,164.875,0,0.10100007057189941,9.993208536301042,0.5765007979179214,9.852412100597498,0.5724960261870818,9.771663113308808,0.0596109889198292
1776973300.06,9.426,-2.0806,2.5857,-0.1172,0.0362,0.5633,-85.2,2.1,-10.5,9.5816,0.4908,2.241,0.0616,0.1895,0.5367,-103.65,-2.4,8.25,-4.58,-2.11,-8.37,-0.0087,-0.0404,0.0491,11.875,10.75,37.0625,270.75,-28.875,164.9375,0,0.10500001907348633,9.993208536301042,0.5765007979179214,9.852412100597498,0.5724960261870818,9.771663113308808,0.06417678708068829
1776973300.066,9.5864,-2.3391,2.5402,-0.0501,0.0096,0.5537,-86.1,2.7,-11.85,9.5217,0.5483,2.1907,0.1604,0.2451,0.5886,-104.25,-3.3,9.15,-4.61,-2.15,-8.39,-0.0087,-0.0404,0.0491,11.875,10.75,37.0625,270.75,-28.875,164.9375,0,0.11100006103515625,10.18936061831163,0.5560448363216765,9.785835185103007,0.6574588428183167,9.811559509068882,0.06417678708068829
1776973300.075,9.6582,-2.5379,2.7461,-0.0525,-0.0354,0.5284,-84.75,2.1,-10.8,9.7803,0.5794,2.1045,0.1021,0.2425,0.6582,-104.25,-3.3,7.8,-4.63,-2.14,-8.4,-0.0087,-0.0404,0.0458,11.875,10.75,37.0625,270.75,-28.9375,164.9375,0,0.12000012397766113,10.356776953280399,0.5321803923483089,10.020922746933039,0.7088426482654666,9.827334328290657,0.06168865373794439
1776973300.079,9.6582,-2.5379,2.7461,-0.0525,-0.0354,0.5284,-84.75,2.1,-10.8,9.7803,0.5794,2.1045,0.1021,0.2425,0.6582,-104.25,-3.3,7.8,-4.63,-2.14,-8.4,-0.0033,-0.0415,0.0447,11.875,10.75,37.0625,270.75,-28.9375,164.9375,0,0.12400007247924805,10.356776953280399,0.5321803923483089,10.020922746933039,0.7088426482654666,9.827334328290657,0.061083794905031887
1776973300.086,9.7468,-2.8252,2.3655,-0.064,-0.052,0.5175,-85.5,1.35,-11.25,9.7013,0.6081,2.1548,0.0965,0.2939,0.7072,-104.25,-3.3,7.8,-4.66,-2.11,-8.38,-0.0033,-0.0415,0.0447,11.875,10.75,37.0625,270.75,-28.9375,164.9375,0,0.13100004196166992,10.42005064910915,0.5240288637088609,9.956313089693394,0.7718946171596225,9.81794785074763,0.061083794905031887
1776973300.091,9.7923,-2.715,2.1548,-0.064,-0.052,0.5175,-85.5,1.35,-11.25,9.7013,0.6081,2.1548,0.0965,0.2939,0.7072,-104.25,-3.3,7.8,-4.63,-2.07,-8.42,0.0076,-0.0469,0.0415,12.6875,10.75,36.375,271.0,-29.0,164.9375,0,0.1360001564025879,10.387662264917934,0.5240288637088609,9.956313089693394,0.7718946171596225,9.829455732643593,0.0630842294079907
1776973300.096,9.7923,-2.715,2.1548,-0.0858,-0.0746,0.5164,-85.5,1.35,-11.25,9.4834,0.68,2.2122,0.3214,0.3107,0.7536,-103.35,-4.65,6.9,-4.63,-2.07,-8.42,0.0076,-0.0469,0.0415,12.6875,10.75,36.375,271.0,-29.0,164.9375,0,0.14100003242492676,10.387662264917934,0.5287681533526768,9.761716263034897,0.8762108250872047,9.829455732643593,0.0630842294079907
1776973300.101,9.8497,-2.1548,1.8364,-0.1039,-0.1023,0.5079,-85.5,1.35,-11.25,9.4834,0.68,2.2122,0.3214,0.3107,0.7536,-103.35,-4.65,6.9,-4.63,-2.07,-8.42,0.0251,-0.0524,0.0393,12.6875,10.75,36.375,271.0625,-29.0,164.9375,0,0.14600014686584473,10.248517848450087,0.5284154710074261,9.761716263034897,0.8762108250872047,9.829455732643593,0.07014456500684854
1776973300.106,9.8497,-2.1548,1.8364,-0.1039,-0.1023,0.5079,-84.6,1.05,-10.35,9.6822,0.7805,1.8411,0.3507,0.3206,0.7893,-102.75,-3.3,8.55,-4.62,-2.05,-8.43,0.0251,-0.0524,0.0393,12.6875,10.75,36.375,271.0625,-29.0,164.9375,0,0.1510000228881836,10.248517848450087,0.5284154710074261,9.886547744283643,0.92128678488297,9.829130175147748,0.07014456500684854
1776973300.11,9.9168,-1.3048,1.6281,-0.1175,-0.1279,0.5036,-84.6,1.05,-10.35,9.6822,0.7805,1.8411,0.3507,0.3206,0.7893,-102.75,-3.3,8.55,-4.62,-2.05,-8.43,0.0415,-0.06,0.0371,12.6875,10.75,36.375,271.0625,-29.0,164.9375,0,0.1549999713897705,10.133910148111637,0.5327078186022803,9.886547744283643,0.92128678488297,9.829130175147748,0.08184534195664406
1776973300.116,9.9168,-1.3048,1.6281,-0.1175,-0.1279,0.5036,-85.5,-0.9,-10.8,9.73,0.9074,1.7142,0.3832,0.3099,0.8052,-102.6,-6.9,8.7,-4.54,-1.96,-8.54,0.0415,-0.06,0.0371,12.6875,10.75,36.375,271.0625,-29.0,164.9375,0,0.16100001335144043,10.133910148111637,0.5327078186022803,9.92142915108504,0.9440483515159592,9.868373726202305,0.08184534195664406
1776973300.125,9.9216,-0.9673,1.8962,-0.1303,-0.1428,0.518,-85.5,-0.15,-10.05,9.7252,1.063,1.5802,0.4154,0.3019,0.7991,-102.75,-5.55,8.85,-4.53,-1.9,-8.6,0.0633,-0.0829,0.0338,12.6875,10.75,36.375,271.0625,-29.0625,164.9375,0,0.1700000762939453,10.14738342086274,0.5528959486196295,9.90992008444064,0.9498745075008593,9.904085015790201,0.10964369566919933
1776973300.13,9.8306,-0.7278,1.5419,-0.1103,-0.1266,0.5348,-85.5,-0.15,-10.05,9.7252,1.063,1.5802,0.4154,0.3019,0.7991,-102.75,-5.55,8.85,-4.53,-1.9,-8.6,0.0807,-0.1091,0.0327,12.6875,10.75,36.375,271.125,-29.0625,164.9375,0,0.17500019073486328,9.97736662702138,0.5605396417738893,9.90992008444064,0.9498745075008593,9.904085015790201,0.13958721288140974
1776973300.136,9.8306,-0.7278,1.5419,-0.1103,-0.1266,0.5348,-83.85,0.0,-10.65,9.979,1.2737,1.3838,0.389,0.2766,0.7909,-102.75,-5.55,8.85,-4.51,-2.11,-8.51,0.0807,-0.1091,0.0327,12.6875,10.75,36.375,271.125,-29.0625,164.9375,0,0.1809999942779541,9.97736662702138,0.5605396417738893,10.154686362955776,0.9237701932840224,9.859629810494916,0.13958721288140974
1776973300.141,10.0987,-0.7685,1.4533,-0.1535,-0.1015,0.5761,-83.85,0.0,-10.65,9.979,1.2737,1.3838,0.389,0.2766,0.7909,-102.75,-5.55,8.85,-4.51,-2.11,-8.51,0.0807,-0.1091,0.0327,13.0625,11.5,37.5,271.375,-29.125,164.9375,0,0.18600010871887207,10.231637934856764,0.6047774053319122,10.154686362955776,0.9237701932840224,9.859629810494916,0.13958721288140974
1776973300.146,10.0987,-0.7685,1.4533,-0.1535,-0.1015,0.5761,-84.75,-0.9,-11.55,10.07,1.6616,1.1612,0.3595,0.2686,0.7594,-102.75,-5.55,8.85,-4.49,-2.19,-8.55,0.0654,-0.1178,0.0185,13.0625,11.5,37.5,271.375,-29.125,164.9375,0,0.19099998474121094,10.231637934856764,0.6047774053319122,10.272010514013312,0.882085353012961,9.902459290499507,0.13600091911454126
1776973300.151,10.4962,-0.7949,0.9074,-0.1849,-0.0714,0.6214,-84.75,-0.9,-11.55,10.07,1.6616,1.1612,0.3595,0.2686,0.7594,-102.75,-5.55,8.85,-4.49,-2.19,-8.55,0.0654,-0.1178,0.0185,13.0625,11.5,37.5,271.375,-29.1875,164.9375,0,0.1960000991821289,10.56529484728183,0.6522452989481794,10.272010514013312,0.882085353012961,9.902459290499507,0.13600091911454126
1776973300.156,10.4962,-0.7949,0.9074,-0.1849,-0.0714,0.6214,-84.6,0.3,-11.4,10.4124,1.7406,0.8212,0.3246,0.2601,0.7237,-102.9,-7.95,9.0,-4.45,-1.99,-8.74,0.036,-0.1309,0.0087,13.0625,11.5,37.5,271.375,-29.1875,164.9375,0,0.20099997520446777,10.56529484728183,0.6522452989481794,10.588773845918139,0.8347208275824919,10.007507182110839,0.13603859746410205
1776973300.161,10.5105,-0.4621,0.5363,-0.2238,-0.0749,0.6896,-84.6,0.3,-11.4,10.4124,1.7406,0.8212,0.3246,0.2601,0.7237,-102.9,-7.95,9.0,-4.45,-1.99,-8.74,0.084,-0.1789,0.0371,13.0625,11.5,37.5,271.4375,-29.25,164.875,0,0.20600008964538574,10.534313662977764,0.7288652893367882,10.588773845918139,0.8347208275824919,10.007507182110839,0.20109107389439243
1776973300.166,10.5105,-0.4621,0.5363,-0.2238,-0.0749,0.6896,-84.6,0.3,-11.4,10.3813,1.8435,0.4669,0.2894,0.2403,0.6984,-103.5,-7.5,8.85,-4.0,-2.16,-9.18,0.084,-0.1789,0.0371,13.0625,11.5,37.5,271.4375,-29.375,164.8125,0,0.2109999656677246,10.534313662977764,0.7288652893367882,10.554045553720147,0.7932584761601983,10.243925029011097,0.20109107389439243
1776973300.175,10.4483,-0.3208,1.0247,-0.32,-0.064,0.744,-84.6,-1.95,-11.4,10.4291,2.0614,0.2825,0.2635,0.2284,0.6542,-102.75,-9.0,9.9,-4.22,-2.27,-8.67,0.1211,-0.2454,0.0611,13.0625,11.5,37.5,271.4375,-29.375,164.8125,0,0.2200000286102295,10.503327835500517,0.8124235348634357,10.634627544958969,0.7413342363603612,9.906068846924091,0.28039183297664005
1776973300.185,10.2208,-0.1077,0.8571,-0.2683,-0.0416,0.7978,-84.6,-1.95,-11.4,10.4196,2.2003,0.4046,0.2364,0.2419,0.6121,-103.65,-8.7,8.7,-4.31,-2.28,-8.8,0.0698,-0.3185,0.0774,13.0625,11.5,37.5,271.5,-29.5625,164.75,0,0.23000001907348633,10.257239996217308,0.8427338191861057,10.657067392580382,0.6993332395932571,10.060541734916665,0.3351194563137151
1776973300.19,10.4196,-0.1149,0.9649,-0.2942,-0.0123,0.8463,-84.6,-1.95,-11.4,10.4196,2.2003,0.4046,0.2364,0.2419,0.6121,-103.65,-8.7,8.7,-4.31,-2.28,-8.8,0.0698,-0.3185,0.0774,13.0625,11.5,37.5,271.75,-29.8125,164.6875,0,0.2350001335144043,10.464812381500206,0.8960628437782698,10.657067392580382,0.6993332395932571,10.060541734916665,0.3351194563137151
1776973300.195,10.4196,-0.1149,0.9649,-0.2942,-0.0123,0.8463,-84.6,-1.95,-10.65,10.3382,2.2027,0.34,0.2326,0.2593,0.5692,-103.65,-8.7,8.7,-4.34,-2.26,-8.93,0.0535,-0.3949,0.0949,12.6875,11.1875,36.75,271.75,-29.8125,164.6875,0,0.24000000953674316,10.464812381500206,0.8960628437782698,10.575720615163773,0.667328921896841,10.182735388882497,0.4096514005834717
1776973300.2,10.8457,-0.6129,1.1372,-0.2886,0.0045,0.9132,-84.6,-1.95,-10.65,10.3382,2.2027,0.34,0.2308,0.2582,0.55,-103.65,-8.7,8.7,-4.34,-2.26,-8.93,0.0535,-0.3949,0.0949,12.6875,11.1875,36.75,271.8125,-30.0625,164.6875,0,0.24500012397766113,10.922365986360282,0.9577287977292946,10.575720615163773,0.6499506750515766,10.182735388882497,0.4096514005834717
1776973300.205,10.8457,-0.6129,1.1372,-0.2886,0.0045,0.9132,-83.4,-1.5,-9.9,10.5441,2.2841,0.3065,0.2308,0.2582,0.55,-104.55,-9.3,8.85,-4.35,-2.35,-9.07,0.0458,-0.4385,0.1091,12.6875,11.1875,36.75,271.8125,-30.0625,164.6875,0,0.25,10.922365986360282,0.9577287977292946,10.793011621878298,0.6499506750515766,10.330048402597154,0.45418355320288734
1776973300.21,10.8864,-0.6297,0.7733,-0.2819,-0.032,0.9872,-83.4,-1.5,-9.9,10.7595,2.4828,0.2011,0.2126,0.2132,0.5348,-104.55,-9.3,8.85,-4.35,-2.35,-9.07,0.0295,-0.4789,0.1189,12.6875,11.1875,36.75,271.875,-30.3125,164.6875,0,0.25500011444091797,10.931981519376988,1.0271589214917038,11.044074307066209,0.6137296147327421,10.330048402597154,0.4943204122833691
1776973300.216,11.066,-0.5124,0.6177,-0.2835,-0.0216,1.0762,-84.15,-3.0,-9.9,10.7595,2.4828,0.2011,0.2126,0.2132,0.5348,-103.95,-10.65,8.25,-4.13,-2.35,-9.35,0.0295,-0.4789,0.1189,12.6875,11.1875,36.75,271.875,-30.6875,164.625,0,0.2610001564025879,11.095064806029752,1.1131240946094016,11.044074307066209,0.6137296147327421,10.48817906025636,0.4943204122833691
1776973300.225,11.2504,-0.3974,0.0694,-0.2835,-0.0216,1.0762,-84.45,-4.5,-10.5,10.5441,2.3008,0.3663,0.0197,0.1002,0.5175,-104.55,-9.3,8.55,-4.18,-2.14,-9.41,0.0316,-0.5912,0.1494,12.6875,11.1875,36.75,271.875,-30.6875,164.625,0,0.26999998092651367,11.257630446945752,1.1131240946094016,10.798421233680413,0.5274792697348398,10.516658214470983,0.6106032754579687
1776973300.235,11.1378,-0.1628,0.0694,-0.1609,-0.0067,1.2377,-83.25,-5.55,-10.5,10.8793,2.6049,0.2921,0.0488,0.0426,0.5065,-104.7,-10.2,9.3,-3.99,-2.43,-9.68,0.0535,-0.7352,0.1778,12.6875,11.1875,36.75,271.9375,-31.125,164.625,0,0.2799999713897705,11.139205942974572,1.248132601128582,11.190620845601018,0.5106255477353243,10.748367317876701,0.7582836738318978
1776973300.24,11.1378,-0.1628,0.0694,-0.1609,-0.0067,1.2377,-83.25,-5.55,-10.5,11.0445,2.7246,0.4693,0.2497,0.0514,0.4565,-104.7,-10.2,9.3,-3.99,-2.43,-9.68,0.0535,-0.7352,0.1778,12.6875,11.1875,36.75,272.125,-31.625,164.5625,0,0.2850000858306885,11.139205942974572,1.248132601128582,11.385282952127277,0.5228616451796785,10.748367317876701,0.7582836738318978
1776973300.245,11.4084,0.0575,0.3208,-0.1196,0.0256,1.3038,-83.25,-4.8,-10.5,11.0445,2.7246,0.4693,0.2497,0.0514,0.4565,-104.7,-10.2,9.3,-4.09,-2.43,-9.58,0.048,-0.9119,0.2138,13.0625,10.5,36.375,272.125,-31.625,164.5625,0,0.28999996185302734,11.413054343601454,1.309524325852712,11.385282952127277,0.5228616451796785,10.696232981755772,0.9378571586334457
1776973300.25,11.4084,0.0575,0.3208,-0.1196,0.0256,1.3038,-83.25,-4.8,-10.5,11.4299,2.8252,0.0527,0.2414,-0.0506,0.4165,-104.7,-10.2,9.3,-4.09,-2.43,-9.58,0.048,-0.9119,0.2138,13.0625,10.5,36.375,272.25,-32.25,164.5625,0,0.2950000762939453,11.413054343601454,1.309524325852712,11.774002987089819,0.4840522389164211,10.696232981755772,0.9378571586334457
1776973300.255,11.3964,0.3711,-0.431,0.0258,0.0517,1.3651,-83.25,-4.8,-10.5,11.4299,2.8252,0.0527,0.2414,-0.0506,0.4165,-104.7,-10.2,9.3,-4.06,-2.79,-9.72,-0.0087,-1.1072,0.2651,13.0625,10.5,36.375,272.25,-32.25,164.5625,0,0.3000001907348633,11.410583209021352,1.366322267988047,11.774002987089819,0.4840522389164211,10.897068413110015,1.1385277950054622
1776973300.26,11.3964,0.3711,-0.431,0.0258,0.0517,1.3651,-83.25,-4.8,-10.5,10.7835,2.7198,-0.0599,0.1687,-0.1684,0.3805,-104.7,-10.2,9.3,-4.06,-2.79,-9.72,-0.0796,-1.3832,0.3512,13.0625,10.5,36.375,272.3125,-33.0625,164.5625,0,0.30500006675720215,11.410583209021352,1.366322267988047,11.121365577122264,0.4489972160270039,10.897068413110015,1.4293074686714542
1776973300.266,11.4874,0.6105,-0.6033,0.0925,0.0874,1.4634,-84.45,-6.45,-10.05,10.7835,2.7198,-0.0599,0.1687,-0.1684,0.3805,-103.8,-11.55,9.6,-3.94,-2.92,-9.77,-0.0796,-1.3832,0.3512,13.0625,10.5,36.375,272.4375,-34.0,164.625,0,0.31100010871887207,11.519420119953955,1.4689229285432235,11.121365577122264,0.4489972160270039,10.93173819664558,1.4293074686714542
1776973300.275,11.473,1.0726,-0.7877,0.186,0.1194,1.5799,-82.65,-7.35,-8.85,11.3006,3.2633,-0.3496,-0.0253,-0.1292,0.3067,-103.35,-11.7,10.05,-4.37,-2.52,-9.31,-0.1047,-1.6428,0.4352,13.0625,10.5,36.375,272.4375,-34.0,164.625,0,0.32000017166137695,11.54992082440395,1.5952856703424627,11.767536165655068,0.3337628199784991,10.588833741257817,1.702689921858939
1776973300.285,11.813,1.9082,-1.1301,0.255,0.146,1.7285,-83.1,-7.35,-9.9,10.6662,4.0294,-0.5315,0.4626,-0.284,0.2377,-103.35,-11.7,10.5,-4.25,-2.38,-9.44,-0.0633,-1.8664,0.5138,13.0625,10.5,36.375,272.5625,-35.0625,164.6875,0,0.3300001621246338,12.019372789376325,1.7532978212500008,11.41430589435906,0.5925842134245562,10.622640914574868,1.9368650675769854
1776973300.29,11.813,1.9082,-1.1301,0.255,0.146,1.7285,-83.1,-7.35,-9.9,10.6734,4.6017,-1.1516,0.6142,-0.4421,0.1444,-103.35,-11.7,10.5,-4.25,-2.38,-9.44,-0.0633,-1.8664,0.5138,13.0625,10.5,36.375,272.5625,-35.0625,164.6875,0,0.33500003814697266,12.019372789376325,1.7532978212500008,11.68003822810525,0.7704189834109748,10.622640914574868,1.9368650675769854
1776973300.295,12.3996,2.3679,-1.4653,0.2902,0.1911,1.878,-83.25,-8.4,-10.05,10.6734,4.6017,-1.1516,0.6142,-0.4421,0.1444,-103.95,-12.9,10.05,-4.51,-2.8,-9.83,-0.0491,-2.0922,0.6141,15.25,11.1875,36.0,273.0,-36.25,164.75,0,0.3400001525878906,12.708427702119565,1.909874145068203,11.68003822810525,0.7704189834109748,11.17179484236978,2.1810159238299933
1776973300.3,12.3996,2.3679,-1.4653,0.2902,0.1911,1.878,-83.25,-8.4,-10.05,10.5153,5.0518,-1.9345,0.5444,-0.5915,0.0187,-103.95,-12.9,10.05,-4.51,-2.8,-9.83,-0.0491,-2.0922,0.6141,15.25,11.1875,36.0,273.0,-36.25,164.75,0,0.3450000286102295,12.708427702119565,1.909874145068203,11.825164167147955,0.8041102536344129,11.17179484236978,2.1810159238299933
1776973300.305,13.0292,2.3559,-1.9106,0.3701,0.259,2.0448,-83.85,-9.3,-8.4,10.5153,5.0518,-1.9345,0.5444,-0.5915,0.0187,-103.95,-12.9,10.05,-3.67,-3.5,-10.1,-0.0251,-2.3257,0.7527,15.25,11.1875,36.0,273.25,-37.625,164.8125,0,0.35000014305114746,13.377619736335758,2.0941017286655392,11.825164167147955,0.8041102536344129,11.301721107866712,2.444599719790543
1776973300.31,13.0292,2.3559,-1.9106,0.3701,0.259,2.0448,-83.85,-9.3,-8.4,10.4675,5.6216,-2.4828,0.8612,-0.7075,-0.1268,-103.95,-12.9,10.05,-3.67,-3.5,-10.1,-0.0567,-2.6529,0.9152,15.25,11.1875,36.0,273.5625,-39.1875,164.875,0,0.35500001907348633,13.377619736335758,2.0941017286655392,12.138172788768497,1.1217396890544615,11.301721107866712,2.8068994175067976
1776973300.316,13.8648,2.7509,-2.3918,0.4104,0.3325,2.2188,-83.4,-11.7,-8.85,10.4387,6.359,-3.0694,1.1668,-0.8711,-0.2787,-103.5,-11.55,8.55,-3.86,-3.72,-9.85,-0.0567,-2.6529,0.9152,15.25,11.1875,36.0,274.0,-40.9375,165.125,0,0.36100006103515625,14.335997945382108,2.2808020190275173,12.602561447975566,1.4825353756318937,11.214298908090509,2.8068994175067976
1776973300.325,14.8033,2.8036,-2.3391,0.3315,0.4026,2.3547,-83.4,-11.7,-8.85,10.4387,6.359,-3.0694,1.1668,-0.8711,-0.2787,-103.8,-13.5,7.8,-3.61,-4.72,-9.78,-0.1102,-2.9921,1.1574,15.25,11.1875,36.0,274.0,-40.9375,165.125,0,0.37000012397766113,15.246942403642771,2.411760995621249,12.602561447975566,1.4825353756318937,11.443727539573807,3.2100438018818376
1776973300.335,15.4689,3.0526,-2.047,0.2697,0.4317,2.4816,-81.6,-11.7,-8.85,10.5129,6.6679,-3.7182,1.5585,-1.1495,-0.6177,-106.05,-12.75,5.7,-3.99,-5.95,-10.4,-0.2509,-3.4296,1.4813,15.25,11.1875,36.0,274.5625,-43.0,165.5625,0,0.38000011444091797,15.899542225171139,2.5332669697447994,12.992573573391839,2.032689299917722,12.628642048929885,3.744243135801948
1776973300.34,16.1417,3.0023,-1.4341,0.2697,0.4317,2.4816,-81.6,-13.2,-8.85,10.4914,6.924,-2.8323,1.5585,-1.1495,-0.6177,-103.65,-12.9,6.45,-3.99,-5.95,-10.4,-0.2509,-3.4296,1.4813,15.25,11.1875,36.0,301.625,-45.3125,166.25,0,0.38499999046325684,16.481047508881222,2.5332669697447994,12.88538603418617,2.032689299917722,12.628642048929885,3.744243135801948
1776973300.346,16.1417,3.0023,-1.4341,0.1303,0.4644,2.5738,-81.6,-13.2,-8.85,10.0389,6.3805,-2.4636,1.7544,-1.2095,-0.8146,-103.65,-12.9,6.45,-4.49,-6.44,-10.73,-0.4342,-3.8583,1.8588,19.25,10.5,34.375,301.625,-45.3125,166.25,0,0.39100003242492676,16.481047508881222,2.6186049511142375,12.147412005032182,2.2813116336879538,13.295360092904593,4.304665604898945
1776973300.351,16.2614,3.0191,0.1508,0.0746,0.4783,2.6606,-81.6,-13.2,-8.85,10.0389,6.3805,-2.4636,1.7544,-1.2095,-0.8146,-102.9,-12.9,5.85,-4.49,-6.44,-10.73,-0.4342,-3.8583,1.8588,19.25,10.5,34.375,298.4375,-47.9375,167.375,0,0.3960001468658447,16.5399768866223,2.7042796471518993,12.147412005032182,2.2813116336879538,13.295360092904593,4.304665604898945
1776973300.356,16.2614,3.0191,0.1508,0.0746,0.4783,2.6606,-79.5,-15.0,-8.25,9.8354,5.9711,-2.1883,1.9851,-1.3595,-0.9739,-102.9,-12.9,5.85,-5.24,-6.31,-10.91,-0.6796,-4.3241,2.3093,19.25,10.5,34.375,298.4375,-47.9375,167.375,0,0.4010000228881836,16.5399768866223,2.7042796471518993,11.712292058346224,2.5956393181642166,13.649241737180862,4.948996207313155
1776973300.361,14.7866,3.5913,0.2346,-0.008,0.465,2.7328,-79.5,-15.0,-8.25,9.8354,5.9711,-2.1883,1.9851,-1.3595,-0.9739,-102.9,-12.9,5.85,-5.24,-6.31,-10.91,-0.9338,-4.7942,2.7707,19.25,10.5,34.375,294.8125,-50.875,169.0,0,0.40600013732910156,15.218278891188715,2.7720903376333177,11.712292058346224,2.5956393181642166,13.649241737180862,5.615435385613479
1776973300.366,14.7866,3.5913,0.2346,-0.008,0.465,2.7328,-81.3,-16.95,-6.75,10.3262,5.0877,-1.3168,2.0736,-1.3931,-1.1522,-102.9,-12.9,5.85,-6.47,-6.3,-11.5,-0.9338,-4.7942,2.7707,19.25,10.5,34.375,290.9375,-54.0,171.3125,0,0.41100001335144043,15.218278891188715,2.7720903376333177,11.586589660896774,2.7510197036735304,14.621932156866274,5.615435385613479
1776973300.376,13.3357,3.79,2.6983,-0.1943,0.4269,2.7614,-78.75,-16.95,-7.95,11.133,3.7876,-0.3232,2.2071,-1.5135,-1.3182,-102.3,-12.0,4.95,-11.53,-6.04,-13.31,-1.2457,-5.2098,3.1678,19.25,10.5,34.375,290.9375,-54.0,171.3125,0,0.42100000381469727,14.123944823596558,2.8009509206696217,11.764100518101671,2.9832237428660964,18.616621605436364,6.223242030485397
1776973300.386,12.6653,2.6695,4.4796,-0.2188,0.3635,2.7701,-78.75,-16.95,-7.95,11.7747,2.8946,0.6345,1.9891,-1.804,-1.4605,-101.85,-13.2,3.6,-12.66,-4.4,-13.71,-1.6624,-5.4694,3.3216,19.25,10.5,34.375,286.875,-57.25,174.375,0,0.4309999942779541,13.696819722110677,2.802402487152764,12.14186392198496,3.056794899891061,19.17288971438578,6.611424708790081
1776973300.39,12.2463,1.5395,5.5737,-0.032,0.3368,2.642,-78.75,-18.9,-7.95,11.7747,2.8946,0.6345,1.9891,-1.804,-1.4605,-101.25,-11.25,2.1,-12.66,-4.4,-13.71,-1.6624,-5.4694,3.3216,19.25,10.5,34.375,283.0,-60.4375,178.125,0,0.4350001811981201,13.542823030299111,2.6635732090558353,12.14186392198496,3.056794899891061,19.17288971438578,6.611424708790081
1776973300.396,12.2463,1.5395,5.5737,-0.032,0.3368,2.642,-78.75,-18.9,-7.95,12.3613,2.2098,1.6688,1.6577,-1.9521,-1.5671,-101.25,-11.25,2.1,-12.65,-6.62,-13.52,-1.8817,-5.5076,3.3183,26.5625,9.0,31.375,283.0,-60.4375,178.125,0,0.44099998474121094,13.542823030299111,2.6635732090558353,12.667669366146246,3.0024100502762776,19.663094873391625,6.699669211237223
1776973300.4,11.4563,0.1508,5.9089,0.5804,0.3027,2.5253,-78.75,-18.9,-7.95,12.3613,2.2098,1.6688,1.6577,-1.9521,-1.5671,-99.6,-10.65,0.45,-12.65,-6.62,-13.52,-1.8817,-5.5076,3.3183,26.5625,9.0,31.375,279.125,-63.375,-177.125,0,0.44500017166137695,12.891262526998664,2.6087605371133624,12.667669366146246,3.0024100502762776,19.663094873391625,6.699669211237223
1776973300.405,11.4563,0.1508,5.9089,0.5804,0.3027,2.5253,-78.75,-18.9,-7.95,13.7379,1.1205,2.3343,1.3296,-1.9713,-1.8093,-99.6,-10.65,0.45,-16.13,-11.03,-13.2,-2.1697,-5.4192,3.3216,26.5625,9.0,31.375,279.125,-63.375,-177.125,0,0.4500000476837158,12.891262526998664,2.6087605371133624,13.979784445763102,2.9878799072251883,23.581301914864664,6.716275254186654
1776973300.412,11.382,-0.8116,5.6024,1.7403,0.485,2.3766,-77.4,-21.0,-7.35,13.7379,1.1205,2.3343,1.3296,-1.9713,-1.8093,-99.6,-10.65,0.45,-14.05,-8.3,-14.11,-2.5656,-5.1084,3.0914,26.5625,9.0,31.375,275.375,-66.0625,-171.4375,0,0.4570000171661377,12.712022038999146,2.985313492750803,13.979784445763102,2.9878799072251883,21.57277450862545,6.498831270313148
1776973300.417,10.987,-2.1332,5.8347,1.7403,0.485,2.3766,-77.4,-21.0,-7.35,15.3636,-0.5315,3.1819,0.6001,-1.8058,-1.966,-99.6,-10.65,0.45,-14.05,-8.3,-14.11,-2.5656,-5.1084,3.0914,26.5625,9.0,31.375,271.875,-68.125,-165.0,0,0.46200013160705566,12.62174454384179,2.985313492750803,15.698636400018952,2.7360902123285338,21.57277450862545,6.498831270313148
1776973300.426,10.987,-2.1332,5.8347,2.5945,0.3914,2.1389,-77.4,-21.0,-7.35,15.0069,-1.0511,3.6823,-0.1721,-1.5468,-1.9987,-99.15,-9.75,-1.05,-11.51,-11.01,-12.73,-2.7173,-4.4866,2.9278,26.5625,9.0,31.375,268.1875,-69.6875,-157.375,0,0.47100019454956055,12.62174454384179,3.3851908986052766,15.487775570106896,2.5331818608224714,20.39002452180968,6.007105100628754
1776973300.436,8.7867,-3.644,7.4101,3.4379,0.0981,1.8583,-76.5,-23.55,-4.95,13.1777,-0.6847,3.699,-0.8985,-1.2769,-1.9241,-99.3,-7.95,-0.45,1.64,-11.37,-8.22,-3.0391,-3.9455,3.002,26.5625,9.0,31.375,268.1875,-69.6875,-157.375,0,0.4810001850128174,12.057960644321243,3.909227405767027,13.704130486097977,2.4778895596858224,14.125682284406654,5.815075499079956
1776973300.44,7.6351,-5.6575,7.1299,3.7974,0.174,1.7014,-76.5,-23.25,-4.95,13.1777,-0.6847,3.699,-0.8985,-1.2769,-1.9241,-97.5,-9.15,-1.95,1.64,-11.37,-8.22,-3.0391,-3.9455,3.002,26.5625,9.0,31.375,268.1875,-69.6875,-157.375,0,0.4850001335144043,11.880131828814022,4.164767066715736,13.704130486097977,2.4778895596858224,14.125682284406654,5.815075499079956
1776973300.446,8.0613,-6.5721,7.4795,3.7974,0.174,1.7014,-76.5,-23.25,-4.95,12.1721,-0.4214,3.7373,-1.3387,-0.8639,-1.9215,-97.5,-9.15,-1.95,-6.71,-6.2,-1.9,-3.8365,-3.9248,3.1176,36.1875,0.5,25.0625,264.0625,-70.8125,-148.1875,0,0.4910001754760742,12.810931907944871,4.164767066715736,12.739898259405372,2.4961176154179916,9.331350384590646,6.312069157574242
1776973300.45,8.0613,-6.5721,7.4795,3.7625,-0.0253,1.7821,-75.45,-23.4,-3.3,12.1721,-0.4214,3.7373,-1.3387,-0.8639,-1.9215,-96.75,-6.9,-1.95,-6.71,-6.2,-1.9,-3.8365,-3.9248,3.1176,36.1875,0.5,25.0625,264.0625,-70.8125,-148.1875,0,0.49500012397766113,12.810931907944871,4.163283169567019,12.739898259405372,2.4961176154179916,9.331350384590646,6.312069157574242
1776973300.455,6.1363,-7.0677,9.2871,3.7625,-0.0253,1.7821,-75.45,-23.4,-3.3,11.0445,-0.2634,3.5578,-1.2279,-0.7826,-1.9084,-96.75,-6.9,-1.95,-29.86,-7.69,-6.88,-4.528,-3.8212,1.741,36.1875,0.5,25.0625,260.4375,-72.0,-139.625,0,0.5,13.185476380851775,4.163283169567019,11.60639050911178,2.400456566988872,31.59256399851079,6.175389416061144
1776973300.46,6.1363,-7.0677,9.2871,4.1523,0.1569,1.809,-74.7,-25.05,-1.8,11.0445,-0.2634,3.5578,-1.2279,-0.7826,-1.9084,-97.35,-6.0,-1.35,-29.86,-7.69,-6.88,-3.5856,-1.2937,-0.336,36.1875,0.5,25.0625,258.375,-72.625,-136.5625,0,0.505000114440918,13.185476380851775,4.531963581054023,11.60639050911178,2.400456566988872,31.59256399851079,3.8266281567458313
1776973300.466,6.5649,-5.5474,7.7931,4.1131,0.231,1.5916,-74.7,-25.05,-1.8,10.7571,0.498,3.7781,-0.9971,-0.7202,-1.8751,-97.35,-6.0,-1.35,-19.41,-9.96,-12.99,-3.5856,-1.2937,-0.336,36.1875,0.5,25.0625,257.125,-72.9375,-138.6875,0,0.5110001564025879,11.601894947809171,4.416349529871928,11.412153347199641,2.2425201136221724,25.39074240742086,3.8266281567458313
1776973300.476,8.1475,-4.3144,6.3231,3.2085,0.0799,1.3195,-74.55,-25.5,-0.9,10.5872,1.4461,3.0335,-0.6065,-0.7155,-1.8082,-97.35,-6.0,-1.35,-10.38,-12.58,-8.12,-3.2343,1.0374,-1.994,36.1875,0.5,25.0625,255.875,-73.0,-142.6875,0,0.5210001468658447,11.179329014748605,3.4701493498119067,11.107750955976641,2.037000181639658,18.21908889050163,3.9386458650150313
1776973300.486,8.2073,-3.3902,5.8897,2.3137,-0.1801,1.1005,-74.1,-25.95,-0.9,9.9192,3.1268,3.2082,-0.1466,-0.6214,-1.7861,-96.45,-1.95,-1.5,-6.02,-9.74,-4.97,-3.5692,2.054,-2.6005,36.1875,0.5,25.0625,255.875,-73.0,-142.6875,0,0.5310001373291016,10.655599252036462,2.568412729683452,10.883931004926483,1.8967822041552371,12.482343529962632,4.870390630124035
1776973300.491,8.2073,-3.3902,5.8897,2.3137,-0.1801,1.1005,-74.1,-25.95,-0.9,10.8984,5.2912,3.0622,0.6987,-0.6387,-1.8426,-96.9,-0.75,-0.6,-6.02,-9.74,-4.97,-3.5692,2.054,-2.6005,40.1875,-7.75,18.875,254.125,-72.75,-146.625,0,0.5360000133514404,10.655599252036462,2.568412729683452,12.495958900380556,2.0715439025036373,12.482343529962632,4.870390630124035
1776973300.496,7.3837,-4.1539,5.2648,1.8095,-0.2473,0.9116,-74.1,-25.95,-0.9,10.8984,5.2912,3.0622,0.6987,-0.6387,-1.8426,-96.9,-0.75,-0.6,-3.93,-4.3,-3.61,-3.987,2.3409,-2.4904,40.1875,-7.75,18.875,254.125,-72.75,-146.625,0,0.5410001277923584,9.974569160620423,2.041191343309098,12.495958900380556,2.0715439025036373,6.853247405427591,5.251483025774719
1776973300.501,7.3837,-4.1539,5.2648,1.8095,-0.2473,0.9116,-74.55,-25.95,1.2,11.3557,6.5793,3.0861,1.3406,-0.7999,-1.91,-99.3,1.2,0.45,-3.93,-4.3,-3.61,-3.987,2.3409,-2.4904,40.1875,-7.75,18.875,252.4375,-72.3125,-150.0,0,0.5460000038146973,9.974569160620423,2.041191343309098,13.481955503190182,2.4668093501525408,6.853247405427591,5.251483025774719
1776973300.506,7.1299,-4.5921,6.2944,1.8114,-0.409,0.7101,-74.55,-25.95,1.2,11.3557,6.5793,3.0861,1.3406,-0.7999,-1.91,-99.3,1.2,0.45,-3.67,2.37,-3.67,-3.8354,2.3104,-2.2602,40.1875,-7.75,18.875,252.4375,-72.3125,-150.0,0,0.5510001182556152,10.561360129263655,1.9881380661312231,13.481955503190182,2.4668093501525408,5.705672615914796,5.01565004361349
1776973300.512,7.1299,-4.5921,6.2944,1.8114,-0.409,0.7101,-74.55,-25.95,1.2,11.3437,6.6607,2.4493,1.9803,-0.9686,-1.9606,-98.85,2.4,-0.15,-3.69,3.4,-3.79,-3.0783,2.2438,-2.0486,40.1875,-7.75,18.875,251.0625,-71.75,-153.1875,0,0.5570001602172852,10.561360129263655,1.9881380661312231,13.380714654681192,2.950207858778767,6.288099871980406,4.32519725446135
1776973300.517,6.8043,-5.703,6.4715,1.7166,-0.6137,0.4818,-73.35,-26.7,2.4,11.3437,6.6607,2.4493,1.9803,-0.9686,-1.9606,-98.85,2.4,-0.15,-3.69,3.4,-3.79,-3.0783,2.2438,-2.0486,40.1875,-7.75,18.875,250.25,-71.0,-156.25,0,0.562000036239624,10.98649260410255,1.8855965872900808,13.380714654681192,2.950207858778767,6.288099871980406,4.32519725446135
1776973300.526,6.517,-6.5314,6.6224,1.5071,-0.8058,0.2635,-73.35,-26.7,2.4,10.5967,5.1451,0.5267,2.2737,-0.9406,-1.9668,-98.85,2.4,-0.15,-3.36,2.64,-3.75,-2.1053,2.2569,-1.7573,40.1875,-7.75,18.875,249.75,-70.125,-158.875,0,0.5710000991821289,11.357229271261543,1.7291894922188258,11.79150193105187,3.1500384584953878,5.6852176739329865,3.5516177989755597
1776973300.536,6.1746,-6.4548,6.4691,1.0379,-0.9848,0.129,-71.85,-26.7,3.45,11.3988,5.1547,1.3599,2.9338,-0.7645,-2.0328,-105.45,4.95,2.55,-3.49,0.92,-3.92,-1.3341,2.2929,-1.345,40.1875,-7.75,18.875,249.75,-70.125,-158.875,0,0.5810000896453857,11.029024572009982,1.4365613283114647,12.583834929781938,3.6501943140057627,5.328498850520661,2.974262634670987
1776973300.541,6.1746,-6.4548,6.4691,1.0379,-0.9848,0.129,-73.8,-25.95,3.0,11.0038,3.9385,0.0958,3.4408,-0.8402,-2.0915,-106.35,6.75,4.95,-3.49,0.92,-3.92,-1.3341,2.2929,-1.345,40.1875,-7.75,18.875,249.75,-70.125,-158.875,0,0.5859999656677246,11.029024572009982,1.4365613283114647,11.687795956894524,4.113321398821152,5.328498850520661,2.974262634670987
1776973300.546,5.8299,-6.3518,6.4787,0.6765,-1.0645,0.0448,-73.8,-25.95,3.0,11.0038,3.9385,0.0958,3.4408,-0.8402,-2.0915,-106.35,6.75,4.95,-5.34,-1.47,-4.65,-0.9828,2.3791,-0.8585,40.0,-8.0625,22.0625,249.25,-69.0625,-160.75,0,0.5910000801086426,10.784556130875298,1.2620695464196892,11.687795956894524,4.113321398821152,7.23180475400159,2.713491275091925
1776973300.551,5.8299,-6.3518,6.4787,0.6765,-1.0645,0.0448,-73.2,-28.95,2.1,11.5568,0.838,-1.0702,3.516,-0.7837,-2.0451,-109.8,8.4,7.2,-5.34,-1.47,-4.65,-0.9828,2.3791,-0.8585,40.0,-8.0625,22.0625,249.25,-69.0625,-160.75,0,0.5960001945495605,10.784556130875298,1.2620695464196892,11.63645986887765,4.142327328929958,7.23180475400159,2.713491275091925
1776973300.556,5.6312,-6.6631,6.6702,0.3579,-1.1559,-0.0083,-73.2,-28.95,2.1,11.5568,0.838,-1.0702,3.516,-0.7837,-2.0451,-109.8,8.4,7.2,-6.15,-1.81,-4.98,-0.9425,2.5733,-0.4734,40.0,-8.0625,22.0625,248.5,-67.8125,-162.0,0,0.6010000705718994,10.98175227775604,1.2100686385490702,11.63645986887765,4.142327328929958,8.117819904383197,2.7810585574561353
1776973300.561,5.6312,-6.6631,6.6702,0.3579,-1.1559,-0.0083,-73.2,-28.95,2.1,9.6199,2.7222,2.2889,3.2988,-0.9012,-1.954,-113.85,12.45,10.05,-6.15,-1.81,-4.98,-1.0057,2.8863,-0.2825,40.0,-8.0625,22.0625,247.5625,-66.3125,-162.9375,0,0.6060001850128174,10.98175227775604,1.2100686385490702,10.256310840648307,3.9385732035852783,8.117819904383197,3.069522182685768
1776973300.567,5.533,-7.0078,6.7038,0.1053,-1.2737,-0.0448,-73.2,-28.95,2.1,9.6199,2.7222,2.2889,3.2988,-0.9012,-1.954,-114.75,15.75,10.95,-6.39,-1.96,-5.15,-1.0057,2.8863,-0.2825,40.0,-8.0625,22.0625,246.4375,-64.625,-163.8125,0,0.6119999885559082,11.165316129872902,1.2788302545686039,10.256310840648307,3.9385732035852783,8.437784069292126,3.069522182685768
1776973300.576,5.4899,-7.0533,6.2513,-0.2747,-1.3872,-0.0967,-73.35,-26.7,0.45,9.3087,3.4931,2.5331,3.6393,-0.7482,-1.7808,-114.75,15.75,10.95,-5.55,-2.31,-4.31,-1.0581,3.2354,-0.2803,40.0,-8.0625,22.0625,245.375,-62.8125,-164.6875,0,0.6210000514984131,10.907190040977557,1.417439529574366,10.260128601045896,4.120140333775052,7.396938555916224,3.41554634868274
1776973300.586,5.4588,-6.5793,5.7533,-0.6526,-1.5298,-0.129,-73.35,-26.7,0.45,9.2727,3.2226,1.9058,3.2743,-0.5766,-1.7075,-114.75,15.75,10.95,-5.22,-2.3,-3.73,-1.0843,3.4841,-0.4145,40.0,-8.0625,22.0625,245.375,-62.8125,-164.6875,0,0.6310000419616699,10.304666264367809,1.668177388649061,10.000009484495504,3.737521143752902,6.815519055801986,3.6723928915626662
1776973300.591,5.3582,-5.7317,5.2218,-0.9358,-1.6811,-0.199,-74.1,-27.15,0.9,9.4068,2.8467,1.549,3.2373,-0.5777,-1.663,-118.35,19.8,13.8,-5.22,-2.3,-3.73,-1.0843,3.4841,-0.4145,40.0,-8.0625,22.0625,245.375,-62.8125,-164.6875,0,0.6360001564025879,9.424960868353777,1.9342750192255496,9.949421497252994,3.685026130165158,6.815519055801986,3.6723928915626662
1776973300.596,5.3582,-5.7317,5.2218,-0.9358,-1.6811,-0.199,-74.1,-27.15,0.9,9.4068,2.8467,1.549,3.2373,-0.5777,-1.663,-118.35,19.8,13.8,-4.96,-2.27,-2.98,-1.1017,3.5921,-0.6087,36.0625,-8.1875,27.25,244.25,-61.0,-165.6875,0,0.6410000324249268,9.424960868353777,1.9342750192255496,9.949421497252994,3.685026130165158,6.215697869105287,3.806237116891169
1776973300.6,5.0494,-4.7645,5.1092,-1.0632,-1.8463,-0.3309,-73.65,-27.75,-1.35,9.7755,2.5379,1.0822,3.0281,-0.5899,-1.6182,-118.65,21.0,14.25,-4.96,-2.27,-2.98,-1.1017,3.5921,-0.6087,36.0625,-8.1875,27.25,244.25,-61.0,-165.6875,0,0.6449999809265137,8.61979264541787,2.1560873683596404,10.157386154912098,3.483668018052237,6.215697869105287,3.806237116891169
1776973300.606,5.0494,-4.7645,5.1092,-1.0632,-1.8463,-0.3309,-73.65,-27.75,-1.35,9.7755,2.5379,1.0822,3.0281,-0.5899,-1.6182,-121.5,21.45,14.7,-4.54,-1.86,-2.32,-1.105,3.5965,-0.8312,36.0625,-8.1875,27.25,243.25,-59.1875,-166.6875,0,0.6510000228881836,8.61979264541787,2.1560873683596404,10.157386154912098,3.483668018052237,5.427117098423435,3.8531455578527005
1776973300.61,4.5011,-3.699,5.047,-0.9761,-1.9462,-0.4724,-74.4,-28.05,-0.6,9.2632,3.0047,1.1947,2.8495,-0.6752,-1.5319,-121.5,21.45,14.7,-4.54,-1.86,-2.32,-1.0221,3.4765,-1.0625,36.0625,-8.1875,27.25,242.375,-57.4375,-167.6875,0,0.6549999713897705,7.708093876568967,2.227919973876979,9.811340602588414,3.304884702981331,5.427117098423435,3.7761947658986026
1776973300.617,4.5011,-3.699,5.047,-0.9761,-1.9462,-0.4724,-74.4,-28.05,-0.6,9.0166,1.3743,0.4118,2.7208,-0.6688,-1.5055,-119.4,21.3,13.8,-4.94,-1.56,-2.47,-1.0221,3.4765,-1.0625,36.0625,-8.1875,27.25,241.8125,-55.75,-168.875,0,0.6620001792907715,7.708093876568967,2.227919973876979,9.130024933700893,3.1806565878761575,5.739172414207471,3.7761947658986026
1776973300.626,4.3862,-2.8252,4.9153,-0.6344,-2.0107,-0.6265,-73.05,-26.7,-2.7,8.6981,0.2083,0.0575,2.4075,-0.7101,-1.4813,-119.4,21.3,13.8,-5.32,-1.73,-2.73,-0.8443,3.3325,-1.2861,36.0625,-8.1875,27.25,241.8125,-55.75,-168.875,0,0.6710000038146973,7.168031777970854,2.199518151777793,8.700783800899778,2.91454077857902,6.224805217836137,3.670483884993912
1776973300.636,4.2713,-1.7119,4.7788,-0.0757,-2.0491,-0.8164,-75.15,-26.55,-4.35,8.3701,-0.6393,-0.2538,2.1384,-0.6968,-1.5047,-119.1,19.05,10.65,-5.7,-2.2,-3.15,-0.6578,3.2474,-1.4519,36.0625,-8.1875,27.25,241.5,-54.125,-170.125,0,0.6809999942779541,6.634118987476785,2.2070455953604586,8.398314886928212,2.7059946212067754,6.874045388270288,3.6175020677257392
1776973300.641,4.3886,-0.8715,4.2353,0.3928,-2.0555,-1.0237,-74.85,-25.95,-4.2,8.3701,-0.6393,-0.2538,2.1384,-0.6968,-1.5047,-119.1,19.05,10.65,-5.7,-2.2,-3.15,-0.6578,3.2474,-1.4519,36.0625,-8.1875,27.25,241.5,-54.125,-170.125,0,0.6860001087188721,6.160932421314163,2.3296638770432097,8.398314886928212,2.7059946212067754,6.874045388270288,3.6175020677257392
1776973300.646,4.3886,-0.8715,4.2353,0.3928,-2.0555,-1.0237,-74.85,-25.95,-4.2,8.0086,-1.3096,-0.7829,1.8402,-0.6318,-1.5567,-118.35,19.5,12.45,-5.27,-2.79,-3.17,-0.5749,3.2441,-1.5446,31.5625,-10.1875,32.375,241.3125,-52.5,-171.3125,0,0.6909999847412109,6.160932421314163,2.3296638770432097,8.152647332615338,2.4917508242197894,6.753214049621113,3.6387475839909533
1776973300.651,4.5945,-0.8475,3.972,0.9188,-2.0523,-1.2412,-74.85,-25.95,-4.2,8.0086,-1.3096,-0.7829,1.8402,-0.6318,-1.5567,-118.35,19.5,12.45,-5.27,-2.79,-3.17,-0.5749,3.2441,-1.5446,31.5625,-10.1875,32.375,241.3125,-52.5,-171.3125,0,0.6960000991821289,6.132248404949036,2.5684053749359737,8.152647332615338,2.4917508242197894,6.753214049621113,3.6387475839909533
1776973300.656,4.5945,-0.8475,3.972,0.9188,-2.0523,-1.2412,-74.85,-25.95,-4.2,7.6926,-0.8499,-1.0295,1.5886,-0.566,-1.6113,-118.95,19.65,11.55,-5.03,-2.54,-3.34,-0.601,3.2332,-1.5555,31.5625,-10.1875,32.375,241.0625,-50.8125,-172.375,0,0.7009999752044678,6.132248404949036,2.5684053749359737,7.807579331649471,2.332443707788036,6.550427466967328,3.637906470760347
1776973300.661,4.81,-1.6735,3.8499,1.4024,-2.0384,-1.4136,-76.65,-26.55,-5.85,7.6926,-0.8499,-1.0295,1.5886,-0.566,-1.6113,-118.95,19.65,11.55,-5.03,-2.54,-3.34,-0.6141,3.1481,-1.5195,31.5625,-10.1875,32.375,240.8125,-49.1875,-173.3125,0,0.7060000896453857,6.38423309881461,2.8495728241264513,7.807579331649471,2.332443707788036,6.550427466967328,3.5491594314710633
1776973300.667,5.0901,-2.9497,4.0127,1.4024,-2.0384,-1.4136,-76.65,-26.55,-5.85,7.4675,-0.0263,-1.2474,1.3566,-0.4226,-1.6305,-117.45,20.4,9.75,-5.11,-2.11,-3.58,-0.6141,3.1481,-1.5195,31.5625,-10.1875,32.375,240.625,-47.625,-174.125,0,0.7120001316070557,7.121208422030631,2.8495728241264513,7.571014113049849,2.162749308172355,6.586395068624414,3.5491594314710633
1776973300.676,5.4971,-4.0725,4.2018,1.7488,-2.0286,-1.5191,-76.8,-26.7,-6.75,7.6543,0.4501,-1.2785,1.234,-0.3714,-1.6473,-117.3,20.25,10.95,-5.74,-2.47,-4.5,-0.5323,3.0609,-1.4933,31.5625,-10.1875,32.375,240.625,-47.625,-174.125,0,0.7210001945495605,8.028604355677267,3.079153164426869,7.773381551808711,2.091480635817602,7.700551928271116,3.4470852890521875
1776973300.686,5.8371,-4.7501,4.2329,1.9681,-2.0195,-1.5471,-76.8,-25.2,-5.7,7.0437,0.3472,-1.5562,1.0912,-0.3629,-1.6108,-117.3,20.25,10.95,-5.78,-3.28,-4.62,-0.3742,3.0205,-1.5381,31.5625,-10.1875,32.375,240.6875,-46.0,-175.0,0,0.7310001850128174,8.634386418848765,3.216413572599145,7.221912210072897,1.9791640887000754,8.093898936853611,3.4101609199567107
1776973300.691,5.8371,-4.7501,4.2329,1.9718,-2.0456,-1.5543,-76.95,-23.85,-5.55,7.0437,0.3472,-1.5562,1.0912,-0.3629,-1.6108,-117.3,20.25,10.95,-5.78,-3.28,-4.62,-0.3742,3.0205,-1.5381,31.5625,-10.1875,32.375,240.6875,-46.0,-175.0,0,0.7360000610351562,8.634386418848765,3.23856806165935,7.221912210072897,1.9791640887000754,8.093898936853611,3.4101609199567107
1776973300.696,5.873,-4.9943,3.7661,1.9718,-2.0456,-1.5543,-76.95,-23.85,-5.55,7.0629,0.7254,-1.1253,1.0768,-0.2705,-1.5434,-117.15,19.95,10.05,-5.39,-3.95,-4.49,-0.2793,3.0358,-1.6712,26.0625,-10.75,36.0,249.1875,-44.4375,-175.9375,0,0.7410001754760742,8.580132324154448,3.23856806165935,7.188675932325786,1.901250128205124,8.050757728313528,3.4766362435549683
1776973300.701,5.873,-4.9943,3.7661,1.7834,-2.0765,-1.5591,-76.65,-24.15,-6.6,7.0629,0.7254,-1.1253,1.0768,-0.2705,-1.5434,-117.15,19.95,10.05,-5.39,-3.95,-4.49,-0.2793,3.0358,-1.6712,26.0625,-10.75,36.0,249.1875,-44.4375,-175.9375,0,0.7460000514984131,8.580132324154448,3.1501048585721714,7.188675932325786,1.901250128205124,8.050757728313528,3.4766362435549683
1776973300.706,5.8442,-5.0877,3.5985,1.6294,-2.1093,-1.5668,-76.65,-24.15,-6.6,6.5553,1.142,-1.1875,0.9785,-0.1535,-1.4957,-117.15,19.95,9.0,-4.81,-3.89,-4.35,-0.2836,3.0085,-1.861,26.0625,-10.75,36.0,248.0,-42.8125,-176.875,0,0.751000165939331,8.543334663935388,3.091755664666922,6.759162547239118,1.7939183342616243,7.562453305640967,3.5489184563751253
1776973300.712,5.8442,-5.0877,3.5985,1.6294,-2.1093,-1.5668,-78.3,-23.55,-6.75,6.5553,1.142,-1.1875,0.9022,-0.1668,-1.4509,-117.15,19.95,9.0,-5.16,-3.67,-4.58,-0.2705,2.906,-2.0759,26.0625,-10.75,36.0,246.75,-41.25,-177.8125,0,0.7569999694824219,8.543334663935388,3.091755664666922,6.759162547239118,1.716653107066189,7.814787265178753,3.5815313847570844
1776973300.717,5.3702,-4.7238,3.5458,1.5023,-2.1514,-1.594,-78.3,-23.55,-6.75,6.9192,1.5586,-1.1229,0.9022,-0.1668,-1.4509,-115.5,20.25,9.6,-5.16,-3.67,-4.58,-0.2705,2.906,-2.0759,26.0625,-10.75,36.0,245.4375,-39.75,-178.875,0,0.7620000839233398,7.982858643368301,3.0702220196591647,7.180909901259032,1.716653107066189,7.814787265178753,3.5815313847570844
1776973300.726,5.2098,-3.9073,3.5075,1.4368,-2.1781,-1.6481,-78.3,-23.55,-6.75,6.8019,1.7765,-1.1923,0.7799,-0.1394,-1.3965,-116.55,21.75,9.6,-5.17,-4.01,-4.63,-0.1571,2.8013,-2.3431,26.0625,-10.75,36.0,245.4375,-39.75,-178.875,0,0.7710001468658447,7.396726680093026,3.0862189585316204,7.130454063381938,1.6055804620136607,8.015354015887258,3.65541785709924
1776973300.736,5.2648,-3.1196,3.2298,1.4594,-2.1965,-1.7445,-78.15,-21.9,-8.85,6.6942,1.7741,-1.1349,0.6723,-0.0983,-1.3249,-116.55,21.75,9.6,-4.75,-4.6,-4.49,-0.0338,2.7293,-2.6387,26.0625,-10.75,36.0,243.9375,-38.25,179.875,0,0.7810001373291016,6.91965542783743,3.1619204385942417,7.017673578900633,1.4889627899984605,7.992659131978543,3.7964402563454094
1776973300.741,5.2648,-3.1196,3.2298,1.4594,-2.1965,-1.7445,-78.15,-21.9,-8.85,6.6942,1.7741,-1.1349,0.6723,-0.0983,-1.3249,-116.55,21.75,9.6,-4.75,-4.6,-4.49,-0.0338,2.7293,-2.6387,26.0625,-10.75,36.0,242.3125,-36.75,178.625,0,0.7860000133514404,6.91965542783743,3.1619204385942417,7.017673578900633,1.4889627899984605,7.992659131978543,3.7964402563454094
1776973300.746,5.0949,-2.4493,3.122,1.6198,-2.2191,-1.8594,-78.15,-21.9,-8.85,6.6224,1.7597,-1.2761,0.6139,-0.0544,-1.2404,-116.25,22.8,9.9,-4.15,-5.02,-4.41,0.0131,2.6136,-2.9332,21.6875,-11.0625,40.0,242.3125,-36.75,178.625,0,0.7910001277923584,6.4578603654770985,3.317457642532908,6.970018440434717,1.3850721028163118,7.865812100476339,3.928707015036881
1776973300.751,5.0949,-2.4493,3.122,1.6198,-2.2191,-1.8594,-80.55,-22.8,-9.75,6.6224,1.7597,-1.2761,0.5883,0.0253,-1.1453,-116.25,22.8,9.9,-4.15,-5.02,-4.41,0.0131,2.6136,-2.9332,21.6875,-11.0625,40.0,240.5625,-35.375,177.375,0,0.7960000038146973,6.4578603654770985,3.317457642532908,6.970018440434717,1.2878078544565568,7.865812100476339,3.928707015036881
1776973300.756,5.0494,-1.8507,3.0646,1.809,-2.2244,-1.9982,-80.55,-22.8,-9.75,6.1316,1.5897,-1.312,0.5883,0.0253,-1.1453,-116.4,20.7,7.95,-3.93,-4.82,-4.37,0.0065,2.4544,-3.1972,21.6875,-11.0625,40.0,240.5625,-35.375,177.375,0,0.8010001182556152,6.189774148545325,3.494744568634452,6.468771803827988,1.2878078544565568,7.600934153115656,4.030658686864965
1776973300.761,5.0494,-1.8507,3.0646,1.809,-2.2244,-1.9982,-80.55,-19.65,-9.0,6.1316,1.5897,-1.312,0.571,0.1671,-1.0365,-116.4,20.7,7.95,-3.93,-4.82,-4.37,0.0196,2.3027,-3.4099,21.6875,-11.0625,40.0,238.75,-34.0,176.125,0,0.8059999942779541,6.189774148545325,3.494744568634452,6.468771803827988,1.1951132414963863,7.600934153115656,4.114636005772564
1776973300.767,5.102,-1.7885,3.0861,2.0693,-2.2665,-2.1738,-80.55,-19.65,-9.0,5.952,1.4365,-1.6185,0.571,0.1671,-1.0365,-115.2,21.45,9.3,-3.58,-4.61,-4.44,0.0196,2.3027,-3.4099,21.6875,-11.0625,40.0,236.8125,-32.625,174.875,0,0.812000036239624,6.225202764569199,3.7609082918890753,6.333196546768464,1.1951132414963863,7.333628024381929,4.114636005772564
1776973300.776,5.0949,-1.9345,3.0837,2.2897,-2.3004,-2.3454,-80.85,-18.3,-10.65,5.6982,1.233,-1.8148,0.5649,0.2403,-0.9241,-113.4,22.95,8.7,-3.38,-4.34,-4.81,0.0709,2.1511,-3.5605,21.6875,-11.0625,40.0,236.8125,-32.625,174.875,0,0.8210000991821289,6.261749112668121,4.004430972060824,6.106002888960994,1.1094218809812613,7.307263509686782,4.160458901371338
1776973300.786,5.3534,-2.5115,3.1484,2.4437,-2.3052,-2.5077,-82.65,-19.05,-9.15,5.8012,1.008,-1.9585,0.6214,0.3621,-0.8021,-117.15,22.2,9.3,-3.26,-4.22,-5.07,0.1407,2.0235,-3.6357,21.6875,-11.0625,40.0,234.875,-31.3125,173.5625,0,0.8310000896453857,6.699175051452231,4.192156488014254,6.20529674471737,1.077320184531971,7.358050013420676,4.1632515213472265
1776973300.791,5.6527,-3.237,3.2561,2.4437,-2.3052,-2.5077,-82.65,-18.75,-11.4,5.4372,0.7374,-1.9776,0.559,0.3802,-0.6715,-117.15,22.2,9.3,-3.26,-4.22,-5.07,0.1407,2.0235,-3.6357,21.6875,-11.0625,40.0,232.9375,-30.0,172.375,0,0.8359999656677246,7.282401629956975,4.192156488014254,5.83247840630379,0.9528616321376362,7.358050013420676,4.1632515213472265
1776973300.796,5.6527,-3.237,3.2561,2.521,-2.367,-2.6574,-82.65,-18.75,-11.4,5.4372,0.7374,-1.9776,0.559,0.3802,-0.6715,-117.15,22.2,9.3,-3.35,-3.85,-5.6,0.2171,1.9319,-3.6401,17.25,-10.25,41.375,232.9375,-30.0,172.375,0,0.8410000801086426,7.282401629956975,4.361181578425737,5.83247840630379,0.9528616321376362,7.5766087400630635,4.126705469257528
1776973300.801,5.794,-3.9049,3.3303,2.521,-2.367,-2.6574,-83.4,-17.1,-12.45,5.3295,0.7518,-1.9656,0.5865,0.4357,-0.534,-117.15,22.2,9.3,-3.35,-3.85,-5.6,0.2171,1.9319,-3.6401,17.25,-10.25,41.375,231.0625,-28.6875,171.125,0,0.8460001945495605,7.74012778318291,4.361181578425737,5.729952604516027,0.9049711266112306,7.5766087400630635,4.126705469257528
1776973300.806,5.794,-3.9049,3.3303,2.513,-2.4149,-2.7531,-83.4,-17.1,-12.45,5.3295,0.7518,-1.9656,0.5865,0.4357,-0.534,-115.8,22.8,9.6,-4.04,-3.32,-7.1,0.3262,1.8773,-3.5801,17.25,-10.25,41.375,231.0625,-28.6875,171.125,0,0.8510000705718994,7.74012778318291,4.441449157651137,5.729952604516027,0.9049711266112306,8.817822860547833,4.055585992184113
1776973300.814,6.1172,-4.7477,3.3016,2.4213,-2.4472,-2.8205,-83.4,-17.1,-12.45,5.3463,0.6416,-2.1189,0.5007,0.5321,-0.3802,-115.2,22.65,9.0,-4.59,-3.48,-7.98,0.4865,1.8991,-3.483,17.25,-10.25,41.375,229.3125,-27.3125,169.9375,0,0.8589999675750732,8.417918607945792,4.450472085071425,5.786563009248236,0.8236400548783431,9.84169192771243,3.9968177416539774
1776973300.819,6.1172,-4.7477,3.3016,2.4213,-2.4472,-2.8205,-83.4,-17.1,-12.45,5.3463,0.6416,-2.1189,0.4293,0.574,-0.2281,-115.2,22.65,9.0,-4.59,-3.48,-7.98,0.4865,1.8991,-3.483,17.25,-10.25,41.375,227.625,-25.875,168.8125,0,0.8640000820159912,8.417918607945792,4.450472085071425,5.786563009248236,0.7521995081093844,9.84169192771243,3.9968177416539774
1776973300.827,6.5505,-5.3008,3.3926,2.1823,-2.4794,-2.865,-84.45,-14.55,-12.75,5.3463,0.6584,-2.2027,0.4293,0.574,-0.2281,-115.65,22.2,10.8,-4.97,-3.53,-8.68,0.6512,2.0377,-3.351,17.25,-10.25,41.375,226.0625,-24.3125,167.6875,0,0.871999979019165,9.083901455321937,4.372422972449029,5.8196478879739795,0.7521995081093844,10.606799705849074,3.9756111140301433
1776973300.837,7.3023,-5.8682,3.0957,1.7611,-2.5242,-2.9066,-84.0,-13.5,-13.5,5.4085,0.5555,-2.0973,0.3579,0.6139,-0.0616,-115.95,22.65,9.3,-4.98,-3.37,-9.12,0.7756,2.258,-3.2005,17.25,-10.25,41.375,226.0625,-24.3125,167.6875,0,0.8819999694824219,9.866241179902303,4.2333653763879155,5.827445391421528,0.7132742670249642,10.923904979447597,3.9929086653716483
1776973300.842,7.9942,-6.1411,3.1292,1.2545,-2.5996,-2.934,-85.5,-15.0,-13.5,5.2792,0.5483,-1.8148,0.288,0.6843,0.0917,-115.95,22.65,9.3,-4.98,-3.37,-9.12,0.7756,2.258,-3.2005,17.25,-10.25,41.375,224.625,-22.5625,166.625,0,0.8870000839233398,10.555199452876293,4.1158287634448545,5.6092855668079515,0.7480771216926768,10.923904979447597,3.9929086653716483
1776973300.847,7.9942,-6.1411,3.1292,1.2545,-2.5996,-2.934,-85.5,-15.0,-13.5,5.2792,0.5483,-1.8148,0.288,0.6843,0.0917,-115.95,22.65,9.3,-4.68,-2.15,-9.76,0.8792,2.4816,-3.0161,14.875,-9.875,44.5625,224.625,-22.5625,166.625,0,0.8919999599456787,10.555199452876293,4.1158287634448545,5.6092855668079515,0.7480771216926768,11.035510862665125,4.003522250468954
1776973300.851,8.3079,-6.2632,2.8754,0.6515,-2.6628,-2.9572,-83.7,-12.3,-14.25,5.4684,0.4573,-1.9249,0.1716,0.7317,0.2414,-115.95,22.65,9.3,-4.68,-2.15,-9.76,0.8792,2.4816,-3.0161,14.875,-9.875,44.5625,224.625,-22.5625,166.625,0,0.8960001468658447,10.794294873218908,4.032367534092099,5.8153041072673055,0.7893702616643219,11.035510862665125,4.003522250468954
1776973300.857,8.3079,-6.2632,2.8754,0.6515,-2.6628,-2.9572,-83.7,-12.3,-14.25,5.4684,0.4573,-1.9249,0.1716,0.7317,0.2414,-117.15,21.9,9.75,-4.66,-1.59,-10.15,1.0287,2.6584,-2.7827,14.875,-9.875,44.5625,223.375,-20.75,165.5625,0,0.9020001888275146,10.794294873218908,4.032367534092099,5.8153041072673055,0.7893702616643219,11.281232202202029,3.98355789966708
1776973300.862,8.7771,-6.0454,2.6432,0.1053,-2.7262,-2.9796,-85.35,-10.95,-17.4,5.4324,0.5339,-1.7095,0.1135,0.7613,0.3757,-118.35,22.05,9.9,-4.66,-1.59,-10.15,1.2119,2.7925,-2.4936,14.875,-9.875,44.5625,222.3125,-18.9375,164.5625,0,0.9070000648498535,10.980475937317108,4.039959243606301,5.720000805943999,0.8565106128939676,11.281232202202029,3.9350729116497956
1776973300.867,8.7771,-6.0454,2.6432,0.1053,-2.7262,-2.9796,-85.35,-10.95,-17.4,5.4324,0.5339,-1.7095,0.0714,1.0709,0.518,-118.35,22.05,9.9,-4.85,-1.68,-10.63,1.2119,2.7925,-2.4936,14.875,-9.875,44.5625,221.4375,-17.0625,163.5625,0,0.9120001792907715,10.980475937317108,4.039959243606301,5.720000805943999,1.191741905783295,11.80431277118664,3.9350729116497956
1776973300.877,8.9687,-5.6216,2.3918,-0.4349,-2.7797,-3.0369,-85.5,-10.35,-18.6,4.5035,0.1365,-1.7549,0.0714,1.0709,0.518,-118.5,21.9,10.05,-5.24,-2.77,-11.3,1.345,2.9114,-2.174,14.875,-9.875,44.5625,221.4375,-17.0625,163.5625,0,0.9220001697540283,10.851759004419513,4.139883055111581,4.835268194216325,1.191741905783295,12.760113635857637,3.874474281757462
1776973300.887,9.244,-4.8387,2.1691,-0.8828,-2.7627,-3.1104,-85.5,-10.35,-18.6,5.7796,0.1484,-1.9585,-0.162,0.9529,0.8234,-119.25,21.45,11.55,-5.58,-2.76,-11.7,1.3679,3.0052,-1.838,14.875,-9.875,44.5625,220.75,-15.125,162.6875,0,0.9320001602172852,10.656901449295663,4.252814984219276,6.104221569536938,1.2697440568870564,13.253075114855418,3.7789709511982226
1776973300.891,9.2632,-3.5937,2.0207,-1.2449,-2.7179,-3.1765,-84.45,-6.75,-20.85,6.2369,0.1221,-2.3439,-0.162,0.9529,0.8234,-118.95,22.65,11.55,-5.58,-2.76,-11.7,1.3679,3.0052,-1.838,14.875,-9.875,44.5625,220.75,-15.125,162.6875,0,0.9360001087188721,10.139269323772792,4.361984487592775,6.663910055665517,1.2697440568870564,13.253075114855418,3.7789709511982226
1776973300.896,9.2632,-3.5937,2.0207,-1.2449,-2.7179,-3.1765,-84.45,-6.75,-20.85,6.3734,0.1317,-2.5211,-0.2947,1.0581,0.9856,-118.95,22.65,11.55,-5.76,-2.56,-11.86,1.3701,3.0456,-1.5272,12.5,-9.0625,47.875,220.3125,-13.3125,161.875,0,0.9409999847412109,10.139269323772792,4.361984487592775,6.855181810863955,1.4757476274756467,13.430964224507486,3.672219112471368
1776973300.901,9.8282,-2.6121,1.585,-1.5942,-2.5882,-3.2476,-84.45,-6.75,-20.85,6.3734,0.1317,-2.5211,-0.2947,1.0581,0.9856,-118.95,22.65,11.55,-5.76,-2.56,-11.86,1.3701,3.0456,-1.5272,12.5,-9.0625,47.875,220.3125,-13.3125,161.875,0,0.9460000991821289,10.292172105537295,4.4482759177011495,6.855181810863955,1.4757476274756467,13.430964224507486,3.672219112471368
1776973300.906,9.8282,-2.6121,1.585,-1.5942,-2.5882,-3.2476,-84.45,-6.75,-20.85,7.118,0.3974,-2.9544,-0.296,1.2396,1.1527,-118.95,22.65,11.55,-5.67,-2.49,-11.82,1.4475,3.0358,-1.249,12.5,-9.0625,47.875,219.9375,-11.4375,161.0,0,0.9509999752044678,10.292172105537295,4.4482759177011495,7.7170156226354765,1.7184124795869005,13.343964928011465,3.587664824088226
1776973300.913,10.4675,-2.2889,1.0319,-1.7197,-2.4384,-3.3268,-84.0,-5.25,-23.4,7.118,0.3974,-2.9544,-0.296,1.2396,1.1527,-119.85,21.75,11.7,-6.54,-3.35,-12.07,1.6024,2.942,-0.9785,12.5,-9.0625,47.875,219.75,-9.75,160.125,0,0.9580001831054688,10.764406024950935,4.468865727452549,7.7170156226354765,1.7184124795869005,14.130782002422938,3.490059026721468
1776973300.918,10.5512,-1.8052,1.1803,-1.4352,-2.2092,-3.346,-84.0,-5.25,-23.4,7.6088,0.9098,-3.2896,-0.319,1.2156,1.319,-119.85,21.75,11.7,-6.54,-3.35,-12.07,1.6024,2.942,-0.9785,12.5,-9.0625,47.875,219.75,-8.125,159.1875,0,0.9630000591278076,10.769386081388298,4.258647635106713,8.339247066732103,1.821868645100409,14.130782002422938,3.490059026721468
1776973300.927,10.3717,-0.8739,0.759,-1.1455,-2.0272,-3.3092,-84.75,-0.9,-26.1,7.8578,1.5371,-3.6775,-0.2571,1.1922,1.4264,-119.25,20.4,12.9,-7.86,-4.96,-12.4,1.7606,2.8045,-0.721,12.5,-9.0625,47.875,219.8125,-6.625,158.1875,0,0.9720001220703125,10.436088496175184,4.0462964214204575,8.810885511683828,1.8767147385790945,15.496489925141113,3.388919239226571
1776973300.937,10.5632,-0.0359,0.9313,-0.9196,-1.8791,-3.2431,-84.0,0.45,-27.9,8.3797,2.4277,-4.0127,-0.2489,1.3544,1.4741,-121.5,19.95,12.15,-9.09,-6.29,-12.51,1.8184,2.7543,-0.5203,12.5,-9.0625,47.875,219.8125,-6.625,158.1875,0,0.9820001125335693,10.60423513224787,3.8593235909936343,9.602856901464271,2.017255903449039,16.694079788955126,3.341176310822283
1776973300.942,10.5632,-0.0359,0.9313,-0.9196,-1.8791,-3.2431,-82.65,2.7,-27.75,8.3797,2.4277,-4.0127,-0.2489,1.3544,1.4741,-121.95,20.55,12.75,-9.09,-6.29,-12.51,1.8184,2.7543,-0.5203,12.5,-9.0625,47.875,219.9375,-5.125,157.25,0,0.9869999885559082,10.60423513224787,3.8593235909936343,9.602856901464271,2.017255903449039,16.694079788955126,3.341176310822283
1776973300.947,10.8098,0.5842,0.9912,-0.8092,-1.7328,-3.1083,-82.65,2.7,-27.75,9.7492,3.8188,-4.4173,-0.1847,1.4629,1.5489,-121.95,20.55,12.75,-10.23,-6.74,-11.55,1.7671,2.7914,-0.4243,7.5,-6.5,53.375,219.9375,-5.125,157.25,0,0.9920001029968262,10.87085751539408,3.6495108398249756,11.364095800810551,2.1385232544912856,16.83695340612428,3.3308537734340726
1776973300.952,10.8098,0.5842,0.9912,-0.8092,-1.7328,-3.1083,-82.65,2.7,-27.75,9.7492,3.8188,-4.4173,-0.1847,1.4629,1.5489,-121.95,20.55,12.75,-10.23,-6.74,-11.55,1.7671,2.7914,-0.4243,7.5,-6.5,53.375,220.0,-3.5625,156.375,0,0.996999979019165,10.87085751539408,3.6495108398249756,11.364095800810551,2.1385232544912856,16.83695340612428,3.3308537734340726
1776973300.957,11.2504,0.7087,1.0199,-0.6707,-1.546,-2.9018,-82.65,2.7,-27.75,10.4196,5.3965,-5.3367,0.0131,1.4794,1.6113,-121.95,20.55,12.75,-10.34,-5.78,-10.6,1.6821,2.7893,-0.4701,7.5,-6.5,53.375,220.0,-3.5625,156.375,0,1.002000093460083,11.318743386966595,3.3556516103433625,12.890719270079542,2.187483407937075,15.896037242029852,3.2909951245785822
1776973300.961,11.2504,0.7087,1.0199,-0.6707,-1.546,-2.9018,-82.65,2.7,-27.75,10.4196,5.3965,-5.3367,0.0131,1.4794,1.6113,-121.8,22.2,15.0,-10.34,-5.78,-10.6,1.6581,2.6267,-0.636,7.5,-6.5,53.375,220.0,-2.125,155.4375,0,1.00600004196167,11.318743386966595,3.3556516103433625,12.890719270079542,2.187483407937075,15.896037242029852,3.170700947740105
1776973300.967,11.2144,0.8452,1.0295,-0.3698,-1.3688,-2.6143,-83.1,3.45,-29.25,11.0636,7.0006,-5.6,0.2595,1.3518,1.566,-121.8,22.2,15.0,-10.63,-4.6,-9.69,1.6581,2.6267,-0.636,7.5,-6.5,53.375,219.8125,-0.75,154.5,0,1.0120000839233398,11.293228088106606,2.974042698079501,14.23979091559985,2.0849603089747295,15.10142377393602,3.170700947740105
1776973300.977,10.829,0.8571,0.8308,-0.0123,-1.1991,-2.2572,-83.1,3.45,-29.25,11.7819,8.011,-5.2744,0.319,1.1415,1.4837,-122.7,21.75,14.55,-12.34,-2.59,-8.06,1.7191,2.3202,-0.8476,7.5,-6.5,53.375,219.5,0.4375,153.5,0,1.0220000743865967,10.894589944096108,2.5559624293013385,15.192385723447122,1.8989862927362062,14.964868860100312,3.009494743308252
1776973300.987,10.3525,0.4046,0.6584,0.2822,-0.9214,-1.8874,-84.6,9.0,-30.3,12.074,9.086,-4.5849,0.1178,1.0144,1.3696,-124.35,22.2,16.2,-13.47,-2.1,-7.05,1.8217,1.934,-1.0701,7.5,-6.5,53.375,219.5,0.4375,153.5,0,1.0320000648498535,10.381302806969845,2.1191728480706806,15.79107912746941,1.7084169163292664,15.347749020621885,2.864273188786293
1776973300.992,10.3525,0.4046,0.6584,0.2822,-0.9214,-1.8874,-84.6,9.0,-30.3,12.074,9.086,-4.5849,0.1178,1.0144,1.3696,-122.1,25.65,15.75,-13.47,-2.1,-7.05,1.8217,1.934,-1.0701,7.5,-6.5,53.375,219.5,0.4375,153.5,0,1.0370001792907715,10.381302806969845,2.1191728480706806,15.79107912746941,1.7084169163292664,15.347749020621885,2.864273188786293
1776973300.997,9.5768,0.0742,2.0638,0.5692,-0.623,-1.4863,-84.15,7.8,-31.35,12.1194,9.7492,-4.1492,-0.2438,1.1085,1.1437,-122.1,25.65,15.75,-14.22,-1.9,-5.71,1.8697,1.5086,-1.3046,1.5,-1.875,56.25,218.9375,1.5,152.4375,0,1.0420000553131104,9.796931882992757,1.7091533956903928,16.097907244110957,1.6112915254540376,15.440935852466975,2.7337946539562914
1776973301.002,9.5768,0.0742,2.0638,0.5692,-0.623,-1.4863,-84.15,7.8,-31.35,12.1194,9.7492,-4.1492,-0.2438,1.1085,1.1437,-123.15,27.3,14.25,-14.22,-1.9,-5.71,1.8697,1.5086,-1.3046,1.5,-1.875,56.25,218.9375,1.5,152.4375,0,1.0470001697540283,9.796931882992757,1.7091533956903928,16.097907244110957,1.6112915254540376,15.440935852466975,2.7337946539562914
1776973301.007,10.1897,0.8906,1.7286,0.2721,-0.2065,-1.1383,-83.7,9.45,-30.45,11.6119,10.1801,-3.6224,-0.5993,1.0003,0.9348,-123.15,27.3,14.25,-14.71,-1.19,-4.36,1.7541,0.9916,-1.4824,1.5,-1.875,56.25,218.25,2.375,151.5,0,1.0520000457763672,10.373582428939388,1.1884475377567156,15.861665718959028,1.4945272229036177,15.388625669630152,2.5015289584572074
1776973301.015,11.6358,0.4693,0.2849,0.0858,-0.1588,-0.6795,-82.35,8.55,-31.05,11.4251,10.5608,-3.5769,-0.7144,1.1762,0.7869,-123.15,27.3,14.25,-18.73,-7.62,1.47,1.3537,0.3185,-1.6493,1.5,-1.875,56.25,217.375,2.9375,150.8125,0,1.0600001811981201,11.648744659404292,0.7030642431527862,15.96426071761546,1.5852524751597141,20.27407704434409,2.157344763824271
1776973301.02,11.6358,0.4693,0.2849,0.0858,-0.1588,-0.6795,-82.35,8.55,-31.05,11.4251,10.5608,-3.5769,-0.7144,1.1762,0.7869,-120.75,30.45,12.9,-18.73,-7.62,1.47,1.3537,0.3185,-1.6493,1.5,-1.875,56.25,216.1875,2.5,151.0625,0,1.065000057220459,11.648744659404292,0.7030642431527862,15.96426071761546,1.5852524751597141,20.27407704434409,2.157344763824271
1776973301.027,8.4324,1.063,3.213,0.5697,0.3608,0.0613,-82.5,9.45,-31.95,10.9367,10.2759,-4.0606,-0.6022,1.2444,0.6829,-120.75,30.45,12.9,-23.57,-2.18,6.49,-0.3676,-1.849,-1.6624,1.5,-1.875,56.25,214.9375,1.25,152.0625,0,1.0720000267028809,9.086182243384732,0.6771206834826418,15.546510864499469,1.5419236719111618,24.54419279585295,2.5134646446687885
1776973301.037,11.157,4.889,-0.6201,0.6395,1.1111,0.6254,-82.95,7.5,-30.15,13.0819,10.2161,-3.5674,-0.3099,1.6252,0.7663,-118.2,30.9,13.65,-28.35,5.33,6.41,-1.6777,-3.3227,-1.3974,1.5,-1.875,56.25,214.9375,1.25,152.0625,0,1.0820000171661377,12.196946093592445,1.4264040872067074,16.9773716923439,1.823329026807833,29.550287646654137,3.9758947848251722
1776973301.042,19.0291,6.6439,-13.7643,-0.23,0.5907,0.4642,-82.95,7.5,-30.15,15.7155,8.9352,-2.8443,-0.4519,2.0219,1.1048,-118.5,30.15,13.35,-28.35,5.33,6.41,-1.6777,-3.3227,-1.3974,-1.875,3.375,59.25,213.6875,-0.3125,153.1875,0,1.0870001316070557,24.40704833669979,0.7856895888326382,18.30040386931392,2.34795150290631,29.550287646654137,3.9758947848251722
1776973301.047,19.0291,6.6439,-13.7643,-0.23,0.5907,0.4642,-82.95,7.5,-30.15,15.7155,8.9352,-2.8443,-0.4519,2.0219,1.1048,-118.5,30.15,13.35,-2.22,4.25,-14.6,-2.0355,-3.987,-1.2599,-1.875,3.375,59.25,213.6875,-0.3125,153.1875,0,1.0920000076293945,24.40704833669979,0.7856895888326382,18.30040386931392,2.34795150290631,15.36720208756298,4.650459897687539
1776973301.052,17.8105,6.1196,-16.4937,0.3792,-0.0791,0.0693,-82.95,7.5,-30.15,15.2008,8.1187,-3.7948,-0.7693,1.6371,1.339,-118.95,30.15,12.9,-2.22,4.25,-14.6,-2.0355,-3.987,-1.2599,-1.875,3.375,59.25,212.5,-2.3125,154.0625,0,1.0970001220703125,25.034087842380035,0.3935123123867918,17.645909366479245,2.250519917707906,15.36720208756298,4.650459897687539
1776973301.057,17.8105,6.1196,-16.4937,0.3792,-0.0791,0.0693,-82.65,6.9,-27.75,15.2008,8.1187,-3.7948,-0.7693,1.6371,1.339,-118.95,30.15,12.9,0.12,-7.3,-21.62,-1.6264,-4.5269,-1.0919,-1.875,3.375,59.25,212.5,-2.3125,154.0625,0,1.1019999980926514,25.034087842380035,0.3935123123867918,17.645909366479245,2.250519917707906,22.81948290386967,4.93256993665574
1776973301.062,8.1475,-0.5842,-9.7755,2.1341,0.4549,-0.0085,-82.65,6.9,-27.75,14.1497,7.92,-4.3144,-0.5785,0.9737,1.2614,-118.95,30.15,12.9,0.12,-7.3,-21.62,-0.8792,-4.5237,-0.3392,-1.875,3.375,59.25,211.75,-4.5,154.4375,0,1.1070001125335693,12.739052011040696,2.182060739301269,16.779584543426573,1.6952533438987814,22.81948290386967,4.620812804042163
1776973301.068,8.1475,-0.5842,-9.7755,2.1341,0.4549,-0.0085,-82.65,6.9,-27.75,14.1497,7.92,-4.3144,-0.5785,0.9737,1.2614,-118.95,30.15,12.9,-9.9,-0.27,-14.87,-0.8792,-4.5237,-0.3392,-1.875,3.375,59.25,211.5625,-6.6875,154.9375,0,1.1130001544952393,12.739052011040696,2.182060739301269,16.779584543426573,1.6952533438987814,17.866163550130175,4.620812804042163
1776973301.077,10.6949,-6.7229,-11.6334,1.9289,0.8692,0.3762,-82.35,6.6,-29.85,15.1912,7.525,-4.4317,0.3435,0.915,1.3315,-117.6,30.3,10.2,-6.21,12.32,-15.88,-0.9218,-4.1255,0.6981,-1.875,3.375,59.25,211.5625,-6.6875,154.9375,0,1.121999979019165,17.17306804214087,2.1488811716798115,17.522504025680806,1.6516989737842667,21.036180737006422,4.284484694802865
1776973301.087,14.7531,-7.0773,-10.3597,0.7682,0.8583,0.6483,-83.85,6.9,-28.05,16.5056,6.4189,-5.2553,1.3688,0.8876,1.582,-119.4,27.3,11.4,-6.93,5.75,-18.94,-0.4167,-3.9335,0.937,-1.875,3.375,59.25,211.625,-8.875,155.0625,0,1.1319999694824219,19.366608350199062,1.3217802464857764,18.473096293258475,2.272481287051667,20.971671368777454,4.064976031909659
1776973301.092,12.6869,-3.6033,-3.0071,0.6515,1.145,0.7741,-83.85,6.9,-28.05,16.9988,4.6256,-5.952,2.4728,0.7152,1.6691,-117.75,30.15,10.5,-6.93,5.75,-18.94,-0.4167,-3.9335,0.937,-1.875,3.375,59.25,211.8125,-11.1875,154.8125,0,1.1370000839233398,13.527152431683469,1.5279751503214967,18.59520585527356,3.0679220475755247,20.971671368777454,4.064976031909659
1776973301.097,12.6869,-3.6033,-3.0071,0.6515,1.145,0.7741,-84.15,6.15,-28.05,16.9988,4.6256,-5.952,2.4728,0.7152,1.6691,-118.35,26.55,9.15,-12.27,1.12,-17.33,0.336,-3.9783,1.2741,8.0625,3.375,62.1875,211.8125,-11.1875,154.8125,0,1.1419999599456787,13.527152431683469,1.5279751503214967,18.59520585527356,3.0679220475755247,21.263494538762906,4.1908349645386895
1776973301.102,12.6414,2.308,1.6041,0.3984,1.4402,0.9142,-84.15,6.15,-28.05,15.7012,2.1596,-5.624,3.3771,0.2297,1.5255,-118.35,26.55,9.15,-12.27,1.12,-17.33,0.336,-3.9783,1.2741,8.0625,3.375,62.1875,212.3125,-13.375,154.5,0,1.1470000743865967,12.950096322807797,1.7517591843629647,16.817280683868006,3.7127774980464423,21.263494538762906,4.1908349645386895
1776973301.107,12.6414,2.308,1.6041,0.3984,1.4402,0.9142,-84.45,4.8,-27.9,15.7012,2.1596,-5.624,3.3771,0.2297,1.5255,-118.05,28.05,8.55,-10.77,-4.07,-14.44,0.5836,-3.5986,1.6188,8.0625,3.375,62.1875,212.3125,-13.375,154.5,0,1.1520001888275146,12.950096322807797,1.7517591843629647,16.817280683868006,3.7127774980464423,18.46811847482033,3.988862539622041
1776973301.115,12.2607,7.173,5.3008,0.3477,1.639,0.9758,-84.45,4.8,-27.9,14.3054,0.3687,-4.2401,3.9031,-0.3485,1.1706,-118.05,28.05,8.55,-9.86,-12.94,-10.73,0.6,-3.0958,1.5053,8.0625,3.375,62.1875,212.8125,-15.3125,154.1875,0,1.1600000858306885,15.161634942511972,1.938917721307431,14.925108269624044,4.089736693235886,19.48835806321302,3.494267552721171
1776973301.12,10.8864,9.7851,5.6623,0.8343,1.6537,0.9355,-84.45,4.8,-27.9,11.1426,-0.9888,-2.059,3.4448,-0.655,0.6787,-118.05,28.05,8.55,-9.86,-12.94,-10.73,0.6,-3.0958,1.5053,8.0625,3.375,62.1875,213.3125,-17.125,154.0625,0,1.1649999618530273,15.694697456784569,2.0750760058368947,11.374301789560535,3.57159708393878,19.48835806321302,3.494267552721171
1776973301.127,10.0963,8.8298,2.6504,0.8343,1.6537,0.9355,-85.35,4.2,-25.05,11.1426,-0.9888,-2.059,3.4448,-0.655,0.6787,-120.6,27.0,3.9,-13.69,-15.29,-10.64,0.2138,-2.9627,1.4508,8.0625,3.375,62.1875,213.8125,-18.75,154.3125,0,1.1720001697540283,13.672061362135558,2.0750760058368947,11.374301789560535,3.57159708393878,23.117305206273503,3.3057710704160987
1776973301.137,10.1514,3.7828,1.0774,1.7224,1.4011,0.8372,-85.35,4.2,-25.05,9.2296,-2.5498,-0.2131,2.0475,0.0019,0.2433,-121.95,25.8,5.25,-10.53,-9.45,-8.8,-0.3589,-2.5209,1.5708,8.0625,3.375,62.1875,213.8125,-18.75,154.3125,0,1.1820001602172852,10.886748300571664,2.372898398583471,9.577703681467703,2.061905611321721,16.662034689677007,2.991848702725457
1776973301.142,10.1514,3.7828,1.0774,2.4909,1.2065,0.7461,-85.35,4.2,-25.05,7.9344,-4.2425,2.6145,0.3725,-0.3893,-0.1721,-121.95,25.8,5.25,-10.53,-9.45,-8.8,-0.3589,-2.5209,1.5708,8.0625,3.375,62.1875,213.8125,-18.75,154.3125,0,1.187000036239624,10.886748300571664,2.866511864618739,9.36958482858232,0.5656227983382565,16.662034689677007,2.991848702725457
1776973301.147,10.2065,-2.083,1.6209,2.4909,1.2065,0.7461,-86.55,1.95,-24.0,7.9344,-4.2425,2.6145,0.3725,-0.3893,-0.1721,-123.45,21.3,4.2,-6.6,-1.96,-10.25,-0.8268,-1.8151,1.3352,22.0,3.375,61.5,214.25,-20.0,154.875,0,1.192000150680542,10.542241130803259,2.866511864618739,9.36958482858232,0.5656227983382565,12.347635401160824,2.4001969273374213
1776973301.152,10.2065,-2.083,1.6209,2.5151,1.1181,0.7592,-86.55,1.95,-24.0,5.3989,-6.1028,6.6726,-1.7347,0.2262,-0.2915,-123.45,21.3,4.2,-6.6,-1.96,-10.25,-0.8268,-1.8151,1.3352,22.0,3.375,61.5,214.25,-20.0,154.875,0,1.1970000267028809,10.542241130803259,2.855216324554061,10.531660828663256,1.7735057879804057,12.347635401160824,2.4001969273374213
1776973301.157,9.8641,-6.6702,1.7573,2.5151,1.1181,0.7592,-86.1,1.95,-24.0,5.3989,-6.1028,6.6726,-1.7347,0.2262,-0.2915,-123.45,18.3,6.75,-5.39,-2.46,-9.77,-0.9479,-1.4072,1.1236,22.0,3.375,61.5,214.625,-20.9375,155.5,0,1.2020001411437988,12.036616640069584,2.855216324554061,10.531660828663256,1.7735057879804057,11.426136704941,2.0349946461846034
1776973301.163,9.8641,-6.6702,1.7573,1.8754,1.1956,0.7608,-86.1,1.95,-24.0,5.5809,-7.5992,8.0373,-2.9543,0.6856,-0.0887,-123.45,18.3,6.75,-5.25,-2.3,-10.23,-0.8858,-1.1606,0.9239,22.0,3.375,61.5,214.875,-21.75,156.0625,0,1.2080001831054688,12.036616640069584,2.350617187038332,12.389208075579326,3.03410671203239,11.72626965407158,1.727780428758238
1776973301.168,10.8146,-9.3158,2.0949,0.7538,1.2753,0.7735,-86.25,0.9,-23.4,5.9113,-7.5274,7.2927,-2.2452,0.7139,0.295,-123.45,18.3,6.75,-5.25,-2.3,-10.23,-0.8858,-1.1606,0.9239,22.0,3.375,61.5,215.0625,-22.5,156.5,0,1.2130000591278076,14.42665272369166,1.6711992041644825,12.032817281916982,2.374363335717598,11.72626965407158,1.727780428758238
1776973301.177,11.0373,-7.8578,1.6496,-0.4682,1.2516,0.716,-86.55,0.75,-22.2,5.9855,-5.9376,4.4269,-1.2257,1.1868,0.6582,-123.45,18.3,6.75,-6.1,-1.07,-10.62,-0.7538,-1.0919,0.721,22.0,3.375,61.5,215.1875,-23.0625,156.875,0,1.2220001220703125,13.648743249471725,1.5160375325169229,9.522538927197935,1.8286776561220406,12.293872457448058,1.5100665713802157
1776973301.187,10.5393,-4.3335,1.8364,-1.4328,1.1687,0.5588,-87.3,-0.75,-21.75,7.7285,-4.6328,2.1548,-0.154,1.4917,0.8735,-116.7,0.9,7.65,-5.44,-3.16,-9.5,-0.5585,-0.8967,0.5291,22.0,3.375,61.5,215.1875,-23.0625,156.875,0,1.2320001125335693,11.542462116030531,1.9315881988664148,9.264756398848272,1.735478936777972,11.394261713687289,1.1814990266606231
1776973301.192,10.5393,-4.3335,1.8364,-1.4328,1.1687,0.5588,-87.3,-0.75,-21.75,7.7285,-4.6328,2.1548,-0.154,1.4917,0.8735,-116.7,0.9,7.65,-5.44,-3.16,-9.5,-0.5585,-0.8967,0.5291,22.0,3.375,61.5,215.3125,-23.4375,157.0625,0,1.2369999885559082,11.542462116030531,1.9315881988664148,9.264756398848272,1.735478936777972,11.394261713687289,1.1814990266606231
1776973301.197,9.8569,-0.8811,1.9321,-1.8703,1.0536,0.4535,-87.45,-0.15,-20.1,7.9368,-3.7326,1.1396,0.4844,1.3606,1.0373,-112.65,-2.4,9.0,-4.96,-3.39,-9.11,-0.2891,-0.6185,0.3687,29.5625,0.5,62.0,215.3125,-23.4375,157.0625,0,1.2420001029968262,10.083046426055967,2.194027643399235,8.844421131990494,1.7781639435102716,10.9126440425774,0.7759257374259473
1776973301.202,9.8569,-0.8811,1.9321,-1.8703,1.0536,0.4535,-87.45,-0.15,-20.1,7.9368,-3.7326,1.1396,0.4844,1.3606,1.0373,-112.65,-2.4,9.0,-4.96,-3.39,-9.11,-0.2891,-0.6185,0.3687,29.5625,0.5,62.0,215.3125,-23.4375,157.0625,0,1.246999979019165,10.083046426055967,2.194027643399235,8.844421131990494,1.7781639435102716,10.9126440425774,0.7759257374259473
1776973301.207,9.7061,2.3774,1.7741,-1.9172,0.9462,0.5188,-87.45,-0.15,-20.1,8.0445,-2.9616,0.4094,0.5702,1.3925,1.1708,-109.95,-6.0,7.35,-4.55,-2.84,-8.96,-0.1756,-0.3883,0.2596,29.5625,0.5,62.0,215.375,-23.6875,157.125,0,1.252000093460083,10.149277746716757,2.2000235726009847,8.582112978165691,1.9065563012929885,10.442686435970392,0.49900341682196925
1776973301.215,9.7803,4.5825,1.5514,-1.6478,0.878,0.6731,-87.75,-1.65,-20.1,8.0445,-2.9616,0.4094,0.5702,1.3925,1.1708,-105.75,-8.4,6.15,-4.4,-3.45,-8.58,-0.132,-0.2771,0.2007,29.5625,0.5,62.0,215.4375,-23.875,157.25,0,1.2599999904632568,10.911480939817473,1.9847398947973007,8.582112978165691,1.9065563012929885,10.241039986251396,0.3667272828683462
1776973301.22,9.7803,4.5825,1.5514,-1.6478,0.878,0.6731,-87.75,-1.65,-20.1,9.8904,-1.6783,0.2466,0.4402,1.4189,1.2644,-105.75,-8.4,6.15,-4.4,-3.45,-8.58,-0.132,-0.2771,0.2007,29.5625,0.5,62.0,215.5,-24.0625,157.3125,0,1.2650001049041748,10.911480939817473,1.9847398947973007,10.034815125850601,1.9508358746957675,10.241039986251396,0.3667272828683462
1776973301.228,9.5505,5.2888,0.7518,-1.0581,0.8388,0.7576,-87.0,-1.35,-20.85,10.3214,0.4214,0.8092,0.17,1.0496,1.2073,-105.75,-8.4,6.15,-4.56,-3.39,-8.58,-0.1134,-0.2334,0.1593,29.5625,0.5,62.0,215.5625,-24.1875,157.375,0,1.2730000019073486,10.942973038895783,1.5482631591560914,10.361644684122304,1.6087676805555238,10.290874598400274,0.3044858124773632
1776973301.237,9.6941,5.3582,-0.0168,-0.4114,0.7925,0.7186,-88.35,0.0,-19.95,11.6119,2.375,0.4142,-0.3107,0.915,1.1471,-101.4,-10.2,6.45,-4.44,-3.36,-8.52,-0.1124,-0.1974,0.1211,29.5625,0.5,62.0,215.5625,-24.1875,157.375,0,1.2820000648498535,11.076378663173267,1.1461641112859886,11.859528163042574,1.4998659606778202,10.178094124147211,0.25742130836432325
1776973301.242,9.6941,5.3582,-0.0168,-0.4114,0.7925,0.7186,-88.35,0.0,-19.95,11.6119,2.375,0.4142,-0.3107,0.915,1.1471,-101.4,-10.2,6.45,-4.44,-3.36,-8.52,-0.1124,-0.1974,0.1211,30.875,-1.875,60.375,215.5625,-24.25,157.5,0,1.2870001792907715,11.076378663173267,1.1461641112859886,11.859528163042574,1.4998659606778202,10.178094124147211,0.25742130836432325
1776973301.248,9.7037,3.6272,-0.6081,0.1183,0.7405,0.652,-88.95,0.15,-19.8,11.4874,4.7908,0.7781,-0.3834,0.7815,0.9334,-100.35,-13.2,4.05,-4.14,-3.12,-8.47,-0.1287,-0.1538,0.0905,30.875,-1.875,60.375,215.5625,-24.25,157.5,0,1.2929999828338623,10.377290549078792,0.9936997232564776,12.470668105999774,1.2763124108148443,9.930503511907139,0.22001904463023195
1776973301.252,9.7037,3.6272,-0.6081,0.1183,0.7405,0.652,-88.95,0.15,-19.8,11.4874,4.7908,0.7781,-0.3834,0.7815,0.9334,-100.35,-13.2,4.05,-4.14,-3.12,-8.47,-0.1287,-0.1538,0.0905,30.875,-1.875,60.375,215.5625,-24.3125,157.5625,0,1.2970001697540283,10.377290549078792,0.9936997232564776,12.470668105999774,1.2763124108148443,9.930503511907139,0.22001904463023195
1776973301.257,9.3589,1.7813,-1.008,0.4655,0.7205,0.643,-87.75,-1.65,-17.1,11.4132,5.6982,0.8739,-0.8577,0.6872,0.68,-99.9,-13.8,5.7,-4.01,-2.94,-8.52,-0.1527,-0.12,0.0665,30.875,-1.875,60.375,215.5625,-24.3125,157.5625,0,1.3020000457763672,9.580088877458289,1.0720352139738694,12.786489693813543,1.2923982087576569,9.86479092530602,0.20527917575828292
1776973301.263,9.2009,0.8643,-1.6735,0.5521,0.7456,0.6877,-87.75,-1.65,-17.1,11.4132,5.6982,0.8739,-0.8577,0.6872,0.68,-99.9,-13.8,5.7,-3.97,-2.72,-8.56,-0.1702,-0.0949,0.0524,30.875,-1.875,60.375,215.5625,-24.375,157.6875,0,1.308000087738037,9.391707914431752,1.1548441713062416,12.786489693813543,1.2923982087576569,9.820025458215472,0.2017915013076616
1776973301.268,9.2009,0.8643,-1.6735,0.5521,0.7456,0.6877,-89.55,-1.05,-19.2,9.6367,5.8251,0.9194,-1.2462,0.6635,0.5047,-101.4,-13.2,5.1,-3.97,-2.72,-8.56,-0.1702,-0.0949,0.0524,30.875,-1.875,60.375,215.5625,-24.4375,157.75,0,1.312999963760376,9.391707914431752,1.1548441713062416,11.297923404767799,1.4993227737882193,9.820025458215472,0.2017915013076616
1776973301.277,9.0333,0.9002,-1.731,0.4471,0.7794,0.72,-89.55,-1.05,-19.2,9.0812,5.6024,0.1173,-1.3278,0.6827,0.4615,-101.4,-13.2,5.1,-3.93,-2.72,-8.54,-0.1647,-0.0742,0.0436,30.875,-1.875,60.375,215.5625,-24.4375,157.75,0,1.3220000267028809,9.241603212105572,1.151417721767387,10.670934283838506,1.5627265851709315,9.786465143247586,0.18582973389638163
1776973301.287,8.8801,1.4413,-1.4892,0.1748,0.8047,0.7328,-88.35,-3.0,-15.9,8.8969,5.1092,-0.929,-1.3238,0.676,0.4852,-101.4,-13.2,5.1,-3.74,-2.71,-8.5,-0.1353,-0.0316,0.0338,30.875,-1.875,60.375,215.5625,-24.5,157.8125,0,1.3320000171661377,9.118730083734249,1.1023125554941302,10.301543343111264,1.5635988871830269,9.67376348687521,0.1429933215223704
1776973301.292,8.7484,1.8651,-1.0702,-0.1444,0.8394,0.7578,-88.35,-3.0,-15.9,8.8969,5.1092,-0.929,-1.3238,0.676,0.4852,-101.4,-13.2,5.1,-3.74,-2.71,-8.5,-0.1353,-0.0316,0.0338,30.875,-1.875,60.375,215.5625,-24.5,157.8125,0,1.3370001316070557,9.008797289871717,1.1400458587267444,10.301543343111264,1.5635988871830269,9.67376348687521,0.1429933215223704
1776973301.297,8.7484,1.8651,-1.0702,-0.1444,0.8394,0.7578,-88.35,-3.0,-15.9,8.4755,4.4341,-1.3096,-1.1727,0.7442,0.5329,-102.0,-10.5,8.1,-3.68,-2.9,-8.4,-0.1178,-0.0262,0.0349,32.25,-1.875,60.375,215.5625,-24.5,157.9375,0,1.3420000076293945,9.008797289871717,1.1400458587267444,9.654553082354461,1.4876294363852849,9.61833665453648,0.12562360446986068
1776973301.302,8.7101,2.2314,-0.893,-0.4914,0.8455,0.7802,-88.35,-3.0,-15.9,8.4755,4.4341,-1.3096,-1.1727,0.7442,0.5329,-102.0,-10.5,8.1,-3.68,-2.9,-8.4,-0.1178,-0.0262,0.0349,32.25,-1.875,60.375,215.5625,-24.5,157.9375,0,1.3470001220703125,9.035620452962819,1.2510220821392404,9.654553082354461,1.4876294363852849,9.61833665453648,0.12562360446986068
1776973301.307,8.7101,2.2314,-0.893,-0.4914,0.8455,0.7802,-89.4,-2.85,-16.35,8.7245,3.9528,-1.3408,-0.8972,0.793,0.5375,-102.75,-10.8,9.15,-3.6,-3.03,-8.28,-0.1124,-0.072,0.0447,32.25,-1.875,60.375,215.5625,-24.5625,158.0,0,1.3519999980926514,9.035620452962819,1.2510220821392404,9.671570334232182,1.3125254626101543,9.52361800997919,0.1407687820505669
1776973301.315,8.6143,2.8347,-0.577,-0.7101,0.9443,0.8204,-89.4,-2.85,-16.35,8.5952,3.4261,-0.8882,-0.7309,0.9547,0.5225,-103.5,-10.05,10.95,-3.43,-3.29,-8.08,-0.1156,-0.1189,0.0633,32.25,-1.875,60.375,215.5625,-24.625,158.0625,0,1.3600001335144043,9.087057696526417,1.4384021204100055,9.295403352733006,1.3109817504450625,9.37418796483194,0.1775034084179794
1776973301.32,8.7987,2.9664,-0.4262,-0.7101,0.9443,0.8204,-87.75,-4.05,-16.8,8.5952,3.4261,-0.8882,-0.7309,0.9547,0.5225,-103.5,-10.05,10.95,-3.43,-3.29,-8.08,-0.1156,-0.1189,0.0633,32.25,-1.875,60.375,215.625,-24.75,158.125,0,1.3650000095367432,9.295068428473241,1.4384021204100055,9.295403352733006,1.3109817504450625,9.37418796483194,0.1775034084179794
1776973301.328,8.7987,2.9664,-0.4262,-0.8537,0.987,0.8911,-89.7,-3.6,-15.6,8.7005,2.9544,-0.51,-0.4879,0.8764,0.4972,-105.6,-8.55,11.7,-3.58,-3.3,-8.06,-0.1396,-0.1778,0.0971,32.25,-1.875,60.375,215.625,-24.875,158.25,0,1.373000144958496,9.295068428473241,1.5801999557018094,9.202569185287334,1.1195227599294262,9.416474924301557,0.24602725458777938
1776973301.338,8.8753,3.1196,-0.0479,-0.8076,1.0206,0.9731,-89.55,-4.65,-15.15,8.691,1.6041,-0.6488,-0.396,0.9459,0.4335,-105.6,-8.55,11.7,-3.73,-3.17,-8.15,-0.1844,-0.2389,0.1353,32.25,-1.875,60.375,215.625,-24.875,158.25,0,1.383000135421753,9.407717505325083,1.6250433009615466,8.861577695309116,1.1133126515045089,9.507065793398088,0.3307304945117701
1776973301.343,9.4092,2.8443,0.1101,-0.7045,1.0195,1.0384,-89.55,-4.65,-15.15,9.3158,1.2594,-1.9273,-0.8314,1.4,0.3829,-105.6,-8.55,11.7,-3.73,-3.17,-8.15,-0.1844,-0.2389,0.1353,32.1875,-2.6875,60.875,215.6875,-25.0625,158.375,0,1.3880000114440918,9.830320907274594,1.6167792242603813,9.59607749499763,1.672674017852851,9.507065793398088,0.3307304945117701
1776973301.348,9.4092,2.8443,0.1101,-0.7045,1.0195,1.0384,-89.55,-4.65,-14.7,9.3158,1.2594,-1.9273,-0.8314,1.4,0.3829,-111.3,-9.9,16.8,-3.8,-3.33,-8.06,-0.2236,-0.2705,0.1658,32.1875,-2.6875,60.875,215.6875,-25.0625,158.375,0,1.3930001258850098,9.830320907274594,1.6167792242603813,9.59607749499763,1.672674017852851,9.51275459580452,0.38814539801471304
1776973301.352,9.517,2.6552,-0.1101,-0.583,0.951,1.0531,-89.55,-4.65,-14.7,9.7683,0.4764,4.1061,0.7338,1.011,-0.0083,-111.3,-9.9,16.8,-3.8,-3.33,-8.06,-0.2236,-0.2705,0.1658,32.1875,-2.6875,60.875,215.6875,-25.25,158.5625,0,1.3970000743865967,9.881067657394112,1.5340500676314315,10.606917509814055,1.2492607133821185,9.51275459580452,0.38814539801471304
1776973301.358,9.517,2.6552,-0.1101,-0.583,0.951,1.0531,-89.85,-6.15,-13.95,9.7683,0.4764,4.1061,0.7338,1.011,-0.0083,-116.4,-11.7,21.45,-3.66,-3.06,-8.07,-0.252,-0.2825,0.1865,32.1875,-2.6875,60.875,215.6875,-25.25,158.5625,0,1.4030001163482666,9.881067657394112,1.5340500676314315,10.606917509814055,1.2492607133821185,9.374651993540882,0.42201007096987625
1776973301.362,9.0381,2.0686,-0.3089,-0.417,0.9334,1.0557,-89.85,-6.15,-13.95,9.8497,-0.2418,0.2729,0.4258,0.574,0.1287,-116.4,-11.7,21.45,-3.66,-3.06,-8.07,-0.2847,-0.2891,0.2073,32.1875,-2.6875,60.875,215.75,-25.4375,158.6875,0,1.4070000648498535,9.276948678310127,1.46956696002598,9.856446202359145,0.7261854652910645,9.374651993540882,0.45563822271622473
1776973301.368,8.8562,1.7813,-0.0622,-0.417,0.9334,1.0557,-89.85,-6.15,-13.95,9.8497,-0.2418,0.2729,0.4258,0.574,0.1287,-121.65,-14.25,22.8,-3.76,-3.07,-8.14,-0.2847,-0.2891,0.2073,32.1875,-2.6875,60.875,215.8125,-25.625,158.9375,0,1.4130001068115234,9.033779772055547,1.46956696002598,9.856446202359145,0.7261854652910645,9.477452189275343,0.45563822271622473
1776973301.378,9.2751,1.4078,0.2634,-0.1956,0.9753,1.08,-90.9,-6.75,-14.85,8.3653,3.3471,6.8905,1.3592,0.0959,0.2726,-124.35,-17.4,23.55,-4.25,-2.9,-8.32,-0.3033,-0.3218,0.2291,32.1875,-2.6875,60.875,215.8125,-25.625,158.9375,0,1.4230000972747803,9.385028524730226,1.468287931572006,11.342852936981949,1.3895798681615965,9.78237701174924,0.4980290553772942
1776973301.388,9.1746,1.1779,0.6847,0.025,0.9971,1.1008,-89.85,-5.85,-13.65,8.3582,4.6543,1.901,0.5145,1.2697,0.3461,-124.05,-16.65,23.55,-4.77,-3.32,-8.46,-0.3065,-0.3425,0.2389,32.1875,-2.6875,60.875,215.875,-25.875,159.125,0,1.433000087738037,9.275211461740373,1.485460888074809,9.753759107646651,1.4130228412874295,10.263863794887381,0.5179977895705733
1776973301.392,9.1746,1.1779,0.6847,0.1772,0.9838,1.1263,-89.85,-5.85,-13.65,9.3733,1.9704,-2.0734,-0.9555,1.2071,0.3861,-124.05,-16.65,23.55,-4.77,-3.32,-8.46,-0.3065,-0.3425,0.2389,32.1875,-2.6875,60.875,215.875,-25.875,159.125,0,1.437000036239624,9.275211461740373,1.5059262830563787,9.80001105152438,1.5871811081284959,10.263863794887381,0.5179977895705733
1776973301.398,9.1291,0.1844,0.9313,0.2201,0.9987,1.1202,-89.7,-7.95,-13.05,9.3733,1.9704,-2.0734,-0.9555,1.2071,0.3861,-124.05,-16.65,23.55,-4.97,-3.45,-8.43,-0.3196,-0.3382,0.2465,33.5625,-3.75,59.6875,215.9375,-26.0625,159.3125,0,1.443000078201294,9.178332629622876,1.5168037908707903,9.80001105152438,1.5871811081284959,10.37633364922312,0.5265791963228323
1776973301.402,9.1291,0.1844,0.9313,0.2201,0.9987,1.1202,-89.7,-7.95,-13.05,8.7317,-0.1149,-1.0175,-1.1703,0.6129,0.5127,-119.85,-16.5,21.0,-4.97,-3.45,-8.43,-0.3196,-0.3382,0.2465,33.5625,-3.75,59.6875,216.0,-26.25,159.5625,0,1.4470000267028809,9.178332629622876,1.5168037908707903,8.791535312446854,1.417077905409579,10.37633364922312,0.5265791963228323
1776973301.407,9.4882,-0.2131,1.5514,0.1607,1.012,1.1189,-89.4,-7.95,-12.75,8.7317,-0.1149,-1.0175,-1.1703,0.6129,0.5127,-119.85,-16.5,21.0,-4.38,-2.4,-8.39,-0.3491,-0.276,0.2433,33.5625,-3.75,59.6875,216.0,-26.25,159.5625,0,1.4520001411437988,9.616558262185073,1.5172032494033223,8.791535312446854,1.417077905409579,9.76404117156416,0.507190003844713
1776973301.415,9.4882,-0.2131,1.5514,0.1607,1.012,1.1189,-89.4,-7.95,-12.75,8.8849,0.0335,0.0287,-0.8828,0.7128,0.5145,-118.5,-16.95,19.35,-4.2,-2.98,-8.29,-0.3523,-0.2443,0.2127,33.5625,-3.75,59.6875,216.0625,-26.4375,159.75,0,1.4600000381469727,9.616558262185073,1.5172032494033223,8.885009507591986,1.2458450666114145,9.759328870368085,0.4785802649504052
1776973301.42,9.6845,-0.3807,1.4317,0.0234,1.0192,1.1287,-90.45,-9.45,-12.0,8.9759,0.2394,0.0096,-0.826,0.6291,0.4996,-118.5,-16.95,19.35,-4.2,-2.98,-8.29,-0.3523,-0.2443,0.2127,33.5625,-3.75,59.6875,216.0625,-26.625,160.0,0,1.4650001525878906,9.797154568036579,1.5209470372106981,8.979097133342526,1.152233904205218,9.759328870368085,0.4785802649504052
1776973301.428,10.0102,-0.3926,1.1492,-0.1836,0.9992,1.1365,-89.1,-6.9,-12.15,8.9759,0.2394,0.0096,-0.826,0.6291,0.4996,-115.8,-16.8,19.95,-3.95,-2.87,-8.18,-0.3491,-0.2389,0.2073,33.5625,-3.75,59.6875,216.125,-26.75,160.25,0,1.4730000495910645,10.083595561108151,1.5243824487312887,8.979097133342526,1.152233904205218,9.526373916658951,0.4710810015273382
1776973301.438,9.9455,-0.261,0.7973,-0.4538,0.9667,1.121,-89.1,-6.9,-12.15,8.9304,0.3543,-0.3424,-0.6869,0.8442,0.4895,-115.2,-16.95,19.65,-3.71,-3.13,-8.08,-0.3491,-0.2454,0.2182,33.5625,-3.75,59.6875,216.125,-26.75,160.25,0,1.4830000400543213,9.980820534404975,1.548252024058099,8.943981798393823,1.19336310484278,9.425889878414663,0.4792736274822557
1776973301.443,9.9455,-0.261,0.7973,-0.4538,0.9667,1.121,-89.1,-6.9,-12.15,9.4116,0.5578,-0.4717,-0.6869,0.8442,0.4895,-115.2,-16.95,19.65,-3.71,-3.13,-8.08,-0.3491,-0.2454,0.2182,33.5625,-3.75,59.6875,216.125,-26.75,160.25,0,1.4880001544952393,9.980820534404975,1.548252024058099,9.439907642027013,1.19336310484278,9.425889878414663,0.4792736274822557
1776973301.447,9.6558,0.431,0.3328,-0.4197,0.9731,1.1399,-88.95,-9.9,-11.25,9.4116,0.5578,-0.4717,-0.6869,0.8442,0.4895,-115.2,-16.95,19.65,-3.75,-3.22,-8.28,-0.3622,-0.2869,0.2585,34.5,-5.6875,59.75,216.1875,-27.0,160.5,0,1.4920001029968262,9.671142149715307,1.5564201585690156,9.439907642027013,1.19336310484278,9.643095975878285,0.529455097246216
1776973301.452,9.6558,0.431,0.3328,-0.4197,0.9731,1.1399,-88.95,-9.9,-11.25,9.3015,0.5267,0.0958,-0.7581,0.9571,0.4943,-114.0,-20.25,19.95,-3.75,-3.22,-8.28,-0.3622,-0.2869,0.2585,34.5,-5.6875,59.75,216.1875,-27.0,160.5,0,1.496999979019165,9.671142149715307,1.5564201585690156,9.316892871553264,1.31722758474001,9.643095975878285,0.529455097246216
1776973301.457,9.5864,0.2586,0.5483,-0.3619,1.0024,1.1836,-88.95,-9.9,-11.25,9.3015,0.5267,0.0958,-0.7581,0.9571,0.4943,-114.0,-20.25,19.95,-4.74,-2.21,-8.73,-0.3742,-0.3545,0.3229,34.5,-5.6875,59.75,216.3125,-27.25,160.75,0,1.502000093460083,9.605549011378788,1.5926978150295805,9.316892871553264,1.31722758474001,10.17666939622193,0.6082436189554313
1776973301.462,9.5864,0.2586,0.5483,-0.3619,1.0024,1.1836,-88.95,-9.9,-11.25,9.0956,0.4908,0.3376,-0.7565,0.9089,0.5031,-112.05,-20.7,19.35,-4.74,-2.21,-8.73,-0.3567,-0.3589,0.36,34.5,-5.6875,59.75,216.4375,-27.5,161.0,0,1.5069999694824219,9.605549011378788,1.5926978150295805,9.1150862727678,1.2851074157439137,10.17666939622193,0.6210024959692191
1776973301.468,9.3613,0.2801,0.1197,-0.2769,1.0008,1.186,-88.65,-10.35,-11.25,8.4036,0.7446,0.5124,-0.7474,0.8143,0.5105,-112.05,-20.7,19.35,-4.72,-2.17,-8.79,-0.3567,-0.3589,0.36,34.5,-5.6875,59.75,216.5625,-27.6875,161.25,0,1.5130000114440918,9.36625441625413,1.5763471223052365,8.452069325319098,1.2174980492797516,10.21035748639586,0.6210024959692191
1776973301.478,9.2225,0.4525,0.0527,-0.21,1.0245,1.1714,-88.8,-11.7,-9.6,8.1379,0.9912,0.735,-0.7293,0.8132,0.5236,-111.3,-21.9,20.7,-4.75,-2.19,-8.69,-0.3033,-0.3272,0.3338,34.5,-5.6875,59.75,216.5625,-27.6875,161.25,0,1.5230000019073486,9.233744624473866,1.5703115009449558,8.230924544059434,1.2113338474590727,10.142716598623862,0.5572011934660586
1776973301.488,9.2464,0.3615,0.5387,-0.1428,1.0168,1.1514,-88.8,-12.0,-8.1,8.5473,1.3743,0.8308,-0.7101,0.8402,0.5481,-110.7,-22.05,21.3,-4.65,-2.3,-8.66,-0.2673,-0.2913,0.3109,34.5,-5.6875,59.75,216.625,-27.9375,161.4375,0,1.5329999923706055,9.26913118366549,1.5427235786102447,8.696853823078781,1.229061292206373,10.094954185136254,0.5029550576343775
1776973301.493,9.505,0.5435,0.9697,-0.1428,1.0168,1.1514,-88.8,-12.0,-8.1,8.5473,1.3743,0.8308,-0.7101,0.8402,0.5481,-108.75,-23.7,20.4,-4.65,-2.3,-8.66,-0.2673,-0.2913,0.3109,34.5,-5.6875,59.75,216.75,-28.125,161.625,0,1.5380001068115234,9.569782408184631,1.5427235786102447,8.696853823078781,1.229061292206373,10.094954185136254,0.5029550576343775
1776973301.498,9.505,0.5435,0.9697,-0.0954,1.0317,1.1466,-88.65,-11.85,-7.5,9.3805,1.5323,0.8739,-0.7549,0.922,0.5745,-108.75,-23.7,20.4,-4.4,-2.38,-8.54,-0.2454,-0.2716,0.3011,34.875,-6.375,59.0,216.75,-28.125,161.625,0,1.5429999828338623,9.569782408184631,1.5453794388434188,9.544916173021111,1.3228787775151585,9.897272351511804,0.47397144428752247
1776973301.503,9.7755,0.2227,1.4916,-0.0954,1.0317,1.1466,-88.65,-11.85,-7.5,9.3805,1.5323,0.8739,-0.7549,0.922,0.5745,-108.75,-23.7,20.4,-4.4,-2.38,-8.54,-0.2454,-0.2716,0.3011,34.875,-6.375,59.0,216.875,-28.3125,161.8125,0,1.5480000972747803,9.89115089865684,1.5453794388434188,9.544916173021111,1.3228787775151585,9.897272351511804,0.47397144428752247
1776973301.508,9.7755,0.2227,1.4916,-0.1095,1.0187,1.1383,-88.65,-11.85,-7.5,9.6175,1.5107,0.9816,-0.7341,0.9209,0.5788,-108.75,-23.7,20.4,-4.22,-2.69,-8.5,-0.2083,-0.2618,0.2934,34.875,-6.375,59.0,216.875,-28.3125,161.8125,0,1.5529999732971191,9.89115089865684,1.5314917009242983,9.784787136161931,1.3122381872205977,9.863797443175727,0.4449850446925155
1776973301.515,9.9359,-0.8021,1.5299,-0.1569,1.0754,1.1711,-88.65,-11.85,-7.5,9.6175,1.5107,0.9816,-0.7341,0.9209,0.5788,-107.4,-25.05,22.35,-4.76,-2.19,-8.73,-0.1865,-0.2716,0.3087,34.875,-6.375,59.0,217.0,-28.5,161.9375,0,1.5600001811981201,10.084942599241703,1.597678935205694,9.784787136161931,1.3122381872205977,10.181679625680628,0.45149141741565807
1776973301.519,9.9359,-0.8021,1.5299,-0.1569,1.0754,1.1711,-87.75,-13.8,-7.2,9.8617,1.2594,1.2019,-0.8172,0.951,0.566,-107.4,-25.05,22.35,-4.76,-2.19,-8.73,-0.1865,-0.2716,0.3087,34.875,-6.375,59.0,217.125,-28.6875,162.1875,0,1.564000129699707,10.084942599241703,1.597678935205694,10.01417889095257,1.3757081231133295,10.181679625680628,0.45149141741565807
1776973301.528,10.2232,-1.2019,1.5107,-0.2822,1.1002,1.2297,-87.75,-13.8,-7.2,9.3446,0.929,1.245,-0.8644,0.8364,0.566,-108.15,-25.5,21.3,-4.95,-2.16,-8.66,-0.1593,-0.2803,0.3109,34.875,-6.375,59.0,217.125,-28.6875,162.1875,0,1.573000192642212,10.403874102467793,1.6739889396289334,9.472835645148711,1.3293262654442661,10.20606192417036,0.4478876979779641
1776973301.538,10.2041,-0.9888,0.9529,-0.4914,1.1162,1.2598,-87.45,-14.55,-6.45,9.4786,0.8284,1.0942,-0.8431,0.858,0.5865,-110.25,-25.65,22.95,-5.0,-1.96,-8.74,-0.1374,-0.2411,0.2803,34.875,-6.375,59.0,217.25,-28.875,162.3125,0,1.5830001831054688,10.296086667273155,1.7534173604706895,9.577441107101626,1.3382689789425741,10.258128484280162,0.3944313121444595
1776973301.543,10.3908,-0.8978,1.2019,-0.627,1.1327,1.3006,-87.45,-14.55,-6.45,9.4786,0.8284,1.0942,-0.8431,0.858,0.5865,-108.9,-26.55,23.1,-5.0,-1.96,-8.74,-0.1374,-0.2411,0.2803,34.875,-6.375,59.0,217.3125,-29.0,162.4375,0,1.5880000591278076,10.498539569387734,1.8351290554072759,9.577441107101626,1.3382689789425741,10.258128484280162,0.3944313121444595
1776973301.548,10.3908,-0.8978,1.2019,-0.627,1.1327,1.3006,-88.8,-15.6,-6.6,9.3565,0.8835,0.735,-0.825,0.9385,0.6158,-108.9,-26.55,23.1,-4.7,-2.04,-8.93,-0.1233,-0.2051,0.2411,35.5625,-6.6875,59.375,217.3125,-29.0,162.4375,0,1.5930001735687256,10.498539569387734,1.8351290554072759,9.42681757010286,1.3930602607209783,10.29546016455797,0.339702973198646
1776973301.553,10.5249,-0.4453,0.7566,-0.7418,1.1229,1.3606,-88.8,-15.6,-6.6,9.3565,0.8835,0.735,-0.825,0.9385,0.6158,-108.9,-26.55,23.1,-4.7,-2.04,-8.93,-0.1233,-0.2051,0.2411,35.5625,-6.6875,59.375,217.4375,-29.125,162.5,0,1.5980000495910645,10.561451399310608,1.9137408419114643,9.42681757010286,1.3930602607209783,10.29546016455797,0.339702973198646
1776973301.558,10.5249,-0.4453,0.7566,-0.7418,1.1229,1.3606,-88.65,-15.0,-5.7,10.0102,1.0032,0.3089,-0.806,0.9571,0.6688,-108.9,-26.55,23.1,-4.49,-1.7,-9.42,-0.1167,-0.1953,0.1963,35.5625,-6.6875,59.375,217.4375,-29.125,162.5,0,1.6030001640319824,10.561451399310608,1.9137408419114643,10.065084872468786,1.4187916866122385,10.572913505746653,0.3004907153307736
1776973301.563,11.248,-0.3017,0.2466,-0.8013,1.1231,1.4349,-88.65,-15.0,-5.7,10.0102,1.0032,0.3089,-0.806,0.9571,0.6688,-109.2,-27.0,23.1,-4.49,-1.7,-9.42,-0.0524,-0.2313,0.1745,35.5625,-6.6875,59.375,217.5,-29.3125,162.5625,0,1.6080000400543213,11.254747373886275,1.9905711014681189,10.065084872468786,1.4187916866122385,10.572913505746653,0.2944413354133553
1776973301.569,11.248,-0.3017,0.2466,-0.8013,1.1231,1.4349,-88.65,-17.4,-4.95,10.8098,1.1971,0.2538,-0.8732,0.8609,0.7053,-109.2,-27.0,23.1,-3.72,-1.79,-9.9,-0.0524,-0.2313,0.1745,35.5625,-6.6875,59.375,217.5625,-29.5,162.5625,0,1.6140000820159912,11.254747373886275,1.9905711014681189,10.878843637537951,1.4145936306939884,10.726252840577645,0.2944413354133553
1776973301.578,11.1426,-0.079,-0.9577,-0.8199,1.1119,1.522,-87.75,-17.4,-4.95,10.5872,1.4365,0.6464,-0.8194,0.7554,0.6904,-109.95,-27.3,24.45,-3.24,-1.43,-10.52,0.0404,-0.3262,0.1582,35.5625,-6.6875,59.375,217.5625,-29.5,162.5625,0,1.623000144958496,11.18396016847342,2.055490603238069,10.703745561718103,1.3109911059957653,11.100130629861974,0.36478190744607936
1776973301.588,10.3765,0.9577,-0.2562,-0.5361,1.1834,1.5833,-86.85,-17.55,-2.85,10.4627,1.6927,0.8739,-0.7906,0.5921,0.6299,-109.05,-27.45,24.3,-3.77,-2.39,-9.77,0.0611,-0.516,0.156,35.5625,-6.6875,59.375,217.625,-29.8125,162.5625,0,1.633000135421753,10.423750763520777,2.0480912235542634,10.63470854278574,1.1714968117754312,10.741410521900743,0.5425174743729458
1776973301.593,10.3789,0.5674,-0.9002,-0.5742,1.2337,1.6534,-86.85,-17.55,-2.85,10.6781,2.5833,0.5411,-0.7405,0.4293,0.5686,-110.55,-29.7,26.1,-3.77,-2.39,-9.77,0.0611,-0.516,0.156,35.5625,-6.6875,59.375,217.625,-29.8125,162.5625,0,1.6380000114440918,10.433305708642875,2.1413670610149955,10.999456700673901,1.0275916990711826,10.741410521900743,0.5425174743729458
1776973301.598,10.3789,0.5674,-0.9002,-0.5742,1.2337,1.6534,-86.85,-17.55,-2.85,10.6781,2.5833,0.5411,-0.7405,0.4293,0.5686,-110.55,-29.7,26.1,-4.04,-1.98,-9.95,-0.0262,-0.6578,0.1756,35.5,-8.1875,59.0,217.625,-30.1875,162.5625,0,1.6430001258850098,10.433305708642875,2.1413670610149955,10.999456700673901,1.0275916990711826,10.919913003316463,0.6813388584250865
1776973301.603,10.6853,0.2322,0.486,-0.5319,1.2574,1.716,-86.85,-17.55,-2.85,10.6087,3.5985,0.4238,-0.6976,0.3293,0.4895,-110.25,-30.15,25.8,-4.04,-1.98,-9.95,-0.0262,-0.6578,0.1756,35.5,-8.1875,59.0,217.625,-30.1875,162.5625,0,1.6480000019073486,10.698866712413984,2.1928584929265273,11.210411427775522,0.9136161666695702,10.919913003316463,0.6813388584250865
1776973301.608,10.6853,0.2322,0.486,-0.5319,1.2574,1.716,-86.85,-17.55,-2.85,10.6087,3.5985,0.4238,-0.6976,0.3293,0.4895,-110.25,-30.15,25.8,-3.56,-1.85,-10.36,0.0338,-0.745,0.1822,35.5,-8.1875,59.0,217.6875,-30.625,162.5,0,1.6530001163482666,10.698866712413984,2.1928584929265273,11.210411427775522,0.9136161666695702,11.109711967463422,0.7677006447828476
1776973301.615,11.3342,0.4046,0.7973,-0.421,1.2737,1.8237,-87.0,-20.4,-3.45,11.1618,3.9409,0.5507,-0.8386,0.2649,0.3834,-110.25,-30.15,25.8,-3.45,-1.84,-10.6,0.1462,-0.9523,0.2116,35.5,-8.1875,59.0,217.75,-31.125,162.375,0,1.6600000858306885,11.369409751170021,2.2639422209941666,11.849883650905607,0.9593839325317055,11.298145865583432,0.9864199359299264
1776973301.62,11.8944,0.5315,0.8739,-0.412,1.2974,1.954,-87.0,-20.4,-3.45,11.1618,3.9409,0.5507,-0.8386,0.2649,0.3834,-108.9,-31.05,24.45,-3.45,-1.84,-10.6,0.1462,-0.9523,0.2116,35.5,-8.1875,59.0,217.875,-31.875,162.1875,0,1.6649999618530273,11.938297400383355,2.381408566374111,11.849883650905607,0.9593839325317055,11.298145865583432,0.9864199359299264
1776973301.628,12.6797,0.7925,0.6752,-0.3515,1.3723,2.0563,-85.8,-22.2,-1.35,10.8721,3.6655,1.1349,-1.0403,0.2489,0.2617,-110.85,-30.15,26.1,-3.35,-2.28,-10.59,0.2607,-1.261,0.2585,35.5,-8.1875,59.0,217.9375,-32.75,162.0,0,1.6730000972747803,12.722371767088084,2.4970240747738095,11.529373212365016,1.1012094214998345,11.33882709983709,1.3133574304049906
1776973301.638,13.441,1.6879,0.5914,-0.5023,1.4109,2.1184,-85.8,-22.2,-1.35,12.3182,3.7613,1.3958,-1.1327,0.1322,0.1191,-109.2,-31.05,24.45,-3.44,-3.0,-10.71,0.2607,-1.6199,0.3087,35.5,-8.1875,59.0,217.9375,-32.75,162.0,0,1.683000087738037,13.55947054165464,2.594332796693593,12.955064128363086,1.1465910081628934,11.64206596785983,1.6695317277608113
1776973301.643,13.441,1.6879,0.5914,-0.5023,1.4109,2.1184,-84.15,-23.4,-1.05,13.0915,4.4628,1.3048,-0.9601,-0.0224,-0.0477,-109.2,-31.05,24.45,-3.44,-3.0,-10.71,0.2607,-1.6199,0.3087,35.5,-8.1875,59.0,218.0625,-33.9375,161.8125,0,1.687999963760376,13.55947054165464,2.594332796693593,13.892676456680332,0.9615451419460243,11.64206596785983,1.6695317277608113
1776973301.648,14.1066,1.8651,-1.0989,-0.6134,1.4658,2.233,-84.15,-25.05,-1.05,13.0915,4.4628,1.3048,-0.9601,-0.0224,-0.0477,-109.95,-31.5,23.85,-3.06,-3.7,-10.7,0.2007,-2.0486,0.4112,37.6875,-7.5,58.1875,218.0625,-33.9375,161.8125,0,1.693000078201294,14.27173229779763,2.7406419321027693,13.892676456680332,0.9615451419460243,11.727898362451816,2.0990778665880883
1776973301.653,14.1066,1.8651,-1.0989,-0.6134,1.4658,2.233,-84.15,-25.05,-1.05,13.2232,5.3702,0.7422,-0.6997,-0.0242,-0.2545,-109.95,-31.5,23.85,-3.06,-3.7,-10.7,0.2007,-2.0486,0.4112,37.6875,-7.5,58.1875,218.1875,-35.3125,161.5625,0,1.698000192642212,14.27173229779763,2.7406419321027693,14.291358477065783,0.7449402526377535,11.727898362451816,2.0990778665880883
1776973301.658,15.2678,1.4054,-3.4405,-0.8058,1.5314,2.3742,-84.15,-25.05,-1.05,13.2232,5.3702,0.7422,-0.6997,-0.0242,-0.2545,-109.95,-31.5,23.85,-3.44,-3.25,-11.19,0.252,-2.5165,0.5978,37.6875,-7.5,58.1875,218.1875,-35.3125,161.5625,0,1.7030000686645508,15.713621678340102,2.937911714126209,14.291358477065783,0.7449402526377535,12.14957612429339,2.5987768449791915
1776973301.663,15.2678,1.4054,-3.4405,-0.8058,1.5314,2.3742,-82.95,-25.95,1.65,13.0292,6.4596,-0.5219,-0.3461,-0.1807,-0.4461,-109.95,-31.5,23.85,-3.44,-3.25,-11.19,0.3196,-2.9572,0.793,37.6875,-7.5,58.1875,218.5,-37.0625,161.3125,0,1.7080001831054688,15.713621678340102,2.937911714126209,14.551936792399836,0.592826205561124,12.14957612429339,3.0783152859965464
1776973301.669,16.5056,1.2689,-4.1851,-1.0714,1.5796,2.5508,-82.95,-25.95,1.65,13.0292,6.4596,-0.5219,-0.3461,-0.1807,-0.4461,-110.4,-30.0,22.8,-1.92,-3.18,-11.06,0.3196,-2.9572,0.793,37.6875,-7.5,58.1875,218.875,-39.0,161.0,0,1.7139999866485596,17.075128127776964,3.185846003811233,14.551936792399836,0.592826205561124,11.667150466159251,3.0783152859965464
1776973301.678,17.3987,3.7302,-5.1188,-1.162,1.6156,2.7997,-82.95,-25.95,1.65,12.3397,7.9679,-2.739,0.0112,-0.2926,-0.6422,-112.5,-31.5,24.15,-1.87,-3.95,-11.57,0.5138,-3.4045,1.0494,37.6875,-7.5,58.1875,218.875,-39.0,161.0,0,1.7230000495910645,18.515703258855712,3.434927575655708,14.941812055436918,0.7058052422587977,12.36787370569412,3.599423710818164
1776973301.688,19.2949,5.3798,-7.4819,-1.4115,1.6571,3.0371,-81.75,-27.9,-0.15,11.2887,9.4643,-4.9752,0.3222,-0.5931,-0.8404,-113.25,-32.55,23.4,-1.08,-2.21,-12.57,0.5138,-4.1201,1.3941,37.6875,-7.5,58.1875,219.4375,-41.4375,160.6875,0,1.7330000400543213,21.382568640366852,3.73661465366714,15.548644224497517,1.077892670909307,12.808411298830157,4.379809272103067
1776973301.693,19.2949,5.3798,-7.4819,-1.4115,1.6571,3.0371,-81.75,-27.9,-0.15,11.078,9.3182,-6.2034,0.6971,-0.9654,-1.0557,-113.25,-32.55,23.4,-1.08,-2.21,-12.57,0.5138,-4.1201,1.3941,37.6875,-7.5,58.1875,219.4375,-41.4375,160.6875,0,1.7380001544952393,21.382568640366852,3.73661465366714,15.749066854896514,1.5913667270619931,12.808411298830157,4.379809272103067
1776973301.698,20.9636,5.8945,-7.9296,-1.4029,1.68,3.1991,-81.75,-27.9,-0.15,11.078,9.3182,-6.2034,0.6971,-0.9654,-1.0557,-114.0,-33.0,23.85,-0.52,-3.37,-13.08,0.5345,-4.8411,1.7693,42.1875,-6.6875,53.875,258.0,-44.3125,160.4375,0,1.7430000305175781,23.175336273072716,3.8761797197756453,15.749066854896514,1.5913667270619931,13.517163163918678,5.181926470917935
1776973301.702,20.9636,5.8945,-7.9296,-1.4029,1.68,3.1991,-80.55,-30.3,0.9,11.1235,10.1323,-3.474,1.3536,-0.8351,-1.3579,-114.0,-33.0,23.85,-0.52,-3.37,-13.08,0.5345,-4.8411,1.7693,42.1875,-6.6875,53.875,258.0,-44.3125,160.4375,0,1.746999979019165,23.175336273072716,3.8761797197756453,15.442293597131226,2.0912956223355894,13.517163163918678,5.181926470917935
1776973301.707,20.1041,5.4133,-6.5218,-1.2351,1.6896,3.1746,-80.55,-30.3,0.9,11.1235,10.1323,-3.474,1.3536,-0.8351,-1.3579,-115.95,-32.7,24.0,-0.64,-4.96,-13.52,0.5781,-5.669,2.2275,42.1875,-6.6875,53.875,255.25,-47.6875,160.1875,0,1.752000093460083,21.817711358893717,3.802407833202535,15.442293597131226,2.0912956223355894,14.415325178434234,6.118293623225352
1776973301.712,20.1041,5.4133,-6.5218,-1.2351,1.6896,3.1746,-77.7,-31.95,3.3,11.8633,7.1228,-6.7014,1.416,-1.6286,-1.537,-115.95,-32.7,24.0,-0.64,-4.96,-13.52,0.5596,-6.5875,2.7598,42.1875,-6.6875,53.875,252.3125,-51.625,160.125,0,1.7569999694824219,21.817711358893717,3.802407833202535,15.374684669611927,2.6494835270293717,14.415325178434234,7.164133195997964
1776973301.719,17.1688,5.5881,-4.6232,-1.0048,1.7038,3.067,-77.55,-33.75,1.65,10.6901,6.4284,-2.0279,2.2231,-2.1181,-1.7264,-115.95,-32.7,24.0,-5.22,-5.78,-14.62,0.5596,-6.5875,2.7598,42.1875,-6.6875,53.875,249.0,-56.25,160.3125,0,1.7640001773834229,18.63782533693242,3.6495268844057036,12.637837749393682,3.5226379575539695,16.565059613535954,7.164133195997964
1776973301.728,14.4897,3.1484,-0.2107,-0.9212,1.5783,2.9308,-77.55,-33.75,1.65,12.5504,4.3718,-3.9528,1.5039,-2.0875,-1.7944,-116.25,-32.55,20.55,-12.03,-4.72,-15.7,0.4363,-7.65,3.3052,42.1875,-6.6875,53.875,249.0,-56.25,160.3125,0,1.7730000019073486,14.829302854146583,3.4538715914173763,13.86541752851316,3.1367567358658848,20.334436308882523,8.344890935776213
1776973301.738,13.5272,-0.8188,3.2896,-0.2654,1.5681,2.7566,-74.85,-35.4,2.4,14.4131,1.9393,-1.7406,1.1386,-2.2721,-1.9217,-115.05,-32.55,20.55,-17.38,-4.95,-17.12,0.3622,-8.7441,3.5452,42.1875,-6.6875,53.875,245.75,-61.4375,160.5,0,1.7829999923706055,13.945502552436038,3.1824861869299608,14.646775223918745,3.186185691387117,24.892997007190598,9.442399943340675
1776973301.743,13.3956,-1.5874,6.4955,-0.2654,1.5681,2.7566,-74.7,-35.1,1.8,14.4131,1.9393,-1.7406,1.1386,-2.2721,-1.9217,-115.05,-32.55,20.55,-17.38,-4.95,-17.12,0.3622,-8.7441,3.5452,42.1875,-6.6875,53.875,243.125,-66.9375,160.0,0,1.7880001068115234,14.971755353665113,3.1824861869299608,14.646775223918745,3.186185691387117,24.892997007190598,9.442399943340675
1776973301.748,13.3956,-1.5874,6.4955,0.3163,1.6531,2.5999,-74.7,-35.1,1.8,16.0603,-1.1732,1.9824,1.2934,-2.5618,-1.9857,-114.75,-31.05,16.35,-19.35,-7.18,-17.31,0.5094,-9.3713,3.1874,52.75,-7.875,42.875,243.125,-66.9375,160.0,0,1.7929999828338623,14.971755353665113,3.097138245219286,16.224658519981247,3.4898004656426993,26.937167631360207,9.911623015934373
1776973301.753,12.6725,-0.5243,7.6806,0.5081,1.6699,2.4344,-73.05,-36.45,1.95,16.0603,-1.1732,1.9824,1.2934,-2.5618,-1.9857,-114.75,-31.05,16.35,-19.35,-7.18,-17.31,0.5094,-9.3713,3.1874,52.75,-7.875,42.875,243.125,-66.9375,160.0,0,1.7980000972747803,14.827635114879243,2.995502458687023,16.224658519981247,3.4898004656426993,26.937167631360207,9.911623015934373
1776973301.758,12.6725,-0.5243,7.6806,0.5081,1.6699,2.4344,-73.05,-36.45,1.95,16.7427,-3.8571,5.1811,1.3478,-2.5468,-2.1008,-113.85,-27.45,15.75,-19.46,-7.29,-19.15,0.5094,-9.3713,3.1874,52.75,-7.875,42.875,240.8125,-72.4375,159.3125,0,1.8029999732971191,14.827635114879243,2.995502458687023,17.945445687137447,3.5659663094314284,28.258772089388454,9.911623015934373
1776973301.763,13.0245,-1.6807,4.6807,0.4226,1.6739,2.2751,-73.05,-36.45,1.95,16.7427,-3.8571,5.1811,1.3478,-2.5468,-2.1008,-113.85,-27.45,15.75,-19.46,-7.29,-19.15,0.6861,-8.8826,2.9987,52.75,-7.875,42.875,239.0,-77.625,158.0625,0,1.808000087738037,13.941710986460736,2.855978287732594,17.945445687137447,3.5659663094314284,28.258772089388454,9.400187107712272
1776973301.769,13.0245,-1.6807,4.6807,0.4226,1.6739,2.2751,-73.05,-36.45,1.95,16.666,-5.3079,7.015,0.8545,-2.4131,-2.1575,-113.85,-27.45,15.75,-12.47,-8.2,-18.1,0.6861,-8.8826,2.9987,52.75,-7.875,42.875,237.625,-81.875,157.5,0,1.814000129699707,13.941710986460736,2.855978287732594,18.845147476472558,3.3478393196209404,23.45955881938107,9.400187107712272
1776973301.779,13.1681,-3.2058,3.6248,0.6137,1.5863,2.0824,-70.8,-38.55,4.5,16.3093,-4.4652,7.2999,0.1689,-1.987,-2.0941,-109.8,-24.9,11.55,-7.69,-8.96,-17.31,0.7756,-7.1733,2.882,52.75,-7.875,42.875,237.625,-81.875,157.5,0,1.8240001201629639,14.029083586963191,2.6887478758708485,18.417921097127113,2.8917038264663275,20.953610667376637,7.769408745200629
1776973301.789,12.0668,-6.3039,3.893,1.162,1.5665,1.7147,-70.35,-36.9,6.0,16.1968,-2.8515,5.6838,-0.5588,-1.6577,-1.9089,-110.4,-21.75,9.9,3.76,-7.72,-11.09,0.7352,-6.7435,3.0598,52.75,-7.875,42.875,236.1875,-86.0,178.5625,0,1.8340001106262207,14.159882289411872,2.5969910165420287,17.400372551471417,2.589232693289655,14.025836873427552,7.441618596112004
1776973301.793,12.323,-8.0541,8.6838,2.0598,1.2942,1.1335,-68.7,-39.9,7.35,16.1968,-2.8515,5.6838,-0.5588,-1.6577,-1.9089,-110.4,-21.75,9.9,3.76,-7.72,-11.09,0.7352,-6.7435,3.0598,52.75,-7.875,42.875,234.6875,-89.5,-0.4375,0,1.8380000591278076,17.091905635417017,2.683757054951137,17.400372551471417,2.589232693289655,14.025836873427552,7.441618596112004
1776973301.799,12.323,-8.0541,8.6838,2.0598,1.2942,1.1335,-68.7,-39.9,7.35,14.631,-1.4054,4.4963,-1.0272,-1.558,-1.8122,-104.55,-18.75,8.55,-2.15,4.95,-11.45,0.805,-6.7435,3.4852,62.25,-12.1875,18.1875,234.6875,-89.5,-0.4375,0,1.8440001010894775,17.091905635417017,2.683757054951137,15.3706871625832,2.6012636698343368,12.65810017340675,7.63344196873206
1776973301.804,10.5129,-9.4164,11.6143,2.2018,0.6246,0.9467,-66.75,-39.0,8.1,14.631,-1.4054,4.4963,-1.0272,-1.558,-1.8122,-104.55,-18.75,8.55,-2.15,4.95,-11.45,0.805,-6.7435,3.4852,62.25,-12.1875,18.1875,233.4375,-86.1875,-2.4375,0,1.8489999771118164,18.277899766110984,2.4767497431109184,15.3706871625832,2.6012636698343368,12.65810017340675,7.63344196873206
1776973301.809,10.5129,-9.4164,11.6143,2.2018,0.6246,0.9467,-66.75,-39.0,8.1,14.3269,-0.3998,4.0654,-0.8724,-1.4381,-1.7917,-103.8,-17.25,6.3,-30.23,-5.9,-11.38,1.1814,-5.1542,3.5681,62.25,-12.1875,18.1875,233.4375,-86.1875,-2.4375,0,1.8540000915527344,18.277899766110984,2.4767497431109184,14.897898536706444,2.4575195340017135,32.83545796848279,6.379092506775553
1776973301.818,7.7907,-8.1762,13.0939,1.773,0.4535,0.9934,-68.4,-40.05,9.3,13.6781,0.486,3.225,-0.586,-1.6238,-1.8447,-102.9,-13.95,4.35,-9.52,-14.56,-17.82,1.9962,-1.1596,2.4162,62.25,-12.1875,18.1875,233.1875,-84.75,-3.875,0,1.8630001544952393,17.29148548101059,2.0823147720745774,14.061551856391954,2.5264679950476316,24.9033411413007,3.3417823148733072
1776973301.828,4.9752,-5.0973,11.5855,1.691,0.2161,0.813,-67.5,-39.45,9.9,12.8497,1.968,3.0646,-0.4274,-1.9215,-1.9156,-102.9,-13.95,4.35,-10.17,-17.3,-16.52,1.5304,1.5457,1.0799,62.25,-12.1875,18.1875,233.3125,-84.8125,-4.5,0,1.873000144958496,13.599959285968469,1.8886898130714849,13.355882121746957,2.746699177194328,25.9928701762618,2.4284762012422525
1776973301.836,5.5282,-1.8651,9.3637,0.8671,-0.4932,0.2888,-67.5,-39.45,9.9,11.7005,3.8331,3.0526,-0.5476,-2.1141,-1.9646,-100.95,-9.0,3.15,-5.45,-16.16,-12.85,0.5181,3.122,0.2989,62.25,-12.1875,18.1875,233.3125,-85.1875,-4.6875,0,1.88100004196167,11.032609434762023,1.0385153296894563,12.685137863657612,2.9375053582929853,21.353468102394984,3.178781656547049
1776973301.841,5.1571,-0.9266,5.9496,-0.2944,-1.0216,-0.2204,-67.5,-37.5,8.4,11.7005,3.8331,3.0526,-0.5476,-2.1141,-1.9646,-100.95,-9.0,3.15,-5.45,-16.16,-12.85,0.5181,3.122,0.2989,62.25,-12.1875,18.1875,233.3125,-85.1875,-4.6875,0,1.886000156402588,7.927925840344371,1.0857780988765615,12.685137863657612,2.9375053582929853,21.353468102394984,3.178781656547049
1776973301.846,5.1571,-0.9266,5.9496,-0.2944,-1.0216,-0.2204,-67.5,-37.5,8.4,10.4411,4.3048,2.0399,-0.8159,-2.0832,-1.918,-101.25,-7.8,1.35,0.25,-10.45,-6.69,-0.5923,3.8332,-0.0175,57.5,-18.0625,0.5625,232.8125,-85.125,-175.25,0,1.8910000324249268,7.927925840344371,1.0857780988765615,11.47645695587275,2.9468863313673976,12.410523760099732,3.8787301762303605
1776973301.851,4.3718,-1.142,4.5418,-0.98,-1.2753,-0.5873,-67.5,-37.5,8.4,10.4411,4.3048,2.0399,-0.8159,-2.0832,-1.918,-101.25,-7.8,1.35,0.25,-10.45,-6.69,-0.5923,3.8332,-0.0175,57.5,-18.0625,0.5625,232.8125,-85.125,-175.25,0,1.8960001468658447,6.406617397660017,1.7122241033229266,11.47645695587275,2.9468863313673976,12.410523760099732,3.8787301762303605
1776973301.855,4.3718,-1.142,4.5418,-0.98,-1.2753,-0.5873,-67.5,-37.5,8.4,9.4954,5.1308,3.4931,-0.6107,-1.4514,-1.9327,-102.15,-6.9,0.75,0.6,-7.42,-4.92,-1.3515,4.0012,-0.2345,57.5,-18.0625,0.5625,231.9375,-84.1875,-175.375,0,1.9000000953674316,6.406617397660017,1.7122241033229266,11.344138460456131,2.492959233521479,8.923160874936638,4.229792422802801
1776973301.86,3.6775,-1.2019,4.5011,-0.8372,-1.4685,-0.8402,-67.5,-37.5,8.4,9.4954,5.1308,3.4931,-0.6107,-1.4514,-1.9327,-102.15,-6.9,0.75,0.6,-7.42,-4.92,-1.3515,4.0012,-0.2345,57.5,-18.0625,0.5625,231.0625,-82.8125,-142.125,0,1.9049999713897705,5.935357703626632,1.8876790325688315,11.344138460456131,2.492959233521479,8.923160874936638,4.229792422802801
1776973301.869,3.1723,-1.221,5.035,-0.2582,-1.6164,-1.0904,-69.45,-37.95,6.9,8.8538,5.2672,3.8786,0.0983,-0.9126,-2.1226,-102.75,-4.8,0.0,1.17,-5.27,-3.77,-1.6417,4.0906,-0.4996,57.5,-18.0625,0.5625,230.3125,-81.125,-152.6875,0,1.9140000343322754,6.07499409793952,1.966821893309102,11.008029262315757,2.312559709499411,6.5844286008734265,4.435965217401958
1776973301.879,2.964,-1.573,5.4564,0.3096,-1.8191,-1.4258,-69.6,-38.1,6.0,9.1291,5.4324,3.9097,0.7821,-0.6123,-2.2934,-102.75,-4.8,0.0,1.68,-4.16,-2.89,-1.5959,4.119,-0.8149,57.5,-18.0625,0.5625,230.3125,-81.125,-152.6875,0,1.9240000247955322,6.405616750946001,2.3319268020244546,11.319769903138491,2.4992549409774107,5.336674994788422,4.491894903044816
1776973301.889,2.8371,-1.743,5.7174,0.6382,-2.1621,-1.7333,-69.15,-35.7,6.45,9.2488,4.7238,2.8587,0.9747,-0.453,-2.4541,-103.05,-2.25,2.4,1.75,-3.6,-2.25,-1.3952,3.9968,-1.1181,57.5,-18.0625,0.5625,229.875,-79.3125,-160.375,0,1.934000015258789,6.6163319271330385,2.8436428291893483,10.771571545972295,2.679152086015275,4.591840589567543,4.378486141350684
1776973301.894,2.8371,-1.743,5.7174,0.6382,-2.1621,-1.7333,-70.8,-36.9,4.95,9.2871,3.6129,2.4828,1.0781,-0.3882,-2.4728,-103.05,-2.25,2.4,1.75,-3.6,-2.25,-1.3952,3.9968,-1.1181,57.5,-18.0625,0.5625,229.875,-79.3125,-160.375,0,1.939000129699707,6.6163319271330385,2.8436428291893483,10.26974043781049,2.7253878054324674,4.591840589567543,4.378486141350684
1776973301.899,2.5139,-2.1931,5.7868,0.8324,-2.4664,-1.971,-70.8,-36.9,4.95,9.2871,3.6129,2.4828,1.0781,-0.3882,-2.4728,-106.35,-1.5,3.45,1.14,-3.65,-2.51,-1.1388,3.8801,-1.4083,52.0,-18.5625,8.0,229.75,-77.5,-166.4375,0,1.944000005722046,6.67955350753327,3.2650971991657465,10.26974043781049,2.7253878054324674,4.5740791422973865,4.281979722044466
1776973301.904,2.5139,-2.1931,5.7868,0.8324,-2.4664,-1.971,-71.85,-35.4,3.75,8.2887,1.9249,2.3296,0.9662,-0.2403,-2.3475,-105.6,-0.75,5.25,1.14,-3.65,-2.51,-1.1388,3.8801,-1.4083,52.0,-18.5625,8.0,229.75,-77.5,-166.4375,0,1.9490001201629639,6.67955350753327,3.2650971991657465,8.82240465292768,2.549910347443612,4.5740791422973865,4.281979722044466
1776973301.909,2.7892,-2.3415,6.2824,0.9699,-2.7739,-2.0989,-71.85,-35.4,3.75,8.2887,1.9249,2.3296,0.9662,-0.2403,-2.3475,-105.6,-0.75,5.25,0.26,-3.94,-3.08,-0.8694,3.8648,-1.7311,52.0,-18.5625,8.0,230.0,-75.5625,-171.5625,0,1.9539999961853027,7.261598215957696,3.6111782606235323,8.82240465292768,2.549910347443612,5.00775398756768,4.3231056672258195
1776973301.916,2.794,-2.4181,6.4955,0.9699,-2.7739,-2.0989,-71.85,-33.45,4.95,8.3965,1.1133,2.3918,1.0752,-0.2142,-2.2148,-108.15,0.75,7.05,-1.68,-5.44,-4.23,-0.6447,3.9423,-2.0966,52.0,-18.5625,8.0,230.5625,-73.5,-176.25,0,1.9609999656677246,7.472962187780693,3.6111782606235323,8.801213347033464,2.471290294562741,7.092876708360297,4.511440893993846
1776973301.921,2.794,-2.4181,6.4955,1.0706,-3.0084,-2.141,-71.85,-33.45,4.95,8.3965,1.1133,2.3918,1.0752,-0.2142,-2.2148,-108.15,0.75,7.05,-1.68,-5.44,-4.23,-0.6447,3.9423,-2.0966,52.0,-18.5625,8.0,231.5625,-71.25,179.4375,0,1.9660000801086426,7.472962187780693,3.8445462567122273,8.801213347033464,2.471290294562741,7.092876708360297,4.511440893993846
1776973301.929,3.134,-2.6791,6.6391,1.1812,-3.1874,-2.2484,-71.85,-33.45,4.95,7.9464,0.5507,1.7861,1.2513,-0.4506,-2.0558,-109.65,3.3,8.55,-2.67,-6.43,-4.75,-0.5116,4.0928,-2.4871,52.0,-18.5625,8.0,232.8125,-68.8125,175.5625,0,1.9739999771118164,7.8151891608584885,4.075543492590897,8.16325282347668,2.4484904921195834,8.42830350663762,4.816473067504894
1776973301.939,3.292,-2.7509,6.371,1.3462,-3.4113,-2.3614,-75.6,-32.55,2.4,6.9815,1.1875,3.6368,1.6145,-0.5343,-1.8125,-109.65,3.3,8.55,-3.72,-7.5,-5.33,-0.5269,4.2979,-2.8983,52.0,-18.5625,8.0,232.8125,-68.8125,175.5625,0,1.9839999675750732,7.680778333606563,4.361815228778037,7.961018323053904,2.4854060010388643,9.924580595672545,5.210538447224049
1776973301.944,3.292,-2.7509,6.371,1.3462,-3.4113,-2.3614,-75.15,-32.4,2.55,6.0501,1.1277,3.5075,1.9628,-0.3661,-1.6113,-108.75,3.45,9.75,-3.72,-7.5,-5.33,-0.5269,4.2979,-2.8983,52.0,-18.5625,8.0,234.25,-66.125,172.125,0,1.9890000820159912,7.680778333606563,4.361815228778037,7.083641263502831,2.5657164184687287,9.924580595672545,5.210538447224049
1776973301.949,3.2585,-2.4229,5.4875,1.3507,-3.6047,-2.4714,-75.15,-32.4,2.55,6.0501,1.1277,3.5075,1.9628,-0.3661,-1.6113,-108.75,3.45,9.75,-4.71,-8.23,-5.7,-0.7025,4.552,-3.3478,46.75,-18.375,15.5625,234.25,-66.125,172.125,0,1.99399995803833,6.826486864412763,4.574502217728176,7.083641263502831,2.5657164184687287,11.06376970114617,5.694029776002229
1776973301.954,3.4405,-2.3583,4.2976,1.3507,-3.6047,-2.4714,-77.55,-30.3,0.9,5.8562,1.2091,3.5171,2.2266,-0.1647,-1.4709,-109.8,2.7,8.7,-4.71,-8.23,-5.7,-0.7025,4.552,-3.3478,46.75,-18.375,15.5625,235.8125,-63.125,169.25,0,1.999000072479248,5.988988637491309,4.574502217728176,6.937362154306203,2.6736530178764784,11.06376970114617,5.694029776002229
1776973301.959,3.4405,-2.3583,4.2976,1.4144,-3.6444,-2.6015,-77.55,-30.3,0.9,5.8562,1.2091,3.5171,2.2266,-0.1647,-1.4709,-109.8,2.7,8.7,-6.02,-8.31,-5.69,-0.9839,4.8007,-3.7808,46.75,-18.375,15.5625,235.8125,-63.125,169.25,0,2.004000186920166,5.988988637491309,4.6957407264456155,6.937362154306203,2.6736530178764784,11.73339678013149,6.1894449137220695
1776973301.964,3.9361,-2.4349,4.0749,1.4144,-3.6444,-2.6015,-77.25,-29.85,1.2,5.6312,1.0965,3.4812,2.3803,-0.0733,-1.2931,-109.8,1.2,8.7,-6.02,-8.31,-5.69,-1.2665,5.0058,-4.1168,46.75,-18.375,15.5625,237.4375,-59.9375,166.875,0,2.009000062942505,6.1665574861506,4.6957407264456155,6.71054983812802,2.709853979460886,11.73339678013149,6.60379422226344
1776973301.97,3.9361,-2.4349,4.0749,1.4842,-3.6956,-2.7584,-77.25,-29.85,1.2,5.6312,1.0965,3.4812,2.3803,-0.0733,-1.2931,-109.8,1.2,8.7,-6.15,-7.97,-5.51,-1.2665,5.0058,-4.1168,46.75,-18.375,15.5625,239.1875,-56.625,165.0625,0,2.015000104904175,6.1665574861506,4.844489607791517,6.71054983812802,2.709853979460886,11.476214532675833,6.60379422226344
1776973301.979,4.5945,-3.2058,4.2545,1.4165,-3.7617,-2.8927,-79.65,-25.8,-2.55,5.5043,0.9337,3.4477,2.7374,-0.121,-1.0648,-110.55,0.45,9.3,-6.42,-7.48,-5.27,-1.4759,5.1313,-4.3033,46.75,-18.375,15.5625,239.1875,-56.625,165.0625,0,2.0240001678466797,7.0347248801925435,4.952229036504673,6.561688004621981,2.939693657509231,11.177642864217841,6.8576170343640515
1776973301.989,5.3367,-3.5817,5.3008,1.4583,-3.8472,-3.0569,-81.9,-28.5,-1.8,4.8674,0.6632,3.134,2.8834,-0.1218,-0.8212,-110.55,0.45,9.3,-7.01,-5.92,-5.75,-1.5446,5.1902,-4.3404,46.75,-18.375,15.5625,241.0,-53.1875,163.6875,0,2.0340001583099365,8.33111171573158,5.12564379761216,5.826952290863552,3.0005333259272424,10.828157738045748,6.9399594638585596
1776973301.994,5.7868,-3.5817,5.1356,1.4077,-3.9855,-3.2242,-81.9,-28.5,-1.8,4.9536,-0.3591,2.9425,2.9751,-0.0035,-0.6281,-113.7,-0.3,8.85,-7.01,-5.92,-5.75,-1.5446,5.1902,-4.3404,46.75,-18.375,15.5625,241.0,-53.1875,163.6875,0,2.0390000343322754,8.525844033877233,5.316135361331575,5.772816645278109,3.0406811523078177,10.828157738045748,6.9399594638585596
1776973301.999,5.7868,-3.5817,5.1356,1.4077,-3.9855,-3.2242,-81.9,-28.5,-1.8,4.9536,-0.3591,2.9425,3.0606,0.1359,-0.462,-113.7,-0.3,8.85,-7.28,-5.1,-6.27,-1.4094,5.1814,-4.3022,44.0,-17.1875,25.1875,243.125,-49.75,162.625,0,2.0440001487731934,8.525844033877233,5.316135361331575,5.772816645278109,3.0982551815497703,10.877559468925002,6.880569682809702
1776973302.004,6.3063,-3.6823,4.9608,1.4019,-4.099,-3.4166,-83.85,-24.6,-2.85,5.375,-0.7087,2.8276,3.0606,0.1359,-0.462,-114.6,-1.95,9.3,-7.28,-5.1,-6.27,-1.4094,5.1814,-4.3022,44.0,-17.1875,25.1875,243.125,-49.75,162.625,0,2.0490000247955322,8.828266512741898,5.517271079981479,6.11458931163819,3.0982551815497703,10.877559468925002,6.880569682809702
1776973302.009,6.3063,-3.6823,4.9608,1.4019,-4.099,-3.4166,-83.85,-24.6,-2.85,5.375,-0.7087,2.8276,2.7603,0.3379,-0.323,-114.6,-1.95,9.3,-7.6,-5.02,-6.77,-1.0886,5.1793,-4.2237,44.0,-17.1875,25.1875,245.875,-46.3125,161.75,0,2.05400013923645,8.828266512741898,5.517271079981479,6.11458931163819,2.7996002393198927,11.348713583486015,6.771251002584382
1776973302.014,6.845,-3.5051,4.9392,1.4583,-4.2144,-3.5911,-83.85,-24.6,-2.85,5.3917,-1.3527,2.6193,2.7603,0.3379,-0.323,-115.95,-1.95,11.1,-7.6,-5.02,-6.77,-0.6872,5.176,-4.0939,44.0,-17.1875,25.1875,249.3125,-42.875,160.9375,0,2.059000015258789,9.139772844551445,5.725714406080694,6.144994602926841,2.7996002393198927,11.348713583486015,6.635000908063239
1776973302.02,6.845,-3.5051,4.9392,1.4583,-4.2144,-3.5911,-83.85,-24.6,-2.85,5.4468,-2.2913,2.5618,2.5066,0.4796,-0.2006,-115.95,-1.95,11.1,-8.08,-5.74,-7.65,-0.6872,5.176,-4.0939,44.0,-17.1875,25.1875,208.75,-39.4375,160.125,0,2.065000057220459,9.139772844551445,5.725714406080694,6.440536093369868,2.5599414212047904,12.520243607853644,6.635000908063239
1776973302.029,7.4484,-3.5817,5.0805,1.5993,-4.2911,-3.768,-86.55,-18.75,-8.1,6.3087,-3.3591,2.3774,2.2487,0.6371,-0.0759,-116.85,-3.3,12.0,-8.3,-6.33,-8.17,-0.2967,5.1411,-3.9499,44.0,-17.1875,25.1875,208.75,-39.4375,160.125,0,2.074000120162964,9.701480180879617,5.930356119155071,7.532282473460485,2.3384415558230227,13.255481884865597,6.4900423812175525
