timestamp,thigh_acc_x,thigh_acc_y,thigh_acc_z,thigh_gyro_x,thigh_gyro_y,thigh_gyro_z,thigh_mag_x,thigh_mag_y,thigh_mag_z,shank_acc_x,shank_acc_y,shank_acc_z,shank_gyro_x,shank_gyro_y,shank_gyro_z,shank_mag_x,shank_mag_y,shank_mag_z,foot_acc_x,foot_acc_y,foot_acc_z,foot_gyro_x,foot_gyro_y,foot_gyro_z,foot_mag_x,foot_mag_y,foot_mag_z,foot_euler_x,foot_euler_y,foot_euler_z,perturbation_event,time_s,thigh_acc_mag,thigh_gyro_mag,shank_acc_mag,shank_gyro_mag,foot_acc_mag,foot_gyro_mag
1776724005.758,0.9409,-2.8204,9.3661,0.3216,0.1873,0.1013,-14.7,-4.2,25.8,0.6895,-2.8395,9.5074,0.3134,0.1633,0.118,-43.8,-25.5,21.15,-1.34,2.77,8.85,-21.875,-9.375,5.25,530.5625,285.1875,547.75,358.12,-7.62,-18.12,0,0.0,9.826687039892946,0.38570654648320396,9.946297062726408,0.3725727445748011,9.369685160132116,24.371474103960146
1776724005.765,0.9481,-3.1412,9.505,0.3216,0.1873,0.1013,-14.7,-4.2,26.4,0.9505,-3.0813,9.7947,0.2108,0.1543,0.0919,-43.65,-28.05,21.75,-1.34,2.77,8.85,-21.875,-9.375,5.25,530.5625,285.1875,547.75,358.06,-7.5,-17.88,0,0.0070002079010009766,10.055399348111441,0.38570654648320396,10.311838246888865,0.27693093001685454,9.369685160132116,24.371474103960146
1776724005.772,1.1372,-2.7222,9.4643,0.2174,0.1892,0.0759,-14.7,-4.2,26.4,0.9505,-3.0813,9.7947,0.2108,0.1543,0.0919,-43.65,-28.05,21.75,-1.0,2.66,9.15,-23.5,-9.5625,5.8125,530.5625,285.1875,547.75,358.0,-7.44,-17.69,0,0.014000177383422852,9.913454048413197,0.29802719674553196,10.311838246888865,0.27693093001685454,9.581132500910318,26.02837994382286
1776724005.782,1.1037,-2.9185,9.3302,0.1308,0.1932,0.0528,-15.6,-4.8,24.9,0.9122,-3.2825,9.4954,0.1186,0.1668,0.0602,-43.65,-28.05,21.75,-1.07,2.67,9.24,-21.5,-9.4375,6.0,530.5625,285.1875,547.75,357.94,-7.31,-17.5,0,0.024000167846679688,9.838110996527737,0.23921270869249403,10.088088830397956,0.21333597915025962,9.6773653439353,24.2346117412679
1776724005.792,1.3479,-2.9544,9.5505,0.1026,0.194,0.0509,-15.9,-5.25,24.9,0.9697,-3.158,9.4475,0.0938,0.1596,0.0679,-42.6,-27.9,21.15,-1.38,2.71,9.43,-16.4375,-9.3125,5.125,530.5625,285.1875,547.75,357.94,-7.19,-17.44,0,0.03400015830993652,10.087485515231236,0.22528552993923068,10.008423369342445,0.19718268179533416,9.908249088512056,19.5749760536252
1776724005.802,1.1708,-2.8826,9.4786,0.0634,0.2092,0.0557,-15.75,-4.2,25.35,1.087,-3.1436,9.4308,0.0528,0.1801,0.0637,-43.2,-27.3,20.7,-1.25,2.94,9.21,-10.375,-9.3125,3.5,530.5625,285.1875,547.75,357.94,-7.19,-17.44,0,0.04400014877319336,9.976172279987953,0.22558078375606375,10.000188928215307,0.19819571135622488,9.748343449017376,14.374048881578217
1776724005.809,1.1708,-2.8826,9.4786,0.0437,0.2284,0.06,-15.75,-4.2,25.35,1.087,-3.1436,9.4308,0.025,0.1948,0.0751,-41.1,-28.35,21.15,-1.4,2.9,9.35,-7.1875,-9.5625,3.0,529.5,281.5,549.25,357.94,-7.12,-17.31,0,0.051000118255615234,9.976172279987953,0.2401588016292553,10.000188928215307,0.21026661646585748,9.889009050455966,12.33294622140225
1776724005.815,1.0415,-2.9161,9.2919,0.0517,0.2334,0.0687,-14.25,-4.95,25.8,0.9361,-3.1675,9.3541,0.036,0.2078,0.0791,-42.0,-28.05,21.45,-1.4,2.9,9.35,-7.1875,-9.5625,3.0,529.5,281.5,549.25,357.94,-7.12,-17.31,0,0.057000160217285156,9.79427215621457,0.24873306977561305,9.92010717028803,0.22524131503789444,9.889009050455966,12.33294622140225
1776724005.822,1.0391,-3.0694,9.0932,0.0517,0.2334,0.0687,-14.25,-4.95,25.8,0.8571,-3.1101,9.2464,0.0831,0.1998,0.0829,-42.0,-28.05,21.45,-1.35,2.93,9.25,-5.4375,-10.3125,3.0625,529.5,281.5,549.25,357.88,-6.88,-17.25,0,0.06400012969970703,9.653353376417957,0.24873306977561305,9.793020748471841,0.23172841862835902,9.796422816518282,12.053753305506131
1776724005.832,1.008,-3.0406,9.0668,0.1082,0.227,0.0725,-16.5,-4.95,25.05,0.8452,-3.0358,9.2775,0.1719,0.1751,0.0914,-43.8,-28.35,21.6,-1.19,2.93,9.0,-3.4375,-11.1875,3.5625,529.5,281.5,549.25,357.88,-6.75,-17.25,0,0.07400012016296387,9.616037364736059,0.2617106990552736,9.798084043832244,0.26184648174073294,9.539444428267299,12.233886085377778
1776724005.842,0.9505,-2.9568,9.153,0.1964,0.2081,0.0754,-15.0,-6.9,24.75,0.7901,-3.0646,9.4355,0.2438,0.1556,0.0909,-40.8,-27.9,21.6,-1.16,2.94,8.87,-3.625,-12.125,4.0,529.5,281.5,549.25,357.81,-6.62,-17.19,0,0.0840001106262207,9.665584591218474,0.29591169290854324,9.95211994602155,0.30317092538698365,9.416267838161783,13.272386748433757
1776724005.852,0.8811,-2.624,9.4595,0.2686,0.1865,0.085,-15.9,-6.0,24.15,0.668,-2.9999,9.6031,0.2433,0.1498,0.097,-40.8,-27.9,21.6,-1.13,2.89,8.82,-6.0,-11.8125,4.1875,529.5,281.5,549.25,357.81,-6.62,-17.19,0,0.09400010108947754,9.856158149096432,0.3378656685725852,10.082913944887162,0.3017348670604708,9.349941176285549,13.894974361257383
1776724005.859,0.6321,-2.7749,9.2536,0.2494,0.1767,0.0861,-15.9,-6.0,25.2,0.668,-2.9999,9.6031,0.2433,0.1498,0.097,-43.2,-27.0,22.5,-1.08,2.85,8.89,-11.1875,-10.625,4.375,530.0,280.0,549.6875,357.81,-6.56,-17.06,0,0.10100007057189941,9.681360099696738,0.31754757123933414,10.082913944887162,0.3017348670604708,9.397925302959159,16.037188227678815
1776724005.865,0.6321,-2.7749,9.2536,0.2619,0.1444,0.0909,-15.9,-6.0,25.2,0.4693,-2.9113,9.4571,0.2401,0.1228,0.1053,-43.2,-27.0,22.5,-1.08,2.85,8.89,-11.1875,-10.625,4.375,530.0,280.0,549.6875,357.81,-6.56,-17.06,0,0.10700011253356934,9.681360099696738,0.3125792379541546,9.906192537498956,0.28950982712163675,9.397925302959159,16.037188227678815
1776724005.872,0.6057,-2.8132,9.1985,0.2619,0.1444,0.0909,-15.9,-6.0,25.2,0.4788,-3.0789,9.5241,0.3024,0.0871,0.1045,-43.2,-27.0,22.5,-0.92,2.7,9.05,-15.6875,-9.3125,4.6875,530.0,280.0,549.6875,357.69,-6.38,-16.75,0,0.11400008201599121,9.638120614518163,0.3125792379541546,10.020846045120143,0.33159074172841435,9.488882969032762,18.83594884124503
1776724005.882,0.8284,-3.0526,9.2871,0.4141,0.0906,0.1042,-15.15,-7.05,24.15,0.6919,-3.0071,9.3948,0.392,0.0629,0.1228,-40.95,-29.25,21.75,-0.73,2.73,8.92,-16.1875,-8.4375,5.0,530.0,280.0,549.6875,357.62,-6.25,-16.62,0,0.12400007247924805,9.810955087553912,0.4365143869335809,9.888561222948463,0.4155721958938062,9.356933258285002,18.9268740815804
1776724005.892,0.8212,-3.0694,9.1889,0.4807,0.0743,0.1047,-12.75,-7.2,22.5,0.6776,-2.9018,9.505,0.4511,0.0405,0.121,-41.1,-26.4,21.15,-0.76,2.85,8.93,-16.25,-7.0625,5.25,530.0,280.0,549.6875,357.56,-6.19,-16.44,0,0.13400006294250488,9.722729504105315,0.497549062907368,9.961155053506598,0.4687989547769918,9.404520189781083,18.479824302465648
1776724005.902,0.838,-2.5809,9.4523,0.5025,0.0733,0.0821,-14.4,-7.5,21.3,0.565,-2.6839,9.5026,0.4903,0.0413,0.1092,-42.6,-28.65,21.9,-0.99,2.82,9.06,-19.8125,-5.0625,5.5625,530.0,280.0,549.6875,357.56,-6.19,-16.44,0,0.14400005340576172,9.834086846270983,0.5144118486193722,9.890498014255904,0.5040083531053826,9.540235846141332,21.192108643313436
1776724005.909,0.8236,-2.5402,10.0149,0.5025,0.0733,0.0821,-14.4,-7.5,21.3,0.7638,-2.6743,9.9216,0.3595,0.0839,0.0509,-41.1,-27.45,20.85,-1.0,2.81,9.12,-24.8125,-3.4375,6.0,529.1875,278.375,551.0625,357.5,-6.19,-16.19,0,0.1510000228881836,10.364803664807164,0.5144118486193722,10.30404859703214,0.37265301555200114,9.595337409387957,25.758038793743594
1776724005.915,0.8236,-2.5402,10.0149,0.3288,0.117,0.0362,-13.05,-8.25,24.15,0.7638,-2.6743,9.9216,0.3595,0.0839,0.0509,-41.55,-28.35,20.55,-1.0,2.81,9.12,-24.8125,-3.4375,6.0,529.1875,278.375,551.0625,357.5,-6.19,-16.19,0,0.15700006484985352,10.364803664807164,0.3508687503896578,10.30404859703214,0.37265301555200114,9.595337409387957,25.758038793743594
1776724005.922,0.5578,-0.7661,9.4643,0.1479,0.1799,0.0714,-13.05,-8.25,24.15,0.577,-1.743,9.1794,0.154,0.1404,0.097,-41.55,-28.35,20.55,-0.95,2.13,9.27,-28.9375,-2.5625,6.0,529.1875,278.375,551.0625,357.38,-6.06,-15.62,0,0.1640000343322754,9.511625756935562,0.2435905991617903,9.361215859064462,0.22986335071080818,9.558885918348434,29.663872176437113
1776724005.932,1.2905,-2.3894,9.4691,0.0306,0.2118,0.0349,-13.8,-9.0,22.35,1.1301,-2.6121,9.5217,0.0317,0.1759,0.0533,-41.85,-29.1,20.55,-1.8,3.58,9.61,-29.4375,-2.9375,4.3125,529.1875,278.375,551.0625,357.38,-6.0,-15.44,0,0.17400002479553223,9.85081100316111,0.21682622073909785,9.937955690684076,0.18651163502580745,10.411940261065658,29.896370494593487
1776724005.942,0.9792,-2.4205,9.4403,-0.0677,0.2398,0.0133,-13.8,-9.75,23.1,0.6584,-2.6408,9.5529,-0.065,0.2116,0.0197,-41.85,-29.1,20.55,-1.4,1.91,9.39,-19.6875,-5.4375,3.375,529.1875,278.375,551.0625,357.31,-5.94,-15.38,0,0.18400001525878906,9.794739250230197,0.24952799442146767,9.933036474814736,0.22223332333383308,9.684017761239392,20.701562441033285
1776724005.952,0.7805,-2.6073,9.4355,-0.1106,0.2406,0.0101,-13.05,-8.55,24.15,0.5986,-2.7701,9.6079,-0.1146,0.2161,0.0165,-41.7,-27.75,21.0,-1.31,2.17,9.41,-8.875,-8.8125,4.4375,529.1875,278.375,551.0625,357.31,-5.94,-15.38,0,0.1940000057220459,9.82017585331342,0.26499571694651974,10.017161193671589,0.24516243594808726,9.745414306226287,13.270915096556077
1776724005.959,0.759,-2.8084,9.5481,-0.1106,0.2406,0.0101,-13.05,-8.55,24.15,0.577,-2.909,9.7324,-0.1324,0.2108,0.0045,-42.0,-28.05,21.45,-0.96,2.37,9.27,-1.8125,-11.0625,1.9375,525.875,275.0625,551.6875,357.31,-5.81,-15.31,0,0.20100021362304688,9.981453059049068,0.26499571694651974,10.174223300085368,0.24897118307145505,9.616205072688498,11.376201859583892
1776724005.965,0.7973,-2.7294,9.6678,-0.1215,0.2361,-0.004,-12.45,-8.4,22.2,0.577,-2.9209,9.7779,-0.1324,0.2108,0.0045,-42.3,-29.85,21.15,-0.96,2.37,9.27,-1.8125,-11.0625,1.9375,525.875,275.0625,551.6875,357.31,-5.81,-15.31,0,0.2070000171661377,10.077284777657125,0.26555876939012957,10.221150337413103,0.24897118307145505,9.616205072688498,11.376201859583892
1776724005.972,0.7973,-2.7294,9.6678,-0.1266,0.2233,-0.016,-12.75,-8.4,24.0,0.577,-2.9209,9.7779,-0.134,0.1961,-0.0083,-42.3,-29.85,21.15,-0.92,2.6,9.3,3.4375,-12.5625,0.8125,525.875,275.0625,551.6875,357.38,-5.56,-15.44,0,0.21399998664855957,10.077284777657125,0.2571895215594912,10.221150337413103,0.23765542282893526,9.700329891297512,13.049634812898022
1776724005.982,0.6704,-2.739,9.4595,-0.1098,0.203,-0.0085,-12.75,-8.4,24.0,0.565,-2.8204,9.7109,-0.1228,0.1804,-0.0008,-40.95,-28.95,20.7,-0.85,2.69,9.29,5.875,-12.5,0.1875,525.875,275.0625,551.6875,357.38,-5.44,-15.5,0,0.2240002155303955,9.870850895946104,0.2309486739515947,10.12795438230248,0.21823070361431732,9.708897980718511,13.813065599279545
1776724005.992,0.6488,-2.648,9.517,-0.1388,0.1929,-0.0035,-14.85,-8.55,23.1,0.5267,-2.7605,9.7085,-0.1351,0.1631,0.0016,-40.35,-29.1,21.6,-0.81,2.71,9.29,6.375,-12.1875,-0.5625,525.875,275.0625,551.6875,357.38,-5.38,-15.56,0,0.23400020599365234,9.899804767771938,0.23767225332377356,10.107064133070493,0.21179277608077193,9.711040109071735,13.765616132233239
1776724006.003,0.7638,-2.6145,9.4451,-0.1671,0.1852,-0.0101,-13.35,-10.05,22.8,0.589,-2.8012,9.5624,-0.1703,0.1609,0.0011,-41.85,-29.1,20.85,-0.84,2.56,9.31,6.4375,-11.1875,-0.8125,525.875,275.0625,551.6875,357.38,-5.38,-15.56,0,0.24500012397766113,9.830000747711061,0.2496466703162692,9.981639955438185,0.23429065282251443,9.692022492751448,12.932970221492045
1776724006.009,0.7446,-2.6504,9.5457,-0.2116,0.1812,-0.0381,-13.35,-10.05,22.8,0.668,-2.8515,9.6438,-0.2102,0.1548,-0.0165,-41.85,-29.1,20.85,-0.9,2.58,9.27,6.0625,-10.0625,-0.4375,524.0625,274.0625,548.0,357.44,-5.25,-15.56,0,0.25100016593933105,9.934759071562832,0.2811754078862517,10.078698065226481,0.26157088905304426,9.664331327101735,11.755816379562926
1776724006.015,0.5986,-2.6552,9.5984,-0.2116,0.1812,-0.0381,-13.35,-8.25,22.35,0.419,-2.6983,9.6654,-0.2582,0.1439,-0.0456,-41.85,-29.1,20.85,-0.9,2.58,9.27,6.0625,-10.0625,-0.4375,524.0625,274.0625,548.0,357.44,-5.19,-15.69,0,0.257000207901001,9.976857799928792,0.2811754078862517,10.043721474134973,0.2990882979991026,9.664331327101735,11.755816379562926
1776724006.022,0.5986,-2.6552,9.5984,-0.2649,0.1687,-0.0586,-12.45,-8.7,22.95,0.419,-2.6983,9.6654,-0.2582,0.1439,-0.0456,-40.8,-29.55,21.15,-0.87,2.52,9.27,8.0,-9.5,-0.3125,524.0625,274.0625,548.0,357.44,-5.12,-15.75,0,0.26400017738342285,9.976857799928792,0.31947716663323533,10.043721474134973,0.2990882979991026,9.645734808712087,12.423673218899474
1776724006.032,0.6273,-2.7198,9.4643,-0.2771,0.1426,-0.0629,-12.45,-8.7,22.95,0.4956,-2.8946,9.596,-0.2963,0.1159,-0.0589,-40.8,-29.55,21.15,-0.93,2.49,9.31,9.75,-9.1875,-1.125,524.0625,274.0625,548.0,357.5,-5.0,-15.88,0,0.2740001678466797,9.867309249233044,0.3179238588089922,10.03531486900137,0.323567164588745,9.681998760586577,13.443893827682514
1776724006.042,0.6632,-2.7797,9.4691,-0.2835,0.1287,-0.061,-12.45,-8.7,22.95,0.5243,-2.9113,9.675,-0.2888,0.1015,-0.0536,-41.85,-28.35,21.15,-0.78,2.6,9.11,12.5625,-8.6875,-2.6875,524.0625,274.0625,548.0,357.56,-4.94,-16.0,0,0.2840001583099365,9.890926202333125,0.3172647790095837,10.11712326602775,0.3107742749971432,9.505814010383329,15.50844024233256
1776724006.053,0.6345,-2.8395,9.7013,-0.3235,0.1303,-0.0693,-12.15,-7.95,22.5,0.5626,-3.0263,9.6726,-0.4517,0.1287,-0.0933,-38.85,-29.1,20.85,-0.81,2.7,9.2,15.375,-7.5,-3.4375,524.0625,274.0625,548.0,357.56,-4.94,-16.0,0,0.2950000762939453,10.128206760823952,0.35557394448975027,10.150576397919478,0.47885433066852384,9.62216711557225,17.448697121848383
1776724006.059,0.6345,-2.8395,9.7013,-0.4756,0.1716,-0.0994,-13.35,-10.05,22.5,0.5626,-3.0263,9.6726,-0.4517,0.1287,-0.0933,-40.5,-29.7,19.95,-0.8,2.67,9.26,15.875,-6.3125,-3.8125,522.5,274.1875,541.75,357.62,-4.94,-16.19,0,0.30100011825561523,10.128206760823952,0.5152885405285081,10.150576397919478,0.47885433066852384,9.670392959957729,17.504240557647737
1776724006.065,0.6847,-2.7198,9.3541,-0.4756,0.1716,-0.0994,-13.35,-10.05,23.1,0.5219,-2.8994,9.5313,-0.5625,0.1423,-0.113,-40.5,-29.7,19.95,-0.8,2.67,9.26,15.875,-6.3125,-3.8125,522.5,274.1875,541.75,357.62,-4.94,-16.19,0,0.30700016021728516,9.765516521925505,0.5152885405285081,9.976200662576911,0.5911214257663141,9.670392959957729,17.504240557647737
1776724006.072,0.8308,-2.7581,9.2464,-0.5588,0.1692,-0.1178,-12.3,-9.0,23.1,0.7925,-2.8706,9.3829,-0.578,0.1319,-0.1098,-40.05,-29.1,20.55,-0.83,2.68,9.57,16.9375,-5.875,-4.0,522.5,274.1875,541.75,357.62,-4.88,-16.31,0,0.31400012969970703,9.684691900623374,0.595619778046364,9.844146129553339,0.6029408345766606,9.97277293434479,18.36830235078898
1776724006.079,0.8308,-2.7581,9.2464,-0.5526,0.1577,-0.1092,-13.2,-7.65,23.55,0.7925,-2.8706,9.3829,-0.578,0.1319,-0.1098,-40.8,-27.9,21.15,-0.79,2.66,9.16,22.875,-7.25,-5.0,522.5,274.1875,541.75,357.75,-4.81,-16.56,0,0.3210000991821289,9.684691900623374,0.5849450316055347,9.844146129553339,0.6029408345766606,9.571065771375725,24.511795629859513
1776724006.085,0.9122,-2.7007,9.1698,-0.5321,0.1458,-0.1031,-13.2,-7.65,23.55,0.7829,-2.7773,9.3398,-0.542,0.1207,-0.0983,-40.8,-27.9,21.15,-0.79,2.66,9.16,30.4375,-8.625,-6.5,522.5,274.1875,541.75,357.81,-4.75,-16.81,0,0.32700014114379883,9.60266220222288,0.5612643405740294,9.77538703786198,0.5639107908171291,9.571065771375725,32.29678050905384
1776724006.093,0.6512,-2.9856,9.323,-0.5321,0.1458,-0.1031,-13.2,-7.65,23.55,0.5028,-3.0789,9.3829,-0.5577,0.1314,-0.089,-41.7,-28.95,20.7,-0.93,2.7,8.98,30.4375,-8.625,-6.5,522.5,274.1875,541.75,357.88,-4.69,-17.12,0,0.33500003814697266,9.811024299225846,0.5612643405740294,9.887934337362884,0.5798415731904707,9.423125808350434,32.29678050905384
1776724006.103,0.5171,-3.1627,9.0118,-0.5617,0.1665,-0.0759,-12.6,-8.25,23.4,0.419,-3.1699,9.0956,-0.5596,0.1495,-0.0389,-41.7,-28.95,20.7,-0.95,2.66,9.01,32.5625,-7.9375,-6.75,522.5,274.1875,541.75,357.88,-4.69,-17.12,0,0.3450000286102295,9.564653832732263,0.5907537134881168,9.641253360948461,0.5805304643169038,9.442361992637224,34.18892821514006
1776724006.109,0.5171,-3.1627,9.0118,-0.5036,0.1761,-0.0336,-13.05,-8.55,24.45,0.4286,-3.2992,9.0644,-0.5596,0.1495,-0.0389,-40.35,-28.65,19.8,-0.76,2.96,9.12,31.25,-7.3125,-6.25,519.5625,272.75,537.25,358.0,-4.69,-17.44,0,0.3510000705718994,9.564653832732263,0.5345588180920787,9.655659788952798,0.5805304643169038,9.618399035182518,32.69705883179709
1776724006.116,0.5602,-3.2968,8.9687,-0.3589,0.1671,-0.0056,-13.05,-8.55,24.45,0.4286,-3.2992,9.0644,-0.4077,0.1436,-0.0027,-40.35,-28.65,19.8,-0.76,2.96,9.12,31.25,-7.3125,-6.25,519.5625,272.75,537.25,358.06,-4.62,-17.75,0,0.3580000400543213,9.571849036105824,0.39593304989606515,9.655659788952798,0.4322586494218479,9.618399035182518,32.69705883179709
1776724006.123,0.5794,-3.1412,9.2991,-0.3589,0.1671,-0.0056,-13.8,-7.05,25.2,0.3567,-3.2681,9.2799,-0.3544,0.1495,-0.0013,-40.35,-28.65,19.8,-0.65,3.19,8.84,31.8125,-7.8125,-5.3125,519.5625,272.75,537.25,358.12,-4.5,-18.0,0,0.36500000953674316,9.832400653451831,0.39593304989606515,9.845011757738027,0.38464438121464867,9.420414003641241,33.18573441631208
1776724006.133,0.6153,-3.0813,9.2584,-0.3456,0.1857,-0.0024,-12.45,-7.65,25.05,0.4286,-3.134,9.4236,-0.4024,0.1748,0.0123,-40.35,-29.1,22.35,-0.67,3.21,8.64,30.875,-8.8125,-2.9375,519.5625,272.75,537.25,358.12,-4.44,-18.25,0,0.375,9.777063687017693,0.3923386419918385,9.940316439631085,0.43889872408108,9.241352714835637,32.24212597674043
1776724006.143,0.4645,-3.1244,9.2727,-0.4069,0.211,0.0072,-13.2,-6.9,24.3,0.3448,-3.1987,9.3829,-0.4594,0.1948,0.0128,-41.55,-28.65,19.8,-0.7,3.0,9.13,23.6875,-8.625,-0.75,519.5625,272.75,537.25,358.19,-4.38,-18.44,0,0.38499999046325684,9.795948187898913,0.45841078739488667,9.91914215746503,0.4991585319314897,9.635709626176995,25.220047209511723
1776724006.153,0.5195,-3.2417,9.1818,-0.4676,0.226,-0.0048,-13.2,-6.9,24.3,0.316,-3.4405,9.3422,-0.4834,0.2012,0.0051,-42.0,-29.25,22.5,-0.7,2.97,9.16,19.9375,-9.25,-0.1875,519.5625,272.75,537.25,358.19,-4.38,-18.44,0,0.3950002193450928,9.7510999574407,0.5193734687101373,9.960602245346413,0.5236248752685456,9.65486923785092,21.97957148126414
1776724006.159,0.4573,-3.3399,9.2392,-0.4676,0.226,-0.0048,-12.3,-6.75,25.95,0.3328,-3.5578,9.2823,-0.4956,0.2092,-0.0197,-41.25,-28.95,19.95,-0.62,3.0,9.09,22.625,-10.375,0.125,518.25,278.1875,531.6875,358.19,-4.25,-18.62,0,0.4010000228881836,9.834982050822463,0.5193734687101373,9.946345558545609,0.5383048299987656,9.592314632037462,24.890698563921422
1776724006.166,0.4573,-3.3399,9.2392,-0.5092,0.2489,-0.0365,-12.3,-6.75,25.95,0.3328,-3.5578,9.2823,-0.4956,0.2092,-0.0197,-41.25,-28.95,19.95,-0.62,3.0,9.09,22.625,-10.375,0.125,518.25,278.1875,531.6875,358.19,-4.25,-18.62,0,0.40799999237060547,9.834982050822463,0.5679507901218203,9.946345558545609,0.5383048299987656,9.592314632037462,24.890698563921422
1776724006.172,0.486,-3.3543,9.2416,-0.5849,0.2923,-0.0679,-13.05,-7.05,24.45,0.3184,-3.5386,9.3111,-0.5758,0.2534,-0.0586,-40.5,-27.3,19.95,-0.61,3.16,9.01,26.0,-11.375,0.4375,518.25,278.1875,531.6875,358.25,-4.19,-18.88,0,0.4140000343322754,9.843510301208608,0.6573870321203484,9.965924529615906,0.6318157642857607,9.567538868486503,28.382777017938185
1776724006.182,0.589,-3.3567,9.0956,-0.6153,0.3227,-0.0597,-14.85,-6.0,25.2,0.3735,-3.3686,9.098,-0.6147,0.2763,-0.0605,-40.95,-28.5,21.0,-0.6,3.15,9.15,27.25,-11.75,-0.3125,518.25,278.1875,531.6875,358.31,-3.94,-19.44,0,0.4240000247955322,9.713099157838347,0.6973474528525934,9.708788400722307,0.6766520745553064,9.695617566715388,29.676971817387297
1776724006.193,0.5435,-3.3734,8.9687,-0.5995,0.3555,-0.0317,-13.2,-7.95,25.8,0.407,-3.4333,8.9902,-0.6235,0.3158,-0.0432,-40.95,-28.5,21.0,-0.63,3.2,9.11,28.9375,-12.6875,-1.875,518.25,278.1875,531.6875,358.38,-3.81,-19.75,0,0.4350001811981201,9.59754132577714,0.6977000716640354,9.632076304203576,0.7002486201343063,9.67620793492988,31.65228565996459
1776724006.203,0.3974,-3.5985,8.7388,-0.4938,0.3603,-0.0237,-15.3,-4.95,25.05,0.2322,-3.6943,8.904,-0.5542,0.3352,-0.0203,-41.55,-27.15,21.15,-0.68,3.31,8.86,33.375,-15.125,-3.6875,518.25,278.1875,531.6875,358.38,-3.81,-19.75,0,0.44500017166137695,9.459056742085862,0.6117321472670862,9.642768551095687,0.6480036805451032,9.482515489046142,36.82735269130813
1776724006.209,0.3448,-3.6943,8.7891,-0.4938,0.3603,-0.0237,-15.3,-4.95,25.05,0.2107,-3.6727,8.9735,-0.4069,0.3184,-0.0131,-41.55,-27.15,21.15,-0.59,3.47,8.65,35.625,-17.1875,-3.5625,516.75,278.875,525.875,358.44,-3.69,-20.12,0,0.4510002136230469,9.540179156598684,0.6117321472670862,9.698289644571357,0.5168343835311269,9.33870976098947,39.71450852648186
1776724006.216,0.3448,-3.6943,8.7891,-0.3371,0.3432,0.0029,-15.3,-4.95,25.05,0.2011,-3.7589,8.9088,-0.2438,0.3131,0.0352,-41.55,-27.15,21.15,-0.59,3.47,8.65,35.625,-17.1875,-3.5625,516.75,278.875,525.875,358.5,-3.5,-20.44,0,0.45800018310546875,9.540179156598684,0.4810728219303186,9.671426361194092,0.3983830945208393,9.33870976098947,39.71450852648186
1776724006.223,0.2969,-3.7637,8.7005,-0.1807,0.3416,0.0296,-15.15,-5.55,26.25,0.2011,-3.7589,8.9088,-0.2438,0.3131,0.0352,-40.05,-27.9,20.85,-0.47,3.55,8.52,34.5,-19.0625,-2.375,516.75,278.875,525.875,358.56,-3.31,-20.69,0,0.4650001525878906,9.484317980223986,0.38758123019568425,9.671426361194092,0.3983830945208393,9.241958666862777,39.48758705276887
1776724006.233,0.4022,-3.8642,8.7628,-0.012,0.3408,0.0437,-13.8,-5.55,25.95,0.2179,-3.9887,8.928,-0.0853,0.312,0.0448,-40.35,-28.35,21.9,-0.45,3.64,8.51,28.6875,-19.5,-1.4375,516.75,278.875,525.875,358.62,-3.19,-20.88,0,0.47500014305114746,9.585430106155904,0.3437998400232321,9.780919798260285,0.3265380988491236,9.266725419478014,34.717273258422814
1776724006.243,0.4525,-3.7278,8.8705,0.097,0.3352,0.0568,-12.6,-5.55,26.7,0.3017,-3.7733,9.0597,0.0533,0.3003,0.0677,-39.75,-29.7,19.5,-0.48,3.78,8.54,19.5,-18.9375,0.1875,516.75,278.875,525.875,358.62,-3.0,-21.0,0,0.4850001335144043,9.63260189876027,0.3535453011991533,9.818705610720793,0.31241682092998774,9.351491859591174,27.1829737611616
1776724006.253,0.4118,-3.553,9.0333,0.1282,0.3328,0.0671,-13.95,-6.9,26.1,0.2514,-3.6392,9.2296,0.114,0.3051,0.0741,-40.35,-28.65,19.8,-0.53,3.73,8.62,9.8125,-18.6875,1.8125,516.75,278.875,525.875,358.62,-3.0,-21.0,0,0.49500012397766113,9.715652172139553,0.36289597683082686,9.924338504908022,0.33402517869166687,9.40734819170631,21.18473433276896
1776724006.259,0.3807,-3.3519,9.1482,0.1268,0.3269,0.0877,-13.5,-6.9,27.15,0.1796,-3.4333,9.2464,0.1234,0.296,0.093,-40.35,-28.65,20.85,-0.58,3.56,8.79,-0.0625,-18.0625,2.4375,514.5,278.375,517.6875,358.62,-2.81,-21.0,0,0.501000165939331,9.750370728336435,0.36143206830606495,9.864872934305843,0.33390501643431475,9.501268336385412,18.226333113108627
1776724006.266,0.0718,-3.5314,9.2584,0.1268,0.3269,0.0877,-13.5,-6.9,27.15,-0.0694,-3.6464,9.3206,0.0903,0.2955,0.0895,-40.35,-28.65,20.85,-0.58,3.56,8.79,-0.0625,-18.0625,2.4375,514.5,278.375,517.6875,358.62,-2.62,-20.94,0,0.5080001354217529,9.90928411945081,0.36143206830606495,10.008727875209717,0.3216902081195509,9.501268336385412,18.226333113108627
1776724006.273,0.0718,-3.5314,9.2584,0.0671,0.3155,0.0783,-13.5,-6.9,27.15,-0.1197,-3.6679,9.4906,0.0903,0.2955,0.0895,-39.45,-28.05,20.25,-0.42,3.3,8.92,-6.4375,-17.8125,3.375,514.5,278.375,517.6875,358.62,-2.5,-20.81,0,0.5150001049041748,9.90928411945081,0.3319240123883778,10.175426618083392,0.3216902081195509,9.520126049585688,19.23842996452673
1776724006.283,0.0383,-3.3998,9.347,0.0149,0.2878,0.0453,-14.25,-6.45,25.35,0.0168,-3.5793,9.663,-0.0448,0.2505,0.0373,-39.45,-28.05,20.25,-0.27,3.36,8.97,-8.625,-17.75,4.0625,514.5,278.375,517.6875,358.62,-2.31,-20.75,0,0.5250000953674316,9.946180972111858,0.29172408196787597,10.304622250718364,0.25719366244135955,9.582452713162743,20.14837539976859
1776724006.293,0.103,-3.5458,9.4451,-0.0813,0.2659,0.0421,-13.95,-7.2,26.85,-0.0383,-3.6679,9.5122,-0.1266,0.2294,0.0677,-41.1,-29.85,20.1,-0.11,3.38,8.99,-7.6875,-17.375,4.6875,514.5,278.375,517.6875,358.62,-2.12,-20.69,0,0.5350000858306885,10.089262641541254,0.28122039399730603,10.194945126875377,0.2706200472987912,9.605029932280274,19.569387765078396
1776724006.303,0.1532,-3.7134,9.2703,-0.1436,0.2481,0.0903,-12.6,-9.0,25.95,-0.1245,-3.5434,9.3972,-0.1551,0.2012,0.125,-41.1,-29.85,20.1,-0.23,3.5,9.16,-4.25,-16.875,4.0,514.5,278.375,517.6875,358.62,-2.12,-20.69,0,0.5450000762939453,9.987555851658604,0.3005472674971443,10.043831522382282,0.28312974057841395,9.808593171296279,17.85575887494004
1776724006.31,0.0694,-3.632,9.1602,-0.1388,0.2228,0.1343,-14.4,-7.8,26.25,-0.1245,-3.5434,9.3972,-0.1551,0.2012,0.125,-40.35,-28.35,20.85,-0.23,3.72,8.98,4.625,-13.625,3.0,508.5,269.875,509.6875,358.62,-2.0,-20.75,0,0.5520000457763672,9.85421252054166,0.29485889845822866,10.043831522382282,0.28312974057841395,9.722741382963964,14.69800156483867
1776724006.316,-0.0455,-3.972,8.7867,-0.1388,0.2228,0.1343,-12.75,-5.7,25.8,-0.1532,-3.9241,9.1387,-0.141,0.1756,0.174,-40.35,-28.35,20.85,-0.23,3.72,8.98,4.625,-13.625,3.0,508.5,269.875,509.6875,358.62,-1.88,-20.81,0,0.5580000877380371,9.642870482382307,0.29485889845822866,9.94675166775566,0.284591566986796,9.722741382963964,14.69800156483867
1776724006.323,-0.0958,-3.8307,9.3422,-0.0821,0.1767,0.1825,-12.75,-5.7,25.8,-0.2155,-3.8331,9.4284,-0.0304,0.1164,0.1972,-40.05,-30.3,20.1,-0.18,3.63,8.92,4.625,-13.625,3.0,508.5,269.875,509.6875,358.56,-1.75,-20.88,0,0.565000057220459,10.097531429512859,0.266963574294322,10.180069863218032,0.23099991341989717,9.63201432723187,14.69800156483867
1776724006.333,-0.2825,-2.4397,9.4858,0.0392,0.1295,0.1879,-12.75,-5.7,25.8,-0.5339,-3.8211,9.2919,0.0621,0.0722,0.1836,-40.8,-29.55,19.05,-0.11,3.82,8.77,7.625,-12.3125,5.8125,508.5,269.875,509.6875,358.5,-1.62,-20.88,0,0.5750000476837158,9.798588876976112,0.23154545989934677,10.061076484651133,0.20682893898098498,9.566472704189355,15.60523750219778
1776724006.343,-0.4381,-3.893,9.0094,0.1106,0.1031,0.0709,-13.05,-8.25,24.45,-0.6416,-3.8571,9.4619,0.0901,0.0413,0.0757,-41.1,-29.1,20.55,-0.02,3.34,8.87,1.875,-7.875,10.75,508.5,269.875,509.6875,358.38,-1.56,-20.88,0,0.5850000381469727,9.824289743793187,0.16699934131606628,10.237989186358813,0.12471643837121073,9.478021945532728,13.457107787336772
1776724006.353,-0.1532,-3.2441,9.4547,0.1108,0.0298,0.0469,-13.8,-9.0,25.65,-0.2035,-3.6583,9.5433,0.0935,-0.0248,0.0426,-40.05,-31.5,20.55,0.02,2.19,9.24,-4.5,-5.0625,9.5,508.5,269.875,509.6875,358.38,-1.56,-20.88,0,0.5950000286102295,9.996949891842013,0.12395277326465914,10.22248238100707,0.10569791861716105,9.496004422913881,11.667429290550682
1776724006.36,-0.1532,-3.2441,9.4547,0.0544,0.0013,0.028,-12.75,-7.65,26.4,-0.2107,-3.3878,9.4116,-0.0109,-0.029,0.0389,-40.35,-29.85,19.8,0.1,3.24,8.95,-6.75,-2.3125,4.5625,499.25,261.75,502.0625,358.38,-1.5,-20.81,0,0.6019999980926514,9.996949891842013,0.06119681364254188,10.004988650168475,0.04972946812504634,9.5189337638204,8.469153588169245
1776724006.366,-0.0192,-3.4381,9.2751,-0.0261,0.0021,0.0312,-14.1,-7.05,25.2,-0.2107,-3.3878,9.4116,-0.0109,-0.029,0.0389,-40.35,-29.85,19.8,0.1,3.24,8.95,-6.75,-2.3125,4.5625,499.25,261.75,502.0625,358.38,-1.5,-20.81,0,0.6080000400543213,9.891834019028018,0.040731560245097415,10.004988650168475,0.04972946812504634,9.5189337638204,8.469153588169245
1776724006.373,0.2131,-3.5961,9.1315,-0.0261,0.0021,0.0312,-14.7,-5.7,25.2,0.1269,-3.7852,9.3422,-0.0498,-0.0328,0.0282,-40.35,-29.85,19.8,-0.05,3.25,9.22,-6.4375,0.9375,2.125,499.25,261.75,502.0625,358.31,-1.5,-20.69,0,0.6150000095367432,9.816396440140343,0.040731560245097415,10.08070153759152,0.06596301994299533,9.776164892226399,6.8436786525961315
1776724006.383,0.2729,-3.6416,9.3278,-0.0392,-0.0176,0.0123,-14.7,-5.7,26.1,0.1389,-3.8092,9.4332,-0.0663,-0.053,0.0013,-41.25,-30.0,21.0,-0.11,3.32,9.05,-1.625,1.3125,1.5625,499.25,261.75,502.0625,358.31,-1.5,-20.75,0,0.625,10.017164160080437,0.044695525503119435,10.174210538906692,0.08489039992837824,9.64038380978683,2.608579594338651
1776724006.393,0.2083,-3.6152,9.3087,-0.0658,-0.0224,-0.0131,-14.1,-5.7,26.1,0.067,-3.8092,9.4332,-0.0978,-0.0621,-0.0165,-40.95,-29.25,20.7,-0.36,3.44,8.89,1.25,1.9375,1.0625,499.25,261.75,502.0625,358.31,-1.56,-20.75,0,0.6349999904632568,9.98824086713972,0.0707319588305032,10.17348297683738,0.11701922918905251,9.539145664051892,2.5387620014487378
1776724006.403,0.1173,-3.6033,9.3518,-0.114,-0.033,-0.0392,-13.8,-6.75,25.65,-0.0503,-3.7254,9.4978,-0.1522,-0.0682,-0.0389,-40.95,-29.7,21.45,-0.42,3.51,9.1,2.375,2.5625,-0.5625,499.25,261.75,502.0625,358.31,-1.56,-20.75,0,0.6450002193450928,10.022658999487113,0.1249865592773879,10.202418345176794,0.171257963318498,9.76250480153531,3.5388469167230165
1776724006.41,0.1173,-3.6033,9.3518,-0.1689,-0.037,-0.0501,-13.8,-6.75,25.65,-0.079,-3.6871,9.4188,-0.2182,-0.0725,-0.0477,-40.95,-29.7,21.45,-0.26,3.47,9.07,4.625,3.3125,-1.8125,489.25,255.1875,494.25,358.31,-1.56,-20.81,0,0.6520001888275146,10.022658999487113,0.18001727694863068,10.11507493051831,0.23482499866922174,9.714597263911665,5.970631248033997
1776724006.416,0.0694,-3.5171,9.2153,-0.2177,-0.0389,-0.0597,-12.75,-6.15,25.8,-0.079,-3.6871,9.4188,-0.2182,-0.0725,-0.0477,-40.05,-30.3,19.8,-0.26,3.47,9.07,4.625,3.3125,-1.8125,489.25,255.1875,494.25,358.31,-1.56,-20.81,0,0.6579999923706055,9.86390200985391,0.22906459787579572,10.11507493051831,0.23482499866922174,9.714597263911665,5.970631248033997
1776724006.423,0.0072,-3.4716,9.0956,-0.2177,-0.0389,-0.0597,-13.5,-6.9,25.05,-0.146,-3.6009,9.2392,-0.2353,-0.0789,-0.0485,-39.75,-28.5,20.7,-0.25,3.44,9.13,7.8125,3.875,-2.9375,489.25,255.1875,494.25,358.38,-1.69,-21.0,0,0.6650002002716064,9.73560464275332,0.22906459787579572,9.91718777930518,0.25287061909205666,9.759764341417267,9.202156676562295
1776724006.433,0.0359,-3.6176,9.0285,-0.1721,-0.0818,-0.0602,-13.5,-6.9,25.05,-0.0622,-3.6751,9.2153,-0.1998,-0.0946,-0.0426,-40.35,-28.35,19.35,-0.19,3.42,9.03,11.1875,4.25,-3.4375,489.25,255.1875,494.25,358.38,-1.75,-21.06,0,0.6750001907348633,9.726362671626017,0.19983415623961787,9.921289378906351,0.2251309840959258,9.657815487986918,12.451468286912993
1776724006.443,0.2274,-3.5769,9.0022,-0.1295,-0.0866,-0.0618,-13.5,-6.9,25.05,0.1006,-3.7637,9.1722,-0.1687,-0.114,-0.0485,-40.35,-28.35,19.35,-0.19,3.41,8.8,12.0625,4.875,-3.25,489.25,255.1875,494.25,358.38,-1.81,-21.19,0,0.6850001811981201,9.689454536247126,0.16759788184819044,9.914878258960117,0.20930346389871335,9.43950210551383,13.410146578244401
1776724006.453,0.6105,-3.5745,8.9447,-0.0709,-0.0919,-0.0461,-15.0,-6.45,25.8,0.4357,-3.6296,9.1004,-0.1071,-0.122,-0.0461,-40.05,-29.1,21.6,-0.21,3.47,8.81,10.125,5.6875,-3.25,489.25,255.1875,494.25,358.38,-1.81,-21.19,0,0.695000171661377,9.651809083793566,0.12489047201448156,9.807196888509988,0.16875905901610141,9.471066465821048,12.059261223225906
1776724006.46,0.0551,-3.8092,9.1243,-0.0709,-0.0919,-0.0461,-15.0,-6.45,25.8,-0.0263,-3.8906,9.2991,-0.0613,-0.129,-0.0277,-40.05,-29.1,21.6,-0.4,3.56,8.76,7.875,6.6875,-3.5625,481.25,250.375,490.875,358.44,-1.88,-21.25,0,0.7020001411437988,9.88766358347613,0.12489047201448156,10.08021432609446,0.14548532572050007,9.464206253035698,10.928389062437336
1776724006.466,0.0551,-3.8092,9.1243,-0.0232,-0.117,-0.064,-14.7,-4.2,25.05,-0.0575,-4.2497,9.3541,-0.0141,-0.1519,-0.0967,-40.05,-29.1,21.6,-0.4,3.56,8.76,7.875,6.6875,-3.5625,481.25,250.375,490.875,358.44,-1.88,-21.25,0,0.7080001831054688,9.88766358347613,0.13536336284238804,10.274358527421555,0.1806192403926005,9.464206253035698,10.928389062437336
1776724006.473,0.1269,-3.8547,9.1506,0.0274,-0.1514,-0.1591,-13.8,-7.05,24.45,-0.0575,-4.2497,9.3541,-0.0141,-0.1519,-0.0967,-40.95,-29.25,19.5,-0.22,3.57,8.81,4.375,6.875,-2.9375,481.25,250.375,490.875,358.44,-2.06,-21.31,0,0.7150001525878906,9.93017099852767,0.22132674940006686,10.274358527421555,0.1806192403926005,9.50838577256939,8.662283547079257
1776724006.483,0.2011,-3.6224,9.3948,-0.0304,-0.1775,-0.194,-14.85,-6.75,23.85,0.0072,-3.8666,9.493,0.0179,-0.1956,-0.1708,-40.5,-28.95,20.25,-0.19,3.52,8.91,1.1875,8.0,-3.5625,481.25,250.375,490.875,358.5,-2.12,-21.31,0,0.7250001430511475,10.070972644685318,0.2647006044571867,10.250253479792585,0.2602929311372093,9.58199352953236,8.83750884016531
1776724006.493,-0.158,-3.1173,9.2368,-0.1492,-0.1977,-0.1111,-14.85,-6.75,23.85,-0.1844,-3.1675,10.1107,-0.1111,-0.2316,-0.1588,-40.05,-28.35,19.35,-0.31,3.48,8.89,-1.4375,9.9375,-8.375,481.25,250.375,490.875,358.62,-2.31,-21.31,0,0.7350001335144043,9.749922949951964,0.27145743681100354,10.596853971816351,0.30199206943229484,9.551889865361725,13.075203153297466
1776724006.503,0.0072,-4.0175,8.3869,0.1154,-0.231,-0.0975,-14.85,-6.75,23.85,-0.2562,-3.7948,9.2991,-0.0981,-0.2278,-0.0903,-39.75,-28.05,19.2,-0.21,3.51,9.14,0.5,11.9375,-11.0625,481.25,250.375,490.875,358.62,-2.31,-21.31,0,0.7450001239776611,9.299486528835882,0.2760152350867611,10.046860519087542,0.2639517758985531,9.79304855497,16.282899388622408
1776724006.51,-0.1197,-3.0885,9.402,0.1154,-0.231,-0.0975,-14.85,-6.75,23.85,-0.2562,-3.7948,9.2991,0.2593,-0.2979,-0.1023,-39.75,-28.05,19.2,-0.27,3.61,8.49,6.0625,13.3125,-7.8125,476.875,248.25,487.5625,358.69,-2.44,-21.38,0,0.752000093460083,9.897007847829563,0.2760152350867611,10.046860519087542,0.40797817343578563,9.229577455116784,16.5834772816198
1776724006.516,-0.3089,-4.5107,11.248,0.3269,-0.3022,-0.1825,-13.95,-5.7,24.3,-0.6321,-1.7238,9.3111,0.3054,-0.3493,-0.2427,-40.35,-29.1,19.35,-0.27,3.61,8.49,6.0625,13.3125,-7.8125,476.875,248.25,487.5625,358.69,-2.56,-21.31,0,0.7580001354217529,12.122678652014166,0.481138961215988,9.490396201423836,0.5236248084267972,9.229577455116784,16.5834772816198
1776724006.523,-0.3089,-4.5107,11.248,0.3325,-0.2907,-0.2238,-14.85,-4.8,23.1,-0.3974,-1.2426,9.1866,0.3635,-0.3211,-0.2465,-40.95,-28.05,19.95,-0.05,3.64,8.08,-5.375,15.125,-6.25,476.875,248.25,487.5625,358.75,-2.81,-21.12,0,0.7650001049041748,12.122678652014166,0.4951254184547588,9.278771528602265,0.5440585538340519,8.862194987699153,17.225526116783776
1776724006.533,0.1173,-0.34,9.9623,0.3163,-0.2094,-0.2918,-14.7,-5.7,23.25,0.3663,-2.2314,10.5249,0.1188,-0.1876,-0.3472,-40.95,-28.05,19.95,0.1,2.17,9.29,-19.25,18.9375,-10.75,476.875,248.25,487.5625,358.88,-3.0,-20.94,0,0.7750000953674316,9.968790326814984,0.4785825843049452,10.765075088451544,0.4121347352505004,9.540597465567867,29.064650458073636
1776724006.543,0.6488,0.3232,10.1275,0.0322,-0.0735,-0.498,-14.7,-5.4,25.8,0.7661,0.079,9.5672,-0.0613,-0.0426,-0.607,-41.25,-28.95,19.2,-0.11,0.6,9.46,-21.625,19.125,-15.125,476.875,248.25,487.5625,359.0,-3.25,-20.75,0,0.7850000858306885,10.153406124547566,0.5044235224491419,9.59814909500785,0.6115729310556509,9.479646617886134,32.59097842962068
1776724006.554,1.549,-1.9776,11.315,-0.2537,0.0818,-0.7493,-14.7,-5.4,25.8,0.9649,-3.6416,12.2942,-0.4341,0.1324,-0.8047,-41.25,-28.95,19.2,-0.66,0.29,10.49,-16.25,14.4375,-18.9375,476.875,248.25,487.5625,359.0,-3.25,-20.75,0,0.7960000038146973,11.590492990377934,0.7953020935468483,12.858446104020501,0.9238585714274669,10.51474203202342,28.82937412605414
1776724006.56,1.1205,1.1564,7.6279,-0.5143,0.2356,-0.9246,-14.7,-5.4,25.8,0.9649,-3.6416,12.2942,-0.4341,0.1324,-0.8047,-41.25,-28.95,19.2,-1.13,-0.7,10.57,-1.875,5.875,-30.5625,473.5625,246.0625,484.375,359.31,-3.38,-20.69,0,0.8020000457763672,7.796001514879278,1.0839266626483546,12.858446104020501,0.9238585714274669,10.6532530243114,31.17848065974351
1776724006.566,1.1133,-1.6305,9.5457,-0.5143,0.2356,-0.9246,-13.35,-4.8,28.05,0.5363,-1.391,10.003,-0.542,0.2497,-0.9846,-41.7,-29.25,22.2,-1.13,-0.7,10.57,-1.875,5.875,-30.5625,473.5625,246.0625,484.375,359.31,-3.38,-20.69,0,0.8080000877380371,9.747735923279826,1.0839266626483546,10.113481482160335,1.1513258661213168,10.6532530243114,31.17848065974351
1776724006.573,1.1133,-1.6305,9.5457,-0.7117,0.284,-1.0669,-14.85,-6.3,29.85,-0.0263,-1.889,12.2942,-0.6504,0.3096,-1.0645,-42.0,-27.3,21.45,-1.32,0.12,10.02,15.3125,-4.25,-44.75,473.5625,246.0625,484.375,0.31,-3.56,-21.12,0,0.815000057220459,9.747735923279826,1.3135632835916204,12.438503379828298,1.2853141911610562,10.107284501783848,47.48786851660116
1776724006.583,0.565,-2.7342,9.0142,-0.6909,0.3621,-1.0872,-15.6,-6.75,32.7,1.2139,-5.6431,9.2392,-0.7765,0.292,-1.1058,-41.7,-26.55,21.75,-0.86,1.11,10.14,31.5625,-12.375,-55.5,473.5625,246.0625,484.375,0.94,-3.62,-21.44,0,0.8250000476837158,9.436677184263537,1.338081858482507,10.89407855029511,1.3823928132046983,10.236762183424991,65.0352368431914
1776724006.593,1.7957,-4.3287,7.331,-0.7381,0.3552,-1.0677,-14.4,-7.5,35.25,0.2251,-4.3335,8.0182,-0.6776,0.2856,-1.0898,-41.85,-27.45,23.4,-0.86,2.58,9.69,38.5,-16.875,-62.5,473.5625,246.0625,484.375,1.62,-3.69,-21.81,0,0.8350000381469727,8.700904733417095,1.345712428418494,9.117095123996458,1.3146760665654487,10.064397647152063,75.32108353575379
1776724006.604,0.5171,-4.0941,6.8426,-0.7778,0.2835,-1.0392,-15.0,-7.65,36.15,0.1772,-5.6096,10.6566,-0.7424,0.2164,-1.0237,-41.7,-27.0,22.95,-0.82,2.78,8.48,41.8125,-19.0,-64.8125,473.5625,246.0625,484.375,1.62,-3.69,-21.81,0,0.8460001945495605,7.990633390414054,1.3286390518120412,12.044174341149333,1.2829452092743479,8.961651633488104,79.43516420641427
1776724006.61,0.5171,-4.0941,6.8426,-0.6206,0.2225,-0.9481,-15.0,-7.65,36.15,0.3855,-4.0318,8.3653,-0.6446,0.1647,-0.9185,-41.7,-27.0,22.95,-0.3,4.16,8.31,40.5625,-17.9375,-63.5,472.75,240.25,470.5,2.31,-3.75,-22.12,0,0.8519999980926514,7.990633390414054,1.154791851374091,9.294206022033297,1.1341417459912142,9.297940632204533,77.45527943594291
1776724006.616,0.826,-5.8682,10.0652,-0.6206,0.2225,-0.9481,-15.0,-7.65,36.15,0.3855,-4.0318,8.3653,-0.6446,0.1647,-0.9185,-42.6,-28.65,24.6,-0.3,4.16,8.31,40.5625,-17.9375,-63.5,472.75,240.25,470.5,2.94,-3.88,-22.5,0,0.8580000400543213,11.680166877232535,1.154791851374091,9.294206022033297,1.1341417459912142,9.297940632204533,77.45527943594291
1776724006.623,1.0391,-4.3598,5.2361,-0.6606,0.129,-0.8559,-14.25,-9.15,38.25,1.1827,-3.4524,5.9376,-0.6805,0.0632,-0.7975,-42.6,-28.65,24.6,-0.62,5.31,8.62,38.75,-14.5,-60.4375,472.75,240.25,470.5,3.5,-4.0,-22.81,0,0.8650000095367432,6.892338359366871,1.0888517667708493,6.969428872583463,1.0502765064496111,10.14321941002954,73.24277374765377
1776724006.633,1.901,-6.3782,7.8075,-0.7368,-0.0978,-0.7722,-13.8,-8.25,40.5,1.4964,-5.3654,6.6631,-0.741,-0.198,-0.7317,-42.9,-27.3,25.8,-1.0,5.2,7.99,37.4375,-10.25,-55.3125,472.75,240.25,470.5,4.0,-4.12,-23.19,0,0.875,10.259253992859325,1.071789121049472,8.684677986546191,1.0600329664684962,9.585410789319361,67.57293513308416
1776724006.644,2.1787,-10.6662,7.944,-0.6107,-0.1777,-0.538,-15.3,-9.9,42.45,2.1308,-8.8155,8.0804,-0.5423,-0.2228,-0.3845,-42.9,-27.3,25.8,-1.24,4.36,4.6,40.0625,-2.8125,-48.875,472.75,240.25,470.5,4.38,-4.38,-23.56,0,0.8860001564025879,13.476709247067697,0.8330520872070366,12.146860213651921,0.7011200895709664,6.458111178974856,63.2588309052578
1776724006.654,0.3136,-8.0996,8.4204,-0.2737,-0.2025,-0.0693,-14.1,-9.75,41.55,0.6488,-8.2361,8.4635,-0.146,-0.2462,0.0549,-44.1,-29.55,25.35,-1.89,7.56,7.58,40.125,9.0625,-42.5,472.75,240.25,470.5,4.38,-4.38,-23.56,0,0.8960001468658447,11.687814221658387,0.34744845660903434,11.82730387281903,0.29145231170810776,10.871159091835608,59.14722758718282
1776724006.66,0.3136,-8.0996,8.4204,0.0618,-0.2329,0.2403,-15.0,-9.9,43.2,-0.0694,-6.517,8.7963,0.1087,-0.279,0.3179,-44.1,-29.55,25.35,-2.17,11.29,7.72,28.9375,12.625,-22.625,474.5,234.6875,444.25,4.62,-4.56,-23.81,0,0.9020001888275146,11.687814221658387,0.3403024243228367,10.947648105871874,0.4367116897908734,13.84815511178294,38.841474692009314
1776724006.667,0.2346,-6.256,8.7915,0.2196,-0.2742,0.4072,-15.0,-9.9,43.2,0.5531,-5.1284,9.0046,0.1087,-0.279,0.3179,-41.55,-28.35,26.1,-2.17,11.29,7.72,28.9375,12.625,-22.625,474.5,234.6875,444.25,4.56,-4.69,-23.88,0,0.9090001583099365,10.792731137668536,0.5377933060200731,10.377342016624487,0.4367116897908734,13.84815511178294,38.841474692009314
1776724006.673,0.929,-4.4388,8.6287,0.2196,-0.2742,0.4072,-15.0,-9.9,43.2,0.5531,-5.1284,9.0046,0.2284,-0.3139,0.4415,-42.45,-28.5,25.05,-0.05,7.35,8.23,7.3125,14.5,2.5,474.5,234.6875,444.25,4.31,-4.75,-23.81,0,0.9150002002716064,9.747843357892043,0.5377933060200731,10.377342016624487,0.5878962663599762,11.034396222721023,16.43084466027234
1776724006.683,1.2282,-3.3543,9.7564,0.2819,-0.2848,0.433,-14.1,-9.0,42.3,1.0391,-3.9433,9.3374,0.2886,-0.3088,0.4373,-41.7,-27.3,26.25,-0.45,5.78,8.37,-8.75,16.5625,18.3125,474.5,234.6875,444.25,4.06,-4.88,-23.69,0,0.9250001907348633,10.389761531912077,0.5899725841087872,10.18903245946346,0.6081765286493718,10.181738554883443,26.1959264485912
1776724006.694,1.2115,-2.4804,10.4148,0.3051,-0.1993,0.377,-15.3,-10.2,41.4,1.1181,-3.1101,9.9335,0.2713,-0.1857,0.3706,-42.0,-27.0,26.55,-1.04,4.23,8.59,-15.5,18.25,24.9375,474.5,234.6875,444.25,3.75,-4.88,-23.56,0,0.9360001087188721,10.774422279175807,0.5243429221416076,10.468872521432287,0.4954114855350045,9.631334279319766,34.5715404089838
1776724006.704,0.9242,-1.2881,9.9335,0.2286,-0.0211,0.2966,-14.4,-10.05,42.3,0.9984,-2.5355,10.0772,0.1852,-0.0032,0.2801,-43.2,-27.75,25.5,-1.33,3.18,9.57,-18.375,16.625,24.0625,474.5,234.6875,444.25,3.75,-4.88,-23.56,0,0.9460000991821289,10.059213165054214,0.3750663008056042,10.439134190630945,0.3358054347386296,10.171833659670217,34.54034099788246
1776724006.71,0.7183,0.1508,9.3039,0.1956,0.125,0.1263,-14.7,-6.15,42.45,0.4429,-0.4549,9.1937,0.1705,0.1106,0.0464,-43.2,-27.75,25.5,-1.32,1.78,10.59,-16.75,8.4375,20.0,452.25,230.375,428.25,3.56,-4.88,-23.38,0,0.9520001411437988,9.332805084217714,0.26426511309667794,9.215596242783208,0.20845999616233327,10.819376137282593,27.41813097660014
1776724006.717,0.7183,0.1508,9.3039,0.0618,0.1889,-0.1572,-15.75,-9.45,43.2,0.4166,-2.0686,9.9766,0.0075,0.1892,-0.1844,-43.2,-27.75,25.5,-1.32,1.78,10.59,-16.75,8.4375,20.0,452.25,230.375,428.25,3.44,-4.81,-23.25,0,0.9590001106262207,9.332805084217714,0.25340538668307744,10.197313816883344,0.26430332952878216,10.819376137282593,27.41813097660014
1776724006.723,0.3974,-2.9066,10.0892,-0.0226,0.2763,-0.2321,-15.75,-9.45,43.2,0.4166,-2.0686,9.9766,0.0075,0.1892,-0.1844,-42.0,-29.7,25.5,-0.93,-0.15,9.72,-12.75,-1.5,12.5625,452.25,230.375,428.25,3.44,-4.75,-23.19,0,0.9650001525878906,10.507055104071739,0.3615561643783715,10.197313816883344,0.26430332952878216,9.765541459642677,17.961873684279155
1776724006.734,0.8308,-6.2632,8.4731,0.114,0.1972,-0.1676,-15.75,-9.45,43.2,0.3591,-5.2481,9.3589,-0.0029,0.2388,-0.2238,-42.0,-29.7,25.5,-0.86,-0.69,9.27,-8.8125,-7.625,-2.1875,452.25,230.375,428.25,3.62,-4.69,-23.19,0,0.9760000705718994,10.56935790339224,0.28279603957622884,10.735945027336903,0.3272923616585025,9.335341450638,11.8568940916245
1776724006.744,0.984,-6.766,8.5473,0.1751,0.1303,0.0293,-15.75,-10.2,45.0,0.9002,-5.794,9.2991,0.1346,0.141,-0.1106,-41.85,-26.4,27.9,-0.66,5.31,8.73,-1.0625,-12.25,-12.3125,452.25,230.375,428.25,3.75,-4.62,-23.12,0,0.9860000610351562,10.945471633968086,0.2202194133131773,10.993364218927706,0.2241216633884373,10.23936521469959,17.4008351092699
1776724006.754,1.0367,-5.533,9.5002,0.1679,0.1529,0.1572,-16.05,-9.45,46.05,0.7278,-4.6495,9.8497,0.1378,0.1394,0.1828,-42.9,-27.75,28.05,-1.03,7.12,7.79,-4.125,-11.875,-11.8125,452.25,230.375,428.25,3.75,-4.62,-23.12,0,0.9960000514984131,11.042763962432593,0.27618953636950117,10.916232554320194,0.26802432725407593,10.60374462159477,17.250113224266094
1776724006.76,0.7518,-4.1779,10.0916,0.1679,0.1529,0.1572,-16.05,-9.9,46.35,0.7278,-4.6495,9.8497,0.1378,0.1394,0.1828,-42.9,-27.75,28.05,-1.06,6.81,8.55,-9.9375,-7.25,-2.5625,420.1875,230.75,415.75,3.81,-4.62,-23.0,0,1.002000093460083,10.948079384531333,0.27618953636950117,10.916232554320194,0.26802432725407593,10.981903295877268,12.565142756849204
1776724006.767,0.7518,-4.1779,10.0916,0.1282,0.2198,0.1799,-17.25,-9.15,45.75,0.2993,-3.8523,10.1299,0.1087,0.2084,0.1903,-43.95,-27.3,27.3,-1.06,6.81,8.55,-9.9375,-7.25,-2.5625,420.1875,230.75,415.75,3.75,-4.5,-22.94,0,1.0090000629425049,10.948079384531333,0.3116268441582015,10.841801962312353,0.3024241061820304,10.981903295877268,12.565142756849204
1776724006.774,0.2538,-3.5075,10.2783,0.0757,0.2761,0.1764,-17.25,-9.15,45.75,-0.2538,-3.5434,10.4507,0.0493,0.2643,0.1796,-43.2,-27.75,28.05,-1.12,5.53,9.4,-10.5,-6.6875,7.1875,420.1875,230.75,415.75,3.62,-4.38,-22.81,0,1.0160000324249268,10.863260172710584,0.3362717056191318,11.037990237810504,0.323328223327318,10.96336171071629,14.374728258301094
1776724006.784,-0.4022,-3.201,10.6614,0.0488,0.336,0.1468,-17.7,-9.75,48.45,-0.7973,-3.4189,10.9918,0.0394,0.3152,0.1418,-44.1,-26.7,28.95,-0.53,3.54,10.14,-9.125,-10.0,10.5,420.1875,230.75,415.75,3.56,-4.19,-22.75,0,1.0260000228881836,11.138833682212873,0.369902257359968,11.538814139243252,0.3478658362070067,10.753236722029326,17.132297715134417
1776724006.794,-0.589,-3.0694,10.8409,0.0544,0.3832,0.0901,-17.7,-9.75,48.45,-0.261,-3.3974,10.1945,0.0506,0.36,0.0887,-44.85,-26.7,28.95,-0.08,3.2,10.25,-6.0625,-14.0625,10.375,420.1875,230.75,415.75,3.5,-4.0,-22.75,0,1.0360000133514404,11.282431039895613,0.3973910039243465,10.748873336773487,0.37420322018924423,10.738198172877981,18.49725486389805
1776724006.804,0.2155,-2.9281,9.8833,0.0429,0.3994,0.0272,-17.85,-8.7,49.95,0.3136,-3.1819,9.7013,0.0187,0.3709,0.0216,-44.85,-26.7,28.95,0.36,2.93,10.65,-4.0,-17.1875,8.6875,420.1875,230.75,415.75,3.5,-4.0,-22.75,0,1.0460000038146973,10.310180830130964,0.4026172003280535,10.214600053844498,0.3719987365569943,11.051560975717413,19.669336859691025
1776724006.81,0.5507,-2.9281,9.7995,-0.0466,0.4399,-0.0296,-18.75,-7.5,48.45,0.3136,-3.1819,9.7013,0.0187,0.3709,0.0216,-44.85,-26.7,28.95,-0.25,2.76,9.76,-4.1875,-20.1875,5.8125,410.75,231.6875,403.5625,3.5,-3.81,-22.69,0,1.0520000457763672,10.24242355841624,0.4433505723465348,10.214600053844498,0.3719987365569943,10.145821800130337,21.42091194954127
1776724006.817,0.407,-3.632,9.4715,-0.0466,0.4399,-0.0296,-19.05,-6.45,51.45,0.3424,-3.4381,9.5217,-0.0578,0.4205,-0.0293,-43.2,-26.55,31.05,-0.25,2.76,9.76,-4.1875,-20.1875,5.8125,410.75,231.6875,403.5625,3.5,-3.62,-22.62,0,1.059000015258789,10.152161604801217,0.4433505723465348,10.129192478179096,0.42546395852057783,10.145821800130337,21.42091194954127
1776724006.824,0.407,-3.632,9.4715,-0.1015,0.4583,-0.0549,-19.05,-6.45,51.45,-0.0814,-4.0917,9.3398,-0.1164,0.4271,-0.0477,-43.95,-27.3,31.05,-0.63,2.64,9.52,-3.4375,-21.75,2.1875,410.75,231.6875,403.5625,3.56,-3.44,-22.62,0,1.065999984741211,10.152161604801217,0.4726046444968564,10.197082861779638,0.4452400026951756,9.899338361729031,22.12835426551193
1776724006.834,-0.0646,-4.4748,9.3398,-0.0866,0.4535,-0.0203,-19.2,-7.05,52.35,-0.4142,-4.7094,9.6941,-0.0922,0.4306,-0.0051,-44.4,-25.8,32.1,-0.61,2.94,9.49,0.875,-23.75,-1.375,410.75,231.6875,403.5625,3.62,-3.19,-22.69,0,1.0760002136230469,10.356634213874699,0.4621405630325042,10.78543391848469,0.44038983866569853,9.953682735550696,23.80585537215582
1776724006.844,-0.1844,-4.9344,9.7731,-0.0685,0.4591,0.0474,-19.2,-7.05,52.35,-0.3017,-4.9895,9.8857,-0.0839,0.4285,0.0773,-44.55,-25.95,32.4,0.0,4.49,9.09,4.625,-25.1875,-3.0,410.75,231.6875,403.5625,3.69,-3.0,-22.75,0,1.0860002040863037,10.949693618088133,0.46659599226740045,11.077598910865115,0.44342614943189806,10.138451558300213,25.783730941235017
1776724006.854,-0.1077,-5.1834,9.7396,-0.0392,0.4541,0.1183,-19.2,-7.05,52.35,-0.2346,-4.8076,9.7348,-0.0482,0.4277,0.1287,-45.45,-26.55,32.55,0.15,4.87,9.46,4.5625,-25.3125,-1.3125,410.75,231.6875,403.5625,3.69,-3.0,-22.75,0,1.0960001945495605,11.033541725574793,0.4708910064972573,10.859759940256506,0.44923737600515834,10.64100559157827,25.753868034724416
1776724006.86,0.0072,-4.2282,9.6079,-0.0408,0.4647,0.1228,-20.85,-7.65,56.1,-0.0096,-3.8427,9.7181,-0.073,0.4338,0.1236,-45.45,-26.55,32.55,0.03,5.14,9.53,3.3125,-25.375,2.75,406.875,235.375,393.75,3.75,-2.75,-22.75,0,1.1019999980926514,10.497117199021835,0.48238010945726195,10.45025851641958,0.45693369322036215,10.827806795468785,25.737633559634034
1776724006.867,0.1413,-3.3088,9.4619,-0.0408,0.4647,0.1228,-20.25,-6.0,57.3,-0.0096,-3.8427,9.7181,-0.073,0.4338,0.1236,-45.45,-25.8,34.05,0.03,5.14,9.53,3.3125,-25.375,2.75,406.875,235.375,393.75,3.75,-2.75,-22.75,0,1.1090002059936523,10.024753101199051,0.48238010945726195,10.45025851641958,0.45693369322036215,10.827806795468785,25.737633559634034
1776724006.873,0.1413,-3.3088,9.4619,-0.1482,0.4735,0.0616,-20.25,-6.0,57.3,0.2514,-3.6129,9.3446,-0.1751,0.4431,0.0517,-45.45,-25.8,34.05,-0.01,4.76,9.36,1.9375,-25.25,6.4375,406.875,235.375,393.75,3.69,-2.25,-22.81,0,1.1150000095367432,10.024753101199051,0.4999600484038699,10.021865970466777,0.4792395121439801,10.5008237772091,26.12963475634514
1776724006.884,0.1844,-3.1891,9.6271,-0.2691,0.4668,-0.0589,-21.75,-4.5,58.35,0.0287,-3.4285,9.3661,-0.2923,0.4322,-0.0711,-45.45,-25.8,34.05,-0.36,3.05,9.24,2.5,-25.5625,6.625,406.875,235.375,393.75,3.75,-2.0,-22.88,0,1.126000165939331,10.143244874299349,0.5420205346663538,9.973929273360625,0.5265845990911622,9.73702726708722,26.525120758443308
1776724006.894,-0.2634,-4.1084,10.6446,-0.3784,0.4988,-0.1404,-21.3,-6.0,57.3,-0.2227,-3.9073,10.1203,-0.3938,0.4892,-0.1359,-45.75,-25.2,34.2,-0.46,2.71,8.86,8.5,-26.1875,2.8125,406.875,235.375,393.75,3.81,-1.75,-23.0,0,1.136000156402588,11.412968031147726,0.6416386522023124,10.850670977870447,0.6425448544654295,9.276599592523112,27.67571701871516
1776724006.904,-0.2251,-4.7597,10.7787,-0.4311,0.6075,-0.133,-21.3,-6.0,57.3,-0.5363,-4.4628,10.5345,-0.4447,0.5985,-0.1306,-45.9,-24.15,35.1,-0.33,2.72,9.06,15.6875,-26.0,-4.0,406.875,235.375,393.75,3.81,-1.75,-23.0,0,1.1460001468658447,11.784981450558163,0.7566983943421579,11.453379055108584,0.7569786654853623,9.465246959271585,30.628379915529322
1776724006.911,-0.2251,-4.7597,10.7787,-0.4506,0.7232,-0.1092,-21.3,-6.0,57.3,-0.2179,-5.0111,10.4531,-0.465,0.7088,-0.1013,-45.9,-24.15,35.1,0.21,4.19,10.76,21.875,-28.9375,-8.0,408.6875,238.1875,384.5,3.94,-1.56,-23.25,0,1.1530001163482666,11.784981450558163,0.859059508998067,11.59421852605858,0.8537471112689049,11.548930686431536,37.14693165323349
1776724006.917,0.1125,-5.1643,10.3262,-0.5814,0.8042,-0.0456,-22.65,-4.2,62.4,0.0096,-5.0302,10.0509,-0.6057,0.7826,-0.0426,-47.4,-25.05,36.6,0.21,4.19,10.76,21.875,-28.9375,-8.0,408.6875,238.1875,384.5,4.12,-1.25,-23.44,0,1.1590001583099365,11.546127367217114,0.9933996980067993,11.239376984957842,0.9905301661231727,11.548930686431536,37.14693165323349
1776724006.924,0.3136,-4.8363,9.7013,-0.5814,0.8042,-0.0456,-22.8,-5.25,63.75,0.0096,-5.0302,10.0509,-0.6057,0.7826,-0.0426,-47.4,-25.05,36.6,0.13,4.72,10.73,24.8125,-35.25,-7.875,408.6875,238.1875,384.5,4.25,-0.94,-23.75,0,1.1660001277923584,10.844508487709343,0.9933996980067993,11.239376984957842,0.9905301661231727,11.722977437494283,43.82052351638442
1776724006.934,0.7973,-2.7629,6.8139,-0.6789,0.8354,-0.0117,-22.95,-5.4,66.0,0.2969,-4.5562,9.0381,-0.6968,0.8114,-0.0216,-45.75,-24.0,38.55,-0.14,5.18,10.3,27.375,-42.0625,-5.5625,408.6875,238.1875,384.5,4.38,-0.5,-24.06,0,1.1760001182556152,7.395845922543277,1.0765385548135282,10.125925126130452,1.0697507934093808,11.5300477015492,50.49342469569677
1776724006.944,0.4022,-3.0694,5.7174,-0.6233,0.6885,-0.145,-22.8,-5.25,65.1,0.7757,-2.794,6.1986,-0.6326,0.6291,-0.1679,-45.75,-23.55,36.45,-0.6,4.13,8.6,34.8125,-46.375,-2.1875,408.6875,238.1875,384.5,4.5,-0.12,-24.44,0,1.186000108718872,6.501664706827013,0.9399787976332231,6.843302452032937,0.9078215573558496,9.559126529134343,58.02875095588393
1776724006.954,-0.4549,-5.8203,7.3382,-0.7424,0.4644,-0.2598,-22.8,-5.25,65.1,-0.2035,-4.6519,6.845,-0.7645,0.4173,-0.2494,-47.25,-22.8,37.95,-1.03,1.9,5.35,38.8125,-46.0,-2.5,408.6875,238.1875,384.5,4.5,-0.12,-24.44,0,1.196000099182129,9.37720669176061,0.9134118238779263,8.278623729823696,0.9059800770436399,5.77004332739365,60.23836116836181
1776724006.961,-0.4549,-5.8203,7.3382,-0.7362,0.3656,-0.085,-22.8,-5.25,65.1,-0.6393,-5.0996,8.4874,-0.7221,0.3381,-0.069,-45.45,-23.85,38.4,-0.53,2.81,4.81,38.0,-34.8125,-11.125,413.6875,242.375,373.875,4.69,0.06,-24.81,0,1.2030000686645508,9.37720669176061,0.826364810480214,9.922226736474025,0.8003130762395426,5.595810933189219,52.72263063666304
1776724006.967,-0.2035,-4.9584,8.8418,-0.4956,0.3997,0.0208,-22.95,-4.95,66.75,-0.2322,-4.5179,9.1459,-0.4943,0.3792,0.0362,-45.45,-23.85,38.4,-0.53,2.81,4.81,38.0,-34.8125,-11.125,413.6875,242.375,373.875,4.69,0.06,-24.81,0,1.2090001106262207,10.139258851119248,0.6370338217080785,10.203569182398873,0.6240477305463101,5.595810933189219,52.72263063666304
1776724006.974,-0.0862,-4.8722,10.0676,-0.4956,0.3997,0.0208,-22.95,-3.15,69.15,-0.2322,-4.5179,9.1459,-0.4943,0.3792,0.0362,-45.45,-23.85,38.4,0.32,5.95,6.63,43.75,-23.625,-11.8125,413.6875,242.375,373.875,4.94,0.44,-25.56,0,1.2160000801086426,11.184915423909114,0.6370338217080785,10.203569182398873,0.6240477305463101,8.914134843045623,51.105168831048786
1776724006.984,0.5124,-5.3151,10.8386,-0.3603,0.5569,0.1236,-22.5,-4.5,71.55,0.5411,-5.3846,10.2879,-0.2057,0.7781,0.2435,-47.25,-23.55,40.5,0.0,4.77,9.18,37.3125,-20.875,-2.875,413.6875,242.375,373.875,4.94,0.62,-25.81,0,1.2260000705718994,12.082553195827444,0.6747078330655425,11.624439460894449,0.8408592926286776,10.34530328216626,42.851533301038366
1776724006.994,0.6129,-5.1332,10.975,-0.0845,1.0131,0.2542,-21.15,-5.7,70.95,0.2227,-5.6383,10.4746,-0.0757,0.9955,0.2611,-47.25,-23.55,40.5,-0.12,5.16,10.38,25.875,-25.25,3.375,413.6875,242.375,373.875,4.94,1.0,-26.0,0,1.2360000610351562,12.131612162033536,1.047916742876074,11.897784135711994,1.0319515250243105,11.592428563506441,36.31072499964714
1776724007.004,-0.1269,-5.7389,10.5105,0.2188,1.1631,0.2361,-22.5,-5.25,71.85,-0.6895,-5.6024,10.9008,0.2137,1.1442,0.2385,-46.2,-22.65,42.15,-0.68,5.46,11.05,16.5,-36.625,10.125,413.6875,242.375,373.875,4.94,1.0,-26.0,0,1.246000051498413,11.975879386082678,1.206821552674628,12.275574799169284,1.1881681614990363,12.344087653609725,41.42651626675842
1776724007.011,-0.4477,-5.5522,10.07,0.2188,1.1631,0.2361,-22.5,-5.25,71.85,-0.6895,-5.6024,10.9008,0.2137,1.1442,0.2385,-45.3,-24.45,42.75,-0.37,5.39,10.84,7.875,-50.75,14.5625,417.375,242.375,361.0,4.88,1.5,-26.06,0,1.253000020980835,11.507921625124148,1.206821552674628,12.275574799169284,1.1881681614990363,12.111754621028284,53.38206188646145
1776724007.017,-0.4477,-5.5522,10.07,0.3675,1.2716,0.2553,-22.5,-5.25,71.85,-1.0008,-5.1715,9.9144,0.3651,1.2465,0.2694,-46.5,-24.0,43.8,-0.37,5.39,10.84,7.875,-50.75,14.5625,417.375,242.375,361.0,4.88,2.12,-26.06,0,1.2590000629425049,11.507921625124148,1.3480359416573433,11.226813450396333,1.3265129550818566,12.111754621028284,53.38206188646145
1776724007.024,-1.1803,-5.5689,8.8945,0.4271,1.2473,0.3395,-22.95,-6.9,74.85,-1.1708,-5.2457,8.2791,0.4229,1.2177,0.3581,-46.5,-24.0,43.8,0.25,5.36,11.0,-5.0,-62.125,14.4375,417.375,242.375,361.0,4.94,2.81,-25.88,0,1.2660000324249268,10.560202912349745,1.3614080762210867,9.870746574601133,1.337861468912234,12.23895828900483,63.97622238965036
1776724007.034,-0.8619,-6.699,8.2169,0.3262,1.1826,0.5766,-21.3,-6.75,77.25,-0.8643,-5.8107,7.9272,0.3088,1.1519,0.5969,-45.15,-24.15,43.2,0.45,5.39,9.95,-18.25,-70.5,14.3125,417.375,242.375,361.0,4.94,3.5,-25.62,0,1.2760000228881836,10.63658395444703,1.355513467288319,9.866698982942573,1.3336118850700154,11.325065121225572,74.21698024205782
1776724007.044,-0.4166,-3.0646,7.2832,0.4207,1.0973,0.5801,-22.2,-5.7,79.5,-0.6369,-2.466,7.8889,0.4066,1.0637,0.5793,-43.65,-22.95,44.4,0.74,6.67,7.73,-24.125,-72.9375,17.6875,417.375,242.375,361.0,4.81,4.25,-25.44,0,1.2860000133514404,7.91266901620433,1.3105616315152828,8.289845645125125,1.2776422582241087,10.236669380223237,78.83363614282929
1776724007.054,-0.8499,-1.8723,8.169,0.4594,1.1367,0.3523,-21.9,-6.9,79.2,-0.9768,-2.7485,8.0876,0.445,1.1058,0.3579,-45.15,-23.85,46.65,0.49,5.93,7.23,-22.375,-70.0,27.5,417.375,242.375,361.0,4.81,4.25,-25.44,0,1.2960000038146973,8.423799516845117,1.275637307387958,8.597538266852903,1.244552550115904,9.363647793461691,78.46585642813058
1776724007.061,-0.8978,-3.043,8.0206,0.4594,1.1367,0.3523,-19.95,-7.8,81.45,-1.2426,-3.3208,8.5497,0.445,1.1058,0.3579,-45.15,-23.85,46.65,0.23,0.94,7.1,-22.1875,-65.0625,35.9375,415.5625,241.25,343.0,4.62,4.94,-25.19,0,1.3030002117156982,8.625306846715658,1.275637307387958,9.255762393773946,1.244552550115904,7.165647214313582,77.56879507089175
1776724007.067,-0.8978,-3.043,8.0206,0.4868,1.1708,0.2819,-19.95,-7.8,81.45,-1.2426,-3.3208,8.5497,0.4722,1.1439,0.2942,-44.7,-26.1,47.7,0.23,0.94,7.1,-22.1875,-65.0625,35.9375,415.5625,241.25,343.0,4.62,4.94,-25.19,0,1.309000015258789,8.625306846715658,1.2989282081778037,9.255762393773946,1.2720195320827428,7.165647214313582,77.56879507089175
1776724007.074,-0.8284,-2.7174,8.2887,0.6081,1.2207,0.2161,-19.95,-7.8,81.45,-1.0439,-2.9425,8.1786,0.5918,1.1903,0.2286,-44.7,-26.1,47.7,0.57,1.54,8.15,-27.1875,-63.4375,25.3125,415.5625,241.25,343.0,4.5,6.25,-24.69,0,1.315999984741211,8.762023568217561,1.3807944488590616,8.754286459786428,1.3488140309175314,8.313783735460046,73.51325879560775
1776724007.084,-0.7829,-2.4277,7.8171,0.8226,1.178,0.1588,-19.65,-7.95,80.55,-1.0989,-2.8539,8.2169,0.8188,1.153,0.1703,-44.7,-26.1,47.7,0.7,2.64,8.25,-29.875,-66.3125,17.875,415.5625,241.25,343.0,4.5,6.94,-24.38,0,1.3260002136230469,8.222755749139093,1.4455352641841708,8.767540819979112,1.424375136682749,8.690345217538828,74.89578697263285
1776724007.094,-1.0487,-3.3495,7.9655,0.7589,1.1679,0.1966,-18.75,-6.75,83.7,-1.4437,-3.7661,8.8155,0.7445,1.1365,0.2129,-43.05,-23.55,48.6,0.6,2.21,7.56,-34.5625,-69.0625,14.3125,415.5625,241.25,343.0,4.56,7.56,-23.94,0,1.3360002040863037,8.704488048702233,1.4066169272406754,9.694370487556167,1.3752232218807243,7.899221480627062,78.54325539949309
1776724007.105,-1.233,-4.0821,8.7867,0.571,1.1636,0.2587,-17.7,-8.25,84.0,-1.3024,-4.0247,8.9184,0.5617,1.1335,0.2723,-41.55,-23.25,49.8,0.74,2.78,7.75,-46.625,-68.5625,10.5625,415.5625,241.25,343.0,4.56,7.56,-23.94,0,1.3470001220703125,9.766776658652535,1.3217154194455023,9.870780840946678,1.2940156220077097,8.266710349346951,83.58393049803293
1776724007.111,-1.4533,-3.8499,8.5928,0.1463,1.1346,0.2473,-17.4,-9.3,83.7,-2.0159,-4.1108,8.5688,0.1362,1.1064,0.2505,-41.25,-24.6,51.45,1.06,4.11,8.58,-47.125,-67.25,11.25,411.875,238.375,322.5,4.62,8.19,-23.5,0,1.3530001640319824,9.527330304970013,1.1704179339022451,9.715290159845974,1.1425505021660969,9.572465722059286,82.88480334174655
1776724007.117,-1.9609,-3.9217,8.0086,0.1463,1.1346,0.2473,-17.4,-9.3,83.7,-2.0159,-4.1108,8.5688,0.1362,1.1064,0.2505,-39.75,-24.15,50.25,1.06,4.11,8.58,-47.125,-67.25,11.25,411.875,238.375,322.5,4.69,8.88,-23.12,0,1.3590002059936523,9.130308519431312,1.1704179339022451,9.715290159845974,1.1425505021660969,9.572465722059286,82.88480334174655
1776724007.124,-1.9609,-3.9217,8.0086,-0.1796,1.0307,0.178,-16.65,-8.25,84.3,-2.083,-4.3766,8.3558,-0.186,1.0056,0.1809,-39.75,-24.15,50.25,1.14,3.81,8.4,-37.0625,-66.5,14.5,411.875,238.375,322.5,4.69,9.5,-23.06,0,1.3660001754760742,9.130308519431312,1.0612646465420394,9.659860775394229,1.0385336633927664,9.293852807097819,77.49921874606221
1776724007.134,-1.8316,-4.9512,8.1092,-0.4143,0.9619,0.1644,-16.65,-8.25,84.3,-1.7071,-5.0757,8.7987,-0.4205,0.9345,0.1663,-40.5,-26.1,51.45,1.69,3.57,7.56,-14.625,-65.1875,14.375,411.875,238.375,322.5,4.69,10.06,-23.12,0,1.376000165939331,9.676169936498635,1.0601525644924885,10.30019624036358,1.0381551858946716,8.529630707129119,68.33696954248117
1776724007.144,-1.0702,-4.7788,8.5593,-0.3962,0.9134,0.199,-14.85,-10.05,85.8,-1.7047,-4.7046,8.8155,-0.4042,0.8849,0.198,-39.6,-23.55,50.4,1.55,4.89,7.87,7.1875,-60.0,11.3125,411.875,238.375,322.5,4.69,10.62,-23.38,0,1.386000156402588,9.861230854715856,1.01532014655477,10.13668108899555,0.9927888244737649,9.394226950633032,61.47871837066872
1776724007.155,-1.913,-3.292,8.6143,-0.323,0.8258,0.2657,-14.85,-10.8,86.55,-1.9968,-3.7469,9.0501,-0.34,0.7973,0.2638,-39.6,-23.55,50.4,1.1,4.75,8.36,21.25,-55.5,9.5625,411.875,238.375,322.5,4.69,10.62,-23.38,0,1.3970000743865967,9.418226876116332,0.9256733387108003,9.996538393864148,0.9060230295086323,9.677918164564112,60.19347062805068
1776724007.161,-1.913,-3.292,8.6143,-0.2369,0.74,0.2931,-13.8,-12.0,85.5,-2.1189,-3.2082,8.9184,-0.2513,0.7173,0.2958,-39.45,-25.05,51.0,1.54,4.32,7.98,22.5625,-52.0,11.6875,401.0,232.1875,296.5625,4.62,11.12,-23.56,0,1.4030001163482666,9.418226876116332,0.830439172968135,9.711855796396485,0.8155787025174212,9.204042590079645,57.87628238320081
1776724007.168,-2.569,-2.7054,8.2289,-0.2369,0.74,0.2931,-13.8,-12.0,85.5,-2.7102,-2.988,8.351,-0.1434,0.6041,0.2441,-39.45,-25.05,51.0,1.54,4.32,7.98,22.5625,-52.0,11.6875,401.0,232.1875,296.5625,4.56,11.56,-23.81,0,1.4100000858306885,9.03513947706398,0.830439172968135,9.274293991458325,0.6671470452606381,9.204042590079645,57.87628238320081
1776724007.174,-2.2075,-2.6911,7.331,-0.1191,0.6307,0.2329,-14.4,-12.0,87.15,-2.7102,-2.988,8.351,-0.1434,0.6041,0.2441,-39.45,-25.05,51.0,1.66,3.58,8.29,18.75,-47.1875,15.3125,401.0,232.1875,296.5625,4.5,12.0,-23.94,0,1.4160001277923584,8.115333416440757,0.6827955111158831,9.274293991458325,0.6671470452606381,9.181290758929268,53.03484998093235
1776724007.184,-1.9321,-3.6464,6.5817,-0.0442,0.4311,0.1367,-12.6,-12.75,87.15,-2.2386,-3.2465,7.7812,-0.064,0.4106,0.1418,-37.2,-24.6,51.75,2.34,2.38,7.42,12.9375,-42.0625,16.75,401.0,232.1875,296.5625,4.44,12.38,-24.0,0,1.4260001182556152,7.768398693424533,0.45440922085714763,8.723426256351342,0.43908495761071115,8.136117009974722,47.08710346262552
1776724007.194,-2.4565,-4.616,6.3327,0.0179,0.1844,0.0789,-12.6,-12.75,87.15,-2.2027,-4.0917,7.2999,0.0011,0.1692,0.0853,-37.95,-24.15,52.2,2.07,2.36,6.6,6.4375,-34.5625,13.5,401.0,232.1875,296.5625,4.38,12.62,-24.0,0,1.436000108718872,8.212486684311884,0.20136777299260178,8.653463826121884,0.18948862762709534,7.308522422487324,37.65976384020484
1776724007.205,-2.6193,-4.391,6.9935,0.1775,-0.0831,0.1116,-11.25,-13.8,87.6,-2.6935,-4.2449,8.09,0.1484,-0.0983,0.1191,-38.25,-27.0,51.75,1.83,3.08,5.99,1.875,-22.6875,7.8125,401.0,232.1875,296.5625,4.38,12.62,-24.0,0,1.4470000267028809,8.663178154695885,0.22553585080869074,9.524821166825129,0.21417343439371747,6.979641824621089,24.068099997714818
1776724007.211,-2.6193,-4.391,6.9935,0.3088,-0.3248,0.1564,-11.85,-13.5,87.9,-2.6935,-4.2449,8.09,0.3022,-0.3411,0.1703,-38.1,-25.5,53.85,2.42,4.6,5.54,-2.625,-7.5625,4.875,387.875,226.1875,265.6875,4.38,12.69,-24.0,0,1.4530000686645508,8.663178154695885,0.4746719288097833,9.524821166825129,0.4864937204116822,7.596578177047874,9.372708053172254
1776724007.218,-2.229,-3.8978,8.3342,0.1958,-0.4911,0.2318,-11.85,-13.5,87.9,-2.3894,-3.6703,8.8945,0.1951,-0.5167,0.2372,-34.8,-25.35,53.55,2.42,4.6,5.54,-2.625,-7.5625,4.875,387.875,226.1875,265.6875,4.31,12.62,-23.81,0,1.4600000381469727,9.466793305021504,0.5772764415771702,9.914255630151969,0.6010879636126479,7.596578177047874,9.372708053172254
1776724007.224,-2.1428,-4.197,8.7077,0.1958,-0.4911,0.2318,-13.2,-12.45,88.05,-2.3056,-3.6464,8.4132,0.4018,-0.3997,0.4559,-34.8,-25.35,53.55,2.42,4.3,6.45,-12.25,8.375,6.5625,387.875,226.1875,265.6875,4.19,12.5,-23.62,0,1.4660000801086426,9.901032275980118,0.5772764415771702,9.454837838905542,0.7273569550090244,8.120892808059962,16.225582616658176
1776724007.234,-1.7526,-3.45,8.6862,0.4215,-0.3563,0.4495,-11.85,-12.75,88.35,-1.8818,-3.3758,8.6287,0.219,-0.3038,0.534,-36.6,-25.5,53.1,2.1,4.03,7.65,-17.5,22.3125,9.6875,387.875,226.1875,265.6875,3.94,12.31,-23.38,0,1.4760000705718994,9.509162802266033,0.711802072208279,9.454716313565417,0.6522357242592589,8.897943582648747,29.96573564089492
1776724007.245,-1.9297,-3.2825,9.1482,0.2081,-0.2689,0.5175,-11.85,-12.75,88.35,-2.1404,-3.4931,9.5481,0.1146,-0.2739,0.5383,-36.6,-25.5,53.1,1.87,4.93,8.74,-17.625,28.3125,16.5625,387.875,226.1875,265.6875,3.69,12.19,-23.12,0,1.4869999885559082,9.908991451202287,0.6192084221003458,10.389863973123036,0.614753007312693,10.207320902176045,37.23646985819145
1776724007.255,-1.822,-3.2226,9.8474,0.1564,-0.239,0.5191,-11.85,-12.75,88.35,-2.0279,-3.3543,9.833,0.4085,-0.2228,0.498,-34.8,-25.8,54.0,1.59,3.33,8.5,-22.4375,21.75,27.125,387.875,226.1875,265.6875,3.69,12.19,-23.12,0,1.4970002174377441,10.52027193184663,0.5924919999459909,10.585442640721265,0.6815541724617347,9.266444841469678,41.37957867414795
1776724007.261,-1.9225,-2.4636,9.9096,0.4567,-0.19,0.4754,-13.5,-13.65,87.0,-2.0279,-3.3543,9.833,0.4085,-0.2228,0.498,-36.75,-27.3,53.55,1.79,3.17,9.16,-11.1875,17.625,30.625,368.0,218.6875,234.5,3.38,12.19,-22.94,0,1.503000020980835,10.390644992973245,0.6860612581978376,10.585442640721265,0.6815541724617347,9.85690620833941,37.06334316072958
1776724007.268,-1.9225,-2.4636,9.9096,0.6067,-0.1569,0.3877,-12.6,-14.55,88.65,-2.0614,-2.7294,9.8641,0.5907,-0.1969,0.4175,-34.8,-27.0,53.55,1.79,3.17,9.16,-11.1875,17.625,30.625,368.0,218.6875,234.5,3.06,12.12,-22.69,0,1.5099999904632568,10.390644992973245,0.7368946939692266,10.440280797469004,0.7496681599214415,9.85690620833941,37.06334316072958
1776724007.275,-1.7741,-2.3607,9.1506,0.6067,-0.1569,0.3877,-12.6,-14.55,88.65,-1.9417,-2.8659,9.1818,0.64,-0.2134,0.291,-34.8,-27.0,53.55,1.66,3.0,9.79,-15.4375,14.9375,30.0,368.0,218.6875,234.5,2.81,12.12,-22.38,0,1.5170001983642578,9.615290721553874,0.7368946939692266,9.812697536355639,0.7347248192350657,10.373027523341484,36.897768394579096
1776724007.285,-2.2482,-2.1644,8.1954,0.1839,-0.0826,0.0893,-12.45,-13.95,88.5,-2.3583,-2.8323,7.4675,0.2041,-0.1327,0.1236,-34.65,-25.5,53.4,1.68,1.87,9.32,-30.6875,12.25,26.625,368.0,218.6875,234.5,2.62,12.12,-21.94,0,1.5270001888275146,8.769470437831465,0.22049140572820522,8.32748812247727,0.27302574970137894,9.653066870171365,42.43437028223702
1776724007.295,-2.2242,-3.3495,7.1706,0.3821,-0.0067,-0.0128,-10.05,-14.55,89.7,-2.1979,-3.7565,7.1587,0.319,-0.0482,0.0053,-35.1,-25.95,53.85,1.67,1.94,8.5,-37.75,11.625,20.125,368.0,218.6875,234.5,2.56,12.06,-21.62,0,1.5370001792907715,8.220931835868729,0.38237303775240217,8.377890089396017,0.32266442320156713,8.877077221698592,44.33078783419036
1776724007.305,-1.8699,-3.4524,7.6184,0.6595,0.081,-0.0298,-10.05,-14.55,89.7,-2.0207,-3.3758,7.5106,0.6355,0.0368,-0.008,-35.85,-26.7,55.35,2.13,1.73,8.05,-29.4375,11.0625,11.625,368.0,218.6875,234.5,2.56,12.06,-21.62,0,1.5470001697540283,8.570624850616204,0.6651235148451752,8.478700754832666,0.6366148678753898,8.50483979860879,33.52739085434475
1776724007.311,-2.0255,-2.8659,8.0325,0.6595,0.081,-0.0298,-10.05,-14.55,89.7,-2.1237,-2.9904,8.0517,0.5566,0.1372,-0.016,-35.85,-26.7,55.35,1.72,3.51,7.5,-15.0625,4.75,2.3125,354.1875,214.0625,212.875,2.5,12.0,-21.44,0,1.5530002117156982,8.765676774214299,0.6651235148451752,8.847737944808266,0.5734835655884133,8.457452335071123,15.962113346922456
1776724007.318,-2.0255,-2.8659,8.0325,0.5407,0.178,-0.0376,-9.75,-14.25,87.9,-2.1237,-2.9904,8.0517,0.5566,0.1372,-0.016,-35.85,-26.7,55.35,1.72,3.51,7.5,-15.0625,4.75,2.3125,354.1875,214.0625,212.875,2.56,12.0,-21.19,0,1.5600001811981201,8.765676774214299,0.570485977040628,8.847737944808266,0.5734835655884133,8.457452335071123,15.962113346922456
1776724007.325,-2.0758,-3.3615,8.6598,0.4223,0.2809,0.032,-9.75,-14.25,87.9,-2.3032,-3.292,8.4922,0.4234,0.2401,0.0346,-34.8,-24.6,54.75,1.77,2.92,7.8,-31.75,0.1875,-1.3125,354.1875,214.0625,212.875,2.62,12.06,-20.81,0,1.567000150680542,9.518443356452776,0.5081988783930953,9.394650343679642,0.48796796001376974,8.514652077448613,31.777670029440486
1776724007.335,-2.2673,-3.4357,8.5353,0.3754,0.3469,0.1172,-9.75,-15.3,87.6,-2.4756,-3.2848,8.4276,0.3661,0.3134,0.121,-34.8,-24.6,54.75,1.85,2.91,8.28,-37.5,-5.5,-2.125,354.1875,214.0625,212.875,2.69,12.19,-20.5,0,1.5770001411437988,9.47607671296513,0.5244050056969327,9.377790153335699,0.49688003582353757,8.969336653287131,37.96071159765054
1776724007.345,-2.3727,-3.2322,8.5281,0.3645,0.3528,0.1537,-9.0,-15.3,88.95,-2.5642,-3.3303,8.5808,0.3475,0.3267,0.1639,-34.35,-26.7,54.6,1.96,3.5,8.68,-29.125,-11.75,-0.125,354.1875,214.0625,212.875,2.69,12.31,-20.31,0,1.5870001316070557,9.423657025804792,0.5300488468056506,9.55490179803016,0.5043335701695852,9.562112737256344,31.40611007431516
1776724007.355,-2.3296,-3.4141,8.77,0.4112,0.3587,0.1708,-9.9,-15.9,87.75,-2.4517,-3.4955,8.8777,0.3877,0.3256,0.1791,-34.8,-24.6,54.3,2.2,3.25,8.18,-24.25,-17.0625,4.6875,354.1875,214.0625,212.875,2.69,12.31,-20.31,0,1.5970001220703125,9.695154200424044,0.5717724809747318,9.851036007953683,0.5370320847025809,9.072755920887545,30.01939477238007
1776724007.361,-2.3128,-3.5626,9.0573,0.4112,0.3587,0.1708,-9.9,-15.9,87.75,-2.4708,-3.7038,9.1674,0.4815,0.3283,0.1913,-31.95,-25.2,55.35,2.16,3.3,8.36,-22.5625,-18.6875,8.125,349.1875,209.25,200.375,2.69,12.56,-20.06,0,1.6030001640319824,10.003791575697687,0.5717724809747318,10.1913791922389,0.6133667989058422,9.243657284862955,30.402379635482482
1776724007.368,-3.0813,-3.7924,9.0214,0.5289,0.3579,0.1716,-8.1,-15.15,88.8,-2.4708,-3.7038,9.1674,0.4815,0.3283,0.1913,-31.95,-25.2,55.35,2.16,3.3,8.36,-22.5625,-18.6875,8.125,349.1875,209.25,200.375,2.69,12.56,-20.06,0,1.6100001335144043,10.259744899850093,0.6612671018582431,10.1913791922389,0.6133667989058422,9.243657284862955,30.402379635482482
1776724007.374,-3.0813,-3.7924,9.0214,0.732,0.3512,0.1849,-8.1,-15.15,88.8,-3.0622,-3.6799,9.2033,0.6829,0.3235,0.2036,-33.0,-25.8,56.25,2.12,3.35,8.55,-23.8125,-19.0625,9.6875,349.1875,209.25,200.375,2.62,12.94,-19.56,0,1.6160001754760742,10.259744899850093,0.8326784793664359,10.373980130113996,0.7825967160677331,9.424404490470472,32.00408909420795
1776724007.385,-2.5498,-3.3375,9.1506,0.8423,0.3312,0.1681,-8.1,-15.45,88.5,-2.6839,-3.4764,9.3111,0.8242,0.311,0.1881,-32.25,-24.6,54.3,2.68,3.68,8.76,-29.5,-19.125,9.9375,349.1875,209.25,200.375,2.56,13.12,-19.12,0,1.627000093460083,10.068459000760743,0.9205543655863027,10.294914248307268,0.9007820213569984,9.87230469545992,36.53449782397453
1776724007.395,-2.9904,-3.5314,8.6957,0.7405,0.2518,0.2012,-7.2,-14.55,88.65,-3.1029,-3.3998,8.9711,0.761,0.2433,0.2052,-32.7,-25.2,56.1,2.46,3.19,8.85,-40.3125,-18.8125,10.5,349.1875,209.25,200.375,2.56,13.38,-18.69,0,1.6370000839233398,9.850303376546329,0.807604439066552,10.083018578778876,0.8248775242422356,9.723692714190427,45.70839980244332
1776724007.405,-3.134,-3.213,8.2169,0.6017,0.1167,0.2531,-5.55,-13.2,89.85,-3.4836,-3.3255,8.4994,0.6073,0.1103,0.2577,-32.7,-25.2,56.1,2.46,3.39,8.56,-49.0625,-17.9375,10.125,349.1875,209.25,200.375,2.56,13.38,-18.69,0,1.6470000743865967,9.362839879545096,0.6631149146264168,9.769043943498257,0.6688711908880514,9.529811120898461,53.210886456626525
1776724007.412,-3.146,-3.1963,8.1594,0.6382,-0.0208,0.2912,-5.55,-13.2,89.85,-3.1747,-3.1699,8.6694,0.5955,-0.0285,0.3016,-31.2,-25.2,55.65,3.11,3.26,7.44,-46.9375,-14.5,11.0625,346.1875,204.0625,191.5625,2.56,13.5,-18.19,0,1.6540000438690186,9.310717375691306,0.7018043317050701,9.761428300202793,0.6681280266535748,8.697890548862983,50.35630856705046
1776724007.418,-2.5355,-2.6169,8.3893,0.6382,-0.0208,0.2912,-5.55,-13.2,89.85,-2.6528,-2.7797,8.7652,0.7389,-0.1188,0.2968,-31.2,-25.2,55.65,3.11,3.26,7.44,-46.9375,-14.5,11.0625,346.1875,204.0625,191.5625,2.44,13.62,-17.81,0,1.6600000858306885,9.146435390358366,0.7018043317050701,9.570413312391478,0.8050943360873929,8.697890548862983,50.35630856705046
1776724007.425,-2.5355,-2.6169,8.3893,0.7733,-0.1031,0.2587,-7.95,-13.5,88.65,-2.6528,-2.7797,8.7652,0.7389,-0.1188,0.2968,-31.2,-25.2,55.65,3.06,3.15,7.56,-38.6875,-6.875,13.875,346.1875,204.0625,191.5625,2.38,13.62,-17.38,0,1.6670000553131104,9.146435390358366,0.8219173863594808,9.570413312391478,0.8050943360873929,8.742980041153016,41.67137994175379
1776724007.435,-2.6647,-2.2027,8.4803,0.8777,-0.1479,0.1434,-6.9,-13.8,87.15,-2.8659,-2.6815,8.7269,0.8356,-0.1799,0.1985,-30.3,-25.05,55.05,2.48,2.68,7.87,-38.0625,1.375,16.375,346.1875,204.0625,191.5625,2.25,13.62,-16.94,0,1.6770000457763672,9.157947448527972,0.9015515847692799,9.56883528283354,0.8774928033892927,8.675811201265274,41.45823387760265
1776724007.445,-2.6935,-2.2051,8.8873,1.0416,-0.1522,0.0408,-7.95,-12.75,88.65,-2.8802,-2.3679,8.8849,0.9963,-0.1839,0.0794,-31.65,-23.55,55.65,2.27,2.03,8.12,-45.3125,7.125,15.5625,346.1875,204.0625,191.5625,2.19,13.56,-16.38,0,1.687000036239624,9.5447110773454,1.0534514891536297,9.635556572404107,1.0162368129525714,8.672266139827581,48.43737903210701
1776724007.455,-2.6743,-1.98,8.6933,1.1141,-0.1194,0.0059,-8.25,-13.05,87.6,-2.8515,-2.0423,8.667,1.0592,-0.1274,0.0115,-31.65,-24.75,56.4,2.52,1.99,8.54,-52.375,10.1875,9.5625,346.1875,204.0625,191.5625,2.19,13.56,-16.38,0,1.6970000267028809,9.30836964134966,1.1204954172150818,9.349809117837648,1.0668962695595106,9.123710867843194,54.206707956672666
1776724007.462,-2.6743,-1.98,8.6933,1.0512,-0.0826,-0.0211,-8.25,-13.05,87.6,-2.8515,-2.0423,8.667,1.0592,-0.1274,0.0115,-30.9,-24.0,56.7,2.51,2.16,8.66,-61.375,10.75,3.0625,343.5625,201.25,183.875,2.25,13.5,-15.75,0,1.7039999961853027,9.30836964134966,1.0546513215276412,9.349809117837648,1.0668962695595106,9.271531696542917,62.384549619677465
1776724007.468,-2.4636,-2.1524,8.6862,0.9979,-0.0496,-0.0304,-6.45,-13.5,89.4,-2.6001,-2.3248,8.7125,0.9974,-0.0887,-0.0072,-30.9,-24.0,56.7,2.51,2.16,8.66,-61.375,10.75,3.0625,343.5625,201.25,183.875,2.25,13.5,-15.75,0,1.7100000381469727,9.281822081897497,0.9995942826967349,9.384714769240459,1.0013622171821743,9.271531696542917,62.384549619677465
1776724007.475,-2.4756,-2.3607,8.9998,0.9979,-0.0496,-0.0304,-6.45,-13.5,89.4,-2.6384,-2.399,8.8753,0.9819,-0.0376,-0.0099,-30.9,-22.5,56.1,2.53,1.91,8.58,-66.3125,9.1875,0.375,343.5625,201.25,183.875,2.38,13.31,-14.5,0,1.7170000076293945,9.627974859231822,0.9995942826967349,9.564899667534416,0.9826695171826589,9.146879249230308,66.94698228822566
1776724007.485,-2.466,-2.4349,8.9974,1.0062,0.0088,-0.0296,-7.05,-12.45,88.5,-2.5666,-2.5881,9.0166,1.0283,0.0203,-0.0043,-30.15,-23.25,56.7,2.3,2.11,8.58,-63.6875,7.0625,-0.9375,343.5625,201.25,183.875,2.44,13.25,-13.94,0,1.7269999980926514,9.64173743523438,1.006673750526952,9.725470308936222,1.0285093436619814,9.130087622799685,64.08475223288298
1776724007.495,-2.4995,-2.4708,8.7867,1.0632,0.0693,-0.0285,-7.05,-12.45,88.8,-2.6432,-2.6097,8.8777,1.1143,0.06,-0.0035,-30.15,-23.25,56.7,2.3,2.26,8.82,-60.5,4.75,-1.9375,343.5625,201.25,183.875,2.5,13.25,-13.31,0,1.7369999885559082,9.463532626878823,1.065837220217046,9.623440009684687,1.115919683489811,9.39095309327014,60.717101431557154
1776724007.505,-2.5786,-2.4612,8.6119,1.1426,0.1045,-0.0325,-6.9,-11.55,88.95,-2.7438,-2.4612,8.7412,1.1263,0.0765,0.0067,-31.2,-21.6,55.65,2.31,2.35,8.91,-60.8125,1.5,-1.9375,343.5625,201.25,183.875,2.5,13.25,-13.31,0,1.7470002174377441,9.320488453402,1.1478289332474592,9.486544224321099,1.1289148905032658,9.49982631420175,60.86184406095497
1776724007.512,-2.5786,-2.4612,8.6119,1.1165,0.1021,-0.0064,-6.9,-11.55,88.95,-2.7438,-2.4612,8.7412,1.1263,0.0765,0.0067,-31.2,-21.6,55.65,2.37,2.41,8.52,-64.375,-1.875,-1.875,341.75,199.75,172.875,2.62,13.25,-12.69,0,1.754000186920166,9.320488453402,1.1211768905930946,9.486544224321099,1.1289148905032658,9.165991490286252,64.42958850559268
1776724007.518,-2.545,-2.4636,8.4443,0.9558,0.0655,0.052,-5.7,-10.05,88.35,-2.6695,-2.3272,8.6048,0.9944,0.0442,0.0544,-31.2,-21.6,55.65,2.37,2.41,8.52,-64.375,-1.875,-1.875,341.75,199.75,172.875,2.75,13.31,-12.06,0,1.7599999904632568,9.157103933558908,0.9594518695588643,9.305088561104617,0.9968672730108056,9.165991490286252,64.42958850559268
1776724007.525,-2.5809,-2.1045,8.4827,0.9558,0.0655,0.052,-7.05,-9.9,89.1,-2.6193,-2.162,8.7029,0.7925,-0.0064,0.1071,-29.7,-20.85,57.45,2.39,2.53,8.22,-68.25,-3.8125,-1.875,341.75,199.75,172.875,2.81,13.31,-11.44,0,1.7670001983642578,9.11296682480519,0.9594518695588643,9.342132781115884,0.799729716841884,8.926443860799216,68.38211229005726
1776724007.535,-2.4349,-0.893,8.3653,0.8021,0.0112,0.0781,-7.05,-9.9,89.1,-2.5115,-1.3048,8.7245,0.9006,-0.0498,0.0338,-30.9,-22.5,55.65,2.4,2.48,7.98,-65.75,-3.5625,0.0,341.75,199.75,172.875,2.81,13.38,-10.88,0,1.7770001888275146,8.758106593322553,0.8059711285151597,9.172079128529148,0.9026089075563125,8.694296981355077,65.84644186476594
1776724007.545,-2.1213,-1.6017,8.9663,0.9971,-0.0285,-0.0165,-6.3,-10.65,88.05,-2.2553,-1.6065,9.0309,1.1053,-0.0727,0.0133,-30.75,-21.9,55.8,2.65,2.36,7.9,-55.75,-1.1875,3.3125,341.75,199.75,172.875,2.88,13.31,-10.38,0,1.7870001792907715,9.3519993728614,0.9976436788753787,9.445865505606143,1.1077681481248682,8.660375280552223,55.86094621916102
1776724007.555,-2.3391,-1.3431,8.8681,1.1005,-0.0453,0.0653,-7.05,-9.9,89.1,-2.5235,-1.2306,9.0285,1.1026,-0.0738,0.0722,-30.75,-21.0,55.5,2.03,1.07,8.41,-51.0,1.5625,3.4375,341.75,199.75,172.875,2.88,13.31,-10.38,0,1.7970001697540283,9.269223485815843,1.1033659547040593,9.454958532960363,1.1074231530900915,8.717448021066716,51.13959143853224
1776724007.562,-2.7461,-1.5467,8.77,1.1005,-0.0453,0.0653,-7.05,-9.9,89.1,-2.8874,-1.3934,8.8777,1.0341,-0.0933,0.1444,-30.45,-20.85,55.65,1.99,1.68,8.71,-61.5625,3.8125,-0.5,341.5625,195.0,162.5625,2.94,13.31,-9.75,0,1.8040001392364502,9.319133334167937,1.1033659547040593,9.438866436707324,1.0482934035850842,9.091017544807624,61.682465600039045
1776724007.568,-2.7461,-1.5467,8.77,1.0389,-0.0533,0.1426,-7.05,-9.9,89.1,-2.8874,-1.3934,8.8777,1.0341,-0.0933,0.1444,-30.45,-20.85,55.65,1.99,1.68,8.71,-61.5625,3.8125,-0.5,341.5625,195.0,162.5625,2.94,13.31,-9.75,0,1.8100001811981201,9.319133334167937,1.0499946952246948,9.438866436707324,1.0482934035850842,9.091017544807624,61.682465600039045
1776724007.575,-2.1261,-0.9457,8.9399,1.1034,-0.0242,0.1655,-5.55,-7.65,88.8,-2.3391,-1.0056,8.9759,1.069,-0.0648,0.1865,-31.5,-21.0,57.3,2.17,1.38,8.52,-67.375,4.375,0.9375,341.5625,195.0,162.5625,3.0,13.25,-8.5,0,1.817000150680542,9.23777363383624,1.116005129916525,9.330026847764158,1.0870797072892124,8.899646060377906,67.52340450725215
1776724007.585,-2.3679,-1.1684,9.4116,1.0525,0.0293,0.1921,-7.5,-8.55,88.35,-2.5067,-1.2498,9.3398,1.084,-0.0285,0.2025,-31.5,-21.0,57.3,1.71,1.1,8.98,-65.125,5.125,5.0,341.5625,195.0,162.5625,3.0,13.19,-7.81,0,1.8270001411437988,9.77498457952748,1.070288348997596,9.750764532589226,1.1031203470156827,9.207306880950586,65.51741180785456
1776724007.595,-2.3343,-1.1732,9.2775,0.9603,0.0698,0.186,-7.5,-8.55,88.35,-2.4469,-1.2857,9.347,0.9662,0.0266,0.2134,-31.2,-20.4,57.45,2.06,1.01,8.97,-63.8125,4.75,8.75,341.5625,195.0,162.5625,3.0,13.19,-7.19,0,1.8370001316070557,9.63832770660969,0.9806345547654335,9.747140765373196,0.9898431997038722,9.258758016062414,64.58451947835488
1776724007.605,-2.5211,-1.4174,9.4212,1.0003,0.1127,0.1836,-7.05,-8.4,88.05,-2.6169,-1.5275,9.4212,0.9566,0.0608,0.2044,-31.2,-20.4,57.45,2.12,1.14,9.32,-66.0,2.5625,10.125,341.5625,195.0,162.5625,3.0,13.19,-7.19,0,1.8470001220703125,9.855149791352742,1.0232352319970222,9.896485805577655,0.9800814047822762,9.625819445636823,66.82126930289486
1776724007.612,-2.8228,-1.7813,9.4451,1.0003,0.1127,0.1836,-6.3,-7.2,87.45,-3.0526,-1.8435,9.4116,1.0834,0.0994,0.2078,-30.9,-18.9,57.45,2.06,1.13,9.15,-61.125,-0.75,11.0,343.6875,187.75,152.6875,2.94,13.19,-6.56,0,1.8540000915527344,10.017541791277939,1.0232352319970222,10.064545373239667,1.1076176054938816,9.44685132729419,62.11141702617966
1776724007.618,-2.8228,-1.7813,9.4451,1.1386,0.1476,0.206,-6.3,-7.2,87.45,-2.5211,-1.403,10.0006,1.2159,0.1362,0.2459,-30.9,-18.9,57.45,2.06,1.13,9.15,-61.125,-0.75,11.0,343.6875,187.75,152.6875,2.88,13.25,-5.94,0,1.8600001335144043,10.017541791277939,1.1664611952396873,10.408475131833674,1.247970376250975,9.44685132729419,62.11141702617966
1776724007.625,-2.3367,-1.233,10.0269,1.2985,0.1807,0.2046,-6.9,-8.55,88.35,-2.5211,-1.403,10.0006,1.2159,0.1362,0.2459,-30.45,-18.9,57.15,2.46,1.52,9.33,-58.5,-3.1875,10.75,343.6875,187.75,152.6875,2.88,13.31,-5.31,0,1.8670001029968262,10.36914555303377,1.3268820218843875,10.408475131833674,1.247970376250975,9.767850326453615,59.56486091858186
1776724007.635,-2.6863,-0.5459,9.7157,1.2958,0.1617,0.1761,-5.55,-6.9,87.75,-2.8922,-0.6584,9.809,1.3406,0.1428,0.2046,-30.3,-18.3,57.3,3.03,2.02,9.42,-64.0625,-5.4375,11.0,343.6875,187.75,152.6875,2.81,13.38,-4.56,0,1.877000093460083,10.095000791976194,1.3176705733983742,10.247672535751715,1.3636206803946618,10.099391070752732,65.22706733021192
1776724007.645,-2.7054,0.0287,9.5361,0.9451,0.0887,0.1713,-5.55,-6.9,87.75,-2.8778,-0.1508,9.8306,1.0749,0.0941,0.2046,-31.8,-17.55,57.0,2.11,0.68,9.63,-72.6875,-7.5625,12.375,343.6875,187.75,152.6875,2.81,13.5,-3.81,0,1.8870000839233398,9.912477796192029,0.9645856053248981,10.244274978738124,1.098237670087855,9.881872292232886,74.12020431366875
1776724007.655,-2.7773,0.3567,8.9064,0.6726,-0.0624,0.1311,-5.55,-6.9,87.75,-2.9233,0.1101,9.493,0.7424,-0.0293,0.1631,-30.15,-18.15,57.45,2.51,0.11,9.09,-79.25,-8.0625,11.0625,343.6875,187.75,152.6875,2.81,13.5,-3.81,0,1.8970000743865967,9.336197895289066,0.6880928207734768,9.933521726960686,0.7606693499806602,9.430816507598905,80.42353705539193
1776724007.662,-2.6839,-0.1125,8.7652,0.566,-0.2225,0.1228,-5.4,-6.3,88.35,-2.7869,-0.1508,9.2656,0.5868,-0.1897,0.1367,-28.95,-18.9,57.9,2.52,-0.46,8.37,-67.625,-5.5,10.3125,346.0,178.75,139.375,2.81,13.5,-3.12,0,1.9040000438690186,9.167590005012222,0.6204370153367704,9.67682259886994,0.6316701829277681,8.753222263829475,68.62753296782567
1776724007.668,-2.2482,-0.0503,9.2608,0.566,-0.2225,0.1228,-5.4,-6.3,88.35,-2.3942,-0.2227,9.5337,0.5569,-0.3128,0.1324,-28.95,-18.9,57.9,2.52,-0.46,8.37,-67.625,-5.5,10.3125,346.0,178.75,139.375,2.81,13.5,-3.12,0,1.9100000858306885,9.529918675938426,0.6204370153367704,9.832254300006687,0.6523122028599495,8.753222263829475,68.62753296782567
1776724007.675,-2.2482,-0.0503,9.2608,0.5977,-0.3147,0.1013,-6.6,-6.15,88.5,-2.3942,-0.2227,9.5337,0.5569,-0.3128,0.1324,-28.95,-18.9,57.9,2.38,-0.35,8.19,-47.8125,1.4375,8.75,346.0,178.75,139.375,2.75,13.44,-2.25,0,1.9170000553131104,9.529918675938426,0.6830395815763534,9.832254300006687,0.6523122028599495,8.53598266165062,48.62781161537089
1776724007.685,-2.0638,-0.0096,9.2416,0.6941,-0.3355,0.0898,-5.4,-6.3,88.65,-2.715,-0.4118,9.3087,0.6619,-0.3603,0.1143,-30.45,-16.95,56.4,2.25,-0.09,8.69,-36.9375,10.8125,7.0625,346.0,178.75,139.375,2.69,13.25,-1.94,0,1.9270000457763672,9.469241424739366,0.7761437366879926,9.705292367054174,0.7622284368875252,8.977009524334926,39.130141435343674
1776724007.695,-2.6145,-0.3472,9.2895,0.6558,-0.308,0.1007,-5.7,-6.0,87.9,-2.7773,-0.4932,9.2943,0.6454,-0.3147,0.0975,-31.5,-16.35,57.3,2.0,-0.14,8.9,-35.1875,18.0625,6.375,346.0,178.75,139.375,2.69,13.06,-1.5,0,1.937000036239624,9.656654096528467,0.7314903485350986,9.7129117168849,0.7246264554927594,9.123025813840494,40.063133770338034
1776724007.706,-2.5331,-0.3041,9.323,0.6686,-0.2563,0.0498,-5.7,-6.0,87.9,-2.7031,-0.6823,9.2249,0.6662,-0.2518,0.033,-30.3,-16.35,56.55,2.27,0.35,9.08,-39.8125,21.3125,5.0,346.0,178.75,139.375,2.69,13.06,-1.5,0,1.948000192642212,9.665785090720775,0.717771335454405,9.636963365604334,0.7129619064157636,9.365991672001423,45.43410406841979
1776724007.712,-2.5307,-0.3232,9.2632,0.692,-0.199,-0.0157,-5.7,-6.0,87.9,-2.7031,-0.6823,9.2249,0.6662,-0.2518,0.033,-30.75,-17.1,56.55,2.36,0.18,9.12,-40.5,20.625,5.125,345.75,166.375,127.0,2.69,12.81,-1.12,0,1.9539999961853027,9.608109854180476,0.7202162800159407,9.636963365604334,0.7129619064157636,9.422122903040481,45.73736164231601
1776724007.718,-2.557,-0.316,9.3087,0.692,-0.199,-0.0157,-5.7,-6.0,87.9,-2.7102,-0.5986,9.3326,0.6963,-0.2057,-0.0442,-30.75,-17.1,57.3,2.36,0.18,9.12,-40.5,20.625,5.125,345.75,166.375,127.0,2.69,12.81,-1.12,0,1.9600000381469727,9.658674893068925,0.7202162800159407,9.736576850207674,0.7273924800271171,9.422122903040481,45.73736164231601
1776724007.725,-2.5594,-0.0622,9.3733,0.7293,-0.1532,-0.0989,-7.2,-5.25,88.35,-2.66,-0.4118,9.3853,0.7317,-0.1684,-0.109,-30.15,-16.95,56.7,2.34,0.19,9.14,-40.25,18.125,3.5625,345.75,166.375,127.0,2.75,12.5,-0.31,0,1.9670000076293945,9.716642943424441,0.7517512487518726,9.763658910982093,0.7586991828122659,9.436699634935936,44.286222815340665
1776724007.735,-2.5307,-0.0311,9.4643,0.7488,-0.1295,-0.1476,-5.55,-4.95,88.8,-2.6217,-0.0886,9.4978,0.7229,-0.1516,-0.1418,-30.3,-16.35,56.25,2.33,0.08,9.14,-41.375,14.6875,-0.25,345.75,166.375,127.0,2.81,12.44,0.06,0,1.9769999980926514,9.796855831847276,0.7741172068879492,9.853393612862524,0.7521131630280113,9.432650740910532,43.90530470512646
1776724007.745,-2.5355,0.2777,9.3134,0.7059,-0.1156,-0.1599,-6.45,-4.8,87.6,-2.739,0.2059,9.4547,0.6227,-0.1585,-0.129,-30.3,-16.35,56.25,2.33,-0.01,9.17,-43.25,11.5625,-4.875,345.75,166.375,127.0,3.0,12.31,0.44,0,1.9869999885559082,9.65636044791204,0.7329571474513363,9.845601449378297,0.6553766398034034,9.46138996131118,45.033537849584945
1776724007.756,-2.3894,0.3711,9.1698,0.5681,-0.1364,-0.1394,-6.9,-4.5,88.35,-2.636,0.2897,9.347,0.4671,-0.1913,-0.1087,-31.95,-16.5,54.9,2.31,-0.05,9.16,-44.8125,9.75,-8.3125,345.75,166.375,127.0,3.0,12.31,0.44,0,1.998000144958496,9.483257858457716,0.6006454278524062,9.715906086927765,0.5163272121436173,9.446914840306333,46.608157145504045
1776724007.762,-2.3894,0.3711,9.1698,0.404,-0.1761,-0.1106,-6.9,-4.5,88.35,-2.5786,0.2729,9.2033,0.2923,-0.2345,-0.0882,-31.95,-16.5,54.9,2.35,-0.24,8.97,-42.9375,9.0625,-9.4375,348.25,153.375,113.0625,3.12,12.25,0.88,0,2.004000186920166,9.483257858457716,0.4543782235098861,9.56160986759029,0.38497893448862885,9.27582880393984,44.886793366757665
1776724007.769,-2.4541,0.328,8.9399,0.1977,-0.2321,-0.0839,-7.35,-4.2,87.45,-2.5786,0.2729,9.2033,0.2923,-0.2345,-0.0882,-31.95,-16.5,54.9,2.35,-0.24,8.97,-42.9375,9.0625,-9.4375,348.25,153.375,113.0625,3.25,12.12,1.19,0,2.011000156402588,9.27642187591746,0.3162197179177795,9.56160986759029,0.38497893448862885,9.27582880393984,44.886793366757665
1776724007.775,-2.1548,0.17,9.0549,0.1977,-0.2321,-0.0839,-7.35,-4.2,87.45,-2.4014,0.2418,9.232,0.0794,-0.2731,-0.053,-31.8,-16.8,56.55,2.23,-0.33,8.82,-35.5,9.9375,-8.5625,348.25,153.375,113.0625,3.31,12.0,1.44,0,2.017000198364258,9.309311309114117,0.3162197179177795,9.542275053675617,0.2893042861763372,9.103526789107615,37.84600788062065
1776724007.786,-2.1476,0.2394,8.9016,0.0554,-0.2521,-0.0568,-6.45,-4.05,86.85,-2.2314,0.0,9.0644,0.0634,-0.287,-0.0528,-32.55,-17.1,56.55,2.72,-0.19,8.4,-25.4375,12.0625,-6.875,348.25,153.375,113.0625,3.38,11.88,1.56,0,2.0280001163482666,9.160129948859897,0.2642911462762232,9.335014371708272,0.29862417852545026,8.83144948465426,28.9799230071441
1776724007.796,-2.2841,0.0024,8.7867,0.1247,-0.2635,-0.0906,-6.9,-3.75,88.65,-2.4852,-0.1125,8.9088,0.1943,-0.3014,-0.0967,-30.75,-15.9,56.55,1.74,-0.14,8.82,-13.6875,14.8125,-5.3125,348.25,153.375,113.0625,3.44,11.75,1.56,0,2.0380001068115234,9.078723228516221,0.30527151848805023,9.249626626518499,0.3714099352467567,8.991084472965428,20.856185383477968
1776724007.806,-2.3367,-0.091,8.8753,0.2963,-0.2638,-0.1284,-6.6,-5.4,88.8,-2.4134,-0.2466,8.9136,0.3635,-0.2963,-0.125,-31.05,-16.8,55.05,1.93,-0.33,8.64,-5.375,16.1875,-3.8125,348.25,153.375,113.0625,3.44,11.75,1.56,0,2.0480000972747803,9.178202328342952,0.41697804498558433,9.237833949579306,0.4853359042972197,8.859085731609104,17.477440816664206
1776724007.812,-2.3367,-0.091,8.8753,0.4511,-0.255,-0.1516,-6.3,-4.65,86.25,-2.466,0.0335,9.0573,0.5404,-0.2694,-0.1535,-31.05,-16.8,55.05,2.13,-0.19,8.56,-8.5625,17.1875,-5.1875,347.25,142.25,101.25,3.5,11.56,1.62,0,2.05400013923645,9.178202328342952,0.5399062603823,9.387063520611758,0.6230335223725927,8.823072027360991,19.890618862921283
1776724007.819,-2.3774,0.2993,9.0788,0.6712,-0.2214,-0.1961,-6.3,-4.65,86.25,-2.466,0.0335,9.0573,0.5404,-0.2694,-0.1535,-31.5,-16.8,57.75,2.13,-0.19,8.56,-8.5625,17.1875,-5.1875,347.25,142.25,101.25,3.5,11.56,1.62,0,2.061000108718872,9.389686932480762,0.73347297837071,9.387063520611758,0.6230335223725927,8.823072027360991,19.890618862921283
1776724007.825,-2.1261,0.4525,9.5672,0.6712,-0.2214,-0.1961,-6.3,-4.65,86.25,-2.2865,0.2346,9.505,0.7698,-0.222,-0.2025,-32.25,-17.1,57.3,2.11,-0.14,8.74,-18.125,17.375,-7.625,347.25,142.25,101.25,3.69,11.25,2.06,0,2.067000150680542,9.811033243242019,0.73347297837071,9.778964383307674,0.8263669221356819,8.9921799359221,26.24017673339873
1776724007.836,-2.0638,0.4884,9.7803,0.8545,-0.1559,-0.2406,-5.55,-3.9,88.05,-2.2553,0.4525,9.7803,0.8631,-0.1615,-0.2124,-32.25,-17.1,57.3,2.07,-0.58,9.09,-28.75,16.5625,-9.3125,347.25,142.25,101.25,3.88,11.12,2.44,0,2.078000068664551,10.007600765917873,0.9013120547291044,10.04715892329767,0.9034033539897889,9.340738728815833,34.46159547235154
1776724007.846,-2.1452,0.6321,9.5529,0.6824,-0.0698,-0.1663,-7.35,-6.15,87.75,-2.2194,0.6009,9.6774,0.7738,-0.11,-0.1764,-31.2,-15.45,57.45,1.86,-0.56,9.54,-41.6875,14.375,-12.125,347.25,142.25,101.25,4.06,11.0,2.94,0,2.0880000591278076,9.811184019271067,0.7058310633572314,9.946802899927194,0.8012386660664849,9.735748558790947,45.73296301629712
1776724007.856,-2.1715,0.2993,9.3757,0.4519,-0.0759,-0.0925,-7.95,-4.8,86.55,-2.2745,0.5076,9.4475,0.5572,-0.1047,-0.1095,-31.2,-15.45,57.45,1.87,-0.51,9.53,-51.1875,10.8125,-13.8125,347.25,142.25,101.25,4.06,11.0,2.94,0,2.0980000495910645,9.628537959108849,0.46747264091067403,9.730686731161374,0.5774289393509819,9.725116965877582,54.10966151021461
1776724007.862,-2.217,-0.0838,8.9376,0.4519,-0.0759,-0.0925,-7.35,-4.65,86.7,-2.3822,0.0718,9.1937,0.3539,-0.1252,-0.0496,-31.2,-15.45,57.45,1.93,-0.36,9.18,-49.5,7.5625,-12.5,347.875,130.5625,95.5,4.25,10.94,3.38,0,2.1040000915527344,9.208843857944384,0.46747264091067403,9.497586628717844,0.3786560576565493,9.387592875705678,51.61096207444694
1776724007.869,-2.217,-0.0838,8.9376,0.3176,-0.1095,-0.0346,-5.85,-3.9,85.95,-2.3918,-0.2729,9.0142,0.2944,-0.1673,-0.0104,-33.6,-15.45,54.9,1.93,-0.36,9.18,-49.5,7.5625,-12.5,347.875,130.5625,95.5,4.38,10.88,3.75,0,2.1110000610351562,9.208843857944384,0.3377235111744517,9.33011164402656,0.3387754566080607,9.387592875705678,51.61096207444694
1776724007.875,-2.2553,-0.1437,8.8202,0.3288,-0.166,-0.0373,-5.85,-3.9,85.95,-2.3918,-0.2729,9.0142,0.2944,-0.1673,-0.0104,-31.2,-15.0,58.2,1.97,-0.05,8.93,-38.5,6.125,-9.1875,347.875,130.5625,95.5,4.44,10.81,3.94,0,2.117000102996826,9.105106030134959,0.37021173671292484,9.33011164402656,0.3387754566080607,9.144851010268018,40.05216325306287
1776724007.886,-2.2434,-0.1628,8.9567,0.4298,-0.2046,-0.0781,-5.85,-3.9,85.95,-2.3846,-0.3807,9.1411,0.3611,-0.219,-0.0306,-31.2,-15.0,55.35,2.02,0.12,8.43,-25.8125,7.0625,-4.8125,347.875,130.5625,95.5,4.44,10.75,4.12,0,2.128000020980835,9.234815769142338,0.48237828516632053,9.45467920449975,0.4234271720142674,8.669469418597657,27.190517073972682
1776724007.896,-2.1476,-0.3232,9.3829,0.5289,-0.211,-0.1047,-6.3,-2.7,86.7,-2.2889,-0.5243,9.4284,0.4666,-0.2411,-0.0693,-32.25,-15.9,56.25,1.97,0.05,8.48,-19.5625,9.25,-2.1875,347.875,130.5625,95.5,4.5,10.62,4.38,0,2.138000011444092,9.630963420655277,0.5789803969047657,9.716412931735661,0.529761512380807,8.70596347338995,21.749461200222868
1776724007.906,-2.4253,0.4645,9.3254,0.5796,-0.2086,-0.1761,-9.15,-3.45,87.45,-2.3511,0.2466,9.4188,0.5404,-0.2395,-0.1055,-31.95,-16.2,54.9,1.98,0.15,8.8,-22.0,12.25,-2.6875,347.875,130.5625,95.5,4.5,10.62,4.38,0,2.1480000019073486,9.646809083836997,0.6406725606735472,9.710935908036877,0.6004353920281515,9.021247142163881,25.323608673528344
1776724007.912,-2.1356,0.4597,9.3111,0.5796,-0.2086,-0.1761,-9.15,-3.45,87.45,-2.3511,0.2466,9.4188,0.5761,-0.243,-0.2033,-31.95,-16.2,54.9,1.98,0.08,9.16,-28.375,14.1875,-5.0,345.5625,123.0,91.1875,4.62,10.5,4.62,0,2.1540000438690186,9.563926738531617,0.6406725606735472,9.710935908036877,0.657473269418613,9.371894152197836,32.11581824039363
1776724007.919,-1.9848,0.4621,9.4858,0.5822,-0.2084,-0.255,-8.25,-4.5,86.1,-2.2027,0.2322,9.5433,0.5665,-0.2364,-0.2505,-33.75,-15.9,54.75,1.98,0.08,9.16,-28.375,14.1875,-5.0,345.5625,123.0,91.1875,4.69,10.38,4.94,0,2.1610000133514404,9.702235262556767,0.6688889294942771,9.796957641023054,0.6629912970771185,9.371894152197836,32.11581824039363
1776724007.926,-1.9848,0.4621,9.4858,0.5657,-0.1961,-0.2718,-7.2,-4.5,85.05,-2.1524,0.5267,9.7252,0.5441,-0.2193,-0.2451,-33.75,-15.9,54.75,1.97,-0.8,9.06,-33.25,14.125,-7.6875,345.5625,123.0,91.1875,4.88,10.25,5.25,0,2.1680002212524414,9.702235262556767,0.6575309422377018,9.97445505729511,0.6357761477123848,9.306153877945496,36.93475032066685
1776724007.936,-1.9345,0.5148,9.8162,0.534,-0.1727,-0.2481,-7.2,-4.5,85.05,-2.071,0.5866,10.0126,0.4924,-0.1801,-0.2113,-33.0,-15.15,54.3,1.78,-0.45,9.23,-35.25,14.125,-12.6875,345.5625,123.0,91.1875,5.06,10.12,5.56,0,2.1780002117156982,10.018237955349234,0.6136243965163054,10.241352416551244,0.5652799837248794,9.410834181941578,40.038116604680596
1776724007.946,-1.7789,0.5459,10.0556,0.4538,-0.1154,-0.2076,-7.95,-5.25,85.05,-1.8866,0.6895,9.9551,0.3914,-0.133,-0.1801,-33.0,-15.15,54.3,1.77,-0.5,9.38,-35.125,14.0,-15.75,345.5625,123.0,91.1875,5.25,10.0,5.88,0,2.188000202178955,10.22631817322344,0.5122005076139616,10.155721826635466,0.45090904847873703,9.558624378015908,40.96130033336344
1776724007.956,-1.6855,0.8116,9.7995,0.3603,-0.0818,-0.1831,-7.35,-4.2,84.6,-1.731,0.6273,9.7037,0.3405,-0.1199,-0.1569,-34.05,-15.9,54.3,1.61,-0.52,9.94,-33.6875,12.9375,-15.75,345.5625,123.0,91.1875,5.25,10.0,5.88,0,2.198000192642212,9.97646255242809,0.4123505062443843,9.876824387423317,0.39361639955672584,10.082960874663751,39.373710296338594
1776724007.963,-1.6185,0.6464,9.4451,0.3789,-0.0919,-0.1553,-7.35,-4.2,84.6,-1.731,0.6273,9.7037,0.3405,-0.1199,-0.1569,-34.05,-15.9,54.3,1.47,-0.7,9.72,-30.3125,10.125,-13.6875,345.5,114.0625,88.875,5.44,9.94,6.12,0,2.205000162124634,9.604545237542483,0.4196771497234511,9.876824387423317,0.39361639955672584,9.855419828703392,34.76652035363907
1776724007.969,-1.4988,0.6752,9.3972,0.3789,-0.0919,-0.1553,-8.85,-4.65,85.2,-1.7142,0.6129,9.6223,0.4053,-0.1378,-0.1263,-32.25,-14.85,55.05,1.47,-0.7,9.72,-30.3125,10.125,-13.6875,345.5,114.0625,88.875,5.44,9.94,6.12,0,2.2110002040863037,9.539898548726816,0.4196771497234511,9.792996749718647,0.4463279287698676,9.855419828703392,34.76652035363907
1776724007.976,-1.4988,0.6752,9.3972,0.4652,-0.1119,-0.1218,-7.05,-4.95,84.6,-1.731,0.7374,9.56,0.4762,-0.15,-0.093,-33.15,-15.0,54.9,1.4,-0.66,9.36,-24.6875,7.6875,-11.6875,345.5,114.0625,88.875,5.69,9.81,6.56,0,2.2180001735687256,9.539898548726816,0.4937285590281364,9.743393646979476,0.5078537584777728,9.48710704061043,28.375481824103005
1776724007.986,-1.5682,0.8452,9.4236,0.5582,-0.1442,-0.0941,-8.25,-4.5,84.75,-3.1915,-0.8667,12.6318,0.8585,-0.3088,-0.0786,-33.15,-15.75,55.65,1.34,-0.58,9.12,-22.4375,7.0,-10.1875,345.5,114.0625,88.875,5.75,9.75,6.75,0,2.2280001640319824,9.590508393197933,0.5841538239196933,13.057534697637223,0.9157279344870943,9.236146382555876,25.616919457655325
1776724007.996,-3.9121,-0.2059,12.2751,1.1205,-0.8767,-0.2132,-8.25,-4.5,84.75,-3.3303,0.565,14.0635,0.7778,-1.2921,-0.2662,-34.5,-14.85,56.55,1.42,-0.68,9.08,-26.0,7.6875,-8.25,345.5,114.0625,88.875,5.88,9.62,7.06,0,2.2380001544952393,12.885068926086504,1.4386025788938377,14.4634765993519,1.5314560685830985,9.21548696488688,28.340080385383526
1776724008.006,-2.3703,-0.1532,11.8321,0.3949,-1.4933,-0.2558,-9.15,-3.15,84.9,-2.3535,0.3041,11.0516,0.3349,-1.4757,-0.141,-34.35,-14.55,54.9,2.83,0.0,9.16,-32.125,9.9375,-6.5625,345.5,114.0625,88.875,5.88,9.62,7.06,0,2.248000144958496,12.0681557306823,1.5656706358618342,11.303508376605912,1.5197794247850573,9.587205015018716,34.261289197868784
1776724008.013,-2.3703,-0.1532,11.8321,0.3888,-1.2907,-0.0101,-9.15,-3.15,84.9,-2.5307,0.5339,10.9774,0.4791,-1.2638,0.0727,-34.35,-14.55,54.9,3.42,-1.36,10.12,-56.5,33.4375,-9.3125,344.6875,108.5,86.875,6.0,9.31,7.62,0,2.255000114440918,12.0681557306823,1.3480259418868763,11.277978651336417,1.3535185776338647,10.768491073497716,66.31017314485011
1776724008.019,-1.8723,0.6273,10.6231,0.3888,-1.2907,-0.0101,-10.05,-3.3,84.75,-2.5307,0.5339,10.9774,0.4791,-1.2638,0.0727,-34.35,-14.55,54.9,3.42,-1.36,10.12,-56.5,33.4375,-9.3125,344.6875,108.5,86.875,6.25,8.56,7.94,0,2.261000156402588,10.805057435756648,1.3480259418868763,11.277978651336417,1.3535185776338647,10.768491073497716,66.31017314485011
1776724008.026,-1.3551,2.2386,10.2615,0.7586,-1.1882,0.0903,-10.65,-3.9,84.15,-1.6281,1.3144,9.9671,0.8588,-1.2092,0.1015,-35.4,-15.75,55.35,2.1,0.6,12.1,-38.3125,79.5,-15.4375,344.6875,108.5,86.875,6.38,7.81,8.12,0,2.2680001258850098,10.58990123749981,1.4126030192520473,10.184372311536928,1.4866083310677363,12.29552764219576,89.59025651542694
1776724008.036,-1.1061,2.4421,10.2783,0.914,-1.0416,-0.0261,-11.4,-3.45,83.85,-1.3623,2.047,9.4643,0.8103,-0.959,-0.0655,-35.4,-15.75,55.35,1.72,-0.58,10.68,-23.3125,82.125,-5.6875,344.6875,108.5,86.875,6.44,7.12,8.5,0,2.2780001163482666,10.622182473955151,1.3860042460252422,9.778499106713667,1.2572021873986698,10.833152819008877,85.55896176029721
1776724008.046,-1.0127,1.1708,10.4267,0.5891,-0.7027,-0.1876,-11.4,-3.45,83.85,-1.1851,1.3048,9.6199,0.4754,-0.6478,-0.1812,-36.0,-14.85,55.05,1.13,-2.06,10.11,-38.5625,73.375,3.3125,344.6875,108.5,86.875,6.5,6.44,9.0,0,2.2880001068115234,10.54098699458452,0.9359593260393316,9.780053223781556,0.8237010622792713,10.379431583665841,82.95739682210382
1776724008.056,-1.2641,1.2139,11.1761,0.3906,-0.4258,-0.1908,-11.4,-3.45,83.85,-1.4222,1.0726,10.398,0.3333,-0.3619,-0.1561,-35.55,-15.6,55.5,0.77,-2.13,10.66,-52.75,65.875,0.375,344.6875,108.5,86.875,6.5,6.44,9.0,0,2.2980000972747803,11.31267931261202,0.6085052505936165,10.549479968225922,0.5161663588417982,10.89795393640476,84.39323876946541
1776724008.063,-1.2641,1.2139,11.1761,0.2782,-0.1378,-0.1482,-11.4,-3.45,83.85,-1.4461,1.415,10.3741,0.2638,-0.0885,-0.1319,-35.55,-15.6,55.5,0.88,-0.98,10.99,-40.4375,48.0,-9.0,344.875,102.75,85.75,6.62,6.0,9.38,0,2.305000066757202,11.31267931261202,0.3440164530949065,10.569549707532483,0.3079290502697009,11.068644903510096,63.40497934902274
1776724008.069,-1.233,1.6424,10.6662,0.3336,0.06,-0.1535,-10.35,-2.7,84.15,-1.4461,1.415,10.3741,0.2638,-0.0885,-0.1319,-36.6,-13.8,53.4,0.88,-0.98,10.99,-40.4375,48.0,-9.0,344.875,102.75,85.75,6.62,6.0,9.38,0,2.311000108718872,10.86211716011202,0.3720903250556241,10.569549707532483,0.3079290502697009,11.068644903510096,63.40497934902274
1776724008.076,-1.1756,2.0327,10.6374,0.3336,0.06,-0.1535,-10.65,-2.4,83.1,-1.3408,1.798,10.3573,0.3549,0.0778,-0.1436,-36.45,-14.85,55.5,1.05,-1.09,11.55,-25.75,30.25,-11.625,344.875,102.75,85.75,6.94,5.62,9.75,0,2.318000078201294,10.893492709411431,0.3720903250556241,10.597368160538728,0.3906760934585069,11.648738129085055,41.39161297895988
1776724008.086,-1.0415,1.8387,10.137,0.4253,0.2081,-0.1721,-11.55,-2.55,84.0,-1.2546,1.8316,10.1538,0.4269,0.222,-0.1599,-36.0,-14.4,54.3,1.01,-1.59,11.06,-18.625,13.0625,-9.5625,344.875,102.75,85.75,7.0,5.69,9.94,0,2.328000068664551,10.354917138248863,0.5037897478115251,10.39367279454188,0.5070459742469118,11.219260225166364,24.677133899624568
1776724008.096,-1.1827,1.6209,9.742,0.4578,0.3317,-0.1593,-10.65,-2.4,84.15,-1.3264,1.7837,9.651,0.4477,0.3392,-0.1255,-36.45,-13.65,54.75,0.88,-2.05,10.66,-19.875,-0.1875,-8.9375,344.875,102.75,85.75,7.12,5.75,10.19,0,2.3380000591278076,9.946489838128826,0.5873518706874099,9.903672230541558,0.5755364280390947,10.890936598842176,21.79288157862562
1776724008.106,-0.9936,1.6065,9.9958,0.2068,0.5772,-0.0528,-10.65,-2.4,84.15,-1.221,1.7071,9.5888,0.3379,0.4514,-0.0663,-36.45,-13.65,54.75,0.85,-1.68,10.14,-25.0625,-9.4375,-10.1875,344.875,102.75,85.75,7.12,5.75,10.19,0,2.3480000495910645,10.172713544084488,0.6153973675601806,9.815809536151363,0.567744713757865,10.313316634332526,28.652756739099292
1776724008.113,-0.8571,1.47,10.2999,0.2068,0.5772,-0.0528,-10.8,-0.75,83.7,-1.0008,1.3671,9.742,0.1985,0.5766,-0.0333,-36.45,-13.65,54.75,0.9,-1.47,9.79,-27.625,-17.4375,-9.3125,343.5,95.6875,84.875,7.19,5.94,10.44,0,2.3550000190734863,10.439514376636492,0.6153973675601806,9.888231745362768,0.6107198211946293,9.940573424103862,33.969540584176286
1776724008.119,-0.8571,1.47,10.2999,-0.0032,0.6757,-0.0328,-10.8,-0.75,83.7,-1.6209,1.5826,10.6949,-0.1793,0.6576,-0.0389,-36.9,-13.5,54.15,0.9,-1.47,9.79,-27.625,-17.4375,-9.3125,343.5,95.6875,84.875,7.25,6.19,10.69,0,2.3610000610351562,10.439514376636492,0.6765031928971215,10.93219216717306,0.6827147720681016,9.940573424103862,33.969540584176286
1776724008.126,-1.652,1.7334,10.635,-0.5172,0.6779,-0.0576,-10.95,-1.2,82.05,-1.6209,1.5826,10.6949,-0.1793,0.6576,-0.0389,-36.9,-13.5,54.15,0.61,-1.35,9.87,-24.1875,-24.375,-6.0,343.5,95.6875,84.875,7.25,6.5,10.81,0,2.368000030517578,10.901238670903412,0.8546121986023835,10.93219216717306,0.6827147720681016,9.980556096731283,34.859371498206905
1776724008.136,-2.5809,1.0558,10.3621,-0.7237,0.5809,-0.0474,-11.25,-1.05,83.25,-3.0622,1.1995,10.7093,-0.6547,0.6305,-0.0679,-34.8,-12.9,54.75,0.91,-1.77,10.43,-14.125,-31.9375,-3.125,343.5,95.6875,84.875,7.25,6.88,10.81,0,2.378000020980835,10.730744375857622,0.9292110954998332,11.202900320006423,0.9114673609076738,10.618187227582682,35.061163076116
1776724008.146,-2.3439,0.4453,10.4148,-0.6893,0.4426,-0.0165,-10.8,-3.0,83.7,-2.32,-0.0072,10.4052,-0.7501,0.5193,-0.0421,-36.6,-15.0,56.4,1.65,-1.72,10.24,2.0,-37.5,-2.4375,343.5,95.6875,84.875,7.25,7.25,10.5,0,2.388000011444092,10.684578528889194,0.8193299091330671,10.660705365030966,0.9132879666348397,10.513729119584545,37.63231864036549
1776724008.157,-2.0159,-0.0192,9.7205,-0.2646,0.3312,0.0011,-9.75,-1.5,85.05,-2.399,0.17,10.0245,-0.1756,0.2902,0.0043,-36.45,-12.9,54.3,2.14,-0.56,9.9,29.875,-37.5,-3.4375,343.5,95.6875,84.875,7.25,7.25,10.5,0,2.3990001678466797,9.92735320717461,0.4239195796374591,10.30896218103452,0.3392195306877244,10.14412145037706,48.06851392803817
1776724008.163,-2.3774,0.6632,9.8019,-0.2646,0.3312,0.0011,-9.75,-1.5,85.05,-2.399,0.17,10.0245,-0.1756,0.2902,0.0043,-36.45,-12.9,54.3,1.92,-0.07,9.48,42.125,-31.75,-2.8125,334.6875,87.375,83.1875,7.19,7.56,10.12,0,2.4050002098083496,10.107873594876422,0.4239195796374591,10.30896218103452,0.3392195306877244,9.672729707791902,52.82507246800519
1776724008.169,-2.3774,0.6632,9.8019,0.0274,0.2843,-0.0357,-9.75,-1.5,85.05,-2.6432,0.5602,9.8426,0.0474,0.2518,-0.0453,-35.55,-13.2,53.55,1.92,-0.07,9.48,42.125,-31.75,-2.8125,334.6875,87.375,83.1875,7.19,7.56,10.12,0,2.4110000133514404,10.107873594876422,0.28783978182315245,10.206718622554458,0.26019625285541687,9.672729707791902,52.82507246800519
1776724008.176,-2.4229,1.0798,9.7731,0.0823,0.2846,-0.1077,-10.95,0.15,83.85,-2.6169,0.9122,9.9407,0.045,0.2673,-0.109,-35.4,-13.5,54.15,1.86,-0.22,9.32,36.0625,-23.6875,-1.0,334.6875,87.375,83.1875,7.12,7.94,9.69,0,2.4180002212524414,10.126692256605805,0.3152296623098785,10.319776690413411,0.2921562766739746,9.506334730062896,43.15786790957125
1776724008.186,-2.3655,1.1684,10.149,-0.0482,0.3728,-0.1524,-9.75,0.3,82.95,-2.4756,0.9457,9.9623,-0.0837,0.3765,-0.141,-36.6,-12.6,53.1,2.17,-0.86,9.43,12.4375,-17.5,-0.4375,334.6875,87.375,83.1875,7.19,8.06,9.69,0,2.4280002117156982,10.486322034440864,0.40562154775110265,10.308751871104475,0.4106567179530855,9.714597263911664,21.47400317826185
1776724008.197,-2.1739,1.1181,10.1945,-0.1282,0.4836,-0.1601,-10.95,1.2,83.85,-2.2673,1.154,9.979,-0.1383,0.4716,-0.1543,-36.6,-12.6,53.1,2.18,-1.35,9.92,-3.0625,-15.0625,-3.0,334.6875,87.375,83.1875,7.25,8.25,9.69,0,2.439000129699707,10.483502233032624,0.5252963068592811,10.298194321821665,0.5151135214688118,10.246038258761287,15.660709195307854
1776724008.207,-2.0063,1.2689,9.9719,-0.0743,0.5585,-0.1537,-9.75,0.0,84.0,-2.0973,1.2713,9.8258,-0.0565,0.5441,-0.1367,-36.15,-13.05,53.1,2.03,-1.16,10.24,-3.6875,-16.25,-6.8125,334.6875,87.375,83.1875,7.25,8.25,9.69,0,2.449000120162964,10.2505676189175,0.5840089297262501,10.127251187760674,0.5638474527742411,10.503527978731718,18.001953019047683
1776724008.213,-2.0399,1.4269,9.7612,0.0232,0.6201,-0.1061,-10.65,0.9,84.6,-2.0973,1.2713,9.8258,-0.0565,0.5441,-0.1367,-36.15,-13.05,53.1,1.87,-1.27,10.07,3.0625,-21.9375,-8.9375,330.5625,80.75,82.25,7.31,8.44,9.69,0,2.455000162124634,10.0736418965536,0.6295390853632521,10.127251187760674,0.5638474527742411,10.320595913027503,23.885387138373957
1776724008.219,-2.0518,2.2027,9.5074,0.0232,0.6201,-0.1061,-10.65,0.9,84.6,-2.2697,1.731,9.5624,0.032,0.599,-0.0813,-36.6,-12.3,53.85,1.87,-1.27,10.07,3.0625,-21.9375,-8.9375,330.5625,80.75,82.25,7.38,8.75,9.62,0,2.4610002040863037,9.972583681774749,0.6295390853632521,9.979348317901325,0.6053384920852134,10.320595913027503,23.885387138373957
1776724008.226,-2.0518,2.2027,9.5074,0.0658,0.6526,-0.0517,-10.65,0.9,84.6,-2.3822,2.4876,9.7205,0.0386,0.636,-0.0389,-36.6,-12.3,53.85,1.76,-1.24,9.66,5.9375,-28.0,-9.3125,330.5625,80.75,82.25,7.44,9.06,9.62,0,2.4680001735687256,9.972583681774749,0.6579432270340656,10.312669433759622,0.6383566166336807,9.897009649384,30.099444554675756
1776724008.237,-2.1524,2.5666,9.7995,-0.0781,0.7005,-0.0261,-11.25,1.8,83.25,-2.2386,2.4876,9.8689,-0.134,0.6726,-0.0123,-36.15,-12.3,54.6,1.83,-1.74,9.37,1.5,-32.1875,-8.1875,330.5625,80.75,82.25,7.44,9.44,9.62,0,2.4790000915527344,10.356179873389609,0.7053233797344307,10.420876687208231,0.6859286041564384,9.704298016858303,33.24635788323286
1776724008.246,-2.083,2.4588,9.9407,-0.2872,0.7432,0.0107,-11.4,2.7,85.2,-2.3655,2.375,10.0149,-0.3344,0.7304,0.0187,-37.5,-9.3,54.0,1.96,-2.42,9.49,-3.5,-35.5,-5.0,330.5625,80.75,82.25,7.44,9.75,9.62,0,2.4880001544952393,10.449981001418136,0.796834091891154,10.560986566604468,0.8035279771109404,9.987897676688524,36.020827308655754
1776724008.257,-2.2577,2.2529,10.0652,-0.5143,0.8247,0.0408,-10.65,3.15,84.6,-2.411,1.9992,10.1299,-0.5692,0.8175,0.0474,-36.45,-11.25,54.0,1.82,-2.35,9.8,-1.75,-37.6875,-2.4375,330.5625,80.75,82.25,7.44,9.75,9.62,0,2.499000072479248,10.558457214006221,0.972779121897669,10.60304652682426,0.9972670906031142,10.240844691723433,37.806766094179494
1776724008.263,-2.0207,1.9609,10.3214,-0.7171,0.8948,0.0562,-10.95,4.2,84.6,-2.3343,1.8028,10.1083,-0.7554,0.8703,0.0584,-35.85,-10.35,54.15,1.95,-2.18,10.01,8.875,-40.5,-0.5625,331.25,80.5,82.0,7.38,10.19,9.56,0,2.505000114440918,10.698581927526657,1.1480670233048242,10.529804044710422,1.1538898604286285,10.428566536202375,41.464828846264396
1776724008.27,-2.4062,2.0279,10.0126,-0.7171,0.8948,0.0562,-11.4,4.65,84.9,-2.3343,1.8028,10.1083,-0.7554,0.8703,0.0584,-35.85,-10.35,54.15,1.95,-2.18,10.01,8.875,-40.5,-0.5625,331.25,80.5,82.0,7.31,10.56,9.38,0,2.51200008392334,10.495443564233005,1.1480670233048242,10.529804044710422,1.1538898604286285,10.428566536202375,41.464828846264396
1776724008.276,-2.4062,2.0279,10.0126,-0.8676,0.9145,0.0434,-11.4,4.65,84.9,-2.636,1.6257,10.1059,-0.9014,0.8868,0.0349,-35.85,-10.35,54.15,1.9,-1.97,10.13,21.9375,-44.375,1.3125,331.25,80.5,82.0,7.19,11.06,9.06,0,2.5180001258850098,10.495443564233005,1.2613181874531105,10.56979712671913,1.2649720194533949,10.493226386579106,49.51885688805831
1776724008.286,-2.3822,1.2594,9.4236,-1.0397,0.9502,0.02,-11.4,4.65,84.9,-2.6935,1.2282,10.1418,-1.1117,0.9393,0.0016,-36.15,-9.45,56.1,1.85,-1.95,9.86,35.6875,-49.375,2.875,331.25,80.5,82.0,7.12,11.56,8.62,0,2.5280001163482666,9.801285740146545,1.408636266038895,10.565014185035437,1.455391335689477,10.219814088328611,60.98978526155015
1776724008.296,-2.5738,0.6536,9.5816,-1.0632,1.0011,0.0045,-12.15,4.65,84.9,-2.6863,0.8763,9.5672,-1.0576,0.98,-0.008,-36.15,-9.45,56.1,2.23,-1.87,10.1,46.3125,-51.875,3.0625,331.25,80.5,82.0,7.0,12.06,8.12,0,2.5380001068115234,9.942771140884215,1.4603478010391908,9.97574183807901,1.4418674557669995,10.510937160881516,69.6077739013395
1776724008.307,-2.6863,0.1413,9.4978,-0.9726,1.0619,-0.0016,-9.6,4.2,85.95,-2.7031,0.2634,9.3829,-0.951,1.0413,-0.0131,-35.1,-11.4,55.65,2.19,-1.27,9.44,55.5625,-53.1875,1.8125,331.25,80.5,82.0,7.0,12.06,8.12,0,2.5490000247955322,9.87139190894577,1.439994767351604,9.768057206015943,1.4102759659017097,9.77356639103659,76.93755077171355
1776724008.313,-2.6863,0.1413,9.4978,-0.7296,1.1173,-0.0109,-10.65,3.45,87.0,-2.8491,0.0263,9.323,-0.6931,1.0965,-0.025,-34.65,-10.35,54.9,2.27,-0.9,9.4,63.3125,-56.6875,0.4375,330.0625,83.375,78.6875,6.88,12.62,7.5,0,2.555000066757202,9.87139190894577,1.3344640347345447,9.748661010620895,1.2974300983097318,9.711997734760857,84.98315550007543
1776724008.32,-2.7677,0.4381,9.2488,-0.4604,1.1106,-0.0733,-10.8,4.5,87.6,-3.0789,0.4022,9.6103,-0.449,1.0853,-0.0935,-35.55,-10.05,55.5,2.27,-0.9,9.4,63.3125,-56.6875,0.4375,330.0625,83.375,78.6875,6.81,13.19,6.94,0,2.562000036239624,9.663974148351183,1.2044805560904668,10.099468111737371,1.1782272021982856,9.711997734760857,84.98315550007543
1776724008.326,-2.7869,1.0223,9.3518,-0.4604,1.1106,-0.0733,-10.8,4.5,87.6,-3.0789,0.4022,9.6103,-0.449,1.0853,-0.0935,-35.55,-10.05,55.5,2.45,-0.27,9.22,59.75,-59.75,0.0,330.0625,83.375,78.6875,6.69,13.75,6.5,0,2.568000078201294,9.811629433483514,1.2044805560904668,10.099468111737371,1.1782272021982856,9.543783316903209,84.49926035179243
1776724008.337,-2.5929,1.3024,9.7013,-0.4077,1.0528,-0.1769,-10.35,4.65,87.75,-2.7869,0.9697,9.8258,-0.4205,1.0136,-0.1831,-35.55,-10.05,54.75,2.52,-0.77,9.02,47.875,-63.0625,-0.625,330.0625,83.375,78.6875,6.69,14.38,6.19,0,2.5789999961853027,10.125936888011895,1.1427601410619816,10.25931164065114,1.1125335141019348,9.397004841969594,79.17881759820615
1776724008.347,-2.3655,1.4246,9.9623,-0.4639,0.9806,-0.2158,-10.35,4.65,87.75,-2.7461,1.2689,10.0724,-0.4778,0.9481,-0.2105,-34.5,-9.75,56.25,2.54,-1.27,8.99,31.75,-64.1875,-3.0625,330.0625,83.375,78.6875,6.69,15.0,6.0,0,2.5889999866485596,10.337915491045573,1.1060511787435516,10.516863324204607,1.082357011341452,9.427862960395638,71.67619243863335
1776724008.357,-2.3607,1.8771,9.9671,-0.5409,0.9305,-0.1799,-9.75,6.75,88.65,-2.296,1.7573,10.2615,-0.5734,0.8924,-0.174,-35.85,-9.9,56.7,2.3,-1.43,9.13,23.9375,-61.5625,-8.4375,330.0625,83.375,78.6875,6.69,15.0,6.0,0,2.5990002155303955,10.413428412871527,1.091222740782101,10.661055367082566,1.0749145640468363,9.523224243920755,66.58931384801919
1776724008.363,-2.3607,1.8771,9.9671,-0.732,0.8607,-0.118,-9.0,5.55,88.95,-2.66,1.9944,10.3334,-0.761,0.8239,-0.1183,-35.85,-9.9,56.7,1.99,-1.51,9.56,25.75,-57.375,-12.125,330.25,84.0625,75.25,6.75,15.56,5.69,0,2.6050000190734863,10.413428412871527,1.1360248632842505,10.855062732200121,1.127797455219686,9.88098173260127,64.04661388395174
1776724008.37,-2.7031,1.8723,10.1203,-0.862,0.7965,-0.0855,-9.15,7.95,91.65,-3.158,1.7406,10.4267,-0.8663,0.7666,-0.0914,-34.65,-8.4,56.7,1.99,-1.51,9.56,25.75,-57.375,-12.125,330.25,84.0625,75.25,6.75,16.12,5.38,0,2.611999988555908,10.641086833120008,1.176761020768448,11.03262096013454,1.160390111126426,9.88098173260127,64.04661388395174
1776724008.376,-3.3112,1.743,10.1131,-0.862,0.7965,-0.0855,-9.15,7.95,91.65,-3.158,1.7406,10.4267,-0.8663,0.7666,-0.0914,-34.65,-8.4,56.7,2.08,-1.79,9.52,30.3125,-54.125,-11.0625,330.25,84.0625,75.25,6.75,16.56,5.0,0,2.618000030517578,10.783176065056157,1.176761020768448,11.03262096013454,1.160390111126426,9.907618280898795,63.013825367930174
1776724008.387,-3.3399,1.0511,9.7372,-0.8188,0.7695,-0.0663,-7.2,6.75,90.75,-3.3184,0.9266,10.1538,-0.8031,0.7418,-0.0714,-34.65,-8.4,56.7,2.41,-1.91,9.68,40.125,-50.25,-8.125,330.25,84.0625,75.25,6.75,17.06,4.5,0,2.629000186920166,10.34759909640879,1.1255929015412276,10.722407405056012,1.095597923510263,10.156702220701362,64.81584489922199
1776724008.397,-3.0335,0.9361,9.7276,-0.4341,0.5833,0.0394,-7.2,6.75,90.75,-3.0574,0.8092,9.9503,-0.4381,0.5473,0.0472,-34.05,-9.0,59.25,3.1,-1.26,9.55,49.125,-46.1875,-5.5,330.25,84.0625,75.25,6.69,17.5,4.06,0,2.639000177383423,10.23252692251528,0.7281717242519102,10.440831838986778,0.7026355669904563,10.119293453596452,67.65205674072297
1776724008.407,-2.9497,0.735,9.5553,-0.4794,0.4962,0.0799,-7.5,6.0,92.55,-3.1029,0.5315,9.754,-0.4924,0.4634,0.085,-33.9,-8.7,58.95,2.94,-0.81,9.26,47.9375,-44.0625,-4.125,330.25,84.0625,75.25,6.69,17.5,4.06,0,2.6490001678466797,10.027198670615837,0.694566634672297,10.249438846102747,0.6814853776861246,9.749220481659034,65.24203734939613
1776724008.413,-2.806,0.7063,9.5337,-0.4794,0.4962,0.0799,-7.5,6.0,92.55,-3.1029,0.5315,9.754,-0.4924,0.4634,0.085,-33.15,-8.4,59.4,2.71,-0.79,9.17,33.8125,-39.75,-1.3125,323.5,86.5625,70.5625,6.62,17.88,3.75,0,2.6550002098083496,9.963128593970872,0.694566634672297,10.249438846102747,0.6814853776861246,9.59463912817986,52.20220601181525
1776724008.42,-2.806,0.7063,9.5337,-0.4916,0.4261,0.0887,-7.05,6.15,92.4,-2.9401,0.6632,9.7971,-0.5009,0.3957,0.0885,-33.75,-9.75,61.05,2.71,-0.79,9.17,33.8125,-39.75,-1.3125,323.5,86.5625,70.5625,6.62,17.88,3.75,0,2.6620001792907715,9.963128593970872,0.6565816476265537,10.25022881012907,0.6444467006665485,9.59463912817986,52.20220601181525
1776724008.426,-2.6193,0.7638,9.8378,-0.4157,0.4093,0.0538,-6.15,5.55,92.55,-2.8611,0.4286,10.0317,-0.4213,0.3816,0.0509,-33.75,-9.75,61.05,2.67,-0.62,8.96,25.875,-33.4375,1.9375,323.5,86.5625,70.5625,6.5,18.44,3.25,0,2.6680002212524414,10.209134721904693,0.5858561427517851,10.440526617944135,0.5707040038408702,9.369893275806294,42.324176749229274
1776724008.437,-2.7342,0.4166,10.0509,-0.3179,0.4525,0.0096,-7.2,5.55,94.05,-2.9281,0.0527,10.0102,-0.3211,0.4306,0.0096,-32.25,-8.55,58.8,2.49,-0.92,9.21,27.3125,-28.125,4.375,323.5,86.5625,70.5625,6.38,18.69,3.0,0,2.67900013923645,10.424490203842105,0.5530902458008097,10.429796303859437,0.5372278194583747,9.584915231758703,39.44779976437216
1776724008.447,-2.8084,0.2705,10.0317,-0.2286,0.5404,-0.0485,-7.2,5.55,94.05,-3.067,-0.2035,9.6247,-0.23,0.5185,-0.0434,-33.0,-8.55,59.85,2.44,-0.85,9.69,27.8125,-24.0,4.9375,323.5,86.5625,70.5625,6.31,18.88,2.75,0,2.689000129699707,10.420906184204904,0.5887634244754,10.103600909576745,0.5688811914626813,10.02856919006894,37.066346764956485
1776724008.457,-2.9808,-0.0934,9.493,-0.1937,0.6214,-0.0898,-5.25,6.45,94.5,-3.2992,-0.3256,9.2177,-0.2054,0.5865,-0.0863,-33.0,-8.55,59.85,2.52,-0.55,9.99,23.75,-22.875,2.8125,323.5,86.5625,70.5625,6.31,18.88,2.75,0,2.699000120162964,9.950424171863228,0.6570553173059327,9.795750573080147,0.6273907076136848,10.31760631154339,33.09438443678927
1776724008.463,-3.2513,-0.2466,9.0333,-0.1937,0.6214,-0.0898,-5.25,6.45,94.5,-3.3734,-0.2753,8.904,-0.3003,0.6435,-0.0986,-31.8,-7.8,60.6,2.75,-0.12,9.59,17.9375,-25.5625,0.125,313.5,85.5,67.25,6.25,19.12,2.62,0,2.705000162124634,9.603763436278511,0.6570553173059327,9.525588362405758,0.7169339579068633,9.97722406283431,31.2283675125678
1776724008.47,-3.2513,-0.2466,9.0333,-0.2846,0.6704,-0.0981,-3.75,5.7,96.3,-3.3734,-0.2753,8.904,-0.3003,0.6435,-0.0986,-31.8,-7.8,60.6,2.75,-0.12,9.59,17.9375,-25.5625,0.125,313.5,85.5,67.25,6.25,19.12,2.62,0,2.7120001316070557,9.603763436278511,0.7348856577726905,9.525588362405758,0.7169339579068633,9.97722406283431,31.2283675125678
1776724008.477,-3.1316,-0.1197,8.8202,-0.4415,0.7053,-0.1071,-4.8,5.4,97.35,-3.2968,-0.0766,8.8155,-0.4599,0.6757,-0.1053,-31.8,-7.8,60.6,2.94,0.12,9.1,12.6875,-30.5625,-2.9375,313.5,85.5,67.25,6.31,19.75,2.38,0,2.7190001010894775,9.36040462213039,0.8389521738454464,9.412109118045754,0.8241156411572346,9.56389042178966,33.221498592778744
1776724008.487,-3.0047,0.0431,8.7077,-0.5966,0.7157,-0.1047,-2.7,5.4,96.0,-2.9975,-0.1293,8.758,-0.6129,0.6859,-0.1079,-32.25,-9.3,61.8,3.03,0.2,8.78,11.5625,-35.0,-5.3125,313.5,85.5,67.25,6.31,20.12,2.19,0,2.7290000915527344,9.211629551279188,0.9376140677272287,9.257661083664706,0.9261466568530061,9.290279866613277,37.24129512382726
1776724008.497,-2.5331,-0.0024,8.6191,-0.6925,0.7051,-0.0861,-3.15,4.05,95.4,-2.5546,-0.0239,8.8155,-0.6997,0.68,-0.0845,-29.7,-9.15,63.45,2.78,-0.07,8.53,17.625,-38.0625,-6.125,313.5,85.5,67.25,6.31,20.56,1.88,0,2.739000082015991,8.983623221173069,0.9920360225314401,9.178212931720424,0.979346894619062,8.971855995277677,42.3899770730063
1776724008.507,-2.1141,0.0192,8.6503,-0.7365,0.6659,-0.0442,-3.15,4.05,95.4,-2.1213,0.012,8.8394,-0.7493,0.6416,-0.044,-31.05,-9.3,63.6,2.46,-0.01,8.39,27.0625,-40.0,-6.25,313.5,85.5,67.25,6.31,20.56,1.88,0,2.749000072479248,8.904913112434055,0.9938856574073298,9.09038228294058,0.987439643725124,8.743214511837166,48.69744763588745
1776724008.514,-1.8244,-0.2179,8.5856,-0.704,0.6169,0.0091,-3.15,4.05,95.4,-1.8627,-0.2346,8.8945,-0.7171,0.591,0.0053,-30.45,-9.15,63.0,2.1,-0.02,8.36,35.5625,-40.5,-6.0,301.0625,82.5625,63.0625,6.31,20.94,1.5,0,2.75600004196167,8.780002456149997,0.9360899636252917,9.090479563807401,0.9292693366295909,8.619744775803978,54.230447225244234
1776724008.52,-1.7885,-0.2945,8.6574,-0.704,0.6169,0.0091,-1.95,3.45,98.85,-1.8627,-0.2346,8.8945,-0.7171,0.591,0.0053,-29.7,-9.15,63.45,2.1,-0.02,8.36,35.5625,-40.5,-6.0,301.0625,82.5625,63.0625,6.31,21.31,1.12,0,2.76200008392334,8.845113750540465,0.9360899636252917,9.090479563807401,0.9292693366295909,8.619744775803978,54.230447225244234
1776724008.527,-1.7885,-0.2945,8.6574,-0.5958,0.5553,0.0538,0.15,3.15,98.4,-2.0949,-0.249,8.9783,-0.6011,0.5324,0.0474,-29.7,-9.15,63.45,1.59,0.33,8.22,40.75,-39.5625,-4.625,301.0625,82.5625,63.0625,6.25,21.69,0.69,0,2.7690000534057617,8.845113750540465,0.8162292386333634,9.222823748722513,0.8043741231541452,8.378866271757774,56.98372163390173
1776724008.537,-1.9465,-0.1006,8.7221,-0.5009,0.4916,0.0834,-0.6,2.55,99.0,-2.0039,-0.1628,8.8849,-0.5185,0.4642,0.0815,-29.7,-9.9,63.0,1.55,0.36,8.24,42.625,-37.1875,-1.9375,301.0625,82.5625,63.0625,6.12,22.0,0.31,0,2.7790000438690186,8.937226136783156,0.7067721910205579,9.109531659750681,0.7006897601649392,8.392240463666422,56.59995306976853
1776724008.547,-1.7597,-0.3903,8.6,-0.3285,0.4325,0.1593,0.45,3.15,99.15,-1.9896,-0.4429,8.8298,-0.3427,0.4053,0.1652,-29.7,-9.9,63.0,1.79,0.16,8.33,39.375,-33.8125,1.0625,301.0625,82.5625,63.0625,6.06,22.31,0.0,0,2.7890000343322754,8.786858265614622,0.5659902737680216,9.062010627338726,0.5558798611210879,8.521654768881453,51.91150823757676
1776724008.557,-2.1931,-1.0319,8.4396,-0.1908,0.4101,0.3224,0.0,2.55,99.0,-2.32,-0.7925,8.6287,-0.2033,0.3824,0.3251,-28.35,-9.75,64.05,1.58,0.24,8.28,33.1875,-30.0625,3.75,301.0625,82.5625,63.0625,6.06,22.31,0.0,0,2.7990000247955322,8.780737633023778,0.5554533373740769,8.970224074124348,0.5415262320515969,8.432816848479517,44.93580490544261
1776724008.564,-2.1931,-1.0319,8.4396,-0.1703,0.4207,0.4826,0.0,2.55,99.0,-2.3631,-0.7925,8.4898,-0.1796,0.3848,0.4871,-28.35,-9.75,64.05,1.97,1.41,8.31,25.125,-26.1875,6.0625,288.5,77.5,58.6875,5.94,22.56,-0.12,0,2.805999994277954,8.780737633023778,0.6624902565321245,8.848107249576037,0.6462148326988478,8.655928604141788,36.794084952611605
1776724008.57,-2.3272,-0.9649,8.4827,-0.1703,0.4207,0.4826,0.0,2.55,99.0,-2.6217,-0.9505,8.6048,-0.1599,0.4189,0.5769,-28.05,-11.25,64.05,1.97,1.41,8.31,25.125,-26.1875,6.0625,288.5,77.5,58.6875,5.94,22.56,-0.12,0,2.812000036239624,8.848903386295953,0.6624902565321245,9.045404589071735,0.7306564377325365,8.655928604141788,36.794084952611605
1776724008.577,-2.6647,-1.2091,8.7987,-0.138,0.4495,0.5662,1.05,1.5,99.75,-2.6217,-0.9505,8.6048,-0.1599,0.4189,0.5769,-28.05,-11.25,64.05,1.99,1.4,8.24,15.5,-23.5625,12.8125,288.5,77.5,58.6875,5.56,23.0,-0.25,0,2.819000005722046,9.272522342383436,0.7359868816765691,9.045404589071735,0.7306564377325365,8.591722760890274,30.97743634486237
1776724008.587,-2.8419,-1.3024,8.7532,-0.0927,0.5044,0.6416,-0.3,1.5,99.0,-2.8946,-1.2163,8.7508,-0.1114,0.473,0.6424,-27.45,-10.35,64.2,2.03,1.07,8.29,9.625,-22.6875,22.9375,288.5,77.5,58.6875,5.25,23.25,-0.19,0,2.8289999961853027,9.294684051112228,0.8213788468179588,9.297020785714098,0.8054916014459741,8.601738196434486,33.66737571448063
1776724008.597,-2.8347,-1.0942,8.6239,-0.0448,0.5798,0.6989,1.05,1.8,99.0,-2.9951,-1.3024,8.667,-0.061,0.5417,0.7029,-28.05,-11.7,64.35,2.52,1.38,8.71,8.6875,-23.8125,30.875,288.5,77.5,58.6875,4.88,23.5,-0.12,0,2.8389999866485596,9.14354684682044,0.9091954080394379,9.261952211602045,0.8895101460916564,9.171635622940983,39.94713303229657
1776724008.607,-3.1627,-0.7877,8.4994,0.0482,0.6432,0.744,-0.3,0.75,100.05,-3.3136,-0.6416,8.3917,0.0226,0.6065,0.7456,-26.1,-9.75,64.8,2.65,1.38,8.7,6.125,-26.4375,35.6875,288.5,77.5,58.6875,4.88,23.5,-0.12,0,2.8490002155303955,9.10290848795043,0.9846651613619728,9.04501102321053,0.9613908518391467,9.198744479547194,44.833633440755165
