timestamp,thigh_acc_x,thigh_acc_y,thigh_acc_z,thigh_gyro_x,thigh_gyro_y,thigh_gyro_z,thigh_mag_x,thigh_mag_y,thigh_mag_z,shank_acc_x,shank_acc_y,shank_acc_z,shank_gyro_x,shank_gyro_y,shank_gyro_z,shank_mag_x,shank_mag_y,shank_mag_z,foot_acc_x,foot_acc_y,foot_acc_z,foot_gyro_x,foot_gyro_y,foot_gyro_z,foot_mag_x,foot_mag_y,foot_mag_z,foot_euler_x,foot_euler_y,foot_euler_z,perturbation_event,time_s,thigh_acc_mag,thigh_gyro_mag,shank_acc_mag,shank_gyro_mag,foot_acc_mag,foot_gyro_mag
37.435,9.3182,2.3439,-1.7406,-0.049,0.0128,0.0096,-70.2,3.9,-43.2,9.7707,-0.0622,0.5411,0.0,0.0341,-0.0187,-27.3,13.95,2.25,-3.62,-4.81,-7.64,0.6875,0.1875,-0.25,-7.875,-6.5625,21.25,242.125,-21.25,147.375,0,0.0,9.764855698370559,0.05154609587543949,9.785869227615908,0.038890872965260115,9.726772332073985,0.7551903733496608
37.444,9.3422,2.3703,-1.549,-0.0605,0.0093,0.0083,-71.7,1.95,-43.95,9.6869,-0.103,0.5124,0.0008,0.0413,-0.0197,-27.3,13.95,2.25,-3.64,-4.81,-7.63,0.5625,0.1875,-0.1875,-7.875,-6.5625,21.25,242.125,-21.25,147.375,0,0.009000000000000341,9.76188628954466,0.06177078597524885,9.700989350061157,0.04576483366079244,9.726386790581588,0.6218671481916375
37.454,9.3494,2.2625,-1.4653,-0.0554,0.0053,-0.0011,-71.55,3.3,-43.8,9.7276,-0.0646,0.4262,-0.0184,0.0466,-0.0179,-27.75,13.65,1.5,-3.61,-4.83,-7.6,0.625,0.1875,-0.25,-7.875,-6.5625,21.25,242.125,-21.25,147.375,0,0.01899999999999835,9.730225624311082,0.055663812302069286,9.737146469063717,0.05320272549409476,9.701597806547126,0.6987712429686843
37.459,9.3494,2.2625,-1.4653,-0.0554,0.0053,-0.0011,-70.05,4.05,-44.25,9.7923,-0.1365,0.4214,-0.0141,0.0472,-0.0101,-26.7,13.2,2.25,-3.61,-4.83,-7.6,0.6875,0.125,-0.25,-7.0625,-6.5625,22.0625,242.125,-21.25,147.3125,0,0.02400000000000091,9.730225624311082,0.055663812302069286,9.80231347692982,0.05028578327917345,9.701597806547126,0.7421463804398698
37.465,9.3158,2.1811,-1.4581,-0.0248,0.0008,-0.0125,-70.05,4.05,-44.25,9.7923,-0.1365,0.4214,-0.0141,0.0472,-0.0101,-28.5,14.4,1.5,-3.63,-4.81,-7.62,0.6875,0.125,-0.25,-7.0625,-6.5625,22.0625,242.125,-21.25,147.3125,0,0.030000000000001137,9.678191073749266,0.027783628272779637,9.80231347692982,0.05028578327917345,9.71480313748045,0.7421463804398698
37.475,9.2895,2.1859,-1.6376,0.0104,0.0059,-0.0141,-71.1,4.5,-43.8,9.7947,-0.1149,0.486,-0.0069,0.0461,-0.0163,-27.3,12.45,1.2,-3.63,-4.8,-7.63,0.5,0.25,-0.125,-7.0625,-6.5625,22.0625,242.125,-21.25,147.3125,0,0.03999999999999915,9.682701215053577,0.018487292933255534,9.807423010148998,0.0493812717535707,9.71770549049517,0.57282196186948
37.485,9.3302,2.2266,-1.6951,0.0096,0.0032,-0.0109,-70.5,3.45,-45.15,9.7636,-0.158,0.5243,-0.024,0.0456,-0.0192,-28.8,13.95,1.5,-3.6,-4.81,-7.61,0.5625,0.1875,-0.25,-7.0625,-6.5625,22.0625,242.125,-21.25,147.3125,0,0.04999999999999716,9.740828692159615,0.0148731301345749,9.77894367761672,0.05499090833947008,9.695782588321583,0.6434768838116876
37.494,9.2057,2.3104,-1.7549,0.0008,0.0024,-0.0091,-71.55,3.6,-44.55,9.7516,-0.1077,0.4764,-0.0179,0.0405,-0.016,-28.8,13.95,1.5,-3.63,-4.8,-7.61,0.5625,0.0625,-0.25,-7.0625,-6.5625,22.0625,242.125,-21.25,147.3125,0,0.0589999999999975,9.652074111816589,0.009445104552094699,9.763823984996861,0.04708141884013268,9.702010101004843,0.6187184335382291
37.499,9.3134,2.375,-1.6352,0.0008,0.0024,-0.0091,-71.55,3.6,-44.55,9.7492,0.0503,0.4812,-0.0123,0.0437,-0.0101,-28.8,13.95,1.5,-3.63,-4.8,-7.61,0.5625,0.0625,-0.25,-7.0625,-6.5625,22.0625,242.125,-21.25,147.3125,0,0.06400000000000006,9.74956017469506,0.009445104552094699,9.761197886017884,0.04650795630857155,9.702010101004843,0.6187184335382291
37.506,9.3134,2.375,-1.6352,-0.0248,0.0013,-0.0056,-71.55,3.6,-44.55,9.7492,0.0503,0.4812,-0.0104,0.0434,-0.0128,-27.3,12.15,1.5,-3.62,-4.82,-7.63,0.625,0.1875,-0.25,-7.0625,-6.5625,22.0625,242.125,-21.25,147.3125,0,0.07099999999999795,9.74956017469506,0.025457611828292145,9.761197886017884,0.04642800878779964,9.723872685303936,0.6987712429686843
37.511,9.3039,2.2936,-1.506,-0.0592,0.0115,-0.0037,-70.95,2.7,-45.15,9.7827,0.012,0.4812,-0.008,0.0421,-0.0147,-27.3,12.15,1.5,-3.62,-4.82,-7.63,0.4375,0.125,-0.4375,-7.5,-5.5,21.25,242.125,-21.25,147.3125,0,0.07600000000000051,9.7000614518672,0.06042002979145244,9.794535044094742,0.04530452516029718,9.723872685303936,0.6312190586476298
37.516,9.3039,2.2936,-1.506,-0.0592,0.0115,-0.0037,-70.95,2.7,-45.15,9.7827,0.012,0.4812,0.0117,0.0437,-0.0099,-26.85,13.5,2.1,-3.62,-4.82,-7.63,0.4375,0.125,-0.4375,-7.5,-5.5,21.25,242.125,-21.25,147.3125,0,0.08099999999999596,9.7000614518672,0.06042002979145244,9.794535044094742,0.046309718202554424,9.723872685303936,0.6312190586476298
37.525,9.3565,2.2242,-1.5131,-0.0589,0.0091,-0.0045,-70.5,3.9,-44.4,9.821,-0.0646,0.5171,0.0203,0.0424,-0.0157,-27.75,13.2,0.75,-3.62,-4.84,-7.65,0.5,0.125,-0.4375,-7.5,-5.5,21.25,242.125,-21.25,147.3125,0,0.0899999999999963,9.735534371568928,0.05976846994862759,9.83481604149259,0.04956147697557045,9.749487166000067,0.676040864149498
37.535,9.2943,2.2936,-1.6999,-0.0394,0.0029,-0.0043,-71.85,3.6,-43.5,9.7779,-0.1221,0.4693,-0.0005,0.0426,-0.0088,-27.9,12.3,2.1,-3.64,-4.84,-7.67,0.5,0.0,-0.25,-7.5,-5.5,21.25,242.125,-21.25,147.3125,0,0.09999999999999432,9.722873724367709,0.039739904378344945,9.78991722692281,0.04350229878983408,9.772619914843716,0.5590169943749475
37.545,9.2871,2.4134,-1.6233,-0.0386,-0.0056,-0.0053,-71.1,3.6,-44.25,9.7205,-0.1556,0.5483,-0.0144,0.0533,-0.0053,-27.9,12.3,2.1,-3.62,-4.82,-7.63,0.5625,-0.1875,-0.25,-7.5,-5.5,21.25,242.125,-21.25,147.3125,0,0.10999999999999943,9.73189749535002,0.039362545649386044,9.737194898942919,0.0554647635891473,9.723872685303936,0.6434768838116876
37.554,9.3637,2.3966,-1.4844,-0.0408,-0.008,-0.008,-70.8,2.4,-43.5,9.7923,-0.0407,0.5219,-0.0165,0.0512,-0.0083,-27.3,13.65,1.5,-3.64,-4.83,-7.6,0.6875,-0.125,-0.3125,-7.5,-5.5,21.25,242.125,-21.25,147.3125,0,0.11899999999999977,9.778855383428063,0.04233957959167758,9.80628244494314,0.05442958754207127,9.7128008318919,0.7654655446197431
37.559,9.2847,2.3152,-1.573,-0.032,-0.0149,-0.0059,-70.8,3.3,-44.85,9.8114,-0.0192,0.4118,-0.0131,0.0562,-0.0152,-27.3,13.65,1.5,-3.64,-4.83,-7.6,0.6875,-0.125,-0.3125,-7.5,-7.375,21.6875,242.125,-21.25,147.3125,0,0.12399999999999523,9.697429253673368,0.03578854565360263,9.820056916332003,0.05967486908238677,9.7128008318919,0.7654655446197431
37.566,9.2823,2.2984,-1.6424,-0.032,-0.0149,-0.0059,-70.8,3.3,-44.85,9.73,-0.0431,0.5243,0.0,0.0512,-0.0083,-27.0,13.65,0.45,-3.62,-4.83,-7.6,0.4375,0.0,-0.3125,-7.5,-7.375,21.6875,242.125,-21.25,147.3125,0,0.13100000000000023,9.70263951767765,0.03578854565360263,9.744211004488768,0.05186839114528231,9.705323281581093,0.5376453291901642
37.575,9.2823,2.2984,-1.6424,-0.0043,-0.0091,-0.0131,-70.8,3.3,-44.85,9.8043,-0.0694,0.5076,0.0013,0.0517,-0.0067,-28.5,14.4,-0.15,-3.63,-4.82,-7.63,0.375,0.125,-0.375,-7.5,-7.375,21.6875,242.125,-21.25,147.3125,0,0.14000000000000057,9.70263951767765,0.016519987893458033,9.817676538265049,0.05214853785102704,9.727599909535753,0.5448623679425842
37.585,9.2799,2.2769,-1.5179,0.0163,-0.0045,-0.0179,-72.0,3.45,-44.7,9.754,-0.0694,0.5626,-0.0037,0.0381,-0.0045,-28.2,13.8,2.1,-3.62,-4.84,-7.63,0.375,0.0,-0.1875,-7.5,-7.375,21.6875,242.125,-21.25,147.3125,0,0.14999999999999858,9.67495932963028,0.02462417511308754,9.770458081379807,0.03854283331567621,9.73380192935936,0.4192627457812106
37.595,9.268,2.217,-1.4916,-0.004,0.0021,-0.0125,-70.8,3.6,-43.8,9.8354,-0.1245,0.51,0.0069,0.0416,-0.0069,-28.2,13.8,2.1,-3.6,-4.82,-7.62,0.3125,0.125,-0.1875,-7.5,-7.375,21.6875,242.125,-21.25,147.3125,0,0.1599999999999966,9.64550587372171,0.013291350570954031,9.84940066247688,0.04272914696082757,9.708594130974886,0.385275875185561
37.603,9.268,2.217,-1.4916,-0.0117,-0.0019,-0.0144,-71.7,3.45,-45.15,9.8737,-0.2131,0.5555,0.0064,0.0429,-0.0037,-28.2,13.8,2.1,-3.63,-4.82,-7.62,0.3125,0.0625,-0.1875,-7.5,-7.375,21.6875,242.125,-21.25,147.3125,0,0.16799999999999926,9.64550587372171,0.01865100533483383,9.891609755242065,0.04353228686848418,9.719758227445784,0.369754986443726
37.608,9.3206,2.3056,-1.4988,-0.0195,0.0085,-0.0099,-71.7,3.45,-45.15,9.8737,-0.2131,0.5555,0.0064,0.0429,-0.0037,-28.2,13.8,2.1,-3.63,-4.82,-7.62,0.3125,0.0625,-0.1875,-7.5,-7.375,21.6875,242.125,-21.25,147.3125,0,0.1729999999999947,9.717807219738413,0.023462949516205332,9.891609755242065,0.04353228686848418,9.719758227445784,0.369754986443726
37.615,9.2823,2.3272,-1.6807,-0.0189,0.0125,-0.0075,-70.2,4.65,-43.2,9.7659,-0.2634,0.589,0.0072,0.0416,-0.0067,-27.75,13.65,1.95,-3.63,-4.83,-7.62,0.5,0.0625,-0.3125,-7.875,-6.5625,22.5,242.125,-21.25,147.3125,0,0.17999999999999972,9.716054014876613,0.023868598618268313,9.787190780300547,0.04274681274668323,9.72472107569158,0.5929270612815711
37.625,9.1961,2.2889,-1.664,-0.0328,-0.0037,-0.0045,-71.1,2.85,-43.05,9.7947,-0.1963,0.577,0.0029,0.0346,-0.008,-28.8,14.4,2.55,-3.62,-4.83,-7.63,0.5,0.1875,-0.1875,-7.875,-6.5625,22.5,242.125,-21.25,147.3125,0,0.18999999999999773,9.621653414044802,0.03331336068306529,9.813644113172233,0.03563102580617066,9.72883343469298,0.5659615711335886
37.634,9.232,2.3487,-1.6041,-0.0328,-0.0037,-0.0045,-70.5,3.9,-43.95,9.73,-0.091,0.5028,-0.0027,0.045,-0.0072,-27.6,15.3,1.35,-3.65,-4.81,-7.64,0.5,0.125,-0.25,-7.875,-6.5625,22.5,242.125,-21.25,147.3125,0,0.19899999999999807,9.660194226825876,0.03331336068306529,9.743407455300225,0.045652272670700635,9.737977202684343,0.57282196186948
37.639,9.232,2.3487,-1.6041,-0.041,0.008,0.0029,-70.5,3.9,-43.95,9.73,-0.091,0.5028,-0.0027,0.045,-0.0072,-27.6,15.3,1.35,-3.65,-4.81,-7.64,0.5,0.125,-0.25,-7.875,-6.5625,22.5,242.125,-21.25,147.3125,0,0.20400000000000063,9.660194226825876,0.04187373878697721,9.743407455300225,0.045652272670700635,9.737977202684343,0.57282196186948
37.646,9.3087,2.3272,-1.5419,-0.045,-0.0011,0.0045,-70.5,3.9,-43.95,9.7157,-0.0024,0.5339,0.0019,0.0424,-0.0067,-28.65,13.8,1.35,-3.63,-4.83,-7.59,0.625,-0.25,-0.1875,-7.875,-6.5625,22.5,242.125,-21.25,147.3125,0,0.21099999999999852,9.71829260415635,0.045237816039238675,9.730358752892927,0.04296812772276679,9.701231880539709,0.6987712429686843
37.655,9.3326,2.32,-1.5945,-0.0232,-0.0141,-0.0048,-71.25,4.95,-44.7,9.7779,0.0359,0.4405,0.0056,0.0458,-0.0112,-28.65,13.8,1.35,-3.62,-4.84,-7.63,0.5,0.0,-0.375,-7.875,-6.5625,22.5,242.125,-21.25,147.3125,0,0.21999999999999886,9.747935833293118,0.02756972977742074,9.78788319658546,0.04748094354580583,9.73380192935936,0.625
37.66,9.3326,2.32,-1.5945,-0.0232,-0.0141,-0.0048,-71.25,4.95,-44.7,9.7779,0.0359,0.4405,0.0053,0.0384,-0.0083,-28.65,13.8,1.35,-3.62,-4.84,-7.63,0.5625,-0.0625,-0.5625,-8.25,-7.0,20.5,242.125,-21.25,147.3125,0,0.22499999999999432,9.747935833293118,0.02756972977742074,9.78788319658546,0.039642653796132264,9.73380192935936,0.7979465834252315
37.666,9.3278,2.3056,-1.5083,0.0027,0.0029,-0.0147,-71.25,4.95,-44.7,9.742,0.0742,0.4717,0.0069,0.0394,-0.0069,-29.4,14.25,1.65,-3.63,-4.86,-7.59,0.5625,-0.0625,-0.5625,-8.25,-7.0,20.5,242.125,-21.25,147.3125,0,0.23099999999999454,9.726181835129344,0.0152246510633249,9.753695224375223,0.04059039295202745,9.716202962062907,0.7979465834252315
37.675,9.3685,2.1883,-1.4605,0.0085,-0.0016,-0.0211,-70.35,1.35,-44.55,9.7564,-0.067,0.498,0.0043,0.0418,-0.0048,-28.8,15.15,1.2,-3.62,-4.84,-7.6,0.4375,0.0625,-0.375,-8.25,-7.0,20.5,242.125,-21.25,147.3125,0,0.23999999999999488,9.730904859775373,0.02280394702677587,9.769331295436755,0.04229385298125485,9.710303805751908,0.5796011559684815
37.685,9.2847,2.1787,-1.5443,0.0189,0.0027,-0.0232,-70.8,2.4,-44.25,9.8138,-0.2035,0.5507,-0.0011,0.04,-0.0056,-27.15,14.25,0.6,-3.61,-4.86,-7.63,0.5625,0.0625,-0.4375,-8.25,-7.0,20.5,242.125,-21.25,147.3125,0,0.25,9.661120549397985,0.030045631962067297,9.831345440986194,0.0404050739388013,9.74005133456698,0.7153451963912248
37.695,9.2895,2.2146,-1.6999,0.0075,-0.0064,-0.0165,-70.95,2.7,-43.65,9.7252,-0.2658,0.6129,-0.0133,0.045,-0.0128,-26.4,13.5,1.05,-3.6,-4.82,-7.63,0.5625,0.0625,-0.3125,-8.25,-7.0,20.5,242.125,-21.25,147.3125,0,0.259999999999998,9.699944506026826,0.019221342304844374,9.748118335863593,0.04863877054367226,9.716444823082155,0.6465050270492876
37.701,9.3446,2.3391,-1.6137,-0.0187,0.0,-0.0128,-71.55,3.6,-44.55,9.7564,-0.2179,0.6129,-0.0184,0.0477,-0.0061,-26.4,13.5,1.05,-3.63,-4.8,-7.61,0.6875,0.0,-0.25,-8.25,-7.0,20.5,242.125,-21.25,147.3125,0,0.26599999999999824,9.767137024737597,0.02266120032125395,9.77806053264143,0.05148844530571884,9.702010101004843,0.7315437444199766
37.706,9.3446,2.3391,-1.6137,-0.0187,0.0,-0.0128,-71.55,3.6,-44.55,9.7564,-0.2179,0.6129,-0.0184,0.0477,-0.0061,-26.4,13.5,1.05,-3.63,-4.8,-7.61,0.6875,0.0,-0.25,-8.25,-7.0,20.5,242.125,-21.25,147.3125,0,0.2710000000000008,9.767137024737597,0.02266120032125395,9.77806053264143,0.05148844530571884,9.702010101004843,0.7315437444199766
37.712,9.3494,2.332,-1.6281,-0.0461,-0.0107,-0.0056,-71.55,3.6,-44.55,9.8665,-0.0599,0.589,-0.0242,0.049,-0.0045,-26.4,15.3,1.65,-3.62,-4.83,-7.62,0.5625,0.125,-0.25,-7.5,-6.1875,22.5,242.125,-21.25,147.3125,0,0.277000000000001,9.772421090497483,0.047655639750191166,9.884246620759724,0.054835116485697374,9.720992747657,0.6281172263200556
37.716,9.3494,2.332,-1.6281,-0.0461,-0.0107,-0.0056,-71.55,3.6,-44.55,9.8665,-0.0599,0.589,-0.0242,0.049,-0.0045,-26.4,15.3,1.65,-3.62,-4.83,-7.62,0.5625,0.125,-0.25,-7.5,-6.1875,22.5,242.125,-21.25,147.3125,0,0.2809999999999988,9.772421090497483,0.047655639750191166,9.884246620759724,0.054835116485697374,9.720992747657,0.6281172263200556
37.726,9.2608,2.4277,-1.5275,-0.0717,-0.0061,0.0011,-70.05,4.05,-44.25,9.73,-0.0527,0.5219,-0.0304,0.0501,-0.0093,-29.1,15.15,1.95,-3.64,-4.83,-7.64,0.4375,0.0,-0.1875,-7.5,-6.1875,22.5,242.125,-21.25,147.3125,0,0.2909999999999968,9.694813055443618,0.07196742318577205,9.744129355668468,0.05933514978492934,9.744131567256265,0.4759858191164943
37.735,9.3541,2.2338,-1.4341,-0.0911,0.0061,-0.0024,-70.05,4.05,-44.25,9.7109,-0.0622,0.5219,-0.0192,0.0485,-0.0083,-28.8,14.4,1.2,-3.6,-4.85,-7.66,0.5625,-0.125,-0.125,-7.5,-6.1875,22.5,242.125,-21.25,147.3125,0,0.29999999999999716,9.7234609095733,0.09133553525326273,9.725113226076086,0.05281836801719644,9.754901332150931,0.5896238207535377
37.744,9.2608,2.2194,-1.5921,-0.0741,-0.0101,-0.0043,-70.95,3.9,-43.95,9.7085,-0.2059,0.5052,-0.0133,0.0437,-0.0091,-27.3,13.95,0.75,-3.6,-4.83,-7.62,0.6875,0.0,-0.1875,-7.5,-6.1875,22.5,242.125,-21.25,147.3125,0,0.3089999999999975,9.65520250486752,0.07490867773495938,9.723815819934066,0.04657671091865548,9.713562683176548,0.7126096406869612
37.749,9.2392,2.3152,-1.5993,-0.0741,-0.0101,-0.0043,-70.95,3.9,-43.95,9.7444,-0.1508,0.577,-0.0101,0.0522,-0.0075,-27.3,13.95,0.75,-3.6,-4.83,-7.62,0.6875,0.0,-0.1875,-7.5,-6.1875,22.5,242.125,-21.25,147.3125,0,0.31400000000000006,9.65819487119617,0.07490867773495938,9.762632892821484,0.05369450623667193,9.713562683176548,0.7126096406869612
37.756,9.2392,2.3152,-1.5993,-0.0522,0.0061,-0.0072,-69.0,2.25,-43.65,9.7444,-0.1508,0.577,-0.0101,0.0522,-0.0075,-28.05,15.45,0.75,-3.62,-4.82,-7.59,0.75,-0.0625,-0.1875,-7.5,-6.1875,22.5,242.125,-21.25,147.3125,0,0.32099999999999795,9.65819487119617,0.05304611201586786,9.762632892821484,0.05369450623667193,9.69251773276686,0.7756046028744286
37.761,9.3733,2.3631,-1.494,-0.0426,0.0099,0.0003,-71.7,2.7,-43.65,9.7923,-0.0766,0.5531,-0.0245,0.053,-0.0043,-28.05,15.45,0.75,-3.62,-4.82,-7.59,0.6875,0.0,-0.0625,-7.875,-5.875,22.0625,242.125,-21.25,147.3125,0,0.3260000000000005,9.781361382752403,0.04373625498370888,9.808207097120247,0.058546904273411415,9.69251773276686,0.6903350635742038
37.766,9.3733,2.3631,-1.494,-0.0426,0.0099,0.0003,-71.7,2.7,-43.65,9.7923,-0.0766,0.5531,-0.0245,0.053,-0.0043,-28.05,15.45,0.75,-3.63,-4.83,-7.61,0.6875,0.0,-0.0625,-7.875,-5.875,22.0625,242.125,-21.25,147.3125,0,0.33099999999999596,9.781361382752403,0.04373625498370888,9.808207097120247,0.058546904273411415,9.716887361701792,0.6903350635742038
37.776,9.3158,2.3559,-1.4844,-0.0397,-0.0056,0.0011,-71.55,4.05,-44.85,9.7707,-0.0215,0.5722,-0.0133,0.045,-0.0064,-27.0,14.7,1.5,-3.62,-4.82,-7.62,0.625,-0.0625,-0.25,-7.875,-5.875,22.0625,242.125,-21.25,147.3125,0,0.3410000000000011,9.723057019785495,0.04010810391928295,9.787464103637877,0.04735873731424857,9.716027995019363,0.676040864149498
37.785,9.2799,2.3942,-1.4796,-0.0261,-0.0048,-0.0061,-71.55,4.05,-44.85,9.7683,-0.0622,0.6704,0.0155,0.0389,-0.0107,-27.6,15.0,0.3,-3.64,-4.87,-7.64,0.6875,-0.125,-0.1875,-7.875,-5.875,22.0625,242.125,-21.25,147.3125,0,0.3499999999999943,9.697316835599423,0.02722976312787168,9.791475368400821,0.04321978713506118,9.764020688220606,0.7234898064243891
37.794,9.2775,2.3535,-1.4413,-0.0203,-0.0091,-0.0037,-70.95,2.7,-44.7,9.754,-0.0958,0.6297,0.0168,0.037,-0.0104,-27.3,13.65,1.5,-3.63,-4.87,-7.6,0.6875,-0.25,-0.3125,-7.875,-5.875,22.0625,242.125,-21.25,147.25,0,0.35899999999999466,9.679272399824276,0.022551940049583316,9.774774459290608,0.041945202347825186,9.729018449977366,0.795495128834866
37.799,9.2368,2.411,-1.5538,-0.0123,0.0011,-0.0021,-70.95,2.7,-44.7,9.7612,-0.1796,0.644,0.0016,0.0402,-0.0125,-27.75,13.65,0.75,-3.63,-4.87,-7.6,0.6875,-0.25,-0.3125,-7.875,-5.875,22.0625,242.125,-21.25,147.25,0,0.3639999999999972,9.671902071464539,0.012526372180324197,9.784069582745209,0.04212896865578364,9.729018449977366,0.795495128834866
37.806,9.2608,2.4828,-1.5083,-0.0123,0.0011,-0.0021,-70.95,2.7,-44.7,9.7612,-0.1796,0.644,-0.0032,0.0389,-0.0128,-27.75,13.65,0.75,-3.64,-4.85,-7.59,0.625,-0.0625,-0.25,-7.875,-5.875,22.0625,242.125,-21.25,147.25,0,0.3709999999999951,9.705755064393495,0.012526372180324197,9.784069582745209,0.04107663569475962,9.714947246382762,0.676040864149498
37.811,9.2608,2.4828,-1.5083,-0.0253,0.0061,-0.008,-71.25,3.45,-42.45,9.7851,-0.1987,0.644,-0.0064,0.033,-0.0117,-27.75,13.65,0.75,-3.64,-4.85,-7.59,0.625,-0.0625,-0.1875,-7.875,-5.875,21.25,242.125,-21.25,147.25,0,0.37599999999999767,9.705755064393495,0.027226825007701502,9.808282199243658,0.035592836357896514,9.714947246382762,0.6555055301063447
37.817,9.2967,2.3583,-1.4653,-0.0509,-0.0032,-0.0056,-71.25,3.45,-42.45,9.7947,-0.0886,0.4621,-0.0184,0.0392,-0.0088,-27.75,13.65,0.75,-3.61,-4.85,-7.59,0.625,-0.0625,-0.1875,-7.875,-5.875,21.25,242.125,-21.25,147.25,0,0.3819999999999979,9.702438552755693,0.051307017063945554,9.805994822556253,0.04418868633485273,9.703746699084844,0.6555055301063447
37.826,9.2895,2.2865,-1.5658,-0.0509,-0.0032,-0.0056,-71.55,4.8,-44.25,9.7947,-0.0886,0.4621,-0.0139,0.0394,-0.0109,-27.15,15.0,1.35,-3.63,-4.84,-7.62,0.625,0.25,-0.4375,-7.875,-5.875,21.25,242.125,-21.25,147.25,0,0.39099999999999824,9.694050863287236,0.051307017063945554,9.805994822556253,0.043178466855598285,9.729691670345982,0.8028270361665706
37.836,9.3015,2.3463,-1.549,0.0045,0.0139,-0.0093,-71.1,2.85,-44.25,9.7851,-0.0694,0.6009,-0.0061,0.0365,-0.0043,-25.65,15.3,2.1,-3.61,-4.82,-7.64,0.5625,0.125,-0.375,-7.875,-5.875,21.25,242.125,-21.25,147.25,0,0.40099999999999625,9.717120300788707,0.01731906463987013,9.803778821454511,0.03725520097919215,9.728005962169226,0.6875
37.845,9.2727,2.3104,-1.5562,-0.0218,0.0109,-0.0005,-71.1,2.85,-44.25,9.7731,0.0407,0.5507,-0.0123,0.0354,-0.0136,-27.9,15.3,2.1,-3.62,-4.84,-7.63,0.5625,0.25,-0.375,-7.875,-5.875,21.25,242.125,-21.25,147.25,0,0.4099999999999966,9.682079936150084,0.024378269011560275,9.78868788908912,0.03986740523284655,9.73380192935936,0.7207851621669248
37.855,9.2536,2.3224,-1.6161,-0.0218,0.0109,-0.0005,-71.7,3.9,-44.7,9.7731,0.0407,0.5507,0.0005,0.0296,-0.0117,-26.7,13.95,2.25,-3.63,-4.86,-7.59,0.625,0.25,-0.4375,-7.875,-5.875,21.25,242.125,-21.25,147.25,0,0.4199999999999946,9.676488719055069,0.024378269011560275,9.78868788908912,0.031832373458477774,9.716202962062907,0.8028270361665706
37.86,9.2536,2.3224,-1.6161,-0.0421,-0.0013,-0.0016,-71.7,3.9,-44.7,9.7276,-0.012,0.6009,0.0003,0.0274,-0.0101,-26.7,13.95,2.25,-3.63,-4.86,-7.59,0.625,0.25,-0.4375,-7.875,-7.0,21.25,242.125,-21.25,147.25,0,0.42499999999999716,9.676488719055069,0.04215044483751031,9.746149320116126,0.029203766880318713,9.716202962062907,0.8028270361665706
37.867,9.2368,2.308,-1.7023,-0.0528,0.0024,-0.0029,-69.45,2.7,-44.7,9.6917,-0.0575,0.6752,0.0152,0.0349,-0.0061,-26.7,13.95,2.25,-3.65,-4.84,-7.64,0.6875,0.0625,-0.25,-7.875,-7.0,21.25,242.125,-21.25,147.25,0,0.43199999999999505,9.67177147837975,0.0529340155287694,9.71536155683359,0.03855204274743428,9.75283035841391,0.7342087577794206
37.876,9.2871,2.3727,-1.6017,-0.0725,-0.0072,0.0056,-69.45,2.7,-44.7,9.7755,-0.0886,0.5555,-0.0056,0.0384,-0.0075,-26.7,13.95,2.25,-3.64,-4.85,-7.57,0.4375,0.0625,0.0,-7.875,-7.0,21.25,242.125,-21.25,147.25,0,0.4409999999999954,9.7183010135517,0.07307154028758392,9.791671484481084,0.03952429632517194,9.699329873759321,0.4419417382415922
37.885,9.2608,2.3774,-1.5299,-0.06,-0.0144,-0.0056,-70.35,4.5,-43.5,9.7779,-0.0886,0.5004,-0.0197,0.0362,-0.0085,-27.3,15.45,1.95,-3.61,-4.9,-7.59,0.25,0.1875,0.0625,-7.875,-7.0,21.25,242.125,-21.25,147.25,0,0.44999999999999574,9.682718699311677,0.06195740472292234,9.791096901266988,0.042080636877309736,9.72883343469298,0.31868871959954903
37.894,9.3637,2.3966,-1.4365,-0.0277,0.0045,-0.0024,-70.35,4.8,-43.8,9.7683,-0.1101,0.4693,-0.0224,0.0346,-0.0053,-27.3,14.4,1.5,-3.64,-4.85,-7.61,0.1875,0.0625,0.0,-7.875,-7.0,21.25,242.125,-21.25,147.25,0,0.4589999999999961,9.771699007849147,0.028165581833152317,9.780186572351266,0.04155730982631094,9.730580660988325,0.19764235376052372
37.899,9.3637,2.3966,-1.4365,-0.0277,0.0045,-0.0024,-70.35,4.8,-43.8,9.7683,-0.1101,0.4693,-0.0224,0.0346,-0.0053,-27.15,14.25,1.05,-3.64,-4.85,-7.61,0.1875,0.0625,0.0,-7.875,-7.0,21.25,242.125,-21.25,147.25,0,0.46399999999999864,9.771699007849147,0.028165581833152317,9.780186572351266,0.04155730982631094,9.730580660988325,0.19764235376052372
37.906,9.2847,2.3894,-1.3551,-0.0306,0.0003,0.0056,-71.25,2.7,-43.95,9.7252,-0.0168,0.6033,-0.0253,0.0389,-0.0059,-27.15,14.25,1.05,-3.64,-4.85,-7.62,0.0,0.1875,0.0625,-7.875,-7.0,21.25,242.125,-21.25,147.25,0,0.47099999999999653,9.682519427297835,0.03110964480671549,9.74390928580516,0.0467772380544213,9.738403359894269,0.19764235376052372
37.911,9.2847,2.3894,-1.3551,-0.0306,0.0003,0.0056,-71.25,2.7,-43.95,9.7252,-0.0168,0.6033,-0.0253,0.0389,-0.0059,-27.9,14.55,1.05,-3.64,-4.85,-7.62,0.125,0.1875,0.125,-7.0625,-6.1875,21.25,242.125,-21.25,147.25,0,0.4759999999999991,9.682519427297835,0.03110964480671549,9.74390928580516,0.0467772380544213,9.738403359894269,0.2576941016011038
37.917,9.3494,2.3942,-1.5179,-0.0165,0.0005,0.0037,-70.5,3.9,-43.65,9.833,0.0311,0.5243,-0.0258,0.037,-0.0013,-27.9,14.55,1.05,-3.61,-4.87,-7.59,0.125,0.1875,0.125,-7.0625,-6.1875,21.25,242.125,-21.25,147.25,0,0.4819999999999993,9.769723353810997,0.01691715106038839,9.847017147339594,0.0451257132907614,9.7137582840011,0.2576941016011038
37.926,9.2871,2.4612,-1.6472,-0.0171,-0.0067,0.0019,-71.1,2.1,-43.05,9.8067,-0.0599,0.6009,-0.0072,0.0253,-0.0109,-27.9,14.55,1.05,-3.63,-4.87,-7.63,0.125,0.375,0.125,-7.0625,-6.1875,21.25,242.125,-21.25,147.25,0,0.49099999999999966,9.747871546650583,0.018463748265181695,9.825275248561741,0.02847349644845185,9.75247148162967,0.414578098794425
37.935,9.2584,2.49,-1.6544,-0.0171,0.0005,0.0019,-72.3,4.5,-43.8,9.7013,-0.1676,0.7877,-0.0056,0.0224,-0.0104,-28.2,14.55,2.85,-3.63,-4.87,-7.62,0.0625,0.1875,0.125,-7.0625,-6.1875,21.25,242.125,-21.25,147.25,0,0.5,9.729085769999152,0.017212495461146823,9.73466911302074,0.02532350686615106,9.744649814128778,0.23385358667337133
37.944,9.2249,2.4588,-1.6017,-0.0354,-0.0024,0.0024,-72.3,4.5,-43.8,9.7612,-0.2107,0.6201,-0.0131,0.0245,-0.0072,-27.9,13.8,1.65,-3.62,-4.89,-7.61,0.0,0.125,0.125,-7.0625,-6.1875,21.25,242.125,-21.25,147.25,0,0.5090000000000003,9.680388439520389,0.035562339630569866,9.783145912230893,0.028700174215499114,9.743130913623197,0.1767766952966369
37.949,9.2249,2.4588,-1.6017,-0.0354,-0.0024,0.0024,-72.3,4.5,-43.8,9.7612,-0.2107,0.6201,-0.0131,0.0245,-0.0072,-27.9,12.75,0.6,-3.62,-4.89,-7.61,0.0,0.125,0.125,-7.0625,-6.1875,21.25,242.125,-21.25,147.25,0,0.5139999999999958,9.680388439520389,0.035562339630569866,9.783145912230893,0.028700174215499114,9.743130913623197,0.1767766952966369
37.956,9.2967,2.399,-1.5897,-0.053,0.0011,0.0067,-70.95,3.9,-43.65,9.7564,-0.1053,0.5243,-0.0125,0.0282,-0.0013,-27.15,14.55,1.05,-3.64,-4.84,-7.57,-0.125,0.1875,0.125,-7.0625,-6.1875,21.25,242.125,-21.25,147.25,0,0.5210000000000008,9.731956534017195,0.053433135786700746,9.771044956400518,0.03087361332918452,9.694333396371306,0.2576941016011038
37.961,9.3039,2.3439,-1.5155,-0.0458,0.0067,0.0067,-70.95,3.9,-43.65,9.7564,-0.1053,0.5243,-0.02,0.0296,-0.0075,-27.15,14.55,1.05,-3.64,-4.84,-7.57,-0.0625,0.25,0.0,-7.0625,-6.1875,21.6875,242.125,-21.25,147.25,0,0.5259999999999962,9.713555614191954,0.04676986209088071,9.771044956400518,0.03650219171501898,9.694333396371306,0.2576941016011038
37.967,9.3039,2.3439,-1.5155,-0.0458,0.0067,0.0067,-69.75,4.2,-44.4,9.7612,-0.0982,0.589,-0.0179,0.0336,-0.0096,-27.15,14.55,1.05,-3.63,-4.84,-7.61,-0.0625,0.25,0.0,-7.0625,-6.1875,21.6875,242.125,-21.25,147.25,0,0.5319999999999965,9.713555614191954,0.04676986209088071,9.779447309536465,0.03926232290631821,9.72186196157917,0.2576941016011038
37.976,9.3111,2.375,-1.5131,-0.0328,0.0061,0.0067,-72.3,3.3,-44.25,9.7707,0.0144,0.5315,-0.0269,0.0349,-0.0067,-27.15,14.55,1.05,-3.62,-4.86,-7.62,-0.0625,0.125,-0.0625,-7.0625,-6.1875,21.6875,242.125,-21.25,147.25,0,0.5409999999999968,9.727624572319801,0.034028517452278174,9.78515600795409,0.04457028157864834,9.735933442664859,0.15309310892394862
37.986,9.2967,2.2625,-1.4461,-0.0099,-0.0056,0.0045,-70.5,3.9,-43.2,9.7851,0.0982,0.4549,-0.0338,0.0325,-0.004,-27.0,13.95,1.2,-3.62,-4.87,-7.66,0.0625,0.1875,0.0625,-7.0625,-6.1875,21.6875,242.125,-21.25,147.25,0,0.5509999999999948,9.676711339602933,0.012231925441237778,9.796160434578438,0.04706049298509313,9.772251531760734,0.2072890493972125
37.994,9.3398,2.2458,-1.5251,0.0317,0.0093,-0.0032,-70.95,3.9,-43.95,9.7133,0.1053,0.5507,-0.0285,0.033,-0.0027,-27.15,15.0,1.35,-3.63,-4.89,-7.58,0.25,0.0625,0.125,-7.0625,-6.1875,21.6875,242.125,-21.25,147.25,0,0.5589999999999975,9.726325703470966,0.03319066133718941,9.729468406341635,0.04368684012377183,9.72344589124658,0.28641098093474
37.999,9.244,2.241,-1.6185,0.0224,-0.0061,-0.008,-70.95,3.9,-43.95,9.7133,0.1053,0.5507,-0.025,0.0408,-0.0019,-27.9,13.05,1.65,-3.63,-4.89,-7.58,0.25,0.0625,0.125,-7.0625,-6.1875,21.6875,242.125,-21.25,147.25,0,0.5640000000000001,9.648479634118527,0.024555447460797776,9.729468406341635,0.047887889909662966,9.72344589124658,0.28641098093474
38.007,9.244,2.241,-1.6185,0.0224,-0.0061,-0.008,-70.8,3.3,-44.55,9.7564,0.0168,0.6321,-0.025,0.0386,-0.0043,-27.15,13.8,0.3,-3.6,-4.9,-7.59,0.3125,-0.0625,0.3125,-7.0625,-6.1875,21.6875,242.125,-21.25,147.25,0,0.5719999999999956,9.648479634118527,0.024555447460797776,9.77686931537903,0.046189284471617444,9.725127248524824,0.44633927678392815
38.012,9.2344,2.2936,-1.7119,0.0104,0.0,-0.0024,-70.8,3.3,-44.55,9.742,-0.1652,0.6393,-0.0248,0.0277,-0.0093,-27.15,13.8,0.3,-3.6,-4.9,-7.59,0.1875,0.0,0.3125,-8.25,-6.5625,21.6875,242.125,-21.25,147.25,0,0.5769999999999982,9.667747717540006,0.010673331251301066,9.764351464895148,0.038325187540310876,9.725127248524824,0.3644344934278313
38.017,9.2344,2.2936,-1.7119,0.0104,0.0,-0.0024,-70.8,3.3,-44.55,9.742,-0.1652,0.6393,-0.0248,0.0277,-0.0093,-27.6,15.0,0.6,-3.58,-4.89,-7.59,0.1875,0.0,0.3125,-8.25,-6.5625,21.6875,242.125,-21.25,147.25,0,0.5820000000000007,9.667747717540006,0.010673331251301066,9.764351464895148,0.038325187540310876,9.712703022331116,0.3644344934278313
38.026,9.2584,2.3272,-1.7286,-0.0354,0.0051,0.0048,-71.25,3.45,-45.45,9.754,-0.2179,0.6416,-0.0325,0.0346,-0.0064,-27.6,15.0,0.6,-3.63,-4.83,-7.6,0.0,-0.0625,0.4375,-8.25,-6.5625,21.6875,242.125,-21.25,147.25,0,0.5910000000000011,9.701643590649988,0.0360861469264869,9.777507196110877,0.04789958246164574,9.709057626773054,0.4419417382415922
38.036,9.2919,2.3607,-1.6185,-0.0869,-0.0019,0.0173,-71.25,3.45,-45.45,9.7827,-0.1891,0.6129,-0.041,0.0328,-0.0029,-27.75,14.4,1.95,-3.64,-4.82,-7.62,0.0,0.1875,0.25,-8.25,-6.5625,21.6875,242.125,-21.25,147.25,0,0.6009999999999991,9.722749217685294,0.08862567348122101,9.803704631923587,0.05258564442887432,9.723497313209894,0.3125
38.044,9.3446,2.3966,-1.4557,-0.1202,-0.0157,0.0229,-71.7,3.9,-44.7,9.8378,-0.1317,0.5171,-0.0576,0.0376,0.0011,-27.75,14.4,1.95,-3.62,-4.83,-7.65,-0.0625,0.25,0.3125,-8.25,-6.5625,21.6875,242.125,-21.25,147.25,0,0.6089999999999947,9.756244318896488,0.1233650679892813,9.852260965890013,0.06879483992277327,9.74452666885365,0.4050462936504913
38.049,9.3374,2.2553,-1.5514,-0.1061,-0.0147,0.0184,-71.7,3.9,-44.7,9.8019,-0.0503,0.5148,-0.0589,0.0389,-0.0019,-27.6,15.0,0.0,-3.62,-4.83,-7.65,-0.0625,0.25,0.3125,-8.25,-6.5625,21.6875,242.125,-21.25,147.25,0,0.6139999999999972,9.730378143217251,0.10868238127681966,9.81553833164539,0.07061182620496372,9.74452666885365,0.4050462936504913
38.057,9.3446,2.2027,-1.5874,-0.0781,-0.008,0.0128,-71.55,4.8,-43.8,9.8019,-0.0503,0.5148,-0.0589,0.0389,-0.0019,-27.3,13.95,1.95,-3.63,-4.85,-7.63,0.125,0.125,0.25,-8.25,-6.5625,21.6875,242.125,-21.25,147.25,0,0.6219999999999999,9.731046973990003,0.07954527012965636,9.81553833164539,0.07061182620496372,9.742499679240435,0.30618621784789724
38.062,9.3446,2.2027,-1.5874,-0.0781,-0.008,0.0128,-71.55,4.8,-43.8,9.7659,0.0192,0.565,-0.053,0.0298,-0.0016,-27.3,13.95,1.95,-3.63,-4.85,-7.63,0.25,0.0625,0.25,-7.875,-6.1875,20.875,242.125,-21.25,147.25,0,0.6269999999999953,9.731046973990003,0.07954527012965636,9.782249048659517,0.06082433723436697,9.742499679240435,0.3590351654086268
38.067,9.3015,2.2721,-1.4748,-0.049,0.0112,0.0213,-71.55,2.85,-43.5,9.7659,0.0192,0.565,-0.0453,0.0264,-0.0037,-28.2,13.5,1.05,-3.61,-4.84,-7.62,0.25,0.0625,0.25,-7.875,-6.1875,20.875,242.125,-21.25,147.25,0,0.6319999999999979,9.687898415033057,0.054590566950710455,9.782249048659517,0.052561773181657404,9.722247682506344,0.3590351654086268
38.076,9.2727,2.3942,-1.549,-0.0376,0.0032,0.0149,-71.85,4.05,-43.8,9.7659,0.0407,0.5578,-0.0477,0.0285,-0.0059,-28.2,13.5,1.05,-3.62,-4.84,-7.63,0.4375,0.4375,0.3125,-7.875,-6.1875,20.875,242.125,-21.25,147.25,0,0.6409999999999982,9.70126589317085,0.04057104879097902,9.781901662764762,0.0558779920899096,9.73380192935936,0.6931585316505886
38.086,9.2536,2.4924,-1.5682,-0.0381,-0.0088,0.0176,-71.85,4.05,-43.8,9.8067,0.0144,0.6057,-0.033,0.0266,0.0,-26.7,13.95,1.2,-3.61,-4.87,-7.63,0.25,0.25,0.375,-7.875,-6.1875,20.875,242.125,-21.25,147.25,0,0.6509999999999962,9.710840435307338,0.04288134792657526,9.825397943086072,0.04238584669438609,9.745044894714441,0.5153882032022076
38.094,9.2536,2.4924,-1.5682,-0.0381,-0.0088,0.0176,-71.85,4.05,-43.8,9.7683,-0.0958,0.6105,-0.0125,0.0237,-0.0024,-26.7,13.95,1.2,-3.65,-4.83,-7.6,0.1875,0.3125,0.3125,-7.875,-6.1875,20.875,242.125,-21.25,147.25,0,0.6589999999999989,9.710840435307338,0.04288134792657526,9.787827786592896,0.02690167281044062,9.71655288669804,0.480071609241788
38.099,9.2823,2.4924,-1.585,-0.0432,-0.0059,0.0136,-70.35,4.05,-44.55,9.8282,-0.0742,0.6057,-0.0085,0.0245,0.0072,-29.85,13.95,0.45,-3.65,-4.83,-7.6,0.1875,0.3125,0.3125,-7.875,-6.1875,20.875,242.125,-21.25,147.25,0,0.6639999999999944,9.740912485491284,0.04567285846101599,9.847126147765145,0.02691356535281047,9.71655288669804,0.480071609241788
38.107,9.153,2.4852,-1.6927,-0.0506,-0.0069,0.0096,-70.35,4.05,-44.55,9.7564,-0.0527,0.6057,-0.016,0.0232,0.0008,-28.5,14.4,1.5,-3.64,-4.86,-7.61,0.1875,0.375,0.1875,-7.875,-6.1875,20.875,242.125,-21.25,147.25,0,0.671999999999997,9.634254580921143,0.05196277513759249,9.775325607876189,0.02819361629872975,9.735568807214092,0.4592793267718459
38.112,9.153,2.4852,-1.6927,-0.0506,-0.0069,0.0096,-70.35,4.05,-44.55,9.7564,-0.0527,0.6057,-0.016,0.0232,0.0008,-28.5,14.4,1.5,-3.64,-4.86,-7.61,0.0625,0.25,0.125,-7.875,-6.1875,20.875,242.125,-21.25,147.25,0,0.6769999999999996,9.634254580921143,0.05196277513759249,9.775325607876189,0.02819361629872975,9.735568807214092,0.28641098093474
38.117,9.2799,2.4397,-1.5395,-0.048,-0.0115,0.0061,-70.2,2.25,-45.15,9.7348,-0.0646,0.6057,-0.0218,0.0282,0.0005,-28.2,14.55,1.05,-3.65,-4.87,-7.59,0.0625,0.25,0.125,-7.875,-6.1875,20.875,242.125,-21.25,147.25,0,0.681999999999995,9.71795968040617,0.04973389186460276,9.75383907443628,0.035647300038011295,9.728694670920659,0.28641098093474
38.126,9.2703,2.4014,-1.5012,-0.0368,-0.0115,0.0024,-69.6,3.3,-44.85,9.6869,-0.0144,0.5171,-0.028,0.04,-0.0032,-27.15,13.8,1.65,-3.62,-4.9,-7.58,-0.125,0.4375,0.125,-7.875,-6.1875,20.875,242.125,-21.25,147.25,0,0.6909999999999954,9.69323400573823,0.038629651823437396,9.700702623006233,0.04893097178679369,9.72475192485649,0.47186465220442186
38.136,9.3015,2.1907,-1.4317,-0.0445,-0.0107,0.0037,-70.35,3.6,-43.8,9.8474,-0.0383,0.4717,-0.0373,0.0397,-0.0075,-27.15,13.8,1.65,-3.59,-4.85,-7.62,0.0,0.375,0.125,-7.875,-6.1875,20.875,242.125,-21.25,147.25,0,0.7010000000000005,9.66265148031326,0.045917643667766746,9.858765365906626,0.05498754404408329,9.719825101307121,0.39528470752104744
38.144,9.3374,2.138,-1.6328,-0.0184,-0.0099,0.0069,-70.35,3.6,-43.8,9.8474,-0.0383,0.4717,-0.0253,0.0354,0.0011,-27.6,15.0,0.6,-3.64,-4.83,-7.63,-0.1875,0.3125,0.1875,-7.875,-6.1875,20.875,242.125,-21.25,147.25,0,0.7089999999999961,9.71720734573468,0.022004090528808504,9.858765365906626,0.04352539488620408,9.736292929036184,0.409839907768875
38.149,9.3374,2.138,-1.6328,-0.0184,-0.0099,0.0069,-70.2,3.9,-44.4,9.7827,-0.0527,0.5363,-0.0234,0.0365,0.0024,-27.6,15.0,0.6,-3.64,-4.83,-7.63,-0.1875,0.3125,0.1875,-7.875,-6.1875,20.875,242.125,-21.25,147.25,0,0.7139999999999986,9.71720734573468,0.022004090528808504,9.797531029295085,0.04342315050753457,9.736292929036184,0.409839907768875
38.157,9.335,2.2817,-1.6376,0.0109,0.0272,-0.0013,-71.55,4.05,-44.85,9.7851,-0.0263,0.4956,-0.0189,0.0413,0.0008,-27.75,13.65,1.5,-3.63,-4.83,-7.63,-0.25,0.3125,0.25,-7.875,-6.1875,20.875,242.125,-21.25,147.25,0,0.7219999999999942,9.74833902005875,0.029331552976274544,9.797677942247336,0.04542620389158663,9.732558759134209,0.47186465220442186
38.162,9.3254,2.2769,-1.7023,0.0109,0.0272,-0.0013,-71.55,4.05,-44.85,9.7851,-0.0263,0.4956,-0.0189,0.0413,0.0008,-27.75,13.65,1.5,-3.63,-4.83,-7.63,-0.0625,0.1875,0.1875,-9.0,-6.5625,21.6875,242.125,-21.25,147.25,0,0.7269999999999968,9.749111962635366,0.029331552976274544,9.797677942247336,0.04542620389158663,9.732558759134209,0.2724311839712921
38.167,9.3254,2.2769,-1.7023,-0.0147,0.0088,0.0037,-71.25,4.2,-44.4,9.7564,-0.0239,0.5411,-0.0077,0.033,-0.0005,-27.15,14.25,1.35,-3.61,-4.88,-7.62,-0.0625,0.1875,0.1875,-9.0,-6.5625,21.6875,242.125,-21.25,147.25,0,0.7319999999999993,9.749111962635366,0.01752769237521015,9.771422689659882,0.0338901165533552,9.742222539030815,0.2724311839712921
38.176,9.2871,2.3152,-1.664,-0.032,0.0069,0.0109,-71.25,4.2,-44.4,9.6941,-0.182,0.6536,0.0056,0.032,-0.0035,-27.75,13.65,0.75,-3.64,-4.82,-7.61,-0.0625,0.3125,0.25,-9.0,-6.5625,21.6875,242.125,-21.25,147.25,0,0.7409999999999997,9.714899559439614,0.03450246368014899,9.717813116643066,0.0326743018288073,9.715662612503586,0.4050462936504913
38.186,9.2775,2.4229,-1.6975,-0.0514,-0.0083,0.0149,-69.6,4.05,-44.25,9.7995,-0.1245,0.6105,0.0059,0.0408,0.0083,-27.75,13.65,0.75,-3.62,-4.84,-7.64,0.125,0.0625,0.0625,-9.0,-6.5625,21.6875,242.125,-21.25,147.25,0,0.7509999999999977,9.737759337239753,0.05415588610668281,9.81928769056086,0.04205163492659947,9.741642571969061,0.15309310892394862
38.194,9.3565,2.4684,-1.652,-0.0759,-0.0021,0.0163,-69.6,4.05,-44.25,9.7827,-0.0192,0.5148,-0.0149,0.04,-0.0021,-27.75,13.65,1.5,-3.61,-4.86,-7.62,0.1875,-0.1875,0.1875,-9.0,-6.5625,21.6875,242.125,-21.25,147.25,0,0.7590000000000003,9.816628484871982,0.07765893380674241,9.796254741991962,0.04273663533784568,9.732219685148912,0.3247595264191645
38.199,9.3565,2.4684,-1.652,-0.0759,-0.0021,0.0163,-70.35,4.05,-43.8,9.7827,-0.0192,0.5148,-0.0149,0.04,-0.0021,-27.75,13.65,1.5,-3.61,-4.86,-7.62,0.1875,-0.1875,0.1875,-9.0,-6.5625,21.6875,242.125,-21.25,147.25,0,0.7639999999999958,9.816628484871982,0.07765893380674241,9.796254741991962,0.04273663533784568,9.732219685148912,0.3247595264191645
38.207,9.2703,2.4325,-1.5682,-0.0685,-0.0179,0.0104,-70.5,3.9,-43.95,9.7516,0.0551,0.5555,-0.0187,0.0373,0.0053,-27.6,15.0,1.05,-3.63,-4.85,-7.64,0.1875,-0.125,0.0625,-9.0,-6.5625,21.6875,242.125,-21.25,147.25,0,0.7719999999999985,9.711579149654295,0.0715599049747832,9.767564630960985,0.042060313836204316,9.750333327635522,0.23385358667337133
38.212,9.2967,2.4349,-1.5562,-0.0581,-0.0144,0.0083,-70.5,3.9,-43.95,9.7516,0.0551,0.5555,-0.0282,0.0541,0.0069,-27.15,13.8,2.4,-3.63,-4.85,-7.64,0.125,0.125,0.0625,-7.5,-5.875,20.75,242.125,-21.25,147.25,0,0.777000000000001,9.735457222955684,0.06043062137691453,9.767564630960985,0.06139755695465415,9.750333327635522,0.1875
38.217,9.2967,2.4349,-1.5562,-0.0581,-0.0144,0.0083,-70.8,4.8,-44.55,9.7516,0.1077,0.5363,-0.0298,0.0581,0.0091,-27.15,13.8,2.4,-3.63,-4.86,-7.63,0.125,0.125,0.0625,-7.5,-5.875,20.75,242.125,-21.25,147.25,0,0.7819999999999965,9.735457222955684,0.06043062137691453,9.766929893267383,0.06592768765852478,9.747481726066482,0.1875
38.227,9.3565,2.3535,-1.4461,-0.0373,-0.008,0.0027,-70.35,1.35,-43.5,9.7803,0.1173,0.486,-0.0368,0.0533,0.0077,-28.2,15.0,0.6,-3.61,-4.87,-7.62,0.125,-0.1875,0.1875,-7.5,-5.875,20.75,242.125,-21.25,147.25,0,0.7919999999999945,9.755729583685682,0.03824369229036339,9.793070171299703,0.06522591509515217,9.737217261620488,0.29315098498896436
38.236,9.335,2.2793,-1.4413,-0.0261,-0.0253,-0.0088,-70.8,3.3,-44.85,9.754,-0.091,0.5483,-0.0445,0.0394,0.0101,-28.2,15.0,0.6,-3.62,-4.9,-7.6,0.1875,0.0,0.25,-7.5,-5.875,20.75,242.125,-21.25,147.25,0,0.8009999999999948,9.716726772941596,0.03739973261936508,9.769822408314289,0.06028780971307549,9.740349069720244,0.3125
38.244,9.2608,2.1811,-1.4269,-0.016,-0.0203,-0.008,-70.8,3.3,-44.85,9.7181,-0.1077,0.6081,-0.0203,0.0362,0.0069,-28.2,15.0,0.6,-3.63,-4.85,-7.65,-0.0625,-0.0625,0.3125,-7.5,-5.875,20.75,242.125,-21.25,147.25,0,0.8089999999999975,9.620585089276014,0.027057161713675733,9.737702629984138,0.04207303174243568,9.758170935170178,0.3247595264191645
38.249,9.3039,2.2673,-1.5969,-0.0061,-0.0051,-0.0093,-70.8,3.3,-44.85,9.7181,-0.1077,0.6081,-0.0203,0.0362,0.0069,-28.2,15.0,0.6,-3.63,-4.85,-7.65,-0.0625,-0.0625,0.3125,-7.5,-5.875,20.75,242.125,-21.25,147.25,0,0.8140000000000001,9.708413573287864,0.012235603785674003,9.737702629984138,0.04207303174243568,9.758170935170178,0.3247595264191645
38.257,9.3039,2.2673,-1.5969,-0.0061,-0.0051,-0.0093,-70.95,3.45,-41.7,9.7109,-0.1341,0.6512,-0.0213,0.0394,0.0147,-27.75,13.2,1.5,-3.63,-4.86,-7.6,0.0,-0.0625,0.3125,-7.5,-5.875,20.75,242.125,-21.25,147.25,0,0.8219999999999956,9.708413573287864,0.012235603785674003,9.733633600048854,0.047139579972672645,9.724016659796506,0.31868871959954903
38.262,9.2368,2.399,-1.6616,-0.0256,-0.0437,-0.0045,-70.95,3.45,-41.7,9.7875,-0.091,0.6464,-0.028,0.0365,0.0051,-27.0,14.4,2.55,-3.63,-4.86,-7.6,-0.3125,0.125,0.125,-7.5,-6.5625,21.6875,242.125,-21.25,147.25,0,0.8269999999999982,9.68682557910485,0.05084584545466817,9.809244120216398,0.0462845546591949,9.724016659796506,0.3590351654086268
38.267,9.3111,2.4517,-1.6209,-0.0256,-0.0437,-0.0045,-70.2,2.7,-44.4,9.7875,-0.091,0.6464,-0.028,0.0365,0.0051,-27.0,14.4,2.55,-3.64,-4.84,-7.63,-0.3125,0.125,0.125,-7.5,-6.5625,21.6875,242.125,-21.25,147.25,0,0.8320000000000007,9.76395068146086,0.05084584545466817,9.809244120216398,0.0462845546591949,9.741257619014087,0.3590351654086268
38.277,9.3781,2.4708,-1.6089,-0.0586,0.0029,-0.0032,-72.0,3.45,-42.45,9.7803,-0.0646,0.6847,-0.0016,0.0301,0.0061,-28.8,13.2,3.3,-3.67,-4.85,-7.58,-0.3125,0.1875,0.1875,-7.5,-6.5625,21.6875,242.125,-21.25,147.25,0,0.8419999999999987,9.830675025653122,0.05875891421733386,9.804450792369758,0.03075353638201629,9.718425798451106,0.409839907768875
38.286,9.3661,2.375,-1.5131,-0.06,-0.0509,-0.0005,-70.35,3.3,-43.5,9.7229,-0.1437,0.6608,0.0093,0.0344,0.0091,-28.5,14.4,1.95,-3.65,-4.87,-7.62,-0.3125,0.375,0.0,-7.5,-6.5625,21.6875,242.125,-21.25,147.25,0,0.8509999999999991,9.780282502054835,0.07868328920425226,9.746388599886625,0.03677852634350648,9.752117718731661,0.4881406047441659
38.295,9.3661,2.375,-1.5131,-0.0714,-0.0597,-0.0037,-70.35,3.3,-43.5,9.7731,-0.1532,0.6129,0.0024,0.0634,0.0029,-28.5,14.4,1.95,-3.61,-4.88,-7.59,-0.75,0.0,-0.125,-7.5,-6.5625,21.6875,242.125,-21.25,147.25,0,0.8599999999999994,9.780282502054835,0.09314365249441317,9.793497856230939,0.06351165247417201,9.718775643052988,0.7603453162872774
38.3,9.3613,2.2601,-1.4389,-0.0538,-0.0413,-0.0083,-69.75,3.45,-43.95,9.7731,-0.1532,0.6129,-0.0179,0.029,-0.0013,-28.5,14.4,1.95,-3.61,-4.88,-7.59,-0.75,0.0,-0.125,-7.5,-6.5625,21.6875,242.125,-21.25,147.25,0,0.8649999999999949,9.737167088532475,0.06833022757169772,9.793497856230939,0.03410425193432631,9.718775643052988,0.7603453162872774
38.307,9.2919,2.1572,-1.6233,-0.0256,-0.0362,-0.0131,-70.95,2.7,-43.65,9.8521,-0.1556,0.5746,-0.0179,0.029,-0.0013,-29.7,15.75,2.4,-3.6,-4.88,-7.55,-1.1875,0.0625,0.0625,-7.5,-6.5625,21.6875,242.125,-21.25,147.25,0,0.8719999999999999,9.676157312693919,0.046232131683494763,9.870068435932955,0.03410425193432631,9.683847375914182,1.190784930203603
38.312,9.2919,2.1572,-1.6233,-0.0256,-0.0362,-0.0131,-70.95,2.7,-43.65,9.7133,-0.1867,0.6177,-0.0171,0.0069,-0.0013,-27.75,15.45,3.0,-3.6,-4.88,-7.55,-1.25,0.4375,0.0625,-8.25,-6.5625,21.25,242.125,-21.25,147.25,0,0.8769999999999953,9.676157312693919,0.046232131683494763,9.734711452837214,0.018485399644043405,9.683847375914182,1.3258252147247767
38.318,9.2536,2.1596,-1.4581,-0.0117,-0.025,-0.0147,-70.95,2.7,-43.65,9.7133,-0.1867,0.6177,-0.0171,0.0069,-0.0013,-27.75,15.45,3.0,-3.59,-4.88,-7.64,-1.25,0.4375,0.0625,-8.25,-6.5625,21.25,242.125,-21.25,147.3125,0,0.8829999999999956,9.613482237462136,0.031272671775849276,9.734711452837214,0.018485399644043405,9.750492295263866,1.3258252147247767
38.327,9.3948,2.229,-1.4006,-0.0155,-0.0157,-0.0099,-70.2,4.2,-43.2,9.7085,-0.1317,0.589,-0.0083,0.0573,0.004,-28.5,16.2,1.2,-3.65,-4.86,-7.6,-1.125,0.375,0.1875,-8.25,-6.5625,21.25,242.125,-21.25,147.3125,0,0.8919999999999959,9.756658669852092,0.024181604578687493,9.727242062373076,0.05803602329588063,9.731500398191432,1.200585794518659
38.336,9.2703,2.15,-1.5395,-0.0261,-0.0456,-0.0059,-70.2,4.2,-43.2,9.7205,-0.1604,0.656,-0.0197,0.0778,-0.0101,-29.7,14.25,1.05,-3.62,-4.86,-7.65,-0.8125,0.6875,0.125,-8.25,-6.5625,21.25,242.125,-21.25,147.3125,0,0.9009999999999962,9.640073772539296,0.052871353302142744,9.743930644765488,0.08088844169595553,9.759431335892476,1.0716517624676405
38.346,9.1506,2.2984,-1.652,-0.0226,0.0064,-0.0011,-70.2,4.2,-43.2,9.7468,-0.1341,0.6057,-0.0109,0.0584,-0.0125,-29.7,14.25,1.05,-3.63,-4.84,-7.62,-0.5,1.1875,0.125,-8.25,-6.5625,21.25,242.125,-21.1875,147.3125,0,0.9109999999999943,9.578372874345623,0.023514463634112515,9.766522694388215,0.0607093073589215,9.729691670345982,1.2945196985754988
38.352,9.1506,2.2984,-1.652,-0.0226,0.0064,-0.0011,-70.2,1.5,-43.95,9.742,-0.1317,0.6488,0.0077,0.0544,-0.0051,-28.5,13.65,2.25,-3.63,-4.84,-7.62,-0.3125,0.625,0.0625,-8.25,-6.5625,21.25,242.125,-21.1875,147.3125,0,0.9169999999999945,9.578372874345623,0.023514463634112515,9.764468768448186,0.05517843781768382,9.729691670345982,0.701560760020114
38.358,9.3111,2.4852,-1.5897,-0.012,0.0312,-0.0072,-71.25,2.25,-44.4,9.7205,-0.0096,0.5818,-0.004,0.057,-0.0112,-28.5,13.65,2.25,-3.63,-4.85,-7.6,-0.3125,0.625,0.0625,-8.25,-6.5625,21.25,242.125,-21.1875,147.3125,0,0.9229999999999947,9.767289713118988,0.03419473643706002,9.737900371743386,0.0582274849190655,9.719022584601808,0.701560760020114
38.363,9.3111,2.4852,-1.5897,-0.012,0.0312,-0.0072,-71.25,2.25,-44.4,9.7205,-0.0096,0.5818,-0.004,0.057,-0.0112,-27.75,15.45,0.75,-3.63,-4.88,-7.58,-0.125,0.375,0.0625,-7.5,-6.5625,20.875,242.125,-21.1875,147.3125,0,0.9279999999999973,9.767289713118988,0.03419473643706002,9.737900371743386,0.0582274849190655,9.718420653583586,0.40019526483955303
38.368,9.268,2.4086,-1.4964,-0.0322,0.0242,-0.0136,-70.5,4.65,-42.9,9.6869,0.0886,0.5459,0.0011,0.0613,-0.0109,-27.75,15.45,0.75,-3.63,-4.88,-7.58,-0.125,0.375,0.0625,-7.5,-6.5625,20.875,242.125,-21.1875,147.3125,0,0.9329999999999998,9.692078771863136,0.04251399769487692,9.702674290111979,0.06227126142933031,9.718420653583586,0.40019526483955303
38.377,9.3326,2.32,-1.5538,-0.0064,0.0402,-0.029,-70.5,4.65,-42.9,9.6869,0.0886,0.5459,0.0157,0.0813,-0.0168,-27.6,14.25,0.3,-3.63,-4.87,-7.56,-0.125,0.125,0.0625,-7.5,-6.5625,20.875,242.125,-21.1875,147.3125,0,0.9420000000000002,9.741361157456385,0.0499799959983992,9.702674290111979,0.0844891709037318,9.69780387510492,0.1875
38.387,9.2991,2.2266,-1.6089,0.0107,0.024,-0.0352,-68.85,4.8,-44.85,9.7683,-0.1101,0.5315,-0.0069,0.0506,-0.0117,-28.8,15.45,3.3,-3.63,-4.86,-7.63,0.125,0.5,-0.0625,-7.5,-6.5625,20.875,242.125,-21.1875,147.3125,0,0.9519999999999982,9.696368783209516,0.043926415742694055,9.783368497097511,0.052391411509903035,9.747481726066482,0.5191639914323797
38.397,9.2703,2.2721,-1.6041,0.012,0.032,-0.04,-68.85,4.8,-44.85,9.7803,-0.1532,0.5626,-0.0248,0.0528,-0.0173,-28.2,13.8,2.4,-3.59,-4.85,-7.62,0.0,0.0625,0.0,-7.5,-6.5625,20.875,242.125,-21.1875,147.3125,0,0.9619999999999962,9.678534874142885,0.05261178575186362,9.7976659001009,0.06084545997853907,9.719825101307121,0.0625
38.407,9.1889,2.2673,-1.6999,0.0234,0.0163,-0.0346,-71.7,5.4,-45.15,9.7181,-0.1413,0.5459,-0.028,0.024,-0.0117,-28.2,13.8,2.4,-3.62,-4.82,-7.63,-0.1875,-0.3125,-0.125,-7.5,-6.5625,20.875,242.125,-21.1875,147.3125,0,0.9719999999999942,9.6159343025002,0.04483759583206932,9.734446060767915,0.03868966270207069,9.723872685303936,0.385275875185561
38.412,9.1985,2.3918,-1.6999,0.0234,0.0163,-0.0346,-71.7,5.4,-45.15,9.7181,-0.1413,0.5459,-0.028,0.024,-0.0117,-28.05,15.15,2.25,-3.62,-4.82,-7.63,-0.375,-0.5,0.0,-8.25,-6.1875,20.5,242.125,-21.1875,147.3125,0,0.9769999999999968,9.655193913122615,0.04483759583206932,9.734446060767915,0.03868966270207069,9.723872685303936,0.625
38.418,9.1985,2.3918,-1.6999,0.0301,0.0373,-0.0274,-69.6,4.5,-44.85,9.7037,0.0168,0.6153,-0.0402,0.0304,-0.0109,-28.05,15.15,2.25,-3.65,-4.85,-7.61,-0.375,-0.5,0.0,-8.25,-6.1875,20.5,242.125,-21.1875,147.3125,0,0.982999999999997,9.655193913122615,0.05520923835736189,9.723202662703272,0.05156558930139362,9.734325862636817,0.625
38.427,9.2991,2.4948,-1.5826,0.0344,0.0155,-0.0314,-69.6,4.5,-44.85,9.7659,0.1508,0.4405,-0.0552,0.0258,-0.0021,-28.95,15.0,1.65,-3.63,-4.88,-7.58,-0.5,-0.5,0.0,-8.25,-6.1875,20.5,242.125,-21.1875,147.3125,0,0.9919999999999973,9.75714664284595,0.049087371084628274,9.776992569292462,0.060967942395983805,9.718420653583586,0.7071067811865476
38.437,9.3278,2.5115,-1.5826,0.0274,0.0061,-0.0341,-72.0,3.9,-42.9,9.7229,0.1077,0.4405,-0.036,0.0221,-0.0109,-28.2,15.0,1.35,-3.64,-4.9,-7.6,-0.625,-0.0625,0.0,-8.25,-6.1875,20.5,242.125,-21.1875,147.3125,0,1.0019999999999953,9.788774583674915,0.04416763520950606,9.733469265888704,0.043625909732634804,9.747799751738851,0.6281172263200556
38.445,9.2967,2.3798,-1.4174,0.0426,-0.0208,-0.0402,-72.3,3.6,-42.75,9.663,-0.0215,0.4956,0.0,0.024,-0.0131,-27.6,15.3,2.1,-3.61,-4.86,-7.63,-0.6875,0.25,0.0625,-8.25,-6.1875,20.5,242.125,-21.1875,147.3125,0,1.009999999999998,9.700572235182829,0.06215657648229993,9.67572481057621,0.027342457826610978,9.74005133456698,0.7342087577794206
38.45,9.2368,2.3415,-1.5155,0.0426,-0.0208,-0.0402,-71.55,3.6,-42.75,9.663,-0.0215,0.4956,0.0,0.024,-0.0131,-27.6,15.3,2.1,-3.61,-4.86,-7.63,-0.6875,0.25,0.0625,-8.25,-6.1875,20.5,242.125,-21.1875,147.3125,0,1.0150000000000006,9.648722026258193,0.06215657648229993,9.67572481057621,0.027342457826610978,9.74005133456698,0.7342087577794206
38.458,9.2368,2.3415,-1.5155,0.0765,0.0043,-0.0485,-70.35,2.85,-43.5,9.7348,-0.1772,0.5794,0.0101,0.0381,-0.016,-27.6,15.3,2.1,-3.6,-4.88,-7.63,-0.5625,0.6875,-0.0625,-8.25,-6.1875,20.5,242.125,-21.1875,147.3125,0,1.0229999999999961,9.648722026258193,0.09068070357027452,9.753637026258462,0.04253962858323989,9.746348034007404,0.8904879280484379
38.463,9.3254,2.3439,-1.5921,0.0863,-0.0077,-0.0461,-70.35,2.85,-43.5,9.7348,-0.1772,0.5794,0.0101,0.0381,-0.016,-28.2,14.55,1.05,-3.6,-4.88,-7.63,-0.375,0.75,-0.125,-8.25,-6.1875,22.0625,242.125,-21.1875,147.3125,0,1.0279999999999987,9.746370338746626,0.09814372114404467,9.753637026258462,0.04253962858323989,9.746348034007404,0.8477912478906585
38.468,9.3254,2.3439,-1.5921,0.0863,-0.0077,-0.0461,-69.6,2.85,-43.5,9.7851,-0.2801,0.589,0.0088,0.0349,-0.0168,-28.95,13.8,1.35,-3.59,-4.84,-7.63,-0.375,0.75,-0.125,-8.25,-6.1875,22.0625,242.125,-21.1875,147.3125,0,1.0330000000000013,9.746370338746626,0.09814372114404467,9.806811868288285,0.03972014602188668,9.722684814391547,0.8477912478906585
38.477,9.3518,2.3296,-1.6783,0.0885,-0.0013,-0.0429,-69.6,2.85,-43.5,9.833,-0.3352,0.656,0.0346,0.0157,-0.0152,-28.95,13.8,1.35,-3.62,-4.85,-7.65,-0.75,0.3125,-0.0625,-8.25,-6.1875,22.0625,242.125,-21.1875,147.3125,0,1.0419999999999945,9.782632073731486,0.09835827367334178,9.86055698426818,0.04092297643133989,9.754455392281008,0.8149003006503311
38.487,9.335,2.3056,-1.8004,0.0682,-0.0573,-0.036,-69.6,2.85,-43.5,9.7875,-0.4166,0.6057,0.0368,-0.0005,-0.0179,-28.2,14.25,2.1,-3.63,-4.84,-7.63,-1.0625,-0.0625,0.0,-8.25,-6.1875,22.0625,242.125,-21.1875,147.3125,0,1.0519999999999996,9.78260990329268,0.09607564727858979,9.815069245807694,0.040925542146683896,9.737525352983683,1.0643366478704002
38.497,9.3039,2.3104,-1.7693,0.0362,0.0152,-0.0258,-69.15,4.5,-42.3,9.6941,-0.3519,0.6823,0.0168,0.0085,-0.0165,-28.65,14.55,2.1,-3.66,-4.82,-7.63,-0.9375,-0.125,-0.1875,-8.25,-6.1875,22.0625,242.125,-21.1875,147.3125,0,1.0619999999999976,9.74838067886149,0.04697999574286912,9.724450715078977,0.0250347758128568,9.738834632542027,0.9642030387838445
38.506,9.323,2.3846,-1.719,0.0546,0.0125,-0.0197,-71.25,3.45,-43.2,9.6558,-0.2705,0.5794,-0.0242,0.0554,-0.0298,-28.2,14.25,2.1,-3.61,-4.83,-7.63,1.125,0.3125,-0.4375,-8.25,-6.1875,22.0625,242.125,-21.1875,147.3125,0,1.070999999999998,9.775459434727352,0.05937592104548779,9.676949325588101,0.06740059346919729,9.725116965877582,1.2468710839537502
38.511,9.1028,2.2936,-1.5706,0.0738,0.0091,-0.0125,-70.2,4.95,-41.1,9.6558,-0.2705,0.5794,-0.0242,0.0554,-0.0298,-28.2,14.25,2.1,-3.61,-4.83,-7.63,1.125,0.3125,-0.4375,-7.0625,-6.5625,20.0625,242.125,-21.1875,147.3125,0,1.0760000000000005,9.517791401370383,0.07540225460820121,9.676949325588101,0.06740059346919729,9.725116965877582,1.2468710839537502
38.517,9.1842,2.3176,-1.4653,0.0738,0.0091,-0.0125,-70.2,4.95,-41.1,9.7468,-0.1269,0.4908,-0.0117,0.1402,-0.0386,-28.65,14.55,1.35,-3.6,-4.79,-7.68,1.1875,-0.4375,-0.5,-7.0625,-6.5625,20.0625,242.125,-21.1875,147.3125,0,1.0820000000000007,9.584774566467383,0.07540225460820121,9.75997430785553,0.14588656552266902,9.740970177554184,1.3607213160673275
38.527,9.3901,2.2482,-1.5538,0.1074,0.1202,-0.0083,-70.5,3.9,-42.45,9.8904,-0.0024,0.4741,0.0072,0.0658,-0.0328,-27.3,12.9,0.75,-3.62,-4.86,-7.65,0.625,-1.5625,-0.4375,-7.0625,-6.5625,20.0625,242.125,-21.1875,147.3125,0,1.0919999999999987,9.779707341735744,0.16140535926666127,9.90175685068059,0.07387367596106206,9.759431335892476,1.7388034679054445
38.537,9.3972,2.2482,-1.6376,0.1631,0.1021,-0.0136,-69.6,2.1,-44.25,9.6917,-0.0479,0.4741,0.012,0.0187,-0.0288,-26.85,15.3,2.4,-3.61,-4.87,-7.61,1.375,-1.25,-0.4375,-7.0625,-6.5625,20.0625,242.125,-21.25,147.3125,0,1.1019999999999968,9.800178816735947,0.19290147744379768,9.703407345360702,0.036374853951596835,9.729393609059096,1.909065543662658
38.545,9.3972,2.2482,-1.6376,0.1631,0.1021,-0.0136,-71.25,2.7,-43.65,9.6438,-0.1844,0.6033,0.04,0.0767,-0.0485,-26.85,15.3,2.4,-3.62,-4.84,-7.61,1.5,-0.875,-0.25,-7.0625,-6.5625,20.0625,242.125,-21.25,147.25,0,1.1099999999999994,9.800178816735947,0.19290147744379768,9.664411657726507,0.09917227435125203,9.718132536655384,1.7544586059522749
38.55,9.2296,2.2146,-1.6257,0.1692,0.1066,-0.0245,-71.25,2.7,-43.65,9.6438,-0.1844,0.6033,0.0442,0.0655,-0.0418,-26.7,14.4,0.75,-3.62,-4.84,-7.61,1.5,-0.875,-0.25,-7.0625,-6.5625,20.0625,242.125,-21.25,147.25,0,1.1149999999999949,9.629790745909279,0.20147568091459575,9.664411657726507,0.08939312054067695,9.718132536655384,1.7544586059522749
38.558,9.2296,2.2745,-1.6616,0.1676,0.1154,-0.0266,-71.25,2.7,-43.65,9.7707,-0.3639,0.5962,0.0405,0.0648,-0.0453,-26.7,14.4,0.75,-3.63,-4.81,-7.62,0.875,-0.9375,-0.3125,-7.0625,-6.5625,20.0625,242.125,-21.25,147.25,0,1.1229999999999976,9.649859116588178,0.20521812785424196,9.795634545040969,0.08883343964971749,9.71480313748045,1.3199195051214296
38.563,9.2296,2.2745,-1.6616,0.1676,0.1154,-0.0266,-70.8,3.6,-43.05,9.7109,-0.4884,0.5363,0.0016,0.0304,-0.0405,-26.7,14.4,0.75,-3.63,-4.81,-7.62,0.0625,-0.875,-0.4375,-7.0625,-5.875,22.5,242.125,-21.25,147.25,0,1.1280000000000001,9.649859116588178,0.20521812785424196,9.737953124758818,0.05066527410366986,9.71480313748045,0.9802741963348827
38.568,9.1889,2.2075,-1.6424,0.1074,0.0581,-0.0171,-70.8,3.6,-43.05,9.7109,-0.4884,0.5363,0.0016,0.0304,-0.0405,-27.15,15.3,1.35,-3.66,-4.84,-7.59,0.0625,-0.875,-0.4375,-7.0625,-5.875,22.5,242.125,-21.25,147.25,0,1.1329999999999956,9.591997561509281,0.12329955393268865,9.737953124758818,0.05066527410366986,9.71747395159874,0.9802741963348827
38.577,9.3374,2.2194,-1.8148,0.1063,0.0282,-0.0131,-70.35,2.85,-43.5,9.6007,-0.4214,0.6033,0.0008,0.0325,-0.0402,-26.85,12.75,3.45,-3.65,-4.83,-7.56,-0.625,-0.4375,-0.5,-7.0625,-5.875,22.5,242.125,-21.25,147.25,0,1.141999999999996,9.767613534533398,0.1107544130046293,9.628862307666466,0.05170038684574808,9.685298136867033,0.9121574699579015
38.587,9.2201,2.2601,-1.6616,0.1039,0.0139,0.0072,-72.0,3.9,-45.15,9.7588,-0.1293,0.6369,0.0083,0.0522,-0.0485,-28.65,13.5,2.1,-3.7,-4.84,-7.61,-0.5,0.5,-0.8125,-7.0625,-5.875,22.5,242.125,-21.25,147.25,0,1.152000000000001,9.637386086486314,0.10507264153908,9.780416020804024,0.07173548633695878,9.748215221259736,1.0771054962258804
38.597,9.4092,2.4445,-1.7765,0.13,0.0264,0.0264,-70.8,3.3,-44.25,9.7468,0.2562,0.5171,0.0184,0.0618,-0.0474,-27.75,15.15,1.5,-3.62,-4.87,-7.61,-0.6875,1.9375,-1.25,-7.0625,-5.875,22.5,242.125,-21.25,147.25,0,1.161999999999999,9.882539002705732,0.13525501839118578,9.763869165960799,0.08002849492524522,9.733108444890563,2.4060470693650196
38.606,9.2033,2.545,-1.6735,0.1362,0.0258,0.0173,-69.6,2.85,-43.5,9.7947,0.2179,0.486,0.0386,0.06,-0.0509,-27.75,15.15,1.5,-3.62,-4.84,-7.66,-0.9375,2.6875,-1.3125,-7.0625,-5.875,22.5,242.125,-21.1875,147.3125,0,1.1709999999999994,9.694243556874358,0.1396974230256235,9.809170428736572,0.08764000228206295,9.757335701921914,3.1343609795299585
38.611,9.2033,2.545,-1.6735,0.1362,0.0258,0.0173,-69.45,2.25,-43.95,9.6726,0.0335,0.5411,0.0778,0.0317,-0.0448,-27.75,15.15,1.5,-3.62,-4.84,-7.66,-0.9375,2.6875,-1.3125,-7.0625,-5.875,22.5,242.125,-21.1875,147.3125,0,1.1759999999999948,9.694243556874358,0.1396974230256235,9.687781078244903,0.09520908570089306,9.757335701921914,3.1343609795299585
38.616,9.1435,2.466,-1.798,0.1239,0.0421,0.0088,-69.45,2.25,-43.95,9.6726,0.0335,0.5411,0.0778,0.0317,-0.0448,-27.75,15.15,1.5,-3.55,-4.84,-7.59,-1.75,2.6875,-1.3125,-7.5,-6.1875,21.25,242.125,-21.1875,147.3125,0,1.1809999999999974,9.639375096446864,0.13115281163589287,9.687781078244903,0.09520908570089306,9.676579974350442,3.465229068907278
38.621,9.1435,2.466,-1.798,0.1239,0.0421,0.0088,-69.45,2.25,-43.95,9.5074,-0.0479,0.419,0.0773,0.052,-0.044,-27.75,15.15,1.5,-3.55,-4.84,-7.59,-1.75,2.6875,-1.3125,-7.5,-6.1875,21.25,242.125,-21.1875,147.3125,0,1.186,9.639375096446864,0.13115281163589287,9.516748928599515,0.10303052945607918,9.676579974350442,3.465229068907278
38.626,9.1195,2.4421,-1.7119,0.138,0.0541,0.0005,-69.45,2.25,-43.95,9.5074,-0.0479,0.419,0.0773,0.052,-0.044,-27.9,13.5,2.1,-3.61,-4.89,-7.62,-1.875,2.0625,-1.25,-7.5,-6.1875,21.25,242.0625,-21.125,147.3125,0,1.1909999999999954,9.594776405419774,0.14822638091783796,9.516748928599515,0.10303052945607918,9.747235505516423,3.054837352462484
38.631,9.1195,2.4421,-1.7119,0.138,0.0541,0.0005,-70.2,1.95,-45.15,9.5146,0.0862,0.4214,0.061,0.0725,-0.0405,-27.9,13.5,2.1,-3.61,-4.89,-7.62,-1.875,2.0625,-1.25,-7.5,-6.1875,21.25,242.0625,-21.125,147.3125,0,1.195999999999998,9.594776405419774,0.14822638091783796,9.524317380264057,0.10304125387435849,9.747235505516423,3.054837352462484
38.638,9.2153,2.4493,-1.6831,0.1729,0.1015,0.0003,-70.2,1.95,-45.15,9.5146,0.0862,0.4214,0.0493,0.0962,-0.0418,-27.75,14.4,2.25,-3.65,-4.87,-7.64,-1.25,1.4375,-1.3125,-7.5,-6.1875,21.25,242.0625,-21.125,147.3125,0,1.2029999999999959,9.682646858684869,0.20049127163046276,9.524317380264057,0.11589723896624975,9.767753068131892,2.3133444404152184
38.647,9.2536,2.478,-1.8914,0.2252,0.1143,0.0013,-70.2,1.95,-45.15,9.6989,0.2059,0.3783,0.0115,0.0815,-0.033,-27.9,15.3,2.85,-3.6,-4.87,-7.65,-0.8125,1.1875,-1.375,-7.5,-6.1875,21.25,242.0625,-21.125,147.3125,0,1.2119999999999962,9.764578379018728,0.2525494407041916,9.708458523885241,0.0886763779143014,9.757017987069615,1.9902104160113323
38.657,9.1818,2.557,-1.9417,0.2278,0.0855,-0.0107,-71.1,3.6,-43.8,9.9264,0.3232,0.5076,0.0272,0.1122,-0.0253,-28.5,13.95,1.95,-3.55,-4.84,-7.66,-0.1875,0.5625,-1.3125,-7.5,-6.1875,21.25,242.0625,-21.125,147.3125,0,1.2219999999999942,9.72696762254301,0.24355200676652206,9.944623319160963,0.11818955114560677,9.731582605105913,1.4402148277253641
38.662,9.1387,2.6719,-1.9656,0.2137,0.0813,-0.0109,-70.05,3.3,-43.5,9.7109,0.4166,0.5411,0.0232,0.1204,-0.024,-28.5,13.95,1.95,-3.55,-4.84,-7.66,-0.25,-0.125,-1.25,-7.875,-5.875,22.875,242.0625,-21.0625,147.3125,0,1.2269999999999968,9.72206102943198,0.22890214066277317,9.734881795892543,0.12494158635138261,9.731582605105913,1.2808688457449497
38.668,9.1387,2.6719,-1.9656,0.2137,0.0813,-0.0109,-70.05,3.3,-43.5,9.73,0.7374,0.668,-0.0091,0.1292,-0.0115,-28.5,13.95,1.95,-3.59,-4.91,-7.63,-0.25,-0.125,-1.25,-7.875,-5.875,22.875,242.0,-21.0625,147.3125,0,1.232999999999997,9.72206102943198,0.22890214066277317,9.780740399376727,0.13002961201203364,9.757720020578578,1.2808688457449497
38.678,9.2727,2.7366,-1.8076,0.2052,0.0296,-0.0213,-70.5,2.7,-44.4,9.6965,0.7614,0.6416,-0.029,0.1418,-0.016,-28.95,13.8,0.6,-3.51,-4.95,-7.55,0.375,-0.3125,-1.25,-7.875,-5.875,22.875,242.0,-21.0625,147.3125,0,1.242999999999995,9.835617042666922,0.20841518658677444,9.747486484730308,0.14561675727745074,9.68633573648983,1.341931909598993
38.687,9.2344,2.897,-1.7861,0.1876,0.0072,-0.036,-71.1,3.3,-43.8,9.6151,0.7757,0.5363,0.0099,0.17,-0.0203,-27.75,13.95,0.45,-3.51,-5.05,-7.53,1.625,-0.5,-1.0,-7.875,-5.875,22.875,242.0,-21.0625,147.3125,0,1.2519999999999953,9.84159060162533,0.19115857291787883,9.661235748598624,0.17149373166387163,9.722319682051193,1.9724667297574374
38.697,9.2488,2.7773,-1.743,0.1687,-0.025,-0.0493,-71.1,3.3,-43.8,9.7276,0.3783,0.5938,0.0288,0.1799,-0.0093,-26.4,13.5,1.65,-3.6,-5.03,-7.54,1.4375,-0.6875,-0.5,-7.875,-5.875,22.875,242.0,-21.0625,147.3125,0,1.2620000000000005,9.812835763936945,0.17752515314737796,9.753046246686212,0.18242790356740934,9.752563765492642,1.6700486519859234
38.707,8.9543,2.5618,-1.5323,0.129,-0.033,-0.0605,-70.5,2.25,-42.9,9.7803,0.0287,0.6943,0.0088,0.1697,0.0013,-28.05,13.2,1.95,-3.61,-4.97,-7.52,0.5,-0.0625,-0.1875,-7.875,-5.875,22.875,242.0,-21.0625,147.3125,0,1.2719999999999985,9.43876321453187,0.14625405977271194,9.80495508760749,0.16993298679185273,9.709963954618987,0.5376453291901642
38.712,9.5122,2.5809,-1.7262,0.1519,0.0863,-0.0666,-70.5,2.25,-42.9,9.7803,0.0287,0.6943,0.0088,0.1697,0.0013,-28.05,13.2,1.95,-3.61,-4.97,-7.52,0.4375,0.5625,-0.125,-6.75,-6.5625,21.6875,242.0,-21.0625,147.3125,0,1.277000000000001,10.006136121900402,0.18696753728923104,9.80495508760749,0.16993298679185273,9.709963954618987,0.7234898064243891
38.718,9.5122,2.5809,-1.7262,0.1519,0.0863,-0.0666,-70.5,2.25,-42.9,9.7731,-0.2083,0.7781,-0.069,0.1508,0.0125,-28.05,13.2,1.95,-3.64,-4.88,-7.62,0.4375,0.5625,-0.125,-6.75,-6.5625,21.6875,242.0,-21.0625,147.3125,0,1.2830000000000013,10.006136121900402,0.18696753728923104,9.806238428163981,0.16630661442047337,9.753378901693505,0.7234898064243891
38.728,9.5361,2.1979,-1.3096,0.214,-0.1116,-0.0831,-70.35,2.4,-42.75,9.7205,-0.3783,0.7039,-0.1242,0.2217,-0.0005,-27.0,15.45,1.95,-3.51,-4.89,-7.61,-0.75,0.75,-0.125,-6.75,-6.5625,21.6875,242.0,-21.0625,147.3125,0,1.2929999999999993,9.873348964763679,0.2552570665035544,9.75329207755002,0.2541196175032538,9.70279856536247,1.0680004681646913
38.738,9.0046,2.0135,-1.5251,0.1362,0.0738,-0.0581,-70.95,3.0,-42.45,9.9551,-0.1796,0.9673,-0.11,0.0117,0.0232,-28.05,13.95,2.55,-3.61,-4.84,-7.61,0.125,-0.3125,0.3125,-6.75,-6.5625,21.6875,242.0,-21.0625,147.3125,0,1.3029999999999973,9.352161965021777,0.1654463357104049,10.003596426285899,0.1130271206392519,9.714411973969398,0.4592793267718459
38.747,9.2584,2.0255,-1.8531,0.1543,0.0608,-0.0448,-70.95,1.5,-43.2,9.833,-0.1365,0.8595,-0.1079,-0.0312,0.0232,-26.4,14.55,2.4,-3.62,-4.88,-7.62,-0.6875,0.625,0.375,-6.75,-6.5625,21.6875,242.0,-21.0625,147.3125,0,1.3119999999999976,9.656842155694582,0.1717910649597353,9.871436648229071,0.11469128127281515,9.745932484888247,1.0019512213675874
38.755,9.1698,2.2194,-1.8818,0.1647,-0.025,-0.0368,-69.6,2.4,-42.3,9.8354,-0.3926,0.7733,-0.1151,0.0195,0.0128,-27.9,15.0,2.4,-3.53,-4.88,-7.61,-1.4375,0.1875,0.25,-6.75,-6.5625,21.6875,242.0,-21.0625,147.3125,0,1.3200000000000003,9.620402259781033,0.17060284288369876,9.873561708421132,0.11743977179814341,9.705019319918947,1.4710752869924775
38.76,9.1435,2.399,-1.6927,0.1021,0.0698,-0.0059,-69.6,2.4,-42.3,9.8354,-0.3926,0.7733,-0.1151,0.0195,0.0128,-27.9,15.0,2.4,-3.53,-4.88,-7.61,-1.4375,0.1875,0.25,-6.75,-6.5625,21.6875,242.0,-21.0625,147.3125,0,1.3249999999999957,9.603334136642335,0.12381946535177737,9.873561708421132,0.11743977179814341,9.705019319918947,1.4710752869924775
38.765,9.1435,2.399,-1.6927,0.1021,0.0698,-0.0059,-70.35,2.1,-43.5,9.8354,-0.7781,0.6009,-0.0959,0.0469,0.0136,-27.6,15.0,2.85,-3.66,-4.86,-7.62,0.1875,-1.9375,0.6875,-7.875,-5.875,20.5,242.0,-21.0625,147.3125,0,1.3299999999999983,9.603334136642335,0.12381946535177737,9.8844126573105,0.10761682024665103,9.750876883644876,2.064393070614218
38.77,9.1889,2.557,-1.6352,0.06,0.0839,0.0077,-70.35,2.1,-43.5,9.8354,-0.7781,0.6009,-0.0959,0.0469,0.0136,-27.6,15.0,2.85,-3.66,-4.86,-7.62,0.1875,-1.9375,0.6875,-7.875,-5.875,20.5,242.0,-21.0625,147.3125,0,1.3350000000000009,9.677190255957562,0.1034335535500932,9.8844126573105,0.10761682024665103,9.750876883644876,2.064393070614218
38.775,9.1889,2.557,-1.6352,0.06,0.0839,0.0077,-70.35,1.35,-43.8,9.7085,-0.8452,0.5842,-0.0605,0.0813,0.0021,-27.6,15.0,2.85,-3.7,-4.79,-7.64,0.0,-1.875,0.625,-7.875,-5.875,20.5,242.0,-21.125,147.3125,0,1.3399999999999963,9.677190255957562,0.1034335535500932,9.762716063166028,0.10136246839930448,9.746984148956026,1.976423537605237
38.78,9.2608,2.569,-1.6951,0.0807,0.0253,0.0317,-70.35,1.35,-43.8,9.7085,-0.8452,0.5842,-0.0605,0.0813,0.0021,-27.6,15.0,2.85,-3.7,-4.79,-7.64,0.0,-1.875,0.625,-7.875,-5.875,20.5,242.0,-21.125,147.3125,0,1.3449999999999989,9.758869896150886,0.09031871345407883,9.762716063166028,0.10136246839930448,9.746984148956026,1.976423537605237
38.788,9.3541,2.7821,-1.719,0.0959,0.0163,0.06,-70.35,1.35,-43.8,9.9455,-0.34,0.8906,0.0067,0.0797,0.0107,-27.75,13.65,1.5,-3.63,-4.69,-7.66,-0.75,0.5,0.0,-7.875,-5.875,20.5,242.0,-21.125,147.3125,0,1.3529999999999944,9.909300087291737,0.1142912945066246,9.991082954815258,0.08069368004992707,9.687548709554962,0.9013878188659973
38.798,9.2871,3.0406,-1.5371,0.1183,-0.0211,0.0767,-70.35,1.35,-42.0,9.9407,0.1987,0.8547,0.0205,0.1719,0.004,-28.5,13.65,1.2,-3.49,-4.83,-7.66,2.375,0.3125,-0.25,-7.875,-5.875,20.5,242.0,-21.125,147.3125,0,1.3629999999999995,9.89232789488905,0.1425587247417709,9.979354201049285,0.17316425728192295,9.704875063595615,2.4084811084997115
38.807,9.2129,3.1915,-1.3791,0.1719,0.0496,0.0661,-69.75,1.5,-41.7,10.0437,0.7039,0.6895,0.1458,0.0783,-0.004,-28.8,15.15,2.25,-3.55,-4.98,-7.55,2.6875,-1.125,-0.6875,-7.875,-5.875,20.5,242.0,-21.125,147.25,0,1.3719999999999999,9.847086648852034,0.19073274496006185,10.091917317834108,0.1655431363723667,9.71624413032114,2.993482503707012
38.812,9.2129,3.1915,-1.3791,0.1719,0.0496,0.0661,-70.35,2.85,-42.3,10.0437,0.7039,0.6895,0.3067,0.0514,-0.0216,-26.7,13.95,1.95,-3.55,-4.98,-7.55,2.6875,-1.125,-0.6875,-7.875,-5.875,20.5,242.0,-21.125,147.25,0,1.3769999999999953,9.847086648852034,0.19073274496006185,10.091917317834108,0.31172649871321495,9.71624413032114,2.993482503707012
38.817,9.2009,3.1125,-1.2881,0.2425,0.0962,0.0482,-70.35,2.85,-42.3,9.7109,0.5962,0.9649,0.3235,0.056,-0.0264,-26.7,13.95,1.95,-3.56,-5.02,-7.55,4.0,-3.3125,-0.375,-7.5,-5.875,22.5,242.0,-21.125,147.25,0,1.381999999999998,9.798133427852472,0.2652996984544083,9.776914915248062,0.3293709307149008,9.740456868135087,5.207041506460266
38.822,9.2009,3.1125,-1.2881,0.2425,0.0962,0.0482,-69.6,1.65,-42.3,9.7109,0.5962,0.9649,0.3563,0.1021,-0.0464,-26.7,13.95,1.95,-3.56,-5.02,-7.55,4.0,-3.3125,-0.375,-7.5,-5.875,22.5,242.0,-21.125,147.25,0,1.3870000000000005,9.798133427852472,0.2652996984544083,9.776914915248062,0.3735332113748388,9.740456868135087,5.207041506460266
38.827,9.1123,2.8299,-1.1684,0.3,0.1356,0.0352,-69.6,1.65,-42.3,9.651,-0.1867,1.0894,0.3573,0.0943,-0.0456,-26.7,13.95,1.95,-3.49,-5.0,-7.52,5.625,-3.8125,-0.1875,-7.5,-5.875,22.5,242.0,-21.1875,147.1875,0,1.391999999999996,9.612882182779522,0.3310987768023313,9.714085147351756,0.3723374007536713,9.681451337480347,6.797862715589364
38.832,9.1123,2.8299,-1.1684,0.3,0.1356,0.0352,-70.5,1.5,-43.2,9.651,-0.1867,1.0894,0.2907,0.1207,-0.0493,-26.7,13.95,1.95,-3.49,-5.0,-7.52,4.625,-4.5,0.0625,-7.5,-5.875,22.5,242.0,-21.1875,147.125,0,1.3969999999999985,9.612882182779522,0.3310987768023313,9.714085147351756,0.31859923100974363,9.681451337480347,6.453257413895714
38.838,9.2416,2.6743,-1.1923,0.4016,0.1364,0.0317,-70.5,1.5,-43.2,9.6414,-0.7159,0.984,0.2907,0.1207,-0.0493,-28.2,13.5,3.15,-3.63,-4.87,-7.62,4.625,-4.5,0.0625,-7.5,-5.875,22.5,242.0,-21.25,147.0625,0,1.4029999999999987,9.69436074942541,0.4253144836471009,9.717888802101001,0.31859923100974363,9.744649814128778,6.453257413895714
38.848,9.3565,2.7845,-1.391,0.4743,0.1966,0.0544,-70.35,0.9,-43.5,9.8952,-0.577,1.0511,0.1924,0.1543,-0.02,-28.95,15.75,3.15,-3.67,-4.87,-7.68,4.0625,-3.5625,-0.125,-7.5,-5.875,22.5,242.0,-21.25,147.0625,0,1.4129999999999967,9.860649750396776,0.5163055393853527,9.967583621419989,0.24743938651718322,9.806538635012865,5.404714377282115
38.858,9.4691,2.9999,-1.4485,0.5071,0.1924,0.0546,-70.35,0.9,-43.5,10.1227,0.2753,0.972,0.1055,0.1226,0.0088,-26.85,14.55,1.35,-3.64,-4.8,-7.72,2.0,-2.6875,-0.4375,-7.5,-5.875,22.5,242.0,-21.25,147.0625,0,1.4229999999999947,10.037998160489968,0.5451140522863083,10.172985273753225,0.16198286946464432,9.79224182707923,3.3784704379348947
38.863,9.3278,2.7892,-1.3551,0.5071,0.1924,0.0546,-69.6,0.9,-43.05,9.9288,0.7494,1.0606,0.0914,0.0083,0.0131,-30.3,14.4,2.25,-3.64,-4.8,-7.72,2.0,-2.6875,-0.4375,-8.5625,-6.5625,21.25,242.0,-21.3125,147.0,0,1.4279999999999973,9.829739848541262,0.5451140522863083,10.01336817259807,0.0927063104648222,9.79224182707923,3.3784704379348947
38.868,9.3278,2.7892,-1.3551,0.4604,0.17,0.0405,-69.6,0.9,-43.05,9.9288,0.7494,1.0606,0.0914,0.0083,0.0131,-30.3,14.4,2.25,-3.57,-5.06,-7.6,1.0625,-3.25,-0.375,-8.5625,-6.5625,21.25,242.0,-21.3125,147.0,0,1.4329999999999998,9.829739848541262,0.4924514290770208,10.01336817259807,0.0927063104648222,9.803494275002153,3.4397719764542534
38.873,9.2488,2.6528,-1.245,0.4604,0.17,0.0405,-70.2,1.5,-43.95,9.572,0.7949,1.2234,0.145,-0.0554,0.0,-27.75,13.65,2.55,-3.57,-5.06,-7.6,1.0625,-3.25,-0.375,-8.5625,-6.5625,21.25,242.0,-21.3125,147.0,0,1.4379999999999953,9.701941778839943,0.4924514290770208,9.682549125617694,0.15522293644948224,9.803494275002153,3.4397719764542534
38.878,9.2488,2.6528,-1.245,0.3778,0.1452,0.033,-70.2,1.5,-43.95,9.572,0.7949,1.2234,0.145,-0.0554,0.0,-27.75,13.65,2.55,-3.64,-5.05,-7.53,0.75,-5.0,-0.0625,-8.5625,-6.5625,21.25,242.0,-21.3125,147.0,0,1.4429999999999978,9.701941778839943,0.4060848187263346,9.682549125617694,0.15522293644948224,9.770005117705926,5.056323392545219
38.883,9.2249,2.4636,-1.1396,0.3778,0.1452,0.033,-70.35,0.15,-42.3,9.493,0.5986,1.3455,0.2329,-0.0663,0.0064,-27.75,13.65,2.55,-3.64,-5.05,-7.53,2.0625,-5.75,0.1875,-8.5625,-6.5625,21.25,242.0,-21.375,147.0,0,1.4480000000000004,9.615965532904118,0.4060848187263346,9.606546789039234,0.24223761062229787,9.770005117705926,6.111592468416068
38.889,9.2249,2.4636,-1.1396,0.3584,0.1263,0.0226,-70.35,0.15,-42.3,9.493,0.5986,1.3455,0.1498,0.0242,0.0037,-27.75,13.65,2.55,-3.7,-5.01,-7.5,2.0625,-5.75,0.1875,-8.5625,-6.5625,21.25,242.0,-21.4375,146.9375,0,1.4540000000000006,9.615965532904118,0.3806744146905594,9.606546789039234,0.15178725242918129,9.748851214373927,6.111592468416068
38.898,9.4691,2.3846,-1.3096,0.3483,0.1442,0.0096,-70.2,1.05,-42.15,9.6534,0.237,0.9673,0.141,0.0229,0.0099,-26.4,14.55,3.15,-3.67,-5.09,-7.41,1.9375,-5.0625,0.4375,-8.5625,-6.5625,21.25,242.0,-21.4375,146.9375,0,1.463000000000001,9.852168498863588,0.3770924157285585,9.704636513028193,0.14319015329274565,9.710051493169333,5.438218343354743
38.908,9.4499,2.1476,-1.3264,0.3584,0.089,0.0093,-70.8,0.15,-41.55,9.6103,-0.1365,0.7997,0.0805,0.0152,0.0109,-28.5,15.9,1.5,-3.74,-4.95,-7.48,0.375,-3.9375,0.3125,-8.5625,-6.5625,21.25,241.9375,-21.4375,146.9375,0,1.472999999999999,9.781213254499669,0.3694022874861497,9.644481242140502,0.08264441904932238,9.718050215964107,3.9676425620259694
38.913,9.6103,1.9776,-1.5586,0.3765,0.0946,0.0386,-70.95,0.0,-43.2,9.584,-0.103,0.6153,0.0437,0.0978,0.0144,-28.05,13.95,3.0,-3.74,-4.95,-7.48,0.375,-3.9375,0.3125,-8.5625,-6.5625,21.25,241.9375,-21.4375,146.9375,0,1.4779999999999944,9.934686799793944,0.39011712343858995,9.604283372016884,0.10808279233994651,9.718050215964107,3.9676425620259694
38.918,9.6103,1.9776,-1.5586,0.3765,0.0946,0.0386,-70.95,0.0,-43.2,9.584,-0.103,0.6153,-0.1559,0.1761,0.0069,-28.05,13.95,3.0,-3.75,-4.9,-7.54,-1.1875,-1.8125,0.375,-7.5,-5.875,22.0625,241.9375,-21.4375,146.9375,0,1.482999999999997,9.934686799793944,0.39011712343858995,9.604283372016884,0.23529477257261794,9.742899978959038,2.1990765107198977
38.923,9.6654,1.9968,-2.1165,0.3581,0.1263,0.0877,-70.95,0.0,-43.2,9.7444,-0.2514,0.1125,-0.1812,0.1788,0.0021,-27.3,13.65,3.0,-3.75,-4.9,-7.54,-1.1875,-1.8125,0.375,-7.5,-5.875,22.0625,241.9375,-21.4375,146.9375,0,1.4879999999999995,10.093896158074939,0.38971603764792634,9.748291623151209,0.25457275973677934,9.742899978959038,2.1990765107198977
38.928,9.6654,1.9968,-2.1165,0.3581,0.1263,0.0877,-70.95,0.0,-43.2,9.7444,-0.2514,0.1125,-0.3091,0.1386,0.0013,-27.3,13.65,3.0,-3.64,-4.84,-7.6,-1.5625,0.3125,0.3125,-7.5,-5.875,22.0625,241.9375,-21.4375,146.9375,0,1.492999999999995,10.093896158074939,0.38971603764792634,9.748291623151209,0.33875427672577063,9.717777523693368,1.6237976320958225
38.933,9.8426,2.569,-2.4804,0.3603,0.0749,0.1276,-70.95,0.0,-42.15,9.8689,0.0311,0.4932,-0.3142,0.145,0.0013,-27.3,13.65,3.0,-3.64,-4.84,-7.6,-0.875,0.3125,0.75,-7.5,-5.875,22.0625,241.9375,-21.4375,146.9375,0,1.4979999999999976,10.470382988219676,0.38949693195197316,9.881265134586766,0.3460467164993767,9.717777523693368,1.194060823408925
38.939,9.8426,2.569,-2.4804,0.3603,0.0749,0.1276,-70.95,0.0,-42.15,9.9024,0.6201,0.7422,-0.3304,0.1383,0.0504,-27.3,13.65,3.0,-3.56,-4.79,-7.7,-0.875,0.3125,0.75,-7.5,-5.875,22.0625,242.0,-21.5,147.0,0,1.5039999999999978,10.470382988219676,0.38949693195197316,9.949518109436257,0.36170597175053665,9.742058304075172,1.194060823408925
38.948,9.1985,2.7485,-2.6432,0.3043,0.044,0.1053,-70.05,-1.35,-43.8,9.7612,1.3336,0.9697,-0.3669,0.1178,0.0624,-27.6,14.55,3.9,-3.56,-4.8,-7.69,0.3125,-0.625,1.625,-7.5,-5.875,22.0625,242.0,-21.5,147.0,0,1.5129999999999981,9.957568013325341,0.3249962769017516,9.899486476075413,0.3903667634417664,9.73908106548046,1.7688714622606132
38.956,8.8705,2.6552,-2.3439,0.4325,0.0346,0.056,-70.5,0.75,-43.2,9.7612,1.3336,0.9697,-0.3669,0.1178,0.0624,-28.2,13.8,3.45,-3.51,-4.97,-7.6,1.125,-2.0,2.25,-7.5,-5.875,22.0625,242.0,-21.5,146.9375,0,1.5210000000000008,9.551425260137881,0.4374807538623842,9.899486476075413,0.3903667634417664,9.735553399781647,3.2137400330456103
38.961,8.9304,2.8467,-2.0782,0.3877,0.0616,0.0274,-70.5,0.75,-43.2,9.5864,1.81,1.2354,-0.3762,0.0927,0.0565,-27.75,13.65,2.55,-3.51,-4.97,-7.6,1.125,-2.0,2.25,-7.5,-5.875,22.0625,242.0,-21.5,146.9375,0,1.5259999999999962,9.600763526407679,0.3935182460826943,9.833685886787313,0.3915507374530151,9.735553399781647,3.2137400330456103
38.966,8.9304,2.8467,-2.0782,0.3877,0.0616,0.0274,-70.95,-0.3,-42.9,9.5864,1.81,1.2354,-0.3762,0.0927,0.0565,-27.75,13.65,2.55,-3.41,-5.36,-7.15,1.1875,-2.8125,3.0625,-7.0625,-6.5625,21.25,242.0,-21.5625,146.9375,0,1.5309999999999988,9.600763526407679,0.3935182460826943,9.833685886787313,0.3915507374530151,9.56452821627915,4.3242593296424765
38.971,9.2225,2.8419,-1.6831,0.2731,0.0738,0.0045,-70.95,-0.3,-42.9,9.7133,1.4796,0.7614,-0.3826,0.0986,0.0261,-26.7,13.95,1.95,-3.41,-5.36,-7.15,1.1875,-2.8125,3.0625,-7.0625,-6.5625,21.25,242.0,-21.5625,146.9375,0,1.5359999999999943,9.796107771456988,0.28293161717984083,9.85480304267924,0.3959620310080248,9.56452821627915,4.3242593296424765
38.976,9.2225,2.8419,-1.6831,0.2731,0.0738,0.0045,-70.8,0.15,-43.5,9.7133,1.4796,0.7614,-0.3826,0.0986,0.0261,-26.7,13.95,1.95,-3.32,-5.39,-7.21,0.625,-2.75,4.3125,-7.0625,-6.5625,21.25,242.0625,-21.5625,146.9375,0,1.5409999999999968,9.796107771456988,0.28293161717984083,9.85480304267924,0.3959620310080248,9.5947172965127,5.15274502086024
38.981,9.2344,2.466,-1.3767,0.2641,0.0144,-0.0248,-70.8,0.15,-43.5,9.7013,0.6776,1.2091,-0.3246,0.0629,0.0083,-26.7,13.95,1.95,-3.32,-5.39,-7.21,0.625,-2.75,4.3125,-7.0625,-6.5625,21.25,242.125,-21.625,146.9375,0,1.5459999999999994,9.656635141186603,0.26565242329028355,9.799810521637651,0.3307422863801966,9.5947172965127,5.15274502086024
38.989,9.4475,2.2242,-1.2282,0.2494,-0.0099,-0.0261,-71.85,-0.15,-42.75,9.7971,-0.3783,1.2594,-0.2912,0.0408,0.0429,-26.7,13.95,1.95,-3.62,-5.19,-7.3,-0.125,-2.5,6.875,-7.0625,-6.5625,21.25,242.1875,-21.6875,147.0,0,1.553999999999995,9.783189517228008,0.2509573270498393,9.884956634199263,0.297157348891122,9.660771190748697,7.316505313330948
38.998,9.5122,1.8675,-1.1325,0.2076,-0.0258,-0.0328,-71.85,-0.15,-42.75,9.7516,-1.2689,1.0415,-0.3099,0.0458,0.0648,-26.7,13.95,1.95,-3.79,-4.92,-7.53,-0.6875,-1.1875,8.0,-7.0625,-6.5625,21.25,242.25,-21.75,147.0625,0,1.5629999999999953,9.759716253047523,0.2117527803831629,9.88880842265639,0.3198979368486143,9.760706941610326,8.116822808217512
39.008,9.4236,1.8244,-1.3527,0.2142,-0.0216,-0.0176,-71.55,-0.45,-43.5,9.8402,-1.2594,1.075,-0.3198,0.0722,0.0805,-27.9,14.25,3.15,-3.82,-4.81,-7.58,-1.3125,-0.3125,8.125,-7.0625,-6.5625,21.25,242.25,-21.75,147.0625,0,1.5730000000000004,9.693424039522878,0.21600453698938826,9.978539442222996,0.33758721835993727,9.756274903875967,8.236257493546447
39.013,9.4236,1.8244,-1.3527,0.2142,-0.0216,-0.0176,-71.55,-0.45,-43.5,9.8402,-1.2594,1.075,-0.3198,0.0722,0.0805,-28.95,15.0,3.15,-3.82,-4.81,-7.58,-1.3125,-0.3125,8.125,-7.5,-6.1875,21.25,242.3125,-21.8125,147.0625,0,1.5779999999999959,9.693424039522878,0.21600453698938826,9.978539442222996,0.33758721835993727,9.756274903875967,8.236257493546447
39.018,9.4116,1.7933,-1.2881,0.1452,-0.0184,0.0123,-71.55,-0.45,-43.5,9.9431,-0.9649,1.1827,-0.3685,0.0645,0.0821,-28.95,15.75,2.4,-3.8,-4.71,-7.67,-2.125,-0.125,7.9375,-7.5,-6.1875,21.25,242.3125,-21.8125,147.0625,0,1.5829999999999984,9.667126825484395,0.14687712551653506,10.059574986548885,0.38300510440462804,9.770005117705926,8.217977625304172
39.023,9.4116,1.7933,-1.2881,0.1452,-0.0184,0.0123,-71.25,-0.45,-43.5,9.9431,-0.9649,1.1827,-0.3685,0.0645,0.0821,-28.95,15.75,2.4,-3.8,-4.71,-7.67,-2.125,-0.125,7.9375,-7.5,-6.1875,21.25,242.375,-21.8125,147.125,0,1.588000000000001,9.667126825484395,0.14687712551653506,10.059574986548885,0.38300510440462804,9.770005117705926,8.217977625304172
39.029,9.4571,1.8124,-1.324,0.0733,-0.0085,0.0285,-71.25,-1.05,-43.95,9.9048,-0.3687,1.4102,-0.3547,0.0197,0.0661,-28.05,13.95,3.3,-3.78,-4.59,-7.69,-2.625,-0.25,7.5,-7.5,-6.1875,21.25,242.375,-21.8125,147.125,0,1.5940000000000012,9.719799903804605,0.0791036661602988,10.011476752707365,0.3613438666976375,9.720730425230402,7.950039308078923
39.037,9.6678,1.9273,-1.1875,0.0773,0.0032,0.0229,-71.55,-0.45,-44.25,9.7372,-0.1125,1.0104,-0.283,0.0165,0.0653,-28.05,13.95,3.3,-3.83,-4.71,-7.66,-2.4375,-0.0625,6.8125,-7.5,-6.1875,21.25,242.4375,-21.875,147.1875,0,1.6019999999999968,9.929299994460838,0.0806841991966209,9.790129123254708,0.29090434854089064,9.773873336605094,7.23570789556903
39.042,9.6678,1.9273,-1.1875,0.0773,0.0032,0.0229,-71.55,-0.45,-44.25,9.7372,-0.1125,1.0104,-0.283,0.0165,0.0653,-28.05,13.95,3.3,-3.83,-4.71,-7.66,-2.4375,-0.0625,6.8125,-7.5,-6.1875,21.25,242.5,-21.875,147.1875,0,1.6069999999999993,9.929299994460838,0.0806841991966209,9.790129123254708,0.29090434854089064,9.773873336605094,7.23570789556903
39.049,9.2727,2.1691,-1.3431,0.1124,0.0453,0.0285,-71.7,-1.95,-42.45,9.7492,0.3639,1.3815,-0.2177,-0.0165,0.0618,-28.2,14.55,3.9,-3.87,-4.73,-7.56,-2.0625,0.0625,6.25,-7.5,-6.1875,21.25,242.5625,-21.9375,147.25,0,1.6139999999999972,9.617269763815509,0.12449136516240795,9.853317517465882,0.2269025782136466,9.721285923168807,6.581816808450384
39.059,9.3374,2.478,-1.4772,0.0727,0.029,0.0306,-71.25,0.0,-42.15,9.7085,0.4214,1.3216,-0.3086,-0.0344,0.0458,-27.75,13.95,2.25,-3.86,-4.63,-7.61,-1.375,0.875,5.5,-7.5,-6.1875,21.25,242.5625,-21.9375,147.25,0,1.6239999999999952,9.772903488728414,0.08403957401129541,9.807098284915881,0.3138709288863816,9.708171815537671,5.736396952791883
39.064,9.3374,2.478,-1.4772,0.0727,0.029,0.0306,-71.25,0.0,-42.15,9.7085,0.4214,1.3216,-0.2417,-0.057,0.0368,-27.75,13.95,2.25,-3.86,-4.63,-7.61,-1.375,0.875,5.5,-7.5,-6.1875,20.875,242.625,-21.9375,147.3125,0,1.6289999999999978,9.772903488728414,0.08403957401129541,9.807098284915881,0.25104208810476386,9.708171815537671,5.736396952791883
39.069,9.2296,2.7509,-1.142,0.0799,0.0155,0.0157,-71.25,0.0,-42.15,9.7803,0.3328,1.233,-0.2286,-0.0637,0.0333,-27.3,15.15,3.3,-3.8,-4.87,-7.52,-1.125,1.625,4.75,-7.5,-6.1875,20.875,242.625,-21.9375,147.3125,0,1.6340000000000003,9.698305572108975,0.08288998733260851,9.863331735777724,0.23963417953205257,9.731767568124509,5.144778906814169
39.074,9.2296,2.7509,-1.142,0.0799,0.0155,0.0157,-71.25,0.0,-42.15,9.7276,0.1963,1.3479,-0.1514,-0.0818,0.0394,-27.3,15.15,3.3,-3.8,-4.87,-7.52,-1.125,1.625,4.75,-7.5,-6.1875,20.875,242.6875,-21.9375,147.3125,0,1.6389999999999958,9.698305572108975,0.08288998733260851,9.822503237973505,0.17653770135582936,9.731767568124509,5.144778906814169
39.079,9.2464,2.8299,-0.8475,0.0962,0.0101,-0.0024,-71.7,-0.3,-43.65,9.7276,0.1963,1.3479,-0.1514,-0.0818,0.0394,-27.15,14.55,2.1,-3.76,-4.93,-7.55,-1.5,2.5,4.625,-7.5,-6.1875,20.875,242.6875,-21.9375,147.3125,0,1.6439999999999984,9.706827659951523,0.09675851383728462,9.822503237973505,0.17653770135582936,9.76959569276027,5.46723193215726
39.084,9.1889,2.7557,-0.8571,0.0962,0.0101,-0.0024,-71.7,-0.3,-43.65,9.596,-0.2897,1.2115,-0.2068,-0.0616,0.032,-27.15,14.55,2.1,-3.76,-4.93,-7.55,-1.9375,3.25,4.6875,-7.5,-6.1875,20.875,242.75,-21.9375,147.375,0,1.649000000000001,9.631427002786243,0.09675851383728462,9.676511475733392,0.21813940496847423,9.76959569276027,6.024040380010745
39.089,9.1889,2.7557,-0.8571,0.0698,0.0408,-0.0019,-71.7,-0.3,-43.65,9.596,-0.2897,1.2115,-0.2068,-0.0616,0.032,-27.15,14.55,2.1,-3.83,-4.87,-7.54,-1.9375,3.25,4.6875,-7.5,-6.1875,20.875,242.75,-21.9375,147.375,0,1.6539999999999964,9.631427002786243,0.08087205945195164,9.676511475733392,0.21813940496847423,9.758965109067661,6.024040380010745
39.098,9.2296,2.5043,-1.0774,0.0528,-0.0059,0.0029,-70.2,-0.3,-42.45,9.5002,-0.7326,1.1588,-0.2633,-0.0205,0.0242,-28.65,15.0,4.2,-3.81,-5.03,-7.53,-2.5625,3.375,4.875,-7.5,-6.1875,20.875,242.75,-21.9375,147.375,0,1.6629999999999967,9.623815532833119,0.05320770620878145,9.598610328584028,0.26520328052269637,9.824352395959746,6.459307722194384
39.105,9.0764,2.296,-1.154,0.0568,-0.0131,0.0107,-71.55,-0.45,-43.5,9.4619,-1.0008,0.68,-0.2731,-0.0109,0.0352,-28.65,15.0,4.2,-3.93,-4.36,-7.58,-2.8125,4.4375,5.0,-7.5,-6.1875,20.875,242.8125,-21.9375,147.4375,0,1.6699999999999946,9.433152652215481,0.05926499810174637,9.538949221481369,0.2755747811393488,9.587017262944716,7.25269346518933
39.11,9.0764,2.296,-1.154,0.0568,-0.0131,0.0107,-71.55,-0.45,-43.5,9.4619,-1.0008,0.68,-0.2731,-0.0109,0.0352,-29.7,15.0,3.15,-3.93,-4.36,-7.58,-2.8125,4.4375,5.0,-7.5,-6.1875,20.875,242.8125,-21.9375,147.4375,0,1.6749999999999972,9.433152652215481,0.05926499810174637,9.538949221481369,0.2755747811393488,9.587017262944716,7.25269346518933
39.115,9.4763,2.0039,-1.4293,0.0898,0.0349,0.0237,-71.25,-1.95,-42.45,9.7037,-0.5483,0.4501,-0.2585,-0.0165,0.0605,-29.7,15.0,3.15,-3.91,-4.47,-7.63,-2.125,3.75,4.25,-7.5,-6.5625,21.25,242.875,-21.9375,147.5,0,1.6799999999999997,9.790749480504543,0.0992156237696463,9.729594883138763,0.26599765036556244,9.668810681774671,6.0531500064016255
39.121,9.4763,2.0039,-1.4293,0.0898,0.0349,0.0237,-71.25,-1.95,-42.45,9.7037,-0.5483,0.4501,-0.2585,-0.0165,0.0605,-27.75,14.7,3.6,-3.91,-4.47,-7.63,-2.125,3.75,4.25,-7.5,-6.5625,21.25,242.875,-21.9375,147.5,0,1.686,9.790749480504543,0.0992156237696463,9.729594883138763,0.26599765036556244,9.668810681774671,6.0531500064016255
39.125,9.7947,1.7238,-1.7238,0.129,-0.033,0.0349,-69.45,-1.5,-42.9,9.7755,-0.3567,0.1077,-0.2809,-0.0117,0.0546,-27.75,14.7,3.6,-3.8,-4.53,-7.64,-0.5,2.625,2.75,-7.5,-6.5625,21.25,242.9375,-21.9375,147.5,0,1.6899999999999977,10.093518760571063,0.1376517707841058,9.782598552020827,0.2863963337754169,9.660771190748697,3.8344654125444917
39.13,9.7947,1.7238,-1.7238,0.129,-0.033,0.0349,-69.45,-1.5,-42.9,9.7755,-0.3567,0.1077,-0.2809,-0.0117,0.0546,-28.05,14.7,4.05,-3.8,-4.53,-7.64,-0.5,2.625,2.75,-7.5,-6.5625,21.25,242.9375,-21.9375,147.5625,0,1.6950000000000003,10.093518760571063,0.1376517707841058,9.782598552020827,0.2863963337754169,9.660771190748697,3.8344654125444917
39.139,9.6295,1.6185,-1.573,0.1719,-0.0493,0.0306,-71.55,-0.45,-41.25,9.8402,-0.1939,0.644,-0.1537,-0.004,0.0514,-27.75,14.4,3.6,-3.71,-4.35,-7.73,-0.125,1.5,2.0,-7.5,-6.5625,21.25,242.9375,-21.9375,147.5,0,1.7040000000000006,9.890457092571607,0.18142893925721992,9.863157164417487,0.16211616205671783,9.614546271145613,2.5031230493125984
39.149,9.5792,1.6185,-1.6328,0.1892,-0.0314,0.0264,-71.7,-1.05,-43.2,9.9431,0.0934,0.905,-0.0717,-0.0376,0.0573,-27.75,14.4,3.6,-3.74,-4.4,-7.79,2.125,2.25,1.6875,-7.5,-6.5625,21.25,243.0,-21.9375,147.5,0,1.7139999999999986,9.851225849101217,0.19359638426375636,9.984637508192273,0.09918639019542953,9.696994379703435,3.5250221630508936
39.159,9.4715,1.7406,-1.6592,0.1455,-0.0389,0.0184,-71.7,-1.05,-43.2,9.809,0.2466,1.1516,0.0053,-0.0568,0.0506,-28.8,15.15,4.05,-3.78,-4.52,-7.68,2.75,2.3125,1.25,-7.5,-6.5625,21.25,243.0,-21.9375,147.5,0,1.7239999999999966,9.77199801729411,0.15173008930334156,9.879447105987257,0.07625411464308009,9.679938016330476,3.8042944483833003
39.164,9.517,2.1261,-1.2402,0.0373,-0.0506,0.0386,-71.7,-1.05,-43.2,9.7085,0.0814,1.494,0.0783,-0.0722,0.0466,-28.8,15.15,4.05,-3.78,-4.52,-7.68,2.75,2.3125,1.25,-6.375,-6.1875,20.875,243.0,-21.9375,147.5,0,1.7289999999999992,9.830141720748484,0.07376726916458275,9.823117336670675,0.11625527945001035,9.679938016330476,3.8042944483833003
39.169,9.517,2.1261,-1.2402,0.0373,-0.0506,0.0386,-70.5,-1.05,-43.2,9.7085,0.0814,1.494,0.0783,-0.0722,0.0466,-28.95,15.3,3.9,-3.78,-4.79,-7.55,2.5,2.125,0.4375,-6.375,-6.1875,20.875,243.0,-21.9375,147.5,0,1.7339999999999947,9.830141720748484,0.07376726916458275,9.823117336670675,0.11625527945001035,9.707471349429778,3.31014066921634
39.174,9.098,2.6647,-1.0894,-0.1034,-0.0834,0.0493,-70.5,-1.05,-43.2,9.7061,-0.1867,1.5586,0.1218,-0.0831,0.0389,-28.95,15.3,3.9,-3.78,-4.79,-7.55,2.5,2.125,0.4375,-6.375,-6.1875,20.875,243.0,-21.875,147.5,0,1.7389999999999972,9.542589923600406,0.1416954833436832,9.832215826557103,0.1524928195030835,9.707471349429778,3.31014066921634
39.179,9.098,2.6647,-1.0894,-0.1034,-0.0834,0.0493,-70.05,-2.4,-43.5,9.7061,-0.1867,1.5586,0.1218,-0.0831,0.0389,-28.5,15.45,3.6,-3.87,-4.72,-7.52,2.0,2.3125,0.3125,-6.375,-6.1875,20.875,243.0,-21.875,147.5,0,1.7439999999999998,9.542589923600406,0.1416954833436832,9.832215826557103,0.1524928195030835,9.685334274045475,3.073322713286062
39.184,8.9304,2.9185,-1.1612,-0.1809,-0.052,0.0637,-70.05,-2.4,-43.5,9.5768,-0.498,1.1923,0.0997,-0.0794,0.0437,-28.5,15.45,3.6,-3.87,-4.72,-7.52,0.6875,2.6875,-0.1875,-6.375,-6.1875,20.875,243.0,-21.875,147.5,0,1.7489999999999952,9.466682198637493,0.19871210330525918,9.66357498703249,0.13473729995810366,9.685334274045475,2.780372052441903
39.189,9.2368,2.7485,-1.2067,-0.1809,-0.052,0.0637,-69.75,-1.05,-42.9,9.5768,-0.498,1.1923,0.06,-0.0597,0.0413,-27.6,14.55,5.25,-3.92,-4.8,-7.47,0.6875,2.6875,-0.1875,-6.375,-6.1875,20.875,243.0,-21.8125,147.5,0,1.7539999999999978,9.712304123121353,0.19871210330525918,9.66357498703249,0.09417950944871183,9.706044508449361,2.780372052441903
39.199,9.2368,2.7485,-1.2067,-0.2617,-0.008,0.0925,-72.0,-1.05,-43.2,9.4978,-0.7446,0.9505,0.0304,-0.0533,0.0618,-27.6,14.55,5.25,-3.88,-4.78,-7.45,-0.75,4.0625,-1.0,-6.375,-6.1875,20.875,243.0,-21.8125,147.5,0,1.7639999999999958,9.712304123121353,0.27768172428159543,9.574240661796631,0.08708782923003651,9.664641741937464,4.250459533979826
39.209,9.2584,2.6264,-1.5323,-0.1697,-0.109,0.0978,-69.45,-0.3,-42.45,9.6989,-0.4669,0.8404,-0.0144,-0.0466,0.0749,-27.9,15.0,2.1,-3.84,-4.49,-7.55,-1.625,5.5,-1.6875,-6.375,-6.1875,20.875,243.0,-21.8125,147.5,0,1.774000000000001,9.744941806393715,0.22415157817869583,9.746431602386588,0.08938081449617698,9.586876446476193,5.97815032012411
39.214,9.2584,2.6264,-1.5323,-0.1591,-0.1029,0.1148,-69.45,-0.3,-42.45,9.9335,0.0479,0.6895,-0.0226,-0.053,0.0765,-27.9,15.0,2.1,-3.84,-4.49,-7.55,-1.625,5.5,-1.6875,-6.75,-6.0625,21.75,243.0,-21.75,147.5625,0,1.7789999999999964,9.744941806393715,0.22154065089730146,9.957516101418065,0.09577061135859997,9.586876446476193,5.97815032012411
39.219,9.2871,2.5211,-1.5371,-0.1591,-0.1029,0.1148,-70.05,-0.45,-43.5,9.9335,0.5962,0.9768,0.0013,-0.0642,0.0842,-28.65,15.0,4.2,-3.71,-4.56,-7.59,-3.0625,6.6875,-2.4375,-6.75,-6.0625,21.75,243.0,-21.75,147.5625,0,1.783999999999999,9.745196151437899,0.22154065089730146,9.99920071455714,0.10589131220265428,9.600302078580652,7.748739816899262
39.224,9.2871,2.5211,-1.5371,-0.199,-0.1111,0.1215,-70.05,-0.45,-43.5,9.9335,0.5962,0.9768,0.0013,-0.0642,0.0842,-28.65,15.0,4.2,-3.71,-4.56,-7.59,-3.0625,6.6875,-2.4375,-6.75,-6.0625,21.75,243.0,-21.625,147.625,0,1.7889999999999944,9.745196151437899,0.25827593771003915,9.99920071455714,0.10589131220265428,9.600302078580652,7.748739816899262
39.229,9.4332,2.5355,-1.3455,-0.2539,-0.1138,0.1274,-70.05,-0.45,-43.5,9.9144,0.4094,0.9026,0.024,-0.0781,0.0829,-27.9,15.75,3.45,-3.61,-4.66,-7.67,-3.3125,6.8125,-3.0,-6.75,-6.0625,21.75,243.0,-21.625,147.625,0,1.793999999999997,9.86024303655848,0.3060170093311808,9.963815658672134,0.11639596212927664,9.673499883702899,8.147564820239236
39.234,9.4332,2.5355,-1.3455,-0.2539,-0.1138,0.1274,-70.05,-0.45,-43.5,9.9144,0.4094,0.9026,0.024,-0.0781,0.0829,-27.9,15.75,3.45,-3.61,-4.66,-7.67,-3.3125,6.6875,-2.875,-6.75,-6.0625,21.75,243.0,-21.5625,147.625,0,1.7989999999999995,9.86024303655848,0.3060170093311808,9.963815658672134,0.11639596212927664,9.673499883702899,7.99755822110724
39.24,9.3709,2.5618,-1.3599,-0.2739,-0.1601,0.1202,-70.35,-0.9,-42.75,9.9814,0.0766,1.0822,0.0845,-0.0738,0.0671,-28.05,13.65,3.0,-3.51,-4.87,-7.49,-3.3125,6.6875,-2.875,-6.75,-6.0625,21.75,243.0,-21.5,147.6875,0,1.8049999999999997,9.809480825201708,0.3392657660301139,10.040187765176507,0.1307252844709087,9.598807217566149,7.99755822110724
39.249,9.2991,2.6264,-1.3479,-0.2952,-0.1308,0.1263,-70.2,-1.95,-42.45,9.7923,-0.1125,1.2258,0.1471,-0.1207,0.0735,-27.9,13.8,2.4,-3.47,-4.8,-7.54,-3.375,6.125,-2.375,-6.75,-6.0625,21.75,242.9375,-21.5,147.75,0,1.814,9.756437473791342,0.34670357656072714,9.869365794213932,0.20398321009338,9.588143720241161,7.385585623361224
39.26,9.3518,2.4541,-0.893,-0.19,-0.036,0.1282,-71.55,-0.9,-42.75,9.9096,-0.4717,1.0127,0.1535,-0.1156,0.0959,-27.9,13.8,2.4,-3.66,-4.75,-7.59,-4.0,5.25,-1.4375,-6.75,-6.0625,21.75,242.9375,-21.5,147.75,0,1.8249999999999957,9.709594175350482,0.2320156029235965,9.972373555979539,0.214761309364606,9.672962317718394,6.754917190462071
39.265,9.3518,2.4541,-0.893,-0.19,-0.036,0.1282,-71.55,-0.9,-42.75,9.9096,-0.4717,1.0127,0.1535,-0.1156,0.0959,-28.2,14.25,1.65,-3.66,-4.75,-7.59,-4.625,4.375,-1.3125,-7.0625,-5.75,20.0625,242.9375,-21.4375,147.75,0,1.8299999999999983,9.709594175350482,0.2320156029235965,9.972373555979539,0.214761309364606,9.672962317718394,6.500300473824268
39.27,9.4547,2.8874,-1.4198,-0.1242,-0.0557,0.15,-70.8,-0.9,-43.8,9.9,-0.3591,1.1157,0.1628,-0.1116,0.1005,-28.2,14.25,1.65,-3.62,-4.61,-7.67,-4.625,4.375,-1.3125,-7.0625,-5.75,20.0625,242.9375,-21.4375,147.75,0,1.8350000000000009,9.987204958846094,0.20255401748669413,9.96913934600174,0.2214918734400881,9.653258517205472,6.500300473824268
39.275,9.4547,2.8874,-1.4198,-0.1242,-0.0557,0.15,-70.8,-0.9,-43.8,9.9,-0.3591,1.1157,0.1628,-0.1116,0.1005,-28.05,14.7,2.55,-3.62,-4.61,-7.67,-5.125,3.6875,-1.375,-7.0625,-5.75,20.0625,242.9375,-21.375,147.8125,0,1.8399999999999963,9.987204958846094,0.20255401748669413,9.96913934600174,0.2214918734400881,9.653258517205472,6.46172625929016
39.28,9.3877,3.0598,-1.1229,-0.1351,-0.109,0.1436,-70.5,-2.7,-42.45,9.912,-0.1293,0.8595,0.1442,-0.1053,0.1058,-28.05,14.7,2.55,-3.63,-4.61,-7.69,-5.125,3.6875,-1.375,-7.0625,-5.75,20.0625,242.9375,-21.375,147.8125,0,1.8449999999999989,9.93741373497149,0.22528641769978056,9.950035313505175,0.20754606717545868,9.672905458030694,6.46172625929016
39.285,9.3877,3.0598,-1.1229,-0.1351,-0.109,0.1436,-70.5,-2.7,-42.45,9.912,-0.1293,0.8595,0.1442,-0.1053,0.1058,-28.65,15.75,3.15,-3.69,-4.66,-7.72,-4.9375,3.375,-1.25,-7.0625,-5.75,20.0625,242.9375,-21.375,147.875,0,1.8499999999999943,9.93741373497149,0.22528641769978056,9.950035313505175,0.20754606717545868,9.74320789062822,6.109994373974496
39.29,9.2608,2.9042,-0.8212,-0.1082,-0.1151,0.1266,-70.35,-2.4,-41.55,9.7372,-0.1173,0.7422,0.1399,-0.1122,0.1007,-28.65,15.75,3.15,-3.69,-4.66,-7.72,-4.9375,3.375,-1.25,-7.0625,-5.75,20.0625,242.9375,-21.375,147.875,0,1.8549999999999969,9.740182940787097,0.20244211518357536,9.766149905157098,0.20567289563770916,9.74320789062822,6.109994373974496
39.299,9.2775,2.6456,-1.0175,-0.118,-0.1529,0.1412,-70.35,-2.4,-41.55,9.7133,-0.0958,0.9242,0.1537,-0.1071,0.0949,-27.6,13.8,2.85,-3.64,-4.69,-7.7,-5.0625,3.25,-1.25,-7.0625,-5.75,20.0625,242.9375,-21.3125,147.9375,0,1.8639999999999972,9.700851089466326,0.23924851096715313,9.757639067417898,0.21000026190459858,9.722947084089268,6.144420741615925
39.304,9.2775,2.6456,-1.0175,-0.118,-0.1529,0.1412,-70.35,-2.4,-41.55,9.7133,-0.0958,0.9242,0.1537,-0.1071,0.0949,-27.6,13.8,2.85,-3.64,-4.69,-7.7,-5.25,3.1875,-1.4375,-7.0625,-5.75,20.0625,242.875,-21.3125,148.0,0,1.8689999999999998,9.700851089466326,0.23924851096715313,9.757639067417898,0.21000026190459858,9.722947084089268,6.307857203520067
39.31,9.4451,2.5426,-1.3647,-0.1394,-0.1466,0.1716,-70.2,-0.3,-42.9,9.8809,-0.1221,0.6512,0.1689,-0.1274,0.1021,-27.6,13.8,2.85,-3.66,-4.59,-7.65,-5.25,3.1875,-1.4375,-7.0625,-5.75,20.0625,242.875,-21.3125,148.0,0,1.875,9.876089046783651,0.2652743485525881,9.903088137545783,0.2349093016464014,9.642935237779003,6.307857203520067
39.315,9.3757,2.3343,-1.3479,-0.1394,-0.1466,0.1716,-70.2,-0.3,-42.9,9.8809,-0.1221,0.6512,0.1764,-0.1303,0.1061,-27.6,15.3,2.1,-3.6,-4.65,-7.73,-5.5625,2.9375,-1.375,-7.5,-5.75,21.6875,242.875,-21.25,148.0625,0,1.8799999999999955,9.755487757667476,0.2652743485525881,9.903088137545783,0.24362319265620014,9.71264124736418,6.439016811594764
39.32,9.3757,2.3343,-1.3479,-0.0935,-0.1506,0.1705,-70.2,-0.3,-42.9,9.9503,-0.1772,0.8045,0.1761,-0.1282,0.1069,-27.6,15.3,2.1,-3.6,-4.65,-7.73,-5.5625,2.9375,-1.375,-7.5,-5.75,21.6875,242.875,-21.25,148.0625,0,1.884999999999998,9.755487757667476,0.24595296298276223,9.984342250744414,0.2426397741509005,9.71264124736418,6.439016811594764
39.325,9.4068,2.2673,-1.233,-0.0935,-0.1506,0.1705,-70.2,-0.3,-42.9,9.9503,-0.1772,0.8045,0.1889,-0.141,0.1074,-28.5,14.4,2.55,-3.57,-4.65,-7.71,-5.1875,2.5,-1.4375,-7.5,-5.75,21.6875,242.875,-21.25,148.125,0,1.8900000000000006,9.754425894433767,0.24595296298276223,9.984342250744414,0.2590346887966938,9.685633691194397,5.935196921754155
39.33,9.4068,2.2673,-1.233,-0.1037,-0.1031,0.1708,-70.35,-0.15,-43.5,9.7468,-0.3017,1.0918,0.186,-0.1404,0.1047,-28.5,14.4,2.55,-3.57,-4.65,-7.71,-5.1875,2.5,-1.4375,-7.5,-5.75,21.6875,242.875,-21.25,148.125,0,1.894999999999996,9.754425894433767,0.22484648095978732,9.81239829858124,0.2554804297788776,9.685633691194397,5.935196921754155
39.335,9.1626,2.1332,-1.2785,-0.138,-0.1154,0.1743,-70.35,-0.15,-43.5,9.7468,-0.3017,1.0918,0.1812,-0.1516,0.0845,-28.95,14.25,0.6,-3.56,-4.77,-7.67,-5.25,1.875,-1.4375,-7.5,-5.75,21.6875,242.875,-21.25,148.1875,0,1.8999999999999986,9.494121510176704,0.25048283374315294,9.81239829858124,0.25091084073829895,9.708522029639733,5.757128733144674
39.34,9.1626,2.1332,-1.2785,-0.138,-0.1154,0.1743,-70.05,-2.1,-42.0,9.6702,-0.644,0.8906,0.1889,-0.1503,0.0773,-28.95,14.25,0.6,-3.56,-4.77,-7.67,-5.25,1.875,-1.4375,-7.5,-5.75,21.6875,242.8125,-21.1875,148.25,0,1.9050000000000011,9.494121510176704,0.25048283374315294,9.732454592753053,0.2534730557672748,9.708522029639733,5.757128733144674
39.349,9.153,2.2362,-1.4748,-0.1116,-0.0989,0.1921,-71.1,-1.35,-42.75,9.7133,-0.6632,1.0654,0.2129,-0.1823,0.0679,-28.2,14.25,1.35,-3.65,-4.62,-7.65,-5.625,1.5625,-0.9375,-7.5,-5.75,21.6875,242.8125,-21.1875,148.25,0,1.9139999999999944,9.536930034345433,0.24318342871174425,9.794034321463245,0.2883922849176101,9.653465698908347,5.912777477632656
39.354,9.3111,2.5522,-1.4126,-0.1066,-0.069,0.2217,-71.1,-1.35,-42.75,9.7133,-0.6632,1.0654,0.1194,-0.1639,0.0693,-28.2,14.25,1.35,-3.65,-4.62,-7.65,-6.0625,1.8125,-0.75,-7.5,-5.75,21.6875,242.8125,-21.1875,148.3125,0,1.918999999999997,9.757343224976767,0.25549060648094285,9.794034321463245,0.2142943303029737,9.653465698908347,6.371935537966467
39.36,9.3111,2.5522,-1.4126,-0.1066,-0.069,0.2217,-70.95,-1.95,-42.45,9.7755,-0.6943,0.9577,0.1066,-0.1625,0.0709,-28.2,14.25,1.35,-3.65,-4.5,-7.7,-6.0625,1.8125,-0.75,-7.5,-5.75,21.6875,242.8125,-21.1875,148.3125,0,1.9249999999999972,9.757343224976767,0.25549060648094285,9.846808723134616,0.20687343957115423,9.636519081079019,6.371935537966467
39.365,9.3589,2.7198,-1.4174,-0.1047,-0.0959,0.2419,-70.95,-1.95,-42.45,9.912,-0.6033,0.7661,-0.0061,-0.1684,0.0616,-28.2,14.25,1.35,-3.65,-4.5,-7.7,-6.375,1.6875,-1.0625,-7.5,-6.0625,20.5,242.8125,-21.1875,148.375,0,1.9299999999999997,9.848621426880008,0.2804897680843278,9.959850606309315,0.1794166380244597,9.636519081079019,6.679609831419796
39.37,9.3589,2.7198,-1.4174,-0.1047,-0.0959,0.2419,-70.95,-1.95,-42.45,9.912,-0.6033,0.7661,-0.0061,-0.1684,0.0616,-28.2,14.25,1.35,-3.53,-4.57,-7.68,-6.375,1.6875,-1.0625,-7.5,-6.0625,20.5,242.8125,-21.1875,148.375,0,1.9349999999999952,9.848621426880008,0.2804897680843278,9.959850606309315,0.1794166380244597,9.608756423179848,6.679609831419796
39.375,9.2416,2.8228,-1.3623,-0.064,-0.1053,0.2473,-70.95,-1.95,-42.45,9.7923,-0.2322,0.9026,-0.0139,-0.198,0.0661,-27.3,15.15,0.45,-3.53,-4.57,-7.68,-6.125,0.8125,-1.0,-7.5,-6.0625,20.5,242.8125,-21.1875,148.4375,0,1.9399999999999977,9.758649070952393,0.2762994390149933,9.836551371796926,0.20920425425884628,9.608756423179848,6.2590559391972205
39.38,9.2416,2.8228,-1.3623,-0.064,-0.1053,0.2473,-71.25,-1.5,-42.15,9.7923,-0.2322,0.9026,-0.0139,-0.198,0.0661,-27.3,15.15,0.45,-3.56,-4.58,-7.71,-6.125,0.8125,-1.0,-7.5,-6.0625,20.5,242.8125,-21.1875,148.4375,0,1.9450000000000003,9.758649070952393,0.2762994390149933,9.836551371796926,0.20920425425884628,9.648528385199475,6.2590559391972205
39.385,9.0453,2.909,-1.2665,0.0011,-0.1039,0.2326,-71.25,-1.5,-42.15,9.7109,0.3735,0.8164,-0.0072,-0.2156,0.0749,-27.9,13.5,2.1,-3.68,-4.57,-7.7,-5.8125,0.25,-0.75,-7.5,-6.0625,20.5,242.75,-21.1875,148.5,0,1.9499999999999957,9.585601459480776,0.2547531746612788,9.752312034589542,0.2283532570383002,9.680769597506183,5.866017068676156
39.39,9.0453,2.909,-1.2665,0.0011,-0.1039,0.2326,-71.25,-1.5,-42.15,9.7109,0.3735,0.8164,-0.0072,-0.2156,0.0749,-27.9,13.5,2.1,-3.68,-4.57,-7.7,-5.8125,0.25,-0.75,-7.5,-6.0625,20.5,242.75,-21.1875,148.5,0,1.9549999999999983,9.585601459480776,0.2547531746612788,9.752312034589542,0.2283532570383002,9.680769597506183,5.866017068676156
39.399,9.1387,2.8539,-1.3479,0.0895,-0.0917,0.2129,-70.5,-2.25,-42.15,9.651,0.6393,0.9122,-0.025,-0.2244,0.0754,-28.65,14.25,1.65,-3.62,-4.68,-7.65,-5.5625,0.4375,-0.9375,-7.5,-6.0625,20.5,242.75,-21.1875,148.5,0,1.9639999999999986,9.668372009288843,0.2484865187490058,9.715071504111537,0.23804520579083294,9.67105475116339,5.657889955628335
39.405,9.3637,2.873,-1.2977,0.1178,-0.0981,0.215,-70.5,-2.25,-42.15,9.8426,0.5028,0.984,-0.0133,-0.2577,0.0677,-27.3,12.9,2.55,-3.58,-4.79,-7.6,-5.8125,0.75,-1.0,-7.5,-6.0625,20.5,242.75,-21.1875,148.5625,0,1.9699999999999989,9.880133196470581,0.26405577062431335,9.90443529939996,0.26677606714246316,9.67059977457448,5.945389495230737
39.41,9.3637,2.873,-1.2977,0.1178,-0.0981,0.215,-70.35,-3.3,-42.75,9.8426,0.5028,0.984,-0.0133,-0.2577,0.0677,-27.3,12.9,2.55,-3.58,-4.79,-7.6,-5.8125,0.75,-1.0,-7.5,-6.0625,20.5,242.75,-21.1875,148.5625,0,1.9749999999999943,9.880133196470581,0.26405577062431335,9.90443529939996,0.26677606714246316,9.67059977457448,5.945389495230737
39.415,9.4619,2.5929,-1.4629,0.1498,-0.1247,0.2025,-70.35,-3.3,-42.75,9.8306,-0.1604,0.4621,-0.0101,-0.2843,0.0653,-27.3,12.9,2.55,-3.58,-4.79,-7.6,-7.0,1.5,-0.375,-7.0625,-5.75,22.0625,242.75,-21.125,148.625,0,1.9799999999999969,9.919211583084616,0.2810629466863251,9.84276185478446,0.2918776969896809,9.67059977457448,7.168725479469834
39.42,9.3685,2.4541,-1.6113,0.1498,-0.1247,0.2025,-70.35,-2.1,-42.3,9.8306,-0.1604,0.4621,-0.0101,-0.2843,0.0653,-27.3,12.9,2.55,-3.55,-4.84,-7.61,-7.0,1.5,-0.375,-7.0625,-5.75,22.0625,242.75,-21.125,148.625,0,1.9849999999999994,9.817723093976525,0.2810629466863251,9.84276185478446,0.2918776969896809,9.692275274671061,7.168725479469834
39.425,9.3685,2.4541,-1.6113,0.15,-0.1676,0.2038,-70.35,-2.1,-42.3,9.7947,-0.6608,0.6752,0.048,-0.3083,0.0762,-27.0,13.65,1.2,-3.55,-4.84,-7.61,-7.8125,1.75,-0.0625,-7.0625,-5.75,22.0625,242.6875,-21.125,148.75,0,1.9899999999999949,9.817723093976525,0.3035196863467014,9.840157507377613,0.3211842617563943,9.692275274671061,8.00634513994994
39.43,9.3158,2.3703,-1.7358,0.15,-0.1676,0.2038,-71.1,-3.6,-43.05,9.7947,-0.6608,0.6752,0.048,-0.3083,0.0762,-27.0,13.65,1.2,-3.65,-4.68,-7.66,-7.8125,1.75,-0.0625,-7.0625,-5.75,22.0625,242.6875,-21.125,148.75,0,1.9949999999999974,9.768083403104214,0.3035196863467014,9.840157507377613,0.3211842617563943,9.690227035523987,8.00634513994994
39.435,9.3158,2.3703,-1.7358,0.1585,-0.1799,0.214,-71.1,-3.6,-43.05,9.7851,-0.6057,0.6057,0.0128,-0.2915,0.1042,-27.75,13.65,0.15,-3.66,-4.43,-7.84,-8.0625,2.1875,0.1875,-7.0625,-5.75,22.0625,242.6875,-21.125,148.8125,0,2.0,9.768083403104214,0.32137557467859934,9.822521417131144,0.30982854936238524,9.720396082464953,8.356088723200585
39.44,9.4308,2.5618,-1.9752,0.1585,-0.1799,0.214,-71.1,-3.6,-43.05,9.7851,-0.6057,0.6057,0.0128,-0.2915,0.1042,-27.75,13.65,0.15,-3.66,-4.43,-7.84,-8.0625,2.1875,0.1875,-7.0625,-5.75,22.0625,242.6875,-21.125,148.8125,0,2.0049999999999955,9.970166644545115,0.32137557467859934,9.822521417131144,0.30982854936238524,9.720396082464953,8.356088723200585
39.449,9.3853,2.648,-1.9082,0.1753,-0.1756,0.227,-69.15,-3.6,-41.25,9.9144,-0.103,0.4094,-0.0879,-0.2649,0.1258,-27.15,13.5,1.35,-3.6,-4.46,-7.86,-7.9375,2.4375,0.0,-7.0625,-5.75,22.0625,242.6875,-21.125,148.875,0,2.013999999999996,9.936648697121178,0.3362951828379348,9.923383733384496,0.30614385507470177,9.727856906842328,8.303331409741514
39.459,9.3853,2.5355,-1.8651,0.1479,-0.2044,0.2353,-69.15,-3.6,-41.25,9.9431,0.2514,0.4046,-0.129,-0.2801,0.1308,-28.65,14.25,1.35,-3.55,-4.48,-7.87,-7.4375,2.125,-0.375,-7.0625,-5.75,22.0625,242.6875,-21.125,149.0,0,2.024000000000001,9.89905118433075,0.3449925506442132,9.95450354010686,0.334971118157969,9.726756910707701,7.744201459802037
39.464,9.3853,2.5355,-1.8651,0.1268,-0.2222,0.2289,-69.15,-3.6,-41.25,9.8569,0.5555,0.6249,-0.053,-0.3094,0.1394,-28.65,14.25,1.35,-3.55,-4.48,-7.87,-7.4375,2.125,-0.375,-7.0625,-5.75,22.0625,242.6875,-21.125,149.0,0,2.0289999999999964,9.89905118433075,0.3432874742835806,9.89229790645227,0.34346720367452843,9.726756910707701,7.744201459802037
39.469,9.4116,2.4995,-1.7119,0.0986,-0.2329,0.2321,-70.2,-2.7,-42.9,9.8569,0.5555,0.6249,-0.0152,-0.32,0.1354,-28.65,14.25,1.35,-3.52,-4.6,-7.78,-6.3125,1.875,-0.375,-8.25,-5.75,20.875,242.6875,-21.0625,149.0625,0,2.033999999999999,9.887179396572108,0.3432707094990774,9.89229790645227,0.3477990799297779,9.699422663231044,6.595749104536952
39.474,9.4116,2.4995,-1.7119,0.0986,-0.2329,0.2321,-70.2,-2.7,-42.9,9.9479,0.5578,0.7039,-0.0117,-0.3198,0.1391,-27.3,14.7,0.15,-3.52,-4.6,-7.78,-6.3125,1.875,-0.375,-8.25,-5.75,20.875,242.6875,-21.0625,149.125,0,2.0389999999999944,9.887179396572108,0.3432707094990774,9.988359748226932,0.3489380174185667,9.699422663231044,6.595749104536952
39.479,9.4475,2.5809,-1.6257,0.0882,-0.2294,0.2214,-71.55,-2.85,-43.8,9.9479,0.5578,0.7039,0.0101,-0.3379,0.1399,-27.3,14.7,0.15,-3.49,-4.67,-7.8,-5.875,1.75,-0.25,-8.25,-5.75,20.875,242.6875,-21.0625,149.125,0,2.043999999999997,9.92769870362714,0.3307892984967924,9.988359748226932,0.3658557502623131,9.738018278890218,6.135195595904014
39.484,9.4475,2.5809,-1.6257,0.0882,-0.2294,0.2214,-71.55,-2.85,-43.8,10.1586,0.6081,1.008,0.0163,-0.3376,0.1412,-27.75,13.65,0.15,-3.49,-4.67,-7.8,-5.8125,1.3125,0.25,-8.25,-5.75,20.875,242.6875,-21.0625,149.1875,0,2.0489999999999995,9.92769870362714,0.3307892984967924,10.226583181591005,0.36630163799797566,9.738018278890218,5.964085219042397
39.49,9.4427,2.7605,-1.4533,0.0576,-0.2329,0.1943,-70.05,-3.6,-43.05,10.1347,0.4022,1.1492,0.0218,-0.3523,0.1665,-27.75,13.65,0.15,-3.55,-4.6,-7.89,-5.8125,1.3125,0.25,-8.25,-5.75,20.875,242.6875,-21.0625,149.1875,0,2.0549999999999997,9.944698307641113,0.30872748500902863,10.207574127578011,0.3902726995320067,9.798703995937421,5.964085219042397
39.499,9.4595,2.8898,-1.221,-0.012,-0.2563,0.1855,-70.05,-3.6,-42.3,10.1347,0.4022,1.1492,0.0234,-0.3488,0.1788,-28.05,13.65,0.15,-3.53,-4.63,-7.9,-5.3125,0.625,0.75,-8.25,-5.75,20.875,242.6875,-21.0625,149.1875,0,2.064,9.966138935916959,0.31661323408853265,10.207574127578011,0.3926556251984683,9.81365375382686,5.4014610292031175
39.504,9.4595,2.8898,-1.221,-0.012,-0.2563,0.1855,-70.05,-3.6,-42.3,10.2855,0.4405,1.087,0.0234,-0.3488,0.1788,-27.9,13.8,0.3,-3.53,-4.63,-7.9,-5.0625,-0.4375,1.0,-8.25,-5.75,20.875,242.6875,-21.0625,149.25,0,2.0689999999999955,9.966138935916959,0.31661323408853265,10.35215530698801,0.3926556251984683,9.81365375382686,5.178833121466649
39.51,9.5481,2.8347,-1.154,-0.1045,-0.2769,0.1777,-70.05,-3.6,-42.3,10.2639,0.182,0.7135,0.0075,-0.3523,0.1873,-27.6,12.75,0.6,-3.58,-4.81,-7.87,-5.0625,-0.4375,1.0,-8.25,-5.75,20.875,242.6875,-21.0625,149.25,0,2.0749999999999957,10.026637207957611,0.34521174661358206,10.290279367441876,0.3990649445892235,9.893907216059791,5.178833121466649
39.515,9.5481,2.8347,-1.154,-0.1045,-0.2769,0.1777,-70.05,-3.6,-42.3,10.2639,0.182,0.7135,0.0075,-0.3523,0.1873,-27.6,12.75,0.6,-3.58,-4.81,-7.87,-4.625,-1.875,1.4375,-8.25,-6.5,21.6875,242.6875,-21.0625,149.3125,0,2.0799999999999983,10.026637207957611,0.34521174661358206,10.290279367441876,0.3990649445892235,9.893907216059791,5.193520602635557
39.52,9.5744,2.5546,-1.1875,-0.1711,-0.3024,0.1668,-69.45,-3.9,-43.2,10.2783,-0.3615,0.0766,0.0088,-0.3528,0.1998,-27.6,12.75,0.6,-3.57,-4.87,-7.85,-4.625,-1.875,1.4375,-8.25,-6.5,21.6875,242.6875,-21.0625,149.3125,0,2.085000000000001,9.980244123767715,0.3854130381811181,10.284940481111207,0.40554324060450075,9.903751814337838,5.193520602635557
39.525,9.5744,2.5546,-1.1875,-0.1711,-0.3024,0.1668,-69.45,-3.9,-43.2,10.2783,-0.3615,0.0766,0.0088,-0.3528,0.1998,-27.6,12.75,0.6,-3.57,-4.87,-7.85,-4.75,-3.125,1.75,-8.25,-6.5,21.6875,242.6875,-21.125,149.375,0,2.0899999999999963,9.980244123767715,0.3854130381811181,10.284940481111207,0.40554324060450075,9.903751814337838,5.949002017145397
39.53,9.3925,1.9393,-1.4198,-0.1966,-0.3275,0.1468,-69.45,-3.9,-43.2,9.9527,-1.0247,-0.1269,-0.0032,-0.3421,0.1982,-28.05,12.45,0.45,-3.52,-4.91,-7.91,-4.75,-3.125,1.75,-8.25,-6.5,21.6875,242.6875,-21.125,149.375,0,2.094999999999999,9.69514171015566,0.4092163853024461,10.00611567942326,0.3953806899685416,9.953220584313401,5.949002017145397
39.535,9.3925,1.9393,-1.4198,-0.1966,-0.3275,0.1468,-69.45,-3.9,-43.2,9.9527,-1.0247,-0.1269,-0.0032,-0.3421,0.1982,-28.05,12.45,0.45,-3.54,-4.69,-7.83,-5.375,-4.625,2.375,-8.25,-6.5,21.6875,242.6875,-21.1875,149.375,0,2.0999999999999943,9.69514171015566,0.4092163853024461,10.00611567942326,0.3953806899685416,9.789616948583841,7.478093005573012
39.54,9.4475,1.4748,-1.6065,-0.215,-0.307,0.1479,-71.1,-3.6,-43.5,9.7731,-1.4796,-0.1197,-0.0141,-0.3469,0.2158,-27.3,13.65,0.15,-3.54,-4.69,-7.83,-5.375,-4.625,2.375,-8.25,-6.5,21.6875,242.6875,-21.1875,149.375,0,2.104999999999997,9.695933866317365,0.40292481929014995,9.88519235321195,0.4087885272362716,9.789616948583841,7.478093005573012
39.549,9.5624,1.0965,-1.8938,-0.2505,-0.364,0.1737,-70.8,-3.6,-43.5,9.754,-1.2402,-0.0383,-0.0253,-0.3544,0.21,-27.3,13.65,0.15,-3.53,-4.5,-7.92,-6.3125,-6.0625,2.9375,-8.25,-6.5,21.6875,242.6875,-21.25,149.4375,0,2.113999999999997,9.809601645836594,0.4747819920763634,9.832602856314294,0.41272200086741195,9.769201605044293,9.232034919236387
39.559,9.6941,1.0199,-1.9369,-0.2182,-0.445,0.1927,-69.45,-5.4,-42.45,9.8162,-0.8499,-0.2562,-0.0344,-0.3477,0.1993,-27.6,14.25,-1.05,-3.61,-4.33,-7.97,-6.375,-6.5625,3.375,-8.25,-6.5,21.6875,242.6875,-21.3125,149.5,0,2.1239999999999952,9.938176514330987,0.5317607826833416,9.85625440469147,0.402242638217283,9.76226920341782,9.751802717959382
39.564,9.6127,0.9577,-2.0135,-0.2182,-0.445,0.1927,-69.45,-5.4,-42.45,9.8162,-0.8499,-0.2562,-0.0344,-0.3477,0.1993,-27.6,14.25,-1.05,-3.61,-4.33,-7.97,-6.375,-6.5625,3.375,-8.25,-6.5,21.6875,242.6875,-21.3125,149.5,0,2.128999999999998,9.867896069071664,0.5317607826833416,9.85625440469147,0.402242638217283,9.76226920341782,9.751802717959382
39.569,9.6127,0.9577,-2.0135,-0.1911,-0.481,0.2169,-69.6,-2.4,-42.45,9.8521,-0.4597,-0.3879,-0.029,-0.3501,0.1857,-27.6,14.25,-1.05,-3.58,-4.45,-7.91,-5.5,-7.4375,3.0625,-7.875,-6.375,22.0625,242.6875,-21.375,149.5625,0,2.1340000000000003,9.867896069071664,0.5611825193286049,9.870444007743522,0.3973606674043117,9.756382526326036,9.743988531397191
39.574,9.6127,0.9792,-2.1596,-0.1911,-0.481,0.2169,-69.6,-2.4,-43.05,9.8521,-0.4597,-0.3879,-0.029,-0.3501,0.1857,-27.6,14.25,-1.05,-3.58,-4.45,-7.91,-5.5,-7.4375,3.0625,-7.875,-6.375,22.0625,242.6875,-21.375,149.5625,0,2.138999999999996,9.90084370596769,0.5611825193286049,9.870444007743522,0.3973606674043117,9.756382526326036,9.743988531397191
39.58,9.6127,0.9792,-2.1596,-0.1839,-0.4938,0.2345,-68.85,-3.3,-42.75,10.0054,-0.1796,-0.5555,0.0237,-0.3629,0.1676,-27.75,13.95,-2.25,-3.59,-4.49,-7.94,-3.6875,-7.875,2.625,-7.875,-6.375,22.0625,242.6875,-21.4375,149.625,0,2.144999999999996,9.90084370596769,0.5767563610399109,10.022418149827915,0.4004345889155931,9.802642500876996,9.083166091732553
39.589,9.6534,0.9481,-2.3966,-0.1687,-0.5041,0.2329,-68.85,-3.3,-42.75,10.0533,-0.1676,-0.5291,0.0802,-0.3557,0.1423,-26.4,13.05,-1.65,-3.62,-4.56,-7.94,-1.8125,-8.25,2.5625,-7.875,-6.375,22.0625,242.6875,-21.5625,149.625,0,2.1539999999999964,9.99153225136165,0.5803610169541025,10.068608516572684,0.3914125956072441,9.845892544609656,8.826894272619334
39.599,9.7636,1.0487,-2.5594,-0.1378,-0.5367,0.215,-69.45,-4.65,-42.45,10.1203,-0.237,-0.8164,0.0727,-0.2825,0.117,-26.85,13.05,-1.65,-3.58,-4.64,-7.95,0.4375,-8.125,3.0625,-7.875,-6.375,22.0625,242.6875,-21.625,149.625,0,2.1639999999999944,10.147816760761893,0.5943574093085742,10.155941613164188,0.31429371613190105,9.876664416694535,8.694017339527223
39.604,9.9168,1.1732,-2.9808,-0.1503,-0.5423,0.1916,-69.45,-4.65,-42.45,10.1203,-0.237,-0.8164,0.0727,-0.2825,0.117,-26.85,13.05,-1.65,-3.58,-4.64,-7.95,3.5625,-6.875,4.5625,-7.875,-6.375,22.0625,242.6875,-21.6875,149.5625,0,2.168999999999997,10.421347759287183,0.5944660965942465,10.155941613164188,0.31429371613190105,9.876664416694535,8.987404380576185
39.611,9.9168,1.1732,-2.9808,-0.1503,-0.5423,0.1916,-69.6,-3.3,-43.05,10.228,-0.1604,-0.9409,0.0195,-0.2054,0.1053,-26.4,12.75,-1.35,-3.5,-4.82,-7.98,3.5625,-6.875,4.5625,-7.875,-6.375,22.0625,242.6875,-21.6875,149.5625,0,2.175999999999995,10.421347759287183,0.5944660965942465,10.27243909546316,0.231640885855671,9.958052018341741,8.987404380576185
39.615,9.9072,1.3144,-3.1532,-0.1591,-0.5868,0.1567,-69.6,-3.3,-43.05,10.5034,0.0215,-1.2426,0.0005,-0.1937,0.1308,-26.4,12.75,-1.35,-3.6,-4.88,-8.05,8.1875,-5.0,6.6875,-7.875,-6.375,21.6875,242.8125,-21.75,149.5,0,2.1799999999999997,10.47964357409163,0.6278550310382167,10.576669067811471,0.233727576464567,10.078536600122064,11.694349597134506
39.62,9.9072,1.3144,-3.1532,-0.1591,-0.5868,0.1567,-69.6,-3.6,-44.25,10.5034,0.0215,-1.2426,0.0005,-0.1937,0.1308,-27.9,13.5,0.0,-3.6,-4.88,-8.05,8.1875,-5.0,6.6875,-7.875,-6.375,21.6875,242.8125,-21.75,149.5,0,2.184999999999995,10.47964357409163,0.6278550310382167,10.576669067811471,0.233727576464567,10.078536600122064,11.694349597134506
39.625,9.8641,1.3623,-3.5817,-0.1599,-0.6414,0.1226,-69.6,-3.6,-44.25,10.4675,-0.0718,-1.6903,0.0509,-0.2009,0.1649,-27.9,13.5,0.0,-3.69,-5.01,-8.03,13.0,-3.875,8.4375,-7.875,-6.375,21.6875,242.875,-21.875,149.375,0,2.1899999999999977,10.582292048039498,0.6723040458007076,10.603340302942275,0.264846427198858,10.158597344121874,15.975200507348882
39.63,9.8641,1.3623,-3.5817,-0.1599,-0.6414,0.1226,-67.2,-3.45,-44.7,10.4675,-0.0718,-1.6903,0.0509,-0.2009,0.1649,-27.9,13.5,0.0,-3.69,-5.01,-8.03,13.0,-3.875,8.4375,-7.875,-6.375,21.6875,242.875,-21.875,149.375,0,2.1950000000000003,10.582292048039498,0.6723040458007076,10.603340302942275,0.264846427198858,10.158597344121874,15.975200507348882
39.639,9.7707,1.3838,-3.8954,-0.1649,-0.7027,0.0807,-67.2,-3.45,-44.7,10.1155,0.0694,-1.7262,0.1226,-0.182,0.2073,-26.85,12.3,-1.05,-3.8,-4.94,-8.09,14.9375,-4.375,8.25,-7.875,-6.375,21.6875,243.0,-21.9375,149.25,0,2.2040000000000006,10.609223444248876,0.7262863002976168,10.261964872771687,0.30187422877748277,10.212330781951787,17.61624339210832
39.649,9.4475,1.312,-4.0773,-0.1617,-0.7301,0.0458,-68.4,-2.1,-43.8,9.9144,0.1987,-1.6759,0.1463,-0.1471,0.2598,-28.8,12.45,-1.2,-3.8,-4.94,-8.05,14.5,-5.6875,7.0625,-7.875,-6.375,21.6875,243.0625,-22.0,149.125,0,2.2139999999999986,10.373089006655636,0.7491932594464529,10.057009986074391,0.33247276580195256,10.180672865778568,17.101946161182944
39.659,9.1818,1.3001,-4.221,-0.1591,-0.7544,0.0051,-69.0,-2.25,-42.9,9.8282,0.498,-1.4126,0.1399,-0.1143,0.3112,-27.15,12.0,-1.35,-3.87,-4.94,-8.11,13.875,-7.0,5.625,-7.875,-6.375,21.6875,243.125,-22.125,149.0,0,2.2239999999999966,10.188844500236522,0.7710111412943395,9.941677826202175,0.35983599041785685,10.254394180057641,16.527439305591173
39.664,8.9399,1.2306,-4.3383,-0.1418,-0.7631,-0.0309,-68.7,-3.9,-44.7,9.7899,0.6728,-1.1181,0.2017,-0.0789,0.3541,-27.15,12.0,-1.35,-3.87,-4.94,-8.11,13.875,-7.0,5.625,-7.875,-6.375,21.6875,243.125,-22.125,149.0,0,2.228999999999999,10.012843515205857,0.7767777416996448,9.87648467117729,0.41508422036979437,10.254394180057641,16.527439305591173
39.669,8.9399,1.2306,-4.3383,-0.1418,-0.7631,-0.0309,-68.7,-3.9,-44.7,9.7899,0.6728,-1.1181,0.2017,-0.0789,0.3541,-28.5,11.4,-1.5,-3.91,-4.95,-8.09,14.0625,-6.625,4.1875,-7.5,-5.875,22.0625,243.1875,-22.1875,148.875,0,2.2339999999999947,10.012843515205857,0.7767777416996448,9.87648467117729,0.41508422036979437,10.258591521256706,16.099058590489072
39.674,9.0094,1.2186,-4.5107,-0.1396,-0.7408,-0.0442,-68.7,-3.9,-44.7,9.9503,1.0942,-0.723,0.3456,-0.0773,0.3885,-28.5,11.4,-1.5,-3.91,-4.95,-8.09,14.0625,-6.625,4.1875,-7.5,-5.875,22.0625,243.1875,-22.1875,148.875,0,2.238999999999997,10.148925500268488,0.7551333921897508,10.03635754295352,0.5256870742181132,10.258591521256706,16.099058590489072
39.679,9.2273,1.3862,-4.5945,-0.1396,-0.7408,-0.0442,-68.7,-3.9,-44.7,9.9503,1.0942,-0.723,0.3456,-0.0773,0.3885,-28.5,11.4,-1.5,-3.9,-5.2,-7.99,14.9375,-7.1875,2.4375,-7.5,-5.875,22.0625,243.1875,-22.25,148.75,0,2.2439999999999998,10.400675265577712,0.7551333921897508,10.03635754295352,0.5256870742181132,10.300004854367788,16.755013242310493
39.684,9.2273,1.3862,-4.5945,-0.1156,-0.7576,-0.0576,-67.2,-2.25,-45.15,10.0269,1.2186,-0.4812,0.485,-0.0722,0.4173,-28.5,11.4,-1.5,-3.9,-5.2,-7.99,15.5625,-7.4375,0.9375,-7.5,-5.875,22.0625,243.25,-22.3125,148.5625,0,2.2489999999999952,10.400675265577712,0.7685303377225912,10.112134443825399,0.6438766419120979,10.300004854367788,17.273873877911694
39.69,9.4427,1.5874,-4.6136,-0.118,-0.7733,-0.0847,-67.2,-2.25,-45.15,10.0269,1.2186,-0.4812,0.485,-0.0722,0.4173,-26.25,12.45,-1.5,-4.13,-5.86,-7.96,15.5625,-7.4375,0.9375,-7.5,-5.875,22.0625,243.25,-22.375,148.375,0,2.2549999999999955,10.628721795681738,0.786823347391268,10.112134443825399,0.6438766419120979,10.712520711765276,17.273873877911694
39.7,9.4715,1.7095,-4.5298,-0.1255,-0.7733,-0.1271,-67.2,-4.2,-46.2,10.2352,1.1947,-0.4453,0.6643,-0.0671,0.4461,-27.3,11.7,-1.2,-4.26,-6.6,-7.66,14.0625,-7.75,-1.25,-7.5,-5.875,22.0625,243.1875,-22.4375,148.3125,0,2.2650000000000006,10.637236038558138,0.7936608532616435,10.314306531221574,0.8029957098266466,10.971927816022122,16.10524468146945
39.71,9.1866,1.7334,-4.3622,-0.1537,-0.7605,-0.1961,-66.0,-3.0,-45.9,10.1131,0.826,-0.0479,0.7674,-0.0546,0.4903,-26.85,12.75,-2.4,-5.22,-7.2,-7.69,7.75,-9.0625,-5.9375,-7.5,-5.875,22.0625,243.1875,-22.4375,148.3125,0,2.2749999999999986,10.316350321698076,0.8002744216829624,10.146889278000424,0.9122927216633925,11.756891595995942,13.32086005106277
39.715,9.1866,1.7334,-4.3622,-0.1537,-0.7605,-0.1961,-67.5,-3.45,-45.45,9.9575,0.2921,0.2442,0.9092,-0.0234,0.55,-26.85,12.75,-2.4,-5.22,-7.2,-7.69,7.75,-9.0625,-5.9375,-7.0625,-5.5625,21.25,243.0,-22.4375,148.25,0,2.280000000000001,10.316350321698076,0.8002744216829624,9.964776078768654,1.0628697944715524,11.756891595995942,13.32086005106277
39.72,9.0166,1.822,-4.2737,-0.1585,-0.7376,-0.2718,-67.5,-3.45,-45.45,9.9575,0.2921,0.2442,0.9092,-0.0234,0.55,-27.3,11.7,-3.0,-5.24,-6.75,-7.76,-4.0,-11.0,-12.375,-7.0625,-5.5625,21.25,243.0,-22.4375,148.25,0,2.2849999999999966,10.143139122086417,0.801904763672096,9.964776078768654,1.0628697944715524,11.542863596179242,17.033514757676997
39.725,9.0166,1.822,-4.2737,-0.1585,-0.7376,-0.2718,-66.6,-2.85,-46.05,10.1131,0.4741,0.7973,1.0459,0.0618,0.6142,-27.3,11.7,-3.0,-5.24,-6.75,-7.76,-4.0,-11.0,-12.375,-7.0625,-5.5625,21.25,242.6875,-22.4375,148.375,0,2.289999999999999,10.143139122086417,0.801904763672096,10.155552654090272,1.214482478259773,11.542863596179242,17.033514757676997
39.73,9.2632,1.9824,-4.1037,-0.1071,-0.8148,-0.3589,-66.6,-2.85,-46.05,10.1131,0.4741,0.7973,1.0459,0.0618,0.6142,-27.3,11.7,-3.0,-4.89,-7.12,-6.81,-19.5,-10.9375,-23.0625,-7.0625,-5.5625,21.25,242.6875,-22.4375,148.375,0,2.2949999999999946,10.323620377077026,0.8967600905481912,10.155552654090272,1.214482478259773,10.999209062473538,32.120987103449984
39.738,9.086,2.0518,-3.6751,-0.0882,-0.6544,-0.4247,-66.75,-3.45,-47.7,10.3501,0.7997,0.5243,1.1109,0.11,0.6568,-27.3,11.7,-3.0,-6.46,-8.79,-4.59,-36.375,-22.5,-44.875,-7.0625,-5.5625,21.25,242.125,-22.375,148.5,0,2.3029999999999973,10.013572751520808,0.7851042542236031,10.394180130727001,1.2952162174710447,11.834855301185561,61.993195191085285
39.743,9.086,2.0518,-3.6751,-0.0882,-0.6544,-0.4247,-66.75,-3.45,-47.7,10.5536,1.2617,0.8164,1.3225,0.1601,0.7077,-27.3,11.7,-3.0,-6.46,-8.79,-4.59,-36.375,-22.5,-44.875,-7.0625,-5.5625,21.25,241.3125,-22.5,148.625,0,2.308,10.013572751520808,0.7851042542236031,10.66005951249804,1.508468610876607,11.834855301185561,61.993195191085285
39.75,9.1387,2.0758,-3.3399,0.0362,-0.6011,-0.5023,-66.75,-3.45,-47.7,10.5536,1.2617,0.8164,1.6369,0.1724,0.7424,-28.05,9.45,-1.2,-6.86,-8.41,-5.14,-46.0625,-54.0625,-63.9375,-7.0625,-5.5625,21.25,240.3125,-22.8125,148.75,0,2.3149999999999977,9.948854976327677,0.7841791504496916,10.66005951249804,1.8056359350655382,12.008634393635273,95.56417591728608
39.76,9.086,2.4205,-3.2274,0.1604,-0.5478,-0.5593,-66.6,-2.85,-48.3,10.2568,1.5754,0.9553,1.9915,0.1998,0.7701,-26.85,9.3,-2.1,-6.81,-8.26,-5.22,-56.4375,-76.0625,-66.75,-7.0625,-5.5625,21.25,240.3125,-22.8125,148.75,0,2.3249999999999957,9.941344326095944,0.7991429721895826,10.420961063644754,2.1445387149687924,11.910167924928682,115.87172999701005
39.765,9.086,2.4205,-3.2274,0.1604,-0.5478,-0.5593,-66.6,-2.85,-48.3,9.8474,1.3096,1.008,2.0171,0.2086,0.7709,-26.85,9.3,-2.1,-6.81,-8.26,-5.22,-56.4375,-76.0625,-66.75,-7.0625,-5.5625,21.25,239.25,-23.1875,149.0,0,2.3299999999999983,9.941344326095944,0.7991429721895826,9.985109058993798,2.1694453622988528,11.910167924928682,115.87172999701005
39.77,8.8322,2.7797,-2.9928,0.2811,-0.4231,-0.5993,-66.6,-2.85,-48.3,9.481,0.4693,1.1756,2.2716,0.2478,0.7639,-28.5,10.65,-0.75,-6.61,-6.32,-5.66,-70.9375,-86.5,-70.5625,-6.75,-5.1875,23.0,239.25,-23.1875,149.0,0,2.335000000000001,9.730947578216625,0.7856152429783934,9.565126180558206,2.409380544870403,10.755003486749784,132.26278884289414
39.775,8.8322,2.7797,-2.9928,0.2811,-0.4231,-0.5993,-65.1,-2.85,-46.35,9.481,0.4693,1.1756,2.2716,0.2478,0.7639,-28.5,10.65,-0.75,-6.61,-6.32,-5.66,-70.9375,-86.5,-70.5625,-6.75,-5.1875,23.0,238.1875,-23.5,149.25,0,2.3399999999999963,9.730947578216625,0.7856152429783934,9.565126180558206,2.409380544870403,10.755003486749784,132.26278884289414
39.78,8.5712,3.0885,-3.0287,0.4354,-0.2822,-0.6342,-65.1,-2.85,-46.35,9.1842,-0.8356,1.2713,2.355,0.3166,0.7296,-27.9,7.8,-1.65,-5.89,-6.28,-5.6,-73.3125,-88.8125,-75.6875,-6.75,-5.1875,23.0,237.0625,-23.875,149.5,0,2.344999999999999,9.600902321136278,0.8194020014620418,9.30934802711769,2.4856742988573544,10.270856828911597,137.80776635861275
39.79,8.509,3.4237,-3.1196,0.5881,-0.1609,-0.6611,-65.4,-2.1,-47.55,9.0884,-2.0039,1.4868,2.351,0.3651,0.6912,-27.9,7.8,-1.65,-5.59,-5.71,-5.61,-71.6875,-86.0625,-76.4375,-6.75,-5.1875,23.0,237.0625,-23.875,149.5,0,2.354999999999997,9.687967116480113,0.8993351043965758,9.424712409935912,2.477550493935492,9.763416410253123,135.6043619090109
39.8,8.5497,3.7972,-3.3136,0.732,-0.1055,-0.6899,-64.65,-2.85,-47.55,9.0716,-2.9497,1.3168,2.1639,0.4122,0.6467,-28.05,6.15,-1.5,-5.79,-5.56,-5.92,-65.6875,-83.125,-73.9375,-6.75,-5.1875,23.0,236.0,-24.1875,149.6875,0,2.364999999999995,9.924517262315582,1.011393227187131,9.629570026226508,2.295777197377829,9.974171644803391,129.19507416113046
39.81,8.4827,3.9456,-3.4955,0.8412,-0.0578,-0.7147,-65.85,-2.4,-46.35,9.0477,-3.8331,1.0726,1.8114,0.4623,0.5974,-27.15,7.05,-2.85,-5.18,-5.08,-6.19,-58.375,-79.25,-70.0,-6.75,-5.1875,23.0,235.0,-24.5,149.8125,0,2.375,9.987115644669386,1.105329982403445,9.88453345687089,1.962594713638045,9.537027838902432,120.78163405501682
39.815,8.2432,3.699,-3.4668,0.8412,-0.0578,-0.7147,-65.85,-2.4,-46.35,9.0477,-3.8331,1.0726,1.8114,0.4623,0.5974,-27.15,7.05,-2.85,-5.18,-5.08,-6.19,-58.375,-79.25,-70.0,-6.75,-5.1875,23.0,235.0,-24.5,149.8125,0,2.3799999999999955,9.677378233798656,1.105329982403445,9.88453345687089,1.962594713638045,9.537027838902432,120.78163405501682
