timestamp,thigh_acc_x,thigh_acc_y,thigh_acc_z,thigh_gyro_x,thigh_gyro_y,thigh_gyro_z,thigh_mag_x,thigh_mag_y,thigh_mag_z,shank_acc_x,shank_acc_y,shank_acc_z,shank_gyro_x,shank_gyro_y,shank_gyro_z,shank_mag_x,shank_mag_y,shank_mag_z,foot_acc_x,foot_acc_y,foot_acc_z,foot_gyro_x,foot_gyro_y,foot_gyro_z,foot_mag_x,foot_mag_y,foot_mag_z,foot_euler_x,foot_euler_y,foot_euler_z,perturbation_event,time_s,thigh_acc_mag,thigh_gyro_mag,shank_acc_mag,shank_gyro_mag,foot_acc_mag,foot_gyro_mag
1776725466.25,0.0239,-0.1197,9.7181,-0.0184,0.024,0.0056,-0.15,-29.4,57.15,-0.1437,-0.2777,9.7899,-0.0288,0.0003,0.0147,-30.75,-39.0,38.85,-0.17,0.17,9.49,-0.3125,0.125,-0.0625,-28.0,-48.0625,-7.5,359.9375,-1.25,-0.3125,0,0.0,9.718866544510218,0.03075581245878574,9.794891984600953,0.032336047996005944,9.493044822394973,0.3423265984407288
1776725466.255,-0.0311,-0.1389,9.6726,-0.0184,0.024,0.0056,-0.15,-29.4,57.15,-0.1891,-0.2634,9.8904,-0.0277,-0.0061,0.0165,-30.75,-39.0,38.85,-0.24,0.07,9.53,-0.3125,0.125,-0.0625,-28.0,-48.0625,-7.5,359.9375,-1.25,-0.3125,0,0.005000114440917969,9.673647253233911,0.03075581245878574,9.895713745354602,0.03281386901905961,9.533278554621175,0.3423265984407288
1776725466.265,-0.0383,-0.1293,9.6917,-0.0093,0.0325,0.0043,-0.15,-31.95,57.15,-0.1748,-0.2011,9.7971,-0.0216,0.0003,0.0165,-30.15,-39.3,39.0,-0.16,0.11,9.41,-0.1875,-0.125,-0.1875,-28.0,-48.0625,-7.5,359.9375,-1.25,-0.3125,0,0.015000104904174805,9.692638148099826,0.03407682496947156,9.800722660089917,0.027182715096178308,9.412002974925157,0.29315098498896436
1776725466.275,0.0359,-0.1269,9.6965,-0.0115,0.0304,0.0013,-0.15,-31.95,57.15,-0.1556,-0.2131,9.7612,-0.028,0.0005,0.0157,-30.15,-39.3,39.0,-0.19,0.12,9.57,-0.1875,0.0,-0.0625,-28.0,-48.0625,-7.5,359.9375,-1.25,-0.3125,0,0.02500009536743164,9.697396798625908,0.03252844908691467,9.764765660782649,0.0321051397754316,9.572638089889328,0.19764235376052372
1776725466.285,0.0263,-0.1317,9.7731,-0.02,0.0296,0.0008,0.15,-30.15,57.15,-0.1173,-0.328,9.8904,-0.029,-0.0043,0.0112,-30.45,-39.3,40.5,-0.21,0.1,9.5,-0.125,0.125,-0.1875,-28.0,-48.0625,-7.5,359.9375,-1.25,-0.3125,0,0.03500008583068848,9.774022723014307,0.03573233829460368,9.896532496283736,0.03138359444040788,9.50284694183801,0.2576941016011038
1776725466.295,-0.012,-0.1652,9.8593,-0.0144,0.0232,0.0019,-0.15,-30.15,57.45,-0.1844,-0.3376,9.9814,-0.0266,0.0,0.0157,-30.45,-39.3,40.5,-0.23,0.12,9.54,0.0,0.1875,-0.125,-28.0,-48.0625,-7.5,359.9375,-1.25,-0.3125,0,0.04500007629394531,9.860691229827653,0.027371700714424012,9.988809893075352,0.030887699817241165,9.543526601838547,0.22534695471649932
1776725466.3,-0.012,-0.1652,9.8593,-0.0072,0.0253,0.0011,0.0,-31.05,58.65,-0.1844,-0.3376,9.9814,-0.0266,0.0,0.0157,-32.25,-39.45,39.15,-0.23,0.12,9.54,0.1875,0.0625,0.125,-28.375,-48.75,-6.6875,359.9375,-1.25,-0.3125,0,0.04999995231628418,9.860691229827653,0.026327552108010344,9.988809893075352,0.030887699817241165,9.543526601838547,0.23385358667337133
1776725466.305,0.0311,-0.1532,9.6798,-0.0155,0.0248,0.0024,-0.15,-30.45,57.75,-0.1437,-0.2921,9.8282,-0.0248,0.0,0.0197,-32.25,-39.45,39.15,-0.22,0.13,9.66,0.1875,0.0625,0.125,-28.375,-48.75,-6.6875,359.9375,-1.25,-0.3125,0,0.05500006675720215,9.681062208766143,0.029343653487594212,9.83358974840826,0.03167222758190525,9.663379326094987,0.23385358667337133
1776725466.315,-0.0072,-0.1532,9.6606,-0.0165,0.0264,-0.0024,-0.15,-30.45,57.75,-0.0934,-0.2729,9.7947,-0.0274,-0.0032,0.0179,-31.5,-38.7,39.15,-0.17,0.15,9.63,0.0625,-0.0625,0.0,-28.375,-48.75,-6.6875,359.9375,-1.25,-0.3125,0,0.06500005722045898,9.661817346648611,0.031224509603835254,9.798946170890012,0.0328847989198657,9.632668373820414,0.08838834764831845
1776725466.325,0.012,-0.1844,9.7827,-0.0128,0.0258,0.0019,-0.15,-30.45,57.75,-0.1437,-0.3496,9.991,-0.032,-0.0021,0.0155,-31.2,-40.05,39.3,-0.2,0.15,9.47,0.0,-0.0625,-0.125,-28.375,-48.75,-6.6875,359.9375,-1.25,-0.3125,0,0.07500004768371582,9.78444513756401,0.02886329849480132,9.998147370888267,0.035618253747201026,9.473299319666829,0.13975424859373686
1776725466.335,-0.0168,-0.158,9.7348,-0.0123,0.0296,0.0035,0.0,-28.8,58.5,-0.0958,-0.2035,9.8474,-0.0264,-0.0019,0.0096,-31.65,-39.6,39.0,-0.19,0.12,9.61,-0.125,-0.125,0.0,-28.375,-48.75,-6.6875,359.9375,-1.25,-0.3125,0,0.08500003814697266,9.73609661414676,0.032244379355168246,9.849968357817197,0.028155461281960913,9.612627112293495,0.1767766952966369
1776725466.345,0.012,-0.1413,9.7324,-0.0085,0.0269,0.0016,0.0,-30.0,58.65,-0.1437,-0.2179,9.8785,-0.0261,0.0019,0.0131,-30.9,-38.85,40.05,-0.22,0.13,9.57,0.125,0.0625,0.0625,-28.375,-48.75,-6.6875,359.9375,-1.25,-0.3125,0,0.09500002861022949,9.733433076258345,0.02825632672517785,9.881947801420528,0.02926482530274186,9.573411095320205,0.15309310892394862
1776725466.35,0.0694,-0.1101,9.6726,-0.0085,0.0269,0.0016,0.0,-30.0,58.65,-0.1724,-0.2394,9.8378,-0.028,-0.0019,0.0171,-32.7,-39.6,40.05,-0.22,0.13,9.57,0.0625,0.0625,0.0,-28.375,-47.75,-7.0625,359.9375,-1.25,-0.3125,0,0.09999990463256836,9.673475545531709,0.02825632672517785,9.842222460399887,0.032863657739210954,9.573411095320205,0.08838834764831845
1776725466.355,0.0694,-0.1101,9.6726,-0.0171,0.0333,0.0043,0.45,-31.95,57.45,-0.1724,-0.2394,9.8378,-0.028,-0.0019,0.0171,-32.7,-39.6,40.05,-0.21,0.08,9.54,0.0625,0.0625,0.0,-28.375,-47.75,-7.0625,359.9375,-1.25,-0.3125,0,0.10500001907348633,9.673475545531709,0.03768010084912194,9.842222460399887,0.032863657739210954,9.542646383472459,0.08838834764831845
1776725466.365,0.0263,-0.1628,9.6845,-0.0107,0.0237,0.0027,0.15,-30.9,56.7,-0.1437,-0.2634,9.8138,-0.0304,0.0,0.016,-32.7,-39.6,40.05,-0.22,0.1,9.48,-0.0625,-0.125,-0.125,-28.375,-47.75,-7.0625,359.9375,-1.25,-0.3125,0,0.11500000953674316,9.685903973300581,0.02614325916943027,9.818385798592354,0.03435345688573422,9.4830796685465,0.1875
1776725466.375,0.0192,-0.1317,9.7779,-0.0136,0.0253,0.0035,0.15,-30.9,56.7,-0.1245,-0.3208,9.9024,-0.0256,-0.0032,0.0112,-31.05,-39.45,40.35,-0.22,0.11,9.52,0.1875,-0.0625,0.0,-28.375,-47.75,-7.0625,359.9375,-1.25,-0.3125,0,0.125,9.778805752237847,0.028936136576951665,9.908377195585562,0.028125433329995113,9.523176990899623,0.19764235376052372
1776725466.385,0.0599,-0.1987,9.7612,-0.0128,0.032,0.0056,-0.3,-30.0,58.35,-0.1221,-0.3065,9.8545,-0.0365,-0.0029,0.0096,-31.05,-39.45,40.35,-0.22,0.13,9.56,0.125,0.0,-0.0625,-28.375,-47.75,-7.0625,359.9375,-1.25,-0.3125,0,0.13499999046325684,9.763405919042802,0.03491704454847231,9.860021344297385,0.03785260889291516,9.563414662138205,0.13975424859373686
1776725466.395,0.0551,-0.2274,9.7564,-0.0149,0.0277,0.0075,1.05,-30.75,57.6,-0.1197,-0.2682,9.8689,-0.0234,0.0043,0.0061,-30.45,-38.85,40.5,-0.21,0.15,9.57,0.0,0.0625,0.1875,-28.375,-47.75,-7.0625,359.9375,-1.25,-0.3125,0,0.14499998092651367,9.759205281681494,0.032334965594538675,9.873269293400236,0.024561351754331436,9.573478991463865,0.19764235376052372
1776725466.4,0.0192,-0.2131,9.7252,-0.0149,0.0277,0.0075,1.05,-30.75,57.6,-0.1245,-0.2921,9.9407,-0.0277,-0.0008,0.0115,-31.95,-40.8,39.3,-0.21,0.15,9.57,0.1875,-0.125,0.0,-28.375,-48.0625,-8.25,359.9375,-1.25,-0.3125,0,0.15000009536743164,9.727553407203684,0.032334965594538675,9.945769912379836,0.030002999850014995,9.573478991463865,0.22534695471649932
1776725466.406,0.0192,-0.2131,9.7252,-0.0157,0.0317,0.0048,-0.45,-29.7,58.2,-0.1245,-0.2921,9.9407,-0.0277,-0.0008,0.0115,-31.95,-40.8,39.3,-0.21,0.19,9.59,0.1875,-0.125,0.0,-28.375,-48.0625,-8.25,359.9375,-1.25,-0.3125,0,0.15599989891052246,9.727553407203684,0.03569901959438102,9.945769912379836,0.030002999850014995,9.59418052779913,0.22534695471649932
1776725466.415,0.0192,-0.2155,9.6822,-0.0088,0.0245,0.0,0.9,-30.15,58.2,-0.1508,-0.2466,9.833,-0.0256,0.0,0.0128,-30.9,-38.85,39.3,-0.22,0.14,9.59,0.0625,0.0625,0.0,-28.375,-48.0625,-8.25,359.9375,-1.25,-0.3125,0,0.16499996185302734,9.68461696351487,0.026032479712851022,9.83724764352306,0.02862167011199731,9.593544704643847,0.08838834764831845
1776725466.425,0.0192,-0.1484,9.7516,-0.0115,0.0256,0.0003,0.9,-30.15,58.2,-0.1413,-0.2705,9.8737,-0.0274,0.0021,0.008,-29.85,-39.0,40.65,-0.22,0.13,9.53,-0.0625,0.0625,-0.0625,-28.375,-48.0625,-8.25,359.9375,-1.25,-0.3125,0,0.17499995231628418,9.75274801068909,0.028065993657805884,9.8784152387921,0.028621146028766916,9.533425407480776,0.10825317547305482
1776725466.435,0.0622,-0.1317,9.7348,-0.0131,0.0245,-0.0016,0.9,-30.9,57.45,-0.158,-0.2298,9.833,-0.0269,-0.0024,0.0144,-31.5,-39.45,40.65,-0.21,0.08,9.56,-0.125,0.1875,0.0,-28.375,-48.0625,-8.25,359.9375,-1.25,-0.3125,0,0.18499994277954102,9.735889521250742,0.027828402756895698,9.836953849642683,0.03060604515451155,9.562640848635905,0.22534695471649932
1776725466.445,0.0407,-0.1987,9.7707,-0.0136,0.0245,0.0011,-1.8,-31.8,58.35,-0.1197,-0.2442,9.8857,-0.0242,-0.0024,0.0176,-30.9,-38.85,40.5,-0.22,0.07,9.51,0.0,0.0625,-0.125,-28.375,-48.0625,-8.25,359.9375,-1.25,-0.3125,0,0.19499993324279785,9.7728049540549,0.028043180989324304,9.889440136832823,0.030019327107715123,9.5128019005969,0.13975424859373686
1776725466.45,-0.0215,-0.2131,9.8162,-0.0136,0.0245,0.0011,-1.8,-31.8,58.35,-0.1197,-0.2442,9.8857,-0.0242,-0.0024,0.0176,-30.9,-38.85,40.5,-0.22,0.07,9.51,0.0625,0.0,-0.0625,-28.375,-48.0625,-6.6875,359.9375,-1.25,-0.3125,0,0.20000004768371582,9.818536362411662,0.028043180989324304,9.889440136832823,0.030019327107715123,9.5128019005969,0.08838834764831845
1776725466.456,-0.0215,-0.2131,9.8162,-0.0101,0.0269,0.0072,0.3,-30.0,57.0,-0.1772,-0.328,9.8665,-0.028,-0.0061,0.012,-30.9,-38.85,40.5,-0.23,0.12,9.55,0.0625,0.0,-0.0625,-28.375,-48.0625,-6.6875,359.9375,-1.25,-0.3125,0,0.20600008964538574,9.818536362411662,0.029621951319924893,9.873540706858913,0.031067829019743236,9.553522910424197,0.08838834764831845
1776725466.465,0.0,-0.1652,9.7779,-0.0163,0.0277,0.0027,-1.05,-29.55,59.4,-0.1341,-0.3041,9.9264,-0.0261,-0.0008,0.0083,-31.05,-39.45,41.1,-0.21,0.14,9.54,0.125,0.1875,0.0,-28.375,-48.0625,-6.6875,359.9375,-1.25,-0.3125,0,0.21499991416931152,9.77929544752586,0.03225321689382316,9.931962373066058,0.027399635034065693,9.543337990451768,0.22534695471649932
1776725466.475,0.0287,-0.2586,9.7923,-0.0115,0.0282,0.0029,-1.05,-29.55,59.4,-0.1652,-0.237,9.8665,-0.0224,0.0008,0.0147,-31.05,-39.45,41.1,-0.22,0.15,9.56,0.0,0.125,0.0,-28.375,-48.0625,-6.6875,359.9375,-1.25,-0.3125,0,0.22499990463256836,9.79575606780814,0.030592482736777022,9.870728559230065,0.026804663773306318,9.563707440109196,0.125
1776725466.485,-0.0072,-0.1628,9.7899,-0.0125,0.029,0.0013,-1.05,-29.55,59.4,-0.1221,-0.2921,9.8785,-0.0258,-0.0011,0.0091,-29.85,-40.2,39.15,-0.2,0.15,9.57,-0.125,0.125,0.0,-28.375,-48.0625,-6.6875,359.9375,-1.25,-0.3125,0,0.2349998950958252,9.791256185495302,0.03160601208631041,9.883571878121796,0.027379919649261206,9.5732648558368,0.1767766952966369
1776725466.495,0.0383,-0.103,9.7229,-0.0131,0.0296,0.0032,-0.3,-30.3,57.0,-0.1532,-0.2466,9.8138,-0.0317,0.0,0.0147,-30.75,-39.9,40.35,-0.21,0.13,9.55,0.0,0.125,-0.0625,-28.375,-48.0625,-6.6875,359.9375,-1.25,-0.3125,0,0.24499988555908203,9.723520982648209,0.032527065653083435,9.818093106097539,0.03494252423623685,9.553193183433486,0.13975424859373686
1776725466.5,0.0383,-0.103,9.7229,-0.0136,0.025,0.0019,-0.3,-30.3,57.0,-0.1532,-0.2466,9.8138,-0.0317,0.0,0.0147,-31.5,-39.45,39.6,-0.21,0.13,9.55,0.0,0.0625,-0.0625,-27.6875,-48.5,-6.25,359.9375,-1.25,-0.3125,0,0.25,9.723520982648209,0.02852314849381113,9.818093106097539,0.03494252423623685,9.553193183433486,0.08838834764831845
1776725466.506,0.0024,-0.1484,9.6391,-0.0136,0.025,0.0019,-0.15,-31.95,58.2,-0.1772,-0.2969,9.7588,-0.0293,-0.0032,0.0131,-31.5,-39.45,39.6,-0.22,0.1,9.58,0.0,0.0625,-0.0625,-27.6875,-48.5,-6.25,359.9375,-1.25,-0.3125,0,0.2560000419616699,9.640242586677992,0.02852314849381113,9.76492329155739,0.032254302038642844,9.583047531970193,0.08838834764831845
1776725466.515,0.0622,-0.1724,9.7109,-0.0149,0.025,0.0048,0.15,-30.45,57.45,-0.1365,-0.2945,9.8378,-0.0354,-0.0003,0.0088,-30.9,-38.55,40.5,-0.22,0.1,9.49,-0.0625,0.0,-0.125,-27.6875,-48.5,-6.25,359.9375,-1.25,-0.3125,0,0.2650001049041748,9.712629376744488,0.029496609974707266,9.843153526182551,0.036478623877553275,9.493076424426384,0.13975424859373686
1776725466.525,0.0263,-0.1245,9.6654,-0.0184,0.0245,0.0005,-0.9,-29.7,57.45,-0.182,-0.2586,9.8186,-0.029,0.0011,0.0088,-30.9,-38.55,40.5,-0.22,0.08,9.44,-0.125,0.0,-0.0625,-27.6875,-48.5,-6.25,359.9375,-1.25,-0.3125,0,0.27500009536743164,9.666237587603565,0.03064408588945019,9.823690951979302,0.03032573164822244,9.442902096283747,0.13975424859373686
1776725466.535,0.0575,-0.1532,9.7923,-0.0152,0.0304,0.0059,-0.9,-29.7,57.45,-0.1245,-0.2298,9.8857,-0.0309,-0.0037,0.0136,-30.75,-39.45,39.6,-0.19,0.12,9.5,0.125,0.0625,-0.125,-27.6875,-48.5,-6.25,359.9375,-1.25,-0.3125,0,0.2850000858306885,9.793667126260724,0.03449652156377509,9.889154300545623,0.03396262651798297,9.50265752303007,0.1875
1776725466.545,0.0024,-0.1915,9.8114,-0.0157,0.0224,0.0016,-0.45,-28.95,57.45,-0.1437,-0.2729,9.8881,-0.0322,-0.008,0.0117,-30.75,-39.45,39.6,-0.2,0.1,9.49,0.3125,0.0625,0.0625,-27.6875,-48.5,-6.25,359.9375,-1.25,-0.3125,0,0.2950000762939453,9.813268974709702,0.027400912393568212,9.892908859885448,0.03518138712444408,9.492633986412834,0.3247595264191645
1776725466.55,0.0024,-0.1915,9.8114,-0.0192,0.0298,0.0016,-0.45,-28.95,57.45,-0.1437,-0.2729,9.8881,-0.0304,-0.0048,0.0139,-30.3,-39.45,38.85,-0.2,0.1,9.49,0.4375,0.0625,-0.125,-28.375,-47.0,-7.0625,359.9375,-1.25,-0.3125,0,0.2999999523162842,9.813268974709702,0.03548577179659476,9.892908859885448,0.0337699570624542,9.492633986412834,0.4592793267718459
1776725466.556,-0.0383,-0.2131,9.7971,-0.0192,0.0298,0.0016,-0.45,-29.7,57.45,-0.1532,-0.3065,9.8976,-0.0304,-0.0048,0.0139,-30.3,-39.45,38.85,-0.19,0.11,9.56,0.4375,0.0625,-0.125,-28.375,-47.0,-7.0625,359.9375,-1.25,-0.3125,0,0.3059999942779541,9.799492176128313,0.03548577179659476,9.903529585455885,0.0337699570624542,9.56252058821313,0.4592793267718459
1776725466.565,0.0024,-0.1724,9.8258,-0.0155,0.0285,-0.0011,-0.3,-32.55,58.35,-0.1772,-0.2777,9.9479,-0.029,0.0016,0.0171,-30.15,-38.55,38.55,-0.21,0.16,9.62,0.3125,0.125,0.0,-28.375,-47.0,-7.0625,359.9375,-1.25,-0.3125,0,0.315000057220459,9.827312611289008,0.032460899556235344,9.953352778837893,0.03370415404664535,9.623621979275786,0.3365728004459065
1776725466.575,0.0694,-0.1939,9.7659,-0.0117,0.0298,0.0003,1.05,-30.3,57.3,-0.1532,-0.3448,9.845,-0.0256,0.0011,0.0147,-31.05,-38.7,39.6,-0.21,0.14,9.61,0.3125,0.0,-0.0625,-28.375,-47.0,-7.0625,359.9375,-1.25,-0.3125,0,0.3250000476837158,9.768071272262503,0.03201593353316439,9.852227275088614,0.02954081921680575,9.613313684677099,0.31868871959954903
1776725466.585,-0.0287,-0.2298,9.7516,-0.0144,0.0229,0.0008,1.05,-30.3,57.3,-0.182,-0.2945,9.8402,-0.0224,0.0019,0.0115,-29.7,-38.55,40.5,-0.22,0.12,9.61,0.125,0.125,-0.0625,-28.375,-47.0,-7.0625,359.9375,-1.25,-0.3125,0,0.33500003814697266,9.75434950624592,0.027063074474272135,9.846288147825048,0.025251138588190433,9.613266874481328,0.1875
1776725466.595,-0.0048,-0.1389,9.7061,-0.0133,0.0293,-0.0013,1.05,-30.3,57.3,-0.1317,-0.2538,9.8378,-0.0256,0.0013,0.0123,-30.3,-39.0,39.15,-0.23,0.12,9.55,0.0625,0.0625,0.0,-28.375,-47.0,-7.0625,359.9375,-1.25,-0.3125,0,0.3450000286102295,9.707095006231267,0.0322035712305328,9.841954489327819,0.028431320757221254,9.553522910424197,0.08838834764831845
1776725466.6,-0.0048,-0.1389,9.7061,-0.0075,0.0224,-0.0064,1.05,-30.3,57.3,-0.1389,-0.2634,9.7516,-0.0266,-0.0032,0.0141,-30.3,-39.0,39.15,-0.23,0.12,9.55,0.0,-0.0625,-0.0625,-28.0,-48.5,-7.875,359.9375,-1.25,-0.3125,0,0.34999990463256836,9.707095006231267,0.024473863609981977,9.756145516032445,0.030275567707311452,9.553522910424197,0.08838834764831845
1776725466.606,0.0096,-0.146,9.651,-0.0125,0.0242,0.004,-0.3,-30.0,58.05,-0.1389,-0.2634,9.7516,-0.0266,-0.0032,0.0141,-30.9,-38.85,39.75,-0.21,0.11,9.56,0.0,-0.0625,-0.0625,-28.0,-48.5,-7.875,359.9375,-1.25,-0.3125,0,0.3559999465942383,9.65210905242994,0.027529802033432787,9.756145516032445,0.030275567707311452,9.562938878817537,0.08838834764831845
1776725466.615,-0.0192,-0.1939,9.7181,-0.0141,0.0226,0.0005,0.45,-30.9,58.5,-0.1221,-0.2969,9.8138,-0.025,-0.0037,0.0083,-30.9,-38.85,39.75,-0.22,0.09,9.5,-0.0625,0.0625,-0.125,-28.0,-48.5,-7.875,359.9375,-1.25,-0.3125,0,0.36500000953674316,9.720053161377257,0.02664244733503287,9.819049264567319,0.026600375937193072,9.502973218945742,0.15309310892394862
1776725466.625,-0.0431,-0.17,9.7468,-0.0128,0.0226,0.0027,0.0,-30.3,57.0,-0.0982,-0.261,9.8641,-0.0256,-0.0061,0.012,-31.05,-39.0,40.35,-0.22,0.1,9.48,0.0625,0.0625,-0.0625,-28.0,-48.5,-7.875,359.9375,-1.25,-0.3125,0,0.375,9.74837770349508,0.02611302357062468,9.868040993530581,0.028923519841125837,9.4830796685465,0.10825317547305482
1776725466.635,0.0742,-0.158,9.8186,-0.0123,0.0272,0.0051,-0.9,-30.9,58.5,-0.0982,-0.2849,9.8976,-0.0293,-0.0056,0.0131,-31.05,-39.0,40.35,-0.22,0.12,9.55,0.125,0.125,0.0,-28.0,-48.5,-7.875,359.9375,-1.25,-0.3125,0,0.38499999046325684,9.82015150595957,0.030284319374884423,9.90218647622837,0.03258005524857194,9.553287392306379,0.1767766952966369
1776725466.645,0.0862,-0.2346,9.7827,-0.0083,0.0264,0.0056,-0.9,-30.9,58.5,-0.1221,-0.34,9.9383,-0.0264,-0.0013,0.0123,-30.75,-39.45,39.6,-0.2,0.14,9.59,0.1875,-0.0625,0.0,-28.0,-48.5,-7.875,359.9375,-1.25,-0.3125,0,0.39499998092651367,9.785892237808467,0.028234907472842904,9.94486376477828,0.029153730464556334,9.59310690026959,0.19764235376052372
1776725466.65,0.0144,-0.1915,9.7396,-0.0083,0.0264,0.0056,0.15,-30.9,56.7,-0.1317,-0.3112,9.8833,-0.0296,0.0021,0.0107,-30.75,-39.45,39.6,-0.2,0.14,9.59,0.125,0.125,0.0,-27.25,-48.5,-6.25,359.9375,-1.25,-0.3125,0,0.40000009536743164,9.741493097569796,0.028234907472842904,9.889075245946913,0.03154457164077522,9.59310690026959,0.1767766952966369
1776725466.656,0.0144,-0.1915,9.7396,-0.0115,0.0293,0.0091,0.15,-30.9,56.7,-0.1867,-0.2682,9.845,-0.0226,-0.004,0.016,-31.65,-39.3,38.55,-0.21,0.16,9.63,0.125,0.125,0.0,-27.25,-48.5,-6.25,359.9375,-1.25,-0.3125,0,0.40599989891052246,9.741493097569796,0.032765072867307954,9.850421977255595,0.02797784838045985,9.633618219547628,0.1767766952966369
1776725466.665,0.0527,-0.1101,9.7444,-0.0104,0.0285,0.0,-0.45,-30.9,56.7,-0.1867,-0.2682,9.845,-0.0264,-0.0027,0.0147,-30.9,-39.3,40.05,-0.22,0.14,9.56,0.1875,0.0,-0.0625,-27.25,-48.5,-6.25,359.9375,-1.25,-0.3125,0,0.41499996185302734,9.74516447577977,0.0303382596732245,9.850421977255595,0.030337105992497043,9.563555824064604,0.19764235376052372
1776725466.675,0.0263,-0.2107,9.7013,-0.0131,0.0274,0.0045,0.0,-28.5,58.35,-0.1341,-0.2346,9.8761,-0.0245,0.0021,0.0165,-30.9,-38.55,40.05,-0.21,0.12,9.55,-0.0625,-0.0625,-0.125,-27.25,-48.5,-6.25,359.9375,-1.25,-0.3125,0,0.4249999523162842,9.703623440241278,0.03070211719083881,9.87979611024438,0.029612666208904598,9.553062336235435,0.15309310892394862
1776725466.685,0.0479,-0.1221,9.7396,-0.0184,0.0288,0.0064,0.3,-30.3,58.05,-0.1724,-0.3065,9.8186,-0.029,0.0,0.0107,-31.05,-39.9,39.9,-0.2,0.11,9.53,-0.0625,0.0,0.0,-27.25,-48.5,-6.25,359.9375,-1.25,-0.3125,0,0.434999942779541,9.740483097875586,0.03477010209936117,9.824895417763997,0.030911001277862223,9.532733081336117,0.0625
1776725466.695,0.0407,-0.1365,9.7588,-0.0163,0.0226,0.0008,0.3,-30.3,58.05,-0.1628,-0.3041,9.8474,-0.0248,-0.0016,0.0107,-30.45,-40.05,39.0,-0.22,0.12,9.53,0.0,-0.0625,-0.125,-27.25,-48.5,-6.25,359.9375,-1.25,-0.3125,0,0.44499993324279785,9.759839454622192,0.027876334048794867,9.853439369580553,0.027057161713675733,9.533294288964335,0.13975424859373686
1776725466.7,0.0287,-0.1772,9.7612,-0.0163,0.0226,0.0008,-0.15,-30.15,56.1,-0.1628,-0.3041,9.8474,-0.0248,-0.0016,0.0107,-30.45,-40.05,39.0,-0.22,0.12,9.53,0.125,0.0,0.0,-28.0,-48.875,-7.875,359.9375,-1.25,-0.3125,0,0.4500000476837158,9.762850453120748,0.027876334048794867,9.853439369580553,0.027057161713675733,9.533294288964335,0.125
1776725466.706,0.0287,-0.1772,9.7612,-0.0131,0.0306,0.0035,-0.15,-30.15,56.1,-0.1676,-0.2346,9.8833,-0.0312,-0.0029,0.0131,-30.45,-40.05,39.0,-0.22,0.11,9.54,0.125,0.0,0.0,-28.0,-48.875,-7.875,359.9375,-1.25,-0.3125,0,0.45600008964538574,9.762850453120748,0.03346968777864532,9.887504528949657,0.033962626517982965,9.5431703327563,0.125
1776725466.715,-0.0024,-0.1365,9.7851,-0.016,0.0242,0.0,0.0,-30.3,56.55,-0.1317,-0.2418,9.8881,-0.0253,-0.0005,0.0181,-31.05,-38.25,40.65,-0.22,0.11,9.57,0.0,0.0,-0.0625,-28.0,-48.875,-7.875,359.9375,-1.25,-0.3125,0,0.4649999141693115,9.786052320522305,0.02901103238424996,9.891932760588297,0.03111189483139849,9.573160397695215,0.0625
1776725466.725,0.012,-0.1556,9.7468,-0.0147,0.0266,0.0016,-0.3,-28.8,57.0,-0.1293,-0.2849,9.8928,-0.0296,0.0,0.0136,-31.05,-38.25,40.65,-0.19,0.12,9.56,0.0625,0.0625,0.0,-28.0,-48.875,-7.875,359.9375,-1.25,-0.3125,0,0.47499990463256836,9.748049322813257,0.030433698427894038,9.89774612424465,0.03257483691440373,9.562640848635905,0.08838834764831845
1776725466.735,0.0527,-0.1676,9.8067,-0.0123,0.0309,0.0,0.3,-30.0,57.0,-0.1173,-0.2562,9.8306,-0.0232,0.0008,0.0147,-31.2,-39.3,39.3,-0.2,0.16,9.56,0.0625,0.0625,0.0625,-28.0,-48.875,-7.875,359.9375,-1.25,-0.3125,0,0.4849998950958252,9.808273647283706,0.033258081724597405,9.83463746611943,0.02747671741675122,9.56343034689959,0.10825317547305482
1776725466.745,0.012,-0.1221,9.7971,-0.0128,0.0317,0.0021,0.0,-30.75,58.05,-0.1173,-0.3232,9.9048,-0.025,-0.0003,0.0136,-31.05,-38.25,41.1,-0.19,0.11,9.57,0.125,-0.0625,-0.0625,-28.0,-48.875,-7.875,359.9375,-1.25,-0.3125,0,0.49499988555908203,9.797868177312859,0.03425113136817527,9.910765892200258,0.028461377338421273,9.572517955062816,0.15309310892394862
1776725466.75,0.0527,-0.1963,9.7372,-0.0083,0.0264,0.0032,0.0,-30.75,58.05,-0.1173,-0.3232,9.9048,-0.025,-0.0003,0.0136,-31.05,-38.25,41.1,-0.19,0.11,9.57,0.0,0.1875,0.0,-27.25,-48.75,-7.0625,359.9375,-1.25,-0.3125,0,0.5,9.739321065659556,0.027858391913389402,9.910765892200258,0.028461377338421273,9.572517955062816,0.1875
1776725466.756,0.0311,-0.1987,9.7252,-0.0083,0.0264,0.0032,0.0,-30.75,58.05,-0.1101,-0.3136,9.8306,-0.0301,-0.0011,0.0125,-31.5,-39.0,39.6,-0.19,0.11,9.59,0.0,0.1875,0.0,-27.25,-48.75,-7.0625,359.9375,-1.25,-0.3125,0,0.5060000419616699,9.727279369895777,0.027858391913389402,9.836216921662515,0.032610887752405636,9.592512705230053,0.1875
1776725466.765,-0.0024,-0.17,9.7133,-0.0123,0.0285,0.0043,0.3,-30.75,56.55,-0.1628,-0.2921,9.8402,-0.0224,-0.0013,0.0149,-31.05,-39.45,38.1,-0.21,0.11,9.53,-0.125,0.0,0.0625,-27.25,-48.75,-7.0625,359.9375,-1.25,-0.3125,0,0.5150001049041748,9.714787833504138,0.031337357897563735,9.845880473070958,0.026934364666722697,9.532948127415779,0.13975424859373686
1776725466.775,0.0646,-0.1437,9.6965,-0.0117,0.0256,0.0019,-1.2,-30.9,56.4,-0.1101,-0.2418,9.7803,-0.0306,-0.0027,0.0125,-31.8,-37.95,39.15,-0.2,0.13,9.55,0.0625,0.0625,0.0,-27.25,-48.75,-7.0625,359.9375,-1.25,-0.3125,0,0.5250000953674316,9.697779905731002,0.028210990766011745,9.783908081129953,0.0331647403125669,9.552978593088127,0.08838834764831845
1776725466.785,0.0168,-0.1676,9.754,-0.0168,0.0296,0.0045,-0.45,-31.2,56.4,-0.158,-0.2945,9.8976,-0.028,-0.0056,0.0104,-31.2,-38.55,39.75,-0.2,0.12,9.52,0.125,0.0,-0.0625,-27.25,-48.75,-7.0625,359.9375,-1.25,-0.3125,0,0.5350000858306885,9.755454269279314,0.034331472441478536,9.903240884175242,0.03038947186115613,9.522856714242844,0.13975424859373686
1776725466.795,0.0431,-0.1413,9.6558,-0.0123,0.0285,0.0011,-0.6,-30.0,57.3,-0.1221,-0.2658,9.7492,-0.0266,-0.0048,0.0128,-31.2,-38.55,39.75,-0.22,0.1,9.51,-0.125,-0.0625,-0.0625,-27.25,-48.75,-7.0625,359.9375,-1.25,-0.3125,0,0.5450000762939453,9.656929995604193,0.031060424980994705,9.753586965316915,0.029907189771023288,9.513069956643859,0.15309310892394862
1776725466.8,0.0431,-0.1413,9.6558,-0.0184,0.032,-0.0027,-0.6,-30.0,57.3,-0.1652,-0.2634,10.0006,-0.033,-0.0037,0.0096,-31.2,-38.55,39.75,-0.22,0.1,9.51,0.0625,0.0,0.0625,-27.6875,-48.875,-6.25,359.9375,-1.25,-0.3125,0,0.5499999523162842,9.656929995604193,0.0370114847040753,10.005432072629347,0.0345666023785966,9.513069956643859,0.08838834764831845
1776725466.806,0.0215,-0.1676,9.8162,-0.0184,0.032,-0.0027,-0.6,-30.0,57.3,-0.1652,-0.2634,10.0006,-0.033,-0.0037,0.0096,-30.15,-40.5,40.5,-0.22,0.1,9.49,0.0625,0.0,0.0625,-27.6875,-48.875,-6.25,359.9375,-1.25,-0.3125,0,0.5559999942779541,9.817654223387581,0.0370114847040753,10.005432072629347,0.0345666023785966,9.493076424426384,0.08838834764831845
1776725466.816,0.0072,-0.2059,9.742,-0.0136,0.0269,0.0053,-0.3,-30.75,57.6,-0.0694,-0.3136,9.8354,-0.0298,-0.0048,0.0125,-30.75,-37.95,39.6,-0.22,0.12,9.51,0.1875,0.0625,-0.0625,-27.6875,-48.875,-6.25,359.9375,-1.25,-0.3125,0,0.5659999847412109,9.744178295269439,0.030604901568212894,9.84064299118711,0.0326700168350125,9.51330121461525,0.2072890493972125
1776725466.826,-0.0096,-0.1532,9.7923,-0.0187,0.0282,0.0035,0.0,-29.55,57.6,-0.1149,-0.316,9.9479,-0.0288,-0.0067,0.0104,-30.9,-38.85,39.3,-0.21,0.12,9.65,0.1875,0.125,-0.0625,-27.6875,-48.875,-6.25,359.9375,-1.25,-0.3125,0,0.5759999752044678,9.79350303466538,0.03401734851513269,9.953580884284811,0.03134469652110226,9.653030612196359,0.23385358667337133
1776725466.836,-0.0263,-0.1915,9.7133,-0.0117,0.0317,0.0029,-0.9,-30.9,57.75,-0.1077,-0.2442,9.8809,-0.0229,-0.0027,0.0144,-31.2,-40.05,40.05,-0.22,0.17,9.61,0.125,0.125,-0.0625,-27.6875,-48.875,-6.25,359.9375,-1.25,-0.3125,0,0.5859999656677246,9.715223148749596,0.03391445119709296,9.884503919772605,0.02718565798357656,9.614021011002627,0.1875
1776725466.845,-0.0263,-0.1341,9.6893,-0.0136,0.0301,0.0011,-0.6,-30.15,58.2,-0.1173,-0.2155,9.7995,-0.0261,-0.0029,0.0128,-31.95,-40.05,40.8,-0.21,0.14,9.62,0.0,-0.125,-0.0625,-27.6875,-48.875,-6.25,359.9375,-1.25,-0.3125,0,0.5950000286102295,9.690263618189135,0.03304814669538974,9.802571080589011,0.02921403772161596,9.62331024128392,0.13975424859373686
1776725466.85,-0.0263,-0.1341,9.6893,-0.0109,0.0261,-0.0029,-0.6,-30.3,58.65,-0.091,-0.2538,9.8761,-0.0338,-0.0016,0.0115,-31.95,-40.05,40.8,-0.21,0.14,9.62,0.0,0.0625,0.0,-28.0,-48.75,-7.875,359.9375,-1.25,-0.3125,0,0.5999999046325684,9.690263618189135,0.02843290347467174,9.8797796863088,0.03573863455701686,9.62331024128392,0.0625
1776725466.857,0.0192,-0.1413,9.6319,-0.0147,0.0224,0.0029,-0.6,-30.3,58.65,-0.091,-0.2538,9.8761,-0.0338,-0.0016,0.0115,-32.25,-39.9,39.15,-0.22,0.12,9.55,0.0,0.0625,0.0,-28.0,-48.75,-7.875,359.9375,-1.25,-0.3125,0,0.6070001125335693,9.632955514274942,0.02694921149124775,9.8797796863088,0.03573863455701686,9.553287392306379,0.0625
1776725466.866,-0.0192,-0.1269,9.675,-0.0147,0.0224,0.0029,-1.95,-29.7,56.7,-0.1796,-0.237,9.7995,-0.0218,-0.0008,0.0128,-32.25,-39.9,39.15,-0.19,0.11,9.51,-0.125,0.0,-0.0625,-28.0,-48.75,-7.875,359.9375,-1.25,-0.3125,0,0.6159999370574951,9.675851241622105,0.02694921149124775,9.804010679818745,0.02529268669002959,9.512533836996324,0.13975424859373686
1776725466.876,0.0359,-0.1867,9.7324,-0.0152,0.0237,-0.0035,-1.2,-30.45,58.5,-0.17,-0.2729,9.809,-0.0285,-0.0027,0.0123,-31.05,-39.0,39.9,-0.19,0.08,9.48,-0.1875,0.25,-0.0625,-28.0,-48.75,-7.875,359.9375,-1.25,-0.3125,0,0.625999927520752,9.734256800598596,0.02837216946234461,9.814267950794903,0.0311581450025511,9.482241296233713,0.31868871959954903
1776725466.886,-0.0168,-0.2059,9.8665,-0.0144,0.0237,-0.0032,-0.9,-28.95,57.15,-0.17,-0.2251,9.9048,-0.0269,-0.0024,0.0093,-31.05,-39.0,39.9,-0.2,0.1,9.5,-0.0625,0.0625,0.0,-28.0,-48.75,-7.875,359.9375,-1.25,-0.3125,0,0.6359999179840088,9.868662487895714,0.027915766154630255,9.908815925729975,0.028563263118908524,9.50263121456368,0.08838834764831845
1776725466.896,0.0144,-0.1867,9.742,-0.0157,0.0258,0.0035,0.9,-30.9,57.75,-0.1484,-0.2682,9.9096,-0.0261,-0.0027,0.0131,-32.4,-39.3,39.75,-0.22,0.11,9.56,0.1875,0.0625,0.0,-28.0,-48.75,-7.875,359.9375,-1.25,-0.3125,0,0.6459999084472656,9.743799477103376,0.03040361820573334,9.914339411176115,0.029327632021695856,9.563163702457468,0.19764235376052372
1776725466.901,0.0144,-0.1867,9.742,-0.0157,0.0258,0.0035,0.9,-30.9,57.75,-0.1389,-0.261,9.9264,-0.025,-0.0024,0.0147,-32.4,-39.3,39.75,-0.22,0.11,9.56,0.125,0.0625,0.0,-27.6875,-48.5,-7.0625,359.9375,-1.25,-0.3125,0,0.6510000228881836,9.743799477103376,0.03040361820573334,9.930802141317688,0.029100687277107393,9.563163702457468,0.13975424859373686
1776725466.907,-0.0239,-0.2562,9.742,-0.0133,0.0298,0.0056,0.9,-30.9,57.75,-0.1604,-0.3136,9.8928,-0.0256,-0.0021,0.0099,-31.05,-37.5,38.85,-0.22,0.15,9.57,0.125,0.0625,0.0,-27.6875,-48.5,-7.0625,359.9375,-1.25,-0.3125,0,0.6570000648498535,9.745397562439411,0.03311027030998086,9.899068893587922,0.02752780412601049,9.573703567585534,0.13975424859373686
1776725466.916,-0.0168,-0.1748,9.7492,-0.0136,0.0282,0.0048,-0.6,-30.3,56.25,-0.0958,-0.2586,9.9,-0.0224,0.0005,0.0125,-31.5,-40.2,39.15,-0.2,0.14,9.55,0.0625,0.0625,-0.125,-27.6875,-48.5,-7.0625,359.9375,-1.25,-0.3125,0,0.6659998893737793,9.750781400482733,0.03167396407145781,9.903840245076655,0.02565657810387036,9.553119909223375,0.15309310892394862
1776725466.926,-0.0455,-0.1748,9.7252,-0.0179,0.0277,0.0019,-0.15,-30.45,56.1,-0.1652,-0.2825,9.8689,-0.0253,-0.0045,0.0104,-30.3,-38.7,39.9,-0.18,0.14,9.54,0.125,0.1875,-0.0625,-27.6875,-48.5,-7.0625,359.9375,-1.25,-0.3125,0,0.6760001182556152,9.726877213679629,0.03303498145905337,9.874324508542344,0.02772183255125822,9.54272497769898,0.23385358667337133
1776725466.936,0.0144,-0.1556,9.7444,-0.0104,0.0312,0.0059,0.45,-30.9,56.4,-0.1053,-0.2586,9.8904,-0.0248,-0.0043,0.012,-31.95,-38.1,39.3,-0.2,0.15,9.55,0.0625,0.125,0.0,-27.6875,-48.5,-7.0625,359.9375,-1.25,-0.3125,0,0.6860001087188721,9.74565288115681,0.033412722127955985,9.894340514152521,0.027884224930953345,9.55327169089208,0.13975424859373686
1776725466.947,-0.012,-0.1652,9.7659,-0.0149,0.0293,0.0053,-0.6,-31.05,57.0,-0.1939,-0.3328,9.8785,-0.0266,-0.0029,0.0128,-30.15,-40.5,40.05,-0.21,0.14,9.53,0.0,0.0,-0.0625,-27.6875,-48.5,-7.0625,359.9375,-1.25,-0.3125,0,0.6970000267028809,9.767304533493363,0.0332954951907912,9.88600603378331,0.029661591326157807,9.533341491838,0.0625
1776725466.952,0.0383,-0.1724,9.7396,-0.0149,0.0293,0.0053,-0.6,-31.05,57.0,-0.1939,-0.3328,9.8785,-0.0266,-0.0029,0.0128,-30.15,-40.5,40.05,-0.21,0.14,9.53,0.0625,-0.0625,0.125,-27.25,-48.5,-7.0625,359.9375,-1.25,-0.3125,0,0.7019999027252197,9.741200994230638,0.0332954951907912,9.88600603378331,0.029661591326157807,9.533341491838,0.15309310892394862
1776725466.957,0.0383,-0.1724,9.7396,-0.0064,0.0282,0.0043,-0.9,-30.9,57.15,-0.1173,-0.2538,9.9072,-0.0306,0.0013,0.0096,-30.15,-40.5,40.05,-0.2,0.1,9.56,0.0625,-0.0625,0.125,-27.25,-48.5,-7.0625,359.9375,-1.25,-0.3125,0,0.7070000171661377,9.741200994230638,0.029235081665697465,9.911144513627072,0.032096884584021546,9.56261470519439,0.15309310892394862
1776725466.966,0.0287,-0.2107,9.7516,-0.0131,0.0234,0.0008,-0.9,-30.9,57.15,-0.091,-0.3496,9.8545,-0.0221,0.0043,0.0125,-30.3,-38.7,39.6,-0.22,0.11,9.55,0.125,0.0,-0.0625,-27.25,-48.5,-7.0625,359.9375,-1.25,-0.3125,0,0.7160000801086426,9.753918225000659,0.02682927505543152,9.86111917634099,0.025751698973077487,9.55316701413725,0.13975424859373686
1776725466.976,0.103,-0.1317,9.7276,-0.012,0.0309,-0.0013,1.2,-30.45,57.15,-0.1532,-0.2897,9.8809,-0.0277,-0.0051,0.0125,-30.3,-38.7,39.6,-0.22,0.14,9.53,-0.0625,0.0,0.0625,-27.25,-48.5,-7.0625,359.9375,-1.25,-0.3125,0,0.7260000705718994,9.729036727754707,0.03317378483079674,9.886333048203465,0.030814769186219778,9.533567013453045,0.08838834764831845
1776725466.986,0.0263,-0.2179,9.7564,-0.0059,0.025,0.0061,1.35,-31.5,57.0,-0.0934,-0.2562,9.8474,-0.0256,0.0005,0.012,-31.5,-38.7,38.85,-0.21,0.12,9.57,-0.125,-0.125,0.0,-27.25,-48.5,-7.0625,359.9375,-1.25,-0.3125,0,0.7360000610351562,9.758868431329525,0.026401136339180557,9.851174993877635,0.02827737611589873,9.573055938413814,0.1767766952966369
1776725466.996,0.0168,-0.158,9.7492,-0.0123,0.029,0.0016,0.15,-30.9,57.15,-0.1508,-0.3017,9.8737,-0.0264,-0.0016,0.0088,-31.5,-38.25,39.6,-0.22,0.12,9.56,-0.0625,0.125,0.0625,-27.25,-48.5,-7.0625,359.9375,-1.25,-0.3125,0,0.7460000514984131,9.750494699244753,0.031541242841714404,9.87945925746951,0.027874002224294953,9.563283954792935,0.15309310892394862
1776725467.001,-0.0192,-0.1628,9.6989,-0.0123,0.029,0.0016,0.15,-30.9,57.15,-0.1508,-0.3017,9.8737,-0.0264,-0.0016,0.0088,-31.5,-38.25,39.6,-0.22,0.12,9.56,0.0625,0.0625,0.0,-27.25,-49.1875,-6.6875,359.9375,-1.25,-0.3125,0,0.750999927520752,9.700285237558738,0.031541242841714404,9.87945925746951,0.027874002224294953,9.563283954792935,0.08838834764831845
1776725467.007,-0.0192,-0.1628,9.6989,-0.0107,0.0274,0.004,-1.8,-30.3,58.05,-0.1269,-0.3017,9.8402,-0.0229,-0.0003,0.0131,-32.55,-39.45,38.85,-0.2,0.12,9.57,0.0625,0.0625,0.0,-27.25,-49.1875,-6.6875,359.9375,-1.25,-0.3125,0,0.7569999694824219,9.700285237558738,0.029685855217594793,9.845641804372125,0.026383896603799827,9.572841793323443,0.08838834764831845
1776725467.016,-0.0215,-0.1796,9.754,-0.0139,0.0253,0.0032,-1.8,-30.3,58.05,-0.0886,-0.2155,9.8497,-0.0266,0.0016,0.0144,-30.75,-38.25,39.9,-0.19,0.11,9.58,0.0,0.0625,-0.125,-27.25,-49.1875,-6.6875,359.9375,-1.25,-0.3125,0,0.7660000324249268,9.755677034937145,0.02904376008715125,9.852455546715246,0.030289932320822374,9.582515327407517,0.13975424859373686
1776725467.026,0.0431,-0.1437,9.7492,-0.0123,0.0253,-0.0016,-1.05,-31.05,57.3,-0.1772,-0.2466,9.8569,-0.0248,-0.0005,0.016,-30.9,-39.6,39.0,-0.2,0.12,9.53,0.0,-0.3125,0.0625,-27.25,-49.1875,-6.6875,359.9375,-1.25,-0.3125,0,0.7760000228881836,9.750354246897905,0.028176940926935273,9.861576395789873,0.02951762185542731,9.532853717539151,0.31868871959954903
1776725467.036,-0.012,-0.17,9.7588,-0.0157,0.0282,0.0019,-0.9,-30.45,56.4,-0.0886,-0.2011,9.8689,-0.0304,-0.0035,0.0064,-31.65,-39.6,40.05,-0.22,0.12,9.53,0.0625,-0.0625,0.0625,-27.25,-49.1875,-6.6875,359.9375,-1.25,-0.3125,0,0.7860000133514404,9.760287979357987,0.032331718172717024,9.871346330668375,0.031262917330281255,9.533294288964335,0.10825317547305482
1776725467.046,-0.0144,-0.1915,9.7971,-0.0099,0.0317,0.0011,0.0,-28.8,58.35,-0.1604,-0.3089,9.8737,-0.0261,-0.0016,0.012,-31.65,-39.6,40.05,-0.22,0.13,9.54,-0.0625,-0.0625,0.0625,-27.25,-49.1875,-6.6875,359.9375,-1.25,-0.3125,0,0.7960000038146973,9.798981988961915,0.033228150715921584,9.879832946968284,0.02877099233603179,9.54342181819498,0.10825317547305482
1776725467.051,-0.0144,-0.1915,9.7971,-0.0189,0.0242,0.0075,0.0,-28.8,58.35,-0.1365,-0.2801,9.8593,-0.032,-0.0024,0.0115,-31.65,-39.6,40.05,-0.22,0.13,9.54,0.0625,0.0625,0.0,-27.25,-48.5,-6.6875,359.9375,-1.25,-0.3125,0,0.8010001182556152,9.798981988961915,0.03160854314896528,9.864222460488206,0.034088267776465266,9.54342181819498,0.08838834764831845
1776725467.057,0.0527,-0.2035,9.7636,-0.0189,0.0242,0.0075,0.9,-30.45,58.2,-0.1365,-0.2801,9.8593,-0.032,-0.0024,0.0115,-31.2,-39.3,39.3,-0.21,0.11,9.54,0.0625,0.0625,0.0,-27.25,-48.5,-6.6875,359.9375,-1.25,-0.3125,0,0.806999921798706,9.765862711506854,0.03160854314896528,9.864222460488206,0.034088267776465266,9.542945038089655,0.08838834764831845
1776725467.066,0.0383,-0.2777,9.742,-0.012,0.0256,-0.0005,0.9,-30.45,58.2,-0.182,-0.3328,9.8761,-0.0352,-0.0085,0.0093,-31.2,-39.6,38.55,-0.21,0.13,9.58,0.0625,0.0625,0.0,-27.25,-48.5,-6.6875,359.9375,-1.25,-0.3125,0,0.8159999847412109,9.746032432738977,0.02827737611589873,9.883381559466374,0.03738689610010438,9.583183187229595,0.08838834764831845
1776725467.076,0.0263,-0.2011,9.7468,-0.012,0.0242,0.004,0.9,-30.45,58.2,-0.1293,-0.2849,9.9048,-0.0266,0.0024,0.0117,-31.2,-40.8,40.8,-0.21,0.13,9.56,0.0,0.0625,0.0625,-27.25,-48.5,-6.6875,359.9375,-1.25,-0.3125,0,0.8259999752044678,9.748909843669702,0.02730640950399741,9.909740134837039,0.029158360722098216,9.563189844398154,0.08838834764831845
1776725467.086,-0.0359,-0.1987,9.7252,-0.0123,0.0266,0.0032,-0.6,-30.3,56.25,-0.1604,-0.3041,9.8067,-0.0221,-0.0011,0.0048,-31.8,-40.95,39.15,-0.22,0.13,9.57,0.0,0.0,-0.0625,-27.25,-48.5,-6.6875,359.9375,-1.25,-0.3125,0,0.8359999656677246,9.727295900711564,0.029480332426890982,9.812724894747635,0.02264199637841151,9.573411095320205,0.0625
1776725467.096,0.0096,-0.1269,9.742,-0.0165,0.0261,0.0008,-0.15,-29.4,57.75,-0.158,-0.2466,9.9455,-0.0203,-0.0005,0.0147,-30.15,-37.65,38.55,-0.22,0.15,9.55,-0.0625,0.0,0.0625,-27.25,-48.5,-6.6875,359.9375,-1.25,-0.3125,0,0.8459999561309814,9.742831198886698,0.03088850919031218,9.949811345447712,0.02506850613818063,9.553711320738136,0.08838834764831845
1776725467.101,0.0096,-0.1269,9.742,-0.0117,0.0264,0.0024,-0.15,-29.4,57.75,-0.1939,-0.2658,9.845,-0.0314,-0.0021,0.0099,-30.15,-37.65,38.55,-0.22,0.15,9.55,-0.0625,-0.0625,0.0,-27.6875,-49.1875,-6.6875,359.9375,-1.25,-0.3125,0,0.8510000705718994,9.742831198886698,0.028976024572049217,9.850496020505771,0.03299060472316323,9.553711320738136,0.08838834764831845
1776725467.107,0.0263,-0.2155,9.7276,-0.0117,0.0264,0.0024,0.3,-31.05,57.3,-0.1939,-0.2658,9.845,-0.0314,-0.0021,0.0099,-31.05,-38.7,39.9,-0.2,0.12,9.56,-0.0625,-0.0625,0.0,-27.6875,-49.1875,-6.6875,359.9375,-1.25,-0.3125,0,0.8570001125335693,9.730022286716512,0.028976024572049217,9.850496020505771,0.03299060472316323,9.562844765026776,0.08838834764831845
1776725467.116,-0.0072,-0.1317,9.742,-0.0117,0.0269,0.0024,-0.45,-29.4,57.75,-0.0694,-0.2466,9.9695,-0.0333,-0.0048,0.012,-31.05,-38.7,39.9,-0.19,0.11,9.57,-0.0625,0.125,0.0625,-27.6875,-49.1875,-6.6875,359.9375,-1.25,-0.3125,0,0.8659999370574951,9.74289283170045,0.029432295187429743,9.972790891721333,0.0357201623736511,9.572517955062816,0.15309310892394862
1776725467.126,0.0024,-0.2011,9.7348,-0.0152,0.0312,0.0043,-0.45,-29.4,57.75,-0.158,-0.2705,9.9168,-0.0285,-0.0048,0.0112,-31.8,-40.65,38.85,-0.2,0.12,9.52,0.0,-0.125,0.125,-27.6875,-49.1875,-6.6875,359.9375,-1.25,-0.3125,0,0.875999927520752,9.736877220649339,0.03497098797574927,9.921746645122521,0.030995644855366374,9.522856714242844,0.1767766952966369
1776725467.136,0.0144,-0.2059,9.7827,-0.0117,0.0266,0.0043,-0.6,-29.55,58.05,-0.1221,-0.2562,9.8881,-0.025,-0.0003,0.0155,-31.8,-40.65,38.85,-0.23,0.14,9.57,-0.125,-0.125,-0.0625,-27.6875,-49.1875,-6.6875,359.9375,-1.25,-0.3125,0,0.8859999179840088,9.784877181651284,0.029375840413509872,9.892172079983244,0.029416661945230974,9.573787129448826,0.1875
1776725467.146,0.0359,-0.1628,9.742,-0.0149,0.0221,-0.0005,-0.3,-31.05,59.4,-0.1221,-0.2945,9.8976,-0.0266,-0.0019,0.012,-31.95,-38.55,39.3,-0.24,0.12,9.57,-0.125,-0.125,0.0,-27.6875,-49.1875,-6.6875,359.9375,-1.25,-0.3125,0,0.8959999084472656,9.74342633009559,0.026658394550310043,9.902733179279345,0.029243289828608545,9.573761016444896,0.1767766952966369
1776725467.151,0.0359,-0.1628,9.742,-0.0168,0.0266,0.0021,-0.15,-28.95,57.45,-0.1221,-0.2945,9.8976,-0.0266,-0.0019,0.012,-31.95,-38.55,39.3,-0.24,0.12,9.57,-0.0625,0.125,-0.0625,-26.875,-48.0625,-7.0625,359.9375,-1.25,-0.3125,0,0.9010000228881836,9.74342633009559,0.031531095762754584,9.902733179279345,0.029243289828608545,9.573761016444896,0.15309310892394862
1776725467.157,0.0263,-0.1724,9.754,-0.0099,0.0264,-0.0011,-0.15,-28.95,57.45,-0.1676,-0.2227,9.8545,-0.0282,-0.0035,0.0141,-31.8,-38.25,39.15,-0.21,0.15,9.57,-0.0625,0.125,-0.0625,-26.875,-48.0625,-7.0625,359.9375,-1.25,-0.3125,0,0.9070000648498535,9.755558899929824,0.02821666174443745,9.858440814855054,0.03172223195174009,9.573478991463865,0.15309310892394862
1776725467.166,-0.0263,-0.1221,9.7276,-0.0136,0.0248,0.0035,-0.15,-30.15,57.15,-0.146,-0.261,9.8617,-0.0272,0.0008,0.0163,-30.3,-39.0,39.9,-0.22,0.12,9.57,-0.125,-0.125,0.0,-26.875,-48.0625,-7.0625,359.9375,-1.25,-0.3125,0,0.9159998893737793,9.72840181427556,0.028499999999999998,9.866233520954186,0.03172018284940993,9.573280524459731,0.1767766952966369
1776725467.176,-0.0144,-0.0814,9.7133,-0.0168,0.029,0.0024,-0.15,-30.15,57.15,-0.103,-0.2538,9.9192,-0.0253,-0.0011,0.0112,-31.8,-38.7,39.15,-0.2,0.11,9.52,0.0625,-0.125,-0.0625,-26.875,-48.0625,-7.0625,359.9375,-1.25,-0.3125,0,0.9260001182556152,9.713651744323553,0.03360059523282288,9.922981007741575,0.02769007042244566,9.52273595139548,0.15309310892394862
1776725467.186,0.0383,-0.1508,9.7372,-0.0128,0.0328,0.0003,-0.15,-30.15,57.15,-0.1532,-0.2825,9.9192,-0.033,-0.0027,0.0123,-31.2,-39.3,40.5,-0.21,0.11,9.59,0.125,-0.0625,-0.0625,-26.875,-48.0625,-7.0625,359.9375,-1.25,-0.3125,0,0.9360001087188721,9.738442964355237,0.03521036779131965,9.924404522690518,0.03532109851066357,9.59292968805672,0.15309310892394862
1776725467.196,0.0287,-0.1365,9.7348,-0.0144,0.0266,0.0005,-1.35,-30.3,57.3,-0.1293,-0.3304,9.8641,-0.0274,0.0029,0.0131,-32.4,-39.3,39.3,-0.22,0.11,9.52,0.0,-0.1875,-0.0625,-26.875,-48.0625,-7.0625,359.9375,-1.25,-0.3125,0,0.9460000991821289,9.73579924710858,0.030251776807321582,9.870478785752999,0.030508687287394063,9.523176990899623,0.19764235376052372
1776725467.201,0.0455,-0.17,9.7588,-0.0144,0.0266,0.0005,-0.45,-32.4,57.45,-0.1293,-0.3304,9.8641,-0.0274,0.0029,0.0131,-32.4,-39.3,39.3,-0.22,0.11,9.52,-0.125,0.0625,-0.125,-26.5625,-48.75,-6.6875,359.9375,-1.25,-0.3125,0,0.9509999752044678,9.760386656787732,0.030251776807321582,9.870478785752999,0.030508687287394063,9.523176990899623,0.1875
1776725467.207,0.0455,-0.17,9.7588,-0.0157,0.0296,0.004,-0.45,-32.4,57.45,-0.1341,-0.2873,9.8785,-0.0274,-0.0008,0.0096,-32.4,-39.3,39.3,-0.2,0.17,9.54,-0.125,0.0625,-0.125,-26.5625,-48.75,-6.6875,359.9375,-1.25,-0.3125,0,0.9570000171661377,9.760386656787732,0.03374388833551937,9.883586714852054,0.02904410439314664,9.543610427925062,0.1875
1776725467.216,0.0503,-0.1484,9.7516,-0.0149,0.0272,0.0027,0.15,-30.9,58.2,-0.1197,-0.3065,9.8689,-0.0293,-0.0016,0.0096,-31.2,-37.65,39.3,-0.21,0.11,9.57,-0.0625,0.0,-0.0625,-26.5625,-48.75,-6.6875,359.9375,-1.25,-0.3125,0,0.9660000801086426,9.752858822417148,0.031131013475311078,9.874383907363537,0.030874099177141994,9.572935808831062,0.08838834764831845
1776725467.226,0.0407,-0.1484,9.7276,-0.012,0.0258,0.0035,0.15,-29.4,58.2,-0.17,-0.2442,9.8904,-0.0277,-0.0053,0.0147,-31.2,-37.65,39.3,-0.21,0.13,9.53,0.0,0.0,-0.125,-26.5625,-48.75,-6.6875,359.9375,-1.25,-0.3125,0,0.9760000705718994,9.728817030348551,0.028668623964187748,9.894874723815354,0.03180361614659566,9.533199882515838,0.125
1776725467.236,0.0335,-0.17,9.7372,-0.0163,0.0266,0.0016,0.15,-29.4,58.2,-0.1293,-0.2969,9.8521,-0.0248,0.0011,0.0117,-31.95,-38.55,40.05,-0.22,0.11,9.57,-0.0625,0.0625,0.0625,-26.5625,-48.75,-6.6875,359.9375,-1.25,-0.3125,0,0.9860000610351562,9.73874150442448,0.031237957679720357,9.857420682409776,0.02744339629127561,9.573160397695215,0.10825317547305482
1776725467.246,0.0144,-0.1125,9.7731,-0.0176,0.028,0.0048,-0.6,-31.05,57.3,-0.0862,-0.3136,9.9192,-0.0277,0.0,0.0149,-31.95,-38.55,40.05,-0.21,0.14,9.54,0.0625,0.0,-0.0625,-26.5625,-48.75,-6.6875,359.9375,-1.25,-0.3125,0,0.9960000514984131,9.773758090928995,0.033418557718728675,9.924530419118076,0.031453139747885266,9.543337990451768,0.08838834764831845
1776725467.251,-0.0455,-0.17,9.6941,-0.0176,0.028,0.0048,-0.6,-31.5,56.55,-0.0862,-0.3136,9.9192,-0.0237,-0.0045,0.0155,-31.2,-38.85,37.95,-0.21,0.14,9.54,0.0,-0.1875,0.0,-26.5625,-49.1875,-7.875,359.9375,-1.25,-0.3125,0,1.000999927520752,9.695697244654456,0.033418557718728675,9.924530419118076,0.028673855687716642,9.543337990451768,0.1875
1776725467.257,-0.0455,-0.17,9.6941,-0.0165,0.0301,0.0003,-0.6,-31.5,56.55,-0.0838,-0.2777,9.8833,-0.0237,-0.0045,0.0155,-31.05,-39.0,39.6,-0.21,0.12,9.57,0.0,-0.1875,0.0,-26.5625,-49.1875,-7.875,359.9375,-1.25,-0.3125,0,1.0069999694824219,9.695697244654456,0.034327102994572666,9.887555745481286,0.028673855687716642,9.573055938413814,0.1875
1776725467.267,0.0694,-0.158,9.7731,-0.0117,0.0232,0.0003,0.6,-30.75,58.05,-0.1676,-0.2658,9.9144,-0.0274,-0.0005,0.0099,-31.05,-39.0,39.6,-0.22,0.13,9.57,-0.1875,0.1875,-0.0625,-26.5625,-49.1875,-7.875,359.9375,-1.25,-0.3125,0,1.0169999599456787,9.774623469474413,0.02598499567057882,9.919378345440808,0.02913794776575729,9.573411095320205,0.2724311839712921
1776725467.276,0.0287,-0.1604,9.742,-0.0117,0.0274,0.0024,0.15,-31.2,57.45,-0.1197,-0.2969,9.8952,-0.0256,0.0011,0.0163,-31.95,-40.5,39.75,-0.22,0.14,9.54,-0.125,-0.0625,0.0625,-26.5625,-49.1875,-7.875,359.9375,-1.25,-0.3125,0,1.0260000228881836,9.743362656188058,0.02988996487117374,9.900376797879968,0.030368733921584547,9.543563275841995,0.15309310892394862
1776725467.286,0.0215,-0.182,9.7181,-0.0152,0.0288,0.0019,0.15,-31.2,57.45,-0.1652,-0.2586,9.8833,-0.0237,0.0016,0.0101,-31.95,-40.5,39.75,-0.2,0.13,9.54,0.0,-0.0625,-0.0625,-26.5625,-49.1875,-7.875,359.9375,-1.25,-0.3125,0,1.0360000133514404,9.719827871932711,0.03262039239494215,9.888062696504306,0.025812012707264808,9.542981714328073,0.08838834764831845
1776725467.296,-0.0048,-0.1676,9.73,-0.0128,0.0304,0.0053,-0.6,-30.3,57.6,-0.103,-0.3232,9.8306,-0.0272,0.0024,0.0131,-31.5,-38.7,39.9,-0.2,0.12,9.56,-0.0625,-0.0625,-0.0625,-26.5625,-49.1875,-7.875,359.9375,-1.25,-0.3125,0,1.0460000038146973,9.731444538196785,0.03340793318958837,9.836450762343093,0.030285475066440675,9.562844765026776,0.10825317547305482
1776725467.302,0.0168,-0.2107,9.7229,-0.0109,0.0269,0.0037,0.15,-30.15,57.45,-0.0982,-0.2705,9.8881,-0.029,-0.0064,0.0125,-31.5,-38.7,39.9,-0.2,0.12,9.56,-0.125,0.0625,-0.0625,-27.25,-48.75,-5.875,359.9375,-1.25,-0.3125,0,1.0520000457763672,9.72519722884837,0.029259357477566045,9.892286646675784,0.03222126626934454,9.562844765026776,0.15309310892394862
1776725467.307,-0.0239,-0.2011,9.7085,-0.0109,0.0269,0.0037,0.15,-30.15,57.45,-0.0982,-0.2705,9.8881,-0.029,-0.0064,0.0125,-31.5,-39.45,40.35,-0.2,0.12,9.56,-0.125,0.0625,-0.0625,-27.25,-48.75,-5.875,359.9375,-1.25,-0.3125,0,1.056999921798706,9.710611961663385,0.029259357477566045,9.892286646675784,0.03222126626934454,9.562844765026776,0.15309310892394862
1776725467.316,-0.0239,-0.2011,9.7085,-0.0139,0.0344,-0.0013,-1.5,-29.7,56.4,-0.1389,-0.2251,9.8521,-0.0192,-0.0011,0.0128,-31.5,-39.45,40.35,-0.2,0.12,9.57,-0.0625,-0.125,-0.0625,-27.25,-48.75,-5.875,359.9375,-1.25,-0.3125,0,1.065999984741211,9.710611961663385,0.037124924242346945,9.855650035893117,0.02310173153683507,9.572841793323443,0.15309310892394862
1776725467.326,0.0,-0.1844,9.6774,-0.0171,0.0317,0.0013,-0.45,-30.45,57.75,-0.1796,-0.261,9.8881,-0.0306,-0.0008,0.0123,-31.05,-40.65,38.4,-0.2,0.13,9.54,-0.125,0.0,0.0,-27.25,-48.75,-5.875,359.9375,-1.25,-0.3125,0,1.0759999752044678,9.679156684339809,0.0360415038531968,9.89317435255237,0.0329892406702549,9.542981714328073,0.125
1776725467.336,-0.0311,-0.1676,9.7468,-0.0149,0.0264,0.0029,-1.05,-29.25,56.55,-0.1508,-0.2131,9.8904,-0.0317,-0.0043,0.0149,-31.65,-39.6,39.0,-0.22,0.14,9.53,0.0,-0.125,-0.125,-27.25,-48.75,-5.875,359.9375,-1.25,-0.3125,0,1.0859999656677246,9.748290476283522,0.030452914474644294,9.893844773898566,0.035290083592986854,9.533567013453045,0.1767766952966369
1776725467.346,0.0168,-0.146,9.7588,-0.0136,0.0309,0.0059,-1.05,-29.25,56.55,-0.1437,-0.2969,9.8689,-0.0301,-0.0019,0.0067,-31.2,-38.55,39.0,-0.19,0.1,9.55,0.0,-0.0625,-0.125,-27.25,-48.75,-5.875,359.9375,-1.25,-0.3125,0,1.0959999561309814,9.759906540536134,0.0342721461248052,9.87441069178308,0.03089514524969902,9.552413307641164,0.13975424859373686
1776725467.351,0.0168,-0.146,9.7588,-0.0123,0.0234,0.0051,-0.6,-30.75,57.3,-0.1413,-0.2897,9.8713,-0.0266,-0.0037,0.0128,-31.2,-40.5,39.75,-0.19,0.1,9.55,-0.1875,0.0625,0.0,-27.25,-48.75,-7.0625,359.9375,-1.25,-0.3125,0,1.1010000705718994,9.759906540536134,0.02692322417542149,9.876560913091156,0.02975046218128384,9.552413307641164,0.19764235376052372
1776725467.357,-0.0024,-0.2179,9.7612,-0.0123,0.0234,0.0051,-1.5,-30.15,57.3,-0.1413,-0.2897,9.8713,-0.0224,-0.0024,0.0123,-31.2,-40.5,39.75,-0.22,0.14,9.54,-0.1875,0.0625,0.0,-27.25,-48.75,-7.0625,359.9375,-1.25,-0.3125,0,1.1070001125335693,9.763632091081679,0.02692322417542149,9.876560913091156,0.025667294364618957,9.543563275841995,0.19764235376052372
1776725467.367,0.0192,-0.2011,9.7731,-0.0165,0.033,0.0037,-1.5,-30.15,56.4,-0.1556,-0.34,9.8497,-0.0272,-0.0024,0.0141,-31.2,-38.55,39.0,-0.23,0.12,9.56,-0.0625,0.0,0.0,-27.25,-48.75,-7.0625,359.9375,-1.25,-0.3125,0,1.1170001029968262,9.775187643211765,0.037080183386817275,9.856794684378894,0.030731254448850602,9.563519226728204,0.0625
1776725467.377,0.0455,-0.1293,9.8043,-0.0144,0.0298,0.0037,0.15,-31.2,56.4,-0.1796,-0.3256,9.8881,-0.0258,-0.0064,0.008,-31.2,-38.55,39.0,-0.22,0.13,9.56,0.125,0.0,-0.125,-27.25,-48.75,-7.0625,359.9375,-1.25,-0.3125,0,1.127000093460083,9.805258141935887,0.0333030028676094,9.895089344215139,0.027759682995308142,9.563414662138205,0.1767766952966369
1776725467.387,0.0718,-0.2059,9.7133,-0.0152,0.0248,0.0,-0.3,-29.55,58.05,-0.1844,-0.2514,9.8785,-0.0272,-0.0072,0.0117,-29.85,-39.45,39.6,-0.2,0.13,9.56,0.0625,-0.25,0.125,-27.25,-48.75,-7.0625,359.9375,-1.25,-0.3125,0,1.1370000839233398,9.715747369091067,0.029087454340316548,9.88341881992259,0.03047244657063164,9.562975478374918,0.28641098093474
1776725467.397,-0.0072,-0.1365,9.7324,-0.0139,0.0298,0.0005,-0.3,-29.55,58.05,-0.1149,-0.2777,9.8952,-0.0181,-0.0035,0.0083,-29.85,-39.45,39.6,-0.22,0.14,9.55,0.0625,-0.0625,0.0625,-27.25,-48.75,-7.0625,359.9375,-1.25,-0.3125,0,1.1470000743865967,9.73335984385659,0.0328861673048107,9.899762741601439,0.02021756661915573,9.553559546054027,0.10825317547305482
1776725467.402,-0.0072,-0.1365,9.7324,-0.0107,0.0306,0.0032,-0.45,-30.15,57.75,-0.1149,-0.2777,9.8952,-0.0181,-0.0035,0.0083,-30.75,-38.7,39.15,-0.22,0.14,9.55,-0.0625,-0.0625,0.0,-26.875,-49.5625,-7.0625,359.9375,-1.25,-0.3125,0,1.1519999504089355,9.73335984385659,0.03257437643301864,9.899762741601439,0.02021756661915573,9.553559546054027,0.08838834764831845
1776725467.407,0.0072,-0.1604,9.7324,-0.0107,0.0306,0.0032,-1.8,-31.05,57.6,-0.1365,-0.2969,9.8713,-0.0264,0.0027,0.0104,-30.75,-38.7,39.15,-0.2,0.15,9.56,-0.0625,-0.0625,0.0,-26.875,-49.5625,-7.0625,359.9375,-1.25,-0.3125,0,1.1570000648498535,9.733724351963128,0.03257437643301864,9.876707222045209,0.028502806879323307,9.563268269791452,0.08838834764831845
1776725467.417,0.0407,-0.2011,9.7276,-0.0112,0.0285,0.0032,-1.5,-30.45,58.2,-0.1796,-0.2083,9.8258,-0.0264,-0.0051,0.0117,-30.9,-39.6,41.55,-0.22,0.12,9.56,-0.1875,-0.0625,0.0,-26.875,-49.5625,-7.0625,359.9375,-1.25,-0.3125,0,1.1670000553131104,9.729763587055958,0.030788471868541965,9.829648553737819,0.02932336951988976,9.563283954792935,0.19764235376052372
1776725467.427,0.0287,-0.1484,9.7731,-0.0128,0.0288,0.0035,0.6,-29.25,57.0,-0.1341,-0.2346,9.8426,-0.0274,-0.0029,0.0091,-31.65,-39.3,39.0,-0.22,0.11,9.53,-0.0625,-0.125,-0.125,-26.875,-49.5625,-7.0625,359.9375,-1.25,-0.3125,0,1.1770000457763672,9.774268763442102,0.03171009303045325,9.846308685492243,0.029016891632288943,9.533173658336452,0.1875
1776725467.436,0.0024,-0.1556,9.6989,-0.0101,0.0314,0.0021,-0.3,-30.3,58.35,-0.1676,-0.3065,9.8067,-0.0197,0.0029,0.0133,-29.85,-40.65,39.15,-0.19,0.12,9.56,-0.0625,-0.0625,0.0625,-26.875,-49.5625,-7.0625,359.9375,-1.25,-0.3125,0,1.186000108718872,9.700148366391105,0.033051172445164485,9.812919896748367,0.02394556326336885,9.562640848635905,0.10825317547305482
1776725467.447,0.0215,-0.2035,9.7755,-0.0187,0.0277,-0.0011,-0.3,-30.3,58.35,-0.0694,-0.328,9.8521,-0.032,-0.0021,0.012,-31.2,-39.3,39.3,-0.2,0.14,9.53,-0.125,0.0,-0.0625,-26.875,-49.5625,-7.0625,359.9375,-1.25,-0.3125,0,1.1970000267028809,9.77764157401978,0.03343934807976974,9.857802735396971,0.034240473127572287,9.533126454631764,0.13975424859373686
1776725467.452,0.0215,-0.2035,9.7755,-0.0187,0.0277,-0.0011,-0.3,-30.3,58.35,-0.0694,-0.328,9.8521,-0.032,-0.0021,0.012,-31.8,-37.95,39.15,-0.2,0.14,9.53,0.0,-0.125,0.0625,-26.5625,-49.1875,-7.0625,359.9375,-1.25,-0.3125,0,1.2019999027252197,9.77764157401978,0.03343934807976974,9.857802735396971,0.034240473127572287,9.533126454631764,0.13975424859373686
1776725467.457,-0.0503,-0.1939,9.7444,-0.0131,0.0258,0.0035,-1.8,-31.05,58.35,-0.17,-0.237,9.912,-0.0274,0.0005,0.0096,-31.8,-37.95,39.15,-0.22,0.13,9.52,0.0,-0.125,0.0625,-26.5625,-49.1875,-7.0625,359.9375,-1.25,-0.3125,0,1.2070000171661377,9.746458775370673,0.029146183283579343,9.916290284173815,0.029037389689846437,9.523429004303019,0.13975424859373686
1776725467.467,0.0694,-0.1844,9.73,-0.0125,0.024,0.0027,-1.35,-30.75,58.05,-0.1053,-0.3136,9.8713,-0.0253,-0.0008,0.0133,-31.8,-37.95,39.15,-0.2,0.11,9.53,0.0625,0.0625,0.0,-26.5625,-49.1875,-7.0625,359.9375,-1.25,-0.3125,0,1.2170000076293945,9.731994642415296,0.027194484734960507,9.876841435398262,0.028594055326238703,9.532733081336117,0.08838834764831845
1776725467.477,0.0263,-0.1676,9.7683,-0.012,0.0312,0.0032,-0.45,-30.9,58.2,-0.1628,-0.2418,9.9359,-0.0245,0.0021,0.012,-30.3,-38.7,38.85,-0.21,0.14,9.54,0.0,0.0625,0.0,-26.5625,-49.1875,-7.0625,359.9375,-1.25,-0.3125,0,1.2269999980926514,9.769773095625098,0.03358094697890457,9.940175043227358,0.02736165199690984,9.543337990451768,0.0625
1776725467.487,0.0599,-0.2274,9.7468,-0.0125,0.0264,0.0069,-1.8,-29.25,57.3,-0.1125,-0.2658,9.8402,-0.0274,-0.0003,0.0075,-30.3,-38.7,38.85,-0.22,0.12,9.55,0.0625,-0.0625,0.0,-26.5625,-49.1875,-7.0625,359.9375,-1.25,-0.3125,0,1.2369999885559082,9.749636352705675,0.030013663555121025,9.844432026785496,0.028409505451520975,9.553287392306379,0.08838834764831845
1776725467.497,0.0311,-0.1437,9.7492,-0.0123,0.0304,0.004,-1.8,-29.25,57.3,-0.1221,-0.3041,9.8545,-0.0216,-0.0016,0.0155,-30.9,-38.55,38.55,-0.22,0.11,9.55,0.0,-0.125,0.0625,-26.5625,-49.1875,-7.0625,359.9375,-1.25,-0.3125,0,1.246999979019165,9.750308586911494,0.033037100357022856,9.859947031804989,0.02663400082601185,9.55316701413725,0.13975424859373686
1776725467.502,0.0551,-0.1556,9.7444,-0.0123,0.0304,0.004,-1.8,-29.25,57.3,-0.1149,-0.2682,9.8641,-0.0258,-0.0035,0.0144,-30.15,-40.8,39.0,-0.22,0.11,9.55,0.0625,0.125,0.0,-28.0,-48.75,-7.0625,359.9375,-1.25,-0.3125,0,1.252000093460083,9.74579800375526,0.033037100357022856,9.86841436402019,0.02975315109362368,9.55316701413725,0.13975424859373686
1776725467.508,0.0551,-0.1556,9.7444,-0.0125,0.0245,-0.0003,-0.15,-30.9,56.7,-0.1149,-0.2682,9.8641,-0.0258,-0.0035,0.0144,-30.15,-40.8,39.0,-0.2,0.11,9.55,0.0625,0.125,0.0,-28.0,-48.75,-7.0625,359.9375,-1.25,-0.3125,0,1.2579998970031738,9.74579800375526,0.027506181123522037,9.86841436402019,0.02975315109362368,9.552727359241445,0.13975424859373686
1776725467.517,0.0192,-0.1891,9.7157,-0.0157,0.0298,0.0003,-0.6,-30.75,58.65,-0.0694,-0.2346,9.8474,-0.0253,-0.0003,0.0168,-31.65,-39.6,38.55,-0.22,0.11,9.53,-0.0625,0.0625,0.0,-28.0,-48.75,-7.0625,359.9375,-1.25,-0.3125,0,1.2669999599456787,9.717559052560473,0.03368412088803862,9.850438583129181,0.030371368095625854,9.533173658336452,0.08838834764831845
1776725467.527,0.0,-0.1556,9.7181,-0.0147,0.0261,0.0029,-0.9,-29.4,57.15,-0.1053,-0.2753,9.8833,-0.025,0.0005,0.0109,-31.8,-38.7,38.4,-0.2,0.12,9.53,0.125,-0.125,-0.0625,-28.0,-48.75,-7.0625,359.9375,-1.25,-0.3125,0,1.2769999504089355,9.719345604000301,0.030095016198699746,9.887694224135371,0.027277463225160805,9.532853717539151,0.1875
1776725467.537,0.012,-0.158,9.7205,-0.0128,0.0282,0.0013,-1.2,-30.45,57.15,-0.1532,-0.249,9.845,-0.0253,-0.0016,0.0107,-31.8,-39.0,39.15,-0.22,0.12,9.53,0.125,0.0,0.0,-28.0,-48.75,-7.0625,359.9375,-1.25,-0.3125,0,1.2869999408721924,9.72179141156608,0.03099629010059107,9.849339888540756,0.0275161770600496,9.533294288964335,0.125
1776725467.547,-0.0144,-0.1748,9.7276,-0.0128,0.0234,0.0032,-1.5,-30.9,58.2,-0.1532,-0.2969,9.8857,-0.0221,-0.0016,0.012,-31.05,-39.9,38.1,-0.22,0.13,9.58,0.125,-0.125,-0.0625,-28.0,-48.75,-7.0625,359.9375,-1.25,-0.3125,0,1.2969999313354492,9.72918106317279,0.02686335794348875,9.891343909702059,0.02519861107283495,9.583407535944612,0.1875
1776725467.552,0.0048,-0.2035,9.7348,-0.0128,0.0234,0.0032,-1.5,-30.9,58.2,-0.1676,-0.3184,9.912,-0.0274,-0.0021,0.008,-31.05,-39.9,38.1,-0.22,0.13,9.58,0.125,0.0625,0.0,-26.875,-49.1875,-6.6875,359.9375,-1.25,-0.3125,0,1.3020000457763672,9.73692797190161,0.02686335794348875,9.918528737670725,0.028621146028766916,9.583407535944612,0.13975424859373686
1776725467.558,0.0048,-0.2035,9.7348,-0.0163,0.0277,0.0061,-1.5,-30.9,58.2,-0.1676,-0.3184,9.912,-0.0274,-0.0021,0.008,-31.05,-39.9,38.1,-0.21,0.13,9.56,0.125,0.0625,0.0,-26.875,-49.1875,-6.6875,359.9375,-1.25,-0.3125,0,1.308000087738037,9.73692797190161,0.032713758573419835,9.918528737670725,0.028621146028766916,9.563189844398154,0.13975424859373686
1776725467.567,-0.0383,-0.2514,9.7013,-0.0117,0.0253,0.0021,0.0,-30.3,56.55,-0.091,-0.2897,9.8306,-0.0282,0.0008,0.0091,-31.95,-39.3,40.5,-0.21,0.13,9.57,0.0625,-0.0625,0.0,-26.875,-49.1875,-6.6875,359.9375,-1.25,-0.3125,0,1.316999912261963,9.704632426836165,0.027953354002695274,9.835288681579204,0.029642705679475346,9.573186512337468,0.08838834764831845
1776725467.577,0.0072,-0.1772,9.6989,-0.0099,0.0264,-0.0019,-0.9,-29.7,58.2,-0.1556,-0.261,9.8857,-0.0203,-0.0027,0.0109,-30.9,-39.3,40.05,-0.2,0.14,9.53,-0.125,0.0625,0.0,-26.875,-49.1875,-6.6875,359.9375,-1.25,-0.3125,0,1.3269999027252197,9.700521268983435,0.028259157807691296,9.89036889352465,0.02319892238876625,9.533126454631764,0.13975424859373686
1776725467.587,0.0263,-0.1221,9.7324,-0.0123,0.0274,0.0016,-0.6,-31.5,57.3,-0.1676,-0.2969,9.8761,-0.0298,-0.0019,0.0109,-31.05,-38.7,39.15,-0.2,0.11,9.54,0.0,0.1875,0.0625,-26.875,-49.1875,-6.6875,359.9375,-1.25,-0.3125,0,1.3369998931884766,9.73320141885495,0.03007673519516372,9.881983129918812,0.031787733483216445,9.542730217291066,0.19764235376052372
1776725467.597,0.0407,-0.1532,9.7516,-0.0115,0.0301,0.0008,-0.3,-29.55,57.6,-0.1101,-0.2155,9.8833,-0.0293,-0.0019,0.0128,-31.2,-39.6,40.05,-0.2,0.14,9.53,-0.0625,0.0625,0.0,-26.875,-49.1875,-6.6875,359.9375,-1.25,-0.3125,0,1.3469998836517334,9.752888253743093,0.03223197170512533,9.886262243638898,0.03203029815658918,9.533126454631764,0.08838834764831845
1776725467.602,0.0407,-0.1221,9.7803,-0.0104,0.0234,0.0021,-0.3,-29.55,57.6,-0.1484,-0.2873,9.8402,-0.0285,-0.0045,0.0131,-31.2,-37.65,39.75,-0.2,0.14,9.53,0.125,0.125,0.0,-27.6875,-48.75,-5.875,359.9375,-1.25,-0.3125,0,1.3519999980926514,9.781146813641026,0.025692995154321732,9.845511662173784,0.03168769477257694,9.533126454631764,0.1767766952966369
1776725467.608,-0.0072,-0.1508,9.7085,-0.0104,0.0234,0.0021,-0.3,-29.55,57.6,-0.1221,-0.3232,9.8497,-0.0285,0.0,0.0171,-31.2,-37.65,39.75,-0.22,0.11,9.55,0.125,0.125,0.0,-27.6875,-48.75,-5.875,359.9375,-1.25,-0.3125,0,1.3580000400543213,9.70967377052391,0.025692995154321732,9.855757542675246,0.03323642580061821,9.55316701413725,0.1767766952966369
1776725467.617,0.0239,-0.1748,9.7516,-0.0109,0.0282,0.0011,-0.3,-31.05,55.8,-0.1604,-0.328,9.8713,-0.0256,-0.0021,0.0195,-30.9,-39.3,39.0,-0.2,0.12,9.6,-0.0625,0.0625,0.0,-27.6875,-48.75,-5.875,359.9375,-1.25,-0.3125,0,1.3670001029968262,9.753195825471773,0.030253264286684834,9.87805020487343,0.032249341078539884,9.602832915343264,0.08838834764831845
1776725467.627,0.0479,-0.2035,9.6726,-0.0149,0.028,0.0083,-0.3,-30.0,58.35,-0.1077,-0.3089,9.8857,-0.0298,-0.0005,0.0107,-30.9,-39.3,39.0,-0.21,0.13,9.54,0.0625,-0.0625,0.0,-27.6875,-48.75,-5.875,359.9375,-1.25,-0.3125,0,1.377000093460083,9.674859038766403,0.03278566760034025,9.891111312183277,0.031666701754366526,9.543196529465376,0.08838834764831845
1776725467.637,-0.0335,-0.2155,9.7659,-0.0125,0.029,0.0024,-1.5,-31.65,58.2,-0.103,-0.2562,9.8809,-0.0277,-0.0035,0.0109,-32.7,-39.6,39.75,-0.21,0.14,9.58,0.0,0.125,-0.0625,-27.6875,-48.75,-5.875,359.9375,-1.25,-0.3125,0,1.3870000839233398,9.768334827901837,0.03167033312107721,9.88475757163523,0.029972487384266257,9.583324057966525,0.13975424859373686
1776725467.647,0.0479,-0.17,9.754,-0.0088,0.0333,-0.0011,0.0,-31.05,57.6,-0.1413,-0.3041,9.9096,-0.0274,-0.0045,0.0157,-32.7,-39.6,39.75,-0.22,0.12,9.57,-0.125,0.125,-0.125,-27.6875,-48.75,-5.875,359.9375,-1.25,-0.3125,0,1.3970000743865967,9.75559892625768,0.03446070225633831,9.91527178951742,0.03189827581547316,9.573280524459731,0.21650635094610965
1776725467.652,0.0479,-0.17,9.754,-0.0128,0.0192,0.0067,-0.15,-31.2,57.15,-0.1413,-0.3041,9.9096,-0.0274,-0.0045,0.0157,-31.65,-39.6,39.3,-0.22,0.12,9.57,-0.125,0.0,0.0,-26.5625,-49.1875,-6.25,359.9375,-1.25,-0.3125,0,1.4019999504089355,9.75559892625768,0.024028524715429368,9.91527178951742,0.03189827581547316,9.573280524459731,0.125
1776725467.658,0.0503,-0.1317,9.7205,-0.0128,0.0192,0.0067,-0.15,-31.2,57.15,-0.1365,-0.2682,9.8545,-0.0245,0.0019,0.0128,-31.65,-39.6,39.3,-0.21,0.14,9.55,-0.125,0.0,0.0,-26.5625,-49.1875,-6.25,359.9375,-1.25,-0.3125,0,1.4079999923706055,9.721522269171635,0.024028524715429368,9.859093961414507,0.027707399733645163,9.55333449639444,0.125
1776725467.667,0.0,-0.1604,9.7205,-0.0155,0.028,0.0011,-0.15,-31.2,57.15,-0.1963,-0.2346,9.833,-0.0285,0.0013,0.0115,-31.95,-39.3,39.75,-0.22,0.13,9.55,0.0625,-0.0625,-0.125,-26.5625,-49.1875,-6.25,359.9375,-1.25,-0.3125,0,1.4170000553131104,9.721823306869961,0.03202280437438295,9.837756850522378,0.030760201559807764,9.553418236421978,0.15309310892394862
1776725467.677,0.012,-0.1796,9.6414,-0.0133,0.0285,0.0008,0.3,-31.05,57.3,-0.2035,-0.2753,9.8833,-0.0264,0.0,0.0157,-30.75,-39.45,40.65,-0.22,0.11,9.52,0.0,-0.0625,0.0,-26.5625,-49.1875,-6.25,359.9375,-1.25,-0.3125,0,1.4270000457763672,9.64308011581362,0.031460769221365203,9.88922753454485,0.03071563119976537,9.523176990899623,0.0625
1776725467.687,0.0431,-0.1628,9.7923,-0.0107,0.032,0.0075,-0.9,-30.15,57.15,-0.0934,-0.3112,9.8881,-0.0253,-0.0005,0.0104,-30.75,-40.95,41.1,-0.22,0.11,9.54,0.0625,0.0,-0.0625,-26.5625,-49.1875,-6.25,359.9375,-1.25,-0.3125,0,1.437000036239624,9.79374804352246,0.03456501121076051,9.893436744124864,0.027358728040608907,9.5431703327563,0.08838834764831845
1776725467.697,-0.0024,-0.1891,9.7779,-0.0136,0.0272,0.0037,0.45,-30.15,57.15,-0.1149,-0.3041,9.8354,-0.0274,-0.0027,0.0128,-31.8,-39.0,39.15,-0.21,0.13,9.55,0.0625,0.0625,-0.0625,-26.5625,-49.1875,-6.25,359.9375,-1.25,-0.3125,0,1.4470000267028809,9.77972867619547,0.030634784151353178,9.840770903745295,0.030362641518813873,9.553193183433486,0.10825317547305482
1776725467.702,-0.0024,-0.1891,9.7779,-0.0112,0.0264,0.0005,-0.45,-31.2,57.75,-0.1149,-0.3041,9.8354,-0.0274,-0.0027,0.0128,-30.15,-40.8,39.0,-0.21,0.13,9.55,0.0,0.125,-0.125,-27.6875,-48.5,-7.5,359.9375,-1.25,-0.3125,0,1.4519999027252197,9.77972867619547,0.028681875810344065,9.840770903745295,0.030362641518813873,9.553193183433486,0.1767766952966369
1776725467.708,0.0479,-0.1269,9.7516,-0.0139,0.0301,-0.0016,-0.45,-31.2,57.75,-0.0982,-0.2658,9.9,-0.0264,-0.0032,0.0115,-30.15,-40.8,39.0,-0.2,0.11,9.57,0.0,0.125,-0.125,-27.6875,-48.5,-7.5,359.9375,-1.25,-0.3125,0,1.4579999446868896,9.752543287778835,0.033193071566216946,9.904054365763548,0.028973263537268285,9.57272166105335,0.1767766952966369
1776725467.717,0.0,-0.1844,9.7133,-0.0139,0.0301,-0.0016,-0.45,-31.2,57.75,-0.0694,-0.2921,9.8785,-0.0325,-0.004,0.0123,-30.15,-40.8,39.0,-0.21,0.11,9.56,0.0625,-0.0625,0.0,-27.6875,-48.5,-7.5,359.9375,-1.25,-0.3125,0,1.4670000076293945,9.715050192870853,0.033193071566216946,9.883061318235358,0.03497913663885945,9.562938878817537,0.08838834764831845
1776725467.727,-0.0599,-0.1604,9.7252,-0.0085,0.0296,0.0021,-1.05,-29.25,57.3,-0.1101,-0.2466,9.8186,-0.0253,-0.0008,0.0093,-31.95,-39.6,39.3,-0.19,0.11,9.56,0.0625,-0.0625,-0.125,-27.6875,-48.5,-7.5,359.9375,-1.25,-0.3125,0,1.4769999980926514,9.726707110322588,0.030867782557222993,9.822313349206489,0.02696701689100965,9.56252058821313,0.15309310892394862
1776725467.737,0.0383,-0.1915,9.7923,-0.0165,0.029,0.0016,-0.9,-28.65,57.45,-0.1796,-0.261,9.9623,-0.0277,-0.0077,0.0123,-31.95,-39.6,39.3,-0.2,0.13,9.58,0.0,0.125,0.0,-27.6875,-48.5,-7.5,359.9375,-1.25,-0.3125,0,1.4869999885559082,9.794247210990745,0.03340374230531663,9.967336577541666,0.03127091300234133,9.58296926844702,0.125
1776725467.747,0.079,-0.1867,9.7516,-0.0144,0.0221,0.0035,-1.35,-31.05,58.35,-0.1413,-0.2993,9.8785,-0.0272,-0.0011,0.0157,-31.5,-39.45,39.6,-0.23,0.13,9.59,0.0,-0.0625,-0.0625,-27.6875,-48.5,-7.5,359.9375,-1.25,-0.3125,0,1.496999979019165,9.753707010670354,0.026608645211660065,9.884043121617793,0.03142514916432378,9.593638517267575,0.08838834764831845
1776725467.752,0.079,-0.1867,9.7516,-0.0144,0.0221,0.0035,0.3,-28.8,58.05,-0.091,-0.2873,9.845,-0.0274,-0.0024,0.0152,-30.9,-39.3,39.75,-0.23,0.13,9.59,0.0,0.0625,-0.0625,-26.875,-48.75,-7.0625,359.9375,-1.25,-0.3125,0,1.502000093460083,9.753707010670354,0.026608645211660065,9.849611529903097,0.03142546737918149,9.593638517267575,0.08838834764831845
1776725467.758,0.0383,-0.1915,9.7348,-0.0139,0.0274,0.0019,0.3,-28.8,58.05,-0.091,-0.2873,9.845,-0.0274,-0.0024,0.0152,-30.9,-39.3,39.75,-0.22,0.13,9.57,0.0,0.0625,-0.0625,-26.875,-48.75,-7.0625,359.9375,-1.25,-0.3125,0,1.5079998970031738,9.736758710166335,0.030782787398154834,9.849611529903097,0.03142546737918149,9.573411095320205,0.08838834764831845
1776725467.767,0.0455,-0.2203,9.7612,-0.0123,0.0298,0.0056,0.3,-28.8,58.05,-0.1532,-0.2969,9.8785,-0.0253,-0.0032,0.0125,-31.5,-38.7,39.15,-0.2,0.13,9.58,-0.0625,0.0,-0.0625,-26.875,-48.75,-7.0625,359.9375,-1.25,-0.3125,0,1.5169999599456787,9.763791670247784,0.032721399725561866,9.884148020947482,0.028400352110493278,9.58296926844702,0.08838834764831845
1776725467.778,-0.012,-0.2203,9.7875,-0.0128,0.0304,0.0056,0.3,-28.8,58.05,-0.1724,-0.2801,9.8713,-0.0245,0.0003,0.0107,-30.45,-39.6,38.55,-0.22,0.14,9.54,0.0625,0.0,-0.0625,-26.875,-48.75,-7.0625,359.9375,-1.25,-0.3125,0,1.5280001163482666,9.789986329918953,0.03345683786612238,9.876777888562646,0.026736304905502557,9.543563275841995,0.08838834764831845
1776725467.787,-0.0168,-0.1748,9.7276,-0.0131,0.0301,0.0032,0.6,-30.75,58.05,-0.1628,-0.2562,9.8761,-0.0248,-0.0032,0.0093,-31.2,-40.05,39.75,-0.2,0.12,9.56,0.0625,0.125,0.0,-26.875,-48.75,-7.0625,359.9375,-1.25,-0.3125,0,1.5369999408721924,9.729184911389032,0.03298272274994894,9.880763811062382,0.02667901797293146,9.562844765026776,0.13975424859373686
1776725467.797,0.0096,-0.1628,9.7396,-0.0107,0.0304,0.0011,-0.3,-29.55,57.3,-0.1772,-0.2945,9.9,-0.0261,-0.0005,0.0075,-31.8,-38.25,39.6,-0.2,0.13,9.55,0.0,0.125,-0.0625,-26.875,-48.75,-7.0625,359.9375,-1.25,-0.3125,0,1.5469999313354492,9.740965258125089,0.032246860312284666,9.905964369509917,0.027160817366198686,9.552978593088127,0.13975424859373686
1776725467.802,-0.0287,-0.1939,9.7707,-0.0107,0.0304,0.0011,-0.9,-30.9,56.4,-0.1341,-0.2251,9.8402,-0.0221,-0.0005,0.0125,-31.8,-38.25,39.6,-0.2,0.13,9.55,0.0,0.0625,0.0625,-26.875,-49.1875,-7.0625,359.9375,-1.25,-0.3125,0,1.5520000457763672,9.77266593054321,0.032246860312284666,9.843687767295345,0.025395078263317092,9.552978593088127,0.08838834764831845
1776725467.808,-0.0287,-0.1939,9.7707,-0.0109,0.029,0.0005,-0.9,-30.9,56.4,-0.1341,-0.2251,9.8402,-0.0221,-0.0005,0.0125,-31.8,-38.25,39.6,-0.22,0.12,9.57,0.0,0.0625,0.0625,-26.875,-49.1875,-7.0625,359.9375,-1.25,-0.3125,0,1.558000087738037,9.77266593054321,0.03098483500036752,9.843687767295345,0.025395078263317092,9.573280524459731,0.08838834764831845
1776725467.817,-0.0096,-0.1556,9.7181,-0.0136,0.0253,0.0029,1.05,-28.8,57.6,-0.1317,-0.249,9.8497,-0.0285,0.0024,0.008,-29.55,-40.2,38.85,-0.22,0.12,9.56,0.0,0.0,-0.125,-26.875,-49.1875,-7.0625,359.9375,-1.25,-0.3125,0,1.566999912261963,9.719350345059077,0.028869707307141165,9.85372700961418,0.029698653168115218,9.563283954792935,0.125
1776725467.827,0.0551,-0.2227,9.7276,-0.0131,0.028,0.0029,1.05,-28.8,57.6,-0.1796,-0.2753,9.8761,-0.0266,0.0005,0.0099,-33.15,-38.55,37.95,-0.21,0.12,9.57,0.0,0.0625,-0.125,-26.875,-49.1875,-7.0625,359.9375,-1.25,-0.3125,0,1.5769999027252197,9.730304880115526,0.031048671469162736,9.881568572853197,0.02838696884135395,9.573055938413814,0.13975424859373686
1776725467.837,-0.0072,-0.1293,9.7827,-0.0176,0.029,0.0021,-0.6,-31.05,56.25,-0.1341,-0.2705,9.8258,-0.028,0.0021,0.0141,-30.45,-38.85,39.3,-0.2,0.13,9.54,0.0,0.0,0.0,-26.875,-49.1875,-7.0625,359.9375,-1.25,-0.3125,0,1.5869998931884766,9.783557104652683,0.0339877919259254,9.830437360565398,0.03142005728829914,9.542981714328073,0.0
1776725467.847,0.0311,-0.1604,9.7923,-0.0163,0.0258,-0.0011,-0.45,-30.45,57.75,-0.1269,-0.2514,9.8737,-0.0274,0.0003,0.0117,-30.75,-39.9,38.4,-0.22,0.11,9.54,0.0,-0.125,-0.0625,-26.875,-49.1875,-7.0625,359.9375,-1.25,-0.3125,0,1.5969998836517334,9.793662984808083,0.030537517908304203,9.877715184191128,0.02979496601776884,9.5431703327563,0.13975424859373686
1776725467.852,-0.0168,-0.1245,9.7564,-0.0163,0.0258,-0.0011,-1.35,-30.75,55.8,-0.1221,-0.261,9.8521,-0.0274,0.0003,0.0117,-31.5,-39.9,39.9,-0.22,0.11,9.54,0.0,0.125,0.0625,-27.25,-49.1875,-7.0625,359.9375,-1.25,-0.3125,0,1.6019999980926514,9.757208794014813,0.030537517908304203,9.85631289174608,0.02979496601776884,9.5431703327563,0.13975424859373686
1776725467.858,-0.0168,-0.1245,9.7564,-0.0125,0.0314,-0.0013,-1.35,-30.75,55.8,-0.0934,-0.3639,9.8785,-0.0269,0.0008,0.0131,-31.5,-39.9,39.9,-0.22,0.11,9.54,0.0,0.125,0.0625,-27.25,-49.1875,-7.0625,359.9375,-1.25,-0.3125,0,1.6080000400543213,9.757208794014813,0.03382159073727905,9.885641558341067,0.029930920466968602,9.5431703327563,0.13975424859373686
1776725467.867,0.0359,-0.1915,9.7564,-0.0115,0.028,0.0027,0.15,-31.2,57.15,-0.1724,-0.3136,9.8545,-0.0274,-0.0045,0.0173,-30.75,-39.0,38.85,-0.21,0.14,9.57,0.0,0.1875,-0.0625,-27.25,-49.1875,-7.0625,359.9375,-1.25,-0.3125,0,1.6170001029968262,9.758345250092352,0.030389800920703643,9.860995739275015,0.03271543978001824,9.573327530174657,0.19764235376052372
1776725467.877,0.0048,-0.146,9.7252,-0.0112,0.0322,-0.0021,0.15,-31.2,57.15,-0.1484,-0.2705,9.8138,-0.025,-0.0011,0.0112,-30.75,-39.0,38.85,-0.22,0.14,9.55,0.0625,0.0,0.0,-27.25,-49.1875,-7.0625,359.9375,-1.25,-0.3125,0,1.627000093460083,9.726297038441711,0.034156844116516386,9.818648748682275,0.027416236065514174,9.553559546054027,0.0625
1776725467.887,-0.0048,-0.1844,9.6989,-0.0208,0.0298,0.0019,0.15,-31.2,57.15,-0.1532,-0.2538,9.8928,-0.0264,-0.0035,0.0131,-30.9,-40.5,40.8,-0.21,0.12,9.54,0.0625,0.125,-0.0625,-27.25,-49.1875,-7.0625,359.9375,-1.25,-0.3125,0,1.6370000839233398,9.700653978469699,0.036390795539531694,9.897240853894584,0.029678611827374943,9.54306554520087,0.15309310892394862
1776725467.897,-0.067,-0.1796,9.7324,-0.0104,0.0282,0.0051,-1.5,-29.7,56.4,-0.1341,-0.2322,9.8761,-0.024,-0.0016,0.0144,-30.9,-40.5,40.8,-0.2,0.13,9.54,0.125,0.0625,0.0,-27.25,-49.1875,-7.0625,359.9375,-1.25,-0.3125,0,1.6470000743865967,9.734287591806602,0.03048622639816217,9.879739412555374,0.02803426474869637,9.542981714328073,0.13975424859373686
1776725467.902,-0.067,-0.1796,9.7324,-0.0117,0.0248,0.0005,-1.35,-30.75,56.55,-0.1341,-0.2322,9.8761,-0.024,-0.0016,0.0144,-30.9,-40.5,40.8,-0.2,0.13,9.54,-0.0625,0.0,0.0625,-28.0,-48.75,-6.25,359.9375,-1.25,-0.3125,0,1.6519999504089355,9.734287591806602,0.027425900167542358,9.879739412555374,0.02803426474869637,9.542981714328073,0.08838834764831845
1776725467.908,0.0766,-0.2251,9.7588,-0.0117,0.0248,0.0005,0.15,-30.15,57.75,-0.1915,-0.3184,9.833,-0.0253,0.0027,0.0136,-31.8,-39.45,38.85,-0.2,0.12,9.56,-0.0625,0.0,0.0625,-28.0,-48.75,-6.25,359.9375,-1.25,-0.3125,0,1.6579999923706055,9.761696318263542,0.027425900167542358,9.840017266753144,0.028850303291300075,9.562844765026776,0.08838834764831845
1776725467.918,0.0144,-0.1939,9.7444,-0.0136,0.0264,0.0064,1.05,-32.25,57.3,-0.1484,-0.2801,9.8857,-0.0253,-0.0035,0.0171,-32.7,-38.55,38.25,-0.2,0.12,9.52,0.0,0.0625,-0.0625,-28.0,-48.75,-6.25,359.9375,-1.25,-0.3125,0,1.6679999828338623,9.74633961700494,0.030378940073676038,9.89078071033829,0.030736785778607365,9.522856714242844,0.08838834764831845
1776725467.928,0.0599,-0.158,9.7109,-0.0128,0.0264,0.0043,1.05,-32.25,57.3,-0.1508,-0.2634,9.8497,-0.0258,-0.0045,0.0109,-30.15,-38.55,40.8,-0.2,0.15,9.55,0.0,0.1875,-0.125,-28.0,-48.75,-6.25,359.9375,-1.25,-0.3125,0,1.6779999732971191,9.712369989863443,0.029652824486041795,9.854375185165217,0.028367234620244534,9.55327169089208,0.22534695471649932
1776725467.938,0.0622,-0.1987,9.7276,-0.012,0.0256,0.0029,0.0,-30.3,57.6,-0.1269,-0.3256,9.8689,-0.025,-0.0027,0.0147,-31.95,-40.05,39.75,-0.22,0.12,9.55,0.0,0.0625,0.0,-28.0,-48.75,-6.25,359.9375,-1.25,-0.3125,0,1.687999963760376,9.729827968160588,0.028421294833275983,9.875085122671095,0.029126963453130504,9.553287392306379,0.0625
1776725467.948,0.0192,-0.1604,9.7468,-0.0123,0.0237,0.0077,-0.9,-29.7,57.45,-0.103,-0.2586,9.8474,-0.0285,0.0021,0.0141,-30.45,-38.85,38.55,-0.21,0.13,9.55,0.0,0.0,-0.0625,-28.0,-48.75,-6.25,359.9375,-1.25,-0.3125,0,1.6979999542236328,9.748138644890112,0.027789746310464946,9.851333398073583,0.03186644002708806,9.553193183433486,0.0625
1776725467.953,0.0192,-0.1604,9.7468,-0.0131,0.0288,0.004,-0.9,-29.7,57.45,-0.103,-0.2586,9.8474,-0.0285,0.0021,0.0141,-30.45,-38.85,38.55,-0.21,0.13,9.55,0.0,-0.125,0.0,-26.875,-49.1875,-7.5,359.9375,-1.25,-0.3125,0,1.7030000686645508,9.748138644890112,0.031891221362625795,9.851333398073583,0.03186644002708806,9.553193183433486,0.125
1776725467.958,0.091,-0.1508,9.7061,-0.0131,0.0288,0.004,-0.9,-28.95,56.7,-0.1676,-0.2682,9.9216,-0.029,-0.0024,0.0139,-31.5,-40.2,39.6,-0.21,0.13,9.55,0.0,-0.125,0.0,-26.875,-49.1875,-7.5,359.9375,-1.25,-0.3125,0,1.7079999446868896,9.707697917117116,0.031891221362625795,9.926639288298935,0.03224856585958513,9.553193183433486,0.125
1776725467.968,0.0168,-0.0934,9.7803,-0.0149,0.0277,-0.0005,0.15,-30.9,57.15,-0.1389,-0.2777,9.9072,-0.0325,-0.0051,0.0117,-31.5,-40.2,39.6,-0.22,0.13,9.56,-0.125,0.0625,0.125,-26.875,-49.1875,-7.5,359.9375,-1.25,-0.3125,0,1.7179999351501465,9.780760394263833,0.03145711366289031,9.91206448425352,0.03491632855842664,9.563414662138205,0.1875
1776725467.977,0.0096,-0.1844,9.7252,-0.0165,0.0306,0.0032,0.15,-30.9,57.15,-0.0982,-0.2514,9.8665,-0.0256,0.0003,0.0123,-32.7,-39.3,40.8,-0.22,0.15,9.55,0.125,0.0,0.0,-26.875,-49.1875,-7.5,359.9375,-1.25,-0.3125,0,1.7269999980926514,9.726952789029049,0.03491203230979256,9.870190851751552,0.02840316883729701,9.553711320738136,0.125
1776725467.988,0.0694,-0.1437,9.7492,-0.012,0.029,0.0045,-0.6,-30.75,57.0,-0.1341,-0.2993,9.8306,-0.0325,0.0032,0.0091,-32.7,-39.3,40.8,-0.21,0.13,9.57,-0.125,0.0625,-0.0625,-26.875,-49.1875,-7.5,359.9375,-1.25,-0.3125,0,1.7379999160766602,9.75050597097402,0.03170567772497538,9.836069319601199,0.03390132740763996,9.573186512337468,0.15309310892394862
1776725467.997,0.1125,-0.1604,9.7492,-0.0112,0.0277,0.0069,-1.2,-30.15,57.75,-0.1437,-0.2634,9.8761,-0.0301,-0.0029,0.0093,-31.2,-38.55,38.55,-0.21,0.14,9.57,-0.0625,0.0625,0.0625,-26.875,-49.1875,-7.5,359.9375,-1.25,-0.3125,0,1.746999979019165,9.75116839409514,0.03066496372083293,9.88065688403357,0.031637161693173425,9.573327530174657,0.10825317547305482
1776725468.002,0.1125,-0.1604,9.7492,-0.0131,0.0301,0.0029,-1.2,-30.15,57.75,-0.1484,-0.2538,9.9335,-0.0309,-0.0029,0.0139,-31.2,-38.55,38.55,-0.21,0.14,9.57,0.0625,-0.125,0.0625,-26.5625,-48.5,-7.875,359.9375,-1.25,-0.3125,0,1.752000093460083,9.75116839409514,0.03295496927627152,9.93784983032044,0.03400632294147663,9.573327530174657,0.15309310892394862
1776725468.008,0.0263,-0.1508,9.7252,-0.0149,0.0264,0.0024,-0.45,-30.45,56.7,-0.1484,-0.2538,9.9335,-0.0309,-0.0029,0.0139,-32.4,-38.85,39.75,-0.21,0.14,9.58,0.0625,-0.125,0.0625,-26.5625,-48.5,-7.875,359.9375,-1.25,-0.3125,0,1.7579998970031738,9.726404647658866,0.030409373554876135,9.93784983032044,0.03400632294147663,9.583324057966525,0.15309310892394862
1776725468.018,0.0575,-0.1772,9.7085,-0.0067,0.028,0.0056,-0.45,-30.45,57.45,-0.1269,-0.2825,9.8689,-0.0261,0.0005,0.0104,-31.8,-38.25,38.4,-0.2,0.13,9.54,0.125,0.0,0.0625,-26.5625,-48.5,-7.875,359.9375,-1.25,-0.3125,0,1.7679998874664307,9.710287242919234,0.02933001875212493,9.873758001389339,0.0281001779353797,9.542981714328073,0.13975424859373686
1776725468.028,-0.0144,-0.1365,9.7803,-0.0112,0.0274,0.0077,-1.5,-28.95,57.45,-0.1604,-0.3017,9.8497,-0.028,-0.0013,0.0091,-32.4,-39.3,40.8,-0.24,0.11,9.53,0.125,0.0,0.0,-26.5625,-48.5,-7.875,359.9375,-1.25,-0.3125,0,1.7780001163482666,9.781263093281972,0.03058578101013607,9.855624847770942,0.02947032405658275,9.53365617168985,0.125
1776725468.037,-0.0024,-0.2131,9.7205,-0.0085,0.0264,0.0011,-1.5,-28.95,57.45,-0.103,-0.3136,9.8713,-0.0277,0.0021,0.0123,-32.4,-39.3,40.8,-0.2,0.13,9.56,0.0625,-0.25,0.0,-26.5625,-48.5,-7.875,359.9375,-1.25,-0.3125,0,1.7869999408721924,9.722835883629838,0.0277564406940083,9.876817182169567,0.030380750484476186,9.562975478374918,0.2576941016011038
1776725468.048,0.0215,-0.1844,9.7444,-0.0093,0.0258,0.0021,-0.3,-30.0,57.3,-0.1604,-0.2945,9.8474,-0.0256,0.0019,0.0107,-30.9,-37.35,39.0,-0.18,0.14,9.55,0.0,-0.25,0.125,-26.5625,-48.5,-7.875,359.9375,-1.25,-0.3125,0,1.7980000972747803,9.746168322474222,0.027505272221885025,9.853108401413232,0.027811148843584294,9.55272212513271,0.2795084971874737
1776725468.053,0.0718,-0.17,9.7157,-0.0093,0.0258,0.0021,-0.3,-30.0,57.3,-0.1293,-0.2729,9.8785,-0.0301,-0.0016,0.0184,-30.9,-37.35,39.0,-0.18,0.14,9.55,0.0,-0.125,0.0,-27.25,-49.1875,-6.25,359.9375,-1.25,-0.3125,0,1.8029999732971191,9.717452430035353,0.027505272221885025,9.883114648227046,0.03531472780583195,9.55272212513271,0.125
1776725468.059,0.0718,-0.17,9.7157,-0.0059,0.0293,0.004,0.15,-30.45,58.2,-0.1293,-0.2729,9.8785,-0.0333,-0.0043,0.0093,-30.9,-37.35,39.0,-0.22,0.15,9.55,0.0,-0.125,0.0,-27.25,-49.1875,-6.25,359.9375,-1.25,-0.3125,0,1.809000015258789,9.717452430035353,0.030154601638887554,9.883114648227046,0.034840637192795426,9.553711320738136,0.125
1776725468.068,0.0407,-0.2035,9.7803,-0.0184,0.0245,-0.0013,-0.15,-30.9,57.75,-0.1341,-0.2897,9.8713,-0.0333,-0.0043,0.0093,-31.8,-40.65,38.4,-0.19,0.13,9.58,0.0,-0.0625,0.0,-27.25,-49.1875,-6.25,359.9375,-1.25,-0.3125,0,1.818000078201294,9.78250156299502,0.03066757245039131,9.876460529460946,0.034840637192795426,9.582765780295373,0.0625
1776725468.078,0.0575,-0.1245,9.7396,-0.0099,0.0269,0.0013,-0.9,-30.15,57.45,-0.0934,-0.2729,9.8785,-0.0282,-0.0059,0.0075,-31.05,-39.9,40.35,-0.22,0.11,9.55,-0.0625,-0.0625,-0.0625,-27.25,-49.1875,-6.25,359.9375,-1.25,-0.3125,0,1.8280000686645508,9.74056541788001,0.02869337902722508,9.882710165738951,0.02977079105432034,9.55316701413725,0.10825317547305482
1776725468.088,-0.0024,-0.1844,9.7133,-0.0144,0.0256,0.0045,-0.9,-30.15,57.45,-0.1652,-0.2729,9.8761,-0.0274,0.0019,0.0123,-30.3,-39.0,40.35,-0.21,0.13,9.54,0.0,-0.125,0.125,-27.25,-49.1875,-6.25,359.9375,-1.25,-0.3125,0,1.8380000591278076,9.715050489318108,0.029714811121728503,9.88125076394684,0.030094185484907214,9.543196529465376,0.1767766952966369
1776725468.098,0.0,-0.1413,9.7229,-0.0099,0.0298,0.0019,0.0,-30.75,56.55,-0.1269,-0.2801,9.833,-0.0285,0.0003,0.0083,-31.2,-39.6,40.05,-0.24,0.12,9.56,0.0625,-0.125,0.0625,-27.25,-49.1875,-6.25,359.9375,-1.25,-0.3125,0,1.8480000495910645,9.723926681130417,0.031458862026462434,9.837807104228055,0.029685518354915078,9.563764949014589,0.15309310892394862
1776725468.103,-0.0096,-0.1532,9.7659,-0.0099,0.0298,0.0019,0.0,-30.75,56.55,-0.1269,-0.2801,9.833,-0.0285,0.0003,0.0083,-31.2,-39.6,40.05,-0.24,0.12,9.56,0.0625,-0.125,0.0625,-26.875,-49.5625,-6.6875,359.9375,-1.25,-0.3125,0,1.8529999256134033,9.767106286408477,0.031458862026462434,9.837807104228055,0.029685518354915078,9.563764949014589,0.15309310892394862
1776725468.109,-0.0096,-0.1532,9.7659,-0.0099,0.0298,0.0021,-1.05,-30.0,57.0,-0.1245,-0.2155,9.8785,-0.0266,-0.0011,0.0099,-30.9,-40.5,39.3,-0.19,0.12,9.59,0.0625,-0.125,0.0625,-26.875,-49.5625,-6.6875,359.9375,-1.25,-0.3125,0,1.8589999675750732,9.767106286408477,0.03147157447602519,9.881634619332978,0.0284038729753532,9.592632589649204,0.15309310892394862
1776725468.118,-0.0215,-0.1915,9.7492,-0.0117,0.028,0.0032,-1.8,-30.0,57.3,-0.1341,-0.2849,9.8761,-0.0264,-0.0027,0.0157,-31.2,-40.8,39.3,-0.21,0.13,9.55,0.0625,0.0,0.0,-26.875,-49.5625,-6.6875,359.9375,-1.25,-0.3125,0,1.8680000305175781,9.751104303616078,0.03051442281938166,9.881118460478044,0.030834072063222525,9.553193183433486,0.0625
1776725468.128,-0.0024,-0.1772,9.7492,-0.0083,0.028,-0.0011,-0.15,-29.7,57.45,-0.1915,-0.2442,9.9192,-0.0216,0.0005,0.0117,-31.2,-40.8,39.3,-0.2,0.13,9.53,-0.0625,0.125,0.0,-26.875,-49.5625,-6.6875,359.9375,-1.25,-0.3125,0,1.878000020980835,9.750810542719,0.029224989307098128,9.924053331678543,0.024570307283385773,9.532984842115296,0.13975424859373686
1776725468.138,0.0215,-0.1987,9.742,-0.0096,0.0256,0.0003,-0.3,-29.25,57.6,-0.1221,-0.2801,9.9024,-0.0256,-0.004,0.0109,-30.75,-38.25,40.35,-0.22,0.15,9.57,0.0,0.0,0.0625,-26.875,-49.5625,-6.6875,359.9375,-1.25,-0.3125,0,1.8880000114440918,9.744049873640837,0.027342457826610978,9.907113110285962,0.028109962646720114,9.573703567585534,0.0625
1776725468.148,0.0359,-0.1221,9.7755,-0.0136,0.0237,0.0032,-0.3,-29.25,57.6,-0.1077,-0.2753,9.8809,-0.029,-0.0032,0.0133,-30.75,-38.25,40.35,-0.22,0.15,9.53,0.0,-0.0625,0.0,-26.875,-49.5625,-6.6875,359.9375,-1.25,-0.3125,0,1.8980000019073486,9.77632842482289,0.027511633902769207,9.885321147539923,0.032064466313974416,9.533719106413823,0.0625
1776725468.153,0.0407,-0.1724,9.7707,-0.0107,0.0304,0.0056,-0.3,-29.25,57.6,-0.1077,-0.2753,9.8809,-0.029,-0.0032,0.0133,-30.75,-38.25,40.35,-0.22,0.15,9.53,-0.0625,0.0,0.0625,-26.1875,-48.5,-7.0625,359.9375,-1.25,-0.3125,0,1.9030001163482666,9.772305600010675,0.03271100732169525,9.885321147539923,0.032064466313974416,9.533719106413823,0.08838834764831845
1776725468.159,0.0192,-0.146,9.7324,-0.0107,0.0304,0.0056,-1.35,-30.3,57.6,-0.1413,-0.3017,9.8904,-0.0269,-0.0021,0.0155,-31.65,-38.55,40.5,-0.23,0.11,9.55,-0.0625,0.0,0.0625,-26.1875,-48.5,-7.0625,359.9375,-1.25,-0.3125,0,1.9089999198913574,9.733513980058795,0.03271100732169525,9.896009334069971,0.031117037134020326,9.553402535222727,0.08838834764831845
1776725468.168,0.0192,-0.146,9.7324,-0.0112,0.0264,0.0035,-1.95,-29.7,58.95,-0.17,-0.3256,9.8737,-0.0293,0.0024,0.0125,-31.8,-39.45,39.9,-0.21,0.13,9.58,0.0625,-0.125,0.125,-26.1875,-48.5,-7.0625,359.9375,-1.25,-0.3125,0,1.9179999828338623,9.733513980058795,0.02889030979411609,9.880529694808876,0.031945265689926575,9.583183187229595,0.1875
1776725468.178,0.0,-0.1963,9.7707,-0.0117,0.0282,0.0024,-0.45,-30.45,57.75,-0.1867,-0.2849,9.8545,-0.0221,-0.0021,0.0133,-32.25,-39.45,38.85,-0.19,0.11,9.55,0.0,-0.125,0.0,-26.1875,-48.5,-7.0625,359.9375,-1.25,-0.3125,0,1.9279999732971191,9.77267170122889,0.030624989795916668,9.86038514207229,0.02587875576607191,9.552523226875714,0.125
1776725468.188,-0.0215,-0.2298,9.6869,-0.012,0.0264,-0.0003,-0.45,-31.65,57.75,-0.1221,-0.3041,9.8689,-0.0306,-0.0061,0.0109,-31.5,-39.0,39.9,-0.2,0.13,9.52,-0.0625,-0.0625,0.125,-26.1875,-48.5,-7.0625,359.9375,-1.25,-0.3125,0,1.937999963760376,9.68964921449688,0.029000862056152744,9.874339088263072,0.03305117244516448,9.52298797647041,0.15309310892394862
1776725468.196,-0.0215,-0.2298,9.6869,-0.0232,0.0296,0.0059,-0.45,-31.65,57.75,-0.1796,-0.2897,9.9168,-0.0293,-0.0029,0.0109,-29.85,-37.95,39.6,-0.19,0.13,9.54,0.1875,-0.125,0.0,-26.1875,-48.5,-7.0625,359.9375,-1.25,-0.3125,0,1.946000099182129,9.68964921449688,0.0380684909078361,9.922656120716871,0.03139601885589954,9.542777373490381,0.22534695471649932
1776725468.2,0.0263,-0.1867,9.7444,-0.0232,0.0296,0.0059,-0.45,-31.65,57.75,-0.1796,-0.2897,9.9168,-0.0293,-0.0029,0.0109,-29.85,-37.95,39.6,-0.19,0.13,9.54,0.1875,-0.125,0.0,-26.1875,-48.5,-7.0625,359.9375,-1.25,-0.3125,0,1.9500000476837158,9.74622388107312,0.0380684909078361,9.922656120716871,0.03139601885589954,9.542777373490381,0.22534695471649932
1776725468.207,0.0311,-0.1556,9.7229,-0.0112,0.0261,0.0056,0.0,-30.3,57.3,-0.17,-0.328,9.8857,-0.0218,-0.0019,0.0141,-29.7,-39.3,40.05,-0.2,0.15,9.55,0.0,-0.125,0.125,-26.875,-49.1875,-6.6875,359.9375,-1.25,-0.3125,0,1.9570000171661377,9.724194721415238,0.028948402373878947,9.892600693953032,0.026031903503201604,9.55327169089208,0.1767766952966369
1776725468.212,0.0311,-0.1556,9.7229,-0.0131,0.029,0.004,0.0,-30.3,57.3,-0.17,-0.328,9.8857,-0.0218,-0.0019,0.0141,-29.7,-39.3,40.05,-0.2,0.15,9.55,0.0,0.0625,0.0625,-26.875,-49.1875,-6.6875,359.9375,-1.25,-0.3125,0,1.9619998931884766,9.724194721415238,0.0320719503616478,9.892600693953032,0.026031903503201604,9.55327169089208,0.08838834764831845
1776725468.219,-0.0192,-0.1341,9.7731,-0.0131,0.029,0.004,-0.15,-30.45,57.15,-0.1341,-0.3041,9.8713,-0.0224,0.0027,0.0096,-29.7,-39.3,40.05,-0.2,0.13,9.62,0.0,0.0625,0.0625,-26.875,-49.1875,-6.6875,359.9375,-1.25,-0.3125,0,1.9690001010894775,9.774038830493769,0.0320719503616478,9.876893403798585,0.024519584009521856,9.622956926018114,0.08838834764831845
1776725468.228,-0.0024,-0.1556,9.7659,-0.0139,0.0298,0.0016,-0.45,-30.9,57.75,-0.1676,-0.2682,9.9862,-0.0218,0.0032,0.0149,-32.4,-39.6,39.75,-0.22,0.15,9.54,0.0625,-0.125,0.0,-26.875,-49.1875,-6.6875,359.9375,-1.25,-0.3125,0,1.9779999256134033,9.767139802931052,0.032921269720349484,9.991206705898943,0.026598684177981436,9.543715209497819,0.13975424859373686
1776725468.238,0.012,-0.2274,9.742,-0.0149,0.0309,0.0003,-1.8,-31.8,57.3,-0.1652,-0.2801,9.8641,-0.0282,-0.0035,0.0152,-31.2,-39.3,39.3,-0.21,0.14,9.58,0.0,-0.0625,0.125,-26.875,-49.1875,-6.6875,359.9375,-1.25,-0.3125,0,1.9879999160766602,9.744661038743216,0.03430612190265755,9.869458741997963,0.032226231551330975,9.583324057966525,0.13975424859373686
1776725468.248,-0.012,-0.158,9.7229,-0.0133,0.0322,-0.0011,0.45,-30.15,57.75,-0.1556,-0.3208,9.8881,-0.0274,0.0035,0.0112,-31.5,-39.45,38.85,-0.22,0.13,9.54,-0.0625,-0.0625,0.125,-26.875,-49.1875,-6.6875,359.9375,-1.25,-0.3125,0,1.997999906539917,9.724191092836461,0.0348559894422752,9.89452604271675,0.029806878400798698,9.54342181819498,0.15309310892394862
1776725468.253,-0.012,-0.158,9.7229,-0.0141,0.028,0.0043,0.45,-30.15,57.75,-0.1604,-0.2753,9.845,-0.0258,0.0011,0.0096,-31.5,-39.45,38.85,-0.22,0.13,9.54,0.0,0.0,-0.0625,-27.25,-49.1875,-7.5,359.9375,-1.25,-0.3125,0,2.003000020980835,9.724191092836461,0.031643324730502013,9.850154478484082,0.027550136115816196,9.54342181819498,0.0625
1776725468.259,0.0503,-0.2107,9.7564,-0.0141,0.028,0.0043,0.45,-30.15,57.75,-0.1604,-0.2753,9.845,-0.0258,0.0011,0.0096,-31.5,-40.65,38.85,-0.22,0.13,9.53,0.0,0.0,-0.0625,-27.25,-49.1875,-7.5,359.9375,-1.25,-0.3125,0,2.009000062942505,9.758804513873612,0.031643324730502013,9.850154478484082,0.027550136115816196,9.533425407480776,0.0625
1776725468.268,-0.0215,-0.1484,9.7683,-0.0133,0.029,0.0016,-0.6,-29.25,56.55,-0.17,-0.2346,9.8641,-0.0269,-0.0051,0.0128,-31.95,-38.85,39.75,-0.21,0.11,9.55,-0.0625,0.0,0.0,-27.25,-49.1875,-7.5,359.9375,-1.25,-0.3125,0,2.0179998874664307,9.769450839223257,0.031944483091764064,9.868353761899703,0.03022350078994821,9.552941955230338,0.0625
1776725468.278,0.0455,-0.1245,9.7348,-0.0123,0.024,0.0005,0.0,-30.3,58.05,-0.1053,-0.3065,9.8785,-0.0234,-0.0016,0.0147,-31.95,-38.85,39.3,-0.22,0.11,9.57,0.0,-0.1875,0.125,-27.25,-49.1875,-7.5,359.9375,-1.25,-0.3125,0,2.0280001163482666,9.735702416364214,0.0269729494123279,9.883814678048148,0.027680498550423545,9.573160397695215,0.22534695471649932
1776725468.288,0.0287,-0.2083,9.742,-0.0109,0.0285,0.0045,-1.8,-30.3,56.25,-0.1556,-0.2969,9.8904,-0.0282,-0.0013,0.0163,-31.95,-38.85,39.3,-0.22,0.13,9.57,0.0,0.125,0.0625,-27.25,-49.1875,-7.5,359.9375,-1.25,-0.3125,0,2.0380001068115234,9.744268909466735,0.030843313700054994,9.896078674404322,0.032597852690016256,9.573411095320205,0.13975424859373686
1776725468.298,0.0407,-0.1628,9.742,-0.0152,0.0304,0.0061,-0.45,-30.45,57.75,-0.0814,-0.3304,9.9192,-0.0264,-0.0013,0.0112,-29.55,-39.0,40.65,-0.22,0.13,9.56,0.0,0.0625,0.0,-27.25,-49.1875,-7.5,359.9375,-1.25,-0.3125,0,2.0480000972747803,9.74344519818324,0.03453129015834769,9.925034950064408,0.028706967795293182,9.563414662138205,0.0625
1776725468.303,0.0407,-0.1628,9.742,-0.0152,0.0304,0.0061,-0.45,-30.45,57.75,-0.1245,-0.2873,9.9096,-0.0306,-0.0069,0.0109,-29.55,-39.0,40.65,-0.22,0.13,9.56,0.0625,-0.0625,0.0,-26.1875,-49.1875,-6.6875,359.9375,-1.25,-0.3125,0,2.052999973297119,9.74344519818324,0.03453129015834769,9.914545561950884,0.03320813153430948,9.563414662138205,0.08838834764831845
1776725468.309,0.0287,-0.1987,9.7636,-0.0131,0.0285,0.0043,-0.45,-30.45,57.75,-0.146,-0.3065,9.9024,-0.0245,-0.0067,0.0112,-29.55,-39.0,40.65,-0.21,0.13,9.52,0.0625,-0.0625,0.0,-26.1875,-49.1875,-6.6875,359.9375,-1.25,-0.3125,0,2.059000015258789,9.765663845330742,0.031659911560204965,9.908218003758295,0.027759322758309505,9.523203242606975,0.08838834764831845
1776725468.318,0.0168,-0.1748,9.7157,-0.0123,0.0224,0.0037,-0.6,-29.55,58.35,-0.146,-0.3065,9.9024,-0.028,0.0,0.0117,-31.95,-39.6,39.3,-0.2,0.14,9.59,0.0,0.0,0.0625,-26.1875,-49.1875,-6.6875,359.9375,-1.25,-0.3125,0,2.068000078201294,9.71728685230605,0.025821309029559286,9.908218003758295,0.03034616944525289,9.59310690026959,0.0625
1776725468.328,-0.0431,-0.1628,9.7612,-0.0157,0.0288,-0.0019,0.45,-30.15,56.7,-0.1413,-0.2801,9.8234,-0.0266,-0.0021,0.0117,-31.95,-39.6,39.0,-0.21,0.17,9.56,0.125,-0.1875,0.0,-26.1875,-49.1875,-6.6875,359.9375,-1.25,-0.3125,0,2.078000068664551,9.762652656424892,0.03285635402779803,9.828408277030416,0.02913520207583946,9.563817229537587,0.22534695471649932
1776725468.338,0.0192,-0.1532,9.7468,-0.0139,0.0282,0.0061,0.0,-30.3,57.3,-0.1532,-0.2825,9.833,-0.0258,-0.0024,0.0125,-31.8,-39.9,39.6,-0.21,0.15,9.54,0.0625,-0.0625,0.0625,-26.1875,-49.1875,-6.6875,359.9375,-1.25,-0.3125,0,2.0880000591278076,9.748022831323285,0.03202592699673188,9.838250123370518,0.02876890682664185,9.543489927694164,0.10825317547305482
1776725468.348,0.0407,-0.17,9.7372,-0.0112,0.0245,0.0064,-0.3,-30.3,57.6,-0.1245,-0.2921,9.9192,-0.0285,-0.0027,0.0056,-30.75,-37.95,39.15,-0.22,0.14,9.55,0.0,-0.125,0.0,-26.1875,-49.1875,-6.6875,359.9375,-1.25,-0.3125,0,2.0980000495910645,9.73876893298121,0.02768844524345851,9.924280895863438,0.02917019026334933,9.553559546054027,0.125
1776725468.353,0.0311,-0.1748,9.7803,-0.0112,0.0245,0.0064,-1.05,-30.0,57.3,-0.1245,-0.2921,9.9192,-0.0285,-0.0027,0.0056,-30.75,-37.95,39.15,-0.22,0.14,9.55,0.0,-0.125,0.0,-26.875,-49.5625,-7.0625,359.9375,-1.25,-0.3125,0,2.1029999256134033,9.781911384795919,0.02768844524345851,9.924280895863438,0.02917019026334933,9.553559546054027,0.125
1776725468.359,0.0311,-0.1748,9.7803,-0.0144,0.0245,0.0011,-1.05,-30.0,57.3,-0.1149,-0.3232,9.9072,-0.0288,-0.0005,0.0101,-31.95,-39.3,40.5,-0.22,0.14,9.55,0.0,-0.125,0.0,-26.875,-49.5625,-7.0625,359.9375,-1.25,-0.3125,0,2.1089999675750732,9.781911384795919,0.028439760899135563,9.913136339726192,0.03052376123612554,9.553559546054027,0.125
1776725468.368,0.0192,-0.1844,9.7276,-0.0149,0.0234,0.0061,-1.05,-30.0,57.3,-0.1532,-0.2993,9.8306,-0.0237,0.0053,0.0131,-29.85,-40.65,41.1,-0.2,0.12,9.57,0.0,-0.0625,0.0625,-26.875,-49.5625,-7.0625,359.9375,-1.25,-0.3125,0,2.118000030517578,9.729366565198374,0.0284038729753532,9.836348259898081,0.027593296287323123,9.572841793323443,0.08838834764831845
1776725468.378,0.0455,-0.1413,9.7133,-0.0109,0.0269,0.0019,0.3,-29.55,57.0,-0.1532,-0.2729,9.8904,-0.0258,-0.0024,0.0107,-29.85,-40.65,41.1,-0.22,0.13,9.56,0.0,-0.125,0.0625,-26.875,-49.5625,-7.0625,359.9375,-1.25,-0.3125,0,2.128000020980835,9.714434251669008,0.02908659485054928,9.895350262118061,0.028033729684078783,9.563414662138205,0.13975424859373686
1776725468.388,-0.0263,-0.1987,9.754,-0.0125,0.0245,0.0027,-0.3,-30.0,58.35,-0.1293,-0.237,9.8306,-0.0261,-0.0051,0.0104,-31.05,-38.7,39.9,-0.2,0.14,9.54,0.0625,0.0,0.125,-26.875,-49.5625,-7.0625,359.9375,-1.25,-0.3125,0,2.138000011444092,9.756059111137036,0.027636750894415935,9.834306475293518,0.028554859481356235,9.543123178498744,0.13975424859373686
1776725468.398,0.0144,-0.1532,9.7372,-0.0109,0.0237,0.0021,-2.1,-30.3,57.3,-0.158,-0.2969,9.8497,-0.0256,-0.0048,0.0125,-31.05,-38.7,39.9,-0.2,0.13,9.53,0.0625,0.0625,0.125,-26.875,-49.5625,-7.0625,359.9375,-1.25,-0.3125,0,2.1480000019073486,9.738415756168967,0.026170785238505932,9.855440309798443,0.02889030979411609,9.532984842115296,0.15309310892394862
1776725468.403,-0.0072,-0.2011,9.7109,-0.0109,0.0237,0.0021,0.15,-29.7,56.4,-0.158,-0.2969,9.8497,-0.0256,-0.0048,0.0125,-31.05,-38.7,39.9,-0.2,0.13,9.53,0.0,0.0,0.0625,-26.875,-48.75,-7.5,359.9375,-1.25,-0.3125,0,2.1530001163482666,9.712984703992898,0.026170785238505932,9.855440309798443,0.02889030979411609,9.532984842115296,0.0625
1776725468.409,-0.0072,-0.2011,9.7109,-0.0133,0.0245,-0.0013,0.15,-29.7,56.4,-0.1149,-0.2682,9.8689,-0.028,-0.0053,0.0128,-30.15,-38.1,39.3,-0.19,0.13,9.57,0.0,0.0,0.0625,-26.875,-48.75,-7.5,359.9375,-1.25,-0.3125,0,2.1589999198913574,9.712984703992898,0.027907525866690513,9.873212266532104,0.031239878360838733,9.572768669512493,0.0625
1776725468.418,-0.012,-0.1341,9.7636,-0.0109,0.025,0.0005,0.15,-29.7,56.4,-0.1484,-0.1939,9.9288,-0.0269,-0.0032,0.0144,-31.8,-39.45,39.15,-0.2,0.13,9.58,0.0,-0.125,0.0,-26.875,-48.75,-7.5,359.9375,-1.25,-0.3125,0,2.1679999828338623,9.764528241036533,0.027277463225160805,9.931801911536498,0.030679146011582524,9.58296926844702,0.125
1776725468.428,-0.0215,-0.1484,9.73,-0.0123,0.0277,0.0005,0.0,-29.55,57.3,-0.1484,-0.2921,9.8282,-0.0282,-0.0011,0.0091,-32.4,-40.5,39.3,-0.2,0.13,9.56,0.125,-0.1875,-0.0625,-26.875,-48.75,-7.5,359.9375,-1.25,-0.3125,0,2.177999973297119,9.731155368711365,0.030312208761487505,9.833659553289406,0.029652318627722857,9.562975478374918,0.23385358667337133
1776725468.438,0.0503,-0.2322,9.7157,-0.0067,0.0272,0.0053,0.45,-29.4,56.7,-0.1508,-0.2729,9.8761,-0.0229,-0.0048,0.0157,-31.2,-40.05,37.5,-0.24,0.11,9.53,-0.0625,0.0,0.0625,-26.875,-48.75,-7.5,359.9375,-1.25,-0.3125,0,2.187999963760376,9.718604499618245,0.02850999824622934,9.88102050701242,0.028176940926935273,9.53365617168985,0.08838834764831845
1776725468.448,0.0048,-0.2442,9.7324,-0.0144,0.025,0.0035,-0.15,-29.7,58.5,-0.1724,-0.3184,9.8186,-0.0304,0.0021,0.0117,-31.8,-41.4,39.9,-0.22,0.15,9.56,-0.125,-0.1875,0.0,-26.875,-48.75,-7.5,359.9375,-1.25,-0.3125,0,2.197999954223633,9.735464366942134,0.029062174729362567,9.825273852671996,0.03264138477454656,9.563707440109196,0.22534695471649932
1776725468.453,-0.0287,-0.2011,9.7659,-0.0144,0.0298,0.0043,-0.6,-30.3,56.55,-0.1317,-0.316,9.8521,-0.0256,-0.0021,0.0088,-31.8,-41.4,39.9,-0.22,0.15,9.56,-0.0625,-0.25,0.0,-26.875,-48.5,-6.6875,359.9375,-1.25,-0.3125,0,2.203000068664551,9.768012474910135,0.03337499063670281,9.858046221234712,0.027151611370229947,9.563707440109196,0.2576941016011038
1776725468.459,-0.0072,-0.1604,9.7276,-0.0144,0.0298,0.0043,-0.9,-28.95,56.7,-0.1317,-0.316,9.8521,-0.0256,-0.0021,0.0088,-31.5,-40.95,41.1,-0.21,0.15,9.52,-0.0625,-0.25,0.0,-26.875,-48.5,-6.6875,359.9375,-1.25,-0.3125,0,2.2090001106262207,9.72892500536416,0.03337499063670281,9.858046221234712,0.027151611370229947,9.52349725678545,0.2576941016011038
1776725468.469,0.0503,-0.1269,9.7659,-0.0109,0.0248,0.0013,-0.9,-28.95,56.7,-0.1652,-0.2897,9.9192,-0.025,-0.0064,0.0125,-31.5,-40.95,41.1,-0.21,0.11,9.57,0.0,0.0,-0.125,-26.875,-48.5,-6.6875,359.9375,-1.25,-0.3125,0,2.2190001010894775,9.766853971980947,0.027120840694934218,9.924804570871911,0.02867420443534572,9.572935808831062,0.125
1776725468.478,-0.0144,-0.1796,9.7636,-0.0112,0.0266,0.0045,-0.9,-28.95,56.7,-0.146,-0.2993,9.8593,-0.0314,-0.0011,0.0125,-30.3,-39.9,39.9,-0.2,0.16,9.55,0.125,0.0,0.0625,-26.875,-48.5,-6.6875,359.9375,-1.25,-0.3125,0,2.2279999256134033,9.765262335441891,0.02921044333795706,9.864922350429323,0.03381449393381483,9.553433937595425,0.13975424859373686
1776725468.488,-0.0144,-0.2227,9.7396,-0.0117,0.0242,0.0021,0.15,-29.4,57.75,-0.1389,-0.2634,9.8521,-0.0205,-0.0053,0.0131,-30.3,-39.9,39.9,-0.22,0.15,9.56,0.0625,0.125,-0.0625,-26.875,-48.5,-6.6875,359.9375,-1.25,-0.3125,0,2.23799991607666,9.742156373719322,0.026961824864055475,9.856599169084639,0.0248987951515731,9.563707440109196,0.15309310892394862
1776725468.494,-0.0144,-0.2227,9.7396,-0.0104,0.0301,0.0029,-1.5,-29.4,57.75,-0.17,-0.2873,9.8641,-0.0256,0.0003,0.0088,-30.9,-39.6,39.75,-0.19,0.14,9.58,0.125,-0.0625,0.0,-26.875,-48.5,-6.6875,359.9375,-1.25,-0.3125,0,2.24399995803833,9.742156373719322,0.03197780480270651,9.869747215607907,0.02707194119378956,9.582906657168273,0.13975424859373686
1776725468.5,-0.0024,-0.1652,9.7731,-0.0104,0.0301,0.0029,-0.15,-29.4,57.15,-0.17,-0.2873,9.8641,-0.0256,0.0003,0.0088,-29.55,-39.0,39.6,-0.19,0.14,9.58,0.125,-0.0625,0.0,-26.875,-48.5,-6.6875,359.9375,-1.25,-0.3125,0,2.25,9.774496427438091,0.03197780480270651,9.869747215607907,0.02707194119378956,9.582906657168273,0.13975424859373686
1776725468.505,-0.0024,-0.1652,9.7731,-0.0168,0.029,0.0061,-0.15,-29.4,57.15,-0.1317,-0.316,9.8785,-0.0285,0.0013,0.0091,-29.55,-39.0,39.6,-0.21,0.12,9.57,0.0,0.125,0.125,-26.5625,-48.75,-7.5,359.9375,-1.25,-0.3125,0,2.255000114440918,9.774496427438091,0.03406537831875642,9.884430339680685,0.02994578434437809,9.573055938413814,0.1767766952966369
1776725468.51,-0.0072,-0.1604,9.6869,-0.0168,0.029,0.0061,0.0,-28.8,58.35,-0.1317,-0.316,9.8785,-0.0285,0.0013,0.0091,-31.95,-40.5,39.3,-0.21,0.12,9.57,0.0,0.125,0.125,-26.5625,-48.75,-7.5,359.9375,-1.25,-0.3125,0,2.259999990463257,9.688230571678194,0.03406537831875642,9.884430339680685,0.02994578434437809,9.573055938413814,0.1767766952966369
1776725468.519,-0.0048,-0.2131,9.7276,-0.0109,0.0234,0.0075,0.0,-28.8,58.35,-0.1556,-0.2969,9.8976,-0.0272,-0.004,0.0139,-30.75,-39.9,39.15,-0.23,0.12,9.56,-0.125,0.125,-0.0625,-26.5625,-48.75,-7.5,359.9375,-1.25,-0.3125,0,2.2690000534057617,9.72993506710091,0.026881592214747993,9.90327454582574,0.03080665512515112,9.563519226728204,0.1875
1776725468.529,-0.0168,-0.17,9.7037,-0.0136,0.0211,0.0029,0.15,-30.45,58.2,-0.0934,-0.249,9.8737,-0.028,-0.0008,0.0117,-30.75,-39.9,39.15,-0.21,0.13,9.53,-0.0625,-0.125,0.0625,-26.5625,-48.75,-7.5,359.9375,-1.25,-0.3125,0,2.2790000438690186,9.705203549127653,0.025270140482395426,9.8772808125516,0.03035671260199299,9.533199882515838,0.15309310892394862
1776725468.539,0.0311,-0.1915,9.73,-0.0144,0.024,0.0019,-0.3,-30.0,56.55,-0.1676,-0.2682,9.8545,-0.0258,-0.0037,0.0131,-31.65,-38.55,40.8,-0.2,0.14,9.53,0.0625,0.0625,0.0625,-26.5625,-48.75,-7.5,359.9375,-1.25,-0.3125,0,2.2890000343322754,9.73193400409189,0.028052985580861087,9.859573583578552,0.029170875886747043,9.533126454631764,0.10825317547305482
1776725468.548,0.0168,-0.1796,9.742,-0.0133,0.029,0.0053,-0.6,-31.05,58.35,-0.1676,-0.2873,9.8952,-0.0232,0.0019,0.0069,-31.65,-38.55,40.8,-0.22,0.13,9.57,0.0,-0.0625,-0.0625,-26.5625,-48.75,-7.5,359.9375,-1.25,-0.3125,0,2.2980000972747803,9.743669863044417,0.032341614059907396,9.900788558998723,0.024278797334299735,9.573411095320205,0.08838834764831845
1776725468.553,0.0168,-0.1796,9.742,-0.0147,0.0253,0.0056,-0.6,-31.05,58.35,-0.0934,-0.3136,9.9168,-0.0232,0.0019,0.0069,-31.8,-38.7,38.85,-0.22,0.13,9.57,0.0,-0.0625,0.0,-26.5625,-49.1875,-7.0625,359.9375,-1.25,-0.3125,0,2.302999973297119,9.743669863044417,0.02979160955705482,9.922196871661034,0.024278797334299735,9.573411095320205,0.0625
1776725468.559,0.0287,-0.1796,9.7492,-0.0128,0.0256,0.0021,0.6,-29.55,57.3,-0.1389,-0.2729,9.8952,-0.0269,-0.0011,0.0141,-31.8,-38.7,38.85,-0.21,0.12,9.55,0.0,-0.0625,0.0,-26.5625,-49.1875,-7.0625,359.9375,-1.25,-0.3125,0,2.309000015258789,9.750896394178332,0.028698606237934274,9.899936901819123,0.03039128164457695,9.553062336235435,0.0625
1776725468.569,0.0096,-0.1772,9.7659,-0.0085,0.0253,0.0011,0.6,-29.55,57.3,-0.067,-0.2993,9.9359,-0.0269,-0.0045,0.0125,-31.8,-38.7,38.85,-0.2,0.13,9.56,0.125,0.1875,-0.125,-26.5625,-49.1875,-7.0625,359.9375,-1.25,-0.3125,0,2.319000005722046,9.767512211919676,0.026712356691239357,9.940632691131889,0.030001833277318236,9.562975478374918,0.2576941016011038
1776725468.579,0.0551,-0.1269,9.7181,-0.0115,0.029,-0.0003,0.6,-29.55,57.3,-0.1269,-0.2777,9.8785,-0.0269,0.0011,0.0115,-31.5,-39.9,39.9,-0.22,0.12,9.58,0.0625,0.125,-0.125,-26.5625,-49.1875,-7.0625,359.9375,-1.25,-0.3125,0,2.3289999961853027,9.71908469095727,0.031198397394738085,9.883217246929261,0.029275757889421068,9.583277101284299,0.1875
1776725468.588,-0.0455,-0.182,9.7324,-0.0072,0.0293,-0.0005,-0.45,-28.95,57.75,-0.17,-0.2442,9.8641,-0.0261,0.0037,0.0107,-30.45,-39.3,38.55,-0.22,0.14,9.57,-0.125,0.0,0.0625,-26.5625,-49.1875,-7.0625,359.9375,-1.25,-0.3125,0,2.3380000591278076,9.734207929256494,0.030175818133068074,9.868586649059733,0.02844978031549629,9.5735521098493,0.13975424859373686
1776725468.599,-0.0287,-0.1772,9.7133,-0.0093,0.0296,0.0048,-0.15,-30.9,57.45,-0.0958,-0.3304,9.8545,-0.0272,-0.004,0.0088,-31.05,-39.6,40.5,-0.21,0.14,9.51,-0.125,-0.0625,-0.125,-26.5625,-49.1875,-7.0625,359.9375,-1.25,-0.3125,0,2.3489999771118164,9.714958590750658,0.03139570034256283,9.860502626641301,0.028866589684269944,9.51334851668959,0.1875
1776725468.604,0.0144,-0.2083,9.7229,-0.0093,0.0296,0.0048,-0.15,-30.9,57.45,-0.0958,-0.3304,9.8545,-0.0272,-0.004,0.0088,-31.05,-37.95,39.15,-0.21,0.14,9.51,-0.125,0.0,-0.125,-26.875,-49.1875,-7.5,359.9375,-1.25,-0.3125,0,2.3540000915527344,9.725141678145361,0.03139570034256283,9.860502626641301,0.028866589684269944,9.51334851668959,0.1767766952966369
1776725468.61,0.0144,-0.2083,9.7229,-0.0125,0.0266,0.0024,-0.45,-29.4,59.25,-0.182,-0.3352,9.8833,-0.0258,0.0021,0.0141,-30.45,-38.85,40.05,-0.22,0.14,9.56,-0.125,0.0,-0.125,-26.875,-49.1875,-7.5,359.9375,-1.25,-0.3125,0,2.359999895095825,9.725141678145361,0.02948847232394381,9.8906573052553,0.029476431262959905,9.563555824064604,0.1767766952966369
1776725468.619,-0.0192,-0.17,9.7348,-0.0096,0.0245,0.0024,-0.45,-29.4,58.2,-0.1149,-0.2969,9.8569,-0.0256,0.0003,0.016,-30.45,-38.85,40.05,-0.21,0.12,9.54,-0.0625,0.0625,0.0,-26.875,-49.1875,-7.5,359.9375,-1.25,-0.3125,0,2.36899995803833,9.73630318344699,0.026422906728821492,9.862039810809932,0.03019023020780067,9.54306554520087,0.08838834764831845
1776725468.629,-0.0551,-0.2035,9.7588,-0.0117,0.0224,0.0056,-0.45,-29.4,58.2,-0.0742,-0.3041,9.8521,-0.0274,-0.0037,0.0109,-31.65,-38.85,39.0,-0.19,0.13,9.52,0.0,0.125,0.0,-26.875,-49.1875,-7.5,359.9375,-1.25,-0.3125,0,2.378999948501587,9.76107707683942,0.025884551377221125,9.857071413964697,0.029719690442533215,9.522783206605094,0.125
1776725468.639,-0.0144,-0.1484,9.742,-0.0117,0.029,0.0067,0.0,-29.55,58.05,-0.103,-0.3352,9.8785,-0.029,-0.0016,0.0093,-31.65,-38.85,39.0,-0.21,0.1,9.57,0.0,-0.125,-0.0625,-26.875,-49.1875,-7.5,359.9375,-1.25,-0.3125,0,2.3889999389648438,9.743140865244637,0.03198093181881979,9.884722064377936,0.03049672113523026,9.572826123982406,0.13975424859373686
1776725468.649,0.0215,-0.1532,9.7276,-0.0091,0.025,0.0037,-1.35,-31.8,58.65,-0.1365,-0.2777,9.9216,-0.0232,-0.0016,0.0189,-30.75,-39.0,40.35,-0.21,0.14,9.59,-0.0625,0.0625,0.0625,-26.875,-49.1875,-7.5,359.9375,-1.25,-0.3125,0,2.3989999294281006,9.728830055561666,0.026860752037126588,9.926424134601543,0.02996681497923995,9.59332059299594,0.10825317547305482
1776725468.654,0.0072,-0.1341,9.742,-0.0091,0.025,0.0037,-1.35,-31.8,58.65,-0.1365,-0.2777,9.9216,-0.0232,-0.0016,0.0189,-30.75,-39.0,40.35,-0.21,0.14,9.59,0.0625,-0.125,0.0625,-27.25,-48.5,-6.6875,359.9375,-1.25,-0.3125,0,2.4040000438690186,9.74292556935544,0.026860752037126588,9.926424134601543,0.02996681497923995,9.59332059299594,0.15309310892394862
1776725468.66,0.0072,-0.1341,9.742,-0.0109,0.0264,-0.0021,-0.3,-28.8,57.6,-0.1269,-0.2514,9.8617,-0.0237,-0.0069,0.0152,-30.75,-39.0,40.35,-0.21,0.13,9.6,0.0625,-0.125,0.0625,-27.25,-48.5,-6.6875,359.9375,-1.25,-0.3125,0,2.4100000858306885,9.74292556935544,0.028638784890424384,9.865720067993012,0.028988618456214844,9.60317655778545,0.15309310892394862
1776725468.669,-0.0311,-0.1508,9.7181,-0.0128,0.0274,0.0,-0.6,-29.55,57.6,-0.0694,-0.2801,9.845,-0.0248,-0.0016,0.0131,-32.25,-39.9,38.85,-0.22,0.13,9.59,0.0,0.0625,0.0,-27.25,-48.5,-6.6875,359.9375,-1.25,-0.3125,0,2.4189999103546143,9.719319701501746,0.030242354405700625,9.84922826266099,0.028092881660662723,9.593403983988164,0.0625
1776725468.679,0.0886,-0.17,9.7181,-0.0117,0.0237,0.0021,-0.6,-29.55,57.6,-0.0814,-0.2825,9.8904,-0.0237,0.0027,0.0101,-31.95,-40.05,39.75,-0.22,0.11,9.54,0.0625,-0.0625,0.0,-27.25,-48.5,-6.6875,359.9375,-1.25,-0.3125,0,2.428999900817871,9.71999061573621,0.02651395858788348,9.894768535443363,0.02590347467039895,9.5431703327563,0.08838834764831845
1776725468.689,0.0479,-0.1604,9.7731,-0.0109,0.0285,0.0037,-0.6,-29.55,57.6,-0.1748,-0.3328,9.9216,-0.0261,-0.0027,0.0109,-33.0,-39.0,38.85,-0.21,0.13,9.53,0.125,-0.0625,0.0,-27.25,-48.5,-6.6875,359.9375,-1.25,-0.3125,0,2.438999891281128,9.774533553065332,0.030736785778607365,9.928718821680873,0.0284132011572086,9.533199882515838,0.13975424859373686
1776725468.699,0.0048,-0.158,9.7659,-0.0109,0.0293,0.0021,0.45,-30.45,57.15,-0.1149,-0.2705,9.8928,-0.0277,-0.0016,0.0104,-31.95,-37.35,39.75,-0.22,0.12,9.55,0.0625,-0.1875,0.0,-27.25,-48.5,-6.6875,359.9375,-1.25,-0.3125,0,2.4489998817443848,9.767179216641825,0.031332251754382416,9.897164447456655,0.0296312335214044,9.553287392306379,0.19764235376052372
1776725468.704,0.0766,-0.2107,9.7133,-0.0109,0.0293,0.0021,0.45,-30.45,57.15,-0.1413,-0.3448,9.8497,-0.0261,0.0003,0.0112,-31.95,-37.35,39.75,-0.22,0.12,9.55,-0.0625,0.0,-0.0625,-28.0,-48.75,-6.25,359.9375,-1.25,-0.3125,0,2.4539999961853027,9.715886935324022,0.031332251754382416,9.856746056381894,0.028403168837297012,9.553287392306379,0.08838834764831845
1776725468.71,0.0766,-0.2107,9.7133,-0.0112,0.0234,0.0027,-0.3,-30.75,58.05,-0.1413,-0.3448,9.8497,-0.0261,0.0003,0.0112,-31.95,-37.35,39.75,-0.21,0.14,9.54,-0.0625,0.0,-0.0625,-28.0,-48.75,-6.25,359.9375,-1.25,-0.3125,0,2.4600000381469727,9.715886935324022,0.026082369524259102,9.856746056381894,0.028403168837297012,9.543337990451768,0.08838834764831845
1776725468.719,0.0407,-0.1724,9.7803,-0.0131,0.0288,0.0045,-0.15,-30.9,57.45,-0.1772,-0.2442,9.9024,-0.0221,-0.0011,0.0128,-30.9,-40.8,39.3,-0.22,0.14,9.55,0.0625,0.0625,0.0,-28.0,-48.75,-6.25,359.9375,-1.25,-0.3125,0,2.4690001010894775,9.781904024268487,0.031957784654133965,9.906995469868754,0.025562863689344354,9.553559546054027,0.08838834764831845
1776725468.729,0.0072,-0.17,9.7324,-0.0096,0.0277,-0.0011,-0.45,-29.4,56.7,-0.1173,-0.2825,9.8928,-0.0277,-0.0011,0.0123,-30.9,-40.8,39.3,-0.21,0.12,9.54,0.125,0.0,-0.0625,-28.0,-48.75,-6.25,359.9375,-1.25,-0.3125,0,2.4790000915527344,9.733887281040396,0.029337007345671778,9.897527841840102,0.03032803983115295,9.54306554520087,0.13975424859373686
1776725468.739,0.0335,-0.146,9.754,-0.0117,0.0266,0.0008,-0.45,-29.4,56.7,-0.1556,-0.2346,9.9431,-0.0242,-0.0032,0.016,-30.75,-39.0,37.65,-0.22,0.13,9.54,-0.0625,0.0,0.0,-28.0,-48.75,-6.25,359.9375,-1.25,-0.3125,0,2.489000082015991,9.755150139797951,0.029070431713340616,9.947084302950287,0.02918698340013918,9.54342181819498,0.0625
1776725468.749,0.0527,-0.2011,9.7468,-0.0083,0.0224,0.0037,-1.2,-29.7,56.7,-0.1508,-0.2298,9.8354,-0.0298,-0.0077,0.0093,-30.3,-38.7,38.85,-0.22,0.14,9.55,0.0,-0.0625,0.0,-28.0,-48.75,-6.25,359.9375,-1.25,-0.3125,0,2.499000072479248,9.749016808888987,0.024173125573661344,9.83923990153711,0.032153071392947825,9.553559546054027,0.0625
1776725468.754,0.0527,-0.2011,9.7468,-0.0115,0.0296,-0.0008,-1.35,-31.05,57.0,-0.1987,-0.2801,9.8737,-0.0253,-0.0061,0.0085,-32.55,-39.45,40.35,-0.22,0.14,9.55,0.125,-0.125,-0.125,-27.6875,-48.5,-7.0625,359.9375,-1.25,-0.3125,0,2.503999948501587,9.749016808888987,0.031765547374474755,9.879670510194153,0.027377910804150123,9.553559546054027,0.21650635094610965
1776725468.76,0.0479,-0.2227,9.7181,-0.0115,0.0296,-0.0008,-1.35,-31.05,57.0,-0.1987,-0.2801,9.8737,-0.0229,-0.0048,0.0085,-32.55,-39.45,40.35,-0.23,0.12,9.53,0.125,-0.125,-0.125,-27.6875,-48.5,-7.0625,359.9375,-1.25,-0.3125,0,2.509999990463257,9.72076937850086,0.031765547374474755,9.879670510194153,0.024893774322107126,9.533530300995533,0.21650635094610965
1776725468.769,0.0694,-0.1676,9.754,-0.0123,0.0253,0.0024,-2.4,-32.55,57.3,-0.1389,-0.2514,9.8521,-0.0229,-0.0048,0.0085,-30.9,-39.3,39.3,-0.23,0.13,9.55,0.0625,-0.0625,0.0,-27.6875,-48.5,-7.0625,359.9375,-1.25,-0.3125,0,2.5190000534057617,9.755686655484585,0.02823366784532254,9.856285790296464,0.024893774322107126,9.553653751314206,0.08838834764831845
1776725468.779,-0.0239,-0.2035,9.7492,-0.0149,0.0288,0.0008,-1.05,-30.0,58.05,-0.1269,-0.2682,9.8928,-0.0269,-0.0029,0.0107,-31.05,-39.9,39.6,-0.2,0.15,9.52,-0.0625,0.0,0.0,-27.6875,-48.5,-7.0625,359.9375,-1.25,-0.3125,0,2.5290000438690186,9.751352936900602,0.03243593686021725,9.897248440349468,0.029094844904209403,9.52328199729484,0.0625
1776725468.789,0.0359,-0.1556,9.7013,-0.0091,0.0301,0.0037,-1.05,-30.0,58.05,-0.0958,-0.2705,9.809,-0.0285,-0.0005,0.0115,-30.75,-39.45,40.35,-0.21,0.11,9.57,0.0625,0.0,0.0,-27.6875,-48.5,-7.0625,359.9375,-1.25,-0.3125,0,2.5390000343322754,9.702614176602097,0.031662438314191785,9.81319667030066,0.030736785778607365,9.572935808831062,0.0625
1776725468.799,0.0383,-0.2011,9.7899,-0.0128,0.0266,-0.0019,0.15,-30.9,58.5,-0.1389,-0.3065,9.8833,-0.0325,-0.0053,0.0107,-30.75,-39.45,40.35,-0.22,0.12,9.56,-0.125,0.0625,-0.0625,-27.6875,-48.5,-7.0625,359.9375,-1.25,-0.3125,0,2.5490000247955322,9.792040140338477,0.029580567945866085,9.889026966795065,0.03462412453766882,9.563283954792935,0.15309310892394862
1776725468.804,0.0383,-0.2011,9.7899,-0.0104,0.0277,-0.0016,-0.3,-31.05,58.35,-0.1389,-0.3065,9.8833,-0.0325,-0.0053,0.0107,-31.65,-39.3,39.0,-0.22,0.12,9.56,0.125,-0.0625,0.0625,-26.875,-48.5,-5.875,359.9375,-1.25,-0.3125,0,2.553999900817871,9.792040140338477,0.0296312335214044,9.889026966795065,0.03462412453766882,9.563283954792935,0.15309310892394862
1776725468.81,0.0311,-0.2131,9.7372,-0.0104,0.0277,-0.0016,-0.3,-31.05,58.35,-0.1197,-0.2873,9.9048,-0.0266,-0.004,0.0147,-31.65,-39.3,39.0,-0.22,0.14,9.55,0.125,-0.0625,0.0625,-26.875,-48.5,-5.875,359.9375,-1.25,-0.3125,0,2.559999942779541,9.73958123637767,0.0296312335214044,9.90968881549769,0.03065371103145588,9.553559546054027,0.15309310892394862
1776725468.819,-0.0024,-0.17,9.7612,-0.0075,0.029,-0.0035,-0.9,-30.45,57.75,-0.1317,-0.2634,9.845,-0.0266,-0.004,0.0112,-31.65,-39.3,39.0,-0.19,0.13,9.57,0.0625,0.125,-0.0625,-26.875,-48.5,-5.875,359.9375,-1.25,-0.3125,0,2.569000005722046,9.762680533542005,0.030157917700000442,9.84940350731962,0.02913760456866693,9.572768669512493,0.15309310892394862
1776725468.829,0.0,-0.1652,9.7516,-0.0096,0.0272,0.0008,-0.45,-28.95,57.45,-0.1508,-0.237,9.8761,-0.0266,0.0019,0.0149,-31.5,-39.9,38.85,-0.22,0.12,9.52,0.0,0.0625,0.0,-26.875,-48.5,-5.875,359.9375,-1.25,-0.3125,0,2.5789999961853027,9.7529992104993,0.028855502074994294,9.880094172122044,0.030547995024223767,9.52329774815426,0.0625
1776725468.839,0.0503,-0.1628,9.7109,-0.0139,0.0288,0.0011,-0.15,-30.45,57.15,-0.1221,-0.3615,9.8186,-0.0285,0.0013,0.0107,-31.8,-40.2,40.35,-0.22,0.12,9.54,0.0,-0.0625,-0.0625,-26.875,-48.5,-5.875,359.9375,-1.25,-0.3125,0,2.5889999866485596,9.712394799430262,0.03199781242522682,9.826011226331872,0.03047014932684118,9.543290837022624,0.08838834764831845
1776725468.849,-0.0215,-0.1484,9.7276,-0.0144,0.0285,0.0053,-0.15,-30.45,57.15,-0.2035,-0.316,9.8833,-0.0226,-0.0011,0.0101,-31.5,-39.0,38.85,-0.23,0.14,9.55,0.0,-0.1875,0.0,-26.875,-48.5,-5.875,359.9375,-1.25,-0.3125,0,2.5989999771118164,9.728755653730852,0.0323681942653587,9.89044423370356,0.024778619816285166,9.553795057462768,0.1875
1776725468.854,-0.0215,-0.1484,9.7276,-0.0147,0.0258,0.0029,-1.05,-29.55,57.3,-0.2035,-0.316,9.8833,-0.0226,-0.0011,0.0101,-31.65,-39.6,39.3,-0.23,0.14,9.55,0.125,-0.125,0.0625,-27.25,-48.75,-7.875,359.9375,-1.25,-0.3125,0,2.6040000915527344,9.728755653730852,0.029835214093416527,9.89044423370356,0.024778619816285166,9.553795057462768,0.1875
1776725468.86,-0.0263,-0.1915,9.7396,-0.0125,0.028,0.0019,-1.05,-29.55,57.3,-0.1173,-0.2897,9.8689,-0.0216,-0.0048,0.0123,-31.65,-39.6,39.3,-0.21,0.12,9.55,0.125,-0.125,0.0625,-27.25,-48.75,-7.875,359.9375,-1.25,-0.3125,0,2.609999895095825,9.741517956663632,0.030722304601054917,9.873847912035105,0.025315805339747737,9.553062336235435,0.1875
1776725468.869,0.0215,-0.2059,9.7851,-0.0077,0.0306,0.0013,0.0,-31.5,57.6,-0.1413,-0.2777,9.8689,-0.0205,-0.0048,0.0107,-31.95,-37.65,39.75,-0.22,0.1,9.56,0.0,0.0625,-0.0625,-27.25,-48.75,-7.875,359.9375,-1.25,-0.3125,0,2.61899995803833,9.78728966925982,0.03158069030277837,9.87381740716325,0.02361736649163069,9.563053905526205,0.08838834764831845
1776725468.879,-0.012,-0.1891,9.7252,-0.0136,0.0261,-0.0029,-1.2,-31.65,57.15,-0.1676,-0.3065,9.8545,-0.0229,-0.0059,0.0144,-31.5,-39.9,39.15,-0.22,0.12,9.56,0.0,-0.0625,0.0,-27.25,-48.75,-7.875,359.9375,-1.25,-0.3125,0,2.628999948501587,9.727045689725118,0.029573298767638354,9.860689745651671,0.027687181149405587,9.563283954792935,0.0625
1776725468.889,0.0168,-0.2011,9.7875,-0.0091,0.0277,0.0053,-0.6,-30.0,58.65,-0.1221,-0.3352,9.9335,-0.025,-0.004,0.0152,-31.5,-39.9,39.15,-0.21,0.12,9.57,-0.0625,0.0,0.0625,-27.25,-48.75,-7.875,359.9375,-1.25,-0.3125,0,2.6389999389648438,9.789580159536975,0.029634270701334967,9.939903907986235,0.029530323398161425,9.573055938413814,0.08838834764831845
1776725468.899,-0.0024,-0.1939,9.73,-0.0109,0.0232,0.0027,-0.6,-30.0,58.65,-0.1939,-0.3232,9.8857,-0.0211,-0.0021,0.0141,-32.25,-40.65,38.85,-0.2,0.13,9.58,-0.0625,0.0625,0.125,-27.25,-48.75,-7.875,359.9375,-1.25,-0.3125,0,2.6489999294281006,9.731932129335881,0.025774793888603646,9.89288228677568,0.025464288719695274,9.58296926844702,0.15309310892394862
1776725468.904,-0.0263,-0.2251,9.7707,-0.0109,0.0232,0.0027,0.0,-31.5,57.3,-0.1939,-0.3232,9.8857,-0.0282,-0.0037,0.0125,-32.25,-40.65,38.85,-0.2,0.13,9.58,0.0625,0.125,-0.1875,-26.5625,-48.875,-7.5,359.9375,-1.25,-0.3125,0,2.6540000438690186,9.773327999714324,0.025774793888603646,9.89288228677568,0.031067346201437935,9.58296926844702,0.23385358667337133
1776725468.91,-0.0263,-0.2251,9.7707,-0.0096,0.0269,0.0029,0.0,-31.5,57.3,-0.1053,-0.2945,9.8641,-0.0282,-0.0037,0.0125,-32.25,-40.65,38.85,-0.2,0.15,9.58,0.0625,0.125,-0.1875,-26.5625,-48.875,-7.5,359.9375,-1.25,-0.3125,0,2.6600000858306885,9.773327999714324,0.02870853531617383,9.869057054754522,0.031067346201437935,9.58326144900576,0.23385358667337133
1776725468.919,0.0239,-0.1676,9.7229,-0.0205,0.0266,0.0027,-0.15,-30.45,57.75,-0.0862,-0.2394,9.8713,-0.0293,-0.0032,0.0067,-32.4,-39.3,39.75,-0.2,0.12,9.53,0.0625,0.0625,0.0,-26.5625,-48.875,-7.5,359.9375,-1.25,-0.3125,0,2.6689999103546143,9.724373778295442,0.03369124515360036,9.874578800637524,0.030226147620892742,9.532853717539151,0.08838834764831845
1776725468.929,0.0287,-0.1628,9.7037,-0.0117,0.0288,0.0013,-0.15,-30.45,56.7,-0.1053,-0.3089,9.8474,-0.0296,-0.0037,0.0123,-31.05,-39.45,38.85,-0.19,0.13,9.55,0.0,0.0,0.125,-26.5625,-48.875,-7.5,359.9375,-1.25,-0.3125,0,2.678999900817871,9.705107996307923,0.03111301978272119,9.852806405283726,0.03226670110191,9.552774466090991,0.125
1776725468.939,0.0335,-0.1796,9.7444,-0.0093,0.025,-0.0013,-1.05,-30.0,57.3,-0.1844,-0.2921,9.9359,-0.0245,0.0016,0.0112,-31.05,-40.95,39.9,-0.21,0.13,9.51,0.0625,0.1875,-0.0625,-26.5625,-48.875,-7.5,359.9375,-1.25,-0.3125,0,2.688999891281128,9.746112546549009,0.02670543015942638,9.941902965730455,0.026986107537027272,9.51320660976098,0.2072890493972125
1776725468.949,0.0431,-0.1556,9.7516,-0.0171,0.029,0.0013,-0.9,-28.95,59.25,-0.1245,-0.2442,9.9,-0.0296,-0.0059,0.0072,-31.95,-38.85,39.75,-0.22,0.13,9.56,-0.0625,-0.0625,-0.125,-26.5625,-48.875,-7.5,359.9375,-1.25,-0.3125,0,2.6989998817443848,9.752936559313815,0.03369124515360036,9.90379391395035,0.031029179815135303,9.563414662138205,0.15309310892394862
1776725468.954,0.0287,-0.1939,9.7492,-0.0171,0.029,0.0013,-0.9,-28.95,59.25,-0.1508,-0.2897,9.8737,-0.0264,-0.0035,0.0131,-31.95,-38.85,39.75,-0.22,0.13,9.56,0.0625,0.0625,0.0625,-28.0,-49.1875,-5.875,359.9375,-1.25,-0.3125,0,2.7039999961853027,9.751170265152794,0.03369124515360036,9.879100081485154,0.029678611827374943,9.563414662138205,0.10825317547305482
1776725468.96,0.0287,-0.1939,9.7492,-0.008,0.0317,0.0021,-0.9,-28.95,59.25,-0.1508,-0.2897,9.8737,-0.0264,-0.0035,0.0131,-31.95,-38.85,39.75,-0.22,0.12,9.57,0.0625,0.0625,0.0625,-28.0,-49.1875,-5.875,359.9375,-1.25,-0.3125,0,2.7100000381469727,9.751170265152794,0.03276125760711881,9.879100081485154,0.029678611827374943,9.573280524459731,0.10825317547305482
1776725468.969,0.0575,-0.1604,9.7731,-0.0077,0.0266,0.0019,-1.35,-29.55,58.35,-0.1269,-0.2849,9.821,-0.0285,-0.0011,0.0117,-31.8,-38.25,38.85,-0.22,0.14,9.58,0.0625,0.0,-0.0625,-28.0,-49.1875,-5.875,359.9375,-1.25,-0.3125,0,2.7190001010894775,9.774585311919887,0.027757161238138168,9.825950977895218,0.030827747241730135,9.58354840338379,0.08838834764831845
1776725468.979,-0.0072,-0.1484,9.7468,-0.016,0.0312,0.0045,-1.95,-29.7,58.2,-0.1269,-0.3065,9.821,-0.0237,-0.0035,0.0136,-31.8,-38.25,38.85,-0.21,0.15,9.58,0.0625,0.0625,-0.125,-28.0,-49.1875,-5.875,359.9375,-1.25,-0.3125,0,2.7290000915527344,9.7479323263962,0.03535095472543846,9.826600982028323,0.02754813968310746,9.583475361266391,0.15309310892394862
1776725468.989,0.0455,-0.182,9.7157,-0.0099,0.0264,0.0067,-0.6,-30.0,57.0,-0.158,-0.3136,9.8952,-0.025,0.0011,0.0101,-31.2,-39.3,39.0,-0.2,0.14,9.54,-0.0625,-0.125,0.0625,-28.0,-49.1875,-5.875,359.9375,-1.25,-0.3125,0,2.739000082015991,9.717511036268496,0.02898033816227823,9.901428785786424,0.02698555168974687,9.543123178498744,0.15309310892394862
1776725468.999,-0.0192,-0.1556,9.7205,-0.0091,0.0224,0.0003,-0.6,-30.75,57.0,-0.1389,-0.2705,9.8809,-0.0282,-0.0032,0.0128,-32.4,-39.3,40.05,-0.21,0.17,9.54,-0.0625,-0.1875,-0.0625,-28.0,-49.1875,-5.875,359.9375,-1.25,-0.3125,0,2.749000072479248,9.721764256039126,0.024179743588384057,9.885577791409059,0.031133904348796346,9.543825228911098,0.2072890493972125
1776725469.004,0.0072,-0.1628,9.7085,-0.0123,0.0274,0.0045,-0.6,-30.75,57.0,-0.1221,-0.2993,9.7827,-0.025,-0.0045,0.0109,-30.75,-39.9,38.85,-0.21,0.17,9.54,-0.0625,-0.0625,-0.0625,-27.25,-48.75,-7.0625,359.9375,-1.25,-0.3125,0,2.753999948501587,9.709867554709488,0.030369392486515105,9.788039037008383,0.02764163526276982,9.543825228911098,0.10825317547305482
1776725469.01,0.0646,-0.1221,9.7276,-0.0123,0.0274,0.0045,-1.95,-29.4,57.15,-0.1532,-0.2897,9.7851,-0.0272,-0.0027,0.0157,-30.75,-39.9,38.85,-0.2,0.12,9.53,-0.0625,-0.0625,-0.0625,-27.25,-48.75,-7.0625,359.9375,-1.25,-0.3125,0,2.759999990463257,9.728580745925893,0.030369392486515105,9.790586210232766,0.03152173853073462,9.532853717539151,0.10825317547305482
1776725469.019,0.0407,-0.1317,9.7636,-0.0139,0.0314,0.0032,0.0,-30.75,57.0,-0.1532,-0.2897,9.7851,-0.029,-0.0003,0.0107,-31.5,-38.7,39.15,-0.23,0.13,9.52,0.0,-0.125,-0.125,-27.25,-48.75,-7.0625,359.9375,-1.25,-0.3125,0,2.7690000534057617,9.764573023947335,0.03448782393831191,9.790586210232766,0.03091245703595882,9.523665260812141,0.1767766952966369
1776725469.029,0.0024,-0.2466,9.6989,-0.0093,0.0258,0.0024,0.15,-30.15,57.45,-0.1628,-0.261,9.9288,-0.0245,0.0008,0.0099,-31.05,-38.25,41.4,-0.2,0.1,9.53,0.0,-0.125,0.0625,-27.25,-48.75,-7.0625,359.9375,-1.25,-0.3125,0,2.7790000438690186,9.702034762357842,0.027529802033432787,9.933564027075077,0.02643671689147501,9.532622933904392,0.13975424859373686
1776725469.039,0.0455,-0.2179,9.7205,-0.0131,0.028,0.0013,-1.05,-31.05,58.05,-0.1724,-0.3472,9.9192,-0.0301,-0.0051,0.0104,-31.2,-39.3,39.75,-0.22,0.15,9.56,-0.0625,0.0625,0.0625,-27.25,-48.75,-7.0625,359.9375,-1.25,-0.3125,0,2.7890000343322754,9.723048437090087,0.030940265027953464,9.926771793488555,0.032251821653977934,9.563707440109196,0.10825317547305482
1776725469.05,-0.0096,-0.2298,9.7803,-0.0141,0.0312,0.0011,-1.05,-31.05,58.05,-0.1389,-0.2179,9.8976,-0.0261,-0.0021,0.0133,-31.2,-39.3,39.75,-0.21,0.14,9.56,0.0625,0.125,-0.125,-27.25,-48.75,-7.0625,359.9375,-1.25,-0.3125,0,2.799999952316284,9.783004052437063,0.03425580242820185,9.900972648179572,0.029368520561989502,9.563331009643031,0.1875
1776725469.055,-0.0096,-0.2298,9.7803,-0.0109,0.025,0.0,-1.05,-31.05,58.05,-0.1389,-0.2179,9.8976,-0.0261,-0.0021,0.0133,-29.85,-38.25,40.65,-0.21,0.14,9.56,0.1875,-0.125,0.0625,-27.25,-48.5,-7.875,359.9375,-1.25,-0.3125,0,2.805000066757202,9.783004052437063,0.02727288030260097,9.900972648179572,0.029368520561989502,9.563331009643031,0.23385358667337133
1776725469.06,-0.0192,-0.1437,9.7923,-0.0109,0.025,0.0,-1.05,-31.05,58.05,-0.1724,-0.2753,9.8641,-0.0232,-0.0011,0.0112,-29.85,-38.25,40.65,-0.2,0.14,9.57,0.1875,-0.125,0.0625,-27.25,-48.5,-7.875,359.9375,-1.25,-0.3125,0,2.809999942779541,9.793373148205882,0.02727288030260097,9.86944682644372,0.025785461019729703,9.573113391159639,0.23385358667337133
