timestamp,thigh_acc_x,thigh_acc_y,thigh_acc_z,thigh_gyro_x,thigh_gyro_y,thigh_gyro_z,thigh_mag_x,thigh_mag_y,thigh_mag_z,shank_acc_x,shank_acc_y,shank_acc_z,shank_gyro_x,shank_gyro_y,shank_gyro_z,shank_mag_x,shank_mag_y,shank_mag_z,foot_acc_x,foot_acc_y,foot_acc_z,foot_gyro_x,foot_gyro_y,foot_gyro_z,foot_mag_x,foot_mag_y,foot_mag_z,foot_euler_x,foot_euler_y,foot_euler_z,perturbation_event,time_s,thigh_acc_mag,thigh_gyro_mag,shank_acc_mag,shank_gyro_mag,foot_acc_mag,foot_gyro_mag
1776724174.664,-1.9345,-1.0295,10.3525,-1.4885,0.502,-0.0285,-8.25,-10.05,82.65,-2.2218,-0.9649,10.4411,-1.5828,0.5044,-0.0506,-28.2,-20.1,50.1,1.58,0.64,10.84,45.0,-15.0625,-4.1875,44.75,-16.0625,-56.0625,253.88,11.19,-4.06,0,0.0,10.581890981766916,1.5711296891090816,10.718395237161205,1.6619974608885537,10.973221951642097,47.638367546548025
1776724174.674,-1.482,-1.0463,9.6103,-1.6465,0.5883,-0.0344,-7.5,-10.05,81.9,-1.506,-0.7063,9.6103,-1.6193,0.5942,-0.0226,-28.35,-19.05,49.2,1.87,0.6,10.8,66.3125,-23.5,-1.3125,44.75,-16.0625,-56.0625,253.81,11.5,-4.94,0,0.009999990463256836,9.78002728932798,1.7487831483634557,9.753192389161613,1.7250266345769851,10.977107998011133,70.3656188241104
1776724174.684,-1.8316,-1.6448,9.481,-1.4242,0.6797,-0.0448,-7.5,-10.05,81.9,-2.0159,-1.7717,9.6199,-1.5886,0.6368,-0.0386,-29.1,-18.75,50.25,1.73,1.01,10.49,89.25,-29.1875,-1.75,44.75,-16.0625,-56.0625,253.75,11.81,-5.88,0,0.019999980926513672,9.79538088080295,1.5787161777849748,9.987254362936792,1.7119153483744458,10.679564597866339,93.91770416833026
1776724174.694,-1.8148,-2.1045,8.8705,-1.1922,0.6909,-0.053,-6.45,-10.8,81.9,-1.9561,-1.9968,9.1315,-1.3648,0.6579,-0.0661,-29.1,-18.75,50.25,1.66,1.46,9.59,95.875,-34.5,-1.3125,44.75,-16.0625,-56.0625,253.75,11.81,-5.88,0,0.029999971389770508,9.295600547570878,1.3789462099733985,9.549755478544988,1.5165357430670734,9.84150903063143,101.90185612269288
1776724174.701,-1.8076,-2.4852,8.2839,-1.1922,0.6909,-0.053,-5.85,-10.65,83.85,-2.0303,-2.4086,8.6072,-1.1471,0.6576,-0.0634,-27.6,-19.5,49.95,1.65,1.76,9.25,92.5,-37.8125,-1.5,43.5625,-16.75,-56.0,253.69,12.19,-6.75,0,0.03699994087219238,8.835532582136743,1.3789462099733985,9.16555311424248,1.3237430755248543,9.559424668880444,99.94140861649889
1776724174.707,-1.8076,-2.4852,8.2839,-1.019,0.6438,-0.0195,-5.85,-10.65,83.85,-2.0375,-2.66,8.2624,-0.9872,0.5926,-0.0075,-26.85,-21.0,50.25,1.65,1.76,9.25,92.5,-37.8125,-1.5,43.5625,-16.75,-56.0,253.69,12.56,-7.56,0,0.042999982833862305,8.835532582136743,1.205495620066701,8.915955361597543,1.1514316523354742,9.559424668880444,99.94140861649889
1776724174.714,-1.9776,-2.8036,7.6471,-0.8545,0.5281,0.0517,-5.4,-12.3,83.7,-2.0375,-2.66,8.2624,-0.9872,0.5926,-0.0075,-26.85,-21.0,50.25,1.7,2.22,8.72,80.0625,-38.9375,-2.875,43.5625,-16.75,-56.0,253.62,12.88,-8.25,0,0.04999995231628418,8.381480366259888,1.0058492680317463,8.915955361597543,1.1514316523354742,9.157335857114775,89.07524031682429
1776724174.724,-2.2745,-2.8515,7.2688,-0.6648,0.3395,0.1199,-5.55,-12.45,82.05,-2.2553,-2.4612,7.5058,-0.5852,0.2603,0.1332,-27.0,-20.4,50.1,1.72,2.65,8.08,67.125,-38.75,-2.875,43.5625,-16.75,-56.0,253.62,13.25,-8.81,0,0.059999942779541016,8.132641387642762,0.7560392185594607,8.214676936435175,0.6541845076123403,8.675672884566362,77.56025883144022
1776724174.734,-2.3152,-2.4205,6.6702,-0.384,0.1394,0.1537,-5.55,-12.45,82.05,-2.8635,-2.4612,7.4891,-0.3174,0.044,0.1668,-27.9,-20.4,50.4,2.11,3.08,7.02,56.4375,-34.375,0.25,43.5625,-16.75,-56.0,253.5,13.5,-9.25,0,0.06999993324279785,7.463949311858971,0.43647686078416575,8.387118486107132,0.36124922145244825,7.951031379638744,66.08248278666593
1776724174.744,-2.8323,-2.4588,6.7995,-0.0336,-0.1111,0.1929,-5.55,-12.45,82.05,-2.6528,-2.0063,7.7883,0.004,-0.1895,0.2172,-26.7,-19.35,49.35,2.11,2.82,6.57,46.0625,-25.6875,4.4375,43.5625,-16.75,-56.0,253.5,13.5,-9.25,0,0.07999992370605469,7.765360325187751,0.22512791919262257,8.468778212941935,0.2882743311500349,7.454488580714307,52.92724221750081
1776724174.751,-2.3104,-1.9848,7.6543,-0.0336,-0.1111,0.1929,-4.8,-12.9,82.35,-2.6528,-2.0063,7.7883,0.004,-0.1895,0.2172,-26.7,-18.15,50.1,2.39,2.51,6.21,31.375,-13.6875,7.8125,40.0625,-18.75,-57.875,253.44,13.62,-9.56,0,0.08699989318847656,8.238063345835597,0.22512791919262257,8.468778212941935,0.2882743311500349,7.111701624787137,35.110873493833786
1776724174.757,-2.3104,-1.9848,7.6543,0.0869,-0.2459,0.2691,-4.8,-12.9,82.35,-2.4038,-1.5538,8.5545,0.0618,-0.2952,0.3067,-26.7,-18.15,50.1,2.39,2.51,6.21,31.375,-13.6875,7.8125,40.0625,-18.75,-57.875,253.44,13.62,-9.56,0,0.09299993515014648,8.238063345835597,0.3747442194350702,9.02064405294877,0.4301478466760004,7.111701624787137,35.110873493833786
1776724174.764,-2.2697,-1.4557,8.7245,-0.0149,-0.3014,0.3627,-5.25,-11.4,83.1,-2.4756,-1.2546,9.4188,-0.081,-0.344,0.3821,-26.7,-18.15,50.1,2.31,2.23,7.15,13.4375,-0.1875,10.0,40.0625,-18.75,-57.875,253.19,13.56,-9.56,0,0.09999990463256836,9.131675685765456,0.47182121614018163,9.819185809424322,0.5204780590956741,7.837824953391087,16.751166004192065
1776724174.774,-2.3607,-1.075,9.5696,-0.2225,-0.3051,0.3789,-4.35,-11.55,82.2,-2.5379,-1.142,9.8641,-0.2798,-0.3344,0.3906,-25.35,-19.05,49.95,2.11,1.93,8.17,-2.375,12.1875,13.0625,40.0625,-18.75,-57.875,253.0,13.44,-9.5,0,0.1099998950958252,9.914926810118166,0.5349368841274641,10.249174075016972,0.5853885547224168,8.655974815120478,18.02233856912027
1776724174.784,-2.4445,-0.9337,9.9958,-0.393,-0.2625,0.3347,-4.5,-11.4,81.0,-2.8012,-1.1612,9.9886,-0.433,-0.271,0.3259,-25.35,-19.05,49.95,2.14,1.45,9.06,-3.25,17.875,18.4375,40.0625,-18.75,-57.875,252.75,13.25,-9.5,0,0.11999988555908203,10.332637300321732,0.5791194522721543,10.438737320193473,0.6059214553058837,9.421555073341132,25.884735487348525
1776724174.795,-2.6695,-0.8356,10.2137,-0.4994,-0.1665,0.2443,-4.5,-11.4,81.0,-2.9185,-1.2115,9.9216,-0.5348,-0.1623,0.2222,-25.8,-19.5,50.25,2.24,0.83,10.09,6.5625,19.75,21.9375,40.0625,-18.75,-57.875,252.75,13.25,-9.5,0,0.13100004196166992,10.589812335447686,0.5803491190654122,10.412661574256603,0.6014359234365703,10.368924727280067,30.23876340890943
1776724174.801,-2.8012,-0.7877,10.0987,-0.5137,-0.0333,0.122,-4.8,-10.2,82.05,-2.7988,-1.2186,9.7205,-0.5148,-0.0376,0.1037,-25.05,-18.3,49.95,2.46,0.68,10.36,18.0,18.3125,21.0,38.375,-20.0625,-58.0625,252.5,13.12,-9.62,0,0.13700008392333984,10.509563950040933,0.5290374088852319,10.188541978614996,0.5264850330256312,10.669751637221927,33.17148860467374
1776724174.807,-2.4062,-0.9122,9.7444,-0.5137,-0.0333,0.122,-4.8,-10.2,82.05,-2.7988,-1.2186,9.7205,-0.5148,-0.0376,0.1037,-25.8,-19.5,49.2,2.46,0.68,10.36,18.0,18.3125,21.0,38.375,-20.0625,-58.0625,252.5,13.12,-9.62,0,0.14299988746643066,10.078454179089173,0.5290374088852319,10.188541978614996,0.5264850330256312,10.669751637221927,33.17148860467374
1776724174.814,-2.4062,-0.9122,9.7444,-0.3845,0.04,0.0234,-4.65,-11.25,81.45,-2.3679,-1.3431,9.56,-0.3653,0.0242,0.0109,-25.8,-19.5,49.2,2.61,0.57,10.42,26.5625,13.5,16.625,38.375,-20.0625,-58.0625,252.19,13.0,-10.12,0,0.14999985694885254,10.078454179089173,0.3872825970786707,9.940043662881969,0.3662629383380197,10.757016314945329,34.12047818026588
1776724174.824,-2.083,-1.1564,9.4284,-0.2257,0.0354,-0.052,-2.7,-13.2,81.3,-2.2434,-1.5395,9.4451,-0.2153,0.0043,-0.06,-24.75,-19.65,49.8,2.46,0.62,10.19,30.0,6.3125,10.0625,38.375,-20.0625,-58.0625,252.12,13.0,-10.38,0,0.15999984741210938,9.724755859146285,0.2343024754457366,9.829181950701697,0.2235454763577201,10.5010523282193,32.266105474630805
1776724174.834,-2.2314,-1.5443,9.153,-0.0887,-0.0168,-0.113,-4.65,-11.55,80.85,-2.4995,-2.0303,9.3853,-0.0674,-0.0626,-0.113,-24.0,-19.35,50.1,1.92,1.02,9.31,25.1875,0.5625,3.5625,38.375,-20.0625,-58.0625,252.12,13.0,-10.5,0,0.1700000762939453,9.54680142508474,0.14463377890382317,9.922372419436796,0.145706966202718,9.560486389300495,25.444409381040856
1776724174.845,-2.5714,-2.2889,8.9399,0.1039,-0.0914,-0.1284,-3.45,-11.4,82.8,-2.6863,-2.3032,9.3948,0.1266,-0.1343,-0.1204,-24.75,-18.9,49.05,2.0,1.34,8.98,15.6875,-0.75,-1.5,38.375,-20.0625,-58.0625,252.12,13.0,-10.5,0,0.1809999942779541,9.57982114551206,0.18877428320616133,10.039083871051183,0.2203638128187112,9.297096320895035,15.776886773061408
1776724174.851,-2.5714,-2.2889,8.9399,0.283,-0.1623,-0.1077,-3.45,-11.4,82.8,-2.7605,-2.2553,9.1554,0.2942,-0.2028,-0.0831,-24.75,-18.9,49.05,2.19,1.85,8.94,6.875,1.6875,-5.5625,37.875,-20.1875,-57.6875,252.12,12.94,-10.56,0,0.18700003623962402,9.57982114551206,0.34355433340302954,9.824870864291295,0.36686113176514085,9.388407745725576,9.003037681804958
1776724174.857,-2.5187,-2.1237,8.7843,0.283,-0.1623,-0.1077,-3.6,-11.55,82.65,-2.7605,-2.2553,9.1554,0.2942,-0.2028,-0.0831,-24.6,-18.3,49.2,2.19,1.85,8.94,6.875,1.6875,-5.5625,37.875,-20.1875,-57.6875,252.25,12.88,-10.56,0,0.19300007820129395,9.3817843649276,0.34355433340302954,9.824870864291295,0.36686113176514085,9.388407745725576,9.003037681804958
1776724174.864,-2.0279,-1.5107,9.0501,0.3821,-0.2398,-0.0514,-3.6,-11.55,82.65,-2.3846,-1.6688,9.1171,0.3632,-0.2825,-0.0304,-24.6,-18.3,49.2,2.49,2.44,8.7,-3.8125,5.875,-7.75,37.875,-20.1875,-57.6875,252.31,12.75,-10.44,0,0.20000004768371582,9.396749592811336,0.45403348995421033,9.570408716977557,0.46113409112751574,9.372496999199305,10.445730288017206
1776724174.874,-2.2577,-1.1612,9.4571,0.1657,-0.2654,0.0296,-3.0,-10.95,81.75,-2.2984,-1.2306,9.3541,0.0981,-0.291,0.0541,-24.6,-18.3,49.2,2.33,2.26,8.55,-15.0,10.3125,-6.8125,37.875,-20.1875,-57.6875,252.38,12.62,-10.19,0,0.21000003814697266,9.79195257035082,0.31427664564838415,9.710623344049548,0.31181953113940764,9.145436020223421,19.435992706831314
1776724174.885,-2.5043,-1.2067,9.651,-0.2129,-0.259,0.0901,-4.35,-10.5,81.15,-2.624,-1.1708,9.675,-0.2726,-0.2902,0.1074,-24.45,-18.15,48.6,1.95,1.84,8.85,-21.9375,15.0625,-3.625,37.875,-20.1875,-57.6875,252.38,12.44,-10.06,0,0.22099995613098145,10.043378135866439,0.34716771163228877,10.092659393836692,0.41238520827013186,9.247194169043926,26.856534353858837
1776724174.895,-2.557,-1.3264,9.7348,-0.4503,-0.2403,0.113,-3.45,-12.15,81.75,-2.7725,-1.3862,9.7444,-0.4799,-0.2723,0.117,-22.95,-18.45,50.1,1.98,1.54,9.28,-12.75,17.0625,0.5625,37.875,-20.1875,-57.6875,252.38,12.44,-10.06,0,0.23099994659423828,10.152040041292194,0.5227649376153684,10.225538521271142,0.5640392716823891,9.613032820083369,21.307459081270107
1776724174.901,-2.557,-1.3264,9.7348,-0.4359,-0.1903,0.0981,-3.45,-10.95,81.3,-2.6552,-1.5299,9.6414,-0.4293,-0.2113,0.1002,-25.8,-18.0,48.45,2.43,1.3,9.72,8.5625,17.0625,4.75,38.375,-20.5,-56.375,252.25,12.31,-10.12,0,0.2369999885559082,10.152040041292194,0.4856403092824977,10.116683004325084,0.48886216871425014,10.103133177386113,19.67251413775067
1776724174.908,-2.3798,-1.3551,9.6151,-0.2859,-0.1394,0.0714,-3.45,-10.95,81.3,-2.3032,-1.4916,9.4763,-0.2819,-0.1609,0.0658,-25.8,-18.0,48.45,2.43,1.3,9.72,8.5625,17.0625,4.75,38.375,-20.5,-56.375,252.19,12.19,-10.38,0,0.24399995803833008,9.997494289070637,0.3259894630198958,9.865589819671198,0.3311888585082535,10.103133177386113,19.67251413775067
1776724174.914,-2.0949,-1.2809,9.4044,-0.2859,-0.1394,0.0714,-3.45,-10.95,81.3,-2.3032,-1.4916,9.4763,-0.2819,-0.1609,0.0658,-25.05,-18.75,49.5,2.38,1.34,9.85,24.25,15.9375,6.3125,38.375,-20.5,-56.375,252.06,12.06,-10.56,0,0.25,9.71967335768029,0.3259894630198958,9.865589819671198,0.3311888585082535,10.221668161313005,29.69703794151868
1776724174.924,-2.0375,-1.2641,9.0573,-0.1498,-0.1116,0.0277,-3.15,-10.8,81.15,-2.2314,-1.5012,9.3302,-0.1487,-0.145,0.0306,-25.5,-17.7,50.4,2.2,1.31,9.77,25.0,13.125,5.6875,38.375,-20.5,-56.375,252.0,11.94,-10.75,0,0.25999999046325684,9.369313654158452,0.18884355959364882,9.710065882371756,0.209935823527096,10.09995049492818,28.803008197929604
1776724174.934,-1.8579,-1.2713,9.0285,-0.0698,-0.1255,-0.0213,-1.95,-10.2,81.0,-2.0351,-1.415,9.0884,-0.0842,-0.1522,-0.0173,-23.7,-17.4,49.35,1.88,1.22,9.28,16.75,9.9375,3.9375,38.375,-20.5,-56.375,252.0,11.88,-10.81,0,0.26999998092651367,9.304934623628474,0.14517568666963487,9.42034349532967,0.17479636723913916,9.546790036446806,19.870085870473737
1776724174.945,-1.8747,-1.6999,9.244,-0.0735,-0.1231,-0.048,-3.75,-11.7,81.75,-2.1308,-1.8196,9.4715,-0.0847,-0.1522,-0.0392,-23.7,-17.4,49.35,1.81,1.15,8.98,8.5,8.625,1.5,38.375,-20.5,-56.375,252.0,11.88,-10.81,0,0.28099989891052246,9.584137733776576,0.15119477504199674,9.877275183470388,0.17853730702573062,9.23249695369568,12.202074618686774
1776724174.951,-1.9992,-1.9154,9.4379,-0.0677,-0.1162,-0.02,-2.7,-10.65,81.0,-2.1308,-1.8196,9.4715,-0.0786,-0.1519,-0.0088,-25.05,-17.55,48.0,1.69,1.31,9.06,4.0625,8.8125,-1.3125,37.25,-21.1875,-55.1875,252.0,11.81,-10.88,0,0.2869999408721924,9.835624749348666,0.13596223740436164,9.877275183470388,0.1712571458363125,9.308909710594468,9.792176405171631
1776724174.958,-1.9992,-1.9154,9.4379,-0.0549,-0.1103,0.0216,-2.7,-10.65,81.0,-2.2386,-1.9369,9.6367,-0.0746,-0.141,0.0336,-25.05,-17.55,48.0,1.69,1.31,9.06,4.0625,8.8125,-1.3125,37.25,-21.1875,-55.1875,252.0,11.81,-10.88,0,0.29399991035461426,9.835624749348666,0.12508660999483517,10.081115933268498,0.16301877192519884,9.308909710594468,9.792176405171631
1776724174.964,-1.992,-1.9513,9.7252,-0.0549,-0.1103,0.0216,-2.7,-10.65,81.0,-2.1548,-2.0686,9.7612,-0.158,-0.1188,0.0735,-23.1,-17.55,48.0,1.83,2.02,9.36,3.5625,8.6875,-2.625,37.25,-21.1875,-55.1875,252.0,11.62,-10.94,0,0.2999999523162842,10.117072241019137,0.12508660999483517,10.208001490987352,0.21090208628650406,9.748789668466541,9.749599350742573
1776724174.975,-1.9082,-2.0997,9.6391,-0.2454,-0.1002,0.1013,-2.7,-10.95,81.0,-2.15,-2.1763,9.7875,-0.2686,-0.1335,0.1108,-24.0,-18.15,49.8,1.88,2.11,9.55,3.125,8.4375,-1.1875,37.25,-21.1875,-55.1875,252.0,11.56,-10.94,0,0.31099987030029297,10.047995627984717,0.2837655546397413,10.254459417248674,0.3197574862297988,9.959367449793186,9.075637029983074
1776724174.985,-1.9656,-2.2458,9.572,-0.2912,-0.1186,0.1378,-4.8,-11.7,80.25,-2.1189,-2.3415,9.6391,-0.3051,-0.1551,0.1458,-23.1,-15.6,48.75,1.87,2.15,9.63,3.25,7.75,1.5,37.25,-21.1875,-55.1875,251.94,11.5,-11.0,0,0.3209998607635498,10.026484179412043,0.3432961403802845,10.14320502947663,0.37202104779165385,10.042723734127113,8.536685539481937
1776724174.995,-1.8818,-2.2841,9.493,-0.2358,-0.1372,0.1452,-3.0,-11.7,81.75,-2.0016,-2.5426,9.6391,-0.2435,-0.1737,0.1577,-22.65,-16.35,49.2,1.76,2.22,9.56,8.25,7.1875,3.875,37.25,-21.1875,-55.1875,251.94,11.5,-11.0,0,0.33099985122680664,9.943607647629708,0.30904452753608175,10.16776603438533,0.338131971277488,9.970937769337446,11.607681992973447
1776724175.001,-1.7214,-2.4086,9.335,-0.2358,-0.1372,0.1452,-3.0,-11.7,81.75,-2.0016,-2.5426,9.6391,-0.2435,-0.1737,0.1577,-23.1,-18.0,48.0,1.79,2.38,9.46,14.3125,7.5,6.1875,36.875,-20.0,-55.0625,251.88,11.44,-11.12,0,0.33699989318847656,9.793201566392883,0.30904452753608175,10.16776603438533,0.338131971277488,9.917666056083963,17.302682234266456
1776724175.008,-1.7214,-2.4086,9.335,-0.1108,-0.1519,0.1316,-1.2,-10.95,81.0,-1.9178,-2.5977,9.4332,-0.1164,-0.1929,0.1378,-23.1,-18.0,48.0,1.79,2.38,9.46,14.3125,7.5,6.1875,36.875,-20.0,-55.0625,251.75,11.38,-11.25,0,0.34399986267089844,9.793201566392883,0.22949686272365466,9.97051976428511,0.26409886406419847,9.917666056083963,17.302682234266456
1776724175.014,-1.8986,-2.4995,9.165,0.049,-0.1588,0.1343,-1.2,-10.95,81.0,-2.1213,-2.5618,9.1722,0.0469,-0.1935,0.1479,-23.1,-18.0,48.0,1.66,2.32,9.36,15.8125,8.875,8.3125,36.875,-20.0,-55.0625,251.62,11.31,-11.38,0,0.34999990463256836,9.687590371707506,0.21367014297744083,9.756638036229488,0.24802473666955077,9.785070260350714,19.947391746792363
1776724175.025,-2.1476,-2.4565,8.9088,0.2049,-0.1532,0.1511,-0.9,-10.65,81.3,-2.332,-2.4948,8.8394,0.2017,-0.1889,0.1687,-22.65,-16.35,48.75,1.64,2.42,9.28,11.6875,10.375,8.25,36.875,-20.0,-55.0625,251.56,11.19,-11.38,0,0.36100006103515625,9.487533686369709,0.29712869265690245,9.476140743994888,0.32376811146250956,9.729563196773018,17.67203387417532
1776724175.035,-2.2051,-2.3439,8.5186,0.3395,-0.1721,0.154,-3.0,-12.45,81.75,-2.399,-2.4181,8.6048,0.3283,-0.2086,0.1756,-22.65,-16.35,48.75,1.94,2.58,8.96,3.25,11.0,7.6875,36.875,-20.0,-55.0625,251.44,11.12,-11.31,0,0.3710000514984131,9.106200040631656,0.41060280076979505,9.254457933882458,0.426767161342107,9.52373876164188,13.807974371717236
1776724175.045,-2.2793,-2.2769,8.1116,0.497,-0.2385,0.1612,-2.4,-10.05,81.45,-2.3918,-2.3727,8.2863,0.4834,-0.2707,0.1788,-21.75,-14.25,50.1,2.04,2.43,8.7,-6.75,11.1875,8.1875,36.875,-20.0,-55.0625,251.44,11.12,-11.31,0,0.3810000419616699,8.72797437324377,0.574348927046965,8.945008676351298,0.5821713579351014,9.260480549085992,15.419397280698101
1776724175.052,-2.3535,-2.2266,7.7716,0.497,-0.2385,0.1612,-2.4,-10.05,81.45,-2.5402,-2.2314,8.1475,0.6403,-0.3837,0.2014,-23.4,-13.65,49.2,2.08,2.34,8.3,-15.6875,11.25,9.0,36.875,-21.1875,-54.6875,251.38,11.0,-11.12,0,0.3880000114440918,8.419885769415165,0.574348927046965,8.821197098466852,0.7731569957000971,8.870851142928734,21.299299430967206
1776724175.058,-2.3559,-2.1021,7.604,0.6539,-0.3467,0.1761,-0.9,-12.15,81.0,-2.5402,-2.2314,8.1475,0.6403,-0.3837,0.2014,-23.4,-13.65,49.2,2.08,2.34,8.3,-15.6875,11.25,9.0,36.875,-21.1875,-54.6875,251.31,10.88,-10.88,0,0.3940000534057617,8.233462529215762,0.7607872961610229,8.821197098466852,0.7731569957000971,8.870851142928734,21.299299430967206
1776724175.065,-2.3559,-2.1021,7.604,0.7512,-0.4727,0.2161,-1.35,-10.8,81.15,-2.5666,-2.0183,7.9511,0.7338,-0.5076,0.2433,-22.5,-14.55,48.3,2.2,2.31,7.52,-24.25,13.125,9.3125,36.875,-21.1875,-54.6875,251.25,10.75,-10.5,0,0.4010000228881836,8.233462529215762,0.9134801256732409,8.595403519323568,0.9248324659093667,8.168629015936517,29.10413684083416
1776724175.075,-2.2553,-1.9465,7.5346,0.8423,-0.6102,0.2787,-1.35,-10.8,81.15,-2.308,-1.7526,8.011,0.825,-0.6483,0.3035,-21.75,-13.8,48.6,2.3,2.26,7.34,-33.875,18.375,9.75,36.875,-21.1875,-54.6875,251.12,10.5,-10.06,0,0.41100001335144043,8.102187204699728,1.076794790106267,8.519072235871695,1.0922591908516952,8.017056816563047,39.75196536021836
1776724175.085,-1.98,-1.6305,7.5489,0.9611,-0.7663,0.3198,-0.3,-10.5,79.8,-2.0949,-1.4844,8.4013,0.9395,-0.8031,0.3421,-22.35,-14.85,49.5,2.2,2.16,7.21,-42.0625,25.25,11.3125,36.875,-21.1875,-54.6875,251.0,10.25,-9.56,0,0.42100000381469727,7.972754947946162,1.2701184747888679,8.784867162342298,1.2824438662179332,7.841536839166159,50.34668869449112
1776724175.095,-1.8747,-1.312,8.3462,0.8314,-0.9273,0.3557,-0.9,-7.95,81.3,-2.2769,-1.2474,9.0429,0.8124,-0.9622,0.3749,-21.9,-12.9,47.7,1.99,1.98,7.16,-47.5,33.0625,14.4375,36.875,-21.1875,-54.6875,251.0,10.25,-9.56,0,0.4309999942779541,8.654183874288782,1.2952350134242048,9.408204971194026,1.3139149934451622,7.69065016757361,59.647466941187034
1776724175.101,-2.1237,-0.8715,9.007,0.5572,-1.0102,0.368,-0.9,-7.95,81.3,-2.1955,-0.7901,9.2775,0.5409,-1.0429,0.3925,-21.9,-12.9,47.7,1.73,1.43,7.87,-54.375,42.3125,17.6875,36.5,-21.0625,-55.5,250.88,9.88,-9.0,0,0.437000036239624,9.294926731287342,1.2109499907097734,9.566424855190157,1.2386563163363757,8.183807182479313,71.13252376726135
1776724175.108,-1.7861,-0.5507,9.3158,0.5572,-1.0102,0.368,-2.7,-7.95,80.25,-2.1955,-0.7901,9.2775,0.5409,-1.0429,0.3925,-21.9,-12.9,47.7,1.73,1.43,7.87,-54.375,42.3125,17.6875,36.5,-21.0625,-55.5,250.88,9.88,-9.0,0,0.4440000057220459,9.501450065121638,1.2109499907097734,9.566424855190157,1.2386563163363757,8.183807182479313,71.13252376726135
1776724175.114,-1.7861,-0.5507,9.3158,0.2971,-1.0096,0.3672,-1.95,-8.7,79.5,-1.8268,-0.5818,9.3877,0.2811,-1.0453,0.3856,-21.9,-15.15,48.45,1.94,1.02,8.61,-53.75,52.1875,19.9375,36.5,-21.0625,-55.5,250.44,8.88,-8.0,0,0.4500000476837158,9.501450065121638,1.114628373046371,9.581471743422302,1.1490677351662084,8.884599034283989,77.52484480797108
1776724175.125,-1.4317,-0.2586,9.5241,-0.0642,-0.8676,0.312,-1.95,-8.7,79.5,1.8435,3.9169,13.3118,-0.0288,-0.9257,0.328,-21.9,-15.15,48.45,1.75,0.63,9.08,-41.0625,59.5625,21.375,36.5,-21.0625,-55.5,250.19,8.31,-7.75,0,0.4609999656677246,9.634579371202461,0.9242269201878941,13.99802189953995,0.9825140864130142,9.268538180317325,75.43680094953656
1776724175.135,-3.9792,-1.664,10.1394,-0.3565,-0.1055,0.1127,-1.95,-8.7,79.5,-2.7509,0.0694,9.9934,-0.3744,-0.1258,0.1215,-21.75,-13.5,48.6,-0.62,-2.37,13.59,-24.1875,61.4375,21.4375,36.5,-21.0625,-55.5,250.0,7.81,-7.69,0,0.47099995613098145,11.018636984672833,0.3884891118165347,10.365341804783863,0.4132351025747934,13.80903327536001,69.42022737466365
1776724175.145,0.6393,0.5315,13.0819,0.0528,0.0474,-0.0011,-1.95,-9.15,78.45,-2.2601,-0.4501,12.5313,0.0706,-0.0013,0.0205,-21.75,-13.5,47.55,-5.81,-2.57,19.86,-2.25,54.5,19.5,36.5,-21.0625,-55.5,250.0,7.81,-7.69,0,0.4809999465942383,13.108291435194749,0.07096344129197794,12.741433267493889,0.07352754585867802,20.851393238822197,57.927217264425884
1776724175.152,0.6393,0.5315,13.0819,-0.0919,0.4466,-0.1412,-2.25,-9.45,79.95,1.2258,0.2705,10.8793,-0.1244,0.4181,-0.1223,-21.75,-11.85,47.85,4.66,1.87,9.2,28.6875,16.75,9.5,36.875,-19.875,-53.0,249.88,7.62,-7.94,0,0.48799991607666016,13.108291435194749,0.4773202384144213,10.951480465215651,0.45303450199736445,10.481054336277433,34.551196162361734
1776724175.158,-1.2665,0.5411,9.3996,0.3669,0.4378,-0.3064,-2.25,-9.45,79.95,-2.3439,-0.6847,9.6654,0.3531,0.4,-0.2809,-21.75,-11.85,47.85,4.66,1.87,9.2,28.6875,16.75,9.5,36.875,-19.875,-53.0,249.81,7.62,-7.94,0,0.4939999580383301,9.499962716768945,0.6482016738639295,9.969084133459804,0.6029796182293395,10.481054336277433,34.551196162361734
1776724175.165,-3.0598,-1.2546,9.4188,0.3669,0.4378,-0.3064,-1.8,-7.5,78.0,-2.3439,-0.6847,9.6654,0.3531,0.4,-0.2809,-21.75,-12.6,48.6,1.11,0.17,16.06,2.8125,1.125,2.25,36.875,-19.875,-53.0,249.94,7.81,-8.0,0,0.500999927520752,9.982494209364711,0.6482016738639295,9.969084133459804,0.6029796182293395,16.099211160799154,3.773364712030895
1776724175.175,-2.1907,-1.5514,8.1499,0.3595,0.4151,-0.3994,-1.5,-8.7,79.5,-3.292,-1.415,9.2249,0.3528,0.3861,-0.3762,-20.1,-12.9,46.95,1.42,-0.37,9.18,4.6875,-18.75,-5.5625,36.875,-19.875,-53.0,250.06,8.0,-7.88,0,0.5109999179840088,8.580610611139514,0.6790203384288279,9.896376559630298,0.6442573166057177,9.296542367998976,20.111602683525746
1776724175.185,-1.6855,-1.6688,5.7126,0.2507,0.2856,-0.3936,-1.5,-8.7,79.5,0.1221,-0.4381,6.7564,0.2395,0.2651,-0.3808,-20.25,-10.65,48.3,2.86,0.84,9.33,-16.375,-24.125,-15.3125,36.875,-19.875,-53.0,250.31,8.19,-7.69,0,0.5209999084472656,6.185434701781275,0.5471186434403419,6.771689669499039,0.5221560111690758,9.794595448511387,32.933704714926925
1776724175.195,-1.3431,-0.8523,7.5848,0.5095,-0.0059,-0.3421,-2.7,-8.4,80.25,-2.5091,-1.0415,8.8322,0.5971,-0.2856,-0.2995,-20.25,-10.65,48.3,3.3,1.81,7.83,-22.75,-22.75,-21.9375,36.875,-19.875,-53.0,250.31,8.19,-7.69,0,0.5309998989105225,7.749807993750555,0.6137242621894624,9.240566102788291,0.7264957123066866,8.687634891039103,38.94071014054572
1776724175.202,-1.3431,-0.8523,7.5848,0.599,-0.2635,-0.3176,-1.2,-7.2,79.5,-2.5091,-1.0415,8.8322,0.5971,-0.2856,-0.2995,-21.45,-12.3,47.1,0.08,0.77,5.18,-17.8125,-16.25,-23.1875,37.5625,-19.875,-51.0,250.56,8.31,-7.56,0,0.5379998683929443,7.749807993750555,0.7273946727877515,9.240566102788291,0.7264957123066866,5.237528042884352,33.451574140838275
1776724175.208,-3.1699,-1.4389,9.493,0.392,-0.3328,-0.3099,-1.2,-7.2,79.5,-3.0598,-1.6831,9.5553,0.3872,-0.3555,-0.2899,-21.45,-12.3,47.1,0.08,0.77,5.18,-17.8125,-16.25,-23.1875,37.5625,-19.875,-51.0,250.81,8.31,-7.31,0,0.5439999103546143,10.111169478354125,0.600381420432045,10.173443848569669,0.6002883473798238,5.237528042884352,33.451574140838275
1776724175.215,-2.1332,-1.5706,8.7867,0.392,-0.3328,-0.3099,-1.8,-7.5,79.35,-2.3439,-1.4198,9.3565,0.4463,-0.4554,-0.231,-21.15,-10.5,48.75,1.49,0.96,7.51,-26.9375,-1.125,-20.625,37.5625,-19.875,-51.0,251.0,8.12,-7.0,0,0.5509998798370361,9.177332046406516,0.600381420432045,9.749553400028127,0.6781842301321964,7.716333326133598,33.94532598532528
1776724175.225,-2.466,-1.1803,9.2081,0.4719,-0.4349,-0.2515,-0.45,-7.65,77.4,-2.6001,-1.1756,9.3661,0.5529,-0.5217,-0.1943,-21.75,-11.1,47.55,3.1,1.45,9.27,-35.0625,15.0625,-19.125,37.5625,-19.875,-51.0,251.19,7.94,-6.75,0,0.560999870300293,9.60538232971494,0.6892603789570383,9.791138063575653,0.7846156957390031,9.881568701375302,42.68516648087483
1776724175.235,-2.2889,-1.3791,8.7508,0.5809,-0.4991,-0.2166,-1.35,-8.25,79.05,-2.4828,-1.2953,8.9615,0.6909,-0.5905,-0.1316,-19.5,-12.3,48.3,2.11,1.43,8.87,-26.3125,21.25,-18.125,37.5625,-19.875,-51.0,251.31,7.62,-6.5,0,0.5709998607635498,9.14972571501463,0.795902745315029,9.388854039764384,0.9183417773356497,9.228970690169083,38.372200630795206
1776724175.245,-2.0351,-1.0654,8.7508,0.8431,-0.6382,-0.1199,-1.35,-8.25,79.05,-2.2218,-1.1756,9.098,0.8194,-0.66,-0.0951,-21.45,-11.85,46.35,2.27,1.35,8.93,-28.3125,26.75,-15.3125,37.5625,-19.875,-51.0,251.31,7.62,-6.5,0,0.5809998512268066,9.047276375241335,1.0641864780197126,9.43885769571721,1.056437584526412,9.312373489073556,41.852512618718606
1776724175.252,-1.9776,-1.0774,9.2871,0.8431,-0.6382,-0.1199,-1.2,-6.9,78.45,-2.2218,-1.1756,9.098,0.8194,-0.66,-0.0951,-20.85,-12.0,48.75,2.15,1.6,8.53,-35.125,31.0,-12.5625,36.875,-19.6875,-52.1875,251.44,7.31,-6.19,0,0.5880000591278076,9.556250254676256,1.0641864780197126,9.43885769571721,1.056437584526412,8.941107313974035,48.50342288179258
1776724175.258,-1.9776,-1.0774,9.2871,0.8655,-0.6528,-0.1124,-1.2,-6.9,78.45,-2.0973,-1.0989,9.5002,0.8633,-0.688,-0.0911,-20.85,-12.0,48.75,2.15,1.6,8.53,-35.125,31.0,-12.5625,36.875,-19.6875,-52.1875,251.44,7.31,-6.19,0,0.5939998626708984,9.556250254676256,1.0898953390119621,9.790814498293797,1.1076687681793684,8.941107313974035,48.50342288179258
1776724175.265,-1.6855,-1.0822,9.7564,0.7373,-0.6328,-0.0834,-2.4,-7.05,78.0,-1.7741,-1.0774,9.9695,0.7416,-0.6691,-0.0666,-20.85,-12.0,48.75,1.88,1.2,8.55,-43.3125,35.625,-9.0625,36.875,-19.6875,-52.1875,251.62,6.62,-5.31,0,0.6010000705718994,9.959889961741546,0.9751936679449882,10.183278048840657,1.0010499138404638,8.836113399000718,56.80882138805557
1776724175.275,-1.1468,-0.9098,10.082,0.538,-0.6054,-0.0426,-1.35,-8.25,77.25,-1.2617,-0.9218,10.2352,0.5494,-0.6443,-0.0234,-21.0,-10.65,47.1,1.69,1.15,9.58,-50.375,39.3125,-7.3125,36.875,-19.6875,-52.1875,251.69,6.19,-4.81,0,0.6110000610351562,10.187718600354057,0.8110289267344293,10.353787769217602,0.8470598621112914,9.79566230532678,64.31629604929066
1776724175.285,-0.8523,-0.577,10.1754,0.3435,-0.5716,-0.0373,-2.1,-7.8,76.5,-0.9673,-0.5746,10.082,0.3509,-0.6035,-0.0211,-21.0,-10.65,47.1,1.33,1.2,9.9,-51.0625,40.0625,-6.625,36.875,-19.6875,-52.1875,251.75,5.81,-4.38,0,0.6210000514984131,10.227321714407932,0.6679147400679222,10.14458271443434,0.6984184061148446,10.060760408637114,65.24012137864246
1776724175.295,-0.6943,-0.2969,9.8162,0.198,-0.5252,-0.0432,-2.1,-7.8,76.5,-0.838,-0.3807,9.7636,0.2038,-0.567,-0.0258,-22.65,-10.05,47.7,0.93,1.02,10.22,-43.0,39.25,-4.5625,36.875,-19.6875,-52.1875,251.75,5.81,-4.38,0,0.6310000419616699,9.845201091902593,0.5629434074576236,9.806888469336235,0.6030663976711023,10.312793026139913,58.39844951922953
1776724175.302,-0.6488,-0.1628,9.4619,0.198,-0.5252,-0.0432,-2.1,-7.8,76.5,-0.8547,-0.328,9.4499,0.0957,-0.526,-0.0298,-20.55,-10.35,47.7,0.53,0.45,10.01,-31.0625,37.25,-2.75,36.5,-18.875,-51.375,251.81,5.44,-4.06,0,0.6380000114440918,9.485515109365437,0.5629434074576236,9.494140619350441,0.5354647794206451,10.034116802190415,48.579871410389714
1776724175.308,-0.6488,-0.1628,9.4619,0.0999,-0.4892,-0.0424,-2.1,-7.8,76.5,-0.8547,-0.328,9.4499,0.0957,-0.526,-0.0298,-20.55,-10.35,47.1,0.53,0.45,10.01,-31.0625,37.25,-2.75,36.5,-18.875,-51.375,251.81,5.12,-3.88,0,0.6440000534057617,9.485515109365437,0.5010932148812235,9.494140619350441,0.5354647794206451,10.034116802190415,48.579871410389714
1776724175.315,-0.7446,-0.1413,9.2943,0.0413,-0.4474,-0.0538,-2.25,-6.9,77.4,-0.8643,-0.3232,9.2656,0.0354,-0.4911,-0.0354,-22.65,-10.95,46.95,0.51,0.32,9.72,-19.75,34.75,-2.25,36.5,-18.875,-51.375,251.81,4.81,-3.81,0,0.6510000228881836,9.325149185937992,0.4525117567533467,9.31143469557726,0.4936451458284584,9.73862926699646,40.03357965508455
1776724175.325,-0.7302,-0.0263,9.0357,0.0053,-0.433,-0.0834,-2.7,-6.45,78.9,-0.8164,-0.2083,9.1243,-0.0019,-0.4658,-0.0648,-23.7,-11.4,46.8,0.51,0.31,9.51,-11.0625,32.5,-2.5625,36.5,-18.875,-51.375,251.88,4.5,-3.75,0,0.6610000133514404,9.065194880420387,0.4409905327781992,9.163118919887486,0.4702895810030241,9.528709251519851,34.42666571859668
1776724175.335,-0.7326,-0.2346,9.1004,-0.0093,-0.3938,-0.1154,-3.75,-7.95,77.1,-0.8116,-0.5531,9.5553,-0.0402,-0.4423,-0.0965,-22.35,-11.25,47.4,0.5,0.05,9.13,-5.625,30.0625,-2.6875,36.5,-18.875,-51.375,251.88,4.25,-3.69,0,0.6710000038146973,9.132853884739426,0.41046569893232243,9.605642730187295,0.454486061392426,9.143817583482296,30.702071387774474
1776724175.346,-0.6704,-0.565,10.0868,0.1948,-0.2763,-0.1593,-3.45,-7.2,77.7,-0.8404,-0.8547,9.8809,0.1564,-0.3323,-0.1324,-23.25,-9.9,47.1,0.56,0.12,9.12,-2.8125,27.875,-3.625,36.5,-18.875,-51.375,251.88,4.25,-3.69,0,0.681999921798706,10.124830635620528,0.37371810231777636,9.953339593322434,0.3904023693575642,9.137964762462152,28.250069137083543
1776724175.352,-0.7661,-0.8811,10.0173,0.2686,-0.1665,-0.1551,-3.45,-7.2,77.7,-0.917,-1.0175,9.8258,0.2489,-0.2182,-0.1439,-23.25,-9.9,47.1,0.36,0.5,10.33,-0.125,26.6875,-5.375,39.0625,-17.5,-48.875,251.94,4.0,-3.69,0,0.687999963760376,10.08511505685483,0.35202872041922945,9.92081351956582,0.36092888496212105,10.348357357571297,27.223682819376222
1776724175.359,-0.5004,-1.0582,10.1586,0.2686,-0.1665,-0.1551,-3.45,-8.4,77.1,-0.6321,-1.1061,10.0676,0.2867,-0.1172,-0.118,-23.25,-9.9,47.1,0.36,0.5,10.33,-0.125,26.6875,-5.375,39.0625,-17.5,-48.875,252.0,3.75,-3.69,0,0.6949999332427979,10.225817393245393,0.35202872041922945,10.147885364941802,0.3314464210094899,10.348357357571297,27.223682819376222
1776724175.365,-0.5004,-1.0582,10.1586,0.2987,-0.0661,-0.1295,-3.45,-8.4,77.1,-0.6321,-1.1061,10.0676,0.2867,-0.1172,-0.118,-23.7,-12.3,46.35,0.48,0.7,10.42,-4.8125,22.8125,-7.6875,39.0625,-17.5,-48.875,252.06,3.62,-3.56,0,0.7009999752044678,10.225817393245393,0.3322064869926534,10.147885364941802,0.3314464210094899,10.454510988085477,24.549296705812164
1776724175.375,-0.1365,-0.9888,10.3789,0.3629,0.0322,-0.0919,-3.0,-7.95,75.3,-0.2753,-0.9337,10.2735,0.3307,-0.0192,-0.0839,-23.7,-12.3,46.35,0.39,1.17,10.37,-13.75,15.8125,-9.3125,39.0625,-17.5,-48.875,252.19,3.5,-3.38,0,0.7109999656677246,10.426788714652272,0.3757377542914739,10.319514912533437,0.34171675405224133,10.44307904786706,22.930772174089558
1776724175.385,0.4884,-0.656,10.6039,0.5692,0.1362,-0.0336,-4.5,-7.2,76.65,0.4693,-0.6201,10.4148,0.498,0.0791,-0.0269,-22.95,-10.65,46.05,0.13,1.17,10.6,-17.4375,9.3125,-8.625,39.0625,-17.5,-48.875,252.25,3.44,-3.19,0,0.7209999561309814,10.635392130523444,0.5862320700882886,10.443793637371432,0.5049598201837449,10.665167602996213,21.56802465456677
1776724175.396,0.0168,0.3448,10.4267,0.6387,0.1482,-0.0397,-2.4,-7.05,75.75,0.2801,-0.103,10.4746,0.5716,0.1074,-0.029,-22.95,-11.1,44.25,-0.19,0.99,10.72,-19.9375,3.1875,-6.5,39.0625,-17.5,-48.875,252.25,3.44,-3.19,0,0.7319998741149902,10.432413055952107,0.6568691041600297,10.478850613020496,0.5823249264800537,10.76729306743343,21.211177772580193
1776724175.402,0.4022,0.3496,10.1873,0.5812,0.1199,-0.0541,-2.4,-7.05,76.2,0.0144,0.656,10.4411,0.6035,0.1055,-0.029,-22.95,-11.1,44.25,-0.26,-0.19,10.4,-27.1875,-2.5,-4.0,39.75,-17.875,-48.375,252.25,3.5,-2.94,0,0.7379999160766602,10.201228665704932,0.5958995385129947,10.461697403863296,0.6133379981706661,10.40498438249669,27.593661523074463
1776724175.408,1.5443,-0.3424,10.2544,0.5812,0.1199,-0.0541,-2.4,-7.05,76.2,0.984,0.4405,10.1658,0.7301,0.0895,0.0123,-22.35,-12.45,44.7,-0.26,-0.19,10.4,-27.1875,-2.5,-4.0,39.75,-17.875,-48.375,252.25,3.5,-2.94,0,0.7439999580383301,10.375684055039455,0.5958995385129947,10.22280714334375,0.7356680977179858,10.40498438249669,27.593661523074463
1776724175.415,1.5443,-0.3424,10.2544,0.7943,0.1364,-0.0019,-2.4,-7.05,76.2,0.984,0.4405,10.1658,0.7301,0.0895,0.0123,-22.5,-12.3,43.8,-0.38,-0.47,10.19,-35.375,-6.375,-2.4375,39.75,-17.875,-48.375,252.38,3.62,-2.25,0,0.750999927520752,10.375684055039455,0.8059286941162972,10.22280714334375,0.7356680977179858,10.207908698651257,36.02738758569652
1776724175.425,0.0215,1.0056,9.4786,0.846,0.0933,-0.0197,-1.5,-7.2,76.35,-0.3687,0.9409,9.6798,1.0008,0.0514,0.0298,-22.95,-10.65,44.85,-0.74,-0.18,10.07,-36.625,-6.0625,-2.9375,39.75,-17.875,-48.375,252.38,3.69,-1.81,0,0.7609999179840088,9.531817852330162,0.8513571401004397,9.732407746287658,1.0025620379806928,10.098757349297982,37.23940705086481
1776724175.436,-0.1293,0.5507,9.086,1.0432,0.0845,-0.0144,-3.75,-6.45,76.65,-0.0072,0.146,9.1243,1.1282,0.0392,0.0045,-23.25,-10.35,44.25,-0.7,-0.41,9.48,-39.8125,-5.0625,-2.1875,39.75,-17.875,-48.375,252.44,3.69,-1.38,0,0.7720000743865967,9.103591872442438,1.0467157446030895,9.125470855249059,1.1288897776133862,9.514646604052093,40.19265130281903
1776724175.446,-0.1532,0.3591,9.3925,1.2063,0.0818,-0.0109,-1.8,-6.3,75.15,-0.3926,0.2442,9.3326,1.3081,0.105,0.0237,-23.25,-10.35,44.25,-0.13,-0.97,9.56,-49.375,-4.6875,-1.25,39.75,-17.875,-48.375,252.44,3.69,-1.38,0,0.7820000648498535,9.40061058123354,1.2091194068411937,9.344045759733842,1.3125213522072698,9.609963579535565,49.61275825077659
1776724175.452,-0.1532,0.3591,9.3925,1.3725,0.1628,0.0005,-2.7,-6.45,75.3,-0.3926,0.2442,9.3326,1.3081,0.105,0.0237,-23.25,-10.35,44.25,0.02,-0.51,9.23,-58.5,-3.0,-0.125,40.5625,-17.375,-47.25,252.44,3.75,-0.81,0,0.7879998683929443,9.40061058123354,1.3821216806055827,9.344045759733842,1.3125213522072698,9.244100821605096,58.577005940898005
1776724175.459,-0.4429,0.2897,9.4643,1.6816,0.2787,0.0008,-2.7,-6.45,75.3,-0.565,0.1676,9.2823,1.6054,0.214,0.0352,-22.35,-9.3,45.15,0.02,-0.51,9.23,-58.5,-3.0,-0.125,40.5625,-17.375,-47.25,252.5,3.75,-0.12,0,0.7950000762939453,9.47908545113926,1.7045389083268239,9.300989627453628,1.6199827776862321,9.244100821605096,58.577005940898005
1776724175.465,-0.5219,0.5531,9.3996,1.6816,0.2787,0.0008,-2.7,-6.45,75.3,-0.6416,0.2466,9.2991,1.7869,0.3182,0.0125,-22.35,-9.3,45.15,0.01,-0.19,9.56,-68.375,-2.75,-0.9375,40.5625,-17.375,-47.25,252.5,3.81,0.56,0,0.8009998798370361,9.430311732917422,1.7045389083268239,9.324469042792732,1.815053470286757,9.561893117997084,68.43670090857682
1776724175.475,-0.7278,0.5674,9.596,1.7944,0.3856,-0.0376,-2.7,-6.45,75.3,-0.8547,0.3112,9.6606,1.6923,0.3728,-0.0743,-22.65,-9.3,43.95,0.34,-0.25,9.76,-79.0625,-5.875,-0.375,40.5625,-17.375,-47.25,252.5,3.94,1.5,0,0.810999870300293,9.640272382043985,1.83574847950366,9.703326743442169,1.7344681086719351,9.769119714692824,79.28136701804529
1776724175.485,-0.8068,0.826,9.3853,1.623,0.4149,-0.1172,-2.1,-6.75,76.5,-0.9792,0.7039,9.4715,1.3765,0.3925,-0.11,-23.25,-8.4,43.8,0.33,-0.51,9.67,-95.4375,-12.25,0.125,40.5625,-17.375,-47.25,252.56,4.12,2.5,0,0.8209998607635498,9.456059344674188,1.6792876019312475,9.547964186149843,1.4355864655255008,9.689060842001147,96.22055150148537
1776724175.496,-0.8428,0.5555,9.9096,1.2921,0.4207,-0.1474,-0.9,-5.7,74.85,-1.0822,0.6081,10.0173,1.101,0.3968,-0.1298,-21.9,-9.0,43.95,0.59,-0.64,9.63,-106.4375,-18.4375,-1.5,40.5625,-17.375,-47.25,252.56,4.12,2.5,0,0.8320000171661377,9.960876680794717,1.3668349059048792,10.093921029015435,1.177497040335983,9.669260571522521,108.03301723315886
1776724175.502,-0.8428,0.5555,9.9096,1.0501,0.4253,-0.1604,-0.9,-5.7,74.85,-1.2067,0.8763,9.8785,1.101,0.3968,-0.1298,-21.9,-9.0,43.95,0.68,-0.55,9.58,-100.25,-21.8125,-5.8125,39.5,-15.875,-47.1875,252.69,4.31,3.5,0,0.8380000591278076,9.960876680794717,1.1442544559668535,9.99043486691145,1.177497040335983,9.619838875989556,102.76007401953348
1776724175.509,-1.1229,0.9409,9.651,0.8434,0.4109,-0.1551,-1.2,-4.65,76.05,-1.2067,0.8763,9.8785,0.8817,0.3842,-0.1356,-21.0,-9.15,43.5,0.68,-0.55,9.58,-100.25,-21.8125,-5.8125,39.5,-15.875,-47.1875,252.69,4.31,3.5,0,0.8450000286102295,9.761557161641784,0.9509039804312527,9.99043486691145,0.9712836300484015,9.619838875989556,102.76007401953348
1776724175.515,-1.0127,1.0846,9.5385,0.8434,0.4109,-0.1551,-1.2,-4.65,76.05,-1.1492,1.0032,9.7612,0.7775,0.3592,-0.1458,-22.65,-8.1,42.9,0.77,-0.61,9.89,-82.0,-22.5625,-8.25,39.5,-15.875,-47.1875,252.88,4.75,4.88,0,0.8510000705718994,9.653232655437245,0.9509039804312527,9.879680982703844,0.8687856640161599,9.93866691261962,85.4466436219118
1776724175.526,-0.814,1.2378,9.6079,0.7669,0.3824,-0.1604,-0.45,-3.45,76.05,-0.9505,1.1971,9.7588,0.684,0.3435,-0.154,-19.5,-7.95,44.25,0.9,-0.81,9.58,-65.375,-22.9375,-9.25,39.5,-15.875,-47.1875,253.0,5.0,5.44,0,0.8619999885559082,9.721444710021244,0.8718334301917999,9.877787004182668,0.7807459574022783,9.65621561482551,69.89693864004346
1776724175.536,-0.8332,1.6376,9.7731,0.5468,0.3877,-0.1759,-0.6,-4.8,74.4,-0.9768,1.5107,9.8186,0.5854,0.3459,-0.1487,-19.5,-7.95,44.25,0.71,-1.17,9.53,-53.125,-22.4375,-9.4375,39.5,-15.875,-47.1875,253.06,5.19,5.88,0,0.871999979019165,9.944316950399358,0.6929951947885352,9.982046818663996,0.6960256173446492,9.627767134699509,58.4360628165519
1776724175.546,-0.9313,1.7861,9.7492,0.5071,0.4114,-0.1895,-0.6,-3.0,75.15,-1.1061,1.6089,9.7492,0.506,0.3704,-0.1604,-20.25,-8.4,43.05,0.64,-1.24,9.78,-46.5,-21.0625,-9.5625,39.5,-15.875,-47.1875,253.06,5.19,5.88,0,0.8819999694824219,9.955117957111307,0.6799342762355784,9.942782158933182,0.6472714422867736,9.87904853718211,51.935732521068765
1776724175.552,-1.5036,1.47,9.4379,0.5071,0.4114,-0.1895,-0.6,-3.0,75.15,-1.6041,1.2234,9.5289,0.5023,0.3944,-0.1929,-20.25,-8.4,43.05,0.7,-1.52,9.82,-40.1875,-19.9375,-9.9375,37.375,-14.375,-48.0,253.19,5.44,6.25,0,0.8880000114440918,9.669315868767553,0.6799342762355784,9.7401118874477,0.6671334649078847,9.961566141927683,45.94880813198532
1776724175.559,-1.5036,1.47,9.4379,0.5542,0.4322,-0.215,-0.6,-3.75,73.65,-1.6041,1.2234,9.5289,0.5023,0.3944,-0.1929,-20.85,-9.3,42.45,0.7,-1.52,9.82,-40.1875,-19.9375,-9.9375,37.375,-14.375,-48.0,253.19,5.44,6.25,0,0.8949999809265137,9.669315868767553,0.7349554272199097,9.7401118874477,0.6671334649078847,9.961566141927683,45.94880813198532
1776724175.565,-1.8723,0.7661,9.4236,0.7344,0.4154,-0.1817,-0.6,-3.75,75.75,-1.9776,0.8595,9.6007,0.6512,0.3957,-0.1775,-23.25,-9.15,41.55,0.75,-1.6,9.81,-34.3125,-20.75,-10.3125,37.375,-14.375,-48.0,253.38,5.88,6.88,0,0.9010000228881836,9.638291003077258,0.8630848220192497,9.839872077420518,0.7823977121643442,9.96787841017335,41.403596613096305
1776724175.576,-1.8124,0.7015,9.663,0.8596,0.4029,-0.1386,-0.6,-3.75,75.75,-1.968,0.6776,9.912,0.8474,0.3744,-0.1306,-20.25,-7.95,42.75,1.6,-0.76,9.4,-31.125,-22.1875,-11.375,37.375,-14.375,-48.0,253.5,6.12,7.19,0,0.9119999408721924,9.856493545374034,0.9594011309144888,10.128174058535922,0.9355845659265655,9.565437784022226,39.88033859246935
1776724175.586,-1.9465,0.5866,10.2855,0.7125,0.3477,-0.1996,1.35,-3.3,75.15,-2.15,0.3328,10.5465,0.7719,0.3379,-0.1522,-20.4,-6.9,43.2,1.71,-0.45,9.44,-34.5625,-23.25,-12.25,37.375,-14.375,-48.0,253.62,6.31,7.62,0,0.9219999313354492,10.484487210159589,0.8175522613264549,10.768561560858535,0.8562539693338653,9.604176174977216,43.41879093491665
1776724175.596,-1.9369,1.2043,10.6686,0.497,0.2513,-0.2771,-0.15,-3.45,73.8,-2.1332,0.9792,11.0397,0.5601,0.2555,-0.2382,-19.65,-7.8,42.45,1.72,-0.46,9.74,-45.0625,-22.75,-10.5,37.375,-14.375,-48.0,253.62,6.31,7.62,0,0.931999921798706,10.909672133478622,0.622049113816586,11.286467603727926,0.6600996136947818,9.901393841273057,51.560075700584456
1776724175.602,-1.7813,1.8938,10.6734,0.497,0.2513,-0.2771,-0.15,-3.45,73.8,-1.9872,1.7693,10.9295,0.4138,0.162,-0.2859,-19.65,-7.8,42.45,1.67,-1.26,10.28,-50.3125,-21.125,-8.8125,34.75,-14.0,-47.0625,253.75,6.56,8.06,0,0.937999963760376,10.985489324103867,0.622049113816586,11.24870466231557,0.5284063303935712,10.49070541002844,55.27452792652326
1776724175.609,-1.8148,1.9609,10.2352,0.3469,0.1705,-0.295,0.0,-3.0,74.7,-1.9609,2.0853,10.4579,0.1631,0.1215,-0.2539,-19.65,-7.8,42.45,1.67,-1.26,10.28,-50.3125,-21.125,-8.8125,34.75,-14.0,-47.0625,253.88,6.75,8.5,0,0.9449999332427979,10.57818258917854,0.4862456786440369,10.842567837463596,0.32531380235089935,10.49070541002844,55.27452792652326
1776724175.615,-1.8148,1.9609,10.2352,0.0578,0.1537,-0.2502,0.45,-2.4,73.8,-1.9609,2.0853,10.4579,0.1631,0.1215,-0.2539,-19.8,-7.95,42.3,1.65,-1.64,10.48,-41.375,-17.75,-12.25,34.75,-14.0,-47.0625,254.0,6.88,8.75,0,0.9509999752044678,10.57818258917854,0.29927340342903846,10.842567837463596,0.32531380235089935,10.735105961284221,46.658500029469444
1776724175.626,-1.8052,1.8866,10.058,-0.1143,0.1791,-0.1796,0.45,-3.45,74.25,-1.968,1.9704,10.0509,-0.1058,0.1362,-0.2004,-19.8,-7.95,42.3,1.6,-1.69,10.35,-29.375,-12.3125,-16.4375,34.75,-14.0,-47.0625,254.19,7.0,8.88,0,0.9619998931884766,10.391408499332513,0.278203989906687,10.429577698545613,0.2643940997828809,10.608421183192153,35.84242859377696
1776724175.636,-1.8866,1.6065,10.0748,0.0125,0.23,-0.1391,0.45,-3.45,74.25,-1.9824,1.5754,10.0533,-0.0823,0.1841,-0.1412,-20.55,-8.7,41.55,1.61,-1.68,10.11,-18.0,-8.4375,-16.75,34.75,-14.0,-47.0625,254.31,7.06,8.94,0,0.9719998836517334,10.375051655293095,0.269081883448143,10.367286810443705,0.2461778625303258,10.374324074367447,25.995266997090066
1776724175.646,-1.98,1.5275,10.0509,0.2257,0.2627,-0.1324,-0.3,-3.75,75.45,-2.375,1.6209,10.0221,0.1343,0.2254,-0.1266,-21.0,-7.5,42.0,1.63,-1.38,10.22,-1.8125,-7.8125,-13.8125,34.75,-14.0,-47.0625,254.31,7.06,8.94,0,0.9819998741149902,10.357328181534077,0.370785032060357,10.426429408958754,0.2913232053922241,10.440771044324265,15.972021435936028
1776724175.652,-2.15,1.5874,9.7779,0.2864,0.2425,-0.0938,-0.3,-3.75,75.45,-2.375,1.6209,10.0221,0.2707,0.2268,-0.0999,-21.0,-7.5,42.0,1.71,-1.48,10.16,4.4375,-9.75,-10.125,33.25,-12.6875,-47.0,254.44,7.19,8.88,0,0.9879999160766602,10.136551049050166,0.38681991934232135,10.426429408958754,0.367010544807639,10.408655052407108,14.740065510370027
1776724175.659,-2.1189,1.5897,9.4786,0.2864,0.2425,-0.0938,0.15,-3.15,75.6,-2.296,1.6544,9.8162,0.2694,0.1844,-0.0541,-20.85,-7.35,43.2,1.71,-1.48,10.16,4.4375,-9.75,-10.125,33.25,-12.6875,-47.0,254.44,7.19,8.88,0,0.994999885559082,9.841785471142927,0.38681991934232135,10.215989320667871,0.3309177088038656,10.408655052407108,14.740065510370027
1776724175.666,-2.1189,1.5897,9.4786,0.2843,0.1796,-0.0501,1.2,-3.15,75.6,-2.2601,1.5778,9.7875,0.2649,0.1007,-0.0152,-20.25,-7.5,43.5,1.85,-1.42,9.98,-5.25,-12.5,-8.375,33.25,-12.6875,-47.0,254.56,7.44,9.06,0,1.001999855041504,9.841785471142927,0.3399892057110049,10.16821818707683,0.2838019379778792,10.24886823019986,15.9359067831109
1776724175.676,-2.0614,1.6664,9.4739,0.2707,0.105,-0.0229,1.05,-3.3,75.75,-2.0542,1.3695,9.7683,0.2451,0.0429,0.0021,-20.55,-6.45,43.8,1.94,-1.31,9.34,-15.3125,-13.5,-7.25,33.25,-12.6875,-47.0,254.62,7.56,9.19,0,1.0120000839233398,9.837735518400564,0.29125229612828807,10.075462906487225,0.24883494529506905,9.62887843936146,21.662990473385708
1776724175.686,-1.7909,1.4844,9.5481,0.2361,0.0621,-0.0133,1.05,-3.3,75.75,-1.8124,1.3024,9.9814,0.2057,0.0434,-0.0053,-20.1,-6.9,42.9,1.97,-1.4,9.27,-17.75,-11.4375,-4.625,33.25,-12.6875,-47.0,254.62,7.62,9.38,0,1.0220000743865967,9.827358738745625,0.24449235161861402,10.227872969488818,0.2102953637149426,9.579864299665209,21.616418094818577
1776724175.696,-1.5347,1.7909,10.24,0.194,0.1029,-0.0269,1.2,-2.4,77.1,-1.7119,1.5371,10.0173,0.0994,0.1346,-0.0288,-20.1,-6.9,42.9,1.78,-1.39,9.36,-17.25,-7.1875,-2.1875,33.25,-12.6875,-47.0,254.62,7.62,9.38,0,1.0320000648498535,10.50810291632129,0.22124199420544013,10.27811156341475,0.1697850405660051,9.628608414511413,18.815095335926415
1776724175.703,-1.5347,1.7909,10.24,0.0336,0.2204,-0.053,1.05,-1.05,75.75,-1.7119,1.5371,10.0173,0.0994,0.1346,-0.0288,-20.1,-6.9,42.9,1.43,-1.38,10.3,-16.0625,-3.25,-1.0,33.6875,-13.0,-47.6875,254.62,7.69,9.5,0,1.0390000343322754,10.50810291632129,0.22915959504240707,10.27811156341475,0.1697850405660051,10.489961868376835,16.418477586244105
1776724175.709,-1.6688,1.8483,10.1873,0.0336,0.2204,-0.053,1.05,-1.05,75.75,-1.7909,1.64,9.8809,-0.0642,0.2734,-0.0674,-21.15,-7.8,42.15,1.43,-1.38,10.3,-16.0625,-3.25,-1.0,33.6875,-13.0,-47.6875,254.69,7.69,9.69,0,1.0450000762939453,10.487239275424205,0.22915959504240707,10.174925435599025,0.2888112878680471,10.489961868376835,16.418477586244105
1776724175.716,-1.4485,1.6999,9.7899,-0.097,0.3717,-0.093,0.9,-2.4,76.65,-1.6305,1.4844,9.6127,-0.1383,0.4138,-0.1106,-21.15,-7.8,42.15,1.36,-1.68,10.57,-13.75,-2.8125,-1.1875,33.6875,-13.0,-47.6875,254.69,7.75,9.75,0,1.0520000457763672,10.041411965953792,0.3952453541788948,9.862351387980455,0.45009964452329887,10.788739500052822,14.084843360861349
1776724175.726,-1.7023,1.4126,9.5696,-0.1274,0.4868,-0.1402,0.6,-2.25,77.25,-1.8507,1.2354,9.596,-0.1572,0.5015,-0.1633,-19.5,-6.0,43.05,1.38,-1.78,10.55,-7.875,-7.375,-2.1875,33.6875,-13.0,-47.6875,254.69,7.94,9.75,0,1.062000036239624,9.82194014490009,0.5223610245797441,9.850610115622281,0.5503462364730043,10.787738409879989,11.008696846130336
1776724175.736,-1.9513,1.2641,9.3278,-0.1884,0.5561,-0.1897,2.25,-0.9,74.85,-2.0734,1.1779,9.4403,-0.2694,0.5377,-0.2009,-21.15,-5.85,43.95,1.32,-1.7,10.27,1.25,-15.6875,-4.125,33.6875,-13.0,-47.6875,254.75,8.19,9.69,0,1.0720000267028809,9.613187470345098,0.6170314902823032,9.736821866502439,0.6340807992677274,10.493107261435956,16.26885924857671
1776724175.746,-2.1093,1.6783,9.2584,-0.3014,0.5702,-0.1958,2.25,-0.9,74.85,-2.1883,1.6592,9.402,-0.3038,0.5415,-0.178,-20.1,-6.6,43.65,1.54,-1.37,9.61,6.0,-24.0625,-7.0,33.6875,-13.0,-47.6875,254.75,8.19,9.69,0,1.0820000171661377,9.642811205245076,0.6740234714014046,9.794856075001816,0.6459107446079527,9.828560423581878,25.76827324928855
1776724175.752,-2.1093,1.6783,9.2584,-0.2798,0.5665,-0.1681,1.35,-1.8,75.75,-2.0734,2.0255,9.5744,-0.2502,0.5295,-0.1247,-20.1,-6.6,43.65,1.75,-1.15,9.34,8.4375,-29.375,-9.9375,32.375,-11.75,-47.25,254.81,8.5,9.56,0,1.0880000591278076,9.642811205245076,0.6538102935867559,10.00353803261626,0.5987657137812753,9.571865022032018,32.13776497362566
1776724175.759,-1.8148,1.9489,9.4715,-0.1679,0.5614,-0.0791,1.35,-1.8,75.75,-2.0734,2.0255,9.5744,-0.2502,0.5295,-0.1247,-20.4,-6.15,43.65,1.75,-1.15,9.34,8.4375,-29.375,-9.9375,32.375,-11.75,-47.25,254.81,8.5,9.56,0,1.0950000286102295,9.838751064032468,0.5912843478395146,10.00353803261626,0.5987657137812753,9.571865022032018,32.13776497362566
1776724175.766,-1.5634,2.217,9.5146,-0.1679,0.5614,-0.0791,2.4,-1.8,76.5,-1.8579,2.2865,9.6103,-0.1082,0.5353,-0.0352,-20.4,-6.15,43.65,1.84,-1.38,9.32,14.375,-31.625,-11.625,32.375,-11.75,-47.25,255.0,9.12,9.25,0,1.1019999980926514,9.893781972532041,0.5912843478395146,10.051753118237635,0.5472589606392937,9.599604158505704,36.63225184178554
1776724175.776,-1.2306,2.8323,9.0261,-0.105,0.5646,-0.0037,1.5,-1.65,76.65,-1.3024,2.8994,9.4858,-0.1687,0.5215,0.0298,-20.55,-6.45,43.8,1.68,-1.86,9.51,16.25,-31.5625,-10.6875,32.375,-11.75,-47.25,255.0,9.44,9.12,0,1.1119999885559082,9.539747421184693,0.5742924777497961,10.004157523749813,0.5489170975657435,9.834739447489191,37.07393373382436
1776724175.786,-1.3096,1.7669,9.2656,-0.263,0.5263,0.0456,1.8,-0.75,76.5,-1.4389,1.6328,9.5409,-0.3384,0.4807,0.0674,-20.55,-6.0,45.3,1.29,-1.94,9.44,11.875,-31.375,-6.875,32.375,-11.75,-47.25,255.0,9.75,9.06,0,1.121999979019165,9.52304211531168,0.5901186745053913,9.78597168706307,0.5917176776132347,9.723235058353778,34.24429697044458
1776724175.796,-1.7238,0.984,8.928,-0.3928,0.4914,0.0541,2.7,-1.65,78.15,-1.8771,0.8308,9.3518,-0.4519,0.4266,0.0256,-19.8,-6.0,46.35,1.12,-2.33,9.03,5.8125,-31.6875,-1.75,32.375,-11.75,-47.25,255.0,9.75,9.06,0,1.1319999694824219,9.145978703233462,0.6314211035434276,9.574439737655672,0.6219779176144439,9.39277381820727,32.263684112326665
1776724175.803,-2.059,0.4166,9.1219,-0.4647,0.4122,-0.0085,2.7,-1.65,78.15,-2.1548,0.2035,9.3398,-0.4762,0.3389,-0.0432,-19.8,-6.0,46.35,1.39,-1.26,8.85,11.25,-30.25,2.0,31.375,-12.0625,-48.75,254.94,10.0,9.0,0,1.1389999389648438,9.360667506647161,0.6212303759476029,9.587306156058645,0.5860766929336125,9.046667894866042,32.33612530901004
1776724175.809,-2.059,0.4166,9.1219,-0.4487,0.3264,-0.0703,2.7,-1.65,78.15,-2.1548,0.2035,9.3398,-0.4762,0.3389,-0.0432,-19.8,-6.0,46.35,1.39,-1.26,8.85,11.25,-30.25,2.0,31.375,-12.0625,-48.75,254.94,10.0,9.0,0,1.1449999809265137,9.360667506647161,0.5592948596223641,9.587306156058645,0.5860766929336125,9.046667894866042,32.33612530901004
1776724175.816,-1.798,0.1149,9.0597,-0.4487,0.3264,-0.0703,1.95,-0.45,77.7,-2.1811,0.0551,9.4332,-0.4407,0.2534,-0.0837,-19.8,-6.0,46.35,1.79,-0.82,8.7,20.375,-27.8125,3.1875,31.375,-12.0625,-48.75,254.81,10.5,8.56,0,1.1519999504089355,9.237108319165689,0.5592948596223641,9.682225749278933,0.5152026203349513,8.920005605379405,34.624210279802774
1776724175.826,-1.8723,0.6752,9.3613,-0.1711,0.1668,-0.045,1.5,-1.65,78.45,-1.9417,0.5531,9.584,-0.2899,0.174,-0.0544,-18.9,-7.35,43.95,1.94,-0.43,8.85,25.75,-23.9375,0.3125,31.375,-12.0625,-48.75,254.81,10.69,8.31,0,1.1619999408721924,9.570545440046768,0.2431510847189459,9.794344005598333,0.34245783682082676,9.070336267195389,35.15912488245406
1776724175.836,-1.798,1.2785,9.4667,0.025,0.1223,-0.0037,3.0,-0.9,77.7,-2.0255,1.0798,9.7037,-0.0695,0.1188,-0.02,-20.4,-5.85,45.45,1.7,-0.04,8.86,25.875,-18.375,-3.3125,31.375,-12.0625,-48.75,254.81,10.81,8.12,0,1.1719999313354492,9.720379372226168,0.12488386605162415,9.971479929278301,0.13908159475645943,9.021707155522174,31.908132290217175
1776724175.846,-2.6552,0.0838,9.8306,0.222,0.1098,0.0642,2.85,-1.8,79.35,-2.4445,0.5626,9.809,0.0698,0.0885,0.0155,-20.85,-7.35,45.45,1.62,-0.86,9.31,21.5,-13.0625,-4.625,31.375,-12.0625,-48.75,254.81,10.81,8.12,0,1.181999921798706,10.183211960869714,0.25585480257364723,10.12465209328202,0.11377407437549206,9.488946200711647,25.578692915197994
1776724175.853,-2.1117,0.9792,9.8809,0.222,0.1098,0.0642,2.85,-1.8,79.35,-2.4541,0.8068,10.1083,0.3142,0.0743,0.1108,-18.75,-6.45,46.05,1.72,-0.95,9.42,10.5625,-8.9375,-2.9375,30.5625,-11.0,-49.5625,254.88,10.94,8.0,0,1.188999891281128,10.151369086975413,0.25585480257364723,10.43318081603113,0.34134845832374866,9.622749087448971,14.144759409406722
1776724175.859,-2.1117,0.9792,9.8809,0.4311,0.1079,0.1183,2.85,-1.8,79.35,-1.6616,1.3384,9.5577,0.51,0.0799,0.145,-18.75,-6.45,46.05,1.72,-0.95,9.42,10.5625,-8.9375,-2.9375,30.5625,-11.0,-49.5625,254.88,11.0,8.0,0,1.1949999332427979,10.151369086975413,0.45987445025789375,9.792949423437253,0.5361986665406769,9.622749087448971,14.144759409406722
1776724175.866,-1.4269,1.3024,9.4763,0.6848,0.1186,0.1348,2.85,-1.8,79.35,-1.6616,1.3384,9.5577,0.51,0.0799,0.145,-18.75,-6.45,46.05,2.51,0.19,9.8,-0.875,-6.125,-0.625,30.5625,-11.0,-49.5625,254.81,11.0,8.12,0,1.2019999027252197,9.67122283167956,0.7079463538997852,9.792949423437253,0.5361986665406769,10.118112472195593,6.218671481916375
1776724175.876,-2.0063,1.9968,9.177,1.1218,0.0442,0.0775,1.35,-0.75,79.8,-2.1093,1.7765,9.414,0.8681,0.0586,0.146,-19.35,-5.85,46.2,1.27,-1.28,9.57,-12.625,-4.9375,3.0625,30.5625,-11.0,-49.5625,254.81,11.06,8.38,0,1.2119998931884766,9.603633631600072,1.125342227946681,9.809612364410736,0.8822400863710512,9.738387956946468,13.897785345154817
1776724175.886,-1.9992,1.7454,9.007,1.3784,-0.0815,0.033,2.7,-1.65,78.45,-1.7909,1.5969,9.2177,1.25,-0.0397,0.0847,-19.35,-5.85,46.2,1.45,-1.63,9.15,-26.25,-4.625,6.5,30.5625,-11.0,-49.5625,254.75,11.06,8.81,0,1.2219998836517334,9.389849349164233,1.381201581956812,9.52488350112483,1.253495185471408,9.406481807774892,27.43543557153777
1776724175.897,-1.6137,1.719,8.667,1.5084,-0.2332,0.0362,2.4,0.75,79.35,-1.731,1.5131,8.8442,1.558,-0.3379,0.0829,-18.0,-5.25,46.35,1.84,-1.96,8.92,-42.9375,-4.125,7.5625,30.5625,-11.0,-49.5625,254.75,11.06,8.81,0,1.2330000400543213,8.98197515527626,1.5267492393972233,9.13814566802259,1.5963748995771638,9.316308281717603,43.79310376646077
1776724175.903,-1.5299,1.6281,8.3629,1.6137,-0.3922,0.0709,2.1,0.3,78.6,-1.731,1.5131,8.8442,1.558,-0.3379,0.0829,-18.75,-4.5,45.3,1.42,-1.54,8.31,-67.125,-0.125,4.75,29.875,-10.5625,-51.5625,254.75,11.06,9.5,0,1.2390000820159912,8.656176986984496,1.6621899229630768,9.13814566802259,1.5963748995771638,8.569953325427159,67.29296954363063
1776724175.909,-1.257,1.4796,8.6215,1.6137,-0.3922,0.0709,2.1,0.3,78.6,-1.0439,1.4078,8.9423,1.6169,-0.4866,0.1228,-19.05,-3.3,46.8,1.42,-1.54,8.31,-67.125,-0.125,4.75,29.875,-10.5625,-51.5625,254.81,11.0,10.31,0,1.244999885559082,8.83739370006791,1.6621899229630768,9.112428728939392,1.6929929149290615,8.569953325427159,67.29296954363063
1776724175.916,-1.257,1.4796,8.6215,1.6683,-0.5217,0.1079,2.1,0.3,78.6,-1.5467,1.6185,9.0621,1.5926,-0.6059,0.1476,-19.05,-3.3,46.8,1.38,-1.35,8.04,-82.875,7.5625,2.0625,29.875,-10.5625,-51.5625,254.94,10.81,11.19,0,1.251999855041504,8.83739370006791,1.7512961457160805,9.334531565643774,1.7103436292160707,8.268524656793375,83.24488535339573
1776724175.926,-1.245,1.8052,8.8969,1.4642,-0.6099,0.1138,3.0,1.2,78.15,-1.4341,1.6544,9.1099,1.388,-0.6664,0.1583,-20.85,-3.45,46.95,0.86,-1.39,8.08,-91.3125,17.0,2.3125,29.875,-10.5625,-51.5625,255.0,10.56,12.12,0,1.2620000839233398,9.163165481971827,1.5902232830643626,9.3693094825606,1.5478022645028013,8.24367029908402,92.91028098386099
1776724175.936,-1.3216,1.5251,8.6933,1.4533,-0.659,0.17,2.85,2.55,78.3,-1.5778,1.9345,8.4348,1.5516,-0.7277,0.2342,-18.9,-3.9,45.15,1.18,-1.37,8.31,-97.125,26.25,4.4375,29.875,-10.5625,-51.5625,255.06,10.25,13.06,0,1.2720000743865967,8.924461970337484,1.6047622534194903,8.796453497290825,1.7296992484244191,8.504434137554362,100.70759420843098
1776724175.947,-1.415,2.1261,7.9344,1.797,-0.7349,0.2214,1.2,1.2,77.7,-1.8196,2.4588,7.7788,1.9614,-0.8204,0.2502,-19.65,-2.7,46.2,1.04,-1.29,8.6,-96.875,33.625,6.125,29.875,-10.5625,-51.5625,255.06,10.25,13.06,0,1.2829999923706055,8.335300208750732,1.954048354058824,8.358610592676273,2.140734957905812,8.758179034479713,102.72741540114791
1776724175.953,-1.7717,2.7988,6.6942,2.3302,-0.9222,0.348,1.05,3.0,78.6,-1.8196,2.4588,7.7788,1.9614,-0.8204,0.2502,-19.65,-2.7,46.2,1.19,-1.62,7.94,-87.25,38.375,7.1875,28.375,-9.0625,-50.75,255.12,9.88,13.88,0,1.2890000343322754,7.468903264201512,2.530096614756045,8.358610592676273,2.140734957905812,8.19048838592669,95.58694095560334
1776724175.959,-1.2881,-0.8164,5.9448,2.3302,-0.9222,0.348,2.25,3.15,78.9,-1.7526,-0.6105,6.6702,2.3731,-1.0621,0.6734,-20.55,-0.45,46.05,1.19,-1.62,7.94,-87.25,38.375,7.1875,28.375,-9.0625,-50.75,255.12,9.88,13.88,0,1.2950000762939453,6.137292367974659,2.530096614756045,6.92357458615129,2.685726639105328,8.19048838592669,95.58694095560334
1776724175.966,-1.2881,-0.8164,5.9448,2.4952,-1.161,0.8079,2.25,3.15,78.9,-1.4006,0.8068,8.4108,2.3451,-1.2622,0.8945,-20.55,-0.45,46.05,1.46,-2.72,7.23,-92.0625,42.25,10.8125,28.375,-9.0625,-50.75,255.12,8.94,15.88,0,1.3020000457763672,6.137292367974659,2.868213110980424,8.564704503951086,2.8094079625429984,7.861482048570741,101.869900179101
1776724175.976,-1.5993,8.1858,10.75,1.8786,-1.3078,0.7083,2.25,3.15,78.9,-1.4892,5.5905,10.9223,1.4384,-1.4011,0.5716,-20.55,-0.45,46.05,1.01,0.68,5.8,-115.625,47.9375,12.9375,28.375,-9.0625,-50.75,255.06,8.31,17.31,0,1.312000036239624,13.60615971279185,2.3960733899444735,12.359937062137494,2.087774492132711,5.926423879541524,125.83530282675049
1776724175.987,-1.9944,5.928,11.995,1.2508,-1.3848,0.1639,1.2,3.15,77.4,-2.1979,5.1188,11.3078,1.4751,-1.3558,0.0485,-18.6,-0.75,45.9,0.81,-3.57,8.3,-141.5625,60.9375,31.125,28.375,-9.0625,-50.75,254.81,7.5,18.69,0,1.3229999542236328,13.527706396873048,1.8732418130076,12.605523340583682,2.004112247355422,9.071438695157456,157.2325854824629
1776724175.997,-1.0798,6.1938,11.9159,2.0598,-1.0898,-0.1916,1.05,4.05,114.6,-1.6328,5.2241,10.8266,2.2167,-0.9579,-0.2537,-20.85,-0.3,44.7,0.89,-8.61,10.05,-138.9375,73.375,47.125,28.375,-9.0625,-50.75,254.81,7.5,18.69,0,1.3329999446868896,13.472854162722909,2.3381938841764174,12.131468345175698,2.428105226303012,13.263736276027204,164.03745046863537
1776724176.003,-1.0798,6.1938,11.9159,2.1831,-0.6201,-0.4615,1.05,4.05,76.2,-0.7015,5.3295,10.556,2.0304,-0.4964,-0.49,-20.55,0.45,44.55,1.45,-6.35,13.25,-93.8125,77.9375,1.5625,29.1875,-6.0625,-51.5625,254.94,6.75,19.56,0,1.3389999866485596,13.472854162722909,2.3159084329912525,11.845877278614699,2.1468668146859975,14.764399750751807,121.97327768306467
1776724176.009,-0.4812,5.9759,11.6191,1.8327,-0.1751,-0.6227,0.9,4.95,77.4,-0.7015,5.3295,10.556,2.0304,-0.4964,-0.49,-21.45,0.9,44.55,1.45,-6.35,13.25,-93.8125,77.9375,1.5625,29.1875,-6.0625,-51.5625,254.94,6.75,19.56,0,1.3450000286102295,13.07464795166585,1.943503174682254,11.845877278614699,2.1468668146859975,14.764399750751807,121.97327768306467
1776724176.016,-1.3264,7.252,11.0181,1.8327,-0.1751,-0.6227,0.9,4.95,77.4,-1.3479,6.924,10.4866,1.7549,-0.0624,-0.672,-21.45,0.9,44.55,0.67,-6.56,12.98,-93.8125,77.9375,1.5625,29.1875,-6.0625,-51.5625,255.5,5.62,21.62,0,1.3519999980926514,13.257049768707969,1.943503174682254,12.63833018915078,1.8801999281991264,14.558945703587193,121.97327768306467
1776724176.027,-0.644,4.8626,9.4906,1.7155,0.1937,-0.8884,0.9,4.95,77.4,-1.0271,4.7501,9.3254,1.7277,0.2377,-0.9025,-20.4,0.0,44.7,0.22,-6.18,12.64,-128.5,54.8125,-18.125,29.1875,-6.0625,-51.5625,255.88,5.5,22.75,0,1.3629999160766602,10.683215954009356,1.9415752625123754,10.51577241956101,1.9636585319245299,14.071616822526117,140.87290648400068
1776724176.037,-0.9625,4.4388,8.3486,1.7565,0.3283,-0.9785,1.5,5.4,77.1,-1.1013,4.6471,9.1291,1.7261,0.287,-0.9649,-20.1,1.05,44.4,0.82,-7.86,12.32,-120.5,27.0625,-31.6875,29.1875,-6.0625,-51.5625,256.44,5.81,23.75,0,1.372999906539917,9.504129294680286,2.0372862808157324,10.302857220693683,1.998204749268703,14.63674827275512,127.50186885885242
1776724176.047,-1.2378,4.4388,7.9296,1.7331,0.2286,-1.012,2.4,8.25,77.25,-1.3096,4.3598,8.7125,1.7174,0.1306,-0.9734,-20.1,1.05,44.4,0.46,-4.68,9.25,-104.4375,-13.875,-55.5,29.1875,-6.0625,-51.5625,256.44,5.81,23.75,0,1.3829998970031738,9.17134943397099,2.019910287611804,9.83008466138517,1.9783899211227296,10.37672877163126,119.07962475272585
1776724176.053,-1.2378,4.4388,7.9296,1.6699,0.0093,-0.9761,2.4,8.25,77.25,-1.549,4.3144,8.509,1.6028,-0.0991,-0.9329,-19.5,3.3,43.5,0.7,-4.29,8.01,-103.9375,-14.5625,-59.125,32.0625,-5.375,-48.0,257.06,6.19,24.69,0,1.3889999389648438,9.17134943397099,1.9342760170151518,9.665222675137908,1.8571728675597217,9.113407705134232,120.46093116649895
1776724176.059,-1.573,4.1827,7.8362,1.4962,-0.2009,-0.907,2.25,7.2,77.4,-1.9513,3.9217,8.406,1.6028,-0.0991,-0.9329,-19.5,3.3,43.5,0.7,-4.29,8.01,-103.9375,-14.5625,-59.125,32.0625,-5.375,-48.0,257.06,6.19,24.69,0,1.3949999809265137,9.020828051237869,1.761142881767405,9.47882580175414,1.8571728675597217,9.113407705134232,120.46093116649895
1776724176.066,-1.7933,3.3543,8.078,1.4962,-0.2009,-0.907,1.95,7.95,77.1,-1.9513,3.9217,8.406,1.4354,-0.288,-0.8388,-19.5,3.3,43.5,0.98,-4.16,7.49,-103.9375,-14.5625,-59.125,32.0625,-5.375,-48.0,258.25,6.88,26.56,0,1.4019999504089355,8.9286806068982,1.761142881767405,9.47882580175414,1.6872766815196611,8.62357814367099,120.46093116649895
1776724176.077,-1.8603,2.5043,8.6383,1.3307,-0.3251,-0.7557,1.95,7.95,77.1,-2.0135,3.2346,8.5449,1.2548,-0.3704,-0.6651,-20.1,3.9,44.4,1.49,-3.28,7.52,-102.0,-3.9375,-58.875,32.0625,-5.375,-48.0,258.81,6.88,27.31,0,1.4129998683929443,9.184359611317491,1.5644599675287316,9.355861019703104,1.4676774884149446,8.33839912693078,117.837895140952
1776724176.087,-1.7119,2.4397,9.1482,0.7218,-0.1911,-0.247,2.4,9.3,78.0,-1.98,2.9999,8.7843,0.9867,-0.3232,-0.4093,-19.35,4.2,44.7,1.65,-2.43,8.13,-83.125,18.9375,-48.3125,32.0625,-5.375,-48.0,259.25,6.88,27.94,0,1.4229998588562012,9.621450043522545,0.7864626183106226,9.49124472869602,1.1160473197853216,8.644321835748599,97.99230677711388
1776724176.097,-1.3072,3.3543,9.5792,0.3432,0.0304,-0.0714,2.4,9.0,77.55,-1.5969,3.5147,9.0932,0.5889,-0.1625,-0.1553,-18.9,4.95,45.45,1.64,-1.69,8.82,-70.375,21.125,-35.875,32.0625,-5.375,-48.0,259.25,6.88,27.94,0,1.432999849319458,10.233336355754169,0.35186412150146823,9.87873939022586,0.6303392340636905,9.12897036910516,81.76748666187558
1776724176.103,-1.0702,4.0773,9.4643,0.3432,0.0304,-0.0714,2.4,9.0,77.55,-1.2689,3.9217,9.0716,0.2403,0.0703,-0.0282,-17.7,4.95,44.4,1.58,-1.62,9.42,-50.5,15.5,-19.6875,31.0,-1.6875,-49.375,259.56,6.81,28.38,0,1.438999891281128,10.360631149693535,0.35186412150146823,9.96412387819421,0.25195519442948583,9.687992568122667,56.374618901150896
1776724176.11,-1.0702,4.0773,9.4643,0.1037,0.2459,-0.0288,2.85,10.5,76.95,-1.1396,4.1156,8.9926,0.0576,0.2731,-0.0226,-18.3,6.0,43.8,1.58,-1.62,9.42,-50.5,15.5,-19.6875,31.0,-1.6875,-49.375,259.56,6.81,28.38,0,1.4459998607635498,10.360631149693535,0.2684211988647693,9.955084443639842,0.28002165987651745,9.687992568122667,56.374618901150896
1776724176.117,-1.0439,4.2329,9.2727,0.0421,0.4266,-0.0506,3.15,9.75,79.05,-1.1396,4.1156,8.9926,0.0576,0.2731,-0.0226,-18.3,6.0,43.8,0.89,-3.4,10.06,-27.0625,3.375,-7.125,31.0,-1.6875,-49.375,259.62,6.94,28.75,0,1.4530000686645508,10.246469387550036,0.43164838700034547,9.955084443639842,0.28002165987651745,10.656251686216876,28.1875
1776724176.127,-1.0702,4.3072,9.1794,0.0437,0.5593,-0.0887,3.0,10.95,76.65,-1.2522,4.0199,8.8873,0.052,0.5564,-0.0935,-19.65,5.85,43.65,0.82,-4.03,9.88,-10.125,-9.875,-2.0625,31.0,-1.6875,-49.375,259.62,7.12,28.81,0,1.4630000591278076,10.196013154169624,0.567973476493401,9.834210804126583,0.5665926314381435,10.701761537242364,14.292835836530132
1776724176.137,-1.0511,4.2569,8.7819,0.1199,0.6488,-0.145,3.0,10.95,76.65,-1.2354,4.0175,8.5784,0.1476,0.6368,-0.1503,-19.65,5.85,43.65,0.81,-4.19,9.7,-3.75,-21.25,-2.875,31.0,-1.6875,-49.375,259.56,7.44,28.88,0,1.4730000495910645,9.815690318566494,0.6755312353992228,9.552772684932894,0.6707384661699373,10.597273234186236,21.769029032090522
1776724176.147,-1.0846,4.3263,8.3653,0.3,0.6944,-0.214,4.8,9.9,77.1,-1.2234,4.1013,8.3294,0.3419,0.6704,-0.2217,-18.75,7.5,44.25,0.85,-4.18,9.19,-3.75,-29.6875,-5.0,31.0,-1.6875,-49.375,259.56,7.44,28.88,0,1.4830000400543213,9.480056589493545,0.7861217208549831,9.364628855966476,0.7845270294897428,10.131682979643609,30.338262248355623
1776724176.153,-1.1875,4.276,8.2265,0.3,0.6944,-0.214,4.8,9.9,77.1,-1.2234,4.1013,8.3294,0.3419,0.6704,-0.2217,-16.65,8.1,44.4,0.84,-4.27,8.84,-7.8125,-35.5625,-8.125,30.5,1.5625,-50.375,259.56,7.75,28.94,0,1.4890000820159912,9.347172540399583,0.7861217208549831,9.364628855966476,0.7845270294897428,9.853126407389688,37.30606100220177
1776724176.16,-1.1875,4.276,8.2265,0.4663,0.7131,-0.2675,4.5,11.7,79.2,-1.3384,4.118,8.327,0.4823,0.6893,-0.2609,-18.0,7.5,42.75,0.84,-4.27,8.84,-7.8125,-35.5625,-8.125,30.5,1.5625,-50.375,259.62,8.12,29.12,0,1.496000051498413,9.347172540399583,0.8930305425907895,9.385529689900299,0.8808045129312179,9.853126407389688,37.30606100220177
1776724176.166,-1.1708,4.1348,8.3103,0.5228,0.7293,-0.259,4.35,13.05,77.55,-1.4916,4.1204,8.4611,0.5156,0.6997,-0.2409,-18.0,7.5,42.75,0.83,-4.33,8.5,-17.5,-38.8125,-12.0,30.5,1.5625,-50.375,259.69,8.56,29.38,0,1.501999855041504,9.355662978645608,0.9339589552009231,9.528524541081898,0.9019181004947179,9.575374666298964,44.234151469763724
1776724176.177,-1.2953,4.142,8.406,0.5193,0.7488,-0.2113,6.15,12.3,76.2,-1.6903,4.3,8.418,0.4924,0.7186,-0.1905,-18.15,8.55,43.2,0.93,-3.96,8.36,-27.375,-40.125,-15.3125,30.5,1.5625,-50.375,259.75,8.94,29.69,0,1.5130000114440918,9.46016924214361,0.935425902998201,9.602595383020153,0.8917028484870955,9.29710169891671,50.93013750472308
1776724176.187,-1.6568,4.4676,8.3558,0.4511,0.7701,-0.1716,5.85,11.4,77.4,-1.9058,4.6543,8.4515,0.4242,0.748,-0.1577,-15.9,8.55,42.45,1.06,-3.78,8.49,-31.625,-41.125,-15.3125,30.5,1.5625,-50.375,259.81,9.38,30.06,0,1.5230000019073486,9.618930795052016,0.9088408991677257,9.834756447416478,0.8742533557270455,9.353721184640902,54.09139401281871
1776724176.197,-1.7119,4.8794,8.2935,0.3856,0.789,-0.174,5.85,11.4,77.4,-1.913,5.1308,8.3318,0.3587,0.7722,-0.1583,-16.05,8.7,41.25,1.31,-3.96,8.51,-31.375,-42.375,-12.4375,30.5,1.5625,-50.375,259.81,9.38,30.06,0,1.5329999923706055,9.773499282242772,0.8952565889173897,9.970133844638195,0.8660354611677284,9.477225332342794,54.173080549752754
1776724176.204,-1.8028,5.4109,8.2839,0.299,0.8282,-0.1631,7.05,13.65,76.05,-1.8627,5.5761,8.3941,0.2662,0.809,-0.1482,-16.05,8.7,41.25,1.49,-4.4,8.44,-27.875,-43.625,-10.5,29.25,1.5625,-49.375,259.81,9.81,30.31,0,1.5399999618530273,10.057381660253329,0.8954986599654965,10.248095301567018,0.8644690162174699,9.633986713713073,52.82429601991871
1776724176.21,-1.7885,5.7341,8.4755,0.299,0.8282,-0.1631,7.05,13.65,76.05,-1.8627,5.5761,8.3941,0.2662,0.809,-0.1482,-16.05,8.7,41.25,1.49,-4.4,8.44,-27.875,-43.625,-10.5,29.25,1.5625,-49.375,259.81,10.25,30.56,0,1.5460000038146973,10.38810547260664,0.8954986599654965,10.248095301567018,0.8644690162174699,9.633986713713073,52.82429601991871
1776724176.217,-1.7885,5.7341,8.4755,0.2014,0.8751,-0.1639,5.7,13.5,75.15,-1.9082,5.6814,8.6215,0.1689,0.8577,-0.1569,-13.65,11.25,41.4,1.49,-5.08,8.44,-23.5,-45.125,-10.0,29.25,1.5625,-49.375,259.81,10.69,30.75,0,1.5529999732971191,10.38810547260664,0.9128116892327792,10.499990259519292,0.8881408165375578,9.962936314159595,51.8508980153671
1776724176.227,-1.6688,5.9687,8.849,0.1474,0.9459,-0.1988,8.1,15.45,75.6,-1.8675,5.6144,8.8226,0.1447,0.9321,-0.2076,-13.65,11.25,41.4,1.48,-5.43,8.56,-17.9375,-47.3125,-9.5625,29.25,1.5625,-49.375,259.75,11.12,30.94,0,1.562999963760376,10.80347509507936,0.9777397455355898,10.622961657183932,0.9658396657830947,10.244457037832703,51.4943489011173
1776724176.237,-1.6927,5.9879,8.9016,0.1791,1.0336,-0.3016,7.95,13.5,76.95,-2.0303,5.5833,8.6814,0.1767,1.0222,-0.3152,-14.4,10.05,41.4,1.48,-5.73,8.84,-12.375,-50.5,-9.6875,29.25,1.5625,-49.375,259.75,11.62,31.06,0,1.5729999542236328,10.860877600820295,1.0914982043045238,10.519603744438285,1.084189453001642,10.638087234084894,52.888923994065145
1776724176.247,-1.8196,5.9903,8.9543,0.1791,1.1501,-0.4162,7.95,13.5,76.95,-1.9704,5.5234,8.7939,0.1737,1.1506,-0.4261,-12.45,11.25,40.35,1.47,-6.04,9.14,-10.125,-54.75,-12.75,29.25,1.5625,-49.375,259.75,11.62,31.06,0,1.5829999446868896,10.925846728743727,1.2361348065643971,10.569914897008395,1.2391986362161638,11.053601223130858,57.1195292785226
1776724176.254,-1.8459,5.6767,9.1722,0.1519,1.3177,-0.494,9.0,15.3,74.7,-2.15,5.3965,8.7915,0.142,1.3222,-0.4903,-12.9,12.0,40.35,1.53,-6.03,9.19,-11.5625,-60.125,-18.875,26.6875,3.75,-48.375,259.81,12.25,31.19,0,1.5899999141693115,10.943560779746235,1.4154302879336729,10.537323403027925,1.4173111620247687,11.097652905006536,64.0700605294704
1776724176.26,-2.0183,5.5402,8.9495,0.1519,1.3177,-0.494,9.0,15.3,74.7,-2.15,5.3965,8.7915,0.142,1.3222,-0.4903,-12.9,12.0,40.35,1.53,-6.03,9.19,-11.5625,-60.125,-18.875,26.6875,3.75,-48.375,259.81,12.25,31.19,0,1.5959999561309814,10.717317816506142,1.4154302879336729,10.537323403027925,1.4173111620247687,11.097652905006536,64.0700605294704
1776724176.267,-2.2266,5.3893,8.4108,0.1175,1.5005,-0.5271,10.5,16.5,74.1,-2.3607,5.3295,8.3893,0.1194,1.4946,-0.5273,-10.8,13.8,41.55,1.54,-5.75,9.5,-11.1875,-68.0,-25.3125,26.6875,3.75,-48.375,259.94,13.75,31.5,0,1.6029999256134033,10.234444718205282,1.594722831717161,10.215519038697936,1.5893806372294839,11.210892025169095,73.41582126830701
1776724176.277,-2.4804,5.2313,7.7668,0.1362,1.6297,-0.5316,11.25,15.0,75.15,-2.5091,5.2337,7.9559,0.1308,1.6156,-0.5212,-10.8,12.6,39.75,1.77,-5.35,9.24,-9.625,-78.5625,-29.4375,26.6875,3.75,-48.375,260.0,14.62,31.62,0,1.6129999160766602,9.687211471316191,1.7196136455611184,9.84802230450358,1.702621931022856,10.822800007391802,84.44686754107579
1776724176.287,-2.4924,5.0182,7.4747,0.0949,1.671,-0.4988,12.75,17.7,73.5,-2.6887,5.2241,7.6758,0.0717,1.6467,-0.4855,-9.45,13.2,38.85,1.95,-5.11,8.61,-8.5625,-88.5625,-31.1875,26.6875,3.75,-48.375,260.06,15.56,31.75,0,1.622999906539917,9.341602062280323,1.7464387907968604,9.666345438685708,1.7182758887908542,10.200328426085113,94.28304709092723
1776724176.297,-2.6384,4.9656,7.841,-0.0802,1.6417,-0.4253,10.95,16.2,75.6,-2.7294,5.0973,7.9057,-0.1138,1.6164,-0.4117,-9.45,13.2,38.85,2.13,-4.89,7.93,-8.5,-95.1875,-30.6875,26.6875,3.75,-48.375,260.06,15.56,31.75,0,1.6329998970031738,9.64881437897942,1.6977900400226171,9.794497646127647,1.6718840539941757,9.55687710499617,100.37247039153714
1776724176.304,-2.6384,4.9656,7.841,-0.2859,1.6166,-0.34,10.95,16.2,75.6,-2.9951,5.0996,7.9583,-0.3254,1.5924,-0.3309,-8.85,16.2,38.25,2.17,-4.73,7.5,-3.3125,-96.4375,-27.6875,23.25,4.5625,-48.75,260.06,16.5,31.88,0,1.6399998664855957,9.64881437897942,1.6765244913212574,9.91519455482342,1.6586493692158089,9.128625307240954,100.38805565778232
1776724176.31,-2.8371,4.9656,7.6207,-0.4879,1.5964,-0.2651,10.95,16.2,75.6,-2.9951,5.2672,7.7021,-0.5148,1.5727,-0.2542,-8.85,16.2,38.25,2.17,-4.73,7.5,-3.3125,-96.4375,-27.6875,23.25,4.5625,-48.75,260.06,17.38,31.88,0,1.6459999084472656,9.527926755595889,1.6902122292777317,9.799814501305624,1.6742227958070572,9.128625307240954,100.38805565778232
1776724176.317,-2.806,5.3391,7.8434,-0.4879,1.5964,-0.2651,15.9,18.75,75.45,-2.9951,5.2672,7.7021,-0.5148,1.5727,-0.2542,-8.85,16.2,38.25,2.43,-4.54,7.75,8.4375,-94.625,-23.375,23.25,4.5625,-48.75,259.94,18.25,31.75,0,1.6529998779296875,9.894369528676398,1.6902122292777317,9.799814501305624,1.6742227958070572,9.304783715917313,97.83390340904323
1776724176.327,-2.8587,5.138,8.1451,-0.692,1.6006,-0.2185,15.9,18.0,74.1,-3.0885,5.114,8.0709,-0.7171,1.5783,-0.2222,-6.9,18.45,37.5,2.56,-4.65,7.59,20.75,-93.3125,-18.3125,23.25,4.5625,-48.75,259.75,19.06,31.56,0,1.6629998683929443,10.045589265941544,1.7574204420115296,10.041476737014332,1.7477517386631318,9.261976031063782,97.33002009914516
1776724176.337,-2.5426,5.2577,8.0421,-0.8196,1.6411,-0.2153,16.8,19.95,74.25,-2.9473,5.047,8.0541,-0.8378,1.6265,-0.2273,-7.95,18.3,38.85,2.52,-4.99,7.78,32.8125,-92.6875,-14.0625,23.25,4.5625,-48.75,259.56,19.94,31.31,0,1.6729998588562012,9.938993734780196,1.846972511977371,9.951246811329725,1.8436584228104729,9.580130479278454,99.32465312675399
1776724176.347,-2.6432,4.9464,8.2001,-0.9345,1.7189,-0.2276,18.3,19.65,73.5,-2.976,4.4101,8.1092,-0.9582,1.7011,-0.2459,-4.65,18.45,37.2,2.48,-5.01,8.27,43.5,-94.0,-12.625,23.25,4.5625,-48.75,259.56,19.94,31.31,0,1.682999849319458,9.934536688240676,1.9696977483867926,9.698694894159729,1.96783008920994,9.982154076150097,104.34385762947429
1776724176.354,-2.9928,4.5681,8.1499,-0.9284,1.8093,-0.2702,19.5,20.25,74.4,-2.976,4.4101,8.1092,-0.9204,1.7954,-0.287,-5.25,19.5,36.9,2.23,-5.07,8.28,51.1875,-97.6875,-13.0,17.5,7.375,-50.0,259.38,20.81,30.94,0,1.690000057220459,9.810466831909682,2.051463158333583,9.698694894159729,2.0378828033034675,9.96173679636237,111.04957367095112
1776724176.36,-2.9928,4.5681,8.1499,-0.656,1.9012,-0.3168,19.5,20.25,74.4,-3.3423,4.2234,7.7333,-0.611,1.8879,-0.3256,-5.25,19.5,36.9,2.23,-5.07,8.28,51.1875,-97.6875,-13.0,17.5,7.375,-50.0,259.38,20.81,30.94,0,1.6959998607635498,9.810466831909682,2.0359910805305605,9.424012189083797,2.010846282041469,9.96173679636237,111.04957367095112
1776724176.367,-3.1915,4.4077,7.5058,-0.656,1.9012,-0.3168,19.5,20.25,74.4,-3.5817,4.1755,7.2209,-0.1828,1.9556,-0.3515,-4.05,22.2,37.35,2.38,-4.89,8.43,54.875,-102.5,-14.75,17.5,7.375,-50.0,258.94,22.69,30.25,0,1.7030000686645508,9.270950608217046,2.0359910805305605,9.077707417073983,1.9953294088946818,10.032018740014394,117.19674963496215
1776724176.377,-3.541,4.2306,7.1036,0.0432,1.9942,-0.34,21.75,22.05,75.45,-3.9624,4.1468,7.1922,0.0512,1.9676,-0.3352,-2.7,22.5,36.0,2.58,-4.53,8.41,45.75,-107.8125,-17.4375,17.5,7.375,-50.0,258.81,23.75,30.19,0,1.7130000591278076,8.99431989202074,2.023437639266404,9.19914696262648,1.9966046779470392,9.894715761455707,118.40888506569091
1776724176.387,-3.9863,3.9672,6.9504,0.0424,1.9476,-0.2822,23.4,23.7,73.5,-4.367,4.1037,6.9983,0.0317,1.9095,-0.2761,-2.7,22.5,36.0,3.05,-4.22,7.35,22.125,-113.0,-19.625,17.5,7.375,-50.0,258.69,24.81,30.38,0,1.7230000495910645,8.9407675112375,1.9683953769504743,9.21342746104836,1.9296181876215823,9.007408062256312,116.80606255670122
1776724176.397,-4.3096,4.1037,6.2584,-0.1077,1.8159,-0.1815,23.7,24.15,73.8,-4.5873,4.3287,6.5721,-0.1263,1.7752,-0.1753,-1.05,25.8,37.35,3.37,-3.97,7.01,1.5,-115.5625,-20.25,17.5,7.375,-50.0,258.69,24.81,30.38,0,1.7330000400543213,8.636004655510556,1.828123176922168,9.108977077037794,1.7882999804283397,8.73257693925453,117.33287649354719
1776724176.404,-4.5442,4.2018,5.9089,-0.1077,1.8159,-0.1815,25.05,24.75,72.3,-4.5873,4.3287,6.5721,-0.1263,1.7752,-0.1753,-1.05,25.8,37.35,3.72,-3.65,6.71,-4.375,-114.0625,-17.8125,11.5625,9.1875,-50.0,258.56,25.88,30.62,0,1.7400000095367432,8.556867188989205,1.828123176922168,9.108977077037794,1.7882999804283397,8.49617561023782,115.52783079197843
1776724176.41,-4.5442,4.2018,5.9089,-0.2904,1.6286,-0.0925,25.05,24.75,72.3,-4.8195,4.367,6.6032,-0.3107,1.5881,-0.0845,-1.05,25.8,37.35,3.72,-3.65,6.71,-4.375,-114.0625,-17.8125,11.5625,9.1875,-50.0,258.56,25.88,30.62,0,1.746000051498413,8.556867188989205,1.656872466425826,9.268253313866643,1.620412401211494,8.49617561023782,115.52783079197843
1776724176.417,-4.707,4.2186,6.3686,-0.4018,1.4722,-0.0115,25.05,24.75,72.3,-4.8291,4.2066,6.7397,-0.4101,1.4448,-0.0101,-0.3,28.5,37.35,4.15,-3.79,5.5,2.0,-107.625,-12.6875,11.5625,9.1875,-50.0,258.25,27.69,30.88,0,1.753000020980835,8.972820120786999,1.5260892274044793,9.297270914628658,1.5019091383968608,7.863625118226326,108.38871380937223
1776724176.427,-4.7716,4.1899,6.4572,-0.4205,1.3965,0.0424,25.05,24.75,72.3,-4.944,4.2904,6.675,-0.4258,1.3696,0.0418,0.75,29.25,35.85,4.32,-3.87,5.59,13.0,-97.5,-6.6875,11.5625,9.1875,-50.0,257.94,28.38,30.94,0,1.7630000114440918,9.056426470192314,1.459051150576977,9.349133283893218,1.4348717852128807,8.055271565875355,98.5899216768631
1776724176.437,-4.865,4.47,6.359,-0.3954,1.3475,0.0472,27.75,25.65,72.45,-5.0685,4.5203,6.4189,-0.4034,1.3195,0.0477,1.5,31.2,34.35,4.41,-3.83,6.08,21.125,-87.8125,-1.75,11.5625,9.1875,-50.0,257.69,29.06,30.94,0,1.7730000019073486,9.169842201477625,1.4051068464711143,9.344789005108675,1.3806111327959079,8.431097200246242,90.33472909822667
1776724176.447,-4.9608,4.8698,6.0956,-0.4306,1.295,0.0069,28.05,28.65,70.65,-5.1715,4.7118,6.371,-0.4455,1.266,0.0048,3.15,33.0,34.95,4.55,-4.24,6.28,24.0,-81.6875,1.875,11.5625,9.1875,-50.0,257.69,29.06,30.94,0,1.7829999923706055,9.245584245465508,1.3647303653103056,9.462299534996767,1.3421062886373791,8.838467061657242,85.16080836423525
1776724176.454,-5.1212,4.9632,6.0885,-0.4306,1.295,0.0069,29.1,28.65,70.35,-5.2744,4.6328,6.4452,-0.5209,1.1993,-0.0562,3.15,33.0,34.95,4.69,-4.65,6.02,22.8125,-78.4375,2.8125,4.5,12.5625,-49.0,257.38,29.69,30.94,0,1.7899999618530273,9.377093149265395,1.3647303653103056,9.530096234561327,1.3087458653229818,8.936386294246685,81.73592673206807
1776724176.46,-5.375,4.8315,6.2321,-0.5079,1.2295,-0.0538,29.4,29.25,72.3,-5.2744,4.6328,6.4452,-0.5209,1.1993,-0.0562,3.15,33.0,34.95,4.69,-4.65,6.02,22.8125,-78.4375,2.8125,4.5,12.5625,-49.0,257.12,30.31,30.94,0,1.7960000038146973,9.5432220795704,1.3313628731491651,9.530096234561327,1.3087458653229818,8.936386294246685,81.73592673206807
1776724176.467,-5.375,4.8315,6.2321,-0.4708,1.157,-0.1087,29.4,29.25,72.3,-5.612,4.4963,6.5218,-0.474,1.1303,-0.1127,4.5,34.05,35.1,4.75,-4.91,5.95,24.5,-75.1875,0.875,4.5,12.5625,-49.0,256.88,30.94,30.88,0,1.8029999732971191,9.5432220795704,1.2538410305935916,9.707993249379605,1.2308352367396702,9.05942051126892,79.08334705391522
1776724176.477,-5.545,4.81,6.256,-0.3179,1.0704,-0.1556,29.4,29.25,72.3,-5.7245,4.6831,6.4691,-0.3283,1.0437,-0.1524,4.5,34.05,35.1,4.84,-4.86,5.94,28.375,-71.5,-2.5625,4.5,12.5625,-49.0,256.75,31.5,30.75,0,1.812999963760376,9.644721924451735,1.1273987448990708,9.826015503244435,1.1046792928266558,9.073521918196924,76.96724648348803
1776724176.487,-5.7269,5.0709,6.1818,-0.2342,0.987,-0.2052,31.35,32.4,70.95,-5.952,4.8195,6.5074,-0.2454,0.9561,-0.2025,5.4,36.45,34.5,5.24,-4.72,6.08,26.8125,-67.0,-6.0625,4.5,12.5625,-49.0,256.62,32.06,30.69,0,1.8229999542236328,9.834940856965028,1.0349520182114724,10.049882537124502,1.0076480635618768,9.311412352591846,72.42005290318421
1776724176.498,-5.8035,5.0278,6.1962,-0.2345,0.9153,-0.2369,34.2,32.4,71.7,-6.0573,4.7932,6.3877,-0.2441,0.8926,-0.2358,4.8,37.05,34.35,5.37,-4.95,5.95,19.0625,-62.0,-8.9375,4.5,12.5625,-49.0,256.62,32.06,30.69,0,1.8339998722076416,9.866725876905672,0.9741077712450508,10.023390684793245,0.9549456581397707,9.420291927536004,65.47715489008361
1776724176.504,-5.9304,4.9249,6.2608,-0.2435,0.8652,-0.2491,33.6,34.2,73.2,-5.9999,4.7692,6.4955,-0.2462,0.8383,-0.2457,4.5,37.5,35.1,5.54,-4.97,6.04,13.625,-56.8125,-11.8125,-0.5625,14.875,-48.875,256.56,32.62,30.69,0,1.8399999141693115,9.930855995834397,0.9326918569388284,10.046670538043934,0.9075956258158147,9.585097808577647,59.6056703468722
1776724176.511,-5.7748,5.1044,6.3853,-0.2435,0.8652,-0.2491,33.75,32.25,71.25,-5.9065,5.047,6.5362,-0.2462,0.8383,-0.2457,4.5,37.5,35.1,5.54,-4.97,6.04,13.625,-56.8125,-11.8125,-0.5625,14.875,-48.875,256.5,33.12,30.69,0,1.8469998836517334,10.0087596878934,0.9326918569388284,10.152874553051467,0.9075956258158147,9.585097808577647,59.6056703468722
1776724176.517,-5.7748,5.1044,6.3853,-0.2787,0.8399,-0.2531,34.2,33.15,73.2,-5.9065,5.047,6.5362,-0.2883,0.8114,-0.255,6.9,38.55,36.0,5.65,-4.69,6.14,12.875,-52.5,-13.8125,-0.5625,14.875,-48.875,256.5,33.62,30.62,0,1.8529999256134033,10.0087596878934,0.9204158353700789,10.152874553051467,0.8980600481036889,9.571739653793347,55.792479611951286
1776724176.527,-5.7988,5.3223,6.3638,-0.4016,0.8396,-0.279,34.2,33.15,73.2,-5.9376,5.2289,6.4332,-0.4122,0.8071,-0.2795,7.2,39.0,35.1,5.59,-4.84,6.3,13.4375,-49.4375,-14.5625,-0.5625,14.875,-48.875,256.44,34.06,30.56,0,1.8629999160766602,10.121803652017757,0.9716232397385316,10.197183493984994,0.9483878426044907,9.714098002388075,53.260672346019064
1776724176.537,-6.0549,5.126,6.1459,-0.53,0.8284,-0.3309,36.0,32.7,71.7,-6.019,5.205,6.2872,-0.5289,0.7919,-0.3293,6.6,38.85,36.0,5.52,-5.12,6.42,16.3125,-47.75,-15.3125,-0.5625,14.875,-48.875,256.44,34.56,30.38,0,1.872999906539917,10.035426090605222,1.037613304656412,10.141462904334858,1.0076106936709237,9.894503524684803,52.731705950974124
1776724176.548,-6.0382,5.1739,6.019,-0.6091,0.7762,-0.3882,34.65,33.45,72.45,-6.2106,4.8985,6.3494,-0.6115,0.756,-0.3853,6.6,38.85,36.0,5.6,-5.33,6.06,23.4375,-47.625,-17.125,-0.5625,14.875,-48.875,256.44,34.56,30.38,0,1.8840000629425049,9.972836178841002,1.0602775532849877,10.143063391796387,1.0459083803087152,9.823059604827815,55.77385280084208
1776724176.554,-6.0382,5.1739,6.019,-0.7069,0.733,-0.4477,34.65,33.45,72.45,-6.1675,4.865,6.1148,-0.7149,0.7091,-0.4557,7.5,39.9,37.35,5.74,-5.13,6.0,31.0625,-46.5625,-19.875,-4.75,18.1875,-49.0625,256.44,35.06,30.12,0,1.8899998664855957,9.972836178841002,1.1123991639694808,9.954750639267665,1.1052453618993385,9.760353477205628,59.39664079306169
1776724176.561,-6.1555,4.7501,6.1244,-0.7069,0.733,-0.4477,36.45,32.4,72.45,-6.3039,4.4724,6.3015,-0.8199,0.6606,-0.5167,7.5,39.9,37.35,5.74,-5.13,6.0,31.0625,-46.5625,-19.875,-4.75,18.1875,-49.0625,256.44,35.06,30.12,0,1.8970000743865967,9.897570692851856,1.1123991639694808,9.972483102016266,1.1728628479067789,9.760353477205628,59.39664079306169
1776724176.567,-6.3375,4.4029,6.0837,-0.8167,0.6827,-0.5068,35.85,33.75,74.1,-6.3039,4.4724,6.3015,-0.8199,0.6606,-0.5167,7.5,39.9,37.35,5.75,-5.08,5.88,36.1875,-44.125,-23.375,-4.75,18.1875,-49.0625,256.44,36.0,29.31,0,1.9029998779296875,9.826537556535364,1.178950558759781,9.972483102016266,1.1728628479067789,9.66660747108312,61.667993369737594
1776724176.577,-6.4356,4.0845,5.8012,-0.8945,0.6305,-0.518,35.85,33.75,74.1,-6.4212,4.1635,6.1196,-0.8926,0.6073,-0.5284,7.5,38.25,38.85,5.79,-5.0,5.86,42.625,-41.0,-27.375,-4.75,18.1875,-49.0625,256.5,36.5,28.81,0,1.9129998683929443,9.578831298754562,1.2107784685895269,9.798777773273562,1.2019794548992924,9.636581344024446,65.17116885556067
1776724176.588,-6.5122,3.7445,5.4444,-0.9755,0.5681,-0.5031,35.85,33.75,74.1,-6.6343,3.6583,5.7844,-0.9739,0.5457,-0.5116,8.25,37.95,40.35,6.05,-4.12,5.82,48.3125,-38.125,-30.375,-4.75,18.1875,-49.0625,256.56,36.94,28.19,0,1.9240000247955322,9.277473818340853,1.2358994578848232,9.531861242170912,1.2280082491579607,9.35143304526103,68.63128955695062
1776724176.598,-6.6894,3.4117,5.3271,-1.0459,0.457,-0.4834,36.0,32.4,75.6,-6.9384,3.3279,5.7772,-1.0669,0.3024,-0.4554,9.0,39.45,40.35,6.14,-3.86,5.57,53.3125,-34.75,-30.75,-4.75,18.1875,-49.0625,256.56,36.94,28.19,0,1.934000015258789,9.206832444440378,1.2395286886554906,9.622492027016701,1.1987954496076467,9.144621369963875,70.67777342453567
1776724176.604,-6.6894,3.4117,5.3271,-1.0611,0.3078,-0.4413,36.0,32.4,75.6,-6.9384,3.3279,5.7772,-1.0669,0.3024,-0.4554,8.7,36.3,41.4,6.26,-3.6,5.22,58.4375,-30.1875,-29.5625,-8.1875,18.1875,-49.75,256.56,37.31,27.56,0,1.940000057220459,9.206832444440378,1.189714142136673,9.622492027016701,1.1987954496076467,8.910443311081664,72.11219015360717
1776724176.61,-6.8785,3.0885,5.2864,-1.0456,0.1607,-0.3885,36.6,31.8,75.45,-7.2042,2.988,5.7748,-1.0616,0.1452,-0.3973,8.7,36.3,41.4,6.26,-3.6,5.22,58.4375,-30.1875,-29.5625,-8.1875,18.1875,-49.75,256.56,37.31,27.56,0,1.9459998607635498,9.208616587739984,1.126958783629641,9.704481267950388,1.1427707075349807,8.910443311081664,72.11219015360717
1776724176.617,-6.869,2.8515,5.4133,-1.0456,0.1607,-0.3885,36.45,31.2,76.35,-6.8953,2.9975,5.9089,-1.0088,-0.0048,-0.3139,8.7,36.3,41.1,6.59,-2.99,4.9,61.75,-23.125,-27.75,-8.1875,18.1875,-49.75,256.56,37.88,26.12,0,1.9530000686645508,9.198805908377457,1.126958783629641,9.562701895907871,1.0565196117441455,8.739462226018258,71.53943405563116
1776724176.628,-6.0765,2.7318,5.6599,-1.0003,0.0131,-0.3048,35.55,29.55,77.25,-6.0717,2.8539,6.2608,-0.8649,-0.0823,-0.235,6.45,35.1,42.9,6.76,-2.65,4.88,62.125,-14.3125,-25.3125,-8.1875,18.1875,-49.75,256.56,38.0,25.44,0,1.9639999866485596,8.741913491907821,1.0457890513865593,9.17648640493735,0.900027944010629,8.74839985368753,68.59362898622582
1776724176.638,-6.4045,3.1125,7.0868,-0.8404,-0.0618,-0.2313,35.55,29.55,77.25,-6.2872,3.1987,6.9049,-0.9276,-0.0682,-0.1404,6.45,35.1,42.9,6.68,-2.52,5.08,60.1875,-4.8125,-21.0625,-8.1875,18.1875,-49.75,256.56,38.06,24.75,0,1.9739999771118164,10.0462933831339,0.8738369928081553,9.871079451610143,0.9406408241193872,8.762374107512187,63.947824190898004
1776724176.648,-6.2417,3.5602,6.8211,-1.0224,-0.028,-0.1447,36.45,28.2,78.45,-6.5003,3.4907,6.8498,-1.0285,-0.0538,-0.1378,7.65,34.95,44.85,5.82,-2.25,6.63,55.625,2.4375,-16.625,-8.1875,18.1875,-49.75,256.56,38.06,24.75,0,1.9839999675750732,9.907635850191507,1.0329684651527362,10.067703145206458,1.0390839860184546,9.104493396120402,58.10742341775274
1776724176.654,-6.256,3.7254,6.5266,-1.0224,-0.028,-0.1447,36.45,28.2,78.45,-6.5003,3.4907,6.8498,-1.0285,-0.0538,-0.1378,7.65,34.95,44.85,6.05,-3.08,6.98,51.0625,4.375,-11.0,-10.0,17.0625,-52.25,256.5,38.06,24.19,0,1.9900000095367432,9.778172054121363,1.0329684651527362,10.067703145206458,1.0390839860184546,9.737006726915618,52.41678673144702
1776724176.661,-6.256,3.7254,6.5266,-0.9864,-0.0504,-0.235,35.7,27.15,77.4,-6.292,3.3088,6.5936,-1.0086,-0.0709,-0.2294,7.65,34.95,44.85,6.05,-3.08,6.98,51.0625,4.375,-11.0,-10.0,17.0625,-52.25,256.5,38.06,24.19,0,1.996999979019165,9.778172054121363,1.0152586468481815,9.6960292078768,1.0367859615176123,9.737006726915618,52.41678673144702
1776724176.667,-5.8993,3.1508,6.6726,-0.9172,-0.0554,-0.2769,36.45,28.65,79.5,-6.2489,3.1412,6.8426,-0.9273,-0.0837,-0.2705,7.35,33.75,45.3,6.03,-3.63,6.74,57.5625,3.25,-7.9375,-10.0,17.0625,-52.25,256.25,38.06,22.88,0,2.003000020980835,9.447373809159876,0.9596867249264209,9.784531844191626,0.9695675479305194,9.74501924061723,58.19800522784265
1776724176.678,-5.9951,3.4046,6.8929,-0.8961,-0.0408,-0.3048,37.2,26.7,79.95,-5.9735,3.237,7.039,-0.9033,-0.0714,-0.3048,7.35,33.0,45.6,6.02,-3.81,6.41,59.6875,3.5,-11.1875,-10.0,17.0625,-52.25,256.25,38.06,22.25,0,2.0139999389648438,9.749081781378182,0.9473979575658795,9.783066607664491,0.9560083106333334,9.583558837926546,60.827689521302716
1776724176.688,-6.0573,3.7062,7.2688,-0.9273,-0.0008,-0.3744,35.85,25.8,79.8,-6.2441,3.5243,7.2161,-0.9326,-0.0296,-0.3653,6.6,30.6,45.6,5.88,-3.31,6.83,55.3125,4.4375,-15.375,-10.0,17.0625,-52.25,256.25,38.12,21.56,0,2.0239999294281006,10.161803736050013,1.0000306445304565,10.172589370951725,1.0020294456751258,9.601010363498208,57.58085348012827
1776724176.698,-6.1483,3.6847,7.1132,-0.9297,0.0293,-0.4658,35.85,25.8,79.8,-6.2704,3.2872,7.1036,-0.9462,0.0013,-0.4599,6.9,31.8,47.1,5.66,-3.41,7.12,53.0,4.125,-17.5625,-10.0,17.0625,-52.25,256.25,38.12,21.56,0,2.0339999198913574,10.098327644714248,1.0402741081080507,10.029194033420632,1.0520475939804244,9.713809757247668,55.98622179831391
1776724176.704,-6.1746,3.3471,6.6774,-0.9297,0.0293,-0.4658,35.85,25.5,79.8,-6.3327,3.043,6.7349,-0.8799,-0.0152,-0.5417,7.95,31.8,47.1,5.86,-3.77,7.34,53.625,2.3125,-20.375,-8.875,14.1875,-52.0,256.25,38.12,20.94,0,2.0399999618530273,9.691049186233656,1.0402741081080507,9.732513359867532,1.0333895393316115,10.120676854835352,57.41192303215422
1776724176.711,-6.1746,3.3471,6.6774,-0.8609,0.0099,-0.546,35.85,25.5,80.4,-6.3327,3.043,6.7349,-0.8799,-0.0152,-0.5417,7.95,29.25,47.7,5.86,-3.77,7.34,53.625,2.3125,-20.375,-8.875,14.1875,-52.0,256.31,38.25,20.19,0,2.046999931335449,9.691049186233656,1.0194914516561677,9.732513359867532,1.0333895393316115,10.120676854835352,57.41192303215422
1776724176.718,-6.4045,2.8323,6.3351,-0.7807,-0.0621,-0.5857,34.2,23.7,79.95,-6.6463,2.5905,6.5314,-0.7906,-0.0823,-0.5886,7.35,27.45,47.85,5.91,-3.52,6.67,54.625,0.3125,-25.625,-8.875,14.1875,-52.0,256.44,38.31,19.5,0,2.053999900817871,9.443147544648447,0.9779536747719699,9.671772324656944,0.989076139637389,9.581617817466944,60.33762430067992
1776724176.728,-6.4189,2.2505,6.1363,-0.8306,-0.1479,-0.551,34.05,23.25,81.15,-6.5098,2.32,6.3829,-0.8244,-0.1615,-0.5553,7.35,27.45,47.85,6.04,-3.1,6.23,52.0625,0.375,-31.0,-8.875,14.1875,-52.0,256.62,38.44,18.75,0,2.063999891281128,9.160851769895636,1.007656573441567,9.40751340418923,1.007013257112338,9.214363787044661,60.59409650494015
1776724176.738,-6.2824,2.047,6.0406,-0.9888,-0.2529,-0.4871,33.3,22.8,82.65,-6.4165,2.1093,6.4236,-0.9657,-0.2593,-0.5002,7.95,27.0,49.5,6.29,-2.43,5.99,47.125,3.8125,-34.3125,-8.875,14.1875,-52.0,256.75,38.44,18.06,0,2.0739998817443848,8.952519596180732,1.130906830822062,9.321118800873638,1.118039811455746,9.019373592439777,58.41787772163587
1776724176.748,-6.6391,1.5371,6.2944,-1.1871,-0.3624,-0.3944,33.3,22.8,82.65,-6.7445,1.7286,6.7014,-1.1687,-0.3728,-0.412,6.15,25.95,49.8,6.09,-1.76,5.74,47.6875,8.625,-33.375,-8.875,14.1875,-52.0,256.75,38.44,18.06,0,2.0839998722076416,9.276841950793385,1.302340788733886,9.663596647729042,1.29405700415399,8.551800979910606,58.841982514612816
1776724176.754,-6.4332,1.5203,6.3542,-1.4021,-0.482,-0.2726,33.3,22.8,82.65,-6.45,1.8435,6.7253,-1.3771,-0.4876,-0.2998,6.15,25.95,49.8,6.33,-1.32,5.9,55.6875,14.75,-29.75,-7.5625,11.1875,-54.25,256.88,38.38,17.25,0,2.0899999141693115,9.169145651040777,1.5074877014423698,9.498981647524117,1.4913209614298326,8.753359355127607,64.83612153923151
1776724176.761,-6.3207,1.9417,6.3375,-1.4021,-0.482,-0.2726,33.3,22.8,82.65,-6.4955,2.0399,6.7804,-1.5631,-0.6059,-0.2169,6.9,25.5,49.35,6.33,-1.32,5.9,55.6875,14.75,-29.75,-7.5625,11.1875,-54.25,256.94,38.25,16.38,0,2.0969998836517334,9.158894782123005,1.5074877014423698,9.60866985695731,1.6903970036651152,8.753359355127607,64.83612153923151
1776724176.767,-6.3207,1.9417,6.3375,-1.5793,-0.6105,-0.2012,34.05,20.25,84.3,-6.4955,2.0399,6.7804,-1.5631,-0.6059,-0.2169,6.15,23.25,49.35,6.36,-1.0,6.04,67.75,21.5,-24.375,-7.5625,11.1875,-54.25,256.88,38.06,15.38,0,2.1029999256134033,9.158894782123005,1.7051041551764514,9.60866985695731,1.6903970036651152,8.827864974046669,75.14288472636647
1776724176.778,-6.1124,1.7454,6.268,-1.712,-0.753,-0.154,31.5,19.05,85.05,-6.3494,2.047,6.7588,-1.6963,-0.7568,-0.1671,6.0,21.45,51.0,6.11,-1.3,5.96,80.6875,28.125,-17.5625,-7.5625,11.1875,-54.25,256.69,37.75,14.31,0,2.114000082015991,8.927243635075722,1.8766110412123231,9.496655558669062,1.8649671149915754,8.6338693527294,87.23491094452955
1776724176.788,-6.0478,2.6576,6.2417,-1.8863,-0.8863,-0.2073,33.0,18.75,84.3,-6.2225,2.66,6.754,-1.8631,-0.8881,-0.2094,5.55,21.0,52.2,5.95,-1.68,5.92,91.625,36.0,-12.5,-7.5625,11.1875,-54.25,256.5,37.31,13.19,0,2.124000072479248,9.088318958421299,2.0944280054468334,9.560942539833611,2.074538883704039,8.55986565315134,99.23401949432463
1776724176.798,-6.1172,2.6193,6.6367,-2.032,-1.0152,-0.2856,33.3,18.0,85.8,-6.3662,2.3391,7.0437,-2.0195,-1.0174,-0.2862,5.55,21.0,52.2,6.02,-2.68,5.94,100.5625,44.4375,-10.0,-7.5625,11.1875,-54.25,256.5,37.31,13.19,0,2.134000062942505,9.398226174124563,2.2893716168416174,9.77822074510491,2.2793405734992738,8.871662752832751,110.39704621274973
1776724176.804,-6.1746,2.0279,6.924,-2.1578,-1.1056,-0.3285,33.3,18.0,85.8,-6.2417,1.8747,7.2808,-2.1533,-1.1143,-0.3443,5.55,21.0,52.2,5.75,-2.74,6.06,110.75,52.5,-12.4375,-6.875,8.5625,-56.0,256.31,36.88,12.0,0,2.1399998664855957,9.496306627842216,2.4467048146435646,9.771559119198942,2.4488584830487863,8.791683570283908,123.1929539634877
1776724176.811,-5.7676,1.5706,7.2568,-2.1578,-1.1056,-0.3285,33.3,18.0,85.8,-5.9161,1.6257,7.5202,-2.2825,-1.1786,-0.3341,4.05,19.95,54.3,5.75,-2.74,6.06,110.75,52.5,-12.4375,-6.875,8.5625,-56.0,256.31,36.88,12.0,0,2.1470000743865967,9.401762619849535,2.4467048146435646,9.705490597594745,2.590468494307545,8.791683570283908,123.1929539634877
1776724176.818,-5.7676,1.5706,7.2568,-2.2982,-1.1612,-0.3192,31.2,14.55,85.8,-5.9161,1.6257,7.5202,-2.2825,-1.1786,-0.3341,4.05,19.95,54.3,5.84,-1.77,6.68,119.9375,60.375,-17.0625,-6.875,8.5625,-56.0,256.0,35.75,9.12,0,2.1540000438690186,9.401762619849535,2.5946092807973997,9.705490597594745,2.590468494307545,9.04770136554031,135.3560986343061
1776724176.828,-5.794,0.7494,7.6184,-2.3902,-1.206,-0.3054,29.7,14.55,87.15,-5.9951,0.7757,7.7788,-2.384,-1.2177,-0.3203,3.75,14.4,55.5,5.53,-1.34,7.03,128.125,65.8125,-19.4375,-6.875,8.5625,-56.0,255.75,35.12,7.62,0,2.1640000343322754,9.600627839886306,2.694579967267626,9.851531045477145,2.6960788897953263,9.044191506154656,145.3448216741828
1776724176.838,-5.6719,0.4525,7.6614,-2.4786,-1.2518,-0.2595,28.5,11.7,85.95,-5.794,0.577,7.7548,-2.5623,-1.2878,-0.2308,2.25,13.65,55.8,5.4,-1.18,7.27,135.875,69.0625,-19.125,-6.875,8.5625,-56.0,255.56,34.44,6.06,0,2.1740000247955322,9.54317849670643,2.7888709991679432,9.697437189278412,2.8769912704073333,9.13265021776264,153.61448550266996
1776724176.848,-5.3989,0.3759,7.5322,-2.5543,-1.2726,-0.2036,27.9,11.55,87.6,-5.5952,0.395,7.7452,-2.5506,-1.3081,-0.207,1.5,11.25,57.0,5.59,-0.31,7.49,141.8125,71.9375,-17.875,-6.875,8.5625,-56.0,255.56,34.44,6.06,0,2.184000015258789,9.274883226219078,2.861015940186283,9.562970829193196,2.873940669185779,9.351165702734606,160.01657628977068
1776724176.855,-5.3989,0.3759,7.5322,-2.5255,-1.2857,-0.1847,27.3,9.45,89.1,-5.5952,0.395,7.7452,-2.5506,-1.3081,-0.207,1.5,11.25,57.0,5.35,-0.17,7.52,147.375,74.4375,-15.25,-4.1875,3.5,-57.0625,255.31,33.75,4.5,0,2.190999984741211,9.274883226219078,2.8399452160209004,9.562970829193196,2.873940669185779,9.230482110919233,165.80981433935085
1776724176.861,-5.4109,0.2849,7.7428,-2.4149,-1.2961,-0.1852,27.3,9.45,89.1,-5.5498,0.1676,7.8458,-2.468,-1.3219,-0.2025,-0.15,10.65,58.65,5.35,-0.17,7.52,147.375,74.4375,-15.25,-4.1875,3.5,-57.0625,255.31,33.75,4.5,0,2.197000026702881,9.450394629855412,2.746983119715154,9.611708871995654,2.8070357781830997,9.230482110919233,165.80981433935085
1776724176.868,-5.3654,0.1053,7.8243,-2.4149,-1.2961,-0.1852,27.3,9.45,89.1,-5.5138,0.0311,7.9176,-2.3214,-1.3254,-0.2041,0.0,9.75,58.5,5.21,-0.16,7.45,150.875,75.4375,-12.375,-4.1875,3.5,-57.0625,254.69,32.25,1.44,0,2.2039999961853027,9.487796147683612,2.746983119715154,9.64838574114862,2.680902819947042,9.092425418995749,169.13669813570914
1776724176.878,-5.102,0.0934,8.0541,-2.2708,-1.3003,-0.1916,26.85,8.55,88.95,-5.2505,0.0622,8.1451,-2.2044,-1.3118,-0.2145,-1.05,7.8,59.85,5.18,-0.07,7.59,148.6875,76.5625,-11.375,-4.1875,3.5,-57.0625,254.44,31.5,0.0,0,2.2139999866485596,9.534550559412857,2.6237422300980713,9.690937679089675,2.574142352318535,9.189417827044322,167.62809933749173
1776724176.888,-4.9919,0.0431,8.2624,-2.1581,-1.275,-0.2126,25.5,6.15,89.1,-5.1834,-0.1269,8.2887,-2.1069,-1.2766,-0.2582,-1.05,7.8,59.85,5.0,0.08,7.86,141.625,77.375,-11.3125,-4.1875,3.5,-57.0625,254.19,30.75,-1.31,0,2.2239999771118164,9.653402352538714,2.5155952317493373,9.776823965889946,2.4769744467797805,9.315900385899369,161.77918254908448
1776724176.898,-4.6783,0.1221,8.3007,-2.0848,-1.2484,-0.263,25.65,5.55,90.45,-4.9153,-0.0718,8.4084,-2.0869,-1.2569,-0.3102,-2.55,5.85,61.05,4.86,0.0,8.13,133.4375,77.1875,-12.0,-4.1875,3.5,-57.0625,254.19,30.75,-1.31,0,2.2339999675750732,9.529061852564501,2.4441895589335947,9.73994455271692,2.4558447141462345,9.471879433354292,154.62042737782093
1776724176.905,-4.6783,0.1221,8.3007,-2.0896,-1.2244,-0.3112,23.55,4.05,89.4,-4.8267,-0.3041,8.4898,-2.0869,-1.2569,-0.3102,-2.55,5.85,61.05,4.78,-0.02,8.27,127.0,75.5,-13.5,-0.0625,-1.875,-60.5625,253.94,30.06,-2.62,0,2.240999937057495,9.529061852564501,2.4418085428632605,9.770681334482259,2.4558447141462345,9.552052135536112,148.36273116925287
1776724176.911,-4.5346,-0.1293,8.3007,-2.1474,-1.2297,-0.3608,23.55,4.05,89.4,-4.8267,-0.3041,8.4898,-2.1469,-1.2524,-0.3555,-2.55,5.85,61.05,4.78,-0.02,8.27,127.0,75.5,-13.5,-0.0625,-1.875,-60.5625,253.81,29.31,-3.88,0,2.246999979019165,9.45943635424437,2.5007329905449724,9.770681334482259,2.5107898398711113,9.552052135536112,148.36273116925287
1776724176.918,-4.5011,-0.5195,8.2528,-2.1474,-1.2297,-0.3608,23.55,4.05,89.4,-4.7022,-0.68,8.3821,-2.1783,-1.2609,-0.4002,-3.0,2.7,60.6,4.35,0.02,8.25,123.5,73.9375,-16.5,-0.0625,-1.875,-60.5625,253.62,28.56,-5.19,0,2.253999948501587,9.414801607044092,2.5007329905449724,9.6349719900994,2.5485328602943302,9.326596378100641,144.8835874288389
1776724176.928,-4.1324,-0.4836,8.1642,-2.1645,-1.2385,-0.3872,23.55,4.05,89.4,-4.2497,-0.7183,8.2265,-2.1631,-1.262,-0.445,-4.35,0.15,62.25,4.36,0.41,8.2,125.25,73.1875,-19.625,-0.0625,-1.875,-60.5625,253.5,27.88,-6.5,0,2.2639999389648438,9.163228708266535,2.52366129660856,9.287152805354287,2.543554719285591,9.29611209054624,146.38686170982012
1776724176.938,-3.5865,-0.1963,8.1379,-2.291,-1.1676,-0.5979,20.7,0.0,90.45,-3.6943,-0.5291,8.0613,-2.2468,-1.2191,-0.5689,-5.1,-1.65,60.15,4.26,0.59,8.15,127.75,73.5625,-22.0625,-0.0625,-1.875,-60.5625,253.38,27.12,-7.81,0,2.2739999294281006,8.895332053948296,2.639972569933256,8.883262744622607,2.6187711354755687,9.215107161612393,149.0579008724462
1776724176.948,-3.5123,-0.4525,8.2432,-2.4347,-1.0525,-0.7269,19.65,-1.65,90.9,-3.7134,-0.8428,8.0661,-2.4115,-1.1088,-0.7141,-6.75,-3.0,61.8,3.95,0.53,8.14,128.0625,73.75,-24.875,-0.0625,-1.875,-60.5625,253.38,27.12,-7.81,0,2.2839999198913574,8.971697374521725,2.7502552517902767,8.919732092949877,2.748582998564897,9.063277552850293,149.85937418543426
1776724176.955,-3.5721,-1.0989,8.4659,-2.4347,-1.0525,-0.7269,18.75,-1.05,90.75,-3.7302,-1.4006,8.2169,-2.5519,-0.9838,-0.8266,-6.75,-3.0,61.8,3.22,0.05,8.39,130.8125,72.125,-30.6875,3.1875,-8.75,-59.1875,253.31,26.38,-9.19,0,2.2909998893737793,9.254131100757109,2.7502552517902767,9.132005147282825,2.8571530603032103,8.986823688044627,152.4980276511798
1776724176.961,-3.5721,-1.0989,8.4659,-2.6105,-0.9185,-0.8375,19.05,-3.15,90.9,-3.7302,-1.4006,8.2169,-2.5519,-0.9838,-0.8266,-6.6,-5.25,62.7,3.22,0.05,8.39,130.8125,72.125,-30.6875,3.1875,-8.75,-59.1875,253.31,26.38,-9.19,0,2.296999931335449,9.254131100757109,2.8913247396306074,9.132005147282825,2.8571530603032103,8.986823688044627,152.4980276511798
1776724176.968,-3.5937,-1.664,8.4132,-2.6945,-0.7666,-0.8871,19.05,-3.15,90.9,-3.7972,-1.8531,8.1116,-2.679,-0.8364,-0.899,-7.65,-6.0,61.2,3.33,0.5,8.53,139.3125,66.6875,-39.0,3.1875,-8.75,-59.1875,253.44,25.06,-12.25,0,2.303999900817871,9.298683236351263,2.9385289210759864,9.146079051156292,2.9469996538852867,9.170594310076092,159.29907505224253
1776724176.978,-3.9337,-2.5067,8.3007,-2.6678,-0.635,-0.8777,19.05,-3.15,90.9,-4.0582,-2.4708,8.0948,-2.6822,-0.6925,-0.9057,-7.65,-6.0,61.2,3.33,0.99,8.72,149.0,59.0,-46.5,3.1875,-8.75,-59.1875,253.5,24.44,-13.94,0,2.313999891281128,9.521510440576117,2.879364362146618,9.386140150242802,2.9144545939163296,9.386554213341551,166.86596417484304
1776724176.988,-4.2138,-2.9592,8.1714,-2.5402,-0.5486,-0.8212,18.3,-6.9,87.75,-4.3527,-2.8778,8.0517,-2.5866,-0.5886,-0.8583,-8.4,-8.7,61.2,3.56,2.38,8.53,157.375,50.25,-51.5,3.1875,-8.75,-59.1875,253.62,23.94,-15.62,0,2.3239998817443848,9.658403234489644,2.7254261024654474,9.59466534174069,2.788122739407288,9.54457437500489,173.04393408900526
1776724176.998,-4.2856,-3.2154,7.9631,-2.3233,-0.5249,-0.7533,17.7,-8.25,89.7,-4.458,-3.1292,8.011,-2.3995,-0.5489,-0.7922,-8.4,-8.7,61.2,3.85,2.98,8.37,159.375,41.75,-52.5625,3.1875,-8.75,-59.1875,253.62,23.94,-15.62,0,2.3339998722076416,9.597714630577427,2.4981400661291997,9.68719658311939,2.5858213975446955,9.682964422117845,172.9342925253693
1776724177.005,-4.4293,-3.7134,7.695,-2.3233,-0.5249,-0.7533,16.8,-8.4,88.8,-4.6208,-3.6631,7.9655,-2.1869,-0.5636,-0.7314,-8.4,-8.7,61.2,4.1,3.4,8.1,154.25,35.125,-50.375,9.0625,-14.0625,-60.25,253.75,23.44,-17.31,0,2.3410000801086426,9.62398374115418,2.4981400661291997,9.910564287667983,2.3738413026148146,9.694328238717729,166.02550632357668
1776724177.011,-4.1755,-3.8475,7.3646,-2.0712,-0.562,-0.6925,16.05,-9.45,88.5,-4.4005,-3.7469,7.6854,-1.9915,-0.6406,-0.672,-9.3,-11.85,60.45,4.1,3.4,8.1,154.25,35.125,-50.375,9.0625,-14.0625,-60.25,253.88,23.0,-18.81,0,2.3469998836517334,9.299214464673884,2.2550542543362457,9.616081999442391,2.1972766348368613,9.694328238717729,166.02550632357668
1776724177.018,-4.1755,-3.8475,7.3646,-1.9241,-0.6582,-0.648,16.05,-9.45,88.5,-4.4005,-3.7469,7.6854,-1.9915,-0.6406,-0.672,-10.05,-12.6,60.45,4.27,3.86,7.53,142.9375,32.375,-46.4375,9.0625,-14.0625,-60.25,254.0,22.56,-20.19,0,2.3539998531341553,9.299214464673884,2.1343130159374466,9.616081999442391,2.1972766348368613,9.47804832230771,153.73910022339794
1776724177.028,-4.1611,-3.9959,7.1587,-1.699,-0.7906,-0.5977,15.6,-12.3,87.15,-4.2976,-4.0677,7.5561,-1.7869,-0.7655,-0.6235,-10.5,-14.4,58.8,4.17,3.96,7.2,128.9375,33.0625,-42.5625,9.0625,-14.0625,-60.25,254.06,22.12,-21.44,0,2.364000082015991,9.19396300351486,1.966950596735973,9.59740570466832,2.0415078030710534,9.214689359929611,139.74825300786412
1776724177.038,-3.9361,-4.2784,7.2975,-1.4845,-0.902,-0.5532,15.6,-12.3,87.15,-4.1324,-4.2282,7.6734,-1.5751,-0.8918,-0.5742,-10.05,-16.5,58.2,4.14,4.22,6.9,116.875,37.4375,-39.4375,9.0625,-14.0625,-60.25,254.12,21.56,-22.5,0,2.374000072479248,9.330117685217052,1.823012476644085,9.686871143976264,1.8989346723887055,9.086143296250615,128.90557954371099
1776724177.049,-3.5841,-3.8427,7.3741,-1.3925,-0.9403,-0.5377,13.35,-12.0,86.85,-4.2353,-4.7621,7.6926,-1.4131,-0.9649,-0.5446,-10.05,-16.5,58.2,4.04,4.47,6.82,104.625,44.5625,-36.5625,9.0625,-14.0625,-60.25,254.12,21.56,-22.5,0,2.384999990463257,9.054803526857997,1.7641829922091417,9.989567421064837,1.795681703420737,9.100269226786645,119.45301769942859
1776724177.055,-4.0294,-4.865,7.3981,-0.9673,-0.9926,-0.4794,13.35,-12.0,86.85,-4.2353,-4.7621,7.6926,-1.1676,-0.9984,-0.5132,-10.05,-16.5,58.2,3.52,3.98,7.22,91.8125,52.375,-33.6875,12.25,-20.5,-56.5,254.19,21.0,-23.44,0,2.3910000324249268,9.728112508087065,1.4665430133480573,9.989567421064837,1.6197118756124498,8.964329311220109,110.93927815476356
1776724177.062,-3.7038,-5.7245,8.1523,-0.9673,-0.9926,-0.4794,12.75,-13.65,85.95,-3.9361,-5.4779,8.3486,-0.6603,-1.064,-0.4,-12.6,-15.45,58.65,3.52,3.98,7.22,91.8125,52.375,-33.6875,12.25,-20.5,-56.5,254.25,20.38,-24.25,0,2.3980000019073486,10.627701067493383,1.4665430133480573,10.733098042038002,1.3145691651640092,8.964329311220109,110.93927815476356
1776724177.068,-3.7038,-5.7245,8.1523,-0.4394,-1.0501,-0.3579,11.7,-12.15,86.25,-3.1723,-5.2241,8.3725,-0.1777,-1.0954,-0.2758,-12.6,-15.45,58.65,3.58,4.58,7.22,82.3125,56.3125,-32.0,12.25,-20.5,-56.5,254.31,19.75,-24.88,0,2.4040000438690186,10.627701067493383,1.1932622427614141,10.365976285425315,1.1434789416513098,9.269368910556963,104.73989360554077
1776724177.078,-2.9497,-5.3582,8.2696,-0.0269,-1.0515,-0.2486,11.7,-12.15,86.25,-2.6887,-4.6064,8.1403,0.1122,-1.0552,-0.182,-15.15,-16.8,58.5,3.94,5.72,7.64,63.625,59.125,-29.5,12.25,-20.5,-56.5,254.31,19.06,-25.19,0,2.4140000343322754,10.285782492839328,1.080822751425968,9.732035385262426,1.0766428748661274,10.32528934219279,91.72871006397071
1776724177.088,-2.4588,-4.7046,8.2935,0.2238,-0.9955,-0.1719,11.7,-12.15,86.25,-2.6743,-4.2952,8.2911,0.2697,-0.9609,-0.1191,-15.15,-16.8,58.5,2.75,5.46,8.32,32.0625,62.5625,-23.0,12.25,-20.5,-56.5,254.31,18.44,-25.19,0,2.4240000247955322,9.846882798632265,1.034725229227547,9.713030564144232,1.0051127847162227,10.324558101923781,73.9666838008843
1776724177.099,-2.411,-4.5705,8.3749,0.2982,-0.8793,-0.1114,9.9,-13.2,85.65,-2.5977,-4.4197,8.0732,0.4013,-0.8431,-0.0557,-13.8,-16.95,58.95,2.4,4.84,8.45,5.1875,63.625,-16.0,12.25,-20.5,-56.5,254.31,18.44,-25.19,0,2.434999942779541,9.840799828265993,0.9351479508612528,9.563385991373558,0.9353939223664006,10.029361893959157,65.81071934913035
1776724177.105,-2.411,-4.5705,8.3749,0.4578,-0.7658,-0.0608,9.9,-13.2,85.65,-2.5977,-4.4197,8.0732,0.4013,-0.8431,-0.0557,-13.8,-16.95,58.95,2.39,4.53,8.69,-11.125,60.4375,-10.9375,15.875,-24.375,-56.375,254.31,17.88,-25.0,0,2.440999984741211,9.840799828265993,0.8942746334320347,9.563385991373558,0.9353939223664006,10.087075889473619,62.41863453729183
1776724177.112,-2.8108,-4.0366,8.2361,0.4578,-0.7658,-0.0608,10.65,-13.95,86.7,-3.0382,-4.1228,8.2768,0.3957,-0.7378,-0.0357,-13.8,-16.2,57.9,2.39,4.53,8.69,-11.125,60.4375,-10.9375,15.875,-24.375,-56.375,254.31,17.88,-25.0,0,2.447999954223633,9.593126675385873,0.8942746334320347,9.733116526580783,0.8379748325576372,10.087075889473619,62.41863453729183
1776724177.118,-2.7318,-4.3886,7.762,0.4429,-0.688,-0.065,10.35,-13.65,85.2,-2.885,-4.4843,7.8937,0.5089,-0.7168,-0.0448,-13.8,-16.2,57.9,2.52,4.36,8.75,-19.25,54.125,-7.25,15.875,-24.375,-56.375,254.31,16.94,-24.5,0,2.4539999961853027,9.3258342897566,0.8208102155797039,9.525894770571425,0.8802207052779433,10.095667387547987,57.90199154605997
1776724177.129,-2.5857,-4.2545,7.5417,0.5913,-0.6867,-0.0618,10.35,-12.9,84.6,-2.8252,-4.4221,7.7428,0.6856,-0.7333,-0.0418,-14.7,-17.1,58.05,2.74,4.0,8.38,-25.6875,47.1875,-4.375,15.875,-24.375,-56.375,254.31,16.56,-24.19,0,2.4649999141693115,9.036805499179453,0.9083016129017938,9.353484660275015,1.0047504615574954,9.681528804894402,53.904066984783256
1776724177.138,-2.3367,-4.0486,7.7405,0.8108,-0.7218,-0.0661,10.35,-12.9,84.6,-2.49,-4.1922,7.8865,0.9619,-0.7823,-0.0368,-14.1,-14.25,58.2,2.64,4.31,7.83,-27.4375,42.8125,-3.8125,15.875,-24.375,-56.375,254.31,16.19,-23.81,0,2.4739999771118164,9.042492416363975,1.0875482012306397,9.272082996285139,1.2404028136053225,9.319581535669936,50.992761434835046
1776724177.149,-2.6408,-3.9792,8.6359,1.1005,-0.7626,-0.057,8.85,-12.45,84.9,-2.7629,-4.0318,8.6311,1.193,-0.805,-0.0107,-14.1,-14.25,58.2,2.57,4.32,7.63,-36.1875,42.3125,-3.875,15.875,-24.375,-56.375,254.31,16.19,-23.81,0,2.484999895095825,9.86846624810563,1.3401149241762813,9.918917020521949,1.4392319097351893,9.136968862812218,55.8112751825292
1776724177.155,-2.6408,-3.9792,8.6359,1.336,-0.7522,-0.0139,8.85,-12.45,84.9,-2.6935,-3.4955,9.0956,1.4578,-0.7504,0.0653,-14.55,-15.0,57.9,2.27,4.07,7.95,-49.875,44.5625,-3.875,18.0,-24.5,-55.0625,254.31,15.75,-23.25,0,2.490999937057495,9.86846624810563,1.5332625509024864,10.109569815773567,1.6408976476307107,9.215221104238356,66.99513158618319
1776724177.161,-2.5833,-3.4453,9.3374,1.3835,-0.6787,0.0576,8.4,-11.7,83.85,-2.6935,-3.4955,9.0956,1.4578,-0.7504,0.0653,-14.55,-15.0,57.9,2.27,4.07,7.95,-49.875,44.5625,-3.875,18.0,-24.5,-55.0625,254.31,15.75,-23.25,0,2.496999979019165,10.28253712563198,1.5420842065205127,10.109569815773567,1.6408976476307107,9.215221104238356,66.99513158618319
1776724177.168,-2.4924,-2.9185,8.825,1.3835,-0.6787,0.0576,9.0,-11.25,84.75,-2.6504,-2.8874,8.9352,1.2017,-0.6837,0.0981,-14.55,-15.0,57.9,2.43,4.21,8.69,-66.25,46.9375,-3.1875,18.0,-24.5,-55.0625,254.38,14.88,-21.75,0,2.503999948501587,9.623425845820186,1.5420842065205127,9.75702300704472,1.3860563444535723,9.957163250645236,81.25485562414102
1776724177.179,-1.6568,-1.9537,9.0597,1.1277,-0.6582,0.0863,7.8,-12.15,85.2,-2.3272,-2.4828,9.1195,0.9507,-0.7019,0.1228,-15.9,-13.2,56.55,2.36,3.77,9.23,-81.4375,45.8125,-0.3125,18.0,-24.5,-55.0625,254.38,14.56,-20.94,0,2.5149998664855957,9.414886829909321,1.3085802306316567,9.733726723614138,1.188096772152841,10.245750338555005,93.43954847252849
1776724177.189,-2.4325,-2.2434,8.7771,0.8396,-0.6896,0.0624,7.5,-12.0,84.3,-2.4062,-2.3272,9.0237,0.655,-0.7613,0.0522,-15.9,-15.15,55.05,2.27,2.77,8.66,-80.125,42.1875,3.1875,18.0,-24.5,-55.0625,254.31,14.19,-20.25,0,2.5249998569488525,9.380159072211944,1.0882876825545715,9.624594535355762,1.0056478160867253,9.371307272734152,90.60883476515963
1776724177.199,-2.7174,-2.9928,8.3151,0.5438,-0.7781,0.0168,7.5,-12.0,84.3,-2.8491,-3.0167,8.7867,0.4234,-0.8732,0.0269,-15.9,-12.45,55.05,1.64,1.63,8.84,-64.4375,40.875,4.9375,18.0,-24.5,-55.0625,254.31,14.19,-20.25,0,2.5349998474121094,9.245647765840962,0.949442094074199,9.717198494936696,0.9708086371680054,9.137401162256147,76.46787519932799
1776724177.205,-2.5139,-3.6129,8.2983,0.3888,-0.9046,0.0027,7.5,-12.0,84.3,-2.715,-3.6512,8.6455,0.3531,-0.9979,0.0261,-15.9,-14.4,55.8,2.25,2.15,8.43,-46.6875,43.4375,3.0,20.5,-22.0625,-53.75,254.31,13.81,-19.75,0,2.5409998893737793,9.393323294234047,0.9846186520678958,9.769706069785313,1.0588509007409872,8.98609481365515,63.839948797755156
1776724177.212,-2.5139,-3.6129,8.2983,0.4,-1.0123,0.0123,6.15,-10.8,84.3,-2.715,-3.6512,8.6455,0.3531,-0.9979,0.0261,-17.25,-12.6,54.15,2.25,2.15,8.43,-46.6875,43.4375,3.0,20.5,-22.0625,-53.75,254.25,13.38,-19.44,0,2.547999858856201,9.393323294234047,1.088532305446191,9.769706069785313,1.0588509007409872,8.98609481365515,63.839948797755156
1776724177.218,-2.2075,-3.4453,8.1762,0.5537,-1.0941,0.0192,7.2,-10.5,83.25,-2.5833,-3.5913,8.4803,0.4485,-1.089,0.0421,-17.25,-12.6,54.15,2.59,2.9,8.03,-30.8125,49.1875,0.6875,20.5,-22.0625,-53.75,254.19,12.81,-19.12,0,2.553999900817871,9.142942348062794,1.2263796883510425,9.564850373633663,1.1784929613705803,8.921827167122213,58.045611106697805
1776724177.229,-2.047,-2.9784,8.181,0.7394,-1.1525,0.0037,4.8,-10.65,82.8,-2.2122,-3.1556,8.3989,0.6312,-1.161,0.0384,-16.95,-11.7,55.05,2.3,3.72,7.99,-23.5625,56.5625,0.0625,20.5,-22.0625,-53.75,254.12,12.25,-18.88,0,2.565000057220459,8.943703738384897,1.3692999306214837,9.240842029274171,1.3220472760079345,9.108704627991843,61.274070525386186
1776724177.239,-1.9752,-3.1915,8.3007,0.9086,-1.2009,-0.0035,5.7,-10.05,83.7,-2.1715,-3.2537,8.5497,0.8023,-1.2121,0.0288,-16.95,-11.7,55.05,2.01,3.29,7.96,-26.8125,62.8125,0.5,20.5,-22.0625,-53.75,254.06,11.62,-18.44,0,2.575000047683716,9.109813816977821,1.505897413504652,9.402092641002852,1.4538573313774636,8.844535035828622,68.29765964145477
1776724177.249,-1.7502,-3.565,8.4372,1.0485,-1.2516,0.0242,5.7,-10.05,83.7,-1.9465,-3.6009,8.6694,0.9561,-1.2548,0.0373,-16.65,-13.2,54.0,1.85,2.9,8.05,-37.125,67.375,0.625,20.5,-22.0625,-53.75,254.06,11.62,-18.44,0,2.5850000381469727,9.325168571130497,1.632923895960862,9.587170563831645,1.5779865462037372,8.754141876848925,76.9288429329338
1776724177.256,-1.5419,-3.5458,8.7149,1.0485,-1.2516,0.0242,5.7,-10.05,83.7,-1.7933,-3.5841,8.9376,1.0842,-1.3078,0.0821,-16.65,-13.2,54.0,1.63,3.52,8.27,-47.75,70.75,-0.0625,22.6875,-21.0,-52.0625,254.0,11.0,-17.94,0,2.5920000076293945,9.534130021139841,1.632923895960862,9.795018706465036,1.7007559760294833,9.134560744775854,85.35589555648748
1776724177.262,-1.5419,-3.5458,8.7149,1.1421,-1.287,0.0759,5.7,-10.05,83.7,-1.6688,-3.3232,9.3302,1.1943,-1.3275,0.1399,-17.25,-11.1,53.1,1.63,3.52,8.27,-47.75,70.75,-0.0625,22.6875,-21.0,-52.0625,253.94,10.31,-17.31,0,2.5980000495910645,9.534130021139841,1.7223594920921705,10.043962550706768,1.7911395115959001,9.134560744775854,85.35589555648748
1776724177.269,-1.5419,-3.304,9.2775,1.3129,-1.2982,0.1463,5.25,-9.9,81.3,-1.6688,-3.3232,9.3302,1.1943,-1.3275,0.1399,-17.25,-11.1,53.1,1.5,3.75,8.4,-57.4375,73.6875,0.3125,22.6875,-21.0,-52.0625,253.81,9.62,-16.69,0,2.6050000190734863,9.968243469137379,1.8521429048537263,10.043962550706768,1.7911395115959001,9.320541829743592,93.42918023160644
1776724177.279,-1.3264,-2.8228,9.6127,1.5156,-1.36,0.2513,1.8,-8.25,79.35,-1.7933,-2.9616,9.8019,1.3803,-1.3651,0.2334,-16.65,-10.5,52.2,1.24,3.55,8.88,-65.125,76.5,2.5625,22.6875,-21.0,-52.0625,253.75,8.88,-15.94,0,2.615000009536743,10.106014946060588,2.051778509001398,10.395395281565776,1.9553009129031778,9.64336559506068,100.49916433110278
1776724177.289,-0.747,-1.7645,10.2975,1.5204,-1.3683,0.2729,3.6,-9.3,81.15,-0.7901,-1.6783,10.5632,1.5282,-1.4221,0.3006,-18.6,-10.05,52.2,1.4,3.23,9.38,-72.75,78.0625,5.875,22.6875,-21.0,-52.0625,253.56,8.19,-15.06,0,2.625,10.474252980523241,2.0635734685249276,10.724837674296055,2.1090576118257176,10.018847239078955,106.86829291819909
1776724177.299,-0.5435,-1.2929,10.7811,1.424,-1.2633,0.2443,2.25,-7.95,78.9,-0.3974,-1.1732,10.6757,1.3355,-1.2364,0.2462,-16.8,-9.15,51.9,0.6,2.11,9.96,-83.9375,80.1875,11.25,22.6875,-21.0,-52.0625,253.56,8.19,-15.06,0,2.634999990463257,10.871940943088314,1.9192147821439893,10.747320386496348,1.83653468521561,10.19871070282906,116.62804792373059
1776724177.305,-0.1365,-0.7207,11.054,1.424,-1.2633,0.2443,2.25,-7.95,78.9,-0.3974,-1.1732,10.6757,1.3355,-1.2364,0.2462,-19.05,-9.45,50.85,0.44,1.57,10.72,-91.375,82.875,15.125,25.5,-19.5,-51.75,253.38,7.44,-14.12,0,2.6410000324249268,11.078310193346276,1.9192147821439893,10.747320386496348,1.83653468521561,10.84328824665286,124.28363478350639
1776724177.312,-0.1915,-1.5131,11.2168,1.2489,-1.1088,0.1631,2.25,-7.95,78.9,-0.3519,-1.5347,10.9271,1.1543,-1.0792,0.1599,-19.35,-8.1,49.2,0.44,1.57,10.72,-91.375,82.875,15.125,25.5,-19.5,-51.75,253.19,6.75,-13.25,0,2.6480000019073486,11.32001528709215,1.678031662394962,11.039957070115806,1.5882849681338673,10.84328824665286,124.28363478350639
1776724177.318,-0.1915,-1.5131,11.2168,1.1434,-0.9473,0.1098,2.25,-6.9,79.2,-0.3879,-2.3104,10.9391,1.1495,-0.9014,0.1455,-19.35,-8.1,49.2,0.23,1.06,11.16,-88.25,80.0,15.0,25.5,-19.5,-51.75,253.06,6.06,-12.44,0,2.6540000438690186,11.32001528709215,1.4888911612337552,11.187149922120469,1.4680062874524753,11.212586677479912,120.05441474598092
1776724177.329,-0.091,-2.2553,11.2743,1.2265,-0.7578,0.1338,3.0,-7.65,77.1,-0.0263,-2.1141,10.6877,1.2484,-0.7205,0.1743,-19.35,-8.1,49.2,-0.03,1.16,11.55,-79.5,71.375,11.6875,25.5,-19.5,-51.75,252.94,5.5,-11.75,0,2.6649999618530273,11.498021550684275,1.4479176530452276,10.89481719855822,1.4518964494756506,11.60814369311476,107.47668715237738
1776724177.339,0.1101,-1.9058,10.8457,1.2756,-0.5947,0.1514,-0.3,-5.55,78.0,-0.158,-1.6975,10.3286,1.2502,-0.5812,0.1727,-20.55,-8.7,49.05,0.06,2.21,11.77,-70.5,61.4375,7.5,25.5,-19.5,-51.75,252.88,5.06,-11.0,0,2.674999952316284,11.012420448747859,1.4155371453974637,10.468354608533282,1.3894670812941197,11.97583400018554,93.81399898869039
1776724177.349,-0.0622,-1.3743,10.3908,1.2345,-0.4919,0.1298,2.1,-6.0,78.3,-0.4812,-1.5203,10.252,1.1956,-0.5039,0.1585,-19.5,-8.7,49.35,-0.17,2.3,11.58,-71.375,50.75,7.0625,25.5,-19.5,-51.75,252.88,5.06,-11.0,0,2.684999942779541,10.48147384531393,1.335216798875748,10.375276841125736,1.3070948014585628,11.807425629662038,87.86257469053591
1776724177.355,-0.4118,-1.3551,10.161,1.1754,-0.4415,0.1324,1.8,-6.75,77.55,-0.4812,-1.5203,10.252,1.1956,-0.5039,0.1585,-20.1,-9.75,46.95,-0.09,1.37,10.61,-75.6875,40.375,8.375,30.25,-18.375,-49.25,252.81,4.69,-10.25,0,2.690999984741211,10.259229807836453,1.2625439279486477,10.375276841125736,1.3070948014585628,10.698462506360435,86.19094445618983
1776724177.362,-0.4286,-1.1396,9.7803,1.1754,-0.4415,0.1324,1.8,-6.75,77.55,-0.6823,-1.3288,10.0269,1.1301,-0.4708,0.1652,-19.65,-8.55,47.7,-0.09,1.37,10.61,-75.6875,40.375,8.375,30.25,-18.375,-49.25,252.81,4.69,-10.25,0,2.697999954223633,9.855792926497594,1.2625439279486477,10.137552285438531,1.235341932421951,10.698462506360435,86.19094445618983
1776724177.368,-0.4286,-1.1396,9.7803,1.0866,-0.4319,0.1442,1.8,-6.75,77.55,-0.6632,-1.1803,9.6893,1.0243,-0.4714,0.1713,-19.65,-8.55,47.7,0.2,1.35,10.35,-75.0,32.8125,8.0625,30.25,-18.375,-49.25,252.62,4.12,-8.81,0,2.7039999961853027,9.855792926497594,1.1781471936901602,9.78342868425993,1.140505212614129,10.439588114480378,82.25973536609511
1776724177.379,-0.5866,-1.3288,9.3565,0.9715,-0.4495,0.1492,0.0,-5.55,77.25,-0.7709,-1.3719,9.5433,0.9334,-0.4908,0.1828,-19.05,-7.5,47.55,0.3,1.33,10.05,-71.5625,28.9375,7.8125,30.25,-18.375,-49.25,252.56,3.88,-8.19,0,2.7149999141693115,9.468574404312404,1.080797455585458,9.672175107492627,1.0702971736858882,10.142060934543828,77.58611646905649
1776724177.389,-0.3256,-1.1013,9.1602,0.9395,-0.4687,0.1791,0.3,-5.55,76.95,-0.5483,-1.2067,9.4044,0.9246,-0.5087,0.2156,-18.3,-8.7,45.6,0.36,1.25,9.33,-66.8125,27.5,8.25,30.25,-18.375,-49.25,252.5,3.62,-7.56,0,2.7249999046325684,9.231908854077796,1.065090019669699,9.497341582779889,1.0770999071581058,9.420244158194627,72.72016677820534
1776724177.399,-0.6129,-1.4629,9.6654,0.9595,-0.5002,0.1972,1.05,-6.75,75.45,-0.6488,-1.4341,9.7013,0.9489,-0.5446,0.243,-18.3,-8.7,45.6,0.4,1.45,9.3,-60.25,28.25,8.625,30.25,-18.375,-49.25,252.5,3.62,-7.56,0,2.734999895095825,9.794676103884191,1.0998764157849736,9.8281639149945,1.1207360840090765,9.420854525997099,67.10078706691897
1776724177.406,-0.6129,-1.4629,9.6654,0.9507,-0.5079,0.2425,0.6,-4.5,76.95,-0.4908,-1.2977,10.1011,0.9118,-0.5353,0.2854,-18.75,-6.0,44.85,0.25,1.25,9.12,-56.6875,29.4375,10.1875,33.0,-16.875,-47.0625,252.38,3.31,-7.06,0,2.741999864578247,9.794676103884191,1.104807290888325,10.195936991762945,1.0951613990640832,9.208658968601236,64.68248772851892
1776724177.412,-0.2274,-1.1133,10.1825,0.8793,-0.4658,0.2888,0.6,-4.5,76.95,-0.4908,-1.2977,10.1011,0.9118,-0.5353,0.2854,-18.75,-6.0,44.85,0.25,1.25,9.12,-56.6875,29.4375,10.1875,33.0,-16.875,-47.0625,252.25,3.06,-6.5,0,2.747999906539917,10.24570416808918,1.0361194767014081,10.195936991762945,1.0951613990640832,9.208658968601236,64.68248772851892
1776724177.419,0.0072,-0.4908,10.4746,0.8793,-0.4658,0.2888,0.6,-4.5,76.95,-0.1508,-0.6584,10.3573,0.8354,-0.4775,0.3262,-18.75,-6.0,44.85,0.29,1.45,9.4,-57.1875,30.875,11.625,33.0,-16.875,-47.0625,252.12,2.75,-5.94,0,2.754999876022339,10.486094680098974,1.0361194767014081,10.379301252492867,1.0160245321841397,9.515597721635778,66.021332963293
1776724177.429,0.0263,-0.0694,10.3501,0.7983,-0.397,0.3211,0.6,-4.5,76.95,-0.1628,-0.3089,10.252,0.7424,-0.4053,0.3403,-19.5,-6.0,44.85,0.02,1.16,10.37,-57.0,31.625,13.8125,33.0,-16.875,-47.0625,251.94,2.5,-5.38,0,2.7649998664855957,10.350366083380818,0.947627089102037,10.257944582127553,0.9117181252997003,10.434696928996068,66.63276807434913
1776724177.439,0.0479,-0.0072,10.2592,0.6867,-0.3112,0.3208,2.1,-6.0,74.4,-0.1604,-0.3232,10.1658,0.635,-0.3163,0.3299,-18.9,-6.9,44.7,-0.14,0.6,10.59,-53.1875,29.75,16.8125,33.0,-16.875,-47.0625,251.75,2.25,-4.94,0,2.7749998569488525,10.259314347947429,0.8193381292238265,10.172201140362887,0.782371203457796,10.607907427952037,63.218927644337654
1776724177.449,0.0096,-0.1724,10.5105,0.6038,-0.2134,0.2891,2.1,-6.0,74.4,-0.17,-0.3783,10.3046,0.5889,-0.2054,0.2888,-18.3,-5.25,43.8,-0.2,0.28,10.55,-48.0,25.5,18.625,33.0,-16.875,-47.0625,251.75,2.25,-4.94,0,2.7849998474121094,10.511918196504386,0.7026327703715505,10.312942938366334,0.687312017936541,10.55560988290113,57.45555347396803
1776724177.456,0.0096,-0.1724,10.5105,0.6286,-0.1045,0.2385,0.3,-5.55,71.85,-0.2658,-0.6033,10.5082,0.6406,-0.0909,0.2427,-16.95,-6.15,43.2,-0.17,0.08,10.69,-41.5625,20.4375,18.4375,33.375,-15.375,-45.1875,251.62,2.06,-4.5,0,2.7920000553131104,10.511918196504386,0.6803972810057372,10.528859756402875,0.691038681985314,10.691650948286705,49.850518741032175
1776724177.462,-0.1077,-0.3711,10.7404,0.737,0.0237,0.2006,0.15,-4.65,73.5,-0.1484,-0.5387,10.5417,0.6406,-0.0909,0.2427,-19.65,-4.95,41.7,-0.17,0.08,10.69,-41.5625,20.4375,18.4375,33.375,-15.375,-45.1875,251.44,1.94,-4.12,0,2.797999858856201,10.747348820057901,0.764179985343767,10.556498431771777,0.691038681985314,10.691650948286705,49.850518741032175
1776724177.469,0.0646,-0.2849,10.5632,0.737,0.0237,0.2006,0.15,-4.65,73.5,-0.1484,-0.5387,10.5417,0.7658,0.0269,0.206,-19.65,-4.95,41.7,-0.11,0.27,10.87,-37.375,14.4375,16.75,33.375,-15.375,-45.1875,251.31,1.88,-3.75,0,2.805000066757202,10.567238778886376,0.764179985343767,10.556498431771777,0.7934792057766858,10.873909140690849,43.426887192728884
1776724177.479,0.1269,-0.2729,10.2735,0.8998,0.1218,0.1612,0.15,-4.65,73.5,-0.0694,-0.4525,10.3525,0.9377,0.1167,0.1761,-17.4,-6.15,40.65,-0.05,0.39,11.04,-38.625,7.5,14.0,33.375,-15.375,-45.1875,251.19,1.88,-3.31,0,2.815000057220459,10.277907387693276,0.9222042723822094,10.362616892464953,0.9612030950844884,11.04699959264958,41.762909680720284
1776724177.489,0.0622,-0.2993,10.2951,1.0496,0.1956,0.1388,0.0,-5.55,71.55,-0.0263,-0.3831,10.1921,1.0595,0.1793,0.1551,-17.4,-6.15,40.65,-0.23,0.3,10.65,-45.5625,0.375,11.5,33.375,-15.375,-45.1875,251.12,1.94,-2.75,0,2.825000047683716,10.299637534398965,1.0766545221193289,10.199331336416128,1.085700119738411,10.656706808390668,46.99289341219585
1776724177.499,-0.0479,-0.0335,10.386,0.98,0.2939,0.1727,2.25,-4.95,73.2,-0.1508,-0.1963,10.3956,1.0333,0.2278,0.1727,-18.15,-4.65,41.1,-0.29,0.34,10.35,-55.25,-5.625,9.3125,33.375,-15.375,-45.1875,251.12,1.94,-2.75,0,2.8350000381469727,10.38616448261821,1.037594574002775,10.398546710478344,1.072113342888708,10.359642850986708,56.31097389718988
1776724177.506,-0.1006,0.3112,10.3525,0.98,0.2939,0.1727,1.8,-4.8,71.25,-0.3089,0.1006,10.3501,0.9316,0.2729,0.1977,-18.15,-4.65,41.1,-0.19,0.45,10.43,-63.0625,-9.8125,8.1875,34.75,-15.0,-44.0625,251.06,2.06,-2.19,0,2.8420000076293945,10.357664893691048,1.037594574002775,10.355197225548144,0.9906756583261749,10.441431894141722,64.34437985364379
1776724177.512,-0.1006,0.3112,10.3525,0.8857,0.328,0.1895,1.95,-3.9,72.45,-0.3735,0.3926,10.3693,0.8482,0.3059,0.2169,-16.5,-3.6,41.1,-0.19,0.45,10.43,-63.0625,-9.8125,8.1875,34.75,-15.0,-44.0625,251.0,2.19,-1.56,0,2.8480000495910645,10.357664893691048,0.963306150712223,10.383449306468444,0.9273961720861262,10.441431894141722,64.34437985364379
1776724177.519,-0.2753,0.4932,10.3022,0.8263,0.3589,0.1839,1.95,-3.9,72.45,-0.3735,0.3926,10.3693,0.8482,0.3059,0.2169,-16.5,-3.6,39.3,-0.1,0.26,10.52,-63.125,-13.0,8.75,34.75,-15.0,-44.0625,250.88,2.31,-1.0,0,2.8550000190734863,10.317672274791441,0.9194564209357614,10.383449306468444,0.9273961720861262,10.523687566627963,65.04097266339119
1776724177.529,-0.419,0.68,10.1394,0.8005,0.3853,0.1604,1.35,-3.0,71.85,-0.5004,0.5363,10.0724,0.8002,0.3389,0.1985,-16.5,-3.6,39.0,0.08,-0.37,10.4,-57.75,-15.625,10.4375,34.75,-15.0,-44.0625,250.81,2.5,-0.5,0,2.865000009536743,10.17081085066476,0.9027649195665503,10.099072215307702,0.8913896454413188,10.40688714265702,60.730095761903755
