timestamp,thigh_acc_x,thigh_acc_y,thigh_acc_z,thigh_gyro_x,thigh_gyro_y,thigh_gyro_z,thigh_mag_x,thigh_mag_y,thigh_mag_z,shank_acc_x,shank_acc_y,shank_acc_z,shank_gyro_x,shank_gyro_y,shank_gyro_z,shank_mag_x,shank_mag_y,shank_mag_z,foot_acc_x,foot_acc_y,foot_acc_z,foot_gyro_x,foot_gyro_y,foot_gyro_z,foot_mag_x,foot_mag_y,foot_mag_z,foot_euler_x,foot_euler_y,foot_euler_z,perturbation_event
1776974411.935,9.9527,-0.2179,3.6871,0.417,-0.3246,0.2369,-82.05,19.8,27.3,9.7731,1.6855,0.6967,0.7197,0.1647,0.2161,-73.05,23.25,18.3,-3.99,-2.63,-8.51,-0.1222,-0.0185,0.0611,20.875,23.25,33.6875,358.3125,-25.0625,161.9375,0
1776974411.94,9.9527,-0.2179,3.6871,0.417,-0.3246,0.2369,-82.05,19.8,27.3,9.7731,1.6855,0.6967,0.7197,0.1647,0.2161,-73.05,23.25,18.3,-3.85,-2.76,-8.46,-0.1309,-0.0218,0.0709,20.5,22.5,33.0,358.9375,-25.0625,162.0625,0
1776974411.945,9.4212,-0.0263,3.699,0.8572,-0.2958,0.1399,-81.3,19.5,25.2,9.6367,1.4126,0.8811,0.8415,0.1178,0.2206,-73.05,23.25,18.3,-3.85,-2.76,-8.46,-0.1309,-0.0218,0.0709,20.5,22.5,33.0,358.9375,-25.0625,162.0625,0
1776974411.95,9.4212,-0.0263,3.699,0.8572,-0.2958,0.1399,-81.3,19.5,25.2,9.6367,1.4126,0.8811,0.8415,0.1178,0.2206,-72.6,22.5,18.3,-4.08,-2.57,-8.57,-0.1374,-0.0305,0.0829,20.5,22.5,33.0,358.9375,-25.0625,162.125,0
1776974411.954,9.6319,0.1245,3.383,0.8037,-0.3565,0.0935,-82.35,19.8,25.95,9.493,1.0678,1.1013,0.8735,0.1628,0.2649,-73.35,21.6,17.85,-4.08,-2.57,-8.57,-0.1374,-0.0305,0.0829,20.5,22.5,33.0,358.9375,-25.125,162.25,0
1776974411.96,9.6319,0.1245,3.383,0.8037,-0.3565,0.0935,-82.35,19.8,25.95,9.6103,0.4645,1.4198,0.8735,0.1628,0.2649,-73.35,21.6,17.85,-3.97,-2.56,-8.46,-0.1418,-0.024,0.0851,20.5,22.5,33.0,358.9375,-25.125,162.25,0
1776974411.968,9.3398,0.4884,3.043,0.5782,-0.3427,0.0978,-81.45,20.7,25.05,9.6103,0.4645,1.4198,0.7653,0.1434,0.2529,-72.9,22.95,18.45,-3.88,-2.8,-8.49,-0.1549,-0.0371,0.0949,20.5,22.5,33.0,359.0,-25.125,162.375,0
1776974411.973,9.2464,0.9481,2.9521,0.8428,-0.1569,0.1162,-81.45,20.7,25.05,9.8976,-0.103,1.4892,0.737,0.056,0.2451,-72.9,22.95,18.45,-3.88,-2.8,-8.49,-0.1549,-0.0371,0.0949,20.5,22.5,33.0,359.0,-25.1875,162.5,0
1776974411.98,9.2464,0.9481,2.9521,0.8428,-0.1569,0.1162,-81.45,20.7,25.05,9.8881,-0.5794,1.1444,0.623,0.0493,0.243,-73.05,22.5,18.3,-4.34,-2.21,-8.64,-0.1604,-0.0436,0.1025,20.5,22.5,33.0,359.0,-25.1875,162.5,0
1776974411.985,9.1243,1.3312,2.8347,1.141,-0.1092,0.1383,-82.35,21.0,24.45,9.8881,-0.5794,1.1444,0.623,0.0493,0.243,-74.55,22.5,17.85,-4.34,-2.21,-8.64,-0.1604,-0.0436,0.1025,20.875,22.0625,33.0,359.625,-25.1875,162.5625,0
1776974411.99,9.1243,1.3312,2.8347,1.141,-0.1092,0.1383,-82.35,21.0,24.45,9.7444,-0.5722,1.0175,0.429,0.0703,0.235,-74.55,22.5,17.85,-4.0,-2.45,-8.6,-0.1549,-0.0251,0.0905,20.875,22.0625,33.0,359.625,-25.1875,162.5625,0
1776974411.995,8.7412,1.1588,3.1292,1.2289,0.1966,0.1727,-83.25,19.65,24.3,9.7444,-0.5722,1.0175,0.429,0.0703,0.235,-74.55,22.5,17.85,-4.0,-2.45,-8.6,-0.1549,-0.0251,0.0905,20.875,22.0625,33.0,359.6875,-25.1875,162.6875,0
1776974412.0,8.7412,1.1588,3.1292,1.2289,0.1966,0.1727,-78.6,19.65,24.3,10.0413,-0.3663,1.3072,0.3525,0.0536,0.2148,-74.55,22.5,17.85,-4.14,-2.51,-8.59,-0.1538,-0.0295,0.0818,20.875,22.0625,33.0,359.6875,-25.1875,162.6875,0
1776974412.005,9.1363,1.2546,2.7749,1.4653,0.2979,0.2177,-78.6,19.65,24.3,10.0413,-0.3663,1.3072,0.3525,0.0536,0.2148,-72.9,23.4,16.95,-4.14,-2.51,-8.59,-0.1407,-0.0229,0.0753,20.875,22.0625,33.0,359.6875,-25.25,162.8125,0
1776974412.011,9.1363,1.2546,2.7749,1.7048,0.3627,0.2617,-80.4,21.15,24.75,10.0293,0.091,1.2546,0.3293,0.0008,0.2118,-72.9,23.4,16.95,-4.21,-2.3,-8.65,-0.1407,-0.0229,0.0753,20.875,22.0625,33.0,359.6875,-25.25,162.875,0
1776974412.02,9.1961,1.0127,2.8994,1.7048,0.3627,0.2617,-79.5,20.25,24.15,9.845,0.747,1.0415,0.3067,-0.0277,0.2113,-72.9,23.4,16.95,-4.2,-2.29,-8.65,-0.1287,-0.0229,0.0676,20.875,22.0625,33.0,359.6875,-25.25,162.875,0
1776974412.03,9.3039,0.759,2.7485,1.6585,0.211,0.3555,-79.5,20.25,24.15,9.7468,0.6847,0.9529,0.3797,-0.0474,0.2012,-74.55,24.0,17.85,-4.08,-2.43,-8.6,-0.1244,-0.012,0.0567,20.875,22.0625,33.0,359.75,-25.25,162.9375,0
1776974412.035,9.56,0.4884,2.6671,1.6585,0.211,0.3555,-79.5,20.25,24.15,9.7468,0.6847,0.9529,0.3797,-0.0474,0.2012,-74.55,24.0,17.85,-4.08,-2.43,-8.6,-0.1244,-0.012,0.0567,20.875,22.0625,33.0,359.75,-25.25,162.9375,0
1776974412.04,9.56,0.4884,2.6671,1.7243,0.1884,0.3624,-79.5,20.25,24.15,9.742,0.4238,1.0606,0.4946,-0.0469,0.1831,-73.2,21.9,16.65,-4.08,-2.4,-8.63,-0.1331,-0.0131,0.0545,22.375,22.0625,33.0,0.5,-25.3125,163.0625,0
1776974412.045,9.4068,0.3663,2.4995,1.7243,0.1884,0.3624,-79.35,21.15,22.95,9.742,0.4238,1.0606,0.4946,-0.0469,0.1831,-73.2,21.9,16.65,-4.08,-2.4,-8.63,-0.1331,-0.0131,0.0545,22.375,22.0625,33.0,0.5,-25.3125,163.0625,0
1776974412.05,9.5026,0.0622,2.4995,1.6113,0.1327,0.3576,-80.25,21.3,22.05,9.8497,0.2107,0.9697,0.5343,-0.0794,0.1745,-72.6,21.6,17.1,-4.09,-2.22,-8.67,-0.1145,-0.0131,0.0502,22.375,22.0625,33.0,0.5625,-25.3125,163.1875,0
1776974412.054,9.5026,0.0622,2.4995,1.6113,0.1327,0.3576,-80.25,21.3,22.05,9.8497,0.2107,0.9697,0.5343,-0.0794,0.1745,-72.6,21.6,17.1,-4.09,-2.22,-8.67,-0.1145,-0.0131,0.0502,22.375,22.0625,33.0,0.5625,-25.3125,163.25,0
1776974412.06,9.517,-0.0694,2.5618,1.5148,0.0703,0.3451,-80.4,19.95,23.55,9.8426,-0.0287,0.9194,0.5638,-0.0941,0.1721,-74.4,22.65,17.4,-4.11,-2.28,-8.71,-0.1178,-0.0185,0.0469,22.375,22.0625,33.0,0.5625,-25.3125,163.25,0
1776974412.068,9.517,-0.0694,2.5618,1.5148,0.0703,0.3451,-80.4,19.95,23.55,9.8497,-0.2442,0.9074,0.583,-0.0951,0.1657,-73.95,22.2,18.45,-4.21,-2.11,-8.71,-0.0851,-0.0076,0.0327,22.375,22.0625,33.0,0.5625,-25.3125,163.3125,0
1776974412.073,9.5074,-0.2418,2.5546,1.3965,0.1023,0.3389,-81.15,20.4,23.25,9.8497,-0.2442,0.9074,0.583,-0.0951,0.1657,-73.95,22.2,18.45,-4.21,-2.11,-8.71,-0.0851,-0.0076,0.0327,22.375,22.0625,33.0,0.5625,-25.3125,163.4375,0
1776974412.081,9.6438,-0.3783,2.4301,1.2766,0.0813,0.3232,-81.15,20.4,23.25,9.8593,-0.1772,0.8164,0.5241,-0.1007,0.1601,-73.2,22.65,16.95,-4.14,-2.25,-8.64,-0.072,-0.0022,0.024,22.375,22.0625,33.0,0.5625,-25.3125,163.4375,0
1776974412.085,9.6438,-0.3783,2.4301,1.2766,0.0813,0.3232,-81.15,20.4,23.25,9.9264,0.0407,0.6177,0.4549,-0.1122,0.1476,-73.2,22.65,16.95,-4.14,-2.25,-8.64,-0.072,-0.0022,0.024,21.25,21.0625,33.0,1.1875,-25.3125,163.5,0
1776974412.09,9.742,-0.6273,2.2841,1.113,0.0762,0.3038,-79.5,22.5,21.3,9.9264,0.0407,0.6177,0.4549,-0.1122,0.1476,-73.2,22.65,16.95,-4.11,-2.3,-8.63,-0.072,-0.0065,0.0218,21.25,21.0625,33.0,1.1875,-25.3125,163.5,0
1776974412.095,9.742,-0.6273,2.2841,1.113,0.0762,0.3038,-79.5,22.5,21.3,9.7707,0.4046,0.9385,0.4421,-0.1266,0.15,-73.2,22.65,16.95,-4.11,-2.3,-8.63,-0.072,-0.0065,0.0218,21.25,21.0625,33.0,1.1875,-25.3125,163.5625,0
1776974412.1,9.8689,-0.6584,2.0662,0.9577,0.0533,0.283,-81.15,21.45,22.2,9.7707,0.4046,0.9385,0.4421,-0.1266,0.15,-74.55,22.5,16.35,-4.14,-2.28,-8.65,-0.072,-0.0109,0.0185,21.25,21.0625,33.0,1.1875,-25.3125,163.5625,0
1776974412.105,9.8689,-0.6584,2.0662,0.9577,0.0533,0.283,-81.15,21.45,22.2,9.6774,0.7757,1.063,0.4258,-0.1516,0.1434,-74.55,22.5,16.35,-4.14,-2.28,-8.65,-0.0524,-0.012,0.0164,21.25,21.0625,33.0,1.1875,-25.3125,163.5625,0
1776974412.111,9.9,-0.6967,1.9417,0.814,0.0083,0.2478,-79.8,21.0,21.0,9.6774,0.7757,1.063,0.4258,-0.1516,0.1434,-74.55,22.5,16.35,-4.14,-2.29,-8.65,-0.0524,-0.012,0.0164,21.25,21.0625,33.0,1.1875,-25.3125,163.625,0
1776974412.12,9.7755,-0.6728,1.8292,0.6893,-0.0608,0.2249,-79.65,19.65,20.1,9.6367,0.5818,0.6776,0.408,-0.1753,0.1553,-73.05,23.55,15.6,-4.16,-2.36,-8.61,-0.0545,-0.0164,0.0164,21.25,21.0625,33.0,1.1875,-25.3125,163.625,0
1776974412.128,9.6845,-0.668,1.9058,0.6137,-0.0981,0.1982,-81.3,21.0,20.55,9.6845,0.249,0.7087,0.3733,-0.1609,0.1569,-72.6,22.05,16.05,-4.12,-2.44,-8.56,-0.0447,-0.0098,0.0164,21.25,21.0625,33.0,1.1875,-25.3125,163.625,0
1776974412.133,9.6845,-0.668,1.9058,0.6137,-0.0981,0.1982,-81.3,21.0,20.55,9.7085,0.0024,0.5914,0.3733,-0.1609,0.1569,-72.6,22.05,16.05,-4.12,-2.44,-8.56,-0.0447,-0.0098,0.0164,21.25,21.0625,33.0,1.1875,-25.3125,163.625,0
1776974412.138,9.6343,-0.6656,1.8675,0.5732,-0.0759,0.1727,-81.3,21.0,20.55,9.7085,0.0024,0.5914,0.2595,-0.1735,0.1681,-73.35,23.55,14.55,-4.11,-2.33,-8.68,-0.0349,-0.0022,0.0175,22.0,21.0625,33.6875,1.8125,-25.3125,163.6875,0
1776974412.143,9.6343,-0.6656,1.8675,0.5732,-0.0759,0.1727,-81.3,21.0,20.55,9.8545,0.2011,0.5507,0.2595,-0.1735,0.1681,-73.35,23.55,14.55,-4.11,-2.33,-8.68,-0.0349,-0.0022,0.0175,22.0,21.0625,33.6875,1.8125,-25.3125,163.6875,0
1776974412.148,9.7923,-0.5674,1.913,0.4964,-0.049,0.138,-81.3,21.0,20.55,9.8545,0.2011,0.5507,0.1612,-0.1641,0.1767,-74.4,22.65,15.9,-4.07,-2.26,-8.65,-0.0327,0.0055,0.0196,22.0,21.0625,33.6875,1.8125,-25.3125,163.75,0
1776974412.152,9.7923,-0.5674,1.913,0.4964,-0.049,0.138,-81.15,21.15,19.65,9.8306,0.4405,0.5315,0.1612,-0.1641,0.1767,-74.4,22.65,15.9,-4.07,-2.26,-8.65,-0.0327,0.0055,0.0196,22.0,21.0625,33.6875,1.8125,-25.3125,163.75,0
1776974412.157,9.9503,-0.4477,1.8292,0.421,-0.0597,0.1007,-81.15,21.15,19.65,9.8306,0.4405,0.5315,0.0898,-0.1956,0.1745,-74.4,22.65,15.9,-4.17,-2.3,-8.67,-0.0305,-0.0098,0.0185,22.0,21.0625,33.6875,1.8125,-25.3125,163.75,0
1776974412.162,9.9503,-0.4477,1.8292,0.421,-0.0597,0.1007,-79.05,21.0,20.55,9.742,0.8236,0.4022,0.0898,-0.1956,0.1745,-74.4,22.65,15.9,-4.17,-2.3,-8.67,-0.0305,-0.0098,0.0185,22.0,21.0625,33.6875,1.875,-25.3125,163.75,0
1776974412.17,9.9742,-0.1508,1.8723,0.3882,-0.1234,0.0789,-80.7,21.15,20.1,9.742,0.8236,0.4022,0.057,-0.1985,0.1772,-73.65,22.95,15.15,-4.15,-2.29,-8.66,-0.0131,0.0022,0.0218,22.0,21.0625,33.6875,1.875,-25.3125,163.75,0
1776974412.178,9.8186,0.1077,1.7597,0.356,-0.2262,0.0474,-79.8,21.3,20.55,9.8138,0.9529,0.419,0.0693,-0.227,0.1919,-73.65,22.95,15.15,-4.12,-2.22,-8.64,-0.012,0.0022,0.024,22.0,21.0625,33.6875,1.875,-25.3125,163.8125,0
1776974412.183,9.8186,0.1077,1.7597,0.356,-0.2262,0.0474,-79.8,21.3,20.55,9.7229,0.7733,0.4645,0.0698,-0.2233,0.2033,-73.65,22.95,15.15,-4.12,-2.22,-8.64,-0.012,0.0022,0.024,22.0,21.0625,33.6875,1.875,-25.3125,163.8125,0
1776974412.188,9.6989,0.2945,1.6496,0.3363,-0.2515,0.0096,-79.8,21.3,20.55,9.7229,0.7733,0.4645,0.0698,-0.2233,0.2033,-75.3,22.5,14.85,-4.13,-2.35,-8.65,-0.0229,-0.0022,0.0218,21.6875,21.75,33.25,2.4375,-25.3125,163.8125,0
1776974412.193,9.6989,0.2945,1.6496,0.3363,-0.2515,0.0096,-79.8,21.3,20.55,9.6414,0.6297,0.4046,0.052,-0.2326,0.218,-75.3,22.5,14.85,-4.13,-2.35,-8.65,-0.0229,-0.0022,0.0218,21.6875,21.75,33.25,2.4375,-25.3125,163.8125,0
1776974412.198,9.5672,0.4932,1.652,0.3096,-0.2779,-0.02,-82.05,19.8,19.2,9.6414,0.6297,0.4046,0.052,-0.2326,0.218,-74.85,22.5,14.85,-4.11,-2.29,-8.6,0.0022,0.0033,0.0207,21.6875,21.75,33.25,2.5,-25.3125,163.8125,0
1776974412.202,9.5672,0.4932,1.652,0.3096,-0.2779,-0.02,-82.05,19.8,19.2,9.6582,0.3136,0.2394,-0.0061,-0.2388,0.2337,-74.85,22.5,14.85,-4.11,-2.29,-8.6,0.0022,0.0033,0.0207,21.6875,21.75,33.25,2.5,-25.3125,163.8125,0
1776974412.207,9.5912,0.486,1.4485,0.2366,-0.3027,-0.0448,-82.2,20.4,20.1,9.6582,0.3136,0.2394,-0.0061,-0.2388,0.2337,-73.8,21.6,16.05,-4.12,-2.32,-8.63,0.0044,0.0076,0.0229,21.6875,21.75,33.25,2.5,-25.3125,163.875,0
1776974412.212,9.5912,0.486,1.4485,0.2366,-0.3027,-0.0448,-82.2,20.4,20.1,9.7276,0.17,0.0479,-0.0666,-0.2393,0.234,-73.8,21.6,16.05,-4.12,-2.32,-8.63,0.0044,0.0076,0.0229,21.6875,21.75,33.25,2.5,-25.3125,163.875,0
1776974412.22,9.7516,0.5507,1.4653,0.1966,-0.2571,-0.0666,-81.45,20.4,19.05,9.7372,0.0862,0.0814,-0.1287,-0.2497,0.234,-74.85,22.5,13.8,-4.07,-2.31,-8.64,0.0,0.0087,0.0229,21.6875,21.75,33.25,2.5,-25.3125,163.875,0
1776974412.227,9.7396,0.5555,1.4365,0.1386,-0.2417,-0.0794,-81.6,20.55,19.95,9.7372,0.0862,0.0814,-0.1287,-0.2497,0.234,-76.5,21.6,15.3,-4.11,-2.29,-8.64,0.0,0.0131,0.024,21.6875,21.75,33.25,2.5,-25.3125,163.875,0
1776974412.232,9.7396,0.5555,1.4365,0.1386,-0.2417,-0.0794,-81.6,20.55,19.95,9.7851,0.1532,0.1101,-0.202,-0.2611,0.2369,-76.5,21.6,15.3,-4.11,-2.29,-8.64,0.0,0.0131,0.024,21.6875,21.75,33.25,2.5,-25.3125,163.875,0
1776974412.237,9.6007,0.8092,1.4653,0.1202,-0.2401,-0.0973,-80.25,21.3,17.7,9.7851,0.1532,0.1101,-0.202,-0.2611,0.2369,-76.5,21.6,15.3,-4.1,-2.26,-8.59,0.0022,0.0044,0.0262,20.5,21.0625,33.0,2.9375,-25.3125,163.875,0
1776974412.241,9.6007,0.8092,1.4653,0.1202,-0.2401,-0.0973,-80.25,21.3,17.7,9.6726,0.4405,0.0622,-0.2273,-0.2734,0.2497,-74.4,23.85,16.2,-4.1,-2.26,-8.59,0.0022,0.0044,0.0262,20.5,21.0625,33.0,2.9375,-25.3125,163.875,0
1776974412.246,10.1849,1.0343,1.3767,0.2454,-0.1604,-0.1724,-80.25,21.3,17.7,9.6726,0.4405,0.0622,-0.2273,-0.2734,0.2497,-74.4,23.85,16.2,-4.14,-2.25,-8.62,0.0022,0.0033,0.0218,20.5,21.0625,33.0,2.9375,-25.3125,163.9375,0
1776974412.251,10.1849,1.0343,1.3767,0.2454,-0.1604,-0.1724,-80.25,21.3,17.7,9.6103,0.8619,0.0168,-0.2334,-0.2915,0.2579,-74.4,23.85,16.2,-4.14,-2.25,-8.62,0.0022,0.0033,0.0218,20.5,21.0625,33.0,2.9375,-25.3125,163.9375,0
1776974412.256,9.3853,0.6464,0.8284,0.2579,-0.1511,-0.1932,-80.25,21.3,17.7,9.6103,0.8619,0.0168,-0.2334,-0.2915,0.2579,-74.4,23.85,16.2,-4.14,-2.25,-8.62,0.0065,0.0044,0.0207,20.5,21.0625,33.0,3.0,-25.3125,163.9375,0
1776974412.261,9.3853,0.6464,0.8284,0.2579,-0.1511,-0.1932,-81.15,21.45,18.3,9.6247,0.9673,0.0168,-0.2342,-0.303,0.2649,-74.55,21.3,12.75,-4.11,-2.31,-8.66,0.0065,0.0044,0.0207,20.5,21.0625,33.0,3.0,-25.3125,163.9375,0
1776974412.27,9.3254,0.984,1.8627,0.5646,-0.1932,-0.1287,-81.0,20.55,16.65,9.4763,1.0247,-0.067,-0.2225,-0.2992,0.283,-74.55,21.3,12.75,-4.16,-2.29,-8.64,0.0087,0.0087,0.0196,20.5,21.0625,33.0,3.0,-25.3125,163.9375,0
1776974412.278,9.5409,1.4293,1.6185,0.736,-0.2561,-0.1124,-79.5,20.25,17.1,9.4379,0.9984,-0.2059,-0.2406,-0.263,0.311,-74.85,20.85,15.3,-4.13,-2.36,-8.59,0.0076,0.0153,0.0175,20.5,21.0625,33.0,3.0,-25.3125,163.9375,0
1776974412.283,9.6462,1.506,0.8739,0.5812,-0.3901,-0.1172,-79.5,20.25,17.1,9.4379,0.9984,-0.2059,-0.2406,-0.263,0.311,-74.85,20.85,15.3,-4.13,-2.36,-8.59,0.0076,0.0153,0.0175,20.5,21.0625,33.0,3.0,-25.3125,163.9375,0
1776974412.288,9.6462,1.506,0.8739,0.5812,-0.3901,-0.1172,-81.0,21.0,17.1,9.6989,0.7973,-0.3615,-0.2561,-0.2419,0.3331,-74.7,21.0,14.4,-4.09,-2.31,-8.62,0.0022,0.024,0.0196,20.875,21.375,33.75,3.4375,-25.25,163.9375,0
1776974412.293,9.8354,1.5921,0.5674,0.3509,-0.5585,-0.1162,-81.0,21.0,17.1,9.6989,0.7973,-0.3615,-0.2561,-0.2419,0.3331,-74.7,21.0,14.4,-4.09,-2.31,-8.62,0.0022,0.024,0.0196,20.875,21.375,33.75,3.4375,-25.25,163.9375,0
1776974412.298,9.8354,1.5921,0.5674,0.3509,-0.5585,-0.1162,-81.0,21.0,17.1,9.7803,0.8906,-0.4214,-0.2939,-0.2241,0.3704,-74.55,21.6,13.8,-4.05,-2.31,-8.65,-0.0033,0.0251,0.0185,20.875,21.375,33.75,3.4375,-25.25,164.0,0
1776974412.303,9.7396,1.6352,0.6105,0.2366,-0.5716,-0.1431,-81.0,21.0,17.1,9.7803,0.8906,-0.4214,-0.2939,-0.2241,0.3704,-74.55,21.6,13.8,-4.05,-2.31,-8.65,-0.0033,0.0251,0.0185,20.875,21.375,33.75,3.4375,-25.25,164.0,0
1776974412.308,9.7396,1.6352,0.6105,0.2366,-0.5716,-0.1431,-80.1,21.9,15.45,9.833,0.7661,-0.4405,-0.3262,-0.2182,0.4104,-74.55,21.6,13.8,-4.09,-2.33,-8.68,-0.0011,0.0218,0.0218,20.875,21.375,33.75,3.4375,-25.25,164.0,0
1776974412.313,9.9192,1.5658,0.5602,0.1524,-0.6246,-0.1828,-80.1,21.9,15.45,9.833,0.7661,-0.4405,-0.3262,-0.2182,0.4104,-76.95,20.7,14.4,-4.09,-2.33,-8.68,-0.0011,0.0218,0.0218,20.875,21.375,33.75,3.4375,-25.25,164.0,0
1776974412.321,9.7468,1.5993,0.723,0.263,-0.7605,-0.2164,-79.35,21.15,15.0,9.9575,0.9433,-0.8164,-0.4077,-0.2185,0.4501,-75.9,21.0,15.15,-4.01,-2.09,-8.74,0.0087,0.0229,0.0207,20.875,21.375,33.75,3.4375,-25.25,164.0,0
1776974412.33,9.7468,1.5993,0.723,0.4285,-0.7943,-0.2417,-81.9,21.45,16.8,9.7779,1.2713,-0.7183,-0.3912,-0.2121,0.4967,-75.3,21.3,14.25,-4.21,-2.76,-8.55,0.0153,0.0185,0.0229,20.875,21.375,33.75,3.5,-25.25,164.0,0
1776974412.335,9.651,1.8771,0.7039,0.4285,-0.7943,-0.2417,-82.05,22.05,15.3,9.7061,1.8028,-0.9122,-0.3912,-0.2121,0.4967,-75.3,21.3,14.25,-4.21,-2.76,-8.55,0.0153,0.0185,0.0229,20.875,21.375,33.75,3.5,-25.25,164.0,0
1776974412.34,9.651,1.8771,0.7039,0.5391,-0.8178,-0.2657,-82.05,22.05,15.3,9.7061,1.8028,-0.9122,-0.3965,-0.1841,0.5702,-75.3,21.3,14.25,-4.07,-1.96,-8.74,0.0218,0.0284,0.024,21.25,21.0625,33.25,4.0,-25.1875,164.0,0
1776974412.344,9.6271,2.2745,0.3687,0.5391,-0.8178,-0.2657,-82.05,22.05,15.3,9.584,2.1859,-0.9002,-0.3965,-0.1841,0.5702,-75.3,21.3,14.25,-4.07,-1.96,-8.74,0.0338,0.0273,0.0207,21.25,21.0625,33.25,4.0,-25.1875,164.0,0
1776974412.351,9.8593,2.806,-0.2131,0.6283,-1.0046,-0.3024,-82.05,22.05,15.3,9.584,2.1859,-0.9002,-0.417,-0.1519,0.6384,-74.55,19.65,14.85,-4.06,-2.13,-8.74,0.0338,0.0273,0.0207,21.25,21.0625,33.25,4.0,-25.1875,164.0,0
1776974412.359,9.8785,3.3423,-0.7374,0.6904,-1.2542,-0.356,-82.05,22.05,15.3,9.4667,2.6169,-0.9337,-0.3957,-0.1108,0.7019,-74.55,19.65,14.85,-4.06,-2.37,-8.76,0.0502,0.0185,0.0196,21.25,21.0625,33.25,4.0625,-25.1875,164.0,0
1776974412.364,9.8785,3.3423,-0.7374,0.6904,-1.2542,-0.356,-82.05,22.05,15.3,9.5744,2.8371,-0.9673,-0.3885,-0.0408,0.7666,-74.55,19.65,14.85,-4.06,-2.37,-8.76,0.0502,0.0185,0.0196,21.25,21.0625,33.25,4.0625,-25.1875,164.0,0
1776974412.371,9.7923,3.7924,-1.245,0.7525,-1.5516,-0.4245,-81.45,22.65,13.65,9.5744,2.8371,-0.9673,-0.3885,-0.0408,0.7666,-74.4,19.05,14.7,-4.15,-2.53,-8.74,0.0742,0.0033,0.0185,21.25,21.0625,33.25,4.0625,-25.1875,163.9375,0
1776974412.381,9.244,4.0893,-1.4198,0.7909,-1.5071,-0.4922,-80.1,22.95,13.95,9.9024,2.7294,-1.0798,-0.4596,0.0184,0.8346,-75.45,19.05,13.65,-4.13,-2.69,-8.81,0.1036,0.0,0.0196,21.25,21.0625,33.25,4.0625,-25.1875,163.9375,0
1776974412.385,9.244,4.0893,-1.4198,0.7909,-1.5071,-0.4922,-79.65,21.45,11.85,10.7548,2.1691,-0.723,-0.4823,0.0682,0.918,-75.45,19.05,13.65,-4.13,-2.69,-8.81,0.1036,0.0,0.0196,21.25,21.0625,33.25,4.0625,-25.1875,163.9375,0
1776974412.391,9.2249,3.9696,-1.6233,0.8258,-1.1652,-0.554,-79.65,21.45,11.85,10.7548,2.1691,-0.723,-0.4823,0.0682,0.918,-76.5,18.45,14.85,-4.05,-3.01,-8.96,0.144,-0.0033,0.0185,20.1875,21.75,34.1875,4.375,-25.1875,163.875,0
1776974412.395,9.2249,3.9696,-1.6233,0.8258,-1.1652,-0.554,-81.15,23.7,12.9,10.9128,2.2027,-0.2514,-0.4266,0.0011,1.0299,-76.5,18.45,14.85,-4.05,-3.01,-8.96,0.144,-0.0033,0.0185,20.1875,21.75,34.1875,4.375,-25.1875,163.875,0
1776974412.401,9.4499,3.9409,-1.8699,0.9156,-1.1213,-0.6328,-81.15,23.7,12.9,10.9128,2.2027,-0.2514,-0.4266,0.0011,1.0299,-76.2,17.55,13.95,-4.16,-3.01,-8.87,0.1767,0.0022,0.0273,20.1875,21.75,34.1875,4.375,-25.1875,163.75,0
1776974412.405,9.4499,3.9409,-1.8699,0.9156,-1.1213,-0.6328,-81.15,23.7,12.9,10.6518,2.1165,0.5076,-0.316,-0.0597,1.1309,-76.2,17.55,13.95,-4.16,-3.01,-8.87,0.1614,0.036,0.0327,20.1875,21.75,34.1875,4.4375,-25.1875,163.6875,0
1776974412.411,9.268,3.8618,-1.9585,1.0288,-1.1538,-0.7043,-81.15,23.7,12.9,10.4603,2.4038,1.4102,-0.316,-0.0597,1.1309,-78.0,18.15,14.85,-4.22,-3.01,-8.89,0.1614,0.036,0.0327,20.1875,21.75,34.1875,4.4375,-25.125,163.625,0
1776974412.421,9.4978,3.9816,-1.9106,1.1679,-1.1215,-0.7794,-80.4,23.4,10.8,10.8218,2.375,1.221,-0.1791,-0.1175,1.2055,-76.65,17.55,15.15,-3.57,-3.87,-9.46,0.1287,0.0644,0.0022,20.1875,21.75,34.1875,4.3125,-25.0625,163.5625,0
1776974412.431,9.481,4.1156,-1.7478,1.2148,-1.2161,-0.8601,-81.0,25.5,9.6,11.4108,1.9944,0.9673,-0.1111,-0.1569,1.25,-76.65,17.55,15.15,-2.79,-6.94,-9.12,-0.0065,0.0262,-0.2236,20.1875,21.75,34.1875,4.3125,-25.0625,163.5625,0
1776974412.436,9.481,4.1156,-1.7478,1.2148,-1.2161,-0.8601,-81.3,24.3,8.55,11.4108,1.9944,0.9673,0.1295,-0.2422,1.3443,-76.65,17.55,15.15,-2.79,-6.94,-9.12,-0.0065,0.0262,-0.2236,20.1875,21.75,34.1875,4.25,-25.0625,163.5625,0
1776974412.441,9.8354,4.1108,-1.5754,1.1194,-1.3483,-0.9377,-81.3,24.3,8.55,11.8058,1.5131,0.7757,0.1295,-0.2422,1.3443,-76.5,14.55,17.1,-2.99,-6.74,-8.88,-0.3305,-0.1374,-0.7592,21.25,21.375,34.5,4.25,-25.0625,163.5625,0
1776974412.446,9.8354,4.1108,-1.5754,1.1194,-1.3483,-0.9377,-81.0,24.75,6.3,11.8058,1.5131,0.7757,0.6819,-0.3488,1.525,-76.5,14.55,17.1,-2.99,-6.74,-8.88,-0.3305,-0.1374,-0.7592,21.25,21.375,34.5,4.25,-25.0625,163.5625,0
1776974412.451,10.2855,3.6512,-1.2474,0.9297,-1.6068,-1.0096,-81.0,24.75,6.3,11.4826,1.2641,1.482,1.5863,-0.3222,1.7219,-75.9,13.65,14.7,-2.27,-8.38,-9.15,-0.7396,-0.396,-1.4595,21.25,21.375,34.5,3.3125,-25.0,163.5625,0
1776974412.455,10.2855,3.6512,-1.2474,0.6406,-1.7925,-1.0762,-81.0,24.75,6.3,11.4826,1.2641,1.482,1.5863,-0.3222,1.7219,-75.9,13.65,14.7,-2.27,-8.38,-9.15,-1.4813,-0.8029,-2.3867,21.25,21.375,34.5,1.75,-25.0625,163.75,0
1776974412.461,10.5848,3.1723,-0.577,0.6406,-1.7925,-1.0762,-81.0,24.75,6.3,10.9271,2.7725,2.3176,2.489,-0.1391,1.8882,-77.4,13.65,14.4,-6.17,-13.08,-9.3,-1.4813,-0.8029,-2.3867,21.25,21.375,34.5,359.5,-25.3125,164.3125,0
1776974412.471,10.7188,2.6983,0.5315,0.307,-1.7757,-1.1037,-78.6,26.4,5.85,10.0628,5.2218,3.3279,3.1701,0.0645,1.914,-76.95,13.65,15.15,-10.41,-17.59,-8.09,-2.726,-1.3766,-3.2572,21.25,21.375,34.5,359.5,-25.3125,164.3125,0
1776974412.481,10.9678,2.3008,1.4868,0.0714,-1.3129,-1.0651,-78.45,26.25,5.25,9.153,6.2297,4.1013,4.2058,0.0818,1.8394,-75.45,13.65,15.15,-10.22,-16.21,-5.96,-3.975,-1.717,-4.0153,21.25,21.375,34.5,356.625,-25.625,165.375,0
1776974412.486,10.5105,2.1261,1.9872,-0.0645,-1.0126,-1.0211,-79.5,28.5,3.9,9.153,6.2297,4.1013,4.2058,0.0818,1.8394,-75.45,13.65,15.15,-10.22,-16.21,-5.96,-3.975,-1.717,-4.0153,21.25,21.375,34.5,353.3125,-26.0,166.8125,0
1776974412.491,10.5105,2.1261,1.9872,-0.0645,-1.0126,-1.0211,-79.5,28.5,3.9,8.8777,6.3207,4.6088,5.3655,0.0019,1.7371,-76.95,11.25,13.65,-9.23,-10.32,-4.42,-4.9371,-1.7824,-4.7015,21.6875,21.375,33.25,353.3125,-26.0,166.8125,0
1776974412.496,9.8569,2.6193,2.0877,-0.0376,-0.7344,-0.9721,-80.7,28.2,6.15,8.8777,6.3207,4.6088,5.3655,0.0019,1.7371,-76.95,11.25,13.65,-9.23,-10.32,-4.42,-4.9371,-1.7824,-4.7015,21.6875,21.375,33.25,349.625,-26.375,168.25,0
1776974412.501,9.8569,2.6193,2.0877,-0.0376,-0.7344,-0.9721,-80.7,28.2,6.15,8.4515,4.6807,4.9488,6.3477,0.0807,1.6422,-76.95,11.25,13.65,-8.93,-7.11,-4.3,-5.38,-1.8359,-5.2065,21.6875,21.375,33.25,349.625,-26.375,168.25,0
1776974412.506,9.2919,3.6152,1.901,0.0677,-0.4938,-0.9811,-79.05,27.75,4.5,8.4515,4.6807,4.9488,6.3477,0.0807,1.6422,-76.95,11.25,13.65,-8.93,-7.11,-4.3,-5.1596,-1.9133,-5.5807,21.6875,21.375,33.25,345.75,-26.8125,169.5,0
1776974412.512,9.2919,3.6152,1.901,0.0677,-0.4938,-0.9811,-79.05,27.75,4.5,8.248,2.6887,5.6599,7.0583,0.1162,1.5687,-76.95,14.4,11.4,-9.2,-4.8,-4.08,-5.1596,-1.9133,-5.5807,21.6875,21.375,33.25,341.75,-27.3125,170.25,0
1776974412.521,7.683,4.6376,1.9848,0.206,-0.2409,-1.0475,-79.05,27.75,4.5,8.5138,0.5243,6.0693,7.4034,0.2345,1.5047,-76.95,14.4,11.4,-9.34,-1.42,-7.2,-4.432,-1.9624,-5.897,21.6875,21.375,33.25,337.8125,-27.8125,170.25,0
1776974412.531,7.3741,5.8586,1.7861,0.5628,0.4069,-1.0786,-78.6,28.95,5.85,9.0477,-1.3623,6.3853,7.3738,0.385,1.452,-78.45,13.65,11.85,-8.18,-2.84,-6.48,-3.3674,-1.9417,-6.1087,21.6875,21.375,33.25,337.8125,-27.8125,170.25,0
1776974412.536,7.2305,6.6367,2.0351,0.9086,0.8002,-1.0611,-77.55,30.45,5.85,9.0477,-1.3623,6.3853,7.3738,0.385,1.452,-78.45,13.65,11.85,-8.18,-2.84,-6.48,-3.3674,-1.9417,-6.1087,21.6875,21.375,33.25,337.8125,-27.8125,170.25,0
1776974412.541,7.2305,6.6367,2.0351,0.9086,0.8002,-1.0611,-77.55,30.45,5.85,9.663,-3.0622,6.1531,6.9813,0.4378,1.3478,-76.95,12.0,11.85,-6.48,-3.76,-6.07,-2.5569,-1.9122,-6.0628,20.5,20.25,38.5,334.0,-28.25,169.8125,0
1776974412.546,8.4348,6.7229,1.7334,1.3691,1.1391,-0.9718,-78.9,29.7,6.15,10.0604,-4.6639,5.5641,6.9813,0.4378,1.3478,-76.95,12.0,11.85,-6.48,-3.76,-6.07,-2.5569,-1.9122,-6.0628,20.5,20.25,38.5,334.0,-28.25,169.8125,0
1776974412.551,8.4348,6.7229,1.7334,1.3691,1.1391,-0.9718,-78.9,29.7,6.15,10.0604,-4.6639,5.5641,6.3621,0.404,1.1927,-78.15,10.95,10.65,-5.58,-3.64,-6.61,-2.1544,-1.9417,-5.8152,20.5,20.25,38.5,330.4375,-28.75,169.1875,0
1776974412.556,9.0046,6.4284,2.0159,1.9095,1.2806,-0.8724,-78.75,30.75,6.75,10.2328,-5.7533,4.8866,6.3621,0.404,1.1927,-78.15,10.95,10.65,-5.58,-3.64,-6.61,-1.9689,-2.0137,-5.4302,20.5,20.25,38.5,327.0,-29.25,168.5,0
1776974412.562,9.0046,6.4284,2.0159,1.9095,1.2806,-0.8724,-78.75,30.75,6.75,10.2328,-5.7533,4.8866,5.458,0.3579,1.0115,-78.45,10.95,12.45,-5.26,-2.89,-6.82,-1.9689,-2.0137,-5.4302,20.5,20.25,38.5,323.875,-29.8125,167.8125,0
1776974412.571,9.7037,5.8323,1.8531,2.5828,1.4757,-0.7962,-78.0,31.8,6.75,9.7013,-6.5074,4.6615,4.4353,0.3384,0.8466,-78.0,11.85,11.55,-5.07,-1.94,-7.26,-1.7824,-2.0595,-4.9764,20.5,20.25,38.5,321.0625,-30.3125,167.125,0
1776974412.581,10.4459,5.1954,1.4269,3.1456,1.5362,-0.7392,-78.6,30.15,3.6,9.2536,-6.4356,4.4101,3.4246,0.3136,0.7045,-79.65,11.7,11.1,-5.08,-1.22,-7.92,-1.4792,-1.994,-4.4648,20.5,20.25,38.5,321.0625,-30.3125,167.125,0
1776974412.586,10.9176,4.6902,1.1109,3.5557,1.2758,-0.7429,-78.6,30.15,3.6,8.849,-5.4229,4.288,2.4453,0.2872,0.5836,-79.65,11.7,11.1,-5.08,-1.22,-7.92,-1.4792,-1.994,-4.4648,20.5,20.25,38.5,318.625,-30.8125,166.3125,0
1776974412.591,10.9176,4.6902,1.1109,3.8104,1.1143,-0.7629,-78.6,31.95,4.05,8.849,-5.4229,4.288,2.4453,0.2872,0.5836,-79.65,11.7,11.1,-4.62,-1.3,-8.82,-1.1017,-1.7955,-3.9303,20.875,21.0625,42.75,318.625,-30.8125,166.3125,0
1776974412.596,10.0221,3.8571,0.9888,3.8104,1.1143,-0.7629,-78.6,31.95,4.05,8.8777,-4.3359,3.8331,1.607,0.2766,0.465,-79.65,11.7,11.1,-4.62,-1.3,-8.82,-1.1017,-1.7955,-3.9303,20.875,21.0625,42.75,316.5625,-31.1875,165.5625,0
1776974412.601,10.5201,3.201,0.7039,3.7321,0.9486,-0.7671,-76.95,33.3,2.4,8.8777,-4.3359,3.8331,1.607,0.2766,0.465,-78.9,11.7,11.1,-4.25,-1.67,-8.96,-0.7647,-1.4966,-3.3445,20.875,21.0625,42.75,316.5625,-31.1875,165.5625,0
1776974412.609,10.5201,3.201,0.7039,3.7321,0.9486,-0.7671,-76.95,33.3,2.4,8.8921,-3.4453,3.6416,0.9196,0.2377,0.332,-78.9,11.7,11.1,-3.9,-2.03,-8.97,-0.5291,-1.1508,-2.7216,20.875,21.0625,42.75,314.875,-31.375,164.875,0
1776974412.614,10.3238,2.3104,0.5435,3.6529,0.5753,-0.7679,-79.5,33.3,2.1,9.0716,-2.6791,3.3902,0.4306,0.1785,0.1932,-78.9,11.7,11.1,-3.9,-2.03,-8.97,-0.5291,-1.1508,-2.7216,20.875,21.0625,42.75,313.625,-31.5,164.3125,0
1776974412.621,9.8474,1.6257,-0.0455,3.4667,0.574,-0.7381,-79.5,33.3,2.1,9.0716,-2.6791,3.3902,0.4306,0.1785,0.1932,-78.45,10.95,12.15,-2.97,-2.55,-8.58,-0.4047,-0.8029,-2.0726,20.875,21.0625,42.75,312.6875,-31.5625,164.0,0
1776974412.631,9.7181,0.9625,-0.3352,3.2149,0.5668,-0.7096,-80.55,34.5,1.65,9.1099,-2.2027,2.8204,0.0456,0.1015,0.0477,-78.45,10.95,12.15,-2.63,-2.7,-8.36,-0.3414,-0.4898,-1.4508,20.875,21.0625,42.75,312.6875,-31.5625,164.0,0
1776974412.636,9.7181,0.9625,-0.3352,3.2149,0.5668,-0.7096,-80.55,34.5,1.65,9.019,-1.8411,2.6169,-0.1431,-0.0176,-0.0898,-78.3,11.4,12.3,-2.63,-2.7,-8.36,-0.3414,-0.4898,-1.4508,20.875,21.0625,42.75,312.6875,-31.5625,164.0,0
1776974412.641,9.6869,0.0527,-0.3783,3.088,0.5217,-0.7136,-80.1,34.2,1.5,9.019,-1.8411,2.6169,-0.1431,-0.0176,-0.0898,-78.9,11.25,11.4,-2.49,-2.93,-8.22,-0.2825,-0.2073,-0.9141,20.1875,24.0,44.5625,312.125,-31.5625,163.875,0
1776974412.646,9.6869,0.0527,-0.3783,3.088,0.5217,-0.7136,-80.1,34.2,1.5,8.9064,-1.6281,2.3296,-0.2769,-0.1122,-0.2286,-78.9,11.25,11.4,-2.49,-2.93,-8.22,-0.2825,-0.2073,-0.9141,20.1875,24.0,44.5625,312.125,-31.5625,163.875,0
1776974412.651,9.6726,-0.3543,-0.7709,2.9428,0.4631,-0.7597,-81.6,34.5,1.35,8.9064,-1.6281,2.3296,-0.2769,-0.1122,-0.2286,-78.9,11.25,11.4,-2.17,-3.63,-7.96,-0.2051,0.0393,-0.504,20.1875,24.0,44.5625,311.8125,-31.4375,163.8125,0
1776974412.656,9.6726,-0.3543,-0.7709,2.9428,0.4631,-0.7597,-81.6,34.5,1.35,8.6838,-1.4341,2.3511,-0.3115,-0.1737,-0.3613,-76.95,11.25,10.65,-2.17,-3.63,-7.96,-0.1134,0.2585,-0.2236,20.1875,24.0,44.5625,311.6875,-31.25,163.8125,0
1776974412.662,9.4786,-0.4549,-0.4693,2.7875,0.3488,-0.7773,-82.2,37.2,1.2,8.5066,-1.0894,2.059,-0.3115,-0.1737,-0.3613,-77.4,12.45,10.65,-1.87,-4.1,-7.74,-0.1134,0.2585,-0.2236,20.1875,24.0,44.5625,311.6875,-31.0,163.875,0
1776974412.671,9.3877,-0.6057,-0.1437,2.5338,0.3605,-0.8375,-82.2,37.2,1.2,8.4467,-1.0558,1.889,-0.315,-0.2332,-0.482,-77.4,12.45,10.65,-1.61,-4.46,-7.5,-0.036,0.4352,-0.0567,20.1875,24.0,44.5625,311.75,-30.75,163.875,0
1776974412.681,9.3182,-0.6321,-0.1604,2.1938,0.4557,-0.906,-82.95,37.95,0.45,8.5138,-0.9313,2.0375,-0.0562,-0.3014,-0.7413,-78.3,12.3,12.3,-1.45,-4.72,-7.32,0.0207,0.5661,0.0109,20.1875,24.0,44.5625,311.75,-30.75,163.875,0
1776974412.686,9.3182,-0.6321,-0.1604,2.1938,0.4557,-0.906,-82.95,37.95,0.45,8.5138,-0.9313,2.0375,-0.0562,-0.3014,-0.7413,-78.3,12.3,12.3,-1.45,-4.72,-7.32,0.0207,0.5661,0.0109,19.875,26.5625,47.0,311.8125,-30.375,163.9375,0
1776974412.691,9.256,-0.4597,-0.5531,1.8013,0.4269,-0.9678,-83.25,39.45,0.75,8.4156,-0.7566,1.7142,0.1657,-0.3128,-0.8743,-78.3,12.3,12.3,-1.29,-5.31,-7.22,0.0633,0.661,0.0131,19.875,26.5625,47.0,311.8125,-30.375,163.9375,0
1776974412.696,9.256,-0.4597,-0.5531,1.8013,0.4269,-0.9678,-83.25,39.45,0.75,8.4156,-0.7566,1.7142,0.1657,-0.3128,-0.8743,-78.3,11.4,10.5,-1.29,-5.31,-7.22,0.0633,0.661,0.0131,19.875,26.5625,47.0,311.875,-30.0,163.9375,0
1776974412.701,9.4068,-0.486,-0.7207,1.4933,0.5145,-0.983,-84.0,40.2,0.75,8.5401,-0.7207,1.4605,0.3912,-0.3581,-1.0158,-78.3,11.4,10.5,-1.35,-5.39,-7.21,0.1134,0.7221,-0.048,19.875,26.5625,47.0,311.875,-30.0,163.9375,0
1776974412.709,9.2751,-0.1053,-0.6536,1.1732,0.5974,-0.9665,-82.5,39.9,-0.15,8.5401,-0.7207,1.4605,0.3912,-0.3581,-1.0158,-78.3,11.4,10.5,-1.4,-5.5,-7.31,0.1931,0.7799,-0.1734,19.875,26.5625,47.0,311.875,-29.5625,163.8125,0
1776974412.714,9.2751,-0.1053,-0.6536,1.1732,0.5974,-0.9665,-82.5,39.9,-0.15,8.6095,-0.8715,1.3695,0.651,-0.3938,-1.1471,-78.9,13.95,10.65,-1.4,-5.5,-7.31,0.1931,0.7799,-0.1734,19.875,26.5625,47.0,311.75,-29.0625,163.625,0
1776974412.721,9.0477,0.4381,-0.7877,0.9273,0.6411,-0.9308,-82.5,39.9,-0.15,8.7963,-0.7159,1.336,0.907,-0.4239,-1.2692,-78.9,13.95,10.65,-1.33,-5.74,-7.35,0.2967,0.8094,-0.3632,19.875,26.5625,47.0,311.5625,-28.5,163.3125,0
1776974412.731,9.1171,1.5538,-0.7374,0.8031,0.5915,-0.8711,-82.5,39.9,-0.15,9.0932,-0.723,1.0056,1.1482,-0.4639,-1.3899,-78.0,15.0,9.3,-1.3,-5.75,-7.43,0.4025,0.8105,-0.6174,19.875,26.5625,47.0,311.5625,-28.5,163.3125,0
1776974412.736,9.3733,1.4365,-1.1349,0.6696,0.5009,-0.8609,-82.5,39.9,-0.15,9.0932,-0.723,1.0056,1.1482,-0.4639,-1.3899,-77.55,15.75,9.3,-1.3,-5.75,-7.43,0.4025,0.8105,-0.6174,19.875,26.5625,47.0,311.125,-28.0,162.8125,0
1776974412.741,9.3733,1.4365,-1.1349,0.6696,0.5009,-0.8609,-81.15,40.2,-1.5,9.2033,-0.6632,0.893,1.4248,-0.5167,-1.4871,-77.55,15.75,9.3,-1.44,-5.98,-7.53,0.5116,0.7592,-0.9163,15.5,29.0625,49.5625,311.125,-28.0,162.8125,0
1776974412.746,9.4164,1.3527,-1.3455,0.4501,0.4442,-0.8479,-81.15,40.2,-1.5,9.2033,-0.6632,0.893,1.4248,-0.5167,-1.4871,-77.7,15.6,9.6,-1.44,-5.98,-7.53,0.5116,0.7592,-0.9163,15.5,29.0625,49.5625,310.5625,-27.375,162.1875,0
1776974412.751,9.4164,1.3527,-1.3455,0.4501,0.4442,-0.8479,-80.4,40.65,-0.75,9.2416,-0.5818,0.8667,1.6987,-0.5436,-1.5463,-77.7,15.6,9.6,-1.68,-6.33,-7.68,0.5814,0.6752,-1.2643,15.5,29.0625,49.5625,310.5625,-27.375,162.1875,0
1776974412.756,9.3182,1.1516,-1.3408,0.2358,0.4133,-0.8407,-80.4,40.65,-0.75,9.2416,-0.5818,0.8667,1.6987,-0.5436,-1.5463,-77.55,17.4,7.95,-1.68,-6.33,-7.68,0.5672,0.5869,-1.6461,15.5,29.0625,49.5625,309.8125,-26.8125,161.5,0
1776974412.762,9.3182,1.1516,-1.3408,0.2358,0.4133,-0.8407,-80.1,40.65,-2.25,9.3709,-0.51,1.0032,1.9425,-0.5534,-1.5945,-77.55,17.4,7.95,-1.9,-6.52,-7.93,0.5672,0.5869,-1.6461,15.5,29.0625,49.5625,308.75,-26.1875,160.6875,0
1776974412.771,9.244,1.3815,-1.3431,0.0083,0.4764,-0.842,-81.3,40.8,-0.6,9.6414,-0.5938,0.723,2.1719,-0.5921,-1.6409,-77.55,17.4,8.7,-2.07,-6.28,-8.07,0.5127,0.4821,-2.0409,15.5,29.0625,49.5625,308.75,-26.1875,160.6875,0
1776974412.781,9.086,1.6065,-1.1899,-0.1196,0.465,-0.8367,-81.3,40.8,-0.6,9.9144,-0.6345,0.9936,2.4051,-0.6243,-1.679,-77.55,17.4,8.7,-2.28,-6.02,-8.23,0.4625,0.3665,-2.4216,15.5,29.0625,49.5625,307.5625,-25.5625,159.875,0
1776974412.786,8.9471,1.9082,-0.984,-0.1583,0.4183,-0.81,-81.3,40.8,-0.6,10.1299,-0.7781,1.0319,2.4051,-0.6243,-1.679,-77.7,21.0,6.15,-2.28,-6.02,-8.23,0.4625,0.3665,-2.4216,15.5,29.0625,49.5625,307.5625,-25.5625,159.875,0
1776974412.791,8.9471,1.9082,-0.984,-0.1583,0.4183,-0.81,-80.7,41.4,0.45,10.1299,-0.7781,1.0319,2.61,-0.6792,-1.6936,-77.7,21.0,6.15,-2.36,-5.5,-8.45,0.42,0.2476,-2.7729,8.25,32.875,51.0625,306.0625,-24.875,159.0,0
1776974412.796,8.5545,2.3942,-0.8811,-0.1191,0.3864,-0.7592,-80.7,41.4,0.45,10.2711,-0.8428,1.0918,2.61,-0.6792,-1.6936,-76.2,19.95,5.85,-2.36,-5.5,-8.45,0.42,0.2476,-2.7729,8.25,32.875,51.0625,306.0625,-24.875,159.0,0
1776974412.801,8.5545,2.3942,-0.8811,-0.1191,0.3864,-0.7592,-81.45,42.45,-0.15,10.2711,-0.8428,1.0918,2.768,-0.7517,-1.7048,-76.2,19.95,5.85,-2.54,-5.33,-8.57,0.3709,0.1309,-3.0761,8.25,32.875,51.0625,304.4375,-24.1875,158.0625,0
1776974412.808,8.6503,2.6791,-1.0343,-0.0037,0.3283,-0.6923,-80.25,43.8,0.3,10.4555,-1.1133,1.0271,2.8146,-0.7887,-1.7333,-77.25,22.8,4.5,-2.74,-5.27,-8.83,0.3033,0.0196,-3.3227,8.25,32.875,51.0625,302.625,-23.5,157.125,0
1776974412.813,8.6503,2.6791,-1.0343,-0.0037,0.3283,-0.6923,-80.25,43.8,0.3,10.4555,-1.1133,1.0271,2.8146,-0.7887,-1.7333,-75.9,22.95,4.05,-2.74,-5.27,-8.83,0.3033,0.0196,-3.3227,8.25,32.875,51.0625,300.6875,-22.75,156.25,0
1776974412.822,8.5904,2.9521,-1.1325,0.1556,0.3019,-0.6035,-80.7,42.15,-0.45,10.489,-1.1085,1.2426,2.9412,-0.8143,-1.7232,-75.9,22.95,4.05,-3.33,-5.19,-9.45,0.1942,-0.072,-3.4972,8.25,32.875,51.0625,298.6875,-22.0,155.4375,0
1776974412.832,8.5425,3.2633,-1.3384,0.3421,0.3131,-0.4916,-80.7,42.15,-0.45,10.6805,-1.1444,1.6496,3.0683,-0.9902,-1.7102,-75.6,22.05,0.45,-3.98,-4.86,-10.07,0.0633,-0.1364,-3.6096,8.25,32.875,51.0625,298.6875,-22.0,155.4375,0
1776974412.836,8.3773,3.486,-1.3527,0.5079,0.3645,-0.3813,-80.7,42.15,-0.45,10.6566,-1.2186,1.6903,3.1656,-1.097,-1.6774,-75.15,24.15,1.8,-3.98,-4.86,-10.07,0.0633,-0.1364,-3.6096,-1.0625,36.375,48.5,296.625,-21.1875,154.75,0
1776974412.842,8.3773,3.486,-1.3527,0.5079,0.3645,-0.3813,-79.65,42.45,-0.75,10.6566,-1.2186,1.6903,3.1656,-1.097,-1.6774,-75.15,24.15,1.8,-4.6,-4.71,-10.49,-0.0447,-0.1353,-3.7121,-1.0625,36.375,48.5,296.625,-21.1875,154.75,0
1776974412.846,8.2959,3.7517,-1.1157,0.7194,0.388,-0.2958,-79.65,43.2,-1.95,10.4842,-1.233,1.5347,3.1509,-1.1652,-1.6212,-75.15,24.15,1.8,-4.6,-4.71,-10.49,-0.0447,-0.1353,-3.7121,-1.0625,36.375,48.5,294.5,-20.3125,154.0625,0
1776974412.851,8.2959,3.7517,-1.1157,0.7194,0.388,-0.2958,-79.65,43.2,-1.95,10.4842,-1.233,1.5347,3.1509,-1.1652,-1.6212,-75.15,24.15,1.8,-4.71,-4.62,-10.53,-0.1385,-0.0087,-3.8223,-1.0625,36.375,48.5,294.5,-20.3125,154.0625,0
1776974412.857,8.0565,3.8188,-1.0391,0.9419,0.4053,-0.2286,-79.5,42.0,0.0,10.3501,-1.4509,1.336,3.091,-1.2622,-1.5868,-73.65,25.05,-0.6,-4.71,-4.62,-10.53,-0.2618,0.0949,-3.9084,-1.0625,36.375,48.5,292.3125,-19.3125,153.5625,0
1776974412.862,8.0589,3.8547,-0.9529,1.2406,0.4032,-0.158,-79.5,42.0,0.0,10.3501,-1.4509,1.336,3.091,-1.2622,-1.5868,-73.65,25.05,-0.6,-4.43,-4.21,-10.1,-0.2618,0.0949,-3.9084,-1.0625,36.375,48.5,290.0625,-18.25,153.125,0
1776974412.871,8.0589,3.8547,-0.9529,1.4981,0.4458,-0.061,-79.8,45.0,0.6,10.0054,-1.7573,1.1396,2.9916,-1.3262,-1.5487,-73.65,25.05,-0.6,-4.36,-3.89,-9.67,-0.4025,0.168,-3.9324,-1.0625,36.375,48.5,290.0625,-18.25,153.125,0
1776974412.881,8.2839,3.8978,-0.4238,1.7341,0.5007,0.0533,-79.05,42.75,0.0,9.8665,-2.0423,1.0534,2.8877,-1.4208,-1.541,-71.7,27.0,-3.6,-4.34,-3.57,-9.38,-0.5378,0.1898,-3.8877,-1.0625,36.375,48.5,287.9375,-17.125,152.8125,0
1776974412.886,8.2839,3.8978,-0.4238,1.7341,0.5007,0.0533,-79.05,42.75,0.0,9.8402,-2.2865,0.9649,2.7622,-1.4061,-1.5252,-72.6,26.4,-5.25,-4.34,-3.57,-9.38,-0.5378,0.1898,-3.8877,-1.0625,36.375,48.5,287.9375,-17.125,152.8125,0
1776974412.891,8.6359,3.7421,-0.4477,1.9753,0.3992,0.1663,-79.05,42.75,0.0,9.8402,-2.2865,0.9649,2.7622,-1.4061,-1.5252,-72.6,26.4,-5.25,-4.45,-2.59,-9.11,-0.6327,0.1953,-3.7939,-11.0,34.75,44.875,285.75,-16.0625,152.625,0
1776974412.896,8.6359,3.7421,-0.4477,1.9753,0.3992,0.1663,-81.0,43.8,-1.35,9.3996,-2.399,1.3934,2.6769,-1.3805,-1.5146,-71.25,27.0,-6.6,-4.45,-2.59,-9.11,-0.6327,0.1953,-3.7939,-11.0,34.75,44.875,285.75,-16.0625,152.625,0
1776974412.901,8.3845,3.474,-0.3567,2.1477,0.489,0.2721,-81.0,43.8,-1.35,10.0413,-2.375,1.1253,2.6769,-1.3805,-1.5146,-71.25,27.0,-6.6,-4.69,-2.09,-9.29,-0.6272,0.0862,-3.6346,-11.0,34.75,44.875,283.75,-15.125,152.5,0
1776974412.909,8.3845,3.474,-0.3567,2.1477,0.489,0.2721,-80.1,42.9,-1.5,10.0413,-2.375,1.1253,2.5559,-1.4125,-1.4951,-71.55,29.1,-7.5,-4.68,-2.13,-9.23,-0.588,0.1418,-3.423,-11.0,34.75,44.875,281.8125,-14.1875,152.375,0
1776974412.914,8.339,3.1101,-0.2897,2.2844,0.5287,0.3632,-80.1,42.9,-1.5,10.4746,-2.4924,1.1157,2.4712,-1.4986,-1.4965,-72.0,28.95,-8.4,-4.68,-2.13,-9.23,-0.588,0.1418,-3.423,-11.0,34.75,44.875,280.0625,-13.3125,152.3125,0
1776974412.922,8.4491,2.8683,-0.3807,2.3902,0.4922,0.4149,-81.3,42.3,-2.1,10.386,-2.3703,1.0582,2.3014,-1.5468,-1.4949,-72.0,28.95,-8.4,-4.86,-3.08,-8.9,-0.5072,0.1527,-3.1263,-11.0,34.75,44.875,278.5,-12.5,152.25,0
1776974412.932,8.2361,2.5259,-0.7135,2.3974,0.5132,0.4519,-81.45,42.45,-3.3,10.0437,-2.15,1.2833,2.0579,-1.5564,-1.5012,-70.5,28.5,-11.1,-4.9,-3.18,-8.61,-0.5029,0.12,-2.8023,-11.0,34.75,44.875,278.5,-12.5,152.25,0
1776974412.937,8.2361,2.5259,-0.7135,2.3974,0.5132,0.4519,-81.45,42.45,-3.3,10.0437,-2.15,1.2833,2.0579,-1.5564,-1.5012,-70.5,28.5,-11.1,-4.9,-3.18,-8.61,-0.5029,0.12,-2.8023,-11.0,34.75,44.875,277.0625,-11.8125,152.25,0
1776974412.942,8.3677,1.98,-1.1349,2.3025,0.5534,0.4847,-81.45,42.45,-3.3,9.7516,-1.9944,0.7374,1.7288,-1.5524,-1.493,-70.5,28.5,-11.1,-5.17,-3.1,-8.43,-0.4931,0.0578,-2.5056,-17.75,28.0625,43.5625,277.0625,-11.8125,152.25,0
1776974412.947,8.3677,1.98,-1.1349,2.3025,0.5534,0.4847,-80.55,40.5,-4.5,9.7516,-1.9944,0.7374,1.7288,-1.5524,-1.493,-67.95,30.0,-12.15,-5.17,-3.1,-8.43,-0.4931,0.0578,-2.5056,-17.75,28.0625,43.5625,277.0625,-11.8125,152.25,0
1776974412.952,8.4108,1.5227,-1.7358,2.1783,0.6017,0.5132,-80.55,40.5,-4.5,9.5409,-1.9704,0.6273,1.51,-1.4679,-1.4885,-67.95,30.0,-12.15,-5.84,-2.74,-8.41,-0.4145,-0.036,-2.2722,-17.75,28.0625,43.5625,275.75,-11.25,152.25,0
1776974412.957,8.4108,1.5227,-1.7358,2.1783,0.6017,0.5132,-83.55,41.55,-6.75,9.5409,-1.9704,0.6273,1.51,-1.4679,-1.4885,-67.95,30.0,-12.15,-5.84,-2.74,-8.41,-0.228,-0.0927,-2.1402,-17.75,28.0625,43.5625,274.5625,-10.75,152.1875,0
1776974412.962,8.4898,1.3048,-2.2865,2.0867,0.6139,0.5329,-83.55,41.55,-6.75,9.3589,-1.7214,0.8188,1.3571,-1.376,-1.4288,-67.95,30.0,-12.15,-7.61,-2.88,-8.3,-0.228,-0.0927,-2.1402,-17.75,28.0625,43.5625,273.375,-10.25,152.0,0
1776974412.972,8.5377,1.324,-2.4876,1.9811,0.6323,0.5444,-82.35,40.8,-6.0,9.3111,-1.4365,0.1772,1.2329,-1.2532,-1.3249,-67.35,29.55,-12.75,-8.66,-3.05,-8.14,0.0207,-0.0927,-2.0857,-17.75,28.0625,43.5625,273.375,-10.25,152.0,0
1776974412.982,8.8897,1.3527,-2.7318,1.8154,0.6395,0.5324,-82.2,39.9,-6.45,8.9783,-0.9984,-0.1221,1.1578,-1.0629,-1.1975,-65.85,29.85,-15.3,-9.88,-3.12,-7.92,0.2945,-0.0425,-2.0933,-17.75,28.0625,43.5625,272.25,-9.75,151.625,0
1776974412.987,8.8897,1.3527,-2.7318,1.8154,0.6395,0.5324,-83.55,40.05,-7.05,8.9783,-0.9984,-0.1221,1.1578,-1.0629,-1.1975,-66.15,31.8,-15.6,-9.88,-3.12,-7.92,0.2945,-0.0425,-2.0933,-17.75,28.0625,43.5625,271.0625,-9.125,151.125,0
1776974412.992,8.9663,1.6783,-3.0789,1.6832,0.7,0.4924,-83.55,40.05,-7.05,8.7245,-0.5507,-0.3496,1.0195,-0.8572,-1.0539,-66.15,31.8,-15.6,-10.79,-3.41,-6.17,0.5585,0.0753,-2.1664,-21.0,24.5,39.6875,271.0625,-9.125,151.125,0
1776974412.997,8.9663,1.6783,-3.0789,1.6832,0.7,0.4924,-83.55,40.05,-7.05,8.7245,-0.5507,-0.3496,1.0195,-0.8572,-1.0539,-65.1,29.85,-15.6,-10.79,-3.41,-6.17,0.5585,0.0753,-2.1664,-21.0,24.5,39.6875,269.875,-8.4375,150.5625,0
1776974413.002,7.003,1.8603,-3.0191,1.432,1.1293,0.4962,-83.55,40.05,-7.05,9.0381,-0.7446,-0.5914,0.8434,-0.777,-0.9308,-65.1,29.85,-15.6,-10.74,-3.53,-5.04,0.7669,0.1745,-2.258,-21.0,24.5,39.6875,269.875,-8.4375,150.5625,0
1776974413.01,12.7779,2.8419,-5.0326,1.2508,0.9971,0.5319,-83.7,38.7,-7.2,7.8506,-0.3519,-0.3424,0.765,-0.4495,-0.7877,-65.55,31.2,-16.95,-10.87,-3.42,-4.05,0.8738,0.1593,-2.3006,-21.0,24.5,39.6875,268.6875,-7.75,149.9375,0
1776974413.015,12.7779,2.8419,-5.0326,1.2508,0.9971,0.5319,-84.75,37.95,-6.45,7.8506,-0.3519,-0.3424,0.765,-0.4495,-0.7877,-64.65,30.6,-16.35,-10.87,-3.42,-4.05,0.8738,0.1593,-2.3006,-21.0,24.5,39.6875,267.4375,-7.0625,149.25,0
1776974413.022,9.9335,3.3519,-4.6639,1.092,0.8231,0.5172,-84.75,37.95,-6.45,7.4771,-0.5866,0.8164,0.7139,-0.1719,-0.5995,-64.65,30.6,-16.35,-11.4,-2.24,-2.74,0.9065,0.0175,-2.2646,-21.0,24.5,39.6875,266.25,-6.5625,148.625,0
1776974413.032,10.5129,3.6512,-4.7022,0.9926,0.2771,0.4815,-85.05,36.15,-7.2,7.8314,-0.2394,0.8763,0.5588,0.1569,-0.4263,-64.65,30.6,-16.35,-11.72,-1.49,-2.33,0.949,-0.2138,-2.1598,-21.0,24.5,39.6875,266.25,-6.5625,148.625,0
1776974413.037,9.8186,3.9433,-4.7908,0.951,0.6787,0.421,-84.9,38.25,-6.75,7.8769,0.316,1.4916,0.4708,0.4066,-0.239,-63.9,29.85,-16.8,-11.72,-1.49,-2.33,0.949,-0.2138,-2.1598,-21.0,24.5,39.6875,266.25,-6.5625,148.625,0
1776974413.042,9.8186,3.9433,-4.7908,0.951,0.6787,0.421,-84.9,38.25,-6.75,7.8769,0.316,1.4916,0.4708,0.4066,-0.239,-63.9,29.85,-16.8,-11.69,-0.79,-2.04,1.0439,-0.4647,-1.9984,-22.0625,22.875,35.6875,265.125,-6.1875,147.9375,0
1776974413.047,9.7755,4.1587,-4.3215,0.9033,0.837,0.3509,-84.9,38.25,-6.75,8.3438,1.1325,1.7789,0.3866,0.6563,-0.0775,-66.15,30.3,-16.05,-11.69,-0.79,-2.04,1.0439,-0.4647,-1.9984,-22.0625,22.875,35.6875,265.125,-6.1875,147.9375,0
1776974413.052,9.7755,4.1587,-4.3215,0.9033,0.837,0.3509,-84.9,38.25,-6.75,8.3438,1.1325,1.7789,0.3866,0.6563,-0.0775,-66.15,30.3,-16.05,-8.76,-4.58,-4.26,1.0919,-0.7592,-1.8337,-22.0625,22.875,35.6875,264.0,-6.0,147.1875,0
1776974413.057,9.6558,4.1061,-4.0127,0.8386,0.9292,0.2923,-84.9,36.0,-7.8,9.0118,1.8316,0.9337,0.3808,0.8098,0.1359,-65.25,30.9,-16.95,-8.76,-4.58,-4.26,0.0469,-1.8042,-1.537,-22.0625,22.875,35.6875,262.875,-6.375,147.0625,0
1776974413.063,9.6558,4.1061,-4.0127,0.8386,0.9292,0.2923,-85.35,36.0,-8.55,9.0118,1.8316,0.9337,0.3808,0.8098,0.1359,-65.25,30.9,-16.95,-10.24,-3.16,1.06,0.0469,-1.8042,-1.537,-22.0625,22.875,35.6875,261.9375,-7.375,147.5,0
1776974413.072,9.6031,3.9385,-3.2848,0.6363,0.8916,0.2486,-85.35,36.0,-8.55,8.9926,1.9441,0.4453,0.6161,0.6702,0.377,-64.65,31.05,-15.6,-6.99,-0.1,-2.48,-1.1486,-2.6049,-0.8661,-22.0625,22.875,35.6875,260.9375,-8.5,148.4375,0
1776974413.082,9.6199,3.3591,-1.8747,0.2683,0.8671,0.2481,-84.6,36.0,-5.25,8.9112,2.7102,0.9673,0.9707,0.8327,0.4519,-65.25,29.7,-15.15,-2.29,-0.35,-9.07,-1.9057,-2.9703,-0.745,-22.0625,22.875,35.6875,260.9375,-8.5,148.4375,0
1776974413.087,9.5457,2.5618,-0.4525,-0.332,0.8671,0.2675,-84.6,36.0,-5.25,10.1251,4.0965,-1.2929,0.5822,0.9443,0.2406,-65.25,30.0,-14.7,-2.29,-0.35,-9.07,-1.9057,-2.9703,-0.745,-22.0625,22.875,35.6875,259.8125,-9.625,149.3125,0
1776974413.092,9.5457,2.5618,-0.4525,-0.332,0.8671,0.2675,-84.6,36.0,-5.25,10.1251,4.0965,-1.2929,0.5822,0.9443,0.2406,-65.25,30.0,-14.7,-4.97,-10.79,-11.1,-2.0071,-2.978,-1.0221,-22.5,22.25,35.25,259.8125,-9.625,149.3125,0
1776974413.097,8.9016,2.0207,0.7542,-0.9585,0.8124,0.2273,-84.6,36.0,-5.25,11.4371,5.1044,-3.6727,0.0584,0.6214,-0.0104,-65.25,30.0,-14.7,-4.97,-10.79,-11.1,-2.0071,-2.978,-1.0221,-22.5,22.25,35.25,258.8125,-10.625,150.125,0
1776974413.102,8.9016,2.0207,0.7542,-0.9585,0.8124,0.2273,-84.6,36.0,-5.25,11.4371,5.1044,-3.6727,0.0584,0.6214,-0.0104,-65.25,30.0,-14.7,-3.45,-7.66,-10.22,-1.8893,-2.5984,-0.9927,-22.5,22.25,35.25,258.8125,-10.625,150.125,0
1776974413.111,8.5258,1.7669,1.4365,-1.3691,0.8543,0.1743,-84.6,36.0,-5.25,11.0492,4.2114,-3.4237,0.3501,0.2086,-0.1609,-65.4,27.45,-14.55,-2.96,-2.62,-9.02,-1.8315,-2.1566,-0.6043,-22.5,22.25,35.25,258.0625,-11.5,151.0,0
1776974413.117,8.3989,1.7262,1.3312,-1.5484,0.8362,0.1919,-84.75,34.2,-4.8,9.7444,1.8771,-3.0813,1.0778,0.0882,-0.1463,-65.4,27.45,-14.55,-2.96,-2.62,-9.02,-1.862,-1.8904,-0.1756,-22.5,22.25,35.25,257.5625,-12.375,151.875,0
1776974413.123,8.3989,1.7262,1.3312,-1.5484,0.8362,0.1919,-84.45,34.65,-2.55,9.3111,0.5291,-5.6982,1.0778,0.0882,-0.1463,-65.4,27.45,-14.55,-2.19,3.48,-9.88,-1.862,-1.8904,-0.1756,-22.5,22.25,35.25,257.3125,-13.3125,152.875,0
1776974413.132,9.007,2.5522,0.8787,-1.1402,0.7392,0.311,-84.9,35.25,-3.9,10.9654,-0.431,-9.6199,1.3808,0.1343,-0.0051,-66.0,28.95,-14.4,-1.6,6.0,-11.98,-1.886,-1.8119,0.2051,-22.5,22.25,35.25,257.3125,-13.3125,152.875,0
1776974413.137,10.3837,3.1101,-0.3807,-0.3661,0.6726,0.5276,-84.9,35.25,-3.9,10.9654,-0.431,-9.6199,1.2009,0.2212,0.1335,-64.35,27.45,-15.3,-1.6,6.0,-11.98,-1.886,-1.8119,0.2051,-22.5,22.25,35.25,257.1875,-14.25,153.625,0
1776974413.142,10.3837,3.1101,-0.3807,-0.3661,0.6726,0.5276,-84.0,34.65,-3.3,12.0309,-2.4565,-7.5968,1.2009,0.2212,0.1335,-64.35,27.45,-15.3,-2.4,8.13,-13.75,-1.4377,-1.7377,0.3752,-19.5625,17.25,38.375,257.1875,-14.25,153.625,0
1776974413.147,12.2009,3.486,-1.8124,0.5079,0.502,0.7168,-84.0,34.65,-3.3,12.0309,-2.4565,-7.5968,0.9606,0.1913,0.1879,-66.3,28.05,-13.95,-2.4,8.13,-13.75,-1.4377,-1.7377,0.3752,-19.5625,17.25,38.375,257.1875,-14.25,153.625,0
1776974413.152,12.2009,3.486,-1.8124,0.5079,0.502,0.7168,-84.0,34.65,-3.3,11.734,-3.7781,-4.5969,0.9606,0.1913,0.1879,-66.3,28.05,-13.95,-4.3,6.3,-13.31,-0.5596,-1.765,0.4625,-19.5625,17.25,38.375,257.1875,-15.25,153.875,0
1776974413.156,13.7355,3.2633,-2.9999,1.1866,0.3635,0.8492,-84.0,34.65,-3.3,11.734,-3.7781,-4.5969,0.5796,0.1588,0.2585,-65.55,27.75,-14.4,-4.3,6.3,-13.31,-0.0524,-1.7791,0.8127,-19.5625,17.25,38.375,257.4375,-16.3125,153.875,0
1776974413.163,14.8991,3.2968,-3.6081,1.7611,0.2028,0.9534,-85.05,34.65,-3.0,10.8816,-2.8754,-1.5562,-0.0544,0.5353,0.3056,-65.55,27.75,-14.4,-8.24,-0.57,-13.41,-0.0524,-1.7791,0.8127,-19.5625,17.25,38.375,257.8125,-17.375,153.8125,0
1776974413.172,15.3205,3.8499,-3.7972,2.2801,0.0786,0.9734,-84.9,33.0,-5.25,11.5424,-0.1987,0.747,-0.8575,1.084,0.3232,-65.4,27.15,-14.55,-13.84,-12.4,-13.12,0.1342,-1.6242,1.0199,-19.5625,17.25,38.375,257.8125,-17.375,153.8125,0
1776974413.182,13.2519,4.7812,-3.7804,2.5114,-0.036,0.7802,-84.9,32.55,-7.05,12.4642,1.2282,1.0199,-0.7192,1.3081,0.3925,-65.55,27.0,-14.4,-9.43,-11.75,-9.11,-0.0076,-1.225,0.9316,-19.5625,17.25,38.375,258.125,-18.25,153.875,0
1776974413.187,13.2519,4.7812,-3.7804,2.5114,-0.036,0.7802,-84.9,32.55,-7.05,12.4642,1.2282,1.0199,-0.7192,1.3081,0.3925,-65.55,27.0,-14.4,-9.43,-11.75,-9.11,-0.0076,-1.225,0.9316,-19.5625,17.25,38.375,258.125,-18.25,153.875,0
1776974413.192,10.2735,4.4748,-3.0909,1.9918,0.1945,0.4117,-83.25,33.45,-9.0,13.3525,3.1101,-0.2921,-0.2009,1.0032,0.4554,-65.55,27.0,-14.4,-3.35,-1.77,-9.1,-0.1178,-0.5738,0.5509,-15.875,13.6875,40.375,258.375,-18.625,154.0,0
1776974413.197,10.2735,4.4748,-3.0909,1.9918,0.1945,0.4117,-83.25,33.45,-9.0,13.3525,3.1101,-0.2921,-0.2009,1.0032,0.4554,-66.3,27.75,-13.2,-3.35,-1.77,-9.1,-0.1178,-0.5738,0.5509,-15.875,13.6875,40.375,258.375,-18.625,154.0,0
1776974413.202,8.8585,2.7461,-1.2761,0.878,0.5966,0.1167,-83.25,33.45,-9.0,11.4347,4.3287,0.2083,0.5678,0.4679,0.4146,-66.3,27.75,-13.2,-7.71,-2.85,-11.81,-0.2411,-0.781,0.6065,-15.875,13.6875,40.375,258.5625,-19.1875,154.1875,0
1776974413.21,7.7045,0.8547,0.5148,-0.3312,0.9241,-0.0168,-84.15,33.45,-9.0,8.8849,4.4053,0.8811,0.955,0.1362,0.4162,-66.3,27.75,-13.2,-5.9,-2.96,-9.8,-0.18,-0.6578,0.4941,-15.875,13.6875,40.375,258.75,-19.625,154.3125,0
1776974413.215,7.7045,0.8547,0.5148,-0.3312,0.9241,-0.0168,-84.15,33.75,-5.25,8.8849,4.4053,0.8811,0.955,0.1362,0.4162,-66.3,27.75,-13.2,-5.9,-2.96,-9.8,-0.18,-0.6578,0.4941,-15.875,13.6875,40.375,258.875,-19.875,154.375,0
1776974413.223,7.6806,-0.8763,1.8387,-1.2153,1.0408,-0.0304,-85.05,33.9,-5.85,7.671,3.6895,0.8068,1.0864,0.0938,0.4002,-67.35,26.7,-13.5,-3.25,-4.1,-7.91,-0.0807,-0.3262,0.2596,-15.875,13.6875,40.375,258.9375,-20.0625,154.375,0
1776974413.232,7.9152,-1.5921,2.4517,-1.3107,1.0957,-0.0506,-84.9,34.05,-5.7,7.7165,1.8124,1.5155,0.8116,0.3459,0.3912,-66.3,27.0,-13.65,-4.16,-4.0,-8.58,-0.0273,-0.2836,0.2214,-15.875,13.6875,40.375,258.9375,-20.0625,154.375,0
1776974413.237,7.9152,-1.5921,2.4517,-1.3107,1.0957,-0.0506,-84.9,34.05,-5.7,7.7165,1.8124,1.5155,0.8116,0.3459,0.3912,-67.65,25.5,-13.05,-4.16,-4.0,-8.58,-0.0273,-0.2836,0.2214,-15.875,13.6875,40.375,259.0,-20.25,154.4375,0
1776974413.242,7.7189,-1.8794,3.0478,-0.81,0.8601,0.1108,-84.9,34.8,-3.9,8.8969,-0.3567,1.1756,0.5758,0.458,0.3925,-67.65,25.5,-13.05,-3.74,-3.65,-8.25,-0.0153,-0.2618,0.2018,-14.0625,14.1875,39.5625,259.0,-20.25,154.4375,0
1776974413.247,7.7189,-1.8794,3.0478,-0.81,0.8601,0.1108,-84.9,34.8,-3.9,9.7779,-1.5993,-0.0575,0.5758,0.458,0.3925,-69.0,25.8,-14.7,-3.74,-3.65,-8.25,-0.0153,-0.2618,0.2018,-14.0625,14.1875,39.5625,259.0625,-20.375,154.5,0
1776974413.252,7.6638,-1.7957,3.5817,-0.1681,0.5865,0.4002,-86.4,33.0,-2.4,9.7779,-1.5993,-0.0575,0.2126,0.5241,0.3389,-69.0,25.8,-14.7,-3.33,-4.55,-8.0,-0.0709,-0.2378,0.1844,-14.0625,14.1875,39.5625,259.0625,-20.375,154.5,0
1776974413.257,7.6638,-1.7957,3.5817,-0.1681,0.5865,0.4002,-86.4,33.0,-2.4,10.2352,-1.6568,-0.4453,0.2126,0.5241,0.3389,-67.95,25.05,-13.95,-3.33,-4.55,-8.0,-0.0829,-0.2498,0.1931,-14.0625,14.1875,39.5625,259.1875,-20.5625,154.5625,0
1776974413.263,7.9057,-1.1516,2.8036,-0.0983,0.5769,0.6654,-86.4,33.0,-2.4,10.2352,-1.6568,-0.4453,-0.1002,0.558,0.2926,-67.95,25.05,-13.95,-3.86,-3.44,-8.64,-0.0829,-0.2498,0.1931,-14.0625,14.1875,39.5625,259.1875,-20.75,154.5625,0
1776974413.272,9.3972,-0.7183,1.47,-0.2627,0.547,0.789,-85.8,31.95,-2.55,10.1969,-0.8811,-0.8332,-0.4333,0.5868,0.2494,-67.95,26.1,-11.85,-4.21,-3.19,-8.88,-0.0502,-0.3185,0.1865,-14.0625,14.1875,39.5625,259.1875,-20.75,154.5625,0
1776974413.282,9.8234,-0.5124,0.6416,-0.4143,0.1466,0.8146,-85.8,30.15,-1.95,9.73,0.2179,-0.6153,-0.6853,0.5209,0.2268,-67.95,26.1,-11.85,-4.02,-3.4,-8.56,-0.0654,-0.2334,0.1473,-14.0625,14.1875,39.5625,259.25,-20.9375,154.625,0
1776974413.287,9.8234,-0.5124,0.6416,-0.4143,0.1466,0.8146,-85.8,30.15,-1.95,9.2129,1.1588,-0.5914,-0.8577,0.4759,0.2092,-68.25,26.1,-11.85,-4.02,-3.4,-8.56,-0.0654,-0.2334,0.1473,-14.0625,14.1875,39.5625,259.25,-20.9375,154.625,0
1776974413.292,9.8019,0.2538,0.0431,-0.3285,0.1276,0.7949,-85.95,29.25,-2.1,9.2129,1.1588,-0.5914,-0.8577,0.4759,0.2092,-68.25,24.15,-11.4,-3.43,-3.55,-8.22,0.0044,-0.1593,0.1145,-13.6875,13.75,38.875,259.3125,-21.0625,154.625,0
1776974413.297,9.8019,0.2538,0.0431,-0.0951,0.2049,0.6984,-85.95,29.25,-2.1,9.0477,1.9513,-0.7207,-0.8855,0.4916,0.2236,-68.25,24.15,-11.4,-3.43,-3.55,-8.22,0.0044,-0.1593,0.1145,-13.6875,13.75,38.875,259.3125,-21.0625,154.625,0
1776974413.302,9.2608,1.5347,0.2059,-0.0951,0.2049,0.6984,-85.5,27.9,-3.0,9.0477,1.9513,-0.7207,-0.8855,0.4916,0.2236,-68.25,24.15,-11.4,-3.33,-3.73,-8.1,-0.0011,-0.1429,0.1113,-13.6875,13.75,38.875,259.375,-21.125,154.625,0
1776974413.31,9.6678,2.5905,0.1245,0.0797,0.3118,0.5881,-85.5,27.9,-3.0,9.0166,2.7461,-1.2713,-0.7719,0.5353,0.2337,-67.35,24.75,-9.3,-3.53,-3.86,-8.04,-0.0425,-0.18,0.1353,-13.6875,13.75,38.875,259.375,-21.25,154.6875,0
1776974413.315,9.6678,2.5905,0.1245,0.0797,0.3118,0.5881,-85.5,27.9,-3.0,9.0764,2.9832,-1.5897,-0.7719,0.5353,0.2337,-67.35,24.75,-9.3,-3.53,-3.86,-8.04,-0.0425,-0.18,0.1353,-13.6875,13.75,38.875,259.4375,-21.375,154.6875,0
1776974413.323,9.5553,3.3184,-0.2514,0.2542,0.4466,0.5231,-84.6,27.0,-1.05,9.0764,2.9832,-1.5897,-0.4511,0.5364,0.2286,-67.65,24.75,-10.8,-3.77,-3.8,-8.18,-0.0753,-0.2051,0.156,-13.6875,13.75,38.875,259.5,-21.5,154.8125,0
1776974413.333,9.481,3.6105,-0.7063,0.2769,0.4975,0.4994,-85.65,26.55,-2.85,9.0381,2.9568,-1.506,0.0125,0.494,0.2329,-68.7,24.6,-10.65,-3.41,-3.6,-8.12,-0.0993,-0.1844,0.1538,-13.6875,13.75,38.875,259.5,-21.5,154.8125,0
1776974413.337,9.2129,3.6799,-0.8619,0.3371,0.5332,0.5132,-85.65,26.55,-2.85,9.0166,2.4014,-1.087,0.4378,0.5199,0.2206,-68.7,24.6,-10.65,-3.41,-3.6,-8.12,-0.0993,-0.1844,0.1538,-13.6875,13.75,38.875,259.5625,-21.6875,154.875,0
1776974413.343,9.2129,3.6799,-0.8619,0.3371,0.5332,0.5132,-85.35,25.05,-3.45,9.0166,2.4014,-1.087,0.4378,0.5199,0.2206,-69.0,24.15,-10.35,-3.3,-3.64,-8.06,-0.1233,-0.1898,0.1614,-12.5,14.1875,40.0,259.5625,-21.6875,154.875,0
1776974413.347,9.1075,3.3399,-0.9122,0.4279,0.6334,0.5753,-85.35,25.05,-3.45,9.2057,1.7023,-0.3232,0.7709,0.5183,0.2012,-69.0,24.15,-10.35,-3.3,-3.64,-8.06,-0.1233,-0.1898,0.1614,-12.5,14.1875,40.0,259.625,-21.8125,154.9375,0
1776974413.352,9.1075,3.3399,-0.9122,0.4279,0.6334,0.5753,-85.8,24.9,-3.3,9.2057,1.7023,-0.3232,0.7709,0.5183,0.2012,-69.0,24.15,-10.35,-3.54,-3.36,-8.22,-0.1473,-0.2542,0.1865,-12.5,14.1875,40.0,259.625,-21.8125,154.9375,0
1776974413.357,8.8442,3.0071,-0.4142,0.6947,0.7421,0.6182,-84.0,25.65,-2.25,9.4332,1.3455,0.4525,0.9582,0.5215,0.1663,-69.0,24.15,-10.35,-3.54,-3.36,-8.22,-0.1822,-0.3054,0.2083,-12.5,14.1875,40.0,259.6875,-22.0625,155.0625,0
1776974413.363,8.8442,3.0071,-0.4142,0.6947,0.7421,0.6182,-84.0,25.65,-2.25,9.7779,1.2977,0.6871,0.9292,0.5148,0.126,-68.25,23.85,-11.1,-3.81,-3.63,-8.23,-0.1822,-0.3054,0.2083,-12.5,14.1875,40.0,259.6875,-22.0625,155.0625,0
1776974413.372,9.2919,2.4732,0.3041,0.9073,0.8777,0.6805,-84.0,25.65,-2.25,10.3118,1.008,1.0343,0.9292,0.5148,0.126,-68.25,23.85,-11.1,-3.89,-3.85,-8.19,-0.2258,-0.3316,0.2171,-12.5,14.1875,40.0,259.75,-22.25,155.25,0
1776974413.381,9.7276,1.9393,1.1732,1.1602,0.8412,0.7314,-84.15,25.5,-3.15,10.3118,1.008,1.0343,0.9276,0.4517,0.0959,-68.7,23.85,-10.65,-3.92,-4.02,-8.23,-0.252,-0.3382,0.2247,-12.5,14.1875,40.0,259.8125,-22.5,155.375,0
1776974413.386,9.8928,1.3982,2.047,1.3779,0.8796,0.7488,-84.15,25.5,-3.15,10.3142,0.9002,1.0391,0.9337,0.4407,0.1124,-68.7,23.85,-10.65,-3.92,-4.02,-8.23,-0.252,-0.3382,0.2247,-12.5,14.1875,40.0,259.8125,-22.5,155.375,0
1776974413.391,9.8928,1.3982,2.047,1.3779,0.8796,0.7488,-85.35,24.0,-0.6,10.3142,0.9002,1.0391,0.9337,0.4407,0.1124,-70.05,23.55,-10.8,-4.65,-3.34,-8.66,-0.2553,-0.3774,0.2138,-12.1875,13.75,40.75,259.8125,-22.75,155.5,0
1776974413.395,9.924,0.9553,2.8036,1.5695,0.8543,0.716,-85.35,24.0,-0.6,10.2065,0.9242,1.0223,0.845,0.3949,0.1069,-70.05,23.55,-10.8,-4.65,-3.34,-8.66,-0.2553,-0.3774,0.2138,-12.1875,13.75,40.75,259.8125,-22.75,155.5,0
1776974413.4,9.924,0.9553,2.8036,1.5695,0.8543,0.716,-86.7,24.0,-2.1,10.2065,0.9242,1.0223,0.845,0.3949,0.1069,-69.75,22.95,-10.65,-4.78,-3.46,-8.66,-0.2411,-0.3502,0.1811,-12.1875,13.75,40.75,259.875,-22.9375,155.6875,0
1776974413.405,9.5624,0.5626,3.4093,1.7277,0.8503,0.6784,-86.7,24.0,-2.1,9.9216,0.8021,0.6919,0.6622,0.3717,0.109,-69.75,22.95,-10.65,-4.78,-3.46,-8.66,-0.2411,-0.3502,0.1811,-12.1875,13.75,40.75,259.875,-23.125,155.8125,0
1776974413.413,9.5624,0.5626,3.4093,1.7277,0.8503,0.6784,-84.6,23.55,-1.35,9.7659,0.9649,0.6488,0.4258,0.3611,0.1263,-69.0,22.2,-11.85,-4.64,-3.36,-8.63,-0.204,-0.2814,0.1418,-12.1875,13.75,40.75,259.9375,-23.25,155.875,0
1776974413.422,9.5385,0.3783,3.6344,1.7944,0.8636,0.5998,-84.6,23.55,-1.35,9.6295,1.482,0.3903,0.1649,0.3565,0.1375,-69.0,20.7,-11.1,-4.33,-3.22,-8.56,-0.1811,-0.1844,0.1025,-12.1875,13.75,40.75,259.9375,-23.25,155.875,0
1776974413.432,9.4547,0.2083,3.4285,1.5942,0.8695,0.4221,-85.35,22.8,-1.35,9.5098,2.2841,-0.2562,-0.0208,0.3858,0.1791,-69.6,21.6,-11.25,-4.18,-3.42,-8.38,-0.1756,-0.1265,0.0731,-12.1875,13.75,40.75,259.9375,-23.3125,156.0,0
1776974413.437,9.4715,0.2897,2.9784,1.5942,0.8695,0.4221,-84.0,22.95,-1.5,9.5098,2.2841,-0.2562,-0.0208,0.3858,0.1791,-69.6,21.6,-11.25,-4.18,-3.42,-8.38,-0.1756,-0.1265,0.0731,-12.1875,13.75,40.75,259.9375,-23.3125,156.0,0
1776974413.442,9.7707,0.2801,2.3631,1.3723,0.7405,0.3501,-84.0,22.95,-1.5,9.3637,2.8036,-0.4693,-0.0549,0.4069,0.2313,-69.6,21.6,-11.25,-4.13,-3.54,-8.27,-0.1811,-0.0851,0.06,-11.0625,13.0,40.0,259.9375,-23.375,156.125,0
1776974413.447,9.7707,0.2801,2.3631,1.3723,0.7405,0.3501,-85.65,22.5,-3.45,9.3637,2.8036,-0.4693,-0.0549,0.4069,0.2313,-69.6,21.6,-11.25,-4.13,-3.54,-8.27,-0.1811,-0.0851,0.06,-11.0625,13.0,40.0,259.9375,-23.375,156.125,0
1776974413.452,9.9072,0.3089,1.391,1.1029,0.6734,0.2798,-85.65,22.5,-3.45,9.2967,3.0454,-0.4094,-0.0045,0.4421,0.2758,-70.2,22.65,-9.15,-4.04,-3.57,-8.22,-0.1756,-0.0676,0.0578,-11.0625,13.0,40.0,259.9375,-23.4375,156.1875,0
1776974413.457,9.9072,0.3089,1.391,1.1029,0.6734,0.2798,-85.8,22.2,-1.2,9.2967,3.0454,-0.4094,-0.0045,0.4421,0.2758,-70.2,22.65,-9.15,-4.04,-3.57,-8.22,-0.18,-0.0524,0.0644,-11.0625,13.0,40.0,259.9375,-23.4375,156.3125,0
1776974413.463,10.1251,0.5243,0.3998,0.7853,0.6179,0.2364,-85.8,22.2,-1.2,9.3733,3.1053,-0.2753,0.0879,0.4618,0.3219,-70.2,22.65,-9.15,-4.05,-3.31,-8.37,-0.18,-0.0524,0.0644,-11.0625,13.0,40.0,259.9375,-23.5,156.4375,0
1776974413.473,10.2544,0.7757,-0.2705,0.538,0.5692,0.194,-85.35,21.3,-1.35,9.4739,2.8802,-0.1676,0.1639,0.4626,0.3754,-70.5,22.2,-9.6,-4.1,-3.3,-8.37,-0.192,-0.0491,0.0731,-11.0625,13.0,40.0,259.9375,-23.5625,156.5625,0
1776974413.483,9.9551,1.142,-0.3687,0.3403,0.5846,0.1463,-85.35,21.3,-1.35,9.5624,2.4493,-0.0239,0.2118,0.4596,0.4037,-69.0,21.0,-10.35,-4.11,-3.32,-8.33,-0.1963,-0.0393,0.0753,-11.0625,13.0,40.0,259.9375,-23.5625,156.5625,0
1776974413.488,9.9551,1.142,-0.3687,0.3403,0.5846,0.1463,-86.4,22.8,-0.3,9.6438,2.1548,0.2251,0.2118,0.4596,0.4037,-69.0,21.0,-10.35,-4.11,-3.32,-8.33,-0.1963,-0.0393,0.0753,-11.0625,13.0,40.0,260.0,-23.5625,156.6875,0
1776974413.493,9.8043,1.245,-0.6009,0.141,0.5953,0.1074,-86.4,22.8,-0.3,9.6438,2.1548,0.2251,0.2611,0.4269,0.4317,-69.45,21.45,-10.35,-4.02,-3.33,-8.34,-0.1942,-0.0185,0.0764,-11.75,13.375,42.0,260.0,-23.5625,156.6875,0
1776974413.498,9.8043,1.245,-0.6009,0.141,0.5953,0.1074,-88.35,21.45,-0.45,9.5744,1.8603,0.249,0.2494,0.397,0.4604,-69.45,21.45,-10.35,-4.02,-3.33,-8.34,-0.1942,-0.0185,0.0764,-11.75,13.375,42.0,260.0,-23.625,156.8125,0
1776974413.503,9.7636,1.4437,-0.4645,-0.0879,0.5289,0.0845,-88.35,21.45,-0.45,9.5744,1.8603,0.249,0.2494,0.397,0.4604,-70.35,19.65,-7.95,-4.13,-3.24,-8.33,-0.1854,-0.0087,0.0764,-11.75,13.375,42.0,260.0,-23.625,156.8125,0
1776974413.508,9.7636,1.4437,-0.4645,-0.0879,0.5289,0.0845,-87.6,21.45,1.2,9.3541,1.6089,0.328,0.203,0.4391,0.462,-70.35,19.65,-7.95,-4.13,-3.24,-8.33,-0.1778,-0.012,0.0785,-11.75,13.375,42.0,260.0,-23.625,156.9375,0
1776974413.514,9.5888,1.6257,-0.3328,-0.2766,0.5423,0.0682,-87.6,21.45,1.2,9.3541,1.6089,0.328,0.203,0.4391,0.462,-70.2,22.2,-9.9,-4.09,-3.27,-8.34,-0.1778,-0.012,0.0785,-11.75,13.375,42.0,260.0,-23.625,156.9375,0
1776974413.522,9.5146,1.6233,-0.0886,-0.3296,0.554,0.0464,-88.35,21.15,-0.15,9.5289,1.336,0.3208,0.1058,0.4277,0.4682,-70.95,20.7,-10.35,-3.98,-3.36,-8.2,-0.1647,-0.0196,0.0807,-11.75,13.375,42.0,260.0625,-23.6875,157.0625,0
1776974413.527,9.5146,1.6233,-0.0886,-0.3296,0.554,0.0464,-88.35,21.15,-0.15,9.5193,1.2091,0.3256,0.0552,0.3834,0.4639,-70.95,20.7,-10.35,-3.98,-3.36,-8.2,-0.1636,-0.0295,0.0873,-11.75,13.375,42.0,260.0625,-23.6875,157.1875,0
1776974413.534,9.2943,2.0806,0.3424,-0.3957,0.5079,0.0344,-88.35,21.15,-0.15,9.5193,1.2091,0.3256,0.0552,0.3834,0.4639,-70.95,20.7,-10.35,-3.99,-3.27,-8.22,-0.1636,-0.0295,0.0873,-11.75,13.375,42.0,260.0625,-23.6875,157.1875,0
1776974413.539,9.2943,2.0806,0.3424,-0.3957,0.5079,0.0344,-89.1,19.2,0.45,9.3374,1.1636,0.1341,-0.0077,0.408,0.4615,-70.95,20.7,-10.35,-3.98,-3.29,-8.22,-0.1691,-0.036,0.0949,-11.75,12.6875,41.5625,260.125,-23.75,157.3125,0
1776974413.544,9.572,1.3575,0.3304,-0.2867,0.458,-0.0229,-89.1,19.2,0.45,9.3374,1.1636,0.1341,-0.0077,0.408,0.4615,-70.95,19.95,-8.1,-3.98,-3.29,-8.22,-0.1691,-0.036,0.0949,-11.75,12.6875,41.5625,260.125,-23.75,157.3125,0
1776974413.549,9.572,1.3575,0.3304,0.081,0.5143,0.0448,-88.5,19.8,-0.6,9.3805,1.0199,0.1915,-0.0445,0.4205,0.4583,-70.95,19.95,-8.1,-3.98,-3.29,-8.22,-0.1833,-0.0404,0.1047,-11.75,12.6875,41.5625,260.125,-23.8125,157.4375,0
1776974413.554,9.1482,0.3855,1.743,0.081,0.5143,0.0448,-88.5,19.8,-0.6,9.3805,1.0199,0.1915,-0.0445,0.4205,0.4583,-70.95,19.95,-8.1,-4.02,-3.23,-8.23,-0.1833,-0.0404,0.1047,-11.75,12.6875,41.5625,260.125,-23.8125,157.4375,0
1776974413.558,8.8849,1.1947,3.0694,0.5188,0.563,0.1644,-87.9,19.5,0.6,9.3422,0.8835,0.0814,-0.093,0.4088,0.466,-70.95,19.95,-8.1,-4.02,-3.23,-8.23,-0.2007,-0.0436,0.1145,-11.75,12.6875,41.5625,260.1875,-23.8125,157.5625,0
1776974413.564,8.8849,1.1947,3.0694,0.5188,0.563,0.1644,-88.8,19.5,0.6,9.3422,0.8835,0.0814,-0.093,0.4088,0.466,-70.95,20.7,-8.4,-4.15,-3.17,-8.25,-0.2007,-0.0436,0.1145,-11.75,12.6875,41.5625,260.1875,-23.8125,157.5625,0
1776974413.573,9.0573,1.7765,2.8395,0.4493,0.4756,0.21,-88.8,18.45,-0.15,9.3063,1.1085,0.0239,-0.1034,0.4415,0.4858,-69.6,19.35,-9.0,-4.18,-3.09,-8.31,-0.2138,-0.0447,0.1167,-11.75,12.6875,41.5625,260.25,-23.875,157.6875,0
1776974413.577,9.0573,1.7765,2.8395,0.2814,0.4303,0.1921,-88.8,18.45,-0.15,9.3518,1.2306,0.1365,-0.0642,0.4599,0.4991,-69.6,19.35,-9.0,-4.18,-3.09,-8.31,-0.2247,-0.0382,0.1145,-11.75,12.6875,41.5625,260.25,-23.9375,157.875,0
1776974413.584,9.1913,1.719,2.3798,0.2814,0.4303,0.1921,-88.8,18.45,-0.15,9.4763,1.3336,0.7015,-0.0642,0.4599,0.4991,-71.1,18.9,-7.5,-4.11,-3.06,-8.33,-0.2247,-0.0382,0.1145,-11.75,12.6875,41.5625,260.25,-23.9375,157.875,0
1776974413.589,9.3302,1.3647,1.8483,0.1844,0.3397,0.1775,-88.8,18.45,-0.15,9.4763,1.3336,0.7015,0.0144,0.4684,0.5012,-71.1,18.9,-7.5,-4.11,-3.06,-8.33,-0.2247,-0.0382,0.1145,-11.75,12.6875,41.5625,260.3125,-24.0,158.0625,0
1776974413.594,9.3302,1.3647,1.8483,0.1844,0.3397,0.1775,-87.6,16.2,0.15,9.6702,1.3934,0.8021,0.1303,0.4301,0.4911,-71.55,19.35,-8.25,-4.01,-3.09,-8.29,-0.2302,-0.0284,0.1069,-11.75,12.6875,41.5625,260.3125,-24.0,158.0625,0
1776974413.599,9.1746,1.233,2.15,0.073,0.2715,0.1828,-87.6,16.2,0.15,9.6702,1.3934,0.8021,0.1303,0.4301,0.4911,-71.55,19.35,-8.25,-4.01,-3.09,-8.29,-0.2302,-0.0284,0.1069,-11.75,12.6875,41.5625,260.3125,-24.0625,158.1875,0
1776974413.604,9.1746,1.233,2.15,0.073,0.2715,0.1828,-88.35,18.15,-1.2,9.4116,1.4916,0.9553,0.2918,0.3952,0.4903,-71.55,18.9,-8.25,-3.99,-3.09,-8.27,-0.2498,-0.0349,0.1145,-11.75,12.6875,41.5625,260.3125,-24.0625,158.1875,0
1776974413.609,9.0405,1.2402,2.5522,0.1564,0.1106,0.2017,-88.35,18.15,-1.2,9.4116,1.4916,0.9553,0.2918,0.3952,0.4903,-71.55,18.9,-8.25,-3.99,-3.09,-8.27,-0.3022,-0.0076,0.1145,-11.75,12.6875,41.5625,260.375,-24.0625,158.4375,0
1776974413.614,9.0405,1.2402,2.5522,0.1564,0.1106,0.2017,-88.35,16.2,-0.45,9.1554,1.2234,1.0247,0.4218,0.4234,0.4986,-72.45,18.3,-7.65,-4.29,-3.17,-8.35,-0.3022,-0.0076,0.1145,-11.75,12.6875,41.5625,260.375,-24.0625,158.4375,0
1776974413.623,9.232,1.3719,2.5522,0.3232,0.1985,0.2145,-88.05,15.45,-0.45,9.5217,0.8068,1.4868,0.4636,0.4533,0.4948,-72.45,18.3,-7.65,-4.1,-2.99,-8.35,-0.3033,0.0033,0.1134,-11.75,12.6875,41.5625,260.375,-24.125,158.625,0
1776974413.628,9.2153,1.3599,2.1691,0.5188,0.3427,0.2188,-88.05,15.45,0.75,9.5217,0.8068,1.4868,0.4636,0.4533,0.4948,-72.45,18.3,-7.65,-4.1,-2.99,-8.35,-0.2913,-0.0218,0.1113,-11.75,12.6875,41.5625,260.375,-24.125,158.8125,0
1776974413.634,9.2153,1.3599,2.1691,0.5188,0.3427,0.2188,-88.05,15.45,0.75,9.9096,0.1844,1.3527,0.3693,0.4679,0.4626,-71.85,19.35,-7.5,-4.04,-3.12,-8.27,-0.2913,-0.0218,0.1113,-11.75,12.6875,41.5625,260.375,-24.125,158.8125,0
1776974413.639,9.414,1.2905,1.8723,0.6134,0.3736,0.2318,-88.05,15.45,0.75,9.9096,0.1844,1.3527,0.3693,0.4679,0.4626,-71.85,19.35,-7.5,-4.04,-3.12,-8.27,-0.3098,-0.0109,0.1058,-10.6875,11.5625,41.5,260.4375,-24.1875,159.0,0
1776974413.644,9.414,1.2905,1.8723,0.6134,0.3736,0.2318,-86.4,16.8,1.05,9.9599,-0.1317,1.6328,0.2862,0.3893,0.4455,-73.65,18.0,-8.4,-3.84,-3.18,-8.23,-0.3098,-0.0109,0.1058,-10.6875,11.5625,41.5,260.4375,-24.1875,159.0,0
1776974413.649,9.5648,1.0678,1.5969,0.6987,0.287,0.2419,-86.4,16.8,1.05,9.9599,-0.1317,1.6328,0.2862,0.3893,0.4455,-73.65,18.0,-8.4,-3.84,-3.18,-8.23,-0.3185,-0.0284,0.1189,-10.6875,11.5625,41.5,260.4375,-24.1875,159.1875,0
1776974413.654,9.5648,1.0678,1.5969,0.6987,0.287,0.2419,-87.45,18.0,1.35,9.9766,-0.1413,1.1229,0.1447,0.3994,0.4543,-73.35,17.4,-7.95,-4.33,-3.03,-8.43,-0.3185,-0.0284,0.1189,-10.6875,11.5625,41.5,260.4375,-24.1875,159.1875,0
1776974413.659,9.4834,0.929,1.6233,0.6742,0.2443,0.2507,-87.45,18.0,1.35,9.9766,-0.1413,1.1229,0.1447,0.3994,0.4543,-73.35,17.4,-7.95,-4.33,-3.03,-8.43,-0.3109,-0.072,0.1254,-10.6875,11.5625,41.5,260.5,-24.25,159.375,0
1776974413.664,9.4834,0.929,1.6233,0.6742,0.2443,0.2507,-87.0,16.65,-0.45,9.8641,0.4764,0.9481,0.0458,0.3946,0.4466,-73.8,18.15,-7.5,-4.04,-3.01,-8.41,-0.3109,-0.072,0.1254,-10.6875,11.5625,41.5,260.5,-24.25,159.375,0
1776974413.673,9.4547,0.7709,1.7765,0.4048,0.546,0.2731,-87.45,17.55,2.4,9.6798,0.8811,0.9361,0.0735,0.3949,0.4418,-73.2,18.3,-7.65,-4.26,-2.86,-8.52,-0.3316,-0.0305,0.1167,-10.6875,11.5625,41.5,260.5,-24.3125,159.625,0
1776974413.683,9.1219,0.6632,2.0949,0.5564,0.4341,0.2625,-87.45,17.55,2.4,9.7588,0.9433,0.8475,0.1111,0.3341,0.4421,-72.6,18.15,-7.5,-4.38,-2.8,-8.56,-0.3142,-0.0665,0.1167,-10.6875,11.5625,41.5,260.5,-24.375,159.8125,0
1776974413.687,9.5146,0.6249,2.2649,0.5915,0.3997,0.2529,-87.45,17.55,2.4,9.7588,0.9433,0.8475,0.1111,0.3341,0.4421,-72.6,18.15,-7.5,-4.38,-2.8,-8.56,-0.3142,-0.0665,0.1167,-10.6875,11.5625,41.5,260.5,-24.375,159.8125,0
1776974413.692,9.5146,0.6249,2.2649,0.5915,0.3997,0.2529,-86.55,15.9,2.4,9.517,0.9361,0.9122,0.1386,0.3275,0.4551,-72.6,18.15,-7.5,-4.33,-2.74,-8.54,-0.2967,-0.0535,0.0993,-11.0625,12.25,41.5625,260.5625,-24.4375,160.0,0
1776974413.697,9.4619,0.656,2.1811,0.5644,0.3453,0.2555,-86.55,15.9,2.55,9.517,0.9361,0.9122,0.1386,0.3275,0.4551,-72.6,18.15,-7.5,-4.33,-2.74,-8.54,-0.2967,-0.0535,0.0993,-11.0625,12.25,41.5625,260.5625,-24.4375,160.0,0
1776974413.702,9.4619,0.656,2.1811,0.5644,0.3453,0.2555,-88.2,16.05,1.65,9.3781,1.0511,1.142,0.1647,0.3459,0.489,-74.4,14.85,-7.35,-4.3,-2.67,-8.59,-0.2738,-0.0425,0.0807,-11.0625,12.25,41.5625,260.5625,-24.4375,160.1875,0
1776974413.707,9.4786,0.7278,2.0207,0.5103,0.3131,0.2513,-88.2,16.05,1.65,9.3781,1.0511,1.142,0.1647,0.3459,0.489,-74.4,14.85,-7.35,-4.3,-2.67,-8.59,-0.2738,-0.0425,0.0807,-11.0625,12.25,41.5625,260.5625,-24.5,160.3125,0
1776974413.714,9.3541,0.8452,1.9465,0.4263,0.2747,0.2358,-87.9,15.0,-0.3,9.6343,0.9792,1.1684,0.1684,0.3765,0.5057,-74.4,14.85,-7.35,-4.26,-2.72,-8.57,-0.2367,-0.0371,0.0633,-11.0625,12.25,41.5625,260.5625,-24.5,160.4375,0
1776974413.723,9.2943,0.9433,1.9872,0.3392,0.2798,0.2142,-87.6,15.9,0.75,9.8809,0.7398,1.0654,0.129,0.3565,0.4983,-73.35,17.7,-6.75,-4.12,-2.84,-8.45,-0.1953,-0.0262,0.0545,-11.0625,12.25,41.5625,260.5625,-24.5,160.4375,0
1776974413.729,9.2943,0.9433,1.9872,0.3392,0.2798,0.2142,-87.6,15.9,0.75,9.7851,0.4022,1.5323,0.1172,0.3227,0.4916,-73.35,17.7,-6.75,-4.12,-2.84,-8.45,-0.1811,-0.0251,0.0524,-11.0625,12.25,41.5625,260.5625,-24.5,160.5625,0
1776974413.734,9.3134,1.1181,1.9776,0.2569,0.2923,0.206,-87.45,14.55,1.05,9.7851,0.4022,1.5323,0.1172,0.3227,0.4916,-73.35,15.45,-6.0,-4.11,-2.89,-8.39,-0.1811,-0.0251,0.0524,-11.0625,12.25,41.5625,260.5625,-24.5,160.5625,0
1776974413.739,9.3134,1.1181,1.9776,0.2569,0.2923,0.206,-87.45,14.55,1.05,9.8138,-0.0024,1.6305,-0.0234,0.3291,0.4871,-73.35,15.45,-6.0,-4.11,-2.89,-8.39,-0.1833,-0.0338,0.0644,-11.5,11.1875,42.0,260.5625,-24.5625,160.6875,0
1776974413.744,9.426,1.087,2.0255,0.1788,0.3363,0.1996,-87.45,14.55,1.05,9.8138,-0.0024,1.6305,-0.0234,0.3291,0.4871,-74.1,16.2,-7.95,-4.04,-2.89,-8.33,-0.1833,-0.0338,0.0644,-11.5,11.1875,42.0,260.5625,-24.5625,160.6875,0
1776974413.749,9.426,1.087,2.0255,0.1788,0.3363,0.1996,-87.45,14.55,1.05,9.7252,-0.1293,1.585,-0.0818,0.3067,0.4948,-74.1,16.2,-7.95,-4.04,-2.89,-8.33,-0.1898,-0.0404,0.0753,-11.5,11.1875,42.0,260.5625,-24.625,160.75,0
1776974413.754,9.2296,1.0175,2.1284,0.1066,0.372,0.2041,-87.0,13.95,0.75,9.7252,-0.1293,1.585,-0.0818,0.3067,0.4948,-73.8,16.5,-6.0,-4.05,-3.0,-8.37,-0.1898,-0.0404,0.0753,-11.5,11.1875,42.0,260.5625,-24.625,160.75,0
1776974413.759,9.2296,1.0175,2.1284,0.1066,0.372,0.2041,-87.0,13.95,0.75,9.663,-0.261,1.494,-0.0426,0.2862,0.5055,-73.8,16.5,-6.0,-4.05,-3.0,-8.37,-0.2018,-0.0513,0.0894,-11.5,11.1875,42.0,260.625,-24.625,160.9375,0
1776974413.764,9.2273,0.8068,2.1835,0.0629,0.4477,0.2254,-88.8,12.45,1.95,9.663,-0.261,1.494,-0.0426,0.2862,0.5055,-73.95,15.6,-7.35,-4.27,-2.75,-8.46,-0.2018,-0.0513,0.0894,-11.5,11.1875,42.0,260.625,-24.625,160.9375,0
1776974413.773,9.335,0.5267,2.2338,0.0314,0.4626,0.2526,-88.8,14.7,2.25,9.7468,-0.3448,1.3719,-0.0786,0.2854,0.4948,-73.35,14.55,-6.0,-4.22,-2.71,-8.49,-0.1985,-0.048,0.0927,-11.5,11.1875,42.0,260.625,-24.6875,161.0625,0
1776974413.778,9.335,0.5267,2.2338,0.0314,0.4626,0.2526,-88.8,14.7,2.25,9.7659,-0.431,1.1301,-0.1087,0.2521,0.4887,-73.35,14.55,-6.0,-4.22,-2.71,-8.49,-0.1887,-0.0425,0.0894,-11.5,11.1875,42.0,260.625,-24.75,161.1875,0
1776974413.784,9.3613,0.3136,2.2553,-0.0064,0.4586,0.2862,-87.0,14.4,1.5,9.7659,-0.431,1.1301,-0.1087,0.2521,0.4887,-73.35,14.55,-6.0,-4.26,-2.64,-8.54,-0.1887,-0.0425,0.0894,-11.5,11.1875,42.0,260.625,-24.75,161.1875,0
1776974413.789,9.3613,0.3136,2.2553,-0.0064,0.4586,0.2862,-87.0,14.4,1.5,9.6127,-0.6776,1.2043,-0.0957,0.2358,0.4916,-73.35,14.55,-6.0,-4.29,-2.55,-8.56,-0.1745,-0.0425,0.084,-11.375,10.5,42.375,260.6875,-24.75,161.3125,0
1776974413.794,9.3494,0.2179,2.2362,-0.0413,0.466,0.3269,-87.0,14.4,1.5,9.6127,-0.6776,1.2043,-0.0957,0.2358,0.4916,-73.95,13.95,-4.8,-4.29,-2.55,-8.56,-0.1745,-0.0425,0.084,-11.375,10.5,42.375,260.6875,-24.75,161.3125,0
1776974413.799,9.3494,0.2179,2.2362,-0.0413,0.466,0.3269,-87.0,14.4,1.5,9.5289,-0.5363,1.3982,-0.0919,0.2529,0.5012,-73.95,13.95,-4.8,-4.4,-2.45,-8.57,-0.156,-0.0415,0.0753,-11.375,10.5,42.375,260.6875,-24.8125,161.375,0
1776974413.804,9.3661,0.2682,2.2194,-0.0738,0.4743,0.3706,-89.4,15.15,1.5,9.6534,-0.0575,1.312,-0.0919,0.2529,0.5012,-73.95,13.95,-4.8,-4.4,-2.45,-8.57,-0.156,-0.0415,0.0753,-11.375,10.5,42.375,260.6875,-24.8125,161.5,0
1776974413.813,9.3565,0.4525,2.1596,-0.0855,0.4309,0.3968,-88.5,13.05,1.65,9.6534,-0.0575,1.312,-0.1258,0.2523,0.5041,-75.15,13.2,-6.15,-4.3,-2.49,-8.56,-0.1385,-0.0349,0.0644,-11.375,10.5,42.375,260.6875,-24.875,161.5625,0
1776974413.823,9.4236,0.7135,2.2458,-0.0466,0.3517,0.4141,-89.7,12.75,1.35,9.6845,0.2011,1.2258,-0.0778,0.2246,0.497,-74.1,14.25,-5.7,-4.22,-2.7,-8.43,-0.1244,-0.0284,0.0513,-11.375,10.5,42.375,260.6875,-24.875,161.5625,0
1776974413.833,9.4547,0.9625,2.1524,-0.0333,0.2958,0.4215,-89.7,13.5,3.9,9.7252,-0.1006,1.5251,-0.0269,0.2217,0.4871,-75.3,12.3,-4.95,-4.19,-2.66,-8.44,-0.12,-0.024,0.0491,-11.375,10.5,42.375,260.75,-24.875,161.625,0
1776974413.838,9.4547,0.9625,2.1524,-0.0333,0.2958,0.4215,-89.7,13.5,3.9,9.7252,-0.1006,1.5251,-0.025,0.2142,0.4959,-75.3,12.3,-4.95,-4.19,-2.66,-8.44,-0.12,-0.024,0.0491,-11.375,10.5,42.375,260.75,-24.875,161.625,0
1776974413.843,9.4786,1.166,2.1284,-0.0136,0.154,0.4189,-88.05,12.9,1.95,9.6223,-0.0359,1.6448,-0.025,0.2142,0.4959,-74.4,12.9,-5.85,-4.18,-2.76,-8.42,-0.1265,-0.0196,0.0556,-10.1875,10.5,41.875,260.75,-24.875,161.75,0
1776974413.848,9.4786,1.166,2.1284,-0.0136,0.154,0.4189,-88.05,12.9,1.95,9.6223,-0.0359,1.6448,-0.0386,0.2481,0.5263,-74.4,12.9,-5.85,-4.18,-2.76,-8.42,-0.1265,-0.0196,0.0556,-10.1875,10.5,41.875,260.75,-24.875,161.75,0
1776974413.853,9.3302,1.4269,2.1069,-0.0192,0.1852,0.4199,-88.05,12.9,1.95,9.8043,0.2921,1.1468,-0.0386,0.2481,0.5263,-74.85,12.3,-4.5,-4.28,-2.63,-8.41,-0.1287,-0.024,0.0589,-10.1875,10.5,41.875,260.75,-24.9375,161.8125,0
1776974413.858,9.3302,1.4269,2.1069,-0.0192,0.1852,0.4199,-88.05,12.9,1.95,9.8043,0.2921,1.1468,-0.0224,0.2262,0.5388,-74.85,12.3,-4.5,-4.28,-2.63,-8.41,-0.1342,-0.0185,0.0622,-10.1875,10.5,41.875,260.75,-24.9375,161.875,0
1776974413.864,9.2751,1.5682,2.0423,-0.0144,0.2068,0.4231,-89.85,12.45,1.95,9.5816,0.5171,1.1349,-0.0245,0.1879,0.5566,-74.1,12.6,-4.95,-4.27,-2.67,-8.5,-0.1342,-0.0185,0.0622,-10.1875,10.5,41.875,260.75,-24.9375,161.875,0
1776974413.873,9.1674,1.7095,2.0542,-0.0045,0.1612,0.4301,-88.05,12.15,3.6,9.5457,0.5507,0.8356,-0.012,0.2145,0.575,-74.1,12.6,-4.95,-4.24,-2.57,-8.46,-0.132,-0.0218,0.0644,-10.1875,10.5,41.875,260.8125,-25.0,162.0,0
1776974413.878,9.1674,1.7095,2.0542,0.0237,0.2622,0.445,-88.05,12.15,3.6,9.5457,0.5507,0.8356,-0.012,0.2145,0.575,-74.1,12.6,-4.95,-4.24,-2.57,-8.46,-0.1276,-0.0153,0.0633,-10.1875,10.5,41.875,260.8125,-25.0,162.0625,0
1776974413.884,9.2225,1.834,1.9082,0.0237,0.2622,0.445,-88.95,12.75,4.95,9.5433,0.6201,0.6704,0.0184,0.2206,0.6142,-74.85,12.3,-6.0,-4.16,-2.63,-8.5,-0.1276,-0.0153,0.0633,-10.1875,10.5,41.875,260.8125,-25.0,162.0625,0
1776974413.889,9.1099,1.8148,1.8842,0.0869,0.2817,0.4482,-89.7,13.05,3.45,9.5433,0.6201,0.6704,0.0184,0.2206,0.6142,-74.85,12.3,-6.0,-4.16,-2.63,-8.5,-0.1276,-0.0153,0.0633,-11.375,9.75,42.6875,260.8125,-25.0,162.1875,0
1776974413.894,9.1099,1.8148,1.8842,0.0869,0.2817,0.4482,-89.7,13.05,3.45,9.5122,0.6536,0.6201,0.0618,0.2289,0.6454,-74.85,12.3,-6.0,-4.21,-2.61,-8.48,-0.1276,-0.024,0.0665,-11.375,9.75,42.6875,260.8125,-25.0,162.1875,0
1776974413.899,9.3254,1.8004,1.7166,0.1561,0.3557,0.4386,-89.7,13.05,3.45,9.5122,0.6536,0.6201,0.0618,0.2289,0.6454,-74.85,12.3,-6.0,-4.21,-2.61,-8.48,-0.1276,-0.024,0.0665,-11.375,9.75,42.6875,260.875,-25.0625,162.25,0
1776974413.904,9.3254,1.8004,1.7166,0.1561,0.3557,0.4386,-89.7,13.05,3.45,9.3853,0.9792,0.9768,0.0719,0.2435,0.68,-74.4,10.95,-4.35,-4.25,-2.48,-8.6,-0.1265,-0.0295,0.072,-11.375,9.75,42.6875,260.875,-25.0625,162.25,0
1776974413.909,9.3302,1.7238,1.5371,0.1825,0.4674,0.412,-90.0,12.0,3.15,9.3853,0.9792,0.9768,0.0719,0.2435,0.68,-74.4,10.95,-4.35,-4.25,-2.48,-8.6,-0.1156,-0.0295,0.0709,-11.375,9.75,42.6875,260.875,-25.0625,162.375,0
1776974413.914,9.3302,1.7238,1.5371,0.1825,0.4674,0.412,-90.0,12.0,3.15,9.3063,1.2234,0.7326,0.0807,0.2465,0.7336,-73.95,11.7,-3.6,-4.33,-2.4,-8.63,-0.1156,-0.0295,0.0709,-11.375,9.75,42.6875,260.875,-25.0625,162.375,0
1776974413.923,9.3709,1.6759,1.3838,0.2673,0.352,0.3613,-89.4,11.4,4.05,9.1842,1.2139,0.7805,0.0536,0.3024,0.7781,-74.55,11.4,-4.95,-4.29,-2.45,-8.57,-0.1025,-0.0327,0.0654,-11.375,9.75,42.6875,260.875,-25.125,162.4375,0
1776974413.928,9.979,1.5826,1.075,0.2998,0.1402,0.2864,-88.35,11.7,4.35,9.1842,1.2139,0.7805,0.0536,0.3024,0.7781,-74.55,11.4,-4.95,-4.29,-2.45,-8.57,-0.0905,-0.0295,0.0644,-11.375,9.75,42.6875,260.9375,-25.125,162.5,0
1776974413.935,9.979,1.5826,1.075,0.2998,0.1402,0.2864,-88.35,11.7,4.35,8.9519,0.9792,1.0989,0.02,0.437,0.8175,-74.55,12.3,-3.45,-4.11,-2.71,-8.47,-0.0905,-0.0295,0.0644,-11.375,9.75,42.6875,260.9375,-25.125,162.5,0
1776974413.939,9.3111,1.3982,1.4365,0.2819,-0.2057,0.223,-89.4,9.9,3.6,9.5241,0.3735,1.6735,0.02,0.437,0.8175,-74.55,12.3,-3.45,-4.11,-2.71,-8.47,-0.0927,-0.0262,0.0611,-11.0,9.0,42.375,260.9375,-25.1875,162.5625,0
1776974413.944,9.3111,1.3982,1.4365,0.2819,-0.2057,0.223,-89.4,9.9,3.6,9.5241,0.3735,1.6735,-0.0586,0.5486,0.8439,-74.55,12.3,-3.45,-4.06,-2.69,-8.44,-0.0927,-0.0262,0.0611,-11.0,9.0,42.375,260.9375,-25.1875,162.5625,0
1776974413.949,9.3565,1.2474,1.7023,0.1239,0.4202,0.158,-89.4,10.65,3.6,10.5824,-0.4022,1.8268,-0.1306,0.3984,0.8631,-74.55,12.3,-3.45,-4.06,-2.69,-8.44,-0.0971,-0.0305,0.072,-11.0,9.0,42.375,260.9375,-25.1875,162.625,0
1776974413.954,9.3565,1.2474,1.7023,0.1239,0.4202,0.158,-89.4,10.65,3.6,10.5824,-0.4022,1.8268,-0.1306,0.3984,0.8631,-75.45,11.25,-5.1,-4.02,-2.73,-8.48,-0.0971,-0.0305,0.072,-11.0,9.0,42.375,260.9375,-25.1875,162.625,0
1776974413.959,9.979,0.6895,1.8866,-0.0413,0.3027,0.1247,-89.4,10.65,3.6,10.1466,-0.577,1.8627,-0.1266,0.3267,0.9158,-75.45,11.25,-5.1,-4.02,-2.73,-8.48,-0.1145,-0.0425,0.0851,-11.0,9.0,42.375,261.0,-25.25,162.6875,0
1776974413.965,9.979,0.6895,1.8866,-0.1228,-0.0357,0.0911,-89.4,10.65,3.6,10.1466,-0.577,1.8627,-0.1266,0.3267,0.9158,-75.45,11.25,-5.1,-4.3,-2.29,-8.71,-0.1145,-0.0425,0.0851,-11.0,9.0,42.375,261.0,-25.25,162.6875,0
1776974413.973,9.1818,0.2801,2.2745,-0.1228,-0.0357,0.0911,-90.75,10.05,4.2,9.7731,-0.6656,2.0279,-0.1681,0.3107,0.963,-75.45,11.25,-5.1,-4.33,-2.27,-8.72,-0.132,-0.0524,0.0873,-11.0,9.0,42.375,261.0,-25.25,162.8125,0
1776974413.978,9.6247,0.067,2.3391,-0.2912,0.0685,0.0674,-89.4,10.2,4.35,9.517,-0.6991,1.7478,-0.279,0.3296,0.984,-73.95,9.0,-3.6,-4.33,-2.27,-8.72,-0.1134,-0.0513,0.0764,-11.0,9.0,42.375,261.0625,-25.3125,162.875,0
1776974413.985,9.5553,-0.1508,2.5809,-0.4836,0.1924,0.0605,-89.4,10.2,4.35,9.517,-0.6991,1.7478,-0.279,0.3296,0.984,-73.8,9.15,-3.0,-4.31,-2.52,-8.6,-0.1134,-0.0513,0.0764,-11.0,9.0,42.375,261.0625,-25.3125,162.875,0
1776974413.989,9.5553,-0.1508,2.5809,-0.4836,0.1924,0.0605,-88.35,9.45,5.4,9.6702,-1.0534,1.8411,-0.3168,0.3166,0.9803,-73.8,9.15,-3.0,-4.31,-2.52,-8.6,-0.0851,-0.0436,0.0698,-11.375,9.0,42.375,261.0625,-25.375,162.9375,0
1776974413.995,9.4691,-0.2873,2.6264,-0.5574,0.4271,0.0645,-88.35,9.45,5.4,9.6702,-1.0534,1.8411,-0.3168,0.3166,0.9803,-74.55,9.15,-2.4,-4.27,-2.51,-8.62,-0.0851,-0.0436,0.0698,-11.375,9.0,42.375,261.0625,-25.375,162.9375,0
1776974413.999,9.4691,-0.2873,2.6264,-0.5574,0.4271,0.0645,-90.15,7.95,4.05,9.8857,-1.1277,1.7238,-0.3765,0.2758,0.9992,-74.55,9.15,-2.4,-4.27,-2.51,-8.62,-0.0709,-0.0273,0.0665,-11.375,9.0,42.375,261.125,-25.375,163.0,0
1776974414.005,9.7109,-0.1149,2.5786,-0.4751,0.2715,0.0714,-90.15,7.95,4.05,9.8857,-1.1277,1.7238,-0.3765,0.2758,0.9992,-74.7,9.0,-3.6,-4.25,-2.48,-8.6,-0.0709,-0.0273,0.0665,-11.375,9.0,42.375,261.125,-25.375,163.0,0
1776974414.009,9.7109,-0.1149,2.5786,-0.4751,0.2715,0.0714,-90.15,7.95,4.05,9.7971,-0.9984,1.8028,-0.4069,0.2579,1.0243,-74.7,9.0,-3.6,-4.25,-2.48,-8.6,-0.0535,-0.0164,0.0676,-11.375,9.0,42.375,261.125,-25.375,163.0625,0
1776974414.015,9.6414,0.2753,2.6217,-0.4191,0.1964,0.0791,-90.15,7.95,4.05,9.7971,-0.9984,1.8028,-0.4069,0.2579,1.0243,-75.45,7.8,-2.55,-4.35,-2.47,-8.59,-0.0535,-0.0164,0.0676,-11.375,9.0,42.375,261.125,-25.375,163.0625,0
1776974414.024,9.3901,0.6967,2.6983,-0.4135,0.1769,0.0791,-88.95,9.75,3.45,9.7085,-0.9864,1.9848,-0.3866,0.2633,1.0672,-75.45,7.8,-2.55,-4.25,-2.36,-8.69,-0.0316,-0.0065,0.0698,-11.375,9.0,42.375,261.1875,-25.375,163.125,0
1776974414.028,9.3901,0.6967,2.6983,-0.4135,0.1769,0.0791,-89.1,10.2,3.0,9.8976,-0.8906,2.1668,-0.3701,0.2643,1.0949,-75.9,7.35,-2.85,-4.25,-2.36,-8.69,-0.0098,-0.0164,0.0764,-11.375,9.0,42.375,261.1875,-25.4375,163.125,0
1776974414.035,10.0461,1.3767,2.5905,-0.4016,-0.061,0.0549,-89.1,10.2,3.0,10.0173,-0.6321,2.2793,-0.3701,0.2643,1.0949,-75.9,7.35,-2.85,-4.11,-2.43,-8.8,-0.0098,-0.0164,0.0764,-11.375,9.0,42.375,261.1875,-25.4375,163.125,0
1776974414.04,10.0461,1.3767,2.5905,-0.4016,-0.061,0.0549,-90.75,10.05,5.25,10.0173,-0.6321,2.2793,-0.4149,0.3142,1.1159,-75.9,7.35,-2.85,-4.11,-2.43,-8.8,-0.0098,-0.0164,0.0764,-10.1875,9.0,42.0,261.25,-25.4375,163.125,0
1776974414.045,10.5058,1.992,2.4541,-0.4042,-0.2998,-0.0029,-90.75,10.05,5.25,10.3046,-0.4094,2.1907,-0.4149,0.3142,1.1159,-75.3,7.2,-2.7,-4.04,-2.55,-8.9,0.0305,-0.0349,0.072,-10.1875,9.0,42.0,261.25,-25.4375,163.125,0
1776974414.05,10.5058,1.992,2.4541,-0.4042,-0.2998,-0.0029,-88.5,10.8,5.25,10.3046,-0.4094,2.1907,-0.4186,0.3914,1.1575,-75.3,7.2,-2.7,-4.04,-2.55,-8.9,0.0305,-0.0349,0.072,-10.1875,9.0,42.0,261.3125,-25.5,163.125,0
1776974414.055,9.414,2.3679,2.8491,-0.4818,-0.1452,-0.0706,-88.5,10.8,5.25,11.3246,-0.6584,2.047,-0.4186,0.3914,1.1575,-75.3,7.2,-2.7,-3.86,-2.85,-9.04,0.0535,-0.0491,0.0491,-10.1875,9.0,42.0,261.3125,-25.5,163.125,0
1776974414.059,9.414,2.3679,2.8491,-0.4818,-0.1452,-0.0706,-88.5,10.8,5.25,11.3246,-0.6584,2.047,-0.4263,0.3501,1.2185,-75.3,7.2,-2.7,-3.86,-2.85,-9.04,0.0807,-0.1025,0.0371,-10.1875,9.0,42.0,261.3125,-25.5625,163.0625,0
1776974414.065,10.9439,2.7725,2.5019,-0.5702,-0.1386,-0.1466,-88.5,10.8,5.25,11.9566,-0.723,1.5874,-0.4418,0.2769,1.3067,-74.7,6.9,-1.8,-3.69,-2.29,-9.48,0.0807,-0.1025,0.0371,-10.1875,9.0,42.0,261.375,-25.625,163.0,0
1776974414.074,10.3142,2.9999,2.8036,-0.5247,-0.097,-0.2377,-88.5,10.8,5.25,11.9016,-0.3855,1.1349,-0.4418,0.2769,1.3067,-74.7,6.9,-1.8,-3.95,-2.71,-9.3,0.2073,-0.1625,0.0894,-10.1875,9.0,42.0,261.4375,-25.8125,162.8125,0
1776974414.084,10.7141,3.225,2.7342,-0.4357,-0.1404,-0.3483,-89.85,8.7,6.45,11.7867,0.079,0.759,-0.5569,0.1911,1.518,-75.9,4.95,-2.1,-3.66,-2.98,-9.58,0.3174,-0.2749,0.1069,-10.1875,9.0,42.0,261.4375,-25.8125,162.8125,0
1776974414.089,10.7141,3.225,2.7342,-0.4357,-0.1404,-0.3483,-89.1,9.45,6.15,11.7867,0.079,0.759,-0.5569,0.1911,1.518,-75.6,3.6,-2.4,-3.66,-2.98,-9.58,0.3174,-0.2749,0.1069,-10.1875,9.0,42.0,261.5,-26.0625,162.5625,0
1776974414.094,10.41,3.3064,2.5474,-0.3381,-0.1319,-0.457,-89.1,9.45,6.15,11.4539,0.8739,0.2203,-0.5236,0.1911,1.6054,-75.6,3.6,-2.4,-3.45,-2.27,-10.08,0.3763,-0.5192,0.0993,-10.5625,9.375,42.0,261.5,-26.0625,162.5625,0
1776974414.099,10.41,3.3064,2.5474,-0.3381,-0.1319,-0.457,-88.95,10.5,5.25,11.4539,0.8739,0.2203,-0.5236,0.1911,1.6054,-73.95,3.9,-1.35,-3.45,-2.27,-10.08,0.3763,-0.5192,0.0993,-10.5625,9.375,42.0,261.5625,-26.375,162.375,0
1776974414.104,10.3238,3.304,2.1165,-0.2473,-0.2241,-0.5383,-88.95,10.5,5.25,11.3246,1.6616,-0.1628,-0.506,0.2332,1.7224,-73.95,3.9,-1.35,-3.49,-2.66,-10.14,0.3763,-0.5192,0.0993,-10.5625,9.375,42.0,261.5625,-26.375,162.375,0
1776974414.111,10.4555,3.304,1.5323,-0.0637,-0.3413,-0.6046,-88.8,10.2,5.85,11.3246,1.6616,-0.1628,-0.506,0.2332,1.7224,-75.15,2.7,-1.05,-3.46,-2.9,-10.23,0.4123,-0.7167,0.1516,-10.5625,9.375,42.0,261.6875,-26.8125,162.125,0
1776974414.115,10.4555,3.304,1.5323,-0.0637,-0.3413,-0.6046,-88.8,10.2,5.85,11.5999,1.8699,-1.3384,-0.4706,0.2499,1.8445,-74.55,0.9,-0.45,-3.46,-2.9,-10.23,0.4123,-0.7167,0.1516,-10.5625,9.375,42.0,261.75,-27.3125,161.875,0
1776974414.124,10.7332,3.3686,0.9577,0.1908,-0.5287,-0.6566,-88.8,10.2,5.85,11.746,2.4205,-1.7909,-0.3757,0.2995,1.947,-74.55,0.9,-0.45,-3.49,-2.54,-10.16,0.36,-0.9479,0.2138,-10.5625,9.375,42.0,261.8125,-28.0,161.6875,0
1776974414.134,11.4227,3.1412,0.2705,0.5724,-0.7237,-0.7152,-88.2,10.8,5.25,12.0668,3.0287,-2.8515,-0.4541,0.2987,2.0142,-74.55,0.9,-0.45,-3.07,-3.42,-10.56,0.2618,-1.1923,0.2727,-10.5625,9.375,42.0,261.8125,-28.0,161.6875,0
1776974414.139,11.2623,3.1077,-0.1341,0.9406,-0.8484,-0.7906,-91.8,11.25,6.0,12.0668,3.0287,-2.8515,-0.4541,0.2987,2.0142,-75.3,0.15,-1.2,-3.07,-3.42,-10.56,0.2618,-1.1923,0.2727,-10.5625,9.375,42.0,262.0,-29.125,161.6875,0
1776974414.144,11.2623,3.1077,-0.1341,0.9406,-0.8484,-0.7906,-91.8,11.25,6.0,12.0955,2.739,0.3328,-0.4983,0.3821,2.0454,-75.3,0.15,-1.2,-3.01,-3.9,-10.3,-0.0098,-1.897,0.5465,-9.1875,10.5,40.75,262.0,-29.125,161.6875,0
1776974414.149,10.6805,3.3447,-1.0678,1.0086,-0.9558,-0.8631,-89.7,10.8,3.45,12.0955,2.739,0.3328,-0.4983,0.3821,2.0454,-75.3,0.15,-1.2,-3.01,-3.9,-10.3,-0.0098,-1.897,0.5465,-9.1875,10.5,40.75,262.0,-29.125,161.6875,0
1776974414.154,10.6805,3.3447,-1.0678,1.0086,-0.9558,-0.8631,-89.25,12.0,4.2,12.4115,1.719,-0.3519,-0.4943,0.356,2.1645,-75.3,0.15,-1.2,-2.96,-2.55,-10.35,-0.0098,-1.897,0.5465,-9.1875,10.5,40.75,262.125,-30.1875,161.6875,0
1776974414.159,10.386,3.723,-2.6839,1.0421,-1.4202,-0.9385,-89.25,12.0,4.2,12.4115,1.719,-0.3519,-0.4943,0.356,2.1645,-75.6,-0.9,-0.9,-2.96,-2.55,-10.35,0.0829,-2.4827,0.9512,-9.1875,10.5,40.75,262.4375,-31.6875,161.6875,0
1776974414.165,10.386,3.723,-2.6839,1.0421,-1.4202,-0.9385,-89.25,12.0,4.2,13.0795,1.2929,-1.0726,-0.372,0.3616,2.299,-75.6,-0.9,-0.9,-3.02,-4.07,-10.52,0.0829,-2.4827,0.9512,-9.1875,10.5,40.75,262.875,-33.375,161.8125,0
1776974414.174,9.6774,3.9002,-2.3798,0.8849,-1.7914,-1.0419,-89.25,12.0,4.2,12.6677,0.6153,-0.7015,-0.5774,0.4085,2.3305,-73.95,-2.7,0.0,-3.61,-5.11,-10.09,-0.1025,-2.8896,1.1977,-9.1875,10.5,40.75,262.875,-33.375,161.8125,0
1776974414.184,9.0644,4.2186,-0.9529,0.5849,-1.9113,-1.1543,-88.5,12.75,0.6,12.1099,-0.0024,-0.9218,-0.4596,0.356,2.3467,-73.8,-4.8,0.45,-3.9,-6.09,-9.78,-0.2683,-3.1907,1.5239,-9.1875,10.5,40.75,263.4375,-35.3125,162.125,0
1776974414.189,8.7484,4.2976,0.0575,0.6299,-1.7821,-1.2103,-88.5,12.75,0.6,11.0899,0.0311,-0.5363,-0.4596,0.356,2.3467,-73.8,-4.5,-0.15,-3.9,-6.09,-9.78,-0.2683,-3.1907,1.5239,-9.1875,10.5,40.75,263.4375,-35.3125,162.125,0
1776974414.194,8.7484,4.2976,0.0575,0.6299,-1.7821,-1.2103,-88.8,12.9,-0.45,11.0899,0.0311,-0.5363,-0.2779,0.4679,2.3182,-73.8,-4.5,-0.15,-4.63,-6.01,-9.69,-0.5105,-3.4558,1.8871,-5.5,11.5625,41.1875,264.125,-37.5,162.6875,0
1776974414.199,8.928,3.4453,-1.0511,0.7911,-1.8181,-1.2553,-88.8,12.9,-0.45,10.6518,0.1437,0.1437,-0.2779,0.4679,2.3182,-74.1,-4.8,0.45,-4.63,-6.01,-9.69,-0.5105,-3.4558,1.8871,-5.5,11.5625,41.1875,264.125,-37.5,162.6875,0
1776974414.203,8.928,3.4453,-1.0511,0.7911,-1.8181,-1.2553,-88.8,14.4,-1.5,10.6518,0.1437,0.1437,-0.226,0.5694,2.2537,-74.1,-4.8,0.45,-5.67,-6.57,-9.51,-0.7516,-3.6696,2.3093,-5.5,11.5625,41.1875,265.0,-39.8125,163.625,0
1776974414.208,9.1219,2.2027,1.5179,1.7139,-1.3768,-1.27,-88.8,14.4,-1.5,10.4411,-0.6369,1.1851,-0.226,0.5694,2.2537,-73.65,-7.35,1.05,-5.67,-6.57,-9.51,-1.0025,-3.8659,2.678,-5.5,11.5625,41.1875,266.0,-42.25,164.9375,0
1776974414.215,9.1219,2.2027,1.5179,1.7139,-1.3768,-1.27,-89.25,15.0,-2.4,10.4411,-0.6369,1.1851,-0.0666,0.5673,2.1288,-73.65,-7.35,1.05,-6.76,-5.99,-9.69,-1.0025,-3.8659,2.678,-5.5,11.5625,41.1875,293.375,-44.8125,166.5625,0
1776974414.224,9.8402,2.3439,0.4357,1.8111,-1.3259,-1.2921,-89.25,15.0,-2.4,9.9216,-1.5371,2.2458,0.2654,0.5825,1.9806,-73.65,-7.35,1.05,-7.88,-6.38,-9.69,-1.1596,-3.9706,2.9572,-5.5,11.5625,41.1875,293.375,-44.8125,166.5625,0
1776974414.234,11.2863,1.7214,-0.5435,1.534,-1.5271,-1.3454,-86.7,16.5,-5.25,9.1602,-2.4205,3.565,0.6949,0.6579,1.8413,-74.55,-7.5,3.75,-10.54,-5.99,-10.33,-1.309,-3.9444,3.0794,-5.5,11.5625,41.1875,289.0,-47.3125,168.5625,0
1776974414.239,12.6055,0.8068,0.1676,1.3584,-1.6153,-1.3941,-86.7,16.5,-5.25,8.6191,-2.7078,4.3287,1.1175,0.7871,1.7176,-71.55,-10.35,3.45,-10.54,-5.99,-10.33,-1.309,-3.9444,3.0794,-5.5,11.5625,41.1875,284.875,-49.6875,170.875,0
1776974414.244,12.6055,0.8068,0.1676,1.3584,-1.6153,-1.3941,-86.4,16.05,-5.25,8.6191,-2.7078,4.3287,1.1175,0.7871,1.7176,-71.55,-10.35,3.45,-10.79,-7.06,-10.01,-1.4257,-3.8255,3.1492,1.75,10.5,40.75,284.875,-49.6875,170.875,0
1776974414.249,12.9071,0.3831,0.7111,1.2979,-1.7595,-1.4112,-86.4,16.05,-5.25,8.4803,-2.739,4.5825,1.3811,0.9225,1.5689,-71.25,-10.5,2.1,-10.79,-7.06,-10.01,-1.4257,-3.8255,3.1492,1.75,10.5,40.75,280.6875,-51.875,173.625,0
1776974414.254,12.9071,0.3831,0.7111,1.2979,-1.7595,-1.4112,-87.9,16.05,-5.7,8.4803,-2.739,4.5825,1.3811,0.9225,1.5689,-71.25,-10.5,2.1,-12.21,-10.05,-10.49,-1.729,-3.5736,3.1765,1.75,10.5,40.75,280.6875,-51.875,173.625,0
1776974414.259,12.7635,-0.0024,0.6608,1.1759,-1.8,-1.3813,-87.9,16.05,-5.7,8.4132,-3.1747,4.7932,1.7309,1.0571,1.3198,-71.7,-11.7,5.55,-12.21,-10.05,-10.49,-2.3606,-3.2376,3.2092,1.75,10.5,40.75,276.0625,-53.8125,177.125,0
1776974414.265,12.6629,-0.3687,1.0223,0.8098,-1.696,-1.3352,-85.95,17.25,-7.8,8.4132,-3.1747,4.7932,1.7309,1.0571,1.3198,-71.7,-11.7,5.55,-9.66,-9.23,-9.44,-2.3606,-3.2376,3.2092,1.75,10.5,40.75,271.1875,-55.5625,-178.75,0
1776974414.274,11.6646,-0.1987,1.4222,0.555,-1.3659,-1.2867,-85.95,17.25,-7.8,8.7532,-3.8283,4.7692,2.0984,1.0333,1.1455,-71.25,-13.2,5.1,-5.95,-6.64,-8.94,-2.858,-3.0565,3.2179,1.75,10.5,40.75,266.1875,-57.125,-174.125,0
1776974414.285,11.3485,-0.3448,1.8651,0.1375,-1.1114,-1.2417,-86.25,17.7,-7.95,9.1435,-8.6503,8.521,2.6388,0.9246,1.0182,-71.25,-13.95,6.9,-4.28,-6.48,-8.29,-3.194,-3.0347,3.2474,1.75,10.5,40.75,266.1875,-57.125,-174.125,0
1776974414.289,11.3485,-0.3448,1.8651,0.1375,-1.1114,-1.2417,-86.25,17.7,-7.95,9.1435,-8.6503,8.521,3.2154,0.7717,0.9518,-71.25,-13.95,6.9,-4.28,-6.48,-8.29,-3.194,-3.0347,3.2474,1.75,10.5,40.75,261.1875,-58.5625,-169.0,0
1776974414.295,11.1881,-0.6297,3.0598,-0.0743,-0.8484,-1.2311,-85.8,18.15,-7.65,8.2361,-8.9998,10.2448,3.2154,0.7717,0.9518,-71.25,-13.95,6.9,-2.72,-5.97,-8.22,-3.5507,-3.1067,3.1601,12.75,7.5,38.375,261.1875,-58.5625,-169.0,0
1776974414.299,11.1881,-0.6297,3.0598,-0.0743,-0.8484,-1.2311,-85.8,18.15,-7.65,8.2361,-8.9998,10.2448,3.3337,0.5057,0.9944,-71.7,-13.95,8.1,-2.72,-5.97,-8.22,-3.5507,-3.1067,3.1601,12.75,7.5,38.375,261.1875,-58.5625,-169.0,0
1776974414.304,12.6629,-0.3855,3.2441,-0.2614,-1.1932,-1.2244,-84.15,19.5,-6.3,7.1036,-7.8626,6.6343,3.3337,0.5057,0.9944,-71.7,-13.95,8.1,-12.23,-7.61,-5.35,-3.7732,-2.7914,1.6941,12.75,7.5,38.375,257.0625,-59.875,-164.75,0
1776974414.312,12.6629,-0.3855,3.2441,-0.2614,-1.1932,-1.2244,-84.6,19.5,-8.1,7.1036,-7.8626,6.6343,2.5756,0.2262,0.9603,-71.7,-13.95,8.1,-15.63,-7.38,-9.79,-2.7773,-1.4268,-0.9643,12.75,7.5,38.375,255.25,-60.75,-163.75,0
1776974414.317,10.7164,0.0599,3.0502,-0.2318,-1.0952,-1.255,-84.6,19.5,-8.1,5.7485,-7.0557,6.4021,2.1893,0.3264,0.7141,-69.0,-14.85,9.9,-15.63,-7.38,-9.79,-2.7773,-1.4268,-0.9643,12.75,7.5,38.375,255.4375,-61.0,-166.0,0
1776974414.325,11.4682,0.4669,3.4141,-0.3722,-1.0014,-1.3299,-84.45,20.4,-7.95,5.7197,-4.9536,6.0813,2.0747,0.1937,0.4159,-69.0,-14.85,9.9,-6.99,-6.64,-11.97,-1.5533,0.4538,-3.0729,12.75,7.5,38.375,256.8125,-60.875,-169.9375,0
1776974414.335,10.9511,1.0199,4.2689,-0.6078,-0.9904,-1.3531,-84.45,20.4,-7.95,6.3446,-2.083,3.5314,1.4709,-0.1511,0.1985,-69.45,-13.65,11.4,0.89,-8.53,-4.47,-1.0167,1.1257,-4.4048,12.75,7.5,38.375,256.8125,-60.875,-169.9375,0
1776974414.339,10.9511,1.0199,4.2689,-0.6078,-0.9904,-1.3531,-84.45,20.4,-7.95,6.3446,-2.083,3.5314,1.4709,-0.1511,0.1985,-70.5,-15.15,11.4,0.89,-8.53,-4.47,-1.0167,1.1257,-4.4048,12.75,7.5,38.375,258.5625,-60.6875,-174.375,0
1776974414.345,9.6319,2.0159,4.1707,-0.6392,-0.4362,-1.3664,-84.6,23.55,-8.55,6.3686,-1.6376,1.3791,0.8343,-0.4399,0.0139,-70.5,-15.15,11.4,1.18,-6.99,-2.94,-0.9916,1.0417,-4.8891,20.6875,-0.5,35.0,258.5625,-60.6875,-174.375,0
1776974414.349,9.6319,2.0159,4.1707,-0.6392,-0.4362,-1.3664,-84.6,23.55,-8.55,6.3686,-1.6376,1.3791,0.8343,-0.4399,0.0139,-70.8,-15.45,10.5,1.18,-6.99,-2.94,-0.9916,1.0417,-4.8891,20.6875,-0.5,35.0,260.125,-60.375,-178.625,0
1776974414.354,9.6869,2.818,3.2034,-0.5116,0.1476,-1.3923,-83.1,24.3,-8.1,4.944,-2.2817,3.0311,1.0579,-0.5577,-0.1657,-70.8,-15.45,10.5,-0.9,-4.96,-2.45,-1.213,0.8312,-4.9905,20.6875,-0.5,35.0,260.125,-60.375,-178.625,0
1776974414.359,9.6869,2.818,3.2034,-0.5116,0.1476,-1.3923,-83.1,24.3,-8.1,4.944,-2.2817,3.0311,1.0579,-0.5577,-0.1657,-68.85,-14.25,12.0,-0.9,-4.96,-2.45,-1.3003,0.7559,-4.9218,20.6875,-0.5,35.0,261.625,-59.9375,177.25,0
1776974414.365,9.1794,3.146,2.296,-0.1124,0.1396,-1.4194,-83.85,24.0,-6.75,4.063,-1.9824,5.7892,1.8063,-0.7218,-0.3704,-68.85,-14.25,12.0,-2.21,-3.67,-2.57,-1.3003,0.7559,-4.9218,20.6875,-0.5,35.0,263.25,-59.25,173.5,0
1776974414.375,8.8777,3.802,1.1133,0.2817,0.2622,-1.4394,-84.75,26.4,-6.45,4.1108,-2.1835,4.0247,2.0744,-0.9382,-0.5907,-71.1,-13.8,11.55,-3.12,1.2,-3.91,-1.0876,0.7985,-4.7309,20.6875,-0.5,35.0,263.25,-59.25,173.5,0
1776974414.384,8.4348,4.0247,0.5243,0.5974,0.2902,-1.4552,-84.75,26.4,-6.45,4.0749,-2.7126,4.2401,2.5495,-1.113,-0.8468,-71.1,-13.8,11.55,-3.54,2.17,-4.43,-0.5018,0.9828,-4.5433,20.6875,-0.5,35.0,265.375,-58.375,169.75,0
1776974414.389,8.4348,4.0247,0.5243,0.5974,0.2902,-1.4552,-84.75,26.4,-6.45,4.0749,-2.7126,4.2401,2.5495,-1.113,-0.8468,-70.2,-10.95,12.15,-3.54,2.17,-4.43,-0.5018,0.9828,-4.5433,20.6875,-0.5,35.0,265.375,-58.375,169.75,0
1776974414.394,8.4396,4.1875,0.8643,0.8633,0.3605,-1.4189,-84.45,27.9,-6.45,4.312,-2.7485,5.9544,2.8352,-1.2841,-1.081,-70.2,-10.95,12.15,-3.48,1.53,-4.73,0.1385,1.3428,-4.2466,22.1875,0.25,34.375,268.0,-57.125,166.25,0
1776974414.399,8.4396,4.1875,0.8643,0.8633,0.3605,-1.4189,-84.45,27.9,-6.45,4.312,-2.7485,5.9544,2.8352,-1.2841,-1.081,-70.2,-10.95,12.15,-3.48,1.53,-4.73,0.1385,1.3428,-4.2466,22.1875,0.25,34.375,268.0,-57.125,166.25,0
1776974414.404,8.4635,4.027,1.6927,1.0128,0.3984,-1.2857,-85.35,29.25,-6.0,5.1427,-3.304,6.2273,2.6524,-1.3856,-1.2782,-70.2,-10.95,12.15,-2.3,-0.6,-5.16,0.504,1.6832,-3.7939,22.1875,0.25,34.375,270.875,-55.6875,163.3125,0
1776974414.411,8.7029,3.4429,1.9968,1.1186,0.3067,-1.1159,-84.9,30.3,-7.05,6.1723,-4.2042,5.7557,2.2143,-1.4485,-1.4338,-71.25,-12.0,11.1,-2.25,-1.49,-5.29,0.5127,1.9188,-3.2354,22.1875,0.25,34.375,273.625,-54.125,161.0625,0
1776974414.416,8.7029,3.4429,1.9968,1.1186,0.3067,-1.1159,-84.9,30.3,-7.05,6.1723,-4.2042,5.7557,2.2143,-1.4485,-1.4338,-71.25,-12.0,11.1,-2.25,-1.49,-5.29,0.5127,1.9188,-3.2354,22.1875,0.25,34.375,275.875,-52.5625,159.5625,0
1776974414.425,8.3582,2.7246,2.1715,1.1525,0.2398,-0.9832,-84.0,30.9,-5.1,7.1563,-5.1882,6.0956,1.789,-1.5801,-1.4895,-72.0,-9.75,11.4,-2.64,-2.14,-5.6,0.2542,2.0944,-2.6518,22.1875,0.25,34.375,275.875,-52.5625,159.5625,0
1776974414.435,8.0972,2.6264,3.2274,1.6862,0.2513,-0.8524,-86.4,32.25,-3.45,7.4555,-6.28,5.7988,1.4075,-1.8274,-1.5036,-72.45,-10.5,11.4,-3.53,-2.42,-6.35,-0.1298,2.2613,-2.1293,22.1875,0.25,34.375,277.5625,-50.9375,158.8125,0
1776974414.44,8.0325,2.229,2.7557,2.0403,0.3621,-0.7314,-86.4,32.25,-3.45,7.3334,-6.541,4.9967,0.9723,-2.0861,-1.5162,-71.7,-10.05,11.1,-3.53,-2.42,-6.35,-0.1298,2.2613,-2.1293,22.1875,0.25,34.375,277.5625,-50.9375,158.8125,0
1776974414.445,8.0325,2.229,2.7557,2.0403,0.3621,-0.7314,-86.4,32.25,-3.45,7.3334,-6.541,4.9967,0.9723,-2.0861,-1.5162,-71.7,-10.05,11.1,-4.34,-2.07,-6.85,-0.4461,2.4293,-1.7497,21.5625,5.0,35.375,278.875,-49.375,158.5625,0
1776974414.45,7.8099,1.798,1.98,2.0638,0.4418,-0.6352,-85.5,32.7,-5.85,6.8067,-6.3494,5.0039,0.6347,-2.2636,-1.5564,-72.6,-6.75,9.75,-4.34,-2.07,-6.85,-0.4461,2.4293,-1.7497,21.5625,5.0,35.375,278.875,-49.375,158.5625,0
1776974414.455,7.8099,1.798,1.98,2.0638,0.4418,-0.6352,-85.5,32.7,-5.85,6.8067,-6.3494,5.0039,0.6347,-2.2636,-1.5564,-72.6,-6.75,9.75,-5.15,-1.77,-7.1,-0.5607,2.6158,-1.5621,21.5625,5.0,35.375,280.0625,-47.6875,158.5625,0
1776974414.46,7.7548,1.5706,1.3336,2.048,0.5159,-0.5502,-87.15,33.75,-7.35,6.5146,-5.7245,4.7573,0.2883,-2.3369,-1.6422,-73.2,-8.55,8.85,-5.15,-1.77,-7.1,-0.5018,2.8198,-1.5032,21.5625,5.0,35.375,281.375,-45.9375,158.625,0
1776974414.465,7.7548,1.5706,1.3336,2.048,0.5159,-0.5502,-87.15,33.75,-7.35,6.5146,-5.7245,4.7573,0.2883,-2.3369,-1.6422,-73.2,-8.55,8.85,-5.15,-1.59,-6.86,-0.5018,2.8198,-1.5032,21.5625,5.0,35.375,283.0,-44.125,158.625,0
1776974414.475,7.8123,1.3815,1.1133,1.9537,0.4943,-0.4626,-86.55,34.65,-6.9,6.6367,-4.8937,4.5849,-0.081,-2.4323,-1.7568,-73.2,-8.55,8.85,-4.68,-2.4,-6.49,-0.3829,2.9311,-1.4606,21.5625,5.0,35.375,283.0,-44.125,158.625,0
1776974414.485,7.865,1.47,0.9385,1.9795,0.5713,-0.4194,-88.2,32.25,-7.05,7.1611,-3.881,4.288,-0.2395,-2.5309,-1.8943,-74.1,-6.75,8.25,-4.84,-3.25,-6.38,-0.3065,2.9343,-1.4061,21.5625,5.0,35.375,284.75,-42.3125,158.6875,0
1776974414.49,7.9631,1.0175,0.5387,1.9414,0.6845,-0.4053,-88.2,32.25,-7.05,7.2664,-2.2673,3.735,-0.1034,-2.5367,-2.0206,-74.1,-6.75,8.25,-4.84,-3.25,-6.38,-0.3065,2.9343,-1.4061,21.5625,5.0,35.375,240.75,-40.5625,158.75,0
1776974414.495,7.9631,1.0175,0.5387,1.9414,0.6845,-0.4053,-88.2,32.25,-7.05,7.2664,-2.2673,3.735,-0.1034,-2.5367,-2.0206,-74.1,-6.75,8.25,-5.1,-3.98,-6.36,-0.3229,2.8765,-1.3537,18.5625,7.75,36.25,240.75,-40.5625,158.75,0
1776974414.499,8.1163,0.8332,-0.0144,1.8639,0.7682,-0.3845,-88.8,34.2,-6.15,7.343,-1.0439,2.7845,0.2899,-2.4936,-2.1024,-74.4,-4.95,5.55,-5.1,-3.98,-6.36,-0.3229,2.8765,-1.3537,18.5625,7.75,36.25,240.1875,-38.8125,158.875,0
1776974414.505,8.1163,0.8332,-0.0144,1.8639,0.7682,-0.3845,-88.8,34.2,-6.15,7.343,-1.0439,2.7845,0.2899,-2.4936,-2.1024,-74.4,-4.95,5.55,-5.79,-4.61,-6.43,-0.4058,2.7936,-1.345,18.5625,7.75,36.25,240.1875,-38.8125,158.875,0
1776974414.511,8.26,0.7111,-0.5962,1.72,0.6965,-0.373,-87.9,33.0,-8.1,7.5729,-0.5914,2.4062,0.8724,-2.4283,-2.1341,-73.8,-2.4,3.75,-6.03,-4.86,-6.39,-0.4701,2.6638,-1.4061,18.5625,7.75,36.25,239.5625,-37.1875,159.0,0
1776974414.516,8.26,0.7111,-0.5962,1.5764,0.6472,-0.3528,-87.9,33.0,-8.1,7.8673,-0.8212,2.399,0.8724,-2.4283,-2.1341,-73.8,-2.4,3.75,-6.03,-4.86,-6.39,-0.4701,2.6638,-1.4061,18.5625,7.75,36.25,238.8125,-35.5625,159.0,0
1776974414.525,8.339,0.2346,-0.9337,1.5764,0.6472,-0.3528,-88.05,33.9,-7.95,8.5066,-1.3671,3.1412,1.4586,-2.3819,-2.1293,-74.7,-3.0,4.05,-6.21,-5.1,-6.45,-0.492,2.4991,-1.5599,18.5625,7.75,36.25,237.9375,-34.0,158.9375,0
1776974414.535,8.5377,0.0742,-1.0989,1.4464,0.6504,-0.3451,-89.1,34.65,-8.25,8.4563,-2.6025,3.2705,1.9534,-2.4022,-2.08,-73.95,-2.7,1.8,-6.54,-5.5,-6.86,-0.4647,2.3093,-1.8141,18.5625,7.75,36.25,237.9375,-34.0,158.9375,0
1776974414.54,8.3821,0.0407,-0.929,1.315,0.5923,-0.3264,-89.1,34.65,-8.25,8.4563,-2.6025,3.2705,2.2631,-2.2881,-2.0464,-74.4,-1.5,1.8,-6.54,-5.5,-6.86,-0.4647,2.3093,-1.8141,18.5625,7.75,36.25,237.9375,-34.0,158.9375,0
1776974414.545,8.3821,0.0407,-0.929,1.1674,0.6089,-0.3024,-89.1,34.65,-8.25,9.5624,-2.6073,4.1204,2.2631,-2.2881,-2.0464,-74.4,-1.5,1.8,-7.08,-6.17,-7.82,-0.3982,2.1784,-2.1773,14.0,10.25,35.5625,236.875,-32.4375,158.6875,0
1776974414.55,8.2217,-0.0024,-0.8619,1.1674,0.6089,-0.3024,-89.1,34.65,-8.25,9.5624,-2.6073,4.1204,2.5189,-2.3196,-1.9713,-74.1,0.15,-0.15,-7.08,-6.17,-7.82,-0.3982,2.1784,-2.1773,14.0,10.25,35.5625,236.875,-32.4375,158.6875,0
1776974414.555,8.3199,0.1844,-1.0822,1.0075,0.4978,-0.2475,-89.1,34.65,-8.25,9.8665,-2.4972,3.4237,2.6606,-2.2764,-1.9057,-74.1,0.15,-0.15,-7.34,-6.75,-7.68,-0.3872,1.9253,-2.5776,14.0,10.25,35.5625,235.5625,-30.9375,158.375,0
1776974414.56,8.3199,0.1844,-1.0822,1.0075,0.4978,-0.2475,-89.4,33.9,-6.15,9.8665,-2.4972,3.4237,2.6606,-2.2764,-1.9057,-74.1,0.15,-0.15,-7.34,-6.75,-7.68,-0.42,1.8751,-2.9594,14.0,10.25,35.5625,234.0625,-29.375,157.9375,0
1776974414.566,8.1451,0.5818,-1.1037,0.8455,0.2811,-0.1644,-89.4,33.9,-6.15,10.4627,-2.2362,3.0742,2.7488,-2.2583,-1.8311,-74.1,0.15,-0.15,-7.2,-6.9,-7.94,-0.42,1.8751,-2.9594,14.0,10.25,35.5625,232.3125,-27.8125,157.4375,0
1776974414.575,7.7835,0.9649,-0.9864,0.6147,0.2729,-0.056,-89.1,33.9,-7.65,10.8098,-2.3966,3.4955,2.9287,-2.3196,-1.7496,-73.95,2.7,0.0,-8.15,-7.26,-8.41,-0.4483,1.7246,-3.3172,14.0,10.25,35.5625,232.3125,-27.8125,157.4375,0
1776974414.585,8.0876,1.3599,-1.1468,0.4024,0.3395,0.0525,-89.25,32.25,-7.35,10.5249,-2.4325,3.7493,2.991,-2.3177,-1.6475,-75.9,2.7,-1.8,-8.35,-7.17,-8.56,-0.576,1.5512,-3.6216,14.0,10.25,35.5625,230.375,-26.1875,157.0,0
1776974414.59,8.0876,1.3599,-1.1468,0.4024,0.3395,0.0525,-89.7,34.05,-8.1,10.5249,-2.4325,3.7493,2.991,-2.3177,-1.6475,-74.4,3.0,-2.85,-8.35,-7.17,-8.56,-0.576,1.5512,-3.6216,14.0,10.25,35.5625,230.375,-26.1875,157.0,0
1776974414.595,7.9942,2.1021,-1.0534,0.1537,0.3842,0.1679,-89.7,34.05,-8.1,10.5297,-2.1356,3.5291,2.9705,-2.3862,-1.5732,-74.4,3.0,-2.85,-8.16,-6.72,-8.63,-0.733,1.4704,-3.8648,11.0,12.25,36.0,228.3125,-24.625,156.625,0
1776974414.6,7.9942,2.1021,-1.0534,0.1537,0.3842,0.1679,-89.7,34.05,-8.1,10.5297,-2.1356,3.5291,2.9705,-2.3862,-1.5732,-74.4,3.0,-2.85,-8.16,-6.72,-8.63,-0.733,1.4704,-3.8648,11.0,12.25,36.0,228.3125,-24.625,156.625,0
1776974414.605,8.1618,2.7126,-0.905,-0.1023,0.5388,0.2497,-89.7,34.05,-8.1,10.5393,-2.0111,3.1316,2.8837,-2.4056,-1.4895,-75.15,3.9,-3.6,-8.41,-6.19,-8.76,-0.8694,1.3461,-4.0143,11.0,12.25,36.0,226.125,-23.0625,156.3125,0
1776974414.613,8.1618,2.7126,-0.905,-0.2531,0.6776,0.3094,-89.4,31.95,-7.95,10.4698,-2.1308,2.8539,2.7592,-2.3699,-1.4557,-74.1,3.6,-5.25,-8.4,-6.09,-8.37,-0.9643,1.2643,-4.0764,11.0,12.25,36.0,223.875,-21.5,156.125,0
1776974414.617,8.3629,3.4333,-0.7757,-0.2531,0.6776,0.3094,-91.05,32.25,-5.7,10.4698,-2.1308,2.8539,2.7592,-2.3699,-1.4557,-74.1,3.6,-5.25,-8.4,-6.09,-8.37,-0.9643,1.2643,-4.0764,11.0,12.25,36.0,221.6875,-20.0,156.0625,0
1776974414.625,8.8801,4.1611,-0.9577,-0.2523,0.5596,0.3912,-91.05,32.25,-5.7,10.3932,-2.4325,2.5929,2.5562,-2.3132,-1.4597,-75.6,4.5,-6.0,-8.11,-6.15,-7.82,-1.0777,1.177,-4.0273,11.0,12.25,36.0,219.5625,-18.625,156.125,0
1776974414.635,8.8538,4.8363,-1.1396,-0.1111,0.5055,0.4796,-90.6,33.15,-6.9,10.3022,-2.9353,2.4181,2.4142,-2.2665,-1.4829,-75.6,4.5,-6.0,-8.29,-6.19,-7.58,-1.2097,0.997,-3.8223,11.0,12.25,36.0,219.5625,-18.625,156.125,0
1776974414.64,8.8538,4.8363,-1.1396,-0.1111,0.5055,0.4796,-89.7,32.25,-6.0,10.0533,-3.0119,2.3703,2.4142,-2.2665,-1.4829,-73.05,4.8,-6.0,-8.29,-6.19,-7.58,-1.2097,0.997,-3.8223,11.0,12.25,36.0,217.5625,-17.4375,156.25,0
1776974414.645,8.8585,5.4229,-1.3384,0.1982,0.5425,0.57,-89.7,32.25,-6.0,10.0533,-3.0119,2.3703,2.3153,-2.177,-1.5119,-73.05,4.8,-8.25,-9.22,-5.28,-7.36,-1.2446,0.8192,-3.5256,6.6875,14.25,37.5,217.5625,-17.4375,156.25,0
1776974414.65,8.8585,5.4229,-1.3384,0.1982,0.5425,0.57,-89.7,32.25,-6.0,9.6127,-2.715,2.138,2.3153,-2.177,-1.5119,-73.05,4.8,-8.25,-9.22,-5.28,-7.36,-1.2446,0.8192,-3.5256,6.6875,14.25,37.5,215.75,-16.3125,156.4375,0
1776974414.655,9.4427,6.0214,-1.743,0.7155,0.5193,0.6739,-89.7,32.25,-6.0,9.6127,-2.715,2.138,2.1226,-2.044,-1.5028,-73.05,4.8,-8.25,-9.28,-4.59,-7.1,-1.1094,0.721,-3.243,6.6875,14.25,37.5,215.75,-16.3125,156.4375,0
1776974414.66,9.4427,6.0214,-1.743,0.7155,0.5193,0.6739,-89.4,33.9,-6.9,9.4571,-2.4157,1.6735,2.1226,-2.044,-1.5028,-73.05,4.8,-8.25,-9.28,-4.59,-7.1,-0.8105,0.6523,-2.9889,6.6875,14.25,37.5,214.125,-15.375,156.5,0
1776974414.666,9.8785,6.3973,-2.308,1.3134,0.3957,0.7461,-90.9,32.4,-7.2,9.4571,-2.4157,1.6735,1.7189,-1.9012,-1.4943,-71.85,5.25,-10.8,-9.14,-4.17,-6.71,-0.8105,0.6523,-2.9889,6.6875,14.25,37.5,212.625,-14.4375,156.375,0
1776974414.675,9.1698,6.2106,-2.2841,2.0259,0.3158,0.7813,-90.9,32.4,-7.2,9.4954,-2.49,1.6257,1.3384,-1.7405,-1.4773,-73.05,6.45,-12.0,-9.3,-4.02,-6.11,-0.4396,0.5345,-2.7565,6.6875,14.25,37.5,212.625,-14.4375,156.375,0
1776974414.685,9.3446,5.8299,-2.2553,2.6382,0.3019,0.7669,-91.95,31.95,-7.2,9.2727,-2.6121,1.834,1.081,-1.6009,-1.425,-71.55,7.2,-12.0,-10.44,-3.78,-6.47,-0.0185,0.3807,-2.5547,6.6875,14.25,37.5,211.25,-13.6875,156.125,0
1776974414.69,9.3446,5.8299,-2.2553,2.9314,0.3653,0.716,-91.95,31.95,-7.2,8.928,-2.5163,2.1931,0.9169,-1.4386,-1.3209,-71.55,7.2,-12.0,-10.44,-3.78,-6.47,-0.0185,0.3807,-2.5547,6.6875,14.25,37.5,211.25,-13.6875,156.125,0
1776974414.695,8.995,5.2241,-2.2697,2.9314,0.3653,0.716,-92.25,33.0,-7.8,8.928,-2.5163,2.1931,0.9169,-1.4386,-1.3209,-72.9,6.9,-12.15,-11.64,-3.79,-6.86,0.4276,0.3152,-2.4424,0.875,12.5625,37.0,209.9375,-13.0,155.625,0
1776974414.7,8.8538,4.4772,-2.2577,2.9713,0.3259,0.6435,-92.25,33.0,-7.8,8.4563,-1.9178,1.7262,0.7048,-1.181,-1.1748,-72.9,6.9,-12.15,-11.64,-3.79,-6.86,0.4276,0.3152,-2.4424,0.875,12.5625,37.0,209.9375,-13.0,155.625,0
1776974414.705,8.8538,4.4772,-2.2577,2.9713,0.3259,0.6435,-92.25,33.0,-7.8,8.4563,-1.9178,1.7262,0.7048,-1.181,-1.1748,-71.1,6.75,-13.5,-11.9,-4.5,-5.8,0.7734,0.396,-2.4151,0.875,12.5625,37.0,208.6875,-12.25,154.9375,0
1776974414.713,8.5784,3.6392,-2.2194,2.6622,0.388,0.5708,-92.25,33.0,-7.8,8.3869,-1.1827,1.1732,0.4572,-0.9609,-1.0579,-71.7,8.1,-14.4,-11.38,-4.33,-4.86,0.913,0.4811,-2.3573,0.875,12.5625,37.0,207.5,-11.4375,154.1875,0
1776974414.718,8.5784,3.6392,-2.2194,2.6622,0.388,0.5708,-93.15,31.2,-7.95,8.4467,-0.5339,1.0343,0.2491,-0.7325,-0.9454,-71.7,8.1,-14.4,-11.38,-4.33,-4.86,0.913,0.4811,-2.3573,0.875,12.5625,37.0,206.375,-10.6875,153.5,0
1776974414.726,8.7508,2.9233,-2.1883,2.1682,0.5465,0.5233,-93.45,32.4,-8.25,8.4467,-0.5339,1.0343,0.2491,-0.7325,-0.9454,-71.7,8.1,-14.4,-10.99,-3.77,-4.09,0.8945,0.4385,-2.2002,0.875,12.5625,37.0,205.375,-10.1875,153.0,0
1776974414.735,8.7101,2.6408,-2.5283,1.7011,0.6688,0.5364,-92.7,31.95,-8.7,8.8466,-0.395,1.1037,0.0461,-0.4794,-0.8316,-71.55,8.7,-14.25,-11.17,-5.58,-4.31,0.5411,-0.0404,-1.8882,0.875,12.5625,37.0,205.375,-10.1875,153.0,0
1776974414.74,8.8873,3.632,-1.6544,1.635,0.8223,0.5945,-92.7,31.95,-8.7,8.7819,-0.8068,0.6919,-0.1308,-0.3717,-0.6528,-71.55,8.7,-14.25,-11.17,-5.58,-4.31,0.5411,-0.0404,-1.8882,-0.0625,11.375,37.6875,204.5625,-10.1875,152.75,0
1776974414.745,8.8873,3.632,-1.6544,1.635,0.8223,0.5945,-93.3,31.8,-8.55,8.7819,-0.8068,0.6919,-0.1308,-0.3717,-0.6528,-71.55,8.7,-14.25,-13.86,-2.59,-1.42,0.2389,-0.6698,-1.3177,-0.0625,11.375,37.6875,204.5625,-10.1875,152.75,0
1776974414.75,9.8258,4.3,-1.6688,1.3014,1.0075,0.4911,-93.3,31.8,-8.55,8.023,-1.4198,2.0542,-0.0253,-0.1697,-0.4247,-71.55,8.7,-14.25,-13.86,-2.59,-1.42,0.2389,-0.6698,-1.3177,-0.0625,11.375,37.6875,203.875,-10.5,152.625,0
1776974414.755,9.8258,4.3,-1.6688,1.3014,1.0075,0.4911,-93.3,31.8,-8.55,8.023,-1.4198,2.0542,-0.0253,-0.1697,-0.4247,-71.7,9.3,-13.65,-13.9,-0.87,-1.5,-0.0098,-1.0363,-0.9643,-0.0625,11.375,37.6875,203.875,-10.5,152.625,0
1776974414.76,9.6199,4.1396,-1.3671,0.5995,0.9337,0.3523,-93.3,31.8,-8.55,7.446,-1.5921,2.3152,-0.0456,0.1298,-0.1951,-71.7,9.3,-13.65,-13.9,-0.87,-1.5,-0.144,-1.3352,-0.5738,-0.0625,11.375,37.6875,203.375,-11.0,152.5625,0
1776974414.766,9.6199,4.1396,-1.3671,0.5995,0.9337,0.3523,-96.45,30.9,-9.3,7.0198,-1.1851,2.4493,-0.1335,0.5124,0.0354,-71.85,9.45,-14.85,-14.88,-0.76,-1.69,-0.144,-1.3352,-0.5738,-0.0625,11.375,37.6875,203.0,-11.6875,152.625,0
1776974414.775,9.5792,3.723,-1.4126,0.0855,0.5105,0.1711,-94.35,30.0,-8.55,7.5776,-1.0918,2.5283,-0.1335,0.5124,0.0354,-71.7,9.3,-12.45,-15.32,-2.4,-1.29,-0.3447,-1.5752,-0.2356,-0.0625,11.375,37.6875,202.8125,-12.625,153.0,0
1776974414.785,8.916,2.9305,-1.7166,-0.2038,0.4631,0.0173,-91.5,29.25,-8.55,8.4276,-0.1604,2.6264,-0.3139,1.084,0.4455,-70.35,9.15,-12.75,-14.55,-2.88,-1.62,-0.7985,-1.7977,0.1473,-0.0625,11.375,37.6875,202.8125,-12.625,153.0,0
1776974414.79,8.8921,2.3774,-1.4341,-0.4994,0.8194,-0.0019,-91.5,29.25,-8.55,8.4276,-0.1604,2.6264,-0.3139,1.084,0.4455,-70.35,9.15,-12.75,-14.55,-2.88,-1.62,-0.7985,-1.7977,0.1473,-0.0625,11.375,37.6875,202.8125,-12.625,153.0,0
1776974414.795,8.8921,2.3774,-1.4341,-0.4994,0.8194,-0.0019,-92.4,28.95,-9.0,9.9,1.8651,1.1684,-0.6656,1.2875,0.3834,-70.05,9.45,-12.3,-5.62,-1.4,-5.13,-1.5337,-1.9024,0.4832,-0.0625,11.1875,37.5625,202.75,-13.6875,153.8125,0
1776974414.8,9.4667,1.9704,-0.4573,-0.8532,0.6427,0.0197,-92.4,28.95,-9.0,9.9,1.8651,1.1684,-0.6656,1.2875,0.3834,-70.05,9.45,-12.3,-5.62,-1.4,-5.13,-1.5337,-1.9024,0.4832,-0.0625,11.1875,37.5625,202.75,-13.6875,153.8125,0
1776974414.805,9.4667,1.9704,-0.4573,-0.8532,0.6427,0.0197,-92.4,28.95,-9.0,12.39,5.1475,-2.5402,-1.5284,1.1061,0.0911,-70.35,9.45,-13.5,-4.25,-8.69,-11.55,-2.126,-1.8304,0.5312,-0.0625,11.1875,37.5625,202.625,-14.75,154.9375,0
1776974414.813,9.912,2.0853,0.3519,-1.4312,0.7695,0.0608,-92.4,28.95,-9.0,12.39,5.1475,-2.5402,-1.5284,1.1061,0.0911,-70.35,9.45,-13.5,2.02,4.0,-12.29,-2.0922,-1.4235,0.6261,-0.0625,11.1875,37.5625,202.6875,-15.625,156.125,0
1776974414.818,10.2592,1.8723,-0.2107,-1.8735,0.6502,0.122,-92.4,28.95,-9.0,15.8664,4.8243,-9.6558,-1.8135,0.4146,-0.0229,-70.35,9.45,-13.5,2.02,4.0,-12.29,-2.0922,-1.4235,0.6261,-0.0625,11.1875,37.5625,202.75,-16.4375,156.625,0
1776974414.826,11.3342,2.4086,-1.6975,-1.9606,0.4069,0.1657,-90.9,27.15,-7.95,15.7826,2.9209,-8.7317,-0.4996,-0.3477,-0.0157,-71.7,9.3,-10.35,-0.67,8.23,-12.8,-0.9741,-1.3254,0.588,-0.0625,11.1875,37.5625,202.9375,-17.5,156.75,0
1776974414.836,13.2519,4.1851,-3.0502,-1.594,0.2292,0.2862,-90.6,28.95,-7.95,12.4594,0.759,-5.9687,0.2934,-0.6638,0.1154,-70.8,9.45,-11.25,-3.83,2.18,-10.96,-0.2476,-1.838,0.733,-0.0625,11.1875,37.5625,202.9375,-17.5,156.75,0
1776974414.84,13.2519,4.1851,-3.0502,-1.594,0.2292,0.2862,-90.6,28.95,-7.95,12.4594,0.759,-5.9687,0.2934,-0.6638,0.1154,-70.8,9.45,-11.25,-3.83,2.18,-10.96,-0.2476,-1.838,0.733,-0.0625,11.1875,37.5625,202.9375,-17.5,156.75,0
1776974414.846,14.3389,6.8426,-5.8131,-0.4682,0.2249,0.4306,-90.75,27.0,-7.8,8.9256,-0.9481,-2.6312,0.9116,0.1873,0.3973,-73.2,9.3,-11.4,-15.24,-8.02,-13.73,-0.7123,-1.6864,1.5981,2.875,8.6875,37.5625,203.5625,-18.6875,157.3125,0
1776974414.85,14.3389,6.8426,-5.8131,-0.4682,0.2249,0.4306,-90.75,27.0,-7.8,8.9256,-0.9481,-2.6312,0.9116,0.1873,0.3973,-73.2,9.3,-11.4,-15.24,-8.02,-13.73,-0.7123,-1.6864,1.5981,2.875,8.6875,37.5625,203.5625,-18.6875,157.3125,0
1776974414.855,12.8162,9.5577,-7.4627,1.1498,0.9774,0.4279,-90.45,28.5,-9.15,9.9503,-2.6456,-4.1922,0.9739,0.9694,0.6632,-72.3,9.15,-11.25,-4.08,-7.12,-7.3,-0.6294,-0.5531,0.7832,2.875,8.6875,37.5625,203.875,-19.1875,157.75,0
1776974414.861,12.8162,9.5577,-7.4627,1.1498,0.9774,0.4279,-90.45,28.5,-9.15,12.0835,-3.4644,-4.1252,0.9739,0.9694,0.6632,-72.3,9.15,-11.25,0.67,-1.17,-6.34,-0.5781,-0.3731,0.5705,2.875,8.6875,37.5625,204.125,-19.5,158.1875,0
1776974414.867,12.6677,10.5991,-6.3542,2.0011,0.7037,-0.0019,-90.45,28.5,-9.15,12.0835,-3.4644,-4.1252,0.9942,1.1804,0.7045,-72.0,8.55,-10.65,0.67,-1.17,-6.34,-0.5781,-0.3731,0.5705,2.875,8.6875,37.5625,204.3125,-20.0625,158.5,0
1776974414.876,9.5744,5.1284,0.1963,1.0144,0.2145,-0.1727,-88.95,28.5,-9.15,11.1259,-4.221,-1.1396,0.5159,1.0632,0.5572,-71.7,7.8,-9.6,-6.29,-0.66,-12.66,-0.5051,-0.8759,0.6327,2.875,8.6875,37.5625,204.5,-20.5625,158.5625,0
1776974414.886,7.5609,-1.4269,-0.419,0.9254,-0.0653,0.081,-88.5,28.5,-7.8,8.837,-3.3255,0.8763,0.1271,1.0784,0.5553,-71.7,7.8,-9.6,-4.63,-0.47,-9.34,-0.0578,-0.7592,0.4396,2.875,8.6875,37.5625,204.5,-20.5625,158.5625,0
1776974414.891,7.5609,-1.4269,-0.419,0.9254,-0.0653,0.081,-88.5,28.5,-7.8,7.5753,-0.6153,2.4876,0.1271,1.0784,0.5553,-71.7,7.8,-9.6,-4.63,-0.47,-9.34,-0.0578,-0.7592,0.4396,2.875,8.6875,37.5625,204.5625,-20.75,158.625,0
1776974414.896,7.2353,-3.0837,-0.2562,0.7136,-0.0512,0.3008,-88.5,29.25,-9.9,7.5753,-0.6153,2.4876,-0.5111,1.2159,0.5764,-72.9,6.6,-8.4,-3.99,-2.83,-9.26,-0.0785,-0.3807,0.2553,5.5,5.5625,36.0,204.5625,-20.75,158.625,0
1776974414.901,7.2353,-3.0837,-0.2562,0.7136,-0.0512,0.3008,-88.5,29.25,-9.9,8.0038,2.8036,3.5195,-0.8998,1.3486,0.5233,-72.9,6.6,-8.4,-3.99,-2.83,-9.26,-0.0785,-0.3807,0.2553,5.5,5.5625,36.0,204.625,-21.0625,158.5625,0
1776974414.906,7.9871,-1.8435,3.6488,0.8068,-0.3643,0.3405,-90.75,30.0,-9.6,8.0038,2.8036,3.5195,-0.8998,1.3486,0.5233,-72.9,6.6,-8.4,-4.85,-3.28,-9.3,0.0971,-0.5214,0.168,5.5,5.5625,36.0,204.625,-21.0625,158.5625,0
1776974414.915,7.58,0.6297,5.1691,0.9166,-0.1687,0.502,-90.75,30.0,-9.6,8.9016,4.3359,2.715,-0.8447,1.2452,0.4471,-72.45,8.1,-8.1,-3.58,-3.69,-7.87,0.144,-0.6218,0.1211,5.5,5.5625,36.0,204.625,-21.4375,158.4375,0
1776974414.921,7.58,0.6297,5.1691,0.9166,-0.1687,0.502,-90.75,30.0,-9.6,9.9814,5.3774,3.1963,-0.1196,0.9094,0.4399,-72.45,8.1,-8.1,-3.58,-3.69,-7.87,0.18,-0.5912,0.1298,5.5,5.5625,36.0,204.6875,-21.75,158.3125,0
1776974414.927,5.0853,2.0686,5.9209,0.8809,0.5955,0.6811,-91.8,31.05,-9.15,9.9814,5.3774,3.1963,-0.1196,0.9094,0.4399,-73.8,7.95,-7.2,-3.97,-5.92,-7.15,0.18,-0.5912,0.1298,5.5,5.5625,36.0,204.75,-22.0,158.25,0
1776974414.936,9.3685,2.5091,4.446,0.7053,1.0144,0.7807,-91.5,28.8,-8.55,9.8928,4.9201,3.3399,0.7946,0.5937,0.4498,-73.65,6.6,-8.4,-3.88,-5.97,-7.27,0.0873,-0.4265,0.156,5.5,5.5625,36.0,204.75,-22.0,158.25,0
1776974414.941,9.3685,2.5091,4.446,0.7053,1.0144,0.7807,-91.5,28.8,-8.55,10.1969,3.4955,2.7366,1.4783,0.3373,0.4546,-73.65,6.6,-8.4,-3.88,-5.97,-7.27,0.0873,-0.4265,0.156,5.5,5.5625,36.0,204.75,-22.0,158.25,0
1776974414.946,8.9088,1.1612,3.3662,0.7282,0.3142,0.7144,-93.0,27.75,-8.1,10.1969,3.4955,2.7366,1.4783,0.3373,0.4546,-73.95,7.8,-7.65,-5.07,-4.68,-8.23,-0.0742,-0.4592,0.2007,7.0,5.25,37.1875,204.8125,-22.3125,158.3125,0
1776974414.951,8.9088,1.1612,3.3662,0.7282,0.3142,0.7144,-92.4,27.45,-8.1,10.07,1.1301,2.8778,1.6494,0.2334,0.4263,-73.95,7.8,-7.65,-5.07,-4.68,-8.23,-0.0742,-0.4592,0.2007,7.0,5.25,37.1875,204.8125,-22.3125,158.3125,0
1776974414.956,9.7348,1.0223,2.1859,0.7647,0.4954,0.6398,-92.4,27.45,-8.25,10.07,1.1301,2.8778,1.6494,0.2334,0.4263,-72.9,7.35,-6.15,-4.66,-4.22,-8.05,-0.1898,-0.4036,0.2302,7.0,5.25,37.1875,204.875,-22.5625,158.4375,0
1776974414.962,9.7157,0.7638,1.889,0.5462,0.5577,0.5646,-92.4,27.9,-6.9,10.0676,-1.6664,2.6959,1.4029,0.32,0.385,-72.9,7.35,-6.15,-4.22,-3.89,-8.23,-0.2269,-0.2171,0.2138,7.0,5.25,37.1875,204.9375,-22.6875,158.625,0
1776974414.967,9.7157,0.7638,1.889,0.5462,0.5577,0.5646,-92.4,27.9,-6.9,10.4507,-4.3072,2.2386,1.4029,0.32,0.385,-73.8,6.75,-7.5,-4.22,-3.89,-8.23,-0.2269,-0.2171,0.2138,7.0,5.25,37.1875,205.0,-22.8125,158.8125,0
1776974414.976,9.9934,0.4836,0.8882,0.417,0.5801,0.514,-92.4,27.9,-6.9,10.4507,-4.3072,2.2386,1.0216,0.376,0.32,-73.8,6.75,-7.5,-4.33,-3.06,-8.46,-0.2793,-0.1134,0.216,7.0,5.25,37.1875,205.0,-22.8125,158.8125,0
1776974414.986,10.4986,0.3424,-0.4429,0.2467,0.5241,0.4703,-90.75,24.75,-8.55,10.4698,-5.0949,0.9792,0.3722,0.4058,0.2838,-72.45,6.15,-5.1,-4.25,-2.79,-8.56,-0.3229,-0.0425,0.2018,7.0,5.25,37.1875,205.0625,-22.875,159.0,0
1776974414.991,10.5536,0.7925,-1.008,0.2316,0.5529,0.4695,-90.45,25.05,-7.8,10.1754,-4.4628,-0.012,-0.4122,0.4535,0.271,-72.45,6.15,-5.1,-4.25,-2.79,-8.56,-0.3229,-0.0425,0.2018,7.0,5.25,37.1875,205.125,-22.9375,159.25,0
1776974414.996,10.5536,0.7925,-1.008,0.2316,0.5529,0.4695,-90.45,25.05,-7.8,9.8881,-2.8036,-0.4357,-0.4122,0.4535,0.271,-72.45,6.15,-5.1,-4.13,-2.85,-8.59,-0.3196,-0.0284,0.1778,7.25,5.5,36.375,205.125,-22.9375,159.25,0
1776974415.001,11.0325,1.3838,-1.3479,0.1061,0.5569,0.5063,-91.65,23.4,-9.3,9.8881,-2.8036,-0.4357,-1.0352,0.4911,0.2561,-72.45,6.15,-5.1,-4.13,-2.85,-8.59,-0.3196,-0.0284,0.1778,7.25,5.5,36.375,205.1875,-23.0,159.4375,0
1776974415.006,11.0325,1.3838,-1.3479,0.1061,0.5569,0.5063,-91.65,23.4,-9.3,9.8426,-1.3527,-0.2753,-1.0352,0.4911,0.2561,-73.35,4.5,-6.75,-4.11,-2.77,-8.65,-0.2891,-0.0622,0.1593,7.25,5.5,36.375,205.1875,-23.0,159.4375,0
1776974415.012,9.6103,1.9345,-0.3448,0.2094,0.5764,0.5489,-89.7,24.3,-7.05,9.8426,-1.3527,-0.2753,-1.2263,0.4708,0.2601,-73.35,4.5,-6.75,-4.15,-2.81,-8.61,-0.2247,-0.0905,0.1407,7.25,5.5,36.375,205.25,-23.0625,159.5625,0
1776974415.017,9.6103,1.9345,-0.3448,0.2094,0.5764,0.5489,-89.7,24.3,-7.05,9.7276,0.34,-0.2586,-1.1135,0.4034,0.2753,-75.3,5.55,-5.25,-4.15,-2.81,-8.61,-0.2247,-0.0905,0.1407,7.25,5.5,36.375,205.25,-23.125,159.6875,0
1776974415.026,9.8689,2.1452,0.0431,0.3736,0.53,0.5606,-89.7,24.3,-7.05,9.5098,1.7765,-0.2155,-0.7973,0.4367,0.2745,-74.55,4.8,-5.7,-4.2,-2.74,-8.68,-0.1527,-0.0774,0.1167,7.25,5.5,36.375,205.3125,-23.1875,159.75,0
1776974415.036,9.8785,2.3774,0.5794,0.4991,0.4461,0.554,-90.6,20.4,-8.25,9.5792,2.8467,-0.2705,-0.3866,0.5337,0.2713,-74.7,4.95,-7.35,-4.15,-2.74,-8.61,-0.1244,-0.0447,0.0927,7.25,5.5,36.375,205.3125,-23.1875,159.75,0
1776974415.041,9.256,2.624,1.0894,0.5891,0.4724,0.5612,-90.0,21.3,-5.7,9.5792,2.8467,-0.2705,-0.3866,0.5337,0.2713,-74.7,4.95,-7.35,-4.15,-2.74,-8.61,-0.1244,-0.0447,0.0927,7.25,5.5,36.375,205.3125,-23.1875,159.8125,0
1776974415.046,9.256,2.624,1.0894,0.5891,0.4724,0.5612,-90.0,21.3,-5.7,9.9288,2.7701,0.7973,0.1159,0.5335,0.2481,-74.85,4.05,-5.25,-4.22,-2.86,-8.61,-0.1102,-0.0273,0.072,7.6875,4.75,35.5625,205.3125,-23.1875,159.8125,0
1776974415.051,10.003,3.1244,1.3743,0.818,0.3501,0.5614,-89.85,21.15,-8.25,9.9288,2.7701,0.7973,0.1159,0.5335,0.2481,-74.85,4.05,-5.25,-4.22,-2.86,-8.61,-0.1102,-0.0273,0.072,7.6875,4.75,35.5625,205.3125,-23.1875,159.8125,0
1776974415.056,10.003,3.1244,1.3743,0.818,0.3501,0.5614,-89.85,21.15,-8.25,10.2161,2.794,1.1037,0.5945,0.5295,0.243,-74.4,5.85,-6.9,-4.16,-2.94,-8.61,-0.0884,-0.0251,0.0458,7.6875,4.75,35.5625,205.3125,-23.1875,159.875,0
1776974415.061,8.3965,3.2872,2.0279,0.9062,0.558,0.5609,-90.0,19.5,-7.05,10.2161,2.794,1.1037,0.5945,0.5295,0.243,-74.4,5.85,-6.9,-4.16,-2.94,-8.61,-0.0633,-0.0262,0.0305,7.6875,4.75,35.5625,205.375,-23.25,159.9375,0
1776974415.067,8.3965,3.2872,2.0279,0.9062,0.558,0.5609,-90.0,19.5,-7.05,10.173,2.1787,1.4054,0.9395,0.2974,0.2265,-74.4,5.85,-6.9,-4.17,-3.19,-8.47,-0.0633,-0.0262,0.0305,7.6875,4.75,35.5625,205.375,-23.25,159.9375,0
1776974415.076,9.3494,2.9664,1.6089,0.9928,0.5881,0.5532,-90.6,17.7,-7.95,9.6558,1.7645,1.2043,1.1343,0.1927,0.2068,-74.7,4.2,-4.35,-4.13,-3.4,-8.22,-0.0458,-0.0262,0.0207,7.6875,4.75,35.5625,205.375,-23.25,159.9375,0
1776974415.086,8.9687,2.6743,1.2713,1.1844,0.7821,0.5761,-90.6,17.7,-7.95,9.3374,0.8715,1.0822,1.2998,0.271,0.1937,-74.7,4.2,-4.35,-4.1,-3.3,-8.3,-0.0524,-0.0153,0.0175,7.6875,4.75,35.5625,205.375,-23.25,160.0,0
1776974415.091,9.5816,2.2721,1.0606,1.2367,0.7229,0.599,-90.6,16.65,-6.45,9.3374,0.8715,1.0822,1.2998,0.271,0.1937,-74.7,4.2,-4.35,-4.1,-3.3,-8.3,-0.0524,-0.0153,0.0175,7.6875,4.75,35.5625,205.375,-23.25,160.0,0
1776974415.096,9.5816,2.2721,1.0606,1.287,0.6265,0.603,-90.6,16.65,-6.45,9.4308,-0.3639,1.5921,1.189,0.2689,0.1817,-74.85,4.05,-4.95,-4.07,-3.16,-8.33,-0.0753,-0.0065,0.0175,7.6875,4.75,36.75,205.375,-23.25,160.0625,0
1776974415.101,9.4954,1.9441,0.7829,1.287,0.6265,0.603,-90.9,16.65,-6.15,9.4308,-0.3639,1.5921,1.189,0.2689,0.1817,-74.85,4.05,-4.95,-4.07,-3.16,-8.33,-0.0753,-0.0065,0.0175,7.6875,4.75,36.75,205.375,-23.25,160.0625,0
1776974415.106,9.7827,1.7095,0.7326,1.2764,0.7128,0.5974,-90.9,16.65,-6.15,9.8833,-1.3527,1.2857,0.9894,0.3555,0.1801,-74.55,3.6,-3.45,-3.94,-3.18,-8.28,-0.1058,-0.0338,0.0196,7.6875,4.75,36.75,205.375,-23.3125,160.125,0
1776974415.116,9.7827,1.7095,0.7326,1.1999,0.7304,0.5886,-90.45,15.75,-6.0,10.4579,-2.4229,1.0654,0.6358,0.3523,0.178,-75.6,4.5,-3.45,-4.1,-3.14,-8.42,-0.0993,-0.0218,0.0349,7.6875,4.75,36.75,205.375,-23.3125,160.1875,0
1776974415.121,9.5912,1.2857,1.0295,1.1999,0.7304,0.5886,-91.8,15.3,-6.0,10.3573,-2.8922,1.1396,0.6358,0.3523,0.178,-75.6,4.5,-3.45,-4.1,-3.14,-8.42,-0.0949,-0.0524,0.0425,7.6875,4.75,36.75,205.375,-23.375,160.1875,0
1776974415.127,10.4555,0.8475,0.565,1.0869,0.5852,0.5793,-91.8,15.3,-6.0,10.3573,-2.8922,1.1396,0.1924,0.3424,0.1839,-76.5,4.5,-3.75,-4.0,-3.09,-8.47,-0.0949,-0.0524,0.0425,7.6875,4.75,36.75,205.375,-23.375,160.1875,0
1776974415.136,8.6981,0.7326,0.9026,0.9217,0.6877,0.5681,-91.8,15.3,-6.0,10.2448,-2.2194,1.3001,-0.2451,0.3067,0.2041,-76.5,4.5,-3.75,-4.16,-3.1,-8.41,-0.0753,-0.0873,0.0458,7.6875,4.75,36.75,205.375,-23.4375,160.25,0
1776974415.141,8.6981,0.7326,0.9026,0.9217,0.6877,0.5681,-91.5,13.8,-4.95,9.9455,-0.9649,1.1612,-0.615,0.234,0.2334,-76.5,4.5,-3.75,-4.16,-3.1,-8.41,-0.0753,-0.0873,0.0458,7.6875,4.75,36.75,205.375,-23.4375,160.25,0
1776974415.146,9.73,0.6177,0.7111,0.6973,0.8591,0.5766,-91.5,13.8,-4.95,9.9455,-0.9649,1.1612,-0.615,0.234,0.2334,-75.45,4.2,-3.6,-3.97,-2.85,-8.52,-0.072,-0.0687,0.0404,7.6875,3.25,36.75,205.375,-23.4375,160.3125,0
1776974415.151,9.73,0.6177,0.7111,0.6973,0.8591,0.5766,-93.0,12.75,-5.25,9.6462,0.2514,0.5674,-0.7525,0.214,0.2334,-75.45,4.2,-3.6,-3.97,-2.85,-8.52,-0.072,-0.0687,0.0404,7.6875,3.25,36.75,205.375,-23.4375,160.3125,0
1776974415.156,9.572,0.5459,0.7159,0.5772,0.6867,0.5838,-93.0,12.75,-5.25,9.6462,0.2514,0.5674,-0.7525,0.214,0.2334,-75.45,4.2,-3.6,-4.22,-2.95,-8.42,-0.084,-0.0894,0.036,7.6875,3.25,36.75,205.375,-23.5,160.375,0
1776974415.161,9.572,0.5459,0.7159,0.5772,0.6867,0.5838,-91.05,13.05,-5.25,9.4164,1.2402,0.4094,-0.6534,0.2486,0.222,-75.45,4.2,-3.6,-4.22,-2.95,-8.42,-0.084,-0.0382,0.0251,7.6875,3.25,36.75,205.375,-23.5625,160.375,0
1776974415.167,9.8378,0.6656,0.5866,0.5359,0.6046,0.5862,-91.95,10.65,-5.25,9.4164,1.2402,0.4094,-0.6534,0.2486,0.222,-75.3,3.6,-5.25,-4.23,-2.94,-8.41,-0.084,-0.0382,0.0251,7.6875,3.25,36.75,205.375,-23.5625,160.375,0
1776974415.176,9.0237,0.9697,0.8954,0.4375,0.5063,0.6006,-91.95,10.65,-4.05,9.4308,1.7789,0.3017,-0.4,0.2537,0.2108,-76.65,3.0,-4.35,-4.06,-3.04,-8.38,-0.0654,-0.0284,0.0229,7.6875,3.25,36.75,205.375,-23.5625,160.4375,0
1776974415.18,9.0237,0.9697,0.8954,0.4375,0.5063,0.6006,-91.95,10.65,-4.05,9.6295,2.0087,0.316,-0.0957,0.2459,0.1873,-76.65,3.0,-4.35,-4.06,-3.04,-8.38,-0.0731,-0.0545,0.0251,7.6875,3.25,36.75,205.375,-23.625,160.5,0
1776974415.187,9.8569,1.5323,1.1061,0.4695,0.4154,0.6041,-91.95,10.65,-4.05,9.6295,2.0087,0.316,-0.0957,0.2459,0.1873,-76.2,4.2,-4.05,-4.07,-2.98,-8.35,-0.0731,-0.0545,0.0251,7.6875,3.25,36.75,205.375,-23.625,160.5,0
1776974415.192,9.8569,1.5323,1.1061,0.4695,0.4154,0.6041,-91.95,10.65,-4.05,9.5792,1.7909,0.5267,0.1897,0.2643,0.1841,-76.2,4.2,-4.05,-4.07,-2.98,-8.35,-0.084,-0.06,0.0316,7.6875,3.6875,37.1875,205.375,-23.6875,160.5,0
1776974415.197,9.3134,2.0016,0.8116,0.5015,0.4762,0.579,-93.3,7.05,-4.2,9.5792,1.7909,0.5267,0.1897,0.2643,0.1841,-75.9,3.0,-4.8,-4.08,-3.19,-8.2,-0.084,-0.06,0.0316,7.6875,3.6875,37.1875,205.375,-23.6875,160.5,0
1776974415.202,9.3134,2.0016,0.8116,0.5015,0.4762,0.579,-93.3,7.05,-4.2,9.5433,0.5938,0.7398,0.4207,0.2321,0.178,-75.9,3.0,-4.8,-4.08,-3.19,-8.2,-0.0993,-0.048,0.0393,7.6875,3.6875,37.1875,205.375,-23.6875,160.5625,0
1776974415.207,9.5313,2.1739,0.9744,0.5692,0.5708,0.6193,-92.25,5.55,-5.25,9.6391,0.2274,0.9553,0.4207,0.2321,0.178,-74.85,2.4,-2.4,-3.77,-3.07,-8.36,-0.0993,-0.048,0.0393,7.6875,3.6875,37.1875,205.375,-23.6875,160.5625,0
