timestamp,thigh_acc_x,thigh_acc_y,thigh_acc_z,thigh_gyro_x,thigh_gyro_y,thigh_gyro_z,thigh_mag_x,thigh_mag_y,thigh_mag_z,shank_acc_x,shank_acc_y,shank_acc_z,shank_gyro_x,shank_gyro_y,shank_gyro_z,shank_mag_x,shank_mag_y,shank_mag_z,foot_acc_x,foot_acc_y,foot_acc_z,foot_gyro_x,foot_gyro_y,foot_gyro_z,foot_mag_x,foot_mag_y,foot_mag_z,foot_euler_x,foot_euler_y,foot_euler_z,perturbation_event
1776973191.78,9.0166,4.5705,-1.1971,-0.9001,-0.0592,-0.1159,-94.95,-28.95,30.45,10.3334,-1.5036,1.1636,-0.4668,-1.9665,-2.3116,-75.3,-4.8,-9.0,-10.09,-2.53,-10.76,0.6425,2.2417,-2.2831,6.5625,-6.0625,27.5625,129.5,-18.4375,158.75,0
1776973191.79,8.9495,4.8435,-1.3072,-0.7285,0.0032,-0.1316,-93.45,-28.2,28.65,9.9168,-0.9864,0.8595,-0.5665,-1.8743,-2.2615,-77.4,-4.65,-9.9,-9.98,-2.14,-10.47,0.6294,2.27,-2.0878,6.5625,-6.0625,27.5625,128.625,-16.8125,158.1875,0
1776973191.799,7.8219,4.9632,-0.9697,-0.587,0.3794,-0.1311,-94.35,-27.0,28.8,9.6438,-0.5794,0.4908,-0.6496,-1.7453,-2.2106,-76.8,-2.4,-10.5,-9.67,-1.81,-9.94,0.6447,2.3551,-1.8162,6.5625,-6.0625,27.5625,127.9375,-15.25,157.6875,0
1776973191.806,8.9998,5.0422,-1.4078,-0.299,0.2753,-0.0911,-94.35,-27.0,28.8,9.3302,-0.2729,0.1628,-0.7309,-1.5956,-2.1448,-76.8,-2.4,-10.5,-9.67,-1.81,-9.94,0.6938,2.4326,-1.4901,6.5625,-6.0625,27.5625,127.4375,-13.6875,157.25,0
1776973191.811,8.9998,5.0422,-1.4078,-0.299,0.2753,-0.0911,-95.4,-27.3,28.5,9.3302,-0.2729,0.1628,-0.7309,-1.5956,-2.1448,-76.65,-2.25,-10.65,-9.31,-1.47,-9.37,0.6938,2.4326,-1.4901,6.5625,-6.0625,27.5625,127.4375,-13.6875,157.25,0
1776973191.816,8.9471,5.0398,-1.7478,-0.004,0.4658,-0.0509,-95.4,-27.3,28.5,9.1961,-0.1867,-0.17,-0.8066,-1.4368,-2.0789,-76.65,-2.25,-10.65,-9.31,-1.47,-9.37,0.793,2.4598,-1.1312,10.1875,-8.375,22.5,127.125,-12.1875,156.8125,0
1776973191.821,8.9471,5.0398,-1.7478,-0.004,0.4658,-0.0509,-95.4,-27.3,28.5,9.1961,-0.1867,-0.17,-0.8066,-1.4368,-2.0789,-77.4,-1.95,-12.9,-8.83,-1.07,-8.4,0.793,2.4598,-1.1312,10.1875,-8.375,22.5,127.125,-12.1875,156.8125,0
1776973191.826,8.8131,4.7621,-1.7166,0.218,0.1228,-0.0354,-95.4,-27.3,28.5,9.0046,-0.2682,-0.1867,-0.8895,-1.2825,-1.9963,-77.4,-1.95,-12.9,-8.83,-1.07,-8.4,0.9348,2.4424,-0.7799,10.1875,-8.375,22.5,127.0,-10.75,156.3125,0
1776973191.831,8.8131,4.7621,-1.7166,0.218,0.1228,-0.0354,-96.75,-25.65,31.05,9.0046,-0.2682,-0.1867,-0.8895,-1.2825,-1.9963,-77.4,-1.95,-12.9,-8.76,-0.99,-8.02,0.9348,2.4424,-0.7799,10.1875,-8.375,22.5,127.0,-10.75,156.3125,0
1776973191.84,8.6479,4.4245,-1.8316,0.3581,0.1428,-0.0224,-96.9,-27.75,30.15,8.9232,-0.1508,-0.1652,-0.9587,-1.1237,-1.9017,-77.25,0.15,-14.25,-8.55,-0.99,-7.62,1.1159,2.4042,-0.4745,10.1875,-8.375,22.5,127.125,-9.4375,155.75,0
1776973191.85,8.6646,4.1946,-1.6855,0.4096,0.0863,0.0149,-96.6,-27.0,29.85,8.9902,0.0407,-0.2322,-1.0499,-0.9856,-1.7885,-77.25,0.15,-14.25,-8.21,-0.96,-6.94,1.3079,2.3333,-0.2247,10.1875,-8.375,22.5,127.3125,-8.1875,155.0625,0
1776973191.859,8.4851,4.0079,-1.5443,0.4167,0.145,0.0775,-96.6,-27.3,33.0,8.8825,0.3974,-0.3831,-1.1338,-0.8575,-1.6545,-77.7,0.3,-14.7,-7.99,-1.03,-6.51,1.5043,2.2187,-0.0404,10.1875,-8.375,22.5,127.625,-7.0625,154.3125,0
1776973191.864,8.9232,4.1276,-1.3982,0.4197,0.2217,0.117,-96.6,-27.3,33.0,8.8107,0.9146,-0.4166,-1.2223,-0.7226,-1.4935,-77.7,0.3,-14.7,-7.99,-1.03,-6.51,1.5043,2.2187,-0.0404,10.1875,-8.375,22.5,127.625,-7.0625,154.3125,0
1776973191.869,8.9232,4.1276,-1.3982,0.4197,0.2217,0.117,-96.6,-27.3,33.0,8.8107,0.9146,-0.4166,-1.2223,-0.7226,-1.4935,-77.55,2.4,-15.6,-7.62,-1.08,-6.02,1.6624,2.0649,0.0851,20.75,-7.375,26.5625,128.0,-6.0625,153.4375,0
1776973191.874,9.1937,4.1037,-1.5419,0.4199,0.238,0.1298,-96.6,-27.3,33.0,8.6933,1.312,-0.5483,-1.3123,-0.6163,-1.3291,-77.55,2.4,-15.6,-7.62,-1.08,-6.02,1.6624,2.0649,0.0851,20.75,-7.375,26.5625,128.0,-6.0625,153.4375,0
1776973191.878,9.1937,4.1037,-1.5419,0.4199,0.238,0.1298,-97.8,-27.15,31.5,8.6933,1.312,-0.5483,-1.3123,-0.6163,-1.3291,-76.05,2.1,-16.05,-7.46,-1.32,-5.52,1.7551,1.8544,0.1647,20.75,-7.375,26.5625,128.375,-5.1875,152.5625,0
1776973191.883,8.8897,4.0342,-1.5131,0.384,0.1617,0.1069,-97.8,-27.15,31.5,8.5018,1.4389,-0.3735,-1.2854,-0.5215,-1.1583,-76.05,2.1,-16.05,-7.46,-1.32,-5.52,1.7551,1.8544,0.1647,20.75,-7.375,26.5625,128.75,-4.4375,151.625,0
1776973191.891,8.8897,4.0342,-1.5131,0.384,0.1617,0.1069,-97.65,-27.75,31.65,8.3725,1.664,-0.067,-1.2854,-0.5215,-1.1583,-77.25,2.85,-15.3,-7.8,-1.65,-5.64,1.7802,1.5882,0.2007,20.75,-7.375,26.5625,129.125,-3.875,150.6875,0
1776973191.9,8.9112,3.8475,-1.2977,0.3301,0.1047,0.073,-96.9,-27.3,30.6,8.2313,1.7549,0.0814,-1.1509,-0.4274,-0.9838,-77.25,2.85,-15.3,-8.1,-1.94,-5.76,1.7126,1.3297,0.2029,20.75,-7.375,26.5625,129.125,-3.875,150.6875,0
1776973191.91,8.7604,3.6966,-1.1444,0.2689,0.1223,0.0584,-97.8,-27.9,31.8,8.2121,1.7478,-0.1604,-1.0051,-0.2899,-0.793,-76.2,3.45,-17.4,-8.35,-2.0,-5.8,1.5555,1.1334,0.1756,20.75,-7.375,26.5625,129.375,-3.375,149.875,0
1776973191.915,8.8059,3.632,-1.008,0.2212,0.1649,0.0282,-98.7,-28.5,31.65,8.2121,1.7478,-0.1604,-0.8663,-0.1753,-0.5905,-76.2,3.45,-17.4,-8.35,-2.0,-5.8,1.5555,1.1334,0.1756,20.75,-7.375,26.5625,129.375,-3.375,149.875,0
1776973191.92,8.8059,3.632,-1.008,0.2212,0.1649,0.0282,-98.7,-28.5,31.65,8.1259,1.549,-0.3879,-0.8663,-0.1753,-0.5905,-76.2,3.45,-17.4,-7.93,-1.7,-5.22,1.3363,0.997,0.1407,25.75,-2.5,37.375,129.625,-2.9375,149.125,0
1776973191.925,8.7987,3.4237,-0.9433,0.1327,0.2313,-0.0016,-98.7,-28.5,31.65,8.1259,1.549,-0.3879,-0.7837,-0.0605,-0.4021,-76.2,3.45,-17.4,-7.93,-1.7,-5.22,1.3363,0.997,0.1407,25.75,-2.5,37.375,129.625,-2.9375,149.125,0
1776973191.93,8.7987,3.4237,-0.9433,0.1327,0.2313,-0.0016,-98.7,-28.5,31.65,8.0517,1.3623,-0.5818,-0.6848,0.045,-0.2228,-77.7,4.95,-16.95,-7.62,-1.46,-4.81,1.0897,0.8618,0.1233,25.75,-2.5,37.375,129.875,-2.5625,148.5625,0
1776973191.935,8.9591,3.2274,-0.984,0.0794,0.2761,-0.0224,-98.7,-28.5,31.65,8.0517,1.3623,-0.5818,-0.6848,0.045,-0.2228,-77.7,4.95,-16.95,-7.62,-1.46,-4.81,0.8628,0.672,0.1538,25.75,-2.5,37.375,130.0625,-2.3125,148.0625,0
1776973191.941,8.9591,3.2274,-0.984,0.0661,0.3102,-0.0269,-96.9,-26.55,31.35,8.0421,0.9744,-0.5507,-0.6033,0.1647,-0.0749,-78.3,4.8,-17.1,-7.51,-1.27,-4.56,0.8628,0.672,0.1538,25.75,-2.5,37.375,130.25,-2.125,147.6875,0
1776973191.951,9.0908,3.0694,-1.1851,0.0661,0.3102,-0.0269,-97.95,-27.3,31.35,8.0302,0.7853,-0.2801,-0.4634,0.2859,0.0663,-78.75,5.55,-16.8,-7.65,-1.42,-4.38,0.6927,0.4494,0.2149,25.75,-2.5,37.375,130.25,-2.125,147.6875,0
1776973191.961,9.1698,2.9161,-1.2594,0.0871,0.2928,0.0256,-97.35,-28.8,31.35,8.0996,0.5578,-0.0263,-0.3355,0.4029,0.1977,-78.15,5.4,-16.65,-7.72,-1.55,-4.42,0.5836,0.2367,0.2913,25.75,-2.5,37.375,130.5,-2.125,147.375,0
1776973191.965,9.0405,3.0478,-1.2977,0.0871,0.2928,0.0256,-97.05,-27.15,31.05,8.0996,0.5578,-0.0263,-0.3355,0.4029,0.1977,-78.15,5.4,-16.65,-7.72,-1.55,-4.42,0.5836,0.2367,0.2913,25.75,-2.5,37.375,130.6875,-2.1875,147.125,0
1776973191.971,8.9687,2.8515,-1.3647,0.1127,0.2609,0.0674,-97.05,-27.15,31.05,8.2049,0.4381,0.1101,-0.2603,0.514,0.3192,-79.8,3.3,-15.3,-7.59,-1.69,-4.45,0.5192,0.048,0.3578,27.75,3.25,43.5,130.6875,-2.1875,147.125,0
1776973191.975,8.9687,2.8515,-1.3647,0.1127,0.2609,0.0674,-97.05,-27.15,31.05,8.2049,0.4381,0.1101,-0.2603,0.514,0.3192,-79.8,3.3,-15.3,-7.59,-1.69,-4.45,0.5192,0.048,0.3578,27.75,3.25,43.5,130.875,-2.375,146.8125,0
1776973191.98,8.9759,2.7414,-1.4653,0.1801,0.2726,0.1146,-97.05,-27.15,31.05,8.3629,0.3184,0.182,-0.2001,0.6057,0.4234,-80.25,4.05,-16.8,-7.08,-1.94,-4.64,0.4854,-0.1167,0.4145,27.75,3.25,43.5,130.875,-2.375,146.8125,0
1776973191.989,8.9759,2.7414,-1.4653,0.1801,0.2726,0.1146,-97.05,-27.15,31.05,8.4611,0.1245,0.4214,-0.1295,0.6893,0.5335,-80.25,4.05,-16.8,-7.03,-2.06,-4.84,0.4778,-0.288,0.4505,27.75,3.25,43.5,131.125,-2.6875,146.5625,0
1776973191.994,8.8897,2.66,-1.506,0.2366,0.2513,0.1775,-97.05,-27.15,31.05,8.4611,0.1245,0.4214,-0.1295,0.6893,0.5335,-80.25,4.05,-16.8,-7.03,-2.06,-4.84,0.4778,-0.288,0.4505,27.75,3.25,43.5,131.3125,-3.0,146.3125,0
1776973192.001,8.7317,2.5307,-1.4557,0.2563,0.2451,0.2403,-96.6,-25.8,29.85,8.5329,0.0239,0.6201,-0.0818,0.7751,0.6331,-78.9,3.45,-15.45,-6.91,-2.26,-5.01,0.4898,-0.4549,0.4658,27.75,3.25,43.5,131.4375,-3.4375,146.0,0
1776973192.011,8.6143,2.2553,-1.3192,0.2678,0.2886,0.3056,-96.9,-28.5,31.35,8.7029,-0.2753,0.7733,-0.04,0.8308,0.7221,-80.1,3.45,-15.45,-6.7,-2.52,-5.2,0.5018,-0.612,0.4516,27.75,3.25,43.5,131.4375,-3.4375,146.0,0
1776973192.016,8.6143,2.2553,-1.3192,0.2678,0.2886,0.3056,-96.9,-25.8,29.85,8.7508,-0.419,0.8595,-0.04,0.8308,0.7221,-80.1,3.45,-15.45,-6.7,-2.52,-5.2,0.5018,-0.612,0.4516,27.75,3.25,43.5,131.5625,-3.9375,145.75,0
1776973192.021,8.4108,2.0518,-1.1756,0.2321,0.3741,0.3797,-96.9,-25.8,29.85,8.7508,-0.419,0.8595,0.0416,0.8958,0.8095,-79.35,2.25,-15.15,-6.95,-3.11,-5.73,0.5018,-0.7636,0.4167,28.375,5.5625,46.0625,131.5625,-3.9375,145.75,0
1776973192.026,8.4108,2.0518,-1.1756,0.2321,0.3741,0.3797,-96.9,-27.75,29.55,8.8178,-0.498,1.0056,0.0416,0.8958,0.8095,-79.35,2.25,-15.15,-6.95,-3.11,-5.73,0.5018,-0.7636,0.4167,28.375,5.5625,46.0625,131.625,-4.4375,145.5,0
1776973192.031,8.3797,1.6664,-0.9337,0.1961,0.4676,0.4668,-96.9,-27.75,29.55,8.8178,-0.498,1.0056,0.1151,0.9659,0.8948,-79.5,2.4,-14.55,-6.99,-3.41,-5.79,0.48,-0.8945,0.3622,28.375,5.5625,46.0625,131.625,-4.4375,145.5,0
1776973192.036,8.3797,1.6664,-0.9337,0.1961,0.4676,0.4668,-96.9,-27.75,29.55,10.0628,1.1779,2.5187,0.3333,1.1109,0.8452,-79.5,2.4,-14.55,-6.99,-3.41,-5.79,0.4222,-0.9796,0.2945,28.375,5.5625,46.0625,131.625,-5.0,145.25,0
1776973192.042,9.177,1.1779,-0.1269,0.1844,0.6416,0.659,-96.9,-27.75,29.55,10.0628,1.1779,2.5187,0.3333,1.1109,0.8452,-79.65,0.75,-15.15,-6.83,-3.63,-5.77,0.4222,-0.9796,0.2945,28.375,5.5625,46.0625,131.375,-5.3125,145.3125,0
1776973192.051,9.7636,0.9098,0.3879,0.121,0.801,0.9363,-97.5,-28.2,30.0,13.781,4.6974,-0.7925,-0.0485,0.8183,0.4642,-80.55,-0.15,-15.3,4.13,-17.64,-14.88,-0.2138,-0.8236,-0.144,28.375,5.5625,46.0625,131.375,-5.3125,145.3125,0
1776973192.061,9.9934,0.5866,0.7254,0.0592,0.7373,1.0834,-96.45,-27.9,29.25,15.3612,8.5521,-7.1347,-1.1357,0.0296,-0.133,-80.55,-0.15,-15.3,2.51,-14.8,-13.07,-2.6234,-1.5392,-0.1724,28.375,5.5625,46.0625,130.9375,-5.9375,146.6875,0
1776973192.066,9.9934,0.5866,0.7254,0.0592,0.7373,1.0834,-97.65,-27.75,29.1,11.4922,9.7564,-5.9376,-0.886,-0.3784,-0.5953,-80.55,-0.15,-15.3,2.51,-14.8,-13.07,-2.6234,-1.5392,-0.1724,28.375,5.5625,46.0625,130.9375,-5.9375,146.6875,0
1776973192.071,9.2153,0.6728,0.2705,-0.0901,0.6297,1.0898,-97.65,-27.75,29.1,11.4922,9.7564,-5.9376,-0.886,-0.3784,-0.5953,-79.5,0.45,-11.55,3.34,-11.17,-9.46,-2.4773,-1.6908,-0.1233,33.875,6.5,46.375,130.5625,-6.6875,148.0,0
1776973192.075,9.2153,0.6728,0.2705,-0.0901,0.6297,1.0898,-94.95,-27.15,30.0,6.3231,7.0629,-2.1572,0.995,0.0512,-0.4533,-79.5,0.45,-11.55,3.34,-11.17,-9.46,-2.4773,-1.6908,-0.1233,33.875,6.5,46.375,130.5625,-6.6875,148.0,0
1776973192.081,8.6359,1.415,-0.498,-0.3691,0.6249,0.9968,-94.95,-27.15,30.0,6.3231,7.0629,-2.1572,0.995,0.0512,-0.4533,-79.5,0.45,-11.55,1.99,-5.56,-2.04,-2.1282,-1.5621,-0.2062,33.875,6.5,46.375,130.125,-7.375,149.125,0
1776973192.087,8.7819,3.0981,-0.7661,-0.4088,1.0118,0.9675,-94.95,-27.15,30.0,6.1172,3.9433,0.3089,2.6961,0.4269,-0.0919,-79.5,0.45,-11.55,-5.76,0.89,-7.75,-2.5755,-1.849,0.5051,33.875,6.5,46.375,130.0,-8.4375,150.5,0
1776973192.092,8.7819,3.0981,-0.7661,-0.4088,1.0118,0.9675,-94.95,-27.15,30.0,6.1172,3.9433,0.3089,2.6961,0.4269,-0.0919,-80.1,1.05,-12.45,-5.76,0.89,-7.75,-2.5755,-1.849,0.5051,33.875,6.5,46.375,129.9375,-9.6875,152.125,0
1776973192.101,11.0756,5.2553,-1.6209,-0.1215,1.3315,1.1005,-94.95,-27.15,30.0,9.6869,4.1156,-3.0143,2.8386,0.6289,0.1561,-80.4,-1.05,-11.4,-7.26,-1.99,-11.69,-2.9485,-2.2537,0.7101,33.875,6.5,46.375,129.75,-10.75,153.5625,0
1776973192.111,13.125,7.5178,-2.897,0.5852,1.1501,1.1072,-94.5,-27.15,30.0,10.343,6.0382,-5.8658,1.9953,0.5023,0.1777,-81.0,0.15,-10.8,-3.91,-4.7,-11.18,-2.6758,-1.9155,0.3491,33.875,6.5,46.375,129.75,-10.75,153.5625,0
1776973192.116,13.6781,8.6167,-3.7469,1.5644,0.644,0.821,-93.45,-27.15,29.25,10.1706,4.3,-4.5993,1.5791,0.5708,0.2246,-81.0,0.15,-10.8,-3.91,-4.7,-11.18,-2.6758,-1.9155,0.3491,33.875,6.5,46.375,129.5625,-11.5,154.8125,0
1776973192.121,13.6781,8.6167,-3.7469,1.5644,0.644,0.821,-93.45,-27.15,29.25,10.1706,4.3,-4.5993,1.5791,0.5708,0.2246,-80.55,-0.9,-11.25,0.99,-0.11,-6.86,-2.3835,-1.4083,0.1876,40.0,3.0,45.0,129.5625,-11.5,154.8125,0
1776973192.126,13.5847,7.3191,-3.9744,2.367,0.4399,0.5252,-95.4,-27.75,30.6,11.6191,1.6089,-6.1842,1.3781,0.4676,0.2843,-80.55,-0.9,-11.25,0.99,-0.11,-6.86,-2.3835,-1.4083,0.1876,40.0,3.0,45.0,129.375,-12.25,156.0,0
1776973192.131,13.5847,7.3191,-3.9744,2.367,0.4399,0.5252,-95.4,-27.75,30.6,11.3725,-0.1053,-8.3582,1.3781,0.4676,0.2843,-79.5,0.15,-9.3,1.27,4.06,-9.15,-2.2035,-1.4203,0.2596,40.0,3.0,45.0,129.375,-12.25,156.0,0
1776973192.136,13.5751,5.0637,-3.0813,2.6662,0.4261,0.5433,-97.65,-27.3,33.0,11.3725,-0.1053,-8.3582,1.2012,0.2872,0.3166,-79.5,0.15,-9.3,1.27,4.06,-9.15,-1.6221,-1.7671,0.18,40.0,3.0,45.0,129.1875,-13.1875,156.8125,0
1776973192.142,13.5751,5.0637,-3.0813,2.6662,0.4261,0.5433,-97.65,-27.3,33.0,10.3094,-2.0638,-8.1092,1.3155,0.4506,0.4386,-81.0,-0.15,-10.8,-1.77,5.1,-12.08,-1.6221,-1.7671,0.18,40.0,3.0,45.0,129.0625,-14.3125,157.25,0
1776973192.151,13.0005,2.9664,-1.8196,2.4712,0.5825,0.7088,-97.65,-27.3,33.0,11.2216,-3.5195,-4.3814,1.5292,0.6851,0.5708,-81.0,-0.15,-10.8,-6.8,7.78,-14.78,-0.8814,-1.9908,0.2978,40.0,3.0,45.0,129.25,-15.4375,157.5625,0
1776973192.161,13.398,1.5275,-2.0159,2.0795,0.7194,0.919,-100.35,-28.65,36.15,11.4754,-0.0096,-0.237,1.088,0.9105,0.6137,-81.15,-2.25,-8.1,-11.47,0.03,-14.21,-0.5989,-1.8937,0.8378,40.0,3.0,45.0,129.25,-15.4375,157.5625,0
1776973192.166,13.6948,1.3743,-2.7246,1.8453,0.4783,1.0416,-103.05,-30.75,38.4,11.4754,-0.0096,-0.237,1.088,0.9105,0.6137,-81.15,-2.25,-8.1,-11.47,0.03,-14.21,-0.5989,-1.8937,0.8378,40.0,3.0,45.0,129.625,-16.4375,157.875,0
1776973192.171,13.6948,1.3743,-2.7246,1.8453,0.4783,1.0416,-104.25,-29.55,39.15,11.0875,3.9169,1.2498,0.8623,1.1154,0.6054,-80.4,-2.25,-6.6,-12.54,-13.81,-14.2,-0.3818,-1.585,1.0123,48.375,-1.75,42.0,129.625,-16.4375,157.875,0
1776973192.176,12.2032,1.9561,-3.1316,1.6286,-0.0474,0.9324,-104.25,-29.55,39.15,11.0875,3.9169,1.2498,0.8623,1.1154,0.6054,-80.4,-2.25,-6.6,-12.54,-13.81,-14.2,-0.3818,-1.585,1.0123,48.375,-1.75,42.0,129.625,-16.4375,157.875,0
1776973192.181,12.2032,1.9561,-3.1316,1.6286,-0.0474,0.9324,-106.05,-30.0,38.7,11.2623,4.8507,0.3041,1.2838,1.0333,0.5833,-80.4,-3.0,-6.15,-4.92,-9.07,-8.07,-0.5705,-0.9665,0.8999,48.375,-1.75,42.0,130.0,-17.125,158.25,0
1776973192.189,10.3693,2.4972,-3.0406,1.3507,-0.5012,0.644,-106.05,-30.0,38.7,9.6462,4.4341,2.6025,1.2838,1.0333,0.5833,-80.4,-3.0,-6.15,-6.52,0.74,-12.63,-0.5432,-0.9119,0.6381,48.375,-1.75,42.0,130.1875,-17.75,158.625,0
1776973192.194,9.074,1.5826,-1.5562,0.5777,-0.6816,0.3794,-104.7,-32.7,37.2,9.6462,4.4341,2.6025,1.5625,0.9089,0.5526,-81.3,-3.3,-6.0,-6.52,0.74,-12.63,-0.5432,-0.9119,0.6381,48.375,-1.75,42.0,130.375,-18.4375,158.9375,0
1776973192.202,9.074,1.5826,-1.5562,0.5777,-0.6816,0.3794,-104.7,-32.7,37.2,8.5186,3.1939,3.3136,1.4064,0.8556,0.5694,-80.55,-3.6,-8.25,-5.7,-2.35,-10.67,-0.5683,-1.1563,0.6174,48.375,-1.75,42.0,130.5,-19.0,159.1875,0
1776973192.211,7.9296,-0.3472,0.1915,-0.3246,-0.4138,0.2481,-101.85,-34.2,35.4,8.4324,1.4054,2.4421,1.0627,0.8748,0.6001,-82.2,-4.5,-6.0,-2.69,-4.94,-7.7,-0.3796,-0.8105,0.444,48.375,-1.75,42.0,130.5,-19.0,159.1875,0
1776973192.216,6.7469,-2.3679,1.9249,-1.1375,0.0402,0.2257,-101.85,-34.2,35.4,8.4324,1.4054,2.4421,1.0627,0.8748,0.6001,-82.2,-4.5,-6.0,-2.69,-4.94,-7.7,-0.3796,-0.8105,0.444,48.375,-1.75,42.0,130.5,-19.0,159.1875,0
1776973192.221,6.7469,-2.3679,1.9249,-1.1375,0.0402,0.2257,-98.85,-33.15,33.6,9.0836,-0.7901,1.98,0.9662,0.8937,0.6169,-82.2,-4.5,-6.0,-4.88,-3.54,-8.85,-0.3785,-0.8094,0.3752,55.25,-4.75,39.25,130.5625,-19.5,159.375,0
1776973192.226,5.7365,-4.1324,3.3447,-1.6896,0.4247,0.2891,-98.85,-33.15,33.6,9.0836,-0.7901,1.98,0.9662,0.8937,0.6169,-82.2,-4.5,-6.0,-4.88,-3.54,-8.85,-0.3785,-0.8094,0.3752,55.25,-4.75,39.25,130.5625,-19.5,159.375,0
1776973192.231,5.7365,-4.1324,3.3447,-1.716,0.6885,0.4229,-96.9,-33.0,33.0,9.6462,-1.0606,0.5411,0.6531,0.8274,0.5729,-82.2,-4.8,-6.0,-3.99,-3.24,-8.53,-0.4254,-0.889,0.3262,55.25,-4.75,39.25,130.625,-20.0,159.625,0
1776973192.237,5.8754,-5.2194,4.142,-1.716,0.6885,0.4229,-96.9,-33.0,33.0,9.5624,-0.7039,-0.0982,0.219,0.7885,0.498,-82.2,-4.8,-4.5,-3.52,-3.6,-8.54,-0.444,-0.7527,0.3022,55.25,-4.75,39.25,130.6875,-20.4375,159.875,0
1776973192.242,7.5322,-5.3989,4.4173,-1.481,0.8186,0.6355,-94.5,-33.45,29.25,9.5624,-0.7039,-0.0982,0.219,0.7885,0.498,-82.2,-4.8,-4.5,-3.52,-3.6,-8.54,-0.444,-0.7527,0.3022,55.25,-4.75,39.25,130.75,-20.875,160.125,0
1776973192.251,9.1099,-4.3359,4.1755,-1.0507,0.8026,0.7802,-94.5,-33.45,29.25,9.4906,0.2777,-0.1724,-0.0485,0.7925,0.4815,-82.2,-4.8,-4.5,-4.01,-2.72,-8.92,-0.4516,-0.6785,0.276,55.25,-4.75,39.25,130.75,-21.25,160.375,0
1776973192.261,10.4986,-2.9185,3.4357,-0.6686,0.6038,0.7845,-88.5,-31.05,27.0,9.6391,1.5443,0.1652,-0.2731,0.7802,0.5063,-82.2,-5.25,-4.2,-4.26,-2.66,-8.95,-0.4461,-0.6381,0.2531,55.25,-4.75,39.25,130.75,-21.25,160.375,0
1776973192.266,10.4986,-2.9185,3.4357,-0.6686,0.6038,0.7845,-88.5,-31.05,27.0,9.7827,2.2769,0.7685,-0.2731,0.7802,0.5063,-82.35,-5.4,-2.85,-4.26,-2.66,-8.95,-0.4461,-0.6381,0.2531,55.25,-4.75,39.25,130.75,-21.5625,160.625,0
1776973192.271,10.5584,-1.1157,2.5977,-0.2393,0.2617,0.6779,-87.15,-30.75,25.95,9.7827,2.2769,0.7685,-0.3325,0.7434,0.5279,-82.35,-5.4,-2.85,-4.2,-2.71,-8.89,-0.3894,-0.5967,0.2018,58.875,-7.6875,36.875,130.75,-21.5625,160.625,0
1776973192.276,10.5584,-1.1157,2.5977,-0.2393,0.2617,0.6779,-87.15,-30.75,25.95,9.8138,2.7461,1.1349,-0.2009,0.7464,0.5486,-83.1,-4.65,-2.85,-4.2,-2.71,-8.89,-0.3894,-0.5967,0.2018,58.875,-7.6875,36.875,130.75,-21.9375,160.75,0
1776973192.281,10.24,0.5746,2.241,0.2198,0.1455,0.4903,-85.95,-29.55,25.65,9.8138,2.7461,1.1349,-0.2009,0.7464,0.5486,-83.1,-4.65,-2.85,-4.31,-2.59,-8.92,-0.2836,-0.5705,0.1484,58.875,-7.6875,36.875,130.75,-21.9375,160.75,0
1776973192.289,10.24,0.5746,2.241,0.5311,0.0959,0.3155,-84.15,-30.3,25.95,9.8904,3.1268,1.4892,0.1135,0.7266,0.5433,-81.6,-5.4,-3.3,-4.4,-2.99,-8.79,-0.1876,-0.5509,0.1124,58.875,-7.6875,36.875,130.75,-22.1875,160.875,0
1776973192.294,10.1538,2.557,2.1907,0.5311,0.0959,0.3155,-84.15,-30.3,25.95,9.6534,2.885,1.7645,0.1135,0.7266,0.5433,-81.75,-6.0,-2.7,-4.4,-2.99,-8.79,-0.1876,-0.5509,0.1124,58.875,-7.6875,36.875,130.75,-22.5,160.9375,0
1776973192.302,9.5505,3.4261,2.138,0.3789,0.1596,0.2281,-84.15,-28.5,24.9,9.6534,2.885,1.7645,0.388,0.6891,0.5324,-81.75,-6.0,-2.7,-4.57,-2.92,-8.84,-0.1494,-0.5018,0.0829,58.875,-7.6875,36.875,130.75,-22.75,161.0,0
1776973192.312,9.7085,3.984,2.0997,0.1274,0.2601,0.2196,-84.15,-28.5,24.9,9.7037,1.8938,1.6328,0.5025,0.6416,0.5271,-82.65,-5.85,-2.85,-4.57,-3.05,-8.73,-0.1516,-0.4363,0.0676,58.875,-7.6875,36.875,130.75,-22.75,161.0,0
1776973192.316,9.7085,3.984,2.0997,0.1274,0.2601,0.2196,-84.15,-28.5,24.9,9.8593,0.735,1.561,0.4655,0.5974,0.4999,-82.65,-5.85,-2.85,-4.57,-3.05,-8.73,-0.1516,-0.4363,0.0676,58.875,-7.6875,36.875,130.75,-22.75,161.0,0
1776973192.321,9.7827,3.6799,2.0255,-0.0682,0.3038,0.2473,-84.75,-28.95,26.85,9.8593,0.735,1.561,0.4655,0.5974,0.4999,-82.65,-5.85,-2.85,-4.21,-3.01,-8.55,-0.18,-0.3425,0.0535,60.5625,-7.5625,36.5625,130.6875,-22.9375,161.0625,0
1776973192.326,9.7827,3.6799,2.0255,-0.0682,0.3038,0.2473,-84.75,-28.95,26.85,9.8976,-0.0718,1.664,0.3027,0.5505,0.47,-82.5,-5.55,-3.45,-4.21,-3.01,-8.55,-0.18,-0.3425,0.0535,60.5625,-7.5625,36.5625,130.6875,-22.9375,161.0625,0
1776973192.331,9.6534,2.9377,1.7238,-0.0211,0.3379,0.2822,-84.75,-28.2,26.4,9.8976,-0.0718,1.664,0.3027,0.5505,0.47,-82.5,-5.55,-3.45,-4.23,-2.77,-8.64,-0.1985,-0.2574,0.0404,60.5625,-7.5625,36.5625,130.6875,-23.0625,161.1875,0
1776973192.336,9.6534,2.9377,1.7238,-0.0211,0.3379,0.2822,-84.75,-28.2,26.4,9.9527,-0.2753,1.5658,0.0592,0.5438,0.4511,-82.35,-6.9,-2.55,-4.23,-2.77,-8.64,-0.1811,-0.2182,0.048,60.5625,-7.5625,36.5625,130.6875,-23.1875,161.25,0
1776973192.342,9.9168,2.4086,1.3001,0.158,0.4317,0.3299,-85.65,-26.25,28.8,9.9934,0.2322,1.0918,0.0592,0.5438,0.4511,-83.1,-7.35,-2.85,-4.34,-2.81,-8.61,-0.1811,-0.2182,0.048,60.5625,-7.5625,36.5625,130.6875,-23.1875,161.25,0
1776973192.351,9.6414,1.8435,1.1013,0.2505,0.5367,0.3877,-87.9,-27.0,28.8,9.9934,0.2322,1.0918,-0.215,0.5167,0.4498,-83.1,-7.35,-2.85,-4.34,-2.72,-8.61,-0.1298,-0.2007,0.0295,60.5625,-7.5625,36.5625,130.6875,-23.3125,161.3125,0
1776973192.356,9.6414,1.8435,1.1013,0.2505,0.5367,0.3877,-87.9,-27.0,28.8,9.8617,1.3527,0.8571,-0.3744,0.5057,0.4655,-81.75,-6.75,-1.65,-4.34,-2.72,-8.61,-0.0785,-0.1625,0.0284,60.5625,-7.5625,36.5625,130.6875,-23.4375,161.375,0
1776973192.362,9.5912,1.3048,1.0774,0.2715,0.5804,0.4282,-87.9,-27.0,28.8,9.6271,2.4684,0.8356,-0.4527,0.4874,0.4842,-83.25,-7.95,-1.65,-4.24,-2.91,-8.53,-0.0785,-0.1625,0.0284,60.5625,-7.5625,36.5625,130.6875,-23.4375,161.375,0
1776973192.367,9.4188,1.0894,1.1372,0.2854,0.5798,0.4279,-87.9,-27.0,28.8,9.6271,2.4684,0.8356,-0.4527,0.4874,0.4842,-83.25,-7.95,-1.65,-4.24,-2.91,-8.53,-0.0556,-0.1014,0.0404,60.875,-8.25,34.25,130.6875,-23.5,161.375,0
1776973192.372,9.4188,1.0894,1.1372,0.2854,0.5798,0.4279,-87.9,-27.0,28.8,9.4475,2.8874,0.8763,-0.465,0.4967,0.497,-83.25,-7.95,-1.65,-4.17,-2.85,-8.49,-0.0556,-0.1014,0.0404,60.875,-8.25,34.25,130.6875,-23.5,161.375,0
1776973192.377,9.4643,0.9529,1.3838,0.2507,0.506,0.3797,-87.9,-27.0,28.8,9.4475,2.8874,0.8763,-0.465,0.4967,0.497,-83.4,-6.6,-1.8,-4.17,-2.85,-8.49,-0.0502,-0.0698,0.0382,60.875,-8.25,34.25,130.6875,-23.5625,161.4375,0
1776973192.382,9.4643,0.9529,1.3838,0.2507,0.506,0.3797,-88.95,-22.05,31.65,9.5289,3.2561,0.8787,-0.4258,0.4525,0.5012,-83.4,-6.6,-1.8,-4.13,-2.88,-8.43,-0.0502,-0.0698,0.0382,60.875,-8.25,34.25,130.6875,-23.5625,161.4375,0
1776973192.387,8.6766,0.1006,1.6472,0.2268,0.5353,0.2963,-88.95,-22.05,31.65,9.5289,3.2561,0.8787,-0.4258,0.4525,0.5012,-83.4,-6.6,-1.8,-4.13,-2.88,-8.43,-0.0633,-0.0589,0.0513,60.875,-8.25,34.25,130.6875,-23.625,161.5,0
1776973192.392,8.6766,0.1006,1.6472,0.2268,0.5353,0.2963,-91.65,-20.4,33.6,9.1866,3.0263,0.1939,-0.275,0.4346,0.5084,-83.4,-6.6,-1.8,-3.82,-3.04,-8.25,-0.0633,-0.0589,0.0513,60.875,-8.25,34.25,130.6875,-23.6875,161.5,0
1776973192.402,10.0389,0.2729,0.498,-0.0187,0.648,0.3195,-93.15,-20.4,35.7,9.2392,2.4636,0.2777,-0.1188,0.4471,0.55,-82.95,-6.0,-1.65,-3.89,-3.11,-8.23,-0.0753,-0.0894,0.0545,60.875,-8.25,34.25,130.6875,-23.6875,161.5,0
1776973192.412,8.6838,-1.1109,0.1652,-0.311,0.8585,0.2036,-94.95,-24.15,40.35,9.4763,1.8052,0.7159,-0.1132,0.4082,0.571,-82.95,-6.0,-1.65,-4.1,-2.97,-8.3,-0.1025,-0.1396,0.0644,60.875,-8.25,34.25,130.75,-23.75,161.5625,0
1776973192.416,10.5536,-0.1053,3.1029,0.4285,0.5081,0.0794,-94.95,-24.15,40.35,9.4763,1.8052,0.7159,-0.1132,0.4082,0.571,-82.65,-7.8,-0.3,-4.1,-2.97,-8.3,-0.1025,-0.1396,0.0644,60.875,-8.25,34.25,130.75,-23.75,161.5625,0
1776973192.422,10.5536,-0.1053,3.1029,0.4285,0.5081,0.0794,-94.95,-24.15,40.35,9.4068,1.1229,0.6919,-0.1404,0.3922,0.5846,-82.65,-7.8,-0.3,-4.14,-2.82,-8.38,-0.1353,-0.1505,0.0785,62.0,-8.5625,35.1875,130.75,-23.875,161.6875,0
1776973192.426,8.8585,0.5794,1.3264,0.1116,0.5372,0.1793,-94.95,-24.15,40.35,9.4068,1.1229,0.6919,-0.1404,0.3922,0.5846,-82.35,-8.1,-1.8,-4.14,-2.82,-8.38,-0.1353,-0.1505,0.0785,62.0,-8.5625,35.1875,130.75,-23.875,161.6875,0
1776973192.432,8.8585,0.5794,1.3264,0.1116,0.5372,0.1793,-99.6,-30.45,49.95,9.5313,0.8164,0.6943,-0.1974,0.389,0.6009,-82.35,-8.1,-1.8,-4.21,-2.79,-8.4,-0.1691,-0.1418,0.0796,62.0,-8.5625,35.1875,130.75,-23.9375,161.75,0
1776973192.436,9.5864,0.9074,2.3176,0.1572,0.2302,0.2198,-100.35,-32.7,53.25,9.5313,0.8164,0.6943,-0.1974,0.389,0.6009,-83.4,-9.75,-1.35,-4.21,-2.79,-8.4,-0.1898,-0.132,0.0764,62.0,-8.5625,35.1875,130.75,-24.0625,161.875,0
1776973192.442,9.5864,0.9074,2.3176,0.1572,0.2302,0.2198,-100.35,-32.7,53.25,9.426,1.0534,0.6943,-0.2403,0.4002,0.6065,-83.4,-9.75,-1.35,-4.24,-2.74,-8.44,-0.1898,-0.132,0.0764,62.0,-8.5625,35.1875,130.75,-24.125,162.0,0
1776973192.451,8.9735,0.984,1.7358,0.0165,0.0389,0.3219,-102.75,-33.75,51.3,9.6678,0.5794,1.087,-0.2878,0.421,0.6081,-82.95,-7.5,-1.65,-4.21,-2.71,-8.43,-0.192,-0.1222,0.0764,62.0,-8.5625,35.1875,130.75,-24.125,162.0,0
1776973192.456,9.2225,0.498,0.1844,-0.5774,0.1106,0.364,-99.3,-34.65,48.15,9.6678,0.5794,1.087,-0.2878,0.421,0.6081,-82.95,-7.5,-1.65,-4.21,-2.71,-8.43,-0.1898,-0.1233,0.0633,62.0,-8.5625,35.1875,130.75,-24.1875,162.125,0
1776973192.463,9.2225,0.498,0.1844,-0.5774,0.1106,0.364,-99.3,-34.65,48.15,9.5146,1.0056,0.996,-0.3589,0.4021,0.582,-82.95,-7.5,-1.65,-4.22,-2.84,-8.37,-0.1898,-0.1233,0.0633,62.0,-8.5625,35.1875,130.75,-24.1875,162.125,0
1776973192.467,9.7276,0.237,-0.1006,-0.8956,0.3166,0.3411,-98.55,-34.2,48.15,9.6917,0.7063,1.1875,-0.3589,0.4021,0.582,-84.0,-11.1,-1.2,-4.22,-2.84,-8.37,-0.1713,-0.1407,0.0589,61.0625,-9.6875,35.1875,130.75,-24.3125,162.1875,0
1776973192.473,9.7276,0.237,-0.1006,-0.8956,0.3166,0.3411,-98.55,-34.2,48.15,9.6917,0.7063,1.1875,-0.466,0.4183,0.5399,-84.0,-11.1,-1.2,-4.15,-2.78,-8.31,-0.1713,-0.1407,0.0589,61.0625,-9.6875,35.1875,130.75,-24.3125,162.1875,0
1776973192.477,9.8497,-0.012,-0.2921,-1.0285,0.7011,0.2779,-98.55,-34.2,48.15,9.6462,0.6225,0.826,-0.466,0.4183,0.5399,-84.0,-11.1,-1.2,-4.15,-2.78,-8.31,-0.1614,-0.1549,0.0535,61.0625,-9.6875,35.1875,130.75,-24.4375,162.25,0
1776973192.482,9.8497,-0.012,-0.2921,-1.0285,0.7011,0.2779,-98.55,-34.2,48.15,9.6462,0.6225,0.826,-0.5404,0.3603,0.5415,-84.0,-11.1,-1.2,-4.24,-3.05,-8.36,-0.1614,-0.1549,0.0535,61.0625,-9.6875,35.1875,130.75,-24.4375,162.25,0
1776973192.487,9.7468,0.0742,-0.1413,-0.8617,0.5841,0.2758,-94.95,-34.65,41.4,9.7731,0.7805,0.5459,-0.5057,0.36,0.5454,-84.0,-9.45,-2.7,-4.24,-3.05,-8.36,-0.1538,-0.1713,0.0665,61.0625,-9.6875,35.1875,130.75,-24.5,162.375,0
1776973192.493,9.7779,-0.1221,0.0239,-0.8644,0.4778,0.3064,-94.95,-34.65,41.4,9.7731,0.7805,0.5459,-0.5057,0.36,0.5454,-84.0,-9.45,-2.7,-4.13,-2.61,-8.42,-0.1538,-0.1713,0.0665,61.0625,-9.6875,35.1875,130.75,-24.5,162.375,0
1776973192.501,9.7779,-0.1221,0.0239,-0.8644,0.4778,0.3064,-93.15,-34.65,41.1,9.7612,1.2043,0.6991,-0.4754,0.3256,0.5494,-81.75,-11.1,-0.9,-4.31,-2.64,-8.4,-0.1658,-0.1582,0.0785,61.0625,-9.6875,35.1875,130.8125,-24.625,162.4375,0
1776973192.506,9.3254,-0.2873,0.3089,-0.4863,0.284,0.3078,-91.05,-35.25,39.15,9.4763,1.4629,0.6919,-0.4754,0.3256,0.5494,-83.4,-10.95,-2.1,-4.31,-2.64,-8.4,-0.1604,-0.1734,0.0829,61.0625,-9.6875,35.1875,130.8125,-24.75,162.5625,0
1776973192.513,9.7851,0.0263,0.4166,-0.5033,0.3936,0.3059,-91.05,-35.25,39.15,9.4763,1.4629,0.6919,-0.4343,0.3192,0.5375,-83.4,-10.95,-2.1,-4.38,-2.73,-8.39,-0.1604,-0.1734,0.0829,61.0625,-9.6875,35.1875,130.8125,-24.75,162.5625,0
1776973192.518,9.7851,0.0263,0.4166,-0.5033,0.3936,0.3059,-90.75,-36.75,37.65,9.5529,1.4988,0.4477,-0.3168,0.3067,0.5335,-82.2,-9.9,-0.9,-4.38,-2.73,-8.39,-0.1604,-0.1734,0.0829,61.875,-10.0625,34.1875,130.8125,-24.8125,162.625,0
1776973192.523,9.4475,-0.0024,0.7853,-0.5372,0.3528,0.307,-90.75,-36.75,37.65,9.5529,1.4988,0.4477,-0.3168,0.3067,0.5335,-82.2,-9.9,-0.9,-4.22,-2.71,-8.32,-0.1538,-0.1538,0.0764,61.875,-10.0625,34.1875,130.8125,-24.8125,162.625,0
1776973192.527,9.4475,-0.0024,0.7853,-0.5372,0.3528,0.307,-90.75,-36.75,37.65,9.5146,1.3408,0.5722,-0.2686,0.3192,0.5247,-81.9,-10.95,-1.35,-4.22,-2.71,-8.32,-0.1538,-0.1538,0.0764,61.875,-10.0625,34.1875,130.8125,-24.9375,162.6875,0
1776973192.533,9.3111,0.6632,0.8428,-0.5804,0.3024,0.3099,-90.75,-36.75,37.65,9.5146,1.3408,0.5722,-0.2686,0.3192,0.5247,-81.9,-10.95,-1.35,-4.2,-2.78,-8.35,-0.1462,-0.1484,0.0665,61.875,-10.0625,34.1875,130.8125,-24.9375,162.6875,0
1776973192.537,9.3111,0.6632,0.8428,-0.5804,0.3024,0.3099,-90.15,-40.65,36.75,9.6438,0.7661,0.5411,-0.1871,0.3232,0.5276,-81.75,-11.4,-0.15,-4.2,-2.78,-8.35,-0.1353,-0.1593,0.0687,61.875,-10.0625,34.1875,130.8125,-25.0,162.8125,0
1776973192.543,8.9639,1.0726,1.4054,-0.5761,0.2486,0.2979,-90.15,-40.65,36.75,9.6438,0.7661,0.5411,-0.1871,0.3232,0.5276,-81.75,-11.4,-0.15,-4.28,-2.6,-8.37,-0.1353,-0.1593,0.0687,61.875,-10.0625,34.1875,130.8125,-25.0,162.8125,0
1776973192.552,9.3087,1.2737,1.7406,-0.4463,0.2934,0.2846,-87.9,-42.3,35.55,9.6199,0.3184,1.0726,-0.1588,0.3512,0.5436,-81.75,-11.4,-0.15,-4.23,-2.66,-8.37,-0.1265,-0.1647,0.0796,61.875,-10.0625,34.1875,130.875,-25.125,162.875,0
1776973192.556,9.3087,1.2737,1.7406,-0.4463,0.2934,0.2846,-88.35,-42.45,34.35,9.493,0.3903,1.2378,-0.1935,0.3624,0.5574,-82.5,-11.1,0.15,-4.23,-2.66,-8.37,-0.1189,-0.1865,0.0796,61.875,-10.0625,34.1875,130.875,-25.25,162.9375,0
1776973192.563,9.9216,1.6927,1.9872,-0.47,0.3789,0.2779,-88.35,-42.45,34.35,9.493,0.3903,1.2378,-0.1935,0.3624,0.5574,-82.5,-11.1,0.15,-4.48,-2.48,-8.42,-0.1189,-0.1865,0.0796,61.875,-10.0625,34.1875,130.875,-25.25,162.9375,0
1776973192.568,9.9216,1.6927,1.9872,-0.47,0.3789,0.2779,-89.1,-42.9,35.4,9.5074,0.826,1.3384,-0.2249,0.3693,0.567,-82.5,-11.1,0.15,-4.48,-2.48,-8.42,-0.1058,-0.1789,0.0753,63.25,-11.1875,33.25,130.875,-25.375,163.0,0
1776973192.573,9.3278,1.6065,1.8316,-0.3965,0.385,0.267,-89.1,-42.9,35.4,9.6295,1.2306,1.3192,-0.2249,0.3693,0.567,-82.5,-11.1,0.15,-4.54,-2.52,-8.4,-0.1058,-0.1789,0.0753,63.25,-11.1875,33.25,130.875,-25.375,163.0,0
1776973192.578,9.3278,1.6065,1.8316,-0.3965,0.385,0.267,-89.7,-43.8,34.2,9.6295,1.2306,1.3192,-0.2481,0.3696,0.5761,-82.95,-13.5,-0.15,-4.54,-2.52,-8.4,-0.1058,-0.1789,0.0753,63.25,-11.1875,33.25,130.875,-25.5,163.0625,0
1776973192.583,9.2536,1.0104,1.6975,-0.4135,0.4053,0.251,-89.7,-43.8,34.2,9.5385,1.0343,0.9697,-0.2481,0.3696,0.5761,-82.95,-13.5,-0.15,-4.49,-2.6,-8.35,-0.0894,-0.1462,0.0665,63.25,-11.1875,33.25,130.875,-25.5,163.0625,0
1776973192.588,9.2536,1.0104,1.6975,-0.4135,0.4053,0.251,-89.7,-43.8,34.2,9.5385,1.0343,0.9697,-0.2494,0.3477,0.5654,-83.7,-13.05,-0.15,-4.49,-2.6,-8.35,-0.0818,-0.1145,0.0611,63.25,-11.1875,33.25,130.9375,-25.5625,163.125,0
1776973192.593,9.3326,0.5124,1.4509,-0.3552,0.3981,0.2587,-89.7,-43.8,34.2,9.7324,0.5602,1.2067,-0.2494,0.3477,0.5654,-83.7,-13.05,-0.15,-4.23,-2.86,-8.28,-0.0818,-0.1145,0.0611,63.25,-11.1875,33.25,130.9375,-25.5625,163.125,0
1776973192.602,9.6726,0.3304,1.3886,-0.3349,0.4093,0.2763,-87.3,-44.7,35.4,9.6367,0.1173,0.996,-0.2124,0.3453,0.5612,-81.6,-12.45,0.0,-4.24,-2.77,-8.26,-0.0742,-0.1124,0.0676,63.25,-11.1875,33.25,130.9375,-25.625,163.125,0
1776973192.607,9.6726,0.3304,1.3886,-0.3349,0.4093,0.2763,-89.4,-46.2,34.65,9.6367,0.1173,0.996,-0.2217,0.3216,0.5473,-81.3,-13.05,-0.15,-4.24,-2.77,-8.26,-0.072,-0.1309,0.0873,63.25,-11.1875,33.25,130.9375,-25.6875,163.1875,0
1776973192.613,9.6103,0.2586,1.5083,-0.2864,0.3856,0.2952,-89.4,-46.2,34.65,9.6774,-0.2059,1.5323,-0.2113,0.3283,0.5516,-81.3,-13.05,-0.15,-4.14,-2.69,-8.34,-0.072,-0.1309,0.0873,63.25,-11.1875,33.25,130.9375,-25.6875,163.1875,0
1776973192.618,9.6103,0.2586,1.5083,-0.2864,0.3856,0.2952,-88.2,-46.05,34.8,9.6774,-0.2059,1.5323,-0.2113,0.3283,0.5516,-81.3,-13.05,-0.15,-4.14,-2.69,-8.34,-0.0709,-0.1571,0.0971,63.6875,-10.75,33.25,131.0,-25.8125,163.25,0
1776973192.623,9.6247,0.2394,1.5802,-0.2521,0.3379,0.3214,-89.4,-46.05,34.8,9.6103,-0.2705,1.4653,-0.2443,0.3208,0.5676,-81.3,-13.05,-0.15,-4.56,-2.41,-8.34,-0.0709,-0.1571,0.0971,63.6875,-10.75,33.25,131.0,-25.8125,163.25,0
1776973192.628,9.6247,0.2394,1.5802,-0.2521,0.3379,0.3214,-89.4,-45.45,36.45,9.6103,-0.2705,1.4653,-0.2443,0.3208,0.5676,-81.15,-11.7,1.05,-4.56,-2.41,-8.34,-0.072,-0.1778,0.1047,63.6875,-10.75,33.25,131.0,-25.9375,163.3125,0
1776973192.633,9.4308,0.2466,1.6448,-0.2558,0.3232,0.3296,-89.4,-45.45,36.45,9.5696,-0.1915,1.5538,-0.2697,0.3198,0.5644,-81.15,-11.7,1.05,-4.63,-2.36,-8.51,-0.072,-0.1778,0.1047,63.6875,-10.75,33.25,131.0,-25.9375,163.3125,0
1776973192.638,9.4308,0.2466,1.6448,-0.3187,0.3416,0.3371,-89.4,-45.45,36.45,9.5696,-0.1915,1.5538,-0.2697,0.3198,0.5644,-81.15,-11.7,1.05,-4.63,-2.36,-8.51,-0.0785,-0.1527,0.0927,63.6875,-10.75,33.25,131.0625,-26.0625,163.375,0
1776973192.643,9.3661,0.146,1.5586,-0.3187,0.3416,0.3371,-89.4,-45.45,36.45,9.4547,-0.0407,1.6352,-0.2497,0.3243,0.5596,-81.15,-11.7,1.05,-4.54,-2.51,-8.32,-0.0785,-0.1527,0.0927,63.6875,-10.75,33.25,131.0625,-26.125,163.375,0
1776973192.652,9.2919,0.0263,1.4246,-0.4431,0.3477,0.3461,-88.95,-45.3,35.55,9.4667,0.1006,1.7119,-0.2814,0.3352,0.5697,-82.2,-13.8,0.45,-4.56,-2.48,-8.39,-0.0796,-0.1167,0.0785,63.6875,-10.75,33.25,131.0625,-26.125,163.375,0
1776973192.662,9.3805,-0.1365,1.2857,-0.5367,0.3608,0.3587,-87.6,-45.9,35.4,9.6917,0.2227,1.5443,-0.3035,0.3421,0.5745,-82.5,-15.45,0.9,-4.54,-2.52,-8.34,-0.0753,-0.084,0.0742,63.6875,-10.75,33.25,131.125,-26.1875,163.4375,0
1776973192.667,9.675,-0.17,1.1756,-0.5894,0.3762,0.3568,-88.05,-45.15,34.35,9.6917,0.2227,1.5443,-0.3035,0.3421,0.5745,-81.15,-14.85,1.35,-4.54,-2.52,-8.34,-0.0753,-0.084,0.0742,63.6875,-10.75,33.25,131.125,-26.25,163.5,0
1776973192.672,9.675,-0.17,1.1756,-0.5894,0.3762,0.3568,-88.2,-46.5,34.35,9.6295,0.2394,1.233,-0.2731,0.3515,0.5801,-81.15,-14.85,1.35,-4.39,-2.59,-8.28,-0.0807,-0.0774,0.06,63.5625,-10.6875,33.0,131.125,-26.25,163.5,0
1776973192.677,9.8593,-0.0646,1.0319,-0.6283,0.3691,0.3413,-88.2,-46.5,36.3,9.6295,0.2394,1.233,-0.2731,0.3515,0.5801,-83.1,-17.55,1.8,-4.39,-2.59,-8.28,-0.0807,-0.0774,0.06,63.5625,-10.6875,33.0,131.125,-26.3125,163.5625,0
1776973192.682,9.8593,-0.0646,1.0319,-0.6283,0.3691,0.3413,-88.05,-46.65,34.95,9.6462,0.7757,1.403,-0.3158,0.3349,0.6017,-83.1,-17.55,1.8,-4.37,-2.65,-8.26,-0.0709,-0.0851,0.0611,63.5625,-10.6875,33.0,131.125,-26.3125,163.5625,0
1776973192.687,9.9335,0.2825,0.9242,-0.5676,0.3445,0.3011,-88.05,-46.65,34.95,9.6462,0.7757,1.403,-0.3158,0.3349,0.6017,-80.55,-15.75,0.15,-4.37,-2.65,-8.26,-0.0709,-0.1004,0.0698,63.5625,-10.6875,33.0,131.1875,-26.375,163.625,0
1776973192.693,9.9335,0.2825,0.9242,-0.5676,0.3445,0.3011,-88.05,-46.65,34.95,9.6223,0.984,1.2546,-0.3371,0.3347,0.6283,-80.55,-15.75,0.15,-4.43,-2.52,-8.33,-0.0709,-0.1004,0.0698,63.5625,-10.6875,33.0,131.1875,-26.375,163.625,0
1776973192.702,9.7636,0.3543,0.9936,-0.5854,0.3107,0.2553,-88.05,-46.65,34.95,9.4044,0.747,0.8164,-0.3248,0.3603,0.6544,-82.2,-16.2,1.65,-4.45,-2.56,-8.31,-0.0818,-0.1047,0.0665,63.5625,-10.6875,33.0,131.1875,-26.4375,163.625,0
1776973192.707,9.6486,0.7183,0.8906,-0.579,0.2878,0.2065,-85.95,-47.25,35.85,9.4044,0.747,0.8164,-0.3248,0.3603,0.6544,-82.2,-16.2,1.65,-4.45,-2.56,-8.31,-0.0829,-0.1167,0.0665,63.5625,-10.6875,33.0,131.1875,-26.5,163.6875,0
1776973192.713,9.6486,0.7183,0.8906,-0.579,0.2878,0.2065,-88.2,-46.8,35.55,9.5241,0.4262,1.2905,-0.4098,0.385,0.6917,-82.2,-16.2,1.65,-4.43,-2.65,-8.27,-0.0829,-0.1167,0.0665,63.5625,-10.6875,33.0,131.1875,-26.5,163.6875,0
1776973192.718,9.4739,0.9864,0.8978,-0.5817,0.2862,0.1628,-88.2,-46.8,35.55,9.4643,0.723,0.8691,-0.5193,0.3858,0.7312,-81.9,-15.6,2.85,-4.41,-2.5,-8.37,-0.084,-0.1189,0.0709,64.0,-10.6875,31.875,131.1875,-26.5625,163.75,0
1776973192.723,9.4739,0.9864,0.8978,-0.5817,0.2862,0.1628,-87.9,-46.8,34.8,9.4643,0.723,0.8691,-0.5193,0.3858,0.7312,-81.9,-15.6,2.85,-4.41,-2.5,-8.37,-0.084,-0.1189,0.0709,64.0,-10.6875,31.875,131.1875,-26.5625,163.75,0
1776973192.728,9.5193,1.2857,0.929,-0.6805,0.3421,0.126,-87.9,-46.8,34.8,9.4667,0.6464,0.8691,-0.5375,0.4258,0.7746,-81.0,-16.5,1.65,-4.41,-2.5,-8.37,-0.0949,-0.1069,0.0753,64.0,-10.6875,31.875,131.25,-26.625,163.8125,0
1776973192.733,9.5193,1.2857,0.929,-0.6805,0.3421,0.126,-85.8,-46.65,35.7,9.4667,0.6464,0.8691,-0.5375,0.4258,0.7746,-81.0,-16.5,1.65,-4.52,-2.5,-8.37,-0.0949,-0.1069,0.0753,64.0,-10.6875,31.875,131.25,-26.625,163.8125,0
1776973192.738,9.4212,1.482,0.5986,-0.7056,0.3272,0.1098,-85.8,-46.65,35.7,9.4379,0.6273,0.9337,-0.6113,0.4378,0.8263,-80.4,-19.05,2.55,-4.52,-2.5,-8.37,-0.096,-0.1156,0.0753,64.0,-10.6875,31.875,131.25,-26.6875,163.875,0
1776973192.743,9.4212,1.482,0.5986,-0.7056,0.3272,0.1098,-85.8,-46.65,35.7,9.4379,0.6273,0.9337,-0.6113,0.4378,0.8263,-80.4,-19.05,2.55,-4.56,-2.43,-8.36,-0.096,-0.1156,0.0753,64.0,-10.6875,31.875,131.25,-26.6875,163.875,0
1776973192.752,9.2536,1.5275,0.4764,-0.8159,0.3038,0.1039,-85.8,-46.65,35.7,9.3637,0.747,0.5171,-0.6861,0.4514,0.8799,-82.35,-17.1,0.6,-4.52,-2.46,-8.35,-0.0971,-0.1145,0.072,64.0,-10.6875,31.875,131.25,-26.8125,163.9375,0
1776973192.757,9.2703,1.7573,0.5387,-0.9792,0.296,0.113,-85.8,-46.65,35.7,9.5624,0.7901,1.3384,-0.6933,0.4684,0.9193,-81.9,-19.5,2.1,-4.52,-2.46,-8.35,-0.1025,-0.108,0.0709,64.0,-10.6875,31.875,131.3125,-26.875,164.0,0
1776973192.763,9.2703,1.7573,0.5387,-1.1383,0.2419,0.1271,-89.25,-49.8,35.85,9.5624,0.7901,1.3384,-0.6933,0.4684,0.9193,-81.9,-19.5,2.1,-4.62,-2.37,-8.31,-0.1025,-0.108,0.0709,64.0,-10.6875,31.875,131.3125,-26.875,164.0,0
1776973192.768,9.3877,1.6712,0.7781,-1.1383,0.2419,0.1271,-89.25,-49.8,35.85,9.5912,1.0032,1.3072,-0.6611,0.4978,0.9542,-80.4,-19.05,2.1,-4.62,-2.37,-8.31,-0.1025,-0.108,0.0709,63.5625,-11.5,32.25,131.3125,-26.9375,164.0625,0
1776973192.773,9.3877,1.7071,1.3408,-1.2732,0.199,0.1463,-87.6,-47.4,36.75,9.5912,1.0032,1.3072,-0.6611,0.4978,0.9542,-80.4,-19.05,2.1,-4.44,-2.59,-8.36,-0.1102,-0.0971,0.0665,63.5625,-11.5,32.25,131.3125,-26.9375,164.0625,0
1776973192.778,9.3877,1.7071,1.3408,-1.2732,0.199,0.1463,-87.6,-47.4,36.75,9.7109,0.7614,1.8938,-0.4858,0.5148,0.9995,-80.4,-19.05,2.1,-4.44,-2.59,-8.36,-0.1102,-0.0971,0.0665,63.5625,-11.5,32.25,131.3125,-27.0,164.1875,0
1776973192.783,9.3948,1.6281,1.9082,-1.4112,0.133,0.1668,-88.2,-48.3,35.55,9.7109,0.7614,1.8938,-0.4858,0.5148,0.9995,-80.4,-19.05,2.1,-4.6,-2.35,-8.42,-0.132,-0.0894,0.0644,63.5625,-11.5,32.25,131.3125,-27.0,164.1875,0
1776973192.788,9.3948,1.6281,1.9082,-1.4112,0.133,0.1668,-88.2,-48.3,35.55,9.924,0.5962,2.241,-0.3765,0.5169,1.0501,-80.1,-20.7,2.1,-4.6,-2.35,-8.42,-0.1473,-0.0709,0.0622,63.5625,-11.5,32.25,131.3125,-27.0625,164.25,0
1776973192.793,9.5744,1.5131,2.49,-1.533,0.0621,0.1929,-87.45,-47.55,34.8,9.924,0.5962,2.241,-0.3765,0.5169,1.0501,-80.1,-20.7,2.1,-4.61,-2.31,-8.45,-0.1473,-0.0709,0.0622,63.5625,-11.5,32.25,131.3125,-27.0625,164.25,0
1776973192.802,9.6534,1.3168,3.1244,-1.6918,0.0157,0.2068,-87.45,-47.55,34.8,10.0149,0.7159,2.5091,-0.3043,0.4818,1.0797,-80.1,-20.7,2.1,-4.53,-2.25,-8.58,-0.168,-0.0393,0.0491,63.5625,-11.5,32.25,131.3125,-27.0625,164.375,0
1776973192.807,9.6534,1.3168,3.1244,-1.6918,0.0157,0.2068,-87.45,-47.55,34.8,10.0556,0.3855,2.3798,-0.2579,0.5052,1.1237,-80.1,-22.2,3.3,-4.53,-2.25,-8.58,-0.1342,0.0011,0.0491,63.5625,-11.5,32.25,131.3125,-27.0625,164.4375,0
1776973192.813,9.8162,1.3862,3.7254,-1.4975,-0.0051,0.1847,-86.55,-48.9,33.9,10.2496,0.1604,2.5642,-0.2579,0.5052,1.1237,-80.1,-22.2,3.3,-4.53,-2.44,-8.53,-0.1342,0.0011,0.0491,63.5625,-11.5,32.25,131.3125,-27.0625,164.4375,0
1776973192.818,9.8162,1.3862,3.7254,-1.4975,-0.0051,0.1847,-86.55,-48.9,33.9,10.2496,0.1604,2.5642,-0.2795,0.4858,1.1644,-79.65,-22.65,3.6,-4.53,-2.44,-8.53,-0.1309,0.0273,0.0458,64.25,-12.5,31.875,131.375,-27.0625,164.5,0
1776973192.823,9.9623,1.4054,3.6559,-1.3912,-0.0029,0.1503,-87.0,-46.2,32.55,10.228,-0.1748,2.3679,-0.2795,0.4858,1.1644,-79.65,-22.65,3.6,-4.48,-2.71,-8.5,-0.1309,0.0273,0.0458,64.25,-12.5,31.875,131.375,-27.0625,164.5,0
1776973192.828,9.9623,1.4054,3.6559,-1.3912,-0.0029,0.1503,-87.0,-46.2,32.55,10.228,-0.1748,2.3679,-0.3477,0.478,1.1983,-78.15,-22.65,2.85,-4.48,-2.71,-8.5,-0.1909,0.132,0.0524,64.25,-12.5,31.875,131.375,-27.0,164.625,0
1776973192.833,9.8186,1.4365,3.9241,-0.9382,-0.0077,0.0863,-85.65,-46.5,30.9,10.343,-0.4166,1.6999,-0.4082,0.4426,1.2409,-78.15,-22.65,2.85,-4.53,-2.58,-8.52,-0.1909,0.132,0.0524,64.25,-12.5,31.875,131.375,-27.0,164.625,0
1776973192.838,9.8186,1.4365,3.9241,-0.9382,-0.0077,0.0863,-85.65,-46.5,30.9,10.343,-0.4166,1.6999,-0.4082,0.4426,1.2409,-79.5,-24.45,4.2,-4.53,-2.58,-8.52,-0.2334,0.2793,0.0665,64.25,-12.5,31.875,131.375,-26.875,164.8125,0
1776973192.843,10.6734,1.6712,3.2346,-0.6619,0.0738,0.0171,-84.75,-47.4,30.75,10.5752,-0.747,0.6033,-0.4831,0.4455,1.2865,-79.5,-24.45,4.2,-4.5,-2.81,-8.55,-0.2334,0.2793,0.0665,64.25,-12.5,31.875,131.4375,-26.6875,165.0,0
1776973192.853,10.4842,1.494,2.8036,-0.3651,0.0687,-0.049,-85.35,-45.0,31.95,10.4555,-1.0415,0.0431,-0.5033,0.4495,1.3403,-78.75,-24.45,3.0,-4.19,-2.58,-9.05,-0.2345,0.3643,0.1058,64.25,-12.5,31.875,131.5625,-26.75,165.125,0
1776973192.862,10.2185,1.4772,1.7669,-0.065,0.0354,-0.0722,-85.35,-45.0,31.95,10.4914,-0.3065,0.5459,-0.538,0.4636,1.3856,-78.3,-24.45,6.0,-4.19,-2.45,-8.87,-0.144,-0.0142,0.2334,64.25,-12.5,31.875,131.5625,-26.75,165.125,0
1776973192.867,10.2185,1.4772,1.7669,-0.065,0.0354,-0.0722,-85.35,-45.0,31.95,10.4914,-0.3065,0.5459,-0.538,0.4636,1.3856,-78.3,-24.45,6.0,-4.19,-2.45,-8.87,-0.144,-0.0142,0.2334,64.25,-12.5,31.875,131.5625,-26.75,165.125,0
1776973192.872,10.2065,1.5155,0.8978,0.0306,-0.0061,-0.1015,-84.15,-42.0,30.15,10.3382,0.2251,0.9002,-0.4924,0.4948,1.4104,-78.3,-24.45,6.0,-3.86,-2.53,-9.21,-0.2978,-0.1145,0.2443,64.25,-12.1875,31.875,131.625,-26.8125,165.375,0
1776973192.877,10.2065,1.5155,0.8978,0.0306,-0.0061,-0.1015,-84.15,-42.0,30.15,10.3382,0.2251,0.9002,-0.4924,0.4948,1.4104,-78.3,-24.45,6.0,-3.86,-2.53,-9.21,-0.2978,-0.1145,0.2443,64.25,-12.1875,31.875,131.625,-26.8125,165.375,0
1776973192.882,10.2376,1.4102,0.3567,0.0645,-0.0616,-0.1447,-82.8,-40.05,30.15,10.4651,0.1269,1.4772,-0.3267,0.5313,1.4546,-76.5,-26.7,4.5,-3.67,-2.66,-9.4,-0.4832,-0.1494,0.264,64.25,-12.1875,31.875,131.6875,-26.9375,165.6875,0
1776973192.89,10.5273,1.1827,0.1963,-0.0509,-0.1204,-0.2012,-84.0,-42.15,30.75,10.7188,-0.2921,1.4509,-0.3267,0.5313,1.4546,-77.7,-27.3,5.85,-3.6,-2.98,-9.53,-0.5803,-0.3283,0.3512,64.25,-12.1875,31.875,131.8125,-27.1875,166.125,0
1776973192.895,10.5273,1.1827,0.1963,-0.0509,-0.1204,-0.2012,-84.0,-42.15,30.75,10.7188,-0.2921,1.4509,-0.1569,0.5748,1.4871,-77.7,-27.3,5.85,-3.6,-2.98,-9.53,-0.5803,-0.3283,0.3512,64.25,-12.1875,31.875,131.9375,-27.5,166.5,0
1776973192.903,11.1666,0.9625,0.2011,-0.1639,-0.2388,-0.2795,-83.1,-41.55,29.55,11.2719,-1.2953,1.2306,-0.1194,0.6078,1.522,-77.55,-27.9,5.25,-3.59,-3.4,-9.71,-0.5738,-0.5029,0.4407,64.25,-12.1875,31.875,132.125,-27.9375,166.8125,0
1776973192.913,12.0213,1.0104,0.0527,-0.2156,-0.3539,-0.3717,-83.1,-41.55,29.55,12.0931,-1.9824,0.5674,-0.1202,0.6443,1.5764,-76.05,-28.65,5.25,-3.5,-3.17,-9.85,-0.4374,-0.7156,0.4887,64.25,-12.1875,31.875,132.125,-27.9375,166.8125,0
1776973192.918,12.0213,1.0104,0.0527,-0.2156,-0.3539,-0.3717,-83.1,-41.55,29.55,12.0931,-1.9824,0.5674,-0.1202,0.6443,1.5764,-75.9,-29.25,5.25,-3.5,-3.17,-9.85,-0.4374,-0.7156,0.4887,64.25,-12.1875,31.875,132.125,-27.9375,166.8125,0
1776973192.923,12.6127,1.3001,-0.3232,-0.2513,-0.4855,-0.4735,-83.1,-42.0,28.8,12.7491,-2.0375,0.1125,-0.2113,0.6512,1.6385,-75.9,-29.25,6.6,-3.05,-2.98,-10.4,-0.3447,-1.1388,0.5432,64.0,-13.5625,33.0625,132.3125,-28.625,167.125,0
1776973192.928,12.6127,1.3001,-0.3232,-0.3086,-0.5809,-0.583,-83.1,-42.0,28.8,12.7491,-2.0375,0.1125,-0.2113,0.6512,1.6385,-75.9,-29.25,6.6,-3.05,-2.98,-10.4,-0.3447,-1.1388,0.5432,64.0,-13.5625,33.0625,132.3125,-28.625,167.125,0
1776973192.933,12.2439,1.561,-0.6632,-0.3086,-0.5809,-0.583,-85.65,-42.75,29.1,12.8976,-1.2905,-0.7685,-0.2478,0.6925,1.7347,-75.45,-30.45,8.1,-3.47,-1.76,-10.21,-0.3829,-1.5043,0.636,64.0,-13.5625,33.0625,132.5,-29.5,167.4375,0
1776973192.938,12.2439,1.561,-0.6632,-0.3584,-0.6419,-0.7032,-85.65,-42.75,29.1,12.8976,-1.2905,-0.7685,-0.2478,0.6925,1.7347,-75.45,-30.45,8.1,-3.47,-1.76,-10.21,-0.3687,-1.8599,0.7407,64.0,-13.5625,33.0625,132.75,-30.625,167.75,0
1776973192.943,11.5808,2.0231,-1.1995,-0.3584,-0.6419,-0.7032,-85.35,-45.0,29.1,13.3692,-0.6823,-1.834,-0.3635,0.7488,1.8242,-75.45,-30.45,8.1,-3.29,-1.6,-10.49,-0.3687,-1.8599,0.7407,64.0,-13.5625,33.0625,133.0,-31.9375,168.0,0
1776973192.953,11.078,2.0494,-1.6448,-0.3339,-0.7024,-0.8111,-87.15,-46.05,28.05,13.5105,-0.1077,-2.3966,-0.5076,0.7997,1.8615,-75.45,-31.95,6.6,-3.44,-0.81,-10.91,-0.2705,-2.3278,0.805,64.0,-13.5625,33.0625,133.375,-33.625,168.125,0
1776973192.963,10.3621,1.8004,-2.6408,-0.0509,-0.7645,-0.9286,-86.7,-46.05,25.65,13.1106,0.2035,-2.7294,-0.5409,0.8849,1.8834,-75.45,-31.95,6.6,-3.57,-2.35,-10.63,-0.0513,-2.87,0.8781,64.0,-13.5625,33.0625,133.375,-33.625,168.125,0
1776973192.968,10.4483,1.901,-2.4948,0.4996,-0.7799,-1.0531,-86.7,-46.05,25.65,12.7132,0.1867,-3.3327,-0.6939,0.9827,1.8972,-75.45,-31.95,6.6,-3.57,-2.35,-10.63,-0.0513,-2.87,0.8781,64.0,-13.5625,33.0625,133.8125,-35.5,168.1875,0
1776973192.973,10.4483,1.901,-2.4948,0.4996,-0.7799,-1.0531,-86.7,-46.05,25.65,12.7132,0.1867,-3.3327,-0.6939,0.9827,1.8972,-73.05,-32.25,6.75,-2.89,-2.79,-11.48,0.1538,-3.267,1.0756,65.0625,-14.75,32.6875,133.8125,-35.5,168.1875,0
1776973192.978,10.8314,1.6089,-3.5314,1.0597,-1.0653,-1.2049,-87.9,-49.5,24.9,12.3541,-0.1245,-2.5426,-0.7935,1.0754,1.85,-73.05,-32.25,6.75,-2.89,-2.79,-11.48,0.1538,-3.267,1.0756,65.0625,-14.75,32.6875,134.4375,-37.625,168.375,0
1776973192.983,10.8314,1.6089,-3.5314,1.0597,-1.0653,-1.2049,-87.9,-49.5,24.9,12.3541,-0.1245,-2.5426,-0.7935,1.0754,1.85,-73.8,-33.0,6.45,-4.2,-5.06,-9.14,0.1669,-3.6117,1.4508,65.0625,-14.75,32.6875,134.4375,-37.625,168.375,0
1776973192.991,10.9487,0.8571,-3.5769,1.0453,-1.529,-1.3137,-89.7,-50.25,23.85,11.9566,-0.0646,-2.0566,-0.8124,1.1487,1.7946,-72.9,-33.15,4.8,-3.85,-4.12,-10.54,-0.2411,-3.8277,1.7628,65.0625,-14.75,32.6875,135.1875,-39.9375,168.9375,0
1776973192.996,10.7404,0.5124,-3.1747,0.9806,-1.8269,-1.2777,-89.7,-50.25,23.85,11.9638,-0.2801,-1.142,-0.8124,1.1487,1.7946,-72.9,-33.15,4.8,-3.85,-4.12,-10.54,-0.2411,-3.8277,1.7628,65.0625,-14.75,32.6875,136.125,-42.4375,169.8125,0
1776973193.003,10.7404,0.5124,-3.1747,0.9806,-1.8269,-1.2777,-91.05,-49.5,21.3,11.9638,-0.2801,-1.142,-0.8468,1.1746,1.7272,-71.1,-35.4,6.0,-5.18,-4.13,-10.28,-0.3851,-4.1822,2.15,65.0625,-14.75,32.6875,155.0625,-45.125,170.875,0
1776973193.013,10.7548,0.5411,-2.5091,0.8873,-1.8418,-1.2681,-91.35,-48.15,21.15,11.9255,-0.4405,0.1915,-0.9262,1.1365,1.6353,-71.1,-36.45,6.45,-5.85,-3.69,-10.69,-0.408,-4.5149,2.4478,65.0625,-14.75,32.6875,155.0625,-45.125,170.875,0
1776973193.018,11.4132,0.3591,-1.7597,0.4756,-1.9161,-1.3118,-91.35,-48.15,21.15,11.5688,-1.5778,2.3415,-0.9355,1.0541,1.5319,-71.1,-36.45,6.45,-5.85,-3.69,-10.69,-0.408,-4.5149,2.4478,65.0625,-14.75,32.6875,155.0625,-45.125,170.875,0
1776973193.023,11.4132,0.3591,-1.7597,0.4756,-1.9161,-1.3118,-91.35,-48.15,21.15,11.5688,-1.5778,2.3415,-0.9355,1.0541,1.5319,-70.05,-36.15,4.95,-6.79,-2.65,-10.83,-0.2313,-4.8182,2.5787,68.375,-16.5625,25.1875,152.5,-48.0,172.125,0
1776973193.028,11.5065,-0.0886,-0.5028,0.1823,-1.8471,-1.3931,-90.9,-45.15,19.05,10.8266,-3.0167,3.5458,-0.8212,1.1117,1.4613,-70.05,-36.15,4.95,-6.79,-2.65,-10.83,-0.2313,-4.8182,2.5787,68.375,-16.5625,25.1875,152.5,-48.0,172.125,0
1776973193.033,11.5065,-0.0886,-0.5028,0.1823,-1.8471,-1.3931,-90.9,-45.15,19.05,10.8266,-3.0167,3.5458,-0.8212,1.1117,1.4613,-70.05,-36.15,4.95,-10.07,-2.63,-11.22,0.1734,-5.0647,2.5405,68.375,-16.5625,25.1875,150.625,-50.9375,173.25,0
1776973193.038,12.2368,-1.0008,0.7709,-0.1055,-1.8426,-1.4917,-89.25,-46.5,18.45,10.3884,-4.1587,3.9911,-0.7525,1.2057,1.4418,-70.05,-36.15,4.95,-10.07,-2.63,-11.22,0.4832,-5.1487,2.4195,68.375,-16.5625,25.1875,149.375,-53.9375,174.3125,0
1776973193.044,12.2368,-1.0008,0.7709,-0.3139,-1.6974,-1.5889,-89.25,-46.5,18.45,9.9455,-5.2505,3.7685,-0.7525,1.2057,1.4418,-70.5,-38.7,4.35,-11.47,-3.79,-11.15,0.4832,-5.1487,2.4195,68.375,-16.5625,25.1875,148.4375,-56.8125,175.375,0
1776973193.053,12.3613,-1.4796,1.3096,-0.3139,-1.6974,-1.5889,-90.0,-45.3,17.4,9.6103,-7.1587,3.5961,-0.769,1.3656,1.4655,-69.0,-37.5,4.35,-12.74,-4.38,-11.42,0.6534,-4.9796,2.294,68.375,-16.5625,25.1875,148.4375,-56.8125,175.375,0
1776973193.063,12.4882,-2.0183,1.142,-0.6659,-1.5188,-1.639,-88.05,-43.2,16.8,9.1506,-9.1889,5.0494,-0.7994,1.51,1.4682,-68.85,-38.55,4.95,-10.79,-5.82,-9.54,0.8301,-4.4713,2.2591,68.375,-16.5625,25.1875,147.8125,-59.3125,176.6875,0
1776973193.068,12.4882,-2.9544,1.64,-0.9116,-1.4186,-1.5772,-90.45,-44.25,17.1,9.1506,-9.1889,5.0494,-0.6979,1.6457,1.3627,-68.85,-38.55,4.95,-10.79,-5.82,-9.54,0.8301,-4.4713,2.2591,68.375,-16.5625,25.1875,147.8125,-59.3125,176.6875,0
1776973193.073,12.4882,-2.9544,1.64,-1.1263,-1.2177,-1.3925,-90.45,-44.25,17.1,9.3111,-11.7651,7.7931,-0.6979,1.6457,1.3627,-67.65,-39.3,5.25,-7.84,-4.88,-8.76,0.9098,-3.9695,2.3027,70.5,-24.25,15.75,147.3125,-61.625,178.25,0
1776973193.078,13.5823,-4.6998,2.3343,-1.1263,-1.2177,-1.3925,-90.45,-44.25,17.1,9.3111,-11.7651,7.7931,-0.2233,1.7056,1.0251,-67.65,-39.3,5.25,-7.84,-4.88,-8.76,0.9098,-3.9695,2.3027,70.5,-24.25,15.75,147.3125,-61.625,178.25,0
1776973193.083,13.1921,-5.3822,3.2322,-1.2894,-1.2982,-1.2891,-90.45,-44.25,17.1,7.0413,-8.2265,7.1778,-0.2233,1.7056,1.0251,-67.35,-40.05,6.0,-4.47,-3.41,-7.66,0.973,-3.6674,2.45,70.5,-24.25,15.75,146.8125,-63.625,-179.625,0
1776973193.089,13.1921,-5.3822,3.2322,-1.2894,-1.2982,-1.2891,-86.7,-43.05,18.45,7.0413,-8.2265,7.1778,0.1892,1.4272,0.6339,-67.35,-40.05,6.0,-4.26,-2.61,-6.2,1.177,-3.6128,2.5885,70.5,-24.25,15.75,146.4375,-65.625,-177.125,0
1776973193.094,12.141,-4.6974,2.7653,-1.6918,-1.3046,-1.3019,-86.7,-43.05,18.45,5.2912,-6.9743,4.4245,-0.753,1.2564,0.4599,-66.6,-40.05,5.7,-4.26,-2.61,-6.2,1.177,-3.6128,2.5885,70.5,-24.25,15.75,146.25,-67.375,-174.25,0
1776973193.103,11.8417,-4.1803,2.6504,-2.0206,-1.1807,-1.3528,-88.05,-43.2,18.6,5.3654,-6.4069,5.4564,-1.0565,0.9422,0.2356,-66.6,-40.05,5.7,1.41,0.41,-5.12,1.3799,-3.3401,2.6474,70.5,-24.25,15.75,146.25,-67.375,-174.25,0
1776973193.113,11.4179,-3.5314,2.0614,-2.0656,-1.0965,-1.3624,-89.25,-45.0,20.25,3.2872,-6.7133,6.5864,-0.9324,0.4258,-0.0107,-65.55,-39.45,5.55,-10.37,-1.01,-7.46,1.6308,-2.3518,2.1129,70.5,-24.25,15.75,146.5,-68.5,-171.875,0
1776973193.118,11.4179,-3.5314,2.0614,-2.0656,-1.0965,-1.3624,-88.2,-45.3,19.5,3.2872,-6.7133,6.5864,-0.9324,0.4258,-0.0107,-65.55,-39.45,5.55,-10.37,-1.01,-7.46,1.6308,-2.3518,2.1129,70.5,-24.25,15.75,146.5,-68.5,-171.875,0
1776973193.123,10.8481,-2.7557,1.1109,-2.0102,-1.2412,-1.3656,-88.2,-45.3,19.5,2.6791,-5.442,6.8043,-1.0333,0.3395,-0.3003,-65.55,-39.45,5.55,-13.44,-7.62,-12.12,2.2733,-0.1898,1.1988,67.375,-27.5,9.5,147.6875,-68.5,-171.4375,0
1776973193.128,10.8481,-2.7557,1.1109,-2.0102,-1.2412,-1.3656,-88.2,-45.3,19.5,2.6791,-5.442,6.8043,-1.0333,0.3395,-0.3003,-65.55,-39.45,5.55,-13.44,-7.62,-12.12,2.2733,-0.1898,1.1988,67.375,-27.5,9.5,147.6875,-68.5,-171.4375,0
1776973193.133,10.5896,-1.9273,0.8571,-2.0243,-1.1703,-1.352,-88.2,-45.3,19.5,2.9161,-4.3598,4.9871,-1.3552,0.0288,-0.7149,-66.6,-39.3,2.7,-2.79,-10.5,-8.66,2.2406,1.4214,0.5203,67.375,-27.5,9.5,149.1875,-67.6875,-172.25,0
1776973193.138,10.5896,-1.9273,0.8571,-2.0243,-1.1703,-1.352,-88.2,-45.3,19.5,2.9161,-4.3598,4.9871,-1.3552,0.0288,-0.7149,-66.6,-39.3,2.7,-2.79,-10.5,-8.66,1.4617,2.0671,0.1571,67.375,-27.5,9.5,150.1875,-66.5625,-173.1875,0
1776973193.144,9.8569,-1.0319,0.5148,-2.0054,-1.0885,-1.3526,-88.2,-45.3,19.5,2.7821,-3.2082,3.1747,-1.777,-0.1783,-1.2033,-66.9,-38.55,1.95,0.52,-10.65,-5.36,1.4617,2.0671,0.1571,67.375,-27.5,9.5,150.375,-65.3125,-173.625,0
1776973193.153,9.1051,-0.0599,0.3424,-2.0387,-0.9289,-1.3272,-92.55,-42.0,22.35,2.3008,-2.9736,2.3128,-1.9089,-0.316,-1.6041,-68.25,-37.5,1.05,1.08,-8.34,-4.67,0.3971,2.2024,0.0622,67.375,-27.5,9.5,150.125,-64.0625,-173.8125,0
1776973193.163,8.6957,0.6991,0.4453,-1.9939,-0.8386,-1.2468,-92.4,-42.9,22.2,2.3439,-3.6129,2.5283,-1.4845,-0.4317,-1.9412,-68.7,-37.95,-0.6,-0.35,-2.69,-5.13,-0.2465,2.2624,-0.0524,67.375,-27.5,9.5,150.125,-64.0625,-173.8125,0
1776973193.168,8.6957,0.6991,0.4453,-1.9939,-0.8386,-1.2468,-93.45,-42.45,22.2,2.3439,-3.6129,2.5283,-1.4845,-0.4317,-1.9412,-68.7,-37.95,-0.6,-0.35,-2.69,-5.13,-0.2465,2.2624,-0.0524,67.375,-27.5,9.5,150.125,-64.0625,-173.8125,0
1776973193.173,8.2337,1.2019,0.2777,-1.9281,-0.591,-1.1671,-93.0,-40.05,22.2,2.8347,-4.0965,2.9305,-0.8143,-0.5113,-2.21,-68.7,-37.95,-0.6,-0.74,-1.34,-5.04,-0.2858,2.4456,-0.2978,62.0,-28.6875,15.6875,149.9375,-62.75,-174.3125,0
1776973193.178,8.2337,1.2019,0.2777,-1.9281,-0.591,-1.1671,-93.0,-40.05,23.1,3.4357,-3.7493,2.3846,-0.8143,-0.5113,-2.21,-68.7,-37.95,-0.6,-0.74,-1.34,-5.04,-0.2858,2.4456,-0.2978,62.0,-28.6875,15.6875,149.9375,-62.75,-174.3125,0
1776973193.183,8.0804,1.5251,-0.0455,-1.5633,-0.3472,-1.0789,-93.0,-40.05,23.1,3.4357,-3.7493,2.3846,-0.5169,-0.5854,-2.3603,-69.75,-36.0,-1.35,-0.56,-0.86,-4.76,0.0109,2.7522,-0.5781,62.0,-28.6875,15.6875,150.125,-61.25,-175.1875,0
1776973193.191,7.5633,1.4126,0.0814,-1.3334,-0.2097,-1.0472,-93.0,-40.05,23.1,4.1515,-3.7924,0.6081,-0.6185,-0.6587,-2.4365,-69.75,-36.0,-1.35,-0.3,-1.26,-4.37,0.3807,2.9616,-0.8279,62.0,-28.6875,15.6875,150.8125,-59.625,-176.375,0
1776973193.196,7.5633,1.4126,0.0814,-1.3334,-0.2097,-1.0472,-93.3,-39.3,24.9,4.1515,-3.7924,0.6081,-0.6185,-0.6587,-2.4365,-69.75,-36.0,-1.35,-0.3,-1.26,-4.37,0.3807,2.9616,-0.8279,62.0,-28.6875,15.6875,152.0,-58.0,-177.875,0
1776973193.204,7.8003,1.1133,0.7829,-1.1916,0.025,-0.9635,-92.7,-39.15,24.75,4.8554,-3.8666,2.4157,-0.4154,-0.7357,-2.5079,-73.2,-34.35,-1.8,-0.17,-1.1,-4.49,0.6796,3.0227,-1.0439,62.0,-28.6875,15.6875,153.5625,-56.375,-179.5,0
1776973193.213,8.0565,0.917,1.3838,-0.8772,-0.0357,-0.8212,-91.8,-37.5,24.45,5.2026,-3.7182,2.3727,-0.3613,-0.8551,-2.642,-73.8,-34.2,-1.65,-0.56,-0.27,-5.04,0.9098,2.9725,-1.2141,62.0,-28.6875,15.6875,153.5625,-56.375,-179.5,0
1776973193.218,8.0206,0.8787,1.4676,-0.5502,-0.2491,-0.6398,-91.8,-37.5,24.45,5.4803,-4.0199,1.7334,-0.3909,-0.8844,-2.7928,-73.8,-34.2,-1.65,-0.56,-0.27,-5.04,0.9098,2.9725,-1.2141,62.0,-28.6875,15.6875,155.5,-54.75,178.75,0
1776973193.223,8.0206,0.8787,1.4676,-0.5502,-0.2491,-0.6398,-94.05,-36.0,25.65,5.4803,-4.0199,1.7334,-0.3909,-0.8844,-2.7928,-74.7,-34.05,-4.35,-1.58,0.4,-5.91,1.1857,2.9485,-1.2785,54.6875,-23.875,29.1875,155.5,-54.75,178.75,0
1776973193.228,7.9272,0.826,1.2977,-0.3413,-0.4034,-0.4543,-94.05,-36.0,25.65,5.8538,-3.9576,1.7358,-0.4,-1.0501,-2.9114,-74.7,-34.05,-4.35,-1.58,0.4,-5.91,1.1857,2.9485,-1.2785,54.6875,-23.875,29.1875,157.9375,-53.0,177.125,0
1776973193.233,7.9272,0.826,1.2977,-0.3413,-0.4034,-0.4543,-91.95,-34.65,25.05,5.8538,-3.9576,1.7358,-0.4,-1.0501,-2.9114,-75.9,-31.2,-3.6,-3.32,0.76,-7.48,1.4955,3.0576,-1.2337,54.6875,-23.875,29.1875,157.9375,-53.0,177.125,0
1776973193.238,7.501,0.7183,1.2043,-0.1863,-0.5415,-0.2827,-91.95,-34.65,25.05,6.1028,-4.2641,1.652,-0.4218,-1.1338,-3.0462,-75.9,-31.2,-3.6,-3.32,0.76,-7.48,1.7835,3.2299,-1.1181,54.6875,-23.875,29.1875,160.75,-51.1875,175.4375,0
1776973193.244,7.501,0.7183,1.2043,-0.1863,-0.5415,-0.2827,-91.95,-34.65,25.05,6.1028,-4.2641,1.652,-0.4218,-1.1338,-3.0462,-77.55,-31.5,-4.5,-4.3,0.93,-8.2,1.7835,3.2299,-1.1181,54.6875,-23.875,29.1875,163.9375,-49.25,173.9375,0
1776973193.253,7.3334,0.261,1.1325,-0.0757,-0.5183,-0.1322,-93.15,-36.9,26.85,6.869,-4.5514,1.8747,-0.5012,-1.2116,-3.197,-78.15,-30.45,-5.1,-4.69,0.77,-8.71,1.9962,3.4241,-0.9687,54.6875,-23.875,29.1875,163.9375,-49.25,173.9375,0
1776973193.263,7.2281,-0.0287,0.9457,0.0594,-0.5049,-0.0192,-91.35,-37.2,26.4,7.4723,-4.628,1.6879,-0.6792,-1.3323,-3.3382,-78.15,-30.45,-5.1,-4.86,1.46,-9.05,2.0955,3.5681,-0.7418,54.6875,-23.875,29.1875,167.375,-47.25,172.5625,0
1776973193.268,7.1132,0.0096,0.723,0.1228,-0.5036,0.0823,-91.35,-37.2,26.4,8.0589,-4.8004,1.0846,-0.9585,-1.4381,-3.4315,-78.15,-30.45,-5.1,-4.86,1.46,-9.05,2.0955,3.5681,-0.7418,54.6875,-23.875,29.1875,170.9375,-45.1875,171.375,0
1776973193.273,7.1132,0.0096,0.723,0.1228,-0.5036,0.0823,-93.45,-36.9,26.4,8.0589,-4.8004,1.0846,-0.9585,-1.4381,-3.4315,-81.6,-27.0,-8.4,-5.19,2.21,-9.17,2.1544,3.6161,-0.4331,42.5,-16.5,38.0,170.9375,-45.1875,171.375,0
1776973193.278,7.2592,-0.0766,0.3089,0.1282,-0.5622,0.1964,-93.45,-36.9,26.4,8.9328,-4.9775,0.9529,-1.153,-1.4741,-3.44,-81.6,-27.0,-8.4,-5.19,2.21,-9.17,2.1544,3.6161,-0.4331,42.5,-16.5,38.0,154.75,-43.25,170.375,0
1776973193.283,7.2592,-0.0766,0.3089,0.1282,-0.5622,0.1964,-92.7,-37.95,27.6,8.9328,-4.9775,0.9529,-1.153,-1.4741,-3.44,-81.6,-27.0,-8.4,-5.48,2.81,-9.26,2.2646,3.6096,-0.0938,42.5,-16.5,38.0,154.75,-43.25,170.375,0
1776973193.292,7.4388,-0.0742,0.0814,0.0946,-0.6022,0.2843,-92.7,-37.95,27.6,9.572,-5.272,1.4916,-1.3467,-1.5753,-3.3942,-84.6,-22.65,-8.4,-5.98,3.1,-9.8,2.4478,3.5441,0.2182,42.5,-16.5,38.0,155.5625,-41.3125,169.4375,0
1776973193.297,7.6591,-0.2179,-0.0982,-0.004,-0.5169,0.3171,-92.7,-37.95,27.6,9.6869,-5.4372,1.6065,-1.5823,-1.6505,-3.3345,-84.6,-22.65,-8.4,-5.98,3.1,-9.8,2.4478,3.5441,0.2182,42.5,-16.5,38.0,156.5,-39.5,168.5,0
1776973193.304,7.6591,-0.2179,-0.0982,-0.004,-0.5169,0.3171,-95.4,-38.55,28.5,9.7564,-5.6264,1.9944,-1.9116,-1.6401,-3.2964,-83.25,-21.3,-10.5,-6.29,2.29,-10.3,2.6562,3.4318,0.4581,42.5,-16.5,38.0,157.5,-37.75,167.5,0
1776973193.314,7.762,-0.4525,-0.2107,-0.1055,-0.3256,0.299,-94.35,-39.75,28.8,10.0437,-5.5569,2.8635,-2.237,-1.6843,-3.2865,-85.5,-21.3,-11.55,-6.8,0.98,-10.94,2.8045,3.3139,0.5716,42.5,-16.5,38.0,157.5,-37.75,167.5,0
1776973193.318,8.0373,-0.644,-0.3112,-0.1812,-0.1228,0.2526,-94.35,-39.75,28.8,10.0437,-5.5569,2.8635,-2.237,-1.6843,-3.2865,-85.5,-21.3,-11.55,-6.8,0.98,-10.94,2.8045,3.3139,0.5716,42.5,-16.5,38.0,157.5,-37.75,167.5,0
1776973193.324,8.0373,-0.644,-0.3112,-0.1812,-0.1228,0.2526,-95.1,-38.55,28.8,9.9766,-4.8866,3.2346,-2.5527,-1.704,-3.2879,-83.7,-20.1,-13.5,-7.33,-0.27,-11.71,2.822,3.2387,0.5487,31.375,-14.375,43.5,158.5625,-36.0625,166.5,0
1776973193.328,8.2265,-0.6009,-0.1987,-0.3142,0.0232,0.1974,-95.1,-38.55,28.8,9.9766,-4.8866,3.2346,-2.5527,-1.704,-3.2879,-83.7,-20.1,-13.5,-7.33,-0.27,-11.71,2.822,3.2387,0.5487,31.375,-14.375,43.5,158.5625,-36.0625,166.5,0
1776973193.334,8.2265,-0.6009,-0.1987,-0.3142,0.0232,0.1974,-96.9,-38.55,29.1,10.0724,-3.4788,2.9305,-2.7166,-1.6718,-3.3007,-83.7,-20.1,-13.5,-8.34,-1.93,-12.66,2.7173,3.2507,0.4058,31.375,-14.375,43.5,159.4375,-34.375,165.4375,0
1776973193.34,8.5138,-0.1844,-0.3807,-0.4362,0.0877,0.1426,-96.9,-38.55,29.1,10.0724,-3.4788,2.9305,-2.7166,-1.6718,-3.3007,-83.7,-20.1,-13.5,-8.31,-2.14,-12.62,2.5405,3.3478,0.2105,31.375,-14.375,43.5,160.25,-32.625,164.4375,0
1776973193.345,8.7293,0.146,-0.4645,-0.6867,0.1564,0.1018,-97.5,-39.9,30.0,10.2065,-1.6999,2.1069,-2.6095,-1.6169,-3.3004,-87.0,-15.75,-16.05,-8.31,-2.14,-12.62,2.5405,3.3478,0.2105,31.375,-14.375,43.5,160.875,-30.8125,163.4375,0
1776973193.354,8.8801,0.7015,-0.407,-0.991,0.2014,0.0791,-97.5,-39.9,30.0,10.4483,-0.1676,1.2905,-2.2497,-1.6094,-3.278,-87.0,-15.75,-16.05,-8.19,-1.85,-12.43,2.3464,3.4307,0.0458,31.375,-14.375,43.5,161.4375,-28.9375,162.5,0
1776973193.364,8.5401,1.2115,-0.3352,-1.3081,0.2707,0.0616,-98.7,-39.3,31.65,10.3477,0.6512,0.9936,-1.7776,-1.5908,-3.2452,-86.55,-11.25,-16.95,-8.27,-1.17,-12.06,2.2187,3.4448,-0.0873,31.375,-14.375,43.5,161.4375,-28.9375,162.5,0
1776973193.369,8.5401,1.2115,-0.3352,-1.3081,0.2707,0.0616,-98.7,-39.3,31.65,10.3477,0.6512,0.9936,-1.7776,-1.5908,-3.2452,-86.55,-11.25,-16.95,-8.27,-1.17,-12.06,2.2187,3.4448,-0.0873,27.1875,-13.0,51.5,161.875,-27.125,161.5625,0
1776973193.374,8.9495,1.9154,0.34,-1.5681,0.3003,0.1053,-100.05,-37.65,31.05,10.4483,0.4381,0.972,-1.3694,-1.5948,-3.1904,-87.75,-10.35,-19.05,-8.31,-1.26,-11.96,2.1686,3.4034,-0.192,27.1875,-13.0,51.5,161.875,-27.125,161.5625,0
1776973193.379,8.9495,1.9154,0.34,-1.5681,0.3003,0.1053,-100.05,-37.65,31.05,10.4483,0.4381,0.972,-1.3694,-1.5948,-3.1904,-87.75,-10.35,-19.05,-8.31,-1.26,-11.96,2.1686,3.4034,-0.192,27.1875,-13.0,51.5,162.3125,-25.3125,160.625,0
1776973193.384,9.2823,2.7461,0.589,-1.8871,0.2694,0.0538,-100.8,-37.65,31.05,10.92,-0.237,0.9242,-1.1032,-1.6006,-3.1189,-87.3,-6.6,-19.5,-8.3,-1.31,-11.88,2.1097,3.351,-0.2574,27.1875,-13.0,51.5,162.3125,-25.3125,160.625,0
1776973193.393,8.7364,3.0957,0.4573,-2.3582,0.2332,0.0253,-98.85,-34.95,32.1,11.4108,-0.9864,0.8499,-1.0541,-1.5876,-3.0185,-86.25,-4.8,-21.9,-8.2,-1.13,-11.8,2.0115,3.2801,-0.2618,27.1875,-13.0,51.5,162.75,-23.5625,159.75,0
1776973193.403,9.0453,3.7637,0.6464,-2.6412,0.0711,0.0381,-98.85,-34.95,32.1,11.6095,-1.5036,0.7925,-1.1056,-1.6118,-2.8978,-88.35,-5.4,-21.75,-7.9,-0.36,-11.66,1.9439,3.1961,-0.2291,27.1875,-13.0,51.5,163.125,-21.875,158.875,0
1776973193.409,9.0453,3.7637,0.6464,-2.6412,0.0711,0.0381,-98.85,-34.95,32.1,11.3772,-1.4389,1.142,-1.2657,-1.6561,-2.7755,-88.35,-5.4,-21.75,-7.9,-0.36,-11.66,1.9373,3.0925,-0.1756,27.1875,-13.0,51.5,163.5625,-20.25,158.0,0
1776973193.415,5.2098,4.2569,1.0894,-2.9196,0.5502,0.0261,-98.85,-34.95,32.1,11.3772,-1.4389,1.142,-1.2657,-1.6561,-2.7755,-88.2,-2.85,-23.1,-7.81,-0.18,-11.56,1.9373,3.0925,-0.1756,27.1875,-13.0,51.5,163.5625,-20.25,158.0,0
1776973193.42,5.2098,4.2569,1.0894,-2.9196,0.5502,0.0261,-99.3,-31.2,28.2,10.8577,-1.2163,0.8212,-1.5636,-1.6638,-2.6457,-88.2,-2.85,-23.1,-7.81,-0.18,-11.56,1.97,2.9638,-0.108,19.1875,-4.75,62.875,164.0,-18.6875,157.125,0
1776973193.425,10.3813,5.5952,0.3184,-2.8128,-0.4282,0.0224,-99.3,-31.2,28.2,10.8577,-1.2163,0.8212,-1.5636,-1.6638,-2.6457,-88.2,-2.85,-23.1,-7.72,0.04,-11.38,1.97,2.9638,-0.108,19.1875,-4.75,62.875,164.0,-18.6875,157.125,0
1776973193.429,10.3813,5.5952,0.3184,-2.8128,-0.4282,0.0224,-99.15,-27.75,27.75,10.2424,-0.8763,0.4286,-1.9111,-1.6145,-2.5165,-88.2,-2.85,-23.1,-7.72,0.04,-11.38,2.0322,2.8405,-0.0164,19.1875,-4.75,62.875,164.5,-17.25,156.1875,0
1776973193.435,8.5066,6.0118,-0.0287,-2.8703,-0.3224,0.032,-99.15,-27.75,27.75,10.2424,-0.8763,0.4286,-1.9111,-1.6145,-2.5165,-88.65,-0.15,-24.9,-8.24,0.57,-10.9,2.0322,2.8405,-0.0164,19.1875,-4.75,62.875,164.5,-17.25,156.1875,0
1776973193.443,9.2033,6.8953,-0.2945,-2.6348,-0.1482,0.0541,-98.4,-26.55,25.2,9.821,-0.6752,0.3376,-2.1059,-1.5148,-2.3904,-88.65,-0.15,-24.9,-8.43,0.72,-10.68,2.0998,2.7369,0.1036,19.1875,-4.75,62.875,165.0625,-15.875,155.25,0
1776973193.45,9.2033,6.8953,-0.2945,-2.6348,-0.1482,0.0541,-98.85,-25.65,24.75,9.5577,-0.6105,0.5938,-2.2394,-1.4186,-2.2553,-87.75,4.05,-27.15,-8.43,0.72,-10.68,2.15,2.6649,0.2574,19.1875,-4.75,62.875,165.6875,-14.625,154.25,0
1776973193.455,8.6862,7.252,-0.8715,-2.5452,-0.0514,0.1042,-98.85,-25.65,24.75,9.5577,-0.6105,0.5938,-2.2394,-1.4186,-2.2553,-88.05,3.45,-27.75,-8.88,0.99,-10.55,2.15,2.6649,0.2574,19.1875,-4.75,62.875,166.4375,-13.375,153.25,0
1776973193.464,9.1482,7.3957,-1.2378,-2.2359,-0.0613,0.1537,-98.85,-25.65,24.75,9.1818,-0.0862,0.644,-2.3822,-1.3185,-2.1029,-88.05,6.15,-28.05,-8.8,1.22,-9.57,2.1828,2.6693,0.432,19.1875,-4.75,62.875,166.4375,-13.375,153.25,0
1776973193.469,9.1482,7.3957,-1.2378,-2.2359,-0.0613,0.1537,-100.05,-22.65,23.55,8.8897,0.5938,0.3089,-2.6385,-1.2071,-1.9526,-88.05,6.15,-28.05,-8.8,1.22,-9.57,2.1828,2.6693,0.432,19.1875,-4.75,62.875,166.4375,-13.375,153.25,0
1776973193.474,8.849,7.2592,-1.3695,-1.9849,-0.0983,0.1927,-100.05,-22.65,23.55,8.8897,0.5938,0.3089,-2.6385,-1.2071,-1.9526,-86.55,6.6,-28.8,-8.51,1.41,-8.88,2.1653,2.6834,0.6381,6.0625,4.6875,64.0,167.3125,-12.25,152.25,0
1776973193.479,8.849,7.2592,-1.3695,-1.7096,-0.0837,0.2014,-97.8,-22.95,22.95,8.6933,1.0175,-0.0599,-2.788,-1.1202,-1.8026,-86.55,6.6,-28.8,-8.51,1.41,-8.88,2.1653,2.6834,0.6381,6.0625,4.6875,64.0,167.3125,-12.25,152.25,0
1776973193.484,8.1307,6.9839,-1.561,-1.7096,-0.0837,0.2014,-97.8,-22.95,22.95,8.6933,1.0175,-0.0599,-2.788,-1.1202,-1.8026,-87.6,9.3,-28.5,-8.69,1.56,-8.49,2.0988,2.6409,0.8901,6.0625,4.6875,64.0,168.25,-11.1875,151.3125,0
1776973193.493,7.908,6.8977,-1.7549,-1.5279,0.0586,0.2057,-98.7,-22.05,23.4,8.4396,1.494,-0.0622,-2.7963,-0.9899,-1.6076,-87.6,9.3,-28.5,-8.9,1.78,-8.14,1.9995,2.5864,1.1825,6.0625,4.6875,64.0,169.4375,-10.25,150.5,0
1776973193.499,8.3342,6.9384,-1.9632,-1.2534,0.2673,0.1796,-101.4,-22.65,24.75,8.1858,1.9082,-0.1891,-2.8482,-0.8543,-1.3859,-87.6,9.3,-28.5,-8.9,1.78,-8.14,1.8882,2.5405,1.4846,6.0625,4.6875,64.0,170.6875,-9.4375,149.6875,0
1776973193.505,8.3342,6.9384,-1.9632,-1.2534,0.2673,0.1796,-101.4,-22.65,24.75,8.0158,2.2098,-0.6847,-2.8482,-0.8543,-1.3859,-85.35,13.65,-30.3,-8.7,2.45,-7.09,1.8882,2.5405,1.4846,6.0625,4.6875,64.0,172.125,-8.75,148.9375,0
1776973193.514,8.5401,6.9145,-2.2266,-1.0475,0.3464,0.1498,-102.0,-22.8,24.45,8.0158,2.2098,-0.6847,-2.8775,-0.736,-1.1418,-85.35,13.65,-30.3,-8.44,2.74,-6.39,1.7879,2.4598,1.7879,6.0625,4.6875,64.0,172.125,-8.75,148.9375,0
1776973193.519,8.9591,6.8426,-2.4972,-0.7517,0.3134,0.1447,-102.0,-22.8,24.45,7.7381,2.5379,-1.2905,-2.8168,-0.6107,-0.8873,-85.35,13.65,-30.3,-8.44,2.74,-6.39,1.7879,2.4598,1.7879,-3.5,12.0,62.6875,173.75,-8.25,148.25,0
1776973193.524,8.9591,6.8426,-2.4972,-0.7517,0.3134,0.1447,-102.0,-22.8,24.45,7.5226,2.5067,-1.8651,-2.8168,-0.6107,-0.8873,-86.25,13.8,-30.15,-8.27,2.75,-5.6,1.693,2.3202,2.0649,-3.5,12.0,62.6875,173.75,-8.25,148.25,0
1776973193.529,9.007,6.5194,-2.6169,-0.5321,0.3227,0.1396,-103.5,-23.55,27.0,7.5226,2.5067,-1.8651,-2.7486,-0.4423,-0.615,-86.25,13.8,-30.15,-8.27,2.75,-5.6,1.693,2.3202,2.0649,-3.5,12.0,62.6875,175.4375,-7.9375,147.625,0
1776973193.534,9.007,6.5194,-2.6169,-0.5321,0.3227,0.1396,-103.5,-23.55,27.0,7.3622,2.4541,-1.8052,-2.7486,-0.4423,-0.615,-86.25,13.8,-30.15,-8.56,2.05,-4.45,1.5806,2.102,2.3038,-3.5,12.0,62.6875,175.4375,-7.9375,147.625,0
1776973193.539,9.086,5.9161,-2.5618,-0.3571,0.2878,0.1327,-103.8,-24.3,25.95,7.3622,2.4541,-1.8052,-2.635,-0.267,-0.3405,-84.6,15.15,-29.55,-8.56,2.05,-4.45,1.4355,1.825,2.4685,-3.5,12.0,62.6875,177.125,-7.8125,147.0625,0
1776973193.545,9.086,5.9161,-2.5618,-0.3571,0.2878,0.1327,-103.8,-24.3,25.95,7.4196,2.4205,-1.7957,-2.5724,-0.1071,-0.0544,-83.7,16.2,-28.95,-8.79,1.76,-4.08,1.4355,1.825,2.4685,-3.5,12.0,62.6875,178.875,-7.875,146.5625,0
1776973193.554,9.2464,5.4564,-2.5331,-0.1687,0.2814,0.1436,-103.5,-25.8,26.7,7.7309,2.3918,-1.8148,-2.469,0.0621,0.2182,-83.7,16.2,-28.95,-8.75,1.5,-3.74,1.2795,1.5152,2.5416,-3.5,12.0,62.6875,178.875,-7.875,146.5625,0
1776973193.564,9.5792,5.0278,-2.4876,0.0,0.2236,0.1567,-104.25,-26.25,25.95,8.0206,2.3104,-1.5682,-2.2455,0.1839,0.4655,-85.35,16.8,-29.55,-8.4,0.54,-3.89,1.1116,1.1901,2.5482,-3.5,12.0,62.6875,180.5,-8.125,146.1875,0
1776973193.569,9.8474,4.4484,-2.229,0.0794,0.1178,0.1687,-104.25,-26.25,25.95,8.0206,2.3104,-1.5682,-2.2455,0.1839,0.4655,-85.35,16.8,-29.55,-8.4,0.54,-3.89,1.1116,1.1901,2.5482,-3.5,12.0,62.6875,182.0625,-8.5,145.875,0
1776973193.574,9.8474,4.4484,-2.229,0.0794,0.1178,0.1687,-104.25,-26.25,25.95,8.4443,2.0446,-1.2115,-1.9795,0.287,0.6856,-85.35,16.8,-29.55,-8.12,-0.01,-4.24,0.8988,0.865,2.5285,-10.0,17.0625,60.0625,182.0625,-8.5,145.875,0
1776973193.579,9.7707,3.7613,-2.0279,0.0778,-0.0458,0.1847,-105.15,-27.15,27.15,8.4443,2.0446,-1.2115,-1.9795,0.287,0.6856,-85.35,18.0,-28.8,-8.12,-0.01,-4.24,0.8988,0.865,2.5285,-10.0,17.0625,60.0625,182.0625,-8.5,145.875,0
1776973193.584,9.7707,3.7613,-2.0279,0.0778,-0.0458,0.1847,-105.15,-27.15,27.15,8.8059,1.7142,-0.9697,-1.6659,0.372,0.8708,-85.35,18.0,-28.8,-7.73,-0.52,-4.73,0.6261,0.5476,2.4871,-10.0,17.0625,60.0625,183.5625,-9.0625,145.75,0
1776973193.591,9.821,3.3902,-1.5634,0.1244,-0.1511,0.2398,-105.75,-27.15,27.6,8.8059,1.7142,-0.9697,-1.6659,0.372,0.8708,-85.35,18.0,-28.8,-7.51,-0.85,-5.38,0.348,0.2563,2.4151,-10.0,17.0625,60.0625,185.0,-9.6875,145.75,0
1776973193.595,9.5768,3.0311,-1.5921,-0.0682,-0.1537,0.2966,-105.75,-27.15,27.6,8.9615,1.4078,-0.6225,-1.3643,0.445,1.0355,-85.5,18.15,-27.9,-7.51,-0.85,-5.38,0.348,0.2563,2.4151,-10.0,17.0625,60.0625,186.25,-10.375,145.875,0
1776973193.604,9.5768,3.0311,-1.5921,-0.0682,-0.1537,0.2966,-106.05,-28.05,25.95,9.5026,1.1492,-0.0742,-1.1458,0.5167,1.1876,-85.5,18.15,-27.9,-7.05,-1.43,-6.2,0.1178,0.0175,2.3038,-10.0,17.0625,60.0625,187.4375,-11.125,146.0625,0
1776973193.614,9.7588,2.3104,-1.2761,-0.2129,-0.0839,0.3728,-104.25,-27.0,25.2,12.0572,3.5817,0.5028,-0.8495,0.5622,1.0869,-86.1,17.55,-27.75,3.19,-6.29,-10.92,-0.0927,-0.156,2.1238,-10.0,17.0625,60.0625,187.4375,-11.125,146.0625,0
1776973193.619,10.5512,1.7765,-0.656,-0.2819,0.0797,0.5686,-103.05,-26.25,24.45,12.0572,3.5817,0.5028,-0.8495,0.5622,1.0869,-87.75,17.4,-27.45,3.19,-6.29,-10.92,-0.0927,-0.156,2.1238,-10.0,17.0625,60.0625,187.4375,-11.125,146.0625,0
1776973193.624,10.5512,1.7765,-0.656,-0.2803,0.0597,0.753,-103.05,-26.25,24.45,13.7547,6.4284,-3.2944,-1.1985,0.1415,0.704,-87.75,17.4,-27.45,3.95,-14.88,-13.96,-1.4748,-0.5094,1.7671,-11.375,20.5,58.375,188.25,-11.875,147.0,0
1776973193.629,10.7356,1.2019,0.0192,-0.2803,0.0597,0.753,-103.05,-26.25,24.45,13.7547,6.4284,-3.2944,-1.1985,0.1415,0.704,-86.55,16.8,-26.55,3.95,-14.88,-13.96,-1.4748,-0.5094,1.7671,-11.375,20.5,58.375,188.25,-11.875,147.0,0
1776973193.634,10.1203,0.9098,0.0622,-0.3714,-0.0727,0.8564,-103.05,-26.25,24.45,12.2823,7.9607,-3.7924,-1.0669,-0.1708,0.1652,-86.55,16.8,-26.55,8.51,-14.51,-15.38,-2.0486,-0.7429,1.8457,-11.375,20.5,58.375,189.0,-12.8125,148.3125,0
1776973193.639,10.1203,0.9098,0.0622,-0.3714,-0.0727,0.8564,-102.15,-27.15,21.15,12.2823,7.9607,-3.7924,-1.0669,-0.1708,0.1652,-85.95,15.45,-27.45,8.51,-14.51,-15.38,-1.8151,-0.3283,1.4606,-11.375,20.5,58.375,189.625,-13.375,149.4375,0
1776973193.645,8.6742,0.8787,-0.2729,-0.4882,-0.2153,0.837,-102.15,-27.15,21.15,10.6638,7.0366,-3.6871,-0.4098,-0.4117,-0.2118,-85.95,15.45,-27.45,1.42,-16.15,-9.39,-1.8151,-0.3283,1.4606,-11.375,20.5,58.375,190.4375,-13.9375,150.5625,0
1776973193.654,8.1618,0.8404,-0.5435,-0.8122,-0.1487,0.8188,-101.85,-23.7,20.1,7.3765,3.1388,-0.7015,0.8887,-0.2958,-0.1196,-86.1,16.35,-27.0,0.94,-4.39,-4.62,-1.6112,-0.2073,1.7486,-11.375,20.5,58.375,190.4375,-13.9375,150.5625,0
1776973193.664,8.8442,1.233,-0.146,-1.0736,0.1476,0.9025,-100.35,-23.7,19.65,7.9176,1.0104,1.1803,1.5737,-0.0085,0.2161,-86.1,16.35,-27.0,-3.82,0.95,-6.74,-1.6319,-0.6338,1.8959,-11.375,20.5,58.375,191.3125,-14.75,151.625,0
1776973193.669,8.8442,1.233,-0.146,-1.0736,0.1476,0.9025,-99.3,-21.9,16.5,9.4882,1.8771,1.257,1.0579,0.1255,0.469,-85.2,16.5,-27.15,-3.82,0.95,-6.74,-1.6319,-0.6338,1.8959,-11.375,20.5,58.375,191.9375,-15.6875,152.6875,0
1776973193.674,10.0197,2.4612,-0.3687,-1.0272,0.3637,1.0264,-99.3,-21.9,16.5,9.4882,1.8771,1.257,1.0579,0.1255,0.469,-85.2,16.5,-27.15,-6.05,-3.69,-8.96,-1.6232,-0.9861,1.6472,-7.5,19.25,59.875,191.9375,-15.6875,152.6875,0
1776973193.679,10.0197,2.4612,-0.3687,-1.0272,0.3637,1.0264,-99.3,-21.9,16.5,9.8785,4.1635,1.7166,0.1945,0.1593,0.4943,-85.2,16.5,-27.15,-6.05,-3.69,-8.96,-1.6232,-0.9861,1.6472,-7.5,19.25,59.875,192.4375,-16.5,153.6875,0
1776973193.684,10.7452,4.3886,-1.1756,-0.4474,0.2806,0.9992,-99.3,-21.9,16.5,9.8785,4.1635,1.7166,0.1945,0.1593,0.4943,-85.2,16.5,-27.15,-6.21,-8.36,-9.55,-1.5893,-0.9861,1.3101,-7.5,19.25,59.875,192.4375,-16.5,153.6875,0
1776973193.692,11.3389,5.679,-2.083,0.453,0.129,0.845,-96.6,-22.05,13.05,10.0245,5.8634,1.8004,-0.1183,0.2673,0.4911,-86.1,16.35,-28.5,-7.97,-11.31,-10.05,-1.7977,-0.6796,1.2261,-7.5,19.25,59.875,192.875,-17.125,154.8125,0
1776973193.697,11.3389,5.679,-2.083,0.453,0.129,0.845,-96.6,-21.75,13.8,11.8561,7.9057,2.1189,-0.1183,0.2673,0.4911,-87.0,15.0,-27.9,-7.97,-11.31,-10.05,-1.7977,-0.6796,1.2261,-7.5,19.25,59.875,193.25,-17.4375,156.1875,0
1776973193.705,13.6781,5.9831,-2.0423,1.2001,0.2353,0.7719,-96.0,-23.7,11.1,11.8561,7.9057,2.1189,0.3256,0.3744,0.4762,-87.0,15.0,-27.9,-6.26,-7.05,-8.32,-2.1588,-0.1582,1.0548,-7.5,19.25,59.875,193.5,-17.25,157.5625,0
1776973193.715,15.4091,4.9775,-0.4549,1.3885,0.2782,0.8767,-96.15,-22.5,12.45,15.2702,5.6934,-4.8387,0.911,0.126,0.5049,-85.8,13.65,-27.75,-0.08,6.88,-10.81,-2.1958,0.6458,0.6512,-7.5,19.25,59.875,193.5,-17.25,157.5625,0
1776973193.719,15.4091,4.9775,-0.4549,1.3885,0.2782,0.8767,-96.15,-22.5,12.45,12.8736,0.826,-5.3103,1.9811,-0.1327,0.4959,-86.25,12.6,-25.65,-0.08,6.88,-10.81,-2.1958,0.6458,0.6512,-7.5,19.25,59.875,193.5,-17.25,157.5625,0
1776973193.725,13.6493,3.1675,1.5514,1.0507,0.0983,0.874,-97.65,-23.55,13.8,12.8736,0.826,-5.3103,1.9811,-0.1327,0.4959,-86.25,12.6,-25.65,-2.47,2.26,-11.25,-1.4148,-0.0295,0.504,-4.25,15.375,61.25,193.625,-17.375,158.375,0
1776973193.73,13.6493,3.1675,1.5514,1.0507,0.0983,0.874,-97.65,-23.55,13.8,10.1586,-2.2194,-1.257,2.4898,0.1897,0.5934,-85.8,13.95,-27.0,-2.47,2.26,-11.25,-1.4148,-0.0295,0.504,-4.25,15.375,61.25,193.625,-17.375,158.375,0
1776973193.735,11.8824,1.4293,1.6712,0.6718,0.1529,0.756,-97.65,-23.55,13.8,10.1586,-2.2194,-1.257,2.4898,0.1897,0.5934,-85.8,13.95,-27.0,-5.54,-0.93,-10.84,-0.8661,-0.7112,0.5585,-4.25,15.375,61.25,193.8125,-17.875,158.9375,0
1776973193.74,11.8824,1.4293,1.6712,0.6718,0.1529,0.756,-97.65,-23.55,13.8,10.0892,-2.8252,0.7781,1.8647,0.3488,0.6598,-86.25,13.05,-27.15,-5.54,-0.93,-10.84,-0.6109,-0.5869,0.4309,-4.25,15.375,61.25,193.9375,-18.25,159.3125,0
1776973193.745,10.2472,0.4262,0.7183,0.4815,0.1652,0.6368,-99.15,-20.55,15.3,9.4523,-2.0351,-0.0718,1.8647,0.3488,0.6598,-86.25,13.05,-27.15,-3.95,-1.13,-10.37,-0.6109,-0.5869,0.4309,-4.25,15.375,61.25,194.0,-18.5625,159.5625,0
1776973193.755,8.837,0.3232,0.2562,0.5486,0.1657,0.5681,-98.85,-23.4,15.45,9.0836,0.5746,0.2011,0.7821,0.3232,0.7021,-86.25,13.05,-27.15,-3.73,-0.93,-10.25,-0.42,-0.5083,0.3218,-4.25,15.375,61.25,194.0625,-18.9375,159.6875,0
1776973193.765,8.4156,0.4094,0.6273,0.5654,0.141,0.4964,-100.2,-22.05,17.1,9.0932,3.2753,0.6225,0.3453,0.3144,0.6651,-87.6,11.25,-28.8,-4.01,-3.47,-8.89,-0.2193,-0.5541,0.252,-4.25,15.375,61.25,194.0625,-18.9375,159.6875,0
1776973193.77,8.2121,0.431,0.9002,0.4335,0.0925,0.4325,-100.2,-22.05,17.1,9.0932,3.2753,0.6225,0.3762,0.316,0.6097,-87.0,11.4,-28.2,-4.01,-3.47,-8.89,-0.2193,-0.5541,0.252,-3.5,10.1875,61.0,194.125,-19.1875,159.8125,0
1776973193.775,8.2121,0.431,0.9002,0.4335,0.0925,0.4325,-100.95,-23.55,18.15,9.3877,4.7716,1.4581,0.6145,0.2302,0.5809,-87.0,11.4,-28.2,-3.44,-3.69,-8.42,-0.2029,-0.4549,0.1931,-3.5,10.1875,61.0,194.125,-19.1875,159.8125,0
1776973193.78,8.1882,0.2011,0.6967,0.2009,0.1484,0.4032,-100.95,-23.55,18.15,9.3877,4.7716,1.4581,0.6145,0.2302,0.5809,-87.3,9.3,-27.75,-3.44,-3.69,-8.42,-0.2029,-0.4549,0.1931,-3.5,10.1875,61.0,194.1875,-19.4375,160.0,0
1776973193.785,8.1882,0.2011,0.6967,0.2009,0.1484,0.4032,-100.95,-23.55,18.15,8.9471,4.8123,1.5419,0.9153,0.2321,0.5724,-87.3,9.3,-27.75,-3.31,-3.56,-8.35,-0.3054,-0.3785,0.1822,-3.5,10.1875,61.0,194.1875,-19.4375,160.0,0
1776973193.793,8.4515,-0.4573,0.3543,-0.0282,0.1982,0.4066,-100.95,-23.55,18.15,8.9471,4.8123,1.5419,0.9153,0.2321,0.5724,-85.8,9.75,-27.0,-3.69,-3.32,-8.55,-0.336,-0.444,0.1844,-3.5,10.1875,61.0,194.1875,-19.6875,160.1875,0
1776973193.798,8.4515,-0.4573,0.3543,-0.0282,0.1982,0.4066,-100.95,-23.55,18.15,9.0381,3.4189,1.8124,1.048,0.2851,0.567,-86.85,10.05,-28.05,-3.69,-3.32,-8.55,-0.336,-0.444,0.1844,-3.5,10.1875,61.0,194.1875,-20.0,160.3125,0
1776973193.805,8.5545,-1.3431,0.1508,-0.3152,0.2435,0.4445,-101.25,-28.05,15.3,9.3901,1.3001,1.4078,0.7922,0.2902,0.5537,-86.85,10.05,-28.05,-3.92,-3.34,-8.67,-0.2847,-0.5072,0.1691,-3.5,10.1875,61.0,194.1875,-20.25,160.4375,0
1776973193.815,8.5353,-2.1165,0.0024,-0.4898,0.1628,0.5116,-98.7,-28.5,15.3,9.9168,-0.261,1.6424,0.3219,0.2851,0.5335,-87.45,9.15,-26.1,-3.85,-3.14,-8.65,-0.2345,-0.5138,0.1462,-3.5,10.1875,61.0,194.1875,-20.25,160.4375,0
1776973193.82,8.8011,-2.4421,0.3184,-0.6869,0.1055,0.5806,-98.7,-28.5,15.3,9.9168,-0.261,1.6424,0.3219,0.2851,0.5335,-87.45,9.15,-26.1,-3.85,-3.14,-8.65,-0.2345,-0.5138,0.1462,-3.5,10.1875,61.0,194.1875,-20.5625,160.5625,0
1776973193.825,8.8011,-2.4421,0.3184,-0.6869,0.1055,0.5806,-96.45,-28.65,12.9,9.8162,-0.7518,0.34,-0.1966,0.1791,0.5231,-87.45,9.15,-26.1,-3.21,-3.24,-8.25,-0.2465,-0.492,0.1353,-1.75,9.6875,62.25,194.1875,-20.5625,160.5625,0
1776973193.83,8.9711,-2.2769,0.8763,-0.8804,0.025,0.6283,-96.45,-28.65,12.9,9.8162,-0.7518,0.34,-0.1966,0.1791,0.5231,-87.0,8.4,-27.45,-3.21,-3.24,-8.25,-0.2465,-0.492,0.1353,-1.75,9.6875,62.25,194.1875,-20.875,160.75,0
1776973193.835,8.9711,-2.2769,0.8763,-0.8804,0.025,0.6283,-95.85,-29.25,10.2,8.8538,-0.4932,-0.4405,-0.6619,0.134,0.5201,-87.0,8.4,-27.45,-3.7,-2.97,-8.55,-0.3152,-0.5105,0.1276,-1.75,9.6875,62.25,194.1875,-20.875,160.75,0
1776973193.841,9.3039,-1.9776,1.1277,-0.9976,0.0965,0.6347,-95.85,-29.25,10.2,9.0094,-0.0024,-0.747,-0.6619,0.134,0.5201,-87.0,8.4,-27.45,-3.93,-2.95,-8.58,-0.3436,-0.5465,0.1331,-1.75,9.6875,62.25,194.1875,-21.125,160.9375,0
1776973193.846,9.3039,-1.9776,1.1277,-0.9976,0.0965,0.6347,-95.85,-29.25,10.2,9.0094,-0.0024,-0.747,-0.9891,0.1982,0.5281,-87.0,8.4,-27.45,-3.93,-2.95,-8.58,-0.3436,-0.5465,0.1331,-1.75,9.6875,62.25,194.1875,-21.4375,161.0625,0
1776973193.855,9.9575,-1.3264,0.7326,-1.0408,0.2449,0.6009,-91.05,-28.05,7.8,9.4068,0.8188,-0.8332,-1.1303,0.202,0.5031,-88.8,7.8,-26.25,-3.9,-2.8,-8.43,-0.3022,-0.5203,0.1047,-1.75,9.6875,62.25,194.1875,-21.75,161.25,0
1776973193.865,10.4986,-0.6177,0.0622,-0.9177,0.3131,0.4807,-90.75,-27.3,6.75,9.4068,1.98,-0.9505,-1.0467,0.2294,0.4783,-87.6,8.55,-27.0,-3.78,-2.3,-8.79,-0.2847,-0.516,0.1058,-1.75,9.6875,62.25,194.1875,-21.75,161.25,0
1776973193.87,10.6638,0.3136,-0.8404,-0.7064,0.2617,0.3437,-90.75,-27.3,6.75,9.2632,2.6959,-1.0487,-1.0467,0.2294,0.4783,-88.05,9.75,-27.75,-3.78,-2.3,-8.79,-0.2847,-0.516,0.1058,-1.75,9.6875,62.25,194.125,-22.0625,161.3125,0
1776973193.875,10.6638,0.3136,-0.8404,-0.7064,0.2617,0.3437,-90.0,-26.55,4.5,9.2632,2.6959,-1.0487,-0.7695,0.2563,0.4684,-88.05,9.75,-27.75,-3.94,-2.29,-8.82,-0.1996,-0.5607,0.06,-1.1875,8.75,61.875,194.125,-22.0625,161.3125,0
1776973193.88,9.9096,0.8092,-1.0894,-0.8055,0.1487,0.2252,-90.0,-26.55,4.5,9.3494,3.3279,-0.6129,-0.7695,0.2563,0.4684,-89.1,9.75,-25.8,-3.94,-2.29,-8.82,-0.1996,-0.5607,0.06,-1.1875,8.75,61.875,194.0625,-22.375,161.375,0
1776973193.885,9.9096,0.8092,-1.0894,-0.8055,0.1487,0.2252,-89.1,-25.95,5.1,9.3494,3.3279,-0.6129,-0.3507,0.352,0.4575,-89.1,9.75,-25.8,-4.03,-2.53,-8.56,-0.1374,-0.6185,0.0251,-1.1875,8.75,61.875,194.0,-22.6875,161.375,0
1776973193.895,9.7995,1.0415,-1.0582,-0.5391,0.1532,0.1719,-87.9,-26.25,3.15,9.4763,3.201,0.2346,0.0,0.3533,0.4389,-89.1,9.75,-25.8,-3.76,-2.72,-8.46,-0.1451,-0.636,-0.0055,-1.1875,8.75,61.875,194.0,-22.6875,161.375,0
1776973193.905,10.082,1.2426,-0.9888,-1.0512,0.1793,0.1943,-87.9,-26.25,3.15,9.414,2.6312,1.1516,0.3123,0.3413,0.4301,-88.95,8.7,-26.1,-4.15,-2.71,-8.55,-0.1898,-0.6338,-0.0055,-1.1875,8.75,61.875,193.9375,-23.0625,161.4375,0
1776973193.915,9.8234,1.0319,-0.1389,-1.0954,0.1919,0.2507,-87.6,-27.45,4.05,9.7276,1.6257,1.4653,0.5561,0.3355,0.4088,-88.95,8.7,-26.1,-4.59,-2.6,-8.76,-0.2105,-0.5901,0.0055,-1.1875,8.75,61.875,193.8125,-23.375,161.5,0
1776973193.92,9.8234,1.0319,-0.1389,-1.0954,0.1919,0.2507,-87.6,-27.45,4.05,10.0676,0.565,1.6951,0.6051,0.3272,0.3968,-88.35,7.35,-27.75,-4.59,-2.6,-8.76,-0.2105,-0.5901,0.0055,-1.1875,8.75,61.875,193.8125,-23.375,161.5,0
1776973193.925,9.8881,0.5698,0.8954,-1.0344,0.0951,0.3062,-87.45,-27.0,4.95,10.0676,0.565,1.6951,0.6051,0.3272,0.3968,-88.35,7.35,-27.75,-5.02,-2.87,-8.67,-0.1745,-0.516,0.0033,1.375,8.0,61.5625,193.75,-23.625,161.5625,0
1776973193.929,9.8881,0.5698,0.8954,-1.0344,0.0951,0.3062,-87.45,-27.0,4.95,10.1227,-0.103,2.0063,0.4951,0.3102,0.4053,-86.85,7.35,-27.3,-5.02,-2.87,-8.67,-0.1745,-0.516,0.0033,1.375,8.0,61.5625,193.75,-23.625,161.5625,0
1776973193.935,9.7971,0.261,1.7382,-0.8026,0.0216,0.3352,-88.2,-28.5,3.9,10.1227,-0.103,2.0063,0.4951,0.3102,0.4053,-86.85,7.35,-27.3,-4.92,-2.66,-8.55,-0.1167,-0.3796,0.0229,1.375,8.0,61.5625,193.75,-23.8125,161.625,0
1776973193.939,9.7971,0.261,1.7382,-0.8026,0.0216,0.3352,-88.2,-28.5,3.9,10.1251,-0.2514,1.8531,0.2523,0.2547,0.3941,-88.95,6.75,-27.9,-4.92,-2.66,-8.55,-0.0753,-0.2313,0.0273,1.375,8.0,61.5625,193.75,-23.9375,161.625,0
1776973193.946,9.3302,-0.1125,2.5833,-0.7107,0.1255,0.3467,-90.0,-30.3,5.7,10.1251,-0.2514,1.8531,0.2523,0.2547,0.3941,-88.95,6.75,-27.9,-4.21,-2.69,-8.6,-0.0753,-0.2313,0.0273,1.375,8.0,61.5625,193.75,-24.0625,161.6875,0
1776973193.955,9.3158,-0.2035,3.5985,-0.3677,0.2116,0.3192,-90.0,-30.3,5.7,9.8354,0.2753,1.6352,0.0056,0.211,0.3643,-88.8,6.15,-27.3,-4.36,-2.68,-8.53,-0.0469,-0.2051,0.0295,1.375,8.0,61.5625,193.75,-24.0625,161.6875,0
1776973193.965,9.7324,0.4597,4.3551,-0.1692,0.3475,0.2976,-91.65,-30.9,8.25,9.663,0.9122,1.2498,-0.1759,0.1924,0.3496,-88.8,6.15,-27.0,-4.51,-2.73,-8.54,-0.0295,-0.2193,0.0284,1.375,8.0,61.5625,193.6875,-24.1875,161.6875,0
1776973193.97,9.7324,0.4597,4.3551,-0.1692,0.3475,0.2976,-91.65,-30.9,8.25,9.8234,1.5993,1.2617,-0.2867,0.2009,0.3483,-88.65,7.2,-27.15,-4.51,-2.73,-8.54,-0.0295,-0.2193,0.0284,1.375,8.0,61.5625,193.6875,-24.3125,161.6875,0
1776973193.975,9.6965,1.0989,4.4149,-0.1167,0.3802,0.2686,-92.55,-30.75,6.0,9.8234,1.5993,1.2617,-0.2867,0.2009,0.3483,-88.65,7.2,-27.15,-4.41,-2.64,-8.53,-0.0382,-0.1811,0.024,2.875,7.25,61.5625,193.6875,-24.3125,161.6875,0
1776973193.98,9.6965,1.0989,4.4149,-0.1167,0.3802,0.2686,-90.75,-29.55,8.55,9.8641,1.9609,1.0989,-0.3259,0.1593,0.3557,-88.65,7.2,-27.15,-4.41,-2.64,-8.53,-0.0382,-0.1811,0.024,2.875,7.25,61.5625,193.6875,-24.375,161.6875,0
1776973193.985,9.73,1.4533,3.8044,-0.1532,0.3328,0.2268,-90.75,-29.55,8.55,9.6438,2.2122,1.0989,-0.3259,0.1593,0.3557,-88.65,7.2,-27.15,-4.35,-2.66,-8.48,-0.0284,-0.1374,0.0207,2.875,7.25,61.5625,193.6875,-24.375,161.6875,0
1776973193.992,9.6845,1.6113,3.1053,-0.1724,0.275,0.1735,-91.05,-27.3,8.55,9.6438,2.2122,1.0989,-0.2601,0.1681,0.3704,-89.4,5.25,-25.35,-4.4,-2.67,-8.49,-0.0175,-0.1145,0.0218,2.875,7.25,61.5625,193.6875,-24.4375,161.6875,0
1776973193.997,9.6845,1.6113,3.1053,-0.1724,0.275,0.1735,-91.05,-27.3,8.55,9.6534,2.0399,1.0534,-0.2137,0.1537,0.3824,-89.4,5.25,-25.35,-4.4,-2.67,-8.49,-0.0175,-0.1145,0.0218,2.875,7.25,61.5625,193.6875,-24.5,161.6875,0
1776973194.005,9.6127,1.6592,2.2122,-0.2427,0.2297,0.1748,-93.0,-27.75,8.85,9.6941,1.8028,0.972,-0.1719,0.1415,0.385,-89.4,5.25,-25.35,-4.33,-2.67,-8.43,-0.0218,-0.0894,0.0273,2.875,7.25,61.5625,193.6875,-24.5,161.6875,0
1776973194.012,9.6678,1.4581,1.3288,-0.3301,0.2779,0.1828,-93.0,-27.75,8.85,9.6941,1.8028,0.972,-0.1719,0.1415,0.385,-87.75,6.0,-27.15,-4.34,-2.76,-8.38,-0.0404,-0.0687,0.024,2.875,7.25,61.5625,193.75,-24.5625,161.75,0
1776973194.017,9.6678,1.4581,1.3288,-0.3301,0.2779,0.1828,-93.0,-27.75,8.85,9.596,1.664,1.1037,-0.1673,0.1234,0.3938,-87.75,6.0,-27.15,-4.34,-2.76,-8.38,-0.0404,-0.0687,0.024,2.875,7.25,61.5625,193.75,-24.5625,161.75,0
1776973194.021,9.6534,1.2617,0.498,-0.3621,0.2739,0.1977,-91.05,-24.0,10.2,9.596,1.664,1.1037,-0.1673,0.1234,0.3938,-88.35,5.85,-28.05,-4.34,-2.64,-8.46,-0.0556,-0.0513,0.0262,2.875,7.1875,62.75,193.75,-24.625,161.75,0
1776973194.026,9.6534,1.2617,0.498,-0.3621,0.2739,0.1977,-91.05,-24.0,10.2,9.6486,1.4246,1.087,-0.2156,0.0997,0.4064,-88.35,5.85,-28.05,-4.34,-2.64,-8.46,-0.0556,-0.0513,0.0262,2.875,7.1875,62.75,193.75,-24.625,161.75,0
1776973194.031,9.8282,0.9792,0.0622,-0.3805,0.2939,0.2137,-90.9,-24.15,10.05,9.6486,1.4246,1.087,-0.2156,0.0997,0.4064,-88.2,4.8,-26.7,-4.31,-2.68,-8.43,-0.0676,-0.0349,0.0229,2.875,7.1875,62.75,193.75,-24.625,161.8125,0
1776973194.036,9.8282,0.9792,0.0622,-0.3805,0.2939,0.2137,-90.9,-24.15,10.05,9.7899,1.3479,0.972,-0.3136,0.0741,0.409,-88.2,4.8,-26.7,-4.31,-2.68,-8.43,-0.0676,-0.0349,0.0229,2.875,7.1875,62.75,193.75,-24.625,161.8125,0
1776973194.041,9.7181,0.7326,-0.1293,-0.3925,0.2761,0.2161,-92.55,-24.3,10.65,9.7899,1.3479,0.972,-0.3136,0.0741,0.409,-89.85,4.65,-26.25,-4.31,-2.68,-8.43,-0.0774,-0.0316,0.0218,2.875,7.1875,62.75,193.75,-24.625,161.875,0
1776973194.046,9.7181,0.7326,-0.1293,-0.3925,0.2761,0.2161,-92.55,-24.3,10.65,9.7923,1.1229,0.8404,-0.3981,0.0266,0.3941,-89.85,4.65,-26.25,-4.13,-2.73,-8.35,-0.0774,-0.0316,0.0218,2.875,7.1875,62.75,193.75,-24.625,161.875,0
1776973194.055,9.7851,0.4022,-0.079,-0.4946,0.275,0.211,-91.65,-26.4,10.5,9.5361,1.1971,0.9242,-0.4362,0.048,0.4037,-89.85,4.65,-26.25,-4.12,-2.76,-8.4,-0.0731,-0.048,0.0295,2.875,7.1875,62.75,193.75,-24.6875,161.9375,0
1776973194.06,9.5936,0.0431,0.2801,-0.6297,0.2777,0.2014,-91.65,-26.4,10.5,9.5361,1.1971,0.9242,-0.4362,0.048,0.4037,-89.7,5.55,-28.2,-4.12,-2.76,-8.4,-0.0611,-0.084,0.036,2.875,7.1875,62.75,193.75,-24.75,161.9375,0
1776973194.066,9.5936,0.0431,0.2801,-0.6297,0.2777,0.2014,-91.65,-26.4,10.5,9.6774,1.3192,0.723,-0.5217,0.028,0.4037,-89.7,5.55,-28.2,-4.31,-2.66,-8.38,-0.0611,-0.084,0.036,2.875,7.1875,62.75,193.75,-24.75,161.9375,0
1776973194.071,9.6941,-0.237,0.5339,-0.7794,0.2966,0.1817,-92.55,-27.3,11.7,9.6774,1.3192,0.723,-0.5217,0.028,0.4037,-89.7,5.55,-28.2,-4.31,-2.66,-8.38,-0.0611,-0.084,0.036,3.1875,7.5625,61.5625,193.75,-24.8125,162.0,0
1776973194.076,9.6941,-0.237,0.5339,-0.7794,0.2966,0.1817,-92.55,-27.3,11.7,9.4691,1.6376,0.2897,-0.5454,0.0336,0.3909,-89.7,5.55,-28.2,-4.16,-2.76,-8.28,-0.06,-0.0971,0.0327,3.1875,7.5625,61.5625,193.75,-24.8125,162.0,0
1776973194.081,9.6941,-0.486,0.8092,-0.8841,0.2028,0.1599,-93.3,-27.3,9.9,9.4691,1.6376,0.2897,-0.5454,0.0336,0.3909,-88.8,5.85,-27.0,-4.16,-2.76,-8.28,-0.06,-0.0971,0.0327,3.1875,7.5625,61.5625,193.75,-24.875,162.0,0
1776973194.086,9.6941,-0.486,0.8092,-0.8841,0.2028,0.1599,-93.3,-27.3,9.9,9.4547,1.7693,0.3543,-0.4674,0.0432,0.3837,-88.8,5.85,-27.0,-4.26,-2.7,-8.33,-0.0731,-0.0993,0.0349,3.1875,7.5625,61.5625,193.75,-24.875,162.0,0
1776973194.091,9.7109,-0.6656,1.1157,-0.9534,0.1354,0.141,-91.8,-28.8,9.9,9.4427,1.5921,0.5076,-0.4674,0.0432,0.3837,-89.85,4.2,-27.0,-4.26,-2.7,-8.33,-0.072,-0.1222,0.0371,3.1875,7.5625,61.5625,193.75,-24.9375,162.0625,0
1776973194.096,9.7109,-0.6656,1.1157,-0.9534,0.1354,0.141,-91.8,-28.8,9.9,9.4427,1.5921,0.5076,-0.4048,0.0346,0.3762,-89.85,4.2,-27.0,-4.29,-2.62,-8.38,-0.072,-0.1222,0.0371,3.1875,7.5625,61.5625,193.75,-24.9375,162.0625,0
1776973194.105,9.5888,-0.6321,1.1468,-0.9449,0.0674,0.1186,-91.95,-28.65,9.0,9.493,1.1492,0.6943,-0.344,0.0365,0.3832,-88.95,5.25,-26.4,-4.42,-2.55,-8.42,-0.072,-0.1265,0.036,3.1875,7.5625,61.5625,193.75,-25.0,162.125,0
1776973194.11,9.7564,-0.5507,1.4174,-0.918,0.0205,0.0997,-90.15,-27.45,7.95,9.493,1.1492,0.6943,-0.344,0.0365,0.3832,-88.95,5.25,-26.4,-4.42,-2.55,-8.42,-0.0654,-0.1145,0.0327,3.1875,7.5625,61.5625,193.75,-25.125,162.125,0
1776973194.116,9.7564,-0.5507,1.4174,-0.918,0.0205,0.0997,-90.15,-27.45,7.95,9.7037,0.723,1.0223,-0.3384,0.0242,0.3808,-88.95,4.05,-27.45,-4.42,-2.53,-8.39,-0.0654,-0.1145,0.0327,3.1875,7.5625,61.5625,193.75,-25.125,162.125,0
1776973194.121,10.0796,-0.6201,1.3791,-0.8711,-0.0328,0.0877,-90.15,-27.45,7.95,9.5744,0.4693,1.0534,-0.4013,0.0112,0.3824,-89.1,4.95,-27.75,-4.42,-2.53,-8.39,-0.0622,-0.1222,0.024,3.5625,7.1875,61.5625,193.75,-25.1875,162.1875,0
1776973194.126,10.0796,-0.6201,1.3791,-0.8711,-0.0328,0.0877,-90.15,-27.45,7.95,9.5744,0.4693,1.0534,-0.4013,0.0112,0.3824,-89.1,4.95,-27.75,-4.41,-2.53,-8.38,-0.0622,-0.1222,0.024,3.5625,7.1875,61.5625,193.75,-25.1875,162.1875,0
1776973194.131,9.4595,-0.6057,1.7861,-0.9489,-0.0613,0.0767,-89.1,-29.4,7.95,9.5337,0.3735,1.2617,-0.4756,0.0021,0.3738,-88.65,3.6,-28.65,-4.41,-2.53,-8.38,-0.0502,-0.1134,0.024,3.5625,7.1875,61.5625,193.75,-25.25,162.1875,0
1776973194.136,9.4595,-0.6057,1.7861,-0.9489,-0.0613,0.0767,-89.1,-29.4,7.95,9.5337,0.3735,1.2617,-0.4756,0.0021,0.3738,-88.65,3.6,-28.65,-4.47,-2.56,-8.4,-0.0502,-0.1134,0.024,3.5625,7.1875,61.5625,193.75,-25.25,162.1875,0
1776973194.141,9.8497,-0.5148,1.8316,-0.9715,0.0109,0.0701,-88.95,-26.55,6.3,9.809,0.407,1.4341,-0.5836,-0.0067,0.3701,-88.65,3.6,-28.65,-4.47,-2.56,-8.4,-0.0436,-0.1004,0.024,3.5625,7.1875,61.5625,193.75,-25.3125,162.25,0
1776973194.146,9.8497,-0.5148,1.8316,-0.9715,0.0109,0.0701,-88.95,-26.55,6.3,9.809,0.407,1.4341,-0.5836,-0.0067,0.3701,-88.65,3.6,-28.65,-4.45,-2.58,-8.35,-0.0436,-0.1004,0.024,3.5625,7.1875,61.5625,193.75,-25.375,162.25,0
1776973194.155,9.8497,-0.4214,2.0925,-1.0746,-0.0304,0.077,-88.8,-26.7,7.2,9.8186,0.5866,1.3886,-0.6742,-0.0477,0.3557,-88.65,4.5,-27.45,-4.35,-2.62,-8.32,-0.0371,-0.0905,0.0175,3.5625,7.1875,61.5625,193.75,-25.375,162.25,0
1776973194.161,9.754,-0.2658,2.1931,-1.1101,-0.016,0.0725,-87.3,-28.65,6.15,9.8569,0.4956,1.2809,-0.7218,-0.056,0.3528,-88.65,4.5,-27.45,-4.35,-2.62,-8.32,-0.0316,-0.0884,0.0196,3.5625,7.1875,61.5625,193.75,-25.4375,162.3125,0
1776973194.166,9.6438,-0.2155,2.2362,-1.182,-0.0213,0.0759,-87.3,-28.65,6.15,9.8569,0.4956,1.2809,-0.7218,-0.056,0.3528,-88.65,4.5,-27.45,-4.42,-2.64,-8.34,-0.0316,-0.0884,0.0196,3.5625,7.1875,61.5625,193.75,-25.4375,162.3125,0
1776973194.171,9.6438,-0.2155,2.2362,-1.182,-0.0213,0.0759,-87.3,-28.65,6.15,9.7923,0.4286,1.3599,-0.676,-0.0786,0.3456,-89.1,3.9,-26.55,-4.42,-2.6,-8.4,-0.0327,-0.0851,0.0207,3.5625,7.1875,62.375,193.75,-25.5,162.3125,0
1776973194.176,9.6941,-0.1772,2.1452,-1.246,-0.0314,0.0933,-87.3,-28.65,6.15,9.7923,0.4286,1.3599,-0.676,-0.0786,0.3456,-89.1,3.9,-26.55,-4.42,-2.6,-8.4,-0.0327,-0.0851,0.0207,3.5625,7.1875,62.375,193.75,-25.5,162.3125,0
1776973194.181,9.6941,-0.1772,2.1452,-1.246,-0.0314,0.0933,-87.3,-28.65,6.15,9.8497,0.2059,1.233,-0.6619,-0.0885,0.3453,-89.1,4.95,-27.0,-4.42,-2.6,-8.4,-0.0316,-0.084,0.0251,3.5625,7.1875,62.375,193.75,-25.5625,162.3125,0
1776973194.186,9.7252,-0.1532,2.0614,-1.3347,0.0125,0.11,-87.3,-28.65,6.15,9.8497,0.2059,1.233,-0.6619,-0.0885,0.3453,-89.1,4.95,-27.0,-4.53,-2.5,-8.34,-0.0316,-0.084,0.0251,3.5625,7.1875,62.375,193.75,-25.5625,162.3125,0
1776973194.191,9.7252,-0.1532,2.0614,-1.3347,0.0125,0.11,-90.9,-27.45,5.85,9.8809,0.1939,1.2857,-0.6347,-0.1114,0.3349,-89.4,3.6,-27.15,-4.53,-2.5,-8.34,-0.0273,-0.072,0.0218,3.5625,7.1875,62.375,193.75,-25.625,162.375,0
1776973194.196,9.5744,-0.0192,2.0183,-1.3971,0.0226,0.1346,-90.45,-26.25,7.05,9.8809,0.1939,1.2857,-0.6347,-0.1114,0.3349,-89.4,3.6,-27.15,-4.49,-2.49,-8.4,-0.0273,-0.072,0.0218,3.5625,7.1875,62.375,193.75,-25.6875,162.375,0
1776973194.206,9.6223,0.091,2.0183,-1.408,-0.0045,0.1514,-90.45,-26.25,7.05,9.8569,0.2897,1.4293,-0.6059,-0.146,0.3235,-88.2,4.05,-27.15,-4.49,-2.51,-8.37,-0.0284,-0.06,0.0153,3.5625,7.1875,62.375,193.75,-25.6875,162.375,0
1776973194.212,9.6223,0.091,2.0183,-1.408,-0.0045,0.1514,-90.9,-28.65,6.45,9.8378,0.3807,1.336,-0.6105,-0.1705,0.315,-88.2,4.05,-27.15,-4.53,-2.54,-8.39,-0.0305,-0.0469,0.0098,3.5625,7.1875,62.375,193.75,-25.6875,162.375,0
1776973194.217,9.7324,0.1628,1.9776,-1.3997,-0.053,0.1689,-90.6,-26.7,6.9,9.8833,0.5315,1.3527,-0.5838,-0.1775,0.311,-88.2,4.05,-27.15,-4.53,-2.54,-8.39,-0.0305,-0.0469,0.0098,3.5625,7.1875,62.375,193.75,-25.6875,162.375,0
1776973194.222,9.7324,0.1628,1.9776,-1.3997,-0.053,0.1689,-90.6,-26.7,6.9,9.8833,0.5315,1.3527,-0.5838,-0.1775,0.311,-87.6,3.0,-27.0,-4.53,-2.54,-8.39,-0.0305,-0.0469,0.0098,3.5625,6.75,62.0,193.75,-25.75,162.375,0
1776973194.227,9.6845,0.2658,1.9968,-1.3451,-0.1034,0.1836,-90.6,-26.7,6.9,9.8713,0.6201,1.3743,-0.5785,-0.1956,0.312,-87.6,3.0,-27.0,-4.52,-2.58,-8.35,-0.0273,-0.0262,0.0044,3.5625,6.75,62.0,193.75,-25.75,162.375,0
1776973194.231,9.6845,0.2658,1.9968,-1.3451,-0.1034,0.1836,-90.6,-26.7,6.9,9.8713,0.6201,1.3743,-0.5785,-0.1956,0.312,-87.6,3.0,-27.0,-4.52,-2.58,-8.35,-0.0273,-0.0262,0.0044,3.5625,6.75,62.0,193.75,-25.75,162.4375,0
1776973194.236,9.6534,0.4956,2.0566,-1.3129,-0.1276,0.1905,-91.05,-27.0,7.05,9.8138,0.6201,1.3695,-0.562,-0.2084,0.3128,-87.6,3.0,-27.0,-4.51,-2.58,-8.34,-0.0295,-0.0098,0.0,3.5625,6.75,62.0,193.75,-25.75,162.4375,0
1776973194.241,9.6534,0.4956,2.0566,-1.3129,-0.1276,0.1905,-91.05,-27.0,7.05,9.8138,0.6201,1.3695,-0.562,-0.2084,0.3128,-89.4,2.85,-27.45,-4.51,-2.58,-8.34,-0.0251,0.0076,0.0,3.5625,6.75,62.0,193.75,-25.75,162.4375,0
1776973194.246,9.7588,0.668,1.9944,-1.2606,-0.133,0.2012,-90.6,-25.65,6.9,9.8713,0.7326,1.154,-0.5588,-0.2254,0.32,-89.4,2.85,-27.45,-4.5,-2.58,-8.38,-0.0251,0.0076,0.0,3.5625,6.75,62.0,193.75,-25.75,162.4375,0
1776973194.256,9.8617,0.7326,1.9872,-1.2127,-0.1215,0.1927,-91.95,-25.95,6.45,9.7827,0.6991,0.9529,-0.6142,-0.2547,0.3166,-88.2,3.3,-28.65,-4.43,-2.6,-8.34,-0.0185,0.0273,-0.0011,3.5625,6.75,62.0,193.75,-25.75,162.4375,0
1776973194.263,9.8713,0.7757,1.9896,-1.1509,-0.1162,0.1785,-91.95,-25.95,6.45,9.7827,0.6991,0.9529,-0.6142,-0.2547,0.3166,-86.7,4.05,-28.2,-4.45,-2.63,-8.34,-0.0175,0.0284,0.0,3.5625,6.75,62.0,193.75,-25.75,162.5,0
1776973194.268,9.8713,0.7757,1.9896,-1.1509,-0.1162,0.1785,-91.35,-27.15,5.85,9.6845,0.2705,0.9673,-0.6811,-0.2603,0.3192,-86.7,4.05,-28.2,-4.45,-2.63,-8.34,-0.0175,0.0284,0.0,3.5625,6.75,62.0,193.75,-25.75,162.5,0
1776973194.272,9.8545,0.8092,1.8076,-1.0986,-0.093,0.1522,-91.35,-27.15,5.85,9.6845,0.2705,0.9673,-0.6811,-0.2603,0.3192,-87.45,2.85,-27.45,-4.44,-2.58,-8.32,-0.0164,0.0316,0.0055,4.25,7.1875,61.1875,193.75,-25.75,162.5,0
1776973194.277,9.8545,0.8092,1.8076,-1.0986,-0.093,0.1522,-91.05,-27.3,8.85,9.8067,0.0958,1.1396,-0.7029,-0.2726,0.3275,-87.45,2.85,-27.45,-4.44,-2.58,-8.32,-0.0164,0.0316,0.0055,4.25,7.1875,61.1875,193.75,-25.75,162.5,0
1776973194.282,9.8138,0.7973,1.6233,-1.096,-0.0999,0.1319,-91.05,-27.3,8.85,9.8067,0.0958,1.1396,-0.7029,-0.2726,0.3275,-87.0,3.3,-28.65,-4.44,-2.49,-8.36,-0.0164,0.0349,0.0098,4.25,7.1875,61.1875,193.75,-25.75,162.5,0
1776973194.287,9.8138,0.7973,1.6233,-1.096,-0.0999,0.1319,-91.05,-27.3,8.85,9.7947,0.4741,1.1061,-0.7506,-0.283,0.344,-87.0,3.3,-28.65,-4.44,-2.49,-8.36,-0.0164,0.0349,0.0098,4.25,7.1875,61.1875,193.75,-25.75,162.5,0
1776973194.293,9.7899,0.8164,1.5419,-1.1202,-0.117,0.1231,-91.05,-27.3,8.85,9.7372,0.8715,0.8691,-0.7506,-0.283,0.344,-89.55,3.0,-27.3,-4.48,-2.47,-8.4,-0.012,0.0371,0.0109,4.25,7.1875,61.1875,193.8125,-25.6875,162.5,0
1776973194.298,9.7899,0.8164,1.5419,-1.1202,-0.117,0.1231,-88.95,-27.0,6.75,9.7372,0.8715,0.8691,-0.8021,-0.2971,0.3555,-89.55,3.0,-27.3,-4.48,-2.47,-8.4,-0.012,0.0371,0.0109,4.25,7.1875,61.1875,193.8125,-25.6875,162.5,0
1776973194.306,9.7109,0.8835,1.2905,-1.1746,-0.1228,0.1268,-90.75,-26.55,7.35,9.7037,1.221,0.7039,-0.8162,-0.3022,0.3765,-89.55,3.0,-27.3,-4.49,-2.51,-8.35,-0.0055,0.0415,0.012,4.25,7.1875,61.1875,193.8125,-25.6875,162.5,0
1776973194.314,9.7779,0.9553,1.0415,-1.2398,-0.1194,0.1231,-90.0,-25.5,7.05,9.5337,1.3886,0.5411,-0.8055,-0.2998,0.3938,-87.45,2.4,-28.95,-4.45,-2.62,-8.31,-0.0044,0.0524,0.0098,4.25,7.1875,61.1875,193.8125,-25.6875,162.5625,0
1776973194.319,9.7779,0.9553,1.0415,-1.2398,-0.1194,0.1231,-90.0,-25.5,7.05,9.5337,1.3886,0.5411,-0.8055,-0.2998,0.3938,-87.45,2.4,-28.95,-4.45,-2.62,-8.31,-0.0044,0.0524,0.0098,4.25,7.1875,61.1875,193.8125,-25.6875,162.5625,0
1776973194.324,9.9024,1.1061,0.7805,-1.2676,-0.1295,0.1308,-91.05,-26.25,6.75,9.5265,1.4054,0.2634,-0.8103,-0.2934,0.4151,-87.45,2.4,-28.95,-4.43,-2.58,-8.31,-0.0065,0.0698,0.0109,4.25,7.875,62.75,193.8125,-25.6875,162.5625,0
1776973194.329,9.9024,1.1061,0.7805,-1.2676,-0.1295,0.1308,-91.05,-26.25,6.75,9.5265,1.4054,0.2634,-0.8103,-0.2934,0.4151,-87.45,2.4,-28.95,-4.43,-2.58,-8.31,-0.0065,0.0698,0.0109,4.25,7.875,62.75,193.8125,-25.6875,162.5625,0
1776973194.333,9.8857,1.3455,0.6416,-1.279,-0.1463,0.1255,-91.05,-26.25,6.75,9.6367,1.5538,0.2873,-0.7935,-0.2846,0.4567,-86.25,2.4,-28.95,-4.39,-2.6,-8.32,-0.0185,0.0709,0.0098,4.25,7.875,62.75,193.8125,-25.625,162.5625,0
1776973194.338,9.8857,1.3455,0.6416,-1.279,-0.1463,0.1255,-91.05,-26.25,6.75,9.6367,1.5538,0.2873,-0.7935,-0.2846,0.4567,-86.25,2.4,-28.95,-4.39,-2.6,-8.32,-0.0185,0.0709,0.0098,4.25,7.875,62.75,193.8125,-25.625,162.5625,0
1776973194.344,9.8306,1.6089,0.6249,-1.2628,-0.182,0.1124,-90.6,-25.65,6.15,9.7276,1.8986,0.2586,-0.7954,-0.2843,0.4884,-86.55,3.9,-29.85,-4.39,-2.54,-8.37,-0.0229,0.072,0.0087,4.25,7.875,62.75,193.8125,-25.625,162.5625,0
1776973194.349,9.8306,1.6089,0.6249,-1.2628,-0.182,0.1124,-90.6,-25.65,6.15,9.7276,1.8986,0.2586,-0.7954,-0.2843,0.4884,-86.55,3.9,-29.85,-4.39,-2.54,-8.37,-0.0229,0.072,0.0087,4.25,7.875,62.75,193.8125,-25.5625,162.625,0
1776973194.356,9.8474,1.81,0.6345,-1.2452,-0.2022,0.0877,-90.9,-26.4,7.2,9.7899,1.9058,0.2227,-0.7914,-0.2713,0.5156,-87.0,3.6,-29.4,-4.27,-2.73,-8.33,-0.0262,0.0753,0.012,4.25,7.875,62.75,193.8125,-25.5625,162.625,0
1776973194.363,9.912,1.9848,0.8452,-1.2726,-0.2406,0.0786,-90.6,-25.65,7.65,9.7971,1.7861,0.3831,-0.7392,-0.2611,0.562,-86.85,1.5,-28.8,-4.28,-2.67,-8.39,-0.0295,0.0665,0.0164,4.25,7.875,62.75,193.875,-25.5625,162.625,0
1776973194.368,9.912,1.9848,0.8452,-1.2726,-0.2406,0.0786,-90.6,-25.65,7.65,9.7971,1.7861,0.3831,-0.7392,-0.2611,0.562,-86.85,1.5,-28.8,-4.28,-2.67,-8.39,-0.0295,0.0665,0.0164,4.25,7.875,62.75,193.875,-25.5625,162.625,0
1776973194.373,9.9503,2.0207,1.1708,-1.3515,-0.2523,0.0741,-93.15,-27.9,8.25,9.8785,1.6831,0.2298,-0.724,-0.2675,0.6057,-86.85,1.5,-28.8,-4.34,-2.71,-8.38,-0.0338,0.0622,0.0229,3.875,6.375,61.5625,193.875,-25.5,162.6875,0
1776973194.378,9.9503,2.0207,1.1708,-1.3515,-0.2523,0.0741,-93.15,-27.9,8.25,9.8785,1.6831,0.2298,-0.724,-0.2675,0.6057,-86.85,1.5,-28.8,-4.34,-2.71,-8.38,-0.0338,0.0622,0.0229,3.875,6.375,61.5625,193.875,-25.5,162.6875,0
1776973194.383,9.7612,1.9082,1.4868,-1.4325,-0.2681,0.0733,-92.55,-27.3,7.35,9.7229,1.2833,-0.103,-0.6963,-0.2598,0.6422,-87.3,2.7,-29.55,-4.31,-2.74,-8.4,-0.0338,0.0665,0.0262,3.875,6.375,61.5625,193.875,-25.5,162.6875,0
1776973194.388,9.7612,1.9082,1.4868,-1.4325,-0.2681,0.0733,-92.55,-27.3,7.35,9.7229,1.2833,-0.103,-0.6963,-0.2598,0.6422,-87.3,2.7,-29.55,-4.31,-2.74,-8.4,-0.0338,0.0665,0.0262,3.875,6.375,61.5625,193.875,-25.5,162.6875,0
1776973194.392,9.8019,1.6951,1.7621,-1.4719,-0.263,0.0634,-92.55,-27.3,7.35,9.6869,1.0822,-0.0144,-0.6438,-0.2547,0.6763,-87.3,2.7,-29.55,-4.42,-2.62,-8.41,-0.0382,0.0545,0.0284,3.875,6.375,61.5625,193.875,-25.4375,162.6875,0
1776973194.397,9.8019,1.6951,1.7621,-1.4719,-0.263,0.0634,-92.55,-27.3,7.35,9.6869,1.0822,-0.0144,-0.6438,-0.2547,0.6763,-87.3,2.7,-29.55,-4.42,-2.62,-8.41,-0.0382,0.0545,0.0284,3.875,6.375,61.5625,193.9375,-25.4375,162.75,0
1776973194.406,9.833,1.403,1.719,-1.5018,-0.2766,0.0565,-93.0,-27.75,7.35,9.6175,1.0319,-0.2586,-0.632,-0.2457,0.7035,-87.3,3.0,-30.6,-4.34,-2.62,-8.49,-0.0382,0.0545,0.0327,3.875,6.375,61.5625,193.9375,-25.4375,162.75,0
1776973194.412,9.7013,1.1109,1.6975,-1.4727,-0.2723,0.0296,-93.0,-27.75,7.35,9.5457,0.8188,-0.2346,-0.6411,-0.2238,0.7341,-87.3,3.0,-30.6,-4.36,-2.59,-8.43,-0.0349,0.0611,0.0338,3.875,6.375,61.5625,193.9375,-25.4375,162.75,0
1776973194.417,9.7013,1.1109,1.6975,-1.4727,-0.2723,0.0296,-92.25,-28.5,8.1,9.5457,0.8188,-0.2346,-0.6411,-0.2238,0.7341,-86.55,1.95,-30.3,-4.36,-2.59,-8.43,-0.0349,0.0611,0.0338,3.875,6.375,61.5625,193.9375,-25.4375,162.75,0
1776973194.422,9.7037,0.8452,1.5514,-1.4575,-0.2904,-0.0059,-92.25,-28.5,8.1,9.6438,0.7949,-0.0096,-0.6198,-0.2316,0.7506,-86.55,1.95,-30.3,-4.36,-2.59,-8.43,-0.0251,0.0633,0.0338,4.6875,6.75,61.1875,193.9375,-25.375,162.8125,0
1776973194.427,9.7037,0.8452,1.5514,-1.4575,-0.2904,-0.0059,-93.3,-26.55,8.1,9.6438,0.7949,-0.0096,-0.6198,-0.2316,0.7506,-86.25,1.35,-30.15,-4.32,-2.73,-8.39,-0.0251,0.0633,0.0338,4.6875,6.75,61.1875,193.9375,-25.375,162.8125,0
1776973194.431,9.4739,0.6967,1.4485,-1.4304,-0.303,-0.0562,-93.3,-26.55,8.1,9.7971,1.1492,0.4046,-0.6091,-0.247,0.7674,-86.25,1.35,-30.15,-4.32,-2.73,-8.39,-0.0196,0.0633,0.0349,4.6875,6.75,61.1875,194.0,-25.375,162.8125,0
1776973194.437,9.4739,0.6967,1.4485,-1.4304,-0.303,-0.0562,-90.0,-27.3,8.55,9.8426,1.5443,0.3591,-0.6091,-0.247,0.7674,-85.05,-1.5,-30.3,-4.28,-2.6,-8.43,-0.0196,0.0633,0.0349,4.6875,6.75,61.1875,194.0,-25.375,162.8125,0
1776973194.441,9.2273,0.4621,1.2713,-1.3915,-0.3027,-0.1058,-90.0,-27.3,8.55,9.8426,1.5443,0.3591,-0.6209,-0.2497,0.7871,-85.05,-1.5,-30.3,-4.28,-2.6,-8.43,-0.0153,0.0622,0.0415,4.6875,6.75,61.1875,194.0,-25.3125,162.875,0
1776973194.447,9.4308,0.1413,0.8475,-1.3241,-0.3035,-0.1615,-90.0,-27.3,8.55,9.9982,1.652,-0.0192,-0.6209,-0.2497,0.7871,-85.95,2.1,-29.7,-4.33,-2.71,-8.5,-0.0153,0.0622,0.0415,4.6875,6.75,61.1875,194.0,-25.3125,162.875,0
1776973194.456,9.4308,0.1413,0.8475,-1.3241,-0.3035,-0.1615,-90.0,-27.3,8.55,10.1059,0.9074,-0.5626,-0.6424,-0.2438,0.8124,-87.45,1.35,-30.15,-4.27,-2.88,-8.43,-0.0065,0.0545,0.0447,4.6875,6.75,61.1875,194.0,-25.3125,162.875,0
1776973194.461,9.7468,-0.091,0.5171,-1.2572,-0.3528,-0.207,-90.0,-27.3,8.55,10.1059,0.9074,-0.5626,-0.7,-0.2324,0.8322,-87.45,1.35,-30.15,-4.27,-2.88,-8.43,-0.0033,0.0753,0.0502,4.6875,6.75,61.1875,194.0625,-25.3125,162.875,0
1776973194.467,9.8689,-0.3831,0.2825,-1.2585,-0.3544,-0.2545,-91.5,-24.0,8.1,10.0868,-0.2203,-0.8859,-0.7797,-0.2209,0.8439,-87.45,1.35,-30.15,-4.26,-3.04,-8.42,-0.0033,0.0753,0.0502,4.6875,6.75,61.1875,194.0625,-25.3125,162.875,0
1776973194.472,9.8689,-0.3831,0.2825,-1.2585,-0.3544,-0.2545,-90.9,-25.65,7.65,10.0868,-0.2203,-0.8859,-0.7797,-0.2209,0.8439,-87.45,1.35,-30.15,-4.26,-3.04,-8.42,-0.0033,0.0753,0.0502,3.875,7.1875,62.375,194.125,-25.25,162.875,0
1776973194.477,10.137,-0.7015,0.1604,-1.3121,-0.3296,-0.296,-90.9,-25.65,7.65,10.0317,-1.142,-1.166,-0.8945,-0.1969,0.8615,-85.5,0.15,-29.7,-4.26,-2.91,-8.45,0.0022,0.1244,0.0709,3.875,7.1875,62.375,194.125,-25.25,162.875,0
1776973194.482,10.137,-0.7015,0.1604,-1.3121,-0.3296,-0.296,-89.1,-23.4,4.8,10.0317,-1.142,-1.166,-0.8945,-0.1969,0.8615,-85.5,0.15,-29.7,-4.26,-2.91,-8.45,0.0022,0.1244,0.0709,3.875,7.1875,62.375,194.1875,-25.1875,162.9375,0
1776973194.487,10.2256,-0.9026,0.2346,-1.3755,-0.3816,-0.3373,-89.1,-23.4,4.8,10.0509,-1.1851,-1.4892,-1.0882,-0.1679,0.8724,-85.05,-0.3,-29.25,-4.28,-2.95,-8.47,0.0153,0.18,0.0894,3.875,7.1875,62.375,194.25,-25.0625,162.9375,0
1776973194.496,10.3358,-1.0942,0.3328,-1.4746,-0.3906,-0.3885,-88.5,-22.05,4.5,10.1801,-1.2115,-1.6376,-1.2359,-0.1415,0.8575,-85.8,-0.3,-31.35,-4.09,-2.78,-8.81,0.0382,0.2727,0.1156,3.875,7.1875,62.375,194.375,-24.9375,162.9375,0
1776973194.506,10.2711,-1.391,0.4334,-1.6204,-0.466,-0.4551,-88.5,-22.05,4.5,10.3789,-0.6991,-1.6281,-1.3182,-0.0632,0.7679,-84.6,-0.75,-29.25,-3.35,-3.16,-9.34,0.0796,0.2814,0.1516,3.875,7.1875,62.375,194.375,-24.9375,162.9375,0
1776973194.516,10.1203,-1.6448,0.2921,-1.6603,-0.5718,-0.5271,-88.2,-20.55,2.85,10.2232,-0.5411,-1.4413,-1.4005,-0.0504,0.6883,-85.35,-0.3,-32.1,-3.99,-3.04,-8.69,0.1385,0.2302,0.2323,3.875,7.1875,62.375,194.5625,-24.8125,162.9375,0
1776973194.521,10.1203,-1.6448,0.2921,-1.6603,-0.5718,-0.5271,-86.7,-20.25,1.05,10.2232,-0.5411,-1.4413,-1.4005,-0.0504,0.6883,-85.35,-0.3,-32.1,-3.99,-3.04,-8.69,0.1385,0.2302,0.2323,3.875,7.1875,62.375,194.5625,-24.8125,162.9375,0
1776973194.526,10.5177,-1.6257,0.0527,-1.7368,-0.6963,-0.5846,-86.7,-20.25,1.05,10.8481,-1.3503,-2.0255,-1.348,-0.0496,0.6366,-84.6,-1.5,-30.6,-3.62,-1.97,-9.44,0.1756,0.1527,0.3927,3.1875,6.0625,62.0,194.8125,-24.8125,163.0,0
1776973194.531,10.5177,-1.6257,0.0527,-1.7368,-0.6963,-0.5846,-86.25,-19.95,0.75,10.8481,-1.3503,-2.0255,-1.348,-0.0496,0.6366,-84.6,-1.5,-30.6,-3.62,-1.97,-9.44,0.1756,0.1527,0.3927,3.1875,6.0625,62.0,194.8125,-24.8125,163.0,0
1776973194.536,10.8314,-1.403,-0.4142,-1.5308,-0.8364,-0.6568,-86.25,-19.95,0.75,11.0468,-2.3655,-1.4413,-1.5412,-0.0048,0.6432,-84.6,-1.5,-30.6,-2.03,-0.23,-10.71,0.2269,0.2073,0.6152,3.1875,6.0625,62.0,195.1875,-24.8125,163.0,0
1776973194.541,10.8314,-1.403,-0.4142,-1.5308,-0.8364,-0.6568,-85.8,-19.2,1.5,11.0468,-2.3655,-1.4413,-1.5412,-0.0048,0.6432,-84.6,-1.5,-30.6,-2.03,-0.23,-10.71,0.2029,0.1658,0.7069,3.1875,6.0625,62.0,195.625,-24.8125,163.0625,0
1776973194.547,10.9056,-1.2689,-0.8308,-1.566,-0.8399,-0.7011,-85.8,-19.2,1.5,10.8314,-3.1364,-1.7549,-1.7032,0.0109,0.648,-84.15,0.3,-29.85,-3.81,-2.39,-9.3,0.2029,0.1658,0.7069,3.1875,6.0625,62.0,196.125,-24.875,163.0625,0
1776973194.556,11.2288,-0.9936,-1.063,-1.6451,-0.7655,-0.7269,-85.8,-19.2,1.5,10.3549,-3.2082,-0.984,-1.7645,0.0999,0.5782,-84.15,0.3,-29.85,-3.65,-3.1,-9.35,0.3905,0.1582,0.8519,3.1875,6.0625,62.0,196.125,-24.875,163.0625,0
1776973194.566,11.2216,-0.7111,-1.4341,-1.5601,-0.7362,-0.7592,-85.8,-19.2,1.5,10.0676,-3.6176,-0.237,-1.8655,0.1535,0.4743,-83.1,-1.05,-32.1,-3.92,-2.67,-8.98,0.7189,0.0709,1.0297,3.1875,6.0625,62.0,196.8125,-25.0,162.9375,0
1776973194.571,11.2216,-0.7111,-1.4341,-1.5601,-0.7362,-0.7592,-87.45,-22.8,2.1,10.0676,-3.6176,-0.237,-1.8655,0.1535,0.4743,-83.1,-1.05,-32.1,-3.92,-2.67,-8.98,0.7189,0.0709,1.0297,3.1875,6.0625,62.0,196.8125,-25.0,162.9375,0
1776973194.576,10.8793,-0.7805,-1.7693,-1.3867,-0.8268,-0.7831,-87.45,-22.8,2.1,9.9551,-3.5482,0.7278,-1.9007,0.1777,0.3248,-83.1,-0.75,-31.8,-3.64,-2.26,-9.3,1.0232,0.0829,1.2577,2.875,6.75,62.375,197.625,-25.1875,162.6875,0
1776973194.581,10.8793,-0.7805,-1.7693,-1.3867,-0.8268,-0.7831,-87.15,-25.5,2.1,9.9551,-3.5482,0.7278,-1.9007,0.1777,0.3248,-83.1,-0.75,-31.8,-3.64,-2.26,-9.3,1.0232,0.0829,1.2577,2.875,6.75,62.375,197.625,-25.1875,162.6875,0
1776973194.585,10.41,-0.905,-1.9249,-1.449,-0.8164,-0.7722,-87.15,-25.5,2.1,9.809,-3.5195,1.2426,-2.0688,0.1705,0.1636,-82.2,0.15,-32.7,-3.58,-2.61,-9.11,1.285,0.1713,1.525,2.875,6.75,62.375,198.6875,-25.3125,162.375,0
1776973194.59,10.41,-0.905,-1.9249,-1.449,-0.8164,-0.7722,-90.6,-29.4,4.8,9.809,-3.5195,1.2426,-2.0688,0.1705,0.1636,-82.2,0.15,-32.7,-3.58,-2.61,-9.11,1.5512,0.2891,1.8086,2.875,6.75,62.375,199.875,-25.5,162.0,0
1776973194.597,10.9607,-2.6552,-2.1739,-1.3731,-0.4082,-0.7775,-90.6,-29.4,4.8,9.8138,-3.6607,1.7358,-2.2135,0.1943,-0.0181,-84.0,-0.15,-31.65,-3.16,-2.67,-9.16,1.5512,0.2891,1.8086,2.875,6.75,62.375,201.3125,-25.625,161.5625,0
1776973194.606,11.4634,-3.1125,-0.158,-0.6201,-0.5193,-0.87,-91.35,-33.9,6.45,9.742,-3.7134,2.0997,-2.3633,0.1311,-0.2196,-83.25,0.15,-30.9,-2.72,-2.35,-9.96,1.813,0.4385,2.0966,2.875,6.75,62.375,201.3125,-25.625,161.5625,0
1776973194.616,11.88,-3.304,0.6273,-0.8535,-0.5955,-0.7365,-91.35,-33.9,6.45,9.5289,-3.869,1.7813,-2.5913,0.0783,-0.3936,-83.4,1.95,-31.35,-4.75,-2.43,-10.06,2.0966,0.576,2.3715,2.875,6.75,62.375,203.0,-25.75,161.0625,0
1776973194.621,11.4179,-1.2857,1.312,-0.7493,-1.1658,-0.4317,-96.45,-34.95,6.9,9.3925,-4.3886,1.6592,-2.8919,0.0402,-0.5231,-83.4,1.95,-31.35,-4.75,-2.43,-10.06,2.0966,0.576,2.3715,2.875,6.75,62.375,203.0,-25.75,161.0625,0
1776973194.626,11.4179,-1.2857,1.312,-0.7493,-1.1658,-0.4317,-96.45,-34.95,6.9,9.3925,-4.3886,1.6592,-2.8919,0.0402,-0.5231,-83.4,1.95,-31.35,-5.6,-1.15,-9.56,2.4118,0.7025,2.5689,2.5,8.25,62.375,204.75,-25.8125,160.4375,0
1776973194.631,10.228,-1.1923,-0.5459,-1.5817,-1.323,-0.457,-95.85,-34.5,7.35,9.1985,-5.4396,2.2913,-3.108,-0.0245,-0.6027,-83.4,1.95,-31.35,-5.6,-1.15,-9.56,2.4118,0.7025,2.5689,2.5,8.25,62.375,204.75,-25.8125,160.4375,0
1776973194.636,10.228,-1.1923,-0.5459,-1.5817,-1.323,-0.457,-95.85,-34.5,7.35,9.1985,-5.4396,2.2913,-3.108,-0.0245,-0.6027,-83.1,2.25,-32.1,-5.7,-0.22,-8.92,2.822,1.0112,2.7729,2.5,8.25,62.375,206.75,-25.8125,159.625,0
1776973194.641,9.1219,-1.7406,-1.1013,-2.2916,-1.2129,-0.4162,-94.5,-32.7,7.2,8.6574,-5.4779,3.1771,-3.3534,-0.0432,-0.6262,-83.1,2.25,-32.1,-5.7,-0.22,-8.92,3.1929,1.2992,3.3063,2.5,8.25,62.375,209.125,-25.8125,158.8125,0
1776973194.647,9.1219,-1.7406,-1.1013,-2.2916,-1.2129,-0.4162,-94.5,-32.7,7.2,8.6574,-5.4779,3.1771,-3.3534,-0.0432,-0.6262,-82.2,5.55,-30.15,-10.54,-3.7,-10.14,3.1929,1.2992,3.3063,2.5,8.25,62.375,211.8125,-25.75,158.3125,0
1776973194.656,8.9735,-1.8387,-0.4669,-2.654,-1.0661,-0.3437,-93.9,-31.2,9.0,8.9783,-4.786,3.5937,-3.6298,-0.0978,-0.6211,-83.85,6.6,-31.8,-9.79,-3.35,-10.39,2.9442,1.6515,3.8648,2.5,8.25,62.375,211.8125,-25.75,158.3125,0
1776973194.666,8.7029,-1.9058,-0.0407,-2.7659,-1.0501,-0.2649,-92.25,-30.75,9.15,9.5385,-3.9073,2.2003,-3.9988,-0.1799,-0.591,-83.1,6.9,-32.55,-7.65,-3.18,-10.54,2.4358,2.4446,4.0033,2.5,8.25,62.375,214.625,-25.3125,158.1875,0
1776973194.671,8.928,-1.9513,0.1963,-2.9132,-0.9529,-0.198,-92.25,-30.75,9.15,9.6989,-3.383,0.759,-4.289,-0.2497,-0.5788,-83.1,6.9,-32.55,-7.65,-3.18,-10.54,2.4358,2.4446,4.0033,2.5,8.25,62.375,214.625,-25.3125,158.1875,0
1776973194.676,8.928,-1.9513,0.1963,-2.9132,-0.9529,-0.198,-92.25,-30.75,9.15,9.6989,-3.383,0.759,-4.289,-0.2497,-0.5788,-83.25,9.15,-31.95,-4.51,-4.04,-7.71,2.0868,2.9965,3.843,3.5625,13.75,59.5625,217.3125,-24.5625,158.25,0
1776973194.68,8.9711,-1.9872,0.407,-2.9703,-0.8982,-0.1676,-93.0,-26.55,8.85,9.3925,-2.7869,0.2442,-4.2701,-0.2891,-0.5641,-83.25,9.15,-31.95,-4.51,-4.04,-7.71,2.0868,2.9965,3.843,3.5625,13.75,59.5625,217.3125,-24.5625,158.25,0
1776973194.685,8.9711,-1.9872,0.407,-2.9703,-0.8982,-0.1676,-93.0,-26.55,8.85,9.3925,-2.7869,0.2442,-4.2701,-0.2891,-0.5641,-83.25,9.15,-31.95,-3.93,-3.94,-6.96,1.7006,3.1154,3.5954,3.5625,13.75,59.5625,219.8125,-23.6875,158.4375,0
1776973194.69,8.825,-1.8076,0.3687,-2.9516,-0.8031,-0.1703,-92.4,-26.7,8.7,8.8753,-2.0566,0.0455,-4.062,-0.3288,-0.5593,-83.4,11.7,-31.8,-3.93,-3.94,-6.96,1.7006,3.1154,3.5954,3.5625,13.75,59.5625,222.125,-22.8125,158.75,0
1776973194.697,8.825,-1.8076,0.3687,-2.9516,-0.8031,-0.1703,-92.4,-26.7,8.7,8.6048,-1.3336,-0.2705,-3.7672,-0.3504,-0.5423,-83.4,11.7,-31.8,-3.83,-3.3,-6.82,1.2534,2.9529,3.3619,3.5625,13.75,59.5625,224.25,-22.0625,159.125,0
1776973194.707,8.3797,-1.6424,0.3783,-3.0792,-0.6574,-0.1793,-91.5,-24.75,8.1,8.6622,-0.6297,-0.8188,-3.4619,-0.3563,-0.5388,-82.65,12.9,-31.35,-4.01,-1.84,-6.96,0.913,2.6747,3.0969,3.5625,13.75,59.5625,224.25,-22.0625,159.125,0
1776973194.717,8.6574,-1.1756,0.2298,-3.0574,-0.5793,-0.1857,-91.05,-24.0,9.6,8.9184,-0.1484,-1.2641,-3.0702,-0.344,-0.5569,-82.65,12.9,-31.35,-3.86,-1.78,-6.99,0.793,2.4173,2.7729,3.5625,13.75,59.5625,226.125,-21.3125,159.4375,0
1776973194.721,8.5641,-0.6273,-0.261,-2.9777,-0.3136,-0.1724,-91.05,-24.0,9.6,8.9184,-0.1484,-1.2641,-3.0702,-0.344,-0.5569,-82.65,12.9,-31.35,-3.86,-1.78,-6.99,0.793,2.4173,2.7729,3.5625,13.75,59.5625,227.75,-20.6875,159.625,0
1776973194.727,8.5641,-0.6273,-0.261,-2.9777,-0.3136,-0.1724,-91.05,-24.0,9.6,9.1578,0.2969,-1.2115,-2.6244,-0.3315,-0.5732,-82.95,14.25,-30.15,-3.78,-1.93,-6.92,0.8214,2.186,2.426,-2.25,17.75,60.75,227.75,-20.6875,159.625,0
1776973194.731,8.7915,0.0287,-0.7781,-2.8615,-0.2017,-0.133,-90.0,-21.0,8.85,9.1578,0.2969,-1.2115,-2.6244,-0.3315,-0.5732,-82.95,14.25,-30.15,-3.78,-1.93,-6.92,0.8214,2.186,2.426,-2.25,17.75,60.75,229.1875,-20.0625,159.6875,0
1776973194.737,8.7915,0.0287,-0.7781,-2.6572,-0.1639,-0.1162,-90.0,-21.0,8.85,9.2536,0.3879,-1.4605,-2.2548,-0.2934,-0.5561,-83.7,16.5,-30.45,-3.74,-1.79,-6.97,0.8508,1.9493,2.15,-2.25,17.75,60.75,229.1875,-20.0625,159.6875,0
1776973194.741,8.7867,0.8188,-1.4341,-2.6572,-0.1639,-0.1162,-91.5,-19.8,8.85,9.2536,0.3879,-1.4605,-2.2548,-0.2934,-0.5561,-83.7,16.5,-30.45,-3.74,-1.79,-6.97,0.8323,1.7104,1.97,-2.25,17.75,60.75,230.5625,-19.5625,159.75,0
1776973194.747,8.9256,1.4605,-1.798,-2.4283,-0.1476,-0.1207,-90.6,-17.4,9.75,9.1842,-0.0359,-1.6759,-1.8956,-0.259,-0.518,-83.1,18.3,-31.05,-3.96,-0.82,-7.42,0.8323,1.7104,1.97,-2.25,17.75,60.75,231.8125,-19.125,159.75,0
1776973194.757,8.9184,1.8507,-1.7885,-2.1799,-0.1609,-0.1442,-89.25,-16.8,9.6,9.0932,-0.9792,-1.8028,-1.5985,-0.2483,-0.4727,-82.5,17.4,-31.65,-4.15,-0.56,-7.7,0.817,1.4933,1.861,-2.25,17.75,60.75,233.0,-18.8125,159.6875,0
1776973194.767,9.0764,2.162,-1.834,-1.971,-0.1617,-0.1599,-89.25,-15.0,11.4,8.9926,-1.7597,-1.4317,-1.3864,-0.2435,-0.4165,-82.5,17.4,-31.65,-4.53,-0.47,-8.13,0.8236,1.3101,1.7791,-2.25,17.75,60.75,233.0,-18.8125,159.6875,0
1776973194.772,9.0764,2.162,-1.834,-1.971,-0.1617,-0.1599,-89.25,-15.0,11.4,8.9926,-1.7597,-1.4317,-1.3864,-0.2435,-0.4165,-82.5,17.4,-31.65,-4.53,-0.47,-8.13,0.8236,1.3101,1.7791,-2.25,17.75,60.75,233.0,-18.8125,159.6875,0
1776973194.777,9.6798,2.5402,-1.6041,-1.7493,-0.2497,-0.1516,-89.25,-15.0,11.4,9.0022,-2.2577,-1.2641,-1.3547,-0.2435,-0.3395,-82.35,19.5,-31.05,-5.27,-0.38,-8.66,0.8312,1.1825,1.7071,-7.25,18.875,60.25,234.125,-18.5,159.5625,0
1776973194.782,9.6798,2.5402,-1.6041,-1.7493,-0.2497,-0.1516,-89.25,-15.0,11.4,9.0022,-2.2577,-1.2641,-1.3547,-0.2435,-0.3395,-82.35,19.5,-31.05,-5.27,-0.38,-8.66,0.8312,1.1825,1.7071,-7.25,18.875,60.25,234.125,-18.5,159.5625,0
1776973194.787,9.3781,2.794,-1.1971,-1.4914,-0.3483,-0.1428,-91.8,-13.8,12.75,9.0285,-2.8036,-1.3001,-1.4631,-0.2475,-0.2619,-82.35,19.5,-31.05,-5.29,-0.26,-8.7,0.8181,1.1257,1.6482,-7.25,18.875,60.25,235.25,-18.25,159.5,0
1776973194.795,9.4906,2.8922,-0.7518,-1.2729,-0.3283,-0.1423,-91.8,-13.8,12.75,9.0046,-3.0789,-1.2737,-1.6486,-0.2518,-0.1929,-82.35,19.5,-31.05,-5.16,-0.13,-8.61,0.7821,1.1268,1.6177,-7.25,18.875,60.25,236.3125,-18.0,159.375,0
1776973194.8,9.4906,2.8922,-0.7518,-1.2729,-0.3283,-0.1423,-91.65,-12.45,13.95,9.0046,-3.0789,-1.2737,-1.6486,-0.2518,-0.1929,-80.25,17.4,-30.15,-5.16,-0.13,-8.61,0.7821,1.1268,1.6177,-7.25,18.875,60.25,237.375,-17.6875,159.3125,0
1776973194.807,9.4308,2.7988,-0.4549,-1.0419,-0.2963,-0.1516,-94.2,-13.2,14.7,8.9783,-3.1532,-1.0534,-1.8647,-0.2603,-0.1402,-82.2,19.65,-30.45,-4.87,0.09,-8.22,0.7276,1.1323,1.6199,-7.25,18.875,60.25,238.5,-17.4375,159.3125,0
1776973194.817,9.6055,3.1364,-0.2514,-0.8231,-0.3472,-0.1689,-95.1,-13.5,15.3,8.928,-2.9999,-1.0343,-2.1237,-0.2587,-0.1098,-81.6,20.25,-29.85,-4.9,0.11,-8.21,0.6632,1.1192,1.6712,-7.25,18.875,60.25,238.5,-17.4375,159.3125,0
1776973194.822,9.6055,3.1364,-0.2514,-0.8231,-0.3472,-0.1689,-95.1,-13.5,15.3,8.8921,-2.5474,-0.9457,-2.355,-0.2393,-0.0818,-81.6,20.25,-29.85,-4.9,0.11,-8.21,0.6632,1.1192,1.6712,-8.6875,21.375,58.6875,239.625,-17.25,159.3125,0
1776973194.827,9.6438,3.371,-0.7566,-0.7005,-0.5977,-0.1396,-95.1,-13.5,15.3,8.8921,-2.5474,-0.9457,-2.355,-0.2393,-0.0818,-81.75,20.25,-29.85,-5.11,0.04,-8.25,0.6087,1.0799,1.7704,-8.6875,21.375,58.6875,239.625,-17.25,159.3125,0
1776973194.832,9.6438,3.371,-0.7566,-0.7005,-0.5977,-0.1396,-95.1,-13.5,15.3,8.995,-2.1572,-0.929,-2.5626,-0.1857,-0.044,-81.75,18.9,-28.95,-5.11,0.04,-8.25,0.6087,1.0799,1.7704,-8.6875,21.375,58.6875,240.8125,-17.0625,159.375,0
1776973194.837,9.7181,3.2585,-1.4102,-0.6368,-0.8391,-0.0552,-95.1,-13.5,15.3,8.995,-2.1572,-0.929,-2.5626,-0.1857,-0.044,-82.65,20.7,-29.25,-5.39,0.17,-8.32,0.577,1.045,1.9079,-8.6875,21.375,58.6875,240.8125,-17.0625,159.375,0
1776973194.844,9.347,3.043,-2.0853,-0.6147,-0.9241,0.0304,-95.1,-13.5,15.3,9.1842,-1.7837,-0.7805,-2.687,-0.1356,-0.0147,-82.65,20.7,-29.25,-5.76,0.03,-8.41,0.5912,1.045,2.0737,-8.6875,21.375,58.6875,242.125,-16.9375,159.4375,0
1776973194.848,9.347,3.043,-2.0853,-0.6147,-0.9241,0.0304,-97.05,-12.9,17.55,9.1842,-1.7837,-0.7805,-2.687,-0.1356,-0.0147,-81.3,23.55,-29.7,-5.76,0.03,-8.41,0.5912,1.045,2.0737,-8.6875,21.375,58.6875,243.5625,-16.8125,159.5,0
1776973194.857,9.1961,2.7701,-2.1452,-0.5119,-0.8703,0.1071,-96.9,-13.8,17.7,9.1626,-1.415,-0.577,-2.7616,-0.1005,0.0136,-81.3,23.55,-29.7,-5.78,-0.14,-8.26,0.6763,1.0865,2.258,-8.6875,21.375,58.6875,243.5625,-16.8125,159.5,0
1776973194.867,9.1602,2.545,-2.5211,-0.586,-0.8172,0.1388,-98.85,-12.15,16.5,9.2991,-0.9242,-0.5124,-2.8573,-0.0426,0.0546,-81.3,23.55,-29.7,-5.7,-0.3,-8.07,0.7941,1.1465,2.4609,-8.6875,21.375,58.6875,245.125,-16.6875,159.5,0
1776973194.872,9.1602,2.545,-2.5211,-0.586,-0.8172,0.1388,-98.85,-12.15,16.5,9.4906,-0.5531,-0.577,-2.9404,0.0109,0.0914,-83.1,23.85,-27.75,-5.7,-0.3,-8.07,0.7941,1.1465,2.4609,-8.6875,21.375,58.6875,245.125,-16.6875,159.5,0
1776973194.877,9.2344,2.2027,-3.2178,-0.8655,-0.6832,0.1106,-96.9,-14.55,16.35,9.4906,-0.5531,-0.577,-2.9404,0.0109,0.0914,-83.1,23.85,-27.75,-5.58,-0.99,-7.79,0.9163,1.1934,2.6638,-9.5625,22.75,58.1875,246.75,-16.5625,159.5,0
1776973194.882,9.2344,2.2027,-3.2178,-1.0853,-0.6305,0.0839,-96.9,-14.55,16.35,9.7109,-0.2251,-0.3208,-3.0177,0.0448,0.1279,-82.5,22.05,-28.2,-5.58,-0.99,-7.79,0.9163,1.1934,2.6638,-9.5625,22.75,58.1875,246.75,-16.5625,159.5,0
1776973194.887,9.1866,1.6616,-3.5099,-1.0853,-0.6305,0.0839,-96.9,-14.55,16.35,9.7109,-0.2251,-0.3208,-3.0177,0.0448,0.1279,-82.5,22.05,-28.2,-5.68,-1.43,-7.88,1.0221,1.2141,2.8602,-9.5625,22.75,58.1875,248.5625,-16.5,159.4375,0
1776973194.894,6.6511,0.4549,-3.1532,-1.3249,-0.4874,0.064,-96.9,-14.55,16.35,9.8857,0.237,-0.0263,-3.0169,0.0725,0.1777,-81.15,24.15,-28.05,-5.65,-1.79,-7.94,1.0963,1.2043,3.0281,-9.5625,22.75,58.1875,250.4375,-16.5,159.375,0
1776973194.899,6.6511,0.4549,-3.1532,-1.3249,-0.4874,0.064,-97.5,-12.15,16.5,9.9766,0.6704,0.2035,-3.0481,0.0893,0.2278,-81.0,25.2,-27.15,-5.65,-1.79,-7.94,1.0963,1.2043,3.0281,-9.5625,22.75,58.1875,252.4375,-16.5,159.3125,0
1776973194.907,10.3501,0.8188,-3.3998,-1.4845,-0.4682,0.0546,-99.9,-12.3,15.9,9.9766,0.6704,0.2035,-3.0481,0.0893,0.2278,-81.0,25.2,-27.15,-5.36,-2.17,-7.96,1.1301,1.1825,3.1623,-9.5625,22.75,58.1875,254.4375,-16.5,159.25,0
1776973194.917,9.3996,0.3232,-3.0526,-1.8162,-0.5156,0.0565,-97.35,-12.0,14.25,9.9096,1.6831,0.8308,-3.0025,0.0357,0.2803,-81.0,25.5,-25.35,-4.54,-2.65,-8.53,1.105,1.1388,3.2507,-9.5625,22.75,58.1875,254.4375,-16.5,159.25,0
1776973194.922,9.2943,-1.0487,-1.8914,-1.939,-0.6824,0.1037,-97.35,-12.0,14.25,9.9096,1.6831,0.8308,-2.8906,-0.0338,0.3075,-81.9,25.8,-24.3,-4.54,-2.65,-8.53,1.105,1.1388,3.2507,-9.5625,22.75,58.1875,254.4375,-16.5,159.25,0
1776973194.927,9.2943,-1.0487,-1.8914,-1.939,-0.6824,0.1037,-98.4,-11.55,14.55,9.1985,2.1739,0.3591,-2.8906,-0.0338,0.3075,-81.9,25.8,-24.3,-3.98,-2.96,-8.83,1.0341,1.0777,3.2932,-8.6875,25.0625,57.75,256.4375,-16.625,159.25,0
1776973194.933,8.6287,-1.7382,-2.1237,-1.951,-0.5684,0.0613,-98.4,-11.55,14.55,9.1985,2.1739,0.3591,-2.7003,-0.085,0.3645,-81.9,25.8,-24.3,-3.98,-2.96,-8.83,1.0341,1.0777,3.2932,-8.6875,25.0625,57.75,258.4375,-16.75,159.3125,0
1776973194.938,8.6287,-1.7382,-2.1237,-1.951,-0.5684,0.0613,-97.8,-9.45,15.45,8.4659,0.5387,-3.4022,-2.7592,-0.0067,0.3898,-81.9,25.8,-24.3,-3.68,-3.53,-8.93,0.9392,1.0254,3.2725,-8.6875,25.0625,57.75,258.4375,-16.75,159.3125,0
1776973194.945,8.5712,-1.573,-1.4533,-1.8551,-0.2561,0.057,-97.8,-9.45,15.45,8.4659,0.5387,-3.4022,-2.7592,-0.0067,0.3898,-82.65,24.15,-24.3,-3.54,-8.21,-7.42,0.7941,1.0014,3.1852,-8.6875,25.0625,57.75,260.375,-16.8125,159.375,0
1776973194.95,9.0525,-1.494,-0.668,-1.8937,-0.1692,0.105,-97.8,-9.45,15.45,8.7053,-0.7494,-1.1756,-2.104,0.0943,0.2819,-82.65,24.15,-24.3,-3.54,-8.21,-7.42,0.7941,1.0014,3.1852,-8.6875,25.0625,57.75,262.1875,-16.875,159.6875,0
1776973194.958,9.0525,-1.494,-0.668,-1.8937,-0.1692,0.105,-97.95,-9.75,14.85,8.2839,-0.8906,0.9337,-2.023,0.0733,0.1572,-82.65,24.15,-24.3,-2.82,-8.83,-7.37,0.4854,1.0788,3.0511,-8.6875,25.0625,57.75,263.9375,-16.8125,160.25,0
1776973194.967,9.5361,-1.4126,-0.5914,-2.0901,-0.4197,0.1753,-95.25,-7.65,13.65,8.8633,-0.5387,0.4046,-2.3225,0.093,0.0378,-82.2,25.2,-23.4,-2.4,-6.94,-7.51,-0.048,1.1377,2.9245,-8.6875,25.0625,57.75,263.9375,-16.8125,160.25,0
1776973194.972,9.4188,-1.2665,-0.2682,-2.3481,-0.5073,0.1636,-95.25,-7.65,13.65,8.8633,-0.5387,0.4046,-2.3225,0.093,0.0378,-82.35,26.1,-23.7,-2.4,-6.94,-7.51,-0.048,1.1377,2.9245,-8.6875,25.0625,57.75,265.5,-16.75,160.9375,0
1776973194.977,9.4188,-1.2665,-0.2682,-2.3481,-0.5073,0.1636,-96.15,-6.0,13.5,9.4619,-0.0694,-0.6823,-2.481,0.0272,-0.0498,-82.35,26.1,-23.7,-1.44,-3.58,-7.35,-0.3785,1.0865,2.7369,-6.375,28.0625,54.5625,265.5,-16.75,160.9375,0
1776973194.982,9.481,-0.51,-0.249,-2.6588,-0.372,0.1607,-95.1,-5.55,13.5,9.4619,-0.0694,-0.6823,-2.481,0.0272,-0.0498,-83.4,26.55,-22.5,-1.44,-3.58,-7.35,-0.3785,1.0865,2.7369,-6.375,28.0625,54.5625,266.9375,-16.6875,161.5,0
1776973194.987,9.481,-0.51,-0.249,-2.6588,-0.372,0.1607,-95.1,-5.55,12.75,9.6917,0.3855,-0.5076,-2.5074,-0.0208,-0.114,-83.4,26.55,-22.5,-1.15,-3.37,-7.14,-0.2127,0.9927,2.4685,-6.375,28.0625,54.5625,266.9375,-16.6875,161.5,0
1776973194.995,9.3972,0.6464,-0.3472,-2.6846,-0.3637,0.2105,-95.1,-5.55,12.75,9.5696,0.5986,-0.0982,-2.4157,-0.0211,-0.1785,-81.75,27.15,-20.85,-1.14,-3.71,-7.22,0.2487,0.8956,2.2144,-6.375,28.0625,54.5625,268.3125,-16.5625,161.75,0
1776973195.0,10.4172,1.4078,-1.0056,-2.8381,-0.4762,0.2798,-95.1,-5.55,12.75,9.5696,0.5986,-0.0982,-2.4157,-0.0211,-0.1785,-81.75,28.35,-21.15,-1.14,-3.71,-7.22,0.2487,0.8956,2.2144,-6.375,28.0625,54.5625,269.5625,-16.5,161.75,0
1776973195.008,10.4028,2.2865,-1.1468,-2.8245,-0.6206,0.3336,-95.4,-2.55,12.0,9.3182,0.7063,-0.0215,-2.2644,-0.0288,-0.2153,-81.75,28.35,-21.15,-1.5,-4.0,-7.51,0.6981,0.8105,2.0737,-6.375,28.0625,54.5625,270.875,-16.5,161.5625,0
1776973195.018,9.177,3.4955,-1.6807,-2.8312,-0.5929,0.4639,-95.1,0.0,10.95,9.3206,0.8045,0.1939,-2.2218,-0.0285,-0.2523,-81.9,28.5,-19.95,-2.38,-3.87,-8.32,0.9872,0.7429,2.0497,-6.375,28.0625,54.5625,270.875,-16.5,161.5625,0
