timestamp,thigh_acc_x,thigh_acc_y,thigh_acc_z,thigh_gyro_x,thigh_gyro_y,thigh_gyro_z,thigh_mag_x,thigh_mag_y,thigh_mag_z,shank_acc_x,shank_acc_y,shank_acc_z,shank_gyro_x,shank_gyro_y,shank_gyro_z,shank_mag_x,shank_mag_y,shank_mag_z,foot_acc_x,foot_acc_y,foot_acc_z,foot_gyro_x,foot_gyro_y,foot_gyro_z,foot_mag_x,foot_mag_y,foot_mag_z,foot_euler_x,foot_euler_y,foot_euler_z,perturbation_event
1776970497.31,8.9735,-0.7087,-0.3998,1.4903,1.4663,0.5321,-33.75,15.3,12.45,7.9583,-4.0606,0.7542,1.7645,0.356,1.1415,-77.7,-16.35,-22.2,7.53,0.06,-6.12,1.0843,1.8828,-0.0905,-5.1875,6.5625,51.75,330.3125,17.9375,-179.5,0
1776970497.315,8.7101,-0.7278,-0.5339,1.4312,1.4986,0.574,-34.5,15.75,13.05,7.3981,-3.9911,0.17,1.792,0.4365,1.2111,-77.7,-16.35,-22.2,8.93,-0.47,-6.73,1.1628,1.8642,-0.444,-7.875,6.5625,53.1875,329.9375,18.9375,179.875,0
1776970497.32,8.7101,-0.7278,-0.5339,1.4312,1.4986,0.574,-34.5,15.75,13.05,7.3981,-3.9911,0.17,1.792,0.4365,1.2111,-78.45,-17.55,-21.45,8.93,-0.47,-6.73,1.1628,1.8642,-0.444,-7.875,6.5625,53.1875,329.9375,18.9375,179.875,0
1776970497.325,8.3582,-0.9553,-0.2993,1.4266,1.6859,0.6134,-34.5,15.75,13.05,7.1491,-4.0821,0.2083,1.8591,0.5462,1.2569,-78.45,-17.55,-21.45,9.49,-0.73,-6.94,1.1868,1.8031,-0.8039,-7.875,6.5625,53.1875,329.375,19.9375,179.375,0
1776970497.331,8.3582,-0.9553,-0.2993,1.4266,1.6859,0.6134,-34.5,15.75,13.05,7.1491,-4.0821,0.2083,1.8591,0.5462,1.2569,-78.9,-18.75,-21.0,9.49,-0.73,-6.94,1.1988,1.6592,-1.1465,-7.875,6.5625,53.1875,328.625,20.875,178.9375,0
1776970497.336,8.2049,-0.4118,-0.4621,1.3835,1.8575,0.724,-34.5,15.75,13.05,7.2856,-3.4477,0.3424,1.9025,0.7242,1.356,-78.9,-18.75,-21.0,10.27,-1.07,-7.31,1.1988,1.6592,-1.1465,-7.875,6.5625,53.1875,327.6875,21.6875,178.625,0
1776970497.346,10.9535,2.7438,1.561,1.5268,1.9694,0.7674,-36.0,12.9,15.0,7.9009,-3.0119,1.7861,1.9633,0.9126,1.4807,-78.9,-18.75,-21.0,11.47,-1.62,-8.0,1.1945,1.4879,-1.429,-7.875,6.5625,53.1875,326.6875,22.4375,178.3125,0
1776970497.356,16.0172,10.0149,-3.9121,-0.0234,2.0859,0.3611,-35.7,12.15,16.2,12.9981,-0.6608,3.2753,1.8018,1.5036,0.8769,-78.9,-20.25,-18.75,-16.35,14.48,-28.73,1.1476,1.2588,-1.6493,-7.875,6.5625,53.1875,326.6875,22.4375,178.3125,0
1776970497.36,16.0172,10.0149,-3.9121,-0.0234,2.0859,0.3611,-35.7,12.15,16.2,12.9981,-0.6608,3.2753,1.8018,1.5036,0.8769,-78.9,-20.25,-18.75,-16.35,14.48,-28.73,1.1476,1.2588,-1.6493,-13.5,5.875,54.0625,325.6875,23.1875,177.9375,0
1776970497.366,24.2413,6.79,-18.5551,-1.5527,0.6739,-0.6086,-36.75,12.9,17.25,21.0857,-5.0087,-5.387,0.7938,1.7949,-0.389,-78.9,-20.25,-18.75,1.47,11.02,-22.8,1.3068,1.3166,-1.5686,-13.5,5.875,54.0625,325.6875,23.1875,177.9375,0
1776970497.371,24.2413,6.79,-18.5551,-1.5527,0.6739,-0.6086,-36.75,12.9,17.25,21.0857,-5.0087,-5.387,0.7938,1.7949,-0.389,-77.4,-20.25,-18.45,1.47,11.02,-22.8,1.3068,1.3166,-1.5686,-13.5,5.875,54.0625,326.0,25.375,176.875,0
1776970497.376,22.4959,-0.9505,-11.248,1.8714,-1.2438,-1.4666,-35.1,15.0,17.4,26.5685,-8.8609,-7.7476,0.7424,-0.3595,-1.3334,-77.4,-20.25,-18.45,-6.85,2.23,-31.72,1.5283,4.0219,0.8574,-13.5,5.875,54.0625,326.0,25.375,176.875,0
1776970497.385,15.0811,-1.9273,-0.7446,5.0673,-0.6603,-1.5055,-35.1,15.0,17.4,16.2973,-6.9408,-4.5657,2.5053,-3.1499,-0.927,-78.3,-19.35,-18.3,12.12,-25.43,-3.94,1.657,2.7249,0.9817,-13.5,5.875,54.0625,326.375,26.875,175.625,0
1776970497.395,13.5009,-6.4093,-1.0343,4.5123,0.8447,-1.1799,-34.95,14.4,16.2,10.6829,-5.7126,-4.0582,2.9625,-1.3339,-0.4719,-78.3,-18.9,-19.35,18.46,-10.79,-7.8,2.0137,2.5264,0.3665,-13.5,5.875,54.0625,326.375,28.25,174.3125,0
1776970497.403,12.7683,-6.0861,-5.0398,2.4805,1.0051,-0.644,-34.95,14.4,16.2,11.054,-8.4084,-4.549,3.076,-0.1412,-0.029,-79.35,-19.95,-17.7,16.25,-2.34,-10.81,1.1705,3.519,0.4003,-13.5,5.875,54.0625,326.5,30.1875,173.4375,0
1776970497.408,12.7683,-6.0861,-5.0398,2.4805,1.0051,-0.644,-34.8,13.8,16.65,11.054,-8.4084,-4.549,3.076,-0.1412,-0.029,-79.35,-19.95,-17.7,16.25,-2.34,-10.81,1.1705,3.519,0.4003,-13.5,5.875,54.0625,326.5,30.1875,173.4375,0
1776970497.412,10.4387,-8.0469,-0.7566,0.1524,0.7677,-0.2454,-34.8,13.8,16.65,8.0948,-10.5608,-1.1779,1.7166,0.3981,0.2641,-78.75,-19.35,-20.1,7.24,-6.54,-9.99,0.3665,1.5762,0.1811,-20.5625,4.75,54.875,326.625,31.0,173.125,0
1776970497.417,10.4387,-8.0469,-0.7566,0.1524,0.7677,-0.2454,-34.2,15.15,17.55,8.0948,-10.5608,-1.1779,1.7166,0.3981,0.2641,-78.75,-19.35,-20.1,7.24,-6.54,-9.99,0.3665,1.5762,0.1811,-20.5625,4.75,54.875,326.625,31.0,173.125,0
1776970497.422,7.8051,1.652,-5.6671,-1.1954,1.0056,0.1519,-34.2,15.15,17.55,8.5665,-3.8403,-2.4876,0.433,1.8815,0.4205,-77.7,-19.95,-18.0,7.24,-6.54,-9.99,0.4396,-0.228,0.0273,-20.5625,4.75,54.875,326.5625,30.875,172.875,0
1776970497.427,7.8051,1.652,-5.6671,-1.1954,1.0056,0.1519,-35.1,14.25,17.4,8.5665,-3.8403,-2.4876,0.433,1.8815,0.4205,-77.7,-19.95,-18.0,7.57,-1.71,-9.68,0.4396,-0.228,0.0273,-20.5625,4.75,54.875,326.4375,31.125,172.9375,0
1776970497.436,5.545,4.9991,-2.9544,-1.8695,1.2255,0.5798,-34.65,15.9,19.35,8.9519,2.7246,1.0702,-0.7711,1.8698,0.4996,-77.7,-19.95,-18.0,5.67,1.63,-8.09,0.0033,0.3512,-0.2323,-20.5625,4.75,54.875,326.3125,31.1875,173.0625,0
1776970497.446,7.3478,7.3981,-4.7166,-1.4397,1.3384,0.999,-34.65,15.9,19.35,10.1442,4.5873,-0.4693,-0.5337,1.3808,0.7725,-78.0,-20.4,-17.55,4.26,1.25,-7.64,-0.0491,0.1047,-0.2727,-20.5625,4.75,54.875,326.3125,31.1875,173.0625,0
1776970497.456,8.7819,9.6606,-7.4148,-0.3912,1.2462,1.1375,-36.45,12.9,18.6,12.8066,6.2537,-3.2705,-0.1535,0.8942,1.0864,-78.0,-20.4,-17.55,3.86,1.38,-8.05,-0.2345,0.1374,-0.2618,-20.5625,4.75,54.875,326.1875,31.25,173.25,0
1776970497.461,5.9759,11.2097,-8.1499,0.8524,1.0581,0.4732,-36.45,12.9,18.6,10.0652,6.9599,-5.3654,0.9537,0.2278,0.878,-78.15,-21.0,-16.65,3.86,1.38,-8.05,-0.2345,0.1374,-0.2618,-20.5625,4.75,54.875,326.1875,31.25,173.25,0
1776970497.466,5.9759,11.2097,-8.1499,0.8524,1.0581,0.4732,-35.4,14.7,19.35,10.0652,6.9599,-5.3654,0.9537,0.2278,0.878,-78.15,-21.0,-16.65,3.86,0.08,-7.73,-0.3862,0.5181,-0.1822,-25.0,6.5,53.5625,326.1875,31.5625,173.5,0
1776970497.471,5.4157,9.3087,-5.0015,1.7277,1.076,-0.065,-35.4,14.7,19.35,7.9416,7.5896,-3.1819,1.7637,-0.1146,0.5774,-78.15,-21.0,-16.65,3.86,0.08,-7.73,-0.3862,0.5181,-0.1822,-25.0,6.5,53.5625,326.1875,31.5625,173.5,0
1776970497.476,5.4157,9.3087,-5.0015,1.7277,1.076,-0.065,-35.1,12.75,18.15,7.9416,7.5896,-3.1819,1.7637,-0.1146,0.5774,-78.15,-21.0,-16.65,3.16,-2.21,-7.82,-0.288,0.4265,-0.1233,-25.0,6.5,53.5625,326.1875,31.8125,173.6875,0
1776970497.484,6.0071,4.8866,-1.1827,1.9084,1.263,-0.234,-33.9,13.65,21.15,7.6734,5.2768,-0.146,1.9169,0.2641,0.5119,-76.5,-22.05,-15.3,2.96,-0.02,-7.76,-0.2803,0.6163,-0.0774,-25.0,6.5,53.5625,326.1875,32.1875,173.875,0
1776970497.489,6.0071,4.8866,-1.1827,1.2697,1.1906,-0.1617,-33.9,13.65,21.15,7.0461,-2.4684,2.8204,1.5228,0.4413,0.5804,-76.5,-22.05,-15.3,2.96,-0.02,-7.76,-0.2803,0.6163,-0.0774,-25.0,6.5,53.5625,326.3125,32.75,174.0,0
1776970497.496,8.6574,-0.0311,0.4764,1.2697,1.1906,-0.1617,-36.0,12.9,18.3,7.0461,-2.4684,2.8204,1.5228,0.4413,0.5804,-76.8,-22.5,-14.85,4.02,1.58,-7.32,-0.3731,1.0494,0.0447,-25.0,6.5,53.5625,326.4375,33.375,174.0625,0
1776970497.506,10.9487,-3.5961,1.4629,0.4604,1.068,-0.0653,-36.0,12.9,18.3,8.5042,-7.3765,2.9497,0.4378,0.7754,0.4309,-76.5,-23.25,-14.55,4.31,0.92,-6.95,-0.2291,1.1781,0.1516,-25.0,6.5,53.5625,326.4375,33.375,174.0625,0
1776970497.511,11.7771,-3.0957,2.2146,-0.2697,1.0078,0.0642,-36.0,12.9,18.3,8.7484,-8.7532,2.8491,-0.3491,0.9371,0.4181,-77.4,-21.9,-14.7,4.31,0.92,-6.95,-0.2291,1.1781,0.1516,-25.0,4.875,53.0625,326.625,34.1875,173.875,0
1776970497.516,11.7771,-3.0957,2.2146,-0.2697,1.0078,0.0642,-35.55,12.3,21.6,9.4763,-7.1946,3.0574,-0.3491,0.9371,0.4181,-77.4,-21.9,-14.7,7.54,-1.21,-9.25,0.0273,1.441,0.2563,-25.0,4.875,53.0625,326.625,34.1875,173.875,0
1776970497.521,11.9734,-1.8818,2.3128,-0.8356,0.9363,0.1919,-35.55,12.3,21.6,9.4763,-7.1946,3.0574,-0.4247,1.0376,0.4165,-76.5,-21.6,-14.85,7.54,-1.21,-9.25,0.0273,1.441,0.2563,-25.0,4.875,53.0625,326.8125,35.0625,173.5625,0
1776970497.526,11.9734,-1.8818,2.3128,-0.8356,0.9363,0.1919,-37.05,13.5,22.35,9.0597,-6.5697,3.1268,-0.4247,1.0376,0.4165,-76.5,-21.6,-14.85,8.74,-2.23,-9.69,0.1974,1.7028,0.2782,-25.0,4.875,53.0625,326.8125,35.0625,173.5625,0
1776970497.531,11.5664,0.2586,2.0758,-1.0824,0.9435,0.292,-36.0,12.45,22.2,9.0597,-6.5697,3.1268,-0.785,1.6284,0.4389,-75.15,-22.95,-14.4,8.74,-2.23,-9.69,0.336,1.2457,0.1582,-25.0,4.875,53.0625,326.875,35.75,173.3125,0
1776970497.537,11.5664,0.2586,2.0758,-1.0824,0.9435,0.292,-36.0,12.45,22.2,10.8457,-2.9497,4.0797,-0.55,1.5644,0.49,-75.15,-22.95,-14.4,8.58,-4.44,-9.87,0.336,1.2457,0.1582,-25.0,4.875,53.0625,326.8125,36.125,173.0625,0
1776970497.546,11.0277,2.5881,0.826,-1.1064,0.915,0.3917,-36.6,12.0,22.05,10.6183,-1.2402,4.2377,-0.4269,1.1652,0.4714,-75.15,-22.95,-14.4,7.35,-0.97,-8.55,0.3469,0.6796,0.0262,-25.0,4.875,53.0625,326.8125,36.1875,172.8125,0
1776970497.556,9.7492,4.2449,0.6776,-0.732,0.7866,0.4178,-36.0,10.95,22.5,9.6678,0.4405,3.3447,-0.0472,0.6837,0.4599,-76.8,-23.25,-13.05,6.25,-1.13,-7.48,0.408,0.1167,0.0753,-25.0,4.875,53.0625,326.8125,36.1875,172.8125,0
1776970497.561,8.6981,5.2481,0.2562,-0.3163,0.7237,0.4,-36.0,10.95,22.5,9.6678,0.4405,3.3447,-0.0472,0.6837,0.4599,-76.8,-23.25,-13.05,6.25,-1.13,-7.48,0.408,0.1167,0.0753,-25.0,4.875,53.0625,326.8125,36.3125,172.75,0
1776970497.566,8.6981,5.2481,0.2562,0.0093,0.6611,0.3968,-36.0,10.95,22.5,9.6917,1.4437,2.9616,0.1492,0.5127,0.4783,-76.8,-23.25,-13.05,5.59,-0.5,-8.18,0.048,0.2225,-0.0065,-30.0625,4.5625,52.5625,326.8125,36.3125,172.75,0
1776970497.571,8.4252,5.4971,-0.1341,0.0093,0.6611,0.3968,-36.45,13.2,22.5,9.6917,1.4437,2.9616,0.1492,0.5127,0.4783,-75.45,-23.4,-13.65,5.59,-0.5,-8.18,0.048,0.2225,-0.0065,-30.0625,4.5625,52.5625,326.8125,36.4375,172.6875,0
1776970497.576,8.8585,4.8028,-0.7494,0.2523,0.643,0.3914,-36.45,13.2,22.5,9.6103,1.1037,2.2625,0.3581,0.381,0.5351,-75.45,-23.4,-13.65,5.98,-0.18,-8.06,0.048,0.2225,-0.0065,-30.0625,4.5625,52.5625,326.8125,36.4375,172.6875,0
1776970497.586,9.3063,3.6799,-1.312,0.3416,0.6006,0.4109,-36.6,13.05,24.9,10.1849,0.3974,1.7885,0.5596,0.1905,0.5758,-76.65,-25.05,-12.45,5.44,-0.68,-7.8,-0.0785,0.1734,-0.0065,-30.0625,4.5625,52.5625,326.8125,36.5625,172.75,0
1776970497.595,9.5553,2.3439,-1.4222,0.2222,0.5966,0.4295,-34.5,11.55,25.95,9.8019,-1.3838,1.1013,0.2284,0.3432,0.6382,-75.9,-24.6,-12.45,5.61,-0.82,-7.89,-0.1669,0.1418,-0.0055,-30.0625,4.5625,52.5625,326.875,36.625,172.8125,0
1776970497.603,9.5553,2.3439,-1.4222,0.2222,0.5966,0.4295,-34.05,12.3,24.45,9.4044,-2.5977,1.5323,0.2284,0.3432,0.6382,-76.95,-25.05,-12.15,5.61,-0.86,-7.94,-0.2607,0.3578,0.0196,-30.0625,4.5625,52.5625,326.9375,36.8125,172.9375,0
1776970497.608,9.675,1.3623,-1.0056,-0.1271,0.5542,0.4578,-34.05,12.3,24.45,9.4044,-2.5977,1.5323,-0.0477,0.348,0.635,-76.95,-25.05,-12.15,5.61,-0.86,-7.94,-0.2607,0.3578,0.0196,-30.0625,4.5625,52.5625,326.9375,36.8125,172.9375,0
1776970497.613,9.675,1.3623,-1.0056,-0.1271,0.5542,0.4578,-34.05,12.3,24.45,8.7867,-3.7086,1.719,-0.0477,0.348,0.635,-75.3,-24.75,-11.55,5.6,-0.88,-8.01,-0.2105,0.3698,0.0393,-30.0625,4.875,52.0625,327.0,37.0,173.0,0
1776970497.618,9.5888,0.5578,-0.6009,-0.6123,0.4764,0.4596,-34.05,12.3,24.45,8.7867,-3.7086,1.719,-0.5953,0.5265,0.5329,-75.3,-24.75,-11.55,5.6,-0.88,-8.01,-0.2105,0.3698,0.0393,-30.0625,4.875,52.0625,327.0,37.0,173.0,0
1776970497.622,9.5888,0.5578,-0.6009,-0.6123,0.4764,0.4596,-34.05,12.3,24.45,8.7867,-3.699,1.7717,-0.5953,0.5265,0.5329,-75.6,-24.75,-13.05,5.74,-0.81,-8.0,-0.2105,0.3698,0.0393,-30.0625,4.875,52.0625,327.0625,37.1875,173.125,0
1776970497.627,9.7636,0.5507,-0.3376,-1.0136,0.4615,0.5076,-34.05,12.3,24.45,8.7867,-3.699,1.7717,-0.9651,0.6971,0.4495,-75.6,-24.75,-13.05,5.74,-0.81,-8.0,-0.2105,0.3698,0.0393,-30.0625,4.875,52.0625,327.0625,37.1875,173.125,0
1776970497.636,10.0772,0.5291,-0.1891,-1.2372,0.4567,0.5484,-35.85,12.0,25.95,9.3422,-3.9265,2.0255,-1.4346,0.6193,0.4802,-75.6,-25.95,-12.0,5.81,-0.83,-8.04,0.0251,0.2389,0.0425,-30.0625,4.875,52.0625,327.0625,37.3125,173.0625,0
1776970497.641,10.0772,0.5291,-0.1891,-1.2372,0.4567,0.5484,-35.85,9.3,26.25,9.2273,-3.6057,1.4748,-1.4346,0.6193,0.4802,-74.85,-24.45,-12.3,5.81,-0.83,-8.04,0.0884,0.1876,0.036,-30.0625,4.875,52.0625,327.125,37.4375,173.0,0
1776970497.647,9.809,0.3926,0.1987,-1.3584,0.4274,0.5652,-35.85,9.3,26.25,9.2273,-3.6057,1.4748,-1.4626,0.914,0.4796,-74.85,-24.45,-12.3,5.86,-0.99,-7.97,0.0884,0.1876,0.036,-30.0625,4.875,52.0625,327.125,37.5,172.9375,0
1776970497.656,9.4978,0.8499,0.0048,-1.3595,0.4463,0.5249,-34.95,10.95,25.05,8.0278,-3.6248,1.4796,-1.3318,0.9904,0.4378,-74.85,-24.45,-12.3,6.05,-0.95,-7.99,0.1134,0.1473,0.0251,-30.0625,4.875,52.0625,327.125,37.5,172.9375,0
1776970497.661,9.4978,0.8499,0.0048,-1.3595,0.4463,0.5249,-36.0,11.7,24.75,9.8402,-2.8826,2.478,-1.1106,0.7368,0.4335,-73.95,-26.1,-11.85,6.05,-0.95,-7.99,0.1134,0.1473,0.0251,-31.1875,4.75,52.0,327.0625,37.5625,172.8125,0
1776970497.667,10.0293,1.6424,-0.1556,-1.2343,0.4101,0.5193,-36.0,11.7,24.75,9.8402,-2.8826,2.478,-1.1106,0.7368,0.4335,-73.95,-26.1,-11.85,5.9,-1.06,-7.88,0.1244,0.0611,0.0229,-31.1875,4.75,52.0,327.0625,37.5625,172.8125,0
1776970497.671,10.0293,1.6424,-0.1556,-1.2343,0.4101,0.5193,-36.0,11.7,24.75,9.5816,-2.6049,1.743,-1.1088,0.6651,0.4687,-73.95,-26.1,-11.85,5.9,-1.06,-7.88,0.1244,0.0611,0.0229,-31.1875,4.75,52.0,327.0625,37.5625,172.75,0
1776970497.677,9.9383,1.6975,-0.2658,-1.0688,0.4029,0.5489,-36.0,11.7,24.75,9.5816,-2.6049,1.743,-1.1088,0.6651,0.4687,-73.95,-26.1,-11.85,5.84,-0.89,-7.72,0.1178,0.0764,0.0153,-31.1875,4.75,52.0,327.0625,37.5625,172.75,0
1776970497.681,9.9383,1.6975,-0.2658,-1.0688,0.4029,0.5489,-36.0,11.7,24.75,9.4786,-2.4732,1.3431,-0.9721,0.7059,0.4826,-74.55,-24.75,-12.3,5.84,-0.89,-7.72,0.1156,0.0469,0.0153,-31.1875,4.75,52.0,327.0625,37.625,172.6875,0
1776970497.687,9.6391,1.8555,-0.2873,-0.8681,0.4005,0.5327,-36.0,11.7,24.75,9.4786,-2.4732,1.3431,-0.9721,0.7059,0.4826,-74.55,-24.75,-12.3,6.0,-0.71,-7.74,0.1156,0.0469,0.0153,-31.1875,4.75,52.0,327.0625,37.625,172.6875,0
1776970497.696,8.904,2.624,-0.7326,-0.6243,0.36,0.4962,-34.05,9.75,26.25,12.2727,0.3687,6.6152,0.0773,0.1716,0.4149,-74.85,-26.4,-12.75,5.73,-0.69,-7.79,0.0589,0.0316,0.0273,-31.1875,4.75,52.0,327.0625,37.625,172.625,0
1776970497.702,9.675,1.5778,-0.237,-0.4714,0.458,0.4482,-34.95,10.95,26.1,8.0134,-3.0885,1.1372,-1.0813,0.7546,0.5287,-73.8,-26.4,-11.25,5.73,-0.69,-7.79,-0.0207,0.0676,0.0044,-31.1875,4.75,52.0,327.0625,37.625,172.6875,0
1776970497.707,9.675,1.5778,-0.237,-0.4714,0.458,0.4482,-34.95,10.95,26.1,8.0134,-3.0885,1.1372,-1.0813,0.7546,0.5287,-73.8,-26.4,-11.25,5.87,-0.83,-7.73,-0.0207,0.0676,0.0044,-31.1875,4.75,52.0,327.0625,37.625,172.6875,0
1776970497.712,9.2081,1.5969,-0.6488,-0.4002,0.3778,0.4165,-35.4,9.45,25.8,9.3996,-2.1979,0.7015,-0.2406,0.3706,0.4525,-73.8,-26.7,-12.3,5.87,-0.9,-7.8,-0.0589,0.0905,0.0022,-31.875,4.5,51.1875,327.0625,37.6875,172.6875,0
1776970497.717,9.2081,1.5969,-0.6488,-0.4002,0.3778,0.4165,-35.4,9.45,25.8,9.3996,-2.1979,0.7015,-0.2406,0.3706,0.4525,-73.8,-26.7,-12.3,5.87,-0.9,-7.8,-0.0589,0.0905,0.0022,-31.875,4.5,51.1875,327.0625,37.6875,172.6875,0
1776970497.722,9.4164,1.1325,-0.6177,-0.3613,0.3882,0.3773,-35.55,9.75,24.9,8.9208,-2.8467,1.0989,-0.3078,0.6134,0.4477,-74.85,-25.95,-11.55,5.87,-0.9,-7.8,-0.0709,0.084,0.0196,-31.875,4.5,51.1875,327.125,37.75,172.75,0
1776970497.727,9.4164,1.1325,-0.6177,-0.3613,0.3882,0.3773,-35.55,9.75,24.9,8.9208,-2.8467,1.0989,-0.3078,0.6134,0.4477,-74.85,-25.95,-11.55,5.7,-0.69,-7.78,-0.0709,0.084,0.0196,-31.875,4.5,51.1875,327.125,37.75,172.75,0
1776970497.732,9.4978,1.233,-0.7446,-0.3331,0.3736,0.3667,-35.55,9.75,24.9,9.3589,-2.7869,1.4916,-0.1444,0.1929,0.4341,-73.65,-26.1,-11.4,5.7,-0.69,-7.78,-0.0644,0.0916,0.0142,-31.875,4.5,51.1875,327.125,37.75,172.8125,0
1776970497.737,9.4978,1.233,-0.7446,-0.3331,0.3736,0.3667,-35.55,9.75,24.9,8.6862,-3.1244,1.3288,-0.1444,0.1929,0.4341,-73.65,-26.1,-11.4,5.92,-0.73,-7.74,-0.0644,0.0916,0.0142,-31.875,4.5,51.1875,327.125,37.75,172.8125,0
1776970497.746,9.584,1.1109,-0.6393,-0.3794,0.3387,0.3667,-33.3,8.55,26.25,8.6862,-3.1244,1.3288,-0.4391,0.2931,0.413,-73.65,-26.1,-11.4,5.89,-0.88,-7.71,-0.036,0.0884,0.0447,-31.875,4.5,51.1875,327.1875,37.8125,172.8125,0
1776970497.751,9.5241,1.1253,-0.7566,-0.4362,0.3224,0.3525,-34.95,9.9,26.4,9.0118,-3.201,1.1396,-0.4343,0.4517,0.3592,-73.65,-26.1,-11.4,5.89,-0.88,-7.71,0.0033,0.0949,0.0447,-31.875,4.5,51.1875,327.1875,37.875,172.75,0
1776970497.757,9.5241,1.1253,-0.7566,-0.4362,0.3224,0.3525,-34.65,9.45,25.8,9.1435,-2.7078,0.9266,-0.3656,0.4013,0.3435,-73.35,-27.15,-11.25,5.86,-0.74,-7.71,0.0033,0.0949,0.0447,-31.875,4.5,51.1875,327.1875,37.875,172.75,0
1776970497.762,9.4571,1.2426,-0.9122,-0.4309,0.3312,0.3379,-34.65,9.45,25.8,9.1435,-2.7078,0.9266,-0.3656,0.4013,0.3435,-73.35,-27.15,-11.25,5.86,-0.74,-7.71,0.0033,0.0949,0.0447,-30.75,4.75,51.1875,327.1875,37.875,172.75,0
1776970497.767,9.4571,1.2426,-0.9122,-0.4309,0.3312,0.3379,-34.8,8.25,27.75,9.2344,-2.6911,1.0032,-0.3667,0.332,0.3499,-73.35,-27.15,-11.25,5.93,-0.74,-7.64,0.0436,0.0884,0.0567,-30.75,4.75,51.1875,327.1875,37.875,172.75,0
1776970497.772,9.6199,1.0989,-1.0463,-0.4218,0.3616,0.3397,-34.8,8.25,27.75,9.2344,-2.6911,1.0032,-0.3667,0.332,0.3499,-74.4,-27.0,-11.85,5.93,-0.74,-7.64,0.0436,0.0884,0.0567,-30.75,4.75,51.1875,327.25,37.9375,172.6875,0
1776970497.777,9.6199,1.0989,-1.0463,-0.4218,0.3616,0.3397,-36.0,7.95,26.1,9.3733,-3.0071,0.7254,-0.4586,0.4231,0.3435,-74.4,-27.0,-11.85,5.68,-0.82,-7.75,0.0513,0.1113,0.0753,-30.75,4.75,51.1875,327.25,37.9375,172.6875,0
1776970497.782,9.7229,1.1229,-1.2282,-0.5057,0.3616,0.34,-36.0,7.95,26.1,9.3733,-3.0071,0.7254,-0.4586,0.4231,0.3435,-74.4,-27.0,-11.85,5.68,-0.82,-7.75,0.0698,0.1571,0.0698,-30.75,4.75,51.1875,327.25,38.0,172.625,0
1776970497.787,9.7229,1.1229,-1.2282,-0.5057,0.3616,0.34,-36.0,7.95,26.1,9.5313,-2.5929,0.5866,-0.3824,0.3928,0.3397,-74.4,-27.0,-11.85,5.57,-0.9,-7.77,0.0698,0.1571,0.0698,-30.75,4.75,51.1875,327.25,38.0,172.625,0
1776970497.796,9.5289,1.7071,-1.0894,-0.4647,0.3773,0.3405,-36.0,7.95,26.1,9.5624,-1.7861,0.7638,-0.2459,0.3949,0.3805,-73.65,-26.55,-11.85,5.91,-0.82,-7.84,0.0894,0.2258,0.0535,-30.75,4.75,51.1875,327.3125,38.125,172.5625,0
1776970497.801,9.4523,2.2098,-1.0008,-0.2899,0.4207,0.3637,-33.3,9.0,27.3,9.5624,-1.7861,0.7638,-0.2459,0.3949,0.3805,-73.65,-26.55,-11.85,5.91,-0.82,-7.84,0.0796,0.2596,0.0404,-30.75,4.75,51.1875,327.3125,38.25,172.5,0
1776970497.808,9.4523,2.2098,-1.0008,-0.2899,0.4207,0.3637,-33.6,8.4,26.1,9.5912,-1.5227,0.9888,-0.1007,0.3842,0.4442,-72.6,-25.5,-11.25,6.03,-0.81,-7.78,0.0796,0.2596,0.0404,-30.75,4.75,51.1875,327.3125,38.25,172.5,0
1776970497.812,9.3733,2.3487,-0.9744,-0.1362,0.473,0.3893,-33.6,8.4,26.1,9.5912,-1.5227,0.9888,-0.1007,0.3842,0.4442,-72.9,-26.55,-11.85,6.03,-0.81,-7.78,0.0873,0.2509,0.0142,-32.25,5.1875,50.25,327.3125,38.375,172.4375,0
1776970497.817,9.3733,2.3487,-0.9744,-0.1362,0.473,0.3893,-33.9,7.95,26.1,9.5002,-1.5754,1.0415,0.0341,0.3595,0.4988,-72.9,-26.55,-11.85,6.04,-0.86,-7.87,0.0873,0.2509,0.0142,-32.25,5.1875,50.25,327.3125,38.375,172.4375,0
1776970497.822,9.3613,2.3104,-0.8906,-0.0179,0.526,0.3896,-33.9,7.95,26.1,9.5002,-1.5754,1.0415,0.0341,0.3595,0.4988,-72.9,-26.55,-11.85,6.04,-0.86,-7.87,0.0644,0.2389,0.012,-32.25,5.1875,50.25,327.3125,38.5,172.375,0
1776970497.827,9.4739,2.1117,-0.5291,0.0706,0.5633,0.4,-34.5,7.5,28.5,9.4763,-1.7597,1.1732,0.1553,0.3328,0.53,-74.4,-27.3,-11.4,6.19,-0.73,-7.69,0.0644,0.2389,0.012,-32.25,5.1875,50.25,327.3125,38.5,172.375,0
1776970497.832,9.4739,2.1117,-0.5291,0.0706,0.5633,0.4,-34.5,7.5,28.5,9.4763,-1.7597,1.1732,0.1553,0.3328,0.53,-73.35,-27.9,-10.5,6.19,-0.73,-7.69,0.0305,0.228,0.012,-32.25,5.1875,50.25,327.3125,38.625,172.3125,0
1776970497.838,9.6319,2.138,-0.7685,0.0703,0.6097,0.4149,-34.5,8.25,26.7,9.7444,-1.7478,1.9513,0.2148,0.3896,0.5452,-73.35,-27.9,-10.5,6.08,-0.69,-7.78,0.0305,0.228,0.012,-32.25,5.1875,50.25,327.3125,38.75,172.3125,0
1776970497.847,9.3901,2.0207,-0.8595,0.0794,0.5641,0.4354,-34.5,8.25,26.7,9.5385,-1.9345,0.8763,0.1948,0.3472,0.5649,-72.0,-28.05,-11.1,6.1,-0.67,-7.75,0.0011,0.2116,0.0065,-32.25,5.1875,50.25,327.3125,38.8125,172.3125,0
1776970497.857,9.426,1.8172,-0.7374,-0.0051,0.5966,0.4812,-34.95,6.45,28.2,9.3254,-2.0518,1.5634,0.0911,0.3781,0.5969,-72.0,-28.05,-11.1,6.1,-0.61,-7.57,-0.0065,0.1953,0.0011,-32.25,5.1875,50.25,327.3125,38.8125,172.3125,0
1776970497.862,9.426,1.8172,-0.7374,-0.0051,0.5966,0.4812,-34.95,6.45,28.2,9.3254,-2.0518,1.5634,0.0911,0.3781,0.5969,-72.0,-28.05,-11.1,6.1,-0.61,-7.57,-0.0065,0.1953,0.0011,-32.25,5.1875,50.25,327.3125,38.8125,172.3125,0
1776970497.867,9.323,1.968,-0.5387,-0.0677,0.5766,0.5148,-34.2,6.45,27.9,9.3925,-2.241,1.3886,0.02,0.3848,0.6254,-71.85,-27.9,-10.05,6.0,-0.82,-7.71,0.0109,0.1756,0.0164,-32.1875,4.75,50.0,327.3125,38.9375,172.3125,0
1776970497.872,9.323,1.968,-0.5387,-0.0677,0.5766,0.5148,-34.2,6.45,27.9,9.2296,-2.2625,1.8675,0.02,0.3848,0.6254,-71.85,-27.9,-10.05,6.0,-0.82,-7.71,0.0109,0.1756,0.0164,-32.1875,4.75,50.0,327.3125,38.9375,172.3125,0
1776970497.877,9.6103,2.0111,-0.3926,-0.126,0.5852,0.5385,-33.9,7.2,28.2,9.2296,-2.2625,1.8675,-0.0576,0.4048,0.6217,-71.85,-27.9,-10.05,5.88,-0.83,-7.6,0.0207,0.1865,0.0185,-32.1875,4.75,50.0,327.3125,39.0,172.3125,0
1776970497.882,9.6103,2.0111,-0.3926,-0.126,0.5852,0.5385,-33.9,7.2,28.2,9.5098,-2.15,1.9178,-0.0576,0.4048,0.6217,-71.85,-27.9,-10.05,5.88,-0.83,-7.6,0.0273,0.2291,0.012,-32.1875,4.75,50.0,327.3125,39.125,172.25,0
1776970497.888,9.4236,2.4588,-0.3735,-0.0917,0.5937,0.5505,-34.5,6.75,27.75,9.5098,-2.15,1.9178,-0.1194,0.396,0.631,-71.55,-28.65,-10.8,5.85,-0.7,-7.58,0.0273,0.2291,0.012,-32.1875,4.75,50.0,327.3125,39.125,172.25,0
1776970497.896,9.3829,2.5522,0.1317,-0.0264,0.5915,0.5598,-35.1,6.75,27.3,9.4978,-1.5538,1.9537,-0.081,0.3421,0.6632,-71.85,-28.35,-9.75,5.83,-0.59,-7.52,0.0524,0.2618,0.0393,-32.1875,4.75,50.0,327.375,39.25,172.25,0
1776970497.901,9.3829,2.5522,0.1317,-0.0264,0.5915,0.5598,-35.1,6.75,27.3,9.347,-1.9034,2.2841,0.0317,0.3035,0.6947,-71.85,-28.35,-9.75,5.83,-0.59,-7.52,0.0698,0.2694,0.0622,-32.1875,4.75,50.0,327.375,39.375,172.1875,0
1776970497.908,9.5816,1.7358,0.2514,0.0927,0.5878,0.5798,-35.1,6.75,27.3,9.347,-1.9034,2.2841,0.0317,0.3035,0.6947,-71.25,-27.75,-9.6,5.87,-0.44,-7.45,0.0698,0.2694,0.0622,-32.1875,4.75,50.0,327.375,39.375,172.1875,0
1776970497.912,9.5816,1.7358,0.2514,0.0927,0.5878,0.5798,-35.1,6.75,27.3,9.0932,-2.6193,1.8986,0.1143,0.2846,0.756,-71.25,-27.75,-9.6,5.87,-0.44,-7.45,0.0676,0.2978,0.0654,-33.1875,5.1875,50.0,327.375,39.5,172.1875,0
1776970497.918,9.572,1.0798,0.2945,0.1553,0.6134,0.6086,-32.85,6.15,28.2,9.0932,-2.6193,1.8986,0.1143,0.2846,0.756,-71.1,-28.35,-11.25,5.85,-0.71,-7.65,0.0676,0.2978,0.0654,-33.1875,5.1875,50.0,327.375,39.5,172.1875,0
1776970497.922,9.572,1.0798,0.2945,0.1553,0.6134,0.6086,-32.85,6.15,28.2,8.8729,-3.237,1.9106,0.0962,0.2998,0.8042,-71.1,-28.35,-11.25,5.85,-0.71,-7.65,0.0502,0.3131,0.0524,-33.1875,5.1875,50.0,327.4375,39.6875,172.125,0
1776970497.928,9.6271,0.4693,0.4142,0.0773,0.6651,0.6699,-34.5,4.5,29.1,8.8729,-3.237,1.9106,0.0962,0.2998,0.8042,-71.7,-28.05,-10.35,6.4,-1.02,-7.63,0.0502,0.3131,0.0524,-33.1875,5.1875,50.0,327.4375,39.6875,172.125,0
1776970497.932,9.6271,0.4693,0.4142,0.0773,0.6651,0.6699,-34.5,4.5,29.1,8.7101,-3.7493,2.0207,0.0325,0.3675,0.8356,-71.7,-28.05,-10.35,6.4,-1.02,-7.63,0.0295,0.2934,0.0371,-33.1875,5.1875,50.0,327.4375,39.8125,172.0625,0
1776970497.938,10.2041,0.3496,0.1987,-0.0594,0.7051,0.7408,-33.3,5.25,29.55,8.7101,-3.7493,2.0207,0.0325,0.3675,0.8356,-69.6,-27.9,-10.5,6.46,-1.01,-7.63,0.0295,0.2934,0.0371,-33.1875,5.1875,50.0,327.4375,39.9375,172.0,0
1776970497.947,9.8426,0.5387,0.0622,-0.1673,0.7013,0.7722,-34.2,3.9,29.25,8.7987,-3.9959,2.0734,-0.0855,0.4434,0.8783,-70.35,-29.85,-10.05,6.43,-1.02,-7.59,0.0131,0.2563,0.0262,-33.1875,5.1875,50.0,327.4375,39.9375,172.0,0
1776970497.957,9.9479,0.5842,0.4429,-0.2385,0.6672,0.7847,-33.75,4.8,30.6,9.0549,-3.7445,2.1644,-0.2513,0.4748,0.9041,-69.6,-29.55,-9.3,5.98,-0.82,-7.55,0.0109,0.228,0.0251,-33.1875,5.1875,50.0,327.5,40.0625,172.0,0
1776970497.962,9.9479,0.5842,0.4429,-0.2385,0.6672,0.7847,-33.75,4.8,30.6,8.916,-3.8355,2.2218,-0.2713,0.4221,0.8921,-69.6,-29.55,-9.3,5.98,-0.82,-7.55,0.0109,0.228,0.0251,-33.1875,5.1875,50.0,327.5,40.0625,172.0,0
1776970497.967,9.8665,0.7542,0.6823,-0.2105,0.6299,0.7586,-33.75,4.8,30.6,8.916,-3.8355,2.2218,-0.2713,0.4221,0.8921,-69.6,-29.55,-9.3,5.98,-0.76,-7.51,0.0284,0.2258,0.0131,-33.5625,5.1875,51.0625,327.5,40.1875,171.9375,0
1776970497.972,9.8665,0.7542,0.6823,-0.2105,0.6299,0.7586,-33.75,4.8,30.6,8.7987,-3.8164,2.4397,-0.231,0.3885,0.8636,-69.6,-29.55,-9.3,5.98,-0.76,-7.51,0.0284,0.2258,0.0131,-33.5625,5.1875,51.0625,327.5,40.1875,171.9375,0
1776970497.977,9.6678,0.4932,0.9313,-0.2017,0.6067,0.7285,-32.85,3.15,29.7,8.7987,-3.8164,2.4397,-0.231,0.3885,0.8636,-68.7,-28.95,-9.9,5.98,-0.73,-7.48,0.0185,0.2443,0.0284,-33.5625,5.1875,51.0625,327.5,40.3125,171.9375,0
1776970497.982,9.6678,0.4932,0.9313,-0.2017,0.6067,0.7285,-32.85,3.15,29.7,8.509,-4.0725,2.4397,-0.1897,0.3176,0.8386,-68.7,-28.95,-9.9,5.98,-0.73,-7.48,-0.0076,0.2465,0.0447,-33.5625,5.1875,51.0625,327.5625,40.4375,171.875,0
1776970497.988,9.5648,0.0239,0.6919,-0.1695,0.6118,0.7234,-33.3,3.0,32.4,8.2265,-4.1827,1.8986,-0.1881,0.3291,0.8388,-68.7,-28.95,-9.9,6.3,-0.94,-7.38,-0.0076,0.2465,0.0447,-33.5625,5.1875,51.0625,327.5625,40.4375,171.875,0
1776970497.997,9.5457,-0.1077,0.7685,-0.1583,0.6344,0.7304,-33.9,3.45,30.45,8.3606,-4.3335,1.9178,-0.1881,0.3291,0.8388,-67.2,-31.95,-9.15,6.07,-1.0,-7.49,-0.036,0.2749,0.0513,-33.5625,5.1875,51.0625,327.5625,40.5625,171.875,0
1776970498.002,9.6271,-0.1987,0.5507,-0.1857,0.6643,0.7357,-33.9,3.45,30.45,8.3606,-4.3335,1.9178,-0.154,0.397,0.8519,-67.2,-31.95,-9.15,6.07,-1.0,-7.49,-0.0436,0.2967,0.0491,-33.5625,5.1875,51.0625,327.625,40.75,171.875,0
1776970498.008,9.6271,-0.1987,0.5507,-0.1857,0.6643,0.7357,-32.4,3.15,31.8,8.3246,-4.2641,1.7549,-0.1588,0.4327,0.8567,-68.7,-30.9,-9.9,6.26,-0.97,-7.6,-0.0436,0.2967,0.0491,-33.5625,5.1875,51.0625,327.625,40.75,171.875,0
1776970498.013,9.4403,-0.0383,0.4741,-0.2358,0.6757,0.7488,-32.4,3.15,31.8,8.3246,-4.2641,1.7549,-0.1588,0.4327,0.8567,-68.7,-30.9,-9.9,6.26,-0.97,-7.6,-0.0436,0.2956,0.0349,-35.0625,6.0,50.25,327.6875,40.875,171.875,0
1776970498.018,9.4403,-0.0383,0.4741,-0.2358,0.6757,0.7488,-32.4,3.15,31.8,8.3606,-3.96,1.8004,-0.1847,0.4703,0.8681,-67.5,-31.2,-9.9,6.49,-1.07,-7.43,-0.0436,0.2956,0.0349,-35.0625,6.0,50.25,327.6875,40.875,171.875,0
1776970498.023,9.3757,0.419,0.2729,-0.2366,0.7061,0.7674,-32.4,3.15,31.8,8.3606,-3.96,1.8004,-0.1847,0.4703,0.8681,-67.5,-31.2,-9.9,6.49,-1.07,-7.43,-0.0469,0.2651,0.0229,-35.0625,6.0,50.25,327.6875,41.0625,171.875,0
1776970498.028,9.3757,0.419,0.2729,-0.2366,0.7061,0.7674,-32.4,3.15,31.8,8.6191,-3.6799,1.9513,-0.2324,0.4871,0.8868,-67.95,-32.85,-9.9,6.43,-1.02,-7.49,-0.0469,0.2651,0.0229,-35.0625,6.0,50.25,327.6875,41.0625,171.875,0
1776970498.036,9.3948,0.4166,0.3089,-0.2734,0.7048,0.8084,-31.95,1.8,32.7,8.6455,-3.6392,1.8411,-0.2475,0.4676,0.9161,-67.35,-32.25,-10.05,6.38,-1.01,-7.45,-0.0545,0.2542,0.0185,-35.0625,6.0,50.25,327.75,41.1875,171.875,0
1776970498.041,9.584,0.6033,0.4334,-0.2798,0.7229,0.8226,-31.95,1.8,32.7,8.6455,-3.6392,1.8411,-0.2475,0.4676,0.9161,-67.35,-32.25,-10.05,6.38,-1.01,-7.45,-0.0545,0.2542,0.0185,-35.0625,6.0,50.25,327.75,41.3125,171.875,0
1776970498.048,9.584,0.6033,0.4334,-0.2798,0.7229,0.8226,-32.1,0.9,31.05,8.6838,-3.5195,2.0087,-0.239,0.502,0.9233,-66.6,-33.45,-8.7,6.43,-1.0,-7.41,-0.0665,0.2596,0.0055,-35.0625,6.0,50.25,327.75,41.4375,171.875,0
1776970498.057,9.6798,0.6704,0.6129,-0.2819,0.7213,0.8292,-30.6,1.2,32.55,8.7867,-3.644,2.2122,-0.211,0.4895,0.9353,-66.6,-33.45,-8.7,6.1,-0.86,-7.47,-0.0764,0.2367,0.0011,-35.0625,6.0,50.25,327.75,41.4375,171.875,0
1776970498.062,9.9359,0.6847,0.7111,-0.3003,0.7349,0.8418,-31.2,0.3,31.95,8.7867,-3.644,2.2122,-0.211,0.4895,0.9353,-66.6,-33.45,-8.7,6.1,-0.86,-7.47,-0.0764,0.2367,0.0011,-35.0625,6.0,50.25,327.75,41.4375,171.875,0
1776970498.067,9.9359,0.6847,0.7111,-0.3003,0.7349,0.8418,-31.2,0.3,31.95,8.9687,-3.7733,2.3367,-0.2204,0.5081,0.9393,-66.3,-31.65,-9.9,5.9,-0.69,-7.58,-0.0807,0.2498,0.0065,-35.75,5.1875,49.5,327.8125,41.5625,171.9375,0
1776970498.072,9.924,0.5291,0.6488,-0.2806,0.7083,0.8431,-31.2,0.3,31.95,8.9687,-3.7733,2.3367,-0.2204,0.5081,0.9393,-66.3,-31.65,-9.9,5.9,-0.69,-7.58,-0.0807,0.2498,0.0065,-35.75,5.1875,49.5,327.8125,41.5625,171.9375,0
1776970498.077,9.924,0.5291,0.6488,-0.2806,0.7083,0.8431,-31.2,0.3,31.95,8.9016,-3.8595,2.2673,-0.1913,0.5068,0.9446,-66.3,-31.65,-9.9,6.13,-0.56,-7.52,-0.0916,0.2509,0.0196,-35.75,5.1875,49.5,327.8125,41.6875,171.9375,0
1776970498.087,9.9216,0.2107,0.656,-0.2955,0.7477,0.8793,-31.2,0.0,32.7,8.9663,-4.0606,2.1117,-0.2148,0.5105,0.9944,-65.25,-35.1,-8.85,6.23,-0.85,-7.56,-0.1113,0.24,0.0196,-35.75,5.1875,49.5,327.875,41.875,172.0,0
1776970498.096,9.8761,-0.2035,0.5722,-0.34,0.7608,0.9318,-29.4,-0.75,30.9,8.8011,-4.4245,1.9345,-0.3016,0.497,1.0525,-65.25,-35.1,-8.85,6.34,-1.14,-7.8,-0.1189,0.2334,0.0065,-35.75,5.1875,49.5,327.9375,42.0,172.0625,0
1776970498.101,10.2113,-0.4573,0.2442,-0.4058,0.7983,0.9827,-31.35,-0.45,32.55,8.8011,-4.4245,1.9345,-0.3016,0.497,1.0525,-65.25,-35.1,-8.85,6.34,-1.14,-7.8,-0.1189,0.2334,0.0065,-35.75,5.1875,49.5,327.9375,42.125,172.0625,0
1776970498.108,10.7069,-0.9026,0.0455,-0.5625,0.7922,1.028,-31.35,-0.45,32.55,9.0142,-4.8219,1.6855,-0.4522,0.5297,1.0949,-64.65,-33.45,-8.7,6.01,-1.19,-7.72,-0.1004,0.3818,-0.0065,-35.75,5.1875,49.5,327.9375,42.125,172.0625,0
1776970498.113,10.7069,-0.9026,0.0455,-0.5625,0.7922,1.028,-29.55,-0.45,34.35,9.3613,-5.2122,1.5012,-0.6182,0.5425,1.1218,-64.65,-33.45,-8.7,6.01,-1.19,-7.72,-0.1396,0.5378,-0.0644,-35.75,6.25,48.75,328.0,42.375,172.125,0
1776970498.118,10.6853,-0.3352,0.2921,-0.6611,0.7917,1.0946,-29.55,-0.45,34.35,9.3613,-5.2122,1.5012,-0.6182,0.5425,1.1218,-63.9,-33.0,-8.25,5.73,-1.68,-7.8,-0.1396,0.5378,-0.0644,-35.75,6.25,48.75,328.0,42.375,172.125,0
1776970498.123,10.6853,-0.3352,0.2921,-0.6611,0.7917,1.0946,-30.45,-2.25,33.75,9.4475,-4.5993,1.7597,-0.7056,0.5894,1.1575,-63.9,-33.0,-8.25,5.73,-1.68,-7.8,-0.2116,0.6294,-0.1604,-35.75,6.25,48.75,327.9375,42.75,172.3125,0
1776970498.128,10.3597,0.5698,0.4597,-0.7091,0.8082,1.1663,-30.45,-2.25,33.75,9.4475,-4.5993,1.7597,-0.7056,0.5894,1.1575,-64.35,-34.2,-9.3,6.36,-1.87,-7.58,-0.2116,0.6294,-0.1604,-35.75,6.25,48.75,327.9375,42.75,172.3125,0
1776970498.136,10.3597,0.5698,0.4597,-0.7091,0.8082,1.1663,-30.45,-2.25,33.75,9.3877,-3.6488,1.9249,-0.6339,0.6619,1.1743,-64.05,-35.1,-9.6,6.61,-1.46,-7.64,-0.2171,0.7636,-0.264,-35.75,6.25,48.75,327.875,43.1875,172.5,0
1776970498.141,10.1083,0.7805,0.3567,-0.6587,0.8284,1.2241,-30.6,-2.4,34.35,9.4595,-3.2609,1.7382,-0.6339,0.6619,1.1743,-64.05,-35.1,-9.6,6.61,-1.46,-7.64,-0.2171,0.7636,-0.264,-35.75,6.25,48.75,327.75,43.75,172.8125,0
1776970498.148,9.9934,0.7446,0.5076,-0.5646,0.8716,1.2828,-30.6,-2.4,34.35,9.4595,-3.2609,1.7382,-0.5215,0.6326,1.2718,-62.4,-34.2,-9.0,6.09,-1.94,-7.64,-0.2978,0.9218,-0.3774,-35.75,6.25,48.75,327.625,44.375,173.25,0
1776970498.158,10.0556,0.3926,0.3998,-0.5335,0.9126,1.344,-30.15,-3.0,33.45,9.1889,-3.4261,1.8747,-0.4338,0.6158,1.3534,-63.3,-36.0,-9.9,6.8,0.07,-7.38,-0.4091,1.1094,-0.5072,-35.75,6.25,48.75,327.625,44.375,173.25,0
1776970498.162,10.0556,0.3926,0.3998,-0.5335,0.9126,1.344,-28.5,-2.7,33.6,8.9543,-3.7062,1.9058,-0.4271,0.5939,1.4224,-63.3,-36.0,-9.9,6.8,0.07,-7.38,-0.4091,1.1094,-0.5072,-35.75,6.25,48.75,327.625,44.375,173.25,0
1776970498.167,10.3693,0.5195,1.0056,-0.5177,0.9174,1.3917,-28.5,-2.7,33.6,8.9543,-3.7062,1.9058,-0.4271,0.5939,1.4224,-63.3,-36.0,-9.9,5.85,-2.58,-7.6,-0.6709,1.0625,-0.4298,-36.875,6.25,48.75,315.25,45.0,173.75,0
1776970498.172,10.3693,0.5195,1.0056,-0.5177,0.9174,1.3917,-29.1,-2.7,32.55,9.3494,-3.9911,2.4349,-0.4378,0.6432,1.4759,-63.3,-36.0,-9.9,5.85,-2.58,-7.6,-0.6709,1.0625,-0.4298,-36.875,6.25,48.75,315.25,45.0,173.75,0
1776970498.177,11.2504,0.5722,0.8404,-0.5673,0.9049,1.4599,-29.1,-2.7,32.55,9.3494,-3.9911,2.4349,-0.4378,0.6432,1.4759,-61.65,-36.15,-9.0,6.77,-1.14,-7.34,-0.7549,1.2283,-0.5465,-36.875,6.25,48.75,316.6875,45.6875,174.4375,0
1776970498.184,11.2504,0.5722,0.8404,-0.5673,0.9049,1.4599,-28.2,-5.25,33.45,10.4698,-3.9672,2.4876,-0.4586,0.6659,1.537,-61.65,-36.15,-9.0,6.39,-0.85,-7.92,-0.9327,1.3908,-0.4331,-36.875,6.25,48.75,318.3125,46.5,175.125,0
1776970498.189,11.8848,0.8715,0.5052,-0.6113,0.9145,1.5447,-28.2,-5.25,33.45,11.4227,-4.2258,2.2577,-0.4586,0.6659,1.537,-61.65,-36.15,-9.0,6.39,-0.85,-7.92,-0.9327,1.3908,-0.4331,-36.875,6.25,48.75,319.4375,47.3125,175.5625,0
1776970498.198,12.1745,0.2586,-0.3926,-0.6153,0.9257,1.6214,-28.2,-5.25,33.45,11.4227,-4.2258,2.2577,-0.4732,0.6915,1.5468,-59.7,-36.9,-9.0,6.43,0.34,-8.23,-0.6545,1.4966,-0.2782,-36.875,6.25,48.75,320.0,48.25,175.75,0
1776970498.208,12.0524,0.1413,0.1604,-0.5955,0.9382,1.692,-27.3,-5.7,35.4,11.2168,-4.6471,1.6041,-0.5481,0.6041,1.6321,-59.55,-37.05,-9.9,6.08,0.46,-8.05,-0.3065,1.6253,-0.0873,-36.875,6.25,48.75,320.0,48.25,175.75,0
1776970498.213,12.0524,0.1413,0.1604,-0.5955,0.9382,1.692,-26.25,-6.9,35.4,11.2168,-4.6471,1.6041,-0.5393,0.648,1.7568,-59.55,-37.05,-9.9,6.08,0.46,-8.05,-0.3065,1.6253,-0.0873,-39.875,5.1875,46.75,320.125,49.25,175.625,0
1776970498.218,12.7036,0.395,0.4022,-0.5891,0.9737,1.8151,-26.25,-6.9,35.4,11.5137,-4.4388,2.332,-0.5393,0.648,1.7568,-58.05,-36.75,-9.9,6.47,0.43,-8.53,0.048,1.8359,-0.0349,-39.875,5.1875,46.75,320.125,49.25,175.625,0
1776970498.222,12.7036,0.395,0.4022,-0.5891,0.9737,1.8151,-26.1,-7.5,35.85,11.5137,-4.4388,2.332,-0.4978,0.7051,1.8698,-58.05,-36.75,-9.9,6.47,0.43,-8.53,0.048,1.8359,-0.0349,-39.875,5.1875,46.75,319.5,50.3125,175.1875,0
1776970498.228,13.6302,1.1564,-0.7757,-0.6808,0.9651,1.8985,-26.1,-7.5,35.85,13.0676,-4.4796,1.6065,-0.4978,0.7051,1.8698,-58.2,-38.85,-8.25,6.33,0.71,-8.79,0.6021,1.8751,0.0185,-39.875,5.1875,46.75,319.5,50.3125,175.1875,0
1776970498.232,13.6302,1.1564,-0.7757,-0.6808,0.9651,1.8985,-27.15,-7.5,35.25,13.0676,-4.4796,1.6065,-0.6427,0.7266,1.8993,-58.2,-38.85,-8.25,6.33,0.71,-8.79,1.2174,1.4028,-0.1985,-39.875,5.1875,46.75,318.3125,51.0625,174.5625,0
1776970498.238,14.2048,-0.1125,-2.2505,-0.7605,0.9718,1.9737,-24.75,-8.7,36.75,13.7571,-5.1858,-0.2993,-0.8631,0.6662,1.9558,-56.55,-38.7,-8.4,5.44,-1.24,-8.39,1.2174,1.4028,-0.1985,-39.875,5.1875,46.75,318.1875,52.0625,174.5625,0
1776970498.248,13.9989,0.6369,-2.7078,-0.7442,0.9896,2.0294,-24.75,-8.7,36.75,13.4291,-4.0079,-0.4214,-1.0152,0.8013,2.0635,-55.95,-38.55,-9.75,8.73,-1.77,-6.67,0.5476,1.7377,-0.6065,-39.875,5.1875,46.75,318.1875,52.0625,174.5625,0
1776970498.258,13.204,1.5251,-3.1843,-0.9193,1.0488,2.1192,-24.75,-8.7,36.75,13.4482,-2.8395,-0.7254,-1.1876,0.8196,2.1106,-54.45,-40.05,-9.3,5.16,1.37,-9.41,-0.2062,2.7838,-0.3316,-39.875,5.1875,46.75,318.8125,53.625,174.75,0
1776970498.262,13.204,1.5251,-3.1843,-0.9161,1.1445,2.1701,-22.8,-10.05,35.55,13.4482,-2.8395,-0.7254,-1.1876,0.8196,2.1106,-54.45,-40.05,-9.3,5.16,1.37,-9.41,-0.2062,2.7838,-0.3316,-39.875,5.1875,46.75,318.8125,53.625,174.75,0
1776970498.268,11.7747,1.8842,-2.5618,-0.9161,1.1445,2.1701,-22.8,-10.05,35.55,11.9519,-1.7214,-0.4645,-1.1434,0.7376,2.2194,-52.5,-38.55,-9.3,6.2,2.35,-7.75,0.0087,2.5831,-0.4821,-43.1875,3.375,43.25,319.25,55.0625,174.9375,0
1776970498.272,10.4028,2.2075,-0.9457,-0.7101,1.2239,2.1509,-22.65,-11.4,34.65,11.9519,-1.7214,-0.4645,-1.1434,0.7376,2.2194,-52.5,-38.55,-9.3,6.2,2.35,-7.75,0.0087,2.5831,-0.4821,-43.1875,3.375,43.25,319.25,55.0625,174.9375,0
1776970498.277,10.4028,2.2075,-0.9457,-0.7101,1.2239,2.1509,-22.65,-11.4,34.65,10.4196,-1.8364,-0.0311,-0.6678,0.64,2.295,-52.5,-38.55,-9.3,8.34,3.42,-7.66,0.1647,2.5373,-0.3916,-43.1875,3.375,43.25,319.5,56.5,175.0,0
1776970498.284,9.7875,2.2362,0.0215,-0.4434,1.3003,2.0688,-20.85,-10.65,36.45,10.4196,-1.8364,-0.0311,-0.6678,0.64,2.295,-52.5,-38.55,-9.3,8.38,3.24,-7.98,0.7712,2.5056,0.1811,-43.1875,3.375,43.25,318.75,57.875,174.1875,0
1776970498.289,9.7875,2.2362,0.0215,-0.4434,1.3003,2.0688,-20.25,-12.0,38.1,9.2823,-2.0231,1.2713,-0.0679,0.4687,2.2042,-52.35,-39.0,-9.15,8.38,3.24,-7.98,0.7712,2.5056,0.1811,-43.1875,3.375,43.25,317.0625,59.0625,172.5625,0
1776970498.298,9.6798,1.6113,1.0487,-0.211,1.3739,1.9644,-20.25,-12.0,38.1,8.3773,-2.8802,2.2936,0.4175,0.38,2.1109,-52.35,-39.0,-9.15,9.27,2.29,-7.95,1.5304,2.2329,0.5869,-43.1875,3.375,43.25,317.0625,59.0625,172.5625,0
1776970498.308,10.3094,0.8499,3.0287,-0.0418,1.5465,1.8255,-20.25,-12.0,38.1,8.3366,-4.0079,3.8547,0.4048,0.4922,2.1011,-49.35,-39.45,-7.65,10.64,-1.51,-6.95,1.862,2.618,0.8039,-43.1875,3.375,43.25,315.0625,60.4375,170.4375,0
1776970498.312,10.3765,0.1006,3.2609,-0.0464,1.6124,1.7821,-20.25,-12.0,38.1,8.3366,-4.0079,3.8547,0.4048,0.4922,2.1011,-49.35,-39.45,-7.65,10.64,-1.51,-6.95,1.862,2.618,0.8039,-43.1875,3.375,43.25,315.0625,60.4375,170.4375,0
1776970498.317,10.3765,0.1006,3.2609,-0.0464,1.6124,1.7821,-17.7,-13.05,36.3,8.5234,-4.6184,3.5434,0.5529,0.6206,2.0158,-49.5,-41.55,-9.0,10.29,-0.78,-7.27,1.3035,4.5771,1.5239,-46.75,4.75,38.0625,313.4375,62.75,167.25,0
1776970498.322,10.7069,-1.3982,4.8219,0.029,1.5735,1.7096,-17.7,-13.05,36.3,8.5234,-4.6184,3.5434,0.5529,0.6206,2.0158,-49.5,-41.55,-9.0,10.29,-0.78,-7.27,1.3035,4.5771,1.5239,-46.75,4.75,38.0625,313.4375,62.75,167.25,0
1776970498.327,10.7069,-1.3982,4.8219,0.029,1.5735,1.7096,-17.85,-13.95,38.55,7.2903,-6.6439,5.4181,0.9212,1.0965,1.9223,-47.7,-40.95,-8.4,16.42,1.8,-11.39,0.8258,5.4072,1.5326,-46.75,4.75,38.0625,312.4375,65.4375,163.5625,0
1776970498.332,9.5361,-2.6121,6.2058,0.2076,1.5569,1.7163,-17.85,-13.95,38.55,7.2903,-6.6439,5.4181,0.9212,1.0965,1.9223,-47.7,-40.95,-8.4,16.42,1.8,-11.39,0.7385,5.1771,1.6024,-46.75,4.75,38.0625,311.5625,67.875,159.0625,0
1776970498.339,9.5361,-2.6121,6.2058,0.2076,1.5569,1.7163,-14.7,-14.7,38.55,6.0932,-7.5776,6.6607,1.0621,0.9212,1.9502,-47.55,-40.5,-7.5,17.8,2.83,-11.06,0.7385,5.1771,1.6024,-46.75,4.75,38.0625,310.1875,69.8125,153.375,0
1776970498.348,9.007,-3.4716,6.0406,0.2742,1.6395,1.6982,-16.5,-14.4,40.05,5.3295,-7.9583,5.6264,1.0072,1.0206,1.9793,-46.65,-38.7,-8.1,18.65,2.97,-12.81,1.1486,4.5499,1.8326,-46.75,4.75,38.0625,310.1875,69.8125,153.375,0
1776970498.358,8.7221,-3.972,6.1363,0.218,1.6193,1.6638,-16.5,-14.4,40.05,4.6184,-8.8801,6.2704,0.7325,1.3715,1.9652,-46.65,-40.65,-8.4,10.61,2.04,-10.79,1.6777,3.6554,1.9406,-46.75,4.75,38.0625,308.3125,71.0,147.0,0
1776970498.363,8.4228,-4.8937,5.2265,0.1412,1.541,1.5969,-16.5,-14.4,40.05,4.8291,-9.0214,6.3231,0.53,1.3619,1.9929,-46.65,-40.65,-8.4,10.61,2.04,-10.79,1.6777,3.6554,1.9406,-46.75,4.75,38.0625,306.0625,71.625,140.3125,0
1776970498.368,8.4228,-4.8937,5.2265,0.1412,1.541,1.5969,-16.5,-14.4,40.05,4.8291,-9.0214,6.3231,0.53,1.3619,1.9929,-46.65,-40.65,-8.4,5.25,1.53,-9.2,2.2089,2.8525,2.0289,-50.0625,10.0,27.5,306.0625,71.625,140.3125,0
1776970498.373,7.944,-4.8842,4.7309,0.1817,1.347,1.4751,-16.5,-14.4,40.05,3.8978,-8.9495,5.5905,0.2246,0.9486,1.9425,-46.65,-40.65,-8.4,5.25,1.53,-9.2,2.2089,2.8525,2.0289,-50.0625,10.0,27.5,303.625,71.875,133.3125,0
1776970498.378,7.944,-4.8842,4.7309,0.1817,1.347,1.4751,-12.6,-15.0,38.7,3.8978,-8.9495,5.5905,0.2246,0.9486,1.9425,-45.3,-39.6,-5.7,-0.03,0.1,-9.92,2.4096,2.6573,2.1118,-50.0625,10.0,27.5,303.625,71.875,133.3125,0
1776970498.386,7.6902,-6.3303,4.5418,0.1124,0.9779,1.2958,-13.35,-14.25,40.5,2.7725,-10.4172,5.2696,-0.1415,0.4194,1.8143,-45.3,-39.6,-5.7,0.78,-3.4,-12.03,2.1468,2.6584,2.4064,-50.0625,10.0,27.5,301.3125,71.8125,126.0625,0
1776970498.391,7.0677,-7.0078,6.256,0.2827,0.5545,1.0267,-13.35,-14.25,40.5,1.506,-12.0907,5.4516,-0.1415,0.4194,1.8143,-45.3,-39.6,-5.7,0.78,-3.4,-12.03,2.1468,2.6584,2.4064,-50.0625,10.0,27.5,299.6875,71.5625,119.3125,0
1776970498.398,6.9025,-5.9472,5.2672,-0.0573,0.2811,0.7578,-10.35,-15.15,40.35,1.506,-12.0907,5.4516,-0.4892,0.0019,1.5886,-42.3,-40.05,-7.95,13.91,-5.06,-18.33,1.3668,2.7467,2.3104,-50.0625,10.0,27.5,299.0625,71.0625,115.3125,0
1776970498.408,7.2856,-4.9009,4.0941,-0.8186,-0.0218,0.5798,-11.55,-15.0,39.45,1.3455,-11.7196,5.4803,-0.9073,-0.008,1.0635,-42.3,-40.05,-7.95,8.34,0.71,-18.33,-0.1778,1.8086,1.9395,-50.0625,10.0,27.5,299.0625,71.0625,115.3125,0
1776970498.413,7.2856,-4.9009,4.0941,-0.8186,-0.0218,0.5798,-11.55,-15.0,39.45,3.4955,-9.6654,5.6455,-1.3832,0.1863,0.3086,-42.3,-40.05,-7.95,8.34,0.71,-18.33,-0.1778,1.8086,1.9395,-50.0625,10.0,27.5,299.0625,71.0625,115.3125,0
1776970498.418,7.0725,-4.3215,3.5482,-1.3651,-0.3179,0.311,-11.55,-15.0,39.45,3.4955,-9.6654,5.6455,-1.3832,0.1863,0.3086,-43.65,-38.25,-8.85,2.56,3.36,-11.98,-0.5367,-0.9054,2.2177,-47.1875,17.25,14.1875,297.9375,69.75,115.375,0
1776970498.423,7.0725,-4.3215,3.5482,-1.3651,-0.3179,0.311,-11.55,-15.0,39.45,3.4309,-8.2456,4.8363,-1.7174,0.0386,-0.1274,-43.65,-38.25,-8.85,2.56,3.36,-11.98,-0.5367,-0.9054,2.2177,-47.1875,17.25,14.1875,297.9375,69.75,115.375,0
1776970498.428,6.7301,-3.7062,3.6105,-1.3163,-0.7048,0.0208,-11.85,-15.0,38.7,3.4309,-8.2456,4.8363,-1.7174,0.0386,-0.1274,-43.65,-38.25,-8.85,-1.26,3.25,-6.25,-0.0884,-1.6832,2.1729,-47.1875,17.25,14.1875,296.4375,68.25,116.25,0
1776970498.432,6.7301,-3.7062,3.6105,-1.3163,-0.7048,0.0208,-11.85,-15.0,38.7,3.565,-7.8266,3.2489,-1.6577,-0.1868,-0.4599,-45.3,-38.85,-8.7,-1.26,3.25,-6.25,-0.0142,-1.6035,1.9493,-47.1875,17.25,14.1875,295.0,66.875,117.0,0
1776970498.439,5.964,-2.3727,3.5123,-1.008,-0.9473,-0.2441,-10.8,-15.0,38.7,3.201,-6.5242,3.8882,-1.6577,-0.1868,-0.4599,-44.55,-38.55,-10.05,-1.71,3.33,-5.17,-0.0142,-1.6035,1.9493,-47.1875,17.25,14.1875,293.9375,65.8125,117.6875,0
1776970498.448,5.9472,-2.0782,3.7038,-0.4724,-1.1852,-0.5031,-13.5,-15.45,37.2,3.3423,-5.6886,2.6887,-1.3731,-0.5833,-0.7922,-44.7,-39.45,-11.1,-0.14,3.89,-6.31,-0.1004,-1.3014,1.501,-47.1875,17.25,14.1875,293.9375,65.8125,117.6875,0
1776970498.458,5.6503,-2.1644,4.3503,0.1908,-1.448,-0.7981,-12.6,-15.0,35.85,2.8611,-5.7078,3.6416,-1.0664,-0.8484,-0.9785,-46.65,-39.0,-13.65,2.24,3.65,-7.43,-0.0262,-1.3952,1.0636,-47.1875,17.25,14.1875,293.0,64.9375,118.5625,0
1776970498.463,5.6503,-2.1644,4.3503,0.1908,-1.448,-0.7981,-12.6,-15.0,35.85,2.8611,-5.7078,3.6416,-0.615,-1.2572,-1.1215,-46.65,-39.0,-13.65,2.24,3.65,-7.43,-0.0262,-1.3952,1.0636,-47.1875,17.25,14.1875,292.1875,64.125,119.875,0
1776970498.468,5.5833,-2.648,4.5753,0.7621,-1.6014,-1.0469,-13.5,-14.7,34.95,2.6073,-5.77,3.3878,-0.615,-1.2572,-1.1215,-46.2,-39.0,-12.15,3.3,3.39,-8.34,0.0764,-1.7082,0.6196,-39.25,20.375,8.875,292.1875,64.125,119.875,0
1776970498.473,5.5833,-2.648,4.5753,0.7621,-1.6014,-1.0469,-13.5,-14.7,34.95,2.6073,-5.77,3.3878,-0.1314,-1.6558,-1.2564,-46.2,-39.0,-12.15,3.3,3.39,-8.34,0.0764,-1.7082,0.6196,-39.25,20.375,8.875,291.5,63.5,121.75,0
1776970498.478,5.9592,-3.0502,3.8092,1.0115,-1.7634,-1.2745,-13.5,-14.7,34.95,2.4852,-6.2656,3.7733,0.2729,-2.1128,-1.4461,-46.2,-39.0,-12.15,4.13,3.07,-9.28,0.0949,-2.0082,0.1265,-39.25,20.375,8.875,291.5,63.5,121.75,0
1776970498.485,5.9592,-3.0502,3.8092,1.0115,-1.7634,-1.2745,-14.85,-15.75,34.5,2.4852,-6.2656,3.7733,0.2729,-2.1128,-1.4461,-46.2,-39.0,-12.15,4.35,2.69,-9.23,0.2302,-2.6976,-0.3709,-39.25,20.375,8.875,290.8125,62.875,124.3125,0
1776970498.49,6.7109,-3.225,3.5314,1.1866,-1.8999,-1.5391,-14.85,-15.75,34.5,2.9113,-6.9504,3.0335,0.5633,-2.5061,-1.5841,-48.0,-37.65,-15.6,4.35,2.69,-9.23,0.2302,-2.6976,-0.3709,-39.25,20.375,8.875,290.1875,62.1875,127.4375,0
1776970498.498,6.936,-2.5857,3.5602,1.3765,-2.0278,-1.756,-15.3,-15.15,33.9,4.7285,-6.5434,3.0646,0.854,-2.3329,-1.9979,-48.0,-37.65,-15.6,4.46,1.84,-8.62,0.2334,-3.1863,-0.7963,-39.25,20.375,8.875,290.1875,62.1875,127.4375,0
1776970498.508,7.434,-2.3367,3.1627,1.6867,-2.0547,-1.9041,-16.65,-15.0,31.35,5.193,-6.3303,4.1156,1.4597,-2.2084,-2.3558,-51.3,-38.1,-15.6,4.19,1.63,-8.09,0.144,-3.5365,-1.1312,-39.25,20.375,8.875,289.6875,61.4375,130.9375,0
1776970498.513,7.434,-2.3367,3.1627,1.6867,-2.0547,-1.9041,-16.65,-15.0,31.35,5.193,-6.3303,4.1156,1.4597,-2.2084,-2.3558,-51.3,-38.1,-15.6,4.19,1.63,-8.09,0.144,-3.5365,-1.1312,-39.25,20.375,8.875,289.3125,60.5625,134.625,0
1776970498.518,7.7835,-2.8347,2.9832,2.0709,-2.1341,-1.987,-17.7,-14.55,31.65,5.1475,-6.1196,2.2865,1.8138,-2.5548,-2.4144,-51.3,-38.1,-15.6,4.49,1.47,-7.6,0.0469,-3.7546,-1.3744,-32.5625,21.25,6.25,289.3125,60.5625,134.625,0
1776970498.523,7.7835,-2.8347,2.9832,2.0709,-2.1341,-1.987,-17.7,-14.25,29.1,5.1475,-6.1196,2.2865,1.8138,-2.5548,-2.4144,-50.85,-38.7,-18.0,4.49,1.47,-7.6,0.0469,-3.7546,-1.3744,-32.5625,21.25,6.25,289.3125,60.5625,134.625,0
1776970498.528,7.3981,-3.0478,3.3016,2.4296,-2.3012,-2.0979,-17.7,-14.25,29.1,4.6376,-6.2393,2.7773,2.2737,-2.7939,-2.4837,-52.65,-39.0,-18.0,5.52,1.06,-6.79,0.0044,-3.8801,-1.5653,-32.5625,21.25,6.25,289.0,59.625,138.3125,0
1776970498.533,7.3981,-3.0478,3.3016,2.4296,-2.3012,-2.0979,-17.7,-14.25,29.1,4.6376,-6.2393,2.7773,2.2737,-2.7939,-2.4837,-52.65,-39.0,-19.2,5.52,1.06,-6.79,0.0076,-3.939,-1.7475,-32.5625,21.25,6.25,288.8125,58.5625,141.875,0
1776970498.539,7.1275,-3.6799,2.9353,2.7113,-2.4704,-2.2695,-17.7,-14.25,29.1,3.9576,-6.9264,2.3655,2.671,-3.1594,-2.6033,-52.5,-38.55,-19.05,6.25,0.62,-6.66,0.0076,-3.939,-1.7475,-32.5625,21.25,6.25,288.6875,57.4375,145.375,0
1776970498.548,7.5968,-3.9911,2.9521,3.0092,-2.5866,-2.4142,-20.7,-16.05,27.3,4.1132,-7.6112,2.4253,2.8775,-3.2428,-2.6987,-53.1,-39.9,-20.25,7.09,0.44,-6.91,-0.0055,-3.9575,-1.9624,-32.5625,21.25,6.25,288.6875,57.4375,145.375,0
1776970498.558,8.5353,-4.2473,3.1963,3.1469,-2.7451,-2.513,-20.85,-15.15,28.2,4.7525,-8.3342,3.316,2.573,-3.192,-2.728,-53.1,-39.9,-20.25,8.17,0.84,-7.68,0.0044,-4.023,-2.2558,-32.5625,21.25,6.25,288.75,56.25,148.8125,0
1776970498.563,9.9695,-4.5801,3.881,3.0201,-2.9974,-2.5037,-22.2,-17.4,27.9,4.7525,-8.3342,3.316,2.573,-3.192,-2.728,-53.7,-41.25,-19.05,8.17,0.84,-7.68,0.0044,-4.023,-2.2558,-32.5625,21.25,6.25,288.75,56.25,148.8125,0
1776970498.568,9.9695,-4.5801,3.881,3.0201,-2.9974,-2.5037,-22.2,-17.4,27.9,5.8706,-9.3829,4.5945,2.096,-3.1944,-2.7867,-53.7,-41.25,-19.05,8.03,1.13,-8.22,0.0905,-4.1092,-2.5416,-32.875,19.0625,2.25,288.8125,54.9375,152.1875,0
1776970498.573,11.4132,-4.6232,4.8626,2.6918,-3.2743,-2.468,-22.65,-16.2,26.1,7.0797,-10.3214,5.5713,2.096,-3.1944,-2.7867,-54.6,-40.2,-20.7,8.03,1.13,-8.22,0.0905,-4.1092,-2.5416,-32.875,19.0625,2.25,288.8125,54.9375,152.1875,0
1776970498.578,11.4132,-4.6232,4.8626,2.6918,-3.2743,-2.468,-22.65,-16.2,26.1,7.0797,-10.3214,5.5713,1.6843,-3.2996,-2.8639,-54.6,-40.2,-20.7,8.35,1.19,-8.46,0.3109,-4.1004,-2.7663,-32.875,19.0625,2.25,288.8125,53.5625,155.375,0
1776970498.583,11.5448,-4.3527,4.4652,2.2681,-3.4264,-2.4578,-23.25,-16.8,25.95,7.75,-10.161,5.4396,1.6843,-3.2996,-2.8639,-55.95,-40.8,-21.6,8.35,1.19,-8.46,0.5225,-4.0721,-2.9692,-32.875,19.0625,2.25,288.75,52.1875,158.25,0
1776970498.589,11.5448,-4.3527,4.4652,2.2681,-3.4264,-2.4578,-23.25,-16.8,25.95,7.75,-10.161,5.4396,1.2702,-3.3055,-3.006,-55.95,-40.8,-21.6,8.47,1.15,-9.11,0.5225,-4.0721,-2.9692,-32.875,19.0625,2.25,288.5625,50.6875,160.8125,0
1776970498.598,10.9678,-3.8044,3.9576,2.1589,-3.5146,-2.4403,-23.25,-16.8,25.95,7.3526,-8.9471,4.2186,1.0762,-3.2756,-3.0323,-55.95,-40.8,-21.6,10.53,0.5,-10.63,0.6458,-4.0164,-3.0292,-32.875,19.0625,2.25,288.3125,49.0625,163.0625,0
1776970498.608,10.4459,-2.9281,3.6919,2.1738,-3.5373,-2.4096,-24.3,-18.0,25.2,7.264,-7.7452,3.5817,1.0451,-3.4099,-2.9801,-56.25,-41.55,-21.9,11.37,0.34,-11.23,0.7058,-3.9477,-2.8863,-32.875,19.0625,2.25,288.3125,49.0625,163.0625,0
1776970498.613,10.252,-2.2458,3.1077,2.3017,-3.5573,-2.4248,-24.15,-16.95,24.3,7.343,-7.1132,3.723,1.0914,-3.5341,-2.9428,-56.25,-41.55,-21.9,11.37,0.34,-11.23,0.7058,-3.9477,-2.8863,-32.875,19.0625,2.25,287.875,47.3125,165.0,0
1776970498.618,10.252,-2.2458,3.1077,2.3017,-3.5573,-2.4248,-24.15,-16.95,24.3,7.343,-7.1132,3.723,1.0914,-3.5341,-2.9428,-56.25,-41.55,-21.9,11.59,0.34,-11.42,0.7189,-4.0644,-2.8089,-44.6875,26.375,5.875,287.875,47.3125,165.0,0
1776970498.623,10.5249,-1.9944,3.146,2.383,-3.6212,-2.5023,-27.75,-18.45,24.0,7.5346,-7.0246,3.8355,1.1103,-3.718,-2.983,-57.9,-42.0,-24.9,11.59,0.34,-11.42,0.7189,-4.0644,-2.8089,-44.6875,26.375,5.875,287.375,45.4375,166.75,0
1776970498.628,10.5249,-1.9944,3.146,2.383,-3.6212,-2.5023,-27.75,-18.45,24.0,7.5346,-7.0246,3.8355,1.1103,-3.718,-2.983,-57.9,-42.0,-24.9,11.44,0.68,-11.42,0.7145,-4.1866,-2.7129,-44.6875,26.375,5.875,287.375,45.4375,166.75,0
1776970498.633,10.9295,-2.0446,3.3351,2.4557,-3.6825,-2.5807,-25.65,-18.0,24.15,7.7333,-7.4268,3.9792,1.1322,-3.8568,-3.0614,-57.9,-42.0,-24.6,11.44,0.68,-11.42,0.757,-4.2422,-2.5918,-44.6875,26.375,5.875,310.875,43.4375,168.25,0
1776970498.639,10.9295,-2.0446,3.3351,2.4557,-3.6825,-2.5807,-25.65,-18.0,24.15,7.7333,-7.4268,3.9792,1.1322,-3.8568,-3.0614,-57.9,-43.5,-24.9,11.4,0.96,-11.48,0.757,-4.2422,-2.5918,-44.6875,26.375,5.875,309.125,41.4375,169.375,0
1776970498.648,11.1618,-2.0518,2.8108,2.4283,-3.751,-2.626,-25.65,-18.0,24.15,7.853,-7.5274,3.7158,1.0794,-3.8877,-3.1786,-57.9,-43.5,-24.9,11.22,1.02,-11.55,0.8476,-4.2488,-2.4424,-44.6875,26.375,5.875,309.125,41.4375,169.375,0
1776970498.659,11.4108,-2.15,2.3798,2.3374,-3.8403,-2.6742,-25.65,-18.0,24.15,7.9535,-7.4388,3.383,1.036,-3.9055,-3.2932,-58.95,-43.5,-25.65,11.34,1.05,-11.84,0.9632,-4.2182,-2.2646,-44.6875,26.375,5.875,307.5,39.3125,170.25,0
1776970498.663,11.4922,-1.9417,1.9106,2.2479,-3.9186,-2.7227,-30.75,-17.25,21.6,8.0445,-7.5202,2.3176,0.9169,-3.7758,-3.4051,-60.3,-44.55,-25.05,11.34,1.05,-11.84,0.9632,-4.2182,-2.2646,-44.6875,26.375,5.875,307.5,39.3125,170.25,0
1776970498.668,11.4922,-1.9417,1.9106,2.2479,-3.9186,-2.7227,-30.75,-17.25,21.6,8.0445,-7.5202,2.3176,0.9169,-3.7758,-3.4051,-60.3,-44.55,-25.05,12.11,1.08,-12.6,1.0734,-4.1877,-2.0649,-63.5625,38.6875,22.5625,305.9375,37.25,170.875,0
1776970498.673,11.6909,-1.834,1.4748,2.0598,-3.9426,-2.7699,-30.15,-16.5,22.8,8.6694,-7.3789,2.1284,0.8604,-3.516,-3.5437,-60.9,-43.5,-26.4,12.11,1.08,-12.6,1.0734,-4.1877,-2.0649,-63.5625,38.6875,22.5625,305.9375,37.25,170.875,0
1776970498.678,11.6909,-1.834,1.4748,1.9241,-3.8896,-2.7856,-30.15,-16.5,22.8,8.8322,-6.8426,1.6305,0.8604,-3.516,-3.5437,-60.9,-43.5,-26.4,12.62,0.92,-13.01,1.1497,-4.179,-1.8391,-63.5625,38.6875,22.5625,304.5625,35.125,171.1875,0
1776970498.685,11.8657,-1.6975,0.9529,1.9241,-3.8896,-2.7856,-32.1,-16.95,20.4,8.8322,-6.8426,1.6305,0.919,-3.3606,-3.6135,-60.9,-43.5,-26.4,13.49,0.47,-13.58,1.1312,-4.1746,-1.6221,-63.5625,38.6875,22.5625,303.3125,32.9375,171.4375,0
1776970498.69,12.1003,-1.6783,0.5219,1.8093,-3.8133,-2.7808,-32.1,-16.95,20.4,9.0118,-6.1986,0.6153,0.9236,-3.2266,-3.5831,-60.9,-43.5,-26.4,13.49,0.47,-13.58,1.1312,-4.1746,-1.6221,-63.5625,38.6875,22.5625,302.1875,30.75,171.625,0
1776970498.699,12.0237,-1.5634,-0.2083,1.6862,-3.714,-2.7699,-31.95,-16.05,20.55,9.4044,-5.8131,-0.1413,0.9236,-3.2266,-3.5831,-62.7,-44.4,-27.45,13.88,0.09,-13.32,0.9676,-4.2455,-1.453,-63.5625,38.6875,22.5625,302.1875,30.75,171.625,0
1776970498.708,11.7699,-1.4341,-0.9457,1.4938,-3.5714,-2.7656,-31.95,-16.05,20.55,9.7492,-5.4755,-0.498,0.6265,-2.9902,-3.468,-62.7,-44.4,-27.45,13.19,0.37,-12.54,0.685,-4.3797,-1.3483,-63.5625,38.6875,22.5625,301.1875,28.4375,171.8125,0
1776970498.713,11.7699,-1.4341,-0.9457,1.4938,-3.5714,-2.7656,-34.2,-12.9,18.6,9.7492,-5.4755,-0.498,0.6265,-2.9902,-3.468,-66.15,-41.55,-26.7,13.19,0.37,-12.54,0.685,-4.3797,-1.3483,-63.5625,38.6875,22.5625,300.25,26.125,172.1875,0
1776970498.719,11.5544,-1.245,-1.4676,1.3355,-3.4206,-2.7845,-34.2,-12.9,18.6,9.6391,-5.6551,-0.9122,0.4738,-2.8882,-3.4331,-66.15,-41.55,-26.7,12.4,0.77,-11.63,0.3578,-4.4375,-1.2883,-65.6875,43.375,46.0,300.25,26.125,172.1875,0
1776970498.724,11.5544,-1.245,-1.4676,1.3355,-3.4206,-2.7845,-33.75,-13.05,17.7,9.6391,-5.6551,-0.9122,0.4738,-2.8882,-3.4331,-66.15,-41.55,-26.7,12.4,0.77,-11.63,0.3578,-4.4375,-1.2883,-65.6875,43.375,46.0,299.375,23.8125,172.625,0
1776970498.729,11.2719,-1.0511,-1.6999,1.1826,-3.2927,-2.8392,-33.75,-13.05,17.7,9.4355,-5.3056,-1.2498,0.2577,-2.7352,-3.4464,-66.15,-41.55,-26.7,11.72,1.73,-10.37,0.0971,-4.3535,-1.2708,-65.6875,43.375,46.0,299.375,23.8125,172.625,0
1776970498.734,11.2719,-1.0511,-1.6999,1.1826,-3.2927,-2.8392,-34.65,-11.4,16.5,9.4355,-5.3056,-1.2498,0.2577,-2.7352,-3.4464,-66.15,-39.6,-27.45,11.72,1.73,-10.37,-0.0785,-4.1539,-1.2545,-65.6875,43.375,46.0,298.5625,21.625,173.0625,0
1776970498.74,11.0157,-0.5962,-1.1037,1.0512,-3.1986,-2.8914,-35.7,-10.95,15.0,9.3613,-4.9536,-0.6225,0.1809,-2.541,-3.4547,-66.15,-39.6,-27.45,11.68,1.79,-9.84,-0.0785,-4.1539,-1.2545,-65.6875,43.375,46.0,297.8125,19.5,173.5,0
1776970498.749,10.3286,0.9529,-1.3719,0.7186,-3.1032,-2.8432,-35.7,-10.95,15.0,9.3685,-3.0981,-0.2753,0.114,-2.3113,-3.4667,-67.35,-38.85,-27.45,11.14,1.92,-9.46,-0.1887,-3.9128,-1.1945,-65.6875,43.375,46.0,297.0625,17.5625,173.875,0
1776970498.759,9.5792,1.9082,-0.1676,0.429,-3.0651,-2.6814,-35.7,-9.45,15.45,9.0094,-1.1827,0.6752,-0.0256,-2.0491,-3.3409,-68.4,-38.55,-29.7,10.97,1.42,-9.13,-0.216,-3.6652,-1.1541,-65.6875,43.375,46.0,297.0625,17.5625,173.875,0
1776970498.764,9.5792,1.9082,-0.1676,0.429,-3.0651,-2.6814,-35.7,-9.45,15.45,9.0094,-1.1827,0.6752,-0.0256,-2.0491,-3.3409,-70.35,-36.9,-29.4,10.97,1.42,-9.13,-0.216,-3.6652,-1.1541,-65.6875,43.375,46.0,296.375,15.75,174.3125,0
1776970498.769,9.2464,3.7589,-0.9673,0.3336,-2.8677,-2.4181,-35.7,-9.45,15.45,9.8809,0.0287,2.0734,-0.0951,-1.9111,-3.1083,-70.35,-36.9,-29.4,11.06,-1.91,-7.85,-0.2509,-3.4656,-1.1476,-41.0,43.0625,55.75,296.375,15.75,174.3125,0
1776970498.774,9.2464,3.7589,-0.9673,0.3336,-2.8677,-2.4181,-35.1,-7.5,12.45,9.8809,0.0287,2.0734,-0.0951,-1.9111,-3.1083,-71.1,-36.9,-29.7,11.06,-1.91,-7.85,-0.2509,-3.4656,-1.1476,-41.0,43.0625,55.75,296.375,15.75,174.3125,0
1776970498.779,8.6311,2.4469,-3.4716,0.2467,-2.5775,-2.1352,-35.1,-7.5,12.45,10.3956,1.1899,-2.0039,0.0695,-1.9007,-2.8005,-71.1,-36.9,-29.7,10.62,-3.64,-7.6,-0.3251,-3.3478,-1.2315,-41.0,43.0625,55.75,295.625,13.9375,174.6875,0
1776970498.787,7.8626,2.0279,-3.3591,0.5987,-2.3563,-1.938,-35.7,-7.2,11.55,9.074,0.1867,-1.8507,-0.0045,-1.6459,-2.4139,-71.7,-36.3,-29.85,10.82,-3.16,-6.69,-0.5345,-3.399,-1.3439,-41.0,43.0625,55.75,294.8125,12.125,175.1875,0
1776970498.792,7.8626,2.0279,-3.3591,0.5987,-2.3563,-1.938,-35.1,-5.25,11.4,9.074,0.1867,-1.8507,-0.0045,-1.6459,-2.4139,-71.7,-36.3,-29.85,10.82,-3.16,-6.69,-0.5345,-3.399,-1.3439,-41.0,43.0625,55.75,294.1875,10.4375,175.75,0
1776970498.799,7.106,2.2793,-2.9281,0.5537,-2.0334,-1.7371,-36.0,-4.65,9.3,8.4635,0.7566,-2.0806,0.0088,-1.4746,-2.1224,-71.7,-36.3,-29.85,10.72,-0.04,-4.05,-0.6523,-3.1176,-1.129,-41.0,43.0625,55.75,293.5625,9.25,175.9375,0
1776970498.809,6.1339,2.5522,-3.5745,0.2659,-1.6702,-1.4791,-35.55,-2.55,9.9,7.7883,1.4653,-2.7342,0.0517,-1.2113,-1.8317,-71.1,-32.55,-30.15,11.6,-1.58,-4.04,-0.2062,-2.2591,-0.9828,-41.0,43.0625,55.75,293.5625,9.25,175.9375,0
1776970498.814,6.1339,2.5522,-3.5745,-0.0352,-1.2161,-1.1807,-35.55,-2.55,9.9,7.8027,2.3631,-3.6224,-0.0674,-0.7989,-1.505,-71.1,-32.55,-30.15,11.6,-1.58,-4.04,-0.2062,-2.2591,-0.9828,-41.0,43.0625,55.75,293.5625,9.25,175.9375,0
1776970498.819,5.5498,2.7414,-4.5681,-0.0352,-1.2161,-1.1807,-35.55,-2.55,9.9,7.8027,2.3631,-3.6224,-0.0674,-0.7989,-1.505,-71.1,-32.55,-30.15,11.84,-2.98,-2.94,0.1669,-1.8937,-0.6687,-28.5,37.75,51.0625,293.1875,8.25,175.9375,0
1776970498.824,5.3678,2.8922,-4.7716,-0.0466,-0.7733,-0.8556,-35.55,-2.55,9.9,8.1116,2.6049,-4.0151,-0.0906,-0.4674,-1.0467,-73.05,-32.25,-30.45,11.84,-2.98,-2.94,0.1669,-1.8937,-0.6687,-28.5,37.75,51.0625,293.1875,8.25,175.9375,0
1776970498.829,5.3678,2.8922,-4.7716,-0.0466,-0.7733,-0.8556,-36.0,-2.7,9.0,8.1116,2.6049,-4.0151,-0.0906,-0.4674,-1.0467,-73.05,-32.25,-30.45,12.1,-5.56,0.97,0.312,-2.0453,-0.42,-28.5,37.75,51.0625,292.875,7.125,175.8125,0
1776970498.834,6.0454,2.2625,-3.6488,0.0858,-0.3754,-0.5582,-36.0,-2.7,9.0,7.9799,1.3815,-2.7845,-0.0959,-0.2523,-0.6083,-73.2,-31.65,-31.05,12.1,-5.56,0.97,0.0742,-1.8926,-0.2313,-28.5,37.75,51.0625,292.6875,6.0625,175.75,0
1776970498.84,6.0454,2.2625,-3.6488,0.0858,-0.3754,-0.5582,-35.4,-2.4,9.3,7.9799,1.3815,-2.7845,-0.0959,-0.2523,-0.6083,-73.2,-31.65,-31.05,11.31,-4.69,2.18,0.0742,-1.8926,-0.2313,-28.5,37.75,51.0625,292.625,5.375,176.0,0
1776970498.849,6.8546,1.6209,-1.9441,0.0781,-0.0557,-0.3054,-37.2,-0.45,8.7,7.8506,0.0239,-1.2785,-0.0701,-0.0608,-0.2785,-74.55,-32.25,-30.15,9.81,-2.98,2.54,-0.4407,-1.3188,-0.1134,-28.5,37.75,51.0625,292.6875,5.0,176.4375,0
1776970498.859,7.5824,1.0965,-1.2282,-0.1338,0.2417,-0.1338,-35.7,-0.15,7.65,7.6447,-1.2953,-0.3328,-0.1045,0.1841,-0.0671,-73.95,-32.85,-30.3,8.32,-1.9,2.17,-0.7407,-0.649,0.0764,-28.5,37.75,51.0625,292.6875,5.0,176.4375,0
1776970498.864,7.8051,0.7183,-1.2689,-0.3552,0.4005,-0.0458,-35.7,-0.15,7.65,7.2281,-2.3272,-0.9337,-0.1988,0.4104,0.0312,-73.95,-31.65,-30.3,8.32,-1.9,2.17,-0.7407,-0.649,0.0764,-28.5,37.75,51.0625,292.875,4.9375,176.8125,0
1776970498.869,7.8051,0.7183,-1.2689,-0.3552,0.4005,-0.0458,-37.05,-0.3,9.6,7.2281,-2.3272,-0.9337,-0.1988,0.4104,0.0312,-73.95,-31.65,-30.3,6.26,-1.01,0.86,-0.6763,-0.0578,0.2934,-25.6875,32.5625,50.0,292.875,4.9375,176.8125,0
1776970498.874,7.6136,0.3855,-1.1779,-0.5438,0.4687,-0.0005,-37.05,-0.3,9.6,7.3334,-2.4876,-0.0359,-0.3813,0.6616,0.0706,-73.35,-32.25,-29.7,6.26,-1.01,0.86,-0.6763,-0.0578,0.2934,-25.6875,32.5625,50.0,293.125,5.1875,177.0625,0
1776970498.879,7.6136,0.3855,-1.1779,-0.5438,0.4687,-0.0005,-37.05,-0.3,9.6,7.3334,-2.4876,-0.0359,-0.3813,0.6616,0.0706,-73.35,-32.25,-29.7,6.19,-0.9,-0.07,-0.5171,0.5138,0.456,-25.6875,32.5625,50.0,293.125,5.1875,177.0625,0
1776970498.887,7.2568,0.565,-1.1492,-0.7911,0.5556,0.0698,-35.85,0.3,11.4,7.1635,-2.1117,-0.0096,-0.3389,0.7578,0.1348,-75.9,-30.9,-30.3,6.59,-0.89,-1.15,-0.4091,1.0461,0.5596,-25.6875,32.5625,50.0,293.5,5.75,177.25,0
1776970498.892,7.0701,0.3519,-0.8906,-0.9363,0.7155,0.1743,-35.85,0.3,11.4,6.9647,-2.1572,-0.0359,-0.5678,0.9598,0.2398,-74.85,-30.3,-28.2,6.59,-0.89,-1.15,-0.4091,1.0461,0.5596,-25.6875,32.5625,50.0,293.875,6.5625,177.375,0
1776970498.9,7.0701,0.3519,-0.8906,-0.9363,0.7155,0.1743,-35.1,0.3,8.85,6.9623,-2.2577,0.0886,-0.5678,0.9598,0.2398,-74.85,-30.3,-28.2,8.39,-1.35,-3.36,-0.3414,1.4519,0.649,-25.6875,32.5625,50.0,294.3125,7.5,177.5,0
1776970498.909,7.0725,0.2777,-0.6129,-0.9683,0.8796,0.2907,-37.65,2.25,9.15,6.8809,-2.3272,0.2945,-0.5809,1.0733,0.3914,-74.85,-30.3,-28.2,9.11,-1.35,-4.47,-0.3142,1.6864,0.7461,-25.6875,32.5625,50.0,294.3125,7.5,177.5,0
1776970498.914,7.173,0.2011,-0.3591,-0.9713,1.0387,0.4122,-37.65,2.25,9.15,6.8809,-2.3272,0.2945,-0.5561,1.1914,0.5383,-76.95,-31.65,-27.3,9.11,-1.35,-4.47,-0.3142,1.6864,0.7461,-25.6875,32.5625,50.0,294.8125,8.375,177.625,0
1776970498.919,7.173,0.2011,-0.3591,-0.9713,1.0387,0.4122,-37.5,0.9,11.1,6.7995,-2.624,0.3663,-0.5561,1.1914,0.5383,-76.95,-31.65,-27.3,9.43,-1.45,-5.04,-0.3087,1.6995,0.8847,-25.0,30.0,50.5,294.8125,8.375,177.625,0
1776970498.924,7.3167,-0.0263,-0.4238,-0.9792,1.194,0.5124,-37.5,0.9,11.1,6.7995,-2.624,0.3663,-0.551,1.3278,0.6757,-76.95,-31.65,-27.3,9.43,-1.45,-5.04,-0.3087,1.6995,0.8847,-25.0,30.0,50.5,294.8125,8.375,177.625,0
1776970498.929,7.3167,-0.0263,-0.4238,-0.9792,1.194,0.5124,-39.0,0.9,10.05,6.869,-3.0861,0.3328,-0.5636,1.4309,0.7703,-76.95,-31.65,-27.3,8.74,-1.63,-5.43,-0.3305,1.5643,1.0417,-25.0,30.0,50.5,295.4375,9.25,177.6875,0
1776970498.934,7.6327,-0.3089,-0.4357,-1.0307,1.3187,0.5726,-39.0,0.9,10.05,6.869,-3.0861,0.3328,-0.5636,1.4309,0.7703,-76.2,-31.2,-27.75,8.74,-1.63,-5.43,-0.4025,1.4028,1.1803,-25.0,30.0,50.5,296.125,10.0,177.8125,0
1776970498.94,7.7716,-0.6823,-0.4717,-1.153,1.3917,0.6081,-39.0,0.9,10.05,6.7301,-3.7373,0.4549,-0.652,1.5399,0.8178,-76.2,-31.2,-27.75,7.77,-1.58,-4.97,-0.4025,1.4028,1.1803,-25.0,30.0,50.5,296.875,10.6875,178.0,0
1776970498.949,7.7716,-0.6823,-0.4717,-1.2982,1.4218,0.6158,-38.25,0.45,11.85,6.6702,-4.0941,0.5794,-0.7677,1.6377,0.8388,-78.0,-30.3,-27.45,6.87,-1.38,-4.47,-0.5454,1.3112,1.2806,-25.0,30.0,50.5,296.875,10.6875,178.0,0
1776970498.959,7.6207,-1.0726,-0.1149,-1.4799,1.4456,0.6075,-39.9,2.25,12.0,6.4404,-4.3215,0.7326,-0.9433,1.6955,0.8266,-76.5,-31.05,-26.1,6.23,-1.08,-4.08,-0.7396,1.3668,1.3461,-25.0,30.0,50.5,297.6875,11.4375,178.25,0
1776970498.964,7.6207,-1.0726,-0.1149,-1.4799,1.4456,0.6075,-39.9,2.25,12.0,6.4404,-4.3215,0.7326,-0.9433,1.6955,0.8266,-76.95,-32.4,-24.75,6.23,-1.08,-4.08,-0.7396,1.3668,1.3461,-25.0,30.0,50.5,297.6875,11.4375,178.25,0
1776970498.969,7.6423,-1.0439,0.0455,-1.6545,1.461,0.5995,-39.15,1.05,12.75,6.1268,-4.4293,0.8619,-1.1029,1.7914,0.7909,-76.95,-32.4,-24.75,5.84,-0.39,-3.92,-0.9348,1.5173,1.3854,-28.6875,28.375,49.6875,298.5,12.25,178.625,0
1776970498.974,7.6423,-1.0439,0.0455,-1.6545,1.461,0.5995,-39.15,1.05,12.75,6.1268,-4.4293,0.8619,-1.1029,1.7914,0.7909,-77.4,-30.9,-26.55,5.84,-0.39,-3.92,-0.9348,1.5173,1.3854,-28.6875,28.375,49.6875,298.5,12.25,178.625,0
1776970498.978,7.7285,-0.7278,0.2777,-1.7685,1.4813,0.5809,-40.2,1.05,13.5,6.3997,-4.2569,1.1349,-1.2031,1.8684,0.7536,-77.4,-30.9,-26.55,6.1,-0.09,-4.26,-1.0974,1.717,1.4148,-28.6875,28.375,49.6875,299.375,13.1875,179.0,0
1776970498.983,7.7285,-0.7278,0.2777,-1.7685,1.4813,0.5809,-40.2,1.05,13.5,6.3997,-4.2569,1.1349,-1.2031,1.8684,0.7536,-78.45,-31.95,-24.75,6.1,-0.09,-4.26,-1.1846,1.8871,1.4519,-28.6875,28.375,49.6875,300.25,14.25,179.5,0
1776970498.99,8.0661,-0.2969,0.5698,-1.8032,1.4973,0.5889,-40.2,1.05,13.5,6.7971,-3.9025,1.4413,-1.2692,1.906,0.748,-78.45,-31.95,-24.75,6.36,0.13,-4.63,-1.1846,1.8871,1.4519,-28.6875,28.375,49.6875,301.1875,15.3125,179.9375,0
1776970498.999,8.3797,0.2083,0.8978,-1.7437,1.4981,0.6043,-40.2,1.05,13.5,7.2808,-3.5985,1.8268,-1.2271,1.8985,0.765,-78.45,-31.95,-24.75,7.01,0.11,-5.58,-1.2043,2.0028,1.4933,-28.6875,28.375,49.6875,301.1875,15.3125,179.9375,0
1776970499.009,8.8298,0.6177,0.9098,-1.6252,1.5026,0.6302,-40.5,0.9,15.45,7.6662,-3.3662,1.9992,-1.129,1.8559,0.7962,-77.7,-32.85,-22.95,7.21,0.04,-6.01,-1.2021,2.0791,1.5152,-28.6875,28.375,49.6875,302.125,16.5,-179.5625,0
1776970499.014,8.8298,0.6177,0.9098,-1.6252,1.5026,0.6302,-40.5,0.9,15.45,7.6662,-3.3662,1.9992,-1.129,1.8559,0.7962,-77.7,-32.85,-22.95,7.21,0.04,-6.01,-1.2021,2.0791,1.5152,-28.6875,28.375,49.6875,303.0625,17.6875,-179.1875,0
1776970499.019,9.1387,0.7087,0.6608,-1.4879,1.5106,0.667,-41.4,1.05,14.85,8.2456,-3.2537,2.2458,-1.0003,1.8029,0.838,-77.7,-32.85,-22.95,7.21,0.0,-6.28,-1.1825,2.0911,1.5064,-30.5,27.75,49.375,303.0625,17.6875,-179.1875,0
1776970499.024,9.1387,0.7087,0.6608,-1.4879,1.5106,0.667,-41.7,0.75,14.85,8.2456,-3.2537,2.2458,-1.0003,1.8029,0.838,-77.55,-33.45,-23.4,7.21,0.0,-6.28,-1.1825,2.0911,1.5064,-30.5,27.75,49.375,303.0625,17.6875,-179.1875,0
1776970499.029,9.2129,0.6512,0.4645,-1.3169,1.5047,0.6896,-41.7,0.75,16.65,8.509,-3.237,2.0016,-0.8615,1.6859,0.8903,-77.55,-33.45,-23.4,7.07,0.3,-6.7,-1.1454,2.0628,1.4508,-30.5,27.75,49.375,303.9375,18.8125,-178.8125,0
1776970499.034,9.2129,0.6512,0.4645,-1.3169,1.5047,0.6896,-43.5,1.5,15.3,8.5449,-3.4453,1.8364,-0.8615,1.6859,0.8903,-77.55,-33.45,-23.4,7.07,0.3,-6.7,-1.0745,2.0159,1.3483,-30.5,27.75,49.375,304.75,19.9375,-178.4375,0
1776970499.04,9.2727,0.3974,0.4022,-1.1479,1.5391,0.7123,-43.5,1.5,15.3,8.5449,-3.4453,1.8364,-0.7797,1.5815,0.9603,-77.55,-33.45,-23.4,7.11,0.5,-6.86,-1.0745,2.0159,1.3483,-30.5,27.75,49.375,305.5,21.0625,-178.1875,0
1776970499.049,9.347,0.2251,0.6632,-0.9936,1.5812,0.745,-43.5,1.5,15.3,8.5952,-3.5865,1.7837,-0.6291,1.4509,1.0251,-78.15,-34.05,-22.95,7.51,0.59,-7.15,-0.9752,1.9799,1.2032,-30.5,27.75,49.375,306.1875,22.1875,-177.875,0
1776970499.06,9.1602,0.1867,0.2298,-0.8684,1.6188,0.8068,-41.1,0.15,17.85,8.2073,-3.5362,1.7166,-0.4596,1.4727,1.0901,-78.0,-34.5,-21.15,8.12,0.63,-7.65,-0.8803,1.9439,1.0145,-30.5,27.75,49.375,306.1875,22.1875,-177.875,0
1776970499.064,9.1602,0.1867,0.2298,-0.8684,1.6188,0.8068,-42.6,1.2,19.05,8.4467,-3.6416,0.747,-0.3112,1.4109,1.1932,-78.15,-35.55,-21.0,8.12,0.63,-7.65,-0.8803,1.9439,1.0145,-30.5,27.75,49.375,306.1875,22.1875,-177.875,0
1776970499.069,8.4372,-0.1221,0.0958,-0.4522,1.6904,0.8335,-42.6,1.2,19.05,8.4467,-3.6416,0.747,-0.3112,1.4109,1.1932,-78.15,-35.55,-21.0,10.28,0.46,-9.23,-0.8127,1.8413,0.7309,-35.5,26.25,45.6875,306.625,23.1875,-177.5625,0
1776970499.074,8.4372,-0.1221,0.0958,-0.4522,1.6904,0.8335,-42.9,0.45,19.65,8.7987,-2.7581,2.5115,0.0847,1.5588,1.3123,-78.3,-35.7,-20.55,10.28,0.46,-9.23,-0.8127,1.8413,0.7309,-35.5,26.25,45.6875,306.625,23.1875,-177.5625,0
1776970499.079,11.0421,7.5369,2.1261,-0.1511,1.6441,0.8527,-42.9,0.45,19.65,8.7987,-2.7581,2.5115,0.0847,1.5588,1.3123,-78.3,-35.7,-20.55,8.0,6.91,-12.73,-0.7679,1.6504,0.3338,-35.5,26.25,45.6875,306.875,24.125,-177.1875,0
1776970499.087,18.6245,17.6572,-4.8698,-1.8823,2.1607,0.5116,-44.1,0.45,20.4,15.0859,4.367,4.3958,0.0189,2.2655,0.688,-78.3,-34.95,-20.55,-17.37,31.37,-28.04,0.0447,2.6594,1.1639,-35.5,26.25,45.6875,307.5,25.625,-177.5,0
1776970499.092,18.6245,17.6572,-4.8698,-1.8823,2.1607,0.5116,-44.1,0.45,20.4,24.4137,6.8546,3.5865,0.0189,2.2655,0.688,-78.3,-34.95,-20.55,-17.37,31.37,-28.04,0.0447,2.6594,1.1639,-35.5,26.25,45.6875,309.3125,29.8125,-178.6875,0
1776970499.1,26.7672,23.6212,-27.9571,-2.7683,0.5161,-0.672,-43.5,-0.75,20.55,24.4137,6.8546,3.5865,0.0282,2.5365,-0.6097,-79.05,-35.4,-19.8,-2.67,13.12,-36.69,0.3567,7.3926,3.5103,-35.5,26.25,45.6875,310.25,31.4375,179.375,0
1776970499.11,27.4735,-0.249,-17.1976,1.7389,-1.6835,-1.9257,-43.5,-0.75,20.55,39.2254,3.7948,-11.1833,-0.1037,0.7746,-2.3502,-79.05,-35.4,-19.8,-1.64,-21.2,-19.8,2.1293,2.9605,2.2733,-35.5,26.25,45.6875,310.25,31.4375,179.375,0
1776970499.115,14.0995,-0.1389,-6.2297,8.7312,-1.4615,-1.9947,-45.0,1.5,19.95,22.0913,-6.7349,-11.4036,3.7502,-5.471,-1.0698,-80.25,-34.95,-18.3,-1.64,-21.2,-19.8,2.1293,2.9605,2.2733,-40.25,26.25,42.875,309.875,29.125,176.8125,0
1776970499.12,14.0995,-0.1389,-6.2297,8.7312,-1.4615,-1.9947,-45.0,1.5,19.95,22.0913,-6.7349,-11.4036,3.7502,-5.471,-1.0698,-80.25,-34.95,-18.3,-4.22,-31.31,3.23,4.3393,-4.2117,0.4636,-40.25,26.25,42.875,309.875,29.125,176.8125,0
1776970499.125,9.2584,-8.1427,-0.6919,7.721,0.5247,-1.7211,-44.85,2.4,19.35,6.7301,-0.1125,-7.4795,5.4564,-4.3289,-0.5617,-80.25,-34.95,-18.3,-4.22,-31.31,3.23,4.3393,-4.2117,0.4636,-40.25,26.25,42.875,309.125,28.0,174.3125,0
1776970499.13,9.2584,-8.1427,-0.6919,7.721,0.5247,-1.7211,-44.85,2.4,19.35,6.7301,-0.1125,-7.4795,5.4564,-4.3289,-0.5617,-80.25,-34.95,-18.3,4.51,-14.05,0.73,4.6546,-1.9308,-0.048,-40.25,26.25,42.875,309.125,28.0,174.3125,0
1776970499.135,9.3446,-6.9695,-4.9847,4.9575,1.4032,-0.9795,-44.25,1.5,21.0,5.4708,-5.272,-5.1834,5.9069,-1.9577,0.1156,-79.8,-34.95,-19.35,4.51,-14.05,0.73,1.537,4.7298,0.5411,-40.25,26.25,42.875,309.3125,30.625,173.125,0
1776970499.14,9.3446,-6.9695,-4.9847,4.9575,1.4032,-0.9795,-44.25,1.5,21.0,8.9902,-14.6669,-1.6951,5.9069,-1.9577,0.1156,-79.8,-34.95,-19.35,17.31,-9.57,-18.4,1.537,4.7298,0.5411,-40.25,26.25,42.875,308.9375,31.8125,172.8125,0
1776970499.15,13.6062,-14.6046,0.4453,1.9095,0.7799,-0.1868,-44.25,1.5,24.9,4.6591,-12.1314,-3.9217,4.1656,-0.1663,0.3882,-80.25,-34.5,-16.8,9.77,-13.28,-12.22,0.7559,2.114,-0.5869,-40.25,26.25,42.875,308.9375,31.8125,172.8125,0
1776970499.16,8.6048,-3.3016,-3.4572,0.0346,1.1687,0.089,-44.85,1.65,23.25,9.8713,0.328,2.3272,2.4626,1.1391,0.6249,-79.5,-34.95,-16.05,3.95,-11.07,-4.3,0.048,-1.6853,-0.0458,-40.25,26.25,42.875,308.875,30.875,172.875,0
1776970499.165,7.2137,3.9073,-1.7238,-0.8684,1.1295,0.3659,-44.85,1.65,23.25,9.8713,0.328,2.3272,1.7317,1.1826,0.652,-79.05,-34.95,-14.85,3.95,-11.07,-4.3,0.048,-1.6853,-0.0458,-40.25,26.25,42.875,308.875,30.875,172.875,0
1776970499.17,7.2137,3.9073,-1.7238,-0.8684,1.1295,0.3659,-44.85,1.65,23.25,7.5824,0.0311,0.5578,0.5311,1.0651,0.8013,-79.05,-34.95,-14.85,6.63,8.55,-11.22,0.3763,0.3731,0.1462,-42.6875,34.1875,34.375,308.875,31.0625,172.625,0
1776970499.174,7.7979,6.9887,-2.9425,-0.085,1.1599,0.7141,-44.4,2.7,25.35,7.5824,0.0311,0.5578,0.5311,1.0651,0.8013,-80.25,-34.95,-14.85,6.63,8.55,-11.22,0.3763,0.3731,0.1462,-42.6875,34.1875,34.375,308.875,31.0625,172.625,0
1776970499.179,7.7979,6.9887,-2.9425,-0.085,1.1599,0.7141,-44.4,2.7,25.35,12.0764,5.1763,-0.8715,0.6901,1.4645,0.8777,-80.25,-34.95,-14.85,5.2,-1.02,-7.31,0.8519,0.1647,-0.0065,-42.6875,34.1875,34.375,308.75,31.1875,172.125,0
1776970499.186,9.0022,11.0229,-6.9552,1.0581,1.174,0.8316,-44.85,1.95,26.1,12.0764,5.1763,-0.8715,0.6901,1.4645,0.8777,-78.9,-37.5,-13.95,3.42,-2.38,-6.6,0.8399,-1.0287,-0.1331,-42.6875,34.1875,34.375,308.5625,30.625,171.75,0
1776970499.191,9.0022,11.0229,-6.9552,1.0581,1.174,0.8316,-44.85,1.95,26.1,14.0348,9.7827,-5.6216,2.5319,-0.4333,0.841,-78.9,-37.5,-13.95,3.42,-2.38,-6.6,0.8399,-1.0287,-0.1331,-42.6875,34.1875,34.375,308.4375,30.625,171.75,0
1776970499.2,6.2034,13.1944,-8.6024,2.1397,0.9334,0.2137,-45.15,0.45,26.4,10.0748,10.5393,-2.0016,3.0419,-1.3011,0.4207,-77.7,-37.5,-13.2,4.26,-0.64,-8.53,0.0611,-0.0229,-0.1265,-42.6875,34.1875,34.375,308.4375,30.9375,171.9375,0
1776970499.21,4.4221,11.8345,-4.2162,2.7467,1.0083,-0.3922,-43.95,0.3,27.3,7.4172,6.28,0.8978,2.6716,-0.101,0.2862,-79.35,-38.25,-11.1,3.98,-1.09,-8.76,-0.2149,0.5683,-0.1505,-42.6875,34.1875,34.375,308.4375,30.9375,171.9375,0
1776970499.215,5.7365,5.4779,-2.8252,2.3062,1.1053,-0.3858,-44.55,0.3,27.75,7.4172,6.28,0.8978,2.6716,-0.101,0.2862,-79.35,-38.25,-11.1,3.98,-1.09,-8.76,-0.2149,0.5683,-0.1505,-42.6875,34.1875,34.375,308.4375,30.9375,171.9375,0
1776970499.22,5.7365,5.4779,-2.8252,2.3062,1.1053,-0.3858,-44.55,0.3,27.75,7.6543,0.0287,1.0439,1.8293,0.5886,0.3667,-79.35,-38.25,-11.1,2.66,0.69,-7.79,-0.2618,0.3949,-0.0284,-43.1875,34.5,34.75,308.4375,31.125,172.0625,0
1776970499.225,7.7309,-0.5267,-1.1779,1.5116,0.9713,-0.3195,-44.55,0.3,27.75,7.6543,0.0287,1.0439,1.8293,0.5886,0.3667,-79.35,-38.25,-9.9,2.66,0.69,-7.79,-0.2618,0.3949,-0.0284,-43.1875,34.5,34.75,308.4375,31.125,172.0625,0
1776970499.23,7.7309,-0.5267,-1.1779,0.4477,0.9361,-0.1972,-44.55,0.3,27.75,7.7357,-4.4197,2.9425,1.0957,0.2803,0.3376,-79.35,-38.25,-9.9,1.79,1.29,-5.92,-0.2083,0.3643,0.1833,-43.1875,34.5,34.75,308.625,31.3125,172.0625,0
1776970499.235,10.1849,-3.8188,1.2306,0.4477,0.9361,-0.1972,-45.15,0.9,27.9,7.7357,-4.4197,2.9425,1.0957,0.2803,0.3376,-79.35,-38.25,-9.9,1.79,1.29,-5.92,-0.3862,1.357,0.3087,-43.1875,34.5,34.75,308.875,32.0625,172.125,0
1776970499.241,12.3421,-3.4764,1.47,-0.6472,0.8412,0.1034,-45.45,0.9,29.25,8.1882,-9.9695,3.7637,-0.1204,0.6219,0.3941,-79.35,-38.25,-9.9,4.48,-0.12,-7.21,-0.3862,1.357,0.3087,-43.1875,34.5,34.75,309.3125,33.4375,172.1875,0
1776970499.25,11.6765,-2.1237,2.5379,-1.2915,0.7983,0.2257,-45.45,0.9,29.25,8.3797,-8.8538,2.2577,-1.626,1.3853,0.385,-78.9,-37.05,-8.4,7.27,-0.23,-9.91,-0.5967,2.5176,0.3916,-43.1875,34.5,34.75,309.3125,33.4375,172.1875,0
1776970499.26,11.4467,0.2514,1.2833,-1.6068,0.9382,0.3493,-45.3,1.5,30.15,10.2472,-6.122,3.2106,-1.1636,1.7158,0.3488,-79.05,-38.55,-9.3,10.31,-5.26,-12.5,-0.3349,2.2198,0.2869,-43.1875,34.5,34.75,309.5625,34.625,172.1875,0
1776970499.265,11.4467,0.2514,1.2833,-1.6068,0.9382,0.3493,-45.3,1.5,30.15,9.8474,-4.1037,2.7916,-1.1636,1.7158,0.3488,-79.05,-37.65,-9.3,10.31,-5.26,-12.5,-0.3349,2.2198,0.2869,-43.1875,34.5,34.75,309.6875,35.0,171.9375,0
1776970499.27,10.7332,2.6288,0.4956,-1.3949,0.8601,0.307,-45.3,1.5,30.15,9.8474,-4.1037,2.7916,-1.279,1.7952,0.3509,-79.05,-37.65,-9.3,5.77,-0.79,-9.02,0.2236,0.6938,0.1854,-44.0,34.875,33.5625,309.6875,35.0,171.9375,0
1776970499.275,10.7332,2.6288,0.4956,-1.3949,0.8601,0.307,-45.3,1.5,30.15,11.2288,-0.9385,3.62,-1.279,1.7952,0.3509,-79.05,-37.65,-9.3,5.77,-0.79,-9.02,0.2236,0.6938,0.1854,-44.0,34.875,33.5625,309.6875,35.0,171.9375,0
1776970499.28,9.675,4.7645,0.3496,-1.0267,0.676,0.2886,-45.3,1.5,30.15,11.2288,-0.9385,3.62,-1.0251,1.5407,0.3336,-77.4,-39.0,-11.1,6.63,-1.61,-8.6,0.2476,0.1865,0.2203,-44.0,34.875,33.5625,309.75,35.0625,171.6875,0
1776970499.286,9.675,4.7645,0.3496,-1.0267,0.676,0.2886,-45.3,1.5,30.15,10.3621,0.984,3.371,-0.5353,0.7802,0.3629,-78.0,-38.1,-8.7,6.6,-1.53,-7.84,0.3709,0.2138,0.0676,-44.0,34.875,33.5625,309.75,35.1875,171.4375,0
1776970499.291,8.3199,5.5138,-0.735,-0.6283,0.6571,0.3477,-45.15,0.9,31.5,10.3621,0.984,3.371,-0.5353,0.7802,0.3629,-78.0,-38.1,-8.7,6.6,-1.53,-7.84,0.3709,0.2138,0.0676,-44.0,34.875,33.5625,309.6875,35.1875,171.25,0
1776970499.3,8.2552,6.0693,-1.1301,-0.2249,0.6896,0.3685,-45.75,-1.05,30.15,9.754,1.9896,1.7023,-0.2822,0.7346,0.4343,-77.55,-38.55,-9.75,5.3,-1.02,-7.94,0.3163,0.0425,0.048,-44.0,34.875,33.5625,309.6875,35.1875,171.0625,0
1776970499.31,8.3199,5.5378,-2.1428,0.1769,0.7147,0.3581,-43.65,-0.45,31.5,9.9982,2.3846,0.9936,0.3112,0.5596,0.4786,-77.55,-38.55,-9.75,5.56,-1.01,-7.99,0.3131,0.0033,0.0316,-44.0,34.875,33.5625,309.6875,35.1875,171.0625,0
1776970499.315,8.3199,5.5378,-2.1428,0.1769,0.7147,0.3581,-43.65,-0.45,31.5,10.1155,1.312,0.3519,0.5646,0.3571,0.5097,-77.55,-38.55,-9.75,5.56,-1.01,-7.99,0.3131,0.0033,0.0316,-44.0,34.875,33.5625,309.6875,35.1875,171.0625,0
1776970499.32,8.9399,4.4939,-2.2673,0.3741,0.7136,0.2912,-46.65,0.15,32.1,10.1155,1.312,0.3519,0.5646,0.3571,0.5097,-76.95,-39.45,-7.65,5.35,-1.22,-8.17,0.2214,0.0229,-0.0076,-45.75,35.25,30.5625,309.625,35.1875,170.9375,0
1776970499.325,8.9399,4.4939,-2.2673,0.3741,0.7136,0.2912,-46.65,0.15,32.1,9.8593,0.0383,0.9313,0.4386,0.4239,0.5002,-76.95,-39.45,-7.65,5.35,-1.22,-8.17,0.2214,0.0229,-0.0076,-45.75,35.25,30.5625,309.625,35.1875,170.9375,0
1776970499.33,9.1578,3.1939,-1.8435,0.1924,0.6664,0.2713,-46.65,0.15,32.1,9.8593,0.0383,0.9313,0.4386,0.4239,0.5002,-76.95,-39.45,-7.65,5.5,-0.95,-7.6,0.1331,0.1353,-0.0087,-45.75,35.25,30.5625,309.625,35.3125,170.875,0
1776970499.335,9.1578,3.1939,-1.8435,0.1924,0.6664,0.2713,-46.65,0.15,32.1,9.5553,-1.2234,1.3647,0.133,0.3946,0.437,-77.7,-38.7,-6.9,5.5,-0.95,-7.6,0.0971,0.1734,0.0218,-45.75,35.25,30.5625,309.625,35.375,170.8125,0
1776970499.341,9.1267,2.229,-1.1516,-0.1919,0.6129,0.3008,-45.3,0.75,31.95,9.5553,-1.2234,1.3647,0.133,0.3946,0.437,-77.7,-38.7,-6.9,4.9,-0.97,-8.05,0.0971,0.1734,0.0218,-45.75,35.25,30.5625,309.625,35.5625,170.75,0
1776970499.35,9.335,1.2402,-0.5004,-0.6496,0.6182,0.3909,-46.2,-1.95,32.1,9.2273,-2.0327,1.6807,-0.3243,0.551,0.4477,-77.7,-38.7,-6.9,5.23,-0.97,-8.2,-0.0251,0.3523,0.0164,-45.75,35.25,30.5625,309.625,35.5625,170.75,0
1776970499.36,9.6319,0.9313,-0.2011,-1.0451,0.6219,0.4847,-45.0,-1.5,31.65,8.9519,-3.0406,2.0901,-0.9585,0.737,0.493,-75.6,-40.05,-7.95,5.56,-1.05,-7.94,-0.072,0.5727,-0.0349,-45.75,35.25,30.5625,309.6875,35.875,170.8125,0
1776970499.365,9.6319,0.9313,-0.2011,-1.0451,0.6219,0.4847,-45.0,-1.5,31.65,8.9232,-3.2561,1.5179,-1.2481,0.8969,0.4876,-75.6,-40.05,-7.95,5.56,-1.05,-7.94,-0.072,0.5727,-0.0349,-45.75,35.25,30.5625,309.6875,36.25,170.8125,0
1776970499.37,9.6534,1.2426,-0.3519,-1.3265,0.6126,0.5372,-44.25,-0.3,33.0,9.1459,-2.7078,1.3288,-1.2481,0.8969,0.4876,-77.25,-40.8,-5.7,6.05,-0.93,-7.71,-0.0698,0.6567,-0.0709,-46.875,35.5625,30.1875,309.6875,36.25,170.8125,0
1776970499.375,9.6989,1.8076,-0.0934,-1.3155,0.6097,0.5289,-44.25,-0.3,33.0,9.1459,-2.7078,1.3288,-1.3246,1.0869,0.4967,-77.25,-40.8,-5.7,6.05,-0.93,-7.71,-0.0698,0.6567,-0.0709,-46.875,35.5625,30.1875,309.6875,36.5625,170.8125,0
1776970499.38,9.6989,1.8076,-0.0934,-1.3155,0.6097,0.5289,-44.1,-0.9,33.3,9.6965,-2.3918,2.0877,-1.3246,1.0869,0.4967,-76.65,-40.65,-7.65,6.04,-1.11,-7.89,-0.0382,0.5727,-0.0109,-46.875,35.5625,30.1875,309.6875,36.5625,170.8125,0
1776970499.386,9.8857,2.2218,0.0024,-1.1327,0.5891,0.5103,-44.1,-0.9,33.3,9.6965,-2.3918,2.0877,-1.1271,0.9553,0.4831,-76.5,-41.55,-6.45,6.04,-1.11,-7.89,-0.0142,0.4571,0.0207,-46.875,35.5625,30.1875,309.75,36.8125,170.75,0
1776970499.391,9.8857,2.2218,0.0024,-1.1327,0.5891,0.5103,-44.1,-0.9,33.3,9.5672,-2.2505,2.0159,-0.9041,0.7213,0.4615,-76.5,-41.55,-6.45,6.1,-0.94,-7.94,-0.0142,0.4571,0.0207,-46.875,35.5625,30.1875,309.75,37.0,170.75,0
1776970499.4,9.7612,2.32,0.0599,-0.9324,0.5689,0.4871,-43.5,-2.25,33.0,9.4475,-2.0518,2.0566,-0.656,0.6744,0.4647,-76.5,-39.6,-6.75,5.98,-1.37,-7.76,0.0033,0.3534,0.0327,-46.875,35.5625,30.1875,309.75,37.0,170.75,0
1776970499.41,9.56,2.2338,0.261,-0.7085,0.582,0.4655,-43.5,-1.8,33.75,9.596,-1.9872,2.1763,-0.3802,0.5049,0.4756,-75.9,-40.65,-7.65,5.51,-1.2,-8.05,0.0185,0.3033,0.0273,-46.875,35.5625,30.1875,309.75,37.1875,170.6875,0
1776970499.415,9.5289,2.1691,0.1844,-0.5316,0.5708,0.4522,-43.5,-1.8,33.75,9.596,-1.9872,2.1763,-0.3802,0.5049,0.4756,-75.9,-40.65,-7.65,5.51,-1.2,-8.05,0.0185,0.3033,0.0273,-46.875,35.5625,30.1875,309.75,37.1875,170.6875,0
1776970499.42,9.5289,2.1691,0.1844,-0.5316,0.5708,0.4522,-43.65,-3.15,34.95,9.0237,-2.15,2.0806,-0.2774,0.4658,0.4999,-75.9,-40.65,-7.65,6.05,-1.26,-7.55,0.0076,0.3043,0.0142,-46.875,35.5625,28.5625,309.8125,37.3125,170.6875,0
1776970499.425,9.4691,2.1165,0.3926,-0.3784,0.5569,0.4173,-43.65,-3.15,34.95,9.0237,-2.15,2.0806,-0.2774,0.4658,0.4999,-75.9,-40.65,-7.65,6.05,-1.26,-7.55,0.0076,0.3043,0.0142,-46.875,35.5625,28.5625,309.8125,37.3125,170.6875,0
1776970499.43,9.4691,2.1165,0.3926,-0.3784,0.5569,0.4173,-44.25,-1.8,33.75,9.1171,-2.1883,2.1476,-0.1649,0.4546,0.5023,-75.9,-42.6,-6.9,5.88,-1.28,-7.7,-0.0076,0.3425,0.0153,-46.875,35.5625,28.5625,309.8125,37.5,170.625,0
1776970499.435,9.4236,1.9058,0.3639,-0.3456,0.5391,0.4106,-44.25,-1.8,33.75,9.1171,-2.1883,2.1476,-0.1649,0.4546,0.5023,-75.9,-42.6,-6.9,5.88,-1.28,-7.7,-0.0109,0.3578,0.0218,-46.875,35.5625,28.5625,309.875,37.6875,170.625,0
1776970499.441,9.4236,1.9058,0.3639,-0.3456,0.5391,0.4106,-42.45,-4.8,34.5,8.734,-2.3487,2.4086,-0.1812,0.5881,0.4924,-75.9,-42.6,-6.9,6.01,-1.12,-7.78,-0.0109,0.3578,0.0218,-46.875,35.5625,28.5625,309.875,37.6875,170.625,0
1776970499.45,9.3805,1.7693,0.146,-0.4074,0.5287,0.4016,-42.45,-4.8,34.5,9.1674,-2.6983,2.2793,-0.3022,0.5995,0.477,-74.85,-42.45,-6.75,6.06,-0.98,-7.63,-0.0022,0.3589,0.0033,-46.875,35.5625,28.5625,309.875,37.9375,170.625,0
1776970499.455,9.5505,1.3408,-0.2035,-0.5686,0.5209,0.4122,-42.45,-4.8,34.5,9.1674,-2.6983,2.2793,-0.3022,0.5995,0.477,-74.85,-42.45,-6.75,6.06,-0.98,-7.63,0.0142,0.3392,-0.0055,-46.875,35.5625,28.5625,309.875,38.0625,170.5625,0
1776970499.461,9.5505,1.3408,-0.2035,-0.5686,0.5209,0.4122,-44.1,-4.65,34.65,8.9136,-3.0311,1.8244,-0.4834,0.5939,0.4543,-74.7,-42.15,-6.15,6.09,-1.0,-7.81,0.0142,0.3392,-0.0055,-46.875,35.5625,28.5625,309.875,38.0625,170.5625,0
1776970499.466,9.4954,1.075,-0.3903,-0.7573,0.5007,0.4218,-44.1,-4.65,34.65,8.8657,-3.0646,1.549,-0.4834,0.5939,0.4543,-75.45,-42.15,-6.6,5.88,-1.01,-7.63,0.0251,0.3163,0.0044,-48.25,34.5,28.6875,309.875,38.25,170.5625,0
1776970499.471,9.4954,1.075,-0.3903,-0.7573,0.5007,0.4218,-43.5,-3.75,36.3,8.8657,-3.0646,1.549,-0.684,0.7131,0.4226,-75.45,-42.15,-6.6,5.88,-1.01,-7.63,0.0251,0.3163,0.0044,-48.25,34.5,28.6875,309.875,38.25,170.5625,0
1776970499.476,9.4667,1.3336,-0.3424,-0.9065,0.4724,0.413,-44.1,-3.75,36.3,8.9064,-2.794,1.6855,-0.684,0.7131,0.4226,-75.45,-42.15,-6.6,5.88,-1.01,-7.63,0.0524,0.2945,0.0055,-48.25,34.5,28.6875,309.875,38.4375,170.5,0
1776970499.481,9.4667,1.3336,-0.3424,-0.9558,0.4628,0.4154,-44.1,-4.95,34.95,8.9064,-2.794,1.6855,-0.8116,0.8188,0.3885,-74.55,-42.45,-5.25,6.11,-0.99,-7.73,0.0524,0.2945,0.0055,-48.25,34.5,28.6875,309.875,38.4375,170.5,0
1776970499.486,9.5912,1.7095,-0.2203,-0.9558,0.4628,0.4154,-42.0,-2.55,35.25,9.414,-2.3176,1.9609,-0.8116,0.8188,0.3885,-74.55,-42.45,-5.25,6.11,-0.99,-7.73,0.0567,0.3131,0.0175,-48.25,34.5,28.6875,309.875,38.5625,170.5,0
1776970499.491,9.6055,2.1907,-0.1939,-0.9257,0.4538,0.4386,-42.0,-2.55,35.25,9.414,-2.3176,1.9609,-0.8188,0.7967,0.3898,-73.35,-42.75,-6.75,5.92,-1.15,-7.69,0.0567,0.3131,0.0175,-48.25,34.5,28.6875,309.875,38.5625,170.5,0
1776970499.5,9.6055,2.1907,-0.1939,-0.9257,0.4538,0.4386,-43.35,-5.7,34.95,9.6175,-1.9944,1.8866,-0.7946,0.7197,0.412,-73.65,-43.35,-8.4,6.21,-1.08,-7.61,0.0578,0.2923,0.0164,-48.25,34.5,28.6875,309.875,38.75,170.4375,0
1776970499.505,9.7827,2.4397,-0.2107,-0.8319,0.4898,0.4514,-43.35,-5.7,34.95,9.8138,-1.9273,1.8244,-0.7946,0.7197,0.412,-73.65,-43.35,-8.4,6.21,-1.08,-7.61,0.0425,0.2913,0.0076,-48.25,34.5,28.6875,309.875,38.875,170.375,0
1776970499.511,9.7755,2.4493,-0.3424,-0.6853,0.5023,0.4386,-43.35,-5.7,34.95,9.8138,-1.9273,1.8244,-0.725,0.6771,0.4343,-74.85,-44.4,-6.45,6.23,-1.1,-7.62,0.0425,0.2913,0.0076,-48.25,34.5,28.6875,309.875,38.875,170.375,0
1776970499.516,9.7755,2.4493,-0.3424,-0.6853,0.5023,0.4386,-44.4,-6.45,36.75,9.4667,-1.8747,1.7023,-0.5063,0.5638,0.4309,-74.85,-44.4,-6.45,6.23,-1.1,-7.62,0.0425,0.2913,0.0076,-48.25,35.25,26.6875,309.875,39.0,170.375,0
1776970499.521,9.3494,2.1668,-0.1269,-0.5684,0.5103,0.4461,-44.4,-6.45,36.75,9.4667,-1.8747,1.7023,-0.5063,0.5638,0.4309,-74.7,-44.55,-7.35,6.07,-1.22,-7.54,0.0338,0.2662,0.0087,-48.25,35.25,26.6875,309.875,39.0,170.375,0
1776970499.526,9.3494,2.1668,-0.1269,-0.5684,0.5103,0.4461,-42.45,-5.25,36.6,9.2775,-1.7119,1.4533,-0.4277,0.5609,0.4674,-74.7,-44.55,-7.35,6.07,-1.22,-7.54,0.0338,0.2662,0.0087,-48.25,35.25,26.6875,309.875,39.1875,170.3125,0
1776970499.531,9.4786,1.9058,-0.1173,-0.5041,0.5486,0.4442,-42.45,-5.25,36.6,9.2775,-1.7119,1.4533,-0.4277,0.5609,0.4674,-74.7,-44.55,-7.35,6.27,-1.14,-7.58,0.0109,0.2673,0.0076,-48.25,35.25,26.6875,309.875,39.1875,170.3125,0
1776970499.536,9.4786,1.9058,-0.1173,-0.5041,0.5486,0.4442,-42.3,-5.7,36.75,9.3829,-2.2051,1.7717,-0.3094,0.591,0.4764,-74.7,-44.55,-7.35,6.27,-1.14,-7.58,-0.0142,0.2793,0.0055,-48.25,35.25,26.6875,309.9375,39.3125,170.3125,0
1776970499.541,9.2225,1.7573,-0.0862,-0.506,0.5649,0.4453,-42.3,-5.7,36.75,9.3829,-2.2051,1.7717,-0.3094,0.591,0.4764,-73.8,-44.4,-7.2,6.42,-1.1,-7.49,-0.0142,0.2793,0.0055,-48.25,35.25,26.6875,309.9375,39.3125,170.3125,0
1776970499.55,9.4475,1.6927,-0.0096,-0.5393,0.5902,0.4639,-42.45,-6.75,35.55,9.0525,-2.2386,1.6783,-0.3523,0.6478,0.5002,-73.8,-44.4,-7.2,6.0,-1.15,-7.64,-0.0229,0.2891,-0.0076,-48.25,35.25,26.6875,309.9375,39.5,170.3125,0
1776970499.555,9.4475,1.6927,-0.0096,-0.5393,0.5902,0.4639,-42.45,-6.75,35.55,9.256,-2.5331,2.2003,-0.4114,0.631,0.5161,-73.8,-44.4,-7.2,6.0,-1.15,-7.64,-0.0316,0.2727,-0.0076,-48.25,35.25,26.6875,309.9375,39.625,170.3125,0
1776970499.561,9.6438,1.8699,-0.1341,-0.5945,0.6113,0.5105,-42.45,-6.75,35.55,9.256,-2.5331,2.2003,-0.4114,0.631,0.5161,-71.25,-44.55,-5.85,6.3,-1.0,-7.62,-0.0316,0.2727,-0.0076,-48.25,35.25,26.6875,309.9375,39.625,170.3125,0
1776970499.566,9.6438,1.8699,-0.1341,-0.5945,0.6113,0.5105,-42.45,-6.75,35.55,8.9711,-2.3176,1.8244,-0.4903,0.6598,0.5327,-71.25,-44.55,-5.85,6.3,-1.0,-7.62,-0.0316,0.2727,-0.0076,-49.5,35.25,26.6875,309.9375,39.8125,170.3125,0
1776970499.571,9.2991,1.9609,-0.1844,-0.6206,0.6041,0.5177,-42.45,-6.75,35.55,8.9711,-2.3176,1.8244,-0.4903,0.6598,0.5327,-73.35,-43.5,-6.0,6.18,-1.15,-7.52,-0.0153,0.3011,-0.0218,-49.5,35.25,26.6875,309.9375,39.8125,170.3125,0
1776970499.576,9.2991,1.9609,-0.1844,-0.6206,0.6041,0.5177,-41.85,-7.95,36.45,9.1123,-2.0638,1.8723,-0.5582,0.7181,0.5633,-73.35,-43.5,-6.0,6.18,-1.15,-7.52,-0.0153,0.3011,-0.0218,-49.5,35.25,26.6875,309.9375,39.9375,170.3125,0
1776970499.581,9.1506,2.071,-0.1484,-0.68,0.6257,0.5423,-41.85,-7.95,36.45,9.0597,-1.8914,1.901,-0.5582,0.7181,0.5633,-71.7,-45.0,-6.9,6.29,-1.04,-7.49,-0.0098,0.2378,0.0011,-49.5,35.25,26.6875,309.9375,39.9375,170.3125,0
1776970499.586,9.1506,2.071,-0.1484,-0.68,0.6257,0.5423,-40.8,-7.95,37.2,9.0597,-1.8914,1.901,-0.6089,0.7277,0.5846,-71.7,-45.0,-6.9,6.29,-1.04,-7.49,0.0164,0.2269,-0.0164,-49.5,35.25,26.6875,309.9375,40.0625,170.3125,0
1776970499.591,9.3446,2.375,-0.1772,-0.6739,0.6459,0.563,-40.8,-7.95,37.2,9.3015,-1.719,2.0997,-0.6089,0.7277,0.5846,-72.45,-45.3,-5.85,6.34,-0.92,-7.37,0.0164,0.2269,-0.0164,-49.5,35.25,26.6875,309.9375,40.0625,170.3125,0
1776970499.6,9.6606,2.545,0.2466,-0.6488,0.6398,0.5788,-42.75,-9.0,37.35,9.3015,-1.719,2.0997,-0.6286,0.7258,0.619,-72.9,-47.25,-6.15,6.12,-0.84,-7.46,0.0273,0.2029,0.0033,-49.5,35.25,26.6875,309.9375,40.125,170.3125,0
1776970499.605,9.6606,2.545,0.2466,-0.6488,0.6398,0.5788,-41.55,-8.7,37.8,9.6223,-1.8986,2.6288,-0.6241,0.6944,0.6187,-72.9,-47.25,-6.15,6.12,-0.84,-7.46,0.0316,0.1887,0.0044,-49.5,35.25,26.6875,309.9375,40.25,170.3125,0
1776970499.612,9.9503,2.0901,0.395,-0.5732,0.6035,0.5918,-41.55,-8.7,37.8,9.7516,-2.5211,2.4421,-0.5812,0.5614,0.6344,-72.45,-45.75,-6.6,6.11,-0.86,-7.47,0.0316,0.1887,0.0044,-49.5,35.25,26.6875,309.9375,40.25,170.3125,0
1776970499.616,9.9503,2.0901,0.395,-0.5732,0.6035,0.5918,-41.55,-8.7,37.8,9.7516,-2.5211,2.4421,-0.5812,0.5614,0.6344,-72.45,-45.75,-6.6,6.11,-0.86,-7.47,0.0371,0.2029,-0.0098,-49.75,35.5625,25.875,309.9375,40.3125,170.3125,0
1776970499.622,9.9192,1.798,0.2251,-0.4271,0.6249,0.582,-41.55,-8.7,37.8,9.4547,-2.5139,1.8986,-0.4527,0.4911,0.6531,-72.45,-45.75,-6.6,6.21,-0.99,-7.47,0.0371,0.2029,-0.0098,-49.75,35.5625,25.875,309.9375,40.3125,170.3125,0
1776970499.626,9.5888,1.7765,0.5674,-0.3587,0.6643,0.5646,-41.55,-8.7,37.8,9.4547,-2.5139,1.8986,-0.4527,0.4911,0.6531,-72.45,-45.75,-6.6,6.21,-0.99,-7.47,0.0175,0.2094,-0.0033,-49.75,35.5625,25.875,309.9375,40.4375,170.3125,0
1776970499.632,9.5888,1.7765,0.5674,-0.3587,0.6643,0.5646,-41.55,-8.7,37.8,9.2273,-2.6217,2.1093,-0.3544,0.5745,0.6739,-71.7,-46.95,-6.6,6.32,-0.92,-7.4,0.0175,0.2094,-0.0033,-49.75,35.5625,25.875,309.9375,40.4375,170.3125,0
1776970499.636,9.7252,1.4653,0.6225,-0.3419,0.7051,0.5937,-40.65,-9.75,39.15,9.2273,-2.6217,2.1093,-0.3544,0.5745,0.6739,-71.7,-46.95,-6.6,6.32,-0.92,-7.4,-0.0349,0.1833,0.0229,-49.75,35.5625,25.875,309.9375,40.5,170.375,0
1776970499.642,9.7252,1.4653,0.6225,-0.3419,0.7051,0.5937,-40.65,-9.75,39.15,9.1315,-2.885,2.3128,-0.2294,0.5729,0.7157,-71.7,-46.95,-6.6,6.07,-0.99,-7.62,-0.0349,0.1833,0.0229,-49.75,35.5625,25.875,309.9375,40.5,170.375,0
1776970499.651,9.6606,1.2713,0.407,-0.3456,0.7109,0.611,-42.6,-10.2,38.55,8.8705,-3.0358,2.1476,-0.2494,0.5878,0.7368,-70.35,-46.35,-6.75,6.35,-1.08,-7.44,-0.0447,0.1516,0.0295,-49.75,35.5625,25.875,309.9375,40.625,170.375,0
1776970499.655,9.6606,1.2713,0.407,-0.4085,0.733,0.6299,-41.85,-9.45,37.8,8.8705,-3.0358,2.1476,-0.2494,0.5878,0.7368,-70.35,-46.35,-6.75,6.35,-1.08,-7.44,-0.0644,0.1407,0.0109,-49.75,35.5625,25.875,310.0,40.6875,170.375,0
1776970499.662,9.4763,1.0439,0.4022,-0.4085,0.733,0.6299,-41.85,-9.45,37.8,8.7843,-3.1867,2.1715,-0.3267,0.6299,0.7501,-70.35,-46.35,-6.75,6.1,-1.36,-7.54,-0.0644,0.1407,0.0109,-49.75,35.5625,25.875,310.0,40.6875,170.375,0
1776970499.667,9.4499,1.0989,0.3232,-0.5196,0.748,0.6606,-41.4,-12.0,38.7,8.7843,-3.1867,2.1715,-0.3267,0.6299,0.7501,-70.35,-46.35,-6.75,6.1,-1.36,-7.54,-0.072,0.1396,-0.0109,-49.75,35.5625,26.6875,310.0,40.75,170.4375,0
1776970499.672,9.4499,1.0989,0.3232,-0.5196,0.748,0.6606,-41.4,-12.0,38.7,8.7843,-2.9975,2.0159,-0.4213,0.72,0.7589,-70.05,-48.3,-6.45,6.31,-1.13,-7.35,-0.072,0.1396,-0.0109,-49.75,35.5625,26.6875,310.0,40.75,170.4375,0
1776970499.676,9.3948,1.4868,0.0311,-0.6113,0.7594,0.6909,-41.4,-12.0,38.7,8.7843,-2.9975,2.0159,-0.4213,0.72,0.7589,-70.05,-48.3,-6.45,6.31,-1.13,-7.35,-0.0894,0.1364,-0.0262,-49.75,35.5625,26.6875,310.0,40.8125,170.5,0
1776970499.682,9.3948,1.4868,0.0311,-0.6113,0.7594,0.6909,-41.4,-12.0,38.7,8.9184,-2.5546,1.9082,-0.4988,0.761,0.7568,-69.15,-49.5,-5.7,6.33,-1.04,-7.53,-0.0894,0.1364,-0.0262,-49.75,35.5625,26.6875,310.0,40.8125,170.5,0
1776970499.686,9.3805,1.6281,0.0096,-0.6432,0.7797,0.7029,-41.85,-10.95,40.05,8.9184,-2.5546,1.9082,-0.4988,0.761,0.7568,-69.15,-49.5,-5.7,6.33,-1.04,-7.53,-0.0993,0.132,-0.0295,-49.75,35.5625,26.6875,310.0,40.875,170.5625,0
1776970499.692,9.3805,1.6281,0.0096,-0.6432,0.7797,0.7029,-41.85,-10.95,40.05,9.0261,-2.3631,1.7909,-0.5084,0.7695,0.7783,-67.95,-48.0,-5.55,6.09,-1.06,-7.67,-0.0993,0.132,-0.0295,-49.75,35.5625,26.6875,310.0,40.875,170.5625,0
1776970499.701,9.4643,1.5921,0.1245,-0.6115,0.8071,0.7144,-40.95,-11.25,39.15,9.0501,-2.4277,1.7933,-0.4639,0.7815,0.8018,-69.0,-48.45,-5.1,6.11,-0.97,-7.5,-0.0818,0.2345,-0.024,-49.75,35.5625,26.6875,310.0,40.9375,170.625,0
1776970499.705,9.5098,1.6975,0.261,-0.5303,0.8505,0.724,-40.05,-11.7,39.3,9.0501,-2.4277,1.7933,-0.4639,0.7815,0.8018,-69.0,-48.45,-5.1,6.11,-0.97,-7.5,-0.0807,0.3283,-0.0393,-49.75,35.5625,26.6875,310.0625,41.125,170.6875,0
1776970499.712,9.5098,1.6975,0.261,-0.5303,0.8505,0.724,-40.8,-12.9,40.35,9.0668,-2.3511,2.0111,-0.4064,0.7687,0.8178,-68.7,-48.45,-4.35,6.13,-1.08,-7.59,-0.0807,0.3283,-0.0393,-49.75,35.5625,26.6875,310.0625,41.125,170.6875,0
1776970499.717,9.2632,1.4605,0.4788,-0.4469,0.8863,0.7362,-40.8,-12.9,40.35,8.8514,-2.5283,1.8292,-0.4064,0.7687,0.8178,-68.7,-48.45,-4.35,6.13,-1.08,-7.59,-0.0807,0.3283,-0.0393,-49.5,35.25,24.375,310.0625,41.3125,170.75,0
1776970499.722,9.2632,1.4605,0.4788,-0.4469,0.8863,0.7362,-40.2,-12.75,39.9,8.8514,-2.5283,1.8292,-0.3115,0.7693,0.8876,-67.35,-50.55,-4.5,6.3,-1.04,-7.37,-0.0796,0.3643,-0.0524,-49.5,35.25,24.375,310.0625,41.3125,170.75,0
1776970499.727,9.3422,1.3336,0.4429,-0.4375,0.9595,0.7765,-40.2,-12.75,39.9,8.7724,-2.7007,2.2769,-0.2888,0.8505,0.931,-67.35,-50.55,-4.5,6.3,-1.04,-7.37,-0.0796,0.3643,-0.0524,-49.5,35.25,24.375,310.0,41.5,170.8125,0
1776970499.732,9.3422,1.3336,0.4429,-0.4375,0.9595,0.7765,-40.2,-12.75,39.9,8.7724,-2.7007,2.2769,-0.2888,0.8505,0.931,-67.35,-50.55,-4.5,6.64,-1.06,-7.38,-0.1254,0.3829,-0.0796,-49.5,35.25,24.375,310.0,41.5,170.8125,0
1776970499.737,9.6582,0.6201,0.1125,-0.4061,0.9846,0.8252,-40.2,-12.75,39.9,8.9974,-3.2537,1.6616,-0.304,0.7821,1.0094,-67.35,-50.55,-4.5,6.64,-1.06,-7.38,-0.2345,0.372,-0.0665,-49.5,35.25,24.375,310.0625,41.6875,170.9375,0
1776970499.742,9.6582,0.6201,0.1125,-0.4061,0.9846,0.8252,-40.05,-12.9,40.35,8.9974,-3.2537,1.6616,-0.304,0.7821,1.0094,-66.3,-50.4,-4.8,6.23,-2.03,-7.57,-0.2345,0.372,-0.0665,-49.5,35.25,24.375,310.0625,42.0,171.125,0
1776970499.751,9.6702,0.5483,0.4549,-0.4378,1.0312,0.8865,-40.05,-12.9,40.35,8.8202,-3.4357,1.9752,-0.3397,0.8471,1.076,-66.3,-50.4,-4.8,6.64,-1.72,-7.21,-0.3076,0.4669,-0.1233,-49.5,35.25,24.375,310.0625,42.0,171.125,0
1776970499.761,9.6247,0.893,0.3903,-0.4631,1.0784,0.9379,-38.4,-15.3,42.75,9.0261,-3.2944,1.8531,-0.3568,0.8815,1.0794,-66.15,-51.0,-5.7,6.65,-1.26,-7.43,-0.3196,0.6229,-0.2443,-49.5,35.25,24.375,310.0,42.375,171.375,0
1776970499.766,9.9742,1.087,0.893,-0.409,1.0965,0.9563,-38.4,-15.3,42.75,9.0716,-3.2801,2.6576,-0.3349,0.8942,1.1125,-66.15,-51.0,-5.7,6.65,-1.26,-7.43,-0.3196,0.6229,-0.2443,-49.5,35.25,24.375,310.0,42.375,171.375,0
1776970499.771,9.9742,1.087,0.893,-0.409,1.0965,0.9563,-38.55,-15.9,43.95,9.0716,-3.2801,2.6576,-0.3349,0.8942,1.1125,-65.1,-51.45,-3.45,6.5,-1.38,-7.44,-0.2989,0.6774,-0.2771,-50.875,34.875,23.5625,309.9375,42.75,171.625,0
1776970499.776,10.1514,0.498,1.1612,-0.3778,1.0893,0.9558,-38.55,-15.9,43.95,9.1363,-3.9768,2.964,-0.2332,0.8079,1.1586,-65.1,-51.45,-3.45,6.5,-1.38,-7.44,-0.2989,0.6774,-0.2771,-50.875,34.875,23.5625,309.9375,42.75,171.625,0
1776970499.781,10.1514,0.498,1.1612,-0.3778,1.0893,0.9558,-39.15,-14.55,43.35,9.1363,-3.9768,2.964,-0.2332,0.8079,1.1586,-65.1,-51.0,-3.75,6.22,-1.23,-7.49,-0.3305,0.672,-0.2247,-50.875,34.875,23.5625,309.9375,43.125,171.875,0
1776970499.788,10.2304,0.0862,1.719,-0.3632,1.1021,0.9465,-39.15,-14.55,43.35,8.7149,-4.7238,2.9449,-0.3072,0.8042,1.1652,-65.1,-51.0,-3.75,6.27,-1.33,-7.45,-0.3622,0.7581,-0.264,-50.875,34.875,23.5625,309.875,43.5625,172.1875,0
1776970499.793,10.4028,-0.3807,1.8483,-0.4514,1.1103,0.9441,-39.15,-14.55,43.35,8.7747,-5.0829,3.1101,-0.3072,0.8042,1.1652,-64.05,-51.6,-2.85,6.27,-1.33,-7.45,-0.3622,0.7581,-0.264,-50.875,34.875,23.5625,309.8125,44.0625,172.5625,0
1776970499.801,10.4411,-1.1636,1.482,-0.4954,1.1119,0.9737,-37.05,-17.25,43.05,8.7747,-5.0829,3.1101,-0.3296,0.8823,1.1506,-63.75,-52.8,-2.1,6.75,-0.56,-7.44,-0.4549,0.8367,-0.3556,-50.875,34.875,23.5625,295.875,44.5625,173.0625,0
1776970499.811,10.489,-1.2689,1.2091,-0.6312,1.1261,1.0381,-35.7,-17.7,46.05,8.7197,-5.624,2.7198,-0.3781,0.8769,1.1908,-62.7,-53.4,-2.7,6.88,-1.26,-7.4,-0.6163,0.8792,-0.3774,-50.875,34.875,23.5625,295.875,44.5625,173.0625,0
1776970499.816,10.489,-1.2689,1.2091,-0.6312,1.1261,1.0381,-35.7,-17.7,46.05,8.7125,-5.7485,2.478,-0.5841,0.9268,1.2327,-62.7,-53.4,-2.7,6.88,-1.26,-7.4,-0.6163,0.8792,-0.3774,-50.875,34.875,23.5625,297.3125,45.1875,173.6875,0
1776970499.821,10.4076,-1.0439,1.2426,-0.7863,1.1205,1.092,-35.7,-17.7,44.7,8.7125,-5.7485,2.478,-0.5841,0.9268,1.2327,-62.4,-52.95,-3.75,7.02,-0.78,-7.31,-0.8279,1.0614,-0.4036,-52.75,34.0625,23.1875,297.3125,45.1875,173.6875,0
1776970499.826,10.4076,-1.0439,1.2426,-0.7863,1.1205,1.092,-35.7,-17.7,44.7,8.6263,-5.4779,2.3846,-0.6979,0.9774,1.2417,-62.4,-52.95,-3.75,7.02,-0.78,-7.31,-0.8279,1.0614,-0.4036,-52.75,34.0625,23.1875,298.75,45.75,174.3125,0
1776970499.832,10.1131,-0.6225,1.1971,-0.8484,1.1261,1.1242,-36.75,-18.15,46.05,8.6119,-4.9129,2.2146,-0.6979,0.9774,1.2417,-61.05,-53.1,-2.85,6.86,-1.08,-7.28,-0.8279,1.0614,-0.4036,-52.75,34.0625,23.1875,298.75,45.75,174.3125,0
1776970499.838,10.1131,-0.6225,1.1971,-0.8484,1.1261,1.1242,-36.75,-18.15,46.05,8.6119,-4.9129,2.2146,-0.7029,1.0102,1.2609,-61.05,-53.1,-2.85,7.34,1.03,-7.44,-0.8149,1.1661,-0.4134,-52.75,34.0625,23.1875,300.1875,46.4375,174.9375,0
1776970499.843,9.7923,0.0958,1.1732,-0.8663,1.1506,1.1578,-34.5,-19.05,45.9,8.5281,-4.2665,2.3631,-0.6672,1.0456,1.2809,-61.05,-53.1,-2.85,7.34,1.03,-7.44,-0.8149,1.1661,-0.4134,-52.75,34.0625,23.1875,301.125,47.25,175.3125,0
1776970499.851,9.7013,0.3735,1.0678,-0.8857,1.1922,1.1727,-34.5,-19.05,45.9,8.6766,-3.735,2.3798,-0.6672,1.0456,1.2809,-59.7,-54.6,-3.0,6.54,-0.08,-7.42,-0.4854,1.4137,-0.2891,-52.75,34.0625,23.1875,302.0,48.0625,175.6875,0
1776970499.861,9.912,-0.079,0.8547,-0.8735,1.2393,1.2063,-33.0,-20.25,45.15,8.7245,-4.0941,2.1476,-0.6368,1.0464,1.3536,-59.7,-54.6,-3.0,6.5,0.21,-7.66,-0.4854,1.4137,-0.2891,-52.75,34.0625,23.1875,302.0,48.0625,175.6875,0
1776970499.866,9.912,-0.079,0.8547,-0.8735,1.2393,1.2063,-33.0,-20.25,45.15,8.7245,-4.0941,2.1476,-0.6368,1.0464,1.3536,-59.7,-54.6,-3.0,6.5,0.21,-7.66,-0.4854,1.4137,-0.2891,-52.75,34.0625,23.1875,302.0,48.0625,175.6875,0
1776970499.871,10.0963,-0.0814,1.2881,-0.9406,1.2678,1.2545,-33.0,-22.05,46.2,8.6694,-4.4987,2.545,-0.7464,1.0858,1.4064,-59.55,-55.05,-4.35,6.15,0.62,-7.22,0.0065,1.5108,-0.3643,-54.1875,33.0625,21.6875,302.3125,48.875,175.8125,0
1776970499.876,10.0963,-0.0814,1.2881,-0.9406,1.2678,1.2545,-33.0,-22.05,46.2,8.6694,-4.4987,2.545,-0.7464,1.0858,1.4064,-59.55,-55.05,-4.35,6.15,0.62,-7.22,0.0065,1.5108,-0.3643,-54.1875,33.0625,21.6875,302.3125,48.875,175.8125,0
1776970499.881,10.5632,-0.0024,1.6281,-1.0984,1.2899,1.2998,-33.3,-22.5,45.15,8.8825,-4.8123,2.9449,-0.8455,1.1916,1.4099,-56.25,-55.65,-4.95,4.65,2.39,-6.88,0.3905,1.3777,-0.5291,-54.1875,33.0625,21.6875,302.25,49.6875,175.875,0
1776970499.889,11.1498,-0.2945,1.0463,-1.1887,1.2753,1.339,-34.5,-22.05,46.95,9.7636,-5.0661,2.4421,-0.8455,1.1916,1.4099,-56.25,-55.65,-4.95,8.78,-2.16,-6.95,0.5607,1.0701,-0.781,-54.1875,33.0625,21.6875,302.125,50.3125,176.0625,0
1776970499.894,11.1498,-0.2945,1.0463,-1.1887,1.2753,1.339,-34.5,-22.05,46.95,9.7636,-5.0661,2.4421,-0.8649,1.2337,1.4048,-58.65,-56.55,-2.4,8.78,-2.16,-6.95,0.5607,1.0701,-0.781,-54.1875,33.0625,21.6875,302.375,51.0,176.3125,0
1776970499.902,11.6717,-0.3855,1.2522,-1.2119,1.2766,1.3848,-34.5,-22.05,46.95,10.1107,-5.3367,2.3727,-0.8671,1.247,1.4272,-55.8,-57.45,-2.85,8.66,-1.4,-7.01,0.1047,1.2545,-0.576,-54.1875,33.0625,21.6875,303.3125,51.875,177.0625,0
1776970499.911,12.6055,-1.2019,0.3112,-1.4077,1.3025,1.4344,-34.5,-22.05,46.95,10.7021,-6.2321,1.9273,-1.0086,1.3347,1.4077,-54.45,-56.85,-2.4,6.91,-0.71,-7.14,-0.3556,1.5021,-0.8519,-54.1875,33.0625,21.6875,303.3125,51.875,177.0625,0
1776970499.916,12.6055,-1.2019,0.3112,-1.4077,1.3025,1.4344,-34.5,-22.05,46.95,10.7021,-6.2321,1.9273,-1.0086,1.3347,1.4077,-54.45,-56.85,-2.4,6.91,-0.71,-7.14,-0.3556,1.5021,-0.8519,-54.1875,33.0625,21.6875,304.5,53.0625,177.875,0
1776970499.921,13.2687,-2.0063,-0.8619,-1.5828,1.3187,1.485,-31.35,-25.2,46.35,11.576,-7.015,0.5028,-1.3563,1.4466,1.4666,-55.05,-58.65,-3.3,7.03,-1.8,-7.42,-0.5945,2.0802,-0.7647,-57.1875,31.1875,18.5625,304.5,53.0625,177.875,0
1776970499.926,14.0348,-1.5586,-1.7262,-2.0627,1.3643,1.595,-31.35,-25.2,46.35,11.576,-7.015,0.5028,-1.3563,1.4466,1.4666,-55.05,-58.65,-3.3,7.03,-1.8,-7.42,-0.5945,2.0802,-0.7647,-57.1875,31.1875,18.5625,305.625,54.4375,178.625,0
1776970499.932,14.0348,-1.5586,-1.7262,-2.0627,1.3643,1.595,-28.95,-26.25,46.95,12.2344,-6.5912,0.3472,-1.8485,1.7147,1.4949,-51.75,-57.3,-4.2,5.75,0.03,-7.67,-0.6959,2.5591,-0.5596,-57.1875,31.1875,18.5625,305.625,54.4375,178.625,0
1776970499.938,14.6429,-1.0032,-2.6695,-2.7214,1.3387,1.7858,-28.95,-26.25,46.95,13.5464,-5.9711,-0.079,-1.8485,1.7147,1.4949,-51.75,-57.3,-4.2,5.6,1.55,-6.64,-0.4058,2.4893,-0.6349,-57.1875,31.1875,18.5625,306.4375,55.875,179.3125,0
1776970499.943,14.6429,-1.0032,-2.6695,-2.7214,1.3387,1.7858,-29.1,-27.9,46.05,13.5464,-5.9711,-0.079,-2.4523,2.0776,1.5103,-52.2,-60.75,-5.25,5.6,1.55,-6.64,-0.4058,2.4893,-0.6349,-57.1875,31.1875,18.5625,307.0,57.1875,179.875,0
1776970499.952,14.2599,0.2634,-4.865,-3.4368,1.2942,2.0209,-26.25,-28.95,46.8,14.7698,-4.276,-1.0439,-3.261,2.3393,1.5897,-52.2,-60.75,-5.25,6.61,0.0,-6.94,-0.1844,2.3518,-0.564,-57.1875,31.1875,18.5625,307.0,57.1875,179.875,0
1776970499.961,12.7539,1.4246,-3.5913,-3.9303,1.3054,2.1887,-26.25,-28.95,46.8,13.8481,-2.4612,-1.4653,-4.0017,2.2346,1.8266,-49.5,-59.25,-7.5,6.52,1.09,-6.27,-0.0382,2.2733,-0.3512,-57.1875,31.1875,18.5625,307.1875,58.4375,-179.75,0
1776970499.966,11.169,2.8443,-1.5179,-3.8965,1.3773,2.2407,-26.25,-28.95,46.8,11.8345,-1.2594,-0.4429,-4.0017,2.2346,1.8266,-49.5,-59.25,-7.5,6.52,1.09,-6.27,-0.0382,2.2733,-0.3512,-57.1875,31.1875,18.5625,307.1875,58.4375,-179.75,0
1776970499.971,11.169,2.8443,-1.5179,-3.8965,1.3773,2.2407,-26.25,-28.95,46.8,11.8345,-1.2594,-0.4429,-3.7411,2.0904,1.9748,-49.5,-59.25,-7.5,7.28,3.51,-10.22,0.0949,3.159,-0.0589,-61.1875,29.0,13.875,307.125,60.1875,-179.6875,0
1776970499.976,9.73,3.4453,0.3112,-3.4224,1.4138,2.1493,-26.25,-28.95,46.8,10.6781,-1.063,0.5124,-3.7411,2.0904,1.9748,-49.5,-59.25,-7.5,7.28,3.51,-10.22,0.0949,3.159,-0.0589,-61.1875,29.0,13.875,307.125,60.1875,-179.6875,0
1776970499.981,9.73,3.4453,0.3112,-3.4224,1.4138,2.1493,-21.75,-33.3,42.3,10.6781,-1.063,0.5124,-2.8141,1.8391,1.8929,-46.2,-59.4,-10.65,9.86,2.49,-7.26,0.2313,4.3153,0.1593,-61.1875,29.0,13.875,306.8125,62.5625,179.9375,0
1776970499.987,10.8314,3.0382,1.9465,-2.496,1.5897,1.9481,-21.9,-33.45,41.85,9.8689,-1.573,0.4046,-1.9036,1.809,1.9305,-46.2,-59.4,-10.65,11.65,0.63,-8.31,0.1636,4.8989,0.4385,-61.1875,29.0,13.875,306.4375,65.25,179.3125,0
1776970499.993,10.8314,3.0382,1.9465,-2.496,1.5897,1.9481,-21.9,-33.45,41.85,9.8689,-1.573,0.4046,-1.9036,1.809,1.9305,-44.4,-61.35,-10.35,11.65,0.63,-8.31,0.1636,4.8989,0.4385,-61.1875,29.0,13.875,306.1875,68.25,178.375,0
1776970500.002,12.1793,2.6025,3.2274,-1.792,1.6737,1.744,-21.0,-35.55,42.3,11.1809,-3.2585,5.0805,-1.1263,1.7363,1.8975,-42.45,-60.6,-11.1,14.01,1.25,-9.44,-0.0905,5.3887,0.6763,-61.1875,29.0,13.875,306.1875,68.25,178.375,0
1776970500.012,12.6558,1.5419,4.4532,-0.9625,1.6582,1.5972,-20.1,-35.4,42.45,10.7571,-4.6735,5.6719,-0.4461,1.2833,1.8223,-42.6,-61.5,-11.55,14.39,2.49,-9.89,-0.0196,5.2502,0.841,-61.1875,29.0,13.875,305.8125,71.125,176.75,0
1776970500.016,11.9734,-0.4597,4.9225,-0.4096,1.6808,1.5319,-20.1,-35.4,42.45,9.2249,-6.1818,4.8243,0.1919,1.3033,1.8607,-42.6,-61.5,-11.55,14.39,2.49,-9.89,-0.0196,5.2502,0.841,-61.1875,29.0,13.875,305.25,73.75,174.4375,0
1776970500.022,11.9734,-0.4597,4.9225,-0.4096,1.6808,1.5319,-20.1,-35.4,42.45,9.2249,-6.1818,4.8243,0.1919,1.3033,1.8607,-40.05,-60.45,-10.5,15.28,1.35,-9.41,0.1833,4.7997,0.9152,-65.1875,28.6875,3.6875,305.25,73.75,174.4375,0
1776970500.026,10.75,-1.8771,5.9999,0.0658,1.9057,1.5154,-20.1,-35.4,42.45,7.604,-6.6056,7.3789,0.1998,0.9491,2.1053,-40.05,-60.45,-10.5,15.28,1.35,-9.41,0.1833,4.7997,0.9152,-65.1875,28.6875,3.6875,304.875,76.4375,171.1875,0
1776970500.031,10.75,-1.8771,5.9999,0.0658,1.9057,1.5154,-16.65,-35.55,42.75,7.604,-6.6056,7.3789,0.1998,0.9491,2.1053,-39.75,-60.15,-9.9,18.98,-1.5,-11.71,-0.0567,4.9622,0.9577,-65.1875,28.6875,3.6875,304.875,76.4375,171.1875,0
1776970500.036,10.6015,-3.6799,6.1316,0.1079,1.8924,1.5737,-16.2,-35.55,44.4,6.754,-8.7484,6.4069,0.5089,1.3584,2.0113,-39.75,-60.15,-9.9,18.98,-1.5,-11.71,-0.4156,4.3633,0.9207,-65.1875,28.6875,3.6875,304.75,78.6875,167.0625,0
1776970500.042,10.1466,-5.3678,5.8538,-0.0767,1.7051,1.5647,-16.2,-35.55,44.4,6.754,-8.7484,6.4069,0.5089,1.3584,2.0113,-39.75,-60.15,-9.9,13.7,0.78,-12.42,-0.4156,4.3633,0.9207,-65.1875,28.6875,3.6875,304.875,80.4375,162.5,0
1776970500.052,10.1466,-5.3678,5.8538,-0.0767,1.7051,1.5647,-14.25,-36.15,43.5,6.1124,-10.2256,5.8227,0.239,1.1858,2.0342,-36.6,-58.05,-9.0,12.25,0.67,-12.46,-0.6436,3.4579,0.7298,-65.1875,28.6875,3.6875,304.875,80.4375,162.5,0
1776970500.062,9.1243,-5.9951,6.1268,-0.6864,1.3246,1.3829,-14.7,-35.7,45.3,4.4293,-11.1163,6.6726,-0.1415,1.2652,1.8884,-36.6,-58.05,-9.0,10.85,0.01,-12.47,-1.1846,3.3848,0.8094,-65.1875,28.6875,3.6875,305.3125,82.0625,156.125,0
1776970500.066,8.5856,-6.8809,6.1244,-0.6864,1.3246,1.3829,-12.45,-36.45,43.5,4.1276,-11.327,6.213,-0.5852,0.9739,1.6076,-36.6,-58.05,-9.0,10.85,0.01,-12.47,-1.1846,3.3848,0.8094,-65.1875,28.6875,3.6875,305.3125,82.0625,156.125,0
1776970500.072,7.5609,-5.8299,6.2944,-0.6955,1.0776,1.2119,-12.45,-36.45,43.5,2.7557,-10.3693,5.5522,-0.5852,0.9739,1.6076,-33.75,-57.45,-10.65,1.49,-0.17,-10.89,-1.5108,2.8678,1.1934,-65.1875,30.1875,-9.5,305.6875,83.125,176.1875,0
1776970500.076,7.5609,-5.8299,6.2944,-0.6955,1.0776,1.2119,-12.45,-36.45,43.5,2.7557,-10.3693,5.5522,-0.7855,0.7093,1.4405,-33.75,-57.45,-10.65,1.49,-0.17,-10.89,-1.5108,2.8678,1.1934,-65.1875,30.1875,-9.5,305.6875,83.125,176.1875,0
1776970500.081,6.6104,-6.5362,5.4516,-0.9462,0.6859,1.0195,-12.45,-36.45,43.5,1.7717,-10.5297,5.102,-0.7855,0.7093,1.4405,-33.75,-57.45,-10.65,-1.12,-1.45,-11.53,-1.3374,1.8762,1.862,-65.1875,30.1875,-9.5,305.5625,83.3125,175.25,0
1776970500.088,6.6104,-6.5362,5.4516,-0.9462,0.6859,1.0195,-9.3,-36.0,45.9,1.7717,-10.5297,5.102,-1.0427,0.6331,1.2505,-33.15,-58.05,-9.3,17.69,-3.68,-11.18,-1.765,2.174,2.0344,-65.1875,30.1875,-9.5,305.625,83.1875,174.1875,0
1776970500.093,5.8826,-5.6431,6.9504,-0.5353,0.5132,0.6235,-9.3,-36.0,45.9,0.5578,-10.5608,3.9887,-0.9912,0.4687,0.9225,-31.65,-57.6,-7.5,17.69,-3.68,-11.18,-1.765,2.174,2.0344,-65.1875,30.1875,-9.5,306.125,82.5,111.1875,0
1776970500.102,5.0374,-4.0414,5.8179,-0.7202,0.377,0.3629,-9.3,-35.55,46.95,1.4317,-8.9759,5.3271,-1.0813,0.7866,0.4269,-32.25,-57.45,-7.5,15.26,3.16,-16.66,-2.9343,1.9646,2.3464,-65.1875,30.1875,-9.5,306.125,82.5,111.1875,0
1776970500.112,5.4516,-3.5841,4.3048,-0.9976,0.1996,0.1156,-8.4,-33.15,45.0,1.9704,-7.3813,5.4708,-1.137,0.5875,-0.0045,-30.75,-56.25,-8.85,6.77,6.41,-15.69,-2.8187,-0.3818,2.5787,-65.1875,30.1875,-9.5,306.3125,81.0625,110.5625,0
1776970500.117,5.4516,-3.5841,4.3048,-0.9976,0.1996,0.1156,-8.25,-34.5,46.65,1.9704,-7.3813,5.4708,-1.137,0.5875,-0.0045,-30.75,-56.25,-8.85,6.77,6.41,-15.69,-2.8187,-0.3818,2.5787,-65.1875,30.1875,-9.5,306.3125,81.0625,110.5625,0
1776970500.122,5.9448,-2.5809,3.8523,-1.0419,-0.1482,-0.1354,-8.25,-34.5,46.65,3.1412,-6.9695,4.8291,-1.0674,0.4503,-0.3523,-30.75,-56.25,-8.85,3.48,5.06,-10.7,-1.3199,-2.1118,2.4064,-64.1875,33.5625,-12.0625,305.5625,79.375,114.625,0
1776970500.127,5.9448,-2.5809,3.8523,-1.0419,-0.1482,-0.1354,-7.35,-34.2,45.0,3.1412,-6.9695,4.8291,-1.0674,0.4503,-0.3523,-30.45,-56.1,-10.05,3.48,5.06,-10.7,-1.3199,-2.1118,2.4064,-64.1875,33.5625,-12.0625,305.5625,79.375,114.625,0
1776970500.132,5.9592,-2.2817,3.5171,-0.7965,-0.5566,-0.4303,-7.35,-34.2,45.0,3.1891,-6.505,4.4173,-1.1,0.0242,-0.668,-31.8,-55.05,-9.9,0.58,5.27,-7.79,-0.2803,-2.9823,2.3878,-64.1875,33.5625,-12.0625,304.0625,77.4375,119.0625,0
1776970500.137,5.9592,-2.2817,3.5171,-0.7965,-0.5566,-0.4303,-7.35,-34.2,45.0,3.1891,-6.505,4.4173,-1.1,0.0242,-0.668,-31.8,-55.05,-9.9,0.58,5.27,-7.79,0.4931,-2.9725,1.8959,-64.1875,33.5625,-12.0625,302.3125,75.6875,122.4375,0
1776970500.143,5.5306,-2.5043,3.5865,-0.3565,-0.9779,-0.6976,-7.35,-34.2,45.0,2.8252,-6.6008,3.9409,-1.0118,-0.5921,-0.9582,-31.5,-55.5,-10.65,-0.79,2.24,-5.03,0.4931,-2.9725,1.8959,-64.1875,33.5625,-12.0625,300.625,74.1875,124.875,0
1776970500.152,5.7485,-3.7086,3.5554,-0.0408,-1.3582,-0.9094,-8.1,-32.7,45.75,2.32,-7.1299,3.2848,-0.9435,-1.173,-1.2105,-31.5,-55.5,-10.65,-0.59,0.77,-4.98,0.7407,-2.6736,1.549,-64.1875,33.5625,-12.0625,300.625,74.1875,124.875,0
1776970500.162,5.466,-4.968,4.2976,0.1258,-1.7677,-1.1389,-8.25,-32.55,45.15,1.3048,-7.762,2.7845,-0.7615,-1.7941,-1.5023,-31.5,-55.5,-10.65,-0.08,-0.23,-5.51,0.7287,-2.3769,1.1246,-64.1875,33.5625,-12.0625,299.1875,72.875,126.875,0
1776970500.167,5.466,-4.968,4.2976,0.1258,-1.7677,-1.1389,-7.8,-33.15,43.95,1.3048,-7.762,2.7845,-0.7615,-1.7941,-1.5023,-32.55,-54.0,-9.15,-0.08,-0.23,-5.51,0.7287,-2.3769,1.1246,-64.1875,33.5625,-12.0625,297.9375,71.75,129.0625,0
1776970500.172,5.2601,-4.9057,4.4221,0.3059,-1.9902,-1.3763,-7.8,-33.15,43.95,1.7549,-7.0533,3.6392,-0.1316,-2.0691,-1.8516,-32.55,-54.0,-9.15,0.64,-0.6,-6.34,0.6785,-2.4391,0.697,-58.5,39.75,-6.0,297.9375,71.75,129.0625,0
1776970500.177,5.2601,-4.9057,4.4221,0.3059,-1.9902,-1.3763,-9.6,-31.95,45.0,1.7549,-7.0533,3.6392,-0.1316,-2.0691,-1.8516,-32.55,-54.0,-9.15,0.64,-0.6,-6.34,0.6785,-2.4391,0.697,-58.5,39.75,-6.0,297.0,70.625,131.9375,0
1776970500.182,5.2912,-4.5466,3.8666,0.3368,-2.1522,-1.5138,-9.6,-31.95,45.0,1.98,-7.5657,2.0614,0.3794,-2.558,-2.0792,-32.55,-54.0,-9.15,3.12,-0.29,-7.62,0.4342,-2.762,0.3142,-58.5,39.75,-6.0,297.0,70.625,131.9375,0
1776970500.188,4.8028,-3.9433,2.7821,0.5646,-2.2383,-1.6923,-9.75,-30.75,44.85,2.296,-6.2177,1.6185,0.8311,-2.7931,-2.3553,-33.75,-52.8,-9.15,3.82,-0.16,-7.75,0.2476,-3.123,0.0567,-58.5,39.75,-6.0,296.25,69.4375,135.1875,0
1776970500.193,4.8028,-3.9433,2.7821,0.5646,-2.2383,-1.6923,-9.75,-30.75,44.85,2.296,-6.2177,1.6185,0.8311,-2.7931,-2.3553,-36.9,-53.4,-7.95,3.82,-0.16,-7.75,0.2476,-3.123,0.0567,-58.5,39.75,-6.0,295.5,68.0,138.625,0
1776970500.202,4.9153,-2.8228,2.4517,1.2998,-2.1629,-1.7962,-9.75,-30.75,44.85,2.8395,-5.43,1.4054,1.5807,-2.7243,-2.3443,-36.9,-53.4,-7.95,4.26,0.02,-7.05,0.1833,-3.5583,-0.0742,-58.5,39.75,-6.0,295.5,68.0,138.625,0
1776970500.212,5.6264,-2.7342,2.0877,2.0584,-2.1104,-1.8482,-11.7,-28.95,46.35,3.5865,-4.6639,1.3575,2.2892,-2.4792,-2.1919,-37.35,-52.5,-6.0,4.43,0.17,-4.75,0.1702,-3.975,-0.1451,-58.5,39.75,-6.0,294.6875,66.375,142.0,0
1776970500.217,6.6319,-3.2825,2.2673,2.5967,-2.2524,-1.9556,-13.2,-26.7,46.35,3.6248,-5.6814,3.4548,2.473,-2.4445,-2.0632,-39.6,-54.6,-5.25,4.43,0.17,-4.75,0.1702,-3.975,-0.1451,-58.5,39.75,-6.0,294.6875,66.375,142.0,0
1776970500.222,6.6319,-3.2825,2.2673,2.5967,-2.2524,-1.9556,-13.2,-26.7,46.35,3.6248,-5.6814,3.4548,2.473,-2.4445,-2.0632,-39.6,-54.6,-5.25,4.64,0.13,-3.6,0.204,-4.1102,-0.3731,-50.875,38.75,2.5625,293.9375,64.625,145.25,0
1776970500.227,7.2305,-4.3814,2.9281,2.8085,-2.5202,-2.1298,-14.25,-25.2,47.85,4.221,-7.3933,3.8571,2.5287,-2.9889,-2.3246,-39.0,-53.55,-4.8,4.64,0.13,-3.6,0.204,-4.1102,-0.3731,-50.875,38.75,2.5625,293.9375,64.625,145.25,0
1776970500.232,7.2305,-4.3814,2.9281,2.8085,-2.5202,-2.1298,-14.25,-25.2,47.85,4.221,-7.3933,3.8571,2.5287,-2.9889,-2.3246,-39.0,-53.55,-4.8,5.03,-0.11,-3.37,0.2443,-3.9324,-0.8072,-50.875,38.75,2.5625,293.3125,63.0625,148.3125,0
1776970500.237,8.2025,-6.0932,3.9887,2.7749,-2.8685,-2.2159,-16.05,-25.65,47.55,3.8906,-9.517,4.9752,2.3915,-3.5024,-2.5823,-42.6,-52.95,-2.7,5.03,-0.11,-3.37,0.1091,-3.6205,-1.393,-50.875,38.75,2.5625,293.25,61.6875,151.4375,0
1776970500.243,8.2025,-6.0932,3.9887,2.7749,-2.8685,-2.2159,-16.05,-25.65,47.55,3.8906,-9.517,4.9752,2.3915,-3.5024,-2.5823,-42.9,-49.65,-1.05,7.13,0.36,-5.3,0.1091,-3.6205,-1.393,-50.875,38.75,2.5625,293.5,60.4375,154.875,0
1776970500.252,9.0908,-7.6112,5.2409,2.4877,-3.1797,-2.1269,-16.05,-25.65,47.55,4.1946,-11.1833,5.2672,1.7221,-3.5282,-2.525,-42.9,-49.65,-1.05,8.73,1.07,-5.86,0.0949,-3.5747,-2.0333,-50.875,38.75,2.5625,293.5,60.4375,154.875,0
1776970500.262,9.3326,-7.4148,5.8921,1.9923,-3.3103,-1.8983,-16.05,-25.65,47.55,4.7764,-12.0955,5.6431,1.0437,-3.1517,-2.477,-44.85,-51.45,-0.9,9.85,1.49,-6.29,0.3698,-3.5888,-2.5165,-50.875,38.75,2.5625,293.875,59.1875,158.1875,0
1776970500.267,9.8019,-5.9256,5.3056,1.5831,-3.3388,-1.6097,-19.95,-20.55,48.75,5.9903,-10.4483,4.786,0.5132,-2.9292,-2.3326,-44.85,-51.45,-0.9,9.85,1.49,-6.29,0.3698,-3.5888,-2.5165,-50.875,38.75,2.5625,294.0,57.75,161.375,0
1776970500.272,9.8019,-5.9256,5.3056,1.5831,-3.3388,-1.6097,-20.85,-19.65,49.65,5.9903,-10.4483,4.786,0.5132,-2.9292,-2.3326,-44.85,-51.45,-0.9,10.57,1.58,-6.11,0.7199,-3.7295,-2.8285,-43.5,32.1875,10.0,294.0,57.75,161.375,0
1776970500.277,9.809,-4.4149,4.9297,1.5295,-3.3606,-1.4461,-20.85,-19.65,49.65,6.4141,-9.335,3.9648,0.3429,-3.075,-2.1575,-47.7,-48.9,-0.6,10.57,1.58,-6.11,0.7199,-3.7295,-2.8285,-43.5,32.1875,10.0,294.0,57.75,161.375,0
1776970500.282,9.809,-4.4149,4.9297,1.5295,-3.3606,-1.4461,-21.6,-18.15,48.15,6.4141,-9.335,3.9648,0.3429,-3.075,-2.1575,-47.7,-48.9,-0.6,11.35,0.58,-5.78,1.057,-3.9379,-3.05,-43.5,32.1875,10.0,293.9375,56.1875,164.25,0
1776970500.288,9.1147,-2.6791,5.1523,1.8175,-3.3966,-1.4176,-21.6,-18.15,48.15,6.3901,-7.7548,3.9792,0.4724,-3.3308,-2.0624,-47.7,-48.9,-0.6,11.35,0.58,-5.78,1.2185,-3.9597,-3.2147,-43.5,32.1875,10.0,293.8125,54.5,166.875,0
1776970500.293,9.1147,-2.6791,5.1523,1.8175,-3.3966,-1.4176,-22.95,-16.65,47.55,6.2417,-6.7493,3.5913,0.4724,-3.3308,-2.0624,-51.9,-48.9,-0.6,12.18,0.81,-5.95,1.2185,-3.9597,-3.2147,-43.5,32.1875,10.0,293.75,52.875,169.1875,0
1776970500.302,8.6359,-1.4102,5.4253,2.3606,-3.4062,-1.4997,-22.95,-16.65,47.55,5.9759,-5.3175,4.5466,0.7759,-3.7387,-2.039,-51.9,-47.7,0.3,13.45,1.5,-6.59,1.2348,-3.7274,-3.2616,-43.5,32.1875,10.0,293.75,52.875,169.1875,0
1776970500.312,8.5617,-0.6009,5.8275,3.0275,-3.3891,-1.5918,-24.6,-15.3,48.45,6.2944,-4.8674,5.4277,1.0693,-4.0532,-2.0376,-51.9,-46.05,0.6,15.34,3.85,-7.83,1.3777,-3.5768,-3.2725,-43.5,32.1875,10.0,293.5,51.1875,171.125,0
1776970500.317,8.6933,-0.2801,6.0382,3.735,-3.3497,-1.6238,-24.6,-15.3,48.45,6.2944,-4.8674,5.4277,1.4922,-4.306,-2.0544,-54.0,-45.9,0.9,15.34,3.85,-7.83,1.3777,-3.5768,-3.2725,-43.5,32.1875,10.0,292.75,49.4375,172.6875,0
1776970500.322,8.6933,-0.2801,6.0382,3.735,-3.3497,-1.6238,-27.0,-15.15,47.1,6.0406,-4.1013,6.6894,2.0387,-4.3196,-1.9867,-54.0,-45.9,0.9,15.76,4.87,-8.11,1.7573,-3.627,-3.2572,-37.5,24.25,7.5625,292.75,49.4375,172.6875,0
1776970500.327,8.7915,-0.4669,5.94,4.2674,-3.3534,-1.5609,-27.0,-15.15,47.1,6.0406,-4.1013,6.6894,2.0387,-4.3196,-1.9867,-54.15,-45.0,0.0,15.76,4.87,-8.11,1.7573,-3.627,-3.2572,-37.5,24.25,7.5625,291.3125,47.5625,173.6875,0
1776970500.332,8.7915,-0.4669,5.94,4.2674,-3.3534,-1.5609,-27.6,-14.25,48.45,6.0765,-4.3551,8.5329,2.828,-3.9487,-1.9502,-54.15,-45.0,0.0,15.68,5.38,-7.99,2.306,-3.7994,-3.2365,-37.5,24.25,7.5625,291.3125,47.5625,173.6875,0
1776970500.337,8.6598,-0.9122,6.0621,4.634,-3.3878,-1.4562,-27.6,-14.25,48.45,6.0765,-4.3551,8.5329,2.828,-3.9487,-1.9502,-57.0,-44.4,0.15,15.68,5.38,-7.99,2.8831,-4.0077,-3.2463,-37.5,24.25,7.5625,288.9375,45.5625,174.25,0
1776970500.343,8.7676,-2.2075,6.0741,4.8118,-3.3883,-1.3254,-27.75,-10.65,47.85,6.7157,-5.4971,6.3638,3.1051,-4.2229,-1.6808,-57.0,-44.4,0.15,14.43,4.09,-6.68,2.8831,-4.0077,-3.2463,-37.5,24.25,7.5625,297.4375,43.4375,174.4375,0
1776970500.353,9.6582,-3.3351,6.4021,4.665,-3.4328,-1.2137,-29.85,-6.9,47.1,5.9496,-7.3813,6.4045,3.0257,-4.3945,-1.5114,-57.9,-45.45,1.65,12.94,3.21,-5.64,3.291,-4.2128,-3.2943,-37.5,24.25,7.5625,297.4375,43.4375,174.4375,0
1776970500.362,9.9503,-3.6943,6.1411,4.4763,-3.5098,-1.1103,-29.85,-6.9,47.1,5.8275,-8.5808,6.5553,2.9796,-4.576,-1.38,-57.9,-45.45,1.65,11.19,2.53,-4.51,3.4677,-4.2968,-3.3325,-37.5,24.25,7.5625,294.75,41.1875,174.375,0
1776970500.367,9.9503,-3.6943,6.1411,4.4763,-3.5098,-1.1103,-29.85,-6.9,47.1,5.8275,-8.5808,6.5553,2.9796,-4.576,-1.38,-60.45,-40.8,1.95,11.19,2.53,-4.51,3.4677,-4.2968,-3.3325,-37.5,24.25,7.5625,294.75,41.1875,174.375,0
1776970500.372,9.742,-3.2705,5.8059,4.4542,-3.52,-1.0277,-31.35,-5.4,46.8,6.347,-9.3781,5.5426,2.8509,-4.476,-1.4024,-60.45,-40.8,1.95,11.14,2.52,-4.83,3.387,-4.0175,-3.3259,-40.75,15.875,4.5625,292.0625,39.1875,174.25,0
1776970500.377,9.742,-3.2705,5.8059,4.4542,-3.52,-1.0277,-31.35,-5.4,46.8,6.347,-9.3781,5.5426,2.8509,-4.476,-1.4024,-60.45,-40.8,1.95,11.14,2.52,-4.83,3.387,-4.0175,-3.3259,-40.75,15.875,4.5625,292.0625,39.1875,174.25,0
1776970500.382,9.517,-2.7869,5.3103,4.5621,-3.4512,-0.9779,-31.35,-2.7,45.3,6.7253,-8.7317,4.1899,2.8194,-4.4992,-1.4687,-60.45,-40.8,1.95,13.73,4.82,-7.02,3.2092,-3.5997,-3.2856,-40.75,15.875,4.5625,289.5625,37.375,174.0625,0
1776970500.389,9.517,-2.7869,5.3103,4.5621,-3.4512,-0.9779,-31.35,-2.7,45.3,6.4021,-7.592,4.2042,2.8194,-4.4992,-1.4687,-65.4,-39.6,1.95,14.43,5.95,-7.09,3.2441,-3.3652,-3.243,-40.75,15.875,4.5625,287.0625,35.6875,173.75,0
1776970500.394,9.5505,-2.545,4.7118,4.6703,-3.3478,-0.9622,-33.15,-2.7,45.75,6.4021,-7.592,4.2042,2.7864,-4.6644,-1.4354,-65.4,-39.6,1.95,14.43,5.95,-7.09,3.2441,-3.3652,-3.243,-40.75,15.875,4.5625,284.625,33.9375,173.1875,0
1776970500.403,9.9192,-2.387,4.2449,4.7628,-3.2359,-0.9587,-33.9,-1.95,43.95,6.7229,-7.3167,4.2784,2.8956,-4.6133,-1.364,-65.4,-39.6,1.95,14.34,6.43,-6.37,3.4699,-3.5757,-3.1656,-40.75,15.875,4.5625,282.125,32.0625,172.4375,0
1776970500.413,10.2472,-2.5331,3.6296,4.7617,-3.0651,-0.9459,-35.1,1.5,43.35,7.2449,-7.4484,3.9337,3.0478,-4.4982,-1.2915,-67.5,-38.7,0.3,12.92,6.14,-4.58,3.723,-3.8419,-3.123,-40.75,15.875,4.5625,282.125,32.0625,172.4375,0
1776970500.418,10.2472,-2.5331,3.6296,4.7617,-3.0651,-0.9459,-35.1,1.5,43.35,7.5776,-7.5609,2.909,3.0478,-4.4982,-1.2915,-68.25,-36.0,0.3,12.92,6.14,-4.58,3.723,-3.8419,-3.123,-46.5625,8.1875,15.75,279.625,30.25,171.625,0
1776970500.423,10.3142,-2.5714,2.9592,4.5986,-2.8469,-0.9164,-35.1,1.5,43.35,7.5776,-7.5609,2.909,3.2026,-4.3988,-1.2732,-68.25,-36.0,0.3,12.93,6.24,-4.29,3.7176,-3.7165,-3.2387,-46.5625,8.1875,15.75,279.625,30.25,171.625,0
1776970500.428,10.3142,-2.5714,2.9592,4.5986,-2.8469,-0.9164,-35.1,1.5,43.35,7.6782,-7.1228,0.9601,3.2026,-4.3988,-1.2732,-69.75,-36.3,-0.3,12.93,6.24,-4.29,3.7176,-3.7165,-3.2387,-46.5625,8.1875,15.75,277.0625,28.625,170.875,0
1776970500.433,10.1849,-2.0303,2.3391,4.406,-2.5799,-0.8695,-36.0,2.4,42.45,7.6782,-7.1228,0.9601,3.2961,-4.1904,-1.2716,-69.75,-36.3,-0.3,13.29,6.52,-3.72,3.5277,-3.4634,-3.4568,-46.5625,8.1875,15.75,277.0625,28.625,170.875,0
1776970500.439,9.9982,-1.5993,1.5538,4.2658,-2.2791,-0.8314,-35.55,4.5,40.5,7.5776,-5.9256,0.929,3.2079,-3.6657,-1.1839,-70.95,-35.1,0.3,14.06,6.82,-3.49,3.1961,-3.0249,-3.5997,-46.5625,8.1875,15.75,274.5,27.3125,170.3125,0
1776970500.444,9.9982,-1.5993,1.5538,4.2658,-2.2791,-0.8314,-35.55,4.5,40.5,7.5776,-5.9256,0.929,3.2079,-3.6657,-1.1839,-70.95,-35.1,0.3,14.06,6.82,-3.49,3.1961,-3.0249,-3.5997,-46.5625,8.1875,15.75,271.9375,26.25,169.875,0
1776970500.453,9.924,-1.3192,1.1516,4.1816,-1.9404,-0.8074,-37.65,6.0,40.5,8.2624,-5.3846,0.6608,3.2066,-3.096,-1.0698,-70.95,-34.35,0.3,14.37,6.87,-3.26,2.8972,-2.6234,-3.7415,-46.5625,8.1875,15.75,269.3125,25.3125,169.5,0
1776970500.463,9.833,-1.0008,1.1492,4.0462,-1.5871,-0.7722,-36.45,5.7,41.4,8.3989,-4.6902,-0.0838,3.2519,-2.9612,-0.9076,-72.0,-33.15,0.3,14.09,6.96,-2.59,2.6387,-2.354,-3.8964,-46.5625,8.1875,15.75,269.3125,25.3125,169.5,0
1776970500.468,9.833,-1.0008,1.1492,4.0462,-1.5871,-0.7722,-36.45,5.7,41.4,8.2408,-4.4388,0.6321,3.2658,-2.6358,-0.7325,-72.0,-33.15,0.3,14.09,6.96,-2.59,2.6387,-2.354,-3.8964,-46.5625,8.1875,15.75,266.625,24.625,169.375,0
1776970500.473,9.5074,-0.3543,1.3288,3.9375,-1.2772,-0.7165,-37.35,6.0,40.5,8.2408,-4.4388,0.6321,3.2658,-2.6358,-0.7325,-72.0,-33.15,0.3,13.6,6.83,-2.19,2.3835,-2.0944,-4.0928,-44.6875,3.5625,24.875,266.625,24.625,169.375,0
1776970500.478,9.1195,0.3687,1.3599,3.6961,-0.9633,-0.6278,-37.35,6.0,40.5,8.418,-3.6727,1.3719,3.2564,-2.2785,-0.5817,-73.8,-30.6,-0.45,13.6,6.83,-2.19,2.3835,-2.0944,-4.0928,-44.6875,3.5625,24.875,263.875,24.0625,169.375,0
1776970500.483,9.1195,0.3687,1.3599,3.6961,-0.9633,-0.6278,-37.35,6.0,40.5,8.418,-3.6727,1.3719,3.2564,-2.2785,-0.5817,-73.8,-30.6,-0.45,12.54,6.02,-1.09,2.0878,-1.8217,-4.3633,-44.6875,3.5625,24.875,263.875,24.0625,169.375,0
1776970500.492,8.5928,1.0822,1.1708,3.5453,-0.6899,-0.5079,-37.35,8.25,40.5,8.1403,-2.8587,1.5754,3.2231,-1.9833,-0.4013,-73.8,-30.6,-0.45,12.23,6.06,-0.87,1.6624,-1.3919,-4.6458,-44.6875,3.5625,24.875,261.0625,23.75,169.625,0
1776970500.498,8.2696,1.664,1.6065,3.5314,-0.4423,-0.4034,-37.35,8.25,40.5,8.272,-1.98,2.1739,3.1197,-1.7762,-0.2129,-73.65,-31.2,-0.6,12.23,6.06,-0.87,1.2414,-0.805,-4.9349,-44.6875,3.5625,24.875,258.125,23.8125,170.125,0
1776970500.504,8.2696,1.664,1.6065,3.5314,-0.4423,-0.4034,-36.3,8.25,39.15,8.272,-1.98,2.1739,3.1197,-1.7762,-0.2129,-73.65,-31.2,-0.6,12.36,6.61,-1.08,1.2414,-0.805,-4.9349,-44.6875,3.5625,24.875,255.125,24.1875,170.875,0
1776970500.513,8.1906,2.241,1.7406,3.6599,-0.1969,-0.3192,-38.25,9.45,40.05,8.2121,-1.3647,2.4612,3.1957,-1.6481,-0.0232,-74.55,-30.3,0.9,13.21,7.93,-2.19,1.0287,-0.2422,-5.1989,-44.6875,3.5625,24.875,255.125,24.1875,170.875,0
1776970500.518,8.4252,2.7366,2.3511,3.7715,0.0354,-0.2547,-38.1,10.5,39.15,8.3773,-1.2785,2.8898,3.3326,-1.518,0.137,-74.7,-29.7,0.0,13.21,7.93,-2.19,1.0287,-0.2422,-5.1989,-42.5,-1.75,31.75,252.0,24.625,171.5625,0
1776970500.523,8.4252,2.7366,2.3511,3.7715,0.0354,-0.2547,-38.1,10.5,39.15,8.5066,-0.996,3.316,3.3326,-1.518,0.137,-74.7,-29.7,0.0,12.74,7.98,-1.87,1.1694,0.0382,-5.3898,-42.5,-1.75,31.75,252.0,24.625,171.5625,0
1776970500.528,8.509,2.9616,2.1189,3.8653,0.2681,-0.2105,-37.35,10.5,39.45,8.5066,-0.996,3.316,3.5943,-1.4035,0.2364,-75.6,-27.45,-0.15,12.74,7.98,-1.87,1.1694,0.0382,-5.3898,-42.5,-1.75,31.75,252.0,24.625,171.5625,0
1776970500.533,8.509,2.9616,2.1189,3.8653,0.2681,-0.2105,-37.35,10.5,39.45,8.5617,-1.3384,3.0478,3.5943,-1.4035,0.2364,-75.6,-27.45,-0.15,11.75,7.13,-1.42,1.4835,0.1134,-5.4509,-42.5,-1.75,31.75,248.75,25.125,172.125,0
1776970500.538,8.2911,1.7861,2.1141,4.0582,0.4735,-0.2052,-37.35,10.5,39.45,8.5617,-1.3384,3.0478,3.8371,-1.3907,0.3123,-75.6,-28.65,-0.15,11.75,7.13,-1.42,1.7475,0.2389,-5.4509,-42.5,-1.75,31.75,245.5625,25.6875,172.5625,0
1776970500.544,8.2911,1.7861,2.1141,4.0582,0.4735,-0.2052,-37.35,10.5,39.45,7.2688,-2.3559,2.9233,4.0612,-1.4261,0.4175,-75.6,-28.65,-0.15,11.15,4.8,-2.17,1.7475,0.2389,-5.4509,-42.5,-1.75,31.75,242.3125,26.3125,173.0,0
1776970500.553,7.841,0.7039,3.1005,4.2485,0.6821,-0.2089,-37.65,11.55,39.15,6.5122,-3.4931,3.7781,4.2197,-1.2428,0.4655,-76.2,-28.5,-0.3,11.17,4.2,-2.72,1.8075,0.4832,-5.4683,-42.5,-1.75,31.75,242.3125,26.3125,173.0,0
1776970500.563,7.92,-0.0168,3.8523,4.1523,0.8359,-0.2417,-39.0,12.15,40.05,5.8586,-4.3527,4.5921,4.245,-1.0957,0.4698,-74.55,-27.15,0.45,10.66,3.45,-3.7,1.561,0.8127,-5.3549,-42.5,-1.75,31.75,239.125,27.125,173.625,0
1776970500.568,7.9895,-0.8308,4.288,3.933,0.8847,-0.2958,-37.65,14.55,39.9,5.8586,-4.3527,4.5921,4.245,-1.0957,0.4698,-76.2,-27.75,1.8,10.66,3.45,-3.7,1.561,0.8127,-5.3549,-42.5,-1.75,31.75,236.125,27.9375,174.375,0
1776970500.573,7.9895,-0.8308,4.288,3.933,0.8847,-0.2958,-37.65,14.55,39.9,5.7844,-5.3893,4.8914,4.0883,-0.9406,0.4199,-76.2,-27.75,1.8,9.71,2.71,-4.75,1.2741,0.9708,-5.2098,-39.375,-9.0625,33.875,236.125,27.9375,174.375,0
1776970500.578,8.1307,-1.6735,4.4676,3.6535,0.8788,-0.3499,-38.1,13.8,41.25,5.7844,-5.3893,4.8914,4.0883,-0.9406,0.4199,-76.2,-27.75,1.8,9.71,2.71,-4.75,1.2741,0.9708,-5.2098,-39.375,-9.0625,33.875,233.1875,28.6875,175.25,0
