timestamp,thigh_acc_x,thigh_acc_y,thigh_acc_z,thigh_gyro_x,thigh_gyro_y,thigh_gyro_z,thigh_mag_x,thigh_mag_y,thigh_mag_z,shank_acc_x,shank_acc_y,shank_acc_z,shank_gyro_x,shank_gyro_y,shank_gyro_z,shank_mag_x,shank_mag_y,shank_mag_z,foot_acc_x,foot_acc_y,foot_acc_z,foot_gyro_x,foot_gyro_y,foot_gyro_z,foot_mag_x,foot_mag_y,foot_mag_z,foot_euler_x,foot_euler_y,foot_euler_z,perturbation_event
1776972325.605,8.4204,-1.9728,-4.8818,-0.012,0.0282,0.0128,0.3,-3.0,-179.85,5.6886,7.683,-1.6065,-0.049,-0.0048,0.0109,-84.75,40.05,-20.85,6.53,0.13,-7.32,-0.0022,0.0011,-0.0011,-25.0625,2.875,43.5,309.8125,42.0,-178.9375,0
1776972325.61,8.4276,-2.0375,-4.9009,-0.0141,0.0368,0.0112,1.2,-3.9,-181.5,5.6886,7.683,-1.6065,-0.049,-0.0048,0.0109,-84.75,40.05,-20.85,6.53,0.13,-7.32,-0.0044,0.0044,-0.0022,-24.0,2.875,43.0625,309.8125,42.0,-178.9375,0
1776972325.615,8.4276,-2.0375,-4.9009,-0.0141,0.0368,0.0112,1.2,-3.9,-181.5,5.6934,7.592,-1.6257,-0.0541,-0.0043,0.0184,-84.75,40.05,-20.85,6.54,0.13,-7.3,-0.0044,0.0044,-0.0022,-24.0,2.875,43.0625,309.8125,42.0,-178.9375,0
1776972325.624,8.3797,-2.0782,-4.8698,-0.0091,0.0373,0.0117,-1.05,-3.3,-180.9,5.6862,7.6495,-1.5921,-0.0544,-0.0096,0.0125,-84.45,38.1,-21.6,6.53,0.13,-7.34,-0.0022,0.0022,0.0011,-24.0,2.875,43.0625,309.8125,42.0,-178.9375,0
1776972325.634,8.4276,-2.0638,-4.8985,-0.0115,0.0386,0.0157,-0.3,-2.55,-181.2,5.7293,7.6279,-1.5634,-0.0544,-0.0107,0.0176,-86.1,39.0,-21.75,6.55,0.12,-7.33,-0.0044,0.0044,-0.0011,-24.0,2.875,43.0625,309.8125,42.0,-178.9375,0
1776972325.643,8.4467,-2.0446,-4.8315,-0.0128,0.037,0.0141,-0.3,-2.55,-181.2,5.6575,7.6184,-1.5395,-0.048,-0.008,0.0112,-84.15,40.2,-21.0,6.52,0.09,-7.33,-0.0033,0.0044,-0.0022,-24.0,2.875,43.0625,309.8125,42.0,-178.9375,0
1776972325.648,8.4874,-2.0997,-4.8363,-0.0112,0.0418,0.0195,-0.3,-2.55,-181.2,5.6575,7.6184,-1.5395,-0.048,-0.008,0.0112,-85.05,39.0,-22.95,6.52,0.09,-7.33,-0.0033,0.0044,-0.0022,-24.0,2.875,43.0625,309.8125,42.0,-178.9375,0
1776972325.655,8.4874,-2.0997,-4.8363,-0.0112,0.0418,0.0195,-0.45,-2.4,-181.05,5.7102,7.6758,-1.5634,-0.0517,-0.0091,0.0157,-85.05,39.0,-22.95,6.53,0.14,-7.34,-0.0033,0.0055,-0.0033,-24.0,2.875,43.0625,309.8125,42.0,-178.9375,0
1776972325.66,8.4683,-2.0638,-4.8028,-0.0069,0.0418,0.0187,-0.9,-3.9,-181.05,5.7102,7.6758,-1.5634,-0.0517,-0.0091,0.0157,-84.6,38.25,-21.75,6.53,0.14,-7.34,-0.0033,0.0044,-0.0033,-24.25,3.6875,43.75,309.8125,42.0,-178.9375,0
1776972325.665,8.4683,-2.0638,-4.8028,-0.0069,0.0418,0.0187,-0.9,-3.9,-181.05,5.6767,7.6423,-1.5155,-0.0552,-0.0101,0.0147,-84.6,38.25,-21.75,6.56,0.12,-7.31,-0.0033,0.0044,-0.0033,-24.25,3.6875,43.75,309.8125,42.0,-178.9375,0
1776972325.674,8.4396,-2.1165,-4.8363,-0.0141,0.0389,0.0195,-1.8,-3.0,-180.9,5.6575,7.6351,-1.5155,-0.0525,-0.0085,0.0107,-85.95,38.85,-21.9,6.56,0.14,-7.3,-0.0055,0.0055,-0.0033,-24.25,3.6875,43.75,309.8125,42.0,-178.9375,0
1776972325.684,8.4324,-2.1691,-4.7836,-0.0107,0.0437,0.0189,-0.3,-1.5,-180.6,5.6695,7.7333,-1.4748,-0.0488,-0.0075,0.0165,-85.95,38.85,-21.9,6.54,0.13,-7.35,-0.0044,0.0065,-0.0011,-24.25,3.6875,43.75,309.8125,42.0,-178.9375,0
1776972325.693,8.418,-2.1691,-4.7788,-0.0104,0.0442,0.0141,-0.3,-1.5,-180.6,5.6982,7.7285,-1.4293,-0.0522,-0.0016,0.012,-85.35,38.7,-21.45,6.54,0.14,-7.33,-0.0033,0.0076,-0.0011,-24.25,3.6875,43.75,309.8125,42.0,-178.9375,0
1776972325.698,8.4707,-2.2098,-4.7597,-0.0115,0.0426,0.0189,-0.3,-1.5,-180.6,5.6982,7.7285,-1.4293,-0.0522,-0.0016,0.012,-85.35,38.7,-21.45,6.54,0.14,-7.33,-0.0033,0.0076,-0.0011,-24.25,3.6875,43.75,309.8125,42.0,-178.9375,0
1776972325.705,8.4707,-2.2098,-4.7597,-0.0115,0.0426,0.0189,-0.3,-1.5,-180.6,5.7557,7.6758,-1.4461,-0.0482,-0.0037,0.0176,-85.35,38.7,-21.45,6.53,0.14,-7.31,-0.0033,0.0065,-0.0033,-24.25,3.6875,43.75,309.8125,42.0,-178.9375,0
1776972325.71,8.5066,-2.2146,-4.8291,-0.012,0.0325,0.0096,0.9,-3.9,-179.7,5.6695,7.683,-1.4341,-0.0421,-0.0056,0.0144,-85.8,38.7,-21.0,6.53,0.14,-7.31,-0.0011,0.0022,-0.0044,-24.25,4.0,43.5,309.8125,42.0,-178.9375,0
1776972325.715,8.5066,-2.2146,-4.8291,-0.0125,0.0381,0.012,0.9,-3.9,-179.7,5.6695,7.683,-1.4341,-0.0421,-0.0056,0.0144,-85.8,38.7,-21.0,6.55,0.12,-7.34,-0.0011,0.0022,-0.0044,-24.25,4.0,43.5,309.8125,42.0,-178.9375,0
1776972325.724,8.406,-2.2027,-4.7573,-0.0125,0.0381,0.012,-0.45,-3.15,-180.3,5.6838,7.7261,-1.3958,-0.0362,-0.0032,0.0139,-85.5,39.3,-21.6,6.55,0.13,-7.33,-0.0011,0.0033,0.0,-24.25,4.0,43.5,309.8125,42.0,-178.9375,0
1776972325.734,8.3965,-2.1524,-4.7381,-0.0131,0.0349,0.0069,-0.3,-2.55,-180.9,5.6527,7.7237,-1.3815,-0.037,-0.0035,0.0115,-84.45,39.3,-22.35,6.58,0.13,-7.31,-0.0011,0.0,-0.0044,-24.25,4.0,43.5,309.8125,42.0,-178.9375,0
1776972325.743,8.4707,-2.1691,-4.7573,-0.0104,0.0338,0.0059,-0.15,-2.7,-181.5,5.6264,7.6758,-1.4246,-0.0362,0.0003,0.0155,-85.35,38.25,-21.0,6.54,0.12,-7.34,0.0011,0.0011,0.0,-24.25,4.0,43.5,309.8125,42.0,-178.9375,0
1776972325.748,8.418,-2.1859,-4.7621,-0.0125,0.0336,0.0027,-0.15,-2.7,-181.5,5.6743,7.7141,-1.403,-0.0362,0.0003,0.0155,-85.05,39.0,-22.5,6.54,0.12,-7.34,0.0011,0.0011,0.0,-24.25,4.0,43.5,309.8125,42.0,-178.9375,0
1776972325.755,8.4467,-2.1237,-4.7549,-0.0075,0.0333,0.0045,-0.15,-2.7,-181.5,5.6743,7.7141,-1.403,-0.0298,0.0013,0.0136,-85.05,39.0,-22.5,6.56,0.14,-7.33,0.0011,-0.0011,-0.0022,-24.25,4.0,43.5,309.8125,42.0,-178.9375,0
1776972325.76,8.4467,-2.1237,-4.7549,-0.0075,0.0333,0.0045,-0.15,-2.7,-181.5,5.6671,7.7381,-1.4006,-0.0314,-0.008,0.0155,-85.2,38.85,-21.9,6.56,0.14,-7.33,0.0033,-0.0033,-0.0011,-24.6875,4.0,43.0625,309.8125,42.0,-178.9375,0
1776972325.765,8.4348,-2.0997,-4.7381,-0.0099,0.0296,0.0008,-0.15,-2.7,-181.5,5.6671,7.7381,-1.4006,-0.0314,-0.008,0.0155,-85.2,38.85,-21.9,6.55,0.15,-7.31,0.0033,-0.0033,-0.0011,-24.6875,4.0,43.0625,309.8125,42.0,-178.9375,0
1776972325.775,8.497,-2.1428,-4.7692,-0.0069,0.0282,0.0008,0.3,-3.75,-180.9,5.7174,7.7572,-1.4748,-0.0293,-0.0008,0.0131,-85.2,38.85,-21.9,6.55,0.12,-7.32,0.0011,-0.0044,-0.0022,-24.6875,4.0,43.0625,309.8125,42.0,-178.9375,0
1776972325.784,8.4635,-2.1691,-4.7357,-0.0109,0.024,-0.0011,-1.05,-4.5,-180.6,5.6264,7.6926,-1.4509,-0.0274,-0.0005,0.0192,-85.35,39.0,-21.45,6.55,0.15,-7.35,0.0033,0.0022,0.0,-24.6875,4.0,43.0625,309.8125,42.0,-178.9375,0
1776972325.793,8.4563,-2.1428,-4.7716,-0.0083,0.0197,-0.0045,-0.3,-3.0,-180.6,5.5809,7.7428,-1.4389,-0.0245,-0.0024,0.0189,-85.35,39.0,-21.45,6.55,0.15,-7.31,0.0022,-0.0022,0.0,-24.6875,4.0,43.0625,309.8125,42.0,-178.9375,0
1776972325.798,8.4563,-2.1428,-4.7716,-0.0083,0.0197,-0.0045,-0.15,-4.2,-181.8,5.6431,7.7548,-1.4317,-0.0165,-0.0016,0.0195,-84.75,38.55,-21.6,6.55,0.15,-7.31,0.0022,-0.0022,0.0,-24.6875,4.0,43.0625,309.8125,42.0,-178.9375,0
1776972325.805,8.4491,-2.1715,-4.7932,-0.0035,0.0203,-0.0091,-0.15,-4.2,-181.8,5.7365,7.7045,-1.47,-0.0165,-0.0016,0.0195,-84.75,38.55,-21.6,6.57,0.13,-7.33,0.0044,-0.0033,0.0011,-24.6875,4.0,43.0625,309.8125,42.0,-178.9375,0
1776972325.81,8.4491,-2.1715,-4.7932,-0.0035,0.0203,-0.0091,-0.15,-4.2,-181.8,5.7365,7.7045,-1.47,-0.0128,0.0035,0.016,-83.85,38.7,-21.75,6.57,0.13,-7.33,0.0033,-0.0022,-0.0011,-24.6875,2.875,42.5625,309.8125,42.0,-178.9375,0
1776972325.815,8.4228,-2.0949,-4.8052,-0.0085,0.0179,-0.0096,-0.15,-4.2,-181.8,5.7269,7.6734,-1.4964,-0.0056,-0.0003,0.0197,-83.85,38.7,-21.75,6.55,0.13,-7.33,0.0033,-0.0022,-0.0011,-24.6875,2.875,42.5625,309.8125,42.0,-178.9375,0
1776972325.825,8.4611,-2.1237,-4.8004,-0.0099,0.0123,-0.0099,-0.15,-3.15,-180.75,5.6838,7.6902,-1.5467,-0.0072,0.0021,0.0171,-85.2,39.6,-21.6,6.55,0.16,-7.32,0.0033,0.0,0.0011,-24.6875,2.875,42.5625,309.8125,42.0,-178.9375,0
1776972325.834,8.4108,-2.083,-4.8219,-0.0083,0.0163,-0.0035,-1.2,-2.4,-181.05,5.6886,7.7069,-1.4916,-0.0133,0.0061,0.0165,-86.25,38.85,-20.85,6.57,0.13,-7.32,0.0033,-0.0033,0.0022,-24.6875,2.875,42.5625,309.8125,42.0,-178.9375,0
1776972325.843,8.3486,-2.0877,-4.8435,-0.0136,0.0187,-0.0128,0.45,-1.65,-181.5,5.5929,7.7213,-1.5347,-0.0133,0.0061,0.0165,-85.8,38.7,-21.45,6.54,0.15,-7.34,0.0055,-0.0055,0.0022,-24.6875,2.875,42.5625,309.8125,42.0,-178.9375,0
1776972325.848,8.3486,-2.0877,-4.8435,-0.0136,0.0187,-0.0128,-1.05,-3.75,-180.6,5.5929,7.7213,-1.5347,-0.0056,0.0053,0.0133,-84.15,39.45,-22.2,6.54,0.15,-7.34,0.0055,-0.0055,0.0022,-24.6875,2.875,42.5625,309.8125,42.0,-178.9375,0
1776972325.855,8.3845,-2.0997,-4.8315,-0.0128,0.0173,-0.0107,0.45,-2.4,-180.3,5.7102,7.6758,-1.5826,-0.0136,0.0019,0.0112,-84.15,39.45,-22.2,6.54,0.15,-7.3,0.0055,-0.0044,0.0022,-24.6875,2.875,42.5625,309.8125,42.0,-178.9375,0
1776972325.86,8.3845,-2.0997,-4.8315,-0.0093,0.0189,-0.0099,0.45,-2.4,-180.3,5.7102,7.6758,-1.5826,-0.0136,0.0019,0.0112,-84.15,39.45,-22.2,6.54,0.15,-7.3,0.0044,-0.0055,0.0011,-25.75,2.5625,43.5,309.8125,42.0,-178.9375,0
1776972325.866,8.406,-2.1021,-4.8435,-0.0093,0.0189,-0.0099,0.45,-2.4,-180.3,5.6671,7.6231,-1.5945,-0.0192,0.0085,0.0163,-84.15,39.45,-22.2,6.56,0.12,-7.32,0.0044,-0.0055,0.0011,-25.75,2.5625,43.5,309.8125,42.0,-178.9375,0
1776972325.875,8.4348,-2.0901,-4.8459,-0.0091,0.0149,-0.0093,1.05,-2.55,-180.6,5.6838,7.683,-1.5443,-0.0171,0.0093,0.0237,-84.45,38.85,-20.85,6.53,0.13,-7.31,0.0044,-0.0022,0.0022,-25.75,2.5625,43.5,309.8125,42.0,-178.9375,0
1776972325.884,8.3677,-2.0782,-4.8674,-0.0045,0.0237,-0.012,-0.3,-3.75,-179.85,5.691,7.6734,-1.5179,-0.0141,0.0072,0.0107,-84.45,38.85,-20.85,6.56,0.12,-7.35,0.0033,-0.0055,0.0011,-25.75,2.5625,43.5,309.8125,42.0,-178.9375,0
1776972325.894,8.3893,-2.1045,-4.8914,-0.0096,0.0237,-0.0083,-0.3,-3.75,-179.85,5.7078,7.6926,-1.5945,-0.0224,0.0043,0.0139,-85.05,39.9,-21.0,6.52,0.12,-7.34,0.0033,-0.0033,0.0022,-25.75,2.5625,43.5,309.8125,42.0,-178.9375,0
1776972325.898,8.3893,-2.1045,-4.8914,-0.0096,0.0237,-0.0083,-0.9,-1.95,-180.75,5.7078,7.6926,-1.5945,-0.0224,0.0043,0.0139,-85.05,39.9,-21.0,6.52,0.12,-7.34,0.0033,-0.0033,0.0022,-25.75,2.5625,43.5,309.8125,42.0,-178.9375,0
1776972325.906,8.4228,-2.071,-4.8818,-0.008,0.029,-0.0032,-0.15,-3.45,-181.5,5.703,7.6255,-1.6041,-0.0205,0.0053,0.0173,-86.1,39.0,-21.75,6.54,0.13,-7.3,0.0044,-0.0044,0.0011,-25.75,2.5625,43.5,309.8125,42.0,-178.9375,0
1776972325.91,8.4013,-2.0686,-4.8411,-0.0109,0.0312,-0.0043,-0.15,-3.45,-181.5,5.7174,7.6471,-1.5514,-0.0205,0.0053,0.0173,-85.35,39.9,-22.2,6.54,0.13,-7.3,0.0033,-0.0065,0.0011,-24.6875,3.6875,43.5,309.8125,42.0,-178.9375,0
1776972325.916,8.4013,-2.0686,-4.8411,-0.0109,0.0312,-0.0043,-0.15,-3.45,-181.5,5.7174,7.6471,-1.5514,-0.0203,0.0016,0.0123,-85.35,39.9,-22.2,6.55,0.12,-7.33,0.0033,-0.0065,0.0011,-24.6875,3.6875,43.5,309.8125,42.0,-178.9375,0
1776972325.925,8.4084,-2.0423,-4.8483,-0.0152,0.0314,-0.0056,-0.15,-3.45,-181.5,5.703,7.6638,-1.6017,-0.0234,0.0035,0.0173,-86.25,38.85,-21.6,6.53,0.11,-7.35,0.0022,-0.0044,0.0011,-24.6875,3.6875,43.5,309.8125,42.0,-178.9375,0
1776972325.935,8.4132,-2.0518,-4.8459,-0.0131,0.0288,0.0005,-0.6,-3.0,-181.2,5.679,7.6734,-1.6017,-0.0248,-0.0008,0.0139,-83.7,39.3,-20.55,6.53,0.13,-7.31,0.0022,-0.0044,0.0,-24.6875,3.6875,43.5,309.8125,42.0,-178.9375,0
1776972325.944,8.4348,-2.0279,-4.8435,-0.0125,0.0314,-0.0032,-0.6,-3.3,-180.6,5.6719,7.6591,-1.5993,-0.0203,0.0056,0.0112,-84.15,39.45,-22.5,6.54,0.09,-7.34,-0.0022,-0.0022,0.0,-24.6875,3.6875,43.5,309.8125,42.0,-178.9375,0
1776972325.949,8.406,-2.0231,-4.8411,-0.0093,0.0328,0.0011,-0.6,-3.3,-180.6,5.6599,7.6734,-1.573,-0.0203,0.0056,0.0112,-84.15,39.45,-22.5,6.54,0.09,-7.34,-0.0022,-0.0022,0.0,-24.6875,3.6875,43.5,309.8125,42.0,-178.9375,0
1776972325.956,8.406,-2.0231,-4.8411,-0.0093,0.0328,0.0011,-0.6,-3.3,-181.65,5.6599,7.6734,-1.573,-0.0229,-0.0019,0.0133,-84.15,39.45,-22.5,6.56,0.11,-7.33,0.0,-0.0022,-0.0011,-24.6875,3.6875,43.5,309.8125,42.0,-178.9375,0
1776972325.961,8.3701,-2.0686,-4.8578,-0.0088,0.036,0.0024,-0.6,-3.3,-181.65,5.6479,7.6878,-1.5706,-0.033,0.0032,0.0101,-85.2,38.1,-23.1,6.56,0.11,-7.33,-0.0022,-0.0033,-0.0011,-25.0625,3.6875,43.5,309.8125,42.0,-178.9375,0
1776972325.966,8.3701,-2.0686,-4.8578,-0.0088,0.036,0.0024,1.8,-2.55,-180.15,5.6479,7.6878,-1.5706,-0.033,0.0032,0.0101,-85.2,38.1,-23.1,6.54,0.12,-7.33,-0.0022,-0.0033,-0.0011,-25.0625,3.6875,43.5,309.8125,42.0,-178.9375,0
1776972325.975,8.442,-2.0375,-4.8315,-0.0053,0.0368,0.0069,1.8,-2.55,-180.15,5.6958,7.6662,-1.5682,-0.0336,-0.0064,0.0155,-85.2,38.1,-23.1,6.53,0.13,-7.33,0.0,-0.0022,-0.0022,-25.0625,3.6875,43.5,309.8125,42.0,-178.9375,0
1776972325.985,8.406,-2.0255,-4.8243,-0.0131,0.0389,0.0096,-0.15,-3.15,-180.0,5.7078,7.6854,-1.5538,-0.0386,-0.0059,0.0077,-86.85,39.45,-22.2,6.53,0.14,-7.35,-0.0033,0.0022,-0.0022,-25.0625,3.6875,43.5,309.8125,42.0,-178.9375,0
1776972325.995,8.4252,-2.0686,-4.8171,-0.0099,0.0418,0.0131,0.0,-3.3,-181.65,5.679,7.7476,-1.5443,-0.0376,-0.0051,0.0096,-84.75,39.3,-23.4,6.53,0.13,-7.32,-0.0022,0.0022,-0.0011,-25.0625,3.6875,43.5,309.8125,42.0,-178.9375,0
1776972326.003,8.4611,-2.0734,-4.8698,-0.0107,0.0426,0.0061,0.15,-3.15,-181.5,5.6671,7.6614,-1.5083,-0.0421,-0.0072,0.0104,-85.95,39.6,-22.35,6.54,0.11,-7.32,-0.0022,0.0022,-0.0022,-25.0625,3.6875,43.5,309.8125,42.0,-178.9375,0
1776972326.008,8.4108,-2.1117,-4.8052,-0.0152,0.0362,0.0083,0.15,-3.15,-181.5,5.7078,7.7285,-1.5083,-0.0389,-0.0112,0.0112,-85.95,39.6,-22.35,6.54,0.11,-7.32,-0.0022,0.0022,-0.0022,-25.0625,3.6875,43.5,309.8125,42.0,-178.9375,0
1776972326.014,8.4108,-2.1117,-4.8052,-0.0152,0.0362,0.0083,-0.6,-2.25,-180.6,5.7078,7.7285,-1.5083,-0.0389,-0.0112,0.0112,-83.7,38.85,-20.85,6.52,0.14,-7.36,-0.0044,0.0044,0.0,-24.25,4.0,43.5,309.8125,42.0,-178.9375,0
1776972326.019,8.4132,-2.0638,-4.865,-0.0149,0.036,0.0123,-0.6,-2.25,-180.6,5.679,7.7237,-1.5036,-0.0386,-0.0051,0.0101,-83.7,38.85,-20.85,6.52,0.14,-7.36,-0.0033,0.0022,0.0,-24.25,4.0,43.5,309.8125,42.0,-178.9375,0
1776972326.026,8.3797,-2.0949,-4.8387,-0.0067,0.0376,0.0091,0.3,-2.25,-180.6,5.6096,7.695,-1.5323,-0.0386,-0.0051,0.0101,-84.6,39.9,-22.2,6.54,0.14,-7.32,-0.0033,0.0022,0.0,-24.25,4.0,43.5,309.8125,42.0,-178.9375,0
1776972326.035,8.442,-2.0949,-4.7621,-0.0093,0.0394,0.0056,0.3,-2.25,-180.6,5.7054,7.6998,-1.482,-0.0426,-0.0101,0.0144,-85.8,39.0,-22.2,6.56,0.13,-7.34,-0.0033,0.0055,-0.0033,-24.25,4.0,43.5,309.8125,42.0,-178.9375,0
1776972326.045,8.4348,-2.1332,-4.8171,-0.0101,0.0386,0.0109,0.0,-2.55,-181.65,5.6431,7.7428,-1.5155,-0.037,-0.0032,0.0131,-85.8,39.0,-22.2,6.53,0.12,-7.32,-0.0033,0.0033,-0.0022,-24.25,4.0,43.5,309.8125,42.0,-178.9375,0
1776972326.054,8.4348,-2.1332,-4.8171,-0.0101,0.0386,0.0109,0.3,-1.05,-180.15,5.6431,7.7428,-1.5155,-0.037,-0.0032,0.0115,-84.6,39.45,-22.95,6.56,0.14,-7.32,0.0,0.0055,-0.0033,-24.25,4.0,43.5,309.8125,42.0,-178.9375,0
1776972326.058,8.4252,-2.1045,-4.7381,-0.0125,0.0328,0.0096,0.3,-1.05,-180.15,5.6814,7.7165,-1.4653,-0.0357,-0.0088,0.0088,-84.6,39.45,-22.95,6.56,0.14,-7.32,0.0,0.0055,-0.0033,-24.25,4.0,43.5,309.8125,42.0,-178.9375,0
1776972326.065,8.4563,-2.1069,-4.7669,-0.0149,0.0328,0.0083,0.6,-3.3,-180.6,5.6575,7.7548,-1.5299,-0.0322,-0.0056,0.0189,-84.6,39.45,-22.95,6.54,0.15,-7.34,-0.0033,0.0076,-0.0011,-24.6875,4.0,42.25,309.8125,42.0,-178.9375,0
1776972326.075,8.43,-2.15,-4.7908,-0.016,0.0314,0.0091,-0.6,-3.0,-179.55,5.6192,7.695,-1.4365,-0.0317,-0.0077,0.016,-85.95,38.85,-22.65,6.55,0.12,-7.31,-0.0033,0.0055,-0.0022,-24.6875,4.0,42.25,309.8125,42.0,-178.9375,0
1776972326.083,8.3845,-2.1644,-4.7142,-0.0149,0.0277,0.004,-0.3,-1.5,-181.2,5.6192,7.6543,-1.4533,-0.0317,-0.0077,0.016,-84.75,38.85,-20.85,6.56,0.12,-7.34,-0.0033,0.0065,-0.0011,-24.6875,4.0,42.25,309.8125,42.0,-178.9375,0
1776972326.088,8.3845,-2.1644,-4.7142,-0.0149,0.0277,0.004,-0.3,-1.5,-181.2,5.6192,7.6543,-1.4533,-0.0352,-0.0037,0.0141,-84.75,38.85,-20.85,6.56,0.12,-7.34,-0.0033,0.0065,-0.0011,-24.6875,4.0,42.25,309.8125,42.0,-178.9375,0
1776972326.096,8.4156,-2.1548,-4.7262,-0.0096,0.0277,0.0037,-0.3,-1.5,-181.2,5.6862,7.7692,-1.47,-0.0328,-0.0091,0.0157,-85.35,38.7,-21.75,6.55,0.13,-7.35,0.0,0.0022,-0.0011,-24.6875,4.0,42.25,309.8125,42.0,-178.9375,0
1776972326.105,8.3917,-2.15,-4.7692,-0.0117,0.0282,0.0035,-1.35,-3.0,-180.9,5.6551,7.7045,-1.4653,-0.0365,-0.0016,0.0211,-84.75,38.85,-22.35,6.54,0.15,-7.33,-0.0022,0.0022,-0.0011,-24.6875,4.0,42.25,309.8125,42.0,-178.9375,0
1776972326.11,8.3917,-2.15,-4.7692,-0.0117,0.0282,0.0035,-1.5,-1.2,-180.75,5.6551,7.7045,-1.4653,-0.0365,-0.0016,0.0211,-85.2,39.3,-21.6,6.54,0.15,-7.33,0.0,0.0033,-0.0011,-24.6875,3.25,44.25,309.8125,42.0,-178.9375,0
1776972326.116,8.4036,-2.162,-4.7716,-0.0093,0.028,0.0011,-1.5,-1.2,-180.75,5.6743,7.671,-1.4269,-0.0344,-0.0043,0.0179,-85.2,39.3,-21.6,6.56,0.14,-7.31,0.0,0.0033,-0.0011,-24.6875,3.25,44.25,309.8125,42.0,-178.9375,0
1776972326.125,8.4348,-2.162,-4.7908,-0.016,0.0229,0.0027,0.45,-3.15,-181.05,5.679,7.7093,-1.4341,-0.0354,-0.0045,0.0192,-85.5,38.85,-21.6,6.55,0.13,-7.33,0.0011,0.0033,0.0,-24.6875,3.25,44.25,309.8125,42.0,-178.9375,0
1776972326.135,8.4108,-2.1428,-4.8267,-0.012,0.0242,0.0008,-1.2,-2.7,-180.75,5.6982,7.683,-1.5299,-0.024,0.0003,0.0168,-85.5,38.85,-21.6,6.54,0.11,-7.38,0.0033,0.0022,0.0033,-24.6875,3.25,44.25,309.8125,42.0,-178.9375,0
1776972326.144,8.3725,-2.1763,-4.853,-0.0141,0.0224,-0.0048,-0.6,-3.0,-182.7,5.715,7.774,-1.5107,-0.0197,0.0005,0.0165,-85.05,39.9,-20.7,6.56,0.13,-7.32,0.0033,0.0011,-0.0011,-24.6875,3.25,44.25,309.8125,42.0,-178.9375,0
1776972326.149,8.3725,-2.1763,-4.853,-0.0141,0.0224,-0.0048,-0.6,-3.0,-182.7,5.715,7.774,-1.5107,-0.0197,0.0005,0.0165,-85.05,39.9,-20.7,6.56,0.13,-7.32,0.0033,0.0011,-0.0011,-24.6875,3.25,44.25,309.8125,42.0,-178.9375,0
1776972326.156,8.3773,-2.1021,-4.7812,-0.0104,0.0242,-0.0056,-0.6,-3.0,-182.7,5.7102,7.6854,-1.5443,-0.0277,0.0003,0.0187,-85.05,39.9,-20.7,6.54,0.17,-7.3,0.0022,0.0,0.0033,-24.6875,3.25,44.25,309.8125,42.0,-178.9375,0
1776972326.161,8.4324,-2.1165,-4.8076,-0.0152,0.0242,-0.0024,-0.9,-4.2,-181.05,5.7126,7.6662,-1.5467,-0.0213,0.0,0.0179,-84.75,37.65,-21.9,6.54,0.17,-7.3,0.0033,-0.0022,0.0,-25.5,3.6875,43.5,309.8125,42.0,-178.9375,0
1776972326.166,8.4324,-2.1165,-4.8076,-0.0152,0.0242,-0.0024,-0.9,-4.2,-181.05,5.7126,7.6662,-1.5467,-0.0213,0.0,0.0179,-84.75,37.65,-21.9,6.54,0.15,-7.31,0.0033,-0.0022,0.0,-25.5,3.6875,43.5,309.8125,42.0,-178.9375,0
1776972326.176,8.3797,-2.1261,-4.8243,-0.0067,0.0218,-0.0035,-0.9,-3.15,-178.95,5.6838,7.7021,-1.4892,-0.0192,0.0032,0.0184,-85.5,40.05,-22.35,6.55,0.12,-7.29,0.0033,0.0,0.0022,-25.5,3.6875,43.5,309.8125,42.0,-178.9375,0
1776972326.185,8.418,-2.1093,-4.81,-0.0109,0.0248,-0.0072,0.15,-2.7,-181.5,5.7485,7.6878,-1.5299,-0.0187,0.0013,0.0179,-86.1,40.2,-22.5,6.56,0.14,-7.35,0.0044,-0.0033,0.0,-25.5,3.6875,43.5,309.8125,42.0,-178.9375,0
1776972326.195,8.3989,-2.162,-4.8315,-0.0051,0.0253,-0.0051,0.0,-3.3,-180.9,5.7341,7.6638,-1.5706,-0.0232,0.0013,0.0109,-86.1,39.0,-22.5,6.56,0.12,-7.33,0.0033,-0.0033,0.0022,-25.5,3.6875,43.5,309.8125,42.0,-178.9375,0
1776972326.201,8.4084,-2.0877,-4.8483,-0.008,0.024,-0.0051,0.0,-3.3,-180.9,5.7126,7.6758,-1.4892,-0.024,0.0037,0.0152,-85.95,38.1,-22.35,6.54,0.13,-7.33,0.0033,-0.0033,0.0011,-25.5,3.6875,43.5,309.8125,42.0,-178.9375,0
1776972326.207,8.4084,-2.0877,-4.8483,-0.008,0.024,-0.0051,0.0,-3.3,-180.9,5.7126,7.6758,-1.4892,-0.024,0.0037,0.0152,-85.95,38.1,-22.35,6.54,0.13,-7.33,0.0033,-0.0033,0.0011,-25.5,3.6875,43.5,309.8125,42.0,-178.9375,0
1776972326.211,8.3845,-2.0997,-4.8339,-0.0083,0.0229,-0.0024,0.0,-3.3,-180.9,5.6838,7.671,-1.561,-0.0155,-0.0029,0.0128,-86.1,39.9,-22.5,6.55,0.12,-7.33,0.0033,-0.0044,0.0022,-24.6875,3.6875,42.5625,309.8125,42.0,-178.9375,0
1776972326.216,8.3845,-2.0997,-4.8339,-0.0083,0.0229,-0.0024,0.0,-3.3,-180.9,5.6838,7.671,-1.561,-0.0155,-0.0029,0.0128,-86.1,39.9,-22.5,6.55,0.12,-7.33,0.0033,-0.0044,0.0022,-24.6875,3.6875,42.5625,309.8125,42.0,-178.9375,0
1776972326.225,8.3725,-2.1308,-4.8818,-0.0101,0.0253,-0.0037,-0.3,-3.3,-179.85,5.691,7.6567,-1.5323,-0.0184,0.0019,0.0133,-86.1,39.9,-22.5,6.54,0.1,-7.32,0.0033,-0.0044,0.0011,-24.6875,3.6875,42.5625,309.8125,42.0,-178.9375,0
1776972326.235,8.4252,-2.1237,-4.8818,-0.0115,0.0256,-0.0051,1.2,-4.65,-180.75,5.7269,7.7452,-1.4748,-0.0144,0.0027,0.0128,-84.75,38.1,-23.1,6.55,0.12,-7.33,0.0044,-0.0033,-0.0011,-24.6875,3.6875,42.5625,309.8125,42.0,-178.9375,0
1776972326.244,8.3701,-2.0758,-4.8219,-0.0144,0.0293,-0.0019,0.0,-3.0,-180.15,5.715,7.6423,-1.6209,-0.0205,-0.0013,0.0123,-84.75,38.1,-23.1,6.54,0.1,-7.37,0.0033,-0.0022,0.0022,-24.6875,3.6875,42.5625,309.8125,42.0,-178.9375,0
1776972326.249,8.3989,-2.0782,-4.8459,-0.0099,0.0258,-0.0051,0.15,-3.9,-180.75,5.7221,7.6758,-1.5682,-0.0232,-0.0011,0.0139,-84.75,38.1,-23.1,6.54,0.1,-7.37,0.0033,-0.0022,0.0022,-24.6875,3.6875,42.5625,309.8125,42.0,-178.9375,0
1776972326.256,8.3989,-2.0782,-4.8459,-0.0099,0.0258,-0.0051,0.15,-3.9,-180.75,5.6982,7.6974,-1.5443,-0.0232,-0.0011,0.0139,-84.75,38.85,-21.9,6.53,0.12,-7.33,0.0033,-0.0033,0.0011,-24.6875,3.6875,42.5625,309.8125,42.0,-178.9375,0
1776972326.261,8.4443,-2.071,-4.8363,-0.0109,0.0293,-0.0024,0.15,-3.9,-180.75,5.6982,7.6974,-1.5443,-0.0242,-0.0005,0.0144,-84.75,38.85,-21.9,6.53,0.12,-7.33,0.0033,-0.0065,0.0022,-24.6875,3.25,43.0625,309.8125,42.0,-178.9375,0
1776972326.266,8.4443,-2.071,-4.8363,-0.0109,0.0325,-0.0008,0.15,-3.9,-180.75,5.636,7.6782,-1.5826,-0.0301,-0.0016,0.0096,-85.5,40.05,-21.15,6.54,0.11,-7.34,0.0033,-0.0065,0.0022,-24.6875,3.25,43.0625,309.8125,42.0,-178.9375,0
1776972326.276,8.4539,-2.1045,-4.8794,-0.0109,0.0325,-0.0008,0.9,-3.9,-181.05,5.7365,7.7285,-1.5299,-0.0301,-0.0016,0.0096,-85.8,39.0,-21.75,6.53,0.12,-7.3,0.0033,-0.0065,0.0033,-24.6875,3.25,43.0625,309.8125,42.0,-178.9375,0
1776972326.285,8.4204,-2.0758,-4.7908,-0.0131,0.0312,0.0011,-1.5,-2.7,-180.3,5.7197,7.7093,-1.5754,-0.0298,0.0005,0.0152,-85.5,38.1,-22.65,6.53,0.14,-7.36,0.0044,-0.0055,0.0,-24.6875,3.25,43.0625,309.8125,42.0,-178.9375,0
1776972326.294,8.4731,-2.0853,-4.8554,-0.0104,0.0288,0.0003,-0.3,-2.25,-180.6,5.6407,7.7405,-1.5083,-0.0293,-0.0037,0.0165,-86.55,40.65,-21.0,6.55,0.12,-7.31,0.0022,-0.0065,-0.0011,-24.6875,3.25,43.0625,309.8125,42.0,-178.9375,0
1776972326.299,8.3749,-2.0518,-4.8219,-0.0099,0.0378,0.0003,0.45,-2.4,-180.75,5.6407,7.7405,-1.5083,-0.0277,-0.0043,0.0109,-86.55,40.65,-21.0,6.55,0.12,-7.31,0.0022,-0.0065,-0.0011,-24.6875,3.25,43.0625,309.8125,42.0,-178.9375,0
1776972326.306,8.3965,-2.0901,-4.8219,-0.0061,0.0333,0.0029,-1.8,-2.55,-180.15,5.6431,7.6854,-1.5467,-0.0306,-0.004,0.0152,-86.25,38.85,-22.35,6.55,0.11,-7.32,0.0011,-0.0033,-0.0022,-24.6875,3.25,43.0625,309.8125,42.0,-178.9375,0
1776972326.311,8.3965,-2.0901,-4.8219,-0.0061,0.0333,0.0029,-1.8,-2.55,-180.15,5.6431,7.6854,-1.5467,-0.0306,-0.004,0.0152,-86.25,38.85,-22.35,6.55,0.11,-7.32,0.0011,0.0011,0.0011,-24.0,3.6875,43.75,309.8125,42.0,-178.9375,0
1776972326.317,8.4683,-2.1141,-4.865,-0.0117,0.0368,0.0043,-1.8,-2.55,-180.15,5.6623,7.7357,-1.5203,-0.0304,-0.0021,0.0109,-86.25,38.85,-22.35,6.54,0.11,-7.33,0.0011,0.0011,0.0011,-24.0,3.6875,43.75,309.8125,42.0,-178.9375,0
1776972326.326,8.4204,-2.0949,-4.865,-0.0109,0.0328,0.0048,-1.8,-2.55,-180.15,5.6982,7.6806,-1.6137,-0.0298,0.0011,0.0109,-85.05,39.45,-22.95,6.53,0.13,-7.34,0.0,-0.0022,-0.0011,-24.0,3.6875,43.75,309.8125,42.0,-178.9375,0
1776972326.336,8.3869,-2.0973,-4.7788,-0.0115,0.033,-0.0005,0.15,-3.45,-180.3,5.6647,7.7189,-1.5347,-0.029,-0.0027,0.0123,-85.05,39.45,-22.95,6.54,0.14,-7.35,0.0,-0.0011,0.0,-24.0,3.6875,43.75,309.8125,42.0,-178.9375,0
1776972326.345,8.4204,-2.1572,-4.7908,-0.0093,0.0298,0.0075,0.45,-4.95,-179.25,5.6383,7.6399,-1.506,-0.033,-0.0021,0.0104,-85.95,39.3,-22.35,6.54,0.14,-7.33,-0.0022,0.0011,-0.0011,-24.0,3.6875,43.75,309.8125,42.0,-178.9375,0
1776972326.35,8.4204,-2.1572,-4.7908,-0.0093,0.0298,0.0075,-0.15,-3.45,-180.75,5.6383,7.6399,-1.506,-0.033,-0.0021,0.0104,-85.95,39.3,-22.35,6.54,0.14,-7.33,-0.0022,0.0011,-0.0011,-24.0,3.6875,43.75,309.8125,42.0,-178.9375,0
1776972326.357,8.4515,-2.0973,-4.8291,-0.016,0.032,0.0045,0.9,-2.4,-180.3,5.6886,7.6662,-1.5203,-0.0357,-0.004,0.0101,-85.05,37.5,-22.2,6.54,0.13,-7.32,0.0011,0.0,0.0022,-24.0,3.6875,43.75,309.8125,42.0,-178.9375,0
1776972326.361,8.4515,-2.0973,-4.8291,-0.016,0.032,0.0045,0.9,-2.4,-180.3,5.6599,7.7117,-1.5107,-0.0357,-0.004,0.0101,-85.05,37.5,-22.2,6.54,0.13,-7.32,0.0022,-0.0011,-0.0011,-24.6875,3.6875,42.6875,309.8125,42.0,-178.9375,0
1776972326.367,8.3797,-2.0734,-4.8076,-0.0088,0.0296,0.0005,-1.05,-2.55,-180.9,5.6599,7.7117,-1.5107,-0.0341,-0.0083,0.0149,-85.05,38.7,-21.75,6.54,0.12,-7.33,0.0022,-0.0011,-0.0011,-24.6875,3.6875,42.6875,309.8125,42.0,-178.9375,0
1776972326.376,8.4156,-2.1045,-4.7836,-0.0085,0.032,0.0043,-1.05,-2.55,-180.9,5.624,7.695,-1.494,-0.0362,-0.0035,0.0176,-85.2,40.5,-23.1,6.52,0.13,-7.31,0.0,0.0,0.0,-24.6875,3.6875,42.6875,309.8125,42.0,-178.9375,0
1776972326.386,8.43,-2.1237,-4.8339,-0.0091,0.0277,0.0069,-0.15,-3.15,-180.3,5.7365,7.6614,-1.5562,-0.0365,-0.0045,0.0109,-83.7,39.3,-21.9,6.53,0.13,-7.36,0.0011,-0.0022,0.0011,-24.6875,3.6875,42.6875,309.8125,42.0,-178.9375,0
1776972326.395,8.3653,-2.0901,-4.8052,-0.0077,0.028,0.0029,-0.15,-3.15,-180.3,5.6719,7.6423,-1.5083,-0.0296,-0.0037,0.0189,-85.8,39.0,-22.5,6.55,0.14,-7.32,0.0011,0.0,0.0022,-24.6875,3.6875,42.6875,309.8125,42.0,-178.9375,0
1776972326.4,8.3653,-2.0901,-4.8052,-0.0077,0.028,0.0029,0.45,-1.65,-181.05,5.6719,7.6423,-1.5083,-0.0296,-0.0037,0.0189,-85.8,39.0,-22.5,6.55,0.14,-7.32,0.0011,0.0,0.0022,-24.6875,3.6875,42.6875,309.8125,42.0,-178.9375,0
1776972326.407,8.4731,-2.2122,-4.8123,-0.0139,0.0296,0.0037,-0.6,-3.0,-180.15,5.6838,7.7452,-1.4676,-0.0352,-0.0043,0.0157,-85.8,39.0,-22.5,6.55,0.12,-7.31,0.0011,0.0033,0.0,-24.6875,3.6875,42.6875,309.8125,42.0,-178.9375,0
1776972326.411,8.4731,-2.2122,-4.8123,-0.0099,0.0296,0.0056,-0.6,-3.0,-180.15,5.6312,7.7285,-1.5203,-0.028,0.0016,0.0173,-85.8,39.0,-22.5,6.55,0.12,-7.31,0.0011,-0.0011,0.0,-24.0,2.875,43.0625,309.8125,42.0,-178.9375,0
1776972326.417,8.4084,-2.1644,-4.8219,-0.0099,0.0296,0.0056,0.0,-4.05,-181.65,5.6312,7.7285,-1.5203,-0.028,0.0016,0.0173,-85.35,39.45,-20.7,6.54,0.13,-7.32,0.0011,-0.0011,0.0,-24.0,2.875,43.0625,309.8125,42.0,-178.9375,0
1776972326.426,8.418,-2.1093,-4.8411,-0.0123,0.0312,0.0027,0.0,-4.05,-181.65,5.6862,7.7285,-1.494,-0.028,0.0003,0.016,-85.35,39.45,-20.7,6.53,0.14,-7.32,0.0011,0.0022,0.0,-24.0,2.875,43.0625,309.8125,42.0,-178.9375,0
1776972326.436,8.406,-2.1284,-4.7381,-0.0101,0.0317,0.0032,0.0,-4.05,-181.65,5.6,7.7069,-1.549,-0.0229,-0.0101,0.0184,-84.6,39.45,-22.5,6.55,0.14,-7.32,0.0,0.0033,0.0,-24.0,2.875,43.0625,309.8125,42.0,-178.9375,0
1776972326.445,8.3893,-2.1069,-4.8291,-0.0096,0.0277,0.0043,-0.9,-2.7,-180.75,5.5952,7.7285,-1.47,-0.0272,-0.0016,0.0181,-85.2,39.6,-22.35,6.56,0.13,-7.31,0.0022,0.0,0.0,-24.0,2.875,43.0625,309.8125,42.0,-178.9375,0
1776972326.452,8.4252,-2.0949,-4.7884,-0.0064,0.0322,0.0053,-0.9,-2.7,-180.75,5.6958,7.6686,-1.4988,-0.036,-0.0045,0.0205,-85.2,39.6,-22.35,6.56,0.14,-7.3,0.0022,-0.0033,-0.0011,-24.0,2.875,43.0625,309.8125,42.0,-178.9375,0
1776972326.457,8.4252,-2.0949,-4.7884,-0.0064,0.0322,0.0053,0.3,-2.55,-180.6,5.6958,7.6686,-1.4988,-0.036,-0.0045,0.0205,-84.6,37.95,-21.45,6.56,0.14,-7.3,0.0022,-0.0033,-0.0011,-24.0,2.875,43.0625,309.8125,42.0,-178.9375,0
1776972326.462,8.4204,-2.0997,-4.8076,-0.0104,0.0328,0.0013,0.3,-2.55,-180.6,5.6336,7.7093,-1.4748,-0.0333,-0.0035,0.0216,-84.6,37.95,-21.45,6.54,0.13,-7.32,0.0011,-0.0044,0.0033,-25.0625,3.6875,42.25,309.8125,42.0,-178.9375,0
1776972326.467,8.4204,-2.0997,-4.8076,-0.0104,0.0328,0.0013,-0.6,-2.55,-180.6,5.6336,7.7093,-1.4748,-0.0333,-0.0035,0.0216,-85.35,38.7,-22.2,6.54,0.13,-7.32,0.0011,-0.0044,0.0033,-25.0625,3.6875,42.25,309.8125,42.0,-178.9375,0
1776972326.476,8.4443,-2.1117,-4.8243,-0.0136,0.0256,0.0051,-0.6,-1.5,-179.55,5.6623,7.6686,-1.4581,-0.0341,-0.0059,0.0179,-85.8,38.25,-22.2,6.56,0.12,-7.31,0.0033,-0.0022,0.0022,-25.0625,3.6875,42.25,309.8125,42.0,-178.9375,0
1776972326.486,8.4036,-2.1141,-4.8243,-0.0099,0.0266,0.0064,-0.6,-1.5,-179.55,5.6719,7.683,-1.5012,-0.033,-0.0037,0.0189,-85.35,38.25,-22.95,6.55,0.12,-7.35,0.0022,-0.0033,0.0011,-25.0625,3.6875,42.25,309.8125,42.0,-178.9375,0
1776972326.495,8.4683,-2.1476,-4.798,-0.0112,0.0269,-0.0005,-1.35,-3.0,-179.85,5.703,7.7117,-1.5131,-0.0317,-0.0053,0.0195,-85.35,38.25,-22.95,6.53,0.12,-7.33,0.0044,-0.0033,0.0,-25.0625,3.6875,42.25,309.8125,42.0,-178.9375,0
1776972326.5,8.4539,-2.0877,-4.8507,-0.0077,0.0304,0.0013,-1.35,-3.0,-179.85,5.6743,7.6998,-1.5179,-0.029,0.0032,0.02,-85.35,38.25,-22.95,6.53,0.12,-7.33,0.0033,-0.0011,-0.0011,-25.0625,3.6875,42.25,309.8125,42.0,-178.9375,0
1776972326.507,8.4539,-2.0877,-4.8507,-0.0077,0.0304,0.0013,0.9,-1.2,-180.3,5.6336,7.6998,-1.5275,-0.0269,-0.0016,0.02,-84.15,39.0,-21.45,6.53,0.13,-7.33,0.0033,-0.0011,-0.0011,-25.0625,3.6875,42.25,309.8125,42.0,-178.9375,0
1776972326.512,8.4587,-2.0997,-4.8219,-0.0059,0.024,0.0056,0.9,-1.2,-180.3,5.6336,7.6998,-1.5275,-0.0269,-0.0016,0.02,-84.15,39.0,-21.45,6.53,0.13,-7.33,0.0011,0.0,0.0,-24.0,3.6875,43.0625,309.8125,42.0,-178.9375,0
1776972326.517,8.4587,-2.0997,-4.8219,-0.0059,0.024,0.0056,-1.05,-1.8,-181.65,5.6551,7.6806,-1.506,-0.0213,-0.0008,0.0123,-84.15,39.0,-21.45,6.52,0.13,-7.33,0.0011,0.0,0.0,-24.0,3.6875,43.0625,309.8125,42.0,-178.9375,0
1776972326.526,8.4467,-2.1739,-4.8794,-0.016,0.0277,-0.0005,-1.8,-4.05,-180.6,5.703,7.6902,-1.506,-0.0205,-0.0005,0.0155,-84.15,38.7,-21.0,6.53,0.13,-7.35,0.0011,0.0033,0.0011,-24.0,3.6875,43.0625,309.8125,42.0,-178.9375,0
1776972326.536,8.4276,-2.1524,-4.798,-0.0069,0.024,0.0003,-1.05,-4.5,-180.15,5.6144,7.7045,-1.4724,-0.0221,-0.0027,0.0147,-84.75,38.1,-22.35,6.53,0.14,-7.36,0.0033,0.0011,0.0044,-24.0,3.6875,43.0625,309.8125,42.0,-178.9375,0
1776972326.546,8.4707,-2.15,-4.8315,-0.0093,0.0245,0.0037,-1.05,-4.5,-180.15,5.6838,7.6255,-1.5275,-0.0229,-0.0037,0.0152,-85.35,39.45,-21.45,6.55,0.12,-7.32,0.0,0.0076,0.0022,-24.0,3.6875,43.0625,309.8125,42.0,-178.9375,0
1776972326.552,8.3821,-2.0351,-4.853,-0.0163,0.0211,0.0048,-1.35,-4.5,-180.15,5.6838,7.6255,-1.5275,-0.0229,-0.0037,0.0152,-85.35,39.45,-21.45,6.56,0.11,-7.32,0.0022,0.0065,0.0,-24.0,3.6875,43.0625,309.8125,42.0,-178.9375,0
1776972326.557,8.3821,-2.0542,-4.8507,-0.0101,0.0221,-0.0056,-1.35,-3.75,-181.2,5.6743,7.6926,-1.5155,-0.0304,-0.0085,0.0168,-85.95,41.25,-21.9,6.56,0.11,-7.32,0.0022,0.0065,0.0,-24.0,3.6875,43.0625,309.8125,42.0,-178.9375,0
1776972326.562,8.3821,-2.0542,-4.8507,-0.0101,0.0221,-0.0056,0.15,-3.15,-180.0,5.6743,7.6926,-1.5155,-0.0304,-0.0085,0.0168,-85.95,41.25,-21.9,6.56,0.12,-7.3,0.0011,0.0044,0.0011,-24.25,4.0,42.5625,309.8125,42.0,-178.9375,0
1776972326.567,8.3773,-2.0997,-4.8459,-0.0189,0.029,0.0013,0.15,-3.15,-180.0,5.6719,7.6686,-1.4796,-0.0352,-0.0005,0.0155,-85.5,39.6,-21.6,6.56,0.12,-7.3,0.0011,0.0044,0.0011,-24.25,4.0,42.5625,309.8125,42.0,-178.9375,0
1776972326.576,8.3606,-2.071,-4.8554,-0.0136,0.0277,0.0003,-0.15,-3.45,-179.7,5.6838,7.6255,-1.4916,-0.0397,-0.0072,0.0168,-83.25,40.5,-22.35,6.54,0.12,-7.31,0.0033,0.0022,0.0022,-24.25,4.0,42.5625,309.8125,42.0,-178.9375,0
1776972326.586,8.3845,-2.0901,-4.8483,-0.0083,0.0282,0.0013,2.1,-3.0,-179.85,5.6767,7.6543,-1.5443,-0.0301,-0.0013,0.0173,-83.25,40.5,-22.35,6.55,0.12,-7.33,0.0011,-0.0022,0.0011,-24.25,4.0,42.5625,309.8125,42.0,-178.9375,0
1776972326.595,8.3845,-2.0901,-4.8483,-0.0045,0.0277,-0.0029,0.45,-3.9,-182.1,5.6862,7.695,-1.506,-0.0314,-0.0037,0.0123,-84.45,38.85,-21.9,6.54,0.14,-7.33,0.0011,0.0022,0.0,-24.25,4.0,42.5625,309.8125,42.0,-178.9375,0
1776972326.6,8.3965,-2.1045,-4.7645,-0.0045,0.0277,-0.0029,0.45,-3.9,-182.1,5.6862,7.695,-1.506,-0.0314,-0.0037,0.0123,-84.45,38.85,-21.9,6.54,0.14,-7.33,0.0033,-0.0033,0.0022,-24.25,4.0,42.5625,309.8125,42.0,-178.9375,0
1776972326.607,8.4372,-2.1021,-4.877,-0.0115,0.0314,0.004,0.45,-3.9,-182.1,5.6958,7.6567,-1.6065,-0.0288,-0.0013,0.0149,-84.45,38.85,-21.9,6.53,0.14,-7.31,0.0033,-0.0033,0.0022,-24.25,4.0,42.5625,309.8125,42.0,-178.9375,0
1776972326.612,8.4372,-2.1021,-4.877,-0.0115,0.0314,0.004,-0.15,-1.95,-182.1,5.7293,7.695,-1.5706,-0.0288,-0.0013,0.0149,-84.45,38.85,-21.9,6.53,0.14,-7.31,0.0033,-0.0033,0.0,-25.0625,4.0,43.0625,309.8125,42.0,-178.9375,0
1776972326.617,8.3797,-2.1189,-4.8435,-0.0109,0.0298,0.0011,-0.15,-1.95,-182.1,5.7293,7.695,-1.5706,-0.0282,-0.0053,0.0155,-85.05,39.9,-20.7,6.56,0.11,-7.32,0.0033,-0.0033,0.0,-25.0625,4.0,43.0625,309.8125,42.0,-178.9375,0
1776972326.626,8.3941,-2.0949,-4.8459,-0.008,0.033,0.0037,-0.15,-1.65,-181.05,5.6886,7.6638,-1.5251,-0.029,-0.0059,0.0141,-85.05,40.2,-21.75,6.55,0.13,-7.35,0.0011,0.0,0.0,-25.0625,4.0,43.0625,309.8125,42.0,-178.9375,0
1776972326.636,8.4372,-2.1452,-4.8937,-0.0133,0.0338,-0.0005,-1.2,-3.45,-180.3,5.691,7.6854,-1.585,-0.0306,-0.0027,0.0125,-84.6,39.45,-22.95,6.54,0.12,-7.34,-0.0011,0.0022,-0.0011,-25.0625,4.0,43.0625,309.8125,42.0,-178.9375,0
1776972326.645,8.418,-2.1189,-4.8315,-0.0115,0.032,0.0016,-1.2,-3.15,-182.1,5.6958,7.7021,-1.4844,-0.0304,-0.0032,0.0141,-84.6,39.45,-22.95,6.55,0.15,-7.33,-0.0022,0.0,-0.0011,-25.0625,4.0,43.0625,309.8125,42.0,-178.9375,0
1776972326.65,8.418,-2.1189,-4.8315,-0.0115,0.032,0.0016,0.0,-2.55,-180.9,5.715,7.6662,-1.5323,-0.0304,-0.0032,0.0141,-85.35,38.7,-21.0,6.55,0.15,-7.33,-0.0022,0.0,-0.0011,-25.0625,4.0,43.0625,309.8125,42.0,-178.9375,0
1776972326.657,8.4156,-2.083,-4.8363,-0.0165,0.0312,0.0008,0.0,-2.55,-180.9,5.715,7.6662,-1.5323,-0.0301,-0.0011,0.0085,-83.85,38.7,-21.75,6.53,0.11,-7.32,-0.0033,-0.0011,-0.0011,-25.0625,4.0,43.0625,309.8125,42.0,-178.9375,0
1776972326.662,8.4156,-2.083,-4.8363,-0.0165,0.0312,0.0008,0.0,-2.55,-180.9,5.6862,7.6806,-1.5586,-0.0288,-0.0027,0.0117,-83.85,38.7,-21.75,6.53,0.11,-7.32,0.0,-0.0011,0.0011,-24.0,3.6875,43.0625,309.8125,42.0,-178.9375,0
1776972326.667,8.3653,-2.1572,-4.8171,-0.0117,0.0328,-0.0019,0.0,-2.55,-180.9,5.6862,7.6806,-1.5586,-0.0288,-0.0027,0.0117,-85.35,39.0,-21.75,6.56,0.11,-7.34,0.0,-0.0011,0.0011,-24.0,3.6875,43.0625,309.8125,42.0,-178.9375,0
1776972326.677,8.3845,-2.059,-4.8435,-0.0083,0.0304,-0.0021,1.05,-3.3,-180.15,5.6671,7.6758,-1.5107,-0.0341,-0.0011,0.0088,-85.35,39.0,-21.75,6.56,0.13,-7.31,-0.0011,0.0,0.0,-24.0,3.6875,43.0625,309.8125,42.0,-178.9375,0
1776972326.686,8.3414,-2.1189,-4.8818,-0.0107,0.0362,-0.0021,0.6,-2.55,-180.6,5.6623,7.6591,-1.4868,-0.0261,-0.0045,0.0176,-85.05,39.45,-21.0,6.53,0.14,-7.37,-0.0011,-0.0022,-0.0011,-24.0,3.6875,43.0625,309.8125,42.0,-178.9375,0
1776972326.696,8.406,-2.1428,-4.8291,-0.0163,0.0309,0.0027,-0.3,-1.5,-179.1,5.6407,7.6447,-1.5443,-0.0338,-0.0045,0.0128,-85.05,39.45,-21.0,6.54,0.13,-7.31,-0.0022,-0.0011,-0.0011,-24.0,3.6875,43.0625,309.8125,42.0,-178.9375,0
1776972326.702,8.3318,-2.0758,-4.8315,-0.0117,0.033,0.0003,-0.15,-1.95,-180.75,5.6264,7.6614,-1.5299,-0.0301,-0.0016,0.0131,-85.05,39.45,-21.0,6.54,0.13,-7.31,-0.0022,-0.0011,-0.0011,-24.0,3.6875,43.0625,309.8125,42.0,-178.9375,0
1776972326.708,8.3318,-2.0758,-4.8315,-0.0117,0.033,0.0003,-0.15,-1.95,-180.75,5.6647,7.7093,-1.4748,-0.0301,-0.0016,0.0131,-85.2,38.1,-22.35,6.55,0.13,-7.3,-0.0022,-0.0011,-0.0011,-24.0,3.6875,43.0625,309.8125,42.0,-178.9375,0
1776972326.713,8.4467,-2.0614,-4.7669,-0.0123,0.0362,0.0043,-0.15,-1.95,-180.75,5.6647,7.7093,-1.4748,-0.029,-0.0011,0.012,-85.2,38.1,-22.35,6.55,0.12,-7.32,-0.0011,-0.0022,0.0,-24.6875,3.6875,42.25,309.8125,42.0,-178.9375,0
1776972326.718,8.4467,-2.0614,-4.7669,-0.0123,0.0362,0.0043,-0.15,-1.95,-180.75,5.6072,7.7931,-1.4916,-0.029,-0.0011,0.012,-86.7,38.85,-21.6,6.55,0.12,-7.32,-0.0011,-0.0022,0.0,-24.6875,3.6875,42.25,309.8125,42.0,-178.9375,0
1776972326.727,8.406,-2.1093,-4.7836,-0.0069,0.0312,0.0003,-0.15,-1.95,-180.75,5.6527,7.7117,-1.4772,-0.0309,-0.0037,0.0144,-84.45,40.5,-22.35,6.54,0.14,-7.34,0.0,-0.0033,-0.0011,-24.6875,3.6875,42.25,309.8125,42.0,-178.9375,0
1776972326.737,8.4396,-2.0806,-4.7788,-0.0093,0.0288,-0.0024,0.3,-3.3,-179.55,5.6575,7.6902,-1.5538,-0.0242,-0.0032,0.0131,-85.2,38.55,-20.85,6.54,0.14,-7.33,-0.0011,-0.0065,-0.0011,-24.6875,3.6875,42.25,309.8125,42.0,-178.9375,0
1776972326.746,8.4731,-2.1596,-4.8339,-0.0125,0.0322,-0.0008,-0.15,-3.15,-181.5,5.6814,7.7596,-1.4796,-0.0269,-0.0005,0.0133,-84.15,40.65,-22.2,6.55,0.15,-7.33,0.0011,-0.0044,-0.0011,-24.6875,3.6875,42.25,309.8125,42.0,-178.9375,0
1776972326.755,8.4731,-2.0303,-4.8028,-0.0099,0.0312,0.0005,-1.5,-2.4,-179.25,5.6814,7.7596,-1.4796,-0.0277,-0.0027,0.0115,-84.15,40.65,-22.2,6.53,0.12,-7.35,0.0022,-0.0044,0.0,-24.6875,3.6875,42.25,309.8125,42.0,-178.9375,0
1776972326.759,8.4731,-2.0303,-4.8028,-0.0099,0.0312,0.0005,-0.9,-0.45,-181.5,5.6767,7.7333,-1.4772,-0.0272,-0.0056,0.0163,-85.35,39.9,-21.75,6.53,0.12,-7.35,0.0022,-0.0044,0.0,-24.6875,3.6875,42.25,309.8125,42.0,-178.9375,0
1776972326.764,8.4443,-2.1261,-4.7621,-0.0088,0.0285,0.0,-0.9,-0.45,-181.5,5.6767,7.7333,-1.4772,-0.0272,-0.0056,0.0163,-85.35,39.9,-21.75,6.53,0.13,-7.32,0.0,-0.0055,0.0,-24.25,3.6875,43.0625,309.8125,42.0,-178.9375,0
1776972326.769,8.4443,-2.1261,-4.7621,-0.0088,0.0285,0.0,-0.9,-0.45,-181.5,5.6312,7.695,-1.5083,-0.0253,-0.0029,0.0195,-85.35,39.9,-21.75,6.53,0.13,-7.32,0.0,-0.0055,0.0,-24.25,3.6875,43.0625,309.8125,42.0,-178.9375,0
1776972326.777,8.3725,-2.1739,-4.8052,-0.0085,0.0288,-0.0021,-0.9,-0.45,-181.5,5.624,7.7572,-1.4868,-0.028,0.0043,0.0144,-85.2,38.85,-20.85,6.53,0.13,-7.31,-0.0022,-0.0022,-0.0011,-24.25,3.6875,43.0625,309.8125,42.0,-178.9375,0
1776972326.787,8.406,-2.138,-4.8267,-0.0112,0.0266,0.0019,-0.15,-1.95,-181.8,5.6383,7.75,-1.5131,-0.0218,-0.0029,0.0157,-85.2,38.85,-20.85,6.53,0.11,-7.35,-0.0022,-0.0022,0.0,-24.25,3.6875,43.0625,309.8125,42.0,-178.9375,0
1776972326.796,8.3558,-2.1117,-4.8028,-0.0131,0.0272,-0.0013,-0.15,-3.9,-181.5,5.6719,7.6758,-1.5514,-0.0314,-0.0032,0.0224,-85.8,39.9,-20.85,6.56,0.14,-7.32,-0.0011,-0.0011,0.0011,-24.25,3.6875,43.0625,309.8125,42.0,-178.9375,0
1776972326.805,8.4204,-2.0853,-4.8028,-0.0109,0.024,0.0,-1.2,-3.45,-181.5,5.6312,7.7309,-1.4964,-0.0322,-0.0029,0.0171,-85.8,39.9,-22.2,6.56,0.12,-7.35,-0.0011,0.0,0.0,-24.25,3.6875,43.0625,309.8125,42.0,-178.9375,0
1776972326.81,8.4587,-2.1284,-4.7836,-0.0093,0.0253,0.0043,-0.3,-3.75,-180.6,5.6312,7.7309,-1.4964,-0.0322,-0.0029,0.0171,-85.2,37.35,-22.35,6.56,0.12,-7.35,-0.0011,0.0,0.0,-24.25,3.6875,43.0625,309.8125,42.0,-178.9375,0
1776972326.817,8.4587,-2.1284,-4.7836,-0.0093,0.0253,0.0043,-0.3,-3.75,-180.6,5.6647,7.6926,-1.5251,-0.0322,0.0005,0.0155,-85.8,38.25,-22.5,6.56,0.14,-7.31,-0.0011,0.0033,0.0,-25.0625,3.25,43.5,309.8125,42.0,-178.9375,0
1776972326.827,8.4396,-2.1021,-4.8818,-0.0125,0.0272,0.0005,0.6,-3.3,-181.2,5.6695,7.6902,-1.5371,-0.0306,0.0005,0.0163,-85.8,38.25,-22.5,6.54,0.15,-7.34,0.0022,0.0011,-0.0011,-25.0625,3.25,43.5,309.8125,42.0,-178.9375,0
1776972326.836,8.4252,-2.0877,-4.8243,-0.0123,0.0237,0.0067,0.6,-3.3,-181.2,5.7293,7.7237,-1.5203,-0.0357,-0.0099,0.0184,-83.85,39.45,-22.2,6.55,0.13,-7.33,-0.0011,-0.0011,0.0022,-25.0625,3.25,43.5,309.8125,42.0,-178.9375,0
1776972326.84,8.3965,-2.1141,-4.7884,-0.0125,0.0253,0.0032,0.6,-3.75,-180.15,5.7293,7.7237,-1.5203,-0.0357,-0.0099,0.0184,-85.05,38.7,-22.2,6.55,0.13,-7.33,-0.0011,-0.0011,0.0022,-25.0625,3.25,43.5,309.8125,42.0,-178.9375,0
1776972326.847,8.3701,-2.1284,-4.8315,-0.0128,0.0218,0.0027,-0.15,-3.15,-181.05,5.6958,7.7093,-1.5538,-0.0304,-0.004,0.0221,-85.2,39.6,-20.85,6.54,0.14,-7.35,0.0,0.0,-0.0011,-25.0625,3.25,43.5,309.8125,42.0,-178.9375,0
1776972326.857,8.4372,-2.1237,-4.8459,-0.0112,0.0301,0.0011,-0.15,-1.95,-181.05,5.7341,7.6854,-1.5826,-0.0306,-0.0021,0.0176,-85.2,39.6,-20.85,6.55,0.16,-7.34,0.0011,0.0,0.0011,-25.0625,3.25,43.5,309.8125,42.0,-178.9375,0
1776972326.862,8.4372,-2.1237,-4.8459,-0.0112,0.0301,0.0011,-0.15,-1.95,-181.05,5.7006,7.6734,-1.5826,-0.0306,-0.0021,0.0176,-85.2,39.6,-20.85,6.55,0.16,-7.34,-0.0011,0.0033,0.0,-24.6875,3.6875,43.0625,309.8125,42.0,-178.9375,0
1776972326.868,8.4396,-2.1524,-4.8411,-0.0075,0.0282,0.0003,0.6,-2.25,-180.6,5.7006,7.6734,-1.5826,-0.0264,0.0011,0.0139,-85.5,39.6,-22.65,6.54,0.13,-7.33,-0.0011,0.0033,0.0,-24.6875,3.6875,43.0625,309.8125,42.0,-178.9375,0
1776972326.877,8.4204,-2.0518,-4.774,-0.0101,0.0274,0.0013,-0.6,-3.3,-179.1,5.7126,7.7165,-1.4988,-0.0224,-0.0024,0.0179,-85.5,39.6,-22.65,6.55,0.12,-7.31,0.0011,0.0055,0.0011,-24.6875,3.6875,43.0625,309.8125,42.0,-178.9375,0
1776972326.887,8.3773,-2.1261,-4.8483,-0.0115,0.0237,0.0021,-0.6,-3.3,-179.1,5.7509,7.695,-1.4868,-0.0237,-0.0029,0.0147,-85.5,39.6,-22.65,6.55,0.11,-7.31,-0.0011,0.0,-0.0011,-24.6875,3.6875,43.0625,309.8125,42.0,-178.9375,0
1776972326.896,8.4252,-2.0973,-4.8722,-0.0099,0.0264,0.0037,-0.6,-3.3,-179.1,5.7245,7.6758,-1.5299,-0.0234,-0.0035,0.0144,-85.8,39.45,-21.75,6.53,0.13,-7.3,-0.0011,0.0,-0.0011,-24.6875,3.6875,43.0625,309.8125,42.0,-178.9375,0
1776972326.901,8.4252,-2.0973,-4.8722,-0.0099,0.0264,0.0037,-0.9,-2.7,-179.25,5.7317,7.6495,-1.5371,-0.032,-0.0032,0.0163,-85.35,39.9,-22.95,6.53,0.13,-7.3,-0.0011,0.0,-0.0011,-24.6875,3.6875,43.0625,309.8125,42.0,-178.9375,0
1776972326.908,8.3701,-2.0734,-4.853,-0.0104,0.0288,0.0029,-1.05,-3.75,-180.9,5.7317,7.6495,-1.5371,-0.032,-0.0032,0.0163,-85.35,38.7,-22.5,6.55,0.13,-7.32,-0.0011,0.0033,0.0011,-24.6875,3.6875,43.0625,309.8125,42.0,-178.9375,0
1776972326.913,8.3701,-2.0734,-4.853,-0.0104,0.0288,0.0029,-1.05,-3.75,-180.9,5.7197,7.6303,-1.561,-0.0304,-0.0016,0.0147,-85.35,38.7,-22.5,6.55,0.13,-7.32,0.0,0.0,-0.0011,-24.25,4.0,42.5625,309.8125,42.0,-178.9375,0
1776972326.918,8.406,-2.138,-4.853,-0.0096,0.0314,0.0037,0.6,-3.3,-182.4,5.7197,7.6303,-1.561,-0.0304,-0.0016,0.0147,-85.5,38.7,-22.5,6.54,0.12,-7.31,0.0,0.0,-0.0011,-24.25,4.0,42.5625,309.8125,42.0,-178.9375,0
1776972326.927,8.4108,-2.1261,-4.8267,-0.012,0.033,0.0024,0.6,-3.75,-180.15,5.6862,7.7069,-1.5251,-0.0322,-0.0085,0.0176,-85.5,39.6,-20.85,6.53,0.14,-7.32,0.0022,0.0011,-0.0022,-24.25,4.0,42.5625,309.8125,42.0,-178.9375,0
1776972326.937,8.3965,-2.1691,-4.8459,-0.0112,0.0362,0.0021,0.6,-3.75,-180.15,5.6336,7.6399,-1.5443,-0.0282,-0.0037,0.0133,-84.75,38.85,-22.35,6.57,0.13,-7.33,-0.0011,0.0011,-0.0033,-24.25,4.0,42.5625,309.8125,42.0,-178.9375,0
1776972326.945,8.418,-2.1069,-4.8243,-0.0077,0.0317,0.0024,0.6,-3.75,-180.15,5.6719,7.7548,-1.5131,-0.0325,-0.0043,0.0123,-86.55,38.25,-22.2,6.54,0.11,-7.34,-0.0011,-0.0011,-0.0011,-24.25,4.0,42.5625,309.8125,42.0,-178.9375,0
1776972326.95,8.418,-2.1069,-4.8243,-0.0077,0.0317,0.0024,0.6,-3.75,-180.15,5.7413,7.6998,-1.4844,-0.0322,0.0008,0.0085,-86.55,38.25,-22.2,6.54,0.11,-7.34,-0.0011,-0.0011,-0.0011,-24.25,4.0,42.5625,309.8125,42.0,-178.9375,0
1776972326.958,8.3941,-2.0662,-4.8578,-0.012,0.0298,0.0019,0.45,-2.4,-181.05,5.6862,7.6854,-1.4748,-0.0322,0.0008,0.0085,-86.55,38.25,-22.2,6.56,0.14,-7.3,0.0,0.0,-0.0011,-24.25,4.0,42.5625,309.8125,42.0,-178.9375,0
1776972326.963,8.3941,-2.0662,-4.8578,-0.012,0.0298,0.0019,0.45,-2.4,-181.05,5.6862,7.6854,-1.4748,-0.0304,-0.0011,0.0157,-84.75,39.3,-22.35,6.56,0.14,-7.3,-0.0011,0.0,-0.0022,-25.0625,4.0,42.5625,309.8125,42.0,-178.9375,0
1776972326.968,8.3845,-2.0542,-4.8746,-0.0141,0.0325,0.0011,-1.05,-3.3,-181.2,5.6599,7.6471,-1.5371,-0.0314,-0.0013,0.0144,-84.75,39.3,-22.35,6.55,0.16,-7.34,-0.0011,0.0,-0.0022,-25.0625,4.0,42.5625,309.8125,42.0,-178.9375,0
1776972326.977,8.3893,-2.1548,-4.8219,-0.0155,0.0298,0.0061,-0.15,-3.9,-181.05,5.6982,7.7045,-1.5036,-0.0314,-0.0013,0.0144,-84.75,39.3,-22.35,6.55,0.14,-7.31,0.0011,-0.0022,-0.0011,-25.0625,4.0,42.5625,309.8125,42.0,-178.9375,0
1776972326.987,8.406,-2.0901,-4.8507,-0.0141,0.0338,0.0088,-0.9,-3.15,-180.75,5.691,7.683,-1.5083,-0.0277,-0.004,0.0149,-85.95,39.3,-22.65,6.54,0.11,-7.34,-0.0011,0.0011,-0.0011,-25.0625,4.0,42.5625,309.8125,42.0,-178.9375,0
1776972326.995,8.4539,-2.071,-4.798,-0.0069,0.0336,0.0021,-0.9,-3.15,-180.75,5.691,7.683,-1.5083,-0.0277,-0.004,0.0149,-84.6,38.25,-22.95,6.53,0.14,-7.33,-0.0011,-0.0011,-0.0011,-25.0625,4.0,42.5625,309.8125,42.0,-178.9375,0
1776972327.0,8.4539,-2.071,-4.798,-0.0069,0.0336,0.0021,-0.9,-3.15,-180.75,5.6767,7.6519,-1.5227,-0.0312,-0.0029,0.0136,-85.2,39.6,-22.35,6.53,0.14,-7.33,-0.0011,-0.0011,-0.0011,-25.0625,4.0,42.5625,309.8125,42.0,-178.9375,0
1776972327.008,8.3917,-2.1691,-4.774,-0.0093,0.0349,-0.0016,-1.05,-4.05,-181.2,5.6719,7.7117,-1.5131,-0.0314,-0.0096,0.0139,-85.2,39.6,-22.35,6.55,0.11,-7.33,-0.0011,-0.0011,-0.0011,-25.0625,4.0,42.5625,309.8125,42.0,-178.9375,0
1776972327.013,8.3917,-2.0518,-4.8243,-0.0048,0.0349,0.0027,-1.05,-4.05,-181.2,5.6719,7.7117,-1.5131,-0.0314,-0.0096,0.0139,-84.45,38.55,-21.15,6.55,0.11,-7.33,0.0,0.0,-0.0011,-24.6875,3.6875,42.5625,309.8125,42.0,-178.9375,0
1776972327.018,8.3917,-2.0518,-4.8243,-0.0048,0.0349,0.0027,-0.45,-1.95,-181.05,5.6767,7.6998,-1.5155,-0.033,-0.0051,0.0125,-84.45,38.55,-21.15,6.54,0.11,-7.32,0.0,0.0,-0.0011,-24.6875,3.6875,42.5625,309.8125,42.0,-178.9375,0
1776972327.027,8.4396,-2.0949,-4.8123,-0.0083,0.0368,-0.0051,-1.35,-2.25,-180.6,5.7006,7.7141,-1.5514,-0.0354,-0.0077,0.0147,-85.5,40.5,-22.35,6.53,0.11,-7.33,0.0,0.0,-0.0022,-24.6875,3.6875,42.5625,309.8125,42.0,-178.9375,0
1776972327.037,8.418,-2.0949,-4.7908,-0.0093,0.0317,0.0027,-0.9,-3.15,-179.25,5.6934,7.7237,-1.4964,-0.0285,-0.0051,0.0163,-85.5,40.5,-22.35,6.53,0.14,-7.31,0.0,-0.0055,-0.0011,-24.6875,3.6875,42.5625,309.8125,42.0,-178.9375,0
1776972327.046,8.3797,-2.1261,-4.8171,-0.0099,0.029,0.0045,0.0,-2.55,-181.95,5.6743,7.7021,-1.4724,-0.0296,-0.0067,0.0123,-85.5,40.5,-22.35,6.54,0.13,-7.32,-0.0011,-0.0022,-0.0011,-24.6875,3.6875,42.5625,309.8125,42.0,-178.9375,0
1776972327.051,8.4539,-2.1644,-4.8123,-0.0123,0.028,-0.0027,0.0,-2.55,-181.95,5.6743,7.7021,-1.4724,-0.0296,-0.0067,0.0123,-85.35,39.0,-22.5,6.54,0.13,-7.32,-0.0011,-0.0022,-0.0011,-24.6875,3.6875,42.5625,309.8125,42.0,-178.9375,0
1776972327.058,8.4539,-2.1644,-4.8123,-0.0123,0.028,-0.0027,0.0,-2.55,-181.95,5.703,7.7093,-1.5299,-0.0328,0.0019,0.0115,-85.35,39.0,-22.5,6.55,0.11,-7.32,0.0022,-0.0011,0.0,-24.6875,3.6875,42.5625,309.8125,42.0,-178.9375,0
1776972327.063,8.4635,-2.0973,-4.8147,-0.0099,0.0282,-0.0005,0.0,-2.55,-181.95,5.691,7.6662,-1.5299,-0.0328,0.0019,0.0115,-85.35,39.0,-22.5,6.55,0.11,-7.32,-0.0022,0.0,0.0011,-24.6875,3.6875,42.6875,309.8125,42.0,-178.9375,0
1776972327.068,8.4635,-2.0973,-4.8147,-0.0099,0.0282,-0.0005,-0.6,-2.25,-180.6,5.691,7.6662,-1.5299,-0.033,-0.0021,0.0149,-85.35,39.0,-22.5,6.54,0.15,-7.31,-0.0022,0.0,0.0011,-24.6875,3.6875,42.6875,309.8125,42.0,-178.9375,0
1776972327.077,8.4108,-2.1261,-4.8363,-0.0088,0.025,-0.0037,-0.3,-4.05,-180.15,5.691,7.7117,-1.5538,-0.0314,0.0005,0.0203,-84.75,38.55,-20.85,6.54,0.12,-7.33,0.0,0.0022,0.0,-24.6875,3.6875,42.6875,309.8125,42.0,-178.9375,0
1776972327.087,8.4443,-2.1069,-4.8052,-0.0131,0.0306,0.0005,0.0,-3.75,-180.6,5.6407,7.7237,-1.4844,-0.0317,-0.0048,0.0157,-86.1,38.25,-21.0,6.55,0.14,-7.32,-0.0011,0.0,0.0011,-24.6875,3.6875,42.6875,309.8125,42.0,-178.9375,0
1776972327.096,8.4156,-2.0973,-4.7788,-0.0085,0.0269,0.0029,-0.3,-3.75,-180.15,5.703,7.683,-1.5203,-0.0349,0.0013,0.0131,-84.75,39.3,-21.6,6.55,0.15,-7.3,0.0,0.0011,-0.0011,-24.6875,3.6875,42.6875,309.8125,42.0,-178.9375,0
1776972327.1,8.3989,-2.1476,-4.8435,-0.0104,0.0293,-0.0008,-0.3,-3.75,-180.15,5.703,7.683,-1.5203,-0.0349,0.0013,0.0131,-84.15,37.95,-21.45,6.55,0.15,-7.3,0.0,0.0011,-0.0011,-24.6875,3.6875,42.6875,309.8125,42.0,-178.9375,0
1776972327.108,8.3869,-2.1213,-4.8315,-0.0131,0.0224,-0.0005,-0.3,-3.75,-180.6,5.7365,7.695,-1.47,-0.0306,-0.0013,0.0157,-84.15,37.95,-21.45,6.54,0.14,-7.31,-0.0011,-0.0022,0.0011,-24.6875,3.6875,42.6875,309.8125,42.0,-178.9375,0
1776972327.113,8.3869,-2.1213,-4.8315,-0.0131,0.0224,-0.0005,-0.3,-3.75,-180.6,5.7197,7.7452,-1.4796,-0.025,0.0019,0.0139,-85.2,39.6,-21.6,6.54,0.14,-7.31,0.0,-0.0011,0.0022,-24.25,3.25,42.25,309.8125,42.0,-178.9375,0
1776972327.118,8.3941,-2.0806,-4.9009,-0.008,0.024,-0.0005,-0.3,-3.75,-180.6,5.7197,7.7452,-1.4796,-0.025,0.0019,0.0139,-85.2,39.6,-21.6,6.54,0.12,-7.32,0.0,-0.0011,0.0022,-24.25,3.25,42.25,309.8125,42.0,-178.9375,0
1776972327.128,8.3893,-2.1596,-4.8076,-0.0053,0.0282,-0.0016,0.6,-3.0,-180.15,5.7461,7.6375,-1.5251,-0.0232,-0.0016,0.0144,-85.8,39.45,-21.45,6.56,0.13,-7.32,0.0,0.0022,0.0,-24.25,3.25,42.25,309.8125,42.0,-178.9375,0
1776972327.137,8.3773,-2.071,-4.8507,-0.0093,0.0277,0.0021,0.3,-1.8,-180.6,5.7174,7.6471,-1.5371,-0.0293,-0.0061,0.0163,-85.8,39.45,-21.45,6.56,0.14,-7.37,-0.0011,-0.0033,0.0011,-24.25,3.25,42.25,309.8125,42.0,-178.9375,0
1776972327.146,8.3773,-2.071,-4.8507,-0.0093,0.0277,0.0021,-0.45,-3.15,-179.7,5.6838,7.7093,-1.5299,-0.0245,0.0011,0.0139,-84.45,40.05,-21.9,6.55,0.14,-7.34,0.0022,-0.0033,-0.0022,-24.25,3.25,42.25,309.8125,42.0,-178.9375,0
1776972327.151,8.442,-2.0901,-4.7932,-0.0101,0.0304,0.0013,-0.45,-3.15,-179.7,5.6503,7.6519,-1.5012,-0.0282,-0.0045,0.0211,-84.45,40.05,-21.9,6.55,0.14,-7.34,0.0022,-0.0033,-0.0022,-24.25,3.25,42.25,309.8125,42.0,-178.9375,0
1776972327.158,8.3869,-2.0686,-4.8195,-0.004,0.0328,0.0024,0.45,-3.15,-181.5,5.6503,7.6519,-1.5012,-0.0282,-0.0045,0.0211,-84.45,40.05,-21.9,6.56,0.13,-7.3,0.0,-0.0033,0.0011,-24.25,3.25,42.25,309.8125,42.0,-178.9375,0
1776972327.163,8.3869,-2.0686,-4.8195,-0.004,0.0328,0.0024,-1.05,-3.0,-180.15,5.6479,7.7237,-1.5203,-0.0325,-0.0032,0.0155,-85.5,38.85,-21.9,6.56,0.13,-7.3,0.0,-0.0055,0.0022,-24.0,2.875,43.5,309.8125,42.0,-178.9375,0
1776972327.169,8.4276,-2.1045,-4.8147,-0.0115,0.0301,0.0027,-1.05,-3.0,-180.15,5.7102,7.7476,-1.4796,-0.0325,-0.0032,0.0155,-85.5,38.85,-21.9,6.53,0.13,-7.31,0.0,-0.0055,0.0022,-24.0,2.875,43.5,309.8125,42.0,-178.9375,0
1776972327.178,8.4132,-2.083,-4.8315,-0.0099,0.0264,0.0011,-1.05,-3.0,-180.15,5.7102,7.7476,-1.4796,-0.0376,-0.004,0.0149,-84.6,38.7,-21.45,6.56,0.12,-7.34,0.0,-0.0033,0.0011,-24.0,2.875,43.5,309.8125,42.0,-178.9375,0
1776972327.187,8.4348,-2.0518,-4.8339,-0.0091,0.0272,0.0053,-0.15,-3.15,-181.05,5.6551,7.7237,-1.4557,-0.0386,-0.0064,0.0165,-84.6,38.7,-21.45,6.53,0.14,-7.33,0.0,-0.0065,0.0011,-24.0,2.875,43.5,309.8125,42.0,-178.9375,0
1776972327.196,8.4156,-2.1332,-4.8219,-0.0056,0.0237,0.0024,0.6,-1.5,-181.65,5.6862,7.7381,-1.5969,-0.0269,-0.0048,0.0133,-85.35,40.2,-21.75,6.54,0.14,-7.35,0.0,-0.0022,0.0022,-24.0,2.875,43.5,309.8125,42.0,-178.9375,0
1776972327.201,8.4156,-2.1332,-4.8219,-0.0056,0.0237,0.0024,-0.6,-3.0,-180.9,5.6671,7.7237,-1.494,-0.0296,0.0,0.0115,-85.95,38.55,-22.65,6.54,0.14,-7.35,0.0,-0.0022,0.0022,-24.0,2.875,43.5,309.8125,42.0,-178.9375,0
1776972327.208,8.4683,-2.071,-4.8076,-0.0061,0.0338,0.0,-0.6,-3.0,-180.9,5.6647,7.7165,-1.5467,-0.0229,0.0021,0.0099,-85.95,38.55,-22.65,6.53,0.12,-7.34,0.0,-0.0044,0.0,-24.0,2.875,43.5,309.8125,42.0,-178.9375,0
1776972327.213,8.4683,-2.071,-4.8076,-0.0061,0.0338,0.0,-1.2,-2.7,-181.8,5.6647,7.7165,-1.5467,-0.0229,0.0021,0.0099,-83.7,37.65,-21.6,6.53,0.12,-7.34,-0.0033,-0.0033,0.0,-24.6875,4.0,42.5625,309.8125,42.0,-178.9375,0
1776972327.219,8.4036,-2.1284,-4.8507,-0.0072,0.0264,0.0,-1.2,-2.7,-181.8,5.6767,7.7261,-1.5155,-0.0264,-0.0051,0.0176,-83.7,37.65,-21.6,6.53,0.15,-7.32,-0.0033,-0.0033,0.0,-24.6875,4.0,42.5625,309.8125,42.0,-178.9375,0
1776972327.228,8.3989,-2.1093,-4.8291,-0.0115,0.0232,0.0035,-1.2,-2.7,-181.8,5.6695,7.6471,-1.5443,-0.028,-0.0019,0.0128,-83.7,37.65,-21.6,6.54,0.13,-7.34,0.0,-0.0011,0.0,-24.6875,4.0,42.5625,309.8125,42.0,-178.9375,0
1776972327.238,8.4491,-2.1045,-4.786,-0.0128,0.0221,0.0032,-1.2,-2.7,-181.8,5.6695,7.616,-1.5275,-0.0237,-0.0043,0.0125,-84.45,37.35,-21.9,6.54,0.11,-7.35,0.0,0.0022,0.0,-24.6875,4.0,42.5625,309.8125,42.0,-178.9375,0
1776972327.247,8.3629,-2.1021,-4.7716,-0.0131,0.0245,-0.0013,1.5,-3.15,-180.3,5.691,7.6926,-1.482,-0.0256,-0.0045,0.0165,-84.45,37.35,-21.9,6.53,0.11,-7.32,0.0,0.0022,0.0022,-24.6875,4.0,42.5625,309.8125,42.0,-178.9375,0
1776972327.253,8.3629,-2.1021,-4.7716,-0.0131,0.0245,-0.0013,-0.3,-3.75,-181.2,5.691,7.6926,-1.482,-0.0256,-0.0045,0.0165,-86.1,39.9,-21.0,6.53,0.11,-7.32,-0.0011,0.0,0.0011,-24.6875,4.0,42.5625,309.8125,42.0,-178.9375,0
1776972327.259,8.3989,-2.0925,-4.8243,-0.0128,0.029,0.0005,-0.3,-3.75,-181.2,5.7006,7.6734,-1.5323,-0.0338,-0.0029,0.0152,-86.1,39.9,-21.0,6.56,0.12,-7.3,-0.0011,0.0,0.0011,-24.6875,4.0,42.5625,309.8125,42.0,-178.9375,0
1776972327.264,8.4539,-2.0877,-4.8578,-0.0136,0.0296,0.0064,0.9,-3.9,-180.75,5.7006,7.6734,-1.5323,-0.0338,-0.0029,0.0152,-85.05,39.0,-21.0,6.57,0.12,-7.32,0.0022,0.0011,0.0022,-24.6875,3.6875,42.5625,309.8125,42.0,-178.9375,0
1776972327.269,8.4539,-2.0877,-4.8578,-0.0136,0.0296,0.0064,0.9,-3.9,-180.75,5.6312,7.6998,-1.494,-0.0338,0.0045,0.0197,-85.05,39.0,-21.0,6.57,0.12,-7.32,0.0022,0.0011,0.0022,-24.6875,3.6875,42.5625,309.8125,42.0,-178.9375,0
1776972327.278,8.3725,-2.1332,-4.8291,-0.0064,0.0277,0.0016,-0.3,-2.55,-179.55,5.6599,7.6495,-1.5227,-0.0362,0.0013,0.0139,-84.15,37.95,-21.75,6.56,0.13,-7.32,0.0,0.0011,0.0022,-24.6875,3.6875,42.5625,309.8125,42.0,-178.9375,0
1776972327.288,8.3989,-2.0853,-4.8578,-0.0085,0.0277,0.0003,-0.3,-2.55,-179.55,5.6719,7.7572,-1.4724,-0.0328,-0.0013,0.0163,-83.7,39.6,-22.35,6.55,0.14,-7.33,0.0011,0.0011,0.0,-24.6875,3.6875,42.5625,309.8125,42.0,-178.9375,0
1776972327.297,8.4491,-2.1404,-4.8746,-0.0045,0.0336,0.0011,0.3,-3.75,-182.4,5.6862,7.7117,-1.5155,-0.0269,0.0,0.016,-85.5,39.3,-21.6,6.55,0.13,-7.33,0.0011,-0.0011,0.0,-24.6875,3.6875,42.5625,309.8125,42.0,-178.9375,0
1776972327.303,8.3917,-2.0446,-4.774,-0.0059,0.028,-0.0024,0.0,-3.3,-180.15,5.6862,7.7117,-1.5155,-0.0269,0.0,0.016,-86.55,40.2,-22.2,6.55,0.13,-7.33,0.0022,-0.0055,0.0,-24.6875,3.6875,42.5625,309.8125,42.0,-178.9375,0
1776972327.309,8.3917,-2.0446,-4.774,-0.0059,0.028,-0.0024,-0.6,-3.75,-181.2,5.7341,7.6638,-1.4796,-0.0266,-0.0003,0.012,-86.55,40.2,-22.2,6.55,0.14,-7.32,0.0022,-0.0055,0.0,-24.6875,3.6875,42.5625,309.8125,42.0,-178.9375,0
1776972327.314,8.4324,-2.1213,-4.7836,-0.0083,0.0301,-0.0008,-0.6,-3.75,-181.2,5.7174,7.7237,-1.4868,-0.028,-0.0011,0.0141,-86.55,40.2,-22.2,6.55,0.14,-7.32,0.0011,-0.0055,0.0,-24.25,3.6875,43.0625,309.8125,42.0,-178.9375,0
1776972327.319,8.4324,-2.1213,-4.7836,-0.0083,0.0301,-0.0008,0.9,-1.95,-180.75,5.7174,7.7237,-1.4868,-0.028,-0.0011,0.0141,-86.55,40.2,-22.2,6.54,0.15,-7.33,0.0011,-0.0055,0.0,-24.25,3.6875,43.0625,309.8125,42.0,-178.9375,0
1776972327.328,8.3917,-2.1332,-4.8195,-0.0131,0.0258,0.0,-1.2,-3.45,-181.05,5.6599,7.7117,-1.5012,-0.029,0.0051,0.0112,-85.8,38.25,-22.5,6.55,0.12,-7.29,0.0,-0.0011,-0.0011,-24.25,3.6875,43.0625,309.8125,42.0,-178.9375,0
1776972327.338,8.4013,-2.1524,-4.786,-0.0144,0.0277,-0.0019,-1.2,-3.45,-181.05,5.6934,7.7261,-1.4964,-0.0264,0.0005,0.0107,-85.8,38.25,-22.5,6.55,0.14,-7.31,-0.0011,-0.0033,0.0011,-24.25,3.6875,43.0625,309.8125,42.0,-178.9375,0
1776972327.347,8.4779,-2.1021,-4.8483,-0.0131,0.0269,-0.0013,-1.2,-3.45,-181.05,5.6958,7.6495,-1.5083,-0.025,-0.0027,0.0133,-83.85,39.0,-21.45,6.53,0.09,-7.31,0.0,-0.0022,-0.0011,-24.25,3.6875,43.0625,309.8125,42.0,-178.9375,0
1776972327.352,8.3989,-2.0853,-4.8028,-0.0176,0.0344,0.0027,0.0,-2.25,-179.55,5.7245,7.7069,-1.4892,-0.025,-0.0027,0.0133,-85.35,39.0,-21.45,6.53,0.09,-7.31,0.0,-0.0011,0.0011,-24.25,3.6875,43.0625,309.8125,42.0,-178.9375,0
1776972327.359,8.3989,-2.0853,-4.8028,-0.0176,0.0344,0.0027,0.0,-2.25,-179.85,5.7245,7.7069,-1.4892,-0.0288,0.0027,0.0131,-85.35,39.0,-21.45,6.54,0.12,-7.33,0.0,-0.0011,0.0011,-24.25,3.6875,43.0625,309.8125,42.0,-178.9375,0
1776972327.364,8.442,-2.1237,-4.8507,-0.0101,0.0322,-0.0003,0.0,-2.25,-179.85,5.7126,7.7261,-1.5251,-0.0322,-0.0016,0.0088,-84.6,40.95,-22.5,6.54,0.12,-7.33,-0.0011,0.0,0.0022,-25.0625,2.5625,41.875,309.8125,42.0,-178.9375,0
1776972327.369,8.442,-2.1237,-4.8507,-0.0101,0.0322,-0.0003,-0.45,-4.2,-180.75,5.7126,7.7261,-1.5251,-0.0322,-0.0016,0.0088,-84.6,40.95,-22.5,6.55,0.14,-7.3,-0.0011,0.0,0.0022,-25.0625,2.5625,41.875,309.8125,42.0,-178.9375,0
1776972327.378,8.3438,-2.0901,-4.8794,-0.0133,0.0298,0.0011,0.0,-2.55,-179.85,5.7126,7.6998,-1.5371,-0.0328,-0.0029,0.0104,-85.2,38.85,-20.85,6.57,0.13,-7.32,0.0,0.0,0.0,-25.0625,2.5625,41.875,309.8125,42.0,-178.9375,0
1776972327.388,8.3941,-2.0566,-4.7669,-0.0053,0.0349,0.0029,0.3,-2.55,-180.6,5.6862,7.6614,-1.4988,-0.0248,-0.0024,0.0133,-85.05,39.9,-20.25,6.54,0.15,-7.33,0.0011,-0.0033,0.0022,-25.0625,2.5625,41.875,309.8125,42.0,-178.9375,0
1776972327.396,8.4635,-2.1045,-4.81,-0.0099,0.0285,0.0013,0.3,-2.55,-180.6,5.7437,7.7021,-1.494,-0.0288,-0.0069,0.0088,-84.75,39.3,-21.15,6.56,0.13,-7.34,0.0,-0.0055,0.0,-25.0625,2.5625,41.875,309.8125,42.0,-178.9375,0
1776972327.401,8.4156,-2.0638,-4.8147,-0.0077,0.0288,0.0,0.3,-2.55,-180.6,5.7102,7.7237,-1.5323,-0.0248,-0.0045,0.0139,-84.75,39.3,-21.15,6.56,0.13,-7.34,0.0,-0.0055,0.0,-25.0625,2.5625,41.875,309.8125,42.0,-178.9375,0
1776972327.409,8.351,-2.1548,-4.7716,-0.0085,0.0293,-0.0032,-1.05,-2.55,-180.15,5.6383,7.6998,-1.5107,-0.0248,-0.0045,0.0139,-84.75,39.3,-21.15,6.55,0.13,-7.33,0.0011,-0.0065,0.0011,-25.0625,2.5625,41.875,309.8125,42.0,-178.9375,0
1776972327.414,8.351,-2.1548,-4.7716,-0.0085,0.0293,-0.0032,-1.05,-2.55,-180.15,5.6383,7.6998,-1.5107,-0.025,-0.0021,0.0139,-85.5,39.3,-21.9,6.55,0.13,-7.33,0.0,-0.0065,0.0,-24.25,3.6875,42.6875,309.8125,42.0,-178.9375,0
1776972327.419,8.4228,-2.1117,-4.8459,-0.008,0.0304,-0.0019,0.45,-1.95,-181.5,5.6431,7.7021,-1.4605,-0.025,-0.0021,0.0139,-85.5,39.3,-21.9,6.54,0.13,-7.33,0.0,-0.0065,0.0,-24.25,3.6875,42.6875,309.8125,42.0,-178.9375,0
1776972327.428,8.3749,-2.1165,-4.8028,-0.0109,0.0306,0.0005,-0.9,-2.4,-181.05,5.6551,7.671,-1.4964,-0.0266,-0.0024,0.0165,-85.5,39.3,-21.9,6.53,0.14,-7.29,-0.0011,-0.0022,0.0011,-24.25,3.6875,42.6875,309.8125,42.0,-178.9375,0
1776972327.438,8.4515,-2.1213,-4.8411,-0.0101,0.033,0.0021,0.0,-4.05,-182.7,5.6527,7.683,-1.561,-0.0309,-0.0011,0.0099,-84.45,38.55,-21.6,6.53,0.13,-7.33,0.0,-0.0055,0.0011,-24.25,3.6875,42.6875,309.8125,42.0,-178.9375,0
1776972327.447,8.4515,-2.1213,-4.8411,-0.0096,0.0301,0.0013,-0.45,-4.2,-180.75,5.6527,7.683,-1.561,-0.033,-0.0061,0.0195,-83.4,38.7,-21.75,6.54,0.12,-7.34,0.0022,-0.0087,0.0011,-24.25,3.6875,42.6875,309.8125,42.0,-178.9375,0
1776972327.451,8.4108,-2.1069,-4.7716,-0.0096,0.0301,0.0013,-0.45,-4.2,-180.75,5.6144,7.7381,-1.5227,-0.0264,-0.0016,0.0187,-83.4,38.7,-21.75,6.54,0.12,-7.34,0.0022,-0.0087,0.0011,-24.25,3.6875,42.6875,309.8125,42.0,-178.9375,0
1776972327.459,8.4372,-2.0231,-4.8578,-0.012,0.0296,0.0003,-0.45,-4.2,-180.75,5.6336,7.6758,-1.4988,-0.0229,-0.0016,0.0141,-85.2,40.05,-22.35,6.53,0.12,-7.33,0.0,-0.0011,-0.0011,-24.25,3.6875,42.6875,309.8125,42.0,-178.9375,0
1776972327.464,8.4372,-2.0231,-4.8578,-0.012,0.0296,0.0003,-0.45,-4.2,-180.75,5.6336,7.6758,-1.4988,-0.0229,-0.0016,0.0141,-86.25,38.1,-21.9,6.53,0.12,-7.33,-0.0022,-0.0022,0.0033,-24.0,4.6875,42.25,309.8125,42.0,-178.9375,0
1776972327.469,8.3989,-2.1308,-4.7573,-0.0133,0.0274,0.0024,-1.35,-3.0,-181.65,5.6048,7.6878,-1.4916,-0.025,-0.0005,0.0165,-86.25,38.1,-21.9,6.52,0.13,-7.33,-0.0022,-0.0022,0.0033,-24.0,4.6875,42.25,309.8125,42.0,-178.9375,0
1776972327.478,8.4013,-2.1237,-4.8147,-0.0125,0.0269,-0.0008,0.15,-3.45,-180.75,5.6695,7.7189,-1.5155,-0.0272,-0.0027,0.0144,-84.45,37.35,-20.55,6.54,0.11,-7.33,0.0022,-0.0022,-0.0011,-24.0,4.6875,42.25,309.8125,42.0,-178.9375,0
1776972327.488,8.4132,-2.1117,-4.8507,-0.016,0.0314,0.0024,-0.15,-2.7,-179.7,5.6623,7.7428,-1.494,-0.025,-0.0013,0.0163,-84.75,39.6,-21.6,6.52,0.14,-7.36,0.0,-0.0033,0.0044,-24.0,4.6875,42.25,309.8125,42.0,-178.9375,0
1776972327.497,8.4372,-2.1189,-4.7549,-0.0117,0.0306,0.0037,1.2,-3.45,-181.8,5.6886,7.6782,-1.5323,-0.0274,-0.0061,0.0133,-84.75,39.6,-21.6,6.55,0.12,-7.31,0.0011,-0.0033,0.0011,-24.0,4.6875,42.25,309.8125,42.0,-178.9375,0
1776972327.502,8.4372,-2.1189,-4.7549,-0.0117,0.0306,0.0037,1.2,-3.45,-181.8,5.6886,7.6782,-1.5323,-0.0274,-0.0061,0.0133,-84.75,39.6,-21.6,6.55,0.12,-7.31,0.0011,-0.0033,0.0011,-24.0,4.6875,42.25,309.8125,42.0,-178.9375,0
1776972327.509,8.4204,-2.1213,-4.8363,-0.0141,0.0306,-0.0008,1.2,-3.45,-181.8,5.6479,7.6998,-1.5155,-0.0309,-0.0059,0.0179,-85.8,38.7,-22.2,6.54,0.12,-7.34,0.0011,-0.0022,0.0,-24.0,4.6875,42.25,309.8125,42.0,-178.9375,0
1776972327.514,8.4204,-2.1213,-4.8363,-0.0141,0.0306,-0.0008,1.2,-3.45,-181.8,5.6479,7.6998,-1.5155,-0.0309,-0.0059,0.0179,-85.8,38.7,-22.2,6.54,0.12,-7.34,-0.0011,0.0011,0.0022,-24.6875,3.25,43.5,309.8125,42.0,-178.9375,0
1776972327.519,8.3749,-2.1308,-4.7238,-0.0096,0.0269,0.0069,1.2,-3.45,-181.8,5.7293,7.6926,-1.5083,-0.0226,-0.0027,0.0112,-85.8,38.7,-22.2,6.54,0.13,-7.31,-0.0011,0.0011,0.0022,-24.6875,3.25,43.5,309.8125,42.0,-178.9375,0
1776972327.529,8.3749,-2.1237,-4.8315,-0.016,0.0312,0.0061,-0.45,-2.4,-180.0,5.6767,7.7452,-1.5682,-0.0264,-0.0003,0.0131,-85.5,38.1,-22.35,6.55,0.13,-7.33,-0.0022,-0.0011,0.0033,-24.6875,3.25,43.5,309.8125,42.0,-178.9375,0
1776972327.538,8.4084,-2.083,-4.8339,-0.0093,0.0322,0.0035,-0.3,-3.75,-180.9,5.6048,7.7165,-1.5467,-0.0245,-0.0053,0.0173,-86.25,40.5,-21.9,6.54,0.16,-7.31,0.0022,-0.0011,0.0011,-24.6875,3.25,43.5,309.8125,42.0,-178.9375,0
1776972327.547,8.4563,-2.1237,-4.798,-0.0107,0.0272,-0.0005,-0.3,-2.25,-179.1,5.7389,7.6758,-1.5012,-0.0266,0.0008,0.0131,-85.35,40.2,-21.75,6.54,0.14,-7.33,0.0,-0.0022,0.0022,-24.6875,3.25,43.5,309.8125,42.0,-178.9375,0
1776972327.552,8.4563,-2.1237,-4.798,-0.0107,0.0272,-0.0005,-0.3,-2.25,-179.1,5.7389,7.6758,-1.5012,-0.0266,0.0008,0.0131,-85.35,40.2,-21.75,6.54,0.14,-7.33,0.0,-0.0022,0.0022,-24.6875,3.25,43.5,309.8125,42.0,-178.9375,0
1776972327.559,8.4108,-2.1141,-4.8315,-0.008,0.0298,0.004,-0.3,-3.75,-180.9,5.7652,7.7309,-1.5586,-0.0269,0.0,0.0173,-85.2,39.3,-20.85,6.53,0.12,-7.33,0.0011,-0.0022,-0.0011,-24.6875,3.25,43.5,309.8125,42.0,-178.9375,0
1776972327.564,8.43,-2.0734,-4.8219,-0.0109,0.032,0.0032,-0.3,-3.75,-180.9,5.703,7.6734,-1.585,-0.0277,0.0021,0.0192,-86.25,40.5,-21.9,6.53,0.12,-7.33,0.0,-0.0011,0.0022,-24.6875,3.6875,42.5625,309.8125,42.0,-178.9375,0
1776972327.57,8.43,-2.0734,-4.8219,-0.0109,0.032,0.0032,-0.3,-3.75,-180.9,5.703,7.6734,-1.585,-0.0277,0.0021,0.0192,-86.25,40.5,-21.9,6.55,0.13,-7.32,0.0,-0.0011,0.0022,-24.6875,3.6875,42.5625,309.8125,42.0,-178.9375,0
1776972327.579,8.418,-2.0877,-4.8219,-0.0072,0.0338,-0.0011,-1.2,-1.2,-179.7,5.6551,7.6782,-1.5131,-0.0221,0.0005,0.0168,-85.5,38.85,-21.6,6.52,0.12,-7.32,0.0,0.0,0.0011,-24.6875,3.6875,42.5625,309.8125,42.0,-178.9375,0
1776972327.588,8.418,-2.1165,-4.8387,-0.0141,0.0304,0.0029,-0.3,-3.0,-180.15,5.703,7.7021,-1.5682,-0.0253,0.0011,0.0136,-85.5,38.85,-21.6,6.53,0.12,-7.33,0.0,0.0,0.0011,-24.6875,3.6875,42.5625,309.8125,42.0,-178.9375,0
1776972327.598,8.3941,-2.1308,-4.8291,-0.0125,0.0296,0.0029,0.3,-3.75,-180.6,5.7341,7.7093,-1.5323,-0.0261,0.0027,0.0149,-85.5,39.3,-22.65,6.54,0.12,-7.37,-0.0011,0.0,0.0011,-24.6875,3.6875,42.5625,309.8125,42.0,-178.9375,0
1776972327.603,8.4132,-2.0494,-4.8363,-0.0136,0.0261,0.0035,0.3,-3.75,-180.6,5.6767,7.6495,-1.5874,-0.0344,-0.0003,0.0187,-85.5,39.3,-22.65,6.54,0.12,-7.37,-0.0011,0.0,0.0,-24.6875,3.6875,42.5625,309.8125,42.0,-178.9375,0
1776972327.609,8.4132,-2.0494,-4.8363,-0.0136,0.0261,0.0035,-0.3,-3.75,-180.9,5.6767,7.6495,-1.5874,-0.0344,-0.0003,0.0187,-85.5,39.3,-22.65,6.52,0.12,-7.31,-0.0011,0.0,0.0,-24.6875,3.6875,42.5625,309.8125,42.0,-178.9375,0
1776972327.614,8.3893,-2.1237,-4.8626,-0.0099,0.0277,0.0032,0.6,-1.8,-181.2,5.6982,7.6926,-1.4988,-0.0317,-0.0059,0.0099,-85.2,38.85,-21.6,6.52,0.12,-7.31,0.0,-0.0022,0.0,-25.0625,3.25,42.5625,309.8125,42.0,-178.9375,0
1776972327.62,8.3893,-2.1237,-4.8626,-0.0099,0.0277,0.0032,0.6,-1.8,-181.2,5.6982,7.6926,-1.4988,-0.0317,-0.0059,0.0099,-85.2,38.85,-21.6,6.53,0.13,-7.3,0.0,-0.0022,0.0,-25.0625,3.25,42.5625,309.8125,42.0,-178.9375,0
1776972327.629,8.4132,-2.1141,-4.8195,-0.0093,0.0328,-0.0013,0.6,-1.8,-181.2,5.6719,7.7189,-1.5275,-0.028,-0.0024,0.0128,-86.1,39.45,-21.0,6.53,0.12,-7.3,-0.0022,0.0,-0.0011,-25.0625,3.25,42.5625,309.8125,42.0,-178.9375,0
1776972327.638,8.4324,-2.0901,-4.8363,-0.0125,0.0306,0.0005,0.15,-3.9,-180.3,5.6958,7.7117,-1.549,-0.0322,-0.0005,0.0144,-85.2,38.85,-22.35,6.54,0.1,-7.35,-0.0011,0.0044,-0.0033,-25.0625,3.25,42.5625,309.8125,42.0,-178.9375,0
1776972327.648,8.3653,-2.1644,-4.8267,-0.0112,0.0288,-0.0011,-0.3,-4.05,-179.85,5.7174,7.7141,-1.5251,-0.0266,-0.0051,0.0115,-84.75,40.05,-22.35,6.55,0.12,-7.34,0.0,0.0033,-0.0011,-25.0625,3.25,42.5625,309.8125,42.0,-178.9375,0
1776972327.658,8.4443,-2.1069,-4.7788,-0.0075,0.0368,0.0,0.45,-2.7,-180.0,5.7245,7.7213,-1.5419,-0.0277,0.0011,0.0085,-83.4,39.45,-21.75,6.54,0.14,-7.31,0.0,0.0033,-0.0022,-25.0625,3.25,42.5625,309.8125,42.0,-178.9375,0
1776972327.663,8.4252,-2.1117,-4.8195,-0.0088,0.0336,0.0043,-0.9,-2.4,-180.3,5.6479,7.695,-1.5036,-0.028,0.0005,0.0139,-83.4,39.45,-21.75,6.54,0.14,-7.31,0.0,0.0033,-0.0022,-24.6875,3.25,43.5,309.8125,42.0,-178.9375,0
1776972327.669,8.442,-2.0877,-4.9057,-0.0059,0.0314,0.0027,-0.9,-2.4,-180.3,5.6695,7.6974,-1.5419,-0.0277,-0.0029,0.0109,-84.45,40.5,-21.6,6.55,0.13,-7.31,-0.0022,0.0,0.0011,-24.6875,3.25,43.5,309.8125,42.0,-178.9375,0
1776972327.679,8.3845,-2.0614,-4.8076,-0.0072,0.0325,0.0035,-1.35,-4.05,-180.15,5.7365,7.6471,-1.482,-0.0346,-0.0035,0.0152,-84.45,40.5,-21.6,6.55,0.14,-7.32,-0.0011,0.0022,-0.0011,-24.6875,3.25,43.5,309.8125,42.0,-178.9375,0
1776972327.688,8.4084,-2.0614,-4.8028,-0.0037,0.0328,0.0032,-1.35,-4.05,-180.15,5.6527,7.7093,-1.5299,-0.0282,-0.0016,0.0144,-84.75,39.6,-23.1,6.52,0.14,-7.32,-0.0011,-0.0022,-0.0011,-24.6875,3.25,43.5,309.8125,42.0,-178.9375,0
1776972327.697,8.4084,-2.0614,-4.8028,-0.0037,0.0328,0.0032,0.3,-3.0,-182.4,5.6767,7.762,-1.4844,-0.0282,-0.0016,0.0144,-84.75,39.6,-23.1,6.53,0.15,-7.34,0.0,-0.0011,0.0,-24.6875,3.25,43.5,309.8125,42.0,-178.9375,0
1776972327.702,8.4084,-2.1165,-4.8219,-0.0069,0.0285,-0.0029,0.0,-2.25,-181.2,5.6767,7.762,-1.4844,-0.0333,0.0011,0.0155,-84.75,39.6,-23.1,6.53,0.15,-7.34,0.0,-0.0011,0.0,-24.6875,3.25,43.5,309.8125,42.0,-178.9375,0
1776972327.709,8.3869,-2.1069,-4.7836,-0.0067,0.032,-0.0003,0.0,-2.25,-181.2,5.6671,7.7548,-1.5634,-0.0389,-0.0048,0.0184,-86.55,39.9,-21.75,6.52,0.12,-7.34,0.0,-0.0011,0.0,-24.6875,3.25,43.5,309.8125,42.0,-178.9375,0
1776972327.714,8.3869,-2.1069,-4.7836,-0.0067,0.032,-0.0003,-0.45,-3.15,-180.3,5.6671,7.7548,-1.5634,-0.0389,-0.0048,0.0184,-86.55,39.9,-21.75,6.52,0.12,-7.34,0.0,0.0011,0.0,-24.25,3.6875,43.75,309.8125,42.0,-178.9375,0
1776972327.72,8.4659,-2.1237,-4.81,-0.0117,0.0274,-0.0011,-0.45,-3.15,-180.3,5.6336,7.6782,-1.5299,-0.0317,-0.0027,0.012,-85.05,37.5,-22.2,6.54,0.13,-7.31,0.0,0.0011,0.0,-24.25,3.6875,43.75,309.8125,42.0,-178.9375,0
1776972327.729,8.3773,-2.1165,-4.8123,-0.0131,0.0298,0.0053,0.6,-2.25,-180.15,5.7054,7.6854,-1.5323,-0.0301,-0.0029,0.0168,-85.5,39.6,-22.35,6.52,0.13,-7.31,0.0022,-0.0022,-0.0011,-24.25,3.6875,43.75,309.8125,42.0,-178.9375,0
1776972327.739,8.4156,-2.0758,-4.8602,-0.0128,0.0248,0.0043,0.6,-2.25,-180.15,5.6407,7.6591,-1.4772,-0.0288,0.0024,0.0149,-85.2,39.6,-23.85,6.53,0.13,-7.33,0.0,0.0022,0.0,-24.25,3.6875,43.75,309.8125,42.0,-178.9375,0
1776972327.748,8.4204,-2.0806,-4.7932,-0.0107,0.0261,0.0,0.6,-2.25,-180.15,5.703,7.7357,-1.4844,-0.0269,0.0011,0.0173,-85.8,40.2,-21.0,6.54,0.12,-7.36,0.0011,-0.0011,-0.0011,-24.25,3.6875,43.75,309.8125,42.0,-178.9375,0
1776972327.752,8.4204,-2.0806,-4.7932,-0.0107,0.0261,0.0,0.15,-3.15,-181.05,5.703,7.7357,-1.4844,-0.0269,0.0011,0.0173,-85.8,40.2,-21.0,6.54,0.12,-7.36,0.0011,-0.0011,-0.0011,-24.25,3.6875,43.75,309.8125,42.0,-178.9375,0
1776972327.76,8.4013,-2.0925,-4.8339,-0.0104,0.0309,0.0019,0.15,-3.15,-181.05,5.6647,7.7165,-1.5538,-0.0309,0.0013,0.0152,-85.2,40.05,-22.65,6.52,0.13,-7.34,0.0,-0.0033,0.0011,-24.25,3.6875,43.75,309.8125,42.0,-178.9375,0
1776972327.765,8.4013,-2.0925,-4.8339,-0.0104,0.0309,0.0019,0.0,-3.75,-179.85,5.6695,7.6734,-1.506,-0.0309,0.0013,0.0152,-85.2,40.05,-22.65,6.52,0.13,-7.34,-0.0011,-0.0022,0.0,-24.25,3.25,42.5625,309.8125,42.0,-178.9375,0
1776972327.77,8.43,-2.0925,-4.7884,-0.0088,0.0285,0.0011,0.0,-3.75,-179.85,5.6695,7.6734,-1.506,-0.0242,0.0003,0.0149,-85.2,40.05,-22.65,6.55,0.14,-7.34,-0.0011,-0.0022,0.0,-24.25,3.25,42.5625,309.8125,42.0,-178.9375,0
1776972327.779,8.4108,-2.1069,-4.8267,-0.0064,0.0274,0.0008,0.9,-2.4,-181.8,5.691,7.6662,-1.5419,-0.033,-0.0027,0.0184,-85.8,39.45,-22.2,6.54,0.15,-7.31,0.0,0.0065,-0.0011,-24.25,3.25,42.5625,309.8125,42.0,-178.9375,0
1776972327.789,8.3941,-2.1117,-4.8123,-0.012,0.0298,0.0024,-0.6,-3.3,-180.6,5.6695,7.6519,-1.5514,-0.0264,-0.0003,0.012,-85.8,39.45,-22.2,6.53,0.15,-7.35,0.0,0.0044,0.0,-24.25,3.25,42.5625,309.8125,42.0,-178.9375,0
1776972327.797,8.3701,-2.1045,-4.8914,-0.012,0.0293,0.0011,-0.6,-3.3,-180.6,5.7293,7.7045,-1.5107,-0.0288,0.0021,0.0112,-86.25,39.3,-21.15,6.56,0.14,-7.33,-0.0011,0.0,0.0,-24.25,3.25,42.5625,309.8125,42.0,-178.9375,0
1776972327.802,8.3701,-2.1045,-4.8914,-0.012,0.0293,0.0011,0.15,-3.15,-180.75,5.7293,7.7045,-1.5107,-0.0288,0.0021,0.0112,-86.25,39.3,-21.15,6.56,0.14,-7.33,-0.0011,0.0,0.0,-24.25,3.25,42.5625,309.8125,42.0,-178.9375,0
1776972327.81,8.4276,-2.0877,-4.8435,-0.0136,0.0258,0.0005,37.5,-3.15,-180.75,5.7006,7.6974,-1.494,-0.0261,0.0037,0.0221,-84.45,37.65,-21.6,6.55,0.14,-7.34,-0.0011,0.0044,0.0011,-24.25,3.25,42.5625,309.8125,42.0,-178.9375,0
1776972327.815,8.43,-2.1213,-4.8363,-0.0125,0.0293,0.0,-0.9,-1.95,-180.3,5.6647,7.7141,-1.4605,-0.0179,0.0011,0.0157,-84.45,37.65,-21.6,6.55,0.14,-7.34,-0.0011,0.0,0.0,-25.0625,3.25,43.0625,309.8125,42.0,-178.9375,0
1776972327.82,8.43,-2.1213,-4.8363,-0.0125,0.0293,0.0,0.3,-3.0,-179.1,5.6647,7.7141,-1.4605,-0.0179,0.0011,0.0157,-84.0,39.3,-21.9,6.55,0.14,-7.31,-0.0011,0.0,0.0,-25.0625,3.25,43.0625,309.8125,42.0,-178.9375,0
1776972327.829,8.43,-2.083,-4.8459,-0.0077,0.0325,0.0016,0.9,-3.45,-180.75,5.6719,7.6614,-1.5754,-0.0282,-0.0069,0.0112,-86.1,40.2,-21.45,6.54,0.11,-7.32,0.0011,-0.0011,0.0,-25.0625,3.25,43.0625,309.8125,42.0,-178.9375,0
1776972327.839,8.4276,-2.0494,-4.8387,-0.0101,0.0314,0.0024,0.9,-2.7,-180.75,5.691,7.6303,-1.5514,-0.0282,-0.0029,0.0104,-85.05,39.9,-22.2,6.55,0.12,-7.34,0.0,0.0022,0.0022,-25.0625,3.25,43.0625,309.8125,42.0,-178.9375,0
1776972327.848,8.4443,-2.0877,-4.8076,-0.0096,0.0264,0.0021,0.9,-2.7,-179.25,5.691,7.6519,-1.5634,-0.032,-0.0027,0.0168,-84.75,39.3,-22.35,6.54,0.14,-7.34,-0.0011,-0.0022,0.0,-25.0625,3.25,43.0625,309.8125,42.0,-178.9375,0
1776972327.853,8.4013,-2.083,-4.8291,-0.0093,0.0293,-0.0011,0.9,-2.7,-179.25,5.6312,7.7596,-1.5395,-0.033,-0.0072,0.0117,-84.75,39.3,-22.35,6.54,0.14,-7.34,-0.0011,-0.0022,0.0,-25.0625,3.25,43.0625,309.8125,42.0,-178.9375,0
1776972327.86,8.4013,-2.083,-4.8291,-0.0093,0.0293,-0.0011,-1.05,-3.75,-180.6,5.6312,7.7596,-1.5395,-0.033,-0.0072,0.0117,-84.75,39.3,-22.35,6.54,0.11,-7.34,0.0,-0.0022,-0.0011,-25.0625,3.25,43.0625,309.8125,42.0,-178.9375,0
1776972327.865,8.4132,-2.0446,-4.8818,-0.0107,0.0298,0.004,-1.05,-3.75,-180.6,5.7078,7.7021,-1.5107,-0.0298,-0.0053,0.0141,-84.75,39.3,-22.35,6.54,0.11,-7.34,0.0,-0.0033,-0.0011,-24.6875,3.25,43.5,309.8125,42.0,-178.9375,0
1776972327.87,8.4132,-2.0446,-4.8818,-0.0107,0.0298,0.004,-0.3,-1.5,-180.6,5.6719,7.7309,-1.5275,-0.0298,-0.0053,0.0141,-86.1,39.0,-21.0,6.55,0.13,-7.33,0.0,-0.0033,-0.0011,-24.6875,3.25,43.5,309.8125,42.0,-178.9375,0
1776972327.879,8.4276,-2.1165,-4.8387,-0.0093,0.0229,0.0011,0.3,-2.55,-180.15,5.6719,7.7309,-1.5275,-0.0288,-0.0051,0.0173,-86.1,39.0,-21.0,6.52,0.11,-7.33,0.0,-0.0033,0.0011,-24.6875,3.25,43.5,309.8125,42.0,-178.9375,0
1776972327.889,8.5042,-2.1117,-4.8243,-0.0064,0.0242,0.0005,-0.15,-3.15,-181.5,5.679,7.6758,-1.5203,-0.0269,-0.008,0.016,-85.2,38.85,-22.65,6.55,0.11,-7.35,0.0011,-0.0044,-0.0022,-24.6875,3.25,43.5,309.8125,42.0,-178.9375,0
1776972327.898,8.4755,-2.1189,-4.7908,-0.0059,0.0328,0.0035,-0.15,-3.15,-181.5,5.6719,7.7692,-1.5658,-0.0272,-0.0059,0.0131,-84.75,38.85,-21.15,6.53,0.13,-7.34,-0.0011,-0.0011,0.0,-24.6875,3.25,43.5,309.8125,42.0,-178.9375,0
1776972327.902,8.406,-2.1093,-4.8219,-0.0064,0.0248,0.0029,0.0,-3.3,-180.9,5.6647,7.6662,-1.4988,-0.0314,-0.0011,0.0184,-84.75,38.85,-21.15,6.53,0.13,-7.34,-0.0011,-0.0011,0.0,-24.6875,3.25,43.5,309.8125,42.0,-178.9375,0
1776972327.91,8.406,-2.1093,-4.8219,-0.0064,0.0248,0.0029,0.0,-3.3,-180.9,5.679,7.6878,-1.4748,-0.0266,-0.0067,0.0149,-85.2,39.6,-22.35,6.53,0.16,-7.33,-0.0022,0.0011,-0.0022,-24.6875,3.25,43.5,309.8125,42.0,-178.9375,0
1776972327.915,8.4156,-2.1308,-4.7908,-0.0101,0.0258,0.0027,0.0,-3.3,-180.9,5.679,7.6878,-1.4748,-0.0266,-0.0067,0.0149,-85.2,39.6,-22.35,6.53,0.16,-7.33,0.0011,0.0,0.0,-24.6875,4.375,42.5625,309.8125,42.0,-178.9375,0
1776972327.92,8.4156,-2.1308,-4.7908,-0.0101,0.0258,0.0027,-0.6,-3.75,-181.65,5.6862,7.6926,-1.5179,-0.0288,-0.0021,0.0152,-86.1,38.7,-21.0,6.54,0.13,-7.31,0.0011,0.0,0.0,-24.6875,4.375,42.5625,309.8125,42.0,-178.9375,0
1776972327.929,8.4013,-2.1356,-4.8459,-0.0104,0.0288,0.0059,0.9,-3.15,-180.75,5.679,7.683,-1.5227,-0.032,-0.0011,0.0165,-85.35,39.45,-21.75,6.53,0.14,-7.31,0.0,0.0022,0.0,-24.6875,4.375,42.5625,309.8125,42.0,-178.9375,0
1776972327.939,8.3749,-2.1739,-4.8171,-0.0152,0.0301,0.0059,0.6,-3.0,-181.95,5.6862,7.7309,-1.5155,-0.04,-0.0008,0.0184,-85.2,39.6,-21.9,6.56,0.13,-7.34,0.0,0.0022,0.0011,-24.6875,4.375,42.5625,309.8125,42.0,-178.9375,0
1776972327.948,8.4372,-2.0949,-4.8507,-0.0131,0.0245,0.0043,-0.3,-2.55,-178.8,5.6431,7.6399,-1.5323,-0.032,-0.004,0.0157,-85.2,39.6,-21.9,6.54,0.14,-7.33,0.0011,0.0044,0.0,-24.6875,4.375,42.5625,309.8125,42.0,-178.9375,0
1776972327.953,8.3965,-2.0925,-4.7932,-0.0109,0.0248,0.0013,-0.3,-2.55,-178.8,5.6431,7.6399,-1.5323,-0.032,-0.004,0.0157,-85.2,39.6,-21.9,6.54,0.14,-7.33,0.0011,0.0044,0.0,-24.6875,4.375,42.5625,309.8125,42.0,-178.9375,0
1776972327.96,8.4491,-2.1069,-4.8722,-0.0125,0.0248,0.0021,-1.2,-3.9,-180.75,5.7197,7.7117,-1.5107,-0.0416,-0.0037,0.0139,-84.6,39.9,-22.5,6.55,0.12,-7.31,-0.0011,0.0033,0.0011,-24.6875,4.375,42.5625,309.8125,42.0,-178.9375,0
1776972327.965,8.4491,-2.1069,-4.8722,-0.0125,0.0248,0.0021,-1.2,-3.9,-180.75,5.7197,7.7117,-1.5107,-0.0416,-0.0037,0.0139,-84.6,39.9,-22.5,6.55,0.12,-7.31,-0.0022,0.0033,-0.0011,-24.25,4.0,42.25,309.8125,42.0,-178.9375,0
1776972327.97,8.4348,-2.15,-4.8052,-0.0107,0.0272,0.0005,-1.2,-3.9,-180.75,5.6575,7.6375,-1.5227,-0.0381,0.0,0.0125,-84.6,39.9,-22.5,6.54,0.14,-7.33,-0.0022,0.0033,-0.0011,-24.25,4.0,42.25,309.8125,42.0,-178.9375,0
1776972327.98,8.3965,-2.1045,-4.8626,-0.0045,0.029,0.0005,0.0,-2.55,-181.65,5.6719,7.7045,-1.5155,-0.0354,0.0027,0.0163,-84.75,40.05,-21.15,6.53,0.12,-7.32,-0.0011,0.0033,0.0011,-24.25,4.0,42.25,309.8125,42.0,-178.9375,0
1776972327.989,8.4611,-2.071,-4.8195,-0.0096,0.0317,0.0027,0.6,-3.75,-180.9,5.6575,7.671,-1.5275,-0.0298,-0.0011,0.0139,-84.6,38.25,-21.75,6.53,0.13,-7.35,0.0,0.0022,-0.0011,-24.25,4.0,42.25,309.8125,42.0,-178.9375,0
1776972327.999,8.3821,-2.0925,-4.9153,-0.0059,0.0309,0.0011,-0.45,-3.15,-181.05,5.7485,7.683,-1.4892,-0.0346,-0.0032,0.0117,-84.75,40.05,-21.15,6.54,0.15,-7.32,0.0,0.0033,-0.0011,-24.25,4.0,42.25,309.8125,42.0,-178.9375,0
1776972328.003,8.3821,-2.0925,-4.9153,-0.0059,0.0309,0.0011,-0.45,-3.15,-181.05,5.7485,7.683,-1.4892,-0.0346,-0.0032,0.0117,-84.75,40.05,-21.15,6.54,0.15,-7.32,0.0,0.0044,-0.0011,-24.25,4.0,42.25,309.8125,42.0,-178.9375,0
1776972328.01,8.3965,-2.1548,-4.7956,-0.008,0.029,0.004,0.45,-2.4,-181.5,5.7102,7.6974,-1.5467,-0.0288,-0.0019,0.0155,-84.75,40.05,-21.6,6.55,0.14,-7.33,0.0,0.0044,-0.0011,-24.25,4.0,42.25,309.8125,42.0,-178.9375,0
1776972328.015,8.3965,-2.1548,-4.7956,-0.008,0.029,0.004,0.45,-2.4,-181.5,5.7174,7.7381,-1.4772,-0.0296,-0.0013,0.0128,-84.75,40.05,-21.6,6.55,0.14,-7.33,-0.0011,0.0022,-0.0022,-24.6875,3.25,44.5625,309.8125,42.0,-178.9375,0
1776972328.02,8.3989,-2.15,-4.8123,-0.0117,0.028,0.0035,0.45,-2.4,-181.5,5.7174,7.7381,-1.4772,-0.0296,-0.0013,0.0128,-86.1,39.45,-21.0,6.53,0.13,-7.33,-0.0011,0.0022,-0.0022,-24.6875,3.25,44.5625,309.8125,42.0,-178.9375,0
1776972328.03,8.4443,-2.1141,-4.8554,-0.0139,0.0333,0.0043,0.45,-2.4,-181.5,5.6743,7.7117,-1.5012,-0.0312,-0.0013,0.0165,-86.7,37.65,-22.65,6.55,0.14,-7.33,0.0,0.0011,-0.0022,-24.6875,3.25,44.5625,309.8125,42.0,-178.9375,0
1776972328.039,8.4276,-2.1404,-4.8363,-0.0107,0.0264,-0.0035,1.2,-1.95,-181.5,5.6767,7.7213,-1.4844,-0.0306,-0.0008,0.0109,-86.7,37.65,-22.65,6.55,0.13,-7.36,-0.0011,0.0,0.0,-24.6875,3.25,44.5625,309.8125,42.0,-178.9375,0
1776972328.048,8.418,-2.1261,-4.8004,-0.012,0.0272,0.0011,-0.6,-1.8,-179.85,5.7102,7.6231,-1.4437,-0.0312,0.0005,0.0149,-84.45,38.85,-22.65,6.55,0.14,-7.3,0.0,0.0011,0.0,-24.6875,3.25,44.5625,309.8125,42.0,-178.9375,0
1776972328.053,8.418,-2.1261,-4.8004,-0.012,0.0272,0.0011,-0.6,-1.8,-179.85,5.7102,7.7189,-1.5012,-0.0312,0.0005,0.0149,-84.45,38.85,-22.65,6.55,0.14,-7.3,0.0,0.0011,0.0,-24.6875,3.25,44.5625,309.8125,42.0,-178.9375,0
1776972328.06,8.4036,-2.1021,-4.853,-0.0091,0.0298,-0.0016,-0.9,-2.7,-180.0,5.7102,7.7189,-1.5012,-0.0301,0.0016,0.0115,-84.45,38.85,-22.65,6.54,0.14,-7.31,-0.0011,0.0011,-0.0011,-24.6875,3.25,44.5625,309.8125,42.0,-178.9375,0
1776972328.065,8.4036,-2.1021,-4.853,-0.0091,0.0298,-0.0016,-0.45,-3.45,-178.95,5.7221,7.7045,-1.5251,-0.0261,-0.0032,0.0133,-84.45,38.85,-22.65,6.54,0.14,-7.31,-0.0011,0.0011,0.0022,-25.0625,3.6875,43.0625,309.8125,42.0,-178.9375,0
1776972328.07,8.4036,-2.0973,-4.8507,-0.0093,0.0306,0.0,-0.45,-3.45,-178.95,5.7221,7.7045,-1.5251,-0.0261,-0.0032,0.0133,-84.6,39.9,-23.25,6.55,0.12,-7.33,-0.0011,0.0011,0.0022,-25.0625,3.6875,43.0625,309.8125,42.0,-178.9375,0
1776972328.08,8.3701,-2.1189,-4.8363,-0.0083,0.0312,0.0013,-0.45,-3.45,-178.95,5.6695,7.6567,-1.4868,-0.0306,0.0013,0.0152,-85.8,37.5,-21.75,6.55,0.11,-7.3,0.0,-0.0022,0.0011,-25.0625,3.6875,43.0625,309.8125,42.0,-178.9375,0
1776972328.09,8.3582,-2.1404,-4.7597,-0.0085,0.0314,0.0021,0.6,-3.0,-180.6,5.6886,7.7069,-1.5179,-0.0216,-0.0005,0.0125,-84.6,40.2,-22.2,6.53,0.13,-7.31,-0.0011,-0.0011,-0.0022,-25.0625,3.6875,43.0625,309.8125,42.0,-178.9375,0
1776972328.099,8.3773,-2.15,-4.81,-0.0139,0.0336,0.0021,0.15,-2.4,-181.5,5.6551,7.683,-1.494,-0.0368,-0.0037,0.0163,-84.6,40.2,-22.2,6.54,0.12,-7.35,-0.0022,0.0,0.0,-25.0625,3.6875,43.0625,309.8125,42.0,-178.9375,0
1776972328.103,8.3773,-2.15,-4.81,-0.0139,0.0336,0.0021,0.15,-2.4,-181.5,5.6814,7.6447,-1.506,-0.0282,-0.0029,0.0176,-85.5,39.6,-21.9,6.54,0.12,-7.35,-0.0022,0.0,0.0,-25.0625,3.6875,43.0625,309.8125,42.0,-178.9375,0
1776972328.11,8.4443,-2.1356,-4.8267,-0.0123,0.0288,0.0024,-1.35,-3.0,-180.9,5.7221,7.7069,-1.5155,-0.0282,-0.0029,0.0176,-84.6,38.25,-21.45,6.54,0.12,-7.32,0.0,-0.0022,-0.0022,-25.0625,3.6875,43.0625,309.8125,42.0,-178.9375,0
1776972328.115,8.4084,-2.0853,-4.8435,-0.0109,0.0325,0.0051,-1.2,-1.95,-181.5,5.7221,7.7069,-1.5155,-0.032,0.0013,0.0093,-84.6,38.25,-21.45,6.54,0.12,-7.32,-0.0011,-0.0022,0.0,-25.0625,3.25,43.75,309.8125,42.0,-178.9375,0
1776972328.121,8.4084,-2.0853,-4.8435,-0.0109,0.0325,0.0051,-1.2,-1.95,-181.5,5.6551,7.6878,-1.4724,-0.0373,0.0013,0.0181,-83.4,38.25,-20.7,6.55,0.13,-7.31,-0.0011,-0.0022,0.0,-25.0625,3.25,43.75,309.8125,42.0,-178.9375,0
1776972328.13,8.4324,-2.0566,-4.8339,-0.0117,0.0312,0.0024,0.9,-3.9,-180.3,5.6743,7.6782,-1.5443,-0.0373,0.0013,0.0181,-83.4,38.25,-20.7,6.55,0.12,-7.31,0.0011,-0.0044,-0.0011,-25.0625,3.25,43.75,309.8125,42.0,-178.9375,0
1776972328.139,8.3965,-2.1332,-4.8028,-0.0139,0.0288,0.0005,0.9,-3.9,-180.3,5.6336,7.6734,-1.494,-0.0304,-0.0029,0.0168,-85.05,39.0,-21.0,6.52,0.13,-7.35,0.0,-0.0044,0.0,-25.0625,3.25,43.75,309.8125,42.0,-178.9375,0
1776972328.148,8.4755,-2.0638,-4.7764,-0.0085,0.0333,0.0011,-0.15,-3.45,-181.05,5.6336,7.6734,-1.494,-0.0285,0.0003,0.0147,-85.05,39.0,-21.0,6.54,0.13,-7.3,-0.0022,-0.0022,0.0,-25.0625,3.25,43.75,309.8125,42.0,-178.9375,0
1776972328.153,8.4755,-2.1141,-4.8459,-0.0064,0.0314,-0.0005,-0.15,-3.45,-181.05,5.636,7.6806,-1.5275,-0.0261,0.0005,0.0144,-85.05,39.0,-21.0,6.54,0.13,-7.3,-0.0022,-0.0022,0.0,-25.0625,3.25,43.75,309.8125,42.0,-178.9375,0
1776972328.16,8.4755,-2.1141,-4.8459,-0.0064,0.0314,-0.0005,-0.3,-2.55,-180.15,5.703,7.6351,-1.5275,-0.0248,0.0005,0.0165,-85.5,38.85,-21.9,6.53,0.12,-7.32,-0.0022,-0.0011,0.0,-25.0625,3.25,43.75,309.8125,42.0,-178.9375,0
1776972328.165,8.3869,-2.071,-4.8147,-0.0091,0.0274,-0.0019,-0.3,-2.55,-179.55,5.703,7.6351,-1.5275,-0.0248,0.0005,0.0165,-85.5,38.85,-21.9,6.53,0.12,-7.32,0.0011,0.0022,0.0011,-25.5,4.0,43.0625,309.8125,42.0,-178.9375,0
1776972328.171,8.3869,-2.071,-4.8147,-0.0091,0.0274,-0.0019,-0.3,-2.55,-179.55,5.6455,7.7261,-1.4509,-0.0277,0.0003,0.0184,-83.7,39.3,-22.35,6.54,0.13,-7.3,0.0011,0.0022,0.0011,-25.5,4.0,43.0625,309.8125,42.0,-178.9375,0
1776972328.18,8.3941,-2.1213,-4.798,-0.0117,0.0261,0.0053,0.15,-2.7,-181.05,5.6934,7.6399,-1.5371,-0.0266,-0.0053,0.0112,-84.75,39.6,-20.55,6.55,0.14,-7.31,0.0,0.0011,-0.0022,-25.5,4.0,43.0625,309.8125,42.0,-178.9375,0
1776972328.19,8.3965,-2.1141,-4.8171,-0.0101,0.0258,0.0021,-0.3,-1.05,-181.65,5.691,7.6758,-1.5179,-0.0349,-0.0032,0.0147,-84.15,39.0,-22.5,6.54,0.11,-7.34,-0.0011,0.0011,-0.0022,-25.5,4.0,43.0625,309.8125,42.0,-178.9375,0
1776972328.198,8.3941,-2.0446,-4.7956,-0.0117,0.032,0.0016,-0.3,-1.05,-181.65,5.6862,7.683,-1.4557,-0.0306,0.0013,0.0163,-84.15,39.0,-22.5,6.53,0.12,-7.36,-0.0022,0.0,0.0,-25.5,4.0,43.0625,309.8125,42.0,-178.9375,0
1776972328.203,8.4515,-2.1524,-4.8315,-0.0131,0.0333,0.0005,0.15,-2.4,-180.3,5.6862,7.683,-1.4557,-0.0306,0.0013,0.0163,-85.35,37.5,-21.45,6.53,0.12,-7.36,-0.0022,0.0,0.0,-25.5,4.0,43.0625,309.8125,42.0,-178.9375,0
1776972328.211,8.406,-2.1045,-4.8387,-0.0149,0.0282,0.004,0.15,-2.4,-180.3,5.5785,7.7141,-1.47,-0.0282,0.0003,0.0157,-85.35,38.25,-21.75,6.53,0.13,-7.33,-0.0022,0.0,-0.0011,-25.5,4.0,43.0625,309.8125,42.0,-178.9375,0
1776972328.216,8.406,-2.1045,-4.8387,-0.0149,0.0282,0.004,0.3,-2.25,-182.4,5.5785,7.7141,-1.47,-0.0282,0.0003,0.0157,-85.35,38.25,-21.75,6.53,0.13,-7.33,0.0,0.0011,-0.0011,-24.6875,2.875,43.0625,309.8125,42.0,-178.9375,0
1776972328.221,8.4132,-2.1021,-4.7645,-0.0117,0.028,0.0019,0.3,-2.25,-182.4,5.6288,7.6854,-1.5514,-0.0309,-0.0059,0.0184,-85.35,38.25,-21.75,6.57,0.15,-7.3,0.0,0.0011,-0.0011,-24.6875,2.875,43.0625,309.8125,42.0,-178.9375,0
1776972328.23,8.4084,-2.1045,-4.8363,-0.0107,0.0328,0.0035,-0.15,-3.45,-180.75,5.6982,7.6734,-1.5658,-0.029,-0.0003,0.0181,-86.25,38.55,-21.15,6.55,0.11,-7.32,0.0,0.0022,0.0,-24.6875,2.875,43.0625,309.8125,42.0,-178.9375,0
1776972328.24,8.4084,-2.1476,-4.8219,-0.0077,0.0285,-0.0013,-0.45,-3.45,-181.5,5.6958,7.6878,-1.5275,-0.0349,-0.0011,0.0144,-86.25,38.55,-21.15,6.54,0.13,-7.34,-0.0011,0.0011,0.0,-24.6875,2.875,43.0625,309.8125,42.0,-178.9375,0
1776972328.249,8.4084,-2.1476,-4.8219,-0.0077,0.0285,-0.0013,-0.45,-3.45,-181.5,5.6575,7.6902,-1.5275,-0.0216,-0.0016,0.0181,-86.25,38.55,-21.15,6.52,0.11,-7.32,0.0,-0.0033,0.0,-24.6875,2.875,43.0625,309.8125,42.0,-178.9375,0
1776972328.254,8.4803,-2.1237,-4.8578,-0.0077,0.0314,0.0011,-0.45,-3.45,-181.5,5.6575,7.6902,-1.5275,-0.0216,-0.0016,0.0181,-85.35,39.45,-21.45,6.52,0.11,-7.32,0.0,-0.0033,0.0,-24.6875,2.875,43.0625,309.8125,42.0,-178.9375,0
1776972328.261,8.4659,-2.1045,-4.8411,-0.0104,0.0282,-0.0016,-0.45,-3.45,-181.5,5.7006,7.6758,-1.5778,-0.0277,-0.0013,0.0109,-83.85,38.7,-21.45,6.54,0.11,-7.34,-0.0022,-0.0011,-0.0022,-24.6875,2.875,43.0625,309.8125,42.0,-178.9375,0
1776972328.266,8.4659,-2.1045,-4.8411,-0.0104,0.0282,-0.0016,-1.2,-3.15,-181.8,5.6719,7.7357,-1.549,-0.0272,0.0005,0.012,-83.85,38.7,-21.45,6.54,0.11,-7.34,0.0011,-0.0011,0.0011,-24.6875,3.25,42.25,309.8125,42.0,-178.9375,0
1776972328.271,8.4443,-2.1308,-4.7812,-0.0139,0.0304,0.0005,-1.2,-3.15,-181.8,5.6719,7.7357,-1.549,-0.0272,0.0005,0.012,-84.75,39.3,-21.9,6.54,0.11,-7.32,0.0011,-0.0011,0.0011,-24.6875,3.25,42.25,309.8125,42.0,-178.9375,0
1776972328.28,8.442,-2.1069,-4.8076,-0.0136,0.0242,0.0,-0.3,-3.3,-180.6,5.6958,7.7069,-1.5347,-0.0253,-0.0067,0.0163,-84.75,39.3,-21.9,6.53,0.11,-7.32,-0.0011,0.0,0.0,-24.6875,3.25,42.25,309.8125,42.0,-178.9375,0
1776972328.29,8.4108,-2.0734,-4.8339,-0.0085,0.0325,0.0024,-0.3,-1.5,-181.95,5.7221,7.6591,-1.5227,-0.0309,-0.004,0.0136,-85.8,38.7,-21.75,6.54,0.12,-7.33,-0.0011,0.0022,-0.0011,-24.6875,3.25,42.25,309.8125,42.0,-178.9375,0
1776972328.299,8.3869,-2.071,-4.7956,-0.0152,0.0298,0.0067,0.0,-4.05,-181.2,5.7197,7.6806,-1.5227,-0.033,-0.0056,0.0149,-84.75,38.1,-21.9,6.54,0.1,-7.35,-0.0011,0.0011,0.0,-24.6875,3.25,42.25,309.8125,42.0,-178.9375,0
1776972328.304,8.3869,-2.071,-4.7956,-0.0152,0.0298,0.0067,0.0,-4.05,-181.2,5.691,7.6854,-1.4844,-0.0325,-0.0013,0.0147,-85.5,39.3,-20.55,6.54,0.1,-7.35,-0.0011,0.0011,0.0,-24.6875,3.25,42.25,309.8125,42.0,-178.9375,0
1776972328.311,8.3629,-2.1428,-4.7932,-0.0096,0.0352,-0.0011,0.0,-4.05,-181.2,5.691,7.6854,-1.4844,-0.0325,-0.0013,0.0147,-85.5,39.3,-20.55,6.53,0.13,-7.33,0.0,0.0011,0.0,-24.6875,3.25,42.25,309.8125,42.0,-178.9375,0
1776972328.316,8.3629,-2.1428,-4.7932,-0.0096,0.0352,-0.0011,0.6,-3.3,-181.65,5.6958,7.7117,-1.5179,-0.0293,-0.0029,0.0157,-85.5,39.3,-20.55,6.53,0.13,-7.33,-0.0022,0.0033,-0.0011,-24.6875,3.6875,43.5,309.8125,42.0,-178.9375,0
1776972328.321,8.4515,-2.0925,-4.7956,-0.0125,0.0309,0.0043,-1.2,-4.2,-181.5,5.6958,7.7117,-1.5179,-0.0293,-0.0029,0.0157,-84.45,38.55,-22.35,6.54,0.13,-7.3,-0.0022,0.0033,-0.0011,-24.6875,3.6875,43.5,309.8125,42.0,-178.9375,0
1776972328.33,8.4396,-2.0997,-4.8363,-0.0077,0.0312,0.0024,-0.15,-4.2,-181.5,5.6719,7.695,-1.4988,-0.0309,-0.0059,0.0144,-84.45,38.55,-22.35,6.55,0.13,-7.33,-0.0022,0.0033,-0.0011,-24.6875,3.6875,43.5,309.8125,42.0,-178.9375,0
1776972328.34,8.4252,-2.1308,-4.8147,-0.0125,0.0296,0.0043,-0.15,-3.9,-180.3,5.7221,7.6926,-1.5107,-0.0304,-0.0016,0.0128,-84.45,38.55,-22.35,6.53,0.14,-7.33,-0.0011,0.0033,0.0,-24.6875,3.6875,43.5,309.8125,42.0,-178.9375,0
1776972328.349,8.3629,-2.15,-4.8626,-0.0067,0.0325,0.0059,-0.15,-1.95,-178.95,5.6886,7.7117,-1.4581,-0.0266,-0.0008,0.0107,-85.8,39.9,-22.2,6.54,0.14,-7.32,-0.0011,0.0022,-0.0011,-24.6875,3.6875,43.5,309.8125,42.0,-178.9375,0
1776972328.355,8.3629,-2.15,-4.8626,-0.0067,0.0325,0.0059,-1.35,-2.55,-181.2,5.6336,7.6878,-1.5083,-0.0306,0.0,0.0149,-85.5,38.55,-21.9,6.54,0.14,-7.32,-0.0011,-0.0011,0.0011,-24.6875,3.6875,43.5,309.8125,42.0,-178.9375,0
1776972328.361,8.442,-2.0399,-4.8243,-0.008,0.0296,0.0029,-1.35,-2.55,-181.2,5.679,7.7093,-1.4796,-0.0309,0.0035,0.0115,-85.8,39.9,-21.0,6.54,0.15,-7.31,-0.0011,-0.0011,0.0011,-24.6875,3.6875,43.5,309.8125,42.0,-178.9375,0
1776972328.366,8.442,-2.1117,-4.7692,-0.0077,0.0336,0.004,-1.35,-2.55,-181.2,5.679,7.7093,-1.4796,-0.0309,0.0035,0.0115,-85.8,39.9,-21.0,6.54,0.15,-7.31,0.0,-0.0011,-0.0011,-24.25,3.25,43.75,309.8125,42.0,-178.9375,0
1776972328.371,8.442,-2.1117,-4.7692,-0.0077,0.0336,0.004,0.0,-2.25,-181.2,5.6838,7.6782,-1.5323,-0.0285,-0.0013,0.02,-83.7,39.3,-22.65,6.56,0.13,-7.32,0.0,-0.0011,-0.0011,-24.25,3.25,43.75,309.8125,42.0,-178.9375,0
1776972328.38,8.4348,-2.138,-4.8147,-0.0072,0.0322,0.0045,-1.5,-4.65,-181.05,5.6407,7.7213,-1.5275,-0.0352,-0.0013,0.0125,-83.7,39.3,-22.65,6.54,0.14,-7.35,-0.0011,-0.0011,-0.0011,-24.25,3.25,43.75,309.8125,42.0,-178.9375,0
1776972328.39,8.406,-2.1835,-4.8171,-0.0064,0.0285,0.0019,-0.15,-3.45,-181.5,5.7317,7.6878,-1.5203,-0.0336,-0.0048,0.0112,-85.8,39.0,-21.75,6.54,0.13,-7.35,-0.0011,0.0011,0.0011,-24.25,3.25,43.75,309.8125,42.0,-178.9375,0
1776972328.399,8.4276,-2.1524,-4.8267,-0.0152,0.0304,0.0021,-0.15,-3.45,-181.5,5.6862,7.7213,-1.4317,-0.0336,-0.0048,0.0112,-85.2,39.6,-21.6,6.53,0.14,-7.35,0.0,-0.0044,-0.0022,-24.25,3.25,43.75,309.8125,42.0,-178.9375,0
1776972328.404,8.4276,-2.1524,-4.8267,-0.0152,0.0304,0.0021,-0.3,-2.55,-180.6,5.6862,7.7213,-1.4317,-0.0341,-0.0021,0.0173,-85.2,39.6,-21.6,6.53,0.14,-7.35,0.0,-0.0044,-0.0022,-24.25,3.25,43.75,309.8125,42.0,-178.9375,0
1776972328.411,8.418,-2.0782,-4.8411,-0.0131,0.0322,0.0005,-1.05,-2.25,-179.55,5.6814,7.6902,-1.4389,-0.0301,-0.0019,0.0163,-85.2,39.6,-21.6,6.53,0.15,-7.32,0.0,-0.0033,0.0011,-24.25,3.25,43.75,309.8125,42.0,-178.9375,0
1776972328.416,8.4132,-2.1428,-4.8195,-0.0139,0.0296,0.0029,-1.05,-2.25,-179.55,5.6814,7.6902,-1.4389,-0.0301,-0.0019,0.0163,-85.05,38.7,-21.75,6.53,0.15,-7.32,0.0,0.0044,-0.0022,-24.6875,3.25,42.5625,309.8125,42.0,-178.9375,0
1776972328.421,8.4132,-2.1428,-4.8195,-0.0139,0.0296,0.0029,-1.05,-2.25,-179.55,5.7054,7.7309,-1.5227,-0.0269,0.0024,0.0147,-85.05,38.7,-21.75,6.54,0.12,-7.31,0.0,0.0044,-0.0022,-24.6875,3.25,42.5625,309.8125,42.0,-178.9375,0
1776972328.431,8.3701,-2.162,-4.8171,-0.016,0.0328,-0.0005,-0.6,-3.0,-180.9,5.6862,7.7859,-1.4964,-0.0237,-0.0008,0.0168,-85.05,38.7,-21.75,6.54,0.12,-7.35,-0.0022,0.0033,0.0,-24.6875,3.25,42.5625,309.8125,42.0,-178.9375,0
1776972328.44,8.4228,-2.1261,-4.8674,-0.0128,0.0282,0.0008,-1.2,-3.15,-180.3,5.6767,7.6184,-1.494,-0.0179,-0.0043,0.0104,-85.05,38.7,-22.5,6.54,0.13,-7.35,-0.0022,0.0022,0.0,-24.6875,3.25,42.5625,309.8125,42.0,-178.9375,0
1776972328.449,8.3749,-2.0925,-4.8387,-0.008,0.0261,0.0013,0.9,-2.7,-181.8,5.7437,7.7141,-1.4796,-0.0232,0.0005,0.0117,-83.85,37.5,-19.95,6.56,0.11,-7.33,0.0,0.0022,0.0,-24.6875,3.25,42.5625,309.8125,42.0,-178.9375,0
1776972328.454,8.3558,-2.0566,-4.8171,-0.0093,0.0256,-0.0005,0.9,-2.7,-181.8,5.7437,7.7141,-1.4796,-0.0232,0.0005,0.0117,-85.95,39.6,-22.65,6.56,0.11,-7.33,0.0,0.0022,0.0,-24.6875,3.25,42.5625,309.8125,42.0,-178.9375,0
1776972328.461,8.3558,-2.0566,-4.8171,-0.0093,0.0256,-0.0005,0.45,-2.7,-179.25,5.6838,7.695,-1.4796,-0.0242,-0.0019,0.0147,-85.95,39.6,-22.65,6.55,0.16,-7.34,-0.0011,0.0,0.0,-24.6875,3.25,42.5625,309.8125,42.0,-178.9375,0
1776972328.466,8.4204,-2.1261,-4.8052,-0.0088,0.0258,0.0016,0.45,-2.7,-179.25,5.6599,7.7333,-1.494,-0.0242,-0.0019,0.0147,-85.5,38.55,-23.1,6.55,0.16,-7.34,0.0011,-0.0022,0.0,-24.25,3.6875,43.0625,309.8125,42.0,-178.9375,0
1776972328.471,8.4204,-2.1261,-4.8052,-0.0088,0.0258,0.0016,-0.9,-3.9,-180.75,5.6599,7.7333,-1.494,-0.0293,-0.0053,0.0107,-85.5,38.55,-23.1,6.54,0.12,-7.34,0.0011,-0.0022,0.0,-24.25,3.6875,43.0625,309.8125,42.0,-178.9375,0
1776972328.481,8.3869,-2.1117,-4.8363,-0.008,0.028,0.0037,-0.9,-3.9,-180.75,5.715,7.671,-1.5036,-0.0229,-0.0019,0.0096,-85.95,37.65,-22.35,6.54,0.12,-7.32,-0.0011,-0.0044,0.0,-24.25,3.6875,43.0625,309.8125,42.0,-178.9375,0
1776972328.49,8.4013,-2.1213,-4.7645,-0.0107,0.0288,0.0037,-0.45,-3.15,-181.5,5.7006,7.7213,-1.506,-0.0354,-0.0008,0.0144,-85.5,38.1,-21.6,6.55,0.14,-7.32,0.0011,0.0022,0.0011,-24.25,3.6875,43.0625,309.8125,42.0,-178.9375,0
1776972328.499,8.3869,-2.0973,-4.8626,-0.0093,0.0312,0.0013,1.05,-4.5,-180.15,5.6623,7.7309,-1.5179,-0.0325,0.0035,0.0152,-85.5,38.1,-21.6,6.53,0.11,-7.35,0.0,-0.0022,-0.0011,-24.25,3.6875,43.0625,309.8125,42.0,-178.9375,0
1776972328.504,8.3653,-2.1356,-4.853,-0.0211,0.0285,0.0,1.05,-4.5,-180.15,5.7652,7.7428,-1.5036,-0.0325,0.0035,0.0152,-85.35,38.25,-21.45,6.53,0.11,-7.35,0.0,-0.0022,-0.0011,-24.25,3.6875,43.0625,309.8125,42.0,-178.9375,0
1776972328.512,8.4108,-2.162,-4.8578,-0.0117,0.0274,-0.0032,0.45,-2.7,-180.75,5.7652,7.7428,-1.5036,-0.0234,-0.0043,0.0136,-85.35,38.25,-21.45,6.56,0.13,-7.34,0.0,-0.0022,0.0,-24.25,3.6875,43.0625,309.8125,42.0,-178.9375,0
1776972328.516,8.4108,-2.162,-4.8578,-0.0117,0.0274,-0.0032,0.45,-2.7,-180.75,5.691,7.7357,-1.5083,-0.0237,0.0035,0.0128,-85.35,38.25,-21.45,6.56,0.13,-7.34,-0.0011,-0.0022,0.0011,-25.0625,2.5625,41.5,309.8125,42.0,-178.9375,0
1776972328.522,8.4036,-2.0877,-4.8507,-0.0112,0.028,-0.0019,-0.3,-1.8,-179.85,5.691,7.7357,-1.5083,-0.0237,0.0035,0.0128,-85.35,38.25,-21.45,6.54,0.12,-7.32,-0.0011,-0.0022,0.0011,-25.0625,2.5625,41.5,309.8125,42.0,-178.9375,0
1776972328.531,8.3941,-2.1715,-4.865,-0.0144,0.0264,-0.0064,-0.3,-1.8,-179.85,5.7341,7.7117,-1.5012,-0.0189,-0.0016,0.0109,-83.4,39.9,-22.2,6.52,0.14,-7.34,-0.0011,-0.0055,0.0,-25.0625,2.5625,41.5,309.8125,42.0,-178.9375,0
1776972328.541,8.406,-2.0997,-4.853,-0.0088,0.0328,0.0061,-0.3,-1.8,-179.85,5.7197,7.6758,-1.5107,-0.024,-0.0059,0.0147,-85.8,38.7,-22.5,6.54,0.14,-7.33,0.0,-0.0011,-0.0022,-25.0625,2.5625,41.5,309.8125,42.0,-178.9375,0
1776972328.55,8.3965,-2.0949,-4.7908,-0.0099,0.0328,0.0019,-1.05,-3.75,-180.9,5.636,7.6686,-1.506,-0.024,-0.0061,0.0179,-85.05,39.0,-21.0,6.54,0.12,-7.33,0.0011,-0.0022,0.0011,-25.0625,2.5625,41.5,309.8125,42.0,-178.9375,0
1776972328.554,8.3965,-2.0949,-4.7908,-0.0099,0.0328,0.0019,-1.05,-3.75,-180.9,5.6671,7.6519,-1.5586,-0.0266,-0.0064,0.0144,-84.15,38.7,-22.95,6.54,0.12,-7.33,0.0011,-0.0022,0.0011,-25.0625,2.5625,41.5,309.8125,42.0,-178.9375,0
1776972328.561,8.4779,-2.0351,-4.8267,-0.0117,0.0338,0.0061,0.45,-1.95,-180.0,5.6671,7.6519,-1.5586,-0.0266,-0.0064,0.0144,-84.15,38.7,-22.95,6.55,0.12,-7.31,-0.0011,-0.0033,0.0,-25.0625,2.5625,41.5,309.8125,42.0,-178.9375,0
1776972328.566,8.4779,-2.0351,-4.8267,-0.0117,0.0338,0.0061,1.35,-2.55,-181.65,5.6862,7.7165,-1.5299,-0.0386,-0.0107,0.0155,-85.5,38.85,-21.9,6.55,0.12,-7.31,0.0,-0.0065,-0.0022,-24.6875,3.25,42.5625,309.8125,42.0,-178.9375,0
1776972328.572,8.4084,-2.0566,-4.8219,-0.012,0.0312,0.0011,1.35,-2.55,-181.65,5.6743,7.7117,-1.5395,-0.0386,-0.0107,0.0155,-85.5,38.85,-21.9,6.53,0.13,-7.32,0.0,-0.0065,-0.0022,-24.6875,3.25,42.5625,309.8125,42.0,-178.9375,0
1776972328.581,8.442,-2.0566,-4.7645,-0.0077,0.0304,0.0035,-1.05,-2.55,-179.1,5.5785,7.7812,-1.5826,-0.0357,-0.0029,0.0155,-85.95,38.1,-23.4,6.54,0.1,-7.34,0.0011,-0.0044,-0.0011,-24.6875,3.25,42.5625,309.8125,42.0,-178.9375,0
1776972328.591,8.4707,-2.0853,-4.7669,-0.0072,0.0264,0.0024,-1.05,-2.55,-179.1,5.6695,7.7141,-1.5395,-0.0322,-0.0093,0.0128,-85.95,38.1,-23.4,6.54,0.11,-7.34,0.0,-0.0022,0.0011,-24.6875,3.25,42.5625,309.8125,42.0,-178.9375,0
1776972328.6,8.521,-2.0949,-4.7357,-0.0059,0.0309,0.0059,0.6,-1.8,-180.6,5.6695,7.7141,-1.5395,-0.0314,-0.0072,0.02,-85.95,38.55,-21.9,6.53,0.13,-7.36,-0.0011,-0.0011,-0.0011,-24.6875,3.25,42.5625,309.8125,42.0,-178.9375,0
1776972328.605,8.521,-2.0949,-4.7357,-0.0059,0.0309,0.0059,0.6,-1.8,-180.6,5.624,7.6878,-1.5443,-0.0266,-0.0056,0.0131,-85.95,38.55,-21.9,6.53,0.13,-7.36,-0.0011,-0.0011,-0.0011,-24.6875,3.25,42.5625,309.8125,42.0,-178.9375,0
1776972328.612,8.4874,-2.0566,-4.7381,-0.0032,0.0264,0.0045,-0.3,-3.3,-179.1,5.6431,7.7452,-1.5706,-0.0285,-0.0045,0.0147,-85.95,38.55,-21.9,6.53,0.13,-7.33,-0.0011,0.0,-0.0011,-24.6875,3.25,42.5625,309.8125,42.0,-178.9375,0
1776972328.617,8.4874,-2.0566,-4.7381,-0.0032,0.0264,0.0045,0.3,-3.0,-180.9,5.6431,7.7452,-1.5706,-0.0285,-0.0045,0.0147,-85.2,39.3,-22.35,6.53,0.13,-7.33,-0.0022,0.0011,-0.0011,-24.6875,3.25,42.5625,309.8125,42.0,-178.9375,0
1776972328.622,8.4467,-2.2314,-4.7621,-0.0048,0.0242,0.0061,0.3,-3.0,-180.9,5.7174,7.6686,-1.5083,-0.0269,-0.0045,0.0131,-85.2,39.3,-22.35,6.53,0.13,-7.31,-0.0022,0.0011,-0.0011,-24.6875,3.25,42.5625,309.8125,42.0,-178.9375,0
1776972328.631,8.4635,-2.1452,-4.8004,-0.0104,0.024,0.0037,-1.35,-4.05,-180.6,5.6886,7.6806,-1.5778,-0.0261,-0.0043,0.0192,-85.5,38.55,-20.85,6.52,0.14,-7.32,-0.0022,0.0055,0.0,-24.6875,3.25,42.5625,309.8125,42.0,-178.9375,0
1776972328.641,8.4348,-2.0806,-4.7477,-0.0155,0.02,0.0064,0.3,-1.8,-180.9,5.6838,7.671,-1.5395,-0.0346,-0.0005,0.0189,-84.0,39.6,-22.35,6.53,0.14,-7.36,-0.0011,0.0033,-0.0011,-24.6875,3.25,42.5625,309.8125,42.0,-178.9375,0
1776972328.651,8.3941,-2.0997,-4.7597,-0.0165,0.02,0.0072,0.3,-1.8,-180.9,5.6455,7.6567,-1.5514,-0.0397,-0.0043,0.0179,-85.35,39.9,-22.5,6.55,0.13,-7.32,-0.0011,0.0055,0.0011,-24.6875,3.25,42.5625,309.8125,42.0,-178.9375,0
1776972328.659,8.3941,-2.0973,-4.81,-0.0149,0.0277,0.0035,0.0,-2.55,-180.15,5.7078,7.6614,-1.5802,-0.0418,-0.0032,0.0152,-84.15,38.7,-22.5,6.53,0.14,-7.34,-0.0022,0.0076,0.0,-24.6875,3.25,42.5625,309.8125,42.0,-178.9375,0
1776972328.664,8.3941,-2.0973,-4.81,-0.0149,0.0277,0.0035,0.0,-2.55,-180.15,5.7078,7.6614,-1.5802,-0.0418,-0.0032,0.0152,-84.15,38.7,-22.5,6.53,0.14,-7.34,-0.0022,0.0076,0.0,-24.6875,3.25,42.5625,309.8125,42.0,-178.9375,0
1776972328.668,8.3103,-2.059,-4.8435,-0.0107,0.0224,0.0051,0.9,-3.45,-180.75,5.6982,7.6782,-1.5538,-0.0432,0.0005,0.0147,-84.6,39.45,-21.0,6.54,0.12,-7.32,-0.0011,0.0098,0.0022,-24.0,3.6875,43.75,309.8125,42.0,-178.9375,0
1776972328.673,8.3103,-2.059,-4.8435,-0.0107,0.0224,0.0051,0.9,-3.45,-180.75,5.6982,7.6782,-1.5538,-0.0432,0.0005,0.0147,-84.6,39.45,-21.0,6.54,0.12,-7.32,-0.0011,0.0098,0.0022,-24.0,3.6875,43.75,309.8125,42.0,-178.9375,0
1776972328.682,8.43,-2.0542,-4.9105,-0.0112,0.0296,0.0016,-1.5,-3.15,-180.0,5.691,7.6854,-1.4796,-0.0426,0.0,0.0197,-84.6,39.45,-21.0,6.54,0.13,-7.34,-0.0022,0.0109,0.0011,-24.0,3.6875,43.75,309.8125,42.0,-178.9375,0
1776972328.691,8.3534,-2.138,-4.8052,-0.0051,0.025,0.004,0.0,-3.0,-181.2,5.7102,7.6758,-1.5538,-0.0416,-0.0067,0.0149,-85.8,39.45,-21.45,6.55,0.11,-7.33,0.0,0.0044,-0.0011,-24.0,3.6875,43.75,309.8125,42.0,-178.9375,0
1776972328.701,8.4467,-2.0758,-4.8698,-0.0069,0.0264,0.0032,0.6,-3.0,-181.65,5.7245,7.6088,-1.5371,-0.0325,-0.0045,0.0218,-85.8,39.45,-21.45,6.56,0.12,-7.32,0.0,0.0065,-0.0022,-24.0,3.6875,43.75,309.8125,42.0,-178.9375,0
1776972328.71,8.43,-2.0686,-4.8028,-0.0024,0.032,0.0021,0.6,-3.0,-181.65,5.5929,7.6734,-1.5203,-0.032,-0.0035,0.0197,-85.2,39.6,-21.6,6.54,0.13,-7.3,0.0,0.0,0.0,-24.0,3.6875,43.75,309.8125,42.0,-178.9375,0
1776972328.714,8.4348,-2.0686,-4.7836,-0.0083,0.0266,0.0021,0.15,-2.4,-180.75,5.5929,7.6734,-1.5203,-0.032,-0.0035,0.0197,-85.2,39.6,-21.6,6.54,0.13,-7.3,0.0,0.0,0.0,-24.25,3.6875,43.5,309.8125,42.0,-178.9375,0
1776972328.722,8.4348,-2.0686,-4.7836,-0.0083,0.0266,0.0021,0.15,-2.4,-180.75,5.7102,7.683,-1.5395,-0.0376,-0.0021,0.0149,-85.35,38.25,-21.0,6.55,0.11,-7.31,-0.0011,0.0011,0.0,-24.25,3.6875,43.5,309.8125,42.0,-178.9375,0
1776972328.731,8.4013,-2.1237,-4.8291,-0.0109,0.0282,0.0037,0.6,-3.75,-180.6,5.679,7.6447,-1.5419,-0.0325,0.0008,0.0192,-84.45,40.05,-21.9,6.55,0.13,-7.31,0.0011,0.0022,-0.0022,-24.25,3.6875,43.5,309.8125,42.0,-178.9375,0
1776972328.741,8.3749,-2.0949,-4.8028,-0.0141,0.0309,0.0048,1.5,-3.9,-181.05,5.7006,7.6878,-1.5131,-0.0325,-0.0003,0.0224,-85.35,39.0,-22.2,6.55,0.13,-7.32,-0.0011,0.0022,0.0,-24.25,3.6875,43.5,309.8125,42.0,-178.9375,0
1776972328.749,8.4013,-2.1165,-4.7884,-0.0133,0.0298,0.0077,-0.15,-2.4,-179.7,5.7102,7.671,-1.5467,-0.0389,-0.0003,0.0152,-83.4,38.25,-21.45,6.54,0.14,-7.32,0.0,0.0,0.0011,-24.25,3.6875,43.5,309.8125,42.0,-178.9375,0
1776972328.754,8.3821,-2.0925,-4.8147,-0.012,0.0288,0.0008,-0.15,-2.4,-179.7,5.7102,7.7333,-1.482,-0.0389,-0.0003,0.0152,-83.4,38.25,-21.45,6.54,0.14,-7.32,0.0,0.0,0.0011,-24.25,3.6875,43.5,309.8125,42.0,-178.9375,0
1776972328.762,8.3821,-2.0925,-4.8147,-0.012,0.0288,0.0008,-0.15,-2.4,-179.7,5.7102,7.7333,-1.482,-0.041,-0.0011,0.0131,-85.35,39.0,-21.0,6.52,0.15,-7.3,0.0,0.0044,0.0,-24.25,3.6875,43.5,309.8125,42.0,-178.9375,0
1776972328.767,8.3965,-2.138,-4.81,-0.0131,0.0314,0.008,-0.15,-2.4,-179.7,5.7126,7.6088,-1.5155,-0.033,-0.0016,0.0147,-85.35,39.0,-21.0,6.52,0.15,-7.3,0.0,0.0011,-0.0011,-24.25,4.375,43.75,309.8125,42.0,-178.9375,0
1776972328.772,8.3965,-2.0973,-4.8554,-0.0123,0.0293,0.0043,-0.15,-2.4,-179.7,5.7126,7.6088,-1.5155,-0.033,-0.0016,0.0147,-85.35,39.0,-21.0,6.53,0.14,-7.31,0.0,0.0011,-0.0011,-24.25,4.375,43.75,309.8125,42.0,-178.9375,0
1776972328.781,8.4132,-2.0853,-4.7956,-0.0107,0.0368,0.0029,-0.3,-3.3,-180.15,5.7341,7.6638,-1.4389,-0.033,-0.0013,0.0157,-85.05,40.2,-20.7,6.55,0.14,-7.34,0.0,-0.0022,0.0,-24.25,4.375,43.75,309.8125,42.0,-178.9375,0
1776972328.791,8.3773,-2.0997,-4.8171,-0.0144,0.0296,0.0013,-0.9,-3.45,-180.75,5.6862,7.7045,-1.4676,-0.0317,-0.0024,0.0096,-85.05,40.2,-20.7,6.55,0.15,-7.34,-0.0022,0.0011,0.0,-24.25,4.375,43.75,309.8125,42.0,-178.9375,0
1776972328.8,8.3773,-2.0997,-4.8171,-0.0144,0.0296,0.0013,1.35,-3.75,-181.2,5.7174,7.7596,-1.5155,-0.0381,-0.004,0.0123,-83.85,37.95,-21.75,6.54,0.13,-7.32,0.0,0.0033,0.0,-24.25,4.375,43.75,309.8125,42.0,-178.9375,0
1776972328.805,8.3869,-2.1069,-4.8459,-0.0101,0.0264,0.0003,0.3,-3.75,-180.6,5.703,7.6591,-1.5036,-0.037,-0.0051,0.0112,-83.85,37.95,-21.75,6.54,0.13,-7.32,0.0,0.0033,0.0,-24.25,4.375,43.75,309.8125,42.0,-178.9375,0
1776972328.812,8.4228,-2.1093,-4.8339,-0.0109,0.0317,0.0037,0.3,-3.75,-180.6,5.6982,7.6662,-1.561,-0.037,-0.0051,0.0112,-84.15,38.7,-19.5,6.54,0.13,-7.32,0.0,0.0,0.0011,-24.25,4.375,43.75,309.8125,42.0,-178.9375,0
1776972328.817,8.4228,-2.1093,-4.8339,-0.0109,0.0317,0.0037,0.3,-3.75,-180.6,5.6982,7.6662,-1.561,-0.037,-0.0045,0.0109,-85.2,39.6,-22.65,6.54,0.13,-7.32,0.0011,-0.0022,0.0,-24.6875,3.6875,42.25,309.8125,42.0,-178.9375,0
1776972328.822,8.4252,-2.1141,-4.8267,-0.0112,0.033,-0.0021,-0.15,-2.7,-178.95,5.6407,7.6854,-1.4988,-0.0309,-0.0032,0.0139,-85.2,39.6,-22.65,6.56,0.11,-7.31,0.0011,-0.0022,0.0,-24.6875,3.6875,42.25,309.8125,42.0,-178.9375,0
1776972328.831,8.4515,-2.1165,-4.8171,-0.0072,0.0269,-0.0037,-0.15,-2.7,-178.95,5.6503,7.695,-1.5251,-0.0309,-0.0032,0.0139,-84.45,36.9,-22.35,6.54,0.11,-7.33,-0.0011,-0.0011,-0.0011,-24.6875,3.6875,42.25,309.8125,42.0,-178.9375,0
1776972328.841,8.3869,-2.1404,-4.7669,-0.0059,0.0336,-0.0005,0.15,-1.65,-180.3,5.7197,7.7261,-1.506,-0.0224,-0.004,0.0115,-85.35,38.25,-22.95,6.53,0.13,-7.34,-0.0011,0.0011,-0.0011,-24.6875,3.6875,42.25,309.8125,42.0,-178.9375,0
1776972328.85,8.4324,-2.1069,-4.8076,-0.008,0.0317,0.0,0.15,-3.45,-180.0,5.6623,7.7117,-1.47,-0.028,-0.0035,0.0136,-85.95,39.6,-21.9,6.54,0.15,-7.33,0.0,0.0022,-0.0011,-24.6875,3.6875,42.25,309.8125,42.0,-178.9375,0
1776972328.855,8.4324,-2.1069,-4.8076,-0.008,0.0317,0.0,0.0,-3.3,-180.9,5.6623,7.7117,-1.47,-0.0229,0.0011,0.0165,-85.95,39.6,-21.9,6.54,0.15,-7.33,0.0,0.0022,-0.0011,-24.6875,3.6875,42.25,309.8125,42.0,-178.9375,0
1776972328.862,8.4587,-2.1045,-4.7692,-0.0133,0.0317,-0.0011,-0.6,-2.25,-179.85,5.6982,7.6471,-1.5299,-0.0245,-0.0021,0.0168,-85.95,39.6,-21.9,6.55,0.16,-7.32,0.0,0.0022,-0.0011,-24.6875,3.6875,42.25,309.8125,42.0,-178.9375,0
1776972328.867,8.4587,-2.1045,-4.7692,-0.0133,0.0317,-0.0011,-0.6,-2.25,-179.85,5.6982,7.6471,-1.5299,-0.0245,-0.0021,0.0168,-85.2,39.6,-22.35,6.55,0.16,-7.32,-0.0011,0.0011,-0.0011,-24.0,3.6875,43.0625,309.8125,42.0,-178.9375,0
1776972328.872,8.4084,-2.1763,-4.8028,-0.0096,0.0248,0.0016,-0.6,-2.25,-179.85,5.7006,7.6471,-1.4844,-0.0232,0.0003,0.0157,-85.2,39.6,-22.35,6.58,0.12,-7.3,-0.0011,0.0011,-0.0011,-24.0,3.6875,43.0625,309.8125,42.0,-178.9375,0
1776972328.882,8.4013,-2.071,-4.8052,-0.0123,0.0301,-0.0032,-1.05,-3.3,-180.15,5.7126,7.7476,-1.5323,-0.0261,-0.0051,0.0101,-85.2,39.6,-22.35,6.53,0.14,-7.33,0.0011,0.0011,0.0011,-24.0,3.6875,43.0625,309.8125,42.0,-178.9375,0
1776972328.892,8.4228,-2.1524,-4.8147,-0.012,0.0309,0.0003,0.0,-2.55,-182.4,5.6814,7.6998,-1.4868,-0.0264,-0.0075,0.0165,-85.35,39.0,-21.0,6.55,0.13,-7.35,0.0,0.0,0.0011,-24.0,3.6875,43.0625,309.8125,42.0,-178.9375,0
1776972328.901,8.509,-2.1476,-4.81,-0.012,0.0344,-0.0013,0.3,-2.55,-180.6,5.6671,7.7045,-1.5179,-0.0256,0.0035,0.0128,-85.5,39.3,-22.35,6.54,0.13,-7.33,0.0,0.0011,0.0,-24.0,3.6875,43.0625,309.8125,42.0,-178.9375,0
1776972328.911,8.4252,-2.138,-4.8219,-0.0059,0.0266,0.0013,-1.5,-2.7,-181.5,5.6814,7.6495,-1.5179,-0.0274,-0.0069,0.0131,-84.75,38.85,-22.35,6.55,0.16,-7.32,0.0022,-0.0011,-0.0011,-24.0,3.6875,43.0625,309.8125,42.0,-178.9375,0
1776972328.916,8.4252,-2.138,-4.8219,-0.0059,0.0266,0.0013,-1.5,-2.7,-181.5,5.6814,7.6495,-1.5179,-0.0274,-0.0069,0.0131,-84.75,38.85,-22.35,6.55,0.16,-7.32,-0.0022,-0.0044,0.0,-23.6875,3.6875,43.0625,309.8125,42.0,-178.9375,0
1776972328.922,8.3845,-2.1069,-4.8387,-0.0053,0.0312,-0.0043,-0.45,-4.2,-179.7,5.6264,7.6638,-1.5419,-0.029,-0.0032,0.0149,-84.75,38.1,-21.9,6.55,0.12,-7.32,-0.0022,-0.0044,0.0,-23.6875,3.6875,43.0625,309.8125,42.0,-178.9375,0
1776972328.932,8.4324,-2.1165,-4.8483,-0.008,0.0274,-0.0032,-0.45,-4.2,-179.7,5.6862,7.6902,-1.5443,-0.0272,-0.0043,0.0149,-85.05,39.45,-21.75,6.55,0.15,-7.32,0.0022,-0.0033,0.0,-23.6875,3.6875,43.0625,309.8125,42.0,-178.9375,0
1776972328.942,8.5497,-2.1524,-4.7788,0.0,0.0328,-0.0021,0.9,-2.4,-180.3,5.6695,7.7189,-1.5467,-0.029,-0.0027,0.012,-85.5,39.6,-20.85,6.51,0.11,-7.35,0.0,-0.0022,0.0011,-23.6875,3.6875,43.0625,309.8125,42.0,-178.9375,0
1776972328.951,8.5234,-2.1284,-4.7932,0.0005,0.0282,-0.0067,0.0,-2.55,-178.8,5.7078,7.7405,-1.5131,-0.0234,0.0045,0.0096,-85.5,39.6,-20.85,6.52,0.13,-7.34,0.0,-0.0011,-0.0011,-23.6875,3.6875,43.0625,309.8125,42.0,-178.9375,0
1776972328.958,8.4707,-2.1739,-4.8123,0.0053,0.0288,-0.0104,0.0,-2.55,-178.8,5.6168,7.7333,-1.5036,-0.0208,0.0099,0.0107,-85.8,39.45,-21.45,6.54,0.14,-7.34,0.0,0.0022,-0.0011,-23.6875,3.6875,43.0625,309.8125,42.0,-178.9375,0
1776972328.963,8.4707,-2.1739,-4.8123,0.0053,0.0288,-0.0104,-0.45,-2.7,-181.05,5.6168,7.7333,-1.5036,-0.0208,0.0099,0.0107,-85.8,39.45,-21.45,6.54,0.14,-7.34,0.0,0.0022,-0.0011,-23.6875,3.6875,43.0625,309.8125,42.0,-178.9375,0
1776972328.968,8.4348,-2.2314,-4.786,-0.0013,0.0309,-0.0077,-0.45,-2.7,-181.05,5.6383,7.6902,-1.6113,-0.0234,0.0109,0.0064,-85.8,39.45,-21.45,6.51,0.15,-7.34,-0.0011,0.0087,0.0022,-24.6875,3.25,42.5625,309.8125,42.0,-178.9375,0
1776972328.973,8.4348,-2.2314,-4.786,-0.0013,0.0309,-0.0077,-0.15,-1.95,-180.3,5.6383,7.6902,-1.6113,-0.0234,0.0109,0.0064,-85.8,39.45,-21.45,6.51,0.15,-7.34,-0.0011,0.0087,0.0022,-24.6875,3.25,42.5625,309.8125,42.0,-178.9375,0
1776972328.982,8.4132,-2.1596,-4.7932,-0.0037,0.0285,-0.0144,-1.35,-2.55,-180.9,5.715,7.6614,-1.5131,-0.0128,0.0163,0.0083,-84.0,37.35,-21.15,6.54,0.13,-7.31,0.0,0.0098,0.0044,-24.6875,3.25,42.5625,309.8125,42.0,-178.9375,0
1776972328.992,8.26,-2.1428,-4.8554,-0.0144,0.0242,-0.0115,-1.35,-2.55,-180.9,5.6407,7.6926,-1.5586,-0.0189,0.0152,0.0032,-86.7,38.1,-21.6,6.57,0.12,-7.31,0.0011,0.012,0.0065,-24.6875,3.25,42.5625,309.8125,42.0,-178.9375,0
1776972329.001,8.2624,-2.1045,-4.8985,-0.0205,0.0248,-0.0155,0.0,-3.0,-181.65,5.6599,7.616,-1.4341,-0.029,0.0083,0.0053,-83.7,38.55,-21.9,6.58,0.13,-7.31,0.0,0.0087,0.0055,-24.6875,3.25,42.5625,309.8125,42.0,-178.9375,0
1776972329.008,8.2959,-2.0542,-4.8411,-0.0152,0.0274,-0.0147,0.0,-3.0,-181.65,5.7054,7.683,-1.5371,-0.0338,0.0075,0.0056,-85.05,38.25,-22.5,6.6,0.13,-7.29,0.0033,0.0011,0.0033,-24.6875,3.25,42.5625,309.8125,42.0,-178.9375,0
1776972329.013,8.2959,-2.0542,-4.8411,-0.0152,0.0274,-0.0147,-1.05,-2.55,-181.65,5.7054,7.683,-1.5371,-0.0338,0.0075,0.0056,-85.05,38.25,-22.5,6.6,0.13,-7.29,0.0033,0.0011,0.0033,-24.6875,3.25,42.5625,309.8125,42.0,-178.9375,0
1776972329.018,8.3007,-2.0303,-4.9153,-0.0048,0.0317,-0.0085,-1.05,-2.55,-181.65,5.679,7.5561,-1.561,-0.0389,0.0072,0.0072,-84.75,39.3,-21.15,6.58,0.12,-7.3,0.0044,0.0,0.0022,-25.0625,3.6875,42.5625,309.8125,42.0,-178.9375,0
1776972329.023,8.3007,-2.0303,-4.9153,-0.0048,0.0317,-0.0085,-0.45,-1.95,-180.75,5.7078,7.6471,-1.6257,-0.0389,0.0072,0.0072,-84.75,39.3,-21.15,6.58,0.12,-7.3,0.0044,0.0,0.0022,-25.0625,3.6875,42.5625,309.8125,42.0,-178.9375,0
1776972329.032,8.3845,-2.0303,-4.9153,0.0029,0.0386,-0.0139,0.6,-2.55,-181.2,5.7078,7.6471,-1.6257,-0.0432,0.0112,0.0107,-84.15,39.9,-21.45,6.59,0.12,-7.31,0.0022,-0.0065,0.0011,-25.0625,3.6875,42.5625,309.8125,42.0,-178.9375,0
1776972329.042,8.4635,-2.0375,-4.9728,0.0107,0.037,-0.0051,0.6,-2.55,-181.2,5.6647,7.6806,-1.6448,-0.0472,0.0077,0.0091,-84.15,39.9,-21.45,6.56,0.12,-7.32,0.0022,-0.0109,0.0022,-25.0625,3.6875,42.5625,309.8125,42.0,-178.9375,0
1776972329.05,8.497,-2.0111,-4.8722,0.0083,0.0424,-0.0056,0.6,-2.55,-181.2,5.7533,7.7476,-1.6137,-0.0546,0.0131,0.0088,-85.05,37.95,-22.2,6.51,0.11,-7.34,0.0033,-0.0142,0.0022,-25.0625,3.6875,42.5625,309.8125,42.0,-178.9375,0
1776972329.055,8.5641,-2.0111,-4.8435,0.0059,0.0421,-0.0064,0.6,-2.55,-181.2,5.7221,7.7045,-1.5754,-0.057,0.0099,0.0019,-85.05,37.95,-22.2,6.51,0.11,-7.34,0.0033,-0.0142,0.0022,-25.0625,3.6875,42.5625,309.8125,42.0,-178.9375,0
1776972329.063,8.4228,-2.0782,-4.8626,0.0027,0.0397,-0.0037,-1.35,-3.75,-180.15,5.7221,7.7141,-1.6305,-0.0584,0.0093,0.0003,-85.05,37.95,-22.2,6.51,0.12,-7.34,0.0011,-0.0098,-0.0011,-25.0625,3.6875,42.5625,309.8125,42.0,-178.9375,0
1776972329.067,8.4228,-2.0782,-4.8626,0.0027,0.0397,-0.0037,0.15,-2.7,-180.0,5.7221,7.7141,-1.6305,-0.0584,0.0093,0.0003,-86.85,39.9,-21.75,6.51,0.12,-7.34,-0.0022,-0.0033,0.0011,-25.0625,3.6875,43.75,309.8125,42.0,-178.9375,0
1776972329.073,8.4156,-2.1261,-4.865,-0.008,0.044,-0.0016,0.15,-2.7,-180.0,5.7054,7.7165,-1.573,-0.0488,-0.0003,0.0099,-86.85,39.9,-21.75,6.48,0.12,-7.35,-0.0022,-0.0033,0.0011,-25.0625,3.6875,43.75,309.8125,42.0,-178.9375,0
1776972329.082,8.3629,-2.0303,-4.8578,-0.0203,0.0458,0.0008,0.0,-4.05,-180.9,5.6192,7.7476,-1.5634,-0.0402,-0.008,0.0016,-84.6,38.7,-20.7,6.53,0.13,-7.35,-0.0022,0.0044,-0.0011,-25.0625,3.6875,43.75,309.8125,42.0,-178.9375,0
1776972329.092,8.3869,-1.9585,-4.8195,-0.0218,0.0522,0.0053,-1.2,-1.2,-181.05,5.6312,7.6543,-1.5634,-0.044,-0.0077,-0.0021,-84.75,39.3,-21.6,6.54,0.14,-7.35,-0.0055,0.0076,-0.0011,-25.0625,3.6875,43.75,309.8125,42.0,-178.9375,0
1776972329.1,8.3869,-1.9585,-4.8195,-0.0218,0.0474,0.0053,-1.2,-1.2,-181.05,5.5641,7.6399,-1.6017,-0.044,-0.0077,-0.0021,-84.6,39.45,-21.0,6.55,0.11,-7.34,-0.0065,0.0087,0.0,-25.0625,3.6875,43.75,309.8125,42.0,-178.9375,0
1776972329.105,8.43,-1.9609,-4.8961,-0.0218,0.0474,0.0053,-1.2,-1.2,-181.05,5.5641,7.6399,-1.6017,-0.0434,-0.0013,0.0059,-84.6,39.45,-21.0,6.55,0.11,-7.34,-0.0065,0.0087,0.0,-25.0625,3.6875,43.75,309.8125,42.0,-178.9375,0
1776972329.113,8.4156,-1.992,-4.8291,-0.0096,0.0472,0.012,-0.45,-3.15,-181.8,5.6,7.683,-1.5586,-0.0514,-0.0128,0.008,-83.7,38.1,-21.6,6.56,0.12,-7.3,-0.0098,0.0131,-0.0022,-25.0625,3.6875,43.75,309.8125,42.0,-178.9375,0
1776972329.117,8.4156,-1.992,-4.8291,-0.0096,0.0472,0.012,0.15,-3.9,-179.25,5.6,7.683,-1.5586,-0.0514,-0.0128,0.008,-83.7,38.1,-21.6,6.56,0.12,-7.3,-0.0087,0.0076,0.0,-24.25,3.6875,41.5,309.8125,42.0,-178.9375,0
1776972329.123,8.4467,-2.0423,-4.8267,-0.0035,0.0474,0.0109,0.15,-3.9,-179.25,5.6431,7.7141,-1.4629,-0.0655,-0.0093,0.0104,-84.6,38.25,-22.95,6.54,0.13,-7.29,-0.0087,0.0076,0.0,-24.25,3.6875,41.5,309.8125,42.0,-178.9375,0
1776972329.132,8.5066,-2.1045,-4.7405,0.0011,0.053,0.0131,0.45,-2.7,-181.05,5.6216,7.6614,-1.482,-0.0823,-0.0184,0.0069,-84.6,38.25,-22.95,6.52,0.11,-7.37,-0.0087,0.0076,-0.0033,-24.25,3.6875,41.5,309.8125,42.0,-178.9375,0
1776972329.142,8.4731,-2.1404,-4.8315,-0.0056,0.0517,0.0189,-0.6,-3.0,-181.2,5.6407,7.6854,-1.506,-0.0917,-0.0133,0.0104,-85.05,39.0,-21.75,6.52,0.14,-7.36,-0.0098,0.0109,-0.0033,-24.25,3.6875,41.5,309.8125,42.0,-178.9375,0
1776972329.149,8.4731,-2.1404,-4.8315,-0.0056,0.0517,0.0189,-0.3,-3.0,-181.95,5.6144,7.7644,-1.5299,-0.0917,-0.0133,0.0104,-85.05,39.0,-21.75,6.52,0.13,-7.35,-0.0076,0.0142,-0.0033,-24.25,3.6875,41.5,309.8125,42.0,-178.9375,0
1776972329.153,8.4898,-2.1476,-4.7166,-0.0152,0.049,0.0171,-0.3,-3.0,-181.95,5.6144,7.7644,-1.5299,-0.0959,-0.0107,0.0048,-85.05,39.0,-21.75,6.52,0.13,-7.35,-0.0076,0.0142,-0.0033,-24.25,3.6875,41.5,309.8125,42.0,-178.9375,0
1776972329.163,8.4491,-2.15,-4.7405,-0.0296,0.0496,0.0149,-0.3,-3.0,-181.95,5.6647,7.75,-1.5083,-0.0898,-0.0112,0.0029,-85.5,40.5,-20.55,6.51,0.13,-7.32,-0.0109,0.0229,-0.0022,-24.25,3.6875,41.5,309.8125,42.0,-178.9375,0
1776972329.167,8.4491,-2.15,-4.7405,-0.0296,0.0496,0.0149,-0.15,-0.9,-180.75,5.6503,7.7357,-1.4485,-0.0898,-0.0112,0.0029,-85.5,40.5,-20.55,6.51,0.13,-7.32,-0.0109,0.0229,-0.0022,-24.25,3.6875,41.5,309.8125,42.0625,-178.9375,0
1776972329.172,8.3965,-2.15,-4.7453,-0.0288,0.0474,0.0149,-0.15,-0.9,-180.75,5.6503,7.7357,-1.4485,-0.0853,-0.016,0.004,-85.2,39.3,-21.9,6.56,0.14,-7.33,-0.0076,0.0229,0.0011,-24.6875,3.25,43.0625,309.8125,42.0625,-178.9375,0
1776972329.177,8.3965,-2.15,-4.7453,-0.0288,0.0474,0.0149,-0.15,-3.45,-180.75,5.6024,7.6782,-1.506,-0.0853,-0.016,0.004,-85.2,39.3,-21.9,6.56,0.14,-7.33,-0.0076,0.0229,0.0011,-24.6875,3.25,43.0625,309.8125,42.0625,-178.875,0
1776972329.182,8.3582,-2.0638,-4.7764,-0.0234,0.0469,0.0123,-0.15,-3.45,-180.75,5.6024,7.6782,-1.506,-0.0703,-0.0125,0.0083,-85.35,38.25,-21.45,6.57,0.14,-7.34,-0.012,0.0262,0.0011,-24.6875,3.25,43.0625,309.8125,42.0625,-178.875,0
1776972329.187,8.3582,-2.0638,-4.7764,-0.0234,0.0469,0.0123,-0.9,-1.65,-181.05,5.5929,7.7069,-1.549,-0.0536,-0.0109,0.0048,-85.35,38.25,-21.45,6.57,0.14,-7.34,-0.0109,0.0262,0.0,-24.6875,3.25,43.0625,309.8125,42.0625,-178.875,0
1776972329.193,8.3893,-2.0949,-4.8674,-0.0269,0.0488,0.0147,-0.9,-1.65,-181.05,5.5929,7.7069,-1.549,-0.0536,-0.0109,0.0048,-85.8,38.7,-22.95,6.58,0.12,-7.31,-0.0109,0.0262,0.0,-24.6875,3.25,43.0625,309.8125,42.0625,-178.875,0
1776972329.202,8.4132,-2.0375,-4.7956,-0.0163,0.0458,0.0163,-1.35,-2.55,-180.15,5.5833,7.6806,-1.4078,-0.0504,-0.0141,0.0072,-85.35,39.45,-20.7,6.56,0.13,-7.3,-0.0098,0.0251,-0.0033,-24.6875,3.25,43.0625,309.8125,42.0625,-178.875,0
1776972329.211,8.4276,-2.1356,-4.7788,0.0075,0.048,0.0072,-0.15,-3.45,-182.1,5.6934,7.695,-1.4102,-0.0613,-0.0112,0.0109,-85.5,40.05,-20.85,6.55,0.13,-7.25,-0.012,0.0196,-0.0011,-24.6875,3.25,43.0625,309.8125,42.0625,-178.875,0
1776972329.216,8.4276,-2.1356,-4.7788,0.0075,0.048,0.0072,-0.15,-3.45,-182.1,5.7221,7.695,-1.4533,-0.0613,-0.0112,0.0109,-85.5,40.05,-20.85,6.55,0.13,-7.25,-0.012,0.0196,-0.0011,-24.375,3.25,43.75,309.8125,42.125,-178.875,0
1776972329.223,8.406,-2.1356,-4.7166,0.0021,0.0466,0.0139,-0.15,-3.45,-182.1,5.7221,7.695,-1.4533,-0.0674,-0.0115,0.0139,-85.5,40.05,-20.85,6.58,0.17,-7.31,-0.0087,0.0175,-0.0033,-24.375,3.25,43.75,309.8125,42.125,-178.875,0
1776972329.232,8.4013,-2.2194,-4.7405,0.0037,0.0522,0.012,-0.6,-2.55,-181.65,5.6695,7.6686,-1.4509,-0.0794,-0.0051,0.0128,-85.35,38.25,-21.75,6.55,0.12,-7.29,-0.0076,0.0131,-0.0044,-24.375,3.25,43.75,309.8125,42.125,-178.875,0
1776972329.241,8.4731,-2.2146,-4.6998,-0.0056,0.0466,0.0141,-1.35,-4.05,-180.6,5.612,7.7045,-1.4724,-0.0922,-0.0104,0.0173,-85.35,38.25,-21.75,6.58,0.16,-7.31,-0.0065,0.012,-0.0022,-24.375,3.25,43.75,309.8125,42.125,-178.875,0
1776972329.246,8.4396,-2.1907,-4.7022,-0.0157,0.0394,0.0104,0.3,-3.75,-180.9,5.6503,7.6423,-1.4653,-0.0863,-0.0056,0.0133,-85.35,38.25,-21.75,6.58,0.16,-7.31,-0.0065,0.012,-0.0022,-24.375,3.25,43.75,309.8125,42.125,-178.875,0
1776972329.253,8.4396,-2.1907,-4.7022,-0.0157,0.0394,0.0104,0.3,-3.75,-180.9,5.6503,7.6423,-1.4653,-0.0863,-0.0056,0.0133,-85.95,40.5,-21.6,6.56,0.14,-7.3,-0.0076,0.0087,-0.0044,-24.375,3.25,43.75,309.8125,42.125,-178.875,0
1776972329.262,8.4204,-2.138,-4.7094,-0.0173,0.0445,0.0128,0.0,-3.75,-181.2,5.6096,7.6974,-1.3862,-0.0853,-0.0107,0.0101,-84.0,39.6,-20.85,6.54,0.15,-7.3,-0.0065,0.0098,-0.0011,-24.375,3.25,43.75,309.8125,42.125,-178.875,0
1776972329.267,8.4372,-2.0973,-4.7118,-0.0171,0.037,0.0091,0.0,-3.75,-181.2,5.5545,7.7476,-1.4581,-0.0794,-0.0043,0.0187,-84.0,39.6,-20.85,6.54,0.15,-7.3,-0.0065,0.0055,-0.0033,-23.75,3.6875,42.6875,309.8125,42.125,-178.875,0
1776972329.273,8.4372,-2.0973,-4.7118,-0.0171,0.037,0.0091,0.0,-3.75,-181.2,5.5617,7.7357,-1.2905,-0.0794,-0.0043,0.0187,-85.2,39.6,-21.9,6.59,0.15,-7.3,-0.0065,0.0055,-0.0033,-23.75,3.6875,42.6875,309.8125,42.125,-178.875,0
1776972329.282,8.4587,-2.0997,-4.7549,-0.0109,0.0368,0.0096,0.0,-3.75,-181.2,5.6336,7.6734,-1.3767,-0.077,-0.0067,0.0208,-85.8,39.9,-21.45,6.56,0.15,-7.3,-0.0044,0.0065,0.0,-23.75,3.6875,42.6875,309.8125,42.125,-178.875,0
1776972329.292,8.4563,-2.1476,-4.7094,-0.0107,0.0365,0.0091,-0.3,-3.0,-180.6,5.6336,7.6734,-1.3767,-0.0661,-0.0061,0.0189,-85.2,40.8,-19.8,6.55,0.14,-7.33,-0.0044,0.0022,0.0011,-23.75,3.6875,42.6875,309.8125,42.125,-178.875,0
1776972329.296,8.497,-2.059,-4.719,-0.0032,0.032,0.0077,-0.45,-3.45,-180.3,5.6264,7.7093,-1.391,-0.0608,0.0024,0.0203,-85.2,40.8,-19.8,6.55,0.14,-7.33,-0.0033,0.0011,-0.0011,-23.75,3.6875,42.6875,309.8125,42.125,-178.875,0
1776972329.303,8.497,-2.059,-4.719,-0.0032,0.032,0.0077,-0.45,-2.7,-180.75,5.6623,7.7452,-1.3934,-0.0698,0.0013,0.0232,-84.0,39.3,-19.8,6.59,0.14,-7.31,-0.0033,0.0011,-0.0011,-23.75,3.6875,42.6875,309.8125,42.125,-178.875,0
1776972329.313,8.497,-2.0638,-4.7932,0.0091,0.0309,0.0053,-1.05,-3.0,-180.15,5.6838,7.7452,-1.3862,-0.0725,-0.0005,0.0211,-84.0,39.3,-19.8,6.58,0.13,-7.33,-0.0011,0.0,-0.0033,-23.75,3.6875,42.6875,309.8125,42.125,-178.875,0
1776972329.318,8.497,-2.1787,-4.7214,0.0128,0.0362,0.0051,-1.05,-3.0,-180.15,5.6838,7.7452,-1.3862,-0.0725,-0.0005,0.0211,-84.0,39.3,-19.8,6.58,0.13,-7.33,-0.0044,0.0033,-0.0033,-25.1875,4.0,42.25,309.8125,42.125,-178.875,0
1776972329.323,8.4324,-2.2098,-4.6902,0.016,0.0266,0.0008,-1.05,-3.0,-180.15,5.6551,7.7524,-1.4174,-0.0738,0.0083,0.0184,-83.85,40.2,-21.0,6.54,0.17,-7.3,-0.0044,0.0033,-0.0033,-25.1875,4.0,42.25,309.8125,42.125,-178.875,0
1776972329.333,8.4324,-2.2098,-4.6902,0.0019,0.0232,-0.0059,-1.05,-3.0,-180.15,5.6407,7.6638,-1.4126,-0.0719,0.0109,0.0208,-83.85,40.2,-21.0,6.56,0.15,-7.32,0.0,0.0044,-0.0022,-25.1875,4.0,42.25,309.8125,42.125,-178.875,0
1776972329.342,8.406,-2.1955,-4.7932,0.0019,0.0232,-0.0059,-0.45,-3.15,-181.05,5.6168,7.6423,-1.391,-0.0714,0.0117,0.0187,-85.05,40.2,-19.5,6.57,0.15,-7.32,0.0,0.0065,-0.0044,-25.1875,4.0,42.25,309.8125,42.125,-178.875,0
1776972329.347,8.4276,-2.2649,-4.7429,-0.0035,0.0234,-0.0053,-0.9,-2.7,-180.3,5.6168,7.6423,-1.391,-0.0714,0.0117,0.0187,-85.05,40.2,-19.5,6.57,0.15,-7.32,-0.0022,0.0044,-0.0044,-25.1875,4.0,42.25,309.8125,42.125,-178.875,0
1776972329.353,8.4132,-2.15,-4.7788,-0.0085,0.0117,-0.0083,0.0,-3.75,-180.6,5.6312,7.6327,-1.3671,-0.0773,0.0131,0.0192,-84.6,38.7,-19.95,6.56,0.15,-7.31,-0.0022,0.0044,-0.0044,-25.1875,4.0,42.25,309.8125,42.125,-178.875,0
1776972329.363,8.3199,-2.1308,-4.81,-0.0056,0.0221,-0.0064,-0.45,-2.7,-178.95,5.6719,7.6351,-1.3384,-0.0722,0.0123,0.0203,-85.8,39.0,-21.45,6.58,0.14,-7.29,-0.0011,0.0055,-0.0044,-25.1875,4.0,42.25,309.8125,42.125,-178.875,0
1776972329.368,8.3199,-2.1308,-4.81,-0.0056,0.0221,-0.0064,-0.45,-2.7,-178.95,5.6719,7.6351,-1.3384,-0.0722,0.0123,0.0203,-85.8,39.0,-21.45,6.58,0.14,-7.29,0.0,0.0044,-0.0022,-24.75,4.0,43.0625,309.8125,42.125,-178.875,0
1776972329.374,8.3845,-2.0925,-4.798,-0.0003,0.0266,-0.0059,-0.45,-3.15,-180.0,5.6647,7.5872,-1.403,-0.0725,0.0096,0.024,-86.25,39.3,-21.6,6.59,0.12,-7.26,0.0,0.0044,-0.0022,-24.75,4.0,43.0625,309.8125,42.125,-178.875,0
1776972329.383,8.3366,-2.0542,-4.8076,0.0053,0.0298,-0.0115,-0.45,-3.15,-180.0,5.6838,7.6327,-1.3647,-0.0781,0.0163,0.0288,-84.6,39.45,-20.7,6.59,0.15,-7.29,0.0,0.0011,-0.0033,-24.75,4.0,43.0625,309.8125,42.125,-178.875,0
1776972329.392,8.3629,-2.138,-4.786,0.0061,0.0261,-0.0128,-0.15,-4.65,-181.05,5.7269,7.6112,-1.4246,-0.089,0.0218,0.0285,-85.2,38.55,-21.6,6.59,0.15,-7.3,0.0022,-0.0076,-0.0022,-24.75,4.0,43.0625,309.8125,42.125,-178.875,0
1776972329.397,8.3629,-2.138,-4.786,0.0061,0.0261,-0.0128,-0.15,-4.65,-181.05,5.7269,7.6112,-1.4246,-0.089,0.0218,0.0285,-85.2,38.55,-21.6,6.59,0.15,-7.3,0.0033,-0.0131,-0.0033,-24.75,4.0,43.0625,309.8125,42.125,-178.875,0
1776972329.403,8.3677,-2.1835,-4.8435,0.0085,0.0282,-0.0171,-0.15,-2.4,-180.75,5.691,7.6806,-1.415,-0.0855,0.0211,0.0338,-85.2,38.55,-21.6,6.57,0.13,-7.32,0.0033,-0.0131,-0.0033,-24.75,4.0,43.0625,309.8125,42.125,-178.875,0
1776972329.413,8.406,-2.2098,-4.8123,0.0131,0.0264,-0.0147,0.0,-3.0,-180.9,5.7437,7.7357,-1.3551,-0.0973,0.029,0.0341,-85.05,39.9,-20.7,6.58,0.17,-7.28,0.0022,-0.0131,-0.0033,-24.75,4.0,43.0625,309.8125,42.125,-178.875,0
1776972329.418,8.406,-2.2098,-4.8123,0.0131,0.0264,-0.0147,0.0,-3.0,-180.9,5.782,7.7309,-1.3791,-0.1037,0.0234,0.0293,-85.05,39.9,-20.7,6.58,0.17,-7.28,0.0011,-0.0185,-0.0033,-24.75,2.875,42.5625,309.8125,42.0625,-178.875,0
1776972329.424,8.3749,-2.1931,-4.8195,0.0101,0.0261,-0.016,0.3,-4.05,-180.9,5.782,7.7309,-1.3791,-0.1037,0.0234,0.0293,-85.05,39.9,-20.7,6.58,0.16,-7.27,0.0011,-0.0185,-0.0033,-24.75,2.875,42.5625,309.8125,42.0625,-178.875,0
1776972329.433,8.4348,-2.1883,-4.7285,0.012,0.0333,-0.016,0.0,-3.75,-180.15,5.7533,7.7069,-1.3958,-0.1042,0.0306,0.024,-84.6,39.45,-21.0,6.57,0.14,-7.33,0.0076,-0.0185,-0.0055,-24.75,2.875,42.5625,309.8125,42.0625,-178.875,0
1776972329.442,8.442,-2.1404,-4.7669,0.0157,0.032,-0.0187,0.0,-3.75,-180.15,5.6623,7.7237,-1.3815,-0.0898,0.0314,0.0264,-85.8,39.0,-20.25,6.56,0.15,-7.35,0.0055,-0.0229,-0.0055,-24.75,2.875,42.5625,309.8125,42.0625,-178.875,0
1776972329.449,8.4013,-2.1284,-4.7669,0.0101,0.0288,-0.0221,0.0,-3.75,-180.15,5.6623,7.6303,-1.3695,-0.0898,0.0293,0.0256,-85.8,39.0,-20.25,6.56,0.16,-7.3,0.0055,-0.0262,-0.0055,-24.75,2.875,42.5625,309.8125,42.0625,-178.875,0
1776972329.454,8.4013,-2.1284,-4.7669,0.0101,0.0288,-0.0221,-0.6,-3.75,-181.65,5.6623,7.6303,-1.3695,-0.0898,0.0293,0.0256,-85.8,39.0,-21.0,6.56,0.16,-7.3,0.0055,-0.0262,-0.0055,-24.75,2.875,42.5625,309.8125,42.0625,-178.875,0
1776972329.463,8.4132,-2.1021,-4.707,0.0107,0.0266,-0.0165,-1.35,-2.25,-178.8,5.6431,7.5705,-1.3384,-0.0922,0.0336,0.0234,-85.5,39.6,-19.8,6.53,0.14,-7.3,0.0065,-0.0251,-0.0065,-24.75,2.875,42.5625,309.8125,42.0625,-178.875,0
