timestamp,thigh_acc_x,thigh_acc_y,thigh_acc_z,thigh_gyro_x,thigh_gyro_y,thigh_gyro_z,thigh_mag_x,thigh_mag_y,thigh_mag_z,shank_acc_x,shank_acc_y,shank_acc_z,shank_gyro_x,shank_gyro_y,shank_gyro_z,shank_mag_x,shank_mag_y,shank_mag_z,foot_acc_x,foot_acc_y,foot_acc_z,foot_gyro_x,foot_gyro_y,foot_gyro_z,foot_mag_x,foot_mag_y,foot_mag_z,foot_euler_x,foot_euler_y,foot_euler_z,perturbation_event
1776973033.722,9.3254,0.1173,-0.6297,-0.3195,0.0592,-0.2414,-111.6,-10.95,33.6,9.3206,-1.5562,-0.2418,-0.3557,0.3408,0.117,-87.75,16.2,-16.8,-3.37,-2.17,-8.68,0.1156,0.1265,0.5727,4.1875,17.6875,45.75,13.5,-25.6875,165.875,0
1776973033.727,9.3254,0.1173,-0.6297,-0.3195,0.0592,-0.2414,-112.2,-11.55,34.5,9.3206,-1.5562,-0.2418,-0.3557,0.3408,0.117,-88.8,14.4,-17.7,-3.37,-2.17,-8.68,0.1156,0.1265,0.5727,4.1875,17.6875,45.75,13.8125,-25.6875,166.0,0
1776973033.732,9.4284,0.34,-0.6225,-0.2574,0.0677,-0.215,-112.2,-11.55,34.5,9.4523,-1.482,-0.3974,-0.3219,0.3112,0.0858,-88.8,14.4,-17.7,-3.01,-1.74,-8.67,0.0742,0.1407,0.5214,5.6875,18.75,46.1875,13.8125,-25.6875,166.0,0
1776973033.737,9.4284,0.34,-0.6225,-0.2574,0.0677,-0.215,-111.3,-9.45,33.9,9.4523,-1.482,-0.3974,-0.3219,0.3112,0.0858,-88.35,15.15,-16.2,-3.01,-1.74,-8.67,0.0742,0.1407,0.5214,5.6875,18.75,46.1875,14.125,-25.6875,166.0625,0
1776973033.742,9.3972,0.5004,-0.5794,-0.227,0.0663,-0.1932,-111.3,-9.45,33.9,9.5984,-1.4581,-0.2729,-0.2358,0.2499,0.0536,-88.35,15.15,-16.2,-2.66,-1.52,-8.75,0.0731,0.1484,0.4691,5.6875,18.75,46.1875,14.125,-25.6875,166.0625,0
1776973033.75,9.3972,0.5004,-0.5794,-0.227,0.0663,-0.1932,-109.95,-10.05,34.5,9.505,-1.3767,-0.3184,-0.2358,0.2499,0.0536,-89.85,13.65,-15.9,-2.57,-1.56,-8.84,0.1091,0.1342,0.4112,5.6875,18.75,46.1875,14.375,-25.6875,166.125,0
1776973033.755,9.6582,0.6129,-0.4118,-0.2158,0.0621,-0.1625,-109.95,-11.25,36.6,9.505,-1.3767,-0.3184,-0.1362,0.1956,0.0258,-89.1,15.15,-15.15,-2.57,-1.56,-8.84,0.1091,0.1342,0.4112,5.6875,18.75,46.1875,14.5625,-25.625,166.1875,0
1776973033.763,9.7659,0.7997,0.1317,-0.1191,0.0533,-0.1591,-109.95,-11.25,36.6,9.4595,-1.5275,-0.4812,-0.0509,0.1439,0.0043,-89.1,15.15,-15.15,-2.58,-2.01,-9.03,0.1418,0.1167,0.3545,5.6875,18.75,46.1875,14.75,-25.625,166.1875,0
1776973033.772,9.7923,1.1229,0.3017,-0.0338,0.0722,-0.1559,-108.9,-9.0,35.25,9.4691,-1.6568,-0.3663,0.0421,0.0834,-0.012,-89.1,15.15,-15.15,-2.51,-2.04,-9.06,0.1233,0.1091,0.2869,5.6875,18.75,46.1875,14.75,-25.625,166.1875,0
1776973033.777,9.7923,1.1229,0.3017,-0.0338,0.0722,-0.1559,-108.9,-9.0,35.25,9.4691,-1.6568,-0.3663,0.0421,0.0834,-0.012,-89.55,15.6,-14.7,-2.51,-2.04,-9.06,0.1233,0.1091,0.2869,5.6875,18.75,46.1875,14.75,-25.625,166.1875,0
1776973033.782,9.4547,1.1995,0.2035,0.0592,0.0466,-0.1458,-108.9,-9.0,35.25,9.5146,-1.7071,-0.3615,0.1226,0.0109,-0.045,-89.55,15.6,-14.7,-2.16,-1.99,-9.04,0.0829,0.1036,0.1963,5.6875,18.375,47.75,14.875,-25.625,166.1875,0
1776973033.787,9.4547,1.1995,0.2035,0.0592,0.0466,-0.1458,-111.15,-10.05,36.3,9.5146,-1.7071,-0.3615,0.1226,0.0109,-0.045,-89.55,15.6,-14.7,-2.16,-1.99,-9.04,0.0829,0.1036,0.1963,5.6875,18.375,47.75,14.875,-25.625,166.1875,0
1776973033.792,9.0836,0.8404,0.1173,0.1442,0.0837,-0.1212,-111.15,-10.05,36.3,9.56,-1.4964,-0.3974,0.1788,-0.064,-0.0909,-89.55,15.6,-14.7,-1.56,-2.07,-8.88,0.0393,0.1113,0.0731,5.6875,18.375,47.75,14.9375,-25.5625,166.1875,0
1776973033.798,9.0836,0.8404,0.1173,0.1442,0.0837,-0.1212,-111.45,-9.3,37.05,9.6055,-1.3934,-0.3974,0.1788,-0.064,-0.0909,-89.55,14.85,-15.15,-1.52,-2.12,-8.94,-0.0055,0.0905,-0.0578,5.6875,18.375,47.75,14.9375,-25.5,166.1875,0
1776973033.803,9.2296,0.4381,0.0383,0.2273,0.1423,-0.0663,-111.15,-6.3,38.1,9.6055,-1.3934,-0.3974,0.2497,-0.129,-0.1343,-89.55,14.85,-15.15,-1.52,-2.12,-8.94,-0.0055,0.0905,-0.0578,5.6875,18.375,47.75,14.8125,-25.4375,166.1875,0
1776973033.813,9.4332,0.0239,-0.1221,0.3262,0.1732,-0.0067,-110.25,-7.65,36.15,9.6798,-1.2833,-0.3807,0.3355,-0.1977,-0.1804,-89.7,14.55,-15.3,-1.84,-2.2,-9.1,-0.0524,0.0469,-0.1822,5.6875,18.375,47.75,14.8125,-25.4375,166.1875,0
1776973033.823,9.4236,-0.3711,0.0599,0.4716,0.1825,0.0322,-110.25,-7.65,36.15,9.5529,-1.0582,-0.3112,0.4098,-0.2241,-0.2134,-89.4,15.45,-16.8,-2.43,-2.5,-9.3,-0.0818,0.0196,-0.3022,5.6875,18.375,47.75,14.625,-25.375,166.125,0
1776973033.827,9.4236,-0.3711,0.0599,0.4716,0.1825,0.0322,-110.25,-7.65,36.15,9.5193,-0.8787,-0.1987,0.4098,-0.2241,-0.2134,-88.8,16.8,-15.15,-2.43,-2.5,-9.3,-0.0818,0.0196,-0.3022,5.6875,18.375,47.75,14.375,-25.3125,166.0625,0
1776973033.832,9.7252,-0.0431,0.0718,0.6675,0.1476,0.0538,-110.25,-7.65,36.15,9.5193,-0.8787,-0.1987,0.5079,-0.2582,-0.2276,-88.8,16.8,-15.15,-2.75,-2.47,-9.36,-0.0927,0.0262,-0.4167,6.375,19.1875,46.1875,14.375,-25.3125,166.0625,0
1776973033.837,9.7252,-0.0431,0.0718,0.6675,0.1476,0.0538,-112.35,-5.7,37.2,9.6845,-0.7542,-0.0838,0.643,-0.287,-0.2425,-88.8,15.6,-16.65,-2.75,-2.47,-9.36,-0.0927,0.0262,-0.4167,6.375,19.1875,46.1875,14.125,-25.25,166.0,0
1776973033.843,9.6271,0.5171,-0.3424,0.6848,0.0877,0.0898,-112.65,-6.15,37.8,9.6845,-0.7542,-0.0838,0.643,-0.287,-0.2425,-88.8,15.6,-16.65,-3.19,-2.42,-9.48,-0.0982,0.0545,-0.5149,6.375,19.1875,46.1875,14.125,-25.25,166.0,0
1776973033.851,9.5313,0.7063,-0.5004,0.466,0.1524,0.1367,-112.65,-6.15,37.8,9.9288,-0.929,0.0072,0.7557,-0.3118,-0.2715,-88.35,14.4,-15.45,-3.24,-2.71,-9.44,-0.1014,0.1145,-0.6141,6.375,19.1875,46.1875,13.75,-25.0625,165.9375,0
1776973033.856,9.5313,0.7063,-0.5004,0.466,0.1524,0.1367,-112.5,-7.05,37.05,9.9503,-1.1732,0.0239,0.7557,-0.3118,-0.2715,-88.35,14.4,-15.45,-3.24,-2.71,-9.44,-0.1014,0.1145,-0.6141,6.375,19.1875,46.1875,13.375,-24.875,165.8125,0
1776973033.863,10.173,0.8021,-0.9529,0.3102,0.1346,0.1423,-114.0,-7.5,38.4,9.9503,-1.1732,0.0239,0.837,-0.3368,-0.2974,-88.35,14.4,-15.45,-3.07,-2.93,-8.94,-0.1353,0.1854,-0.7058,6.375,19.1875,46.1875,12.9375,-24.6875,165.75,0
1776973033.873,9.8162,0.5866,-1.1492,0.1745,0.1338,0.1196,-114.15,-7.65,37.5,9.9335,-1.5538,0.2849,0.8671,-0.3629,-0.32,-88.2,16.2,-17.55,-3.04,-2.73,-8.77,-0.2127,0.2105,-0.7767,6.375,19.1875,46.1875,12.9375,-24.6875,165.75,0
1776973033.878,9.2536,0.3304,-1.5203,0.1314,0.332,0.1244,-114.15,-7.65,37.5,9.8354,-1.6927,0.5698,0.8412,-0.3866,-0.344,-88.65,16.5,-16.05,-3.04,-2.73,-8.77,-0.2127,0.2105,-0.7767,6.375,19.1875,46.1875,12.4375,-24.4375,165.75,0
1776973033.883,9.2536,0.3304,-1.5203,0.1314,0.332,0.1244,-114.15,-7.65,37.5,9.8354,-1.6927,0.5698,0.8412,-0.3866,-0.344,-88.65,16.5,-16.05,-3.17,-2.57,-8.64,-0.2662,0.1931,-0.8399,5.1875,18.75,45.75,12.4375,-24.4375,165.75,0
1776973033.888,9.1099,0.3759,-1.5658,0.2633,0.5092,0.1338,-114.15,-7.65,37.5,9.56,-1.2378,0.6273,0.801,-0.4133,-0.3509,-90.9,16.5,-17.85,-3.17,-2.57,-8.64,-0.2662,0.1931,-0.8399,5.1875,18.75,45.75,11.9375,-24.25,165.625,0
1776973033.893,9.1099,0.3759,-1.5658,0.2633,0.5092,0.1338,-113.85,-10.2,38.25,9.56,-1.2378,0.6273,0.801,-0.4133,-0.3509,-90.9,16.5,-17.85,-3.82,-2.72,-8.44,-0.2498,0.1647,-0.8988,5.1875,18.75,45.75,11.9375,-24.25,165.625,0
1776973033.898,9.6295,0.9577,-0.7733,0.3722,0.5444,0.1799,-113.85,-10.2,38.25,9.5265,-1.0894,0.2897,0.769,-0.3954,-0.3584,-88.35,17.55,-17.4,-3.82,-2.72,-8.44,-0.1996,0.1418,-0.949,5.1875,18.75,45.75,11.375,-24.0,165.5625,0
1776973033.904,9.6295,0.9577,-0.7733,0.3722,0.5444,0.1799,-114.3,-9.3,37.05,9.5002,-1.2378,0.5483,0.769,-0.3954,-0.3584,-88.35,17.55,-17.4,-3.97,-2.95,-8.23,-0.1996,0.1418,-0.949,5.1875,18.75,45.75,10.8125,-23.8125,165.4375,0
1776973033.913,9.6199,0.9481,-0.3472,0.2777,0.5217,0.2036,-112.95,-10.05,35.85,9.5002,-1.2378,0.5483,0.8743,-0.4088,-0.3885,-89.1,16.35,-17.7,-3.84,-3.16,-7.89,-0.1691,0.1276,-0.9981,5.1875,18.75,45.75,10.8125,-23.8125,165.4375,0
1776973033.923,9.1985,0.7278,-0.1604,0.2742,0.534,0.2148,-111.75,-11.55,35.25,9.2009,-1.221,0.7566,0.98,-0.4082,-0.4133,-86.7,16.2,-18.6,-3.42,-2.75,-7.19,-0.1909,0.1014,-1.0254,5.1875,18.75,45.75,10.25,-23.625,165.25,0
1776973033.928,8.7724,0.5555,0.0934,0.3198,0.5905,0.2273,-111.75,-11.55,35.25,9.1171,-1.2881,0.6823,0.984,-0.4037,-0.4338,-86.7,16.2,-18.6,-3.42,-2.75,-7.19,-0.1909,0.1014,-1.0254,5.1875,18.75,45.75,10.25,-23.625,165.25,0
1776973033.933,8.7724,0.5555,0.0934,0.3198,0.5905,0.2273,-111.75,-11.55,35.25,9.3565,-1.3838,0.6728,0.984,-0.4037,-0.4338,-86.7,16.2,-18.6,-3.17,-2.61,-6.83,-0.2214,0.0458,-1.045,3.375,18.375,46.5625,9.625,-23.4375,165.1875,0
1776973033.937,8.8992,0.407,-0.2011,0.3232,0.6656,0.2582,-111.75,-11.55,35.25,9.3565,-1.3838,0.6728,0.9654,-0.4319,-0.4413,-87.75,16.95,-20.1,-3.17,-2.61,-6.83,-0.2214,0.0458,-1.045,3.375,18.375,46.5625,9.625,-23.4375,165.1875,0
1776973033.943,8.8992,0.407,-0.2011,0.3232,0.6656,0.2582,-111.45,-9.3,34.8,9.5696,-1.4916,0.5555,0.9654,-0.4319,-0.4413,-87.75,16.95,-20.1,-3.33,-2.18,-6.5,-0.204,-0.0458,-1.0636,3.375,18.375,46.5625,9.0,-23.3125,165.0,0
1776973033.951,9.2871,0.2658,-0.7518,0.3864,0.6923,0.3043,-111.75,-7.5,34.5,9.5696,-1.4916,0.5555,0.9292,-0.4293,-0.4501,-87.75,16.95,-20.1,-3.93,-1.62,-7.23,-0.168,-0.1734,-1.0919,3.375,18.375,46.5625,8.375,-23.25,164.875,0
1776973033.955,9.4763,0.2083,-1.0822,0.4666,0.7309,0.3627,-111.75,-7.5,34.5,9.7803,-1.7119,0.5076,0.8871,-0.4128,-0.4514,-87.6,17.55,-19.95,-3.93,-1.62,-7.23,-0.168,-0.1734,-1.0919,3.375,18.375,46.5625,7.6875,-23.1875,164.5625,0
1776973033.963,9.4763,0.2083,-1.0822,0.4666,0.7309,0.3627,-110.7,-6.3,34.8,10.0437,-1.8579,1.4246,0.9273,-0.3912,-0.4263,-87.6,17.55,-19.95,-3.84,-3.07,-6.27,0.0,-0.2171,-1.1596,3.375,18.375,46.5625,7.0625,-23.1875,164.1875,0
1776973033.973,10.0724,0.2682,-1.1181,0.5356,0.7573,0.4218,-109.65,-7.8,34.5,9.7636,-1.221,0.9337,0.8327,-0.2249,-0.4032,-87.3,17.1,-21.0,-11.97,-7.95,-11.48,0.1462,-0.3218,-1.1803,3.375,18.375,46.5625,7.0625,-23.1875,164.1875,0
1776973033.978,10.9511,0.6129,-1.2713,0.6195,0.6923,0.4325,-109.65,-7.8,34.5,9.7636,-1.221,0.9337,0.8327,-0.2249,-0.4032,-88.8,18.3,-21.45,-11.97,-7.95,-11.48,0.1462,-0.3218,-1.1803,2.6875,17.25,46.1875,6.625,-23.5625,164.5,0
1776973033.983,10.9511,0.6129,-1.2713,0.7008,0.5534,0.3272,-109.5,-7.95,34.35,8.6215,-2.2841,0.8452,0.7565,-0.0141,-0.2904,-88.8,18.3,-21.45,-12.38,-1.46,-11.86,-0.8508,-0.7778,-0.5203,2.6875,17.25,46.1875,6.625,-23.5625,164.5,0
1776973033.988,11.0229,1.1372,-1.6592,0.7008,0.5534,0.3272,-109.5,-7.95,34.35,8.6215,-2.2841,0.8452,0.7565,-0.0141,-0.2904,-86.85,18.3,-21.75,-12.38,-1.46,-11.86,-0.8508,-0.7778,-0.5203,2.6875,17.25,46.1875,6.125,-23.875,164.8125,0
1776973033.993,11.382,1.2354,-1.3096,0.6616,0.5175,0.2094,-109.5,-7.95,34.35,9.2799,-2.5259,2.9544,0.7501,0.2819,-0.2129,-86.85,18.3,-21.75,-9.77,-1.51,-9.4,-0.8508,-0.7778,-0.5203,2.6875,17.25,46.1875,6.125,-23.875,164.8125,0
1776973033.999,11.382,1.2354,-1.3096,0.6616,0.5175,0.2094,-109.5,-7.95,34.35,9.2799,-2.5259,2.9544,0.7501,0.2819,-0.2129,-86.85,18.3,-21.75,-2.95,-0.87,-9.2,-0.6283,-0.1418,-0.5236,2.6875,17.25,46.1875,5.75,-23.875,165.0,0
1776973034.004,11.0038,0.4764,-0.8906,0.4764,0.4719,0.1263,-110.85,-8.7,35.4,9.9359,-1.8699,1.6448,0.1676,0.2963,-0.3216,-86.85,18.3,-21.75,-2.95,-0.87,-9.2,-0.6283,-0.1418,-0.5236,2.6875,17.25,46.1875,5.75,-23.75,165.25,0
1776973034.013,10.3046,-0.261,-0.4166,0.4261,0.4972,0.0424,-111.45,-9.0,35.85,10.3525,-1.2665,-0.1413,-0.4138,0.1474,-0.4572,-88.8,18.0,-21.45,-3.32,-4.37,-8.47,-0.4418,0.2913,-0.0175,2.6875,17.25,46.1875,5.6875,-23.6875,165.5625,0
1776973034.023,10.1418,-0.9074,0.4429,0.3272,0.5375,0.0035,-110.7,-9.75,36.6,10.5943,-1.4198,-0.68,-0.781,0.0954,-0.4772,-88.8,18.0,-21.45,-2.38,-3.04,-7.95,-0.4352,0.0993,0.0425,2.6875,17.25,46.1875,5.6875,-23.6875,165.5625,0
1776973034.028,10.1418,-0.9074,0.4429,0.3272,0.5375,0.0035,-110.7,-9.75,36.6,10.5943,-1.4198,-0.68,-0.781,0.0954,-0.4772,-89.1,18.75,-21.75,-2.38,-3.04,-7.95,-0.4352,0.0993,0.0425,2.6875,17.25,46.1875,5.6875,-23.6875,165.5625,0
1776973034.033,10.0987,-1.2115,0.7661,0.097,0.5002,-0.0064,-112.2,-8.25,35.85,11.236,-1.889,-1.7957,-0.9705,-0.0805,-0.4325,-89.1,18.75,-21.75,-1.99,0.26,-9.13,-0.4265,-0.1767,0.1069,2.25,16.1875,46.1875,5.6875,-23.8125,165.8125,0
1776973034.038,10.0987,-1.2115,0.7661,0.097,0.5002,-0.0064,-112.2,-8.25,35.85,11.236,-1.889,-1.7957,-0.9705,-0.0805,-0.4325,-88.65,17.7,-21.6,-1.99,0.26,-9.13,-0.4265,-0.1767,0.1069,2.25,16.1875,46.1875,5.6875,-23.8125,165.8125,0
1776973034.043,10.0724,-1.3048,0.9002,-0.2462,0.4671,0.0013,-112.2,-8.25,35.85,11.236,-1.5131,-2.4684,-0.9433,-0.1919,-0.3944,-88.65,17.7,-21.6,-3.48,2.01,-9.83,-0.3338,-0.2727,0.0687,2.25,16.1875,46.1875,5.6875,-23.9375,166.0,0
1776973034.051,10.0724,-1.3048,0.9002,-0.6078,0.4053,0.0048,-112.35,-9.45,35.4,10.4291,-0.4764,-1.2546,-1.0611,-0.1569,-0.344,-88.8,18.3,-21.0,-3.82,-0.32,-9.14,-0.1462,-0.3349,0.0371,2.25,16.1875,46.1875,5.6875,-24.125,166.0625,0
1776973034.056,10.3094,-1.0032,0.1341,-0.6078,0.4053,0.0048,-112.35,-9.45,35.4,10.4291,-0.4764,-1.2546,-1.0611,-0.1569,-0.344,-88.8,18.3,-21.0,-3.82,-0.32,-9.14,-0.1462,-0.3349,0.0371,2.25,16.1875,46.1875,5.6875,-24.375,166.0625,0
1776973034.063,10.3046,-0.5171,-0.826,-0.7402,0.3952,0.0005,-109.95,-9.75,34.2,9.9048,0.8882,-1.0894,-1.1794,-0.0887,-0.34,-88.35,19.95,-19.95,-3.24,-4.75,-8.07,-0.0535,-0.396,0.0644,2.25,16.1875,46.1875,5.6875,-24.625,166.125,0
1776973034.073,10.1682,0.3065,-1.4605,-0.6728,0.3805,0.0141,-110.25,-7.2,33.6,9.5624,1.324,-1.6089,-0.7525,-0.0128,-0.3608,-87.6,22.2,-20.7,-4.42,-3.01,-8.88,-0.0698,-0.4854,0.1134,2.25,16.1875,46.1875,5.6875,-24.625,166.125,0
1776973034.078,10.1682,0.3065,-1.4605,-0.6728,0.3805,0.0141,-109.65,-6.3,33.6,9.3805,0.9673,-1.7023,-0.0877,0.0823,-0.4029,-88.2,20.1,-20.85,-4.42,-3.01,-8.88,-0.0698,-0.4854,0.1134,2.25,16.1875,46.1875,5.6875,-24.625,166.125,0
1776973034.083,10.0652,0.8236,-1.4437,-0.457,0.3112,0.0144,-109.65,-6.3,30.6,9.3805,0.9673,-1.7023,-0.0877,0.0823,-0.4029,-88.2,20.1,-20.85,-5.11,-1.32,-9.29,-0.1069,-0.42,0.1047,2.6875,15.0625,46.1875,5.75,-24.875,166.1875,0
1776973034.088,10.0652,0.8236,-1.4437,-0.457,0.3112,0.0144,-107.85,-7.05,31.35,9.3805,0.0383,-1.4485,0.2443,0.1026,-0.4447,-88.2,20.1,-20.85,-5.11,-1.32,-9.29,-0.1069,-0.42,0.1047,2.6875,15.0625,46.1875,5.75,-24.875,166.1875,0
1776973034.093,10.1562,0.7542,-0.9601,-0.2305,0.2348,-0.0088,-107.85,-7.05,31.35,9.3805,0.0383,-1.4485,0.2443,0.1026,-0.4447,-88.2,20.1,-20.85,-4.55,-1.88,-8.88,-0.0818,-0.2662,0.0491,2.6875,15.0625,46.1875,5.75,-25.0,166.1875,0
1776973034.099,9.8976,0.2251,-0.5148,-0.1002,0.1713,-0.0163,-107.85,-7.05,31.35,9.4188,-0.6081,-1.0558,0.3661,0.118,-0.4764,-88.65,22.5,-20.1,-4.14,-2.07,-8.77,-0.0076,-0.1494,0.0109,2.6875,15.0625,46.1875,5.6875,-25.125,166.1875,0
1776973034.104,9.8976,0.2251,-0.5148,-0.1002,0.1713,-0.0163,-107.85,-7.05,31.35,9.4188,-0.6081,-1.0558,0.3661,0.118,-0.4764,-88.65,22.5,-20.1,-4.14,-2.07,-8.77,-0.0076,-0.1494,0.0109,2.6875,15.0625,46.1875,5.6875,-25.1875,166.125,0
1776973034.113,9.6606,-0.0192,-0.2658,-0.0402,0.1628,0.0184,-108.0,-4.95,28.95,9.6079,-1.2091,-0.4597,0.4245,0.1079,-0.4591,-87.0,21.3,-21.6,-4.01,-1.96,-8.73,0.0633,-0.1418,0.0022,2.6875,15.0625,46.1875,5.75,-25.25,166.0625,0
1776973034.123,9.5409,0.2753,0.0622,0.0234,0.2113,0.1007,-107.85,-3.3,31.35,9.9072,-1.6017,0.0718,0.4199,0.0861,-0.4519,-87.0,22.8,-20.1,-4.43,-2.14,-8.82,0.0993,-0.1691,-0.0033,2.6875,15.0625,46.1875,5.75,-25.25,166.0625,0
1776973034.128,9.5409,0.2753,0.0622,0.0994,0.2635,0.1564,-106.95,-5.4,30.75,9.9216,-1.8579,0.5028,0.2952,0.0671,-0.469,-88.35,21.0,-20.7,-4.43,-2.14,-8.82,0.0993,-0.1691,-0.0033,2.25,14.375,47.375,5.6875,-25.375,166.0,0
1776973034.133,9.402,0.51,0.3615,0.0994,0.2635,0.1564,-106.95,-5.4,30.75,9.9216,-1.8579,0.5028,0.2952,0.0671,-0.469,-88.35,21.0,-20.7,-4.47,-2.18,-8.74,0.1156,-0.1549,-0.0164,2.25,14.375,47.375,5.6875,-25.375,166.0,0
1776973034.138,9.4308,0.9553,0.6297,0.1873,0.2819,0.2076,-108.6,-4.8,29.1,9.8162,-1.5993,0.9768,0.0927,0.064,-0.4954,-86.85,22.65,-21.75,-4.47,-2.18,-8.74,0.1156,-0.1549,-0.0164,2.25,14.375,47.375,5.6875,-25.375,165.9375,0
1776973034.143,9.4308,0.9553,0.6297,0.1873,0.2819,0.2076,-108.6,-4.8,29.1,9.8162,-1.5993,0.9768,0.0927,0.064,-0.4954,-86.85,22.65,-21.75,-4.38,-2.34,-8.68,0.1374,-0.1058,-0.0316,2.25,14.375,47.375,5.6875,-25.375,165.9375,0
1776973034.148,9.3709,1.1851,0.9529,0.3046,0.2896,0.2529,-108.6,-4.8,29.1,9.8258,-1.0463,1.1301,-0.1452,0.0626,-0.5033,-87.45,23.25,-21.15,-4.38,-2.34,-8.68,0.1484,-0.0742,-0.0393,2.25,14.375,47.375,5.6875,-25.4375,165.8125,0
1776973034.154,9.3709,1.1851,0.9529,0.3046,0.2896,0.2529,-108.6,-4.8,29.1,9.9072,-0.3807,0.9337,-0.1452,0.0626,-0.5033,-87.45,23.25,-21.15,-4.38,-2.5,-8.62,0.1484,-0.0742,-0.0393,2.25,14.375,47.375,5.6875,-25.4375,165.75,0
1776973034.163,9.2608,1.2234,1.5227,0.3736,0.3264,0.2779,-108.6,-4.8,29.1,9.7683,0.3328,0.6823,-0.2811,0.0618,-0.5076,-87.45,23.25,-21.15,-4.35,-2.46,-8.58,0.1418,-0.0687,-0.0393,2.25,14.375,47.375,5.6875,-25.4375,165.75,0
1776973034.173,9.2177,0.9888,1.9704,0.4498,0.3728,0.2915,-106.35,-1.5,29.85,9.6798,0.7566,0.5698,-0.3,0.0448,-0.4879,-87.6,21.45,-20.7,-4.35,-2.52,-8.55,0.1178,-0.0535,-0.0393,2.25,14.375,47.375,5.6875,-25.5,165.625,0
1776973034.178,9.2656,0.5411,2.0039,0.4431,0.3802,0.3019,-106.5,-1.2,30.0,9.6798,0.7566,0.5698,-0.2369,0.0464,-0.49,-87.6,21.45,-20.7,-4.35,-2.52,-8.55,0.1178,-0.0535,-0.0393,2.25,14.375,47.375,5.6875,-25.5,165.625,0
1776973034.183,9.2656,0.5411,2.0039,0.4431,0.3802,0.3019,-106.5,-1.2,30.0,9.6654,0.7207,0.4118,-0.1375,0.0458,-0.4908,-87.6,21.45,-20.7,-4.32,-2.55,-8.54,0.0938,-0.0284,-0.0404,2.25,15.5,46.5625,5.6875,-25.5,165.5625,0
1776973034.188,9.1961,0.237,1.8771,0.3882,0.3792,0.3355,-106.8,-2.25,29.55,9.6654,0.7207,0.4118,-0.1375,0.0458,-0.4908,-87.75,23.25,-21.9,-4.32,-2.55,-8.54,0.0938,-0.0284,-0.0404,2.25,15.5,46.5625,5.6875,-25.5,165.5625,0
1776973034.193,9.1961,0.237,1.8771,0.3882,0.3792,0.3355,-106.8,-2.25,29.55,9.7109,0.6033,0.091,-0.053,0.0373,-0.4898,-87.75,23.25,-21.9,-4.25,-2.63,-8.54,0.0665,-0.012,-0.0393,2.25,15.5,46.5625,5.625,-25.5,165.5625,0
1776973034.2,9.0022,0.0934,1.6376,0.2952,0.3797,0.3605,-108.15,1.05,28.5,9.7109,0.6033,0.091,-0.053,0.0373,-0.4898,-88.35,22.95,-20.7,-4.25,-2.51,-8.56,0.0458,-0.0055,-0.0295,2.25,15.5,46.5625,5.625,-25.5,165.5,0
1776973034.205,9.0022,0.0934,1.6376,0.2952,0.3797,0.3605,-108.15,1.05,28.5,9.8162,0.4453,-0.1772,0.0264,0.0192,-0.4999,-88.35,22.95,-20.7,-4.25,-2.51,-8.56,0.0458,-0.0055,-0.0295,2.25,15.5,46.5625,5.625,-25.5,165.4375,0
1776973034.214,9.0501,0.0575,1.1468,0.2161,0.3725,0.4151,-108.15,1.05,28.5,9.7205,0.5411,-0.2897,0.0584,0.0213,-0.4919,-87.6,23.4,-19.5,-4.23,-2.44,-8.53,0.0262,0.0,-0.0295,2.25,15.5,46.5625,5.625,-25.5,165.4375,0
1776973034.221,9.1243,0.1006,0.644,0.1316,0.3675,0.4732,-103.5,-0.75,28.8,9.8689,0.6847,-0.3304,0.0584,0.0213,-0.4919,-88.05,23.4,-21.75,-4.24,-2.33,-8.67,0.024,0.0065,-0.0284,2.25,15.5,46.5625,5.625,-25.5,165.4375,0
1776973034.225,9.2464,0.2849,0.2658,0.0472,0.3539,0.5345,-103.5,-0.75,28.8,9.8689,0.6847,-0.3304,0.0616,0.0115,-0.4914,-88.05,23.4,-21.75,-4.24,-2.33,-8.67,0.024,0.0065,-0.0284,2.25,15.5,46.5625,5.625,-25.5,165.4375,0
1776973034.23,9.2464,0.2849,0.2658,0.0472,0.3539,0.5345,-103.8,-1.05,25.95,9.7348,0.8715,-0.2394,0.0616,0.0115,-0.4914,-88.05,23.4,-21.75,-4.3,-2.35,-8.72,0.0338,0.0175,-0.0349,3.0,15.0625,47.375,5.625,-25.5,165.4375,0
1776973034.235,9.2512,0.5602,0.1772,-0.0005,0.3008,0.5716,-103.8,-1.05,25.95,9.7348,0.8715,-0.2394,0.0863,0.0027,-0.4999,-88.05,23.4,-21.75,-4.3,-2.35,-8.72,0.0338,0.0175,-0.0349,3.0,15.0625,47.375,5.625,-25.5,165.4375,0
1776973034.24,9.2512,0.5602,0.1772,-0.0005,0.3008,0.5716,-103.05,0.3,26.7,9.5074,1.0511,-0.3136,0.0863,0.0027,-0.4999,-88.2,24.75,-21.15,-4.25,-2.34,-8.66,0.0502,0.0251,-0.0415,3.0,15.0625,47.375,5.5625,-25.4375,165.375,0
1776973034.245,9.3039,0.6991,0.3424,-0.0024,0.2265,0.5806,-103.05,0.3,26.7,9.5074,1.0511,-0.3136,0.1194,0.0141,-0.4994,-88.2,24.75,-21.15,-4.25,-2.34,-8.66,0.0502,0.0251,-0.0415,3.0,15.0625,47.375,5.5625,-25.4375,165.375,0
1776973034.25,9.3039,0.6991,0.3424,-0.0024,0.2265,0.5806,-103.65,-0.15,25.05,9.3781,1.3024,-0.2729,0.1194,0.0141,-0.4994,-88.2,24.75,-21.15,-4.18,-2.34,-8.67,0.0622,0.024,-0.0458,3.0,15.0625,47.375,5.5625,-25.4375,165.3125,0
1776973034.255,9.7516,0.984,0.7542,0.0695,0.2723,0.558,-103.65,-0.15,25.05,9.3781,1.3024,-0.2729,0.1503,0.025,-0.493,-88.2,24.75,-21.15,-4.18,-2.34,-8.67,0.0622,0.024,-0.0458,3.0,15.0625,47.375,5.5625,-25.4375,165.25,0
1776973034.263,9.7516,0.984,0.7542,0.2294,0.2542,0.4999,-103.65,-0.15,25.05,9.3685,1.4126,-0.5531,0.1561,0.0608,-0.462,-86.85,25.8,-21.45,-4.2,-2.44,-8.53,0.0687,0.024,-0.0491,3.0,15.0625,47.375,5.5625,-25.4375,165.25,0
1776973034.27,10.7069,1.1037,1.2282,0.2294,0.2542,0.4999,-103.65,-0.15,25.05,9.5313,1.4605,-0.6608,0.1668,0.0871,-0.4287,-86.7,24.75,-21.15,-4.11,-2.47,-8.51,0.0676,0.0305,-0.0502,3.0,15.0625,47.375,5.5,-25.375,165.1875,0
1776973034.275,11.2336,1.3862,1.2881,0.478,0.194,0.3834,-103.65,-0.15,25.05,9.5313,1.4605,-0.6608,0.1668,0.0871,-0.4287,-86.7,24.75,-21.15,-4.11,-2.47,-8.51,0.0676,0.0305,-0.0502,3.0,15.0625,47.375,5.5,-25.375,165.1875,0
1776973034.279,11.2336,1.3862,1.2881,0.478,0.194,0.3834,-102.0,-2.25,23.4,9.6534,1.4509,-0.6752,0.13,0.1207,-0.4026,-86.55,25.35,-20.25,-4.1,-2.47,-8.48,0.0622,0.0316,-0.0425,3.6875,15.5,46.1875,5.5,-25.375,165.1875,0
1776973034.284,11.3509,1.5323,1.2953,0.6419,0.134,0.2401,-102.0,-2.25,23.4,9.6534,1.4509,-0.6752,0.13,0.1207,-0.4026,-86.55,25.35,-20.25,-4.1,-2.47,-8.48,0.0622,0.0316,-0.0425,3.6875,15.5,46.1875,5.5,-25.375,165.1875,0
1776973034.289,11.3509,1.5323,1.2953,0.6419,0.134,0.2401,-103.05,-3.0,23.1,9.8521,1.3479,-0.5387,0.1282,0.1442,-0.3896,-86.7,26.7,-21.6,-4.1,-2.47,-8.48,0.0633,0.0164,-0.0415,3.6875,15.5,46.1875,5.5,-25.375,165.125,0
1776973034.294,10.6063,1.3791,0.6321,0.785,0.0648,0.1172,-103.05,-3.0,23.1,9.8521,1.3479,-0.5387,0.1282,0.1442,-0.3896,-86.7,26.7,-21.6,-4.24,-2.31,-8.68,0.0633,0.0164,-0.0415,3.6875,15.5,46.1875,5.5,-25.375,165.125,0
1776973034.299,10.6063,1.3791,0.6321,0.785,0.0648,0.1172,-102.75,-2.55,22.05,9.7037,1.336,-0.5483,0.1191,0.1418,-0.348,-86.25,26.4,-20.85,-4.24,-2.31,-8.68,0.0731,0.0131,-0.0458,3.6875,15.5,46.1875,5.5,-25.3125,165.0625,0
1776973034.304,9.5768,1.3168,0.2753,0.8865,0.0935,0.0152,-103.65,-4.2,22.5,9.7037,1.336,-0.5483,0.1191,0.1418,-0.348,-86.25,26.4,-20.85,-4.21,-2.29,-8.65,0.0731,0.0131,-0.0458,3.6875,15.5,46.1875,5.5,-25.3125,165.0625,0
1776973034.313,9.2608,1.2043,0.2682,0.8977,0.1892,-0.0408,-103.65,-4.2,22.5,9.4739,1.5514,-0.4357,0.0626,0.1769,-0.3171,-85.95,25.5,-19.8,-4.13,-2.39,-8.56,0.072,0.012,-0.048,3.6875,15.5,46.1875,5.4375,-25.3125,165.0,0
1776973034.318,9.2608,1.2043,0.2682,0.8977,0.1892,-0.0408,-103.65,-4.2,22.5,9.414,1.7789,-0.4286,-0.0008,0.1535,-0.3078,-85.95,25.5,-19.8,-4.13,-2.39,-8.56,0.0644,0.0196,-0.0491,3.6875,15.5,46.1875,5.4375,-25.3125,164.9375,0
1776973034.325,9.4499,1.2306,0.4764,0.8068,0.2465,-0.0562,-104.55,-5.55,22.8,9.414,1.7789,-0.4286,-0.0008,0.1535,-0.3078,-85.95,25.5,-19.8,-4.13,-2.46,-8.5,0.0644,0.0196,-0.0491,3.6875,15.5,46.1875,5.4375,-25.3125,164.9375,0
1776973034.329,9.4499,1.2306,0.4764,0.8068,0.2465,-0.0562,-104.55,-5.55,22.8,9.3254,1.9321,-0.431,0.0045,0.1396,-0.2819,-86.55,26.55,-21.0,-4.13,-2.46,-8.5,0.0644,0.0196,-0.0491,3.375,15.5,46.1875,5.4375,-25.25,164.9375,0
1776973034.334,9.5553,1.1229,0.4932,0.6635,0.2534,-0.0453,-104.85,-5.25,23.1,9.3254,1.9321,-0.431,0.0045,0.1396,-0.2819,-86.55,26.55,-21.0,-4.02,-2.56,-8.43,0.0578,0.0196,-0.0415,3.375,15.5,46.1875,5.4375,-25.25,164.9375,0
1776973034.339,9.5553,1.1229,0.4932,0.6635,0.2534,-0.0453,-104.85,-5.25,23.1,9.4308,1.9872,-0.3041,0.0488,0.1641,-0.2499,-86.55,26.55,-21.0,-4.02,-2.56,-8.43,0.0578,0.0196,-0.0415,3.375,15.5,46.1875,5.4375,-25.25,164.875,0
1776973034.344,9.6319,0.9385,0.4693,0.5092,0.2462,-0.029,-105.75,-4.95,22.5,9.4308,1.9872,-0.3041,0.0488,0.1641,-0.2499,-86.55,26.55,-21.75,-4.03,-2.58,-8.44,0.0425,0.0109,-0.0284,3.375,15.5,46.1875,5.4375,-25.25,164.875,0
1776973034.349,9.6319,0.9385,0.4693,0.5092,0.2462,-0.029,-105.75,-4.95,22.5,9.596,1.743,-0.1676,0.1138,0.1727,-0.2257,-86.1,26.55,-19.5,-4.03,-2.58,-8.44,0.0327,0.0022,-0.0185,3.375,15.5,46.1875,5.4375,-25.25,164.8125,0
1776973034.354,9.8162,0.6225,0.4884,0.396,0.231,-0.0184,-104.55,-5.55,23.4,9.596,1.743,-0.1676,0.1138,0.1727,-0.2257,-86.1,26.55,-19.5,-4.03,-2.52,-8.46,0.0327,0.0022,-0.0185,3.375,15.5,46.1875,5.4375,-25.25,164.8125,0
1776973034.364,9.8402,0.4956,0.7997,0.3251,0.1729,-0.0157,-106.2,-6.45,23.25,9.7444,1.5658,0.316,0.1823,0.1833,-0.2012,-86.85,26.55,-19.5,-4.05,-2.47,-8.49,0.012,-0.0087,-0.0065,3.375,15.5,46.1875,5.4375,-25.25,164.8125,0
1776973034.37,9.8402,0.4956,0.7997,0.2918,0.0773,0.0051,-106.2,-6.45,23.25,9.833,1.4581,0.5124,0.1652,0.1897,-0.1745,-86.25,25.95,-19.8,-4.19,-2.44,-8.54,-0.0011,-0.0175,-0.0011,3.375,15.5,46.1875,5.375,-25.25,164.8125,0
1776973034.375,9.6654,0.4741,0.9888,0.2918,0.0773,0.0051,-106.2,-6.45,23.25,9.8019,1.3815,0.4717,0.1652,0.1897,-0.1745,-86.25,25.95,-19.8,-4.19,-2.44,-8.54,-0.0011,-0.0175,-0.0011,3.375,15.5,46.1875,5.375,-25.25,164.8125,0
1776973034.38,9.5002,0.4645,1.0223,0.198,-0.0011,0.0322,-106.2,-6.45,23.25,9.8019,1.3815,0.4717,0.1418,0.1841,-0.146,-85.8,26.1,-20.7,-4.23,-2.48,-8.58,-0.0055,-0.0207,0.0,3.0,14.6875,46.1875,5.375,-25.25,164.8125,0
1776973034.385,9.5002,0.4645,1.0223,0.198,-0.0011,0.0322,-107.1,-7.05,23.85,9.6534,1.3599,0.2346,0.1418,0.1841,-0.146,-85.8,26.1,-20.7,-4.23,-2.48,-8.58,-0.0055,-0.0207,0.0,3.0,14.6875,46.1875,5.375,-25.25,164.8125,0
1776973034.394,9.4379,0.4118,1.0319,-0.0056,-0.0171,0.0592,-105.15,-4.95,22.95,9.6271,1.2857,-0.012,0.1116,0.1793,-0.1292,-85.8,26.1,-20.7,-4.13,-2.6,-8.46,-0.0076,-0.0196,-0.0033,3.0,14.6875,46.1875,5.375,-25.25,164.8125,0
1776973034.402,9.6175,0.3974,1.2067,-0.1612,0.0424,0.0746,-105.15,-4.95,22.95,9.6271,1.2857,-0.012,0.1074,0.1753,-0.1204,-86.55,27.75,-20.25,-4.07,-2.52,-8.49,-0.0098,-0.0196,0.0044,3.0,14.6875,46.1875,5.375,-25.3125,164.75,0
1776973034.407,9.6175,0.3974,1.2067,-0.1612,0.0424,0.0746,-104.85,-7.5,23.1,9.6007,1.3455,0.1676,0.122,0.1807,-0.0941,-86.55,27.75,-20.25,-4.07,-2.52,-8.49,-0.0098,-0.0196,0.0044,3.0,14.6875,46.1875,5.375,-25.3125,164.75,0
1776973034.414,9.8234,0.4094,1.2953,-0.206,0.0895,0.0701,-104.25,-4.5,22.35,9.7899,1.6233,0.2011,0.0733,0.1777,-0.0949,-86.55,27.75,-20.25,-4.1,-2.44,-8.51,-0.012,-0.0284,0.0098,3.0,14.6875,46.1875,5.375,-25.3125,164.75,0
1776973034.423,10.1155,0.6177,1.4557,-0.1815,0.1276,0.0405,-104.25,-4.5,22.35,9.8426,1.585,0.1772,0.0733,0.1777,-0.0949,-85.8,27.3,-19.5,-4.11,-2.45,-8.52,-0.0175,-0.0436,0.0153,3.0,14.6875,46.1875,5.375,-25.3125,164.75,0
1776973034.428,10.1155,0.6177,1.4557,-0.0853,0.0946,0.0056,-104.25,-4.5,22.35,9.8426,1.585,0.1772,0.0288,0.1785,-0.1013,-85.8,27.3,-19.5,-4.11,-2.45,-8.52,-0.0175,-0.0436,0.0153,3.0,14.6875,46.1875,5.375,-25.3125,164.75,0
1776973034.433,10.3789,0.6512,1.5036,-0.0853,0.0946,0.0056,-102.75,-2.55,21.0,9.7348,1.5778,0.3041,0.0288,0.1785,-0.1013,-86.55,27.0,-19.2,-4.39,-2.34,-8.69,-0.0098,-0.0393,0.012,3.0,15.5,46.5625,5.375,-25.375,164.75,0
1776973034.437,10.3789,0.6512,1.5036,-0.0128,0.0554,-0.0344,-102.75,-2.55,21.0,9.7348,1.5778,0.3041,0.0634,0.1567,-0.0847,-86.55,27.0,-19.2,-4.39,-2.34,-8.69,-0.0098,-0.0393,0.012,3.0,15.5,46.5625,5.375,-25.375,164.75,0
1776973034.442,10.2831,0.7805,1.3527,-0.0128,0.0554,-0.0344,-102.6,-3.45,20.1,9.7061,1.3001,0.1652,0.0634,0.1567,-0.0847,-85.2,25.5,-19.35,-4.19,-2.38,-8.57,0.0033,-0.0196,0.0022,3.0,15.5,46.5625,5.375,-25.375,164.75,0
1776973034.447,10.2831,0.7805,1.3527,0.0882,0.052,-0.0778,-102.6,-3.45,20.1,9.7061,1.3001,0.1652,0.0584,0.1769,-0.0549,-85.2,25.5,-19.35,-4.19,-2.38,-8.57,0.0033,-0.0196,0.0022,3.0,15.5,46.5625,5.375,-25.375,164.75,0
1776973034.454,10.0461,0.7709,1.1732,0.0882,0.052,-0.0778,-101.7,-1.8,19.2,9.7779,1.0678,0.3328,0.06,0.178,-0.0378,-85.2,27.9,-19.05,-4.19,-2.46,-8.57,0.0044,-0.0131,0.0,3.0,15.5,46.5625,5.375,-25.375,164.75,0
1776973034.464,9.845,0.7733,1.063,0.1713,0.0783,-0.0999,-100.8,-0.9,19.65,9.7492,1.063,0.4573,0.0421,0.1759,-0.029,-85.2,27.9,-19.05,-4.14,-2.39,-8.53,0.0011,-0.0098,-0.0022,3.0,15.5,46.5625,5.375,-25.375,164.75,0
1776973034.471,9.7157,0.8954,0.9601,0.2705,0.1002,-0.093,-100.8,-0.9,19.65,9.6893,1.075,0.4597,0.0421,0.1759,-0.029,-86.55,26.1,-17.7,-4.17,-2.41,-8.53,-0.0011,-0.012,0.0,3.0,15.5,46.5625,5.375,-25.375,164.75,0
1776973034.476,9.7157,0.8954,0.9601,0.2705,0.1002,-0.093,-100.5,0.0,17.1,9.6893,1.075,0.4597,0.0109,0.1663,-0.0226,-86.55,26.1,-17.7,-4.17,-2.41,-8.53,-0.0011,-0.012,0.0,3.0,15.5,46.5625,5.375,-25.375,164.75,0
1776973034.481,9.5241,1.063,1.1109,0.3741,0.0957,-0.0866,-100.5,0.0,17.1,9.6726,1.1444,0.3879,0.0109,0.1663,-0.0226,-86.55,26.1,-17.7,-4.18,-2.43,-8.52,-0.0011,-0.0131,0.0022,3.375,15.5,46.1875,5.375,-25.375,164.75,0
1776973034.485,9.5241,1.063,1.1109,0.3741,0.0957,-0.0866,-100.5,0.0,17.1,9.6726,1.1444,0.3879,0.0234,0.1871,-0.0048,-86.55,26.1,-17.7,-4.18,-2.43,-8.52,-0.0011,-0.0131,0.0022,3.375,15.5,46.1875,5.375,-25.375,164.75,0
1776973034.494,9.4834,1.0989,1.0415,0.4117,0.1276,-0.0578,-100.95,0.0,18.15,9.5792,1.2306,0.067,0.0338,0.1897,0.0027,-85.2,26.7,-19.35,-4.19,-2.54,-8.49,-0.0044,-0.0098,0.0011,3.375,15.5,46.1875,5.375,-25.375,164.75,0
1776973034.502,9.6103,1.0989,1.0678,0.4101,0.1455,-0.0237,-100.8,-1.95,18.3,9.5409,1.2067,0.0479,0.0658,0.2009,0.0093,-86.55,28.5,-19.5,-4.11,-2.51,-8.48,-0.0098,-0.0055,0.0033,3.375,15.5,46.1875,5.375,-25.375,164.75,0
1776973034.506,9.8019,1.1205,1.2043,0.396,0.1332,0.0053,-100.8,-1.95,18.3,9.5409,1.2067,0.0479,0.0658,0.2009,0.0093,-86.55,28.5,-19.5,-4.11,-2.51,-8.48,-0.0098,-0.0055,0.0033,3.375,15.5,46.1875,5.375,-25.375,164.75,0
1776973034.514,9.8019,1.1205,1.2043,0.396,0.1332,0.0053,-100.2,-1.05,18.15,9.651,1.2139,0.2179,0.1154,0.2004,0.0115,-86.85,26.1,-19.2,-4.11,-2.39,-8.5,-0.0164,-0.0044,0.0033,3.375,15.5,46.1875,5.375,-25.375,164.75,0
1776973034.522,9.7899,1.0199,1.2785,0.4128,0.1092,0.0333,-100.8,-1.2,17.85,9.6534,1.3551,0.1772,0.1463,0.1961,0.0274,-87.0,26.4,-19.05,-4.16,-2.4,-8.53,-0.0185,-0.0087,0.0076,3.375,15.5,46.1875,5.375,-25.375,164.75,0
1776973034.527,9.7564,1.0894,1.233,0.4602,0.0863,0.0349,-100.8,-1.2,17.85,9.6534,1.3551,0.1772,0.1463,0.1961,0.0274,-87.0,26.4,-19.05,-4.16,-2.4,-8.53,-0.0185,-0.0087,0.0076,3.375,15.5,46.1875,5.375,-25.375,164.75,0
1776973034.534,9.7564,1.0894,1.233,0.4602,0.0863,0.0349,-100.8,-1.2,17.85,9.5816,1.2474,-0.0335,0.1431,0.1996,0.0266,-87.3,28.05,-19.2,-4.12,-2.48,-8.5,-0.0164,-0.0164,0.0098,2.6875,14.6875,45.75,5.375,-25.375,164.75,0
1776973034.54,9.6486,1.075,1.1827,0.5569,0.0821,0.0378,-100.8,-1.2,17.85,9.5098,1.2953,-0.0503,0.1908,0.198,0.0418,-87.3,28.05,-19.2,-4.12,-2.48,-8.5,-0.0175,-0.0229,0.0109,2.6875,14.6875,45.75,5.375,-25.375,164.75,0
1776973034.545,9.6726,0.9266,1.0487,0.6281,0.0967,0.0498,-101.25,-1.5,19.5,9.5098,1.2953,-0.0503,0.1908,0.198,0.0418,-86.25,27.9,-19.05,-4.14,-2.51,-8.46,-0.0175,-0.0229,0.0109,2.6875,14.6875,45.75,5.375,-25.375,164.75,0
1776973034.554,9.8186,0.9864,0.9122,0.7168,0.1071,0.0685,-101.25,-2.55,18.75,9.5768,1.3455,0.1652,0.2305,0.2065,0.048,-86.25,27.9,-19.05,-4.1,-2.45,-8.46,-0.0218,-0.0284,0.0153,2.6875,14.6875,45.75,5.375,-25.375,164.75,0
1776973034.559,9.8186,0.9864,0.9122,0.7168,0.1071,0.0685,-101.25,-2.55,18.75,9.5672,1.4222,0.2298,0.2574,0.2129,0.0464,-86.25,27.9,-19.05,-4.1,-2.45,-8.46,-0.0229,-0.0327,0.0185,2.6875,14.6875,45.75,5.375,-25.4375,164.8125,0
1776973034.565,9.8761,1.087,0.8356,0.821,0.0938,0.0767,-100.35,-3.15,18.6,9.5672,1.4222,0.2298,0.2574,0.2129,0.0464,-86.85,28.05,-19.95,-4.15,-2.42,-8.5,-0.0229,-0.0327,0.0185,2.6875,14.6875,45.75,5.375,-25.4375,164.8125,0
1776973034.574,9.8713,1.0894,0.8452,0.8423,0.0685,0.0807,-100.5,-3.75,18.45,9.6726,1.2546,0.4357,0.2555,0.2209,0.0517,-86.7,26.4,-18.6,-4.15,-2.5,-8.49,-0.0218,-0.0436,0.0229,2.6875,14.6875,45.75,5.375,-25.4375,164.8125,0
1776973034.579,9.8713,1.0894,0.8452,0.8423,0.0685,0.0807,-100.5,-3.75,18.45,9.9216,1.2354,0.5148,0.2289,0.2036,0.0317,-86.7,26.4,-18.6,-4.15,-2.5,-8.49,-0.0218,-0.0436,0.0229,2.6875,14.6875,45.75,5.375,-25.4375,164.8125,0
1776973034.584,9.8258,1.0391,0.8643,0.8359,0.0488,0.0874,-100.95,-3.0,16.35,9.9216,1.2354,0.5148,0.2289,0.2036,0.0317,-87.45,27.9,-18.6,-4.06,-2.5,-8.41,-0.0196,-0.0447,0.0251,3.0,15.5,46.1875,5.375,-25.5,164.8125,0
1776973034.589,9.8258,1.0391,0.8643,0.8359,0.0488,0.0874,-100.95,-3.0,16.35,9.6031,1.0032,0.3112,0.2222,0.1655,0.0165,-87.45,27.9,-18.6,-4.06,-2.5,-8.41,-0.0196,-0.0447,0.0251,3.0,15.5,46.1875,5.375,-25.5,164.8125,0
1776973034.594,9.7588,0.8763,0.9385,0.7919,0.0453,0.0845,-100.95,-3.0,16.35,9.6031,1.0032,0.3112,0.2222,0.1655,0.0165,-86.55,26.55,-18.45,-3.94,-2.54,-8.38,-0.0153,-0.0633,0.0327,3.0,15.5,46.1875,5.375,-25.5,164.8125,0
1776973034.599,9.7588,0.8763,0.9385,0.7919,0.0453,0.0845,-100.95,-3.0,16.35,9.414,0.8428,0.589,0.2252,0.1908,0.0381,-86.55,26.55,-18.45,-3.94,-2.54,-8.38,-0.0218,-0.0949,0.0469,3.0,15.5,46.1875,5.4375,-25.5625,164.8125,0
1776973034.605,9.7564,0.5962,1.0534,0.7565,0.0565,0.0837,-100.5,-4.05,16.65,9.6606,0.7925,0.4693,0.2252,0.1908,0.0381,-86.7,26.7,-19.05,-4.22,-2.48,-8.49,-0.0218,-0.0949,0.0469,3.0,15.5,46.1875,5.4375,-25.5625,164.8125,0
1776973034.614,9.7205,0.3017,1.1301,0.6768,0.0986,0.0917,-100.05,-3.15,14.4,9.6606,0.7925,0.4693,0.2182,0.2166,0.0679,-85.8,27.0,-18.45,-4.34,-2.34,-8.53,-0.0425,-0.1014,0.0524,3.0,15.5,46.1875,5.4375,-25.625,164.8125,0
1776973034.619,9.7205,0.3017,1.1301,0.6768,0.0986,0.0917,-101.1,-3.9,14.4,9.7229,1.0127,0.4764,0.2457,0.2196,0.0621,-85.8,27.0,-18.45,-4.34,-2.34,-8.53,-0.0415,-0.096,0.0491,3.0,15.5,46.1875,5.4375,-25.6875,164.875,0
1776973034.625,9.7755,0.0431,1.1851,0.6622,0.1172,0.1026,-101.1,-3.9,16.2,9.675,0.9792,0.5315,0.2739,0.2142,0.0557,-85.8,27.0,-18.45,-4.36,-2.4,-8.53,-0.0415,-0.096,0.0491,3.0,15.5,46.1875,5.4375,-25.6875,164.875,0
1776973034.63,9.7755,0.0431,1.1851,0.6622,0.1172,0.1026,-100.35,-3.9,15.45,9.675,0.9792,0.5315,0.2739,0.2142,0.0557,-85.8,27.0,-18.45,-4.36,-2.4,-8.53,-0.0425,-0.0796,0.0458,3.6875,15.875,45.375,5.4375,-25.75,164.875,0
1776973034.635,9.821,-0.0072,1.1875,0.5764,0.1788,0.126,-100.35,-3.9,15.45,9.754,0.929,0.3807,0.3099,0.2158,0.0674,-86.7,25.95,-17.85,-4.38,-2.29,-8.57,-0.0425,-0.0796,0.0458,3.6875,15.875,45.375,5.4375,-25.75,164.875,0
1776973034.64,9.821,-0.0072,1.1875,0.5764,0.1788,0.126,-100.35,-3.9,15.45,9.754,0.929,0.3807,0.3099,0.2158,0.0674,-86.7,25.95,-17.85,-4.38,-2.29,-8.57,-0.0447,-0.0622,0.0425,3.6875,15.875,45.375,5.5,-25.75,164.9375,0
1776973034.645,9.6965,-0.0096,1.2426,0.6662,0.105,0.1362,-100.35,-3.9,15.45,9.6031,1.3503,0.3017,0.3765,0.2374,0.0759,-88.2,25.95,-17.85,-4.35,-2.27,-8.6,-0.0447,-0.0622,0.0425,3.6875,15.875,45.375,5.5,-25.8125,164.9375,0
1776973034.654,9.8761,0.1413,1.0798,0.6827,0.1199,0.1436,-99.6,-3.15,13.95,9.6199,1.652,0.5291,0.4437,0.2497,0.0754,-87.45,27.15,-17.1,-4.33,-2.34,-8.57,-0.0382,-0.0567,0.036,3.6875,15.875,45.375,5.5,-25.8125,164.9375,0
1776973034.662,9.5217,0.1077,1.154,0.725,0.0778,0.1434,-99.6,-2.4,14.4,9.6199,1.652,0.5291,0.4437,0.2497,0.0754,-87.45,27.15,-17.1,-4.3,-2.32,-8.51,-0.0349,-0.0491,0.0316,3.6875,15.875,45.375,5.5,-25.8125,165.0,0
1776973034.667,9.5217,0.1077,1.154,0.725,0.0778,0.1434,-99.6,-2.4,14.4,9.584,1.6544,0.5411,0.4954,0.2374,0.0781,-86.55,26.1,-18.45,-4.3,-2.32,-8.51,-0.0349,-0.0491,0.0316,3.6875,15.875,45.375,5.5,-25.875,165.0,0
1776973034.675,9.7157,0.3041,0.9122,0.8156,0.0573,0.1434,-99.9,-4.05,13.8,9.5624,1.5251,0.7638,0.5399,0.2443,0.0818,-88.95,27.15,-18.3,-4.33,-2.4,-8.52,-0.0316,-0.0469,0.0284,3.6875,15.875,45.375,5.5,-25.875,165.0,0
1776973034.68,9.6151,0.328,1.1372,0.85,0.0349,0.1287,-98.85,-3.45,12.15,9.5624,1.5251,0.7638,0.5399,0.2443,0.0818,-88.95,27.15,-18.3,-4.33,-2.4,-8.52,-0.0316,-0.0469,0.0284,3.6875,15.875,45.375,5.5,-25.875,165.0,0
1776973034.685,9.6151,0.328,1.1372,0.85,0.0349,0.1287,-98.85,-3.45,12.15,9.6654,1.3791,0.972,0.5417,0.2334,0.0837,-87.75,26.7,-19.05,-4.23,-2.39,-8.47,-0.0316,-0.0371,0.024,3.375,14.6875,46.1875,5.5,-25.875,165.0,0
1776973034.69,9.6965,0.4621,1.1612,0.8852,0.0261,0.1119,-98.7,-2.55,12.0,9.6654,1.3791,0.972,0.5417,0.2334,0.0837,-87.75,26.7,-19.05,-4.23,-2.39,-8.47,-0.0316,-0.0371,0.024,3.375,14.6875,46.1875,5.5,-25.9375,165.0625,0
1776973034.695,9.6965,0.4621,1.1612,0.8852,0.0261,0.1119,-98.7,-2.55,12.0,9.6295,1.0582,0.8236,0.4871,0.2132,0.0829,-87.75,26.7,-19.05,-4.23,-2.4,-8.47,-0.0349,-0.0404,0.0251,3.375,14.6875,46.1875,5.5,-25.9375,165.0625,0
1776973034.7,9.6678,0.4693,1.3671,0.8857,0.0141,0.0834,-98.7,-2.55,12.0,9.6295,1.0582,0.8236,0.4871,0.2132,0.0829,-87.75,26.7,-19.05,-4.23,-2.4,-8.47,-0.0404,-0.048,0.0316,3.375,14.6875,46.1875,5.5,-25.9375,165.0625,0
1776973034.705,9.6678,0.4693,1.3671,0.8857,0.0141,0.0834,-98.7,-2.55,12.0,9.5529,0.7685,0.7781,0.4498,0.218,0.0821,-85.8,25.35,-17.7,-4.2,-2.52,-8.45,-0.0404,-0.048,0.0316,3.375,14.6875,46.1875,5.5,-25.9375,165.0625,0
1776973034.713,9.663,0.2203,1.5538,0.8023,0.0442,0.0645,-99.3,-3.9,12.15,9.6486,0.5818,1.008,0.3989,0.2318,0.1013,-85.8,25.35,-17.7,-4.29,-2.35,-8.48,-0.0415,-0.0567,0.0425,3.375,14.6875,46.1875,5.5625,-26.0,165.0625,0
1776973034.718,9.6822,0.1173,1.7214,0.7765,0.0584,0.0695,-99.15,-4.8,10.65,9.6486,0.5818,1.008,0.3989,0.2318,0.1013,-85.8,25.35,-17.7,-4.29,-2.35,-8.48,-0.0415,-0.0567,0.0425,3.375,14.6875,46.1875,5.5625,-26.0,165.125,0
1776973034.725,9.6822,0.1173,1.7214,0.7765,0.0584,0.0695,-99.15,-4.8,10.65,9.7947,0.5698,0.8092,0.3387,0.2201,0.1031,-86.7,27.45,-18.6,-4.4,-2.25,-8.54,-0.0469,-0.048,0.0436,3.375,14.6875,46.1875,5.5625,-26.0,165.125,0
1776973034.73,9.809,-0.0287,1.7837,0.7181,0.0885,0.077,-100.05,-5.4,12.15,9.7444,0.9577,0.8045,0.3387,0.2201,0.1031,-86.7,27.45,-18.6,-4.4,-2.25,-8.54,-0.0458,-0.0371,0.0382,3.6875,15.0625,45.75,5.5625,-26.0625,165.125,0
1776973034.735,9.809,-0.0287,1.7837,0.7181,0.0885,0.077,-100.05,-5.4,12.15,9.7444,0.9577,0.8045,0.3307,0.211,0.1066,-85.95,25.2,-17.85,-4.31,-2.25,-8.56,-0.0458,-0.0371,0.0382,3.6875,15.0625,45.75,5.5625,-26.0625,165.125,0
1776973034.74,9.7372,-0.0718,1.6951,0.6608,0.0695,0.0818,-98.4,-6.75,12.45,9.6965,1.1612,0.8116,0.3307,0.211,0.1066,-85.95,25.2,-17.85,-4.31,-2.25,-8.56,-0.0458,-0.0371,0.0382,3.6875,15.0625,45.75,5.5625,-26.0625,165.1875,0
1776973034.745,9.7372,-0.0718,1.6951,0.6608,0.0695,0.0818,-98.4,-6.75,12.45,9.6965,1.1612,0.8116,0.3373,0.2062,0.1127,-86.1,25.35,-18.0,-4.36,-2.16,-8.59,-0.0436,-0.0349,0.0371,3.6875,15.0625,45.75,5.5625,-26.0625,165.1875,0
1776973034.75,9.9048,-0.0814,1.5275,0.632,0.061,0.0781,-98.4,-6.75,12.45,9.6343,1.3599,0.8164,0.3373,0.2062,0.1127,-86.1,25.35,-18.0,-4.36,-2.16,-8.59,-0.0371,-0.0327,0.0295,3.6875,15.0625,45.75,5.5625,-26.0625,165.1875,0
1776973034.755,9.9048,-0.0814,1.5275,0.632,0.061,0.0781,-98.4,-6.75,12.45,9.6343,1.3599,0.8164,0.3285,0.2052,0.1074,-87.75,25.2,-18.3,-4.31,-2.24,-8.56,-0.0371,-0.0327,0.0295,3.6875,15.0625,45.75,5.5625,-26.0625,165.1875,0
1776973034.764,9.6199,0.1006,1.5155,0.7064,0.0024,0.0805,-98.4,-6.75,12.45,9.6031,1.3216,0.7709,0.3576,0.1998,0.1143,-87.75,25.2,-18.3,-4.28,-2.29,-8.53,-0.0273,-0.0436,0.0305,3.6875,15.0625,45.75,5.625,-26.125,165.25,0
1776973034.769,9.5313,-0.1365,1.5323,0.5798,0.0163,0.0711,-99.15,-5.55,10.2,9.5481,1.3024,0.8571,0.4165,0.206,0.1242,-87.75,25.2,-18.3,-4.28,-2.29,-8.53,-0.0349,-0.0513,0.0349,3.6875,15.0625,45.75,5.625,-26.125,165.25,0
1776973034.775,9.5313,-0.1365,1.5323,0.5798,0.0163,0.0711,-99.15,-5.55,10.2,9.5481,1.3024,0.8571,0.4165,0.206,0.1242,-87.45,25.95,-18.6,-4.34,-2.26,-8.53,-0.0349,-0.0513,0.0349,3.6875,15.0625,45.75,5.625,-26.125,165.25,0
1776973034.78,9.675,0.237,1.3647,0.7024,-0.0336,0.0653,-98.4,-4.05,10.95,9.6869,1.3336,0.9673,0.4293,0.2046,0.121,-87.45,25.95,-18.6,-4.34,-2.26,-8.53,-0.0393,-0.0524,0.0349,4.0625,14.6875,46.5625,5.625,-26.1875,165.25,0
1776973034.785,9.675,0.237,1.3647,0.7024,-0.0336,0.0653,-98.4,-4.05,10.95,9.6869,1.3336,0.9673,0.4293,0.2046,0.121,-87.45,25.95,-18.6,-4.31,-2.28,-8.47,-0.0393,-0.0524,0.0349,4.0625,14.6875,46.5625,5.625,-26.1875,165.25,0
1776973034.79,9.5936,0.158,1.4916,0.6632,0.0139,0.0352,-98.55,-4.2,10.5,9.6486,1.0534,1.0534,0.3781,0.1756,0.126,-87.45,25.95,-18.6,-4.31,-2.28,-8.47,-0.0404,-0.0513,0.0349,4.0625,14.6875,46.5625,5.625,-26.1875,165.3125,0
1776973034.795,9.5936,0.158,1.4916,0.7914,-0.0306,0.0325,-98.55,-4.2,10.5,9.6486,1.0534,1.0534,0.3781,0.1756,0.126,-89.55,22.95,-17.7,-4.26,-2.39,-8.48,-0.0404,-0.0513,0.0349,4.0625,14.6875,46.5625,5.625,-26.1875,165.3125,0
1776973034.8,9.5505,0.3065,1.4557,0.7914,-0.0306,0.0325,-97.65,-4.5,10.2,9.7181,0.6704,1.2115,0.3046,0.1623,0.1236,-89.55,22.95,-17.7,-4.26,-2.39,-8.48,-0.048,-0.0513,0.0404,4.0625,14.6875,46.5625,5.625,-26.25,165.3125,0
1776973034.806,9.5337,0.3184,1.6041,0.7975,-0.0472,0.0245,-97.65,-4.5,10.2,9.7181,0.6704,1.2115,0.3046,0.1623,0.1236,-88.05,25.05,-18.0,-4.22,-2.37,-8.46,-0.048,-0.0513,0.0404,4.0625,14.6875,46.5625,5.625,-26.25,165.3125,0
1776973034.815,9.5337,0.3184,1.6041,0.7541,-0.0314,0.0187,-97.65,-4.5,10.2,9.7013,0.4214,0.984,0.2398,0.1332,0.1178,-88.65,22.8,-19.35,-4.21,-2.37,-8.42,-0.0491,-0.0589,0.048,4.0625,14.6875,46.5625,5.625,-26.25,165.375,0
1776973034.819,9.596,0.0622,1.6712,0.7541,-0.0314,0.0187,-96.45,-2.4,10.05,9.6558,0.4908,1.0702,0.2196,0.1442,0.1226,-88.65,22.8,-19.35,-4.21,-2.37,-8.42,-0.0567,-0.0644,0.0524,4.0625,14.6875,46.5625,5.6875,-26.3125,165.375,0
1776973034.826,9.7875,-0.0383,1.7358,0.7112,0.0144,0.012,-98.55,-3.15,11.55,9.6558,0.4908,1.0702,0.2196,0.1442,0.1226,-87.3,27.0,-17.7,-4.34,-2.36,-8.44,-0.0567,-0.0644,0.0524,4.0625,14.6875,46.5625,5.6875,-26.3125,165.375,0
1776973034.831,9.7875,-0.0383,1.7358,0.7112,0.0144,0.012,-98.55,-3.15,11.55,9.7468,0.814,1.1875,0.2009,0.1463,0.1234,-87.3,27.0,-17.7,-4.34,-2.36,-8.44,-0.0567,-0.0644,0.0524,4.0625,15.0625,45.375,5.6875,-26.375,165.4375,0
1776973034.836,9.675,-0.1341,1.7693,0.6827,0.0021,0.0168,-97.5,-3.15,9.3,9.7396,1.1947,1.0008,0.2009,0.1463,0.1234,-87.75,25.5,-17.1,-4.41,-2.16,-8.57,-0.0545,-0.0622,0.0535,4.0625,15.0625,45.375,5.6875,-26.375,165.4375,0
1776973034.841,9.675,-0.1341,1.7693,0.6827,0.0021,0.0168,-97.5,-3.15,9.3,9.7396,1.1947,1.0008,0.2654,0.1247,0.1223,-87.75,25.5,-17.1,-4.41,-2.16,-8.57,-0.0545,-0.0622,0.0535,4.0625,15.0625,45.375,5.6875,-26.375,165.5,0
1776973034.846,9.7348,-0.1053,1.6688,0.647,-0.0147,0.0213,-98.55,-4.65,9.0,9.5888,1.1468,0.9457,0.2654,0.1247,0.1223,-87.6,25.8,-18.0,-4.43,-2.16,-8.55,-0.0491,-0.0578,0.0535,4.0625,15.0625,45.375,5.6875,-26.375,165.5,0
1776973034.851,9.7348,-0.1053,1.6688,0.647,-0.0147,0.0213,-98.55,-4.65,9.0,9.5888,1.1468,0.9457,0.3517,0.1322,0.1282,-87.6,25.8,-18.0,-4.43,-2.16,-8.55,-0.0447,-0.0578,0.0458,4.0625,15.0625,45.375,5.75,-26.4375,165.5,0
1776973034.856,9.7683,-0.1101,1.4868,0.7048,-0.0045,0.0203,-97.8,-3.9,9.75,9.7181,0.9505,1.1612,0.3936,0.1426,0.121,-87.6,25.8,-18.0,-4.39,-2.2,-8.56,-0.0447,-0.0578,0.0458,4.0625,15.0625,45.375,5.75,-26.4375,165.5,0
1776973034.865,9.6271,-0.0838,1.5275,0.6995,-0.0624,0.0163,-97.8,-3.9,9.75,9.8019,0.7925,1.1899,0.3936,0.1426,0.121,-87.6,22.65,-18.0,-4.34,-2.23,-8.49,-0.0436,-0.0545,0.0393,4.0625,15.0625,45.375,5.75,-26.4375,165.5625,0
1776973034.872,9.6271,-0.0838,1.5275,0.6995,-0.0624,0.0163,-97.8,-3.9,9.75,9.8019,0.7925,1.1899,0.3696,0.1055,0.1116,-87.6,22.65,-18.0,-4.24,-2.28,-8.45,-0.0393,-0.0447,0.0382,4.0625,15.0625,45.375,5.75,-26.5,165.5625,0
1776973034.877,9.6079,-0.091,1.4653,0.757,-0.0394,0.0096,-97.8,-4.2,9.75,9.5768,0.4094,1.1516,0.3712,0.0981,0.105,-87.75,24.75,-17.55,-4.24,-2.28,-8.45,-0.0393,-0.0447,0.0382,4.0625,15.0625,45.375,5.75,-26.5,165.5625,0
1776973034.882,9.6079,-0.091,1.4653,0.757,-0.0394,0.0096,-97.8,-4.2,9.75,9.5768,0.4094,1.1516,0.3712,0.0981,0.105,-87.75,24.75,-17.55,-4.35,-2.28,-8.46,-0.0458,-0.0589,0.0436,3.6875,14.6875,46.5625,5.75,-26.5,165.625,0
1776973034.887,9.5241,-0.2274,1.4269,0.7557,-0.0133,0.0133,-97.95,-5.25,8.85,9.7109,0.0646,1.2785,0.336,0.1098,0.1154,-86.7,24.45,-17.55,-4.35,-2.28,-8.46,-0.0458,-0.0589,0.0436,3.6875,14.6875,46.5625,5.75,-26.5,165.625,0
1776973034.891,9.5241,-0.2274,1.4269,0.7557,-0.0133,0.0133,-97.95,-5.25,8.85,9.7109,0.0646,1.2785,0.336,0.1098,0.1154,-86.7,24.45,-17.55,-4.35,-2.28,-8.46,-0.0469,-0.0622,0.0469,3.6875,14.6875,46.5625,5.75,-26.5625,165.625,0
1776973034.896,9.5936,-0.3687,1.3288,0.7623,0.0072,0.0192,-97.05,-4.2,9.0,9.7755,0.1365,1.1109,0.2302,0.0882,0.1159,-88.65,25.5,-16.8,-4.44,-2.15,-8.48,-0.0469,-0.0622,0.0469,3.6875,14.6875,46.5625,5.75,-26.5625,165.625,0
1776973034.901,9.5936,-0.3687,1.3288,0.7623,0.0072,0.0192,-97.05,-4.2,9.0,9.7755,0.1365,1.1109,0.2302,0.0882,0.1159,-88.65,25.5,-16.8,-4.4,-2.2,-8.51,-0.0458,-0.0513,0.0415,3.6875,14.6875,46.5625,5.8125,-26.625,165.6875,0
1776973034.906,9.6438,-0.3184,1.4198,0.7514,-0.0005,0.0274,-98.25,-4.95,9.3,9.6534,0.2251,0.8068,0.1953,0.0802,0.1002,-88.65,24.0,-17.55,-4.4,-2.2,-8.51,-0.0458,-0.0513,0.0415,3.6875,14.6875,46.5625,5.8125,-26.625,165.6875,0
1776973034.915,9.5792,-0.407,1.3575,0.7408,0.0064,0.0373,-98.25,-4.95,9.3,9.6414,0.4932,0.9361,0.2342,0.0805,0.0861,-88.65,24.0,-17.55,-4.39,-2.25,-8.45,-0.0425,-0.0425,0.0393,3.6875,14.6875,46.5625,5.8125,-26.625,165.6875,0
1776973034.921,9.5792,-0.407,1.3575,0.7408,0.0064,0.0373,-98.25,-4.95,9.3,9.6414,0.4932,0.9361,0.2342,0.0805,0.0861,-88.65,24.75,-19.35,-4.39,-2.25,-8.45,-0.0415,-0.0382,0.036,3.6875,14.6875,46.5625,5.8125,-26.6875,165.75,0
1776973034.926,9.7396,-0.3304,1.3886,0.724,0.0069,0.0493,-97.5,-4.65,7.2,9.7372,0.9649,1.1396,0.3059,0.0911,0.0767,-88.65,24.75,-19.35,-4.42,-2.09,-8.52,-0.0415,-0.0382,0.036,3.6875,14.6875,46.5625,5.8125,-26.6875,165.75,0
1776973034.931,9.7995,-0.1748,1.3767,0.6928,-0.0064,0.0608,-97.5,-4.65,7.2,9.7372,0.9649,1.1396,0.3059,0.0911,0.0767,-88.65,24.75,-19.35,-4.38,-2.16,-8.5,-0.036,-0.0327,0.0338,3.6875,14.0,46.5625,5.8125,-26.6875,165.75,0
1776973034.936,9.7995,-0.1748,1.3767,0.6928,-0.0064,0.0608,-97.35,-5.55,8.55,9.7516,1.1947,1.2186,0.3845,0.0695,0.0634,-88.95,24.0,-17.55,-4.38,-2.16,-8.5,-0.036,-0.0327,0.0338,3.6875,14.0,46.5625,5.8125,-26.6875,165.75,0
1776973034.941,9.5648,-0.1006,1.4293,0.6771,-0.0392,0.0645,-97.35,-5.55,8.55,9.7516,1.1947,1.2186,0.3845,0.0695,0.0634,-88.95,24.0,-17.55,-4.39,-2.28,-8.52,-0.0338,-0.0327,0.0295,3.6875,14.0,46.5625,5.8125,-26.6875,165.75,0
1776973034.946,9.5648,-0.1006,1.4293,0.6771,-0.0392,0.0645,-96.75,-5.4,9.0,9.6127,0.8739,1.3431,0.4826,0.0629,0.0552,-88.95,24.0,-17.55,-4.39,-2.28,-8.52,-0.0338,-0.0327,0.0295,3.6875,14.0,46.5625,5.8125,-26.6875,165.75,0
1776973034.951,9.6678,0.0455,1.3862,0.6691,-0.0349,0.0709,-96.75,-5.4,9.0,9.7707,0.498,1.5371,0.4826,0.0629,0.0552,-88.95,24.0,-17.55,-4.39,-2.28,-8.52,-0.0284,-0.0447,0.0316,3.6875,14.0,46.5625,5.875,-26.75,165.8125,0
1776973034.956,9.6678,0.0455,1.3862,0.6691,-0.0349,0.0709,-96.0,-5.7,8.25,9.7707,0.498,1.5371,0.5241,0.0666,0.0568,-87.75,23.25,-19.05,-4.45,-2.19,-8.5,-0.0284,-0.0447,0.0316,3.6875,14.0,46.5625,5.875,-26.75,165.8125,0
1776973034.965,9.5505,-0.0024,1.4653,0.6427,-0.0312,0.0648,-96.0,-4.65,6.45,9.7372,0.3232,1.3336,0.4652,0.0376,0.0506,-87.75,23.25,-19.05,-4.47,-2.18,-8.52,-0.0295,-0.0349,0.0284,3.6875,14.0,46.5625,5.875,-26.75,165.8125,0
1776973034.971,9.5337,-0.1006,1.5179,0.5854,0.0045,0.0671,-96.0,-4.65,6.45,9.6462,0.2322,1.2378,0.4013,0.0304,0.0528,-87.0,23.55,-18.6,-4.41,-2.2,-8.47,-0.0305,-0.0284,0.0262,3.6875,14.0,46.5625,5.875,-26.75,165.8125,0
1776973034.976,9.5337,-0.1006,1.5179,0.5854,0.0045,0.0671,-96.0,-4.65,6.45,9.6462,0.2322,1.2378,0.4013,0.0304,0.0528,-89.4,22.8,-17.85,-4.41,-2.2,-8.47,-0.0305,-0.0284,0.0262,3.6875,14.0,46.5625,5.875,-26.75,165.8125,0
1776973034.981,9.6438,-0.1748,1.4437,0.6305,0.0165,0.0698,-96.0,-4.65,6.45,9.7923,0.1796,1.1229,0.3208,0.0165,0.0416,-89.4,22.8,-17.85,-4.41,-2.2,-8.47,-0.0305,-0.0284,0.0262,4.0625,14.0,46.1875,5.875,-26.8125,165.875,0
1776973034.986,9.6438,-0.1748,1.4437,0.6305,0.0165,0.0698,-97.35,-6.75,7.35,9.7923,0.1796,1.1229,0.3208,0.0165,0.0416,-88.35,23.4,-18.45,-4.43,-2.21,-8.46,-0.0316,-0.0251,0.0218,4.0625,14.0,46.1875,5.875,-26.8125,165.875,0
1776973034.991,9.6654,-0.2466,1.6664,0.663,0.0232,0.0714,-97.35,-6.75,7.35,9.6774,0.2921,0.8978,0.2758,0.0029,0.0365,-88.35,23.4,-18.45,-4.43,-2.21,-8.46,-0.0316,-0.0251,0.0218,4.0625,14.0,46.1875,5.875,-26.8125,165.875,0
1776973034.996,9.6654,-0.2466,1.6664,0.663,0.0232,0.0714,-96.0,-7.65,6.9,9.6774,0.2921,0.8978,0.2758,0.0029,0.0365,-88.35,23.4,-18.45,-4.37,-2.19,-8.44,-0.024,-0.0185,0.024,4.0625,14.0,46.1875,5.875,-26.8125,165.875,0
1776973035.001,9.809,-0.2849,1.5443,0.6523,0.0306,0.0719,-96.0,-7.65,6.9,9.7037,0.5004,1.0175,0.2625,0.0136,0.032,-88.35,23.4,-18.45,-4.37,-2.19,-8.44,-0.0207,-0.012,0.0284,4.0625,14.0,46.1875,5.875,-26.8125,165.875,0
1776973035.006,9.809,-0.2849,1.5443,0.6523,0.0306,0.0719,-98.85,-6.9,6.9,9.7037,0.5004,1.0175,0.2625,0.0136,0.032,-89.4,24.0,-19.05,-4.43,-2.11,-8.46,-0.0207,-0.012,0.0284,4.0625,14.0,46.1875,5.875,-26.8125,165.9375,0
1776973035.015,9.7779,-0.3328,1.4605,0.6763,0.0144,0.0597,-98.25,-6.9,6.9,9.6702,0.8045,0.9912,0.2497,0.0099,0.0245,-89.4,24.0,-19.05,-4.43,-2.1,-8.49,-0.0295,-0.0185,0.0262,4.0625,14.0,46.1875,5.875,-26.8125,165.9375,0
1776973035.022,9.7181,-0.1484,1.3096,0.586,0.0312,0.0565,-98.25,-6.9,6.9,9.5529,1.0726,0.8811,0.2638,-0.0005,0.024,-89.4,24.0,-19.05,-4.41,-2.09,-8.48,-0.0185,-0.0196,0.024,4.0625,14.0,46.1875,5.9375,-26.8125,165.9375,0
1776973035.027,9.7181,-0.1484,1.3096,0.586,0.0312,0.0565,-98.25,-6.9,6.9,9.5529,1.0726,0.8811,0.2638,-0.0005,0.024,-89.55,23.4,-16.65,-4.41,-2.09,-8.48,-0.0185,-0.0196,0.024,4.0625,14.0,46.1875,5.9375,-26.8125,165.9375,0
1776973035.031,9.8617,-0.1652,1.1923,0.636,-0.0474,0.0458,-98.25,-6.9,6.9,9.5481,1.0822,0.7949,0.3011,0.0155,0.028,-89.55,23.4,-16.65,-4.45,-2.15,-8.49,-0.0185,-0.0185,0.0185,4.5,14.0,45.75,5.9375,-26.875,165.9375,0
1776973035.036,9.8617,-0.1652,1.1923,0.636,-0.0474,0.0458,-97.05,-8.7,6.9,9.5481,1.0822,0.7949,0.3011,0.0155,0.028,-89.55,23.4,-16.65,-4.45,-2.15,-8.49,-0.0185,-0.0185,0.0185,4.5,14.0,45.75,5.9375,-26.875,165.9375,0
1776973035.045,9.7276,-0.0168,0.9505,0.6297,-0.0408,0.0362,-97.8,-6.15,6.9,9.6654,0.7709,0.8045,0.3123,0.0109,0.02,-87.6,23.85,-17.7,-4.39,-2.09,-8.49,-0.0175,-0.0196,0.0196,4.5,14.0,45.75,5.9375,-26.875,165.9375,0
1776973035.05,9.8186,-0.0144,0.8619,0.5953,-0.0512,0.0237,-97.8,-6.15,6.9,9.7252,0.7087,1.0534,0.267,0.0083,0.0306,-89.55,23.4,-19.5,-4.39,-2.09,-8.49,-0.0218,-0.0175,0.0185,4.5,14.0,45.75,5.9375,-26.875,166.0,0
1776973035.056,9.8186,-0.0144,0.8619,0.5953,-0.0512,0.0237,-96.6,-7.05,7.05,9.7252,0.7087,1.0534,0.267,0.0083,0.0306,-89.55,23.4,-19.5,-4.41,-2.14,-8.51,-0.0218,-0.0175,0.0185,4.5,14.0,45.75,5.9375,-26.875,166.0,0
1776973035.065,9.7971,0.0407,0.7685,0.5628,-0.0381,0.0157,-96.15,-7.05,7.35,9.6343,0.589,1.0032,0.2252,0.0011,0.0288,-88.05,23.85,-19.95,-4.4,-2.15,-8.51,-0.0218,-0.0164,0.0207,4.5,14.0,45.75,5.9375,-26.875,166.0,0
1776973035.072,9.7779,-0.067,0.7494,0.5332,-0.0477,0.0035,-95.25,-7.95,6.45,9.7085,0.7446,1.1396,0.1615,0.004,0.0421,-88.65,24.0,-19.05,-4.48,-2.05,-8.47,-0.0229,-0.0207,0.0218,4.5,14.0,45.75,5.9375,-26.875,166.0,0
1776973035.077,9.8474,-0.0168,0.8045,0.5041,-0.0687,-0.012,-95.25,-7.95,6.45,9.6965,0.7949,0.9697,0.1029,-0.0221,0.0373,-88.05,24.0,-19.05,-4.48,-2.05,-8.47,-0.0229,-0.0207,0.0218,4.5,14.0,45.75,5.9375,-26.875,166.0,0
1776973035.081,9.8474,-0.0168,0.8045,0.5041,-0.0687,-0.012,-95.25,-7.95,6.45,9.6965,0.7949,0.9697,0.1029,-0.0221,0.0373,-88.05,22.2,-19.95,-4.47,-2.18,-8.51,-0.0251,-0.0164,0.0185,4.875,14.0,46.5625,5.9375,-26.9375,166.0625,0
1776973035.086,9.821,-0.0359,0.8739,0.4506,-0.0701,-0.029,-95.25,-7.95,6.45,9.5864,0.7494,0.9697,0.0711,-0.012,0.044,-88.05,22.2,-19.95,-4.47,-2.18,-8.51,-0.0251,-0.0164,0.0185,4.875,14.0,46.5625,5.9375,-26.9375,166.0625,0
1776973035.092,9.821,-0.0359,0.8739,0.4506,-0.0701,-0.029,-98.4,-6.75,5.7,9.5864,0.7494,0.9697,0.0711,-0.012,0.044,-88.05,22.2,-19.95,-4.43,-2.13,-8.47,-0.0207,-0.0131,0.0185,4.875,14.0,46.5625,5.9375,-26.9375,166.0625,0
1776973035.096,9.8521,-0.0239,0.9026,0.4045,-0.0733,-0.0384,-98.4,-6.75,5.7,9.6678,0.7781,0.9122,0.0416,-0.0139,0.0493,-88.05,22.2,-19.95,-4.43,-2.13,-8.47,-0.0207,-0.0131,0.0185,4.875,14.0,46.5625,5.9375,-26.9375,166.0625,0
1776973035.101,9.8521,-0.0239,0.9026,0.4045,-0.0733,-0.0384,-97.5,-7.65,5.1,9.6678,0.7781,0.9122,0.0416,-0.0139,0.0493,-89.1,23.85,-18.0,-4.42,-2.09,-8.51,-0.0251,-0.0109,0.0196,4.875,14.0,46.5625,5.9375,-26.9375,166.0625,0
1776973035.106,9.8641,-0.0479,0.8906,0.3603,-0.0933,-0.0552,-97.5,-7.65,5.1,9.6702,0.9888,0.8763,-0.004,-0.0208,0.0522,-89.1,23.85,-18.0,-4.42,-2.09,-8.51,-0.0251,-0.0109,0.0196,4.875,14.0,46.5625,6.0,-26.9375,166.0625,0
1776973035.115,9.845,-0.091,0.8571,0.3123,-0.0895,-0.0767,-96.9,-9.0,4.95,9.6534,0.9313,0.8021,-0.0104,-0.0131,0.0557,-88.2,22.8,-18.3,-4.4,-2.16,-8.5,-0.0262,-0.0065,0.0185,4.875,14.0,46.5625,6.0,-26.9375,166.0625,0
1776973035.121,9.845,-0.091,0.8571,0.3123,-0.0895,-0.0767,-97.8,-7.65,4.8,9.6534,0.9313,0.8021,-0.0104,-0.0131,0.0557,-88.2,22.5,-19.8,-4.42,-2.16,-8.45,-0.0262,-0.0076,0.0196,4.875,14.0,46.5625,6.0,-26.9375,166.125,0
1776973035.127,9.8043,-0.0694,0.7973,0.2641,-0.0893,-0.0871,-97.8,-7.65,4.8,9.572,0.8092,0.6081,-0.0381,-0.0173,0.0594,-88.2,22.5,-19.8,-4.42,-2.16,-8.45,-0.0262,-0.0076,0.0196,4.875,14.0,46.5625,6.0,-26.9375,166.125,0
1776973035.131,9.8043,-0.0694,0.7973,0.2641,-0.0893,-0.0871,-97.8,-7.65,4.8,9.572,0.8092,0.6081,-0.0381,-0.0173,0.0594,-88.2,23.25,-19.35,-4.42,-2.16,-8.45,-0.0262,-0.0076,0.0196,4.0625,14.6875,46.5625,6.0,-26.9375,166.125,0
1776973035.136,9.7707,-0.0575,0.7422,0.2201,-0.0898,-0.1031,-97.8,-7.65,4.8,9.584,0.6512,0.6847,-0.0714,-0.0013,0.0618,-88.2,23.25,-19.35,-4.45,-2.12,-8.47,-0.0251,-0.0131,0.0207,4.0625,14.6875,46.5625,6.0,-26.9375,166.125,0
1776973035.141,9.7707,-0.0575,0.7422,0.2201,-0.0898,-0.1031,-97.05,-7.95,7.2,9.584,0.6512,0.6847,-0.0714,-0.0013,0.0618,-88.05,22.95,-18.75,-4.45,-2.12,-8.47,-0.0251,-0.0131,0.0207,4.0625,14.6875,46.5625,6.0,-26.9375,166.125,0
1776973035.146,9.9311,-0.0622,0.6201,0.1892,-0.0954,-0.1069,-97.05,-7.95,7.2,9.6726,0.6728,0.6321,-0.1053,-0.0061,0.0679,-88.05,22.95,-18.75,-4.45,-2.15,-8.47,-0.0327,-0.0142,0.0185,4.0625,14.6875,46.5625,6.0,-26.9375,166.125,0
1776973035.151,9.9311,-0.0622,0.6201,0.1892,-0.0954,-0.1069,-97.95,-8.55,4.95,9.6726,0.6728,0.6321,-0.1053,-0.0061,0.0679,-88.35,22.2,-20.25,-4.45,-2.15,-8.47,-0.0295,-0.0131,0.0196,4.0625,14.6875,46.5625,6.0,-26.9375,166.1875,0
1776973035.156,9.9431,0.0335,0.5938,0.1585,-0.1199,-0.1122,-97.95,-8.55,4.95,9.8162,0.7949,0.9433,-0.0973,0.0013,0.0746,-88.35,22.2,-20.25,-4.42,-2.05,-8.53,-0.0295,-0.0131,0.0196,4.0625,14.6875,46.5625,6.0,-26.9375,166.1875,0
1776973035.165,9.8306,0.0622,0.6464,0.1268,-0.1455,-0.1146,-98.4,-7.05,5.7,9.8904,1.0104,1.2809,-0.1132,-0.0392,0.0655,-88.35,22.2,-20.25,-4.27,-2.14,-8.43,-0.0262,-0.0142,0.0153,4.0625,14.6875,46.5625,6.0,-27.0,166.1875,0
1776973035.17,9.8306,0.0622,0.6464,0.1268,-0.1455,-0.1146,-95.25,-7.95,4.8,9.8904,1.0104,1.2809,-0.1132,-0.0392,0.0655,-89.85,22.95,-18.75,-4.27,-2.14,-8.43,-0.0218,-0.0175,0.0196,4.0625,14.6875,46.5625,6.0,-27.0,166.1875,0
1776973035.177,9.7133,0.1915,0.6943,0.0778,-0.1721,-0.1226,-95.25,-7.95,4.8,9.6367,0.9266,1.3767,-0.1071,-0.0458,0.0616,-89.85,22.95,-18.75,-4.33,-2.23,-8.46,-0.0218,-0.0175,0.0196,4.0625,14.6875,46.5625,6.0,-27.0,166.1875,0
1776973035.181,9.7133,0.1915,0.6943,0.0778,-0.1721,-0.1226,-98.7,-7.8,4.2,9.663,0.565,1.1995,-0.1071,-0.0458,0.0616,-89.85,22.95,-18.75,-4.33,-2.23,-8.46,-0.0229,-0.0316,0.0284,4.875,13.6875,46.1875,6.0,-27.0,166.1875,0
1776973035.186,9.5553,0.2658,0.9218,-0.0043,-0.1644,-0.1292,-98.7,-7.8,4.2,9.663,0.565,1.1995,-0.0853,-0.052,0.0693,-89.85,22.95,-18.75,-4.45,-2.19,-8.42,-0.0229,-0.0316,0.0284,4.875,13.6875,46.1875,6.0,-27.0,166.1875,0
1776973035.191,9.5553,0.2658,0.9218,-0.0043,-0.1644,-0.1292,-98.7,-7.8,4.2,9.6175,0.3376,1.1516,-0.0853,-0.052,0.0693,-89.1,22.65,-20.7,-4.45,-2.19,-8.42,-0.0273,-0.0415,0.0273,4.875,13.6875,46.1875,6.0,-27.0,166.25,0
1776973035.196,9.6606,0.2586,1.0199,-0.0869,-0.1551,-0.1271,-98.7,-7.8,4.2,9.6175,0.3376,1.1516,-0.122,-0.049,0.0626,-89.1,22.65,-20.7,-4.46,-2.12,-8.47,-0.0273,-0.0415,0.0273,4.875,13.6875,46.1875,6.0,-27.0,166.25,0
1776973035.201,9.6606,0.2586,1.0199,-0.0869,-0.1551,-0.1271,-97.05,-8.4,5.4,9.6965,0.2251,0.8092,-0.122,-0.049,0.0626,-88.65,23.25,-19.05,-4.46,-2.12,-8.47,-0.0338,-0.036,0.0295,4.875,13.6875,46.1875,6.0625,-27.0625,166.25,0
1776973035.206,9.7899,0.1915,1.1851,-0.1324,-0.1593,-0.1188,-97.05,-8.4,5.4,9.6965,0.2251,0.8092,-0.1644,-0.0576,0.0709,-88.65,23.25,-19.05,-4.47,-2.04,-8.53,-0.0338,-0.036,0.0295,4.875,13.6875,46.1875,6.0625,-27.0625,166.25,0
1776973035.216,9.8258,0.1724,1.2115,-0.1458,-0.1404,-0.122,-96.0,-8.7,5.85,9.8521,0.4525,0.9529,-0.194,-0.053,0.0637,-88.65,22.5,-19.05,-4.5,-2.06,-8.51,-0.0338,-0.0338,0.0305,4.875,13.6875,46.1875,6.0625,-27.0625,166.25,0
1776973035.222,9.7947,0.2155,1.1109,-0.1108,-0.1495,-0.1247,-97.5,-6.9,4.8,9.7157,0.826,0.996,-0.2273,-0.081,0.0517,-89.1,22.95,-18.45,-4.39,-2.05,-8.44,-0.0316,-0.0327,0.024,4.875,13.6875,46.1875,6.0625,-27.125,166.3125,0
1776973035.227,9.7947,0.2155,1.1109,-0.1108,-0.1495,-0.1247,-97.5,-6.9,4.8,9.7157,0.826,0.996,-0.2273,-0.081,0.0517,-89.1,22.95,-18.45,-4.39,-2.05,-8.44,-0.0316,-0.0327,0.024,4.875,13.6875,46.1875,6.0625,-27.125,166.3125,0
1776973035.231,9.9288,0.3136,1.0942,-0.0658,-0.1532,-0.125,-98.4,-8.55,5.7,9.6414,0.8739,0.9194,-0.199,-0.0701,0.0493,-89.1,22.95,-18.45,-4.39,-2.05,-8.44,-0.0295,-0.0349,0.0273,4.5,14.0,47.0,6.0625,-27.125,166.3125,0
1776973035.236,9.9288,0.3136,1.0942,-0.0658,-0.1532,-0.125,-98.4,-8.55,5.7,9.6414,0.8739,0.9194,-0.199,-0.0701,0.0493,-89.1,22.95,-18.45,-4.46,-2.12,-8.47,-0.0295,-0.0349,0.0273,4.5,14.0,47.0,6.0625,-27.125,166.3125,0
1776973035.241,9.8258,0.3136,1.0439,-0.0605,-0.1844,-0.1362,-98.4,-8.55,5.7,9.6606,0.4836,1.0918,-0.1583,-0.0661,0.049,-88.05,22.95,-19.95,-4.46,-2.12,-8.47,-0.024,-0.0415,0.0305,4.5,14.0,47.0,6.0625,-27.125,166.3125,0
1776973035.246,9.8258,0.3136,1.0439,-0.0605,-0.1844,-0.1362,-98.4,-8.55,5.7,9.6606,0.4836,1.0918,-0.1583,-0.0661,0.049,-88.05,22.95,-19.95,-4.51,-2.01,-8.49,-0.024,-0.0415,0.0305,4.5,14.0,47.0,6.0625,-27.125,166.3125,0
1776973035.251,9.7731,0.4118,1.0582,-0.0576,-0.1756,-0.142,-98.4,-8.55,5.7,9.675,0.3089,0.9481,-0.1745,-0.0693,0.0525,-88.05,22.95,-19.95,-4.51,-2.01,-8.49,-0.0251,-0.0425,0.0316,4.5,14.0,47.0,6.0625,-27.1875,166.375,0
1776973035.257,9.7731,0.4118,1.0582,-0.0576,-0.1756,-0.142,-98.4,-8.55,5.7,9.675,0.3089,0.9481,-0.1745,-0.0693,0.0525,-88.05,22.95,-19.95,-4.53,-1.99,-8.54,-0.0251,-0.0425,0.0316,4.5,14.0,47.0,6.125,-27.1875,166.375,0
1776973035.266,9.6295,0.5363,0.9888,-0.0781,-0.1727,-0.1484,-97.65,-6.3,4.95,9.7061,0.2729,0.7925,-0.2198,-0.0634,0.0592,-89.7,23.25,-18.6,-4.53,-2.06,-8.5,-0.0229,-0.0436,0.0273,4.5,14.0,47.0,6.125,-27.1875,166.375,0
1776973035.27,9.8354,0.6153,0.8188,-0.0933,-0.1796,-0.1447,-97.05,-6.15,5.1,9.7851,0.7494,0.8643,-0.2499,-0.0653,0.0528,-88.05,22.2,-17.4,-4.53,-2.06,-8.5,-0.024,-0.0404,0.0207,4.5,14.0,47.0,6.125,-27.25,166.375,0
1776973035.277,9.8354,0.6153,0.8188,-0.0933,-0.1796,-0.1447,-97.05,-6.15,5.1,9.7851,0.7494,0.8643,-0.2499,-0.0653,0.0528,-88.05,22.2,-17.4,-4.51,-1.99,-8.48,-0.024,-0.0404,0.0207,4.5,14.0,47.0,6.125,-27.25,166.375,0
1776973035.282,9.9407,0.8906,0.7518,-0.0677,-0.2028,-0.1468,-97.65,-8.25,3.9,9.7731,1.6975,1.2091,-0.2033,-0.0863,0.0592,-88.65,23.55,-18.6,-4.51,-1.99,-8.48,-0.024,-0.0404,0.0207,4.875,12.875,46.5625,6.125,-27.25,166.4375,0
1776973035.287,9.9407,0.8906,0.7518,-0.0677,-0.2028,-0.1468,-97.65,-8.25,3.9,9.7731,1.6975,1.2091,-0.2033,-0.0863,0.0592,-88.65,23.55,-18.6,-4.51,-2.01,-8.53,-0.0164,-0.0327,0.0185,4.875,12.875,46.5625,6.125,-27.25,166.4375,0
1776973035.291,10.0437,1.2282,0.5866,-0.02,-0.2353,-0.1577,-97.8,-7.95,4.35,9.9024,2.1668,1.245,-0.0925,-0.0898,0.0807,-88.65,24.0,-19.35,-4.51,-2.01,-8.53,-0.0164,-0.0327,0.0185,4.875,12.875,46.5625,6.125,-27.25,166.4375,0
1776973035.297,10.0437,1.2282,0.5866,-0.02,-0.2353,-0.1577,-97.8,-7.95,4.35,9.9024,2.1668,1.245,-0.0925,-0.0898,0.0807,-88.65,24.0,-19.35,-4.54,-1.99,-8.55,-0.0142,-0.0284,0.0131,4.875,12.875,46.5625,6.125,-27.25,166.4375,0
1776973035.301,9.8114,1.3862,0.5866,0.0474,-0.2694,-0.1729,-97.8,-7.95,4.35,9.8258,1.9034,0.9912,-0.0541,-0.1298,0.0879,-87.75,20.85,-19.8,-4.54,-1.99,-8.55,-0.0065,-0.0251,0.0098,4.875,12.875,46.5625,6.125,-27.25,166.4375,0
1776973035.307,9.8114,1.3862,0.5866,0.0474,-0.2694,-0.1729,-97.8,-7.95,4.35,9.4882,0.8356,0.8499,-0.0541,-0.1298,0.0879,-87.75,20.85,-19.8,-4.4,-2.25,-8.48,-0.0065,-0.0251,0.0098,4.875,12.875,46.5625,6.125,-27.25,166.4375,0
1776973035.316,9.6271,1.5897,0.4573,0.0674,-0.2454,-0.1916,-98.25,-8.4,4.05,9.4882,0.8356,0.8499,-0.0333,-0.1026,0.1172,-89.1,21.9,-19.5,-4.46,-2.17,-8.44,-0.0065,-0.0371,0.0175,4.875,12.875,46.5625,6.125,-27.3125,166.4375,0
1776973035.321,9.5816,1.573,0.4932,0.0999,-0.238,-0.2145,-98.55,-7.65,3.3,9.6271,0.4142,0.9361,-0.1156,-0.1069,0.1495,-89.1,21.9,-19.5,-4.46,-2.17,-8.44,-0.012,-0.0425,0.0273,4.875,12.875,46.5625,6.125,-27.3125,166.4375,0
1776973035.327,9.5816,1.573,0.4932,0.0999,-0.238,-0.2145,-97.8,-7.65,3.3,9.7923,0.972,0.7638,-0.2497,-0.1196,0.1628,-89.1,21.9,-19.5,-4.47,-2.02,-8.42,-0.012,-0.0425,0.0273,4.875,12.875,46.5625,6.125,-27.3125,166.4375,0
1776973035.332,9.833,1.5802,0.5459,0.1271,-0.1908,-0.2478,-97.8,-7.65,4.05,9.7923,0.972,0.7638,-0.2497,-0.1196,0.1628,-88.2,22.8,-17.85,-4.47,-2.02,-8.42,-0.0207,-0.0425,0.0284,4.875,13.6875,46.1875,6.125,-27.375,166.4375,0
1776973035.337,9.833,1.5802,0.5459,0.1271,-0.1908,-0.2478,-99.45,-8.55,4.5,9.7468,1.6328,0.5674,-0.323,-0.1263,0.1852,-88.2,22.8,-17.85,-4.51,-2.07,-8.54,-0.0207,-0.0425,0.0284,4.875,13.6875,46.1875,6.125,-27.375,166.4375,0
1776973035.342,9.73,1.4844,0.6057,0.1807,-0.1905,-0.2875,-99.45,-8.55,4.5,9.7468,1.6328,0.5674,-0.323,-0.1263,0.1852,-88.65,22.05,-18.6,-4.51,-2.07,-8.54,-0.0164,-0.0425,0.024,4.875,13.6875,46.1875,6.125,-27.375,166.4375,0
1776973035.347,9.73,1.4844,0.6057,0.2678,-0.2414,-0.3283,-99.45,-8.55,4.5,9.7971,2.071,0.3855,-0.3296,-0.1031,0.2236,-88.65,22.05,-18.6,-4.56,-2.08,-8.53,-0.0164,-0.0425,0.024,4.875,13.6875,46.1875,6.125,-27.375,166.4375,0
1776973035.352,9.7875,1.6855,0.3065,0.2678,-0.2414,-0.3283,-99.45,-8.55,4.5,9.7971,2.071,0.3855,-0.3296,-0.1031,0.2236,-86.25,22.05,-19.8,-4.56,-2.08,-8.53,-0.0109,-0.0404,0.0251,4.875,13.6875,46.1875,6.1875,-27.375,166.4375,0
1776973035.357,9.7683,1.9034,-0.1125,0.3603,-0.239,-0.3797,-99.45,-8.55,4.5,9.7109,2.3774,-0.0646,-0.3573,-0.0687,0.2769,-86.25,22.05,-19.8,-4.54,-2.1,-8.49,-0.0109,-0.0404,0.0251,4.875,13.6875,46.1875,6.1875,-27.4375,166.5,0
1776973035.366,9.7683,1.9034,-0.1125,0.4407,-0.3011,-0.4471,-99.45,-8.55,4.5,9.5529,2.8276,-0.3424,-0.3184,-0.0336,0.3376,-89.1,22.65,-19.5,-4.5,-2.05,-8.54,-0.0055,-0.0425,0.0262,4.875,13.6875,46.1875,6.1875,-27.4375,166.5,0
1776973035.372,9.73,1.9561,-0.4621,0.4407,-0.3011,-0.4471,-98.25,-7.2,5.1,9.5529,2.8276,-0.3424,-0.3184,-0.0336,0.3376,-88.8,22.65,-19.2,-4.5,-2.05,-8.54,-0.0065,-0.0513,0.0273,4.875,13.6875,46.1875,6.1875,-27.4375,166.5,0
1776973035.377,9.493,2.1045,-0.8045,0.4802,-0.3416,-0.5332,-99.3,-8.4,3.6,9.3757,3.1484,-0.4381,-0.251,0.0008,0.4008,-88.8,22.65,-19.2,-4.49,-2.03,-8.53,-0.0065,-0.0513,0.0273,4.875,13.6875,46.1875,6.1875,-27.4375,166.5,0
1776973035.382,9.493,2.1045,-0.8045,0.4802,-0.3416,-0.5332,-99.3,-8.4,3.6,9.3757,3.1484,-0.4381,-0.251,0.0008,0.4008,-86.85,21.9,-18.75,-4.51,-2.01,-8.52,-0.0055,-0.0589,0.0273,4.875,13.6875,45.375,6.1875,-27.5,166.5,0
1776973035.387,9.4188,2.1548,-1.1181,0.5002,-0.3659,-0.6233,-97.65,-8.25,3.15,9.5361,3.1939,-0.5602,-0.1892,0.0405,0.4746,-86.85,21.9,-18.75,-4.51,-2.01,-8.52,-0.0055,-0.0589,0.0273,4.875,13.6875,45.375,6.1875,-27.5,166.5,0
1776973035.392,9.4188,2.1548,-1.1181,0.5002,-0.3659,-0.6233,-97.65,-8.25,3.15,9.5361,3.1939,-0.5602,-0.1892,0.0405,0.4746,-86.85,21.9,-18.75,-4.51,-2.01,-8.52,-0.0055,-0.0589,0.0273,4.875,13.6875,45.375,6.1875,-27.5625,166.5,0
1776973035.397,9.244,2.2865,-1.4413,0.5582,-0.3904,-0.7117,-99.6,-9.15,4.8,9.7109,3.1508,-0.6369,-0.17,0.0946,0.5641,-86.85,21.9,-18.75,-4.45,-2.09,-8.48,0.0022,-0.0698,0.0273,4.875,13.6875,45.375,6.1875,-27.5625,166.5,0
1776973035.402,9.244,2.2865,-1.4413,0.5582,-0.3904,-0.7117,-99.6,-9.15,4.8,9.7109,3.1508,-0.6369,-0.17,0.0946,0.5641,-89.4,21.3,-18.3,-4.45,-2.09,-8.48,0.0044,-0.0774,0.0305,4.875,13.6875,45.375,6.1875,-27.5625,166.5,0
1776973035.407,9.2153,2.4828,-1.9537,0.635,-0.3794,-0.7951,-99.6,-9.15,4.8,10.0533,3.1819,-0.3639,-0.1343,0.1284,0.6678,-89.4,21.3,-18.3,-4.44,-2.17,-8.47,0.0044,-0.0774,0.0305,4.875,13.6875,45.375,6.1875,-27.5625,166.5,0
1776973035.416,9.1004,2.9329,-2.2218,0.7056,-0.3571,-0.8998,-97.8,-8.7,3.6,10.2999,3.2561,-0.1389,-0.0741,0.1588,0.7711,-89.4,21.3,-18.3,-4.11,-2.23,-8.46,0.0044,-0.084,0.0425,4.875,13.6875,45.375,6.25,-27.625,166.5,0
1776973035.421,9.1004,2.9329,-2.2218,0.7056,-0.3571,-0.8998,-97.8,-8.7,3.6,10.2999,3.2561,-0.1389,-0.0741,0.1588,0.7711,-89.1,20.7,-18.75,-4.11,-2.23,-8.46,-0.0033,-0.1036,0.0578,4.875,13.6875,45.375,6.25,-27.6875,166.5,0
1776973035.427,9.1937,3.2801,-2.3008,0.7759,-0.3395,-1.0024,-98.55,-11.7,4.35,10.4986,3.2394,-0.1532,-0.0064,0.186,0.8735,-89.1,20.7,-18.75,-4.29,-2.19,-8.55,-0.0033,-0.1036,0.0578,4.875,13.6875,45.375,6.25,-27.6875,166.5,0
1776973035.432,9.1937,3.2801,-2.3008,0.7759,-0.3395,-1.0024,-98.55,-11.7,4.35,10.6374,3.0718,-0.1532,-0.0064,0.186,0.8735,-90.3,20.25,-18.45,-4.29,-2.19,-8.55,-0.0033,-0.1036,0.0578,5.5625,14.0,47.0,6.3125,-27.75,166.5,0
1776973035.437,9.3494,3.7493,-2.2122,0.7946,-0.311,-1.1293,-99.45,-13.05,4.5,10.6374,3.0718,-0.1532,0.0496,0.2025,0.9758,-90.3,20.25,-18.45,-4.3,-1.61,-8.81,0.0022,-0.1385,0.072,5.5625,14.0,47.0,6.3125,-27.75,166.5,0
1776973035.442,9.3494,3.7493,-2.2122,0.7946,-0.311,-1.1293,-99.45,-13.05,4.5,11.0947,2.885,-0.4717,0.0807,0.1956,1.0547,-89.55,21.9,-18.0,-4.3,-1.61,-8.81,0.0022,-0.1385,0.072,5.5625,14.0,47.0,6.3125,-27.8125,166.5,0
1776973035.447,10.173,4.0869,-1.9225,0.7328,-0.3933,-1.2452,-100.95,-13.5,6.0,11.0947,2.885,-0.4717,0.0807,0.1956,1.0547,-89.55,21.9,-18.0,-3.55,-2.45,-8.94,-0.0098,-0.1614,0.0654,5.5625,14.0,47.0,6.3125,-27.8125,166.5,0
1776973035.454,10.8026,3.3686,-1.889,0.5473,-0.4834,-1.307,-99.6,-13.65,4.8,11.9878,2.9592,-0.656,0.1428,0.1857,1.1314,-88.8,20.7,-18.75,-3.15,-1.31,-9.57,-0.0633,-0.2105,0.0207,5.5625,14.0,47.0,6.3125,-27.9375,166.5625,0
1776973035.459,10.8026,3.3686,-1.889,0.5473,-0.4834,-1.307,-99.6,-13.65,4.8,11.9878,2.9592,-0.656,0.1428,0.1857,1.1314,-88.8,20.7,-18.75,-3.15,-1.31,-9.57,-0.0633,-0.2105,0.0207,5.5625,14.0,47.0,6.25,-28.125,166.625,0
1776973035.467,11.169,3.7278,-0.7063,0.2793,-0.5537,-1.2185,-99.6,-13.65,4.8,11.9495,2.4277,0.0215,0.1564,0.1977,1.2073,-88.8,20.7,-18.75,-3.81,-1.98,-9.53,-0.168,-0.3022,0.0295,5.5625,14.0,47.0,6.3125,-28.3125,166.75,0
1776973035.476,11.236,4.7621,-0.2705,0.5415,-0.7165,-1.2577,-100.8,-15.9,6.9,11.9327,1.0989,0.3424,0.1452,0.1916,1.2854,-88.8,18.75,-18.0,-3.74,-2.06,-9.49,-0.2334,-0.3371,0.1102,5.5625,14.0,47.0,6.3125,-28.3125,166.75,0
1776973035.481,11.236,4.7621,-0.2705,0.5415,-0.7165,-1.2577,-100.8,-15.9,6.9,11.5472,0.1963,1.1827,0.1476,0.1713,1.3534,-88.8,18.75,-18.0,-3.74,-2.06,-9.49,-0.2334,-0.3371,0.1102,5.5625,14.0,47.0,6.3125,-28.3125,166.75,0
1776973035.486,11.6143,5.3678,-0.6488,0.3589,-0.7474,-1.3691,-101.85,-13.95,7.2,11.5472,0.1963,1.1827,0.1476,0.1713,1.3534,-88.8,18.75,-18.0,-4.01,-3.07,-8.8,-0.3545,-0.3676,0.156,5.5625,14.375,46.1875,6.3125,-28.5,167.0,0
1776973035.491,11.6143,5.3678,-0.6488,0.3589,-0.7474,-1.3691,-101.85,-13.95,7.2,11.0852,-0.644,1.585,0.1791,0.1636,1.3773,-88.65,16.5,-18.3,-4.01,-3.07,-8.8,-0.3545,-0.3676,0.156,5.5625,14.375,46.1875,6.3125,-28.5,167.0,0
1776973035.496,10.9535,4.7621,-0.3256,0.0877,-0.7722,-1.4362,-100.35,-12.15,8.25,11.0852,-0.644,1.585,0.1791,0.1636,1.3773,-88.65,16.5,-18.3,-4.49,-2.31,-9.23,-0.5443,-0.492,0.1691,5.5625,14.375,46.1875,6.3125,-28.8125,167.3125,0
1776973035.502,10.9535,4.7621,-0.3256,-0.0871,-0.6387,-1.5444,-100.35,-12.15,8.25,10.9319,-1.221,1.9728,0.2012,0.129,1.3776,-90.3,14.85,-17.4,-4.49,-2.31,-9.23,-0.672,-0.6414,0.1484,5.5625,14.375,46.1875,6.25,-29.1875,167.6875,0
1776973035.507,11.0421,3.8092,0.3017,-0.0871,-0.6387,-1.5444,-100.2,-12.0,8.55,10.9319,-1.221,1.9728,0.2012,0.129,1.3776,-90.3,14.85,-17.4,-4.2,-3.15,-9.46,-0.672,-0.6414,0.1484,5.5625,14.375,46.1875,6.125,-29.6875,168.0,0
1776973035.516,10.4627,3.1149,1.1612,-0.0925,-0.5196,-1.4935,-100.2,-12.0,8.55,10.975,-1.7789,1.834,0.1945,0.0746,1.3803,-88.95,14.55,-16.8,-3.98,-1.65,-10.45,-0.6316,-0.9218,0.1113,5.5625,14.375,46.1875,6.0,-30.3125,168.3125,0
1776973035.526,10.2424,2.4493,1.6592,0.0578,-0.5103,-1.3241,-99.3,-8.7,9.0,11.1642,-1.233,2.0039,0.1756,-0.0125,1.3331,-90.15,14.25,-17.55,-3.89,-2.33,-9.76,-0.6589,-1.165,-0.0011,5.5625,14.375,46.1875,6.0,-30.3125,168.3125,0
1776973035.531,10.2951,2.0806,1.6759,0.1415,-0.4138,-1.2105,-99.3,-8.7,9.0,10.2041,-0.4836,1.9225,0.1388,-0.085,1.2406,-88.35,12.0,-16.95,-3.89,-2.33,-9.76,-0.6589,-1.165,-0.0011,5.5625,14.375,46.1875,5.8125,-31.0625,168.5625,0
1776973035.536,10.2951,2.0806,1.6759,0.1415,-0.4138,-1.2105,-100.2,-8.25,10.65,10.2041,-0.4836,1.9225,0.1388,-0.085,1.2406,-88.35,12.0,-16.95,-5.04,-2.38,-9.35,-0.6807,-1.3603,0.0065,6.6875,13.25,46.5625,5.8125,-31.0625,168.5625,0
1776973035.541,10.4244,2.2003,1.7526,0.1092,-0.417,-1.1477,-100.2,-8.25,10.65,9.6989,-0.7326,2.071,0.2611,-0.1673,1.1301,-89.7,11.85,-16.8,-5.04,-2.38,-9.35,-0.6807,-1.3603,0.0065,6.6875,13.25,46.5625,5.625,-31.8125,168.875,0
1776973035.546,10.4244,2.2003,1.7526,0.1092,-0.417,-1.1477,-97.95,-8.25,8.55,9.6989,-0.7326,2.071,0.2611,-0.1673,1.1301,-89.7,11.85,-16.8,-5.29,-1.63,-9.63,-0.7145,-1.4039,0.0076,6.6875,13.25,46.5625,5.625,-31.8125,168.875,0
1776973035.556,10.0796,2.3343,1.7071,0.0373,-0.4485,-1.1335,-99.9,-7.8,8.55,9.2512,-2.3607,2.1979,0.5454,-0.2931,1.064,-89.7,11.85,-16.8,-5.6,-1.61,-9.28,-0.7789,-1.4737,-0.0731,6.6875,13.25,46.5625,5.375,-32.625,169.1875,0
1776973035.566,9.7516,2.1668,1.6879,-0.0826,-0.4498,-1.1548,-96.45,-7.2,9.75,9.2129,-3.1005,1.6783,0.7997,-0.3416,1.0587,-90.6,11.25,-16.65,-5.51,-1.55,-9.14,-0.8945,-1.597,-0.168,6.6875,13.25,46.5625,5.0625,-33.4375,169.5,0
1776973035.576,9.3565,1.7717,1.6281,-0.2539,-0.3605,-1.1471,-96.45,-7.2,9.75,8.8514,-3.2058,1.47,1.2289,-0.392,0.9827,-89.55,10.05,-18.45,-6.33,-3.39,-8.01,-0.9403,-1.5173,-0.1505,6.6875,13.25,46.5625,4.75,-34.25,169.875,0
1776973035.581,9.268,1.5107,1.3455,-0.3043,-0.2475,-1.0658,-96.45,-7.2,9.75,8.8514,-3.2058,1.47,1.2289,-0.392,0.9827,-89.55,10.05,-18.45,-6.33,-3.39,-8.01,-0.9403,-1.5173,-0.1505,6.6875,13.25,46.5625,4.75,-34.25,169.875,0
1776973035.586,9.268,1.5107,1.3455,-0.3043,-0.2475,-1.0658,-95.85,-5.25,8.55,8.8657,-2.9784,1.3575,1.3736,-0.4189,0.9057,-90.45,8.7,-17.1,-6.47,-2.68,-9.26,-1.1203,-1.3548,-0.1669,9.1875,11.375,47.375,4.4375,-35.0,170.375,0
1776973035.591,9.0692,1.2354,0.8404,-0.1545,-0.1977,-0.9324,-95.85,-5.25,8.55,8.8657,-2.9784,1.3575,1.3736,-0.4189,0.9057,-90.45,8.7,-17.1,-6.47,-2.68,-9.26,-1.1203,-1.3548,-0.1669,9.1875,11.375,47.375,4.4375,-35.0,170.375,0
1776973035.596,9.0692,1.2354,0.8404,-0.1545,-0.1977,-0.9324,-95.25,-5.7,9.3,8.5569,-2.4708,1.5467,1.4797,-0.4668,0.8431,-88.8,9.0,-18.0,-5.59,-3.36,-8.8,-1.6875,-1.2981,-0.3338,9.1875,11.375,47.375,3.875,-35.6875,171.0625,0
1776973035.601,9.1459,1.3647,0.4597,0.1452,-0.1215,-0.7695,-95.25,-5.7,9.3,8.5569,-2.4708,1.5467,1.4797,-0.4668,0.8431,-88.8,9.0,-18.0,-5.59,-3.36,-8.8,-2.0159,-1.2217,-0.4701,9.1875,11.375,47.375,3.1875,-36.3125,171.9375,0
1776973035.607,9.1459,1.3647,0.4597,0.1452,-0.1215,-0.7695,-94.5,-4.65,7.65,8.3151,-1.2785,1.47,1.6603,-0.4578,0.8601,-90.15,7.2,-17.85,-5.81,-8.4,-6.41,-2.0159,-1.2217,-0.4701,9.1875,11.375,47.375,2.125,-36.9375,172.6875,0
1776973035.617,9.2225,1.9321,0.3184,0.4751,-0.1378,-0.6193,-94.5,-3.45,7.95,8.2384,0.316,1.6137,1.9849,-0.4293,0.8964,-90.15,6.75,-17.55,-5.73,-11.97,-4.7,-2.2798,-1.2228,-1.0625,9.1875,11.375,47.375,2.125,-36.9375,172.6875,0
1776973035.627,9.0166,2.7461,0.1221,0.8516,-0.203,-0.5023,-94.5,-3.45,7.95,7.9918,2.1165,2.0806,2.5551,-0.3517,0.9158,-90.15,6.75,-17.55,-7.77,-12.54,-4.32,-2.4707,-1.3974,-2.3955,9.1875,11.375,47.375,0.3125,-37.5,173.0,0
1776973035.631,8.6694,3.7757,-0.2035,1.2364,-0.2164,-0.4311,-94.5,-3.45,7.95,7.9918,2.1165,2.0806,2.5551,-0.3517,0.9158,-90.15,6.75,-17.55,-7.77,-12.54,-4.32,-2.4707,-1.3974,-2.3955,9.1875,11.375,47.375,357.625,-38.125,172.625,0
1776973035.637,8.6694,3.7757,-0.2035,1.2364,-0.2164,-0.4311,-95.85,-4.8,7.35,7.7788,3.6871,2.1739,3.3771,-0.3136,0.8556,-90.9,4.5,-17.55,-7.97,-9.48,-6.0,-2.5667,-1.5577,-3.9434,12.875,8.875,47.0,357.625,-38.125,172.625,0
1776973035.641,8.1283,4.0342,-1.3958,1.525,-0.1905,-0.3874,-95.85,-4.8,7.35,7.7788,3.6871,2.1739,3.3771,-0.3136,0.8556,-90.9,4.5,-17.55,-7.97,-9.48,-6.0,-2.5667,-1.5577,-3.9434,12.875,8.875,47.0,357.625,-38.125,172.625,0
1776973035.647,8.1283,4.0342,-1.3958,1.9191,-0.081,-0.3531,-96.6,-6.75,8.55,7.5537,4.5059,2.4301,4.309,-0.3019,0.6779,-89.1,5.85,-20.25,-6.71,-8.44,-5.76,-2.6725,-1.3952,-5.0309,12.875,8.875,47.0,354.25,-38.5,171.875,0
1776973035.655,7.9799,4.8842,0.1604,1.9191,-0.081,-0.3531,-96.75,-10.2,9.75,7.4962,3.984,2.8347,5.1198,-0.3059,0.4325,-90.15,3.6,-20.1,-5.93,-7.21,-5.6,-2.894,-1.237,-5.608,12.875,8.875,47.0,350.5,-38.6875,170.9375,0
1776973035.659,7.5441,5.7533,0.7757,2.3419,-0.0274,-0.2443,-96.75,-10.2,9.75,7.4962,3.984,2.8347,5.1198,-0.3059,0.4325,-90.15,3.6,-20.1,-5.93,-7.21,-5.6,-2.894,-1.237,-5.608,12.875,8.875,47.0,346.625,-38.875,170.0625,0
1776973035.667,7.7883,5.7078,0.9098,2.3768,0.222,-0.1966,-97.05,-10.95,10.5,7.3981,2.2601,3.1029,5.7321,-0.2886,0.2246,-89.55,2.7,-19.2,-5.49,-5.34,-5.69,-3.2267,-1.2163,-5.7509,12.875,8.875,47.0,342.8125,-38.9375,169.4375,0
1776973035.677,7.9248,4.7716,0.9385,2.3952,0.3192,-0.1785,-98.85,-12.9,10.5,7.6495,0.4573,3.201,6.1164,-0.296,0.0741,-89.4,0.9,-18.6,-5.32,-1.56,-6.37,-3.4852,-1.1934,-5.633,12.875,8.875,47.0,342.8125,-38.9375,169.4375,0
1776973035.682,7.9248,4.7716,0.9385,2.3952,0.3192,-0.1785,-98.85,-12.9,10.5,8.0924,-1.0774,3.304,6.1164,-0.296,0.0741,-89.4,0.9,-18.6,-5.32,-1.56,-6.37,-3.4852,-1.1934,-5.633,12.875,8.875,47.0,342.8125,-38.9375,169.4375,0
1776973035.687,8.181,3.7948,0.9313,2.476,0.373,-0.15,-98.85,-12.9,10.5,8.0924,-1.0774,3.304,6.2851,-0.324,-0.0205,-89.7,0.15,-18.3,-5.11,-0.49,-6.71,-3.495,-1.0603,-5.3952,16.5625,3.5,46.1875,339.0625,-38.9375,168.9375,0
1776973035.692,8.181,3.7948,0.9313,2.476,0.373,-0.15,-99.15,-16.8,13.05,8.3965,-2.2194,3.1556,6.1899,-0.3936,-0.0754,-89.7,0.15,-18.3,-5.11,-0.49,-6.71,-3.495,-1.0603,-5.3952,16.5625,3.5,46.1875,339.0625,-38.9375,168.9375,0
1776973035.697,8.6263,3.0215,0.7254,2.5229,0.3861,-0.0818,-99.15,-16.8,13.05,8.3965,-2.2194,3.1556,6.1899,-0.3936,-0.0754,-89.7,0.15,-18.3,-4.76,-0.07,-6.96,-3.2518,-0.841,-5.0876,16.5625,3.5,46.1875,335.5625,-38.875,168.4375,0
1776973035.703,8.6263,3.0215,0.7254,2.5229,0.3861,-0.0818,-100.8,-18.15,16.8,8.4587,-3.1723,1.8866,5.8198,-0.4748,-0.1103,-90.6,-1.5,-19.2,-3.91,-0.21,-7.15,-2.8885,-0.5989,-4.768,16.5625,3.5,46.1875,332.3125,-38.625,167.875,0
1776973035.708,8.904,2.7916,0.2993,2.711,0.3451,0.0218,-100.8,-18.15,16.8,8.4587,-3.1723,1.8866,5.8198,-0.4748,-0.1103,-90.6,-1.5,-19.2,-3.91,-0.21,-7.15,-2.8885,-0.5989,-4.768,16.5625,3.5,46.1875,329.3125,-38.3125,167.3125,0
1776973035.717,8.8992,2.3367,-0.3615,2.7118,0.3259,0.0967,-101.4,-18.45,18.6,8.8514,-4.2449,3.3926,5.4025,-0.5225,-0.137,-90.6,-1.5,-19.2,-3.66,0.18,-7.06,-2.5318,-0.3982,-4.4288,16.5625,3.5,46.1875,329.3125,-38.3125,167.3125,0
1776973035.727,8.7795,1.7957,-0.6752,2.8456,0.2513,0.1519,-103.95,-21.15,20.7,8.9735,-4.8267,2.2936,4.5882,-0.6731,-0.1053,-89.55,-1.05,-19.2,-2.93,1.68,-7.23,-2.2242,-0.2596,-4.0764,16.5625,3.5,46.1875,326.625,-38.0,166.8125,0
1776973035.732,8.7795,1.7957,-0.6752,2.8456,0.2513,0.1519,-103.95,-21.15,20.7,9.5433,-6.019,0.9625,3.6854,-0.7405,-0.1178,-89.55,-1.05,-19.2,-2.93,1.68,-7.23,-2.2242,-0.2596,-4.0764,16.5625,3.5,46.1875,324.1875,-37.625,166.25,0
1776973035.737,8.5976,1.1875,-1.221,2.9521,0.2076,0.1844,-103.95,-21.15,20.7,9.5433,-6.019,0.9625,3.6854,-0.7405,-0.1178,-89.4,-3.6,-17.85,-2.82,2.41,-7.99,-1.8773,-0.18,-3.7405,20.5625,-1.75,47.6875,324.1875,-37.625,166.25,0
1776973035.742,8.5976,1.1875,-1.221,2.9521,0.2076,0.1844,-105.45,-24.9,27.6,9.7755,-6.699,1.3671,2.9708,-0.919,-0.1092,-89.4,-3.6,-17.85,-2.82,2.41,-7.99,-1.8773,-0.18,-3.7405,20.5625,-1.75,47.6875,322.0625,-37.1875,165.6875,0
1776973035.747,8.5904,0.565,-1.1779,3.0025,0.1964,0.194,-105.45,-24.9,27.6,9.7755,-6.699,1.3671,2.9708,-0.919,-0.1092,-89.4,-3.6,-17.55,-2.69,2.23,-8.21,-1.4312,-0.1134,-3.3608,20.5625,-1.75,47.6875,322.0625,-37.1875,165.6875,0
1776973035.754,8.5353,0.3687,-1.0822,2.9687,0.2206,0.2057,-108.75,-27.15,30.0,9.402,-6.1531,1.482,2.0952,-1.0096,-0.118,-89.7,-2.85,-17.85,-2.56,1.94,-8.57,-1.033,-0.0447,-2.9452,20.5625,-1.75,47.6875,320.1875,-36.8125,165.0625,0
1776973035.759,8.5353,0.3687,-1.0822,2.9687,0.2206,0.2057,-108.75,-27.15,30.0,9.4212,-5.2505,1.0295,1.17,-1.1106,-0.1391,-89.7,-2.85,-17.85,-2.56,1.94,-8.57,-1.033,-0.0447,-2.9452,20.5625,-1.75,47.6875,318.6875,-36.4375,164.4375,0
1776973035.767,8.7053,-0.0479,-1.4892,2.7622,0.2196,0.2388,-109.95,-27.3,34.2,9.4212,-5.2505,1.0295,1.17,-1.1106,-0.1391,-89.7,-2.85,-17.85,-2.78,1.26,-9.0,-0.6981,0.0207,-2.5438,20.5625,-1.75,47.6875,317.375,-36.0625,163.8125,0
1776973035.777,8.5856,-0.1724,-1.5778,2.6489,0.267,0.2491,-112.5,-28.5,38.7,9.3925,-3.4836,1.3455,0.4064,-1.2063,-0.1804,-89.55,-3.9,-19.5,-3.79,-0.6,-9.69,-0.4549,0.1004,-2.1817,20.5625,-1.75,47.6875,317.375,-36.0625,163.8125,0
1776973035.782,8.5856,-0.1724,-1.5778,2.5253,0.2177,0.2723,-115.05,-28.5,42.75,9.3925,-3.4836,1.3455,-0.1921,-1.2609,-0.2507,-89.55,-3.9,-19.5,-3.79,-0.6,-9.69,-0.4549,0.1004,-2.1817,20.5625,-1.75,47.6875,317.375,-36.0625,163.8125,0
1776973035.787,8.8777,-0.1628,-2.0877,2.5253,0.2177,0.2723,-115.05,-28.5,42.75,9.3709,-2.7102,1.2713,-0.1921,-1.2609,-0.2507,-89.55,-3.9,-19.5,-4.28,-1.49,-9.91,-0.3436,0.2105,-1.8675,23.6875,-4.6875,48.0,316.3125,-35.625,163.3125,0
1776973035.792,8.7412,-0.6608,-2.6456,2.4706,0.0965,0.2526,-115.05,-28.5,42.75,9.3709,-2.7102,1.2713,-0.5923,-1.3251,-0.328,-89.55,-3.9,-19.5,-4.28,-1.49,-9.91,-0.3436,0.2105,-1.8675,23.6875,-4.6875,48.0,316.3125,-35.625,163.3125,0
1776973035.797,8.7412,-0.6608,-2.6456,2.4706,0.0965,0.2526,-115.05,-28.5,42.75,9.2512,-1.7454,1.0151,-0.5923,-1.3251,-0.328,-88.05,-3.0,-21.75,-4.68,-2.16,-10.01,-0.3589,0.3742,-1.5828,23.6875,-4.6875,48.0,315.375,-35.1875,162.9375,0
1776973035.802,9.1674,-0.3974,-2.5163,2.4837,-0.0024,0.2289,-119.1,-28.8,49.5,9.2512,-1.7454,1.0151,-0.8372,-1.3211,-0.4263,-88.05,-3.0,-21.75,-4.68,-2.16,-10.01,-0.48,0.5803,-1.3166,23.6875,-4.6875,48.0,314.625,-34.6875,162.8125,0
1776973035.808,9.1674,-0.3974,-2.5163,2.4837,-0.0024,0.2289,-119.1,-28.8,49.5,9.2344,-0.8021,0.6512,-0.9006,-1.2817,-0.5153,-88.2,-4.05,-21.6,-5.06,-2.66,-9.79,-0.48,0.5803,-1.3166,23.6875,-4.6875,48.0,314.0,-34.0625,162.875,0
1776973035.817,8.904,-0.4501,-2.7892,2.1027,-0.0453,0.1916,-120.15,-30.75,51.9,9.3494,0.0215,0.1484,-0.8359,-1.2686,-0.5969,-89.55,-0.75,-23.25,-5.09,-2.69,-9.53,-0.6272,0.8192,-1.0636,23.6875,-4.6875,48.0,314.0,-34.0625,162.875,0
1776973035.827,8.4443,-0.5746,-2.988,1.7368,0.0472,0.1868,-122.85,-28.2,52.8,9.5098,0.668,-0.1652,-0.6251,-1.2436,-0.6789,-88.95,-2.1,-22.65,-5.04,-2.65,-9.19,-0.709,1.0417,-0.8367,23.6875,-4.6875,48.0,313.4375,-33.375,163.0625,0
1776973035.832,8.7029,-0.316,-3.0406,1.2782,0.1378,0.1863,-124.65,-27.45,55.35,9.5098,0.668,-0.1652,-0.6251,-1.2436,-0.6789,-88.95,-2.1,-22.65,-5.04,-2.65,-9.19,-0.709,1.0417,-0.8367,23.6875,-4.6875,48.0,313.4375,-33.375,163.0625,0
1776973035.837,8.7029,-0.316,-3.0406,1.2782,0.1378,0.1863,-124.65,-27.45,55.35,9.5361,0.9529,-0.158,-0.3643,-1.2105,-0.7568,-86.7,-0.45,-24.15,-5.03,-2.54,-8.88,-0.6861,1.2283,-0.6436,23.5625,-5.25,47.5625,313.0625,-32.625,163.375,0
1776973035.842,9.4427,0.4836,-2.8323,0.7101,0.2038,0.1873,-124.65,-27.45,55.35,9.5361,0.9529,-0.158,-0.3643,-1.2105,-0.7568,-86.7,-0.45,-24.15,-5.03,-2.54,-8.88,-0.6861,1.2283,-0.6436,23.5625,-5.25,47.5625,313.0625,-32.625,163.375,0
1776973035.847,9.4427,0.4836,-2.8323,0.7101,0.2038,0.1873,-124.65,-27.45,55.35,9.6869,1.0199,0.0694,-0.0981,-1.1876,-0.8045,-87.6,0.0,-24.75,-4.97,-2.4,-8.41,-0.5574,1.357,-0.5018,23.5625,-5.25,47.5625,312.8125,-31.8125,163.625,0
1776973035.854,9.505,0.6297,-2.9497,0.1876,0.19,0.1716,-124.65,-27.45,55.35,9.979,0.8284,-0.3136,-0.0981,-1.1876,-0.8045,-87.6,0.0,-24.75,-4.94,-2.57,-8.31,-0.3523,1.4214,-0.4069,23.5625,-5.25,47.5625,312.625,-31.0,163.8125,0
1776973035.859,9.505,0.6297,-2.9497,-0.2902,0.1823,0.1364,-123.75,-26.55,50.85,9.979,0.8284,-0.3136,0.0959,-1.1386,-0.8415,-87.6,0.0,-24.75,-4.94,-2.57,-8.31,-0.3523,1.4214,-0.4069,23.5625,-5.25,47.5625,312.5625,-30.1875,163.9375,0
1776973035.867,9.4715,0.8715,-3.1771,-0.2902,0.1823,0.1364,-123.75,-26.55,50.85,10.1562,0.4334,-0.5052,0.3059,-1.0933,-0.874,-88.8,0.75,-25.8,-5.05,-3.01,-8.23,-0.1244,1.4334,-0.3316,23.5625,-5.25,47.5625,312.5,-29.375,163.9375,0
1776973035.877,9.5026,0.917,-3.5267,-0.7584,0.1697,0.0882,-121.5,-23.7,47.1,10.2735,0.1221,-0.498,0.4964,-1.0304,-0.8716,-87.45,1.35,-26.1,-5.36,-3.92,-8.08,0.0545,1.4181,-0.2574,23.5625,-5.25,47.5625,312.5,-29.375,163.9375,0
1776973035.882,9.1578,1.1396,-3.541,-0.9625,0.2582,-0.0107,-121.5,-23.7,47.1,10.2735,0.1221,-0.498,0.4964,-1.0304,-0.8716,-87.45,1.35,-26.1,-5.36,-3.92,-8.08,0.0545,1.4181,-0.2574,23.5625,-5.25,47.5625,312.5,-28.625,163.9375,0
1776973035.887,9.1578,1.1396,-3.541,-0.9625,0.2582,-0.0107,-121.5,-22.2,44.7,10.2185,-0.0455,-0.3687,0.5745,-0.9614,-0.8639,-87.6,1.05,-27.3,-5.37,-4.16,-7.98,0.1516,1.3843,-0.2138,21.375,-5.75,48.6875,312.5,-28.625,163.9375,0
1776973035.892,9.2967,1.6209,-3.213,-1.096,0.2641,-0.085,-121.5,-22.2,44.7,10.2185,-0.0455,-0.3687,0.5745,-0.9614,-0.8639,-87.6,1.05,-27.3,-5.37,-4.16,-7.98,0.1516,1.3843,-0.2138,21.375,-5.75,48.6875,312.5,-27.875,163.875,0
1776973035.897,9.2967,1.6209,-3.213,-1.096,0.2641,-0.085,-121.5,-22.2,44.7,10.1251,-0.1173,-0.395,0.5638,-0.8857,-0.838,-87.75,2.85,-27.9,-5.33,-4.33,-7.86,0.1833,1.3264,-0.2127,21.375,-5.75,48.6875,312.5,-27.875,163.875,0
1776973035.904,9.2895,1.9537,-3.2346,-1.0557,0.2614,-0.1316,-121.5,-22.2,44.7,10.1969,-0.249,-0.589,0.4954,-0.8255,-0.809,-87.75,2.85,-27.9,-5.23,-4.61,-7.55,0.1833,1.2435,-0.2662,21.375,-5.75,48.6875,312.5,-27.1875,163.8125,0
1776973035.909,9.3494,2.5019,-3.4692,-1.056,0.2574,-0.1532,-120.6,-18.3,42.75,10.1969,-0.249,-0.589,0.4954,-0.8255,-0.809,-86.85,1.95,-27.75,-5.23,-4.61,-7.55,0.1833,1.2435,-0.2662,21.375,-5.75,48.6875,312.375,-26.5,163.6875,0
1776973035.917,9.3494,2.5019,-3.4692,-1.0754,0.2875,-0.1287,-120.75,-18.15,41.1,10.149,-0.2227,-0.6129,0.4346,-0.7751,-0.7861,-87.0,0.9,-27.9,-5.29,-4.79,-7.48,0.1669,1.1236,-0.3665,21.375,-5.75,48.6875,312.1875,-25.9375,163.5625,0
1776973035.927,9.979,3.0742,-2.988,-0.9955,0.2329,-0.1199,-120.0,-16.65,39.6,10.1347,-0.3424,-0.723,0.3525,-0.7125,-0.7642,-87.0,0.9,-27.9,-5.41,-4.92,-7.42,0.1342,0.9796,-0.4941,21.375,-5.75,48.6875,312.1875,-25.9375,163.5625,0
1776973035.932,9.979,3.0742,-2.988,-0.9955,0.2329,-0.1199,-120.0,-16.65,39.6,10.228,-0.6033,-0.8739,0.2926,-0.635,-0.7695,-87.0,0.9,-27.9,-5.41,-4.92,-7.42,0.1342,0.9796,-0.4941,21.375,-5.75,48.6875,312.1875,-25.9375,163.5625,0
1776973035.937,9.8402,3.3639,-3.1412,-0.9729,0.1338,-0.1188,-120.6,-15.75,40.95,10.228,-0.6033,-0.8739,0.2926,-0.635,-0.7695,-87.0,1.65,-28.2,-5.39,-4.99,-7.36,0.0818,0.8323,-0.6305,17.375,-5.875,49.875,311.9375,-25.375,163.4375,0
1776973035.942,9.8402,3.3639,-3.1412,-0.9729,0.1338,-0.1188,-120.6,-15.75,40.95,10.1203,-0.7949,-0.4669,0.3195,-0.586,-0.7869,-87.0,1.65,-28.2,-5.39,-4.99,-7.36,0.0818,0.8323,-0.6305,17.375,-5.875,49.875,311.9375,-25.375,163.4375,0
1776973035.947,9.3589,3.2657,-2.5091,-0.9124,0.1311,-0.1079,-120.6,-15.75,40.95,10.1203,-0.7949,-0.4669,0.3195,-0.586,-0.7869,-87.0,1.65,-28.2,-5.32,-4.99,-7.36,0.0273,0.685,-0.7625,17.375,-5.875,49.875,311.5625,-24.875,163.25,0
1776973035.952,9.3589,3.2657,-2.5091,-0.9124,0.1311,-0.1079,-120.6,-15.75,40.95,9.7588,-0.7685,-0.1245,0.3331,-0.5359,-0.8159,-87.0,1.65,-28.2,-5.32,-4.99,-7.36,-0.0218,0.5541,-0.8738,17.375,-5.875,49.875,311.125,-24.4375,163.0625,0
1776973035.958,9.0118,2.9999,-2.1308,-0.7741,0.194,-0.0903,-120.6,-15.75,40.95,9.7588,-0.7685,-0.1245,0.3331,-0.5359,-0.8159,-87.75,3.3,-30.9,-5.27,-4.76,-7.41,-0.0218,0.5541,-0.8738,17.375,-5.875,49.875,310.625,-24.0625,162.9375,0
1776973035.967,9.1626,3.201,-2.0207,-0.5801,0.2457,-0.0541,-121.5,-8.4,39.6,9.4834,-0.3376,-0.0479,0.287,-0.4898,-0.8247,-87.6,3.45,-29.55,-5.24,-4.45,-7.4,-0.036,0.4527,-0.9719,17.375,-5.875,49.875,310.625,-24.0625,162.9375,0
1776973035.977,9.2129,3.5602,-2.047,-0.4349,0.226,-0.0171,-122.1,-9.9,40.05,9.3637,0.1221,-0.2131,0.1735,-0.4509,-0.8428,-85.35,3.45,-29.85,-5.31,-3.99,-7.45,-0.0055,0.3796,-1.069,17.375,-5.875,49.875,310.0625,-23.6875,162.6875,0
1776973035.982,9.2129,3.5602,-2.047,-0.4349,0.226,-0.0171,-122.1,-9.9,40.05,9.3326,0.17,-0.0646,0.1468,-0.4085,-0.8604,-85.35,3.45,-29.85,-5.31,-3.99,-7.45,-0.0055,0.3796,-1.069,17.375,-5.875,49.875,309.4375,-23.3125,162.4375,0
1776973035.987,9.2368,3.735,-2.1284,-0.2329,0.2422,0.0197,-120.6,-9.0,39.45,9.3326,0.17,-0.0646,0.1468,-0.4085,-0.8604,-86.1,3.9,-29.85,-5.61,-3.92,-7.62,0.06,0.3185,-1.1432,15.5625,-5.0,49.0625,309.4375,-23.3125,162.4375,0
1776973035.992,9.2368,3.735,-2.1284,-0.2329,0.2422,0.0197,-120.6,-9.0,39.45,9.3039,0.1484,0.2394,0.2505,-0.3651,-0.8761,-86.1,3.9,-29.85,-5.61,-3.92,-7.62,0.06,0.3185,-1.1432,15.5625,-5.0,49.0625,308.8125,-23.0,162.0625,0
1776973035.997,8.9711,3.7661,-2.047,-0.0925,0.2348,0.0506,-120.6,-9.3,40.5,9.3039,0.1484,0.2394,0.2505,-0.3651,-0.8761,-86.1,3.9,-29.85,-5.88,-3.97,-7.73,0.1429,0.2836,-1.1934,15.5625,-5.0,49.0625,308.8125,-23.0,162.0625,0
1776973036.002,8.9711,3.7661,-2.047,-0.0925,0.2348,0.0506,-120.6,-9.3,40.5,9.1339,0.1844,0.3089,0.401,-0.311,-0.8665,-86.1,3.9,-29.85,-5.88,-3.97,-7.73,0.204,0.2934,-1.2195,15.5625,-5.0,49.0625,308.1875,-22.625,161.75,0
1776973036.008,8.6287,3.5698,-2.0614,0.0751,0.2262,0.0802,-120.6,-9.3,40.5,8.8466,0.2825,0.1652,0.401,-0.311,-0.8665,-86.85,4.2,-30.3,-6.05,-3.97,-7.56,0.204,0.2934,-1.2195,15.5625,-5.0,49.0625,307.5625,-22.1875,161.375,0
1776973036.018,8.2432,3.4046,-2.0877,0.2302,0.2537,0.1111,-121.95,-10.8,39.15,8.7676,0.2466,0.0,0.5465,-0.2438,-0.8439,-86.85,4.2,-30.3,-5.84,-3.85,-7.28,0.2269,0.3414,-1.2294,15.5625,-5.0,49.0625,307.5625,-22.1875,161.375,0
1776973036.028,8.023,3.2633,-1.4988,0.3464,0.3035,0.1545,-119.7,-9.45,38.25,8.5904,-0.3783,-0.6584,0.6488,-0.2132,-0.8314,-86.85,4.2,-31.35,-5.54,-3.52,-6.99,0.2073,0.3938,-1.2228,15.5625,-5.0,49.0625,306.9375,-21.8125,161.0,0
1776973036.032,8.023,3.2633,-1.4988,0.3464,0.3035,0.1545,-119.7,-9.45,38.25,8.5904,-0.3783,-0.6584,0.5758,-0.1887,-0.8322,-86.85,4.2,-31.35,-5.54,-3.52,-6.99,0.2073,0.3938,-1.2228,15.5625,-5.0,49.0625,306.3125,-21.375,160.6875,0
1776973036.038,7.5513,3.1508,-1.4317,0.4295,0.3512,0.2068,-118.35,-10.5,39.15,8.7891,-0.2418,1.4772,0.7464,-0.2393,-0.8055,-86.55,6.15,-30.3,-5.3,-3.04,-6.69,0.1636,0.408,-1.2075,15.75,-3.5625,48.5625,306.3125,-21.375,160.6875,0
1776973036.042,7.5513,3.1508,-1.4317,0.4295,0.3512,0.2068,-118.35,-10.5,39.15,8.7891,-0.2418,1.4772,0.7464,-0.2393,-0.8055,-86.55,6.15,-30.3,-5.3,-3.04,-6.69,0.1636,0.408,-1.2075,15.75,-3.5625,48.5625,305.6875,-20.9375,160.375,0
1776973036.047,7.0773,3.237,-1.3336,0.461,0.473,0.2627,-120.0,-10.95,39.3,8.7676,0.0718,0.5674,0.6315,-0.2814,-0.6888,-86.85,5.85,-31.8,-4.54,-0.5,-6.58,0.1429,0.3632,-1.2065,15.75,-3.5625,48.5625,305.6875,-20.9375,160.375,0
1776973036.055,6.8977,3.1867,-1.1995,0.5132,0.6297,0.3246,-120.9,-11.25,40.5,8.7676,0.0718,0.5674,0.6315,-0.2814,-0.6888,-86.85,5.85,-31.8,-5.03,-0.01,-7.02,0.2127,0.2662,-1.2348,15.75,-3.5625,48.5625,305.0625,-20.5625,160.0625,0
1776973036.06,6.8977,3.1867,-1.1995,0.5132,0.6297,0.3246,-120.9,-11.25,40.5,9.0836,0.0311,-0.3903,0.579,-0.291,-0.5814,-85.8,5.85,-31.8,-5.03,-0.01,-7.02,0.2127,0.2662,-1.2348,15.75,-3.5625,48.5625,304.4375,-20.25,159.5625,0
1776973036.068,6.9911,2.9521,-0.8978,0.5553,0.8015,0.392,-120.9,-11.25,40.5,8.8705,-0.0766,-0.5148,0.7528,-0.3027,-0.4935,-86.55,6.15,-31.05,-5.69,-0.92,-7.19,0.4222,0.1647,-1.3068,15.75,-3.5625,48.5625,303.6875,-19.875,159.0,0
1776973036.078,7.4077,2.6935,-0.3591,0.5945,0.9387,0.4511,-119.4,-13.8,42.3,8.4443,0.0383,-0.0838,0.9382,-0.2542,-0.4034,-85.35,6.15,-30.3,-5.79,-3.04,-6.61,0.5618,0.1145,-1.369,15.75,-3.5625,48.5625,303.6875,-19.875,159.0,0
1776973036.083,7.9224,2.4924,0.3232,0.6312,0.9547,0.5039,-119.4,-13.8,42.3,8.4443,0.0383,-0.0838,0.9382,-0.2542,-0.4034,-85.35,6.15,-30.3,-5.79,-3.04,-6.61,0.5618,0.1145,-1.369,15.75,-3.5625,48.5625,303.6875,-19.875,159.0,0
1776973036.088,7.9224,2.4924,0.3232,0.6312,0.9547,0.5039,-120.9,-14.55,43.35,8.1666,-0.0024,-0.0862,1.0304,-0.2078,-0.3464,-85.35,6.15,-30.3,-5.73,-3.43,-6.37,0.4472,0.0873,-1.3864,15.5625,-2.375,48.75,303.0,-19.5625,158.5,0
1776973036.093,8.4491,2.5139,0.759,0.6912,0.9726,0.5313,-120.9,-14.55,43.35,8.1666,-0.0024,-0.0862,1.0304,-0.2078,-0.3464,-85.35,6.15,-30.3,-5.73,-3.43,-6.37,0.4472,0.0873,-1.3864,15.5625,-2.375,48.75,303.0,-19.5625,158.5,0
1776973036.098,8.4491,2.5139,0.759,0.6912,0.9726,0.5313,-121.5,-16.2,43.95,8.0206,-0.0407,-0.2035,1.0952,-0.1743,-0.3147,-85.95,6.0,-31.65,-5.68,-3.23,-6.21,0.1156,0.0327,-1.3635,15.5625,-2.375,48.75,302.25,-19.3125,158.1875,0
1776973036.104,9.1339,2.4181,0.6967,0.7317,0.9611,0.4983,-121.5,-16.95,43.95,8.0206,-0.0407,-0.2035,1.0952,-0.1743,-0.3147,-85.95,6.0,-31.65,-5.73,-2.1,-5.73,-0.2629,-0.0491,-1.3374,15.5625,-2.375,48.75,301.5,-19.0625,158.125,0
1776973036.109,9.1339,2.4181,0.6967,0.7317,0.9611,0.4983,-121.5,-16.95,43.95,8.0804,-0.3136,-0.4693,1.0986,-0.1314,-0.2745,-85.2,7.95,-31.65,-5.73,-2.1,-5.73,-0.2629,-0.0491,-1.3374,15.5625,-2.375,48.75,300.6875,-18.8125,158.125,0
1776973036.118,9.8809,2.2458,-0.2179,0.6478,0.9281,0.4783,-121.5,-16.95,43.95,8.2289,-1.0151,-0.4525,1.108,-0.0618,-0.2451,-86.85,3.0,-31.35,-5.93,-1.79,-5.71,-0.5269,-0.1451,-1.3319,15.5625,-2.375,48.75,299.875,-18.6875,158.25,0
1776973036.128,9.8114,2.2027,-1.336,0.6936,0.8228,0.4271,-121.65,-15.75,43.35,8.7604,-1.3838,0.316,1.1602,-0.0144,-0.2137,-86.55,4.2,-30.6,-6.19,-1.64,-5.85,-0.6163,-0.2225,-1.3548,15.5625,-2.375,48.75,299.875,-18.6875,158.25,0
1776973036.133,9.4667,2.1452,-1.6017,0.7703,0.8018,0.3667,-121.65,-15.75,43.35,10.0102,-1.0295,0.2753,1.1602,-0.0144,-0.2137,-86.55,4.2,-30.6,-6.19,-1.64,-5.85,-0.6163,-0.2225,-1.3548,15.5625,-2.375,48.75,299.0,-18.5625,158.3125,0
1776973036.138,9.4667,2.1452,-1.6017,0.7703,0.8018,0.3667,-122.4,-14.55,44.4,10.0102,-1.0295,0.2753,0.9792,0.0901,-0.263,-85.8,5.4,-29.55,-5.42,-2.47,-6.56,-0.564,-0.2727,-1.3624,15.6875,-0.75,49.75,299.0,-18.5625,158.3125,0
1776973036.143,9.1243,1.9297,-1.9154,0.8396,0.8553,0.393,-122.4,-14.55,44.4,8.9759,-0.7877,0.1939,0.9792,0.0901,-0.263,-85.8,5.4,-29.55,-5.42,-2.47,-6.56,-0.564,-0.2727,-1.3624,15.6875,-0.75,49.75,298.1875,-18.5625,158.375,0
1776973036.148,9.1243,1.9297,-1.9154,0.8396,0.8553,0.393,-123.75,-15.75,45.15,8.9759,-0.7877,0.1939,0.7679,0.1178,-0.239,-86.1,4.65,-30.6,-2.96,0.93,-1.08,-0.6381,-0.5291,-1.2468,15.6875,-0.75,49.75,298.1875,-18.5625,158.375,0
1776973036.156,9.1171,1.6544,-2.059,0.9598,0.9523,0.494,-125.85,-13.65,47.1,8.6574,-0.8523,1.0511,0.8196,0.3283,-0.1306,-86.1,4.65,-30.6,-2.37,-3.14,-5.46,-1.2545,-1.3188,-0.5149,15.6875,-0.75,49.75,297.6875,-19.125,158.9375,0
1776973036.161,9.7061,1.5945,-1.9896,0.979,1.101,0.6083,-125.85,-13.65,47.1,8.6574,-0.8523,1.0511,0.8196,0.3283,-0.1306,-86.1,4.65,-30.6,-2.37,-3.14,-5.46,-1.2545,-1.3188,-0.5149,15.6875,-0.75,49.75,297.25,-19.9375,159.6875,0
1776973036.168,9.7061,1.5945,-1.9896,0.979,1.101,0.6083,-127.8,-17.25,48.0,10.7955,0.8188,0.261,0.4823,0.373,-0.2819,-84.6,3.0,-28.8,-4.37,-5.77,-9.31,-1.6199,-1.5981,-0.1549,15.6875,-0.75,49.75,296.9375,-20.75,160.6875,0
1776973036.178,10.4507,1.7142,-1.8555,0.9084,1.1034,0.6574,-127.8,-17.25,48.0,10.9271,2.5091,-1.3288,-0.2348,0.0538,-0.4738,-84.6,3.0,-28.8,-5.12,-5.24,-9.07,-1.9711,-1.6122,0.0556,15.6875,-0.75,49.75,296.9375,-20.75,160.6875,0
1776973036.183,11.1354,1.968,-1.5419,0.7893,0.9561,0.659,-127.5,-18.3,48.75,13.3716,3.9624,-4.0558,-0.6835,-0.0954,-0.4943,-84.6,3.0,-28.8,-5.12,-5.24,-9.07,-1.9711,-1.6122,0.0556,15.6875,-0.75,49.75,296.75,-21.5625,161.8125,0
1776973036.188,11.1354,1.968,-1.5419,0.7893,0.9561,0.659,-127.5,-18.3,48.75,13.3716,3.9624,-4.0558,-0.6835,-0.0954,-0.4943,-85.35,4.2,-28.5,-7.19,7.06,-15.14,-2.174,-1.3679,0.2749,16.0,-1.6875,48.0625,296.75,-21.5625,161.8125,0
1776973036.193,12.4187,1.7502,-1.0654,0.3565,1.4485,0.7181,-127.95,-16.95,48.9,16.1202,1.4006,-10.4746,-0.2785,-0.4663,-0.214,-85.35,4.2,-28.5,-7.19,7.06,-15.14,-2.174,-1.3679,0.2749,16.0,-1.6875,48.0625,296.625,-22.1875,162.9375,0
1776973036.198,12.4187,1.7502,-1.0654,0.4258,0.8266,0.729,-127.95,-16.95,48.9,16.1202,1.4006,-10.4746,-0.2785,-0.4663,-0.214,-85.35,4.2,-28.5,-9.83,14.27,-18.88,-2.0442,-1.1126,0.3011,16.0,-1.6875,48.0625,296.625,-22.1875,162.9375,0
1776973036.204,15.1888,2.478,-0.8859,0.4258,0.8266,0.729,-128.1,-16.05,45.9,13.5679,-1.7693,-7.0102,0.0807,-0.2611,0.0115,-84.75,3.6,-28.95,-9.83,14.27,-18.88,-0.5978,-0.8301,0.0262,16.0,-1.6875,48.0625,296.5,-22.625,163.25,0
1776973036.209,16.7905,2.9497,-2.1596,-0.1452,0.9763,0.5343,-128.1,-16.05,45.9,13.5679,-1.7693,-7.0102,0.0807,-0.2611,0.0115,-85.8,5.4,-29.55,-7.36,14.97,-17.71,-0.5978,-0.8301,0.0262,16.0,-1.6875,48.0625,296.5625,-23.0,163.125,0
1776973036.218,16.4266,2.6336,-4.0199,-0.485,0.3389,0.23,-130.05,-15.0,45.15,10.9176,-3.8068,-3.8738,0.644,0.2923,0.263,-85.8,5.4,-29.55,-4.39,-16.51,-6.07,0.2073,-0.6207,0.2138,16.0,-1.6875,48.0625,296.5625,-23.0,163.125,0
1776973036.228,13.3764,2.6935,-5.6431,-0.2769,0.1596,0.0157,-130.05,-15.0,45.15,11.0277,-2.6145,-3.5171,0.1887,0.5665,0.2966,-86.25,4.05,-28.65,-5.09,-10.64,-7.86,0.2934,-0.4058,0.2454,16.0,-1.6875,48.0625,296.6875,-23.25,163.0,0
1776973036.233,13.3764,2.6935,-5.6431,-0.2769,0.1596,0.0157,-132.0,-9.15,41.1,10.2448,-3.067,-4.4628,-0.5012,0.4887,0.1996,-86.25,4.05,-28.65,-5.09,-10.64,-7.86,0.2934,-0.4058,0.2454,16.0,-1.6875,48.0625,296.6875,-23.25,163.0,0
1776973036.238,10.0317,2.9999,-5.1427,0.1383,-0.0397,-0.1495,-132.0,-9.15,41.1,10.2448,-3.067,-4.4628,-0.5012,0.4887,0.1996,-86.25,4.05,-28.65,-4.93,4.67,-11.44,-0.1724,-0.4483,0.1604,18.875,-6.5625,48.0,296.75,-23.5,163.125,0
1776973036.243,10.0317,2.9999,-5.1427,0.1383,-0.0397,-0.1495,-132.0,-7.65,39.6,8.4659,-2.5594,-2.3679,-0.7314,0.364,0.1455,-85.8,4.65,-29.25,-4.93,4.67,-11.44,-0.1724,-0.4483,0.1604,18.875,-6.5625,48.0,296.75,-23.5,163.125,0
1776973036.248,8.0517,2.0351,-3.213,0.1948,-0.1796,-0.2305,-132.0,-7.65,39.6,7.5178,0.0599,-1.81,-0.7314,0.364,0.1455,-85.8,4.65,-29.25,-3.99,-2.95,-8.35,-0.1724,-0.4483,0.1604,18.875,-6.5625,48.0,296.75,-23.75,163.1875,0
1776973036.256,8.0517,2.0351,-3.213,0.1972,-0.2579,-0.2249,-133.8,-9.15,39.3,7.5178,0.0599,-1.81,-1.0749,0.3608,0.1058,-85.8,4.65,-29.25,-2.92,-5.67,-7.61,-0.0011,-0.2923,0.0305,18.875,-6.5625,48.0,296.75,-23.9375,163.1875,0
1776973036.261,8.1499,0.6225,-1.3216,0.1972,-0.2579,-0.2249,-136.2,-8.55,41.25,7.8769,2.4852,-1.0439,-1.117,0.4429,0.0807,-85.35,5.85,-27.75,-2.92,-5.67,-7.61,-0.0011,-0.2923,0.0305,18.875,-6.5625,48.0,296.75,-24.0625,163.0625,0
1776973036.268,6.778,-0.328,-0.9673,-0.1567,-0.2737,-0.238,-136.2,-8.55,41.25,9.0644,5.0973,0.0168,-0.6587,0.5271,0.1188,-85.35,5.85,-27.75,-3.43,-2.13,-8.58,0.1953,-0.192,-0.0284,18.875,-6.5625,48.0,296.75,-24.1875,162.875,0
1776973036.278,6.9959,-0.9601,-0.261,-0.8348,0.0003,0.0226,-133.95,-11.25,40.5,9.7348,6.845,-0.17,0.0306,0.4836,0.1279,-85.95,5.25,-28.2,-4.04,-2.74,-8.29,0.2563,-0.3087,0.0109,18.875,-6.5625,48.0,296.75,-24.1875,162.875,0
1776973036.283,6.9959,-0.9601,-0.261,-0.8348,0.0003,0.0226,-133.95,-11.25,40.5,9.7348,6.845,-0.17,0.0306,0.4836,0.1279,-86.7,4.5,-27.45,-4.04,-2.74,-8.29,0.2563,-0.3087,0.0109,21.375,-6.5625,49.25,296.75,-24.4375,162.75,0
1776973036.288,7.5776,-0.7733,1.2474,-0.7698,0.0634,0.2222,-133.95,-11.25,40.5,9.7444,6.3566,-0.4836,0.6883,0.4498,0.0805,-86.7,4.5,-27.45,-3.83,-4.72,-7.8,0.1636,-0.3785,0.0229,21.375,-6.5625,49.25,296.75,-24.4375,162.75,0
1776973036.293,7.5776,-0.7733,1.2474,-0.7698,0.0634,0.2222,-129.0,-12.9,38.25,9.7444,6.3566,-0.4836,0.6883,0.4498,0.0805,-85.5,4.8,-28.2,-3.83,-4.72,-7.8,0.1636,-0.3785,0.0229,21.375,-6.5625,49.25,296.8125,-24.625,162.75,0
1776973036.298,7.331,0.2586,2.296,-0.2627,0.2068,0.3275,-129.0,-12.9,38.25,9.493,4.2832,0.0838,1.2774,0.4327,0.0109,-85.5,4.8,-28.2,-3.82,-4.3,-7.9,-0.0065,-0.3807,0.0742,21.375,-6.5625,49.25,296.8125,-24.625,162.75,0
1776973036.303,7.331,0.2586,2.296,-0.2627,0.2068,0.3275,-125.1,-15.45,37.2,9.493,4.2832,0.0838,1.2774,0.4327,0.0109,-86.55,4.65,-28.8,-3.82,-4.3,-7.9,-0.0338,-0.3632,0.1124,21.375,-6.5625,49.25,296.8125,-24.8125,162.8125,0
1776973036.309,8.011,0.9266,2.9473,0.0661,0.4471,0.4085,-125.1,-15.45,37.2,9.5505,1.2929,1.2186,1.5375,0.4181,0.0069,-86.55,4.65,-28.8,-3.78,-3.41,-8.13,-0.0338,-0.3632,0.1124,21.375,-6.5625,49.25,296.875,-25.0625,162.8125,0
1776973036.318,9.1746,1.6496,3.8954,0.3933,0.607,0.392,-122.55,-13.2,33.9,9.8474,-1.8196,1.6328,1.2574,0.4069,0.0482,-86.85,3.45,-26.25,-4.39,-3.19,-8.4,-0.0284,-0.3687,0.1342,21.375,-6.5625,49.25,296.875,-25.0625,162.8125,0
1776973036.328,9.8521,2.4684,4.2497,0.7099,0.7128,0.3477,-121.65,-11.55,32.4,10.4411,-3.62,1.221,0.6336,0.3262,0.0823,-86.85,3.45,-26.25,-4.62,-2.84,-8.51,-0.084,-0.3491,0.1385,21.375,-6.5625,49.25,296.875,-25.25,162.875,0
1776973036.333,9.8521,2.4684,4.2497,0.7099,0.7128,0.3477,-121.65,-11.55,32.4,10.4411,-3.62,1.221,0.6336,0.3262,0.0823,-87.75,3.6,-27.45,-4.62,-2.84,-8.51,-0.084,-0.3491,0.1385,21.375,-6.5625,49.25,296.875,-25.25,162.875,0
1776973036.338,10.1083,3.1508,3.2801,0.8588,0.7091,0.3099,-121.65,-11.55,32.4,10.2424,-3.5626,0.5746,-0.0298,0.2236,0.117,-87.75,3.6,-27.45,-4.65,-2.63,-8.62,-0.0993,-0.2531,0.1287,21.25,-5.75,48.0625,296.9375,-25.4375,162.9375,0
1776973036.343,10.1083,3.1508,3.2801,0.8588,0.7091,0.3099,-121.65,-11.55,32.4,10.2424,-3.5626,0.5746,-0.0298,0.2236,0.117,-86.85,3.45,-26.55,-4.65,-2.63,-8.62,-0.0993,-0.2531,0.1287,21.25,-5.75,48.0625,296.9375,-25.4375,162.9375,0
1776973036.348,10.6111,2.8874,1.4413,0.8108,0.595,0.2611,-121.65,-11.55,32.4,10.1227,-2.2314,-0.3184,-0.5566,0.1911,0.1348,-86.85,3.45,-26.55,-4.65,-2.64,-8.59,-0.0458,-0.1222,0.1025,21.25,-5.75,48.0625,297.0,-25.5,163.0,0
1776973036.355,10.6207,1.8747,-0.2562,0.6238,0.4578,0.2409,-117.3,-0.75,26.7,10.0604,-0.7183,-0.8308,-0.8092,0.1841,0.1279,-87.45,4.5,-26.1,-4.68,-2.48,-8.8,-0.0142,-0.0055,0.0764,21.25,-5.75,48.0625,297.0,-25.5,163.0,0
1776973036.359,10.6207,1.8747,-0.2562,0.6238,0.4578,0.2409,-117.3,4.05,25.65,10.0604,-0.7183,-0.8308,-0.8092,0.1841,0.1279,-87.45,4.5,-26.1,-4.68,-2.48,-8.8,-0.0142,-0.0055,0.0764,21.25,-5.75,48.0625,297.0625,-25.5,163.0,0
1776973036.368,10.5465,0.9888,-1.2594,0.4285,0.3525,0.2545,-117.3,4.05,25.65,10.0293,0.9888,-1.1684,-0.7901,0.1916,0.1188,-88.8,3.45,-25.8,-4.66,-2.29,-8.9,-0.0262,0.0044,0.0589,21.25,-5.75,48.0625,297.0625,-25.5625,163.0625,0
1776973036.378,10.5177,0.7973,-1.5897,0.3821,0.2721,0.2734,-119.7,8.4,23.55,9.7372,2.4588,-1.5826,-0.5817,0.2459,0.1087,-86.85,3.45,-26.55,-4.43,-2.27,-8.83,-0.0676,-0.0415,0.0447,21.25,-5.75,48.0625,297.0625,-25.5625,163.0625,0
1776973036.383,9.3541,-0.0239,-1.9992,0.4594,0.1921,0.288,-119.7,13.65,22.5,9.4427,3.2729,-1.6783,-0.2044,0.3008,0.0967,-86.55,3.45,-26.25,-4.43,-2.27,-8.83,-0.0676,-0.0415,0.0447,21.25,-5.75,48.0625,297.0625,-25.5625,163.0625,0
1776973036.388,9.3541,-0.0239,-1.9992,0.4594,0.1921,0.288,-119.7,13.65,22.5,9.4427,3.2729,-1.6783,-0.2044,0.3008,0.0967,-86.55,3.45,-26.25,-4.42,-2.2,-8.82,-0.0818,-0.0796,0.0338,21.6875,-6.25,48.5,297.0625,-25.625,163.125,0
1776973036.393,9.0214,-0.5195,-2.4062,0.4714,0.4447,0.3296,-119.7,13.65,22.5,9.3541,3.3399,-1.573,0.1804,0.3685,0.0991,-86.55,3.45,-26.25,-4.42,-2.2,-8.82,-0.0818,-0.0796,0.0338,21.6875,-6.25,48.5,297.0625,-25.625,163.125,0
1776973036.398,9.0214,-0.5195,-2.4062,0.4714,0.4447,0.3296,-119.7,13.65,22.5,9.3541,3.3399,-1.573,0.1804,0.3685,0.0991,-86.55,3.45,-26.25,-4.33,-2.25,-8.74,-0.0753,-0.0884,0.0175,21.6875,-6.25,48.5,297.0625,-25.625,163.1875,0
1776973036.403,10.0197,-0.2131,-0.079,0.9824,0.5454,0.2182,-126.75,20.25,26.25,9.4044,2.8706,-1.3695,0.4895,0.3864,0.0911,-86.55,3.45,-25.8,-4.33,-2.25,-8.74,-0.0676,-0.0993,0.0131,21.6875,-6.25,48.5,297.0625,-25.6875,163.1875,0
1776973036.409,10.0197,-0.2131,-0.079,0.9824,0.5454,0.2182,-130.5,20.7,32.85,9.4044,2.8706,-1.3695,0.4895,0.3864,0.0911,-86.55,3.45,-25.8,-4.17,-2.33,-8.63,-0.0676,-0.0993,0.0131,21.6875,-6.25,48.5,297.0625,-25.75,163.25,0
1776973036.418,9.9695,1.7669,0.6057,1.2438,0.271,0.2302,-136.65,18.45,39.3,9.4212,2.2529,-0.7781,0.7224,0.3906,0.097,-88.2,4.05,-26.4,-4.21,-2.46,-8.48,-0.0665,-0.1156,0.0131,21.6875,-6.25,48.5,297.0625,-25.75,163.25,0
1776973036.429,9.4427,2.5379,1.0104,0.9758,0.1487,0.2193,-139.95,17.7,43.95,9.4355,1.4892,-0.419,0.7994,0.3845,0.1069,-87.75,3.6,-25.65,-4.33,-2.56,-8.45,-0.0676,-0.108,0.0098,21.6875,-6.25,48.5,297.0,-25.8125,163.25,0
1776973036.433,9.4619,2.4876,1.2234,0.6963,0.2033,0.142,-139.95,17.7,43.95,9.7324,0.4621,-0.1125,0.6776,0.3507,0.1015,-87.3,2.25,-23.7,-4.33,-2.56,-8.45,-0.0676,-0.108,0.0098,21.6875,-6.25,48.5,297.0,-25.875,163.3125,0
1776973036.438,9.4619,2.4876,1.2234,0.6963,0.2033,0.142,-139.95,17.7,43.95,9.7324,0.4621,-0.1125,0.6776,0.3507,0.1015,-87.3,2.25,-23.7,-4.24,-2.61,-8.4,-0.0491,-0.0567,0.0098,20.875,-6.6875,47.6875,297.0,-25.875,163.3125,0
1776973036.443,9.7229,1.81,1.2354,0.3619,0.2585,0.0298,-139.95,17.7,43.95,9.7372,-0.2849,0.0215,0.4549,0.2992,0.0887,-87.75,2.1,-24.15,-4.24,-2.61,-8.4,-0.0491,-0.0567,0.0098,20.875,-6.6875,47.6875,297.0,-25.875,163.3125,0
1776973036.448,9.7229,1.81,1.2354,0.3619,0.2585,0.0298,-139.95,17.7,43.95,9.7372,-0.2849,0.0215,0.4549,0.2992,0.0887,-87.75,2.1,-24.15,-3.77,-2.67,-8.26,-0.0425,-0.0447,0.0164,20.875,-6.6875,47.6875,297.0,-25.875,163.3125,0
1776973036.458,9.7731,1.2809,0.9026,0.0096,0.3403,-0.0799,-139.05,14.55,42.0,9.6941,-0.7494,0.2945,0.1958,0.2726,0.1015,-88.05,3.45,-27.3,-4.06,-2.69,-8.36,-0.0578,-0.1014,0.0349,20.875,-6.6875,47.6875,297.0,-25.9375,163.3125,0
1776973036.467,9.7468,0.4693,0.4238,-0.3131,0.3288,-0.11,-135.9,11.7,39.0,9.9599,-0.8021,0.3543,-0.0767,0.2542,0.1327,-88.05,3.45,-27.3,-4.37,-2.42,-8.54,-0.0774,-0.1538,0.0447,20.875,-6.6875,47.6875,297.0,-26.0,163.375,0
1776973036.472,9.4451,0.1484,0.2921,-0.3709,0.267,-0.081,-135.9,11.7,39.0,10.0197,-0.4142,-0.0383,-0.3701,0.2276,0.1551,-89.1,3.45,-24.0,-4.37,-2.42,-8.54,-0.0851,-0.1484,0.0415,20.875,-6.6875,47.6875,297.0,-26.125,163.4375,0
1776973036.479,9.5409,0.2059,0.2346,-0.3451,0.2646,-0.0091,-131.85,11.55,37.05,9.8857,0.2107,-0.4238,-0.3701,0.2276,0.1551,-89.1,3.45,-24.0,-4.66,-2.59,-8.63,-0.0851,-0.1484,0.0415,20.875,-6.6875,47.6875,297.0,-26.125,163.4375,0
1776973036.484,9.5409,0.2059,0.2346,-0.3451,0.2646,-0.0091,-131.85,11.55,37.05,9.8857,0.2107,-0.4238,-0.5497,0.2137,0.1748,-89.1,3.45,-24.0,-4.66,-2.59,-8.63,-0.0851,-0.1484,0.0415,22.0625,-6.6875,47.6875,297.0,-26.1875,163.5,0
1776973036.489,9.5122,0.5746,0.2418,-0.234,0.2731,0.0456,-130.2,9.45,34.95,9.8641,0.9242,-0.8452,-0.5902,0.2182,0.178,-89.1,3.45,-24.0,-4.51,-2.27,-8.57,-0.084,-0.1167,0.0382,22.0625,-6.6875,47.6875,297.0,-26.1875,163.5,0
1776973036.494,9.5122,0.5746,0.2418,-0.234,0.2731,0.0456,-130.2,9.45,34.95,9.8641,0.9242,-0.8452,-0.5902,0.2182,0.178,-88.8,1.95,-23.25,-4.51,-2.27,-8.57,-0.084,-0.1167,0.0382,22.0625,-6.6875,47.6875,297.0,-26.25,163.5,0
1776973036.499,9.6343,1.1564,0.158,-0.2233,0.2731,0.1108,-130.2,9.45,34.95,9.7348,1.4413,-0.9816,-0.4996,0.2353,0.1729,-88.8,1.95,-23.25,-4.3,-2.33,-8.63,-0.0633,-0.0971,0.0273,22.0625,-6.6875,47.6875,297.0,-26.25,163.5,0
1776973036.507,9.6343,1.1564,0.158,-0.1905,0.2537,0.1482,-126.75,9.75,30.9,9.6965,1.8818,-0.9361,-0.4996,0.2353,0.1729,-88.95,2.4,-23.85,-4.39,-2.24,-8.66,-0.0327,-0.1047,0.0185,22.0625,-6.6875,47.6875,297.0,-26.3125,163.5,0
1776973036.514,9.7205,1.6041,0.1317,-0.1905,0.2537,0.1482,-126.75,9.75,30.9,9.6965,1.8818,-0.9361,-0.323,0.2494,0.1833,-89.4,2.4,-23.85,-4.39,-2.24,-8.66,-0.0033,-0.0927,0.0065,22.0625,-6.6875,47.6875,297.0,-26.375,163.5,0
1776973036.519,9.8114,1.9537,0.2011,-0.1522,0.2049,0.137,-125.4,8.7,30.45,9.6845,1.9968,-0.6536,-0.1559,0.2662,0.1759,-89.4,2.4,-23.85,-4.32,-2.31,-8.5,-0.0033,-0.0927,0.0065,22.0625,-6.6875,47.6875,297.0,-26.375,163.5,0
1776973036.528,9.7971,2.2434,0.6776,-0.0525,0.199,0.0773,-126.15,9.15,31.5,9.5098,1.9489,-0.2131,0.0093,0.247,0.1751,-88.35,3.45,-22.2,-4.16,-2.46,-8.42,0.0153,-0.0807,0.0033,22.0625,-6.6875,47.6875,297.0,-26.375,163.5,0
1776973036.533,9.7971,2.2434,0.6776,-0.0525,0.199,0.0773,-126.15,9.15,31.5,9.5098,1.9489,-0.2131,0.0093,0.247,0.1751,-88.35,3.45,-22.2,-4.16,-2.46,-8.42,0.0153,-0.0807,0.0033,22.0625,-6.6875,47.6875,297.0,-26.375,163.5,0
1776973036.539,10.0844,2.5594,1.0319,-0.0029,0.1753,-0.0029,-128.1,9.0,31.65,9.6295,1.3934,0.067,0.0911,0.2443,0.1801,-88.35,3.45,-22.2,-4.25,-2.5,-8.4,0.0207,-0.0927,0.0098,22.0625,-7.375,46.875,297.0,-26.4375,163.5,0
1776973036.543,10.0844,2.5594,1.0319,-0.0029,0.1753,-0.0029,-128.1,9.0,31.65,9.6295,1.3934,0.067,0.0911,0.2443,0.1801,-88.8,1.05,-22.2,-4.25,-2.5,-8.4,0.0207,-0.0927,0.0098,22.0625,-7.375,46.875,297.0,-26.4375,163.5,0
1776973036.548,9.6438,2.2793,1.0654,-0.1391,0.1436,-0.0703,-127.65,7.95,30.45,9.8234,0.8571,0.4142,0.1287,0.1958,0.174,-88.8,1.05,-22.2,-4.32,-2.65,-8.35,0.0142,-0.0884,0.0164,22.0625,-7.375,46.875,297.0,-26.5,163.5,0
1776973036.553,9.6438,2.2793,1.0654,-0.1391,0.1436,-0.0703,-127.65,7.95,30.45,9.8234,0.8571,0.4142,0.1287,0.1958,0.174,-88.8,1.05,-22.2,-4.32,-2.65,-8.35,0.0076,-0.0698,0.0229,22.0625,-7.375,46.875,297.0,-26.5,163.5,0
1776973036.559,9.4355,1.7933,1.0127,-0.1708,0.1484,-0.0616,-127.65,7.95,30.45,9.663,0.3352,0.3352,0.0957,0.174,0.1831,-88.8,1.05,-22.2,-4.27,-2.61,-8.33,0.0076,-0.0698,0.0229,22.0625,-7.375,46.875,297.0,-26.5625,163.5,0
1776973036.569,9.1626,1.5395,0.8667,-0.0885,0.1692,-0.0232,-128.1,10.05,31.35,9.7061,0.146,0.1053,-0.0032,0.1697,0.2033,-89.7,2.4,-25.35,-4.33,-2.53,-8.33,-0.0087,-0.072,0.0316,22.0625,-7.375,46.875,297.0,-26.5625,163.5,0
1776973036.579,9.2296,1.4772,0.8021,0.0045,0.2174,0.025,-127.8,10.05,31.35,9.6822,0.4022,-0.1101,-0.1186,0.1673,0.2124,-87.75,1.35,-23.85,-4.42,-2.45,-8.39,-0.0229,-0.0764,0.0382,22.0625,-7.375,46.875,297.0625,-26.625,163.5,0
1776973036.583,9.2296,1.4772,0.8021,0.0045,0.2174,0.025,-127.8,10.05,31.35,9.6822,0.4022,-0.1101,-0.1186,0.1673,0.2124,-87.45,1.35,-23.85,-4.42,-2.45,-8.39,-0.0229,-0.0764,0.0382,22.0625,-7.375,46.875,297.0625,-26.625,163.5,0
1776973036.588,9.5098,1.6448,0.5339,-0.0131,0.214,0.0645,-126.9,9.15,30.45,9.6486,0.9625,-0.0958,-0.1879,0.1591,0.2204,-87.45,1.35,-23.85,-4.45,-2.41,-8.42,-0.0382,-0.0753,0.0415,22.375,-6.6875,47.25,297.0625,-26.6875,163.5,0
1776973036.593,9.5098,1.6448,0.5339,-0.0131,0.214,0.0645,-126.9,9.15,30.45,9.6486,0.9625,-0.0958,-0.1879,0.1591,0.2204,-88.2,1.35,-22.65,-4.45,-2.41,-8.42,-0.0382,-0.0753,0.0415,22.375,-6.6875,47.25,297.0625,-26.6875,163.5,0
1776973036.598,9.5313,1.8004,0.5076,0.0163,0.1583,0.0589,-126.15,9.45,30.45,9.5217,1.2641,-0.2227,-0.1911,0.17,0.2153,-88.2,1.35,-22.65,-4.29,-2.5,-8.36,-0.0447,-0.0665,0.0447,22.375,-6.6875,47.25,297.0625,-26.6875,163.5625,0
1776973036.603,9.5313,1.8004,0.5076,0.0163,0.1583,0.0589,-126.15,9.45,30.45,9.5217,1.2641,-0.2227,-0.1911,0.17,0.2153,-88.2,2.85,-21.9,-4.29,-2.5,-8.36,-0.0622,-0.0764,0.0545,22.375,-6.6875,47.25,297.0625,-26.75,163.625,0
1776973036.61,9.3374,1.6951,0.237,0.0301,0.1873,0.0501,-126.15,9.45,30.45,9.6702,1.4174,-0.3232,-0.0855,0.1732,0.2134,-88.2,2.85,-21.9,-4.28,-2.55,-8.35,-0.0622,-0.0764,0.0545,22.375,-6.6875,47.25,297.0625,-26.75,163.625,0
1776973036.618,9.505,1.6735,0.2873,0.1287,0.2113,0.0645,-124.95,8.25,28.8,9.6917,1.992,-0.4932,0.0112,0.1724,0.1876,-88.65,2.1,-22.35,-4.17,-2.51,-8.18,-0.0807,-0.0829,0.0654,22.375,-6.6875,47.25,297.125,-26.8125,163.6875,0
1776973036.626,9.6917,1.5778,0.2634,0.1903,0.2126,0.0818,-125.25,8.25,29.55,9.809,2.0997,-0.5315,0.1522,0.2177,0.1873,-88.65,2.1,-22.35,-3.79,-2.84,-8.18,-0.1047,-0.0993,0.084,22.375,-6.6875,47.25,297.125,-26.875,163.75,0
1776973036.63,9.6917,1.5778,0.2634,0.1903,0.2126,0.0818,-125.25,8.25,29.55,9.809,2.0997,-0.5315,0.1522,0.2177,0.1873,-88.65,2.1,-22.35,-3.79,-2.84,-8.18,-0.1047,-0.0993,0.084,22.375,-6.6875,47.25,297.125,-26.875,163.75,0
1776973036.635,9.6438,1.3743,0.1101,0.2435,0.2081,0.0858,-124.5,6.3,28.8,9.6391,1.8531,-0.2993,0.3459,0.1953,0.1884,-88.2,2.1,-22.35,-4.2,-2.61,-8.32,-0.1287,-0.1418,0.1254,22.75,-7.6875,47.6875,297.1875,-26.9375,163.8125,0
1776973036.64,9.6438,1.3743,0.1101,0.2435,0.2081,0.0858,-124.5,6.3,28.8,9.6391,1.8531,-0.2993,0.3459,0.1953,0.1884,-88.2,2.1,-22.35,-4.2,-2.61,-8.32,-0.1287,-0.1418,0.1254,22.75,-7.6875,47.6875,297.1875,-26.9375,163.8125,0
1776973036.645,9.7468,1.3551,0.2969,0.2643,0.2172,0.0861,-124.65,5.4,29.25,9.5816,0.929,-0.1317,0.5017,0.2233,0.1921,-88.05,0.75,-23.25,-4.4,-2.43,-8.37,-0.1451,-0.1549,0.1374,22.75,-7.6875,47.6875,297.1875,-27.0625,163.9375,0
1776973036.65,9.7468,1.3551,0.2969,0.2643,0.2172,0.0861,-124.65,5.4,29.25,9.5816,0.929,-0.1317,0.5017,0.2233,0.1921,-88.05,0.75,-23.25,-4.4,-2.43,-8.37,-0.1451,-0.1549,0.1374,22.75,-7.6875,47.6875,297.1875,-27.0625,163.9375,0
1776973036.658,9.8545,1.2785,0.4549,0.2867,0.2329,0.0584,-124.95,4.5,30.6,9.572,-0.0575,0.0886,0.5108,0.227,0.2041,-87.3,1.05,-22.2,-4.51,-2.31,-8.43,-0.1538,-0.144,0.144,22.75,-7.6875,47.6875,297.25,-27.1875,164.0625,0
1776973036.663,9.9766,1.2402,0.5291,0.3461,0.2422,0.0003,-124.95,4.5,30.6,9.6606,-0.6536,0.1221,0.4159,0.2268,0.2214,-87.3,1.05,-22.2,-4.51,-2.31,-8.43,-0.1538,-0.144,0.144,22.75,-7.6875,47.6875,297.3125,-27.25,164.1875,0
1776973036.67,9.9766,1.2402,0.5291,0.3461,0.2422,0.0003,-124.95,4.5,30.6,9.6606,-0.6536,0.1221,0.4159,0.2268,0.2214,-89.7,0.45,-22.35,-4.66,-2.14,-8.48,-0.1625,-0.1396,0.1462,22.75,-7.6875,47.6875,297.375,-27.375,164.3125,0
1776973036.679,10.2232,1.1444,0.7614,0.1945,0.1508,-0.025,-129.45,4.95,31.5,9.9599,-0.7829,-0.0622,0.2947,0.2172,0.222,-88.95,1.35,-21.9,-4.51,-2.24,-8.47,-0.1702,-0.1145,0.1342,22.75,-7.6875,47.6875,297.375,-27.375,164.3125,0
1776973036.684,9.809,0.51,0.9529,-0.0061,0.0943,-0.0671,-127.5,5.25,31.35,10.0389,-0.6536,0.079,0.1647,0.1895,0.206,-88.95,0.45,-21.9,-4.51,-2.24,-8.47,-0.1702,-0.1145,0.1342,22.75,-7.6875,47.6875,297.375,-27.4375,164.375,0
1776973036.689,9.809,0.51,0.9529,-0.0061,0.0943,-0.0671,-127.5,5.25,31.35,10.0389,-0.6536,0.079,0.1647,0.1895,0.206,-88.95,0.45,-21.9,-4.63,-2.18,-8.49,-0.1582,-0.108,0.1244,23.875,-7.6875,48.0625,297.375,-27.4375,164.375,0
1776973036.694,9.6271,0.0072,0.7446,-0.0165,0.1196,-0.0504,-127.05,5.25,30.15,9.9144,-0.3855,0.1796,0.0919,0.206,0.1982,-88.95,0.45,-21.9,-4.63,-2.18,-8.49,-0.1582,-0.108,0.1244,23.875,-7.6875,48.0625,297.4375,-27.5,164.5,0
1776973036.699,9.6271,0.0072,0.7446,-0.0165,0.1196,-0.0504,-127.05,5.25,30.15,9.9144,-0.3855,0.1796,0.0919,0.206,0.1982,-88.95,0.45,-21.9,-4.57,-2.18,-8.5,-0.1451,-0.1058,0.12,23.875,-7.6875,48.0625,297.4375,-27.5,164.5,0
1776973036.704,9.6462,0.1101,0.407,0.0453,0.1529,-0.0123,-127.5,6.0,30.6,9.7995,-0.0168,0.3687,0.113,0.1833,0.1823,-88.95,-0.15,-20.85,-4.57,-2.18,-8.5,-0.1364,-0.1036,0.12,23.875,-7.6875,48.0625,297.5,-27.5625,164.625,0
1776973036.71,9.6462,0.1101,0.407,0.0453,0.1529,-0.0123,-127.5,6.0,30.6,9.6103,0.0168,0.4022,0.113,0.1833,0.1823,-88.95,-0.15,-20.85,-4.53,-2.25,-8.55,-0.1364,-0.1036,0.12,23.875,-7.6875,48.0625,297.5,-27.5625,164.625,0
1776973036.718,9.5146,0.3639,0.2705,0.0679,0.1548,0.0293,-127.5,6.0,30.6,9.6103,0.0168,0.4022,0.1607,0.1847,0.1596,-88.95,-0.15,-20.85,-4.66,-2.11,-8.43,-0.1473,-0.1069,0.1124,23.875,-7.6875,48.0625,297.5,-27.625,164.6875,0
1776973036.723,9.596,0.5483,0.3424,-0.0051,0.1412,0.0642,-126.9,6.0,30.6,9.7947,0.1006,0.237,0.2134,0.1833,0.1532,-89.55,0.0,-22.2,-4.66,-2.11,-8.43,-0.1516,-0.1004,0.0971,23.875,-7.6875,48.0625,297.5625,-27.6875,164.8125,0
1776973036.73,9.596,0.5483,0.3424,-0.105,0.1085,0.1023,-126.9,5.4,29.7,9.8952,-0.2418,0.1652,0.2206,0.1692,0.133,-89.55,0.0,-22.2,-4.66,-2.2,-8.47,-0.1516,-0.1004,0.0971,23.875,-7.6875,48.0625,297.5625,-27.6875,164.8125,0
1776973036.735,9.6702,0.5842,0.5531,-0.105,0.1085,0.1023,-126.0,4.05,31.35,9.8952,-0.2418,0.1652,0.2206,0.1692,0.133,-88.2,-0.15,-20.55,-4.66,-2.2,-8.47,-0.12,-0.096,0.0873,23.0625,-8.0625,48.5,297.5625,-27.75,164.9375,0
1776973036.74,9.8976,0.5914,0.7709,-0.141,0.1282,0.1391,-126.0,4.05,31.35,9.979,-0.3448,-0.1413,0.2497,0.1575,0.1212,-88.2,-0.15,-20.55,-4.61,-2.16,-8.47,-0.12,-0.096,0.0873,23.0625,-8.0625,48.5,297.5625,-27.75,164.9375,0
1776973036.745,9.8976,0.5914,0.7709,-0.141,0.1282,0.1391,-126.3,5.55,29.85,9.979,-0.3448,-0.1413,0.2497,0.1575,0.1212,-90.15,-0.15,-22.35,-4.61,-2.16,-8.47,-0.108,-0.0949,0.0851,23.0625,-8.0625,48.5,297.5625,-27.8125,165.0,0
1776973036.75,9.9072,0.6536,0.7661,-0.0887,0.1164,0.1601,-126.3,5.55,29.85,9.9838,-0.4453,-0.0934,0.1865,0.1324,0.1116,-90.15,-0.15,-22.35,-4.59,-2.09,-8.48,-0.108,-0.0949,0.0851,23.0625,-8.0625,48.5,297.5625,-27.8125,165.0,0
1776973036.755,9.9072,0.6536,0.7661,-0.0887,0.1164,0.1601,-125.55,6.3,30.15,9.9838,-0.4453,-0.0934,0.1865,0.1324,0.1116,-89.4,1.35,-21.6,-4.59,-2.09,-8.48,-0.0927,-0.0916,0.084,23.0625,-8.0625,48.5,297.625,-27.875,165.0625,0
1776973036.76,9.7636,0.8667,0.9697,-0.0477,0.0778,0.1532,-125.55,6.3,30.15,9.6965,-0.5435,0.2322,0.1966,0.1399,0.1005,-89.4,1.35,-21.6,-4.57,-2.02,-8.53,-0.0927,-0.0916,0.084,23.0625,-8.0625,48.5,297.625,-27.875,165.0625,0
1776973036.769,9.8402,0.8188,1.0678,-0.0501,0.1071,0.1615,-126.75,4.8,31.35,9.675,-0.7326,0.3424,0.1319,0.1218,0.0941,-89.4,1.35,-21.6,-4.65,-1.99,-8.52,-0.0862,-0.0862,0.0774,23.0625,-8.0625,48.5,297.625,-27.9375,165.125,0
1776973036.774,9.8402,0.8188,1.0678,-0.0501,0.1071,0.1615,-126.75,4.8,31.35,9.675,-0.7326,0.3424,0.1319,0.1218,0.0941,-89.7,-0.15,-21.6,-4.65,-1.99,-8.52,-0.0731,-0.0829,0.0676,23.0625,-8.0625,48.5,297.6875,-28.0,165.1875,0
1776973036.78,9.7109,0.8236,1.2019,-0.0703,0.0887,0.1652,-126.75,4.8,31.35,9.7013,-0.9098,0.6225,0.0802,0.1098,0.0757,-89.7,-0.15,-21.6,-4.68,-1.98,-8.44,-0.0731,-0.0829,0.0676,23.0625,-8.0625,48.5,297.6875,-28.0,165.1875,0
1776973036.785,9.7109,0.8236,1.2019,-0.0703,0.0887,0.1652,-126.0,4.8,30.15,9.7013,-0.9098,0.6225,0.0802,0.1098,0.0757,-89.7,-0.15,-21.6,-4.68,-1.98,-8.44,-0.0731,-0.0829,0.0676,23.0625,-8.875,46.5,297.6875,-28.0625,165.25,0
1776973036.79,9.505,0.7111,1.2234,-0.0986,0.0554,0.149,-126.0,4.8,30.15,9.7252,-0.6369,0.5555,0.036,0.0975,0.0759,-89.7,-0.15,-21.6,-4.71,-2.03,-8.41,-0.0644,-0.0676,0.0545,23.0625,-8.875,46.5,297.6875,-28.0625,165.25,0
1776973036.795,9.505,0.7111,1.2234,-0.0986,0.0554,0.149,-124.65,4.65,29.7,9.7252,-0.6369,0.5555,0.036,0.0975,0.0759,-89.7,-1.35,-20.55,-4.71,-2.03,-8.41,-0.0644,-0.0676,0.0545,23.0625,-8.875,46.5,297.6875,-28.125,165.3125,0
1776973036.8,9.2536,0.5986,1.3408,-0.1276,0.0791,0.1474,-124.65,4.65,29.7,9.7444,-0.1317,0.2203,-0.0091,0.0778,0.0645,-89.7,-1.35,-20.55,-4.74,-2.02,-8.45,-0.0567,-0.0622,0.0415,23.0625,-8.875,46.5,297.6875,-28.125,165.3125,0
1776973036.805,9.2536,0.5986,1.3408,-0.1276,0.0791,0.1474,-124.05,2.4,29.25,9.7444,-0.1317,0.2203,-0.0091,0.0778,0.0645,-89.7,0.45,-20.1,-4.74,-2.02,-8.45,-0.0458,-0.048,0.0273,23.0625,-8.875,46.5,297.6875,-28.125,165.3125,0
1776973036.81,9.402,0.6345,1.0702,-0.1207,0.1295,0.1924,-124.05,2.4,29.25,9.6295,0.3926,-0.0096,0.0125,0.0757,0.0474,-89.7,0.45,-20.1,-4.73,-2.07,-8.4,-0.0458,-0.048,0.0273,23.0625,-8.875,46.5,297.6875,-28.125,165.3125,0
1776973036.819,9.3374,0.723,0.8523,-0.0925,0.1628,0.2326,-122.7,1.8,29.1,9.5433,0.4549,0.1149,0.0605,0.0877,0.048,-90.3,-0.3,-21.0,-4.68,-2.06,-8.39,-0.0404,-0.0338,0.0175,23.0625,-8.875,46.5,297.6875,-28.1875,165.375,0
1776973036.826,9.3374,0.723,0.8523,-0.0925,0.1628,0.2326,-122.7,1.8,29.1,9.6606,0.4788,0.012,0.0512,0.0983,0.0442,-89.7,-0.45,-20.55,-4.66,-2.05,-8.43,-0.0371,-0.0196,0.0098,23.0625,-8.875,46.5,297.6875,-28.1875,165.375,0
1776973036.831,9.426,0.9361,0.6105,-0.0605,0.1623,0.2763,-122.7,1.8,29.1,9.6606,0.4788,0.012,0.0512,0.0983,0.0442,-89.7,-0.45,-20.55,-4.66,-2.05,-8.43,-0.0371,-0.0196,0.0098,23.0625,-8.875,46.5,297.6875,-28.1875,165.375,0
1776973036.836,9.426,0.9361,0.6105,-0.0245,0.1284,0.3062,-122.7,1.8,29.1,9.9814,0.6871,0.249,-0.0232,0.093,0.0437,-88.8,-0.3,-20.25,-4.64,-2.04,-8.37,-0.0316,-0.0153,0.0087,24.25,-9.1875,46.5,297.6875,-28.1875,165.4375,0
1776973036.841,9.6582,1.233,0.5219,-0.0245,0.1284,0.3062,-123.3,0.15,28.95,9.9814,0.6871,0.249,-0.0232,0.093,0.0437,-88.8,-0.3,-20.25,-4.64,-2.04,-8.37,-0.0316,-0.0153,0.0087,24.25,-9.1875,46.5,297.6875,-28.1875,165.4375,0
1776973036.846,9.6582,1.233,0.5219,0.037,0.0765,0.3243,-123.3,0.15,28.95,9.9072,0.5626,0.2705,0.0293,0.0794,0.0365,-88.35,-0.3,-19.95,-4.49,-2.25,-8.39,-0.0295,-0.0153,0.0098,24.25,-9.1875,46.5,297.6875,-28.1875,165.4375,0
1776973036.851,9.6965,1.3479,0.4932,0.037,0.0765,0.3243,-121.05,-0.15,27.15,9.9072,0.5626,0.2705,0.0293,0.0794,0.0365,-88.35,-0.3,-19.95,-4.49,-2.25,-8.39,-0.0295,-0.0153,0.0098,24.25,-9.1875,46.5,297.6875,-28.1875,165.4375,0
1776973036.856,9.6965,1.3479,0.4932,0.0362,0.0714,0.3293,-121.05,-0.15,27.15,9.9742,0.4166,0.6201,0.0125,0.0581,0.0333,-88.35,-0.3,-19.95,-4.52,-2.2,-8.38,-0.0305,-0.0305,0.0218,24.25,-9.1875,46.5,297.6875,-28.1875,165.4375,0
1776973036.86,9.7013,1.3455,0.668,0.0362,0.0714,0.3293,-120.15,0.0,28.8,9.9742,0.4166,0.6201,0.0125,0.0581,0.0333,-88.35,-0.3,-19.95,-4.52,-2.2,-8.38,-0.0305,-0.0305,0.0218,24.25,-9.1875,46.5,297.6875,-28.25,165.5,0
1776973036.869,9.6031,1.0463,0.7494,-0.0008,0.0815,0.324,-120.15,0.0,28.8,9.9455,0.1006,0.3759,0.029,0.0554,0.0344,-88.35,0.0,-22.5,-4.52,-2.27,-8.39,-0.0338,-0.0284,0.0327,24.25,-9.1875,46.5,297.6875,-28.25,165.5,0
1776973036.876,9.6582,0.8643,1.0918,-0.0661,0.0938,0.292,-122.4,-1.05,27.75,9.8162,0.0096,0.4741,0.0341,0.044,0.036,-87.75,-0.15,-21.6,-4.58,-2.19,-8.35,-0.0338,-0.0338,0.0447,24.25,-9.1875,46.5,297.75,-28.25,165.5,0
1776973036.881,9.6582,0.8643,1.0918,-0.0661,0.0938,0.292,-122.4,-1.05,27.75,9.8162,0.0096,0.4741,0.0341,0.044,0.036,-87.75,-0.15,-21.6,-4.58,-2.19,-8.35,-0.0338,-0.0338,0.0447,24.25,-9.1875,46.5,297.75,-28.25,165.5,0
1776973036.886,9.7252,0.8116,1.2258,-0.1516,0.1061,0.2566,-122.4,-1.05,27.75,9.6798,0.2801,-0.0024,0.1015,0.0477,0.0322,-89.4,1.35,-20.1,-4.66,-2.07,-8.32,-0.0371,-0.0262,0.0425,23.875,-9.1875,47.375,297.75,-28.25,165.5625,0
1776973036.891,9.7252,0.8116,1.2258,-0.1516,0.1061,0.2566,-121.2,-1.5,28.5,9.6798,0.2801,-0.0024,0.1015,0.0477,0.0322,-89.4,1.35,-20.1,-4.66,-2.07,-8.32,-0.0371,-0.0262,0.0425,23.875,-9.1875,47.375,297.75,-28.25,165.5625,0
1776973036.896,9.7875,0.6297,1.0989,-0.1887,0.1063,0.2198,-121.2,-1.5,28.5,9.7803,0.8475,-0.4262,0.1436,0.0442,0.0213,-88.65,-0.9,-21.15,-4.57,-2.11,-8.32,-0.0404,-0.024,0.0404,23.875,-9.1875,47.375,297.75,-28.3125,165.5625,0
1776973036.901,9.7875,0.6297,1.0989,-0.1887,0.1063,0.2198,-121.65,-3.3,28.05,9.7803,0.8475,-0.4262,0.1436,0.0442,0.0213,-88.65,-0.9,-21.15,-4.57,-2.11,-8.32,-0.0404,-0.024,0.0404,23.875,-9.1875,47.375,297.75,-28.3125,165.5625,0
1776973036.905,9.8474,0.7661,0.9649,-0.1575,0.0949,0.203,-121.65,-3.3,28.05,9.7157,1.2378,-0.1437,0.2334,0.0344,0.0107,-91.05,-1.05,-21.0,-4.54,-2.2,-8.42,-0.048,-0.0229,0.048,23.875,-9.1875,47.375,297.75,-28.3125,165.625,0
1776973036.91,9.8474,0.7661,0.9649,-0.1575,0.0949,0.203,-121.5,-3.9,27.6,9.7157,1.2378,-0.1437,0.2334,0.0344,0.0107,-91.05,-1.05,-21.0,-4.54,-2.2,-8.42,-0.048,-0.0229,0.048,23.875,-9.1875,47.375,297.8125,-28.3125,165.625,0
1776973036.919,10.0772,0.8499,1.1013,-0.0965,0.0754,0.1769,-122.1,-4.2,27.6,9.6391,1.1325,0.0335,0.2912,0.0344,0.0112,-90.3,-1.5,-20.25,-4.6,-2.17,-8.35,-0.0425,-0.0295,0.0567,23.875,-9.1875,47.375,297.8125,-28.3125,165.625,0
1776973036.924,10.5393,1.1732,1.2881,0.0152,0.0554,0.1242,-122.1,-4.2,27.6,9.651,0.3472,-0.0239,0.2888,0.0429,0.0258,-90.3,-1.5,-20.25,-4.6,-2.17,-8.35,-0.0436,-0.0316,0.0589,23.875,-9.1875,47.375,297.8125,-28.375,165.6875,0
