timestamp,thigh_acc_x,thigh_acc_y,thigh_acc_z,thigh_gyro_x,thigh_gyro_y,thigh_gyro_z,thigh_mag_x,thigh_mag_y,thigh_mag_z,shank_acc_x,shank_acc_y,shank_acc_z,shank_gyro_x,shank_gyro_y,shank_gyro_z,shank_mag_x,shank_mag_y,shank_mag_z,foot_acc_x,foot_acc_y,foot_acc_z,foot_gyro_x,foot_gyro_y,foot_gyro_z,foot_mag_x,foot_mag_y,foot_mag_z,foot_euler_x,foot_euler_y,foot_euler_z,perturbation_event
1776974153.835,7.6638,2.6504,-1.3144,-1.6577,-0.2297,0.1892,-86.7,31.05,27.0,9.5146,-0.577,2.9377,-0.2569,-2.4379,-2.869,-66.9,16.2,25.65,-14.39,-6.3,-9.83,0.9632,3.3521,-1.8762,39.875,37.25,31.75,37.125,-24.4375,154.9375,0
1776974153.84,7.6303,3.6847,-1.2594,-1.8008,-0.049,0.1737,-86.7,31.05,27.0,9.5146,-0.577,2.9377,-0.2569,-2.4379,-2.869,-66.9,16.2,25.65,-14.39,-6.3,-9.83,0.9632,3.3521,-1.8762,39.875,37.25,31.75,36.5625,-22.1875,154.3125,0
1776974153.848,8.7197,4.9871,-1.8124,-1.7048,-0.5545,0.178,-87.45,31.5,26.25,10.343,-1.2019,3.1364,-0.4109,-2.355,-2.7219,-66.15,20.85,23.1,-12.67,-5.25,-9.22,1.0057,3.5125,-1.946,39.875,37.25,31.75,36.0,-20.0625,153.6875,0
1776974153.857,8.4396,5.9616,-2.5259,-1.8636,-0.2302,0.1996,-84.75,33.15,27.6,10.3022,-1.6352,2.7749,-0.5305,-2.2545,-2.5937,-65.25,21.0,22.2,-12.6,-4.45,-9.17,1.0036,3.3783,-1.9264,39.875,37.25,31.75,36.0,-20.0625,153.6875,0
1776974153.862,8.4396,5.9616,-2.5259,-1.8636,-0.2302,0.1996,-84.75,33.15,27.6,10.2496,-1.7621,2.49,-0.7834,-2.2846,-2.5221,-65.25,21.0,22.2,-12.6,-4.45,-9.17,1.0036,3.3783,-1.9264,39.875,37.25,31.75,35.5,-17.9375,153.125,0
1776974153.867,8.6646,7.1754,-2.8994,-1.6342,-0.0637,0.1911,-84.0,31.95,28.2,10.2496,-1.7621,2.49,-0.7834,-2.2846,-2.5221,-67.35,22.5,21.15,-12.33,-3.96,-9.0,1.0276,3.2921,-1.874,22.5,43.375,27.75,35.5,-17.9375,153.125,0
1776974153.872,8.6646,7.1754,-2.8994,-1.6342,-0.0637,0.1911,-84.0,31.95,28.2,9.4643,-1.98,2.2817,-0.9425,-2.1994,-2.5002,-67.35,22.5,21.15,-12.33,-3.96,-9.0,1.0276,3.2921,-1.874,22.5,43.375,27.75,35.0,-15.9375,152.5,0
1776974153.877,8.9352,8.102,-3.2729,-1.3707,-0.2102,0.218,-84.0,31.95,28.2,9.4643,-1.98,2.2817,-0.9425,-2.1994,-2.5002,-66.0,23.4,19.95,-11.98,-3.2,-8.31,1.057,3.194,-1.7704,22.5,43.375,27.75,35.0,-15.9375,152.5,0
1776974153.884,8.9352,8.102,-3.2729,-1.3707,-0.2102,0.218,-84.45,30.15,28.95,8.7245,-1.7933,1.5514,-1.1572,-1.9617,-2.4642,-66.0,23.4,19.95,-11.55,-2.67,-7.63,1.0417,3.158,-1.585,22.5,43.375,27.75,34.625,-13.9375,151.9375,0
1776974153.889,8.8466,8.7795,-3.2609,-1.0853,-0.1516,0.2694,-84.45,30.15,28.95,8.7245,-1.7933,1.5514,-1.1572,-1.9617,-2.4642,-66.0,23.4,19.95,-11.55,-2.67,-7.63,1.0417,3.158,-1.585,22.5,43.375,27.75,34.4375,-12.125,151.375,0
1776974153.897,8.7676,8.9232,-2.7557,-0.6486,0.0983,0.2758,-85.05,30.9,28.2,8.5425,-1.1492,1.2522,-1.3169,-1.7363,-2.3982,-65.1,25.2,18.6,-11.7,-2.21,-7.32,1.0734,3.123,-1.2948,22.5,43.375,27.75,34.375,-10.375,150.8125,0
1776974153.907,8.3749,8.5665,-2.1332,-0.3469,0.3269,0.308,-84.45,30.9,27.15,8.497,-0.6656,0.9553,-1.441,-1.485,-2.3046,-65.1,25.2,18.6,-11.94,-1.56,-7.03,1.1301,3.0336,-0.9403,22.5,43.375,27.75,34.375,-10.375,150.8125,0
1776974153.912,8.3749,8.5665,-2.1332,-0.3469,0.3269,0.308,-84.45,30.9,27.15,8.6598,-0.0575,1.0391,-1.4424,-1.2638,-2.1583,-65.1,25.2,18.6,-11.94,-1.56,-7.03,1.1301,3.0336,-0.9403,22.5,43.375,27.75,34.375,-10.375,150.8125,0
1776974153.917,8.272,7.9679,-1.4676,0.0285,0.5071,0.3048,-84.45,29.4,29.25,8.6598,-0.0575,1.0391,-1.4424,-1.2638,-2.1583,-64.5,26.1,18.45,-11.82,-0.87,-6.56,1.3079,2.9692,-0.6141,13.375,45.0,20.5625,34.5625,-8.75,150.1875,0
1776974153.922,8.272,7.9679,-1.4676,0.0285,0.5071,0.3048,-84.45,29.4,29.25,8.6622,0.1676,0.7949,-1.4346,-1.036,-1.9633,-64.5,26.1,18.45,-11.82,-0.87,-6.56,1.3079,2.9692,-0.6141,13.375,45.0,20.5625,34.5625,-8.75,150.1875,0
1776974153.927,8.2744,7.173,-0.9313,0.4085,0.5737,0.2928,-84.45,29.4,29.25,8.6191,0.3376,0.6297,-1.4346,-1.036,-1.9633,-63.3,25.8,17.7,-11.69,-1.05,-6.2,1.5032,2.8798,-0.3872,13.375,45.0,20.5625,34.8125,-7.25,149.4375,0
1776974153.936,8.3653,6.845,-0.838,0.7325,0.4964,0.279,-83.25,30.45,28.2,8.6191,0.3376,0.6297,-1.4429,-0.805,-1.7459,-64.05,26.1,17.4,-11.47,-1.13,-5.81,1.5904,2.7314,-0.228,13.375,45.0,20.5625,35.1875,-5.9375,148.625,0
1776974153.941,8.3653,6.845,-0.838,0.7325,0.4964,0.279,-83.25,30.45,28.2,8.5521,0.9194,0.3065,-1.4109,-0.6446,-1.5015,-64.05,26.1,17.4,-11.47,-1.13,-5.81,1.5904,2.7314,-0.228,13.375,45.0,20.5625,35.5625,-4.6875,147.8125,0
1776974153.948,8.43,6.7684,-1.1325,0.9987,0.4482,0.3118,-85.8,31.65,29.25,8.2863,1.4006,-0.1915,-1.3342,-0.5039,-1.2526,-63.9,27.9,18.3,-11.04,-0.67,-4.65,1.5784,2.5427,-0.1374,13.375,45.0,20.5625,35.875,-3.5625,147.0625,0
1776974153.958,8.4252,6.6343,-1.561,1.1359,0.4293,0.3914,-84.45,31.2,28.2,7.9368,1.8435,-0.1197,-1.085,-0.3472,-0.9777,-63.75,28.5,17.4,-11.01,-0.53,-4.05,1.4693,2.3224,-0.0916,13.375,45.0,20.5625,35.875,-3.5625,147.0625,0
1776974153.962,8.4252,6.6343,-1.561,1.1359,0.4293,0.3914,-84.6,31.5,28.5,7.9368,1.8435,-0.1197,-1.085,-0.3472,-0.9777,-63.75,28.5,17.4,-11.01,-0.53,-4.05,1.4693,2.3224,-0.0916,10.25,42.5,16.5625,36.1875,-2.625,146.375,0
1776974153.967,8.4108,6.4596,-1.8603,1.1551,0.4151,0.4525,-84.6,31.5,28.5,7.7883,2.4134,-0.3304,-0.7703,-0.1418,-0.6875,-62.7,28.35,17.55,-11.02,-0.34,-3.77,1.3057,1.9733,-0.0764,10.25,42.5,16.5625,36.1875,-2.625,146.375,0
1776974153.972,8.4108,6.4596,-1.8603,1.1551,0.4151,0.4525,-84.6,30.75,29.55,7.7883,2.4134,-0.3304,-0.7703,-0.1418,-0.6875,-62.7,28.35,17.55,-11.02,-0.34,-3.77,1.3057,1.9733,-0.0764,10.25,42.5,16.5625,36.4375,-1.8125,145.75,0
1776974153.977,8.2887,6.0932,-1.719,1.1477,0.4085,0.5089,-84.6,30.75,29.55,7.7237,2.6791,-0.3807,-0.4362,0.0027,-0.3925,-62.7,28.35,17.55,-10.97,-0.2,-3.29,1.1617,1.6821,-0.0949,10.25,42.5,16.5625,36.4375,-1.8125,145.75,0
1776974153.982,8.2887,6.0932,-1.719,1.1477,0.4085,0.5089,-84.6,30.75,29.55,7.7237,2.6791,-0.3807,-0.4362,0.0027,-0.3925,-62.7,28.35,17.55,-10.97,-0.2,-3.29,0.9316,1.3035,-0.1265,10.25,42.5,16.5625,36.625,-1.1875,145.25,0
1776974153.988,8.1882,5.5522,-1.3671,1.0485,0.4269,0.5404,-84.6,30.75,29.55,7.58,2.3942,-0.3807,-0.0829,0.1663,-0.0906,-64.05,27.3,17.7,-10.94,-0.16,-2.53,0.9316,1.3035,-0.1265,10.25,42.5,16.5625,36.6875,-0.75,144.875,0
1776974153.998,7.9152,4.8219,-1.1349,0.9702,0.4578,0.5793,-84.9,32.55,29.1,7.4795,2.0231,-0.0431,0.2795,0.3837,0.2017,-62.55,26.55,18.0,-10.98,-0.12,-2.21,0.649,0.8858,-0.1516,10.25,42.5,16.5625,36.6875,-0.5,144.6875,0
1776974154.008,7.9799,4.2545,-1.2905,0.9089,0.5319,0.6174,-84.75,30.9,28.65,7.4196,1.1061,0.668,0.6963,0.5995,0.482,-64.05,28.05,18.45,-11.11,-0.13,-2.13,0.3752,0.432,-0.1713,10.25,42.5,16.5625,36.6875,-0.5,144.6875,0
1776974154.013,8.023,3.8259,-1.6113,0.8751,0.6344,0.6267,-84.9,30.75,28.05,7.4196,1.1061,0.668,0.6963,0.5995,0.482,-64.05,28.05,18.45,-11.11,-0.13,-2.13,0.3752,0.432,-0.1713,10.25,42.5,16.5625,36.5625,-0.4375,144.625,0
1776974154.018,8.023,3.8259,-1.6113,0.8751,0.6344,0.6267,-84.9,30.75,28.05,7.5824,1.0606,2.0303,1.015,0.9009,0.6771,-63.9,28.65,19.35,-11.7,-0.42,-2.51,0.1069,-0.0142,-0.1789,12.5625,40.0625,13.375,36.5625,-0.4375,144.625,0
1776974154.022,8.8801,3.6512,-1.494,0.8727,0.8569,0.7032,-85.05,31.65,29.25,7.5824,1.0606,2.0303,1.015,0.9009,0.6771,-63.9,28.65,19.35,-11.7,-0.42,-2.51,0.1069,-0.0142,-0.1789,12.5625,40.0625,13.375,36.3125,-0.5,144.8125,0
1776974154.028,8.8801,3.6512,-1.494,0.8727,0.8569,0.7032,-85.05,31.65,29.25,9.2967,2.7246,1.8411,1.1711,1.2529,0.7994,-62.7,27.45,18.3,-4.02,-13.05,-7.02,-0.36,-0.4243,-0.3142,12.5625,40.0625,13.375,36.3125,-0.5,144.8125,0
1776974154.036,9.1746,3.1101,-1.2785,0.8748,0.9193,0.8335,-85.05,31.65,29.25,11.2264,3.9002,-1.585,0.7378,1.0253,0.708,-61.65,26.4,19.35,0.56,-1.27,-0.4,-2.462,-2.0344,-0.0676,12.5625,40.0625,13.375,35.9375,-1.4375,146.125,0
1776974154.04,9.1746,3.1101,-1.2785,0.7176,1.0134,0.9851,-85.05,31.65,29.25,11.2264,3.9002,-1.585,0.7378,1.0253,0.708,-61.65,26.4,19.35,0.56,-1.27,-0.4,-2.462,-2.0344,-0.0676,12.5625,40.0625,13.375,35.75,-2.875,147.9375,0
1776974154.048,10.0006,2.7605,-0.7422,0.7176,1.0134,0.9851,-84.75,29.4,27.6,12.0333,5.6982,-0.9002,0.6046,0.8705,0.3144,-61.65,26.4,19.35,-1.53,-8.69,-11.07,-3.2845,-2.6998,0.552,12.5625,40.0625,13.375,35.375,-4.0625,149.5,0
1776974154.058,10.5082,2.4445,-0.2969,0.3749,0.9046,1.0555,-84.9,31.5,27.75,13.8409,5.782,-6.0837,0.1396,0.3136,-0.0802,-62.7,25.2,21.6,3.36,-13.55,-8.14,-2.8209,-2.4991,0.1091,12.5625,40.0625,13.375,35.375,-4.0625,149.5,0
1776974154.063,10.2017,2.6719,-0.8332,0.0581,0.6531,0.991,-84.15,30.75,26.7,11.1282,3.055,-3.7924,1.1804,0.0421,-0.0925,-62.7,25.2,21.6,3.36,-13.55,-8.14,-2.8209,-2.4991,0.1091,12.5625,40.0625,13.375,35.375,-4.0625,149.5,0
1776974154.068,10.2017,2.6719,-0.8332,0.0581,0.6531,0.991,-84.15,30.75,26.7,11.1282,3.055,-3.7924,1.1804,0.0421,-0.0925,-62.7,25.2,21.6,-1.2,-4.59,-7.91,-2.4042,-2.3082,0.6469,14.0625,39.25,14.1875,35.3125,-5.375,150.75,0
1776974154.073,10.501,2.9904,-1.9968,0.0818,0.5923,0.9441,-83.7,29.4,27.15,9.256,-0.0168,-5.3558,1.8708,0.0381,0.2553,-62.7,25.2,21.6,-1.2,-4.59,-7.91,-2.4042,-2.3082,0.6469,14.0625,39.25,14.1875,35.3125,-5.375,150.75,0
1776974154.078,10.501,2.9904,-1.9968,0.0818,0.5923,0.9441,-83.7,29.4,27.15,9.256,-0.0168,-5.3558,1.8708,0.0381,0.2553,-62.25,26.1,21.75,-4.75,4.01,-8.72,-2.426,-2.4326,1.1465,14.0625,39.25,14.1875,35.5625,-6.875,152.125,0
1776974154.084,12.3589,3.4261,-3.1795,0.5193,0.6651,1.0653,-82.95,30.15,26.85,10.726,-0.8164,-9.6822,1.2526,0.4391,0.5137,-62.25,26.1,21.75,-0.63,3.83,-10.42,-2.0246,-2.3267,0.8018,14.0625,39.25,14.1875,35.625,-8.1875,153.1875,0
1776974154.089,12.3589,3.4261,-3.1795,0.5193,0.6651,1.0653,-82.95,30.15,26.85,10.726,-0.8164,-9.6822,1.2526,0.4391,0.5137,-61.05,24.6,21.0,-0.63,3.83,-10.42,-2.0246,-2.3267,0.8018,14.0625,39.25,14.1875,35.4375,-9.5,153.75,0
1776974154.098,14.1042,3.4046,-4.5777,1.2257,0.6582,1.2209,-82.95,30.15,26.85,12.4929,-0.7518,-6.7493,0.6835,0.7442,0.5828,-62.25,28.05,21.0,-0.89,0.74,-11.05,-1.1476,-2.4642,0.3382,14.0625,39.25,14.1875,35.25,-11.0625,154.0,0
1776974154.108,15.1744,2.7126,-5.9185,2.1903,0.5076,1.1871,-83.85,28.5,26.7,13.3381,-1.0008,-5.3678,0.5383,0.7131,0.6134,-62.55,27.0,20.7,-3.64,3.03,-12.65,-0.5836,-2.8645,0.4232,14.0625,39.25,14.1875,35.25,-11.0625,154.0,0
1776974154.113,16.0771,1.6927,-5.8754,2.8639,0.5905,1.064,-82.5,28.2,26.1,13.0532,-1.3815,-3.7302,0.2158,0.7789,0.6712,-62.55,27.0,20.7,-3.64,3.03,-12.65,-0.5836,-2.8645,0.4232,14.0625,39.25,14.1875,35.375,-12.8125,154.125,0
1776974154.118,16.0771,1.6927,-5.8754,3.1251,0.6816,0.9062,-82.5,28.2,26.1,13.0532,-1.3815,-3.7302,0.2158,0.7789,0.6712,-62.55,27.0,20.7,-6.88,3.59,-14.15,-0.3523,-3.0587,0.9381,21.0625,34.875,15.25,35.375,-12.8125,154.125,0
1776974154.123,15.8424,1.0702,-4.7812,3.1251,0.6816,0.9062,-81.45,29.4,24.0,11.8824,-0.6345,-1.0965,-0.1487,0.9774,0.7445,-62.55,27.0,20.7,-6.88,3.59,-14.15,-0.3523,-3.0587,0.9381,21.0625,34.875,15.25,35.6875,-14.625,154.1875,0
1776974154.128,14.8369,0.7254,-3.4548,2.8426,0.7501,0.7309,-81.45,29.4,24.0,11.8824,-0.6345,-1.0965,-0.1487,0.9774,0.7445,-63.15,24.75,20.1,-8.48,-2.34,-12.87,-0.0545,-3.0161,1.3068,21.0625,34.875,15.25,35.6875,-14.625,154.1875,0
1776974154.136,14.8369,0.7254,-3.4548,2.8426,0.7501,0.7309,-81.45,30.15,22.95,11.4634,2.6743,3.1915,-0.2715,1.4149,0.7933,-63.15,24.75,20.1,-10.2,-9.03,-12.01,0.0622,-2.786,1.4301,21.0625,34.875,15.25,36.1875,-16.375,154.125,0
1776974154.14,12.4259,0.5124,-2.1596,2.08,0.8295,0.542,-81.45,30.15,22.95,11.9016,6.1794,4.4867,0.1697,1.5404,0.8652,-63.15,24.75,20.1,-10.2,-9.03,-12.01,0.0622,-2.786,1.4301,21.0625,34.875,15.25,36.625,-17.875,154.25,0
1776974154.148,9.2823,0.0766,-1.2594,0.8199,1.7259,0.3568,-81.45,30.15,22.95,12.1769,7.9918,2.6767,0.1697,1.5404,0.8652,-62.55,24.15,20.25,-10.88,-12.11,-8.94,-0.1538,-2.4151,1.3854,21.0625,34.875,15.25,37.0625,-19.0625,154.6875,0
1776974154.158,7.5465,0.0359,-0.3807,-0.3059,1.4354,0.11,-80.4,27.9,23.55,11.2911,6.359,1.0558,1.0459,1.1215,0.8982,-62.4,24.45,21.15,-5.45,-2.75,-8.83,-0.5683,-1.6886,1.2937,21.0625,34.875,15.25,37.0625,-19.0625,154.6875,0
1776974154.163,7.5465,0.0359,-0.3807,-0.3059,1.4354,0.11,-79.8,29.55,23.85,11.2911,6.359,1.0558,1.8391,0.3309,0.8551,-62.4,24.45,21.15,-5.45,-2.75,-8.83,-0.5683,-1.6886,1.2937,21.0625,34.875,15.25,37.4375,-19.9375,155.1875,0
1776974154.168,7.6806,-1.8818,0.2897,-1.7483,1.1095,-0.1335,-79.8,29.55,23.85,8.7149,3.5386,2.624,1.8391,0.3309,0.8551,-63.0,24.15,19.5,-5.49,0.46,-11.02,-0.7549,-1.2719,1.0472,29.6875,32.375,12.0625,37.4375,-19.9375,155.1875,0
1776974154.173,7.6806,-1.8818,0.2897,-1.7483,1.1095,-0.1335,-80.55,29.55,24.45,8.7149,3.5386,2.624,1.995,0.0192,0.6907,-63.0,24.15,19.5,-5.49,0.46,-11.02,-0.7549,-1.2719,1.0472,29.6875,32.375,12.0625,37.4375,-19.9375,155.1875,0
1776974154.178,6.7708,-2.897,4.9752,-2.3054,0.8335,-0.3331,-79.8,29.55,24.45,7.1036,0.2346,1.2498,1.7131,0.1628,0.6382,-61.8,23.4,20.7,-5.39,-2.56,-9.68,-0.6469,-1.0527,0.9643,29.6875,32.375,12.0625,37.75,-20.6875,155.625,0
1776974154.183,6.7708,-2.897,4.9752,-2.3054,0.8335,-0.3331,-79.8,28.5,26.25,7.1036,0.2346,1.2498,1.7131,0.1628,0.6382,-61.8,23.4,20.7,-5.39,-2.56,-9.68,-0.6338,-0.9261,0.8301,29.6875,32.375,12.0625,38.0625,-21.3125,156.0625,0
1776974154.189,6.6343,-3.6272,4.2066,-3.5125,0.8484,-0.1985,-78.6,26.4,26.1,7.2161,-2.8898,1.1181,1.162,0.6011,0.7067,-63.0,22.95,20.7,-4.77,-4.26,-8.73,-0.6338,-0.9261,0.8301,29.6875,32.375,12.0625,38.3125,-21.9375,156.5,0
1776974154.198,7.0006,-3.1939,3.5003,-3.6886,0.6755,0.0386,-78.6,26.4,26.1,8.4467,-4.9057,0.6823,0.4104,0.9294,0.712,-62.7,23.25,21.6,-4.62,-2.39,-9.03,-0.6916,-0.841,0.7123,29.6875,32.375,12.0625,38.5,-22.4375,156.9375,0
1776974154.208,7.1251,-2.2122,3.5913,-3.0465,0.4098,0.312,-79.65,22.95,27.15,10.0078,-5.0613,0.012,-0.4386,1.0664,0.5812,-62.7,23.25,21.6,-4.48,-2.5,-9.1,-0.7047,-0.7505,0.6392,29.6875,32.375,12.0625,38.5,-22.4375,156.9375,0
1776974154.213,7.1251,-2.2122,3.5913,-3.0465,0.4098,0.312,-79.65,22.95,27.15,10.0078,-5.0613,0.012,-0.4386,1.0664,0.5812,-62.7,23.25,21.6,-4.48,-2.5,-9.1,-0.7047,-0.7505,0.6392,29.6875,32.375,12.0625,38.5,-22.4375,156.9375,0
1776974154.218,8.2337,-0.668,3.0406,-2.2735,0.2563,0.6275,-78.15,21.45,28.65,10.9487,-3.3184,-0.0479,-1.0576,1.1213,0.4253,-63.0,20.25,22.5,-4.39,-3.09,-8.83,-0.6349,-0.6927,0.576,33.5625,29.75,7.875,38.625,-22.9375,157.375,0
1776974154.223,8.2337,-0.668,3.0406,-2.2735,0.2563,0.6275,-78.15,21.45,28.65,10.9487,-3.3184,-0.0479,-1.0576,1.1213,0.4253,-63.0,20.25,22.5,-4.39,-3.09,-8.83,-0.6349,-0.6927,0.576,33.5625,29.75,7.875,38.625,-22.9375,157.375,0
1776974154.228,9.2416,0.2921,1.5874,-1.5964,-0.0282,0.8849,-79.35,19.65,29.7,10.9176,-0.4812,0.3065,-1.3187,1.1527,0.3637,-63.45,20.85,22.35,-4.41,-2.85,-8.82,-0.5138,-0.6338,0.5007,33.5625,29.75,7.875,38.8125,-23.375,157.6875,0
1776974154.236,10.1538,0.8452,0.2993,-0.9377,0.1964,1.0222,-79.35,19.65,29.7,10.7332,1.8747,0.6273,-1.2556,1.0762,0.3965,-64.05,20.85,22.35,-4.56,-2.56,-9.13,-0.4734,-0.6054,0.4429,33.5625,29.75,7.875,38.9375,-23.75,158.0,0
1776974154.241,10.1538,0.8452,0.2993,-0.9377,0.1964,1.0222,-78.9,18.15,30.0,10.7332,1.8747,0.6273,-1.2556,1.0762,0.3965,-64.05,21.0,23.7,-4.56,-2.56,-9.13,-0.4734,-0.6054,0.4429,33.5625,29.75,7.875,39.0625,-24.125,158.25,0
1776974154.248,11.1474,2.1261,-0.2131,-0.174,0.6651,1.004,-78.9,18.15,30.0,10.1801,3.644,1.2785,-0.9982,0.8879,0.4565,-62.7,19.35,23.85,-5.06,-2.94,-8.94,-0.4211,-0.5781,0.3894,33.5625,29.75,7.875,39.125,-24.4375,158.5,0
1776974154.258,11.0014,2.7725,-0.0215,0.555,0.6763,0.8098,-79.35,16.95,29.25,9.6367,4.6567,1.063,-0.6448,0.7477,0.5089,-61.65,19.35,23.85,-4.83,-2.93,-8.81,-0.3676,-0.4931,0.3207,33.5625,29.75,7.875,39.125,-24.4375,158.5,0
1776974154.263,11.0014,2.7725,-0.0215,0.9585,0.6915,0.6158,-79.35,16.95,29.25,9.6367,4.6567,1.063,-0.6448,0.7477,0.5089,-61.65,19.35,23.85,-4.83,-2.93,-8.81,-0.3676,-0.4931,0.3207,33.5625,29.75,7.875,39.1875,-24.6875,158.75,0
1776974154.268,10.1897,3.6176,0.9409,0.9585,0.6915,0.6158,-77.1,17.4,28.2,8.995,5.0685,1.1947,-0.2028,0.6763,0.5694,-62.7,20.1,23.4,-4.9,-2.93,-8.74,-0.348,-0.384,0.2563,36.1875,27.1875,8.25,39.1875,-24.6875,158.75,0
1776974154.273,9.1243,4.2114,1.9968,0.9942,0.6368,0.4711,-77.1,17.4,28.2,8.995,5.0685,1.1947,-0.2028,0.6763,0.5694,-62.7,20.1,23.4,-4.9,-2.93,-8.74,-0.348,-0.384,0.2563,36.1875,27.1875,8.25,39.25,-24.875,158.9375,0
1776974154.278,9.1243,4.2114,1.9968,0.9942,0.6368,0.4711,-78.0,16.5,28.8,9.2847,4.3191,0.8619,0.3035,0.5923,0.6102,-62.7,20.1,23.4,-4.76,-3.03,-8.61,-0.3371,-0.2858,0.2062,36.1875,27.1875,8.25,39.25,-24.875,158.9375,0
1776974154.283,9.1243,4.2114,1.9968,0.6651,0.5316,0.4277,-78.0,16.5,28.8,9.2847,4.3191,0.8619,0.3035,0.5923,0.6102,-62.7,20.1,23.4,-4.76,-3.03,-8.61,-0.3272,-0.2236,0.168,36.1875,27.1875,8.25,39.25,-25.0625,159.125,0
1776974154.289,9.3781,3.7469,3.2633,0.6651,0.5316,0.4277,-77.7,16.5,29.1,9.3398,3.1963,0.7757,0.7978,0.5033,0.6057,-63.45,18.9,24.15,-4.71,-3.05,-8.46,-0.3272,-0.2236,0.168,36.1875,27.1875,8.25,39.25,-25.1875,159.3125,0
1776974154.298,8.7747,3.2178,4.4293,0.5958,0.7418,0.4447,-77.7,16.5,28.05,9.4619,1.5993,0.8188,1.0571,0.5185,0.5574,-63.45,18.9,24.15,-4.45,-2.95,-8.47,-0.312,-0.1702,0.1374,36.1875,27.1875,8.25,39.25,-25.1875,159.3125,0
1776974154.308,8.4324,2.4086,4.2545,0.3952,0.8937,0.5031,-77.7,16.5,28.05,9.5648,0.6201,1.0534,1.1333,0.5462,0.5193,-63.3,21.0,24.3,-4.63,-2.86,-8.51,-0.3022,-0.1429,0.1134,36.1875,27.1875,8.25,39.3125,-25.25,159.5,0
1776974154.313,8.6167,2.0925,3.4644,0.3693,0.9798,0.5364,-77.7,16.5,28.05,9.6151,0.3496,1.0774,0.9561,0.6153,0.4972,-63.3,21.0,24.3,-4.63,-2.86,-8.51,-0.3022,-0.1429,0.1134,36.1875,27.1875,8.25,39.3125,-25.25,159.5,0
1776974154.318,8.6167,2.0925,3.4644,0.3693,0.9798,0.5364,-76.95,18.0,28.5,9.6151,0.3496,1.0774,0.9561,0.6153,0.4972,-63.15,19.35,24.6,-4.59,-2.79,-8.54,-0.2749,-0.1134,0.0949,36.875,25.75,7.1875,39.3125,-25.3125,159.6875,0
1776974154.323,8.9208,2.1476,2.794,0.3499,1.0206,0.5558,-76.95,18.0,28.5,9.6534,-0.1077,0.9194,0.5188,0.6784,0.4644,-63.15,19.35,24.6,-4.59,-2.79,-8.54,-0.2749,-0.1134,0.0949,36.875,25.75,7.1875,39.3125,-25.3125,159.6875,0
1776974154.328,8.9208,2.1476,2.794,0.3499,1.0206,0.5558,-77.1,18.45,29.25,9.6534,-0.1077,0.9194,0.5188,0.6784,0.4644,-64.35,20.4,23.85,-4.57,-2.95,-8.38,-0.2454,-0.0982,0.0731,36.875,25.75,7.1875,39.3125,-25.375,159.8125,0
1776974154.333,9.2392,1.8747,2.1811,0.3978,1.036,0.55,-77.1,18.45,29.25,9.7276,0.5195,1.1899,0.1207,0.6915,0.4498,-64.35,20.4,23.85,-4.57,-2.95,-8.38,-0.2193,-0.0807,0.06,36.875,25.75,7.1875,39.3125,-25.4375,159.9375,0
1776974154.339,9.2392,1.8747,2.1811,0.3978,1.036,0.55,-77.85,17.7,29.7,9.7276,0.5195,1.1899,0.1207,0.6915,0.4498,-63.75,19.05,24.75,-4.24,-2.98,-8.29,-0.2193,-0.0807,0.06,36.875,25.75,7.1875,39.3125,-25.4375,159.9375,0
1776974154.348,9.4451,1.5371,1.3384,0.3816,1.0784,0.5313,-77.1,19.95,30.0,9.6462,1.6137,0.8212,-0.3389,0.6691,0.4823,-63.75,19.05,24.75,-4.45,-2.94,-8.29,-0.204,-0.096,0.06,36.875,25.75,7.1875,39.3125,-25.5625,160.0625,0
1776974154.357,9.2751,1.2522,0.4525,0.4676,0.9038,0.5017,-77.1,19.95,30.0,9.5074,2.1524,0.6943,-0.6912,0.5622,0.5071,-63.75,19.05,24.75,-4.32,-3.09,-8.16,-0.1931,-0.1156,0.0709,36.875,25.75,7.1875,39.3125,-25.625,160.1875,0
1776974154.362,9.4188,1.1133,0.146,0.5556,0.8415,0.4405,-77.1,19.95,30.0,9.2847,2.5833,1.0032,-1.003,0.5918,0.5009,-63.45,18.15,24.6,-4.32,-3.09,-8.16,-0.1931,-0.1156,0.0709,36.875,25.75,7.1875,39.3125,-25.625,160.1875,0
1776974154.367,9.4188,1.1133,0.146,0.5556,0.8415,0.4405,-76.8,21.9,30.75,9.2847,2.5833,1.0032,-1.003,0.5918,0.5009,-63.45,18.15,24.6,-4.04,-3.12,-8.06,-0.1909,-0.1004,0.0785,37.25,26.1875,6.875,39.3125,-25.6875,160.3125,0
1776974154.372,9.5074,1.087,0.2346,0.4461,0.9507,0.3541,-76.8,21.9,30.75,9.3446,2.6911,0.1365,-1.1676,0.5878,0.4988,-63.45,18.15,24.6,-4.04,-3.12,-8.06,-0.1909,-0.1004,0.0785,37.25,26.1875,6.875,39.3125,-25.6875,160.3125,0
1776974154.377,9.5074,1.087,0.2346,0.4461,0.9507,0.3541,-79.5,23.25,30.9,9.3446,2.6911,0.1365,-1.1676,0.5878,0.4988,-63.45,18.15,24.6,-3.74,-3.19,-8.05,-0.2127,-0.0916,0.096,37.25,26.1875,6.875,39.3125,-25.75,160.4375,0
1776974154.381,9.8904,1.2067,-0.1245,0.0562,1.117,0.2622,-79.5,23.25,30.9,9.3063,2.7964,-0.1413,-1.1151,0.5534,0.5492,-63.0,18.0,25.5,-3.74,-3.19,-8.05,-0.2127,-0.0916,0.096,37.25,26.1875,6.875,39.375,-25.8125,160.625,0
1776974154.389,9.8904,1.2067,-0.1245,-0.3016,1.2697,0.1588,-78.9,22.2,31.05,8.9854,3.158,-0.3184,-1.1151,0.5534,0.5492,-62.7,15.75,26.1,-4.39,-2.74,-8.29,-0.2553,-0.1385,0.1374,37.25,26.1875,6.875,39.375,-25.9375,160.8125,0
1776974154.398,9.56,0.4908,-0.2682,0.0898,0.975,0.1071,-80.4,23.7,34.35,9.0764,2.8443,-0.2921,-0.866,0.4959,0.6925,-64.35,16.2,26.1,-4.59,-2.62,-8.4,-0.2771,-0.1407,0.1604,37.25,26.1875,6.875,39.375,-25.9375,160.8125,0
1776974154.408,9.2991,0.68,1.3671,-0.2761,0.7845,0.1828,-80.7,25.95,33.9,9.0668,2.873,0.2849,-0.6145,0.5167,0.7242,-64.35,16.2,26.1,-4.55,-2.55,-8.39,-0.2716,-0.1091,0.156,37.25,26.1875,6.875,39.4375,-26.0,161.0,0
1776974154.413,9.2991,0.68,1.3671,-0.2761,0.7845,0.1828,-80.7,25.95,33.9,9.0668,2.873,0.2849,-0.3501,0.5641,0.7269,-63.0,15.15,26.55,-4.55,-2.55,-8.39,-0.2716,-0.1091,0.156,37.25,26.1875,6.875,39.4375,-26.0,161.0,0
1776974154.418,9.2727,0.2849,0.5459,-0.7069,0.7703,0.2105,-80.7,25.95,33.9,9.165,2.6959,0.2514,-0.0512,0.5729,0.7194,-63.15,15.75,25.35,-4.47,-2.41,-8.44,-0.2596,-0.0764,0.1396,38.375,25.375,6.1875,39.4375,-26.125,161.125,0
1776974154.423,9.2727,0.2849,0.5459,-0.7069,0.7703,0.2105,-80.7,25.95,33.9,9.165,2.6959,0.2514,-0.0512,0.5729,0.7194,-63.15,15.75,25.35,-4.47,-2.41,-8.44,-0.2596,-0.0764,0.1396,38.375,25.375,6.1875,39.4375,-26.125,161.125,0
1776974154.428,9.347,0.9098,-0.067,-0.9697,0.7623,0.2025,-85.05,26.4,38.25,9.3278,2.2266,0.2274,0.0997,0.6142,0.7277,-63.15,15.75,25.35,-4.28,-2.57,-8.36,-0.2454,-0.0742,0.1287,38.375,25.375,6.1875,39.5,-26.1875,161.3125,0
1776974154.436,9.347,0.9098,-0.067,-0.9697,0.7623,0.2025,-88.05,25.65,39.0,9.3278,2.2266,0.2274,0.0997,0.6142,0.7277,-61.95,15.75,25.35,-4.41,-2.56,-8.34,-0.2258,-0.084,0.1178,38.375,25.375,6.1875,39.5,-26.25,161.4375,0
1776974154.441,9.2799,-0.3591,-0.5962,-0.9862,0.4487,0.2574,-88.05,25.65,39.0,9.4739,1.6376,0.9218,0.15,0.6259,0.7272,-61.95,15.75,25.35,-4.41,-2.56,-8.34,-0.2258,-0.084,0.1178,38.375,25.375,6.1875,39.5625,-26.3125,161.625,0
1776974154.449,9.5074,0.2658,2.3631,-0.1879,0.4085,0.3147,-86.7,23.25,36.3,9.3757,1.1899,1.3838,0.1919,0.5748,0.7216,-62.7,15.45,28.2,-4.23,-2.74,-8.27,-0.2193,-0.1058,0.1189,38.375,25.375,6.1875,39.5625,-26.3125,161.625,0
1776974154.455,9.5074,0.2658,2.3631,-0.1879,0.4085,0.3147,-86.7,22.8,35.85,9.3757,1.1899,1.3838,0.1919,0.5748,0.7216,-62.7,15.45,28.2,-4.36,-2.7,-8.31,-0.2149,-0.1342,0.1233,38.375,25.375,6.1875,39.5625,-26.375,161.75,0
1776974154.46,8.8466,1.5251,1.6137,-0.4333,0.4887,0.202,-86.7,22.8,35.85,9.2225,0.4788,1.5036,0.0045,0.5726,0.7293,-63.3,14.4,27.0,-4.36,-2.7,-8.31,-0.2149,-0.1342,0.1233,38.375,25.375,6.1875,39.5625,-26.375,161.75,0
1776974154.465,8.8466,1.5251,1.6137,-0.4333,0.4887,0.202,-86.7,22.8,35.85,9.2225,0.4788,1.5036,0.0045,0.5726,0.7293,-63.3,14.4,27.0,-4.93,-2.63,-8.36,-0.2127,-0.1636,0.1342,37.6875,25.75,7.5,39.625,-26.5,161.875,0
1776974154.47,8.7795,2.0973,0.7135,-1.1034,0.5257,0.1292,-86.7,22.8,35.85,9.2033,-0.0407,1.3743,-0.1615,0.6147,0.7304,-62.55,13.65,25.8,-4.93,-2.63,-8.36,-0.2127,-0.1636,0.1342,37.6875,25.75,7.5,39.625,-26.5,161.875,0
1776974154.475,8.7795,2.0973,0.7135,-1.1034,0.5257,0.1292,-82.2,19.2,36.45,9.2033,-0.0407,1.3743,-0.1615,0.6147,0.7304,-62.55,13.65,25.8,-4.93,-2.63,-8.36,-0.2302,-0.1374,0.1265,37.6875,25.75,7.5,39.625,-26.625,162.0625,0
1776974154.479,9.0525,1.7142,1.2402,-1.4509,0.6416,0.1346,-82.2,19.2,36.45,9.7564,-0.1077,1.1732,-0.3344,0.5676,0.736,-62.7,14.25,27.45,-4.71,-2.51,-8.3,-0.2302,-0.1374,0.1265,37.6875,25.75,7.5,39.625,-26.625,162.0625,0
1776974154.484,9.0525,1.7142,1.2402,-1.4509,0.6416,0.1346,-82.8,18.3,35.55,9.7564,-0.1077,1.1732,-0.3344,0.5676,0.736,-62.7,14.25,27.45,-4.71,-2.51,-8.3,-0.2291,-0.0774,0.1102,37.6875,25.75,7.5,39.6875,-26.6875,162.1875,0
1776974154.489,9.347,1.1779,2.1261,-1.3456,0.5425,0.1772,-82.8,18.3,35.55,9.7851,0.2729,0.9744,-0.5052,0.5196,0.7485,-63.15,14.25,27.15,-4.67,-2.36,-8.5,-0.2291,-0.0774,0.1102,37.6875,25.75,7.5,39.6875,-26.75,162.3125,0
1776974154.499,8.9591,1.2019,3.237,-1.0842,0.5612,0.2233,-81.0,16.5,35.85,9.3422,0.7302,1.0774,-0.6472,0.5516,0.757,-63.15,14.25,27.15,-4.69,-2.47,-8.39,-0.1724,-0.0873,0.0916,37.6875,25.75,7.5,39.6875,-26.75,162.3125,0
1776974154.509,8.9807,1.7597,3.4548,-1.019,0.8266,0.23,-81.15,13.95,36.15,9.5074,1.403,0.7111,-0.5998,0.5465,0.7666,-64.05,12.0,28.5,-4.48,-2.37,-8.49,-0.1625,-0.0687,0.0818,37.6875,25.75,7.5,39.6875,-26.75,162.4375,0
1776974154.513,8.9807,1.7597,3.4548,-1.019,0.8266,0.23,-80.25,14.25,36.6,9.3302,1.8124,0.8428,-0.5998,0.5465,0.7666,-64.05,12.0,28.5,-4.48,-2.37,-8.49,-0.1625,-0.0687,0.0818,37.6875,25.75,7.5,39.6875,-26.75,162.4375,0
1776974154.518,9.0094,1.9632,2.9928,-0.8247,0.7029,0.2254,-80.25,14.25,36.6,9.3302,1.8124,0.8428,-0.5167,0.5359,0.7658,-64.05,12.0,28.5,-4.38,-2.49,-8.42,-0.1505,-0.0927,0.0742,37.6875,24.6875,6.6875,39.75,-26.8125,162.5,0
1776974154.523,9.0094,1.9632,2.9928,-0.8247,0.7029,0.2254,-80.25,14.25,36.6,9.2105,1.6305,1.0965,-0.5167,0.5359,0.7658,-63.15,11.85,28.95,-4.38,-2.49,-8.42,-0.1505,-0.0927,0.0742,37.6875,24.6875,6.6875,39.75,-26.8125,162.5,0
1776974154.528,9.0716,2.0949,2.3966,-0.7141,0.5868,0.2441,-80.25,14.25,36.6,9.2105,1.6305,1.0965,-0.4149,0.5708,0.773,-63.15,11.85,28.95,-4.56,-2.47,-8.37,-0.1538,-0.0698,0.0622,37.6875,24.6875,6.6875,39.75,-26.875,162.625,0
1776974154.533,9.0716,2.0949,2.3966,-0.7141,0.5868,0.2441,-78.0,12.75,36.3,9.1937,1.3216,1.4317,-0.4149,0.5708,0.773,-63.15,11.85,28.95,-4.56,-2.47,-8.37,-0.1429,-0.0829,0.0665,37.6875,24.6875,6.6875,39.75,-26.9375,162.6875,0
1776974154.539,8.8729,2.2841,2.1428,-0.5433,0.5084,0.2579,-78.0,12.75,36.3,9.1937,1.3216,1.4317,-0.3331,0.6472,0.7749,-63.15,11.85,28.95,-4.49,-2.43,-8.42,-0.1429,-0.0829,0.0665,37.6875,24.6875,6.6875,39.75,-26.9375,162.6875,0
1776974154.548,9.1435,2.2338,1.822,-0.3885,0.2947,0.2529,-79.5,12.0,37.35,9.1794,1.087,1.6975,-0.2627,0.7109,0.7799,-63.45,11.1,28.2,-4.52,-2.57,-8.37,-0.132,-0.084,0.0644,37.6875,24.6875,6.6875,39.75,-27.0,162.8125,0
1776974154.553,9.1435,2.2338,1.822,-0.1636,-0.4884,0.271,-78.9,12.15,35.7,8.3869,0.8045,1.7358,-0.243,0.8876,0.8127,-63.45,10.65,28.95,-4.52,-2.57,-8.37,-0.1254,-0.1014,0.0687,37.6875,24.6875,6.6875,39.75,-27.0625,162.875,0
1776974154.56,10.6063,1.9393,1.1181,-0.1636,-0.4884,0.271,-78.9,12.15,35.7,8.3869,0.8045,1.7358,-0.243,0.8876,0.8127,-62.7,9.9,30.45,-4.57,-2.59,-8.3,-0.1254,-0.1014,0.0687,37.6875,24.6875,6.6875,39.75,-27.0625,162.875,0
1776974154.565,6.3638,1.4365,3.0478,-0.3254,0.3797,0.2864,-79.8,12.3,36.6,9.6845,-0.5411,1.8004,-0.3262,1.0371,0.8055,-62.7,9.9,30.45,-4.57,-2.59,-8.3,-0.1298,-0.0916,0.0753,39.0625,24.6875,8.25,39.8125,-27.125,162.9375,0
1776974154.57,6.3638,1.4365,3.0478,-0.3254,0.3797,0.2864,-79.8,12.3,36.6,9.6845,-0.5411,1.8004,-0.3262,1.0371,0.8055,-62.7,9.9,30.45,-4.41,-2.62,-8.27,-0.1298,-0.0916,0.0753,39.0625,24.6875,8.25,39.8125,-27.125,162.9375,0
1776974154.574,9.7659,0.6273,2.1045,-0.3645,0.8961,0.3019,-79.8,12.3,36.6,10.6231,-0.7135,1.6089,-0.3413,0.6973,0.7485,-62.4,11.4,29.7,-4.41,-2.62,-8.27,-0.1418,-0.0949,0.0764,39.0625,24.6875,8.25,39.8125,-27.1875,163.0625,0
1776974154.58,9.7659,0.6273,2.1045,-0.3645,0.8961,0.3019,-79.8,12.3,36.6,10.6231,-0.7135,1.6089,-0.3413,0.6973,0.7485,-62.4,11.4,29.7,-4.5,-2.47,-8.42,-0.1418,-0.0949,0.0764,39.0625,24.6875,8.25,39.8125,-27.1875,163.0625,0
1776974154.584,9.0956,0.0168,2.2122,-0.397,0.3528,0.34,-78.15,11.4,37.2,9.6247,-0.5243,1.4964,-0.3629,0.6358,0.7528,-62.4,11.4,29.7,-4.5,-2.47,-8.42,-0.132,-0.1014,0.0851,39.0625,24.6875,8.25,39.8125,-27.25,163.125,0
1776974154.59,9.0956,0.0168,2.2122,-0.397,0.3528,0.34,-78.15,11.4,37.2,9.6247,-0.5243,1.4964,-0.3629,0.6358,0.7528,-62.4,11.4,29.7,-4.65,-2.27,-8.47,-0.132,-0.1014,0.0851,39.0625,24.6875,8.25,39.8125,-27.25,163.125,0
1776974154.598,9.4715,-0.1173,1.968,-0.4399,0.5569,0.34,-79.05,10.5,39.15,8.8921,-0.0192,1.5826,-0.3752,0.6622,0.7919,-62.4,9.9,29.7,-4.72,-2.18,-8.49,-0.1145,-0.0982,0.084,39.0625,24.6875,8.25,39.875,-27.3125,163.25,0
1776974154.608,9.2177,-0.0599,1.5467,-0.4367,0.2944,0.3395,-77.55,11.7,37.5,8.6167,0.3448,1.1349,-0.4189,0.7837,0.8005,-62.4,9.9,29.7,-4.82,-2.19,-8.45,-0.096,-0.0938,0.0687,39.0625,24.6875,8.25,39.875,-27.375,163.3125,0
1776974154.613,9.0644,0.4597,1.2641,-0.5753,0.9467,0.3107,-76.35,11.4,37.5,9.6726,0.237,1.8004,-0.4652,0.765,0.7863,-62.25,8.1,28.5,-4.82,-2.19,-8.45,-0.096,-0.0938,0.0687,39.0625,24.6875,8.25,39.875,-27.375,163.3125,0
1776974154.618,9.0644,0.4597,1.2641,-0.5753,0.9467,0.3107,-76.35,11.4,37.5,9.6726,0.237,1.8004,-0.4652,0.765,0.7863,-62.25,8.1,28.5,-4.57,-2.37,-8.33,-0.0862,-0.0938,0.0578,39.5,24.6875,6.375,39.875,-27.4375,163.375,0
1776974154.623,9.9862,0.8452,0.6632,-0.6315,0.6462,0.279,-76.35,11.4,37.5,9.8234,0.668,1.3336,-0.5105,0.7115,0.7847,-63.15,8.4,30.15,-4.57,-2.37,-8.33,-0.0862,-0.0938,0.0578,39.5,24.6875,6.375,39.875,-27.4375,163.375,0
1776974154.628,9.9862,0.8452,0.6632,-0.6315,0.6462,0.279,-76.35,11.4,37.5,9.8234,0.668,1.3336,-0.5105,0.7115,0.7847,-63.15,8.4,30.15,-4.59,-2.4,-8.41,-0.0785,-0.0894,0.0513,39.5,24.6875,6.375,39.875,-27.5,163.375,0
1776974154.633,9.493,1.2881,0.6512,-0.5764,0.4479,0.2502,-76.35,11.4,37.5,9.4403,0.7183,1.8172,-0.4924,0.7693,0.8143,-61.2,8.4,30.45,-4.59,-2.4,-8.41,-0.0785,-0.0894,0.0513,39.5,24.6875,6.375,39.9375,-27.5625,163.4375,0
1776974154.639,9.493,1.2881,0.6512,-0.5764,0.4479,0.2502,-76.35,11.4,37.5,9.5672,0.6584,1.7693,-0.4722,0.7504,0.8569,-61.2,8.4,30.45,-4.56,-2.32,-8.44,-0.084,-0.0654,0.0458,39.5,24.6875,6.375,39.9375,-27.5625,163.4375,0
1776974154.646,8.9759,1.3838,1.2186,-0.7059,0.4727,0.2406,-75.6,9.45,37.2,9.5672,0.6584,1.7693,-0.4722,0.7504,0.8569,-61.8,6.15,31.05,-4.49,-2.45,-8.42,-0.0774,-0.0578,0.0436,39.5,24.6875,6.375,39.9375,-27.5625,163.5,0
1776974154.651,9.3182,1.7142,1.4988,-0.7962,0.3672,0.2337,-77.1,8.7,39.6,9.6319,0.6345,1.719,-0.4447,0.7245,0.8823,-62.7,5.55,32.4,-4.49,-2.45,-8.42,-0.0774,-0.0578,0.0436,39.5,24.6875,6.375,39.9375,-27.625,163.5625,0
1776974154.659,9.3182,1.7142,1.4988,-0.7962,0.3672,0.2337,-77.1,8.7,39.6,8.734,0.8284,1.8028,-0.3584,0.8628,0.9361,-62.7,5.55,32.4,-4.66,-2.32,-8.43,-0.0687,-0.0622,0.0425,39.5,24.6875,6.375,39.9375,-27.625,163.5625,0
1776974154.664,8.9591,2.0399,1.9249,-0.756,-0.3363,0.2425,-76.95,9.3,38.7,8.734,0.8284,1.8028,-0.3584,0.8628,0.9361,-62.7,7.95,31.2,-4.66,-2.32,-8.43,-0.0687,-0.0622,0.0425,39.5,24.6875,6.375,39.9375,-27.6875,163.625,0
1776974154.669,8.9591,2.0399,1.9249,-0.9222,-0.2798,0.251,-76.95,9.3,38.7,8.7771,0.9936,2.375,-0.3464,0.9862,0.983,-62.7,7.95,31.2,-4.72,-2.24,-8.47,-0.048,-0.0665,0.048,39.875,23.875,6.0,39.9375,-27.6875,163.625,0
1776974154.674,8.3222,2.3607,2.5953,-0.9222,-0.2798,0.251,-78.45,8.55,38.7,8.7771,0.9936,2.375,-0.3464,0.9862,0.983,-62.7,7.95,31.2,-4.72,-2.24,-8.47,-0.048,-0.0665,0.048,39.875,23.875,6.0,39.9375,-27.6875,163.625,0
1776974154.679,8.1547,2.2817,3.2681,-1.1119,0.3717,0.2531,-78.45,8.55,38.7,9.8569,0.6201,2.3511,-0.3539,0.8676,1.0024,-62.7,7.95,31.2,-4.59,-2.23,-8.46,-0.0295,-0.0524,0.0502,39.875,23.875,6.0,39.9375,-27.6875,163.625,0
1776974154.684,8.1547,2.2817,3.2681,-1.1119,0.3717,0.2531,-78.45,8.55,38.7,9.8569,0.6201,2.3511,-0.3539,0.8676,1.0024,-59.4,5.25,31.65,-4.59,-2.23,-8.46,-0.0218,-0.0622,0.0567,39.875,23.875,6.0,40.0,-27.75,163.6875,0
1776974154.69,8.655,2.138,3.6559,-1.1578,-0.0128,0.2798,-78.0,7.5,38.7,10.0293,0.1437,2.5426,-0.3003,0.8167,1.0293,-59.4,5.25,31.65,-4.62,-2.37,-8.54,-0.0218,-0.0622,0.0567,39.875,23.875,6.0,40.0,-27.75,163.6875,0
1776974154.699,8.8226,2.047,4.3742,-1.0901,0.4053,0.2683,-78.0,7.5,39.15,9.8497,0.0862,2.4588,-0.2284,0.7655,1.0845,-60.45,4.8,33.0,-4.56,-2.3,-8.61,-0.0142,-0.0731,0.0687,39.875,23.875,6.0,40.0,-27.8125,163.6875,0
1776974154.704,8.8226,2.047,4.3742,-1.0901,0.4053,0.2683,-78.0,7.5,39.15,9.8497,0.0862,2.4588,-0.2284,0.7655,1.0845,-59.55,5.85,31.8,-4.56,-2.3,-8.61,0.0185,-0.0807,0.0753,39.875,23.875,6.0,40.0625,-27.875,163.6875,0
1776974154.71,9.086,1.9992,4.5466,-0.8998,0.3142,0.2542,-77.85,8.4,40.05,9.6798,0.2873,2.2505,-0.2787,0.7314,1.1532,-59.55,5.85,31.8,-4.55,-2.19,-8.71,0.0185,-0.0807,0.0753,39.875,23.875,6.0,40.0625,-27.875,163.6875,0
1776974154.715,9.086,1.9992,4.5466,-0.8998,0.3142,0.2542,-77.85,8.4,40.05,9.6798,0.2873,2.2505,-0.2787,0.7314,1.1532,-60.75,3.9,32.55,-4.55,-2.19,-8.71,0.0589,-0.108,0.0676,39.875,23.5,6.375,40.125,-27.9375,163.6875,0
1776974154.72,9.7588,1.8483,4.0223,-0.7125,0.4237,0.198,-78.6,7.65,40.65,9.809,0.1221,1.901,-0.2731,0.7296,1.1938,-60.75,3.9,32.55,-3.99,-1.91,-9.29,0.0589,-0.108,0.0676,39.875,23.5,6.375,40.125,-27.9375,163.6875,0
1776974154.725,9.7588,1.8483,4.0223,-0.7125,0.4237,0.198,-78.6,7.65,40.65,9.9407,-0.3448,1.8842,-0.2731,0.7296,1.1938,-60.75,2.7,33.3,-3.99,-1.91,-9.29,0.0949,-0.1669,0.0567,39.875,23.5,6.375,40.125,-28.0,163.625,0
1776974154.73,9.8593,1.5921,3.3567,-0.5569,0.3896,0.1482,-78.6,7.65,40.65,9.9407,-0.3448,1.8842,-0.3331,0.7869,1.234,-60.75,2.7,33.3,-4.38,-2.31,-8.84,0.0949,-0.1669,0.0567,39.875,23.5,6.375,40.1875,-28.1875,163.5625,0
1776974154.739,10.1634,1.221,2.6983,-0.4194,0.4501,0.0893,-78.6,7.65,40.65,10.0437,-0.5842,2.6719,-0.3797,0.8868,1.2806,-59.55,2.7,34.8,-4.43,-2.26,-8.88,0.1625,-0.2629,0.084,39.875,23.5,6.375,40.25,-28.375,163.4375,0
1776974154.749,10.9559,0.972,2.2769,-0.3557,0.4698,0.049,-79.65,6.9,39.3,10.5848,-0.9529,2.5019,-0.4322,0.9046,1.3166,-59.55,2.7,34.8,-4.22,-2.46,-9.05,0.2083,-0.3131,0.084,39.875,23.5,6.375,40.25,-28.375,163.4375,0
1776974154.759,10.8386,0.7015,2.0806,-0.2955,0.4892,0.012,-77.7,5.25,40.5,11.0804,-1.0056,2.3727,-0.4298,0.8918,1.3456,-60.3,1.05,34.35,-4.03,-2.63,-9.37,0.2553,-0.4025,0.0993,39.875,23.5,6.375,40.3125,-28.5625,163.3125,0
1776974154.764,10.8386,0.7015,2.0806,-0.2955,0.4892,0.012,-77.7,5.25,40.5,11.3485,-1.2905,1.6352,-0.4298,0.8918,1.3456,-60.3,1.05,34.35,-4.03,-2.63,-9.37,0.2553,-0.4025,0.0993,39.875,23.5,6.375,40.3125,-28.5625,163.3125,0
1776974154.769,10.9654,0.6991,1.6927,-0.2619,0.3944,-0.0024,-76.65,6.75,40.95,11.3485,-1.2905,1.6352,-0.4514,0.8519,1.3704,-60.3,1.05,34.35,-4.01,-2.58,-9.47,0.2825,-0.5421,0.1331,40.1875,22.75,7.1875,40.375,-28.875,163.125,0
1776974154.774,10.9654,0.6991,1.6927,-0.2619,0.3944,-0.0024,-76.65,6.75,40.95,11.1785,-1.2474,1.4389,-0.5255,0.8439,1.3968,-58.95,-0.15,35.25,-4.01,-2.58,-9.47,0.2825,-0.5421,0.1331,40.1875,22.75,7.1875,40.375,-28.875,163.125,0
1776974154.779,11.0899,1.0487,1.1181,-0.3515,0.288,-0.0179,-76.2,5.25,38.7,11.1785,-1.2474,1.4389,-0.5255,0.8439,1.3968,-58.95,-0.15,35.25,-4.19,-2.67,-9.39,0.3142,-0.6905,0.1593,40.1875,22.75,7.1875,40.4375,-29.3125,162.9375,0
1776974154.784,11.0899,1.0487,1.1181,-0.3515,0.288,-0.0179,-76.2,5.25,38.7,11.1163,-1.0463,1.1732,-0.6414,0.8918,1.4466,-57.45,-1.65,33.75,-4.19,-2.67,-9.39,0.3829,-0.8214,0.1811,40.1875,22.75,7.1875,40.5625,-29.75,162.6875,0
1776974154.79,10.9822,1.8196,0.5028,-0.5009,0.1951,-0.0626,-76.2,5.25,38.7,11.1163,-1.0463,1.1732,-0.6414,0.8918,1.4466,-57.45,-1.65,33.75,-3.96,-2.65,-9.65,0.3829,-0.8214,0.1811,40.1875,22.75,7.1875,40.625,-30.3125,162.4375,0
1776974154.799,10.8026,2.8659,0.0934,-0.7168,0.0541,-0.1431,-76.65,4.05,38.4,11.2695,-0.3663,1.0846,-0.7754,0.9619,1.5127,-58.2,-2.4,35.7,-4.01,-2.22,-9.6,0.4342,-0.9861,0.2051,40.1875,22.75,7.1875,40.625,-30.3125,162.4375,0
1776974154.809,10.4866,4.1228,0.0287,-0.9523,-0.0648,-0.2545,-76.95,2.25,38.4,11.5377,0.7278,0.5555,-0.8023,1.024,1.6092,-57.6,-2.25,35.55,-3.98,-2.28,-9.66,0.4691,-1.2075,0.252,40.1875,22.75,7.1875,40.75,-31.0,162.125,0
1776974154.814,10.4866,4.1228,0.0287,-1.1415,-0.2747,-0.421,-76.95,2.25,38.4,12.0141,1.798,0.1197,-0.8799,1.1186,1.7187,-57.6,-2.25,35.55,-3.98,-2.28,-9.66,0.4691,-1.2075,0.252,40.1875,22.75,7.1875,40.9375,-31.8125,161.75,0
1776974154.819,10.6446,5.1954,-0.2274,-1.1415,-0.2747,-0.421,-77.1,2.7,37.8,12.0141,1.798,0.1197,-0.8799,1.1186,1.7187,-57.6,-2.25,35.55,-3.49,-2.65,-10.42,0.5585,-1.4573,0.3098,41.375,23.5,6.0,40.9375,-31.8125,161.75,0
1776974154.824,10.7667,6.2034,-0.5962,-1.2236,-0.4572,-0.6257,-77.1,2.7,37.8,12.8617,2.7533,0.0958,-1.0112,1.2057,1.8423,-58.2,-5.25,35.25,-3.49,-2.65,-10.42,0.5585,-1.4573,0.3098,41.375,23.5,6.0,40.9375,-31.8125,161.75,0
1776974154.829,10.7667,6.2034,-0.5962,-1.2236,-0.4572,-0.6257,-77.1,2.7,39.0,12.8617,2.7533,0.0958,-1.0112,1.2057,1.8423,-58.2,-5.25,35.25,-3.41,-2.17,-10.32,0.5541,-1.7911,0.4222,41.375,23.5,6.0,41.0625,-32.8125,161.375,0
1776974154.838,10.7931,7.5202,-0.9457,-1.2007,-0.7522,-0.8583,-77.1,2.7,39.0,14.109,3.5721,-0.7015,-0.967,1.2761,2.0624,-58.2,-5.25,35.25,-3.19,-2.63,-10.85,0.6021,-2.1631,0.5607,41.375,23.5,6.0,41.3125,-34.0625,161.0,0
1776974154.842,10.7931,7.5202,-0.9457,-1.2007,-0.7522,-0.8583,-77.1,2.7,39.0,15.5408,4.2018,-2.1691,-0.9238,1.3179,2.3438,-58.2,-5.25,35.25,-3.19,-2.63,-10.85,0.6021,-2.1631,0.5607,41.375,23.5,6.0,41.625,-35.5625,160.5,0
1776974154.85,10.4052,7.9128,-1.6352,-1.0046,-1.0685,-1.1074,-77.1,2.7,39.0,16.4003,4.0103,-3.4381,-0.9238,1.3179,2.3438,-56.1,-4.95,35.85,-3.07,-2.69,-11.1,0.769,-2.6071,0.7407,41.375,23.5,6.0,42.0625,-37.375,160.0,0
1776974154.86,10.9535,7.7405,0.8978,-0.4183,-1.1724,-1.332,-79.35,4.2,37.2,16.5751,2.1093,-4.8985,-1.0272,1.3472,2.5639,-54.75,-6.45,35.7,-2.33,-4.04,-11.65,0.8083,-3.086,0.937,41.375,23.5,6.0,42.0625,-37.375,160.0,0
1776974154.864,12.5839,6.4476,-1.0319,0.3571,-1.1607,-1.5172,-79.35,4.2,37.2,16.5751,2.1093,-4.8985,-1.2191,1.3278,2.6484,-54.15,-8.1,37.35,-2.33,-4.04,-11.65,0.8083,-3.086,0.937,41.375,23.5,6.0,42.5625,-39.5,159.4375,0
1776974154.87,12.5839,6.4476,-1.0319,0.3571,-1.1607,-1.5172,-84.6,4.05,36.6,15.6054,1.5203,-4.628,-1.2191,1.3278,2.6484,-54.15,-8.1,37.35,-2.05,-4.79,-11.95,0.8814,-3.6521,1.1912,42.375,22.5,3.6875,42.5625,-39.5,159.4375,0
1776974154.874,12.7156,3.9648,-3.3926,0.943,-1.5529,-1.715,-84.6,4.05,36.6,15.6054,1.5203,-4.628,-1.2191,1.4069,2.5791,-54.75,-9.9,37.2,-2.05,-4.79,-11.95,0.8814,-3.6521,1.1912,42.375,22.5,3.6875,42.5625,-39.5,159.4375,0
1776974154.879,12.7156,3.9648,-3.3926,0.943,-1.5529,-1.715,-83.7,5.7,36.15,14.5304,0.2346,-4.6783,-1.396,1.5116,2.477,-54.75,-9.9,37.2,-1.99,-6.2,-11.79,0.8694,-4.275,1.5043,42.375,22.5,3.6875,86.6875,-42.0,158.875,0
1776974154.884,11.2408,3.5123,-0.0383,1.6851,-2.0376,-1.5729,-83.7,5.7,36.15,14.5304,0.2346,-4.6783,-1.396,1.5116,2.477,-53.4,-13.95,37.65,-1.99,-6.2,-11.79,0.7712,-4.9676,1.9242,42.375,22.5,3.6875,84.3125,-44.9375,158.5,0
1776974154.89,11.2408,3.5123,-0.0383,1.6851,-2.0376,-1.5729,-83.1,7.05,35.85,13.5488,-1.5754,-2.0375,-1.5684,1.6366,2.3086,-53.4,-13.95,37.65,-4.53,-5.55,-11.02,0.7712,-4.9676,1.9242,42.375,22.5,3.6875,81.5,-48.375,158.1875,0
1776974154.9,11.0971,3.0454,1.7885,2.9401,-2.0816,-1.4794,-83.1,7.05,35.85,12.4618,-2.727,1.3767,-1.485,1.6489,2.1485,-51.9,-13.95,37.35,-7.69,-5.65,-11.99,0.6414,-5.6821,2.3802,42.375,22.5,3.6875,81.5,-48.375,158.1875,0
1776974154.909,11.5784,1.3886,-0.7805,2.7576,-2.0792,-1.5343,-82.8,7.8,34.2,11.2001,-2.9521,4.3024,-1.2646,1.7147,2.0235,-51.9,-13.95,37.35,-10.56,-4.57,-12.44,0.6196,-6.2821,2.7402,42.375,22.5,3.6875,78.625,-52.1875,158.0,0
1776974154.914,12.7515,0.0168,-1.6616,2.4235,-2.197,-1.6121,-82.8,7.8,34.2,11.2001,-2.9521,4.3024,-1.2646,1.7147,2.0235,-51.9,-16.8,35.85,-10.56,-4.57,-12.44,0.6196,-6.2821,2.7402,42.375,22.5,3.6875,76.0,-56.1875,157.625,0
1776974154.919,12.7515,0.0168,-1.6616,2.4235,-2.197,-1.6121,-83.1,7.8,32.7,10.398,-2.8371,5.8275,-0.9976,1.7373,1.8871,-51.9,-16.8,35.85,-13.82,-7.26,-12.66,0.8388,-6.701,2.8852,45.6875,18.375,-2.0,76.0,-56.1875,157.625,0
1776974154.924,13.8217,-0.6201,-0.2059,1.8911,-2.4056,-1.663,-83.1,7.8,32.7,10.398,-2.8371,5.8275,-0.9976,1.7373,1.8871,-51.0,-16.95,36.0,-13.82,-7.26,-12.66,0.8388,-6.701,2.8852,45.6875,18.375,-2.0,76.0,-56.1875,157.625,0
1776974154.929,13.8217,-0.6201,-0.2059,1.8911,-2.4056,-1.663,-82.35,8.55,30.9,10.3932,-3.1651,5.6455,-0.8351,1.6902,1.7341,-51.0,-16.95,36.0,-14.79,-6.58,-13.1,1.0614,-6.7719,2.8787,45.6875,18.375,-2.0,73.9375,-60.25,157.0625,0
1776974154.935,14.3604,-1.6065,1.9992,1.1471,-2.4765,-1.6385,-82.8,9.75,30.15,10.3932,-3.1651,5.6455,-0.8351,1.6902,1.7341,-49.65,-18.3,35.1,-14.79,-6.58,-13.1,0.9588,-6.593,2.8013,45.6875,18.375,-2.0,72.0625,-64.25,156.5,0
1776974154.94,15.3923,-2.5977,3.6512,0.2982,-2.4363,-1.5668,-82.8,9.75,30.15,10.5153,-3.4644,5.6,-0.4594,1.6523,1.5969,-49.65,-18.3,35.1,-15.76,-6.76,-13.19,0.9588,-6.593,2.8013,45.6875,18.375,-2.0,70.375,-67.9375,156.0625,0
1776974154.95,15.3923,-2.5977,3.6512,-0.5793,-2.2521,-1.452,-82.8,9.75,30.15,10.9654,-4.6495,4.5394,0.1242,1.6006,1.465,-49.5,-20.4,36.45,-11.46,-7.92,-11.37,0.8967,-6.0716,2.6954,45.6875,18.375,-2.0,70.375,-67.9375,156.0625,0
1776974154.96,14.1569,-2.7797,4.3239,-0.5732,-2.0081,-1.4053,-82.05,8.25,29.85,10.4387,-5.5282,5.6048,0.9529,1.6249,1.2289,-48.3,-20.85,36.45,-3.84,-7.83,-10.43,0.6447,-5.5065,2.6944,45.6875,18.375,-2.0,68.75,-71.3125,156.0625,0
1776974154.964,14.4179,-2.9688,4.2449,-0.5732,-2.0081,-1.4053,-82.05,8.25,29.85,10.4387,-5.5282,5.6048,0.9529,1.6249,1.2289,-49.5,-20.85,37.95,-3.84,-7.83,-10.43,0.6447,-5.5065,2.6944,45.6875,18.375,-2.0,68.75,-71.3125,156.0625,0
1776974154.969,12.9718,-3.6105,4.0151,-0.9694,-2.132,-1.2838,-80.55,10.5,28.5,8.6598,-4.3096,8.8226,1.448,1.3688,0.9198,-49.5,-20.85,37.95,0.1,-7.87,-8.64,0.3316,-5.0604,2.7576,50.0625,8.875,-13.0625,67.0,-74.5,156.8125,0
1776974154.974,12.9718,-3.6105,4.0151,-0.9694,-2.132,-1.2838,-80.55,10.5,28.5,8.6598,-4.3096,8.8226,1.448,1.3688,0.9198,-49.5,-20.85,37.95,0.1,-7.87,-8.64,0.3316,-5.0604,2.7576,50.0625,8.875,-13.0625,67.0,-74.5,156.8125,0
1776974154.979,11.892,-3.9361,4.3766,-1.2071,-1.5894,-1.2657,-80.7,13.2,28.95,7.343,-3.9409,7.8793,1.4757,0.7056,0.6219,-49.5,-20.85,37.95,3.16,-7.99,-7.31,-0.0513,-4.8127,2.9551,50.0625,8.875,-13.0625,65.0,-77.625,158.875,0
1776974154.984,11.892,-3.9361,4.3766,-1.2071,-1.5894,-1.2657,-80.7,13.2,28.95,6.0382,-6.438,6.6008,1.4757,0.7056,0.6219,-49.35,-21.45,36.9,3.16,-7.99,-7.31,-0.6654,-4.8193,3.2736,50.0625,8.875,-13.0625,62.5625,-80.6875,163.8125,0
1776974154.99,11.4443,-2.6911,3.565,-1.1008,-1.3997,-1.3265,-80.7,10.65,26.1,6.0382,-6.438,6.6008,1.7656,0.1911,0.3142,-49.35,-21.45,36.9,-16.82,-4.36,-9.01,-0.6654,-4.8193,3.2736,50.0625,8.875,-13.0625,59.625,-83.5625,179.4375,0
1776974155.0,11.1713,-0.1053,3.0789,-1.0477,-1.4815,-1.3502,-79.05,11.25,26.25,4.5801,-7.3933,8.4707,2.1365,-0.1013,0.0663,-49.35,-21.45,36.9,-17.02,-5.52,-10.54,-1.4715,-4.5859,3.495,50.0625,8.875,-13.0625,57.4375,-84.9375,-178.9375,0
1776974155.01,11.5568,1.98,2.5929,-1.0629,-1.655,-1.3376,-79.05,11.25,26.25,2.7581,-7.1012,9.3494,1.8093,0.0027,-0.1785,-48.9,-19.5,36.6,-7.56,-4.5,-13.74,-1.0407,-2.6016,2.7718,50.0625,8.875,-13.0625,57.4375,-84.9375,-178.9375,0
1776974155.015,11.5568,1.98,2.5929,-1.0629,-1.655,-1.3376,-78.0,11.55,25.2,1.9249,-6.0382,7.9847,1.157,-0.0245,-0.4674,-48.9,-17.55,1.2,-7.56,-4.5,-13.74,-1.0407,-2.6016,2.7718,50.0625,8.875,-13.0625,56.4375,-84.625,-178.0,0
1776974155.02,9.8497,2.9712,2.0638,-0.9769,-1.8082,-1.3107,-78.0,11.55,25.2,1.9249,-6.0382,7.9847,1.157,-0.0245,-0.4674,-48.9,-17.55,39.6,-3.2,-5.09,-10.0,-0.1724,0.0698,1.6013,50.75,1.25,-19.1875,56.4375,-84.625,-178.0,0
1776974155.025,9.8497,2.9712,2.0638,-0.9769,-1.8082,-1.3107,-77.55,13.65,24.3,2.9784,-5.0518,5.9137,0.2926,-0.3632,-0.7618,-50.25,-18.15,38.25,-3.2,-5.09,-10.0,-0.1724,0.0698,1.6013,50.75,1.25,-19.1875,56.375,-83.5625,-177.75,0
1776974155.03,10.2544,3.5817,2.1021,-0.9164,-1.4791,-1.3315,-77.55,13.65,24.3,2.9784,-5.0518,5.9137,0.2926,-0.3632,-0.7618,-50.25,-18.15,38.25,0.5,-5.27,-7.11,0.4003,1.8162,0.577,50.75,1.25,-19.1875,56.375,-83.5625,-177.75,0
1776974155.038,9.481,4.5442,2.0207,-0.5772,-1.3709,-1.3989,-77.85,14.7,24.0,4.1755,-4.197,4.8554,-0.3792,-0.7101,-1.0792,-49.8,-16.95,38.55,1.72,-5.13,-5.61,0.7876,2.7216,-0.1265,50.75,1.25,-19.1875,56.875,-82.1875,-164.125,0
1776974155.043,9.481,4.5442,2.0207,-0.5772,-1.3709,-1.3989,-77.85,14.7,24.0,4.446,-4.051,4.3838,-0.5748,-1.158,-1.303,-49.8,-16.95,38.55,1.72,-5.13,-5.61,0.7876,2.7216,-0.1265,50.75,1.25,-19.1875,57.6875,-80.5625,-169.25,0
1776974155.05,9.0621,4.8195,1.7023,-0.2467,-0.9643,-1.5143,-78.45,13.8,25.2,4.446,-4.051,4.3838,-0.5748,-1.158,-1.303,-51.15,-17.55,35.1,1.19,-4.89,-4.87,0.8868,3.0958,-0.5705,50.75,1.25,-19.1875,58.625,-78.875,-173.9375,0
1776974155.06,8.6335,4.5107,1.6688,0.0027,-0.7501,-1.5852,-78.45,13.8,25.2,4.1132,-3.8092,4.1827,-0.4066,-1.4202,-1.4711,-50.85,-14.85,35.55,0.21,-5.52,-3.78,0.7789,3.2463,-0.9174,50.75,1.25,-19.1875,58.625,-78.875,-173.9375,0
1776974155.065,8.6335,4.5107,1.6688,0.0027,-0.7501,-1.5852,-78.6,16.2,26.1,3.5147,-3.0382,3.9576,-0.1447,-1.6515,-1.6206,-50.85,-14.85,35.55,0.21,-5.52,-3.78,0.7789,3.2463,-0.9174,50.75,1.25,-19.1875,59.5625,-77.0,-178.6875,0
1776974155.07,8.8633,3.5889,1.4293,0.1745,-0.6139,-1.5516,-78.6,16.2,26.1,3.5147,-3.0382,3.9576,-0.1447,-1.6515,-1.6206,-50.85,-14.85,35.55,0.14,-5.8,-3.59,0.1614,3.4459,-1.573,54.5,-6.0625,-13.375,59.5625,-77.0,-178.6875,0
1776974155.075,8.8633,3.5889,1.4293,0.1745,-0.6139,-1.5516,-80.55,17.25,25.65,3.134,-2.5666,3.5458,-0.1572,-1.8969,-1.8274,-50.85,-14.85,35.55,0.14,-5.8,-3.59,0.1614,3.4459,-1.573,54.5,-6.0625,-13.375,59.5625,-77.0,-178.6875,0
1776974155.08,8.157,2.7294,1.913,0.3419,-0.5225,-1.448,-80.55,17.25,25.65,3.134,-2.5666,3.5458,-0.1572,-1.8969,-1.8274,-53.4,-14.4,33.6,-0.1,-5.9,-3.6,0.1614,3.4459,-1.573,54.5,-6.0625,-13.375,60.5625,-75.125,177.6875,0
1776974155.085,8.157,2.7294,1.913,0.3419,-0.5225,-1.448,-79.5,18.3,26.7,2.6145,-1.0199,4.9129,0.0077,-2.1677,-1.9851,-53.4,-14.4,33.6,-0.1,-5.9,-3.6,-0.2771,3.4852,-1.9002,54.5,-6.0625,-13.375,61.5,-73.125,174.625,0
1776974155.091,7.6902,2.3631,1.9489,0.474,-0.5095,-1.3291,-79.5,18.3,26.7,2.9736,-1.166,2.6384,-0.2795,-2.3569,-2.0757,-54.0,-13.05,32.7,-2.48,-4.56,-5.04,-0.2771,3.4852,-1.9002,54.5,-6.0625,-13.375,62.3125,-71.0,171.875,0
1776974155.1,7.3239,1.7526,2.296,0.5199,-0.3722,-1.2313,-79.35,17.7,27.15,3.2968,-2.5331,2.9066,-0.2795,-2.3569,-2.0757,-57.0,-13.8,32.4,-4.13,-3.6,-5.53,-0.6861,3.4874,-2.2515,54.5,-6.0625,-13.375,62.3125,-71.0,171.875,0
1776974155.11,6.7493,1.3001,3.1795,0.551,-0.1292,-1.0933,-81.3,18.3,27.0,4.288,-2.6935,4.8459,0.6616,-2.1416,-2.388,-57.6,-11.7,30.3,-3.99,-3.67,-5.91,-0.9937,3.7874,-3.0467,54.5,-6.0625,-13.375,63.375,-68.6875,168.8125,0
1776974155.115,6.541,1.0175,3.4477,0.7104,0.0187,-0.9196,-81.3,18.3,27.0,4.288,-2.6935,4.8459,0.6616,-2.1416,-2.388,-57.6,-11.7,30.3,-3.99,-3.67,-5.91,-0.9937,3.7874,-3.0467,54.5,-6.0625,-13.375,63.375,-68.6875,168.8125,0
1776974155.12,6.541,1.0175,3.4477,0.7104,0.0187,-0.9196,-81.3,18.3,27.0,5.5641,-2.3679,4.5514,0.9979,-2.3358,-2.4794,-57.0,-9.45,30.9,-4.18,-1.72,-6.47,-0.9621,3.9935,-3.2878,60.1875,-5.1875,3.0,64.75,-66.125,166.1875,0
1776974155.125,6.2034,0.6201,3.1675,0.651,-0.0789,-0.737,-80.7,21.15,27.15,5.5641,-2.3679,4.5514,0.9979,-2.3358,-2.4794,-57.0,-9.45,30.9,-4.18,-1.72,-6.47,-0.9621,3.9935,-3.2878,60.1875,-5.1875,3.0,64.75,-66.125,166.1875,0
1776974155.13,6.2034,0.6201,3.1675,0.651,-0.0789,-0.737,-80.7,21.15,27.15,6.5673,-2.1811,3.9361,0.9337,-2.4544,-2.5604,-58.35,-8.1,28.5,-4.22,-0.99,-6.35,-0.7887,4.2291,-3.4208,60.1875,-5.1875,3.0,66.375,-63.375,164.0625,0
1776974155.138,6.2082,0.5507,2.7845,0.732,-0.0898,-0.5817,-81.6,19.5,26.7,7.7261,-2.5163,3.9385,0.9337,-2.4544,-2.5604,-58.35,-8.1,28.5,-3.94,-0.29,-6.31,-0.492,4.4255,-3.4285,60.1875,-5.1875,3.0,68.4375,-60.4375,162.25,0
1776974155.143,6.2082,0.5507,2.7845,0.732,-0.0898,-0.5817,-81.45,19.65,27.6,7.7261,-2.5163,3.9385,0.6952,-2.7126,-2.6092,-58.35,-8.1,28.5,-3.94,-0.29,-6.31,-0.492,4.4255,-3.4285,60.1875,-5.1875,3.0,71.0,-57.5,160.75,0
1776974155.15,6.0094,0.4286,2.4588,0.8617,-0.0608,-0.4469,-81.45,19.65,27.6,8.09,-2.7246,4.3981,0.4389,-2.8573,-2.7243,-61.2,-8.4,27.15,-4.06,0.04,-6.51,-0.1058,4.5106,-3.2725,60.1875,-5.1875,3.0,73.875,-54.625,159.5625,0
1776974155.16,6.0142,0.4717,2.1356,1.0142,0.0863,-0.3656,-81.45,22.2,27.15,8.0325,-3.4788,4.3455,0.4652,-2.9783,-2.9268,-64.05,-6.6,26.55,-5.6,-1.03,-7.46,0.264,4.5291,-2.918,60.1875,-5.1875,3.0,73.875,-54.625,159.5625,0
1776974155.165,6.0286,0.4717,1.8124,1.181,0.2942,-0.2467,-81.45,22.2,27.15,8.0325,-3.4788,4.3455,0.4652,-2.9783,-2.9268,-64.05,-6.6,26.55,-5.6,-1.03,-7.46,0.264,4.5291,-2.918,60.1875,-5.1875,3.0,76.9375,-51.8125,158.875,0
1776974155.17,6.0286,0.4717,1.8124,1.181,0.2942,-0.2467,-81.45,22.2,27.15,7.3119,-3.45,4.695,0.6819,-3.221,-3.0728,-63.75,-5.4,25.5,-6.65,-1.65,-8.11,0.5378,4.5422,-2.3551,63.5,4.75,22.25,76.9375,-51.8125,158.875,0
1776974155.175,6.6463,0.2322,1.2546,1.3355,0.4522,-0.1399,-81.15,21.15,25.8,7.3119,-3.45,4.695,0.6819,-3.221,-3.0728,-63.75,-5.4,25.5,-6.65,-1.65,-8.11,0.5378,4.5422,-2.3551,63.5,4.75,22.25,76.9375,-51.8125,158.875,0
1776974155.18,6.6463,0.2322,1.2546,1.3355,0.4522,-0.1399,-81.15,21.15,25.8,7.1515,-3.0191,3.881,0.8268,-3.2711,-3.1448,-62.7,-4.5,23.1,-7.16,-1.91,-8.31,0.684,4.5826,-1.7093,63.5,4.75,22.25,80.0625,-49.0625,158.5,0
1776974155.184,6.9336,-0.1173,0.9649,1.4083,0.4325,-0.057,-80.4,23.4,26.1,7.1515,-3.0191,3.881,0.8268,-3.2711,-3.1448,-62.7,-4.5,23.1,-7.16,-1.91,-8.31,0.7494,4.5586,-1.0865,63.5,4.75,22.25,83.125,-46.5,158.5,0
1776974155.191,6.9336,-0.1173,0.9649,1.4083,0.4325,-0.057,-80.55,23.4,26.1,7.8506,-3.2609,3.2226,0.7584,-3.1512,-3.1912,-65.85,-2.4,24.15,-7.91,-2.49,-8.94,0.7494,4.5586,-1.0865,63.5,4.75,22.25,86.125,-44.0625,158.6875,0
1776974155.2,7.4196,-0.5315,0.4022,1.5194,0.3672,0.0077,-80.55,22.5,26.25,9.0549,-3.8427,3.1891,0.563,-3.0702,-3.246,-65.4,-1.65,20.85,-8.42,-2.43,-9.27,0.7767,4.4789,-0.5563,63.5,4.75,22.25,86.125,-44.0625,158.6875,0
1776974155.21,7.6782,-0.8499,-0.0431,1.5439,0.2449,0.064,-81.9,23.7,26.4,10.3573,-5.5162,4.5107,0.2907,-3.1062,-3.2631,-65.4,-1.65,20.85,-8.61,-2.83,-9.57,0.8716,4.3731,-0.2258,63.5,4.75,22.25,89.3125,-41.75,158.9375,0
1776974155.215,7.7644,-1.2785,-0.4453,1.5532,0.1644,0.1212,-81.45,23.4,26.1,11.0995,-6.3279,5.4468,0.2907,-3.1062,-3.2631,-65.4,-1.65,20.85,-8.61,-2.83,-9.57,0.8716,4.3731,-0.2258,63.5,4.75,22.25,89.3125,-41.75,158.9375,0
1776974155.22,7.7644,-1.2785,-0.4453,1.5532,0.1644,0.1212,-81.45,23.4,26.1,11.0995,-6.3279,5.4468,-0.1202,-3.1962,-3.2695,-67.5,1.05,18.75,-8.91,-3.76,-10.03,1.0199,4.2793,-0.1004,54.5,17.25,50.375,46.125,-39.5625,159.0625,0
1776974155.225,7.8554,-1.2881,-0.6297,1.4418,0.1268,0.194,-81.45,23.4,26.1,11.0085,-6.1699,4.8387,-0.1202,-3.1962,-3.2695,-67.5,1.05,18.75,-8.91,-3.76,-10.03,1.0199,4.2793,-0.1004,54.5,17.25,50.375,46.125,-39.5625,159.0625,0
1776974155.23,7.8554,-1.2881,-0.6297,1.4418,0.1268,0.194,-81.45,23.4,26.1,11.0085,-6.1699,4.8387,-0.7605,-3.2716,-3.3108,-67.5,1.05,18.75,-10.04,-5.76,-10.81,1.1454,4.2226,-0.1233,54.5,17.25,50.375,46.625,-37.3125,159.0,0
1776974155.237,7.9535,-1.2641,-0.5794,1.274,0.0282,0.2526,-81.3,24.75,25.65,10.477,-5.3008,4.3072,-1.2132,-3.1999,-3.379,-66.9,2.1,16.35,-10.64,-6.47,-10.97,1.2185,4.2041,-0.2596,54.5,17.25,50.375,47.125,-35.125,158.875,0
1776974155.242,8.1163,-0.9361,-0.4645,0.9816,-0.0456,0.3038,-82.8,25.5,24.45,10.477,-5.3008,4.3072,-1.2132,-3.1999,-3.379,-66.9,2.1,16.35,-10.64,-6.47,-10.97,1.2185,4.2041,-0.2596,54.5,17.25,50.375,47.5,-32.875,158.5625,0
1776974155.251,7.8673,-0.2849,-0.5602,0.6273,-0.1356,0.3131,-83.1,25.8,24.9,10.4028,-4.0247,3.2274,-1.5524,-3.0158,-3.455,-66.75,2.7,15.9,-11.07,-6.46,-10.79,1.2785,4.1713,-0.4756,54.5,17.25,50.375,47.6875,-30.625,158.0625,0
1776974155.26,7.7572,0.6871,-0.8092,0.2385,-0.1271,0.3086,-81.9,25.65,24.3,10.0341,-2.909,2.885,-1.534,-2.8757,-3.5154,-68.1,5.55,13.05,-10.32,-6.3,-10.88,1.3832,4.0208,-0.7189,54.5,17.25,50.375,47.6875,-30.625,158.0625,0
1776974155.265,7.7572,0.6871,-0.8092,0.2385,-0.1271,0.3086,-81.9,25.65,24.3,10.4148,-1.1827,2.466,-1.347,-2.6926,-3.4736,-68.1,5.55,13.05,-10.32,-6.3,-10.88,1.3832,4.0208,-0.7189,54.5,17.25,50.375,47.75,-28.5,157.375,0
1776974155.27,7.8314,1.6592,-1.0343,-0.2121,-0.3104,0.3174,-81.9,25.65,24.3,10.4148,-1.1827,2.466,-1.347,-2.6926,-3.4736,-68.25,7.35,12.15,-10.96,-5.86,-9.58,1.5141,3.7535,-0.9817,21.25,22.25,58.5,47.75,-28.5,157.375,0
1776974155.275,7.8314,1.6592,-1.0343,-0.2121,-0.3104,0.3174,-81.9,25.65,24.3,10.2472,-0.34,2.2218,-0.8942,-2.6001,-3.4043,-68.25,7.35,12.15,-10.96,-5.86,-9.58,1.5141,3.7535,-0.9817,21.25,22.25,58.5,47.625,-26.5,156.5625,0
1776974155.28,7.8578,2.4684,-1.4964,-0.7922,-0.3307,0.3211,-82.95,24.15,24.0,10.2472,-0.34,2.2218,-0.8942,-2.6001,-3.4043,-68.25,8.1,10.65,-12.25,-5.95,-10.83,1.5882,3.327,-1.2283,21.25,22.25,58.5,47.625,-26.5,156.5625,0
1776974155.285,7.8578,2.4684,-1.4964,-0.7922,-0.3307,0.3211,-82.95,24.15,24.0,9.6271,0.2873,2.399,-0.5287,-2.4179,-3.2428,-68.25,8.1,10.65,-12.25,-5.95,-10.83,1.7115,3.3281,-1.5544,21.25,22.25,58.5,47.375,-24.5,155.5625,0
1776974155.291,7.8171,3.2513,-1.7957,-1.2377,-0.2022,0.2926,-81.3,25.05,23.4,9.6271,0.2873,2.399,-0.5287,-2.4179,-3.2428,-66.6,8.4,10.8,-12.38,-5.51,-10.9,1.7115,3.3281,-1.5544,21.25,22.25,58.5,46.9375,-22.5,154.5625,0
1776974155.3,9.8114,4.3383,-2.5522,-1.4386,-0.1228,0.3048,-81.0,24.3,25.2,9.7755,0.3089,2.5977,-0.2523,-2.2727,-3.088,-66.6,8.4,10.8,-12.48,-4.93,-10.84,1.6886,3.1547,-1.8588,21.25,22.25,58.5,46.9375,-22.5,154.5625,0
1776974155.311,8.3869,5.1451,-2.1691,-1.6398,-0.1761,0.2801,-81.6,22.8,22.8,10.5943,0.5052,2.2098,-0.1796,-2.1301,-2.9007,-66.9,12.6,8.7,-12.17,-4.43,-10.56,1.7213,3.0969,-2.1489,21.25,22.25,58.5,46.3125,-20.375,153.5,0
1776974155.316,8.3869,5.1451,-2.1691,-1.6398,-0.1761,0.2801,-81.6,22.8,22.8,10.5943,0.5052,2.2098,-0.1151,-2.0723,-2.7166,-66.9,12.6,8.7,-12.17,-4.43,-10.56,1.7213,3.0969,-2.1489,17.1875,17.0625,42.1875,45.5625,-18.3125,152.375,0
1776974155.321,8.5712,6.2034,-2.7773,-1.6403,0.056,0.3163,-81.6,22.8,22.8,10.3046,0.5076,1.7334,-0.1151,-2.0723,-2.7166,-66.9,13.05,7.5,-11.84,-4.34,-10.08,1.7159,2.9976,-2.3627,17.1875,17.0625,42.1875,45.5625,-18.3125,152.375,0
1776974155.326,8.5712,6.2034,-2.7773,-1.6403,0.056,0.3163,-81.6,22.8,22.8,10.3046,0.5076,1.7334,-0.1556,-2.0414,-2.5671,-66.9,13.05,7.5,-11.84,-4.34,-10.08,1.7159,2.9976,-2.3627,17.1875,17.0625,42.1875,44.6875,-16.3125,151.3125,0
1776974155.331,9.232,7.5776,-3.3854,-1.509,0.1482,0.3488,-81.6,22.8,22.8,9.9383,0.2442,1.0511,-0.0991,-1.9228,-2.4118,-65.1,13.8,7.5,-11.99,-4.17,-8.78,1.633,2.8482,-2.4773,17.1875,17.0625,42.1875,43.8125,-14.3125,150.375,0
1776974155.34,9.9192,8.9519,-3.7517,-1.1077,0.2089,0.4069,-79.05,23.25,24.15,9.2895,0.2849,1.4293,-0.0991,-1.9228,-2.4118,-66.3,15.15,6.9,-12.55,-4.32,-8.1,1.5108,2.7085,-2.5078,17.1875,17.0625,42.1875,43.8125,-14.3125,150.375,0
1776974155.35,9.7755,10.0173,-3.7373,-0.676,-0.0091,0.4791,-78.15,22.95,24.3,8.9663,0.4142,1.2737,0.2356,-1.4666,-2.0206,-66.0,16.35,6.6,-13.18,-4.17,-7.52,1.3101,2.5667,-2.4762,17.1875,17.0625,42.1875,42.9375,-12.375,149.5,0
1776974155.36,9.6055,10.161,-3.5889,-0.2129,0.0749,0.5473,-79.5,21.3,24.15,8.9376,0.6273,0.9361,0.2369,-1.1495,-1.793,-66.3,18.0,4.05,-13.94,-2.84,-6.1,1.069,2.4249,-2.3998,17.1875,17.0625,42.1875,42.0,-10.5625,148.8125,0
1776974155.365,9.6055,10.161,-3.5889,-0.2129,0.0749,0.5473,-79.5,21.3,24.15,8.9376,0.6273,0.9361,0.2369,-1.1495,-1.793,-66.3,18.0,4.05,-13.94,-2.84,-6.1,1.069,2.4249,-2.3998,17.1875,17.0625,42.1875,42.0,-10.5625,148.8125,0
1776974155.37,9.5648,9.7181,-3.4884,0.2705,0.3413,0.5846,-79.8,22.8,24.9,9.1746,0.7446,0.3998,0.1945,-0.911,-1.5471,-66.3,18.0,4.05,-14.14,-1.72,-5.28,0.8748,2.2646,-2.294,20.6875,23.5625,45.5625,41.125,-8.8125,148.25,0
1776974155.375,9.5648,9.7181,-3.4884,0.2705,0.3413,0.5846,-79.8,22.8,24.9,9.1746,0.7446,0.3998,0.1945,-0.911,-1.5471,-66.3,18.0,4.05,-14.14,-1.72,-5.28,0.8748,2.2646,-2.294,20.6875,23.5625,45.5625,41.125,-8.8125,148.25,0
1776974155.38,9.2464,8.7293,-3.0526,0.8076,0.3416,0.5449,-79.8,22.8,24.9,8.9783,0.7877,0.3041,0.1809,-0.7314,-1.246,-66.3,18.3,5.55,-14.49,-0.57,-4.26,0.7865,2.0366,-2.1729,20.6875,23.5625,45.5625,40.3125,-7.1875,147.75,0
1776974155.385,9.2464,8.7293,-3.0526,1.1863,0.3315,0.4285,-79.8,22.8,24.9,8.9783,0.7877,0.3041,0.1809,-0.7314,-1.246,-66.3,18.3,5.55,-14.49,-0.57,-4.26,0.7647,1.7224,-2.0399,20.6875,23.5625,45.5625,39.4375,-5.8125,147.3125,0
1776974155.391,9.1195,7.5465,-2.2314,1.1863,0.3315,0.4285,-79.8,25.5,24.45,8.0852,0.9984,-0.103,0.1929,-0.5668,-0.8884,-66.3,18.3,5.55,-15.78,0.96,-1.97,0.7647,1.7224,-2.0399,20.6875,23.5625,45.5625,38.6875,-4.625,146.8125,0
1776974155.401,8.9304,7.1419,-1.9154,1.4392,0.3706,0.3616,-79.35,23.7,23.55,6.79,1.0223,-0.68,0.2651,-0.3104,-0.4986,-66.3,19.95,4.05,-16.74,1.49,-0.62,0.7658,1.3624,-1.8795,20.6875,23.5625,45.5625,38.6875,-4.625,146.8125,0
1776974155.41,9.0692,7.331,-1.7885,1.5652,0.5518,0.2555,-79.65,25.65,23.55,5.7676,1.0151,-0.6536,0.3965,0.089,-0.0989,-65.25,19.5,4.8,-17.49,1.99,0.71,0.7559,0.9556,-1.6712,20.6875,23.5625,45.5625,37.875,-3.625,146.375,0
1776974155.415,8.7149,7.58,-1.8627,1.7016,0.6555,0.2326,-79.65,25.65,23.55,5.7676,1.0151,-0.6536,0.3965,0.089,-0.0989,-65.25,19.5,4.8,-17.49,1.99,0.71,0.7559,0.9556,-1.6712,20.6875,23.5625,45.5625,37.875,-3.625,146.375,0
1776974155.42,8.7149,7.58,-1.8627,1.7016,0.6555,0.2326,-79.05,23.55,24.15,5.6192,0.644,0.3567,0.5963,0.5415,0.3003,-66.15,20.4,4.95,-17.85,2.93,1.65,0.7723,0.492,-1.4235,14.0625,32.0625,48.0,37.1875,-3.0,145.9375,0
1776974155.425,8.26,7.0797,-1.9489,1.8005,0.6169,0.3027,-79.05,23.55,24.15,5.6192,0.644,0.3567,0.5963,0.5415,0.3003,-66.15,20.4,4.95,-17.85,2.93,1.65,0.7723,0.492,-1.4235,14.0625,32.0625,48.0,37.1875,-3.0,145.9375,0
1776974155.43,8.26,7.0797,-1.9489,1.8005,0.6169,0.3027,-79.05,23.55,24.15,6.7062,0.9337,2.8084,0.8777,1.1146,0.5825,-66.75,19.5,4.35,-10.65,-1.61,-3.32,0.8094,-0.036,-1.2468,14.0625,32.0625,48.0,36.5,-2.625,145.4375,0
1776974155.438,7.9248,6.1866,-1.8603,1.7632,0.6411,0.3635,-79.05,23.55,24.15,8.8753,1.5874,1.7597,1.1618,1.3694,0.8697,-66.75,19.5,4.35,-15.37,-6.13,5.74,-0.7439,-1.645,-1.1465,14.0625,32.0625,48.0,35.625,-3.0,145.8125,0
1776974155.442,7.9248,6.1866,-1.8603,1.7632,0.6411,0.3635,-79.05,23.55,24.15,8.8753,1.5874,1.7597,1.1618,1.3694,0.8697,-66.75,19.5,4.35,-15.37,-6.13,5.74,-0.7439,-1.645,-1.1465,14.0625,32.0625,48.0,34.9375,-4.4375,146.9375,0
1776974155.451,7.8434,4.5681,-1.2953,1.4346,0.6587,0.4002,-80.25,24.0,21.6,9.4691,2.2745,1.4772,1.4357,1.1799,0.992,-68.25,18.0,6.15,-6.27,2.49,3.32,-2.1042,-3.1994,-0.1276,14.0625,32.0625,48.0,34.1875,-5.9375,148.3125,0
1776974155.461,8.2217,2.6336,-0.1006,0.9422,0.9268,0.5905,-80.4,25.2,21.45,10.0963,4.4317,2.1165,1.3387,1.3126,0.6813,-68.25,18.0,6.15,-5.2,-10.87,-12.58,-2.6834,-3.3827,-0.2356,14.0625,32.0625,48.0,34.1875,-5.9375,148.3125,0
1776974155.466,8.5832,0.8475,1.0104,0.4482,1.0794,0.7983,-80.4,25.2,21.45,13.4554,6.4428,-5.8107,0.1386,0.6158,0.1951,-68.25,18.0,6.15,-5.2,-10.87,-12.58,-2.6834,-3.3827,-0.2356,14.0625,32.0625,48.0,33.5,-7.1875,149.375,0
1776974155.471,8.5832,0.8475,1.0104,0.4482,1.0794,0.7983,-79.5,23.55,22.05,13.4554,6.4428,-5.8107,0.1386,0.6158,0.1951,-66.15,19.65,7.95,2.37,-16.07,-11.01,-2.1293,-2.8471,-0.3229,9.5,37.5,47.875,33.5,-7.1875,149.375,0
1776974155.476,8.5856,0.0096,1.5179,-0.0075,0.8868,0.8106,-79.5,23.55,22.05,12.8712,3.9049,-4.6855,0.6235,0.0565,-0.1364,-66.15,19.65,7.95,2.37,-16.07,-11.01,-2.1293,-2.8471,-0.3229,9.5,37.5,47.875,33.4375,-8.625,150.5,0
1776974155.481,8.5856,0.0096,1.5179,-0.0075,0.8868,0.8106,-81.15,23.4,22.2,12.8712,3.9049,-4.6855,0.6235,0.0565,-0.1364,-67.65,17.4,6.0,0.0,-6.95,-7.26,-2.1086,-2.4915,0.6938,9.5,37.5,47.875,33.4375,-8.625,150.5,0
1776974155.486,8.5569,0.0982,0.8404,-0.2665,0.7032,0.7807,-81.15,23.4,22.2,9.4164,-1.0918,-3.7062,1.894,-0.0498,0.0437,-67.65,17.4,6.0,0.0,-6.95,-7.26,-2.3027,-2.5656,1.3155,9.5,37.5,47.875,33.6875,-10.1875,151.75,0
1776974155.491,8.5569,0.0982,0.8404,-0.1074,0.7093,1.008,-81.15,23.4,22.2,9.4164,-1.0918,-3.7062,1.894,-0.0498,0.0437,-66.9,18.45,7.2,-1.92,4.32,-6.93,-2.3027,-2.5656,1.3155,9.5,37.5,47.875,33.75,-11.75,152.5625,0
1776974155.501,10.6303,0.5842,-0.2969,-0.1074,0.7093,1.008,-78.0,22.5,22.05,10.3837,-3.3423,-10.094,1.5924,0.2451,0.4048,-65.55,16.8,7.65,-2.6,5.81,-12.52,-1.5795,-2.7413,0.9185,9.5,37.5,47.875,33.75,-11.75,152.5625,0
1776974155.511,14.5472,0.6416,-1.6855,1.3488,0.2126,1.7427,-78.0,22.5,22.05,13.5703,-2.8994,-8.8322,0.5772,0.8354,0.5905,-68.85,17.7,7.5,-2.79,0.83,-14.32,-0.5487,-3.0631,0.5531,9.5,37.5,47.875,33.625,-13.4375,152.75,0
1776974155.516,17.5471,-0.0503,-3.699,1.3488,0.2126,1.7427,-77.85,21.9,21.15,15.4737,-3.9169,-4.0175,0.6534,1.0112,0.7392,-68.85,17.7,7.5,-2.79,0.83,-14.32,-0.5487,-3.0631,0.5531,9.5,37.5,47.875,33.625,-13.4375,152.75,0
1776974155.521,19.1656,-0.3663,-5.2672,2.4813,0.3022,1.7189,-77.85,21.9,21.15,15.4737,-3.9169,-4.0175,0.6534,1.0112,0.7392,-68.1,16.95,7.5,-6.42,4.54,-15.27,-0.192,-3.3499,1.1225,16.25,36.6875,51.0,33.75,-15.375,152.8125,0
1776974155.526,19.1656,-0.3663,-5.2672,2.4813,0.3022,1.7189,-77.1,21.15,21.45,15.2128,-2.9018,2.1117,0.34,1.3091,0.7946,-68.1,16.95,7.5,-6.42,4.54,-15.27,-0.192,-3.3499,1.1225,16.25,36.6875,51.0,33.75,-15.375,152.8125,0
1776974155.531,20.0131,0.5315,-4.8411,3.4334,0.6827,1.3358,-77.1,21.15,21.45,15.2128,-2.9018,2.1117,0.34,1.3091,0.7946,-68.1,16.95,7.5,-14.89,-11.48,-15.58,-0.0927,-3.2878,1.5293,16.25,36.6875,51.0,34.1875,-17.375,152.8125,0
1776974155.539,20.0131,0.5315,-4.8411,3.4334,0.6827,1.3358,-77.1,21.15,21.45,14.2623,-0.0024,5.0302,-0.4836,1.4989,0.6726,-68.1,16.95,7.5,-16.79,-15.93,-12.08,-0.552,-2.9082,1.9417,16.25,36.6875,51.0,34.8125,-19.3125,153.1875,0
1776974155.544,17.9589,1.6089,-4.6926,3.7382,0.8969,0.7011,-77.1,21.15,21.45,13.8241,1.5969,3.9002,-0.3946,1.506,0.6771,-67.5,16.8,6.15,-16.79,-15.93,-12.08,-0.552,-2.9082,1.9417,16.25,36.6875,51.0,35.375,-20.625,153.75,0
1776974155.551,12.1147,2.2194,-3.7972,3.3217,0.6907,0.1111,-73.8,21.15,19.35,13.1968,2.1404,1.7262,-0.3946,1.506,0.6771,-68.4,16.2,8.7,-9.25,-6.39,-8.6,-0.7701,-1.8664,1.4999,16.25,36.6875,51.0,35.75,-21.4375,154.3125,0
1776974155.561,8.0469,0.2203,-1.3096,1.6915,1.2681,-0.1431,-74.1,21.3,16.65,11.6478,3.9648,1.9034,-0.0149,0.955,0.7589,-68.1,15.45,8.7,-8.8,0.18,-13.14,-0.8159,-1.1366,1.0908,16.25,36.6875,51.0,35.75,-21.4375,154.3125,0
1776974155.566,8.0469,0.2203,-1.3096,1.6915,1.2681,-0.1431,-72.6,21.75,17.7,11.6478,3.9648,1.9034,0.5329,0.4002,0.7605,-68.1,15.45,8.7,-8.8,0.18,-13.14,-0.8159,-1.1366,1.0908,16.25,36.6875,51.0,35.75,-21.4375,154.3125,0
1776974155.571,5.9185,-2.5091,1.3647,-0.3299,1.2918,-0.2212,-72.6,21.75,17.7,9.0956,4.2018,1.1301,0.8505,-0.2832,0.7368,-66.9,13.8,10.05,-5.48,-3.49,-9.32,-0.6512,-0.5727,0.6687,27.6875,35.0625,49.375,35.9375,-21.875,154.75,0
1776974155.576,5.9185,-2.5091,1.3647,-0.3299,1.2918,-0.2212,-73.5,23.4,18.6,9.0956,4.2018,1.1301,0.8505,-0.2832,0.7368,-66.9,13.8,10.05,-5.48,-3.49,-9.32,-0.6512,-0.5727,0.6687,27.6875,35.0625,49.375,35.9375,-21.875,154.75,0
1776974155.581,5.6479,-4.2713,2.9712,-2.0161,1.2772,-0.2726,-73.5,23.4,18.6,6.7756,2.3918,0.8811,0.7957,0.1023,0.7272,-68.25,13.65,10.35,-4.15,-5.22,-8.7,-0.3894,-0.6141,0.4385,27.6875,35.0625,49.375,36.0625,-22.3125,155.0,0
1776974155.586,5.6479,-4.2713,2.9712,-2.0161,1.2772,-0.2726,-73.2,22.2,18.3,6.7756,2.3918,0.8811,0.7957,0.1023,0.7272,-68.25,13.65,10.35,-4.15,-5.22,-8.7,-0.2389,-0.5421,0.3371,27.6875,35.0625,49.375,36.1875,-22.625,155.125,0
1776974155.592,5.6671,-4.786,4.4556,-2.9681,1.4965,-0.2126,-73.2,22.2,18.3,6.8977,0.1748,1.2665,0.7328,0.4514,0.7823,-70.05,14.25,9.3,-5.02,-3.42,-9.12,-0.2389,-0.5421,0.3371,27.6875,35.0625,49.375,36.25,-22.875,155.3125,0
1776974155.601,6.3734,-4.8243,4.4365,-3.1333,1.169,-0.1394,-73.2,22.2,18.3,8.0517,-1.4222,0.2586,0.3659,0.5622,0.7181,-70.05,14.25,9.3,-3.53,-4.5,-8.08,-0.2618,-0.3152,0.2683,27.6875,35.0625,49.375,36.25,-22.875,155.3125,0
1776974155.611,5.9951,-4.525,3.7062,-2.8999,0.5423,0.0693,-73.5,20.4,20.7,8.9016,-1.9728,-0.6919,-0.1327,0.7578,0.5806,-67.5,12.45,11.4,-3.43,-4.18,-7.93,-0.276,-0.348,0.2683,27.6875,35.0625,49.375,36.3125,-23.125,155.5,0
1776974155.616,5.9951,-4.525,3.7062,-2.8999,0.5423,0.0693,-73.65,21.0,22.05,8.9016,-1.9728,-0.6919,-0.1327,0.7578,0.5806,-67.5,12.45,11.4,-3.43,-4.18,-7.93,-0.276,-0.348,0.2683,27.6875,35.0625,49.375,36.4375,-23.3125,155.6875,0
1776974155.621,6.6248,-3.474,2.5115,-2.5314,0.2625,0.4794,-73.65,21.0,22.05,9.2823,-1.3575,-0.9888,-0.4628,0.9662,0.4604,-67.5,12.45,11.4,-3.69,-3.43,-8.33,-0.3033,-0.3414,0.2803,32.1875,33.25,50.5,36.4375,-23.3125,155.6875,0
1776974155.626,6.6248,-3.474,2.5115,-2.5314,0.2625,0.4794,-72.9,18.3,23.1,9.2823,-1.3575,-0.9888,-0.4628,0.9662,0.4604,-67.5,12.45,11.4,-3.69,-3.43,-8.33,-0.3033,-0.3414,0.2803,32.1875,33.25,50.5,36.5,-23.5625,155.9375,0
1776974155.631,7.5489,-1.7909,1.5969,-2.0123,-0.1037,0.9052,-72.9,18.3,23.1,9.4739,0.3017,-0.9577,-0.6182,0.9971,0.4237,-68.85,11.85,12.75,-3.6,-3.62,-8.25,-0.3731,-0.3436,0.2814,32.1875,33.25,50.5,36.5,-23.5625,155.9375,0
1776974155.639,8.8897,0.2227,0.2873,-1.5074,-0.2403,1.194,-75.15,15.3,23.85,9.4691,2.0351,-0.1867,-0.7738,0.951,0.4303,-68.85,11.85,12.75,-3.44,-3.49,-8.21,-0.3916,-0.3829,0.2902,32.1875,33.25,50.5,36.5625,-23.8125,156.1875,0
1776974155.644,8.8897,0.2227,0.2873,-1.5074,-0.2403,1.194,-75.15,15.3,23.85,9.4691,2.0351,-0.1867,-0.7738,0.951,0.4303,-67.35,11.85,12.0,-3.44,-3.49,-8.21,-0.3916,-0.3829,0.2902,32.1875,33.25,50.5,36.625,-24.125,156.375,0
1776974155.652,10.5656,2.3942,-0.6153,-0.8103,-0.1812,1.2673,-75.15,15.3,23.85,9.6295,3.1484,0.2418,-0.8695,0.8609,0.4748,-68.25,12.45,12.15,-3.54,-3.27,-8.28,-0.3447,-0.3982,0.3109,32.1875,33.25,50.5,36.75,-24.375,156.5625,0
1776974155.661,11.6861,4.1061,-1.0846,-0.0506,0.0168,1.1021,-75.45,13.5,22.8,9.6055,3.8116,0.6704,-0.7149,0.7472,0.5545,-68.1,12.3,12.75,-4.18,-3.6,-8.35,-0.3043,-0.384,0.3207,32.1875,33.25,50.5,36.75,-24.375,156.5625,0
1776974155.666,11.4826,5.4109,-0.9409,0.5073,0.3517,0.7861,-75.0,11.4,22.2,9.7276,4.063,0.4956,-0.7149,0.7472,0.5545,-68.1,12.3,12.75,-4.18,-3.6,-8.35,-0.3043,-0.384,0.3207,32.1875,33.25,50.5,36.75,-24.375,156.5625,0
1776974155.671,11.4826,5.4109,-0.9409,0.5073,0.3517,0.7861,-75.0,11.4,22.2,9.7276,4.063,0.4956,-0.3659,0.6334,0.6177,-68.1,12.3,12.75,-4.24,-3.32,-8.51,-0.3174,-0.3262,0.3152,34.0,31.5,51.5625,36.8125,-24.625,156.8125,0
1776974155.676,11.054,6.2991,0.6608,0.9734,0.5947,0.481,-76.05,12.15,22.95,9.7995,3.802,0.3687,-0.3659,0.6334,0.6177,-68.1,12.3,12.75,-4.24,-3.32,-8.51,-0.3174,-0.3262,0.3152,34.0,31.5,51.5625,36.8125,-24.625,156.8125,0
1776974155.681,11.054,6.2991,0.6608,0.9734,0.5947,0.481,-76.05,12.15,22.95,9.7995,3.802,0.3687,0.1215,0.5537,0.623,-68.85,11.4,14.25,-4.29,-3.3,-8.53,-0.3327,-0.2705,0.2902,34.0,31.5,51.5625,36.9375,-24.8125,157.0,0
1776974155.686,9.5936,6.1723,2.2553,1.0778,0.8164,0.2697,-75.15,11.55,21.3,9.8114,2.9137,0.1413,0.1215,0.5537,0.623,-68.85,11.4,14.25,-4.29,-3.3,-8.53,-0.3458,-0.2258,0.2705,34.0,31.5,51.5625,37.0,-25.0,157.25,0
1776974155.692,9.5936,6.1723,2.2553,1.0778,0.8164,0.2697,-75.15,11.55,21.3,9.8114,2.9137,0.1413,0.542,0.5012,0.6171,-68.85,11.4,14.25,-4.38,-3.65,-8.55,-0.3458,-0.2258,0.2705,34.0,31.5,51.5625,37.0625,-25.125,157.5,0
1776974155.701,9.4691,5.4899,3.1795,0.8071,0.8793,0.2076,-74.4,12.3,22.05,9.6702,1.9034,-0.1365,0.8463,0.4511,0.6001,-68.4,11.4,14.85,-4.36,-3.18,-8.65,-0.3534,-0.1833,0.2498,34.0,31.5,51.5625,37.0625,-25.125,157.5,0
1776974155.711,8.8202,4.5059,3.6871,0.4237,0.7469,0.2321,-74.4,12.3,22.05,9.3733,1.1851,0.4214,0.9161,0.4876,0.574,-68.4,11.4,14.85,-4.44,-3.16,-8.67,-0.3589,-0.1604,0.228,34.0,31.5,51.5625,37.125,-25.25,157.75,0
1776974155.716,8.0804,3.2513,3.4381,0.1199,0.7429,0.3142,-75.0,11.4,22.95,9.2177,0.8308,0.6967,0.7397,0.5979,0.5665,-68.4,10.65,13.5,-4.44,-3.16,-8.67,-0.3589,-0.1604,0.228,34.0,31.5,51.5625,37.125,-25.25,157.75,0
1776974155.72,8.0804,3.2513,3.4381,0.1199,0.7429,0.3142,-75.0,11.4,22.95,9.2177,0.8308,0.6967,0.7397,0.5979,0.5665,-68.4,10.65,13.5,-4.29,-3.2,-8.51,-0.3774,-0.1244,0.204,36.875,31.0625,50.75,37.1875,-25.375,158.0,0
1776974155.725,8.7317,2.4708,2.387,0.0133,0.7938,0.4277,-75.15,13.05,24.9,9.3757,0.4884,0.8499,0.4746,0.6448,0.5577,-68.85,11.1,13.05,-4.29,-3.2,-8.51,-0.3774,-0.1244,0.204,36.875,31.0625,50.75,37.1875,-25.375,158.0,0
1776974155.73,8.7317,2.4708,2.387,0.0133,0.7938,0.4277,-75.15,13.05,24.9,9.3757,0.4884,0.8499,0.4746,0.6448,0.5577,-68.85,11.1,13.05,-4.33,-3.12,-8.47,-0.3731,-0.1124,0.1833,36.875,31.0625,50.75,37.25,-25.4375,158.25,0
1776974155.735,7.5729,1.7238,2.0159,0.247,0.5774,0.4871,-75.15,14.25,25.65,9.3805,0.8452,0.8116,0.1609,0.7338,0.5809,-68.85,10.65,14.25,-4.33,-3.12,-8.47,-0.3512,-0.0862,0.1647,36.875,31.0625,50.75,37.3125,-25.5625,158.4375,0
1776974155.742,7.5729,1.7238,2.0159,0.247,0.5774,0.4871,-75.45,15.3,25.95,9.3805,0.8452,0.8116,0.1609,0.7338,0.5809,-69.15,9.9,14.55,-4.07,-3.3,-8.3,-0.3512,-0.0862,0.1647,36.875,31.0625,50.75,37.3125,-25.625,158.6875,0
1776974155.751,9.8138,1.3886,1.3862,0.578,0.5228,0.5015,-75.45,15.3,25.95,9.3757,1.4126,0.6321,-0.134,0.7301,0.5945,-69.15,9.9,14.55,-4.03,-3.32,-8.27,-0.3447,-0.0796,0.1625,36.875,31.0625,50.75,37.3125,-25.625,158.6875,0
1776974155.761,8.7412,1.2641,1.8579,0.8855,0.7461,0.4978,-75.45,15.3,25.95,9.7085,2.1141,0.4717,-0.3128,0.728,0.6187,-67.65,9.9,13.5,-4.01,-3.27,-8.32,-0.3491,-0.072,0.1658,36.875,31.0625,50.75,37.375,-25.6875,158.9375,0
1776974155.766,9.1626,1.506,1.6065,0.9196,0.8452,0.53,-76.05,16.95,27.6,9.6486,2.6911,0.3472,-0.3144,0.6171,0.6286,-67.65,9.9,13.5,-4.01,-3.27,-8.32,-0.3491,-0.072,0.1658,36.875,31.0625,50.75,37.375,-25.75,159.125,0
1776974155.771,9.1626,1.506,1.6065,0.9196,0.8452,0.53,-76.8,16.65,27.6,9.6486,2.6911,0.3472,-0.3144,0.6171,0.6286,-67.65,9.9,13.5,-4.1,-3.18,-8.37,-0.3523,-0.0742,0.1658,36.875,28.875,49.5,37.375,-25.75,159.125,0
1776974155.776,9.6199,1.6376,1.0367,0.8466,0.8138,0.5388,-76.8,16.65,28.2,9.5098,2.7869,0.1748,-0.2747,0.5113,0.6678,-70.05,9.15,14.55,-4.1,-3.18,-8.37,-0.3523,-0.0742,0.1658,36.875,28.875,49.5,37.4375,-25.8125,159.375,0
1776974155.781,9.6199,1.6376,1.0367,0.8466,0.8138,0.5388,-76.95,18.3,27.75,9.5098,2.7869,0.1748,-0.2747,0.5113,0.6678,-70.05,9.15,14.55,-4.11,-3.06,-8.36,-0.3578,-0.0753,0.1636,36.875,28.875,49.5,37.4375,-25.8125,159.375,0
1776974155.786,9.4667,1.4868,0.7973,0.6707,0.7967,0.481,-76.95,18.3,27.75,9.2273,2.6264,0.1987,-0.2033,0.5271,0.7208,-68.7,8.55,15.15,-4.11,-3.06,-8.36,-0.3752,-0.0742,0.1604,36.875,28.875,49.5,37.4375,-25.875,159.625,0
1776974155.792,9.596,1.4629,0.5818,0.5108,0.7738,0.4607,-76.05,18.9,28.2,9.153,2.5355,-0.0599,0.0003,0.5454,0.7605,-69.15,10.65,16.05,-4.09,-3.05,-8.41,-0.3752,-0.0742,0.1604,36.875,28.875,49.5,37.5,-25.9375,159.875,0
1776974155.801,9.6702,1.1468,0.929,0.5036,0.8005,0.3874,-75.6,16.65,28.2,9.0956,2.1883,0.2179,0.0003,0.5454,0.7605,-69.15,10.65,16.05,-4.3,-2.72,-8.57,-0.3862,-0.0764,0.156,36.875,28.875,49.5,37.5,-25.9375,159.875,0
1776974155.811,9.4523,0.9864,0.8691,0.5276,0.9385,0.3307,-75.6,16.65,28.2,9.3398,1.913,0.5387,0.2811,0.6115,0.7938,-69.6,7.95,16.05,-4.27,-2.74,-8.57,-0.3589,-0.0644,0.132,36.875,28.875,49.5,37.5,-26.0,160.0625,0
1776974155.816,9.4523,0.9864,0.8691,0.5276,0.9385,0.3307,-75.6,16.65,28.2,9.3398,1.913,0.5387,0.2811,0.6115,0.7938,-69.45,9.3,16.2,-4.27,-2.74,-8.57,-0.3589,-0.0644,0.132,36.875,28.875,49.5,37.5,-26.0,160.0625,0
1776974155.821,9.4619,1.075,0.4477,0.51,0.9244,0.3118,-77.7,16.8,26.25,9.5217,1.6664,0.8068,0.307,0.6257,0.7863,-69.45,9.3,16.2,-4.15,-2.76,-8.52,-0.3283,-0.06,0.1124,37.6875,28.5,51.5,37.5,-26.0625,160.3125,0
1776974155.826,9.4619,1.075,0.4477,0.51,0.9244,0.3118,-77.7,16.8,26.25,9.5217,1.6664,0.8068,0.307,0.6257,0.7863,-69.45,7.8,16.2,-4.15,-2.76,-8.52,-0.3283,-0.06,0.1124,37.6875,28.5,51.5,37.5,-26.0625,160.3125,0
1776974155.831,9.5313,1.1325,0.1604,0.2481,0.7877,0.3325,-76.65,15.75,27.75,9.5744,1.5826,0.8859,0.2838,0.6275,0.7773,-69.45,7.8,16.2,-3.96,-3.0,-8.39,-0.3185,-0.0622,0.108,37.6875,28.5,51.5,37.5625,-26.125,160.5,0
1776974155.839,9.5313,1.1325,0.1604,0.2481,0.7877,0.3325,-76.65,15.75,27.75,9.5744,1.5826,0.8859,0.2838,0.6275,0.7773,-69.45,7.8,16.2,-3.9,-3.03,-8.4,-0.3163,-0.0622,0.1113,37.6875,28.5,51.5,37.5625,-26.1875,160.6875,0
1776974155.844,9.4164,0.8499,0.0192,0.0123,0.6126,0.336,-75.0,15.15,27.15,9.7205,0.984,0.9888,0.2902,0.5838,0.7565,-71.1,7.5,16.05,-3.9,-3.03,-8.4,-0.3163,-0.0622,0.1113,37.6875,28.5,51.5,37.5625,-26.25,160.875,0
1776974155.852,9.2488,0.7063,0.1772,-0.1239,0.5329,0.3467,-76.8,14.7,28.2,9.6079,0.3304,1.2498,0.2705,0.5201,0.7357,-71.1,7.5,16.05,-4.06,-2.89,-8.39,-0.3087,-0.0774,0.1276,37.6875,28.5,51.5,37.5625,-26.25,160.875,0
1776974155.859,9.2488,0.7063,0.1772,-0.2001,0.6027,0.3624,-76.8,14.7,28.2,9.4116,-0.0359,1.506,0.2705,0.5201,0.7357,-71.1,7.5,16.05,-4.33,-2.73,-8.51,-0.2978,-0.0927,0.1374,37.6875,28.5,51.5,37.625,-26.3125,161.0625,0
1776974155.864,9.1435,0.407,0.5339,-0.2001,0.6027,0.3624,-76.8,14.7,28.2,9.4116,-0.0359,1.506,0.1889,0.4668,0.7349,-68.85,8.4,17.85,-4.33,-2.73,-8.51,-0.2978,-0.0927,0.1374,37.6875,28.5,51.5,37.625,-26.3125,161.0625,0
1776974155.869,9.1435,0.407,0.5339,-0.2241,0.7554,0.3619,-76.8,14.7,28.2,9.4954,-0.2155,1.1732,0.1889,0.4668,0.7349,-68.85,8.4,17.85,-4.51,-2.56,-8.31,-0.2705,-0.084,0.1342,38.0,27.0,51.5,37.625,-26.375,161.25,0
1776974155.873,9.0525,0.1628,1.1205,-0.2241,0.7554,0.3619,-74.25,12.9,25.35,9.4954,-0.2155,1.1732,-0.0139,0.5084,0.7397,-68.85,6.45,16.35,-4.51,-2.56,-8.31,-0.2705,-0.084,0.1342,38.0,27.0,51.5,37.625,-26.375,161.25,0
1776974155.878,9.0525,0.1628,1.1205,-0.2411,0.8255,0.3576,-74.25,12.9,25.35,9.7564,0.0527,0.6105,-0.0139,0.5084,0.7397,-68.85,6.45,16.35,-4.35,-2.62,-8.58,-0.2956,-0.1222,0.1254,38.0,27.0,51.5,37.625,-26.4375,161.4375,0
1776974155.883,9.2823,0.1245,1.4892,-0.2411,0.8255,0.3576,-74.25,12.15,26.1,9.7564,0.0527,0.6105,-0.1071,0.4533,0.7402,-68.85,7.5,17.1,-4.35,-2.62,-8.58,-0.2956,-0.1222,0.1254,38.0,27.0,51.5,37.625,-26.4375,161.4375,0
1776974155.89,9.3805,0.0239,1.8723,-0.2097,0.7722,0.3555,-75.0,11.4,26.85,9.6869,0.1772,0.5076,-0.1721,0.4823,0.7408,-68.85,7.5,17.1,-4.26,-2.56,-8.57,-0.2465,-0.0731,0.1124,38.0,27.0,51.5,37.6875,-26.5,161.625,0
1776974155.895,9.3805,0.0239,1.8723,-0.2097,0.7722,0.3555,-75.0,11.4,26.85,9.6869,0.1772,0.5076,-0.1721,0.4823,0.7408,-70.2,7.35,17.7,-4.26,-2.56,-8.57,-0.2465,-0.0731,0.1124,38.0,27.0,51.5,37.6875,-26.5,161.75,0
1776974155.902,9.4403,0.2346,2.2769,-0.1993,0.6933,0.3805,-74.1,12.0,26.25,9.7013,0.4142,0.7183,-0.1916,0.4375,0.7341,-70.2,7.35,17.7,-4.26,-2.52,-8.51,-0.2083,-0.0087,0.0993,38.0,27.0,51.5,37.75,-26.5625,161.875,0
1776974155.912,9.3111,0.4597,2.6983,-0.0762,0.648,0.3968,-73.35,9.3,26.25,9.6199,0.3831,0.7278,-0.2244,0.3968,0.7032,-70.2,7.35,17.7,-4.13,-2.68,-8.45,-0.1854,-0.0284,0.0884,38.0,27.0,51.5,37.75,-26.5625,161.875,0
1776974155.917,9.3111,0.4597,2.6983,-0.0762,0.648,0.3968,-73.35,9.3,26.25,9.6702,0.3208,1.1803,-0.2244,0.3968,0.7032,-69.6,6.45,17.85,-4.13,-2.68,-8.45,-0.1854,-0.0284,0.0884,38.0,27.0,51.5,37.75,-26.5625,162.0,0
1776974155.922,9.3996,0.7446,2.9544,0.0469,0.692,0.4178,-73.35,9.3,26.25,9.6702,0.3208,1.1803,-0.1833,0.4439,0.6987,-69.6,6.45,17.85,-4.16,-2.62,-8.51,-0.2029,-0.0327,0.0905,39.0,26.0,51.0625,37.75,-26.5625,162.0,0
1776974155.927,9.3996,0.7446,2.9544,0.243,0.6435,0.4423,-73.35,9.3,26.25,9.8186,0.3519,1.2258,-0.1026,0.4213,0.6877,-69.6,6.45,17.85,-4.16,-2.62,-8.51,-0.2029,-0.0327,0.0905,39.0,26.0,51.0625,37.75,-26.625,162.125,0
1776974155.932,9.0884,1.1085,3.0526,0.243,0.6435,0.4423,-72.45,11.7,25.8,9.8186,0.3519,1.2258,-0.1026,0.4213,0.6877,-69.6,6.45,17.85,-4.12,-2.68,-8.56,-0.1942,-0.0524,0.0927,39.0,26.0,51.0625,37.75,-26.625,162.125,0
1776974155.937,8.983,1.3479,3.0239,0.2382,0.6251,0.4722,-72.45,11.7,25.8,9.7085,-0.0407,1.4557,0.0378,0.392,0.6747,-68.7,4.65,17.7,-4.12,-2.68,-8.56,-0.1778,-0.0676,0.0993,39.0,26.0,51.0625,37.8125,-26.625,162.25,0
1776974155.943,8.983,1.3479,3.0239,0.2382,0.6251,0.4722,-72.45,9.45,27.15,9.7085,-0.0407,1.4557,0.0378,0.392,0.6747,-68.7,4.65,17.7,-4.32,-2.6,-8.55,-0.1778,-0.0676,0.0993,39.0,26.0,51.0625,37.8125,-26.625,162.25,0
1776974155.951,8.6814,1.5036,2.7102,0.1681,0.6262,0.5015,-70.65,10.2,26.1,9.4858,-0.5435,1.7286,0.0743,0.3882,0.6773,-68.4,6.0,18.6,-4.39,-2.45,-8.57,-0.1473,-0.0644,0.0993,39.0,26.0,51.0625,37.8125,-26.6875,162.375,0
1776974155.956,8.7364,1.4413,2.4062,0.0669,0.6534,0.5428,-70.65,10.2,26.1,9.4595,-0.589,1.3575,0.0757,0.3837,0.6821,-68.85,6.0,18.6,-4.39,-2.45,-8.57,-0.1353,-0.0524,0.0884,39.0,26.0,51.0625,37.875,-26.75,162.5,0
1776974155.963,8.7364,1.4413,2.4062,0.0669,0.6534,0.5428,-72.15,9.3,27.75,9.4595,-0.589,1.3575,0.0757,0.3837,0.6821,-68.85,6.0,18.6,-4.39,-2.51,-8.5,-0.1353,-0.0524,0.0884,39.0,26.0,51.0625,37.875,-26.75,162.5,0
1776974155.967,8.9376,1.1564,1.9752,-0.0288,0.7282,0.5713,-72.15,9.3,27.75,9.3996,-0.656,1.0271,0.0773,0.3842,0.6787,-69.45,4.65,19.95,-4.39,-2.51,-8.5,-0.1353,-0.0524,0.0884,39.375,25.1875,52.25,37.875,-26.75,162.5625,0
1776974155.973,8.9376,1.1564,1.9752,-0.0288,0.7282,0.5713,-72.15,9.3,27.75,9.3996,-0.656,1.0271,0.0773,0.3842,0.6787,-69.45,4.65,19.95,-4.44,-2.4,-8.46,-0.1374,-0.0425,0.0764,39.375,25.1875,52.25,37.875,-26.75,162.5625,0
1776974155.977,8.6407,0.826,1.6281,-0.0711,0.7999,0.6051,-72.15,9.3,27.75,9.3685,-0.5842,1.0271,0.032,0.409,0.6736,-70.2,4.65,18.0,-4.44,-2.4,-8.46,-0.1374,-0.0425,0.0764,39.375,25.1875,52.25,37.875,-26.8125,162.6875,0
1776974155.983,8.6407,0.826,1.6281,-0.0711,0.7999,0.6051,-72.0,10.2,28.65,9.3685,-0.5842,1.0271,0.032,0.409,0.6736,-70.2,4.65,18.0,-4.34,-2.43,-8.45,-0.1505,-0.0273,0.0665,39.375,25.1875,52.25,37.875,-26.8125,162.6875,0
1776974155.987,9.5457,0.7063,1.2354,-0.0325,0.8234,0.6475,-72.0,10.2,28.65,9.5529,-0.4908,1.2785,-0.0325,0.4599,0.6776,-69.6,4.5,19.35,-4.34,-2.43,-8.45,-0.1549,-0.0153,0.0556,39.375,25.1875,52.25,37.875,-26.8125,162.8125,0
1776974155.993,9.5457,0.7063,1.2354,-0.0325,0.8234,0.6475,-73.2,8.7,27.9,9.5529,-0.4908,1.2785,-0.0325,0.4599,0.6776,-69.6,4.5,19.35,-4.31,-2.43,-8.54,-0.1549,-0.0153,0.0556,39.375,25.1875,52.25,37.875,-26.8125,162.8125,0
1776974156.002,9.6486,0.5986,1.1851,0.0711,0.8098,0.6643,-72.45,10.95,28.2,9.9431,0.1125,1.4341,-0.0592,0.4533,0.6941,-69.6,4.5,19.35,-4.2,-2.51,-8.55,-0.1429,-0.0153,0.0491,39.375,25.1875,52.25,37.875,-26.8125,162.875,0
1776974156.007,9.8402,0.5746,1.2665,0.1442,0.6781,0.6672,-72.45,10.95,28.2,9.9024,0.3208,1.2833,-0.0671,0.4495,0.7,-68.25,4.2,18.75,-4.2,-2.51,-8.55,-0.1145,-0.012,0.0491,39.375,25.1875,52.25,37.9375,-26.8125,163.0,0
1776974156.013,9.8402,0.5746,1.2665,0.1442,0.6781,0.6672,-71.25,10.2,27.6,9.3541,0.4142,1.5562,-0.0671,0.4495,0.7,-68.25,4.2,18.75,-4.23,-2.51,-8.57,-0.1145,-0.012,0.0491,39.375,25.1875,52.25,37.9375,-26.8125,163.0,0
1776974156.018,10.307,0.589,1.2426,0.2366,0.1252,0.6387,-71.25,10.2,27.6,9.3541,0.4142,1.5562,-0.0136,0.5057,0.7115,-68.4,4.05,21.6,-4.23,-2.51,-8.57,-0.1113,-0.024,0.0524,38.5625,24.75,52.25,37.9375,-26.8125,163.0625,0
1776974156.023,10.307,0.589,1.2426,0.2366,0.1252,0.6387,-71.25,10.2,27.6,8.758,0.3926,1.3048,0.0357,0.7914,0.7695,-68.4,4.05,21.6,-4.24,-2.51,-8.57,-0.1113,-0.024,0.0524,38.5625,24.75,52.25,37.9375,-26.8125,163.0625,0
1776974156.028,6.7516,0.6632,2.3703,0.2497,-0.5977,0.6123,-71.25,10.2,27.6,8.758,0.3926,1.3048,0.0357,0.7914,0.7695,-70.2,1.95,20.25,-4.24,-2.51,-8.57,-0.1004,-0.0371,0.048,38.5625,24.75,52.25,37.9375,-26.8125,163.125,0
1776974156.033,6.7516,0.6632,2.3703,0.2497,-0.5977,0.6123,-71.25,10.2,27.6,10.8457,0.1101,1.0343,-0.0839,0.404,0.7402,-70.2,1.95,20.25,-4.25,-2.46,-8.59,-0.1004,-0.0371,0.048,38.5625,24.75,52.25,37.9375,-26.8125,163.125,0
1776974156.038,9.4164,0.9553,1.9656,0.0141,1.1386,0.5758,-72.75,8.7,28.2,10.8457,0.1101,1.0343,-0.0839,0.404,0.7402,-67.2,3.0,19.5,-4.25,-2.46,-8.59,-0.0862,-0.048,0.0382,38.5625,24.75,52.25,37.9375,-26.875,163.1875,0
1776974156.043,9.4164,0.9553,1.9656,-0.0456,0.5897,0.5732,-72.75,8.7,28.2,9.9742,1.0822,0.3424,-0.141,0.3179,0.7597,-67.2,3.0,19.5,-4.25,-2.5,-8.55,-0.0862,-0.048,0.0382,38.5625,24.75,52.25,37.9375,-26.875,163.1875,0
1776974156.052,9.7037,1.1372,1.6903,-0.0456,0.5897,0.5732,-73.2,8.7,30.75,9.1411,1.7262,0.4094,-0.0525,0.3627,0.825,-69.75,2.7,21.0,-4.24,-2.47,-8.58,-0.0665,-0.0447,0.0371,38.5625,24.75,52.25,37.9375,-26.875,163.25,0
1776974156.057,9.3565,1.6065,1.6065,0.032,0.6374,0.546,-73.35,9.75,29.1,9.1411,1.7262,0.4094,-0.0525,0.3627,0.825,-70.2,1.5,21.0,-4.24,-2.47,-8.58,-0.0371,-0.0425,0.0415,38.5625,24.75,52.25,37.9375,-26.875,163.25,0
1776974156.063,9.3541,2.059,1.1181,0.0554,0.5652,0.5105,-73.35,9.75,29.1,8.9232,2.0279,0.0718,-0.0133,0.4375,0.8972,-70.2,1.5,21.0,-4.23,-2.45,-8.62,-0.0371,-0.0425,0.0415,38.5625,24.75,52.25,37.9375,-26.875,163.25,0
1776974156.068,9.3541,2.059,1.1181,0.0554,0.5652,0.5105,-71.85,8.55,30.9,8.9232,2.0279,0.0718,-0.0133,0.4375,0.8972,-70.2,1.5,21.0,-4.31,-2.37,-8.59,-0.0196,-0.0491,0.0458,39.375,24.75,52.5,38.0,-26.9375,163.3125,0
1776974156.073,9.73,2.32,0.407,0.0293,0.5167,0.4607,-71.85,8.55,30.9,8.8729,2.1213,0.3232,0.0045,0.5233,0.9619,-70.2,1.5,21.0,-4.31,-2.37,-8.59,-0.0196,-0.0491,0.0458,39.375,24.75,52.5,38.0,-26.9375,163.3125,0
1776974156.078,9.73,2.32,0.407,0.0293,0.5167,0.4607,-71.85,8.55,30.9,8.8729,2.1213,0.3232,0.0045,0.5233,0.9619,-68.4,0.9,21.6,-4.31,-2.37,-8.59,-0.0153,-0.0524,0.0447,39.375,24.75,52.5,38.0,-26.9375,163.3125,0
1776974156.083,9.6822,2.7198,0.2083,0.0501,0.3163,0.3736,-71.85,8.55,30.9,8.9902,2.3679,0.6967,-0.0117,0.639,1.0187,-68.4,0.9,21.6,-4.3,-2.35,-8.63,-0.0153,-0.0524,0.0447,39.375,24.75,52.5,38.0,-26.9375,163.3125,0
1776974156.088,9.6822,2.7198,0.2083,0.0501,0.3163,0.3736,-72.9,8.55,31.65,8.9902,2.3679,0.6967,-0.0117,0.639,1.0187,-68.4,0.9,21.6,-4.3,-2.35,-8.63,-0.0055,-0.0338,0.0425,39.375,24.75,52.5,38.0,-26.9375,163.3125,0
1776974156.093,9.9503,2.873,0.4405,-0.0075,0.1047,0.2611,-72.9,8.55,31.65,9.3733,1.9441,0.5363,-0.0546,0.7163,1.1088,-68.4,0.9,21.6,-4.28,-2.39,-8.63,-0.0055,-0.0338,0.0425,39.375,24.75,52.5,38.0625,-26.9375,163.375,0
1776974156.102,9.1626,2.4014,1.0582,-0.0858,-0.186,0.1615,-73.5,7.65,31.05,9.3302,1.2067,1.5012,-0.0378,0.8607,1.2001,-69.15,0.15,22.35,-4.12,-2.65,-8.49,0.0022,-0.0295,0.0447,39.375,24.75,52.5,38.0625,-26.9375,163.375,0
1776974156.108,9.1626,2.4014,1.0582,-0.0858,-0.186,0.1615,-72.9,8.25,30.15,10.398,0.6416,1.7358,-0.0378,0.8607,1.2001,-69.6,-0.45,22.65,-4.14,-2.73,-8.56,-0.0251,-0.0251,0.0578,39.375,24.75,52.5,38.0625,-26.9375,163.375,0
1776974156.113,9.3374,2.2003,1.798,-0.4453,0.2976,0.0618,-72.9,8.25,30.15,10.398,0.6416,1.7358,-0.1159,0.833,1.2465,-69.6,-0.45,22.65,-4.14,-2.73,-8.56,-0.0251,-0.0251,0.0578,39.375,24.75,52.5,38.0625,-26.9375,163.375,0
1776974156.118,9.3374,2.2003,1.798,-0.4453,0.2976,0.0618,-72.15,8.55,31.65,10.6925,0.1221,1.7382,-0.1159,0.833,1.2465,-68.1,-0.15,23.1,-4.14,-2.73,-8.56,-0.0251,-0.0251,0.0578,40.5,25.1875,52.1875,38.0625,-26.9375,163.4375,0
1776974156.123,9.9527,1.7693,2.2194,-0.5854,0.3624,-0.029,-72.15,8.55,31.65,10.6925,0.1221,1.7382,-0.1367,0.663,1.2806,-68.1,-0.15,23.1,-3.97,-2.65,-8.83,-0.0513,-0.0327,0.072,40.5,25.1875,52.1875,38.0625,-26.9375,163.4375,0
1776974156.128,9.9527,1.7693,2.2194,-0.5854,0.3624,-0.029,-72.15,8.55,31.65,10.07,-0.2298,1.9992,-0.1367,0.663,1.2806,-68.25,-1.05,22.95,-3.97,-2.65,-8.83,-0.0513,-0.0327,0.072,40.5,25.1875,52.1875,38.125,-26.9375,163.4375,0
1776974156.133,10.9535,1.0798,2.4684,-0.6331,0.0773,-0.1047,-72.15,8.55,31.65,10.07,-0.2298,1.9992,-0.0831,0.6502,1.3496,-68.25,-1.05,22.95,-4.19,-2.43,-8.78,-0.0502,-0.0698,0.0753,40.5,25.1875,52.1875,38.125,-26.9375,163.4375,0
1776974156.138,10.9535,1.0798,2.4684,-0.6331,0.0773,-0.1047,-72.15,8.55,31.65,9.517,-0.2849,1.8292,-0.1506,0.8068,1.4261,-68.25,-1.05,22.95,-4.19,-2.43,-8.78,-0.0382,-0.12,0.0567,40.5,25.1875,52.1875,38.125,-27.0,163.5,0
1776974156.143,9.2799,0.4717,3.4093,-0.6177,-0.3166,-0.1511,-72.15,8.55,31.65,9.517,-0.2849,1.8292,-0.1506,0.8068,1.4261,-68.25,-1.05,22.95,-3.96,-2.05,-9.27,-0.0382,-0.12,0.0567,40.5,25.1875,52.1875,38.125,-27.125,163.5,0
1776974156.152,9.8952,0.2155,3.3543,-0.6406,0.1982,-0.1961,-75.3,8.7,31.8,10.6422,-0.0958,1.312,-0.243,0.7157,1.4807,-67.5,-0.75,22.95,-3.51,-2.06,-9.82,0.0185,-0.1822,0.0513,40.5,25.1875,52.1875,38.125,-27.125,163.5,0
1776974156.162,9.7923,0.6009,2.6719,-0.4991,-0.1029,-0.2294,-75.15,8.25,30.15,10.6015,0.0072,0.9768,-0.3488,0.6297,1.525,-67.5,-0.75,22.95,-4.22,-2.5,-9.16,0.168,-0.288,0.0884,40.5,25.1875,52.1875,38.1875,-27.3125,163.375,0
1776974156.167,9.7923,0.6009,2.6719,-0.4991,-0.1029,-0.2294,-74.55,9.15,31.5,10.2208,-0.1628,0.6201,-0.3709,0.6704,1.5886,-67.95,-2.25,25.8,-4.22,-2.5,-9.16,0.168,-0.288,0.0884,40.5,25.1875,52.1875,38.25,-27.5,163.25,0
1776974156.172,10.3118,1.4317,2.1596,-0.3451,0.2201,-0.2923,-74.55,9.15,31.5,10.2208,-0.1628,0.6201,-0.3709,0.6704,1.5886,-67.95,-2.25,25.8,-3.68,-2.62,-9.51,0.2302,-0.3578,0.1004,40.0625,24.5,51.375,38.25,-27.5,163.25,0
1776974156.177,10.3118,1.4317,2.1596,-0.3451,0.2201,-0.2923,-75.9,9.3,30.6,10.5489,0.1389,1.3479,-0.4719,0.7815,1.7035,-67.95,-2.7,26.25,-3.68,-2.62,-9.51,0.2302,-0.3578,0.1004,40.0625,24.5,51.375,38.3125,-27.75,163.125,0
1776974156.182,10.2663,2.411,1.9058,-0.308,0.0301,-0.3653,-75.9,9.3,30.6,10.5489,0.1389,1.3479,-0.4719,0.7815,1.7035,-67.95,-2.7,26.25,-3.64,-2.69,-9.62,0.2727,-0.4691,0.1124,40.0625,24.5,51.375,38.3125,-27.75,163.125,0
1776974156.187,10.2663,2.411,1.9058,-0.308,0.0301,-0.3653,-75.9,9.3,30.6,11.406,1.3096,1.5323,-0.5209,0.8756,1.8474,-67.35,-3.3,24.9,-3.64,-2.69,-9.62,0.3185,-0.6196,0.1549,40.0625,24.5,51.375,38.375,-28.125,162.9375,0
1776974156.193,11.1474,3.565,1.3958,-0.2633,-0.1021,-0.4783,-75.9,9.3,30.6,11.406,1.3096,1.5323,-0.5209,0.8756,1.8474,-67.35,-3.3,24.9,-3.53,-2.63,-9.94,0.3185,-0.6196,0.1549,40.0625,24.5,51.375,38.5,-28.5625,162.6875,0
1776974156.202,11.327,4.7836,1.1013,-0.3062,-0.4194,-0.6006,-74.25,8.4,31.05,13.0771,1.5347,0.8045,-0.5889,0.9401,2.0107,-66.6,-5.25,24.9,-3.02,-3.59,-10.59,0.36,-0.8268,0.2062,40.0625,24.5,51.375,38.5,-28.5625,162.6875,0
1776974156.212,11.4395,5.7461,0.814,-0.3904,-0.5668,-0.7088,-72.9,8.55,31.95,14.3413,1.4389,1.0223,-0.6523,1.032,2.1623,-66.3,-4.2,28.05,-2.87,-3.59,-10.66,0.3883,-1.0723,0.2607,40.0625,24.5,51.375,38.625,-29.1875,162.4375,0
1776974156.217,11.7124,6.8235,0.3807,-0.2769,-0.8601,-0.8332,-75.0,9.15,31.5,15.5144,1.9225,0.6488,-0.7186,1.0272,2.367,-66.9,-5.55,26.7,-2.87,-3.59,-10.66,0.3883,-1.0723,0.2607,40.0625,24.5,51.375,38.625,-29.1875,162.4375,0
1776974156.222,11.7124,6.8235,0.3807,-0.2769,-0.8601,-0.8332,-75.0,9.15,31.5,15.5144,1.9225,0.6488,-0.7186,1.0272,2.367,-66.9,-5.55,26.7,-2.92,-3.99,-11.18,0.4025,-1.4137,0.3632,40.5,24.5,52.1875,38.75,-30.0,162.1875,0
1776974156.227,11.6358,7.4412,-0.0551,0.0037,-1.0736,-0.995,-76.05,8.7,33.3,16.4745,2.66,-0.0359,-0.7293,0.9646,2.5969,-66.9,-5.55,26.7,-2.92,-3.99,-11.18,0.4025,-1.4137,0.3632,40.5,24.5,52.1875,38.75,-30.0,162.1875,0
1776974156.232,11.6358,7.4412,-0.0551,0.0037,-1.0736,-0.995,-76.05,8.7,33.3,16.4745,2.66,-0.0359,-0.7293,0.9646,2.5969,-66.9,-5.55,26.7,-2.21,-2.75,-12.2,0.3807,-1.9155,0.5432,40.5,24.5,52.1875,39.0,-31.125,162.0,0
1776974156.24,11.7507,6.7588,-0.498,0.4908,-1.3166,-1.1588,-76.05,8.7,33.3,16.8169,3.371,-2.4995,-0.6059,0.8482,2.7992,-66.3,-9.0,27.75,-2.23,-2.92,-11.98,0.3742,-2.4958,0.7341,40.5,24.5,52.1875,39.25,-32.5625,161.75,0
1776974156.245,11.7507,6.7588,-0.498,0.4908,-1.3166,-1.1588,-77.1,11.4,30.75,16.1944,2.6408,-6.0142,-0.655,0.6422,2.8567,-66.3,-9.0,27.75,-2.23,-2.92,-11.98,0.3742,-2.4958,0.7341,40.5,24.5,52.1875,39.625,-34.3125,161.5,0
1776974156.253,11.7579,5.9711,1.0104,0.9622,-1.2367,-1.2886,-77.1,11.4,30.75,13.872,1.6616,-6.0669,-0.655,0.6422,2.8567,-63.45,-8.4,28.65,-1.33,-4.62,-12.52,0.456,-2.9976,0.9774,40.5,24.5,52.1875,40.125,-36.375,161.3125,0
1776974156.263,11.7483,3.8164,-1.6712,1.4346,-1.4778,-1.3741,-76.2,12.0,31.35,11.8321,1.6424,-2.1213,-0.8998,0.6984,2.7254,-65.25,-10.5,29.25,-2.05,-5.6,-11.52,0.3262,-3.5692,1.2774,40.5,24.5,52.1875,40.125,-36.375,161.3125,0
1776974156.267,10.9511,2.4517,-2.7701,1.9311,-1.8439,-1.3267,-78.45,15.3,30.15,11.8321,1.6424,-2.1213,-1.0696,1.0043,2.6183,-63.3,-10.5,29.25,-2.05,-5.6,-11.52,0.3262,-3.5692,1.2774,40.5,24.5,52.1875,40.125,-36.375,161.3125,0
1776974156.272,10.9511,2.4517,-2.7701,1.9311,-1.8439,-1.3267,-78.45,15.3,30.15,11.995,1.1253,-0.2394,-0.9912,1.0984,2.6052,-63.3,-10.5,29.25,-2.89,-4.37,-10.96,0.1811,-4.1702,1.6864,43.75,24.75,47.75,40.75,-38.875,161.375,0
1776974156.277,10.4507,2.4708,-1.8914,2.5149,-1.8282,-1.2966,-78.45,14.25,29.1,11.995,1.1253,-0.2394,-0.9912,1.0984,2.6052,-62.55,-11.7,30.3,-2.89,-4.37,-10.96,0.1811,-4.1702,1.6864,43.75,24.75,47.75,40.75,-38.875,161.375,0
1776974156.283,10.4507,2.4708,-1.8914,2.5149,-1.8282,-1.2966,-78.75,15.75,29.55,13.0532,-0.0718,0.2921,-0.8362,1.0301,2.622,-62.55,-11.7,30.3,-3.13,-3.62,-11.32,0.1244,-4.6589,2.1664,43.75,24.75,47.75,41.625,-41.75,161.5625,0
1776974156.289,10.0006,2.5067,-0.8499,2.7057,-1.8346,-1.3049,-78.75,15.75,29.55,13.0532,-0.0718,0.2921,-0.8362,1.0301,2.622,-61.5,-12.9,29.85,-4.71,-5.66,-11.81,0.0894,-5.1214,2.6049,43.75,24.75,47.75,77.125,-44.875,161.9375,0
1776974156.294,10.0006,2.5067,-0.8499,2.7057,-1.8346,-1.3049,-78.75,15.75,29.55,12.7683,-0.7446,1.166,-0.8351,0.9713,2.5397,-61.5,-12.9,29.85,-4.71,-5.66,-11.81,0.0894,-5.1214,2.6049,43.75,24.75,47.75,73.5625,-48.3125,162.625,0
1776974156.303,10.0844,2.4086,-0.0072,2.7363,-2.055,-1.3856,-78.6,18.45,25.35,11.2863,-0.8332,3.2729,-0.64,0.7157,2.4024,-61.5,-12.9,29.85,-9.93,-7.45,-11.71,-0.0764,-5.5523,2.942,43.75,24.75,47.75,69.9375,-51.875,163.6875,0
1776974156.313,10.9654,1.901,0.5986,2.4333,-2.3992,-1.4549,-78.6,18.45,24.3,9.3087,-1.1013,4.1635,-0.2979,0.655,2.226,-59.1,-12.45,29.85,-12.34,-7.41,-11.85,-0.3436,-5.8207,3.1067,43.75,24.75,47.75,69.9375,-51.875,163.6875,0
1776974156.317,11.2504,0.9625,1.4485,1.7166,-2.4888,-1.4869,-78.6,18.45,24.3,9.3087,-1.1013,4.1635,-0.2979,0.655,2.226,-59.1,-12.45,29.85,-12.34,-7.41,-11.85,-0.3436,-5.8207,3.1067,43.75,24.75,47.75,66.3125,-55.4375,165.125,0
1776974156.323,11.2504,0.9625,1.4485,1.7166,-2.4888,-1.4869,-77.7,17.55,24.9,8.1714,-1.7526,4.5131,0.2846,0.721,2.0688,-59.1,-12.45,29.85,-12.39,-7.35,-11.32,-0.661,-5.8065,3.0925,52.5625,21.0625,36.5,66.3125,-55.4375,165.125,0
1776974156.327,11.6406,0.2753,2.0901,1.3129,-2.0422,-1.493,-77.7,17.55,24.9,8.1714,-1.7526,4.5131,0.2846,0.721,2.0688,-58.95,-16.2,29.85,-12.39,-7.35,-11.32,-0.661,-5.8065,3.0925,52.5625,21.0625,36.5,62.75,-58.8125,167.125,0
1776974156.332,11.6406,0.2753,2.0901,1.3129,-2.0422,-1.493,-79.05,19.8,22.8,7.4172,-1.9585,4.7549,0.8745,0.9022,1.9388,-58.95,-16.2,31.2,-13.63,-9.11,-11.16,-1.0494,-5.5272,3.0641,52.5625,21.0625,36.5,62.75,-58.8125,167.125,0
1776974156.34,11.9806,-0.4645,2.4301,1.1226,-1.647,-1.4618,-79.05,19.8,22.8,7.7093,-2.636,4.7046,1.3984,1.1298,1.7738,-58.95,-15.75,33.45,-9.76,-8.85,-9.92,-1.5872,-5.0811,2.9856,52.5625,21.0625,36.5,59.0625,-61.9375,169.875,0
1776974156.345,11.5137,-0.8045,2.7653,0.4988,-1.7163,-1.3763,-79.05,19.8,22.8,7.7093,-2.636,4.7046,1.3984,1.1298,1.7738,-58.95,-15.75,33.45,-9.76,-8.85,-9.92,-1.5872,-5.0811,2.9856,52.5625,21.0625,36.5,55.1875,-64.6875,173.5625,0
1776974156.353,12.0931,-1.8292,3.8044,-0.2356,-1.6521,-1.251,-78.0,21.3,20.55,8.8945,-4.707,5.2505,2.0861,1.2905,1.5359,-57.9,-15.45,33.45,-5.84,-8.91,-8.96,-2.1686,-4.6317,2.9365,52.5625,21.0625,36.5,51.1875,-67.25,178.3125,0
1776974156.363,12.1027,-2.5522,3.4213,-0.8071,-1.441,-1.1977,-80.4,20.7,21.15,8.4372,-5.1236,8.0086,3.0723,1.2628,1.2388,-59.4,-15.0,33.45,-1.85,-8.12,-7.77,-2.6627,-4.3557,2.9409,52.5625,21.0625,36.5,51.1875,-67.25,178.3125,0
1776974156.368,12.1027,-2.5522,3.4213,-0.8071,-1.441,-1.1977,-80.4,20.7,21.15,8.1355,-3.4117,9.7779,3.0723,1.2628,1.2388,-57.45,-14.25,34.95,-1.85,-8.12,-7.77,-2.6627,-4.3557,2.9409,52.5625,21.0625,36.5,51.1875,-67.25,178.3125,0
1776974156.373,11.5353,-1.6903,2.8659,-1.0448,-1.4013,-1.1985,-78.45,20.25,20.25,8.1355,-3.4117,9.7779,3.8117,0.3365,1.141,-57.45,-14.25,34.95,1.79,-7.52,-6.44,-3.1689,-4.3535,3.0903,61.75,12.0625,20.0,46.9375,-69.625,-175.375,0
1776974156.378,11.5353,-1.6903,2.8659,-1.0448,-1.4013,-1.1985,-78.45,20.25,20.25,6.1268,-3.3758,8.2504,3.8117,0.3365,1.141,-57.45,-14.25,34.95,1.79,-7.52,-6.44,-3.1689,-4.3535,3.0903,61.75,12.0625,20.0,46.9375,-69.625,-175.375,0
1776974156.383,11.0397,-0.7398,4.1348,-1.3334,-1.3318,-1.267,-79.5,21.0,19.95,6.1268,-3.3758,8.2504,3.3875,-0.0655,1.0696,-57.6,-12.9,36.9,4.1,-6.43,-6.29,-3.8583,-4.6448,3.3063,61.75,12.0625,20.0,42.3125,-71.875,-166.875,0
1776974156.388,11.0397,-0.7398,4.1348,-1.3334,-1.3318,-1.267,-79.5,21.0,19.95,4.7453,-4.4891,6.8307,3.3875,-0.0655,1.0696,-57.6,-12.9,36.9,4.1,-6.43,-6.29,-4.5804,-4.6458,2.8874,61.75,12.0625,20.0,37.625,-73.8125,-156.8125,0
1776974156.394,10.4507,0.5411,4.4293,-1.3771,-1.2572,-1.3299,-78.9,22.65,21.45,4.7453,-4.4891,6.8307,3.3801,-0.3328,0.8743,-57.6,-12.9,36.9,-9.29,-3.89,-3.34,-4.5804,-4.6458,2.8874,61.75,12.0625,20.0,34.3125,-75.125,-149.125,0
1776974156.403,10.0269,1.8124,4.5777,-1.2875,-0.9249,-1.4,-78.9,22.65,21.45,3.8403,-5.8826,7.0988,3.7827,-0.4676,0.7101,-57.9,-10.65,37.95,-8.7,-2.97,-12.06,-4.1233,-3.375,1.2981,61.75,12.0625,20.0,34.3125,-75.125,-149.125,0
1776974156.413,9.7181,3.3662,4.4221,-0.9814,-0.692,-1.4722,-77.25,22.5,22.05,2.4612,-5.2218,9.7731,3.8538,-0.2244,0.5516,-56.85,-11.25,40.35,-7.37,-3.46,-12.57,-2.8253,-1.0952,-0.5083,61.75,12.0625,20.0,32.8125,-75.8125,-147.25,0
1776974156.418,9.7181,3.3662,4.4221,-0.9814,-0.692,-1.4722,-77.25,22.5,22.05,3.0191,-3.984,8.9232,3.173,-0.3259,0.3608,-56.85,-11.25,40.35,-7.37,-3.46,-12.57,-2.8253,-1.0952,-0.5083,61.75,12.0625,20.0,32.625,-76.125,-150.625,0
1776974156.423,9.596,4.5179,4.1252,-0.4535,-0.6073,-1.5817,-78.15,24.45,20.4,3.0191,-3.984,8.9232,3.173,-0.3259,0.3608,-58.05,-9.0,39.9,-4.37,-5.55,-9.11,-1.7519,0.4974,-1.9853,62.5625,1.6875,5.75,32.625,-76.125,-150.625,0
1776974156.428,9.596,4.5179,4.1252,-0.4535,-0.6073,-1.5817,-78.15,24.45,20.4,4.6328,-3.2657,7.2951,2.1749,-0.5849,0.0682,-58.05,-9.0,39.9,-4.37,-5.55,-9.11,-1.7519,0.4974,-1.9853,62.5625,1.6875,5.75,33.375,-76.1875,-157.1875,0
1776974156.433,9.5888,5.1164,3.6727,-0.2801,-0.3325,-1.6681,-79.05,23.25,22.05,4.6328,-3.2657,7.2951,2.1749,-0.5849,0.0682,-58.2,-7.2,40.8,-0.6,-6.41,-6.37,-1.1541,1.3603,-2.8732,62.5625,1.6875,5.75,33.375,-76.1875,-157.1875,0
1776974156.44,9.5265,5.5881,3.134,0.0557,-0.3528,-1.6766,-75.6,25.95,24.3,5.7557,-3.1125,6.4859,1.7776,-1.0413,-0.1577,-58.35,-5.85,39.6,0.1,-6.03,-4.84,-1.1246,1.7311,-3.2343,62.5625,1.6875,5.75,34.25,-75.875,-164.625,0
1776974156.445,9.5265,5.5881,3.134,0.0557,-0.3528,-1.6766,-75.6,25.95,24.3,5.7557,-3.2872,5.9161,1.7776,-1.0413,-0.1577,-58.35,-5.85,39.6,0.1,-6.03,-4.84,-1.1246,1.7311,-3.2343,62.5625,1.6875,5.75,35.0625,-75.1875,-171.6875,0
1776974156.453,9.5936,5.4875,2.6576,0.3853,-0.1162,-1.5852,-75.6,25.95,24.3,5.7557,-3.2872,5.9161,1.7557,-1.5092,-0.2952,-59.55,-4.2,39.9,-0.56,-5.51,-4.53,-1.4104,1.861,-3.3259,62.5625,1.6875,5.75,35.5625,-74.25,-177.8125,0
1776974156.463,9.4882,4.9991,2.5426,0.7807,0.2102,-1.4568,-78.0,29.25,21.6,5.3223,-3.6488,5.5091,1.7352,-1.7725,-0.4442,-59.55,-4.2,39.9,-1.01,-5.09,-4.19,-1.7639,2.0082,-3.3249,62.5625,1.6875,5.75,35.5625,-74.25,-177.8125,0
1776974156.468,9.4882,4.9991,2.5426,0.7807,0.2102,-1.4568,-78.0,29.25,21.6,4.3527,-3.0335,6.5242,1.7664,-1.9881,-0.5838,-59.55,-4.2,39.9,-1.01,-5.09,-4.19,-1.7639,2.0082,-3.3249,62.5625,1.6875,5.75,35.875,-73.0,177.0625,0
1776974156.473,9.6917,4.0199,2.0686,1.1109,0.3789,-1.3166,-78.45,30.75,22.8,4.3527,-3.0335,6.5242,1.7664,-1.9881,-0.5838,-60.3,-2.7,38.85,-1.79,-3.93,-4.55,-2.0911,2.2242,-3.2867,62.0625,6.0,4.1875,35.875,-73.0,177.0625,0
1776974156.478,9.6917,4.0199,2.0686,1.1109,0.3789,-1.3166,-78.45,30.75,22.8,3.9959,-2.2098,6.2177,1.6827,-2.3321,-0.737,-60.3,-2.7,38.85,-1.79,-3.93,-4.55,-2.0911,2.2242,-3.2867,62.0625,6.0,4.1875,35.875,-73.0,177.0625,0
1776974156.483,8.5808,3.2777,1.8435,1.2686,0.2206,-1.1679,-78.9,33.9,25.35,3.9002,-1.8531,5.3654,1.6827,-2.3321,-0.737,-60.3,-2.7,38.85,-2.64,-3.03,-5.08,-2.3137,2.4904,-3.2256,62.0625,6.0,4.1875,35.9375,-71.5,173.125,0
1776974156.488,8.5808,3.2777,1.8435,1.4197,0.2196,-1.0235,-78.9,33.9,25.35,3.9002,-1.8531,5.3654,1.586,-2.5514,-0.8884,-60.3,-2.7,38.85,-2.64,-3.03,-5.08,-2.3486,2.8176,-3.1874,62.0625,6.0,4.1875,36.0,-69.6875,170.125,0
1776974156.494,8.1977,2.1859,2.1308,1.4197,0.2196,-1.0235,-80.4,33.15,25.05,3.9049,-1.6352,5.6958,1.61,-2.6891,-1.0203,-63.3,1.05,37.65,-3.37,-2.56,-5.45,-2.3486,2.8176,-3.1874,62.0625,6.0,4.1875,36.1875,-67.625,167.75,0
1776974156.503,7.2472,2.1404,3.9073,1.5833,0.255,-0.903,-80.25,34.8,24.45,4.3048,-1.9154,6.2513,1.9191,-2.8058,-1.0997,-62.55,1.5,38.4,-4.42,-2.85,-6.24,-2.198,3.1809,-3.1612,62.0625,6.0,4.1875,36.1875,-67.625,167.75,0
1776974156.513,6.7445,2.4277,5.4372,2.4949,0.3962,-0.7426,-80.25,34.8,24.45,5.0805,-2.6695,6.1914,2.0219,-2.9292,-1.1812,-64.05,2.7,37.35,-4.62,-3.26,-6.2,-1.9559,3.5714,-3.1154,62.0625,6.0,4.1875,36.5625,-65.3125,166.0,0
1776974156.518,6.8881,2.6839,4.2976,2.42,0.5502,-0.5665,-80.25,34.8,24.45,5.0805,-2.6695,6.1914,2.0219,-2.9292,-1.1812,-64.05,2.7,37.35,-4.62,-3.26,-6.2,-1.9559,3.5714,-3.1154,62.0625,6.0,4.1875,36.5625,-65.3125,166.0,0
1776974156.523,6.8881,2.6839,4.2976,2.42,0.5502,-0.5665,-80.1,39.9,25.05,5.9951,-3.632,6.1292,1.5583,-3.0563,-1.3275,-65.55,5.85,34.35,-4.25,-3.62,-5.73,-1.7333,4.0066,-3.0511,57.25,19.5625,11.0,37.1875,-62.75,164.75,0
1776974156.528,7.1658,2.3176,3.2968,2.2532,0.7594,-0.4389,-80.1,39.9,25.05,5.9951,-3.632,6.1292,1.5583,-3.0563,-1.3275,-65.55,5.85,34.35,-4.25,-3.62,-5.73,-1.7333,4.0066,-3.0511,57.25,19.5625,11.0,37.1875,-62.75,164.75,0
1776974156.533,7.1658,2.3176,3.2968,2.2532,0.7594,-0.4389,-82.5,39.15,22.2,6.5625,-4.0917,5.9352,0.8644,-3.2977,-1.5306,-65.55,5.85,34.35,-3.62,-3.46,-5.32,-1.5697,4.36,-2.9474,57.25,19.5625,11.0,38.0,-59.9375,163.9375,0
1776974156.541,7.1156,2.1045,3.1125,2.2084,0.8831,-0.3062,-84.15,39.75,24.45,7.0342,-3.9289,5.284,0.8644,-3.2977,-1.5306,-67.95,6.6,34.05,-3.29,-3.15,-4.93,-1.4126,4.5302,-2.7882,57.25,19.5625,11.0,38.9375,-57.125,163.4375,0
1776974156.546,7.1156,2.1045,3.1125,2.3054,0.9686,-0.1836,-84.15,39.75,24.45,7.0342,-3.9289,5.284,0.4341,-3.4419,-1.7925,-67.95,6.6,34.05,-3.29,-3.15,-4.93,-1.4126,4.5302,-2.7882,57.25,19.5625,11.0,40.0,-54.3125,163.1875,0
1776974156.553,7.4005,1.5802,2.7414,2.3054,0.9686,-0.1836,-81.9,41.7,24.75,7.3622,-3.0263,5.0494,0.0088,-3.5178,-2.0339,-67.95,6.6,34.05,-3.69,-3.62,-5.23,-1.1945,4.4844,-2.51,57.25,19.5625,11.0,41.125,-51.6875,163.1875,0
1776974156.563,7.5441,1.1636,2.1069,2.473,1.0453,-0.0687,-81.9,41.7,24.75,7.1802,-2.15,5.0589,-0.004,-3.6348,-2.197,-70.35,9.45,28.65,-4.72,-4.33,-5.78,-0.9436,4.3088,-2.0737,57.25,19.5625,11.0,41.125,-51.6875,163.1875,0
1776974156.568,7.8769,0.8787,1.3144,2.6084,1.0142,-0.0059,-83.7,41.7,22.95,7.1802,-2.15,5.0589,-0.004,-3.6348,-2.197,-70.35,9.45,28.65,-4.72,-4.33,-5.78,-0.9436,4.3088,-2.0737,49.0,31.6875,22.875,42.3125,-49.25,163.375,0
1776974156.573,7.8769,0.8787,1.3144,2.6084,1.0142,-0.0059,-83.7,41.7,22.95,7.4627,-1.4557,5.2696,0.1442,-3.5826,-2.3286,-71.1,11.4,29.4,-7.47,-6.07,-6.99,-0.7178,4.119,-1.5599,49.0,31.6875,22.875,42.3125,-49.25,163.375,0
1776974156.578,8.2289,0.3711,0.5602,2.6654,1.0261,0.0163,-84.45,42.45,22.5,7.4627,-1.4557,5.2696,0.1442,-3.5826,-2.3286,-71.1,11.4,29.4,-7.47,-6.07,-6.99,-0.7178,4.119,-1.5599,49.0,31.6875,22.875,43.4375,-46.9375,163.6875,0
1776974156.583,8.2289,0.3711,0.5602,2.6654,1.0261,0.0163,-84.45,42.45,22.5,7.9727,-0.8547,4.786,0.5958,-3.4446,-2.4789,-70.95,11.25,27.3,-8.39,-6.99,-7.44,-0.5498,4.047,-1.117,49.0,31.6875,22.875,43.4375,-46.9375,163.6875,0
1776974156.588,8.7197,-0.2059,0.1556,2.7035,1.0206,-0.0083,-83.7,43.95,22.5,7.9727,-0.8547,4.786,0.5958,-3.4446,-2.4789,-70.95,11.25,27.3,-8.39,-6.99,-7.44,-0.4472,4.095,-0.8258,49.0,31.6875,22.875,44.6875,-44.625,164.125,0
1776974156.594,8.7197,-0.2059,0.1556,2.7035,1.0206,-0.0083,-83.7,43.95,22.5,8.837,-1.1133,4.8315,1.0821,-3.2935,-2.6268,-71.85,13.05,26.4,-8.74,-7.99,-7.63,-0.4472,4.095,-0.8258,49.0,31.6875,22.875,13.625,-42.3125,164.625,0
1776974156.603,8.837,-0.8954,-0.3926,2.7987,1.0195,-0.0144,-84.0,44.4,21.45,9.9623,-0.9697,4.4676,1.4128,-3.2279,-2.7022,-71.85,13.05,26.1,-8.71,-9.45,-7.55,-0.4091,4.1255,-0.709,49.0,31.6875,22.875,13.625,-42.3125,164.625,0
1776974156.613,8.9064,-1.7741,-0.5243,2.7992,0.8993,0.0099,-85.65,46.05,19.5,10.8769,-1.4653,3.1723,1.2662,-3.2031,-2.6803,-72.3,17.4,23.85,-9.11,-9.48,-7.66,-0.3818,4.035,-0.7636,49.0,31.6875,22.875,13.375,-40.0625,165.0,0
1776974156.618,8.6383,-2.3343,-0.8763,2.7206,0.6757,0.0277,-85.65,46.05,19.5,11.2599,-2.5546,3.3591,1.2662,-3.2031,-2.6803,-72.3,17.4,23.85,-9.11,-9.48,-7.66,-0.3818,4.035,-0.7636,49.0,31.6875,22.875,13.375,-40.0625,165.0,0
1776974156.623,8.6383,-2.3343,-0.8763,2.5759,0.4767,0.032,-85.65,46.05,19.5,11.2599,-2.5546,3.3591,1.1157,-3.0707,-2.6143,-72.3,17.4,23.85,-9.89,-9.35,-7.9,-0.2913,3.8081,-1.021,37.25,39.5,32.0625,13.0,-37.875,165.125,0
1776974156.628,8.5329,-2.1787,-1.3886,2.5759,0.4767,0.032,-85.5,45.45,20.1,11.7771,-3.6248,3.4884,1.1103,-2.825,-2.586,-72.3,17.4,23.85,-9.89,-9.35,-7.9,-0.2913,3.8081,-1.021,37.25,39.5,32.0625,13.0,-37.875,165.125,0
1776974156.633,8.5329,-2.1787,-1.3886,2.2812,0.3227,0.0605,-85.5,45.45,20.1,11.7771,-3.6248,3.4884,1.1103,-2.825,-2.586,-72.6,19.35,19.8,-10.83,-8.8,-8.23,-0.0644,3.5037,-1.4475,37.25,39.5,32.0625,12.4375,-35.8125,164.9375,0
1776974156.641,8.6239,-1.5083,-1.6759,2.2812,0.3227,0.0605,-85.05,47.4,17.55,12.1554,-3.486,4.5514,1.3286,-2.5599,-2.6374,-73.35,21.6,19.8,-11.86,-9.75,-8.66,0.2956,3.2212,-1.9504,37.25,39.5,32.0625,11.625,-33.75,164.375,0
1776974156.646,8.6981,-0.6369,-1.7837,1.873,0.1863,0.1079,-85.05,47.4,17.55,12.1554,-3.486,4.5514,1.3286,-2.5599,-2.6374,-73.35,21.6,19.05,-11.86,-9.75,-8.66,0.2956,3.2212,-1.9504,37.25,39.5,32.0625,10.625,-31.8125,163.5625,0
1776974156.654,8.4707,0.3807,-1.8723,1.5164,0.122,0.1346,-84.75,46.95,18.3,11.9519,-1.6927,3.4333,1.2774,-2.6145,-2.618,-73.05,22.05,17.85,-12.24,-11.3,-8.83,0.5901,2.9932,-2.3671,37.25,39.5,32.0625,9.4375,-29.9375,162.625,0
1776974156.664,8.8466,1.1947,-2.3248,1.1615,0.1761,0.1479,-86.4,46.8,16.65,10.963,-1.0558,2.7485,1.0523,-2.5724,-2.6295,-71.25,23.85,16.95,-13.15,-11.22,-8.88,0.5989,2.8023,-2.6398,37.25,39.5,32.0625,9.4375,-29.9375,162.625,0
1776974156.668,8.8466,1.1947,-2.3248,1.1615,0.1761,0.1479,-86.4,46.8,16.65,9.7899,-1.0343,2.5546,1.0584,-2.4112,-2.6425,-71.25,23.85,16.95,-13.15,-11.22,-8.88,0.5989,2.8023,-2.6398,37.25,39.5,32.0625,9.4375,-29.9375,162.625,0
1776974156.673,9.4643,2.0351,-2.9113,0.9252,0.0805,0.1228,-86.4,46.8,16.65,9.7899,-1.0343,2.5546,1.0584,-2.4112,-2.6425,-71.7,24.6,15.45,-12.93,-8.91,-8.35,0.4265,2.6529,-2.8907,23.6875,42.6875,33.5,8.125,-28.0,161.8125,0
1776974156.678,9.4643,2.0351,-2.9113,0.9252,0.0805,0.1228,-86.25,45.45,17.25,9.3302,-1.1756,2.2338,1.0525,-2.125,-2.6396,-71.7,24.6,15.45,-12.93,-8.91,-8.35,0.4265,2.6529,-2.8907,23.6875,42.6875,33.5,8.125,-28.0,161.8125,0
1776974156.683,9.8186,2.5857,-3.7948,0.6326,-0.1332,0.1287,-86.25,45.45,17.25,9.3302,-1.1756,2.2338,1.0525,-2.125,-2.6396,-70.05,27.45,13.8,-12.53,-7.63,-8.26,0.3458,2.5569,-3.1285,23.6875,42.6875,33.5,6.625,-26.125,161.0,0
1776974156.688,9.8186,2.5857,-3.7948,0.6326,-0.1332,0.1287,-86.25,46.65,16.8,9.1985,-1.2115,2.5809,1.1143,-1.8362,-2.5908,-70.05,27.45,13.8,-12.53,-7.63,-8.26,0.4494,2.4904,-3.3161,23.6875,42.6875,33.5,5.125,-24.1875,160.1875,0
1776974156.694,9.4954,3.1771,-3.2825,0.1612,-0.2494,0.1458,-86.25,46.65,16.8,9.5912,-0.9361,2.8156,1.1143,-1.8362,-2.5908,-70.05,27.45,13.8,-12.23,-6.82,-8.39,0.4494,2.4904,-3.3161,23.6875,42.6875,33.5,3.5,-22.25,159.25,0
1776974156.703,9.4355,3.9289,-2.411,-0.1404,0.0101,0.0946,-85.5,46.2,17.25,9.5912,-0.9361,2.8156,1.084,-1.6931,-2.5407,-70.35,29.1,12.3,-10.8,-5.97,-8.26,0.6534,2.4609,-3.4459,23.6875,42.6875,33.5,1.875,-20.3125,158.25,0
1776974156.713,9.0022,4.367,-2.4948,-0.6584,-0.0373,0.0096,-84.9,46.05,15.6,10.0437,-1.0511,4.288,0.7946,-1.7432,-2.5106,-70.35,29.1,12.3,-9.98,-5.13,-8.31,0.817,2.4642,-3.4852,23.6875,42.6875,33.5,1.875,-20.3125,158.25,0
1776974156.718,9.0022,4.367,-2.4948,-0.6584,-0.0373,0.0096,-84.9,46.05,15.6,10.0437,-1.0511,4.288,0.7064,-1.7376,-2.4597,-70.35,29.1,12.3,-9.98,-5.13,-8.31,0.817,2.4642,-3.4852,23.6875,42.6875,33.5,0.3125,-18.3125,157.3125,0
1776974156.723,8.2863,4.4556,-2.9928,-1.0104,0.0421,-0.0456,-84.9,46.05,15.6,10.2927,-0.7111,2.1955,0.7064,-1.7376,-2.4597,-69.45,31.65,9.15,-9.42,-3.58,-8.67,0.9108,2.4031,-3.4285,10.6875,44.5625,31.5625,0.3125,-18.3125,157.3125,0
1776974156.728,8.2863,4.4556,-2.9928,-1.0104,0.0421,-0.0456,-84.9,46.05,15.6,10.2927,-0.7111,2.1955,0.2803,-1.7752,-2.3571,-69.45,31.65,9.15,-9.42,-3.58,-8.67,0.9108,2.4031,-3.4285,10.6875,44.5625,31.5625,358.875,-16.4375,156.375,0
1776974156.733,7.7883,4.4125,-2.8994,-1.121,0.0602,-0.1018,-84.9,46.05,15.6,10.1059,-1.3815,1.6759,0.2803,-1.7752,-2.3571,-67.2,33.6,7.35,-9.31,-1.92,-9.02,1.0134,2.2864,-3.3009,10.6875,44.5625,31.5625,358.875,-16.4375,156.375,0
1776974156.743,7.5681,4.3886,-2.4804,-1.1247,0.0674,-0.1077,-82.35,46.05,15.9,9.7923,-1.4485,1.3862,0.0091,-1.7091,-2.2961,-67.5,33.6,8.1,-9.36,-1.83,-8.85,1.2185,2.2209,-3.0838,10.6875,44.5625,31.5625,357.5,-14.625,155.4375,0
1776974156.751,7.3646,4.4412,-1.8651,-1.064,0.1444,-0.0645,-84.45,46.65,17.25,9.7923,-1.4485,1.3862,-0.1045,-1.6238,-2.2202,-67.5,33.6,8.1,-9.09,-2.16,-8.3,1.3908,2.2264,-2.7838,10.6875,44.5625,31.5625,356.3125,-12.875,154.4375,0
1776974156.756,7.3646,4.4412,-1.8651,-1.064,0.1444,-0.0645,-83.25,46.95,19.05,9.4691,-1.2522,0.8404,-0.166,-1.5042,-2.1296,-67.2,35.1,9.6,-9.09,-2.16,-8.3,1.3908,2.2264,-2.7838,10.6875,44.5625,31.5625,355.3125,-11.1875,153.5,0
1776974156.764,7.695,4.786,-1.7047,-0.8969,0.3118,0.0144,-83.25,46.95,19.05,9.1554,-0.8811,0.4812,-0.3179,-1.3512,-2.044,-67.2,35.1,9.6,-8.99,-2.3,-7.82,1.4334,2.1784,-2.4249,10.6875,44.5625,31.5625,355.3125,-11.1875,153.5,0
1776974156.769,8.1211,5.0087,-1.7382,-0.648,0.5385,0.1045,-82.05,46.5,18.15,9.1554,-0.8811,0.4812,-0.3179,-1.3512,-2.044,-67.2,35.1,9.6,-8.99,-2.3,-7.82,1.4334,2.1784,-2.4249,10.6875,44.5625,31.5625,354.5625,-9.6875,152.625,0
1776974156.774,8.1211,5.0087,-1.7382,-0.648,0.5385,0.1045,-82.05,46.5,18.15,9.098,-0.7422,-0.0239,-0.5764,-1.1788,-1.9521,-64.8,36.0,8.4,-9.24,-1.75,-6.89,1.4006,2.0388,-2.0355,-0.25,44.375,27.0625,354.5625,-9.6875,152.625,0
1776974156.779,8.7939,5.1667,-1.7765,-0.1735,0.7051,0.1828,-82.05,46.5,18.15,9.098,-0.7422,-0.0239,-0.5764,-1.1788,-1.9521,-64.8,36.0,8.4,-9.24,-1.75,-6.89,1.4006,2.0388,-2.0355,-0.25,44.375,27.0625,354.5625,-9.6875,152.625,0
1776974156.784,8.7939,5.1667,-1.7765,-0.1735,0.7051,0.1828,-82.05,46.5,18.15,8.9088,-0.9625,-0.3543,-0.6265,-0.9766,-1.8583,-64.8,36.0,8.4,-9.9,-1.56,-6.69,1.4181,1.8566,-1.6897,-0.25,44.375,27.0625,353.9375,-8.3125,151.75,0
1776974156.79,9.335,5.1212,-1.6041,0.465,0.5697,0.251,-84.15,48.0,18.75,8.5281,-0.407,-0.1245,-0.6265,-0.9766,-1.8583,-64.8,36.0,8.4,-10.72,-1.72,-6.43,1.5523,1.681,-1.4214,-0.25,44.375,27.0625,353.4375,-7.125,150.875,0
1776974156.795,9.335,5.1212,-1.6041,0.465,0.5697,0.251,-83.1,48.3,18.75,8.5281,-0.407,-0.1245,-0.6528,-0.6965,-1.7094,-66.3,37.05,7.35,-10.72,-1.72,-6.43,1.5523,1.681,-1.4214,-0.25,44.375,27.0625,353.0625,-6.0625,149.875,0
1776974156.804,9.2273,5.102,-1.0678,0.8823,0.4024,0.3008,-81.15,48.3,18.75,8.1163,-0.1628,-0.3663,-0.696,-0.4263,-1.5202,-64.5,39.0,6.9,-11.29,-1.49,-5.27,1.7388,1.5544,-1.2163,-0.25,44.375,27.0625,352.75,-5.0625,148.8125,0
1776974156.814,9.1889,5.6096,-0.6919,1.2268,0.4077,0.3099,-83.25,48.15,19.35,8.2863,0.6464,0.0503,-0.667,-0.1977,-1.2894,-63.9,38.55,7.95,-11.19,-0.77,-4.59,1.9057,1.4541,-1.0385,-0.25,44.375,27.0625,352.75,-5.0625,148.8125,0
1776974156.819,9.1889,6.2321,-0.68,1.259,0.3528,0.2872,-83.25,48.15,19.35,8.2863,0.6464,0.0503,-0.667,-0.1977,-1.2894,-63.9,38.55,7.95,-11.19,-0.77,-4.59,1.9057,1.4541,-1.0385,-0.25,44.375,27.0625,352.5,-4.1875,147.6875,0
1776974156.824,9.1889,6.2321,-0.68,1.259,0.3528,0.2872,-83.25,48.15,19.35,8.2959,1.1947,-0.0311,-0.5598,-0.0834,-0.9894,-64.05,38.25,7.65,-11.0,-0.03,-3.9,2.0649,1.3264,-0.9065,-4.6875,44.75,22.5625,352.5,-4.1875,147.6875,0
1776974156.829,8.9064,6.8498,-0.589,1.1618,0.2902,0.2574,-83.25,48.15,19.35,8.2959,1.1947,-0.0311,-0.5598,-0.0834,-0.9894,-64.05,38.25,7.65,-11.0,-0.03,-3.9,2.0649,1.3264,-0.9065,-4.6875,44.75,22.5625,352.25,-3.375,146.4375,0
1776974156.834,8.9064,6.8498,-0.589,1.1618,0.2902,0.2574,-83.25,48.15,19.35,8.2121,1.5155,-0.0215,-0.4421,0.0501,-0.6965,-62.25,38.7,8.1,-10.84,0.39,-3.21,2.2351,1.1126,-0.8236,-4.6875,44.75,22.5625,352.25,-3.375,146.4375,0
1776974156.843,8.7173,7.0413,-0.8475,1.0658,0.3211,0.2619,-82.95,47.7,18.6,7.9847,1.4916,-0.1173,-0.2979,0.1748,-0.4229,-62.7,39.6,8.7,-10.97,0.0,-2.24,2.3649,0.7876,-0.7821,-4.6875,44.75,22.5625,352.0,-2.8125,145.125,0
1776974156.853,8.7891,6.6391,-0.7685,1.0144,0.3792,0.2398,-84.45,48.45,18.3,7.6351,1.4054,0.1867,-0.0837,0.3384,-0.1364,-62.7,39.6,8.7,-11.44,-0.76,-2.03,2.414,0.396,-0.7625,-4.6875,44.75,22.5625,351.6875,-2.375,143.75,0
1776974156.863,9.0142,6.0645,-1.2953,0.9337,0.4724,0.2928,-83.1,48.75,18.3,7.2808,1.3599,0.8308,0.1857,0.5351,0.141,-62.7,39.6,8.7,-11.87,-1.61,-1.97,2.3147,-0.0611,-0.7472,-4.6875,44.75,22.5625,351.3125,-2.125,142.5,0
1776974156.867,8.995,5.7557,-1.6807,0.9065,0.6174,0.3211,-83.1,48.75,17.4,7.4268,1.7957,1.8459,0.1857,0.5351,0.141,-61.05,39.45,8.1,-11.87,-1.61,-1.97,2.3147,-0.0611,-0.7472,-4.6875,44.75,22.5625,351.3125,-2.125,142.5,0
1776974156.872,8.995,5.7557,-1.6807,0.9065,0.6174,0.3211,-83.1,48.3,17.4,7.4268,1.7957,1.8459,0.393,0.8367,0.3216,-61.05,39.45,8.1,-5.0,-12.86,-6.81,2.0431,-0.4854,-0.7309,-6.75,43.875,18.0,350.8125,-2.125,141.3125,0
1776974156.877,8.9232,5.4061,-1.8579,0.8338,0.732,0.3142,-83.1,48.3,18.15,8.904,2.4397,1.2019,0.393,0.8367,0.3216,-61.05,39.45,8.85,-5.0,-12.86,-6.81,2.0431,-0.4854,-0.7309,-6.75,43.875,18.0,350.8125,-2.125,141.3125,0
1776974156.882,8.9232,5.4061,-1.8579,0.8338,0.732,0.3142,-83.1,48.3,18.15,8.904,2.4397,1.2019,0.5553,1.1359,0.4858,-61.05,39.45,8.85,-11.14,-11.49,1.11,1.2043,-0.9697,-0.8661,-6.75,43.875,18.0,350.1875,-2.25,140.625,0
1776974156.887,8.8083,4.8028,-2.1476,0.7301,0.7869,0.3176,-83.1,48.3,18.15,9.8354,3.213,-1.257,0.5553,1.1359,0.4858,-62.4,40.5,9.0,-11.14,-11.49,1.11,1.2043,-0.9697,-0.8661,-6.75,43.875,18.0,349.375,-3.1875,141.25,0
1776974156.894,8.8083,4.8028,-2.1476,0.5993,0.9236,0.4386,-83.55,47.55,16.35,9.8354,3.213,-1.257,0.7725,0.9912,0.6813,-61.95,38.55,10.05,-7.94,-3.05,-0.07,-1.213,-2.6049,-0.5127,-6.75,43.875,18.0,348.625,-4.5625,142.6875,0
1776974156.904,8.9759,3.972,-2.0446,0.4543,1.1088,0.6145,-83.55,46.8,18.45,9.7516,3.8906,0.2514,1.2601,1.0592,0.6656,-62.25,38.25,9.9,-5.39,-8.3,-9.59,-2.7511,-3.3259,-0.1047,-6.75,43.875,18.0,348.625,-4.5625,142.6875,0
1776974156.914,9.2057,2.9544,-0.7518,0.3373,1.1191,0.7165,-82.8,47.25,18.15,10.5129,5.035,-1.0223,1.2175,1.0493,0.3936,-61.2,38.85,12.0,-3.26,-13.52,-9.01,-2.9572,-3.4972,-0.5574,-6.75,43.875,18.0,347.5625,-5.9375,144.1875,0
1776974156.919,9.2057,2.9544,-0.7518,0.3373,1.1191,0.7165,-82.8,47.25,18.15,11.734,5.0254,-4.1108,0.8796,0.57,0.1151,-61.2,38.85,12.0,-3.26,-13.52,-9.01,-2.9572,-3.4972,-0.5574,-6.75,43.875,18.0,347.5625,-5.9375,144.1875,0
1776974156.924,9.1291,2.5307,-0.2753,0.332,1.0051,0.7434,-83.7,46.2,18.3,11.734,5.0254,-4.1108,0.8796,0.57,0.1151,-61.2,38.85,12.0,-2.97,-10.04,-7.69,-2.6224,-3.2289,-0.745,-6.6875,44.5,14.5,346.5,-7.1875,145.5,0
1776974156.928,9.1291,2.5307,-0.2753,0.332,1.0051,0.7434,-83.7,46.2,18.3,10.8553,2.9999,-2.4038,1.6419,0.2225,0.0344,-61.2,38.85,12.0,-2.97,-10.04,-7.69,-2.6224,-3.2289,-0.745,-6.6875,44.5,14.5,346.5,-7.1875,145.5,0
1776974156.934,9.0836,2.3272,-0.1628,0.4935,0.9491,0.7882,-83.7,46.2,18.3,10.8553,2.9999,-2.4038,1.6419,0.2225,0.0344,-63.0,76.65,12.0,-1.94,-3.42,-6.72,-2.5864,-2.8569,-0.3011,-6.6875,44.5,14.5,345.75,-8.4375,146.8125,0
1776974156.941,9.0836,2.3272,-0.1628,0.4935,0.9491,0.7882,-83.7,46.2,18.3,9.5792,-0.1987,-2.7438,2.278,0.3102,0.1609,-63.0,38.25,8.4,-2.22,3.12,-8.99,-2.606,-2.7271,0.0087,-6.6875,44.5,14.5,345.1875,-9.6875,148.125,0
1776974156.946,9.9383,2.15,-0.4357,0.8354,0.9118,0.9052,-83.7,46.2,18.3,10.2711,-0.9601,-5.6407,1.9758,0.5545,0.2904,-63.0,38.25,8.4,-2.22,3.12,-8.99,-2.606,-2.7271,0.0087,-6.6875,44.5,14.5,344.625,-11.0,149.25,0
1776974156.954,11.9159,1.5658,-0.984,1.4285,0.7893,1.0397,-83.7,44.7,16.5,12.5241,-1.233,-8.1618,1.9758,0.5545,0.2904,-64.5,38.7,9.15,-2.24,3.41,-11.22,-2.3573,-2.8307,-0.0011,-6.6875,44.5,14.5,344.0,-12.4375,150.0625,0
1776974156.964,14.054,0.5124,-1.8962,2.0584,0.4738,1.182,-83.85,44.55,17.4,14.1569,-3.2896,-8.0565,1.1671,0.4759,0.4858,-62.55,75.15,9.15,-3.08,6.26,-13.31,-1.7835,-2.9572,-0.1189,-6.6875,44.5,14.5,344.0,-12.4375,150.0625,0
1776974156.969,14.054,0.5124,-1.8962,2.0584,0.4738,1.182,-83.85,44.55,17.4,14.1569,-3.2896,-8.0565,1.1671,0.4759,0.4858,-62.55,36.75,8.4,-3.08,6.26,-13.31,-1.7835,-2.9572,-0.1189,-6.6875,44.5,14.5,343.5625,-13.875,150.5,0
1776974156.974,15.3516,-0.1891,-2.4301,2.4978,0.1223,1.2476,-83.25,44.4,15.45,13.2974,-5.102,-3.316,0.996,0.5441,0.5516,-63.45,36.9,8.7,-8.05,8.12,-17.29,-1.0581,-3.0347,0.1004,-2.5,40.6875,18.75,343.5625,-13.875,150.5,0
1776974156.979,15.3516,-0.1891,-2.4301,2.4978,0.1223,1.2476,-83.25,44.4,15.45,13.2974,-5.102,-3.316,0.996,0.5441,0.5516,-63.45,36.9,8.7,-8.05,8.12,-17.29,-1.0581,-3.0347,0.1004,-2.5,40.6875,18.75,343.5625,-15.5625,150.625,0
1776974156.984,16.1321,-0.067,-2.3128,2.6508,0.2113,1.2185,-81.6,44.55,15.3,12.4235,-4.221,0.0934,0.2867,0.8556,0.6238,-63.45,36.9,8.7,-12.66,3.05,-17.87,-0.5127,-2.9911,0.817,-2.5,40.6875,18.75,343.5625,-15.5625,150.625,0
1776974156.989,16.1321,-0.067,-2.3128,2.6508,0.2113,1.2185,-81.6,44.55,15.3,12.4235,-4.221,0.0934,0.2867,0.8556,0.6238,-63.15,36.45,7.95,-12.66,3.05,-17.87,-0.4396,-2.5896,1.6428,-2.5,40.6875,18.75,344.0625,-17.25,150.9375,0
1776974156.995,16.9629,0.6728,-2.2793,2.5929,0.6171,1.1234,-81.6,44.55,15.3,12.3277,-1.063,3.2034,-0.3459,1.4639,0.6555,-63.15,36.45,7.95,-17.57,-10.79,-14.73,-0.4396,-2.5896,1.6428,-2.5,40.6875,18.75,344.625,-18.625,151.375,0
1776974157.004,13.6254,1.8076,-2.7509,2.4496,0.506,0.7903,-80.4,42.15,12.9,13.9678,0.6871,1.0463,-0.4557,1.3843,0.6883,-63.15,36.45,7.95,-8.76,-13.35,-7.2,-0.5858,-1.8599,1.6428,-2.5,40.6875,18.75,345.0,-19.5,151.8125,0
1776974157.014,10.1323,2.0399,-2.66,1.7805,0.6416,0.3714,-79.8,43.05,11.7,13.3716,1.9393,1.6233,-0.028,0.9838,0.6656,-64.05,36.3,9.9,-7.74,-0.8,-12.67,-0.672,-1.2348,1.0592,-2.5,40.6875,18.75,345.0,-19.5,151.8125,0
1776974157.019,10.1323,2.0399,-2.66,1.7805,0.6416,0.3714,-79.8,43.05,11.7,13.3716,1.9393,1.6233,-0.028,0.9838,0.6656,-64.05,36.3,9.9,-7.74,-0.8,-12.67,-0.672,-1.2348,1.0592,-2.5,40.6875,18.75,345.0,-19.5,151.8125,0
1776974157.024,7.1443,0.4741,-0.4453,0.4503,0.5817,0.1029,-78.45,45.3,9.9,10.5417,3.9169,2.8706,0.409,0.4197,0.6259,-64.05,36.3,9.9,-8.0,-0.28,-11.5,-0.6621,-1.309,0.9403,2.5,37.0,19.6875,345.25,-20.375,152.1875,0
1776974157.029,7.1443,0.4741,-0.4453,0.4503,0.5817,0.1029,-78.45,45.3,9.9,10.5417,3.9169,2.8706,0.409,0.4197,0.6259,-64.05,36.0,8.4,-8.0,-0.28,-11.5,-0.6621,-1.309,0.9403,2.5,37.0,19.6875,345.25,-20.375,152.1875,0
1776974157.034,7.0533,-1.391,1.4581,-1.1735,1.0142,-0.0152,-78.9,42.9,11.1,8.2624,5.0973,1.9106,0.4527,0.0056,0.5862,-64.05,36.0,8.4,-4.54,-3.66,-8.59,-0.3938,-0.7865,0.6283,2.5,37.0,19.6875,345.5,-20.9375,152.4375,0
1776974157.042,6.5529,-2.4277,3.2609,-2.1424,0.9577,-0.0557,-78.9,42.9,11.1,6.8091,3.802,2.1261,0.3371,0.2241,0.5796,-63.3,34.8,9.15,-4.38,-4.29,-8.22,-0.2814,-0.5225,0.4211,2.5,37.0,19.6875,345.625,-21.3125,152.625,0
1776974157.046,6.5529,-2.4277,3.2609,-2.1424,0.9577,-0.0557,-78.9,42.9,11.1,6.8091,3.802,2.1261,0.3371,0.2241,0.5796,-64.5,34.35,10.65,-4.38,-4.29,-8.22,-0.2814,-0.5225,0.4211,2.5,37.0,19.6875,345.75,-21.625,152.8125,0
1776974157.054,6.7253,-3.0143,4.1611,-2.6273,1.2151,-0.0594,-80.1,42.45,13.95,7.4675,2.162,2.0279,0.4887,0.4223,0.6606,-64.5,34.35,10.65,-4.31,-4.26,-8.07,-0.2389,-0.456,0.3491,2.5,37.0,19.6875,345.8125,-21.875,152.9375,0
1776974157.064,6.9959,-3.6416,3.1915,-2.3286,0.8945,0.0786,-79.8,42.3,15.9,8.7317,0.9122,0.3974,0.3107,0.465,0.6494,-65.55,35.1,9.15,-3.87,-5.15,-7.65,-0.2585,-0.3862,0.3251,2.5,37.0,19.6875,345.8125,-21.875,152.9375,0
1776974157.069,6.8091,-3.2226,3.3136,-1.7205,0.2161,0.4287,-80.7,42.3,15.9,9.4379,-0.2251,-1.257,0.3107,0.465,0.6494,-65.25,34.05,11.1,-3.87,-5.15,-7.65,-0.2585,-0.3862,0.3251,5.5625,35.0625,21.0,345.9375,-22.125,153.1875,0
1776974157.074,6.8091,-3.2226,3.3136,-1.7205,0.2161,0.4287,-80.7,39.15,17.25,9.4379,-0.2251,-1.257,0.1037,0.6011,0.5766,-65.25,34.05,11.1,-4.29,-4.09,-8.1,-0.3251,-0.3087,0.3251,5.5625,35.0625,21.0,345.9375,-22.125,153.1875,0
1776974157.079,7.7045,-1.6305,2.6336,-1.4501,0.1071,0.7701,-80.1,37.95,18.6,9.6031,-0.7781,-1.8842,0.1037,0.6011,0.5766,-65.1,34.2,11.25,-4.29,-4.09,-8.1,-0.3251,-0.3087,0.3251,5.5625,35.0625,21.0,346.0625,-22.375,153.4375,0
1776974157.084,7.7045,-1.6305,2.6336,-1.4501,0.1071,0.7701,-80.1,37.95,18.6,9.6031,-0.7781,-1.8842,-0.0357,0.6939,0.5055,-65.1,34.2,11.25,-3.98,-3.51,-8.4,-0.3665,-0.3272,0.3436,5.5625,35.0625,21.0,346.0625,-22.375,153.4375,0
1776974157.089,8.6814,-0.3424,1.3815,-1.3512,-0.0783,1.0256,-81.9,36.15,18.6,9.572,-0.7661,-1.9561,-0.2683,0.7043,0.4373,-65.1,34.2,11.25,-3.98,-3.51,-8.4,-0.4342,-0.2422,0.3414,5.5625,35.0625,21.0,346.125,-22.5625,153.6875,0
1776974157.095,8.6814,-0.3424,1.3815,-1.3512,-0.0783,1.0256,-81.9,36.15,18.6,9.572,-0.7661,-1.9561,-0.2683,0.7043,0.4373,-65.1,34.2,11.25,-3.76,-3.54,-8.28,-0.4342,-0.2422,0.3414,5.5625,35.0625,21.0,346.25,-22.75,153.9375,0
1776974157.104,10.1179,0.6823,0.103,-1.1143,-0.0839,1.0944,-81.9,36.15,18.6,9.5481,-0.2849,-1.482,-0.5798,0.6757,0.4088,-65.55,31.95,11.4,-3.51,-3.55,-8.23,-0.3785,-0.2498,0.3327,5.5625,35.0625,21.0,346.25,-22.75,153.9375,0
1776974157.114,10.4555,2.2769,-0.6728,-0.5545,0.1154,1.0597,-80.4,31.95,20.4,9.5553,0.5148,-0.6632,-0.7754,0.651,0.4101,-66.75,32.85,11.85,-3.83,-3.07,-8.54,-0.3502,-0.3,0.3316,5.5625,35.0625,21.0,346.375,-23.0,154.1875,0
1776974157.119,10.8601,3.8068,-0.723,0.3299,0.3603,0.8668,-81.0,31.5,18.45,9.5505,1.7238,-0.1748,-0.8052,0.6896,0.4684,-65.1,32.25,10.05,-3.83,-3.07,-8.54,-0.3502,-0.3,0.3316,5.5625,35.0625,21.0,346.4375,-23.25,154.4375,0
1776974157.124,10.8601,3.8068,-0.723,0.3299,0.3603,0.8668,-81.0,31.5,18.45,9.5505,1.7238,-0.1748,-0.8052,0.6896,0.4684,-65.1,32.25,10.05,-4.01,-3.24,-8.48,-0.3316,-0.348,0.3251,6.75,33.875,21.0625,346.4375,-23.25,154.4375,0
1776974157.129,10.8362,5.1427,-0.735,0.9569,0.4743,0.648,-79.8,29.25,18.45,9.6534,2.9521,-0.0192,-0.5985,0.704,0.5313,-64.8,32.4,12.45,-4.01,-3.24,-8.48,-0.3316,-0.348,0.3251,6.75,33.875,21.0625,346.5625,-23.5,154.625,0
1776974157.134,10.8362,5.1427,-0.735,0.9569,0.4743,0.648,-79.8,29.25,18.45,9.6534,2.9521,-0.0192,-0.5985,0.704,0.5313,-64.8,32.4,12.45,-4.33,-3.38,-8.5,-0.2967,-0.3589,0.3065,6.75,33.875,21.0625,346.5625,-23.5,154.625,0
1776974157.141,10.398,5.6096,-0.3065,1.3254,0.6726,0.4778,-79.5,29.55,17.7,9.8569,3.7445,0.2394,-0.0938,0.6107,0.5644,-65.85,32.25,13.5,-4.77,-3.76,-8.46,-0.2793,-0.3327,0.2782,6.75,33.875,21.0625,346.625,-23.75,154.8125,0
1776974157.146,10.398,5.6096,-0.3065,1.3579,0.6289,0.3906,-79.5,29.55,17.7,9.8569,3.7445,0.2394,-0.0938,0.6107,0.5644,-65.85,32.25,13.5,-4.77,-3.76,-8.46,-0.2793,-0.3327,0.2782,6.75,33.875,21.0625,346.6875,-23.9375,155.0,0
1776974157.154,10.0987,5.3367,0.3735,1.3579,0.6289,0.3906,-79.5,29.55,17.7,9.7731,3.9576,0.4669,0.4639,0.5185,0.5588,-67.5,34.35,13.65,-4.53,-3.58,-8.43,-0.3022,-0.2694,0.2498,6.75,33.875,21.0625,346.75,-24.0625,155.1875,0
1776974157.165,8.7221,4.6783,0.9673,0.98,0.8332,0.3949,-77.25,30.3,17.7,9.6223,3.2657,0.5076,0.91,0.4226,0.5295,-67.5,34.35,13.65,-4.37,-3.45,-8.45,-0.3294,-0.1844,0.216,6.75,33.875,21.0625,346.75,-24.0625,155.1875,0
1776974157.169,8.4132,3.4572,1.6831,0.7128,0.8258,0.4495,-77.25,30.75,17.1,9.3374,2.4397,0.5531,1.1532,0.3888,0.498,-65.85,33.75,13.5,-4.37,-3.45,-8.45,-0.3294,-0.1844,0.216,6.75,33.875,21.0625,346.75,-24.0625,155.1875,0
