timestamp,thigh_acc_x,thigh_acc_y,thigh_acc_z,thigh_gyro_x,thigh_gyro_y,thigh_gyro_z,thigh_mag_x,thigh_mag_y,thigh_mag_z,shank_acc_x,shank_acc_y,shank_acc_z,shank_gyro_x,shank_gyro_y,shank_gyro_z,shank_mag_x,shank_mag_y,shank_mag_z,foot_acc_x,foot_acc_y,foot_acc_z,foot_gyro_x,foot_gyro_y,foot_gyro_z,foot_mag_x,foot_mag_y,foot_mag_z,foot_euler_x,foot_euler_y,foot_euler_z,perturbation_event
1776973929.128,10.003,4.6304,-2.7461,-0.8703,0.5044,0.2497,-87.9,9.75,-8.1,9.4379,4.7501,-2.1572,-1.8202,0.2427,-0.0584,-71.1,10.65,-12.0,-3.93,-4.35,-9.76,-0.7658,-0.3218,1.9111,2.6875,7.375,34.6875,200.625,-15.0625,154.3125,0
1776973929.133,10.0293,4.7405,-3.0239,-0.6848,0.4775,0.1993,-87.15,10.05,-7.35,9.4379,4.7501,-2.1572,-1.8202,0.2427,-0.0584,-72.0,11.7,-11.85,-2.76,-3.72,-8.87,-0.6927,-0.1473,1.8664,4.875,5.5625,33.1875,200.625,-15.0625,154.3125,0
1776973929.137,10.0293,4.7405,-3.0239,-0.6848,0.4775,0.1993,-87.15,10.05,-7.35,10.149,3.8738,-2.0734,-1.7128,0.1583,0.0051,-72.0,11.7,-11.85,-2.76,-3.72,-8.87,-0.6927,-0.1473,1.8664,4.875,5.5625,33.1875,201.6875,-15.5625,154.9375,0
1776973929.143,9.7037,4.5107,-2.5594,-0.644,0.4567,0.1759,-87.45,10.05,-10.2,10.149,3.8738,-2.0734,-1.7128,0.1583,0.0051,-69.6,10.65,-9.75,-1.59,-1.84,-8.35,-0.6469,-0.0785,1.9297,4.875,5.5625,33.1875,201.6875,-15.5625,154.9375,0
1776973929.151,9.9216,3.7709,-1.7765,-0.7392,0.3429,0.1817,-87.45,10.05,-10.2,10.2663,3.3375,-2.1021,-1.5679,0.0887,0.0032,-71.7,11.25,-10.35,-2.0,-1.89,-8.89,-0.5574,-0.18,2.0093,4.875,5.5625,33.1875,202.6875,-16.125,155.5,0
1776973929.156,9.9216,3.7709,-1.7765,-0.7392,0.3429,0.1817,-88.5,9.0,-7.05,9.9503,3.134,-2.2505,-1.3662,0.0203,0.0051,-71.7,11.25,-10.35,-2.0,-1.89,-8.89,-0.5574,-0.18,2.0093,4.875,5.5625,33.1875,203.75,-16.75,156.0,0
1776973929.163,9.7683,3.2609,-0.9768,-0.8162,0.3802,0.2318,-87.0,8.7,-7.95,9.9503,3.134,-2.2505,-1.3662,0.0203,0.0051,-71.7,12.45,-10.65,-3.3,-2.45,-9.79,-0.3905,-0.3294,2.0311,4.875,5.5625,33.1875,204.8125,-17.375,156.375,0
1776973929.173,9.9072,2.9544,-0.589,-0.906,0.2984,0.2846,-88.05,9.15,-8.25,9.1411,2.9928,-1.1181,-1.0395,0.004,0.0168,-70.8,11.4,-11.55,-5.24,-3.2,-10.23,-0.1374,-0.4036,1.9646,4.875,5.5625,33.1875,204.8125,-17.375,156.375,0
1776973929.178,9.9072,2.9544,-0.589,-0.906,0.2984,0.2846,-88.05,9.15,-8.25,9.1411,2.9928,-1.1181,-0.9092,0.1759,0.0509,-70.8,11.4,-11.55,-5.24,-3.2,-10.23,-0.1374,-0.4036,1.9646,4.875,5.5625,33.1875,204.8125,-17.375,156.375,0
1776973929.183,9.6534,3.0047,-0.5818,-0.9054,0.2683,0.3256,-88.05,9.15,-8.25,10.0987,2.3703,-1.7933,-0.9092,0.1759,0.0509,-70.8,11.4,-11.55,-4.71,-2.32,-9.8,0.0305,-0.3207,1.8893,5.1875,3.6875,32.375,205.8125,-18.0,156.625,0
1776973929.188,9.6534,3.0047,-0.5818,-0.9054,0.2683,0.3256,-88.05,9.15,-8.25,10.0987,2.3703,-1.7933,-0.7863,0.1919,0.1122,-70.8,11.4,-11.55,-4.71,-2.32,-9.8,0.0305,-0.3207,1.8893,5.1875,3.6875,32.375,205.8125,-18.0,156.625,0
1776973929.193,9.845,3.1484,-0.6249,-0.9481,0.2787,0.3781,-87.45,9.0,-8.1,10.6039,1.6137,-1.6664,-0.7863,0.1919,0.1122,-70.95,11.25,-10.35,-3.85,0.52,-9.55,0.0807,-0.1189,1.9177,5.1875,3.6875,32.375,206.875,-18.4375,156.875,0
1776973929.199,9.7851,3.304,-0.4453,-0.8111,0.2582,0.4135,-87.45,9.0,-8.1,10.6039,1.6137,-1.6664,-0.7989,0.1743,0.1058,-70.95,11.25,-10.35,-3.22,-4.4,-8.17,0.2716,-0.0316,1.874,5.1875,3.6875,32.375,207.9375,-18.875,157.0625,0
1776973929.204,9.7851,3.304,-0.4453,-0.8111,0.2582,0.4135,-87.45,10.05,-7.8,10.1562,2.2673,1.5993,-0.7597,0.1503,0.0741,-70.95,11.25,-10.35,-3.22,-4.4,-8.17,0.2716,-0.0316,1.874,5.1875,3.6875,32.375,208.875,-19.3125,157.0625,0
1776973929.213,10.2831,3.4429,-0.4357,-0.6654,0.2126,0.4282,-88.05,7.65,-7.65,9.4906,3.6464,2.3152,-0.7957,0.3272,0.1047,-72.3,11.4,-9.75,-7.2,-9.96,-8.03,0.5007,-0.1658,1.6515,5.1875,3.6875,32.375,209.6875,-19.75,157.0,0
1776973929.223,10.3046,3.972,-0.4693,-0.3269,0.133,0.425,-88.2,8.55,-8.55,9.8186,4.6998,2.5426,-0.6286,0.514,0.133,-71.1,11.1,-9.0,-6.4,-10.68,-7.04,0.5051,-0.276,1.3963,5.1875,3.6875,32.375,209.6875,-19.75,157.0,0
1776973929.228,10.3022,4.5059,0.0838,-0.1735,0.0448,0.4189,-88.2,8.55,-8.55,9.8186,4.6998,2.5426,-0.6286,0.514,0.133,-71.1,11.1,-9.0,-6.4,-10.68,-7.04,0.5051,-0.276,1.3963,5.1875,3.6875,32.375,210.125,-20.0625,156.875,0
1776973929.233,10.3022,4.5059,0.0838,-0.1735,0.0448,0.4189,-88.2,8.55,-8.55,10.5321,4.8171,1.5897,-0.2699,0.4114,0.1623,-72.45,11.7,-7.65,-4.11,-9.25,-5.9,0.4505,-0.3262,0.745,5.875,3.6875,34.0625,210.125,-20.0625,156.875,0
1776973929.238,9.6079,4.2784,1.2354,-0.1322,-0.0493,0.3802,-88.2,8.55,-8.55,10.5321,4.8171,1.5897,-0.2699,0.4114,0.1623,-72.45,11.7,-7.65,-4.11,-9.25,-5.9,0.4505,-0.3262,0.745,5.875,3.6875,34.0625,210.1875,-20.375,156.8125,0
1776973929.243,9.6079,4.2784,1.2354,-0.1322,-0.0493,0.3802,-87.3,8.7,-6.9,10.4339,3.6368,1.4365,0.1476,0.1716,0.162,-73.05,13.05,-7.95,-4.56,-2.32,-9.5,0.1385,-0.3894,0.2683,5.875,3.6875,34.0625,210.1875,-20.375,156.8125,0
1776973929.252,9.481,3.5793,2.3846,-0.3155,0.146,0.3339,-86.55,9.15,-7.65,9.9383,1.8747,1.154,0.2782,0.0722,0.1772,-73.05,13.05,-7.95,-4.75,-2.77,-9.72,-0.0284,-0.4461,0.2367,5.875,3.6875,34.0625,210.3125,-20.625,156.8125,0
1776973929.262,9.6031,2.3032,3.3255,-0.5441,0.3547,0.2982,-88.05,8.7,-8.25,9.6079,0.4142,1.0104,0.1873,0.0754,0.2169,-71.85,11.4,-7.5,-4.26,-3.97,-8.76,0.0218,-0.3458,0.1811,5.875,3.6875,34.0625,210.375,-20.8125,156.8125,0
1776973929.27,9.5098,1.2115,3.3734,-0.5641,0.4642,0.3104,-88.35,7.95,-7.2,9.6031,-0.2251,0.6847,-0.0618,0.1908,0.2318,-71.85,11.4,-7.5,-3.78,-3.85,-8.51,0.0993,-0.2531,0.0927,5.875,3.6875,34.0625,210.375,-21.0,156.75,0
1776973929.276,9.3829,0.9816,2.8898,-0.4668,0.3837,0.3632,-88.35,7.95,-7.2,9.6031,-0.2251,0.6847,-0.0618,0.1908,0.2318,-71.85,11.4,-7.5,-3.78,-3.85,-8.51,0.0993,-0.2531,0.0927,5.875,3.6875,34.0625,210.375,-21.0,156.75,0
1776973929.28,9.3829,0.9816,2.8898,-0.4668,0.3837,0.3632,-88.35,7.95,-7.2,10.2376,-0.1413,-0.2753,-0.3693,0.211,0.2012,-71.85,11.4,-7.5,-4.01,-3.28,-8.8,0.0982,-0.2323,0.0665,6.6875,4.0625,32.875,210.4375,-21.125,156.6875,0
1776973929.285,9.5577,1.245,2.4229,-0.3675,0.2281,0.3986,-88.35,7.95,-7.2,10.2376,-0.1413,-0.2753,-0.3693,0.211,0.2012,-72.45,10.5,-7.35,-4.01,-3.28,-8.8,0.0982,-0.2323,0.0665,6.6875,4.0625,32.875,210.4375,-21.125,156.6875,0
1776973929.29,9.5577,1.245,2.4229,-0.3675,0.2281,0.3986,-88.35,7.95,-7.2,10.2879,0.3256,-0.1891,-0.6262,0.203,0.1583,-72.45,10.5,-7.35,-3.79,-3.24,-8.67,0.1004,-0.2356,0.0556,6.6875,4.0625,32.875,210.4375,-21.25,156.625,0
1776973929.295,9.5481,1.5419,1.798,-0.2918,0.2265,0.4479,-88.35,7.95,-7.2,10.2879,0.3256,-0.1891,-0.6262,0.203,0.1583,-71.25,9.75,-8.4,-3.79,-3.24,-8.67,0.1004,-0.2356,0.0556,6.6875,4.0625,32.875,210.4375,-21.375,156.5625,0
1776973929.303,9.5481,1.5419,1.798,-0.2918,0.2265,0.4479,-87.45,8.25,-5.7,10.1514,1.0678,-0.2227,-0.7432,0.1836,0.1865,-72.0,10.95,-7.35,-3.5,-3.85,-8.57,0.1473,-0.2171,0.0327,6.6875,4.0625,32.875,210.4375,-21.5,156.375,0
1776973929.313,9.5816,1.7047,0.8954,-0.2249,0.1761,0.4599,-88.35,6.45,-6.15,9.7899,1.9752,-0.0431,-0.8098,0.2174,0.2406,-71.7,9.3,-6.9,-4.16,-2.99,-8.92,0.2782,-0.2738,0.012,6.6875,4.0625,32.875,210.4375,-21.5,156.375,0
1776973929.323,9.2488,1.7382,-0.2059,-0.1138,0.1604,0.4714,-87.9,7.8,-5.7,9.5289,2.6576,-0.0479,-0.8601,0.2228,0.275,-71.85,10.65,-6.0,-4.16,-2.91,-8.87,0.4047,-0.3305,-0.0164,6.6875,4.0625,32.875,210.4375,-21.6875,156.125,0
1776973929.328,8.9878,1.9345,-1.0822,-0.0152,0.0746,0.4714,-87.9,7.8,-5.7,9.1674,3.5171,0.3639,-0.7789,0.1927,0.2854,-71.85,10.65,-6.0,-4.16,-2.91,-8.87,0.4047,-0.3305,-0.0164,6.6875,4.0625,32.875,210.4375,-21.6875,156.125,0
1776973929.333,8.9878,1.9345,-1.0822,-0.0152,0.0746,0.4714,-89.1,6.9,-6.45,9.1674,3.5171,0.3639,-0.7789,0.1927,0.2854,-72.45,11.25,-6.6,-3.85,-3.54,-8.42,0.4472,-0.288,-0.0785,7.375,4.75,30.875,210.4375,-21.8125,155.8125,0
1776973929.338,9.7659,2.1428,-1.4916,0.0509,-0.2078,0.4498,-89.1,6.9,-6.45,8.8825,4.1611,0.2011,-0.6198,0.1434,0.2753,-72.45,11.25,-6.6,-3.85,-3.54,-8.42,0.4472,-0.288,-0.0785,7.375,4.75,30.875,210.4375,-21.8125,155.8125,0
1776973929.343,9.7659,2.1428,-1.4916,0.1535,0.5081,0.4469,-89.1,6.9,-6.45,8.8825,4.1611,0.2011,-0.6198,0.1434,0.2753,-72.45,11.25,-6.6,-3.68,-4.23,-8.05,0.4472,-0.288,-0.0785,7.375,4.75,30.875,210.375,-21.9375,155.5625,0
1776973929.348,8.0732,1.9369,-0.6991,0.1535,0.5081,0.4469,-87.6,6.9,-6.45,9.1889,3.6799,-0.1149,-0.4378,0.1372,0.304,-72.45,11.25,-6.6,-3.68,-4.23,-8.05,0.4145,-0.2913,-0.0764,7.375,4.75,30.875,210.375,-22.0625,155.25,0
1776973929.354,8.9615,1.7933,-0.9385,-0.0813,0.2054,0.469,-87.6,7.2,-6.45,9.1889,3.6799,-0.1149,-0.4378,0.1372,0.304,-72.0,10.5,-6.15,-4.02,-4.05,-8.12,0.4145,-0.2913,-0.0764,7.375,4.75,30.875,210.3125,-22.1875,155.0625,0
1776973929.363,9.6319,1.6855,-0.4214,-0.0773,0.1601,0.497,-88.35,8.4,-7.65,9.0357,2.8036,0.0958,-0.3099,0.1561,0.2952,-70.8,10.35,-6.75,-3.85,-4.01,-8.0,0.3218,-0.2596,-0.0796,7.375,4.75,30.875,210.3125,-22.3125,154.875,0
1776973929.373,9.5026,1.7693,-0.1724,-0.0474,0.3483,0.5148,-89.1,6.15,-5.85,9.4595,2.4014,0.3089,-0.3043,0.226,0.3059,-70.8,10.65,-6.75,-3.21,-4.11,-7.92,0.264,-0.2727,-0.0578,7.375,4.75,30.875,210.3125,-22.3125,154.875,0
1776973929.378,9.5026,1.7693,-0.1724,-0.0474,0.3483,0.5148,-87.0,6.15,-5.85,9.8186,1.8627,0.1365,-0.3533,0.1596,0.3219,-70.8,10.65,-6.75,-3.21,-4.11,-7.92,0.264,-0.2727,-0.0578,7.375,4.75,30.875,210.3125,-22.3125,154.875,0
1776973929.383,9.663,1.8148,0.012,-0.0927,0.2926,0.4954,-87.0,6.15,-5.85,9.8186,1.8627,0.1365,-0.3533,0.1596,0.3219,-71.1,10.65,-5.7,-3.74,-3.66,-8.2,0.2105,-0.3643,-0.0262,7.75,6.1875,32.0625,210.25,-22.5,154.6875,0
1776973929.388,9.663,1.8148,0.012,-0.0927,0.2926,0.4954,-87.0,6.15,-5.85,9.584,1.5083,0.4621,-0.397,0.1396,0.3248,-71.1,10.65,-5.7,-3.74,-3.66,-8.2,0.2105,-0.3643,-0.0262,7.75,6.1875,32.0625,210.25,-22.5,154.6875,0
1776973929.393,9.7516,1.8435,0.2825,-0.1148,0.239,0.4562,-87.0,6.15,-5.85,9.584,1.5083,0.4621,-0.397,0.1396,0.3248,-73.2,9.0,-3.6,-4.19,-3.33,-8.46,0.1713,-0.3774,-0.024,7.75,6.1875,32.0625,210.25,-22.6875,154.5625,0
1776973929.398,9.7516,1.8435,0.2825,-0.1148,0.239,0.4562,-89.1,5.4,-5.85,9.2727,1.6951,0.4597,-0.5212,0.1868,0.3301,-73.2,9.0,-3.6,-4.19,-3.33,-8.46,0.1505,-0.3174,-0.0327,7.75,6.1875,32.0625,210.1875,-22.8125,154.4375,0
1776973929.404,9.2727,1.8771,0.6321,-0.1591,0.2619,0.3978,-89.1,5.4,-5.85,9.0381,2.1931,0.2753,-0.5212,0.1868,0.3301,-73.2,10.05,-5.1,-4.1,-3.45,-8.29,0.1505,-0.3174,-0.0327,7.75,6.1875,32.0625,210.125,-22.9375,154.375,0
1776973929.413,9.3757,1.6209,0.9601,-0.2678,0.2406,0.3467,-87.15,4.5,-4.5,9.0118,2.6193,0.5052,-0.5905,0.1943,0.3187,-73.2,10.05,-5.1,-3.7,-3.82,-8.04,0.1156,-0.3065,-0.0218,7.75,6.1875,32.0625,210.125,-22.9375,154.375,0
1776973929.423,9.2273,1.4437,1.1061,-0.3909,0.2774,0.3147,-87.6,5.4,-3.0,9.0525,2.5331,0.5531,-0.5724,0.2145,0.3078,-73.35,9.15,-4.95,-3.81,-3.97,-7.86,0.0851,-0.3098,-0.0065,7.75,6.1875,32.0625,210.125,-23.125,154.25,0
1776973929.428,9.2273,1.4437,1.1061,-0.3909,0.2774,0.3147,-87.15,5.25,-5.25,9.0525,2.5331,0.5531,-0.5313,0.2316,0.3096,-73.35,9.15,-4.95,-3.81,-3.97,-7.86,0.0851,-0.3098,-0.0065,7.75,6.1875,32.0625,210.125,-23.25,154.1875,0
1776973929.433,9.2344,1.4054,1.0271,-0.5335,0.295,0.2942,-87.15,5.25,-5.25,9.2105,2.3822,0.4669,-0.469,0.2329,0.3099,-71.25,9.75,-3.6,-3.75,-4.1,-7.78,0.0633,-0.3142,0.0109,7.75,5.0625,32.0625,210.125,-23.25,154.1875,0
1776973929.438,9.2344,1.4054,1.0271,-0.5335,0.295,0.2942,-87.6,4.2,-4.8,9.2105,2.3822,0.4669,-0.469,0.2329,0.3099,-71.25,9.75,-3.6,-3.75,-4.1,-7.78,0.0633,-0.3142,0.0109,7.75,5.0625,32.0625,210.0625,-23.4375,154.125,0
1776973929.443,9.2584,1.4629,0.8284,-0.5756,0.2787,0.2814,-87.6,4.2,-4.8,9.1243,2.2793,0.6823,-0.3499,0.2206,0.323,-73.35,10.65,-5.25,-4.03,-3.91,-7.89,0.0404,-0.3327,0.0295,7.75,5.0625,32.0625,210.0625,-23.4375,154.125,0
1776973929.45,9.098,1.5251,0.7039,-0.5649,0.3128,0.2817,-87.6,4.2,-4.8,9.1243,2.2793,0.6823,-0.3499,0.2206,0.323,-73.35,10.65,-5.25,-4.13,-3.9,-7.95,0.0087,-0.3054,0.0502,7.75,5.0625,32.0625,210.0625,-23.625,154.125,0
1776973929.455,9.098,1.5251,0.7039,-0.5649,0.3128,0.2817,-87.6,4.2,-4.8,9.1889,2.229,0.6871,-0.2614,0.2372,0.3208,-74.55,9.15,-4.95,-4.13,-3.9,-7.95,0.0087,-0.3054,0.0502,7.75,5.0625,32.0625,210.0625,-23.75,154.125,0
1776973929.463,9.256,1.7454,0.589,-0.5012,0.316,0.2875,-88.5,5.25,-5.25,9.1842,2.2505,0.6608,-0.1815,0.2443,0.3142,-73.8,8.7,-4.95,-4.11,-3.98,-7.91,-0.0153,-0.2629,0.06,7.75,5.0625,32.0625,210.0625,-23.75,154.125,0
1776973929.469,9.1028,1.8244,0.6081,-0.4282,0.3264,0.291,-87.9,6.0,-3.45,9.1842,2.2505,0.6608,-0.1815,0.2443,0.3142,-73.8,8.7,-4.95,-4.11,-3.98,-7.91,-0.0458,-0.2149,0.0774,7.75,5.0625,32.0625,210.0625,-23.875,154.125,0
1776973929.474,9.1028,1.8244,0.6081,-0.4282,0.3264,0.291,-87.9,6.0,-3.45,9.3901,2.0518,0.2753,-0.1276,0.2193,0.2915,-73.35,8.7,-5.25,-3.91,-4.12,-7.72,-0.0458,-0.2149,0.0774,7.75,5.0625,32.0625,210.0625,-23.875,154.125,0
1776973929.479,9.3063,1.743,0.747,-0.3277,0.3269,0.3214,-87.15,4.05,-4.2,9.3901,2.0518,0.2753,-0.1276,0.2193,0.2915,-73.35,8.7,-5.25,-3.69,-4.21,-7.61,-0.0916,-0.1996,0.1102,8.875,5.75,32.0625,210.125,-24.0,154.1875,0
1776973929.484,9.3063,1.743,0.747,-0.3277,0.3269,0.3214,-87.15,4.05,-4.2,9.3494,1.585,0.4884,-0.0373,0.2182,0.2681,-73.35,8.7,-5.25,-3.69,-4.21,-7.61,-0.0916,-0.1996,0.1102,8.875,5.75,32.0625,210.125,-24.0,154.1875,0
1776973929.489,9.4547,1.8268,0.8475,-0.1833,0.3086,0.3501,-86.25,4.65,-3.3,9.3494,1.585,0.4884,-0.0373,0.2182,0.2681,-73.35,8.7,-5.25,-3.69,-4.21,-7.61,-0.1462,-0.2323,0.1462,8.875,5.75,32.0625,210.125,-24.1875,154.25,0
1776973929.494,9.4547,1.8268,0.8475,-0.1833,0.3086,0.3501,-86.25,4.65,-3.3,9.4188,1.3336,0.7398,-0.0322,0.243,0.2739,-73.2,10.05,-4.05,-3.65,-4.03,-7.7,-0.1462,-0.2323,0.1462,8.875,5.75,32.0625,210.125,-24.1875,154.25,0
1776973929.499,9.505,1.6209,0.9888,-0.0458,0.3333,0.3664,-86.25,4.65,-3.3,9.4188,1.3336,0.7398,-0.0322,0.243,0.2739,-73.2,10.05,-4.05,-3.65,-4.03,-7.7,-0.1844,-0.2716,0.18,8.875,5.75,32.0625,210.1875,-24.3125,154.3125,0
1776973929.504,9.505,1.6209,0.9888,-0.0458,0.3333,0.3664,-86.25,4.65,-3.3,9.7157,1.3384,0.6153,-0.0586,0.2585,0.2771,-73.2,10.05,-4.05,-4.03,-3.7,-7.98,-0.1844,-0.2716,0.18,8.875,5.75,32.0625,210.1875,-24.3125,154.3125,0
1776973929.513,9.6893,1.5897,0.8882,0.0594,0.34,0.377,-89.25,4.05,-3.9,9.6558,1.4557,0.6632,-0.0083,0.2409,0.275,-72.9,8.1,-5.85,-4.56,-3.82,-8.09,-0.1909,-0.2629,0.1778,8.875,5.75,32.0625,210.1875,-24.5,154.4375,0
1776973929.523,9.505,1.7071,1.0367,0.1708,0.3483,0.3712,-87.9,4.05,-3.45,9.5002,1.549,0.8811,0.0608,0.2449,0.2731,-72.45,8.55,-4.05,-4.39,-3.85,-8.04,-0.1778,-0.2247,0.1658,8.875,5.75,32.0625,210.25,-24.6875,154.5625,0
1776973929.528,9.1818,1.6065,1.2953,0.2419,0.3523,0.356,-86.7,3.3,-3.15,9.5002,1.549,0.8811,0.0608,0.2449,0.2731,-72.45,8.55,-4.05,-4.39,-3.85,-8.04,-0.1778,-0.2247,0.1658,8.875,5.75,32.0625,210.25,-24.6875,154.5625,0
1776973929.533,9.1818,1.6065,1.2953,0.2419,0.3523,0.356,-86.7,3.3,-3.15,9.4547,1.5802,0.7805,0.1212,0.2526,0.2611,-73.35,7.5,-4.95,-4.29,-3.76,-8.04,-0.1789,-0.1974,0.1647,9.1875,5.0625,31.6875,210.3125,-24.8125,154.6875,0
1776973929.538,9.2249,1.3886,1.4796,0.312,0.3832,0.3496,-87.3,3.45,-2.55,9.4499,1.561,0.8068,0.1212,0.2526,0.2611,-73.35,7.5,-4.95,-4.29,-3.76,-8.04,-0.1789,-0.1974,0.1647,9.1875,5.0625,31.6875,210.3125,-24.8125,154.6875,0
1776973929.543,9.2249,1.3886,1.4796,0.312,0.3832,0.3496,-87.3,3.45,-2.55,9.4499,1.561,0.8068,0.1868,0.2643,0.2467,-73.35,7.5,-4.95,-4.45,-3.94,-7.87,-0.204,-0.1789,0.1756,9.1875,5.0625,31.6875,210.375,-24.9375,154.8125,0
1776973929.549,9.3972,1.3168,1.6975,0.3778,0.413,0.3501,-87.3,3.45,-2.55,9.5984,1.6975,0.8308,0.2939,0.2545,0.2425,-73.35,8.4,-4.2,-4.45,-3.94,-7.87,-0.2345,-0.1396,0.1931,9.1875,5.0625,31.6875,210.4375,-25.0625,155.0,0
1776973929.554,9.3972,1.3168,1.6975,0.3778,0.413,0.3501,-87.3,3.45,-2.55,9.5984,1.6975,0.8308,0.2939,0.2545,0.2425,-73.35,8.4,-4.2,-4.13,-3.8,-7.91,-0.2345,-0.1396,0.1931,9.1875,5.0625,31.6875,210.5,-25.1875,155.1875,0
1776973929.564,9.505,1.1277,1.6879,0.4567,0.4186,0.3555,-87.3,3.45,-2.55,9.5481,1.6951,1.1803,0.4157,0.2497,0.2385,-72.9,9.0,-3.6,-4.22,-3.8,-7.95,-0.2683,-0.1484,0.2171,9.1875,5.0625,31.6875,210.5,-25.1875,155.1875,0
1776973929.569,9.3398,1.0582,1.719,0.5297,0.4021,0.3605,-88.05,3.9,-1.95,9.4332,1.6305,1.3599,0.4695,0.2571,0.2398,-72.9,9.0,-3.6,-4.22,-3.8,-7.95,-0.2793,-0.1385,0.2247,9.1875,5.0625,31.6875,210.5625,-25.3125,155.375,0
1776973929.575,9.3398,1.0582,1.719,0.5297,0.4021,0.3605,-87.6,2.4,-2.25,9.4332,1.6305,1.3599,0.4695,0.2571,0.2398,-72.9,9.0,-3.6,-4.42,-3.61,-8.07,-0.2793,-0.1385,0.2247,9.1875,5.0625,31.6875,210.5625,-25.3125,155.375,0
1776973929.579,9.2416,1.0008,1.6999,0.591,0.412,0.3475,-87.6,2.4,-2.25,9.4954,1.5227,1.075,0.4908,0.2382,0.2185,-72.9,9.0,-3.6,-4.42,-3.61,-8.07,-0.2793,-0.1385,0.2247,9.1875,5.75,31.6875,210.75,-25.4375,155.5625,0
1776973929.584,9.2416,1.0008,1.6999,0.6446,0.4293,0.3397,-87.0,1.2,-1.5,9.4954,1.5227,1.075,0.4908,0.2382,0.2185,-73.8,8.4,-4.2,-4.41,-3.76,-7.95,-0.2803,-0.0971,0.2116,9.1875,5.75,31.6875,210.75,-25.4375,155.5625,0
1776973929.589,9.3446,0.8284,1.6496,0.6446,0.4293,0.3397,-87.0,1.2,-1.5,9.4739,1.2522,1.0104,0.5199,0.2473,0.2081,-73.8,8.4,-4.2,-4.41,-3.76,-7.95,-0.2803,-0.0971,0.2116,9.1875,5.75,31.6875,210.8125,-25.5,155.75,0
1776973929.594,9.6319,0.6464,1.6616,0.6931,0.445,0.3384,-86.7,1.5,-1.05,9.4739,1.2522,1.0104,0.5199,0.2473,0.2081,-74.4,7.8,-4.05,-4.26,-3.81,-7.85,-0.2956,-0.0731,0.2127,9.1875,5.75,31.6875,210.8125,-25.5,155.75,0
1776973929.599,9.6319,0.6464,1.6616,0.6931,0.445,0.3384,-86.7,1.5,-1.05,9.596,0.9098,0.8619,0.4823,0.239,0.2046,-74.4,7.8,-4.05,-4.26,-3.81,-7.85,-0.3262,-0.0818,0.2203,9.1875,5.75,31.6875,210.875,-25.5625,155.9375,0
1776973929.604,9.9144,0.5363,1.6759,0.7695,0.4287,0.3392,-86.7,1.5,-1.05,9.596,0.9098,0.8619,0.4823,0.239,0.2046,-74.7,8.55,-4.35,-4.25,-3.7,-7.97,-0.3262,-0.0818,0.2203,9.1875,5.75,31.6875,210.875,-25.5625,155.9375,0
1776973929.612,9.9144,0.5363,1.6759,0.7695,0.4287,0.3392,-86.7,1.5,-1.05,9.8234,0.7254,1.0511,0.408,0.2499,0.2206,-74.7,8.55,-4.35,-4.58,-3.29,-8.3,-0.3436,-0.0916,0.2171,9.1875,5.75,31.6875,210.9375,-25.6875,156.1875,0
1776973929.616,10.1849,0.3831,1.5323,0.8146,0.4173,0.3363,-87.15,-0.3,-1.35,10.1394,0.7949,1.0319,0.3738,0.2542,0.2443,-73.65,8.1,-5.55,-4.58,-3.29,-8.3,-0.3436,-0.0916,0.2171,9.1875,5.75,31.6875,211.0,-25.75,156.4375,0
1776973929.624,10.07,0.3759,1.5203,0.7973,0.3949,0.3139,-87.15,1.8,-1.65,10.1394,0.7949,1.0319,0.3738,0.2542,0.2443,-74.1,7.5,-4.5,-4.69,-3.11,-8.43,-0.3251,-0.0829,0.192,9.1875,5.75,31.6875,211.0,-25.75,156.4375,0
1776973929.629,10.07,0.3759,1.5203,0.7973,0.3949,0.3139,-87.15,1.8,-1.65,10.058,0.8906,1.2115,0.3203,0.2342,0.2587,-74.1,7.5,-4.5,-4.69,-3.11,-8.43,-0.3251,-0.0829,0.192,9.1875,4.25,30.875,211.0625,-25.875,156.625,0
1776973929.634,9.8426,0.3376,1.2785,0.7099,0.397,0.2641,-88.05,1.95,-1.2,9.7875,1.2043,1.5371,0.3203,0.2342,0.2587,-73.8,7.95,-4.2,-4.36,-3.26,-8.31,-0.2913,-0.0862,0.1636,9.1875,4.25,30.875,211.0625,-25.875,156.625,0
1776973929.639,9.8426,0.3376,1.2785,0.7099,0.397,0.2641,-88.05,1.95,-1.2,9.7875,1.2043,1.5371,0.2177,0.1945,0.2417,-73.8,7.95,-4.2,-4.36,-3.26,-8.31,-0.2913,-0.0862,0.1636,9.1875,4.25,30.875,211.125,-25.9375,156.75,0
1776973929.644,9.8785,0.2993,1.1181,0.5836,0.4077,0.2321,-88.2,0.75,-0.3,9.493,1.5706,1.3695,0.2177,0.1945,0.2417,-73.8,7.95,-4.2,-4.6,-3.23,-8.29,-0.2509,-0.0873,0.1385,9.1875,4.25,30.875,211.125,-25.9375,156.75,0
1776973929.649,9.8785,0.2993,1.1181,0.5836,0.4077,0.2321,-88.2,0.75,-0.3,9.493,1.5706,1.3695,0.1889,0.1966,0.2305,-73.8,7.95,-4.2,-4.6,-3.23,-8.29,-0.2193,-0.0731,0.1189,9.1875,4.25,30.875,211.125,-26.0,156.9375,0
1776973929.655,9.56,0.2059,1.1277,0.4786,0.2979,0.2009,-88.2,0.75,-0.3,9.4403,1.5874,0.9816,0.17,0.1919,0.2348,-75.15,7.35,-2.85,-4.51,-3.43,-8.19,-0.2193,-0.0731,0.1189,9.1875,4.25,30.875,211.1875,-26.0625,157.0625,0
1776973929.664,9.754,0.2538,1.0606,0.3509,0.3962,0.1924,-86.55,0.9,-0.15,9.4523,1.506,0.8404,0.1567,0.1889,0.234,-75.15,7.35,-2.85,-4.54,-3.4,-8.12,-0.1996,-0.0578,0.1047,9.1875,4.25,30.875,211.1875,-26.0625,157.0625,0
1776973929.669,9.754,0.2538,1.0606,0.3509,0.3962,0.1924,-86.55,0.9,-0.15,9.4523,1.506,0.8404,0.1567,0.1889,0.234,-74.85,7.2,-6.0,-4.54,-3.4,-8.12,-0.1876,-0.0327,0.0916,9.1875,4.25,30.875,211.1875,-26.0625,157.1875,0
1776973929.675,9.7731,0.3687,1.0295,0.2763,0.3451,0.1857,-86.25,0.9,-0.75,9.4499,1.4198,0.9625,0.1255,0.2113,0.2433,-74.55,9.45,-4.95,-4.45,-3.28,-8.17,-0.1876,-0.0327,0.0916,9.1875,4.25,30.875,211.1875,-26.0625,157.1875,0
1776973929.68,9.7731,0.3687,1.0295,0.2763,0.3451,0.1857,-86.25,0.9,-0.75,9.4499,1.4198,0.9625,0.1255,0.2113,0.2433,-74.55,9.45,-4.95,-4.53,-3.25,-8.18,-0.1822,-0.0218,0.084,10.0,4.0,31.75,211.25,-26.125,157.3125,0
1776973929.685,9.8617,0.4429,1.0175,0.2148,0.3219,0.1767,-88.35,0.45,0.15,9.6606,1.4126,1.1229,0.0687,0.2374,0.2459,-73.35,9.45,-4.95,-4.53,-3.25,-8.18,-0.1822,-0.0218,0.084,10.0,4.0,31.75,211.25,-26.125,157.3125,0
1776973929.693,9.9838,0.6081,1.0199,0.1127,0.283,0.1644,-87.9,-0.75,1.05,9.7875,1.4676,1.0558,0.0163,0.2172,0.2395,-73.35,8.7,-5.25,-4.47,-3.22,-8.18,-0.1647,-0.0229,0.0742,10.0,4.0,31.75,211.25,-26.1875,157.4375,0
1776973929.698,9.9838,0.6081,1.0199,0.1127,0.283,0.1644,-87.9,-0.75,1.05,9.7875,1.4676,1.0558,0.0163,0.2172,0.2395,-75.3,6.45,-5.7,-4.47,-3.22,-8.18,-0.1484,-0.0316,0.0709,10.0,4.0,31.75,211.25,-26.1875,157.5,0
1776973929.705,9.6175,0.5531,1.1301,0.0274,0.2998,0.1335,-87.9,-0.75,1.05,9.6869,1.7047,1.1971,0.04,0.1839,0.2435,-75.3,6.45,-5.7,-4.31,-3.28,-8.2,-0.1484,-0.0316,0.0709,10.0,4.0,31.75,211.25,-26.1875,157.5,0
1776973929.713,9.6223,0.6033,1.2091,-0.0786,0.2777,0.11,-87.9,-0.75,1.05,9.4667,1.6807,0.8882,0.044,0.174,0.2326,-74.55,5.55,-5.25,-4.56,-3.37,-8.1,-0.1451,-0.0382,0.0731,10.0,4.0,31.75,211.25,-26.25,157.625,0
1776973929.718,9.6223,0.6033,1.2091,-0.0786,0.2777,0.11,-87.9,-0.75,1.05,9.4667,1.6807,0.8882,0.044,0.174,0.2326,-74.55,5.55,-5.25,-4.56,-3.37,-8.1,-0.1276,-0.0305,0.0644,10.0,4.0,31.75,211.3125,-26.25,157.6875,0
1776973929.725,9.7085,0.5746,1.3551,-0.2182,0.2441,0.097,-87.45,1.8,0.6,9.3565,1.652,1.0032,0.0738,0.1871,0.2276,-74.55,5.55,-5.25,-4.5,-3.32,-8.09,-0.1276,-0.0305,0.0644,10.0,4.0,31.75,211.3125,-26.25,157.6875,0
1776973929.73,9.7085,0.5746,1.3551,-0.3112,0.2212,0.0829,-87.45,1.8,0.6,9.3565,1.652,1.0032,0.0738,0.1871,0.2276,-75.9,7.35,-3.3,-4.5,-3.32,-8.09,-0.1276,-0.0305,0.0644,9.5625,3.5625,30.1875,211.3125,-26.3125,157.75,0
1776973929.735,9.6199,0.5674,1.47,-0.3112,0.2212,0.0829,-89.25,0.75,0.3,9.4619,1.5658,0.9361,0.0613,0.2046,0.239,-75.9,7.35,-3.3,-4.41,-3.25,-8.11,-0.1189,-0.0295,0.0622,9.5625,3.5625,30.1875,211.3125,-26.3125,157.75,0
1776973929.739,9.6199,0.5674,1.47,-0.3211,0.1764,0.0813,-89.25,0.75,0.3,9.4619,1.5658,0.9361,0.0613,0.2046,0.239,-75.9,7.35,-3.3,-4.41,-3.25,-8.11,-0.1189,-0.0295,0.0622,9.5625,3.5625,30.1875,211.3125,-26.3125,157.875,0
1776973929.744,9.6917,0.8571,1.4868,-0.3211,0.1764,0.0813,-88.05,-0.45,1.95,9.6295,1.7789,0.9002,0.0405,0.2065,0.2438,-75.9,7.35,-3.3,-4.37,-3.23,-8.08,-0.1134,-0.0371,0.0622,9.5625,3.5625,30.1875,211.3125,-26.3125,157.875,0
1776973929.749,9.6031,1.0582,1.5275,-0.3389,0.1306,0.073,-88.05,-0.45,1.95,9.7659,1.7573,0.6297,0.0405,0.2065,0.2438,-74.4,8.1,-3.6,-4.37,-3.23,-8.08,-0.1124,-0.0425,0.0644,9.5625,3.5625,30.1875,211.375,-26.375,157.9375,0
1776973929.755,9.6031,1.0582,1.5275,-0.3389,0.1306,0.073,-88.35,0.15,-1.2,9.7659,1.7573,0.6297,-0.0181,0.1508,0.2467,-74.4,8.1,-3.6,-4.34,-3.31,-8.13,-0.1124,-0.0425,0.0644,9.5625,3.5625,30.1875,211.375,-26.375,157.9375,0
1776973929.764,9.6151,1.2258,1.5514,-0.3339,0.1569,0.057,-88.35,0.15,-1.2,9.5289,1.3647,1.0008,0.0011,0.1258,0.238,-74.4,7.35,-4.35,-4.41,-3.29,-8.1,-0.108,-0.0589,0.072,9.5625,3.5625,30.1875,211.375,-26.4375,158.0,0
1776973929.769,9.6223,1.2354,1.3336,-0.3304,0.1543,0.0453,-88.35,0.15,-1.2,9.4355,1.1923,1.0798,0.0011,0.1258,0.238,-74.1,6.45,-5.25,-4.41,-3.29,-8.1,-0.1025,-0.0644,0.0731,9.5625,3.5625,30.1875,211.375,-26.4375,158.0625,0
1776973929.775,9.6223,1.2354,1.3336,-0.3304,0.1543,0.0453,-88.05,-0.15,0.45,9.4355,1.1923,1.0798,0.004,0.1649,0.2633,-74.1,6.45,-5.25,-4.5,-3.24,-8.15,-0.1025,-0.0644,0.0731,9.5625,3.5625,30.1875,211.375,-26.4375,158.0625,0
1776973929.78,9.5409,1.1708,1.3336,-0.3211,0.1828,0.0309,-88.05,-0.15,0.45,9.5289,1.1013,1.0846,-0.0384,0.1644,0.2795,-75.3,6.75,-5.25,-4.5,-3.24,-8.15,-0.0982,-0.0556,0.0654,10.0,3.5625,31.75,211.4375,-26.5,158.125,0
1776973929.785,9.5409,1.1708,1.3336,-0.3211,0.1828,0.0309,-89.1,0.15,0.75,9.5289,1.1013,1.0846,-0.0384,0.1644,0.2795,-75.3,6.75,-5.25,-4.68,-3.2,-8.14,-0.0982,-0.0556,0.0654,10.0,3.5625,31.75,211.4375,-26.5,158.125,0
1776973929.793,9.3877,1.1229,1.6281,-0.3243,0.203,0.024,-88.35,0.15,1.2,9.584,1.1013,1.2139,-0.0405,0.1607,0.2825,-75.3,6.75,-5.25,-4.57,-3.17,-8.17,-0.0796,-0.0436,0.0545,10.0,3.5625,31.75,211.5,-26.5625,158.1875,0
1776973929.798,9.4379,0.9744,1.64,-0.2872,0.1921,0.0381,-88.35,0.15,1.2,9.5505,0.9122,0.9433,-0.0405,0.1607,0.2825,-73.8,6.45,-4.95,-4.57,-3.17,-8.17,-0.0654,-0.0349,0.0436,10.0,3.5625,31.75,211.5,-26.5625,158.25,0
1776973929.805,9.4379,0.9744,1.64,-0.2872,0.1921,0.0381,-88.35,0.15,-0.15,9.5505,0.9122,0.9433,-0.0679,0.1498,0.2713,-73.8,6.45,-4.95,-4.57,-3.2,-8.15,-0.0654,-0.0349,0.0436,10.0,3.5625,31.75,211.5,-26.5625,158.25,0
1776973929.813,9.5409,0.9457,1.7526,-0.2459,0.1972,0.0501,-88.35,0.15,-0.15,9.5313,0.7949,1.2881,-0.0727,0.1644,0.2595,-73.8,6.45,-4.95,-4.5,-3.2,-8.09,-0.0654,-0.0305,0.0415,10.0,3.5625,31.75,211.5,-26.625,158.25,0
1776973929.818,9.5696,0.917,1.81,-0.2006,0.1775,0.0775,-88.35,0.15,-0.15,9.6247,0.7709,1.2929,-0.0743,0.1732,0.2622,-74.55,7.2,-4.5,-4.5,-3.2,-8.09,-0.0654,-0.0305,0.0415,10.0,3.5625,31.75,211.5,-26.625,158.3125,0
1776973929.825,9.5696,0.917,1.81,-0.2006,0.1775,0.0775,-88.8,0.45,0.75,9.6247,0.7709,1.2929,-0.0743,0.1732,0.2622,-74.55,7.2,-4.5,-4.53,-3.14,-8.16,-0.0654,-0.024,0.0382,10.0,3.5625,31.75,211.5,-26.625,158.3125,0
1776973929.83,9.4595,0.8452,1.8483,-0.1689,0.1551,0.0874,-88.8,0.45,0.75,9.6462,0.7446,1.4557,-0.0725,0.1705,0.2649,-74.1,5.25,-3.75,-4.53,-3.14,-8.16,-0.0654,-0.024,0.0382,10.0,3.5625,31.75,211.625,-26.625,158.375,0
1776973929.835,9.4595,0.8452,1.8483,-0.1689,0.1551,0.0874,-87.9,0.3,1.35,9.6462,0.7446,1.4557,-0.0725,0.1705,0.2649,-74.1,5.25,-3.75,-4.61,-3.08,-8.2,-0.0644,-0.0262,0.0349,9.5625,3.25,31.75,211.625,-26.625,158.375,0
1776973929.839,9.3422,0.8499,1.9824,-0.1303,0.1561,0.0962,-87.9,0.3,1.35,9.6989,0.6584,1.4916,-0.0413,0.1657,0.2678,-73.65,5.4,-2.85,-4.61,-3.08,-8.2,-0.0644,-0.0262,0.0349,9.5625,3.25,31.75,211.625,-26.6875,158.4375,0
1776973929.844,9.3422,0.8499,1.9824,-0.1303,0.1561,0.0962,-88.95,-1.5,1.05,9.6989,0.6584,1.4916,-0.0413,0.1657,0.2678,-73.65,5.4,-2.85,-4.54,-3.18,-8.1,-0.0589,-0.0196,0.0305,9.5625,3.25,31.75,211.625,-26.6875,158.4375,0
1776973929.849,9.3326,0.8356,2.0111,-0.1013,0.1583,0.1108,-89.4,-1.5,1.05,9.7731,0.6297,1.4844,-0.0754,0.146,0.235,-74.7,6.6,-2.55,-4.54,-3.18,-8.1,-0.0578,-0.0131,0.0284,9.5625,3.25,31.75,211.625,-26.6875,158.4375,0
1776973929.855,9.3326,0.8356,2.0111,-0.1013,0.1583,0.1108,-89.4,-0.9,-0.45,9.6582,0.5267,1.7621,-0.0754,0.146,0.235,-74.7,6.6,-2.55,-4.42,-3.29,-8.08,-0.0578,-0.0131,0.0284,9.5625,3.25,31.75,211.625,-26.6875,158.4375,0
1776973929.864,9.3541,0.8332,2.1189,-0.0677,0.15,0.1319,-88.2,0.0,0.3,9.6582,0.5267,1.7621,-0.0735,0.1351,0.2086,-73.2,5.85,-3.6,-4.46,-3.18,-8.08,-0.06,-0.012,0.0316,9.5625,3.25,31.75,211.625,-26.6875,158.5,0
1776973929.869,9.3781,0.7087,2.2075,-0.0434,0.1356,0.1426,-88.2,0.0,0.3,9.7252,0.6393,1.5419,-0.0842,0.1188,0.2038,-73.95,4.95,-2.1,-4.46,-3.18,-8.08,-0.0665,-0.0218,0.0371,9.5625,3.25,31.75,211.6875,-26.75,158.5,0
1776973929.875,9.4595,0.5363,2.1644,-0.0048,0.1306,0.1655,-88.2,0.0,0.3,9.6917,0.498,1.3719,-0.0949,0.0861,0.1977,-73.95,4.95,-2.1,-4.4,-3.24,-8.09,-0.0665,-0.0218,0.0371,9.5625,3.25,31.75,211.6875,-26.75,158.5,0
1776973929.88,9.4595,0.5363,2.1644,-0.0048,0.1306,0.1655,-88.2,-1.5,1.05,9.6917,0.498,1.3719,-0.0949,0.0861,0.1977,-73.95,4.95,-2.1,-4.4,-3.24,-8.09,-0.0654,-0.0382,0.0458,9.5625,1.75,30.5625,211.6875,-26.75,158.5625,0
1776973929.885,9.5265,0.4597,2.1237,0.0368,0.1484,0.1745,-88.2,-1.5,1.05,9.5505,0.3831,1.5754,-0.1069,0.097,0.1982,-73.95,4.95,-2.1,-4.62,-3.16,-8.1,-0.0654,-0.0382,0.0458,9.5625,1.75,30.5625,211.6875,-26.75,158.5625,0
1776973929.893,9.5265,0.4597,2.1237,0.0368,0.1484,0.1745,-88.35,-0.45,0.75,9.5505,0.3831,1.5754,-0.1069,0.097,0.1982,-73.65,4.95,-2.1,-4.6,-3.13,-8.11,-0.0622,-0.036,0.0447,9.5625,1.75,30.5625,211.6875,-26.8125,158.625,0
1776973929.898,9.6175,0.4621,1.9728,0.0829,0.1516,0.1887,-88.35,-0.45,0.75,9.584,0.5698,1.3647,-0.1098,0.1034,0.1961,-73.2,4.65,-3.3,-4.6,-3.13,-8.11,-0.0622,-0.036,0.0447,9.5625,1.75,30.5625,211.6875,-26.8125,158.6875,0
1776973929.905,9.6295,0.4334,1.9704,0.1199,0.1492,0.1919,-89.1,-0.9,0.15,9.5864,0.7374,1.3288,-0.0959,0.0994,0.1953,-73.2,4.65,-3.3,-4.59,-3.12,-8.15,-0.0611,-0.0262,0.0349,9.5625,1.75,30.5625,211.6875,-26.8125,158.6875,0
1776973929.914,9.5744,0.34,1.8555,0.1135,0.1426,0.1884,-87.6,-2.4,0.75,9.56,0.7374,1.2498,-0.0719,0.0959,0.194,-73.2,4.65,-3.6,-4.62,-3.07,-8.15,-0.0622,-0.0207,0.0349,9.5625,1.75,30.5625,211.6875,-26.8125,158.6875,0
1776973929.919,9.5744,0.34,1.8555,0.1135,0.1426,0.1884,-87.6,-2.4,0.75,9.56,0.7374,1.2498,-0.0719,0.0959,0.194,-75.9,4.65,-4.05,-4.62,-3.07,-8.15,-0.06,-0.0164,0.0273,9.5625,1.75,30.5625,211.6875,-26.875,158.75,0
1776973929.925,9.6151,0.3855,1.7358,0.1061,0.1188,0.1868,-87.6,-2.4,0.75,9.596,0.5842,1.4246,-0.0341,0.093,0.1937,-75.9,4.65,-4.05,-4.63,-3.1,-8.16,-0.06,-0.0164,0.0273,9.5625,1.75,30.5625,211.6875,-26.875,158.75,0
1776973929.93,9.6151,0.3855,1.7358,0.1061,0.1188,0.1868,-87.9,-1.05,1.05,9.596,0.5842,1.4246,-0.0341,0.093,0.1937,-74.4,4.65,-2.85,-4.63,-3.1,-8.16,-0.06,-0.0164,0.0273,10.375,2.875,31.0,211.6875,-26.875,158.75,0
1776973929.935,9.651,0.3855,1.6807,0.0626,0.1218,0.1897,-87.9,-1.05,1.05,9.6247,0.6536,1.4413,-0.0389,0.1066,0.2126,-74.4,4.65,-2.85,-4.64,-3.08,-8.18,-0.0524,-0.0055,0.0196,10.375,2.875,31.0,211.6875,-26.875,158.75,0
1776973929.94,9.651,0.3855,1.6807,0.0626,0.1218,0.1897,-87.6,-1.95,0.45,9.6247,0.6536,1.4413,-0.0389,0.1066,0.2126,-74.4,5.4,-2.1,-4.64,-3.08,-8.18,-0.0524,-0.0055,0.0196,10.375,2.875,31.0,211.6875,-26.875,158.8125,0
1776973929.945,9.7707,0.5818,1.5323,0.0056,0.1143,0.1879,-87.6,-1.95,0.45,9.7037,0.8212,1.4796,-0.0954,0.1047,0.2132,-74.4,5.4,-2.1,-4.6,-3.04,-8.19,-0.048,0.0033,0.012,10.375,2.875,31.0,211.6875,-26.875,158.8125,0
1776973929.95,9.7707,0.5818,1.5323,0.0056,0.1143,0.1879,-87.45,-0.75,2.1,9.7037,0.8212,1.4796,-0.0954,0.1047,0.2132,-74.4,5.4,-2.1,-4.6,-3.04,-8.19,-0.0393,0.0065,0.0055,10.375,2.875,31.0,211.6875,-26.875,158.8125,0
1776973929.955,9.7229,0.723,1.4054,-0.0528,0.1242,0.1777,-87.45,-0.75,2.1,9.7971,0.9313,1.0774,-0.1673,0.0874,0.2148,-74.4,5.4,-2.1,-4.46,-3.16,-8.16,-0.0393,0.0065,0.0055,10.375,2.875,31.0,211.6875,-26.875,158.875,0
1776973929.964,9.6175,0.9026,1.2929,-0.0914,0.118,0.1625,-88.5,-0.3,1.65,9.5481,0.9026,0.9146,-0.1756,0.0642,0.211,-75.3,4.05,-2.7,-4.53,-3.18,-8.17,-0.0305,-0.0044,0.0087,10.375,2.875,31.0,211.6875,-26.875,158.875,0
1776973929.973,9.6247,1.0151,1.1971,-0.1439,0.125,0.1506,-88.5,-0.3,1.65,9.3565,1.1708,1.2498,-0.1868,0.0965,0.2196,-73.95,4.95,-4.35,-4.52,-3.19,-8.08,-0.0295,-0.0087,0.0087,10.375,2.875,31.0,211.6875,-26.875,158.875,0
1776973929.977,9.6247,1.0151,1.1971,-0.1439,0.125,0.1506,-88.5,-0.3,1.65,9.3565,1.1708,1.2498,-0.1868,0.0965,0.2196,-73.95,4.65,-3.3,-4.52,-3.19,-8.08,-0.0295,-0.0087,0.0087,10.375,2.875,31.0,211.6875,-26.875,158.875,0
1776973929.982,9.6606,1.221,1.1779,-0.1591,0.1362,0.1458,-88.5,-0.3,1.65,9.5146,1.336,1.0343,-0.1769,0.1087,0.2241,-73.95,4.65,-3.3,-4.47,-3.19,-8.1,-0.0338,-0.0076,0.012,10.0625,2.5,30.5625,211.6875,-26.875,158.875,0
1776973929.987,9.6606,1.221,1.1779,-0.1591,0.1362,0.1458,-88.5,-0.3,1.65,9.5146,1.336,1.0343,-0.1769,0.1087,0.2241,-73.95,4.65,-3.3,-4.47,-3.19,-8.1,-0.0338,-0.0076,0.012,10.0625,2.5,30.5625,211.6875,-26.875,158.875,0
1776973929.992,9.5696,1.2019,1.1085,-0.1511,0.1287,0.1378,-86.7,-2.25,1.65,9.5265,1.1468,1.1827,-0.085,0.1122,0.2385,-74.4,4.65,-3.3,-4.54,-3.16,-8.09,-0.0371,-0.012,0.0175,10.0625,2.5,30.5625,211.6875,-26.875,158.9375,0
1776973929.997,9.5696,1.2019,1.1085,-0.1511,0.1287,0.1378,-86.7,-2.25,1.65,9.5265,1.1468,1.1827,-0.085,0.1122,0.2385,-74.4,4.65,-3.3,-4.54,-3.16,-8.09,-0.0371,-0.012,0.0175,10.0625,2.5,30.5625,211.6875,-26.875,158.9375,0
1776973930.002,9.6558,1.166,1.2186,-0.1951,0.1354,0.1444,-87.15,-2.25,1.05,9.5577,0.7015,1.324,-0.0445,0.1207,0.2609,-73.95,3.0,-2.55,-4.58,-3.12,-8.12,-0.0447,-0.0109,0.0164,10.0625,2.5,30.5625,211.6875,-26.875,158.9375,0
1776973930.006,9.6558,1.166,1.2186,-0.1951,0.1354,0.1444,-87.15,-2.25,1.05,9.5577,0.7015,1.324,-0.0445,0.1207,0.2609,-73.95,3.0,-2.55,-4.58,-3.12,-8.12,-0.0447,-0.0109,0.0164,10.0625,2.5,30.5625,211.6875,-26.9375,159.0,0
1776973930.015,9.5696,1.1492,1.3024,-0.2731,0.1556,0.1508,-88.05,-1.95,2.25,9.6414,0.5674,1.391,-0.064,0.114,0.2646,-74.55,4.5,-2.4,-4.61,-3.06,-8.16,-0.0436,-0.0098,0.0185,10.0625,2.5,30.5625,211.6875,-26.9375,159.0,0
1776973930.023,9.4882,1.087,1.3408,-0.3477,0.1625,0.1567,-88.05,-1.95,1.95,9.5624,0.4262,1.1444,-0.1015,0.1111,0.2745,-74.55,4.5,-2.4,-4.63,-3.12,-8.14,-0.0425,-0.0044,0.0131,10.0625,2.5,30.5625,211.6875,-26.9375,159.0,0
1776973930.028,9.4882,1.087,1.3408,-0.3477,0.1625,0.1567,-88.05,-1.95,1.95,9.481,0.5052,1.4437,-0.1015,0.1111,0.2745,-74.85,4.5,-2.4,-4.63,-3.12,-8.14,-0.0425,-0.0044,0.0131,10.0625,2.5,30.5625,211.6875,-26.9375,159.0,0
1776973930.033,9.5002,1.0247,1.3479,-0.3954,0.1767,0.1639,-88.05,-1.95,1.95,9.481,0.5052,1.4437,-0.1119,0.1346,0.2777,-74.85,4.5,-1.95,-4.6,-3.1,-8.13,-0.0425,-0.0033,0.0098,11.1875,2.875,31.0,211.625,-26.9375,159.0,0
1776973930.038,9.5002,1.0247,1.3479,-0.3954,0.1767,0.1639,-87.15,-1.5,2.1,9.5505,0.747,1.4796,-0.1119,0.1346,0.2777,-74.85,4.5,-1.95,-4.6,-3.1,-8.13,-0.0425,-0.0033,0.0098,11.1875,2.875,31.0,211.625,-26.9375,159.0,0
1776973930.043,9.5146,0.9409,1.4653,-0.3869,0.1841,0.1735,-87.15,-1.5,2.1,9.5505,0.747,1.4796,-0.1426,0.1628,0.2734,-74.85,4.5,-1.95,-4.54,-3.14,-8.13,-0.0447,0.0065,0.0055,11.1875,2.875,31.0,211.625,-26.9375,159.0625,0
1776973930.048,9.5146,0.9409,1.4653,-0.3869,0.1841,0.1735,-88.05,-2.4,2.55,9.6726,0.9912,1.6137,-0.1279,0.1607,0.2782,-73.8,4.5,-1.95,-4.54,-3.14,-8.13,-0.0447,0.0065,0.0055,11.1875,2.875,31.0,211.625,-26.9375,159.0625,0
1776973930.055,9.5313,0.8475,1.6975,-0.3453,0.2105,0.1777,-88.05,-2.4,2.55,9.6726,0.9912,1.6137,-0.1279,0.1607,0.2782,-73.8,4.5,-1.65,-4.49,-3.15,-8.14,-0.0469,0.0153,0.0044,11.1875,2.875,31.0,211.625,-26.9375,159.0625,0
1776973930.061,9.5193,0.8284,1.8507,-0.2832,0.1884,0.1879,-87.3,-0.15,1.95,9.7109,0.9337,1.4676,-0.0919,0.1295,0.2822,-74.7,2.7,-1.35,-4.53,-3.14,-8.12,-0.0469,0.0087,0.0076,11.1875,2.875,31.0,211.625,-26.9375,159.125,0
1776973930.066,9.5193,0.8284,1.8507,-0.2832,0.1884,0.1879,-86.7,-2.25,1.65,9.7109,0.9337,1.4676,-0.0919,0.1295,0.2822,-74.7,2.7,-1.35,-4.53,-3.14,-8.12,-0.0469,0.0087,0.0076,11.1875,2.875,31.0,211.625,-26.9375,159.125,0
1776973930.075,9.4571,0.8068,2.0542,-0.2049,0.1721,0.1996,-86.7,-2.25,1.65,9.6271,0.3926,1.6855,-0.0368,0.1188,0.2928,-75.3,2.85,-1.95,-4.58,-3.1,-8.14,-0.0469,0.0011,0.012,11.1875,2.875,31.0,211.625,-26.9375,159.125,0
1776973930.08,9.4475,0.9146,2.2003,-0.1639,0.1545,0.2094,-86.7,-2.25,1.65,9.5984,0.0263,1.7717,-0.0514,0.1148,0.3024,-75.6,3.6,-2.4,-4.58,-3.1,-8.14,-0.0469,0.0011,0.012,9.6875,2.5,32.1875,211.6875,-26.9375,159.125,0
1776973930.085,9.4475,0.9146,2.2003,-0.1639,0.1545,0.2094,-86.7,-2.25,1.65,9.5984,0.0263,1.7717,-0.0514,0.1148,0.3024,-75.6,3.6,-2.4,-4.61,-3.08,-8.13,-0.0469,0.0022,0.0131,9.6875,2.5,32.1875,211.6875,-26.9375,159.125,0
1776973930.09,9.3254,0.8547,2.4014,-0.1679,0.1895,0.2297,-87.9,-1.8,2.1,9.6175,0.0144,1.5993,-0.1247,0.1226,0.3099,-75.6,3.6,-2.4,-4.61,-3.08,-8.13,-0.0469,0.0022,0.0131,9.6875,2.5,32.1875,211.6875,-26.9375,159.1875,0
1776973930.095,9.3254,0.8547,2.4014,-0.1679,0.1895,0.2297,-87.9,-1.8,2.1,9.6175,0.0144,1.5993,-0.1247,0.1226,0.3099,-75.6,3.6,-2.4,-4.62,-3.08,-8.13,-0.0425,0.0033,0.0098,9.6875,2.5,32.1875,211.6875,-26.9375,159.1875,0
1776973930.1,9.2584,0.7326,2.4493,-0.1053,0.1593,0.2417,-88.05,-2.7,2.25,9.6582,0.2298,1.4629,-0.1537,0.126,0.3,-75.3,2.85,-1.95,-4.62,-3.08,-8.13,-0.0425,0.0098,0.0076,9.6875,2.5,32.1875,211.6875,-26.9375,159.1875,0
1776973930.106,9.2584,0.7326,2.4493,-0.1053,0.1593,0.2417,-87.9,-1.5,2.4,9.584,0.3735,1.6592,-0.1537,0.126,0.3,-75.3,2.85,-1.95,-4.62,-3.01,-8.21,-0.0425,0.0098,0.0076,9.6875,2.5,32.1875,211.6875,-26.9375,159.25,0
1776973930.115,9.4858,0.7566,2.4086,-0.138,0.2244,0.2529,-87.9,-1.5,2.4,9.6271,0.431,1.5203,-0.1665,0.1236,0.3035,-75.3,2.85,-1.95,-4.56,-3.06,-8.14,-0.0415,0.0175,0.0033,9.6875,2.5,32.1875,211.6875,-26.9375,159.25,0
1776973930.121,9.2632,0.6871,2.2817,-0.0879,0.1684,0.2523,-88.2,-1.8,1.65,9.6271,0.431,1.5203,-0.1633,0.1319,0.3027,-74.85,3.3,-2.7,-4.57,-3.06,-8.15,-0.0382,0.0229,0.0011,9.6875,2.5,32.1875,211.6875,-26.9375,159.25,0
1776973930.126,9.2632,0.6871,2.2817,-0.0839,0.1982,0.2577,-88.2,-3.0,1.65,9.5577,0.6057,1.652,-0.126,0.1274,0.3182,-74.85,3.3,-2.7,-4.57,-3.06,-8.15,-0.0382,0.0229,0.0011,9.6875,2.5,32.1875,211.6875,-26.9375,159.25,0
1776973930.131,9.4619,0.7709,2.0111,-0.0839,0.1982,0.2577,-88.2,-3.0,1.65,9.5577,0.6057,1.652,-0.126,0.1274,0.3182,-74.1,2.1,-0.15,-4.63,-3.04,-8.15,-0.0382,0.0295,0.0,10.0625,2.0625,31.75,211.6875,-26.9375,159.25,0
1776973930.136,9.4619,0.7709,2.0111,-0.0576,0.2017,0.2662,-88.2,-3.0,1.65,9.5241,0.656,1.6041,-0.0957,0.1324,0.3451,-74.1,2.1,-0.15,-4.63,-3.04,-8.15,-0.0382,0.0295,0.0,10.0625,2.0625,31.75,211.6875,-26.9375,159.25,0
1776973930.141,9.426,0.8404,1.9369,-0.0576,0.2017,0.2662,-88.2,-3.0,1.65,9.5241,0.656,1.6041,-0.0957,0.1324,0.3451,-76.05,2.4,-1.65,-4.58,-3.0,-8.19,-0.0382,0.0305,-0.0044,10.0625,2.0625,31.75,211.6875,-26.875,159.3125,0
1776973930.146,9.3757,0.7853,1.7837,-0.0453,0.2097,0.2705,-88.35,-3.45,1.95,9.5457,0.6081,1.7119,-0.0866,0.1332,0.3507,-76.05,2.4,-1.65,-4.58,-3.0,-8.19,-0.0382,0.0305,-0.0044,10.0625,2.0625,31.75,211.6875,-26.875,159.3125,0
1776973930.151,9.3757,0.7853,1.7837,-0.0453,0.2097,0.2705,-88.35,-3.45,1.95,9.5457,0.6081,1.7119,-0.0866,0.1332,0.3507,-74.85,3.6,-1.95,-4.58,-3.0,-8.19,-0.0415,0.0393,-0.0033,10.0625,2.0625,31.75,211.6875,-26.875,159.3125,0
1776973930.156,9.414,0.9266,1.7166,-0.048,0.2385,0.2705,-89.1,-2.7,4.35,9.6199,0.6033,1.4916,-0.1108,0.1236,0.3531,-74.85,3.6,-1.95,-4.55,-3.09,-8.14,-0.0415,0.0393,-0.0033,10.0625,2.0625,31.75,211.6875,-26.875,159.375,0
1776973930.165,9.414,0.9266,1.7166,-0.0714,0.2395,0.2779,-89.1,-4.2,1.2,9.5936,0.3472,1.3743,-0.1202,0.1172,0.3608,-74.1,1.35,-1.65,-4.5,-3.19,-8.08,-0.0415,0.0436,-0.0033,10.0625,2.0625,31.75,211.6875,-26.875,159.375,0
1776973930.172,9.5672,0.6345,1.652,-0.0714,0.2395,0.2779,-89.1,-4.2,1.2,9.6079,0.1317,1.5107,-0.1202,0.1172,0.3608,-74.7,1.5,-2.1,-4.54,-3.09,-8.12,-0.0524,0.0458,0.0,10.0625,2.0625,31.75,211.6875,-26.875,159.375,0
1776973930.177,9.6127,0.6416,1.6472,-0.0941,0.2249,0.2761,-88.05,-3.9,1.95,9.6079,0.1317,1.5107,-0.1047,0.1242,0.3677,-74.7,1.5,-2.1,-4.54,-3.09,-8.12,-0.0524,0.0458,0.0,10.0625,2.0625,31.75,211.6875,-26.875,159.375,0
1776973930.182,9.6127,0.6416,1.6472,-0.0941,0.2249,0.2761,-88.05,-3.9,1.95,9.5265,0.1437,1.5155,-0.1047,0.1242,0.3677,-74.7,1.5,-2.1,-4.57,-2.97,-8.17,-0.0567,0.048,0.0044,10.0625,2.0625,31.375,211.6875,-26.8125,159.4375,0
1776973930.187,9.5481,0.5483,1.6209,-0.1458,0.23,0.2856,-88.05,-3.9,1.95,9.5265,0.1437,1.5155,-0.1186,0.1487,0.3856,-74.7,1.5,-2.1,-4.57,-2.97,-8.17,-0.0567,0.048,0.0044,10.0625,2.0625,31.375,211.6875,-26.8125,159.4375,0
1776973930.195,9.5457,0.498,1.6257,-0.1729,0.2196,0.2795,-87.9,-3.75,3.9,9.572,0.3831,1.3671,-0.1452,0.1442,0.3952,-74.55,1.65,-0.15,-4.56,-3.02,-8.19,-0.0567,0.0425,0.0022,10.0625,2.0625,31.375,211.6875,-26.8125,159.4375,0
1776973930.202,9.5457,0.498,1.6257,-0.1729,0.2196,0.2795,-87.9,-3.75,3.9,9.4403,0.6225,1.3695,-0.1452,0.1442,0.3952,-75.6,1.65,-2.4,-4.56,-3.03,-8.17,-0.0578,0.0469,0.0022,10.0625,2.0625,31.375,211.6875,-26.8125,159.5,0
1776973930.206,9.4379,0.5124,1.5921,-0.2097,0.2092,0.2806,-87.0,-4.2,1.5,9.4403,0.6225,1.3695,-0.1148,0.1428,0.4016,-75.6,1.65,-2.4,-4.56,-3.03,-8.17,-0.0578,0.0469,0.0022,10.0625,2.0625,31.375,211.6875,-26.75,159.5625,0
1776973930.215,9.4284,0.5363,1.5802,-0.2265,0.2169,0.2659,-86.7,-3.75,2.4,9.3063,0.9481,1.5467,-0.0999,0.1636,0.4173,-74.85,2.1,-3.45,-4.55,-3.0,-8.12,-0.0589,0.0491,0.0022,10.0625,2.0625,31.375,211.6875,-26.75,159.5625,0
1776973930.222,9.4284,0.5363,1.5802,-0.2265,0.2169,0.2659,-86.7,-3.75,2.4,9.3374,1.0487,1.506,-0.06,0.1663,0.4365,-74.1,0.9,-1.65,-4.55,-3.07,-8.11,-0.0654,0.0622,-0.0022,10.0625,2.0625,31.375,211.6875,-26.75,159.5625,0
1776973930.227,9.3853,0.6584,1.5467,-0.2558,0.1953,0.2465,-86.7,-3.75,3.45,9.3374,1.0487,1.506,-0.06,0.1663,0.4365,-74.1,0.9,-1.65,-4.55,-3.07,-8.11,-0.0654,0.0622,-0.0022,10.0625,2.0625,31.375,211.6875,-26.75,159.5625,0
1776973930.232,9.3853,0.6584,1.5467,-0.2558,0.1953,0.2465,-86.7,-3.75,3.45,9.5074,0.8906,1.4964,-0.0288,0.1628,0.4607,-74.7,0.3,-1.8,-4.53,-3.03,-8.18,-0.0731,0.0611,0.0,9.6875,1.75,31.375,211.6875,-26.6875,159.625,0
1776973930.236,9.414,0.7446,1.5155,-0.2689,0.1905,0.235,-86.7,-3.75,3.45,9.5074,0.8906,1.4964,-0.0288,0.1628,0.4607,-74.7,0.3,-1.8,-4.53,-3.03,-8.18,-0.0731,0.0611,0.0,9.6875,1.75,31.375,211.6875,-26.6875,159.625,0
1776973930.241,9.414,0.7446,1.5155,-0.2689,0.1905,0.235,-86.7,-3.75,3.45,9.5696,0.3926,1.6281,-0.024,0.1506,0.4692,-74.55,0.15,-1.65,-4.45,-3.1,-8.12,-0.0753,0.0611,0.0022,9.6875,1.75,31.375,211.6875,-26.6875,159.6875,0
1776973930.246,9.5313,0.7925,1.652,-0.2872,0.1492,0.2169,-88.35,-3.9,3.3,9.5696,0.3926,1.6281,-0.024,0.1506,0.4692,-74.55,0.15,-1.65,-4.45,-3.1,-8.12,-0.0753,0.0611,0.0022,9.6875,1.75,31.375,211.6875,-26.6875,159.6875,0
1776973930.251,9.5313,0.7925,1.652,-0.2872,0.1492,0.2169,-88.35,-3.9,3.3,9.5002,0.1915,1.7669,-0.0578,0.1612,0.4954,-74.55,0.15,-1.65,-4.47,-3.06,-8.18,-0.0818,0.0567,0.0065,9.6875,1.75,31.375,211.6875,-26.625,159.75,0
1776973930.256,9.4906,0.8523,1.6759,-0.3035,0.137,0.2044,-88.2,-4.5,3.45,9.5002,0.1915,1.7669,-0.0578,0.1612,0.4954,-74.55,0.15,-1.65,-4.47,-3.06,-8.18,-0.0818,0.0567,0.0065,9.6875,1.75,31.375,211.6875,-26.625,159.75,0
1776973930.265,9.3972,0.8882,1.7621,-0.3754,0.1607,0.1919,-86.55,-4.65,3.0,9.5265,0.3448,1.6328,-0.1087,0.1724,0.5265,-74.85,-0.15,-1.2,-4.54,-2.96,-8.22,-0.0873,0.0589,0.012,9.6875,1.75,31.375,211.6875,-26.625,159.75,0
1776973930.27,9.3972,0.8882,1.7621,-0.3754,0.1607,0.1919,-86.55,-4.65,3.0,9.5026,0.6608,1.8172,-0.1631,0.1897,0.5436,-74.85,-0.15,-1.2,-4.54,-2.96,-8.22,-0.0916,0.0676,0.0109,9.6875,1.75,31.375,211.6875,-26.625,159.8125,0
1776973930.276,9.4164,0.9194,1.9417,-0.4636,0.1855,0.1836,-87.45,-6.3,3.15,9.5026,0.6608,1.8172,-0.1631,0.1897,0.5436,-74.85,-0.15,-1.2,-4.49,-3.01,-8.15,-0.0916,0.0676,0.0109,9.6875,1.75,31.375,211.6875,-26.625,159.8125,0
1776973930.281,9.4164,0.9194,1.9417,-0.5287,0.2004,0.1729,-87.45,-6.3,3.15,9.6798,0.6488,1.6712,-0.2105,0.2001,0.5676,-75.45,0.75,-1.35,-4.4,-3.19,-8.19,-0.096,0.0774,0.0098,9.25,2.0625,31.0,211.75,-26.5625,159.875,0
1776973930.286,9.584,0.8236,1.9944,-0.5287,0.2004,0.1729,-87.15,-5.25,2.85,9.6798,0.6488,1.6712,-0.2105,0.2001,0.5676,-75.45,0.75,-1.35,-4.4,-3.19,-8.19,-0.096,0.0774,0.0098,9.25,2.0625,31.0,211.75,-26.5625,159.875,0
1776973930.294,9.6917,0.9122,2.0207,-0.47,0.2262,0.1591,-87.15,-5.25,2.85,9.7755,0.4597,1.6424,-0.2132,0.1761,0.5868,-74.85,0.15,-1.95,-4.45,-3.03,-8.27,-0.096,0.072,0.0196,9.25,2.0625,31.0,211.75,-26.5,159.9375,0
1776973930.299,9.6917,0.9122,2.0207,-0.47,0.2262,0.1591,-87.15,-5.25,2.85,9.6582,0.3041,1.6831,-0.2297,0.1855,0.6358,-74.85,0.15,-1.95,-4.45,-3.03,-8.27,-0.0905,0.0545,0.0262,9.25,2.0625,31.0,211.75,-26.5,160.0,0
1776973930.306,9.5409,0.9433,1.8866,-0.5812,0.1977,0.1551,-87.9,-6.0,3.9,9.6582,0.3041,1.6831,-0.2297,0.1855,0.6358,-74.55,-0.15,-1.2,-4.46,-3.0,-8.3,-0.0905,0.0545,0.0262,9.25,2.0625,31.0,211.75,-26.5,160.0,0
1776973930.314,9.517,0.9385,1.7166,-0.6038,0.198,0.1327,-88.2,-5.55,3.9,9.5241,0.5674,1.5514,-0.2987,0.1913,0.664,-74.4,0.75,-2.1,-4.43,-3.02,-8.25,-0.0796,0.0458,0.0284,9.25,2.0625,31.0,211.75,-26.5,160.0625,0
1776973930.319,9.517,0.9385,1.7166,-0.6038,0.198,0.1327,-88.2,-5.55,3.9,9.3781,0.7494,1.3647,-0.295,0.1855,0.6912,-74.4,0.75,-2.1,-4.43,-3.02,-8.25,-0.0796,0.0458,0.0284,9.25,2.0625,31.0,211.75,-26.5,160.125,0
1776973930.326,9.3494,1.0558,1.7597,-0.6419,0.1729,0.1178,-87.45,-6.0,4.2,9.3757,0.7207,1.3096,-0.295,0.1855,0.6912,-74.4,0.75,-2.1,-4.48,-2.99,-8.23,-0.0687,0.0393,0.0316,9.25,2.0625,31.0,211.75,-26.5,160.125,0
1776973930.331,9.3326,0.9984,1.6831,-0.7096,0.1615,0.0917,-87.45,-6.0,4.2,9.3757,0.7207,1.3096,-0.3262,0.2118,0.725,-74.4,0.75,-2.1,-4.48,-2.99,-8.23,-0.0687,0.0393,0.0316,10.0625,1.75,30.5625,211.75,-26.4375,160.1875,0
1776973930.336,9.3326,0.9984,1.6831,-0.7096,0.1615,0.0917,-88.05,-3.9,4.05,9.4044,0.498,1.415,-0.3262,0.2118,0.725,-74.55,-1.65,-0.45,-4.41,-3.1,-8.13,-0.0665,0.0382,0.0371,10.0625,1.75,30.5625,211.75,-26.4375,160.1875,0
1776973930.341,9.3853,1.1229,1.6496,-0.6757,0.1444,0.0701,-88.05,-3.9,4.05,9.4044,0.498,1.415,-0.3821,0.234,0.753,-74.55,-1.65,-0.45,-4.41,-3.1,-8.13,-0.0665,0.0382,0.0371,10.0625,1.75,30.5625,211.8125,-26.4375,160.25,0
1776973930.346,9.3853,1.1229,1.6496,-0.6757,0.1444,0.0701,-88.05,-3.9,4.05,9.5624,0.4812,1.4222,-0.4213,0.2499,0.7805,-74.55,-1.65,-0.45,-4.35,-3.11,-8.12,-0.0709,0.0327,0.0447,10.0625,1.75,30.5625,211.8125,-26.4375,160.25,0
1776973930.351,9.5337,1.2091,1.6281,-0.6368,0.133,0.0506,-88.05,-3.9,4.05,9.5624,0.4812,1.4222,-0.4213,0.2499,0.7805,-74.55,-1.65,-0.45,-4.35,-3.11,-8.12,-0.0796,0.0338,0.0578,10.0625,1.75,30.5625,211.8125,-26.4375,160.3125,0
1776973930.356,9.5337,1.2091,1.6281,-0.6368,0.133,0.0506,-87.6,-5.4,3.3,9.5672,0.5291,1.221,-0.3832,0.247,0.8231,-73.95,-3.0,0.3,-4.32,-3.1,-8.24,-0.0796,0.0338,0.0578,10.0625,1.75,30.5625,211.8125,-26.4375,160.3125,0
1776973930.365,9.3948,1.3599,1.7119,-0.6203,0.1234,0.0258,-88.2,-4.05,3.15,9.5816,0.5818,1.4006,-0.3523,0.2777,0.8647,-75.15,-1.05,-0.6,-4.47,-3.1,-8.21,-0.0807,0.0273,0.0709,10.0625,1.75,30.5625,211.8125,-26.4375,160.375,0
1776973930.37,9.3733,1.4269,1.7047,-0.623,0.1236,0.0107,-88.2,-4.05,3.15,9.5816,0.5818,1.4006,-0.3523,0.2777,0.8647,-75.15,-1.05,-0.6,-4.47,-3.1,-8.21,-0.0698,0.0262,0.0818,10.0625,1.75,30.5625,211.875,-26.4375,160.4375,0
1776973930.376,9.3733,1.4269,1.7047,-0.623,0.1236,0.0107,-87.15,-6.0,3.45,9.5457,0.7087,1.4126,-0.2966,0.2827,0.8905,-73.05,-2.85,-1.2,-4.4,-2.94,-8.29,-0.0698,0.0262,0.0818,10.0625,1.75,30.5625,211.875,-26.4375,160.4375,0
1776973930.381,9.3757,1.5706,1.822,-0.6315,0.0839,-0.0101,-89.1,-4.65,4.35,9.5457,0.7087,1.4126,-0.2966,0.2827,0.8905,-73.05,-2.85,-1.2,-4.33,-3.05,-8.3,-0.06,0.0153,0.0905,10.5,1.75,31.375,211.875,-26.4375,160.4375,0
1776973930.386,9.3757,1.5706,1.822,-0.6315,0.0839,-0.0101,-89.1,-4.65,4.35,9.5936,0.8835,1.506,-0.149,0.3091,0.9427,-73.65,-2.25,0.3,-4.33,-3.05,-8.3,-0.06,0.0153,0.0905,10.5,1.75,31.375,211.875,-26.4375,160.4375,0
1776973930.395,9.5289,1.5706,1.9824,-0.6091,0.0389,-0.032,-89.1,-4.65,4.35,9.7085,0.6153,1.9273,-0.1444,0.3272,0.9814,-74.4,-4.2,0.0,-4.44,-3.03,-8.33,-0.0502,-0.0022,0.1036,10.5,1.75,31.375,211.9375,-26.5,160.5,0
1776973930.4,9.5936,1.6137,2.2146,-0.5476,0.0043,-0.0538,-89.1,-4.65,4.35,9.7085,0.6153,1.9273,-0.1444,0.3272,0.9814,-74.4,-4.2,0.0,-4.44,-3.03,-8.33,-0.0382,-0.0207,0.1145,10.5,1.75,31.375,212.0,-26.5,160.5625,0
1776973930.406,9.5936,1.6137,2.2146,-0.5476,0.0043,-0.0538,-89.1,-4.65,4.35,9.8737,0.1963,1.585,-0.0797,0.3104,1.0184,-74.55,-5.55,0.15,-4.36,-3.02,-8.43,-0.0382,-0.0207,0.1145,10.5,1.75,31.375,212.0,-26.5,160.5625,0
1776973930.415,9.5744,1.5227,2.5283,-0.4687,-0.0149,-0.0874,-88.05,-5.7,3.0,9.8689,-0.2322,1.7047,-0.0448,0.3088,1.0658,-74.55,-5.55,0.15,-4.48,-2.96,-8.46,-0.0109,-0.0425,0.1254,10.5,1.75,31.375,212.0625,-26.5625,160.625,0
1776973930.419,9.6965,1.5155,2.5474,-0.3584,-0.0453,-0.1316,-88.05,-5.7,3.0,9.8689,-0.2322,1.7047,-0.0448,0.3088,1.0658,-74.55,-5.55,0.15,-4.48,-2.96,-8.46,0.0207,-0.0622,0.1342,10.5,1.75,31.375,212.125,-26.625,160.625,0
1776973930.426,9.6965,1.5155,2.5474,-0.1924,-0.0981,-0.1737,-87.45,-3.3,3.45,9.8809,-0.3424,1.2977,-0.0637,0.3365,1.1191,-72.9,-5.85,-0.6,-4.42,-2.8,-8.58,0.0207,-0.0622,0.1342,10.5,1.75,31.375,212.125,-26.625,160.625,0
1776973930.431,9.9551,1.4724,2.7031,-0.1924,-0.0981,-0.1737,-88.35,-6.45,3.0,9.8809,-0.3424,1.2977,-0.0637,0.3365,1.1191,-72.9,-5.85,-0.6,-4.42,-2.8,-8.58,0.0207,-0.0622,0.1342,9.25,1.0,31.375,212.1875,-26.6875,160.625,0
1776973930.436,10.1897,1.3336,2.7701,-0.0917,-0.0919,-0.219,-88.35,-6.45,3.0,10.1251,-1.0104,0.7111,-0.1085,0.3565,1.1762,-72.6,-6.45,1.95,-4.49,-2.53,-8.74,0.0742,-0.0916,0.1429,9.25,1.0,31.375,212.1875,-26.6875,160.625,0
1776973930.441,10.1897,1.3336,2.7701,-0.0917,-0.0919,-0.219,-88.35,-6.15,2.55,10.2615,-1.2641,0.7781,-0.1085,0.3565,1.1762,-72.6,-6.45,1.95,-4.49,-2.53,-8.74,0.0742,-0.0916,0.1429,9.25,1.0,31.375,212.3125,-26.75,160.5625,0
1776973930.446,10.6422,1.2067,2.6863,-0.0109,0.0861,-0.2662,-88.35,-6.15,2.55,10.2615,-1.2641,0.7781,-0.1466,0.3664,1.2249,-74.1,-6.0,0.45,-3.99,-2.46,-9.07,0.1582,-0.1233,0.1505,9.25,1.0,31.375,212.3125,-26.75,160.5625,0
1776973930.451,10.6422,1.2067,2.6863,-0.0109,0.0861,-0.2662,-88.35,-6.15,2.55,10.2903,-1.3623,0.5818,-0.1466,0.3664,1.2249,-74.1,-6.0,0.45,-3.99,-2.46,-9.07,0.2454,-0.1822,0.1669,9.25,1.0,31.375,212.375,-26.875,160.4375,0
1776973930.456,10.8745,1.0822,2.3774,0.1847,0.0312,-0.3006,-88.35,-6.15,2.55,10.2903,-1.3623,0.5818,-0.1966,0.4058,1.2414,-73.65,-7.35,0.3,-3.78,-2.95,-9.14,0.2454,-0.1822,0.1669,9.25,1.0,31.375,212.5,-27.0625,160.3125,0
1776973930.466,10.6949,0.9816,2.0279,0.3128,0.0408,-0.3389,-87.45,-5.55,1.65,10.5584,-1.5371,0.3184,-0.2928,0.4519,1.2545,-72.9,-7.8,0.3,-3.43,-3.14,-9.41,0.252,-0.2869,0.1898,9.25,1.0,31.375,212.5,-27.0625,160.3125,0
1776973930.476,10.6015,0.8547,1.4772,0.3605,0.0448,-0.3525,-88.35,-5.7,1.95,10.8362,-1.8579,0.2849,-0.397,0.4986,1.2907,-70.95,-8.1,1.35,-4.33,-2.61,-9.05,0.2313,-0.4232,0.1865,9.25,1.0,31.375,212.625,-27.375,160.1875,0
1776973930.48,10.6015,0.8547,1.4772,0.3605,0.0448,-0.3525,-87.45,-6.3,1.35,11.0636,-2.1404,0.0551,-0.4956,0.5236,1.3416,-70.95,-8.1,1.35,-4.33,-2.61,-9.05,0.2313,-0.4232,0.1865,9.25,1.0,31.375,212.625,-27.375,160.1875,0
1776973930.486,10.6973,0.8978,1.0463,0.4197,-0.0218,-0.3568,-87.45,-6.3,1.35,11.0636,-2.1404,0.0551,-0.4956,0.5236,1.3416,-70.95,-8.1,1.35,-3.96,-2.75,-9.27,0.3076,-0.5051,0.1844,9.0,2.5,31.75,212.9375,-27.625,160.0625,0
1776973930.49,10.6973,0.8978,1.0463,0.4197,-0.0218,-0.3568,-87.45,-4.8,1.35,11.066,-2.4038,0.2203,-0.5694,0.546,1.3776,-70.95,-8.1,1.35,-3.96,-2.75,-9.27,0.3076,-0.5051,0.1844,9.0,2.5,31.75,212.9375,-27.625,160.0625,0
1776973930.495,10.8912,0.9481,0.6057,0.4151,-0.0573,-0.3611,-87.45,-4.8,1.35,11.066,-2.4038,0.2203,-0.5694,0.546,1.3776,-71.25,-9.0,1.35,-3.96,-2.94,-9.38,0.3829,-0.5945,0.1909,9.0,2.5,31.75,213.0625,-28.0,159.8125,0
1776973930.5,10.8912,0.9481,0.6057,0.4151,-0.0573,-0.3611,-87.45,-4.8,1.35,10.9319,-2.5187,0.5219,-0.6107,0.5708,1.4181,-71.25,-9.0,1.35,-3.96,-2.94,-9.38,0.4014,-0.7232,0.1985,9.0,2.5,31.75,213.125,-28.375,159.5625,0
1776973930.506,10.7835,1.0439,0.103,0.408,-0.2918,-0.3882,-87.45,-4.8,1.35,10.9319,-2.5187,0.5219,-0.6107,0.5708,1.4181,-71.7,-10.5,1.8,-3.86,-3.11,-9.39,0.4014,-0.7232,0.1985,9.0,2.5,31.75,213.25,-28.9375,159.3125,0
1776973930.516,10.5896,1.0846,-0.2322,0.1625,-0.34,-0.4311,-87.15,-4.05,0.6,10.963,-1.664,1.1636,-0.5814,0.5982,1.4631,-72.45,-11.7,0.6,-4.35,-2.43,-9.31,0.3676,-0.8978,0.2138,9.0,2.5,31.75,213.25,-28.9375,159.3125,0
1776973930.521,10.5896,1.0846,-0.2322,0.1625,-0.34,-0.4311,-86.55,-4.2,1.2,11.2743,-0.5411,1.0247,-0.5806,0.6289,1.5322,-72.45,-11.7,0.6,-4.35,-2.43,-9.31,0.3643,-1.1083,0.2596,9.0,2.5,31.75,213.3125,-29.3125,159.1875,0
1776973930.527,10.5632,1.3048,-0.4477,-0.0376,-0.5457,-0.5047,-86.55,-4.2,1.2,11.2743,-0.5411,1.0247,-0.5806,0.6289,1.5322,-71.25,-12.0,1.35,-4.0,-2.92,-9.42,0.3643,-1.1083,0.2596,9.0,2.5,31.75,213.3125,-29.3125,159.1875,0
1776973930.532,10.5632,1.3048,-0.4477,-0.0376,-0.5457,-0.5047,-86.4,-3.0,0.0,11.8752,0.2107,0.6871,-0.6107,0.6824,1.6081,-71.25,-12.0,1.35,-4.0,-2.92,-9.42,0.4254,-1.2599,0.3098,10.0625,1.75,31.375,213.4375,-29.8125,159.0625,0
1776973930.537,10.2999,1.7382,-0.7997,-0.1961,-0.7125,-0.5958,-86.4,-3.0,0.0,11.8752,0.2107,0.6871,-0.6107,0.6824,1.6081,-71.1,-12.3,3.0,-3.79,-2.88,-9.56,0.4254,-1.2599,0.3098,10.0625,1.75,31.375,213.4375,-29.8125,159.0625,0
1776973930.541,10.2999,1.7382,-0.7997,-0.1961,-0.7125,-0.5958,-88.35,-4.2,1.5,12.3134,0.4094,0.3759,-0.6451,0.7115,1.6699,-71.1,-12.3,3.0,-3.79,-2.88,-9.56,0.4254,-1.2599,0.3098,10.0625,1.75,31.375,213.5625,-30.5,158.8125,0
1776973930.546,10.1754,2.071,-1.1732,-0.3323,-0.9302,-0.6947,-88.35,-4.2,1.5,12.3134,0.4094,0.3759,-0.6451,0.7115,1.6699,-70.8,-11.85,3.75,-3.76,-3.42,-9.51,0.4756,-1.4617,0.3818,10.0625,1.75,31.375,213.5625,-30.5,158.8125,0
1776973930.551,10.1754,2.071,-1.1732,-0.3323,-0.9302,-0.6947,-87.45,-5.25,1.35,12.5336,0.4501,-0.7542,-0.6225,0.7213,1.7256,-70.8,-11.85,3.75,-3.76,-3.42,-9.51,0.4232,-1.7835,0.5138,10.0625,1.75,31.375,213.75,-31.5,158.5,0
1776973930.557,10.2256,2.083,-1.2737,-0.3493,-1.2159,-0.8052,-87.45,-5.25,1.35,12.062,0.6345,-0.9505,-0.6225,0.7213,1.7256,-70.8,-11.85,3.75,-3.31,-3.75,-9.62,0.4232,-1.7835,0.5138,10.0625,1.75,31.375,213.9375,-32.75,158.25,0
1776973930.566,10.3238,2.6552,-1.7142,-0.1436,-1.3848,-0.9017,-87.45,-5.25,1.35,11.3174,0.3496,-0.6752,-0.6432,0.7573,1.7435,-71.1,-12.6,2.7,-3.36,-4.88,-9.69,0.3033,-2.126,0.685,10.0625,1.75,31.375,213.9375,-32.75,158.25,0
1776973930.576,10.2903,2.9377,-1.1396,-0.0669,-1.3366,-0.9974,-87.9,-3.75,-1.65,10.7811,-0.012,0.6057,-0.7698,0.8127,1.7568,-71.1,-12.6,2.7,-3.87,-4.95,-9.29,0.3033,-2.4544,0.9425,10.0625,1.75,31.375,214.3125,-34.1875,158.125,0
1776973930.581,10.2903,2.9377,-1.1396,-0.0669,-1.3366,-0.9974,-88.5,-2.25,-1.35,10.7811,-0.012,0.6057,-0.736,0.8697,1.7563,-71.1,-12.6,2.7,-3.87,-4.95,-9.29,0.3033,-2.4544,0.9425,10.0625,1.75,31.375,214.3125,-34.1875,158.125,0
1776973930.586,10.4938,2.5929,-0.9266,-0.1031,-1.4008,-1.1884,-88.5,-2.25,-1.35,10.7356,-0.7973,0.4334,-0.736,0.8697,1.7563,-68.85,-15.75,1.95,-4.54,-3.92,-9.48,0.1691,-2.7576,1.1606,13.375,2.5,30.1875,214.5625,-35.875,158.0,0
1776973930.59,10.4938,2.5929,-0.9266,-0.0432,-1.5452,-1.3014,-88.35,-2.4,-3.0,10.7356,-0.7973,0.4334,-0.647,0.8823,1.7621,-68.85,-15.75,1.95,-4.54,-3.92,-9.48,0.1691,-2.7576,1.1606,13.375,2.5,30.1875,214.5625,-35.875,158.0,0
1776973930.596,10.5201,1.4988,-1.0439,-0.0432,-1.5452,-1.3014,-88.35,-2.4,-3.0,10.5824,-1.0463,1.2953,-0.647,0.8823,1.7621,-68.7,-15.9,4.35,-4.96,-3.74,-9.28,0.0851,-3.0467,1.357,13.375,2.5,30.1875,215.0,-37.75,158.0,0
1776973930.6,10.6542,0.1101,-1.1803,0.1966,-1.6491,-1.3603,-86.7,-1.05,-2.85,10.5824,-1.0463,1.2953,-0.4647,0.8753,1.7395,-68.7,-15.9,4.35,-4.96,-3.74,-9.28,0.0436,-3.3085,1.5228,13.375,2.5,30.1875,215.5625,-39.75,158.0625,0
1776973930.607,10.6542,0.1101,-1.1803,0.1966,-1.6491,-1.3603,-86.7,-1.05,-2.85,10.1586,-1.2186,1.8723,-0.2739,0.858,1.679,-69.0,-15.9,4.05,-5.42,-3.7,-9.09,0.0436,-3.3085,1.5228,13.375,2.5,30.1875,261.125,-41.875,158.1875,0
1776973930.616,9.7229,-0.2227,0.7015,-0.0083,-1.5748,-1.2684,-86.7,-1.05,-2.85,9.7205,-1.8124,2.1117,-0.1298,0.8689,1.5868,-66.75,-17.1,5.55,-7.39,-4.6,-9.09,0.0458,-3.495,1.7039,13.375,2.5,30.1875,261.125,-41.875,158.1875,0
1776973930.626,10.987,0.3184,2.2889,0.2292,-1.9734,-1.1676,-87.9,0.75,-4.2,9.2967,-2.6145,2.7797,0.0496,0.9204,1.5063,-66.75,-17.1,5.55,-8.15,-4.54,-8.7,0.0055,-3.6106,1.8228,13.375,2.5,30.1875,258.375,-44.125,158.375,0
1776973930.631,11.3342,0.4956,2.6121,0.255,-2.104,-1.1951,-87.3,1.2,-6.9,9.2967,-2.6145,2.7797,0.0496,0.9204,1.5063,-66.75,-17.1,5.55,-8.15,-4.54,-8.7,0.0055,-3.6106,1.8228,13.375,2.5,30.1875,255.8125,-46.4375,158.625,0
1776973930.636,11.3342,0.4956,2.6121,0.255,-2.104,-1.1951,-87.3,1.2,-6.9,8.9304,-3.5434,3.5458,0.2094,1.0307,1.4408,-68.1,-19.35,4.5,-9.78,-4.77,-8.56,0.0109,-3.6783,1.9002,17.75,2.0625,28.6875,255.8125,-46.4375,158.625,0
1776973930.641,11.3677,0.4669,2.1739,0.0568,-1.8474,-1.2412,-86.4,0.0,-5.7,8.9304,-3.5434,3.5458,0.2094,1.0307,1.4408,-68.1,-19.35,4.5,-9.78,-4.77,-8.56,0.0109,-3.6783,1.9002,17.75,2.0625,28.6875,253.5,-48.6875,158.875,0
1776973930.646,11.3677,0.4669,2.1739,0.0568,-1.8474,-1.2412,-86.4,0.0,-5.7,8.849,-4.2928,4.027,0.4575,1.1708,1.3933,-68.1,-19.35,4.5,-10.02,-6.04,-8.44,0.0742,-3.6401,1.97,17.75,2.0625,28.6875,253.5,-48.6875,158.875,0
1776973930.651,11.1306,0.4453,1.8723,-0.0197,-1.6816,-1.2444,-88.8,0.9,-7.2,8.849,-4.2928,4.027,0.4575,1.1708,1.3933,-68.1,-19.35,4.5,-10.02,-6.04,-8.44,0.0415,-3.4852,2.0693,17.75,2.0625,28.6875,251.25,-50.875,159.3125,0
1776973930.657,11.1306,0.4453,1.8723,-0.0197,-1.6816,-1.2444,-88.8,0.9,-7.2,9.1315,-4.8866,4.5155,0.663,1.2867,1.3318,-66.9,-20.85,6.0,-10.0,-6.53,-8.28,0.0415,-3.4852,2.0693,17.75,2.0625,28.6875,249.0625,-53.0625,160.0,0
1776973930.666,10.8218,0.1724,1.8435,-0.1895,-1.448,-1.2007,-88.8,0.9,-7.2,9.0788,-5.9065,5.5522,0.9292,1.2987,1.2686,-66.0,-20.7,7.35,-11.28,-6.55,-8.16,-0.1014,-3.3041,2.1773,17.75,2.0625,28.6875,249.0625,-53.0625,160.0,0
1776973930.676,11.0109,-0.0551,1.6041,-0.2734,-1.2191,-1.1253,-87.45,3.0,-8.55,8.6335,-7.1012,6.4069,1.3105,1.2593,1.158,-66.75,-22.65,8.85,-9.32,-5.85,-7.16,-0.228,-3.0183,2.2777,17.75,2.0625,28.6875,246.8125,-55.0625,161.0,0
1776973930.681,11.0612,-0.3567,1.6592,-0.0949,-1.1735,-1.0475,-87.15,2.55,-8.1,8.6335,-7.1012,6.4069,1.3105,1.2593,1.158,-66.75,-22.65,8.85,-9.32,-5.85,-7.16,-0.228,-3.0183,2.2777,17.75,2.0625,28.6875,246.8125,-55.0625,161.0,0
1776973930.686,11.0612,-0.3567,1.6592,-0.0949,-1.1735,-1.0475,-87.45,3.75,-8.55,7.7333,-6.8785,7.8913,1.5823,1.1855,0.9822,-65.25,-22.2,8.85,-6.45,-4.7,-6.7,-0.3327,-2.7893,2.3606,23.25,0.5625,26.6875,244.625,-56.9375,162.3125,0
1776973930.691,11.0229,-0.3136,1.5897,-0.0072,-1.185,-0.9928,-87.45,3.75,-8.55,7.7333,-6.8785,7.8913,1.5823,1.1855,0.9822,-65.25,-22.2,8.85,-6.45,-4.7,-6.7,-0.3327,-2.7893,2.3606,23.25,0.5625,26.6875,244.625,-56.9375,162.3125,0
1776973930.696,11.0229,-0.3136,1.5897,-0.0072,-1.185,-0.9928,-86.4,5.25,-9.6,6.9911,-5.7197,7.6495,1.3832,1.0243,0.801,-65.4,-22.5,10.05,-5.94,-3.6,-6.35,-0.4178,-2.6529,2.4216,23.25,0.5625,26.6875,242.375,-58.6875,163.9375,0
1776973930.701,10.9008,0.0479,1.4629,-0.0179,-1.2036,-0.9617,-86.4,5.25,-9.6,6.1411,-5.2936,6.3183,1.3832,1.0243,0.801,-65.4,-22.5,10.05,-5.94,-3.6,-6.35,-0.4625,-2.6398,2.4947,23.25,0.5625,26.6875,240.1875,-60.5,165.8125,0
1776973930.707,10.5249,0.7566,1.2498,-0.1119,-1.1938,-0.9292,-86.4,3.75,-11.7,6.1411,-5.2936,6.3183,0.9438,0.793,0.6203,-64.35,-22.8,10.05,-6.21,-2.89,-6.18,-0.4625,-2.6398,2.4947,23.25,0.5625,26.6875,238.125,-62.1875,167.9375,0
1776973930.716,10.5249,0.7566,1.2498,-0.1913,-0.9537,-0.8596,-86.4,3.75,-11.7,5.3822,-5.2026,6.0885,0.7205,0.6366,0.4066,-64.35,-22.8,10.05,-3.78,-2.44,-6.88,-0.4472,-2.5645,2.4969,23.25,0.5625,26.6875,238.125,-62.1875,167.9375,0
1776973930.726,10.3573,0.8763,1.3551,-0.2044,-0.6614,-0.7874,-85.05,6.45,-13.65,5.1523,-5.442,5.5402,0.6638,0.493,0.1953,-65.4,-24.0,11.25,-5.46,-4.58,-7.5,-0.3829,-2.1358,2.2493,23.25,0.5625,26.6875,236.3125,-63.5625,170.0625,0
1776973930.731,9.5481,1.0822,1.1779,-0.2044,-0.6614,-0.7874,-85.05,6.45,-13.65,4.9368,-5.363,5.4636,0.6126,0.3331,0.0466,-65.4,-24.0,11.25,-5.46,-4.58,-7.5,-0.3829,-2.1358,2.2493,23.25,0.5625,26.6875,236.3125,-63.5625,170.0625,0
1776973930.736,9.7636,1.3264,0.7781,-0.0733,-0.5193,-0.7416,-85.35,6.75,-11.7,4.9368,-5.363,5.4636,0.6126,0.3331,0.0466,-64.8,-24.15,12.15,-11.22,-7.07,-7.52,-0.3174,-1.3166,1.5577,28.25,-3.0,23.1875,235.125,-64.4375,171.8125,0
1776973930.741,9.7636,1.3264,0.7781,-0.0733,-0.5193,-0.7416,-85.35,6.75,-11.7,4.5777,-4.6759,6.1794,0.6571,0.2859,-0.11,-64.8,-24.15,12.15,-11.22,-7.07,-7.52,-0.3174,-1.3166,1.5577,28.25,-3.0,23.1875,235.125,-64.4375,171.8125,0
1776973930.746,9.1219,1.3599,0.7302,0.0589,-0.3997,-0.7432,-84.75,7.2,-12.15,4.5777,-4.6759,6.1794,0.6571,0.2859,-0.11,-66.6,-22.5,11.25,-5.84,-6.93,-8.41,0.012,-0.0818,0.7134,28.25,-3.0,23.1875,234.6875,-64.5625,172.5625,0
1776973930.753,9.1219,1.3599,0.7302,0.0589,-0.3997,-0.7432,-84.75,7.2,-12.15,4.7094,-3.7421,5.047,0.6193,0.1156,-0.3128,-66.6,-22.5,11.25,-0.37,-6.55,-6.35,0.1364,1.0886,-0.1025,28.25,-3.0,23.1875,234.9375,-63.9375,172.5625,0
1776973930.757,9.4834,1.4269,0.5243,0.2033,-0.4397,-0.7362,-87.0,6.45,-12.15,4.7094,-3.7421,5.047,0.6193,0.1156,-0.3128,-65.55,-22.65,12.15,-0.37,-6.55,-6.35,0.1364,1.0886,-0.1025,28.25,-3.0,23.1875,235.5,-63.0,171.9375,0
1776973930.766,8.9447,1.3408,0.407,0.3171,-0.3475,-0.7064,-87.0,6.45,-12.15,5.4851,-3.292,2.1811,0.1879,-0.2292,-0.5303,-64.8,-21.9,12.45,1.04,-6.38,-4.67,0.0589,1.6112,-0.7396,28.25,-3.0,23.1875,236.125,-62.0,171.0625,0
1776973930.776,8.8562,1.2426,0.8954,0.2907,-0.2398,-0.7139,-86.25,6.9,-12.6,5.3654,-2.4373,3.8978,-0.1095,-0.4354,-0.757,-63.9,-20.85,10.8,1.41,-5.67,-3.45,-0.1418,1.6733,-1.1399,28.25,-3.0,23.1875,236.125,-62.0,171.0625,0
1776973930.781,8.8562,1.2426,0.8954,0.2907,-0.2398,-0.7139,-86.25,6.9,-12.6,5.4324,-0.9577,3.0454,-0.4674,-0.7389,-0.9268,-63.9,-20.85,10.8,1.41,-5.67,-3.45,-0.1418,1.6733,-1.1399,28.25,-3.0,23.1875,236.6875,-61.0,170.125,0
1776973930.786,8.8777,1.5036,0.929,0.3171,-0.2284,-0.7163,-84.6,7.8,-13.8,5.4324,-0.9577,3.0454,-0.4674,-0.7389,-0.9268,-63.9,-20.85,10.8,0.37,-2.16,-3.95,-0.3851,1.5217,-1.4323,30.1875,-6.875,24.0625,236.6875,-61.0,170.125,0
1776973930.791,8.8777,1.5036,0.929,0.3171,-0.2284,-0.7163,-84.6,7.8,-13.8,5.7389,-1.8723,1.1851,-0.8172,-0.8402,-1.0968,-63.9,-20.85,10.8,0.37,-2.16,-3.95,-0.3851,1.5217,-1.4323,30.1875,-6.875,24.0625,237.375,-60.125,168.9375,0
1776973930.796,8.6526,1.2091,1.1181,0.2284,-0.1772,-0.7232,-85.65,8.55,-11.7,5.7389,-1.8723,1.1851,-0.8172,-0.8402,-1.0968,-65.85,-22.05,10.05,-1.35,-1.84,-4.84,-0.4287,1.333,-1.6941,30.1875,-6.875,24.0625,237.375,-60.125,168.9375,0
1776973930.801,8.6526,1.2091,1.1181,0.2284,-0.1772,-0.7232,-85.65,8.55,-11.7,5.9424,-2.8347,2.6049,-0.4301,-0.9387,-1.1746,-65.85,-22.05,10.05,-1.35,-1.84,-4.84,-0.2498,1.2686,-1.9199,30.1875,-6.875,24.0625,238.3125,-59.25,167.5625,0
1776973930.807,8.1666,0.9457,1.1756,0.1458,-0.0155,-0.7253,-85.5,7.95,-12.9,6.3686,-3.1819,4.1539,0.1857,-1.0051,-1.2204,-65.85,-22.05,10.05,-2.28,-2.29,-5.52,-0.2498,1.2686,-1.9199,30.1875,-6.875,24.0625,239.625,-58.25,166.0,0
1776973930.816,8.3127,1.1468,1.0726,0.1908,-0.0189,-0.7149,-85.5,7.95,-12.9,6.6248,-2.7605,4.3144,0.1857,-1.0051,-1.2204,-66.75,-19.95,10.65,-2.82,-2.73,-6.13,-0.0545,1.3384,-2.0617,30.1875,-6.875,24.0625,239.625,-58.25,166.0,0
1776973930.826,8.2863,1.4461,1.221,0.2129,-0.049,-0.6832,-85.5,7.95,-12.9,6.9935,-2.3822,3.9097,0.5151,-1.166,-1.3403,-66.6,-20.1,10.65,-3.9,-2.54,-7.45,0.0545,1.5435,-2.1009,30.1875,-6.875,24.0625,241.0625,-57.125,164.5625,0
1776973930.831,8.2863,1.4461,1.221,0.2129,-0.049,-0.6832,-85.5,7.95,-12.9,6.9935,-2.3822,3.9097,0.5151,-1.166,-1.3403,-66.6,-20.1,9.0,-3.9,-2.54,-7.45,0.0545,1.5435,-2.1009,30.1875,-6.875,24.0625,241.0625,-57.125,164.5625,0
1776973930.836,7.9583,1.5634,0.9744,0.2401,-0.0144,-0.6297,-85.95,10.5,-13.5,7.4292,-2.3511,3.8235,0.4317,-1.2734,-1.4927,-67.95,-18.0,10.35,-4.01,-2.23,-7.78,0.1124,1.8522,-2.0791,29.0,-7.1875,25.0,242.6875,-55.8125,163.25,0
1776973930.841,7.9583,1.5634,0.9744,0.2401,-0.0144,-0.6297,-85.95,10.5,-13.5,7.4292,-2.3511,3.8235,0.4317,-1.2734,-1.4927,-67.95,-18.0,10.35,-4.01,-2.23,-7.78,0.1124,1.8522,-2.0791,29.0,-7.1875,25.0,242.6875,-55.8125,163.25,0
1776973930.846,8.1475,1.1875,1.4916,0.3317,-0.2217,-0.5076,-85.5,9.45,-14.7,7.9057,-2.6145,3.6847,0.2904,-1.3824,-1.6462,-67.95,-18.0,10.35,-3.8,-1.82,-7.76,0.1767,2.2144,-1.9853,29.0,-7.1875,25.0,244.375,-54.3125,162.1875,0
1776973930.854,8.2696,1.731,1.5945,0.6014,-0.2188,-0.4154,-84.6,9.3,-13.5,7.9057,-2.6145,3.6847,0.2904,-1.3824,-1.6462,-69.0,-18.3,8.1,-3.24,-1.32,-7.48,0.2793,2.5438,-1.8031,29.0,-7.1875,25.0,246.3125,-52.625,161.3125,0
1776973930.859,8.2696,1.731,1.5945,0.6014,-0.2188,-0.4154,-84.6,9.3,-13.5,8.418,-2.9209,3.9456,0.0562,-1.4877,-1.8119,-69.0,-18.3,8.1,-3.24,-1.32,-7.48,0.2793,2.5438,-1.8031,29.0,-7.1875,25.0,248.3125,-50.9375,160.6875,0
1776973930.867,8.9926,2.1332,0.9505,0.959,0.3917,-0.4032,-87.15,10.8,-13.05,8.6933,-2.5187,4.0031,-0.178,-1.6542,-1.9971,-69.45,-16.35,6.6,-3.1,-1.61,-7.43,0.4112,2.7893,-1.5152,29.0,-7.1875,25.0,250.375,-49.1875,160.375,0
1776973930.877,8.7795,1.9728,0.6321,1.0552,0.2707,-0.4189,-87.15,10.8,-13.05,8.7604,-2.6001,3.8164,-0.149,-1.8053,-2.1501,-69.45,-16.35,6.6,-3.53,-2.16,-7.77,0.5389,2.9202,-1.1443,29.0,-7.1875,25.0,250.375,-49.1875,160.375,0
1776973930.881,9.0908,1.9273,0.3615,1.1631,0.4205,-0.4239,-87.15,10.8,-13.05,8.7604,-2.6001,3.8164,-0.149,-1.8053,-2.1501,-69.45,-16.35,6.6,-3.53,-2.16,-7.77,0.5389,2.9202,-1.1443,29.0,-7.1875,25.0,250.375,-49.1875,160.375,0
1776973930.886,9.0908,1.9273,0.3615,1.1631,0.4205,-0.4239,-85.8,9.15,-13.65,8.7436,-3.0119,3.3639,-0.0112,-1.8911,-2.2266,-69.45,-16.35,6.6,-5.36,-3.28,-8.31,0.6,2.9638,-0.7581,26.0,-5.6875,28.6875,252.5,-47.5,160.1875,0
1776973930.891,9.3901,1.81,-0.0718,1.2601,0.3704,-0.4154,-85.8,9.15,-13.65,8.7436,-3.0119,3.3639,-0.0112,-1.8911,-2.2266,-71.1,-14.55,4.95,-5.36,-3.28,-8.31,0.6,2.9638,-0.7581,26.0,-5.6875,28.6875,252.5,-47.5,160.1875,0
1776973930.897,9.3901,1.81,-0.0718,1.2601,0.3704,-0.4154,-84.9,9.3,-12.45,8.8178,-3.2609,2.8683,0.0669,-1.8386,-2.2316,-71.1,-14.55,4.95,-5.84,-3.46,-8.38,0.5738,3.0391,-0.4461,26.0,-5.6875,28.6875,254.5,-45.8125,160.25,0
1776973930.902,9.7133,1.6903,-0.3304,1.2902,0.2188,-0.3992,-84.9,9.3,-12.45,8.8178,-3.2609,2.8683,0.0669,-1.8386,-2.2316,-70.8,-13.8,4.2,-5.84,-3.46,-8.38,0.4952,3.1143,-0.2291,26.0,-5.6875,28.6875,256.4375,-44.125,160.4375,0
1776973930.907,9.7133,1.6903,-0.3304,1.2902,0.2188,-0.3992,-86.7,10.05,-13.5,9.1243,-3.2154,2.5283,-0.0234,-1.8226,-2.2319,-72.3,-13.5,4.2,-6.04,-3.51,-8.32,0.4952,3.1143,-0.2291,26.0,-5.6875,28.6875,258.3125,-42.5,160.6875,0
1776973930.917,9.3925,1.549,-0.5578,1.2087,0.1021,-0.3829,-87.9,9.3,-13.8,9.4308,-3.4189,2.7414,-0.1796,-1.8287,-2.2561,-72.3,-13.5,4.2,-5.85,-3.6,-8.14,0.4222,3.1274,-0.0796,26.0,-5.6875,28.6875,219.0,-40.875,160.9375,0
1776973930.927,9.2751,1.3312,-0.7901,1.0826,0.0818,-0.4013,-87.9,9.3,-13.8,9.6079,-3.45,3.383,-0.2779,-1.8341,-2.3081,-71.7,-13.2,2.85,-6.07,-4.35,-8.33,0.396,3.0543,0.0087,26.0,-5.6875,28.6875,219.0,-40.875,160.9375,0
1776973930.931,9.1626,1.1349,-0.7422,0.9555,0.0695,-0.4317,-87.9,9.3,-13.8,9.7181,-3.0813,3.7781,-0.2779,-1.8341,-2.3081,-71.7,-13.2,2.85,-6.07,-4.35,-8.33,0.396,3.0543,0.0087,26.0,-5.6875,28.6875,219.375,-39.375,161.1875,0
1776973930.937,9.1626,1.1349,-0.7422,0.9555,0.0695,-0.4317,-87.15,10.05,-12.75,9.7181,-3.0813,3.7781,-0.307,-1.8327,-2.3609,-71.7,-13.2,2.85,-6.3,-4.63,-8.57,0.3949,2.942,0.0251,22.0,-5.6875,32.5625,219.375,-39.375,161.1875,0
1776973930.941,9.0812,0.9816,-0.8021,0.7352,0.0637,-0.4551,-87.15,10.05,-12.75,9.9814,-2.7725,3.3136,-0.307,-1.8327,-2.3609,-72.45,-9.75,1.35,-6.3,-4.63,-8.57,0.3949,2.942,0.0251,22.0,-5.6875,32.5625,219.625,-37.875,161.3125,0
1776973930.946,9.0812,0.9816,-0.8021,0.7352,0.0637,-0.4551,-86.55,9.15,-12.9,9.9814,-2.7725,3.3136,-0.3296,-1.8183,-2.4307,-72.45,-9.75,1.35,-6.51,-4.84,-8.84,0.4309,2.8547,-0.0578,22.0,-5.6875,32.5625,219.625,-37.875,161.3125,0
1776973930.953,8.9878,0.9553,-1.0678,0.4975,-0.0413,-0.4253,-86.25,9.9,-13.35,10.0604,-2.2194,2.7773,-0.2276,-1.7989,-2.4853,-72.45,-9.75,1.35,-6.73,-5.62,-8.94,0.5214,2.8013,-0.2345,22.0,-5.6875,32.5625,219.8125,-36.3125,161.3125,0
1776973930.958,8.9878,0.9553,-1.0678,0.3501,0.0269,-0.4032,-86.25,9.9,-13.35,10.0604,-2.2194,2.7773,-0.2276,-1.7989,-2.4853,-73.05,-7.95,-0.15,-6.73,-5.62,-8.94,0.5214,2.8013,-0.2345,22.0,-5.6875,32.5625,219.9375,-34.8125,161.1875,0
1776973930.967,8.7963,1.1803,-1.245,0.3501,0.0269,-0.4032,-87.3,9.9,-12.15,10.1825,-1.6328,2.2577,-0.0733,-1.7909,-2.5191,-73.05,-7.95,-0.15,-6.78,-5.93,-8.79,0.6294,2.7511,-0.468,22.0,-5.6875,32.5625,219.875,-33.25,160.8125,0
1776973930.977,8.9974,1.3001,-1.3455,0.1508,0.1047,-0.38,-86.4,10.8,-14.25,10.1275,-1.2594,1.9249,0.1119,-1.7587,-2.5335,-74.85,-8.4,0.15,-6.87,-5.97,-8.7,0.7112,2.666,-0.7221,22.0,-5.6875,32.5625,219.875,-33.25,160.8125,0
1776973930.982,9.1243,1.4892,-1.4748,0.0365,0.0917,-0.352,-86.4,10.8,-14.25,10.2041,-1.1732,1.7071,0.3669,-1.6867,-2.5026,-74.7,-5.4,0.0,-6.87,-5.97,-8.7,0.7112,2.666,-0.7221,22.0,-5.6875,32.5625,219.6875,-31.75,160.375,0
1776973930.987,9.1243,1.4892,-1.4748,0.0365,0.0917,-0.352,-86.4,10.8,-14.25,10.2041,-1.1732,1.7071,0.3669,-1.6867,-2.5026,-74.7,-5.4,0.0,-7.24,-6.12,-8.69,0.769,2.5198,-0.9839,16.0625,-7.875,36.5625,219.6875,-31.75,160.375,0
1776973930.992,9.0333,1.6137,-1.6233,-0.1276,0.1242,-0.3235,-87.6,9.15,-12.9,10.3334,-1.2019,1.8723,0.6678,-1.5828,-2.4642,-75.3,-4.5,-1.65,-7.24,-6.12,-8.69,0.769,2.5198,-0.9839,16.0625,-7.875,36.5625,219.3125,-30.3125,159.8125,0
1776973930.997,9.0333,1.6137,-1.6233,-0.1958,0.0874,-0.2758,-87.6,9.15,-12.9,10.3334,-1.2019,1.8723,0.6678,-1.5828,-2.4642,-75.3,-4.5,-1.65,-7.42,-6.27,-8.88,0.8083,2.3311,-1.2501,16.0625,-7.875,36.5625,219.3125,-30.3125,159.8125,0
1776973931.002,9.3278,2.1213,-1.6233,-0.1958,0.0874,-0.2758,-86.7,10.05,-12.45,10.5536,-0.9912,2.0566,0.9001,-1.4911,-2.4165,-75.15,-4.95,-1.35,-7.42,-6.27,-8.88,0.8083,2.1435,-1.5152,16.0625,-7.875,36.5625,218.8125,-28.9375,159.125,0
1776973931.008,9.2536,2.4756,-1.7933,-0.2928,0.0549,-0.2451,-86.7,10.05,-12.45,10.5536,-0.9912,2.0566,0.9001,-1.4911,-2.4165,-75.15,-4.95,-1.35,-7.48,-6.36,-9.1,0.8083,2.1435,-1.5152,16.0625,-7.875,36.5625,218.125,-27.5625,158.4375,0
1776973931.017,9.2584,2.8802,-1.6496,-0.3467,0.0349,-0.2217,-85.8,11.4,-13.35,10.6159,-0.9242,2.2027,0.9726,-1.444,-2.3683,-74.4,-3.9,-5.55,-7.54,-6.37,-9.12,0.7516,1.9799,-1.7639,16.0625,-7.875,36.5625,217.3125,-26.1875,157.75,0
1776973931.027,9.1219,3.2417,-1.4629,-0.3544,-0.0099,-0.2273,-85.8,10.2,-12.6,10.7524,-0.8523,2.5331,1.0237,-1.4645,-2.3241,-74.4,-3.9,-5.55,-7.35,-5.79,-9.49,0.6414,1.8402,-1.9809,16.0625,-7.875,36.5625,217.3125,-26.1875,157.75,0
1776973931.032,9.1219,3.2417,-1.4629,-0.3544,-0.0099,-0.2273,-85.8,10.2,-12.6,10.7045,-1.1277,2.4325,1.0088,-1.457,-2.286,-74.7,-1.05,-5.1,-7.35,-5.79,-9.49,0.6414,1.8402,-1.9809,16.0625,-7.875,36.5625,217.3125,-26.1875,157.75,0
1776973931.037,8.8202,3.5793,-1.2881,-0.3539,-0.0432,-0.2038,-85.8,10.2,-12.6,10.8194,-1.0654,2.1356,1.0088,-1.457,-2.286,-74.7,-1.05,-5.1,-7.19,-5.29,-9.66,0.516,1.6842,-2.1424,12.375,-7.5625,39.25,216.3125,-24.875,157.125,0
1776973931.042,8.8202,3.5793,-1.2881,-0.3539,-0.0432,-0.2038,-85.95,11.25,-12.75,10.8194,-1.0654,2.1356,0.9374,-1.4615,-2.2322,-75.45,-0.75,-6.6,-7.19,-5.29,-9.66,0.516,1.6842,-2.1424,12.375,-7.5625,39.25,216.3125,-24.875,157.125,0
1776973931.047,8.8178,3.802,-1.0151,-0.2979,-0.0141,-0.1988,-85.95,11.25,-12.75,10.7643,-0.9122,1.9968,0.9374,-1.4615,-2.2322,-75.45,-0.75,-6.6,-7.35,-4.8,-9.82,0.4494,1.6035,-2.2504,12.375,-7.5625,39.25,215.3125,-23.5625,156.5,0
1776973931.055,8.6287,4.0366,-0.9433,-0.2499,-0.0024,-0.2126,-85.65,12.75,-12.75,10.7643,-0.9122,1.9968,0.8316,-1.4882,-2.1845,-75.15,0.3,-7.65,-7.4,-4.31,-9.89,0.4047,1.5206,-2.3137,12.375,-7.5625,39.25,214.25,-22.25,155.9375,0
1776973931.06,8.6287,4.0366,-0.9433,-0.2499,-0.0024,-0.2126,-85.35,10.8,-14.25,10.7452,-0.7781,1.8364,0.7027,-1.5252,-2.1535,-76.2,1.05,-7.35,-7.4,-4.31,-9.89,0.4047,1.5206,-2.3137,12.375,-7.5625,39.25,213.1875,-21.0,155.375,0
1776973931.067,8.43,4.0701,-0.9577,-0.1905,-0.004,-0.1812,-85.35,10.8,-14.25,10.6231,-0.7494,1.4269,0.6384,-1.526,-2.116,-76.2,1.05,-7.35,-7.42,-4.14,-9.88,0.3851,1.4497,-2.3158,12.375,-7.5625,39.25,212.125,-19.75,154.875,0
1776973931.077,8.4132,4.2353,-0.8356,-0.089,0.0741,-0.1553,-85.95,12.75,-12.45,10.1538,-0.5746,1.4461,0.5849,-1.4826,-2.0805,-75.15,1.5,-8.85,-7.64,-3.94,-9.9,0.3709,1.4017,-2.2667,12.375,-7.5625,39.25,212.125,-19.75,154.875,0
1776973931.082,8.4132,4.2353,-0.8356,-0.089,0.0741,-0.1553,-85.95,12.75,-12.45,10.1538,-0.5746,1.4461,0.5849,-1.4826,-2.0805,-75.3,3.6,-10.5,-7.64,-3.94,-9.9,0.3709,1.4017,-2.2667,11.6875,-7.5625,44.0,211.125,-18.5625,154.4375,0
1776973931.087,8.3055,4.5729,-0.6991,0.0735,0.1553,-0.1322,-85.95,12.75,-12.45,9.9958,-0.5219,1.0918,0.4839,-1.4405,-2.0432,-75.3,3.6,-10.5,-7.65,-3.55,-9.55,0.3469,1.3777,-2.1718,11.6875,-7.5625,44.0,211.125,-18.5625,154.4375,0
1776973931.092,8.3055,4.5729,-0.6991,0.0735,0.1553,-0.1322,-87.15,12.0,-11.7,9.9958,-0.5219,1.0918,0.4839,-1.4405,-2.0432,-75.3,3.6,-10.5,-7.65,-3.55,-9.55,0.3469,1.3777,-2.1718,11.6875,-7.5625,44.0,210.1875,-17.375,154.0,0
1776973931.097,8.691,4.3551,-0.984,0.4431,0.1577,-0.129,-87.15,12.0,-11.7,9.7252,-0.237,0.6009,0.3603,-1.3757,-1.9929,-75.3,3.6,-10.5,-7.55,-3.16,-9.35,0.3392,1.3875,-2.0409,11.6875,-7.5625,44.0,210.1875,-17.375,154.0,0
1776973931.102,8.691,4.3551,-0.984,0.4431,0.1577,-0.129,-86.55,12.15,-12.9,9.7252,-0.237,0.6009,0.3603,-1.3757,-1.9929,-76.05,4.8,-10.05,-7.55,-3.16,-9.35,0.36,1.3897,-1.8904,11.6875,-7.5625,44.0,209.375,-16.25,153.625,0
1776973931.108,8.1834,4.5729,-1.0032,0.469,0.3629,-0.1045,-86.55,12.15,-12.9,9.5792,-0.3041,0.5148,0.1998,-1.311,-1.934,-76.05,4.8,-10.05,-7.63,-2.84,-9.21,0.36,1.3897,-1.8904,11.6875,-7.5625,44.0,208.625,-15.125,153.25,0
1776973931.117,8.3318,4.3239,-1.0151,0.6755,0.166,-0.0738,-87.0,10.95,-12.9,9.3494,-0.577,0.5076,0.1961,-1.2324,-1.8868,-76.05,4.8,-10.05,-7.85,-2.62,-9.11,0.4374,1.3832,-1.729,11.6875,-7.5625,44.0,207.9375,-14.0,152.8125,0
1776973931.127,8.0325,4.4101,-1.0894,0.8175,0.2944,-0.0581,-86.4,12.3,-12.75,8.9423,-0.3256,0.6464,0.1935,-1.1082,-1.8079,-75.9,7.8,-12.9,-8.29,-2.69,-8.76,0.552,1.4017,-1.5675,11.6875,-7.5625,44.0,207.9375,-14.0,152.8125,0
1776973931.132,8.0325,4.4101,-1.0894,0.8175,0.2944,-0.0581,-86.25,10.95,-11.85,8.9423,-0.3256,0.6464,0.1935,-1.1082,-1.8079,-73.95,8.55,-12.15,-8.29,-2.69,-8.76,0.552,1.4017,-1.5675,11.6875,-7.5625,44.0,207.4375,-12.9375,152.375,0
1776973931.137,8.43,4.1707,-1.3599,0.9928,0.251,-0.0221,-86.25,10.95,-11.85,8.983,-0.2274,0.5243,0.1271,-0.9963,-1.732,-73.95,8.55,-12.15,-8.17,-2.63,-8.53,0.66,1.4737,-1.4159,11.375,-3.5,48.5625,207.4375,-12.9375,152.375,0
1776973931.142,8.43,4.1707,-1.3599,1.1061,0.2793,0.0306,-86.25,10.95,-11.85,8.983,-0.2274,0.5243,0.1271,-0.9963,-1.732,-74.55,6.75,-13.8,-8.17,-2.63,-8.53,0.66,1.4737,-1.4159,11.375,-3.5,48.5625,207.4375,-12.9375,152.375,0
1776973931.147,8.6072,4.3407,-1.6831,1.1061,0.2793,0.0306,-86.25,10.95,-11.85,8.9112,-0.2298,0.4405,0.0671,-0.8895,-1.6574,-74.55,6.75,-13.8,-7.94,-2.47,-8.19,0.7199,1.5653,-1.2741,11.375,-3.5,48.5625,206.9375,-11.8125,151.9375,0
1776973931.155,8.5258,4.4484,-1.6807,1.1772,0.2846,0.0847,-87.45,12.75,-11.7,9.0046,-0.2131,0.4118,-0.0019,-0.854,-1.5695,-74.7,10.05,-14.4,-7.44,-1.92,-7.5,0.7614,1.6275,-1.1377,11.375,-3.5,48.5625,206.625,-10.75,151.5,0
1776973931.16,8.5258,4.4484,-1.6807,1.1772,0.2846,0.0847,-87.45,11.25,-12.0,9.0046,-0.2131,0.4118,-0.0019,-0.854,-1.5695,-74.7,10.05,-14.4,-7.44,-1.92,-7.5,0.7614,1.6275,-1.1377,11.375,-3.5,48.5625,206.3125,-9.6875,151.0,0
1776973931.167,8.7005,4.2473,-1.6927,1.1287,0.3115,0.1108,-87.45,11.25,-12.0,8.8657,-0.1006,0.3591,-0.0925,-0.7999,-1.4858,-74.7,10.05,-14.4,-7.22,-1.67,-7.14,0.8018,1.6341,-0.9981,11.375,-3.5,48.5625,206.125,-8.6875,150.5625,0
1776973931.177,8.5497,3.9145,-1.5179,1.0094,0.295,0.1074,-87.45,12.45,-13.65,8.7604,-0.0072,0.2442,-0.1895,-0.7253,-1.3968,-75.15,11.7,-13.95,-7.15,-1.6,-6.87,0.8498,1.5959,-0.8705,11.375,-3.5,48.5625,206.125,-8.6875,150.5625,0
1776973931.182,8.5569,3.4979,-1.5107,0.8729,0.2955,0.1308,-87.45,10.5,-12.45,8.6143,0.1844,-0.079,-0.2936,-0.6347,-1.3035,-75.15,11.7,-13.95,-7.15,-1.6,-6.87,0.8498,1.5959,-0.8705,11.375,-3.5,48.5625,206.125,-8.6875,150.5625,0
1776973931.187,8.5569,3.4979,-1.5107,0.8729,0.2955,0.1308,-87.45,10.5,-12.45,8.6143,0.1844,-0.079,-0.2936,-0.6347,-1.3035,-75.15,11.7,-13.95,-7.08,-1.6,-6.58,0.8945,1.5163,-0.7483,7.0,0.0,50.6875,205.9375,-7.75,150.0625,0
1776973931.192,8.6814,3.4022,-1.7023,0.8442,0.3605,0.1961,-87.45,10.5,-12.45,8.4659,0.2251,-0.146,-0.3746,-0.5303,-1.1882,-75.3,12.3,-15.3,-7.08,-1.6,-6.58,0.8945,1.5163,-0.7483,7.0,0.0,50.6875,205.9375,-7.75,150.0625,0
1776973931.197,8.6814,3.4022,-1.7023,0.8442,0.3605,0.1961,-87.45,10.5,-12.45,8.4659,0.2251,-0.146,-0.3746,-0.5303,-1.1882,-75.3,12.3,-15.3,-7.05,-1.55,-6.08,0.9098,1.405,-0.6403,7.0,0.0,50.6875,205.8125,-6.875,149.5625,0
1776973931.202,8.734,3.3758,-1.9992,0.8551,0.3936,0.2457,-86.4,10.05,-12.75,8.4132,0.2107,0.0479,-0.3768,-0.4383,-1.0528,-74.4,12.9,-15.9,-7.05,-1.55,-6.08,0.8858,1.2697,-0.5378,7.0,0.0,50.6875,205.75,-6.125,149.125,0
1776973931.208,8.734,3.3758,-1.9992,0.8551,0.3936,0.2457,-85.8,10.65,-12.9,8.4132,0.2107,0.0479,-0.3768,-0.4383,-1.0528,-74.4,12.9,-15.9,-7.14,-1.41,-5.94,0.8858,1.2697,-0.5378,7.0,0.0,50.6875,205.6875,-5.5,148.625,0
1776973931.217,8.691,3.3351,-1.9441,0.818,0.3864,0.2622,-87.0,9.9,-12.6,8.2744,0.5052,-0.0599,-0.3629,-0.3483,-0.899,-73.95,13.2,-16.2,-7.31,-1.25,-5.84,0.8421,1.1148,-0.4549,7.0,0.0,50.6875,205.6875,-5.5,148.625,0
1776973931.227,8.4611,3.2202,-2.0231,0.7256,0.4109,0.2547,-87.9,9.75,-11.7,8.1259,0.7805,-0.0862,-0.3882,-0.2593,-0.7458,-73.2,13.95,-16.95,-7.38,-0.87,-5.5,0.7952,0.9676,-0.3862,7.0,0.0,50.6875,205.6875,-4.875,148.1875,0
1776973931.232,8.3462,3.0646,-2.0925,0.591,0.4394,0.2166,-87.9,9.75,-11.7,7.932,1.1133,-0.0982,-0.3789,-0.1617,-0.5923,-73.65,14.4,-17.4,-7.38,-0.87,-5.5,0.7952,0.9676,-0.3862,7.0,0.0,50.6875,205.625,-4.4375,147.8125,0
1776973931.237,8.3462,3.0646,-2.0925,0.591,0.4394,0.2166,-87.9,9.75,-11.7,7.932,1.1133,-0.0982,-0.3789,-0.1617,-0.5923,-73.65,14.4,-17.4,-7.55,-0.8,-5.32,0.7407,0.8279,-0.3294,2.75,4.5625,52.5,205.625,-4.4375,147.8125,0
1776973931.242,8.4994,2.9784,-2.1739,0.5305,0.4381,0.1988,-87.9,9.75,-11.7,7.8913,1.4006,-0.2107,-0.3331,-0.0397,-0.389,-74.1,15.0,-15.6,-7.55,-0.8,-5.32,0.7407,0.8279,-0.3294,2.75,4.5625,52.5,205.625,-4.0,147.4375,0
1776973931.247,8.4994,2.9784,-2.1739,0.5305,0.4381,0.1988,-87.9,9.75,-11.7,7.8913,1.4006,-0.2107,-0.3331,-0.0397,-0.389,-74.1,15.0,-15.6,-7.71,-0.76,-5.12,0.66,0.6785,-0.2825,2.75,4.5625,52.5,205.625,-4.0,147.4375,0
1776973931.255,8.4803,2.9664,-2.4062,0.5361,0.4746,0.2132,-87.9,9.75,-11.7,7.9679,1.403,-0.2514,-0.2545,0.0597,-0.1951,-74.1,15.0,-15.6,-8.21,-0.41,-4.91,0.5378,0.5138,-0.2389,2.75,4.5625,52.5,205.5625,-3.6875,147.125,0
1776973931.259,8.6718,2.8802,-2.5929,0.5321,0.5263,0.2443,-87.45,9.0,-12.75,8.0325,0.9625,-0.316,-0.0653,0.15,0.0304,-74.1,15.0,-15.6,-8.21,-0.41,-4.91,0.5378,0.5138,-0.2389,2.75,4.5625,52.5,205.5,-3.5,146.9375,0
1776973931.268,8.6718,2.8802,-2.5929,0.5375,0.5729,0.2798,-87.9,9.75,-10.65,8.0828,0.5171,-0.0982,-0.0653,0.15,0.0304,-73.65,15.15,-16.2,-8.51,-0.27,-4.8,0.3927,0.3251,-0.2007,2.75,4.5625,52.5,205.4375,-3.375,146.8125,0
1776973931.277,8.7652,2.988,-2.727,0.4818,0.5931,0.3126,-88.8,8.7,-11.1,8.0565,0.0359,0.2251,0.126,0.2702,0.2635,-74.55,15.0,-16.05,-8.63,-0.11,-4.67,0.2422,0.1287,-0.1691,2.75,4.5625,52.5,205.4375,-3.375,146.8125,0
1776973931.282,8.7652,2.988,-2.727,0.4818,0.5931,0.3126,-88.8,8.7,-11.1,8.0565,0.0359,0.2251,0.2281,0.3941,0.4695,-74.55,13.5,-16.8,-8.63,-0.11,-4.67,0.2422,0.1287,-0.1691,2.75,4.5625,52.5,205.375,-3.375,146.75,0
1776973931.287,8.8633,2.8635,-2.5809,0.3896,0.6006,0.3307,-88.35,8.4,-11.55,8.0325,-0.1484,0.565,0.2281,0.3941,0.4695,-74.55,13.5,-16.8,-8.7,0.11,-4.59,0.1014,-0.0556,-0.1396,0.75,7.0625,52.375,205.375,-3.375,146.75,0
1776973931.292,8.8633,2.8635,-2.5809,0.3896,0.6006,0.3307,-88.35,8.4,-11.55,8.0325,-0.1484,0.565,0.2537,0.5159,0.6592,-74.7,14.85,-15.15,-8.7,0.11,-4.59,0.1014,-0.0556,-0.1396,0.75,7.0625,52.375,205.375,-3.375,146.75,0
1776973931.297,9.1889,2.5211,-1.9441,0.3152,0.6502,0.3952,-88.35,8.4,-11.55,8.5353,1.0942,1.6783,0.2864,0.8553,0.7242,-74.7,14.85,-15.15,-5.88,-1.31,-5.64,-0.024,-0.2542,-0.0927,0.75,7.0625,52.375,205.25,-3.4375,146.75,0
1776973931.303,9.1889,2.5211,-1.9441,0.3152,0.6502,0.3952,-88.35,8.4,-11.55,8.5353,1.0942,1.6783,0.2864,0.8553,0.7242,-74.7,14.85,-16.2,-5.88,-1.31,-5.64,-0.2225,-0.4647,-0.0742,0.75,7.0625,52.375,205.125,-3.625,146.875,0
1776973931.308,9.7468,1.8699,-1.0965,0.1537,0.688,0.526,-88.2,7.5,-12.45,10.8864,2.818,-2.569,-0.1569,0.8926,0.6134,-74.7,14.85,-16.2,4.73,-8.16,-10.37,-0.2225,-0.4647,-0.0742,0.75,7.0625,52.375,205.0,-4.1875,147.8125,0
1776973931.317,9.7133,1.415,-0.6704,-0.048,0.6131,0.6568,-89.25,6.75,-12.0,12.3637,3.7397,-3.5243,-0.4804,0.466,0.2377,-75.15,13.95,-14.7,0.47,-2.45,-9.6,-1.7999,-1.0679,0.1287,0.75,7.0625,52.375,205.0,-4.1875,147.8125,0
1776973931.327,10.0437,1.1947,-0.5387,-0.4415,0.627,0.7139,-89.7,6.75,-8.85,11.9231,4.6567,-3.2944,-0.4714,0.0045,-0.0975,-75.15,13.95,-14.7,1.02,-9.42,-9.1,-1.9351,-1.4552,0.5814,0.75,7.0625,52.375,205.0625,-5.0625,148.875,0
1776973931.332,10.0437,1.1947,-0.5387,-0.4415,0.627,0.7139,-89.7,6.75,-8.85,11.9231,4.6567,-3.2944,-0.4714,0.0045,-0.0975,-75.3,12.6,-13.8,1.02,-9.42,-9.1,-1.9351,-1.4552,0.5814,0.75,7.0625,52.375,205.0625,-5.0625,148.875,0
1776973931.337,9.098,1.1516,-0.6919,-0.8204,0.3595,0.672,-88.5,6.75,-10.2,10.3358,3.9409,-4.0725,-0.397,-0.3424,-0.2454,-75.3,12.6,-13.8,1.73,-7.86,-6.66,-1.5653,-1.2675,0.432,1.0,8.0,54.0,205.0625,-5.75,149.75,0
1776973931.342,9.098,1.1516,-0.6919,-0.8204,0.3595,0.672,-88.5,6.75,-10.2,10.3358,3.9409,-4.0725,-0.397,-0.3424,-0.2454,-75.6,13.8,-13.5,1.73,-7.86,-6.66,-1.5653,-1.2675,0.432,1.0,8.0,54.0,205.0625,-5.75,149.75,0
1776973931.347,9.019,1.6927,-1.3144,-0.9491,0.4242,0.6566,-88.5,6.75,-10.2,8.2337,1.6017,-2.5522,0.0877,-0.4053,-0.0885,-75.6,13.8,-13.5,-0.76,-2.55,-7.32,-1.5359,-1.3428,1.0025,1.0,8.0,54.0,205.375,-6.6875,150.625,0
1776973931.355,9.019,1.6927,-1.3144,-0.7711,0.5372,0.7418,-88.5,6.75,-10.2,7.865,0.9122,-3.8235,0.0877,-0.4053,-0.0885,-75.6,13.5,-13.8,-2.94,-0.24,-9.21,-1.6439,-1.5446,1.5435,1.0,8.0,54.0,205.9375,-7.875,151.5625,0
1776973931.359,10.07,2.5235,-1.9656,-0.7711,0.5372,0.7418,-88.8,6.15,-9.0,7.865,0.9122,-3.8235,0.0847,0.0498,0.21,-75.6,13.5,-13.8,-2.94,-0.24,-9.21,-1.6439,-1.5446,1.5435,1.0,8.0,54.0,206.4375,-9.0,152.3125,0
1776973931.368,10.8266,3.4405,-2.9233,-0.3837,0.4354,0.8271,-89.1,5.4,-10.5,9.5313,1.7166,-3.3591,-0.6595,0.482,0.3264,-74.55,11.85,-14.25,-1.72,-2.05,-8.49,-1.2905,-1.6133,1.3995,1.0,8.0,54.0,206.6875,-10.0625,152.75,0
1776973931.378,11.3916,4.0462,-3.8834,0.1159,0.4628,0.83,-86.4,4.8,-9.6,11.0085,3.3279,-2.5283,-1.1048,0.5319,0.304,-74.7,10.95,-13.95,-0.01,-4.29,-7.56,-0.793,-1.6733,0.8999,1.0,8.0,54.0,206.6875,-10.0625,152.75,0
1776973931.383,11.3916,4.0462,-3.8834,0.1159,0.4628,0.83,-86.4,4.8,-9.6,11.4634,4.8291,-3.0837,-1.1048,0.5319,0.304,-75.45,11.7,-13.95,-0.01,-4.29,-7.56,-0.793,-1.6733,0.8999,4.875,3.5,54.6875,206.8125,-11.1875,153.0625,0
1776973931.388,12.457,4.3335,-4.8052,0.6086,0.2702,0.7189,-89.4,4.65,-10.5,11.4634,4.8291,-3.0837,-1.0216,0.4261,0.243,-75.45,11.7,-13.95,0.24,-3.64,-7.39,-0.5378,-1.8642,0.7145,4.875,3.5,54.6875,206.8125,-11.1875,153.0625,0
1776973931.392,12.457,4.3335,-4.8052,0.6086,0.2702,0.7189,-89.4,4.65,-10.5,12.1194,5.7581,-4.0821,-1.0216,0.4261,0.243,-75.45,11.7,-13.95,0.24,-3.64,-7.39,-0.5378,-1.8642,0.7145,4.875,3.5,54.6875,207.0,-12.5,153.3125,0
1776973931.398,13.1418,4.5514,-4.0941,0.8644,0.2038,0.6502,-89.4,6.45,-10.5,12.1194,5.7581,-4.0821,-0.7216,0.2545,0.2358,-75.45,11.7,-13.95,-2.8,-0.12,-10.54,-0.4789,-2.2024,0.8978,4.875,3.5,54.6875,207.0,-12.5,153.3125,0
1776973931.403,14.3987,4.3503,-2.7414,0.8029,0.1468,0.6853,-89.4,6.45,-10.5,11.9997,5.2313,-1.9369,-0.2174,0.4234,0.3392,-76.05,12.6,-13.5,-2.8,-0.12,-10.54,-0.1691,-2.5253,0.9872,4.875,3.5,54.6875,207.1875,-14.0,153.375,0
1776973931.408,14.3987,4.3503,-2.7414,0.8029,0.1468,0.6853,-89.4,6.45,-10.5,11.9997,5.2313,-1.9369,-0.2174,0.4234,0.3392,-76.05,12.6,-13.5,-6.58,-2.37,-12.33,-0.1691,-2.5253,0.9872,4.875,3.5,54.6875,207.4375,-15.5625,153.1875,0
1776973931.418,14.5208,4.1683,-1.2737,0.5217,0.4967,0.74,-88.35,3.45,-9.75,12.287,4.9488,0.7398,0.5249,0.7133,0.5929,-76.05,12.6,-13.5,-14.72,-11.2,-14.95,0.2029,-2.6824,1.0123,4.875,3.5,54.6875,207.4375,-15.5625,153.1875,0
1776973931.428,14.9853,4.3503,-1.0822,0.3834,0.7099,0.7181,-89.1,3.45,-9.75,12.5169,4.0127,1.8794,1.3957,0.9483,0.8087,-75.9,11.25,-12.15,-8.18,-5.87,-8.23,-0.1625,-2.4642,1.4977,4.875,3.5,54.6875,207.9375,-17.125,153.3125,0
1776973931.432,12.3182,4.4867,-1.3551,0.364,0.6949,0.5534,-89.1,3.45,-9.75,13.465,2.6504,-1.1468,1.6587,0.5665,0.8711,-76.05,10.65,-12.15,-8.18,-5.87,-8.23,-0.1625,-2.4642,1.4977,4.875,3.5,54.6875,207.9375,-17.125,153.3125,0
1776973931.438,12.3182,4.4867,-1.3551,0.364,0.6949,0.5534,-88.2,3.3,-8.55,13.465,2.6504,-1.1468,1.6587,0.5665,0.8711,-76.05,10.65,-11.25,-2.83,-1.83,-9.33,-0.5629,-1.4781,1.165,10.375,1.25,55.0,208.3125,-18.1875,153.6875,0
1776973931.442,10.1394,3.5698,-0.3496,0.1116,0.7093,0.3043,-88.2,3.3,-8.55,11.5664,0.158,1.2139,1.5108,0.3712,0.7301,-76.95,10.5,-11.1,-2.83,-1.83,-9.33,-0.5629,-1.4781,1.165,10.375,1.25,55.0,208.3125,-18.1875,153.6875,0
1776973931.447,10.1394,3.5698,-0.3496,0.1116,0.7093,0.3043,-90.6,3.15,-9.3,11.5664,0.158,1.2139,1.5108,0.3712,0.7301,-76.95,10.5,-11.1,-7.27,-0.81,-12.27,-0.6512,-1.0668,0.8792,10.375,1.25,55.0,208.625,-18.9375,154.125,0
1776973931.454,8.7795,1.494,1.8794,-0.4322,0.506,0.0754,-90.6,3.15,-9.3,9.5265,-1.2163,1.9201,1.3749,0.1292,0.6387,-76.05,9.9,-10.8,-4.87,-2.08,-9.66,-0.48,-1.0788,0.7549,10.375,1.25,55.0,208.875,-19.625,154.4375,0
1776973931.459,8.7795,1.494,1.8794,-0.4322,0.506,0.0754,-90.6,3.15,-9.3,9.5265,-1.2163,1.9201,1.3749,0.1292,0.6387,-76.05,9.9,-10.8,-4.87,-2.08,-9.66,-0.48,-1.0788,0.7549,10.375,1.25,55.0,209.0,-20.125,154.625,0
1776973931.468,7.829,-0.4693,3.3591,-0.9777,0.8793,-0.0392,-90.0,3.75,-8.85,8.0828,-1.2617,2.0949,0.7666,0.2936,0.6209,-76.05,9.9,-10.8,-4.67,-4.0,-9.11,-0.264,-0.697,0.4734,10.375,1.25,55.0,209.0625,-20.4375,154.6875,0
1776973931.478,7.4819,-1.6113,3.9983,-0.9792,0.4202,-0.0898,-89.25,2.55,-8.55,7.8793,-1.7382,2.8108,0.0115,0.5582,0.5806,-76.5,8.4,-10.8,-4.47,-3.93,-8.48,-0.168,-0.5651,0.3022,10.375,1.25,55.0,209.0625,-20.4375,154.6875,0
1776973931.483,7.5154,-2.1811,3.8595,-0.8218,0.1372,-0.0538,-90.45,3.75,-7.05,8.5449,-0.0718,2.1859,-0.385,0.7522,0.5825,-76.5,8.4,-10.8,-4.47,-3.93,-8.48,-0.168,-0.5651,0.3022,10.375,1.25,55.0,209.0625,-20.4375,154.6875,0
1776973931.488,7.5154,-2.1811,3.8595,-0.8218,0.1372,-0.0538,-90.45,3.75,-7.05,8.5449,-0.0718,2.1859,-0.385,0.7522,0.5825,-76.5,8.4,-10.8,-3.9,-4.1,-8.07,-0.1233,-0.4832,0.2116,17.0,-0.875,56.1875,209.125,-20.75,154.75,0
1776973931.493,8.1762,-2.5786,3.6033,-0.9625,0.6819,0.1005,-89.85,3.9,-7.95,9.8641,1.7549,1.9273,-0.5367,0.5804,0.5135,-76.5,8.4,-10.8,-3.9,-4.1,-8.07,-0.1233,-0.4832,0.2116,17.0,-0.875,56.1875,209.125,-20.75,154.75,0
1776973931.498,8.1762,-2.5786,3.6033,-0.9625,0.6819,0.1005,-89.85,3.9,-7.95,9.8641,1.7549,1.9273,-0.5367,0.5804,0.5135,-76.65,7.8,-12.45,-3.96,-4.62,-7.94,-0.0971,-0.4222,0.1898,17.0,-0.875,56.1875,209.1875,-21.0,154.8125,0
1776973931.503,7.3502,-2.8635,3.9648,-0.9774,0.5971,0.2835,-89.85,3.9,-7.95,9.7995,2.715,1.1372,-0.449,0.4951,0.4722,-76.65,7.8,-12.45,-3.96,-4.62,-7.94,-0.1091,-0.3785,0.192,17.0,-0.875,56.1875,209.25,-21.25,154.875,0
1776973931.508,7.3502,-2.8635,3.9648,-0.9774,0.5971,0.2835,-89.85,3.9,-7.95,9.4092,2.1883,0.589,-0.4175,0.4167,0.4557,-76.65,6.9,-10.35,-4.35,-4.2,-8.14,-0.1091,-0.3785,0.192,17.0,-0.875,56.1875,209.25,-21.4375,154.9375,0
1776973931.518,8.1235,-2.8012,3.0047,-1.0627,0.5073,0.4903,-90.45,3.0,-7.35,9.0453,1.3791,0.8116,-0.4175,0.4167,0.4557,-76.5,7.5,-10.05,-4.54,-3.97,-8.34,-0.1418,-0.3436,0.1844,17.0,-0.875,56.1875,209.25,-21.4375,154.9375,0
1776973931.528,9.3877,-1.7526,1.6376,-0.8404,0.2982,0.6185,-91.35,2.7,-6.15,9.1363,0.7518,-0.0862,-0.736,0.3523,0.4594,-76.5,7.95,-9.3,-3.82,-3.78,-8.18,-0.1331,-0.2803,0.1614,17.0,-0.875,56.1875,209.3125,-21.625,155.0625,0
1776973931.533,9.4164,-0.7757,1.1803,-0.6395,0.2092,0.651,-89.25,2.55,-7.05,9.1363,0.7518,-0.0862,-0.736,0.3523,0.4594,-76.5,7.95,-9.3,-3.82,-3.78,-8.18,-0.1331,-0.2803,0.1614,17.0,-0.875,56.1875,209.375,-21.75,155.125,0
1776973931.538,9.4164,-0.7757,1.1803,-0.6395,0.2092,0.651,-89.25,2.55,-7.05,9.1123,0.9218,-0.3974,-0.793,0.4146,0.4493,-76.8,7.2,-8.25,-3.91,-3.71,-8.14,-0.1167,-0.2127,0.1364,18.0625,-1.6875,55.0,209.375,-21.75,155.125,0
1776973931.543,9.8713,0.1317,0.4094,-0.3219,0.0965,0.6086,-89.85,1.2,-7.2,9.1123,0.9218,-0.3974,-0.793,0.4146,0.4493,-76.8,7.2,-8.25,-3.91,-3.71,-8.14,-0.1167,-0.2127,0.1364,18.0625,-1.6875,55.0,209.375,-21.9375,155.1875,0
1776973931.548,9.8713,0.1317,0.4094,-0.3219,0.0965,0.6086,-89.85,1.2,-7.2,9.2392,1.4892,-0.51,-0.6891,0.4591,0.4239,-78.0,7.5,-7.95,-3.91,-3.58,-8.17,-0.1462,-0.1963,0.1342,18.0625,-1.6875,55.0,209.375,-21.9375,155.1875,0
1776973931.555,9.7875,1.0056,0.0383,-0.1359,0.1314,0.5417,-88.05,1.65,-6.15,9.2392,1.4892,-0.51,-0.6891,0.4591,0.4239,-78.0,7.5,-7.95,-3.91,-3.47,-8.22,-0.1724,-0.1756,0.1331,18.0625,-1.6875,55.0,209.4375,-22.0,155.3125,0
1776973931.559,9.6247,1.7142,-0.158,0.0949,0.1404,0.4895,-88.05,1.65,-6.15,9.335,2.1213,-0.5387,-0.4554,0.4423,0.3762,-78.0,7.5,-7.95,-3.91,-3.47,-8.22,-0.1724,-0.1756,0.1331,18.0625,-1.6875,55.0,209.4375,-22.125,155.4375,0
1776973931.568,9.6079,2.569,-0.3759,0.2883,0.3142,0.4626,-88.05,1.65,-6.15,9.3111,2.4181,-0.1556,-0.1375,0.4772,0.3645,-76.2,5.4,-8.4,-4.06,-3.64,-8.13,-0.1767,-0.1702,0.1287,18.0625,-1.6875,55.0,209.5,-22.25,155.5,0
1776973931.578,9.9048,3.2346,-0.6273,0.4183,0.3293,0.4559,-89.85,0.9,-7.65,9.481,2.4062,0.4118,0.1031,0.4514,0.3581,-76.8,6.45,-7.5,-3.91,-3.54,-8.23,-0.1538,-0.1822,0.1222,18.0625,-1.6875,55.0,209.5,-22.25,155.5,0
1776973931.583,9.9048,3.2346,-0.6273,0.4183,0.3293,0.4559,-87.6,0.9,-6.45,9.481,2.4062,0.4118,0.1031,0.4514,0.3581,-76.8,6.45,-7.5,-3.91,-3.54,-8.23,-0.1538,-0.1822,0.1222,18.0625,-1.6875,55.0,209.5,-22.25,155.5,0
1776973931.588,9.7252,3.4046,-0.5291,0.4719,0.4567,0.4538,-87.6,0.9,-6.45,9.7013,2.0039,1.063,0.316,0.4389,0.3619,-76.8,6.45,-8.25,-3.91,-3.54,-8.23,-0.1538,-0.1822,0.1222,18.0625,-1.6875,55.0,209.5,-22.25,155.5,0
1776973931.593,9.7252,3.4046,-0.5291,0.4719,0.4567,0.4538,-88.2,1.5,-6.0,9.7013,2.0039,1.063,0.316,0.4389,0.3619,-76.8,6.45,-8.25,-4.03,-3.38,-8.28,-0.1516,-0.1789,0.1134,19.0625,-2.75,55.25,209.5,-22.375,155.625,0
1776973931.598,9.8761,3.0023,-0.4573,0.393,0.4325,0.4458,-88.2,1.5,-6.0,9.833,1.391,1.4054,0.4373,0.397,0.3483,-78.0,7.2,-7.5,-4.42,-3.55,-8.39,-0.1374,-0.1996,0.1047,19.0625,-2.75,55.25,209.5625,-22.5625,155.6875,0
1776973931.603,9.8761,3.0023,-0.4573,0.393,0.4325,0.4458,-89.4,1.95,-6.15,9.833,1.391,1.4054,0.4373,0.397,0.3483,-78.0,7.2,-7.5,-4.42,-3.55,-8.39,-0.1233,-0.2171,0.0884,19.0625,-2.75,55.25,209.5625,-22.6875,155.75,0
1776973931.609,9.3613,2.1261,0.3855,0.2862,0.4386,0.4338,-89.4,1.95,-6.15,9.8857,0.7853,1.4246,0.4357,0.3746,0.323,-78.75,7.2,-7.2,-4.44,-3.53,-8.4,-0.1233,-0.2171,0.0884,19.0625,-2.75,55.25,209.5625,-22.75,155.8125,0
1776973931.618,8.6239,1.0822,1.4317,0.0562,0.4461,0.4431,-89.4,1.95,-6.15,9.8354,0.4788,1.4078,0.3653,0.3453,0.2974,-77.7,8.1,-6.9,-4.38,-3.58,-8.37,-0.0982,-0.1953,0.0676,19.0625,-2.75,55.25,209.5625,-22.75,155.8125,0
1776973931.628,9.8857,0.4381,1.6305,-0.0072,0.3515,0.4551,-89.4,0.15,-5.85,9.8138,0.486,1.549,0.1466,0.3651,0.2513,-77.7,8.1,-6.9,-4.19,-3.58,-8.22,-0.072,-0.1647,0.0469,19.0625,-2.75,55.25,209.5625,-22.875,155.875,0
1776973931.633,9.8857,0.4381,1.6305,-0.0072,0.3515,0.4551,-89.25,1.5,-4.5,9.1674,0.0527,3.7996,0.1466,0.3651,0.2513,-77.7,8.1,-6.9,-4.19,-3.58,-8.22,-0.072,-0.1647,0.0469,19.0625,-2.75,55.25,209.5625,-22.875,155.875,0
1776973931.638,10.4076,-0.1844,2.3966,-0.0163,0.8841,0.4727,-89.25,1.5,-4.5,9.1674,0.0527,3.7996,0.0064,0.3251,0.2284,-79.05,6.0,-7.5,-4.29,-3.63,-8.24,-0.0502,-0.1396,0.0371,20.1875,-2.375,54.875,209.5625,-22.9375,155.875,0
1776973931.643,10.4076,-0.1844,2.3966,-0.0163,0.8841,0.4727,-88.35,0.15,-3.6,9.5768,1.8962,1.2067,0.0064,0.3251,0.2284,-79.05,6.0,-7.5,-4.29,-3.63,-8.24,-0.0502,-0.1396,0.0371,20.1875,-2.375,54.875,209.5625,-22.9375,155.875,0
1776973931.648,9.663,-0.0718,2.6121,0.2233,0.384,0.4514,-88.35,0.15,-3.6,9.5768,1.8962,1.2067,-0.158,0.3397,0.2414,-79.05,6.0,-7.5,-4.41,-3.72,-8.17,-0.0382,-0.1244,0.0327,20.1875,-2.375,54.875,209.5625,-23.0,155.875,0
1776973931.653,9.663,-0.0718,2.6121,0.2233,0.384,0.4514,-89.25,-0.75,-3.45,9.4355,2.3798,0.8906,-0.2888,0.3277,0.2353,-79.05,6.0,-7.5,-4.41,-3.72,-8.17,-0.0295,-0.0949,0.0295,20.1875,-2.375,54.875,209.5625,-23.125,155.875,0
1776973931.659,9.323,0.1341,3.0239,0.3216,0.5931,0.4098,-89.25,-0.75,-3.45,9.4355,2.3798,0.8906,-0.2888,0.3277,0.2353,-76.95,5.4,-8.85,-4.22,-3.81,-8.08,-0.0295,-0.0949,0.0295,20.1875,-2.375,54.875,209.5625,-23.1875,155.9375,0
1776973931.668,9.5217,0.3759,2.897,0.4357,0.6352,0.348,-88.95,0.75,-2.85,9.3541,2.988,0.7949,-0.2702,0.3032,0.2667,-80.55,5.25,-6.75,-3.97,-3.77,-8.03,-0.0338,-0.0513,0.0305,20.1875,-2.375,54.875,209.5625,-23.1875,155.9375,0
1776973931.673,9.5217,0.3759,2.897,0.4357,0.6352,0.348,-88.95,0.75,-2.85,9.3637,2.9521,0.395,-0.1916,0.2649,0.3062,-80.55,5.25,-6.75,-3.97,-3.77,-8.03,-0.0578,-0.036,0.0458,20.1875,-2.375,54.875,209.5625,-23.1875,155.9375,0
1776973931.679,9.742,0.8045,2.7845,0.4882,0.5961,0.2753,-88.95,0.75,-2.85,9.3637,2.9521,0.395,-0.1916,0.2649,0.3062,-78.3,5.55,-6.75,-4.16,-3.76,-8.06,-0.0578,-0.036,0.0458,20.1875,-2.375,54.875,209.5625,-23.1875,155.9375,0
1776973931.684,9.6031,0.9457,2.3248,0.5263,0.5716,0.223,-89.25,0.0,-2.4,9.177,2.909,0.3232,-0.1124,0.2729,0.3397,-78.3,5.55,-6.75,-4.16,-3.76,-8.06,-0.1102,-0.0305,0.0774,19.5,-2.25,54.875,209.625,-23.25,156.0,0
1776973931.689,9.6031,0.9457,2.3248,0.5263,0.5716,0.223,-89.25,0.0,-2.4,9.177,2.909,0.3232,-0.1124,0.2729,0.3397,-79.8,5.25,-8.25,-4.17,-3.72,-8.07,-0.1102,-0.0305,0.0774,19.5,-2.25,54.875,209.625,-23.25,156.0,0
1776973931.694,9.6534,1.1636,1.8603,0.4562,0.4999,0.19,-91.05,0.75,-2.4,9.2392,2.5857,0.3448,-0.0802,0.2862,0.3701,-79.8,5.25,-8.25,-4.17,-3.72,-8.07,-0.1102,-0.0305,0.0774,19.5,-2.25,54.875,209.625,-23.3125,156.0625,0
1776973931.699,9.6534,1.1636,1.8603,0.4562,0.4999,0.19,-90.75,1.05,-2.1,9.2392,2.5857,0.3448,-0.0802,0.2862,0.3701,-79.8,5.25,-8.25,-4.05,-3.5,-8.15,-0.1102,-0.0305,0.0774,19.5,-2.25,54.875,209.625,-23.3125,156.0625,0
1776973931.704,9.7061,1.3982,1.233,0.3395,0.4546,0.1617,-90.75,1.05,-2.1,9.3733,2.2984,0.5171,-0.0442,0.2998,0.3834,-79.8,5.25,-8.25,-4.05,-3.5,-8.15,-0.1484,-0.036,0.1014,19.5,-2.25,54.875,209.6875,-23.375,156.1875,0
1776973931.709,9.7061,1.3982,1.233,0.3395,0.4546,0.1617,-89.85,0.15,-1.2,9.3733,2.2984,0.5171,-0.0442,0.2998,0.3834,-79.05,4.8,-7.95,-4.13,-3.57,-8.16,-0.1484,-0.036,0.1014,19.5,-2.25,54.875,209.6875,-23.375,156.1875,0
1776973931.718,9.7995,1.4844,0.6704,0.0658,0.4245,0.1593,-89.85,0.15,-1.2,9.5241,2.2745,0.5243,-0.0621,0.3096,0.4096,-79.05,4.8,-7.95,-4.14,-3.61,-8.16,-0.1527,-0.0371,0.1047,19.5,-2.25,54.875,209.6875,-23.4375,156.25,0
1776973931.723,9.8258,1.6257,0.0814,-0.222,0.3856,0.1588,-89.85,0.15,-1.2,9.6438,2.1715,0.7278,-0.0608,0.2915,0.4351,-79.05,4.8,-7.95,-4.14,-3.61,-8.16,-0.1484,-0.0447,0.108,19.5,-2.25,54.875,209.75,-23.5,156.375,0
1776973931.729,9.8258,1.6257,0.0814,-0.222,0.3856,0.1588,-91.95,1.65,-1.2,9.5888,1.9297,0.7111,-0.0608,0.2915,0.4351,-79.35,2.25,-6.6,-4.14,-3.52,-8.2,-0.1484,-0.0447,0.108,19.5,-2.25,54.875,209.75,-23.5,156.375,0
1776973931.734,9.7324,1.5658,-0.34,-0.5084,0.388,0.1556,-91.95,1.65,-1.2,9.5888,1.9297,0.7111,-0.1055,0.3067,0.4514,-79.35,2.25,-6.6,-4.1,-3.55,-8.13,-0.1429,-0.0469,0.108,20.0625,-3.0,55.6875,209.8125,-23.5625,156.5,0
1776973931.739,9.7324,1.5658,-0.34,-0.5084,0.388,0.1556,-92.25,1.05,0.0,9.5265,1.7358,0.565,-0.1639,0.288,0.4586,-78.75,5.55,-6.75,-4.1,-3.55,-8.13,-0.1429,-0.0469,0.108,20.0625,-3.0,55.6875,209.8125,-23.5625,156.5,0
1776973931.744,9.5074,1.5347,-0.3926,-0.7088,0.4271,0.1383,-92.25,1.05,0.0,9.5265,1.7358,0.565,-0.1639,0.288,0.4586,-78.75,5.55,-6.75,-4.1,-3.55,-8.13,-0.1396,-0.0611,0.1156,20.0625,-3.0,55.6875,209.8125,-23.625,156.5625,0
1776973931.749,9.5074,1.5347,-0.3926,-0.7088,0.4271,0.1383,-93.9,-0.15,-0.45,9.2943,1.5419,0.6512,-0.2094,0.3067,0.4711,-78.75,5.25,-6.75,-4.19,-3.52,-8.16,-0.1396,-0.0611,0.1156,20.0625,-3.0,55.6875,209.8125,-23.625,156.5625,0
1776973931.754,9.5193,1.5347,-0.0838,-0.8092,0.4938,0.1442,-93.9,-0.15,-0.45,9.2943,1.5419,0.6512,-0.2094,0.3067,0.4711,-78.75,5.25,-6.75,-4.19,-3.52,-8.16,-0.1451,-0.0633,0.1222,20.0625,-3.0,55.6875,209.875,-23.6875,156.6875,0
1776973931.759,9.5193,1.5347,-0.0838,-0.8092,0.4938,0.1442,-93.45,0.15,-1.5,9.2416,1.5251,0.4956,-0.2971,0.3128,0.478,-79.35,4.2,-5.55,-4.1,-3.45,-8.11,-0.1451,-0.0633,0.1222,20.0625,-3.0,55.6875,209.875,-23.6875,156.6875,0
1776973931.768,9.6151,1.6305,0.2586,-0.7999,0.4437,0.1266,-93.45,0.15,-1.5,9.2512,1.6352,0.6057,-0.3619,0.3411,0.4871,-78.75,3.6,-6.45,-4.09,-3.51,-8.06,-0.1549,-0.0785,0.1342,20.0625,-3.0,55.6875,209.9375,-23.75,156.8125,0
1776973931.773,9.2991,1.6712,0.6033,-0.8681,0.4096,0.1154,-93.45,0.15,-1.5,9.2512,1.6352,0.6057,-0.3619,0.3411,0.4871,-78.75,3.6,-6.45,-4.09,-3.51,-8.06,-0.1734,-0.0807,0.1396,20.0625,-3.0,55.6875,210.0,-23.8125,156.875,0
1776973931.779,9.2991,1.6712,0.6033,-0.8681,0.4096,0.1154,-92.7,0.15,-1.95,9.3805,1.8818,0.4932,-0.3592,0.3619,0.4962,-78.9,4.2,-5.85,-4.1,-3.43,-8.08,-0.1734,-0.0807,0.1396,20.0625,-3.0,55.6875,210.0,-23.8125,156.875,0
1776973931.784,9.5313,1.3479,0.6369,-0.906,0.4034,0.1244,-92.7,0.15,-1.95,9.3805,1.8818,0.4932,-0.3592,0.3619,0.4962,-78.9,4.2,-5.85,-4.1,-3.43,-8.08,-0.1734,-0.0807,0.1396,20.0625,-3.75,54.0625,210.0625,-23.9375,157.0,0
1776973931.789,9.5313,1.3479,0.6369,-0.906,0.4034,0.1244,-92.7,-1.65,-0.45,9.3805,2.083,0.4046,-0.3126,0.3285,0.5089,-78.9,4.2,-5.85,-4.24,-3.54,-8.14,-0.1865,-0.0851,0.1418,20.0625,-3.75,54.0625,210.0625,-23.9375,157.0,0
1776973931.794,9.505,1.2067,1.0319,-0.7341,0.3576,0.1466,-92.7,-1.65,-0.45,9.3805,2.083,0.4046,-0.3126,0.3285,0.5089,-78.9,4.2,-5.85,-4.24,-3.54,-8.14,-0.1865,-0.0851,0.1418,20.0625,-3.75,54.0625,210.0625,-24.0,157.1875,0
1776973931.799,9.505,1.2067,1.0319,-0.7341,0.3576,0.1466,-92.7,0.45,-1.2,9.3326,1.9417,0.5195,-0.1889,0.3461,0.4959,-80.25,3.6,-6.75,-4.25,-3.42,-8.17,-0.1996,-0.0676,0.1331,20.0625,-3.75,54.0625,210.0625,-24.0,157.1875,0
1776973931.804,9.3374,1.4341,1.4676,-0.5881,0.3573,0.1617,-92.7,0.45,-1.2,9.3326,1.9417,0.5195,-0.1889,0.3461,0.4959,-80.25,3.6,-6.75,-4.25,-3.42,-8.17,-0.2062,-0.0447,0.12,20.0625,-3.75,54.0625,210.125,-24.0625,157.3125,0
1776973931.809,9.3374,1.4341,1.4676,-0.4415,0.2726,0.1713,-91.65,-1.2,-1.2,9.3685,1.9297,0.9529,-0.073,0.3648,0.5044,-79.05,3.6,-6.75,-4.2,-3.37,-8.17,-0.2062,-0.0447,0.12,20.0625,-3.75,54.0625,210.125,-24.0625,157.3125,0
1776973931.818,9.1123,1.5012,1.5467,-0.4415,0.2726,0.1713,-91.5,-3.0,-1.05,9.4355,1.7741,1.0271,0.0482,0.3395,0.4927,-79.05,3.6,-5.7,-4.38,-3.28,-8.24,-0.1996,-0.048,0.12,20.0625,-3.75,54.0625,210.1875,-24.125,157.4375,0
1776973931.823,9.2847,1.4317,1.6376,-0.3187,0.2046,0.1849,-91.5,-3.0,-1.05,9.4355,1.7741,1.0271,0.0482,0.3395,0.4927,-79.05,3.6,-5.7,-4.38,-3.28,-8.24,-0.1985,-0.0415,0.1091,20.0625,-3.75,54.0625,210.1875,-24.1875,157.5625,0
1776973931.829,9.1818,1.0798,1.8483,-0.3355,0.1482,0.211,-91.5,-3.0,-1.05,9.5002,1.3958,1.1277,0.1652,0.3235,0.4959,-80.4,1.95,-5.55,-4.31,-3.45,-8.15,-0.1985,-0.0415,0.1091,20.0625,-3.75,54.0625,210.1875,-24.1875,157.5625,0
1776973931.834,9.1818,1.0798,1.8483,-0.3355,0.1482,0.211,-91.5,-3.0,-1.05,9.4451,0.8643,1.336,0.1652,0.3235,0.4959,-80.4,1.95,-5.55,-4.31,-3.45,-8.15,-0.204,-0.0295,0.1058,20.5,-4.5,54.0625,210.25,-24.25,157.6875,0
1776973931.839,9.3446,1.0008,2.3631,-0.2236,0.0805,0.2531,-92.55,-2.25,-2.1,9.4451,0.8643,1.336,0.2614,0.3166,0.4954,-79.8,3.3,-5.25,-4.38,-3.35,-8.19,-0.204,-0.0295,0.1058,20.5,-4.5,54.0625,210.25,-24.25,157.6875,0
1776973931.844,9.3446,1.0008,2.3631,-0.2236,0.0805,0.2531,-92.55,-2.25,-2.1,9.493,0.3519,1.573,0.2614,0.3166,0.4954,-79.8,3.3,-5.25,-4.38,-3.35,-8.19,-0.2094,-0.0218,0.0971,20.5,-4.5,54.0625,210.25,-24.3125,157.8125,0
1776973931.849,9.3278,1.0343,2.6983,-0.0541,0.093,0.2803,-91.65,-1.95,-0.45,9.493,0.3519,1.573,0.2864,0.3509,0.4924,-79.65,1.5,-5.1,-4.52,-3.3,-8.27,-0.2094,-0.0218,0.0971,20.5,-4.5,54.0625,210.25,-24.3125,157.8125,0
1776973931.854,9.3278,1.0343,2.6983,-0.0541,0.093,0.2803,-91.65,-1.95,-0.45,9.7157,0.0575,1.5802,0.2864,0.3509,0.4924,-79.65,1.5,-5.1,-4.52,-3.3,-8.27,-0.1942,-0.0098,0.0742,20.5,-4.5,54.0625,210.25,-24.3125,157.9375,0
1776973931.859,9.3757,0.9481,2.5905,0.0589,0.2054,0.2859,-90.75,-1.5,0.6,9.7157,0.0575,1.5802,0.2382,0.3584,0.4812,-79.65,1.5,-5.1,-4.38,-3.27,-8.27,-0.1942,-0.0098,0.0742,20.5,-4.5,54.0625,210.25,-24.3125,157.9375,0
1776973931.868,9.2273,0.7278,2.3367,0.1007,0.2814,0.2974,-91.65,-0.9,-1.5,9.845,-0.2227,1.664,0.1476,0.3448,0.4612,-79.5,2.1,-6.0,-4.4,-3.16,-8.31,-0.1745,-0.0055,0.0622,20.5,-4.5,54.0625,210.3125,-24.375,158.0625,0
1776973931.873,9.2273,0.7278,2.3367,0.1007,0.2814,0.2974,-91.65,-0.9,-1.5,9.833,-0.0359,1.6017,0.1476,0.3448,0.4612,-79.5,2.1,-6.0,-4.4,-3.16,-8.31,-0.1604,0.0087,0.048,20.5,-4.5,54.0625,210.3125,-24.375,158.1875,0
1776973931.88,9.3565,0.6512,2.138,0.1106,0.3992,0.3134,-91.65,-0.9,-1.5,9.833,-0.0359,1.6017,0.0373,0.3272,0.4455,-79.05,0.9,-4.5,-4.36,-3.2,-8.31,-0.1604,0.0087,0.048,20.5,-4.5,54.0625,210.3125,-24.375,158.1875,0
1776973931.884,9.3565,0.6512,2.138,0.1106,0.3992,0.3134,-91.65,-0.9,-1.5,9.7157,0.4741,1.5371,-0.0277,0.3051,0.4186,-79.05,0.9,-4.5,-4.36,-3.2,-8.31,-0.1604,0.0087,0.048,20.0625,-4.875,54.875,210.3125,-24.4375,158.25,0
1776973931.889,9.3326,0.6321,1.9848,0.1687,0.3533,0.3102,-91.35,-3.15,-0.15,9.7157,0.4741,1.5371,-0.0277,0.3051,0.4186,-79.8,1.65,-5.25,-4.36,-3.27,-8.23,-0.1462,0.0175,0.036,20.0625,-4.875,54.875,210.3125,-24.4375,158.25,0
1776973931.894,9.3326,0.6321,1.9848,0.1687,0.3533,0.3102,-91.35,-3.15,-0.15,9.5193,0.9242,1.5658,-0.0512,0.3038,0.4064,-79.8,1.65,-5.25,-4.36,-3.27,-8.23,-0.1462,0.0175,0.036,20.0625,-4.875,54.875,210.3125,-24.4375,158.375,0
1776973931.899,9.4116,0.5986,1.7526,0.162,0.3717,0.3142,-90.9,-2.7,-0.75,9.5193,0.9242,1.5658,-0.0512,0.3038,0.4064,-79.65,1.5,-5.55,-4.34,-3.23,-8.24,-0.1407,0.0109,0.0316,20.0625,-4.875,54.875,210.3125,-24.4375,158.375,0
1776973931.904,9.4116,0.5986,1.7526,0.162,0.3717,0.3142,-90.9,-2.7,-0.75,9.4379,1.2354,1.5323,-0.0309,0.3064,0.3962,-79.65,1.5,-5.55,-4.34,-3.23,-8.24,-0.1374,0.0142,0.0273,20.0625,-4.875,54.875,210.3125,-24.4375,158.4375,0
1776973931.91,9.6822,0.5267,1.5036,0.0648,0.4775,0.3211,-91.95,-4.65,0.45,9.4379,1.2354,1.5323,-0.0309,0.3064,0.3962,-80.85,0.75,-5.85,-4.23,-3.3,-8.17,-0.1374,0.0142,0.0273,20.0625,-4.875,54.875,210.3125,-24.4375,158.4375,0
1776973931.918,9.651,0.4669,1.4269,0.0767,0.3728,0.3166,-92.7,-1.95,0.15,9.5577,1.1708,1.3072,0.016,0.2793,0.396,-78.0,1.35,-5.25,-4.23,-3.32,-8.18,-0.1385,0.0142,0.0273,20.0625,-4.875,54.875,210.3125,-24.4375,158.5,0
1776973931.923,9.651,0.4669,1.4269,0.0767,0.3728,0.3166,-92.7,-1.95,0.15,9.5385,0.917,1.3838,0.0701,0.2694,0.4074,-78.0,1.35,-5.25,-4.23,-3.32,-8.18,-0.1353,0.0142,0.0295,20.0625,-4.875,54.875,210.3125,-24.5,158.625,0
1776973931.93,9.5481,0.3232,1.2905,0.0578,0.3208,0.307,-92.7,-1.95,0.15,9.5385,0.917,1.3838,0.0701,0.2694,0.4074,-78.0,1.35,-5.25,-4.35,-3.13,-8.28,-0.1353,0.0142,0.0295,20.0625,-4.875,54.875,210.3125,-24.5,158.625,0
1776973931.934,9.5481,0.3232,1.2905,0.0578,0.3208,0.307,-92.7,-1.95,0.15,9.6127,0.8332,1.2953,0.0592,0.2846,0.4088,-78.0,1.35,-5.25,-4.35,-3.13,-8.28,-0.1364,0.0142,0.0218,20.5,-4.875,54.5,208.8125,-24.5,158.6875,0
1776973931.939,9.596,0.3926,1.1708,0.0109,0.3363,0.311,-92.7,-1.95,0.15,9.6127,0.8332,1.2953,0.0592,0.2846,0.4088,-79.8,1.65,-5.25,-4.31,-3.16,-8.28,-0.1364,0.0142,0.0218,20.5,-4.875,54.5,208.8125,-24.5,158.6875,0
1776973931.944,9.596,0.3926,1.1708,0.0109,0.3363,0.311,-92.7,-1.95,0.15,9.5289,0.8332,1.0846,0.0173,0.2787,0.4117,-79.8,1.65,-5.25,-4.31,-3.16,-8.28,-0.1364,0.0142,0.0218,20.5,-4.875,54.5,208.8125,-24.5,158.75,0
1776973931.949,9.5265,0.34,1.0534,-0.0714,0.324,0.3086,-91.5,-4.05,1.05,9.5289,0.8332,1.0846,0.0173,0.2787,0.4117,-79.8,1.65,-5.25,-4.33,-3.17,-8.26,-0.1287,0.0131,0.0185,20.5,-4.875,54.5,208.8125,-24.5,158.75,0
1776973931.954,9.5265,0.34,1.0534,-0.0714,0.324,0.3086,-91.5,-4.05,1.05,9.4739,0.814,1.0654,0.0131,0.2721,0.4106,-79.8,1.65,-5.25,-4.33,-3.17,-8.26,-0.1342,0.0218,0.0153,20.5,-4.875,54.5,208.8125,-24.5,158.875,0
1776973931.96,9.517,0.4836,0.9098,-0.1775,0.3411,0.3006,-90.45,-4.05,0.0,9.4379,1.0199,1.1875,0.0131,0.2721,0.4106,-78.15,0.3,-5.1,-4.31,-3.15,-8.24,-0.1342,0.0218,0.0153,20.5,-4.875,54.5,208.8125,-24.5,158.875,0
1776973931.969,9.6726,0.668,0.7566,-0.3083,0.3645,0.3016,-90.75,-3.3,1.65,9.4379,1.0199,1.1875,-0.0107,0.3011,0.4072,-79.65,1.5,-4.35,-4.23,-3.19,-8.23,-0.1473,0.0295,0.0131,20.5,-4.875,54.5,208.8125,-24.5,158.9375,0
1776973931.973,9.6726,0.668,0.7566,-0.3083,0.3645,0.3016,-90.75,-3.3,1.65,9.6055,1.0439,1.2354,-0.0586,0.3126,0.409,-79.65,1.5,-4.35,-4.23,-3.19,-8.23,-0.1473,0.0273,0.0131,20.5,-4.875,54.5,208.8125,-24.5,159.0,0
1776973931.98,9.7181,0.9361,0.7542,-0.449,0.3645,0.3083,-90.0,-4.5,1.05,9.7061,0.7949,1.3575,-0.1175,0.3099,0.4165,-80.85,-1.05,-4.35,-4.25,-3.3,-8.22,-0.1473,0.0273,0.0131,20.5,-4.875,54.5,208.8125,-24.5,159.0,0
1776973931.985,9.5888,1.0127,0.759,-0.546,0.3624,0.2984,-90.0,-4.5,1.05,9.7061,0.7949,1.3575,-0.1175,0.3099,0.4165,-80.85,-1.05,-4.35,-4.27,-3.18,-8.26,-0.1364,0.0218,0.0142,21.1875,-7.0625,54.875,207.1875,-24.5,159.125,0
1776973931.99,9.5888,1.0127,0.759,-0.546,0.3624,0.2984,-90.0,-4.5,1.05,9.7109,0.7829,1.2785,-0.2057,0.3163,0.4223,-79.35,-0.3,-2.85,-4.27,-3.18,-8.26,-0.1364,0.0218,0.0142,21.1875,-7.0625,54.875,207.1875,-24.5,159.125,0
1776973931.997,9.5433,1.1061,0.8045,-0.6121,0.3405,0.2867,-91.35,-4.2,0.75,9.7109,0.7829,1.2785,-0.2057,0.3163,0.4223,-79.35,-0.3,-2.85,-4.11,-3.29,-8.22,-0.1309,0.0109,0.0207,21.1875,-7.0625,54.875,207.1875,-24.5,159.1875,0
1776973932.002,9.5433,1.1061,0.8045,-0.6121,0.3405,0.2867,-91.35,-4.2,0.75,9.6079,0.723,0.9984,-0.2153,0.2934,0.4223,-79.35,-0.3,-2.85,-4.11,-3.29,-8.22,-0.1309,0.0109,0.0207,21.1875,-7.0625,54.875,207.1875,-24.5,159.25,0
1776973932.009,9.4284,1.2115,0.9649,-0.6534,0.3557,0.2814,-90.15,-5.4,1.95,9.323,0.7829,1.2522,-0.1673,0.3024,0.4407,-79.8,-0.45,-4.5,-4.29,-3.07,-8.32,-0.1254,-0.012,0.0327,21.1875,-7.0625,54.875,207.1875,-24.5,159.25,0
1776973932.018,9.4858,1.2713,1.2139,-0.6592,0.4058,0.2886,-91.05,-3.3,1.65,9.3829,1.0558,1.4605,-0.2068,0.3464,0.4644,-79.8,-0.45,-4.5,-4.34,-3.07,-8.3,-0.1233,-0.0164,0.0305,21.1875,-7.0625,54.875,207.1875,-24.5625,159.3125,0
1776973932.023,9.4834,1.4174,1.2713,-0.6464,0.4,0.2902,-91.05,-3.3,1.65,9.3829,1.0558,1.4605,-0.2068,0.3464,0.4644,-79.8,-0.45,-4.5,-4.34,-3.07,-8.3,-0.1233,-0.0164,0.0305,21.1875,-7.0625,54.875,207.1875,-24.5625,159.375,0
1776973932.03,9.4834,1.4174,1.2713,-0.6464,0.4,0.2902,-91.65,-6.15,0.15,9.5146,1.3671,1.3599,-0.2446,0.3472,0.4775,-79.5,-0.9,-3.0,-4.3,-3.11,-8.3,-0.1156,-0.0153,0.0295,21.1875,-7.0625,54.875,207.1875,-24.5625,159.375,0
1776973932.034,9.4834,1.506,1.4269,-0.6368,0.3845,0.2827,-91.65,-6.15,0.15,9.5146,1.3671,1.3599,-0.2446,0.3472,0.4775,-79.5,-0.9,-3.0,-4.3,-3.11,-8.3,-0.1156,-0.0153,0.0295,21.5625,-7.0625,53.6875,205.625,-24.5625,159.4375,0
1776973932.04,9.4834,1.506,1.4269,-0.6368,0.3845,0.2827,-91.65,-6.15,0.15,9.5553,1.6233,1.3767,-0.2134,0.3285,0.4991,-80.1,-0.75,-1.8,-4.27,-3.18,-8.25,-0.108,-0.0175,0.0273,21.5625,-7.0625,53.6875,205.625,-24.5625,159.4375,0
1776973932.044,9.3709,1.6376,1.6281,-0.6107,0.3637,0.2694,-91.35,-6.15,1.95,9.5553,1.6233,1.3767,-0.2134,0.3285,0.4991,-80.1,-0.75,-1.8,-4.27,-3.18,-8.25,-0.108,-0.0175,0.0273,21.5625,-7.0625,53.6875,205.625,-24.625,159.5,0
1776973932.049,9.3709,1.6376,1.6281,-0.6107,0.3637,0.2694,-91.35,-6.15,1.95,9.5624,1.6496,1.3312,-0.2257,0.3453,0.5225,-79.5,-1.35,-3.0,-4.15,-3.29,-8.16,-0.0993,-0.0164,0.0284,21.5625,-7.0625,53.6875,205.625,-24.625,159.5,0
1776973932.054,9.2464,1.8579,1.8747,-0.522,0.3467,0.2579,-89.4,-4.2,2.55,9.5624,1.6496,1.3312,-0.2257,0.3453,0.5225,-79.5,-1.35,-3.0,-4.15,-3.29,-8.16,-0.1113,-0.0316,0.0469,21.5625,-7.0625,53.6875,205.625,-24.625,159.5625,0
1776973932.06,9.2464,1.8579,1.8747,-0.522,0.3467,0.2579,-89.4,-4.2,2.55,9.5265,1.5275,1.47,-0.2358,0.3131,0.518,-80.25,-2.4,-2.4,-3.94,-3.39,-8.12,-0.1113,-0.0316,0.0469,21.5625,-7.0625,53.6875,205.625,-24.625,159.5625,0
1776973932.069,9.2584,2.0183,2.1404,-0.4178,0.3336,0.2566,-91.05,-5.55,2.4,9.3925,1.2522,1.3982,-0.2334,0.3232,0.5399,-79.8,-2.4,-3.0,-4.12,-3.31,-8.05,-0.1309,-0.0611,0.0742,21.5625,-7.0625,53.6875,205.6875,-24.6875,159.625,0
1776973932.074,9.0644,2.2051,2.2913,-0.3299,0.34,0.2518,-91.5,-6.0,3.45,9.3925,1.2522,1.3982,-0.2334,0.3232,0.5399,-79.8,-2.4,-3.0,-4.12,-3.31,-8.05,-0.1494,-0.0709,0.0927,21.5625,-7.0625,53.6875,205.6875,-24.75,159.75,0
1776973932.08,9.0644,2.2051,2.2913,-0.3299,0.34,0.2518,-91.5,-6.0,3.45,9.2584,1.3024,1.3623,-0.2172,0.34,0.5617,-80.25,-2.85,-1.95,-4.04,-3.36,-8.11,-0.1494,-0.0709,0.0927,21.5625,-7.0625,53.6875,205.6875,-24.75,159.75,0
1776973932.085,9.1123,2.2266,2.4062,-0.2864,0.3946,0.2454,-92.4,-4.95,2.25,9.2225,1.4964,1.5826,-0.2172,0.34,0.5617,-80.25,-2.85,-1.95,-4.28,-3.21,-8.19,-0.1734,-0.0796,0.1145,20.5,-7.0625,54.5,204.5,-24.8125,159.8125,0
1776973932.09,9.1123,2.2266,2.4062,-0.2321,0.4234,0.239,-92.4,-4.95,2.25,9.2225,1.4964,1.5826,-0.1522,0.3717,0.6049,-80.25,-2.85,-1.95,-4.28,-3.21,-8.19,-0.1734,-0.0796,0.1145,20.5,-7.0625,54.5,204.5,-24.8125,159.8125,0
1776973932.098,9.2512,2.1476,2.3104,-0.2321,0.4234,0.239,-92.4,-4.95,2.25,9.3158,1.391,1.5131,-0.1439,0.3797,0.6278,-80.25,-2.85,-1.95,-4.38,-3.14,-8.25,-0.1865,-0.0709,0.1178,20.5,-7.0625,54.5,204.5,-24.875,159.9375,0
1776973932.103,9.2847,2.0039,2.3415,-0.2361,0.4112,0.2361,-93.15,-5.7,4.05,9.3158,1.391,1.5131,-0.1439,0.3797,0.6278,-80.85,-3.45,-1.8,-4.38,-3.14,-8.25,-0.1865,-0.0709,0.1178,20.5,-7.0625,54.5,204.5625,-24.9375,160.0625,0
1776973932.11,9.244,1.8914,2.1715,-0.206,0.3813,0.2411,-93.15,-5.7,4.05,9.4451,1.2306,1.5347,-0.1007,0.381,0.6691,-79.8,-4.05,-1.95,-4.3,-3.09,-8.33,-0.1876,-0.0556,0.1178,20.5,-7.0625,54.5,204.5625,-24.9375,160.0625,0
1776973932.117,9.244,1.8914,2.1715,-0.206,0.3813,0.2411,-91.5,-5.25,3.9,9.5146,1.0415,1.5467,-0.1292,0.4032,0.6984,-79.8,-4.05,-1.95,-4.31,-3.13,-8.25,-0.1778,-0.06,0.1254,20.5,-7.0625,54.5,204.5625,-25.0,160.1875,0
1776973932.122,9.4403,1.6759,2.1189,-0.1639,0.3989,0.239,-94.05,-5.55,3.9,9.5146,1.0415,1.5467,-0.1292,0.4032,0.6984,-80.4,-3.0,-1.8,-4.31,-3.13,-8.25,-0.1778,-0.06,0.1254,20.5,-7.0625,54.5,204.625,-25.0625,160.3125,0
1776973932.13,9.5002,1.5203,2.1069,-0.1588,0.3248,0.2409,-94.05,-5.55,3.9,9.6438,0.9577,1.47,-0.1692,0.4013,0.7253,-79.35,-3.9,-1.35,-4.1,-3.21,-8.25,-0.1713,-0.0654,0.1374,20.5,-7.0625,54.5,204.625,-25.0625,160.3125,0
1776973932.135,9.5002,1.5203,2.1069,-0.1588,0.3248,0.2409,-92.55,-6.75,2.85,9.4595,1.0415,1.6113,-0.1793,0.3821,0.7557,-79.35,-3.9,-1.35,-4.1,-3.21,-8.25,-0.1713,-0.0654,0.1374,20.5,-6.6875,54.875,203.625,-25.125,160.375,0
1776973932.14,9.3948,1.3815,2.1715,-0.1244,0.2851,0.2198,-92.55,-6.75,2.85,9.4595,1.0415,1.6113,-0.1793,0.3821,0.7557,-79.35,-4.2,-0.3,-4.16,-3.07,-8.3,-0.1614,-0.0949,0.1582,20.5,-6.6875,54.875,203.625,-25.125,160.375,0
1776973932.144,9.3948,1.3815,2.1715,-0.1244,0.2851,0.2198,-92.55,-6.75,2.85,9.4164,1.2522,1.743,-0.1903,0.4159,0.7914,-79.35,-4.2,-0.3,-4.16,-3.07,-8.3,-0.1614,-0.0949,0.1582,20.5,-6.6875,54.875,203.6875,-25.25,160.5,0
1776973932.15,9.2057,1.1684,2.399,-0.1553,0.3893,0.1785,-92.55,-6.75,2.85,9.4164,1.2522,1.743,-0.1903,0.4159,0.7914,-79.5,-4.5,-0.3,-4.29,-3.05,-8.27,-0.1505,-0.1113,0.168,20.5,-6.6875,54.875,203.6875,-25.25,160.5,0
1776973932.154,9.2057,1.1684,2.399,-0.1553,0.3893,0.1785,-93.3,-6.3,2.4,9.4571,1.1516,1.7789,-0.1785,0.4109,0.8186,-79.5,-4.5,-1.95,-4.29,-3.05,-8.27,-0.1669,-0.1244,0.1909,20.5,-6.6875,54.875,203.75,-25.3125,160.625,0
1776973932.16,9.4643,1.0965,2.4397,-0.178,0.3323,0.1402,-93.3,-6.3,2.4,9.4571,1.1516,1.7789,-0.1785,0.4109,0.8186,-79.5,-4.5,-1.95,-4.01,-3.3,-8.26,-0.1669,-0.1244,0.1909,20.5,-6.6875,54.875,203.75,-25.3125,160.625,0
1776973932.169,9.3613,0.8667,2.5043,-0.1849,0.3251,0.1066,-93.45,-7.2,3.6,9.4092,0.6345,2.3463,-0.1207,0.4255,0.8521,-79.5,-4.5,-1.95,-4.44,-2.87,-8.4,-0.1734,-0.132,0.2051,20.5,-6.6875,54.875,203.875,-25.4375,160.75,0
1776973932.174,9.3613,0.8667,2.5043,-0.1849,0.3251,0.1066,-93.15,-6.9,3.6,9.596,0.3831,2.0853,-0.1343,0.4567,0.902,-81.0,-5.55,-0.15,-4.44,-2.87,-8.4,-0.1702,-0.1189,0.2073,20.5,-6.6875,54.875,203.9375,-25.5625,160.875,0
1776973932.18,9.5912,0.7135,2.5115,-0.2049,0.3885,0.0725,-93.15,-6.9,3.6,9.6774,0.5459,2.059,-0.1343,0.4567,0.902,-80.4,-5.4,-0.15,-4.33,-2.91,-8.36,-0.1702,-0.1189,0.2073,20.5,-6.6875,54.875,203.9375,-25.5625,160.875,0
1776973932.185,9.5912,0.7135,2.5115,-0.2049,0.3885,0.0725,-92.7,-7.2,4.35,9.6774,0.5459,2.059,-0.1775,0.4397,0.9371,-80.4,-5.4,-1.8,-4.55,-2.74,-8.52,-0.1604,-0.1244,0.1996,21.1875,-7.75,54.5,202.9375,-25.625,161.0,0
1776973932.19,9.6295,0.565,2.3056,-0.238,0.3637,0.0211,-92.7,-7.2,4.35,9.6007,0.4214,1.9992,-0.1775,0.4397,0.9371,-79.5,-6.75,-0.45,-4.55,-2.74,-8.52,-0.1604,-0.1244,0.1996,21.1875,-7.75,54.5,203.0,-25.75,161.125,0
1776973932.199,9.7252,0.4908,2.0542,-0.304,0.373,-0.0115,-92.7,-7.2,4.35,9.5433,0.2945,1.9345,-0.222,0.4325,0.9702,-79.5,-6.75,-0.45,-4.54,-2.75,-8.53,-0.1385,-0.1036,0.1898,21.1875,-7.75,54.5,203.0,-25.75,161.125,0
1776973932.209,9.8426,0.759,1.7454,-0.3749,0.3147,-0.0376,-93.45,-7.2,2.25,9.7659,0.3065,1.5754,-0.2875,0.4626,1.0144,-80.4,-6.9,0.3,-4.54,-2.79,-8.49,-0.1233,-0.108,0.1811,21.1875,-7.75,54.5,203.0625,-25.8125,161.25,0
1776973932.219,9.7085,0.9984,1.7166,-0.396,0.2478,-0.0674,-90.9,-7.95,3.3,9.7875,-0.0287,1.7549,-0.3637,0.4908,1.0661,-78.9,-10.5,0.0,-4.56,-2.66,-8.58,-0.0993,-0.1058,0.1778,21.1875,-7.75,54.5,203.125,-25.9375,161.3125,0
1776973932.224,9.7085,0.9984,1.7166,-0.396,0.2478,-0.0674,-93.45,-6.15,4.35,9.7875,-0.0287,1.7549,-0.4343,0.5137,1.1109,-79.65,-8.55,-0.6,-4.56,-2.66,-8.58,-0.0676,-0.1113,0.1767,21.1875,-7.75,54.5,203.25,-26.0,161.4375,0
1776973932.23,9.8833,1.3312,1.6472,-0.4519,0.2313,-0.1005,-90.0,-7.8,3.15,9.8593,-0.2179,1.7214,-0.4279,0.5303,1.1671,-79.65,-8.55,-0.6,-4.58,-2.72,-8.57,-0.0676,-0.1113,0.1767,21.1875,-7.75,54.5,203.25,-26.0,161.4375,0
1776973932.235,9.8833,1.3312,1.6472,-0.5199,0.1796,-0.1186,-90.0,-7.8,3.15,9.8593,-0.2179,1.7214,-0.4279,0.5303,1.1671,-79.65,-8.55,-0.6,-4.58,-2.72,-8.57,-0.0273,-0.0993,0.168,21.5625,-8.5625,53.6875,202.1875,-26.0625,161.5,0
1776973932.24,9.7995,1.5706,1.6712,-0.5199,0.1796,-0.1186,-91.35,-6.9,3.3,9.9407,-0.4693,1.6999,-0.4954,0.547,1.218,-79.65,-8.55,-0.6,-4.48,-2.64,-8.73,-0.0273,-0.0993,0.168,21.5625,-8.5625,53.6875,202.1875,-26.0625,161.5,0
1776973932.245,9.8928,2.0279,1.7238,-0.5966,0.1194,-0.1452,-91.35,-6.9,3.3,9.9407,-0.4693,1.6999,-0.4954,0.547,1.218,-79.05,-10.35,-0.15,-4.48,-2.64,-8.73,0.036,-0.1233,0.1669,21.5625,-8.5625,53.6875,202.3125,-26.1875,161.5,0
1776973932.25,9.8928,2.0279,1.7238,-0.5966,0.1194,-0.1452,-91.35,-6.9,3.3,10.0987,-0.7709,1.3503,-0.5708,0.5521,1.2622,-79.05,-10.35,-0.15,-4.55,-2.52,-8.73,0.036,-0.1233,0.1669,21.5625,-8.5625,53.6875,202.3125,-26.1875,161.5,0
1776973932.255,9.9431,2.0973,1.8411,-0.6451,0.0669,-0.1716,-91.35,-6.9,3.3,10.0987,-0.7709,1.3503,-0.5708,0.5521,1.2622,-79.05,-10.35,-0.15,-4.55,-2.52,-8.73,0.1047,-0.1734,0.1734,21.5625,-8.5625,53.6875,202.375,-26.3125,161.5,0
1776973932.26,9.9431,2.0973,1.8411,-0.6451,0.0669,-0.1716,-90.75,-6.3,3.15,10.3286,-1.0894,0.9266,-0.5937,0.5684,1.3288,-79.05,-10.35,-0.15,-4.22,-2.4,-9.0,0.1047,-0.1734,0.1734,21.5625,-8.5625,53.6875,202.5,-26.5,161.375,0
1776973932.27,9.9479,2.1787,1.7358,-0.648,0.0368,-0.1953,-90.75,-6.3,3.45,10.4579,-1.2067,0.7398,-0.6315,0.5974,1.3811,-79.35,-11.7,1.05,-4.01,-2.63,-9.18,0.192,-0.2585,0.1909,21.5625,-8.5625,53.6875,202.5,-26.5,161.375,0
1776973932.28,9.9671,2.071,1.6257,-0.6678,0.028,-0.2038,-90.9,-7.65,3.6,10.4675,-1.0391,1.154,-0.6797,0.6249,1.4397,-78.75,-12.6,3.0,-4.4,-2.45,-9.03,0.2302,-0.348,0.1593,21.5625,-8.5625,53.6875,202.625,-26.6875,161.25,0
1776973932.284,10.0604,2.2817,1.5251,-0.6651,-0.0195,-0.2129,-90.9,-7.65,3.6,10.4675,-1.0391,1.154,-0.6797,0.6249,1.4397,-78.75,-12.6,1.95,-4.4,-2.45,-9.03,0.2302,-0.348,0.1593,22.6875,-8.875,54.0625,201.5625,-26.9375,161.125,0
1776973932.29,10.0604,2.2817,1.5251,-0.6651,-0.0195,-0.2129,-90.6,-6.9,2.55,10.7045,-0.9792,1.1995,-0.6805,0.648,1.485,-78.75,-12.6,1.95,-4.09,-2.4,-9.28,0.3131,-0.4243,0.1538,22.6875,-8.875,54.0625,201.5625,-26.9375,161.125,0
1776973932.295,10.1658,2.6767,1.6352,-0.6558,-0.0346,-0.243,-90.6,-6.9,2.55,10.7045,-0.9792,1.1995,-0.6805,0.648,1.485,-77.55,-13.05,1.2,-4.09,-2.4,-9.28,0.3131,-0.4243,0.1538,22.6875,-8.875,54.0625,201.6875,-27.25,160.875,0
1776973932.3,10.1658,2.6767,1.6352,-0.6558,-0.0346,-0.243,-90.6,-6.9,2.55,11.054,-1.166,1.5323,-0.6187,0.6696,1.5457,-77.55,-13.05,1.2,-4.03,-2.5,-9.5,0.4298,-0.5378,0.1538,22.6875,-8.875,54.0625,201.6875,-27.25,160.875,0
1776973932.305,10.489,2.9449,1.8244,-0.6536,-0.0917,-0.2856,-90.6,-6.9,2.55,11.054,-1.166,1.5323,-0.6187,0.6696,1.5457,-77.55,-13.05,1.2,-4.03,-2.5,-9.5,0.5138,-0.6916,0.1702,22.6875,-8.875,54.0625,201.8125,-27.625,160.5625,0
1776973932.31,10.489,2.9449,1.8244,-0.6536,-0.0917,-0.2856,-91.65,-6.15,1.95,11.5233,-0.9122,2.1931,-0.5585,0.66,1.607,-77.55,-13.05,1.2,-3.84,-2.94,-9.69,0.5138,-0.6916,0.1702,22.6875,-8.875,54.0625,201.875,-28.1875,160.25,0
1776973932.32,10.7308,3.3064,2.0327,-0.6494,-0.1745,-0.3533,-91.65,-7.2,2.55,12.1554,0.1101,1.9848,-0.506,0.6528,1.7104,-75.9,-14.4,1.8,-3.73,-2.81,-9.68,0.4821,-0.9294,0.204,22.6875,-8.875,54.0625,201.875,-28.1875,160.25,0
1776973932.33,10.8816,3.9409,2.241,-0.6416,-0.3272,-0.4455,-93.0,-4.8,3.15,12.9311,0.1748,1.5538,-0.728,0.6486,1.8389,-75.9,-14.4,1.8,-3.88,-2.7,-9.69,0.5225,-1.1508,0.2422,22.6875,-8.875,54.0625,202.0,-28.8125,159.9375,0
1776973932.334,10.5201,4.6974,2.4038,-0.5897,-0.4501,-0.5438,-93.0,-4.8,3.15,13.307,0.2705,2.0016,-0.728,0.6486,1.8389,-77.25,-15.75,2.4,-3.88,-2.7,-9.69,0.5225,-1.1508,0.2422,22.6875,-8.875,54.0625,202.0,-28.8125,159.9375,0
1776973932.339,10.5201,4.6974,2.4038,-0.5897,-0.4501,-0.5438,-91.5,-7.8,2.85,13.307,0.2705,2.0016,-0.8982,0.6584,1.9676,-77.25,-15.75,2.4,-3.38,-3.8,-10.11,0.5792,-1.3723,0.2891,22.0,-8.1875,54.0625,201.3125,-29.5625,159.5,0
1776973932.344,10.331,5.0901,1.9656,-0.4072,-0.6038,-0.6225,-91.5,-7.8,2.85,13.7403,1.3048,1.1468,-0.8503,0.6219,2.1498,-77.7,-17.55,2.1,-3.38,-3.8,-10.11,0.5792,-1.3723,0.2891,22.0,-8.1875,54.0625,201.3125,-29.5625,159.5,0
1776973932.349,10.331,5.0901,1.9656,-0.4072,-0.6038,-0.6225,-91.5,-7.8,2.85,13.7403,1.3048,1.1468,-0.8503,0.6219,2.1498,-77.7,-17.55,2.1,-3.36,-3.2,-10.16,0.5301,-1.6962,0.3807,22.0,-8.1875,54.0625,201.4375,-30.5625,159.125,0
1776973932.354,10.4722,5.3606,1.1875,-0.044,-0.8127,-0.7309,-91.5,-7.8,2.85,14.3245,2.648,-0.9744,-0.8972,0.6323,2.3129,-76.5,-19.35,2.4,-3.36,-3.2,-10.16,0.4745,-2.0759,0.5236,22.0,-8.1875,54.0625,201.625,-31.75,158.8125,0
1776973932.36,10.4722,5.3606,1.1875,-0.044,-0.8127,-0.7309,-91.5,-7.8,2.85,14.3245,2.648,-0.9744,-0.8972,0.6323,2.3129,-76.5,-19.35,2.4,-3.38,-3.63,-10.65,0.4745,-2.0759,0.5236,22.0,-8.1875,54.0625,201.875,-33.1875,158.4375,0
1776973932.37,10.8098,4.9728,0.9002,0.6262,-0.9609,-0.8388,-93.15,-4.95,0.15,14.2862,3.0789,-3.1268,-1.0728,0.6494,2.3694,-76.95,-18.3,4.05,-2.49,-4.8,-10.81,0.4941,-2.5471,0.7418,22.0,-8.1875,54.0625,201.875,-33.1875,158.4375,0
1776973932.38,11.0061,4.7046,1.4916,1.2412,-0.668,-0.9198,-94.35,-5.55,1.35,13.2399,2.0901,-4.8123,-1.3099,0.6691,2.3393,-75.3,-20.1,2.7,-2.93,-6.0,-10.18,0.5127,-3.0161,1.0145,22.0,-8.1875,54.0625,202.25,-34.9375,158.125,0
1776973932.384,11.7627,3.4429,-2.5091,1.6848,-1.0677,-1.004,-94.35,-5.55,1.35,12.1147,1.4964,-2.6935,-1.3147,0.8713,2.2769,-74.1,-21.6,3.45,-2.93,-6.0,-10.18,0.5127,-3.0161,1.0145,22.0,-8.1875,54.0625,202.25,-34.9375,158.125,0
