timestamp,thigh_acc_x,thigh_acc_y,thigh_acc_z,thigh_gyro_x,thigh_gyro_y,thigh_gyro_z,thigh_mag_x,thigh_mag_y,thigh_mag_z,shank_acc_x,shank_acc_y,shank_acc_z,shank_gyro_x,shank_gyro_y,shank_gyro_z,shank_mag_x,shank_mag_y,shank_mag_z,foot_acc_x,foot_acc_y,foot_acc_z,foot_gyro_x,foot_gyro_y,foot_gyro_z,foot_mag_x,foot_mag_y,foot_mag_z,foot_euler_x,foot_euler_y,foot_euler_z,perturbation_event
1776971924.94,9.9192,-2.7725,-2.3511,1.1594,-2.2084,0.4583,14.85,18.0,-177.0,8.43,0.8164,-0.5986,0.9222,-0.7298,-1.5759,-88.95,9.15,-1.65,11.16,3.15,-6.33,0.9098,3.3445,1.6155,-25.6875,-11.5,16.0625,164.9375,65.875,-171.5625,0
1776971924.949,9.5217,-3.9672,-2.2218,1.428,-2.2284,0.5494,14.85,18.0,-177.0,8.7101,1.1899,0.1341,1.1948,-0.586,-1.6188,-88.95,9.15,-1.65,12.19,1.72,-7.01,1.0417,3.339,1.8075,-25.6875,-11.5,16.0625,164.9375,65.875,-171.5625,0
1776971924.959,9.3326,-4.1851,-3.4093,1.3065,-2.4501,0.7322,18.15,18.75,-178.05,9.1506,1.4892,0.4501,1.5172,-0.4655,-1.6174,-88.95,10.65,-1.2,10.45,2.42,-4.2,1.0047,3.2169,1.9515,-25.6875,-11.5,16.0625,162.875,67.75,-174.0625,0
1776971924.964,8.5976,-5.6551,-4.2425,1.2103,-2.6073,0.7719,18.15,18.75,-178.05,9.2847,2.0111,0.3448,1.5172,-0.4655,-1.6174,-88.95,10.65,-1.2,10.45,2.42,-4.2,1.0047,3.2169,1.9515,-25.6875,-11.5,16.0625,161.0,69.6875,-177.125,0
1776971924.969,8.5976,-5.6551,-4.2425,1.2103,-2.6073,0.7719,19.65,13.2,-177.45,9.2847,2.0111,0.3448,1.5902,-0.2625,-1.5913,-88.95,10.65,-1.2,14.24,3.08,-7.43,0.7745,3.3696,2.0671,-29.375,-10.375,10.1875,161.0,69.6875,-177.125,0
1776971924.974,8.1618,-6.9456,-5.2289,1.0038,-2.7368,0.7144,19.65,13.2,-177.45,9.7995,2.1069,0.8404,1.5505,-0.0829,-1.5527,-88.95,10.65,-1.2,14.24,3.08,-7.43,0.7745,3.3696,2.0671,-29.375,-10.375,10.1875,159.4375,71.4375,179.3125,0
1776971924.979,8.1618,-6.9456,-5.2289,1.0038,-2.7368,0.7144,20.1,5.4,-175.35,9.7995,2.1069,0.8404,1.5505,-0.0829,-1.5527,-88.35,13.95,-2.55,15.76,3.71,-7.36,0.456,3.1176,2.1206,-29.375,-10.375,10.1875,159.4375,71.4375,179.3125,0
1776971924.986,8.6191,-7.4412,-4.9057,0.8982,-2.6684,0.6627,20.1,5.4,-175.35,10.5632,1.7142,0.9266,1.671,0.0277,-1.4743,-88.35,13.95,-2.55,14.51,4.74,-6.89,0.3054,2.6573,2.258,-29.375,-10.375,10.1875,158.0,72.875,175.0625,0
1776971924.991,7.7285,-7.9009,-4.9871,0.8881,-2.525,0.6403,20.7,-0.75,-172.35,10.5632,1.7142,0.9266,1.671,0.0277,-1.4743,-86.85,15.15,-3.6,14.51,4.74,-6.89,0.3054,2.6573,2.258,-29.375,-10.375,10.1875,156.3125,73.8125,169.6875,0
1776971925.0,7.2233,-7.6495,-5.2481,0.8266,-2.4291,0.5316,19.2,-7.5,-167.4,10.987,1.3958,0.6991,1.7997,0.1103,-1.4226,-87.45,15.75,-1.95,13.8,3.77,-7.75,0.5454,2.03,2.4762,-29.375,-10.375,10.1875,156.3125,73.8125,169.6875,0
1776971925.01,5.5186,-7.1898,-5.4779,0.7027,-2.643,0.5095,19.2,-7.5,-167.4,11.2312,1.008,0.8236,1.8095,0.1282,-1.4061,-87.75,15.75,-3.75,11.77,4.31,-8.85,0.8628,1.501,2.4249,-29.375,-10.375,10.1875,154.375,74.3125,163.9375,0
1776971925.015,5.5186,-7.1898,-5.4779,0.7027,-2.643,0.5095,19.2,-7.5,-167.4,11.394,0.5243,0.9194,1.8053,0.1316,-1.4157,-87.75,15.75,-3.75,11.77,4.31,-8.85,0.8628,1.501,2.4249,-29.375,-10.375,10.1875,152.25,74.1875,158.75,0
1776971925.02,3.7469,-7.604,-4.379,0.8308,-2.2636,0.2577,15.9,-26.25,-154.5,11.394,0.5243,0.9194,1.8053,0.1316,-1.4157,-87.45,16.5,-4.2,9.45,7.33,-10.23,1.2512,0.4931,2.2526,-33.0625,-6.0,5.6875,152.25,74.1875,158.75,0
1776971925.025,3.7469,-7.604,-4.379,0.8308,-2.2636,0.2577,15.9,-26.25,-154.5,11.3701,0.0814,1.2498,1.8421,0.1828,-1.4445,-87.45,16.5,-4.2,9.45,7.33,-10.23,1.2512,0.4931,2.2526,-33.0625,-6.0,5.6875,149.5,73.75,154.3125,0
1776971925.03,3.213,-5.1739,-3.5506,1.0328,-1.9023,-0.2364,13.35,-33.0,-145.65,11.3701,0.0814,1.2498,1.8421,0.1828,-1.4445,-85.05,18.0,-4.8,15.44,9.09,-11.83,2.4587,-0.1124,1.7693,-33.0625,-6.0,5.6875,149.5,73.75,154.3125,0
1776971925.035,3.213,-5.1739,-3.5506,1.0328,-1.9023,-0.2364,13.35,-33.0,-145.65,11.5257,-0.1844,1.585,1.8953,0.2673,-1.4512,-85.05,18.0,-4.8,15.44,9.09,-11.83,2.5525,-1.0385,0.9883,-33.0625,-6.0,5.6875,147.0625,72.9375,152.125,0
1776971925.041,3.881,-3.067,-4.9967,1.1418,-2.3489,-0.3107,9.6,-39.9,-138.3,11.576,-0.723,1.6831,1.8953,0.2673,-1.4512,-85.05,18.0,-4.8,9.55,8.36,-12.53,2.5525,-1.0385,0.9883,-33.0625,-6.0,5.6875,144.75,72.0,151.25,0
1776971925.05,2.9042,-2.4948,-4.1635,1.7557,-1.5609,-0.6294,5.7,-44.55,-132.45,11.2168,0.1772,1.5706,1.8794,0.3704,-1.4317,-86.7,20.1,-3.75,1.48,5.75,-6.53,2.5984,-1.6428,0.5127,-33.0625,-6.0,5.6875,144.75,72.0,151.25,0
1776971925.06,1.6999,-1.561,-5.2289,2.2761,-1.4919,-0.874,6.6,-46.65,-125.1,10.7236,0.4525,1.4485,1.8066,0.4698,-1.4165,-86.7,20.1,-3.75,0.15,4.41,-5.15,2.5362,-1.6112,0.2793,-33.0625,-6.0,5.6875,142.5625,71.1875,150.75,0
1776971925.065,1.6999,-1.561,-5.2289,2.2761,-1.4919,-0.874,6.6,-46.65,-125.1,10.7236,0.4525,1.4485,1.7501,0.5481,-1.4115,-86.7,20.1,-3.75,0.15,4.41,-5.15,2.5362,-1.6112,0.2793,-33.0625,-6.0,5.6875,142.5625,71.1875,150.75,0
1776971925.07,1.403,-2.2122,-6.1411,2.9004,-0.6747,-1.3249,6.6,-46.65,-125.1,10.3789,0.9888,1.0534,1.7501,0.5481,-1.4115,-85.2,21.3,-6.45,0.54,3.46,-5.11,2.3464,-1.3166,0.1309,-37.5625,0.25,5.25,140.5625,70.5,150.3125,0
1776971925.075,1.403,-2.2122,-6.1411,2.9004,-0.6747,-1.3249,6.6,-46.65,-125.1,10.3789,0.9888,1.0534,1.6878,0.6595,-1.3646,-85.2,21.3,-6.45,0.54,3.46,-5.11,2.3464,-1.3166,0.1309,-37.5625,0.25,5.25,140.5625,70.5,150.3125,0
1776971925.08,2.6312,-3.3112,-6.5194,3.2839,0.0562,-1.8658,4.95,-53.55,-121.05,10.1083,1.4293,0.7518,1.6878,0.6595,-1.3646,-84.75,22.8,-6.0,1.32,3.66,-5.41,2.0737,-1.0996,-0.0982,-37.5625,0.25,5.25,138.9375,70.0,150.125,0
1776971925.086,2.6312,-3.3112,-6.5194,3.2839,0.0562,-1.8658,3.9,-52.05,-122.1,10.1083,1.4293,0.7518,1.6459,0.7653,-1.3209,-84.75,22.8,-6.0,4.32,5.93,-7.3,1.8675,-1.0712,-0.3611,-37.5625,0.25,5.25,137.625,69.5625,150.375,0
1776971925.091,4.47,-4.4532,-4.7453,3.331,0.6504,-2.2164,3.9,-52.05,-122.1,10.1203,2.3703,0.6057,1.6665,0.8823,-1.2812,-84.45,21.3,-5.7,4.32,5.93,-7.3,1.8675,-1.0712,-0.3611,-37.5625,0.25,5.25,136.4375,69.1875,151.0,0
1776971925.1,6.2968,-4.944,-3.3112,2.7779,0.7157,-2.2114,-0.45,-48.45,-120.9,10.1634,2.4852,0.5842,1.8058,0.9411,-1.2859,-83.4,22.95,-5.85,5.42,6.89,-7.63,1.8555,-1.1999,-0.6272,-37.5625,0.25,5.25,136.4375,69.1875,151.0,0
1776971925.11,6.4404,-5.3941,-2.4229,2.3209,0.2459,-2.1514,-1.8,-44.55,-119.25,10.0844,2.1117,0.6153,1.9883,0.9441,-1.3038,-83.7,25.2,-6.45,5.38,7.01,-7.04,2.0148,-1.4726,-0.9152,-37.5625,0.25,5.25,135.1875,68.6875,152.0625,0
1776971925.115,6.4404,-5.3941,-2.4229,2.3209,0.2459,-2.1514,-3.45,-43.2,-117.3,10.0844,2.1117,0.6153,1.9883,0.9441,-1.3038,-83.7,25.2,-6.45,5.38,7.01,-7.04,2.0148,-1.4726,-0.9152,-37.5625,0.25,5.25,135.1875,68.6875,152.0625,0
1776971925.12,5.0637,-5.4013,-2.4708,2.0651,-0.1018,-2.1464,-3.45,-43.2,-117.3,10.1347,1.6664,0.7063,2.1381,0.9539,-1.3235,-82.2,25.2,-6.0,5.13,5.48,-5.8,2.2406,-1.7541,-1.1901,-41.6875,1.6875,10.1875,133.875,68.125,153.4375,0
1776971925.125,5.0637,-5.4013,-2.4708,2.0651,-0.1018,-2.1464,-3.45,-43.2,-117.3,10.1347,1.6664,0.7063,2.1381,0.9539,-1.3235,-82.2,25.2,-6.0,5.13,5.48,-5.8,2.2406,-1.7541,-1.1901,-41.6875,1.6875,10.1875,133.875,68.125,153.4375,0
1776971925.13,4.3694,-5.3726,-2.9664,2.0342,-0.0352,-2.2484,-3.45,-43.2,-117.3,10.0245,1.2953,0.6464,2.2607,0.9419,-1.3371,-82.2,25.2,-6.0,5.36,4.97,-5.88,2.3791,-1.9755,-1.489,-41.6875,1.6875,10.1875,132.625,67.5,155.125,0
1776971925.134,4.3694,-5.3726,-2.9664,2.0342,-0.0352,-2.2484,-4.35,-40.8,-116.85,10.0245,1.2953,0.6464,2.2607,0.9419,-1.3371,-82.2,25.2,-6.0,5.36,4.97,-5.88,2.3649,-2.0737,-1.7922,-41.6875,1.6875,10.1875,131.4375,66.875,157.0625,0
1776971925.141,4.7501,-5.5091,-4.0749,2.2846,0.2329,-2.4091,-4.35,-40.8,-116.85,9.9934,1.4772,0.7135,2.3505,0.9489,-1.3438,-81.6,26.1,-5.85,5.51,4.5,-5.7,2.3649,-2.0737,-1.7922,-41.6875,1.6875,10.1875,130.5,66.1875,159.25,0
1776971925.15,5.7341,-5.6671,-4.4748,2.5405,0.486,-2.5767,-4.05,-43.65,-116.55,9.979,1.5706,1.0846,2.3622,0.9571,-1.3443,-81.6,26.1,-5.85,5.06,3.82,-5.16,2.2504,-2.1217,-2.0442,-41.6875,1.6875,10.1875,130.5,66.1875,159.25,0
1776971925.16,6.8378,-5.3223,-4.6112,2.4674,0.6254,-2.6809,-5.55,-40.65,-117.0,10.0868,1.7406,1.2426,2.298,0.9355,-1.351,-80.85,28.95,-6.15,5.96,2.78,-5.04,2.0846,-2.0289,-2.1751,-41.6875,1.6875,10.1875,129.75,65.5,161.5,0
1776971925.165,7.6231,-4.9608,-4.3311,2.2354,0.6968,-2.7811,-7.35,-38.7,-115.5,10.0868,1.7406,1.2426,2.298,0.9355,-1.351,-80.85,28.95,-6.15,5.96,2.78,-5.04,2.0846,-2.0289,-2.1751,-41.6875,1.6875,10.1875,129.75,65.5,161.5,0
1776971925.17,7.6231,-4.9608,-4.3311,2.2354,0.6968,-2.7811,-7.35,-38.7,-115.5,10.1035,1.7909,1.1923,2.2556,0.8929,-1.3598,-79.5,29.55,-6.75,6.92,2.79,-5.18,1.8817,-1.9668,-2.1904,-45.25,2.375,15.25,129.125,64.8125,163.6875,0
1776971925.175,8.0373,-4.889,-3.4979,2.0227,0.7602,-2.861,-6.45,-37.5,-115.35,10.1035,1.7909,1.1923,2.2556,0.8929,-1.3598,-79.5,29.55,-6.75,6.92,2.79,-5.18,1.8817,-1.9668,-2.1904,-45.25,2.375,15.25,129.125,64.8125,163.6875,0
1776971925.18,8.0373,-4.889,-3.4979,2.0227,0.7602,-2.861,-6.45,-37.5,-115.35,10.1562,1.8627,1.2498,2.2242,0.8743,-1.3614,-78.3,29.1,-7.5,7.73,3.22,-5.29,1.7159,-1.9766,-2.1348,-45.25,2.375,15.25,128.625,64.125,165.6875,0
1776971925.185,8.0421,-5.2098,-3.067,1.9817,0.7877,-2.933,-6.45,-37.5,-115.35,10.0149,2.1404,1.221,2.2242,0.8743,-1.3614,-78.3,29.1,-7.5,7.73,3.22,-5.29,1.6341,-1.9831,-2.0508,-45.25,2.375,15.25,128.125,63.3125,167.5625,0
1776971925.191,8.0421,-5.2098,-3.067,1.9817,0.7877,-2.933,-6.45,-37.5,-115.35,10.0149,2.1404,1.221,2.198,0.8705,-1.3739,-78.9,30.0,-8.1,9.04,4.41,-5.2,1.6341,-1.9831,-2.0508,-45.25,2.375,15.25,127.625,62.4375,169.1875,0
1776971925.2,7.9871,-5.5785,-2.9521,2.0379,0.813,-2.9668,-8.4,-34.2,-113.1,9.924,2.2673,1.1181,2.1919,0.8852,-1.4021,-79.65,30.9,-7.65,10.24,5.04,-5.57,1.6482,-1.9755,-1.9886,-45.25,2.375,15.25,127.625,62.4375,169.1875,0
1776971925.21,7.9871,-6.0406,-3.4836,2.0981,0.806,-2.9846,-8.85,-33.15,-112.35,9.8713,2.2266,0.9242,2.1802,0.9172,-1.4003,-77.4,30.45,-8.1,11.28,5.6,-5.83,1.7431,-2.0562,-2.0006,-45.25,2.375,15.25,126.9375,61.5,170.6875,0
1776971925.215,7.9966,-6.2776,-4.1396,2.1751,0.818,-3.0094,-9.75,-32.25,-112.5,10.0126,2.2098,0.8619,2.1767,0.943,-1.3709,-77.4,30.45,-8.1,11.28,5.6,-5.83,1.7431,-2.0562,-2.0006,-45.25,2.375,15.25,126.1875,60.4375,172.0,0
1776971925.22,7.9966,-6.2776,-4.1396,2.1751,0.818,-3.0094,-9.75,-32.25,-112.5,10.0126,2.2098,0.8619,2.1767,0.943,-1.3709,-77.4,30.45,-8.1,11.83,6.15,-5.49,1.862,-2.2275,-2.0824,-49.375,-1.5,26.0625,126.1875,60.4375,172.0,0
1776971925.225,8.0493,-6.2177,-4.5226,2.2697,0.8881,-3.0742,-10.5,-31.8,-110.4,10.0628,2.1715,0.5052,2.1818,0.9427,-1.328,-77.4,30.45,-8.1,11.83,6.15,-5.49,1.862,-2.2275,-2.0824,-49.375,-1.5,26.0625,125.375,59.3125,173.3125,0
1776971925.23,8.0493,-6.2177,-4.5226,2.2697,0.8881,-3.0742,-10.5,-31.8,-110.4,10.0628,2.1715,0.5052,2.1818,0.9427,-1.328,-75.6,32.25,-9.0,11.43,5.98,-4.77,1.9428,-2.3562,-2.2057,-49.375,-1.5,26.0625,125.375,59.3125,173.3125,0
1776971925.236,8.2624,-5.5138,-4.5131,2.3382,1.0323,-3.1413,-12.3,-28.5,-109.95,9.9838,2.2936,0.5938,2.1767,0.9457,-1.3145,-75.6,32.25,-9.0,11.43,5.98,-4.77,1.9777,-2.3867,-2.3409,-49.375,-1.5,26.0625,124.625,58.125,174.5625,0
1776971925.241,8.418,-4.719,-4.3862,2.2873,1.1607,-3.1813,-12.3,-28.5,-109.95,9.9838,2.2936,0.5938,2.1767,0.9457,-1.3145,-75.6,32.25,-9.0,11.13,5.83,-4.15,1.9777,-2.3867,-2.3409,-49.375,-1.5,26.0625,123.875,56.9375,175.8125,0
1776971925.25,8.418,-4.719,-4.3862,2.2873,1.1607,-3.1813,-12.3,-28.5,-109.95,10.2208,2.2338,0.6273,2.1538,0.9382,-1.2926,-76.65,33.6,-10.65,11.25,5.98,-3.87,1.9809,-2.3257,-2.4456,-49.375,-1.5,26.0625,123.875,56.9375,175.8125,0
1776971925.26,8.6383,-4.1037,-4.1444,2.1975,1.2481,-3.1842,-13.95,-25.65,-107.7,10.094,2.3032,0.5842,2.161,0.9076,-1.2542,-75.3,34.2,-11.55,12.1,6.94,-4.23,2.006,-2.2624,-2.5449,-49.375,-1.5,26.0625,123.125,55.8125,176.9375,0
1776971925.265,8.6694,-4.0654,-3.972,2.1711,1.2841,-3.1578,-13.95,-25.2,-108.0,10.4531,2.2649,0.4932,2.2023,0.8756,-1.2111,-75.3,34.2,-11.55,12.1,6.94,-4.23,2.006,-2.2624,-2.5449,-49.375,-1.5,26.0625,123.125,55.8125,176.9375,0
1776971925.27,8.6694,-4.0654,-3.972,2.2356,1.2867,-3.1149,-13.95,-25.2,-108.0,10.4531,2.2649,0.4932,2.2023,0.8756,-1.2111,-74.85,34.95,-10.5,12.44,7.38,-4.53,2.0868,-2.258,-2.6605,-46.25,-8.0,42.0625,122.3125,54.625,177.9375,0
1776971925.275,8.6407,-4.4053,-3.79,2.2356,1.2867,-3.1149,-13.5,-22.95,-107.4,10.2615,2.1548,0.2179,2.2212,0.8601,-1.1572,-74.85,34.95,-10.5,12.44,7.38,-4.53,2.0868,-2.258,-2.6605,-46.25,-8.0,42.0625,122.3125,54.625,177.9375,0
1776971925.28,8.5449,-4.8794,-3.6823,2.38,1.3131,-3.068,-13.5,-22.95,-107.4,10.2615,2.1548,0.2179,2.2212,0.8601,-1.1572,-74.1,35.4,-12.3,12.61,7.64,-4.77,2.2067,-2.2875,-2.7991,-46.25,-8.0,42.0625,121.375,53.375,178.9375,0
1776971925.287,8.5449,-4.8794,-3.6823,2.38,1.3131,-3.068,-15.6,-21.75,-104.25,10.2041,2.1021,0.1915,2.2004,0.8934,-1.0864,-74.1,35.4,-12.3,12.93,7.44,-5.51,2.3104,-2.3442,-2.9714,-46.25,-8.0,42.0625,120.4375,52.125,179.8125,0
1776971925.291,8.4731,-5.1643,-3.5003,2.5167,1.3504,-3.0169,-13.95,-20.7,-106.65,10.1682,1.9896,0.1221,2.133,0.9593,-0.9899,-75.9,34.8,-13.65,12.93,7.44,-5.51,2.3104,-2.3442,-2.9714,-46.25,-8.0,42.0625,119.5,50.75,-179.25,0
1776971925.3,8.272,-5.296,-3.395,2.5708,1.376,-2.9942,-13.95,-20.7,-106.65,9.9814,2.0758,-0.182,2.133,0.9593,-0.9899,-73.35,35.4,-12.3,12.86,7.31,-5.63,2.3638,-2.4315,-3.158,-46.25,-8.0,42.0625,119.5,50.75,-179.25,0
1776971925.31,7.865,-5.2577,-3.4069,2.5047,1.3995,-3.0126,-13.95,-20.7,-106.65,9.7013,1.8268,-0.2586,2.0707,1.0206,-0.7946,-73.35,35.4,-12.3,12.49,7.1,-5.43,2.3616,-2.5329,-3.339,-46.25,-8.0,42.0625,118.5625,49.3125,-178.375,0
1776971925.315,7.865,-5.2577,-3.4069,2.5047,1.3995,-3.0126,-13.05,-20.25,-104.25,9.7013,1.8268,-0.2586,2.0707,1.0206,-0.7946,-73.35,35.4,-12.3,12.49,7.1,-5.43,2.3616,-2.5329,-3.339,-46.25,-8.0,42.0625,117.75,47.8125,-177.5625,0
1776971925.32,7.4196,-5.0159,-3.4692,2.4011,1.4802,-3.0696,-12.45,-20.25,-104.25,9.3996,1.7406,-0.1844,2.0752,1.0115,-0.6859,-73.8,34.95,-13.8,11.57,6.49,-4.89,2.3431,-2.6038,-3.4841,-28.75,-13.75,54.25,117.75,47.8125,-177.5625,0
1776971925.325,7.4196,-5.0159,-3.4692,2.4011,1.4802,-3.0696,-12.45,-15.45,-102.75,9.3996,1.7406,-0.1844,2.0752,1.0115,-0.6859,-73.8,34.95,-13.8,11.57,6.49,-4.89,2.3431,-2.6038,-3.4841,-28.75,-13.75,54.25,117.75,47.8125,-177.5625,0
1776971925.33,7.1946,-4.7429,-3.7469,2.2993,1.6206,-3.1501,-12.75,-16.95,-102.75,9.1554,1.4772,-0.182,2.0877,0.979,-0.5678,-73.8,34.95,-13.8,11.18,6.16,-4.77,2.3071,-2.6234,-3.5768,-28.75,-13.75,54.25,116.9375,46.25,-176.75,0
1776971925.335,7.1946,-4.7429,-3.7469,2.2993,1.6206,-3.1501,-12.75,-16.95,-102.75,9.1554,1.4772,-0.182,2.0877,0.979,-0.5678,-73.8,34.95,-13.8,11.18,6.16,-4.77,2.2504,-2.6104,-3.6161,-28.75,-13.75,54.25,108.3125,44.6875,-176.0625,0
1776971925.341,7.1251,-4.5657,-3.8571,2.2207,1.7901,-3.2287,-12.75,-12.9,-101.25,8.9447,1.2019,-0.237,2.1149,0.9172,-0.4407,-72.45,37.5,-15.45,10.9,5.95,-4.75,2.2504,-2.6104,-3.6161,-28.75,-13.75,54.25,105.875,43.125,-175.4375,0
1776971925.351,7.3287,-4.3407,-3.8834,2.1855,1.9724,-3.2842,-13.5,-12.9,-100.2,8.734,0.9529,-0.3711,2.1405,0.8521,-0.3168,-72.6,36.9,-15.6,10.65,5.76,-4.79,2.1631,-2.5787,-3.6183,-28.75,-13.75,54.25,105.875,43.125,-175.4375,0
1776971925.36,7.6136,-4.0965,-3.699,2.1962,2.1338,-3.3111,-13.5,-12.9,-100.2,8.6455,0.6656,-0.5507,2.1216,0.7903,-0.1927,-73.35,38.1,-16.35,10.31,5.57,-4.86,2.0475,-2.5373,-3.591,-28.75,-13.75,54.25,103.5,41.5,-174.875,0
1776971925.365,7.6136,-4.0965,-3.699,2.1962,2.1338,-3.3111,-13.5,-12.9,-100.2,8.6455,0.6656,-0.5507,2.1216,0.7903,-0.1927,-73.35,38.1,-16.35,10.31,5.57,-4.86,2.0475,-2.5373,-3.591,-28.75,-13.75,54.25,103.5,41.5,-174.875,0
1776971925.37,8.1068,-3.6966,-3.5626,2.2066,2.2815,-3.3017,-13.35,-8.55,-99.75,8.5258,0.3424,-0.7901,2.0312,0.7493,-0.0759,-74.1,37.65,-16.35,10.19,5.57,-4.78,1.9231,-2.4533,-3.5539,-4.5,-17.375,55.5,101.1875,40.0,-174.375,0
1776971925.375,8.1068,-3.6966,-3.5626,2.2066,2.2815,-3.3017,-13.35,-8.55,-99.75,8.5258,0.3424,-0.7901,2.0312,0.7493,-0.0759,-74.1,37.65,-16.35,10.19,5.57,-4.78,1.9231,-2.4533,-3.5539,-4.5,-17.375,55.5,101.1875,40.0,-174.375,0
1776971925.38,8.248,-3.1149,-3.2417,2.2425,2.404,-3.2692,-12.45,-7.2,-98.4,8.4755,0.2897,-1.0151,1.9065,0.7147,0.0413,-73.65,37.95,-17.4,10.14,5.69,-4.62,1.8141,-2.3387,-3.495,-4.5,-17.375,55.5,98.9375,38.5,-173.875,0
1776971925.387,8.2001,-2.3679,-3.0095,2.1986,2.5349,-3.2197,-12.45,-7.2,-98.4,8.1044,0.3256,-1.4126,1.7866,0.7155,0.1388,-73.65,37.95,-17.4,10.46,6.03,-4.46,1.7584,-2.186,-3.3892,-4.5,-17.375,55.5,96.8125,37.0625,-173.5,0
1776971925.392,8.2001,-2.3679,-3.0095,2.1986,2.5349,-3.2197,-12.15,-4.95,-98.85,8.1044,0.3256,-1.4126,1.7866,0.7155,0.1388,-72.6,36.45,-17.85,10.46,6.03,-4.46,1.7584,-2.186,-3.3892,-4.5,-17.375,55.5,94.75,35.75,-173.25,0
1776971925.401,8.1786,-1.9034,-2.9904,2.0733,2.7009,-3.1685,-10.95,-5.7,-96.6,7.8506,0.4645,-1.81,1.6955,0.6928,0.2238,-72.6,36.45,-17.85,11.16,6.04,-4.67,1.7355,-2.0169,-3.2496,-4.5,-17.375,55.5,92.75,34.5,-173.0625,0
1776971925.411,8.6455,-1.6233,-3.0718,1.9617,2.8719,-3.0771,-12.45,-2.4,-96.0,7.7045,0.6297,-2.2194,1.6046,0.6478,0.3056,-73.95,35.55,-18.45,11.81,5.9,-4.84,1.6842,-1.8893,-3.1307,-4.5,-17.375,55.5,92.75,34.5,-173.0625,0
1776971925.416,9.2847,-1.6759,-2.9616,1.9273,3.0393,-2.9441,-12.45,-2.4,-96.0,7.8865,0.9002,-2.49,1.6046,0.6478,0.3056,-73.95,35.55,-18.45,11.81,5.9,-4.84,1.6842,-1.8893,-3.1307,-4.5,-17.375,55.5,92.75,34.5,-173.0625,0
1776971925.421,9.2847,-1.6759,-2.9616,1.9273,3.0393,-2.9441,-12.45,-2.4,-96.0,7.8865,0.9002,-2.49,1.4789,0.5761,0.3736,-73.95,35.55,-18.45,12.65,5.61,-4.81,1.5752,-1.7955,-3.074,11.0,-10.375,47.25,90.8125,33.3125,-172.875,0
1776971925.426,10.1394,-2.4852,-2.6288,1.9838,3.1501,-2.755,-12.45,-2.4,-96.0,8.1427,1.4748,-2.1093,1.3166,0.4546,0.4439,-73.95,35.55,-18.45,12.65,5.61,-4.81,1.5752,-1.7955,-3.074,11.0,-10.375,47.25,90.8125,33.3125,-172.875,0
1776971925.431,10.1394,-2.4852,-2.6288,1.9838,3.1501,-2.755,-11.55,-0.3,-94.65,8.1427,1.4748,-2.1093,1.3166,0.4546,0.4439,-73.65,36.75,-17.7,12.6,5.12,-4.26,1.4192,-1.7159,-3.0576,11.0,-10.375,47.25,89.0,32.1875,-172.6875,0
1776971925.436,11.0325,-2.8299,-1.2282,2.0995,3.0603,-2.4997,-11.55,-0.3,-94.65,7.853,2.0973,-2.0518,1.1002,0.4229,0.4706,-73.65,36.75,-17.7,12.6,5.12,-4.26,1.2348,-1.585,-3.1569,11.0,-10.375,47.25,87.0625,31.0625,-172.375,0
1776971925.442,11.0325,-2.8299,-1.2282,2.0995,3.0603,-2.4997,-11.7,3.15,-94.2,7.853,2.0973,-2.0518,1.1002,0.4229,0.4706,-73.95,34.35,-19.2,12.23,3.23,-3.88,1.2348,-1.585,-3.1569,11.0,-10.375,47.25,85.0625,30.0625,-171.8125,0
1776971925.451,11.9926,-2.7198,-0.1389,1.9793,2.7422,-2.222,-10.5,4.5,-92.85,7.6782,2.5786,-1.9968,0.9028,0.4559,0.4794,-74.85,34.95,-20.55,12.31,2.07,-3.88,0.8825,-1.3384,-3.4208,11.0,-10.375,47.25,83.0625,29.1875,-171.0,0
1776971925.461,12.1075,-1.889,-0.3448,1.7176,2.4456,-2.0379,-7.95,6.0,-92.25,7.7883,3.2034,-2.1117,0.7797,0.4506,0.4954,-74.1,33.45,-20.55,14.15,3.21,-3.3,0.516,-1.0254,-3.6379,11.0,-10.375,47.25,83.0625,29.1875,-171.0,0
1776971925.466,12.062,-0.8882,-1.0319,1.6657,2.3252,-1.9079,-7.95,6.0,-92.25,8.2313,3.8523,-2.1572,0.6222,0.389,0.5199,-74.1,33.45,-20.55,14.15,3.21,-3.3,0.516,-1.0254,-3.6379,11.0,-10.375,47.25,80.9375,28.5,-170.125,0
1776971925.471,12.062,-0.8882,-1.0319,1.6657,2.3252,-1.9079,-7.95,6.0,-92.25,8.2313,3.8523,-2.1572,0.6222,0.389,0.5199,-73.05,34.5,-19.05,15.39,4.06,-2.47,0.432,-0.7134,-3.7023,15.6875,-5.1875,37.5625,80.9375,28.5,-170.125,0
1776971925.476,12.0309,-0.2969,-1.8699,1.7336,2.3118,-1.6995,-7.95,6.0,-92.25,8.7293,4.7285,-2.0231,0.3765,0.3238,0.5574,-73.05,34.5,-19.05,15.39,4.06,-2.47,0.432,-0.7134,-3.7023,15.6875,-5.1875,37.5625,78.9375,27.8125,-169.5,0
1776971925.481,12.0309,-0.2969,-1.8699,1.7336,2.3118,-1.6995,-7.95,6.0,-92.25,8.7293,4.7285,-2.0231,0.3765,0.3238,0.5574,-75.15,34.05,-19.5,15.49,4.05,-1.41,0.6261,-0.6021,-3.5267,15.6875,-5.1875,37.5625,78.9375,27.8125,-169.5,0
1776971925.489,12.1506,-0.0335,-1.9106,1.8706,2.2575,-1.3965,-2.7,10.65,-91.65,9.2464,5.9592,-1.7741,0.1498,0.3054,0.6009,-75.15,34.05,-19.5,15.01,2.39,0.92,1.0101,-0.5552,-3.2812,15.6875,-5.1875,37.5625,77.0,27.1875,-169.125,0
1776971925.494,12.141,0.3352,-2.2553,1.9817,1.9788,-1.0086,-2.7,10.65,-91.65,9.2153,7.1898,-1.5179,0.0069,0.3142,0.5934,-75.15,34.05,-19.5,15.01,2.39,0.92,1.0101,-0.5552,-3.2812,15.6875,-5.1875,37.5625,75.1875,26.625,-169.0625,0
1776971925.501,12.141,0.3352,-2.2553,1.9817,1.9788,-1.0086,-1.8,14.55,-92.85,9.2153,7.1898,-1.5179,0.0069,0.3142,0.5934,-73.95,33.15,-19.95,14.6,1.25,2.17,1.3614,-0.444,-3.0478,15.6875,-5.1875,37.5625,73.375,26.1875,-169.1875,0
1776971925.511,11.6095,0.3998,-1.7693,2.0518,1.63,-0.6336,-1.8,18.0,-95.1,8.6191,8.2935,-0.0335,0.0218,0.3882,0.5335,-73.95,33.15,-19.95,13.45,0.02,3.19,1.5675,-0.1854,-2.8722,15.6875,-5.1875,37.5625,73.375,26.1875,-169.1875,0
1776971925.516,11.2551,0.5387,-1.4341,1.9145,1.4346,-0.3461,-1.8,18.0,-95.1,8.6191,8.2935,-0.0335,0.129,0.493,0.4778,-73.95,33.15,-19.95,13.45,0.02,3.19,1.5675,-0.1854,-2.8722,15.6875,-5.1875,37.5625,73.375,26.1875,-169.1875,0
1776971925.521,11.2551,0.5387,-1.4341,1.9145,1.4346,-0.3461,-1.5,22.2,-98.85,8.2983,8.3079,0.6512,0.129,0.493,0.4778,-75.9,33.15,-17.4,13.81,-0.21,4.73,1.5762,0.2651,-2.7674,15.0,-2.5,33.1875,71.625,26.0625,-169.3125,0
1776971925.526,11.3796,-1.1157,-0.8691,1.8604,1.0805,-0.0528,-1.5,22.2,-98.85,8.2983,8.3079,0.6512,0.2356,0.5343,0.4599,-75.9,33.15,-17.4,13.81,-0.21,4.73,1.5762,0.2651,-2.7674,15.0,-2.5,33.1875,71.625,26.0625,-169.3125,0
1776971925.531,11.3796,-1.1157,-0.8691,1.8604,1.0805,-0.0528,-1.5,22.2,-98.85,8.2121,7.92,1.2378,0.2356,0.5343,0.4599,-75.9,33.15,-17.4,14.9,-1.86,6.07,1.3319,0.5607,-2.546,15.0,-2.5,33.1875,70.0,26.125,-169.3125,0
1776971925.536,10.8697,-1.154,0.012,1.9295,0.6742,0.2856,-1.5,22.2,-98.85,8.2121,7.92,1.2378,0.2166,0.5729,0.4863,-75.15,32.85,-18.0,14.9,-1.86,6.07,1.0254,0.8868,-2.2886,15.0,-2.5,33.1875,68.5625,26.375,-169.25,0
1776971925.542,10.8314,-1.7406,1.1229,1.6998,0.2697,0.724,-1.5,22.2,-98.85,8.0086,7.2784,1.4126,0.1204,0.611,0.5161,-74.55,32.55,-19.05,13.56,-2.77,5.5,1.0254,0.8868,-2.2886,15.0,-2.5,33.1875,67.125,26.875,-169.0,0
1776971925.551,9.7683,-1.9513,0.3017,1.339,-0.0179,0.9998,6.15,32.25,-112.5,7.774,6.3063,1.0247,0.149,0.6403,0.5337,-74.55,32.55,-19.05,13.81,-2.82,5.34,0.8149,1.3603,-2.2318,15.0,-2.5,33.1875,67.125,26.875,-169.0,0
1776971925.561,9.4763,-2.7485,-1.0942,1.1455,-0.251,1.1751,7.95,36.0,-116.85,7.4603,5.1954,0.3448,0.2462,0.6523,0.5401,-76.2,33.15,-18.45,13.87,-2.72,4.92,0.648,1.5206,-2.1293,15.0,-2.5,33.1875,65.8125,27.5,-168.6875,0
1776971925.566,9.4763,-2.7485,-1.0942,1.1455,-0.251,1.1751,11.4,38.4,-123.0,7.4603,5.1954,0.3448,0.2462,0.6523,0.5401,-76.2,33.15,-18.45,13.87,-2.72,4.92,0.648,1.5206,-2.1293,15.0,-2.5,33.1875,64.5625,28.125,-168.375,0
1776971925.571,9.3829,-2.9497,-1.4485,0.8977,-0.323,1.3145,11.4,38.4,-123.0,7.3263,4.0031,-0.249,0.3861,0.6955,0.5444,-76.2,33.15,-18.45,12.95,-2.74,4.01,0.6272,1.5893,-1.898,11.875,0.375,31.375,64.5625,28.125,-168.375,0
1776971925.576,9.3829,-2.9497,-1.4485,0.8977,-0.323,1.3145,11.85,39.3,-125.4,7.3263,4.0031,-0.249,0.3861,0.6955,0.5444,-75.6,31.05,-17.85,12.95,-2.74,4.01,0.6272,1.5893,-1.898,11.875,0.375,31.375,63.4375,28.9375,-168.25,0
1776971925.581,9.4643,-3.2825,-1.8316,0.8247,-0.465,1.4802,11.85,39.3,-125.4,7.2927,3.0047,-0.7302,0.5886,0.7552,0.5806,-75.6,31.05,-17.85,12.97,-3.08,3.25,0.7821,1.7813,-1.6526,11.875,0.375,31.375,63.4375,28.9375,-168.25,0
1776971925.588,9.4643,-3.2825,-1.8316,0.8247,-0.465,1.4802,11.85,39.3,-125.4,7.2927,3.0047,-0.7302,0.5886,0.7552,0.5806,-75.6,31.05,-17.85,12.66,-3.47,-0.01,0.8159,1.8162,-1.3843,11.875,0.375,31.375,62.4375,29.75,-168.125,0
1776971925.593,9.9647,-3.1125,-2.5426,0.7528,-0.7357,1.6355,11.85,39.3,-125.4,7.5609,2.1452,-0.8499,0.7277,0.8039,0.6342,-76.5,29.1,-17.55,12.66,-3.47,-0.01,0.8159,1.8162,-1.3843,11.875,0.375,31.375,61.625,30.75,-168.0,0
1776971925.601,10.0916,-3.1891,-1.992,0.5534,-0.9563,1.7189,11.85,39.3,-125.4,8.5665,1.0774,-0.9577,0.9582,0.8543,0.6896,-76.5,29.1,-17.55,12.21,-1.9,-1.77,0.6523,2.0759,-1.1912,11.875,0.375,31.375,60.9375,31.5,-168.125,0
1776971925.611,9.0956,-0.9744,-0.261,0.5449,-1.0842,1.6739,11.4,46.2,-130.8,9.5984,0.1269,-1.0415,1.1604,0.8103,0.7919,-76.5,29.1,-17.55,5.01,15.87,-11.74,0.8716,1.5708,-0.8247,11.875,0.375,31.375,60.9375,31.5,-168.125,0
1776971925.616,9.0956,-0.9744,-0.261,0.5449,-1.0842,1.6739,11.25,47.55,-131.4,9.5984,0.1269,-1.0415,1.1604,0.8103,0.7919,-77.25,29.55,-17.1,5.01,15.87,-11.74,0.8716,1.5708,-0.8247,11.875,0.375,31.375,60.9375,31.5,-168.125,0
1776971925.621,8.3725,3.1388,2.5833,1.554,-0.64,1.1306,11.25,47.55,-131.4,11.248,-0.4717,-0.7278,1.2772,0.7786,0.9643,-77.25,29.55,-17.1,4.39,7.94,-16.66,2.7096,1.6886,0.0273,9.5625,4.0,31.5625,60.4375,32.4375,-169.5,0
1776971925.626,8.3725,3.1388,2.5833,1.554,-0.64,1.1306,11.4,47.7,-133.35,11.248,-0.4717,-0.7278,1.2772,0.7786,0.9643,-78.0,29.1,-17.85,4.39,7.94,-16.66,2.7096,1.6886,0.0273,9.5625,4.0,31.5625,60.4375,32.4375,-169.5,0
1776971925.631,9.2392,7.5705,1.3384,2.302,0.1982,0.2118,11.4,47.7,-133.35,13.5895,-0.4381,-1.3168,1.4999,0.732,1.2478,-78.0,29.1,-17.85,1.77,4.1,-29.88,2.9431,0.3589,-0.2509,9.5625,4.0,31.5625,59.75,32.5625,-171.0,0
1776971925.636,9.2392,7.5705,1.3384,2.302,0.1982,0.2118,8.4,51.15,-131.85,13.5895,-0.4381,-1.3168,1.4999,0.732,1.2478,-76.8,28.35,-17.55,1.77,4.1,-29.88,2.4129,0.3851,-0.4418,9.5625,4.0,31.5625,59.125,32.75,-172.1875,0
1776971925.642,16.4003,10.4267,-0.6967,2.4307,1.2897,-0.5782,8.4,51.15,-131.85,15.6581,0.4334,-2.2314,1.7611,0.6376,1.518,-78.15,25.35,-17.55,4.97,-12.58,-13.74,2.4129,0.3851,-0.4418,9.5625,4.0,31.5625,59.3125,33.75,-174.5,0
1776971925.651,19.1823,7.094,-7.7165,1.0541,1.3707,-0.4143,8.4,51.15,-131.85,16.3069,2.1644,-4.0366,2.0254,0.51,1.602,-78.15,25.35,-16.95,4.89,-32.06,-9.5,3.3445,1.6548,1.4475,9.5625,4.0,31.5625,59.3125,33.75,-174.5,0
1776971925.661,18.3037,-1.585,-13.3956,-1.0595,0.9273,0.1655,4.95,51.3,-135.6,16.4194,4.458,-5.3271,2.1349,0.3011,1.4501,-78.15,27.3,-17.4,22.84,5.39,-15.1,1.5981,1.4933,1.5184,9.5625,4.0,31.5625,59.875,34.6875,-175.875,0
1776971925.666,18.3037,-1.585,-13.3956,-1.0595,0.9273,0.1655,2.4,45.75,-137.85,13.8672,6.0071,-4.4221,1.9545,0.1647,1.1588,-78.15,26.1,-19.2,22.84,5.39,-15.1,1.5981,1.4933,1.5184,9.5625,4.0,31.5625,60.0625,35.5,-175.6875,0
1776971925.671,15.8352,-4.6352,-13.3668,-1.429,0.1958,0.6608,2.4,45.75,-137.85,13.8672,6.0071,-4.4221,1.9545,0.1647,1.1588,-78.15,26.1,-19.2,9.32,8.42,-2.33,-0.5192,1.4813,0.2509,8.5625,9.1875,30.875,60.0625,35.5,-175.6875,0
1776971925.676,15.8352,-4.6352,-13.3668,-1.429,0.1958,0.6608,3.0,43.95,-140.4,9.7779,5.3726,-1.1277,1.5028,0.3296,0.9936,-78.15,26.1,-19.2,9.32,8.42,-2.33,-0.5192,1.4813,0.2509,8.5625,9.1875,30.875,60.0625,35.5,-175.6875,0
1776971925.68,11.5424,-1.7885,-10.3166,0.5431,-0.6259,0.8879,3.0,43.95,-140.4,9.7779,5.3726,-1.1277,1.5028,0.3296,0.9936,-78.15,26.1,-19.2,4.42,6.78,-2.83,-0.7778,0.3774,0.0513,8.5625,9.1875,30.875,60.25,35.6875,-175.25,0
1776971925.685,11.5424,-1.7885,-10.3166,0.5431,-0.6259,0.8879,0.3,42.75,-141.3,7.7931,2.7342,2.3487,1.4354,0.6872,1.0123,-80.85,22.95,-19.2,4.42,6.78,-2.83,0.0218,0.2793,0.0829,8.5625,9.1875,30.875,60.25,35.875,-175.3125,0
1776971925.692,7.1275,1.2546,-5.0829,2.5077,-1.048,0.9846,0.3,42.75,-141.3,7.7931,2.7342,2.3487,1.4354,0.6872,1.0123,-80.85,22.95,-19.2,10.49,-3.83,-10.32,0.0218,0.2793,0.0829,8.5625,9.1875,30.875,60.1875,36.0,-175.125,0
1776971925.701,7.1084,2.3894,2.6911,2.3174,-0.9297,0.8812,0.3,44.25,-143.85,7.8721,-0.5962,3.1675,1.6577,0.7933,1.1122,-80.85,22.95,-19.2,6.76,-1.4,-8.86,-0.1156,0.3043,-0.1582,8.5625,9.1875,30.875,60.1875,36.0,-175.125,0
1776971925.711,8.2672,0.9385,6.5721,1.5434,-0.9212,1.0235,0.3,44.25,-143.85,7.7165,-2.7198,2.047,1.7909,0.688,1.1482,-80.25,24.0,-19.35,6.49,2.6,-7.85,-0.3589,-0.1244,-0.312,8.5625,9.1875,30.875,60.0625,35.9375,-174.8125,0
1776971925.716,6.6176,-2.3224,8.5449,0.1998,-0.7557,1.1021,2.1,47.25,-145.65,7.6662,-3.4955,0.6105,1.6188,0.7123,1.2049,-80.4,22.65,-20.25,6.49,2.6,-7.85,-0.3589,-0.1244,-0.312,8.5625,9.1875,30.875,60.0625,35.9375,-174.8125,0
1776971925.721,6.6176,-2.3224,8.5449,0.1998,-0.7557,1.1021,2.1,47.25,-145.65,7.6662,-3.4955,0.6105,1.6188,0.7123,1.2049,-80.4,22.65,-20.25,6.39,3.23,-7.05,-0.4581,-0.2563,-0.348,8.0,10.875,30.5625,60.0,35.75,-174.4375,0
1776971925.726,7.9272,-3.9504,4.9321,-0.0368,-0.554,1.1501,5.7,45.0,-147.75,7.7069,-3.2106,-1.1564,1.1293,0.6811,1.283,-81.15,22.95,-18.45,6.39,3.23,-7.05,-0.4581,-0.2563,-0.348,8.0,10.875,30.5625,60.0,35.75,-174.4375,0
1776971925.731,7.9272,-3.9504,4.9321,-0.0368,-0.554,1.1501,5.7,45.0,-147.75,7.7069,-3.2106,-1.1564,1.1293,0.6811,1.283,-81.15,22.95,-18.45,5.32,1.05,-7.96,-0.7898,-0.4745,-0.2967,8.0,10.875,30.5625,59.9375,35.5,-173.9375,0
1776971925.736,7.8027,-5.1188,4.1061,-0.2545,-0.603,1.3129,10.8,45.3,-146.7,8.5234,-3.1556,-2.8706,0.5388,0.4748,1.3579,-81.0,22.05,-20.1,5.32,1.05,-7.96,-0.9774,-0.5596,-0.3207,8.0,10.875,30.5625,60.0,35.1875,-173.25,0
1776971925.742,7.8027,-5.1188,4.1061,-0.2545,-0.603,1.3129,10.8,45.3,-146.7,8.9232,-2.6839,-3.3998,0.5388,0.4748,1.3579,-81.0,22.05,-20.1,4.77,1.33,-7.72,-0.9774,-0.5596,-0.3207,8.0,10.875,30.5625,60.0,34.875,-172.8125,0
1776971925.751,7.7189,-5.1092,3.7828,-0.5438,-0.3254,1.3622,15.0,42.9,-146.1,8.351,-1.2498,-2.059,-0.0005,0.1748,1.3225,-82.95,21.3,-21.6,3.85,2.07,-7.23,-0.7156,-0.4832,-0.24,8.0,10.875,30.5625,60.0,34.875,-172.8125,0
1776971925.761,8.2648,-2.2913,3.2992,-0.7917,0.2801,1.3307,18.15,43.5,-143.85,8.2648,0.4453,0.6752,-0.5148,0.1287,1.1314,-82.35,20.7,-19.5,3.53,1.98,-6.96,-0.2323,-0.192,-0.0698,8.0,10.875,30.5625,60.0,34.75,-172.625,0
1776971925.766,9.4547,1.4509,1.6065,-1.2412,0.6195,1.2812,18.15,43.5,-143.85,8.2648,0.4453,0.6752,-0.8484,0.2886,0.8924,-82.35,20.7,-19.5,3.53,1.98,-6.96,-0.2323,-0.192,-0.0698,8.0,10.875,30.5625,60.0,34.9375,-172.6875,0
1776971925.771,9.4547,1.4509,1.6065,-1.2412,0.6195,1.2812,18.15,43.5,-143.85,8.6981,1.9776,3.1987,-0.8484,0.2886,0.8924,-82.35,20.7,-19.5,4.34,1.88,-7.37,0.1047,0.2618,0.0218,8.0,11.1875,31.5625,60.0,34.9375,-172.6875,0
1776971925.776,10.2328,3.2753,-1.7382,-1.4061,0.757,1.0749,23.7,41.7,-138.3,8.6981,1.9776,3.1987,-0.7861,0.4959,0.7341,-83.1,19.95,-19.2,4.34,1.88,-7.37,0.1047,0.2618,0.0218,8.0,11.1875,31.5625,60.0,34.9375,-172.6875,0
1776971925.781,10.2328,3.2753,-1.7382,-1.4061,0.757,1.0749,23.7,41.7,-138.3,9.4786,3.0478,4.2497,-0.3824,0.5255,0.6832,-83.1,19.95,-19.2,4.92,1.65,-7.22,0.2203,0.6207,0.0338,8.0,11.1875,31.5625,59.9375,35.25,-172.8125,0
1776971925.786,10.7356,3.3782,-3.869,-1.0685,0.8359,0.663,22.5,42.75,-136.05,9.4786,3.0478,4.2497,-0.3824,0.5255,0.6832,-83.1,19.95,-19.2,4.92,1.65,-7.22,0.2422,0.5389,0.0894,8.0,11.1875,31.5625,59.9375,35.5625,-172.9375,0
1776971925.792,10.7356,3.3782,-3.869,-1.0685,0.8359,0.663,19.95,43.8,-135.3,9.7085,3.7948,3.7685,0.2166,0.4461,0.6984,-83.1,19.95,-19.2,5.46,1.41,-7.7,0.2422,0.5389,0.0894,8.0,11.1875,31.5625,59.9375,35.8125,-173.125,0
1776971925.802,11.2288,4.719,-4.9201,0.2161,0.4978,0.2894,17.25,46.65,-139.05,9.3829,3.9528,2.32,0.9276,0.3792,0.7226,-83.4,19.05,-18.45,5.83,1.32,-7.72,0.2716,0.4429,0.1287,8.0,11.1875,31.5625,59.9375,36.0625,-173.3125,0
1776971925.812,10.6518,4.118,-1.6544,0.9816,0.3198,0.218,14.7,49.65,-143.25,9.6367,2.5666,0.9457,1.5601,0.3283,0.7317,-84.6,18.75,-19.5,5.81,1.48,-7.72,0.2705,0.4592,0.1429,8.0,11.1875,31.5625,59.9375,36.0625,-173.3125,0
1776971925.817,10.6518,4.118,-1.6544,0.9816,0.3198,0.218,14.7,49.65,-143.25,9.6367,2.5666,0.9457,1.5601,0.3283,0.7317,-84.75,17.7,-19.35,5.81,1.48,-7.72,0.2705,0.4592,0.1429,8.0,11.1875,31.5625,59.9375,36.0625,-173.3125,0
1776971925.822,10.9654,2.2122,-0.0934,1.3067,0.1929,0.1292,14.7,49.65,-143.25,9.9072,0.7638,0.2729,1.8855,0.2662,0.7176,-84.75,17.7,-19.35,6.19,1.72,-7.93,0.3262,0.6501,0.1102,8.0,11.1875,32.0,59.9375,36.4375,-173.5,0
1776971925.826,10.9654,2.2122,-0.0934,1.3067,0.1929,0.1292,14.7,49.65,-143.25,9.9072,0.7638,0.2729,1.8855,0.2662,0.7176,-83.7,17.7,-20.55,6.19,1.72,-7.93,0.3262,0.6501,0.1102,8.0,11.1875,32.0,59.9375,36.4375,-173.5,0
1776971925.832,10.0389,-0.6249,1.7023,1.4123,-0.0322,0.1575,8.7,56.55,-156.75,9.9623,-0.905,0.735,1.9063,0.2625,0.7053,-83.7,17.7,-20.55,7.34,0.89,-7.99,0.3687,0.805,0.0578,8.0,11.1875,32.0,59.875,36.875,-173.6875,0
1776971925.836,10.0389,-0.6249,1.7023,1.4123,-0.0322,0.1575,8.7,56.55,-156.75,9.9623,-0.905,0.735,1.9063,0.2625,0.7053,-83.4,16.8,-19.5,7.34,0.89,-7.99,0.3305,0.601,0.0229,8.0,11.1875,32.0,59.8125,37.25,-173.875,0
1776971925.843,9.3901,-3.4309,3.1723,1.3662,-0.0642,0.2366,9.6,63.45,-162.6,9.9359,-1.4605,2.0614,1.8306,0.3216,0.7059,-83.4,16.8,-19.5,7.04,1.0,-7.86,0.3305,0.601,0.0229,8.0,11.1875,32.0,59.8125,37.375,-173.9375,0
1776971925.852,9.2201,-5.0278,4.4365,1.1658,-0.0261,0.3848,9.3,63.3,-167.4,9.2727,-0.2801,2.8683,1.8141,0.4154,0.643,-84.45,16.2,-19.05,6.68,1.28,-7.67,0.1527,0.2433,0.0196,8.0,11.1875,32.0,59.8125,37.375,-173.9375,0
1776971925.862,9.1435,-5.2074,4.4891,0.9268,-0.2531,0.6267,10.8,65.55,-169.2,8.9423,1.7837,3.3806,1.8866,0.542,0.5367,-84.45,16.2,-19.05,6.0,1.66,-7.41,0.0273,0.0633,0.0131,8.0,11.1875,32.0,59.8125,37.375,-174.0,0
1776971925.867,9.1435,-5.2074,4.4891,0.9268,-0.2531,0.6267,10.8,65.55,-169.2,9.4355,2.4924,3.814,1.8866,0.542,0.5367,-84.75,14.25,-20.1,6.0,1.66,-7.41,0.0273,0.0633,0.0131,8.0,11.1875,32.0,59.8125,37.375,-174.0,0
1776971925.872,9.7037,-4.0079,4.3024,0.51,-0.5236,0.9001,11.7,67.2,-169.65,9.4355,2.4924,3.814,1.8778,0.6432,0.4839,-84.75,14.25,-20.1,5.89,1.6,-7.57,0.0142,-0.0076,0.0393,7.5625,11.0625,31.5625,59.8125,37.375,-174.0,0
1776971925.876,9.7037,-4.0079,4.3024,0.51,-0.5236,0.9001,11.7,67.2,-169.65,9.5936,1.8387,4.1539,1.8778,0.6432,0.4839,-84.75,14.25,-20.1,5.89,1.6,-7.57,0.0142,-0.0076,0.0393,7.5625,11.0625,31.5625,59.8125,37.375,-174.0,0
1776971925.881,9.5912,-3.1627,3.6751,0.1852,-0.4578,1.0222,11.7,67.2,-169.65,9.5936,1.8387,4.1539,1.7786,0.5905,0.3741,-84.75,14.25,-20.1,5.69,1.39,-7.58,0.0731,-0.0556,0.0982,7.5625,11.0625,31.5625,59.875,37.375,-174.0625,0
1776971925.888,9.5912,-3.1627,3.6751,0.1852,-0.4578,1.0222,11.7,67.2,-169.65,11.5855,-3.5817,3.79,1.5617,0.5281,0.2955,-84.15,15.9,-20.25,5.53,1.44,-7.64,0.204,-0.0196,0.1374,7.5625,11.0625,31.5625,59.875,37.375,-174.25,0
1776971925.893,10.3334,-2.3056,2.6719,-0.0077,-0.372,1.0762,17.4,66.3,-167.7,11.5855,-3.5817,3.79,1.5617,0.5281,0.2955,-84.15,15.9,-20.25,5.53,1.44,-7.64,0.204,-0.0196,0.1374,7.5625,11.0625,31.5625,59.9375,37.5,-174.5,0
1776971925.902,10.7619,-1.6113,1.6017,0.0091,-0.4141,1.0288,20.25,68.25,-165.3,10.6111,-2.6959,3.1987,1.3502,0.4391,0.308,-84.75,15.75,-20.85,5.57,1.32,-7.59,0.3283,0.1778,0.1745,7.5625,11.0625,31.5625,59.9375,37.5,-174.5,0
1776971925.912,10.9702,-1.2761,0.4357,0.008,-0.4636,0.8982,21.75,69.0,-163.5,10.2615,-1.2617,2.0111,1.299,0.4221,0.3461,-86.25,13.8,-20.55,5.66,1.45,-7.52,0.4167,0.3185,0.2029,7.5625,11.0625,31.5625,59.9375,37.6875,-174.8125,0
1776971925.917,10.9702,-1.2761,0.4357,0.008,-0.4636,0.8982,21.75,69.0,-163.5,9.6367,-0.1389,1.2665,0.9569,0.3296,0.3123,-85.95,13.5,-20.1,5.66,1.45,-7.52,0.4167,0.3185,0.2029,7.5625,11.0625,31.5625,59.9375,37.6875,-174.8125,0
1776971925.922,10.9439,-1.3719,-0.2586,-0.025,-0.5124,0.7099,24.3,67.5,-162.0,9.6367,-0.1389,1.2665,0.9569,0.3296,0.3123,-85.95,13.5,-20.1,6.0,1.06,-7.68,0.4549,0.3894,0.2269,7.5625,12.1875,30.5,60.0,37.875,-175.125,0
1776971925.927,10.9439,-1.3719,-0.2586,-0.025,-0.5124,0.7099,24.3,67.5,-162.0,9.6917,0.644,0.7949,0.5708,0.2851,0.296,-85.95,13.5,-20.55,6.0,1.06,-7.68,0.4549,0.3894,0.2269,7.5625,12.1875,30.5,60.0,37.875,-175.125,0
1776971925.932,10.2807,-1.3647,-0.5267,-0.0221,-0.5289,0.5279,25.65,66.0,-161.7,9.6917,0.644,0.7949,0.5708,0.2851,0.296,-85.95,13.5,-20.55,6.6,0.27,-8.15,0.4767,0.468,0.2105,7.5625,12.1875,30.5,60.0,38.1875,-175.5,0
1776971925.937,10.2807,-1.3647,-0.5267,-0.0221,-0.5289,0.5279,25.65,66.0,-161.7,9.6343,0.7901,0.486,0.2766,0.2489,0.2931,-86.7,13.8,-19.05,6.6,0.27,-8.15,0.4691,0.564,0.1494,7.5625,12.1875,30.5,60.0,38.5,-175.8125,0
1776971925.943,10.0461,-1.4676,-0.5028,0.0434,-0.5284,0.3765,25.65,66.0,-161.7,9.6343,0.7901,0.486,0.2766,0.2489,0.2931,-86.7,13.8,-19.05,6.61,0.47,-7.98,0.4691,0.564,0.1494,7.5625,12.1875,30.5,59.9375,38.8125,-176.0625,0
1776971925.952,9.481,-1.4222,-0.3663,0.0917,-0.5199,0.2409,25.35,63.75,-161.25,9.6558,0.2897,0.261,0.0762,0.1852,0.2992,-86.7,13.8,-19.05,6.52,0.76,-7.75,0.42,0.5814,0.0982,7.5625,12.1875,30.5,59.9375,38.8125,-176.0625,0
1776971925.962,9.3398,-1.3695,-0.5387,0.1204,-0.4826,0.1204,21.3,61.05,-163.5,9.517,-0.4453,0.4381,-0.1095,0.0815,0.2715,-86.1,12.9,-19.2,6.58,0.92,-7.3,0.36,0.5061,0.0742,7.5625,12.1875,30.5,59.875,39.0625,-176.25,0
1776971925.967,9.019,-1.4485,-0.8499,0.0815,-0.4458,0.0333,21.3,61.05,-163.5,9.5361,-1.2282,0.747,-0.2558,0.0416,0.2481,-86.1,12.9,-19.2,6.58,0.92,-7.3,0.36,0.5061,0.0742,7.5625,12.1875,30.5,59.875,39.0625,-176.25,0
1776971925.972,9.019,-1.4485,-0.8499,0.0815,-0.4458,0.0333,19.35,59.4,-162.9,9.5361,-1.2282,0.747,-0.2558,0.0416,0.2481,-86.1,12.9,-19.2,6.36,0.85,-7.54,0.2651,0.3087,0.084,7.5625,12.5625,30.875,59.875,39.25,-176.4375,0
1776971925.977,8.8969,-1.4844,-1.2306,0.069,-0.3928,0.0282,19.35,59.4,-162.9,9.651,-1.8316,1.3886,-0.2888,0.0189,0.247,-86.25,12.6,-19.35,6.36,0.85,-7.54,0.2651,0.3087,0.084,7.5625,12.5625,30.875,59.875,39.25,-176.4375,0
1776971925.982,8.8969,-1.4844,-1.2306,0.069,-0.3928,0.0282,16.65,58.5,-164.85,9.5385,-1.7502,1.6472,-0.2888,0.0189,0.247,-86.25,12.6,-19.35,6.37,0.88,-7.56,0.1462,0.1658,0.1004,7.5625,12.5625,30.875,59.9375,39.375,-176.5625,0
1776971925.987,8.9136,-1.3168,-1.1229,0.0919,-0.4048,0.0557,16.65,58.5,-164.85,9.5385,-1.7502,1.6472,-0.2108,0.0197,0.2505,-86.1,12.45,-20.25,6.37,0.88,-7.56,0.0785,0.0894,0.1004,7.5625,12.5625,30.875,59.9375,39.4375,-176.625,0
1776971925.993,8.9136,-1.3168,-1.1229,0.0919,-0.4048,0.0557,12.75,59.7,-166.8,9.4188,-1.3168,1.719,-0.061,0.0192,0.2481,-86.1,12.45,-20.25,6.54,0.78,-7.6,0.0785,0.0894,0.1004,7.5625,12.5625,30.875,60.0,39.375,-176.6875,0
1776971926.002,9.1315,-1.3934,-1.4054,0.1545,-0.3853,0.1172,12.75,59.7,-166.8,9.2751,-0.9409,1.494,0.1202,0.0245,0.2547,-85.2,12.6,-20.1,6.44,0.73,-7.62,0.0044,-0.0894,0.0982,7.5625,12.5625,30.875,60.0,39.375,-176.6875,0
1776971926.012,9.0549,-1.5395,-1.415,0.1865,-0.408,0.1908,10.65,59.4,-166.05,9.2153,-0.5267,1.1349,0.2955,0.0229,0.2646,-87.6,12.0,-18.75,6.5,0.79,-7.58,-0.0633,-0.1047,0.0796,7.5625,12.5625,30.875,60.0625,39.3125,-176.6875,0
1776971926.017,9.0884,-1.7957,-1.6185,0.1298,-0.4218,0.2585,10.65,59.4,-166.05,9.2153,-0.5267,1.1349,0.2955,0.0229,0.2646,-85.05,11.25,-20.25,6.5,0.79,-7.58,-0.0633,-0.1047,0.0796,7.5625,12.5625,30.875,60.125,39.25,-176.625,0
1776971926.022,9.0884,-1.7957,-1.6185,0.1298,-0.4218,0.2585,9.75,57.75,-164.55,9.244,-0.3232,0.6943,0.4274,0.0562,0.3136,-85.05,11.25,-20.25,6.31,0.91,-7.44,-0.0971,-0.1036,0.06,6.875,13.0,31.6875,60.125,39.25,-176.625,0
1776971926.027,9.1171,-1.9537,-1.9609,0.1037,-0.4146,0.3088,9.75,57.75,-164.55,9.244,-0.3232,0.6943,0.4274,0.0562,0.3136,-86.1,10.95,-19.2,6.31,0.91,-7.44,-0.0971,-0.1036,0.06,6.875,13.0,31.6875,60.125,39.25,-176.5625,0
1776971926.032,9.1171,-1.9537,-1.9609,0.1037,-0.4146,0.3088,8.25,57.0,-164.1,9.3087,-0.2203,0.498,0.5236,0.0978,0.3784,-86.1,10.95,-19.2,6.15,1.03,-7.59,-0.0971,-0.1069,0.0578,6.875,13.0,31.6875,60.125,39.25,-176.5625,0
1776971926.037,9.1578,-2.0207,-2.1835,0.0821,-0.3912,0.3384,9.15,55.95,-164.1,9.3087,-0.2203,0.498,0.5236,0.0978,0.3784,-86.1,10.95,-19.2,6.15,1.03,-7.59,-0.0578,-0.0535,0.0535,6.875,13.0,31.6875,60.1875,39.1875,-176.5,0
1776971926.043,9.1578,-2.0207,-2.1835,0.0821,-0.3912,0.3384,9.15,55.95,-166.5,9.3374,-0.2011,0.486,0.5718,0.1306,0.4333,-86.1,10.95,-19.2,6.24,0.94,-7.5,-0.0578,-0.0535,0.0535,6.875,13.0,31.6875,60.1875,39.1875,-176.4375,0
1776971926.052,9.4954,-1.8196,-1.8364,0.1095,-0.3515,0.3533,9.15,54.15,-163.95,9.4332,-0.1125,0.498,0.5958,0.1591,0.4796,-85.35,11.7,-18.45,6.19,0.93,-7.54,-0.0185,-0.0131,0.0513,6.875,13.0,31.6875,60.1875,39.1875,-176.4375,0
1776971926.057,9.7109,-1.549,-1.6089,0.1583,-0.311,0.356,9.15,54.15,-163.95,9.4332,-0.1125,0.498,0.5958,0.1591,0.4796,-85.35,11.7,-18.45,6.19,0.93,-7.54,-0.0011,0.0153,0.0458,6.875,13.0,31.6875,60.1875,39.1875,-176.375,0
1776971926.063,9.7923,-1.4341,-1.5012,0.2217,-0.2992,0.3488,9.15,54.15,-163.95,9.4763,-0.0311,0.5435,0.5985,0.1665,0.5169,-85.35,11.7,-18.45,6.44,0.87,-7.6,-0.0011,0.0153,0.0458,6.875,13.0,31.6875,60.1875,39.1875,-176.375,0
1776971926.068,9.7923,-1.4341,-1.5012,0.2217,-0.2992,0.3488,11.4,52.2,-164.4,9.4763,-0.0311,0.5435,0.5985,0.1665,0.5169,-87.0,10.65,-18.6,6.47,0.83,-7.67,0.0076,0.048,0.0404,6.5,12.1875,31.25,60.1875,39.25,-176.375,0
1776971926.073,9.833,-1.403,-0.9433,0.1937,-0.2718,0.3331,11.4,52.2,-164.4,9.6247,0.0718,0.6321,0.5865,0.1727,0.5428,-87.0,10.65,-18.6,6.47,0.83,-7.67,0.0076,0.048,0.0404,6.5,12.1875,31.25,60.1875,39.25,-176.375,0
1776971926.078,9.833,-1.403,-0.9433,0.1937,-0.2718,0.3331,13.05,53.25,-163.8,9.675,0.0407,0.6249,0.5865,0.1727,0.5428,-88.05,9.3,-18.45,6.43,0.78,-7.61,-0.0044,0.0491,0.0196,6.5,12.1875,31.25,60.1875,39.3125,-176.3125,0
1776971926.083,9.7229,-1.5227,-0.4956,0.1279,-0.2348,0.2992,13.05,53.25,-163.8,9.675,0.0407,0.6249,0.5564,0.1628,0.5617,-88.05,9.3,-18.45,6.43,0.78,-7.61,-0.0044,0.0491,0.0196,6.5,12.1875,31.25,60.1875,39.3125,-176.3125,0
1776971926.088,9.7229,-1.5227,-0.4956,0.1279,-0.2348,0.2992,14.1,52.5,-165.6,9.7899,0.1867,0.5459,0.5564,0.1628,0.5617,-87.0,8.4,-19.35,6.43,0.78,-7.61,-0.024,0.0349,0.0,6.5,12.1875,31.25,60.1875,39.3125,-176.3125,0
1776971926.093,9.833,-1.3455,-0.1245,0.0448,-0.1974,0.2697,14.1,52.5,-165.6,9.7899,0.1867,0.5459,0.4959,0.17,0.5737,-87.0,8.4,-19.35,6.3,0.93,-7.53,-0.024,0.0349,0.0,6.5,12.1875,31.25,60.1875,39.3125,-176.1875,0
1776971926.102,9.9551,-1.1253,0.1939,-0.0322,-0.2046,0.2595,13.95,52.2,-164.4,9.821,0.2753,0.5387,0.4319,0.1545,0.5766,-86.7,8.4,-19.35,6.38,0.87,-7.52,-0.0491,0.024,-0.0164,6.5,12.1875,31.25,60.1875,39.3125,-176.1875,0
1776971926.107,9.9551,-1.1253,0.1939,-0.0322,-0.2046,0.2595,14.25,51.15,-163.95,9.7827,0.5124,0.5195,0.4319,0.1545,0.5766,-86.85,9.3,-19.2,6.38,0.87,-7.52,-0.0927,0.0305,-0.036,6.5,12.1875,31.25,60.1875,39.375,-176.0625,0
1776971926.113,10.0461,-0.7973,0.2777,-0.0282,-0.2478,0.2401,14.25,51.15,-163.95,9.7827,0.5124,0.5195,0.36,0.1298,0.5508,-86.85,9.3,-19.2,6.27,0.95,-7.43,-0.0927,0.0305,-0.036,6.5,12.1875,31.25,60.1875,39.375,-176.0625,0
1776971926.118,10.0461,-0.7973,0.2777,-0.0282,-0.2478,0.2401,14.25,51.15,-163.95,9.833,0.9122,0.5435,0.2832,0.0999,0.5151,-87.45,9.45,-17.55,6.27,0.95,-7.43,-0.0927,0.0305,-0.036,6.5,12.5625,30.875,60.1875,39.375,-175.9375,0
1776971926.123,10.149,-0.3711,0.1221,0.0421,-0.2891,0.2233,14.25,51.15,-163.95,9.833,0.9122,0.5435,0.2832,0.0999,0.5151,-87.45,9.45,-17.55,6.1,1.13,-7.33,-0.1254,0.0044,-0.0349,6.5,12.5625,30.875,60.1875,39.375,-175.9375,0
1776971926.128,10.149,-0.3711,0.1221,0.0421,-0.2891,0.2233,12.3,52.05,-164.55,9.8785,1.1923,0.6776,0.211,0.0703,0.4652,-87.45,9.45,-17.55,6.1,1.13,-7.33,-0.1254,0.0044,-0.0349,6.5,12.5625,30.875,60.1875,39.375,-175.8125,0
1776971926.133,10.2376,-0.1676,0.2753,0.0938,-0.3533,0.215,12.3,52.05,-164.55,9.8785,1.1923,0.6776,0.211,0.0703,0.4652,-87.45,9.45,-17.55,6.03,0.99,-7.49,-0.1298,-0.0327,-0.0131,6.5,12.5625,30.875,60.1875,39.375,-175.8125,0
1776971926.138,10.2376,-0.1676,0.2753,0.0938,-0.3533,0.215,12.75,52.95,-164.7,9.7348,1.3168,0.8859,0.1601,0.0429,0.4271,-87.45,7.5,-18.6,6.03,0.99,-7.49,-0.1167,-0.0262,0.0022,6.5,12.5625,30.875,60.1875,39.3125,-175.75,0
1776971926.143,10.0748,-0.1484,0.237,0.1351,-0.404,0.2212,12.75,52.95,-164.7,9.7348,1.3168,0.8859,0.1601,0.0429,0.4271,-87.45,7.5,-18.6,5.97,1.01,-7.48,-0.1167,-0.0262,0.0022,6.5,12.5625,30.875,60.25,39.3125,-175.6875,0
1776971926.153,10.0485,-0.3591,0.3208,0.1833,-0.4615,0.2395,10.8,52.5,-163.8,9.6678,1.5036,1.0008,0.1351,0.0389,0.396,-87.45,7.5,-18.6,5.98,0.99,-7.52,-0.0807,-0.0022,0.0207,6.5,12.5625,30.875,60.25,39.3125,-175.6875,0
1776971926.163,9.9623,-0.759,0.4405,0.2092,-0.5207,0.2814,11.4,53.4,-165.0,9.6606,1.6137,1.1229,0.1274,0.0408,0.3698,-85.95,8.7,-17.85,6.07,0.97,-7.47,-0.0349,0.0545,0.0338,6.5,12.5625,30.875,60.25,39.375,-175.6875,0
1776971926.167,9.9623,-0.759,0.4405,0.2092,-0.5207,0.2814,11.25,52.5,-164.55,9.5936,1.6352,1.1971,0.1748,0.0536,0.3525,-86.7,7.95,-19.05,6.07,0.97,-7.47,-0.0349,0.0545,0.0338,6.5,12.5625,30.875,60.25,39.4375,-175.6875,0
1776971926.173,9.9359,-0.8906,0.4836,0.2166,-0.5865,0.3227,11.25,52.5,-164.55,9.5936,1.6352,1.1971,0.1748,0.0536,0.3525,-86.7,7.95,-19.05,6.14,1.03,-7.48,0.0,0.1025,0.048,7.1875,12.5625,30.875,60.25,39.4375,-175.6875,0
1776971926.177,9.9359,-0.8906,0.4836,0.2166,-0.5865,0.3227,11.25,52.5,-164.55,9.481,1.5467,1.233,0.2409,0.0637,0.3368,-86.85,7.35,-18.0,6.14,1.03,-7.48,0.0,0.1025,0.048,7.1875,12.5625,30.875,60.3125,39.5,-175.6875,0
1776971926.182,9.9192,-1.1779,0.3136,0.1847,-0.6507,0.3906,11.25,52.5,-164.55,9.481,1.5467,1.233,0.2409,0.0637,0.3368,-86.85,7.35,-18.0,6.15,1.02,-7.44,0.0284,0.1407,0.0611,7.1875,12.5625,30.875,60.3125,39.5,-175.6875,0
1776971926.187,9.9192,-1.1779,0.3136,0.1847,-0.6507,0.3906,10.5,51.75,-166.65,9.4858,1.2905,1.1732,0.2867,0.0645,0.3285,-87.3,7.35,-18.45,6.15,1.02,-7.44,0.0491,0.1713,0.0807,7.1875,12.5625,30.875,60.3125,39.5625,-175.6875,0
1776971926.193,9.7851,-1.5802,0.2466,0.1604,-0.7149,0.4463,10.5,51.75,-166.65,9.4786,1.1133,1.1061,0.2867,0.0645,0.3285,-87.3,7.35,-18.45,6.14,0.98,-7.44,0.0491,0.1713,0.0807,7.1875,12.5625,30.875,60.3125,39.5625,-175.6875,0
1776971926.201,9.8258,-1.7573,-0.067,0.129,-0.7498,0.4876,12.15,52.2,-168.3,9.4786,1.1133,1.1061,0.2992,0.0749,0.3174,-88.65,7.5,-18.6,6.22,0.95,-7.41,0.072,0.1996,0.0982,7.1875,12.5625,30.875,60.3125,39.6875,-175.75,0
1776971926.206,9.8258,-1.7573,-0.067,0.129,-0.7498,0.4876,12.15,51.15,-167.25,9.6007,0.9433,1.0032,0.2867,0.0778,0.2971,-88.65,7.5,-18.6,6.22,0.95,-7.41,0.072,0.1996,0.0982,7.1875,12.5625,30.875,60.375,39.8125,-175.8125,0
1776971926.213,9.8928,-1.6496,-0.1628,0.1447,-0.7639,0.5036,12.15,51.15,-167.25,9.6031,0.8045,0.9553,0.2713,0.0642,0.2888,-87.0,7.95,-18.3,6.21,0.92,-7.38,0.1004,0.2193,0.108,7.1875,12.5625,30.875,60.375,39.8125,-175.8125,0
1776971926.218,9.9958,-1.324,-0.4262,0.109,-0.7669,0.4956,13.05,53.55,-166.95,9.6031,0.8045,0.9553,0.2713,0.0642,0.2888,-87.45,6.0,-18.3,6.21,0.92,-7.38,0.1156,0.2378,0.1156,6.5,13.6875,30.875,60.375,39.9375,-175.875,0
1776971926.223,9.9958,-1.324,-0.4262,0.109,-0.7669,0.4956,13.05,53.55,-166.95,9.5672,0.7422,0.9409,0.2332,0.052,0.2753,-87.45,6.0,-18.3,6.11,0.87,-7.4,0.1156,0.2378,0.1156,6.5,13.6875,30.875,60.375,39.9375,-175.875,0
1776971926.228,10.0197,-1.245,-0.3208,0.1274,-0.7749,0.465,12.6,52.8,-167.7,9.5672,0.7422,0.9409,0.2332,0.052,0.2753,-88.8,6.6,-18.45,6.11,0.87,-7.4,0.1156,0.2378,0.1156,6.5,13.6875,30.875,60.375,40.125,-175.9375,0
1776971926.233,10.0197,-1.245,-0.3208,0.1274,-0.7749,0.465,12.6,52.8,-167.7,9.5481,0.7733,0.893,0.2028,0.0229,0.2614,-88.8,6.6,-18.45,6.04,0.88,-7.36,0.1222,0.2618,0.1244,6.5,13.6875,30.875,60.375,40.125,-175.9375,0
1776971926.238,10.0892,-1.1827,-0.1365,0.1066,-0.8007,0.4482,12.6,52.8,-167.7,9.5481,0.7733,0.893,0.2028,0.0229,0.2614,-88.8,6.6,-18.45,6.04,0.88,-7.36,0.1244,0.3054,0.1331,6.5,13.6875,30.875,60.4375,40.25,-176.0,0
1776971926.244,10.0892,-1.1827,-0.1365,0.1066,-0.8007,0.4482,13.05,52.05,-168.75,9.5385,0.8332,0.9625,0.1703,-0.0077,0.2459,-88.8,6.6,-18.45,5.94,0.85,-7.31,0.1244,0.3054,0.1331,6.5,13.6875,30.875,60.5,40.4375,-176.125,0
1776971926.253,9.9503,-0.7302,-0.4645,0.1593,-0.8439,0.4109,13.05,52.05,-168.75,9.4475,0.8859,0.9864,0.1407,-0.041,0.2377,-88.2,5.25,-18.3,5.82,0.86,-7.29,0.1254,0.3414,0.144,6.5,13.6875,30.875,60.5,40.4375,-176.125,0
1776971926.263,10.0652,-1.1301,-0.8045,0.1585,-0.9036,0.4016,12.15,51.9,-170.7,9.3685,0.8236,1.1372,0.1311,-0.0578,0.227,-87.3,4.95,-17.4,5.96,0.7,-7.39,0.1331,0.3992,0.1604,6.5,13.6875,30.875,60.5625,40.6875,-176.3125,0
1776971926.268,9.9455,-1.494,-0.5842,0.1905,-0.9734,0.4053,12.15,51.9,-170.1,9.3685,0.8236,1.1372,0.1311,-0.0578,0.227,-86.7,5.55,-19.35,5.96,0.7,-7.39,0.1331,0.3992,0.1604,6.5,13.6875,30.875,60.625,40.9375,-176.4375,0
1776971926.273,9.9455,-1.494,-0.5842,0.1905,-0.9734,0.4053,12.75,51.15,-169.35,9.3422,0.7015,1.2306,0.1215,-0.0733,0.21,-86.7,5.55,-19.35,6.22,0.59,-7.07,0.1396,0.4996,0.1887,7.1875,13.25,31.25,60.625,40.9375,-176.4375,0
1776971926.278,9.6534,-1.5514,-0.9792,0.2185,-1.0222,0.4271,12.75,51.15,-169.35,9.3422,0.7015,1.2306,0.1215,-0.0733,0.21,-86.7,5.55,-19.35,6.22,0.59,-7.07,0.1396,0.4996,0.1887,7.1875,13.25,31.25,60.625,41.3125,-176.5625,0
1776971926.283,9.6534,-1.5514,-0.9792,0.2185,-1.0222,0.4271,12.75,51.15,-169.35,9.3685,0.565,1.2737,0.1132,-0.0799,0.1974,-88.95,6.75,-18.6,5.81,1.01,-7.04,0.1953,0.5989,0.1571,7.1875,13.25,31.25,60.625,41.3125,-176.5625,0
1776971926.288,9.6822,-2.0135,-0.7542,0.194,-1.0275,0.4618,12.75,51.15,-169.35,9.3685,0.565,1.2737,0.1132,-0.0799,0.1974,-88.8,5.4,-19.2,5.81,1.01,-7.04,0.2389,0.5705,0.1887,7.1875,13.25,31.25,60.6875,41.5625,-176.75,0
1776971926.294,9.6822,-2.0135,-0.7542,0.194,-1.0275,0.4618,12.75,51.15,-169.35,9.2799,0.5411,1.1253,0.1034,-0.0869,0.1815,-88.8,5.4,-19.2,6.17,0.67,-7.56,0.2389,0.5705,0.1887,7.1875,13.25,31.25,60.75,41.9375,-176.9375,0
1776971926.303,9.7157,-2.1404,-0.9002,0.1077,-1.0416,0.5111,11.25,50.55,-171.0,9.3518,0.6081,1.0558,0.0738,-0.1148,0.1663,-87.45,4.05,-20.55,6.74,0.55,-7.15,0.2291,0.661,0.216,7.1875,13.25,31.25,60.75,41.9375,-176.9375,0
1776971926.313,9.6845,-2.0446,-0.8164,0.0064,-1.0504,0.5494,12.15,48.9,-172.5,9.4068,0.7494,1.1109,0.0144,-0.1426,0.1615,-88.05,3.9,-20.25,6.42,0.42,-7.37,0.2127,0.7047,0.204,7.1875,13.25,31.25,60.8125,42.3125,-177.125,0
1776971926.318,9.8114,-1.81,-0.7278,-0.1226,-1.0325,0.5913,12.15,48.9,-172.5,9.4068,0.7494,1.1109,0.0144,-0.1426,0.1615,-88.05,3.9,-20.25,6.42,0.42,-7.37,0.2127,0.7047,0.204,7.1875,13.25,31.25,60.8125,42.3125,-177.125,0
1776971926.323,9.8114,-1.81,-0.7278,-0.1226,-1.0325,0.5913,10.05,51.0,-171.3,9.4164,0.9002,1.0678,-0.033,-0.1761,0.1545,-88.05,3.9,-19.2,6.4,0.5,-7.4,0.18,0.6905,0.1898,6.1875,13.0,30.875,60.875,42.75,-177.3125,0
1776971926.328,9.8545,-1.1444,-0.7638,-0.1847,-1.0131,0.6057,10.05,51.0,-171.3,9.4236,1.0726,1.0582,-0.033,-0.1761,0.1545,-88.05,3.9,-19.2,6.4,0.5,-7.4,0.18,0.6905,0.1898,6.1875,13.0,30.875,60.875,42.75,-177.3125,0
1776971926.333,9.8545,-1.1444,-0.7638,-0.1847,-1.0131,0.6057,13.8,49.5,-172.65,9.4236,1.0726,1.0582,-0.0973,-0.207,0.158,-88.05,3.9,-19.2,6.37,0.89,-7.24,0.1396,0.7658,0.1833,6.1875,13.0,30.875,60.9375,43.1875,-177.5,0
1776971926.338,9.8426,-1.1636,-0.8787,-0.2569,-1.0155,0.611,13.8,49.5,-172.65,9.4068,1.5179,0.984,-0.0973,-0.207,0.158,-88.05,3.9,-19.2,6.37,0.89,-7.24,0.1047,0.805,0.2149,6.1875,13.0,30.875,61.0,43.625,-177.625,0
1776971926.344,10.0365,-1.1444,-1.0056,-0.344,-1.0957,0.66,13.8,49.5,-172.65,9.4068,1.5179,0.984,-0.1569,-0.2491,0.1543,-88.05,4.2,-19.5,7.17,-0.1,-7.91,0.1047,0.805,0.2149,6.1875,13.0,30.875,61.0625,44.0625,-177.75,0
1776971926.353,10.0365,-1.1444,-1.0056,-0.344,-1.0957,0.66,13.8,49.5,-172.65,9.4068,1.9178,0.9409,-0.2001,-0.3011,0.1476,-88.05,4.2,-19.5,7.49,-0.7,-7.79,0.0731,0.8236,0.1854,6.1875,13.0,30.875,61.0625,44.0625,-177.75,0
1776971926.363,10.6303,-1.5826,-0.1245,-0.3762,-1.1834,0.7698,13.35,47.25,-175.2,9.5098,2.296,1.0534,-0.2164,-0.3379,0.1428,-89.1,4.95,-19.2,7.43,0.24,-8.1,0.0284,0.8847,0.0633,6.1875,13.0,30.875,61.125,44.5625,-177.8125,0
1776971926.368,10.6303,-1.5826,-0.1245,-0.3762,-1.1834,0.7698,13.35,47.25,-175.2,9.5098,2.7198,1.2857,-0.1977,-0.3515,0.1239,-89.1,4.95,-19.2,7.43,0.24,-8.1,0.0284,0.8847,0.0633,6.1875,13.0,30.875,65.375,45.0625,-177.8125,0
1776971926.373,11.3701,-1.6281,-0.34,-0.4138,-1.3315,0.8652,13.05,47.25,-176.25,9.5098,2.7198,1.2857,-0.1977,-0.3515,0.1239,-89.55,3.45,-19.2,7.22,1.11,-6.06,0.0229,0.877,0.0469,6.1875,13.6875,30.0625,65.375,45.0625,-177.8125,0
1776971926.378,11.3701,-1.6281,-0.34,-0.4138,-1.3315,0.8652,13.05,47.25,-176.25,9.754,3.0023,1.5323,-0.1516,-0.3504,0.081,-89.55,3.45,-19.2,7.22,1.11,-6.06,0.0229,0.877,0.0469,6.1875,13.6875,30.0625,65.375,45.5625,-177.8125,0
1776971926.383,12.1793,-1.5969,-0.2777,-0.4173,-1.4472,0.8977,13.8,44.25,-176.25,9.754,3.0023,1.5323,-0.1516,-0.3504,0.081,-88.65,4.5,-19.8,6.64,0.38,-7.66,-0.0087,0.889,0.0044,6.1875,13.6875,30.0625,65.375,45.5625,-177.8125,0
1776971926.388,12.1793,-1.5969,-0.2777,-0.4173,-1.4472,0.8977,13.8,44.25,-176.25,10.4172,3.2489,1.4485,-0.0301,-0.3555,-0.0003,-88.65,4.5,-19.8,6.64,0.38,-7.66,0.0153,0.8301,-0.0316,6.1875,13.6875,30.0625,65.3125,46.0,-177.75,0
1776971926.394,13.1777,-0.7566,-1.1516,-0.5415,-1.5039,0.9755,14.85,44.55,-177.0,10.4172,3.2489,1.4485,-0.0301,-0.3555,-0.0003,-88.8,4.65,-20.25,6.8,0.49,-7.08,0.0153,0.8301,-0.0316,6.1875,13.6875,30.0625,65.25,46.5,-177.75,0
1776971926.403,14.3173,-0.3783,-1.3312,-0.721,-1.5857,1.0232,14.85,44.55,-177.0,11.2456,3.3208,1.4126,0.093,-0.3837,-0.1215,-87.45,4.05,-18.6,5.95,-0.37,-8.05,0.0251,0.9021,-0.0578,6.1875,13.6875,30.0625,65.25,46.5,-177.75,0
1776971926.413,15.1649,0.0599,-0.8906,-0.9883,-1.7611,1.0251,14.85,44.55,-177.0,11.4658,3.4093,1.3743,0.2158,-0.4279,-0.2334,-90.15,4.05,-19.8,5.88,0.31,-7.59,-0.0687,0.9916,0.0393,6.1875,13.6875,30.0625,65.3125,47.0625,-177.6875,0
1776971926.418,15.1649,0.0599,-0.8906,-0.9883,-1.7611,1.0251,14.85,44.55,-177.0,11.7412,3.316,1.1875,0.3352,-0.433,-0.3525,-90.15,4.05,-19.8,5.88,0.31,-7.59,-0.0687,0.9916,0.0393,6.1875,13.6875,30.0625,65.3125,47.0625,-177.6875,0
1776971926.423,15.8831,0.6249,-0.4573,-1.162,-1.9177,1.0384,18.15,41.25,-180.9,11.7412,3.316,1.1875,0.3352,-0.433,-0.3525,-90.15,4.05,-19.8,6.15,-0.49,-7.84,-0.1724,1.273,0.0,4.375,13.0,29.375,65.4375,47.75,-177.5625,0
1776971926.428,15.8831,0.6249,-0.4573,-1.162,-1.9177,1.0384,18.15,41.25,-180.9,11.9854,3.2944,1.1325,0.4511,-0.4626,-0.4783,-90.15,4.05,-19.8,6.15,-0.49,-7.84,-0.1724,1.273,0.0,4.375,13.0,29.375,65.4375,47.75,-177.5625,0
1776971926.433,15.7491,1.0008,-0.237,-1.2436,-2.1064,1.0461,18.75,37.8,-183.0,11.9854,3.2944,1.1325,0.4511,-0.4626,-0.4783,-89.7,4.8,-20.85,6.24,0.36,-7.51,-0.3054,1.4519,-0.0753,4.375,13.0,29.375,65.8125,48.5625,-177.3125,0
1776971926.438,15.7491,1.0008,-0.237,-1.2436,-2.1064,1.0461,18.75,37.8,-183.0,11.6167,3.2346,0.9912,0.5039,-0.5361,-0.6057,-89.7,4.8,-20.85,6.24,0.36,-7.51,-0.4309,1.633,-0.1309,4.375,13.0,29.375,66.3125,49.4375,-176.9375,0
1776971926.444,15.2319,1.1588,-0.4717,-1.2324,-2.2489,1.0706,20.25,39.75,-184.8,11.303,2.885,0.4621,0.4908,-0.6536,-0.7504,-89.7,4.8,-20.85,6.71,1.23,-7.21,-0.4309,1.633,-0.1309,4.375,13.0,29.375,66.8125,50.6875,-176.5,0
1776971926.453,14.7962,1.5347,-0.7207,-1.1663,-2.3843,1.0778,21.3,38.25,-189.75,11.4108,2.0423,-0.4166,0.4908,-0.6536,-0.7504,-89.1,2.25,-21.0,6.4,0.88,-5.67,-0.4658,2.1926,-0.1342,4.375,13.0,29.375,66.8125,50.6875,-176.5,0
1776971926.463,13.7164,0.7829,-0.6105,-1.0091,-2.5061,1.0592,21.3,38.25,-189.75,11.564,1.0726,-0.9936,0.247,-0.9329,-1.0416,-88.2,4.5,-20.85,7.27,0.9,-5.61,-0.4789,2.7587,-0.1178,4.375,13.0,29.375,67.25,52.1875,-176.0625,0
1776971926.468,13.7164,0.7829,-0.6105,-1.0091,-2.5061,1.0592,21.3,38.25,-189.75,11.564,1.0726,-0.9936,0.247,-0.9329,-1.0416,-88.2,4.5,-20.85,7.27,0.9,-5.61,-0.4789,2.7587,-0.1178,4.375,13.0,29.375,67.25,52.1875,-176.0625,0
1776971926.473,12.3014,0.2466,-0.7901,-0.9265,-2.6188,0.9297,24.15,38.7,-195.75,11.1402,-0.2562,-1.3312,0.1444,-1.0528,-1.1703,-89.4,4.8,-20.85,6.68,-0.34,-6.41,-0.9523,3.2889,0.048,3.1875,13.25,29.375,68.0625,54.0,-175.375,0
1776971926.478,12.3014,0.2466,-0.7901,-0.9265,-2.6188,0.9297,24.15,38.7,-195.75,11.1402,-0.2562,-1.3312,0.1444,-1.0528,-1.1703,-89.4,4.8,-20.85,6.68,-0.34,-6.41,-0.9523,3.2889,0.048,3.1875,13.25,29.375,68.0625,54.0,-175.375,0
1776971926.483,10.8577,0.7135,-0.7063,-0.8497,-2.7352,0.7674,25.5,37.65,-197.1,10.8002,-1.3815,-0.9098,0.1007,-1.1482,-1.3097,-87.75,5.25,-21.15,8.47,0.48,-6.81,-1.6068,3.3936,0.3862,3.1875,13.25,29.375,69.375,55.9375,-174.5625,0
1776971926.49,9.6893,1.3455,-1.1277,-0.5817,-2.8229,0.6126,25.5,36.9,-198.6,10.8002,-1.3815,-0.9098,0.1007,-1.1482,-1.3097,-88.65,4.5,-21.6,8.03,3.36,-13.05,-1.8566,2.8732,0.949,3.1875,13.25,29.375,70.5625,57.5625,-174.0625,0
1776971926.495,9.6893,1.3455,-1.1277,-0.5817,-2.8229,0.6126,25.5,36.9,-198.6,10.5656,-2.0782,-1.3144,-0.186,-1.2785,-1.4517,-88.65,4.5,-21.6,8.03,3.36,-13.05,-1.8566,2.8732,0.949,3.1875,13.25,29.375,70.625,59.875,-174.125,0
1776971926.504,9.0357,1.4413,-2.1404,-0.1196,-2.861,0.5044,24.45,37.2,-199.95,9.6007,-2.4086,-1.2905,-0.6067,-1.4354,-1.5719,-88.35,5.4,-22.2,11.11,5.16,-6.27,-0.9468,4.1495,1.0516,3.1875,13.25,29.375,70.625,59.875,-174.125,0
1776971926.513,8.4156,-0.5052,-3.7876,0.3096,-2.7901,0.5103,25.65,36.3,-199.5,8.7604,-2.5905,-0.6081,-0.821,-1.4882,-1.688,-88.35,5.4,-22.2,14.49,3.37,-9.48,0.6163,4.6764,1.4028,3.1875,13.25,29.375,69.0625,62.5625,-175.4375,0
1776971926.518,8.3222,-2.7438,-5.3056,0.6073,-2.8144,0.7003,25.65,36.3,-199.5,8.7604,-2.5905,-0.6081,-0.821,-1.4882,-1.688,-88.35,5.4,-22.2,14.49,3.37,-9.48,0.6163,4.6764,1.4028,3.1875,13.25,29.375,69.0625,62.5625,-175.4375,0
1776971926.523,8.3222,-2.7438,-5.3056,0.6073,-2.8144,0.7003,25.65,36.3,-199.5,8.3797,-2.2817,0.0407,-0.8034,-1.3414,-1.7405,-88.05,8.1,-22.5,16.39,4.07,-10.08,1.0221,4.4015,1.933,-0.75,10.75,29.375,66.9375,65.0625,-177.875,0
1776971926.528,7.6423,-5.7245,-6.347,0.7741,-2.6782,0.829,25.65,36.3,-199.5,8.3797,-2.2817,0.0407,-0.8034,-1.3414,-1.7405,-88.05,8.1,-22.5,16.39,4.07,-10.08,1.0221,4.4015,1.933,-0.75,10.75,29.375,66.9375,65.0625,-177.875,0
1776971926.533,7.6423,-5.7245,-6.347,0.7741,-2.6782,0.829,24.75,30.15,-203.85,8.509,-1.4126,0.5124,-0.6744,-1.1447,-1.7674,-88.05,8.1,-22.5,14.67,5.39,-8.29,1.0101,4.0252,1.994,-0.75,10.75,29.375,65.0,67.3125,179.0,0
1776971926.538,7.1275,-7.4747,-6.8019,0.5532,-2.6044,0.8404,24.75,30.15,-203.85,8.509,-1.4126,0.5124,-0.6744,-1.1447,-1.7674,-88.05,8.1,-22.5,14.67,5.39,-8.29,1.0908,3.7917,2.1871,-0.75,10.75,29.375,62.9375,69.3125,175.125,0
1776971926.544,7.1275,-7.4747,-6.8019,0.5532,-2.6044,0.8404,24.75,22.65,-201.75,8.9663,0.3328,-0.4357,-0.3504,-0.7013,-1.6891,-88.2,9.15,-24.6,18.84,7.24,-11.97,1.0908,3.7917,2.1871,-0.75,10.75,29.375,61.0,71.0,170.375,0
1776971926.554,5.1404,-8.0924,-7.1802,0.6235,-2.6404,0.8881,25.65,13.05,-198.75,9.991,1.5993,-0.4214,-0.1242,-0.4082,-1.611,-88.95,11.4,-25.35,11.31,5.73,-11.37,1.0243,3.3379,2.2787,-0.75,10.75,29.375,61.0,71.0,170.375,0
1776971926.563,5.3295,-8.2217,-4.0127,0.8607,-2.4283,0.813,24.6,2.25,-193.8,10.8649,1.9944,-0.012,0.1479,-0.2987,-1.5588,-88.8,10.95,-27.3,4.54,3.29,-15.06,1.2894,2.3889,2.366,-0.75,10.75,29.375,58.8125,72.0,165.0,0
1776971926.568,2.9497,-8.4372,-3.8355,0.8737,-2.0776,0.555,21.3,-4.8,-185.85,11.2408,2.2458,-0.0335,0.1479,-0.2987,-1.5588,-88.8,10.95,-27.3,4.54,3.29,-15.06,1.2894,2.3889,2.366,-0.75,10.75,29.375,58.8125,72.0,165.0,0
1776971926.573,2.9497,-8.4372,-3.8355,0.8737,-2.0776,0.555,21.3,-4.8,-185.85,11.2408,2.2458,-0.0335,0.478,-0.1913,-1.5236,-87.6,11.7,-25.05,10.99,0.88,-12.5,1.4683,1.5032,2.1544,-5.6875,11.0625,26.5625,56.625,72.4375,159.8125,0
1776971926.578,2.6145,-7.513,-4.695,0.6595,-2.0776,0.2723,21.3,-4.8,-185.85,11.6358,1.7933,-0.1293,0.478,-0.1913,-1.5236,-87.6,11.7,-25.05,10.99,0.88,-12.5,1.4683,1.5032,2.1544,-5.6875,11.0625,26.5625,56.625,72.4375,159.8125,0
1776971926.583,2.6145,-7.513,-4.695,0.6595,-2.0776,0.2723,21.3,-4.8,-185.85,11.6358,1.7933,-0.1293,0.8037,-0.0911,-1.4658,-87.45,13.5,-26.1,10.23,4.19,-16.37,1.7431,1.081,1.8086,-5.6875,11.0625,26.5625,54.4375,72.625,155.1875,0
1776971926.59,2.4708,-6.3997,-4.1899,0.5441,-1.603,-0.0709,16.5,-18.15,-162.9,12.2439,2.399,-0.1676,1.0938,-0.0799,-1.3965,-87.45,13.5,-26.1,3.12,4.3,-11.22,1.1366,0.3392,1.129,-5.6875,11.0625,26.5625,53.0625,72.5,152.5,0
1776971926.595,2.4708,-6.3997,-4.1899,0.5441,-1.603,-0.0709,16.5,-18.15,-162.9,12.2439,2.399,-0.1676,1.0938,-0.0799,-1.3965,-88.65,13.5,-26.4,3.12,4.3,-11.22,1.1366,0.3392,1.129,-5.6875,11.0625,26.5625,51.875,72.125,150.875,0
1776971926.604,2.7533,-2.5235,-3.8523,0.4935,-1.529,-0.2142,12.75,-22.2,-150.15,11.1809,1.9872,0.2801,1.3997,-0.0914,-1.3542,-88.65,13.5,-26.4,2.4,4.01,-8.7,0.841,-0.3272,0.9316,-5.6875,11.0625,26.5625,51.875,72.125,150.875,0
1776971926.614,0.9864,-1.9944,-4.1061,0.4146,-1.0413,-0.3283,9.75,-28.5,-141.0,10.6734,1.3791,0.7638,1.6001,0.0232,-1.3062,-87.6,15.15,-26.25,3.76,3.86,-9.46,0.9032,-0.4396,1.0221,-5.6875,11.0625,26.5625,50.625,71.625,149.25,0
1776971926.619,0.1365,-2.0327,-6.3183,0.2414,-1.2828,-0.4447,9.9,-31.95,-134.7,10.3956,1.2163,0.9936,1.7118,0.113,-1.2662,-87.6,15.15,-26.25,3.76,3.86,-9.46,0.9032,-0.4396,1.0221,-5.6875,11.0625,26.5625,49.1875,70.9375,147.75,0
1776971926.624,0.1365,-2.0327,-6.3183,0.2414,-1.2828,-0.4447,9.9,-31.95,-134.7,10.3956,1.2163,0.9936,1.7118,0.113,-1.2662,-87.6,15.15,-26.25,3.84,3.9,-9.69,1.0145,-0.733,1.1159,-9.0625,13.0,24.0,49.1875,70.9375,147.75,0
1776971926.629,0.5291,-3.2106,-6.213,0.6784,-0.1919,-0.721,9.9,-39.9,-132.6,10.3118,1.0798,1.1277,1.8194,0.1809,-1.2577,-87.6,15.15,-26.25,3.84,3.9,-9.69,1.0145,-0.733,1.1159,-9.0625,13.0,24.0,47.625,70.0625,146.75,0
1776971926.634,0.5291,-3.2106,-6.213,0.6784,-0.1919,-0.721,9.9,-39.9,-132.6,10.3118,1.0798,1.1277,1.8194,0.1809,-1.2577,-88.65,18.15,-27.15,2.64,4.21,-8.37,1.0177,-1.2075,1.0832,-9.0625,13.0,24.0,47.625,70.0625,146.75,0
1776971926.638,2.3798,-4.6567,-5.4684,1.2281,0.5681,-1.2425,9.9,-39.9,-132.6,10.8146,0.6057,1.1013,1.9132,0.1601,-1.2321,-88.65,18.15,-27.15,2.64,4.21,-8.37,0.9316,-1.5937,0.9654,-9.0625,13.0,24.0,46.1875,69.0625,146.375,0
1776971926.645,2.5762,-5.3343,-4.9392,1.5791,0.9441,-1.6851,9.9,-39.9,-132.6,10.659,0.2322,0.9122,1.9132,0.1601,-1.2321,-86.55,15.9,-28.05,2.3,4.58,-7.63,0.9316,-1.5937,0.9654,-9.0625,13.0,24.0,44.8125,67.9375,146.375,0
1776971926.654,3.5003,-4.3598,-6.0645,1.768,1.4709,-2.028,11.7,-44.7,-134.1,10.659,0.2322,0.9122,1.942,0.2062,-1.2255,-87.0,16.5,-27.9,2.42,5.21,-7.32,0.8498,-1.8664,0.8083,-9.0625,13.0,24.0,44.8125,67.9375,146.375,0
1776971926.664,4.6208,-3.0215,-5.6288,1.7128,1.5228,-2.2457,5.85,-40.65,-133.35,10.6207,0.1269,0.5986,1.9963,0.3043,-1.2065,-86.85,16.8,-27.3,3.28,6.18,-6.8,0.8061,-2.0366,0.6021,-9.0625,13.0,24.0,43.5,66.8125,146.75,0
1776971926.669,4.6208,-3.0215,-5.6288,1.7128,1.5228,-2.2457,3.15,-36.0,-131.7,10.5656,-0.0311,0.3376,2.0411,0.4218,-1.1674,-86.85,16.8,-27.3,3.28,6.18,-6.8,0.8061,-2.0366,0.6021,-9.0625,13.0,24.0,43.5,66.8125,146.75,0
1776971926.674,5.2529,-2.6193,-4.0151,1.5034,1.355,-2.3566,3.15,-36.0,-131.7,10.3046,0.2634,0.0575,2.0411,0.4218,-1.1674,-86.85,16.8,-27.75,3.44,6.47,-5.82,0.8061,-2.1457,0.2902,-8.75,11.875,21.6875,42.3125,65.6875,147.5,0
1776971926.678,5.2529,-2.6193,-4.0151,1.5034,1.355,-2.3566,1.95,-31.95,-129.45,10.3046,0.2634,0.0575,2.0757,0.5215,-1.1045,-86.85,16.8,-27.75,3.44,6.47,-5.82,0.8061,-2.1457,0.2902,-8.75,11.875,21.6875,42.3125,65.6875,147.5,0
1776971926.684,5.1547,-3.1173,-3.1556,1.259,1.0757,-2.4339,1.95,-31.95,-129.45,9.8426,0.6129,-0.0862,2.0757,0.5215,-1.1045,-87.45,16.5,-27.9,3.63,6.42,-4.88,0.8781,-2.2024,-0.1342,-8.75,11.875,21.6875,41.3125,64.6875,148.5,0
1776971926.689,5.1547,-3.1173,-3.1556,1.259,1.0757,-2.4339,0.45,-28.95,-130.2,9.8426,0.6129,-0.0862,2.1189,0.6336,-1.0435,-87.45,16.5,-27.9,3.63,6.42,-4.88,1.0537,-2.4053,-0.588,-8.75,11.875,21.6875,40.3125,63.75,149.9375,0
1776971926.695,4.956,-3.158,-4.1084,1.2489,0.9379,-2.5479,0.45,-28.95,-130.2,9.517,1.0798,-0.0958,2.1496,0.7059,-0.9963,-87.45,16.5,-27.9,3.74,6.01,-4.6,1.0537,-2.4053,-0.588,-8.75,11.875,21.6875,39.5625,62.875,151.6875,0
1776971926.704,4.9823,-2.3487,-5.351,1.5807,0.9358,-2.6638,0.45,-28.95,-130.2,9.3494,1.3168,0.0024,2.1586,0.6869,-0.9561,-87.45,18.15,-27.9,5.43,6.02,-5.04,1.1214,-2.3835,-1.1334,-8.75,11.875,21.6875,39.5625,62.875,151.6875,0
1776971926.714,5.3008,-2.1835,-5.7509,2.0411,1.0762,-2.8618,-0.15,-28.65,-129.75,9.2057,1.506,0.1939,2.1304,0.6763,-0.9297,-87.45,18.15,-27.9,6.36,6.02,-5.53,1.1541,-2.234,-1.7115,-8.75,11.875,21.6875,39.125,62.1875,153.75,0
1776971926.719,5.3008,-2.1835,-5.7509,2.0411,1.0762,-2.8618,-0.45,-27.15,-129.45,9.2057,1.506,0.1939,2.1304,0.6763,-0.9297,-87.45,18.15,-27.9,6.36,6.02,-5.53,1.1541,-2.234,-1.7115,-8.75,11.875,21.6875,38.8125,61.625,156.0625,0
1776971926.724,5.8419,-2.0686,-5.7413,2.383,1.243,-3.0558,-0.45,-27.15,-129.45,9.1219,1.6352,0.2993,2.0595,0.6526,-0.9054,-86.55,16.35,-27.75,7.23,5.7,-6.05,1.3014,-2.186,-2.2067,-6.875,10.375,16.5,38.8125,61.625,156.0625,0
1776971926.729,5.8419,-2.0686,-5.7413,2.383,1.243,-3.0558,-0.9,-27.9,-127.95,9.1219,1.6352,0.2993,2.0595,0.6526,-0.9054,-86.55,16.35,-27.75,7.23,5.7,-6.05,1.3014,-2.186,-2.2067,-6.875,10.375,16.5,38.8125,61.625,156.0625,0
1776971926.734,6.5027,-2.0135,-5.4755,2.5226,1.3678,-3.1797,-0.9,-27.9,-127.95,9.1626,1.5251,0.5052,1.9582,0.6182,-0.8785,-86.7,17.7,-27.9,8.4,4.04,-6.51,1.4879,-2.2318,-2.5842,-6.875,10.375,16.5,38.5,61.0625,158.5625,0
1776971926.739,6.5027,-2.0135,-5.4755,2.5226,1.3678,-3.1797,-1.5,-27.45,-128.4,9.1626,1.5251,0.5052,1.9582,0.6182,-0.8785,-86.7,17.7,-27.9,8.4,4.04,-6.51,1.5686,-2.3202,-2.8569,-6.875,10.375,16.5,38.3125,60.375,161.125,0
1776971926.745,7.4675,-2.5546,-4.3335,2.4437,1.4123,-3.2178,-3.15,-27.75,-127.8,9.1674,1.3264,0.6656,1.8359,0.5817,-0.8663,-89.1,17.55,-27.75,8.57,3.39,-6.28,1.5686,-2.3202,-2.8569,-6.875,10.375,16.5,38.25,59.625,163.8125,0
1776971926.754,8.2073,-3.2465,-3.5578,2.3321,1.3997,-3.1941,-3.15,-27.75,-127.8,9.1626,1.0175,0.6105,1.7256,0.5561,-0.8452,-87.0,17.4,-27.9,8.96,3.2,-6.25,1.525,-2.3813,-3.0598,-6.875,10.375,16.5,38.25,59.625,163.8125,0
1776971926.764,8.9016,-3.8595,-3.3184,2.3414,1.3587,-3.1776,-3.75,-27.75,-127.8,9.3518,0.6967,0.4621,1.6462,0.5191,-0.8362,-86.85,18.3,-27.0,9.76,3.89,-6.29,1.4334,-2.3813,-3.2005,-6.875,10.375,16.5,38.3125,58.8125,166.4375,0
1776971926.769,8.9016,-3.8595,-3.3184,2.3414,1.3587,-3.1776,-3.75,-28.2,-125.85,9.3518,0.6967,0.4621,1.6462,0.5191,-0.8362,-86.85,18.3,-27.0,9.76,3.89,-6.29,1.4334,-2.3813,-3.2005,-6.875,10.375,16.5,38.3125,58.8125,166.4375,0
1776971926.774,9.3422,-3.9959,-3.4357,2.4949,1.3006,-3.2095,-2.85,-27.75,-126.0,9.3063,0.4022,0.3232,1.5724,0.4802,-0.8372,-86.7,18.9,-29.4,10.0,4.05,-6.36,1.4246,-2.3595,-3.2932,-6.375,8.25,9.5625,38.4375,57.9375,169.0,0
1776971926.779,9.3422,-3.9959,-3.4357,2.4949,1.3006,-3.2095,-2.85,-27.75,-126.0,9.3063,0.4022,0.3232,1.5724,0.4802,-0.8372,-86.7,18.9,-29.4,10.0,4.05,-6.36,1.4246,-2.3595,-3.2932,-6.375,8.25,9.5625,38.4375,57.9375,169.0,0
1776971926.784,9.7755,-3.9816,-3.3543,2.5476,1.267,-3.2732,-3.75,-27.15,-126.6,9.3972,0.2634,0.1245,1.5042,0.4477,-0.8418,-86.7,18.9,-29.4,10.38,4.08,-6.52,1.5501,-2.3387,-3.3249,-6.375,8.25,9.5625,38.5,56.9375,171.3125,0
1776971926.79,10.0868,-4.1204,-3.316,2.4389,1.2273,-3.3321,-3.75,-27.15,-126.6,9.2871,0.3879,-0.0527,1.4304,0.4202,-0.8362,-86.7,18.9,-29.4,10.85,3.97,-6.75,1.753,-2.3235,-3.291,-6.375,8.25,9.5625,38.3125,55.9375,173.375,0
1776971926.795,10.0868,-4.1204,-3.316,2.4389,1.2273,-3.3321,-5.55,-27.15,-124.8,9.2871,0.3879,-0.0527,1.4304,0.4202,-0.8362,-89.1,19.05,-29.55,10.85,3.97,-6.75,1.753,-2.3235,-3.291,-6.375,8.25,9.5625,37.9375,54.8125,175.0625,0
1776971926.804,10.1873,-4.2449,-3.2825,2.3401,1.1927,-3.3726,-4.05,-27.15,-124.5,9.2081,0.6081,-0.1604,1.3795,0.4061,-0.8191,-89.1,19.05,-29.55,11.91,4.03,-7.66,1.9351,-2.3246,-3.2343,-6.375,8.25,9.5625,37.9375,54.8125,175.0625,0
1776971926.814,10.2975,-4.2737,-3.1747,2.2364,1.2287,-3.4078,-4.05,-27.15,-124.5,9.1051,0.9553,-0.2274,1.3209,0.4359,-0.806,-87.3,18.3,-28.8,12.09,4.16,-7.84,2.0584,-2.3649,-3.1787,-6.375,8.25,9.5625,37.3125,53.625,176.5,0
1776971926.819,10.3789,-4.0534,-3.1627,2.173,1.2686,-3.4539,-4.05,-27.15,-124.5,9.2201,1.0343,-0.328,1.3206,0.4799,-0.7695,-87.3,18.3,-28.8,12.09,4.16,-7.84,2.0584,-2.3649,-3.1787,-6.375,8.25,9.5625,37.3125,53.625,176.5,0
1776971926.824,10.3789,-4.0534,-3.1627,2.173,1.2686,-3.4539,-5.25,-28.2,-121.2,9.2201,1.0343,-0.328,1.3206,0.4799,-0.7695,-87.6,19.5,-29.25,12.1,4.33,-7.82,2.1391,-2.4304,-3.1176,-12.5,5.1875,5.25,36.625,52.375,177.6875,0
1776971926.829,10.3166,-3.9313,-3.1891,2.1184,1.2929,-3.4989,-5.25,-28.2,-121.2,9.4116,1.4269,-0.5459,1.3776,0.4826,-0.7197,-87.6,19.5,-29.25,12.1,4.33,-7.82,2.1391,-2.4304,-3.1176,-12.5,5.1875,5.25,36.625,52.375,177.6875,0
1776971926.834,10.3166,-3.9313,-3.1891,2.1184,1.2929,-3.4989,-5.7,-23.55,-123.9,9.4116,1.4269,-0.5459,1.3776,0.4826,-0.7197,-86.85,19.5,-28.5,11.74,4.86,-7.36,2.2035,-2.5056,-3.0478,-12.5,5.1875,5.25,35.6875,51.0625,178.6875,0
1776971926.839,10.2376,-3.5051,-3.1939,2.0496,1.3302,-3.5298,-5.7,-23.55,-123.9,9.5313,1.7023,-0.9002,1.4362,0.47,-0.6885,-86.85,19.5,-28.5,11.74,4.86,-7.36,2.2689,-2.5613,-2.9725,-12.5,5.1875,5.25,34.625,49.625,179.4375,0
1776971926.845,10.2376,-3.5051,-3.1939,2.0496,1.3302,-3.5298,-6.15,-24.0,-123.15,9.5313,1.7023,-0.9002,1.4362,0.47,-0.6885,-87.75,19.35,-29.4,11.74,5.26,-7.33,2.2689,-2.5613,-2.9725,-12.5,5.1875,5.25,33.375,48.25,-179.9375,0
1776971926.854,10.0987,-3.1388,-3.4165,1.9942,1.3885,-3.5605,-6.3,-23.4,-121.95,9.5768,1.9297,-1.1085,1.4762,0.4551,-0.663,-88.95,18.9,-31.2,11.85,5.58,-7.33,2.3376,-2.5733,-2.8962,-12.5,5.1875,5.25,31.9375,46.8125,-179.5625,0
1776971926.864,10.0102,-2.8874,-3.5123,1.9588,1.4773,-3.5658,-9.6,-23.4,-120.15,9.5361,2.0183,-1.2977,1.5068,0.4557,-0.6278,-87.3,20.25,-30.3,11.82,5.86,-7.26,2.3824,-2.5798,-2.8329,-12.5,5.1875,5.25,31.9375,46.8125,-179.5625,0
1776971926.869,10.0054,-2.5786,-3.5554,1.9625,1.5687,-3.5426,-9.6,-23.4,-120.15,9.5193,2.0758,-1.4485,1.5319,0.4527,-0.575,-87.3,20.25,-30.3,11.82,5.86,-7.26,2.3824,-2.5798,-2.8329,-12.5,5.1875,5.25,30.4375,45.3125,-179.3125,0
1776971926.874,10.0054,-2.5786,-3.5554,1.9625,1.5687,-3.5426,-9.6,-23.4,-120.15,9.5193,2.0758,-1.4485,1.5319,0.4527,-0.575,-87.3,20.25,-30.3,11.84,6.23,-7.15,2.3835,-2.5918,-2.7783,-19.875,1.5,3.6875,30.4375,45.3125,-179.3125,0
1776971926.879,9.9431,-2.2458,-3.4069,1.9724,1.6984,-3.4664,-9.6,-23.4,-120.15,9.5672,2.0446,-1.5993,1.5671,0.425,-0.5191,-87.3,20.25,-30.3,11.84,6.23,-7.15,2.3835,-2.5918,-2.7783,-19.875,1.5,3.6875,27.0625,43.875,-179.125,0
1776971926.884,9.9431,-2.2458,-3.4069,1.9724,1.6984,-3.4664,-10.05,-20.25,-118.95,9.5672,2.0446,-1.5993,1.5671,0.425,-0.5191,-88.35,20.7,-29.55,11.69,6.32,-6.96,2.342,-2.6016,-2.7402,-19.875,1.5,3.6875,27.0625,43.875,-179.125,0
1776971926.892,9.9383,-2.1165,-3.2968,1.9284,1.8258,-3.3308,-12.15,-20.4,-119.85,9.5984,2.1596,-1.9106,1.5937,0.373,-0.4666,-88.35,20.7,-29.55,11.55,6.44,-6.68,2.2449,-2.6049,-2.7293,-19.875,1.5,3.6875,25.0625,42.375,-178.9375,0
1776971926.897,9.9455,-2.0614,-2.9257,1.8847,1.9212,-3.1661,-12.15,-20.4,-119.85,9.7157,2.1859,-2.1596,1.5993,0.3152,-0.4335,-88.35,20.7,-29.55,11.55,6.44,-6.68,2.2449,-2.6049,-2.7293,-19.875,1.5,3.6875,23.125,40.9375,-178.8125,0
1776971926.905,10.1921,-2.241,-2.5163,1.8271,2.0001,-2.99,-13.2,-19.2,-119.4,9.8881,2.5977,-2.3343,1.5993,0.3152,-0.4335,-86.55,20.7,-30.3,11.06,6.31,-6.18,2.1118,-2.5787,-2.7129,-19.875,1.5,3.6875,21.25,39.5,-178.6875,0
1776971926.915,10.0245,-2.4995,-1.9513,1.7019,2.032,-2.7784,-14.1,-19.05,-117.9,9.6917,2.6647,-2.4565,1.5876,0.0621,-0.4445,-89.4,19.65,-30.15,10.62,6.15,-5.92,1.9591,-2.5198,-2.6889,-19.875,1.5,3.6875,21.25,39.5,-178.6875,0
1776971926.92,10.0245,-2.4995,-1.9513,1.7019,2.032,-2.7784,-14.1,-19.05,-117.9,9.6917,2.6647,-2.4565,1.5876,0.0621,-0.4445,-89.4,19.65,-30.15,10.62,6.15,-5.92,1.9591,-2.5198,-2.6889,-19.875,1.5,3.6875,21.25,39.5,-178.6875,0
1776971926.925,10.2472,-2.7797,-1.6161,1.5732,2.0296,-2.5783,-14.7,-19.2,-117.6,9.2105,2.5666,-2.3607,1.5505,0.0075,-0.473,-87.75,20.4,-31.95,10.33,5.95,-5.83,1.7922,-2.4326,-2.6518,-27.5,-2.6875,10.875,19.4375,38.125,-178.5,0
1776971926.929,10.2472,-2.7797,-1.6161,1.5732,2.0296,-2.5783,-14.7,-19.2,-117.6,9.2105,2.5666,-2.3607,1.5505,0.0075,-0.473,-87.75,20.4,-31.95,10.33,5.95,-5.83,1.7922,-2.4326,-2.6518,-27.5,-2.6875,10.875,19.4375,38.125,-178.5,0
1776971926.935,10.3669,-2.8299,-1.3264,1.4149,1.9859,-2.3894,-14.7,-19.2,-117.6,8.9208,2.4373,-2.3631,1.4666,0.0032,-0.4922,-89.4,19.35,-31.95,10.43,5.27,-6.4,1.6101,-2.2951,-2.5973,-27.5,-2.6875,10.875,17.6875,36.8125,-178.3125,0
1776971926.94,10.3669,-2.8299,-1.3264,1.4149,1.9859,-2.3894,-14.7,-19.2,-117.6,8.9208,2.4373,-2.3631,1.4666,0.0032,-0.4922,-89.4,19.35,-31.95,10.43,5.27,-6.4,1.4061,-2.1315,-2.5427,-27.5,-2.6875,10.875,16.0625,35.5625,-178.0625,0
1776971926.945,10.5129,-2.7533,-1.2115,1.2367,1.9934,-2.2327,-13.8,-16.8,-116.1,8.7508,2.332,-2.2673,1.347,-0.0045,-0.4898,-88.2,20.85,-30.9,11.15,4.95,-7.2,1.4061,-2.1315,-2.5427,-27.5,-2.6875,10.875,14.4375,34.4375,-177.75,0
1776971926.955,10.6853,-2.6743,-1.0702,0.9963,2.0454,-2.1128,-15.0,-17.4,-115.95,8.6215,2.2793,-2.2529,1.2119,-0.0061,-0.4967,-88.65,19.35,-31.2,11.7,4.83,-7.69,1.1661,-1.9799,-2.5395,-27.5,-2.6875,10.875,12.875,33.3125,-177.375,0
1776971926.965,10.5129,-2.6073,-0.929,0.8212,2.1416,-2.0011,-14.4,-14.55,-115.65,8.5665,2.4062,-2.2146,1.0459,0.0053,-0.4991,-88.65,19.35,-31.2,11.65,4.61,-7.75,0.9076,-1.9188,-2.5842,-27.5,-2.6875,10.875,12.875,33.3125,-177.375,0
1776971926.97,10.5129,-2.6073,-0.929,0.8212,2.1416,-2.0011,-14.85,-15.0,-115.65,8.5665,2.4062,-2.2146,1.0459,0.0053,-0.4991,-88.65,19.35,-31.2,11.65,4.61,-7.75,0.9076,-1.9188,-2.5842,-29.6875,-5.6875,19.5,11.375,32.1875,-176.8125,0
1776971926.975,10.5441,-2.1691,-0.6943,0.6715,2.2106,-1.8884,-14.85,-15.0,-114.0,8.4898,2.4684,-2.1931,0.8711,0.0085,-0.4996,-87.6,20.7,-31.8,11.63,3.75,-7.74,0.6807,-1.9253,-2.5962,-29.6875,-5.6875,19.5,11.375,32.1875,-176.8125,0
1776971926.98,10.5441,-2.1691,-0.6943,0.6715,2.2106,-1.8884,-15.6,-14.55,-111.75,8.4898,2.4684,-2.1931,0.8711,0.0085,-0.4996,-87.6,20.7,-31.8,11.63,3.75,-7.74,0.6807,-1.9253,-2.5962,-29.6875,-5.6875,19.5,9.875,31.0625,-176.25,0
1776971926.985,10.4746,-1.8627,-0.6632,0.4557,2.2948,-1.7789,-15.6,-14.55,-111.75,8.3965,2.6528,-2.0399,0.6781,0.0272,-0.5068,-87.6,20.7,-31.8,11.77,3.4,-7.64,0.4974,-1.9231,-2.5776,-29.6875,-5.6875,19.5,9.875,31.0625,-176.25,0
1776971926.994,10.4363,-1.6735,-0.589,0.2918,2.3523,-1.6657,-15.6,-14.55,-111.75,8.2887,2.909,-1.9369,0.4844,0.048,-0.5151,-88.05,20.25,-31.8,11.43,3.05,-7.31,0.3185,-1.9406,-2.5318,-29.6875,-5.6875,19.5,8.5,29.875,-175.6875,0
1776971927.004,10.7164,-1.6017,-0.498,0.2134,2.3073,-1.5346,-13.35,-12.3,-109.35,8.3007,3.2417,-1.5754,0.2915,0.0759,-0.5204,-88.05,20.25,-31.8,10.53,2.11,-6.5,0.1713,-1.9962,-2.4347,-29.6875,-5.6875,19.5,7.125,28.625,-175.0625,0
1776971927.012,10.7332,-1.7573,0.0814,0.2265,2.1874,-1.3787,-14.85,-10.5,-108.3,8.2121,3.4979,-1.1085,0.0877,0.121,-0.5217,-87.45,22.05,-32.7,9.71,1.36,-5.92,0.0556,-2.0366,-2.2777,-29.6875,-5.6875,19.5,5.9375,27.4375,-174.5,0
1776971927.016,10.7332,-1.7573,0.0814,0.2265,2.1874,-1.3787,-14.85,-10.5,-108.3,8.2121,3.4979,-1.1085,0.0877,0.121,-0.5217,-86.85,22.2,-32.1,9.71,1.36,-5.92,0.0556,-2.0366,-2.2777,-29.6875,-5.6875,19.5,5.9375,27.4375,-174.5,0
1776971927.021,10.7763,-1.9896,0.5914,0.1804,2.072,-1.2617,-15.0,-9.15,-106.2,8.0804,3.7517,-0.6632,-0.0738,0.2001,-0.5292,-86.85,22.2,-32.1,9.71,1.36,-5.92,-0.1942,-1.9515,-1.9799,-28.0625,-5.0625,28.375,4.875,26.25,-173.875,0
1776971927.026,10.7763,-1.9896,0.5914,0.1804,2.072,-1.2617,-15.0,-9.15,-106.2,8.0804,3.7517,-0.6632,-0.0738,0.2001,-0.5292,-88.8,21.45,-32.1,8.86,0.72,-5.38,-0.1942,-1.9515,-1.9799,-28.0625,-5.0625,28.375,4.875,26.25,-173.875,0
1776971927.031,10.6207,-1.9178,0.34,-0.0096,1.9089,-1.1602,-15.0,-7.65,-106.65,7.774,3.9433,-0.2705,-0.2198,0.3195,-0.5207,-88.8,21.45,-32.1,8.86,0.72,-5.38,-0.1942,-1.9515,-1.9799,-28.0625,-5.0625,28.375,3.875,25.0,-173.3125,0
1776971927.036,10.6207,-1.9178,0.34,-0.0096,1.9089,-1.1602,-15.0,-7.65,-106.65,7.774,3.9433,-0.2705,-0.2198,0.3195,-0.5207,-87.3,21.45,-31.8,7.96,0.35,-4.4,-0.1942,-1.9515,-1.9799,-28.0625,-5.0625,28.375,3.875,25.0,-173.3125,0
1776971927.044,10.2065,-1.6041,-0.0551,-0.1426,1.7102,-1.0643,-15.0,-7.65,-106.65,7.5896,4.0821,-0.0263,-0.2774,0.457,-0.5076,-87.3,21.45,-31.8,7.78,0.0,-4.18,-0.3054,-1.777,-1.8795,-28.0625,-5.0625,28.375,2.9375,23.9375,-172.6875,0
1776971927.055,9.6486,-1.1588,-0.5339,-0.2862,1.6942,-0.9654,-15.0,-7.65,-106.65,7.6423,4.2329,0.0575,-0.2619,0.5502,-0.4903,-87.0,22.5,-32.4,7.72,-0.17,-3.91,-0.36,-1.5501,-1.7235,-28.0625,-5.0625,28.375,2.0625,22.9375,-172.125,0
1776971927.064,8.9902,-0.6608,-0.8882,-0.4658,1.7405,-0.866,-15.6,-2.55,-104.7,7.7548,4.4819,0.1963,-0.1863,0.5673,-0.4762,-87.0,22.5,-32.4,7.51,-0.43,-3.63,-0.3698,-1.1236,-1.1225,-28.0625,-5.0625,28.375,1.5625,22.25,-171.6875,0
1776971927.069,8.9902,-0.6608,-0.8882,-0.4658,1.7405,-0.866,-16.5,-2.4,-104.1,7.695,4.6232,0.2107,-0.0898,0.558,-0.4583,-88.65,22.5,-31.65,7.51,-0.43,-3.63,-0.3698,-1.1236,-1.1225,-28.0625,-5.0625,28.375,1.5625,22.25,-171.6875,0
1776971927.074,9.7875,-1.0798,-0.7781,-0.4543,1.5679,-0.6603,-16.5,-2.4,-104.1,7.695,4.6232,0.2107,-0.0898,0.558,-0.4583,-88.65,22.5,-31.65,7.78,-1.42,-3.9,-0.4549,-0.9163,-0.7745,-25.375,-5.1875,35.375,1.1875,21.6875,-171.3125,0
1776971927.079,9.7875,-1.0798,-0.7781,-0.4543,1.5679,-0.6603,-15.9,0.0,-103.65,7.6207,4.8842,0.1437,0.0344,0.5641,-0.4399,-88.65,22.5,-31.65,7.78,-1.42,-3.9,-0.4549,-0.9163,-0.7745,-25.375,-5.1875,35.375,1.1875,21.6875,-171.3125,0
1776971927.083,9.4379,-1.2019,-0.1772,-0.5073,1.4202,-0.458,-15.9,0.0,-103.65,7.6207,4.8842,0.1437,0.0344,0.5641,-0.4399,-88.65,22.5,-31.65,8.13,-1.57,-4.09,-0.6534,-0.7581,-0.4778,-25.375,-5.1875,35.375,1.0,21.1875,-170.875,0
1776971927.088,9.4379,-1.2019,-0.1772,-0.8791,1.5183,-0.3491,-14.85,-0.75,-103.65,7.6064,4.944,-0.103,0.1716,0.5852,-0.4008,-88.2,22.5,-29.7,8.13,-1.57,-4.09,-0.6534,-0.7581,-0.4778,-25.375,-5.1875,35.375,1.0,20.8125,-170.375,0
1776971927.095,9.2225,-1.3791,0.0096,-0.8791,1.5183,-0.3491,-14.85,-0.75,-103.65,7.6064,4.944,-0.103,0.1716,0.5852,-0.4008,-88.65,23.25,-30.45,8.21,-1.5,-4.08,-0.9087,-0.6698,-0.2236,-25.375,-5.1875,35.375,1.1875,20.5,-169.75,0
1776971927.105,9.2273,-1.4078,-0.0096,-0.9998,1.3318,-0.1628,-14.85,-0.75,-103.65,7.6016,5.0159,-0.1676,0.2942,0.6318,-0.3579,-88.65,22.8,-29.7,8.08,-1.26,-3.64,-1.1596,-0.613,-0.0011,-25.375,-5.1875,35.375,1.4375,20.1875,-169.0,0
1776971927.115,9.0549,-1.3192,-0.0838,-1.1202,1.2574,-0.0091,-14.85,-0.75,-103.65,7.6327,4.9512,-0.3711,0.381,0.6819,-0.3032,-88.65,22.8,-29.7,7.92,-1.02,-3.36,-1.3821,-0.552,0.1724,-25.375,-5.1875,35.375,1.4375,20.1875,-169.0,0
1776971927.12,9.2512,-1.1468,-0.3256,-1.1722,1.1445,0.1399,-15.75,1.65,-103.35,7.6016,4.865,-0.3974,0.4719,0.7237,-0.251,-87.75,23.55,-29.7,7.92,-1.02,-3.36,-1.3821,-0.552,0.1724,-25.375,-5.1875,35.375,1.75,20.0,-168.25,0
1776971927.125,9.2512,-1.1468,-0.3256,-1.1722,1.1445,0.1399,-15.75,1.65,-103.35,7.6016,4.865,-0.3974,0.4719,0.7237,-0.251,-87.75,23.55,-29.7,7.91,-0.72,-3.11,-1.5708,-0.4429,0.2956,-23.25,-5.375,42.5625,1.75,20.0,-168.25,0
1776971927.13,9.4044,-0.7829,-0.2059,-1.2945,1.0275,0.299,-16.8,3.15,-103.35,7.7285,4.8435,-0.5531,0.5622,0.7608,-0.2068,-88.95,22.8,-28.2,7.91,-0.72,-3.11,-1.5708,-0.4429,0.2956,-23.25,-5.375,42.5625,1.75,20.0,-168.25,0
1776971927.135,9.4044,-0.7829,-0.2059,-1.2945,1.0275,0.299,-16.8,3.15,-103.35,7.7692,4.7716,-0.8356,0.5622,0.7608,-0.2068,-88.95,22.8,-28.2,7.62,-0.07,-2.53,-1.7137,-0.324,0.3807,-23.25,-5.375,42.5625,2.1875,19.875,-167.375,0
1776971927.139,9.3541,-0.3711,-0.4908,-1.4123,0.8924,0.4397,-16.2,3.3,-101.1,7.7692,4.7716,-0.8356,0.639,0.7783,-0.1591,-88.95,23.55,-30.15,7.62,-0.07,-2.53,-1.7737,-0.2062,0.4614,-23.25,-5.375,42.5625,2.625,19.8125,-166.5,0
1776971927.146,9.3541,-0.3711,-0.4908,-1.4123,0.8924,0.4397,-16.2,3.3,-101.1,7.75,4.7238,-1.0151,0.6835,0.7858,-0.1172,-88.95,23.55,-30.15,7.35,0.23,-2.32,-1.7737,-0.2062,0.4614,-23.25,-5.375,42.5625,3.125,19.875,-165.625,0
1776971927.155,9.4164,0.2322,-0.6033,-1.4077,0.7861,0.5577,-16.05,4.65,-101.25,7.7883,4.5203,-1.221,0.7,0.7975,-0.0727,-88.95,23.55,-30.15,7.23,0.45,-2.15,-1.7573,-0.0415,0.5498,-23.25,-5.375,42.5625,3.125,19.875,-165.625,0
1776971927.165,9.4763,0.9984,-0.6369,-1.2857,0.659,0.6627,-16.05,4.65,-101.25,7.7165,4.3981,-1.3767,0.6928,0.8095,-0.0218,-88.95,24.0,-28.65,7.46,0.71,-2.21,-1.6952,0.1342,0.6349,-23.25,-5.375,42.5625,3.625,20.0,-164.8125,0
1776971927.17,9.5265,1.585,-0.893,-1.1053,0.4924,0.7581,-16.05,4.65,-101.25,7.7165,4.3981,-1.3767,0.6928,0.8095,-0.0218,-88.95,24.0,-28.65,7.46,0.71,-2.21,-1.6952,0.1342,0.6349,-23.25,-5.375,42.5625,3.625,20.0,-164.8125,0
1776971927.175,9.5265,1.585,-0.893,-1.1053,0.4924,0.7581,-16.05,4.65,-101.25,7.5824,4.1276,-1.4174,0.6792,0.8122,0.0264,-88.95,24.0,-28.65,8.06,1.34,-2.52,-1.5981,0.2738,0.7047,-21.5,-7.75,45.0,4.125,20.25,-164.0,0
1776971927.18,9.4739,1.7502,-1.1827,-0.9196,0.3413,0.8439,-15.0,8.4,-104.85,7.5824,4.1276,-1.4174,0.6792,0.8122,0.0264,-89.7,23.55,-26.7,8.06,1.34,-2.52,-1.5981,0.2738,0.7047,-21.5,-7.75,45.0,4.125,20.25,-164.0,0
1776971927.185,9.4739,1.7502,-1.1827,-0.9196,0.3413,0.8439,-15.0,8.4,-104.85,7.5465,4.0223,-1.4293,0.6494,0.8183,0.081,-89.7,23.55,-26.7,7.96,1.71,-2.55,-1.4301,0.3611,0.7723,-21.5,-7.75,45.0,4.6875,20.5625,-163.375,0
1776971927.193,9.6486,2.0446,-1.1133,-0.6336,0.0973,0.9521,-15.6,10.8,-106.5,7.58,3.8954,-1.2665,0.6494,0.8183,0.081,-89.55,23.85,-27.0,7.85,1.84,-2.59,-1.2021,0.4385,0.8454,-21.5,-7.75,45.0,5.25,20.9375,-162.875,0
1776971927.198,10.8697,1.6233,-1.5514,-0.3413,0.1186,1.0171,-16.65,13.8,-108.9,7.58,3.8954,-1.2665,0.6102,0.8252,0.1567,-89.7,25.2,-27.45,7.85,1.84,-2.59,-1.2021,0.4385,0.8454,-21.5,-7.75,45.0,5.8125,21.375,-162.4375,0
1776971927.206,8.9423,1.81,-0.8859,-0.1092,-0.1575,1.1,-13.95,13.95,-112.35,7.6567,3.7757,-1.2115,0.5676,0.8372,0.2481,-89.7,25.2,-27.45,7.9,1.91,-2.83,-0.9632,0.5072,0.8967,-21.5,-7.75,45.0,6.375,21.875,-162.1875,0
1776971927.216,9.8952,1.8938,-1.5634,-0.1799,-0.0658,1.1647,-13.95,13.95,-112.35,7.75,3.6775,-1.1109,0.502,0.8476,0.3424,-88.8,22.65,-27.3,7.81,1.94,-2.99,-0.7647,0.6,0.9021,-21.5,-7.75,45.0,6.375,21.875,-162.1875,0
1776971927.22,9.8952,1.8938,-1.5634,-0.1799,-0.0658,1.1647,-13.95,13.95,-112.35,7.75,3.6775,-1.1109,0.502,0.8476,0.3424,-89.7,24.0,-26.4,7.81,1.94,-2.99,-0.7647,0.6,0.9021,-21.75,-9.375,46.0625,6.8125,22.375,-162.0,0
1776971927.225,9.3182,1.4653,-1.7621,-0.0314,-0.0229,1.1993,-13.95,13.95,-112.35,7.8865,3.6129,-1.1325,0.4397,0.8508,0.4525,-89.7,24.0,-26.4,7.94,2.06,-3.12,-0.6021,0.7472,0.8498,-21.75,-9.375,46.0625,6.8125,22.375,-162.0,0
1776971927.23,9.3182,1.4653,-1.7621,-0.0314,-0.0229,1.1993,-13.95,13.95,-112.35,7.8865,3.6129,-1.1325,0.4397,0.8508,0.4525,-91.95,23.55,-26.7,7.94,2.06,-3.12,-0.6021,0.7472,0.8498,-21.75,-9.375,46.0625,7.1875,22.9375,-161.8125,0
1776971927.236,10.307,0.7901,-2.1261,0.1631,-0.1601,1.1916,-13.35,25.8,-124.65,8.1427,3.8331,-1.1756,0.3547,0.8647,0.5836,-91.95,23.55,-26.7,8.28,2.32,-3.56,-0.4756,0.8618,0.7385,-21.75,-9.375,46.0625,7.1875,22.9375,-161.8125,0
1776971927.242,10.307,0.7901,-2.1261,0.1631,-0.1601,1.1916,-13.35,25.8,-124.65,8.181,4.1372,-1.1827,0.2753,0.8572,0.7037,-91.95,23.55,-26.7,8.19,2.4,-3.48,-0.4036,1.0036,0.552,-21.75,-9.375,46.0625,7.5,23.5625,-161.625,0
1776971927.247,10.058,0.3879,-2.387,0.2284,-0.2558,1.218,-11.85,31.5,-129.9,8.181,4.1372,-1.1827,0.2753,0.8572,0.7037,-90.45,22.05,-24.6,8.19,2.4,-3.48,-0.4036,1.0036,0.552,-21.75,-9.375,46.0625,7.625,24.25,-161.4375,0
1776971927.256,9.7731,0.1844,-2.387,0.3206,-0.4247,1.267,-9.3,34.05,-133.95,8.0685,4.4532,-1.1612,0.1796,0.8735,0.8234,-90.45,22.05,-24.6,7.97,2.44,-3.32,-0.3054,1.1497,0.3207,-21.75,-9.375,46.0625,7.5625,24.9375,-161.25,0
1776971927.266,9.6175,0.3687,-2.1739,0.4197,-0.5542,1.339,-10.65,36.45,-138.75,8.0158,4.3551,-0.7207,0.0735,0.906,0.951,-90.45,22.05,-24.6,7.99,2.4,-3.26,-0.1974,1.3341,0.0742,-21.75,-9.375,46.0625,7.5625,24.9375,-161.25,0
1776971927.27,9.6175,0.3687,-2.1739,0.4197,-0.5542,1.339,-10.65,36.45,-138.75,7.9918,4.1324,-0.5028,0.0128,0.899,1.0912,-91.8,21.45,-25.05,7.99,2.4,-3.26,-0.1974,1.3341,0.0742,-21.75,-9.375,46.0625,7.3125,25.75,-161.0625,0
1776971927.276,9.0956,0.5028,-1.8818,0.4626,-0.7205,1.4368,-10.65,36.45,-138.75,7.9918,4.1324,-0.5028,0.0128,0.899,1.0912,-91.8,21.45,-25.05,9.42,2.14,-3.99,-0.1014,1.5588,-0.1669,-25.1875,-10.0,46.5,7.3125,25.75,-161.0625,0
1776971927.28,9.0956,0.5028,-1.8818,0.4626,-0.7205,1.4368,-10.65,36.45,-138.75,9.0501,4.1755,-0.5124,0.1537,0.8812,1.2414,-92.55,20.7,-23.7,9.42,2.14,-3.99,-0.1014,1.5588,-0.1669,-25.1875,-10.0,46.5,6.9375,26.3125,-160.9375,0
1776971927.285,10.2089,1.9058,1.063,0.7413,-0.6718,1.348,-7.35,40.2,-146.1,9.0501,4.1755,-0.5124,0.1537,0.8812,1.2414,-92.55,20.7,-23.7,-5.72,10.27,-8.59,0.276,1.2392,-0.4309,-25.1875,-10.0,46.5,6.9375,26.3125,-160.9375,0
1776971927.293,8.3797,5.2577,3.5314,1.3981,-0.2174,0.9518,-7.35,40.2,-146.1,10.4076,4.4245,-0.3065,0.2169,0.8068,1.4703,-92.4,20.85,-22.65,3.18,25.37,-25.04,2.6474,0.9087,0.1996,-25.1875,-10.0,46.5,6.625,26.8125,-162.4375,0
1776971927.298,8.3797,5.2577,3.5314,1.3981,-0.2174,0.9518,-7.05,42.15,-150.75,10.6063,4.1731,0.6632,0.2169,0.8068,1.4703,-93.0,18.0,-23.7,3.18,25.37,-25.04,2.6474,0.9087,0.1996,-25.1875,-10.0,46.5,6.125,27.6875,-164.3125,0
1776971927.306,7.3717,11.8968,2.3894,2.4461,0.5444,0.0514,-7.5,48.0,-154.2,10.6063,4.1731,0.6632,0.1092,0.8799,1.6846,-93.0,18.0,-23.7,4.48,6.76,-21.7,3.5136,1.5163,0.2029,-25.1875,-10.0,46.5,5.4375,28.25,-166.0625,0
1776971927.316,12.4235,14.7435,4.2976,2.9998,1.3363,-0.3885,-8.85,57.9,-156.9,10.24,3.2082,1.2546,-0.041,1.0128,1.8461,-93.75,18.75,-22.95,-1.98,2.35,-4.19,3.5201,1.1246,-0.2356,-25.1875,-10.0,46.5,5.4375,28.25,-166.0625,0
1776971927.32,12.4235,14.7435,4.2976,2.2756,1.781,-0.307,-8.85,57.9,-156.9,11.8321,3.1484,-1.0127,0.1095,1.0115,2.0523,-94.35,18.15,-21.15,-1.98,2.35,-4.19,3.5201,1.1246,-0.2356,-25.1875,-10.0,46.5,4.9375,29.1875,-167.9375,0
1776971927.326,18.342,8.7963,2.2458,2.2756,1.781,-0.307,-8.7,71.25,-164.1,11.8321,3.1484,-1.0127,0.1095,1.0115,2.0523,-94.35,18.15,-21.15,-7.3,-15.2,-4.32,3.4656,1.6559,0.1494,-30.5625,-6.875,46.375,4.9375,29.1875,-167.9375,0
1776971927.33,15.8592,1.2498,-6.5553,1.0533,1.1884,-0.2952,-8.7,71.25,-164.1,14.4346,4.3598,-2.8419,0.6035,0.7602,2.2127,-94.35,18.15,-21.15,-7.3,-15.2,-4.32,3.4656,1.6559,0.1494,-30.5625,-6.875,46.375,4.125,30.625,-168.8125,0
1776971927.336,15.8592,1.2498,-6.5553,1.0533,1.1884,-0.2952,-8.7,71.25,-164.1,14.4346,4.3598,-2.8419,0.6035,0.7602,2.2127,-94.35,18.15,-21.15,4.81,-19.3,-14.6,2.1882,2.7871,-0.5585,-30.5625,-6.875,46.375,4.125,30.625,-168.8125,0
1776971927.341,17.4705,-4.5657,-13.1657,0.3568,0.559,-0.0842,-8.7,71.25,-164.1,16.5463,5.6958,-5.102,1.2977,0.4309,2.137,-95.1,14.25,-21.6,4.81,-19.3,-14.6,0.8759,2.7423,-0.5367,-30.5625,-6.875,46.375,3.5625,32.0625,-168.9375,0
1776971927.346,17.4705,-4.5657,-13.1657,0.3568,0.559,-0.0842,-4.95,80.25,-180.15,18.9812,6.1411,-6.3758,1.2977,0.4309,2.137,-95.1,14.25,-21.6,7.97,-16.43,-14.99,0.8759,2.7423,-0.5367,-30.5625,-6.875,46.375,3.5625,33.5625,-169.0,0
1776971927.356,16.2878,-4.8291,-9.9168,0.21,-0.0496,0.2694,-3.0,76.2,-185.7,18.3683,5.6623,-5.1332,2.1013,0.2398,1.9316,-95.1,14.25,-21.6,8.39,-18.09,-12.28,0.252,2.7151,0.3109,-30.5625,-6.875,46.375,3.5625,33.5625,-169.0,0
1776971927.366,17.0515,2.308,-4.3048,-1.1018,-0.4631,0.9534,-2.25,68.7,-188.25,14.5998,4.4748,-1.1612,2.4283,-0.0109,1.5977,-95.55,11.25,-20.25,16.22,-7.95,-17.05,-0.9065,2.3606,0.3327,-30.5625,-6.875,46.375,3.8125,34.875,-168.4375,0
1776971927.371,15.2415,8.1187,2.1117,-1.8626,-0.5582,1.3917,-2.25,68.7,-188.25,14.5998,4.4748,-1.1612,1.8524,0.1903,1.2633,-96.3,10.5,-19.95,16.22,-7.95,-17.05,-0.9065,2.3606,0.3327,-30.5625,-6.875,46.375,3.875,36.0,-167.5,0
1776971927.376,15.2415,8.1187,2.1117,-1.8626,-0.5582,1.3917,-2.85,62.25,-194.4,8.4707,2.7126,3.3447,1.8524,0.1903,1.2633,-96.3,10.5,-19.95,14.37,19.7,-2.68,-1.3439,2.0628,-0.108,-35.75,0.875,45.1875,3.875,36.0,-167.5,0
1776971927.381,11.0253,8.0661,5.7293,-0.7309,-0.6475,1.3262,-2.85,62.25,-194.4,8.4707,2.7126,3.3447,0.6987,0.8402,0.955,-96.3,9.75,-19.95,14.37,19.7,-2.68,-1.3439,2.0628,-0.108,-35.75,0.875,45.1875,3.625,36.6875,-167.375,0
1776971927.386,11.0253,8.0661,5.7293,-0.7309,-0.6475,1.3262,-3.9,65.55,-197.7,6.4859,0.0287,5.861,-0.3,1.3864,0.8727,-96.3,9.75,-19.95,5.81,8.03,-3.06,0.1734,1.2861,-0.2258,-35.75,0.875,45.1875,3.625,36.6875,-167.375,0
1776971927.394,5.9185,3.5769,8.7843,0.9196,0.1988,1.1178,-3.9,65.55,-197.7,6.4859,0.0287,5.861,-0.3,1.3864,0.8727,-95.55,10.05,-19.2,8.77,-0.91,-11.03,0.7799,1.0505,-0.1145,-35.75,0.875,45.1875,3.375,37.1875,-167.6875,0
1776971927.399,4.367,-0.7111,6.213,1.6321,0.8114,1.0381,-3.9,65.55,-197.7,5.9065,-1.3791,3.6296,-0.3443,1.4256,0.9273,-97.95,9.0,-18.75,8.77,-0.91,-11.03,0.7799,1.0505,-0.1145,-35.75,0.875,45.1875,3.3125,37.3125,-167.75,0
1776971927.406,4.367,-0.7111,6.213,1.6321,0.8114,1.0381,-4.5,87.9,-199.65,6.5266,-2.4277,-1.4581,0.3693,0.7882,0.8865,-97.95,9.0,-18.75,4.04,-0.65,-8.86,0.2302,0.1527,-0.0633,-35.75,0.875,45.1875,3.25,37.3125,-167.75,0
1776971927.416,5.6336,-2.1572,4.1396,2.5863,0.1561,1.1679,-1.95,90.15,-197.85,6.6319,-4.3383,-5.6336,0.0586,0.0821,0.878,-98.1,9.15,-17.85,4.6,4.73,-6.71,0.0164,0.048,-0.0862,-35.75,0.875,45.1875,3.25,37.3125,-167.75,0
1776971927.421,7.4412,-3.9265,7.4148,2.1338,-0.7322,1.4967,-1.95,90.15,-197.85,6.6319,-4.3383,-5.6336,0.0586,0.0821,0.878,-98.1,9.15,-17.85,4.6,4.73,-6.71,0.0164,0.048,-0.0862,-35.75,0.875,45.1875,3.25,37.3125,-167.75,0
1776971927.426,7.4412,-3.9265,7.4148,2.1338,-0.7322,1.4967,0.0,89.25,-194.4,8.0661,-5.8826,-6.1842,-1.0613,-0.2326,0.9579,-98.1,9.15,-17.85,3.92,4.6,-5.82,-0.0938,0.0851,-0.072,-40.375,2.6875,41.6875,3.1875,37.3125,-167.625,0
1776971927.431,8.8633,-5.5929,6.7086,0.6518,-1.384,1.6867,0.0,89.25,-194.4,8.0661,-5.8826,-6.1842,-1.0613,-0.2326,0.9579,-98.4,7.5,-19.35,3.92,4.6,-5.82,-0.0938,0.0851,-0.072,-40.375,2.6875,41.6875,3.1875,37.3125,-167.625,0
1776971927.436,8.8633,-5.5929,6.7086,0.6518,-1.384,1.6867,3.45,83.4,-190.35,9.153,-5.3965,-2.806,-2.0035,-0.1452,0.9819,-98.4,7.5,-19.35,3.92,3.31,-7.03,-0.0829,0.4461,0.0196,-40.375,2.6875,41.6875,3.1875,37.5625,-167.5625,0
1776971927.441,9.6965,-6.0741,3.0909,-0.3613,-1.7848,1.6534,3.45,83.4,-190.35,9.153,-5.3965,-2.806,-2.0035,-0.1452,0.9819,-98.4,7.5,-19.35,3.92,3.31,-7.03,0.2334,0.7941,0.1767,-40.375,2.6875,41.6875,3.25,38.0625,-167.6875,0
1776971927.447,9.4691,-3.9073,0.1173,-0.1226,-1.4546,1.3672,7.2,77.25,-185.25,9.7875,-2.6624,2.6911,-2.3467,-0.0815,1.0024,-98.4,7.5,-19.35,4.31,2.27,-7.57,0.2334,0.7941,0.1767,-40.375,2.6875,41.6875,3.1875,38.625,-168.125,0
1776971927.456,9.4691,-3.9073,0.1173,-0.4261,-0.5369,1.0853,7.2,77.25,-185.25,9.3996,0.9577,6.6295,-2.0312,0.0509,0.9038,-99.45,6.15,-18.75,4.84,2.01,-7.49,0.7385,1.0025,0.336,-40.375,2.6875,41.6875,3.1875,38.625,-168.125,0
1776971927.466,10.2185,0.5291,-3.0263,-0.3301,-0.5438,0.9478,8.1,60.15,-171.15,8.6095,3.6943,8.3797,-1.0392,0.2814,0.7525,-99.15,6.75,-18.6,5.94,1.55,-7.81,1.0123,1.1334,0.4047,-40.375,2.6875,41.6875,3.1875,39.25,-168.8125,0
1776971927.471,10.2185,0.5291,-3.0263,-0.3301,-0.5438,0.9478,8.1,60.15,-171.15,8.8992,3.3543,7.7189,-1.0392,0.2814,0.7525,-99.0,5.85,-17.7,5.94,1.55,-7.81,1.0123,1.1334,0.4047,-41.375,3.75,40.5,3.125,39.875,-169.4375,0
1776971927.476,9.8809,0.7781,-2.3583,0.0882,-0.4197,0.7125,7.5,47.25,-164.85,8.8992,3.3543,7.7189,0.2872,0.2609,0.6837,-99.0,5.85,-17.7,7.54,0.37,-8.01,0.997,1.0199,0.3905,-41.375,3.75,40.5,3.125,39.875,-169.4375,0
1776971927.481,9.8809,0.7781,-2.3583,0.0882,-0.4197,0.7125,7.2,39.75,-162.0,8.9591,1.5251,5.296,0.2872,0.2609,0.6837,-99.6,6.0,-17.1,7.54,0.37,-8.01,0.997,1.0199,0.3905,-41.375,3.75,40.5,3.1875,40.3125,-169.9375,0
1776971927.486,10.4986,0.5219,-1.1636,0.5574,-0.4117,0.5558,7.2,39.75,-162.0,8.9591,1.5251,5.296,1.3789,0.2427,0.6808,-99.6,6.0,-17.1,7.43,0.69,-8.59,0.7418,0.6818,0.3622,-41.375,3.75,40.5,3.1875,40.3125,-169.9375,0
1776971927.494,10.4986,0.5219,-1.1636,0.5574,-0.4117,0.5558,3.45,32.4,-161.55,9.4906,0.2921,2.4157,2.0025,0.3363,0.6422,-101.25,3.45,-17.7,7.39,0.96,-8.28,0.648,0.5531,0.2913,-41.375,3.75,40.5,3.1875,40.625,-170.375,0
1776971927.499,9.8378,0.3424,0.9888,1.1159,-0.388,0.4255,3.45,32.4,-161.55,9.4906,0.2921,2.4157,2.0025,0.3363,0.6422,-97.2,2.7,-18.45,7.39,0.96,-8.28,0.648,0.5531,0.2913,-41.375,3.75,40.5,3.1875,40.875,-170.8125,0
1776971927.506,9.5481,-0.7925,2.9951,1.3379,-0.19,0.3208,0.6,29.55,-164.1,9.5553,-0.5435,0.5148,2.1448,0.4327,0.6006,-97.2,2.7,-18.45,6.77,1.07,-8.0,0.6425,0.4396,0.2367,-41.375,3.75,40.5,3.125,41.125,-171.25,0
1776971927.516,9.5672,-1.9585,2.9784,0.9198,-0.2926,0.4349,0.6,29.55,-164.1,9.5289,-1.0439,0.7087,2.0003,0.5836,0.5636,-97.2,2.7,-18.45,6.43,1.11,-7.7,0.6196,0.4211,0.1931,-41.375,3.75,40.5,3.125,41.125,-171.25,0
1776971927.521,9.5672,-1.9585,2.9784,0.9198,-0.2926,0.4349,-1.5,27.9,-164.4,9.5433,-0.747,1.0151,1.748,0.664,0.5247,-98.25,3.0,-18.0,6.43,1.11,-7.7,0.6196,0.4211,0.1931,-41.375,3.75,40.5,3.125,41.125,-171.25,0
1776971927.526,9.5026,-3.6488,3.2082,0.4826,-0.3797,0.5588,-1.5,27.9,-164.4,9.5433,-0.747,1.0151,1.748,0.664,0.5247,-98.25,3.0,-18.0,6.29,1.25,-7.64,0.5072,0.42,0.1647,-43.875,6.75,39.75,3.0625,41.375,-171.5625,0
1776971927.531,9.5026,-3.6488,3.2082,0.4826,-0.3797,0.5588,-0.6,28.8,-164.85,9.4786,-0.3519,1.3838,1.3664,0.5985,0.4959,-98.25,3.0,-18.0,6.29,1.25,-7.64,0.5072,0.42,0.1647,-43.875,6.75,39.75,3.0625,41.375,-171.5625,0
1776971927.536,9.2464,-4.6017,2.9568,0.1244,-0.5311,0.6915,-0.6,28.8,-164.85,9.4786,-0.3519,1.3838,1.3664,0.5985,0.4959,-98.25,3.0,-18.0,6.17,1.41,-7.43,0.408,0.3698,0.1669,-43.875,6.75,39.75,3.0625,41.5625,-171.875,0
1776971927.541,9.2464,-4.6017,2.9568,0.1244,-0.5311,0.6915,-1.2,28.2,-165.0,9.5122,-0.6201,1.6281,0.8748,0.534,0.4682,-100.2,3.45,-17.4,6.17,1.41,-7.43,0.3338,0.4145,0.1789,-43.875,6.75,39.75,3.125,41.8125,-172.125,0
1776971927.547,9.1411,-4.5562,2.5067,-0.0277,-0.6931,0.8124,-1.2,28.2,-165.0,9.5122,-0.6201,1.6281,0.8748,0.534,0.4682,-100.2,3.45,-17.4,5.96,1.54,-7.28,0.3338,0.4145,0.1789,-43.875,6.75,39.75,3.125,42.0,-172.375,0
1776971927.556,9.2871,-4.2497,1.7957,-0.0762,-0.6504,0.8252,0.9,27.45,-165.45,9.6558,-1.2186,1.5443,0.3411,0.4788,0.4186,-101.1,2.4,-17.1,6.17,1.09,-7.45,0.2825,0.3316,0.2258,-43.875,6.75,39.75,3.125,42.0,-172.375,0
1776971927.566,10.1035,-3.3471,0.5986,-0.2854,-0.5436,0.7815,2.1,27.3,-165.3,9.9551,-1.2785,1.6544,-0.0695,0.4506,0.372,-100.95,1.95,-16.65,6.23,1.01,-7.63,0.2825,0.2596,0.264,-43.875,6.75,39.75,3.25,42.1875,-172.625,0
1776971927.571,10.1035,-3.3471,0.5986,-0.2854,-0.5436,0.7815,2.1,27.3,-165.3,10.0987,-1.3288,1.8364,-0.2649,0.3765,0.3435,-101.85,2.4,-16.35,6.23,1.01,-7.63,0.2825,0.2596,0.264,-43.875,6.75,39.75,3.25,42.1875,-172.625,0
1776971927.576,10.2448,-2.2338,-0.2322,-0.4903,-0.4535,0.6845,2.1,27.3,-165.3,10.0987,-1.3288,1.8364,-0.2649,0.3765,0.3435,-101.85,2.4,-16.35,6.79,0.74,-7.89,0.2662,0.2094,0.2705,-45.1875,8.1875,38.6875,3.3125,42.3125,-172.875,0
1776971927.581,10.2448,-2.2338,-0.2322,-0.4903,-0.4535,0.6845,2.85,28.8,-165.6,10.1778,-1.2067,1.64,-0.3725,0.2625,0.352,-100.8,3.6,-16.8,6.79,0.74,-7.89,0.2662,0.2094,0.2705,-45.1875,8.1875,38.6875,3.3125,42.3125,-172.875,0
1776971927.586,10.3884,-1.5586,-0.6943,-0.6326,-0.3765,0.5564,2.85,28.8,-165.6,10.1778,-1.2067,1.64,-0.3725,0.2625,0.352,-100.8,3.6,-16.8,6.9,0.36,-8.08,0.2356,0.1582,0.2487,-45.1875,8.1875,38.6875,3.375,42.4375,-173.125,0
1776971927.593,10.0844,-1.2953,-0.6321,-0.6845,-0.3227,0.4277,2.85,27.75,-163.8,9.8904,-0.9673,0.9816,-0.49,0.1785,0.3541,-101.7,1.05,-17.4,6.74,0.33,-8.04,0.1811,0.1265,0.192,-45.1875,8.1875,38.6875,3.4375,42.5,-173.3125,0
1776971927.598,10.0844,-1.2953,-0.6321,-0.6845,-0.3227,0.4277,2.85,27.75,-163.8,9.6247,-0.5914,0.6273,-0.6587,0.129,0.3549,-101.7,1.05,-17.4,6.74,0.33,-8.04,0.1811,0.1265,0.192,-45.1875,8.1875,38.6875,3.5,42.5625,-173.4375,0
1776971927.606,9.6414,-0.9744,-0.7039,-0.6718,-0.3019,0.324,1.2,28.2,-163.2,9.402,-0.4429,0.7207,-0.8492,0.1199,0.3472,-101.7,1.05,-17.4,6.45,0.84,-7.7,0.0949,0.0829,0.1364,-45.1875,8.1875,38.6875,3.5625,42.625,-173.5,0
1776971927.616,9.3757,-0.0862,-0.6823,-0.5388,-0.3054,0.2494,2.7,27.45,-165.0,9.2033,-0.1867,0.9864,-0.9398,0.1106,0.3517,-100.8,0.45,-15.3,6.17,0.89,-7.58,0.0578,0.048,0.1025,-45.1875,8.1875,38.6875,3.5625,42.625,-173.5,0
1776971927.621,8.9854,0.0886,0.0599,-0.4319,-0.3424,0.2238,-0.6,27.75,-164.1,9.2033,-0.1867,0.9864,-0.9398,0.1106,0.3517,-100.8,0.45,-15.3,6.17,0.89,-7.58,0.0578,0.048,0.1025,-45.1875,8.1875,38.6875,3.625,42.625,-173.5625,0
1776971927.626,8.9854,0.0886,0.0599,-0.4319,-0.3424,0.2238,-0.6,27.75,-164.1,9.2823,0.0383,1.2282,-0.9017,0.0834,0.3493,-100.8,0.45,-15.3,5.96,1.09,-7.46,0.0502,0.0862,0.0884,-45.5625,9.5625,38.75,3.625,42.625,-173.5625,0
1776971927.631,9.0357,-0.5076,0.0575,-0.3419,-0.3051,0.2486,-0.6,27.75,-164.1,9.2823,0.0383,1.2282,-0.9017,0.0834,0.3493,-100.5,1.95,-14.7,5.96,1.09,-7.46,0.0502,0.0862,0.0884,-45.5625,9.5625,38.75,3.625,42.75,-173.625,0
1776971927.636,9.0357,-0.5076,0.0575,-0.3419,-0.3051,0.2486,-0.6,27.75,-164.1,9.2249,0.1748,1.3958,-0.8356,0.0917,0.3475,-100.5,1.95,-14.7,6.06,1.3,-7.36,0.0404,0.1385,0.0927,-45.5625,9.5625,38.75,3.625,42.75,-173.625,0
1776971927.641,8.9974,-1.4485,-0.3112,-0.3128,-0.2633,0.2899,-3.0,29.4,-168.3,9.2249,0.1748,1.3958,-0.8356,0.0917,0.3475,-100.35,0.9,-15.6,6.06,1.3,-7.36,0.0458,0.1134,0.1025,-45.5625,9.5625,38.75,3.6875,42.8125,-173.75,0
1776971927.647,8.9974,-1.4485,-0.3112,-0.3128,-0.2633,0.2899,-3.0,29.4,-168.3,9.3901,0.3017,1.6113,-0.704,0.0703,0.3421,-100.35,0.9,-15.6,6.21,1.01,-7.51,0.0458,0.1134,0.1025,-45.5625,9.5625,38.75,3.75,42.875,-173.8125,0
1776971927.656,9.5241,-1.7095,-0.4118,-0.1815,-0.2737,0.3251,-2.85,30.3,-170.25,9.3446,-0.2083,1.6664,-0.5697,0.0981,0.3339,-100.95,0.75,-14.7,6.05,1.12,-7.36,0.0447,0.0774,0.1113,-45.5625,9.5625,38.75,3.75,42.875,-173.8125,0
1776971927.666,9.4786,-1.4868,-0.4693,-0.1239,-0.2931,0.38,-4.65,31.05,-170.55,9.3206,0.0646,1.6544,-0.3997,0.0906,0.3192,-101.1,0.15,-14.55,6.17,1.16,-7.59,-0.0262,0.0884,0.1244,-45.5625,9.5625,38.75,3.8125,42.9375,-173.875,0
1776971927.671,9.6199,-0.9984,-0.7015,-0.1471,-0.3403,0.4309,-3.15,31.8,-170.25,9.3206,0.0646,1.6544,-0.3997,0.0906,0.3192,-102.0,0.0,-15.15,6.17,1.16,-7.59,-0.0262,0.0884,0.1244,-45.5625,9.5625,38.75,3.8125,42.9375,-173.875,0
1776971927.676,9.6199,-0.9984,-0.7015,-0.1471,-0.3403,0.4309,-3.15,31.8,-170.25,9.3446,0.4501,1.4892,-0.2217,0.1042,0.3203,-102.0,0.0,-15.15,6.36,1.15,-7.2,-0.0458,0.0916,0.1222,-45.0625,9.5625,37.875,3.875,42.9375,-173.875,0
1776971927.681,9.4236,-0.668,-0.6105,-0.1913,-0.3936,0.4511,-2.25,33.9,-170.1,9.3446,0.4501,1.4892,-0.2217,0.1042,0.3203,-100.5,-0.75,-14.7,6.36,1.15,-7.2,-0.0458,0.0916,0.1222,-45.0625,9.5625,37.875,3.875,42.9375,-173.875,0
1776971927.686,9.4236,-0.668,-0.6105,-0.1913,-0.3936,0.4511,-2.25,33.9,-170.1,9.3398,0.3663,1.3312,-0.0757,0.1162,0.3355,-100.5,-0.75,-14.7,5.96,1.26,-7.42,-0.0916,-0.0589,0.1374,-45.0625,9.5625,37.875,3.9375,42.875,-173.8125,0
1776971927.691,9.3901,-0.7709,-0.5411,-0.0791,-0.3794,0.4263,-2.25,33.9,-170.1,9.3398,0.3663,1.3312,-0.0757,0.1162,0.3355,-100.5,-0.75,-14.7,5.96,1.26,-7.42,-0.1014,0.0,0.156,-45.0625,9.5625,37.875,4.0625,42.75,-173.75,0
1776971927.697,9.3901,-0.7709,-0.5411,-0.0791,-0.3794,0.4263,-1.95,31.95,-169.65,9.3757,0.2514,1.0223,0.0288,0.1268,0.3485,-100.5,-0.75,-14.7,6.17,1.07,-7.55,-0.1014,0.0,0.156,-45.0625,9.5625,37.875,4.0625,42.75,-173.75,0
1776971927.706,9.6031,-1.1779,-0.8954,-0.0024,-0.3504,0.3901,-1.95,31.95,-169.65,9.5768,0.1389,0.826,0.0823,0.133,0.3781,-101.85,-0.9,-14.25,6.63,1.09,-7.36,-0.0862,0.0905,0.1451,-45.0625,9.5625,37.875,4.125,42.75,-173.75,0
1776971927.711,9.7683,-1.7358,-1.0415,-0.0085,-0.3709,0.3736,-2.1,33.0,-169.5,9.5768,0.1389,0.826,0.0823,0.133,0.3781,-101.85,-0.9,-14.25,6.63,1.09,-7.36,-0.0611,0.0698,0.1178,-45.0625,9.5625,37.875,4.1875,42.8125,-173.75,0
1776971927.717,9.8234,-2.1404,-0.8882,-0.0701,-0.4,0.3738,-1.35,33.0,-171.6,9.7013,0.1317,0.5722,0.0834,0.1287,0.397,-101.85,-0.9,-14.25,6.61,0.93,-7.52,-0.0611,0.0698,0.1178,-45.0625,9.5625,37.875,4.1875,42.8125,-173.75,0
1776971927.722,9.8234,-2.1404,-0.8882,-0.0701,-0.4,0.3738,-1.35,33.0,-171.6,9.7348,-0.012,0.5531,0.0362,0.1127,0.4096,-100.8,-1.35,-14.25,6.61,0.93,-7.52,-0.0273,0.0622,0.084,-46.5625,9.5625,38.375,4.25,42.8125,-173.75,0
1776971927.727,9.7612,-2.1117,-0.6345,-0.1527,-0.3744,0.3555,-1.8,32.25,-170.55,9.7348,-0.012,0.5531,0.0362,0.1127,0.4096,-100.8,-1.35,-14.25,6.58,0.84,-7.59,-0.0273,0.0622,0.084,-46.5625,9.5625,38.375,4.25,42.8125,-173.75,0
1776971927.732,9.7612,-2.1117,-0.6345,-0.1527,-0.3744,0.3555,-1.8,32.25,-170.55,9.742,-0.1915,0.4501,-0.0437,0.1074,0.4362,-101.1,-2.1,-14.25,6.58,0.84,-7.59,-0.0273,0.0622,0.084,-46.5625,9.5625,38.375,4.25,42.875,-173.75,0
1776971927.737,9.6247,-1.6831,-0.4932,-0.2017,-0.3256,0.3467,-1.8,32.25,-170.55,9.742,-0.1915,0.4501,-0.0437,0.1074,0.4362,-101.1,-2.1,-14.25,6.53,0.96,-7.54,-0.0164,0.0993,0.0524,-46.5625,9.5625,38.375,4.25,42.875,-173.75,0
1776971927.745,9.6247,-1.6831,-0.4932,-0.2017,-0.3256,0.3467,-1.8,32.25,-170.55,9.6702,-0.1556,0.5387,-0.1386,0.0954,0.441,-102.45,-1.5,-13.2,6.45,1.0,-7.54,-0.0218,0.1396,0.0262,-46.5625,9.5625,38.375,4.25,42.9375,-173.75,0
1776971927.749,9.6343,-1.391,-0.3328,-0.2292,-0.2651,0.3413,-1.8,32.25,-170.55,9.6702,-0.1556,0.5387,-0.1386,0.0954,0.441,-102.45,-1.5,-13.2,6.45,1.0,-7.54,-0.0218,0.1396,0.0262,-46.5625,9.5625,38.375,4.3125,43.0625,-173.75,0
1776971927.757,9.6295,-1.3096,-0.1269,-0.2547,-0.2276,0.3296,-0.6,31.05,-171.3,9.6414,-0.1604,0.6081,-0.2382,0.0605,0.4386,-101.25,-0.75,-14.4,6.46,1.09,-7.33,-0.0273,0.1702,0.0109,-46.5625,9.5625,38.375,4.3125,43.0625,-173.75,0
1776971927.764,9.6295,-1.3096,-0.1269,-0.2547,-0.2276,0.3296,-0.6,31.05,-171.3,9.6414,-0.0622,0.6752,-0.3285,0.0397,0.4237,-100.95,-3.45,-14.4,6.43,1.12,-7.34,-0.0218,0.132,0.0087,-46.5625,9.5625,38.375,4.25,43.125,-173.6875,0
1776971927.769,9.6989,-1.1349,0.1293,-0.2854,-0.2145,0.3461,-0.9,31.65,-172.5,9.6534,-0.0527,0.8068,-0.3285,0.0397,0.4237,-100.95,-3.45,-14.4,6.43,1.12,-7.34,-0.0218,0.132,0.0087,-46.5625,9.5625,38.375,4.25,43.125,-173.6875,0
1776971927.774,9.6989,-1.1349,0.1293,-0.2854,-0.2145,0.3461,-0.9,31.65,-172.5,9.6534,-0.0527,0.8068,-0.3965,0.025,0.3922,-101.85,-2.1,-14.55,6.38,1.05,-7.43,-0.0142,0.1145,0.0142,-46.25,10.0,38.25,4.25,43.125,-173.6875,0
1776971927.779,9.8904,-1.1301,0.1844,-0.279,-0.2454,0.3781,-2.25,30.45,-171.75,9.7444,0.0646,0.8906,-0.3965,0.025,0.3922,-101.85,-2.1,-14.55,6.38,1.05,-7.43,-0.0142,0.1145,0.0142,-46.25,10.0,38.25,4.25,43.125,-173.6875,0
1776971927.784,9.8904,-1.1301,0.1844,-0.279,-0.2454,0.3781,-2.25,30.45,-171.75,9.7444,0.0646,0.8906,-0.4341,0.025,0.3698,-101.85,-2.1,-14.55,6.44,1.13,-7.34,-0.0164,0.1265,0.0196,-46.25,10.0,38.25,4.25,43.125,-173.625,0
1776971927.789,9.8809,-1.1205,0.3041,-0.2635,-0.311,0.3997,-1.95,29.7,-173.55,9.7683,0.3567,1.0654,-0.4341,0.025,0.3698,-101.85,-2.1,-14.55,6.44,1.13,-7.34,-0.0164,0.1265,0.0196,-46.25,10.0,38.25,4.25,43.125,-173.625,0
1776971927.794,9.8809,-1.1205,0.3041,-0.2635,-0.311,0.3997,-1.95,29.7,-173.55,9.7683,0.3567,1.0654,-0.4578,0.0211,0.3413,-102.75,-1.05,-13.65,6.42,1.13,-7.31,-0.0153,0.1102,0.0218,-46.25,10.0,38.25,4.25,43.1875,-173.5625,0
1776971927.798,9.8833,-1.2234,0.3448,-0.2465,-0.3675,0.4242,-1.95,29.7,-173.55,9.6917,0.5243,1.2737,-0.4578,0.0211,0.3413,-102.75,-1.05,-13.65,6.42,1.13,-7.31,-0.0153,0.1102,0.0218,-46.25,10.0,38.25,4.25,43.1875,-173.5,0
1776971927.807,9.8809,-1.2378,0.3065,-0.2249,-0.4026,0.4354,-1.95,29.7,-173.55,9.6917,0.5243,1.2737,-0.4591,0.0333,0.3174,-102.75,-1.05,-13.65,6.4,1.11,-7.39,-0.0153,0.0993,0.0262,-46.25,10.0,38.25,4.25,43.1875,-173.5,0
1776971927.813,9.8809,-1.2378,0.3065,-0.2249,-0.4026,0.4354,-1.95,29.7,-173.55,9.6702,0.735,1.4198,-0.4405,0.045,0.2947,-100.95,-1.95,-13.95,6.45,1.16,-7.39,0.0011,0.1233,0.0327,-46.25,10.0,38.25,4.25,43.1875,-173.5,0
1776971927.818,9.8306,-1.3886,0.3208,-0.2198,-0.4242,0.4455,-1.8,30.75,-173.4,9.6438,0.7518,1.6185,-0.4194,0.0485,0.2675,-100.95,-1.95,-13.95,6.45,1.16,-7.39,0.0011,0.1233,0.0327,-46.25,10.0,38.25,4.25,43.1875,-173.5,0
1776971927.823,9.8306,-1.3886,0.3208,-0.2198,-0.4242,0.4455,-1.8,30.75,-173.4,9.6438,0.7518,1.6185,-0.4194,0.0485,0.2675,-102.0,-0.75,-14.7,6.48,1.1,-7.37,0.0262,0.1429,0.0327,-45.5,10.1875,37.1875,4.25,43.25,-173.5,0
1776971927.828,9.663,-1.4964,0.486,-0.1998,-0.4946,0.4511,-2.25,29.7,-173.55,9.5026,0.7853,1.6592,-0.404,0.0501,0.2358,-102.0,-0.75,-14.7,6.48,1.1,-7.37,0.0262,0.1429,0.0327,-45.5,10.1875,37.1875,4.25,43.25,-173.5,0
1776971927.833,9.663,-1.4964,0.486,-0.1998,-0.4946,0.4511,-2.25,29.7,-173.55,9.5026,0.7853,1.6592,-0.404,0.0501,0.2358,-101.7,-2.7,-13.65,6.48,1.1,-7.37,0.0545,0.1713,0.0305,-45.5,10.1875,37.1875,4.25,43.3125,-173.5,0
1776971927.838,9.7372,-1.5993,0.5626,-0.1977,-0.4557,0.4738,0.3,28.8,-174.45,9.5672,0.7638,1.6448,-0.396,0.0488,0.2006,-101.7,-2.7,-13.65,6.5,1.05,-7.39,0.0545,0.1713,0.0305,-45.5,10.1875,37.1875,4.25,43.3125,-173.5,0
1776971927.842,9.7372,-1.5993,0.5626,-0.1977,-0.4557,0.4738,0.3,28.8,-174.45,9.5672,0.7638,1.6448,-0.396,0.0488,0.2006,-102.6,-2.85,-14.25,6.5,1.05,-7.39,0.072,0.1854,0.0316,-45.5,10.1875,37.1875,4.25,43.375,-173.5,0
1776971927.848,9.833,-1.7382,0.6895,-0.207,-0.4732,0.485,-0.9,30.45,-174.3,9.5385,0.8452,1.6185,-0.3938,0.0424,0.1775,-102.6,-2.85,-14.25,6.49,1.11,-7.33,0.072,0.1854,0.0316,-45.5,10.1875,37.1875,4.25,43.375,-173.5,0
1776971927.857,9.8521,-1.7957,0.7135,-0.1892,-0.494,0.5055,-0.9,30.45,-174.3,9.6223,0.8116,1.6712,-0.4135,0.0373,0.1553,-101.1,-2.4,-14.85,6.52,1.07,-7.34,0.0916,0.1833,0.0338,-45.5,10.1875,37.1875,4.1875,43.4375,-173.5,0
1776971927.861,9.8521,-1.7957,0.7135,-0.1892,-0.494,0.5055,-0.9,30.45,-174.3,9.6223,0.8116,1.6712,-0.4135,0.0373,0.1553,-101.1,-2.4,-14.85,6.52,1.07,-7.34,0.1058,0.2018,0.0207,-45.5,10.1875,37.1875,4.1875,43.5,-173.5625,0
1776971927.868,9.8378,-1.9537,0.5698,-0.1716,-0.5566,0.5079,0.3,28.05,-174.15,9.6079,0.7638,1.6209,-0.4269,0.0368,0.1335,-102.75,-4.2,-12.9,6.51,1.1,-7.26,0.1058,0.2018,0.0207,-45.5,10.1875,37.1875,4.1875,43.5,-173.5625,0
1776971927.873,9.8474,-1.6879,0.5626,-0.1236,-0.5923,0.5052,0.3,28.05,-174.15,9.6079,0.7638,1.6209,-0.4269,0.0368,0.1335,-102.75,-4.2,-12.9,6.15,1.24,-7.21,0.1342,0.2062,0.0098,-46.5625,9.5,37.5625,4.125,43.5625,-173.5625,0
1776971927.878,9.8474,-1.6879,0.5626,-0.1236,-0.5923,0.5052,2.1,27.75,-173.85,9.5361,0.8523,1.5203,-0.4143,0.024,0.1218,-102.75,-4.2,-12.9,6.15,1.24,-7.21,0.1342,0.2062,0.0098,-46.5625,9.5,37.5625,4.125,43.5625,-173.5625,0
1776971927.883,9.8857,-1.4317,0.1389,-0.1729,-0.6371,0.5009,2.1,27.75,-173.85,9.5361,0.8523,1.5203,-0.4143,0.024,0.1218,-101.85,-2.1,-13.8,6.15,1.24,-7.21,0.1353,0.1625,0.0316,-46.5625,9.5,37.5625,4.0625,43.5625,-173.5625,0
1776971927.887,9.8857,-1.4317,0.1389,-0.1729,-0.6371,0.5009,1.2,27.45,-175.35,9.4403,0.9194,1.5395,-0.3928,0.0112,0.1119,-101.85,-2.1,-13.8,6.24,1.11,-7.17,0.1353,0.1625,0.0316,-46.5625,9.5,37.5625,4.0625,43.5625,-173.5625,0
1776971927.892,9.8593,-1.5706,-0.4357,-0.1785,-0.6781,0.4796,1.2,27.45,-175.35,9.4403,0.9194,1.5395,-0.3928,0.0112,0.1119,-101.85,-2.1,-13.8,6.24,1.11,-7.17,0.1385,0.18,0.0393,-46.5625,9.5,37.5625,4.0625,43.6875,-173.625,0
1776971927.898,9.8593,-1.5706,-0.4357,-0.1785,-0.6781,0.4796,2.25,26.7,-175.35,9.347,0.972,1.482,-0.3603,0.0013,0.1023,-101.85,-2.1,-13.8,5.86,1.22,-7.31,0.1385,0.18,0.0393,-46.5625,9.5,37.5625,4.125,43.8125,-173.75,0
1776971927.907,9.7851,-1.6448,-0.6895,-0.1466,-0.7051,0.465,1.35,28.05,-175.5,9.3901,1.0774,1.3144,-0.3368,-0.0085,0.0938,-102.45,-3.45,-14.4,6.73,1.0,-7.2,0.0884,0.2203,0.1036,-46.5625,9.5,37.5625,4.125,43.8125,-173.75,0
1776971927.917,9.73,-1.4772,-0.6752,-0.1567,-0.7362,0.4538,1.35,28.05,-175.5,9.505,1.0271,1.1013,-0.3182,-0.0264,0.0914,-101.85,-1.65,-12.75,6.64,0.93,-7.16,0.0993,0.2509,0.0894,-46.5625,9.5,37.5625,4.125,43.9375,-173.8125,0
1776971927.922,9.6558,-1.2426,-0.8452,-0.1575,-0.7509,0.4301,1.35,28.05,-175.5,9.505,1.0271,1.1013,-0.3182,-0.0264,0.0914,-101.85,-1.65,-12.75,6.64,0.93,-7.16,0.0993,0.2509,0.0894,-46.5625,9.5,37.5625,4.125,44.0625,-173.875,0
1776971927.927,9.6558,-1.2426,-0.8452,-0.1575,-0.7509,0.4301,0.45,28.65,-177.15,9.4092,0.984,1.0463,-0.2934,-0.0477,0.0957,-101.7,-2.7,-14.4,6.12,0.96,-7.36,0.1134,0.2574,0.0491,-46.75,9.875,36.375,4.125,44.0625,-173.875,0
1776971927.932,9.6486,-1.3336,-0.814,-0.1868,-0.7576,0.4146,0.45,28.65,-177.15,9.4092,0.984,1.0463,-0.2934,-0.0477,0.0957,-101.7,-2.7,-14.4,6.12,0.96,-7.36,0.1134,0.2574,0.0491,-46.75,9.875,36.375,4.125,44.0625,-173.875,0
1776971927.937,9.6486,-1.3336,-0.814,-0.1868,-0.7576,0.4146,0.6,28.5,-178.05,9.4499,0.8547,1.1684,-0.2958,-0.0424,0.1026,-103.05,-3.3,-14.55,6.29,0.86,-7.18,0.0458,0.2553,0.096,-46.75,9.875,36.375,4.125,44.125,-173.9375,0
1776971927.942,9.5457,-1.6281,-1.0463,-0.1529,-0.7653,0.4231,0.6,28.5,-178.05,9.4308,0.7446,1.1325,-0.2958,-0.0424,0.1026,-103.05,-3.3,-14.55,6.29,0.86,-7.18,0.0535,0.2934,0.096,-46.75,9.875,36.375,4.125,44.1875,-173.9375,0
1776971927.948,9.5457,-1.6281,-1.0463,-0.1529,-0.7653,0.4231,0.15,26.7,-178.2,9.4308,0.7446,1.1325,-0.3006,-0.061,0.1258,-101.55,-4.05,-14.25,6.0,1.01,-7.13,0.0535,0.2934,0.096,-46.75,9.875,36.375,4.1875,44.4375,-174.0,0
1776971927.957,9.4164,-1.6544,-1.4365,-0.0751,-0.7538,0.4309,-0.45,26.4,-177.45,9.481,0.5986,1.2019,-0.2992,-0.0925,0.1567,-102.3,-2.85,-13.05,5.92,0.98,-7.24,0.0884,0.3632,0.0764,-46.75,9.875,36.375,4.1875,44.4375,-174.0,0
1776971927.967,9.2584,-1.9632,-1.6496,-0.0381,-0.7645,0.4541,-0.3,26.55,-179.55,9.4068,0.3903,1.2306,-0.3134,-0.1092,0.1935,-102.3,-2.85,-13.05,6.24,0.88,-7.04,0.0556,0.4189,0.1331,-46.75,9.875,36.375,4.25,44.6875,-174.0625,0
1776971927.972,9.2823,-2.3272,-1.5083,-0.016,-0.797,0.4946,-0.3,26.55,-179.55,9.2991,0.2059,1.2282,-0.3078,-0.1111,0.2324,-102.3,-2.85,-13.05,6.24,0.88,-7.04,0.0556,0.4189,0.1331,-46.75,9.875,36.375,4.25,44.6875,-174.0625,0
1776971927.977,9.2823,-2.3272,-1.5083,-0.016,-0.797,0.4946,-0.3,26.55,-179.55,9.2991,0.2059,1.2282,-0.3078,-0.1111,0.2324,-102.6,-5.55,-13.5,6.71,0.9,-7.11,0.0458,0.456,0.1593,-47.5625,11.0,37.25,15.8125,44.9375,-174.1875,0
1776971927.982,9.1459,-2.3511,-1.6185,-0.0003,-0.7746,0.5305,-0.45,25.65,-179.55,9.4427,0.2107,1.1325,-0.2859,-0.1114,0.2574,-102.6,-5.55,-13.5,6.71,0.9,-7.11,0.0458,0.456,0.1593,-47.5625,11.0,37.25,15.8125,44.9375,-174.1875,0
1776971927.987,9.1459,-2.3511,-1.6185,-0.0003,-0.7746,0.5305,-0.45,25.65,-179.25,9.4427,0.2107,1.1325,-0.2859,-0.1114,0.2574,-102.6,-5.55,-13.5,6.71,0.88,-7.07,0.0273,0.4811,0.1844,-47.5625,11.0,37.25,15.625,45.1875,-174.25,0
1776971927.993,9.4284,-2.6169,-1.5083,-0.0885,-0.7634,0.5614,-0.15,26.4,-178.2,9.5984,0.0718,1.1492,-0.2422,-0.1148,0.2827,-102.6,-5.55,-13.5,6.71,0.88,-7.07,0.0087,0.4996,0.1789,-47.5625,11.0,37.25,15.5,45.5,-174.3125,0
1776971927.998,9.4188,-2.8036,-1.4844,-0.0767,-0.7477,0.5673,-0.15,26.4,-178.2,9.5984,0.0718,1.1492,-0.2422,-0.1148,0.2827,-101.85,-3.3,-14.55,6.73,0.86,-7.0,0.0087,0.4996,0.1789,-47.5625,11.0,37.25,15.3125,45.75,-174.4375,0
1776971928.007,9.6295,-2.6432,-1.1444,-0.1146,-0.7099,0.5979,1.35,26.55,-180.6,9.6965,-0.0192,1.1923,-0.2153,-0.1151,0.2963,-100.5,-4.2,-15.45,6.49,0.94,-6.98,-0.0011,0.5061,0.1778,-47.5625,11.0,37.25,15.3125,45.75,-174.4375,0
1776971928.017,9.6798,-2.4445,-1.2426,-0.1519,-0.667,0.6049,-0.45,25.65,-180.75,9.7683,0.012,1.3312,-0.2014,-0.1255,0.3014,-102.0,-4.2,-14.4,6.51,0.87,-7.08,0.0011,0.5465,0.168,-47.5625,11.0,37.25,15.1875,46.0625,-174.5,0
1776971928.022,9.6798,-2.4445,-1.2426,-0.1519,-0.667,0.6049,2.85,24.75,-180.15,9.8186,0.3232,1.4653,-0.2062,-0.1351,0.3011,-102.0,-4.2,-14.4,6.51,0.87,-7.08,0.0011,0.5465,0.168,-47.5625,11.0,37.25,15.0,46.4375,-174.5625,0
1776971928.027,9.9192,-2.332,-1.0367,-0.2134,-0.636,0.6078,2.85,24.75,-180.15,9.8186,0.3232,1.4653,-0.2062,-0.1351,0.3011,-101.25,-3.9,-14.4,6.57,0.76,-7.07,-0.0076,0.6316,0.1778,-47.5625,12.5,35.6875,15.0,46.4375,-174.5625,0
1776971928.032,9.9192,-2.332,-1.0367,-0.2134,-0.636,0.6078,2.85,24.75,-180.15,9.821,0.7254,1.5993,-0.2078,-0.1564,0.2955,-101.25,-3.9,-14.4,6.57,0.76,-7.07,-0.0076,0.6316,0.1778,-47.5625,12.5,35.6875,15.0,46.4375,-174.5625,0
1776971928.037,10.2161,-2.7845,-1.0175,-0.2995,-0.6648,0.6323,2.85,24.75,-180.15,9.821,0.7254,1.5993,-0.2078,-0.1564,0.2955,-103.05,-3.6,-13.8,7.72,-0.11,-7.84,-0.0218,0.6698,0.1625,-47.5625,12.5,35.6875,14.875,46.8125,-174.5625,0
1776971928.042,10.2161,-2.7845,-1.0175,-0.2995,-0.6648,0.6323,2.25,24.9,-181.8,9.845,1.0343,1.6544,-0.1737,-0.1692,0.2872,-103.05,-3.6,-13.8,7.72,-0.11,-7.84,-0.0589,0.673,0.0807,-47.5625,12.5,35.6875,14.8125,47.1875,-174.5625,0
1776971928.048,10.1706,-2.8299,-0.5028,-0.2801,-0.7274,0.6539,2.25,24.9,-181.8,9.6869,1.3024,1.8675,-0.1737,-0.1692,0.2872,-103.2,-3.9,-14.7,6.73,1.43,-6.7,-0.0589,0.673,0.0807,-47.5625,12.5,35.6875,14.8125,47.5,-174.5,0
1776971928.057,10.2448,-2.8563,-0.5339,-0.3038,-0.8002,0.6827,3.45,24.45,-182.85,9.56,1.3503,1.8603,-0.1516,-0.1716,0.2809,-103.2,-3.9,-14.7,7.15,0.47,-7.38,-0.1004,0.5934,0.0774,-47.5625,12.5,35.6875,14.8125,47.5,-174.5,0
1776971928.067,10.094,-3.0382,-0.5076,-0.3637,-0.8998,0.6795,4.65,23.55,-183.45,9.596,1.561,1.6903,-0.1279,-0.1713,0.2726,-102.45,-4.2,-15.15,6.89,0.94,-6.84,-0.0545,0.6403,0.0709,-47.5625,12.5,35.6875,14.75,47.875,-174.5,0
1776971928.072,10.094,-3.0382,-0.5076,-0.3637,-0.8998,0.6795,4.95,22.8,-183.0,9.596,1.561,1.6903,-0.1247,-0.1673,0.2697,-102.45,-4.2,-15.15,6.89,0.94,-6.84,-0.0545,0.6403,0.0709,-47.5625,12.5,35.6875,14.75,47.875,-174.5,0
1776971928.077,10.0676,-2.9425,-0.5243,-0.3778,-0.9678,0.6912,4.95,22.8,-183.0,9.2392,1.5347,1.7358,-0.1247,-0.1673,0.2697,-102.45,-4.2,-15.15,7.0,0.95,-6.69,-0.0469,0.624,0.0982,-49.375,11.6875,34.875,14.6875,48.25,-174.5,0
1776971928.082,10.0676,-2.9425,-0.5243,-0.3778,-0.9678,0.6912,5.25,24.45,-184.35,9.2392,1.5347,1.7358,-0.1737,-0.1892,0.2638,-102.45,-4.2,-15.15,7.0,0.95,-6.69,-0.0469,0.624,0.0982,-49.375,11.6875,34.875,14.6875,48.25,-174.5,0
1776971928.087,10.2615,-2.8299,-1.1037,-0.4407,-0.9832,0.7325,5.25,24.45,-184.35,9.4547,1.8699,1.8076,-0.2294,-0.1993,0.2627,-101.55,-4.8,-15.3,7.22,1.12,-6.88,-0.048,0.648,0.1265,-49.375,11.6875,34.875,14.625,48.625,-174.5,0
1776971928.093,10.2615,-2.8299,-1.1037,-0.4407,-0.9832,0.7325,5.25,24.45,-184.35,9.4547,1.8699,1.8076,-0.2294,-0.1993,0.2627,-101.55,-4.8,-15.3,6.9,0.55,-6.46,0.0065,0.7265,0.1418,-49.375,11.6875,34.875,14.5,49.0,-174.5625,0
1776971928.098,10.9678,-1.7047,-1.573,-0.433,-1.0237,0.6936,5.25,24.45,-184.35,10.1825,2.2218,1.7597,-0.3091,-0.2393,0.2302,-102.0,-5.85,-15.45,6.9,0.55,-6.46,0.0065,0.7265,0.1418,-49.375,11.6875,34.875,14.25,49.4375,-174.625,0
1776971928.107,11.5784,-1.2594,-1.8076,-0.462,-1.0515,0.5998,5.55,23.7,-185.4,10.5225,2.1237,1.5083,-0.3288,-0.3128,0.1958,-102.3,-5.55,-15.3,6.77,0.45,-7.36,0.0349,0.7898,0.1593,-49.375,11.6875,34.875,14.25,49.4375,-174.625,0
1776971928.117,12.0309,-0.9194,-1.5395,-0.4698,-1.0587,0.575,5.55,23.4,-185.7,10.7787,2.0279,1.3096,-0.364,-0.3597,0.1617,-101.7,-4.95,-15.9,6.8,0.42,-7.13,-0.0207,0.9087,0.1549,-49.375,11.6875,34.875,14.125,49.9375,-174.6875,0
1776971928.122,12.0309,-0.9194,-1.5395,-0.4698,-1.0587,0.575,4.35,22.8,-186.3,10.7787,2.0279,1.3096,-0.364,-0.3597,0.1617,-101.7,-4.95,-15.9,6.8,0.42,-7.13,-0.0207,0.9087,0.1549,-49.375,11.6875,34.875,14.0625,50.5,-174.625,0
1776971928.127,12.2655,-1.0008,-1.6376,-0.5161,-1.1977,0.6209,4.35,22.8,-186.3,10.8457,2.2913,1.3312,-0.4112,-0.4008,0.1439,-103.95,-4.95,-15.15,7.07,0.52,-7.11,-0.06,1.0167,0.1222,-49.75,12.0625,33.0,14.0625,50.5,-174.625,0
1776971928.132,12.2655,-1.0008,-1.6376,-0.5161,-1.1977,0.6209,4.95,22.05,-186.6,10.8457,2.2913,1.3312,-0.4112,-0.4008,0.1439,-103.95,-4.95,-15.15,7.07,0.52,-7.11,-0.06,1.0167,0.1222,-49.75,12.0625,33.0,14.0625,51.125,-174.5625,0
1776971928.137,12.1266,-1.4748,-1.3695,-0.5481,-1.3057,0.6749,4.95,22.05,-186.6,10.6734,2.5594,1.3623,-0.4413,-0.4338,0.1266,-102.0,-3.9,-16.2,6.7,0.22,-7.01,-0.1091,1.0712,0.0774,-49.75,12.0625,33.0,14.0625,51.125,-174.5625,0
1776971928.142,12.1266,-1.4748,-1.3695,-0.5481,-1.3057,0.6749,4.5,21.45,-188.85,10.6734,2.5594,1.3623,-0.4413,-0.4338,0.1266,-102.0,-3.9,-16.2,6.7,0.22,-7.01,-0.1374,1.2065,-0.0382,-49.75,12.0625,33.0,14.125,51.8125,-174.375,0
1776971928.148,11.8728,-1.7119,-1.1085,-0.5231,-1.4591,0.7226,4.5,21.45,-188.85,10.4986,2.885,1.4964,-0.4599,-0.4596,0.1018,-102.0,-3.9,-16.2,7.26,0.27,-6.9,-0.1374,1.2065,-0.0382,-49.75,12.0625,33.0,14.25,52.5625,-174.125,0
1776971928.157,11.7675,-1.4365,-1.0918,-0.5327,-1.5809,0.7759,4.5,21.45,-188.85,10.4124,2.976,1.6113,-0.4394,-0.4842,0.0677,-101.25,-5.4,-17.4,7.18,1.24,-6.11,-0.1953,1.3886,-0.0796,-49.75,12.0625,33.0,14.25,52.5625,-174.125,0
1776971928.168,11.9327,-1.6831,-1.6903,-0.6454,-1.6878,0.8583,5.7,20.55,-192.0,10.2831,2.8204,1.3671,-0.4151,-0.5057,-0.0088,-101.25,-5.4,-17.4,7.45,0.83,-6.47,-0.276,1.6352,-0.0905,-49.75,12.0625,33.0,14.4375,53.4375,-173.75,0
1776971928.173,12.0093,-2.1811,-1.4078,-0.8164,-1.8024,0.9659,4.35,19.05,-191.55,10.4555,2.5714,1.2258,-0.4151,-0.5057,-0.0088,-101.25,-5.4,-17.4,7.45,0.83,-6.47,-0.276,1.6352,-0.0905,-49.75,12.0625,33.0,14.4375,53.4375,-173.75,0
1776971928.178,12.0093,-2.1811,-1.4078,-0.8164,-1.8024,0.9659,4.35,19.05,-191.55,10.4555,2.5714,1.2258,-0.3595,-0.5188,-0.1306,-102.75,-5.4,-16.2,6.98,1.01,-5.94,-0.3458,1.9679,-0.0567,-52.25,12.75,29.875,14.6875,54.5,-173.375,0
1776971928.182,12.2823,-2.7078,-0.668,-1.011,-1.8903,1.0794,6.6,19.65,-191.7,10.4675,2.3032,0.8787,-0.3595,-0.5188,-0.1306,-102.75,-5.4,-16.2,6.98,1.01,-5.94,-0.3458,1.9679,-0.0567,-52.25,12.75,29.875,14.6875,54.5,-173.375,0
1776971928.187,12.2823,-2.7078,-0.668,-1.011,-1.8903,1.0794,6.6,19.65,-191.7,10.4675,2.3032,0.8787,-0.2289,-0.5521,-0.2705,-100.8,-6.45,-17.1,7.16,0.42,-5.95,-0.4352,2.2264,0.0425,-52.25,12.75,29.875,14.9375,55.75,-172.9375,0
1776971928.194,12.5073,-2.5618,0.0335,-1.2454,-1.9606,1.1714,9.0,19.05,-195.15,10.5943,1.8483,0.2418,-0.0695,-0.5891,-0.4194,-100.8,-6.45,-17.1,7.62,0.75,-6.13,-0.5967,2.4696,0.1582,-52.25,12.75,29.875,15.25,57.125,-172.5,0
1776971928.199,12.5073,-2.5618,0.0335,-1.2454,-1.9606,1.1714,9.3,16.05,-196.65,10.5943,1.8483,0.2418,-0.0695,-0.5891,-0.4194,-101.85,-5.55,-18.6,7.62,0.75,-6.13,-0.5967,2.4696,0.1582,-52.25,12.75,29.875,15.75,58.5,-172.0,0
1776971928.208,12.4858,-1.324,0.0982,-1.4368,-1.9601,1.1876,9.3,16.05,-196.65,10.738,1.4796,-0.2442,0.0685,-0.6017,-0.5399,-102.0,-3.9,-18.45,7.62,0.44,-6.82,-0.8858,2.4664,0.3207,-52.25,12.75,29.875,15.75,58.5,-172.0,0
1776971928.218,12.0811,0.4429,-0.3519,-1.6281,-1.9004,1.1413,11.4,16.2,-199.2,10.41,1.3096,-1.0295,0.0874,-0.716,-0.639,-102.6,-4.5,-18.6,8.76,2.19,-5.74,-1.0461,2.2646,0.5934,-52.25,12.75,29.875,16.25,59.8125,-171.6875,0
1776971928.223,11.2384,1.7526,-1.4006,-1.8021,-1.8516,1.0283,11.4,16.2,-199.2,9.8665,0.9864,-1.6783,0.0714,-0.91,-0.7642,-102.6,-4.5,-18.6,8.76,2.19,-5.74,-1.0461,2.2646,0.5934,-52.25,12.75,29.875,16.75,61.125,-171.3125,0
1776971928.228,11.2384,1.7526,-1.4006,-1.8021,-1.8516,1.0283,13.95,16.65,-200.7,9.8665,0.9864,-1.6783,0.0714,-0.91,-0.7642,-101.55,-3.6,-19.35,7.69,1.93,-6.94,-1.0679,2.3147,0.5803,-54.5625,12.5,25.875,16.75,61.125,-171.3125,0
1776971928.232,10.8074,2.5522,-2.0638,-1.8069,-1.9097,0.9329,13.95,16.65,-200.7,9.5193,0.3807,-1.8244,0.0781,-0.9912,-0.9228,-101.55,-3.6,-19.35,7.69,1.93,-6.94,-1.0679,2.3147,0.5803,-54.5625,12.5,25.875,16.75,61.125,-171.3125,0
1776971928.237,10.8074,2.5522,-2.0638,-1.8069,-1.9097,0.9329,12.75,18.45,-202.5,9.5193,0.3807,-1.8244,0.0781,-0.9912,-0.9228,-101.25,-3.9,-19.5,8.63,0.26,-10.44,-1.2065,2.8416,0.6556,-54.5625,12.5,25.875,17.25,62.75,-170.8125,0
1776971928.242,10.6877,1.7454,-1.7334,-1.3209,-1.9343,0.8711,12.75,18.45,-202.5,9.4451,0.0982,-1.0439,0.1511,-1.0304,-1.1183,-101.25,-3.9,-19.5,8.63,0.26,-10.44,-0.6567,3.7001,0.9119,-54.5625,12.5,25.875,17.0625,64.8125,-170.8125,0
1776971928.248,10.6877,1.7454,-1.7334,-1.3209,-1.9343,0.8711,13.05,24.75,-205.2,9.4451,0.0982,-1.0439,0.1511,-1.0304,-1.1183,-102.0,-2.25,-21.45,8.93,4.17,-5.77,-0.6567,3.7001,0.9119,-54.5625,12.5,25.875,15.9375,67.125,-171.8125,0
1776971928.258,10.4387,-0.0144,-1.6209,-0.8375,-1.8599,0.8623,13.05,24.75,-205.2,9.3206,-0.2083,-1.2402,0.0032,-1.0698,-1.2793,-102.0,-2.25,-21.45,9.88,1.52,-4.91,0.2127,3.9968,1.3297,-54.5625,12.5,25.875,15.9375,67.125,-171.8125,0
