timestamp,thigh_acc_x,thigh_acc_y,thigh_acc_z,thigh_gyro_x,thigh_gyro_y,thigh_gyro_z,thigh_mag_x,thigh_mag_y,thigh_mag_z,shank_acc_x,shank_acc_y,shank_acc_z,shank_gyro_x,shank_gyro_y,shank_gyro_z,shank_mag_x,shank_mag_y,shank_mag_z,foot_acc_x,foot_acc_y,foot_acc_z,foot_gyro_x,foot_gyro_y,foot_gyro_z,foot_mag_x,foot_mag_y,foot_mag_z,foot_euler_x,foot_euler_y,foot_euler_z,perturbation_event
1776970346.214,9.5265,2.138,-0.1748,-0.4183,0.7538,0.5105,-39.45,6.75,32.7,8.8992,-0.0383,2.8683,-1.0637,0.1767,0.0706,-88.05,-16.35,-0.6,6.43,-0.54,-8.21,0.096,0.5116,0.0273,-29.875,19.0,18.0625,67.125,36.5,172.1875,0
1776970346.218,9.5265,2.138,-0.1748,-0.4183,0.7538,0.5105,-38.1,6.75,33.0,8.8346,0.1077,2.7892,-0.9561,0.1743,0.1327,-88.35,-18.0,-0.3,5.8,-1.01,-7.74,0.096,0.5116,0.0273,-29.875,19.0,18.0625,67.1875,36.75,172.125,0
1776970346.223,9.1195,2.0518,-0.3783,-0.308,0.7304,0.4823,-38.1,6.75,33.0,8.8346,0.1077,2.7892,-0.9561,0.1743,0.1327,-88.35,-18.0,-0.3,5.8,-1.01,-7.74,0.0469,0.2847,0.0196,-29.875,19.0,18.0625,67.1875,36.9375,172.0625,0
1776970346.23,9.1195,2.0518,-0.3783,-0.2731,0.7037,0.4525,-37.65,7.05,33.45,8.8274,0.4142,2.6983,-0.8279,0.1828,0.1591,-87.75,-16.5,0.15,5.71,-0.87,-7.73,0.0469,0.2847,0.0196,-29.875,19.0,18.0625,67.25,37.125,172.0625,0
1776970346.239,9.2512,1.7621,0.0527,-0.2731,0.7037,0.4525,-37.65,7.05,33.45,8.904,0.5626,2.6193,-0.7416,0.2057,0.1657,-87.75,-16.5,0.15,5.81,-0.73,-7.81,-0.0404,0.3491,0.0404,-29.875,19.0,18.0625,67.25,37.125,172.0625,0
1776970346.249,9.1099,1.5299,0.0359,-0.3842,0.6664,0.4383,-37.95,5.4,34.65,8.746,1.3216,2.9018,-0.6792,0.2393,0.1793,-85.95,-16.5,0.45,5.82,-0.74,-7.79,-0.0524,0.3447,0.0491,-29.875,19.0,18.0625,67.25,37.3125,172.0625,0
1776970346.254,9.4332,1.4772,0.249,-0.3842,0.6664,0.4383,-38.85,5.55,33.75,8.8274,1.3599,3.0239,-0.6384,0.3083,0.1703,-85.95,-16.5,0.45,5.82,-0.74,-7.79,-0.0524,0.3447,0.0491,-29.875,19.0,18.0625,67.25,37.3125,172.0625,0
1776970346.259,9.493,1.3695,0.0383,-0.4879,0.6702,0.4485,-38.85,5.55,33.75,8.8274,1.3599,3.0239,-0.6384,0.3083,0.1703,-85.95,-16.5,0.45,5.84,-0.68,-7.88,-0.0545,0.3327,0.072,-31.6875,19.25,18.1875,67.3125,37.5,172.0,0
1776970346.264,9.493,1.3695,0.0383,-0.4879,0.6702,0.4485,-37.35,4.8,34.2,8.9591,1.3288,3.2298,-0.5915,0.3291,0.1775,-85.95,-16.5,0.45,5.84,-0.68,-7.88,-0.0545,0.3327,0.072,-31.6875,19.25,18.1875,67.3125,37.5,172.0,0
1776970346.269,9.6582,1.221,-0.0742,-0.5367,0.6502,0.4612,-37.35,4.8,34.2,8.9591,1.3288,3.2298,-0.5915,0.3291,0.1775,-86.85,-18.3,-1.05,5.96,-0.67,-7.64,-0.0022,0.3011,0.0665,-31.6875,19.25,18.1875,67.375,37.625,172.0,0
1776970346.274,9.6582,1.221,-0.0742,-0.5367,0.6502,0.4612,-37.2,4.2,34.65,9.0692,1.2043,3.2489,-0.5404,0.3328,0.1945,-86.85,-18.3,-1.05,5.96,-0.67,-7.64,0.0207,0.2694,0.1014,-31.6875,19.25,18.1875,67.4375,37.75,171.9375,0
1776970346.28,9.6893,1.336,-0.2586,-0.5585,0.652,0.4618,-37.2,4.2,34.65,9.0692,1.2043,3.2489,-0.5404,0.3328,0.1945,-86.55,-16.8,0.3,6.09,-0.67,-7.6,0.0207,0.2694,0.1014,-31.6875,19.25,18.1875,67.4375,37.75,171.9375,0
1776970346.289,9.6031,1.3168,-0.4405,-0.506,0.643,0.4668,-37.2,4.2,34.65,9.1985,0.905,3.0071,-0.4719,0.3576,0.2068,-86.25,-16.95,-0.15,5.75,-0.78,-7.81,0.0393,0.2782,0.1145,-31.6875,19.25,18.1875,67.5,37.875,171.875,0
1776970346.294,9.6031,1.3168,-0.4405,-0.506,0.643,0.4668,-37.2,4.2,34.65,9.3518,0.7494,2.7916,-0.3648,0.3722,0.211,-86.25,-16.95,-0.15,5.75,-0.78,-7.81,0.0654,0.2825,0.0949,-31.6875,19.25,18.1875,67.5625,38.0625,171.8125,0
1776970346.3,9.5074,1.2306,-0.3974,-0.4463,0.6494,0.473,-37.2,4.2,34.65,9.3518,0.7494,2.7916,-0.3648,0.3722,0.211,-86.7,-16.5,0.15,6.05,-0.72,-7.75,0.0654,0.2825,0.0949,-31.6875,19.25,18.1875,67.5625,38.0625,171.8125,0
1776970346.305,9.5074,1.2306,-0.3974,-0.4463,0.6494,0.473,-38.25,3.9,35.7,9.4355,0.8021,2.4014,-0.2998,0.3744,0.2153,-86.7,-16.5,0.15,6.05,-0.72,-7.75,0.0884,0.2738,0.0818,-30.875,20.0,18.6875,67.5625,38.1875,171.75,0
1776970346.31,9.4858,1.2809,-0.3639,-0.3661,0.6656,0.4834,-38.25,3.9,35.7,9.4236,0.838,2.0039,-0.2998,0.3744,0.2153,-87.0,-16.5,-0.15,6.07,-0.64,-7.76,0.0884,0.2738,0.0818,-30.875,20.0,18.6875,67.5625,38.1875,171.75,0
1776970346.315,9.4858,1.2809,-0.3639,-0.3661,0.6656,0.4834,-37.2,5.4,37.2,9.4236,0.838,2.0039,-0.2515,0.3635,0.2236,-87.0,-16.5,-0.15,6.07,-0.64,-7.76,0.1047,0.264,0.0687,-30.875,20.0,18.6875,67.5625,38.3125,171.6875,0
1776970346.32,9.4858,1.5131,-0.5124,-0.3168,0.6731,0.489,-37.2,5.4,37.2,9.4164,0.8547,1.6448,-0.2515,0.3635,0.2236,-85.8,-17.55,1.05,6.02,-0.91,-7.64,0.1047,0.264,0.0687,-30.875,20.0,18.6875,67.5625,38.3125,171.6875,0
1776970346.325,9.4858,1.5131,-0.5124,-0.3168,0.6731,0.489,-36.45,3.45,35.7,9.4164,0.8547,1.6448,-0.2201,0.3395,0.223,-85.8,-17.55,1.05,6.02,-0.91,-7.64,0.1058,0.2618,0.0687,-30.875,20.0,18.6875,67.625,38.4375,171.5625,0
1776970346.331,9.4619,1.7334,-0.5411,-0.2417,0.6899,0.5028,-36.45,3.45,35.7,9.4906,1.0558,1.3192,-0.2129,0.2944,0.2222,-85.8,-17.55,1.05,6.1,-0.89,-7.67,0.1058,0.2618,0.0687,-30.875,20.0,18.6875,67.625,38.625,171.5,0
1776970346.34,9.3518,1.901,-0.668,-0.1591,0.7115,0.5169,-37.5,3.15,36.75,9.4667,1.1803,1.2234,-0.2129,0.2944,0.2222,-85.8,-16.8,0.3,6.16,-0.87,-7.69,0.1036,0.2716,0.0567,-30.875,20.0,18.6875,67.625,38.625,171.5,0
1776970346.346,9.3518,1.901,-0.668,-0.1591,0.7115,0.5169,-37.5,3.15,36.75,9.4667,1.1803,1.2234,-0.2318,0.2585,0.2126,-85.8,-16.8,0.3,6.12,-0.88,-7.61,0.0807,0.2694,0.0578,-30.875,20.0,18.6875,67.625,38.75,171.4375,0
1776970346.351,9.1937,2.0877,-0.7446,-0.113,0.736,0.5263,-37.5,3.15,36.75,9.4092,1.4629,1.1851,-0.2622,0.202,0.2118,-85.8,-16.8,0.3,6.12,-0.88,-7.61,0.0807,0.2694,0.0578,-30.875,20.0,18.6875,67.625,38.75,171.4375,0
1776970346.356,9.1937,2.0877,-0.7446,-0.0685,0.7592,0.5494,-37.65,3.0,35.85,9.4092,1.4629,1.1851,-0.2622,0.202,0.2118,-85.8,-16.8,0.3,6.0,-0.8,-7.6,0.0851,0.2542,0.0491,-31.6875,19.25,17.5,67.6875,38.875,171.375,0
1776970346.36,9.2751,2.1332,-0.7207,-0.0685,0.7592,0.5494,-37.65,3.0,35.85,9.3158,1.6496,1.2306,-0.3086,0.1601,0.198,-87.45,-17.7,0.9,6.0,-0.8,-7.6,0.0851,0.2542,0.0491,-31.6875,19.25,17.5,67.6875,38.875,171.375,0
1776970346.365,9.2751,2.1332,-0.7207,-0.0304,0.7709,0.554,-36.75,2.4,37.2,9.3158,1.6496,1.2306,-0.3086,0.1601,0.198,-87.45,-17.7,0.9,6.0,-0.8,-7.6,0.0665,0.2629,0.0415,-31.6875,19.25,17.5,67.6875,39.0,171.3125,0
1776970346.37,9.4451,2.1189,-0.498,-0.0304,0.7709,0.554,-36.75,2.4,37.2,9.2177,1.8076,1.482,-0.3992,0.1575,0.1948,-86.1,-18.3,0.3,6.1,-0.73,-7.56,0.0665,0.2629,0.0415,-31.6875,19.25,17.5,67.6875,39.0,171.3125,0
1776970346.375,9.6726,1.798,-0.2298,0.0216,0.7717,0.57,-37.35,1.5,36.6,9.2177,1.8076,1.482,-0.3992,0.1575,0.1948,-86.1,-18.3,0.3,6.1,-0.73,-7.56,0.0491,0.2651,0.0491,-31.6875,19.25,17.5,67.6875,39.125,171.25,0
1776970346.38,9.6726,1.798,-0.2298,0.0216,0.7717,0.57,-37.35,1.5,36.6,9.2201,1.8818,1.968,-0.4855,0.15,0.1876,-86.85,-18.3,1.8,5.92,-0.9,-7.58,0.0491,0.2651,0.0491,-31.6875,19.25,17.5,67.6875,39.125,171.25,0
1776970346.389,9.5696,1.7813,-0.2059,0.0669,0.7834,0.583,-36.0,2.4,37.5,9.2727,2.083,2.2027,-0.5476,0.1415,0.1863,-85.5,-17.4,1.65,6.08,-0.76,-7.62,0.0404,0.2923,0.0502,-31.6875,19.25,17.5,67.6875,39.25,171.25,0
1776970346.394,9.5696,1.7813,-0.2059,0.0336,0.8164,0.615,-37.35,1.8,38.1,9.2727,2.083,2.2027,-0.5476,0.1415,0.1863,-85.5,-17.4,1.65,6.08,-0.76,-7.62,0.0065,0.2956,0.0382,-31.6875,19.25,17.5,67.75,39.4375,171.25,0
1776970346.401,9.3613,1.4892,0.1077,0.0336,0.8164,0.615,-37.35,1.8,38.1,9.2727,2.1668,2.3415,-0.5337,0.1234,0.1721,-85.05,-18.0,1.05,6.2,-0.82,-7.55,0.0065,0.2956,0.0382,-31.6875,19.25,17.5,67.75,39.4375,171.25,0
1776970346.405,9.4547,1.5586,-0.0862,0.0317,0.8644,0.6648,-37.35,1.8,38.1,9.2727,2.1668,2.3415,-0.5337,0.1234,0.1721,-85.05,-18.0,1.05,6.2,-0.82,-7.55,0.0065,0.2956,0.0382,-31.6875,19.0,17.0625,67.75,39.5625,171.1875,0
1776970346.411,9.4547,1.5586,-0.0862,0.0317,0.8644,0.6648,-37.35,1.8,38.1,9.1913,2.0734,2.5666,-0.4868,0.154,0.1655,-85.5,-18.45,1.95,6.23,-0.98,-7.57,-0.0131,0.2738,0.0327,-31.6875,19.0,17.0625,67.75,39.5625,171.1875,0
1776970346.415,9.3948,1.6759,-0.0503,0.0474,0.9052,0.6984,-34.5,1.05,39.9,9.1913,2.0734,2.5666,-0.4868,0.154,0.1655,-85.5,-18.45,1.95,6.23,-0.98,-7.57,-0.0131,0.2738,0.0327,-31.6875,19.0,17.0625,67.8125,39.6875,171.1875,0
1776970346.42,9.3948,1.6759,-0.0503,0.0474,0.9052,0.6984,-34.5,1.05,39.9,9.1698,1.9872,2.6384,-0.3714,0.1719,0.1753,-85.5,-18.45,1.95,6.26,-1.1,-7.59,-0.0196,0.2411,0.0273,-31.6875,19.0,17.0625,67.8125,39.6875,171.1875,0
1776970346.425,9.4308,1.6903,0.0814,0.0221,0.9268,0.721,-35.1,0.3,39.45,9.1698,1.9872,2.6384,-0.3714,0.1719,0.1753,-85.5,-18.45,1.95,6.26,-1.1,-7.59,-0.0273,0.2356,0.012,-31.6875,19.0,17.0625,67.8125,39.8125,171.1875,0
1776970346.431,9.4308,1.6903,0.0814,0.0221,0.9268,0.721,-36.3,0.75,40.2,9.2201,2.2505,2.4876,-0.3128,0.1375,0.1679,-84.75,-17.7,1.65,6.28,-0.99,-7.69,-0.0273,0.2356,0.012,-31.6875,19.0,17.0625,67.8125,39.9375,171.1875,0
1776970346.44,9.4475,1.6352,0.1341,-0.0109,0.9358,0.756,-36.3,0.75,40.2,9.0381,2.1644,2.5953,-0.2809,0.1372,0.1655,-85.2,-18.15,0.45,6.31,-0.95,-7.52,-0.0273,0.2182,0.0044,-31.6875,19.0,17.0625,67.8125,39.9375,171.1875,0
1776970346.445,9.4571,1.7573,0.3496,0.0309,0.9582,0.7608,-34.8,-0.3,40.95,9.0453,2.0255,2.66,-0.2809,0.1372,0.1655,-85.2,-18.15,0.45,6.31,-0.95,-7.52,-0.0425,0.1767,0.0033,-31.6875,19.0,17.0625,67.8125,40.0625,171.25,0
1776970346.451,9.4571,1.7573,0.3496,0.0309,0.9582,0.7608,-34.8,-0.3,40.95,9.0453,2.0255,2.66,-0.2361,0.1383,0.1514,-84.75,-20.4,0.45,6.21,-0.88,-7.53,-0.0425,0.1767,0.0033,-31.6875,19.0,17.0625,67.8125,40.0625,171.25,0
1776970346.456,9.7037,1.3455,0.7374,0.073,0.9558,0.7528,-34.8,-0.3,40.95,9.0836,1.743,2.988,-0.211,0.1199,0.1545,-84.75,-20.4,0.45,6.21,-0.88,-7.53,-0.0589,0.168,-0.0033,-32.875,19.25,17.875,67.875,40.125,171.3125,0
1776970346.461,9.7037,1.3455,0.7374,0.073,0.9558,0.7528,-34.8,-0.3,40.95,9.0836,1.743,2.988,-0.211,0.1199,0.1545,-85.2,-18.9,-0.15,5.79,-0.83,-7.68,-0.0589,0.168,-0.0033,-32.875,19.25,17.875,67.875,40.125,171.3125,0
1776970346.466,9.924,0.9529,1.2067,0.1026,0.9369,0.7378,-34.8,-0.3,40.95,9.1889,1.2043,3.0885,-0.2206,0.1263,0.1689,-85.2,-18.9,-0.15,5.79,-0.83,-7.68,-0.0731,0.2182,-0.0076,-32.875,19.25,17.875,67.875,40.1875,171.3125,0
1776970346.471,9.924,0.9529,1.2067,0.1026,0.9369,0.7378,-34.05,-0.3,41.55,9.1889,1.2043,3.0885,-0.2206,0.1263,0.1689,-83.7,-18.45,1.95,5.85,-0.88,-7.9,-0.0731,0.2182,-0.0076,-32.875,19.25,17.875,67.875,40.1875,171.3125,0
1776970346.475,9.8737,0.7278,1.4796,0.1005,0.9782,0.7373,-34.05,-0.3,41.55,9.1363,0.838,2.8898,-0.1916,0.1468,0.1836,-83.7,-18.45,1.95,5.85,-0.88,-7.9,-0.0447,0.3382,-0.0011,-32.875,19.25,17.875,67.875,40.375,171.3125,0
1776970346.481,9.8737,0.7278,1.4796,0.1005,0.9782,0.7373,-34.2,-0.9,42.45,9.1363,0.838,2.8898,-0.1916,0.1468,0.1836,-85.8,-18.3,0.6,5.74,-0.75,-7.77,-0.0447,0.3382,-0.0011,-32.875,19.25,17.875,67.9375,40.625,171.3125,0
1776970346.49,9.991,0.2825,1.3886,0.0959,1.0483,0.7314,-33.15,-1.2,42.15,9.2081,0.4142,2.7749,-0.1748,0.1474,0.2033,-85.8,-18.3,0.6,6.19,-1.18,-7.64,-0.0371,0.4374,0.0098,-32.875,19.25,17.875,67.9375,40.625,171.3125,0
1776970346.5,9.6726,-0.4166,1.4054,-0.0061,0.9758,0.7759,-33.15,-1.2,42.15,9.244,0.3448,2.4636,-0.1943,0.121,0.2148,-84.75,-19.35,1.2,6.57,-1.12,-7.57,-0.024,0.4832,-0.0098,-32.875,19.25,17.875,67.9375,40.9375,171.3125,0
1776970346.505,9.5002,-0.5602,1.3264,-0.1428,0.992,0.8087,-33.15,-1.2,42.15,9.1482,0.1987,2.2769,-0.2121,0.0839,0.2284,-84.75,-19.35,1.2,6.57,-1.12,-7.57,-0.024,0.4832,-0.0098,-32.875,19.25,17.875,67.9375,40.9375,171.3125,0
1776970346.51,9.5002,-0.5602,1.3264,-0.1428,0.992,0.8087,-33.15,-1.2,42.15,9.1482,0.1987,2.2769,-0.2121,0.0839,0.2284,-84.75,-19.35,1.2,6.39,-1.09,-7.44,-0.0371,0.4745,-0.0316,-31.75,20.0,17.0625,67.9375,41.1875,171.3125,0
1776970346.515,9.6103,-0.7877,0.972,-0.3285,0.999,0.8489,-33.15,-1.2,42.15,9.0788,0.1389,2.1165,-0.255,0.0986,0.2454,-84.75,-19.35,1.2,6.39,-1.09,-7.44,-0.0371,0.4745,-0.0316,-31.75,20.0,17.0625,67.9375,41.1875,171.3125,0
1776970346.52,9.6103,-0.7877,0.972,-0.3285,0.999,0.8489,-32.55,-3.0,43.8,9.0788,0.1389,2.1165,-0.255,0.0986,0.2454,-85.05,-18.3,1.35,6.28,-1.35,-7.52,-0.0458,0.4385,-0.0513,-31.75,20.0,17.0625,67.9375,41.4375,171.3125,0
1776970346.527,9.821,-0.6249,0.7254,-0.4655,1.0006,0.8836,-32.55,-3.0,43.8,9.2105,0.2921,1.9585,-0.2846,0.065,0.2675,-85.05,-18.3,1.35,6.26,-1.57,-7.51,-0.108,0.5094,-0.0949,-31.75,20.0,17.0625,67.9375,41.6875,171.375,0
1776970346.532,9.73,0.0335,0.929,-0.5159,1.0086,0.8961,-33.0,-2.25,43.05,9.3948,0.5483,1.8292,-0.2846,0.065,0.2675,-84.75,-20.1,0.45,6.26,-1.57,-7.51,-0.108,0.5094,-0.0949,-31.75,20.0,17.0625,67.875,42.0625,171.5,0
1776970346.54,9.9216,0.5363,0.9792,-0.506,1.0171,0.903,-33.3,-3.3,43.8,9.3948,0.5483,1.8292,-0.3131,-0.0077,0.2801,-84.6,-18.3,1.05,6.36,-1.34,-7.47,-0.1778,0.5803,-0.1636,-31.75,20.0,17.0625,67.8125,42.4375,171.75,0
1776970346.55,9.9192,0.6321,1.5131,-0.4178,1.0389,0.919,-33.9,-4.2,43.95,9.4499,0.8164,1.9537,-0.3864,-0.1085,0.2734,-84.6,-18.3,1.05,6.32,-1.35,-7.55,-0.2585,0.6632,-0.2509,-31.75,20.0,17.0625,67.8125,42.4375,171.75,0
1776970346.555,9.9192,0.6321,1.5131,-0.4178,1.0389,0.919,-33.9,-4.2,43.95,9.4834,1.0104,2.1069,-0.4906,-0.2188,0.2795,-84.45,-20.1,1.95,6.32,-1.35,-7.55,-0.2585,0.6632,-0.2509,-31.75,20.0,17.0625,67.8125,42.4375,171.75,0
1776970346.56,9.9359,0.6249,1.7837,-0.3043,1.0635,0.9185,-31.35,-4.65,43.2,9.4858,0.9409,2.2098,-0.4906,-0.2188,0.2795,-84.75,-20.1,1.2,6.51,-0.77,-7.35,-0.3556,0.7189,-0.2902,-32.5,20.0,14.6875,67.75,42.8125,172.0,0
1776970346.565,9.9359,0.6249,1.7837,-0.3043,1.0635,0.9185,-31.35,-4.65,43.2,9.4858,0.9409,2.2098,-0.5971,-0.2992,0.2899,-84.75,-20.1,1.2,6.51,-0.77,-7.35,-0.3556,0.7189,-0.2902,-32.5,20.0,14.6875,67.75,42.8125,172.0,0
1776970346.57,10.1323,-0.0359,1.9728,-0.2385,1.0826,0.9236,-31.35,-4.65,43.2,9.56,0.9098,2.4229,-0.5971,-0.2992,0.2899,-84.75,-20.1,1.2,6.62,-0.7,-7.36,-0.4854,0.697,-0.2847,-32.5,20.0,14.6875,67.75,43.25,172.375,0
1776970346.576,10.1323,-0.0359,1.9728,-0.2385,1.0826,0.9236,-31.35,-4.65,43.2,9.56,0.9098,2.4229,-0.7099,-0.3413,0.2992,-85.05,-19.95,0.6,6.63,-0.81,-7.41,-0.648,0.6938,-0.2302,-32.5,20.0,14.6875,67.8125,43.625,172.8125,0
1776970346.581,10.0437,-0.5674,1.8723,-0.2102,1.1026,0.9297,-31.35,-4.95,45.75,9.5457,0.8667,2.4876,-0.749,-0.3224,0.3158,-85.05,-19.95,0.6,6.63,-0.81,-7.41,-0.648,0.6938,-0.2302,-32.5,20.0,14.6875,67.875,44.0625,173.3125,0
1776970346.59,10.1658,-1.2833,1.4844,-0.3611,1.1194,0.9723,-30.75,-5.55,46.65,9.5864,0.7949,2.4876,-0.7466,-0.2819,0.3405,-85.05,-19.95,0.6,6.69,-0.78,-7.43,-0.7647,0.769,-0.216,-32.5,20.0,14.6875,67.875,44.0625,173.3125,0
1776970346.6,10.4531,-1.4126,1.2833,-0.6307,1.101,1.0064,-31.05,-6.15,46.35,9.5864,0.9026,2.2865,-0.6936,-0.2406,0.372,-84.6,-20.7,-0.3,6.43,-0.25,-7.92,-0.7396,0.8574,-0.2127,-32.5,20.0,14.6875,67.9375,44.5625,173.8125,0
1776970346.605,10.4531,-1.4126,1.2833,-0.6307,1.101,1.0064,-31.05,-6.15,46.35,9.5864,0.9026,2.2865,-0.6936,-0.2406,0.372,-84.6,-20.7,-0.3,6.43,-0.25,-7.92,-0.7396,0.8574,-0.2127,-32.5,20.0,14.6875,56.4375,45.125,174.125,0
1776970346.61,10.307,-1.0534,1.3264,-0.8569,1.0912,1.0629,-30.45,-6.3,46.95,9.5864,1.2378,1.8651,-0.6057,-0.2206,0.401,-84.6,-20.7,-0.3,6.56,0.4,-7.89,-0.5825,1.0134,-0.1473,-33.5625,19.6875,14.25,56.4375,45.125,174.125,0
1776970346.615,10.307,-1.0534,1.3264,-0.8569,1.0912,1.0629,-30.45,-6.3,46.95,9.5864,1.2378,1.8651,-0.6057,-0.2206,0.401,-87.0,-22.05,-0.15,6.56,0.4,-7.89,-0.5825,1.0134,-0.1473,-33.5625,19.6875,14.25,57.0625,45.75,174.3125,0
1776970346.62,10.0102,-0.3855,1.4533,-0.9896,1.0973,1.1242,-30.45,-6.3,46.95,9.4427,1.6807,1.5586,-0.5798,-0.1655,0.4191,-87.0,-22.05,-0.15,6.83,-0.66,-7.33,-0.324,1.1552,-0.0753,-33.5625,19.6875,14.25,57.0625,45.75,174.3125,0
1776970346.626,10.0102,-0.3855,1.4533,-0.9896,1.0973,1.1242,-30.45,-6.3,46.95,9.4427,1.6807,1.5586,-0.5798,-0.1655,0.4191,-85.05,-20.7,1.35,6.47,-0.49,-7.33,-0.2509,1.261,-0.0578,-33.5625,19.6875,14.25,57.5625,46.5,174.375,0
1776970346.631,10.1299,-0.1125,1.2522,-0.9553,1.1146,1.1594,-28.65,-6.3,46.2,9.4954,1.9345,1.4461,-0.5228,-0.2627,0.4375,-85.2,-21.3,-0.45,6.47,-0.49,-7.33,-0.2509,1.261,-0.0578,-33.5625,19.6875,14.25,57.9375,47.25,174.4375,0
1776970346.64,10.137,0.1556,1.1779,-0.7935,1.1378,1.1895,-29.85,-9.15,48.15,9.6175,2.0925,1.1396,-0.4775,-0.3035,0.4708,-85.2,-21.3,-0.45,6.58,-0.35,-7.59,-0.0905,1.4159,-0.0807,-33.5625,19.6875,14.25,57.9375,47.25,174.4375,0
1776970346.65,10.1801,0.6321,0.8739,-0.6235,1.166,1.2209,-26.85,-10.05,49.05,9.5553,2.3918,0.6249,-0.469,-0.307,0.477,-84.45,-22.5,-1.95,6.29,0.32,-8.07,0.1865,1.5937,-0.0698,-33.5625,19.6875,14.25,57.875,48.125,174.25,0
1776970346.655,10.1801,0.6321,0.8739,-0.6235,1.166,1.2209,-26.85,-10.05,49.05,9.5553,2.3918,0.6249,-0.469,-0.307,0.477,-83.7,-21.3,-0.9,6.29,0.32,-8.07,0.1865,1.5937,-0.0698,-33.5625,19.6875,14.25,57.875,48.125,174.25,0
1776970346.66,10.9463,0.7039,-0.0503,-0.5894,1.2103,1.2718,-27.6,-9.3,49.05,9.7324,2.7916,0.0215,-0.4655,-0.3373,0.481,-83.7,-21.3,-0.9,8.04,-2.13,-7.06,0.8552,1.9788,-0.024,-34.6875,18.5625,14.25,57.0625,49.25,173.6875,0
1776970346.665,10.9463,0.7039,-0.0503,-0.5894,1.2103,1.2718,-27.6,-9.3,49.05,9.7324,2.7916,0.0215,-0.4655,-0.3373,0.481,-83.85,-22.2,-1.8,8.04,-2.13,-7.06,0.8552,1.9788,-0.024,-34.6875,18.5625,14.25,57.0625,49.25,173.6875,0
1776970346.67,11.5233,0.5674,-0.1053,-0.5436,1.2478,1.3302,-26.7,-9.9,48.9,10.58,3.699,-0.4046,-0.4442,-0.4373,0.4359,-83.85,-22.2,-1.8,4.62,0.32,-7.55,0.9883,1.6864,-0.0273,-34.6875,18.5625,14.25,56.125,50.1875,173.0,0
1776970346.675,11.5233,0.5674,-0.1053,-0.6699,1.3137,1.4306,-26.7,-9.9,48.9,10.58,3.699,-0.4046,-0.4442,-0.4373,0.4359,-83.85,-22.2,-1.8,4.62,0.32,-7.55,0.7243,1.3057,-0.6403,-34.6875,18.5625,14.25,55.8125,50.9375,172.9375,0
1776970346.681,12.062,0.0024,-0.9385,-0.6699,1.3137,1.4306,-26.7,-9.9,48.9,10.6159,4.3551,-0.8739,-0.4828,-0.5351,0.3813,-83.85,-22.2,-1.8,7.3,-0.71,-6.63,0.7243,1.3057,-0.6403,-34.6875,18.5625,14.25,56.625,51.75,173.4375,0
1776970346.69,12.402,-0.17,-1.7358,-0.8042,1.3558,1.5375,-25.35,-11.55,48.45,11.1067,5.3654,-1.1061,-0.4525,-0.5812,0.2952,-84.45,-21.3,-1.65,5.49,-1.37,-10.26,-0.2542,1.4366,-0.7003,-34.6875,18.5625,14.25,56.625,51.75,173.4375,0
1776970346.7,12.8018,1.1133,-2.0758,-1.0682,1.4144,1.667,-23.85,-12.75,49.5,11.0085,6.1986,-1.573,-0.3997,-0.7237,0.1884,-84.45,-21.3,-1.65,5.42,-0.07,-7.88,-0.2422,1.6352,-0.8585,-34.6875,18.5625,14.25,57.5625,52.75,174.0625,0
1776970346.705,13.2974,2.2075,-2.66,-1.4075,1.473,1.8295,-23.85,-12.75,49.5,11.066,6.62,-1.6257,-0.5529,-0.8695,0.0709,-84.15,-21.9,-3.3,5.42,-0.07,-7.88,-0.2422,1.6352,-0.8585,-34.6875,18.5625,14.25,57.5625,52.75,174.0625,0
1776970346.71,13.2974,2.2075,-2.66,-1.4075,1.473,1.8295,-23.55,-13.8,49.8,11.066,6.62,-1.6257,-0.5529,-0.8695,0.0709,-84.15,-21.9,-3.3,7.3,0.57,-7.48,-0.0982,1.7617,-0.8149,-36.1875,21.5,10.0,58.25,53.75,174.5625,0
1776970346.715,13.5296,2.4852,-3.3255,-1.5617,1.4797,2.0075,-23.55,-13.8,49.8,11.5855,5.8323,-2.0518,-0.7408,-1.1674,-0.0485,-85.05,-23.85,-4.35,7.3,0.57,-7.48,-0.0982,1.7617,-0.8149,-36.1875,21.5,10.0,58.25,53.75,174.5625,0
1776970346.72,13.5296,2.4852,-3.3255,-1.5617,1.4797,2.0075,-23.55,-14.25,50.1,11.5855,5.8323,-2.0518,-0.7408,-1.1674,-0.0485,-85.05,-23.85,-4.35,6.74,0.5,-8.32,0.1909,1.6013,-0.5083,-36.1875,21.5,10.0,58.4375,54.625,174.75,0
1776970346.727,13.3668,2.8323,-3.0837,-1.473,1.5212,2.0733,-23.55,-14.25,50.1,12.2751,4.4341,-2.1548,-0.7877,-1.6289,-0.1644,-85.5,-23.25,-3.0,5.51,1.92,-10.26,0.7559,1.9079,-0.4451,-36.1875,21.5,10.0,58.0,55.75,174.5625,0
1776970346.732,13.3668,2.8323,-3.0837,-1.473,1.5212,2.0733,-23.55,-14.25,50.1,12.2751,4.4341,-2.1548,-0.7877,-1.6289,-0.1644,-85.5,-23.25,-3.0,5.51,1.92,-10.26,0.7559,1.9079,-0.4451,-36.1875,21.5,10.0,57.375,57.1875,174.125,0
1776970346.741,12.9359,2.9497,-2.569,-1.2758,1.5599,2.0587,-23.55,-14.25,50.1,12.3062,3.4357,-1.3048,-0.6989,-1.9777,-0.2659,-86.25,-22.5,-4.95,5.62,1.51,-8.35,1.0614,2.5918,-0.4701,-36.1875,21.5,10.0,57.375,57.1875,174.125,0
1776970346.751,12.3397,2.6647,-1.7502,-1.0664,1.6355,1.9833,-21.6,-16.95,50.4,11.9207,2.8611,-0.8212,-0.469,-2.0342,-0.3909,-85.95,-22.05,-6.0,7.24,0.97,-7.23,0.985,3.8943,-0.0829,-36.1875,21.5,10.0,56.6875,59.3125,173.25,0
1776970346.755,11.3509,2.8587,-0.4812,-0.9489,1.6915,1.9244,-20.1,-19.65,51.0,11.5903,2.4972,-0.8021,-0.336,-2.2335,-0.5401,-86.25,-22.5,-7.95,7.24,0.97,-7.23,0.985,3.8943,-0.0829,-36.1875,21.5,10.0,55.75,62.3125,171.3125,0
1776970346.761,11.3509,2.8587,-0.4812,-0.9489,1.6915,1.9244,-20.1,-19.65,51.0,11.5903,2.4972,-0.8021,-0.336,-2.2335,-0.5401,-86.25,-22.5,-7.95,10.94,1.53,-9.76,0.9861,5.5316,0.6763,-38.375,18.5625,9.1875,55.75,62.3125,171.3125,0
1776970346.765,12.3876,1.4389,2.2314,-0.7975,1.8764,1.8866,-19.65,-19.95,51.0,11.0995,2.466,-0.4549,-0.2129,-2.6212,-0.6952,-86.25,-22.5,-7.95,10.94,1.53,-9.76,0.9861,5.5316,0.6763,-38.375,18.5625,9.1875,54.6875,65.5,168.375,0
1776970346.77,12.3876,1.4389,2.2314,-0.7975,1.8764,1.8866,-19.65,-19.95,51.0,11.0995,2.466,-0.4549,-0.2129,-2.6212,-0.6952,-86.25,-22.5,-7.95,12.84,1.51,-10.41,1.0908,6.0334,1.0297,-38.375,18.5625,9.1875,54.6875,65.5,168.375,0
1776970346.775,12.627,0.4549,3.6152,-0.684,1.9119,1.8271,-17.85,-21.45,50.7,10.2639,2.047,1.5562,-0.0386,-2.6276,-0.8284,-86.25,-20.85,-10.05,12.84,1.51,-10.41,1.3624,5.5458,1.0941,-38.375,18.5625,9.1875,53.4375,68.375,164.5625,0
1776970346.781,12.627,0.4549,3.6152,-0.5484,2.0669,1.7693,-17.85,-21.45,50.7,10.307,1.2258,2.6863,-0.0386,-2.6276,-0.8284,-86.25,-20.85,-10.05,14.77,1.08,-10.41,1.3624,5.5458,1.0941,-38.375,18.5625,9.1875,52.3125,70.9375,159.875,0
1776970346.791,12.1506,-0.9218,5.1356,-0.5484,2.0669,1.7693,-17.85,-21.45,50.7,10.6303,-0.34,3.0909,0.2481,-2.3835,-0.9459,-86.25,-20.85,-10.05,15.33,0.96,-9.83,1.1966,5.2665,1.1148,-38.375,18.5625,9.1875,52.3125,70.9375,159.875,0
1776970346.801,12.2104,-1.4054,6.8235,-0.2763,2.2404,1.7224,-16.65,-21.3,51.6,11.2791,-1.9178,2.5283,0.4892,-1.9172,-1.0722,-86.85,-22.65,-12.45,19.77,0.12,-12.55,1.0527,5.5654,1.1585,-38.375,18.5625,9.1875,51.4375,73.5625,153.625,0
1776970346.805,11.4706,-2.5426,6.4739,-0.2763,2.2404,1.7224,-15.3,-22.95,53.55,11.2791,-1.9178,2.5283,0.7032,-1.6318,-1.1631,-87.0,-20.1,-12.75,19.77,0.12,-12.55,1.0527,5.5654,1.1585,-38.375,18.5625,9.1875,51.4375,73.5625,153.625,0
1776970346.811,10.6757,-3.5745,6.7062,-0.2006,2.0915,1.6721,-15.3,-22.95,53.55,11.2025,-2.7342,2.5187,0.7032,-1.6318,-1.1631,-87.0,-20.1,-12.75,19.47,0.7,-14.86,0.7309,5.3702,1.0112,-39.75,21.1875,-0.5625,50.875,75.8125,145.9375,0
1776970346.815,10.6757,-3.5745,6.7062,-0.2006,2.0915,1.6721,-14.1,-24.3,52.35,11.2025,-2.7342,2.5187,0.7855,-1.4365,-1.2073,-88.2,-18.45,-12.75,19.47,0.7,-14.86,0.7309,5.3702,1.0112,-39.75,21.1875,-0.5625,50.875,75.8125,145.9375,0
1776970346.82,10.0365,-5.1188,6.5242,-0.2779,1.881,1.6134,-14.1,-24.3,52.35,11.9016,-2.9018,1.6496,0.9531,-1.57,-1.2092,-88.2,-18.45,-12.75,15.08,0.03,-14.16,0.7549,4.2684,1.0276,-39.75,21.1875,-0.5625,50.1875,77.375,137.5,0
1776970346.828,10.0365,-5.1188,6.5242,-0.2779,1.881,1.6134,-14.25,-22.65,52.8,11.9016,-2.9018,1.6496,0.9531,-1.57,-1.2092,-87.0,-18.15,-13.5,8.01,1.3,-12.55,0.7189,3.6248,1.0745,-39.75,21.1875,-0.5625,49.5,78.3125,128.375,0
1776970346.833,8.1977,-5.363,6.8833,-0.32,1.5282,1.493,-14.25,-22.65,52.8,11.8489,-2.8299,1.8172,0.586,-1.1386,-1.2113,-85.95,-16.5,-13.8,8.01,1.3,-12.55,0.7189,3.6248,1.0745,-39.75,21.1875,-0.5625,48.625,78.625,118.6875,0
1776970346.841,7.1204,-6.1052,6.596,-0.5993,1.2609,1.3835,-13.8,-24.0,56.25,12.8593,-2.15,1.4437,0.3376,-1.0645,-1.2068,-85.95,-16.5,-13.8,3.04,2.97,-11.74,0.7079,3.171,1.3548,-39.75,21.1875,-0.5625,47.25,78.3125,109.9375,0
1776970346.851,6.5673,-7.264,7.0916,-0.5761,0.8354,1.1874,-13.8,-24.0,56.25,12.8066,-1.5036,1.5179,0.2491,-1.0195,-1.1858,-86.55,-15.9,-13.2,-5.91,0.67,-11.63,1.1334,2.4871,1.7497,-39.75,21.1875,-0.5625,47.25,78.3125,109.9375,0
1776970346.856,6.5673,-7.264,7.0916,-0.5761,0.8354,1.1874,-11.85,-24.75,53.7,12.8066,-1.5036,1.5179,0.2491,-1.0195,-1.1858,-86.55,-15.9,-13.2,-5.91,0.67,-11.63,1.1334,2.4871,1.7497,-39.75,21.1875,-0.5625,46.0,77.875,101.5625,0
1776970346.861,5.2313,-6.5362,7.8219,-0.3251,0.3381,0.8029,-11.85,-24.75,53.7,13.1921,-0.5938,1.3144,0.1855,-0.9324,-1.1527,-86.55,-15.9,-13.2,18.42,-4.22,-14.64,1.1726,2.5864,1.6101,-39.0625,25.5,-10.0,46.0,77.875,101.5625,0
1776970346.866,5.2313,-6.5362,7.8219,-0.3251,0.3381,0.8029,-12.3,-25.8,54.15,13.1921,-0.5938,1.3144,0.1855,-0.9324,-1.1527,-86.7,-14.25,-17.55,18.42,-4.22,-14.64,1.1726,2.5864,1.6101,-39.0625,25.5,-10.0,45.8125,77.1875,94.875,0
1776970346.871,4.3527,-5.2122,6.1363,-0.6995,-0.0557,0.4919,-12.3,-25.8,54.15,12.4235,-0.146,1.6281,0.2046,-1.0219,-1.1002,-86.7,-14.25,-17.55,15.59,-2.32,-19.37,-0.6534,2.606,1.6352,-39.0625,25.5,-10.0,45.8125,77.1875,94.875,0
1776970346.876,4.3527,-5.2122,6.1363,-0.6995,-0.0557,0.4919,-10.8,-24.0,54.45,12.4235,-0.146,1.6281,0.2046,-1.0219,-1.1002,-86.7,-14.25,-17.55,15.59,-2.32,-19.37,-2.3736,1.0079,2.3867,-39.0625,25.5,-10.0,45.875,75.875,93.4375,0
1776970346.882,5.952,-3.699,5.1188,-1.1602,-0.0871,0.2638,-10.8,-24.0,54.45,12.3469,0.4357,2.0087,0.2081,-0.902,-1.1415,-86.7,-14.25,-17.55,9.03,2.11,-18.69,-2.3736,1.0079,2.3867,-39.0625,25.5,-10.0,45.5,74.6875,98.0,0
1776970346.891,7.2496,-2.7485,5.2122,-1.4722,-0.3765,0.0946,-11.25,-25.5,53.7,12.0764,0.7661,1.8172,0.3584,-0.7394,-1.2313,-86.85,-14.4,-17.4,3.44,4.24,-13.9,-1.6635,-1.9122,1.9166,-39.0625,25.5,-10.0,44.1875,73.375,103.75,0
1776970346.901,6.3686,-2.0375,4.6184,-1.3078,-0.7869,-0.2009,-11.25,-25.5,53.7,12.0476,1.0008,2.2051,0.5913,-0.5137,-1.3201,-86.7,-12.3,-17.85,-2.74,4.0,-3.92,-0.4222,-3.2463,1.8773,-39.0625,25.5,-10.0,44.1875,73.375,103.75,0
1776970346.906,6.3686,-2.0375,4.6184,-1.3078,-0.7869,-0.2009,-11.25,-25.5,53.7,11.7962,1.0846,2.0566,0.5913,-0.5137,-1.3201,-86.1,-13.2,-17.4,-2.74,4.0,-3.92,-0.4222,-3.2463,1.8773,-39.0625,25.5,-10.0,42.9375,72.0625,107.75,0
1776970346.911,5.4731,-1.8771,4.3407,-0.7973,-1.0451,-0.4549,-11.25,-25.5,53.7,11.7962,1.0846,2.0566,0.8404,-0.3421,-1.3504,-86.1,-13.2,-17.4,-1.74,3.62,-4.08,-0.2651,-2.7467,1.669,-37.25,27.0,-15.875,42.9375,72.0625,107.75,0
1776970346.916,5.4731,-1.8771,4.3407,-0.7973,-1.0451,-0.4549,-13.8,-25.05,50.85,11.0277,0.9768,2.0806,0.8404,-0.3421,-1.3504,-86.1,-12.9,-17.4,-1.74,3.62,-4.08,-0.2651,-2.7467,1.669,-37.25,27.0,-15.875,41.8125,70.9375,110.1875,0
1776970346.921,5.1284,-2.3822,4.3742,-0.1151,-1.2516,-0.7096,-13.8,-25.05,50.85,11.0277,0.9768,2.0806,1.1357,-0.2212,-1.3915,-86.1,-12.9,-17.4,-0.86,3.39,-4.76,-0.1254,-1.9984,1.4268,-37.25,27.0,-15.875,41.8125,70.9375,110.1875,0
1776970346.929,5.1667,-3.7182,4.3407,0.4538,-1.4773,-1.0539,-13.2,-23.4,51.0,11.1259,0.3998,1.8771,1.4381,-0.2324,-1.4365,-85.8,-10.95,-17.4,1.74,1.77,-6.2,0.012,-1.6352,1.189,-37.25,27.0,-15.875,40.8125,70.0,111.9375,0
1776970346.934,5.1667,-3.7182,4.3407,0.4538,-1.4773,-1.0539,-15.15,-24.3,50.55,11.1259,0.3998,1.8771,1.4381,-0.2324,-1.4365,-87.0,-10.65,-18.3,1.74,1.77,-6.2,0.012,-1.6352,1.189,-37.25,27.0,-15.875,39.875,69.125,113.625,0
1776970346.941,5.0973,-5.0589,4.2832,0.8799,-1.7307,-1.4013,-15.15,-24.3,50.55,10.7308,-0.3017,1.8292,1.7038,-0.235,-1.4653,-87.0,-10.65,-18.3,2.7,0.79,-7.41,0.0982,-1.6984,0.9479,-37.25,27.0,-15.875,38.6875,68.25,115.8125,0
1776970346.951,5.1068,-5.5737,4.5993,0.984,-1.9961,-1.6339,-14.85,-23.25,50.1,10.3908,-0.3232,1.6783,2.0427,-0.4724,-1.4743,-87.0,-10.65,-18.3,3.48,-0.83,-7.46,0.5061,-2.2515,0.7461,-37.25,27.0,-15.875,38.6875,68.25,115.8125,0
1776970346.956,5.0685,-5.4348,4.4556,0.9148,-2.1125,-1.7312,-14.85,-23.25,50.1,10.1299,-0.3543,1.5897,2.2924,-0.4924,-1.4437,-87.45,-9.15,-17.1,3.48,-0.83,-7.46,0.5061,-2.2515,0.7461,-37.25,27.0,-15.875,38.6875,68.25,115.8125,0
1776970346.961,5.0685,-5.4348,4.4556,0.9148,-2.1125,-1.7312,-14.85,-23.25,50.1,10.1299,-0.3543,1.5897,2.2924,-0.4924,-1.4437,-87.45,-9.15,-17.1,4.0,-1.19,-7.21,0.3043,-2.8133,0.5618,-37.875,32.1875,-16.375,37.5625,67.25,118.6875,0
1776970346.966,5.7581,-5.442,4.7381,0.8045,-2.3627,-1.7896,-18.6,-21.15,47.85,10.0916,-0.2586,1.4461,2.465,-0.5065,-1.3851,-87.45,-9.15,-17.1,4.0,-1.19,-7.21,0.3043,-2.8133,0.5618,-37.875,32.1875,-16.375,37.5625,67.25,118.6875,0
1776970346.971,5.7581,-5.442,4.7381,0.8045,-2.3627,-1.7896,-18.6,-21.15,47.85,10.0916,-0.2586,1.4461,2.465,-0.5065,-1.3851,-87.45,-9.15,-17.1,3.67,-0.81,-6.74,-0.1396,-3.279,0.3731,-37.875,32.1875,-16.375,36.6875,66.125,122.1875,0
1776970346.976,6.2034,-5.1691,4.8219,0.7144,-2.5141,-1.8431,-19.95,-19.8,48.0,10.0269,-0.5602,1.6376,2.4725,-0.3323,-1.3113,-86.1,-8.55,-18.45,3.67,-0.81,-6.74,-0.4832,-3.4939,0.1996,-37.875,32.1875,-16.375,36.0,64.9375,125.875,0
1776970346.982,6.2034,-5.1691,4.8219,0.7144,-2.5141,-1.8431,-22.05,-19.05,47.7,10.0269,-0.5602,1.6376,2.4725,-0.3323,-1.3113,-86.1,-8.55,-18.45,3.98,-0.41,-6.32,-0.4832,-3.4939,0.1996,-37.875,32.1875,-16.375,35.5,63.8125,129.375,0
1776970346.991,6.0885,-5.3822,4.3886,0.7003,-2.6281,-1.9497,-21.6,-17.7,45.75,10.3046,-0.9457,1.6472,2.5463,-0.4231,-1.258,-85.5,-9.15,-17.85,4.86,0.04,-6.24,-0.6054,-3.4808,-0.0065,-37.875,32.1875,-16.375,35.5,63.8125,129.375,0
1776970347.001,6.1459,-4.6807,3.9863,0.8074,-2.6779,-2.0656,-23.7,-16.95,45.3,9.5648,-1.4844,1.8292,2.4491,-0.3504,-1.1938,-85.05,-6.6,-18.45,6.94,0.59,-6.3,-0.6076,-3.6434,-0.2062,-37.875,32.1875,-16.375,35.0625,62.5625,132.875,0
1776970347.006,6.2848,-3.7206,3.4046,1.1892,-2.7294,-2.2172,-23.7,-16.95,45.3,9.1818,-1.9489,1.8196,2.2886,-0.3837,-1.137,-85.8,-6.15,-18.45,6.94,0.59,-6.3,-0.6076,-3.6434,-0.2062,-37.875,32.1875,-16.375,35.0625,62.5625,132.875,0
1776970347.011,6.2848,-3.7206,3.4046,1.1892,-2.7294,-2.2172,-23.7,-16.95,45.3,9.1818,-1.9489,1.8196,2.2886,-0.3837,-1.137,-85.8,-6.15,-18.45,7.51,0.51,-5.98,-0.5716,-3.9619,-0.4734,-47.5625,36.875,-11.0625,34.6875,61.1875,136.5,0
1776970347.016,6.4236,-3.5482,3.1867,1.6457,-2.832,-2.3307,-23.7,-16.95,45.3,9.1099,-2.2338,1.336,2.0941,-0.4967,-1.0922,-86.1,-6.15,-17.7,7.51,0.51,-5.98,-0.5716,-3.9619,-0.4734,-47.5625,36.875,-11.0625,34.6875,61.1875,136.5,0
1776970347.021,6.4236,-3.5482,3.1867,1.6457,-2.832,-2.3307,-23.7,-14.4,43.95,9.1099,-2.2338,1.336,2.0941,-0.4967,-1.0922,-86.1,-6.15,-17.7,7.96,0.5,-5.77,-0.5007,-4.1702,-0.8214,-47.5625,36.875,-11.0625,34.3125,59.75,140.0625,0
1776970347.027,7.2903,-4.1061,3.9576,2.0403,-2.9964,-2.4022,-23.7,-14.4,43.95,8.6526,-2.3774,0.7183,1.8711,-0.5865,-1.0443,-85.35,-7.35,-18.75,7.81,0.45,-5.41,-0.4047,-4.3306,-1.213,-47.5625,36.875,-11.0625,34.0625,58.3125,143.625,0
1776970347.032,7.2903,-4.1061,3.9576,2.0403,-2.9964,-2.4022,-26.25,-13.95,41.85,8.0828,-2.2529,0.2658,1.5569,-0.4519,-0.9798,-85.35,-7.35,-18.75,7.81,0.45,-5.41,-0.4047,-4.3306,-1.213,-47.5625,36.875,-11.0625,33.875,56.875,147.0625,0
1776970347.041,8.3582,-4.8985,5.2577,2.1597,-3.2165,-2.4323,-27.0,-12.15,42.15,8.248,-1.8699,0.0383,1.5569,-0.4519,-0.9798,-85.35,-7.35,-18.75,8.22,0.02,-5.73,-0.2727,-4.2411,-1.6352,-47.5625,36.875,-11.0625,33.875,56.875,147.0625,0
1776970347.051,8.8945,-5.0302,5.8323,1.8634,-3.371,-2.4152,-28.05,-10.65,41.1,7.9152,-1.4174,-0.2083,1.1474,-0.3848,-0.9014,-86.1,-5.4,-18.75,8.39,-0.13,-6.3,-0.156,-4.0753,-1.9275,-47.5625,36.875,-11.0625,33.875,55.5,150.3125,0
1776970347.056,9.2105,-5.3965,5.3846,1.3483,-3.4368,-2.3859,-28.05,-10.65,41.1,7.9152,-1.4174,-0.2083,1.1474,-0.3848,-0.9014,-85.2,-5.55,-19.05,8.39,-0.13,-6.3,-0.156,-4.0753,-1.9275,-47.5625,36.875,-11.0625,33.75,54.0625,153.1875,0
1776970347.061,9.2105,-5.3965,5.3846,1.3483,-3.4368,-2.3859,-28.05,-10.65,41.1,7.5705,-0.3615,-0.2131,1.0645,-0.3035,-0.8572,-85.2,-5.55,-19.05,9.94,-1.72,-7.43,0.0076,-4.0099,-2.0628,-53.75,35.25,10.25,33.75,54.0625,153.1875,0
1776970347.066,9.019,-4.798,4.877,1.0981,-3.5125,-2.3776,-28.05,-10.65,41.1,7.5705,-0.3615,-0.2131,1.0645,-0.3035,-0.8572,-84.45,-4.8,-20.55,9.94,-1.72,-7.43,0.0076,-4.0099,-2.0628,-53.75,35.25,10.25,33.6875,52.5625,155.875,0
1776970347.071,9.019,-4.798,4.877,1.0981,-3.5125,-2.3776,-28.95,-6.75,38.4,7.4747,0.2801,-0.1556,1.0621,-0.0602,-0.7837,-84.45,-4.8,-20.55,12.1,-2.12,-8.29,0.0425,-3.939,-2.0791,-53.75,35.25,10.25,33.6875,52.5625,155.875,0
1776970347.076,8.4946,-3.5506,4.3311,1.1511,-3.525,-2.3782,-28.95,-6.75,38.4,7.4747,0.2801,-0.1556,1.0621,-0.0602,-0.7837,-85.5,-4.05,-19.05,12.1,-2.12,-8.29,-0.1047,-4.0088,-2.0606,-53.75,35.25,10.25,33.6875,51.0,158.375,0
1776970347.082,7.9775,-2.217,3.8116,1.4528,-3.4816,-2.3992,-29.7,-8.25,38.7,7.5968,-0.2322,0.0958,1.0821,0.1234,-0.7069,-85.5,-4.05,-19.05,13.67,-1.62,-8.67,-0.1047,-4.0088,-2.0606,-53.75,35.25,10.25,33.75,49.1875,160.6875,0
1776970347.091,8.3749,-1.5826,3.2705,1.9108,-3.4102,-2.4459,-29.85,-5.7,34.95,7.9487,-1.2019,-0.1006,1.1916,0.0695,-0.6395,-85.05,-4.2,-18.45,14.42,-0.32,-8.69,-0.2236,-4.1364,-1.9657,-53.75,35.25,10.25,33.75,49.1875,160.6875,0
1776970347.101,9.5122,-1.8986,3.8906,2.4195,-3.3739,-2.5077,-30.6,-4.95,35.4,7.7333,-1.9034,-0.3112,1.2804,0.0608,-0.5761,-84.75,-4.5,-19.05,14.17,2.02,-7.67,-0.0742,-4.2761,-1.8795,-53.75,35.25,10.25,33.5,47.3125,162.625,0
1776970347.106,9.5122,-1.8986,3.8906,2.4195,-3.3739,-2.5077,-30.6,-4.95,35.4,7.7333,-1.9034,-0.3112,1.2804,0.0608,-0.5761,-84.75,-4.5,-19.05,14.17,2.02,-7.67,-0.0742,-4.2761,-1.8795,-53.75,35.25,10.25,33.5,47.3125,162.625,0
1776970347.111,10.1801,-1.9393,3.7757,2.7041,-3.3332,-2.5317,-29.1,-4.2,33.3,7.8721,-1.1875,-0.9888,1.3595,0.1252,-0.4711,-84.75,-4.5,-19.05,13.88,2.67,-7.24,0.2847,-4.3393,-1.8522,-41.6875,24.375,29.5,32.8125,45.25,164.25,0
1776970347.116,10.1801,-1.9393,3.7757,2.7041,-3.3332,-2.5317,-29.1,-4.2,33.3,7.8721,-1.1875,-0.9888,1.3595,0.1252,-0.4711,-85.05,-3.0,-18.45,13.88,2.67,-7.24,0.2847,-4.3393,-1.8522,-41.6875,24.375,29.5,32.8125,45.25,164.25,0
1776970347.121,10.7763,-2.5474,3.7182,2.7693,-3.281,-2.4813,-29.1,-4.2,33.3,8.0852,0.1053,-1.4437,1.4866,0.2787,-0.3254,-85.05,-3.0,-18.45,13.52,2.81,-6.95,0.6752,-4.2553,-1.921,-41.6875,24.375,29.5,31.625,43.25,165.4375,0
1776970347.127,10.7763,-2.5474,3.7182,2.7693,-3.281,-2.4813,-29.1,-4.2,33.3,8.5042,0.7709,-1.5395,1.4866,0.2787,-0.3254,-85.05,-3.0,-18.45,12.9,1.17,-6.18,0.9839,-4.1561,-2.0813,-41.6875,24.375,29.5,59.75,41.3125,166.4375,0
1776970347.132,10.3669,-2.9209,3.6057,2.8184,-3.2575,-2.4331,-31.5,0.0,30.9,8.5042,0.7709,-1.5395,1.6438,0.3275,-0.207,-85.05,-3.0,-18.45,12.9,1.17,-6.18,0.9839,-4.1561,-2.0813,-41.6875,24.375,29.5,58.0625,39.375,167.3125,0
1776970347.141,9.8928,-3.2058,3.4285,2.7648,-3.2098,-2.3915,-31.65,0.15,31.05,8.6287,0.9529,-1.7166,1.752,0.2174,-0.1196,-84.6,-3.9,-18.0,12.58,0.46,-5.96,1.1192,-4.0939,-2.2406,-41.6875,24.375,29.5,58.0625,39.375,167.3125,0
1776970347.152,9.8426,-3.1603,3.2992,2.6556,-3.157,-2.3206,-33.75,1.05,30.6,8.5449,1.1636,-1.6185,1.676,0.1998,-0.0735,-84.45,-3.6,-17.85,12.24,-0.11,-5.8,1.1323,-3.9335,-2.3049,-41.6875,24.375,29.5,56.3125,37.5625,168.0,0
1776970347.156,9.8426,-3.1603,3.2992,2.6556,-3.157,-2.3206,-33.75,1.05,30.6,8.2648,0.9194,-1.2785,1.676,0.1998,-0.0735,-84.6,-4.65,-17.7,12.24,-0.11,-5.8,1.1323,-3.9335,-2.3049,-41.6875,24.375,29.5,54.6875,35.75,168.625,0
1776970347.161,10.0006,-3.0287,3.0191,2.4112,-3.1157,-2.2473,-32.4,2.7,28.95,8.2648,0.9194,-1.2785,1.477,0.2313,-0.029,-84.6,-4.65,-17.7,11.9,-1.82,-6.19,1.1148,-3.7143,-2.2798,-22.75,19.5,31.375,54.6875,35.75,168.625,0
1776970347.166,10.0006,-3.0287,3.0191,2.4112,-3.1157,-2.2473,-32.4,2.7,28.95,7.8051,0.5483,-0.8906,1.2537,0.2214,0.0474,-84.0,-3.3,-18.3,11.9,-1.82,-6.19,1.1148,-3.7143,-2.2798,-22.75,19.5,31.375,53.125,34.125,169.1875,0
1776970347.171,10.0652,-2.7438,2.6504,2.0755,-3.1054,-2.153,-30.45,2.25,28.8,7.8051,0.5483,-0.8906,1.2537,0.2214,0.0474,-84.0,-3.3,-18.3,11.75,-2.38,-6.67,1.0101,-3.4863,-2.1489,-22.75,19.5,31.375,53.125,34.125,169.1875,0
1776970347.176,10.0652,-2.7438,2.6504,2.0755,-3.1054,-2.153,-30.45,2.25,28.8,7.5465,0.1891,-0.4788,1.0453,0.2814,0.1351,-85.5,-3.6,-17.85,11.75,-2.38,-6.67,0.8814,-3.3499,-1.9919,-22.75,19.5,31.375,51.75,32.5,169.625,0
1776970347.182,10.0461,-2.6288,1.9752,1.622,-3.1075,-2.0709,-30.45,2.25,28.8,7.5465,0.1891,-0.4788,1.0453,0.2814,0.1351,-85.5,-3.6,-17.85,11.82,-3.0,-7.12,0.8814,-3.3499,-1.9919,-22.75,19.5,31.375,50.5,30.875,170.0,0
1776970347.192,10.2687,-1.9034,1.1779,1.1826,-3.0563,-1.9764,-31.65,4.65,25.35,7.5298,0.1125,-0.3112,0.8604,0.2918,0.2228,-84.6,-4.2,-18.0,12.12,-3.66,-7.58,0.7309,-3.2943,-1.7824,-22.75,19.5,31.375,50.5,30.875,170.0,0
1776970347.202,10.0293,-1.2617,0.6584,0.7202,-3.0012,-1.8879,-29.85,5.4,24.0,7.7907,0.5004,-0.7207,0.6979,0.2337,0.316,-84.6,-4.2,-18.0,12.16,-3.57,-7.36,0.4701,-3.1492,-1.4519,-22.75,19.5,31.375,49.4375,29.25,170.375,0
1776970347.206,10.0293,-1.2617,0.6584,0.7202,-3.0012,-1.8879,-29.85,5.4,24.0,8.2504,1.2378,-1.2258,0.5105,0.1943,0.3509,-83.4,-3.9,-18.45,12.16,-3.57,-7.36,0.4701,-3.1492,-1.4519,-22.75,19.5,31.375,48.75,27.9375,170.75,0
1776970347.212,9.7085,-0.8787,0.3184,0.3464,-2.8621,-1.8165,-30.3,5.7,22.95,8.2504,1.2378,-1.2258,0.5105,0.1943,0.3509,-83.4,-3.9,-18.45,12.7,-3.55,-7.95,0.1647,-2.5602,-1.1039,-15.5,19.0625,26.1875,48.75,27.9375,170.75,0
1776970347.216,9.7085,-0.8787,0.3184,0.057,-2.7446,-1.7645,-30.3,5.7,22.95,8.6095,1.7549,-1.7502,0.4042,0.1655,0.2904,-83.4,-3.9,-18.45,12.7,-3.55,-7.95,0.1647,-2.5602,-1.1039,-15.5,19.0625,26.1875,48.1875,26.875,171.0,0
1776970347.222,9.2105,-0.7278,-0.1341,0.057,-2.7446,-1.7645,-31.2,6.3,23.4,8.6095,1.7549,-1.7502,0.4042,0.1655,0.2904,-83.4,-3.9,-18.45,13.34,-3.72,-8.63,0.0731,-2.1631,-0.7527,-15.5,19.0625,26.1875,48.1875,26.875,171.0,0
1776970347.23,9.0692,-0.3998,-0.4788,-0.1583,-2.5548,-1.728,-31.2,6.3,23.4,8.6646,1.992,-2.2673,0.3549,0.2196,0.2345,-84.0,-6.0,-18.3,12.88,-4.07,-8.08,0.0425,-2.2427,-0.288,-15.5,19.0625,26.1875,47.9375,25.625,171.1875,0
1776970347.235,9.0692,-0.3998,-0.4788,-0.1583,-2.5548,-1.728,-31.2,6.3,23.4,8.9519,2.1404,-2.9042,0.2904,0.2974,0.1916,-84.0,-6.0,-18.3,12.88,-4.07,-8.08,0.0425,-2.2427,-0.288,-15.5,19.0625,26.1875,47.9375,24.3125,171.25,0
1776970347.242,9.0549,-0.3807,-0.644,-0.3704,-2.3422,-1.6702,-31.65,8.7,22.5,8.9519,2.1404,-2.9042,0.2904,0.2974,0.1916,-85.05,-3.9,-18.45,12.01,-4.38,-7.32,-0.0218,-2.39,0.1789,-15.5,19.0625,26.1875,48.1875,22.9375,171.3125,0
1776970347.252,8.8921,-0.2562,-0.996,-0.5923,-2.1205,-1.5937,-29.85,8.4,19.05,8.7245,2.3774,-3.2705,0.2212,0.3456,0.117,-85.2,-4.5,-17.55,11.11,-4.62,-6.56,-0.2171,-2.3867,0.5509,-15.5,19.0625,26.1875,48.1875,22.9375,171.3125,0
1776970347.257,9.019,-0.6225,-1.221,-0.8804,-1.8985,-1.5114,-30.15,10.5,17.4,8.7245,2.3774,-3.2705,0.1444,0.4325,0.045,-85.2,-4.5,-17.55,11.11,-4.62,-6.56,-0.2171,-2.3867,0.5509,-15.5,19.0625,26.1875,48.1875,22.9375,171.3125,0
1776970347.262,9.019,-0.6225,-1.221,-0.8804,-1.8985,-1.5114,-30.15,10.5,17.4,8.5042,2.3822,-3.043,0.1444,0.4325,0.045,-85.5,-4.5,-18.3,9.39,-4.81,-5.21,-0.5421,-2.2602,0.8508,-14.1875,19.0,21.25,48.625,21.625,171.5,0
1776970347.267,9.074,-0.5602,0.8475,-0.8855,-1.8405,-1.4594,-31.2,9.75,16.35,8.5042,2.3822,-3.043,0.0245,0.5761,-0.0027,-85.2,-5.55,-18.3,9.39,-4.81,-5.21,-0.5421,-2.2602,0.8508,-14.1875,19.0,21.25,48.625,21.625,171.5,0
1776970347.272,9.074,-0.5602,0.8475,-0.8855,-1.8405,-1.4594,-31.2,9.75,16.35,8.1044,2.2098,-2.9736,0.0245,0.5761,-0.0027,-85.2,-5.55,-16.35,8.7,-4.97,-4.58,-0.9065,-2.1195,1.0941,-14.1875,19.0,21.25,49.25,20.375,171.8125,0
1776970347.277,8.2384,0.6943,-0.7925,-1.433,-1.7424,-1.2716,-30.3,10.65,17.55,8.1044,2.2098,-2.9736,-0.2142,0.7258,-0.0218,-85.2,-5.55,-16.35,8.7,-4.97,-4.58,-1.237,-1.9133,1.3035,-14.1875,19.0,21.25,50.0,19.25,172.3125,0
1776970347.282,8.2384,0.6943,-0.7925,-1.433,-1.7424,-1.2716,-30.3,10.65,17.55,7.9751,2.2817,-2.964,-0.4826,0.8849,-0.0024,-83.7,-4.8,-16.8,7.96,-5.37,-4.19,-1.237,-1.9133,1.3035,-14.1875,19.0,21.25,50.9375,18.1875,172.875,0
1776970347.292,8.2241,0.3208,-1.8028,-1.93,-1.5495,-1.0789,-30.3,10.65,17.55,8.2432,2.7485,-2.7007,-0.7799,0.9582,0.0075,-83.7,-4.8,-16.8,7.7,-6.25,-3.68,-1.513,-1.6952,1.513,-14.1875,19.0,21.25,52.0,17.3125,173.625,0
1776970347.302,8.0541,0.9098,-1.7095,-2.1837,-1.4674,-0.8831,-30.15,10.8,15.9,8.4994,3.6488,-2.4636,-1.1194,0.9569,-0.0272,-84.0,-3.6,-17.1,8.29,-5.87,-2.87,-1.8064,-1.4726,1.7508,-14.1875,19.0,21.25,52.0,17.3125,173.625,0
1776970347.307,8.2528,1.8172,-1.8483,-2.4818,-1.3291,-0.6829,-29.7,12.0,15.3,8.4994,3.6488,-2.4636,-1.1194,0.9569,-0.0272,-84.0,-3.6,-17.1,8.29,-5.87,-2.87,-1.8064,-1.4726,1.7508,-14.1875,19.0,21.25,53.25,16.5625,174.4375,0
1776970347.312,8.2528,1.8172,-1.8483,-2.4818,-1.3291,-0.6829,-29.7,12.0,15.3,9.1842,3.383,-2.0375,-1.4115,1.0032,0.0011,-84.0,-3.6,-17.1,8.58,-5.41,-2.73,-2.0857,-1.153,2.018,-13.375,18.375,17.75,53.25,16.5625,174.4375,0
1776970347.317,7.6519,2.0901,-1.8866,-2.6526,-1.0818,-0.5156,-28.05,13.2,14.4,9.1842,3.383,-2.0375,-1.4115,1.0032,0.0011,-84.0,-3.6,-17.1,8.58,-5.41,-2.73,-2.0857,-1.153,2.018,-13.375,18.375,17.75,54.6875,15.9375,175.3125,0
1776970347.322,7.6519,2.0901,-1.8866,-2.6526,-1.0818,-0.5156,-28.05,13.2,14.4,9.517,3.6224,-2.5522,-1.6438,1.1183,0.0626,-83.1,-3.9,-16.95,8.64,-4.93,-2.41,-2.1915,-0.8934,2.2897,-13.375,18.375,17.75,54.6875,15.9375,175.3125,0
1776970347.331,7.2903,2.6432,-2.4349,-2.8008,-0.8679,-0.3011,-28.65,13.8,14.55,9.5481,3.7014,-2.7461,-1.6065,1.104,0.008,-83.85,-5.4,-15.9,8.19,-4.72,-1.08,-2.1293,-0.6992,2.5624,-13.375,18.375,17.75,56.25,15.4375,176.125,0
1776970347.338,6.9863,2.2218,-3.3088,-2.9473,-0.5777,-0.1085,-28.65,13.8,14.55,9.5481,3.7014,-2.7461,-1.6065,1.104,0.008,-83.1,-5.4,-13.95,8.19,-4.72,-1.08,-1.9755,-0.4494,2.8383,-13.375,18.375,17.75,58.0,15.0625,176.75,0
1776970347.343,6.9145,1.6544,-3.5578,-2.9985,-0.2774,0.0285,-28.65,13.8,14.55,9.56,3.6368,-3.0023,-1.5364,1.185,-0.057,-83.1,-5.4,-13.95,8.37,-4.92,-0.58,-1.9755,-0.4494,2.8383,-13.375,18.375,17.75,59.875,14.9375,177.375,0
1776970347.352,7.2856,1.324,-3.0239,-3.0435,-0.0711,0.1721,-28.65,13.8,14.55,9.596,3.3423,-3.0502,-1.4994,1.1032,-0.1186,-84.0,-5.25,-14.55,8.91,-5.08,-0.26,-1.8926,-0.0644,3.1154,-13.375,18.375,17.75,59.875,14.9375,177.375,0
1776970347.357,7.2856,1.324,-3.0239,-3.0435,-0.0711,0.1721,-26.25,13.95,13.65,9.596,3.3423,-3.0502,-1.4994,1.1032,-0.1186,-84.0,-5.25,-14.55,8.91,-5.08,-0.26,-1.8926,-0.0644,3.1154,-13.375,18.375,17.75,61.875,15.0625,177.9375,0
1776970347.362,7.0485,0.8547,-2.4636,-3.1581,0.145,0.2998,-26.25,13.95,13.65,9.4499,3.1388,-2.7964,-1.5839,1.0936,-0.1383,-84.0,-5.25,-14.25,9.98,-4.59,-0.34,-1.9133,0.3469,3.3772,-15.25,18.25,18.1875,61.875,15.0625,177.9375,0
1776970347.367,7.0485,0.8547,-2.4636,-3.1581,0.145,0.2998,-29.1,14.4,13.95,9.4499,3.1388,-2.7964,-1.5839,1.0936,-0.1383,-84.0,-5.25,-14.25,9.98,-4.59,-0.34,-1.9133,0.3469,3.3772,-15.25,18.25,18.1875,64.0,15.375,178.5,0
1776970347.372,7.3071,0.9146,-1.7789,-3.2559,0.3635,0.4503,-29.1,14.4,13.95,9.3063,3.1436,-2.6408,-1.7112,1.1165,-0.133,-84.0,-3.6,-13.5,10.03,-3.72,-0.35,-2.0202,0.588,3.5997,-15.25,18.25,18.1875,64.0,15.375,178.5,0
1776970347.378,7.3071,0.9146,-1.7789,-3.2559,0.3635,0.4503,-27.6,14.25,14.85,9.1889,2.9113,-2.4493,-1.8636,1.2188,-0.0879,-84.0,-3.6,-13.5,9.83,-2.57,-0.61,-2.1653,0.7898,3.723,-15.25,18.25,18.1875,66.25,15.75,179.125,0
1776970347.383,7.9224,1.2498,-1.6328,-3.3159,0.6006,0.5822,-27.6,14.25,14.85,9.1889,2.9113,-2.4493,-1.8636,1.2188,-0.0879,-84.0,-3.6,-13.5,9.83,-2.57,-0.61,-2.1653,0.7898,3.723,-15.25,18.25,18.1875,68.5,16.3125,179.75,0
1776970347.392,8.3941,1.5155,-1.652,-3.3001,0.7783,0.6891,-28.5,14.4,15.45,8.8322,2.2697,-2.1045,-2.1011,1.6856,-0.0021,-82.65,-4.95,-13.65,9.55,-1.2,-0.99,-2.2602,1.0003,3.7252,-15.25,18.25,18.1875,70.6875,16.9375,-179.5625,0
1776970347.402,8.4156,1.901,-1.6352,-3.1419,1.0072,0.7815,-28.5,14.4,15.45,9.0166,1.8818,-1.7693,-2.1671,1.5412,0.0762,-82.65,-4.95,-13.65,9.37,1.34,-2.07,-2.2067,1.2228,3.6172,-15.25,18.25,18.1875,70.6875,16.9375,-179.5625,0
1776970347.407,8.4156,1.901,-1.6352,-3.1419,1.0072,0.7815,-30.15,15.0,15.9,8.8873,1.9992,-0.8787,-2.2015,1.5066,0.122,-82.65,-4.95,-13.65,9.37,1.34,-2.07,-2.2067,1.2228,3.6172,-15.25,18.25,18.1875,70.6875,16.9375,-179.5625,0
1776970347.412,8.2097,2.0566,-1.3144,-2.7643,1.2489,0.8657,-30.15,15.0,15.9,8.8873,1.9992,-0.8787,-2.2015,1.5066,0.122,-81.75,-6.0,-11.55,10.07,2.09,-2.92,-2.0213,1.5064,3.3958,-15.25,20.0625,17.5,72.75,17.8125,-179.0,0
1776970347.417,8.2097,2.0566,-1.3144,-2.7643,1.2489,0.8657,-28.05,14.7,14.7,8.6072,2.4828,-0.8236,-2.2242,1.6401,0.1948,-81.75,-6.0,-11.55,10.07,2.09,-2.92,-2.0213,1.5064,3.3958,-15.25,20.0625,17.5,72.75,17.8125,-179.0,0
1776970347.422,7.9176,2.2649,-1.9082,-2.2076,1.4589,0.9697,-28.05,14.7,14.7,8.6072,2.4828,-0.8236,-2.2242,1.6401,0.1948,-83.85,-6.9,-11.85,10.95,2.85,-3.91,-1.8108,1.7606,3.0281,-15.25,20.0625,17.5,74.5625,18.8125,-178.5625,0
1776970347.428,7.9176,2.2649,-1.9082,-2.2076,1.4589,0.9697,-27.9,13.8,16.65,8.3342,3.1699,-0.7685,-1.7573,1.3446,0.2649,-84.0,-7.2,-11.25,12.41,5.59,-6.56,-1.5828,1.8195,2.5482,-15.25,20.0625,17.5,76.125,19.875,-178.1875,0
1776970347.433,8.26,5.5402,1.9537,-1.145,1.7872,0.9036,-28.8,14.4,18.6,8.3342,3.1699,-0.7685,-1.7573,1.3446,0.2649,-84.0,-7.2,-11.25,12.41,5.59,-6.56,-1.5828,1.8195,2.5482,-15.25,20.0625,17.5,77.3125,20.8125,-177.9375,0
1776970347.442,11.8082,7.197,-5.2122,-1.8908,2.0478,0.854,-28.8,14.4,18.6,7.9392,3.4884,0.0862,-1.0539,1.2345,0.3997,-83.25,-6.45,-12.3,-2.76,16.37,-11.8,-1.0843,1.6646,1.945,-15.25,20.0625,17.5,78.8125,22.9375,-178.5,0
1776970347.452,13.3764,10.2663,-4.5298,-0.6534,1.2889,0.3387,-28.2,13.8,17.4,7.6423,2.9808,1.5275,-0.3238,0.9132,0.6334,-83.25,-6.0,-9.75,0.64,19.66,-22.45,-0.096,3.6881,2.7936,-15.25,20.0625,17.5,78.8125,22.9375,-178.5,0
1776970347.457,13.3764,10.2663,-4.5298,-0.6534,1.2889,0.3387,-28.2,13.8,17.4,8.2528,2.7629,3.2968,-0.0376,0.591,0.8354,-83.25,-6.0,-9.75,0.64,19.66,-22.45,-0.096,3.6881,2.7936,-13.0,21.1875,12.75,79.75,25.9375,-179.5,0
1776970347.463,13.2591,13.3261,-10.4004,0.2563,0.9705,-0.044,-28.2,13.8,17.4,8.2528,2.7629,3.2968,-0.0376,0.591,0.8354,-82.5,-5.25,-9.75,10.6,17.34,-21.47,0.9479,5.3974,1.9471,-13.0,21.1875,12.75,79.75,25.9375,-179.5,0
1776970347.467,13.2591,13.3261,-10.4004,0.2563,0.9705,-0.044,-27.9,13.5,18.15,9.7851,2.6193,2.5929,0.2622,0.4842,0.995,-82.5,-5.25,-9.75,10.6,17.34,-21.47,0.9479,5.3974,1.9471,-13.0,21.1875,12.75,80.3125,27.375,178.75,0
1776970347.472,15.026,2.7054,-9.3518,3.3505,0.3477,-0.3986,-28.05,13.5,18.15,9.7851,2.6193,2.5929,0.2622,0.4842,0.995,-82.5,-5.25,-9.75,-1.71,-8.9,-9.06,2.3431,2.6256,1.4977,-13.0,21.1875,12.75,80.3125,27.375,178.75,0
1776970347.481,14.8943,-2.897,-8.2552,6.1849,0.1561,-0.6107,-28.05,13.95,19.05,13.1178,2.296,2.3942,0.8996,0.6086,1.3576,-82.35,-9.0,-9.15,-5.49,-16.21,-6.49,3.0107,-0.577,0.6829,-13.0,21.1875,12.75,80.25,27.0625,176.875,0
1776970347.485,14.8943,-2.897,-8.2552,6.1849,0.1561,-0.6107,-28.65,12.75,18.15,17.7123,-0.7638,4.0965,1.5122,0.6488,1.4746,-82.35,-9.0,-9.15,-5.49,-16.21,-6.49,3.0107,-0.577,0.6829,-13.0,21.1875,12.75,79.625,28.0,175.25,0
1776970347.493,13.1298,-3.5769,-0.723,6.1707,0.7618,-0.4996,-27.75,10.95,19.05,18.646,-3.7948,4.7549,1.5122,0.6488,1.4746,-82.35,-9.0,-9.15,8.11,-13.41,-10.38,3.0347,1.7181,-0.4069,-13.0,21.1875,12.75,79.3125,30.25,173.6875,0
1776970347.502,16.0483,-4.5274,1.9058,4.6825,1.408,-0.0735,-27.75,10.95,19.05,17.911,-3.1532,2.3774,1.8,1.1655,1.4823,-81.75,-9.45,-10.05,14.07,-8.08,-8.6,2.702,4.0328,-0.1069,-13.0,21.1875,12.75,79.3125,30.25,173.6875,0
1776970347.507,14.4394,-5.1906,2.0255,2.9841,1.2044,0.2348,-27.75,10.95,19.05,17.911,-3.1532,2.3774,2.1751,1.4522,1.1775,-81.75,-9.45,-10.05,14.07,-8.08,-8.6,2.702,4.0328,-0.1069,-13.0,21.1875,12.75,78.9375,31.0625,172.625,0
1776970347.512,14.4394,-5.1906,2.0255,2.9841,1.2044,0.2348,-27.75,10.95,19.05,15.8448,-1.7358,0.8811,1.7427,1.3952,0.7176,-81.75,-8.4,-7.5,10.17,-13.15,-7.86,1.945,1.393,-0.1767,-11.0,23.25,7.1875,78.9375,31.0625,172.625,0
1776970347.517,10.3573,-2.7126,0.3974,1.6385,1.4043,0.2478,-27.75,10.95,19.05,15.8448,-1.7358,0.8811,1.7427,1.3952,0.7176,-81.75,-8.4,-7.5,10.17,-13.15,-7.86,1.945,1.393,-0.1767,-11.0,23.25,7.1875,78.875,31.25,171.9375,0
1776970347.522,10.3573,-2.7126,0.3974,1.6385,1.4043,0.2478,-28.5,10.95,21.9,13.2184,-0.0551,-0.7302,0.3104,0.6872,0.1439,-81.15,-9.0,-8.1,8.5,-12.65,-7.75,1.1377,0.3687,0.1407,-11.0,23.25,7.1875,78.875,31.25,171.9375,0
1776970347.53,8.6718,1.063,-0.5459,1.4538,1.3691,0.3014,-28.5,10.95,21.9,13.2184,-0.0551,-0.7302,0.3104,0.6872,0.1439,-82.35,-10.05,-7.65,5.82,4.78,-9.13,0.5978,0.9654,0.2258,-11.0,23.25,7.1875,78.9375,31.75,171.4375,0
1776970347.535,8.6718,1.063,-0.5459,1.4538,1.3691,0.3014,-28.8,9.9,22.2,8.4204,-0.7877,-0.0551,-1.465,-0.0879,-0.2499,-82.35,-10.05,-7.65,5.82,4.78,-9.13,0.5978,0.9654,0.2258,-11.0,23.25,7.1875,78.875,31.8125,171.0625,0
1776970347.543,8.1211,3.4788,1.4174,1.506,1.3494,0.2566,-28.8,8.7,21.9,5.2553,-2.6312,1.3886,-2.5303,0.1183,-0.1966,-81.15,-8.1,-9.15,5.31,-1.98,-7.95,0.6349,0.1527,0.1014,-11.0,23.25,7.1875,78.75,32.0625,170.875,0
1776970347.553,8.8202,3.553,0.3903,1.3065,1.2239,0.2835,-29.85,9.45,22.5,4.9512,-4.0725,0.7374,-2.6249,0.7754,0.0165,-79.65,-10.5,-6.6,5.2,-4.31,-8.12,0.3622,0.4167,-0.1233,-11.0,23.25,7.1875,78.75,32.0625,170.875,0
1776970347.557,8.5162,3.7924,-0.5602,0.6265,1.0168,0.1871,-29.85,9.45,22.5,4.9512,-4.0725,0.7374,-2.6249,0.7754,0.0165,-79.65,-10.5,-6.6,5.2,-4.31,-8.12,0.3622,0.4167,-0.1233,-11.0,23.25,7.1875,78.75,32.0625,170.875,0
1776970347.562,8.5162,3.7924,-0.5602,0.6265,1.0168,0.1871,-29.85,9.45,22.5,7.276,-3.8595,-0.6393,-1.4714,0.8423,0.2358,-79.65,-10.5,-6.6,6.27,-2.1,-8.98,-0.0338,0.7756,-0.1582,-11.6875,25.5,1.75,78.75,32.5,170.9375,0
1776970347.567,7.3406,5.126,-1.9106,-0.041,0.9888,0.0722,-29.85,9.45,22.5,7.276,-3.8595,-0.6393,-1.4714,0.8423,0.2358,-79.65,-10.5,-6.6,6.27,-2.1,-8.98,-0.0338,0.7756,-0.1582,-11.6875,25.5,1.75,78.75,32.5,170.9375,0
1776970347.572,7.3406,5.126,-1.9106,-0.041,0.9888,0.0722,-28.8,10.65,22.95,7.3861,-2.15,-0.4286,-0.1306,0.7285,0.3667,-82.35,-9.75,-8.4,5.13,0.35,-7.89,-0.1113,0.3512,-0.1091,-11.6875,25.5,1.75,78.6875,32.6875,171.0,0
1776970347.577,8.1906,4.6088,-1.9393,-0.6291,0.9052,0.1804,-28.8,10.65,22.95,7.3861,-2.15,-0.4286,-0.1306,0.7285,0.3667,-82.35,-9.75,-8.4,5.13,0.35,-7.89,-0.2051,0.3807,-0.0589,-11.6875,25.5,1.75,78.6875,32.9375,171.125,0
1776970347.583,8.1906,4.6088,-1.9393,-0.6291,0.9052,0.1804,-28.95,9.75,23.85,7.3406,0.2634,1.1612,0.895,1.303,0.5044,-82.35,-9.75,-8.4,5.24,-0.23,-7.91,-0.2051,0.3807,-0.0589,-11.6875,25.5,1.75,78.75,33.1875,171.25,0
1776970347.592,8.5329,3.79,-1.3719,-1.2111,0.8314,0.4072,-27.9,8.25,24.15,8.169,3.5698,3.9983,1.1088,0.9174,0.6249,-80.85,-9.75,-5.55,3.95,-0.45,-7.59,-0.24,0.4745,0.0098,-11.6875,25.5,1.75,78.75,33.1875,171.25,0
1776970347.602,8.5521,3.0406,-0.7614,-1.5087,0.8084,0.4964,-29.85,10.65,25.05,9.7803,6.3039,7.1563,0.0767,0.4932,0.5196,-80.1,-10.05,-6.15,5.99,-2.29,-8.67,-0.1625,0.5149,0.084,-11.6875,25.5,1.75,78.875,33.4375,171.25,0
1776970347.607,9.2775,3.474,-0.7374,-1.5404,0.7719,0.4983,-29.85,10.65,25.05,10.6877,6.8354,8.4036,0.0767,0.4932,0.5196,-80.1,-10.05,-6.15,5.99,-2.29,-8.67,-0.1625,0.5149,0.084,-11.6875,25.5,1.75,78.9375,33.8125,171.25,0
1776970347.612,9.2775,3.474,-0.7374,-1.5404,0.7719,0.4983,-30.45,8.55,23.4,10.6877,6.8354,8.4036,-1.5047,0.2292,0.2856,-81.6,-9.75,-4.8,5.87,-1.67,-8.09,-0.0851,0.6512,0.1069,-13.25,25.0625,1.5,78.9375,33.8125,171.25,0
1776970347.617,9.9599,4.1563,-0.431,-1.2257,0.7424,0.5263,-30.45,8.55,23.4,11.3006,5.5713,6.3829,-1.5047,0.2292,0.2856,-81.6,-9.75,-4.8,5.87,-1.67,-8.09,-0.0851,0.6512,0.1069,-13.25,25.0625,1.5,78.9375,33.8125,171.25,0
1776970347.622,9.9599,4.1563,-0.431,-1.2257,0.7424,0.5263,-30.45,8.55,23.4,11.3006,5.5713,6.3829,-2.7411,-0.0149,0.0456,-82.2,-10.65,-5.25,5.75,-1.14,-8.35,-0.0404,0.4603,0.1658,-13.25,25.0625,1.5,79.0625,34.0625,171.1875,0
1776970347.63,10.173,4.4317,-0.3448,-0.7512,0.7693,0.5364,-30.3,8.7,26.1,10.4459,3.3471,4.853,-3.2959,-0.3523,-0.1679,-81.6,-10.5,-5.85,6.38,-1.5,-8.31,-0.0098,0.4396,0.1429,-13.25,25.0625,1.5,79.1875,34.25,171.0625,0
1776970347.635,10.1107,3.9002,-0.1508,-0.4186,0.7733,0.6235,-30.3,8.7,26.1,10.4459,3.3471,4.853,-3.2959,-0.3523,-0.1679,-81.6,-10.5,-5.85,6.38,-1.5,-8.31,-0.0098,0.4396,0.1429,-13.25,25.0625,1.5,79.25,34.5,171.0,0
1776970347.643,9.3206,3.0478,-0.4669,-0.2569,0.7703,0.6566,-29.55,7.2,23.55,9.9096,1.4006,3.3303,-2.9268,-0.279,-0.2864,-81.3,-11.1,-6.45,6.23,-1.23,-8.2,0.0415,0.3992,0.0905,-13.25,25.0625,1.5,79.25,34.625,170.875,0
1776970347.653,9.074,2.4972,-0.8715,-0.1793,0.7514,0.6107,-30.45,9.3,24.45,9.5337,0.0144,2.1835,-2.144,-0.0184,-0.3736,-81.3,-11.1,-6.45,5.95,-1.12,-8.02,0.1102,0.2323,0.0731,-13.25,25.0625,1.5,79.25,34.625,170.875,0
1776970347.657,9.074,2.4972,-0.8715,-0.1793,0.7514,0.6107,-30.45,9.3,24.45,9.3925,0.5962,1.8651,-1.3816,0.2278,-0.4333,-81.3,-11.1,-6.45,5.95,-1.12,-8.02,0.1102,0.2323,0.0731,-13.25,25.0625,1.5,79.25,34.6875,170.75,0
1776970347.663,9.177,2.2482,-1.0367,-0.1628,0.7344,0.5753,-28.5,7.65,24.75,9.3925,0.5962,1.8651,-1.3816,0.2278,-0.4333,-81.3,-11.4,-7.2,5.84,-1.08,-8.0,0.1625,0.1364,0.0589,-12.6875,25.375,1.0625,79.25,34.6875,170.75,0
1776970347.668,9.177,2.2482,-1.0367,-0.1628,0.7344,0.5753,-28.5,7.65,24.75,9.0644,1.2761,2.1332,-0.9174,0.4085,-0.4698,-81.3,-11.4,-7.2,5.84,-1.08,-8.0,0.1625,0.1364,0.0589,-12.6875,25.375,1.0625,79.3125,34.75,170.6875,0
1776970347.673,9.2991,2.3703,-1.1301,-0.2196,0.7083,0.5537,-28.5,7.65,24.75,9.0644,1.2761,2.1332,-0.9174,0.4085,-0.4698,-81.9,-13.2,-6.9,5.67,-1.12,-7.98,0.1593,0.1189,0.0524,-12.6875,25.375,1.0625,79.3125,34.75,170.6875,0
1776970347.679,9.2991,2.3703,-1.1301,-0.2196,0.7083,0.5537,-28.5,7.65,24.75,8.5114,1.9848,2.4397,-0.6107,0.3992,-0.3832,-81.9,-13.2,-6.9,5.35,-0.95,-7.92,0.1582,0.1145,0.0524,-12.6875,25.375,1.0625,79.3125,34.8125,170.5625,0
1776970347.684,9.268,2.2146,-0.7039,-0.3014,0.7051,0.563,-28.5,7.65,24.75,8.5114,1.9848,2.4397,-0.6107,0.3992,-0.3832,-80.25,-11.1,-6.0,5.35,-0.95,-7.92,0.1582,0.1145,0.0524,-12.6875,25.375,1.0625,79.3125,34.875,170.4375,0
1776970347.693,8.8178,1.9321,-0.9577,-0.4146,0.6552,0.5676,-29.85,7.65,26.1,7.9847,1.9704,2.1572,-0.4687,0.3621,-0.2246,-80.4,-10.5,-6.15,5.37,-0.94,-7.89,0.1527,0.1298,0.0491,-12.6875,25.375,1.0625,79.3125,34.875,170.4375,0
1776970347.703,8.8466,2.0638,-0.759,-0.3794,0.6478,0.5582,-28.95,7.8,27.75,7.5609,1.3934,1.7645,-0.4583,0.3688,-0.0043,-81.75,-13.5,-6.0,5.45,-0.93,-7.75,0.1625,0.1374,0.0556,-12.6875,25.375,1.0625,79.3125,34.9375,170.3125,0
1776970347.708,8.8466,2.0638,-0.759,-0.3794,0.6478,0.5582,-28.95,7.8,27.75,8.0278,0.2849,1.4365,-0.4351,0.3333,0.1791,-81.75,-13.5,-6.0,5.45,-0.93,-7.75,0.1625,0.1374,0.0556,-12.6875,25.375,1.0625,79.3125,34.9375,170.3125,0
1776970347.713,9.0453,2.0806,-0.5291,-0.2936,0.6542,0.5537,-28.95,7.5,27.0,8.0278,0.2849,1.4365,-0.4351,0.3333,0.1791,-80.55,-11.4,-6.45,5.69,-1.19,-7.91,0.1527,0.1571,0.0742,-12.6875,26.0625,1.0625,79.3125,35.0,170.1875,0
1776970347.718,9.0453,2.0806,-0.5291,-0.2936,0.6542,0.5537,-28.95,7.5,27.0,9.019,-0.7063,1.6807,-0.3725,0.2057,0.283,-80.55,-11.4,-6.45,5.69,-1.19,-7.91,0.1527,0.1571,0.0742,-12.6875,26.0625,1.0625,79.3125,35.0,170.1875,0
1776970347.723,9.2871,1.7597,-0.4908,-0.1522,0.6547,0.5343,-29.7,7.8,26.7,9.5074,-0.5315,2.2936,-0.3725,0.2057,0.283,-80.55,-11.4,-6.45,5.64,-1.35,-7.99,0.1211,0.1734,0.084,-12.6875,26.0625,1.0625,79.375,35.0625,170.0625,0
1776970347.727,9.2871,1.7597,-0.4908,-0.1522,0.6547,0.5343,-29.7,7.8,26.7,9.5074,-0.5315,2.2936,-0.2974,0.0911,0.287,-80.55,-11.4,-6.45,5.64,-1.35,-7.99,0.0818,0.2269,0.0665,-12.6875,26.0625,1.0625,79.375,35.1875,170.0,0
1776970347.733,9.56,1.6807,0.012,0.0064,0.6392,0.5199,-29.7,7.8,26.7,9.5936,0.0599,2.8898,-0.2361,0.0269,0.2545,-81.9,-12.45,-5.55,5.83,-1.31,-7.91,0.0818,0.2269,0.0665,-12.6875,26.0625,1.0625,79.4375,35.3125,169.9375,0
1776970347.743,9.6917,1.4246,0.1772,0.1092,0.6611,0.4999,-28.95,6.0,27.75,9.3039,1.0391,3.5291,-0.2518,0.0024,0.2097,-81.9,-12.45,-5.55,5.67,-1.35,-7.89,0.0436,0.24,0.0545,-12.6875,26.0625,1.0625,79.4375,35.3125,169.9375,0
1776970347.753,9.8928,1.4365,0.5052,0.1961,0.6611,0.486,-30.15,4.05,27.3,9.0692,1.5395,3.9361,-0.3946,0.0213,0.1783,-79.35,-12.45,-6.6,5.78,-1.26,-7.82,0.0218,0.264,0.0447,-12.6875,26.0625,1.0625,79.4375,35.5,169.875,0
1776970347.758,9.8928,1.4365,0.5052,0.1961,0.6611,0.486,-28.5,4.95,26.4,9.0692,1.5395,3.9361,-0.3946,0.0213,0.1783,-79.35,-12.45,-6.6,5.78,-1.26,-7.82,0.0218,0.264,0.0447,-12.6875,26.0625,1.0625,79.4375,35.5,169.875,0
1776970347.763,9.9479,1.4796,0.6536,0.186,0.6358,0.4738,-28.5,4.95,26.4,9.0668,1.4533,4.0151,-0.5881,0.0826,0.1572,-79.5,-12.6,-6.0,5.76,-1.16,-7.92,0.0076,0.2629,0.0371,-12.0,26.375,0.0,79.5,35.625,169.875,0
1776970347.768,9.9479,1.4796,0.6536,0.186,0.6358,0.4738,-30.3,4.95,28.2,9.0668,1.4533,4.0151,-0.5881,0.0826,0.1572,-79.5,-12.6,-6.0,5.76,-1.16,-7.92,0.0076,0.2629,0.0371,-12.0,26.375,0.0,79.5,35.625,169.875,0
1776970347.773,9.833,1.3982,0.4549,0.1292,0.5969,0.4671,-30.3,4.95,28.2,9.1866,0.9242,3.7613,-0.6395,0.1172,0.1298,-80.4,-13.65,-5.85,5.79,-1.35,-7.79,0.0076,0.2607,0.0316,-12.0,26.375,0.0,79.5,35.75,169.8125,0
1776970347.778,9.833,1.3982,0.4549,0.0448,0.5729,0.4562,-29.7,5.55,29.1,9.1866,0.9242,3.7613,-0.6395,0.1172,0.1298,-80.4,-13.65,-5.85,5.79,-1.35,-7.79,0.0098,0.2454,0.0284,-12.0,26.375,0.0,79.5625,35.875,169.8125,0
1776970347.784,9.6654,1.3264,0.2993,0.0448,0.5729,0.4562,-29.7,5.55,29.1,9.1866,0.34,3.122,-0.5452,0.1308,0.1124,-81.0,-13.05,-7.2,5.74,-1.12,-7.83,0.0098,0.2454,0.0284,-12.0,26.375,0.0,79.5625,35.875,169.8125,0
1776970347.792,9.4068,1.0678,0.0934,-0.0253,0.5407,0.4482,-29.7,5.55,29.1,9.1482,0.0215,2.4157,-0.4469,0.174,0.1045,-80.4,-13.2,-6.9,5.9,-1.18,-7.78,0.0207,0.2465,0.0273,-12.0,26.375,0.0,79.5625,36.0,169.75,0
1776970347.797,9.4739,0.9361,0.3065,-0.1271,0.5113,0.4565,-28.95,4.05,26.7,9.1482,0.0215,2.4157,-0.4469,0.174,0.1045,-80.4,-13.2,-6.9,5.9,-1.18,-7.78,0.0393,0.2356,0.0349,-12.0,26.375,0.0,79.5625,36.125,169.75,0
1776970347.804,9.4739,0.9361,0.3065,-0.1271,0.5113,0.4565,-28.95,4.05,26.7,9.1866,-0.3926,1.6448,-0.4618,0.202,0.1127,-80.25,-13.05,-6.75,5.93,-1.29,-7.84,0.0393,0.2356,0.0349,-12.0,26.375,0.0,79.5625,36.125,169.75,0
1776970347.809,9.6271,0.9385,0.2658,-0.2457,0.4786,0.4533,-29.55,3.9,30.75,9.1866,-0.3926,1.6448,-0.4618,0.202,0.1127,-80.25,-13.05,-6.75,5.93,-1.29,-7.84,0.0665,0.1996,0.0545,-12.0,26.6875,-0.375,79.625,36.25,169.6875,0
1776970347.814,9.6271,0.9385,0.2658,-0.2457,0.4786,0.4533,-29.55,3.9,30.75,9.1482,-0.4238,1.7238,-0.5564,0.2297,0.1167,-80.25,-13.05,-6.75,5.8,-1.29,-7.76,0.0665,0.1996,0.0545,-12.0,26.6875,-0.375,79.625,36.25,169.6875,0
1776970347.819,9.7995,0.8763,0.3615,-0.319,0.4525,0.4514,-30.3,3.45,28.95,9.2033,-0.6081,1.9369,-0.5564,0.2297,0.1167,-80.25,-13.05,-6.75,5.8,-1.29,-7.76,0.0665,0.1996,0.0545,-12.0,26.6875,-0.375,79.625,36.375,169.5625,0
1776970347.824,9.7995,0.8763,0.3615,-0.319,0.4525,0.4514,-30.3,3.45,28.95,9.2033,-0.6081,1.9369,-0.7605,0.2388,0.129,-80.25,-12.6,-6.0,5.86,-1.26,-7.73,0.1036,0.1898,0.0611,-12.0,26.6875,-0.375,79.625,36.375,169.5625,0
1776970347.829,9.8497,1.0511,0.4669,-0.311,0.4064,0.4229,-30.15,4.05,30.9,9.3589,-0.6823,2.2577,-0.7605,0.2388,0.129,-80.25,-12.6,-6.0,5.86,-1.26,-7.73,0.1211,0.1647,0.0633,-12.0,26.6875,-0.375,79.625,36.4375,169.4375,0
1776970347.834,9.8497,1.0511,0.4669,-0.311,0.4064,0.4229,-30.15,4.05,30.9,9.3589,-0.6823,2.2577,-0.8961,0.1186,0.1503,-80.25,-12.6,-6.0,5.74,-1.36,-7.82,0.1211,0.1647,0.0633,-12.0,26.6875,-0.375,79.625,36.4375,169.4375,0
1776970347.843,9.9168,0.984,0.9242,-0.3142,0.373,0.4159,-30.15,4.05,30.9,9.1363,-0.9146,2.4732,-1.0568,0.0077,0.2086,-79.65,-14.4,-5.85,5.89,-1.42,-7.74,0.1342,0.1451,0.0556,-12.0,26.6875,-0.375,79.6875,36.5,169.375,0
1776970347.848,9.9216,0.6967,1.1492,-0.2912,0.3507,0.4112,-30.15,3.0,29.85,9.2368,-1.087,3.0502,-1.0568,0.0077,0.2086,-79.65,-14.4,-5.85,5.89,-1.42,-7.74,0.1418,0.1582,0.0436,-12.0,26.6875,-0.375,79.6875,36.5625,169.25,0
1776970347.854,9.9216,0.6967,1.1492,-0.2912,0.3507,0.4112,-30.15,3.0,29.85,9.2368,-1.087,3.0502,-1.1517,-0.0344,0.222,-80.4,-13.95,-7.35,6.06,-1.35,-7.62,0.1418,0.1582,0.0436,-12.0,26.6875,-0.375,79.6875,36.5625,169.25,0
1776970347.859,10.0102,0.6991,1.1325,-0.3,0.3296,0.4058,-29.1,2.7,28.65,9.2225,-0.9625,3.4165,-1.2233,-0.0775,0.2822,-80.4,-13.95,-7.35,5.81,-1.55,-7.9,0.1156,0.1374,0.0469,-12.5,26.0,0.5,79.6875,36.6875,169.1875,0
1776970347.864,10.0102,0.6991,1.1325,-0.3,0.3296,0.4058,-29.1,2.7,28.65,9.2225,-0.9625,3.4165,-1.2233,-0.0775,0.2822,-80.85,-13.2,-7.35,5.81,-1.55,-7.9,0.1156,0.1374,0.0469,-12.5,26.0,0.5,79.6875,36.6875,169.1875,0
1776970347.869,9.9503,0.3591,1.0127,-0.3525,0.2971,0.3978,-28.65,4.05,29.55,9.1219,-1.0846,3.6655,-1.1956,-0.0959,0.2998,-80.85,-13.2,-7.35,6.01,-1.33,-7.74,0.1145,0.1407,0.0316,-12.5,26.0,0.5,79.6875,36.75,169.0625,0
1776970347.874,9.9503,0.3591,1.0127,-0.3525,0.2971,0.3978,-28.65,4.05,29.55,9.1219,-1.0846,3.6655,-1.1956,-0.0959,0.2998,-80.4,-15.15,-8.1,6.01,-1.33,-7.74,0.1145,0.1407,0.0316,-12.5,26.0,0.5,79.6875,36.75,169.0625,0
1776970347.879,9.9599,0.249,1.2474,-0.445,0.2638,0.3888,-28.8,2.4,29.7,8.9902,-1.0678,3.7685,-1.1908,-0.0642,0.3131,-80.4,-15.15,-8.1,6.01,-1.33,-7.74,0.0927,0.1396,0.0229,-12.5,26.0,0.5,79.6875,36.8125,169.0,0
1776970347.884,9.9599,0.249,1.2474,-0.5758,0.2395,0.4002,-28.8,2.4,29.7,8.9902,-1.0678,3.7685,-1.1908,-0.0642,0.3131,-79.65,-14.4,-6.9,6.15,-1.4,-7.57,0.0927,0.1396,0.0229,-12.5,26.0,0.5,79.6875,36.8125,169.0,0
1776970347.893,9.9838,0.3184,1.4054,-0.5758,0.2395,0.4002,-27.9,2.25,29.55,9.2368,-1.0439,3.6033,-1.2039,-0.0386,0.3336,-79.8,-14.55,-6.9,5.89,-1.51,-7.89,0.0458,0.1156,0.0415,-12.5,26.0,0.5,79.6875,36.875,168.9375,0
1776970347.898,9.8665,0.4621,1.1995,-0.7357,0.2332,0.3973,-27.9,2.25,29.55,9.1147,-0.5674,3.2394,-1.2204,-0.0085,0.3288,-79.8,-14.55,-8.7,5.89,-1.51,-7.89,0.0622,0.1113,0.0142,-12.5,26.0,0.5,79.6875,36.9375,168.9375,0
1776970347.904,9.6223,0.5866,1.0822,-0.7986,0.1958,0.3938,-27.9,2.25,29.55,9.1147,-0.5674,3.2394,-1.2204,-0.0085,0.3288,-79.8,-14.55,-8.7,6.24,-1.41,-7.69,0.0622,0.1113,0.0142,-12.5,26.0,0.5,79.6875,36.9375,168.9375,0
1776970347.909,9.6223,0.5866,1.0822,-0.7986,0.1958,0.3938,-30.45,1.5,30.15,8.983,-0.6129,2.8084,-1.2033,0.0314,0.3206,-79.8,-14.55,-8.7,6.24,-1.41,-7.69,0.0622,0.1113,0.0142,-12.5,26.0,0.0625,79.6875,37.0,168.875,0
1776970347.914,9.6151,0.9361,0.9936,-0.8559,0.1692,0.393,-30.45,1.5,30.15,8.983,-0.6129,2.8084,-1.2033,0.0314,0.3206,-79.8,-15.75,-9.0,6.25,-1.3,-7.64,0.0415,0.1091,0.0044,-12.5,26.0,0.0625,79.6875,37.0,168.875,0
1776970347.919,9.6151,0.9361,0.9936,-0.8559,0.1692,0.393,-29.1,2.4,31.05,9.0477,-0.3041,3.0789,-1.2033,-0.0056,0.373,-79.8,-15.75,-9.0,6.25,-1.3,-7.64,0.0415,0.1091,0.0044,-12.5,26.0,0.0625,79.6875,37.0625,168.875,0
1776970347.924,9.5481,1.221,0.7278,-0.8314,0.1375,0.3912,-29.1,2.4,31.05,9.0477,-0.3041,3.0789,-1.2033,-0.0056,0.373,-79.8,-15.75,-9.0,6.08,-1.39,-7.67,0.0207,0.0796,0.0131,-12.5,26.0,0.0625,79.6875,37.0625,168.875,0
1776970347.928,9.5481,1.221,0.7278,-0.8314,0.1375,0.3912,-29.1,2.4,30.45,8.9974,-0.0527,2.8635,-1.2398,-0.0218,0.4053,-79.8,-15.75,-9.0,6.08,-1.39,-7.67,0.0229,0.048,0.0207,-12.5,26.0,0.0625,79.6875,37.0625,168.875,0
1776970347.934,9.5864,1.5682,0.6632,-0.817,0.1255,0.4104,-29.1,2.4,30.45,9.4403,0.3998,3.0311,-1.2398,-0.0218,0.4053,-80.1,-15.15,-6.15,6.1,-1.42,-7.65,0.0229,0.048,0.0207,-12.5,26.0,0.0625,79.6875,37.0625,168.875,0
1776970347.943,9.5936,2.0087,0.6273,-0.781,0.1151,0.4295,-29.1,0.9,30.45,9.4403,0.3998,3.0311,-1.2446,-0.0266,0.3762,-80.1,-15.15,-6.15,6.07,-1.55,-7.59,0.0196,0.0349,0.0207,-12.5,26.0,0.0625,79.6875,37.125,168.8125,0
1776970347.949,9.5936,2.0087,0.6273,-0.781,0.1151,0.4295,-27.75,1.95,28.2,9.0477,0.9361,2.9784,-1.3352,-0.0917,0.4223,-79.65,-15.9,-8.85,6.07,-1.55,-7.59,0.0218,0.0316,0.0164,-12.5,26.0,0.0625,79.6875,37.125,168.8125,0
1776970347.954,9.6103,2.4708,0.6823,-0.7687,0.1135,0.4695,-27.75,1.95,28.2,9.6558,1.5467,3.5123,-1.4067,-0.1029,0.3842,-80.25,-15.45,-8.7,6.01,-1.55,-7.67,0.0218,0.0316,0.0164,-12.5,26.0,0.0625,79.6875,37.125,168.8125,0
1776970347.959,9.6103,2.4708,0.6823,-0.7687,0.1135,0.4695,-27.75,1.95,28.2,9.6558,1.5467,3.5123,-1.4067,-0.1029,0.3842,-80.25,-15.45,-8.7,6.01,-1.55,-7.67,0.0262,0.0229,0.0098,-11.75,25.5625,-1.0625,79.6875,37.125,168.8125,0
1776970347.964,9.6462,2.8347,0.6081,-0.8047,0.1252,0.5217,-27.75,1.95,28.2,9.3326,2.138,3.6847,-1.5234,-0.1015,0.3467,-79.5,-15.0,-8.25,6.01,-1.47,-7.6,0.0262,0.0229,0.0098,-11.75,25.5625,-1.0625,79.6875,37.125,168.8125,0
1776970347.969,9.6462,2.8347,0.6081,-0.8047,0.1252,0.5217,-28.8,1.95,30.75,9.3326,2.138,3.6847,-1.5234,-0.1015,0.3467,-79.5,-15.0,-8.25,6.01,-1.47,-7.6,0.0316,0.0284,0.0109,-11.75,25.5625,-1.0625,79.6875,37.1875,168.75,0
1776970347.974,9.675,2.7414,0.4621,-0.8231,0.1303,0.583,-30.45,0.3,29.55,9.3781,2.4732,3.4955,-1.6278,-0.1061,0.332,-79.05,-16.2,-7.95,5.96,-1.43,-7.6,0.0316,0.0284,0.0109,-11.75,25.5625,-1.0625,79.6875,37.1875,168.75,0
1776970347.979,9.675,2.7414,0.4621,-0.8231,0.1303,0.583,-30.45,0.3,29.55,9.3781,2.4732,3.4955,-1.6278,-0.1061,0.332,-79.05,-16.2,-7.95,5.96,-1.43,-7.6,0.0458,0.0469,-0.0033,-11.75,25.5625,-1.0625,79.6875,37.1875,168.75,0
1776970347.984,9.7947,2.4157,-0.0503,-0.8908,0.1412,0.6568,-28.2,1.5,29.85,9.7133,2.5929,3.3136,-1.7059,-0.1404,0.2875,-78.75,-16.2,-9.75,6.02,-1.34,-7.58,0.0458,0.0469,-0.0033,-11.75,25.5625,-1.0625,79.6875,37.1875,168.75,0
1776970347.993,9.7803,1.9968,-0.3567,-1.0653,0.1362,0.7354,-28.05,37.2,29.85,9.5265,2.4445,2.9616,-1.7605,-0.1151,0.2705,-78.75,-16.2,-9.75,5.97,-1.43,-7.64,0.0513,0.0425,-0.0044,-11.75,25.5625,-1.0625,79.6875,37.1875,168.6875,0
1776970348.0,9.7803,1.9968,-0.3567,-1.0653,0.1362,0.7354,-28.05,-1.2,29.7,9.5265,2.4445,2.9616,-1.7605,-0.1151,0.2705,-78.75,-16.2,-9.75,5.88,-1.35,-7.68,0.0491,0.0305,-0.0076,-11.75,25.5625,-1.0625,79.6875,37.25,168.6875,0
1776970348.005,9.7755,1.6592,-0.7374,-1.2854,0.1311,0.8316,-28.05,-1.2,29.7,9.2584,2.1332,2.466,-1.8173,-0.1268,0.2753,-79.8,-17.4,-10.5,5.88,-1.35,-7.68,0.0491,0.0305,-0.0076,-11.75,25.5625,-1.0625,79.6875,37.25,168.6875,0
1776970348.009,9.7755,1.6592,-0.7374,-1.2854,0.1311,0.8316,-28.05,-1.2,29.7,9.2584,2.1332,2.466,-1.8173,-0.1268,0.2753,-79.8,-17.4,-10.5,5.87,-1.38,-7.6,0.0447,0.0382,-0.0142,-11.75,25.25,-0.25,79.6875,37.25,168.6875,0
1776970348.014,9.6486,1.7238,-0.5004,-1.4917,0.1162,0.9137,-28.05,-0.15,29.7,9.414,1.8866,2.15,-1.8572,-0.1529,0.2782,-79.8,-17.4,-10.5,5.87,-1.38,-7.6,0.0447,0.0382,-0.0142,-11.75,25.25,-0.25,79.6875,37.25,168.6875,0
1776970348.019,9.6486,1.7238,-0.5004,-1.4917,0.1162,0.9137,-28.05,-0.15,29.7,9.414,1.8866,2.15,-1.8572,-0.1529,0.2782,-79.8,-17.4,-10.5,5.87,-1.38,-7.6,0.0447,0.0382,-0.0142,-11.75,25.25,-0.25,79.6875,37.25,168.625,0
1776970348.024,9.5984,2.0973,-0.8811,-1.5572,0.1143,1.0006,-27.9,-1.05,30.15,9.4427,1.7909,2.2649,-1.9529,-0.186,0.2806,-78.45,-16.8,-10.65,5.86,-1.39,-7.6,0.0382,0.0415,-0.0153,-11.75,25.25,-0.25,79.6875,37.25,168.625,0
1776970348.029,9.5984,2.0973,-0.8811,-1.5572,0.1143,1.0006,-27.9,-1.05,30.15,9.4427,1.7909,2.2649,-1.9529,-0.186,0.2806,-78.45,-16.8,-10.65,5.86,-1.39,-7.6,0.0425,0.0382,-0.0131,-11.75,25.25,-0.25,79.625,37.3125,168.625,0
1776970348.034,9.4643,2.7294,-0.9242,-1.4797,0.1322,1.0821,-28.05,-1.2,28.65,9.5193,1.6209,2.0423,-2.0091,-0.2851,0.2827,-81.0,-16.8,-10.65,5.87,-1.33,-7.7,0.0425,0.0382,-0.0131,-11.75,25.25,-0.25,79.625,37.3125,168.625,0
1776970348.043,9.5648,3.0047,-0.6752,-1.3931,0.1567,1.1511,-26.7,-0.45,29.7,9.3039,1.8723,1.9704,-2.0342,-0.3912,0.316,-81.0,-18.45,-10.5,5.83,-1.44,-7.75,0.0556,0.0273,-0.0175,-11.75,25.25,-0.25,79.625,37.3125,168.625,0
1776970348.048,9.5648,3.0047,-0.6752,-1.3931,0.1567,1.1511,-26.7,-0.45,29.7,9.3039,1.8723,1.9704,-2.0342,-0.3912,0.316,-78.9,-17.1,-12.45,5.83,-1.44,-7.75,0.0513,0.0589,-0.0218,-11.75,25.25,-0.25,79.625,37.375,168.625,0
1776970348.054,9.4116,3.5171,-1.0439,-1.2316,0.1948,1.2063,-26.1,-3.75,30.15,9.3589,2.3032,1.8268,-2.0275,-0.4999,0.3472,-80.4,-18.0,-12.15,6.03,-1.33,-7.57,0.0513,0.0589,-0.0218,-11.75,25.25,-0.25,79.625,37.375,168.625,0
1776970348.059,9.1961,3.4309,-0.893,-1.2089,0.2284,1.2351,-26.1,-3.75,30.15,9.0956,2.7892,1.9034,-2.0275,-0.4999,0.3472,-80.4,-18.0,-12.15,6.03,-1.33,-7.57,0.0513,0.0589,-0.0218,-12.5,25.25,-1.5,79.625,37.375,168.625,0
1776970348.064,9.1961,3.4309,-0.893,-1.2089,0.2284,1.2351,-26.1,-3.75,30.15,9.0956,2.7892,1.9034,-1.9966,-0.5862,0.3834,-79.05,-18.15,-11.55,5.74,-1.5,-7.68,0.0087,0.0916,-0.0175,-12.5,25.25,-1.5,79.625,37.375,168.625,0
1776970348.069,8.9208,2.7198,-0.8859,-1.1191,0.2718,1.2569,-26.1,-3.75,30.15,8.9208,3.0742,1.7573,-1.9966,-0.5862,0.3834,-79.05,-18.15,-11.55,5.74,-1.5,-7.68,0.0087,0.0916,-0.0175,-12.5,25.25,-1.5,79.5625,37.4375,168.625,0
1776970348.074,8.9208,2.7198,-0.8859,-1.1191,0.2718,1.2569,-27.15,-4.05,28.05,8.9208,3.0742,1.7573,-1.9428,-0.6273,0.4042,-79.05,-18.15,-11.55,6.08,-1.16,-7.43,-0.0087,0.1102,-0.0185,-12.5,25.25,-1.5,79.5625,37.4375,168.625,0
1776970348.079,8.588,2.071,-1.087,-1.0445,0.3325,1.2923,-27.15,-4.05,28.05,8.8897,3.1915,1.7023,-1.8666,-0.619,0.3901,-80.1,-18.75,-12.45,6.08,-1.16,-7.43,-0.0185,0.1604,0.0033,-12.5,25.25,-1.5,79.625,37.5625,168.625,0
1776970348.084,8.588,2.071,-1.087,-1.0445,0.3325,1.2923,-26.85,-3.3,28.8,8.8897,3.1915,1.7023,-1.8666,-0.619,0.3901,-80.1,-18.75,-12.45,6.12,-1.17,-7.51,-0.0185,0.1604,0.0033,-12.5,25.25,-1.5,79.625,37.625,168.625,0
1776970348.094,8.8322,1.1468,-1.0391,-1.0954,0.4021,1.3158,-26.4,-5.55,29.55,8.7436,3.2298,1.5012,-1.7992,-0.5862,0.3765,-80.1,-18.75,-12.45,6.32,-0.95,-7.33,-0.0709,0.1451,0.0622,-12.5,25.25,-1.5,79.75,37.6875,168.625,0
1776970348.104,8.8992,0.6201,-1.4222,-1.2151,0.4567,1.364,-28.5,-4.95,28.65,8.8298,3.1891,1.0199,-1.7261,-0.5529,0.3898,-78.9,-19.05,-15.45,5.8,-1.78,-7.59,-0.096,0.1244,0.1178,-12.5,25.25,-1.5,79.75,37.6875,168.625,0
1776970348.109,8.8705,0.1604,-1.245,-1.2604,0.4852,1.4056,-28.5,-4.95,28.65,8.9423,2.8443,0.5555,-1.715,-0.4802,0.4096,-78.9,-19.05,-15.45,5.8,-1.78,-7.59,-0.096,0.1244,0.1178,-12.5,25.25,-1.5,79.875,37.75,168.625,0
1776970348.114,8.8705,0.1604,-1.245,-1.2604,0.4852,1.4056,-26.4,-6.0,28.5,8.9423,2.8443,0.5555,-1.715,-0.4802,0.4096,-78.9,-19.05,-15.45,5.87,-1.64,-7.47,-0.1091,0.1233,0.1702,-11.5,25.25,-1.0625,79.875,37.75,168.625,0
1776970348.118,9.0549,0.8571,-1.3503,-1.2636,0.5561,1.4424,-26.4,-6.0,28.5,9.0525,2.7892,0.3879,-1.6742,-0.4884,0.4367,-78.45,-19.05,-16.65,5.87,-1.64,-7.47,-0.1091,0.1233,0.1702,-11.5,25.25,-1.0625,80.0,37.8125,168.5625,0
1776970348.124,9.0549,0.8571,-1.3503,-1.2636,0.5561,1.4424,-26.4,-6.0,28.5,9.0525,2.7892,0.3879,-1.6742,-0.4884,0.4367,-78.45,-19.05,-16.65,6.02,-1.73,-7.3,-0.0916,0.1669,0.1909,-11.5,25.25,-1.0625,80.0,37.8125,168.5625,0
1776970348.132,9.7899,2.2817,-1.8794,-1.2287,0.5875,1.4602,-27.15,-7.05,28.05,9.6223,2.7414,0.735,-1.6641,-0.47,0.412,-79.65,-19.95,-14.7,5.86,-1.61,-7.66,-0.1494,0.1854,0.2422,-11.5,25.25,-1.0625,80.1875,37.875,168.5,0
1776970348.137,10.3789,4.4269,-2.2913,-1.2105,0.6328,1.5012,-27.15,-7.05,28.05,10.6183,2.8228,0.7135,-1.6641,-0.47,0.412,-78.9,-18.3,-17.4,5.86,-1.61,-7.66,-0.1494,0.1854,0.2422,-11.5,25.25,-1.0625,80.375,37.9375,168.5,0
1776970348.144,10.3789,4.4269,-2.2913,-1.2105,0.6328,1.5012,-26.7,-7.65,26.85,10.6183,2.8228,0.7135,-1.6867,-0.6057,0.3208,-78.9,-18.3,-17.4,5.02,0.8,-9.24,-0.1996,0.1516,0.2825,-11.5,25.25,-1.0625,80.5625,38.0,168.4375,0
1776970348.154,10.8026,6.529,-3.5243,-1.1269,0.7965,1.554,-25.65,-9.0,28.8,11.1259,3.1603,0.3711,-1.5775,-0.8593,0.1106,-79.05,-19.35,-18.3,5.65,0.71,-8.71,-0.1745,0.1876,0.3011,-11.5,25.25,-1.0625,80.5625,38.0,168.4375,0
1776970348.159,11.5089,5.5258,-4.7525,-0.7853,0.9132,1.5103,-25.65,-9.0,28.8,12.7252,3.3998,-0.1748,-1.218,-1.1008,-0.141,-79.65,-19.05,-18.0,5.65,0.71,-8.71,-0.1745,0.1876,0.3011,-11.5,25.25,-1.0625,80.75,38.1875,168.3125,0
1776970348.164,11.5089,5.5258,-4.7525,-0.7853,0.9132,1.5103,-25.2,-8.7,30.45,12.7252,3.3998,-0.1748,-1.218,-1.1008,-0.141,-79.65,-19.05,-18.0,5.71,1.84,-9.46,-0.048,0.4396,0.2705,-11.5,25.5625,-1.0625,80.75,38.1875,168.3125,0
1776970348.169,11.904,3.4692,-4.5322,-0.3179,1.1245,1.4346,-25.2,-8.7,30.45,13.8026,3.5674,0.2705,-0.7605,-1.259,-0.296,-78.75,-18.45,-19.8,5.71,1.84,-9.46,-0.048,0.4396,0.2705,-11.5,25.5625,-1.0625,80.9375,38.5625,168.125,0
1776970348.174,11.904,3.4692,-4.5322,-0.3179,1.1245,1.4346,-25.2,-8.7,30.45,13.8026,3.5674,0.2705,-0.7605,-1.259,-0.296,-78.75,-18.45,-19.8,5.52,1.47,-9.93,0.0447,0.6916,0.2858,-11.5,25.5625,-1.0625,80.9375,38.5625,168.125,0
1776970348.179,10.6135,1.1875,-3.6607,-0.1111,1.5199,1.34,-25.2,-8.7,30.45,14.3939,3.1196,-0.7566,-0.3848,-1.4951,-0.4543,-78.75,-18.45,-19.8,5.52,1.47,-9.93,0.1167,0.937,0.4178,-11.5,25.5625,-1.0625,81.1875,39.0,167.75,0
1776970348.184,10.8242,-1.0822,0.1365,-0.3451,2.043,1.2076,-25.5,-10.95,30.0,14.2096,2.3822,-1.9465,-0.3848,-1.4951,-0.4543,-78.75,-18.45,-19.8,7.14,-0.06,-9.19,0.1167,0.937,0.4178,-11.5,25.5625,-1.0625,81.75,39.5625,167.125,0
1776970348.194,11.8752,-3.1244,0.6105,-0.7855,2.3502,1.0485,-24.3,-11.55,28.05,14.0947,-0.1867,-1.9704,-0.5316,-1.4853,-0.7045,-79.5,-18.15,-20.55,6.87,-6.4,-7.49,0.2007,1.2435,0.9588,-11.5,25.5625,-1.0625,81.75,39.5625,167.125,0
1776970348.204,13.8576,-5.0254,0.917,-1.7054,2.3411,0.7802,-25.5,-12.15,31.05,14.6908,-2.557,-0.7901,-1.1111,-1.2859,-1.0211,-79.5,-18.15,-20.55,7.51,0.09,-9.38,-0.5672,1.4279,1.7802,-11.5,25.5625,-1.0625,82.9375,40.125,166.5,0
1776970348.209,13.8576,-5.0254,0.917,-1.7054,2.3411,0.7802,-25.5,-12.15,31.05,14.6908,-2.557,-0.7901,-1.8061,-1.2452,-1.2622,-80.25,-18.15,-22.65,7.51,0.09,-9.38,-0.5672,1.4279,1.7802,-11.5,25.5625,-1.0625,82.9375,40.125,166.5,0
1776970348.214,14.5974,-6.2465,2.3176,-2.8663,2.2692,0.5231,-25.65,-14.25,30.15,14.8225,-4.2856,0.2538,-2.5317,-1.2375,-1.3997,-80.25,-18.15,-22.65,8.84,5.47,-8.89,-1.0832,1.9166,2.3344,-11.875,26.375,-1.5,84.5625,40.8125,165.8125,0
1776970348.219,14.5974,-6.2465,2.3176,-2.8663,2.2692,0.5231,-25.65,-14.25,30.15,14.8225,-4.2856,0.2538,-2.5317,-1.2375,-1.3997,-80.25,-16.95,-25.35,8.84,5.47,-8.89,-1.0832,1.9166,2.3344,-11.875,26.375,-1.5,84.5625,40.8125,165.8125,0
1776970348.224,14.7243,-7.3047,3.2753,-4.1232,1.9899,0.3765,-24.3,-12.3,30.6,13.6158,-4.9416,1.1708,-3.2905,-1.4234,-1.4176,-80.25,-16.95,-25.35,7.9,4.36,-10.31,-1.4661,2.4555,2.4958,-11.875,26.375,-1.5,86.4375,41.8125,165.125,0
1776970348.232,14.7243,-7.3047,3.2753,-4.1232,1.9899,0.3765,-24.3,-12.3,30.6,13.3309,-3.9385,1.0008,-3.2905,-1.4234,-1.4176,-79.8,-15.0,-25.35,7.8,2.96,-11.0,-1.4464,2.9987,3.543,-11.875,26.375,-1.5,55.5,42.875,163.8125,0
1776970348.237,12.7611,-5.0925,7.039,-5.4414,1.7539,0.2681,-24.3,-12.3,30.6,13.3309,-3.9385,1.0008,-3.622,-1.8106,-1.343,-81.0,-14.55,-26.1,7.8,2.96,-11.0,-1.4464,2.9987,3.543,-11.875,26.375,-1.5,55.6875,43.75,161.875,0
1776970348.244,11.5712,-3.5075,7.367,-6.5211,1.6721,0.1561,-23.4,-13.2,29.7,11.303,-3.7757,0.1245,-3.4152,-1.8042,-1.2457,-81.0,-14.55,-26.1,8.47,1.12,-8.27,-1.0112,2.8492,4.0241,-11.875,26.375,-1.5,55.375,44.3125,159.8125,0
1776970348.254,10.4363,-4.9153,6.0765,-6.7951,1.4789,0.0125,-25.2,-13.95,29.25,10.0317,-3.9887,-1.2522,-2.7832,-1.4623,-1.1847,-79.65,-12.45,-28.5,8.33,-0.28,-10.07,-0.8138,2.5645,4.1408,-11.875,26.375,-1.5,55.375,44.3125,159.8125,0
1776970348.259,10.4363,-4.9153,6.0765,-6.7951,1.4789,0.0125,-24.75,-13.65,26.1,10.0317,-3.9887,-1.2522,-2.7832,-1.4623,-1.1847,-80.4,-13.95,-29.55,8.33,-0.28,-10.07,-0.8138,2.5645,4.1408,-11.875,26.375,-1.5,54.5625,44.5625,157.6875,0
1776970348.264,8.4491,-5.2002,6.4117,-6.8713,1.3486,-0.1929,-24.75,-13.65,26.1,8.8011,-5.5737,-1.9106,-2.3779,-1.092,-1.161,-80.4,-13.95,-29.55,13.36,-1.12,-8.34,-0.4887,1.9395,3.9597,-10.0,27.875,-1.875,54.5625,44.5625,157.6875,0
1776970348.269,8.4491,-5.2002,6.4117,-6.8713,1.3486,-0.1929,-25.35,-13.65,26.1,8.8011,-5.5737,-1.9106,-2.3779,-1.092,-1.161,-80.4,-13.95,-29.55,13.36,-1.12,-8.34,-0.4887,1.9395,3.9597,-10.0,27.875,-1.875,54.5625,44.5625,157.6875,0
1776970348.273,7.276,-4.798,5.5809,-7.0607,1.425,-0.3736,-25.35,-15.75,24.15,7.6471,-5.4253,-2.1189,-2.2633,-0.659,-1.1434,-80.4,-13.95,-29.55,8.56,3.11,-9.81,-1.6788,1.6646,4.3066,-10.0,27.875,-1.875,54.875,44.4375,156.0625,0
1776970348.278,7.276,-4.798,5.5809,-7.0607,1.425,-0.3736,-25.35,-15.75,24.15,7.6471,-5.4253,-2.1189,-2.2633,-0.659,-1.1434,-79.65,-12.0,-30.6,8.56,3.11,-9.81,-2.8689,2.7696,6.1119,-10.0,27.875,-1.875,55.9375,44.4375,154.0625,0
1776970348.285,7.0773,-5.715,5.7365,-7.0591,1.4069,-0.562,-25.35,-15.75,24.15,8.4874,-5.6982,-2.162,-2.59,-0.6811,-0.9686,-79.65,-12.0,-30.6,8.29,4.61,-9.03,-2.8689,2.7696,6.1119,-10.0,27.875,-1.875,56.3125,44.0625,151.25,0
1776970348.294,6.122,-5.4636,4.561,-7.0573,1.315,-0.5865,-25.35,-15.75,24.15,9.0573,-7.501,-2.5307,-3.1746,-1.3843,-0.8471,-79.35,-11.7,-29.85,16.67,-5.44,-10.23,-2.7434,3.0456,7.3609,-10.0,27.875,-1.875,56.3125,44.0625,151.25,0
1776970348.304,6.0837,-5.1715,4.0869,-7.3624,1.4306,-0.5476,-27.0,-12.45,21.15,7.2018,-8.4324,-1.3743,-4.103,-1.0131,-0.7557,-79.8,-10.65,-32.4,7.87,0.85,-5.05,-2.2166,2.294,7.6816,-10.0,27.875,-1.875,55.5625,43.0,148.375,0
1776970348.309,6.0837,-5.1715,4.0869,-7.3624,1.4306,-0.5476,-25.65,-10.8,19.95,9.0142,-8.8274,-0.3855,-4.103,-1.0131,-0.7557,-79.65,-8.55,-32.1,7.87,0.85,-5.05,-2.2166,2.294,7.6816,-10.0,27.875,-1.875,55.5625,43.0,148.375,0
1776970348.314,5.2481,-4.0223,3.9385,-7.4769,1.5319,-0.5873,-25.65,-10.8,19.95,9.0142,-8.8274,-0.3855,-4.3596,-1.408,-0.5127,-79.65,-8.55,-32.1,5.87,5.24,-0.17,-2.9311,1.1705,6.4064,-6.0,31.875,-0.25,55.5625,41.625,146.9375,0
1776970348.319,5.2481,-4.0223,3.9385,-7.4769,1.5319,-0.5873,-25.35,-11.25,18.45,7.8745,-7.7117,-0.4741,-4.3596,-1.408,-0.5127,-77.7,-8.55,-32.55,5.87,5.24,-0.17,-2.9311,1.1705,6.4064,-6.0,31.875,-0.25,55.5625,41.625,146.9375,0
1776970348.324,4.379,-2.818,3.6727,-6.9429,1.7315,-0.7309,-25.35,-11.25,18.45,7.8745,-7.7117,-0.4741,-4.3076,-1.4125,-0.3635,-77.7,-8.55,-32.55,7.95,11.32,1.85,-3.9793,1.4966,5.3778,-6.0,31.875,-0.25,57.4375,40.6875,146.5625,0
1776970348.331,4.3862,-1.6688,3.8188,-6.026,1.9215,-0.8823,-26.4,-10.05,16.65,7.8506,-6.4332,-2.1787,-4.3066,-1.0171,-0.2915,-77.4,-6.9,-34.8,9.94,13.56,-0.9,-4.9775,2.2602,4.7233,-6.0,31.875,-0.25,61.1875,40.3125,146.875,0
1776970348.336,4.3862,-1.6688,3.8188,-6.026,1.9215,-0.8823,-26.4,-10.05,16.65,7.8506,-6.4332,-2.1787,-4.3066,-1.0171,-0.2915,-77.4,-6.9,-34.8,9.94,13.56,-0.9,-4.9775,2.2602,4.7233,-6.0,31.875,-0.25,65.625,40.25,147.3125,0
1776970348.344,5.1595,-0.4262,3.8858,-5.3306,2.1141,-1.0208,-26.4,-10.05,16.65,7.1515,-5.7245,-2.2098,-4.4707,-0.5721,-0.1945,-77.4,-6.9,-34.8,9.1,8.08,-5.0,-5.2338,2.6834,4.4713,-6.0,31.875,-0.25,69.4375,40.3125,147.75,0
1776970348.354,6.292,0.6081,3.1388,-4.5077,2.2218,-1.1879,-28.2,-7.5,14.55,7.6016,-4.5586,-1.0127,-4.3055,-0.0658,-0.1426,-77.25,-4.5,-34.5,7.57,4.9,-4.73,-4.2291,2.2504,3.3521,-6.0,31.875,-0.25,69.4375,40.3125,147.75,0
1776970348.359,6.8761,0.0694,2.8132,-3.4891,2.3603,-1.3265,-30.15,-7.5,15.9,7.9009,-2.7581,1.6376,-3.8994,0.2699,-0.1018,-77.25,-4.5,-34.5,7.57,4.9,-4.73,-4.2291,2.2504,3.3521,-6.0,31.875,-0.25,69.4375,40.3125,147.75,0
1776970348.364,6.8761,0.0694,2.8132,-3.4891,2.3603,-1.3265,-30.15,-7.5,15.9,7.9009,-2.7581,1.6376,-3.8994,0.2699,-0.1018,-77.25,-4.5,-34.5,6.14,2.64,-4.76,-3.8386,2.0486,2.2417,0.5,36.6875,7.5,73.4375,40.625,148.5,0
1776970348.369,7.7405,-1.0247,2.7174,-2.6316,2.3595,-1.4298,-30.15,-6.75,16.65,8.4084,-1.2163,3.4093,-3.6052,0.4226,-0.1543,-77.7,-3.9,-33.6,6.14,2.64,-4.76,-3.8386,2.0486,2.2417,0.5,36.6875,7.5,73.4375,40.625,148.5,0
1776970348.374,7.7405,-1.0247,2.7174,-2.6316,2.3595,-1.4298,-30.15,-6.75,16.65,8.4084,-1.2163,3.4093,-3.6052,0.4226,-0.1543,-77.7,-3.9,-33.6,5.72,-0.11,-5.83,-4.2095,2.0344,1.3614,0.5,36.6875,7.5,78.25,41.1875,149.75,0
1776970348.379,8.4372,-2.3032,2.8683,-2.1189,2.2556,-1.4946,-30.6,-5.4,17.55,8.327,-0.5914,4.8147,-3.6116,0.6022,-0.2401,-78.45,-2.25,-33.3,5.72,-0.11,-5.83,-4.5564,2.1653,0.6469,0.5,36.6875,7.5,84.0,42.0625,151.5,0
1776970348.385,8.4372,-2.3032,2.8683,-2.1189,2.2556,-1.4946,-30.6,-5.4,17.55,8.327,-0.5914,4.8147,-3.6116,0.6022,-0.2401,-78.45,-2.25,-33.3,6.09,-0.94,-6.72,-4.5564,2.1653,0.6469,0.5,36.6875,7.5,90.0625,43.0,153.5,0
1776970348.394,8.5832,-3.9911,2.5594,-1.8594,2.0915,-1.4887,-32.25,-6.3,17.4,8.7101,-0.0982,5.0949,-3.6729,0.5654,-0.2598,-77.55,-1.35,-33.0,5.79,-1.81,-7.75,-4.6884,2.0769,0.1974,0.5,36.6875,7.5,90.0625,43.0,153.5,0
1776970348.404,8.6933,-5.4037,2.3176,-1.8373,1.9857,-1.436,-32.25,-6.3,17.4,8.6933,-0.0814,4.8866,-3.6212,0.4511,-0.2843,-80.25,-1.35,-33.45,4.78,-5.07,-8.12,-4.456,1.8893,0.0764,0.5,36.6875,7.5,95.875,43.9375,155.5,0
1776970348.409,8.916,-6.8019,2.2218,-2.0374,1.9284,-1.3675,-34.05,-4.5,18.45,9.3206,-0.3065,4.3024,-3.4664,0.4309,-0.3301,-78.75,-0.15,-33.45,4.78,-5.07,-8.12,-4.456,1.8893,0.0764,0.5,36.6875,7.5,100.9375,44.875,157.125,0
1776970348.414,8.916,-6.8019,2.2218,-2.0374,1.9284,-1.3675,-34.05,-4.5,18.45,9.3206,-0.3065,4.3024,-3.4664,0.4309,-0.3301,-78.75,-0.15,-33.45,4.5,-7.22,-7.89,-3.8397,1.8904,0.2291,-0.6875,42.25,19.375,100.9375,44.875,157.125,0
1776970348.419,9.3087,-7.9057,2.2098,-2.4954,1.6995,-1.3097,-33.15,-4.2,18.6,10.0509,-0.7542,3.0311,-3.1722,0.4509,-0.3565,-79.05,-0.45,-33.0,4.5,-7.22,-7.89,-3.8397,1.8904,0.2291,-0.6875,42.25,19.375,100.9375,44.875,157.125,0
1776970348.424,9.3087,-7.9057,2.2098,-2.4954,1.6995,-1.3097,-33.15,-4.2,18.6,10.2137,-1.6305,1.4246,-3.1722,0.4509,-0.3565,-79.05,-0.45,-33.0,4.4,-8.51,-7.82,-3.2158,1.8021,0.5018,-0.6875,42.25,19.375,105.0625,45.6875,158.25,0
1776970348.43,8.9759,-8.4491,2.0231,-3.0864,1.5783,-1.3275,-34.8,-2.55,18.75,10.2137,-1.6305,1.4246,-2.8701,0.502,-0.3357,-79.05,-0.45,-33.0,4.33,-8.97,-7.71,-3.0183,1.6232,0.9163,-0.6875,42.25,19.375,108.625,46.3125,159.125,0
1776970348.435,8.9759,-8.4491,2.0231,-3.6417,1.4035,-1.3179,-34.8,-2.55,18.75,9.9383,-1.8986,0.3184,-2.7384,0.5929,-0.1961,-79.05,-0.45,-33.0,4.33,-8.97,-7.71,-3.0183,1.6232,0.9163,-0.6875,42.25,19.375,111.875,46.8125,159.75,0
1776970348.444,8.4683,-7.9775,1.5538,-3.6417,1.4035,-1.3179,-35.55,-1.5,18.75,10.0724,-1.3527,-0.3376,-2.7073,0.4882,-0.0277,-78.9,0.75,-32.85,3.99,-7.92,-7.68,-3.0652,1.4563,1.3657,-0.6875,42.25,19.375,111.875,46.8125,159.75,0
1776970348.454,8.746,-6.7133,1.5802,-4.1896,1.2377,-1.2838,-35.55,-1.5,18.75,9.7588,-0.3783,-0.1939,-2.6548,0.2241,0.122,-78.9,0.75,-32.85,4.52,-6.53,-7.75,-3.2845,1.3624,1.8053,-0.6875,42.25,19.375,115.0625,47.1875,160.3125,0
1776970348.459,9.2416,-4.9632,0.8356,-4.5741,1.1319,-1.1967,-35.55,-1.5,18.75,9.7588,-0.3783,-0.1939,-2.6548,0.2241,0.122,-77.55,1.35,-33.45,4.52,-6.53,-7.75,-3.2845,1.3624,1.8053,-0.6875,42.25,19.375,117.6875,47.3125,160.4375,0
1776970348.464,9.2416,-4.9632,0.8356,-4.6676,1.0413,-1.0629,-35.55,-1.5,18.75,10.07,0.6512,-0.4549,-2.5863,0.0533,0.2228,-77.55,1.35,-33.45,4.44,-5.65,-8.05,-3.1994,1.1312,2.4391,-9.375,46.5625,33.0625,117.6875,47.3125,160.4375,0
1776970348.469,9.7971,-3.2848,0.1149,-4.6676,1.0413,-1.0629,-36.45,0.15,20.1,10.07,0.6512,-0.4549,-2.5863,0.0533,0.2228,-79.35,1.95,-34.05,4.44,-5.65,-8.05,-3.1994,1.1312,2.4391,-9.375,46.5625,33.0625,117.6875,47.3125,160.4375,0
1776970348.474,10.3166,-1.8459,-0.6704,-4.3996,0.9907,-0.9102,-36.45,0.15,20.1,9.9623,1.47,-0.2682,-2.4197,-0.0893,0.2286,-79.35,1.95,-34.05,4.41,-5.26,-8.55,-3.1994,1.1312,2.4391,-9.375,46.5625,33.0625,120.375,47.5,160.625,0
1776970348.479,10.3166,-1.8459,-0.6704,-4.3996,0.9907,-0.9102,-36.6,0.3,18.45,9.9623,1.47,-0.2682,-2.4197,-0.0893,0.2286,-78.9,2.25,-32.55,4.41,-5.26,-8.55,-3.1045,1.0821,2.5045,-9.375,46.5625,33.0625,122.8125,47.5625,160.6875,0
1776970348.485,10.6973,-0.8595,-1.3001,-3.8435,0.9998,-0.7488,-35.85,3.3,18.75,9.7348,1.7406,-0.1772,-2.1272,-0.0786,0.1745,-78.9,2.25,-32.55,4.18,-4.6,-8.75,-3.1045,1.0821,2.5045,-9.375,46.5625,33.0625,125.375,47.6875,160.8125,0
1776970348.494,10.7548,-0.5555,-1.7693,-3.1557,0.951,-0.6491,-38.1,3.3,18.75,9.809,1.0511,-0.8475,-1.7211,-0.0322,0.1053,-79.5,4.5,-31.65,3.97,-3.71,-9.04,-3.0816,1.0341,2.3257,-9.375,46.5625,33.0625,125.375,47.6875,160.8125,0
1776970348.504,10.2759,-0.5411,-2.3415,-2.42,0.9206,-0.6422,-38.1,3.3,18.75,9.7827,0.3903,-1.6448,-1.356,-0.0762,-0.0035,-78.45,3.9,-32.1,3.76,-3.25,-9.33,-2.7827,1.0603,1.6373,-9.375,46.5625,33.0625,127.9375,47.9375,161.25,0
1776970348.509,10.2759,-0.5411,-2.3415,-2.42,0.9206,-0.6422,-38.1,3.3,18.75,9.7827,0.3903,-1.6448,-1.356,-0.0762,-0.0035,-79.65,3.0,-32.85,3.76,-3.25,-9.33,-2.7827,1.0603,1.6373,-9.375,46.5625,33.0625,127.9375,47.9375,161.25,0
1776970348.515,10.0437,-1.4676,-2.3774,-1.6784,0.9092,-0.7072,-38.1,3.3,18.75,10.0269,-0.498,-2.4612,-1.1215,-0.0386,-0.0626,-79.65,3.0,-32.85,3.3,-3.59,-9.63,-2.4849,1.0276,1.2839,-13.5625,46.1875,43.75,130.375,48.25,161.625,0
1776970348.519,10.0437,-1.4676,-2.3774,-1.6784,0.9092,-0.7072,-37.65,3.3,19.95,10.0269,-0.498,-2.4612,-1.1215,-0.0386,-0.0626,-79.65,3.0,-32.85,3.3,-3.59,-9.63,-2.4849,1.0276,1.2839,-13.5625,46.1875,43.75,130.375,48.25,161.625,0
1776970348.524,10.2568,-2.9449,-2.1835,-1.1884,0.8362,-0.7895,-37.2,4.2,18.6,10.5105,-1.2905,-3.0813,-1.0989,-0.0027,-0.0586,-79.65,3.0,-32.85,2.97,-4.19,-9.61,-2.2362,0.9643,0.9861,-13.5625,46.1875,43.75,132.625,48.625,162.125,0
1776970348.531,10.2568,-2.9449,-2.1835,-1.1884,0.8362,-0.7895,-37.2,4.2,18.6,10.5991,-1.4653,-3.1053,-1.2033,-0.0999,-0.0592,-79.8,3.6,-31.65,2.64,-4.79,-9.62,-2.0737,0.9152,0.7658,-13.5625,46.1875,43.75,134.8125,48.9375,162.625,0
1776970348.536,10.0341,-4.3742,-2.2434,-0.9316,0.773,-0.9156,-38.1,5.55,20.25,10.5991,-1.4653,-3.1053,-1.2033,-0.0999,-0.0592,-79.8,3.6,-31.65,2.64,-4.79,-9.62,-2.0737,0.9152,0.7658,-13.5625,46.1875,43.75,136.9375,49.3125,163.1875,0
1776970348.545,10.1442,-5.0829,-1.7933,-0.9995,0.6776,-0.9843,-37.5,5.7,19.65,10.5632,-1.8866,-2.9928,-1.4461,-0.1575,-0.0226,-79.8,3.6,-31.65,2.99,-5.61,-10.2,-1.9962,0.8879,0.6283,-13.5625,46.1875,43.75,139.0,49.6875,163.75,0
1776970348.555,10.2328,-5.3103,-1.6592,-1.2646,0.5444,-1.0126,-38.85,5.25,19.5,10.6111,-1.4772,-2.9736,-1.7706,-0.2062,0.0293,-79.35,3.0,-31.05,3.08,-6.04,-10.57,-1.9504,0.7919,0.5978,-13.5625,46.1875,43.75,139.0,49.6875,163.75,0
1776970348.56,10.2328,-5.3103,-1.6592,-1.2646,0.5444,-1.0126,-38.85,5.25,19.5,10.5848,-0.8906,-2.9329,-2.2457,-0.2571,0.0322,-80.55,4.05,-31.95,3.08,-6.04,-10.57,-1.9504,0.7919,0.5978,-13.5625,46.1875,43.75,140.9375,49.875,164.3125,0
1776970348.565,10.5225,-5.1451,-1.4509,-1.5884,0.3656,-1.0184,-38.85,5.25,19.5,10.5848,-0.8906,-2.9329,-2.2457,-0.2571,0.0322,-80.55,4.05,-31.95,3.34,-6.61,-10.79,-1.9384,0.613,0.661,-19.75,43.375,53.75,140.9375,49.875,164.3125,0
1776970348.57,10.5225,-5.1451,-1.4509,-1.5884,0.3656,-1.0184,-38.85,5.25,19.5,10.4651,-0.68,-2.7485,-2.7483,-0.2888,0.0125,-79.65,5.4,-31.35,3.34,-6.61,-10.79,-1.9384,0.613,0.661,-19.75,43.375,53.75,140.9375,49.875,164.3125,0
1776970348.575,10.8194,-4.5226,-1.482,-1.8786,0.1863,-1.0147,-37.5,7.2,21.15,10.4651,-0.68,-2.7485,-2.7483,-0.2888,0.0125,-79.65,5.4,-31.35,2.4,-6.66,-10.98,-1.958,0.3829,0.7734,-19.75,43.375,53.75,142.8125,50.0,164.8125,0
1776970348.58,10.8194,-4.5226,-1.482,-1.8786,0.1863,-1.0147,-37.5,7.2,21.15,10.2496,-1.2737,-2.1859,-3.0182,-0.3381,0.0424,-80.1,6.15,-30.6,2.4,-6.66,-10.98,-1.9559,0.2618,0.9163,-19.75,43.375,53.75,144.5625,50.0,165.25,0
1776970348.586,10.6255,-3.79,-1.5083,-2.1557,0.0642,-0.9966,-38.85,7.5,19.95,10.2496,-1.2737,-2.1859,-3.0182,-0.3381,0.0424,-80.1,6.15,-30.6,2.03,-6.38,-10.91,-1.9559,0.2618,0.9163,-19.75,43.375,53.75,146.0625,49.9375,165.5625,0
1776970348.595,10.4172,-3.3255,-1.585,-2.3457,-0.0552,-0.996,-39.0,8.7,18.6,10.2448,-1.7885,-1.7071,-2.9231,-0.4362,0.0621,-79.8,4.8,-31.2,1.87,-6.22,-10.89,-1.873,0.1614,1.1126,-19.75,43.375,53.75,146.0625,49.9375,165.5625,0
1776970348.605,10.3717,-3.0933,-1.482,-2.4179,-0.1668,-1.0349,-39.3,9.9,21.45,10.4267,-1.7454,-1.5179,-2.6529,-0.5915,0.0432,-78.45,6.9,-31.35,1.79,-6.18,-10.8,-1.7541,0.0033,1.3395,-19.75,43.375,53.75,147.3125,49.75,165.6875,0
1776970348.61,10.343,-3.0358,-1.3455,-2.4419,-0.2974,-1.109,-39.3,9.9,21.45,10.2687,-1.5347,-1.3336,-2.5407,-0.6603,0.0011,-78.45,6.9,-31.35,1.79,-6.18,-10.8,-1.7541,0.0033,1.3395,-19.75,43.375,53.75,148.4375,49.5,165.6875,0
1776970348.615,10.343,-3.0358,-1.3455,-2.4419,-0.2974,-1.109,-39.3,9.9,21.45,10.2687,-1.5347,-1.3336,-2.5407,-0.6603,0.0011,-78.45,6.9,-31.35,1.64,-5.82,-10.85,-1.7519,-0.0676,1.5577,-25.5,38.5,59.0,148.4375,49.5,165.6875,0
1776970348.619,10.386,-2.9377,-1.0104,-2.5103,-0.4306,-1.2004,-39.3,9.9,21.45,9.9934,-1.3288,-1.0989,-2.5831,-0.6059,-0.0203,-78.3,8.7,-31.35,1.64,-5.82,-10.85,-1.7519,-0.0676,1.5577,-25.5,38.5,59.0,149.5,49.1875,165.625,0
1776970348.625,10.386,-2.9377,-1.0104,-2.5103,-0.4306,-1.2004,-38.25,9.9,20.1,9.9934,-1.3288,-1.0989,-2.5831,-0.6059,-0.0203,-78.3,8.7,-30.45,1.66,-5.41,-10.88,-1.8075,-0.1102,1.7682,-25.5,38.5,59.0,149.5,49.1875,165.625,0
1776970348.634,10.2879,-2.7294,-0.7326,-2.5767,-0.5438,-1.2971,-39.75,10.2,19.05,10.2017,-1.1085,-0.7973,-2.7003,-0.6081,-0.0448,-78.3,8.7,-30.45,1.44,-4.95,-10.73,-1.8795,-0.1713,1.9744,-25.5,38.5,59.0,150.5,48.8125,165.4375,0
1776970348.643,10.2208,-2.3487,-0.3926,-2.6724,-0.6523,-1.3971,-37.95,12.45,19.35,10.1897,-0.8595,-0.2945,-2.7936,-0.72,-0.065,-79.65,6.9,-30.6,1.15,-4.23,-10.28,-1.9711,-0.1985,2.1588,-25.5,38.5,59.0,151.5,48.4375,165.25,0
1776970348.648,10.2208,-2.3487,-0.3926,-2.6724,-0.6523,-1.3971,-37.95,12.45,19.35,10.1825,-0.5291,0.2035,-2.8789,-0.7554,-0.0991,-79.65,6.9,-30.6,1.15,-4.23,-10.28,-1.9711,-0.1985,2.1588,-25.5,38.5,59.0,152.5625,48.0,165.0,0
1776970348.655,10.058,-1.7837,0.1269,-2.8253,-0.7496,-1.4975,-38.85,12.75,18.15,10.0413,-0.1748,0.6632,-2.8789,-0.7554,-0.0991,-79.05,7.95,-30.9,1.31,-3.89,-10.22,-2.054,-0.1854,2.3246,-25.5,38.5,59.0,152.5625,48.0,165.0,0
1776970348.66,9.9982,-1.561,0.0431,-2.8837,-0.9228,-1.5948,-38.85,12.75,18.15,10.0413,-0.1748,0.6632,-2.942,-0.7781,-0.1508,-79.05,7.2,-31.65,1.31,-3.89,-10.22,-2.054,-0.1854,2.3246,-21.75,34.5,62.75,153.6875,47.5625,164.8125,0
1776970348.665,9.9982,-1.561,0.0431,-2.8837,-0.9228,-1.5948,-38.25,13.95,17.85,9.7731,0.3376,0.972,-2.9348,-0.789,-0.1921,-79.05,7.2,-31.65,1.89,-3.64,-10.42,-2.1402,-0.1691,2.4533,-21.75,34.5,62.75,153.6875,47.5625,164.8125,0
1776970348.67,9.6726,-1.3384,0.6057,-2.7792,-1.0904,-1.6792,-38.25,13.95,17.85,9.7731,0.3376,0.972,-2.9348,-0.789,-0.1921,-79.05,7.2,-31.65,1.89,-3.64,-10.42,-2.1402,-0.1691,2.4533,-21.75,34.5,62.75,154.875,47.0625,164.625,0
1776970348.675,9.6726,-1.3384,0.6057,-2.7792,-1.0904,-1.6792,-38.25,13.95,17.85,9.5074,0.8954,1.0942,-2.8538,-0.8026,-0.2318,-79.05,9.15,-30.15,4.15,-3.36,-11.5,-2.2297,-0.1713,2.5187,-21.75,34.5,62.75,154.875,47.0625,164.625,0
1776970348.683,9.4092,-1.0798,0.7638,-2.6569,-1.2015,-1.7341,-36.45,16.65,17.55,9.5074,0.8954,1.0942,-2.8538,-0.8026,-0.2318,-78.9,9.3,-30.6,5.01,-3.23,-11.87,-2.3682,-0.312,2.51,-21.75,34.5,62.75,156.1875,46.5625,164.5,0
1776970348.688,9.5816,-0.8595,0.9313,-2.582,-1.2726,-1.773,-36.45,16.65,17.55,9.3182,1.3192,1.221,-2.7352,-0.7877,-0.2449,-78.9,9.3,-30.6,5.01,-3.23,-11.87,-2.3682,-0.312,2.51,-21.75,34.5,62.75,157.6875,45.875,164.6875,0
1776970348.695,9.5816,-0.8595,0.9313,-2.582,-1.2726,-1.773,-38.4,17.25,16.65,9.2249,1.6305,1.2234,-2.5682,-0.7562,-0.2465,-79.65,9.3,-30.6,5.18,-3.02,-11.52,-2.5427,-0.6196,2.4195,-21.75,34.5,62.75,159.5,45.0625,165.0625,0
1776970348.705,9.7636,-0.7661,1.1205,-2.5572,-1.3454,-1.7992,-36.6,17.25,14.85,9.0477,1.7214,1.2378,-2.3894,-0.7256,-0.239,-79.65,9.3,-30.6,4.97,-2.45,-10.91,-2.7042,-0.9185,2.2537,-21.75,34.5,62.75,159.5,45.0625,165.0625,0
1776970348.71,9.809,-0.5794,1.2857,-2.5303,-1.4149,-1.8181,-36.6,17.25,14.85,9.0477,1.7214,1.2378,-2.3894,-0.7256,-0.239,-79.65,9.3,-30.6,4.97,-2.45,-10.91,-2.7042,-0.9185,2.2537,-21.75,34.5,62.75,159.5,45.0625,165.0625,0
1776970348.715,9.809,-0.5794,1.2857,-2.5303,-1.4149,-1.8181,-36.3,20.55,15.9,9.0597,1.7334,1.2498,-2.2447,-0.6672,-0.2369,-80.1,10.5,-30.6,4.46,-1.08,-9.62,-2.7827,-1.1028,2.0671,-12.1875,30.0625,63.0,161.4375,44.125,165.6875,0
1776970348.72,9.6271,-0.3567,1.6041,-2.5042,-1.4623,-1.8447,-36.3,20.55,15.9,9.0597,1.7334,1.2498,-2.2447,-0.6672,-0.2369,-80.1,10.5,-30.6,4.46,-1.08,-9.62,-2.7827,-1.1028,2.0671,-12.1875,30.0625,63.0,161.4375,44.125,165.6875,0
1776970348.725,9.6271,-0.3567,1.6041,-2.5042,-1.4623,-1.8447,-36.6,18.75,14.55,8.825,1.6233,1.312,-2.1549,-0.5937,-0.2329,-80.1,10.5,-30.6,4.28,-0.79,-9.13,-2.7358,-1.1814,1.9013,-12.1875,30.0625,63.0,191.5625,43.25,166.375,0
1776970348.733,9.3541,0.0024,1.5945,-2.5039,-1.5188,-1.878,-36.6,18.75,14.55,8.6335,1.6735,1.4246,-2.1695,-0.4724,-0.2372,-79.5,11.85,-29.4,4.33,-1.03,-8.88,-2.6038,-1.1585,1.7661,-12.1875,30.0625,63.0,193.0,42.4375,167.0625,0
1776970348.738,9.2895,0.4357,1.7861,-2.4816,-1.5628,-1.898,-36.6,18.75,14.55,8.6335,1.6735,1.4246,-2.1695,-0.4724,-0.2372,-79.5,11.85,-29.4,4.33,-1.03,-8.88,-2.6038,-1.1585,1.7661,-12.1875,30.0625,63.0,194.4375,41.5625,167.75,0
1776970348.745,9.4715,0.7661,1.9273,-2.4597,-1.6196,-1.9257,-34.95,21.45,13.95,8.5425,1.9249,1.5395,-2.1767,-0.3363,-0.2683,-78.75,12.6,-30.45,4.51,-1.7,-8.53,-2.4773,-1.1661,1.6886,-12.1875,30.0625,63.0,195.8125,40.75,168.375,0
1776970348.755,9.4715,0.8475,1.7861,-2.3363,-1.6819,-1.9406,-33.6,24.15,13.65,8.1594,2.4253,1.4365,-2.1578,-0.2883,-0.2867,-78.45,13.95,-30.6,4.83,-2.08,-8.38,-2.3398,-1.1628,1.6853,-12.1875,30.0625,63.0,195.8125,40.75,168.375,0
1776970348.76,9.4715,0.8475,1.7861,-2.3363,-1.6819,-1.9406,-33.75,25.5,12.45,8.1594,2.4253,1.4365,-2.1578,-0.2883,-0.2867,-78.45,13.95,-30.6,4.83,-2.08,-8.38,-2.3398,-1.1628,1.6853,-12.1875,30.0625,63.0,197.1875,39.9375,168.875,0
1776970348.765,9.4691,0.9146,1.8627,-2.2106,-1.7432,-1.9316,-33.75,25.5,12.45,7.9296,2.7174,1.415,-2.129,-0.2499,-0.2715,-79.65,13.65,-30.3,5.46,-2.46,-8.57,-2.198,-1.1061,1.7453,0.875,20.6875,60.75,197.1875,39.9375,168.875,0
1776970348.77,9.4691,0.9146,1.8627,-2.2106,-1.7432,-1.9316,-33.6,26.4,11.85,7.8626,3.0311,1.3862,-2.129,-0.2499,-0.2715,-79.65,13.65,-30.3,5.46,-2.46,-8.57,-2.198,-1.1061,1.7453,0.875,20.6875,60.75,198.5625,39.125,169.3125,0
1776970348.775,9.2632,0.6752,1.7286,-2.1056,-1.7933,-1.9025,-33.6,26.4,11.85,7.8626,3.0311,1.3862,-2.0683,-0.1391,-0.2558,-78.3,13.05,-28.95,6.37,-3.88,-8.73,-2.0911,-1.1366,1.8817,0.875,20.6875,60.75,198.5625,39.125,169.3125,0
1776970348.78,9.2632,0.6752,1.7286,-2.1056,-1.7933,-1.9025,-33.6,26.4,11.85,7.841,3.4165,1.2665,-2.0683,-0.1391,-0.2558,-78.3,13.05,-28.95,6.37,-3.88,-8.73,-2.0639,-1.1006,2.0049,0.875,20.6875,60.75,200.0625,38.3125,169.625,0
1776970348.786,9.2656,0.4334,1.3958,-2.0422,-1.8063,-1.8394,-33.6,26.4,11.85,7.841,3.4165,1.2665,-1.9705,-0.0314,-0.2345,-78.75,15.0,-30.15,7.23,-4.54,-8.9,-2.0639,-1.1006,2.0049,0.875,20.6875,60.75,201.5625,37.5,170.0,0
1776970348.795,8.9926,-0.2059,1.3527,-2.0704,-1.8082,-1.7597,-33.6,26.4,11.85,7.9224,3.6559,1.2881,-1.854,0.004,-0.2164,-78.75,15.0,-30.15,7.88,-4.9,-8.81,-2.1337,-1.1214,2.1053,0.875,20.6875,60.75,203.1875,36.625,170.5,0
1776970348.805,8.9639,-0.4334,1.3168,-2.1509,-1.8141,-1.6984,-31.5,30.0,10.95,7.7692,3.6943,1.1253,-1.7485,0.0216,-0.2006,-78.75,13.8,-28.65,8.11,-4.94,-8.4,-2.3137,-1.2894,2.2057,0.875,20.6875,60.75,203.1875,36.625,170.5,0
1776970348.81,8.9639,-0.4334,1.3168,-2.1509,-1.8141,-1.6984,-29.7,31.8,10.65,7.5417,3.3615,1.1061,-1.7368,0.3496,-0.1743,-78.75,13.8,-28.65,8.11,-4.94,-8.4,-2.3137,-1.2894,2.2057,0.875,20.6875,60.75,204.875,35.625,171.0,0
1776970348.815,8.9423,-0.2873,1.0534,-2.302,-1.7642,-1.6132,-29.7,31.8,10.65,7.5417,3.3615,1.1061,-1.7368,0.3496,-0.1743,-78.75,13.8,-28.65,7.9,-4.47,-7.2,-2.4598,-1.4443,2.2984,11.5,8.375,53.5625,204.875,35.625,171.0,0
1776970348.82,8.9423,-0.2873,1.0534,-2.302,-1.7642,-1.6132,-29.1,32.4,10.05,7.5872,3.1819,0.6847,-1.6174,0.4008,-0.1841,-78.75,13.8,-28.65,7.9,-4.47,-7.2,-2.4598,-1.4443,2.2984,11.5,8.375,53.5625,204.875,35.625,171.0,0
1776970348.825,8.8825,0.1437,0.8523,-2.4693,-1.7168,-1.5124,-29.1,32.4,10.05,7.5872,3.1819,0.6847,-1.6174,0.4008,-0.1841,-78.45,15.6,-27.75,7.75,-3.99,-6.39,-2.5384,-1.6013,2.4293,11.5,8.375,53.5625,206.5625,34.5625,171.5625,0
1776970348.833,8.8657,0.6153,0.4381,-2.5823,-1.687,-1.4352,-29.7,32.25,10.95,7.5465,2.873,0.8882,-1.5428,0.5689,-0.1242,-78.9,16.35,-27.75,7.97,-3.43,-5.49,-2.5133,-1.7628,2.6496,11.5,8.375,53.5625,208.4375,33.375,172.0625,0
1776970348.838,8.8657,0.6153,0.4381,-2.5823,-1.687,-1.4352,-29.7,32.25,10.95,7.9224,3.2394,0.4405,-1.3896,0.5764,-0.0522,-78.9,16.35,-27.75,7.97,-3.43,-5.49,-2.5133,-1.7628,2.6496,11.5,8.375,53.5625,210.4375,32.125,172.5625,0
1776970348.846,8.5976,0.8763,0.0838,-2.6377,-1.6355,-1.3638,-29.7,32.25,10.95,7.9224,3.2394,0.4405,-1.3896,0.5764,-0.0522,-79.35,13.95,-27.0,4.55,-4.39,-5.88,-2.5165,-1.8391,2.9529,11.5,8.375,53.5625,212.25,31.1875,172.9375,0
1776970348.855,8.8011,1.8723,0.1652,-2.5897,-1.5977,-1.3161,-27.6,34.05,10.65,7.7357,3.7206,0.4764,-1.3725,0.6891,0.0,-79.35,16.8,-27.75,8.57,-3.7,-4.19,-2.3049,-1.3744,2.7783,11.5,8.375,53.5625,212.25,31.1875,172.9375,0
1776970348.86,8.8011,1.8723,0.1652,-2.5897,-1.5977,-1.3161,-26.85,36.0,8.85,8.1403,4.0223,0.0359,-1.2548,0.6952,0.037,-79.35,16.8,-27.75,8.57,-3.7,-4.19,-2.3049,-1.3744,2.7783,11.5,8.375,53.5625,212.25,31.1875,172.9375,0
1776970348.865,8.2456,2.3439,0.103,-2.3236,-1.404,-1.1442,-26.85,36.0,8.85,8.1403,4.0223,0.0359,-1.2548,0.6952,0.037,-78.75,16.95,-27.15,9.6,-3.72,-4.92,-2.1729,-0.5061,2.3224,16.0625,-4.375,43.5,213.875,30.75,173.375,0
1776970348.87,8.2456,2.3439,0.103,-2.3236,-1.404,-1.1442,-28.2,38.25,9.6,8.2265,4.3838,-0.4094,-1.097,0.6941,0.0655,-78.75,16.95,-27.15,9.6,-3.72,-4.92,-2.1729,-0.5061,2.3224,16.0625,-4.375,43.5,213.875,30.75,173.375,0
1776970348.875,8.2672,2.7581,-0.1125,-1.9268,-1.2119,-0.9792,-28.2,38.25,9.6,8.2265,4.3838,-0.4094,-1.097,0.6941,0.0655,-79.65,17.1,-26.55,11.06,-3.0,-5.64,-2.1729,-0.3851,2.1838,16.0625,-4.375,43.5,215.4375,30.375,173.875,0
1776970348.88,8.2672,2.7581,-0.1125,-1.9268,-1.2119,-0.9792,-26.4,37.05,9.9,8.6598,4.8674,-0.8452,-0.8652,0.7069,0.0839,-79.65,17.1,-26.55,11.06,-3.0,-5.64,-2.1064,-0.6687,2.1293,16.0625,-4.375,43.5,216.875,29.9375,174.375,0
1776970348.886,8.2504,2.7797,-0.4405,-1.5354,-1.0094,-0.8386,-26.4,37.05,9.9,8.8514,5.2625,-1.0582,-0.6302,0.5388,0.0767,-79.65,17.1,-26.55,10.4,-2.15,-4.84,-2.1064,-0.6687,2.1293,16.0625,-4.375,43.5,218.25,29.375,174.875,0
1776970348.895,8.193,2.6767,-0.7853,-1.1477,-0.7989,-0.7112,-25.5,38.7,9.3,8.5569,5.0518,-0.9146,-0.6302,0.5388,0.0767,-80.1,16.8,-24.75,9.58,-1.4,-4.04,-1.9155,-0.7778,2.0126,16.0625,-4.375,43.5,218.25,29.375,174.875,0
1776970348.905,8.3725,2.4804,-1.1851,-0.7586,-0.6352,-0.5753,-25.5,38.7,9.3,8.6239,4.5298,-1.0247,-0.7658,0.7117,0.1354,-78.75,16.5,-25.35,8.82,-0.56,-3.15,-1.6482,-0.7581,1.8075,16.0625,-4.375,43.5,219.5,28.875,175.25,0
1776970348.91,8.1786,2.2194,-1.5802,-0.3973,-0.4903,-0.4445,-26.4,38.55,10.65,8.6239,4.5298,-1.0247,-0.7658,0.7117,0.1354,-78.75,16.5,-25.35,8.82,-0.56,-3.15,-1.6482,-0.7581,1.8075,16.0625,-4.375,43.5,220.5,28.5,175.5,0
1776970348.915,8.1786,2.2194,-1.5802,-0.3973,-0.4903,-0.4445,-26.4,38.55,10.65,8.7939,4.1396,-1.1923,-0.8556,0.7197,0.1569,-78.3,17.7,-24.9,8.26,0.87,-2.17,-1.3221,-0.577,1.4748,13.875,-12.6875,34.1875,220.5,28.5,175.5,0
1776970348.92,7.7093,2.071,-1.6185,-0.1124,-0.3126,-0.3243,-24.3,39.75,8.55,8.7939,4.1396,-1.1923,-0.8556,0.7197,0.1569,-78.3,17.7,-24.9,8.26,0.87,-2.17,-1.3221,-0.577,1.4748,13.875,-12.6875,34.1875,221.1875,28.25,175.75,0
1776970348.925,7.7093,2.071,-1.6185,-0.1124,-0.3126,-0.3243,-24.3,39.75,8.55,8.9854,3.6176,-1.336,-0.8071,0.7226,0.2073,-79.35,17.55,-24.0,8.29,1.51,-2.0,-0.9556,-0.3785,1.0472,13.875,-12.6875,34.1875,221.1875,28.25,175.75,0
1776970348.932,7.3909,2.1237,-1.7262,0.2012,-0.1039,-0.2089,-26.1,39.75,8.55,8.9854,3.6176,-1.336,-0.8071,0.7226,0.2073,-79.8,16.5,-23.4,8.43,1.97,-2.0,-0.5301,-0.1767,0.5705,13.875,-12.6875,34.1875,221.5625,28.125,175.875,0
1776970348.937,7.3909,2.1237,-1.7262,0.2012,-0.1039,-0.2089,-24.75,37.65,9.75,8.9304,3.5075,-1.494,-0.5561,0.648,0.2579,-79.8,16.5,-23.4,8.43,1.97,-2.0,-0.5301,-0.1767,0.5705,13.875,-12.6875,34.1875,221.625,28.125,175.875,0
1776970348.946,6.9001,2.411,-1.7454,0.5542,0.1346,-0.1002,-24.75,37.65,9.75,8.7077,3.3782,-1.6233,-0.1703,0.5809,0.3054,-79.5,17.4,-23.4,8.66,2.69,-3.02,-0.0731,-0.0098,0.0731,13.875,-12.6875,34.1875,221.375,28.125,175.5625,0
1776970348.956,6.9719,2.4995,-1.6927,0.8607,0.3962,0.0424,-26.1,37.8,8.55,8.4587,3.1819,-1.5467,0.2348,0.5071,0.3443,-79.5,17.4,-23.4,10.68,3.69,-1.41,0.6981,-0.0458,-0.2313,13.875,-12.6875,34.1875,221.375,28.125,175.5625,0
1776970348.961,6.9432,2.4541,-1.7837,1.2545,0.66,0.1561,-26.1,37.8,8.55,8.4587,3.1819,-1.5467,0.2348,0.5071,0.3443,-79.5,17.4,-23.4,10.68,3.69,-1.41,0.6981,-0.0458,-0.2313,13.875,-12.6875,34.1875,221.375,28.1875,174.6875,0
1776970348.966,6.9432,2.4541,-1.7837,1.2545,0.66,0.1561,-26.1,37.8,8.55,8.3318,2.9066,-1.4102,0.5995,0.4477,0.3653,-80.4,16.8,-23.7,9.94,3.14,-1.84,1.4879,0.2203,0.2694,11.6875,-18.5,29.6875,221.375,28.1875,174.6875,0
1776970348.97,8.7077,2.5426,-1.5514,1.603,0.8868,0.3091,-26.7,38.4,9.3,8.3318,2.9066,-1.4102,0.5995,0.4477,0.3653,-80.4,16.8,-23.7,9.94,3.14,-1.84,1.4879,0.2203,0.2694,11.6875,-18.5,29.6875,221.3125,28.625,173.75,0
1776970348.976,8.7077,2.5426,-1.5514,1.603,0.8868,0.3091,-26.7,38.4,9.3,8.406,2.3798,-1.221,0.8641,0.4439,0.3813,-80.4,16.8,-23.7,9.04,-1.02,-0.5,1.4803,0.7341,0.2596,11.6875,-18.5,29.6875,221.3125,28.625,173.75,0
1776970348.98,10.3262,2.15,-2.8659,1.8463,1.0222,0.2094,-26.1,37.8,9.15,8.406,2.3798,-1.221,0.8641,0.4439,0.3813,-80.4,16.8,-23.7,9.04,-1.02,-0.5,-1.0308,3.9466,-0.1233,11.6875,-18.5,29.6875,221.5,30.8125,174.25,0
1776970348.986,10.3262,2.15,-2.8659,1.8463,1.0222,0.2094,-24.3,36.75,7.8,9.4619,1.5467,-0.2921,0.9654,0.4706,0.453,-79.35,16.35,-23.25,14.14,0.87,-21.81,-1.0308,3.9466,-0.1233,11.6875,-18.5,29.6875,221.5,33.1875,173.875,0
1776970348.996,14.7124,1.4748,-5.3558,2.0232,0.9334,-0.032,-25.5,36.75,7.8,10.9918,-0.2514,0.8882,0.7687,0.3816,0.5564,-80.55,17.4,-22.65,9.13,-4.42,-24.09,0.4494,4.3524,-0.108,11.6875,-18.5,29.6875,221.5,33.1875,173.875,0
1776970349.006,17.8296,-1.8292,-3.9169,2.311,0.348,-0.3024,-25.5,36.45,8.25,12.706,-2.1069,2.2434,0.1556,0.7016,0.7592,-81.0,16.2,-23.85,11.27,-16.36,-18.94,0.7876,-0.649,0.1331,11.6875,-18.5,29.6875,221.375,32.8125,173.375,0
1776970349.01,16.7211,-1.0343,-2.4876,2.2865,0.0234,-0.5415,-25.5,36.45,8.25,15.706,-3.0215,2.7533,0.1556,0.7016,0.7592,-81.0,16.2,-23.85,11.27,-16.36,-18.94,0.7876,-0.649,0.1331,11.6875,-18.5,29.6875,221.375,32.8125,173.375,0
1776970349.016,16.7211,-1.0343,-2.4876,2.2865,0.0234,-0.5415,-25.5,36.45,8.25,15.706,-3.0215,2.7533,-0.4815,1.1594,0.9766,-80.25,13.5,-22.35,-8.35,1.56,0.61,0.8181,-2.042,0.3371,12.0625,-18.75,27.5,221.375,31.6875,172.9375,0
1776970349.02,14.109,-0.4405,-0.2538,1.7528,0.2081,-0.4703,-25.95,36.9,8.7,17.3244,-3.0598,0.5794,-0.4815,1.1594,0.9766,-80.25,13.5,-22.35,-8.35,1.56,0.61,0.8181,-2.042,0.3371,12.0625,-18.75,27.5,221.375,31.6875,172.9375,0
1776970349.025,9.4499,0.9194,-0.0575,1.9745,0.5875,-0.4754,-25.05,36.9,8.7,17.3244,-3.0598,0.5794,-0.7679,1.4341,1.0048,-80.55,14.25,-22.35,6.97,0.01,-4.14,0.577,0.5323,0.3785,12.0625,-18.75,27.5,221.5625,31.9375,172.4375,0
1776970349.034,9.4499,0.9194,-0.0575,1.9745,0.5875,-0.4754,-25.05,36.0,7.8,16.35,-1.2785,-2.2338,-0.5151,1.4997,0.7933,-80.25,14.55,-21.15,20.07,-3.51,-22.22,-0.1451,3.6499,-0.1353,12.0625,-18.75,27.5,221.625,33.9375,172.375,0
1776970349.038,9.3494,0.9433,-2.071,1.4568,0.7741,-0.1679,-25.35,36.75,6.75,16.35,-1.2785,-2.2338,-0.5151,1.4997,0.7933,-80.25,14.55,-21.15,20.07,-3.51,-22.22,-0.1451,3.6499,-0.1353,12.0625,-18.75,27.5,221.5625,33.9375,172.5,0
1776970349.046,8.9543,0.8045,-2.2745,1.0989,0.8916,-0.1418,-25.5,34.65,6.9,14.1378,-0.2083,-2.2146,-0.0576,0.922,0.1569,-80.25,14.55,-21.15,1.4,-4.61,-7.55,-0.0949,-0.036,-0.1265,12.0625,-18.75,27.5,221.5625,33.6875,172.375,0
1776970349.056,9.2296,1.4365,-2.1045,0.9478,0.8799,-0.0759,-25.2,36.15,7.95,12.062,0.1173,-0.2131,-0.3664,0.5057,-0.4333,-80.55,13.8,-21.15,5.75,-2.02,-9.26,0.1713,-0.4298,0.0764,12.0625,-18.75,27.5,221.5625,33.6875,172.375,0
1776970349.061,9.2296,1.4365,-2.1045,0.9478,0.8799,-0.0759,-25.2,36.15,7.95,9.3494,-0.0886,0.9002,-0.8836,0.6289,-0.7501,-80.55,13.8,-21.15,5.75,-2.02,-9.26,0.1713,-0.4298,0.0764,12.0625,-18.75,27.5,221.5,33.8125,172.375,0
1776970349.066,8.9687,1.2163,-1.6233,0.732,0.7735,-0.0714,-25.2,36.15,7.95,9.3494,-0.0886,0.9002,-0.8836,0.6289,-0.7501,-80.55,13.8,-21.15,5.63,0.28,-8.1,0.0393,0.1494,-0.0862,12.375,-19.375,27.6875,221.5,33.8125,172.375,0
1776970349.071,8.9687,1.2163,-1.6233,0.732,0.7735,-0.0714,-25.2,36.15,7.95,6.7181,-0.9888,1.4078,-1.36,0.562,-0.6963,-80.55,13.8,-21.15,5.63,0.28,-8.1,0.0393,0.1494,-0.0862,12.375,-19.375,27.6875,221.4375,33.875,172.5,0
1776970349.076,8.9304,0.3184,-1.98,0.3808,0.6662,-0.0562,-26.25,34.95,6.15,6.7181,-0.9888,1.4078,-1.36,0.562,-0.6963,-79.35,14.85,-21.0,5.17,-1.26,-7.96,-0.1036,0.1385,-0.0971,12.375,-19.375,27.6875,221.4375,33.875,172.5,0
1776970349.082,8.9304,0.3184,-1.98,0.3808,0.6662,-0.0562,-26.25,34.95,6.15,5.5306,-1.901,1.2139,-1.7126,0.8146,-0.4245,-79.35,14.85,-21.0,4.53,-1.35,-7.93,-0.1254,0.1844,-0.0458,12.375,-19.375,27.6875,221.5,34.0,172.5625,0
1776970349.087,7.9703,0.6488,-2.5091,-0.0123,0.6241,-0.1764,-27.0,35.4,7.65,6.857,-1.8818,-0.4286,-1.7126,0.8146,-0.4245,-81.15,14.4,-18.75,4.53,-1.35,-7.93,-0.1254,0.1844,-0.0458,12.375,-19.375,27.6875,221.5,34.0625,172.5625,0
1776970349.096,8.3127,1.719,-2.5307,-0.3096,0.7173,-0.2145,-25.65,36.0,8.1,6.857,-1.8818,-0.4286,-1.7571,0.6851,-0.154,-80.4,14.4,-19.5,4.68,-1.68,-7.82,-0.06,0.1713,0.0044,12.375,-19.375,27.6875,221.5,34.1875,172.5625,0
1776970349.106,8.5329,2.5905,-2.0662,-0.4626,0.725,-0.1772,-25.05,35.55,8.1,8.4372,-1.0127,-1.5155,-1.4935,0.4759,0.0128,-80.55,15.0,-17.55,5.11,-1.25,-7.91,-0.0011,0.2193,0.0284,12.375,-19.375,27.6875,221.5,34.1875,172.5625,0
1776970349.111,8.5329,2.5905,-2.0662,-0.4626,0.725,-0.1772,-25.05,35.55,8.1,8.5808,-0.6488,-0.8236,-1.2396,0.3488,0.0794,-80.55,15.0,-17.55,5.11,-1.25,-7.91,-0.0011,0.2193,0.0284,12.375,-19.375,27.6875,221.5,34.1875,172.5625,0
1776970349.116,9.0692,2.3439,-1.0774,-0.6241,0.7474,-0.0866,-25.95,35.4,7.95,9.1411,0.0982,0.1053,-1.2396,0.3488,0.0794,-81.15,13.65,-17.4,4.81,-1.36,-8.28,-0.024,0.2782,0.1004,11.5,-19.5,28.25,221.5625,34.3125,172.5625,0
1776970349.121,9.0692,2.3439,-1.0774,-0.6241,0.7474,-0.0866,-25.95,35.4,7.95,9.1411,0.0982,0.1053,-1.1858,0.3464,0.1258,-81.15,13.65,-17.4,4.81,-1.36,-8.28,-0.024,0.2782,0.1004,11.5,-19.5,28.25,221.5625,34.3125,172.5625,0
1776970349.126,9.3733,2.0638,-0.5866,-0.725,0.6869,-0.04,-25.95,35.4,7.95,9.8641,0.7709,1.3934,-1.1858,0.3464,0.1258,-80.55,14.55,-15.6,5.45,-1.22,-7.88,-0.0284,0.3851,0.0905,11.5,-19.5,28.25,221.625,34.5625,172.5,0
1776970349.134,9.754,2.1787,-0.5722,-0.7,0.7059,-0.0338,-26.4,34.5,8.85,9.8641,0.7709,1.3934,-1.3558,0.3677,0.0967,-80.55,14.55,-15.6,5.5,-1.18,-7.94,0.0,0.3687,0.1047,11.5,-19.5,28.25,221.6875,34.75,172.4375,0
1776970349.139,9.754,2.1787,-0.5722,-0.7,0.7059,-0.0338,-26.4,34.5,8.85,10.2256,0.9218,2.8683,-1.6912,0.2459,-0.0157,-80.55,14.55,-15.6,5.5,-1.18,-7.94,0.0,0.3687,0.1047,11.5,-19.5,28.25,221.75,34.9375,172.375,0
1776970349.146,10.1203,2.3296,-0.4788,-0.5761,0.7301,-0.0272,-25.5,35.7,11.1,10.2783,0.759,4.288,-1.9937,-0.0048,-0.1282,-81.0,15.0,-16.05,5.47,-1.31,-8.03,0.048,0.3251,0.1069,11.5,-19.5,28.25,221.8125,35.125,172.3125,0
1776970349.156,10.1011,2.4924,-0.4262,-0.3792,0.7117,-0.0293,-27.15,37.05,9.9,10.2089,0.8356,5.3247,-2.0619,-0.2281,-0.1841,-81.0,15.0,-16.05,5.6,-1.41,-8.1,0.0273,0.3425,0.0949,11.5,-19.5,28.25,221.8125,35.125,172.3125,0
1776970349.161,9.9671,2.6743,-0.3352,-0.2129,0.6797,-0.0067,-27.15,37.05,9.9,10.2089,0.8356,5.3247,-2.0619,-0.2281,-0.1841,-81.0,15.0,-16.05,5.6,-1.41,-8.1,0.0273,0.3425,0.0949,11.5,-19.5,28.25,221.8125,35.125,172.3125,0
1776970349.166,9.9671,2.6743,-0.3352,-0.2129,0.6797,-0.0067,-25.2,34.95,9.0,9.9,1.403,5.6312,-1.9446,-0.2249,-0.2345,-80.25,15.75,-15.6,5.46,-1.57,-8.08,-0.0229,0.3927,0.0753,10.75,-19.875,27.5625,221.875,35.3125,172.25,0
1776970349.171,9.9144,2.6384,0.0455,-0.1668,0.6344,0.028,-25.2,34.95,9.0,9.9,1.403,5.6312,-1.9446,-0.2249,-0.2345,-80.25,15.75,-15.6,5.46,-1.57,-8.08,-0.0229,0.3927,0.0753,10.75,-19.875,27.5625,221.875,35.3125,172.25,0
1776970349.176,9.9144,2.6384,0.0455,-0.1668,0.6344,0.028,-25.2,34.95,9.0,9.6534,1.7741,5.0685,-1.7205,-0.0682,-0.284,-81.75,15.0,-14.55,5.43,-1.75,-8.09,-0.0491,0.4265,0.0535,10.75,-19.875,27.5625,221.9375,35.5625,172.25,0
1776970349.181,9.8665,2.3918,0.1149,-0.2193,0.6123,0.0741,-25.2,34.95,9.0,9.6534,1.7741,5.0685,-1.7205,-0.0682,-0.284,-81.75,15.0,-14.55,5.43,-1.75,-8.09,-0.0556,0.4494,0.0502,10.75,-19.875,27.5625,222.0,35.75,172.1875,0
1776970349.187,9.8665,2.3918,0.1149,-0.2193,0.6123,0.0741,-25.2,34.95,9.0,9.5313,2.1045,4.3191,-1.4368,0.0967,-0.3086,-79.5,15.0,-14.55,5.85,-1.48,-8.16,-0.0556,0.4494,0.0502,10.75,-19.875,27.5625,222.0625,36.0,172.1875,0
1776970349.196,9.7324,2.6073,0.0263,-0.304,0.5985,0.1108,-26.7,36.45,11.1,9.3613,2.241,3.9552,-1.1146,0.198,-0.3184,-80.4,15.15,-15.15,5.66,-1.29,-7.91,-0.0589,0.4581,0.0273,10.75,-19.875,27.5625,222.0625,36.25,172.1875,0
1776970349.206,9.5936,2.478,-0.1484,-0.3965,0.5798,0.1279,-26.25,36.45,11.1,9.2632,2.1213,3.5985,-0.9289,0.2902,-0.316,-82.35,14.85,-13.95,5.79,-1.34,-8.0,-0.0393,0.4069,0.0022,10.75,-19.875,27.5625,222.0625,36.25,172.1875,0
1776970349.211,9.6726,2.1428,0.1125,-0.5129,0.558,0.1519,-26.25,36.45,11.1,9.2632,2.1213,3.5985,-0.9289,0.2902,-0.316,-82.35,14.85,-13.95,5.79,-1.34,-8.0,-0.0393,0.4069,0.0022,10.75,-19.875,27.5625,222.0625,36.4375,172.1875,0
1776970349.216,9.6726,2.1428,0.1125,-0.5129,0.558,0.1519,-27.0,36.15,11.85,9.1698,1.7071,3.1723,-0.8801,0.3936,-0.2904,-80.85,15.15,-13.95,6.07,-0.93,-7.87,-0.0349,0.3807,0.0044,9.75,-19.1875,28.0,222.0625,36.4375,172.1875,0
1776970349.221,9.7803,1.7047,0.1484,-0.769,0.5241,0.1905,-27.0,36.15,11.85,9.1698,1.7071,3.1723,-0.8801,0.3936,-0.2904,-80.85,15.15,-13.95,6.07,-0.93,-7.87,-0.0349,0.3807,0.0044,9.75,-19.1875,28.0,222.125,36.6875,172.1875,0
1776970349.226,9.7803,1.7047,0.1484,-0.769,0.5241,0.1905,-27.6,37.05,12.0,9.3063,1.3264,2.7102,-0.907,0.4287,-0.247,-80.85,15.15,-13.95,5.63,-1.35,-7.74,-0.0273,0.3709,0.0382,9.75,-19.1875,28.0,222.125,36.6875,172.1875,0
1776970349.234,9.7707,1.5155,0.1987,-1.0067,0.4959,0.2377,-27.6,37.05,12.0,9.6079,0.8787,2.4828,-0.9718,0.3986,-0.2169,-80.85,15.15,-13.95,5.81,-1.69,-8.19,-0.0305,0.3207,0.0022,9.75,-19.1875,28.0,222.125,36.8125,172.1875,0
1776970349.239,9.9,1.652,-0.1173,-1.2012,0.49,0.2904,-27.6,37.05,12.0,9.6079,0.8787,2.4828,-0.9718,0.3986,-0.2169,-80.1,15.15,-12.9,5.81,-1.69,-8.19,-0.0305,0.3207,0.0022,9.75,-19.1875,28.0,222.125,37.0,172.1875,0
1776970349.246,9.9,1.652,-0.1173,-1.2012,0.49,0.2904,-27.6,38.25,12.75,9.6678,0.4836,2.3918,-1.0136,0.2846,-0.2036,-80.1,15.15,-12.9,5.91,-1.35,-7.8,-0.0142,0.3294,-0.0262,9.75,-19.1875,28.0,222.125,37.1875,172.1875,0
1776970349.256,9.6295,1.5969,-0.4286,-1.2257,0.4922,0.3059,-26.85,35.55,14.25,9.6941,0.3711,2.478,-1.024,0.2094,-0.2014,-79.65,15.9,-13.65,5.64,-1.58,-7.83,-0.0175,0.2738,-0.0251,9.75,-19.1875,28.0,222.125,37.1875,172.1875,0
1776970349.261,9.5361,1.7119,-0.3041,-1.1807,0.486,0.3083,-26.85,35.55,14.25,9.6678,0.3519,2.4301,-1.0179,0.1961,-0.2289,-79.65,15.9,-13.65,5.64,-1.58,-7.83,-0.0175,0.2738,-0.0251,9.75,-19.1875,28.0,222.125,37.1875,172.1875,0
1776970349.266,9.5361,1.7119,-0.3041,-1.1807,0.486,0.3083,-27.15,36.3,13.5,9.6678,0.3519,2.4301,-1.0179,0.1961,-0.2289,-80.55,14.25,-12.0,5.9,-1.44,-7.78,-0.0175,0.264,-0.0218,9.0,-20.25,29.0,222.125,37.3125,172.1875,0
1776970349.271,9.5553,1.6065,-0.3112,-1.1215,0.5007,0.3096,-28.05,36.45,13.65,9.6438,0.4262,2.2505,-1.0214,0.1929,-0.2651,-80.55,14.25,-12.0,5.9,-1.44,-7.78,-0.0175,0.264,-0.0218,9.0,-20.25,29.0,222.125,37.3125,172.1875,0
1776970349.276,9.5553,1.6065,-0.3112,-1.1215,0.5007,0.3096,-28.05,36.45,13.65,9.6438,0.4262,2.2505,-1.0214,0.1929,-0.2651,-81.0,16.2,-13.8,5.89,-1.36,-7.67,-0.0327,0.2629,-0.0262,9.0,-20.25,29.0,222.125,37.5,172.1875,0
1776970349.281,9.6989,1.7023,0.0024,-1.0267,0.4938,0.3222,-28.65,36.3,15.6,9.4739,0.2274,2.1955,-1.0632,0.1823,-0.2931,-81.0,16.2,-13.8,5.89,-1.36,-7.67,-0.0513,0.2825,-0.0415,9.0,-20.25,29.0,222.125,37.625,172.1875,0
1776970349.287,9.6941,1.8411,0.0479,-0.9622,0.5044,0.3309,-28.65,36.3,15.6,9.4739,0.2274,2.1955,-1.0632,0.1823,-0.2931,-81.15,15.9,-11.4,5.51,-1.62,-7.94,-0.0513,0.2825,-0.0415,9.0,-20.25,29.0,222.125,37.625,172.1875,0
1776970349.296,9.6941,1.8411,0.0479,-0.9622,0.5044,0.3309,-28.65,36.3,15.6,9.3398,0.1341,2.1045,-1.1231,0.145,-0.3056,-81.3,16.5,-12.0,6.13,-1.31,-7.63,-0.0556,0.3403,-0.0687,9.0,-20.25,29.0,222.125,37.75,172.1875,0
1776970349.301,9.6367,1.6664,0.0048,-0.8745,0.5092,0.3277,-26.25,36.15,15.6,9.2033,-0.1748,2.0063,-1.1983,0.0698,-0.2958,-81.3,16.5,-12.0,6.13,-1.31,-7.63,-0.084,0.3425,-0.048,9.0,-20.25,29.0,222.125,37.9375,172.25,0
1776970349.307,9.5457,1.5036,0.2107,-0.7765,0.4951,0.3064,-26.25,36.15,15.45,9.2033,-0.1748,2.0063,-1.1983,0.0698,-0.2958,-81.75,15.75,-12.3,6.03,-1.24,-7.71,-0.084,0.3425,-0.048,9.0,-20.25,29.0,222.125,37.9375,172.25,0
1776970349.312,9.5457,1.5036,0.2107,-0.7765,0.4951,0.3064,-27.15,36.0,14.25,9.0908,-0.3663,2.1811,-1.27,-0.0037,-0.2819,-81.75,15.75,-12.3,6.03,-1.24,-7.71,-0.0862,0.3305,-0.0513,9.375,-20.25,29.0,222.1875,38.125,172.25,0
1776970349.317,9.7133,1.154,0.6105,-0.7325,0.4634,0.2771,-27.15,36.0,14.25,9.0908,-0.3663,2.1811,-1.27,-0.0037,-0.2819,-81.75,15.75,-12.3,5.73,-1.28,-7.79,-0.0862,0.3305,-0.0513,9.375,-20.25,29.0,222.1875,38.125,172.25,0
1776970349.322,9.7133,1.154,0.6105,-0.7325,0.4634,0.2771,-26.4,36.0,17.1,9.1147,-0.6033,2.4253,-1.3816,-0.065,-0.2587,-81.75,15.75,-12.3,5.73,-1.28,-7.79,-0.0709,0.3327,-0.0545,9.375,-20.25,29.0,222.125,38.3125,172.3125,0
1776970349.327,9.6175,0.9744,0.7638,-0.724,0.4311,0.2635,-26.4,36.0,17.1,9.086,-0.565,2.5714,-1.3816,-0.065,-0.2587,-80.55,16.2,-10.5,6.05,-1.22,-7.44,-0.0709,0.3327,-0.0545,9.375,-20.25,29.0,222.125,38.3125,172.3125,0
1776970349.332,9.6175,0.9744,0.7638,-0.724,0.4311,0.2635,-28.65,36.3,15.3,9.086,-0.565,2.5714,-1.4722,-0.1021,-0.2193,-80.55,16.2,-10.5,6.05,-1.22,-7.44,-0.0862,0.3371,-0.0218,9.375,-20.25,29.0,222.1875,38.5,172.3125,0
1776970349.337,9.5768,0.9673,1.0774,-0.7589,0.4231,0.2505,-28.65,36.3,15.3,9.0525,-0.395,2.7964,-1.4722,-0.1021,-0.2193,-80.55,16.2,-10.5,5.84,-1.41,-7.79,-0.0862,0.3371,-0.0218,9.375,-20.25,29.0,222.1875,38.5,172.3125,0
1776970349.346,9.8162,0.9912,1.3767,-0.8274,0.4082,0.2574,-27.75,37.2,17.55,9.0501,-0.2155,3.2178,-1.529,-0.1111,-0.1772,-80.25,16.2,-10.5,6.26,-1.14,-7.52,-0.0687,0.3578,-0.0535,9.375,-20.25,29.0,222.1875,38.6875,172.3125,0
1776970349.351,9.8162,0.9912,1.3767,-0.8274,0.4082,0.2574,-27.75,37.2,17.55,9.0501,-0.2155,3.2178,-1.5759,-0.1045,-0.1537,-80.25,17.7,-10.5,6.26,-1.14,-7.52,-0.0742,0.3971,-0.0327,9.375,-20.25,29.0,222.1875,38.875,172.375,0
1776970349.357,9.7875,0.8571,1.245,-0.8612,0.3818,0.2574,-27.75,37.2,17.55,9.0501,-0.0407,3.6392,-1.5799,-0.0898,-0.1332,-79.5,15.45,-10.8,5.97,-1.16,-7.62,-0.0742,0.3971,-0.0327,9.375,-20.25,29.0,222.1875,38.875,172.375,0
1776970349.362,9.7875,0.8571,1.245,-0.8612,0.3818,0.2574,-28.2,37.05,18.75,9.0501,-0.0407,3.6392,-1.5799,-0.0898,-0.1332,-79.5,15.45,-10.8,6.07,-1.3,-7.67,-0.0589,0.3251,-0.0404,7.875,-20.6875,29.25,222.1875,39.0625,172.375,0
1776970349.367,9.8234,0.8595,1.415,-0.8705,0.3651,0.2441,-28.2,37.05,18.75,9.1674,0.0503,3.9049,-1.5537,-0.0008,-0.1026,-79.8,16.95,-10.8,6.07,-1.3,-7.67,-0.0589,0.3251,-0.0404,7.875,-20.6875,29.25,222.1875,39.0625,172.375,0
1776970349.372,9.8234,0.8595,1.415,-0.8705,0.3651,0.2441,-28.5,37.95,17.55,9.1674,0.0503,3.9049,-1.5537,-0.0008,-0.1026,-79.8,16.95,-10.8,6.07,-1.3,-7.67,-0.0589,0.3251,-0.0404,7.875,-20.6875,29.25,222.1875,39.25,172.375,0
1776970349.377,10.0413,0.9313,1.2809,-0.9062,0.3363,0.2467,-28.5,37.95,17.55,9.1004,0.2322,4.0965,-1.4949,-0.016,-0.0554,-80.1,15.9,-10.65,6.3,-1.04,-7.5,-0.0436,0.2967,-0.0338,7.875,-20.6875,29.25,222.1875,39.25,172.375,0
1776970349.382,10.0413,0.9313,1.2809,-0.9062,0.3363,0.2467,-27.75,34.65,17.55,9.1004,0.2322,4.0965,-1.4949,-0.016,-0.0554,-80.1,15.9,-10.65,6.3,-1.04,-7.5,-0.0535,0.2629,-0.0175,7.875,-20.6875,29.25,222.1875,39.375,172.4375,0
1776970349.387,9.991,1.0942,1.2905,-0.8767,0.3003,0.2321,-27.75,34.65,17.55,9.0166,0.2083,4.1994,-1.425,0.0733,-0.0152,-80.55,17.7,-8.7,6.05,-0.99,-7.62,-0.0535,0.2629,-0.0175,7.875,-20.6875,29.25,222.1875,39.5,172.4375,0
1776970349.396,9.9551,1.4557,1.2378,-0.8076,0.2886,0.2308,-28.05,35.7,18.3,9.2584,0.5148,3.9768,-1.2406,0.0458,0.0333,-80.55,17.7,-8.7,6.3,-0.95,-7.6,-0.048,0.2411,-0.0251,7.875,-20.6875,29.25,222.1875,39.5,172.4375,0
1776970349.401,9.9551,1.4557,1.2378,-0.8076,0.2886,0.2308,-28.05,35.7,18.3,9.2584,0.5148,3.9768,-1.2406,0.0458,0.0333,-79.65,15.9,-8.4,6.3,-0.95,-7.6,-0.0567,0.2083,-0.0207,7.875,-20.6875,29.25,222.1875,39.625,172.4375,0
1776970349.407,9.8761,1.5323,1.2641,-0.7088,0.2707,0.2254,-28.05,35.7,18.3,9.1889,0.6728,3.7804,-1.1141,0.0754,0.0754,-79.65,15.9,-8.4,6.2,-1.21,-7.57,-0.0567,0.2083,-0.0207,7.875,-20.6875,29.25,222.1875,39.625,172.4375,0
1776970349.412,9.8761,1.5323,1.2641,-0.6331,0.2651,0.219,-26.85,36.75,19.95,9.1889,0.6728,3.7804,-1.1141,0.0754,0.0754,-79.65,15.9,-8.4,6.2,-1.21,-7.57,-0.0535,0.1844,-0.0218,7.875,-20.25,28.1875,222.25,39.75,172.5,0
1776970349.417,9.7731,1.5945,1.1756,-0.6331,0.2651,0.219,-26.85,36.75,19.95,9.2943,0.9098,3.4429,-1.0014,0.0973,0.1151,-80.55,15.45,-9.0,6.23,-1.31,-7.52,-0.0535,0.1844,-0.0218,7.875,-20.25,28.1875,222.25,39.75,172.5,0
1776970349.422,9.7827,1.482,1.0223,-0.6027,0.2609,0.2166,-27.3,36.15,20.1,9.2943,0.9098,3.4429,-1.0014,0.0973,0.1151,-80.55,15.45,-9.0,6.23,-1.31,-7.52,-0.0535,0.1844,-0.0218,7.875,-20.25,28.1875,222.25,39.8125,172.5,0
1776970349.427,9.7827,1.482,1.0223,-0.6027,0.2609,0.2166,-27.3,36.15,20.1,9.3134,1.1779,3.3208,-0.9161,0.0887,0.141,-80.55,15.45,-9.0,6.35,-1.17,-7.46,-0.0535,0.1538,-0.0153,7.875,-20.25,28.1875,222.25,39.8125,172.5,0
1776970349.432,9.7564,1.2546,0.984,-0.6147,0.2561,0.2225,-27.15,35.55,18.75,9.3134,1.1779,3.3208,-0.9161,0.0887,0.141,-80.55,15.45,-9.0,6.35,-1.17,-7.46,-0.0709,0.1342,-0.0033,7.875,-20.25,28.1875,222.25,39.875,172.5,0
1776970349.437,9.7564,1.2546,0.984,-0.6147,0.2561,0.2225,-27.15,35.55,18.75,9.2751,1.2378,3.1292,-0.8564,0.1122,0.1583,-80.1,16.35,-9.9,6.13,-1.28,-7.68,-0.0709,0.1342,-0.0033,7.875,-20.25,28.1875,222.25,39.875,172.5,0
1776970349.446,9.754,1.3838,0.8835,-0.6803,0.2497,0.2465,-28.65,36.3,18.15,9.2344,1.4509,2.9329,-0.8092,0.1442,0.1713,-80.1,16.35,-9.9,6.15,-1.15,-7.53,-0.0731,0.1505,-0.0153,7.875,-20.25,28.1875,222.25,39.9375,172.5625,0
1776970349.451,9.6271,1.4437,0.6369,-0.7437,0.2481,0.2622,-26.85,35.55,20.25,9.2344,1.4509,2.9329,-0.8092,0.1442,0.1713,-79.65,15.9,-7.65,6.15,-1.15,-7.53,-0.0535,0.144,-0.0207,7.875,-20.25,28.1875,222.25,40.0,172.5625,0
1776970349.457,9.6271,1.4437,0.6369,-0.7437,0.2481,0.2622,-26.85,35.55,20.25,9.268,1.4868,2.7749,-0.7949,0.1785,0.1852,-79.65,15.15,-8.1,6.22,-1.1,-7.44,-0.0535,0.144,-0.0207,7.875,-20.25,28.1875,222.25,40.0,172.5625,0
1776970349.462,9.7037,1.743,0.498,-0.7429,0.2411,0.271,-26.85,35.55,20.25,9.3901,1.5371,2.66,-0.7674,0.1972,0.1961,-79.65,15.15,-8.1,6.28,-1.04,-7.46,-0.0447,0.1287,-0.0142,7.875,-21.375,27.875,222.3125,40.125,172.5625,0
1776970349.467,9.7037,1.743,0.498,-0.7429,0.2411,0.271,-26.85,35.55,20.25,9.3901,1.5371,2.66,-0.7674,0.1972,0.1961,-79.65,15.15,-8.1,6.28,-1.04,-7.46,-0.0447,0.1287,-0.0142,7.875,-21.375,27.875,222.3125,40.125,172.5625,0
1776970349.472,9.7923,1.8148,0.2586,-0.7373,0.2497,0.2848,-28.8,35.7,21.15,9.4858,1.5155,2.4924,-0.7461,0.199,0.2145,-79.65,15.9,-6.9,6.28,-1.04,-7.46,-0.0644,0.0873,0.0131,7.875,-21.375,27.875,222.3125,40.125,172.625,0
1776970349.477,9.7923,1.8148,0.2586,-0.7373,0.2497,0.2848,-28.8,35.7,21.15,9.4858,1.5155,2.4924,-0.7461,0.199,0.2145,-79.8,15.75,-7.95,6.26,-1.02,-7.46,-0.0644,0.0873,0.0131,7.875,-21.375,27.875,222.3125,40.125,172.625,0
1776970349.482,9.7109,1.7837,0.1317,-0.6971,0.2598,0.291,-27.9,36.3,21.0,9.6103,1.5036,2.2673,-0.7717,0.2441,0.2206,-79.8,15.75,-7.95,6.26,-1.02,-7.46,-0.0622,0.0513,0.0207,7.875,-21.375,27.875,222.3125,40.1875,172.625,0
