timestamp,thigh_acc_x,thigh_acc_y,thigh_acc_z,thigh_gyro_x,thigh_gyro_y,thigh_gyro_z,thigh_mag_x,thigh_mag_y,thigh_mag_z,shank_acc_x,shank_acc_y,shank_acc_z,shank_gyro_x,shank_gyro_y,shank_gyro_z,shank_mag_x,shank_mag_y,shank_mag_z,foot_acc_x,foot_acc_y,foot_acc_z,foot_gyro_x,foot_gyro_y,foot_gyro_z,foot_mag_x,foot_mag_y,foot_mag_z,foot_euler_x,foot_euler_y,foot_euler_z,perturbation_event
1776973115.049,9.9431,-0.3639,0.3831,-0.4418,-0.0706,-0.1482,-94.95,-9.45,2.55,9.8833,-0.5938,-0.9266,-0.283,-0.1103,-0.0264,-87.75,15.45,-23.85,-4.14,-2.36,-8.62,0.0109,0.0022,0.0055,-12.375,3.6875,53.0,268.8125,-25.4375,163.75,0
1776973115.055,9.7803,-0.2179,0.1772,-0.3395,-0.0562,-0.1663,-94.95,-9.45,2.55,9.7995,-0.5171,-1.063,-0.2563,-0.0991,-0.0248,-87.0,15.45,-26.1,-4.17,-2.39,-8.62,0.0109,0.0022,0.0055,-12.375,3.6875,53.0,268.8125,-25.4375,163.75,0
1776973115.064,9.9048,-0.1844,0.1269,-0.2606,-0.0658,-0.1895,-95.25,-10.65,2.55,9.7707,-0.3543,-1.0774,-0.21,-0.0965,-0.0245,-88.8,14.85,-24.75,-4.15,-2.39,-8.59,0.0076,0.0011,0.0087,-12.375,3.6875,53.0,268.8125,-25.4375,163.75,0
1776973115.072,10.2352,-0.2227,0.0575,-0.1943,-0.0701,-0.2044,-96.9,-10.05,2.85,9.8737,-0.1891,-1.2402,-0.1695,-0.089,-0.0139,-87.75,14.55,-24.6,-4.17,-2.33,-8.66,0.0076,-0.0044,0.0076,-12.375,3.6875,53.0,268.8125,-25.4375,163.75,0
1776973115.077,10.2352,-0.2227,0.0575,-0.1943,-0.0701,-0.2044,-96.9,-10.05,2.85,9.8737,-0.1891,-1.2402,-0.1695,-0.089,-0.0139,-87.75,14.55,-24.6,-4.17,-2.33,-8.66,0.0076,-0.0044,0.0076,-12.375,3.6875,53.0,268.8125,-25.4375,163.8125,0
1776973115.085,10.5824,-0.0766,-0.1125,-0.1559,-0.044,-0.2118,-96.9,-10.05,2.85,9.9719,-0.1891,-1.3288,-0.1551,-0.0727,-0.0099,-88.05,15.6,-24.0,-4.12,-2.37,-8.68,0.0033,-0.0055,0.0055,-12.375,3.6875,53.0,268.8125,-25.4375,163.8125,0
1776973115.093,10.5369,-0.0766,-0.1604,-0.0917,-0.0805,-0.231,-96.9,-10.05,2.85,10.0149,-0.4142,-1.324,-0.1532,-0.0602,-0.0037,-88.05,15.6,-24.0,-4.08,-2.41,-8.77,0.0065,-0.0055,0.0076,-12.375,3.6875,53.0,268.8125,-25.375,163.8125,0
1776973115.098,10.5369,-0.0766,-0.1604,-0.0917,-0.0805,-0.231,-94.95,-10.95,4.05,10.2137,-0.565,-1.4006,-0.1532,-0.0602,-0.0037,-88.05,15.6,-24.0,-4.08,-2.41,-8.77,0.0065,-0.0055,0.0076,-12.375,3.6875,53.0,268.8125,-25.375,163.8125,0
1776973115.103,10.5872,-0.3041,-0.2346,-0.0674,-0.1188,-0.2681,-94.95,-10.95,4.05,10.2137,-0.565,-1.4006,-0.1977,-0.0442,-0.0117,-87.3,14.4,-24.75,-4.08,-2.51,-8.74,0.0284,-0.0196,0.012,-12.6875,4.0625,53.375,268.8125,-25.4375,163.75,0
1776973115.108,10.5872,-0.3041,-0.2346,-0.0674,-0.1188,-0.2681,-96.6,-10.05,4.95,10.0772,-0.6177,-1.4533,-0.1977,-0.0442,-0.0117,-87.3,14.4,-24.75,-4.08,-2.51,-8.74,0.0284,-0.0196,0.012,-12.6875,4.0625,53.375,268.8125,-25.4375,163.75,0
1776973115.112,10.884,-0.5315,-0.3089,-0.1258,-0.1412,-0.2854,-96.6,-10.05,4.95,10.0772,-0.6177,-1.4533,-0.2678,-0.0296,-0.029,-88.65,15.0,-24.15,-4.05,-2.46,-8.86,0.0774,-0.0316,0.0273,-12.6875,4.0625,53.375,268.8125,-25.4375,163.75,0
1776973115.117,10.884,-0.5315,-0.3089,-0.1258,-0.1412,-0.2854,-96.9,-10.8,5.25,10.1538,-0.7949,-1.3048,-0.2678,-0.0296,-0.029,-88.65,15.0,-24.15,-4.05,-2.46,-8.86,0.0774,-0.0316,0.0273,-12.6875,4.0625,53.375,268.875,-25.4375,163.6875,0
1776973115.124,10.9702,-0.4908,-0.4764,-0.1045,-0.1207,-0.3131,-96.9,-10.8,5.25,10.1538,-0.7949,-1.3048,-0.3142,-0.0163,-0.0373,-86.85,13.2,-24.0,-4.1,-2.45,-8.86,0.1342,-0.0502,0.0469,-12.6875,4.0625,53.375,268.875,-25.4375,163.6875,0
1776973115.131,10.7117,-0.6752,-0.2729,-0.1404,-0.1863,-0.3706,-98.25,-11.7,5.4,10.1442,-0.6488,-1.2019,-0.4072,-0.0048,-0.0426,-88.35,13.2,-24.0,-4.15,-2.47,-8.93,0.2073,-0.0644,0.0633,-12.6875,4.0625,53.375,268.9375,-25.5,163.5625,0
1776973115.136,10.7117,-0.6752,-0.2729,-0.1404,-0.1863,-0.3706,-98.25,-11.7,5.4,10.1083,-0.7877,-1.585,-0.4072,-0.0048,-0.0426,-88.35,14.85,-22.95,-4.15,-2.47,-8.93,0.2073,-0.0644,0.0633,-12.6875,4.0625,53.375,269.0,-25.5,163.4375,0
1776973115.145,10.5872,-0.8715,-0.395,-0.299,-0.2395,-0.4247,-98.25,-11.7,5.4,10.1083,-0.7877,-1.585,-0.5556,0.0698,-0.0616,-87.0,15.0,-23.85,-4.12,-2.47,-9.08,0.3,-0.0589,0.0753,-12.6875,4.0625,53.375,269.0,-25.5,163.4375,0
1776973115.15,10.1825,-1.1181,-0.3783,-0.3954,-0.3299,-0.4978,-96.6,-12.75,5.7,9.7755,-0.9888,-1.8771,-0.6821,0.0458,-0.0677,-87.0,15.0,-23.85,-4.12,-2.47,-9.08,0.3,-0.0589,0.0753,-12.0,4.5,52.1875,269.0625,-25.5625,163.25,0
1776973115.155,10.1825,-1.1181,-0.3783,-0.3954,-0.3299,-0.4978,-96.6,-12.75,5.7,9.7755,-0.9888,-1.8771,-0.6821,0.0458,-0.0677,-87.6,13.2,-22.95,-4.32,-2.19,-9.0,0.4167,-0.0665,0.0971,-12.0,4.5,52.1875,269.0625,-25.5625,163.25,0
1776973115.159,10.2161,-1.0989,-0.395,-0.5524,-0.3773,-0.5444,-96.75,-12.15,4.05,9.4739,-1.0391,-1.3575,-0.6454,0.0893,-0.0312,-87.6,13.2,-22.95,-4.32,-2.19,-9.0,0.4167,-0.0665,0.0971,-12.0,4.5,52.1875,269.25,-25.5625,163.0,0
1776973115.165,10.2161,-1.0989,-0.395,-0.5524,-0.3773,-0.5444,-96.75,-12.15,4.05,9.4739,-1.0391,-1.3575,-0.6454,0.0893,-0.0312,-87.6,13.2,-22.95,-4.45,-2.15,-8.71,0.5683,-0.0393,0.12,-12.0,4.5,52.1875,269.25,-25.5625,163.0,0
1776973115.169,10.2568,-0.9984,-0.4381,-0.5737,-0.4072,-0.6025,-96.45,-11.4,6.15,9.6031,-0.7614,-1.4317,-0.6576,0.1063,0.0061,-87.6,13.2,-22.95,-4.45,-2.15,-8.71,0.6196,-0.0011,0.12,-12.0,4.5,52.1875,269.375,-25.5625,162.6875,0
1776973115.175,10.2568,-0.9984,-0.4381,-0.5737,-0.4072,-0.6025,-96.45,-11.4,6.15,9.5744,-0.5555,-1.5203,-0.6576,0.1063,0.0061,-87.3,14.4,-22.95,-4.16,-1.75,-8.9,0.6196,-0.0011,0.12,-12.0,4.5,52.1875,269.5625,-25.625,162.375,0
1776973115.184,10.1538,-0.6488,-0.6105,-0.6518,-0.4482,-0.6494,-98.4,-12.0,4.2,9.3182,-0.577,-1.2594,-0.7013,0.134,0.0192,-87.3,14.4,-22.95,-4.1,-1.82,-8.96,0.6567,0.0164,0.1527,-12.0,4.5,52.1875,269.5625,-25.625,162.375,0
1776973115.194,10.1634,-0.3232,-1.0798,-0.6171,-0.5281,-0.7067,-97.35,-11.55,4.95,9.1554,-1.2641,-1.166,-0.6949,0.1673,0.0269,-88.2,15.75,-22.35,-3.99,-1.71,-8.9,0.6796,0.0338,0.2378,-12.0,4.5,52.1875,269.75,-25.625,162.0625,0
1776973115.199,9.8306,-0.103,-1.5658,-0.6848,-0.5308,-0.7386,-97.35,-11.55,4.95,9.1554,-1.2641,-1.166,-0.7741,0.2206,-0.008,-88.2,15.75,-22.35,-3.99,-1.71,-8.9,0.6796,0.0338,0.2378,-12.0,4.5,52.1875,269.75,-25.625,162.0625,0
1776973115.204,9.8306,-0.103,-1.5658,-0.6848,-0.5308,-0.7386,-97.35,-11.55,4.95,9.2273,-2.2458,-0.984,-0.9657,0.2457,-0.0885,-86.85,14.85,-22.5,-3.98,-0.73,-9.31,0.7799,0.0894,0.4014,-12.0,4.5,53.375,270.125,-25.625,161.75,0
1776973115.209,9.8665,-0.182,-1.6448,-0.7706,-0.5502,-0.7626,-97.8,-11.4,6.45,9.2273,-2.2458,-0.984,-0.9657,0.2457,-0.0885,-86.85,14.85,-22.5,-3.98,-0.73,-9.31,0.7799,0.0894,0.4014,-12.0,4.5,53.375,270.125,-25.625,161.75,0
1776973115.214,9.8665,-0.182,-1.6448,-0.7706,-0.5502,-0.7626,-97.8,-11.4,6.45,9.3685,-3.5003,-1.0415,-1.291,0.2665,-0.1522,-87.6,13.95,-21.75,-4.16,1.58,-10.62,1.0232,0.2563,0.7178,-12.0,4.5,53.375,270.6875,-25.625,161.375,0
1776973115.221,9.9455,-0.5004,-1.1995,-0.9342,-0.5729,-0.7509,-98.7,-12.75,6.75,9.3685,-3.5003,-1.0415,-1.291,0.2665,-0.1522,-87.6,13.95,-21.75,-5.54,1.59,-10.96,1.429,0.4778,1.1541,-12.0,4.5,53.375,271.5,-25.625,160.9375,0
1776973115.226,10.1011,-0.8954,-0.759,-1.0837,-0.6257,-0.729,-98.4,-13.05,6.75,9.4643,-4.6878,-0.7446,-1.7243,0.2763,-0.1982,-88.05,14.4,-20.7,-5.54,1.59,-10.96,1.429,0.4778,1.1541,-12.0,4.5,53.375,272.75,-25.5,160.3125,0
1776973115.235,10.1011,-0.8954,-0.759,-1.0837,-0.6257,-0.729,-97.5,-13.65,6.9,9.4355,-5.0709,-0.2203,-2.2407,0.2667,-0.215,-86.85,15.9,-20.25,-4.98,1.01,-9.99,1.9362,0.7712,1.573,-12.0,4.5,53.375,274.25,-25.3125,159.5625,0
1776973115.245,9.9479,-1.3767,-0.6512,-1.1018,-0.6667,-0.7192,-97.5,-13.65,6.9,9.5289,-4.1755,0.4645,-2.7685,0.2443,-0.194,-87.3,16.8,-21.45,-5.37,-0.18,-9.1,2.354,1.1017,1.9711,-12.0,4.5,53.375,274.25,-25.3125,159.5625,0
1776973115.249,9.426,-1.312,-0.498,-1.1895,-0.7136,-0.733,-97.5,-13.65,6.9,9.5289,-4.1755,0.4645,-2.7685,0.2443,-0.194,-87.3,16.8,-21.45,-5.37,-0.18,-9.1,2.354,1.1017,1.9711,-12.0,4.5,53.375,275.9375,-25.0625,158.8125,0
1776973115.255,9.426,-1.312,-0.498,-1.2406,-0.7461,-0.7512,-97.5,-13.65,6.9,9.6055,-2.9329,0.7446,-3.1301,0.19,-0.1306,-87.3,16.8,-21.45,-6.36,0.18,-8.82,2.5733,1.3035,2.3158,-12.375,7.0,53.0,275.9375,-25.0625,158.8125,0
1776973115.259,9.268,-0.9313,-0.5339,-1.2406,-0.7461,-0.7512,-99.45,-12.0,7.8,9.6055,-2.9329,0.7446,-3.1301,0.19,-0.1306,-87.3,16.8,-21.45,-6.36,0.18,-8.82,2.5733,1.3035,2.3158,-12.375,7.0,53.0,277.875,-24.875,158.125,0
1776973115.265,9.086,-0.7566,-0.4142,-1.4269,-0.7549,-0.7637,-100.2,-11.55,9.15,9.7133,-2.2889,0.3711,-3.2855,0.1527,-0.0442,-87.0,18.45,-21.6,-7.09,0.87,-8.69,2.6289,1.4279,2.6344,-12.375,7.0,53.0,277.875,-24.875,158.125,0
1776973115.269,9.086,-0.7566,-0.4142,-1.4269,-0.7549,-0.7637,-100.2,-11.55,9.15,9.7133,-2.2889,0.3711,-3.2855,0.1527,-0.0442,-87.0,18.45,-21.6,-7.09,0.87,-8.69,2.4795,1.7006,2.9223,-12.375,7.0,53.0,280.0,-24.625,157.625,0
1776973115.275,9.1387,-0.3783,-0.3352,-1.4573,-0.6507,-0.7661,-100.5,-10.8,9.9,9.8186,-1.8483,0.3065,-3.258,0.1444,0.0416,-86.25,17.7,-20.55,-7.73,-2.11,-10.01,2.4795,1.7006,2.9223,-12.375,7.0,53.0,282.1875,-24.25,157.3125,0
1776973115.285,9.5577,-0.2969,-0.1149,-1.5918,-0.6089,-0.7682,-100.2,-9.75,10.2,9.7372,-1.5227,-0.2274,-3.2106,0.1418,0.0983,-86.25,19.65,-20.85,-7.09,-4.06,-9.75,2.2177,1.9537,3.1067,-12.375,7.0,53.0,282.1875,-24.25,157.3125,0
1776973115.295,9.7085,-0.431,-0.0646,-1.7163,-0.6043,-0.7432,-101.4,-8.7,11.55,9.7947,-1.4772,-1.0989,-3.1205,0.1356,0.1423,-87.0,18.45,-19.35,-6.05,-4.11,-9.26,1.5555,2.1369,3.2299,-12.375,7.0,53.0,284.4375,-23.875,157.375,0
1776973115.299,9.7085,-0.431,-0.0646,-1.7163,-0.6043,-0.7432,-101.4,-8.7,11.55,9.8857,-1.5778,-1.5586,-3.1205,0.1356,0.1423,-87.0,18.45,-19.35,-6.05,-4.11,-9.26,1.5555,2.1369,3.2299,-12.375,7.0,53.0,284.4375,-23.875,157.375,0
1776973115.304,9.6917,-0.5076,-0.2514,-1.6518,-0.6488,-0.7157,-101.4,-8.7,11.55,9.8857,-1.5778,-1.5586,-2.9628,0.1092,0.1665,-88.2,19.65,-18.6,-5.26,-3.18,-8.82,0.7636,2.2133,3.2583,-13.875,12.875,49.375,286.5625,-23.375,157.9375,0
1776973115.309,9.6917,-0.5076,-0.2514,-1.6518,-0.6488,-0.7157,-101.4,-8.7,11.55,9.7923,-1.7645,-1.7262,-2.9628,0.1092,0.1665,-88.2,19.65,-18.6,-5.26,-3.18,-8.82,0.7636,2.2133,3.2583,-13.875,12.875,49.375,286.5625,-23.375,157.9375,0
1776973115.314,9.5217,-0.5722,-0.6201,-1.7197,-0.7165,-0.6496,-99.6,-6.15,14.7,9.7923,-1.7645,-1.7262,-2.7915,0.0981,0.1631,-87.75,21.6,-18.3,-4.31,-1.32,-7.78,0.2563,2.1588,3.1994,-13.875,12.875,49.375,288.5625,-22.9375,158.6875,0
1776973115.323,9.2057,-0.6919,-0.9864,-1.6118,-0.7647,-0.5612,-99.6,-6.15,14.7,9.7444,-1.7502,-1.585,-2.6119,0.0965,0.1476,-87.75,21.6,-18.3,-3.86,-1.28,-7.46,0.1451,2.018,3.0707,-13.875,12.875,49.375,290.5,-22.5,159.4375,0
1776973115.327,9.2057,-0.6919,-0.9864,-1.6118,-0.7647,-0.5612,-100.8,-3.45,13.95,9.7444,-1.7502,-1.585,-2.6119,0.0965,0.1476,-87.75,21.6,-18.3,-3.86,-1.28,-7.46,0.1451,2.018,3.0707,-13.875,12.875,49.375,292.3125,-22.125,160.0625,0
1776973115.335,9.2632,-0.8404,-1.1349,-1.4669,-0.7266,-0.4719,-101.4,-3.45,13.35,9.7109,-1.4461,-1.3575,-2.4666,0.1023,0.1303,-88.35,18.75,-17.4,-3.56,-1.53,-7.24,0.2585,1.8217,2.9245,-13.875,12.875,49.375,294.0625,-21.8125,160.5,0
1776973115.345,9.3853,-0.565,-1.4269,-1.3478,-0.7107,-0.3848,-101.1,-2.4,15.75,9.6223,-1.1588,-1.3527,-2.3038,0.081,0.1106,-88.35,18.75,-17.4,-2.86,-2.05,-7.25,0.4222,1.5937,2.7838,-13.875,12.875,49.375,294.0625,-21.8125,160.5,0
1776973115.35,9.3853,-0.565,-1.4269,-1.3478,-0.7107,-0.3848,-101.1,-2.4,15.75,9.6606,-0.7781,-1.1492,-2.1312,0.0171,0.0986,-88.35,18.75,-17.4,-2.86,-2.05,-7.25,0.4222,1.5937,2.7838,-13.875,12.875,49.375,294.0625,-21.8125,160.5,0
1776973115.355,9.1219,-0.1053,-1.4724,-1.2678,-0.7184,-0.3043,-101.1,-2.4,15.75,9.6606,-0.7781,-1.1492,-2.1312,0.0171,0.0986,-87.6,21.9,-16.95,-2.34,-2.06,-7.34,0.5411,1.3526,2.642,-14.1875,17.75,48.6875,295.6875,-21.5625,160.875,0
1776973115.36,9.1219,-0.1053,-1.4724,-1.2678,-0.7184,-0.3043,-101.1,-2.4,15.75,9.6319,-0.4573,-1.2689,-1.9414,-0.0168,0.0735,-87.6,21.9,-16.95,-2.34,-2.06,-7.34,0.5411,1.3526,2.642,-14.1875,17.75,48.6875,295.6875,-21.5625,160.875,0
1776973115.365,8.8992,0.0239,-1.6448,-1.2343,-0.7301,-0.219,-102.75,-0.75,15.9,9.6319,-0.4573,-1.2689,-1.9414,-0.0168,0.0735,-86.1,22.65,-17.4,-1.92,-2.09,-7.51,0.588,1.105,2.4893,-14.1875,17.75,48.6875,297.25,-21.4375,161.125,0
1776973115.37,8.8992,0.0239,-1.6448,-1.2343,-0.7301,-0.219,-102.75,-0.75,15.9,9.584,-0.5291,-1.3288,-1.7568,-0.0608,0.0432,-86.1,22.65,-17.4,-1.92,-2.09,-7.51,0.5836,0.8607,2.3257,-14.1875,17.75,48.6875,298.6875,-21.4375,161.375,0
1776973115.375,9.1387,0.1652,-1.2546,-1.1237,-0.7013,-0.1284,-102.6,0.15,15.45,9.584,-0.5291,-1.3288,-1.7568,-0.0608,0.0432,-87.3,21.9,-17.4,-1.7,-2.23,-7.83,0.5836,0.8607,2.3257,-14.1875,17.75,48.6875,300.0,-21.4375,161.5625,0
1776973115.385,9.3637,0.5435,-0.8428,-1.0421,-0.6286,-0.0765,-102.75,-1.05,15.3,9.5241,-0.7039,-1.1756,-1.5908,-0.1092,-0.0027,-87.6,21.9,-16.2,-1.76,-2.6,-8.55,0.5509,0.6469,2.1697,-14.1875,17.75,48.6875,301.1875,-21.5625,161.6875,0
1776973115.395,9.5744,0.9529,-0.6177,-1.0483,-0.595,-0.0426,-103.65,0.15,16.2,9.56,-1.0846,-1.1708,-1.5159,-0.1847,-0.0512,-87.6,21.9,-16.2,-1.86,-2.75,-8.86,0.5029,0.4898,2.0049,-14.1875,17.75,48.6875,301.1875,-21.5625,161.6875,0
1776973115.4,9.5744,0.9529,-0.6177,-1.0453,-0.554,-0.0179,-103.65,0.15,16.2,9.5337,-1.5107,-1.0558,-1.4957,-0.2625,-0.1116,-87.6,21.9,-16.2,-1.86,-2.75,-8.86,0.5029,0.4898,2.0049,-14.1875,17.75,48.6875,302.3125,-21.625,161.875,0
1776973115.405,9.56,1.0798,-0.5555,-1.0453,-0.554,-0.0179,-103.8,-0.3,14.55,9.5337,-1.5107,-1.0558,-1.4957,-0.2625,-0.1116,-87.6,22.65,-15.45,-2.11,-2.86,-9.3,0.4636,0.4025,1.8413,-14.5625,20.25,48.6875,302.3125,-21.625,161.875,0
1776973115.41,9.481,1.154,-0.6704,-0.9726,-0.5375,0.0155,-103.8,-0.3,14.55,9.4212,-1.6185,-0.8547,-1.5196,-0.3072,-0.1529,-87.6,22.65,-15.45,-2.11,-2.86,-9.3,0.4636,0.4025,1.8413,-14.5625,20.25,48.6875,303.3125,-21.75,162.0,0
1776973115.415,9.481,1.154,-0.6704,-0.9726,-0.5375,0.0155,-103.8,-0.3,14.55,9.481,-1.6305,-0.8116,-1.5196,-0.3072,-0.1529,-87.6,22.65,-15.45,-3.12,-2.59,-10.14,0.468,0.3862,1.6886,-14.5625,20.25,48.6875,303.3125,-21.75,162.0,0
1776973115.423,9.3039,1.1516,-0.8308,-0.9497,-0.5308,0.0498,-101.7,-0.3,14.85,9.481,-1.6305,-0.8116,-1.5849,-0.3277,-0.178,-87.6,22.65,-15.45,-3.32,-2.6,-10.38,0.5291,0.4854,1.5424,-14.5625,20.25,48.6875,304.25,-21.75,162.0625,0
1776973115.428,9.3039,1.1516,-0.8308,-0.9497,-0.5308,0.0498,-101.7,-0.3,14.85,9.5409,-1.3527,-0.5722,-1.6513,-0.352,-0.1969,-87.6,22.2,-15.45,-3.32,-2.6,-10.38,0.5291,0.4854,1.5424,-14.5625,20.25,48.6875,305.1875,-21.625,162.0625,0
1776973115.435,9.3087,1.1827,-1.0439,-0.9918,-0.5255,0.0813,-102.6,0.9,14.7,9.5505,-0.8835,-0.6345,-1.776,-0.3797,-0.2292,-86.1,25.05,-15.45,-3.26,-2.59,-10.36,0.5989,0.6643,1.4301,-14.5625,20.25,48.6875,306.125,-21.4375,162.0625,0
1776973115.445,9.2464,1.0942,-1.2354,-1.0459,-0.4759,0.0914,-101.7,2.55,12.45,9.6103,-0.5794,-1.0175,-1.8972,-0.4088,-0.2566,-87.45,23.25,-15.3,-2.8,-2.33,-9.73,0.6349,0.8683,1.369,-14.5625,20.25,48.6875,306.125,-21.4375,162.0625,0
1776973115.45,9.2057,1.0199,-1.4174,-1.0658,-0.4671,0.1143,-101.7,2.55,12.45,9.6103,-0.5794,-1.0175,-1.8972,-0.4088,-0.2566,-87.45,23.25,-15.3,-2.8,-2.33,-9.73,0.6349,0.8683,1.369,-14.5625,20.25,48.6875,307.0,-21.125,162.0625,0
1776973115.455,9.2057,1.0199,-1.4174,-1.0658,-0.4671,0.1143,-101.4,0.9,12.9,9.5577,-0.3903,-1.0367,-1.9633,-0.4175,-0.2766,-86.1,24.6,-15.9,-2.73,-2.15,-9.38,0.625,1.0254,1.381,-11.5625,22.5625,48.5625,307.0,-21.125,162.0625,0
1776973115.46,9.402,0.8164,-1.2905,-0.9721,-0.4562,0.1268,-101.4,0.9,12.9,9.5577,-0.3903,-1.0367,-1.9633,-0.4175,-0.2766,-86.1,24.6,-15.9,-2.73,-2.15,-9.38,0.625,1.0254,1.381,-11.5625,22.5625,48.5625,308.0,-20.75,162.0625,0
1776973115.465,9.402,0.8164,-1.2905,-0.9721,-0.4562,0.1268,-101.4,0.9,12.9,9.4978,-0.2993,-0.9433,-2.0275,-0.4207,-0.2907,-87.6,23.85,-15.45,-2.75,-1.99,-9.12,0.6076,1.1105,1.4563,-11.5625,22.5625,48.5625,308.0,-20.75,162.0625,0
1776973115.47,9.3589,0.6512,-1.3838,-0.9078,-0.4506,0.1207,-101.4,0.9,12.9,9.4978,-0.2993,-0.9433,-2.0275,-0.4207,-0.2907,-87.6,23.85,-15.45,-2.75,-1.99,-9.12,0.6163,1.1465,1.5632,-11.5625,22.5625,48.5625,309.0,-20.4375,162.125,0
1776973115.476,9.3589,0.6512,-1.3838,-0.9078,-0.4506,0.1207,-101.4,0.9,12.9,9.493,-0.3519,-0.8763,-2.1091,-0.4202,-0.3032,-85.5,25.95,-14.85,-2.88,-1.9,-9.0,0.6163,1.1465,1.5632,-11.5625,22.5625,48.5625,310.125,-20.125,162.1875,0
1776973115.485,9.0956,0.7638,-1.4533,-0.9585,-0.4349,0.1058,-101.4,1.65,10.8,9.2775,-0.2634,-0.7278,-2.1767,-0.4082,-0.3027,-85.5,25.95,-14.85,-3.24,-2.12,-8.67,0.661,1.1661,1.6821,-11.5625,22.5625,48.5625,311.25,-19.8125,162.1875,0
1776973115.495,9.1099,1.0989,-1.6352,-1.0158,-0.4,0.1071,-101.85,2.4,12.15,9.256,-0.2658,-0.6608,-2.278,-0.3837,-0.3075,-88.2,25.5,-15.6,-3.31,-2.33,-8.57,0.7101,1.1759,1.7988,-11.5625,22.5625,48.5625,311.25,-19.8125,162.1875,0
1776973115.5,9.1315,0.9697,-1.8148,-1.1261,-0.3605,0.1372,-101.85,2.4,12.15,9.256,-0.2658,-0.6608,-2.278,-0.3837,-0.3075,-88.2,25.5,-15.6,-3.31,-2.33,-8.57,0.7101,1.1759,1.7988,-11.5625,22.5625,48.5625,311.25,-19.8125,162.1875,0
1776973115.505,9.1315,0.9697,-1.8148,-1.1261,-0.3605,0.1372,-100.5,1.5,11.7,9.2416,-0.1796,-0.5578,-2.3798,-0.3786,-0.3126,-88.2,25.5,-15.6,-3.36,-2.45,-8.36,0.7483,1.1879,1.9068,-11.0625,25.6875,46.5,312.5,-19.5,162.1875,0
1776973115.51,9.2847,1.008,-1.9992,-1.2199,-0.4117,0.117,-101.4,3.15,10.8,9.2416,-0.1796,-0.5578,-2.3798,-0.3786,-0.3126,-87.45,26.7,-14.55,-3.36,-2.45,-8.36,0.7483,1.1879,1.9068,-11.0625,25.6875,46.5,312.5,-19.5,162.1875,0
1776973115.515,9.2847,1.008,-1.9992,-1.2199,-0.4117,0.117,-101.4,3.15,10.8,9.1506,-0.1341,-0.5315,-2.473,-0.3576,-0.3208,-85.5,25.95,-14.55,-3.42,-2.62,-8.08,0.7723,1.1857,1.9995,-11.0625,25.6875,46.5,313.8125,-19.1875,162.25,0
1776973115.523,9.2273,0.8332,-2.0135,-1.3118,-0.4333,0.0925,-101.4,3.15,10.8,9.086,-0.012,-0.3807,-2.5381,-0.3283,-0.3389,-85.5,25.95,-15.6,-3.67,-2.54,-8.02,0.793,1.1726,2.09,-11.0625,25.6875,46.5,315.125,-18.9375,162.25,0
1776973115.528,8.9902,0.814,-2.1644,-1.4077,-0.453,0.0448,-101.4,3.15,10.8,9.086,-0.012,-0.3807,-2.5381,-0.3283,-0.3389,-86.25,27.9,-13.05,-3.67,-2.54,-8.02,0.793,1.1726,2.09,-11.0625,25.6875,46.5,316.5,-18.6875,162.1875,0
1776973115.536,8.8969,0.5243,-1.6807,-1.5649,-0.3762,0.0211,-101.1,3.45,10.8,9.0046,0.2682,-0.2538,-2.6025,-0.3166,-0.3424,-87.0,27.45,-13.5,-3.98,-2.51,-8.03,0.8508,1.1541,2.1675,-11.0625,25.6875,46.5,317.9375,-18.4375,162.125,0
1776973115.545,8.983,0.4908,-1.6424,-1.7277,-0.211,0.0072,-100.95,3.75,12.75,9.0142,0.3759,-0.249,-2.6385,-0.2907,-0.3499,-87.0,27.45,-13.5,-4.27,-2.93,-8.07,0.9447,1.1639,2.2264,-11.0625,25.6875,46.5,317.9375,-18.4375,162.125,0
1776973115.55,8.983,0.4908,-1.6424,-1.7277,-0.211,0.0072,-100.5,5.25,10.65,9.0214,0.3831,-0.0024,-2.6183,-0.2483,-0.3722,-86.55,28.95,-12.45,-4.27,-2.93,-8.07,0.9447,1.1639,2.2264,-10.0,27.5625,48.0,319.375,-18.1875,162.0625,0
1776973115.555,8.928,-0.1077,-1.7119,-2.0174,-0.2236,-0.0128,-100.5,5.25,10.65,9.0214,0.3831,-0.0024,-2.6183,-0.2483,-0.3722,-86.55,28.95,-12.45,-4.34,-3.22,-8.08,1.0407,1.1999,2.2722,-10.0,27.5625,48.0,319.375,-18.1875,162.0625,0
1776973115.56,8.928,-0.1077,-1.7119,-2.0174,-0.2236,-0.0128,-100.5,5.55,12.75,8.9352,0.3256,0.2035,-2.5892,-0.2238,-0.3864,-86.55,28.95,-12.45,-4.34,-3.22,-8.08,1.0407,1.1999,2.2722,-10.0,27.5625,48.0,320.875,-17.9375,161.875,0
1776973115.565,9.074,0.1748,-1.6209,-2.1301,-0.1895,-0.0546,-100.5,5.55,12.75,8.9352,0.3256,0.2035,-2.5892,-0.2238,-0.3864,-86.55,28.95,-12.45,-4.24,-3.45,-7.94,1.0941,1.2403,2.3082,-10.0,27.5625,48.0,320.875,-17.9375,161.875,0
1776973115.573,9.074,0.1748,-1.6209,-2.1301,-0.1895,-0.0546,-100.5,5.55,12.75,8.9735,0.3974,0.1867,-2.6087,-0.1964,-0.4002,-87.3,29.25,-11.4,-4.13,-3.47,-7.76,1.1039,1.2785,2.3376,-10.0,27.5625,48.0,322.375,-17.6875,161.75,0
1776973115.578,8.995,0.395,-1.2378,-2.318,-0.1953,-0.0554,-100.5,5.55,12.75,8.9998,0.4381,0.2586,-2.6087,-0.1964,-0.4002,-87.3,29.25,-11.4,-4.13,-3.47,-7.76,1.1039,1.2785,2.3376,-10.0,27.5625,48.0,323.875,-17.375,161.625,0
1776973115.586,8.6119,0.5171,-1.1947,-2.4251,-0.198,-0.077,-100.5,5.55,12.75,8.9998,0.4381,0.2586,-2.643,-0.1612,-0.3944,-85.2,29.25,-11.4,-3.97,-3.38,-7.46,1.0908,1.3025,2.3562,-10.0,27.5625,48.0,325.4375,-17.125,161.5,0
1776973115.595,8.3749,0.6129,-1.1516,-2.5034,-0.1069,-0.041,-99.6,6.9,12.15,8.983,0.3424,0.4142,-2.6606,-0.1452,-0.3784,-85.2,29.1,-11.25,-4.08,-3.27,-7.3,1.0843,1.2905,2.3704,-10.0,27.5625,48.0,325.4375,-17.125,161.5,0
1776973115.6,8.3749,0.6129,-1.1516,-2.5034,-0.1069,-0.041,-99.15,7.05,12.45,8.8442,0.3472,0.486,-2.6758,-0.1196,-0.3509,-85.95,31.05,-10.8,-4.08,-3.27,-7.3,1.0843,1.2905,2.3704,-10.0,27.5625,48.0,326.9375,-16.875,161.3125,0
1776973115.605,8.5114,0.9936,-1.1851,-2.5882,-0.0165,-0.0642,-99.15,7.05,12.45,8.8442,0.3472,0.486,-2.6758,-0.1196,-0.3509,-85.95,31.05,-10.8,-4.15,-3.24,-7.16,1.0897,1.2621,2.3769,-9.875,29.5,46.25,326.9375,-16.875,161.3125,0
1776973115.61,8.5114,0.9936,-1.1851,-2.5882,-0.0165,-0.0642,-96.45,7.2,12.9,8.8633,0.3352,0.4621,-2.7158,-0.0831,-0.3179,-85.35,29.7,-10.35,-4.15,-3.24,-7.16,1.0897,1.2621,2.3769,-9.875,29.5,46.25,328.4375,-16.6875,161.1875,0
1776973115.615,8.2361,1.1109,-0.7853,-2.764,-0.0306,0.0136,-96.45,7.2,12.9,8.8633,0.3352,0.4621,-2.7158,-0.0831,-0.3179,-85.35,29.7,-10.35,-4.59,-2.95,-6.86,1.0832,1.2337,2.3835,-9.875,29.5,46.25,328.4375,-16.6875,161.1875,0
1776973115.625,7.9727,1.968,-0.9505,-2.6476,0.0711,0.0426,-98.55,8.7,12.15,8.7556,0.2682,0.68,-2.7379,-0.0272,-0.2713,-85.95,29.55,-9.0,-4.82,-2.64,-6.7,1.0777,1.1857,2.3987,-9.875,29.5,46.25,330.0,-16.5,161.0,0
1776973115.635,8.4324,2.0351,-1.6257,-2.8389,0.1964,0.0773,-98.55,8.7,12.15,8.6048,0.237,0.5866,-2.7771,0.0274,-0.2292,-86.1,31.95,-9.6,-4.91,-2.4,-6.41,1.0919,1.1257,2.4173,-9.875,29.5,46.25,331.5,-16.3125,160.8125,0
1776973115.642,8.3629,2.5809,-1.3264,-2.8583,0.2305,0.0957,-96.0,10.65,13.95,8.4731,0.3352,0.4884,-2.8125,0.0831,-0.1956,-85.8,31.65,-9.15,-5.44,-2.35,-6.05,1.1246,1.0537,2.4478,-9.875,29.5,46.25,333.0625,-16.1875,160.625,0
1776973115.647,8.3629,2.5809,-1.3264,-2.8583,0.2305,0.0957,-96.0,10.65,13.95,8.2648,0.4118,0.565,-2.7909,0.1372,-0.1596,-85.8,31.65,-9.15,-5.44,-2.35,-6.05,1.1246,1.0537,2.4478,-9.875,29.5,46.25,333.0625,-16.1875,160.625,0
1776973115.652,7.7069,2.6576,-1.1947,-2.7821,0.2609,0.1077,-96.75,10.95,12.6,8.2648,0.4118,0.565,-2.7909,0.1372,-0.1596,-85.8,31.65,-9.15,-5.7,-2.6,-5.88,1.1672,0.9643,2.4936,-7.1875,31.0625,45.25,334.625,-16.1875,160.4375,0
1776973115.657,7.7069,2.6576,-1.1947,-2.7821,0.2609,0.1077,-96.75,10.95,12.6,8.2241,0.4597,0.7302,-2.7073,0.2113,-0.1234,-86.1,31.2,-6.6,-5.7,-2.6,-5.88,1.1672,0.9643,2.4936,-7.1875,31.0625,45.25,334.625,-16.1875,160.4375,0
1776973115.662,7.7069,2.6863,-1.1061,-2.4704,0.3669,0.1231,-94.95,10.65,12.9,8.2241,0.4597,0.7302,-2.7073,0.2113,-0.1234,-86.1,31.2,-6.6,-5.83,-2.9,-5.8,1.1956,0.8868,2.5482,-7.1875,31.0625,45.25,336.25,-16.1875,160.1875,0
1776973115.667,7.7069,2.6863,-1.1061,-2.4704,0.3669,0.1231,-94.95,10.65,12.9,8.1642,0.5986,0.6225,-2.5858,0.2761,-0.0885,-86.1,31.2,-6.6,-5.83,-2.9,-5.8,1.1956,0.8868,2.5482,-7.1875,31.0625,45.25,337.8125,-16.25,159.9375,0
1776973115.676,8.4013,3.4453,-1.7047,-2.3792,0.4714,0.1199,-94.5,12.45,13.35,8.2217,0.2035,0.5124,-2.4277,0.3488,-0.0597,-86.25,31.05,-6.45,-6.09,-3.24,-5.78,1.201,0.8214,2.582,-7.1875,31.0625,45.25,339.4375,-16.3125,159.75,0
1776973115.685,9.2608,3.644,-1.3264,-2.3124,0.5729,0.1391,-93.45,13.2,13.35,8.181,0.0239,1.075,-2.1623,0.4189,-0.0434,-85.8,31.65,-7.35,-6.41,-4.02,-5.92,1.1977,0.7767,2.5722,-7.1875,31.0625,45.25,339.4375,-16.3125,159.75,0
1776973115.695,8.7795,2.5426,-1.2522,-2.1043,0.4375,0.0909,-93.45,13.2,13.35,8.8442,1.3024,1.7765,-1.9897,0.502,-0.0541,-86.55,31.65,-5.1,-6.29,-4.35,-5.81,1.1999,0.7559,2.4969,-7.1875,31.0625,45.25,341.0,-16.4375,159.5,0
1776973115.7,8.8226,3.7565,-0.3089,-1.8024,0.5633,0.1892,-93.15,12.45,15.0,8.8442,1.3024,1.7765,-1.9897,0.502,-0.0541,-86.7,30.6,-3.45,-6.29,-4.35,-5.81,1.1999,0.7559,2.4969,-7.1875,31.0625,45.25,342.4375,-16.5,159.25,0
1776973115.705,8.8226,3.7565,-0.3089,-1.8024,0.5633,0.1892,-93.15,12.45,15.0,10.2999,3.7158,-1.5036,-1.9558,0.3933,-0.1319,-86.7,30.6,-3.45,2.99,-14.62,-7.96,1.1781,0.7527,2.3289,-5.875,33.875,44.0,342.4375,-16.5,159.25,0
1776973115.71,8.6622,3.7254,0.0958,-1.4384,0.566,0.2547,-93.0,13.05,14.85,10.2999,3.7158,-1.5036,-1.9558,0.3933,-0.1319,-86.25,31.8,-2.4,2.99,-14.62,-7.96,1.1781,0.7527,2.3289,-5.875,33.875,44.0,343.5625,-16.75,159.5625,0
1776973115.715,8.6622,3.7254,0.0958,-1.4384,0.566,0.2547,-93.0,13.05,14.85,9.8234,5.8754,-2.2841,-1.8524,0.2542,-0.2374,-86.25,31.8,-2.4,-0.66,-3.72,-9.53,-0.0251,0.1724,1.9242,-5.875,33.875,44.0,343.5625,-16.75,159.5625,0
1776973115.723,8.7053,4.2521,-0.5219,-1.1477,0.6869,0.3347,-92.25,12.0,15.3,9.9168,7.513,-2.3535,-1.1938,0.2281,-0.3283,-86.25,31.8,-2.4,-0.04,-7.53,-6.54,-1.0701,-0.0578,2.0093,-5.875,33.875,44.0,344.5625,-17.1875,160.5,0
1776973115.728,8.7053,4.2521,-0.5219,-1.1477,0.6869,0.3347,-90.9,13.65,15.75,9.9168,7.513,-2.3535,-1.1938,0.2281,-0.3283,-85.5,31.5,-1.65,-0.04,-7.53,-6.54,-1.0701,-0.0578,2.0093,-5.875,33.875,44.0,345.25,-17.5625,161.1875,0
1776973115.736,9.1171,4.6304,-0.4262,-0.9513,0.8724,0.4335,-90.9,13.65,15.75,11.1211,7.9918,-4.4005,-0.315,0.1183,-0.2731,-85.5,31.5,-1.65,2.61,-5.71,-5.23,-0.8454,-0.2389,1.4148,-5.875,33.875,44.0,345.8125,-18.125,161.6875,0
1776973115.746,10.6877,5.5881,-1.1301,-0.6688,0.9737,0.5849,-90.9,13.65,15.75,12.7084,8.7173,-3.4237,0.6635,0.1588,-0.1423,-85.5,31.5,-1.65,-7.48,-8.2,-10.63,-0.6916,-0.625,1.213,-5.875,33.875,44.0,345.8125,-18.125,161.6875,0
1776973115.751,13.6661,6.5817,-2.2673,-0.3571,1.0285,0.7336,-91.8,13.8,16.35,12.7084,8.7173,-3.4237,0.6635,0.1588,-0.1423,-85.35,31.2,-0.3,-7.48,-8.2,-10.63,-0.6916,-0.625,1.213,-5.875,33.875,44.0,345.8125,-18.6875,161.625,0
1776973115.756,13.6661,6.5817,-2.2673,-0.3571,1.0285,0.7336,-91.8,13.8,16.35,11.7986,8.6431,-2.4349,1.2526,0.3672,0.0029,-85.35,31.2,-0.3,-14.98,-10.99,-16.7,0.1353,-1.0417,0.1745,-2.375,35.0625,42.6875,345.8125,-18.6875,161.625,0
1776973115.76,15.1002,8.2337,-3.6224,0.1386,0.7653,0.7147,-91.5,14.25,15.9,11.8082,5.6886,-0.3926,1.2526,0.3672,0.0029,-85.05,31.65,-2.1,-14.98,-10.99,-16.7,0.1353,-1.0417,0.1745,-2.375,35.0625,42.6875,345.75,-19.375,161.4375,0
1776973115.766,15.1002,8.2337,-3.6224,0.1386,0.7653,0.7147,-91.5,14.25,15.9,11.8082,5.6886,-0.3926,2.3454,0.7099,0.186,-85.05,31.65,-2.1,-9.67,-1.13,-12.85,0.1505,-1.3504,0.0545,-2.375,35.0625,42.6875,345.75,-19.375,161.4375,0
1776973115.772,14.6238,11.3844,-5.2864,1.0914,0.3994,0.4919,-93.3,13.05,17.1,13.1537,2.988,-2.2673,2.8805,0.6739,0.3032,-85.35,31.95,-2.1,-0.65,-0.95,-6.58,-0.2203,-0.5498,0.4331,-2.375,35.0625,42.6875,345.9375,-19.75,161.625,0
1776973115.777,11.6717,11.1259,-3.4524,1.7664,-0.0509,0.2012,-93.6,13.8,18.75,13.1537,2.988,-2.2673,2.8805,0.6739,0.3032,-85.35,31.95,-2.1,-0.65,-0.95,-6.58,-0.2203,-0.5498,0.4331,-2.375,35.0625,42.6875,346.0625,-20.0,161.75,0
1776973115.786,11.6717,11.1259,-3.4524,1.7664,-0.0509,0.2012,-94.35,12.0,17.1,10.24,0.4381,-2.2458,2.7832,0.5985,0.2915,-86.25,31.8,-2.4,-6.92,-5.01,-11.66,-0.192,-0.3829,0.3709,-2.375,35.0625,42.6875,346.1875,-20.4375,161.9375,0
1776973115.796,9.742,7.4172,-2.2625,2.2884,0.0099,0.0213,-94.35,12.0,17.1,8.5497,-2.0853,-0.2203,2.6492,0.7911,0.303,-86.25,31.8,-2.4,-4.24,-0.97,-9.52,-0.1865,-0.685,0.3567,-2.375,35.0625,42.6875,346.1875,-20.4375,161.9375,0
1776973115.801,8.983,0.8116,-2.0806,2.2767,0.4303,0.0703,-94.35,12.0,17.1,8.9615,-2.8012,0.6249,2.0989,0.8068,0.2931,-85.35,31.95,-2.55,-4.24,-0.97,-9.52,-0.1865,-0.685,0.3567,-2.375,35.0625,42.6875,346.1875,-20.4375,161.9375,0
1776973115.806,8.983,0.8116,-2.0806,2.2767,0.4303,0.0703,-99.9,11.55,19.2,8.9615,-2.8012,0.6249,2.0989,0.8068,0.2931,-85.35,31.95,-2.55,-2.99,-1.61,-8.83,-0.156,-0.3512,0.2193,1.0625,34.0,43.6875,346.25,-20.6875,162.0,0
1776973115.811,9.9383,-2.6217,0.5483,2.144,0.4972,-0.0725,-99.9,11.55,19.2,8.8705,-3.0765,0.5315,1.3179,0.7858,0.2771,-85.35,31.95,-2.55,-2.99,-1.61,-8.83,-0.156,-0.3512,0.2193,1.0625,34.0,43.6875,346.25,-20.6875,162.0,0
1776973115.816,9.9383,-2.6217,0.5483,2.0592,0.5931,-0.2678,-102.0,9.3,21.0,8.8705,-3.0765,0.5315,1.3179,0.7858,0.2771,-85.35,31.95,-2.55,-3.54,-2.34,-8.82,-0.1276,-0.3251,0.1854,1.0625,34.0,43.6875,346.3125,-20.875,162.125,0
1776973115.824,8.77,-3.7996,2.2984,2.0592,0.5931,-0.2678,-102.0,9.3,21.0,9.1794,-2.7198,0.7015,0.8918,0.7629,0.2761,-85.05,31.65,-1.35,-3.58,-2.15,-8.81,-0.0545,-0.4189,0.1604,1.0625,34.0,43.6875,346.375,-21.125,162.125,0
1776973115.828,9.0549,-5.6671,1.3862,0.9241,0.3403,-0.1671,-101.25,6.3,21.0,9.6055,-1.9225,1.0463,0.8918,0.7629,0.2761,-85.05,31.65,-1.35,-3.58,-2.15,-8.81,-0.0545,-0.4189,0.1604,1.0625,34.0,43.6875,346.4375,-21.375,162.1875,0
1776973115.836,8.3007,-5.9759,2.2098,0.8084,0.3565,-0.0887,-100.05,6.9,19.35,9.6055,-1.9225,1.0463,0.4543,0.765,0.2558,-86.55,30.9,-2.55,-3.61,-2.4,-8.82,-0.0622,-0.4047,0.144,1.0625,34.0,43.6875,346.4375,-21.625,162.1875,0
1776973115.846,7.5681,-5.4708,1.2617,0.4698,0.3579,0.0485,-100.05,6.9,19.35,9.6151,-1.0534,1.4461,0.0261,0.7139,0.2233,-85.2,31.8,-3.75,-3.91,-2.65,-8.67,-0.0556,-0.4461,0.1244,1.0625,34.0,43.6875,346.4375,-21.625,162.1875,0
1776973115.851,7.5681,-5.4708,1.2617,0.4698,0.3579,0.0485,-100.05,6.9,19.35,9.3063,-0.3591,1.4676,-0.3435,0.7194,0.1759,-85.95,31.8,-1.95,-3.91,-2.65,-8.67,-0.0556,-0.4461,0.1244,2.0,34.0625,43.1875,346.4375,-21.875,162.1875,0
1776973115.856,8.8322,-4.525,0.4693,-0.1583,0.3992,0.1207,-96.6,6.75,18.15,9.3063,-0.3591,1.4676,-0.3435,0.7194,0.1759,-85.95,31.8,-1.95,-4.03,-2.85,-8.61,-0.0404,-0.4985,0.1047,2.0,34.0625,43.1875,346.4375,-21.875,162.1875,0
1776973115.861,8.8322,-4.525,0.4693,-0.1583,0.3992,0.1207,-96.6,6.75,18.15,9.3063,-0.2586,0.9625,-0.5891,0.7546,0.1569,-87.0,31.05,-1.95,-4.03,-2.85,-8.61,-0.0404,-0.4985,0.1047,2.0,34.0625,43.1875,346.4375,-22.1875,162.25,0
1776973115.866,9.8928,-3.2729,0.5459,-0.5393,0.3467,0.1005,-95.1,7.5,16.65,9.3063,-0.2586,0.9625,-0.5891,0.7546,0.1569,-87.0,31.05,-1.95,-4.05,-2.97,-8.57,-0.0469,-0.4581,0.0927,2.0,34.0625,43.1875,346.4375,-22.1875,162.25,0
1776973115.872,9.8928,-3.2729,0.5459,-0.5393,0.3467,0.1005,-95.1,7.5,16.65,9.5313,-0.4453,0.4046,-0.656,0.7751,0.1434,-86.25,31.05,-0.45,-4.08,-3.08,-8.5,-0.0371,-0.4025,0.0764,2.0,34.0625,43.1875,346.4375,-22.375,162.25,0
1776973115.877,10.3956,-1.8747,0.6033,-0.7855,0.3459,0.045,-92.7,5.7,15.0,9.924,-0.6991,0.1652,-0.6206,0.7626,0.145,-86.25,31.05,-0.45,-4.08,-3.08,-8.5,-0.0371,-0.4025,0.0764,2.0,34.0625,43.1875,346.4375,-22.625,162.25,0
1776973115.886,10.6326,-0.8021,0.4908,-0.9513,0.3784,-0.0128,-89.7,6.3,15.3,10.4076,-0.668,0.7518,-0.6206,0.7626,0.145,-86.25,31.05,-0.45,-4.04,-2.43,-8.85,-0.0545,-0.3763,0.0676,2.0,34.0625,43.1875,346.4375,-22.625,162.25,0
1776973115.896,10.5512,0.5435,0.735,-1.1977,0.3744,-0.0381,-91.35,8.4,15.75,10.2783,-0.3376,0.9242,-0.4405,0.7136,0.1079,-86.7,32.25,-0.45,-4.06,-2.42,-8.89,-0.1047,-0.3545,0.0458,2.0,34.0625,43.1875,346.4375,-22.8125,162.3125,0
1776973115.901,10.5512,0.5435,0.735,-1.1977,0.3744,-0.0381,-91.35,8.4,15.75,10.2783,-0.3376,0.9242,-0.4405,0.7136,0.1079,-86.7,32.25,-0.45,-4.06,-2.42,-8.89,-0.1047,-0.3545,0.0458,2.0,34.0625,43.1875,346.4375,-22.8125,162.3125,0
1776973115.906,9.7755,1.154,1.1205,-1.5785,0.3675,-0.0376,-91.35,8.4,15.75,9.9886,0.3352,1.1732,-0.3576,0.6536,0.0589,-86.7,32.25,-0.45,-4.23,-2.38,-9.01,-0.1298,-0.3327,0.0393,2.5,33.75,42.6875,346.4375,-23.0,162.375,0
1776973115.911,9.7755,1.154,1.1205,-1.5785,0.3675,-0.0376,-91.35,8.4,15.75,9.9886,0.3352,1.1732,-0.3576,0.6536,0.0589,-86.7,31.8,0.45,-4.23,-2.38,-9.01,-0.1298,-0.3327,0.0393,2.5,33.75,42.6875,346.4375,-23.0,162.375,0
1776973115.916,9.5481,1.2713,1.6831,-1.7483,0.4221,-0.0117,-89.7,6.3,14.85,9.4523,1.1205,1.2689,-0.263,0.6179,0.02,-86.7,31.8,0.45,-3.85,-2.51,-8.67,-0.1167,-0.3011,0.0196,2.5,33.75,42.6875,346.375,-23.125,162.4375,0
1776973115.924,9.5265,0.9673,2.0806,-1.7824,0.3659,-0.0075,-89.7,4.8,15.6,9.5553,1.573,1.6041,-0.263,0.6179,0.02,-85.8,30.0,0.0,-3.88,-2.65,-8.53,-0.1134,-0.288,0.0098,2.5,33.75,42.6875,346.375,-23.3125,162.4375,0
1776973115.929,9.5265,0.9673,2.0806,-1.7824,0.3659,-0.0075,-89.7,4.8,15.6,9.5553,1.573,1.6041,-0.126,0.5905,-0.0032,-85.8,30.0,0.0,-3.88,-2.65,-8.53,-0.1134,-0.288,0.0098,2.5,33.75,42.6875,346.3125,-23.4375,162.5,0
1776973115.936,9.4188,1.154,2.3798,-1.6188,0.3312,-0.0048,-90.6,6.45,16.8,9.7588,1.731,1.4796,-0.0362,0.5529,-0.0171,-85.35,30.9,1.05,-3.97,-2.65,-8.51,-0.1102,-0.3131,0.0076,2.5,33.75,42.6875,346.3125,-23.625,162.5,0
1776973115.946,9.244,1.8699,2.308,-1.3462,0.3323,0.0064,-90.45,4.8,17.1,9.8162,0.9481,1.312,0.032,0.5316,-0.0093,-86.1,30.9,-0.3,-3.86,-2.68,-8.5,-0.108,-0.3131,0.0109,2.5,33.75,42.6875,346.3125,-23.625,162.5,0
1776973115.951,9.244,1.8699,2.308,-1.1247,0.3485,0.0029,-90.45,4.8,17.1,9.8162,0.9481,1.312,0.032,0.5316,-0.0093,-86.1,30.9,-0.3,-3.86,-2.68,-8.5,-0.108,-0.3131,0.0109,4.0,34.1875,42.25,346.25,-23.8125,162.5625,0
1776973115.956,9.4284,2.6695,1.9537,-1.1247,0.3485,0.0029,-90.45,4.8,17.1,10.0628,0.2203,1.8459,0.0123,0.5313,0.024,-86.1,30.9,-0.3,-4.14,-2.72,-8.58,-0.12,-0.324,0.0153,4.0,34.1875,42.25,346.25,-23.8125,162.5625,0
1776973115.961,9.2656,2.9712,2.3152,-0.9182,0.3573,-0.0296,-90.45,4.8,17.1,10.0628,0.2203,1.8459,0.0123,0.5313,0.024,-86.1,30.45,1.05,-4.14,-2.72,-8.58,-0.12,-0.324,0.0153,4.0,34.1875,42.25,346.25,-24.0,162.625,0
1776973115.966,9.2656,2.9712,2.3152,-0.9182,0.3573,-0.0296,-90.45,4.8,17.1,10.1035,-0.3448,2.1548,-0.2435,0.5103,0.0485,-86.1,30.45,1.05,-4.23,-2.44,-8.67,-0.1265,-0.3272,0.0196,4.0,34.1875,42.25,346.25,-24.0,162.625,0
1776973115.971,9.4044,2.7078,2.478,-0.6979,0.3587,-0.0594,-90.45,4.8,17.1,10.1035,-0.3448,2.1548,-0.2435,0.5103,0.0485,-86.1,30.45,1.05,-4.23,-2.44,-8.67,-0.1276,-0.2913,0.0196,4.0,34.1875,42.25,346.1875,-24.125,162.6875,0
1776973115.977,9.4044,2.7078,2.478,-0.6979,0.3587,-0.0594,-93.3,4.05,20.55,10.0245,-0.7422,2.557,-0.6049,0.4815,0.0887,-86.1,30.45,1.05,-4.22,-2.63,-8.71,-0.1276,-0.2913,0.0196,4.0,34.1875,42.25,346.1875,-24.25,162.75,0
1776973115.986,9.268,2.3631,2.5474,-0.4858,0.3515,-0.0685,-95.1,5.25,23.1,10.0628,-0.7111,2.3798,-0.906,0.4442,0.121,-85.95,31.5,1.65,-4.4,-2.71,-8.66,-0.1025,-0.2553,0.0185,4.0,34.1875,42.25,346.1875,-24.25,162.75,0
1776973115.996,9.5193,1.4102,2.0614,-0.4407,0.4535,-0.0634,-94.35,4.5,26.25,10.1203,-0.1269,2.0375,-1.1162,0.4112,0.158,-85.95,29.85,1.65,-4.52,-2.58,-8.66,-0.0644,-0.2138,0.0218,4.0,34.1875,42.25,346.1875,-24.375,162.75,0
1776973116.001,9.9862,0.723,1.8723,-0.4623,0.5113,-0.0698,-94.35,4.5,26.25,9.754,0.4741,1.6281,-1.1162,0.4112,0.158,-85.8,31.95,3.3,-4.52,-2.58,-8.66,-0.0644,-0.2138,0.0218,4.0,34.1875,42.25,346.1875,-24.5,162.75,0
1776973116.006,9.9862,0.723,1.8723,-0.4623,0.5113,-0.0698,-97.35,4.5,29.85,9.754,0.4741,1.6281,-1.2124,0.3861,0.1652,-85.8,31.95,3.3,-4.47,-2.68,-8.67,-0.0218,-0.1593,0.0185,4.75,33.5,43.0625,346.1875,-24.5,162.75,0
1776973116.011,9.7516,0.6177,1.9704,-0.3888,0.421,-0.065,-97.35,4.5,29.85,9.8904,1.0199,1.3599,-1.2124,0.3861,0.1652,-86.7,30.6,4.5,-4.47,-2.68,-8.67,-0.0218,-0.1593,0.0185,4.75,33.5,43.0625,346.1875,-24.5,162.75,0
1776973116.016,9.7516,0.6177,1.9704,-0.3888,0.421,-0.065,-97.35,4.5,29.85,9.8904,1.0199,1.3599,-1.1594,0.3592,0.162,-86.7,30.6,4.5,-4.15,-2.56,-8.53,0.0033,-0.0796,0.0076,4.75,33.5,43.0625,346.1875,-24.5,162.75,0
1776973116.025,9.8043,0.6512,1.4293,-0.4658,0.4578,-0.0562,-98.4,7.05,34.2,9.9,1.3695,0.8212,-1.0328,0.3091,0.1279,-87.3,30.45,4.8,-3.78,-2.65,-8.32,0.0175,-0.0578,0.0,4.75,33.5,43.0625,346.125,-24.5625,162.75,0
1776973116.029,9.8354,0.4573,1.0511,-0.5233,0.4359,-0.0354,-98.4,7.05,34.2,9.4619,1.1947,0.8906,-1.0328,0.3091,0.1279,-87.3,30.45,4.8,-3.78,-2.65,-8.32,0.0175,-0.0578,0.0,4.75,33.5,43.0625,346.125,-24.5625,162.75,0
1776973116.037,9.8354,0.4573,1.0511,-0.5233,0.4359,-0.0354,-100.5,6.3,38.1,9.4619,1.1947,0.8906,-0.7839,0.3067,0.0898,-85.95,30.3,4.2,-3.79,-2.62,-8.49,0.0087,-0.0425,-0.0033,4.75,33.5,43.0625,346.125,-24.625,162.75,0
1776973116.046,9.8617,0.419,1.075,-0.6686,0.381,-0.0077,-101.4,5.7,39.6,9.9,0.9984,1.1444,-0.5657,0.308,0.0741,-85.95,30.3,4.2,-4.07,-2.41,-8.47,0.0131,-0.0742,0.0098,4.75,33.5,43.0625,346.125,-24.625,162.75,0
1776973116.051,9.9383,0.3759,1.2737,-0.85,0.3555,0.0274,-101.7,8.25,42.3,9.845,0.6608,1.2761,-0.4482,0.2785,0.0578,-85.95,30.6,4.5,-4.07,-2.41,-8.47,0.0131,-0.0742,0.0098,4.75,33.5,43.0625,346.125,-24.6875,162.6875,0
1776973116.056,9.9383,0.3759,1.2737,-0.85,0.3555,0.0274,-101.7,8.25,42.3,9.845,0.6608,1.2761,-0.4482,0.2785,0.0578,-85.95,30.6,4.5,-4.0,-2.63,-8.51,0.0142,-0.1047,0.0196,5.1875,33.5,41.5,346.125,-24.6875,162.6875,0
1776973116.061,9.6869,0.2897,1.1947,-1.0664,0.3174,0.081,-103.35,7.95,42.9,9.4978,0.4238,1.6281,-0.2491,0.2742,0.0618,-86.1,31.2,4.35,-4.0,-2.63,-8.51,0.0142,-0.1047,0.0196,5.1875,33.5,41.5,346.125,-24.6875,162.6875,0
1776973116.066,9.6869,0.2897,1.1947,-1.0664,0.3174,0.081,-103.35,7.95,42.9,9.4978,0.4238,1.6281,-0.2491,0.2742,0.0618,-86.1,31.2,4.35,-4.26,-2.56,-8.5,0.0164,-0.1156,0.0229,5.1875,33.5,41.5,346.1875,-24.75,162.6875,0
1776973116.071,9.5672,0.3687,1.1708,-1.1999,0.2838,0.1116,-103.35,7.95,42.9,9.7229,0.1125,1.5897,-0.2204,0.2699,0.0498,-87.3,30.45,4.05,-4.26,-2.56,-8.5,0.0164,-0.1276,0.0273,5.1875,33.5,41.5,346.1875,-24.8125,162.6875,0
1776973116.077,9.5577,0.6943,1.1756,-1.3177,0.2968,0.1498,-103.35,7.95,42.9,9.7229,0.1125,1.5897,-0.2204,0.2699,0.0498,-87.3,30.45,4.05,-4.35,-2.46,-8.55,0.0164,-0.1276,0.0273,5.1875,33.5,41.5,346.1875,-24.875,162.6875,0
1776973116.086,9.5577,0.6943,1.1756,-1.3177,0.2968,0.1498,-102.0,7.8,44.4,9.584,0.1269,1.2737,-0.3128,0.2558,0.0474,-85.8,30.0,5.55,-4.24,-2.57,-8.49,0.0164,-0.1134,0.0164,5.1875,33.5,41.5,346.1875,-24.9375,162.625,0
1776973116.096,9.6367,1.6305,1.0558,-1.3944,0.2787,0.1615,-101.85,8.7,43.2,9.5433,0.4142,1.1803,-0.3432,0.2891,0.0719,-86.1,28.95,5.55,-4.28,-2.53,-8.55,0.0196,-0.0829,0.0055,5.1875,33.5,41.5,346.1875,-24.9375,162.625,0
1776973116.101,9.6367,1.6305,1.0558,-1.3944,0.2787,0.1615,-100.5,7.5,43.05,9.6247,0.5962,1.2809,-0.4543,0.2864,0.0919,-87.6,30.9,4.35,-4.28,-2.53,-8.55,0.0196,-0.0829,0.0055,5.1875,33.5,41.5,346.1875,-24.9375,162.625,0
1776973116.106,9.517,1.9513,0.8188,-1.3835,0.2342,0.1418,-100.5,7.5,43.05,9.4332,1.0104,1.1803,-0.4543,0.2864,0.0919,-87.6,30.9,4.35,-4.28,-2.63,-8.43,0.024,-0.0742,0.0,6.1875,33.5,43.0625,346.1875,-24.9375,162.625,0
1776973116.111,9.517,1.9513,0.8188,-1.3835,0.2342,0.1418,-99.45,9.3,44.1,9.4332,1.0104,1.1803,-0.5979,0.2793,0.1191,-87.6,30.9,4.35,-4.28,-2.63,-8.43,0.024,-0.0742,0.0,6.1875,33.5,43.0625,346.125,-25.0,162.625,0
1776973116.116,9.3733,2.1955,1.075,-1.3933,0.2697,0.1058,-99.45,9.3,44.1,9.4715,1.2378,1.1205,-0.5979,0.2793,0.1191,-87.6,30.9,4.35,-4.17,-2.75,-8.42,0.0229,-0.0731,-0.0055,6.1875,33.5,43.0625,346.125,-25.0,162.625,0
1776973116.121,9.3733,2.1955,1.075,-1.3933,0.2697,0.1058,-99.45,9.3,44.1,9.4715,1.2378,1.1205,-0.671,0.308,0.1338,-87.0,30.9,4.35,-4.17,-2.75,-8.42,0.0142,-0.0644,-0.0065,6.1875,33.5,43.0625,346.125,-25.0625,162.625,0
1776973116.127,9.584,2.1859,1.0702,-1.3646,0.2848,0.0815,-99.45,9.3,44.1,9.7612,1.4557,1.1181,-0.6976,0.2779,0.1434,-87.0,31.05,5.7,-4.12,-2.79,-8.39,0.0142,-0.0644,-0.0065,6.1875,33.5,43.0625,346.125,-25.0625,162.625,0
1776973116.136,9.5672,2.0638,0.8811,-1.2835,0.3142,0.0671,-98.4,7.05,45.6,9.481,1.5921,0.814,-0.6398,0.3072,0.1543,-87.0,31.05,5.7,-3.99,-2.84,-8.3,0.012,-0.0622,0.0022,6.1875,33.5,43.0625,346.125,-25.0625,162.5625,0
1776973116.141,9.5672,2.0638,0.8811,-1.2835,0.3142,0.0671,-100.5,9.0,44.4,9.481,1.5921,0.814,-0.6398,0.3072,0.1543,-87.0,31.05,5.7,-3.99,-2.84,-8.3,0.0022,-0.0731,0.0164,6.1875,33.5,43.0625,346.125,-25.125,162.5625,0
1776973116.147,9.5696,2.1859,0.7685,-1.1884,0.3262,0.0663,-100.5,9.0,44.4,9.5337,1.2737,1.0654,-0.5337,0.3051,0.1641,-85.8,31.2,5.85,-4.0,-2.86,-8.36,0.0022,-0.0731,0.0164,6.1875,33.5,43.0625,346.125,-25.125,162.5625,0
1776973116.152,9.5696,2.1859,0.7685,-1.1884,0.3262,0.0663,-99.9,7.5,44.85,9.5337,1.2737,1.0654,-0.5337,0.3051,0.1641,-86.1,30.9,4.35,-4.0,-2.86,-8.36,0.0022,-0.0731,0.0164,5.1875,33.75,42.25,346.125,-25.1875,162.5625,0
1776973116.157,9.6031,2.2051,0.838,-1.0997,0.3222,0.0677,-99.9,7.5,44.85,9.4834,1.075,1.0056,-0.4639,0.295,0.182,-86.1,30.9,4.35,-4.15,-2.68,-8.49,-0.0109,-0.108,0.0316,5.1875,33.75,42.25,346.125,-25.1875,162.5625,0
1776973116.162,9.6031,2.2051,0.838,-1.0997,0.3222,0.0677,-100.05,6.9,44.7,9.4834,1.075,1.0056,-0.4639,0.295,0.182,-86.85,30.45,5.55,-4.15,-2.68,-8.49,-0.0109,-0.108,0.0316,5.1875,33.75,42.25,346.1875,-25.25,162.5625,0
1776973116.167,9.4786,2.1308,1.0319,-1.0064,0.324,0.0714,-100.05,6.9,44.7,9.4906,0.9505,0.9146,-0.385,0.3118,0.1895,-86.85,30.45,5.55,-4.35,-2.58,-8.47,-0.0196,-0.1418,0.0415,5.1875,33.75,42.25,346.1875,-25.25,162.5625,0
1776973116.172,9.4786,2.1308,1.0319,-1.0064,0.324,0.0714,-99.3,7.95,45.0,9.4906,0.9505,0.9146,-0.385,0.3118,0.1895,-86.55,28.95,6.9,-4.35,-2.58,-8.47,-0.0164,-0.1473,0.048,5.1875,33.75,42.25,346.1875,-25.3125,162.625,0
1776973116.177,9.5529,1.7645,1.2115,-0.9398,0.323,0.0584,-99.3,7.95,45.0,9.6295,0.4477,1.2258,-0.3232,0.3027,0.1812,-86.55,28.95,6.9,-4.29,-2.63,-8.48,-0.0164,-0.1473,0.048,5.1875,33.75,42.25,346.1875,-25.3125,162.625,0
1776973116.186,9.5241,1.2977,1.1564,-0.8521,0.3227,0.048,-99.3,7.95,45.0,9.6391,0.2873,1.5754,-0.2675,0.3022,0.1759,-86.55,29.7,7.35,-4.29,-2.57,-8.51,-0.0142,-0.1385,0.0436,5.1875,33.75,42.25,346.1875,-25.4375,162.625,0
1776973116.191,9.5241,1.2977,1.1564,-0.8521,0.3227,0.048,-100.35,5.4,45.75,9.6391,0.2873,1.5754,-0.2675,0.3022,0.1759,-86.55,29.7,7.35,-4.29,-2.57,-8.51,-0.0131,-0.1342,0.0371,5.1875,33.75,42.25,346.1875,-25.5,162.625,0
1776973116.197,10.149,1.2067,1.1923,-0.8673,0.4714,0.0629,-100.35,5.4,45.75,9.6007,0.1365,1.6424,-0.2622,0.3112,0.1921,-85.95,30.3,6.0,-4.3,-2.56,-8.48,-0.0131,-0.1342,0.0371,5.1875,33.75,42.25,346.1875,-25.5,162.625,0
1776973116.202,10.149,1.2067,1.1923,-0.8673,0.4714,0.0629,-100.95,6.75,46.2,9.6917,0.407,1.5347,-0.2622,0.3112,0.1921,-85.95,30.3,6.0,-4.3,-2.56,-8.48,0.0142,-0.1222,0.0229,5.1875,33.75,42.25,346.1875,-25.5625,162.625,0
1776973116.207,9.7468,1.2234,1.4174,-0.7554,0.2697,0.0789,-100.95,6.75,46.2,9.6917,0.407,1.5347,-0.2577,0.3088,0.2006,-85.95,30.3,6.0,-4.41,-2.57,-8.52,0.0142,-0.1222,0.0229,5.1875,33.75,42.25,346.1875,-25.5625,162.625,0
1776973116.212,9.7468,1.2234,1.4174,-0.858,0.376,0.0997,-99.6,6.15,47.55,9.8114,0.8212,1.4964,-0.2577,0.3088,0.2006,-86.85,29.25,6.6,-4.41,-2.57,-8.52,0.0142,-0.1222,0.0229,5.1875,33.75,42.25,346.1875,-25.625,162.625,0
1776973116.217,9.4595,1.0463,1.561,-0.858,0.376,0.0997,-99.6,6.15,47.55,9.8114,0.8212,1.4964,-0.2582,0.2984,0.2033,-86.85,29.25,6.6,-4.13,-2.75,-8.36,0.0142,-0.1222,0.0229,5.1875,33.75,42.25,346.1875,-25.625,162.625,0
1776973116.222,10.1347,1.1205,1.4365,-0.8527,0.3238,0.1087,-100.2,4.8,47.25,9.7947,0.8164,1.7382,-0.2582,0.2984,0.2033,-86.85,29.25,6.6,-4.13,-2.75,-8.36,0.0175,-0.1113,0.0185,5.1875,33.75,42.25,346.1875,-25.6875,162.5625,0
1776973116.228,10.1347,1.1205,1.4365,-0.8527,0.3238,0.1087,-100.2,4.8,47.25,9.7947,0.8164,1.7382,-0.2774,0.2819,0.1751,-86.7,29.55,7.2,-4.05,-2.84,-8.33,0.0175,-0.1113,0.0185,5.1875,33.75,42.25,346.1875,-25.6875,162.5625,0
1776973116.236,9.7683,0.8954,1.5155,-0.9966,0.3451,0.1069,-100.2,4.8,47.25,9.7133,0.0718,1.7406,-0.2459,0.2883,0.1735,-86.7,27.9,7.5,-3.94,-2.9,-8.34,0.0044,-0.1724,0.0436,5.1875,33.75,42.25,346.1875,-25.8125,162.5625,0
1776973116.241,9.7683,0.8954,1.5155,-1.007,0.3325,0.0973,-100.2,4.8,47.25,9.7612,-0.2945,1.8387,-0.2459,0.2883,0.1735,-86.7,27.9,7.5,-3.94,-2.9,-8.34,0.0044,-0.2105,0.0556,5.1875,33.75,42.25,346.25,-25.875,162.5625,0
1776973116.248,9.7755,0.8691,1.5897,-1.007,0.3325,0.0973,-101.1,3.15,47.25,9.7612,-0.2945,1.8387,-0.271,0.292,0.1937,-87.0,29.55,6.75,-4.3,-2.66,-8.43,0.0044,-0.2105,0.0556,5.1875,33.75,42.25,346.25,-25.875,162.5625,0
1776973116.252,9.7588,0.6728,1.5634,-1.1175,0.2979,0.0949,-101.1,3.15,50.4,9.8138,-0.1101,1.7502,-0.3637,0.3027,0.2092,-86.7,28.35,7.95,-4.36,-2.55,-8.44,0.0098,-0.1974,0.0622,5.875,33.75,42.25,346.25,-26.0,162.5625,0
1776973116.258,9.7588,0.6728,1.5634,-1.1175,0.2979,0.0949,-99.45,4.5,49.05,9.8138,-0.1101,1.7502,-0.3637,0.3027,0.2092,-86.7,28.35,7.95,-4.36,-2.55,-8.44,0.0098,-0.1974,0.0622,5.875,33.75,42.25,346.25,-26.0,162.5625,0
1776973116.262,9.5672,0.6033,1.5155,-1.2167,0.312,0.0967,-99.45,4.5,49.05,9.6606,0.2131,1.6903,-0.3816,0.3104,0.2158,-86.7,28.35,7.95,-4.36,-2.55,-8.44,0.012,-0.1909,0.06,5.875,33.75,42.25,346.25,-26.125,162.5625,0
1776973116.267,9.5672,0.6033,1.5155,-1.2167,0.312,0.0967,-98.25,3.45,49.95,9.6606,0.2131,1.6903,-0.3816,0.3104,0.2158,-86.7,27.9,8.7,-4.39,-2.56,-8.41,0.012,-0.1909,0.06,5.875,33.75,42.25,346.25,-26.125,162.5625,0
1776973116.272,9.3613,0.6105,1.4653,-1.3166,0.3275,0.1103,-98.25,3.45,49.95,9.572,0.4717,1.8507,-0.3752,0.3174,0.2089,-86.7,27.9,8.7,-4.39,-2.56,-8.41,0.0185,-0.1876,0.0589,5.875,33.75,42.25,346.3125,-26.25,162.5625,0
1776973116.278,9.3613,0.6105,1.4653,-1.3166,0.3275,0.1103,-99.15,3.0,50.1,9.572,0.4717,1.8507,-0.3752,0.3174,0.2089,-86.7,27.9,8.7,-4.36,-2.63,-8.39,0.0185,-0.1876,0.0589,5.875,33.75,42.25,346.3125,-26.3125,162.5,0
1776973116.287,9.0237,0.6847,1.4413,-1.4344,0.3555,0.1194,-99.15,3.0,50.1,9.4092,0.1963,1.7023,-0.3954,0.3115,0.2161,-87.75,28.35,9.0,-4.44,-2.64,-8.37,0.024,-0.1734,0.0622,5.875,33.75,42.25,346.3125,-26.4375,162.5,0
1776973116.297,9.1722,0.5722,1.3024,-1.5122,0.3722,0.1343,-99.15,3.0,50.1,9.4739,0.1053,1.6927,-0.4175,0.3317,0.2441,-87.75,28.35,9.0,-4.54,-2.57,-8.35,0.0207,-0.1516,0.06,5.875,33.75,42.25,346.3125,-26.4375,162.5,0
1776973116.302,9.2201,0.4094,1.3503,-1.5721,0.352,0.1426,-97.8,1.65,51.0,9.3685,0.1652,1.573,-0.4612,0.3416,0.2641,-87.75,28.35,9.0,-4.54,-2.57,-8.35,0.0207,-0.1516,0.06,5.875,33.75,42.25,346.375,-26.5,162.5,0
1776973116.307,9.2201,0.4094,1.3503,-1.5721,0.352,0.1426,-96.45,1.2,49.95,9.3685,0.1652,1.573,-0.4612,0.3416,0.2641,-86.85,27.3,9.6,-4.41,-2.58,-8.35,0.0164,-0.1364,0.0589,6.5625,33.5,41.0625,346.375,-26.5,162.5,0
1776973116.312,9.1985,0.4118,1.4724,-1.5351,0.2657,0.1468,-96.45,1.2,49.95,9.2775,0.4429,1.5826,-0.4972,0.3541,0.2814,-86.85,27.3,9.6,-4.41,-2.58,-8.35,0.0164,-0.1364,0.0589,6.5625,33.5,41.0625,346.375,-26.5,162.5,0
1776973116.317,9.1985,0.4118,1.4724,-1.5351,0.2657,0.1468,-97.05,0.9,48.9,9.2775,0.4429,1.5826,-0.4972,0.3541,0.2814,-86.55,27.75,9.9,-4.53,-2.58,-8.34,0.0164,-0.1287,0.0556,6.5625,33.5,41.0625,346.375,-26.5625,162.5,0
1776973116.321,9.4739,0.51,1.7166,-1.4981,0.2982,0.1228,-97.05,0.9,48.9,9.4188,0.7302,1.4988,-0.5116,0.3813,0.2992,-86.55,27.75,9.9,-4.53,-2.58,-8.34,0.0065,-0.1102,0.0524,6.5625,33.5,41.0625,346.375,-26.6875,162.5,0
1776973116.328,9.4739,0.51,1.7166,-1.4981,0.2982,0.1228,-94.95,0.9,51.0,9.5577,0.6416,1.64,-0.5116,0.3813,0.2992,-86.25,26.4,9.75,-4.48,-2.61,-8.32,0.0065,-0.1102,0.0524,6.5625,33.5,41.0625,346.375,-26.6875,162.5,0
1776973116.336,9.7157,0.7494,1.7597,-1.3728,0.3211,0.1138,-95.85,0.0,50.85,9.5577,0.6416,1.64,-0.5212,0.3861,0.3067,-86.7,27.9,12.3,-4.4,-2.67,-8.31,0.0022,-0.0982,0.0545,6.5625,33.5,41.0625,346.4375,-26.75,162.5,0
1776973116.341,9.6678,0.929,1.7047,-1.339,0.3816,0.1063,-95.85,0.0,50.85,9.6175,0.1652,1.8866,-0.5028,0.3952,0.3227,-86.7,27.9,12.3,-4.4,-2.67,-8.31,-0.0011,-0.096,0.0611,6.5625,33.5,41.0625,346.4375,-26.8125,162.5625,0
1776973116.348,9.3398,1.0343,1.7741,-1.3278,0.3613,0.1135,-95.85,0.0,50.85,9.6582,-0.0766,1.7837,-0.5119,0.409,0.3389,-86.7,27.9,12.3,-4.43,-2.65,-8.32,-0.0011,-0.096,0.0611,6.5625,33.5,41.0625,346.4375,-26.8125,162.5625,0
1776973116.353,9.3398,1.0343,1.7741,-1.3278,0.3613,0.1135,-95.85,0.0,50.85,9.6582,-0.0766,1.7837,-0.5119,0.409,0.3389,-86.7,27.9,12.3,-4.45,-2.63,-8.3,0.0033,-0.0927,0.0633,6.1875,33.5,42.25,346.5,-26.8125,162.5625,0
1776973116.358,9.4284,1.1468,1.9489,-1.3025,0.3552,0.1079,-94.95,-0.9,51.45,9.6558,-0.1628,1.8292,-0.5191,0.4397,0.3379,-86.1,26.1,11.4,-4.45,-2.63,-8.3,0.0033,-0.0927,0.0633,6.1875,33.5,42.25,346.5,-26.8125,162.5625,0
1776973116.363,9.4284,1.1468,1.9489,-1.3025,0.3552,0.1079,-94.95,-0.9,51.45,9.6558,-0.1628,1.8292,-0.5191,0.4397,0.3379,-86.1,26.1,11.4,-4.45,-2.63,-8.3,0.0087,-0.0949,0.0665,6.1875,33.5,42.25,346.5,-26.875,162.5625,0
1776973116.368,9.4595,1.2043,1.9369,-1.2766,0.3579,0.1079,-94.95,-0.45,50.4,9.5217,-0.0599,1.652,-0.5788,0.462,0.3331,-86.1,26.1,11.4,-4.45,-2.63,-8.32,0.0087,-0.0949,0.0665,6.1875,33.5,42.25,346.5,-26.875,162.5625,0
1776973116.373,9.4595,1.2043,1.9369,-1.2766,0.3579,0.1079,-94.95,-0.45,50.4,9.5217,-0.0599,1.652,-0.5788,0.462,0.3331,-86.1,26.1,11.4,-4.45,-2.63,-8.32,0.0109,-0.0927,0.0709,6.1875,33.5,42.25,346.5625,-26.9375,162.5625,0
1776973116.378,9.4092,1.3647,1.8459,-1.262,0.3808,0.1045,-95.25,0.15,52.5,9.3733,0.2562,1.6879,-0.5582,0.4839,0.3328,-86.1,26.55,12.45,-4.43,-2.64,-8.32,0.0109,-0.0927,0.0709,6.1875,33.5,42.25,346.5625,-26.9375,162.5625,0
1776973116.387,9.3206,1.5347,1.5682,-1.2209,0.4029,0.0949,-94.5,-0.45,52.05,9.1626,0.4334,1.9369,-0.5383,0.4914,0.3315,-85.5,25.5,12.0,-4.57,-2.75,-8.24,0.0076,-0.0807,0.0731,6.1875,33.5,42.25,346.5625,-27.0,162.5625,0
1776973116.391,9.3206,1.5347,1.5682,-1.2209,0.4029,0.0949,-94.5,-0.45,52.05,9.1626,0.4334,1.9369,-0.5383,0.4914,0.3315,-85.5,25.5,12.0,-4.57,-2.75,-8.24,-0.0065,-0.0589,0.0698,6.1875,33.5,42.25,346.625,-27.0625,162.5625,0
1776973116.398,9.3015,1.6951,1.6185,-1.158,0.3898,0.0799,-94.5,-0.45,52.05,9.347,0.3304,1.98,-0.562,0.5039,0.3568,-85.05,25.8,11.85,-4.54,-2.65,-8.29,-0.0065,-0.0589,0.0698,6.1875,33.5,42.25,346.625,-27.0625,162.5625,0
1776973116.403,9.3015,1.6951,1.6185,-1.158,0.3898,0.0799,-94.5,-0.45,52.05,9.347,0.3304,1.98,-0.562,0.5039,0.3568,-85.05,25.8,11.85,-4.54,-2.65,-8.29,-0.0065,-0.0589,0.0698,7.375,33.5,42.5625,346.625,-27.125,162.625,0
1776973116.408,9.3853,1.6352,1.6975,-1.1514,0.3869,0.069,-95.1,-0.3,54.15,9.4092,0.4621,1.9537,-0.5761,0.5148,0.385,-85.05,24.15,13.2,-4.56,-2.46,-8.36,-0.0098,-0.0382,0.0709,7.375,33.5,42.5625,346.625,-27.125,162.625,0
1776973116.413,9.3853,1.6352,1.6975,-1.1514,0.3869,0.069,-95.1,-0.3,54.15,9.4092,0.4621,1.9537,-0.5761,0.5148,0.385,-85.05,24.15,13.2,-4.56,-2.46,-8.36,-0.0098,-0.0382,0.0709,7.375,33.5,42.5625,346.6875,-27.125,162.625,0
1776973116.418,9.4332,1.4988,1.798,-1.1671,0.3491,0.061,-95.1,-1.5,55.5,9.6582,0.5866,2.1045,-0.563,0.5316,0.4048,-85.2,25.2,13.5,-4.5,-2.65,-8.31,0.0011,-0.036,0.0698,7.375,33.5,42.5625,346.6875,-27.125,162.625,0
1776973116.423,9.4332,1.4988,1.798,-1.1671,0.3491,0.061,-95.1,-1.5,55.5,9.6582,0.5866,2.1045,-0.563,0.5316,0.4048,-85.2,25.2,13.5,-4.5,-2.65,-8.31,-0.0022,-0.0229,0.0807,7.375,33.5,42.5625,346.75,-27.1875,162.625,0
1776973116.428,9.4978,1.3575,1.9441,-1.1914,0.3373,0.0504,-95.25,-0.9,56.1,9.6702,0.4453,2.0135,-0.5785,0.5361,0.4138,-86.25,24.75,14.55,-4.39,-2.78,-8.27,-0.0022,-0.0229,0.0807,7.375,33.5,42.5625,346.75,-27.1875,162.625,0
1776973116.437,9.6343,0.9768,1.9393,-1.2212,0.3541,0.0474,-93.3,-0.3,57.3,9.7396,-0.1556,1.9609,-0.5897,0.5828,0.4402,-86.25,24.75,14.55,-4.42,-2.79,-8.3,-0.0065,-0.0164,0.0982,7.375,33.5,42.5625,346.8125,-27.1875,162.625,0
1776973116.442,9.6343,0.9768,1.9393,-1.2212,0.3541,0.0474,-93.3,-0.3,57.3,9.7396,-0.1556,1.9609,-0.5897,0.5828,0.4402,-86.25,24.75,14.55,-4.42,-2.79,-8.3,-0.0131,-0.0011,0.1233,7.375,33.5,42.5625,346.875,-27.1875,162.6875,0
1776973116.448,9.9407,0.7422,1.8268,-1.2249,0.372,0.0544,-95.85,-1.5,59.4,9.9335,-0.6393,1.901,-0.635,0.586,0.4602,-85.35,25.05,15.45,-4.46,-2.67,-8.25,-0.0131,-0.0011,0.1233,7.375,33.5,42.5625,346.875,-27.1875,162.6875,0
1776973116.453,9.9407,0.7422,1.8268,-1.2249,0.372,0.0544,-95.85,-1.5,59.4,9.8881,-0.8428,1.7957,-0.635,0.586,0.4602,-85.35,25.05,15.45,-4.46,-2.67,-8.25,-0.0273,0.0131,0.144,7.0,32.6875,41.875,346.9375,-27.1875,162.75,0
1776973116.458,10.0269,0.6584,1.6855,-1.2108,0.3597,0.077,-95.85,-1.5,59.4,9.8881,-0.8428,1.7957,-0.6957,0.5862,0.4868,-85.35,25.05,15.45,-4.35,-2.33,-8.63,-0.0273,0.0131,0.144,7.0,32.6875,41.875,346.9375,-27.1875,162.75,0
1776973116.463,10.0269,0.6584,1.6855,-1.2108,0.3597,0.077,-95.85,-1.5,59.4,9.7827,-0.3591,1.6664,-0.7168,0.5758,0.5068,-85.35,25.05,15.45,-4.35,-2.33,-8.63,-0.0273,0.0142,0.1582,7.0,32.6875,41.875,347.0,-27.25,162.8125,0
1776973116.468,9.9288,0.7446,1.5586,-1.1847,0.3256,0.0951,-93.45,-3.9,60.3,9.7827,-0.3591,1.6664,-0.7168,0.5758,0.5068,-85.5,22.5,16.35,-4.53,-2.46,-8.43,-0.0273,0.0142,0.1582,7.0,32.6875,41.875,347.0,-27.25,162.8125,0
1776973116.473,9.9288,0.7446,1.5586,-1.1847,0.3256,0.0951,-93.45,-3.9,60.3,9.8474,-0.1125,1.5658,-0.6811,0.5902,0.5153,-85.5,22.5,16.35,-4.53,-2.46,-8.43,-0.0644,0.0327,0.168,7.0,32.6875,41.875,347.125,-27.25,162.875,0
1776973116.478,9.7899,0.9936,1.3815,-1.1231,0.2899,0.1194,-95.4,-4.5,61.5,9.8474,-0.1125,1.5658,-0.6811,0.5902,0.5153,-85.05,22.95,16.2,-4.42,-2.56,-8.59,-0.0644,0.0327,0.168,7.0,32.6875,41.875,347.1875,-27.25,163.0,0
1776973116.487,9.7109,1.1732,1.4102,-1.0784,0.2505,0.1327,-94.05,-3.75,60.9,9.6965,-0.2011,1.8244,-0.6355,0.6163,0.5295,-85.05,21.9,16.65,-4.31,-2.5,-8.7,-0.1244,0.0022,0.1724,7.0,32.6875,41.875,347.1875,-27.25,163.0,0
1776973116.487,9.7109,1.1732,1.4102,-1.0784,0.2505,0.1327,-94.05,-3.75,60.9,9.6965,-0.2011,1.8244,-0.6355,0.6163,0.5295,-85.05,21.9,16.65,-4.31,-2.5,-8.7,-0.1244,0.0022,0.1724,7.0,32.6875,41.875,347.1875,-27.25,163.0,0
1776973116.497,9.6558,1.4533,1.585,-1.0549,0.211,0.1532,-93.45,-4.95,60.3,9.8785,0.3663,1.9848,-0.6099,0.64,0.5513,-86.1,22.65,16.95,-4.21,-2.42,-8.76,-0.1364,-0.0491,0.1702,7.0,32.6875,41.875,347.25,-27.3125,163.125,0
1776973116.502,9.6558,1.4533,1.585,-1.0549,0.211,0.1532,-93.45,-4.95,60.3,9.8713,0.1724,2.4181,-0.5574,0.6523,0.5785,-86.1,22.65,16.95,-4.21,-2.42,-8.76,-0.1364,-0.0491,0.1702,7.0,32.6875,41.875,347.25,-27.3125,163.125,0
1776973116.507,9.572,1.5538,1.7837,-1.097,0.2028,0.1796,-93.45,-4.95,60.3,9.8713,0.1724,2.4181,-0.5574,0.6523,0.5785,-86.1,22.65,16.95,-4.12,-2.32,-8.81,-0.1625,-0.1265,0.1342,7.0,33.5,43.0,347.3125,-27.4375,163.25,0
1776973116.512,9.572,1.5538,1.7837,-1.097,0.2028,0.1796,-93.45,-4.95,60.3,9.821,-0.2418,2.569,-0.4349,0.6526,0.5939,-86.1,22.65,16.95,-4.12,-2.32,-8.81,-0.1625,-0.1265,0.1342,7.0,33.5,43.0,347.3125,-27.4375,163.25,0
1776973116.517,9.596,1.47,2.0614,-1.1178,0.2222,0.2129,-93.9,-4.95,62.1,9.821,-0.2418,2.569,-0.4349,0.6526,0.5939,-85.95,20.4,17.85,-4.5,-2.53,-8.45,-0.2127,-0.156,0.1189,7.0,33.5,43.0,347.3125,-27.5,163.375,0
1776973116.525,9.651,1.2665,2.5355,-1.1242,0.2337,0.2345,-94.5,-6.9,60.6,9.7995,-0.656,2.545,-0.4109,0.655,0.5985,-85.95,20.4,17.85,-4.37,-2.66,-8.55,-0.2378,-0.1407,0.1113,7.0,33.5,43.0,347.3125,-27.625,163.5625,0
1776973116.53,9.651,1.2665,2.5355,-1.1242,0.2337,0.2345,-94.5,-6.9,60.6,9.7923,-1.0918,2.6791,-0.4109,0.655,0.5985,-85.95,20.4,17.85,-4.37,-2.66,-8.55,-0.2378,-0.1407,0.1113,7.0,33.5,43.0,347.375,-27.6875,163.6875,0
1776973116.538,9.7995,1.1444,2.8323,-1.0784,0.2422,0.2313,-93.0,-6.3,60.9,9.7923,-1.0918,2.6791,-0.4658,0.6467,0.6177,-86.25,19.65,18.6,-4.37,-2.76,-8.6,-0.2389,-0.1276,0.1287,7.0,33.5,43.0,347.375,-27.6875,163.6875,0
1776973116.544,9.845,1.0439,3.0694,-0.9926,0.2196,0.215,-94.5,-6.9,61.05,9.6606,-1.1827,2.4924,-0.5132,0.6542,0.6422,-86.25,19.65,18.6,-4.35,-2.41,-8.6,-0.2291,-0.1702,0.1494,7.0,33.5,43.0,347.375,-27.75,163.8125,0
1776973116.549,9.845,1.0439,3.0694,-0.9926,0.2196,0.215,-94.5,-6.9,61.05,9.6079,-0.7254,2.4014,-0.5926,0.6784,0.668,-86.1,20.25,20.25,-4.35,-2.41,-8.6,-0.2291,-0.1702,0.1494,7.0,33.5,43.0,347.375,-27.75,163.8125,0
1776973116.554,9.8162,0.9912,2.9928,-0.8452,0.2105,0.1767,-93.15,-5.4,61.35,9.6079,-0.7254,2.4014,-0.5926,0.6784,0.668,-86.1,20.25,20.25,-4.39,-2.48,-8.65,-0.1473,-0.3142,0.1974,7.6875,32.25,41.875,347.4375,-27.9375,163.9375,0
1776973116.559,9.8162,0.9912,2.9928,-0.8452,0.2105,0.1767,-93.15,-5.4,61.35,9.8593,-0.431,2.6983,-0.6901,0.6923,0.6845,-84.6,17.55,19.95,-4.39,-2.48,-8.65,-0.1473,-0.3142,0.1974,7.6875,32.25,41.875,347.4375,-27.9375,163.9375,0
1776973116.564,9.9335,0.8859,2.7653,-0.7123,0.2254,0.1458,-93.15,-5.4,61.35,9.8593,-0.431,2.6983,-0.6901,0.6923,0.6845,-84.6,17.55,19.95,-4.27,-2.83,-8.75,-0.0785,-0.4036,0.2291,7.6875,32.25,41.875,347.5,-28.125,164.0,0
1776973116.569,9.9335,0.8859,2.7653,-0.7123,0.2254,0.1458,-93.15,-5.4,61.35,9.8785,-0.2466,2.5929,-0.6694,0.712,0.6933,-85.35,18.0,19.95,-4.27,-2.83,-8.75,-0.0785,-0.4036,0.2291,7.6875,32.25,41.875,347.5,-28.125,164.0,0
1776973116.574,9.8617,0.8116,2.1739,-0.6166,0.2324,0.1098,-93.15,-7.2,60.0,9.8785,-0.2466,2.5929,-0.6694,0.712,0.6933,-85.35,18.0,19.95,-4.21,-2.63,-8.75,-0.048,-0.4603,0.2629,7.6875,32.25,41.875,347.625,-28.375,164.0625,0
1776973116.579,9.8617,0.8116,2.1739,-0.6166,0.2324,0.1098,-93.15,-7.2,60.0,10.0916,-0.3424,2.5307,-0.6872,0.7282,0.7264,-84.6,17.55,20.25,-4.21,-2.63,-8.75,-0.048,-0.4603,0.2629,7.6875,32.25,41.875,347.75,-28.6875,164.125,0
1776973116.587,9.9479,0.8284,1.64,-0.5849,0.2417,0.089,-93.3,-6.0,60.9,10.1706,-0.4597,2.1452,-0.6872,0.7282,0.7264,-85.95,16.95,21.6,-4.26,-2.25,-8.81,-0.0109,-0.5814,0.3022,7.6875,32.25,41.875,347.75,-28.6875,164.125,0
1776973116.593,10.0509,0.9313,1.257,-0.6368,0.2326,0.0709,-92.4,-4.95,60.6,10.1706,-0.4597,2.1452,-0.6859,0.7296,0.7584,-85.95,16.95,21.6,-4.27,-2.24,-8.86,0.012,-0.7429,0.324,7.6875,32.25,41.875,347.875,-29.0625,164.125,0
1776973116.599,10.0509,0.9313,1.257,-0.6368,0.2326,0.0709,-92.4,-4.95,60.6,10.1083,-0.316,1.7621,-0.6376,0.7546,0.8037,-85.95,16.95,21.6,-4.27,-2.24,-8.86,0.012,-0.7429,0.324,7.6875,32.25,41.875,347.875,-29.0625,164.125,0
1776973116.603,10.0916,1.2186,0.9194,-0.7133,0.203,0.0368,-92.4,-7.95,62.4,10.1083,-0.316,1.7621,-0.6376,0.7546,0.8037,-85.95,16.95,21.6,-4.23,-2.11,-8.76,0.0404,-0.9087,0.3534,8.875,32.25,42.25,348.0,-29.5625,164.125,0
1776973116.608,10.0916,1.2186,0.9194,-0.7133,0.203,0.0368,-92.4,-7.95,62.4,10.2807,-0.2107,1.6544,-0.6166,0.7957,0.8593,-84.75,16.2,23.4,-4.23,-2.11,-8.76,0.0404,-0.9087,0.3534,8.875,32.25,42.25,348.0,-29.5625,164.125,0
1776973116.613,10.501,1.652,0.6488,-0.7922,0.1657,-0.0139,-92.4,-7.95,62.4,10.2807,-0.2107,1.6544,-0.6166,0.7957,0.8593,-84.75,16.2,23.4,-4.23,-2.11,-8.76,0.0905,-1.0876,0.4025,8.875,32.25,42.25,348.1875,-30.25,164.125,0
1776973116.618,10.501,1.652,0.6488,-0.7922,0.1657,-0.0139,-92.4,-7.95,62.4,10.5896,0.0383,1.2522,-0.5934,0.8298,0.9134,-85.05,15.15,22.2,-4.35,-2.1,-8.77,0.0905,-1.0876,0.4025,8.875,32.25,42.25,348.3125,-31.0,164.0625,0
1776973116.627,10.7691,2.2769,0.3639,-0.8567,0.1255,-0.0757,-92.4,-7.95,62.4,10.975,0.1053,0.8428,-0.5625,0.8817,0.9654,-85.2,14.25,23.4,-4.18,-1.94,-9.2,0.108,-1.2926,0.432,8.875,32.25,42.25,348.3125,-31.0,164.0625,0
1776973116.637,11.1929,2.6408,0.237,-0.8367,0.0762,-0.1455,-92.7,-10.65,61.8,11.2623,0.0287,0.3855,-0.5438,0.9497,1.0088,-84.0,14.55,23.1,-4.25,-2.03,-9.4,0.1353,-1.525,0.4549,8.875,32.25,42.25,348.5,-31.875,164.0,0
1776973116.647,11.2863,3.2322,0.1101,-0.7682,-0.052,-0.2936,-91.5,-13.5,62.7,11.4682,-0.2251,-0.1125,-0.5836,1.02,1.0536,-84.0,12.6,24.6,-4.19,-2.04,-9.47,0.1898,-1.825,0.4636,8.875,32.25,42.25,348.625,-32.9375,163.875,0
1776973116.652,11.3988,3.7589,-0.0239,-0.7682,-0.052,-0.2936,-92.55,-14.55,63.0,11.4682,-0.2251,-0.1125,-0.5836,1.02,1.0536,-84.0,12.6,24.6,-4.19,-2.04,-9.47,0.1898,-1.825,0.4636,8.875,32.25,42.25,348.8125,-34.125,163.6875,0
1776973116.657,11.2336,4.3981,-0.3591,-0.7618,-0.1218,-0.3797,-92.55,-14.55,63.0,11.6957,-0.4621,-0.6393,-0.631,1.0952,1.1008,-84.0,13.5,22.65,-4.16,-2.03,-9.34,0.2618,-2.1391,0.5247,11.0625,31.25,42.5625,348.8125,-34.125,163.6875,0
1776973116.662,11.2336,4.3981,-0.3591,-0.7618,-0.1218,-0.3797,-93.15,-15.9,63.9,11.6957,-0.4621,-0.6393,-0.631,1.0952,1.1008,-84.0,13.5,22.65,-4.16,-2.03,-9.34,0.2618,-2.1391,0.5247,11.0625,31.25,42.5625,349.0625,-35.5,163.5,0
1776973116.667,11.4156,4.9249,-0.8739,-0.6779,-0.2172,-0.5023,-93.15,-15.9,63.9,11.8441,-0.3065,-1.0726,-0.708,1.1706,1.1676,-84.0,13.5,22.65,-4.06,-1.85,-9.53,0.3229,-2.4446,0.6087,11.0625,31.25,42.5625,349.0625,-35.5,163.5,0
1776973116.672,11.4156,4.9249,-0.8739,-0.6779,-0.2172,-0.5023,-93.15,-15.9,63.9,11.8441,-0.3065,-1.0726,-0.708,1.1706,1.1676,-84.0,13.5,22.65,-4.06,-1.85,-9.53,0.4429,-2.7718,0.7003,11.0625,31.25,42.5625,349.3125,-37.125,163.1875,0
1776973116.678,11.224,5.138,-1.6472,-0.5132,-0.2896,-0.6499,-93.15,-15.9,63.9,12.0955,-0.1077,-1.8004,-0.7778,1.2644,1.2207,-84.45,11.1,26.7,-4.05,-1.47,-9.94,0.4429,-2.7718,0.7003,11.0625,31.25,42.5625,349.6875,-38.875,162.875,0
1776973116.688,11.1761,5.2792,-2.2984,-0.3134,-0.4565,-0.7973,-94.95,-20.7,64.65,12.5624,-0.091,-2.1883,-0.8796,1.3534,1.2649,-84.45,11.1,26.7,-4.35,-3.07,-8.14,0.5869,-3.0096,0.8596,11.0625,31.25,42.5625,349.6875,-38.875,162.875,0
1776973116.698,11.0756,5.3798,-3.3423,-0.133,-0.7552,-0.9236,-97.35,-24.0,65.55,13.0652,-0.2466,-2.7701,-0.9875,1.4472,1.323,-83.1,10.5,26.55,-3.85,-1.57,-9.75,0.4952,-3.2398,1.009,11.0625,31.25,42.5625,350.125,-40.75,162.5625,0
1776973116.702,11.0756,5.3798,-3.3423,-0.133,-0.7552,-0.9236,-97.8,-23.7,67.5,13.9031,-0.012,-3.2992,-0.9875,1.4472,1.323,-83.1,10.5,26.55,-3.85,-1.57,-9.75,0.4952,-3.2398,1.009,11.0625,31.25,42.5625,350.125,-40.75,162.5625,0
1776973116.707,11.0732,5.193,-3.8547,0.0083,-1.0496,-1.0592,-97.8,-23.7,67.5,13.9031,-0.012,-3.2992,-1.1189,1.5388,1.3992,-82.65,7.35,27.3,-4.04,-1.55,-9.78,0.4931,-3.6554,1.0974,15.0625,31.5625,39.5,26.8125,-42.875,162.25,0
1776973116.712,11.0732,5.193,-3.8547,0.0083,-1.0496,-1.0592,-96.9,-23.55,66.15,15.3397,-0.7542,-3.7661,-1.1189,1.5388,1.3992,-82.65,7.35,27.3,-4.04,-1.55,-9.78,0.4931,-3.6554,1.0974,15.0625,31.5625,39.5,26.8125,-42.875,162.25,0
1776973116.717,11.5065,4.7621,-3.5506,0.5271,-1.2686,-1.2462,-96.9,-23.55,66.15,15.3397,-0.7542,-3.7661,-1.392,1.5934,1.469,-82.35,6.6,27.0,-4.11,-0.99,-10.13,0.5912,-4.0546,1.2086,15.0625,31.5625,39.5,25.3125,-45.1875,161.875,0
1776973116.724,11.5065,4.7621,-3.5506,0.5271,-1.2686,-1.2462,-96.9,-23.55,66.15,15.67,-1.8962,-3.3303,-1.5716,1.6382,1.4837,-82.35,6.6,27.0,-4.16,-1.21,-10.66,0.8116,-4.4909,1.2905,15.0625,31.5625,39.5,24.0,-47.75,161.3125,0
1776973116.729,11.1235,3.6296,-3.3208,0.7346,-1.4903,-1.4165,-96.9,-23.55,66.15,15.67,-1.8962,-3.3303,-1.5716,1.6382,1.4837,-82.35,5.4,28.5,-4.16,-1.21,-10.66,0.8116,-4.4909,1.2905,15.0625,31.5625,39.5,22.8125,-50.75,160.4375,0
1776973116.738,11.2934,2.2194,-3.3854,0.6659,-1.8423,-1.5092,-96.9,-23.55,66.15,15.2678,-2.9449,-2.7246,-1.7451,1.6646,1.4845,-81.15,5.4,27.75,-5.62,-1.35,-10.71,1.0843,-5.1694,1.3243,15.0625,31.5625,39.5,22.8125,-50.75,160.4375,0
1776973116.748,11.1378,0.5483,-3.1915,0.6563,-2.1871,-1.5428,-98.4,-23.25,64.05,14.4921,-3.201,-1.324,-1.947,1.6787,1.4615,-80.85,4.2,29.55,-7.12,-0.65,-10.94,1.4824,-5.9167,1.1814,15.0625,31.5625,39.5,22.0625,-54.0625,158.9375,0
1776973116.753,11.1378,0.5483,-3.1915,0.6563,-2.1871,-1.5428,-98.85,-22.65,63.15,13.1681,-3.0789,0.5578,-2.137,1.6888,1.4674,-80.85,4.2,29.55,-7.12,-0.65,-10.94,1.4824,-5.9167,1.1814,15.0625,31.5625,39.5,22.0625,-54.0625,158.9375,0
1776973116.758,11.212,-0.6249,-2.0877,0.6446,-2.2772,-1.5439,-98.85,-22.65,63.15,13.1681,-3.0789,0.5578,-2.137,1.6888,1.4674,-80.85,4.2,29.55,-11.81,-1.28,-11.35,2.1337,-6.4763,0.8661,22.1875,30.5,34.75,22.0625,-57.5625,156.4375,0
1776973116.763,11.212,-0.6249,-2.0877,0.6446,-2.2772,-1.5439,-97.65,-21.75,61.2,11.5855,-3.0885,2.5833,-2.1488,1.7733,1.4725,-80.85,4.2,29.55,-11.81,-1.28,-11.35,2.1337,-6.4763,0.8661,22.1875,30.5,34.75,22.0625,-57.5625,156.4375,0
1776973116.768,12.3158,-1.8364,-1.4916,0.5678,-2.2886,-1.5575,-97.65,-21.75,61.2,11.5855,-3.0885,2.5833,-2.1488,1.7733,1.4725,-77.4,1.95,31.05,-14.19,-3.14,-10.9,2.9169,-6.6246,0.5749,22.1875,30.5,34.75,22.8125,-61.0,152.625,0
1776973116.773,12.3158,-1.8364,-1.4916,0.5678,-2.2886,-1.5575,-97.5,-19.95,60.0,10.7404,-3.8164,4.8052,-2.0398,1.9135,1.4464,-77.4,1.95,31.05,-14.19,-3.14,-10.9,3.4568,-6.4534,0.4025,22.1875,30.5,34.75,24.0625,-64.1875,147.625,0
1776973116.778,13.0508,-3.1484,-0.8571,0.3653,-2.376,-1.5551,-97.5,-19.95,60.0,10.7404,-3.8164,4.8052,-2.0398,1.9135,1.4464,-78.15,0.0,32.55,-15.41,-4.4,-10.57,3.4568,-6.4534,0.4025,22.1875,30.5,34.75,25.6875,-67.0,141.5625,0
1776973116.788,13.8241,-3.9169,-0.0024,0.0938,-2.3952,-1.5633,-97.5,-19.95,60.0,10.3214,-4.5801,6.6272,-1.8407,2.0406,1.3997,-76.65,-2.7,33.3,-16.42,-4.66,-11.69,3.8692,-6.005,0.3076,22.1875,30.5,34.75,27.4375,-69.375,134.5625,0
1776973116.798,14.552,-4.3622,1.1516,-0.2745,-2.323,-1.5759,-96.15,-15.75,56.25,9.8067,-3.9792,6.6032,-1.4778,2.1512,1.2505,-76.8,-2.7,33.3,-13.17,-5.38,-9.74,4.2346,-5.3942,0.3916,22.1875,30.5,34.75,27.4375,-69.375,134.5625,0
1776973116.803,14.8632,-4.6184,2.047,-0.6973,-2.1847,-1.526,-96.6,-15.75,55.2,9.8067,-3.9792,6.6032,-1.1437,2.1059,1.0589,-76.8,-1.65,33.45,-13.17,-5.38,-9.74,4.2346,-5.3942,0.3916,22.1875,30.5,34.75,29.1875,-71.4375,127.0,0
1776973116.808,14.8632,-4.6184,2.047,-0.6973,-2.1847,-1.526,-95.1,-16.05,53.7,9.1937,-3.122,6.2584,-1.1437,2.1059,1.0589,-74.55,-3.6,34.5,-11.1,-4.84,-9.78,4.4255,-4.8695,0.6054,31.0,30.0625,21.75,29.1875,-71.4375,127.0,0
1776973116.813,14.3389,-4.6136,2.9928,-1.1074,-1.9811,-1.3531,-95.1,-16.05,53.7,9.1937,-3.122,6.2584,-0.8684,1.9737,0.8338,-74.55,-3.6,34.5,-11.1,-4.84,-9.78,4.4255,-4.8695,0.6054,31.0,30.0625,21.75,30.875,-73.1875,118.9375,0
1776973116.818,14.3389,-4.6136,2.9928,-1.1074,-1.9811,-1.3531,-97.05,-13.2,51.75,8.3893,-2.8252,5.7748,-0.8684,1.9737,0.8338,-74.55,-3.6,34.5,-7.65,-3.38,-9.06,4.6109,-4.371,0.9207,31.0,30.0625,21.75,30.875,-73.1875,118.9375,0
1776973116.825,13.2615,-4.3646,3.7158,-1.4719,-1.7176,-1.2108,-97.05,-13.2,51.75,8.3893,-2.8252,5.7748,-0.7392,1.7259,0.5321,-73.8,-3.3,34.95,-3.14,-3.53,-8.22,4.9502,-3.9717,1.2272,31.0,30.0625,21.75,32.5625,-74.6875,110.1875,0
1776973116.83,13.2615,-4.3646,3.7158,-1.4719,-1.7176,-1.2108,-96.45,-14.4,51.0,6.8618,-3.1412,6.0047,-0.5636,1.3725,0.1817,-73.8,-3.3,34.95,-3.14,-3.53,-8.22,4.9502,-3.9717,1.2272,31.0,30.0625,21.75,34.3125,-76.0,100.9375,0
1776973116.838,12.1961,-3.5913,4.3359,-1.8077,-1.5828,-1.1607,-96.45,-14.4,51.0,5.703,-4.8626,7.0892,-0.2705,1.0805,-0.1905,-75.15,-3.45,34.95,-0.63,-3.15,-7.03,5.332,-3.5103,1.5032,31.0,30.0625,21.75,35.75,-77.375,90.6875,0
1776973116.848,11.5999,-2.5474,4.1827,-2.1581,-1.3486,-1.1823,-96.15,-11.55,48.0,5.545,-6.9168,7.7405,0.2185,0.8156,-0.5393,-75.15,-3.45,35.85,1.34,-0.23,-7.13,5.4694,-3.2747,2.0497,31.0,30.0625,21.75,35.75,-77.375,90.6875,0
1776973116.853,11.2168,-1.6496,3.7757,-2.469,-1.2089,-1.3169,-96.15,-11.55,48.0,5.545,-6.9168,7.7405,0.2185,0.8156,-0.5393,-75.15,-3.45,35.85,1.34,-0.23,-7.13,5.4694,-3.2747,2.0497,31.0,30.0625,21.75,35.75,-77.375,90.6875,0
1776973116.858,11.2168,-1.6496,3.7757,-2.469,-1.2089,-1.3169,-97.05,-10.65,48.9,4.2018,-6.9935,8.3558,0.5905,0.5327,-0.6494,-75.15,-3.45,35.85,-18.64,-12.38,-11.9,5.0495,-2.6267,2.69,35.875,29.5,3.6875,36.6875,-78.75,80.5,0
1776973116.863,10.7524,-0.7326,3.2872,-2.6521,-1.0651,-1.4658,-97.05,-10.65,48.9,4.2018,-6.9935,8.3558,0.5905,0.5327,-0.6494,-73.65,-3.45,35.1,-18.64,-12.38,-11.9,5.0495,-2.6267,2.69,35.875,29.5,3.6875,36.6875,-78.75,80.5,0
1776973116.868,10.7524,-0.7326,3.2872,-2.6521,-1.0651,-1.4658,-96.15,-9.0,48.75,3.2992,-6.4907,8.8346,0.5097,0.4914,-0.7919,-73.65,-3.45,35.1,-11.15,-12.66,-10.53,3.9052,-0.132,2.4729,35.875,29.5,3.6875,37.3125,-80.0625,76.5,0
1776973116.874,10.331,0.3424,2.8012,-2.6785,-1.0304,-1.5841,-96.15,-9.0,48.75,3.2992,-6.4907,8.8346,0.5097,0.4914,-0.7919,-73.05,-2.4,35.25,-7.6,-11.12,-11.35,2.7543,2.3496,1.7071,35.875,29.5,3.6875,38.0625,-81.25,81.6875,0
1776973116.879,10.331,0.3424,2.8012,-2.6785,-1.0304,-1.5841,-96.45,-8.7,47.85,3.565,-5.4085,7.5034,0.0514,0.2827,-1.0312,-72.3,-2.1,34.5,-7.6,-11.12,-11.35,2.7543,2.3496,1.7071,35.875,29.5,3.6875,38.75,-81.8125,95.3125,0
1776973116.888,10.726,1.7837,2.727,-2.6334,-0.9864,-1.6526,-96.45,-8.7,47.85,4.5107,-4.4484,5.0446,-0.8226,-0.0064,-1.299,-72.3,-2.1,34.5,-6.47,-9.7,-10.08,1.7191,3.9117,0.9839,35.875,29.5,3.6875,38.75,-81.8125,95.3125,0
1776973116.898,10.9247,2.7773,2.4277,-2.379,-0.9142,-1.6774,-95.7,-6.45,48.6,5.0302,-3.632,3.9552,-1.5135,-0.2891,-1.51,-72.9,-4.2,34.35,-0.93,-6.25,-5.46,1.0123,4.6589,0.4691,35.875,29.5,3.6875,39.4375,-81.5,112.375,0
1776973116.903,10.8529,3.4237,1.7621,-1.9241,-0.8895,-1.7,-95.7,-6.45,48.6,5.0302,-3.632,3.9552,-1.5135,-0.2891,-1.51,-72.9,-4.2,34.35,-0.93,-6.25,-5.46,1.0123,4.6589,0.4691,35.875,29.5,3.6875,40.0625,-80.1875,126.6875,0
1776973116.908,10.8529,3.4237,1.7621,-1.9241,-0.8895,-1.7,-96.6,-6.3,50.55,5.1332,-3.3615,3.3399,-1.9015,-0.547,-1.6998,-72.9,-4.2,34.35,0.44,-4.34,-3.66,0.5083,4.7789,0.1244,38.5,21.875,-5.75,40.0625,-80.1875,126.6875,0
1776973116.913,10.3765,3.6966,1.4748,-1.3467,-0.9771,-1.6894,-96.6,-6.3,50.55,5.1332,-3.3615,3.3399,-1.9015,-0.547,-1.6998,-74.4,-2.25,33.3,0.44,-4.34,-3.66,0.5083,4.7789,0.1244,38.5,21.875,-5.75,40.625,-78.4375,136.5625,0
1776973116.918,10.3765,3.6966,1.4748,-1.3467,-0.9771,-1.6894,-96.0,-2.4,50.4,4.9799,-3.4141,2.8754,-2.0272,-0.7647,-1.8391,-74.4,-2.25,33.3,0.85,-3.08,-2.77,0.192,4.612,-0.1134,38.5,21.875,-5.75,40.625,-78.4375,136.5625,0
1776973116.925,9.7181,3.1915,1.1947,-1.02,-1.0408,-1.5956,-96.0,-2.4,50.4,4.4748,-3.9049,2.5881,-1.9092,-0.8649,-1.9313,-74.4,-2.25,33.3,0.24,-2.13,-2.55,-0.0065,4.3251,-0.3011,38.5,21.875,-5.75,41.1875,-76.5,143.0,0
1776973116.93,8.4132,2.624,0.9673,-0.563,-1.1714,-1.5924,-94.8,-4.05,50.85,4.4748,-3.9049,2.5881,-1.9092,-0.8649,-1.9313,-75.15,-2.7,32.55,0.24,-2.13,-2.55,-0.0065,4.3251,-0.3011,38.5,21.875,-5.75,41.75,-74.5625,147.125,0
1776973116.938,8.4204,2.5833,1.3336,-0.1761,-0.9062,-1.5068,-94.5,-3.45,52.5,4.3263,-3.9959,2.8611,-1.5764,-1.0219,-2.0336,-75.15,-2.7,32.55,-0.48,-1.82,-2.8,-0.1342,3.9903,-0.4734,38.5,21.875,-5.75,42.375,-72.5625,149.9375,0
1776973116.948,7.6878,2.4469,1.81,0.1274,-0.8196,-1.428,-94.5,-3.45,52.5,4.0462,-3.7972,2.8659,-1.352,-1.2007,-2.1376,-77.25,-2.4,31.95,-1.22,-1.39,-3.17,-0.2051,3.7612,-0.6534,38.5,21.875,-5.75,42.375,-72.5625,149.9375,0
1776973116.953,7.6878,2.4469,1.81,0.1274,-0.8196,-1.428,-94.5,-3.45,52.5,4.0079,-3.5865,2.9975,-1.287,-1.3307,-2.2479,-76.95,-1.95,31.8,-1.22,-1.39,-3.17,-0.2051,3.7612,-0.6534,38.5,21.875,-5.75,43.125,-70.5625,151.75,0
1776973116.958,7.2401,2.2075,2.0997,0.3744,-0.6941,-1.3169,-93.6,-1.05,51.6,4.0079,-3.5865,2.9975,-1.287,-1.3307,-2.2479,-76.95,-1.95,31.8,-3.2,-0.52,-4.59,-0.1953,3.6532,-0.8367,41.6875,17.875,1.6875,43.125,-70.5625,151.75,0
1776973116.963,7.2401,2.2075,2.0997,0.3744,-0.6941,-1.3169,-93.6,-1.05,51.6,4.1204,-3.474,3.2777,-1.1818,-1.4799,-2.3643,-77.55,-0.45,30.9,-3.2,-0.52,-4.59,-0.1953,3.6532,-0.8367,41.6875,17.875,1.6875,44.125,-68.5,153.0,0
1776973116.968,7.0126,2.2697,2.2027,0.6094,-0.6217,-1.1714,-93.0,0.0,51.9,4.1204,-3.474,3.2777,-1.1818,-1.4799,-2.3643,-77.55,-0.45,30.9,-3.93,-0.45,-5.16,-0.0938,3.6586,-1.0232,41.6875,17.875,1.6875,44.125,-68.5,153.0,0
1776973116.974,7.0126,2.2697,2.2027,0.6094,-0.6217,-1.1714,-93.0,0.0,51.9,4.5418,-3.5362,3.5817,-1.028,-1.5503,-2.4818,-77.4,-1.05,29.55,-4.19,-0.49,-5.48,0.0458,3.7263,-1.1868,41.6875,17.875,1.6875,45.375,-66.375,153.75,0
1776973116.979,6.7109,2.1787,2.2218,0.8711,-0.6534,-0.9848,-93.6,-1.05,50.55,4.5418,-3.5362,3.5817,-1.028,-1.5503,-2.4818,-77.4,-1.05,29.55,-4.19,-0.49,-5.48,0.0458,3.7263,-1.1868,41.6875,17.875,1.6875,46.8125,-64.1875,154.3125,0
1776973116.988,6.4596,1.9489,2.0111,1.0826,-0.6118,-0.789,-95.1,-0.75,51.9,5.1332,-3.6727,3.8882,-0.9313,-1.6571,-2.5895,-79.8,0.9,29.4,-4.38,-0.51,-5.76,0.1691,3.8026,-1.2948,41.6875,17.875,1.6875,46.8125,-64.1875,154.3125,0
1776973116.998,6.5577,1.5921,1.7047,1.2497,-0.5052,-0.6467,-95.1,-0.75,51.9,5.7676,-3.8379,3.8906,-0.8079,-1.7176,-2.654,-79.8,0.9,29.4,-5.58,-0.5,-6.56,0.2738,3.8834,-1.3515,41.6875,17.875,1.6875,48.5,-61.875,154.625,0
1776973117.003,6.5577,1.5921,1.7047,1.2497,-0.5052,-0.6467,-95.1,-0.75,51.9,6.3446,-3.565,4.0127,-0.6432,-1.78,-2.7315,-80.85,1.05,27.0,-5.58,-0.5,-6.56,0.2738,3.8834,-1.3515,41.6875,17.875,1.6875,48.5,-61.875,154.625,0
1776973117.008,6.4667,1.0965,1.391,1.3827,-0.445,-0.522,-93.45,-0.9,51.0,6.3446,-3.565,4.0127,-0.6432,-1.78,-2.7315,-80.85,1.05,27.0,-5.95,-0.62,-6.74,0.3534,4.0143,-1.3832,41.5625,17.25,10.75,50.4375,-59.5625,154.875,0
1776973117.013,6.4667,1.0965,1.391,1.3827,-0.445,-0.522,-93.45,-0.9,51.0,6.4165,-3.2322,3.7541,-0.5007,-1.8743,-2.8074,-80.85,0.75,27.0,-5.95,-0.62,-6.74,0.3534,4.0143,-1.3832,41.5625,17.25,10.75,50.4375,-59.5625,154.875,0
1776973117.018,6.6415,0.6105,1.1971,1.3941,-0.4191,-0.3938,-93.0,-2.25,50.85,6.4165,-3.2322,3.7541,-0.5007,-1.8743,-2.8074,-80.85,0.75,27.0,-6.25,-0.71,-6.81,0.408,4.1539,-1.3843,41.5625,17.25,10.75,52.5,-57.125,155.125,0
1776973117.024,6.6415,0.6105,1.1971,1.3941,-0.4191,-0.3938,-93.0,-2.25,50.85,6.3805,-2.8132,3.4117,-0.34,-1.9827,-2.8653,-81.75,2.85,24.9,-6.25,-0.71,-6.81,0.4222,4.2684,-1.3559,41.5625,17.25,10.75,54.8125,-54.6875,155.3125,0
1776973117.029,6.7971,0.1125,0.996,1.3155,-0.3936,-0.2915,-94.35,-1.8,50.85,6.5577,-2.4804,3.3902,-0.34,-1.9827,-2.8653,-81.75,2.85,24.9,-7.01,-1.14,-6.98,0.4222,4.2684,-1.3559,41.5625,17.25,10.75,57.25,-52.1875,155.5625,0
1776973117.038,6.9719,-0.3807,0.8859,1.0765,-0.3643,-0.2278,-93.3,-2.25,51.6,6.7924,-2.1045,3.6464,-0.1015,-2.0624,-2.9476,-83.25,4.5,25.65,-7.25,-1.3,-6.97,0.4058,4.3459,-1.3112,41.5625,17.25,10.75,57.25,-52.1875,155.5625,0
1776973117.048,7.1012,-0.9984,0.8619,0.7293,-0.2803,-0.2092,-95.7,-4.65,52.8,7.2784,-2.0087,3.5745,0.2451,-2.1341,-3.0145,-83.7,5.55,24.15,-7.45,-1.41,-7.0,0.3665,4.3546,-1.2588,41.5625,17.25,10.75,59.75,-49.6875,155.8125,0
1776973117.053,7.1012,-0.9984,0.8619,0.7293,-0.2803,-0.2092,-95.7,-4.65,52.8,7.2784,-2.0087,3.5745,0.6089,-2.2156,-3.0577,-83.25,8.7,23.1,-7.45,-1.41,-7.0,0.3665,4.3546,-1.2588,41.5625,17.25,10.75,62.4375,-47.25,156.0,0
1776973117.058,7.3095,-1.4006,0.6369,0.3427,-0.1455,-0.2329,-95.7,-4.65,52.8,7.8386,-2.2266,3.4572,0.8881,-2.2764,-3.0518,-83.25,8.7,23.1,-7.88,-2.05,-7.08,0.3196,4.3153,-1.2315,42.375,18.875,22.375,62.4375,-47.25,156.0,0
1776973117.063,7.3095,-1.4006,0.6369,0.3427,-0.1455,-0.2329,-95.7,-4.65,52.8,7.8386,-2.2266,3.4572,0.8881,-2.2764,-3.0518,-83.25,8.7,23.1,-7.88,-2.05,-7.08,0.3196,4.3153,-1.2315,42.375,18.875,22.375,65.1875,-44.8125,156.1875,0
1776973117.068,7.5753,-1.4916,0.5794,-0.0762,-0.0096,-0.2683,-93.6,-4.05,52.65,8.6024,-2.9042,3.5075,1.0997,-2.3275,-2.9735,-83.25,8.7,23.1,-8.13,-2.45,-7.17,0.2673,4.2313,-1.2512,42.375,18.875,22.375,65.1875,-44.8125,156.1875,0
1776973117.073,7.5753,-1.4916,0.5794,-0.4373,0.0677,-0.3203,-93.6,-4.05,52.65,8.6024,-2.9042,3.5075,1.0997,-2.3275,-2.9735,-85.8,12.0,19.2,-8.13,-2.45,-7.17,0.1876,4.119,-1.3068,42.375,18.875,22.375,68.125,-42.4375,156.3125,0
1776973117.079,7.4795,-1.2594,0.4956,-0.4373,0.0677,-0.3203,-96.9,-4.8,53.7,9.3565,-3.6129,3.7733,1.1993,-2.3856,-2.8669,-85.8,12.0,19.2,-8.27,-2.81,-7.33,0.1876,4.119,-1.3068,42.375,18.875,22.375,71.125,-40.125,156.4375,0
1776973117.088,7.6136,-0.8739,0.3208,-0.7874,0.1164,-0.3584,-95.25,-2.7,53.25,9.8976,-4.2473,3.7661,1.0957,-2.4565,-2.7488,-85.8,12.0,19.2,-8.36,-2.95,-7.54,0.0785,3.9695,-1.3832,42.375,18.875,22.375,20.0,-37.875,156.5625,0
1776973117.098,7.5154,-0.328,0.0287,-1.1069,0.1196,-0.364,-94.35,-3.3,54.15,10.5153,-4.7764,3.8235,0.8825,-2.4981,-2.6177,-87.6,14.85,16.95,-8.59,-2.9,-8.21,-0.024,3.7917,-1.4617,42.375,18.875,22.375,20.0,-37.875,156.5625,0
1776973117.103,7.3574,0.3711,-0.1652,-1.4091,0.1623,-0.3363,-94.35,-3.3,54.15,10.5153,-4.7764,3.8235,0.8825,-2.4981,-2.6177,-86.85,17.55,18.0,-8.59,-2.9,-8.21,-0.024,3.7917,-1.4617,42.375,18.875,22.375,19.5,-35.6875,156.5625,0
1776973117.108,7.3574,0.3711,-0.1652,-1.4091,0.1623,-0.3363,-94.35,-3.3,54.15,10.7643,-4.6926,3.9121,0.4866,-2.577,-2.5263,-86.85,17.55,18.0,-8.77,-2.93,-8.53,-0.0818,3.6008,-1.5293,38.5,24.0,35.1875,19.5,-35.6875,156.5625,0
1776973117.113,7.1754,1.0247,-0.4477,-1.5687,0.2198,-0.2809,-94.5,-1.65,52.5,10.7643,-4.6926,3.9121,0.4866,-2.577,-2.5263,-87.45,18.9,15.3,-8.77,-2.93,-8.53,-0.0818,3.6008,-1.5293,38.5,24.0,35.1875,19.5,-35.6875,156.5625,0
1776973117.118,7.1754,1.0247,-0.4477,-1.5687,0.2198,-0.2809,-94.5,-1.65,52.5,10.6039,-4.7046,4.0558,-0.0613,-2.6516,-2.4834,-87.45,18.9,15.3,-8.98,-2.87,-8.97,-0.0807,3.4088,-1.5599,38.5,24.0,35.1875,19.0,-33.625,156.625,0
1776973117.126,7.2472,1.719,-0.7542,-1.5902,0.2939,-0.2137,-94.35,-0.75,53.7,10.1227,-4.6543,3.9337,-0.5161,-2.6854,-2.4856,-86.85,20.25,13.95,-10.5,-3.04,-10.42,-0.0109,3.2376,-1.5512,38.5,24.0,35.1875,18.4375,-31.625,156.5625,0
1776973117.131,7.2472,1.719,-0.7542,-1.5902,0.2939,-0.2137,-94.35,-0.75,53.7,10.1227,-4.6543,3.9337,-0.5161,-2.6854,-2.4856,-86.85,20.25,13.95,-10.5,-3.04,-10.42,-0.0109,3.2376,-1.5512,38.5,24.0,35.1875,18.0,-29.6875,156.5,0
1776973117.139,7.446,2.2817,-1.0582,-1.5194,0.3978,-0.1228,-93.15,-1.2,54.6,9.6295,-4.142,3.7924,-0.8631,-2.6388,-2.5098,-86.85,20.25,13.95,-11.24,-3.43,-10.98,0.0993,3.1754,-1.5032,38.5,24.0,35.1875,17.5625,-27.6875,156.375,0
1776973117.149,7.865,2.9257,-1.3527,-1.3779,0.4708,-0.0059,-95.1,-0.3,55.2,9.4523,-3.3279,3.3375,-1.1786,-2.5516,-2.546,-87.6,21.9,13.2,-11.61,-3.6,-11.27,0.1647,3.2419,-1.4061,38.5,24.0,35.1875,17.5625,-27.6875,156.375,0
1776973117.154,8.1977,3.3375,-1.573,-1.1967,0.4919,0.1098,-95.7,1.65,56.1,9.6103,-2.6193,2.6073,-1.1786,-2.5516,-2.546,-87.6,21.9,13.2,-11.61,-3.6,-11.27,0.1647,3.2419,-1.4061,38.5,24.0,35.1875,17.5625,-27.6875,156.375,0
1776973117.159,8.1977,3.3375,-1.573,-1.1967,0.4919,0.1098,-95.7,1.65,56.1,9.6103,-2.6193,2.6073,-1.4269,-2.4501,-2.6073,-87.6,21.9,13.2,-11.26,-2.92,-11.03,0.1811,3.3968,-1.2403,29.5,32.6875,42.5625,17.25,-25.6875,156.3125,0
1776973117.164,8.5688,3.5171,-1.4988,-0.9934,0.4932,0.2329,-95.7,1.65,56.1,9.6702,-2.3774,1.7526,-1.4269,-2.4501,-2.6073,-88.2,24.75,10.05,-11.26,-2.92,-11.03,0.1811,3.3968,-1.2403,29.5,32.6875,42.5625,17.25,-25.6875,156.3125,0
1776973117.169,8.5688,3.5171,-1.4988,-0.9934,0.4932,0.2329,-95.7,1.65,56.1,9.6702,-2.3774,1.7526,-1.6193,-2.355,-2.6582,-88.2,24.75,10.05,-10.8,-2.36,-10.71,0.2138,3.5572,-0.9948,29.5,32.6875,42.5625,17.125,-23.6875,156.375,0
1776973117.173,8.8753,3.5626,-1.3623,-0.8306,0.3683,0.3579,-96.45,-0.45,57.45,9.6462,-2.4876,1.549,-1.6193,-2.355,-2.6582,-87.6,24.6,9.15,-10.8,-2.36,-10.71,0.336,3.6706,-0.6861,29.5,32.6875,42.5625,17.1875,-21.6875,156.375,0
1776973117.179,8.8753,3.5626,-1.3623,-0.7269,0.2545,0.4575,-96.45,-0.45,57.45,9.6462,-2.4876,1.549,-1.7736,-2.2759,-2.7208,-87.6,24.6,9.15,-10.53,-1.87,-10.46,0.336,3.6706,-0.6861,29.5,32.6875,42.5625,17.5,-19.6875,156.3125,0
1776973117.189,8.8155,3.7134,-1.0989,-0.7269,0.2545,0.4575,-97.8,0.9,57.45,9.7971,-2.6767,1.4629,-1.947,-2.1178,-2.7629,-88.2,27.15,7.5,-10.16,-1.59,-10.18,0.5498,3.7448,-0.3185,29.5,32.6875,42.5625,18.0625,-17.75,156.125,0
1776973117.199,8.5832,3.9289,-0.9577,-0.781,0.1873,0.579,-96.75,1.2,58.2,9.991,-2.6073,1.4844,-2.1338,-2.0051,-2.7941,-86.85,28.95,6.9,-9.62,-1.75,-9.98,0.8247,3.795,0.0589,29.5,32.6875,42.5625,18.0625,-17.75,156.125,0
1776973117.204,8.406,4.2306,-0.8475,-0.781,0.1873,0.579,-97.35,1.5,58.35,9.9455,-2.1811,1.6089,-2.2431,-1.93,-2.8168,-86.7,29.1,7.5,-9.62,-1.75,-9.98,0.8247,3.795,0.0589,29.5,32.6875,42.5625,18.8125,-15.9375,155.875,0
1776973117.209,8.4994,4.6017,-0.7805,-0.8442,0.2361,0.5852,-97.35,1.5,58.35,9.9455,-2.1811,1.6089,-2.2431,-1.93,-2.8168,-86.7,29.1,7.5,-9.59,-2.16,-10.02,1.1039,3.8245,0.4036,15.5,41.75,44.0,18.8125,-15.9375,155.875,0
1776973117.214,8.4994,4.6017,-0.7805,-0.8442,0.2361,0.5852,-97.35,1.5,58.35,9.7516,-0.6536,1.6807,-2.3153,-1.87,-2.7891,-86.7,28.65,7.2,-9.59,-2.16,-10.02,1.1039,3.8245,0.4036,15.5,41.75,44.0,19.75,-14.125,155.4375,0
1776973117.219,7.2712,4.8937,-0.1077,-1.1991,0.5454,0.5804,-97.35,1.5,58.35,9.7516,-0.6536,1.6807,-2.3153,-1.87,-2.7891,-86.7,28.65,7.2,-9.38,-1.94,-9.86,1.309,3.8288,0.6992,15.5,41.75,44.0,19.75,-14.125,155.4375,0
1776973117.227,7.2712,4.8937,-0.1077,-1.1991,0.5454,0.5804,-97.35,1.5,58.35,9.8019,0.5459,0.2873,-2.578,-1.7589,-2.6641,-86.7,28.65,7.2,-9.37,-0.68,-9.34,1.4879,3.7961,0.9163,15.5,41.75,44.0,20.8125,-12.4375,154.9375,0
1776973117.232,8.2049,6.0382,-0.9673,-0.7461,0.2124,0.5383,-99.9,1.05,60.45,10.1083,1.2067,-0.6009,-2.6207,-1.6193,-2.5237,-86.7,28.65,7.2,-9.37,-0.68,-9.34,1.4879,3.7961,0.9163,15.5,41.75,44.0,21.9375,-10.875,154.3125,0
1776973117.239,8.6431,6.5386,-1.3934,-0.7197,0.4722,0.4826,-99.9,1.05,60.45,10.1083,1.2067,-0.6009,-2.6207,-1.6193,-2.5237,-85.5,31.8,4.2,-9.27,-0.44,-8.86,1.6668,3.7001,1.0428,15.5,41.75,44.0,23.125,-9.375,153.5625,0
1776973117.249,9.7157,7.027,-1.2522,-0.5769,0.2771,0.4173,-100.95,1.5,60.9,9.7995,1.4437,-0.6512,-2.3697,-1.4762,-2.3449,-85.5,31.8,4.2,-9.15,-0.54,-8.32,1.8141,3.531,1.1116,15.5,41.75,44.0,23.125,-9.375,153.5625,0
1776973117.254,9.7157,7.027,-1.2522,-0.5769,0.2771,0.4173,-100.35,1.65,61.05,9.1961,1.6113,-0.7254,-2.0331,-1.3062,-2.152,-86.1,34.05,4.35,-9.15,-0.54,-8.32,1.8141,3.531,1.1116,15.5,41.75,44.0,23.125,-9.375,153.5625,0
1776973117.259,8.9519,6.5122,-1.3192,-0.6006,0.2926,0.3547,-100.35,1.65,61.05,9.1961,1.6113,-0.7254,-2.0331,-1.3062,-2.152,-86.1,34.05,4.35,-9.35,-1.08,-7.98,1.8468,3.315,1.1345,6.0,44.5625,37.375,24.25,-8.0,152.75,0
1776973117.263,8.9519,6.5122,-1.3192,-0.6006,0.2926,0.3547,-100.95,1.5,61.95,8.8394,1.9872,-0.6464,-1.7738,-1.1287,-1.9401,-84.45,36.15,4.95,-9.35,-1.08,-7.98,1.8468,3.315,1.1345,6.0,44.5625,37.375,24.25,-8.0,152.75,0
1776973117.268,9.1219,6.3351,-1.6137,-0.4495,0.372,0.3243,-100.95,1.5,61.95,8.8394,1.9872,-0.6464,-1.7738,-1.1287,-1.9401,-84.45,36.15,4.95,-9.8,-1.42,-7.46,1.7093,3.1001,1.1388,6.0,44.5625,37.375,25.375,-6.75,152.0,0
1776973117.273,9.1219,6.3351,-1.6137,-0.4495,0.372,0.3243,-100.95,1.5,61.95,8.9854,2.5714,-0.8715,-1.591,-0.9753,-1.72,-82.5,34.95,4.5,-9.8,-1.42,-7.46,1.477,2.9027,1.1236,6.0,44.5625,37.375,26.4375,-5.625,151.3125,0
1776973117.28,8.9687,6.3925,-1.8435,-0.3397,0.4415,0.3419,-100.95,1.5,61.95,9.2512,2.9568,-1.0774,-1.4083,-0.8588,-1.4757,-82.5,34.95,4.5,-9.6,-0.99,-6.96,1.477,2.9027,1.1236,6.0,44.5625,37.375,27.5,-4.625,150.75,0
1776973117.289,9.3111,6.6894,-2.15,-0.1804,0.6339,0.3786,-101.4,3.15,62.1,8.9878,3.1388,-1.0702,-1.4083,-0.8588,-1.4757,-82.5,35.4,5.25,-9.31,-0.48,-6.29,1.2621,2.7064,1.093,6.0,44.5625,37.375,27.5,-4.625,150.75,0
1776973117.299,9.8689,6.9504,-2.4062,-0.012,0.6075,0.4285,-103.05,2.25,60.9,8.691,3.2561,-1.3192,-0.9729,-0.5788,-0.9148,-82.5,35.4,5.25,-8.68,-0.02,-4.73,1.1083,2.4511,1.057,6.0,44.5625,37.375,28.4375,-3.75,150.1875,0
1776973117.304,9.8689,6.9504,-2.4062,-0.012,0.6075,0.4285,-102.15,1.95,62.1,8.691,3.2561,-1.3192,-0.9729,-0.5788,-0.9148,-82.35,36.75,4.8,-8.68,-0.02,-4.73,1.1083,2.4511,1.057,6.0,44.5625,37.375,28.4375,-3.75,150.1875,0
1776973117.309,10.0317,7.1826,-2.6576,0.2302,0.567,0.4687,-102.15,1.95,62.1,8.3582,2.8012,-1.2498,-0.6552,-0.4426,-0.6198,-82.35,36.75,4.8,-8.67,-0.2,-4.08,0.9523,2.1129,1.0243,3.875,43.375,34.375,29.3125,-3.0,149.75,0
1776973117.314,10.0317,7.1826,-2.6576,0.2302,0.567,0.4687,-102.75,1.05,61.95,8.3582,2.8012,-1.2498,-0.6552,-0.4426,-0.6198,-82.35,36.75,4.8,-8.67,-0.2,-4.08,0.9523,2.1129,1.0243,3.875,43.375,34.375,29.3125,-3.0,149.75,0
1776973117.319,10.0556,7.1922,-2.9281,0.5132,0.4322,0.5041,-102.75,1.05,61.95,8.1954,2.2266,-1.0534,-0.2438,-0.2915,-0.3006,-82.35,36.75,4.8,-9.05,-0.35,-3.65,0.7047,1.6799,1.0014,3.875,43.375,34.375,30.1875,-2.5,149.375,0
1776973117.327,9.8186,7.0701,-2.7653,0.7647,0.3166,0.5241,-102.75,1.05,61.95,7.8817,1.312,-0.7326,-0.2438,-0.2915,-0.3006,-82.5,36.15,6.0,-10.72,-0.12,-3.17,0.3447,1.2108,0.961,3.875,43.375,34.375,30.875,-2.1875,149.25,0
1776973117.332,9.8186,7.0701,-2.7653,0.7647,0.3166,0.5241,-102.75,1.05,61.95,7.8817,1.312,-0.7326,0.048,-0.0821,0.0458,-82.5,36.15,6.0,-10.72,-0.12,-3.17,0.3447,1.2108,0.961,3.875,43.375,34.375,31.5,-2.0625,149.25,0
1776973117.339,9.8234,6.5673,-2.5953,0.9641,0.2769,0.5388,-105.45,0.15,64.65,7.9344,0.3807,-0.3687,0.2563,0.1468,0.392,-81.6,37.95,5.85,-11.37,0.39,-3.09,-0.0404,0.7854,0.8661,3.875,43.375,34.375,31.9375,-2.0625,149.5,0
1776973117.349,9.8043,5.7102,-1.6448,1.234,0.235,0.5732,-106.35,-0.75,65.1,8.023,0.0024,0.2634,0.2968,0.3653,0.7248,-81.6,38.25,6.15,-11.85,0.87,-2.98,-0.3556,0.4102,0.7265,3.875,43.375,34.375,31.9375,-2.0625,149.5,0
1776973117.354,10.3621,5.0398,-1.7741,1.2598,0.2702,0.6392,-106.35,-0.75,65.1,8.023,0.0024,0.2634,0.2968,0.3653,0.7248,-83.1,36.3,4.8,-11.85,0.87,-2.98,-0.3556,0.4102,0.7265,3.875,43.375,34.375,32.25,-2.1875,149.8125,0
1776973117.359,10.3621,5.0398,-1.7741,1.2598,0.2702,0.6392,-108.6,-1.5,64.05,8.2528,-0.1077,1.3168,0.1945,0.5828,1.0016,-83.1,36.3,4.8,-11.94,1.1,-2.76,-0.5563,0.0785,0.589,3.0625,43.75,32.5625,32.25,-2.1875,149.8125,0
1776973117.364,10.4339,4.3215,-1.968,1.0509,0.2025,0.7277,-108.6,-1.5,64.05,8.2528,-0.1077,1.3168,0.1945,0.5828,1.0016,-82.95,36.15,5.7,-11.94,1.1,-2.76,-0.5563,0.0785,0.589,3.0625,43.75,32.5625,32.5,-2.4375,150.1875,0
1776973117.369,10.4339,4.3215,-1.968,1.0509,0.2025,0.7277,-107.85,-1.05,63.3,10.058,1.4772,1.6903,0.1362,0.833,1.0253,-82.95,36.15,5.7,0.76,-1.34,-8.66,-0.7156,-0.2367,0.5138,3.0625,43.75,32.5625,32.5,-2.4375,150.1875,0
1776973117.375,10.4148,3.5913,-1.2234,0.7949,0.1338,0.8932,-107.85,-1.05,63.3,11.6167,3.3878,-2.569,0.1362,0.833,1.0253,-82.35,35.1,6.15,1.52,-2.03,-9.28,-1.3886,-0.6381,0.672,3.0625,43.75,32.5625,32.75,-2.9375,151.0,0
1776973117.38,10.4148,3.5913,-1.2234,0.7949,0.1338,0.8932,-107.85,-1.05,63.3,11.6167,3.3878,-2.569,-0.3453,0.558,0.7661,-82.35,35.1,6.15,1.52,-2.03,-9.28,-1.3886,-0.6381,0.672,3.0625,43.75,32.5625,33.3125,-3.8125,152.1875,0
1776973117.389,9.4308,2.5666,0.0766,0.4567,0.0442,1.0182,-107.7,-1.65,62.1,11.6669,4.312,-3.0071,-0.3328,0.3555,0.3616,-82.35,35.1,6.15,0.27,-3.19,-11.23,-2.0977,-1.1399,1.3483,3.0625,43.75,32.5625,33.3125,-3.8125,152.1875,0
1776973117.399,8.5665,1.5347,0.893,-0.1311,0.0149,1.0328,-106.05,-1.05,61.5,10.7619,4.0079,-4.4532,-0.4879,0.0674,0.061,-82.5,34.95,7.5,1.5,-8.49,-9.83,-2.0311,-1.2261,1.5228,3.0625,43.75,32.5625,33.9375,-4.8125,153.3125,0
1776973117.404,7.8913,0.917,0.9433,-0.7029,0.0666,0.9926,-106.05,-1.05,61.5,8.4563,1.5083,-2.7126,-0.4879,0.0674,0.061,-82.5,34.95,7.5,1.5,-8.49,-9.83,-2.0311,-1.2261,1.5228,3.0625,43.75,32.5625,33.9375,-4.8125,153.3125,0
1776973117.409,7.8913,0.917,0.9433,-0.7029,0.0666,0.9926,-104.7,-0.9,58.95,8.4563,1.5083,-2.7126,-0.2395,0.1559,0.1572,-81.9,35.1,8.4,-0.19,-2.71,-7.3,-1.9537,-1.1083,1.994,4.5,42.6875,33.1875,34.875,-5.875,154.5,0
1776973117.414,8.2289,0.7853,0.328,-0.9595,0.3349,1.0525,-104.7,-0.9,58.95,9.1051,0.6632,-2.4588,-0.34,0.3206,0.3992,-83.7,34.95,7.2,-0.19,-2.71,-7.3,-1.9537,-1.1083,1.994,4.5,42.6875,33.1875,34.875,-5.875,154.5,0
1776973117.419,8.2289,0.7853,0.328,-0.9595,0.3349,1.0525,-105.6,-0.3,59.4,9.1051,0.6632,-2.4588,-0.34,0.3206,0.3992,-83.7,34.95,7.2,-1.53,1.39,-7.29,-2.0126,-1.3341,2.3551,4.5,42.6875,33.1875,35.9375,-7.0625,155.6875,0
1776973117.427,9.4882,0.8691,-1.0654,-0.8314,0.659,1.2228,-105.6,-0.3,59.4,10.4363,1.664,-3.4285,-0.8516,0.3363,0.5268,-82.65,33.6,7.65,-1.78,-1.49,-9.0,-1.7606,-1.5446,2.2013,4.5,42.6875,33.1875,36.9375,-8.375,156.8125,0
1776973117.432,11.2527,1.0846,-3.0071,-0.2068,0.74,1.3843,-104.25,0.75,56.25,10.4363,1.664,-3.4285,-0.8516,0.3363,0.5268,-82.65,33.6,7.65,-1.78,-1.49,-9.0,-1.7606,-1.5446,2.2013,4.5,42.6875,33.1875,37.6875,-9.625,157.5625,0
1776973117.44,11.2527,1.0846,-3.0071,-0.2068,0.74,1.3843,-104.25,0.75,56.25,10.6015,3.383,-2.4325,-1.2921,0.3091,0.5857,-81.0,32.55,7.95,-1.05,-4.52,-8.49,-1.2381,-1.657,1.8173,4.5,42.6875,33.1875,38.25,-10.875,158.125,0
1776973117.449,11.8776,1.7382,-4.1755,0.8127,0.4735,1.3773,-103.5,2.25,52.35,10.5632,4.8794,-2.8299,-1.4288,0.3349,0.6262,-82.95,32.55,9.3,-1.22,-4.25,-8.1,-0.8345,-1.8468,1.4966,4.5,42.6875,33.1875,38.25,-10.875,158.125,0
1776973117.454,13.0269,2.1428,-3.486,1.4965,0.2801,1.2193,-103.5,2.25,52.35,11.0133,6.0334,-3.1196,-0.8695,0.3477,0.583,-82.95,32.55,9.3,-1.22,-4.25,-8.1,-0.8345,-1.8468,1.4966,4.5,42.6875,33.1875,38.625,-12.1875,158.4375,0
1776973117.459,13.0269,2.1428,-3.486,1.4965,0.2801,1.2193,-102.75,1.05,51.9,11.0133,6.0334,-3.1196,-0.8695,0.3477,0.583,-82.95,32.55,9.3,-1.92,-3.58,-8.4,-0.5531,-2.0988,1.1181,11.0,40.1875,36.6875,38.625,-12.1875,158.4375,0
1776973117.464,13.3549,2.0614,-1.9848,1.5966,0.1588,1.084,-102.75,1.05,51.9,11.801,6.4332,-3.7038,0.1921,0.3523,0.5417,-82.95,32.55,9.3,-1.92,-3.58,-8.4,-0.5531,-2.0988,1.1181,11.0,40.1875,36.6875,38.8125,-13.5,158.5625,0
1776973117.469,13.3549,2.0614,-1.9848,1.5966,0.1588,1.084,-103.5,0.3,50.85,11.801,6.4332,-3.7038,0.1921,0.3523,0.5417,-83.25,31.8,10.05,-5.57,-2.26,-11.74,-0.2836,-2.2777,0.793,11.0,40.1875,36.6875,38.8125,-13.5,158.5625,0
1776973117.476,13.6924,2.0925,-1.063,1.3704,0.2118,1.0277,-103.5,0.3,50.85,11.5401,5.2792,-2.0279,1.2905,0.4458,0.5641,-83.25,31.8,10.05,-7.49,-2.67,-12.28,-0.1145,-2.3115,0.7418,11.0,40.1875,36.6875,39.0,-14.875,158.625,0
1776973117.481,13.3716,2.1572,-1.0032,0.9758,0.3501,1.0008,-103.8,1.05,50.1,11.892,3.2178,0.6057,1.2905,0.4458,0.5641,-83.25,31.8,10.05,-7.49,-2.67,-12.28,-0.1145,-2.3115,0.7418,11.0,40.1875,36.6875,39.1875,-16.125,158.625,0
1776973117.489,12.7395,2.2242,-1.4485,0.5449,0.4109,0.9182,-103.8,1.05,50.1,11.892,3.2178,0.6057,1.8309,0.5766,0.631,-82.2,31.8,11.25,-9.05,-3.8,-11.9,-0.0458,-2.0998,0.7952,11.0,40.1875,36.6875,39.4375,-17.0625,158.6875,0
1776973117.499,12.3373,2.0279,-1.6161,0.2118,0.4445,0.7496,-107.85,1.05,50.55,11.2982,1.2426,1.6568,1.7501,0.6984,0.7144,-82.95,32.25,9.3,-10.68,-6.05,-12.51,-0.0196,-1.5817,0.7025,11.0,40.1875,36.6875,39.4375,-17.0625,158.6875,0
1776973117.504,12.3373,2.0279,-1.6161,0.2118,0.4445,0.7496,-107.85,1.05,50.55,11.2982,1.2426,1.6568,1.6955,0.7306,0.76,-82.95,32.25,9.3,-10.68,-6.05,-12.51,-0.0196,-1.5817,0.7025,11.0,40.1875,36.6875,39.625,-17.75,158.875,0
1776973117.509,10.5058,1.5754,-1.1253,0.1487,0.2563,0.5444,-110.7,-0.3,50.85,10.8409,-0.8068,1.5562,1.6955,0.7306,0.76,-82.95,32.25,10.05,-5.18,-1.59,-9.68,-0.2945,-1.0963,0.5858,16.75,38.0,36.0,39.625,-17.75,158.875,0
1776973117.514,10.5058,1.5754,-1.1253,0.1487,0.2563,0.5444,-110.7,-0.3,50.85,10.8409,-0.8068,1.5562,1.4141,0.6139,0.7498,-82.95,32.25,10.05,-5.18,-1.59,-9.68,-0.2945,-1.0963,0.5858,16.75,38.0,36.0,39.625,-17.75,158.875,0
1776973117.519,8.6622,0.2274,0.2849,-0.1236,0.0357,0.3914,-111.3,0.15,51.45,9.5313,-2.3032,2.7031,1.4141,0.6139,0.7498,-82.65,31.65,10.35,-4.18,1.37,-10.55,-0.3033,-0.925,0.3938,16.75,38.0,36.0,39.75,-18.3125,159.0625,0
1776973117.527,8.6622,0.2274,0.2849,-0.1236,0.0357,0.3914,-111.3,-0.45,52.8,9.5313,-2.3032,2.7031,0.7933,0.5697,0.7304,-82.65,31.65,10.35,-4.41,-3.01,-9.47,-0.2738,-0.9054,0.3752,16.75,38.0,36.0,39.8125,-18.875,159.1875,0
1776973117.532,8.8514,-1.0343,1.5969,-0.7552,0.0682,0.2918,-111.3,-0.45,52.8,8.9471,-2.3798,2.0303,0.0141,0.5889,0.7373,-82.65,31.65,10.35,-4.41,-3.01,-9.47,-0.2738,-0.9054,0.3752,16.75,38.0,36.0,39.875,-19.25,159.25,0
1776973117.54,7.8027,-1.8076,3.1196,-1.23,-0.109,0.2598,-111.75,-0.75,50.85,9.232,-1.7885,1.3958,-0.7013,0.6134,0.7136,-82.5,31.5,10.8,-3.72,-3.63,-8.81,-0.1364,-0.7254,0.288,16.75,38.0,36.0,39.9375,-19.6875,159.3125,0
1776973117.55,6.8977,-2.3248,3.4644,-1.6625,0.1279,0.3416,-111.75,-0.75,50.85,9.2105,-0.2083,0.4836,-1.0997,0.575,0.6382,-82.5,31.5,10.8,-4.04,-3.5,-8.89,-0.1178,-0.7101,0.2269,16.75,38.0,36.0,39.9375,-19.6875,159.3125,0
1776973117.555,6.8977,-2.3248,3.4644,-1.6625,0.1279,0.3416,-111.75,-0.75,50.85,9.2105,-0.2083,0.4836,-1.0997,0.575,0.6382,-82.5,31.5,10.8,-4.04,-3.5,-8.89,-0.1178,-0.7101,0.2269,16.75,38.0,36.0,39.9375,-19.6875,159.3125,0
1776973117.56,6.2034,-3.0526,3.3136,-1.8117,0.311,0.5183,-106.35,-0.75,49.8,9.0357,1.3384,-0.419,-1.3131,0.5724,0.5657,-82.5,29.85,14.25,-3.72,-3.27,-8.56,-0.1014,-0.7494,0.2018,20.375,37.25,34.75,40.0,-20.125,159.375,0
1776973117.564,6.2034,-3.0526,3.3136,-1.8117,0.311,0.5183,-106.35,-0.75,49.8,9.0357,1.3384,-0.419,-1.3131,0.5724,0.5657,-82.5,29.85,14.25,-3.72,-3.27,-8.56,-0.1014,-0.7494,0.2018,20.375,37.25,34.75,40.0,-20.125,159.375,0
1776973117.57,6.9073,-2.9257,2.5857,-1.8969,0.6297,0.7131,-104.7,0.9,46.05,9.4547,2.545,-0.2131,-1.3243,0.6019,0.5417,-82.65,28.05,13.65,-3.29,-3.49,-8.36,-0.1025,-0.6992,0.2116,20.375,37.25,34.75,40.0,-20.5,159.4375,0
1776973117.576,6.9073,-2.9257,2.5857,-1.671,0.7973,0.8364,-101.7,-0.75,45.15,9.4547,2.545,-0.2131,-1.3243,0.6019,0.5417,-82.35,27.0,14.4,-3.55,-2.98,-8.65,-0.1353,-0.6752,0.2149,20.375,37.25,34.75,40.0625,-20.9375,159.5,0
1776973117.581,8.6191,-2.0973,1.506,-1.671,0.7973,0.8364,-101.7,-0.75,45.15,9.7157,3.5386,-0.2107,-1.266,0.6307,0.5478,-82.35,27.0,14.4,-3.55,-2.98,-8.65,-0.1353,-0.6752,0.2149,20.375,37.25,34.75,40.0625,-21.3125,159.5625,0
1776973117.59,10.0437,-0.7374,-0.0551,-1.0669,0.6582,0.8753,-98.55,0.9,43.5,9.6031,4.0342,0.0144,-1.0717,0.5875,0.558,-82.95,28.35,14.85,-4.02,-2.79,-8.88,-0.1484,-0.697,0.1953,20.375,37.25,34.75,40.0625,-21.6875,159.625,0
1776973117.6,11.0923,0.5363,-1.2689,-0.5148,0.4381,0.7839,-98.55,0.9,43.5,9.3063,4.7094,0.1963,-0.5407,0.5654,0.5942,-82.5,27.45,16.05,-4.32,-2.36,-9.13,-0.1156,-0.7003,0.1724,20.375,37.25,34.75,40.0625,-21.6875,159.625,0
1776973117.605,11.0923,0.5363,-1.2689,-0.5148,0.4381,0.7839,-92.4,2.4,42.45,9.3063,4.7094,0.1963,-0.5407,0.5654,0.5942,-82.5,27.45,16.05,-4.32,-2.36,-9.13,-0.1156,-0.7003,0.1724,20.375,37.25,34.75,40.125,-22.125,159.625,0
1776973117.61,11.0516,1.3264,-1.2594,-0.137,0.2172,0.6227,-92.4,2.4,42.45,9.5648,4.774,0.5483,0.1034,0.5113,0.6155,-84.15,25.05,15.45,-4.3,-2.71,-8.86,-0.0567,-0.6949,0.1396,21.75,37.0,32.375,40.125,-22.125,159.625,0
1776973117.614,11.0516,1.3264,-1.2594,-0.137,0.2172,0.6227,-93.6,0.0,40.5,9.5648,4.774,0.5483,0.1034,0.5113,0.6155,-84.15,25.05,15.45,-4.3,-2.71,-8.86,-0.0567,-0.6949,0.1396,21.75,37.0,32.375,40.0625,-22.4375,159.625,0
1776973117.62,9.9623,1.7334,-0.3831,-0.0171,0.1178,0.4535,-93.6,0.0,40.5,9.2632,3.4069,1.2689,0.5508,0.5007,0.55,-84.15,25.05,15.45,-4.41,-3.12,-8.78,-0.0556,-0.624,0.1102,21.75,37.0,32.375,40.0625,-22.4375,159.625,0
1776973117.629,9.2512,1.7119,0.8835,-0.1186,0.3136,0.3933,-90.9,1.2,41.85,9.6055,1.0271,1.6592,0.5772,0.4914,0.5004,-82.5,27.15,16.05,-4.2,-3.03,-8.66,-0.0873,-0.5269,0.0829,21.75,37.0,32.375,40.0625,-22.75,159.625,0
1776973117.639,9.3326,1.6807,1.8818,-0.146,0.3901,0.4058,-92.4,1.2,41.4,10.0197,-0.6991,2.047,0.1092,0.4474,0.5185,-82.5,27.15,16.05,-4.09,-3.03,-8.63,-0.1025,-0.4407,0.0665,21.75,37.0,32.375,40.0625,-23.0,159.6875,0
1776973117.647,9.4547,1.6281,2.3272,-0.1039,0.3216,0.429,-93.15,0.9,43.95,9.9982,-1.1995,1.6281,-0.5582,0.4261,0.5769,-82.5,24.75,17.85,-4.3,-2.81,-8.58,-0.0818,-0.4058,0.048,21.75,37.0,32.375,40.0625,-23.1875,159.6875,0
1776973117.652,9.4547,1.6281,2.3272,-0.1039,0.3216,0.429,-93.15,0.9,43.95,9.9982,-1.1995,1.6281,-0.5582,0.4261,0.5769,-82.5,24.75,17.85,-4.3,-2.81,-8.58,-0.0818,-0.4058,0.048,21.75,37.0,32.375,40.0625,-23.1875,159.6875,0
1776973117.656,9.3661,1.6041,2.6863,-0.227,0.3629,0.4128,-93.15,0.9,43.95,9.7659,0.2969,1.4317,-1.0056,0.4303,0.6163,-82.5,24.75,17.85,-3.98,-2.93,-8.54,-0.0382,-0.3807,0.0371,24.0625,35.75,32.5,40.0,-23.4375,159.6875,0
1776973117.661,9.3661,1.6041,2.6863,-0.227,0.3629,0.4128,-93.15,0.9,43.95,9.7659,0.2969,1.4317,-1.0056,0.4303,0.6163,-81.9,24.6,16.65,-3.98,-2.93,-8.54,-0.0382,-0.3807,0.0371,24.0625,35.75,32.5,40.0,-23.4375,159.6875,0
1776973117.666,9.426,1.3216,3.0718,-0.4221,0.5388,0.3552,-94.05,1.5,43.8,9.6343,2.1859,1.2665,-1.2502,0.3984,0.6193,-81.9,24.6,16.65,-3.98,-2.93,-8.54,-0.0382,-0.3807,0.0371,24.0625,35.75,32.5,40.0,-23.625,159.6875,0
1776973117.671,9.426,1.3216,3.0718,-0.4221,0.5388,0.3552,-94.05,1.5,43.8,9.6343,2.1859,1.2665,-1.2502,0.3984,0.6193,-83.25,24.45,17.1,-4.18,-2.94,-8.55,0.0142,-0.3872,0.0338,24.0625,35.75,32.5,40.0,-23.625,159.6875,0
1776973117.675,9.6367,0.8332,3.1867,-0.7093,0.7285,0.3067,-93.0,1.5,43.8,9.2775,3.735,0.7997,-1.2183,0.397,0.6299,-83.25,24.45,17.1,-4.18,-2.94,-8.55,0.0458,-0.3763,0.0338,24.0625,35.75,32.5,40.0,-23.8125,159.625,0
1776973117.681,9.6367,0.8332,3.1867,-0.7093,0.7285,0.3067,-93.0,1.5,43.8,9.2775,3.735,0.7997,-1.2183,0.397,0.6299,-82.95,24.45,17.85,-4.31,-3.06,-8.5,0.0458,-0.3763,0.0338,24.0625,35.75,32.5,40.0,-23.8125,159.625,0
1776973117.689,9.663,0.6033,3.0191,-0.9238,0.753,0.2625,-93.6,2.55,43.8,9.1195,4.4388,0.2729,-0.98,0.4026,0.6584,-82.95,24.45,17.85,-4.22,-3.22,-8.34,0.0709,-0.3589,0.0404,24.0625,35.75,32.5,40.0,-24.0625,159.5625,0
1776973117.694,9.4643,0.7207,2.1715,-0.8652,0.6747,0.2369,-95.1,2.55,46.2,8.8514,4.2569,0.1987,-0.6502,0.4271,0.6781,-82.95,24.45,17.85,-4.22,-3.22,-8.34,0.0862,-0.3436,0.0502,24.0625,35.75,32.5,40.0,-24.25,159.5,0
1776973117.701,9.4643,0.7207,2.1715,-0.8652,0.6747,0.2369,-95.1,2.55,46.2,8.8514,4.2569,0.1987,-0.6502,0.4271,0.6781,-83.1,24.6,19.5,-4.34,-3.22,-8.4,0.0862,-0.3436,0.0502,24.0625,35.75,32.5,40.0,-24.25,159.5,0
1776973117.706,9.675,0.7518,1.4006,-0.7975,0.5646,0.23,-95.1,2.55,46.2,9.323,3.1723,0.3926,-0.4247,0.461,0.6971,-83.1,24.6,19.5,-4.34,-3.22,-8.4,0.0774,-0.3414,0.0567,24.375,36.1875,31.75,40.0,-24.4375,159.4375,0
1776973117.711,9.675,0.7518,1.4006,-0.7975,0.5646,0.23,-95.1,2.55,46.2,9.323,3.1723,0.3926,-0.4247,0.461,0.6971,-83.1,24.6,19.5,-4.75,-3.5,-8.5,0.0774,-0.3414,0.0567,24.375,36.1875,31.75,40.0,-24.4375,159.4375,0
1776973117.715,9.3901,0.838,0.4788,-0.6182,0.4994,0.2121,-95.1,2.55,46.2,9.6558,2.0494,0.5818,-0.3856,0.4804,0.7232,-83.1,24.6,19.5,-4.75,-3.5,-8.5,0.0578,-0.2967,0.0644,24.375,36.1875,31.75,40.0,-24.5625,159.375,0
1776973117.721,9.3901,0.838,0.4788,-0.6182,0.4994,0.2121,-95.1,2.55,46.2,9.481,1.6472,0.6943,-0.3856,0.4804,0.7232,-82.95,22.5,18.6,-4.46,-3.17,-8.38,0.0578,-0.2967,0.0644,24.375,36.1875,31.75,40.0625,-24.75,159.375,0
1776973117.73,9.3589,0.8021,-0.4405,-0.6331,0.5868,0.1695,-96.15,3.3,49.5,9.481,1.6472,0.6943,-0.498,0.4559,0.7096,-82.95,22.8,19.05,-3.99,-3.05,-8.34,0.0338,-0.2356,0.0687,24.375,36.1875,31.75,40.0625,-24.75,159.375,0
1776973117.74,9.1554,1.1301,-1.1013,-0.7869,0.7011,0.1668,-97.95,1.05,51.3,9.3158,1.4964,1.1923,-0.5673,0.4474,0.7091,-84.45,22.5,19.8,-4.28,-3.18,-8.2,0.0153,-0.2498,0.0818,24.375,36.1875,31.75,40.0625,-24.875,159.375,0
1776973117.745,9.3972,0.146,0.0048,-0.7885,0.862,0.0512,-98.4,-1.5,51.3,9.3158,1.4964,1.1923,-0.6718,0.4271,0.7242,-84.45,22.5,19.8,-4.28,-3.18,-8.2,-0.0065,-0.2782,0.0894,24.375,36.1875,31.75,40.125,-25.0625,159.375,0
1776973117.751,9.5217,0.8068,1.5083,-0.5217,0.4922,0.0594,-98.4,-1.5,51.3,9.3541,1.6783,1.0367,-0.6835,0.4287,0.7381,-82.5,20.4,19.05,-4.38,-3.07,-8.2,-0.0065,-0.2782,0.0894,24.375,36.1875,31.75,40.125,-25.0625,159.375,0
1776973117.756,9.5217,0.8068,1.5083,-0.5217,0.4922,0.0594,-99.45,-3.3,55.5,9.3541,1.6783,1.0367,-0.6835,0.4287,0.7381,-82.5,20.4,19.05,-4.38,-3.07,-8.2,-0.0065,-0.2782,0.0894,25.0625,36.1875,32.0625,40.125,-25.1875,159.375,0
1776973117.761,9.1435,0.7877,1.2881,-0.8466,0.4615,0.1053,-99.45,-3.3,55.5,9.3518,1.652,0.8643,-0.6395,0.417,0.7408,-82.5,22.5,19.35,-4.22,-3.21,-8.17,-0.0207,-0.2563,0.096,25.0625,36.1875,32.0625,40.125,-25.1875,159.375,0
1776973117.766,9.1435,0.7877,1.2881,-0.8466,0.4615,0.1053,-99.45,-3.3,55.5,9.3518,1.652,0.8643,-0.6395,0.417,0.7408,-82.5,22.5,19.35,-4.22,-3.21,-8.17,-0.0207,-0.2563,0.096,25.0625,36.1875,32.0625,40.125,-25.375,159.375,0
1776973117.771,9.0525,0.4645,2.0734,-0.7898,0.3941,0.1079,-99.45,-3.3,55.5,9.0525,1.6257,0.996,-0.5702,0.4029,0.7408,-82.65,20.25,20.7,-4.29,-3.16,-8.13,-0.0338,-0.2574,0.0971,25.0625,36.1875,32.0625,40.125,-25.375,159.375,0
1776973117.776,9.0525,0.4645,2.0734,-0.7898,0.3941,0.1079,-101.25,-8.55,59.4,9.0525,1.6257,0.996,-0.5702,0.4029,0.7408,-82.65,20.25,20.7,-4.29,-3.16,-8.13,-0.036,-0.2694,0.1004,25.0625,36.1875,32.0625,40.1875,-25.5,159.4375,0
1776973117.781,9.1267,0.4166,2.138,-0.8021,0.2659,0.1753,-101.25,-8.55,59.4,9.3829,1.4509,0.9505,-0.4994,0.4309,0.716,-82.65,20.25,20.7,-4.44,-3.08,-8.2,-0.036,-0.2694,0.1004,25.0625,36.1875,32.0625,40.1875,-25.5,159.4375,0
1776973117.79,9.2608,0.4621,1.4916,-1.0472,0.296,0.2249,-101.4,-10.2,58.5,9.2967,0.9984,1.0367,-0.3866,0.4485,0.7216,-82.35,19.95,21.45,-4.39,-3.0,-8.25,-0.0371,-0.276,0.1014,25.0625,36.1875,32.0625,40.1875,-25.6875,159.4375,0
1776973117.795,9.2608,0.4621,1.4916,-1.0472,0.296,0.2249,-100.8,-9.9,58.95,9.2967,0.9984,1.0367,-0.3866,0.4485,0.7216,-82.35,19.95,21.45,-4.39,-3.0,-8.25,-0.0305,-0.264,0.1025,25.0625,36.1875,32.0625,40.25,-25.875,159.4375,0
1776973117.801,9.1051,0.158,1.1803,-1.2465,0.372,0.223,-100.8,-9.45,56.7,9.3446,0.7302,1.3096,-0.3587,0.4381,0.7147,-84.0,18.45,20.55,-4.55,-2.87,-8.27,-0.0305,-0.264,0.1025,25.0625,36.1875,32.0625,40.25,-25.875,159.4375,0
1776973117.806,9.1051,0.158,1.1803,-1.2465,0.372,0.223,-100.8,-9.45,56.7,9.3446,0.7302,1.3096,-0.3587,0.4381,0.7147,-84.0,18.45,20.55,-4.55,-2.87,-8.27,-0.0185,-0.2487,0.096,26.1875,35.75,30.5625,40.25,-26.0,159.4375,0
1776973117.811,9.177,0.2059,1.2474,-1.1983,0.4628,0.2033,-100.8,-9.45,56.7,9.3757,0.6129,1.1325,-0.3584,0.4426,0.7149,-83.85,18.75,19.95,-4.65,-2.92,-8.26,-0.0185,-0.2487,0.096,26.1875,35.75,30.5625,40.25,-26.0,159.4375,0
1776973117.816,9.177,0.2059,1.2474,-1.1983,0.4628,0.2033,-100.8,-9.45,56.7,9.3757,0.6129,1.1325,-0.3584,0.4426,0.7149,-83.85,18.75,19.95,-4.65,-2.92,-8.26,-0.0207,-0.2225,0.0927,26.1875,35.75,30.5625,40.3125,-26.125,159.5,0
1776973117.821,8.8777,0.0718,1.6712,-1.0467,0.4202,0.2116,-100.8,-9.45,56.7,9.5672,0.6273,1.4581,-0.3914,0.4325,0.6997,-82.2,18.15,21.6,-4.59,-2.96,-8.17,-0.0207,-0.2225,0.0927,26.1875,35.75,30.5625,40.3125,-26.25,159.5,0
1776973117.83,9.6414,0.1365,1.6161,-0.9731,0.4349,0.203,-100.8,-9.45,56.7,9.4116,0.5411,1.2019,-0.4026,0.4183,0.6875,-84.0,19.65,20.55,-4.4,-3.08,-8.11,-0.0284,-0.2018,0.0829,26.1875,35.75,30.5625,40.3125,-26.25,159.5,0
1776973117.836,9.6414,0.1365,1.6161,-0.9731,0.4349,0.203,-94.5,-8.7,53.85,9.4619,0.3184,1.4413,-0.4026,0.4183,0.6875,-84.0,19.65,20.55,-4.4,-3.08,-8.11,-0.0382,-0.1996,0.0884,26.1875,35.75,30.5625,40.3125,-26.375,159.5,0
1776973117.841,9.6462,0.0,1.6424,-0.7738,0.4122,0.1966,-93.0,-7.8,53.4,9.4619,0.3184,1.4413,-0.3906,0.4341,0.6856,-82.95,17.7,20.55,-4.47,-3.05,-8.12,-0.0382,-0.1996,0.0884,26.1875,35.75,30.5625,40.3125,-26.375,159.5,0
1776973117.85,9.2775,-0.2251,1.7286,-0.6829,0.3872,0.2078,-92.55,-7.8,52.65,9.4834,0.34,1.3479,-0.4117,0.4253,0.6837,-82.95,17.7,20.55,-4.51,-2.93,-8.18,-0.0425,-0.2127,0.1004,26.1875,35.75,30.5625,40.375,-26.5,159.5625,0
1776973117.855,9.2775,-0.2251,1.7286,-0.6829,0.3872,0.2078,-92.55,-7.8,52.65,9.4332,0.7278,1.1899,-0.4117,0.4253,0.6837,-82.95,17.7,20.55,-4.51,-2.93,-8.18,-0.0425,-0.2127,0.1004,26.1875,35.75,30.5625,40.375,-26.5,159.5625,0
1776973117.86,6.7301,0.0622,2.1979,-0.5449,0.336,0.2212,-92.25,-7.8,52.65,9.4332,0.7278,1.1899,-0.3643,0.4477,0.6952,-83.85,15.9,20.7,-4.58,-2.92,-8.18,-0.0447,-0.2127,0.1047,25.5,36.1875,29.75,40.375,-26.625,159.5625,0
1776973117.865,6.7301,0.0622,2.1979,-0.5449,0.336,0.2212,-92.25,-7.8,52.65,9.2847,0.7326,1.257,-0.3643,0.4477,0.6952,-83.85,15.9,20.7,-4.58,-2.92,-8.18,-0.0447,-0.2127,0.1047,25.5,36.1875,29.75,40.375,-26.625,159.5625,0
1776973117.87,9.1051,0.0934,1.8244,-0.6757,0.2012,0.2462,-92.25,-7.8,52.65,9.2847,0.7326,1.257,-0.2976,0.4623,0.696,-83.85,15.9,20.7,-4.69,-2.89,-8.13,-0.0382,-0.2062,0.1004,25.5,36.1875,29.75,40.4375,-26.8125,159.625,0
1776973117.875,9.1051,0.0934,1.8244,-0.6757,0.2012,0.2462,-92.25,-7.8,52.65,9.2775,0.9074,1.1444,-0.2976,0.4623,0.696,-83.85,15.9,20.7,-4.69,-2.89,-8.13,-0.0349,-0.1854,0.096,25.5,36.1875,29.75,40.5,-26.9375,159.625,0
1776973117.881,9.019,0.4022,1.7621,-0.7296,0.4013,0.2446,-90.9,-8.7,52.8,9.2775,0.9074,1.1444,-0.2273,0.4719,0.7029,-83.7,16.95,22.35,-4.68,-2.95,-8.11,-0.0349,-0.1854,0.096,25.5,36.1875,29.75,40.5,-26.9375,159.625,0
1776973117.89,9.4044,0.8404,1.6065,-0.6187,0.3088,0.2372,-92.25,-10.05,53.4,9.2464,1.1301,1.4748,-0.1679,0.4762,0.7101,-82.65,15.6,21.75,-4.59,-2.92,-8.13,-0.0382,-0.1604,0.0949,25.5,36.1875,29.75,40.5,-27.0,159.6875,0
1776973117.895,9.4044,0.8404,1.6065,-0.6187,0.3088,0.2372,-92.25,-10.05,53.4,9.3446,0.8978,1.6352,-0.1367,0.4911,0.7029,-82.65,15.6,21.75,-4.59,-2.92,-8.13,-0.0491,-0.1374,0.0916,25.5,36.1875,29.75,40.5625,-27.125,159.6875,0
1776973117.901,8.9663,0.8284,1.8914,-0.6041,0.3941,0.2318,-90.45,-9.3,53.7,9.3446,0.8978,1.6352,-0.1367,0.4911,0.7029,-83.7,16.95,21.9,-4.51,-3.1,-8.03,-0.0491,-0.1374,0.0916,25.5,36.1875,29.75,40.5625,-27.125,159.6875,0
1776973117.906,9.3518,0.723,1.6544,-0.6462,0.3901,0.2361,-90.45,-9.3,53.7,9.3637,0.2658,1.8387,-0.0997,0.489,0.7045,-83.7,16.95,21.9,-4.51,-3.1,-8.03,-0.0633,-0.1298,0.0927,26.5625,36.1875,31.25,40.5625,-27.1875,159.75,0
1776973117.911,9.3518,0.723,1.6544,-0.6462,0.3901,0.2361,-91.65,-10.2,54.6,9.3637,0.2658,1.8387,-0.0997,0.489,0.7045,-82.35,15.6,22.5,-4.45,-3.09,-8.05,-0.0633,-0.1298,0.0927,26.5625,36.1875,31.25,40.5625,-27.1875,159.75,0
1776973117.916,9.6151,0.6321,1.719,-0.6952,0.4072,0.2145,-91.65,-10.2,54.6,9.7133,-0.0934,1.7645,-0.1484,0.4943,0.7229,-82.35,15.6,22.5,-4.45,-3.09,-8.05,-0.072,-0.1244,0.1047,26.5625,36.1875,31.25,40.625,-27.3125,159.8125,0
1776973117.921,9.6151,0.6321,1.719,-0.6952,0.4072,0.2145,-89.7,-11.55,55.5,9.7133,-0.0934,1.7645,-0.1484,0.4943,0.7229,-83.1,16.35,22.2,-4.69,-2.86,-8.16,-0.072,-0.1244,0.1047,26.5625,36.1875,31.25,40.625,-27.3125,159.8125,0
1776973117.926,9.4044,0.3232,1.5395,-0.7695,0.3882,0.2148,-89.7,-11.55,55.5,9.6822,-0.2394,1.731,-0.2284,0.4994,0.7309,-83.1,16.35,22.2,-4.69,-2.86,-8.16,-0.0873,-0.1134,0.1102,26.5625,36.1875,31.25,40.625,-27.375,159.875,0
1776973117.931,9.4044,0.3232,1.5395,-0.7695,0.3882,0.2148,-89.7,-11.55,55.5,9.6822,-0.2394,1.731,-0.2284,0.4994,0.7309,-83.4,14.85,21.45,-4.58,-2.96,-8.14,-0.0873,-0.1134,0.1102,26.5625,36.1875,31.25,40.625,-27.375,159.875,0
1776973117.94,9.5265,0.0,1.6664,-0.7631,0.3917,0.2193,-90.0,-12.75,55.8,9.754,-0.3256,1.7837,-0.2774,0.4935,0.7394,-83.4,14.85,21.45,-4.57,-2.88,-8.15,-0.0894,-0.1058,0.1189,26.5625,36.1875,31.25,40.6875,-27.4375,159.9375,0
1776973117.945,9.4882,-0.1748,1.4605,-0.7882,0.4298,0.2297,-90.0,-12.75,55.8,9.6702,-0.4142,1.6879,-0.3187,0.4938,0.7421,-83.4,14.85,21.45,-4.57,-2.88,-8.15,-0.0873,-0.0949,0.1211,26.5625,36.1875,31.25,40.75,-27.5,160.0625,0
1776973117.951,9.4882,-0.1748,1.4605,-0.7882,0.4298,0.2297,-90.0,-13.5,57.6,9.7875,-0.5483,1.6233,-0.3187,0.4938,0.7421,-82.95,15.0,21.6,-4.59,-2.83,-8.19,-0.0873,-0.0949,0.1211,26.5625,36.1875,31.25,40.75,-27.5,160.0625,0
1776973117.956,9.4188,-0.4094,1.5778,-0.8156,0.4141,0.2356,-90.0,-13.5,57.6,9.7875,-0.5483,1.6233,-0.3272,0.5065,0.7469,-82.95,15.0,21.6,-4.59,-2.83,-8.19,-0.0873,-0.0949,0.1211,26.5625,36.1875,31.25,40.8125,-27.5625,160.125,0
1776973117.961,9.4188,-0.4094,1.5778,-0.8156,0.4141,0.2356,-91.05,-16.8,57.0,9.6798,-0.5626,1.7214,-0.3272,0.5065,0.7469,-83.4,13.65,22.5,-4.7,-2.74,-8.23,-0.0873,-0.084,0.1309,27.375,35.0625,30.5625,40.8125,-27.5625,160.125,0
1776973117.966,9.4763,-0.3208,1.6185,-0.8066,0.388,0.2678,-91.05,-16.8,57.0,9.6798,-0.5626,1.7214,-0.307,0.5183,0.7485,-83.4,13.65,22.5,-4.7,-2.74,-8.23,-0.0873,-0.084,0.1309,27.375,35.0625,30.5625,40.875,-27.6875,160.1875,0
1776973117.971,9.4763,-0.3208,1.6185,-0.8066,0.388,0.2678,-91.05,-17.55,58.65,9.6965,-0.4836,1.6903,-0.307,0.5183,0.7485,-82.35,13.2,24.3,-4.76,-2.71,-8.26,-0.0785,-0.0818,0.1287,27.375,35.0625,30.5625,40.875,-27.6875,160.1875,0
1776973117.976,9.5529,-0.0766,1.5586,-0.8042,0.4072,0.2907,-91.05,-17.55,58.65,9.6965,-0.4836,1.6903,-0.323,0.5169,0.7496,-82.35,13.2,24.3,-4.76,-2.71,-8.26,-0.0578,-0.0851,0.1233,27.375,35.0625,30.5625,40.875,-27.75,160.25,0
1776973117.981,9.5529,-0.0766,1.5586,-0.8042,0.4072,0.2907,-91.05,-17.55,58.65,9.5648,-0.2035,1.8316,-0.3115,0.5287,0.744,-83.1,14.85,21.75,-4.7,-2.67,-8.32,-0.0578,-0.0851,0.1233,27.375,35.0625,30.5625,40.875,-27.75,160.25,0
1776973117.99,9.4092,0.0168,1.6352,-0.8047,0.3773,0.3134,-92.7,-18.45,59.25,9.5074,-0.0287,1.9297,-0.3115,0.5287,0.744,-81.6,12.9,22.2,-4.76,-2.7,-8.24,-0.0338,-0.0829,0.1167,27.375,35.0625,30.5625,40.9375,-27.8125,160.3125,0
1776973117.995,9.2273,0.146,1.6137,-0.7946,0.3821,0.3238,-92.7,-18.45,59.25,9.5074,-0.0287,1.9297,-0.275,0.5313,0.7464,-81.6,12.9,22.2,-4.76,-2.7,-8.24,-0.0229,-0.0807,0.1036,27.375,35.0625,30.5625,41.0,-27.875,160.375,0
1776973118.001,9.2273,0.146,1.6137,-0.7946,0.3821,0.3238,-93.6,-19.05,58.65,9.5648,-0.0934,2.0853,-0.238,0.5297,0.7333,-83.25,13.05,23.1,-4.73,-2.71,-8.22,-0.0229,-0.0807,0.1036,27.375,35.0625,30.5625,41.0,-27.875,160.375,0
1776973118.006,9.1842,0.1724,1.719,-0.8108,0.3808,0.3341,-93.6,-19.05,58.65,9.5648,-0.0934,2.0853,-0.238,0.5297,0.7333,-83.25,13.05,23.1,-4.73,-2.71,-8.22,-0.0229,-0.0807,0.1036,28.0625,35.5,29.75,41.0625,-27.9375,160.375,0
1776973118.011,9.1842,0.1724,1.719,-0.8244,0.3872,0.3389,-92.4,-20.7,58.5,9.4643,-0.2251,2.0159,-0.2182,0.542,0.7306,-83.25,13.05,23.1,-4.69,-2.76,-8.2,-0.0196,-0.0709,0.0884,28.0625,35.5,29.75,41.0625,-27.9375,160.375,0
1776973118.016,9.2081,0.0622,1.7621,-0.8244,0.3872,0.3389,-92.4,-20.7,58.5,9.4643,-0.2251,2.0159,-0.2182,0.542,0.7306,-83.25,13.05,23.1,-4.69,-2.76,-8.2,-0.0196,-0.0709,0.0884,28.0625,35.5,29.75,41.0625,-28.0,160.4375,0
1776973118.021,9.086,-0.0239,1.9058,-0.8316,0.3627,0.3312,-91.05,-22.05,59.85,9.4571,-0.3903,2.1213,-0.2438,0.5492,0.724,-82.35,12.0,23.25,-4.68,-2.84,-8.16,-0.0327,-0.0633,0.0807,28.0625,35.5,29.75,41.0625,-28.0,160.4375,0
1776973118.026,9.086,-0.0239,1.9058,-0.8316,0.3627,0.3312,-91.05,-22.05,59.85,9.4571,-0.3903,2.1213,-0.2438,0.5492,0.724,-82.35,12.0,23.25,-4.68,-2.84,-8.16,-0.0633,-0.0698,0.0742,28.0625,35.5,29.75,41.125,-28.0625,160.5,0
1776973118.031,9.1363,0.0168,1.9704,-0.8628,0.3896,0.3238,-91.65,-21.9,58.95,9.4499,-0.3352,2.15,-0.2654,0.5476,0.7242,-82.35,12.0,23.25,-4.72,-2.85,-8.18,-0.0633,-0.0698,0.0742,28.0625,35.5,29.75,41.125,-28.0625,160.5,0
1776973118.04,9.1363,0.0168,1.9704,-0.8788,0.3909,0.3312,-91.65,-21.9,58.95,9.4044,-0.3543,2.0255,-0.2819,0.5444,0.7237,-81.75,10.35,24.6,-4.64,-2.88,-8.14,-0.0873,-0.0742,0.0709,28.0625,35.5,29.75,41.125,-28.0625,160.5625,0
1776973118.045,9.3446,0.0718,2.1308,-0.8788,0.3909,0.3312,-91.65,-21.9,58.95,9.4044,-0.3543,2.0255,-0.2819,0.5444,0.7237,-81.75,10.35,24.6,-4.64,-2.88,-8.14,-0.1178,-0.0687,0.0698,28.0625,35.5,29.75,41.125,-28.125,160.625,0
1776973118.052,9.4475,0.1891,2.1428,-0.8617,0.3858,0.3389,-90.0,-20.25,59.1,9.6367,-0.5411,2.2769,-0.3104,0.5391,0.7392,-82.5,9.45,23.4,-4.65,-2.84,-8.16,-0.1178,-0.0687,0.0698,28.0625,35.5,29.75,41.125,-28.125,160.625,0
1776973118.056,9.4475,0.1891,2.1428,-0.8617,0.3858,0.3389,-92.25,-20.25,59.1,9.6367,-0.5411,2.2769,-0.3104,0.5391,0.7392,-82.5,9.45,23.4,-4.65,-2.85,-8.14,-0.1364,-0.072,0.0731,27.375,35.0625,29.75,41.1875,-28.1875,160.6875,0
1776973118.061,9.5553,0.3328,2.2027,-0.8804,0.3896,0.3371,-92.25,-21.3,59.85,9.6989,-0.5004,2.1572,-0.3203,0.5292,0.7392,-81.0,8.7,24.15,-4.65,-2.85,-8.14,-0.1364,-0.072,0.0731,27.375,35.0625,29.75,41.1875,-28.1875,160.6875,0
1776973118.066,9.5553,0.3328,2.2027,-0.8804,0.3896,0.3371,-91.35,-21.15,60.0,9.6031,-0.4214,2.15,-0.3203,0.5292,0.7392,-81.0,8.7,24.15,-4.65,-2.85,-8.14,-0.1473,-0.0796,0.0753,27.375,35.0625,29.75,41.1875,-28.25,160.8125,0
1776973118.071,9.5672,0.4262,2.2218,-0.8844,0.3701,0.3352,-91.35,-21.15,60.0,9.6031,-0.4214,2.15,-0.3214,0.5548,0.7554,-81.3,9.15,24.15,-4.61,-2.81,-8.25,-0.1473,-0.0796,0.0753,27.375,35.0625,29.75,41.1875,-28.25,160.8125,0
1776973118.076,9.5672,0.4262,2.2218,-0.8844,0.3701,0.3352,-90.15,-21.15,59.25,9.6917,-0.3519,2.1452,-0.3214,0.5548,0.7554,-81.3,9.15,24.15,-4.61,-2.81,-8.25,-0.1658,-0.0851,0.0774,27.375,35.0625,29.75,41.1875,-28.3125,160.9375,0
1776973118.082,9.6055,0.4836,2.1356,-0.9132,0.3757,0.3269,-90.15,-21.15,59.25,9.6917,-0.3519,2.1452,-0.3176,0.5649,0.7815,-81.3,9.15,24.15,-4.62,-2.83,-8.31,-0.1658,-0.0851,0.0774,27.375,35.0625,29.75,41.1875,-28.3125,160.9375,0
1776973118.091,9.6247,0.656,2.1668,-0.9286,0.3395,0.3264,-90.15,-21.15,59.25,9.6007,-0.261,2.15,-0.3499,0.5793,0.8023,-81.3,9.15,24.15,-4.51,-2.77,-8.38,-0.1505,-0.1004,0.0796,27.375,35.0625,29.75,41.1875,-28.375,161.0,0
1776973118.095,9.6247,0.656,2.1668,-0.9286,0.3395,0.3264,-90.15,-21.15,59.25,9.5553,-0.0527,2.1021,-0.3499,0.5793,0.8023,-80.85,8.55,25.8,-4.51,-2.77,-8.38,-0.1407,-0.1353,0.06,27.375,35.0625,29.75,41.1875,-28.4375,161.125,0
1776973118.102,9.5505,0.8236,2.0949,-0.9497,0.3126,0.3059,-90.15,-21.15,59.25,9.5553,-0.0527,2.1021,-0.3698,0.5702,0.8343,-80.85,8.55,25.8,-4.65,-2.73,-8.25,-0.1407,-0.1353,0.06,27.375,35.0625,29.75,41.1875,-28.4375,161.125,0
1776973118.106,9.5505,0.8236,2.0949,-0.9497,0.3126,0.3059,-88.95,-21.3,59.4,9.5912,0.4477,2.2194,-0.3656,0.5841,0.8692,-80.85,8.55,25.8,-4.65,-2.73,-8.25,-0.1407,-0.1353,0.06,28.75,34.0,29.75,41.1875,-28.5625,161.1875,0
1776973118.112,9.6223,1.154,2.0542,-0.9814,0.2651,0.3,-88.95,-21.3,59.4,9.5912,0.4477,2.2194,-0.3656,0.5841,0.8692,-79.65,7.8,26.55,-4.53,-2.74,-8.29,-0.1244,-0.1702,0.0556,28.75,34.0,29.75,41.1875,-28.5625,161.1875,0
1776973118.116,9.6223,1.154,2.0542,-0.9814,0.2651,0.3,-88.5,-21.75,61.95,9.7923,0.5674,2.1811,-0.3672,0.5785,0.9148,-79.65,7.8,26.55,-4.53,-2.74,-8.29,-0.1244,-0.1702,0.0556,28.75,34.0,29.75,41.1875,-28.625,161.25,0
1776973118.121,9.5457,1.2067,2.0949,-1.0128,0.2198,0.2899,-88.5,-21.75,61.95,9.7923,0.5674,2.1811,-0.3672,0.5785,0.9148,-80.55,6.75,25.65,-4.57,-2.78,-8.25,-0.1189,-0.2007,0.0524,28.75,34.0,29.75,41.1875,-28.625,161.25,0
1776973118.126,9.5457,1.2067,2.0949,-1.0128,0.2198,0.2899,-89.1,-19.95,61.05,9.8617,0.1915,2.0853,-0.3499,0.5897,0.9646,-80.55,6.75,25.65,-4.57,-2.78,-8.25,-0.1102,-0.2345,0.0545,28.75,34.0,29.75,41.1875,-28.75,161.3125,0
1776973118.132,9.6271,1.221,2.1165,-1.0336,0.1961,0.2822,-89.1,-19.95,61.05,9.8617,0.1915,2.0853,-0.3499,0.5897,0.9646,-81.15,6.9,25.8,-4.6,-2.73,-8.37,-0.1102,-0.2345,0.0545,28.75,34.0,29.75,41.1875,-28.75,161.3125,0
1776973118.141,9.7444,1.1923,2.3032,-1.0725,0.199,0.2659,-87.3,-22.2,62.1,9.8665,-0.2298,2.1787,-0.3344,0.611,1.0003,-81.15,6.9,25.8,-4.46,-2.84,-8.42,-0.1156,-0.2683,0.0513,28.75,34.0,29.75,41.1875,-28.9375,161.375,0
1776973118.145,9.7444,1.1923,2.3032,-1.0725,0.199,0.2659,-87.3,-22.2,62.1,9.8043,-0.5531,2.2505,-0.3248,0.6379,1.0352,-81.15,6.9,25.5,-4.46,-2.84,-8.42,-0.1156,-0.3043,0.0633,28.75,34.0,29.75,41.1875,-29.0625,161.375,0
1776973118.152,9.8593,1.087,2.3367,-1.0616,0.1785,0.2422,-87.3,-22.2,62.1,9.8043,-0.5531,2.2505,-0.3248,0.6379,1.0352,-79.35,5.85,26.55,-4.59,-2.72,-8.44,-0.1156,-0.3043,0.0633,28.75,34.0,29.75,41.1875,-29.0625,161.375,0
1776973118.157,10.0054,0.8691,2.2386,-1.0259,0.1852,0.2124,-87.9,-24.0,63.0,9.9719,-0.7183,1.8435,-0.356,0.6702,1.0914,-79.35,5.85,26.55,-4.59,-2.72,-8.44,-0.1276,-0.3938,0.096,28.0625,34.375,31.25,41.1875,-29.25,161.5,0
1776973118.162,10.0054,0.8691,2.2386,-1.0259,0.1852,0.2124,-87.9,-24.0,63.0,9.9719,-0.7183,1.8435,-0.356,0.6702,1.0914,-79.5,4.8,26.7,-4.61,-2.62,-8.48,-0.1276,-0.3938,0.096,28.0625,34.375,31.25,41.1875,-29.25,161.5,0
1776973118.167,10.2352,0.8811,1.7502,-1.0064,0.198,0.1783,-87.9,-24.0,63.3,10.0173,-0.7446,1.8747,-0.4362,0.6861,1.1298,-79.5,4.8,26.7,-4.61,-2.62,-8.48,-0.132,-0.4745,0.108,28.0625,34.375,31.25,41.1875,-29.5,161.5625,0
1776973118.172,10.2352,0.8811,1.7502,-1.0064,0.198,0.1783,-87.9,-24.0,63.3,10.0173,-0.7446,1.8747,-0.4362,0.6861,1.1298,-79.5,4.8,26.7,-4.45,-2.81,-8.68,-0.132,-0.4745,0.108,28.0625,34.375,31.25,41.1875,-29.5,161.5625,0
1776973118.176,10.3789,1.0654,1.2857,-0.9785,0.1759,0.1338,-87.6,-25.2,62.85,10.1801,-0.8954,1.4485,-0.5417,0.7045,1.1596,-79.5,4.8,26.7,-4.45,-2.81,-8.68,-0.1113,-0.528,0.1287,28.0625,34.375,31.25,41.1875,-29.8125,161.5625,0
1776973118.182,10.3789,1.0654,1.2857,-0.9785,0.1759,0.1338,-87.6,-25.2,62.85,10.2687,-0.4788,1.7454,-0.5417,0.7045,1.1596,-78.9,4.2,27.75,-4.41,-2.49,-8.84,-0.1113,-0.528,0.1287,28.0625,34.375,31.25,41.1875,-30.125,161.625,0
1776973118.191,10.5608,1.2617,0.8092,-0.9188,0.1628,0.0815,-87.45,-25.5,61.95,10.2687,-0.4788,1.7454,-0.6033,0.7669,1.1956,-78.9,4.2,27.75,-4.16,-2.49,-8.8,-0.0818,-0.6163,0.1593,28.0625,34.375,31.25,41.25,-30.5625,161.625,0
1776973118.201,10.5919,1.4293,0.6488,-0.8612,0.1167,0.0333,-87.45,-25.5,61.95,10.8769,0.4669,1.0511,-0.7426,0.7863,1.2678,-78.3,2.1,28.2,-4.29,-2.27,-8.86,-0.0284,-0.7745,0.2062,28.0625,34.375,31.25,41.25,-30.5625,161.625,0
1776973118.206,10.6159,1.7047,0.4142,-0.8655,0.0802,-0.0221,-87.45,-25.5,61.95,10.8769,0.4669,1.0511,-0.7165,0.805,1.3379,-78.9,1.05,29.85,-4.29,-2.27,-8.86,-0.0284,-0.7745,0.2062,28.0625,34.375,31.25,41.25,-30.5625,161.625,0
1776973118.211,10.6159,1.7047,0.4142,-0.8655,0.0802,-0.0221,-87.45,-25.5,61.95,10.8673,0.4022,0.5674,-0.7165,0.805,1.3379,-78.9,1.05,29.85,-4.14,-2.18,-9.12,0.0218,-0.9752,0.2585,29.1875,34.375,29.75,41.3125,-31.125,161.5625,0
1776973118.216,10.7619,2.3152,0.1437,-0.8426,0.0285,-0.0791,-88.35,-28.95,60.6,10.8673,0.4022,0.5674,-0.648,0.8447,1.4003,-78.15,0.0,28.8,-4.14,-2.18,-9.12,0.0218,-0.9752,0.2585,29.1875,34.375,29.75,41.3125,-31.125,161.5625,0
1776973118.221,10.7619,2.3152,0.1437,-0.8426,0.0285,-0.0791,-88.35,-28.95,60.6,11.0397,0.3735,0.2322,-0.648,0.8447,1.4003,-78.15,0.0,28.8,-4.24,-2.12,-9.09,0.0829,-1.2152,0.3033,29.1875,34.375,29.75,41.375,-31.8125,161.5,0
1776973118.226,10.8864,3.0933,-0.1724,-0.8346,-0.0703,-0.149,-88.5,-28.05,61.5,11.0397,0.3735,0.2322,-0.6091,0.9004,1.4687,-77.55,-0.45,28.65,-4.24,-2.12,-9.09,0.2258,-1.5119,0.3556,29.1875,34.375,29.75,41.5,-32.6875,161.3125,0
1776973118.232,10.8864,3.0933,-0.1724,-0.8346,-0.0703,-0.149,-88.5,-28.05,61.5,11.4658,0.51,-0.0958,-0.623,0.9603,1.5545,-77.55,-0.45,28.65,-4.2,-2.1,-9.14,0.2258,-1.5119,0.3556,29.1875,34.375,29.75,41.625,-33.75,161.0625,0
1776973118.241,11.2168,3.8834,-0.4525,-0.7429,-0.1471,-0.2505,-88.35,-31.2,60.6,12.1362,0.5818,-0.5052,-0.6078,1.0059,1.6585,-77.4,-1.05,29.85,-4.11,-2.22,-9.51,0.3731,-1.8162,0.4385,29.1875,34.375,29.75,41.625,-33.75,161.0625,0
1776973118.251,11.461,4.8435,-0.8188,-0.6608,-0.2497,-0.3765,-87.6,-31.2,61.05,13.0029,0.4645,-0.7063,-0.6201,1.077,1.7461,-77.4,-1.05,29.85,-4.05,-1.9,-9.63,0.4494,-2.1358,0.5203,29.1875,34.375,29.75,41.875,-34.9375,160.75,0
1776973118.256,11.2767,5.2433,-1.3336,-0.6275,-0.3656,-0.546,-87.6,-31.2,61.05,13.0029,0.4645,-0.7063,-0.6201,1.077,1.7461,-76.65,-2.25,30.3,-4.05,-1.9,-9.63,0.4494,-2.1358,0.5203,29.1875,34.375,29.75,42.0625,-36.375,160.375,0
1776973118.261,11.2767,5.2433,-1.3336,-0.6275,-0.3656,-0.546,-87.6,-31.2,61.05,13.4315,1.3815,-0.9409,-0.5319,1.1652,1.857,-76.65,-2.25,30.3,-3.93,-1.88,-9.85,0.4909,-2.5111,0.6141,30.1875,33.6875,27.75,42.0625,-36.375,160.375,0
1776973118.266,10.6829,5.7628,-1.9776,-0.5726,-0.5135,-0.7224,-89.7,-36.75,61.5,13.4315,1.3815,-0.9409,-0.5319,1.1652,1.857,-76.65,-2.25,30.3,-3.93,-1.88,-9.85,0.4909,-2.5111,0.6141,30.1875,33.6875,27.75,42.3125,-38.0,159.9375,0
1776973118.271,10.6829,5.7628,-1.9776,-0.5726,-0.5135,-0.7224,-89.7,-36.75,61.5,14.6166,1.9417,-1.9106,-0.6694,1.2788,1.9907,-76.65,-2.25,30.3,-3.59,-2.69,-9.89,0.5989,-2.9158,0.7494,30.1875,33.6875,27.75,42.3125,-38.0,159.9375,0
1776973118.276,10.4675,6.2776,-2.3367,-0.5207,-0.6606,-0.9305,-92.25,-38.25,62.7,14.6166,1.9417,-1.9106,-0.6694,1.2788,1.9907,-75.15,-3.45,31.8,-3.59,-2.69,-9.89,0.6905,-3.2147,0.9599,30.1875,33.6875,27.75,42.75,-39.875,159.4375,0
1776973118.282,10.4675,6.2776,-2.3367,-0.5207,-0.6606,-0.9305,-92.25,-38.25,62.7,16.0459,2.4373,-2.6552,-0.9057,1.3837,2.1221,-75.15,-3.45,31.8,-3.63,-3.5,-9.37,0.6905,-3.2147,0.9599,30.1875,33.6875,27.75,86.5,-41.9375,159.0,0
1776973118.291,9.7252,6.8714,-3.1149,-0.2944,-0.8911,-1.1746,-91.8,-37.8,61.5,16.8935,3.2394,-3.3088,-1.1026,1.4983,2.2756,-73.95,-6.6,30.3,-2.96,-2.78,-10.67,0.5858,-3.5976,1.117,30.1875,33.6875,27.75,86.5,-41.9375,159.0,0
1776973118.301,9.8593,7.3167,-0.7901,0.2193,-0.9038,-1.4138,-94.05,-39.3,59.85,16.0483,4.6759,-3.4524,-1.3046,1.6204,2.3113,-73.2,-6.6,31.05,-3.4,-4.37,-10.92,0.4821,-4.1877,1.2926,30.1875,33.6875,27.75,84.5,-44.375,158.5625,0
1776973118.306,10.884,5.4636,-1.731,0.5868,-1.1983,-1.6593,-93.45,-37.95,61.35,16.0483,4.6759,-3.4524,-1.3046,1.6204,2.3113,-72.45,-7.8,31.8,-3.4,-4.37,-10.92,0.4821,-4.1877,1.2926,30.1875,33.6875,27.75,84.5,-44.375,158.5625,0
