timestamp,thigh_acc_x,thigh_acc_y,thigh_acc_z,thigh_gyro_x,thigh_gyro_y,thigh_gyro_z,thigh_mag_x,thigh_mag_y,thigh_mag_z,shank_acc_x,shank_acc_y,shank_acc_z,shank_gyro_x,shank_gyro_y,shank_gyro_z,shank_mag_x,shank_mag_y,shank_mag_z,foot_acc_x,foot_acc_y,foot_acc_z,foot_gyro_x,foot_gyro_y,foot_gyro_z,foot_mag_x,foot_mag_y,foot_mag_z,foot_euler_x,foot_euler_y,foot_euler_z,perturbation_event
1776974256.121,9.56,1.9704,1.2426,0.2177,-0.0285,0.3094,-87.9,7.8,2.1,9.7564,0.2322,1.1277,0.1492,-0.3613,-0.0618,-76.95,8.1,-8.85,-4.25,-2.27,-8.56,-0.0011,0.0087,0.0033,-20.0,3.875,30.75,197.9375,-25.875,164.9375,0
1776974256.131,9.7157,2.0542,1.221,0.2529,-0.0506,0.3144,-90.0,6.0,0.0,9.6798,0.328,1.2163,0.1348,-0.3624,-0.0674,-76.5,7.2,-9.0,-4.24,-2.28,-8.61,-0.0033,0.0087,0.0022,-20.0,3.875,30.75,197.9375,-25.875,164.9375,0
1776974256.14,9.3685,2.0399,1.4844,0.38,0.0139,0.3107,-90.0,4.8,0.3,9.7181,0.4166,1.1732,0.1308,-0.3818,-0.0706,-76.95,5.85,-9.6,-4.24,-2.3,-8.56,-0.0033,0.012,-0.0022,-20.0,3.875,30.75,197.9375,-25.875,164.9375,0
1776974256.145,9.3685,2.0399,1.4844,0.38,0.0139,0.3107,-90.0,4.8,0.3,9.7636,0.4405,1.3192,0.1561,-0.3984,-0.0794,-76.95,5.85,-9.6,-4.24,-2.3,-8.56,-0.0033,0.012,-0.0022,-20.0,3.875,30.75,197.9375,-25.875,164.9375,0
1776974256.152,9.6606,1.968,1.3551,0.3714,0.0325,0.3171,-89.7,5.25,-1.05,9.7348,0.4669,1.1444,0.1932,-0.4325,-0.0847,-75.15,6.15,-9.6,-4.22,-2.28,-8.57,-0.0022,0.0142,-0.0022,-20.0,3.875,30.75,197.9375,-25.875,164.9375,0
1776974256.157,9.6606,1.968,1.3551,0.3714,0.0325,0.3171,-89.7,5.25,-1.05,9.7348,0.4669,1.1444,0.1932,-0.4325,-0.0847,-75.15,6.15,-9.6,-4.22,-2.28,-8.57,-0.0022,0.0142,-0.0033,-20.6875,4.25,32.375,197.9375,-25.875,164.9375,0
1776974256.162,9.7013,1.8579,1.324,0.3619,-0.0432,0.3203,-89.4,4.95,-1.5,9.8545,0.1891,1.1085,0.2052,-0.4533,-0.0845,-75.45,6.6,-11.1,-4.22,-2.27,-8.55,-0.0022,0.0142,-0.0033,-20.6875,4.25,32.375,197.9375,-25.875,164.9375,0
1776974256.172,9.5864,1.5921,1.4269,0.3174,-0.0807,0.332,-88.8,3.9,-0.45,9.7827,0.1532,1.2186,0.218,-0.4671,-0.11,-75.45,6.9,-9.9,-4.21,-2.32,-8.56,-0.0033,0.0153,-0.0044,-20.6875,4.25,32.375,197.9375,-25.875,164.9375,0
1776974256.181,9.4499,1.4988,1.336,0.3336,-0.1375,0.3368,-87.45,5.25,0.3,9.7516,0.0551,1.154,0.2049,-0.4916,-0.1103,-75.45,6.9,-9.9,-4.24,-2.25,-8.61,-0.0044,0.0185,-0.0055,-20.6875,4.25,32.375,197.9375,-25.875,164.9375,0
1776974256.19,9.5074,1.5012,1.3312,0.3643,-0.1927,0.352,-87.45,5.25,0.3,9.7061,0.1245,1.0032,0.2049,-0.4916,-0.1103,-75.45,6.9,-11.1,-4.26,-2.24,-8.58,-0.0022,0.0229,-0.0055,-20.6875,4.25,32.375,197.9375,-25.875,164.9375,0
1776974256.195,9.5074,1.5012,1.3312,0.3643,-0.1927,0.352,-87.45,5.25,0.3,9.7061,0.1245,1.0032,0.1844,-0.502,-0.1148,-75.45,6.9,-11.1,-4.26,-2.24,-8.58,-0.0022,0.0229,-0.0055,-20.6875,4.25,32.375,197.9375,-25.875,164.9375,0
1776974256.202,9.3733,1.4868,1.3264,0.3786,-0.1756,0.3685,-88.8,3.15,-0.75,9.73,0.2729,1.0032,0.1599,-0.534,-0.1242,-75.45,6.9,-11.1,-4.21,-2.27,-8.59,0.0,0.0164,-0.0065,-20.6875,4.25,32.375,197.9375,-25.875,164.9375,0
1776974256.207,9.5361,1.4102,1.312,0.3922,-0.1735,0.3864,-88.8,3.15,-0.75,9.73,0.2729,1.0032,0.1599,-0.534,-0.1242,-75.45,6.9,-11.1,-4.21,-2.27,-8.59,0.0076,0.0196,-0.0098,-20.6875,3.875,30.0625,197.9375,-25.8125,164.9375,0
1776974256.212,9.5361,1.4102,1.312,0.3922,-0.1735,0.3864,-89.1,3.45,-2.25,9.6343,0.4525,0.9816,0.1468,-0.5468,-0.1322,-76.65,8.1,-11.85,-4.22,-2.3,-8.56,0.0076,0.0196,-0.0098,-20.6875,3.875,30.0625,197.9375,-25.8125,164.9375,0
1776974256.222,9.6893,1.5586,1.3575,0.4397,-0.1927,0.3866,-87.0,2.7,-1.2,9.6486,0.5339,0.8691,0.1625,-0.559,-0.1322,-76.8,7.5,-10.8,-4.23,-2.27,-8.57,0.0076,0.0196,-0.0131,-20.6875,3.875,30.0625,197.9375,-25.8125,164.9375,0
1776974256.231,9.596,1.573,1.3958,0.4362,-0.2014,0.4,-89.7,2.55,-3.15,9.8019,0.4166,0.8332,0.203,-0.579,-0.142,-77.4,6.15,-11.4,-4.22,-2.31,-8.61,0.0065,0.024,-0.0164,-20.6875,3.875,30.0625,197.9375,-25.8125,164.9375,0
1776974256.238,9.5648,1.494,1.5179,0.3989,-0.1817,0.4186,-89.7,2.55,-3.15,9.7755,0.2155,1.0271,0.203,-0.579,-0.142,-77.4,6.15,-11.4,-4.22,-2.29,-8.58,0.0055,0.0284,-0.0153,-20.6875,3.875,30.0625,197.9375,-25.8125,164.9375,0
1776974256.243,9.5648,1.494,1.5179,0.3989,-0.1817,0.4186,-89.7,2.25,-2.1,9.7755,0.2155,1.0271,0.2593,-0.6105,-0.1572,-76.05,6.75,-11.55,-4.22,-2.29,-8.58,0.0055,0.0284,-0.0153,-20.6875,3.875,30.0625,197.875,-25.75,164.875,0
1776974256.252,9.6151,1.3144,1.7238,0.3728,-0.1993,0.4167,-89.7,2.25,-2.1,9.8234,0.0982,1.0415,0.2915,-0.6336,-0.1636,-77.4,6.9,-12.9,-4.22,-2.26,-8.6,0.0131,0.0251,-0.0175,-20.6875,3.875,30.0625,197.875,-25.75,164.875,0
1776974256.257,9.3661,1.0654,1.6759,0.3467,-0.2332,0.4303,-89.7,2.25,-2.1,9.7636,0.2777,1.2115,0.2915,-0.6336,-0.1636,-77.4,6.9,-12.9,-4.22,-2.26,-8.6,0.0131,0.0251,-0.0175,-20.6875,3.875,30.0625,197.875,-25.75,164.875,0
1776974256.262,9.3661,1.0654,1.6759,0.3467,-0.2332,0.4303,-89.1,-0.15,-2.25,9.7636,0.2777,1.2115,0.336,-0.6435,-0.1721,-76.5,7.2,-12.75,-4.22,-2.2,-8.65,0.0164,0.0262,-0.0175,-20.375,4.6875,31.5625,197.875,-25.75,164.875,0
1776974256.267,9.3901,0.9744,1.6544,0.3285,-0.251,0.4367,-89.1,-0.15,-2.25,9.8521,0.3687,0.8691,0.336,-0.6435,-0.1721,-76.5,7.2,-12.75,-4.22,-2.2,-8.65,0.0164,0.0262,-0.0175,-20.375,4.6875,31.5625,197.875,-25.75,164.875,0
1776974256.272,9.3901,0.9744,1.6544,0.3285,-0.251,0.4367,-88.2,0.75,-4.2,9.8521,0.3687,0.8691,0.3605,-0.6843,-0.1831,-76.5,7.2,-12.75,-4.25,-2.29,-8.63,0.0262,0.0273,-0.0229,-20.375,4.6875,31.5625,197.875,-25.75,164.875,0
1776974256.277,9.3494,0.8523,1.5275,0.3309,-0.2864,0.4485,-88.2,0.75,-4.2,9.8162,0.2849,0.5986,0.3901,-0.7232,-0.203,-76.5,7.2,-12.75,-4.25,-2.29,-8.63,0.0458,0.0338,-0.0262,-20.375,4.6875,31.5625,197.875,-25.6875,164.8125,0
1776974256.283,9.3494,0.8523,1.5275,0.3309,-0.2864,0.4485,-89.4,0.9,-3.6,9.8162,0.2849,0.5986,0.3901,-0.7232,-0.203,-76.05,6.75,-12.3,-4.24,-2.38,-8.6,0.0458,0.0338,-0.0262,-20.375,4.6875,31.5625,197.875,-25.6875,164.8125,0
1776974256.292,9.1123,0.8595,1.5012,0.3579,-0.2638,0.4748,-89.25,-1.05,-3.15,9.7252,-0.0263,0.3065,0.4317,-0.7597,-0.2292,-76.05,6.75,-12.3,-4.24,-2.4,-8.58,0.0567,0.0327,-0.0284,-20.375,4.6875,31.5625,197.875,-25.6875,164.8125,0
1776974256.3,9.1818,0.759,1.3934,0.3848,-0.2531,0.5031,-89.25,-1.05,-3.15,9.7636,-0.1413,0.6321,0.4429,-0.725,-0.2582,-75.3,7.5,-14.85,-4.21,-2.33,-8.64,0.0698,0.0327,-0.0273,-20.375,4.6875,31.5625,197.875,-25.6875,164.75,0
1776974256.305,9.1578,0.6608,1.3791,0.3834,-0.2654,0.5313,-89.25,-1.05,-3.15,9.7324,0.2945,0.984,0.4429,-0.725,-0.2582,-75.3,7.5,-14.85,-4.21,-2.33,-8.64,0.0698,0.0327,-0.0273,-20.375,4.6875,31.5625,197.875,-25.6875,164.75,0
1776974256.31,9.1578,0.6608,1.3791,0.3834,-0.2654,0.5313,-88.8,-2.4,-5.1,9.7324,0.2945,0.984,0.4311,-0.7141,-0.2686,-75.3,7.5,-14.85,-4.25,-2.19,-8.81,0.0894,0.0185,-0.0305,-20.375,3.875,32.75,197.875,-25.6875,164.6875,0
1776974256.314,9.177,0.6464,1.3384,0.4389,-0.291,0.5676,-88.8,-2.4,-5.1,9.9982,0.9433,0.9912,0.4311,-0.7141,-0.2686,-76.05,6.0,-14.85,-4.25,-2.19,-8.81,0.0894,0.0185,-0.0305,-20.375,3.875,32.75,197.875,-25.6875,164.6875,0
1776974256.319,9.177,0.6464,1.3384,0.4389,-0.291,0.5676,-89.25,-2.25,-6.0,9.9982,0.9433,0.9912,0.3691,-0.7277,-0.2875,-75.3,6.0,-14.85,-4.33,-2.11,-8.87,0.1473,0.0076,-0.036,-20.375,3.875,32.75,197.875,-25.625,164.625,0
1776974256.324,8.8945,0.5818,1.2139,0.4711,-0.2894,0.586,-89.25,-2.25,-6.0,10.0796,1.4868,0.6249,0.3691,-0.7277,-0.2875,-75.3,6.45,-14.25,-4.33,-2.11,-8.87,0.1473,0.0076,-0.036,-20.375,3.875,32.75,197.875,-25.625,164.625,0
1776974256.329,8.8945,0.5818,1.2139,0.4711,-0.2894,0.586,-89.25,-2.25,-3.9,10.0796,1.4868,0.6249,0.3595,-0.7647,-0.3254,-75.3,6.45,-14.25,-4.47,-2.36,-8.75,0.2225,0.0164,-0.0458,-20.375,3.875,32.75,197.875,-25.625,164.5,0
1776974256.334,8.7628,0.5938,0.9864,0.5646,-0.2992,0.5702,-89.25,-2.25,-3.9,9.9838,1.7621,-0.067,0.3595,-0.7647,-0.3254,-75.15,6.6,-13.65,-4.47,-2.36,-8.75,0.2225,0.0164,-0.0458,-20.375,3.875,32.75,197.875,-25.625,164.3125,0
1776974256.342,9.6199,0.723,0.0646,0.5777,-0.4439,0.554,-88.8,-2.4,-6.45,9.9838,1.7621,-0.067,0.3944,-0.8234,-0.3992,-76.05,7.2,-13.8,-4.51,-2.46,-8.71,0.2716,0.048,-0.0513,-20.375,3.875,32.75,197.875,-25.5625,164.125,0
1776974256.352,8.0182,0.929,0.2346,0.5518,-0.5044,0.5521,-88.8,-2.4,-6.45,9.3972,1.6831,-0.7207,0.3411,-0.8239,-0.4623,-74.7,6.6,-15.15,-4.61,-2.54,-8.71,0.3163,0.0807,-0.0611,-20.375,3.875,32.75,197.875,-25.5625,164.125,0
1776974256.357,8.0182,0.929,0.2346,0.5518,-0.5044,0.5521,-88.8,-2.4,-6.45,9.493,1.8387,-0.8763,0.2979,-0.8871,-0.449,-74.7,6.6,-15.15,-4.61,-2.54,-8.71,0.3163,0.0807,-0.0611,-20.6875,4.25,32.375,197.9375,-25.5,163.9375,0
1776974256.362,8.7197,1.3623,-0.7518,0.5044,-0.1143,0.5553,-88.8,-2.4,-6.45,9.4715,1.8387,-1.1253,0.2979,-0.8871,-0.449,-74.7,6.6,-15.15,-4.71,-2.03,-9.01,0.3872,0.1222,-0.0894,-20.6875,4.25,32.375,197.9375,-25.5,163.9375,0
1776974256.367,8.7197,1.3623,-0.7518,0.5044,-0.1143,0.5553,-88.8,-2.4,-6.45,9.4715,1.8387,-1.1253,0.2459,-0.9571,-0.3248,-74.7,6.6,-15.15,-4.71,-2.03,-9.01,0.3872,0.1222,-0.0894,-20.6875,4.25,32.375,197.875,-25.375,163.625,0
1776974256.372,9.3158,2.0279,-1.233,0.4922,-0.2697,0.5526,-89.4,-6.15,-6.45,8.8562,2.2505,-1.3096,0.2459,-0.9571,-0.3248,-73.8,7.95,-14.25,-5.09,-2.15,-9.22,0.4658,0.1756,-0.1342,-20.6875,4.25,32.375,197.875,-25.375,163.625,0
1776974256.381,9.7731,2.818,-1.7047,0.7035,-0.5961,0.4975,-87.6,-4.2,-6.15,8.8562,2.2505,-1.3096,0.2827,-0.866,-0.182,-73.8,7.95,-14.25,-5.14,-3.1,-8.87,0.5498,0.2334,-0.2127,-20.6875,4.25,32.375,197.875,-25.1875,163.3125,0
1776974256.386,9.7731,2.818,-1.7047,0.7035,-0.5961,0.4975,-87.6,-4.2,-6.15,8.8131,2.9975,-1.8842,0.2907,-0.7378,-0.0578,-73.8,7.95,-14.25,-5.14,-3.1,-8.87,0.5498,0.2334,-0.2127,-20.6875,4.25,32.375,197.8125,-25.0,162.875,0
1776974256.392,9.7779,3.3615,-2.0231,0.801,-0.7544,0.4197,-86.55,-4.95,-6.9,9.0956,3.5195,-2.1165,0.3006,-0.667,0.073,-75.3,7.5,-14.85,-6.25,-2.85,-9.31,0.6152,0.3196,-0.3392,-20.6875,4.25,32.375,197.6875,-24.625,162.5,0
1776974256.402,10.3046,3.8116,-2.1907,0.9571,-0.777,0.3134,-88.35,-5.7,-6.9,9.5768,3.7613,-2.5211,0.2729,-0.6086,0.1604,-74.55,7.5,-15.3,-3.54,-3.43,-8.22,0.613,0.5356,-0.3785,-20.6875,4.25,32.375,197.6875,-24.625,162.5,0
1776974256.407,10.3046,3.8116,-2.1907,0.9571,-0.777,0.3134,-88.35,-5.7,-6.9,9.5768,3.7613,-2.5211,0.2729,-0.6086,0.1604,-74.55,7.5,-15.3,-3.54,-3.43,-8.22,0.613,0.5356,-0.3785,-20.6875,4.25,32.375,197.5625,-24.1875,162.125,0
1776974256.412,10.6925,3.9672,-2.6647,1.2601,-0.6622,0.1631,-88.35,-5.7,-6.9,9.7564,3.5506,-2.5738,0.3059,-0.6089,0.238,-73.65,7.35,-15.9,-3.98,-3.81,-8.56,0.5923,0.7079,-0.4483,-20.375,5.0625,32.0,197.5625,-24.1875,162.125,0
1776974256.417,10.6925,3.9672,-2.6647,1.2601,-0.6622,0.1631,-88.95,-6.3,-7.8,9.7564,3.5506,-2.5738,0.3059,-0.6089,0.238,-73.65,7.35,-15.9,-3.98,-3.81,-8.56,0.5923,0.7079,-0.4483,-20.375,5.0625,32.0,197.4375,-23.75,161.75,0
1776974256.422,11.6646,4.2617,-3.1173,1.5972,-0.6872,-0.0128,-88.95,-6.3,-7.8,9.572,3.1053,-2.2051,0.3683,-0.5612,0.319,-74.1,6.45,-15.6,-4.15,-3.28,-8.81,0.5269,0.6861,-0.4331,-20.375,5.0625,32.0,197.4375,-23.75,161.75,0
1776974256.428,11.6646,4.2617,-3.1173,1.7024,-0.7674,-0.1516,-89.7,-6.3,-8.55,9.572,3.1053,-2.2051,0.3683,-0.5612,0.319,-74.1,6.45,-15.6,-4.22,-3.66,-8.82,0.4854,0.7287,-0.4407,-20.375,5.0625,32.0,197.3125,-23.25,161.4375,0
1776974256.433,11.5424,4.0127,-3.5889,1.7024,-0.7674,-0.1516,-89.7,-6.3,-8.55,9.7875,2.5929,-2.047,0.3597,-0.4538,0.401,-74.1,6.45,-15.6,-4.22,-3.66,-8.82,0.4854,0.7287,-0.4407,-20.375,5.0625,32.0,197.1875,-22.8125,161.1875,0
1776974256.442,11.382,3.5219,-3.9313,1.5484,-0.6336,-0.2009,-88.2,-6.75,-9.6,10.0892,2.059,-1.6472,0.2734,-0.3603,0.4599,-73.8,5.55,-17.1,-4.14,-3.82,-8.79,0.4451,0.7876,-0.4549,-20.375,5.0625,32.0,197.0625,-22.25,160.9375,0
1776974256.452,11.5831,3.2609,-3.4596,1.5002,-0.376,-0.3027,-88.5,-7.8,-10.2,10.4555,1.7957,-1.1612,0.2145,-0.3504,0.5031,-73.8,5.55,-17.1,-3.95,-4.03,-8.7,0.3949,0.8323,-0.4745,-20.375,5.0625,32.0,197.0625,-22.25,160.9375,0
1776974256.457,11.5831,3.2609,-3.4596,1.5002,-0.376,-0.3027,-88.5,-7.8,-10.2,10.4555,1.7957,-1.1612,0.2145,-0.3504,0.5031,-73.8,5.55,-17.1,-3.95,-4.03,-8.7,0.3949,0.8323,-0.4745,-20.375,5.0625,32.0,197.0625,-22.25,160.9375,0
1776974256.462,11.4563,3.1556,-3.6176,1.2446,-0.2606,-0.4194,-88.5,-7.8,-10.2,10.4866,1.8076,-0.5363,0.2065,-0.2745,0.5337,-74.85,5.55,-17.85,-4.35,-4.22,-8.56,0.3229,0.841,-0.48,-20.6875,5.375,32.0,196.875,-21.75,160.6875,0
1776974256.467,11.4563,3.1556,-3.6176,0.8372,-0.0432,-0.4956,-88.5,-7.8,-10.2,10.4866,1.8076,-0.5363,0.2065,-0.2745,0.5337,-74.85,5.55,-17.85,-4.35,-4.22,-8.56,0.3229,0.841,-0.48,-20.6875,5.375,32.0,196.875,-21.75,160.6875,0
1776974256.472,11.1019,2.9066,-4.0055,0.8372,-0.0432,-0.4956,-88.5,-7.8,-10.2,10.5776,2.2434,-0.3041,0.2177,-0.2281,0.5729,-73.65,2.7,-16.95,-6.12,-5.27,-9.37,0.2182,0.8585,-0.4614,-20.6875,5.375,32.0,196.75,-21.1875,160.5625,0
1776974256.48,10.9846,2.6528,-3.9816,0.5604,0.0506,-0.5073,-88.8,-6.9,-7.95,10.7835,2.9784,-0.0335,0.1953,-0.2348,0.6283,-73.65,2.7,-16.95,-6.07,-5.07,-9.64,0.0229,0.9218,-0.3622,-20.6875,5.375,32.0,196.625,-20.625,160.5,0
1776974256.485,10.9846,2.6528,-3.9816,0.5604,0.0506,-0.5073,-88.8,-6.9,-7.95,10.7835,2.9784,-0.0335,0.1953,-0.2348,0.6283,-74.1,4.5,-18.3,-6.07,-5.07,-9.64,0.0229,0.9218,-0.3622,-20.6875,5.375,32.0,196.5,-20.0,160.625,0
1776974256.493,11.1091,2.4612,-3.723,0.5987,0.0107,-0.4802,-87.6,-7.95,-8.7,10.8146,3.6296,-0.4621,0.226,-0.2891,0.7021,-73.65,4.95,-17.4,-5.06,-5.56,-9.06,-0.168,1.0341,-0.4287,-20.6875,5.375,32.0,196.25,-19.3125,160.75,0
1776974256.502,10.6111,2.1644,-3.4357,0.4477,0.0051,-0.457,-87.0,-7.65,-9.75,10.5034,4.7908,0.0646,0.3219,-0.296,0.7823,-74.1,3.3,-17.1,-5.65,-6.93,-7.81,-0.3534,1.1759,-0.5345,-20.6875,5.375,32.0,196.25,-19.3125,160.75,0
1776974256.507,10.0173,1.9225,-3.2394,0.2094,0.0392,-0.4154,-88.05,-6.9,-10.5,9.9814,5.9855,-0.2442,0.5561,-0.1487,0.8108,-74.1,3.3,-17.1,-5.65,-6.93,-7.81,-0.3534,1.1759,-0.5345,-20.6875,5.375,32.0,195.8125,-18.625,160.875,0
1776974256.512,10.0173,1.9225,-3.2394,0.2094,0.0392,-0.4154,-88.05,-6.9,-10.5,9.9814,5.9855,-0.2442,0.5561,-0.1487,0.8108,-74.1,4.05,-18.3,-3.44,-13.24,-4.79,-0.3752,1.0581,-0.8988,-21.875,5.375,32.75,195.8125,-18.625,160.875,0
1776974256.517,9.9359,1.7334,-2.8012,-0.0624,-0.0112,-0.4013,-88.05,-6.9,-10.5,9.4547,6.6104,-1.1636,0.8964,-0.0365,0.7845,-74.1,4.05,-18.3,-3.44,-13.24,-4.79,-0.3752,1.0581,-0.8988,-21.875,5.375,32.75,195.0,-17.875,160.875,0
1776974256.522,9.9359,1.7334,-2.8012,-0.0624,-0.0112,-0.4013,-88.05,-6.9,-10.5,9.4547,6.6104,-1.1636,0.8964,-0.0365,0.7845,-74.1,4.05,-18.3,-3.76,-11.02,-5.36,-0.3774,0.7898,-1.5828,-21.875,5.375,32.75,195.0,-17.875,160.875,0
1776974256.529,9.8976,1.5227,-2.6288,-0.3232,-0.0711,-0.4167,-88.35,-8.7,-10.8,8.9998,7.3478,-0.6321,1.6052,-0.0101,0.8103,-74.1,4.05,-18.3,-7.26,-11.15,-3.68,-0.7647,0.5869,-1.801,-21.875,5.375,32.75,193.9375,-17.25,161.0,0
1776974256.534,9.8976,1.5227,-2.6288,-0.3232,-0.0711,-0.4167,-88.35,-8.7,-10.8,8.9998,7.3478,-0.6321,1.6052,-0.0101,0.8103,-73.35,0.9,-16.8,-7.26,-11.15,-3.68,-0.7647,0.5869,-1.801,-21.875,5.375,32.75,192.6875,-16.75,161.3125,0
1776974256.542,10.1035,1.5275,-2.3272,-0.4759,-0.2102,-0.4453,-88.05,-6.9,-9.75,8.2241,7.4603,0.4764,2.4781,0.1713,0.8799,-73.35,0.9,-16.8,-6.25,-12.6,-3.2,-1.1116,0.2553,-2.1424,-21.875,5.375,32.75,191.1875,-16.4375,161.9375,0
1776974256.552,9.9886,1.7837,-1.6616,-0.6161,-0.356,-0.4924,-86.25,-6.9,-11.55,7.9368,6.9935,0.656,2.9673,0.372,0.9601,-73.35,-0.45,-16.05,-6.93,-10.98,-2.43,-1.8108,-0.2378,-2.4184,-21.875,5.375,32.75,191.1875,-16.4375,161.9375,0
1776974256.557,9.9814,2.5786,-1.7142,-0.3917,-0.4588,-0.5601,-88.2,-6.3,-9.9,8.0302,6.5074,0.9433,3.4779,0.5588,1.0858,-73.35,-0.45,-16.05,-6.93,-10.98,-2.43,-1.8108,-0.2378,-2.4184,-21.875,5.375,32.75,191.1875,-16.4375,161.9375,0
1776974256.562,9.9814,2.5786,-1.7142,-0.3917,-0.4588,-0.5601,-88.2,-6.3,-9.9,8.0302,6.5074,0.9433,3.4779,0.5588,1.0858,-74.55,-3.3,-16.8,-8.2,-8.88,-2.98,-2.822,-0.8061,-2.5362,-21.875,3.1875,33.875,189.5,-16.4375,163.0625,0
1776974256.567,9.0118,3.45,-1.8076,-0.2092,-0.5875,-0.6145,-88.2,-6.3,-9.9,8.2672,5.6623,1.5419,3.9674,0.7757,1.2558,-74.55,-3.3,-16.8,-8.2,-8.88,-2.98,-2.822,-0.8061,-2.5362,-21.875,3.1875,33.875,189.5,-16.4375,163.0625,0
1776974256.572,9.0118,3.45,-1.8076,-0.2092,-0.5875,-0.6145,-88.2,-6.3,-9.9,8.2672,5.6623,1.5419,3.9674,0.7757,1.2558,-74.7,-4.65,-15.9,-8.58,-5.1,-3.83,-3.5147,-1.2337,-2.7216,-21.875,3.1875,33.875,187.5625,-16.6875,164.5,0
1776974256.582,7.9057,4.4484,-2.2146,0.0933,-0.6579,-0.6957,-87.6,-4.65,-11.55,8.7269,4.4867,1.6376,4.2709,1.0118,1.4186,-74.7,-4.65,-15.9,-6.74,-1.61,-4.99,-3.8026,-1.5381,-3.0161,-21.875,3.1875,33.875,185.5,-17.0625,166.0625,0
1776974256.591,6.9073,5.77,-2.8036,0.5287,-0.7901,-0.8535,-88.35,-5.7,-10.8,9.3302,2.7725,1.403,4.5227,1.1474,1.5234,-73.35,-6.0,-14.55,-6.66,-1.2,-4.96,-3.627,-1.7715,-3.3249,-21.875,3.1875,33.875,183.1875,-17.625,167.4375,0
1776974256.597,6.0094,6.8474,-3.134,1.0184,-0.8335,-1.0325,-88.2,-5.55,-11.7,9.3901,0.6129,2.071,4.7284,1.2497,1.5356,-74.4,-8.1,-14.4,-6.66,-1.2,-4.96,-3.0281,-2.1162,-3.6096,-21.875,3.1875,33.875,180.8125,-18.375,168.375,0
1776974256.603,5.9472,7.9296,-2.8659,1.5439,-0.6035,-1.1775,-88.2,-5.55,-11.7,8.7149,-0.6297,3.2561,4.843,1.2686,1.4978,-75.6,-10.35,-12.3,-5.65,-3.49,-5.29,-3.0281,-2.1162,-3.6096,-21.875,3.1875,33.875,180.8125,-18.375,168.375,0
1776974256.608,5.9472,7.9296,-2.8659,1.5439,-0.6035,-1.1775,-86.4,-4.5,-11.4,8.7149,-0.6297,3.2561,4.843,1.2686,1.4978,-75.6,-10.35,-12.3,-6.05,-4.24,-6.23,-2.0508,-2.7369,-3.7339,-18.1875,-6.25,34.375,178.4375,-19.4375,168.75,0
1776974256.613,6.2944,8.5617,-1.1732,1.7171,-0.1705,-1.3102,-88.95,-4.05,-10.2,8.1403,-1.561,2.6049,4.5389,1.404,1.4029,-75.6,-10.35,-12.3,-6.05,-4.24,-6.23,-2.0508,-2.7369,-3.7339,-18.1875,-6.25,34.375,178.4375,-19.4375,168.75,0
1776974256.618,6.2944,8.5617,-1.1732,1.7171,-0.1705,-1.3102,-88.95,-4.05,-10.2,8.1403,-1.561,2.6049,4.5389,1.404,1.4029,-75.6,-10.35,-12.3,-6.05,-4.24,-6.23,-2.0508,-2.7369,-3.7339,-18.1875,-6.25,34.375,176.0,-20.5,169.0,0
1776974256.623,7.9009,8.0709,0.5028,1.2894,0.4074,-1.2753,-88.95,-4.05,-10.2,7.8626,-2.2098,2.7821,4.1824,1.5865,1.242,-75.15,-13.95,-9.6,-6.78,-4.22,-7.26,-2.0508,-2.7369,-3.7339,-18.1875,-6.25,34.375,176.0,-20.5,169.0,0
1776974256.632,8.2097,6.6822,1.9992,1.1644,0.6928,-1.1194,-88.95,-4.05,-10.2,8.4443,-1.9297,3.3303,3.7902,1.6971,1.073,-75.15,-13.95,-9.6,-6.07,-3.5,-8.4,-1.861,-2.846,-3.6837,-18.1875,-6.25,34.375,173.625,-21.6875,169.1875,0
1776974256.642,9.3925,4.1348,2.4995,1.3392,1.003,-0.9942,-88.95,-3.75,-11.4,9.3805,-1.7645,2.6384,3.2668,1.6771,0.9292,-75.15,-13.95,-9.6,-5.03,-2.91,-8.49,-1.6908,-2.7587,-3.6216,-18.1875,-6.25,34.375,171.3125,-22.8125,169.1875,0
1776974256.651,8.4348,3.0502,2.8946,1.4925,0.8354,-0.7754,-88.8,-1.95,-8.7,10.0221,-1.6376,2.6863,2.909,1.5628,0.7917,-74.1,-17.4,-6.75,-4.16,-2.54,-8.6,-1.2239,-2.5275,-3.2845,-18.1875,-6.25,34.375,169.1875,-23.875,169.0,0
1776974256.656,8.4348,3.0502,2.8946,1.4925,0.8354,-0.7754,-86.55,-3.9,-8.7,10.0221,-1.6376,2.6863,2.909,1.5628,0.7917,-76.65,-17.1,-3.3,-4.16,-2.54,-8.6,-1.2239,-2.5275,-3.2845,-18.1875,-6.25,34.375,169.1875,-23.875,169.0,0
1776974256.661,8.9711,2.7031,3.486,2.0859,0.8503,-0.6752,-86.55,-3.9,-8.7,10.2113,-1.1588,2.8587,2.6172,1.3835,0.6606,-76.65,-17.1,-3.3,-3.49,-2.31,-8.79,-0.9381,-2.4576,-2.9747,-8.0,-18.375,37.0625,167.3125,-24.875,168.625,0
1776974256.666,8.9711,2.7031,3.486,2.0859,0.8503,-0.6752,-90.15,-3.9,-9.0,10.2113,-1.1588,2.8587,2.6172,1.3835,0.6606,-75.9,-17.55,-3.3,-3.49,-2.31,-8.79,-0.9381,-2.4576,-2.9747,-8.0,-18.375,37.0625,167.3125,-24.875,168.625,0
1776974256.671,9.7851,2.1835,3.3662,2.7358,0.8577,-0.7453,-90.15,-3.9,-9.0,9.8785,-1.1396,2.5379,2.3116,1.2859,0.5225,-75.9,-17.55,-3.3,-3.11,-2.17,-9.66,-0.6207,-2.3355,-2.6104,-8.0,-18.375,37.0625,165.625,-25.875,168.1875,0
1776974256.676,9.7851,2.1835,3.3662,2.7358,0.8577,-0.7453,-90.15,-3.9,-9.0,9.8785,-1.1396,2.5379,2.3116,1.2859,0.5225,-74.85,-19.35,-2.4,-3.11,-2.17,-9.66,-0.6207,-2.3355,-2.6104,-8.0,-18.375,37.0625,164.25,-26.75,167.6875,0
1776974256.683,9.8569,1.6065,1.4317,2.9753,0.8801,-0.8577,-90.75,-3.0,-8.85,9.4332,-1.245,2.5522,2.0944,1.2113,0.3813,-75.45,-19.95,-1.05,-2.92,-2.79,-10.14,-0.3523,-2.1217,-2.2395,-8.0,-18.375,37.0625,163.0625,-27.5,167.125,0
1776974256.693,10.0844,0.826,-0.5339,2.7555,0.9017,-0.9292,-89.7,-3.3,-6.0,9.4236,-1.1468,2.5666,1.8519,1.1189,0.2577,-75.45,-19.95,-1.05,-2.68,-3.11,-10.39,-0.2083,-1.8435,-1.8817,-8.0,-18.375,37.0625,163.0625,-27.5,167.125,0
1776974256.702,9.6295,0.8619,-0.5148,2.5868,0.8918,-0.9377,-91.5,-2.55,-6.3,9.6295,-1.1037,2.3176,1.5231,1.0048,0.1255,-75.45,-19.5,-1.05,-1.99,-2.97,-10.56,-0.1287,-1.525,-1.5664,-8.0,-18.375,37.0625,162.125,-28.125,166.6875,0
1776974256.707,9.6295,0.8619,-0.5148,2.5868,0.8918,-0.9377,-91.5,-2.55,-6.3,9.6295,-1.1037,2.3176,1.5231,1.0048,0.1255,-75.45,-19.5,-1.05,-1.99,-2.97,-10.56,-0.1287,-1.525,-1.5664,-8.0,-18.375,37.0625,162.125,-28.125,166.6875,0
1776974256.712,9.2536,0.2825,-0.498,2.4469,1.0043,-0.9342,-91.95,-1.95,-5.85,9.7085,-1.3264,2.2793,1.2473,0.8745,0.0157,-75.45,-19.5,-1.05,-1.62,-2.82,-10.43,-0.0349,-1.2195,-1.3046,6.1875,-22.5,40.375,161.3125,-28.625,166.25,0
1776974256.717,9.2536,0.2825,-0.498,2.4469,1.0043,-0.9342,-91.95,-1.95,-5.85,9.7085,-1.3264,2.2793,1.2473,0.8745,0.0157,-75.15,-20.7,2.55,-1.62,-2.82,-10.43,-0.0349,-1.2195,-1.3046,6.1875,-22.5,40.375,161.3125,-28.625,166.25,0
1776974256.722,9.5553,-0.1389,-0.4094,2.2886,1.0088,-0.9262,-93.6,-1.5,-6.3,9.809,-0.9553,2.2984,1.04,0.721,-0.0679,-75.15,-20.7,2.55,-1.24,-2.7,-10.27,0.0851,-0.9414,-1.1006,6.1875,-22.5,40.375,160.625,-29.0,165.75,0
1776974256.728,9.5553,-0.1389,-0.4094,2.1405,1.0499,-0.9537,-93.6,-1.5,-6.3,9.8737,-0.8906,1.4317,1.04,0.721,-0.0679,-75.15,-20.7,2.55,-1.24,-2.7,-10.27,0.2149,-0.7123,-0.9512,6.1875,-22.5,40.375,160.0625,-29.25,165.3125,0
1776974256.734,9.2943,-0.1891,0.0144,2.1405,1.0499,-0.9537,-93.6,-1.5,-6.3,9.8737,-0.8906,1.4317,0.7408,0.5923,-0.1572,-76.5,-20.4,2.7,-0.26,-3.08,-9.86,0.2149,-0.7123,-0.9512,6.1875,-22.5,40.375,159.625,-29.4375,164.875,0
1776974256.743,9.9192,-0.7422,0.4142,1.9313,0.9963,-1.004,-95.25,-0.45,-3.6,9.9216,-0.9816,1.2857,0.5678,0.4636,-0.2601,-76.5,-20.4,2.7,-0.15,-3.6,-9.79,0.3065,-0.5476,-0.8323,6.1875,-22.5,40.375,159.625,-29.4375,164.875,0
1776974256.753,9.9886,-1.2306,0.5722,1.8165,0.8908,-1.0648,-95.4,-0.3,-3.15,9.821,-1.0918,1.2522,0.4634,0.3403,-0.3714,-75.9,-21.0,5.1,-0.13,-3.86,-9.76,0.36,-0.4036,-0.7505,6.1875,-22.5,40.375,159.25,-29.5,164.375,0
1776974256.758,9.821,-1.0989,0.3998,1.7126,0.9276,-1.1077,-95.4,-0.3,-3.15,9.6893,-1.0582,1.2402,0.4309,0.2369,-0.4778,-76.95,-21.0,4.35,-0.13,-3.86,-9.76,0.36,-0.4036,-0.7505,6.1875,-22.5,40.375,159.25,-29.5,164.375,0
1776974256.763,9.821,-1.0989,0.3998,1.7126,0.9276,-1.1077,-95.85,1.05,-2.4,9.6893,-1.0582,1.2402,0.4309,0.2369,-0.4778,-76.95,-21.0,4.35,-0.37,-4.21,-9.81,0.3949,-0.2585,-0.7232,18.375,-22.375,44.1875,158.875,-29.5625,163.9375,0
1776974256.768,9.9383,-0.7039,0.1844,1.7227,0.9249,-1.1098,-95.85,1.05,-2.4,9.6845,-0.8404,1.0487,0.3829,0.1338,-0.5942,-77.55,-20.85,4.5,-0.37,-4.21,-9.81,0.3949,-0.2585,-0.7232,18.375,-22.375,44.1875,158.875,-29.5625,163.9375,0
1776974256.773,9.9383,-0.7039,0.1844,1.7227,0.9249,-1.1098,-96.15,1.8,-1.35,9.6845,-0.8404,1.0487,0.3829,0.1338,-0.5942,-77.55,-20.85,4.5,-0.32,-4.8,-9.62,0.408,-0.0916,-0.7461,18.375,-22.375,44.1875,158.5,-29.5,163.5,0
1776974256.781,9.7396,-0.0838,-0.5124,1.5799,0.7903,-1.0661,-96.15,1.8,-1.35,9.7037,-0.6967,0.8595,0.3675,0.0416,-0.7258,-78.9,-20.7,5.55,-0.09,-4.93,-9.42,0.4058,0.0469,-0.8007,18.375,-22.375,44.1875,158.125,-29.3125,163.0,0
1776974256.786,9.7396,-0.0838,-0.5124,1.5799,0.7903,-1.0661,-96.15,1.8,-1.35,9.9192,-0.6321,0.5531,0.4114,-0.0783,-0.8655,-77.25,-21.3,6.45,-0.09,-4.93,-9.42,0.4058,0.0469,-0.8007,18.375,-22.375,44.1875,157.75,-29.125,162.5625,0
1776974256.793,9.9383,0.5842,-0.9433,1.3952,0.6643,-1.0048,-96.6,5.25,-0.6,9.9192,-0.6321,0.5531,0.4114,-0.0783,-0.8655,-77.25,-21.3,6.45,-0.02,-4.97,-9.27,0.4014,0.132,-0.8792,18.375,-22.375,44.1875,157.25,-28.875,162.0625,0
1776974256.803,9.5457,1.0008,-1.221,1.0237,0.6041,-0.9734,-97.05,4.65,-0.15,9.8497,-0.4788,0.5339,0.5486,-0.1684,-1.0003,-77.25,-21.3,6.45,-0.37,-5.1,-9.07,0.4167,0.1854,-0.985,18.375,-22.375,44.1875,157.25,-28.875,162.0625,0
1776974256.808,9.9695,1.3216,-1.403,0.74,0.6126,-0.9539,-97.05,4.65,-0.15,9.6965,-0.5483,0.5148,0.7405,-0.2329,-1.1175,-76.5,-18.9,5.7,-0.37,-5.1,-9.07,0.4167,0.1854,-0.985,18.375,-22.375,44.1875,156.75,-28.5,161.5,0
1776974256.813,9.9695,1.3216,-1.403,0.74,0.6126,-0.9539,-97.95,7.05,0.3,9.6965,-0.5483,0.5148,0.7405,-0.2329,-1.1175,-76.5,-18.9,5.7,-0.61,-5.2,-9.09,0.4581,0.2345,-1.1225,27.1875,-18.6875,47.375,156.75,-28.5,161.5,0
1776974256.818,9.7205,1.6712,-1.4748,0.5321,0.5633,-0.9209,-97.95,7.05,0.3,9.6319,-0.3089,0.7901,0.9403,-0.2595,-1.2225,-79.05,-19.65,6.45,-0.61,-5.2,-9.09,0.4581,0.2345,-1.1225,27.1875,-18.6875,47.375,156.125,-28.125,160.875,0
1776974256.823,9.7205,1.6712,-1.4748,0.5321,0.5633,-0.9209,-97.65,6.75,1.05,9.6319,-0.3089,0.7901,0.9403,-0.2595,-1.2225,-79.05,-19.65,6.45,-0.84,-5.32,-9.15,0.516,0.2913,-1.2828,27.1875,-18.6875,47.375,156.125,-28.125,160.875,0
1776974256.828,9.8138,2.1452,-1.2186,0.3826,0.559,-0.8495,-97.65,6.75,1.05,10.1155,0.0263,0.4381,1.1119,-0.3264,-1.3187,-80.1,-19.05,5.55,-0.84,-5.32,-9.15,0.5716,0.3218,-1.4661,27.1875,-18.6875,47.375,155.375,-27.6875,160.1875,0
1776974256.834,9.8138,2.1452,-1.2186,0.3826,0.559,-0.8495,-97.5,6.15,1.2,10.4675,0.079,0.431,1.1119,-0.3264,-1.3187,-80.1,-19.05,5.55,-0.99,-5.27,-9.29,0.5716,0.3218,-1.4661,27.1875,-18.6875,47.375,154.625,-27.1875,159.375,0
1776974256.843,9.6654,2.6217,-1.1971,0.2872,0.5862,-0.8143,-97.5,6.15,1.2,10.6973,0.2298,0.4429,1.3105,-0.4002,-1.4133,-80.4,-17.1,6.9,-1.65,-5.49,-9.66,0.6207,0.336,-1.6624,27.1875,-18.6875,47.375,154.625,-27.1875,159.375,0
1776974256.853,9.6055,3.2848,-0.7829,0.3605,0.611,-0.8066,-98.25,7.95,2.25,10.6063,0.1748,0.1341,1.6782,-0.5486,-1.5439,-79.65,-16.8,5.85,-2.0,-5.6,-9.8,0.6338,0.3491,-1.874,27.1875,-18.6875,47.375,153.6875,-26.6875,158.5625,0
1776974256.858,9.6606,3.1915,-1.1277,0.5127,0.651,-0.8236,-98.25,7.95,2.25,10.6063,0.1748,0.1341,1.6782,-0.5486,-1.5439,-79.8,-16.2,6.45,-2.0,-5.6,-9.8,0.6338,0.3491,-1.874,27.1875,-18.6875,47.375,153.6875,-26.6875,158.5625,0
1776974256.863,9.6606,3.1915,-1.1277,0.5127,0.651,-0.8236,-97.5,9.45,3.0,10.477,0.0239,-0.17,1.833,-0.6238,-1.5902,-79.8,-16.2,6.45,-2.47,-5.76,-9.92,0.6054,0.3632,-2.0802,32.375,-10.1875,50.875,152.625,-26.0625,157.75,0
1776974256.868,9.4571,3.1843,-1.6257,0.6003,0.733,-0.817,-97.5,9.45,3.0,10.477,0.0239,-0.17,1.833,-0.6238,-1.5902,-79.8,-16.2,6.45,-2.47,-5.76,-9.92,0.6054,0.3632,-2.0802,32.375,-10.1875,50.875,152.625,-26.0625,157.75,0
1776974256.873,9.4571,3.1843,-1.6257,0.6003,0.733,-0.817,-98.25,9.15,2.55,10.2041,-0.2634,-0.1963,1.9732,-0.6062,-1.611,-79.8,-16.2,6.45,-3.2,-6.02,-9.98,0.5127,0.3785,-2.2635,32.375,-10.1875,50.875,151.5,-25.375,156.9375,0
1776974256.881,9.414,3.2034,-2.0087,0.7474,0.7661,-0.7997,-97.95,9.0,1.65,10.2041,-0.2634,-0.1963,1.9732,-0.6062,-1.611,-82.35,-16.35,7.65,-3.32,-5.69,-9.92,0.3763,0.4156,-2.4249,32.375,-10.1875,50.875,150.25,-24.625,156.1875,0
1776974256.886,9.0836,3.3088,-2.1883,0.9137,0.7133,-0.7653,-97.95,9.0,1.65,10.3597,-0.4597,-0.249,2.0795,-0.6219,-1.6246,-82.35,-16.35,7.65,-3.32,-5.69,-9.92,0.3763,0.4156,-2.4249,32.375,-10.1875,50.875,148.875,-23.8125,155.5,0
1776974256.893,8.9184,3.3495,-2.3607,1.0738,0.6792,-0.7245,-97.95,9.0,1.65,10.3669,-0.656,-0.3136,2.1373,-0.6281,-1.6233,-82.35,-16.35,7.65,-3.54,-5.08,-9.88,0.2531,0.4091,-2.5722,32.375,-10.1875,50.875,147.5,-23.0,154.875,0
1776974256.903,8.7724,3.4979,-2.5307,1.202,0.6153,-0.6558,-98.4,9.0,4.2,10.3621,-0.6967,-0.4669,2.1623,-0.6307,-1.6193,-82.65,-12.9,7.65,-3.68,-4.19,-9.62,0.1909,0.4134,-2.7009,32.375,-10.1875,50.875,147.5,-23.0,154.875,0
1776974256.908,8.7724,3.4979,-2.5307,1.202,0.6153,-0.6558,-98.4,9.0,4.2,10.3621,-0.6967,-0.4669,2.1623,-0.6307,-1.6193,-82.5,-13.5,7.2,-3.68,-4.19,-9.62,0.1909,0.4134,-2.7009,32.375,-10.1875,50.875,146.0,-22.125,154.25,0
1776974256.913,8.5353,3.5817,-2.4205,1.2982,0.5761,-0.5902,-97.65,10.8,2.85,10.4603,-0.6847,-0.6823,2.149,-0.6723,-1.6041,-82.5,-13.5,7.2,-3.64,-3.9,-9.4,0.1593,0.3905,-2.7936,33.0625,2.75,49.875,146.0,-22.125,154.25,0
1776974256.918,8.5353,3.5817,-2.4205,1.2982,0.5761,-0.5902,-97.65,10.8,2.85,10.4603,-0.6847,-0.6823,2.149,-0.6723,-1.6041,-83.4,-10.05,8.1,-3.64,-3.9,-9.4,0.1593,0.3905,-2.7936,33.0625,2.75,49.875,144.4375,-21.3125,153.625,0
1776974256.923,8.3869,3.644,-2.4086,1.4011,0.5316,-0.5236,-98.25,9.9,4.35,10.3022,-0.759,-0.7302,2.104,-0.6819,-1.5809,-83.4,-10.05,8.1,-3.6,-3.58,-9.13,0.1353,0.3087,-2.8362,33.0625,2.75,49.875,144.4375,-21.3125,153.625,0
1776974256.928,8.3869,3.644,-2.4086,1.4011,0.5316,-0.5236,-97.95,9.3,4.5,10.3022,-0.759,-0.7302,2.104,-0.6819,-1.5809,-82.95,-7.95,8.25,-3.6,-3.58,-9.13,0.1069,0.2105,-2.8427,33.0625,2.75,49.875,142.9375,-20.5,153.0625,0
1776974256.934,8.3151,3.7421,-2.1931,1.5282,0.4732,-0.4439,-97.95,9.3,4.5,10.137,-0.5267,-0.6225,2.1035,-0.6691,-1.5394,-82.95,-7.95,8.25,-3.71,-3.28,-8.94,0.1069,0.2105,-2.8427,33.0625,2.75,49.875,141.375,-19.75,152.5,0
1776974256.943,8.2241,3.5099,-1.9297,1.6411,0.4546,-0.3698,-97.05,10.2,4.8,10.0245,-0.4884,-0.6871,2.0765,-0.6944,-1.4821,-83.85,-9.3,7.65,-3.72,-2.53,-8.9,0.0753,0.0611,-2.8165,33.0625,2.75,49.875,141.375,-19.75,152.5,0
1776974256.953,8.0517,3.4093,-1.8651,1.7477,0.3997,-0.2928,-97.05,10.2,4.8,9.9144,-0.6632,-0.7614,2.0123,-0.7869,-1.4205,-82.65,-7.8,7.35,-3.84,-2.34,-8.88,0.0284,-0.0545,-2.7903,33.0625,2.75,49.875,139.8125,-19.0625,152.0,0
1776974256.958,8.0517,3.4093,-1.8651,1.7477,0.3997,-0.2928,-97.8,9.45,5.85,9.6965,-0.7781,-0.0455,2.0123,-0.7869,-1.4205,-82.65,-7.8,7.35,-3.84,-2.34,-8.88,0.0284,-0.0545,-2.7903,33.0625,2.75,49.875,138.25,-18.4375,151.5625,0
1776974256.963,8.0325,3.304,-1.7214,1.8711,0.3307,-0.2124,-97.8,9.45,5.85,9.6965,-0.7781,-0.0455,1.9529,-0.8577,-1.3656,-82.65,-7.8,7.35,-3.92,-2.13,-8.97,-0.0436,-0.18,-2.7598,26.25,9.875,45.5,138.25,-18.4375,151.5625,0
1776974256.968,8.0325,3.304,-1.7214,1.8711,0.3307,-0.2124,-98.55,10.65,6.15,9.6295,-0.8906,-0.723,1.9529,-0.8577,-1.3656,-85.2,-6.45,5.7,-3.92,-2.13,-8.97,-0.0436,-0.18,-2.7598,26.25,9.875,45.5,138.25,-18.4375,151.5625,0
1776974256.973,7.9416,3.0981,-1.4557,1.9446,0.3054,-0.1348,-98.55,10.65,6.15,9.6295,-0.8906,-0.723,1.8045,-0.8857,-1.3198,-85.2,-6.45,5.7,-4.08,-1.29,-9.05,-0.1265,-0.3316,-2.6944,26.25,9.875,45.5,136.75,-17.875,151.1875,0
1776974256.979,7.9416,3.0981,-1.4557,1.9446,0.3054,-0.1348,-98.85,10.2,6.45,9.5984,-1.3551,-0.9218,1.6814,-0.8969,-1.2796,-85.2,-6.45,5.7,-4.62,-1.18,-9.21,-0.168,-0.4352,-2.5645,26.25,9.875,45.5,135.25,-17.375,150.8125,0
1776974256.984,7.841,2.8108,-1.2641,1.9878,0.2761,-0.052,-98.85,10.2,6.45,9.5984,-1.3551,-0.9218,1.6814,-0.8969,-1.2796,-85.2,-6.45,5.7,-4.62,-1.18,-9.21,-0.168,-0.4352,-2.5645,26.25,9.875,45.5,133.8125,-16.9375,150.5,0
1776974256.993,7.7285,2.2865,-0.9385,1.9708,0.2681,0.0189,-98.25,9.9,5.85,9.3589,-1.8507,-0.4118,1.6824,-0.9198,-1.243,-83.4,-2.25,5.55,-5.35,-1.22,-9.43,-0.1724,-0.4363,-2.4009,26.25,9.875,45.5,133.8125,-16.9375,150.5,0
1776974257.003,8.0804,2.0111,-1.008,1.9894,0.2129,0.0608,-98.25,9.9,5.85,9.1004,-1.81,0.2969,1.7176,-0.9228,-1.2044,-84.6,-1.5,5.1,-6.19,-1.45,-9.68,-0.1909,-0.3349,-2.2526,26.25,9.875,45.5,132.5,-16.5,150.25,0
1776974257.008,8.0804,2.0111,-1.008,1.9894,0.2129,0.0608,-99.15,10.8,6.0,8.6981,-1.8866,0.3759,1.6257,-0.8788,-1.1479,-84.45,-2.1,4.2,-6.19,-1.45,-9.68,-0.1909,-0.3349,-2.2526,26.25,9.875,45.5,132.5,-16.5,150.25,0
1776974257.013,7.6902,1.7549,-1.1229,1.9939,0.2425,0.1018,-99.15,10.8,6.0,8.6981,-1.8866,0.3759,1.6257,-0.8788,-1.1479,-84.45,-2.1,4.2,-6.73,-1.32,-9.72,-0.2149,-0.1647,-2.1358,21.1875,11.6875,45.5625,131.25,-16.0,150.0625,0
1776974257.018,7.6902,1.7549,-1.1229,1.9939,0.2425,0.1018,-99.6,9.9,5.4,8.7053,-1.8771,0.3615,1.5652,-0.8247,-1.0861,-84.6,-1.05,5.85,-6.73,-1.32,-9.72,-0.2149,-0.1647,-2.1358,21.1875,11.6875,45.5625,131.25,-16.0,150.0625,0
1776974257.023,7.6399,1.4916,-1.5299,1.8948,0.3685,0.1684,-99.6,9.9,5.4,8.7053,-1.8771,0.3615,1.5652,-0.8247,-1.0861,-84.6,-1.05,5.85,-7.05,-1.4,-9.51,-0.252,0.0622,-2.0584,21.1875,11.6875,45.5625,130.125,-15.375,149.9375,0
1776974257.029,8.4252,1.5083,-1.9201,1.8599,0.4802,0.2523,-98.7,10.05,5.7,8.7915,-1.8076,0.1724,1.4813,-0.7413,-1.0003,-84.15,-1.5,3.6,-6.81,-1.47,-8.97,-0.3251,0.2847,-1.9962,21.1875,11.6875,45.5625,129.0,-14.6875,149.875,0
1776974257.034,8.4252,1.5083,-1.9201,1.8599,0.4802,0.2523,-98.7,10.05,5.7,8.7915,-1.8076,0.1724,1.4813,-0.7413,-1.0003,-84.15,-1.5,3.6,-6.81,-1.47,-8.97,-0.3251,0.2847,-1.9962,21.1875,11.6875,45.5625,128.0,-13.9375,149.9375,0
1776974257.043,8.7915,1.4246,-2.2482,1.7845,0.4786,0.3301,-98.25,8.7,6.45,9.0214,-2.0566,0.1724,1.3931,-0.7005,-0.9262,-86.1,-2.7,2.85,-6.21,-1.0,-7.59,-0.432,0.4134,-1.9144,21.1875,11.6875,45.5625,128.0,-13.9375,149.9375,0
1776974257.053,8.5976,0.984,-2.296,1.5548,0.4482,0.3725,-98.25,8.7,6.45,9.2632,-2.4301,0.3352,1.3201,-0.6789,-0.8442,-86.1,-2.7,2.85,-6.15,-0.46,-6.99,-0.5334,0.4091,-1.8031,21.1875,11.6875,45.5625,127.0,-13.25,150.0625,0
1776974257.058,8.4707,0.4046,-2.083,1.2031,0.4501,0.3824,-98.25,8.7,6.45,9.2751,-2.4157,0.3615,1.202,-0.6781,-0.7528,-83.85,0.3,2.55,-6.15,-0.46,-6.99,-0.5334,0.4091,-1.8031,21.1875,11.6875,45.5625,126.125,-12.625,150.1875,0
1776974257.063,8.4707,0.4046,-2.083,1.2031,0.4501,0.3824,-98.25,8.7,6.45,9.2751,-2.4157,0.3615,1.202,-0.6781,-0.7528,-83.85,0.3,2.55,-6.4,0.16,-6.55,-0.5607,0.3065,-1.6646,16.75,11.1875,43.25,126.125,-12.625,150.1875,0
1776974257.068,9.3063,0.3184,-2.5738,0.8343,0.5961,0.4314,-99.3,8.4,7.95,9.1267,-2.3008,-0.0072,1.0062,-0.6443,-0.6646,-83.85,0.3,2.55,-6.4,0.16,-6.55,-0.5607,0.3065,-1.6646,16.75,11.1875,43.25,125.25,-12.125,150.3125,0
1776974257.073,9.3063,0.3184,-2.5738,0.8343,0.5961,0.4314,-99.3,8.4,7.95,8.9854,-2.0159,-0.103,1.0062,-0.6443,-0.6646,-83.85,0.3,2.55,-8.03,0.87,-6.02,-0.5018,0.1669,-1.5152,16.75,11.1875,43.25,125.25,-12.125,150.3125,0
1776974257.08,8.3438,0.3472,-2.9497,0.4759,0.7045,0.5039,-98.85,6.9,6.9,8.9854,-2.0159,-0.103,0.7554,-0.559,-0.591,-84.6,1.5,2.1,-8.88,0.9,-5.72,-0.3851,0.0316,-1.3614,16.75,11.1875,43.25,124.5,-11.75,150.375,0
1776974257.085,8.3438,0.3472,-2.9497,0.4759,0.7045,0.5039,-98.85,6.9,6.9,8.4755,-2.6935,0.2753,0.4514,-0.4738,-0.4852,-84.6,1.5,2.1,-8.88,0.9,-5.72,-0.3851,0.0316,-1.3614,16.75,11.1875,43.25,123.8125,-11.4375,150.375,0
1776974257.094,8.7005,0.6919,-3.3902,0.0421,0.7413,0.5891,-99.15,8.55,7.8,8.0637,-3.3327,0.9697,0.2907,-0.3195,-0.3251,-84.0,2.4,1.2,-10.22,1.1,-5.68,-0.24,-0.0622,-1.189,16.75,11.1875,43.25,123.25,-11.1875,150.375,0
1776974257.104,8.3941,1.154,-3.4668,-0.425,0.7893,0.6582,-99.3,6.45,9.0,7.5824,-3.5171,2.0303,0.1223,-0.1583,-0.1617,-83.7,3.6,1.95,-12.59,1.78,-5.67,-0.0676,-0.0262,-0.9959,16.75,11.1875,43.25,123.25,-11.1875,150.375,0
1776974257.108,8.2361,1.9249,-3.553,-0.8284,1.0264,0.6872,-99.3,6.45,9.0,7.5824,-3.5171,2.0303,0.1223,-0.1583,-0.1617,-83.85,2.25,1.35,-12.59,1.78,-5.67,-0.0676,-0.0262,-0.9959,16.75,11.1875,43.25,122.8125,-10.9375,150.1875,0
1776974257.114,8.2361,1.9249,-3.553,-0.8284,1.0264,0.6872,-99.3,6.45,9.0,7.2065,-2.3152,2.7653,-0.2795,0.1927,-0.0378,-83.85,2.25,1.35,-13.09,2.55,-5.48,0.1505,0.1484,-0.7712,14.875,10.0625,42.5625,122.8125,-10.9375,150.1875,0
1776974257.118,9.3948,2.8276,-3.6272,-0.9537,0.7298,0.7634,-98.7,5.55,8.1,7.2065,-2.3152,2.7653,-0.2795,0.1927,-0.0378,-84.45,0.9,1.2,-13.09,2.55,-5.48,0.1505,0.1484,-0.7712,14.875,10.0625,42.5625,122.5,-10.75,150.1875,0
1776974257.123,9.3948,2.8276,-3.6272,-0.9537,0.7298,0.7634,-98.7,5.55,8.1,8.7053,-1.8627,1.6257,-1.0477,0.4431,0.1007,-84.45,0.9,1.2,-14.4,-6.04,-5.64,-0.1276,0.0251,-0.5454,14.875,10.0625,42.5625,122.5,-10.75,150.1875,0
1776974257.128,9.0501,3.0071,-3.5961,-1.1175,0.7378,0.8372,-98.85,6.15,9.0,8.7053,-1.8627,1.6257,-1.0477,0.4431,0.1007,-82.95,2.4,2.4,-14.4,-6.04,-5.64,-1.2305,-0.9098,0.6818,14.875,10.0625,42.5625,122.6875,-11.375,150.9375,0
1776974257.134,9.0501,3.0071,-3.5961,-1.3129,0.6387,0.8988,-98.85,6.15,9.0,8.7604,-2.8228,2.3056,-1.2958,0.3746,0.3056,-82.95,2.4,2.4,-13.14,1.2,2.89,-1.2305,-0.9098,0.6818,14.875,10.0625,42.5625,123.25,-12.5,152.0,0
1776974257.143,9.8282,2.7605,-2.8802,-1.3129,0.6387,0.8988,-97.8,4.65,7.2,8.7317,-1.4772,3.7254,-1.1535,0.7986,0.356,-82.95,2.4,2.4,0.58,6.84,-4.53,-1.7857,-1.3744,1.5686,14.875,10.0625,42.5625,123.25,-12.5,152.0,0
1776974257.153,10.556,1.7238,-0.9888,-1.7507,0.6504,1.1636,-98.55,3.45,8.7,12.7108,1.7693,-2.387,-2.4067,0.76,0.0823,-84.45,0.9,3.45,-3.7,-2.36,-11.27,-2.0759,-1.621,1.7901,14.875,10.0625,42.5625,123.9375,-13.75,153.25,0
1776974257.158,10.9607,1.0104,0.6919,-1.7507,0.6504,1.1636,-98.55,3.45,8.7,12.7108,1.7693,-2.387,-2.4067,0.76,0.0823,-84.75,1.35,4.2,-3.7,-2.36,-11.27,-2.0759,-1.621,1.7901,14.875,10.0625,42.5625,123.9375,-13.75,153.25,0
1776974257.164,12.4498,0.2969,1.3001,-1.9505,0.6198,1.258,-98.55,3.45,8.7,16.8887,6.3614,-6.3758,-3.5813,0.1431,-0.2915,-84.75,1.35,4.2,-1.88,-9.96,-13.62,-1.7464,-1.6559,1.7541,15.1875,9.75,39.875,124.5625,-15.0,154.3125,0
1776974257.168,12.4498,0.2969,1.3001,-1.9505,0.6198,1.258,-98.55,3.45,8.7,16.8887,6.3614,-6.3758,-3.5813,0.1431,-0.2915,-84.6,1.5,4.35,-1.88,-9.96,-13.62,-1.7464,-1.6559,1.7541,15.1875,9.75,39.875,124.5625,-15.0,154.3125,0
1776974257.173,16.0962,0.814,0.9313,-1.9867,0.5129,1.4544,-98.55,3.45,8.7,18.2941,4.889,-7.1419,-2.7211,-0.2302,-0.2427,-84.6,1.5,4.35,-0.31,6.1,-8.66,-1.0232,-1.6384,1.765,15.1875,9.75,39.875,125.25,-16.25,155.0625,0
1776974257.182,16.0962,0.814,0.9313,-1.9867,0.5129,1.4544,-97.95,0.75,9.9,14.9063,6.4979,-1.2498,-1.0237,-0.0698,0.0661,-83.4,1.95,4.8,-12.07,-16.23,-13.06,0.228,-2.6158,1.1246,15.1875,9.75,39.875,125.5625,-17.8125,154.9375,0
1776974257.186,19.9652,3.2058,-0.0503,-1.7826,0.2438,1.5961,-97.05,0.9,10.5,14.9063,6.4979,-1.2498,-1.0237,-0.0698,0.0661,-83.4,1.95,4.8,-12.07,-16.23,-13.06,0.228,-2.6158,1.1246,15.1875,9.75,39.875,126.1875,-19.75,155.0,0
1776974257.194,20.9014,7.1156,-2.1644,-0.6507,0.1252,1.3947,-97.8,0.45,9.3,11.4682,4.4604,1.0894,0.4207,0.5694,0.5348,-83.85,1.95,4.8,-26.46,-10.1,-17.58,-0.048,-3.0074,1.7562,15.1875,9.75,39.875,126.4375,-20.3125,155.25,0
1776974257.204,15.2008,10.6686,-3.3519,0.7402,-0.4002,0.8074,-96.45,-0.15,11.1,13.3812,1.9848,-2.7438,1.2462,0.8092,0.7789,-82.95,3.3,5.25,-0.09,2.08,-8.55,-0.3229,-0.889,0.7079,15.1875,9.75,39.875,126.4375,-20.3125,155.25,0
1776974257.209,15.2008,10.6686,-3.3519,0.7402,-0.4002,0.8074,-96.45,-0.15,11.1,13.9917,0.4693,-0.759,1.2375,0.5025,0.7282,-82.95,3.3,5.25,-0.09,2.08,-8.55,-0.3229,-0.889,0.7079,15.1875,9.75,39.875,126.5625,-20.5625,155.4375,0
1776974257.214,9.3518,9.493,0.0239,0.927,-0.5777,0.1343,-96.45,-0.15,11.1,13.9917,0.4693,-0.759,1.2375,0.5025,0.7282,-82.95,3.3,5.25,-4.55,-1.57,-12.13,-0.2651,-0.3294,0.3774,18.5625,3.5,37.875,126.5625,-20.5625,155.4375,0
1776974257.219,9.3518,9.493,0.0239,0.927,-0.5777,0.1343,-96.45,-0.15,11.1,10.0245,0.0311,2.7964,0.8692,0.0448,0.5785,-84.0,0.15,5.7,-4.55,-1.57,-12.13,-0.2651,-0.3294,0.3774,18.5625,3.5,37.875,126.6875,-20.9375,155.4375,0
1776974257.224,6.0238,5.1356,3.5913,0.3912,0.0304,-0.1258,-94.05,-0.75,8.85,10.0245,0.0311,2.7964,0.8692,0.0448,0.5785,-84.0,0.15,5.7,-7.28,-3.13,-11.44,-0.0644,-0.5585,0.3229,18.5625,3.5,37.875,126.6875,-20.9375,155.4375,0
1776974257.229,6.0238,5.1356,3.5913,0.3912,0.0304,-0.1258,-94.05,-0.75,8.85,6.5553,1.2689,1.9393,0.372,-0.1436,0.6185,-84.0,0.15,5.7,-7.28,-3.13,-11.44,0.0753,-0.3698,0.1254,18.5625,3.5,37.875,126.75,-21.1875,155.4375,0
1776974257.235,5.5091,1.4222,3.565,-0.3595,1.1914,0.0216,-95.25,0.9,11.1,6.5553,1.2689,1.9393,0.372,-0.1436,0.6185,-84.0,0.15,5.7,-3.83,-1.8,-8.44,0.0753,-0.3698,0.1254,18.5625,3.5,37.875,126.75,-21.375,155.3125,0
1776974257.244,6.3542,-0.1652,2.8371,-0.6989,1.7725,0.2169,-93.9,1.65,11.85,6.043,1.9513,1.9393,-0.4362,0.3531,0.575,-84.75,-1.35,5.25,-4.16,-5.36,-7.83,0.1429,-0.4167,0.0894,18.5625,3.5,37.875,126.75,-21.625,155.1875,0
1776974257.254,7.4053,-0.6009,2.6911,-0.7389,1.7571,0.3656,-94.35,3.3,13.5,8.0086,2.5307,1.0606,-0.2699,0.5593,0.6014,-84.0,-0.45,5.25,-3.74,-4.57,-7.73,0.1789,-0.4069,0.0862,18.5625,3.5,37.875,126.75,-21.625,155.1875,0
1776974257.259,7.4053,-0.6009,2.6911,-0.7389,1.7571,0.3656,-94.35,3.3,13.5,9.8617,3.3255,-0.7829,0.2372,0.4775,0.6185,-83.25,-1.65,7.95,-3.74,-4.57,-7.73,0.1789,-0.4069,0.0862,18.5625,3.5,37.875,126.75,-21.625,155.1875,0
1776974257.264,8.1187,-1.0391,2.8874,-0.5838,1.0064,0.5369,-94.35,3.3,13.5,9.8617,3.3255,-0.7829,0.2372,0.4775,0.6185,-83.25,-1.65,7.95,-3.96,-4.36,-8.11,0.1647,-0.4789,0.1113,20.875,1.6875,36.75,126.8125,-21.875,155.0625,0
1776974257.269,8.1187,-1.0391,2.8874,-0.5838,1.0064,0.5369,-94.35,3.3,13.5,9.6893,2.241,-0.7446,0.4804,0.4493,0.5894,-83.25,-1.65,7.95,-3.96,-4.36,-8.11,0.1647,-0.4789,0.1113,20.875,1.6875,36.75,126.8125,-21.875,155.0625,0
1776974257.274,8.5593,-1.2905,2.3918,-0.3834,0.2899,0.7989,-96.6,1.05,13.8,9.6893,2.241,-0.7446,0.4804,0.4493,0.5894,-83.7,-1.65,7.2,-3.81,-4.37,-7.91,0.0349,-0.3371,0.1091,20.875,1.6875,36.75,126.8125,-22.0625,155.0625,0
1776974257.282,8.5473,-1.1013,0.5674,-0.0514,-0.0069,1.011,-96.6,1.05,13.8,9.165,0.5794,-0.2298,0.3166,0.4162,0.4927,-83.25,-1.65,6.45,-3.54,-3.84,-8.08,-0.0098,-0.276,0.1254,20.875,1.6875,36.75,126.875,-22.25,155.0625,0
1776974257.286,8.5473,-1.1013,0.5674,-0.0514,-0.0069,1.011,-97.05,-0.9,13.95,8.667,-1.1301,0.067,-0.3259,0.4738,0.4199,-83.25,-1.65,6.45,-3.54,-3.84,-8.08,-0.0098,-0.276,0.1254,20.875,1.6875,36.75,126.875,-22.4375,155.0625,0
1776974257.294,8.7245,-0.9768,-1.0247,0.2638,0.0469,1.044,-98.85,-0.9,13.65,8.7293,-1.2809,-0.3041,-0.3259,0.4738,0.4199,-84.45,-0.9,7.2,-3.35,-3.68,-7.92,-0.0316,-0.2716,0.1538,20.875,1.6875,36.75,126.9375,-22.625,155.125,0
1776974257.304,9.2201,-0.2251,-1.8459,0.5955,0.2438,0.9686,-98.55,-2.7,13.95,9.2871,0.1173,-0.486,-0.939,0.4754,0.4008,-84.45,-0.9,7.2,-3.07,-3.84,-7.78,-0.0993,-0.2934,0.1974,20.875,1.6875,36.75,126.9375,-22.625,155.125,0
1776974257.309,10.0748,0.7326,-1.6807,0.923,0.49,0.8519,-98.55,-2.7,13.95,9.2871,0.1173,-0.486,-1.2804,0.5228,0.3957,-84.45,-0.9,7.2,-3.07,-3.84,-7.78,-0.0993,-0.2934,0.1974,20.875,1.6875,36.75,126.9375,-22.625,155.125,0
1776974257.314,10.0748,0.7326,-1.6807,0.923,0.49,0.8519,-97.5,-4.65,12.6,9.809,1.9489,-0.2107,-1.2804,0.5228,0.3957,-83.85,-2.7,8.4,-4.07,-3.27,-8.5,-0.1156,-0.3458,0.2356,22.375,1.25,36.375,127.0625,-22.875,155.25,0
1776974257.319,10.6805,1.415,-1.1157,1.1946,0.6749,0.7344,-97.5,-4.65,12.6,9.809,1.9489,-0.2107,-1.1109,0.6169,0.4215,-83.85,-2.7,8.4,-4.07,-3.27,-8.5,-0.1156,-0.3458,0.2356,22.375,1.25,36.375,127.0625,-22.875,155.25,0
1776974257.324,10.6805,1.415,-1.1157,1.1946,0.6749,0.7344,-97.5,-4.65,12.6,10.4196,3.6224,-0.2777,-0.5609,0.6091,0.4772,-83.85,-2.7,8.4,-4.72,-3.31,-8.78,-0.06,-0.3414,0.2236,22.375,1.25,36.375,127.125,-23.0625,155.25,0
1776974257.329,10.6422,1.7933,-0.8715,1.3067,0.7999,0.6662,-97.5,-4.65,12.6,10.4196,3.6224,-0.2777,-0.5609,0.6091,0.4772,-83.85,-2.7,8.4,-4.72,-3.31,-8.78,-0.0338,-0.2858,0.1593,22.375,1.25,36.375,127.1875,-23.25,155.3125,0
1776974257.335,10.6422,1.7933,-0.8715,1.3067,0.7999,0.6662,-96.6,-8.55,12.75,10.4603,4.4724,-0.0144,0.1383,0.5372,0.5028,-82.35,-4.2,8.85,-4.59,-3.6,-8.69,-0.0338,-0.2858,0.1593,22.375,1.25,36.375,127.1875,-23.4375,155.3125,0
1776974257.344,10.5656,2.332,-0.5219,1.4154,0.8092,0.5942,-94.8,-9.75,13.8,9.9192,4.2018,0.5124,0.7991,0.4333,0.5231,-83.85,-4.2,9.9,-4.31,-3.45,-8.64,-0.0622,-0.2662,0.1134,22.375,1.25,36.375,127.1875,-23.4375,155.3125,0
1776974257.354,8.9878,2.4804,0.3232,1.2798,0.631,0.5092,-94.8,-7.8,14.25,9.5002,3.0526,1.0008,1.1647,0.2926,0.5092,-84.45,-3.3,8.25,-4.36,-3.42,-8.56,-0.0665,-0.252,0.0829,22.375,1.25,36.375,127.1875,-23.5625,155.375,0
1776974257.359,9.6007,2.2218,0.4022,0.878,0.9822,0.4756,-94.8,-7.8,14.25,9.5002,3.0526,1.0008,1.1647,0.2926,0.5092,-84.45,-3.3,8.25,-4.36,-3.42,-8.56,-0.0665,-0.252,0.0829,22.375,1.25,36.375,127.1875,-23.6875,155.375,0
1776974257.364,9.6007,2.2218,0.4022,0.878,0.9822,0.4756,-92.55,-9.75,13.5,8.8969,1.6305,1.1013,1.1647,0.3142,0.4898,-83.85,-4.2,8.4,-4.24,-3.61,-8.39,-0.0545,-0.2203,0.0611,22.0,0.25,34.75,127.1875,-23.6875,155.375,0
1776974257.369,8.9376,1.4485,1.3958,0.417,0.8178,0.4876,-92.55,-9.75,13.5,8.8969,1.6305,1.1013,1.1647,0.3142,0.4898,-83.85,-4.2,8.4,-4.24,-3.61,-8.39,-0.0545,-0.2203,0.0611,22.0,0.25,34.75,127.1875,-23.8125,155.4375,0
1776974257.374,8.9376,1.4485,1.3958,0.417,0.8178,0.4876,-92.55,-9.75,13.5,9.1219,0.3855,1.1732,0.9785,0.445,0.4879,-83.1,-3.0,9.15,-4.09,-3.75,-8.12,-0.0578,-0.1898,0.0436,22.0,0.25,34.75,127.1875,-23.8125,155.4375,0
1776974257.38,9.4882,0.8308,1.6616,0.0983,0.8713,0.5127,-92.55,-9.75,13.5,9.1219,0.3855,1.1732,0.9785,0.445,0.4879,-83.85,-5.85,9.6,-4.0,-3.47,-8.3,-0.0709,-0.1582,0.0425,22.0,0.25,34.75,127.1875,-23.875,155.4375,0
1776974257.385,9.4882,0.8308,1.6616,0.0983,0.8713,0.5127,-93.3,-9.75,14.55,9.7588,-0.2777,0.9002,0.6051,0.5031,0.4735,-83.85,-5.85,9.6,-4.0,-3.47,-8.3,-0.0709,-0.1582,0.0425,22.0,0.25,34.75,127.1875,-24.0,155.4375,0
1776974257.394,9.2009,0.316,1.8723,-0.1284,0.8505,0.53,-92.25,-9.75,15.3,9.8881,-0.1915,1.0367,0.1364,0.5012,0.4711,-83.85,-5.85,9.6,-4.18,-3.59,-8.33,-0.0535,-0.1745,0.0458,22.0,0.25,34.75,127.1875,-24.0,155.4375,0
1776974257.404,9.0836,0.3065,1.9752,-0.1079,0.6811,0.5185,-92.55,-8.55,16.35,9.7229,0.9218,0.9864,-0.3134,0.4572,0.4884,-82.5,-4.5,10.8,-4.27,-3.77,-8.14,-0.0153,-0.1604,0.0458,22.0,0.25,34.75,127.1875,-24.0625,155.4375,0
1776974257.409,9.0908,0.6728,2.3942,0.0333,0.5604,0.478,-92.55,-8.55,16.35,9.7229,0.9218,0.9864,-0.3134,0.4572,0.4884,-82.5,-4.5,10.8,-4.27,-3.77,-8.14,-0.0153,-0.1604,0.0458,22.0,0.25,34.75,127.1875,-24.0625,155.4375,0
1776974257.414,9.0908,0.6728,2.3942,0.0333,0.5604,0.478,-92.25,-9.3,15.9,9.1913,2.4229,0.7685,-0.6041,0.4351,0.5223,-82.5,-4.5,10.8,-3.78,-3.68,-8.06,-0.0229,-0.132,0.0513,22.5,1.0,34.375,127.1875,-24.125,155.5,0
1776974257.419,9.2512,1.1468,2.6456,0.2105,0.4431,0.4202,-92.25,-9.3,15.9,9.1913,2.4229,0.7685,-0.6041,0.4351,0.5223,-82.5,-4.5,10.8,-3.78,-3.68,-8.06,-0.0229,-0.132,0.0513,22.5,1.0,34.375,127.1875,-24.125,155.5,0
1776974257.424,9.2512,1.1468,2.6456,0.2105,0.4431,0.4202,-92.55,-10.5,18.15,8.8825,3.2848,0.2753,-0.6608,0.4655,0.5758,-82.95,-7.2,9.3,-3.95,-3.66,-8.06,-0.0589,-0.1418,0.0665,22.5,1.0,34.375,127.25,-24.25,155.5,0
1776974257.429,9.6893,1.5634,2.4876,0.2465,0.4077,0.3645,-92.55,-10.5,18.15,8.9878,3.3232,0.0814,-0.6608,0.4655,0.5758,-82.95,-7.2,9.3,-3.95,-3.66,-8.06,-0.0905,-0.1527,0.0807,22.5,1.0,34.375,127.25,-24.3125,155.5625,0
1776974257.435,9.3565,1.7837,2.0375,0.1415,0.3824,0.3163,-92.55,-10.5,18.15,8.9878,3.3232,0.0814,-0.5702,0.5228,0.6238,-81.6,-4.95,9.9,-4.06,-3.78,-8.09,-0.0905,-0.1527,0.0807,22.5,1.0,34.375,127.25,-24.3125,155.5625,0
1776974257.443,9.3565,1.7837,2.0375,0.1415,0.3824,0.3163,-92.7,-10.65,19.05,9.2249,3.1795,-0.3232,-0.3917,0.5303,0.6699,-82.95,-6.75,11.55,-3.91,-3.6,-8.08,-0.1298,-0.1418,0.0927,22.5,1.0,34.375,127.25,-24.4375,155.625,0
1776974257.448,9.2871,2.0423,1.3958,-0.089,0.4791,0.3035,-92.7,-10.65,19.05,9.3422,2.806,-0.3089,-0.3917,0.5303,0.6699,-82.95,-6.75,11.55,-3.91,-3.6,-8.08,-0.1702,-0.1385,0.1102,22.5,1.0,34.375,127.3125,-24.5,155.75,0
1776974257.455,9.4715,2.0686,0.5626,-0.1964,0.429,0.292,-91.95,-10.2,17.55,9.3422,2.806,-0.3089,-0.1713,0.4978,0.7021,-81.6,-6.15,12.15,-4.05,-3.55,-8.11,-0.1702,-0.1385,0.1102,22.5,1.0,34.375,127.3125,-24.5,155.75,0
1776974257.46,9.4715,2.0686,0.5626,-0.1964,0.429,0.292,-92.7,-9.9,19.05,9.3613,2.4636,-0.0048,-0.0107,0.4959,0.7293,-81.6,-6.15,12.15,-4.05,-3.55,-8.11,-0.2007,-0.1353,0.1233,22.75,0.25,35.5625,127.3125,-24.625,155.875,0
1776974257.465,9.4236,2.15,0.1987,-0.2249,0.5486,0.2523,-92.7,-9.9,19.05,9.3613,2.4636,-0.0048,-0.0107,0.4959,0.7293,-81.6,-6.15,12.15,-4.16,-3.47,-8.14,-0.2007,-0.1353,0.1233,22.75,0.25,35.5625,127.3125,-24.625,155.875,0
1776974257.47,9.4236,2.15,0.1987,-0.2249,0.5486,0.2523,-93.9,-10.65,19.35,9.3541,2.229,0.2251,0.0871,0.5191,0.7482,-81.6,-6.15,12.15,-4.16,-3.47,-8.14,-0.2236,-0.1211,0.1309,22.75,0.25,35.5625,127.3125,-24.6875,156.0,0
1776974257.475,9.1794,2.0973,-0.261,-0.1927,0.534,0.2372,-93.9,-10.65,19.35,9.3541,2.229,0.2251,0.0871,0.5191,0.7482,-82.35,-6.9,10.65,-4.01,-3.38,-8.12,-0.2236,-0.1211,0.1309,22.75,0.25,35.5625,127.3125,-24.6875,156.0,0
1776974257.48,9.1794,2.0973,-0.261,-0.1927,0.534,0.2372,-93.9,-10.65,19.35,9.1746,2.332,0.6009,0.1308,0.5311,0.7594,-82.35,-6.9,10.65,-4.01,-3.38,-8.12,-0.2553,-0.1113,0.1353,22.75,0.25,35.5625,127.375,-24.8125,156.1875,0
1776974257.485,9.1674,2.4684,-0.5602,-0.2643,0.6166,0.2393,-93.9,-10.65,19.35,9.1746,2.332,0.6009,0.1308,0.5311,0.7594,-82.35,-6.9,10.65,-3.92,-3.41,-8.1,-0.2553,-0.1113,0.1353,22.75,0.25,35.5625,127.375,-24.8125,156.1875,0
1776974257.494,8.7843,2.1308,-0.4405,-0.3008,0.6126,0.2092,-94.8,-10.05,20.55,9.2033,2.217,0.656,0.1354,0.5393,0.745,-81.9,-9.0,12.9,-3.87,-3.57,-7.84,-0.2793,-0.1091,0.156,22.75,0.25,35.5625,127.4375,-24.875,156.375,0
1776974257.504,8.7939,1.7765,0.237,-0.2084,0.5841,0.1857,-95.25,-12.45,20.7,9.0764,1.6257,0.7183,0.1418,0.4964,0.7173,-81.75,-9.15,12.3,-3.44,-3.64,-7.81,-0.3207,-0.1265,0.1811,22.75,0.25,35.5625,127.4375,-25.0,156.5625,0
1776974257.509,8.7939,1.7765,0.237,-0.2084,0.5841,0.1857,-94.8,-12.0,21.6,8.8825,1.1061,1.1947,0.2254,0.4823,0.7376,-81.75,-9.15,12.3,-3.44,-3.64,-7.81,-0.3207,-0.1265,0.1811,22.75,0.25,35.5625,127.4375,-25.0,156.5625,0
1776974257.513,9.0716,1.391,0.8715,-0.0906,0.6177,0.1577,-94.8,-12.0,21.6,8.8825,1.1061,1.1947,0.2254,0.4823,0.7376,-81.6,-9.3,12.9,-4.18,-3.67,-7.84,-0.3774,-0.2007,0.2334,23.1875,-0.0625,34.375,127.5,-25.125,156.8125,0
1776974257.518,9.0716,1.391,0.8715,-0.0906,0.6177,0.1577,-94.2,-11.4,20.4,9.0381,0.5794,1.2258,0.2062,0.5164,0.7711,-81.6,-9.3,12.9,-4.18,-3.67,-7.84,-0.3774,-0.2007,0.2334,23.1875,-0.0625,34.375,127.5,-25.125,156.8125,0
1776974257.523,9.4739,0.4884,1.5467,0.1191,0.4274,0.1857,-94.2,-11.4,20.4,9.0381,0.5794,1.2258,0.2062,0.5164,0.7711,-81.0,-8.4,12.3,-4.46,-3.46,-8.09,-0.4407,-0.2323,0.2749,23.1875,-0.0625,34.375,127.5625,-25.3125,157.125,0
1776974257.528,9.4739,0.4884,1.5467,0.1191,0.4274,0.1857,-96.6,-12.3,19.5,9.3063,0.1437,1.0343,0.1641,0.5057,0.7967,-81.0,-8.4,12.3,-4.46,-3.46,-8.09,-0.4407,-0.2323,0.2749,23.1875,-0.0625,34.375,127.6875,-25.5,157.4375,0
1776974257.535,9.1913,0.7518,3.1603,0.5782,0.3656,0.2132,-96.6,-12.3,19.5,9.4667,-0.2969,1.2761,0.1641,0.5057,0.7967,-80.4,-9.75,12.15,-4.67,-3.48,-8.18,-0.4756,-0.1963,0.2858,23.1875,-0.0625,34.375,127.75,-25.625,157.75,0
1776974257.544,8.5353,1.4772,3.2753,0.6374,0.4024,0.2694,-96.6,-12.3,19.5,9.651,-0.3136,1.1756,0.1876,0.4956,0.8058,-81.0,-9.15,12.75,-4.58,-2.76,-8.47,-0.4734,-0.1385,0.2585,23.1875,-0.0625,34.375,127.75,-25.625,157.75,0
1776974257.554,9.007,1.1109,2.5474,0.3874,0.4567,0.3016,-94.2,-12.9,20.7,9.7779,-0.3112,1.0271,0.1314,0.5193,0.7991,-81.0,-9.15,12.75,-4.52,-3.02,-8.42,-0.4352,-0.0894,0.2203,23.1875,-0.0625,34.375,127.8125,-25.6875,158.0,0
1776974257.559,9.007,1.1109,2.5474,0.3874,0.4567,0.3016,-92.55,-13.8,21.0,9.7779,-0.3112,1.0271,0.1314,0.5193,0.7991,-81.0,-9.15,12.75,-4.52,-3.02,-8.42,-0.4352,-0.0894,0.2203,23.1875,-0.0625,34.375,127.8125,-25.6875,158.0,0
1776974257.564,9.2536,0.5148,2.1596,0.1887,0.4916,0.3107,-92.55,-13.8,21.0,9.7348,-0.2705,1.3024,0.2081,0.4866,0.7786,-81.15,-10.05,12.45,-4.66,-3.06,-8.44,-0.4036,-0.0818,0.1909,23.1875,-0.5,34.375,127.8125,-25.75,158.3125,0
1776974257.569,9.2536,0.5148,2.1596,0.1887,0.4916,0.3107,-94.2,-15.45,20.7,9.7348,-0.2705,1.3024,0.2081,0.4866,0.7786,-81.15,-10.05,12.45,-4.66,-3.06,-8.44,-0.4036,-0.0818,0.1909,23.1875,-0.5,34.375,127.8125,-25.75,158.3125,0
1776974257.574,9.3757,0.1604,2.0231,0.0999,0.4716,0.3331,-94.2,-15.45,20.7,9.6989,0.0048,1.8004,0.1871,0.489,0.7602,-81.15,-10.05,12.45,-5.05,-3.05,-8.33,-0.42,-0.0491,0.1505,23.1875,-0.5,34.375,127.875,-25.8125,158.5625,0
1776974257.581,9.3518,0.1676,1.98,0.1074,0.2942,0.3637,-93.15,-15.45,20.7,9.6989,0.0048,1.8004,0.1871,0.489,0.7602,-81.15,-10.05,12.45,-4.32,-2.89,-8.42,-0.3622,0.0,0.1145,23.1875,-0.5,34.375,127.875,-25.875,158.75,0
1776974257.586,9.3518,0.1676,1.98,0.1074,0.2942,0.3637,-93.15,-15.45,20.7,9.6414,0.3496,1.585,0.1924,0.4628,0.7298,-79.5,-11.4,13.5,-4.32,-2.89,-8.42,-0.3622,0.0,0.1145,23.1875,-0.5,34.375,127.875,-25.875,159.0,0
1776974257.595,9.1626,0.3232,1.8627,0.1655,0.2878,0.38,-93.15,-15.45,20.7,9.3589,0.237,2.0423,0.2753,0.5143,0.688,-79.8,-11.85,14.55,-4.04,-3.3,-8.22,-0.2978,0.0131,0.096,23.1875,-0.5,34.375,127.875,-25.875,159.1875,0
1776974257.605,8.9759,0.4429,1.4844,0.2348,0.2899,0.3965,-93.45,-15.15,20.7,9.6558,-0.3783,2.2625,0.3072,0.5332,0.6909,-80.85,-13.65,15.9,-4.13,-3.29,-8.17,-0.3098,-0.0022,0.108,23.1875,-0.5,34.375,127.875,-25.875,159.1875,0
1776974257.609,8.9902,0.4357,1.3695,0.2481,0.465,0.4279,-91.95,-15.45,22.5,9.6558,-0.3783,2.2625,0.3072,0.5332,0.6909,-80.85,-13.65,15.9,-4.13,-3.29,-8.17,-0.3098,-0.0022,0.108,23.1875,-0.5,34.375,127.9375,-25.9375,159.375,0
1776974257.614,8.9902,0.4357,1.3695,0.2481,0.465,0.4279,-91.95,-15.45,22.5,9.7851,-0.838,1.9944,0.3027,0.493,0.672,-80.1,-13.65,13.65,-4.02,-3.35,-8.22,-0.3414,-0.0338,0.1167,24.0,-2.0,34.6875,127.9375,-25.9375,159.375,0
1776974257.619,9.086,0.2705,1.4054,0.2403,0.4815,0.4706,-91.5,-15.0,21.6,9.7851,-0.838,1.9944,0.3027,0.493,0.672,-80.1,-13.65,13.65,-4.02,-3.35,-8.22,-0.3414,-0.0338,0.1167,24.0,-2.0,34.6875,127.9375,-26.0,159.625,0
1776974257.624,9.086,0.2705,1.4054,0.2403,0.4815,0.4706,-91.5,-15.0,21.6,9.7636,-1.2498,1.6688,0.3086,0.4527,0.6678,-78.0,-13.05,15.3,-4.43,-3.06,-8.28,-0.3567,-0.0349,0.1265,24.0,-2.0,34.6875,127.9375,-26.0,159.625,0
1776974257.63,9.0597,0.0479,1.5754,0.1079,0.7461,0.5233,-90.15,-16.2,23.25,9.7636,-1.2498,1.6688,0.3086,0.4527,0.6678,-78.0,-13.05,15.3,-4.43,-3.06,-8.28,-0.3534,-0.0065,0.1254,24.0,-2.0,34.6875,127.9375,-26.0,159.8125,0
1776974257.635,9.0597,0.0479,1.5754,0.1079,0.7461,0.5233,-90.15,-16.2,23.25,9.7875,-1.4724,1.3527,0.211,0.433,0.6382,-80.1,-13.95,15.15,-4.56,-2.93,-8.25,-0.3534,-0.0065,0.1254,24.0,-2.0,34.6875,128.0,-26.0,160.0625,0
1776974257.645,9.742,-0.2274,1.7741,0.1282,0.5788,0.579,-91.95,-16.2,22.5,9.833,-1.4437,1.3168,0.1391,0.4327,0.6163,-80.1,-13.95,15.15,-4.46,-2.84,-8.49,-0.348,0.0207,0.1102,24.0,-2.0,34.6875,128.0,-26.0,160.0625,0
1776974257.655,9.5792,-0.5028,2.1189,0.056,0.6989,0.6153,-91.95,-16.2,22.5,10.0078,-1.3982,1.2067,0.1002,0.4461,0.6099,-78.9,-13.65,13.95,-4.57,-2.58,-8.65,-0.3207,-0.0044,0.096,24.0,-2.0,34.6875,128.0,-26.0,160.25,0
1776974257.659,9.56,-0.6752,2.0399,0.024,0.6169,0.652,-90.45,-18.0,23.85,9.8521,-0.8978,1.2067,0.1002,0.4461,0.6099,-78.9,-13.65,13.95,-4.57,-2.58,-8.65,-0.3207,-0.0044,0.096,24.0,-2.0,34.6875,128.0,-26.0,160.25,0
1776974257.665,9.56,-0.6752,2.0399,0.024,0.6169,0.652,-90.45,-18.0,23.85,9.8521,-0.8978,1.2067,0.0717,0.4077,0.5945,-78.9,-13.65,13.95,-4.47,-2.6,-8.7,-0.2738,-0.0196,0.0774,23.5625,-2.25,35.0625,128.0,-26.0625,160.4375,0
1776974257.669,9.3015,-0.5794,2.047,0.0338,0.6129,0.6643,-90.15,-16.65,24.3,9.5002,-0.4429,1.391,0.0717,0.4077,0.5945,-78.9,-13.65,13.95,-4.47,-2.6,-8.7,-0.2738,-0.0196,0.0774,23.5625,-2.25,35.0625,128.0,-26.0625,160.4375,0
1776974257.674,9.3015,-0.5794,2.047,0.0338,0.6129,0.6643,-90.15,-16.65,24.3,9.5002,-0.4429,1.391,0.0917,0.405,0.5857,-78.75,-13.05,15.3,-4.54,-2.53,-8.66,-0.1963,-0.0098,0.0556,23.5625,-2.25,35.0625,128.0,-26.0625,160.5625,0
1776974257.681,9.5936,-0.2682,1.7909,0.0181,0.5804,0.6651,-89.25,-19.05,23.85,9.3589,0.1365,1.573,0.0922,0.4255,0.5777,-78.75,-13.05,15.3,-4.32,-2.74,-8.44,-0.1407,-0.0131,0.0393,23.5625,-2.25,35.0625,128.0,-26.0625,160.625,0
1776974257.686,9.4212,0.1532,1.6927,-0.0759,0.5135,0.6571,-89.1,-16.65,25.05,9.3589,0.1365,1.573,0.0922,0.4255,0.5777,-77.4,-14.4,16.95,-4.32,-2.74,-8.44,-0.1407,-0.0131,0.0393,23.5625,-2.25,35.0625,128.0,-26.125,160.75,0
1776974257.695,9.4212,0.1532,1.6927,-0.0759,0.5135,0.6571,-89.1,-16.65,25.05,9.4355,0.8978,1.5802,0.1127,0.4167,0.5646,-77.7,-14.85,15.9,-4.22,-2.89,-8.34,-0.1178,-0.0251,0.0327,23.5625,-2.25,35.0625,128.0,-26.125,160.8125,0
1776974257.705,9.268,0.644,1.3048,-0.1897,0.5524,0.6246,-89.1,-16.65,25.05,9.5074,0.7446,2.0973,0.0701,0.4104,0.5894,-78.0,-14.55,16.8,-4.23,-2.98,-8.23,-0.1254,-0.0436,0.0415,23.5625,-2.25,35.0625,128.0,-26.125,160.8125,0
1776974257.71,9.3374,1.0463,0.9529,-0.2931,0.5233,0.583,-89.1,-18.45,24.75,9.6486,0.7757,1.6807,-0.0565,0.3984,0.6035,-78.0,-14.55,16.8,-4.23,-2.98,-8.23,-0.1254,-0.0436,0.0415,23.5625,-2.25,35.0625,128.0,-26.1875,160.875,0
1776974257.715,9.3374,1.0463,0.9529,-0.393,0.5255,0.5367,-89.1,-18.45,24.75,9.6486,0.7757,1.6807,-0.0565,0.3984,0.6035,-78.45,-13.95,16.95,-4.05,-3.18,-8.08,-0.1505,-0.0535,0.0535,23.1875,-4.5,33.875,128.0,-26.1875,160.875,0
1776974257.72,9.3063,1.3192,0.7398,-0.393,0.5255,0.5367,-89.25,-18.75,25.2,9.5936,0.8787,1.3024,-0.0994,0.3832,0.6336,-78.45,-13.95,16.95,-4.05,-3.18,-8.08,-0.1505,-0.0535,0.0535,23.1875,-4.5,33.875,128.0,-26.1875,161.0,0
1776974257.725,9.3422,1.6927,0.6536,-0.4341,0.5694,0.4935,-87.15,-18.75,26.25,9.5936,0.8787,1.3024,-0.0994,0.3832,0.6336,-77.55,-13.5,16.35,-4.06,-3.25,-8.13,-0.1745,-0.0676,0.0753,23.1875,-4.5,33.875,128.0,-26.1875,161.0,0
1776974257.729,9.3422,1.6927,0.6536,-0.4341,0.5694,0.4935,-87.15,-18.75,26.25,9.4954,0.8954,1.2139,-0.1783,0.4202,0.6896,-77.55,-13.5,16.35,-4.06,-3.25,-8.13,-0.1789,-0.0774,0.0993,23.1875,-4.5,33.875,128.0625,-26.25,161.125,0
1776974257.735,9.3733,2.2194,0.668,-0.4226,0.5662,0.4557,-88.5,-19.05,25.65,9.4954,0.8954,1.2139,-0.1783,0.4202,0.6896,-77.55,-13.5,16.35,-4.36,-2.91,-8.29,-0.1789,-0.0774,0.0993,23.1875,-4.5,33.875,128.0625,-26.3125,161.25,0
1776974257.745,9.6247,2.478,0.8308,-0.4122,0.5678,0.408,-88.5,-19.05,25.65,9.4595,1.6185,0.3543,-0.2654,0.4535,0.7346,-78.0,-15.75,17.85,-4.03,-3.16,-8.22,-0.1876,-0.0774,0.1124,23.1875,-4.5,33.875,128.0625,-26.3125,161.25,0
1776974257.75,9.6247,2.478,0.8308,-0.4122,0.5678,0.408,-88.5,-19.05,25.65,9.3374,2.0063,0.4693,-0.2771,0.4658,0.7863,-78.0,-15.75,17.85,-4.03,-3.16,-8.22,-0.2116,-0.0807,0.1309,23.1875,-4.5,33.875,128.125,-26.375,161.375,0
1776974257.756,9.4691,2.6097,0.972,-0.4056,0.5287,0.3632,-88.5,-19.05,25.65,9.3589,1.9273,0.668,-0.2771,0.4658,0.7863,-76.95,-17.1,16.95,-4.31,-2.92,-8.36,-0.2116,-0.0807,0.1309,23.1875,-4.5,33.875,128.125,-26.375,161.375,0
1776974257.761,9.4691,2.6097,0.972,-0.4056,0.5287,0.3632,-88.5,-19.05,25.65,9.3589,1.9273,0.668,-0.2313,0.5207,0.8503,-76.95,-17.1,16.95,-4.31,-2.92,-8.36,-0.2116,-0.0807,0.1309,23.1875,-4.1875,33.1875,128.1875,-26.4375,161.5,0
1776974257.766,9.4858,2.6576,1.3048,-0.4495,0.5127,0.3288,-87.9,-19.5,26.25,9.5433,1.8962,0.8595,-0.1703,0.5756,0.9363,-77.55,-18.15,17.55,-4.27,-2.8,-8.47,-0.2094,-0.0894,0.1451,23.1875,-4.1875,33.1875,128.1875,-26.4375,161.5,0
1776974257.771,9.4858,2.6576,1.3048,-0.4495,0.5127,0.3288,-87.9,-19.5,26.25,9.5433,1.8962,0.8595,-0.1703,0.5756,0.9363,-77.55,-18.15,17.55,-4.27,-2.8,-8.47,-0.2094,-0.0894,0.1451,23.1875,-4.1875,33.1875,128.1875,-26.5625,161.6875,0
1776974257.776,9.5792,2.8778,1.8914,-0.5415,0.4383,0.2854,-87.6,-21.15,27.15,9.6079,1.9944,1.8699,-0.142,0.5921,1.0043,-76.2,-17.1,17.7,-4.27,-2.73,-8.47,-0.1974,-0.0927,0.1516,23.1875,-4.1875,33.1875,128.1875,-26.5625,161.6875,0
1776974257.781,9.5792,2.8778,1.8914,-0.5415,0.4383,0.2854,-87.6,-21.15,27.15,9.6079,1.9944,1.8699,-0.142,0.5921,1.0043,-76.2,-17.1,17.7,-4.27,-2.73,-8.47,-0.1745,-0.1124,0.1604,23.1875,-4.1875,33.1875,128.25,-26.625,161.8125,0
1776974257.786,9.1985,2.8323,2.49,-0.6675,0.2952,0.2337,-89.25,-21.0,27.0,9.7109,1.9369,2.545,-0.0722,0.566,1.068,-76.05,-18.15,18.3,-4.34,-2.73,-8.56,-0.1745,-0.1124,0.1604,23.1875,-4.1875,33.1875,128.3125,-26.6875,161.9375,0
1776974257.795,9.165,2.4995,3.3279,-0.7727,0.2334,0.2049,-89.7,-21.3,27.3,9.8162,1.3575,2.5977,-0.044,0.5311,1.1357,-75.6,-18.45,19.05,-4.53,-2.57,-8.59,-0.1571,-0.1189,0.1669,23.1875,-4.1875,33.1875,128.3125,-26.6875,161.9375,0
1776974257.805,9.177,2.1356,3.9528,-0.8194,0.2158,0.1636,-89.7,-21.3,27.3,10.0102,0.0383,2.3535,-0.1167,0.5183,1.1935,-75.6,-18.45,19.05,-4.47,-2.7,-8.59,-0.1331,-0.1233,0.1658,23.1875,-4.1875,33.1875,128.375,-26.8125,162.0,0
1776974257.81,9.177,2.1356,3.9528,-0.8194,0.2158,0.1636,-89.7,-21.3,27.3,10.0102,0.0383,2.3535,-0.1167,0.5183,1.1935,-75.6,-18.45,19.05,-4.47,-2.7,-8.59,-0.1331,-0.1233,0.1658,23.1875,-4.1875,33.1875,128.4375,-26.875,162.125,0
1776974257.815,9.5433,1.6616,4.0941,-0.7826,0.2912,0.1119,-89.4,-22.65,26.4,9.9647,-0.5483,2.3822,-0.2737,0.5441,1.2694,-75.45,-18.3,20.25,-4.64,-2.58,-8.59,-0.1134,-0.0993,0.1658,23.5625,-4.5,33.5625,128.4375,-26.875,162.125,0
1776974257.82,9.5433,1.6616,4.0941,-0.7826,0.2912,0.1119,-89.4,-22.65,26.4,9.9647,-0.5483,2.3822,-0.2737,0.5441,1.2694,-75.45,-18.3,20.25,-4.64,-2.58,-8.59,-0.1134,-0.0993,0.1658,23.5625,-4.5,33.5625,128.5,-26.9375,162.1875,0
1776974257.825,9.8785,1.3001,3.9552,-0.6638,0.3285,0.0557,-90.9,-22.2,26.85,10.0221,-0.5914,1.7789,-0.5478,0.5526,1.3331,-75.45,-18.3,20.25,-4.66,-2.46,-8.64,-0.1014,-0.0578,0.1614,23.5625,-4.5,33.5625,128.5,-26.9375,162.1875,0
1776974257.83,9.8785,1.3001,3.9552,-0.6638,0.3285,0.0557,-90.9,-22.2,26.85,10.0221,-0.5914,1.7789,-0.5478,0.5526,1.3331,-75.45,-18.3,20.25,-4.66,-2.46,-8.64,-0.0785,-0.0218,0.1494,23.5625,-4.5,33.5625,128.625,-27.0,162.3125,0
1776974257.836,10.0054,1.221,3.4979,-0.4711,0.3589,-0.0072,-89.4,-22.2,26.85,10.0987,-0.3184,1.3551,-0.7312,0.5524,1.3933,-74.4,-21.0,19.2,-4.76,-2.38,-8.73,-0.0785,-0.0218,0.1494,23.5625,-4.5,33.5625,128.6875,-27.0,162.375,0
1776974257.845,10.58,1.2378,2.6791,-0.3893,0.5833,-0.06,-89.7,-21.0,27.0,10.4004,-0.3017,0.5531,-0.8628,0.5929,1.4666,-73.2,-21.45,19.95,-3.94,-2.54,-9.29,-0.0491,0.0109,0.12,23.5625,-4.5,33.5625,128.6875,-27.0,162.375,0
1776974257.855,11.0923,1.5682,1.731,-0.1743,0.3664,-0.1042,-89.7,-21.0,27.0,10.9319,-0.2753,0.0215,-0.9505,0.6267,1.534,-72.9,-23.4,19.95,-2.84,-2.76,-10.2,0.0109,-0.0284,0.0873,23.5625,-4.5,33.5625,128.6875,-27.0,162.375,0
1776974257.86,11.0923,1.5682,1.731,-0.0722,0.2998,-0.158,-89.7,-21.0,27.0,10.9319,-0.2753,0.0215,-0.9505,0.6267,1.534,-72.9,-23.4,19.95,-2.84,-2.76,-10.2,0.0109,-0.0284,0.0873,23.5625,-4.5,33.5625,128.6875,-27.0,162.375,0
1776974257.865,10.7787,1.7837,1.2977,-0.0722,0.2998,-0.158,-89.7,-21.0,27.0,11.0301,-0.3615,0.6752,-0.9515,0.6411,1.6145,-71.7,-22.95,19.2,-4.13,-2.64,-9.26,0.1604,-0.1724,0.1429,22.75,-4.5,33.5625,128.8125,-27.125,162.3125,0
1776974257.87,11.3461,2.1213,0.8045,-0.202,0.38,-0.2313,-89.7,-21.0,27.0,11.0301,-0.3615,0.6752,-0.9515,0.6411,1.6145,-71.7,-22.95,19.2,-4.13,-2.64,-9.26,0.1604,-0.1724,0.1429,22.75,-4.5,33.5625,128.8125,-27.125,162.3125,0
1776974257.875,11.3461,2.1213,0.8045,-0.202,0.38,-0.2313,-88.35,-21.45,26.4,11.2887,-0.3735,0.5842,-0.918,0.659,1.7229,-71.1,-22.05,20.55,-3.93,-2.56,-9.53,0.2542,-0.3098,0.1614,22.75,-4.5,33.5625,128.875,-27.3125,162.1875,0
1776974257.882,11.2456,2.5738,0.8428,-0.2515,-0.0762,-0.3595,-88.8,-21.45,26.4,11.904,-0.2179,0.8452,-0.8713,0.6904,1.8218,-71.1,-22.05,20.55,-3.03,-3.43,-10.65,0.3905,-0.4516,0.1691,22.75,-4.5,33.5625,129.0,-27.625,162.0,0
1776974257.887,11.2456,2.5738,0.8428,-0.2515,-0.0762,-0.3595,-88.8,-22.2,25.8,11.904,-0.2179,0.8452,-0.8713,0.6904,1.8218,-70.2,-28.05,18.75,-3.03,-3.43,-10.65,0.3905,-0.4516,0.1691,22.75,-4.5,33.5625,129.125,-28.0625,161.6875,0
1776974257.895,11.5951,2.9856,0.7973,-0.5494,-0.2563,-0.5145,-89.85,-20.7,25.05,12.8018,0.4788,1.3551,-0.7871,0.757,1.9561,-70.2,-28.05,18.75,-3.46,-2.26,-10.54,0.4538,-0.7636,0.1963,22.75,-4.5,33.5625,129.25,-28.625,161.375,0
1776974257.905,12.3086,3.7493,0.8595,-0.9491,-0.2459,-0.7091,-88.2,-20.55,25.65,14.0875,0.5124,0.8643,-0.7562,0.8021,2.1258,-67.35,-27.45,18.6,-3.29,-3.08,-10.59,0.4952,-1.0025,0.216,22.75,-4.5,33.5625,129.25,-28.625,161.375,0
1776974257.91,11.8968,4.4269,0.9026,-1.0389,-0.6342,-0.899,-88.2,-20.55,25.65,15.093,0.6129,0.6919,-0.748,0.8103,2.2972,-67.35,-27.45,18.6,-3.29,-3.08,-10.59,0.4952,-1.0025,0.216,22.75,-4.5,33.5625,129.25,-28.625,161.375,0
1776974257.915,11.8968,4.4269,0.9026,-1.0389,-0.6342,-0.899,-88.2,-20.55,25.65,15.093,0.6129,0.6919,-0.748,0.8103,2.2972,-67.35,-27.45,18.6,-2.58,-4.07,-11.07,0.4963,-1.3035,0.2727,23.5625,-4.5,33.25,129.3125,-29.3125,161.0625,0
1776974257.92,11.8824,4.3191,0.5315,-1.0363,-0.8092,-1.0587,-88.2,-20.55,25.65,15.512,1.1444,-0.917,-0.7131,0.7584,2.4637,-67.35,-27.45,18.6,-2.58,-4.07,-11.07,0.4963,-1.3035,0.2727,23.5625,-4.5,33.25,129.3125,-29.3125,161.0625,0
1776974257.925,11.8824,4.3191,0.5315,-1.0363,-0.8092,-1.0587,-88.95,-20.55,24.15,15.512,1.1444,-0.917,-0.7131,0.7584,2.4637,-66.6,-29.55,20.85,-2.74,-3.67,-11.36,0.4243,-1.7551,0.3905,23.5625,-4.5,33.25,129.4375,-30.3125,160.75,0
1776974257.93,11.6646,3.9049,0.1197,-0.6177,-1.0888,-1.1756,-88.95,-20.55,24.15,15.3444,1.822,-3.2394,-0.8407,0.7338,2.5037,-66.6,-29.55,20.85,-2.74,-3.67,-11.36,0.3098,-2.3431,0.5901,23.5625,-4.5,33.25,129.625,-31.6875,160.5,0
1776974257.936,11.6646,3.9049,0.1197,-0.6177,-1.0888,-1.1756,-89.25,-20.25,24.9,15.3444,1.822,-3.2394,-0.8407,0.7338,2.5037,-65.25,-31.65,19.2,-1.87,-4.65,-11.48,0.3098,-2.3431,0.5901,23.5625,-4.5,33.25,129.9375,-33.375,160.3125,0
1776974257.945,11.5927,3.6392,1.5012,-0.0384,-0.8697,-1.2561,-89.85,-21.9,23.55,14.0348,1.1396,-5.1882,-1.1042,0.745,2.4155,-64.5,-33.15,21.45,-2.08,-7.03,-11.08,0.2465,-2.9649,0.8781,23.5625,-4.5,33.25,130.375,-35.375,160.1875,0
1776974257.955,12.7012,2.8228,-1.1899,0.6094,-1.1109,-1.3643,-92.25,-18.0,22.05,12.3254,0.4046,-3.3423,-1.274,0.9268,2.2761,-63.3,-34.8,21.45,-2.46,-6.0,-10.55,0.2542,-3.4056,1.2555,23.5625,-4.5,33.25,130.375,-35.375,160.1875,0
1776974257.96,12.3038,1.4317,-3.158,0.8148,-1.6254,-1.4482,-92.25,-18.0,22.05,11.722,0.7446,0.3136,-1.2063,1.1266,2.2764,-63.3,-34.8,20.25,-2.46,-6.0,-10.55,0.2542,-3.4056,1.2555,23.5625,-4.5,33.25,130.9375,-37.6875,160.3125,0
1776974257.965,12.3038,1.4317,-3.158,0.8148,-1.6254,-1.4482,-92.25,-18.0,22.05,11.722,0.7446,0.3136,-1.2063,1.1266,2.2764,-62.25,-35.1,21.45,-2.69,-3.63,-10.75,0.0087,-3.8561,1.6428,26.875,-4.5,31.5625,130.9375,-37.6875,160.3125,0
1776974257.97,11.3988,0.7877,-2.4804,0.8641,-1.8612,-1.4123,-92.25,-18.0,22.05,12.3637,0.4238,-0.9409,-1.1032,1.1109,2.3422,-62.25,-35.1,21.45,-2.69,-3.63,-10.75,0.0087,-3.8561,1.6428,26.875,-4.5,31.5625,131.75,-40.375,160.5625,0
1776974257.975,11.3988,0.7877,-2.4804,0.8641,-1.8612,-1.4123,-91.65,-16.2,21.15,12.3637,0.4238,-0.9409,-1.1032,1.1109,2.3422,-62.25,-35.1,21.45,-3.13,-3.63,-10.93,0.012,-4.335,2.0922,26.875,-4.5,31.5625,131.75,-40.375,160.5625,0
1776974257.983,10.6279,0.4286,-0.9026,0.7376,-1.9795,-1.3867,-90.6,-16.2,20.1,12.3421,0.6177,-0.3879,-0.9694,1.0304,2.3395,-60.45,-35.7,20.85,-6.27,-5.47,-10.54,0.0545,-4.7811,2.4871,26.875,-4.5,31.5625,170.9375,-43.3125,160.875,0
1776974257.988,10.5848,0.6512,-0.1341,0.6592,-2.144,-1.4264,-90.6,-16.2,20.1,11.3605,-0.1053,0.7422,-0.8511,0.9587,2.2548,-60.45,-35.7,20.85,-6.27,-5.47,-10.54,0.0545,-4.7811,2.4871,26.875,-4.5,31.5625,167.4375,-46.5,161.4375,0
1776974257.996,10.6063,0.4405,0.5674,0.6017,-2.3904,-1.4858,-91.8,-16.8,21.3,10.161,-1.585,1.3384,-0.8511,0.9587,2.2548,-57.3,-36.0,21.0,-8.54,-6.37,-10.45,-0.0185,-5.1007,2.8067,26.875,-4.5,31.5625,164.0625,-49.8125,162.25,0
1776974258.005,10.6949,0.1365,1.2426,0.5393,-2.3864,-1.5508,-94.05,-15.75,19.2,9.1818,-3.0622,1.7334,-0.4719,0.9417,2.1282,-57.3,-36.0,21.0,-10.7,-6.02,-10.86,-0.0545,-5.2611,2.9736,26.875,-4.5,31.5625,164.0625,-49.8125,162.25,0
1776974258.01,10.6949,0.1365,1.2426,0.5393,-2.3864,-1.5508,-93.9,-13.65,18.6,9.1818,-3.0622,1.7334,-0.0056,1.0408,1.9854,-57.3,-36.0,21.0,-10.7,-6.02,-10.86,-0.0545,-5.2611,2.9736,26.875,-4.5,31.5625,164.0625,-49.8125,162.25,0
1776974258.015,11.2312,-0.8595,1.8387,0.3365,-1.9817,-1.5775,-93.9,-13.65,18.6,8.4707,-4.039,3.2106,-0.0056,1.0408,1.9854,-57.3,-36.0,21.0,-12.17,-7.67,-10.35,0.0175,-5.2993,3.0041,33.25,-6.0,24.5625,161.0625,-53.0625,163.125,0
1776974258.02,11.2312,-0.8595,1.8387,0.3365,-1.9817,-1.5775,-93.9,-13.65,18.6,8.4707,-4.039,3.2106,0.5196,1.3145,1.8319,-56.25,-39.3,23.1,-12.17,-7.67,-10.35,0.0175,-5.2993,3.0041,33.25,-6.0,24.5625,161.0625,-53.0625,163.125,0
1776974258.026,12.1649,-1.822,2.059,0.0418,-1.691,-1.5396,-93.9,-13.65,18.6,8.5353,-3.9025,4.5705,0.9036,1.5889,1.6593,-56.25,-39.3,23.1,-13.36,-7.54,-11.02,0.1265,-5.1596,3.0478,33.25,-6.0,24.5625,158.4375,-56.3125,164.1875,0
1776974258.033,12.1649,-1.822,2.059,0.0418,-1.691,-1.5396,-93.6,-12.75,16.35,8.5353,-3.9025,4.5705,0.9036,1.5889,1.6593,-55.05,-37.95,22.95,-12.74,-7.83,-10.58,0.1713,-4.7331,3.1067,33.25,-6.0,24.5625,156.125,-59.3125,165.6875,0
1776974258.037,11.7148,-2.3152,0.9768,-0.3557,-1.5886,-1.4789,-93.6,-12.75,16.35,9.1411,-5.9568,3.8355,1.0986,1.7475,1.4661,-53.4,-39.0,24.3,-12.74,-7.83,-10.58,0.1713,-4.7331,3.1067,33.25,-6.0,24.5625,153.9375,-61.9375,167.75,0
1776974258.046,13.805,-2.4972,0.8499,-0.506,-1.8762,-1.363,-93.6,-11.55,15.6,8.7532,-9.0836,5.8826,1.7128,1.9276,1.1666,-53.4,-39.0,24.3,-6.89,-9.03,-9.18,0.1014,-4.1899,3.2016,33.25,-6.0,24.5625,151.625,-64.375,170.6875,0
1776974258.056,12.6366,-2.3152,0.1939,-0.5473,-1.7571,-1.2684,-94.2,-11.7,15.0,8.2528,-6.3973,8.0421,2.9079,1.2929,0.918,-52.95,-39.3,23.85,-3.28,-8.16,-8.89,-0.2062,-3.7535,3.3281,33.25,-6.0,24.5625,151.625,-64.375,170.6875,0
1776974258.06,12.6366,-2.3152,0.1939,-0.5473,-1.7571,-1.2684,-95.4,-10.05,14.85,8.2528,-6.3973,8.0421,2.9079,1.2929,0.918,-52.95,-40.5,25.65,-3.28,-8.16,-8.89,-0.2062,-3.7535,3.3281,40.1875,-11.5,15.875,149.0,-66.5625,174.625,0
1776974258.066,12.4211,-1.4006,-0.0838,-0.6635,-1.6534,-1.2292,-95.4,-10.05,14.85,7.2065,-6.4572,6.924,2.4267,1.0525,0.7645,-52.95,-40.5,25.65,-1.76,-5.82,-8.81,-0.6109,-3.6161,3.4405,40.1875,-11.5,15.875,149.0,-66.5625,174.625,0
1776974258.07,12.4211,-1.4006,-0.0838,-0.6635,-1.6534,-1.2292,-95.4,-10.05,14.85,7.2065,-6.4572,6.924,2.4267,1.0525,0.7645,-51.0,-39.6,27.15,-1.76,-5.82,-8.81,-0.6109,-3.6161,3.4405,40.1875,-11.5,15.875,146.25,-68.6875,179.375,0
1776974258.075,11.5377,-0.7278,0.5459,-0.9209,-1.6489,-1.1954,-95.4,-10.05,14.85,5.6934,-5.7293,7.2089,1.6654,0.8577,0.5545,-51.0,-39.6,27.15,2.91,-4.86,-8.83,-1.0363,-3.6314,3.3009,40.1875,-11.5,15.875,146.25,-68.6875,179.375,0
1776974258.083,11.0612,-0.1173,1.9154,-1.101,-1.3158,-1.1191,-93.9,-7.95,12.9,5.1092,-6.9073,5.3343,1.194,0.574,0.2531,-51.0,-39.6,27.15,-13.18,-9.16,-6.75,-1.4148,-3.1689,2.3049,40.1875,-11.5,15.875,143.875,-70.4375,-176.1875,0
1776974258.088,11.0612,-0.1173,1.9154,-1.101,-1.3158,-1.1191,-93.9,-7.95,12.9,5.1092,-6.9073,5.3343,1.194,0.574,0.2531,-50.1,-38.7,29.85,-13.18,-9.16,-6.75,-1.4148,-3.1689,2.3049,40.1875,-11.5,15.875,142.625,-71.3125,-173.8125,0
1776974258.096,10.9128,0.1532,2.3296,-1.0264,-1.0477,-1.0403,-93.3,-9.75,11.4,4.0725,-6.5529,6.5864,0.8796,0.4253,-0.0663,-50.1,-38.7,29.85,-4.56,-7.06,-10.22,-0.8661,-1.6886,1.0527,40.1875,-11.5,15.875,142.375,-71.3125,-173.6875,0
1776974258.106,10.7428,0.316,2.2984,-0.9289,-1.0011,-1.0147,-93.3,-7.05,11.7,3.6152,-6.1244,6.213,0.5822,0.3416,-0.3541,-48.6,-37.95,29.85,-2.19,-6.59,-10.17,-0.3742,-0.0076,-0.048,40.1875,-11.5,15.875,142.375,-71.3125,-173.6875,0
1776974258.111,10.7428,0.316,2.2984,-0.9289,-1.0011,-1.0147,-93.3,-6.3,9.9,3.6152,-6.1244,6.213,0.5822,0.3416,-0.3541,-50.85,-37.05,29.85,-2.19,-6.59,-10.17,-0.3742,-0.0076,-0.048,40.1875,-11.5,15.875,142.6875,-70.9375,-175.0625,0
1776974258.116,10.8793,0.1676,2.1596,-0.7341,-1.0099,-1.0323,-93.3,-6.3,9.9,4.1013,-5.4157,5.0566,0.0498,0.2204,-0.7104,-50.85,-37.05,29.85,0.84,-6.79,-5.49,-0.1909,0.7407,-0.8618,43.5625,-19.75,5.875,142.6875,-70.9375,-175.0625,0
1776974258.12,10.8793,0.1676,2.1596,-0.7341,-1.0099,-1.0323,-95.1,-6.75,10.2,4.9344,-4.7501,4.13,0.0498,0.2204,-0.7104,-50.55,-36.9,30.15,0.84,-6.79,-5.49,-0.1909,0.7407,-0.8618,43.5625,-19.75,5.875,143.125,-70.375,-176.9375,0
1776974258.126,10.6303,0.4788,1.7765,-0.6241,-0.9918,-1.0349,-95.1,-6.75,10.2,4.9344,-4.7501,4.13,-0.2739,-0.1031,-1.0877,-50.55,-36.9,30.15,1.42,-5.01,-4.92,-0.2771,1.0832,-1.1945,43.5625,-19.75,5.875,143.125,-70.375,-176.9375,0
1776974258.13,10.6303,0.4788,1.7765,-0.6241,-0.9918,-1.0349,-95.1,-6.75,10.2,5.126,-4.6711,3.541,-0.2739,-0.1031,-1.0877,-49.5,-37.65,29.7,1.42,-5.01,-4.92,-0.4647,1.2905,-1.2774,43.5625,-19.75,5.875,143.4375,-69.6875,-178.6875,0
1776974258.136,10.149,0.7757,1.0989,-0.5865,-0.7064,-1.0248,-95.1,-6.75,10.2,5.126,-4.6711,3.541,-0.2577,-0.482,-1.3891,-49.5,-37.65,29.7,1.03,-3.18,-5.09,-0.4647,1.2905,-1.2774,43.5625,-19.75,5.875,143.8125,-68.875,179.5,0
1776974258.146,10.2472,1.0319,0.8188,-0.4501,-0.7035,-1.0429,-95.1,-4.05,10.2,4.604,-4.3503,2.4157,-0.1106,-0.8556,-1.5772,-52.65,-35.1,29.85,0.31,-1.38,-4.99,-0.4603,1.4857,-1.3472,43.5625,-19.75,5.875,144.4375,-67.875,177.6875,0
1776974258.156,9.1459,1.4389,0.6201,-0.23,-0.6734,-1.0363,-94.5,-3.15,9.3,3.9863,-4.8267,2.9521,-0.2244,-1.0158,-1.7637,-52.65,-35.1,29.85,0.35,-1.0,-4.79,-0.252,1.7115,-1.4432,43.5625,-19.75,5.875,144.4375,-67.875,177.6875,0
1776974258.161,8.5521,1.2354,1.3144,-0.1985,-0.6747,-1.0136,-94.95,-2.7,11.1,3.3902,-3.9361,3.4572,-0.3818,-1.1181,-1.8956,-53.25,-33.75,28.95,0.35,-1.0,-4.79,-0.252,1.7115,-1.4432,43.5625,-19.75,5.875,144.4375,-67.875,177.6875,0
1776974258.166,8.5521,1.2354,1.3144,-0.1985,-0.6747,-1.0136,-94.95,-2.7,11.1,3.3902,-3.9361,3.4572,-0.3818,-1.1181,-1.8956,-53.25,-33.75,28.95,0.09,-0.24,-5.03,0.0284,1.9504,-1.549,45.875,-20.375,6.375,145.375,-66.75,175.75,0
1776974258.171,8.6574,1.0032,1.2474,-0.2345,-0.3411,-0.9643,-94.8,-1.5,9.9,3.3902,-3.8762,2.7222,-0.5934,-1.2111,-2.1085,-53.25,-33.75,28.95,0.09,-0.24,-5.03,0.0284,1.9504,-1.549,45.875,-20.375,6.375,145.375,-66.75,175.75,0
1776974258.176,8.6574,1.0032,1.2474,-0.2345,-0.3411,-0.9643,-94.8,-1.5,9.9,3.3902,-3.8762,2.7222,-0.5934,-1.2111,-2.1085,-53.25,-33.75,28.95,-0.35,-0.22,-5.56,0.3207,2.1489,-1.621,45.875,-20.375,6.375,146.5625,-65.5,173.75,0
1776974258.183,8.1259,0.6823,1.7549,-0.1684,-0.2667,-0.939,-94.8,-1.5,9.9,3.7541,-3.8044,2.7485,-0.4026,-1.3622,-2.2473,-56.1,-31.65,28.8,-2.77,-0.47,-6.98,0.6316,2.3595,-1.6079,45.875,-20.375,6.375,148.125,-64.125,171.875,0
1776974258.187,8.1259,0.6823,1.7549,-0.1684,-0.2667,-0.939,-95.25,0.15,9.3,3.7541,-3.8044,2.7485,-0.4026,-1.3622,-2.2473,-56.1,-31.65,28.8,-2.77,-0.47,-6.98,0.6316,2.3595,-1.6079,45.875,-20.375,6.375,150.0,-62.5,170.125,0
1776974258.196,7.6734,0.2969,1.719,-0.1069,-0.2427,-0.9153,-95.25,0.15,9.3,4.288,-3.7326,2.9233,-0.2814,-1.4378,-2.3339,-57.45,-31.8,28.65,-3.71,-1.17,-7.52,0.8792,2.678,-1.609,45.875,-20.375,6.375,152.125,-60.625,168.5,0
1776974258.206,7.6591,-0.0742,1.719,-0.134,-0.2241,-0.8476,-96.0,-0.15,10.5,4.4915,-3.5745,4.2186,-0.0794,-1.4354,-2.4882,-58.05,-31.2,26.55,-3.9,-1.72,-7.91,0.9894,3.1252,-1.6362,45.875,-20.375,6.375,152.125,-60.625,168.5,0
1776974258.211,7.2832,-0.5291,1.652,-0.1226,-0.0794,-0.7437,-96.45,1.65,10.05,5.5952,-3.7852,4.2449,0.0187,-1.6347,-2.7142,-59.7,-30.6,27.15,-3.9,-1.72,-7.91,0.9894,3.1252,-1.6362,45.875,-20.375,6.375,154.3125,-58.5,167.1875,0
1776974258.216,7.2832,-0.5291,1.652,-0.1226,-0.0794,-0.7437,-96.45,1.65,10.05,5.5952,-3.7852,4.2449,0.0187,-1.6347,-2.7142,-59.7,-30.6,27.15,-2.96,-1.32,-7.78,0.9294,3.579,-1.6395,50.0625,-17.25,11.25,154.3125,-58.5,167.1875,0
1776974258.221,7.2329,-0.5674,2.0375,-0.0429,0.0043,-0.6187,-97.35,2.55,10.2,6.5242,-3.383,3.0718,-0.4311,-1.8852,-2.91,-61.5,-30.45,25.8,-2.96,-1.32,-7.78,0.9294,3.579,-1.6395,50.0625,-17.25,11.25,156.5625,-56.1875,166.1875,0
1776974258.226,7.2329,-0.5674,2.0375,-0.0429,0.0043,-0.6187,-97.95,2.55,10.2,6.5242,-3.383,3.0718,-0.4311,-1.8852,-2.91,-61.5,-30.45,25.8,-3.22,-0.2,-7.87,0.8236,3.927,-1.5675,50.0625,-17.25,11.25,156.5625,-56.1875,166.1875,0
1776974258.231,7.0557,-0.4142,2.2194,0.1492,0.1106,-0.4756,-97.95,1.8,11.4,7.2305,-3.0694,2.6456,-0.7072,-2.0089,-3.1136,-61.8,-27.0,24.0,-3.22,-0.2,-7.87,0.8508,4.1299,-1.441,50.0625,-17.25,11.25,159.0,-53.75,165.4375,0
1776974258.237,7.0557,-0.4142,2.2194,0.1492,0.1106,-0.4756,-97.95,1.8,11.4,7.9009,-3.2681,2.7007,-0.7346,-2.152,-3.2255,-61.8,-27.0,24.0,-3.76,0.63,-7.93,0.8508,4.1299,-1.441,50.0625,-17.25,11.25,161.6875,-51.3125,164.75,0
1776974258.246,7.0844,-0.146,2.1715,0.3768,0.1066,-0.3043,-97.95,1.8,11.4,8.2456,-4.1061,2.229,-0.7346,-2.152,-3.2255,-61.8,-27.0,24.0,-3.77,0.91,-7.79,1.0516,4.2521,-1.2501,50.0625,-17.25,11.25,161.6875,-51.3125,164.75,0
1776974258.256,7.331,-0.0335,1.6472,0.5217,0.1322,-0.1599,-96.45,3.15,11.1,8.7819,-4.4388,2.0111,-0.2105,-2.2513,-3.205,-63.9,-26.4,23.4,-4.69,0.2,-8.21,1.3581,4.2248,-0.9283,50.0625,-17.25,11.25,164.75,-48.875,164.125,0
1776974258.261,7.6112,-0.2179,1.0343,0.6035,0.174,-0.0671,-96.45,3.15,11.1,8.7819,-4.4388,2.0111,-0.2105,-2.2513,-3.205,-63.9,-26.4,23.4,-4.69,0.2,-8.21,1.3581,4.2248,-0.9283,50.0625,-17.25,11.25,164.75,-48.875,164.125,0
1776974258.266,7.6112,-0.2179,1.0343,0.6035,0.174,-0.0671,-97.65,2.55,10.95,9.0788,-4.4939,2.8539,-0.0432,-2.2799,-3.2594,-63.9,-26.4,23.4,-5.47,-0.78,-8.59,1.6417,4.0873,-0.5476,49.1875,-12.5,22.875,168.1875,-46.625,163.625,0
1776974258.271,7.8458,-0.5674,0.6057,0.6688,0.1756,-0.0024,-97.65,2.55,10.95,9.0788,-4.4939,2.8539,-0.0432,-2.2799,-3.2594,-68.1,-22.5,23.1,-5.47,-0.78,-8.59,1.6417,4.0873,-0.5476,49.1875,-12.5,22.875,168.1875,-46.625,163.625,0
1776974258.276,7.8458,-0.5674,0.6057,0.6768,0.114,0.0525,-97.05,2.4,12.9,9.4427,-4.5562,4.1204,-0.1921,-2.3707,-3.3207,-68.1,-22.5,23.1,-6.07,-1.9,-9.27,1.8097,3.9554,-0.2542,49.1875,-12.5,22.875,171.8125,-44.5,163.125,0
1776974258.282,8.0349,-0.8021,0.0622,0.6768,0.114,0.0525,-97.05,2.4,12.9,9.4427,-4.5562,4.1204,-0.1921,-2.3707,-3.3207,-68.7,-22.95,19.2,-6.82,-3.79,-10.44,1.837,3.8681,-0.1473,49.1875,-12.5,22.875,175.6875,-42.4375,162.625,0
1776974258.287,8.157,-0.8499,-0.2227,0.7075,-0.0152,0.06,-97.05,2.4,12.9,10.0533,-4.549,4.3503,-0.5694,-2.468,-3.3433,-68.7,-22.95,19.2,-6.82,-3.79,-10.44,1.837,3.8681,-0.1473,49.1875,-12.5,22.875,140.0625,-40.375,162.125,0
1776974258.296,8.4084,-0.486,-0.4166,0.7504,-0.1111,0.0552,-97.35,3.3,10.2,10.7835,-4.5873,3.9097,-0.895,-2.517,-3.3249,-69.0,-21.45,18.75,-7.07,-4.1,-10.76,1.7541,3.8026,-0.2193,49.1875,-12.5,22.875,140.4375,-38.375,161.5,0
1776974258.306,8.3414,-0.0383,-0.5267,0.7386,-0.215,0.0506,-98.7,1.8,12.0,10.9104,-4.379,3.0047,-1.1213,-2.3728,-3.3231,-70.5,-19.5,19.2,-7.39,-4.13,-10.82,1.6461,3.7045,-0.4178,49.1875,-12.5,22.875,140.4375,-38.375,161.5,0
1776974258.311,8.3414,-0.0383,-0.5267,0.7386,-0.215,0.0506,-98.7,1.8,12.0,10.9104,-4.379,3.0047,-1.1213,-2.3728,-3.3231,-73.05,-17.4,16.05,-7.39,-4.13,-10.82,1.6461,3.7045,-0.4178,49.1875,-12.5,22.875,140.4375,-38.375,161.5,0
1776974258.316,8.2073,0.34,-0.5986,0.6536,-0.2515,0.0266,-98.7,3.0,10.95,11.5784,-3.0382,2.1739,-1.0595,-2.4067,-3.2924,-73.05,-17.4,16.05,-8.59,-3.82,-11.04,1.6068,3.5616,-0.6763,40.375,-5.0625,35.5625,140.6875,-36.375,160.875,0
1776974258.321,8.2073,0.34,-0.5986,0.6536,-0.2515,0.0266,-98.7,3.0,10.95,11.5784,-3.0382,2.1739,-1.0595,-2.4067,-3.2924,-72.9,-17.1,15.9,-8.59,-3.82,-11.04,1.6068,3.5616,-0.6763,40.375,-5.0625,35.5625,140.6875,-36.375,160.875,0
1776974258.326,8.023,0.7302,-1.0127,0.4794,-0.3203,-0.0008,-97.05,4.2,10.5,10.3501,-2.3655,1.6903,-0.983,-2.2391,-3.2434,-72.9,-17.1,15.9,-10.05,-3.98,-11.33,1.6679,3.3848,-0.9425,40.375,-5.0625,35.5625,140.75,-34.4375,160.0,0
1776974258.331,8.023,0.7302,-1.0127,0.4794,-0.3203,-0.0008,-97.05,4.2,10.5,10.3501,-2.3655,1.6903,-0.983,-2.2391,-3.2434,-72.9,-17.1,15.9,-10.05,-3.98,-11.33,1.7835,3.2725,-1.189,40.375,-5.0625,35.5625,140.6875,-32.5,159.0625,0
1776974258.337,8.2696,1.2306,-0.9601,0.3046,-0.3435,-0.0144,-97.05,4.2,10.5,10.4603,-0.9864,1.8052,-0.5204,-2.2292,-3.1685,-72.9,-17.1,15.9,-9.73,-4.57,-11.36,1.7835,3.2725,-1.189,40.375,-5.0625,35.5625,140.5,-30.6875,158.0,0
1776974258.346,8.5641,1.8842,-1.0511,0.0498,-0.2715,-0.0642,-97.05,4.2,10.5,9.5146,-0.6081,1.9752,-0.1524,-2.1296,-3.0569,-73.95,-13.65,11.85,-10.74,-5.12,-11.43,1.7781,2.9987,-1.3777,40.375,-5.0625,35.5625,140.25,-28.75,157.0,0
1776974258.356,8.8849,2.6097,-1.2641,-0.2998,-0.1863,-0.0504,-99.15,4.05,10.95,9.8114,-0.7159,1.8914,0.049,-2.0502,-2.9673,-73.95,-13.65,11.85,-10.08,-4.55,-10.99,1.6679,3.123,-1.5566,40.375,-5.0625,35.5625,140.25,-28.75,157.0,0
1776974258.361,8.8849,2.6097,-1.2641,-0.2998,-0.1863,-0.0504,-99.15,4.05,10.95,10.1347,-1.2402,1.7885,0.049,-2.0502,-2.9673,-75.3,-10.65,11.25,-10.08,-4.55,-10.99,1.6679,3.123,-1.5566,40.375,-5.0625,35.5625,139.8125,-26.8125,156.0625,0
1776974258.366,9.0166,3.2154,-1.0678,-0.5572,-0.0949,-0.0179,-97.35,4.05,11.4,10.1347,-1.2402,1.7885,0.0901,-1.9209,-2.8671,-75.3,-10.65,11.25,-9.54,-4.05,-10.77,1.4868,3.0358,-1.7061,28.25,0.0,39.875,139.8125,-26.8125,156.0625,0
1776974258.371,9.0166,3.2154,-1.0678,-0.5572,-0.0949,-0.0179,-97.35,4.05,11.4,11.0492,-1.4772,1.6975,0.0642,-1.9124,-2.7622,-74.7,-9.3,10.35,-9.54,-4.05,-10.77,1.4868,3.0358,-1.7061,28.25,0.0,39.875,139.3125,-24.875,155.1875,0
1776974258.376,8.9495,3.6559,-0.8763,-0.8183,-0.0693,-0.0125,-98.25,2.4,10.8,11.0492,-1.4772,1.6975,0.0642,-1.9124,-2.7622,-74.7,-9.3,10.35,-9.04,-3.58,-10.43,1.3515,2.9409,-1.8239,28.25,0.0,39.875,139.3125,-24.875,155.1875,0
1776974258.384,9.2129,4.0151,-0.8475,-1.0432,-0.2643,-0.0213,-97.8,4.2,10.5,10.9918,-1.8148,1.6951,-0.1039,-1.837,-2.687,-75.6,-7.2,7.95,-8.08,-2.91,-9.92,1.2654,2.7816,-1.8839,28.25,0.0,39.875,138.75,-23.0625,154.375,0
1776974258.389,9.2129,4.0151,-0.8475,-1.0432,-0.2643,-0.0213,-97.8,4.2,10.5,10.9918,-1.8148,1.6951,-0.1039,-1.837,-2.687,-75.6,-7.2,7.95,-8.08,-2.91,-9.92,1.2654,2.7816,-1.8839,28.25,0.0,39.875,138.1875,-21.3125,153.5625,0
1776974258.397,8.193,4.3072,-0.7159,-1.2518,-0.4413,-0.0538,-97.8,4.2,10.5,10.8266,-1.719,1.6592,-0.2785,-1.8485,-2.6239,-76.05,-5.55,7.2,-7.65,-2.67,-9.71,1.2174,2.6027,-1.8522,28.25,0.0,39.875,137.625,-19.6875,152.8125,0
1776974258.406,7.7835,4.6639,-0.6033,-1.5442,-0.162,-0.0666,-96.45,4.2,10.8,10.7069,-1.3575,1.3862,-0.4287,-1.8786,-2.5445,-76.05,-5.55,7.2,-7.83,-2.29,-9.79,1.1836,2.3638,-1.7311,28.25,0.0,39.875,137.625,-19.6875,152.8125,0
1776974258.411,7.7835,4.6639,-0.6033,-1.5956,-0.0922,-0.0743,-96.45,4.2,10.8,10.1347,-1.0846,1.3886,-0.6249,-1.8599,-2.4565,-77.25,-3.3,4.95,-7.83,-2.29,-9.79,1.1836,2.3638,-1.7311,28.25,0.0,39.875,137.625,-19.6875,152.8125,0
1776974258.416,8.0206,5.0637,-0.8332,-1.5956,-0.0922,-0.0743,-97.35,4.5,10.65,10.1347,-1.0846,1.3886,-0.6249,-1.8599,-2.4565,-77.25,-3.3,4.95,-8.67,-1.6,-9.91,1.2348,2.1009,-1.5686,18.0625,5.75,40.0,137.1875,-18.25,152.0625,0
1776974258.421,8.011,5.2002,-1.1205,-1.5399,-0.0248,-0.0586,-97.35,4.5,10.65,9.6462,-0.6776,1.1157,-0.934,-1.7405,-2.3547,-77.25,-3.3,4.95,-8.67,-1.6,-9.91,1.2348,2.1009,-1.5686,18.0625,5.75,40.0,137.1875,-18.25,152.0625,0
1776974258.426,8.011,5.2002,-1.1205,-1.5399,-0.0248,-0.0586,-97.8,6.15,8.7,9.6462,-0.6776,1.1157,-0.934,-1.7405,-2.3547,-77.25,-3.3,4.95,-8.62,-1.64,-9.58,1.3886,1.9177,-1.4224,18.0625,5.75,40.0,136.75,-16.9375,151.1875,0
1776974258.433,8.1523,5.3965,-1.5323,-1.4109,0.0418,-0.0179,-96.6,4.5,9.9,9.2991,-0.4286,0.814,-1.1543,-1.5652,-2.2532,-75.9,0.0,4.05,-8.8,-1.87,-9.41,1.5381,1.7846,-1.2806,18.0625,5.75,40.0,136.4375,-15.75,150.3125,0
1776974258.438,8.1523,5.3965,-1.5323,-1.4109,0.0418,-0.0179,-96.6,4.5,9.9,9.1435,0.0718,0.7638,-1.1543,-1.5652,-2.2532,-75.9,0.0,4.05,-8.8,-1.87,-9.41,1.5381,1.7846,-1.2806,18.0625,5.75,40.0,136.1875,-14.625,149.375,0
1776974258.446,8.1594,5.5067,-1.7454,-1.2025,0.0749,0.0229,-96.6,4.5,9.9,9.1435,0.0718,0.7638,-1.3145,-1.4405,-2.1413,-76.65,0.75,2.55,-9.19,-1.91,-9.19,1.6406,1.681,-1.1137,18.0625,5.75,40.0,136.0625,-13.5625,148.4375,0
1776974258.456,8.2983,5.5354,-2.1332,-0.93,0.0805,0.045,-96.6,4.5,9.9,8.9687,0.6369,0.6297,-1.5489,-1.356,-2.0398,-75.9,2.7,0.6,-9.92,-1.88,-8.78,1.7061,1.6352,-0.9392,18.0625,5.75,40.0,136.0625,-13.5625,148.4375,0
1776974258.461,8.3055,5.5976,-2.387,-0.6808,0.064,0.06,-96.6,4.5,9.9,8.7819,1.0343,0.2107,-1.7267,-1.2588,-1.9159,-78.3,4.05,1.2,-9.92,-1.88,-8.78,1.7061,1.6352,-0.9392,17.5,5.5,36.75,136.0,-12.5625,147.5,0
1776974258.466,8.3055,5.5976,-2.387,-0.6808,0.064,0.06,-95.1,4.8,10.95,8.5712,1.2953,0.3496,-1.7267,-1.2588,-1.9159,-78.3,4.05,1.2,-10.72,-1.78,-8.86,1.7519,1.6504,-0.7876,17.5,5.5,36.75,136.0,-12.5625,147.5,0
1776974258.471,8.3318,5.6575,-2.4876,-0.4682,0.0986,0.0594,-95.1,4.8,10.95,8.5712,1.2953,0.3496,-1.6361,-1.1365,-1.7528,-76.8,4.5,-0.45,-10.72,-1.78,-8.86,1.7519,1.6504,-0.7876,17.5,5.5,36.75,136.0,-11.5625,146.5625,0
1776974258.476,8.3318,5.6575,-2.4876,-0.4682,0.0986,0.0594,-96.15,4.8,9.9,8.169,1.7741,0.4717,-1.6361,-1.1365,-1.7528,-76.8,4.5,-0.45,-11.43,-1.84,-8.72,1.7857,1.7301,-0.6698,17.5,5.5,36.75,136.0,-11.5625,146.5625,0
1776974258.485,8.8155,5.873,-2.478,-0.2774,-0.1796,0.0298,-96.9,6.3,9.6,8.169,1.7741,0.4717,-1.5274,-0.8913,-1.5641,-76.8,6.45,-0.9,-10.33,-1.62,-7.33,1.7519,1.9079,-0.5945,17.5,5.5,36.75,136.125,-10.5,145.625,0
1776974258.49,8.667,5.9592,-2.5115,-0.1452,-0.1002,0.0005,-96.9,6.3,9.6,8.0709,2.2984,0.1484,-1.5122,-0.7314,-1.3582,-76.8,6.45,-0.9,-10.33,-1.62,-7.33,1.7519,1.9079,-0.5945,17.5,5.5,36.75,136.3125,-9.375,144.8125,0
1776974258.497,8.667,5.9592,-2.5115,-0.1452,-0.1002,0.0005,-97.05,4.95,9.3,8.1451,2.5786,-0.6488,-1.5295,-0.5838,-1.145,-76.8,6.45,-0.9,-9.31,-0.98,-6.43,1.6046,2.1009,-0.5116,17.5,5.5,36.75,136.5625,-8.3125,144.125,0
1776974258.507,8.8945,5.849,-2.4349,-0.0738,-0.0448,-0.0264,-97.05,4.95,9.3,8.2863,2.4541,-1.2977,-1.4967,-0.4847,-0.9411,-76.2,6.6,-2.1,-8.71,-0.27,-5.63,1.3854,2.1566,-0.3469,17.5,5.5,36.75,136.5625,-8.3125,144.125,0
1776974258.511,9.1722,5.7341,-2.4517,-0.0293,-0.0128,-0.0733,-97.05,4.95,9.3,8.2863,2.4541,-1.2977,-1.4967,-0.4847,-0.9411,-76.2,6.6,-2.1,-8.71,-0.27,-5.63,1.3854,2.1566,-0.3469,17.5,5.5,36.75,136.875,-7.375,143.5625,0
1776974258.517,9.1722,5.7341,-2.4517,-0.0293,-0.0128,-0.0733,-96.45,5.7,9.0,8.1547,2.0901,-1.3719,-1.416,-0.3632,-0.7224,-76.2,6.6,-2.1,-8.65,0.51,-4.26,1.1945,2.0279,-0.1222,18.0625,7.0625,38.5,136.875,-7.375,143.5625,0
1776974258.521,9.1842,5.4923,-2.3511,0.0155,-0.0093,-0.1159,-96.45,5.7,10.5,8.1547,2.0901,-1.3719,-1.416,-0.3632,-0.7224,-74.7,7.35,-2.1,-8.65,0.51,-4.26,1.1945,2.0279,-0.1222,18.0625,7.0625,38.5,137.3125,-6.625,143.0625,0
1776974258.527,9.1842,5.4923,-2.3511,0.0155,-0.0093,-0.1159,-96.45,5.7,10.5,7.853,1.6616,-1.2498,-1.3214,-0.1743,-0.486,-74.7,7.35,-2.1,-8.96,0.65,-3.82,1.0799,1.7791,0.1396,18.0625,7.0625,38.5,137.3125,-6.625,143.0625,0
1776974258.531,9.1363,5.1739,-2.1045,0.048,0.0528,-0.1316,-95.4,5.55,9.9,7.853,1.6616,-1.2498,-1.3214,-0.1743,-0.486,-76.95,7.35,-2.1,-8.96,0.65,-3.82,1.0243,1.465,0.4025,18.0625,7.0625,38.5,137.875,-6.125,142.5625,0
1776974258.537,9.2703,4.956,-1.992,0.0919,0.1396,-0.1087,-95.4,5.55,9.9,7.774,1.4653,-1.0367,-1.2777,0.0093,-0.2526,-76.95,7.35,-2.1,-9.21,0.63,-3.54,1.0243,1.465,0.4025,18.0625,7.0625,38.5,138.5,-5.8125,142.0625,0
1776974258.547,9.2703,4.956,-1.992,0.2337,0.1847,-0.0978,-97.65,5.55,10.2,8.0517,1.3599,-0.7733,-1.2686,0.1945,-0.0445,-75.9,7.35,-1.8,-9.28,0.42,-3.36,1.0188,1.1596,0.66,18.0625,7.0625,38.5,138.5,-5.8125,142.0625,0
1776974258.557,9.4691,4.7453,-1.913,0.3365,0.2774,-0.0701,-97.65,5.55,10.2,8.3414,1.1803,-0.182,-1.1626,0.3408,0.1394,-76.05,7.95,-2.4,-8.85,-0.43,-3.61,1.0265,0.8716,0.8934,18.0625,7.0625,38.5,139.1875,-5.75,141.5625,0
1776974258.561,9.4691,4.7453,-1.913,0.3365,0.2774,-0.0701,-97.65,6.3,9.9,8.3414,1.1803,-0.182,-1.1626,0.3408,0.1394,-75.6,7.5,-0.45,-8.85,-0.43,-3.61,1.0265,0.8716,0.8934,18.0625,7.0625,38.5,139.1875,-5.75,141.5625,0
1776974258.566,9.3087,4.391,-1.8675,0.3845,0.3062,-0.049,-97.65,6.3,9.9,8.6455,1.0534,0.237,-1.0171,0.4381,0.2902,-75.6,7.5,-0.45,-8.68,-0.96,-3.97,1.0156,0.5923,1.0799,16.5,11.1875,41.5,139.9375,-5.875,141.0625,0
1776974258.571,9.3087,4.391,-1.8675,0.3845,0.3062,-0.049,-96.75,6.45,7.95,8.6455,1.0534,0.237,-1.0171,0.4381,0.2902,-75.9,8.1,-2.1,-8.68,-0.96,-3.97,1.0156,0.5923,1.0799,16.5,11.1875,41.5,139.9375,-5.875,141.0625,0
1776974258.576,8.9615,3.7182,-1.7885,0.3552,0.3587,-0.0277,-96.75,6.45,7.95,8.7269,1.0199,0.5004,-0.8495,0.5007,0.4351,-75.9,8.1,-2.1,-8.32,-1.59,-4.31,0.9752,0.3436,1.1988,16.5,11.1875,41.5,140.6875,-6.125,140.625,0
1776974258.583,8.9615,3.7182,-1.7885,0.3552,0.3587,-0.0277,-97.05,5.4,10.5,8.7891,0.7542,0.7374,-0.6488,0.5604,0.5785,-75.9,8.1,-2.1,-7.87,-2.7,-5.01,0.9065,0.1364,1.2599,16.5,11.1875,41.5,141.4375,-6.5,140.1875,0
1776974258.588,8.8633,3.0598,-1.6113,0.2577,0.4463,0.0224,-97.05,5.4,10.5,8.7891,0.7542,0.7374,-0.6488,0.5604,0.5785,-75.9,8.1,-2.1,-7.87,-2.7,-5.01,0.9065,0.1364,1.2599,16.5,11.1875,41.5,142.1875,-7.0,139.75,0
1776974258.597,8.7676,2.4373,-1.4485,0.1474,0.5918,0.1356,-95.85,6.75,8.55,8.9615,0.759,1.2809,-0.4623,0.6496,0.7088,-76.05,6.75,0.15,-7.53,-3.15,-5.17,0.8181,-0.0404,1.2588,16.5,11.1875,41.5,142.8125,-7.5,139.4375,0
1776974258.607,9.1315,2.4301,-1.4006,0.1423,0.7037,0.3027,-96.45,5.4,10.5,9.3781,1.8052,2.9209,-0.2209,0.9438,0.7061,-76.05,6.75,0.15,1.03,-13.36,-10.89,0.7221,-0.18,1.1988,16.5,11.1875,41.5,142.8125,-7.5,139.4375,0
1776974258.612,9.1315,2.4301,-1.4006,0.1423,0.7037,0.3027,-96.45,5.4,10.5,11.0899,3.5698,-0.8284,-0.3171,0.866,0.6835,-75.6,7.5,0.15,1.03,-13.36,-10.89,0.7221,-0.18,1.1988,16.5,11.1875,41.5,143.0625,-8.0625,139.875,0
1776974258.617,8.8681,1.913,-1.0702,0.0424,0.5678,0.4197,-96.45,5.4,10.5,11.0899,3.5698,-0.8284,-0.3171,0.866,0.6835,-75.6,7.5,0.15,-0.02,-19.2,-4.34,-0.7461,-0.66,0.7887,15.5,10.875,41.6875,143.0625,-8.0625,139.875,0
1776974258.622,8.8681,1.913,-1.0702,0.0424,0.5678,0.4197,-96.15,4.5,11.4,11.9207,4.5921,-2.8228,-0.586,0.4591,0.4887,-75.6,7.5,0.15,-0.02,-19.2,-4.34,-0.7461,-0.66,0.7887,15.5,10.875,41.6875,143.3125,-9.25,141.625,0
1776974258.627,8.9112,1.4653,-0.9601,-0.0967,0.6315,0.5484,-96.15,4.5,11.4,11.9207,4.5921,-2.8228,-0.586,0.4591,0.4887,-76.05,6.45,0.45,-2.76,-2.97,-10.9,-3.159,-1.7213,1.3046,15.5,10.875,41.6875,143.3125,-9.25,141.625,0
1776974258.632,8.9112,1.4653,-0.9601,-0.0967,0.6315,0.5484,-95.4,5.25,11.7,10.7404,5.6264,-0.4525,-0.0373,0.2606,0.259,-77.25,5.55,0.9,-2.76,-2.97,-10.9,-3.1154,-1.8031,1.033,15.5,10.875,41.6875,143.375,-10.375,143.3125,0
1776974258.638,9.153,1.6688,-0.8906,-0.2542,0.6414,0.6869,-95.4,5.25,11.7,10.7404,5.6264,-0.4525,-0.0373,0.2606,0.259,-77.25,5.55,0.9,-2.08,-10.7,-7.07,-3.1154,-1.8031,1.033,15.5,10.875,41.6875,143.1875,-11.25,144.6875,0
1776974258.647,8.8585,2.0111,-0.9577,-0.4133,0.7232,0.773,-94.2,4.65,10.5,9.2775,5.691,-1.1468,0.6571,0.1732,0.2156,-76.2,4.65,1.8,-1.22,-9.32,-5.12,-2.6649,-1.6439,0.4385,15.5,10.875,41.6875,143.1875,-11.25,144.6875,0
1776974258.657,9.3206,2.8323,-1.4246,-0.3064,0.8601,0.8708,-93.45,4.2,10.5,8.2863,5.6719,-0.5602,1.3968,0.1452,0.2585,-76.2,4.65,1.8,-3.98,-3.88,-7.51,-2.8351,-1.6821,0.8268,15.5,10.875,41.6875,143.1875,-12.3125,146.25,0
1776974258.662,9.3206,2.8323,-1.4246,-0.3064,0.8601,0.8708,-93.45,4.2,10.5,8.4036,4.8004,-1.2929,1.8828,0.3488,0.3643,-76.2,4.65,1.8,-3.98,-3.88,-7.51,-2.8351,-1.6821,0.8268,15.5,10.875,41.6875,143.1875,-12.3125,146.25,0
1776974258.667,10.0293,4.1803,-1.8316,-0.0466,0.8873,0.9553,-93.45,4.2,10.5,8.4036,4.8004,-1.2929,1.8828,0.3488,0.3643,-75.15,3.9,1.8,-4.71,-2.88,-8.95,-3.0761,-1.7148,1.069,18.375,7.5,41.875,143.3125,-13.4375,147.9375,0
1776974258.672,10.0293,4.1803,-1.8316,-0.0466,0.8873,0.9553,-94.05,1.8,12.45,9.9,3.8188,-2.8419,2.1637,0.4938,0.4506,-75.15,3.9,1.8,-4.71,-2.88,-8.95,-3.0761,-1.7148,1.069,18.375,7.5,41.875,143.3125,-13.4375,147.9375,0
1776974258.677,10.5824,5.205,-1.9034,0.2635,0.6875,0.9785,-94.05,1.8,12.45,9.9,3.8188,-2.8419,2.1637,0.4938,0.4506,-75.15,3.9,1.8,-4.14,-1.83,-9.18,-3.0958,-1.5413,1.0625,18.375,7.5,41.875,143.4375,-14.4375,149.6875,0
1776974258.685,11.2623,5.4947,-1.3408,0.6486,0.4716,0.9534,-94.95,0.9,12.15,11.0875,3.3734,-2.7102,1.9252,0.5327,0.4261,-75.15,2.25,2.55,1.39,-0.25,-8.71,-2.8907,-1.3395,0.8748,18.375,7.5,41.875,143.5,-15.375,151.3125,0
1776974258.69,11.2623,5.4947,-1.3408,0.6486,0.4716,0.9534,-93.9,0.15,12.15,14.2096,1.2761,-8.9639,1.2729,0.3022,0.4535,-75.15,2.25,2.55,1.39,-0.25,-8.71,-2.8907,-1.3395,0.8748,18.375,7.5,41.875,143.5,-16.1875,152.6875,0
1776974258.697,13.7834,4.2904,-0.7997,0.9931,0.4285,1.015,-93.9,0.15,12.15,15.8161,-2.8754,-6.8378,1.2729,0.3022,0.4535,-75.15,2.25,2.55,0.28,9.44,-12.93,-2.5504,-1.3723,0.7079,18.375,7.5,41.875,143.5,-17.25,153.5625,0
1776974258.707,16.3955,3.462,-0.5243,1.0992,0.2249,1.1567,-93.45,2.4,13.65,13.1226,-5.1308,-0.34,1.5362,0.1266,0.5289,-75.6,1.65,3.45,-6.19,2.96,-14.71,-1.5533,-1.7344,0.6698,18.375,7.5,41.875,143.5,-17.25,153.5625,0
1776974258.712,16.1345,2.7294,-0.1772,1.1935,0.1332,1.2481,-93.15,0.9,13.35,13.1226,-5.1308,-0.34,1.8551,0.2896,0.6904,-75.6,1.65,3.45,-6.19,2.96,-14.71,-1.5533,-1.7344,0.6698,18.375,7.5,41.875,143.6875,-18.625,153.875,0
1776974258.717,16.1345,2.7294,-0.1772,1.1935,0.1332,1.2481,-93.15,0.9,13.35,11.1091,-4.5107,1.4629,1.5407,0.7482,0.8082,-76.8,2.85,2.4,-15.77,0.8,-16.92,-0.6556,-2.3246,0.997,22.6875,0.6875,40.875,143.6875,-18.625,153.875,0
1776974258.722,15.0404,2.6983,-1.0295,1.4794,0.5969,1.2129,-93.15,0.9,13.35,11.1091,-4.5107,1.4629,1.5407,0.7482,0.8082,-76.8,2.85,2.4,-15.77,0.8,-16.92,-0.6556,-2.3246,0.997,22.6875,0.6875,40.875,144.3125,-20.0,154.5625,0
1776974258.727,15.0404,2.6983,-1.0295,1.4794,0.5969,1.2129,-93.15,0.9,13.35,12.4091,-2.5259,-0.984,0.4716,1.1061,0.7536,-75.9,0.3,4.05,-4.6,-4.77,-8.86,-0.9468,-1.9068,1.657,22.6875,0.6875,40.875,144.3125,-20.0,154.5625,0
1776974258.732,12.2679,3.5698,-2.1141,2.0398,0.5249,0.9427,-91.95,0.45,13.35,12.4091,-2.5259,-0.984,0.4716,1.1061,0.7536,-75.9,0.3,4.05,-4.6,-4.77,-8.86,-0.7418,-0.8345,0.9588,22.6875,0.6875,40.875,144.625,-20.625,155.0625,0
1776974258.738,12.2679,3.5698,-2.1141,2.0398,0.5249,0.9427,-94.05,0.3,13.35,12.6581,-0.3519,1.3288,0.1751,1.109,0.6328,-75.9,-0.3,3.3,-4.61,-1.52,-10.4,-0.7418,-0.8345,0.9588,22.6875,0.6875,40.875,144.875,-21.25,155.5,0
1776974258.747,9.2895,3.5721,-1.7693,1.979,0.5431,0.6206,-94.05,0.3,13.05,11.3437,3.0358,2.5211,0.4599,0.6755,0.5942,-75.9,-0.3,3.3,-7.82,-0.33,-12.72,-0.6643,-0.9174,0.7614,22.6875,0.6875,40.875,144.875,-21.25,155.5,0
1776974258.757,7.2903,1.5419,-0.3256,1.1636,0.7877,0.4085,-92.55,2.55,12.75,9.0166,6.3973,3.1987,0.4471,0.316,0.53,-75.9,0.3,5.1,-3.72,-4.74,-8.1,-0.3687,-0.7374,0.5083,22.6875,0.6875,40.875,145.0625,-21.75,155.75,0
1776974258.762,6.2513,-0.6345,0.8236,0.0288,1.1871,0.2982,-92.55,2.55,12.75,9.0166,6.3973,3.1987,0.4471,0.316,0.53,-75.9,0.3,5.1,-3.72,-4.74,-8.1,-0.3687,-0.7374,0.5083,22.6875,0.6875,40.875,145.125,-22.0,155.875,0
1776974258.767,6.2513,-0.6345,0.8236,0.0288,1.1871,0.2982,-92.55,2.55,12.75,7.2449,6.0789,3.3399,0.3864,0.1092,0.4834,-75.9,0.3,5.1,-3.51,-5.18,-7.91,-0.1887,-0.3818,0.2869,27.0625,-4.75,38.5,145.125,-22.0,155.875,0
1776974258.772,7.0485,-1.7286,1.506,-0.9489,1.6092,0.1727,-92.55,2.55,12.75,7.2449,6.0789,3.3399,0.3864,0.1092,0.4834,-75.9,0.3,5.1,-3.51,-5.18,-7.91,-0.1887,-0.3818,0.2869,27.0625,-4.75,38.5,145.1875,-22.25,156.0,0
1776974258.777,7.0485,-1.7286,1.506,-0.9489,1.6092,0.1727,-92.55,2.55,12.75,6.6702,4.5466,2.49,0.9094,0.1063,0.5247,-75.45,0.0,6.15,-3.82,-4.57,-7.84,-0.2203,-0.3862,0.2542,27.0625,-4.75,38.5,145.1875,-22.25,156.0,0
1776974258.785,6.8259,-2.7605,2.0566,-1.5886,1.6286,0.158,-92.7,0.15,16.2,7.3263,2.3439,1.1612,1.093,0.2505,0.574,-75.45,-0.75,5.85,-3.86,-4.81,-7.81,-0.3065,-0.4298,0.2847,27.0625,-4.75,38.5,145.3125,-22.5625,156.1875,0
1776974258.79,6.8666,-3.8858,2.6887,-1.8439,1.2343,0.2665,-92.55,-0.3,14.85,7.3263,2.3439,1.1612,1.093,0.2505,0.574,-75.45,-0.75,5.85,-3.86,-4.81,-7.81,-0.3065,-0.4298,0.2847,27.0625,-4.75,38.5,145.375,-22.8125,156.4375,0
1776974258.797,6.8666,-3.8858,2.6887,-1.8439,1.2343,0.2665,-92.7,-2.7,17.25,8.4204,-0.0455,-0.4549,0.9228,0.5716,0.563,-75.45,0.0,6.6,-4.17,-3.91,-7.99,-0.42,-0.3916,0.312,27.0625,-4.75,38.5,145.4375,-23.0625,156.8125,0
1776974258.807,7.3837,-4.2258,3.0263,-1.809,0.6462,0.5116,-93.0,-4.05,16.65,9.6702,-1.1923,-0.5674,0.7088,0.7053,0.4999,-75.15,-1.05,7.65,-3.53,-3.66,-8.16,-0.5291,-0.2793,0.3294,27.0625,-4.75,38.5,145.4375,-23.0625,156.8125,0
1776974258.812,8.2456,-3.4907,3.1508,-1.481,0.1836,0.8143,-93.0,-4.05,16.65,10.1251,-1.1109,-0.6776,0.7088,0.7053,0.4999,-75.15,-1.05,7.65,-3.53,-3.66,-8.16,-0.5291,-0.2793,0.3294,27.0625,-4.75,38.5,145.4375,-23.0625,156.8125,0
1776974258.817,8.2456,-3.4907,3.1508,-1.481,0.1836,0.8143,-91.95,-5.7,16.5,10.1251,-1.1109,-0.6776,0.1487,0.7392,0.405,-74.85,-1.65,7.2,-3.84,-3.63,-8.12,-0.552,-0.3578,0.3414,28.0625,-5.375,36.875,145.5625,-23.3125,157.125,0
1776974258.822,9.6582,-2.2482,1.9369,-1.0307,-0.0096,1.0347,-91.95,-5.7,16.5,9.8904,0.1365,-0.3807,0.1487,0.7392,0.405,-74.85,-1.65,7.2,-3.84,-3.63,-8.12,-0.552,-0.3578,0.3414,28.0625,-5.375,36.875,145.5625,-23.3125,157.125,0
1776974258.827,9.6582,-2.2482,1.9369,-0.6422,-0.0655,1.06,-91.95,-5.7,16.5,9.8904,0.1365,-0.3807,-0.3182,0.6957,0.368,-76.05,-2.4,7.2,-3.82,-2.96,-8.58,-0.5061,-0.3076,0.3458,28.0625,-5.375,36.875,145.625,-23.5,157.4375,0
1776974258.832,10.7667,-0.8715,0.7039,-0.6422,-0.0655,1.06,-91.95,-5.7,16.5,9.7659,1.8364,-0.1221,-0.3182,0.6957,0.368,-76.05,-2.4,7.2,-3.82,-2.96,-8.58,-0.5192,-0.3371,0.3425,28.0625,-5.375,36.875,145.75,-23.75,157.8125,0
1776974258.838,11.0588,0.7853,-0.0646,-0.1095,0.073,0.9025,-91.05,-7.5,13.5,9.7659,1.8364,-0.1221,-0.5281,0.7117,0.3898,-76.05,-2.4,7.2,-4.04,-2.91,-8.59,-0.5192,-0.3371,0.3425,28.0625,-5.375,36.875,145.8125,-24.0,158.125,0
1776974258.847,10.9822,2.308,0.0718,0.4746,0.2547,0.6904,-89.85,-7.65,15.45,9.7037,3.3926,0.2035,-0.3389,0.6837,0.4431,-75.45,-2.7,7.35,-4.28,-3.02,-8.66,-0.5192,-0.3665,0.3185,28.0625,-5.375,36.875,145.8125,-24.0,158.125,0
1776974258.857,10.1394,3.3806,0.7446,0.9499,0.3994,0.5092,-90.15,-8.4,15.45,9.8665,4.3048,0.5219,0.0861,0.663,0.5087,-75.45,-2.7,7.35,-4.51,-2.84,-8.98,-0.5029,-0.3916,0.2967,28.0625,-5.375,36.875,145.875,-24.3125,158.4375,0
1776974258.862,10.1394,3.3806,0.7446,0.9499,0.3994,0.5092,-90.15,-8.4,15.45,9.7755,4.039,1.4078,0.5798,0.5444,0.5577,-75.45,-2.7,7.35,-4.51,-2.84,-8.98,-0.5029,-0.3916,0.2967,28.0625,-5.375,36.875,145.9375,-24.5,158.75,0
1776974258.867,9.8402,4.0654,1.4461,1.0134,0.5039,0.3914,-89.7,-9.3,14.85,9.7755,4.039,1.4078,0.5798,0.5444,0.5577,-75.9,-3.45,8.1,-4.87,-2.71,-8.85,-0.4996,-0.3294,0.2531,28.0625,-7.5625,37.375,145.9375,-24.5,158.75,0
1776974258.872,9.8402,4.0654,1.4461,1.0134,0.5039,0.3914,-89.7,-9.3,14.85,9.7468,3.225,1.7166,0.9305,0.4658,0.578,-75.9,-3.45,8.1,-4.87,-2.71,-8.85,-0.4996,-0.3294,0.2531,28.0625,-7.5625,37.375,146.0,-24.6875,159.0,0
1776974258.877,9.3518,4.1492,2.3272,0.8474,0.4338,0.2843,-89.7,-9.3,14.85,9.7468,3.225,1.7166,0.9305,0.4658,0.578,-75.45,-1.05,9.6,-4.76,-2.64,-8.97,-0.3632,-0.2542,0.2116,28.0625,-7.5625,37.375,146.0,-24.6875,159.0,0
1776974258.885,9.3518,4.1492,2.3272,0.8474,0.4338,0.2843,-89.7,-9.3,14.85,9.6726,2.1979,1.9369,0.9928,0.4202,0.5628,-74.85,-3.3,10.05,-4.44,-3.08,-8.57,-0.2716,-0.2247,0.1614,28.0625,-7.5625,37.375,146.0,-24.8125,159.125,0
1776974258.89,9.0214,3.7014,2.9473,0.3579,0.6227,0.2427,-87.45,-8.25,15.6,9.4044,1.0511,1.7669,0.9928,0.4202,0.5628,-74.85,-3.3,10.05,-4.44,-3.08,-8.57,-0.2716,-0.2247,0.1614,28.0625,-7.5625,37.375,146.0,-24.9375,159.3125,0
1776974258.898,8.6646,2.6001,3.4309,0.004,0.5974,0.2595,-88.35,-7.95,14.4,9.4044,1.0511,1.7669,0.8082,0.4098,0.5103,-76.05,-2.85,10.05,-4.35,-3.09,-8.53,-0.2291,-0.1462,0.1178,28.0625,-7.5625,37.375,146.0625,-25.0,159.4375,0
1776974258.908,9.8378,1.9704,3.0382,0.0711,0.4783,0.3323,-86.7,-7.8,16.65,9.4068,0.3256,1.5682,0.5598,0.47,0.4799,-76.5,-3.6,8.7,-4.51,-3.12,-8.47,-0.2236,-0.108,0.096,28.0625,-7.5625,37.375,146.0625,-25.0,159.4375,0
1776974258.912,9.8378,1.9704,3.0382,0.0711,0.4783,0.3323,-86.7,-7.8,16.65,9.3853,0.2131,1.4964,0.2164,0.6019,0.4786,-76.5,-3.6,8.7,-4.51,-3.12,-8.47,-0.2236,-0.108,0.096,28.0625,-7.5625,37.375,146.0625,-25.0,159.4375,0
1776974258.917,9.8138,1.7119,2.7845,0.0392,0.5742,0.3922,-88.8,-7.95,16.5,9.3853,0.2131,1.4964,0.2164,0.6019,0.4786,-76.5,-4.05,10.8,-4.43,-3.09,-8.45,-0.1898,-0.0382,0.0676,28.5,-8.75,37.0,146.0625,-25.0625,159.5625,0
1776974258.922,9.8138,1.7119,2.7845,0.0392,0.5742,0.3922,-88.8,-7.95,16.5,9.7612,0.7254,1.0319,-0.1529,0.5982,0.485,-76.5,-4.05,10.8,-4.43,-3.09,-8.45,-0.1898,-0.0382,0.0676,28.5,-8.75,37.0,146.0625,-25.0625,159.5625,0
1776974258.927,8.7125,1.5443,2.411,0.0317,0.7871,0.4029,-88.8,-7.95,16.5,9.8928,1.585,0.8739,-0.1529,0.5982,0.485,-76.5,-4.05,10.8,-4.28,-2.95,-8.52,-0.1898,-0.0382,0.0676,28.5,-8.75,37.0,146.0625,-25.0625,159.6875,0
1776974258.932,8.7125,1.5443,2.411,0.0317,0.7871,0.4029,-88.8,-7.95,16.5,9.8928,1.585,0.8739,-0.4549,0.53,0.4756,-76.5,-4.05,10.8,-4.28,-2.95,-8.52,-0.1593,-0.0262,0.06,28.5,-8.75,37.0,146.0625,-25.125,159.75,0
1776974258.938,9.3901,1.3743,2.0566,0.1298,0.9699,0.3677,-88.8,-7.95,16.5,9.663,2.5474,0.5842,-0.5838,0.4389,0.4938,-75.3,-4.8,9.0,-4.2,-3.06,-8.46,-0.1593,-0.0262,0.06,28.5,-8.75,37.0,146.0625,-25.125,159.75,0
1776974258.947,9.6199,1.0558,1.8699,0.109,0.7759,0.319,-87.15,-5.25,17.7,9.4092,2.9377,0.6536,-0.5838,0.4389,0.4938,-75.3,-4.8,9.0,-4.18,-2.96,-8.45,-0.1254,-0.0338,0.0567,28.5,-8.75,37.0,146.0625,-25.125,159.875,0
1776974258.956,9.5313,1.0774,1.2857,0.1098,0.6803,0.2657,-87.6,-5.4,18.3,9.098,3.2585,0.2466,-0.6595,0.3968,0.5252,-75.9,-4.65,11.4,-4.14,-3.01,-8.33,-0.1331,-0.0251,0.0589,28.5,-8.75,37.0,146.125,-25.125,159.9375,0
1776974258.961,9.5313,1.0774,1.2857,0.1098,0.6803,0.2657,-87.6,-5.4,18.3,9.098,3.2585,0.2466,-0.6307,0.4042,0.5684,-75.9,-4.65,11.4,-4.14,-3.01,-8.33,-0.1331,-0.0251,0.0589,28.5,-8.75,37.0,146.125,-25.125,159.9375,0
1776974258.966,9.6438,0.486,0.8595,0.033,0.5588,0.215,-88.2,-5.55,20.55,8.8969,3.1173,0.1604,-0.6307,0.4042,0.5684,-76.5,-4.8,10.05,-4.18,-3.04,-8.36,-0.1484,-0.0065,0.0611,29.6875,-9.75,35.375,146.125,-25.1875,160.0,0
1776974258.971,9.6438,0.486,0.8595,0.033,0.5588,0.215,-88.2,-5.55,20.55,8.8969,3.1173,0.1604,-0.4812,0.4495,0.6289,-76.5,-4.8,10.05,-4.18,-3.04,-8.36,-0.1484,-0.0065,0.0611,29.6875,-9.75,35.375,146.125,-25.1875,160.0,0
1776974258.976,9.596,0.4429,0.6033,-0.215,0.5231,0.1759,-87.0,-4.2,19.35,9.1315,2.5331,0.4884,-0.4812,0.4495,0.6289,-74.7,-4.95,9.6,-4.12,-2.98,-8.35,-0.1484,-0.0065,0.0611,29.6875,-9.75,35.375,146.125,-25.1875,160.125,0
1776974258.981,9.596,0.4429,0.6033,-0.215,0.5231,0.1759,-87.0,-4.2,19.35,9.1315,2.5331,0.4884,-0.3672,0.485,0.6611,-74.7,-4.95,9.6,-4.12,-2.98,-8.35,-0.1484,-0.0065,0.0611,29.6875,-9.75,35.375,146.125,-25.1875,160.25,0
1776974258.988,9.5912,0.1915,-0.1772,-0.7056,0.7437,0.1199,-87.0,-4.2,19.35,9.4978,2.0039,0.5411,-0.2689,0.4242,0.6795,-76.05,-6.75,11.55,-4.13,-2.87,-8.41,-0.1647,-0.0022,0.0665,29.6875,-9.75,35.375,146.125,-25.1875,160.25,0
1776974258.996,9.4667,-0.6009,1.482,-0.5153,0.8164,-0.0059,-89.25,-3.3,20.55,9.6007,1.063,0.8045,-0.2334,0.3885,0.6848,-74.7,-6.15,10.65,-4.24,-2.82,-8.45,-0.1713,0.0065,0.0676,29.6875,-9.75,35.375,146.1875,-25.1875,160.375,0
1776974259.001,9.4667,-0.6009,1.482,-0.5153,0.8164,-0.0059,-89.25,-3.3,20.55,9.6007,1.063,0.8045,-0.2334,0.3885,0.6848,-74.7,-6.15,10.65,-4.24,-2.82,-8.45,-0.1713,0.0065,0.0676,29.6875,-9.75,35.375,146.1875,-25.1875,160.4375,0
1776974259.008,9.7995,0.1101,2.0566,-0.4469,0.4687,0.0421,-90.75,-3.0,22.8,9.335,0.9649,0.8547,-0.2388,0.385,0.6789,-74.7,-6.6,10.65,-4.2,-2.77,-8.43,-0.1713,0.0098,0.0644,29.6875,-9.75,35.375,146.1875,-25.1875,160.4375,0
1776974259.013,9.3589,0.2514,1.0726,-0.805,0.3107,0.0911,-91.5,-3.75,22.05,9.335,0.9649,0.8547,-0.2388,0.385,0.6789,-74.7,-6.6,10.65,-4.2,-2.77,-8.43,-0.168,0.0142,0.0578,29.0,-8.75,34.6875,146.1875,-25.1875,160.5625,0
1776974259.018,9.3589,0.2514,1.0726,-0.805,0.3107,0.0911,-91.5,-3.75,22.05,9.3111,0.6225,0.8499,-0.3717,0.4647,0.6787,-74.7,-6.6,10.65,-4.24,-2.79,-8.44,-0.168,0.0142,0.0578,29.0,-8.75,34.6875,146.1875,-25.1875,160.5625,0
1776974259.023,9.1459,0.1245,0.4764,-1.1407,0.3456,0.1005,-92.4,-2.7,21.45,9.3111,0.6225,0.8499,-0.3717,0.4647,0.6787,-74.7,-6.6,10.65,-4.24,-2.79,-8.44,-0.1854,0.036,0.0502,29.0,-8.75,34.6875,146.1875,-25.1875,160.6875,0
1776974259.028,9.1459,0.1245,0.4764,-1.1407,0.3456,0.1005,-92.4,-2.7,21.45,9.3853,0.6967,1.1947,-0.5247,0.4866,0.6648,-74.7,-6.9,10.65,-3.98,-2.8,-8.44,-0.1854,0.036,0.0502,29.0,-8.75,34.6875,146.1875,-25.1875,160.6875,0
1776974259.033,9.2153,0.1293,0.2274,-1.2742,0.4972,0.0845,-92.4,-2.7,21.45,9.3853,0.6967,1.1947,-0.5247,0.4866,0.6648,-74.7,-6.9,10.65,-3.98,-2.8,-8.44,-0.192,0.0382,0.0513,29.0,-8.75,34.6875,146.1875,-25.1875,160.8125,0
1776974259.038,9.2153,0.1293,0.2274,-1.2742,0.4972,0.0845,-92.4,-2.7,21.45,9.5002,0.6991,1.3503,-0.6707,0.4362,0.6265,-74.85,-6.75,10.5,-3.94,-2.91,-8.38,-0.192,0.0382,0.0513,29.0,-8.75,34.6875,146.1875,-25.1875,160.8125,0
1776974259.047,9.4547,0.2753,0.3304,-1.1423,0.5319,0.0322,-92.4,-2.7,21.45,9.5529,0.5938,1.1133,-0.7693,0.3667,0.611,-75.15,-7.35,10.65,-4.19,-2.95,-8.33,-0.1833,0.0109,0.06,29.0,-8.75,34.6875,146.1875,-25.1875,160.9375,0
1776974259.052,9.4739,0.4717,0.7877,-1.007,0.4951,0.0237,-92.4,-2.7,21.45,9.5529,0.5938,1.1133,-0.7693,0.3667,0.611,-75.15,-7.35,10.65,-4.19,-2.95,-8.33,-0.192,0.0164,0.0589,29.0,-8.75,34.6875,146.25,-25.1875,161.0625,0
1776974259.059,9.4739,0.4717,0.7877,-1.007,0.4951,0.0237,-93.3,-7.8,21.3,9.5792,0.7254,1.2019,-0.8903,0.3483,0.6286,-73.65,-6.9,10.65,-4.17,-2.82,-8.38,-0.192,0.0164,0.0589,29.0,-8.75,34.6875,146.25,-25.1875,161.0625,0
1776974259.064,9.3541,0.5938,1.3695,-0.8953,0.3365,0.0509,-92.55,-8.55,22.35,9.3494,0.7302,1.3192,-0.9931,0.3773,0.6438,-73.65,-6.9,10.65,-4.17,-2.82,-8.38,-0.192,0.0164,0.0589,29.6875,-10.1875,35.875,146.25,-25.1875,161.1875,0
1776974259.068,9.3541,0.5938,1.3695,-0.8953,0.3365,0.0509,-92.55,-8.55,22.35,9.3494,0.7302,1.3192,-0.9931,0.3773,0.6438,-74.1,-8.7,12.3,-4.29,-2.7,-8.41,-0.1985,0.036,0.0513,29.6875,-10.1875,35.875,146.25,-25.1875,161.1875,0
1776974259.073,9.2273,1.1133,1.9656,-0.8391,0.3347,0.0754,-94.05,-8.55,19.5,9.3972,1.142,1.087,-0.915,0.3493,0.6694,-74.1,-8.7,12.3,-4.29,-2.7,-8.41,-0.1985,0.036,0.0513,29.6875,-10.1875,35.875,146.25,-25.1875,161.3125,0
1776974259.078,9.2273,1.1133,1.9656,-0.8391,0.3347,0.0754,-94.05,-8.55,19.5,9.3972,1.142,1.087,-0.915,0.3493,0.6694,-75.15,-8.55,10.65,-4.1,-2.69,-8.53,-0.2094,-0.0305,0.0502,29.6875,-10.1875,35.875,146.25,-25.1875,161.3125,0
1776974259.083,9.3158,1.4413,2.1979,-0.8287,0.3837,0.0999,-93.0,-7.8,20.55,9.6007,1.2163,1.2067,-0.8732,0.3608,0.6648,-75.15,-8.55,10.65,-4.1,-2.69,-8.53,-0.2062,0.0295,0.0393,29.6875,-10.1875,35.875,146.25,-25.1875,161.4375,0
1776974259.089,9.1482,1.8124,2.296,-0.7749,0.3416,0.126,-93.0,-7.8,20.55,9.6007,1.2163,1.2067,-0.8732,0.3608,0.6648,-75.15,-8.55,10.65,-4.29,-2.82,-8.44,-0.2062,0.0295,0.0393,29.6875,-10.1875,35.875,146.25,-25.1875,161.4375,0
1776974259.097,9.1482,1.8124,2.296,-0.7749,0.3416,0.126,-93.0,-7.8,20.55,9.5936,1.3599,1.3958,-0.7131,0.328,0.667,-74.1,-8.4,10.8,-4.09,-2.82,-8.39,-0.2007,0.0153,0.0382,29.6875,-10.1875,35.875,146.25,-25.1875,161.5625,0
1776974259.102,8.9902,2.1524,2.5977,-0.7514,0.3293,0.1551,-92.25,-10.8,20.55,9.6079,1.2594,1.0343,-0.5287,0.3032,0.6518,-74.1,-8.4,10.8,-4.09,-2.82,-8.39,-0.2018,0.0076,0.0393,29.6875,-10.1875,35.875,146.25,-25.1875,161.6875,0
1776974259.109,8.8753,2.2577,2.7246,-0.7589,0.3304,0.1887,-92.25,-10.8,20.55,9.6079,1.2594,1.0343,-0.5287,0.3032,0.6518,-74.1,-8.4,10.8,-4.14,-2.92,-8.39,-0.2018,0.0076,0.0393,29.6875,-10.1875,35.875,146.25,-25.1875,161.6875,0
1776974259.113,8.8753,2.2577,2.7246,-0.7589,0.3304,0.1887,-92.4,-9.45,19.35,9.5217,1.2426,1.4078,-0.3413,0.3456,0.6368,-74.1,-8.4,10.8,-4.14,-2.92,-8.39,-0.204,-0.0087,0.0393,30.0625,-10.5,36.25,146.25,-25.1875,161.8125,0
1776974259.119,8.9807,2.4397,2.6839,-0.733,0.38,0.231,-92.4,-9.45,19.35,9.5217,1.2426,1.4078,-0.3413,0.3456,0.6368,-74.1,-9.9,12.0,-4.22,-2.83,-8.38,-0.204,-0.0087,0.0393,30.0625,-10.5,36.25,146.25,-25.1875,161.8125,0
1776974259.123,8.9807,2.4397,2.6839,-0.733,0.38,0.231,-90.9,-9.45,20.4,9.4403,1.154,1.6137,-0.1927,0.3872,0.631,-74.1,-9.9,12.0,-4.22,-2.83,-8.38,-0.2029,-0.012,0.0327,30.0625,-10.5,36.25,146.1875,-25.25,161.9375,0
1776974259.128,8.9447,2.2505,2.4636,-0.6632,0.4229,0.2521,-90.9,-9.45,20.4,9.4403,1.154,1.6137,-0.1927,0.3872,0.631,-73.35,-9.45,10.5,-4.11,-2.75,-8.48,-0.2029,-0.012,0.0327,30.0625,-10.5,36.25,146.1875,-25.25,161.9375,0
1776974259.133,8.9447,2.2505,2.4636,-0.6632,0.4229,0.2521,-90.15,-10.2,20.7,9.4739,1.1899,1.7909,-0.0954,0.3741,0.6161,-73.35,-9.45,10.5,-4.11,-2.75,-8.48,-0.2051,-0.0218,0.0305,30.0625,-10.5,36.25,146.1875,-25.25,162.0625,0
1776974259.139,8.9088,2.15,2.1117,-0.6166,0.4109,0.2862,-90.15,-10.2,20.7,9.5098,0.9146,1.7597,-0.0954,0.3741,0.6161,-73.05,-9.45,10.8,-4.07,-2.88,-8.37,-0.2051,-0.0218,0.0305,30.0625,-10.5,36.25,146.1875,-25.25,162.0625,0
1776974259.148,8.7867,2.138,1.9225,-0.5737,0.3499,0.3251,-90.15,-10.2,20.7,9.5098,0.9146,1.7597,-0.0514,0.393,0.6147,-73.2,-10.95,12.45,-4.05,-2.9,-8.4,-0.2083,-0.036,0.0393,30.0625,-10.5,36.25,146.1875,-25.25,162.1875,0
1776974259.153,8.7867,2.138,1.9225,-0.5737,0.3499,0.3251,-91.05,-12.75,21.0,9.5241,0.7709,1.5945,-0.052,0.3933,0.6089,-73.2,-10.95,12.45,-4.05,-2.9,-8.4,-0.2105,-0.0469,0.0491,30.0625,-10.5,36.25,146.1875,-25.3125,162.3125,0
1776974259.159,8.9232,1.992,2.0877,-0.4735,0.3632,0.3509,-91.05,-12.75,21.0,9.4906,0.5243,1.4653,-0.0773,0.3896,0.5894,-72.9,-12.0,12.45,-4.01,-2.95,-8.29,-0.2105,-0.0469,0.0491,30.0625,-10.5,36.25,146.1875,-25.3125,162.3125,0
1776974259.164,8.9232,1.992,2.0877,-0.4735,0.3632,0.3509,-91.35,-12.45,22.2,9.4906,0.5243,1.4653,-0.0773,0.3896,0.5894,-72.9,-12.0,12.45,-4.11,-2.9,-8.41,-0.2138,-0.0578,0.0654,29.375,-10.5,35.875,146.1875,-25.3125,162.375,0
1776974259.169,9.0381,1.7813,2.0039,-0.2667,0.3477,0.3624,-91.35,-12.45,22.2,9.5505,0.0886,1.5969,-0.1514,0.4096,0.6094,-72.6,-11.1,12.75,-4.11,-2.9,-8.41,-0.2138,-0.0578,0.0654,29.375,-10.5,35.875,146.1875,-25.3125,162.375,0
1776974259.174,9.0381,1.7813,2.0039,-0.2667,0.3477,0.3624,-90.75,-12.3,21.0,9.5505,0.0886,1.5969,-0.1514,0.4096,0.6094,-72.6,-11.1,12.75,-4.11,-2.9,-8.41,-0.2138,-0.0578,0.0654,29.375,-10.5,35.875,146.1875,-25.375,162.5,0
1776974259.179,8.3151,1.5131,1.9585,-0.1514,0.4029,0.376,-90.75,-12.3,21.0,9.3757,0.1556,0.9816,-0.2545,0.4266,0.6326,-72.6,-11.1,12.75,-4.19,-2.76,-8.4,-0.2203,-0.0687,0.0742,29.375,-10.5,35.875,146.1875,-25.375,162.5,0
1776974259.184,8.3151,1.5131,1.9585,-0.1514,0.4029,0.376,-90.6,-11.7,20.1,9.3757,0.1556,0.9816,-0.2545,0.4266,0.6326,-72.6,-11.1,12.75,-4.19,-2.76,-8.4,-0.2171,-0.0665,0.0764,29.375,-10.5,35.875,146.1875,-25.4375,162.6875,0
1776974259.189,9.2344,1.4126,1.6688,-0.0645,0.4628,0.3858,-90.6,-11.7,20.1,9.517,0.4118,0.972,-0.3355,0.4381,0.6315,-72.6,-11.85,12.0,-4.17,-2.69,-8.5,-0.2171,-0.0665,0.0764,29.375,-10.5,35.875,146.1875,-25.4375,162.6875,0
1776974259.198,9.4763,1.1684,1.4796,-0.0288,0.4754,0.3872,-89.25,-12.75,21.3,9.3805,0.8667,0.9505,-0.3837,0.4591,0.6422,-72.6,-11.85,12.0,-4.26,-2.6,-8.56,-0.2073,-0.0556,0.0774,29.375,-10.5,35.875,146.1875,-25.4375,162.8125,0
1776974259.208,9.2368,1.0319,1.336,-0.0051,0.3512,0.3848,-89.25,-12.75,21.3,9.3589,0.9361,0.972,-0.3728,0.4791,0.6534,-73.35,-12.3,13.5,-4.26,-2.47,-8.61,-0.1942,-0.0491,0.0764,29.375,-10.5,35.875,146.25,-25.5,162.9375,0
1776974259.213,9.2368,1.0319,1.336,-0.0051,0.3512,0.3848,-90.0,-13.5,21.6,9.3589,0.9361,0.972,-0.3728,0.4791,0.6534,-73.35,-12.3,13.5,-4.26,-2.47,-8.61,-0.1942,-0.0491,0.0764,29.375,-10.5,35.875,146.25,-25.5,162.9375,0
1776974259.218,9.4188,0.9457,1.1684,-0.0637,0.1553,0.389,-90.0,-13.5,21.6,9.2392,0.8547,1.1588,-0.3451,0.6073,0.6757,-73.35,-13.05,12.3,-4.15,-2.63,-8.49,-0.1778,-0.0491,0.0742,29.0,-10.75,36.25,146.25,-25.5625,163.0,0
1776974259.223,9.4188,0.9457,1.1684,-0.0637,0.1553,0.389,-88.35,-12.9,22.5,9.2392,0.8547,1.1588,-0.3451,0.6073,0.6757,-73.35,-13.05,12.3,-4.15,-2.63,-8.49,-0.1778,-0.0491,0.0742,29.0,-10.75,36.25,146.25,-25.5625,163.0,0
1776974259.228,8.8633,0.9529,1.4246,-0.1692,0.3195,0.384,-88.35,-12.9,22.5,9.8928,0.5387,1.494,-0.3744,0.587,0.672,-73.2,-15.15,12.9,-3.92,-2.86,-8.41,-0.1745,-0.0556,0.0829,29.0,-10.75,36.25,146.25,-25.5625,163.125,0
1776974259.232,8.8633,0.9529,1.4246,-0.1692,0.3195,0.384,-90.45,-15.3,22.05,9.8928,0.5387,1.494,-0.3744,0.587,0.672,-73.2,-15.15,12.9,-3.92,-2.86,-8.41,-0.1822,-0.0742,0.1069,29.0,-10.75,36.25,146.3125,-25.625,163.25,0
1776974259.239,9.2392,0.7997,1.2594,-0.2936,0.3693,0.401,-90.45,-15.3,22.05,9.9551,0.1341,1.5634,-0.2955,0.5036,0.6611,-71.1,-13.8,13.8,-3.9,-3.01,-8.37,-0.1822,-0.0742,0.1069,29.0,-10.75,36.25,146.3125,-25.625,163.25,0
1776974259.248,9.5146,0.7901,1.4605,-0.4533,0.4085,0.4157,-88.5,-12.0,22.35,9.7372,-0.3017,2.1811,-0.239,0.4684,0.6819,-71.85,-13.8,14.25,-4.17,-2.64,-8.44,-0.1865,-0.0884,0.1331,29.0,-10.75,36.25,146.3125,-25.6875,163.375,0
1776974259.253,9.5146,0.7901,1.4605,-0.6009,0.4679,0.4373,-88.5,-12.0,22.35,9.7372,-0.3017,2.1811,-0.239,0.4684,0.6819,-71.85,-13.8,14.25,-4.17,-2.64,-8.44,-0.1854,-0.0894,0.1418,29.0,-10.75,36.25,146.375,-25.75,163.5,0
1776974259.259,9.347,0.5267,1.6759,-0.6009,0.4679,0.4373,-88.5,-12.0,22.35,9.6941,-0.5531,2.1811,-0.2515,0.4746,0.6976,-71.85,-14.55,13.5,-4.22,-2.41,-8.58,-0.1854,-0.0894,0.1418,29.0,-10.75,36.25,146.375,-25.75,163.5,0
1776974259.264,9.3757,0.3855,2.0135,-0.7301,0.4938,0.4594,-87.9,-12.3,23.1,9.7109,-0.51,1.913,-0.2515,0.4746,0.6976,-71.85,-14.55,13.5,-4.22,-2.41,-8.58,-0.1854,-0.0894,0.1418,29.375,-11.5625,34.6875,146.4375,-25.8125,163.625,0
1776974259.269,9.3757,0.3855,2.0135,-0.7301,0.4938,0.4594,-87.9,-12.75,22.8,9.7109,-0.51,1.913,-0.2494,0.4559,0.6835,-71.85,-14.55,13.5,-4.2,-2.54,-8.56,-0.1636,-0.0982,0.1396,29.375,-11.5625,34.6875,146.4375,-25.8125,163.625,0
1776974259.274,9.0836,0.4022,2.2673,-0.7978,0.5204,0.4759,-87.9,-12.75,22.8,9.5289,-0.5363,1.9249,-0.2494,0.4559,0.6835,-71.85,-14.55,13.5,-4.2,-2.54,-8.56,-0.1636,-0.0982,0.1396,29.375,-11.5625,34.6875,146.4375,-25.875,163.75,0
1776974259.279,9.0836,0.4022,2.2673,-0.7978,0.5204,0.4759,-87.45,-14.55,22.05,9.5289,-0.5363,1.9249,-0.275,0.4362,0.7,-72.0,-15.15,14.4,-4.32,-2.27,-8.7,-0.1527,-0.1058,0.1374,29.375,-11.5625,34.6875,146.4375,-25.875,163.75,0
1776974259.287,8.8322,0.589,2.3152,-0.7749,0.5009,0.489,-87.45,-14.55,22.05,9.3877,-0.1341,1.7166,-0.373,0.4469,0.7205,-72.0,-15.15,14.4,-4.42,-2.22,-8.67,-0.1353,-0.1113,0.1211,29.375,-11.5625,34.6875,146.5,-26.0,163.8125,0
1776974259.294,9.0405,1.0391,2.2841,-0.6987,0.4498,0.5071,-88.05,-15.9,22.95,9.4044,1.3336,1.087,-0.3933,0.474,0.7402,-72.0,-15.15,14.4,-4.42,-2.22,-8.67,-0.1145,-0.1047,0.1069,29.375,-11.5625,34.6875,146.5625,-26.0625,163.875,0
1776974259.299,9.0405,1.0391,2.2841,-0.6987,0.4498,0.5071,-89.1,-15.45,23.25,9.4044,1.3336,1.087,-0.3933,0.474,0.7402,-71.1,-13.8,14.25,-4.29,-2.42,-8.48,-0.1145,-0.1047,0.1069,29.375,-11.5625,34.6875,146.5625,-26.125,164.0,0
1776974259.308,9.4068,1.7885,2.2146,-0.6344,0.4194,0.5063,-89.1,-15.45,23.25,9.6271,2.1213,1.6185,-0.4298,0.4812,0.7911,-71.25,-15.9,13.65,-4.57,-1.96,-8.85,-0.1014,-0.0938,0.096,29.375,-11.5625,34.6875,146.5625,-26.125,164.0,0
1776974259.313,9.3637,2.5474,2.1141,-0.5657,0.3845,0.49,-89.1,-15.45,23.25,9.7396,2.2721,1.4605,-0.3443,0.4517,0.8601,-71.25,-15.9,13.65,-4.57,-1.96,-8.85,-0.1014,-0.0938,0.096,29.375,-11.5625,34.6875,146.625,-26.1875,164.0625,0
1776974259.318,9.3637,2.5474,2.1141,-0.5657,0.3845,0.49,-87.0,-17.4,22.5,9.7396,2.2721,1.4605,-0.3443,0.4517,0.8601,-70.5,-15.6,14.4,-4.22,-2.23,-8.71,-0.0742,-0.0742,0.0709,30.0625,-12.6875,34.6875,146.625,-26.1875,164.0625,0
1776974259.323,8.6838,3.0885,2.138,-0.4876,0.3419,0.4719,-87.0,-17.4,22.5,9.6534,1.9345,1.506,-0.2411,0.4501,0.9276,-70.5,-15.6,14.4,-4.22,-2.23,-8.71,-0.0742,-0.0742,0.0709,30.0625,-12.6875,34.6875,146.625,-26.25,164.0625,0
1776974259.328,8.6838,3.0885,2.138,-0.4876,0.3419,0.4719,-86.55,-16.2,22.95,9.6534,1.9345,1.506,-0.2411,0.4501,0.9276,-70.5,-15.6,14.4,-4.29,-2.49,-8.66,-0.0513,-0.0851,0.0753,30.0625,-12.6875,34.6875,146.625,-26.25,164.0625,0
1776974259.333,8.9136,3.4261,2.2458,-0.5263,0.2758,0.4407,-86.55,-16.2,22.95,9.3925,1.4078,1.7478,-0.1945,0.47,0.9992,-71.1,-17.7,15.3,-4.29,-2.49,-8.66,-0.036,-0.0687,0.0807,30.0625,-12.6875,34.6875,146.6875,-26.25,164.125,0
1776974259.339,8.9136,3.4261,2.2458,-0.5263,0.2758,0.4407,-87.9,-16.05,22.35,9.3925,1.4078,1.7478,-0.1945,0.47,0.9992,-71.1,-17.7,15.3,-4.37,-2.34,-8.67,-0.036,-0.0687,0.0807,30.0625,-12.6875,34.6875,146.6875,-26.25,164.125,0
1776974259.348,9.0046,3.4141,2.8132,-0.5769,0.3608,0.3957,-87.15,-19.05,22.8,9.4643,0.929,1.8603,-0.1865,0.5276,1.0696,-71.1,-17.7,15.3,-4.26,-2.44,-8.7,-0.0229,-0.0633,0.0873,30.0625,-12.6875,34.6875,146.6875,-26.3125,164.125,0
1776974259.353,9.1411,3.0598,3.3495,-0.6238,0.3898,0.3435,-87.15,-19.05,22.8,9.5792,0.6871,2.1931,-0.2425,0.5452,1.1111,-69.6,-16.95,15.6,-4.26,-2.44,-8.7,-0.0098,-0.0807,0.0971,30.0625,-12.6875,34.6875,146.75,-26.375,164.1875,0
1776974259.359,9.5409,2.3583,3.5458,-0.5979,0.3762,0.2896,-87.15,-19.05,22.8,9.5792,0.6871,2.1931,-0.2425,0.5452,1.1111,-69.6,-16.95,15.6,-4.33,-2.45,-8.69,-0.0098,-0.0807,0.0971,30.0625,-12.6875,34.6875,146.75,-26.375,164.1875,0
1776974259.364,9.5409,2.3583,3.5458,-0.5979,0.3762,0.2896,-87.15,-19.05,22.8,9.7636,0.7063,2.0638,-0.2859,0.5801,1.1658,-69.6,-16.95,15.6,-4.33,-2.45,-8.69,-0.0098,-0.0807,0.0971,30.0625,-13.0,35.0625,146.8125,-26.4375,164.1875,0
1776974259.369,9.651,1.6544,3.4692,-0.489,0.2062,0.2457,-87.9,-17.25,23.1,9.7636,0.7063,2.0638,-0.2859,0.5801,1.1658,-69.45,-19.5,15.15,-4.24,-2.41,-8.85,0.0175,-0.0731,0.1058,30.0625,-13.0,35.0625,146.8125,-26.4375,164.1875,0
1776974259.374,9.651,1.6544,3.4692,-0.489,0.2062,0.2457,-87.9,-17.25,23.1,9.754,0.3807,2.1979,-0.3203,0.6483,1.2303,-69.45,-19.5,15.15,-4.24,-2.41,-8.85,0.0175,-0.0731,0.1058,30.0625,-13.0,35.0625,146.875,-26.5,164.1875,0
1776974259.379,9.3494,1.2977,3.2777,-0.4066,0.3427,0.2046,-86.4,-18.3,22.35,10.1634,-0.1413,2.49,-0.3203,0.6483,1.2303,-70.5,-19.95,15.15,-4.19,-2.5,-8.88,0.0535,-0.1004,0.1156,30.0625,-13.0,35.0625,146.875,-26.5,164.1875,0
1776974259.384,9.3494,1.2977,3.2777,-0.4066,0.3427,0.2046,-86.4,-18.3,22.35,10.1634,-0.1413,2.49,-0.3832,0.652,1.2724,-70.5,-19.95,15.15,-4.19,-2.5,-8.88,0.0938,-0.144,0.1233,30.0625,-13.0,35.0625,146.9375,-26.5625,164.1875,0
1776974259.389,10.5848,1.0989,2.7533,-0.3357,0.4343,0.1522,-86.7,-18.3,23.4,10.568,-0.0311,2.0423,-0.3832,0.652,1.2724,-70.35,-20.1,16.05,-4.11,-2.48,-9.01,0.0938,-0.144,0.1233,30.0625,-13.0,35.0625,147.0,-26.625,164.125,0
1776974259.398,11.0253,1.0343,2.7629,-0.17,0.1455,0.0922,-88.05,-17.4,22.5,10.7045,-0.2945,1.0367,-0.4434,0.6281,1.3233,-70.35,-20.1,16.05,-3.96,-2.25,-9.35,0.0982,-0.1909,0.0927,30.0625,-13.0,35.0625,147.0625,-26.8125,164.0,0
1776974259.408,10.5489,1.0367,2.7605,0.1018,-0.6475,0.0637,-86.55,-17.4,23.25,9.991,-0.6345,0.7614,-0.4434,0.6558,1.3888,-68.7,-20.25,16.65,-3.1,-2.07,-10.23,0.168,-0.2782,0.0927,30.0625,-13.0,35.0625,147.0625,-26.8125,164.0,0
1776974259.413,10.5489,1.0367,2.7605,0.1018,-0.6475,0.0637,-86.55,-17.4,23.25,9.991,-0.6345,0.7614,-0.4362,0.8463,1.4719,-68.7,-20.25,16.2,-3.1,-2.07,-10.23,0.168,-0.2782,0.0927,30.0625,-13.0,35.0625,147.125,-27.0625,163.875,0
1776974259.418,9.1435,1.3958,3.1699,-0.008,0.2467,0.0173,-86.55,-17.4,23.25,10.9152,0.0718,1.7047,-0.4722,0.7975,1.5164,-68.7,-20.25,16.2,-3.92,-2.87,-9.43,0.2705,-0.4538,0.1156,30.0625,-13.375,33.5,147.125,-27.0625,163.875,0
1776974259.423,9.1435,1.3958,3.1699,-0.008,0.2467,0.0173,-86.55,-17.4,23.25,10.9152,0.0718,1.7047,-0.4722,0.7975,1.5164,-67.95,-21.0,16.65,-3.92,-2.87,-9.43,0.2705,-0.4538,0.1156,30.0625,-13.375,33.5,147.1875,-27.4375,163.6875,0
1776974259.428,11.3892,1.9896,1.8747,-0.0584,-0.219,-0.0136,-85.5,-16.95,21.9,11.6478,0.8021,1.4126,-0.4066,0.76,1.5532,-67.95,-21.0,16.65,-3.35,-2.48,-10.28,0.3469,-0.589,0.1353,30.0625,-13.375,33.5,147.1875,-27.4375,163.6875,0
1776974259.433,11.3892,1.9896,1.8747,-0.0584,-0.219,-0.0136,-85.5,-16.95,21.9,11.6478,0.8021,1.4126,-0.4066,0.76,1.5532,-67.95,-21.0,16.65,-3.35,-2.48,-10.28,0.3905,-0.7919,0.1767,30.0625,-13.375,33.5,147.3125,-27.875,163.4375,0
