timestamp,thigh_acc_x,thigh_acc_y,thigh_acc_z,thigh_gyro_x,thigh_gyro_y,thigh_gyro_z,thigh_mag_x,thigh_mag_y,thigh_mag_z,shank_acc_x,shank_acc_y,shank_acc_z,shank_gyro_x,shank_gyro_y,shank_gyro_z,shank_mag_x,shank_mag_y,shank_mag_z,foot_acc_x,foot_acc_y,foot_acc_z,foot_gyro_x,foot_gyro_y,foot_gyro_z,foot_mag_x,foot_mag_y,foot_mag_z,foot_euler_x,foot_euler_y,foot_euler_z,perturbation_event
1776970419.835,9.4308,-1.7214,3.9863,1.4597,-3.4837,-2.3156,-21.3,-7.05,36.6,6.8331,-5.4492,0.5243,0.4743,-2.2335,-1.513,-68.4,-29.55,-18.6,14.28,2.18,-8.79,0.528,-4.3611,-1.5283,-26.0,2.5,21.6875,314.3125,51.3125,164.25,0
1776970419.84,9.1028,-1.5467,3.9313,1.8143,-3.411,-2.4219,-22.5,-6.75,34.2,6.8331,-5.4492,0.5243,0.6424,-2.4405,-1.4362,-68.4,-29.55,-18.6,14.28,2.18,-8.79,0.4854,-4.4146,-1.5326,-26.0,2.5,21.6875,313.5625,49.125,165.75,0
1776970419.846,9.1028,-1.5467,3.9313,1.8143,-3.411,-2.4219,-22.5,-6.75,34.2,6.6535,-6.1675,-0.5052,0.6891,-2.4666,-1.3909,-68.4,-29.55,-18.6,15.3,3.34,-7.74,0.4854,-4.4146,-1.5326,-26.0,2.5,21.6875,312.75,47.0,167.0,0
1776970419.855,8.3486,-2.229,4.2784,2.1626,-3.3356,-2.4712,-22.95,-6.15,33.9,6.4787,-5.7772,-0.5938,0.6891,-2.4666,-1.3909,-68.7,-28.95,-18.75,15.79,3.81,-7.43,0.516,-4.347,-1.5479,-26.0,2.5,21.6875,312.75,47.0,167.0,0
1776970419.865,8.7436,-3.158,4.7692,2.3667,-3.1858,-2.5074,-24.3,-5.25,32.7,6.7612,-6.2465,0.5219,0.5854,-2.2604,-1.4234,-68.7,-28.95,-18.75,16.03,3.87,-7.09,0.6294,-4.3273,-1.5828,-26.0,2.5,21.6875,311.6875,44.875,168.0625,0
1776970419.87,9.0022,-3.7493,4.6902,2.3057,-3.0622,-2.488,-24.15,-3.9,29.7,6.7612,-6.2465,0.5219,0.5854,-2.2604,-1.4234,-68.7,-28.95,-18.75,16.03,3.87,-7.09,0.6294,-4.3273,-1.5828,-26.0,2.5,21.6875,333.8125,42.625,169.0,0
1776970419.875,9.0022,-3.7493,4.6902,2.3057,-3.0622,-2.488,-24.15,-3.9,29.7,5.9089,-5.6862,-0.2658,0.5825,-2.1834,-1.4178,-68.4,-28.35,-21.15,15.38,2.02,-5.87,0.7592,-4.3699,-1.6482,-15.5625,-0.5,13.75,333.8125,42.625,169.0,0
1776970419.88,9.0932,-4.1132,4.4915,2.0576,-2.9564,-2.428,-24.15,-3.9,29.7,5.9089,-5.6862,-0.2658,0.5825,-2.1834,-1.4178,-68.4,-28.35,-21.15,15.38,2.02,-5.87,0.7592,-4.3699,-1.6482,-15.5625,-0.5,13.75,332.5,40.4375,169.75,0
1776970419.885,9.0932,-4.1132,4.4915,2.0576,-2.9564,-2.428,-24.15,-3.9,29.7,6.2584,-5.4947,0.0838,0.5119,-1.9193,-1.3054,-69.0,-28.05,-21.45,14.7,0.36,-5.01,0.7789,-4.4157,-1.717,-15.5625,-0.5,13.75,332.5,40.4375,169.75,0
1776970419.892,9.165,-3.9959,4.1659,1.7517,-2.8642,-2.3406,-24.75,-2.4,31.05,6.2584,-5.4947,0.0838,0.5119,-1.9193,-1.3054,-68.4,-27.45,-21.9,14.17,-1.01,-4.5,0.5923,-4.2979,-1.705,-15.5625,-0.5,13.75,331.25,38.25,170.5625,0
1776970419.897,9.019,-3.9313,3.9816,1.38,-2.7736,-2.2537,-25.65,-2.55,29.85,6.0166,-4.8483,-0.4022,0.4927,-1.7112,-1.1474,-68.4,-27.45,-21.9,14.17,-1.01,-4.5,0.5923,-4.2979,-1.705,-15.5625,-0.5,13.75,330.125,36.0625,171.25,0
1776970419.905,9.019,-3.9313,3.9816,1.38,-2.7736,-2.2537,-25.65,-2.55,29.85,6.1531,-4.1468,-0.7039,0.4551,-1.6228,-1.1519,-70.05,-26.7,-21.6,12.66,-2.95,-3.09,0.3403,-4.1888,-1.5544,-15.5625,-0.5,13.75,329.3125,34.0,171.9375,0
1776970419.915,8.7053,-3.5721,3.6152,0.9542,-2.6801,-2.1597,-27.0,-1.95,28.5,6.6367,-3.9959,0.3089,0.1463,-1.4138,-1.0866,-68.4,-26.4,-23.1,11.85,-3.39,-2.85,0.0829,-3.927,-1.2174,-15.5625,-0.5,13.75,329.3125,34.0,171.9375,0
1776970419.92,8.5329,-3.3543,3.2417,0.4493,-2.5975,-2.0696,-27.0,-1.95,28.2,6.6367,-3.9959,0.3089,0.1463,-1.4138,-1.0866,-68.4,-26.4,-23.1,11.85,-3.39,-2.85,0.0829,-3.927,-1.2174,-15.5625,-0.5,13.75,329.3125,34.0,171.9375,0
1776970419.925,8.5329,-3.3543,3.2417,0.4493,-2.5975,-2.0696,-27.9,-2.25,27.3,6.0358,-3.7685,-0.146,-0.1958,-1.3909,-1.2039,-69.75,-26.55,-24.3,11.6,-3.35,-3.0,-0.1353,-3.5659,-0.8312,-25.25,1.875,4.25,328.75,32.125,172.5,0
1776970419.93,8.5832,-2.8491,3.2226,0.0037,-2.5061,-1.9734,-27.9,-2.25,27.3,6.0358,-3.7685,-0.146,-0.1958,-1.3909,-1.2039,-69.75,-26.55,-24.3,11.6,-3.35,-3.0,-0.1353,-3.5659,-0.8312,-25.25,1.875,4.25,328.75,32.125,172.5,0
1776970419.935,8.5832,-2.8491,3.2226,0.0037,-2.5061,-1.9734,-27.9,-2.25,27.3,6.5338,-3.3255,0.6943,-0.7139,-1.4205,-1.2212,-69.75,-26.55,-24.3,12.03,-3.39,-2.37,-0.2411,-3.3096,-0.4429,-25.25,1.875,4.25,328.4375,30.3125,172.875,0
1776970419.94,8.2265,-2.4086,3.4069,-0.4189,-2.3979,-1.8964,-27.9,-2.25,27.3,6.5338,-3.3255,0.6943,-0.7139,-1.4205,-1.2212,-69.75,-26.55,-24.3,12.03,-3.39,-2.37,-0.3698,-2.9278,-0.0371,-25.25,1.875,4.25,328.375,28.75,173.25,0
1776970419.946,8.0349,-2.3104,3.1819,-0.7069,-2.2878,-1.8373,-28.05,-0.9,25.05,6.3686,-4.0175,-0.1221,-1.0651,-1.2769,-1.1735,-69.15,-26.7,-24.6,11.85,-2.91,-2.01,-0.3698,-2.9278,-0.0371,-25.25,1.875,4.25,328.5625,27.375,173.5,0
1776970419.955,8.0661,-2.0925,3.0095,-0.9081,-2.1477,-1.7946,-29.55,-0.9,24.3,6.4763,-3.7733,-0.1269,-1.2883,-1.0475,-1.092,-69.15,-26.7,-24.6,11.94,-3.04,-2.34,-0.504,-2.4336,0.3665,-25.25,1.875,4.25,329.0,26.1875,173.6875,0
1776970419.965,8.2552,-1.9561,3.2513,-1.0792,-2.0033,-1.7267,-30.6,0.15,21.9,6.7995,-3.6823,-0.5267,-1.4898,-1.0216,-0.9713,-70.05,-26.4,-26.1,12.09,-2.9,-2.84,-0.6316,-2.0889,0.7363,-25.25,1.875,4.25,329.0,26.1875,173.6875,0
1776970419.97,8.2552,-1.9561,3.2513,-1.0792,-2.0033,-1.7267,-30.6,0.15,21.9,6.4236,-3.5219,-1.0511,-1.4898,-1.0216,-0.9713,-70.05,-26.4,-26.1,12.09,-2.9,-2.84,-0.6316,-2.0889,0.7363,-25.25,1.875,4.25,329.0,26.1875,173.6875,0
1776970419.975,8.3055,-1.7621,3.3375,-1.2454,-1.8143,-1.6409,-28.95,-0.75,21.0,6.4236,-3.5219,-1.0511,-1.5884,-1.0195,-0.927,-69.6,-25.5,-27.15,12.32,-2.74,-2.5,-0.7079,-1.9079,1.0385,-48.6875,9.6875,18.6875,329.625,25.0625,173.875,0
1776970419.98,8.3055,-1.7621,3.3375,-1.2454,-1.8143,-1.6409,-28.95,-0.75,21.0,6.3686,-3.0454,-1.2067,-1.6955,-0.7221,-0.8471,-69.6,-25.5,-27.15,12.32,-2.74,-2.5,-0.7079,-1.9079,1.0385,-48.6875,9.6875,18.6875,329.625,25.0625,173.875,0
1776970419.985,8.2289,-1.8316,3.0765,-1.4181,-1.5948,-1.5364,-28.95,-0.75,21.0,6.3686,-3.0454,-1.2067,-1.6955,-0.7221,-0.8471,-69.0,-24.6,-27.75,12.35,-2.78,-2.54,-0.8345,-1.5446,1.1192,-48.6875,9.6875,18.6875,330.3125,24.125,174.0625,0
1776970419.994,7.5968,-1.7693,2.5067,-1.5998,-1.3619,-1.4474,-28.95,-0.75,21.0,6.1842,-2.9928,-1.6376,-1.7909,-0.3123,-0.733,-69.15,-25.5,-28.2,12.68,-2.51,-2.83,-1.0908,-1.1814,1.2108,-48.6875,9.6875,18.6875,331.0625,23.4375,174.4375,0
1776970419.999,7.5968,-1.7693,2.5067,-1.5998,-1.3619,-1.4474,-28.95,-0.75,21.0,6.11,-3.2082,-1.6783,-1.7909,-0.3123,-0.733,-69.15,-25.5,-28.2,12.68,-2.51,-2.83,-1.0908,-1.1814,1.2108,-48.6875,9.6875,18.6875,331.9375,22.75,174.875,0
1776970420.006,7.3215,-1.7406,2.2553,-1.7744,-1.0848,-1.364,-31.35,1.95,19.05,6.11,-3.2082,-1.6783,-1.7011,-0.0829,-0.712,-69.0,-25.35,-30.3,12.92,-2.46,-1.65,-1.3908,-1.0952,1.3352,-48.6875,9.6875,18.6875,332.875,22.125,175.5625,0
1776970420.016,7.0078,-1.2115,2.1093,-1.9319,-0.8402,-1.2305,-30.45,0.75,17.1,6.0693,-2.8204,-1.8124,-1.5745,0.0823,-0.5649,-70.05,-26.7,-29.7,12.77,-2.4,-0.99,-1.6952,-1.0079,1.4072,-48.6875,9.6875,18.6875,332.875,22.125,175.5625,0
1776970420.02,7.0078,-1.2115,2.1093,-1.9319,-0.8402,-1.2305,-30.45,0.75,17.1,6.3734,-2.7869,-2.2458,-1.4626,0.3698,-0.4692,-70.05,-26.7,-29.7,12.77,-2.4,-0.99,-1.6952,-1.0079,1.4072,-48.6875,9.6875,18.6875,333.875,21.5625,176.3125,0
1776970420.025,7.1084,-0.7087,2.241,-2.0478,-0.6123,-1.088,-32.1,1.65,17.25,6.3734,-2.7869,-2.2458,-1.4626,0.3698,-0.4692,-69.0,-24.15,-31.35,12.79,-2.41,-0.38,-1.9853,-0.8585,1.4432,-53.6875,21.0625,41.1875,333.875,21.5625,176.3125,0
1776970420.03,7.1084,-0.7087,2.241,-2.0478,-0.6123,-1.088,-32.1,1.65,17.25,6.7014,-2.7174,-1.7047,-1.3784,0.542,-0.3837,-69.0,-24.15,-31.35,12.79,-2.41,-0.38,-1.9853,-0.8585,1.4432,-53.6875,21.0625,41.1875,334.9375,21.1875,177.25,0
1776970420.035,7.4436,-0.2203,2.5666,-1.9838,-0.3821,-0.9262,-31.65,1.2,15.45,6.7014,-2.7174,-1.7047,-1.3784,0.542,-0.3837,-68.4,-25.5,-30.15,13.15,-2.52,0.03,-2.2395,-0.6785,1.4388,-53.6875,21.0625,41.1875,334.9375,21.1875,177.25,0
1776970420.042,7.8051,0.2538,2.411,-1.8367,-0.1479,-0.745,-31.65,1.2,15.45,7.3526,-2.0111,-0.7374,-1.3342,0.6107,-0.2625,-68.4,-25.5,-30.15,13.63,-1.68,-0.02,-2.4271,-0.5149,1.3897,-53.6875,21.0625,41.1875,335.9375,20.875,178.3125,0
1776970420.047,7.8051,0.2538,2.411,-1.8367,-0.1479,-0.745,-31.65,1.2,15.45,7.5178,-1.4389,0.2442,-1.3342,0.6107,-0.2625,-68.4,-25.5,-30.15,13.63,-1.68,-0.02,-2.4271,-0.5149,1.3897,-53.6875,21.0625,41.1875,336.875,20.5625,179.375,0
1776970420.056,8.2241,0.6057,2.545,-1.6582,0.0941,-0.5369,-33.6,3.15,15.75,7.5178,-1.4389,0.2442,-1.2652,0.7248,-0.1463,-70.2,-24.15,-31.8,13.34,-1.0,0.07,-2.4249,-0.4385,1.3232,-53.6875,21.0625,41.1875,337.8125,20.375,-179.5625,0
1776970420.066,8.3821,0.6345,1.8866,-1.5332,0.3667,-0.3123,-32.1,3.15,15.75,7.5753,0.6201,-1.2091,-1.1583,0.7861,-0.1495,-70.2,-24.15,-31.8,13.16,-0.52,0.28,-2.1915,-0.3545,1.2315,-53.6875,21.0625,41.1875,337.8125,20.375,-179.5625,0
1776970420.071,8.3821,0.6345,1.8866,-1.3699,0.6331,-0.0738,-32.1,3.15,15.75,7.5753,0.6201,-1.2091,-0.9081,0.8671,-0.0413,-70.2,-24.15,-31.8,13.16,-0.52,0.28,-2.1915,-0.3545,1.2315,-53.6875,21.0625,41.1875,337.8125,20.375,-179.5625,0
1776970420.076,8.2863,0.2227,1.1636,-1.3699,0.6331,-0.0738,-33.0,2.25,15.9,7.8171,1.5036,-1.64,-0.9081,0.8671,-0.0413,-68.85,-24.75,-32.4,13.78,-0.01,-0.08,-1.8359,-0.1953,1.0636,-49.1875,25.25,57.25,338.5625,20.3125,-178.75,0
1776970420.081,8.0613,3.0957,2.1213,-1.0738,0.9049,0.0759,-33.0,2.25,15.9,7.8171,1.5036,-1.64,-0.7011,0.9028,0.2185,-68.85,-24.75,-32.4,13.78,-0.01,-0.08,-1.8359,-0.1953,1.0636,-49.1875,25.25,57.25,338.5625,20.3125,-178.75,0
1776970420.086,8.0613,3.0957,2.1213,-1.0738,0.9049,0.0759,-33.9,3.9,15.75,7.6686,1.4413,-2.2075,-0.7011,0.9028,0.2185,-71.1,-25.5,-33.45,12.46,5.84,-3.38,-1.4388,-0.0502,0.8007,-49.1875,25.25,57.25,339.1875,20.25,-178.125,0
1776970420.094,8.9352,3.1292,-1.8986,-1.3872,1.4986,0.3299,-34.5,1.5,15.9,7.6686,1.4413,-2.2075,-0.4183,0.9947,0.3627,-70.35,-25.5,-31.95,17.24,18.75,0.7,1.5021,0.48,0.7199,-49.1875,25.25,57.25,339.4375,20.5625,-179.125,0
1776970420.099,8.9352,3.1292,-1.8986,-1.3872,1.4986,0.3299,-34.5,1.5,15.9,8.6694,1.8364,-2.059,-0.0133,1.2518,0.3754,-70.35,-25.5,-31.95,17.24,18.75,0.7,1.5021,0.48,0.7199,-49.1875,25.25,57.25,340.0625,21.5625,177.9375,0
1776970420.106,12.1625,12.0261,-0.6057,-0.3064,1.3702,0.3459,-34.5,1.5,15.9,11.9327,2.897,-2.2793,0.1751,1.2654,0.4887,-70.95,-24.6,-31.35,10.55,-7.76,-0.03,4.4451,1.885,1.9439,-49.1875,25.25,57.25,341.9375,23.75,175.6875,0
1776970420.116,26.5565,10.5584,-28.4718,-1.8359,1.6196,0.1607,-34.5,3.75,15.9,17.5351,0.7542,-4.6208,0.1263,1.3435,0.4146,-71.7,-27.75,-31.05,-12.08,-21.2,-30.26,2.33,4.0644,3.7775,-49.1875,25.25,57.25,341.9375,23.75,175.6875,0
1776970420.121,29.0656,3.3088,-11.9088,3.6495,-0.373,-0.0893,-34.5,3.75,15.9,17.5351,0.7542,-4.6208,0.1263,1.3435,0.4146,-71.7,-27.75,-31.05,-12.08,-21.2,-30.26,2.33,4.0644,3.7775,-45.75,23.5,66.0,343.125,27.3125,174.8125,0
1776970420.126,29.0656,3.3088,-11.9088,3.6495,-0.373,-0.0893,-36.6,1.8,16.65,23.8391,-2.6073,-12.4427,0.9816,1.7059,0.4413,-73.35,-27.9,-30.9,19.48,-20.82,-22.12,0.3927,6.7119,2.018,-45.75,23.5,66.0,343.125,27.3125,174.8125,0
1776970420.13,15.6677,4.4412,-3.7493,5.7964,0.866,0.0869,-36.6,1.8,16.65,23.8391,-2.6073,-12.4427,0.9816,1.7059,0.4413,-73.35,-27.9,-30.9,19.48,-20.82,-22.12,0.3927,6.7119,2.018,-45.75,23.5,66.0,343.375,29.3125,173.125,0
1776970420.136,15.6677,4.4412,-3.7493,5.7964,0.866,0.0869,-36.6,1.5,17.4,26.1758,-6.1339,-22.0003,3.2061,1.4533,0.8879,-73.35,-27.9,-30.9,6.73,-21.33,-17.07,2.3638,3.6772,0.8443,-45.75,23.5,66.0,343.375,29.3125,173.125,0
1776970420.14,9.1411,-6.754,0.814,5.3388,2.0797,0.2771,-36.6,1.5,17.4,26.1758,-6.1339,-22.0003,3.2061,1.4533,0.8879,-73.35,-27.9,-30.9,6.73,-21.33,-17.07,0.9228,-0.036,1.7541,-45.75,23.5,66.0,344.25,29.1875,172.0625,0
1776970420.146,9.1411,-6.754,0.814,5.3388,2.0797,0.2771,-35.55,0.75,18.75,17.9158,-0.2777,-23.5661,5.8473,0.263,-0.4794,-71.1,-29.1,-28.65,13.21,5.95,-2.33,0.9228,-0.036,1.7541,-45.75,23.5,66.0,344.6875,30.5625,171.6875,0
1776970420.156,7.9607,-6.1268,-0.249,3.4512,2.2226,0.5297,-36.6,-0.75,21.0,8.0756,0.1269,1.7047,4.2834,-1.015,-0.295,-71.1,-29.1,-28.65,9.56,-2.06,-16.98,0.048,2.6889,0.7134,-45.75,23.5,66.0,344.6875,30.5625,171.6875,0
1776970420.166,6.8761,-7.4915,2.6624,1.7826,1.671,0.6715,-36.6,-0.75,21.0,4.2114,-6.7971,-2.7845,4.1163,-0.2806,-0.2427,-70.95,-29.25,-26.55,8.69,-9.74,-10.76,0.4276,1.729,-0.0305,-45.75,23.5,66.0,344.6875,31.5625,171.375,0
1776970420.171,7.7285,0.6129,2.0806,1.3803,1.6108,0.595,-36.6,-0.75,21.0,4.2114,-6.7971,-2.7845,4.1163,-0.2806,-0.2427,-70.95,-29.25,-26.55,8.69,-9.74,-10.76,0.4276,1.729,-0.0305,-45.75,23.5,66.0,344.6875,31.5625,171.375,0
1776970420.176,7.7285,0.6129,2.0806,1.3803,1.6108,0.595,-37.65,-2.55,22.05,4.4819,-9.754,0.0838,3.5373,0.372,-0.0349,-70.95,-31.2,-27.0,3.67,-1.36,-5.88,0.5367,-0.1276,0.0894,-55.6875,33.75,57.6875,344.625,31.4375,171.0625,0
1776970420.18,7.8673,4.7477,3.5841,1.5556,1.6315,0.3509,-37.65,-2.55,22.05,4.4819,-9.754,0.0838,3.5373,0.372,-0.0349,-70.95,-31.2,-27.0,3.67,-1.36,-5.88,0.5367,-0.1276,0.0894,-55.6875,33.75,57.6875,344.625,31.4375,171.0625,0
1776970420.186,7.8673,4.7477,3.5841,1.5556,1.6315,0.3509,-37.2,-1.65,23.25,8.0541,-6.4572,3.5434,3.4518,0.1753,0.5764,-71.1,-32.25,-24.15,6.82,1.7,-9.31,0.1374,1.4748,0.0742,-55.6875,33.75,57.6875,344.75,32.25,170.875,0
1776970420.193,9.7348,3.4046,5.4372,2.063,1.4858,0.4391,-38.1,-3.75,24.45,9.8737,-2.8276,10.6781,3.075,0.651,0.526,-71.1,-32.25,-24.15,8.05,-1.59,-9.52,-0.0229,1.5217,-0.0273,-55.6875,33.75,57.6875,344.75,33.125,170.8125,0
1776970420.198,11.1666,-0.6847,5.3822,1.772,1.4146,0.5265,-38.1,-3.75,24.45,9.8737,-2.8276,10.6781,3.075,0.651,0.526,-70.95,-32.85,-22.5,8.05,-1.59,-9.52,-0.0229,1.5217,-0.0273,-55.6875,33.75,57.6875,344.8125,33.5625,170.75,0
1776970420.206,11.1666,-0.6847,5.3822,1.3552,1.0661,0.1077,-37.5,-3.45,25.8,9.7324,-0.5076,12.208,2.0701,1.2369,0.6387,-70.05,-33.45,-22.35,5.98,0.29,-8.39,0.0502,0.8378,0.0404,-55.6875,33.75,57.6875,344.875,33.875,170.625,0
1776970420.216,9.6223,-1.5251,2.9281,0.408,0.7663,-0.3365,-37.5,-3.45,25.8,10.1227,-6.8307,4.6495,0.8002,0.915,0.2577,-71.7,-33.6,-21.75,6.08,-0.44,-7.73,0.0589,0.6141,0.0513,-55.6875,33.75,57.6875,344.875,33.875,170.625,0
1776970420.221,10.0652,-4.5274,2.0207,0.408,0.7663,-0.3365,-37.5,-3.45,25.8,6.8139,-9.1339,-0.0287,-0.3984,0.227,0.0131,-71.7,-33.6,-21.75,6.08,-0.44,-7.73,0.0589,0.6141,0.0513,-55.6875,33.75,57.6875,344.875,34.1875,170.625,0
1776970420.225,10.0652,-4.5274,2.0207,-1.6049,0.3882,-0.2843,-37.5,-3.45,25.8,6.8139,-9.1339,-0.0287,-0.3984,0.227,0.0131,-71.7,-33.6,-21.75,5.69,-1.42,-8.03,0.0087,0.504,0.0,-58.0625,36.5625,55.0,344.875,34.1875,170.625,0
1776970420.23,10.5824,-7.0198,1.4676,-1.6049,0.3882,-0.2843,-38.1,-2.55,26.7,5.4564,-8.4683,-2.5953,-2.2303,0.7589,0.1511,-71.7,-33.6,-21.75,5.69,-1.42,-8.03,0.0087,0.504,0.0,-58.0625,36.5625,55.0,344.875,34.1875,170.625,0
1776970420.235,10.1299,-5.8012,1.7334,-3.6031,0.2406,0.0211,-38.1,-2.55,26.7,5.4564,-8.4683,-2.5953,-2.2303,0.7589,0.1511,-70.95,-34.35,-21.75,5.55,-0.91,-8.32,-0.1058,0.4821,0.0284,-58.0625,36.5625,55.0,344.9375,34.4375,170.625,0
1776970420.24,10.1299,-5.8012,1.7334,-3.6031,0.2406,0.0211,-36.0,-3.15,26.4,6.2058,-6.9839,-0.7542,-3.1325,1.5652,0.7789,-70.95,-34.35,-21.75,5.55,-0.91,-8.32,-0.0644,0.4832,0.0196,-58.0625,36.5625,55.0,345.0,34.6875,170.625,0
1776970420.246,10.0461,-3.0095,1.4964,-4.4926,0.2571,0.4517,-36.0,-3.15,26.4,6.2058,-6.9839,-0.7542,-3.1325,1.5652,0.7789,-70.95,-34.35,-21.75,5.77,-1.42,-7.85,-0.0644,0.4832,0.0196,-58.0625,36.5625,55.0,345.0,35.0,170.625,0
1776970420.256,11.1067,2.1883,1.0127,-4.6423,0.4085,0.789,-38.25,-3.45,23.55,8.8226,-3.6344,-0.1796,-3.8256,0.7171,1.1807,-69.6,-33.75,-24.6,6.9,-1.54,-7.58,-0.0153,0.5171,-0.0022,-58.0625,36.5625,55.0,345.0625,35.125,170.5625,0
1776970420.266,10.173,7.9607,-0.5171,-3.5378,0.4447,0.8479,-38.55,-4.2,23.55,8.5497,-2.7126,-0.4669,-4.0849,0.8673,1.2785,-69.75,-34.35,-26.25,7.4,-0.97,-7.54,0.0011,0.2738,0.0753,-58.0625,36.5625,55.0,345.0625,35.125,170.5625,0
1776970420.271,10.173,7.9607,-0.5171,-3.5378,0.4447,0.8479,-38.55,-4.2,23.55,6.9432,-2.739,-0.6273,-4.038,1.882,1.0909,-69.75,-34.35,-26.25,7.4,-0.97,-7.54,0.0011,0.2738,0.0753,-58.0625,36.5625,55.0,345.125,35.125,170.5,0
1776970420.276,9.0812,13.4003,-2.3966,-1.5679,0.5612,0.6845,-38.55,-4.2,23.55,6.9432,-2.739,-0.6273,-4.038,1.882,1.0909,-70.35,-33.0,-25.35,5.9,-1.55,-7.93,0.0022,0.0207,0.0927,-60.1875,36.875,52.75,345.125,35.125,170.5,0
1776970420.281,9.0812,13.4003,-2.3966,-1.5679,0.5612,0.6845,-37.5,-3.15,23.55,11.0804,1.2809,-0.9385,-2.8162,1.6689,0.5279,-70.35,-33.0,-25.35,5.9,-1.55,-7.93,0.0022,0.0207,0.0927,-60.1875,36.875,52.75,345.125,35.125,170.5,0
1776970420.286,7.2784,14.0827,-2.1572,0.2054,0.6358,0.3659,-37.5,-3.15,23.55,11.0804,1.2809,-0.9385,-2.8162,1.6689,0.5279,-70.5,-34.35,-26.25,5.86,-1.03,-7.84,-0.0404,0.0949,0.0098,-60.1875,36.875,52.75,345.125,35.1875,170.5625,0
1776970420.295,7.6495,9.9096,-0.1293,1.5481,0.8612,0.1098,-37.2,-4.65,22.95,14.2886,5.8754,-1.3791,-1.2697,0.8487,0.0687,-70.35,-33.45,-27.15,6.12,-1.0,-7.82,-0.2029,0.1887,-0.0262,-60.1875,36.875,52.75,345.125,35.25,170.625,0
1776970420.299,7.6495,9.9096,-0.1293,1.5481,0.8612,0.1098,-35.55,-4.5,24.15,13.2591,8.4204,0.1987,0.0592,0.7045,-0.3736,-70.35,-33.45,-27.15,6.12,-1.0,-7.82,-0.2029,0.1887,-0.0262,-60.1875,36.875,52.75,345.25,35.4375,170.875,0
1776970420.306,8.6766,5.3798,0.1652,2.0917,0.923,0.0338,-35.55,-4.5,24.15,13.0843,8.0134,-0.2682,0.0592,0.7045,-0.3736,-70.2,-34.35,-26.55,5.68,-0.9,-7.74,-0.4178,0.3436,0.0207,-60.1875,36.875,52.75,345.375,35.75,171.125,0
1776970420.316,9.9144,1.5371,0.2682,2.1328,0.8873,0.0634,-37.5,-5.4,25.35,11.9782,4.5155,-3.0287,0.8641,0.3459,-0.7653,-70.2,-34.35,-26.55,5.66,-0.85,-7.88,-0.5149,0.5083,0.0404,-60.1875,36.875,52.75,345.375,35.75,171.125,0
1776970420.321,9.9144,1.5371,0.2682,2.1328,0.8873,0.0634,-38.1,-8.25,25.65,11.9782,4.5155,-3.0287,1.4874,0.1596,-0.3533,-70.2,-34.35,-26.55,5.66,-0.85,-7.88,-0.5149,0.5083,0.0404,-60.1875,36.875,52.75,345.375,35.75,171.125,0
1776970420.326,10.0197,-1.5036,0.735,1.6553,0.7631,0.1519,-38.1,-8.25,25.65,10.7141,-0.9984,-2.5522,1.671,-0.2633,0.016,-71.1,-35.4,-26.1,6.15,-0.75,-7.72,-0.4298,0.6294,-0.0098,-61.375,36.75,52.375,345.5,36.0625,171.3125,0
1776970420.331,10.0197,-1.5036,0.735,1.6553,0.7631,0.1519,-38.1,-8.25,25.65,10.7141,-0.9984,-2.5522,1.671,-0.2633,0.016,-71.1,-35.4,-26.1,6.15,-0.75,-7.72,-0.4298,0.6294,-0.0098,-61.375,36.75,52.375,345.5,36.0625,171.3125,0
1776970420.336,10.386,-3.0311,0.6584,0.6827,0.6486,0.2718,-38.1,-8.25,25.65,10.1754,-6.3231,-2.5738,1.4253,-0.8298,0.1748,-71.1,-35.4,-26.1,6.27,-0.55,-7.6,-0.1538,0.5094,-0.036,-61.375,36.75,52.375,345.5,36.375,171.375,0
1776970420.341,10.386,-3.0311,0.6584,0.6827,0.6486,0.2718,-38.55,-5.7,26.85,10.1754,-6.3231,-2.5738,1.4253,-0.8298,0.1748,-71.1,-35.4,-26.1,6.27,-0.55,-7.6,0.0142,0.3294,0.0251,-61.375,36.75,52.375,345.5625,36.5625,171.3125,0
1776970420.347,10.6781,-2.3032,0.2322,-0.3325,0.5359,0.3909,-38.55,-5.7,26.85,5.1332,-8.6024,-0.565,-0.1985,0.5601,0.3874,-71.1,-34.95,-24.6,5.83,-0.7,-7.71,0.0142,0.3294,0.0251,-61.375,36.75,52.375,345.5625,36.6875,171.25,0
1776970420.356,9.6654,-0.5076,-0.1844,-0.894,0.4791,0.482,-38.1,-6.3,26.25,6.4308,-6.2537,-0.8595,-1.2164,1.5647,0.6728,-69.45,-35.1,-25.5,5.81,-0.86,-7.68,0.1004,0.2913,0.0491,-61.375,36.75,52.375,345.5625,36.6875,171.25,0
1776970420.366,9.3972,1.2641,0.0694,-0.9896,0.5025,0.5335,-38.55,-6.15,25.35,9.5481,-2.3822,-2.0614,-1.2239,1.3083,0.7261,-69.6,-35.4,-25.65,5.91,-0.95,-7.61,0.1789,0.2411,0.0622,-61.375,36.75,52.375,345.5625,36.8125,171.0625,0
1776970420.371,9.5241,2.4134,0.1484,-0.8625,0.5486,0.5588,-38.1,-5.25,27.3,9.5481,-2.3822,-2.0614,-1.2239,1.3083,0.7261,-69.6,-35.4,-25.65,5.91,-0.95,-7.61,0.1789,0.2411,0.0622,-61.375,36.75,52.375,345.5625,36.9375,170.9375,0
1776970420.376,9.5241,2.4134,0.1484,-0.8625,0.5486,0.5588,-38.1,-5.25,27.3,10.0509,-0.4022,-1.5179,-0.8527,0.5756,0.736,-71.1,-35.7,-24.6,6.01,-1.16,-7.7,0.2465,0.1734,0.0796,-63.1875,35.875,51.5625,345.5625,36.9375,170.9375,0
1776970420.381,9.6726,2.988,0.3879,-0.5796,0.5585,0.538,-38.25,-7.95,28.65,10.0509,-0.4022,-1.5179,-0.8527,0.5756,0.736,-71.1,-35.7,-24.6,6.01,-1.16,-7.7,0.2465,0.1734,0.0796,-63.1875,35.875,51.5625,345.5625,36.9375,170.6875,0
1776970420.386,9.6726,2.988,0.3879,-0.5796,0.5585,0.538,-38.25,-7.95,28.65,9.8521,0.2035,-0.5866,-0.6163,0.5295,0.753,-69.0,-36.0,-26.25,6.15,-1.29,-7.63,0.2814,0.0927,0.0873,-63.1875,35.875,51.5625,345.5625,36.9375,170.6875,0
1776970420.393,9.5313,3.1388,0.5076,-0.1966,0.5622,0.481,-38.25,-7.95,28.65,9.7947,-0.0072,-0.3974,-0.6163,0.5295,0.753,-69.0,-36.0,-26.25,6.11,-1.16,-7.55,0.2629,0.0851,0.0764,-63.1875,35.875,51.5625,345.5625,37.0,170.5,0
1776970420.398,9.5313,3.1388,0.5076,-0.1966,0.5622,0.481,-37.65,-6.75,27.3,9.7947,-0.0072,-0.3974,-0.2766,0.7157,0.6944,-72.0,-37.05,-25.05,6.11,-1.16,-7.55,0.2629,0.0851,0.0764,-63.1875,35.875,51.5625,345.5625,37.0625,170.375,0
1776970420.406,9.3877,2.5355,0.4573,0.1548,0.5593,0.4175,-37.65,-6.75,27.3,10.4004,-0.6057,-0.2945,0.2433,0.7232,0.5785,-70.35,-37.35,-25.35,6.27,-0.97,-7.56,0.1811,0.1167,0.0633,-63.1875,35.875,51.5625,345.625,37.125,170.3125,0
1776970420.416,9.2703,1.9106,0.6009,0.4474,0.5686,0.372,-37.05,-8.55,29.1,9.9742,-1.0606,0.0263,0.4756,0.2755,0.5111,-71.1,-38.55,-24.6,6.15,-1.2,-7.57,0.0774,0.1374,0.048,-63.1875,35.875,51.5625,345.625,37.125,170.3125,0
1776970420.421,9.6438,0.9194,0.7374,0.5915,0.5868,0.3533,-37.05,-8.55,28.5,8.4659,-3.0335,-0.2298,0.4756,0.2755,0.5111,-71.1,-38.55,-24.6,6.15,-1.2,-7.57,0.0774,0.1374,0.048,-63.1875,35.875,51.5625,345.625,37.25,170.3125,0
1776970420.426,9.6438,0.9194,0.7374,0.5915,0.5868,0.3533,-37.95,-8.7,28.65,8.4659,-3.0335,-0.2298,0.3944,0.5833,0.5425,-71.1,-38.55,-24.6,6.33,-1.22,-7.6,-0.0316,0.1778,0.0469,-63.5,36.25,50.6875,345.625,37.25,170.3125,0
1776970420.431,10.1586,0.0599,0.7135,0.5351,0.5662,0.3504,-37.95,-8.7,28.65,8.8729,-3.9289,-1.0678,0.3944,0.5833,0.5425,-71.1,-38.55,-24.6,6.33,-1.22,-7.6,-0.0316,0.1778,0.0469,-63.5,36.25,50.6875,345.625,37.25,170.3125,0
1776970420.436,10.1586,0.0599,0.7135,0.5351,0.5662,0.3504,-37.65,-7.8,28.5,8.8729,-3.9289,-1.0678,0.336,0.829,0.5321,-69.6,-37.65,-23.4,5.95,-1.52,-7.69,-0.0873,0.2029,0.0338,-63.5,36.25,50.6875,345.6875,37.3125,170.3125,0
1776970420.441,10.1179,-0.3352,0.7542,0.3142,0.5345,0.3483,-37.65,-7.8,28.5,9.232,-4.1061,-1.2258,0.1791,0.7522,0.5838,-69.6,-37.65,-23.4,5.95,-1.52,-7.69,-0.1287,0.2465,0.012,-63.5,36.25,50.6875,345.75,37.5,170.375,0
1776970420.447,10.1179,-0.3352,0.7542,0.3142,0.5345,0.3483,-37.65,-7.8,28.5,9.232,-4.1061,-1.2258,0.1791,0.7522,0.5838,-69.6,-37.65,-23.4,6.14,-1.29,-7.67,-0.1287,0.2465,0.012,-63.5,36.25,50.6875,345.75,37.5,170.375,0
1776970420.456,10.0102,-0.1844,0.9457,0.048,0.5228,0.3797,-37.65,-7.8,28.5,9.481,-4.8004,-0.4812,-0.1066,0.7274,0.663,-70.05,-39.3,-23.85,6.32,-1.23,-7.51,-0.1298,0.2956,-0.0153,-63.5,36.25,50.6875,345.75,37.625,170.4375,0
1776970420.461,9.833,0.0287,0.8859,-0.2262,0.5124,0.4096,-37.65,-9.0,29.85,9.4332,-3.814,-0.9457,-0.1945,0.6067,0.7304,-70.05,-39.3,-23.85,6.32,-1.23,-7.51,-0.1156,0.2836,-0.0218,-63.5,36.25,50.6875,345.75,37.8125,170.5,0
1776970420.467,9.651,0.6704,0.8092,-0.4165,0.5002,0.4365,-36.6,-9.0,30.15,9.4332,-3.814,-0.9457,-0.1945,0.6067,0.7304,-69.6,-38.55,-22.65,6.26,-1.15,-7.52,-0.1156,0.2836,-0.0218,-63.5,36.25,50.6875,345.75,37.8125,170.5,0
1776970420.472,9.651,0.6704,0.8092,-0.4165,0.5002,0.4365,-36.6,-9.0,30.15,9.2416,-2.8611,-0.6033,-0.3741,0.5465,0.7608,-69.6,-38.55,-22.65,6.26,-1.15,-7.52,-0.0633,0.2236,-0.0098,-62.6875,36.5625,50.5625,345.8125,37.9375,170.5,0
1776970420.477,9.6271,0.9912,1.0463,-0.5079,0.5031,0.4277,-38.55,-8.4,30.75,9.2416,-2.8611,-0.6033,-0.3741,0.5465,0.7608,-71.55,-39.3,-23.1,6.28,-1.05,-7.48,-0.0633,0.2236,-0.0098,-62.6875,36.5625,50.5625,345.8125,37.9375,170.5,0
1776970420.482,9.6271,0.9912,1.0463,-0.5079,0.5031,0.4277,-38.55,-8.4,30.75,9.2536,-2.648,-0.1173,-0.4506,0.5116,0.7826,-71.55,-39.3,-23.1,6.28,-1.05,-7.48,-0.0273,0.1865,0.0044,-62.6875,36.5625,50.5625,345.8125,38.0625,170.5,0
1776970420.487,9.8282,1.0247,1.0439,-0.4767,0.4799,0.3976,-38.55,-8.4,29.25,9.2536,-2.648,-0.1173,-0.4506,0.5116,0.7826,-70.2,-38.7,-22.95,6.25,-0.99,-7.43,-0.0273,0.1865,0.0044,-62.6875,36.5625,50.5625,345.8125,38.0625,170.5,0
1776970420.492,9.8282,1.0247,1.0439,-0.4767,0.4799,0.3976,-38.55,-8.4,29.25,9.4164,-2.7054,0.103,-0.4903,0.4535,0.8138,-70.2,-38.7,-22.95,6.25,-0.99,-7.43,0.0033,0.1658,0.0175,-62.6875,36.5625,50.5625,345.8125,38.125,170.5,0
1776970420.498,9.8761,0.814,1.1444,-0.4005,0.4541,0.3528,-38.55,-8.4,29.25,9.3374,-3.0311,0.2418,-0.4903,0.4535,0.8138,-67.5,-40.65,-22.95,6.2,-0.89,-7.48,0.0033,0.1658,0.0175,-62.6875,36.5625,50.5625,345.8125,38.25,170.4375,0
1776970420.507,10.1203,0.237,1.221,-0.3059,0.4282,0.3176,-38.55,-8.4,29.25,9.3374,-3.0311,0.2418,-0.4519,0.4325,0.8138,-69.6,-38.85,-23.1,6.19,-0.87,-7.38,0.0284,0.1396,0.0284,-62.6875,36.5625,50.5625,345.875,38.3125,170.4375,0
1776970420.517,10.3717,-0.1341,1.3096,-0.2888,0.4128,0.2904,-37.5,-10.65,31.05,9.4116,-3.7613,0.2753,-0.4157,0.381,0.8228,-69.6,-38.85,-23.1,6.22,-1.1,-7.51,0.0327,0.1145,0.0425,-62.6875,36.5625,50.5625,345.875,38.3125,170.4375,0
1776970420.521,10.3717,-0.1341,1.3096,-0.2888,0.4128,0.2904,-37.5,-10.65,31.05,9.2751,-4.4843,0.012,-0.4058,0.3866,0.8071,-69.6,-38.85,-23.1,6.22,-1.1,-7.51,0.0327,0.1145,0.0425,-62.6875,36.5625,50.5625,345.875,38.375,170.375,0
1776970420.527,10.3477,-0.3376,1.1229,-0.3405,0.3914,0.287,-37.95,-10.95,30.75,9.2129,-4.7429,-0.5363,-0.4058,0.3866,0.8071,-68.1,-38.85,-23.1,6.15,-1.15,-7.53,0.0349,0.1265,0.0305,-63.75,36.1875,49.5,345.875,38.375,170.375,0
1776970420.531,10.3477,-0.3376,1.1229,-0.3405,0.3914,0.287,-37.95,-10.95,30.75,9.2129,-4.7429,-0.5363,-0.3936,0.4495,0.8015,-68.1,-41.25,-23.1,6.15,-1.15,-7.53,0.0349,0.1265,0.0305,-63.75,36.1875,49.5,345.875,38.375,170.375,0
1776970420.536,10.173,-0.2155,0.8667,-0.4477,0.3794,0.2907,-38.1,-9.3,31.35,9.0501,-4.2377,-0.9768,-0.3936,0.4495,0.8015,-68.1,-41.25,-23.1,6.11,-1.35,-7.66,0.036,0.1451,0.0164,-63.75,36.1875,49.5,345.875,38.4375,170.3125,0
1776970420.541,10.173,-0.2155,0.8667,-0.4477,0.3794,0.2907,-38.1,-9.3,31.35,9.0501,-4.2377,-0.9768,-0.4397,0.5777,0.8037,-68.1,-41.25,-23.1,6.11,-1.35,-7.66,0.0262,0.1614,-0.0044,-63.75,36.1875,49.5,345.875,38.5,170.3125,0
1776970420.547,9.8713,0.2921,0.4142,-0.5657,0.3882,0.3259,-37.35,-10.5,31.65,8.8657,-3.5147,-1.0726,-0.494,0.8037,0.8234,-67.95,-40.65,-23.25,6.23,-1.35,-7.56,0.0262,0.1614,-0.0044,-63.75,36.1875,49.5,345.875,38.625,170.3125,0
1776970420.556,9.3709,0.9673,0.3304,-0.6656,0.4064,0.3848,-37.35,-10.5,31.65,9.5313,-2.7892,-1.4748,-0.5025,0.8532,0.7919,-67.95,-40.65,-23.25,6.22,-1.26,-7.55,0.0164,0.1691,-0.0295,-63.75,36.1875,49.5,345.875,38.625,170.3125,0
1776970420.566,9.0836,1.7789,0.0359,-0.7426,0.433,0.4378,-38.25,-9.9,29.7,8.8729,-2.478,-1.8507,-0.526,0.672,0.8007,-67.95,-40.65,-22.5,6.4,-1.1,-7.35,0.012,0.1898,-0.0469,-63.75,36.1875,49.5,345.875,38.75,170.3125,0
1776970420.571,9.0836,1.7789,0.0359,-0.7426,0.433,0.4378,-38.25,-9.9,29.7,8.8729,-2.478,-1.8507,-0.526,0.672,0.8007,-67.95,-42.15,-22.95,6.4,-1.1,-7.35,0.012,0.1898,-0.0469,-63.75,36.1875,49.5,345.875,38.75,170.3125,0
1776970420.576,8.9926,2.3894,-0.3256,-0.7373,0.4604,0.4599,-37.95,-12.15,30.45,8.497,-1.3216,-1.664,-0.6262,0.757,0.8596,-67.95,-42.15,-22.95,6.29,-1.06,-7.21,0.0044,0.1953,-0.0404,-65.0,36.875,49.5,345.8125,38.8125,170.3125,0
1776970420.581,8.9926,2.3894,-0.3256,-0.7373,0.4604,0.4599,-37.95,-12.15,30.45,8.497,-1.3216,-1.664,-0.6262,0.757,0.8596,-67.5,-42.6,-22.95,6.29,-1.06,-7.21,0.0044,0.1953,-0.0404,-65.0,36.875,49.5,345.8125,38.8125,170.3125,0
1776970420.586,8.9256,2.9497,-0.9433,-0.7032,0.489,0.4903,-37.65,-12.0,30.6,9.1075,-0.0718,-1.6113,-0.6432,1.0094,0.8777,-67.5,-42.6,-22.95,6.29,-0.94,-7.28,-0.0076,0.1876,-0.0295,-65.0,36.875,49.5,345.8125,38.9375,170.3125,0
1776970420.591,8.9256,2.9497,-0.9433,-0.7032,0.489,0.4903,-37.65,-12.0,30.6,9.1075,-0.0718,-1.6113,-0.6432,1.0094,0.8777,-67.95,-41.4,-22.5,6.29,-0.94,-7.28,-0.0262,0.2007,-0.0185,-65.0,36.875,49.5,345.8125,39.0625,170.3125,0
1776970420.597,8.7747,3.4285,-1.403,-0.6363,0.5529,0.5473,-38.4,-9.75,31.65,10.0987,0.7661,-2.545,-0.4306,0.8988,0.8756,-66.6,-41.4,-22.5,6.31,-0.95,-7.33,-0.0262,0.2007,-0.0185,-65.0,36.875,49.5,345.8125,39.1875,170.3125,0
1776970420.607,8.679,3.9792,-2.0446,-0.5505,0.6363,0.631,-36.75,-10.65,28.95,9.8689,1.3408,-3.2561,-0.2172,0.5926,0.8817,-66.6,-43.2,-21.6,6.36,-0.98,-7.29,-0.0425,0.2193,-0.0098,-65.0,36.875,49.5,345.875,39.3125,170.375,0
1776970420.617,8.8514,4.3144,-2.2146,-0.4634,0.7663,0.7096,-36.75,-10.65,28.95,9.5672,1.415,-3.5195,-0.126,0.6614,0.8972,-66.6,-43.2,-21.6,6.34,-1.09,-7.39,-0.0535,0.2236,0.0,-65.0,36.875,49.5,345.875,39.3125,170.375,0
1776970420.621,8.8514,4.3144,-2.2146,-0.4634,0.7663,0.7096,-36.75,-10.65,28.95,9.5672,1.415,-3.5195,-0.126,0.6614,0.8972,-65.4,-42.45,-23.4,6.34,-1.09,-7.39,-0.0535,0.2236,0.0,-65.0,36.875,49.5,345.875,39.4375,170.375,0
1776970420.627,9.4308,4.13,-1.9225,-0.3941,0.8745,0.7765,-37.35,-14.55,30.6,9.8809,1.0415,-3.6057,-0.1332,0.817,0.9182,-65.4,-42.45,-23.4,6.27,-1.01,-7.44,-0.0611,0.2476,-0.0055,-65.25,36.1875,49.0625,345.875,39.4375,170.375,0
1776970420.631,9.4308,4.13,-1.9225,-0.3941,0.8745,0.7765,-37.35,-14.55,30.6,9.8809,1.0415,-3.6057,-0.1332,0.817,0.9182,-65.4,-42.45,-23.4,6.27,-1.01,-7.44,-0.0611,0.2476,-0.0055,-65.25,36.1875,49.0625,345.875,39.5625,170.4375,0
1776970420.637,9.8785,3.8044,-1.7765,-0.3384,0.9601,0.8303,-36.6,-14.25,31.95,10.4483,0.5531,-3.5267,-0.0778,0.9193,0.9297,-65.4,-42.45,-23.4,5.99,-0.88,-7.6,-0.0622,0.2553,-0.0055,-65.25,36.1875,49.0625,345.875,39.5625,170.4375,0
1776970420.641,9.8785,3.8044,-1.7765,-0.255,1.0437,0.899,-36.6,-14.25,31.95,10.4483,0.5531,-3.5267,-0.0778,0.9193,0.9297,-66.15,-44.7,-21.6,5.99,-0.88,-7.6,-0.0851,0.2814,-0.0109,-65.25,36.1875,49.0625,345.9375,39.75,170.4375,0
1776970420.648,10.0868,3.1484,-1.5107,-0.255,1.0437,0.899,-35.7,-14.4,31.8,10.4914,0.1796,-3.1675,-0.0277,1.0048,0.9252,-66.15,-44.7,-21.6,6.12,-1.0,-7.76,-0.0851,0.2814,-0.0109,-65.25,36.1875,49.0625,345.9375,39.9375,170.5,0
1776970420.657,10.2663,2.0973,-1.4796,-0.2673,1.125,0.987,-35.85,-15.0,33.0,10.343,-0.7829,-3.0502,-0.0008,1.0576,0.9358,-64.65,-44.7,-22.35,5.99,-1.3,-7.8,-0.1134,0.3611,-0.0153,-65.25,36.1875,49.0625,345.9375,39.9375,170.5,0
1776970420.667,10.4387,1.2498,-1.1229,-0.3128,1.1738,1.0765,-36.45,-15.9,32.85,9.9431,-1.798,-3.0694,-0.0168,1.1732,0.9467,-66.3,-46.5,-20.7,6.21,-1.87,-7.86,-0.108,0.4516,-0.0764,-65.25,36.1875,49.0625,345.9375,40.1875,170.5625,0
1776970420.672,10.1083,1.2091,-0.838,-0.4823,1.254,1.1599,-36.45,-15.9,32.85,9.9862,-2.059,-3.3016,-0.0168,1.1732,0.9467,-66.0,-45.75,-20.25,6.21,-1.87,-7.86,-0.108,0.4516,-0.0764,-65.25,36.1875,49.0625,345.9375,40.1875,170.5625,0
1776970420.677,10.1083,1.2091,-0.838,-0.4823,1.254,1.1599,-36.45,-15.9,32.85,9.9862,-2.059,-3.3016,-0.0882,1.2095,0.9547,-66.0,-45.75,-20.25,6.31,-1.55,-7.93,-0.1854,0.577,-0.1353,-65.5,35.375,49.5,345.9375,40.5,170.6875,0
1776970420.682,9.8785,1.3982,-0.7183,-0.603,1.3203,1.2444,-36.45,-15.9,32.85,9.505,-2.2697,-2.8395,-0.2766,1.3829,0.9363,-66.15,-45.45,-21.6,6.31,-1.55,-7.93,-0.1854,0.577,-0.1353,-65.5,35.375,49.5,345.9375,40.5,170.6875,0
1776970420.687,9.8785,1.3982,-0.7183,-0.603,1.3203,1.2444,-36.0,-15.15,33.3,9.505,-2.2697,-2.8395,-0.2766,1.3829,0.9363,-66.15,-45.45,-21.6,6.15,-1.77,-7.93,-0.3763,0.7778,-0.1953,-65.5,35.375,49.5,345.9375,40.9375,170.9375,0
1776970420.694,9.9814,1.4293,-0.2825,-0.6358,1.3635,1.3097,-35.7,-15.9,33.6,10.1754,-2.1883,-2.162,-0.3741,1.4935,0.8697,-64.8,-46.95,-21.45,6.12,-1.52,-7.69,-0.5007,0.9305,-0.2934,-65.5,35.375,49.5,345.875,41.5,171.25,0
1776970420.699,9.9814,1.4293,-0.2825,-0.6118,1.4101,1.3664,-35.7,-15.9,33.6,10.1754,-2.1883,-2.162,-0.3741,1.4935,0.8697,-66.0,-47.25,-20.7,6.12,-1.52,-7.69,-0.5007,0.9305,-0.2934,-65.5,35.375,49.5,345.875,42.125,171.6875,0
1776970420.707,10.1059,1.5802,0.3735,-0.6118,1.4101,1.3664,-36.3,-18.75,34.5,10.2568,-2.1428,-1.3384,-0.3952,1.3217,0.8652,-66.0,-47.25,-20.7,6.82,0.04,-8.0,-0.6294,1.0777,-0.3611,-65.5,35.375,49.5,345.875,42.8125,172.0,0
1776970420.717,10.7021,1.0726,0.9242,-0.5894,1.4514,1.3773,-34.8,-20.55,35.25,9.9503,-2.7438,-0.6009,-0.4197,1.2356,0.8548,-65.4,-47.55,-20.55,6.4,-0.3,-7.99,-0.4974,1.1879,-0.2062,-65.5,35.375,49.5,345.875,42.8125,172.0,0
1776970420.722,11.6885,0.4334,0.9481,-0.603,1.4893,1.3947,-36.75,-18.9,35.7,10.2592,-3.1412,-0.316,-0.4253,1.3137,0.8553,-65.4,-47.55,-20.55,6.4,-0.3,-7.99,-0.4974,1.1879,-0.2062,-66.25,35.375,45.875,346.0,43.5,172.0,0
1776970420.727,11.6885,0.4334,0.9481,-0.603,1.4893,1.3947,-36.75,-18.9,35.7,10.2592,-3.1412,-0.316,-0.4253,1.3137,0.8553,-65.4,-47.55,-20.55,6.15,-0.53,-8.27,-0.1505,1.2446,0.0,-66.25,35.375,45.875,346.0,43.5,172.0,0
1776970420.732,12.5193,0.3711,0.6201,-0.6134,1.4853,1.4272,-36.75,-18.9,35.7,11.1618,-3.3447,-0.4573,-0.381,1.4735,0.8484,-63.9,-47.1,-21.15,6.15,-0.53,-8.27,-0.1505,1.2446,0.0,-66.25,35.375,45.875,346.0625,44.25,171.875,0
1776970420.737,12.5193,0.3711,0.6201,-0.6134,1.4853,1.4272,-36.75,-18.9,35.7,11.1618,-3.3447,-0.4573,-0.381,1.4735,0.8484,-63.9,-47.1,-21.15,6.65,-0.65,-8.51,0.0284,1.4214,0.0502,-66.25,35.375,45.875,346.0625,44.25,171.875,0
1776970420.742,13.1011,0.3112,0.2658,-0.7037,1.5132,1.4909,-33.3,-21.0,36.6,11.7483,-3.3782,-1.0822,-0.4301,1.4573,0.8775,-63.9,-47.1,-21.15,6.65,-0.65,-8.51,0.3098,1.5653,0.0415,-66.25,35.375,45.875,329.4375,45.125,171.5625,0
1776970420.748,13.1011,0.3112,0.2658,-0.8863,1.5481,1.5116,-33.3,-21.0,36.6,12.3158,-3.0454,-1.7957,-0.4301,1.4573,0.8775,-63.9,-47.1,-21.15,5.39,0.64,-8.31,0.3098,1.5653,0.0415,-66.25,35.375,45.875,328.9375,46.0625,171.0625,0
1776970420.757,13.5943,1.075,-0.4166,-0.8863,1.5481,1.5116,-33.3,-23.55,37.65,12.3158,-3.0454,-1.7957,-0.3632,1.3288,0.9715,-64.5,-48.9,-19.95,7.97,-2.41,-8.78,0.6545,1.7006,-0.0753,-66.25,35.375,45.875,328.9375,46.0625,171.0625,0
1776970420.767,13.4961,1.2881,-0.3352,-0.9366,1.6038,1.5303,-33.3,-23.55,37.35,13.1322,-1.9632,-2.5642,-0.238,1.3955,0.9531,-62.7,-48.6,-19.8,6.23,-1.02,-9.21,0.4723,1.9144,-0.0709,-66.25,35.375,45.875,328.75,47.125,170.6875,0
1776970420.772,13.5105,0.9409,-0.7063,-1.0253,1.6715,1.5873,-31.95,-23.55,38.7,13.1322,-1.9632,-2.5642,-0.2774,1.5828,0.8292,-62.4,-49.5,-19.05,6.23,-1.02,-9.21,0.4723,1.9144,-0.0709,-66.25,35.375,45.875,328.9375,48.375,170.25,0
1776970420.777,14.0803,-2.2266,-1.7789,-1.2524,1.8101,1.5892,-31.95,-23.55,38.7,13.0843,-2.15,-2.0446,-0.2774,1.5828,0.8292,-62.4,-49.5,-19.05,5.88,-0.5,-9.39,0.1385,2.3584,0.1778,-69.1875,34.6875,44.0,328.9375,48.375,170.25,0
1776970420.782,14.0803,-2.2266,-1.7789,-1.2524,1.8101,1.5892,-31.95,-23.55,38.7,13.0843,-2.15,-2.0446,-0.2025,1.7208,0.7903,-63.3,-48.9,-19.2,5.88,-0.5,-9.39,0.1385,2.3584,0.1778,-69.1875,34.6875,44.0,328.9375,48.375,170.25,0
1776970420.787,14.0683,-2.4756,-2.3128,-1.594,1.9052,1.5511,-31.95,-23.55,38.7,12.8281,-4.1635,-6.0741,-0.2025,1.7208,0.7903,-63.3,-48.9,-19.2,5.53,-0.22,-9.54,0.1396,2.5787,0.216,-69.1875,34.6875,44.0,329.125,49.75,169.75,0
1776970420.792,14.0683,-2.4756,-2.3128,-1.594,1.9052,1.5511,-31.95,-23.55,38.7,12.8281,-4.1635,-6.0741,-0.4663,1.7565,0.9009,-63.3,-49.65,-19.95,5.53,-0.22,-9.54,0.2018,2.7991,0.1614,-69.1875,34.6875,44.0,329.25,51.25,169.1875,0
1776970420.798,13.5368,-3.2106,-3.2801,-2.4224,1.9015,1.5593,-31.95,-23.55,38.7,10.9128,-7.355,-11.5472,-1.263,1.8202,1.0504,-63.3,-49.65,-19.95,4.56,1.2,-9.64,0.2018,2.7991,0.1614,-69.1875,34.6875,44.0,329.3125,52.875,168.625,0
1776970420.807,11.9902,-4.616,-3.6416,-3.144,1.873,1.566,-30.6,-27.45,37.2,8.7987,-7.7285,-8.7269,-1.1559,1.8596,1.0994,-61.2,-49.8,-19.35,5.34,-0.28,-8.24,0.4538,2.918,-0.1254,-69.1875,34.6875,44.0,329.3125,52.875,168.625,0
1776970420.817,9.8881,-3.644,-2.5091,-3.9087,1.9081,1.6265,-28.65,-27.0,37.35,8.6119,-9.1913,-10.3166,-1.6819,1.8439,1.101,-61.2,-49.8,-19.35,7.72,-1.55,-8.75,0.3414,3.5474,-0.0393,-69.1875,34.6875,44.0,329.5,54.8125,167.9375,0
1776970420.822,9.8881,-3.644,-2.5091,-3.9087,1.9081,1.6265,-27.75,-28.2,34.65,8.6119,-9.1913,-10.3166,-1.6819,1.8439,1.101,-61.8,-50.4,-21.45,7.72,-1.55,-8.75,0.3414,3.5474,-0.0393,-69.1875,34.6875,44.0,329.5,54.8125,167.9375,0
1776970420.827,7.5322,-1.743,1.0654,-4.3742,1.9971,1.6952,-27.75,-28.2,34.65,7.6255,-9.5385,-4.9033,-1.9716,1.5513,1.42,-61.8,-50.4,-21.45,7.18,1.21,-7.56,0.3862,3.5703,0.2029,-72.1875,35.75,38.0625,329.5625,56.6875,166.875,0
1776970420.832,7.5322,-1.743,1.0654,-4.3742,1.9971,1.6952,-27.9,-28.05,35.55,7.6255,-9.5385,-4.9033,-1.9716,1.5513,1.42,-61.8,-50.4,-21.45,7.18,1.21,-7.56,0.3862,3.5703,0.2029,-72.1875,35.75,38.0625,329.5625,56.6875,166.875,0
1776970420.837,6.5793,-0.3663,2.806,-4.5248,2.108,1.7062,-27.9,-28.05,35.55,8.2839,-7.8099,-0.0551,-2.0603,1.2252,1.5692,-61.8,-50.4,-21.45,11.43,1.06,-5.87,0.5269,2.8765,0.0785,-72.1875,35.75,38.0625,329.4375,58.25,165.9375,0
1776970420.842,6.5793,-0.3663,2.806,-4.5248,2.108,1.7062,-27.9,-28.05,35.55,8.2839,-7.8099,-0.0551,-2.0603,1.2252,1.5692,-60.45,-51.75,-20.85,11.43,1.06,-5.87,0.2225,3.5605,0.5236,-72.1875,35.75,38.0625,329.4375,60.0625,164.5,0
1776970420.848,7.2018,-0.5267,4.0151,-4.3367,2.1482,1.6619,-27.9,-28.05,35.55,9.6151,-2.66,7.4244,-1.7312,0.9944,1.003,-60.45,-51.75,-20.85,13.15,1.23,-4.84,0.2225,3.5605,0.5236,-72.1875,35.75,38.0625,329.9375,62.1875,162.5625,0
1776970420.857,8.9208,-0.9864,4.6304,-3.727,2.238,1.4927,-25.05,-31.5,32.4,10.4627,2.3727,6.7397,-1.6483,-0.214,1.1426,-60.9,-51.0,-22.35,17.16,1.91,-7.62,-0.5978,4.2597,1.1094,-72.1875,35.75,38.0625,329.9375,62.1875,162.5625,0
1776970420.867,11.5784,-0.5986,5.0374,-3.172,2.2082,1.3851,-23.55,-33.0,29.55,4.2018,-3.541,-4.1851,-2.4946,-0.8276,0.8924,-59.4,-51.45,-24.15,18.9,-3.41,-19.29,-1.2228,4.1168,1.7704,-72.1875,35.75,38.0625,330.625,64.0625,159.9375,0
1776970420.872,11.5784,-0.5986,5.0374,-3.172,2.2082,1.3851,-23.85,-33.75,30.9,4.2018,-3.541,-4.1851,-2.4946,-0.8276,0.8924,-59.55,-53.1,-25.8,18.9,-3.41,-19.29,-1.2228,4.1168,1.7704,-72.1875,35.75,38.0625,331.875,66.0625,157.5625,0
1776970420.877,10.659,-2.727,4.1348,-2.8959,2.1165,1.2097,-23.85,-33.75,30.9,0.9673,-10.1251,2.6983,-2.1221,0.4162,0.6094,-59.55,-53.1,-25.8,15.9,-0.3,-10.69,-1.6297,4.4091,1.249,-73.5625,35.375,28.1875,331.875,66.0625,157.5625,0
1776970420.882,10.659,-2.727,4.1348,-2.8959,2.1165,1.2097,-24.15,-32.4,28.95,6.1842,-8.7747,5.1068,-2.1221,0.4162,0.6094,-58.95,-52.95,-27.9,15.9,-0.3,-10.69,-1.6297,4.4091,1.249,-73.5625,35.375,28.1875,333.1875,67.625,155.0,0
1776970420.887,9.3733,-3.4141,4.1468,-2.5498,2.0976,1.06,-24.15,-32.4,28.95,6.1842,-8.7747,5.1068,-2.0957,1.93,0.6781,-58.95,-52.95,-27.9,8.99,1.28,-9.94,-2.0453,3.6979,1.4813,-73.5625,35.375,28.1875,333.1875,67.625,155.0,0
1776970420.895,8.4204,-3.9552,3.4836,-2.3875,2.0675,0.8719,-23.85,-33.75,28.05,5.8347,-8.3151,1.0798,-2.1392,2.3747,0.3115,-59.1,-53.1,-29.25,6.01,0.97,-10.58,-2.1806,3.4852,1.8773,-73.5625,35.375,28.1875,334.3125,68.875,151.6875,0
1776970420.9,8.4204,-3.9552,3.4836,-2.3875,2.0675,0.8719,-23.85,-33.75,28.05,5.8347,-8.3151,1.0798,-2.1392,2.3747,0.3115,-59.1,-53.1,-29.25,6.01,0.97,-10.58,-2.1806,3.4852,1.8773,-73.5625,35.375,28.1875,335.0625,69.75,147.4375,0
1776970420.908,8.0613,-6.3614,4.063,-2.1802,1.8279,0.6755,-23.85,-33.75,28.05,7.3622,-9.2799,3.4213,-2.0358,2.0763,0.1849,-59.1,-53.1,-29.25,2.54,-0.46,-13.45,-2.1937,3.2299,2.4369,-73.5625,35.375,28.1875,335.5,70.0625,142.375,0
1776970420.917,7.4508,-5.8299,5.0278,-1.9366,1.5937,0.4114,-22.95,-33.45,27.15,7.8003,-8.7915,4.3,-2.0099,2.0155,-0.0392,-60.45,-53.7,-31.2,14.59,-0.92,-16.51,-2.39,2.8798,3.0958,-73.5625,35.375,28.1875,335.5,70.0625,142.375,0
1776970420.922,7.1898,-4.6591,3.6272,-2.3049,1.3147,0.1668,-22.05,-33.75,27.3,8.1211,-10.0868,3.5889,-1.9748,2.0091,-0.1247,-60.45,-53.7,-31.2,14.59,-0.92,-16.51,-2.39,2.8798,3.0958,-73.5625,35.375,28.1875,335.5,70.0625,142.375,0
1776970420.927,7.1898,-4.6591,3.6272,-2.3049,1.3147,0.1668,-22.95,-33.9,26.1,8.1211,-10.0868,3.5889,-1.9748,2.0091,-0.1247,-60.45,-53.7,-31.2,7.0,4.58,-17.29,-2.7925,2.534,3.1503,-69.875,37.875,19.0,336.125,70.0,137.75,0
1776970420.932,7.762,-4.2066,3.2034,-2.4728,0.9992,-0.1386,-22.95,-33.9,26.1,8.3055,-9.7229,3.9337,-1.9694,1.6118,-0.1812,-60.45,-53.7,-33.45,7.0,4.58,-17.29,-2.7925,2.534,3.1503,-69.875,37.875,19.0,336.125,70.0,137.75,0
1776970420.937,7.762,-4.2066,3.2034,-2.4728,0.9992,-0.1386,-22.95,-34.65,25.8,8.3055,-9.7229,3.9337,-1.9694,1.6118,-0.1812,-60.45,-53.7,-33.45,3.7,5.51,-12.0,-2.99,0.9817,3.0598,-69.875,37.875,19.0,336.6875,69.25,135.0625,0
1776970420.942,7.9655,-3.2154,3.1987,-2.2601,0.7013,-0.4623,-22.95,-34.65,25.8,8.7436,-8.3653,4.5274,-2.0464,1.1532,-0.3912,-62.25,-54.0,-33.6,3.7,5.51,-12.0,-2.2297,-0.108,3.0958,-69.875,37.875,19.0,336.5,68.0,133.375,0
1776970420.948,7.9655,-3.2154,3.1987,-2.2601,0.7013,-0.4623,-24.3,-33.75,24.15,8.7436,-8.3653,4.5274,-2.0464,1.1532,-0.3912,-62.25,-54.0,-33.6,1.57,5.71,-8.87,-2.2297,-0.108,3.0958,-69.875,37.875,19.0,336.125,66.875,131.75,0
1776970420.957,7.6231,-2.3798,3.3351,-1.8764,0.388,-0.7093,-24.3,-33.75,24.15,9.0309,-7.355,5.1978,-2.0861,0.5255,-0.7853,-61.65,-53.4,-35.7,1.67,4.39,-8.73,-1.6221,0.0458,2.7227,-69.875,37.875,19.0,336.125,66.875,131.75,0
1776970420.967,7.4268,-2.0734,3.5434,-1.5116,0.1098,-0.9579,-23.4,-32.7,21.9,8.9495,-6.3303,4.8961,-1.9265,-0.0589,-1.1477,-61.5,-53.1,-37.35,1.36,2.89,-8.15,-1.1148,-0.2171,2.2242,-69.875,37.875,19.0,335.625,65.875,130.75,0
1776970420.972,7.2449,-2.1261,3.9409,-1.1991,-0.1855,-1.1612,-23.4,-32.7,21.9,9.2799,-4.9201,4.537,-1.5242,-0.2763,-1.3896,-62.4,-52.95,-39.0,1.36,2.89,-8.15,-1.1148,-0.2171,2.2242,-69.875,37.875,19.0,335.1875,65.0,130.3125,0
1776970420.977,7.2449,-2.1261,3.9409,-1.1991,-0.1855,-1.1612,-25.5,-33.15,20.1,9.2799,-4.9201,4.537,-1.5242,-0.2763,-1.3896,-62.4,-52.95,-39.0,0.8,1.76,-7.83,-0.889,-0.4898,1.6799,-57.5625,43.0,18.5,335.1875,65.0,130.3125,0
1776970420.982,6.6248,-2.1835,4.0223,-0.8407,-0.4053,-1.3219,-25.5,-33.15,20.1,8.4539,-3.2346,3.9409,-1.0195,-0.5596,-1.6835,-61.8,-54.75,-39.6,0.8,1.76,-7.83,-0.889,-0.4898,1.6799,-57.5625,43.0,18.5,334.9375,64.25,130.6875,0
1776970420.987,6.6248,-2.1835,4.0223,-0.8407,-0.4053,-1.3219,-25.95,-33.45,21.9,8.4539,-3.2346,3.9409,-1.0195,-0.5596,-1.6835,-61.8,-54.75,-39.6,0.42,0.64,-7.39,-0.8803,-0.7865,1.117,-57.5625,43.0,18.5,334.9375,64.25,130.6875,0
1776970420.994,5.6312,-2.5331,3.3327,-0.2364,-0.5111,-1.4645,-25.95,-33.45,21.9,7.2736,-2.4469,3.9792,-0.4615,-1.0038,-2.0749,-61.8,-54.75,-39.6,1.92,0.27,-8.22,-0.9883,-0.9839,0.5825,-57.5625,43.0,18.5,335.0625,63.625,131.625,0
1776970420.999,5.6312,-2.5331,3.3327,-0.2364,-0.5111,-1.4645,-26.85,-34.05,19.5,7.7405,-4.0438,4.4053,0.0253,-0.931,-2.2284,-61.8,-54.75,-39.6,1.92,0.27,-8.22,-0.9883,-0.9839,0.5825,-57.5625,43.0,18.5,335.4375,63.125,133.0,0
1776970421.008,5.7389,-2.6336,3.0358,0.4221,-0.5606,-1.602,-26.85,-34.05,19.5,7.9847,-6.1052,3.79,0.0253,-0.931,-2.2284,-64.5,-55.05,-42.15,3.27,0.23,-8.96,-1.0614,-1.1312,0.1734,-57.5625,43.0,18.5,335.8125,62.5625,134.875,0
1776970421.018,5.9328,-2.8323,3.0239,1.0336,-0.6702,-1.7597,-26.85,-34.05,19.5,7.367,-5.4755,3.5674,0.9902,-1.2252,-2.0049,-64.5,-55.05,-42.15,3.92,-0.12,-8.71,-1.0505,-1.5424,-0.072,-57.5625,43.0,18.5,335.8125,62.5625,134.875,0
1776970421.022,6.3542,-3.1436,2.7294,1.408,-0.8655,-1.9204,-26.85,-34.05,19.5,7.367,-5.4755,3.5674,0.9902,-1.2252,-2.0049,-64.05,-55.95,-41.4,3.92,-0.12,-8.71,-1.0505,-1.5424,-0.072,-57.5625,43.0,18.5,335.8125,62.5625,134.875,0
1776970421.028,6.3542,-3.1436,2.7294,1.408,-0.8655,-1.9204,-30.15,-33.0,19.95,7.2568,-5.7628,2.9999,1.162,-1.3408,-1.9745,-64.05,-55.95,-41.4,3.64,-0.97,-8.01,-0.889,-2.1118,-0.2258,-45.0,45.25,22.75,336.0625,61.8125,137.0625,0
1776970421.032,6.8019,-4.2952,2.6719,1.7307,-1.1149,-2.1083,-30.15,-33.0,19.95,7.2568,-5.7628,2.9999,1.162,-1.3408,-1.9745,-63.3,-55.95,-42.15,3.64,-0.97,-8.01,-0.889,-2.1118,-0.2258,-45.0,45.25,22.75,336.0625,61.8125,137.0625,0
1776970421.037,6.8019,-4.2952,2.6719,1.7307,-1.1149,-2.1083,-29.4,-34.8,19.2,7.0198,-6.5721,3.5219,1.2319,-1.4003,-1.9926,-63.3,-55.95,-42.15,3.48,-1.93,-7.36,-0.6774,-2.5035,-0.384,-45.0,45.25,22.75,336.0625,60.9375,139.4375,0
1776970421.042,7.3215,-5.3032,2.8419,1.8751,-1.3813,-2.2604,-29.4,-34.8,19.2,7.0198,-6.5721,3.5219,1.2319,-1.4003,-1.9926,-63.3,-56.7,-39.6,3.48,-1.93,-7.36,-0.613,-2.7151,-0.5967,-45.0,45.25,22.75,336.125,59.9375,141.9375,0
1776970421.048,8.0732,-6.4524,2.9305,1.7824,-1.6204,-2.3473,-31.95,-33.3,21.6,7.4268,-7.8817,3.2537,1.1037,-1.4397,-1.9758,-63.3,-56.7,-39.6,3.57,-3.0,-6.48,-0.613,-2.7151,-0.5967,-45.0,45.25,22.75,336.3125,58.9375,144.5625,0
1776970421.058,8.6431,-7.343,2.8802,1.461,-1.8548,-2.3523,-31.05,-31.65,20.1,7.2951,-8.904,1.8962,0.8857,-1.5799,-1.9638,-63.9,-57.6,-40.5,3.55,-3.09,-5.99,-0.6665,-2.9158,-0.8465,-45.0,45.25,22.75,336.3125,58.9375,144.5625,0
1776970421.068,9.0381,-7.8673,3.0406,1.0347,-2.0744,-2.311,-31.05,-31.65,20.1,7.4101,-8.7269,1.3982,0.5673,-1.5457,-1.8231,-64.5,-57.9,-38.85,4.28,-3.06,-6.08,-0.7658,-3.0129,-1.1225,-45.0,45.25,22.75,336.6875,57.9375,147.375,0
1776970421.072,9.0381,-7.8673,3.0406,1.0347,-2.0744,-2.311,-31.05,-31.65,20.1,7.4101,-8.7269,1.3982,0.5673,-1.5457,-1.8231,-65.25,-56.7,-37.65,4.28,-3.06,-6.08,-0.7658,-3.0129,-1.1225,-45.0,45.25,22.75,336.6875,57.9375,147.375,0
1776970421.078,8.9328,-7.1778,2.873,0.5982,-2.2036,-2.2551,-31.95,-32.55,20.55,7.5489,-8.9256,1.4437,0.2598,-1.4448,-1.7115,-65.25,-56.7,-37.65,5.08,-3.08,-6.23,-0.8203,-2.9889,-1.3897,-38.25,46.5,24.0,337.3125,56.875,150.1875,0
1776970421.082,8.9328,-7.1778,2.873,0.5982,-2.2036,-2.2551,-31.95,-32.55,20.55,7.5489,-8.9256,1.4437,0.2598,-1.4448,-1.7115,-65.4,-56.1,-37.95,5.08,-3.08,-6.23,-0.8203,-2.9889,-1.3897,-38.25,46.5,24.0,337.3125,56.875,150.1875,0
1776970421.087,8.7747,-6.098,2.5426,0.2902,-2.2671,-2.2625,-33.75,-33.3,19.95,7.3717,-8.7077,0.6847,0.1492,-1.4901,-1.6547,-65.4,-56.1,-37.95,6.79,-3.52,-6.78,-0.7963,-3.0052,-1.5577,-38.25,46.5,24.0,338.0625,55.8125,152.9375,0
1776970421.092,8.7747,-6.098,2.5426,0.2902,-2.2671,-2.2625,-33.75,-33.3,19.95,7.3717,-8.7077,0.6847,0.1492,-1.4901,-1.6547,-64.8,-57.45,-38.4,6.79,-3.52,-6.78,-0.7614,-3.0816,-1.6199,-38.25,46.5,24.0,338.8125,54.6875,155.625,0
1776970421.098,8.5066,-5.1116,2.2769,0.2625,-2.2934,-2.3169,-34.65,-31.95,20.7,7.2401,-7.6112,0.3496,-0.0045,-1.708,-1.6076,-64.8,-57.45,-38.4,7.31,-3.5,-6.86,-0.7614,-3.0816,-1.6199,-38.25,46.5,24.0,339.5625,53.4375,158.125,0
1776970421.108,8.5569,-4.0151,2.1907,0.4631,-2.3116,-2.4184,-34.05,-32.25,19.5,7.1539,-7.2401,0.2921,-0.0853,-1.9212,-1.5777,-64.8,-57.45,-38.4,8.26,-3.29,-7.11,-0.733,-3.1656,-1.6122,-38.25,46.5,24.0,339.5625,53.4375,158.125,0
1776970421.118,8.5305,-3.3447,2.1165,0.7077,-2.3579,-2.5543,-35.55,-30.3,18.45,6.9959,-6.541,0.2849,-0.0733,-2.0121,-1.53,-65.1,-57.6,-37.5,9.54,-2.9,-7.92,-0.769,-3.0838,-1.5643,-38.25,46.5,24.0,340.375,52.125,160.375,0
1776970421.123,8.5305,-3.3447,2.1165,0.7077,-2.3579,-2.5543,-35.55,-30.3,18.45,7.1539,-5.9424,0.2801,-0.0733,-2.0121,-1.53,-65.1,-57.6,-37.5,9.54,-2.9,-7.92,-0.769,-3.0838,-1.5643,-38.25,46.5,24.0,341.1875,50.8125,162.5,0
1776970421.128,9.2201,-3.1029,2.138,0.9984,-2.3172,-2.6207,-35.55,-30.3,18.45,7.1539,-5.9424,0.2801,0.0509,-2.0989,-1.5079,-65.1,-57.6,-37.5,10.21,-3.13,-8.08,-0.7647,-3.0445,-1.5163,-43.0,49.5,28.875,341.1875,50.8125,162.5,0
1776970421.133,9.2201,-3.1029,2.138,0.9984,-2.3172,-2.6207,-35.55,-30.3,18.45,7.3478,-5.5809,0.2682,0.0509,-2.0989,-1.5079,-65.1,-56.85,-37.2,10.21,-3.13,-8.08,-0.7647,-3.0445,-1.5163,-43.0,49.5,28.875,342.0625,49.375,164.4375,0
1776970421.138,9.9958,-3.213,2.2841,1.2508,-2.3025,-2.6473,-35.4,-29.7,18.3,7.3478,-5.5809,0.2682,0.295,-2.2063,-1.4807,-65.1,-56.85,-37.2,10.67,-3.01,-8.5,-0.7658,-3.0489,-1.4661,-43.0,49.5,28.875,342.0625,49.375,164.4375,0
1776970421.143,9.9958,-3.213,2.2841,1.2508,-2.3025,-2.6473,-35.4,-29.7,18.3,7.4244,-5.4779,-0.2298,0.4991,-2.2508,-1.4437,-66.6,-57.6,-36.75,10.67,-3.01,-8.5,-0.8094,-3.0216,-1.4159,-43.0,49.5,28.875,343.0,48.0,166.25,0
1776970421.149,10.2927,-3.4596,2.4541,1.469,-2.2831,-2.6065,-36.3,-28.05,18.45,7.4244,-5.4779,-0.2298,0.4991,-2.2508,-1.4437,-66.6,-57.6,-36.75,11.41,-2.67,-8.89,-0.8094,-3.0216,-1.4159,-43.0,49.5,28.875,344.0,46.5,167.9375,0
1776970421.158,10.3477,-3.814,2.5211,1.5836,-2.2404,-2.5325,-36.3,-29.55,18.75,7.6686,-5.3271,-0.6847,0.4935,-2.1365,-1.3931,-66.0,-56.7,-36.6,11.55,-2.44,-8.96,-0.841,-3.0511,-1.3908,-43.0,49.5,28.875,344.0,46.5,167.9375,0
1776970421.168,10.5345,-3.9576,2.7773,1.6214,-2.2457,-2.4722,-37.95,-28.2,19.35,8.0302,-5.2218,-0.3519,0.4279,-1.9766,-1.4402,-66.15,-56.1,-36.45,11.59,-2.3,-9.08,-0.8279,-3.1143,-1.381,-43.0,49.5,28.875,345.0625,44.9375,169.5,0
1776970421.173,10.5345,-3.9576,2.7773,1.6214,-2.2457,-2.4722,-38.4,-27.3,17.7,8.2552,-5.6695,-0.3089,0.2966,-1.9055,-1.4693,-66.9,-56.55,-36.45,11.59,-2.3,-9.08,-0.8279,-3.1143,-1.381,-43.0,49.5,28.875,345.0625,44.9375,169.5,0
1776970421.178,10.4124,-3.8547,2.9329,1.5444,-2.291,-2.4304,-38.4,-27.3,17.7,8.2552,-5.6695,-0.3089,0.2966,-1.9055,-1.4693,-66.9,-56.55,-36.45,11.65,-2.27,-9.21,-0.7592,-3.1787,-1.3941,-47.1875,46.25,44.1875,4.9375,43.375,170.9375,0
1776970421.183,10.4124,-3.8547,2.9329,1.3454,-2.3539,-2.391,-38.4,-27.3,17.7,7.8458,-5.8035,-0.0622,0.134,-1.881,-1.4424,-66.9,-56.1,-34.2,11.65,-2.27,-9.21,-0.7592,-3.1787,-1.3941,-47.1875,46.25,44.1875,4.1875,41.6875,172.25,0
1776970421.188,10.0221,-3.5578,2.7031,1.3454,-2.3539,-2.391,-38.4,-27.3,17.7,7.8458,-5.8035,-0.0622,0.134,-1.881,-1.4424,-66.9,-56.1,-34.2,10.89,-2.25,-8.81,-0.6709,-3.2703,-1.4061,-47.1875,46.25,44.1875,4.1875,41.6875,172.25,0
1776970421.198,9.7013,-3.2394,2.5091,1.0904,-2.4043,-2.3318,-38.25,-24.45,19.35,7.5657,-5.7174,-0.0192,-0.0448,-1.7922,-1.4269,-66.9,-56.1,-34.2,10.2,-2.41,-8.33,-0.5334,-3.4056,-1.3952,-47.1875,46.25,44.1875,3.4375,39.875,173.4375,0
1776970421.207,9.6367,-2.7581,2.3918,0.8673,-2.4376,-2.2841,-39.3,-24.9,19.35,7.5513,-5.1332,0.2562,-0.3128,-1.6987,-1.4123,-67.35,-55.65,-36.0,9.37,-2.63,-7.75,-0.4003,-3.4928,-1.333,-47.1875,46.25,44.1875,2.6875,38.0625,174.4375,0
1776970421.215,9.8067,-2.1931,2.1835,0.648,-2.4672,-2.2593,-40.8,-24.45,17.55,7.8362,-5.2241,0.5195,-0.5716,-1.7648,-1.4032,-67.35,-55.65,-36.0,7.58,-2.89,-6.78,-0.2978,-3.4787,-1.2108,-47.1875,46.25,44.1875,2.0,36.1875,175.25,0
1776970421.219,9.8067,-2.1931,2.1835,0.648,-2.4672,-2.2593,-40.8,-24.45,17.55,7.5992,-4.7429,0.0982,-0.7914,-1.87,-1.3523,-67.35,-55.65,-36.0,7.58,-2.89,-6.78,-0.2978,-3.4787,-1.2108,-47.1875,46.25,44.1875,2.0,36.1875,175.25,0
1776970421.224,9.7564,-1.9441,1.798,0.4767,-2.493,-2.2575,-39.3,-23.7,19.35,7.5992,-4.7429,0.0982,-0.7914,-1.87,-1.3523,-67.5,-55.5,-36.9,6.89,-2.93,-6.65,-0.1963,-3.3816,-1.021,-38.875,37.0625,50.875,1.4375,34.375,175.8125,0
1776970421.229,9.7564,-1.9441,1.798,0.4767,-2.493,-2.2575,-39.3,-23.7,19.35,7.5369,-4.628,-0.1772,-1.0232,-1.8985,-1.2881,-67.5,-55.5,-36.9,6.89,-2.93,-6.65,-0.1963,-3.3816,-1.021,-38.875,37.0625,50.875,1.4375,34.375,175.8125,0
1776970421.234,9.7564,-1.5658,1.4174,0.319,-2.5231,-2.282,-39.45,-19.8,18.15,7.5369,-4.628,-0.1772,-1.0232,-1.8985,-1.2881,-68.4,-55.35,-35.25,6.56,-3.17,-6.58,-0.0851,-3.1765,-0.7549,-38.875,37.0625,50.875,0.9375,32.625,176.25,0
1776970421.239,9.7564,-1.5658,1.4174,0.319,-2.5231,-2.282,-39.45,-19.8,18.15,7.8697,-3.474,-0.2514,-0.9443,-2.4131,-1.311,-68.4,-55.35,-35.25,6.56,-3.17,-6.58,-0.0851,-3.1765,-0.7549,-38.875,37.0625,50.875,0.9375,32.625,176.25,0
1776970421.248,9.4763,-1.6137,0.7111,0.1881,-2.5069,-2.3092,-39.45,-19.8,18.15,6.5122,-4.4867,-1.8268,-0.9443,-2.4131,-1.311,-68.1,-53.7,-36.75,6.77,-3.42,-6.92,-0.0131,-2.8754,-0.4352,-38.875,37.0625,50.875,0.6875,31.0625,176.4375,0
1776970421.258,9.414,-1.4653,0.2155,-0.0421,-2.5082,-2.3387,-41.7,-19.8,14.55,6.2441,-3.984,-2.7294,-1.1535,-1.8815,-1.3478,-69.15,-53.4,-37.2,7.28,-3.52,-7.16,-0.0491,-2.5427,-0.1124,-38.875,37.0625,50.875,0.5625,29.625,176.5625,0
1776970421.267,9.3853,-1.5993,0.5914,-0.3054,-2.5026,-2.3385,-41.55,-17.4,15.75,6.754,-3.4165,-3.6703,-1.1034,-1.5524,-1.311,-68.7,-52.8,-38.4,8.36,-3.55,-7.45,-0.2007,-2.2569,0.168,-38.875,37.0625,50.875,0.6875,28.375,176.6875,0
1776970421.272,9.1099,-1.2665,0.4262,-0.5929,-2.4392,-2.3065,-40.8,-17.7,15.75,6.754,-3.4165,-3.6703,-1.1437,-1.4485,-1.1535,-68.7,-52.8,-38.4,8.36,-3.55,-7.45,-0.2007,-2.2569,0.168,-38.875,37.0625,50.875,0.6875,28.375,176.6875,0
1776970421.277,9.1099,-1.2665,0.4262,-0.5929,-2.4392,-2.3065,-40.8,-17.7,15.75,7.015,-2.9736,-3.7469,-1.1437,-1.4485,-1.1535,-69.75,-51.15,-38.4,9.65,-3.35,-7.76,-0.432,-2.0639,0.3949,-28.1875,32.75,48.5625,0.9375,27.25,176.8125,0
1776970421.281,8.5114,-0.9361,0.2801,-0.9294,-2.3435,-2.266,-41.55,-16.2,15.75,7.015,-2.9736,-3.7469,-1.2311,-1.1538,-1.0805,-69.75,-51.15,-38.4,9.65,-3.35,-7.76,-0.432,-2.0639,0.3949,-28.1875,32.75,48.5625,0.9375,27.25,176.8125,0
1776970421.286,8.5114,-0.9361,0.2801,-0.9294,-2.3435,-2.266,-41.55,-16.2,15.75,6.62,-2.557,-3.3615,-1.2311,-1.1538,-1.0805,-69.75,-51.15,-38.4,11.07,-3.5,-7.82,-0.6403,-1.9231,0.5934,-28.1875,32.75,48.5625,1.3125,26.125,177.0625,0
1776970421.291,8.2815,-0.4262,0.4669,-1.1037,-2.0997,-2.1562,-41.55,-16.2,15.75,6.62,-2.557,-3.3615,-1.3853,-0.9987,-1.0179,-69.75,-51.15,-38.4,11.07,-3.5,-7.82,-0.6403,-1.9231,0.5934,-28.1875,32.75,48.5625,1.8125,25.125,177.3125,0
1776970421.298,8.2815,-0.4262,0.4669,-1.1037,-2.0997,-2.1562,-41.55,-16.2,15.75,6.9097,-2.0662,-3.0382,-1.4666,-0.8271,-0.9745,-70.35,-51.0,-37.2,12.09,-4.12,-7.47,-0.7603,-1.8086,0.7821,-28.1875,32.75,48.5625,2.4375,24.1875,177.5,0
1776970421.308,7.9176,-0.0239,0.5626,-1.1149,-1.8668,-2.0251,-41.55,-16.2,15.75,6.8977,-1.8603,-2.9712,-1.5338,-0.5822,-1.0339,-70.35,-51.0,-37.2,12.3,-4.77,-7.31,-0.8225,-1.6395,0.9447,-28.1875,32.75,48.5625,2.4375,24.1875,177.5,0
1776970421.318,8.0637,0.4956,0.565,-1.1423,-1.6537,-1.8746,-42.45,-13.8,12.45,7.197,-1.0702,-2.727,-1.5449,-0.3483,-1.0744,-68.85,-51.45,-39.3,10.85,-6.09,-5.43,-0.9665,-1.5893,1.1388,-28.1875,32.75,48.5625,3.125,23.3125,177.8125,0
1776970421.323,8.3414,0.3543,0.4262,-1.263,-1.4906,-1.7022,-41.55,-10.95,11.85,7.197,-1.0702,-2.727,-1.5449,-0.3483,-1.0744,-68.85,-51.45,-39.3,10.85,-6.09,-5.43,-0.9665,-1.5893,1.1388,-28.1875,32.75,48.5625,3.125,23.3125,177.8125,0
1776970421.328,8.4611,0.2131,0.0527,-1.3595,-1.3638,-1.5095,-41.55,-10.95,11.85,7.2616,-1.0558,-1.9034,-1.6022,-0.1338,-1.0192,-73.05,-49.05,-37.5,9.86,-6.56,-4.03,-1.1694,-1.7017,1.3603,-23.0,28.25,38.1875,4.0,22.3125,178.125,0
1776970421.333,8.4611,0.2131,0.0527,-1.3595,-1.3638,-1.5095,-42.45,-11.55,10.2,7.2616,-1.0558,-1.9034,-1.6022,-0.1338,-1.0192,-73.05,-49.05,-37.5,9.86,-6.56,-4.03,-1.1694,-1.7017,1.3603,-23.0,28.25,38.1875,4.0,22.3125,178.125,0
1776970421.338,8.497,0.1269,-0.1077,-1.4911,-1.2697,-1.3254,-42.45,-11.55,10.2,6.948,-1.6137,-1.7669,-1.8215,0.1964,-0.9454,-72.45,-48.9,-39.9,9.08,-6.84,-2.78,-1.3821,-1.7661,1.5468,-23.0,28.25,38.1875,5.0,21.3125,178.5625,0
1776970421.343,8.497,0.1269,-0.1077,-1.4911,-1.2697,-1.3254,-42.3,-9.9,10.8,6.948,-1.6137,-1.7669,-1.8215,0.1964,-0.9454,-72.45,-48.9,-39.9,9.08,-6.84,-2.78,-1.6537,-1.5119,1.7115,-23.0,28.25,38.1875,6.125,20.4375,179.125,0
1776970421.349,8.7604,0.0479,-0.0646,-1.622,-1.1437,-1.1175,-42.3,-9.9,10.8,7.276,-1.5083,-1.8651,-1.9169,0.4967,-0.8511,-72.45,-47.7,-39.9,8.73,-6.55,-2.14,-1.6537,-1.5119,1.7115,-23.0,28.25,38.1875,7.3125,19.8125,179.75,0
1776970421.358,8.7843,0.0838,-0.0886,-1.7277,-1.0405,-0.9244,-42.3,-9.9,10.8,8.1427,-1.0151,-2.0231,-1.9063,0.5812,-0.6728,-73.35,-47.1,-40.05,9.0,-6.08,-1.81,-1.8151,-1.0952,1.8686,-23.0,28.25,38.1875,8.625,19.375,-179.5625,0
1776970421.368,8.7939,0.0958,-0.2777,-1.8426,-0.8916,-0.7325,-42.9,-6.9,10.5,7.9942,-1.2641,-2.0949,-2.1141,0.7053,-0.4775,-73.95,-46.05,-39.9,8.87,-5.68,-1.51,-1.8413,-0.7919,2.0246,-23.0,28.25,38.1875,8.625,19.375,-179.5625,0
1776970421.373,8.7939,0.0958,-0.2777,-1.8426,-0.8916,-0.7325,-42.6,-6.45,10.05,8.2049,-1.6975,-2.071,-2.2215,0.8348,-0.3174,-73.95,-46.05,-39.9,8.87,-5.68,-1.51,-1.8413,-0.7919,2.0246,-23.0,28.25,38.1875,10.0,19.125,-179.0,0
1776970421.378,8.8633,0.1987,-0.431,-1.8586,-0.7368,-0.5702,-42.6,-6.45,10.05,8.2049,-1.6975,-2.071,-2.2215,0.8348,-0.3174,-73.95,-46.05,-39.9,8.7,-5.4,-1.19,-1.7442,-0.5716,2.1718,-23.25,28.5,34.5625,10.0,19.125,-179.0,0
1776970421.383,8.8633,0.1987,-0.431,-1.8586,-0.7368,-0.5702,-41.7,-4.5,9.9,8.5162,-2.3415,-1.822,-2.3398,0.8881,-0.2233,-73.95,-46.05,-39.9,8.7,-5.4,-1.19,-1.7442,-0.5716,2.1718,-23.25,28.5,34.5625,11.4375,18.9375,-178.5625,0
1776970421.388,8.7125,0.0048,-0.7781,-1.9849,-0.6241,-0.4258,-41.7,-4.5,9.9,8.5162,-2.3415,-1.822,-2.3398,0.8881,-0.2233,-75.45,-45.3,-40.35,8.76,-4.99,-0.77,-1.5872,-0.2934,2.2962,-23.25,28.5,34.5625,11.4375,18.9375,-178.5625,0
1776970421.397,8.5162,-0.3974,0.1269,-2.0483,-0.4676,-0.2659,-42.6,-3.9,7.65,8.7508,-2.2553,-1.968,-2.2748,0.6155,-0.0847,-75.45,-45.3,-40.35,9.02,-4.7,-0.75,-1.4421,0.0513,2.3889,-23.25,28.5,34.5625,12.875,19.0,-178.25,0
1776970421.402,8.5162,-0.3974,0.1269,-2.0483,-0.4676,-0.2659,-41.55,-5.4,8.7,8.2313,-1.4605,-2.5762,-2.0827,0.4461,0.0741,-75.45,-45.3,-40.35,9.02,-4.7,-0.75,-1.4421,0.0513,2.3889,-23.25,28.5,34.5625,14.375,19.3125,-177.9375,0
1776970421.409,7.7979,0.1604,-0.6249,-2.0382,-0.2523,-0.0578,-41.55,-5.4,8.7,8.2313,-1.4605,-2.5762,-2.0827,0.4461,0.0741,-74.85,-44.4,-40.8,10.09,-4.51,-1.17,-1.3221,0.3796,2.4511,-23.25,28.5,34.5625,15.8125,19.75,-177.75,0
1776970421.419,7.6543,0.2179,-0.9146,-1.947,0.04,0.1668,-41.55,-5.4,8.7,8.0014,0.1867,-3.3447,-1.8884,0.5121,0.2936,-73.8,-44.7,-42.0,12.77,-4.34,-2.66,-1.1912,0.7221,2.4664,-23.25,28.5,34.5625,15.8125,19.75,-177.75,0
1776970421.423,7.6543,0.2179,-0.9146,-1.947,0.04,0.1668,-42.45,-2.55,7.35,7.5082,0.9577,-3.7589,-1.5495,0.6171,0.5063,-73.8,-44.7,-42.0,12.77,-4.34,-2.66,-1.1912,0.7221,2.4664,-23.25,28.5,34.5625,17.25,20.25,-177.6875,0
1776970421.429,7.5202,0.8787,-1.0487,-1.7128,0.3504,0.3653,-42.6,-3.15,9.3,7.5082,0.9577,-3.7589,-1.5495,0.6171,0.5063,-75.45,-43.8,-42.9,12.67,-3.76,-2.48,-1.0723,0.841,2.4227,-22.0,28.5,36.6875,17.25,20.25,-177.6875,0
1776970421.433,7.5202,0.8787,-1.0487,-1.7128,0.3504,0.3653,-42.6,-3.15,9.3,7.6279,1.0104,-3.9792,-1.0714,0.5287,0.6595,-75.45,-43.8,-42.9,12.67,-3.76,-2.48,-1.0723,0.841,2.4227,-22.0,28.5,36.6875,18.625,20.6875,-177.5625,0
1776970421.438,7.9583,1.0918,-0.9816,-1.3694,0.635,0.6129,-41.4,-2.55,8.55,7.6279,1.0104,-3.9792,-1.0714,0.5287,0.6595,-75.3,-42.45,-41.25,12.7,-3.16,-2.29,-0.9959,0.649,2.3235,-22.0,28.5,36.6875,18.625,20.6875,-177.5625,0
1776970421.445,9.7157,3.6368,0.1556,-0.8215,0.8887,0.7858,-41.4,-2.55,8.55,7.58,0.5746,-3.0957,-0.659,0.4338,0.8058,-75.3,-43.2,-39.75,12.35,-2.45,-2.23,-0.9054,0.5072,2.1293,-22.0,28.5,36.6875,19.9375,21.0,-177.5625,0
1776970421.45,9.7157,3.6368,0.1556,-0.8215,0.8887,0.7858,-41.85,-3.45,8.7,8.8131,-0.4645,-2.1093,-0.291,0.3914,0.9052,-75.3,-43.2,-39.75,12.35,-2.45,-2.23,-0.9054,0.5072,2.1293,-22.0,28.5,36.6875,21.0,21.25,-177.5625,0
1776970421.459,11.0373,4.7453,-3.2394,-1.0243,1.2185,0.6499,-42.0,-2.25,9.6,11.0804,-0.316,-1.391,-0.291,0.3914,0.9052,-74.85,-42.45,-39.75,3.64,8.8,-6.27,-0.613,0.3632,1.8064,-22.0,28.5,36.6875,22.3125,22.0625,-178.5625,0
1776970421.469,11.2432,8.4827,-0.4357,-0.2388,0.7093,0.4647,-42.0,-2.25,9.6,12.615,-0.0048,-0.6656,0.0165,0.34,0.8588,-74.85,-42.45,-39.75,2.67,1.27,-6.82,0.8399,1.4257,2.5351,-22.0,28.5,36.6875,22.3125,22.0625,-178.5625,0
1776970421.473,16.0675,8.5808,-8.8418,-0.5257,0.6853,0.0474,-42.0,-2.25,9.6,12.615,-0.0048,-0.6656,0.3595,0.149,0.6795,-74.85,-42.45,-39.75,2.67,1.27,-6.82,0.8399,1.4257,2.5351,-22.0,28.5,36.6875,24.0,24.0,-179.875,0
1776970421.479,16.0675,8.5808,-8.8418,-0.5257,0.6853,0.0474,-43.35,-3.9,11.1,14.5137,-0.656,-0.8571,0.3595,0.149,0.6795,-75.15,-44.1,-39.6,3.41,9.72,-14.08,0.8748,3.3707,3.2987,-22.1875,29.6875,35.875,24.0,24.0,-179.875,0
1776970421.483,19.4744,3.6105,-7.446,2.0283,-0.2118,-0.4863,-43.35,-3.9,11.1,14.5137,-0.656,-0.8571,0.579,0.3349,0.3651,-75.15,-44.1,-39.6,3.41,9.72,-14.08,0.8748,3.3707,3.2987,-22.1875,29.6875,35.875,25.5,26.0625,178.75,0
1776970421.489,19.4744,3.6105,-7.446,2.0283,-0.2118,-0.4863,-42.3,-3.9,11.1,17.2526,-5.272,-2.9951,0.7818,0.8873,0.2065,-75.15,-44.1,-39.6,10.38,1.6,-15.15,1.057,3.8092,2.954,-22.1875,29.6875,35.875,25.5,26.0625,178.75,0
1776970421.498,17.4274,0.9649,-1.5419,3.7904,0.093,-0.5726,-42.0,-3.3,11.7,18.069,-7.7716,-8.4635,1.5396,1.0245,-0.2843,-73.95,-44.1,-38.85,5.31,0.59,-11.49,0.4811,3.8583,1.5479,-22.1875,29.6875,35.875,26.3125,28.1875,178.0,0
1776970421.508,14.37,-0.9242,-0.838,3.6268,0.5982,-0.3046,-41.7,-4.5,13.5,16.6397,-6.0501,-11.3796,2.634,1.1143,-0.611,-76.5,-43.95,-35.7,9.65,-5.21,-8.39,1.129,2.5471,0.5716,-22.1875,29.6875,35.875,26.5,29.5625,177.125,0
1776970421.514,11.3174,-1.9321,-0.6297,2.7408,0.922,-0.1092,-41.7,-4.5,13.5,16.6397,-6.0501,-11.3796,2.634,1.1143,-0.611,-76.5,-43.95,-35.7,9.65,-5.21,-8.39,1.7017,1.705,-0.2411,-22.1875,29.6875,35.875,26.1875,30.5625,176.25,0
1776970421.52,11.3174,-1.9321,-0.6297,2.7408,0.922,-0.1092,-40.65,-4.05,13.8,11.9973,-2.636,-5.6216,2.6444,-0.3429,-0.3325,-76.5,-43.5,-33.75,14.4,-6.33,-13.53,1.7017,1.705,-0.2411,-22.1875,29.6875,35.875,26.1875,30.5625,176.25,0
1776970421.525,9.3063,-1.6496,-1.6759,1.631,1.1117,0.1585,-40.65,-4.05,13.8,11.9973,-2.636,-5.6216,2.6444,-0.3429,-0.3325,-76.5,-43.5,-33.75,14.4,-6.33,-13.53,1.2108,1.8337,-0.8007,-21.875,32.25,32.5625,25.5625,31.5625,175.8125,0
1776970421.529,9.3063,-1.6496,-1.6759,1.631,1.1117,0.1585,-40.65,-4.05,13.8,8.2648,-1.7957,-2.7605,2.6033,-0.8143,0.0325,-76.65,-45.0,-33.3,7.25,-3.86,-8.75,1.2108,1.8337,-0.8007,-21.875,32.25,32.5625,25.5625,31.5625,175.8125,0
1776970421.534,8.4635,1.4078,-2.5618,1.0661,1.1383,0.336,-40.65,-4.05,13.8,8.2648,-1.7957,-2.7605,2.6033,-0.8143,0.0325,-76.65,-45.0,-33.3,7.25,-3.86,-8.75,0.9021,-0.2345,-1.0636,-21.875,32.25,32.5625,24.8125,31.5,175.6875,0
1776970421.539,8.4635,1.4078,-2.5618,1.0661,1.1383,0.336,-42.6,-6.15,15.75,6.5314,-3.4548,-2.3008,2.3723,-0.1196,-0.0179,-76.95,-45.0,-32.1,4.61,-6.06,-5.18,0.9021,-0.2345,-1.0636,-21.875,32.25,32.5625,24.8125,31.5,175.6875,0
1776970421.548,8.1355,2.9066,-1.2689,0.9542,1.101,0.4578,-41.7,-5.55,17.1,7.6686,-1.8771,-1.6233,2.2404,0.0879,0.0671,-76.2,-46.05,-31.05,6.37,-5.67,-7.83,0.7985,-0.5629,-0.8508,-21.875,32.25,32.5625,24.25,31.1875,175.5625,0
1776970421.558,9.0309,3.2585,-1.5514,0.9036,0.9593,0.4506,-42.3,-6.45,19.35,8.4731,-0.6081,-1.5874,1.8631,0.2502,0.1889,-74.7,-46.05,-29.85,4.38,-2.48,-7.51,0.4898,0.4789,-0.6523,-21.875,32.25,32.5625,23.8125,31.5,175.5,0
1776970421.568,7.8578,4.5274,-1.3455,0.8713,0.8327,0.2555,-42.0,-7.5,20.55,8.2839,-1.2115,-2.3942,1.4647,0.4916,0.1604,-75.9,-48.0,-28.05,4.72,-1.8,-7.13,0.5138,-0.096,-0.4058,-21.875,32.25,32.5625,23.5,31.5,175.3125,0
1776970421.573,7.4867,5.1427,-0.7709,0.845,0.8756,0.0799,-42.0,-7.5,20.55,8.2839,-1.2115,-2.3942,1.4647,0.4916,0.1604,-75.9,-48.0,-28.05,4.72,-1.8,-7.13,0.5138,-0.096,-0.4058,-21.875,32.25,32.5625,23.5,31.5,175.3125,0
1776970421.577,7.4867,5.1427,-0.7709,0.845,0.8756,0.0799,-42.0,-7.5,20.55,8.157,-1.64,-2.5067,1.0826,0.1087,0.2012,-75.9,-48.0,-28.05,4.58,-0.34,-7.75,0.1265,0.432,-0.2007,-25.0,32.5,28.6875,23.375,31.75,175.3125,0
1776970421.582,7.6064,4.2186,-0.1413,0.7221,0.8884,0.0328,-42.0,-7.5,20.55,8.157,-1.64,-2.5067,1.0826,0.1087,0.2012,-75.9,-48.0,-28.05,4.58,-0.34,-7.75,0.1265,0.432,-0.2007,-25.0,32.5,28.6875,23.375,31.75,175.3125,0
1776970421.587,7.6064,4.2186,-0.1413,0.7221,0.8884,0.0328,-42.0,-7.5,20.55,8.0709,0.4094,0.759,0.7701,0.2334,0.0901,-74.4,-48.9,-27.75,5.11,-0.48,-8.01,0.1265,0.432,-0.2007,-25.0,32.5,28.6875,23.25,32.0,175.3125,0
1776970421.592,9.1913,1.6688,0.5363,0.1974,0.8559,0.1042,-42.0,-7.5,20.55,8.0709,0.4094,0.759,0.7701,0.2334,0.0901,-74.4,-48.9,-27.75,5.11,-0.48,-8.01,0.1265,0.432,-0.2007,-25.0,32.5,28.6875,23.1875,32.1875,175.3125,0
1776970421.599,9.9479,-0.0144,1.0127,-0.5343,0.6997,0.2254,-42.75,-7.8,22.05,8.2768,-0.7829,0.4453,-0.312,0.6901,0.2769,-74.4,-48.9,-27.75,5.55,-0.28,-7.89,0.0338,0.4189,-0.0851,-25.0,32.5,28.6875,23.25,32.5625,175.375,0
1776970421.609,10.386,0.6608,0.6488,-1.1906,0.5963,0.2662,-42.6,-7.2,22.5,8.7747,-2.8419,-0.4764,-1.019,1.0054,0.4956,-76.8,-47.55,-26.7,5.94,-1.84,-7.99,-0.132,0.6676,-0.0109,-25.0,32.5,28.6875,23.25,32.5625,175.375,0
1776970421.619,10.6039,1.6472,0.6943,-1.4512,0.5084,0.2793,-42.75,-8.55,22.35,9.833,-4.8267,-1.0175,-1.271,1.3808,0.3821,-74.55,-47.1,-26.1,6.11,-1.42,-8.37,-0.1636,0.6141,0.0338,-25.0,32.5,28.6875,23.25,32.9375,175.4375,0
1776970421.624,10.6039,1.6472,0.6943,-1.4512,0.5084,0.2793,-42.75,-8.55,22.35,10.0892,-4.4508,-0.8236,-1.2913,1.2644,0.307,-74.55,-47.1,-26.1,6.11,-1.42,-8.37,-0.1636,0.6141,0.0338,-25.0,32.5,28.6875,23.25,32.9375,175.4375,0
1776970421.629,10.3118,2.5426,0.3615,-1.42,0.4674,0.287,-43.2,-7.05,22.35,10.0892,-4.4508,-0.8236,-1.2913,1.2644,0.307,-75.3,-48.6,-26.1,6.31,-1.21,-8.54,-0.0785,0.4821,0.0153,-27.5625,32.6875,27.5,23.3125,33.1875,175.4375,0
1776970421.634,10.3118,2.5426,0.3615,-1.42,0.4674,0.287,-43.2,-7.05,22.35,10.8338,-1.8627,0.5459,-1.3041,1.291,0.2651,-75.3,-48.6,-26.1,6.31,-1.21,-8.54,-0.0785,0.4821,0.0153,-27.5625,32.6875,27.5,23.3125,33.1875,175.4375,0
1776970421.639,9.8402,3.4237,0.3831,-1.2425,0.4557,0.3304,-43.2,-7.05,22.35,10.8338,-1.8627,0.5459,-1.3041,1.291,0.2651,-76.8,-48.3,-27.15,6.15,-1.47,-8.52,0.0262,0.24,-0.0055,-27.5625,32.6875,27.5,23.3125,33.3125,175.4375,0
1776970421.644,9.8402,3.4237,0.3831,-1.2425,0.4557,0.3304,-43.2,-7.05,22.35,11.0995,-0.8523,0.7063,-1.2049,1.2199,0.2878,-76.8,-48.3,-27.15,6.15,-1.47,-8.52,0.0491,0.0458,0.0055,-27.5625,32.6875,27.5,23.3125,33.3125,175.375,0
1776970421.65,9.3613,3.8259,0.0694,-1.117,0.4663,0.3978,-41.7,-7.8,21.6,11.0995,-0.8523,0.7063,-1.2049,1.2199,0.2878,-76.95,-47.25,-26.55,5.94,-1.47,-8.33,0.0491,0.0458,0.0055,-27.5625,32.6875,27.5,23.3125,33.375,175.375,0
1776970421.659,8.8705,4.3144,-0.3472,-1.0024,0.4607,0.4474,-41.85,-7.65,22.5,11.2432,0.6201,-0.0527,-0.9422,0.7069,0.3789,-77.4,-48.45,-25.8,5.64,-0.8,-7.89,0.036,0.0207,0.0022,-27.5625,32.6875,27.5,23.3125,33.375,175.375,0
1776970421.669,8.8442,4.604,-1.087,-0.9065,0.4541,0.4676,-42.9,-7.95,21.15,10.0556,1.482,-0.8236,-0.8324,0.457,0.4354,-77.4,-48.45,-25.8,5.65,-0.55,-7.92,0.0196,0.0513,-0.0022,-27.5625,32.6875,27.5,23.3125,33.375,175.375,0
1776970421.674,8.8442,4.604,-1.087,-0.9065,0.4541,0.4676,-42.3,-9.45,21.15,9.3494,0.7949,-1.5514,-0.7426,0.5028,0.4642,-77.4,-48.45,-25.8,5.65,-0.55,-7.92,0.0196,0.0513,-0.0022,-27.5625,32.6875,27.5,23.3125,33.375,175.375,0
1776970421.679,8.9064,4.2856,-1.6041,-0.7565,0.4636,0.4362,-42.3,-9.45,21.9,9.3494,0.7949,-1.5514,-0.7426,0.5028,0.4642,-75.6,-49.05,-25.35,5.78,-0.48,-7.86,0.0196,0.0415,-0.0065,-28.5625,32.75,27.5625,23.3125,33.375,175.375,0
1776970421.684,8.9064,4.2856,-1.6041,-0.7565,0.4636,0.4362,-41.85,-8.4,22.95,9.5265,0.395,-1.9728,-0.93,0.5862,0.5223,-75.6,-49.05,-25.35,5.78,-0.48,-7.86,0.0196,0.0415,-0.0065,-28.5625,32.75,27.5625,23.3125,33.4375,175.375,0
1776970421.689,9.0261,3.5913,-1.3671,-0.7253,0.453,0.4309,-41.85,-8.4,22.95,9.2656,-0.7374,-2.1955,-0.93,0.5862,0.5223,-75.6,-49.05,-25.35,5.56,-0.66,-7.99,0.0087,0.0447,-0.0022,-28.5625,32.75,27.5625,23.3125,33.5,175.375,0
1776970421.699,9.335,2.4301,-1.1205,-0.8372,0.4506,0.4458,-41.85,-8.4,22.95,9.0549,-1.4629,-2.8778,-1.3027,0.6829,0.6342,-76.65,-48.9,-26.25,5.49,-0.97,-8.0,-0.0185,0.0753,-0.012,-28.5625,32.75,27.5625,23.3125,33.5,175.375,0
1776970421.709,9.4499,2.308,-0.7302,-1.1151,0.4357,0.4783,-40.05,-9.9,22.2,9.177,-1.9345,-2.2051,-1.5031,0.8167,0.7546,-75.45,-48.9,-26.55,5.34,-1.4,-8.04,-0.0338,0.1265,-0.0065,-28.5625,32.75,27.5625,23.3125,33.5625,175.375,0
1776970421.718,9.2727,1.8292,-0.7087,-1.424,0.4311,0.5239,-40.95,-9.3,23.85,9.3541,-1.9992,-1.6616,-1.4485,0.8055,0.7325,-74.4,-49.2,-27.0,5.37,-0.88,-7.83,-0.0502,0.1691,-0.0087,-28.5625,32.75,27.5625,23.3125,33.625,175.375,0
1776970421.723,9.2727,1.8292,-0.7087,-1.424,0.4311,0.5239,-41.55,-9.45,21.45,9.3541,-1.9992,-1.6616,-1.4861,0.729,0.7544,-74.4,-49.2,-27.0,5.37,-0.88,-7.83,-0.0502,0.1691,-0.0087,-28.5625,32.75,27.5625,23.3125,33.625,175.375,0
1776970421.728,9.4212,1.8651,-0.0383,-1.599,0.4034,0.563,-41.55,-9.45,21.45,8.9352,-1.3815,-0.905,-1.4861,0.729,0.7544,-75.15,-48.9,-25.05,5.46,-0.85,-7.8,-0.0404,0.2356,0.0109,-28.0,33.0625,26.75,23.3125,33.75,175.4375,0
1776970421.733,9.4212,1.8651,-0.0383,-1.599,0.4034,0.563,-42.6,-9.15,22.5,8.9352,-1.3815,-0.905,-1.6627,0.66,0.9092,-75.15,-48.9,-25.05,5.46,-0.85,-7.8,-0.0404,0.2356,0.0109,-28.0,33.0625,26.75,23.3125,33.75,175.4375,0
1776970421.738,9.3661,2.7629,0.2155,-1.6443,0.324,0.5654,-42.6,-9.15,22.5,9.2033,-1.0008,-0.0431,-1.6627,0.66,0.9092,-73.95,-50.4,-27.3,5.42,-0.9,-7.86,-0.0098,0.2356,0.0251,-28.0,33.0625,26.75,23.375,33.875,175.375,0
1776970421.743,9.3661,2.7629,0.2155,-1.6443,0.324,0.5654,-40.65,-10.5,22.35,9.2033,-1.0008,-0.0431,-1.541,0.8844,0.9073,-73.95,-50.4,-27.3,5.42,-0.9,-7.86,-0.0098,0.2356,0.0251,-28.0,33.0625,26.75,23.375,34.0625,175.375,0
1776970421.75,9.6534,3.0263,-0.0072,-1.4855,0.3118,0.5444,-40.65,-10.5,22.35,10.1035,-1.257,-0.0215,-1.3947,1.0237,0.8007,-75.3,-49.8,-27.45,5.62,-0.72,-7.83,0.0033,0.2673,0.0207,-28.0,33.0625,26.75,23.375,34.1875,175.375,0
1776970421.759,9.505,3.3064,-0.079,-1.2716,0.3075,0.5199,-40.65,-10.5,22.35,10.3741,-1.2019,0.0886,-1.2598,0.8908,0.7927,-75.3,-49.8,-27.45,5.63,-0.76,-7.84,0.0044,0.2836,0.0185,-28.0,33.0625,26.75,23.375,34.1875,175.375,0
1776970421.769,9.3948,3.395,-0.2514,-1.0371,0.3291,0.5372,-42.45,-8.55,21.6,10.7739,-0.7566,0.012,-1.0738,0.6086,0.7405,-72.45,-49.65,-27.0,5.65,-0.69,-7.78,-0.0185,0.2891,0.0065,-28.0,33.0625,26.75,23.375,34.375,175.375,0
1776970421.774,9.3661,2.727,-0.237,-0.8953,0.3349,0.5311,-39.9,-10.5,22.05,10.7739,-0.7566,0.012,-1.0738,0.6086,0.7405,-72.45,-49.65,-27.0,5.65,-0.69,-7.78,-0.0185,0.2891,0.0065,-28.0,33.0625,26.75,23.375,34.375,175.375,0
1776970421.779,9.3661,2.727,-0.237,-0.8953,0.3349,0.5311,-39.9,-10.5,22.05,9.9192,-1.3527,-1.0199,-0.9395,0.3435,0.6933,-72.45,-49.65,-27.0,5.63,-0.81,-7.63,-0.0567,0.3469,0.0284,-28.0,32.5625,26.75,23.4375,34.5625,175.375,0
1776970421.784,9.232,2.7701,-0.2203,-0.7296,0.3344,0.4916,-41.1,-10.2,23.25,9.9192,-1.3527,-1.0199,-0.9395,0.3435,0.6933,-72.45,-49.65,-27.0,5.63,-0.81,-7.63,-0.0567,0.3469,0.0284,-28.0,32.5625,26.75,23.4375,34.5625,175.375,0
1776970421.789,9.232,2.7701,-0.2203,-0.7296,0.3344,0.4916,-41.1,-10.2,23.25,9.2033,-1.8172,-1.1516,-0.7626,0.2912,0.6566,-73.95,-50.4,-28.05,5.66,-0.8,-7.73,-0.0873,0.4265,0.0491,-28.0,32.5625,26.75,23.5,34.8125,175.375,0
1776970421.794,9.1866,2.5666,-0.2801,-0.6531,0.3547,0.5036,-41.85,-9.45,22.2,9.2033,-1.8172,-1.1516,-0.7626,0.2912,0.6566,-73.95,-50.4,-28.05,5.66,-0.8,-7.73,-0.1134,0.4832,0.0044,-28.0,32.5625,26.75,23.5,35.0625,175.4375,0
1776970421.8,9.1866,2.5666,-0.2801,-0.6531,0.3547,0.5036,-41.85,-9.45,22.2,9.1602,-1.7502,-1.0989,-0.7008,0.4946,0.5708,-74.4,-50.1,-28.5,5.84,-0.78,-7.78,-0.1134,0.4832,0.0044,-28.0,32.5625,26.75,23.5625,35.375,175.4375,0
1776970421.809,9.3805,2.6025,-0.34,-0.6552,0.3603,0.4988,-41.7,-10.8,22.35,9.2632,-1.4126,-1.3551,-0.6797,0.6856,0.5167,-72.0,-50.85,-28.05,6.79,-0.88,-8.14,-0.1145,0.5072,0.0142,-28.0,32.5625,26.75,23.5625,35.375,175.4375,0
1776970421.819,9.5744,2.1739,-0.2705,-0.7048,0.3677,0.5049,-41.7,-10.8,22.35,9.3111,-1.3886,-1.5634,-0.7695,0.6779,0.5836,-72.6,-51.45,-27.45,6.32,-0.43,-7.32,-0.0676,0.3109,0.012,-28.0,32.5625,26.75,23.5625,35.5,175.5,0
1776970421.824,9.572,1.8292,-0.3687,-0.8474,0.3435,0.5119,-41.7,-12.3,23.1,9.7205,-1.7597,-1.7502,-0.7695,0.6779,0.5836,-72.6,-51.45,-27.45,6.32,-0.43,-7.32,-0.0676,0.3109,0.012,-28.0,32.5625,26.75,23.625,35.6875,175.4375,0
1776970421.829,9.572,1.8292,-0.3687,-0.8474,0.3435,0.5119,-41.7,-12.3,23.1,9.7205,-1.7597,-1.7502,-0.8476,0.7147,0.6166,-73.95,-51.15,-27.75,5.66,-0.66,-7.98,-0.0251,0.2716,0.0611,-28.25,32.5625,27.1875,23.625,35.6875,175.4375,0
1776970421.834,9.5864,1.9082,-0.6369,-0.995,0.336,0.538,-40.95,-11.55,23.4,9.4403,-2.3703,-1.7119,-0.8476,0.7147,0.6166,-73.95,-51.15,-27.75,5.66,-0.66,-7.98,-0.0251,0.2716,0.0611,-28.25,32.5625,27.1875,23.625,35.8125,175.4375,0
1776970421.839,9.5864,1.9082,-0.6369,-0.995,0.336,0.538,-40.95,-11.55,23.4,9.4403,-2.3703,-1.7119,-1.0086,0.6395,0.6686,-71.1,-50.55,-28.65,5.89,-0.79,-7.78,0.0305,0.2389,0.0425,-28.25,32.5625,27.1875,23.625,35.8125,175.4375,0
1776970421.844,9.4906,2.0159,-0.4717,-1.0485,0.3379,0.5601,-39.9,-11.55,24.45,9.4092,-1.9034,-1.5538,-1.0464,0.5905,0.6885,-71.1,-50.55,-28.65,5.89,-0.79,-7.78,0.0545,0.24,0.0305,-28.25,32.5625,27.1875,23.625,35.9375,175.375,0
1776970421.85,9.4906,2.0159,-0.4717,-1.0485,0.3379,0.5601,-39.9,-11.55,24.45,9.4092,-1.9034,-1.5538,-1.0464,0.5905,0.6885,-71.1,-50.55,-28.65,5.84,-0.83,-7.77,0.0545,0.24,0.0305,-28.25,32.5625,27.1875,23.6875,36.0625,175.3125,0
1776970421.859,9.2536,2.3128,-0.2897,-1.0296,0.3501,0.5713,-40.05,-13.95,21.45,9.2584,-1.7837,-1.3001,-1.0645,0.6251,0.6827,-72.0,-52.05,-29.55,6.53,-0.75,-7.67,0.0524,0.2738,0.0305,-28.25,32.5625,27.1875,23.6875,36.0625,175.3125,0
1776970421.869,9.4643,2.3894,-0.158,-1.0016,0.3778,0.5857,-40.05,-13.95,21.45,9.3661,-1.6137,-1.0415,-1.0592,0.6979,0.6731,-72.0,-52.05,-29.55,5.76,-0.66,-7.74,0.0589,0.2334,0.0513,-28.25,32.5625,27.1875,23.6875,36.1875,175.25,0
1776970421.874,9.4739,2.5187,-0.2155,-0.9164,0.392,0.595,-40.05,-13.95,21.45,9.5984,-1.3048,-1.0127,-1.0096,0.68,0.6811,-72.0,-52.05,-29.55,5.76,-0.66,-7.74,0.0589,0.2334,0.0513,-28.25,32.5625,27.1875,23.6875,36.1875,175.25,0
1776970421.879,9.4739,2.5187,-0.2155,-0.9164,0.392,0.595,-40.05,-13.95,21.45,9.5984,-1.3048,-1.0127,-1.0096,0.68,0.6811,-70.35,-51.0,-28.65,6.02,-0.81,-7.61,0.048,0.2465,0.0371,-29.5,33.25,26.0,23.6875,36.375,175.1875,0
1776970421.884,9.3206,2.727,-0.3112,-0.7919,0.4287,0.5881,-38.55,-13.65,23.55,9.5648,-0.9697,-1.1277,-0.9009,0.6451,0.6856,-70.35,-51.0,-28.65,6.02,-0.81,-7.61,0.048,0.2465,0.0371,-29.5,33.25,26.0,23.6875,36.375,175.1875,0
1776970421.889,9.3206,2.727,-0.3112,-0.652,0.4612,0.5913,-38.55,-13.65,23.55,9.5648,-0.9697,-1.1277,-0.9009,0.6451,0.6856,-70.8,-50.25,-28.65,6.19,-0.43,-7.63,0.0164,0.3054,0.0262,-29.5,33.25,26.0,23.75,36.5625,175.1875,0
1776970421.894,9.268,2.739,-0.3711,-0.652,0.4612,0.5913,-39.3,-13.95,22.95,9.481,-0.9457,-1.1277,-0.7677,0.6198,0.688,-70.8,-50.25,-28.65,6.19,-0.43,-7.63,-0.0273,0.3512,0.0185,-29.5,33.25,26.0,23.75,36.8125,175.1875,0
1776970421.9,9.4379,2.3942,-0.4118,-0.5841,0.4994,0.5899,-40.2,-12.75,22.8,9.481,-0.9457,-1.1277,-0.7677,0.6198,0.688,-71.7,-50.4,-28.5,6.47,-0.45,-7.59,-0.0273,0.3512,0.0185,-29.5,33.25,26.0,23.75,36.8125,175.1875,0
1776970421.909,9.584,2.2458,-0.6225,-0.5156,0.5092,0.5902,-40.2,-12.75,22.8,9.4355,-1.0582,-1.2306,-0.6488,0.6219,0.6835,-70.8,-50.4,-28.5,5.97,-0.44,-7.63,-0.0295,0.2891,0.0131,-29.5,33.25,26.0,23.75,36.9375,175.1875,0
1776970421.914,9.584,2.2458,-0.6225,-0.5156,0.5092,0.5902,-39.0,-13.2,22.2,9.4619,-1.4676,-1.5371,-0.5153,0.6376,0.6619,-70.8,-51.0,-28.95,5.97,-0.44,-7.63,-0.0284,0.2749,0.0055,-29.5,33.25,26.0,23.75,37.125,175.1875,0
1776970421.92,9.256,2.4541,-0.5866,-0.4868,0.5529,0.5939,-39.0,-13.2,22.2,9.4547,-1.6161,-1.5993,-0.5153,0.6376,0.6619,-69.6,-51.75,-28.65,6.14,-0.65,-7.65,-0.0284,0.2749,0.0055,-29.5,33.25,26.0,23.75,37.125,175.1875,0
1776970421.925,9.256,2.4541,-0.5866,-0.4868,0.5529,0.5939,-39.0,-13.2,22.2,9.4547,-1.6161,-1.5993,-0.481,0.6494,0.6424,-69.6,-51.75,-28.65,6.14,-0.65,-7.65,-0.0218,0.2847,0.0087,-28.6875,32.1875,26.0,23.75,37.3125,175.1875,0
1776970421.93,9.3781,2.4493,-0.431,-0.482,0.5785,0.6097,-39.9,-14.55,23.1,9.4379,-1.3575,-1.5179,-0.4519,0.6502,0.6257,-70.05,-52.2,-27.45,6.19,-0.77,-7.61,-0.0218,0.2847,0.0087,-28.6875,32.1875,26.0,23.75,37.3125,175.1875,0
1776970421.935,9.3781,2.4493,-0.431,-0.482,0.5785,0.6097,-39.9,-14.55,23.1,9.4379,-1.3575,-1.5179,-0.4519,0.6502,0.6257,-70.05,-52.2,-27.45,6.19,-0.77,-7.61,-0.0109,0.2683,-0.0065,-28.6875,32.1875,26.0,23.8125,37.4375,175.1875,0
1776970421.94,9.3613,2.4924,-0.4262,-0.5129,0.5931,0.644,-40.5,-14.7,25.05,9.5385,-1.1875,-1.5179,-0.4261,0.6662,0.6358,-70.05,-52.2,-27.45,6.1,-0.71,-7.63,-0.0109,0.2683,-0.0065,-28.6875,32.1875,26.0,23.8125,37.4375,175.1875,0
1776970421.945,9.3613,2.4924,-0.4262,-0.5129,0.5931,0.644,-40.5,-14.7,25.05,9.5385,-1.1875,-1.5179,-0.4261,0.6662,0.6358,-70.05,-52.2,-27.45,6.1,-0.71,-7.63,-0.0011,0.2738,-0.0076,-28.6875,32.1875,26.0,23.8125,37.625,175.1875,0
1776970421.95,9.1626,2.7773,-0.3424,-0.4916,0.6297,0.6683,-38.55,-15.9,24.75,9.5098,-0.8906,-1.4581,-0.373,0.6829,0.6416,-70.5,-52.05,-26.25,6.2,-0.75,-7.68,-0.0011,0.2738,-0.0076,-28.6875,32.1875,26.0,23.8125,37.625,175.1875,0
1776970421.959,9.1913,2.8467,-0.182,-0.486,0.671,0.7112,-39.0,-14.7,25.8,9.5864,-0.8619,-1.1947,-0.3416,0.6787,0.6531,-70.5,-52.05,-26.25,6.26,-0.7,-7.59,0.0076,0.2847,-0.0109,-28.6875,32.1875,26.0,23.8125,37.75,175.1875,0
1776970421.964,9.1913,2.8467,-0.182,-0.486,0.671,0.7112,-39.0,-14.7,25.8,9.5864,-0.8619,-1.1947,-0.3416,0.6787,0.6531,-70.5,-52.05,-26.25,6.26,-0.7,-7.59,0.0207,0.2727,-0.0196,-28.6875,32.1875,26.0,23.75,37.9375,175.125,0
1776970421.97,9.335,2.66,-0.0934,-0.4501,0.688,0.7282,-37.35,-16.8,23.85,9.4523,-0.9601,-0.8164,-0.34,0.728,0.6712,-68.25,-51.6,-27.0,6.25,-0.66,-7.43,0.0207,0.2727,-0.0196,-28.6875,32.1875,26.0,23.75,37.9375,175.125,0
1776970421.975,9.335,2.66,-0.0934,-0.4501,0.688,0.7282,-37.35,-16.8,23.85,9.4523,-0.9601,-0.8164,-0.34,0.728,0.6712,-68.25,-51.6,-27.0,6.16,-0.67,-7.54,0.0196,0.2585,-0.0098,-30.1875,33.25,26.0625,23.8125,38.0625,175.125,0
1776970421.98,9.2991,2.466,0.2873,-0.4149,0.7186,0.7392,-37.35,-16.8,23.85,9.4715,-0.9792,-0.7901,-0.3078,0.7266,0.6931,-68.7,-53.55,-25.8,6.16,-0.67,-7.54,0.0196,0.2585,-0.0098,-30.1875,33.25,26.0625,23.8125,38.0625,175.125,0
1776970421.985,9.2991,2.466,0.2873,-0.4149,0.7186,0.7392,-37.35,-16.8,23.85,9.4715,-0.9792,-0.7901,-0.3078,0.7266,0.6931,-68.7,-53.55,-25.8,6.13,-0.59,-7.42,0.0175,0.276,0.0011,-30.1875,33.25,26.0625,23.8125,38.25,175.125,0
1776970421.99,9.1267,2.2793,0.2658,-0.4032,0.7634,0.7512,-37.95,-16.95,25.8,9.3087,-1.391,-0.7183,-0.2982,0.6939,0.7109,-69.45,-52.35,-26.55,6.13,-0.59,-7.42,0.0175,0.276,0.0011,-30.1875,33.25,26.0625,23.8125,38.25,175.125,0
1776970421.995,9.1267,2.2793,0.2658,-0.4032,0.7634,0.7512,-37.95,-16.95,25.8,9.3087,-1.391,-0.7183,-0.2982,0.6939,0.7109,-69.45,-52.35,-26.55,6.13,-0.59,-7.42,0.0196,0.2923,0.0196,-30.1875,33.25,26.0625,23.8125,38.4375,175.0625,0
1776970422.0,8.8921,2.0135,0.5411,-0.3928,0.7573,0.7639,-36.6,-18.0,27.3,9.1698,-1.4796,-0.6201,-0.2819,0.6813,0.7168,-67.95,-53.55,-24.75,6.17,-0.66,-7.48,0.0196,0.2923,0.0196,-30.1875,33.25,26.0625,23.8125,38.4375,175.0625,0
1776970422.009,8.9423,2.1021,0.2658,-0.3597,0.8034,0.7799,-36.75,-16.65,28.2,9.086,-1.4437,-0.4884,-0.2393,0.6931,0.7389,-67.95,-53.55,-24.75,6.12,-0.59,-7.34,0.0055,0.2945,0.0415,-30.1875,33.25,26.0625,23.8125,38.5625,175.0625,0
1776970422.014,8.9423,2.1021,0.2658,-0.3597,0.8034,0.7799,-36.75,-16.65,28.2,9.086,-1.4437,-0.4884,-0.2393,0.6931,0.7389,-66.75,-53.1,-24.75,6.12,-0.59,-7.34,-0.0185,0.3196,0.0709,-30.1875,33.25,26.0625,23.875,38.75,175.0,0
1776970422.021,9.2991,1.9632,0.51,-0.3587,0.8378,0.8063,-37.05,-18.0,27.3,9.0836,-1.4676,-0.1149,-0.2038,0.6963,0.7584,-67.65,-53.4,-23.1,6.27,-0.54,-7.28,-0.0185,0.3196,0.0709,-30.1875,33.25,26.0625,23.875,38.75,175.0,0
1776970422.025,9.5074,1.6951,0.7087,-0.2819,0.8612,0.7861,-37.05,-18.0,27.3,9.1339,-1.8986,-0.1269,-0.2038,0.6963,0.7584,-67.65,-53.4,-23.1,6.27,-0.54,-7.28,-0.0185,0.3196,0.0709,-29.875,32.5,25.0,23.9375,38.9375,175.0,0
1776970422.03,9.5074,1.6951,0.7087,-0.2819,0.8612,0.7861,-36.75,-18.15,29.7,9.1339,-1.8986,-0.1269,-0.2012,0.6755,0.7743,-66.75,-54.3,-23.7,6.16,-0.63,-7.51,-0.0273,0.3087,0.0927,-29.875,32.5,25.0,23.9375,38.9375,175.0,0
1776970422.035,9.5313,1.5682,1.2067,-0.2411,0.8879,0.7818,-36.75,-18.15,29.7,9.3182,-2.1428,-0.328,-0.2012,0.6755,0.7743,-66.75,-54.3,-23.7,6.16,-0.63,-7.51,-0.0273,0.3087,0.0927,-29.875,32.5,25.0,24.0,39.125,174.9375,0
1776970422.04,9.5313,1.5682,1.2067,-0.2411,0.8879,0.7818,-36.75,-18.15,29.7,9.3182,-2.1428,-0.328,-0.1223,0.6302,0.7775,-67.65,-52.2,-23.4,6.15,-0.7,-7.61,-0.0698,0.3043,0.1145,-29.875,32.5,25.0,24.0,39.125,174.9375,0
1776970422.045,9.5912,1.3001,1.4413,-0.2497,0.9252,0.7874,-36.75,-18.15,29.7,9.1985,-2.4445,-0.0359,-0.1223,0.6302,0.7775,-67.65,-52.2,-23.4,6.15,-0.7,-7.61,-0.1276,0.3207,0.1451,-29.875,32.5,25.0,24.125,39.25,174.9375,0
1776970422.051,9.5912,1.3001,1.4413,-0.2497,0.9252,0.7874,-35.1,-19.8,30.6,9.1985,-2.4445,-0.0359,-0.0791,0.6875,0.7855,-67.65,-52.2,-23.4,6.21,-0.8,-7.63,-0.1276,0.3207,0.1451,-29.875,32.5,25.0,24.125,39.25,174.9375,0
1776970422.06,9.9934,0.996,0.9649,-0.3144,0.9379,0.8322,-36.3,-20.25,29.55,9.3781,-2.6624,0.0742,-0.0738,0.7981,0.7871,-67.65,-52.2,-23.4,6.17,-0.8,-7.47,-0.192,0.2771,0.1473,-29.875,32.5,25.0,24.25,39.4375,175.0,0
1776970422.064,9.742,0.4022,0.8739,-0.4434,0.9443,0.8439,-36.3,-20.25,29.55,9.4595,-2.818,-0.4597,-0.0738,0.7981,0.7871,-67.2,-54.0,-21.45,6.17,-0.8,-7.47,-0.2225,0.2302,0.1298,-29.875,32.5,25.0,24.375,39.5625,175.0,0
1776970422.071,9.742,0.4022,0.8739,-0.4434,0.9443,0.8439,-35.1,-19.8,30.9,9.4595,-2.818,-0.4597,-0.0885,0.8335,0.8047,-67.2,-54.0,-21.45,6.22,-0.98,-7.76,-0.2225,0.2302,0.1298,-29.875,32.5,25.0,24.375,39.5625,175.0,0
1776970422.076,9.5146,1.0798,1.0846,-0.5897,0.9771,0.8617,-35.1,-19.8,30.9,9.2344,-2.9113,-0.8092,-0.1727,0.7701,0.8244,-67.2,-54.0,-21.45,6.22,-0.98,-7.76,-0.2749,0.3305,0.1396,-30.5625,33.25,24.5625,24.5,39.6875,175.125,0
1776970422.081,9.5146,1.0798,1.0846,-0.5897,0.9771,0.8617,-33.9,-18.45,30.0,9.2344,-2.9113,-0.8092,-0.1727,0.7701,0.8244,-65.4,-52.5,-21.15,6.03,-0.57,-8.03,-0.2749,0.3305,0.1396,-30.5625,33.25,24.5625,24.5,39.6875,175.125,0
1776970422.085,9.8665,1.4054,0.9816,-0.6315,0.9904,0.8953,-33.9,-18.45,30.0,9.1818,-2.7749,-0.2346,-0.2888,0.7989,0.85,-65.4,-52.5,-21.15,6.03,-0.57,-8.03,-0.336,0.4592,0.1429,-30.5625,33.25,24.5625,24.6875,39.9375,175.1875,0
1776970422.09,9.8665,1.4054,0.9816,-0.6315,0.9904,0.8953,-33.9,-20.4,32.55,9.1818,-2.7749,-0.2346,-0.2888,0.7989,0.85,-65.4,-52.5,-21.15,6.27,-0.77,-7.55,-0.336,0.4592,0.1429,-30.5625,33.25,24.5625,24.6875,39.9375,175.1875,0
1776970422.1,10.1969,1.1588,0.8404,-0.6523,1.0155,0.9025,-33.9,-20.4,32.55,9.5481,-2.5786,0.3519,-0.4133,0.8783,0.902,-65.4,-52.2,-19.35,5.88,-0.47,-7.76,-0.3785,0.5247,0.1429,-30.5625,33.25,24.5625,24.875,40.25,175.3125,0
1776970422.11,10.6422,-0.4525,0.3639,-0.7288,0.9521,0.9499,-31.5,-20.25,32.7,10.1945,-2.8587,-0.2849,-0.4647,0.907,0.9411,-65.25,-52.8,-19.5,5.13,-1.47,-8.16,-0.3894,0.6065,0.1265,-30.5625,33.25,24.5625,25.0,40.5625,175.4375,0
1776970422.119,10.5536,-0.3903,0.2682,-0.8202,0.9934,1.0022,-32.1,-20.4,32.85,10.1658,-3.5003,-1.8076,-0.5428,0.8812,0.9862,-65.55,-51.6,-19.2,6.22,-1.66,-7.81,-0.4843,0.8094,0.0524,-30.5625,33.25,24.5625,25.125,41.0,175.6875,0
1776970422.124,10.1993,-0.0742,0.2274,-0.9126,1.0267,1.0797,-32.1,-20.4,32.85,9.6414,-3.5626,-2.3703,-0.5335,0.7791,1.0365,-65.25,-51.6,-19.2,6.22,-1.66,-7.81,-0.4843,0.8094,0.0524,-30.5625,33.25,24.5625,25.125,41.0,175.6875,0
1776970422.129,10.1993,-0.0742,0.2274,-0.9126,1.0267,1.0797,-31.5,-23.55,32.4,9.6414,-3.5626,-2.3703,-0.5335,0.7791,1.0365,-65.25,-51.6,-19.2,6.51,-2.19,-7.5,-0.5607,0.9817,-0.1222,-31.0,33.25,24.5625,25.25,41.5625,176.0,0
1776970422.133,10.0844,0.1915,0.0287,-0.9054,1.0704,1.1431,-31.5,-23.55,32.4,9.3494,-3.2394,-2.0758,-0.4932,0.8162,1.0736,-64.5,-52.05,-18.75,6.51,-2.19,-7.5,-0.5607,0.9817,-0.1222,-31.0,33.25,24.5625,25.25,41.5625,176.0,0
1776970422.138,10.0844,0.1915,0.0287,-0.9054,1.0704,1.1431,-31.2,-21.3,31.95,9.3494,-3.2394,-2.0758,-0.4932,0.8162,1.0736,-64.5,-52.05,-18.75,7.38,-0.29,-7.54,-0.5956,1.1443,-0.2934,-31.0,33.25,24.5625,25.1875,42.1875,176.4375,0
1776970422.143,9.979,0.2729,-0.1197,-0.8689,1.1287,1.2113,-31.2,-21.3,31.95,9.2057,-2.7557,-1.8316,-0.4639,0.9134,1.1143,-64.5,-52.05,-18.75,7.38,-0.29,-7.54,-0.5956,1.1443,-0.2934,-31.0,33.25,24.5625,25.1875,42.8125,177.0,0
1776970422.15,9.979,0.2729,-0.1197,-0.8807,1.2089,1.2654,-31.2,-21.3,31.95,9.2296,-2.478,-1.9992,-0.4639,0.9134,1.1143,-64.5,-52.05,-18.75,6.84,-1.27,-7.3,-0.6916,1.1061,-0.3327,-31.0,33.25,24.5625,25.0625,43.5,177.5625,0
1776970422.16,9.7564,0.5722,-0.0575,-0.9683,1.2462,1.3025,-31.2,-21.3,31.95,9.3278,-2.2913,-1.9465,-0.4122,0.9494,1.1479,-62.4,-52.95,-17.1,6.1,-1.76,-7.25,-0.685,1.2163,-0.4756,-31.0,33.25,24.5625,25.0625,43.5,177.5625,0
1776970422.17,10.0413,1.0127,0.2897,-0.9963,1.2881,1.3702,-30.45,-23.25,34.5,9.5265,-1.9992,-1.3623,-0.4197,0.9547,1.1461,-62.4,-52.95,-17.1,7.17,-0.33,-7.11,-0.8476,1.3537,-0.6578,-31.0,33.25,24.5625,24.9375,44.3125,178.375,0
1776970422.175,10.0413,1.0127,0.2897,-0.9963,1.2881,1.3702,-30.45,-23.25,34.5,9.5265,-1.9992,-1.3623,-0.3813,0.9406,1.1575,-61.2,-52.2,-16.8,7.17,-0.33,-7.11,-0.8476,1.3537,-0.6578,-31.0,33.25,24.5625,24.9375,44.3125,178.375,0
1776970422.18,10.4555,0.589,0.2586,-1.092,1.3203,1.441,-29.1,-22.2,35.7,9.6965,-1.9537,-1.2402,-0.3813,0.9406,1.1575,-61.2,-52.2,-16.8,6.16,-1.46,-7.26,-0.9981,1.4126,-0.7189,-31.6875,32.5,24.0625,23.4375,45.0625,179.3125,0
1776970422.185,10.4555,0.589,0.2586,-1.092,1.3203,1.441,-29.1,-22.2,35.7,9.6965,-1.9537,-1.2402,-0.417,1.02,1.1543,-60.75,-51.6,-15.9,6.16,-1.46,-7.26,-0.9981,1.4126,-0.7189,-31.6875,32.5,24.0625,23.4375,45.0625,179.3125,0
1776970422.19,11.1115,0.407,0.0,-1.1509,1.3651,1.4991,-28.5,-24.9,34.65,10.1011,-2.0973,-1.8148,-0.481,1.0658,1.162,-60.75,-51.6,-15.9,6.81,0.09,-7.65,-1.0745,1.4901,-0.8018,-31.6875,32.5,24.0625,25.3125,45.875,-179.5625,0
1776970422.196,11.1115,0.407,0.0,-1.1509,1.3651,1.4991,-26.7,-24.9,37.2,10.1011,-2.0973,-1.8148,-0.481,1.0658,1.162,-61.2,-51.75,-16.35,6.24,-0.02,-7.88,-1.1028,1.6384,-0.6152,-31.6875,32.5,24.0625,27.0625,46.8125,-178.625,0
1776970422.201,11.7507,0.9409,-0.2849,-1.2361,1.408,1.5649,-26.7,-24.9,37.2,10.6279,-1.9154,-2.2242,-0.5351,1.1146,1.2335,-61.2,-51.75,-16.35,6.24,-0.02,-7.88,-1.1028,1.6384,-0.6152,-31.6875,32.5,24.0625,28.5,47.875,-177.6875,0
1776970422.21,12.7395,-0.4741,-1.7526,-1.4376,1.4445,1.6667,-26.7,-24.9,37.2,11.3294,-2.162,-3.1723,-0.5894,1.3291,1.2857,-61.05,-51.6,-13.2,6.35,-0.13,-8.02,-0.9654,1.9035,-0.5421,-31.6875,32.5,24.0625,29.75,49.125,-176.8125,0
1776970422.22,13.2615,-1.4054,-1.9968,-1.591,1.4973,1.7235,-26.1,-25.5,37.35,11.3294,-2.636,-4.8698,-0.7176,1.6145,1.3731,-60.9,-51.0,-14.25,5.86,-0.14,-7.92,-0.8934,2.2875,-0.4996,-31.6875,32.5,24.0625,29.75,49.125,-176.8125,0
1776970422.225,13.2615,-1.4054,-1.9968,-1.591,1.4973,1.7235,-25.95,-27.45,37.8,11.3294,-2.636,-4.8698,-0.7176,1.6145,1.3731,-60.3,-51.15,-12.9,5.86,-0.14,-7.92,-0.8934,2.2875,-0.4996,-31.6875,32.5,24.0625,30.625,50.5,-176.0,0
1776970422.23,13.7044,-1.0295,-1.3934,-1.748,1.5649,1.7986,-25.95,-27.45,37.8,11.3413,-4.1827,-6.3039,-0.9824,1.7166,1.5226,-60.3,-51.15,-12.9,4.85,4.15,-9.53,-0.6054,2.5722,-0.588,-35.0,30.5625,23.0,30.625,50.5,-176.0,0
1776970422.235,13.7044,-1.0295,-1.3934,-1.748,1.5649,1.7986,-24.75,-27.45,39.3,11.3413,-4.1827,-6.3039,-0.9824,1.7166,1.5226,-60.3,-51.15,-12.9,4.85,4.15,-9.53,-0.6054,2.5722,-0.588,-35.0,30.5625,23.0,30.5,51.6875,-175.5625,0
1776970422.24,14.1282,0.5243,-2.9305,-2.0395,1.6246,1.9153,-24.75,-27.45,39.3,11.169,-4.3574,-6.3805,-1.0736,1.6409,1.752,-60.3,-51.15,-12.9,7.39,2.34,-6.76,0.3829,2.2046,-0.7799,-35.0,30.5625,23.0,30.5,51.6875,-175.5625,0
1776970422.245,14.1282,0.5243,-2.9305,-2.0395,1.6246,1.9153,-22.95,-26.4,38.25,11.169,-4.3574,-6.3805,-1.0736,1.6409,1.752,-58.95,-52.2,-13.05,7.39,2.34,-6.76,0.5716,1.1977,-0.6927,-35.0,30.5625,23.0,30.125,52.3125,-175.3125,0
1776970422.251,14.212,0.838,-3.9049,-2.3246,1.6252,2.0145,-22.95,-26.4,38.25,12.5959,-3.2561,-5.3941,-1.0147,1.7443,1.8863,-58.95,-52.2,-13.05,7.38,-2.57,-8.21,0.5716,1.1977,-0.6927,-35.0,30.5625,23.0,30.3125,53.5625,-174.8125,0
1776970422.26,13.0005,1.992,-3.1795,-2.5231,1.6758,2.1088,-21.9,-27.9,38.55,13.1226,-2.8299,-5.6575,-0.9137,1.8788,1.8839,-58.95,-52.2,-13.05,4.95,1.43,-10.76,-0.1582,2.3006,-0.3709,-35.0,30.5625,23.0,30.3125,53.5625,-174.8125,0
1776970422.27,11.9207,2.545,-1.7214,-2.5687,1.7072,2.1717,-21.9,-27.9,38.55,13.3405,-1.6496,-4.4365,-0.7954,1.7488,1.6363,-57.45,-51.0,-12.3,7.57,1.88,-10.15,-0.288,3.5179,-0.5061,-35.0,30.5625,23.0,30.6875,55.5,-174.0,0
1776970422.275,11.9207,2.545,-1.7214,-2.5687,1.7072,2.1717,-21.6,-29.7,37.8,13.6517,-0.826,-2.0494,-0.7954,1.7488,1.6363,-57.6,-50.1,-11.4,7.57,1.88,-10.15,-0.288,3.5179,-0.5061,-35.0,30.5625,23.0,30.6875,55.5,-174.0,0
1776970422.28,10.2999,2.8371,0.7709,-2.2719,1.7637,2.0843,-21.6,-29.7,37.8,13.6517,-0.826,-2.0494,-0.6126,1.3334,1.2713,-57.6,-50.1,-11.4,6.58,1.76,-9.02,-0.1636,3.1634,-0.5563,-37.875,31.0,21.375,30.9375,57.1875,-173.1875,0
1776970422.285,10.2999,2.8371,0.7709,-2.2719,1.7637,2.0843,-19.05,-27.9,38.55,12.6222,2.8802,2.0949,-0.6126,1.3334,1.2713,-57.6,-50.4,-12.9,6.58,1.76,-9.02,-0.1636,3.1634,-0.5563,-37.875,31.0,21.375,30.9375,57.1875,-173.1875,0
1776970422.29,9.9,2.9664,2.6456,-1.9159,1.784,1.9417,-19.05,-27.9,38.55,12.6222,2.8802,2.0949,-0.223,0.3813,1.274,-57.6,-50.4,-12.9,11.42,1.47,-7.8,-0.1276,3.1274,-0.5618,-37.875,31.0,21.375,31.125,58.875,-172.25,0
1776970422.296,12.0452,1.8364,2.9161,-1.6489,1.9556,1.8975,-19.05,-30.15,39.0,10.7739,1.3886,0.1149,-0.5143,-0.2084,1.3049,-56.7,-49.8,-11.25,11.1,0.0,-9.81,0.1134,3.4383,-0.5454,-37.875,31.0,21.375,31.0,60.75,-171.3125,0
1776970422.301,12.0452,1.8364,2.9161,-1.6489,1.9556,1.8975,-19.05,-30.15,39.0,10.7739,1.3886,0.1149,-0.5143,-0.2084,1.3049,-56.7,-49.8,-11.25,11.1,0.0,-9.81,0.1134,3.4383,-0.5454,-37.875,31.0,21.375,31.0,62.6875,-170.25,0
1776970422.311,13.2375,0.8452,4.2641,-1.3843,1.9729,1.781,-17.85,-30.15,39.3,8.9759,-4.2617,-2.4301,-0.9662,-0.4391,1.368,-57.0,-50.55,-12.75,12.4,1.36,-11.34,-0.0022,3.6968,-0.4374,-37.875,31.0,21.375,31.125,65.0625,-169.0625,0
1776970422.32,12.2463,-1.2426,4.6328,-1.214,1.9494,1.7104,-16.2,-30.0,39.15,8.576,-4.0294,7.1922,-0.1119,0.137,1.0653,-55.5,-47.55,-12.3,14.06,1.05,-9.36,-0.5127,4.2771,-0.0676,-37.875,31.0,21.375,31.125,65.0625,-169.0625,0
1776970422.325,11.5137,-2.6576,6.7971,-0.5798,1.8794,1.7277,-16.2,-30.0,39.15,8.3965,-6.2297,4.9392,0.1482,0.4879,0.8577,-55.5,-47.55,-12.3,14.06,1.05,-9.36,-0.5127,4.2771,-0.0676,-41.1875,31.0,15.0625,31.5,67.75,-167.5,0
1776970422.33,11.5137,-2.6576,6.7971,-0.5798,1.8794,1.7277,-16.2,-30.0,39.15,8.3965,-6.2297,4.9392,0.1482,0.4879,0.8577,-55.5,-47.55,-12.3,19.12,-0.42,-13.21,-1.033,4.9491,0.2454,-41.1875,31.0,15.0625,31.5,67.75,-167.5,0
1776970422.335,10.2687,-3.225,6.6367,-0.5971,1.9548,1.7864,-14.25,-28.65,39.3,7.2688,-7.4292,3.632,-0.0301,0.9385,0.8519,-56.1,-48.45,-11.85,19.12,-0.42,-13.21,-1.033,4.9491,0.2454,-41.1875,31.0,15.0625,32.625,70.625,-164.9375,0
1776970422.34,10.2687,-3.225,6.6367,-0.5971,1.9548,1.7864,-14.25,-28.65,39.3,7.2688,-7.4292,3.632,-0.0301,0.9385,0.8519,-56.1,-48.45,-11.85,19.6,-1.81,-15.87,-2.0486,5.2622,0.2771,-41.1875,31.0,15.0625,32.625,70.625,-164.9375,0
1776970422.345,9.8904,-3.9887,6.2273,-0.7093,1.756,1.8724,-14.1,-28.5,40.2,7.5824,-7.5944,5.7126,-0.3597,1.392,0.8577,-56.1,-48.45,-11.85,19.6,-1.81,-15.87,-2.5885,4.023,0.5421,-41.1875,31.0,15.0625,33.9375,72.875,-162.4375,0
1776970422.351,9.8904,-3.9887,6.2273,-0.7093,1.756,1.8724,-14.1,-28.5,40.2,7.5824,-7.5944,5.7126,-0.3597,1.392,0.8577,-56.1,-48.45,-11.85,15.16,-0.32,-14.26,-2.5885,4.023,0.5421,-41.1875,31.0,15.0625,35.1875,74.375,-161.0,0
1776970422.36,8.904,-4.276,6.4165,-0.8196,1.623,1.8772,-13.05,-28.5,41.25,8.0852,-8.916,5.9041,-0.0999,1.1018,0.6507,-56.1,-47.25,-10.65,5.76,0.54,-9.23,-2.5896,2.6016,0.8388,-41.1875,31.0,15.0625,35.1875,74.375,-161.0,0
1776970422.37,8.1786,-3.9792,6.6798,-0.639,1.4472,1.821,-10.95,-27.45,40.05,8.5665,-8.6191,4.8961,-0.052,0.9438,0.3701,-55.5,-47.1,-11.55,1.05,1.47,-9.03,-2.6769,2.114,1.2872,-41.1875,31.0,15.0625,36.25,75.6875,-160.625,0
1776970422.375,8.1547,-5.0781,5.5929,-0.7597,1.0965,1.6403,-11.7,-29.4,40.35,8.6503,-8.8155,5.2313,-0.0839,0.8857,0.3917,-57.6,-45.75,-11.85,1.05,1.47,-9.03,-2.6769,2.114,1.2872,-41.1875,31.0,15.0625,37.0625,77.1875,-161.9375,0
1776970422.38,8.1547,-5.0781,5.5929,-0.7597,1.0965,1.6403,-11.7,-29.4,40.35,8.6503,-8.8155,5.2313,-0.0839,0.8857,0.3917,-57.6,-45.75,-11.85,-1.01,2.59,-11.17,-2.9332,2.0693,2.0649,-42.0,29.5,5.25,37.0625,77.1875,-161.9375,0
1776970422.385,7.1371,-4.4053,7.5417,-0.227,0.6739,1.2793,-11.7,-29.4,40.35,9.0381,-9.8043,5.4372,-0.0179,0.6736,0.6675,-56.1,-46.95,-11.85,-1.01,2.59,-11.17,-2.9332,2.0693,2.0649,-42.0,29.5,5.25,37.0625,77.1875,-161.9375,0
1776970422.39,7.1371,-4.4053,7.5417,-0.227,0.6739,1.2793,-11.7,-29.4,40.35,8.2528,-9.5313,4.8243,-0.0179,0.6736,0.6675,-56.1,-46.95,-11.85,15.58,1.79,-10.59,-2.894,2.6082,2.1871,-42.0,29.5,5.25,37.6875,78.9375,-163.8125,0
1776970422.398,5.7054,-2.7461,6.4212,-0.2137,0.4445,0.919,-10.8,-28.5,41.25,8.2528,-9.5313,4.8243,0.0229,0.3904,0.6739,-57.3,-45.0,-12.15,6.53,11.27,-19.29,-2.834,2.294,2.2177,-42.0,29.5,5.25,38.25,80.4375,-167.0625,0
1776970422.403,6.3901,-1.561,5.5952,-0.4237,0.1255,0.6251,-11.7,-29.7,41.1,8.7628,-6.3566,7.9176,-0.4474,-0.0032,0.3262,-57.3,-45.0,-12.15,6.53,11.27,-19.29,-2.834,2.294,2.2177,-42.0,29.5,5.25,37.375,80.5625,-174.4375,0
1776970422.411,6.3901,-1.561,5.5952,-0.4237,0.1255,0.6251,-10.35,-27.45,40.35,9.7851,-5.4923,9.086,-0.3714,-0.4285,-0.052,-57.6,-44.55,-11.4,3.2,8.36,-12.51,-0.6316,-0.2105,2.3137,-42.0,29.5,5.25,35.0625,79.75,176.875,0
1776970422.421,7.2784,-1.2378,5.2984,-0.1924,-0.3254,0.3035,-9.9,-26.7,41.1,10.0078,-4.7118,7.0557,-0.2534,-0.9278,-0.3573,-56.55,-45.0,-12.15,-0.11,4.76,-9.34,1.4552,-1.4737,2.4064,-42.0,29.5,5.25,35.0625,79.75,176.875,0
1776970422.425,7.0677,-1.0918,5.0182,0.2894,-0.8295,0.0416,-9.9,-26.7,41.1,10.0078,-4.7118,7.0557,-0.2534,-0.9278,-0.3573,-57.0,-44.4,-13.8,-0.11,4.76,-9.34,1.4552,-1.4737,2.4064,-42.0,29.5,5.25,35.0625,79.75,176.875,0
1776970422.43,7.0677,-1.0918,5.0182,0.2894,-0.8295,0.0416,-9.9,-26.7,41.1,10.556,-5.1499,7.3358,0.0091,-1.3214,-0.724,-57.0,-44.4,-13.8,-1.38,0.21,-6.27,2.2133,-1.6384,2.2078,-39.5,31.375,1.0,32.375,78.6875,169.8125,0
1776970422.435,6.2249,-1.4198,4.7812,0.8021,-1.2209,-0.1727,-9.9,-26.7,41.1,10.556,-5.1499,7.3358,0.0091,-1.3214,-0.724,-57.0,-44.4,-13.8,-1.38,0.21,-6.27,2.2133,-1.6384,2.2078,-39.5,31.375,1.0,32.375,78.6875,169.8125,0
1776970422.44,6.2249,-1.4198,4.7812,0.8021,-1.2209,-0.1727,-9.9,-26.7,41.1,9.4882,-4.64,7.8985,0.4117,-1.6998,-1.1938,-57.0,-44.4,-13.8,-1.1,-0.32,-6.22,2.0857,-1.6112,1.8544,-39.5,31.375,1.0,29.875,77.625,164.8125,0
1776970422.445,5.8514,-2.5259,4.8554,1.1146,-1.5226,-0.3467,-9.9,-26.7,41.1,9.4882,-4.64,7.8985,0.4117,-1.6998,-1.1938,-58.8,-43.8,-11.85,-1.1,-0.32,-6.22,1.5817,-1.4726,1.4868,-39.5,31.375,1.0,27.875,76.5625,161.5,0
1776970422.451,5.9328,-3.7948,5.3965,1.1972,-1.8205,-0.5241,-14.25,-25.2,40.65,8.2983,-4.8818,7.4747,0.8399,-2.1949,-1.3949,-58.8,-43.8,-11.85,-0.66,0.08,-6.61,1.5817,-1.4726,1.4868,-39.5,31.375,1.0,26.375,75.5625,159.75,0
1776970422.461,5.8251,-3.9433,5.4109,1.2569,-2.1328,-0.6781,-14.25,-25.65,39.6,7.3358,-5.7437,5.351,1.121,-2.748,-1.5372,-58.8,-43.8,-11.85,0.62,2.29,-7.12,1.1454,-1.633,1.0865,-39.5,31.375,1.0,26.375,75.5625,159.75,0
1776970422.471,5.5306,-3.5147,5.6096,1.3254,-2.4448,-0.7381,-14.1,-23.55,39.9,5.8155,-5.8299,4.7333,1.2481,-2.9135,-1.6129,-59.55,-42.6,-13.95,1.91,3.52,-7.81,0.9512,-1.837,0.6338,-39.5,31.375,1.0,25.25,74.4375,159.3125,0
1776970422.475,5.5306,-3.5147,5.6096,1.3254,-2.4448,-0.7381,-14.1,-23.55,39.9,5.8155,-5.8299,4.7333,1.2481,-2.9135,-1.6129,-61.95,-42.45,-13.05,1.91,3.52,-7.81,0.9512,-1.837,0.6338,-39.5,31.375,1.0,24.1875,73.4375,159.75,0
1776970422.481,5.1332,-2.9281,5.5905,1.501,-2.6063,-0.8641,-16.8,-24.45,39.3,5.6,-6.043,5.0159,1.4906,-2.6798,-1.5865,-61.95,-42.45,-13.05,3.35,4.48,-8.6,1.117,-1.9308,0.1658,-36.75,30.875,-1.5,24.1875,73.4375,159.75,0
1776970422.485,5.1332,-2.9281,5.5905,1.501,-2.6063,-0.8641,-16.8,-24.45,39.3,5.6,-6.043,5.0159,1.4906,-2.6798,-1.5865,-60.9,-40.8,-12.75,3.35,4.48,-8.6,1.117,-1.9308,0.1658,-36.75,30.875,-1.5,24.1875,73.4375,159.75,0
1776970422.49,5.4803,-2.8132,5.2816,1.6638,-2.7262,-0.934,-16.8,-24.45,39.3,5.8849,-6.2441,5.4205,1.72,-2.3752,-1.5322,-60.9,-40.8,-12.75,4.36,4.66,-9.15,1.4584,-2.3736,-0.2334,-36.75,30.875,-1.5,23.0625,72.25,160.75,0
1776970422.496,5.4803,-2.8132,5.2816,1.6638,-2.7262,-0.934,-16.8,-24.45,39.3,7.0078,-5.9544,5.4995,1.72,-2.3752,-1.5322,-63.45,-40.8,-14.85,4.36,4.66,-9.15,1.8075,-3.0794,-0.5312,-36.75,30.875,-1.5,21.75,70.6875,162.1875,0
1776970422.502,5.4157,-2.5762,4.6639,1.9393,-2.8663,-1.0648,-18.3,-22.95,39.6,7.0078,-5.9544,5.4995,1.8634,-2.3062,-1.4218,-63.45,-40.8,-14.85,4.35,2.7,-7.81,1.8075,-3.0794,-0.5312,-36.75,30.875,-1.5,20.375,68.9375,163.75,0
1776970422.511,5.8107,-2.1404,4.5011,2.3872,-2.9338,-1.1687,-19.35,-20.7,38.55,7.082,-5.7485,4.8315,2.0248,-2.792,-1.3707,-64.65,-40.5,-14.25,4.16,2.17,-6.75,1.9471,-3.5986,-0.7363,-36.75,30.875,-1.5,20.375,68.9375,163.75,0
1776970422.521,6.4117,-2.2841,4.4412,2.788,-3.0249,-1.2356,-19.2,-20.25,38.7,7.7548,-5.2337,4.3239,2.2415,-3.4315,-1.3763,-64.35,-39.6,-14.55,4.49,1.98,-6.08,1.9035,-3.7328,-0.9381,-36.75,30.875,-1.5,19.0625,67.0625,165.3125,0
1776970422.525,6.4117,-2.2841,4.4412,2.788,-3.0249,-1.2356,-19.2,-20.25,38.7,7.3837,-5.4133,5.4013,2.2415,-3.4315,-1.3763,-64.35,-39.6,-14.55,4.49,1.98,-6.08,1.9035,-3.7328,-0.9381,-36.75,30.875,-1.5,19.0625,67.0625,165.3125,0
1776970422.53,6.8163,-2.5522,4.7357,3.177,-3.2127,-1.2894,-21.6,-19.65,39.3,7.3837,-5.4133,5.4013,2.2737,-4.079,-1.3896,-64.35,-39.6,-14.55,5.87,2.07,-6.15,1.7857,-3.7066,-1.1945,-37.5625,28.5625,1.75,17.875,65.1875,166.875,0
1776970422.535,6.8163,-2.5522,4.7357,3.177,-3.2127,-1.2894,-21.6,-19.65,39.3,6.6391,-5.8203,6.4476,2.2737,-4.079,-1.3896,-64.8,-39.45,-14.7,5.87,2.07,-6.15,1.7857,-3.7066,-1.1945,-37.5625,28.5625,1.75,17.875,65.1875,166.875,0
1776970422.54,7.7069,-3.0909,5.3199,3.2985,-3.4563,-1.3283,-22.8,-17.25,39.45,6.6391,-5.8203,6.4476,2.1957,-4.4289,-1.4051,-64.8,-39.45,-14.7,6.56,2.48,-6.53,1.693,-3.6401,-1.4923,-37.5625,28.5625,1.75,16.9375,63.4375,168.5625,0
1776970422.545,7.7069,-3.0909,5.3199,3.2985,-3.4563,-1.3283,-22.8,-17.25,39.45,6.0478,-6.6391,6.3422,2.1448,-4.4736,-1.5463,-64.8,-39.45,-14.7,6.56,2.48,-6.53,1.6962,-3.6794,-1.8293,-37.5625,28.5625,1.75,16.0625,61.625,170.25,0
1776970422.551,8.4779,-4.1204,6.189,3.2058,-3.7627,-1.3203,-22.8,-17.25,39.45,6.0478,-6.6391,6.3422,2.1448,-4.4736,-1.5463,-64.8,-39.45,-14.7,7.0,3.3,-6.75,1.6962,-3.6794,-1.8293,-37.5625,28.5625,1.75,15.25,59.75,171.875,0
1776970422.561,8.8538,-4.3814,5.9903,2.8045,-3.9983,-1.2769,-24.6,-16.5,38.7,5.715,-6.8618,5.1499,1.9566,-4.3058,-1.659,-66.15,-35.7,-16.05,7.32,3.63,-7.01,1.8413,-3.7426,-2.1195,-37.5625,28.5625,1.75,15.25,59.75,171.875,0
1776970422.571,8.9807,-4.1755,5.8251,2.5023,-4.1339,-1.2476,-25.05,-15.0,38.1,6.0094,-6.2153,4.6711,1.6276,-3.873,-1.5511,-66.6,-36.9,-16.35,7.56,3.38,-6.82,2.1435,-3.8855,-2.3409,-37.5625,28.5625,1.75,14.125,57.75,173.25,0
1776970422.576,8.9807,-4.1755,5.8251,2.5023,-4.1339,-1.2476,-25.05,-15.0,38.1,7.197,-5.7533,4.3886,1.4602,-3.4779,-1.3765,-68.25,-35.1,-18.0,7.56,3.38,-6.82,2.1435,-3.8855,-2.3409,-37.5625,28.5625,1.75,12.875,55.8125,174.375,0
1776970422.581,8.928,-3.3136,5.6647,2.3601,-4.1904,-1.2007,-25.35,-14.25,37.05,7.197,-5.7533,4.3886,1.4602,-3.4779,-1.3765,-68.25,-35.1,-18.0,8.8,3.68,-7.38,2.342,-3.8245,-2.4882,-40.1875,26.375,8.75,12.875,55.8125,174.375,0
1776970422.585,8.928,-3.3136,5.6647,2.3601,-4.1904,-1.2007,-25.35,-14.25,37.05,7.5154,-5.1619,3.7254,1.3949,-3.3969,-1.222,-68.85,-34.5,-19.8,8.8,3.68,-7.38,2.342,-3.8245,-2.4882,-40.1875,26.375,8.75,12.875,55.8125,174.375,0
1776970422.59,8.8466,-2.3056,5.3798,2.4901,-4.1864,-1.1628,-26.4,-12.3,35.25,7.5154,-5.1619,3.7254,1.3949,-3.3969,-1.222,-68.85,-34.5,-19.8,10.28,4.01,-8.03,2.4227,-3.7066,-2.5776,-40.1875,26.375,8.75,11.5,53.875,175.3125,0
1776970422.595,8.8466,-2.3056,5.3798,2.4901,-4.1864,-1.1628,-26.4,-12.3,35.25,7.7093,-5.0566,3.5985,1.5199,-3.561,-1.1253,-67.65,-34.5,-19.05,10.28,4.01,-8.03,2.4576,-3.6554,-2.6365,-40.1875,26.375,8.75,10.0,51.9375,176.125,0
1776970422.601,8.8418,-1.2115,5.351,2.7771,-4.1869,-1.1663,-26.4,-12.0,35.25,7.7093,-5.0566,3.5985,1.5199,-3.561,-1.1253,-67.65,-34.5,-19.05,12.88,5.11,-9.31,2.4576,-3.6554,-2.6365,-40.1875,26.375,8.75,8.25,49.9375,176.625,0
1776970422.611,9.2512,-0.4549,5.4468,3.2828,-4.1986,-1.2329,-26.4,-12.0,35.25,7.5992,-4.7884,3.893,1.6875,-3.7992,-1.1346,-68.85,-34.95,-19.8,13.12,6.09,-9.25,2.5907,-3.7994,-2.6671,-40.1875,26.375,8.75,8.25,49.9375,176.625,0
1776970422.621,9.6438,-0.0527,5.6144,3.9066,-4.2077,-1.323,-28.5,-11.4,32.85,6.7588,-4.7597,3.7038,1.9156,-3.9679,-1.154,-68.85,-34.95,-19.8,13.29,7.06,-8.94,2.7936,-3.9739,-2.702,-40.1875,26.375,8.75,6.125,47.8125,176.9375,0
1776970422.626,9.6534,0.2729,5.6168,4.5658,-4.1907,-1.368,-28.5,-11.4,32.85,6.7588,-4.7597,3.7038,2.3065,-4.2461,-1.222,-69.6,-33.45,-21.9,13.29,7.06,-8.94,2.7936,-3.9739,-2.702,-40.1875,26.375,8.75,6.125,47.8125,176.9375,0
1776970422.631,9.6534,0.2729,5.6168,4.5658,-4.1907,-1.368,-30.3,-8.7,30.75,5.9113,-4.4724,2.8228,2.3065,-4.2461,-1.222,-69.6,-33.45,-21.9,14.36,9.36,-8.76,3.0151,-3.9772,-2.7718,-41.5,23.5,19.75,3.5625,45.6875,177.0625,0
1776970422.636,8.6072,0.3424,5.4588,5.1545,-4.1669,-1.2732,-30.3,-8.7,30.75,5.9113,-4.4724,2.8228,2.8509,-4.5333,-1.2119,-69.6,-33.45,-21.9,14.36,9.36,-8.76,3.0151,-3.9772,-2.7718,-41.5,23.5,19.75,3.5625,45.6875,177.0625,0
1776970422.641,8.6072,0.3424,5.4588,5.1545,-4.1669,-1.2732,-30.45,-9.3,30.9,6.5003,-3.6152,1.8316,2.8509,-4.5333,-1.2119,-69.6,-33.45,-21.9,14.76,10.45,-8.38,3.3052,-3.951,-2.9322,-41.5,23.5,19.75,6.8125,43.625,176.9375,0
1776970422.646,8.5473,-0.3041,5.2648,5.6778,-4.0073,-1.1754,-30.45,-9.3,30.9,6.5003,-3.6152,1.8316,3.0958,-4.2746,-1.4245,-70.2,-31.95,-23.25,14.76,10.45,-8.38,3.7186,-3.9837,-3.2125,-41.5,23.5,19.75,4.1875,41.5,176.625,0
1776970422.652,8.5473,-0.3041,5.2648,5.6778,-4.0073,-1.1754,-29.4,-7.5,27.75,7.5824,-3.4668,2.6767,3.4973,-4.0047,-1.72,-70.2,-31.95,-23.25,14.87,10.98,-7.71,3.7186,-3.9837,-3.2125,-41.5,23.5,19.75,1.25,39.375,176.125,0
1776970422.661,8.9878,-0.6321,5.0613,6.135,-3.8981,-1.0984,-30.45,-6.0,29.1,7.7093,-3.4309,2.6863,3.9732,-4.1749,-1.7906,-70.05,-31.8,-22.65,14.05,10.87,-5.61,4.1779,-4.1102,-3.5856,-41.5,23.5,19.75,358.125,37.1875,175.4375,0
1776970422.671,9.3446,-1.1516,4.9943,6.4479,-3.7723,-1.0312,-30.45,-6.0,29.1,7.5968,-4.7812,2.296,4.2858,-4.3948,-1.7661,-69.75,-30.9,-23.7,13.67,10.67,-4.6,4.5793,-4.1561,-3.9848,-41.5,23.5,19.75,358.125,37.1875,175.4375,0
1776970422.676,9.5002,-1.913,4.5131,6.6418,-3.6457,-0.98,-30.45,-6.0,29.1,7.5968,-4.7812,2.296,4.2858,-4.3948,-1.7661,-69.0,-30.9,-23.7,13.67,10.67,-4.6,4.5793,-4.1561,-3.9848,-41.5,23.5,19.75,354.6875,35.25,174.625,0
1776970422.681,9.5002,-1.913,4.5131,6.6418,-3.6457,-0.98,-31.35,-3.45,28.2,6.6367,-6.8378,2.083,4.4108,-4.4225,-1.7184,-69.0,-30.9,-23.7,13.5,10.66,-3.93,4.8771,-3.975,-4.3764,-41.5625,22.1875,28.75,354.6875,35.25,174.625,0
1776970422.686,9.3326,-2.7031,4.2928,6.7388,-3.4859,-0.9553,-31.35,-3.45,28.2,6.6367,-6.8378,2.083,4.4108,-4.4225,-1.7184,-69.45,-29.25,-23.7,13.5,10.66,-3.93,4.8771,-3.975,-4.3764,-41.5625,22.1875,28.75,351.125,33.4375,173.75,0
1776970422.691,9.3326,-2.7031,4.2928,6.7388,-3.4859,-0.9553,-31.35,-3.45,28.95,6.0478,-8.7628,0.6488,4.9799,-4.4278,-1.89,-69.45,-29.25,-23.7,13.25,10.45,-3.54,5.1258,-3.7285,-4.6829,-41.5625,22.1875,28.75,351.125,33.4375,173.75,0
1776970422.699,9.347,-2.9904,4.4772,6.6946,-3.318,-0.9499,-30.6,-3.45,29.25,5.5115,-7.5369,-1.0606,5.305,-4.0345,-1.9436,-69.15,-30.3,-23.85,13.2,10.93,-1.93,5.1978,-3.5376,-4.9262,-41.5625,22.1875,28.75,347.4375,31.8125,172.75,0
1776970422.704,9.2967,-2.5402,4.5083,6.5043,-3.1243,-0.9734,-30.6,-3.45,29.25,5.5115,-7.5369,-1.0606,5.305,-4.0345,-1.9436,-69.15,-30.3,-23.85,13.2,10.93,-1.93,5.1978,-3.5376,-4.9262,-41.5625,22.1875,28.75,343.6875,30.375,171.6875,0
1776970422.712,9.6917,-1.8483,4.5226,6.2056,-2.8714,-0.9806,-30.75,-2.55,26.7,5.9256,-7.4771,-0.7853,5.3229,-3.6068,-1.9817,-69.15,-30.3,-23.85,13.19,10.41,-1.6,5.2185,-3.3205,-5.1553,-41.5625,22.1875,28.75,339.8125,29.1875,170.75,0
1776970422.721,9.991,-1.1516,4.0079,5.9445,-2.6156,-0.9553,-30.75,-2.55,26.7,6.5003,-7.7117,-0.5243,5.0297,-3.233,-1.8466,-68.7,-31.2,-23.25,13.58,9.58,-1.52,5.0538,-3.026,-5.4149,-41.5625,22.1875,28.75,339.8125,29.1875,170.75,0
1776970422.726,9.991,-1.1516,4.0079,5.9445,-2.6156,-0.9553,-30.75,-2.55,26.7,6.5003,-7.7117,-0.5243,5.0297,-3.233,-1.8466,-68.7,-31.2,-23.25,13.58,9.58,-1.52,5.0538,-3.026,-5.4149,-41.5625,22.1875,28.75,335.875,28.1875,170.0,0
1776970422.731,10.2448,-0.7446,3.1029,5.632,-2.2588,-0.8817,-30.75,-2.55,26.7,7.355,-5.6623,-2.071,5.0271,-2.7651,-1.8415,-68.7,-31.2,-23.25,15.61,7.74,-2.39,4.6677,-2.7402,-5.681,-37.75,18.0,39.1875,335.875,28.1875,170.0,0
1776970422.736,10.2448,-0.7446,3.1029,5.632,-2.2588,-0.8817,-31.5,-1.8,23.4,8.6838,-5.138,-2.3152,5.0271,-2.7651,-1.8415,-68.7,-31.2,-23.25,15.61,7.74,-2.39,4.6677,-2.7402,-5.681,-37.75,18.0,39.1875,331.9375,27.4375,169.5,0
1776970422.741,10.2137,-0.4717,2.4828,5.3767,-1.8391,-0.7871,-31.5,-1.8,23.4,8.6838,-5.138,-2.3152,4.8683,-2.3707,-1.7736,-68.1,-29.55,-23.4,17.17,7.14,-2.93,4.1048,-2.3835,-5.8818,-37.75,18.0,39.1875,331.9375,27.4375,169.5,0
1776970422.747,10.2137,-0.4717,2.4828,5.3767,-1.8391,-0.7871,-30.6,-0.45,25.8,8.1977,-4.5394,-3.4285,4.771,-2.0781,-1.5969,-69.15,-29.1,-22.65,18.1,7.14,-2.81,3.4427,-2.0911,-5.9461,-37.75,18.0,39.1875,328.0625,26.9375,169.375,0
1776970422.752,9.8521,-0.8667,2.9616,5.0588,-1.3616,-0.7027,-30.6,-0.45,25.8,8.1977,-4.5394,-3.4285,4.771,-2.0781,-1.5969,-69.15,-29.1,-22.65,18.1,7.14,-2.81,3.4427,-2.0911,-5.9461,-37.75,18.0,39.1875,324.375,26.5,169.5,0
1776970422.761,9.1698,-1.1851,3.9241,4.5168,-0.9092,-0.6595,-29.85,-1.2,26.1,7.7668,-4.2689,-4.5753,4.3969,-1.9894,-1.4834,-69.15,-28.35,-22.65,17.74,7.69,-1.34,2.906,-1.8784,-5.8229,-37.75,18.0,39.1875,324.375,26.5,169.5,0
1776970422.771,8.3606,-0.6297,4.3622,3.9007,-0.5558,-0.6265,-31.05,-0.45,26.4,7.343,-3.4548,-3.8858,3.8848,-1.8866,-1.2588,-69.15,-29.85,-21.15,16.59,7.14,-0.21,2.5515,-1.7661,-5.5196,-37.75,18.0,39.1875,320.875,26.0625,169.625,0
1776970422.776,8.3606,-0.6297,4.3622,3.9007,-0.5558,-0.6265,-31.05,-0.45,26.4,6.6415,-2.7892,-2.5809,3.358,-1.5252,-1.0094,-69.15,-29.85,-21.15,16.59,7.14,-0.21,2.5515,-1.7661,-5.5196,-37.75,18.0,39.1875,320.875,26.0625,169.625,0
1776970422.781,7.8386,-0.9553,3.0646,3.0763,-0.2284,-0.5633,-31.05,-0.45,26.4,6.6415,-2.7892,-2.5809,3.358,-1.5252,-1.0094,-68.4,-30.3,-20.85,15.54,5.92,0.32,2.306,-1.4813,-5.1433,-31.0,14.75,47.1875,317.6875,25.8125,169.8125,0
1776970422.786,7.8386,-0.9553,3.0646,3.0763,-0.2284,-0.5633,-29.85,-0.15,24.75,6.4356,-3.158,-1.8986,2.7571,-0.8841,-0.7434,-68.4,-30.3,-20.85,15.54,5.92,0.32,2.306,-1.4813,-5.1433,-31.0,14.75,47.1875,317.6875,25.8125,169.8125,0
1776970422.791,7.3909,-1.1708,3.3734,2.5999,0.0429,-0.5489,-29.85,-0.15,24.75,6.4356,-3.158,-1.8986,2.7571,-0.8841,-0.7434,-68.85,-29.55,-21.9,14.69,4.2,0.58,1.9897,-1.0701,-4.7298,-31.0,14.75,47.1875,314.75,25.625,170.0,0
1776970422.799,7.1491,-1.1253,4.1228,2.185,0.3395,-0.5217,-31.35,-0.15,25.35,6.1723,-3.9816,-0.972,2.2844,-0.5905,-0.6222,-68.85,-29.55,-21.9,13.23,3.09,0.59,1.477,-0.5825,-4.2673,-31.0,14.75,47.1875,312.1875,25.75,170.3125,0
1776970422.804,7.1491,-1.1253,4.1228,2.185,0.3395,-0.5217,-31.35,0.9,24.3,6.2632,-3.6392,0.1963,2.2844,-0.5905,-0.6222,-68.85,-29.55,-21.9,13.23,3.09,0.59,1.477,-0.5825,-4.2673,-31.0,14.75,47.1875,309.9375,26.0,170.8125,0
1776970422.812,7.1635,-1.2139,4.6687,1.7672,0.5828,-0.4874,-31.35,0.9,24.3,6.2632,-3.6392,0.1963,1.8479,-0.4692,-0.5652,-68.7,-28.5,-22.2,11.95,2.96,0.26,0.9185,-0.1418,-3.7481,-31.0,14.75,47.1875,308.125,26.375,171.375,0
1776970422.822,7.3502,-1.391,5.1715,1.449,0.777,-0.522,-31.5,1.05,25.65,6.177,-3.6847,1.4174,1.5092,-0.2872,-0.493,-68.7,-28.5,-22.2,10.57,3.05,-0.21,0.5171,0.1549,-3.231,-31.0,14.75,47.1875,308.125,26.375,171.375,0
1776970422.826,7.3502,-1.391,5.1715,1.449,0.777,-0.522,-30.6,-0.9,25.8,6.0071,-4.379,2.0375,1.2406,-0.0509,-0.4471,-68.7,-28.5,-22.2,10.57,3.05,-0.21,0.5171,0.1549,-3.231,-25.75,11.375,50.6875,306.5625,26.75,171.9375,0
1776970422.831,7.4747,-1.6065,5.2816,1.3251,0.8052,-0.6387,-30.6,-0.9,25.8,6.0071,-4.379,2.0375,1.2406,-0.0509,-0.4471,-69.0,-27.3,-21.45,13.49,6.39,-1.36,0.3905,0.3523,-2.7293,-25.75,11.375,50.6875,306.5625,26.75,171.9375,0
1776970422.836,7.4747,-1.6065,5.2816,1.3251,0.8052,-0.6387,-30.6,-0.9,25.8,6.268,-4.9656,2.4493,1.0674,0.0839,-0.4887,-69.0,-27.3,-21.45,13.49,6.39,-1.36,0.3905,0.3523,-2.7293,-25.75,11.375,50.6875,305.6875,27.625,171.625,0
1776970422.841,7.2257,0.6584,4.0582,1.1924,0.8167,-0.7067,-30.6,-0.9,25.8,6.268,-4.9656,2.4493,1.0674,0.0839,-0.4887,-70.05,-27.15,-22.35,11.28,2.98,4.82,1.117,1.3755,-1.3537,-25.75,11.375,50.6875,305.6875,27.625,171.625,0
1776970422.846,7.2257,0.6584,4.0582,1.1924,0.8167,-0.7067,-29.7,1.5,27.3,6.7277,-4.4245,2.7318,0.8759,0.4141,-0.623,-70.05,-27.15,-22.35,11.28,2.98,4.82,-1.4693,3.6205,0.3785,-25.75,11.375,50.6875,306.25,29.625,172.1875,0
1776970422.852,10.2376,-0.8715,3.7996,0.9086,0.7514,-0.7906,-29.7,1.5,27.3,8.2504,-3.6631,3.3279,0.8759,0.4141,-0.623,-69.6,-27.45,-21.6,6.4,5.73,-20.55,-1.4693,3.6205,0.3785,-25.75,11.375,50.6875,306.1875,32.5625,171.75,0
1776970422.861,12.9263,-7.1611,-2.5881,1.2729,0.5255,-0.6331,-30.6,2.7,25.8,11.1019,-6.6343,0.5794,0.789,0.9252,-0.6411,-68.4,-25.5,-22.65,24.56,-15.43,-2.47,0.5552,5.3767,-0.3327,-25.75,11.375,50.6875,306.1875,32.5625,171.75,0
1776970422.871,16.1034,-9.742,-0.5387,2.4016,0.4898,-0.3685,-31.95,1.8,25.65,11.8058,-13.7068,-5.4085,0.911,1.3542,-0.3467,-70.8,-27.15,-21.15,21.88,-20.25,-4.81,1.5315,1.6035,0.2465,-25.75,11.375,50.6875,306.125,33.4375,170.6875,0
1776970422.876,17.4657,-7.2137,-1.8052,0.8511,1.1469,-0.0597,-29.85,1.2,26.1,11.8058,-13.7068,-5.4085,1.4304,0.8679,-0.2209,-70.8,-27.15,-21.15,21.88,-20.25,-4.81,1.5315,1.6035,0.2465,-25.75,11.375,50.6875,306.125,33.4375,170.6875,0
1776970422.881,17.4657,-7.2137,-1.8052,0.8511,1.1469,-0.0597,-29.85,1.2,26.1,14.3269,-16.4793,-8.7149,1.882,0.9166,-0.4221,-70.95,-26.55,-20.7,11.89,-6.69,-11.21,1.4519,-0.7701,1.4781,-27.875,10.6875,52.75,306.6875,32.875,169.4375,0
1776970422.886,19.3763,-8.0134,-3.2465,-1.0768,1.0762,0.0573,-30.6,2.7,26.4,14.3269,-16.4793,-8.7149,1.882,0.9166,-0.4221,-70.95,-26.55,-20.7,11.89,-6.69,-11.21,1.4519,-0.7701,1.4781,-27.875,10.6875,52.75,306.6875,32.875,169.4375,0
1776970422.891,19.3763,-8.0134,-3.2465,-1.0768,1.0762,0.0573,-30.6,2.7,26.4,15.2343,-11.0229,-7.4508,1.1522,1.6268,-0.4722,-69.15,-26.7,-19.35,4.88,6.18,-13.65,0.3894,-0.1963,1.3919,-27.875,10.6875,52.75,307.375,32.625,168.6875,0
1776970422.898,16.6038,-4.5011,-2.569,-1.2452,0.8191,-0.275,-30.6,2.7,26.4,15.2343,-11.0229,-7.4508,1.1522,1.6268,-0.4722,-70.35,-26.4,-19.35,-2.35,-0.15,-8.53,-0.1931,0.661,0.9708,-27.875,10.6875,52.75,308.0,32.875,168.4375,0
1776970422.903,16.6038,-4.5011,-2.569,-1.2452,0.8191,-0.275,-30.75,1.8,27.75,15.6629,-7.3813,-5.8538,0.6885,1.7784,-0.3403,-70.35,-26.4,-19.05,-2.35,-0.15,-8.53,-0.1931,0.661,0.9708,-27.875,10.6875,52.75,308.25,33.3125,168.25,0
1776970422.912,10.5536,0.7159,-0.9266,0.0858,0.6654,-0.5593,-30.75,1.8,27.75,10.9223,-4.6232,-2.3248,0.9004,0.4429,-0.2907,-70.35,-26.4,-19.05,5.24,-3.87,-8.79,-0.0371,0.8683,0.3829,-27.875,10.6875,52.75,308.3125,33.9375,168.0,0
1776970422.922,6.438,1.4533,1.8747,0.8895,0.7336,-0.5796,-31.2,3.0,28.5,7.5561,-0.9457,0.4357,0.671,-0.4421,-0.1831,-69.75,-27.0,-18.75,9.12,-4.84,-8.46,0.1953,1.1737,0.1036,-27.875,10.6875,52.75,308.3125,33.9375,168.0,0
1776970422.926,6.2848,1.3408,3.0215,0.9201,0.5833,-0.5716,-31.2,3.0,28.5,7.5561,-0.9457,0.4357,0.671,-0.4421,-0.1831,-69.75,-27.0,-18.75,9.12,-4.84,-8.46,0.1953,1.1737,0.1036,-27.875,10.6875,52.75,308.4375,34.1875,167.9375,0
1776970422.932,6.2848,1.3408,3.0215,0.9201,0.5833,-0.5716,-30.75,4.8,28.8,5.8562,-2.4732,3.7158,0.7855,-0.1982,0.0037,-69.75,-27.0,-18.75,6.36,-1.84,-6.71,-0.0273,0.5694,0.1658,-32.1875,12.0,49.0,308.4375,34.1875,167.9375,0
1776970422.936,8.1139,2.1979,1.3743,0.9918,0.583,-0.5129,-30.75,4.8,28.8,5.8562,-2.4732,3.7158,0.7855,-0.1982,0.0037,-69.75,-27.0,-18.75,6.36,-1.84,-6.71,-0.0273,0.5694,0.1658,-32.1875,12.0,49.0,308.75,34.125,168.0625,0
1776970422.941,8.1139,2.1979,1.3743,0.9918,0.583,-0.5129,-31.2,3.75,27.75,7.3622,-3.3016,4.2713,1.1056,0.0706,-0.2385,-70.8,-26.7,-18.6,3.45,-3.1,-8.27,-0.4691,-0.1069,0.4178,-32.1875,12.0,49.0,308.75,34.125,168.0625,0
1776970422.946,10.1394,2.2553,1.1947,1.3757,0.563,-0.5452,-31.2,3.75,27.75,7.3622,-3.3016,4.2713,1.1056,0.0706,-0.2385,-70.8,-26.7,-18.6,3.45,-3.1,-8.27,-0.6807,0.0556,0.4429,-32.1875,12.0,49.0,309.125,34.0625,168.25,0
1776970422.952,10.1394,2.2553,1.1947,1.3757,0.563,-0.5452,-31.2,3.75,27.75,10.4315,-2.2482,2.0901,1.1642,0.7783,-0.6797,-69.45,-26.1,-18.0,2.59,-1.74,-8.75,-0.6807,0.0556,0.4429,-32.1875,12.0,49.0,309.5625,34.625,168.4375,0
1776970422.962,10.6662,-0.4741,1.4365,1.367,0.4167,-0.6067,-31.65,4.2,27.15,11.4491,-2.8563,-0.4453,1.1607,0.5742,-0.7003,-70.8,-26.7,-16.35,5.93,0.45,-7.79,-0.8094,1.0276,0.4647,-32.1875,12.0,49.0,309.5625,34.625,168.4375,0
1776970422.972,10.137,-2.7078,1.2522,0.9843,0.2038,-0.6848,-30.15,4.8,28.8,8.7077,-5.1643,-0.3639,0.8855,0.2979,-0.4365,-71.25,-24.6,-17.4,6.25,2.22,-7.21,-0.6785,1.2555,0.4712,-32.1875,12.0,49.0,310.0,35.25,168.5625,0
1776970422.977,10.0628,-2.8683,1.4341,0.2798,0.1823,-0.6163,-30.15,4.8,28.8,8.0756,-5.4684,-0.0958,0.8855,0.2979,-0.4365,-71.25,-24.6,-17.4,6.25,2.22,-7.21,-0.6785,1.2555,0.4712,-32.1875,12.0,49.0,310.375,35.75,168.5625,0
1776970422.982,10.0628,-2.8683,1.4341,0.2798,0.1823,-0.6163,-31.65,4.2,29.7,8.0756,-5.4684,-0.0958,0.2268,0.3403,-0.1452,-70.95,-24.6,-16.2,8.9,-0.37,-9.24,-0.5029,1.0341,0.4189,-33.375,12.6875,49.1875,310.375,35.75,168.5625,0
1776970422.987,9.8952,-2.2458,0.8882,-0.441,0.2433,-0.4282,-31.65,4.2,29.7,8.3965,-5.7988,-0.0934,0.2268,0.3403,-0.1452,-70.95,-24.6,-16.2,8.9,-0.37,-9.24,-0.5029,1.0341,0.4189,-33.375,12.6875,49.1875,310.625,36.125,168.625,0
1776970422.992,10.3046,-1.664,0.0168,-1.0032,0.3238,-0.2649,-30.3,5.7,28.95,8.3965,-5.7988,-0.0934,-0.667,0.6166,0.0298,-70.2,-26.1,-16.95,7.68,0.04,-7.51,-0.3163,0.7079,0.216,-33.375,12.6875,49.1875,310.625,36.125,168.625,0
1776970423.0,10.3046,-1.664,0.0168,-1.0032,0.3238,-0.2649,-30.3,5.7,28.95,9.5481,-5.0637,-1.5083,-0.8279,0.7,-0.04,-70.2,-26.1,-16.95,6.45,-0.16,-8.4,-0.1407,0.3578,0.1604,-33.375,12.6875,49.1875,310.75,36.25,168.625,0
1776970423.005,10.4435,-0.1867,0.2131,-1.2124,0.223,-0.2257,-30.3,5.7,28.95,9.5481,-5.0637,-1.5083,-0.8279,0.7,-0.04,-70.2,-26.1,-16.95,6.45,-0.16,-8.4,-0.1407,0.3578,0.1604,-33.375,12.6875,49.1875,310.8125,36.4375,168.5625,0
1776970423.012,9.9742,1.2115,-0.4525,-0.9982,0.1447,-0.2041,-30.3,5.7,28.95,9.7923,-2.9975,-1.6448,-0.8138,0.7224,-0.0813,-71.7,-25.35,-16.95,6.6,-0.37,-7.24,0.0,0.2607,0.0884,-33.375,12.6875,49.1875,310.8125,36.4375,168.4375,0
1776970423.022,9.8114,2.2338,-0.984,-0.5588,0.1897,-0.2017,-31.05,4.2,28.65,10.5201,-1.6448,-0.7757,-0.6726,0.6408,-0.0509,-71.7,-25.35,-16.95,6.66,-0.82,-8.09,0.0982,0.108,0.0622,-33.375,12.6875,49.1875,310.8125,36.4375,168.4375,0
1776970423.027,9.8114,2.2338,-0.984,-0.5588,0.1897,-0.2017,-31.05,4.2,28.65,10.4172,-0.7566,-0.735,-0.3051,0.3765,-0.0282,-71.7,-25.35,-16.95,6.66,-0.82,-8.09,0.0982,0.108,0.0622,-33.375,12.6875,49.1875,310.8125,36.4375,168.4375,0
1776970423.032,9.2584,2.9473,-0.9146,0.0541,0.2417,-0.2153,-32.85,5.4,30.0,10.4172,-0.7566,-0.735,-0.3051,0.3765,-0.0282,-71.25,-25.35,-16.65,5.93,-0.66,-7.72,0.1091,-0.036,0.0436,-34.25,11.0,48.0,310.8125,36.4375,168.375,0
1776970423.037,9.2584,2.9473,-0.9146,0.0541,0.2417,-0.2153,-32.85,5.4,30.0,9.4715,-0.237,-1.5395,0.2729,0.287,-0.0933,-71.25,-25.35,-16.65,5.93,-0.66,-7.72,0.1091,-0.036,0.0436,-34.25,11.0,48.0,310.8125,36.4375,168.375,0
1776970423.042,9.3972,2.8036,-0.7302,0.5998,0.3211,-0.2374,-29.7,6.0,28.05,9.4715,-0.237,-1.5395,0.2729,0.287,-0.0933,-71.55,-24.45,-16.35,5.45,-1.15,-7.71,0.0884,-0.108,0.0316,-34.25,11.0,48.0,310.8125,36.375,168.3125,0
1776970423.047,9.3972,2.8036,-0.7302,0.5998,0.3211,-0.2374,-29.7,6.0,28.05,9.4739,0.0048,-1.5634,0.8154,0.2057,-0.1919,-71.55,-24.45,-16.35,5.45,-1.15,-7.71,0.0513,-0.0393,-0.0098,-34.25,11.0,48.0,310.8125,36.375,168.3125,0
1776970423.053,9.6343,2.0303,-0.2298,0.9659,0.3317,-0.2403,-31.35,4.95,28.95,9.4739,0.0048,-1.5634,0.8154,0.2057,-0.1919,-70.8,-25.5,-14.55,5.89,-1.26,-7.83,0.0513,-0.0393,-0.0098,-34.25,11.0,48.0,310.8125,36.4375,168.3125,0
1776970423.062,9.8306,1.3431,-0.2346,1.1186,0.3171,-0.2172,-31.35,4.95,28.95,9.8234,-0.6847,-0.3711,1.1421,0.0703,-0.2198,-71.25,-26.1,-15.9,5.89,-1.02,-7.62,-0.0393,0.0927,-0.024,-34.25,11.0,48.0,310.8125,36.4375,168.3125,0
1776970423.072,10.0796,0.2322,-0.2705,1.1634,0.2539,-0.2201,-31.35,5.4,28.65,9.9144,-2.059,-0.0694,1.2617,0.0048,-0.2108,-70.2,-24.6,-15.9,5.63,-0.91,-7.57,-0.1134,0.1614,-0.0185,-34.25,11.0,48.0,310.8125,36.5,168.375,0
1776970423.077,10.0796,0.2322,-0.2705,1.1634,0.2539,-0.2201,-31.35,5.4,28.65,9.7564,-3.45,-0.7853,1.2593,-0.0759,-0.198,-70.2,-24.6,-15.9,5.63,-0.91,-7.57,-0.1134,0.1614,-0.0185,-34.25,11.0,48.0,310.8125,36.5,168.375,0
1776970423.082,10.1179,-0.838,0.0838,1.0648,0.1825,-0.2364,-30.45,6.3,29.1,9.7564,-3.45,-0.7853,1.2593,-0.0759,-0.198,-70.95,-25.05,-16.2,5.46,-0.87,-7.61,-0.1331,0.2334,-0.0087,-36.0625,10.25,48.1875,310.875,36.625,168.4375,0
1776970423.086,10.1179,-0.838,0.0838,1.0648,0.1825,-0.2364,-30.45,6.3,29.1,9.2153,-4.2449,-1.1779,1.1069,-0.1383,-0.166,-70.95,-25.05,-16.2,5.46,-0.87,-7.61,-0.1331,0.2334,-0.0087,-36.0625,10.25,48.1875,310.875,36.625,168.4375,0
1776970423.092,9.9407,-1.5371,0.182,0.9134,0.1058,-0.2278,-31.2,6.3,29.1,8.6383,-4.4269,-1.0295,1.1069,-0.1383,-0.166,-70.95,-25.05,-16.2,5.65,-0.99,-7.73,-0.0971,0.2782,0.0229,-36.0625,10.25,48.1875,310.9375,36.75,168.5,0
1776970423.098,9.9407,-1.5371,0.182,0.6182,0.1055,-0.1791,-31.2,6.3,29.1,8.6383,-4.4269,-1.0295,0.8676,-0.0136,-0.1092,-70.95,-25.05,-16.2,6.21,-1.11,-7.66,-0.048,0.3033,0.048,-36.0625,10.25,48.1875,310.9375,36.9375,168.4375,0
1776970423.103,10.003,-1.7382,0.2825,0.6182,0.1055,-0.1791,-30.6,6.45,30.45,8.3773,-4.7142,-1.1803,0.5505,0.3056,-0.0349,-70.05,-25.2,-16.05,6.21,-1.11,-7.66,-0.048,0.3033,0.048,-36.0625,10.25,48.1875,311.0,37.0625,168.4375,0
1776970423.112,10.2017,-2.0949,-0.2705,0.3411,0.0879,-0.1311,-31.05,6.45,30.0,9.232,-5.2026,-1.1277,0.3621,0.1849,0.0506,-70.05,-25.2,-16.05,6.2,-1.05,-7.57,-0.0185,0.2923,0.0469,-36.0625,10.25,48.1875,311.0,37.0625,168.4375,0
1776970423.122,10.1011,-1.1995,0.0742,0.2054,0.0749,-0.1037,-31.05,6.45,30.0,9.0764,-4.9033,-0.8954,0.2638,-0.0767,0.1156,-70.35,-24.75,-14.85,6.28,-1.08,-7.62,0.0196,0.24,0.0371,-36.0625,10.25,48.1875,311.0,37.1875,168.375,0
1776970423.127,10.1011,-1.1995,0.0742,0.2054,0.0749,-0.1037,-31.05,6.45,30.0,9.0764,-4.9033,-0.8954,0.2638,-0.0767,0.1156,-70.35,-24.75,-14.85,6.28,-1.08,-7.62,0.0196,0.24,0.0371,-36.0625,10.25,48.1875,311.0,37.1875,168.375,0
1776970423.132,9.9311,-0.328,0.1628,0.0104,0.0986,-0.0791,-31.2,6.75,29.85,9.0022,-4.2425,-0.8619,0.2038,-0.0072,0.0983,-72.0,-26.1,-16.65,6.27,-1.38,-7.62,0.0633,0.1833,0.0338,-35.25,10.0625,47.0,311.0625,37.3125,168.3125,0
1776970423.137,9.9311,-0.328,0.1628,-0.061,0.097,-0.0794,-31.2,6.75,29.85,9.0022,-4.2425,-0.8619,0.2038,-0.0072,0.0983,-72.0,-26.1,-16.65,6.27,-1.38,-7.62,0.0633,0.1833,0.0338,-35.25,10.0625,47.0,311.0625,37.3125,168.3125,0
1776970423.142,10.0389,0.4046,0.1221,-0.061,0.097,-0.0794,-31.2,5.55,29.1,9.2703,-3.6895,-0.4549,0.1484,0.1388,0.065,-70.2,-24.15,-15.15,6.25,-1.28,-7.75,0.0993,0.0993,0.0218,-35.25,10.0625,47.0,311.0625,37.375,168.25,0
1776970423.147,9.8761,0.9553,0.2394,0.1471,0.064,-0.1015,-31.2,5.55,29.1,9.2703,-3.6895,-0.4549,0.1484,0.1388,0.065,-70.2,-24.15,-15.15,6.25,-1.28,-7.75,0.0993,0.0469,0.0098,-35.25,10.0625,47.0,311.0,37.375,168.1875,0
