timestamp,thigh_acc_x,thigh_acc_y,thigh_acc_z,thigh_gyro_x,thigh_gyro_y,thigh_gyro_z,thigh_mag_x,thigh_mag_y,thigh_mag_z,shank_acc_x,shank_acc_y,shank_acc_z,shank_gyro_x,shank_gyro_y,shank_gyro_z,shank_mag_x,shank_mag_y,shank_mag_z,foot_acc_x,foot_acc_y,foot_acc_z,foot_gyro_x,foot_gyro_y,foot_gyro_z,foot_mag_x,foot_mag_y,foot_mag_z,foot_euler_x,foot_euler_y,foot_euler_z,perturbation_event
1776972105.244,8.157,-4.1922,-4.0151,0.1847,2.3883,-2.9175,-13.35,-48.0,-111.75,8.2289,2.0303,-0.9385,1.0056,-0.0906,-0.3126,-86.7,21.3,2.4,12.11,3.93,-7.1,0.5629,-3.591,-2.1402,-64.0,-15.0625,13.0,229.0625,49.5,-170.625,0
1776972105.249,8.0924,-3.7637,-3.7637,0.2225,2.4656,-2.9106,-13.5,-46.65,-108.45,7.9583,1.64,-0.7949,0.8255,-0.0512,-0.1735,-86.7,21.3,2.4,11.28,4.03,-6.62,0.6141,-3.6085,-2.1828,-60.6875,-20.1875,22.375,230.1875,47.3125,-170.0,0
1776972105.254,8.0924,-3.7637,-3.7637,0.2225,2.4656,-2.9106,-13.5,-46.65,-108.45,7.9583,1.64,-0.7949,0.8255,-0.0512,-0.1735,-86.7,21.3,2.4,11.28,4.03,-6.62,0.6141,-3.6085,-2.1828,-60.6875,-20.1875,22.375,230.1875,47.3125,-170.0,0
1776972105.259,8.1307,-3.0813,-3.45,0.2689,2.6311,-2.958,-12.6,-45.3,-107.1,7.8673,1.5083,-0.8284,0.6662,0.0035,-0.0248,-86.7,21.3,2.4,10.74,3.92,-6.32,0.6447,-3.5594,-2.2057,-60.6875,-20.1875,22.375,231.375,45.1875,-169.4375,0
1776972105.264,8.1307,-3.0813,-3.45,0.2689,2.6311,-2.958,-12.6,-45.3,-107.1,7.8673,1.5083,-0.8284,0.6662,0.0035,-0.0248,-86.85,22.2,1.35,10.74,3.92,-6.32,0.672,-3.4492,-2.2177,-60.6875,-20.1875,22.375,209.625,43.0625,-169.0,0
1776972105.27,7.7979,-2.3918,-3.5267,0.296,2.8101,-3.006,-13.95,-43.65,-106.95,7.7261,1.5467,-1.1325,0.5574,0.0264,0.1236,-86.85,22.2,1.35,10.09,3.81,-5.52,0.672,-3.4492,-2.2177,-60.6875,-20.1875,22.375,208.4375,41.0625,-168.6875,0
1776972105.279,7.8769,-1.9728,-3.1603,0.304,3.015,-3.0619,-13.95,-43.65,-106.95,7.5992,1.6927,-1.5538,0.4978,0.0354,0.2563,-86.25,20.85,1.95,8.34,3.68,-3.93,0.7199,-3.2638,-2.1369,-60.6875,-20.1875,22.375,208.4375,41.0625,-168.6875,0
1776972105.289,8.0397,-1.6089,-2.8706,0.3376,3.1515,-3.0907,-16.2,-41.25,-101.85,7.5585,1.9034,-1.6281,0.4655,0.0456,0.381,-87.0,22.8,0.9,8.23,3.59,-3.75,0.8563,-2.9889,-1.9875,-60.6875,-20.1875,22.375,207.25,39.25,-168.5,0
1776972105.294,8.4276,-1.5826,-2.5786,0.4325,3.2644,-3.0886,-16.2,-41.25,-101.85,7.5585,1.9034,-1.6281,0.4655,0.0456,0.381,-86.25,20.85,0.9,8.23,3.59,-3.75,0.8563,-2.9889,-1.9875,-60.6875,-20.1875,22.375,206.1875,37.5625,-168.5,0
1776972105.299,8.4276,-1.5826,-2.5786,0.4325,3.2644,-3.0886,-15.6,-38.55,-100.8,7.367,2.1237,-1.6305,0.4695,0.06,0.4996,-86.25,20.85,0.9,9.07,3.54,-4.37,1.0145,-2.6289,-1.8184,-53.0,-25.6875,31.875,206.1875,37.5625,-168.5,0
1776972105.304,9.2249,-2.2553,-2.4277,0.6374,3.2562,-2.9929,-15.6,-38.55,-100.8,7.367,2.1237,-1.6305,0.4695,0.06,0.4996,-87.6,22.95,0.6,9.07,3.54,-4.37,1.0145,-2.6289,-1.8184,-53.0,-25.6875,31.875,205.25,36.1875,-168.6875,0
1776972105.309,9.2249,-2.2553,-2.4277,0.6374,3.2562,-2.9929,-17.7,-36.3,-98.55,7.1395,2.5786,-1.5993,0.5002,0.0714,0.607,-87.6,22.95,0.6,11.71,3.56,-6.08,1.1061,-2.27,-1.5915,-53.0,-25.6875,31.875,205.25,36.1875,-168.6875,0
1776972105.316,10.3501,-3.644,-1.7717,0.7994,3.1453,-2.8322,-16.8,-34.95,-97.35,7.0006,3.383,-1.4629,0.5002,0.0714,0.607,-85.95,22.05,1.65,13.03,2.23,-6.68,1.1159,-1.9177,-1.3614,-53.0,-25.6875,31.875,204.375,35.0,-168.9375,0
1776972105.321,10.3501,-3.644,-1.7717,0.7994,3.1453,-2.8322,-16.8,-34.95,-97.35,7.0006,3.383,-1.4629,0.4962,0.0986,0.7024,-85.95,22.05,1.65,13.03,2.23,-6.68,1.1159,-1.9177,-1.3614,-53.0,-25.6875,31.875,203.5625,33.875,-169.125,0
1776972105.33,11.6334,-4.5945,-1.063,0.8436,2.7992,-2.6209,-19.35,-33.15,-94.8,6.857,3.9744,-1.3024,0.4823,0.0986,0.7938,-85.95,22.05,1.65,14.67,0.95,-7.98,1.0374,-1.7639,-1.273,-53.0,-25.6875,31.875,202.8125,32.75,-169.25,0
1776972105.34,12.3996,-4.4077,-0.7087,0.7743,2.3478,-2.388,-19.35,-33.15,-94.8,6.7038,4.197,-1.1396,0.4836,0.0994,0.8657,-85.8,20.7,1.05,16.01,0.26,-8.34,0.7789,-1.8217,-1.3003,-53.0,-25.6875,31.875,202.8125,32.75,-169.25,0
1776972105.345,12.3301,-3.565,-0.8643,0.6558,1.9982,-2.1898,-19.35,-33.15,-94.8,6.936,4.3239,-0.747,0.4836,0.0994,0.8657,-85.8,20.7,1.05,16.01,0.26,-8.34,0.7789,-1.8217,-1.3003,-53.0,-25.6875,31.875,202.0625,31.5625,-169.125,0
1776972105.35,12.3301,-3.565,-0.8643,0.6558,1.9982,-2.1898,-15.0,-30.9,-91.65,6.936,4.3239,-0.747,0.4138,0.1348,0.9289,-85.8,20.7,1.05,17.75,0.22,-7.48,0.4669,-1.9711,-1.3614,-42.6875,-28.5625,36.875,202.0625,31.5625,-169.125,0
1776972105.355,11.746,-2.8994,-1.1684,0.3848,1.9388,-2.0499,-14.25,-29.4,-91.95,7.5944,4.5011,-0.5531,0.4138,0.1348,0.9289,-86.55,20.7,-0.3,17.75,0.22,-7.48,0.4669,-1.9711,-1.3614,-42.6875,-28.5625,36.875,202.0625,31.5625,-169.125,0
1776972105.36,11.746,-2.8994,-1.1684,0.3848,1.9388,-2.0499,-14.25,-29.4,-91.95,7.5944,4.5011,-0.5531,0.3267,0.1681,0.9859,-86.55,20.7,-0.3,17.39,0.33,-6.08,0.216,-2.198,-1.3275,-42.6875,-28.5625,36.875,201.375,30.1875,-169.0,0
1776972105.365,11.1235,-2.49,-1.4341,0.1383,2.1114,-1.9327,-12.75,-28.95,-89.55,8.2576,4.6543,-0.4812,0.2246,0.2164,1.0445,-87.45,19.35,1.65,16.79,0.1,-4.33,0.12,-2.4075,-1.2305,-42.6875,-28.5625,36.875,200.8125,28.75,-168.8125,0
1776972105.371,11.1235,-2.49,-1.4341,0.1383,2.1114,-1.9327,-12.75,-28.95,-89.55,8.2576,4.6543,-0.4812,0.2246,0.2164,1.0445,-87.45,19.35,1.65,16.79,0.1,-4.33,0.12,-2.4075,-1.2305,-42.6875,-28.5625,36.875,200.3125,27.3125,-168.75,0
1776972105.38,10.8457,-2.2505,-2.059,0.0181,2.2052,-1.7483,-11.85,-26.55,-86.85,8.5688,4.968,-0.4812,0.1015,0.2995,1.0688,-87.75,18.45,1.2,15.01,-0.53,-0.68,0.1844,-2.5056,-1.0876,-42.6875,-28.5625,36.875,199.875,25.875,-168.8125,0
1776972105.39,10.8769,-1.3575,-2.1069,-0.1929,2.3212,-1.4618,-11.85,-26.55,-86.85,8.8873,5.7724,-0.4812,-0.0274,0.3539,1.0653,-86.7,18.9,1.65,14.37,-0.96,1.32,0.3894,-2.4435,-0.9283,-42.6875,-28.5625,36.875,199.875,25.875,-168.8125,0
1776972105.395,11.0085,-0.6512,-1.1325,-0.3467,2.1847,-1.0427,-11.85,-26.55,-86.85,8.8969,6.9911,-0.3831,-0.1671,0.3933,1.028,-86.85,18.0,1.35,14.37,-0.96,1.32,0.3894,-2.4435,-0.9283,-42.6875,-28.5625,36.875,199.5,24.5625,-169.0625,0
1776972105.4,11.0085,-0.6512,-1.1325,-0.3467,2.1847,-1.0427,-11.85,-26.55,-86.85,8.8969,6.9911,-0.3831,-0.1671,0.3933,1.028,-86.85,18.0,1.35,11.45,-1.84,2.34,0.5258,-2.2646,-0.781,-37.0625,-30.875,39.75,199.5,24.5625,-169.0625,0
1776972105.404,11.5903,-0.7925,-0.0694,-0.5175,1.8189,-0.5689,-12.15,-19.2,-86.25,8.2791,7.944,-0.4573,-0.2617,0.409,0.9561,-87.0,17.7,0.9,11.45,-1.84,2.34,0.5258,-2.2646,-0.781,-37.0625,-30.875,39.75,199.125,23.5625,-169.1875,0
1776972105.41,11.5903,-0.7925,-0.0694,-0.5175,1.8189,-0.5689,-12.15,-19.2,-86.25,8.2791,7.944,-0.4573,-0.2617,0.409,0.9561,-87.0,17.7,0.9,13.06,-4.39,5.57,0.4538,-1.6406,-0.7352,-37.0625,-30.875,39.75,199.125,23.5625,-169.1875,0
1776972105.419,11.5161,-0.8068,1.257,-0.6971,1.3153,-0.137,-12.45,-19.2,-86.7,7.6088,8.7125,-0.5674,-0.2086,0.4343,0.8857,-87.0,17.7,0.9,13.65,-4.49,6.67,-0.0087,-0.8639,-0.4963,-37.0625,-30.875,39.75,198.875,23.0625,-169.125,0
1776972105.429,11.6167,-0.3041,1.7478,-0.6789,0.7951,0.2822,-12.15,-16.65,-90.3,7.5298,8.8107,-0.237,-0.1228,0.4775,0.8404,-89.1,16.8,2.1,13.35,-4.36,6.64,-0.5629,-0.5727,-0.24,-37.0625,-30.875,39.75,198.8125,22.75,-168.75,0
1776972105.435,10.8433,0.1101,1.6089,-0.6547,0.3006,0.6939,-9.75,-15.75,-94.05,7.5058,7.6064,-0.5411,-0.0933,0.5431,0.7618,-89.1,16.8,2.1,13.35,-4.36,6.64,-1.0636,-0.4701,-0.1549,-37.0625,-30.875,39.75,198.875,22.4375,-168.1875,0
1776972105.441,9.9479,0.1365,1.2019,-0.6475,0.0037,1.048,-9.75,-15.75,-94.05,7.3215,7.3071,-1.5203,-0.0933,0.5431,0.7618,-89.1,16.8,2.1,12.51,-3.54,6.93,-1.0636,-0.4701,-0.1549,-37.0625,-30.875,39.75,198.875,22.4375,-168.1875,0
1776972105.446,9.9479,0.1365,1.2019,-0.6475,0.0037,1.048,-9.75,-15.75,-94.05,7.3215,7.3071,-1.5203,-0.1274,0.5969,0.6861,-87.3,16.8,3.3,12.51,-3.54,6.93,-1.3341,-0.1309,-0.0982,-31.5,-33.0625,42.5,199.0,22.375,-167.375,0
1776972105.451,10.1227,-0.1149,0.2346,-0.5393,-0.3968,1.3614,-9.75,-15.75,-94.05,7.3646,6.6631,-1.9513,-0.1274,0.5969,0.6861,-87.3,16.8,3.3,12.34,-1.91,6.71,-1.3341,-0.1309,-0.0982,-31.5,-33.0625,42.5,199.0,22.375,-167.375,0
1776972105.455,10.1227,-0.1149,0.2346,-0.5393,-0.3968,1.3614,-9.75,-15.75,-94.05,7.3646,6.6631,-1.9513,-0.1263,0.6664,0.619,-87.0,15.75,1.65,12.34,-1.91,6.71,-1.3297,0.2542,-0.0207,-31.5,-33.0625,42.5,199.125,22.5,-166.625,0
1776972105.461,9.7516,-0.3974,-0.4286,-0.5276,-0.6584,1.5932,-9.75,-15.75,-94.05,7.4531,5.1954,-1.9154,-0.1263,0.6664,0.619,-87.0,15.75,1.65,12.32,-0.97,5.99,-1.3297,0.2542,-0.0207,-31.5,-33.0625,42.5,199.125,22.5,-166.625,0
1776972105.469,9.8067,-0.3184,0.1532,-0.522,-0.7405,1.7333,-1.5,0.45,-108.0,8.4467,3.7804,-1.3599,0.0293,0.7991,0.5947,-86.85,14.4,4.05,12.66,-0.19,4.54,-1.1443,0.5781,0.0938,-31.5,-33.0625,42.5,199.25,22.8125,-166.0,0
1776972105.479,9.4571,2.2769,1.4868,-0.1583,-0.4375,1.591,0.9,7.2,-114.45,9.5361,2.4157,-1.2258,0.1721,0.8966,0.6622,-88.05,14.4,5.85,2.22,23.34,-20.99,-0.5781,0.4222,0.3698,-31.5,-33.0625,42.5,199.5,23.125,-165.75,0
1776972105.49,9.5193,7.6423,1.7238,0.8588,0.1676,0.9281,0.6,12.75,-120.75,11.8082,1.415,-0.8045,0.0016,0.8271,1.0323,-87.75,13.8,4.95,-1.32,4.04,-8.32,1.1737,0.0262,0.8672,-31.5,-33.0625,42.5,199.875,23.25,-166.5625,0
1776972105.494,9.5193,7.6423,1.7238,0.8588,0.1676,0.9281,2.1,21.75,-124.95,11.8082,1.415,-0.8045,0.0016,0.8271,1.0323,-87.75,13.5,4.95,-1.32,4.04,-8.32,1.1737,0.0262,0.8672,-31.5,-33.0625,42.5,199.875,23.25,-166.5625,0
1776972105.499,12.4211,11.8848,-1.1396,1.2257,0.7735,-0.1346,2.1,21.75,-124.95,13.5967,0.4118,-0.9697,0.0187,0.6662,1.3123,-87.75,13.5,4.95,-1.09,-1.29,-23.59,1.8555,1.7028,0.9719,-29.0625,-35.1875,39.0625,200.0625,24.25,-167.75,0
1776972105.504,12.4211,11.8848,-1.1396,1.2257,0.7735,-0.1346,2.1,21.75,-124.95,13.5967,0.4118,-0.9697,0.0187,0.6662,1.3123,-87.75,13.5,4.95,-1.09,-1.29,-23.59,1.8555,1.7028,0.9719,-29.0625,-35.1875,39.0625,200.0625,24.25,-167.75,0
1776972105.509,16.532,12.05,-5.2146,0.498,1.1386,-0.6752,2.1,21.75,-124.95,13.0173,-0.6273,-2.1979,0.3291,0.486,1.4583,-87.75,13.5,4.95,-6.26,-6.52,-0.92,0.9599,1.8457,-0.4134,-29.0625,-35.1875,39.0625,199.625,25.25,-168.0625,0
1776972105.516,16.532,12.05,-5.2146,0.498,1.1386,-0.6752,-0.15,42.45,-137.55,13.0173,-0.6273,-2.1979,0.3291,0.486,1.4583,-87.0,13.8,5.25,0.18,-10.95,-3.12,0.3076,2.4064,-1.0712,-29.0625,-35.1875,39.0625,198.875,26.4375,-167.875,0
1776972105.521,15.0859,7.4364,-7.6567,-0.9385,0.5769,-0.2281,-0.15,42.45,-137.55,13.8193,0.4525,-5.8083,0.9715,0.3214,1.4477,-87.0,13.8,5.25,0.18,-10.95,-3.12,0.3076,2.4064,-1.0712,-29.0625,-35.1875,39.0625,198.125,28.0625,-167.375,0
1776972105.53,13.4985,2.7725,-4.7597,-1.3837,0.4341,0.1276,-0.15,51.15,-147.3,15.5934,4.3167,-7.9511,1.3147,0.0935,1.3267,-87.0,13.8,5.25,10.39,-12.66,-11.1,0.0404,3.2779,-0.9927,-29.0625,-35.1875,39.0625,197.6875,29.9375,-166.5625,0
1776972105.54,13.4123,2.6695,-6.3398,-1.1551,0.3131,0.235,0.15,56.4,-159.0,17.3125,6.8259,-6.5146,1.0741,-0.1284,1.088,-88.05,11.7,4.8,10.45,-6.91,-18.48,-0.7254,3.6346,-0.6054,-29.0625,-35.1875,39.0625,197.6875,29.9375,-166.5625,0
1776972105.545,13.4123,2.6695,-6.3398,-1.1551,0.3131,0.235,-0.9,63.15,-173.55,17.3125,6.8259,-6.5146,1.0741,-0.1284,1.088,-88.2,11.4,4.95,10.45,-6.91,-18.48,-0.7254,3.6346,-0.6054,-29.0625,-35.1875,39.0625,197.6875,29.9375,-166.5625,0
1776972105.55,17.0276,2.0542,-5.9592,-1.469,1.6419,0.5025,-0.9,63.15,-173.55,16.8983,6.3805,-2.1141,0.5513,0.0456,0.926,-88.2,11.4,4.95,27.78,15.99,-21.75,-0.9436,2.8929,-0.3458,-30.75,-35.5625,39.0625,197.4375,31.4375,-165.6875,0
1776972105.555,17.6165,2.6264,-0.2418,-0.2798,1.5378,0.8082,-3.0,66.15,-185.7,16.8983,6.3805,-2.1141,0.5513,0.0456,0.926,-88.2,9.9,5.7,27.78,15.99,-21.75,-0.9436,2.8929,-0.3458,-30.75,-35.5625,39.0625,197.4375,31.4375,-165.6875,0
1776972105.56,17.6165,2.6264,-0.2418,-0.2798,1.5378,0.8082,-3.0,66.15,-185.7,11.0804,3.7637,1.5897,-0.2825,0.4535,0.7421,-88.2,9.9,5.7,24.66,23.5,-1.68,-1.009,3.1383,0.1538,-30.75,-35.5625,39.0625,197.5,33.1875,-164.875,0
1776972105.566,12.6198,-0.3256,3.9002,1.3981,0.947,0.9635,-3.0,66.15,-185.7,6.8187,0.9313,4.7956,-1.5705,1.0059,0.7602,-87.6,9.75,6.6,6.41,9.36,2.03,-0.1156,1.5337,0.1134,-30.75,-35.5625,39.0625,197.4375,34.0,-164.75,0
1776972105.571,12.6198,-0.3256,3.9002,1.3981,0.947,0.9635,-5.55,69.45,-201.0,6.8187,0.9313,4.7956,-1.5705,1.0059,0.7602,-87.6,9.75,6.6,6.41,9.36,2.03,-0.1156,1.5337,0.1134,-30.75,-35.5625,39.0625,197.5625,34.3125,-165.125,0
1776972105.58,8.2959,-5.8514,6.1555,2.9809,0.1037,1.3177,-5.55,69.45,-201.0,6.2537,-1.4629,5.0302,-1.7099,1.1607,1.0219,-87.6,8.1,5.85,10.6,-9.7,-13.96,0.5127,0.4287,0.4243,-30.75,-35.5625,39.0625,197.625,34.75,-165.1875,0
1776972105.59,5.3271,-8.8992,7.8051,3.1003,-1.3755,1.6217,-2.7,64.95,-202.5,6.699,-3.5314,2.2529,-0.4908,0.7397,1.2231,-87.75,7.95,7.95,7.1,-6.24,-10.93,0.1353,0.8105,0.2411,-30.75,-35.5625,39.0625,197.625,34.75,-165.1875,0
1776972105.595,6.1794,-9.2344,4.774,2.448,-2.6734,1.6779,-2.7,64.95,-197.4,6.9719,-4.2856,-1.154,-0.4908,0.7397,1.2231,-87.75,7.95,7.95,7.1,-6.24,-10.93,0.1353,0.8105,0.2411,-30.75,-35.5625,39.0625,197.75,34.875,-164.9375,0
1776972105.6,6.1794,-9.2344,4.774,2.448,-2.6734,1.6779,1.5,64.2,-187.8,6.9719,-4.2856,-1.154,0.3411,0.368,1.2156,-87.75,7.95,7.95,5.5,2.93,-8.01,-0.4494,0.2269,0.0349,-36.1875,-37.75,34.0625,197.75,34.875,-164.9375,0
1776972105.605,8.3079,-4.4748,-1.3408,0.5558,-3.2397,1.8063,1.5,64.2,-187.8,8.4467,-5.0422,-2.5498,0.1122,0.308,1.2654,-88.95,6.0,9.0,5.5,2.93,-8.01,-0.4494,0.2269,0.0349,-36.1875,-37.75,34.0625,197.75,35.0,-164.75,0
1776972105.61,8.3079,-4.4748,-1.3408,0.5558,-3.2397,1.8063,7.2,60.3,-172.65,8.4467,-5.0422,-2.5498,0.1122,0.308,1.2654,-88.95,6.0,9.0,5.13,3.87,-6.4,-0.3502,0.2629,-0.0425,-36.1875,-37.75,34.0625,197.75,35.0,-164.75,0
1776972105.617,6.4117,-0.8164,0.7518,-1.3368,-2.4245,2.0352,7.2,60.3,-172.65,9.3446,-5.2002,-2.0111,-0.4128,0.0386,1.3467,-88.95,6.0,9.0,5.04,1.43,-8.12,-0.0371,0.2193,0.0611,-36.1875,-37.75,34.0625,197.75,35.1875,-164.6875,0
1776972105.622,6.4117,-0.8164,0.7518,-1.3368,-2.4245,2.0352,7.2,60.3,-172.65,9.3446,-5.2002,-2.0111,-0.4128,0.0386,1.3467,-88.95,6.0,9.0,5.04,1.43,-8.12,-0.0371,0.2193,0.0611,-36.1875,-37.75,34.0625,197.8125,35.3125,-164.875,0
1776972105.63,8.9567,1.0008,3.0646,-1.606,-0.895,1.7507,10.5,38.55,-150.6,9.5457,-3.1508,1.2617,-0.8463,0.033,1.311,-87.45,4.05,9.0,4.3,0.64,-8.21,0.168,0.1931,0.1887,-36.1875,-37.75,34.0625,197.875,35.5625,-165.0625,0
1776972105.64,8.5952,2.8467,0.1844,-0.9241,-0.9398,1.4853,12.6,28.05,-143.55,9.3901,0.4453,3.4668,-0.9188,0.1679,1.0658,-87.45,4.8,8.25,4.19,2.26,-7.35,0.3207,0.4352,0.2214,-36.1875,-37.75,34.0625,197.875,35.5625,-165.0625,0
1776972105.645,9.2536,4.6543,-0.565,-0.3493,-0.3126,1.2287,12.6,28.05,-143.55,8.6598,3.4716,4.2808,-0.4882,0.2395,0.7536,-88.95,4.8,8.7,4.19,2.26,-7.35,0.3207,0.4352,0.2214,-36.1875,-37.75,34.0625,197.875,35.5625,-165.0625,0
1776972105.65,9.2536,4.6543,-0.565,-0.3493,-0.3126,1.2287,14.25,19.2,-138.75,8.6598,3.4716,4.2808,-0.4882,0.2395,0.7536,-88.95,4.8,8.7,5.59,2.56,-7.07,0.4974,0.5803,0.3022,-37.25,-37.375,32.875,197.9375,35.9375,-165.375,0
1776972105.655,10.5297,4.1324,-1.6137,0.0501,0.0021,0.9651,14.25,19.2,-138.75,9.0836,4.4005,5.035,0.2222,0.3547,0.5598,-88.8,1.95,8.4,5.59,2.56,-7.07,0.4974,0.5803,0.3022,-37.25,-37.375,32.875,197.9375,35.9375,-165.375,0
1776972105.66,10.5297,4.1324,-1.6137,0.0501,0.0021,0.9651,16.65,13.05,-138.15,9.0836,4.4005,5.035,0.2222,0.3547,0.5598,-88.8,1.95,8.4,6.16,1.68,-7.81,0.7178,0.4112,0.4374,-37.25,-37.375,32.875,198.0,36.1875,-165.9375,0
1776972105.666,10.8721,-0.1724,-1.1253,0.5998,-0.0352,0.7272,16.65,13.05,-138.15,8.8514,3.371,5.1547,0.8098,0.5438,0.542,-88.95,4.5,8.25,6.16,1.68,-7.81,0.7538,0.3229,0.4778,-37.25,-37.375,32.875,198.125,36.4375,-166.5,0
1776972105.671,10.6638,-3.1029,-0.6536,0.9233,-0.105,0.5132,13.5,13.2,-138.0,9.4834,1.9968,4.0247,0.8098,0.5438,0.542,-88.95,4.5,8.25,6.37,0.9,-8.38,0.7538,0.3229,0.4778,-37.25,-37.375,32.875,198.1875,36.75,-167.0,0
1776972105.68,10.6638,-3.1029,-0.6536,0.9233,-0.105,0.5132,13.5,13.2,-138.0,9.4834,1.9968,4.0247,1.319,0.6254,0.5577,-89.1,3.0,8.1,7.25,0.75,-8.4,0.66,0.4658,0.3872,-37.25,-37.375,32.875,198.1875,36.75,-167.0,0
1776972105.69,9.505,-4.3024,3.225,0.652,-0.4788,0.5215,13.8,11.55,-138.15,9.8785,-1.2186,0.486,1.6092,0.6281,0.5335,-89.1,3.0,8.1,7.14,0.92,-8.27,0.5465,0.5618,0.2662,-37.25,-37.375,32.875,198.1875,37.0625,-167.3125,0
1776972105.695,9.505,-4.3024,3.225,0.652,-0.4788,0.5215,13.8,11.55,-138.15,9.8785,-1.2186,0.486,1.7272,0.5817,0.4956,-88.8,3.45,8.85,7.14,0.92,-8.27,0.5465,0.5618,0.2662,-37.25,-37.375,32.875,198.1875,37.375,-167.625,0
1776972105.7,9.4355,-3.4764,3.6943,0.2422,-0.6187,0.6062,12.75,13.65,-138.75,9.6822,-2.6456,-0.0479,1.7272,0.5817,0.4956,-88.8,3.45,8.85,6.93,0.72,-8.06,0.4538,0.5225,0.1854,-38.75,-38.875,32.1875,198.1875,37.375,-167.625,0
1776972105.705,9.4355,-3.4764,3.6943,0.2422,-0.6187,0.6062,12.75,13.65,-138.75,9.6822,-2.6456,-0.0479,1.6233,0.6099,0.4706,-88.8,3.45,8.85,6.93,0.72,-8.06,0.4538,0.5225,0.1854,-38.75,-38.875,32.1875,198.1875,37.5625,-167.875,0
1776972105.71,9.6845,-3.3112,3.1699,-0.1724,-0.6376,0.664,12.6,9.0,-140.25,9.7229,-2.8683,0.067,1.6233,0.6099,0.4706,-88.8,3.45,8.85,6.61,0.87,-8.09,0.36,0.3796,0.1484,-38.75,-38.875,32.1875,198.1875,37.5625,-167.875,0
1776972105.716,9.6845,-3.3112,3.1699,-0.1724,-0.6376,0.664,12.6,9.0,-140.25,9.7229,-2.8683,0.067,1.21,0.6571,0.4525,-89.4,3.3,8.7,6.61,0.87,-8.09,0.2858,0.2411,0.1222,-38.75,-38.875,32.1875,198.1875,37.75,-168.0625,0
1776972105.721,9.6606,-3.4405,2.2841,-0.4064,-0.5796,0.6734,13.05,9.0,-140.7,9.5888,-1.8411,0.4334,0.6752,0.6163,0.4261,-89.4,3.3,8.7,6.22,1.33,-7.63,0.2858,0.2411,0.1222,-38.75,-38.875,32.1875,198.1875,37.8125,-168.1875,0
1776972105.73,9.3948,-2.7749,1.1013,-0.4628,-0.3936,0.6297,11.7,9.45,-139.8,9.4834,-1.2713,0.8787,0.1132,0.5684,0.3978,-88.65,3.6,9.3,5.77,1.19,-7.84,0.2465,0.1211,0.108,-38.75,-38.875,32.1875,198.1875,37.8125,-168.1875,0
1776972105.74,9.2464,-1.6352,0.4932,-0.5785,-0.2121,0.5849,11.7,9.45,-139.8,9.3829,-0.7039,0.8571,-0.3573,0.5183,0.3738,-87.6,1.05,9.6,5.47,1.53,-7.37,0.2487,0.1931,0.1145,-38.75,-38.875,32.1875,198.1875,37.9375,-168.375,0
1776972105.745,9.2464,-1.6352,0.4932,-0.5785,-0.2121,0.5849,11.7,9.45,-139.8,9.3829,-0.7039,0.8571,-0.3573,0.5183,0.3738,-88.95,3.3,10.5,5.47,1.53,-7.37,0.2487,0.1931,0.1145,-38.75,-38.875,32.1875,198.1875,37.9375,-168.375,0
1776972105.75,9.2584,-0.2658,-0.1437,-0.558,-0.0205,0.5108,12.15,11.7,-139.8,9.481,0.6656,0.656,-0.6326,0.4772,0.3533,-88.95,3.3,10.5,5.48,1.68,-7.21,0.2542,0.2007,0.1604,-39.875,-34.5,32.875,198.1875,38.0625,-168.5625,0
1776972105.755,9.2584,-0.2658,-0.1437,-0.558,-0.0205,0.5108,12.15,11.7,-139.8,9.481,0.6656,0.656,-0.6326,0.4772,0.3533,-87.3,1.05,10.35,5.48,1.68,-7.21,0.2542,0.2007,0.1604,-39.875,-34.5,32.875,198.1875,38.0625,-168.5625,0
1776972105.76,9.5864,0.9768,-0.4381,-0.5454,0.0706,0.4314,10.95,10.2,-141.6,10.0676,-1.9106,0.9888,-0.8708,0.3413,0.3219,-87.3,1.05,10.35,5.18,1.61,-7.31,0.3098,0.1527,0.2323,-39.875,-34.5,32.875,198.25,38.1875,-168.8125,0
1776972105.765,9.5864,0.9768,-0.4381,-0.5454,0.0706,0.4314,10.95,10.2,-141.6,10.0676,-1.9106,0.9888,-0.8708,0.3413,0.3219,-87.3,1.05,10.35,5.18,1.61,-7.31,0.3763,0.2542,0.2749,-39.875,-34.5,32.875,198.3125,38.3125,-169.125,0
1776972105.771,10.0365,1.0942,-0.9266,-0.5337,-0.0981,0.4186,7.35,10.2,-142.2,9.7157,-0.8116,1.5227,-1.1596,0.117,0.2646,-87.6,1.95,10.65,5.9,1.16,-7.75,0.3763,0.2542,0.2749,-39.875,-34.5,32.875,198.375,38.625,-169.5,0
1776972105.78,10.0652,0.3591,-0.905,-0.4762,-0.2236,0.4112,6.6,11.7,-142.65,9.8426,-0.8068,1.5993,-1.2409,-0.0506,0.2393,-87.6,1.95,10.65,6.84,0.13,-8.31,0.4843,0.4222,0.276,-39.875,-34.5,32.875,198.375,38.875,-169.8125,0
1776972105.791,10.0173,-0.6297,-1.0439,-0.3917,-0.3267,0.4282,6.3,12.45,-145.5,10.1083,-0.6177,1.1492,-1.2348,-0.0725,0.267,-88.65,1.65,9.75,6.97,0.13,-8.22,0.468,0.5258,0.2127,-39.875,-34.5,32.875,198.375,38.875,-169.8125,0
1776972105.795,10.0173,-0.6297,-1.0439,-0.3917,-0.3267,0.4282,6.3,12.45,-145.5,10.1083,-0.6177,1.1492,-1.2348,-0.0725,0.267,-88.65,1.65,9.75,6.97,0.13,-8.22,0.468,0.5258,0.2127,-39.875,-34.5,32.875,198.375,39.1875,-170.0,0
1776972105.8,9.5026,-1.5921,-1.2234,-0.2462,-0.3986,0.4293,6.3,12.45,-145.5,9.8043,-0.3519,0.6488,-1.1413,-0.0624,0.3323,-88.65,1.65,9.75,6.83,0.8,-7.66,0.3327,0.5411,0.1222,-40.1875,-34.875,32.875,198.375,39.1875,-170.0,0
1776972105.805,9.5026,-1.5921,-1.2234,-0.2462,-0.3986,0.4293,6.3,12.45,-145.5,9.8043,-0.3519,0.6488,-1.1413,-0.0624,0.3323,-88.65,1.65,9.75,6.83,0.8,-7.66,0.3327,0.5411,0.1222,-40.1875,-34.875,32.875,198.3125,39.5,-170.0625,0
1776972105.81,9.5265,-1.3527,-0.2586,-0.3411,-0.3765,0.4636,5.25,12.45,-148.35,9.6606,0.1676,0.5842,-1.0749,-0.0261,0.3829,-87.75,0.9,9.3,6.81,1.08,-7.54,0.1822,0.4712,0.0556,-40.1875,-34.875,32.875,198.3125,39.5,-170.0625,0
1776972105.819,9.3733,-1.4485,0.0958,-0.3288,-0.3778,0.4978,6.15,14.25,-149.55,9.4691,0.7446,1.0175,-1.0528,-0.0064,0.4221,-88.2,0.15,10.5,6.74,0.95,-7.41,0.0807,0.3534,0.0164,-40.1875,-34.875,32.875,198.3125,39.6875,-170.125,0
1776972105.823,9.3733,-1.4485,0.0958,-0.3288,-0.3778,0.4978,6.15,14.25,-149.55,9.4691,0.7446,1.0175,-1.0528,-0.0064,0.4221,-88.2,0.15,10.5,6.74,0.95,-7.41,0.0807,0.3534,0.0164,-40.1875,-34.875,32.875,198.3125,39.75,-170.125,0
1776972105.831,9.1075,-1.0942,0.486,-0.3698,-0.3826,0.5468,6.45,13.8,-148.8,9.426,0.8739,1.4509,-0.9878,0.0101,0.4442,-88.05,0.0,9.15,6.24,1.12,-7.54,0.0109,0.1844,-0.0109,-40.1875,-34.875,32.875,198.3125,39.875,-170.0625,0
1776972105.841,9.153,-0.8308,0.6201,-0.3072,-0.377,0.5713,7.8,13.95,-150.45,9.3206,1.0367,1.8076,-0.8628,0.0216,0.4255,-88.05,-0.75,11.1,6.31,1.21,-7.4,-0.0698,0.1593,-0.0175,-40.1875,-34.875,32.875,198.3125,39.875,-170.0625,0
1776972105.846,9.1339,-0.9218,0.4645,-0.251,-0.3509,0.5396,7.8,13.95,-150.45,9.1937,1.1444,1.9441,-0.6163,0.0469,0.4066,-88.05,-0.75,11.1,6.31,1.21,-7.4,-0.0698,0.1593,-0.0175,-40.1875,-34.875,32.875,198.3125,39.9375,-170.0,0
1776972105.851,9.1339,-0.9218,0.4645,-0.251,-0.3509,0.5396,7.8,13.95,-150.45,9.1937,1.1444,1.9441,-0.6163,0.0469,0.4066,-87.0,-0.9,10.8,6.05,1.32,-7.36,-0.0698,0.0938,-0.0087,-41.25,-34.5,32.5,198.3125,39.9375,-170.0,0
1776972105.856,9.4715,-1.0678,-0.2586,-0.2044,-0.344,0.4954,7.8,13.95,-150.45,9.1315,1.1971,1.9992,-0.2992,0.0938,0.3848,-87.0,-0.9,10.8,6.05,1.32,-7.36,-0.0698,0.0938,-0.0087,-41.25,-34.5,32.5,198.3125,39.9375,-170.0,0
1776972105.861,9.4715,-1.0678,-0.2586,-0.2044,-0.344,0.4954,7.8,13.95,-150.45,9.1315,1.1971,1.9992,-0.2992,0.0938,0.3848,-87.0,-1.35,12.0,6.2,1.26,-7.4,-0.1102,-0.0393,0.0185,-41.25,-34.5,32.5,198.3125,39.875,-169.9375,0
1776972105.866,9.5648,-1.1636,-0.5363,-0.1175,-0.3528,0.4546,9.15,13.95,-150.45,9.0333,1.1205,1.9225,0.0314,0.1442,0.372,-87.0,-1.35,12.0,6.2,1.26,-7.4,-0.1494,0.036,0.0469,-41.25,-34.5,32.5,198.375,39.9375,-169.875,0
1776972105.871,9.5648,-1.1636,-0.5363,-0.1175,-0.3528,0.4546,9.15,13.95,-150.45,9.0333,1.1205,1.9225,0.0314,0.1442,0.372,-87.0,-1.35,12.0,6.27,1.09,-7.48,-0.1494,0.036,0.0469,-41.25,-34.5,32.5,198.4375,39.9375,-169.8125,0
1776972105.881,9.5361,-1.1229,-0.3807,-0.0847,-0.3672,0.429,8.85,12.45,-149.4,9.1171,1.1109,1.8028,0.283,0.1889,0.3587,-88.2,-1.35,10.05,6.2,1.24,-7.29,-0.1505,0.0829,0.0545,-41.25,-34.5,32.5,198.4375,39.9375,-169.8125,0
1776972105.891,9.6702,-1.166,-0.2107,0.0029,-0.3661,0.384,9.0,13.5,-149.85,9.244,1.1732,1.5826,0.4325,0.2036,0.3669,-88.2,-2.1,10.5,6.15,1.18,-7.44,-0.1276,0.0644,0.0567,-41.25,-34.5,32.5,198.5,40.0,-169.75,0
1776972105.896,9.7827,-1.1253,-0.1532,0.0357,-0.3712,0.3563,10.35,12.45,-149.7,9.5409,0.9361,1.1779,0.498,0.2086,0.3866,-88.2,-2.1,10.5,6.15,1.18,-7.44,-0.1276,0.0644,0.0567,-41.25,-34.5,32.5,198.5,40.0,-169.75,0
1776972105.901,9.7827,-1.1253,-0.1532,0.0357,-0.3712,0.3563,10.35,12.45,-149.7,9.5409,0.9361,1.1779,0.498,0.2086,0.3866,-87.45,-1.65,11.55,6.28,1.15,-7.45,-0.0818,0.0785,0.0709,-41.6875,-34.875,31.375,198.5625,40.0625,-169.75,0
1776972105.905,9.5193,-1.4557,-0.1628,-0.0037,-0.3978,0.3571,10.35,12.45,-149.7,9.8258,0.6632,0.8906,0.4922,0.1943,0.4181,-87.45,-1.65,11.55,6.28,1.15,-7.45,-0.0818,0.0785,0.0709,-41.6875,-34.875,31.375,198.5625,40.0625,-169.75,0
1776972105.91,9.5193,-1.4557,-0.1628,-0.0037,-0.3978,0.3571,10.35,12.45,-149.7,9.8258,0.6632,0.8906,0.4922,0.1943,0.4181,-86.7,-1.35,11.25,6.47,1.17,-7.32,-0.0415,0.1342,0.0829,-41.6875,-34.875,31.375,198.625,40.125,-169.75,0
1776972105.915,10.0652,-1.3958,-0.4381,-0.0069,-0.3768,0.3813,10.35,12.45,-149.7,9.8857,0.4022,0.7398,0.4205,0.1788,0.4477,-86.7,-1.35,11.25,6.47,1.17,-7.32,-0.0284,0.1167,0.084,-41.6875,-34.875,31.375,198.6875,40.1875,-169.8125,0
1776972105.921,10.0652,-1.3958,-0.4381,-0.0069,-0.3768,0.3813,10.35,12.45,-149.7,9.8761,0.2658,0.6081,0.4205,0.1788,0.4477,-88.05,-1.95,10.35,6.59,1.04,-7.49,-0.0284,0.1167,0.084,-41.6875,-34.875,31.375,198.6875,40.25,-169.8125,0
1776972105.931,9.9048,-1.4054,-0.2753,-0.053,-0.3885,0.4077,9.75,11.55,-149.85,9.7157,0.1245,0.5315,0.3195,0.1495,0.4588,-87.45,-2.4,11.55,6.56,1.11,-7.41,-0.0316,0.0971,0.0774,-41.6875,-34.875,31.375,198.6875,40.25,-169.8125,0
1776972105.941,9.7899,-1.3815,-0.0551,-0.0813,-0.3933,0.4295,7.5,12.75,-151.35,9.7109,0.0646,0.395,0.1799,0.1503,0.4684,-88.8,-3.0,10.35,6.51,1.14,-7.38,-0.048,0.0829,0.0654,-41.6875,-34.875,31.375,198.75,40.3125,-169.8125,0
1776972105.946,9.7061,-1.2043,0.0383,-0.0973,-0.376,0.4311,8.85,10.95,-152.25,9.7109,0.0646,0.395,0.0426,0.1255,0.4652,-88.8,-3.0,10.35,6.51,1.14,-7.38,-0.048,0.0829,0.0654,-41.6875,-34.875,31.375,198.8125,40.375,-169.8125,0
1776972105.951,9.7061,-1.2043,0.0383,-0.0973,-0.376,0.4311,8.85,10.95,-152.25,9.7013,-0.0335,0.5243,-0.0943,0.1074,0.4466,-86.7,-2.1,10.8,6.4,1.16,-7.31,-0.0556,0.0731,0.0676,-41.25,-34.75,31.6875,198.8125,40.375,-169.8125,0
1776972105.956,9.6893,-1.1971,0.249,-0.1058,-0.3786,0.4442,9.3,13.8,-152.4,9.7013,-0.0335,0.5243,-0.0943,0.1074,0.4466,-86.7,-2.1,10.8,6.4,1.16,-7.31,-0.0556,0.0731,0.0676,-41.25,-34.75,31.6875,198.875,40.375,-169.8125,0
1776972105.961,9.6893,-1.1971,0.249,-0.1058,-0.3786,0.4442,9.3,13.8,-152.4,9.5816,-0.0455,0.723,-0.2262,0.0738,0.4197,-86.7,-2.1,10.8,6.34,1.21,-7.41,-0.0207,0.036,0.0709,-41.25,-34.75,31.6875,198.875,40.375,-169.8125,0
1776972105.966,9.6965,-1.2282,0.3687,-0.1378,-0.3917,0.4562,9.3,13.8,-152.4,9.5816,-0.0455,0.723,-0.2262,0.0738,0.4197,-86.7,-2.1,10.8,6.34,1.21,-7.41,-0.0142,0.0196,0.0785,-41.25,-34.75,31.6875,198.875,40.4375,-169.8125,0
1776972105.972,9.7707,-1.8124,0.0622,-0.1684,-0.408,0.4914,9.3,13.8,-152.4,9.6127,-0.0503,1.0127,-0.3427,0.0528,0.3912,-88.05,-3.0,12.45,6.37,1.13,-7.46,-0.0142,0.0196,0.0785,-41.25,-34.75,31.6875,198.875,40.4375,-169.8125,0
1776972105.981,9.8019,-1.5634,0.5267,-0.1092,-0.4048,0.5164,9.6,11.7,-152.55,9.6223,0.0,1.2905,-0.4194,0.0264,0.3635,-88.35,-1.95,10.65,6.38,1.19,-7.31,-0.0491,0.0502,0.0731,-41.25,-34.75,31.6875,198.9375,40.4375,-169.875,0
1776972105.986,9.8019,-1.5634,0.5267,-0.1092,-0.4048,0.5164,9.3,12.0,-152.4,9.6223,0.0,1.2905,-0.4194,0.0264,0.3635,-88.35,-1.95,10.65,6.38,1.19,-7.31,-0.0524,0.0611,0.0851,-41.25,-34.75,31.6875,199.0,40.5,-169.875,0
1776972105.992,9.7109,-1.6616,0.4094,-0.1287,-0.5031,0.5095,9.3,12.0,-152.4,9.5505,0.1293,1.5251,-0.4807,0.0141,0.3304,-88.05,-2.7,10.65,6.38,1.14,-7.39,-0.0524,0.0611,0.0851,-41.25,-34.75,31.6875,199.0,40.5,-169.875,0
1776972105.997,9.7109,-1.6616,0.4094,-0.1287,-0.5031,0.5095,10.95,11.4,-151.8,9.5505,0.1293,1.5251,-0.4807,0.0141,0.3304,-88.05,-2.7,10.65,6.42,1.11,-7.29,-0.0295,0.048,0.1025,-41.6875,-34.0,32.5,199.0625,40.5625,-169.875,0
1776972106.002,9.6534,-1.7478,0.3232,-0.1159,-0.506,0.5159,10.95,11.4,-151.8,9.4547,0.3807,1.743,-0.4954,0.0011,0.3123,-86.85,-3.45,11.4,6.42,1.11,-7.29,-0.0295,0.048,0.1025,-41.6875,-34.0,32.5,199.0625,40.5625,-169.875,0
1776972106.007,9.6534,-1.7478,0.3232,-0.1159,-0.506,0.5159,11.55,11.55,-152.7,9.4547,0.3807,1.743,-0.4954,0.0011,0.3123,-86.85,-3.45,11.4,6.42,1.11,-7.29,0.0011,-0.0142,0.1189,-41.6875,-34.0,32.5,199.125,40.5625,-169.9375,0
1776972106.012,9.651,-1.6903,0.1556,-0.0735,-0.494,0.5092,11.55,11.55,-152.7,9.414,0.5411,1.9417,-0.4724,0.0032,0.2939,-86.1,-4.2,11.1,6.42,1.13,-7.22,0.0011,-0.0142,0.1189,-41.6875,-34.0,32.5,199.125,40.5625,-169.9375,0
1776972106.017,9.651,-1.6903,0.1556,-0.0735,-0.494,0.5092,10.65,11.7,-152.55,9.414,0.5411,1.9417,-0.4724,0.0032,0.2939,-86.1,-4.2,11.1,6.42,1.13,-7.22,0.0676,-0.0458,0.1451,-41.6875,-34.0,32.5,199.1875,40.5,-170.0625,0
1776972106.022,9.7779,-1.8292,0.0694,-0.057,-0.4834,0.5039,10.65,11.7,-152.55,9.481,0.7614,1.9656,-0.4421,0.0035,0.2761,-88.8,-3.9,11.85,6.11,1.23,-7.42,0.0676,-0.0458,0.1451,-41.6875,-34.0,32.5,199.1875,40.5,-170.0625,0
1776972106.031,9.9886,-1.889,0.0407,-0.0679,-0.5209,0.5119,10.65,11.7,-152.55,9.5193,0.8116,1.8627,-0.4024,0.0083,0.2819,-87.6,-4.2,11.4,6.48,1.07,-7.39,0.1113,0.0709,0.1516,-41.6875,-34.0,32.5,199.25,40.5625,-170.1875,0
1776972106.036,9.9886,-1.889,0.0407,-0.0679,-0.5209,0.5119,11.4,10.65,-153.3,9.5193,0.8116,1.8627,-0.4024,0.0083,0.2819,-87.6,-4.2,11.4,6.48,1.07,-7.39,0.0993,0.1953,0.1374,-41.6875,-34.0,32.5,199.3125,40.6875,-170.3125,0
1776972106.042,9.7947,-1.7526,-0.1987,-0.0466,-0.5708,0.5089,11.25,10.65,-153.3,9.5385,0.8571,1.64,-0.3373,0.0171,0.2782,-86.7,-4.05,10.5,6.57,1.02,-7.3,0.0993,0.1953,0.1374,-41.6875,-34.0,32.5,199.3125,40.6875,-170.3125,0
1776972106.047,9.7947,-1.7526,-0.1987,-0.0466,-0.5708,0.5089,11.25,12.3,-153.45,9.4499,1.0343,1.4748,-0.2686,0.0245,0.287,-86.7,-4.05,10.5,6.57,1.02,-7.3,0.0993,0.1953,0.1374,-42.5,-34.375,31.0,199.375,40.8125,-170.4375,0
1776972106.052,9.7109,-1.5514,-0.2227,-0.0424,-0.6011,0.5025,12.6,12.0,-154.2,9.4499,1.0343,1.4748,-0.2686,0.0245,0.287,-86.7,-4.05,10.5,6.5,1.09,-7.4,0.0993,0.1734,0.1309,-42.5,-34.375,31.0,199.375,40.8125,-170.4375,0
1776972106.057,9.7109,-1.5514,-0.2227,-0.0424,-0.6011,0.5025,12.6,12.0,-154.2,9.4906,1.1349,1.3336,-0.1935,0.0328,0.2939,-86.7,-4.05,10.5,6.5,1.09,-7.4,0.0993,0.1734,0.1309,-42.5,-34.375,31.0,199.4375,40.9375,-170.5625,0
1776972106.062,9.6845,-1.2929,-0.2682,-0.0333,-0.6179,0.4858,12.3,10.5,-152.4,9.4906,1.1349,1.3336,-0.1935,0.0328,0.2939,-87.45,-4.5,11.25,6.38,1.04,-7.31,0.1244,0.2029,0.1134,-42.5,-34.375,31.0,199.4375,40.9375,-170.5625,0
1776972106.067,9.6845,-1.2929,-0.2682,-0.0333,-0.6179,0.4858,12.3,10.5,-152.4,9.4715,1.2809,1.1899,-0.1284,0.025,0.3046,-87.45,-4.5,11.25,6.38,1.04,-7.31,0.1604,0.2476,0.0807,-42.5,-34.375,31.0,199.4375,41.0625,-170.625,0
1776972106.072,9.6917,-1.3001,-0.5124,-0.0123,-0.636,0.4724,12.6,10.05,-155.55,9.4715,1.2809,1.1899,-0.1284,0.025,0.3046,-87.6,-6.6,12.15,6.57,1.21,-7.14,0.1604,0.2476,0.0807,-42.5,-34.375,31.0,199.4375,41.0625,-170.625,0
1776972106.081,9.5768,-1.3001,-0.5267,0.0653,-0.6592,0.4626,12.6,10.05,-155.55,9.402,1.3767,0.9744,-0.0629,0.0232,0.3022,-87.3,-5.4,11.1,6.42,0.94,-7.32,0.204,0.2193,0.0622,-42.5,-34.375,31.0,199.375,41.1875,-170.75,0
1776972106.086,9.5768,-1.3001,-0.5267,0.0653,-0.6592,0.4626,12.6,10.05,-155.55,9.4667,1.3791,0.8691,-0.0021,0.0107,0.3123,-87.3,-5.4,11.1,6.42,0.94,-7.32,0.1887,0.1767,0.0764,-42.5,-34.375,31.0,199.375,41.3125,-170.9375,0
1776972106.092,9.6582,-1.3791,-0.6728,0.1186,-0.6989,0.4666,12.3,10.05,-154.2,9.4667,1.3791,0.8691,-0.0021,0.0107,0.3123,-86.25,-6.0,12.0,6.28,0.99,-7.32,0.1887,0.1767,0.0764,-42.5,-34.375,31.0,199.375,41.3125,-170.9375,0
1776972106.097,9.7827,-1.3695,-0.6153,0.1188,-0.7621,0.5039,12.3,10.05,-154.2,9.3853,1.3096,0.9146,0.0485,0.0173,0.3112,-86.25,-6.0,12.0,6.28,0.99,-7.32,0.1549,0.1549,0.0916,-42.875,-34.0,31.375,199.4375,41.375,-171.0625,0
1776972106.102,9.7827,-1.3695,-0.6153,0.1188,-0.7621,0.5039,12.15,10.2,-154.65,9.3853,1.3096,0.9146,0.0485,0.0173,0.3112,-86.7,-5.25,12.3,6.17,1.04,-7.18,0.1549,0.1549,0.0916,-42.875,-34.0,31.375,199.4375,41.375,-171.0625,0
1776972106.107,9.6774,-1.3695,-0.5291,0.1039,-0.7874,0.5292,12.15,10.2,-154.65,9.4308,1.2498,0.8882,0.1055,0.0123,0.311,-86.7,-5.25,12.3,6.17,1.04,-7.18,0.1385,0.2214,0.0753,-42.875,-34.0,31.375,199.4375,41.5,-171.125,0
1776972106.112,9.6774,-1.3695,-0.5291,0.1039,-0.7874,0.5292,12.15,7.95,-155.85,9.4308,1.2498,0.8882,0.1055,0.0123,0.311,-86.7,-5.25,11.55,6.21,0.94,-7.4,0.1385,0.2214,0.0753,-42.875,-34.0,31.375,199.4375,41.5,-171.125,0
1776972106.117,9.5648,-1.3264,-0.8523,0.137,-0.7986,0.5391,12.15,7.95,-155.85,9.3781,1.1157,0.9122,0.1561,0.0157,0.3054,-86.7,-5.25,11.55,6.21,0.94,-7.4,0.1342,0.288,0.096,-42.875,-34.0,31.375,199.4375,41.6875,-171.25,0
1776972106.122,9.5648,-1.3264,-0.8523,0.137,-0.7986,0.5391,12.45,9.45,-156.15,9.3781,1.1157,0.9122,0.1561,0.0157,0.3054,-86.25,-6.0,11.55,5.92,1.03,-7.34,0.1342,0.288,0.096,-42.875,-34.0,31.375,199.4375,41.875,-171.375,0
1776972106.131,9.56,-1.6927,-0.7183,0.118,-0.7975,0.5505,12.6,9.0,-155.55,9.1722,0.9098,1.0965,0.2025,0.0176,0.3112,-87.3,-7.35,11.1,6.22,0.95,-7.17,0.1647,0.3349,0.0993,-42.875,-34.0,31.375,199.4375,41.875,-171.375,0
1776972106.141,9.4284,-1.7358,-1.3336,0.1159,-0.8156,0.5556,12.6,9.0,-155.55,9.4332,0.7207,1.1253,0.2411,0.0125,0.3072,-87.3,-7.35,11.1,6.13,0.99,-7.04,0.1429,0.4036,0.1451,-42.875,-34.0,31.375,199.5,42.125,-171.5,0
1776972106.146,9.4284,-2.059,-1.4126,0.1855,-0.7895,0.5297,12.6,9.0,-155.55,9.4092,0.431,1.233,0.2809,0.0197,0.3208,-87.3,-7.35,11.1,6.13,0.99,-7.04,0.1429,0.4036,0.1451,-42.875,-34.0,31.375,199.5,42.125,-171.5,0
1776972106.151,9.4284,-2.059,-1.4126,0.1855,-0.7895,0.5297,13.95,9.15,-157.2,9.4092,0.431,1.233,0.2809,0.0197,0.3208,-86.7,-6.0,11.55,6.06,1.01,-7.33,0.1582,0.4309,0.1538,-43.5625,-33.6875,31.6875,199.5625,42.3125,-171.625,0
1776972106.156,9.5672,-2.6193,-1.5203,0.1924,-0.7765,0.5383,13.95,9.15,-157.2,9.4379,0.1317,1.391,0.316,0.0096,0.3445,-86.7,-6.0,11.55,6.06,1.01,-7.33,0.1582,0.4309,0.1538,-43.5625,-33.6875,31.6875,199.5625,42.3125,-171.625,0
1776972106.161,9.5672,-2.6193,-1.5203,0.1924,-0.7765,0.5383,11.55,8.55,-158.4,9.5744,-0.0862,1.4629,0.316,0.0096,0.3445,-86.85,-5.85,12.15,6.42,0.92,-6.99,0.1582,0.5225,0.1789,-43.5625,-33.6875,31.6875,199.5625,42.625,-171.75,0
1776972106.166,9.6055,-2.8276,-1.5778,0.2137,-0.7815,0.5449,11.55,8.55,-158.4,9.5744,-0.0862,1.4629,0.3152,0.0072,0.3659,-86.85,-5.85,12.15,6.42,0.92,-6.99,0.1582,0.5225,0.1789,-43.5625,-33.6875,31.6875,199.625,42.9375,-171.875,0
1776972106.172,9.6055,-2.8276,-1.5778,0.2137,-0.7815,0.5449,14.25,7.65,-157.5,9.6965,-0.1867,1.4724,0.3,0.0048,0.3888,-88.35,-6.15,11.4,6.25,1.03,-7.18,0.1604,0.6436,0.1876,-43.5625,-33.6875,31.6875,199.6875,43.3125,-172.0625,0
1776972106.181,9.6606,-3.0981,-1.2234,0.1823,-0.7666,0.5497,13.95,8.4,-157.95,9.7516,-0.2298,1.482,0.2505,-0.0101,0.4098,-87.3,-6.6,11.4,7.1,0.45,-7.35,0.1604,0.6534,0.2018,-43.5625,-33.6875,31.6875,199.6875,43.3125,-172.0625,0
1776972106.191,9.754,-3.1364,-1.2617,0.0946,-0.7714,0.578,13.05,6.3,-158.4,9.7492,-0.0742,1.4964,0.2062,-0.0179,0.4207,-86.25,-6.75,10.5,7.93,0.24,-7.61,0.132,0.7112,0.2313,-43.5625,-33.6875,31.6875,199.75,43.75,-172.1875,0
1776972106.196,9.8378,-2.9185,-1.1827,0.0522,-0.7829,0.6142,13.05,6.3,-158.4,9.7492,-0.0742,1.4964,0.2062,-0.0179,0.4207,-86.25,-6.75,10.5,7.93,0.24,-7.61,0.132,0.7112,0.2313,-43.5625,-33.6875,31.6875,199.75,43.75,-172.1875,0
1776972106.201,9.8378,-2.9185,-1.1827,0.0522,-0.7829,0.6142,13.05,6.3,-158.4,9.6893,0.2298,1.506,0.1679,-0.0352,0.409,-87.3,-6.9,11.85,7.2,0.21,-7.2,0.1353,0.745,0.1713,-43.5,-32.1875,31.0,199.8125,44.125,-172.3125,0
1776972106.206,9.7468,-2.8611,-0.6297,-0.0634,-0.7826,0.6438,13.05,6.3,-158.4,9.6893,0.2298,1.506,0.1679,-0.0352,0.409,-87.3,-6.9,11.85,7.2,0.21,-7.2,0.1353,0.745,0.1713,-43.5,-32.1875,31.0,199.8125,44.125,-172.3125,0
1776972106.211,9.7468,-2.8611,-0.6297,-0.0634,-0.7826,0.6438,15.15,6.3,-158.4,9.5337,0.5219,1.5634,0.145,-0.0386,0.3901,-87.3,-6.9,11.85,7.52,1.0,-7.18,0.1014,0.6905,0.0567,-43.5,-32.1875,31.0,215.125,44.5625,-172.3125,0
1776972106.216,9.8881,-2.7054,-0.8116,-0.1474,-0.7687,0.6544,15.15,6.3,-158.4,9.5337,0.5219,1.5634,0.145,-0.0386,0.3901,-87.3,-6.9,11.85,7.52,1.0,-7.18,0.0382,0.6185,0.0556,-43.5,-32.1875,31.0,214.9375,44.875,-172.375,0
1776972106.222,9.8881,-2.7054,-0.8116,-0.2145,-0.785,0.651,16.5,5.4,-159.0,9.5888,0.6512,1.47,0.133,-0.0389,0.3624,-85.95,-7.5,11.55,6.73,0.8,-7.12,0.0382,0.6185,0.0556,-43.5,-32.1875,31.0,214.875,45.125,-172.3125,0
1776972106.232,9.9264,-2.6097,-0.6656,-0.2145,-0.785,0.651,14.25,5.7,-159.3,9.596,0.7494,1.312,0.1199,-0.0586,0.3222,-85.95,-7.5,11.55,6.74,0.73,-7.12,0.0153,0.4832,0.0273,-43.5,-32.1875,31.0,214.875,45.125,-172.3125,0
1776972106.242,10.003,-2.4684,-0.7039,-0.3099,-0.8314,0.6773,15.3,4.65,-160.05,9.5984,0.9481,1.2186,0.0826,-0.0845,0.2872,-87.6,-6.9,10.65,6.85,0.58,-7.1,0.0065,0.5061,0.0502,-43.5,-32.1875,31.0,214.75,45.4375,-172.3125,0
1776972106.246,10.3022,-2.5307,-0.68,-0.3099,-0.8314,0.6773,15.3,4.65,-160.05,9.5984,0.9481,1.2186,0.0826,-0.0845,0.2872,-87.6,-6.9,10.65,6.85,0.58,-7.1,0.0065,0.5061,0.0502,-43.5,-32.1875,31.0,214.75,45.4375,-172.3125,0
1776972106.251,10.6566,-2.2577,-1.0965,-0.3437,-0.8964,0.7133,16.5,5.4,-159.3,9.5744,1.1444,1.2354,0.0213,-0.1085,0.2649,-87.3,-9.0,10.35,6.87,1.11,-6.46,-0.0175,0.4985,0.0764,-46.1875,-33.0,29.375,214.6875,45.6875,-172.3125,0
1776972106.256,10.6566,-2.2577,-1.0965,-0.3437,-0.8964,0.7133,16.5,5.4,-159.3,9.5744,1.1444,1.2354,0.0213,-0.1085,0.2649,-87.3,-9.0,10.35,6.87,1.11,-6.46,-0.0175,0.4985,0.0764,-46.1875,-33.0,29.375,214.6875,45.6875,-172.3125,0
1776972106.261,11.1306,-1.6664,-1.8028,-0.3448,-0.9819,0.7357,16.5,5.4,-159.3,9.9024,1.5754,1.1588,-0.0349,-0.1383,0.234,-87.45,-6.75,11.25,6.92,0.26,-7.09,-0.0578,0.5083,0.0862,-46.1875,-33.0,29.375,214.625,46.0,-172.3125,0
1776972106.266,11.1306,-1.6664,-1.8028,-0.3448,-0.9819,0.7357,16.5,5.4,-159.3,9.9024,1.5754,1.1588,-0.0349,-0.1383,0.234,-87.45,-6.75,11.25,6.92,0.26,-7.09,-0.0251,0.6294,0.0447,-46.1875,-33.0,29.375,214.5625,46.375,-172.25,0
1776972106.272,11.3892,-1.0175,-1.6257,-0.3432,-1.0938,0.688,16.65,3.3,-162.0,10.1538,1.8699,0.9864,-0.089,-0.1913,0.2105,-85.95,-6.75,11.25,6.6,0.07,-7.32,-0.0251,0.6294,0.0447,-46.1875,-33.0,29.375,214.5625,46.75,-172.1875,0
1776972106.282,11.5041,-0.6991,-1.2785,-0.4138,-1.1527,0.6787,15.9,3.75,-162.75,10.2999,2.0111,1.0295,-0.0983,-0.2507,0.1884,-85.95,-7.5,11.25,6.88,0.31,-7.1,-0.1353,0.7276,0.0622,-46.1875,-33.0,29.375,214.5625,46.75,-172.1875,0
1776972106.292,11.5041,-0.8092,-0.9385,-0.4866,-1.2409,0.7272,15.75,3.45,-163.95,10.2113,2.2458,1.2546,-0.0954,-0.279,0.1503,-86.7,-8.7,11.25,7.06,0.5,-6.9,-0.2193,0.8607,0.0196,-46.1875,-33.0,29.375,214.6875,47.25,-172.0,0
1776972106.296,11.5041,-0.8092,-0.9385,-0.4866,-1.2409,0.7272,15.75,3.45,-163.95,10.3286,2.4541,1.324,-0.0954,-0.279,0.1503,-86.7,-8.7,11.25,7.06,0.5,-6.9,-0.2193,0.8607,0.0196,-46.1875,-33.0,29.375,214.6875,47.25,-172.0,0
1776972106.301,11.7124,-1.2234,-0.6201,-0.4562,-1.3169,0.7877,16.65,3.3,-164.1,10.3286,2.4541,1.324,-0.0304,-0.2963,0.0933,-86.7,-8.7,11.25,6.72,0.18,-7.25,-0.2738,0.9796,0.0044,-47.1875,-32.1875,27.875,215.0625,47.75,-171.75,0
1776972106.306,11.7124,-1.2234,-0.6201,-0.4562,-1.3169,0.7877,16.65,3.3,-164.1,10.3477,2.715,1.415,0.0354,-0.3288,0.025,-86.7,-8.7,11.25,6.72,0.18,-7.25,-0.2738,0.9796,0.0044,-47.1875,-32.1875,27.875,215.0625,47.75,-171.75,0
1776972106.311,11.9519,-1.3288,-0.5866,-0.3925,-1.4035,0.858,15.9,3.0,-165.6,10.3477,2.715,1.415,0.0354,-0.3288,0.025,-87.0,-8.4,9.0,7.14,0.51,-6.84,-0.2814,1.0439,-0.0644,-47.1875,-32.1875,27.875,215.25,48.3125,-171.4375,0
1776972106.316,11.9519,-1.3288,-0.5866,-0.3925,-1.4035,0.858,15.9,3.0,-165.6,10.2759,2.9712,1.5371,0.1143,-0.336,-0.0594,-87.0,-8.4,9.0,7.14,0.51,-6.84,-0.3403,1.1999,-0.1091,-47.1875,-32.1875,27.875,215.5625,49.0,-171.0625,0
1776972106.322,12.2416,-1.7382,-0.7877,-0.5433,-1.4861,0.9499,15.9,3.0,-165.6,10.2759,2.9712,1.5371,0.1143,-0.336,-0.0594,-87.0,-8.4,9.0,7.11,0.65,-6.57,-0.3403,1.1999,-0.1091,-47.1875,-32.1875,27.875,215.875,49.75,-170.625,0
1776972106.332,13.1681,-1.9848,-0.4741,-0.6936,-1.6843,1.0488,18.75,0.3,-168.15,10.6853,2.9951,1.6448,0.2118,-0.3461,-0.158,-86.7,-7.95,10.5,7.19,0.68,-5.92,-0.3545,1.3908,-0.1985,-47.1875,-32.1875,27.875,215.875,49.75,-170.625,0
1776972106.342,13.9343,-1.8364,0.0814,-0.8495,-1.8146,1.1748,19.65,0.9,-170.7,11.0708,2.8706,1.415,0.3227,-0.3714,-0.3022,-87.0,-8.4,10.8,6.92,0.79,-6.62,-0.4167,1.5097,-0.2422,-47.1875,-32.1875,27.875,216.25,50.5,-170.0625,0
1776972106.347,13.9343,-1.8364,0.0814,-0.8495,-1.8146,1.1748,21.15,0.45,-171.15,11.2073,2.5019,1.1971,0.4413,-0.412,-0.449,-87.0,-8.4,10.8,6.92,0.79,-6.62,-0.4167,1.5097,-0.2422,-48.0625,-32.5625,25.875,216.75,51.4375,-169.375,0
1776972106.352,14.4538,-1.9585,0.8667,-1.1242,-1.9049,1.3123,21.15,0.45,-171.15,11.2073,2.5019,1.1971,0.4413,-0.412,-0.449,-86.1,-7.8,12.45,6.65,0.28,-6.33,-0.528,1.7148,-0.2574,-48.0625,-32.5625,25.875,216.75,51.4375,-169.375,0
1776972106.357,14.4538,-1.9585,0.8667,-1.1242,-1.9049,1.3123,22.2,-2.4,-172.2,10.7955,2.5522,1.0032,0.5263,-0.4727,-0.5966,-86.1,-7.8,12.45,6.65,0.28,-6.33,-0.528,1.7148,-0.2574,-48.0625,-32.5625,25.875,217.3125,52.6875,-168.5625,0
1776972106.362,14.4322,-1.7478,1.0151,-1.4107,-2.035,1.4298,22.2,-2.4,-172.2,10.7955,2.5522,1.0032,0.5263,-0.4727,-0.5966,-87.0,-7.2,9.75,6.4,1.05,-6.03,-0.7898,2.3638,-0.1265,-48.0625,-32.5625,25.875,217.3125,52.6875,-168.5625,0
1776972106.367,14.4322,-1.7478,1.0151,-1.4107,-2.035,1.4298,22.2,-2.4,-172.2,10.2232,2.8012,0.4022,0.5489,-0.586,-0.7408,-87.0,-7.2,9.75,6.4,1.05,-6.03,-0.9992,2.9005,-0.0153,-48.0625,-32.5625,25.875,217.9375,54.3125,-167.5,0
1776972106.373,13.5871,-0.5914,0.984,-1.6318,-2.1791,1.4903,22.2,-2.4,-172.2,10.2759,2.375,-0.4788,0.5489,-0.586,-0.7408,-87.0,-6.75,9.75,6.41,0.33,-6.36,-0.9992,2.9005,-0.0153,-48.0625,-32.5625,25.875,218.4375,55.875,-166.625,0
1776972106.382,12.5911,1.0702,1.063,-1.699,-2.1988,1.4258,22.2,-2.4,-172.2,10.2759,2.375,-0.4788,0.4554,-0.7378,-0.8679,-86.7,-4.8,10.05,9.27,1.66,-6.76,-1.1432,2.8612,0.3436,-48.0625,-32.5625,25.875,218.4375,55.875,-166.625,0
1776972106.392,11.3222,2.4972,-1.3695,-1.7794,-2.2226,1.2697,30.6,-4.95,-176.4,9.1051,0.5986,-0.8595,0.3722,-0.8775,-0.9707,-86.7,-4.8,10.05,6.86,1.18,-7.72,-1.309,2.3496,0.6403,-48.0625,-32.5625,25.875,219.0625,57.25,-166.0,0
1776972106.397,10.5201,1.8747,-2.9832,-1.821,-2.2902,1.1008,30.15,-4.5,-178.05,9.1051,0.5986,-0.8595,0.376,-0.9643,-1.1008,-86.7,-4.8,10.05,6.86,1.18,-7.72,-1.309,2.3496,0.6403,-48.0625,-32.5625,25.875,219.0625,57.25,-166.0,0
1776972106.402,10.5201,1.8747,-2.9832,-1.821,-2.2902,1.1008,30.15,-4.5,-178.05,9.153,-0.079,-1.2258,0.376,-0.9643,-1.1008,-87.3,-4.65,10.35,6.72,-3.22,-9.1,-1.3755,2.7663,0.4527,-50.25,-33.6875,21.1875,219.8125,58.75,-165.0,0
1776972106.406,10.6087,-0.182,-2.3272,-1.4882,-2.3635,0.9659,32.1,-1.95,-180.0,9.153,-0.079,-1.2258,0.2262,-1.0658,-1.2505,-87.3,-4.65,10.35,6.72,-3.22,-9.1,-1.3755,2.7663,0.4527,-50.25,-33.6875,21.1875,219.8125,58.75,-165.0,0
1776972106.412,10.6087,-0.182,-2.3272,-1.4882,-2.3635,0.9659,32.1,-1.95,-180.0,9.1482,-0.9529,-1.5874,0.2262,-1.0658,-1.2505,-87.3,-4.65,10.35,8.45,4.37,-7.96,-1.1759,3.5921,0.1298,-50.25,-33.6875,21.1875,220.3125,60.6875,-163.5,0
1776972106.416,10.6303,-1.81,-1.3958,-0.9393,-2.4243,0.907,31.05,-1.2,-183.15,9.1482,-0.9529,-1.5874,-0.1609,-1.1842,-1.3992,-87.3,-4.65,10.35,8.45,4.37,-7.96,-1.4693,4.7244,0.4734,-50.25,-33.6875,21.1875,220.6875,63.3125,-161.6875,0
1776972106.423,10.6303,-1.81,-1.3958,-0.9393,-2.4243,0.907,31.05,-1.2,-183.15,8.7747,-1.2737,-1.0008,-0.5385,-1.2585,-1.5423,-88.2,-4.5,9.3,11.13,4.89,-6.17,-1.4693,4.7244,0.4734,-50.25,-33.6875,21.1875,219.75,66.0,-160.875,0
1776972106.432,10.1227,-1.7262,-2.387,-0.6422,-2.4147,0.8708,31.05,-1.2,-183.15,8.6383,-1.3168,-0.4741,-0.6779,-1.1639,-1.6513,-88.35,-3.45,6.15,11.47,1.47,-6.8,-0.2662,4.7691,1.0036,-50.25,-33.6875,21.1875,219.75,66.0,-160.875,0
1776972106.442,9.4523,-1.8507,-3.8595,-0.5726,-2.5692,0.9241,31.05,-1.2,-183.15,8.5018,-0.3855,-0.4764,-0.7088,-1.0445,-1.7397,-89.1,-2.25,7.65,14.68,3.24,-8.54,0.4909,4.8509,1.2086,-50.25,-33.6875,21.1875,218.125,68.75,-160.5625,0
1776972106.447,8.6072,-3.2154,-5.0063,-0.4189,-2.6473,0.9483,32.4,-4.2,-187.2,8.5018,-0.3855,-0.4764,-0.7088,-1.0445,-1.7397,-89.1,-2.25,7.65,14.68,3.24,-8.54,0.4909,4.8509,1.2086,-50.25,-33.6875,21.1875,216.6875,71.5625,-160.1875,0
1776972106.452,8.6072,-3.2154,-5.0063,-0.4189,-2.6473,0.9483,32.4,-4.2,-187.2,9.0836,0.1413,-0.0144,-0.5657,-0.9675,-1.8101,-88.65,-2.1,5.7,11.77,2.95,-4.18,0.2389,4.9589,1.4094,-54.25,-34.0,11.375,216.6875,71.5625,-160.1875,0
1776972106.457,8.4683,-4.7501,-5.7245,-0.2942,-2.6646,0.9129,32.1,-4.95,-186.45,9.0836,0.1413,-0.0144,-0.5657,-0.9675,-1.8101,-88.65,-2.1,5.7,11.77,2.95,-4.18,0.2389,4.9589,1.4094,-54.25,-34.0,11.375,215.25,74.3125,-160.1875,0
1776972106.462,8.4683,-4.7501,-5.7245,-0.2942,-2.6646,0.9129,32.1,-4.95,-186.45,10.738,0.0766,0.1053,-0.3344,-0.8031,-1.7613,-90.3,-1.05,7.35,18.94,3.73,-8.41,0.3305,4.6993,1.5762,-54.25,-34.0,11.375,215.25,74.3125,-160.1875,0
1776972106.467,7.5346,-6.1675,-5.9496,-0.04,-2.683,0.8948,33.15,-7.95,-188.55,10.738,0.0766,0.1053,-0.3344,-0.8031,-1.7613,-90.3,-1.05,7.35,18.94,3.73,-8.41,0.1091,5.0015,1.6002,-54.25,-34.0,11.375,213.9375,77.25,-159.75,0
1776972106.473,7.5346,-6.1675,-5.9496,-0.04,-2.683,0.8948,33.15,-7.95,-188.55,11.4491,0.51,-0.1844,-0.0965,-0.623,-1.6545,-88.95,-0.9,5.25,18.63,2.51,-11.0,0.1091,5.0015,1.6002,-54.25,-34.0,11.375,213.125,79.75,-159.5,0
1776972106.482,7.0174,-7.1036,-6.5673,0.1543,-2.618,0.9422,32.25,-12.0,-184.05,11.5017,1.6041,-0.2227,0.1106,-0.3784,-1.5394,-88.95,-0.9,5.25,15.21,2.35,-8.97,-0.2967,4.3077,1.5435,-54.25,-34.0,11.375,213.125,79.75,-159.5,0
1776972106.492,6.0094,-7.4986,-6.5314,0.2374,-2.492,0.9268,32.25,-12.0,-184.05,11.2695,2.1739,0.6488,0.2254,-0.2851,-1.4703,-88.65,2.85,5.7,11.22,1.92,-7.52,-0.6927,3.6412,1.381,-54.25,-34.0,11.375,212.625,81.9375,-159.125,0
1776972106.497,4.7764,-7.4771,-6.3901,0.2475,-2.2788,0.7461,32.25,-12.0,-184.05,11.2695,2.1739,0.6488,0.2254,-0.2851,-1.4703,-88.65,2.85,5.7,11.22,1.92,-7.52,-0.6927,3.6412,1.381,-54.25,-34.0,11.375,212.625,81.9375,-159.125,0
1776972106.502,4.7764,-7.4771,-6.3901,0.2475,-2.2788,0.7461,32.25,-12.0,-184.05,11.248,2.138,1.0534,0.3477,-0.2244,-1.4434,-88.65,2.85,5.7,7.75,1.25,-6.12,-1.1181,2.9812,1.1301,-56.0625,-30.375,-1.0625,212.75,83.6875,-177.6875,0
1776972106.507,3.632,-6.6559,-5.6647,0.1561,-2.2708,0.5297,29.7,-38.55,-170.25,11.4227,0.9912,1.2641,0.3477,-0.2244,-1.4434,-88.65,2.85,5.7,7.75,1.25,-6.12,-1.1181,2.9812,1.1301,-56.0625,-30.375,-1.0625,212.75,83.6875,-177.6875,0
1776972106.512,3.632,-6.6559,-5.6647,0.1561,-2.2708,0.5297,29.7,-38.55,-170.25,11.4227,0.9912,1.2641,0.474,-0.2137,-1.4059,-88.65,3.3,5.7,1.85,3.38,-11.55,-1.4006,2.6005,1.0047,-56.0625,-30.375,-1.0625,213.0,85.25,-178.125,0
1776972106.517,1.1612,-6.9049,-5.3247,0.1553,-1.9889,0.3832,26.4,-46.8,-161.25,11.5353,0.9074,1.3503,0.474,-0.2137,-1.4059,-88.65,3.3,4.5,1.85,3.38,-11.55,-1.5413,2.2493,1.1465,-56.0625,-30.375,-1.0625,213.25,86.625,-178.75,0
1776972106.523,1.1085,-5.8538,-4.5753,0.1551,-1.3792,0.0512,26.4,-46.8,-161.25,11.5353,0.9074,1.3503,0.6307,-0.2249,-1.3667,-87.45,5.55,4.2,21.34,8.72,-13.54,-1.5413,2.2493,1.1465,-56.0625,-30.375,-1.0625,212.8125,87.625,-179.5,0
1776972106.532,1.1756,-3.5458,-4.5538,0.0727,-1.6094,0.0024,22.5,-54.0,-153.15,11.3437,1.1492,1.3862,0.8106,-0.1687,-1.3518,-88.8,5.4,4.05,11.6,9.52,-16.61,-0.6425,1.4573,1.3624,-56.0625,-30.375,-1.0625,212.8125,87.625,-179.5,0
1776972106.542,1.1301,-2.9736,-3.553,0.3046,-0.9241,-0.1119,19.65,-60.15,-142.65,11.4539,1.5802,1.3503,0.9502,-0.0906,-1.3664,-88.8,5.4,4.05,7.32,6.77,-14.13,0.0698,-0.3414,1.6461,-56.0625,-30.375,-1.0625,211.875,87.5,179.5625,0
1776972106.547,1.1301,-2.9736,-3.553,0.3046,-0.9241,-0.1119,19.65,-60.15,-142.65,10.8721,1.8483,0.9074,1.02,-0.0296,-1.4053,-87.6,7.35,5.55,7.32,6.77,-14.13,0.0698,-0.3414,1.6461,-56.0625,-30.375,-1.0625,211.875,87.5,179.5625,0
1776972106.552,0.735,-2.8276,-3.5338,0.9734,-0.9499,-0.2854,19.65,-60.15,-142.65,10.8721,1.8483,0.9074,1.02,-0.0296,-1.4053,-87.6,7.35,5.55,2.44,3.05,-9.04,0.8247,-1.6461,1.6559,-56.875,-25.5625,-10.0625,210.625,86.3125,178.625,0
1776972106.557,0.735,-2.8276,-3.5338,0.9734,-0.9499,-0.2854,17.25,-69.9,-131.85,10.7643,1.81,1.2785,1.1277,0.041,-1.4346,-86.7,7.5,4.5,2.44,3.05,-9.04,0.8247,-1.6461,1.6559,-56.875,-25.5625,-10.0625,210.625,86.3125,178.625,0
1776972106.562,1.7621,-3.0622,-4.4628,1.7237,0.0013,-0.7229,17.25,-69.9,-131.85,10.7643,1.81,1.2785,1.1277,0.041,-1.4346,-86.7,7.5,4.5,1.49,2.33,-7.72,1.2294,-2.2133,1.7333,-56.875,-25.5625,-10.0625,208.875,84.8125,177.625,0
1776972106.567,1.7621,-3.0622,-4.4628,1.7237,0.0013,-0.7229,17.4,-76.8,-128.25,10.5249,1.6257,1.2929,1.1439,0.2388,-1.4075,-88.95,7.95,4.5,1.49,2.33,-7.72,1.2479,-2.45,1.7301,-56.875,-25.5625,-10.0625,207.125,83.1875,176.5625,0
1776972106.573,2.3463,-3.9265,-5.8586,2.0366,0.5324,-1.2838,17.85,-79.95,-126.15,10.5249,1.6257,1.2929,1.1439,0.2388,-1.4075,-88.95,7.95,4.5,1.36,2.75,-7.15,1.2479,-2.45,1.7301,-56.875,-25.5625,-10.0625,205.4375,81.5,148.9375,0
1776972106.582,2.8156,-4.8842,-6.3111,2.214,0.9257,-1.7928,17.55,-80.7,-125.1,10.3406,1.2617,1.3216,1.1724,0.3576,-1.3787,-88.95,7.95,4.5,0.98,3.7,-6.37,1.0352,-2.498,1.6144,-56.875,-25.5625,-10.0625,205.4375,81.5,148.9375,0
1776972106.592,4.4293,-4.6567,-5.7868,2.3718,1.5127,-2.1925,13.2,-75.15,-123.0,10.4459,1.4605,0.826,1.2633,0.4282,-1.3752,-86.55,9.75,4.8,1.18,5.45,-5.72,0.8858,-2.5362,1.4323,-56.875,-25.5625,-10.0625,203.9375,79.9375,148.75,0
1776972106.597,4.4293,-4.6567,-5.7868,2.3718,1.5127,-2.1925,13.2,-75.15,-123.0,10.2687,1.6472,0.6584,1.3395,0.5265,-1.3947,-86.55,9.75,4.8,1.18,5.45,-5.72,0.8858,-2.5362,1.4323,-56.875,-25.5625,-10.0625,202.5625,78.375,149.0,0
1776972106.602,5.5689,-3.7828,-4.3646,1.7419,1.3853,-2.2713,13.2,-75.15,-123.0,10.2687,1.6472,0.6584,1.3395,0.5265,-1.3947,-86.55,9.75,4.8,2.39,6.27,-6.05,0.8825,-2.4827,1.2163,-57.5,-20.75,-6.5625,202.5625,78.375,149.0,0
1776972106.607,5.5689,-3.7828,-4.3646,1.7419,1.3853,-2.2713,13.2,-75.15,-123.0,10.0437,1.664,0.6297,1.4019,0.5494,-1.4168,-85.5,11.85,5.25,2.39,6.27,-6.05,0.8825,-2.4827,1.2163,-57.5,-20.75,-6.5625,202.5625,78.375,149.0,0
1776972106.612,5.4277,-3.2489,-4.2784,1.0789,0.9441,-2.2828,9.0,-63.3,-119.25,10.0437,1.664,0.6297,1.4019,0.5494,-1.4168,-85.5,11.85,5.25,4.47,6.84,-6.87,1.0297,-2.3442,0.949,-57.5,-20.75,-6.5625,201.1875,77.0,149.375,0
1776972106.619,5.4277,-3.2489,-4.2784,0.8921,0.6137,-2.4067,9.0,-63.3,-119.25,9.517,1.6424,0.5124,1.4493,0.566,-1.4248,-87.6,11.7,4.05,6.33,6.6,-7.38,1.3341,-2.4936,0.5858,-57.5,-20.75,-6.5625,199.75,75.625,150.3125,0
1776972106.624,4.7884,-3.5985,-4.4724,0.8921,0.6137,-2.4067,7.5,-61.8,-118.95,9.4451,1.889,0.4812,1.461,0.6137,-1.432,-86.25,12.3,4.95,6.33,6.6,-7.38,1.3341,-2.4936,0.5858,-57.5,-20.75,-6.5625,198.375,74.25,152.0625,0
1776972106.632,4.7645,-3.984,-3.8044,1.1919,0.6574,-2.6151,5.7,-60.3,-118.95,9.6103,2.059,0.4717,1.461,0.6137,-1.432,-86.25,12.3,4.95,5.82,5.96,-6.71,1.5457,-2.7947,0.1069,-57.5,-20.75,-6.5625,198.375,74.25,152.0625,0
1776972106.642,5.4037,-3.7852,-4.1228,1.6156,0.8279,-2.7752,6.9,-58.8,-117.15,9.6582,2.3703,0.5866,1.4498,0.659,-1.4663,-85.8,13.95,4.35,5.17,5.29,-5.9,1.5839,-2.9921,-0.4342,-57.5,-20.75,-6.5625,197.1875,72.875,154.4375,0
1776972106.647,5.4037,-3.7852,-4.1228,1.6156,0.8279,-2.7752,6.9,-58.8,-117.15,9.6582,2.3703,0.5866,1.4498,0.659,-1.4663,-85.05,16.35,4.8,5.17,5.29,-5.9,1.5839,-2.9921,-0.4342,-57.5,-20.75,-6.5625,197.1875,72.875,154.4375,0
1776972106.652,6.1148,-3.2058,-4.968,1.9585,1.0328,-2.9314,3.45,-58.95,-115.2,9.5696,2.5355,0.6321,1.4674,0.6779,-1.4607,-85.05,16.35,4.8,5.4,4.25,-5.02,1.5566,-3.0521,-0.9425,-57.375,-17.875,0.75,196.25,71.5625,157.25,0
1776972106.657,6.1148,-3.2058,-4.968,1.9585,1.0328,-2.9314,3.45,-58.95,-115.2,9.5696,2.5355,0.6321,1.4674,0.6779,-1.4607,-85.5,15.75,5.25,5.4,4.25,-5.02,1.5566,-3.0521,-0.9425,-57.375,-17.875,0.75,196.25,71.5625,157.25,0
1776972106.662,6.7876,-2.9736,-5.1858,2.0275,1.1932,-3.1038,3.45,-58.95,-115.2,9.426,2.6935,0.6369,1.4973,0.7072,-1.4336,-85.5,15.75,5.25,6.63,4.18,-5.43,1.5141,-2.9921,-1.3679,-57.375,-17.875,0.75,195.625,70.25,160.1875,0
1776972106.667,6.7876,-2.9736,-5.1858,1.809,1.23,-3.2482,3.45,-58.95,-115.2,9.426,2.6935,0.6369,1.4973,0.7072,-1.4336,-85.5,15.75,5.25,6.63,4.18,-5.43,1.4257,-2.8133,-1.6919,-57.375,-17.875,0.75,195.1875,69.0625,163.125,0
1776972106.673,7.3885,-3.0622,-4.7166,1.809,1.23,-3.2482,1.95,-58.95,-113.4,9.4403,2.4349,0.7302,1.5663,0.6997,-1.3965,-85.5,15.75,5.25,8.06,4.39,-5.84,1.4257,-2.8133,-1.6919,-57.375,-17.875,0.75,194.9375,67.9375,166.0,0
1776972106.683,7.5729,-3.2944,-4.4365,1.6755,1.2239,-3.3465,2.7,-57.15,-113.7,9.4355,2.308,0.6009,1.6355,0.6574,-1.3587,-84.0,17.7,4.5,8.49,4.47,-5.62,1.3723,-2.6791,-1.909,-57.375,-17.875,0.75,194.9375,67.9375,166.0,0
1776972106.693,7.4148,-3.2058,-4.0438,1.6582,1.2758,-3.4073,-1.95,-54.45,-113.1,9.3182,2.1452,0.4094,1.6651,0.6075,-1.3203,-84.0,17.7,4.5,9.23,3.99,-5.57,1.4246,-2.6867,-2.0246,-57.375,-17.875,0.75,194.6875,66.75,168.5625,0
1776972106.697,7.5034,-3.395,-4.3239,1.6878,1.3728,-3.4248,-1.95,-54.45,-113.1,9.3182,2.1452,0.4094,1.6651,0.6075,-1.3203,-84.45,20.4,3.75,9.23,3.99,-5.57,1.4246,-2.6867,-2.0246,-57.375,-17.875,0.75,194.3125,65.5,170.875,0
1776972106.702,7.5034,-3.395,-4.3239,1.6878,1.3728,-3.4248,-2.25,-55.65,-113.1,9.1506,2.2194,0.1628,1.6713,0.5849,-1.2708,-84.45,20.4,3.75,9.84,3.94,-5.84,1.6264,-2.6322,-2.1031,-53.6875,-20.75,7.6875,194.3125,65.5,170.875,0
1776972106.707,7.6543,-3.8331,-4.4748,1.8207,1.3899,-3.432,-2.25,-55.65,-113.1,9.1506,2.2194,0.1628,1.6713,0.5849,-1.2708,-83.25,20.4,3.0,9.84,3.94,-5.84,1.6264,-2.6322,-2.1031,-53.6875,-20.75,7.6875,193.9375,64.1875,172.875,0
1776972106.713,7.6543,-3.8331,-4.4748,1.8207,1.3899,-3.432,-3.75,-53.7,-109.8,8.9902,2.1356,-0.079,1.6702,0.5516,-1.214,-83.25,20.4,3.0,10.63,4.25,-6.19,1.6264,-2.6322,-2.1031,-53.6875,-20.75,7.6875,193.9375,64.1875,172.875,0
1776972106.72,7.9966,-4.2329,-4.604,1.9263,1.3587,-3.4214,-3.75,-53.7,-109.8,8.8921,2.296,-0.2274,1.6697,0.5361,-1.1671,-82.2,23.55,3.75,11.4,4.68,-6.48,1.657,-2.6224,-2.2013,-53.6875,-20.75,7.6875,193.5625,62.875,174.6875,0
1776972106.725,7.9966,-4.2329,-4.604,1.9263,1.3587,-3.4214,-3.75,-53.7,-109.8,8.8921,2.296,-0.2274,1.6697,0.5361,-1.1671,-82.2,23.25,3.45,11.4,4.68,-6.48,1.657,-2.6224,-2.2013,-53.6875,-20.75,7.6875,193.25,61.5,176.625,0
1776972106.733,8.2193,-4.3718,-4.5753,2.0499,1.3909,-3.3923,-5.7,-52.5,-109.35,8.8274,2.5067,-0.3926,1.6465,0.5308,-1.1165,-82.2,23.25,3.45,11.74,4.68,-6.61,1.6886,-2.7009,-2.4936,-53.6875,-20.75,7.6875,193.0625,60.0625,178.4375,0
1776972106.743,8.509,-4.1994,-4.4772,2.1029,1.4261,-3.3878,-6.6,-51.15,-107.7,8.9783,2.6576,-0.4166,1.6097,0.4876,-1.0653,-81.75,24.0,3.45,12.37,4.76,-6.86,1.6908,-2.7369,-2.6496,-53.6875,-20.75,7.6875,193.0625,60.0625,178.4375,0
1776972106.748,8.4779,-3.9863,-4.2114,2.0248,1.4626,-3.3987,-6.6,-51.15,-107.7,8.8514,2.1284,-0.3639,1.6097,0.4876,-1.0653,-81.0,23.55,2.4,12.37,4.76,-6.86,1.6908,-2.7369,-2.6496,-53.6875,-20.75,7.6875,193.0625,60.0625,178.4375,0
1776972106.753,8.4779,-3.9863,-4.2114,2.0248,1.4626,-3.3987,-6.6,-48.15,-106.2,8.8514,2.1284,-0.3639,1.6193,0.3912,-1.0467,-81.0,23.55,2.4,12.79,4.96,-6.97,1.7235,-2.8285,-2.7838,-46.6875,-27.0,14.0,192.9375,58.5,-179.8125,0
1776972106.758,8.2887,-3.8906,-3.9025,1.906,1.5036,-3.4115,-6.6,-48.15,-106.2,8.995,1.5251,0.0383,1.6193,0.3912,-1.0467,-81.0,23.55,2.4,12.79,4.96,-6.97,1.7235,-2.8285,-2.7838,-46.6875,-27.0,14.0,192.9375,58.5,-179.8125,0
1776972106.763,8.2887,-3.8906,-3.9025,1.906,1.5036,-3.4115,-8.25,-47.25,-106.5,8.995,1.5251,0.0383,1.5386,0.38,-0.9731,-81.0,23.55,2.4,12.83,5.02,-6.88,1.7901,-2.966,-2.8711,-46.6875,-27.0,14.0,192.75,56.8125,-178.375,0
1776972106.767,8.0852,-3.9409,-3.7541,1.7706,1.5186,-3.4166,-8.25,-47.25,-106.5,9.165,1.5586,-0.407,1.5167,0.3499,-0.8911,-81.15,25.8,2.1,12.83,5.02,-6.88,1.8719,-3.1045,-2.9256,-46.6875,-27.0,14.0,192.5,55.0625,-177.0625,0
1776972106.774,8.0852,-3.9409,-3.7541,1.6302,1.5271,-3.4211,-9.6,-45.9,-103.05,9.165,1.5586,-0.407,1.5167,0.3499,-0.8911,-81.15,25.8,2.1,12.66,4.99,-6.78,1.8719,-3.1045,-2.9256,-46.6875,-27.0,14.0,192.1875,53.1875,-176.0625,0
1776972106.783,7.8266,-4.1803,-4.0414,1.6302,1.5271,-3.4211,-9.6,-45.9,-103.05,9.0501,1.9441,-0.5555,1.4991,0.3134,-0.7957,-81.15,25.8,2.1,12.57,4.84,-6.78,1.9395,-3.219,-2.9681,-46.6875,-27.0,14.0,192.1875,53.1875,-176.0625,0
1776972106.793,7.7764,-4.2617,-4.3862,1.6427,1.55,-3.4451,-10.95,-43.2,-101.7,8.7556,1.98,-0.4262,1.4575,0.3283,-0.6928,-79.5,28.35,1.65,11.47,4.54,-6.23,1.9613,-3.3139,-3.0009,-46.6875,-27.0,14.0,191.875,51.1875,-175.1875,0
1776972106.797,8.1738,-3.8954,-4.2042,1.7107,1.6952,-3.4773,-10.95,-43.2,-101.7,8.5928,1.8483,-0.4884,1.4261,0.376,-0.5622,-80.25,28.65,1.2,11.47,4.54,-6.23,1.9613,-3.3139,-3.0009,-46.6875,-27.0,14.0,191.875,51.1875,-175.1875,0
1776972106.803,8.6431,-3.3208,-3.8523,1.7592,1.8407,-3.5114,-10.65,-42.45,-101.25,8.5928,1.8483,-0.4884,1.4261,0.376,-0.5622,-80.25,28.65,1.2,11.23,4.73,-6.09,1.945,-3.3259,-2.9998,-36.0625,-29.375,18.25,191.5625,49.25,-174.4375,0
1776972106.808,8.6431,-3.3208,-3.8523,1.7592,1.8407,-3.5114,-10.65,-42.45,-101.25,8.3869,1.6544,-0.4142,1.3241,0.4533,-0.4082,-80.4,26.55,0.0,11.23,4.73,-6.09,1.945,-3.3259,-2.9998,-36.0625,-29.375,18.25,191.5625,49.25,-174.4375,0
1776972106.813,8.9112,-2.5929,-3.7469,1.7994,1.9473,-3.5557,-11.4,-40.65,-100.2,8.3869,1.6544,-0.4142,1.3241,0.4533,-0.4082,-80.4,26.55,0.0,11.62,5.29,-6.2,1.9308,-3.2834,-2.9878,-36.0625,-29.375,18.25,191.1875,47.25,-173.875,0
1776972106.821,8.9112,-2.5929,-3.7469,1.7994,1.9473,-3.5557,-12.45,-38.4,-98.4,8.4276,1.4772,-0.6919,1.2113,0.497,-0.2201,-81.0,29.1,1.2,12.2,6.43,-6.01,1.9493,-3.2605,-3.0227,-36.0625,-29.375,18.25,190.8125,45.25,-173.4375,0
1776972106.825,9.1459,-1.8076,-3.5817,1.8333,2.0454,-3.5791,-12.45,-38.4,-98.4,8.339,1.7597,-1.1492,1.1674,0.4972,-0.0669,-79.35,27.3,0.3,12.2,6.43,-6.01,1.9493,-3.2605,-3.0227,-36.0625,-29.375,18.25,175.875,43.25,-173.0625,0
1776972106.833,9.2153,-1.2091,-3.6464,1.9737,2.1277,-3.5818,-12.45,-36.9,-99.9,8.339,1.7597,-1.1492,1.1674,0.4972,-0.0669,-79.35,27.3,0.3,12.1,7.01,-5.39,2.018,-3.2409,-3.1012,-36.0625,-29.375,18.25,173.75,41.3125,-172.875,0
1776972106.843,9.5074,-0.3903,-3.8499,2.173,2.1938,-3.5293,-12.45,-36.9,-99.9,8.157,2.332,-1.8483,1.2284,0.4447,0.0442,-80.55,29.1,0.15,12.04,7.42,-4.61,2.1391,-3.1601,-3.2201,-36.0625,-29.375,18.25,173.75,41.3125,-172.875,0
1776972106.848,9.5074,-0.3903,-3.8499,2.173,2.1938,-3.5293,-14.4,-32.55,-95.1,8.4922,3.2944,-2.3391,1.3102,0.3784,0.0997,-80.55,29.1,0.15,12.04,7.42,-4.61,2.1391,-3.1601,-3.2201,-36.0625,-29.375,18.25,171.5,39.4375,-172.6875,0
1776972106.853,9.4882,-0.1245,-4.0893,2.3752,2.0744,-3.3923,-14.4,-32.55,-95.1,8.4084,3.9121,-2.3104,1.3102,0.3784,0.0997,-80.55,29.1,0.15,12.09,7.7,-3.96,2.258,-2.9987,-3.3914,-26.875,-28.0,19.6875,171.5,39.4375,-172.6875,0
1776972106.858,9.4882,-0.1245,-4.0893,2.3752,2.0744,-3.3923,-15.3,-30.45,-95.25,8.4084,3.9121,-2.3104,1.417,0.2713,0.1442,-79.8,28.65,0.9,12.09,7.7,-3.96,2.258,-2.9987,-3.3914,-26.875,-28.0,19.6875,169.125,37.625,-172.5625,0
1776972106.863,9.675,-0.6464,-3.9289,2.5977,2.0179,-3.2948,-15.3,-30.45,-95.25,8.2959,4.1204,-2.1452,1.417,0.2713,0.1442,-79.8,28.65,0.9,12.52,7.79,-3.18,2.33,-2.7893,-3.6172,-26.875,-28.0,19.6875,169.125,37.625,-172.5625,0
1776972106.868,9.675,-0.6464,-3.9289,2.5977,2.0179,-3.2948,-15.3,-28.2,-94.8,8.2959,4.1204,-2.1452,1.4997,0.2459,0.1943,-79.8,28.65,0.9,12.52,7.79,-3.18,2.3431,-2.582,-3.8539,-26.875,-28.0,19.6875,166.625,35.9375,-172.4375,0
1776972106.874,9.7731,-1.5945,-3.383,2.8003,1.9444,-3.2082,-15.3,-28.2,-94.8,8.0613,4.2737,-1.6376,1.6028,0.3046,0.2561,-79.8,28.65,0.9,12.41,7.49,-2.54,2.3431,-2.582,-3.8539,-26.875,-28.0,19.6875,164.0,34.375,-172.25,0
1776972106.883,10.1897,-2.6432,-2.0853,2.9287,1.898,-3.0792,-16.05,-26.4,-94.5,7.8769,4.2737,-1.482,1.7989,0.348,0.3421,-78.75,29.85,-0.45,11.94,6.57,-1.99,2.3017,-2.3246,-4.083,-26.875,-28.0,19.6875,164.0,34.375,-172.25,0
1776972106.893,10.5656,-3.6416,-1.1851,2.8661,1.8034,-2.9004,-16.05,-26.4,-94.5,7.7333,4.1587,-1.5754,1.9851,0.3762,0.4181,-80.1,30.0,-0.3,10.64,4.27,-1.12,2.1413,-1.9406,-4.2455,-26.875,-28.0,19.6875,161.375,33.0,-171.9375,0
1776972106.898,10.5656,-3.6416,-1.1851,2.8661,1.8034,-2.9004,-16.05,-26.4,-94.5,7.7333,4.1587,-1.5754,1.9851,0.3762,0.4181,-79.35,30.0,-1.35,10.64,4.27,-1.12,2.1413,-1.9406,-4.2455,-26.875,-28.0,19.6875,161.375,33.0,-171.9375,0
1776972106.903,10.9223,-3.8307,-0.5698,2.7014,1.5937,-2.6929,-16.05,-26.4,-94.5,7.6519,4.027,-1.494,2.0819,0.377,0.4922,-79.35,30.0,-1.35,10.91,3.95,-0.34,1.9199,-1.3755,-4.3153,-23.0625,-22.5,26.25,158.75,31.875,-171.5625,0
1776972106.908,10.9223,-3.8307,-0.5698,2.7014,1.5937,-2.6929,-13.2,-22.2,-91.35,7.6519,4.027,-1.494,2.0819,0.377,0.4922,-80.25,29.1,-1.2,10.91,3.95,-0.34,1.9199,-1.3755,-4.3153,-23.0625,-22.5,26.25,158.75,31.875,-171.5625,0
1776972106.913,10.7763,-3.9241,-0.4381,2.5604,1.4759,-2.4968,-13.2,-22.2,-91.35,7.4316,3.9073,-1.4054,2.133,0.3949,0.5582,-80.25,29.1,-1.2,11.11,3.89,0.18,1.7279,-0.8214,-4.2106,-23.0625,-22.5,26.25,156.125,31.0625,-171.1875,0
1776972106.92,11.0038,-3.9002,-0.6847,2.4992,1.5074,-2.3379,-13.05,-21.3,-88.95,7.2951,4.0318,-1.3408,2.133,0.3949,0.5582,-79.65,30.45,-1.8,11.6,3.54,0.47,1.693,-0.3578,-3.9935,-23.0625,-22.5,26.25,153.6875,30.5625,-170.8125,0
1776972106.925,11.0038,-3.9002,-0.6847,2.4992,1.5074,-2.3379,-13.05,-21.3,-88.95,7.2951,4.0318,-1.3408,2.1373,0.4133,0.6217,-79.65,30.45,-1.8,11.6,3.54,0.47,1.693,-0.3578,-3.9935,-23.0625,-22.5,26.25,151.3125,30.25,-170.625,0
1776972106.933,11.0732,-3.644,-0.9337,2.4565,1.5572,-2.1917,-12.15,-19.2,-88.8,7.0773,4.1922,-1.1947,2.0542,0.4394,0.6827,-80.55,30.3,-2.4,11.82,3.49,0.34,1.7911,0.096,-3.7688,-23.0625,-22.5,26.25,149.0,30.25,-170.4375,0
1776972106.943,10.4507,-3.5985,-1.3024,2.322,1.6004,-1.962,-9.75,-16.5,-88.95,6.6319,4.5059,-1.3408,1.9001,0.4943,0.7325,-80.55,30.3,-2.4,14.33,3.82,-0.29,1.8086,0.6272,-3.5856,-23.0625,-22.5,26.25,149.0,30.25,-170.4375,0
1776972106.948,10.9367,-3.3327,-1.3527,2.1706,1.5796,-1.626,-9.75,-16.5,-88.95,6.6319,4.5059,-1.3408,1.9001,0.4943,0.7325,-80.55,28.35,-1.65,14.33,3.82,-0.29,1.8086,0.6272,-3.5856,-23.0625,-22.5,26.25,146.8125,30.3125,-170.1875,0
1776972106.953,10.9367,-3.3327,-1.3527,2.1706,1.5796,-1.626,-9.75,-16.5,-88.95,6.8977,5.1954,-1.6065,1.704,0.5324,0.7133,-80.55,28.35,-1.65,17.59,3.88,-2.1,1.6624,0.7112,-3.4787,-18.5,-20.0625,32.6875,146.8125,30.3125,-170.1875,0
1776972106.958,11.1378,-3.9097,-1.8435,1.7688,1.2657,-1.1056,-9.75,-16.5,-88.95,6.8977,5.1954,-1.6065,1.704,0.5324,0.7133,-80.55,28.35,-1.65,17.59,3.88,-2.1,1.6624,0.7112,-3.4787,-18.5,-20.0625,32.6875,144.6875,30.1875,-169.9375,0
1776972106.963,11.1378,-3.9097,-1.8435,1.7688,1.2657,-1.1056,-9.75,-16.5,-88.95,7.4531,5.9233,-1.8387,1.4738,0.5217,0.6638,-80.55,28.35,-1.65,22.22,3.74,-1.83,1.5501,0.3512,-3.4056,-18.5,-20.0625,32.6875,144.6875,30.1875,-169.9375,0
1776972106.968,10.307,-4.3838,-1.0127,1.4461,0.9483,-0.5891,-8.1,-13.2,-87.45,7.8243,6.5434,-1.8076,1.4738,0.5217,0.6638,-80.85,28.95,-4.35,22.22,3.74,-1.83,1.333,-0.4549,-3.0936,-18.5,-20.0625,32.6875,142.8125,29.625,-169.75,0
1776972106.974,10.307,-4.3838,-1.0127,1.4461,0.9483,-0.5891,-8.1,-13.2,-87.45,7.8243,6.5434,-1.8076,1.2385,0.5231,0.5566,-80.85,28.95,-4.35,18.04,2.54,-0.46,1.333,-0.4549,-3.0936,-18.5,-20.0625,32.6875,141.125,28.875,-169.625,0
1776972106.983,9.4092,-4.039,0.3448,1.2732,0.6789,-0.1916,-9.0,-14.25,-86.55,8.0373,6.6008,-1.6281,0.9944,0.5726,0.4431,-81.6,28.95,-2.55,14.03,0.86,1.85,1.1999,-0.9327,-2.7162,-18.5,-20.0625,32.6875,141.125,28.875,-169.625,0
1776972106.993,9.4188,-3.3591,1.4341,1.0701,0.4732,0.1615,-9.3,-13.05,-85.8,7.9607,6.122,-1.0798,0.7322,0.6707,0.3773,-80.55,27.9,-4.2,10.19,-1.56,5.19,1.0745,-0.7919,-2.2907,-18.5,-20.0625,32.6875,139.75,28.1875,-169.5625,0
1776972106.998,9.4882,-3.1244,1.6783,0.7208,0.4205,0.4836,-10.8,-13.05,-86.85,7.7141,5.5857,-0.5291,0.4549,0.7578,0.3589,-80.85,29.25,-3.6,10.19,-1.56,5.19,1.0745,-0.7919,-2.2907,-18.5,-20.0625,32.6875,139.75,28.1875,-169.5625,0
1776972107.003,9.4882,-3.1244,1.6783,0.7208,0.4205,0.4836,-10.8,-13.05,-86.85,7.7141,5.5857,-0.5291,0.4549,0.7578,0.3589,-80.85,29.25,-3.6,10.68,-1.77,4.63,0.5727,-0.3382,-1.8599,-16.875,-19.1875,34.875,138.6875,27.8125,-169.375,0
1776972107.008,9.5888,-3.395,0.3879,0.4066,0.2958,0.8212,-10.8,-13.05,-86.85,7.288,5.2074,-0.158,0.1074,0.8362,0.3693,-81.15,27.3,-3.3,10.68,-1.77,4.63,0.5727,-0.3382,-1.8599,-16.875,-19.1875,34.875,138.6875,27.8125,-169.375,0
1776972107.013,9.5888,-3.395,0.3879,0.4066,0.2958,0.8212,-10.8,-13.05,-86.85,7.288,5.2074,-0.158,0.1074,0.8362,0.3693,-81.15,27.3,-3.3,12.8,-0.51,3.43,-0.0393,0.1025,-1.5359,-16.875,-19.1875,34.875,137.8125,27.75,-168.875,0
1776972107.02,10.4603,-3.8714,-0.5315,0.0301,0.0552,1.1954,-8.85,-13.2,-86.25,6.9671,4.3527,0.0718,-0.1522,0.9142,0.3898,-80.85,27.75,-3.3,9.38,7.1,6.91,-0.4571,0.2018,-1.2741,-16.875,-19.1875,34.875,137.1875,27.6875,-168.25,0
1776972107.024,10.4603,-3.8714,-0.5315,0.0301,0.0552,1.1954,-9.9,-13.65,-87.0,6.9671,4.3527,0.0718,-0.1522,0.9142,0.3898,-80.85,27.75,-3.3,9.38,7.1,6.91,-0.4571,0.2018,-1.2741,-16.875,-19.1875,34.875,136.5625,28.0625,-168.0,0
1776972107.033,11.2336,-2.7342,-1.0511,0.0533,-0.1053,1.4693,-9.9,-13.65,-87.0,7.2856,3.79,0.091,-0.284,0.8561,0.4357,-80.85,27.75,-3.3,6.44,3.24,-0.45,0.1058,0.8334,-0.9937,-16.875,-19.1875,34.875,135.8125,28.9375,-168.25,0
1776972107.043,11.6095,1.5467,-2.1021,0.3355,-0.2033,1.4011,-9.9,-14.4,-85.95,8.4731,3.1675,0.7183,-0.2992,0.8639,0.5017,-80.55,27.45,-1.95,-3.2,-8.66,8.23,1.1323,1.8446,-0.8345,-16.875,-19.1875,34.875,135.8125,28.9375,-168.25,0
1776972107.048,10.9032,5.2289,-4.8028,0.3706,-0.2697,0.9689,-8.7,-14.55,-87.15,10.8697,1.9417,-1.0343,0.0136,0.8031,0.6233,-80.55,27.45,-1.95,-3.2,-8.66,8.23,1.1323,1.8446,-0.8345,-16.875,-19.1875,34.875,135.0625,30.4375,-167.75,0
1776972107.053,10.9032,5.2289,-4.8028,0.3706,-0.2697,0.9689,-8.7,-12.0,-87.9,10.8697,1.9417,-1.0343,0.0136,0.8031,0.6233,-80.55,27.45,-1.95,5.16,-0.3,-12.7,-0.0076,2.9671,-1.1356,-15.0625,-17.5625,37.1875,135.0625,30.4375,-167.75,0
1776972107.058,10.8793,8.7867,-6.1579,0.757,0.0871,0.2433,-8.7,-12.0,-87.9,14.0707,1.166,-5.1092,0.4327,0.7104,0.7671,-82.35,27.0,-1.8,5.16,-0.3,-12.7,-0.0076,2.9671,-1.1356,-15.0625,-17.5625,37.1875,134.5,32.0,-167.0,0
1776972107.063,10.8793,8.7867,-6.1579,0.757,0.0871,0.2433,-8.7,-12.0,-87.9,14.0707,1.166,-5.1092,0.4327,0.7104,0.7671,-82.35,27.0,-1.8,4.07,-1.91,-17.82,-0.4134,3.0489,-0.8192,-15.0625,-17.5625,37.1875,134.5,32.0,-167.0,0
1776972107.068,15.263,11.0038,-6.9216,1.1735,0.5902,-0.1671,-8.7,-12.0,-87.9,17.3436,2.1955,-8.3677,0.6262,0.4037,0.817,-81.6,27.0,-1.35,4.07,-1.91,-17.82,0.3109,2.3311,-0.9087,-15.0625,-17.5625,37.1875,133.75,33.125,-166.6875,0
1776972107.074,21.7896,7.2377,-4.027,0.805,0.7869,0.0376,-13.95,-6.15,-88.8,21.2749,6.9719,-8.4683,0.6262,0.4037,0.817,-81.6,27.0,-1.35,8.98,-11.18,-7.53,0.3109,2.3311,-0.9087,-15.0625,-17.5625,37.1875,133.5625,35.3125,-166.5625,0
1776972107.084,21.9692,3.1915,-10.3669,-1.1375,0.6161,1.0608,-15.9,-4.05,-91.5,17.8081,10.7141,-1.9441,0.323,0.0538,0.7509,-81.6,26.55,-1.05,35.71,1.03,-28.66,0.36,3.9848,0.1658,-15.0625,-17.5625,37.1875,133.4375,36.9375,-166.75,0
1776972107.094,16.2566,0.8068,-8.0996,-1.4181,-0.2507,1.6686,-15.3,-7.2,-97.65,9.1794,8.3989,3.5961,-0.9838,0.0187,0.458,-81.15,24.6,-0.6,11.1,0.66,-1.45,0.6054,2.954,0.2083,-15.0625,-17.5625,37.1875,133.4375,36.9375,-166.75,0
1776972107.098,16.2566,0.8068,-8.0996,-1.4181,-0.2507,1.6686,-15.3,-7.2,-97.65,9.1794,8.3989,3.5961,-1.5516,0.8223,0.1836,-81.15,22.95,0.0,11.1,0.66,-1.45,0.6054,2.954,0.2083,-15.0625,-17.5625,37.1875,133.5625,36.9375,-166.875,0
1776972107.104,9.1626,-1.3982,-3.7206,-0.0125,-1.1447,1.93,-14.25,-12.45,-102.75,6.9504,1.4389,2.0542,0.2537,1.1786,0.1298,-81.15,22.95,0.0,4.37,2.91,-10.79,0.0098,-0.084,0.2803,-18.0625,-17.25,35.0625,133.5625,36.9375,-166.875,0
1776972107.108,9.1626,-1.3982,-3.7206,-0.0125,-1.1447,1.93,-14.25,-12.45,-102.75,6.9504,1.4389,2.0542,0.2537,1.1786,0.1298,-81.0,24.45,1.65,4.37,2.91,-10.79,0.0098,-0.084,0.2803,-18.0625,-17.25,35.0625,133.5625,36.9375,-166.875,0
1776972107.113,3.1939,-2.5235,-0.4477,2.3515,-1.2585,1.6792,-12.15,-11.4,-109.05,6.9911,-3.9816,2.2362,2.1269,0.9398,0.2236,-81.0,24.45,1.65,6.45,2.44,-9.74,-0.0033,0.2258,0.1309,-18.0625,-17.25,35.0625,133.625,37.0625,-166.875,0
1776972107.121,3.1939,-2.5235,-0.4477,2.3515,-1.2585,1.6792,-12.15,-11.4,-109.05,6.9911,-3.9816,2.2362,2.1269,0.9398,0.2236,-81.0,24.45,1.65,6.44,1.0,-6.95,0.0131,0.4592,0.0884,-18.0625,-17.25,35.0625,133.625,37.3125,-166.875,0
1776972107.126,0.5387,-3.7852,3.7062,3.7656,-1.0048,1.3081,-12.15,-11.4,-109.05,6.4141,-4.5011,1.7669,2.3651,0.7815,0.5151,-81.0,24.45,1.65,6.44,1.0,-6.95,0.0131,0.4592,0.0884,-18.0625,-17.25,35.0625,133.8125,37.1875,-166.875,0
1776972107.134,3.8188,-4.64,3.6655,3.5024,-0.429,1.0541,-11.25,6.0,-114.3,6.9456,-2.9688,1.0104,1.3193,0.8047,0.7733,-80.85,23.85,0.6,7.25,3.25,-6.31,-0.1811,-0.3043,0.1996,-18.0625,-17.25,35.0625,134.1875,36.625,-166.6875,0
1776972107.144,7.5753,-6.1459,1.8818,2.1781,-0.3619,1.1175,-9.3,11.55,-112.2,8.5066,-1.3982,0.2634,0.4048,0.7783,0.9686,-80.85,23.85,0.6,6.76,2.41,-6.45,-0.7592,-1.0581,0.3622,-18.0625,-17.25,35.0625,134.1875,36.625,-166.6875,0
1776972107.149,7.5753,-6.1459,1.8818,2.1781,-0.3619,1.1175,-9.3,11.55,-112.2,8.5066,-1.3982,0.2634,0.4048,0.7783,0.9686,-81.3,23.55,0.15,6.76,2.41,-6.45,-0.7592,-1.0581,0.3622,-18.0625,-17.25,35.0625,134.1875,36.625,-166.6875,0
1776972107.154,11.3461,-7.6064,1.2067,0.9118,-0.5417,1.4741,-3.75,13.65,-110.85,9.8857,-0.5794,-0.0982,-0.0083,0.7365,1.0635,-81.3,23.55,0.15,4.8,3.25,-9.11,-0.9741,-1.369,0.4549,-21.75,-15.875,33.5625,134.75,35.9375,-166.5,0
1776972107.158,11.3461,-7.6064,1.2067,0.9118,-0.5417,1.4741,-3.75,13.65,-110.85,9.8857,-0.5794,-0.0982,-0.0083,0.7365,1.0635,-81.9,22.95,1.8,4.8,3.25,-9.11,-0.9741,-1.369,0.4549,-21.75,-15.875,33.5625,134.75,35.9375,-166.5,0
1776972107.164,9.3661,-9.1602,-0.9433,-0.0501,-0.5766,1.6164,0.0,7.05,-112.2,10.7428,0.1149,0.1221,-0.053,0.639,1.1048,-81.9,22.95,1.8,6.24,1.93,-7.85,-0.3589,-0.1418,0.2825,-21.75,-15.875,33.5625,134.9375,35.9375,-166.4375,0
1776972107.169,9.3661,-9.1602,-0.9433,-0.0501,-0.5766,1.6164,0.0,7.05,-112.2,10.7428,0.1149,0.1221,-0.053,0.639,1.1048,-82.2,23.25,1.2,6.24,1.93,-7.85,0.0491,0.3709,0.2334,-21.75,-15.875,33.5625,135.0625,36.125,-166.5,0
1776972107.175,10.975,-8.7556,-2.1524,-0.1865,-0.1274,1.3019,1.5,-0.15,-108.0,10.3741,0.2298,0.9122,0.0496,0.6214,1.0515,-82.2,23.25,1.2,6.43,1.03,-8.37,0.0491,0.3709,0.2334,-21.75,-15.875,33.5625,135.125,36.3125,-166.625,0
1776972107.184,10.386,-3.6033,-3.2226,-0.8159,-0.4527,1.2729,1.5,-0.15,-108.0,9.8593,0.2131,1.3216,0.2641,0.6664,0.9577,-82.2,22.05,3.0,6.01,0.59,-8.55,0.144,0.2149,0.2105,-21.75,-15.875,33.5625,135.1875,36.4375,-166.75,0
1776972107.194,8.5329,1.5203,-4.2042,-1.0064,-0.5135,1.1556,5.85,-12.45,-98.85,9.4379,0.5339,1.5897,0.6336,0.6699,0.8873,-82.2,21.6,3.45,5.62,1.44,-7.72,0.1734,0.2618,0.1778,-21.75,-15.875,33.5625,135.1875,36.4375,-166.75,0
1776972107.199,8.5329,1.5203,-4.2042,-1.0064,-0.5135,1.1556,5.85,-12.45,-98.85,8.8825,1.1468,1.6137,0.6336,0.6699,0.8873,-81.9,21.9,3.6,5.62,1.44,-7.72,0.1734,0.2618,0.1778,-21.75,-15.875,33.5625,135.25,36.625,-166.9375,0
1776972107.204,8.1714,4.367,-4.9799,-0.3853,-0.2715,0.8492,5.4,-13.5,-97.5,8.8825,1.1468,1.6137,0.9755,0.7099,0.8497,-81.9,21.9,3.6,5.25,1.57,-7.56,0.2476,0.204,0.1713,-21.375,-15.6875,34.375,135.25,36.625,-166.9375,0
1776972107.209,8.1714,4.367,-4.9799,-0.3853,-0.2715,0.8492,5.4,-13.5,-97.5,8.6263,1.5107,1.0678,0.9755,0.7099,0.8497,-81.9,21.9,3.6,5.25,1.57,-7.56,0.2476,0.204,0.1713,-21.375,-15.6875,34.375,135.25,36.8125,-167.125,0
1776972107.214,5.6383,4.5179,-4.5346,0.489,0.2268,0.2955,2.85,-11.25,-97.2,8.6263,1.5107,1.0678,1.2465,0.7131,0.8162,-81.9,21.9,3.6,5.29,1.63,-7.51,0.2203,0.3294,0.1931,-21.375,-15.6875,34.375,135.25,36.8125,-167.125,0
1776972107.22,9.1985,5.6958,-3.2226,0.7496,1.0712,-0.1911,2.85,-11.25,-97.2,8.655,1.8818,0.4453,1.3803,0.6382,0.7512,-83.1,20.7,3.3,5.39,2.02,-7.14,0.2236,0.4232,0.24,-21.375,-15.6875,34.375,135.3125,37.0625,-167.3125,0
1776972107.225,9.1985,5.6958,-3.2226,0.7496,1.0712,-0.1911,-1.05,-4.8,-97.2,8.655,1.8818,0.4453,1.3803,0.6382,0.7512,-83.1,20.7,3.3,5.39,2.02,-7.14,0.2236,0.4232,0.24,-21.375,-15.6875,34.375,135.375,37.25,-167.6875,0
1776972107.234,9.6247,4.9488,-3.2633,0.8559,0.725,-0.0749,-3.75,-2.4,-98.85,8.8825,1.7861,0.0862,1.3792,0.5233,0.6651,-83.1,20.7,3.3,6.09,1.6,-7.63,0.4647,0.2956,0.2716,-21.375,-15.6875,34.375,135.4375,37.4375,-167.9375,0
1776972107.244,10.9918,2.1141,-0.984,1.3296,0.7501,0.0264,-3.75,-2.4,-98.85,9.2823,1.494,0.1556,1.1855,0.3821,0.5841,-82.35,21.9,2.85,6.44,0.34,-8.84,0.4014,0.2782,0.2378,-21.375,-15.6875,34.375,135.4375,37.4375,-167.9375,0
1776972107.249,10.4267,-1.2354,0.2059,1.5319,0.4746,0.1476,-3.75,-2.4,-98.85,9.4188,1.2091,0.5411,0.9441,0.2928,0.5401,-82.35,21.9,2.85,6.44,0.34,-8.84,0.4014,0.2782,0.2378,-21.375,-15.6875,34.375,135.4375,37.4375,-167.9375,0
1776972107.254,10.4267,-1.2354,0.2059,1.5319,0.4746,0.1476,-5.55,6.15,-109.8,9.4188,1.2091,0.5411,0.9441,0.2928,0.5401,-82.95,20.85,2.7,6.84,0.51,-8.19,0.2563,0.4134,0.1342,-22.25,-15.25,33.25,135.4375,37.6875,-168.125,0
1776972107.259,9.9264,-3.8403,1.1851,1.429,0.3677,0.2169,-5.55,6.15,-109.8,9.4164,0.9625,1.0798,0.7328,0.263,0.5025,-82.95,20.85,2.7,6.84,0.51,-8.19,0.2563,0.4134,0.1342,-22.25,-15.25,33.25,135.4375,37.6875,-168.125,0
1776972107.264,9.9264,-3.8403,1.1851,1.429,0.3677,0.2169,-5.55,9.15,-116.25,9.4164,0.9625,1.0798,0.7328,0.263,0.5025,-81.9,21.0,3.3,5.61,1.83,-7.55,0.1942,0.1145,0.0938,-22.25,-15.25,33.25,135.4375,37.75,-168.25,0
1776972107.269,9.0453,-5.0685,1.8531,1.1407,0.2814,0.32,-5.55,9.15,-116.25,9.5577,0.6704,1.7071,0.5889,0.2702,0.4836,-81.9,21.0,3.3,5.61,1.83,-7.55,-0.0098,0.0916,0.1254,-22.25,-15.25,33.25,135.5,37.8125,-168.3125,0
1776972107.275,9.0453,-5.0685,1.8531,1.1407,0.2814,0.32,-5.4,14.25,-120.3,9.5577,0.6704,1.7071,0.5889,0.2702,0.4836,-84.45,20.85,2.7,5.39,1.45,-7.46,-0.0098,0.0916,0.1254,-22.25,-15.25,33.25,135.5625,37.9375,-168.3125,0
1776972107.284,8.9543,-5.6383,2.3008,0.6728,0.1812,0.493,-4.65,14.25,-124.2,9.6127,0.656,2.0399,0.4927,0.3096,0.4834,-81.6,18.75,3.3,4.99,1.33,-7.75,-0.0938,0.2411,0.1287,-22.25,-15.25,33.25,135.5625,37.9375,-168.3125,0
1776972107.294,9.7324,-4.9081,2.0494,0.1178,0.0773,0.7021,-2.25,15.45,-125.1,9.6103,0.759,2.4062,0.4413,0.3541,0.4871,-84.75,20.1,1.65,6.09,1.69,-7.32,0.0545,0.3971,0.1549,-22.25,-15.25,33.25,135.625,38.1875,-168.375,0
1776972107.299,10.58,-3.1556,0.7015,-0.2222,-0.118,0.8633,-2.25,15.45,-125.1,9.493,1.1636,2.6408,0.4583,0.3909,0.4732,-84.75,20.1,1.65,6.09,1.69,-7.32,0.0545,0.3971,0.1549,-22.25,-15.25,33.25,135.6875,38.375,-168.5,0
1776972107.304,10.58,-3.1556,0.7015,-0.2222,-0.118,0.8633,-2.25,15.45,-125.1,9.493,1.1636,2.6408,0.4583,0.3909,0.4732,-84.75,20.1,1.65,6.18,1.54,-7.43,0.2127,0.2858,0.1898,-22.1875,-13.6875,33.375,135.6875,38.375,-168.5,0
1776972107.309,10.3334,-1.4317,-0.6321,-0.292,-0.1895,0.9204,-2.25,15.45,-125.1,9.3972,1.585,2.2817,0.5689,0.4146,0.4612,-84.75,20.1,1.65,6.18,1.54,-7.43,0.2127,0.2858,0.1898,-22.1875,-13.6875,33.375,135.75,38.5,-168.8125,0
1776972107.314,10.3334,-1.4317,-0.6321,-0.292,-0.1895,0.9204,3.75,14.4,-123.75,9.3972,1.585,2.2817,0.5689,0.4146,0.4612,-82.95,18.45,3.45,5.83,1.5,-7.83,0.3676,0.1996,0.228,-22.1875,-13.6875,33.375,135.75,38.5,-168.8125,0
1776972107.32,9.9647,-0.3065,-1.561,-0.1324,-0.0743,0.8308,3.6,16.8,-123.6,9.4212,1.9704,2.0016,0.6491,0.3909,0.4407,-82.95,18.45,3.45,5.9,1.58,-7.55,0.4571,0.3262,0.2574,-22.1875,-13.6875,33.375,135.75,38.6875,-169.125,0
1776972107.325,10.1682,0.1532,-2.0782,0.149,0.0397,0.6438,3.6,16.8,-123.6,9.517,2.2314,1.81,0.704,0.3544,0.4189,-82.95,18.45,3.45,5.9,1.58,-7.55,0.4571,0.3262,0.2574,-22.1875,-13.6875,33.375,135.8125,38.9375,-169.5,0
1776972107.334,10.1682,0.1532,-2.0782,0.149,0.0397,0.6438,4.65,19.05,-122.55,9.6391,2.0207,1.482,0.7874,0.3022,0.3994,-82.95,18.15,2.4,6.09,1.33,-7.78,0.492,0.3774,0.2716,-22.1875,-13.6875,33.375,135.8125,38.9375,-169.5,0
1776972107.344,10.2592,0.2682,-2.4205,0.2627,0.0618,0.4612,4.5,21.15,-121.95,9.7252,1.5514,1.1229,0.9134,0.2545,0.3882,-84.0,20.1,2.4,6.55,0.55,-8.06,0.5858,0.4691,0.2749,-22.1875,-13.6875,33.375,135.8125,39.1875,-169.9375,0
1776972107.349,10.2735,-0.4429,-2.4852,0.3653,0.012,0.3104,4.8,19.2,-120.45,9.7252,1.5514,1.1229,0.9134,0.2545,0.3882,-84.0,20.1,2.4,6.55,0.55,-8.06,0.5858,0.4691,0.2749,-22.1875,-13.6875,33.375,135.8125,39.1875,-169.9375,0
1776972107.354,10.2735,-0.4429,-2.4852,0.4373,-0.1346,0.2385,4.8,19.2,-120.45,9.8617,0.8882,0.7254,0.9569,0.2198,0.3962,-83.85,18.3,1.35,6.69,0.32,-8.08,0.5781,0.4603,0.2422,-22.1875,-14.0625,33.875,135.8125,39.5,-170.3125,0
1776972107.359,9.9766,-1.1181,-2.0446,0.4373,-0.1346,0.2385,4.8,19.2,-120.45,9.8617,0.8882,0.7254,0.9569,0.2198,0.3962,-83.85,18.3,1.35,6.69,0.32,-8.08,0.5781,0.4603,0.2422,-22.1875,-14.0625,33.875,135.8125,39.5,-170.3125,0
1776972107.364,9.5744,-1.7358,-1.2091,0.4879,-0.2843,0.2065,4.8,19.2,-120.45,9.8114,0.5315,0.5602,0.9081,0.1785,0.4186,-85.2,19.65,1.95,6.05,0.84,-7.73,0.4767,0.468,0.1876,-22.1875,-14.0625,33.875,135.8125,39.75,-170.625,0
1776972107.369,9.5744,-1.7358,-1.2091,0.4879,-0.2843,0.2065,3.0,18.9,-121.95,9.8114,0.5315,0.5602,0.9081,0.1785,0.4186,-85.2,19.65,1.95,6.05,0.84,-7.73,0.4025,0.6501,0.1254,-22.1875,-14.0625,33.875,135.8125,40.125,-170.875,0
1776972107.375,9.3158,-2.296,-0.7733,0.4501,-0.3094,0.1927,3.0,18.9,-121.95,9.6199,0.5148,0.5674,0.8154,0.154,0.4274,-83.4,20.25,2.85,6.43,0.67,-7.82,0.4025,0.6501,0.1254,-22.1875,-14.0625,33.875,135.6875,40.5625,-171.0625,0
1776972107.384,9.2225,-2.8252,-0.5866,0.4154,-0.2563,0.182,1.8,18.75,-124.2,9.73,-0.4094,0.5602,0.6624,0.1564,0.4293,-84.15,21.0,1.35,6.65,0.8,-7.55,0.3883,0.7854,0.0535,-22.1875,-14.0625,33.875,135.625,40.9375,-171.1875,0
1776972107.394,9.1961,-2.8132,-0.9625,0.2771,-0.1889,0.2126,-0.15,18.15,-123.3,9.7013,0.2777,0.6321,0.4999,0.1418,0.4322,-84.15,21.0,1.35,6.92,0.84,-7.2,0.3382,0.7199,0.0131,-22.1875,-14.0625,33.875,135.625,40.9375,-171.1875,0
1776972107.399,9.1961,-2.8132,-0.9625,0.2771,-0.1889,0.2126,1.35,15.75,-121.05,9.7013,0.2777,0.6321,0.4999,0.1418,0.4322,-84.15,21.0,1.35,6.92,0.84,-7.2,0.3382,0.7199,0.0131,-22.1875,-14.0625,33.875,135.5625,41.25,-171.3125,0
1776972107.404,9.3039,-2.2218,-1.0391,0.1569,-0.1324,0.2864,1.35,15.75,-121.05,9.4763,0.8906,0.8236,0.4186,0.1463,0.4322,-83.1,19.5,2.55,6.82,0.93,-7.28,0.2629,0.5192,0.0218,-22.875,-13.0,33.0625,135.5625,41.25,-171.3125,0
1776972107.409,9.3039,-2.2218,-1.0391,0.1569,-0.1324,0.2864,-0.15,14.4,-121.2,9.4763,0.8906,0.8236,0.4186,0.1463,0.4322,-83.1,19.5,2.55,6.82,0.93,-7.28,0.2629,0.5192,0.0218,-22.875,-13.0,33.0625,135.5,41.4375,-171.375,0
1776972107.414,9.5313,-1.4174,-1.0774,0.073,-0.1199,0.3533,-0.15,14.4,-121.2,9.2847,1.2426,0.6225,0.4048,0.1474,0.3858,-83.1,19.5,2.55,6.48,0.93,-7.47,0.2018,0.3305,0.0098,-22.875,-13.0,33.0625,135.5,41.4375,-171.375,0
1776972107.421,9.5313,-1.4174,-1.0774,0.073,-0.1199,0.3533,-0.15,14.4,-121.2,9.5744,1.5921,0.5531,0.4458,0.1793,0.3821,-84.15,19.5,1.35,6.49,0.86,-7.37,0.1113,0.3011,0.036,-22.875,-13.0,33.0625,135.5,41.625,-171.4375,0
1776972107.426,9.5936,-0.9146,-1.0151,0.0362,-0.1282,0.3765,-0.15,14.4,-121.2,9.5744,1.5921,0.5531,0.4458,0.1793,0.3821,-84.15,19.5,1.35,6.49,0.86,-7.37,0.1113,0.3011,0.036,-22.875,-13.0,33.0625,135.5,41.6875,-171.5,0
1776972107.435,9.414,-0.8763,-0.838,0.0653,-0.0957,0.3275,1.05,12.3,-121.35,9.4451,1.6831,0.6632,0.4879,0.1879,0.3661,-83.1,17.1,1.8,6.61,0.93,-7.29,0.0218,0.1582,0.0687,-22.875,-13.0,33.0625,135.5625,41.6875,-171.5625,0
1776972107.445,9.6079,-0.929,-1.391,0.1106,-0.0546,0.2955,-1.35,13.05,-122.1,9.5217,1.7813,0.7254,0.5585,0.186,0.3381,-84.45,18.15,1.65,6.35,0.92,-7.39,-0.0055,-0.0425,0.096,-22.875,-13.0,33.0625,135.5625,41.6875,-171.5625,0
1776972107.449,9.6079,-0.929,-1.391,0.1106,-0.0546,0.2955,0.3,13.05,-122.1,9.6175,1.4844,0.6608,0.7336,0.1767,0.3048,-84.45,18.15,1.65,6.35,0.92,-7.39,-0.0055,-0.0425,0.096,-22.875,-13.0,33.0625,135.625,41.6875,-171.625,0
1776972107.454,9.7659,-0.8763,-1.5419,0.162,-0.1055,0.283,0.3,13.05,-122.1,9.6175,1.4844,0.6608,0.7336,0.1767,0.3048,-84.45,18.15,2.4,6.29,0.79,-7.44,0.0404,0.0175,0.1036,-25.0625,-12.1875,33.875,135.625,41.6875,-171.625,0
1776972107.459,9.7659,-0.8763,-1.5419,0.162,-0.1055,0.283,0.15,14.4,-122.7,9.6079,1.0726,0.5243,0.8671,0.1785,0.279,-84.45,18.15,2.4,6.29,0.79,-7.44,0.0404,0.0175,0.1036,-25.0625,-12.1875,33.875,135.625,41.6875,-171.625,0
1776972107.464,9.6941,-1.1732,-1.6041,0.1857,-0.1423,0.2883,0.15,14.4,-122.7,9.6079,1.0726,0.5243,0.8671,0.1785,0.279,-84.15,18.3,1.05,6.56,0.93,-7.28,0.0785,0.1396,0.0938,-25.0625,-12.1875,33.875,135.625,41.75,-171.6875,0
1776972107.469,9.6941,-1.1732,-1.6041,0.1857,-0.1423,0.2883,0.15,14.4,-122.7,9.6558,0.8284,0.2274,0.9473,0.2116,0.2601,-84.15,18.3,1.05,6.56,0.93,-7.28,0.0774,0.1265,0.0916,-25.0625,-12.1875,33.875,135.6875,41.875,-171.75,0
1776972107.475,9.5936,-1.6328,-1.6592,0.2089,-0.1815,0.288,0.15,14.4,-122.7,9.6558,0.8284,0.2274,0.9473,0.2116,0.2601,-85.35,19.5,0.3,6.6,0.94,-7.33,0.0774,0.1265,0.0916,-25.0625,-12.1875,33.875,135.6875,41.875,-171.75,0
1776972107.484,9.5505,-1.9465,-1.5945,0.2236,-0.2438,0.295,0.15,14.4,-122.7,9.7324,0.68,0.2969,0.9806,0.222,0.2755,-85.35,19.5,0.3,6.49,0.77,-7.41,0.0611,0.1025,0.0927,-25.0625,-12.1875,33.875,135.6875,41.9375,-171.875,0
1776972107.489,9.5505,-1.9465,-1.5945,0.2236,-0.2438,0.295,0.0,13.05,-121.8,9.7252,0.6177,0.3807,0.9606,0.2513,0.3078,-85.35,19.5,0.3,6.49,0.77,-7.41,0.0447,0.1898,0.0764,-25.0625,-12.1875,33.875,135.75,42.0,-171.9375,0
1776972107.495,9.3422,-2.4588,-1.7047,0.2334,-0.2657,0.2763,0.0,13.05,-121.8,9.7252,0.6177,0.3807,0.9606,0.2513,0.3078,-85.35,18.75,1.8,6.49,0.87,-7.32,0.0447,0.1898,0.0764,-25.0625,-12.1875,33.875,135.75,42.0,-171.9375,0
1776972107.5,9.2057,-2.7557,-2.0111,0.2348,-0.219,0.226,0.15,12.45,-123.3,9.7659,0.5674,0.2394,0.9217,0.2814,0.3517,-85.35,18.75,1.8,6.49,0.87,-7.32,0.048,0.2334,0.0622,-25.0625,-11.375,31.1875,135.75,42.125,-171.9375,0
1776972107.505,9.2057,-2.7557,-2.0111,0.2348,-0.219,0.226,1.05,12.45,-123.3,9.7659,0.5674,0.2394,0.9217,0.2814,0.3517,-85.35,18.75,1.8,6.55,0.89,-7.26,0.048,0.2334,0.0622,-25.0625,-11.375,31.1875,135.75,42.125,-171.9375,0
1776972107.51,9.1985,-2.8802,-2.4541,0.174,-0.1652,0.1964,1.05,13.5,-122.85,9.8545,0.5243,0.2825,0.8905,0.2835,0.409,-85.35,18.75,1.8,6.55,0.89,-7.26,0.0622,0.1898,0.0687,-25.0625,-11.375,31.1875,135.8125,42.25,-172.0,0
1776972107.515,9.1985,-2.8802,-2.4541,0.174,-0.1652,0.1964,1.2,12.9,-122.25,9.8545,0.5243,0.2825,0.8905,0.2835,0.409,-85.05,20.25,1.05,6.52,0.83,-7.31,0.0622,0.1898,0.0687,-25.0625,-11.375,31.1875,135.8125,42.25,-172.0,0
1776972107.52,9.3374,-2.648,-2.7605,0.1053,-0.1156,0.1815,1.2,12.9,-122.25,9.912,0.5219,0.2394,0.8561,0.2691,0.453,-85.05,20.25,1.05,6.52,0.83,-7.31,0.0404,0.1276,0.0873,-25.0625,-11.375,31.1875,135.8125,42.3125,-172.0625,0
1776972107.525,9.3374,-2.648,-2.7605,0.1053,-0.1156,0.1815,1.2,12.9,-122.25,9.9647,0.4453,0.3304,0.8561,0.2691,0.453,-84.0,19.35,0.15,6.53,0.85,-7.28,0.0404,0.1276,0.0873,-25.0625,-11.375,31.1875,135.8125,42.3125,-172.0625,0
1776972107.534,9.5672,-2.2362,-2.5929,0.0344,-0.0778,0.1631,1.2,12.9,-122.25,9.9647,0.4453,0.3304,0.8159,0.2422,0.4964,-84.6,19.5,-0.3,6.75,0.54,-7.39,0.012,0.1014,0.0884,-25.0625,-11.375,31.1875,135.875,42.375,-172.125,0
1776972107.539,9.5624,-1.8723,-2.2266,0.0045,-0.0592,0.1322,1.2,12.9,-122.25,9.9359,0.3615,0.3496,0.7706,0.2361,0.5268,-84.6,19.5,-0.3,6.75,0.54,-7.39,-0.0131,0.0415,0.0818,-25.0625,-11.375,31.1875,135.9375,42.4375,-172.1875,0
1776972107.546,9.5624,-1.8723,-2.2266,0.0045,-0.0592,0.1322,0.6,12.0,-118.95,9.7875,0.2274,0.2897,0.7293,0.2483,0.5572,-86.55,18.0,1.35,6.65,0.77,-7.34,-0.0131,0.0415,0.0818,-25.0625,-11.375,31.1875,135.9375,42.4375,-172.1875,0
1776972107.55,9.3996,-1.8818,-2.047,0.0048,-0.0536,0.1167,0.6,12.0,-118.95,9.7875,0.2274,0.2897,0.7293,0.2483,0.5572,-86.55,18.0,1.35,6.7,0.8,-7.29,-0.0393,0.0065,0.0753,-24.6875,-11.75,32.75,136.0,42.4375,-172.25,0
1776972107.555,9.3996,-1.8818,-2.047,0.0048,-0.0536,0.1167,-1.05,10.8,-120.0,9.6774,0.182,0.4381,0.7,0.271,0.5793,-85.8,17.55,1.35,6.7,0.8,-7.29,-0.0393,0.0065,0.0753,-24.6875,-11.75,32.75,136.0,42.4375,-172.25,0
1776972107.56,9.2799,-2.0423,-2.2098,0.0322,-0.0482,0.1074,-1.05,10.8,-120.0,9.6774,0.182,0.4381,0.7,0.271,0.5793,-85.8,17.55,1.35,6.7,0.8,-7.29,-0.048,-0.024,0.0698,-24.6875,-11.75,32.75,136.0,42.4375,-172.25,0
1776972107.565,9.2799,-2.0423,-2.2098,0.0322,-0.0482,0.1074,-0.15,10.95,-119.1,9.6486,0.3328,0.5794,0.6848,0.2694,0.6115,-84.6,18.0,1.35,6.66,0.84,-7.3,-0.048,-0.024,0.0698,-24.6875,-11.75,32.75,136.0,42.4375,-172.25,0
1776972107.57,9.2967,-2.3176,-2.2458,0.0312,-0.0597,0.1212,-0.15,10.95,-119.1,9.6486,0.3328,0.5794,0.6848,0.2694,0.6115,-84.6,18.0,1.35,6.66,0.84,-7.3,-0.0338,-0.0196,0.0676,-24.6875,-11.75,32.75,136.0625,42.375,-172.25,0
1776972107.576,9.2967,-2.3176,-2.2458,0.0312,-0.0597,0.1212,-1.95,10.95,-119.4,9.5241,0.4525,0.6153,0.6571,0.2731,0.648,-84.6,18.0,1.35,6.68,0.81,-7.35,-0.0338,-0.0196,0.0676,-24.6875,-11.75,32.75,136.125,42.375,-172.3125,0
1776972107.585,9.3206,-2.399,-2.2817,0.0139,-0.0565,0.1231,-1.95,10.95,-119.4,9.426,0.5698,0.6871,0.6446,0.2782,0.6829,-84.45,18.15,0.9,6.67,0.76,-7.32,-0.0295,0.0065,0.0578,-24.6875,-11.75,32.75,136.125,42.375,-172.3125,0
1776972107.59,9.3254,-2.4253,-2.3583,-0.0248,-0.0184,0.121,-1.95,10.95,-119.4,9.426,0.5698,0.6871,0.6446,0.2782,0.6829,-84.45,18.15,0.9,6.67,0.76,-7.32,-0.0382,0.0011,0.048,-24.6875,-11.75,32.75,136.1875,42.375,-172.3125,0
1776972107.596,9.3254,-2.4253,-2.3583,-0.0509,0.0155,0.1148,-1.5,11.7,-119.1,9.4451,0.7566,0.6752,0.6443,0.2654,0.708,-84.45,18.15,0.9,6.59,0.73,-7.3,-0.0382,0.0011,0.048,-24.6875,-11.75,32.75,136.1875,42.375,-172.3125,0
1776972107.601,9.5265,-2.1476,-2.2482,-0.0509,0.0155,0.1148,-1.5,11.7,-119.1,9.4451,0.7566,0.6752,0.6443,0.2654,0.708,-84.45,18.15,0.9,6.59,0.73,-7.3,-0.0382,0.0011,0.048,-25.75,-11.375,31.5625,136.1875,42.375,-172.3125,0
1776972107.606,9.5337,-1.889,-1.8771,-0.0578,0.0437,0.1021,-0.9,12.45,-119.4,9.3781,1.0415,0.6943,0.6366,0.2726,0.7413,-85.5,16.95,1.2,6.46,0.68,-7.32,-0.0469,0.0044,0.0338,-25.75,-11.375,31.5625,136.1875,42.375,-172.3125,0
1776972107.61,9.5337,-1.889,-1.8771,-0.0578,0.0437,0.1021,-0.9,12.45,-119.4,9.3781,1.0415,0.6943,0.6366,0.2726,0.7413,-85.5,16.95,1.2,6.46,0.68,-7.32,-0.0469,0.0044,0.0338,-25.75,-11.375,31.5625,136.1875,42.4375,-172.3125,0
1776972107.615,9.6055,-1.7262,-1.7406,-0.0674,0.1026,0.0778,-0.45,10.95,-118.05,9.3853,1.1349,0.8404,0.6206,0.2787,0.765,-84.75,17.7,1.65,6.42,0.84,-7.32,-0.0524,0.0295,0.0196,-25.75,-11.375,31.5625,136.1875,42.4375,-172.3125,0
1776972107.62,9.6055,-1.7262,-1.7406,-0.0674,0.1026,0.0778,-0.45,10.95,-118.05,9.3853,1.1349,0.8404,0.6206,0.2787,0.765,-84.75,17.7,1.65,6.42,0.84,-7.32,-0.0447,0.0753,0.0185,-25.75,-11.375,31.5625,136.25,42.4375,-172.3125,0
1776972107.626,9.5792,-1.6328,-1.652,-0.0482,0.1298,0.049,-1.95,10.95,-118.05,9.3877,0.8954,0.8523,0.6315,0.2931,0.7954,-84.75,16.2,1.95,6.48,0.89,-7.29,-0.0447,0.0753,0.0185,-25.75,-11.375,31.5625,136.25,42.4375,-172.3125,0
1776972107.634,9.5792,-1.6328,-1.652,-0.0386,0.1053,0.0413,-0.15,12.9,-117.6,9.3925,0.68,0.8068,0.6616,0.3232,0.8258,-85.8,15.6,-0.3,6.78,0.78,-7.33,-0.0404,0.1156,0.012,-25.75,-11.375,31.5625,136.25,42.5,-172.3125,0
1776972107.639,9.7276,-1.7214,-1.5562,-0.0386,0.1053,0.0413,-0.15,12.9,-117.6,9.3925,0.68,0.8068,0.6616,0.3232,0.8258,-85.8,15.6,-0.3,6.78,0.78,-7.33,-0.0338,0.1069,0.0011,-25.75,-11.375,31.5625,136.25,42.5625,-172.25,0
1776972107.646,9.7923,-1.7717,-1.561,-0.0581,0.06,0.0549,-0.15,12.9,-117.6,9.4739,0.5363,0.7805,0.7029,0.3533,0.8585,-86.1,15.6,0.3,6.65,0.81,-7.25,-0.0338,0.1069,0.0011,-25.75,-11.375,31.5625,136.25,42.5625,-172.25,0
1776972107.651,9.7923,-1.7717,-1.561,-0.0581,0.06,0.0549,-0.15,12.9,-117.6,9.4475,0.4166,0.8499,0.7029,0.3533,0.8585,-86.1,15.6,0.3,6.65,0.81,-7.25,-0.0316,0.0665,0.0,-24.6875,-11.375,32.875,136.25,42.625,-172.25,0
1776972107.656,9.7181,-1.4796,-1.6735,-0.0613,0.0088,0.0717,-2.25,11.4,-119.4,9.4475,0.4166,0.8499,0.7205,0.3637,0.8972,-85.5,14.25,1.95,6.54,0.77,-7.29,-0.0316,0.0665,0.0,-24.6875,-11.375,32.875,136.25,42.625,-172.25,0
1776972107.66,9.7181,-1.4796,-1.6735,-0.0613,0.0088,0.0717,-2.25,11.4,-119.4,9.3996,0.3903,1.0391,0.7205,0.3637,0.8972,-85.5,14.25,1.95,6.54,0.77,-7.29,-0.036,0.0654,0.0044,-24.6875,-11.375,32.875,136.25,42.625,-172.25,0
1776972107.666,9.5361,-0.9481,-1.7765,-0.0155,0.02,0.057,0.3,12.0,-117.9,9.3996,0.3903,1.0391,0.7317,0.3786,0.9342,-85.5,14.25,1.95,6.58,0.85,-7.23,-0.036,0.0654,0.0044,-24.6875,-11.375,32.875,136.25,42.625,-172.25,0
1776972107.67,9.5361,-0.9481,-1.7765,-0.0155,0.02,0.057,0.3,12.0,-117.9,9.3709,0.4836,1.2426,0.7186,0.3874,0.9697,-85.5,14.25,1.95,6.58,0.85,-7.23,-0.0262,0.0644,0.0087,-24.6875,-11.375,32.875,136.25,42.6875,-172.25,0
1776972107.676,9.5265,-0.4549,-1.7885,0.0405,0.0703,0.0264,-2.25,11.4,-118.05,9.3709,0.4836,1.2426,0.7186,0.3874,0.9697,-85.8,15.6,0.3,6.55,0.91,-7.22,-0.0262,0.0644,0.0087,-24.6875,-11.375,32.875,136.25,42.6875,-172.25,0
1776972107.685,9.7061,-0.0359,-1.5347,0.1031,0.1194,-0.0019,-3.0,9.45,-118.05,9.3805,0.7254,1.1684,0.7173,0.3906,1.0008,-85.8,15.6,0.3,6.57,0.92,-7.18,-0.0033,0.0611,0.0185,-24.6875,-11.375,32.875,136.3125,42.6875,-172.25,0
1776972107.69,9.7061,-0.0359,-1.5347,0.1031,0.1194,-0.0019,-3.0,9.45,-118.05,9.3565,0.6369,1.0151,0.7533,0.3722,1.0195,-85.8,15.6,0.3,6.57,0.92,-7.18,0.0185,0.0447,0.0262,-24.6875,-11.375,32.875,136.3125,42.75,-172.25,0
1776972107.696,9.6845,0.0742,-1.2067,0.1879,0.0778,0.0197,-3.15,11.25,-117.45,9.3565,0.6369,1.0151,0.7533,0.3722,1.0195,-87.75,14.25,0.9,6.67,0.84,-7.22,0.0185,0.0447,0.0262,-24.6875,-11.375,32.875,136.3125,42.75,-172.25,0
1776972107.701,9.6845,0.0742,-1.2067,0.1879,0.0778,0.0197,-3.15,11.25,-117.45,9.1626,0.5674,0.8284,0.8298,0.3563,1.0142,-87.75,14.25,0.9,6.68,0.84,-7.18,0.0349,0.0415,0.0316,-25.75,-11.375,32.0625,136.3125,42.75,-172.3125,0
1776972107.706,9.5816,-0.2705,-0.8499,0.2745,0.0496,0.0522,-3.15,11.25,-117.45,9.1626,0.5674,0.8284,0.8298,0.3563,1.0142,-86.85,13.2,0.3,6.68,0.84,-7.18,0.0349,0.0415,0.0316,-25.75,-11.375,32.0625,136.3125,42.75,-172.3125,0
1776972107.711,9.5816,-0.2705,-0.8499,0.2745,0.0496,0.0522,-3.15,11.25,-117.45,9.153,0.1556,0.4142,0.9081,0.319,0.9755,-86.85,13.2,0.3,6.68,0.84,-7.18,0.0491,0.0251,0.0349,-25.75,-11.375,32.0625,136.3125,42.75,-172.375,0
1776972107.716,9.4284,-0.8452,-0.5219,0.2963,-0.0163,0.1175,-2.7,11.7,-118.35,9.153,0.1556,0.4142,0.9081,0.319,0.9755,-87.45,13.8,-0.45,6.7,0.68,-7.22,0.0491,0.0251,0.0349,-25.75,-11.375,32.0625,136.3125,42.75,-172.375,0
1776972107.721,9.4284,-0.8452,-0.5219,0.2963,-0.0163,0.1175,-2.7,11.7,-118.35,9.4834,-0.1556,0.2322,0.9435,0.2705,0.9044,-87.45,13.8,-0.45,6.7,0.68,-7.22,0.0578,0.0055,0.0349,-25.75,-11.375,32.0625,136.3125,42.75,-172.4375,0
1776972107.726,9.7995,-1.0726,-0.3687,0.3022,-0.0845,0.1972,-2.7,12.45,-119.4,9.4834,-0.1556,0.2322,0.9435,0.2705,0.9044,-88.95,13.05,0.45,6.64,0.67,-7.23,0.0578,0.0055,0.0349,-25.75,-11.375,32.0625,136.3125,42.75,-172.4375,0
1776972107.735,10.1897,-0.8619,0.3136,0.2774,-0.1452,0.2854,-2.4,12.0,-120.3,9.8162,-0.2897,0.3136,0.8977,0.2254,0.8167,-88.05,13.2,-0.3,6.47,0.78,-7.23,0.0654,0.0207,0.024,-25.75,-11.375,32.0625,136.3125,42.75,-172.5,0
1776972107.74,10.1897,-0.8619,0.3136,0.2774,-0.1452,0.2854,-2.4,12.0,-120.3,9.9647,-0.2753,0.486,0.7741,0.1652,0.7349,-88.05,13.2,-0.3,6.47,0.78,-7.23,0.0764,0.06,0.024,-25.75,-11.375,32.0625,136.3125,42.8125,-172.5,0
1776972107.746,10.3238,-0.3879,0.4118,0.2571,-0.1921,0.3493,-2.1,13.05,-120.75,9.9647,-0.2753,0.486,0.7741,0.1652,0.7349,-87.75,13.5,0.45,6.45,0.91,-7.17,0.0764,0.06,0.024,-25.75,-11.375,32.0625,136.3125,42.8125,-172.5,0
1776972107.751,10.4818,-0.249,0.7063,0.2262,-0.2409,0.3957,-2.1,11.55,-120.3,10.2855,-0.1963,0.7542,0.5868,0.1258,0.6472,-87.75,13.5,0.45,6.45,0.91,-7.17,0.0764,0.06,0.024,-26.1875,-11.375,30.875,136.3125,42.875,-172.5625,0
1776972107.756,10.4818,-0.249,0.7063,0.2262,-0.2409,0.3957,-2.1,11.55,-120.3,10.2807,-0.0192,0.8954,0.5868,0.1258,0.6472,-87.75,13.5,0.45,6.46,0.89,-7.09,0.0905,0.0884,0.036,-26.1875,-11.375,30.875,136.3125,42.875,-172.5625,0
1776972107.761,10.4555,-0.5507,0.7422,0.2422,-0.2998,0.4146,-2.1,11.55,-120.3,10.2807,-0.0192,0.8954,0.3805,0.0877,0.5596,-87.75,13.5,0.45,6.46,0.89,-7.09,0.0905,0.0884,0.036,-26.1875,-11.375,30.875,136.3125,42.875,-172.6875,0
1776972107.766,10.4555,-0.5507,0.7422,0.2422,-0.2998,0.4146,-2.1,11.55,-120.3,10.1993,0.3112,0.972,0.3805,0.0877,0.5596,-87.75,11.4,0.45,6.46,0.82,-7.22,0.0971,0.0938,0.0502,-26.1875,-11.375,30.875,136.3125,42.875,-172.6875,0
1776972107.771,10.4339,-1.1181,0.6416,0.2859,-0.373,0.4223,-2.1,11.55,-120.3,10.1993,0.3112,0.972,0.1516,0.0322,0.4791,-87.75,11.4,0.45,6.46,0.82,-7.22,0.1102,0.0982,0.0644,-26.1875,-11.375,30.875,136.3125,42.9375,-172.75,0
1776972107.776,10.4339,-1.1181,0.6416,0.2859,-0.373,0.4223,-0.45,11.7,-122.7,10.0078,0.5531,1.1133,-0.0258,0.0013,0.4018,-87.75,11.4,0.45,6.51,0.69,-7.27,0.1102,0.0982,0.0644,-26.1875,-11.375,30.875,136.375,43.0,-172.875,0
1776972107.785,10.3597,-1.8771,0.5483,0.2769,-0.4565,0.4311,1.95,11.7,-121.65,10.0389,0.4812,1.233,-0.0258,0.0013,0.4018,-88.95,11.85,0.15,6.37,0.62,-7.22,0.1244,0.1298,0.0665,-26.1875,-11.375,30.875,136.375,43.0,-172.875,0
1776972107.79,10.4962,-2.4205,0.5722,0.1713,-0.5793,0.4716,1.95,11.7,-121.65,10.0389,0.4812,1.233,-0.1228,-0.0099,0.3432,-88.95,11.85,0.15,6.37,0.62,-7.22,0.1429,0.1647,0.0611,-26.1875,-11.375,30.875,136.375,43.0625,-173.0,0
1776972107.796,10.4962,-2.4205,0.5722,0.1713,-0.5793,0.4716,2.4,12.75,-120.0,9.9503,0.2801,1.3767,-0.2225,-0.0256,0.2923,-87.3,10.05,1.05,6.2,0.58,-7.32,0.1429,0.1647,0.0611,-26.1875,-11.375,30.875,136.375,43.0625,-173.0,0
1776972107.801,10.3262,-2.6791,-0.0263,0.0621,-0.6989,0.5124,1.35,12.75,-121.8,9.9503,0.2801,1.3767,-0.2225,-0.0256,0.2923,-87.3,10.05,1.05,6.2,0.58,-7.32,0.1145,0.2138,0.0774,-25.0625,-11.375,32.5,136.375,43.1875,-173.0625,0
1776972107.806,10.3262,-2.6791,-0.0263,0.0621,-0.6989,0.5124,1.35,12.75,-121.8,10.1323,0.4525,1.6233,-0.3259,-0.0741,0.2499,-87.75,11.1,-0.9,6.87,0.32,-7.32,0.1145,0.2138,0.0774,-25.0625,-11.375,32.5,136.375,43.1875,-173.0625,0
1776972107.811,10.24,-2.4612,0.1221,0.0336,-0.741,0.5057,3.15,11.55,-122.1,10.1323,0.4525,1.6233,-0.3259,-0.0741,0.2499,-87.75,11.1,-0.9,6.87,0.32,-7.32,0.0993,0.2629,0.0273,-25.0625,-11.375,32.5,136.375,43.375,-173.125,0
1776972107.816,10.24,-2.4612,0.1221,0.0336,-0.741,0.5057,3.15,11.55,-122.1,9.8474,1.0008,1.6759,-0.3994,-0.0882,0.2228,-88.2,10.65,-1.2,6.5,0.69,-7.23,0.0993,0.2629,0.0273,-25.0625,-11.375,32.5,136.375,43.5,-173.1875,0
1776972107.825,10.1442,-1.9944,0.4118,-0.0306,-0.7139,0.4802,3.15,11.55,-122.1,9.6223,1.1971,1.5874,-0.3954,-0.0967,0.1958,-87.75,10.35,1.65,6.56,0.64,-7.3,0.0545,0.2694,0.0338,-25.0625,-11.375,32.5,136.375,43.5,-173.1875,0
1776972107.832,10.0509,-1.9704,0.2729,-0.1162,-0.6534,0.4431,2.7,11.4,-122.25,9.6223,1.1971,1.5874,-0.3954,-0.0967,0.1958,-87.75,10.35,1.65,6.54,0.72,-7.19,0.0491,0.2793,0.0284,-25.0625,-11.375,32.5,136.375,43.625,-173.1875,0
1776972107.836,10.0509,-1.9704,0.2729,-0.1162,-0.6534,0.4431,2.7,11.4,-122.25,9.5553,1.3838,1.4796,-0.3898,-0.1279,0.1561,-86.25,9.9,0.45,6.54,0.72,-7.19,0.0491,0.2793,0.0284,-25.0625,-11.375,32.5,136.3125,43.75,-173.25,0
1776972107.845,10.0317,-1.7837,0.0575,-0.1529,-0.6406,0.396,3.45,11.4,-124.5,9.6031,1.415,1.5874,-0.3928,-0.1684,0.1138,-86.25,9.9,0.45,6.48,0.6,-7.09,0.0622,0.2793,0.0196,-25.0625,-11.375,32.5,136.3125,43.75,-173.25,0
1776972107.85,10.1394,-1.5969,0.0503,-0.158,-0.6776,0.3768,2.85,12.0,-123.15,9.6031,1.415,1.5874,-0.3928,-0.1684,0.1138,-86.25,9.9,0.45,6.48,0.6,-7.09,0.0622,0.2793,0.0196,-25.0625,-11.375,32.5,136.3125,43.75,-173.25,0
1776972107.855,10.1394,-1.5969,0.0503,-0.158,-0.6776,0.3768,2.85,12.0,-123.15,9.4763,1.4988,1.81,-0.3579,-0.1916,0.0861,-86.85,9.75,0.6,6.37,0.53,-7.26,0.06,0.2945,0.0316,-26.1875,-11.0,32.875,136.3125,43.875,-173.3125,0
1776972107.86,10.1825,-1.6257,-0.7805,-0.1615,-0.7533,0.3805,2.1,10.8,-123.6,9.4763,1.4988,1.81,-0.3579,-0.1916,0.0861,-86.85,9.75,0.6,6.37,0.53,-7.26,0.06,0.2945,0.0316,-26.1875,-11.0,32.875,136.3125,43.875,-173.3125,0
1776972107.865,10.1825,-1.6257,-0.7805,-0.1615,-0.7533,0.3805,2.1,10.8,-123.6,9.426,1.5012,2.0494,-0.271,-0.2086,0.0695,-86.85,9.75,0.6,6.22,0.68,-7.24,0.0938,0.3665,-0.0033,-26.1875,-11.0,32.875,136.3125,44.0625,-173.375,0
1776972107.87,10.2663,-1.7789,-1.2091,-0.1522,-0.8524,0.384,3.0,10.2,-124.05,9.426,1.5012,2.0494,-0.271,-0.2086,0.0695,-86.85,9.75,0.6,6.22,0.68,-7.24,0.0687,0.4549,0.0305,-26.1875,-11.0,32.875,136.3125,44.25,-173.4375,0
1776972107.876,10.2663,-1.7789,-1.2091,-0.1522,-0.8524,0.384,3.0,10.2,-124.05,9.402,1.5275,2.1835,-0.1577,-0.2124,0.0602,-87.0,9.9,0.45,7.0,0.37,-7.51,0.0687,0.4549,0.0305,-26.1875,-11.0,32.875,136.3125,44.25,-173.4375,0
1776972107.884,10.2376,-2.1308,-1.3096,-0.0895,-0.9451,0.4018,3.0,10.2,-124.05,9.5409,1.5323,2.3607,0.0061,-0.2076,0.0501,-87.0,9.9,0.45,6.91,0.76,-6.86,0.0742,0.5181,0.024,-26.1875,-11.0,32.875,136.3125,44.5625,-173.5,0
1776972107.889,10.1658,-2.5283,-0.7638,-0.0861,-1.0299,0.4373,-0.6,11.55,-126.45,9.5409,1.5323,2.3607,0.0061,-0.2076,0.0501,-88.8,10.05,-0.3,6.91,0.76,-6.86,0.0742,0.5181,0.024,-26.1875,-11.0,32.875,149.1875,44.8125,-173.5,0
1776972107.896,10.5393,-2.411,-0.5004,-0.0496,-1.0733,0.4703,-0.6,11.55,-126.45,9.8497,1.5371,2.2793,0.2145,-0.207,0.032,-87.3,9.3,1.05,6.63,0.97,-7.22,0.0665,0.4898,0.0251,-26.1875,-11.0,32.875,149.1875,44.8125,-173.5,0
1776972107.901,10.5393,-2.411,-0.5004,-0.0496,-1.0733,0.4703,0.6,10.05,-125.7,9.9096,1.3144,2.0925,0.4183,-0.1927,0.0024,-87.3,9.3,1.05,6.63,0.97,-7.22,0.0665,0.4898,0.0251,-26.5625,-10.25,31.6875,149.0,45.0625,-173.5625,0
1776972107.906,10.7404,-2.0159,-1.2474,-0.0679,-1.109,0.5124,0.6,10.05,-125.7,9.9096,1.3144,2.0925,0.4183,-0.1927,0.0024,-87.75,9.9,-0.45,6.5,0.4,-7.4,0.0654,0.4756,0.0524,-26.5625,-10.25,31.6875,149.0,45.0625,-173.5625,0
1776972107.911,10.7404,-2.0159,-1.2474,-0.0679,-1.109,0.5124,0.15,8.7,-127.35,10.0628,1.1636,1.5299,0.6217,-0.1729,-0.0157,-87.75,9.9,-0.45,6.5,0.4,-7.4,0.0654,0.4756,0.0524,-26.5625,-10.25,31.6875,148.8125,45.375,-173.5625,0
1776972107.916,10.7715,-1.7957,-1.1803,-0.1948,-1.1178,0.5625,0.15,8.7,-127.35,10.0628,1.1636,1.5299,0.6217,-0.1729,-0.0157,-88.65,9.45,-0.15,6.98,0.32,-7.49,0.0774,0.4745,-0.0022,-26.5625,-10.25,31.6875,148.8125,45.375,-173.5625,0
1776972107.925,11.1761,-1.3431,-1.1851,-0.2619,-1.125,0.5942,1.2,9.45,-126.6,10.1778,1.2881,1.3168,0.7424,-0.1998,-0.041,-88.65,9.45,-0.15,6.92,0.67,-7.04,0.0927,0.6,-0.0556,-26.5625,-10.25,31.6875,148.6875,45.6875,-173.5625,0
1776972107.934,11.1761,-1.3431,-1.1851,-0.2995,-1.1562,0.5854,1.5,8.4,-129.0,10.6255,1.7166,1.2833,0.8183,-0.2388,-0.0895,-87.3,10.5,-1.35,6.16,0.06,-7.19,0.0862,0.624,-0.0742,-26.5625,-10.25,31.6875,148.5,46.0,-173.5,0
1776972107.939,11.9806,-0.3496,-1.3479,-0.2995,-1.1562,0.5854,1.5,8.4,-129.0,10.9439,1.8842,1.1851,0.8183,-0.2388,-0.0895,-87.3,10.5,-1.35,6.16,0.06,-7.19,0.0862,0.624,-0.0742,-26.5625,-10.25,31.6875,148.4375,46.375,-173.4375,0
1776972107.946,12.4331,0.2274,-1.4653,-0.312,-1.2569,0.5534,1.5,8.4,-129.0,10.9439,1.8842,1.1851,0.898,-0.3195,-0.1615,-87.0,9.45,0.15,6.21,0.04,-7.72,0.0,0.6261,-0.036,-26.5625,-10.25,31.6875,148.4375,46.375,-173.4375,0
1776972107.951,12.4331,0.2274,-1.4653,-0.312,-1.2569,0.5534,1.05,7.05,-131.4,11.1306,1.8794,1.1588,1.0115,-0.3984,-0.2249,-87.0,9.45,0.15,6.21,0.04,-7.72,-0.1113,0.8247,-0.0785,-27.25,-10.6875,29.6875,148.5,46.8125,-173.25,0
1776972107.956,12.7108,0.6177,-1.2522,-0.3445,-1.4093,0.5841,1.05,7.05,-131.4,11.1306,1.8794,1.1588,1.0115,-0.3984,-0.2249,-87.0,9.45,0.15,6.49,0.22,-7.41,-0.1113,0.8247,-0.0785,-27.25,-10.6875,29.6875,148.5,46.8125,-173.25,0
1776972107.961,12.7108,0.6177,-1.2522,-0.3445,-1.4093,0.5841,0.9,7.65,-132.3,11.145,1.968,0.8068,1.1034,-0.4887,-0.3051,-87.0,9.45,0.15,6.49,0.22,-7.41,-0.1669,1.0341,-0.132,-27.25,-10.6875,29.6875,148.625,47.375,-173.0,0
1776972107.966,12.9263,0.2179,-1.1444,-0.4021,-1.5402,0.6139,0.9,7.65,-132.3,11.145,1.968,0.8068,1.1034,-0.4887,-0.3051,-87.0,11.4,-3.0,6.35,0.08,-7.53,-0.1669,1.0341,-0.132,-27.25,-10.6875,29.6875,148.625,47.375,-173.0,0
1776972107.972,12.9263,0.2179,-1.1444,-0.4021,-1.5402,0.6139,0.6,7.8,-132.75,11.0492,2.0973,0.7135,1.1322,-0.5404,-0.4026,-87.0,11.4,-3.0,6.41,0.39,-7.28,-0.2225,1.201,-0.1658,-27.25,-10.6875,29.6875,148.875,48.0,-172.6875,0
1776972107.977,12.6941,-0.4501,-0.5435,-0.5145,-1.7227,0.6478,1.2,7.8,-132.75,11.0492,2.0973,0.7135,1.1322,-0.5404,-0.4026,-87.45,10.65,-1.95,6.41,0.39,-7.28,-0.2225,1.201,-0.1658,-27.25,-10.6875,29.6875,149.0625,48.8125,-172.375,0
1776972107.986,12.3565,-0.9625,-0.2514,-0.5673,-1.8594,0.7171,1.2,6.15,-136.2,10.6063,2.0087,0.6225,1.1607,-0.5375,-0.4959,-88.2,11.85,-1.95,6.4,0.47,-6.95,-0.2411,1.4224,-0.1876,-27.25,-10.6875,29.6875,149.0625,48.8125,-172.375,0
1776972107.996,11.9159,-0.7398,-0.7949,-0.6222,-1.9207,0.7829,1.2,6.15,-136.2,10.2735,1.8794,0.4908,1.1876,-0.5292,-0.5785,-88.2,11.85,-1.95,6.84,0.35,-6.65,-0.1909,1.6242,-0.2422,-27.25,-10.6875,29.6875,149.1875,49.6875,-171.9375,0
1776972108.0,11.9159,-0.7398,-0.7949,-0.6222,-1.9207,0.7829,1.2,6.15,-136.2,9.8737,1.9537,0.1053,1.1754,-0.5793,-0.6536,-88.2,12.3,-3.75,6.84,0.35,-6.65,-0.1909,1.6242,-0.2422,-27.25,-10.6875,29.6875,149.1875,49.6875,-171.9375,0
1776972108.006,11.5448,-0.3424,-1.391,-0.7464,-1.9806,0.8431,1.2,6.15,-136.2,9.2225,1.6041,-0.4046,1.1754,-0.5793,-0.6536,-88.05,12.0,-3.75,6.71,0.87,-5.9,-0.2116,1.789,-0.2411,-28.0,-10.25,29.6875,149.3125,50.625,-171.5,0
1776972108.01,11.5448,-0.3424,-1.391,-0.7464,-1.9806,0.8431,3.9,4.5,-140.25,9.2225,1.6041,-0.4046,1.0984,-0.7027,-0.7309,-88.05,12.0,-4.8,6.71,0.87,-5.9,-0.2116,1.789,-0.2411,-28.0,-10.25,29.6875,149.3125,50.625,-171.5,0
1776972108.015,11.3485,-0.2897,-1.415,-0.845,-2.0414,0.9222,3.9,4.5,-140.25,8.9878,1.9489,-0.8811,1.0984,-0.7027,-0.7309,-88.05,12.0,-4.8,7.39,-0.75,-5.24,-0.3938,2.15,-0.1069,-28.0,-10.25,29.6875,149.5,51.8125,-171.0,0
1776972108.02,11.3485,-0.2897,-1.415,-0.845,-2.0414,0.9222,3.0,4.65,-142.65,8.9878,1.9489,-0.8811,0.9505,-0.7767,-0.8354,-87.6,12.9,-2.85,7.39,-0.75,-5.24,-0.5258,2.3889,-0.0731,-28.0,-10.25,29.6875,149.8125,53.125,-170.375,0
1776972108.026,11.1402,-0.1891,-1.4653,-0.7133,-2.2044,0.8972,2.85,3.0,-144.6,8.7245,1.3312,-0.9409,0.8652,-0.8879,-0.8948,-87.6,12.9,-2.85,8.59,2.79,-7.05,-0.5258,2.3889,-0.0731,-28.0,-10.25,29.6875,150.4375,54.625,-169.5,0
1776972108.036,9.9838,-0.012,-1.6257,-0.5167,-2.314,0.7959,3.6,4.5,-145.95,8.7412,0.6584,-0.8284,0.7991,-0.9459,-0.9675,-87.6,12.9,-2.85,8.46,-0.2,-5.74,-0.9577,2.7827,0.0611,-28.0,-10.25,29.6875,150.4375,54.625,-169.5,0
1776972108.046,9.4643,-0.4549,-1.9728,-0.3888,-2.3577,0.7261,3.6,4.5,-145.95,8.8729,-0.1484,-0.8906,0.7344,-0.9755,-1.0797,-87.0,14.55,-4.2,9.44,0.36,-5.85,-1.2414,2.9289,0.2891,-28.0,-10.25,29.6875,151.1875,56.25,-168.5625,0
1776972108.05,9.3781,-1.2665,-1.8244,-0.1764,-2.4325,0.7245,3.6,4.5,-145.95,8.8729,-0.1484,-0.8906,0.7344,-0.9755,-1.0797,-87.0,14.55,-4.2,9.44,0.36,-5.85,-1.2414,2.9289,0.2891,-28.0,-10.25,29.6875,151.1875,56.25,-168.5625,0
1776972108.055,9.3781,-1.2665,-1.8244,-0.1764,-2.4325,0.7245,3.6,4.5,-145.95,9.0142,-0.8906,-0.7518,0.5561,-0.9513,-1.2111,-87.0,14.55,-4.2,8.55,3.6,-8.09,-1.5293,2.4271,0.6054,-31.25,-10.6875,27.0,152.0,57.625,-167.8125,0
1776972108.06,9.5146,-1.8914,-1.7454,0.1569,-2.48,0.7623,3.6,4.5,-145.95,9.0142,-0.8906,-0.7518,0.5561,-0.9513,-1.2111,-87.6,16.35,-5.55,8.55,3.6,-8.09,-1.5293,2.4271,0.6054,-31.25,-10.6875,27.0,152.0,57.625,-167.8125,0
1776972108.065,9.5146,-1.8914,-1.7454,0.1569,-2.48,0.7623,3.9,0.3,-148.2,9.1411,-0.4214,-0.1484,0.3685,-0.8844,-1.3014,-87.6,16.35,-5.55,10.0,3.89,-8.07,-0.7614,2.2329,0.8738,-31.25,-10.6875,27.0,152.0,58.9375,-167.75,0
1776972108.07,9.4164,-2.296,-2.0207,0.3874,-2.489,0.8223,3.9,0.3,-148.2,9.1411,-0.4214,-0.1484,0.3685,-0.8844,-1.3014,-86.85,15.15,-6.15,10.0,3.89,-8.07,0.7538,3.1187,1.0854,-31.25,-10.6875,27.0,150.3125,60.75,-168.5625,0
1776972108.077,9.4164,-2.296,-2.0207,0.3874,-2.489,0.8223,4.95,1.5,-149.85,9.0908,-0.0814,0.2011,0.3195,-0.8111,-1.3619,-86.85,15.9,-5.55,9.68,1.25,-6.5,0.7538,3.1187,1.0854,-31.25,-10.6875,27.0,148.0,62.5625,-170.1875,0
1776972108.086,9.1961,-3.1508,-2.7342,0.4807,-2.4216,0.8431,5.25,-0.45,-150.45,9.2416,0.3496,0.9242,0.2931,-0.7056,-1.3867,-86.85,15.9,-5.55,9.38,1.5,-6.94,1.3755,3.0751,1.4323,-31.25,-10.6875,27.0,148.0,62.5625,-170.1875,0
1776972108.096,9.2153,-3.9863,-3.3303,0.587,-2.3515,0.8561,5.7,-2.25,-151.65,9.493,0.6201,1.233,0.2611,-0.6182,-1.3941,-87.6,17.55,-7.65,11.7,3.12,-8.46,1.5272,3.2038,1.5828,-31.25,-10.6875,27.0,145.5625,64.5,-172.25,0
1776972108.101,9.323,-4.3598,-3.5195,0.6915,-2.3595,0.8415,5.7,-2.25,-151.65,9.493,0.6201,1.233,0.2611,-0.6182,-1.3941,-84.15,17.1,-7.65,11.7,3.12,-8.46,1.5272,3.2038,1.5828,-31.25,-10.6875,27.0,143.0,66.4375,-174.875,0
1776972108.106,9.323,-4.3598,-3.5195,0.6915,-2.3595,0.8415,5.7,-2.25,-151.65,9.7707,1.087,1.4581,0.2305,-0.5481,-1.4101,-84.15,17.1,-7.65,13.16,4.46,-8.58,1.6875,3.3445,1.7617,-33.875,-11.375,21.5,143.0,66.4375,-174.875,0
1776972108.111,8.9639,-4.3503,-3.7565,0.886,-2.3241,0.7789,5.7,-2.25,-151.65,9.7707,1.087,1.4581,0.2305,-0.5481,-1.4101,-86.1,18.3,-6.9,13.16,4.46,-8.58,1.6875,3.3445,1.7617,-33.875,-11.375,21.5,140.1875,68.25,-178.375,0
1776972108.116,8.9639,-4.3503,-3.7565,0.886,-2.3241,0.7789,8.1,-8.4,-153.3,9.6774,1.8603,1.8699,0.2358,-0.4783,-1.4389,-86.1,18.3,-6.9,16.39,8.17,-8.07,1.8937,3.1754,2.054,-33.875,-11.375,21.5,140.1875,68.25,-178.375,0
1776972108.123,8.9304,-4.6112,-4.64,1.0144,-2.3886,0.733,8.1,-8.4,-153.3,9.7324,2.3463,2.0351,0.2955,-0.3704,-1.4589,-86.1,18.3,-6.9,17.27,6.45,-9.84,2.1991,2.87,2.486,-33.875,-11.375,21.5,137.0625,69.8125,176.625,0
1776972108.128,8.6933,-5.3965,-5.047,1.2534,-2.4568,0.6771,8.7,-8.55,-151.05,9.7324,2.3463,2.0351,0.2955,-0.3704,-1.4589,-84.45,18.9,-9.0,17.27,6.45,-9.84,2.1991,2.87,2.486,-33.875,-11.375,21.5,133.375,70.875,170.4375,0
1776972108.136,8.6933,-5.3965,-5.047,1.2534,-2.4568,0.6771,8.7,-9.75,-151.65,9.7229,2.296,2.1524,0.3866,-0.2166,-1.4797,-84.45,18.9,-9.0,11.63,3.89,-7.78,2.8482,2.1991,2.7282,-33.875,-11.375,21.5,129.625,71.375,164.0,0
1776972108.146,7.8075,-6.5362,-5.0326,1.5671,-2.5189,0.6043,9.75,-11.55,-150.6,10.058,2.5019,2.3152,0.5702,-0.0914,-1.4991,-84.45,18.9,-9.0,6.29,2.17,-8.38,3.1383,1.5523,2.6333,-33.875,-11.375,21.5,129.625,71.375,164.0,0
1776972108.151,5.6527,-7.6231,-4.039,1.7387,-2.496,0.3901,9.75,-11.55,-150.6,10.3406,2.739,2.1548,0.8972,-0.0112,-1.4901,-85.05,21.0,-8.1,6.29,2.17,-8.38,3.1383,1.5523,2.6333,-33.875,-11.375,21.5,129.625,71.375,164.0,0
1776972108.156,5.6527,-7.6231,-4.039,1.7387,-2.496,0.3901,9.15,-13.95,-147.3,10.3406,2.739,2.1548,0.8972,-0.0112,-1.4901,-85.05,21.0,-8.1,2.28,2.26,-12.82,3.3183,1.0734,2.4544,-38.6875,-5.875,17.1875,125.875,71.5,157.75,0
1776972108.161,3.6751,-8.667,-3.8858,1.6731,-2.3451,0.0781,9.15,-13.95,-147.3,10.6757,2.727,2.0279,1.2995,0.0954,-1.4552,-83.4,22.95,-9.15,2.28,2.26,-12.82,3.3183,1.0734,2.4544,-38.6875,-5.875,17.1875,125.875,71.5,157.75,0
1776972108.166,3.6751,-8.667,-3.8858,1.6731,-2.3451,0.0781,9.15,-13.95,-147.3,10.6757,2.727,2.0279,1.2995,0.0954,-1.4552,-83.4,22.95,-9.15,10.66,-0.79,-13.85,3.2485,0.6949,1.9668,-38.6875,-5.875,17.1875,122.4375,71.375,152.5,0
1776972108.171,2.7222,-8.5928,-3.9193,1.5783,-2.1181,-0.3525,9.15,-13.95,-147.3,11.4156,2.138,1.6161,1.6494,0.2062,-1.4104,-84.15,22.2,-8.85,10.66,-0.79,-13.85,2.5744,0.588,0.8978,-38.6875,-5.875,17.1875,120.125,71.4375,149.3125,0
1776972108.177,3.7781,-5.9448,-4.3886,1.5202,-2.1274,-0.5942,8.25,-21.3,-139.65,11.4156,2.138,1.6161,1.6494,0.2062,-1.4104,-84.15,22.2,-8.85,6.57,5.4,-13.67,2.5744,0.588,0.8978,-38.6875,-5.875,17.1875,118.875,71.125,148.6875,0
1776972108.186,1.968,-4.5825,-4.9656,1.9324,-1.9252,-0.741,7.8,-24.45,-133.65,11.9854,1.415,1.2761,1.8271,0.3325,-1.3472,-82.95,24.0,-9.75,2.8,6.28,-9.61,1.4901,-0.5923,0.1756,-38.6875,-5.875,17.1875,118.875,71.125,148.6875,0
1776972108.196,2.5929,-2.2649,-4.1252,2.1794,-1.0477,-1.1415,5.25,-27.9,-127.95,11.5377,1.9824,1.0343,1.9417,0.4293,-1.3137,-83.1,25.05,-11.1,0.86,6.29,-6.81,1.3494,-0.9676,-0.12,-38.6875,-5.875,17.1875,117.8125,70.6875,148.9375,0
1776972108.201,2.5929,-2.2649,-4.1252,2.1794,-1.0477,-1.1415,5.25,-27.9,-127.95,11.1211,1.822,0.9481,2.0206,0.5502,-1.3102,-83.1,25.35,-10.35,0.86,6.29,-6.81,1.3494,-0.9676,-0.12,-38.6875,-5.875,17.1875,116.5625,70.25,148.9375,0
1776972108.206,4.3383,-1.2617,-3.7134,2.1128,-0.4946,-1.4178,3.9,-29.55,-124.65,11.1211,1.822,0.9481,2.0206,0.5502,-1.3102,-83.1,25.35,-10.35,2.18,4.29,-6.85,1.6832,-0.925,-0.1233,-42.75,0.6875,16.0625,116.5625,70.25,148.9375,0
1776972108.211,4.3383,-1.2617,-3.7134,2.1128,-0.4946,-1.4178,3.9,-29.55,-124.65,11.1546,1.6017,0.9577,2.0632,0.6243,-1.3131,-83.1,25.35,-10.35,2.18,4.29,-6.85,1.6832,-0.925,-0.1233,-42.75,0.6875,16.0625,116.5625,70.25,148.9375,0
1776972108.216,5.8107,-3.2058,-3.814,1.9313,-0.3416,-1.6212,3.75,-34.95,-123.75,11.1546,1.6017,0.9577,2.0632,0.6243,-1.3131,-83.1,25.35,-10.35,3.21,4.02,-7.46,1.9242,-0.8661,-0.1407,-42.75,0.6875,16.0625,115.125,69.9375,148.6875,0
1776972108.222,5.8107,-3.2058,-3.814,1.9313,-0.3416,-1.6212,3.75,-34.95,-123.75,10.9176,0.8547,0.7853,2.0757,0.636,-1.3227,-82.2,27.45,-11.55,3.21,4.02,-7.46,1.9111,-0.8967,-0.3163,-42.75,0.6875,16.0625,113.75,69.5625,148.75,0
1776972108.227,5.6575,-5.7868,-4.0438,1.8458,-0.295,-1.8836,3.75,-34.95,-123.75,10.8745,0.7278,0.4812,2.0757,0.636,-1.3227,-82.2,27.45,-11.55,3.63,4.08,-7.6,1.9111,-0.8967,-0.3163,-42.75,0.6875,16.0625,112.5625,69.25,149.25,0
1776972108.236,5.0135,-6.7038,-4.6064,1.8639,-0.2761,-2.0781,0.0,-36.3,-126.0,10.8338,0.6488,0.5818,2.0771,0.6238,-1.3451,-82.2,27.45,-11.55,4.25,5.0,-7.36,1.789,-1.0472,-0.5585,-42.75,0.6875,16.0625,112.5625,69.25,149.25,0
1776972108.246,4.5586,-6.3207,-4.8985,1.9351,-0.1897,-2.1634,0.0,-32.55,-124.65,10.8625,0.7781,0.4932,2.0387,0.6241,-1.3536,-80.4,28.5,-12.15,4.49,5.03,-7.24,1.7421,-1.2097,-0.7832,-42.75,0.6875,16.0625,111.5,68.875,150.1875,0
1776972108.251,4.5586,-6.3207,-4.8985,1.9351,-0.1897,-2.1634,0.0,-32.55,-124.65,10.8625,0.7781,0.4932,1.9537,0.6099,-1.3744,-79.65,28.05,-12.45,4.49,5.03,-7.24,1.7421,-1.2097,-0.7832,-42.75,0.6875,16.0625,111.5,68.875,150.1875,0
1776972108.256,4.7645,-5.3079,-5.2409,1.962,-0.0184,-2.1837,-1.05,-31.5,-123.6,10.8074,1.1229,0.4429,1.9537,0.6099,-1.3744,-79.65,28.05,-12.45,4.85,4.93,-7.29,1.8042,-1.3494,-0.997,-47.1875,2.0625,18.0625,110.5,68.5,151.375,0
1776972108.261,4.7645,-5.3079,-5.2409,1.962,-0.0184,-2.1837,-1.05,-31.5,-123.6,10.8074,1.1229,0.4429,1.8882,0.5652,-1.3915,-80.4,29.25,-11.85,4.85,4.93,-7.29,1.8042,-1.3494,-0.997,-47.1875,2.0625,18.0625,110.5,68.5,151.375,0
1776972108.266,5.1787,-4.7669,-4.8387,1.8732,0.126,-2.2362,-2.85,-29.25,-123.6,10.4866,1.4437,0.2753,1.8197,0.5417,-1.3963,-80.4,29.25,-11.85,5.17,4.47,-7.29,1.9166,-1.5075,-1.2294,-47.1875,2.0625,18.0625,109.5,68.0625,152.8125,0
1776972108.271,5.1787,-4.7669,-4.8387,1.8732,0.126,-2.2362,-2.85,-29.25,-123.6,10.4866,1.4437,0.2753,1.8197,0.5417,-1.3963,-78.9,29.7,-12.9,5.17,4.47,-7.29,1.9831,-1.681,-1.4748,-47.1875,2.0625,18.0625,108.5625,67.625,154.5,0
1776972108.277,5.3295,-4.5633,-4.3551,1.7035,0.2084,-2.3419,-1.8,-29.55,-124.2,10.2951,1.6927,0.3831,1.7706,0.5452,-1.4194,-78.9,29.7,-12.9,5.15,3.12,-6.76,1.9831,-1.681,-1.4748,-47.1875,2.0625,18.0625,107.75,67.0625,156.5,0
1776972108.286,5.1116,-4.6112,-4.8387,1.5961,0.3544,-2.4981,-1.8,-29.55,-124.2,10.2376,1.7597,0.5507,1.7467,0.5425,-1.444,-79.65,31.2,-12.15,5.77,2.77,-6.73,1.9068,-1.801,-1.6755,-47.1875,2.0625,18.0625,107.75,67.0625,156.5,0
1776972108.296,5.6455,-4.5729,-5.0326,1.6108,0.5436,-2.6556,-4.95,-28.05,-122.55,10.1801,1.6664,0.6297,1.7099,0.5212,-1.4517,-78.0,31.05,-13.5,6.21,2.56,-6.72,1.7551,-1.9111,-1.8042,-47.1875,2.0625,18.0625,107.0625,66.5,158.625,0
1776972108.301,5.6455,-4.5729,-5.0326,1.6108,0.5436,-2.6556,-4.05,-25.95,-122.25,10.1801,1.6664,0.6297,1.7099,0.5212,-1.4517,-78.0,31.05,-13.5,6.21,2.56,-6.72,1.7551,-1.9111,-1.8042,-47.1875,2.0625,18.0625,107.0625,66.5,158.625,0
1776972108.306,6.2058,-4.4293,-5.0685,1.7613,0.6619,-2.7904,-4.05,-25.95,-122.25,10.0748,1.561,0.7039,1.6358,0.5055,-1.4583,-78.0,31.05,-13.5,6.37,2.64,-6.23,1.6417,-2.0311,-1.8653,-51.0625,2.75,25.5625,106.5,65.75,160.75,0
1776972108.311,6.2058,-4.4293,-5.0685,1.7613,0.6619,-2.7904,-6.45,-24.75,-121.35,10.0748,1.561,0.7039,1.6358,0.5055,-1.4583,-78.3,31.8,-14.25,6.37,2.64,-6.23,1.6417,-2.0311,-1.8653,-51.0625,2.75,25.5625,106.5,65.75,160.75,0
1776972108.316,6.8594,-4.3718,-4.47,1.8351,0.7685,-2.8791,-6.45,-24.75,-121.35,10.0533,1.6855,0.7518,1.5529,0.4967,-1.4392,-78.3,31.8,-14.25,6.38,2.62,-5.82,1.5893,-2.1118,-1.861,-51.0625,2.75,25.5625,106.0,65.0,162.8125,0
1776972108.322,7.2329,-4.6783,-4.1803,1.7144,0.752,-2.9223,-6.15,-24.0,-121.8,10.0533,1.6855,0.7518,1.5529,0.4967,-1.4392,-78.3,31.8,-14.25,6.8,2.73,-5.64,1.5523,-2.1304,-1.8315,-51.0625,2.75,25.5625,105.4375,64.125,164.75,0
1776972108.327,7.2329,-4.6783,-4.1803,1.7144,0.752,-2.9223,-6.15,-24.0,-121.8,9.9623,1.8052,0.6153,1.505,0.4871,-1.4248,-78.3,31.8,-14.25,6.8,2.73,-5.64,1.5523,-2.1304,-1.8315,-51.0625,2.75,25.5625,104.875,63.25,166.4375,0
1776972108.337,7.1682,-4.9536,-4.2114,1.6089,0.7218,-2.9804,-6.45,-23.55,-121.05,9.7588,1.6185,0.4645,1.5023,0.4834,-1.4029,-76.8,32.55,-14.55,8.33,3.39,-6.16,1.5119,-2.1424,-1.8271,-51.0625,2.75,25.5625,104.875,63.25,166.4375,0
1776972108.346,7.197,-5.1451,-4.3646,1.6302,0.8063,-3.0481,-6.45,-23.55,-121.05,9.6127,1.6616,0.2873,1.5119,0.4839,-1.38,-76.8,32.55,-15.6,9.32,3.84,-6.73,1.4813,-2.1184,-1.8871,-51.0625,2.75,25.5625,104.4375,62.3125,168.125,0
1776972108.351,7.2401,-5.0326,-4.6567,1.7616,0.9348,-3.1184,-9.15,-20.4,-119.85,9.6127,1.6616,0.2873,1.5119,0.4839,-1.38,-75.6,33.45,-15.6,9.32,3.84,-6.73,1.4813,-2.1184,-1.8871,-51.0625,2.75,25.5625,104.0,61.375,169.8125,0
1776972108.356,7.2401,-5.0326,-4.6567,1.7616,0.9348,-3.1184,-9.15,-20.4,-119.85,9.5265,1.7119,0.2083,1.5202,0.4911,-1.352,-75.6,33.45,-15.6,10.22,4.2,-7.2,1.4639,-2.1206,-2.0082,-50.875,0.6875,38.6875,104.0,61.375,169.8125,0
1776972108.361,7.501,-4.604,-4.7333,1.8676,1.0195,-3.1728,-8.85,-19.65,-119.4,9.5217,1.901,0.1963,1.5202,0.4911,-1.352,-74.85,34.95,-15.6,10.22,4.2,-7.2,1.4639,-2.1206,-2.0082,-50.875,0.6875,38.6875,104.0,61.375,169.8125,0
1776972108.366,7.501,-4.604,-4.7333,1.8676,1.0195,-3.1728,-8.85,-19.65,-119.4,9.5217,1.901,0.1963,1.534,0.4866,-1.3163,-74.85,34.95,-15.6,10.91,4.36,-7.44,1.4977,-2.2122,-2.1598,-50.875,0.6875,38.6875,103.625,60.375,171.4375,0
1776972108.371,7.7452,-4.5322,-4.6471,1.8764,1.0301,-3.2173,-9.6,-18.15,-118.8,9.4523,1.9201,0.0958,1.534,0.4866,-1.3163,-73.95,34.05,-16.95,10.91,4.36,-7.44,1.573,-2.3671,-2.3082,-50.875,0.6875,38.6875,103.1875,59.25,173.0625,0
1776972108.377,7.7452,-4.5322,-4.6471,1.8764,1.0301,-3.2173,-9.6,-18.15,-118.8,9.4523,1.9201,0.0958,1.5324,0.4828,-1.2801,-73.95,34.05,-16.95,10.75,4.0,-6.58,1.573,-2.3671,-2.3082,-50.875,0.6875,38.6875,102.75,58.0,174.5625,0
1776972108.387,7.7883,-4.4293,-4.5179,1.89,1.0251,-3.2564,-9.75,-16.5,-117.15,9.1842,2.0399,0.0886,1.5375,0.4719,-1.2625,-75.15,34.35,-18.0,10.46,3.48,-5.96,1.6559,-2.4947,-2.4282,-50.875,0.6875,38.6875,102.75,58.0,174.5625,0
1776972108.396,7.7859,-4.0941,-4.5083,1.9766,1.0619,-3.2799,-9.75,-16.5,-117.15,9.1195,2.0327,0.1437,1.5106,0.4783,-1.2119,-75.15,34.35,-18.0,10.36,3.12,-5.6,1.7039,-2.5384,-2.5155,-50.875,0.6875,38.6875,102.3125,56.6875,176.0,0
1776972108.401,7.9392,-4.0414,-4.6687,2.0478,1.1064,-3.31,-9.75,-16.5,-117.15,8.9447,2.2314,-0.0503,1.525,0.498,-1.149,-74.7,34.35,-17.4,10.36,3.12,-5.6,1.7039,-2.5384,-2.5155,-50.875,0.6875,38.6875,102.3125,56.6875,176.0,0
1776972108.406,7.9392,-4.0414,-4.6687,2.0478,1.1064,-3.31,-9.75,-16.5,-117.15,8.9447,2.2314,-0.0503,1.525,0.498,-1.149,-74.7,34.35,-17.4,10.62,2.95,-5.47,1.7071,-2.5165,-2.5493,-43.75,-1.0625,52.5625,101.875,55.375,177.25,0
1776972108.411,7.9727,-4.3359,-4.5921,1.9883,1.1277,-3.3089,-12.6,-12.0,-116.4,9.1051,2.2817,-0.2179,1.554,0.4663,-1.0701,-74.7,34.35,-17.4,10.62,2.95,-5.47,1.7071,-2.5165,-2.5493,-43.75,-1.0625,52.5625,101.875,55.375,177.25,0
1776972108.416,7.9727,-4.3359,-4.5921,1.9883,1.1277,-3.3089,-12.6,-12.0,-116.4,9.1051,2.2817,-0.2179,1.554,0.4663,-1.0701,-74.7,34.35,-17.4,10.81,3.0,-5.46,1.6821,-2.486,-2.546,-43.75,-1.0625,52.5625,101.375,54.0625,178.375,0
1776972108.423,8.2887,-4.6998,-4.379,1.9337,1.1365,-3.2775,-11.4,-9.45,-117.0,8.9878,2.4301,-0.3089,1.5873,0.4668,-0.9987,-73.2,36.3,-19.5,10.85,3.1,-5.34,1.6515,-2.4598,-2.522,-43.75,-1.0625,52.5625,100.9375,52.75,179.375,0
1776972108.428,8.5473,-4.9129,-4.2521,1.9303,1.1626,-3.2274,-11.4,-9.45,-117.0,8.9878,2.4301,-0.3089,1.5873,0.4668,-0.9987,-73.2,36.3,-19.5,10.85,3.1,-5.34,1.6515,-2.4598,-2.522,-43.75,-1.0625,52.5625,100.5,51.375,-179.625,0
1776972108.437,8.5473,-4.9129,-4.2521,1.9303,1.1626,-3.2274,-10.8,-8.25,-115.35,9.1219,2.3487,-0.3256,1.5905,0.4386,-0.9097,-72.45,36.75,-19.5,10.87,3.48,-5.14,1.6177,-2.4129,-2.5045,-43.75,-1.0625,52.5625,100.5,51.375,-179.625,0
1776972108.447,8.8825,-5.047,-4.221,1.9228,1.1628,-3.1912,-12.15,-8.4,-116.25,8.9783,2.466,-0.5315,1.5748,0.4112,-0.8303,-73.8,37.65,-19.8,11.47,3.81,-5.41,1.5784,-2.3322,-2.5013,-43.75,-1.0625,52.5625,100.0625,50.0625,-178.8125,0
1776972108.451,8.9519,-4.8052,-4.0821,1.9089,1.1548,-3.1562,-12.15,-8.4,-116.25,8.8753,2.7318,-0.6728,1.546,0.408,-0.7514,-72.9,36.3,-20.7,11.47,3.81,-5.41,1.5784,-2.3322,-2.5013,-43.75,-1.0625,52.5625,99.6875,48.8125,-178.0625,0
1776972108.456,8.9519,-4.8052,-4.0821,1.8652,1.1644,-3.1197,-12.15,-8.4,-116.25,8.8753,2.7318,-0.6728,1.546,0.408,-0.7514,-72.9,36.3,-20.7,12.45,4.35,-5.83,1.5326,-2.2329,-2.5482,-25.875,-0.5625,61.75,99.6875,48.8125,-178.0625,0
1776972108.461,8.8585,-4.3311,-4.0701,1.8652,1.1644,-3.1197,-12.15,-8.4,-116.25,8.7747,2.8084,-0.8092,1.4845,0.4189,-0.6811,-73.35,36.9,-22.35,12.45,4.35,-5.83,1.5326,-2.2329,-2.5482,-25.875,-0.5625,61.75,99.6875,48.8125,-178.0625,0
1776972108.466,8.7915,-3.8882,-3.802,1.8858,1.2148,-3.1067,-12.15,-8.4,-116.25,8.7747,2.8084,-0.8092,1.4845,0.4189,-0.6811,-73.35,36.9,-22.35,13.03,4.88,-5.99,1.5097,-2.1849,-2.6485,-25.875,-0.5625,61.75,99.375,47.5625,-177.3125,0
1776972108.471,8.7915,-3.8882,-3.802,1.8858,1.2148,-3.1067,-11.85,-3.0,-114.0,8.691,2.806,-0.8356,1.355,0.4455,-0.5953,-72.3,36.9,-21.6,13.03,4.88,-5.99,1.5795,-2.2384,-2.738,-25.875,-0.5625,61.75,99.0625,46.25,-176.625,0
1776972108.477,8.6598,-3.3615,-3.6895,1.9271,1.2833,-3.0859,-11.85,-3.0,-114.0,8.5114,3.3519,-0.7087,1.2729,0.4962,-0.5025,-72.3,36.9,-21.6,12.65,4.94,-5.29,1.5795,-2.2384,-2.738,-25.875,-0.5625,61.75,98.4375,44.875,-176.125,0
1776972108.487,8.5593,-3.0239,-3.5698,1.9217,1.3153,-3.0704,-11.4,-1.95,-114.15,8.4372,3.0287,-0.6728,1.2729,0.4962,-0.5025,-72.3,36.9,-21.6,12.22,4.55,-4.85,1.7421,-2.306,-2.7653,-25.875,-0.5625,61.75,98.4375,44.875,-176.125,0
1776972108.497,8.5377,-2.9999,-3.6464,1.9271,1.2873,-3.0331,-10.65,-0.15,-113.1,8.1858,2.8778,-0.7015,1.1671,0.5289,-0.3467,-71.7,37.95,-21.45,11.89,4.22,-4.61,1.897,-2.33,-2.7696,-25.875,-0.5625,61.75,88.875,43.4375,-175.8125,0
1776972108.502,8.5377,-2.9999,-3.6464,1.9271,1.2873,-3.0331,-12.45,2.4,-113.1,8.1858,2.8778,-0.7015,1.1671,0.5289,-0.3467,-71.7,37.95,-21.45,11.89,4.22,-4.61,1.897,-2.33,-2.7696,-25.875,-0.5625,61.75,86.9375,42.0625,-175.5625,0
1776972108.507,8.5186,-2.9113,-3.699,1.9769,1.2308,-3.0028,-12.45,2.4,-113.1,8.0709,2.7414,-0.7853,1.1823,0.5505,-0.2819,-71.7,37.95,-21.45,11.01,4.41,-4.1,1.9777,-2.3082,-2.798,-8.1875,1.1875,60.375,86.9375,42.0625,-175.5625,0
1776972108.511,8.5186,-2.9113,-3.699,1.9769,1.2308,-3.0028,-12.45,2.4,-113.1,8.0709,2.7414,-0.7853,1.1823,0.5505,-0.2819,-70.5,38.25,-23.7,11.01,4.41,-4.1,1.9777,-2.3082,-2.798,-8.1875,1.1875,60.375,86.9375,42.0625,-175.5625,0
