timestamp,thigh_acc_x,thigh_acc_y,thigh_acc_z,thigh_gyro_x,thigh_gyro_y,thigh_gyro_z,thigh_mag_x,thigh_mag_y,thigh_mag_z,shank_acc_x,shank_acc_y,shank_acc_z,shank_gyro_x,shank_gyro_y,shank_gyro_z,shank_mag_x,shank_mag_y,shank_mag_z,foot_acc_x,foot_acc_y,foot_acc_z,foot_gyro_x,foot_gyro_y,foot_gyro_z,foot_mag_x,foot_mag_y,foot_mag_z,foot_euler_x,foot_euler_y,foot_euler_z,perturbation_event
1776971766.292,2.162,2.4924,-9.4308,1.6968,1.0589,-0.5561,18.15,39.0,-242.85,10.9702,1.6951,1.0032,0.0083,0.1447,-1.5812,-76.2,-5.85,-26.55,1.87,4.92,-7.73,-0.24,-1.681,0.7756,-7.6875,24.75,-7.1875,311.1875,67.1875,122.1875,0
1776971766.297,2.3918,3.2896,-8.43,2.5985,1.3115,-0.6486,14.85,37.05,-239.4,10.9702,1.6951,1.0032,0.0083,0.1447,-1.5812,-76.2,-5.85,-26.55,1.55,4.03,-7.22,-0.1364,-1.6646,0.2258,-7.6875,24.75,-7.1875,310.8125,66.625,123.9375,0
1776971766.302,2.3918,3.2896,-8.43,2.5985,1.3115,-0.6486,14.85,37.05,-239.4,10.9056,2.466,0.5626,0.3134,0.2265,-1.5495,-76.5,-5.55,-25.65,1.55,4.03,-7.22,-0.2378,-1.6602,-0.3403,-7.6875,24.75,-7.1875,310.75,66.25,126.0,0
1776971766.308,2.2577,1.6616,-6.5793,2.8722,1.7427,-0.8324,13.05,39.75,-239.7,10.9056,2.466,0.5626,0.3134,0.2265,-1.5495,-76.5,-5.55,-25.65,1.85,4.15,-7.02,-0.2378,-1.6602,-0.3403,-7.6875,24.75,-7.1875,310.9375,66.0,128.5625,0
1776971766.317,3.5985,-0.2179,-3.9504,2.7973,1.6603,-1.0531,12.45,43.95,-238.5,10.7069,2.6097,0.2394,0.7805,0.3557,-1.4893,-76.65,-5.4,-25.05,2.18,4.3,-6.69,-0.2563,-1.7824,-0.8029,-7.6875,24.75,-7.1875,310.9375,66.0,128.5625,0
1776971766.327,3.9097,-2.3463,-2.3535,2.6961,1.4895,-1.3161,12.45,43.95,-238.5,10.2855,2.9975,-0.0048,1.1759,0.5489,-1.4181,-76.65,-5.4,-25.05,3.86,3.6,-6.68,-0.1254,-1.8599,-1.1465,-7.6875,24.75,-7.1875,311.25,65.8125,131.3125,0
1776971766.332,3.9097,-2.3463,-2.3535,2.6961,1.4895,-1.3161,12.45,43.95,-238.5,9.8545,3.2322,0.0263,1.5532,0.7368,-1.3259,-76.05,-3.6,-25.65,3.86,3.6,-6.68,-0.1254,-1.8599,-1.1465,-7.6875,24.75,-7.1875,311.5625,65.625,134.3125,0
1776971766.337,4.8363,-4.3096,-1.4796,2.6281,1.3646,-1.505,10.35,44.7,-237.3,9.8545,3.2322,0.0263,1.5532,0.7368,-1.3259,-76.05,-3.6,-25.65,4.3,2.79,-6.4,0.0436,-1.9886,-1.4726,-21.1875,36.6875,-8.875,311.5625,65.625,134.3125,0
1776971766.342,4.8363,-4.3096,-1.4796,2.6281,1.3646,-1.505,10.35,44.7,-237.3,9.7133,2.885,-0.1149,1.8719,0.8639,-1.2329,-76.05,-3.6,-25.65,4.3,2.79,-6.4,0.0436,-1.9886,-1.4726,-21.1875,36.6875,-8.875,311.5625,65.625,134.3125,0
1776971766.347,5.6336,-6.3255,-1.9728,2.5508,1.2377,-1.5836,12.3,40.5,-240.45,9.7133,2.885,-0.1149,1.8719,0.8639,-1.2329,-76.05,-3.6,-25.65,4.3,2.02,-6.09,0.1734,-2.1228,-1.8413,-21.1875,36.6875,-8.875,312.0,65.5,137.625,0
1776971766.352,5.6336,-6.3255,-1.9728,2.5508,1.2377,-1.5836,12.3,40.5,-240.45,9.6702,2.3367,-0.2227,2.0685,0.9387,-1.1636,-77.7,-3.0,-25.05,4.3,2.02,-6.09,0.3316,-2.2678,-2.2046,-21.1875,36.6875,-8.875,312.4375,65.375,141.3125,0
1776971766.358,5.7604,-7.2903,-3.8379,2.6939,1.263,-1.7816,12.75,37.65,-239.55,9.6582,1.6472,-0.1221,2.0709,0.9446,-1.1245,-77.7,-3.0,-25.05,4.28,1.41,-5.97,0.3316,-2.2678,-2.2046,-21.1875,36.6875,-8.875,313.0,65.125,145.125,0
1776971766.367,6.3949,-6.7732,-5.1667,2.6825,1.3011,-2.0054,12.75,35.4,-237.0,9.6151,1.2354,0.1413,1.9193,0.8657,-1.0853,-76.95,-2.7,-22.95,5.36,-0.05,-6.16,0.4941,-2.3213,-2.5187,-21.1875,36.6875,-8.875,313.0,65.125,145.125,0
1776971766.377,6.347,-5.4492,-5.3463,2.3846,1.3427,-2.2535,11.25,35.25,-235.35,9.3996,0.9002,0.012,1.6907,0.7592,-1.0709,-77.25,-2.85,-24.15,6.02,-0.85,-6.39,0.5945,-2.414,-2.7511,-21.1875,36.6875,-8.875,313.5625,64.875,149.125,0
1776971766.382,6.347,-5.4492,-5.3463,2.3846,1.3427,-2.2535,11.25,35.25,-235.35,9.3996,0.9002,0.012,1.6907,0.7592,-1.0709,-79.65,-2.7,-25.5,6.02,-0.85,-6.39,0.5945,-2.414,-2.7511,-21.1875,36.6875,-8.875,313.5625,64.875,149.125,0
1776971766.387,7.0701,-3.0789,-5.0446,2.023,1.4322,-2.5261,11.25,35.25,-235.35,9.0716,0.7614,-0.2203,1.4981,0.6283,-1.0864,-79.65,-2.7,-25.5,7.06,-1.61,-6.77,0.6,-2.4696,-2.8471,-42.375,47.75,-4.0625,314.25,64.4375,153.0625,0
1776971766.392,7.0701,-3.0789,-5.0446,2.023,1.4322,-2.5261,11.25,35.25,-235.35,9.0716,0.7614,-0.2203,1.4981,0.6283,-1.0864,-78.0,-2.1,-24.6,7.06,-1.61,-6.77,0.6,-2.4696,-2.8471,-42.375,47.75,-4.0625,314.25,64.4375,153.0625,0
1776971766.397,7.1754,-2.1069,-4.7477,1.7459,1.5199,-2.7275,9.0,27.3,-231.9,8.6383,0.8595,-0.3783,1.343,0.5111,-1.1418,-78.0,-2.1,-24.6,8.25,-2.31,-6.7,0.5792,-2.5242,-2.7903,-42.375,47.75,-4.0625,314.875,63.8125,156.875,0
1776971766.402,7.1754,-2.1069,-4.7477,1.7459,1.5199,-2.7275,9.0,27.3,-231.9,8.6383,0.8595,-0.3783,1.343,0.5111,-1.1418,-76.8,-4.05,-23.85,8.25,-2.31,-6.7,0.5127,-2.6027,-2.6224,-42.375,47.75,-4.0625,315.5,63.0,160.375,0
1776971766.408,7.0294,-2.7007,-4.1252,1.5926,1.6896,-2.8954,8.1,25.65,-232.05,8.8777,0.7997,-0.2394,1.1799,0.4549,-1.1463,-76.8,-4.05,-23.85,8.61,-2.16,-6.46,0.5127,-2.6027,-2.6224,-42.375,47.75,-4.0625,316.0625,62.0,163.4375,0
1776971766.417,7.5322,-3.1939,-4.2042,1.4687,1.8724,-2.9223,4.35,25.05,-232.95,9.1171,0.6823,-0.6919,1.1034,0.3565,-1.1261,-76.8,-4.05,-23.85,8.99,-1.67,-6.17,0.4222,-2.6376,-2.3966,-42.375,47.75,-4.0625,316.0625,62.0,163.4375,0
1776971766.427,7.9679,-3.201,-4.2952,1.3584,1.9417,-2.7795,1.8,27.3,-230.85,9.2225,0.8188,-0.9649,1.0352,0.2904,-1.1002,-78.15,-1.95,-24.75,9.43,-0.29,-5.75,0.3698,-2.642,-2.1838,-42.375,47.75,-4.0625,316.625,60.9375,166.0625,0
1776971766.432,7.9679,-3.201,-4.2952,1.3584,1.9417,-2.7795,1.8,27.3,-230.85,9.2225,0.8188,-0.9649,1.0352,0.2904,-1.1002,-78.15,-1.95,-24.75,9.43,-0.29,-5.75,0.3698,-2.642,-2.1838,-42.375,47.75,-4.0625,316.625,60.9375,166.0625,0
1776971766.437,8.2911,-3.0382,-4.1731,1.3246,1.9774,-2.6065,-0.15,27.45,-229.95,9.1937,1.0295,-1.2186,0.9934,0.2483,-1.0629,-78.15,-1.95,-24.75,10.09,0.08,-6.12,0.3752,-2.6104,-2.0202,-68.6875,49.0,16.75,317.0625,59.75,168.375,0
1776971766.442,8.588,-3.0454,-4.2114,1.2969,1.9271,-2.476,-0.15,27.45,-229.95,9.1937,1.0295,-1.2186,0.9934,0.2483,-1.0629,-78.9,-2.25,-24.3,10.09,0.08,-6.12,0.3752,-2.6104,-2.0202,-68.6875,49.0,16.75,317.0625,59.75,168.375,0
1776971766.447,8.588,-3.0454,-4.2114,1.2969,1.9271,-2.476,-0.15,27.45,-229.95,9.2344,1.4246,-1.2905,0.9944,0.2121,-1.0237,-78.9,-2.25,-24.3,10.74,0.33,-6.61,0.3982,-2.5373,-1.9253,-68.6875,49.0,16.75,317.5,58.5625,170.3125,0
1776971766.454,8.6957,-2.9688,-4.1204,1.2713,1.9105,-2.4118,-2.85,27.75,-229.35,9.1698,1.6281,-1.4269,0.9944,0.2121,-1.0237,-78.75,0.45,-24.6,11.26,0.41,-7.11,0.3742,-2.5307,-1.909,-68.6875,49.0,16.75,317.9375,57.3125,172.125,0
1776971766.459,8.6957,-2.9688,-4.1204,1.2713,1.9105,-2.4118,-2.85,27.75,-229.35,9.1698,1.6281,-1.4269,1.0147,0.1687,-0.9854,-78.75,0.45,-24.6,11.26,0.41,-7.11,0.3742,-2.5307,-1.909,-68.6875,49.0,16.75,318.5,56.0625,173.875,0
1776971766.468,8.6,-2.9616,-4.1587,1.2084,1.9316,-2.3995,-3.0,28.95,-229.2,9.1746,1.6975,-1.4317,0.9862,0.133,-0.9409,-78.75,-2.4,-24.6,11.7,0.55,-7.55,0.3185,-2.5678,-1.9439,-68.6875,49.0,16.75,319.125,54.6875,175.5,0
1776971766.478,8.4515,-3.2896,-3.8451,1.0259,1.9934,-2.4107,-4.95,29.25,-228.3,9.2464,1.7286,-1.3216,0.9126,0.0706,-0.8759,-79.8,-0.15,-24.15,11.54,0.76,-7.54,0.2738,-2.6616,-1.9788,-68.6875,49.0,16.75,319.125,54.6875,175.5,0
1776971766.482,8.2361,-3.6009,-3.7373,0.8823,2.064,-2.4237,-5.25,28.95,-228.3,9.1339,1.8076,-1.2689,0.9126,0.0706,-0.8759,-80.25,0.9,-26.7,11.54,0.76,-7.54,0.2738,-2.6616,-1.9788,-68.6875,49.0,16.75,319.8125,53.25,177.0,0
1776971766.487,8.2361,-3.6009,-3.7373,0.8823,2.064,-2.4237,-5.25,28.95,-228.75,9.1339,1.8076,-1.2689,0.8258,0.0434,-0.7962,-80.25,0.9,-26.7,11.37,0.93,-7.47,0.2618,-2.7663,-1.9853,-70.0625,37.6875,47.0,319.8125,53.25,177.0,0
1776971766.493,8.2217,-3.8355,-3.8259,0.7608,2.1442,-2.4339,-5.25,29.4,-228.75,9.2057,1.7334,-1.1564,0.7378,0.0285,-0.6944,-79.65,0.3,-24.0,11.37,0.93,-7.47,0.2618,-2.7663,-1.9853,-70.0625,37.6875,47.0,320.5,51.6875,178.375,0
1776971766.498,8.2217,-3.8355,-3.8259,0.7608,2.1442,-2.4339,-5.25,29.4,-228.75,9.2057,1.7334,-1.1564,0.7378,0.0285,-0.6944,-79.65,0.3,-24.0,10.68,1.15,-7.22,0.276,-2.8514,-1.9809,-70.0625,37.6875,47.0,320.5,51.6875,178.375,0
1776971766.503,8.2552,-3.8642,-3.6966,0.6813,2.2351,-2.4331,-5.25,29.4,-228.75,9.1626,1.8675,-1.2019,0.6837,0.0088,-0.5769,-79.65,0.3,-24.0,10.68,1.15,-7.22,0.2683,-2.9092,-1.9897,-70.0625,37.6875,47.0,321.25,50.0625,179.625,0
1776971766.508,8.2552,-3.8642,-3.6966,0.6813,2.2351,-2.4331,-5.25,29.4,-228.75,9.1626,1.8675,-1.2019,0.6837,0.0088,-0.5769,-79.65,0.3,-24.0,10.31,1.23,-7.14,0.2683,-2.9092,-1.9897,-70.0625,37.6875,47.0,322.0625,48.4375,-179.1875,0
1776971766.518,8.2887,-3.6105,-3.7565,0.6238,2.3486,-2.4488,-7.2,29.55,-227.55,9.098,1.8747,-1.2019,0.6478,-0.0072,-0.4594,-79.5,0.45,-26.1,10.01,1.35,-7.14,0.24,-2.9223,-2.006,-70.0625,37.6875,47.0,323.0,46.8125,-178.125,0
1776971766.528,8.406,-3.4357,-3.5554,0.5828,2.4714,-2.4928,-7.95,30.0,-226.5,8.9902,1.834,-1.2306,0.6174,-0.012,-0.3523,-79.5,0.45,-26.1,9.72,1.4,-7.14,0.2225,-2.906,-1.9951,-70.0625,37.6875,47.0,323.0,46.8125,-178.125,0
1776971766.532,8.6694,-3.1125,-3.1939,0.558,2.6092,-2.5274,-9.15,30.15,-225.6,8.9447,1.8914,-1.1995,0.5708,-0.0072,-0.2459,-79.8,0.45,-27.15,9.72,1.4,-7.14,0.2225,-2.906,-1.9951,-70.0625,37.6875,47.0,323.0,46.8125,-178.125,0
1776971766.538,8.6694,-3.1125,-3.1939,0.558,2.6092,-2.5274,-9.15,30.15,-225.6,8.9447,1.8914,-1.1995,0.5708,-0.0072,-0.2459,-79.8,0.45,-27.15,8.78,1.41,-6.81,0.2389,-2.8591,-1.9482,-50.0,27.0,54.0625,323.875,45.1875,-177.1875,0
1776971766.542,8.9759,-2.8299,-2.6815,0.5622,2.7512,-2.581,-10.95,31.2,-224.25,8.9615,1.6735,-1.2785,0.5076,0.0163,-0.1559,-79.8,0.45,-27.15,8.78,1.41,-6.81,0.2389,-2.8591,-1.9482,-50.0,27.0,54.0625,323.875,45.1875,-177.1875,0
1776971766.548,8.9759,-2.8299,-2.6815,0.5622,2.7512,-2.581,-10.95,31.2,-224.25,8.9615,1.6735,-1.2785,0.5076,0.0163,-0.1559,-78.75,1.35,-25.65,8.34,1.49,-6.56,0.2847,-2.762,-1.8599,-50.0,27.0,54.0625,317.375,43.625,-176.4375,0
1776971766.556,9.1554,-2.7078,-2.0542,0.5337,2.8514,-2.6145,-11.7,31.95,-223.8,8.8897,1.5538,-1.2091,0.4258,0.0525,-0.0706,-80.55,1.35,-24.9,8.49,1.44,-6.92,0.3414,-2.6027,-1.7366,-50.0,27.0,54.0625,316.375,42.125,-175.8125,0
1776971766.561,9.2584,-2.4828,-1.3791,0.5292,2.9084,-2.6265,-11.7,31.95,-223.8,8.7939,1.4006,-1.1444,0.3277,0.1005,0.008,-80.55,1.35,-24.9,8.49,1.44,-6.92,0.3414,-2.6027,-1.7366,-50.0,27.0,54.0625,315.4375,40.6875,-175.375,0
1776971766.568,9.5241,-1.9273,-0.7278,0.6051,2.9689,-2.6295,-11.7,31.95,-223.8,8.5449,1.3384,-1.0127,0.3277,0.1005,0.008,-80.55,0.15,-25.35,10.14,1.51,-8.36,0.3894,-2.4151,-1.6188,-50.0,27.0,54.0625,314.5625,39.4375,-175.0,0
1776971766.578,9.5122,-1.4988,-0.7183,0.6955,3.0361,-2.5628,-12.45,35.4,-220.65,8.1594,1.5347,-0.7853,0.2073,0.1668,0.0663,-79.5,1.35,-25.65,11.4,1.59,-9.36,0.4265,-2.2187,-1.501,-50.0,27.0,54.0625,314.5625,39.4375,-175.0,0
1776971766.583,9.5122,-1.4988,-0.7183,0.6955,3.0361,-2.5628,-11.7,36.15,-219.15,8.1594,1.5347,-0.7853,0.0626,0.2276,0.1351,-79.5,1.35,-25.65,11.4,1.59,-9.36,0.4265,-2.2187,-1.501,-50.0,27.0,54.0625,313.75,38.1875,-174.6875,0
1776971766.588,10.7667,-1.5586,-0.2466,0.8292,3.0872,-2.481,-11.7,36.15,-219.15,7.9344,1.6831,-0.486,0.0626,0.2276,0.1351,-80.1,1.5,-26.55,12.95,1.46,-10.34,0.4527,-2.1304,-1.3984,-43.0,27.0,46.1875,313.75,38.1875,-174.6875,0
1776971766.593,10.7667,-1.5586,-0.2466,0.8292,3.0872,-2.481,-12.6,40.05,-220.5,7.9344,1.6831,-0.486,-0.085,0.251,0.2102,-80.1,1.5,-26.55,12.95,1.46,-10.34,0.4527,-2.1304,-1.3984,-43.0,27.0,46.1875,313.0,36.875,-174.5,0
1776971766.598,11.71,-1.5179,0.012,0.8532,3.0502,-2.3784,-12.6,40.05,-220.5,7.7931,2.1668,-0.2586,-0.085,0.251,0.2102,-80.1,1.5,-26.55,13.98,0.68,-10.9,0.4734,-2.2046,-1.3221,-43.0,27.0,46.1875,313.0,36.875,-174.5,0
1776971766.602,11.71,-1.5179,0.012,0.8532,3.0502,-2.3784,-13.05,43.05,-219.45,7.7931,2.1668,-0.2586,-0.194,0.2649,0.2827,-80.1,1.5,-26.55,13.98,0.68,-10.9,0.4374,-2.4555,-1.2926,-43.0,27.0,46.1875,312.25,35.4375,-174.3125,0
1776971766.608,11.9088,-1.6137,0.5052,0.7839,2.9116,-2.294,-13.05,43.05,-219.45,7.8338,2.3559,-0.1317,-0.2609,0.2795,0.3416,-78.75,-0.45,-27.15,13.45,-0.05,-10.26,0.4374,-2.4555,-1.2926,-43.0,27.0,46.1875,311.5625,33.9375,-174.0625,0
1776971766.618,11.9806,-1.573,0.7207,0.6305,2.6891,-2.2295,-13.2,46.2,-219.6,7.8889,2.5762,-0.1341,-0.2603,0.271,0.3725,-78.75,-0.45,-27.15,12.94,-0.51,-9.5,0.2847,-2.6704,-1.2905,-43.0,27.0,46.1875,311.5625,33.9375,-174.0625,0
1776971766.628,11.5401,-1.4964,0.5698,0.3685,2.3553,-2.1272,-13.2,46.2,-219.6,8.0302,3.0382,-0.2682,-0.1695,0.2936,0.392,-78.45,-0.3,-25.8,12.28,-0.61,-8.62,0.0513,-2.7936,-1.3112,-43.0,27.0,46.1875,310.875,32.3125,-173.75,0
1776971766.632,11.5401,-1.4964,0.5698,0.3685,2.3553,-2.1272,-10.05,54.0,-221.1,8.0302,3.0382,-0.2682,-0.1695,0.2936,0.392,-78.45,-0.3,-25.8,12.28,-0.61,-8.62,0.0513,-2.7936,-1.3112,-43.0,27.0,46.1875,310.875,32.3125,-173.75,0
1776971766.637,12.0859,-1.6759,0.7614,0.1476,2.2098,-2.0059,-10.05,54.0,-221.1,8.2289,3.6536,-0.4956,-0.0192,0.2926,0.3858,-80.55,0.9,-25.65,11.43,-0.51,-7.17,-0.2225,-2.786,-1.3003,-52.0625,27.0625,50.0625,310.25,30.6875,-173.25,0
1776971766.642,12.0859,-1.6759,0.7614,0.1476,2.2098,-2.0059,-8.25,57.3,-221.85,8.2289,3.6536,-0.4956,-0.0192,0.2926,0.3858,-80.55,0.9,-25.65,11.43,-0.51,-7.17,-0.2225,-2.786,-1.3003,-52.0625,27.0625,50.0625,310.25,30.6875,-173.25,0
1776971766.647,11.6215,-1.9537,0.9816,-0.0938,2.0701,-1.8676,-8.25,57.3,-221.85,8.3366,4.288,-0.8308,0.149,0.2947,0.3592,-80.55,0.45,-26.4,11.06,-0.68,-6.67,-0.4254,-2.6878,-1.2435,-52.0625,27.0625,50.0625,309.75,29.125,-172.75,0
1776971766.655,10.5752,-2.2075,1.6975,-0.3738,2.0459,-1.7472,-6.45,61.8,-221.85,8.339,4.9775,-0.9529,0.149,0.2947,0.3592,-80.4,0.3,-27.75,10.63,-1.32,-6.21,-0.5443,-2.5395,-1.1443,-52.0625,27.0625,50.0625,309.25,27.625,-172.1875,0
1776971766.66,10.5752,-2.2075,1.6975,-0.3738,2.0459,-1.7472,-7.05,63.9,-221.7,8.339,4.9775,-0.9529,0.2332,0.3166,0.3211,-80.4,0.3,-27.75,10.63,-1.32,-6.21,-0.5443,-2.5395,-1.1443,-52.0625,27.0625,50.0625,308.875,26.25,-171.625,0
1776971766.668,9.56,-1.8364,1.7238,-0.6773,2.229,-1.6377,-7.05,63.9,-221.7,8.2073,5.6192,-0.9936,0.2222,0.3453,0.2622,-81.6,-1.05,-25.8,11.0,-3.13,-5.82,-0.6545,-2.3278,-1.0156,-52.0625,27.0625,50.0625,308.5625,25.0625,-171.0,0
1776971766.678,9.7061,-1.3934,1.6496,-1.0027,2.2639,-1.4613,-3.9,67.8,-222.9,8.0685,6.3135,-0.9218,0.1772,0.4,0.2004,-80.85,-1.05,-25.5,11.01,-3.92,-5.48,-0.8596,-2.1315,-0.8705,-52.0625,27.0625,50.0625,308.5625,25.0625,-171.0,0
1776971766.683,9.7061,-1.3934,1.6496,-1.0027,2.2639,-1.4613,-3.9,67.8,-222.9,8.0685,6.3135,-0.9218,0.1772,0.4,0.2004,-80.85,-1.05,-25.5,11.01,-3.92,-5.48,-0.8596,-2.1315,-0.8705,-44.5625,20.6875,61.25,308.4375,23.875,-170.3125,0
1776971766.688,10.1634,-1.4461,2.1404,-1.3475,2.2516,-1.2542,-3.9,67.8,-222.9,8.0972,6.754,-0.5626,0.1013,0.4626,0.1391,-80.85,-1.05,-25.5,10.71,-4.64,-4.86,-1.1421,-2.0082,-0.6665,-44.5625,20.6875,61.25,308.4375,23.875,-170.3125,0
1776971766.693,10.1634,-1.4461,2.1404,-1.3475,2.2516,-1.2542,-3.9,69.3,-218.7,8.0972,6.754,-0.5626,0.1013,0.4626,0.1391,-80.85,-1.05,-25.5,10.71,-4.64,-4.86,-1.1421,-2.0082,-0.6665,-44.5625,20.6875,61.25,308.4375,22.8125,-169.5,0
1776971766.698,10.6542,-1.9273,2.5809,-1.7102,2.0161,-1.0112,-3.9,69.3,-218.7,7.7596,6.8738,-0.1748,0.0149,0.5297,0.0821,-81.15,0.0,-25.5,9.48,-6.28,-3.19,-1.4224,-1.9133,-0.408,-44.5625,20.6875,61.25,308.4375,22.8125,-169.5,0
1776971766.703,10.6542,-1.9273,2.5809,-1.7102,2.0161,-1.0112,-4.5,72.15,-219.6,7.5561,6.79,-0.0646,0.0149,0.5297,0.0821,-81.15,0.0,-25.5,9.48,-6.28,-3.19,-1.7115,-1.7988,-0.1069,-44.5625,20.6875,61.25,308.6875,21.8125,-168.625,0
1776971766.709,11.4371,-1.8986,3.3399,-1.8892,1.7946,-0.6582,-3.6,72.0,-219.0,7.5561,6.79,-0.0646,0.0016,0.5897,0.0229,-81.15,0.0,-25.5,8.86,-7.03,-2.44,-1.7115,-1.7988,-0.1069,-44.5625,20.6875,61.25,309.125,20.9375,-167.625,0
1776971766.718,9.9982,-0.5435,3.6081,-2.1831,1.522,-0.3797,-3.6,72.0,-219.0,7.762,6.62,-0.2466,0.0107,0.64,-0.033,-80.1,-1.5,-25.05,8.53,-7.47,-1.56,-1.9973,-1.6253,0.2487,-44.5625,20.6875,61.25,309.8125,20.25,-166.625,0
1776971766.728,10.3669,0.3783,4.3431,-2.3715,1.19,-0.1623,-2.7,71.4,-219.15,8.0637,6.5577,-0.4357,-0.0117,0.6038,-0.0741,-81.0,-0.45,-24.15,8.29,-7.39,-0.77,-2.2144,-1.3963,0.6774,-44.5625,20.6875,61.25,309.8125,20.25,-166.625,0
1776971766.733,10.884,0.7757,3.6631,-2.3974,0.7005,0.0837,-2.7,71.4,-219.15,8.2361,6.3518,-0.5531,-0.045,0.5415,-0.118,-81.0,-0.45,-24.15,8.29,-7.39,-0.77,-2.2144,-1.3963,0.6774,-44.5625,20.6875,61.25,310.75,19.8125,-165.625,0
1776971766.738,10.884,0.7757,3.6631,-2.3974,0.7005,0.0837,-2.7,71.4,-219.15,8.2361,6.3518,-0.5531,-0.045,0.5415,-0.118,-81.6,-0.75,-25.05,8.17,-7.07,0.71,-2.2689,-1.1246,1.1639,-34.375,13.875,60.6875,310.75,19.8125,-165.625,0
1776971766.743,10.2783,1.0678,4.6735,-2.9031,1.1914,0.1039,-2.7,71.4,-219.15,8.2983,6.3734,-0.6656,-0.0813,0.522,-0.15,-81.6,-0.75,-25.05,8.17,-7.07,0.71,-2.2689,-1.1246,1.1639,-34.375,13.875,60.6875,311.9375,19.625,-164.75,0
1776971766.748,10.2783,1.0678,4.6735,-2.9031,1.1914,0.1039,-2.7,71.4,-219.15,8.2983,6.3734,-0.6656,-0.0813,0.522,-0.15,-81.6,-1.5,-26.25,8.45,-6.94,1.13,-2.222,-0.8279,1.6275,-34.375,13.875,60.6875,311.9375,19.625,-164.75,0
1776971766.757,10.0892,1.8866,1.3575,-2.7789,0.6323,0.2406,1.8,79.8,-218.7,8.2624,6.0597,-0.7015,-0.0831,0.4866,-0.1889,-81.75,-1.65,-24.9,8.68,-6.44,1.41,-2.1358,-0.5323,2.0093,-34.375,13.875,60.6875,313.3125,19.625,-164.0,0
1776971766.764,10.3717,2.4612,0.4405,-2.4075,0.4343,0.1916,0.0,86.25,-218.25,8.3414,5.6814,-0.8021,-0.044,0.4666,-0.1927,-81.75,-1.65,-24.9,8.68,-6.44,1.41,-2.0093,-0.2531,2.3115,-34.375,13.875,60.6875,314.8125,19.875,-163.3125,0
1776971766.769,10.3717,2.4612,0.4405,-2.4075,0.4343,0.1916,-0.9,89.4,-217.8,8.3414,5.6814,-0.8021,-0.044,0.4666,-0.1927,-81.75,-0.45,-26.4,8.51,-4.87,1.35,-2.0093,-0.2531,2.3115,-34.375,13.875,60.6875,316.4375,20.25,-162.8125,0
1776971766.778,10.8721,2.4756,0.0239,-2.4259,0.0544,0.2073,-1.5,92.4,-218.55,8.6766,5.3702,-0.8619,0.0679,0.433,-0.1759,-81.75,-0.45,-26.4,8.5,-4.07,0.9,-1.8097,0.0098,2.5842,-34.375,13.875,60.6875,316.4375,20.25,-162.8125,0
1776971766.783,11.4108,2.0638,-0.6321,-2.1922,-0.4996,0.3222,-1.5,92.4,-218.55,8.6311,4.9081,-0.8763,0.1279,0.3331,-0.1204,-81.75,-0.45,-26.4,8.5,-4.07,0.9,-1.8097,0.0098,2.5842,-34.375,13.875,60.6875,316.4375,20.25,-162.8125,0
1776971766.788,11.4108,2.0638,-0.6321,-2.1922,-0.4996,0.3222,-1.5,92.4,-218.55,8.6311,4.9081,-0.8763,0.1279,0.3331,-0.1204,-82.95,0.15,-25.35,8.65,-3.35,0.25,-1.6002,0.3262,2.8056,-28.1875,7.875,60.0625,318.125,20.875,-162.4375,0
1776971766.793,10.6303,1.652,-0.8835,-2.0201,-0.9864,0.4511,-1.5,92.4,-218.55,8.3749,4.6208,-0.8882,0.1601,0.3126,-0.0338,-82.95,0.15,-25.35,8.65,-3.35,0.25,-1.6002,0.3262,2.8056,-28.1875,7.875,60.0625,318.125,20.875,-162.4375,0
1776971766.798,10.6303,1.652,-0.8835,-2.0201,-0.9864,0.4511,-1.5,92.4,-218.55,8.3749,4.6208,-0.8882,0.1601,0.3126,-0.0338,-82.95,0.15,-25.35,9.13,-1.79,-1.25,-1.417,0.5018,2.9332,-28.1875,7.875,60.0625,319.8125,21.6875,-162.25,0
1776971766.803,10.4555,1.5969,-1.6352,-1.6915,-1.3571,0.5633,-1.5,92.4,-218.55,8.2241,4.3383,-0.9385,0.1956,0.336,0.0839,-82.95,0.15,-25.35,9.13,-1.79,-1.25,-1.2621,0.8301,2.9431,-28.1875,7.875,60.0625,321.5625,22.625,-162.125,0
1776971766.809,10.4555,1.5969,-1.6352,-1.6915,-1.3571,0.5633,-6.3,97.95,-223.8,7.8841,4.3622,-1.1205,0.1956,0.336,0.0839,-82.95,-1.35,-24.6,9.61,-0.85,-2.02,-1.2621,0.8301,2.9431,-28.1875,7.875,60.0625,323.1875,23.625,-162.0625,0
1776971766.818,9.7875,1.5802,-1.9034,-1.2905,-1.2987,0.6539,-8.1,102.15,-226.65,7.853,4.0797,-0.9864,0.2094,0.3419,0.2172,-83.1,-1.05,-25.05,9.95,0.06,-2.54,-1.1421,1.0636,2.8503,-28.1875,7.875,60.0625,324.6875,24.6875,-162.0625,0
1776971766.828,9.3278,1.8938,-2.2194,-1.1072,-1.3243,0.7805,-11.85,104.55,-227.25,7.7261,3.6871,-1.2761,0.1895,0.3491,0.3914,-82.5,-1.65,-24.6,10.31,0.76,-3.02,-0.9687,1.1454,2.6845,-28.1875,7.875,60.0625,324.6875,24.6875,-162.0625,0
1776971766.833,9.481,2.0734,-2.0638,-0.9566,-1.4051,0.8918,-11.85,104.55,-227.25,7.7261,3.6871,-1.2761,0.1687,0.3688,0.5793,-82.5,-1.65,-24.6,10.31,0.76,-3.02,-0.9687,1.1454,2.6845,-27.25,5.75,59.1875,326.0,25.75,-162.1875,0
1776971766.838,9.481,2.0734,-2.0638,-0.9566,-1.4051,0.8918,-14.1,108.0,-230.1,7.2449,3.5793,-1.4892,0.1964,0.3752,0.7466,-83.1,-1.5,-23.7,10.86,1.91,-3.82,-0.7527,1.1465,2.4227,-27.25,5.75,59.1875,326.0,25.75,-162.1875,0
1776971766.843,9.3805,2.2889,-1.9585,-0.6526,-1.6505,1.093,-14.1,108.0,-230.1,7.2449,3.5793,-1.4892,0.1964,0.3752,0.7466,-83.1,-1.5,-23.7,10.86,1.91,-3.82,-0.7527,1.1465,2.4227,-27.25,5.75,59.1875,327.125,26.6875,-162.3125,0
1776971766.849,9.6295,3.0789,-1.1684,-0.4836,-1.6976,1.2476,-14.1,108.0,-230.1,7.0485,3.2896,-1.4964,0.1737,0.3952,0.9278,-82.5,-1.65,-25.65,10.82,2.29,-3.85,-0.492,1.1366,2.0846,-27.25,5.75,59.1875,328.0,27.5,-162.5625,0
1776971766.858,9.2919,4.6424,0.1915,0.3288,-1.5969,1.2305,-14.1,108.0,-230.1,7.8985,3.1963,-1.2977,0.1649,0.4583,1.1277,-83.1,-3.0,-24.0,10.49,2.73,-3.83,-0.2083,1.0756,1.6755,-27.25,5.75,59.1875,328.625,28.1875,-163.0,0
1776971766.868,6.5242,7.4101,3.4333,1.497,-1.2897,0.9427,-16.65,114.0,-236.85,8.5281,3.2202,-1.0965,0.1167,0.5518,1.356,-83.1,-3.0,-24.0,4.26,14.22,-9.31,0.2367,0.8083,1.2752,-27.25,5.75,59.1875,328.625,28.1875,-163.0,0
1776971766.878,4.8674,10.8218,7.288,2.2372,-0.558,0.2401,-15.75,121.95,-240.15,10.3334,2.8874,-0.1508,-0.0655,0.7645,1.5679,-83.4,-2.7,-23.25,-13.95,9.64,-18.83,2.03,1.1356,1.9995,-27.25,5.75,59.1875,329.375,29.0625,-164.625,0
1776971766.883,4.8674,10.8218,7.288,2.2372,-0.558,0.2401,-15.75,121.95,-240.15,10.3334,2.8874,-0.1508,-0.0655,0.7645,1.5679,-83.4,-2.7,-23.25,-13.95,9.64,-18.83,2.03,1.1356,1.9995,-27.25,5.75,59.1875,329.375,29.0625,-164.625,0
1776971766.888,11.6933,15.2822,5.2433,2.5554,0.5039,-0.6286,-16.5,127.65,-242.4,12.7802,2.1931,0.723,-0.3262,0.8647,1.8298,-83.4,-2.7,-23.25,-2.12,13.05,-39.12,2.5929,0.6938,2.3595,-29.6875,5.0,60.5,330.25,29.75,-166.6875,0
1776971766.893,11.6933,15.2822,5.2433,2.5554,0.5039,-0.6286,-16.5,127.65,-242.4,12.7802,2.1931,0.723,-0.3262,0.8647,1.8298,-83.4,-2.7,-23.25,-2.12,13.05,-39.12,2.5929,0.6938,2.3595,-29.6875,5.0,60.5,330.25,29.75,-166.6875,0
1776971766.898,17.3388,11.2001,-3.79,2.3033,1.0547,-0.5143,-14.25,133.95,-243.45,15.2654,0.656,1.1396,-0.4005,0.8063,2.0587,-83.4,-5.4,-22.95,3.84,9.76,-14.48,1.9602,0.3458,1.2468,-29.6875,5.0,60.5,330.625,30.125,-168.1875,0
1776971766.903,17.3388,11.2001,-3.79,2.3033,1.0547,-0.5143,-14.25,133.95,-243.45,15.2654,0.656,1.1396,-0.4005,0.8063,2.0587,-83.4,-5.4,-22.95,3.84,9.76,-14.48,1.0036,1.7846,-0.0807,-29.6875,5.0,60.5,330.3125,31.0625,-168.5625,0
1776971766.909,21.148,0.8523,-9.0644,-0.2465,1.4424,-0.0941,-14.25,133.95,-243.45,19.4266,0.5148,-3.5291,0.6219,0.6646,2.347,-83.1,-6.15,-23.25,6.63,-1.59,-10.4,1.0036,1.7846,-0.0807,-29.6875,5.0,60.5,330.3125,33.25,-170.125,0
1776971766.918,22.1176,-3.7589,-2.7988,0.2164,0.6813,0.4644,-15.3,143.7,-247.65,19.5487,3.6583,-6.541,1.2281,0.1106,2.3222,-83.25,-8.4,-23.1,23.46,-14.1,-20.33,2.5525,3.8255,1.0101,-29.6875,5.0,60.5,330.3125,33.25,-170.125,0
1776971766.928,17.7075,-3.7206,-0.4357,2.0893,-0.3403,1.1804,-14.85,147.3,-247.2,13.7571,6.2106,-1.5778,0.1442,-0.1148,1.7059,-83.25,-9.45,-23.4,22.16,-15.09,-16.05,2.8547,2.0628,1.0548,-29.6875,5.0,60.5,330.3125,34.5,-171.9375,0
1776971766.933,17.7075,-3.7206,-0.4357,2.0893,-0.3403,1.1804,-14.85,147.3,-247.2,10.6063,4.0007,3.5434,0.1442,-0.1148,1.7059,-83.25,-9.45,-23.4,22.16,-15.09,-16.05,2.8547,2.0628,1.0548,-29.6875,5.0,60.5,330.3125,34.5,-171.9375,0
1776971766.938,10.5034,-2.7438,3.4548,2.4349,-0.6318,1.7925,-11.85,146.25,-248.55,10.6063,4.0007,3.5434,-0.5017,0.5921,1.1458,-83.1,-10.5,-22.2,9.26,3.73,-10.02,1.2075,1.2174,0.9632,-30.0625,9.5625,59.0,330.625,35.25,-172.9375,0
1776971766.943,10.5034,-2.7438,3.4548,2.4349,-0.6318,1.7925,-11.85,146.25,-248.55,8.8322,1.6424,3.9289,-0.5017,0.5921,1.1458,-83.1,-10.5,-22.2,9.26,3.73,-10.02,1.2075,1.2174,0.9632,-30.0625,9.5625,59.0,330.625,35.25,-172.9375,0
1776971766.948,5.9783,-0.5124,6.8738,2.6324,-0.9614,1.5791,-7.2,142.5,-250.05,8.8322,1.6424,3.9289,-0.1615,0.8247,0.9102,-83.4,-10.95,-21.75,10.44,-1.28,-11.18,0.2127,0.7429,0.3676,-30.0625,9.5625,59.0,330.75,35.625,-173.125,0
1776971766.956,5.7772,1.6879,4.9775,2.1162,-0.988,1.3443,-4.65,139.8,-249.0,7.58,-0.5028,3.7685,0.2625,0.6305,0.8402,-83.4,-10.95,-21.75,7.1,-4.39,-8.89,0.3851,0.9065,0.1004,-30.0625,9.5625,59.0,330.6875,36.1875,-173.375,0
1776971766.961,5.7772,1.6879,4.9775,2.1162,-0.988,1.3443,-4.65,139.8,-249.0,7.58,-0.5028,3.7685,0.2625,0.6305,0.8402,-83.4,-10.95,-21.75,7.1,-4.39,-8.89,0.3851,0.9065,0.1004,-30.0625,9.5625,59.0,330.6875,36.5,-173.3125,0
1776971766.969,7.4124,-0.395,6.3015,1.0291,-0.9222,1.3723,-4.65,139.8,-249.0,6.1938,-1.992,2.1524,0.6891,0.6222,0.8681,-83.7,-13.8,-19.8,5.68,1.89,-7.44,-0.0502,0.6316,-0.0665,-30.0625,9.5625,59.0,330.5625,37.0625,-173.1875,0
1776971766.978,7.4268,-3.1268,7.0653,0.7509,-0.7631,1.3139,3.75,129.45,-241.95,6.8761,-2.569,-0.1604,0.89,0.6718,0.8831,-83.7,-13.8,-19.8,6.06,2.97,-6.32,-0.0284,1.0025,-0.0873,-30.0625,9.5625,59.0,330.5625,37.0625,-173.1875,0
1776971766.983,7.4268,-3.1268,7.0653,0.7509,-0.7631,1.3139,3.75,129.45,-241.95,7.6399,-2.4852,-2.5762,0.6608,0.6965,0.8487,-83.7,-13.8,-19.8,6.06,2.97,-6.32,-0.0284,1.0025,-0.0873,-30.0625,9.5625,59.0,330.5625,37.4375,-173.3125,0
1776971766.988,7.9918,-4.9033,6.9887,0.283,-0.6011,1.2239,5.25,120.45,-240.15,7.6399,-2.4852,-2.5762,0.6608,0.6965,0.8487,-83.1,-12.9,-19.5,6.31,2.52,-6.47,0.2738,0.6959,0.0305,-33.6875,13.0625,55.5625,330.5625,37.4375,-173.3125,0
1776971766.993,9.2201,-4.3383,5.2433,-0.1023,-0.4663,1.0914,5.25,120.45,-240.15,9.0764,-1.5083,-4.4796,0.0448,0.5662,0.8037,-83.1,-12.9,-19.5,6.31,2.52,-6.47,0.2738,0.6959,0.0305,-33.6875,13.0625,55.5625,330.5625,37.3125,-173.6875,0
1776971766.998,9.2201,-4.3383,5.2433,-0.1023,-0.4663,1.0914,8.1,110.4,-236.7,9.0764,-1.5083,-4.4796,0.0448,0.5662,0.8037,-82.95,-15.75,-17.1,5.62,1.35,-7.93,0.4843,-0.228,0.2302,-33.6875,13.0625,55.5625,330.5625,37.3125,-173.6875,0
1776971767.003,9.8114,-2.9975,2.9161,-0.1772,-0.5828,0.9859,9.0,97.8,-232.2,9.8019,-0.7422,-4.3,-0.8079,0.3392,0.7679,-82.95,-15.75,-17.1,5.62,1.35,-7.93,0.3665,-0.5083,0.3829,-33.6875,13.0625,55.5625,330.75,37.0625,-174.0625,0
1776971767.009,9.8114,-2.9975,2.9161,-0.1772,-0.5828,0.9859,9.0,97.8,-232.2,9.8019,-0.7422,-4.3,-0.8079,0.3392,0.7679,-82.95,-14.55,-18.3,4.75,-0.49,-8.81,0.3665,-0.5083,0.3829,-33.6875,13.0625,55.5625,330.875,37.0625,-174.1875,0
1776971767.018,9.9024,-1.9465,-0.2274,-0.7416,-0.7474,0.8796,9.75,89.25,-228.3,9.9168,-0.4645,-1.9345,-1.5034,0.1889,0.752,-83.4,-14.85,-19.95,5.54,0.2,-8.17,0.0251,-0.0295,0.2673,-33.6875,13.0625,55.5625,331.0,37.375,-174.3125,0
1776971767.029,10.161,-0.1006,-1.9058,-0.8196,-0.392,0.6755,9.75,89.25,-228.3,9.9527,-0.146,0.8619,-1.8157,0.1692,0.7141,-84.0,-15.75,-19.35,6.31,0.4,-8.13,-0.0065,0.5072,0.2454,-33.6875,13.0625,55.5625,331.0,37.375,-174.3125,0
1776971767.033,10.0652,0.9122,-2.5091,-0.6331,-0.1324,0.5231,7.5,73.05,-225.75,9.5529,0.1508,3.0574,-1.797,0.1908,0.6947,-84.0,-15.75,-19.35,6.31,0.4,-8.13,-0.0065,0.5072,0.2454,-33.6875,13.0625,55.5625,331.0625,37.6875,-174.4375,0
1776971767.038,10.0652,0.9122,-2.5091,-0.6331,-0.1324,0.5231,7.5,73.05,-225.75,9.5529,0.1508,3.0574,-1.797,0.1908,0.6947,-82.5,-15.0,-18.6,6.2,-0.33,-8.5,0.1505,0.5258,0.2345,-35.0625,13.5,54.75,331.0625,37.6875,-174.4375,0
1776971767.043,9.3158,0.4046,-2.4828,-0.2832,0.033,0.3011,2.7,72.9,-224.55,9.3206,-0.067,4.1132,-1.537,0.2196,0.6704,-82.5,-15.0,-18.6,6.2,-0.33,-8.5,0.1505,0.5258,0.2345,-35.0625,13.5,54.75,331.125,37.875,-174.6875,0
1776971767.048,9.3158,0.4046,-2.4828,-0.2832,0.033,0.3011,2.7,72.9,-224.55,9.0453,-0.3256,3.9409,-1.537,0.2196,0.6704,-82.5,-15.0,-18.6,6.11,-0.39,-8.31,0.3207,0.4123,0.2073,-35.0625,13.5,54.75,331.125,37.875,-174.6875,0
1776971767.057,8.9232,0.723,-2.0423,0.1569,0.288,0.1466,-2.85,73.8,-225.15,9.0453,-0.3256,3.9409,-1.2454,0.2795,0.66,-82.5,-15.0,-18.6,6.31,0.13,-8.07,0.552,0.697,0.108,-35.0625,13.5,54.75,331.0625,38.3125,-175.0,0
1776971767.061,11.066,0.8763,3.0837,0.3944,0.1791,0.1849,-2.85,73.8,-225.15,8.8107,0.0335,3.0574,-0.9806,0.2811,0.6694,-82.5,-16.95,-19.8,6.31,0.13,-8.07,0.552,0.697,0.108,-35.0625,13.5,54.75,330.9375,38.8125,-175.3125,0
1776971767.069,11.066,0.8763,3.0837,0.3944,0.1791,0.1849,-9.0,80.55,-226.2,9.1315,-0.1269,1.9968,-0.6829,0.2465,0.6803,-82.5,-16.95,-19.8,6.95,0.18,-7.54,0.6109,0.9948,0.0044,-35.0625,13.5,54.75,330.8125,39.375,-175.5,0
1776971767.079,8.6407,0.7302,0.5411,0.785,0.2326,0.1895,-14.25,87.9,-226.65,9.2105,-1.0008,1.1349,-0.4511,0.3075,0.6765,-84.15,-17.1,-18.75,7.03,0.29,-7.42,0.3665,1.0134,-0.0371,-35.0625,13.5,54.75,330.8125,39.375,-175.5,0
1776971767.084,8.7293,-1.1708,2.6528,1.0443,-0.0616,0.3427,-14.25,87.9,-226.65,9.2105,-1.0008,1.1349,-0.4511,0.3075,0.6765,-84.15,-17.1,-18.75,7.03,0.29,-7.42,0.3665,1.0134,-0.0371,-35.0625,13.5,54.75,330.8125,39.375,-175.5,0
1776971767.089,8.7293,-1.1708,2.6528,1.0443,-0.0616,0.3427,-14.25,87.9,-226.65,9.5529,-1.4437,0.8236,-0.3741,0.3834,0.6416,-81.3,-18.45,-21.15,6.94,0.2,-7.44,0.1669,0.6523,-0.0251,-34.375,13.25,55.0625,330.75,39.75,-175.5625,0
1776971767.094,9.6438,-2.4995,3.9552,0.8982,-0.3632,0.5998,-18.75,102.3,-231.15,9.5529,-1.4437,0.8236,-0.3741,0.3834,0.6416,-81.3,-18.45,-21.15,6.94,0.2,-7.44,0.1669,0.6523,-0.0251,-34.375,13.25,55.0625,330.75,39.75,-175.5625,0
1776971767.099,9.6438,-2.4995,3.9552,0.8982,-0.3632,0.5998,-18.75,102.3,-231.15,9.7181,-1.2522,1.324,-0.3062,0.4255,0.5833,-82.35,-17.1,-21.75,6.58,0.14,-7.76,0.1418,0.2018,-0.0044,-34.375,13.25,55.0625,330.75,39.875,-175.625,0
1776971767.104,9.0477,-3.4141,4.6543,0.5337,-0.2198,0.7767,-17.55,103.2,-233.85,9.7181,-1.2522,1.324,-0.3062,0.4255,0.5833,-82.35,-17.1,-21.75,6.58,0.14,-7.76,0.1102,0.0382,-0.0022,-34.375,13.25,55.0625,330.6875,39.875,-175.6875,0
1776971767.109,9.9168,-3.5099,4.968,0.0733,-0.2249,0.9297,-17.55,103.2,-233.85,9.3206,-0.4573,2.4157,-0.2033,0.5151,0.4938,-81.3,-17.7,-20.55,6.21,0.26,-7.76,0.1102,0.0382,-0.0022,-34.375,13.25,55.0625,330.6875,39.9375,-175.6875,0
1776971767.119,9.9168,-3.5099,4.968,0.0733,-0.2249,0.9297,-14.7,104.4,-232.35,9.5193,0.498,3.0526,-0.1156,0.5476,0.4125,-83.25,-19.65,-20.85,6.14,0.3,-7.66,0.0807,0.1178,-0.024,-34.375,13.25,55.0625,330.625,40.0625,-175.75,0
1776971767.129,9.2799,-3.5554,3.1699,-0.6792,-0.3925,1.0592,-6.9,98.55,-233.25,9.6582,0.7733,3.0789,-0.0378,0.5057,0.3387,-83.1,-17.55,-19.5,6.12,0.36,-7.68,0.096,0.2029,-0.0295,-34.375,13.25,55.0625,330.625,40.0625,-175.75,0
1776971767.134,9.2799,-3.5554,3.1699,-0.6792,-0.3925,1.0592,-3.6,93.0,-235.05,9.6582,0.7733,3.0789,-0.0378,0.5057,0.3387,-83.1,-17.55,-19.5,6.12,0.36,-7.68,0.096,0.2029,-0.0295,-34.375,13.25,55.0625,330.5625,40.25,-175.75,0
1776971767.139,9.7707,-2.9473,2.7749,-0.7322,-0.307,1.0222,-3.6,93.0,-235.05,9.402,0.5076,3.0718,-0.008,0.5121,0.2936,-83.1,-17.55,-19.5,6.4,0.49,-7.5,0.1156,0.3011,-0.0436,-36.0625,14.875,52.6875,330.5625,40.25,-175.75,0
1776971767.144,9.7707,-2.9473,2.7749,-0.7322,-0.307,1.0222,-3.6,93.0,-235.05,9.402,0.5076,3.0718,-0.008,0.5121,0.2936,-83.1,-17.55,-19.5,6.4,0.49,-7.5,0.1156,0.3011,-0.0436,-36.0625,14.875,52.6875,330.5,40.4375,-175.75,0
1776971767.149,9.8928,-2.217,1.834,-0.6707,-0.4066,0.9515,-3.6,93.0,-235.05,9.4954,-0.0814,2.7916,-0.0304,0.5263,0.2443,-81.75,-20.4,-19.35,6.67,0.44,-7.25,0.0698,0.3971,-0.0611,-36.0625,14.875,52.6875,330.5,40.4375,-175.75,0
1776971767.158,9.9024,-1.3647,0.9457,-0.7285,-0.336,0.7674,2.85,86.55,-231.45,9.4379,-0.5339,2.2649,-0.0829,0.4954,0.2132,-81.75,-20.4,-19.35,6.38,0.28,-7.55,0.0065,0.24,-0.0011,-36.0625,14.875,52.6875,330.5,40.5625,-175.75,0
1776971767.166,9.9024,-1.3647,0.9457,-0.7285,-0.336,0.7674,4.5,85.95,-231.3,9.7707,-0.9266,1.7238,-0.1588,0.3981,0.1977,-81.75,-20.4,-19.35,6.35,0.26,-7.56,-0.0295,-0.0305,0.0447,-36.0625,14.875,52.6875,330.5625,40.5625,-175.75,0
1776971767.171,9.833,-0.9218,0.4286,-0.6686,-0.2699,0.5465,5.4,85.5,-228.3,9.7707,-0.9266,1.7238,-0.1588,0.3981,0.1977,-82.95,-18.9,-20.1,6.35,0.26,-7.56,-0.0295,-0.0305,0.0447,-36.0625,14.875,52.6875,330.625,40.5625,-175.8125,0
1776971767.179,9.675,-1.1109,0.4693,-0.5377,-0.1021,0.3168,5.4,85.5,-228.3,9.742,-0.589,0.8978,-0.2843,0.3981,0.2012,-83.4,-19.95,-19.5,6.33,0.21,-7.63,-0.0185,-0.0404,0.0644,-36.0625,14.875,52.6875,330.625,40.5625,-175.8125,0
1776971767.184,9.675,-1.1109,0.4693,-0.5377,-0.1021,0.3168,3.0,84.15,-229.95,9.6893,-0.3974,0.3687,-0.4354,0.3192,0.2121,-83.4,-19.95,-19.5,6.33,0.21,-7.63,-0.0185,-0.0404,0.0644,-36.0625,14.875,52.6875,330.625,40.5625,-175.8125,0
1776971767.189,9.5672,-0.7949,0.7805,-0.4914,-0.032,0.1727,3.0,84.15,-229.95,9.6893,-0.3974,0.3687,-0.4354,0.3192,0.2121,-82.5,-19.65,-19.35,6.34,0.37,-7.41,-0.0153,-0.0109,0.0425,-36.0625,14.5,53.875,330.625,40.5625,-175.8125,0
1776971767.194,9.5672,-0.7949,0.7805,-0.4914,-0.032,0.1727,-0.15,85.2,-227.7,9.5481,-0.2873,0.2394,-0.7285,0.2761,0.2417,-82.5,-19.65,-19.35,6.34,0.37,-7.41,-0.0153,-0.0109,0.0425,-36.0625,14.5,53.875,330.625,40.5625,-175.8125,0
1776971767.199,9.5624,-0.7398,0.7446,-0.5004,0.0839,0.1127,-0.15,85.2,-227.7,9.5481,-0.2873,0.2394,-0.7285,0.2761,0.2417,-84.0,-19.35,-17.55,6.37,0.17,-7.63,-0.0153,-0.0109,0.0425,-36.0625,14.5,53.875,330.6875,40.5,-175.875,0
1776971767.204,9.5624,-0.7398,0.7446,-0.5004,0.0839,0.1127,-0.15,85.2,-227.7,9.4834,-0.3807,0.3543,-1.0882,0.2348,0.2622,-84.0,-19.35,-17.55,6.37,0.17,-7.63,-0.0218,-0.036,0.0295,-36.0625,14.5,53.875,330.6875,40.5,-175.875,0
1776971767.21,9.2512,-0.7901,0.8499,-0.5268,-0.0333,0.1223,-4.5,84.45,-231.0,9.4834,-0.3807,0.3543,-1.0882,0.2348,0.2622,-81.9,-19.95,-18.45,6.2,0.37,-7.6,-0.0218,-0.036,0.0295,-36.0625,14.5,53.875,330.6875,40.5,-175.875,0
1776971767.219,9.1123,-1.2163,0.8859,-0.5204,-0.1007,0.1911,-4.5,84.45,-231.0,9.4475,-0.4286,0.7757,-1.4141,0.1943,0.2766,-81.75,-19.95,-18.45,6.13,0.33,-7.58,-0.0698,0.0425,0.0076,-36.0625,14.5,53.875,330.6875,40.5,-175.875,0
1776971767.223,9.1123,-1.2163,0.8859,-0.5204,-0.1007,0.1911,-7.95,82.05,-232.95,9.335,-0.5004,1.3455,-1.6308,0.1743,0.2904,-81.75,-20.85,-20.1,6.13,0.33,-7.58,-0.1047,0.0175,0.0087,-36.0625,14.5,53.875,330.75,40.5,-175.8125,0
1776971767.23,9.0764,-1.7669,0.5938,-0.5049,-0.1114,0.2747,-8.4,82.65,-232.05,9.335,-0.5004,1.3455,-1.6308,0.1743,0.2904,-81.75,-20.85,-20.1,6.36,0.3,-7.4,-0.1047,0.0175,0.0087,-36.0625,14.5,53.875,330.75,40.5,-175.8125,0
1776971767.235,9.0764,-1.7669,0.5938,-0.5049,-0.1114,0.2747,-8.4,82.65,-232.05,9.3374,-0.5531,1.9944,-1.6766,0.1532,0.3024,-81.75,-20.85,-20.1,6.36,0.3,-7.4,-0.1047,0.0175,0.0087,-36.75,14.5,53.1875,330.75,40.5,-175.75,0
1776971767.24,9.2775,-2.411,0.6345,-0.5553,-0.1463,0.3667,-9.15,84.45,-233.1,9.3374,-0.5531,1.9944,-1.6766,0.1532,0.3024,-81.75,-20.85,-19.35,6.24,0.37,-7.43,-0.1756,0.0142,0.0076,-36.75,14.5,53.1875,330.75,40.5,-175.75,0
1776971767.245,9.2775,-2.411,0.6345,-0.6368,-0.2374,0.4874,-9.15,84.45,-233.1,9.3613,-0.4764,2.3918,-1.5886,0.1175,0.2923,-81.75,-20.85,-19.35,6.24,0.37,-7.43,-0.1756,0.0142,0.0076,-36.75,14.5,53.1875,330.8125,40.5,-175.625,0
1776971767.25,9.3637,-2.2075,0.565,-0.6368,-0.2374,0.4874,-9.15,84.45,-233.1,9.3613,-0.4764,2.3918,-1.5886,0.1175,0.2923,-81.75,-20.85,-19.35,6.38,0.31,-7.48,-0.1745,-0.0185,0.0022,-36.75,14.5,53.1875,330.8125,40.5,-175.625,0
1776971767.254,9.2656,-1.9441,0.8787,-0.6928,-0.1943,0.566,-9.15,84.45,-233.1,9.4092,-0.2107,2.6193,-1.453,0.1194,0.2958,-81.75,-20.85,-19.35,6.38,0.31,-7.48,-0.1767,-0.0654,-0.0011,-36.75,14.5,53.1875,330.875,40.4375,-175.5625,0
1776971767.26,9.2656,-1.9441,0.8787,-0.6928,-0.1943,0.566,-9.15,84.45,-233.1,9.3996,0.1053,2.7557,-1.453,0.1194,0.2958,-81.6,-20.25,-21.0,6.28,0.41,-7.45,-0.1767,-0.0654,-0.0011,-36.75,14.5,53.1875,330.875,40.4375,-175.5625,0
1776971767.269,9.2751,-1.7621,0.9553,-0.7306,-0.0935,0.5966,-7.95,81.75,-235.05,9.3996,0.1053,2.7557,-1.2748,0.1306,0.2803,-81.6,-20.25,-21.0,6.23,0.4,-7.57,-0.1418,-0.036,0.0022,-36.75,14.5,53.1875,330.875,40.4375,-175.5,0
1776971767.275,9.5217,-1.8076,1.0511,-0.7618,0.0075,0.591,-7.95,81.75,-235.05,9.3637,0.2921,2.7725,-1.0714,0.1705,0.2563,-81.9,-21.9,-20.7,6.23,0.4,-7.57,-0.0611,0.0262,-0.0044,-36.75,14.5,53.1875,330.875,40.4375,-175.5,0
1776971767.28,9.5217,-1.8076,1.0511,-0.7618,0.0075,0.591,-4.95,81.3,-233.25,9.3972,0.2466,2.6504,-0.8804,0.2268,0.2422,-82.35,-20.7,-20.25,6.11,0.44,-7.51,-0.0611,0.0262,-0.0044,-36.75,14.5,53.1875,330.875,40.4375,-175.5,0
1776971767.285,9.5289,-1.6975,1.0702,-0.7986,0.0554,0.5558,-4.95,81.3,-233.25,9.3972,0.2466,2.6504,-0.8804,0.2268,0.2422,-82.35,-20.7,-20.25,6.11,0.44,-7.51,-0.0076,0.0982,-0.0055,-36.375,14.5,53.1875,330.875,40.5,-175.5,0
1776971767.29,9.5289,-1.6975,1.0702,-0.7986,0.0554,0.5558,-4.05,81.9,-234.45,9.4715,0.261,2.3296,-0.7288,0.2968,0.2334,-82.5,-20.85,-20.55,6.15,0.52,-7.54,-0.0076,0.0982,-0.0055,-36.375,14.5,53.1875,330.875,40.5,-175.5,0
1776971767.295,9.6702,-1.3791,0.9649,-0.6592,0.085,0.4852,-4.05,81.9,-234.45,9.4715,0.261,2.3296,-0.7288,0.2968,0.2334,-82.5,-20.85,-20.55,6.15,0.52,-7.54,-0.0065,0.1364,0.0,-36.375,14.5,53.1875,330.875,40.5625,-175.5,0
1776971767.3,9.6702,-1.3791,0.9649,-0.6592,0.085,0.4852,-5.25,82.2,-233.4,9.6175,0.0958,2.0542,-0.6113,0.3259,0.2289,-81.6,-22.2,-21.0,6.19,0.42,-7.43,-0.0065,0.1364,0.0,-36.375,14.5,53.1875,330.875,40.5625,-175.5,0
1776971767.305,9.7683,-1.0175,0.984,-0.551,0.0432,0.4056,-5.25,82.2,-233.4,9.6175,0.0958,2.0542,-0.6113,0.3259,0.2289,-81.6,-22.2,-21.0,6.19,0.42,-7.43,-0.0251,0.1451,0.0153,-36.375,14.5,53.1875,330.9375,40.625,-175.5,0
1776971767.31,9.7683,-1.0175,0.984,-0.551,0.0432,0.4056,-5.25,82.2,-233.4,9.7181,-0.0455,1.6496,-0.5526,0.3214,0.206,-80.55,-22.05,-20.85,5.93,0.45,-7.52,-0.0251,0.1451,0.0153,-36.375,14.5,53.1875,330.9375,40.625,-175.5,0
1776971767.319,9.9647,-1.0822,1.1684,-0.5494,0.0298,0.3616,-5.25,82.2,-233.4,9.7851,-0.2035,1.3575,-0.5622,0.2904,0.19,-80.55,-22.05,-20.85,6.16,0.42,-7.49,-0.0295,0.1898,0.0185,-36.375,14.5,53.1875,330.9375,40.75,-175.5,0
1776971767.323,9.9503,-1.3791,1.1923,-0.6043,-0.1013,0.3333,-5.25,82.2,-233.4,9.7851,-0.2035,1.3575,-0.5622,0.2904,0.19,-80.55,-22.05,-20.85,6.16,0.42,-7.49,-0.0196,0.2236,0.0087,-36.375,14.5,53.1875,330.9375,40.8125,-175.5,0
1776971767.33,9.9503,-1.3791,1.1923,-0.6043,-0.1013,0.3333,-3.9,79.8,-233.7,9.7947,-0.2777,1.0415,-0.6699,0.2478,0.1791,-81.15,-22.2,-20.25,6.27,0.38,-7.54,-0.0196,0.2236,0.0087,-36.375,14.5,53.1875,330.9375,40.8125,-175.5,0
1776971767.335,9.7923,-1.7406,1.1851,-0.5761,-0.1879,0.3187,-3.9,79.8,-233.7,9.7947,-0.2777,1.0415,-0.6699,0.2478,0.1791,-81.15,-22.2,-20.25,6.15,0.48,-7.43,-0.0164,0.2531,-0.0098,-36.6875,14.875,53.1875,330.9375,40.9375,-175.4375,0
1776971767.34,9.7923,-1.7406,1.1851,-0.5761,-0.1879,0.3187,-5.85,79.2,-234.9,9.7181,-0.4022,0.9361,-0.8423,0.2001,0.1601,-81.15,-22.2,-20.25,6.15,0.48,-7.43,-0.0164,0.2531,-0.0098,-36.6875,14.875,53.1875,330.9375,40.9375,-175.4375,0
1776971767.345,9.7252,-2.1548,1.1468,-0.5862,-0.2598,0.3315,-5.85,79.2,-234.9,9.7181,-0.4022,0.9361,-0.8423,0.2001,0.1601,-81.15,-22.2,-20.25,6.15,0.48,-7.43,-0.0425,0.2825,-0.0153,-36.6875,14.875,53.1875,330.9375,41.125,-175.4375,0
1776971767.35,9.7252,-2.1548,1.1468,-0.5862,-0.2598,0.3315,-5.55,78.9,-234.9,9.7923,-0.4525,1.0942,-1.0507,0.1599,0.1617,-82.2,-21.6,-20.55,6.32,0.33,-7.47,-0.0425,0.2825,-0.0153,-36.6875,14.875,53.1875,330.9375,41.125,-175.4375,0
1776971767.355,9.8809,-2.5091,0.9361,-0.7112,-0.2563,0.3741,-5.55,78.9,-234.9,9.7923,-0.4525,1.0942,-1.0507,0.1599,0.1617,-82.2,-21.6,-20.55,6.32,0.33,-7.47,-0.0491,0.3011,-0.0382,-36.6875,14.875,53.1875,330.9375,41.25,-175.375,0
1776971767.36,9.8809,-2.5091,0.9361,-0.7112,-0.2563,0.3741,-6.3,78.9,-237.0,9.9048,-0.2825,1.2019,-1.247,0.1327,0.1537,-82.95,-21.6,-20.55,6.47,0.48,-7.45,-0.0491,0.3011,-0.0382,-36.6875,14.875,53.1875,330.875,41.4375,-175.3125,0
1776971767.369,9.924,-2.8012,0.9026,-0.8942,-0.2369,0.4266,-6.3,78.9,-237.0,9.833,-0.4884,1.3431,-1.412,0.1204,0.1431,-82.95,-23.25,-20.85,6.56,0.13,-7.53,-0.0469,0.324,-0.0665,-36.6875,14.875,53.1875,330.875,41.4375,-175.3125,0
1776971767.379,9.5122,-2.6552,0.7709,-0.9912,-0.3214,0.4431,-5.25,78.9,-235.65,9.6367,-0.6488,1.5921,-1.5527,0.1138,0.1292,-81.75,-22.5,-22.35,6.32,0.09,-7.59,-0.0676,0.3491,-0.0753,-36.6875,14.875,53.1875,330.875,41.625,-175.25,0
1776971767.384,9.4643,-2.2889,0.9218,-1.0848,-0.1482,0.4418,-5.25,78.9,-235.65,9.6367,-0.6488,1.5921,-1.5527,0.1138,0.1292,-81.6,-21.9,-22.95,6.32,0.09,-7.59,-0.0676,0.3491,-0.0753,-36.6875,14.875,53.1875,330.8125,41.8125,-175.125,0
1776971767.389,9.4643,-2.2889,0.9218,-1.0848,-0.1482,0.4418,-6.15,77.55,-237.15,9.6702,-0.7374,1.8771,-1.6595,0.1015,0.0978,-81.6,-21.9,-22.95,6.27,0.13,-7.78,-0.0764,0.3632,-0.0982,-37.5,14.5,51.875,330.8125,41.8125,-175.125,0
1776971767.394,9.6726,-1.9632,0.9816,-1.0685,-0.0914,0.4109,-6.15,77.55,-237.15,9.6702,-0.7374,1.8771,-1.6595,0.1015,0.0978,-81.6,-22.2,-23.25,6.27,0.13,-7.78,-0.0764,0.3632,-0.0982,-37.5,14.5,51.875,330.75,42.0625,-175.0625,0
1776971767.399,9.6726,-1.9632,0.9816,-1.0685,-0.0914,0.4109,-5.7,76.8,-236.1,9.7468,-0.8595,2.3032,-1.7381,0.097,0.0818,-81.6,-22.2,-23.25,6.5,0.42,-7.24,-0.0731,0.4265,-0.1124,-37.5,14.5,51.875,330.75,42.0625,-175.0625,0
1776971767.404,9.833,-1.9513,1.1157,-1.108,-0.1018,0.4045,-5.7,76.8,-236.1,9.754,-1.0247,2.648,-1.7381,0.097,0.0818,-82.5,-22.5,-21.6,6.5,0.42,-7.24,-0.0491,0.4342,-0.1156,-37.5,14.5,51.875,330.6875,42.25,-175.0,0
1776971767.41,9.821,-2.0806,1.3815,-1.073,-0.133,0.4021,-2.7,78.9,-236.7,9.754,-1.0247,2.648,-1.7952,0.0706,0.0701,-82.5,-22.5,-21.6,6.4,0.31,-7.59,-0.0491,0.4342,-0.1156,-37.5,14.5,51.875,330.6875,42.25,-175.0,0
1776971767.419,9.833,-2.2721,1.3623,-1.0392,-0.1644,0.4069,-4.35,78.0,-237.15,9.8617,-1.0175,2.8683,-1.8143,0.0485,0.0695,-82.5,-22.5,-21.6,6.66,0.43,-7.35,-0.0382,0.5072,-0.1342,-37.5,14.5,51.875,330.625,42.5,-174.875,0
1776971767.429,9.8138,-2.7198,1.2617,-1.0307,-0.2324,0.409,-4.35,78.0,-237.15,9.7348,-0.7781,3.134,-1.8095,0.0352,0.0789,-80.4,-22.2,-23.25,6.5,0.53,-7.33,-0.036,0.5149,-0.1364,-37.5,14.5,51.875,330.5625,42.8125,-174.75,0
1776971767.434,9.8138,-2.7198,1.2617,-1.0307,-0.2324,0.409,-4.35,78.0,-237.15,9.7659,-0.431,3.2322,-1.792,0.0203,0.0738,-80.4,-22.2,-23.25,6.5,0.53,-7.33,-0.036,0.5149,-0.1364,-37.5,14.5,51.875,330.5625,42.8125,-174.75,0
1776971767.439,9.8809,-3.1699,1.3503,-1.0725,-0.3091,0.4173,-1.35,75.0,-237.9,9.7659,-0.431,3.2322,-1.792,0.0203,0.0738,-80.4,-22.2,-23.25,6.64,0.44,-7.36,-0.0327,0.5421,-0.1407,-37.875,13.375,51.5,330.5,43.0625,-174.6875,0
1776971767.444,9.8809,-3.1699,1.3503,-1.0725,-0.3091,0.4173,-1.35,75.0,-237.9,9.8641,-0.0455,3.2106,-1.7579,0.0128,0.069,-81.3,-21.3,-24.9,6.64,0.44,-7.36,-0.0327,0.5421,-0.1407,-37.875,13.375,51.5,330.5,43.0625,-174.6875,0
1776971767.449,9.821,-2.897,1.4748,-1.113,-0.3224,0.4064,-1.8,75.75,-237.15,9.8641,-0.0455,3.2106,-1.7579,0.0128,0.069,-81.3,-21.3,-24.9,6.69,0.28,-7.37,-0.0742,0.5661,-0.1636,-37.875,13.375,51.5,330.375,43.375,-174.5,0
1776971767.454,9.821,-2.897,1.4748,-1.113,-0.3224,0.4064,-1.8,75.75,-237.15,9.8019,0.1963,3.067,-1.7091,-0.0067,0.0624,-82.35,-22.2,-24.3,6.69,0.28,-7.37,-0.1145,0.5574,-0.1702,-37.875,13.375,51.5,330.3125,43.6875,-174.375,0
1776971767.46,9.572,-2.8419,1.4269,-1.145,-0.2662,0.3645,-1.05,75.3,-238.95,9.8019,0.1963,3.067,-1.7091,-0.0067,0.0624,-82.35,-22.2,-24.3,6.71,0.4,-7.3,-0.1145,0.5574,-0.1702,-37.875,13.375,51.5,330.3125,43.6875,-174.375,0
1776971767.469,9.505,-2.1835,1.6209,-1.2201,-0.2214,0.3533,-0.3,74.25,-238.95,9.4763,0.5171,2.8539,-1.6792,-0.0072,0.0381,-81.6,-21.0,-25.8,6.88,0.39,-7.3,-0.1505,0.5225,-0.1593,-37.875,13.375,51.5,330.25,43.9375,-174.1875,0
1776971767.473,9.505,-2.1835,1.6209,-1.2201,-0.2214,0.3533,-0.3,74.25,-238.95,9.2775,0.735,2.7438,-1.6593,0.0088,0.0184,-81.3,-20.1,-26.4,6.88,0.39,-7.3,-0.1756,0.4778,-0.1462,-37.875,13.375,51.5,330.1875,44.1875,-174.0,0
1776971767.48,9.6079,-1.7262,1.494,-1.1975,-0.2025,0.3176,-1.2,74.7,-239.1,9.2775,0.735,2.7438,-1.6593,0.0088,0.0184,-81.3,-20.1,-26.4,6.88,0.61,-7.09,-0.1756,0.4778,-0.1462,-37.875,13.375,51.5,330.1875,44.1875,-174.0,0
1776971767.485,9.6079,-1.7262,1.494,-1.1975,-0.2025,0.3176,-1.2,74.7,-239.1,9.5122,0.6321,2.7342,-1.6374,-0.0021,0.0099,-79.05,-20.1,-26.1,6.88,0.61,-7.09,-0.1756,0.4778,-0.1462,-38.875,13.375,50.25,330.1875,44.375,-173.8125,0
1776971767.49,9.742,-1.5203,1.391,-1.1517,-0.2268,0.2918,-1.2,74.7,-239.1,9.5122,0.6321,2.7342,-1.6374,-0.0021,0.0099,-79.05,-20.1,-26.1,6.72,0.7,-7.12,-0.1778,0.4352,-0.1353,-38.875,13.375,50.25,330.1875,44.375,-173.8125,0
1776971767.495,9.742,-1.5203,1.391,-1.1517,-0.2268,0.2918,-0.3,73.05,-238.65,9.3685,0.5339,2.8084,-1.6113,-0.0378,0.0053,-81.3,-20.1,-26.1,6.72,0.7,-7.12,-0.1778,0.4352,-0.1353,-38.875,13.375,50.25,330.125,44.625,-173.625,0
1776971767.5,9.6127,-1.6759,1.3096,-1.1106,-0.2667,0.296,-0.3,73.05,-238.65,9.4188,0.431,2.8706,-1.6113,-0.0378,0.0053,-81.3,-20.1,-26.1,6.94,0.86,-6.98,-0.1953,0.4036,-0.0982,-38.875,13.375,50.25,330.125,44.625,-173.625,0
1776971767.505,9.6127,-1.6759,1.3096,-1.1106,-0.2667,0.296,-1.35,75.0,-238.95,9.4188,0.431,2.8706,-1.5902,-0.0482,0.0101,-81.3,-20.1,-26.1,6.94,0.86,-6.98,-0.2138,0.324,-0.048,-38.875,13.375,50.25,343.125,44.8125,-173.5,0
1776971767.51,9.7995,-1.7741,1.0798,-1.0421,-0.2795,0.2976,-1.35,75.0,-238.95,9.4403,0.6464,2.988,-1.5902,-0.0482,0.0101,-81.3,-20.1,-26.1,6.7,0.85,-7.17,-0.2138,0.324,-0.048,-38.875,13.375,50.25,343.375,44.9375,-173.3125,0
1776971767.52,9.4571,-2.3032,0.8452,-1.0232,-0.3824,0.3293,-0.9,73.95,-240.6,9.1913,0.6656,2.9856,-1.5591,-0.0557,0.0261,-81.15,-19.5,-27.3,6.69,0.18,-7.08,-0.1953,0.3196,-0.0316,-38.875,13.375,50.25,343.375,44.9375,-173.3125,0
1776971767.529,9.335,-2.2817,0.9697,-0.9622,-0.4191,0.3738,-1.2,73.95,-240.15,8.8298,1.2546,2.8252,-1.5258,-0.0733,0.0434,-81.15,-19.5,-27.3,6.77,0.57,-7.23,-0.1669,0.3556,-0.06,-38.875,13.375,50.25,343.5625,45.125,-173.1875,0
1776971767.534,9.335,-2.2817,0.9697,-0.9622,-0.4191,0.3738,-1.2,72.15,-240.6,8.8298,1.2546,2.8252,-1.4618,-0.0506,0.0528,-79.8,-19.35,-26.7,6.77,0.57,-7.23,-0.1669,0.3556,-0.06,-38.875,13.375,50.25,343.6875,45.375,-173.0625,0
1776971767.539,9.3853,-2.1356,1.1133,-0.9222,-0.4186,0.4008,-1.2,72.15,-240.6,9.3206,0.419,2.6935,-1.4618,-0.0506,0.0528,-79.8,-19.35,-26.7,7.13,0.63,-6.89,-0.1582,0.3883,-0.0578,-40.75,14.5,50.25,343.6875,45.375,-173.0625,0
1776971767.544,9.3853,-2.1356,1.1133,-0.9222,-0.4186,0.4008,-1.2,72.15,-240.6,9.3206,0.419,2.6935,-1.3848,-0.0727,0.0613,-80.25,-20.1,-29.4,7.13,0.63,-6.89,-0.1582,0.3883,-0.0578,-40.75,14.5,50.25,343.6875,45.375,-173.0625,0
1776971767.549,9.3494,-1.9297,1.1899,-0.9366,-0.4061,0.425,-1.2,72.15,-240.6,9.074,0.6656,2.4732,-1.3419,-0.0669,0.0602,-80.25,-20.1,-29.4,7.09,0.82,-6.81,-0.1658,0.3131,-0.0295,-40.75,14.5,50.25,343.875,45.5,-172.9375,0
1776971767.554,9.3494,-1.9297,1.1899,-0.9049,-0.3888,0.4333,-1.95,72.9,-241.65,9.074,0.6656,2.4732,-1.3419,-0.0669,0.0602,-80.4,-19.05,-27.75,7.09,0.82,-6.81,-0.168,0.2422,0.0011,-40.75,14.5,50.25,344.0625,45.6875,-172.8125,0
1776971767.56,9.347,-1.5275,1.3336,-0.9049,-0.3888,0.4333,-1.95,72.9,-241.65,8.9926,0.917,2.4541,-1.2851,-0.0917,0.0546,-80.4,-19.05,-27.75,7.09,0.94,-6.79,-0.168,0.2422,0.0011,-40.75,14.5,50.25,344.25,45.75,-172.75,0
1776971767.57,9.426,-1.2522,1.0894,-0.8836,-0.3754,0.4594,-0.3,73.8,-241.8,9.1171,1.154,2.3463,-1.2388,-0.0789,0.0426,-80.25,-20.4,-27.9,6.93,0.86,-6.77,-0.1734,0.1724,0.0469,-40.75,14.5,50.25,344.25,45.75,-172.75,0
1776971767.58,9.4834,-1.1301,1.2043,-0.7962,-0.388,0.4762,-0.9,71.4,-241.35,9.2033,1.1109,2.2458,-1.1647,-0.0709,0.0402,-81.15,-20.25,-29.85,6.62,1.1,-6.7,-0.1876,0.0938,0.096,-40.75,14.5,50.25,344.4375,45.8125,-172.6875,0
1776971767.584,9.4739,-1.2929,1.1899,-0.6672,-0.3581,0.4759,1.05,71.55,-242.25,9.2033,1.1109,2.2458,-1.1647,-0.0709,0.0402,-80.4,-19.05,-28.5,6.62,1.1,-6.7,-0.1876,0.0938,0.096,-40.75,14.5,50.25,344.5625,45.875,-172.625,0
1776971767.589,9.4739,-1.2929,1.1899,-0.6672,-0.3581,0.4759,1.05,71.55,-242.25,9.2129,1.3048,2.1093,-1.1202,-0.0597,0.0522,-80.4,-19.05,-28.5,6.3,1.05,-6.97,-0.2105,0.0709,0.1407,-41.0625,11.875,51.0625,344.5625,45.875,-172.625,0
1776971767.594,9.6486,-2.0327,0.6321,-0.6376,-0.3616,0.49,0.3,73.05,-243.3,9.2129,1.3048,2.1093,-1.1202,-0.0597,0.0522,-80.4,-19.05,-28.5,6.3,1.05,-6.97,-0.2105,0.0709,0.1407,-41.0625,11.875,51.0625,344.5625,45.875,-172.625,0
1776971767.599,9.6486,-2.0327,0.6321,-0.6376,-0.3616,0.49,0.3,73.05,-243.3,9.426,1.2426,2.059,-1.0866,-0.0589,0.0626,-80.4,-19.05,-28.5,6.37,0.57,-7.06,-0.1909,0.1451,0.1571,-41.0625,11.875,51.0625,344.75,45.9375,-172.625,0
1776971767.604,10.0078,-3.1532,0.3184,-0.716,-0.4383,0.559,0.3,73.05,-243.3,9.426,1.2426,2.059,-1.0866,-0.0589,0.0626,-81.15,-18.75,-28.8,6.37,0.57,-7.06,-0.1713,0.276,0.1702,-41.0625,11.875,51.0625,344.8125,46.125,-172.625,0
1776971767.61,10.0078,-3.1532,0.3184,-0.716,-0.4383,0.559,0.3,73.05,-243.3,9.4188,1.0894,1.901,-1.072,-0.0496,0.0775,-81.15,-18.75,-28.8,6.9,0.67,-6.7,-0.1713,0.276,0.1702,-41.0625,11.875,51.0625,344.8125,46.25,-172.625,0
1776971767.62,9.821,-3.2681,0.2035,-0.6784,-0.542,0.6323,1.95,72.45,-243.45,9.3805,1.0415,1.6759,-1.0139,-0.0346,0.0898,-81.15,-18.75,-28.8,7.25,0.63,-6.96,-0.1374,0.2673,0.1942,-41.0625,11.875,51.0625,344.8125,46.25,-172.625,0
1776971767.63,9.6917,-3.1077,-0.3639,-0.752,-0.5625,0.6582,1.5,72.45,-244.5,9.4619,0.7805,1.5299,-0.9595,-0.0061,0.1045,-81.3,-18.9,-30.45,7.48,0.91,-6.72,-0.1036,0.2749,0.1691,-41.0625,11.875,51.0625,344.8125,46.4375,-172.625,0
1776971767.634,9.7205,-2.9209,-0.5387,-0.8713,-0.5505,0.6379,1.95,71.4,-245.85,9.572,0.68,1.3527,-0.9595,-0.0061,0.1045,-80.4,-18.3,-31.05,7.48,0.91,-6.72,-0.1036,0.2749,0.1691,-41.0625,11.875,51.0625,344.8125,46.4375,-172.625,0
1776971767.639,9.7205,-2.9209,-0.5387,-0.8713,-0.5505,0.6379,1.95,71.4,-245.85,9.572,0.68,1.3527,-0.9379,0.0011,0.1124,-80.4,-18.3,-31.05,7.13,0.42,-6.9,-0.0556,0.2553,0.1462,-41.5,13.375,49.0625,344.8125,46.5625,-172.6875,0
1776971767.644,9.8521,-2.806,-0.1556,-0.9281,-0.502,0.6107,0.3,71.55,-244.35,9.9599,0.5674,1.2282,-0.9379,0.0011,0.1124,-81.0,-19.35,-29.4,7.13,0.42,-6.9,-0.0556,0.2553,0.1462,-41.5,13.375,49.0625,344.8125,46.5625,-172.6875,0
1776971767.649,9.8521,-2.806,-0.1556,-0.9281,-0.502,0.6107,0.3,71.55,-244.35,9.9599,0.5674,1.2282,-0.9505,-0.0155,0.1053,-81.0,-19.35,-29.4,6.99,0.39,-6.97,-0.0796,0.2498,0.144,-41.5,13.375,49.0625,344.75,46.75,-172.6875,0
1776971767.656,10.3908,-1.9154,-0.328,-0.963,-0.4591,0.5974,2.1,70.05,-245.7,10.2161,0.3879,1.1732,-0.9787,-0.0493,0.0967,-81.3,-18.9,-30.9,6.32,0.32,-7.05,-0.1036,0.288,0.144,-41.5,13.375,49.0625,344.75,46.9375,-172.6875,0
1776971767.661,10.6279,-1.3168,-0.4118,-1.0696,-0.4956,0.5883,2.1,70.05,-245.7,10.2161,0.3879,1.1732,-0.9787,-0.0493,0.0967,-81.3,-18.9,-30.9,6.32,0.32,-7.05,-0.1036,0.288,0.144,-41.5,13.375,49.0625,344.8125,47.125,-172.625,0
1776971767.67,10.6279,-1.3168,-0.4118,-1.0696,-0.4956,0.5883,2.1,70.05,-245.7,10.161,0.2466,1.0822,-0.9803,-0.0935,0.0911,-81.75,-19.65,-30.45,6.72,0.21,-7.22,-0.12,0.42,0.0884,-41.5,13.375,49.0625,344.8125,47.125,-172.625,0
1776971767.68,10.5584,-1.312,-0.3735,-1.0808,-0.5971,0.6305,1.05,71.25,-245.4,10.2783,0.4334,1.0965,-1.0027,-0.1351,0.0802,-80.85,-19.5,-31.35,6.71,0.38,-7.06,-0.1669,0.5051,0.0404,-41.5,13.375,49.0625,344.9375,47.4375,-172.5625,0
1776971767.685,10.5153,-1.0606,-0.9002,-1.0808,-0.5971,0.6305,1.05,72.3,-245.7,10.1634,0.5746,1.1875,-1.0155,-0.1585,0.0866,-80.1,-19.05,-31.05,6.71,0.38,-7.06,-0.1669,0.5051,0.0404,-41.5,13.375,49.0625,345.0625,47.75,-172.375,0
1776971767.69,10.4531,-1.3958,-0.565,-1.0576,-0.632,0.6715,1.05,72.3,-245.7,10.1634,0.5746,1.1875,-1.0155,-0.1585,0.0866,-80.1,-19.05,-31.05,6.81,0.78,-6.96,-0.1909,0.5869,0.0076,-41.875,14.0625,49.0625,345.0625,47.75,-172.375,0
1776971767.695,10.4531,-1.3958,-0.565,-1.0576,-0.632,0.6715,1.2,72.15,-247.35,10.0628,0.7087,1.2522,-1.0102,-0.1908,0.1087,-81.15,-19.95,-31.35,6.81,0.78,-6.96,-0.1909,0.5869,0.0076,-41.875,14.0625,49.0625,345.25,48.125,-172.1875,0
1776971767.7,10.2352,-2.2553,-0.3759,-1.1093,-0.6963,0.7296,1.2,72.15,-247.35,10.0628,0.7087,1.2522,-1.0102,-0.1908,0.1087,-81.15,-19.95,-31.35,7.06,0.76,-6.73,-0.2291,0.7058,-0.0153,-41.875,14.0625,49.0625,345.25,48.125,-172.1875,0
1776971767.705,10.2352,-2.2553,-0.3759,-1.1093,-0.6963,0.7296,0.9,71.4,-247.05,9.7851,0.7733,1.233,-1.0224,-0.2126,0.1364,-81.15,-19.95,-31.35,7.06,0.76,-6.73,-0.2094,0.7407,-0.0491,-41.875,14.0625,49.0625,345.4375,48.5625,-172.0,0
1776971767.711,10.003,-2.3846,-0.0934,-1.0973,-0.7799,0.8194,2.85,70.05,-247.95,9.7851,0.7733,1.233,-1.0224,-0.2126,0.1364,-81.15,-19.95,-31.35,7.15,0.37,-6.8,-0.2094,0.7407,-0.0491,-41.875,14.0625,49.0625,345.625,49.0,-171.75,0
1776971767.72,10.0006,-2.4588,-0.1006,-1.242,-0.8212,0.8892,2.85,70.05,-247.95,9.5864,0.735,1.1492,-1.0283,-0.2108,0.1585,-80.55,-20.1,-33.75,7.1,0.52,-6.53,-0.2269,0.8334,-0.0556,-41.875,14.0625,49.0625,345.625,49.0,-171.75,0
1776971767.73,9.7612,-2.7749,-0.7661,-1.2806,-0.8383,0.9252,2.85,70.05,-247.95,9.3901,0.7039,1.1349,-1.0091,-0.2054,0.1783,-79.05,-19.35,-32.4,7.54,0.74,-6.52,-0.2356,0.9207,-0.072,-41.875,14.0625,49.0625,345.8125,49.5,-171.5,0
1776971767.735,9.7612,-2.7749,-0.7661,-1.2806,-0.8383,0.9252,2.25,68.7,-248.4,9.2943,0.6823,1.1995,-0.9888,-0.182,0.182,-80.55,-19.65,-33.45,7.54,0.74,-6.52,-0.2356,0.9207,-0.072,-41.875,14.0625,49.0625,345.8125,49.5,-171.5,0
1776971767.74,9.6127,-2.5666,-0.6608,-1.2476,-0.8492,0.9363,2.25,68.7,-248.4,9.2943,0.6823,1.1995,-0.9888,-0.182,0.182,-80.55,-19.65,-33.45,7.44,0.89,-6.14,-0.252,1.0014,-0.0665,-42.1875,14.0625,49.0625,346.0,50.0625,-171.1875,0
1776971767.744,9.6127,-2.5666,-0.6608,-1.2476,-0.8492,0.9363,4.5,68.7,-250.5,9.3781,0.8499,1.2426,-0.9734,-0.1631,0.1681,-79.35,-21.0,-32.85,7.44,0.89,-6.14,-0.252,1.0014,-0.0665,-42.1875,14.0625,49.0625,346.0,50.0625,-171.1875,0
1776971767.75,9.7468,-2.5283,-0.4741,-1.2942,-0.8047,0.9606,4.65,68.25,-251.1,9.3518,0.9074,1.1995,-0.9734,-0.1631,0.1681,-79.35,-21.0,-32.85,7.52,1.23,-5.88,-0.2673,1.0308,-0.0687,-42.1875,14.0625,49.0625,346.1875,50.625,-170.875,0
1776971767.756,9.7468,-2.5283,-0.4741,-1.2942,-0.8047,0.9606,4.65,68.25,-251.1,9.3518,0.9074,1.1995,-0.9814,-0.1604,0.1242,-80.25,-18.45,-32.4,7.45,0.9,-6.12,-0.3152,1.0494,-0.048,-42.1875,14.0625,49.0625,346.4375,51.1875,-170.5625,0
1776971767.761,10.0173,-2.6025,-0.4238,-1.4224,-0.8306,0.9926,5.25,66.9,-251.55,9.3565,0.9888,0.9673,-1.0016,-0.1695,0.0874,-80.25,-18.45,-32.4,7.45,0.9,-6.12,-0.3152,1.0494,-0.048,-42.1875,14.0625,49.0625,346.6875,51.75,-170.25,0
1776971767.77,10.1203,-2.0758,-0.5507,-1.441,-0.8756,1.024,5.4,67.5,-252.15,9.4355,1.3144,0.9194,-1.0395,-0.186,0.0549,-79.05,-20.85,-33.75,7.51,0.88,-6.02,-0.3731,1.117,-0.024,-42.1875,14.0625,49.0625,346.6875,51.75,-170.25,0
1776971767.78,10.3046,-1.2282,-0.5602,-1.4546,-0.9334,1.0336,5.4,67.5,-252.15,9.3613,1.6496,0.8308,-1.0952,-0.2121,0.0277,-80.85,-19.95,-33.6,6.91,1.07,-6.12,-0.384,1.2948,0.0415,-42.1875,14.0625,49.0625,346.875,52.5,-169.875,0
1776971767.785,10.3046,-1.2282,-0.5602,-1.4546,-0.9334,1.0336,5.4,67.5,-252.15,9.3613,1.6496,0.8308,-1.0952,-0.2121,0.0277,-80.25,-20.4,-33.75,6.91,1.07,-6.12,-0.384,1.2948,0.0415,-42.1875,14.0625,49.0625,346.9375,53.3125,-169.5625,0
1776971767.79,10.4339,-1.0582,-0.7709,-1.3949,-0.967,1.0357,8.1,64.95,-254.1,9.323,2.1021,0.7829,-1.1556,-0.2667,0.0187,-80.25,-20.4,-33.75,6.77,0.59,-6.31,-0.3142,1.4519,0.0949,-45.1875,13.375,48.25,346.9375,53.3125,-169.5625,0
1776971767.795,10.4339,-1.0582,-0.7709,-1.3949,-0.967,1.0357,8.1,64.95,-254.1,9.323,2.1021,0.7829,-1.1556,-0.2667,0.0187,-80.25,-20.4,-33.75,6.77,0.59,-6.31,-0.3142,1.4519,0.0949,-45.1875,13.375,48.25,347.0,54.1875,-169.25,0
1776971767.8,10.7093,-1.1205,-0.6225,-1.3835,-1.0547,1.0712,6.6,62.4,-256.95,9.3589,2.6073,0.7757,-1.2537,-0.2998,0.0003,-80.25,-20.4,-33.75,7.6,0.62,-6.05,-0.324,1.6559,0.1091,-45.1875,13.375,48.25,347.0,54.1875,-169.25,0
1776971767.805,10.7093,-1.1205,-0.6225,-1.3835,-1.0547,1.0712,6.6,62.4,-256.95,9.3589,2.6073,0.7757,-1.2537,-0.2998,0.0003,-79.8,-20.1,-34.5,7.6,0.62,-6.05,-0.3894,1.6101,0.1756,-45.1875,13.375,48.25,347.125,55.125,-168.9375,0
1776971767.811,10.9702,-1.0702,-0.8116,-1.3542,-1.1178,1.1293,6.9,61.5,-258.6,9.402,3.0239,0.6153,-1.3366,-0.3262,-0.0282,-79.8,-20.1,-34.5,7.48,1.14,-5.99,-0.3894,1.6101,0.1756,-45.1875,13.375,48.25,347.125,56.125,-168.5625,0
1776971767.82,11.1378,-1.0104,-1.0247,-1.3907,-1.1842,1.1938,7.8,60.9,-259.8,9.6462,2.885,0.4453,-1.3299,-0.3741,-0.0674,-79.8,-20.1,-34.5,8.0,0.65,-5.94,-0.3022,1.8839,0.0873,-45.1875,13.375,48.25,347.125,56.125,-168.5625,0
1776971767.83,11.4539,-1.3408,-0.7111,-1.4727,-1.214,1.2628,8.4,60.45,-261.3,9.9934,2.6935,-0.0503,-1.3051,-0.3986,-0.162,-78.75,-21.3,-35.25,8.07,0.74,-5.84,-0.2891,1.9919,0.0131,-45.1875,13.375,48.25,347.125,57.1875,-168.0625,0
1776971767.835,11.9183,-0.5483,-0.5339,-1.5617,-1.2284,1.3462,8.4,60.45,-261.3,9.9934,2.6935,-0.0503,-1.3051,-0.3986,-0.162,-78.9,-21.9,-35.55,8.07,0.74,-5.84,-0.2891,1.9919,0.0131,-45.1875,13.375,48.25,347.125,57.1875,-168.0625,0
1776971767.84,11.9183,-0.5483,-0.5339,-1.5617,-1.2284,1.3462,8.4,60.45,-261.3,10.1179,2.3487,-0.3017,-1.303,-0.4263,-0.2694,-78.9,-21.9,-35.55,8.04,0.49,-6.28,-0.3414,1.9602,0.0295,-47.0,13.0,44.75,347.1875,58.3125,-167.5,0
1776971767.845,12.2487,-0.3687,-0.6488,-1.8226,-1.3046,1.4274,8.4,60.45,-261.3,10.1179,2.3487,-0.3017,-1.303,-0.4263,-0.2694,-78.15,-21.0,-35.55,8.04,0.49,-6.28,-0.3414,1.9602,0.0295,-47.0,13.0,44.75,347.1875,58.3125,-167.5,0
1776971767.85,12.2487,-0.3687,-0.6488,-1.8226,-1.3046,1.4274,8.4,57.45,-267.3,9.675,2.3511,-0.2394,-1.3406,-0.4828,-0.3672,-78.15,-21.0,-35.55,7.11,0.14,-6.27,-0.5323,2.1937,0.0033,-47.0,13.0,44.75,347.4375,59.5,-166.8125,0
1776971767.857,12.4307,-0.5052,-0.0407,-2.0195,-1.3861,1.538,8.4,57.45,-267.3,9.6295,2.4229,0.1652,-1.404,-0.5207,-0.5143,-78.3,-21.3,-36.75,7.59,-0.23,-6.39,-0.8912,2.6911,-0.0829,-47.0,13.0,44.75,347.9375,60.9375,-165.5625,0
1776971767.862,12.4307,-0.5052,-0.0407,-2.0195,-1.3861,1.538,9.0,57.3,-269.55,9.6295,2.4229,0.1652,-1.404,-0.5207,-0.5143,-78.3,-21.3,-36.75,7.59,-0.23,-6.39,-0.8912,2.6911,-0.0829,-47.0,13.0,44.75,348.8125,62.5,-163.875,0
1776971767.87,12.9191,-0.2346,0.0455,-2.1743,-1.4749,1.6308,11.4,57.45,-269.4,9.7683,2.3128,0.5219,-1.5138,-0.5844,-0.6832,-78.75,-22.5,-37.95,6.93,0.08,-5.98,-1.2577,3.0183,-0.2203,-47.0,13.0,44.75,350.0,64.1875,-161.5,0
1776971767.88,13.5033,-0.5602,0.2586,-2.485,-1.5479,1.6803,12.3,56.25,-272.1,9.8019,1.8004,0.4884,-1.6649,-0.6829,-0.8918,-78.75,-22.5,-37.95,7.6,-0.7,-5.65,-1.6373,3.3543,-0.3174,-47.0,13.0,44.75,350.0,64.1875,-161.5,0
1776971767.885,13.7714,-1.6496,1.913,-2.6345,-1.6169,1.7944,12.3,56.25,-272.1,9.6989,0.8619,-0.3184,-1.7712,-0.7935,-1.1514,-78.75,-22.5,-37.95,7.6,-0.7,-5.65,-1.6373,3.3543,-0.3174,-50.25,11.875,40.875,351.375,66.125,-158.5,0
1776971767.89,13.7714,-1.6496,1.913,-2.6345,-1.6169,1.7944,12.3,56.25,-272.1,9.6989,0.8619,-0.3184,-1.7712,-0.7935,-1.1514,-78.75,-22.5,-37.95,9.12,2.68,-7.88,-2.1217,3.7437,-0.2542,-50.25,11.875,40.875,351.375,66.125,-158.5,0
1776971767.895,12.7204,-1.0056,1.5419,-2.4213,-1.5823,1.9316,12.3,56.25,-272.1,10.3549,-0.1628,-0.8643,-1.7507,-0.8668,-1.4245,-79.8,-20.4,-37.2,9.12,2.68,-7.88,-2.1217,3.7437,-0.2542,-50.25,11.875,40.875,352.5,68.25,-155.1875,0
1776971767.9,12.7204,-1.0056,1.5419,-2.4213,-1.5823,1.9316,12.3,56.25,-272.1,10.3549,-0.1628,-0.8643,-1.7507,-0.8668,-1.4245,-79.8,-20.4,-37.2,9.94,4.63,-6.72,-2.0769,4.191,-0.0207,-50.25,11.875,40.875,352.5,68.25,-155.1875,0
1776971767.905,12.7635,-0.4597,0.5267,-2.2788,-1.396,1.9985,12.3,56.25,-272.1,10.58,-0.5938,-0.3926,-1.7059,-0.9862,-1.655,-79.8,-20.4,-37.2,9.94,4.63,-6.72,-1.8217,4.5302,0.156,-50.25,11.875,40.875,353.25,70.5625,-151.375,0
1776971767.911,12.7635,-0.4597,0.5267,-2.2788,-1.396,1.9985,17.85,57.9,-277.2,10.58,-0.5938,-0.3926,-1.7059,-0.9862,-1.655,-79.8,-20.4,-37.2,11.71,3.97,-7.37,-1.8217,4.5302,0.156,-50.25,11.875,40.875,353.75,73.0625,-146.3125,0
1776971767.92,12.6581,-1.0415,-1.4293,-2.1943,-1.4629,1.9947,18.3,59.7,-276.6,10.5058,-0.9457,-0.2634,-1.89,-1.0776,-1.9044,-77.55,-20.1,-38.55,13.21,4.48,-7.81,-1.8675,5.0985,0.3272,-50.25,11.875,40.875,353.75,73.0625,-146.3125,0
1776971767.93,11.8705,-1.9178,-2.5642,-2.0267,-1.6934,2.0251,20.85,63.9,-276.15,10.1251,-1.4676,0.0359,-2.3012,-1.1143,-2.1242,-78.0,-19.65,-38.25,14.61,4.68,-7.26,-1.9853,5.476,0.5574,-50.25,11.875,40.875,354.1875,75.6875,-139.5625,0
1776971767.935,11.6813,-3.2178,-2.4445,-1.9015,-1.7789,2.1114,20.85,63.9,-276.15,9.9982,-2.4972,0.5291,-2.6652,-1.121,-2.1903,-78.15,-18.0,-39.6,14.61,4.68,-7.26,-1.9853,5.476,0.5574,-55.25,8.5625,33.0,354.625,78.125,-130.125,0
1776971767.941,11.6813,-3.2178,-2.4445,-1.9015,-1.7789,2.1114,21.3,64.5,-276.0,9.9982,-2.4972,0.5291,-2.6652,-1.121,-2.1903,-78.15,-18.0,-39.6,14.32,3.27,-6.38,-2.2024,5.5621,0.7199,-55.25,8.5625,33.0,354.625,78.125,-130.125,0
1776971767.945,11.7675,-4.9153,-3.3734,-1.7349,-1.9092,2.185,21.3,64.5,-276.0,10.0652,-2.9425,1.0271,-2.9668,-1.0906,-2.1613,-76.8,-16.95,-39.3,14.32,3.27,-6.38,-2.2024,5.5621,0.7199,-55.25,8.5625,33.0,355.0625,80.25,-116.8125,0
1776971767.95,11.7675,-4.9153,-3.3734,-1.7349,-1.9092,2.185,21.3,64.5,-276.0,10.0652,-2.9425,1.0271,-2.9668,-1.0906,-2.1613,-76.8,-16.95,-39.3,18.49,3.46,-5.64,-2.4304,5.5414,0.9512,-55.25,8.5625,33.0,355.0625,80.25,-116.8125,0
1776971767.959,11.2671,-7.0461,-5.284,-2.0331,-2.1272,2.1535,21.3,64.5,-276.0,10.9654,-2.9568,1.1708,-3.1355,-0.9851,-2.1589,-77.7,-18.0,-39.9,18.97,0.31,-7.91,-2.798,5.2284,0.7069,-55.25,8.5625,33.0,355.8125,81.5625,-98.625,0
1776971767.965,10.9223,-8.509,-6.2106,-2.3646,-2.1597,2.0864,21.3,64.5,-276.0,11.5999,-2.3008,0.6033,-3.0611,-0.935,-2.2316,-78.3,-18.0,-39.9,18.97,0.31,-7.91,-4.0612,5.0756,0.5498,-55.25,8.5625,33.0,357.3125,81.75,-77.0,0
1776971767.971,9.4164,-8.7484,-5.715,-2.2135,-2.1954,2.0243,27.15,58.8,-274.95,12.0692,-0.4956,-0.0599,-3.0611,-0.935,-2.2316,-78.3,-14.25,-43.05,18.97,1.59,-11.67,-4.0612,5.0756,0.5498,-55.25,8.5625,33.0,359.25,81.0625,-58.4375,0
1776971767.981,7.0868,-7.3526,-5.0278,-1.8018,-2.2207,1.8732,29.55,54.15,-271.5,13.4674,0.1125,-0.644,-2.7043,-0.9065,-2.3974,-78.3,-14.25,-43.05,12.04,3.0,-8.07,-4.8793,4.4091,0.5192,-55.25,8.5625,33.0,359.25,81.0625,-58.4375,0
1776971767.986,7.0868,-7.3526,-5.0278,-1.8018,-2.2207,1.8732,33.0,43.8,-267.9,13.4674,0.1125,-0.644,-2.2114,-0.72,-2.5103,-76.95,-11.25,-42.15,12.04,3.0,-8.07,-4.8793,4.4091,0.5192,-55.25,8.5625,33.0,359.25,81.0625,-58.4375,0
1776971767.991,3.371,-5.6144,-6.6774,-1.6808,-1.7032,1.6273,33.0,43.8,-267.9,13.8481,1.391,-1.1612,-2.2114,-0.72,-2.5103,-76.95,-11.25,-42.15,11.14,2.7,-8.71,-5.3113,3.7874,0.685,-60.5,8.5625,17.1875,1.25,80.0625,-44.125,0
1776971767.996,3.371,-5.6144,-6.6774,-1.6808,-1.7032,1.6273,32.25,36.3,-259.65,13.8481,1.391,-1.1612,-1.8151,-0.5875,-2.477,-76.95,-11.25,-42.15,11.14,2.7,-8.71,-5.3113,3.7874,0.685,-60.5,8.5625,17.1875,1.25,80.0625,-44.125,0
1776971768.001,2.1787,-5.4564,-6.4883,-1.906,-1.3518,1.2934,32.25,36.3,-259.65,12.4714,3.3567,-2.0686,-1.461,-0.2198,-2.3502,-76.95,-11.25,-42.15,8.98,1.81,-8.38,-5.6505,2.9114,1.0777,-60.5,8.5625,17.1875,3.25,79.1875,-32.9375,0
1776971768.008,2.1787,-5.4564,-6.4883,-1.906,-1.3518,1.2934,32.25,36.3,-259.65,12.4714,3.3567,-2.0686,-1.461,-0.2198,-2.3502,-77.55,-10.35,-41.55,3.72,1.04,-13.25,-5.9527,1.9111,1.6002,-60.5,8.5625,17.1875,5.0,78.625,-23.0625,0
1776971768.013,0.6201,-4.1755,-7.3694,-2.0049,-0.9156,1.0027,32.25,36.3,-259.65,11.5185,4.4245,-1.2282,-1.2849,-0.0965,-2.2002,-77.55,-10.35,-41.55,3.72,1.04,-13.25,-5.9527,1.9111,1.6002,-60.5,8.5625,17.1875,6.1875,78.25,-12.8125,0
1776971768.021,-0.6081,-4.2377,-7.9583,-1.9742,-0.6867,0.8996,26.1,19.5,-242.85,10.8314,3.3854,-1.5227,-1.1591,-0.0181,-2.1493,-77.55,-7.95,-41.55,21.73,3.44,-14.73,-5.4269,1.4835,2.3213,-60.5,8.5625,17.1875,7.125,78.1875,-4.8125,0
1776971768.031,0.6273,-4.1683,-8.4396,-1.8714,-0.5097,1.0469,26.1,9.75,-237.6,11.3533,1.9082,-2.1811,-0.9539,0.0482,-2.1296,-76.5,-7.95,-41.25,19.85,11.76,-15.39,-4.5728,0.4134,1.9951,-60.5,8.5625,17.1875,7.125,78.1875,-4.8125,0
1776971768.036,0.6273,-4.1683,-8.4396,-1.8714,-0.5097,1.0469,24.75,1.2,-233.85,11.3533,1.9082,-2.1811,-0.9539,0.0482,-2.1296,-76.5,-7.95,-41.25,19.85,11.76,-15.39,-4.5728,0.4134,1.9951,-60.5,8.5625,17.1875,7.5,79.875,2.0,0
1776971768.04,0.4118,-3.9696,-7.6614,-1.4903,0.2912,1.0834,24.75,1.2,-233.85,11.8657,0.3879,-2.0662,-0.6297,0.0181,-2.1543,-76.65,-7.35,-41.1,18.15,11.17,-15.68,-3.0031,-2.9681,1.8795,-58.5625,10.75,7.6875,7.5,79.875,2.0,0
1776971768.045,0.4118,-3.9696,-7.6614,-1.4903,0.2912,1.0834,23.85,-5.55,-229.05,11.8657,0.3879,-2.0662,-0.6297,0.0181,-2.1543,-76.65,-7.35,-41.1,18.15,11.17,-15.68,-3.0031,-2.9681,1.8795,-58.5625,10.75,7.6875,6.375,81.9375,15.9375,0
1776971768.051,-0.9601,-2.7916,-6.2848,-0.5958,0.6163,1.0488,23.85,-5.55,-229.05,12.5911,-1.0104,-1.3024,-0.3837,0.0242,-2.1333,-77.25,-5.55,-40.8,3.74,4.81,-7.87,-1.4148,-4.2281,3.1601,-58.5625,10.75,7.6875,6.375,81.9375,15.9375,0
1776971768.06,-1.5467,-0.5986,-6.3997,0.2411,1.4333,0.6797,24.15,-7.95,-225.6,11.5281,-0.6105,-0.9816,-0.3144,-0.0176,-2.0859,-77.55,-4.8,-40.8,1.71,2.56,-5.41,-0.5956,-4.6164,3.339,-58.5625,10.75,7.6875,4.6875,83.375,4.0625,0
1776971768.07,-0.5794,1.1277,-8.6862,0.5569,2.1605,0.1082,24.15,-7.95,-225.6,10.9032,0.1125,-0.8906,-0.3389,0.1351,-2.0579,-77.55,-4.8,-40.8,-0.36,1.25,-3.87,-0.3916,-4.504,3.158,-58.5625,10.75,7.6875,2.9375,83.5625,5.8125,0
1776971768.08,-0.0431,2.1548,-11.1761,0.7703,2.7051,-0.5241,22.65,-2.7,-220.65,10.4962,1.3048,-1.1013,-0.2819,0.1636,-1.9582,-78.0,-3.6,-39.75,-1.9,-0.09,-2.42,-0.5334,-3.9412,2.954,-58.5625,10.75,7.6875,1.3125,82.4375,86.6875,0
1776971768.085,-0.0431,2.1548,-11.1761,0.7703,2.7051,-0.5241,23.25,2.25,-217.2,10.4962,1.3048,-1.1013,-0.2819,0.1636,-1.9582,-78.0,-3.6,-39.75,-1.9,-0.09,-2.42,-0.5334,-3.9412,2.954,-58.5625,10.75,7.6875,1.3125,82.4375,86.6875,0
1776971768.09,0.2251,2.9018,-13.7331,1.3528,3.3494,-1.1226,23.25,2.25,-217.2,10.5129,2.4277,-1.1684,-0.1633,0.2137,-1.866,-78.0,-3.6,-39.75,-1.36,0.66,-3.33,-0.8661,-3.7361,2.4827,-54.0,20.1875,11.1875,0.125,80.9375,100.8125,0
1776971768.095,0.2251,2.9018,-13.7331,1.3528,3.3494,-1.1226,17.85,12.45,-214.2,10.5129,2.4277,-1.1684,-0.1633,0.2137,-1.866,-78.0,-3.6,-39.75,-1.36,0.66,-3.33,-0.8661,-3.7361,2.4827,-54.0,20.1875,11.1875,359.4375,79.4375,110.75,0
1776971768.1,1.9968,2.9832,-10.75,1.5567,3.6764,-1.3414,17.85,12.45,-214.2,10.5512,2.9832,-1.1779,0.0432,0.2537,-1.7861,-76.8,-2.4,-37.95,-0.08,0.96,-4.26,-1.2239,-3.5223,1.8577,-54.0,20.1875,11.1875,359.4375,79.4375,110.75,0
1776971768.105,1.9968,2.9832,-10.75,1.5567,3.6764,-1.3414,12.3,21.0,-211.5,10.5512,2.9832,-1.1779,0.0432,0.2537,-1.7861,-76.8,-2.4,-37.95,-0.08,0.96,-4.26,-1.5533,-3.1143,1.2261,-54.0,20.1875,11.1875,359.375,78.0625,118.125,0
1776971768.111,3.0191,2.071,-8.2025,1.032,3.3428,-1.2668,12.3,21.0,-211.5,10.4603,3.2729,-1.0271,0.2678,0.2502,-1.6883,-79.05,-3.3,-38.25,4.0,1.44,-7.14,-1.5533,-3.1143,1.2261,-54.0,20.1875,11.1875,359.75,76.875,124.8125,0
1776971768.121,3.486,1.3982,-5.6431,0.7477,2.8482,-1.2761,10.65,26.7,-210.6,10.4004,2.6336,-0.9529,0.5092,0.2097,-1.6036,-78.15,-1.05,-36.15,4.96,0.81,-6.99,-1.7606,-3.0434,0.6218,-54.0,20.1875,11.1875,0.4375,75.6875,131.5625,0
1776971768.131,2.897,0.3735,-3.6679,0.6091,2.5583,-1.3725,10.65,26.7,-210.6,10.161,1.573,-0.6823,0.7147,0.1268,-1.5449,-78.3,-2.4,-35.7,4.24,-0.16,-5.82,-1.8631,-3.3161,0.1331,-54.0,20.1875,11.1875,0.4375,75.6875,131.5625,0
1776971768.136,2.7869,-1.6065,-2.8563,0.4836,2.5095,-1.5058,8.1,25.95,-210.0,9.8043,1.1516,-0.6776,0.8212,0.052,-1.4754,-78.3,-2.4,-35.7,4.24,-0.16,-5.82,-1.8631,-3.3161,0.1331,-54.0,20.1875,11.1875,0.4375,75.6875,131.5625,0
1776971768.141,2.7869,-1.6065,-2.8563,0.4836,2.5095,-1.5058,8.1,25.95,-210.0,9.8043,1.1516,-0.6776,0.8212,0.052,-1.4754,-77.55,-2.1,-34.95,4.03,-1.0,-5.48,-1.9319,-3.5201,-0.2334,-43.875,30.25,18.0,1.4375,74.4375,138.1875,0
1776971768.146,3.8906,-4.6831,-3.3255,0.5119,2.5644,-1.7437,7.8,22.95,-210.3,9.4212,0.7087,-0.6632,0.8095,-0.0552,-1.3891,-77.55,-2.1,-34.95,4.03,-1.0,-5.48,-1.9319,-3.5201,-0.2334,-43.875,30.25,18.0,1.4375,74.4375,138.1875,0
1776971768.151,3.8906,-4.6831,-3.3255,0.5119,2.5644,-1.7437,7.8,22.95,-210.3,9.4212,0.7087,-0.6632,0.8095,-0.0552,-1.3891,-78.0,-1.35,-36.0,4.9,-1.95,-5.74,-1.9482,-3.4787,-0.5596,-43.875,30.25,18.0,2.625,73.125,144.25,0
1776971768.158,4.4724,-6.79,-5.0182,0.7554,2.821,-1.9654,7.95,19.8,-211.5,9.1099,0.4597,-0.8547,0.7109,-0.2265,-1.2998,-78.0,-1.35,-36.0,5.67,-2.64,-6.3,-1.8435,-3.3467,-0.8661,-43.875,30.25,18.0,4.0,71.8125,149.75,0
1776971768.163,4.4724,-6.79,-5.0182,0.7554,2.821,-1.9654,7.35,14.7,-211.65,8.442,0.7111,-0.4693,0.7109,-0.2265,-1.2998,-78.0,-1.35,-36.0,5.67,-2.64,-6.3,-1.8435,-3.3467,-0.8661,-43.875,30.25,18.0,5.5,70.4375,154.9375,0
1776971768.171,5.6575,-7.0413,-6.11,0.7016,2.9588,-2.0363,7.35,14.7,-211.65,8.442,0.7111,-0.4693,0.4975,-0.3416,-1.2713,-78.0,-1.35,-35.7,6.31,-3.6,-6.83,-1.717,-3.3783,-1.1443,-43.875,30.25,18.0,7.125,68.9375,159.6875,0
1776971768.181,6.6631,-5.5641,-6.7469,0.4327,3.027,-2.1213,7.2,12.0,-211.2,8.5856,0.6129,-0.1652,0.1828,-0.3203,-1.1754,-78.0,-1.35,-35.7,7.66,-4.75,-7.22,-1.6668,-3.4928,-1.3254,-43.875,30.25,18.0,7.125,68.9375,159.6875,0
1776971768.186,6.7445,-3.9241,-5.7581,0.0336,3.1051,-2.2532,7.2,12.0,-211.2,8.837,0.8452,-0.4429,-0.008,-0.3611,-1.0488,-78.0,-1.35,-35.7,7.66,-4.75,-7.22,-1.6668,-3.4928,-1.3254,-37.6875,35.6875,22.0,8.875,67.3125,163.875,0
1776971768.191,6.7445,-3.9241,-5.7581,0.0336,3.1051,-2.2532,7.2,12.0,-211.2,8.837,0.8452,-0.4429,-0.008,-0.3611,-1.0488,-77.55,-0.9,-35.7,8.3,-5.05,-6.92,-1.6733,-3.4797,-1.3177,-37.6875,35.6875,22.0,8.875,67.3125,163.875,0
1776971768.196,6.9432,-2.7605,-5.2672,-0.429,3.1256,-2.5322,4.35,12.3,-207.6,8.418,1.1301,-0.577,-0.1559,-0.3493,-0.9254,-77.55,-0.9,-35.7,8.3,-5.05,-6.92,-1.6733,-3.4797,-1.3177,-37.6875,35.6875,22.0,10.5625,65.625,167.25,0
1776971768.201,6.9432,-2.7605,-5.2672,-0.429,3.1256,-2.5322,4.35,12.3,-207.6,8.418,1.1301,-0.577,-0.1559,-0.3493,-0.9254,-78.0,0.15,-35.7,8.78,-4.96,-6.94,-1.6526,-3.4219,-1.1323,-37.6875,35.6875,22.0,10.5625,65.625,167.25,0
1776971768.206,6.3925,-1.7214,-4.3024,-0.6363,3.2175,-2.695,-0.3,13.5,-207.3,8.1403,1.3886,-0.7207,-0.234,-0.2966,-0.7903,-78.0,0.15,-35.7,8.78,-4.96,-6.94,-1.5795,-3.3161,-0.8923,-37.6875,35.6875,22.0,12.125,63.9375,169.9375,0
1776971768.212,6.3925,-1.7214,-4.3024,-0.6363,3.2175,-2.695,-0.6,16.5,-207.6,8.2839,1.8244,-0.9912,-0.234,-0.2966,-0.7903,-77.4,0.3,-35.1,9.91,-4.45,-6.51,-1.5795,-3.3161,-0.8923,-37.6875,35.6875,22.0,13.6875,62.1875,172.125,0
1776971768.221,7.2161,-1.8962,-3.9385,-0.8106,3.1626,-2.8088,-3.45,15.15,-206.7,7.8985,2.2913,-1.2234,-0.2036,-0.3232,-0.652,-76.2,0.3,-34.35,9.92,-3.87,-5.85,-1.549,-3.2681,-0.7287,-37.6875,35.6875,22.0,13.6875,62.1875,172.125,0
1776971768.231,7.9248,-3.6559,-4.3144,-0.5609,3.0822,-2.7073,-3.6,15.75,-205.2,7.5178,3.2777,-1.2019,-0.1625,-0.3624,-0.5521,-76.2,2.25,-33.6,10.93,-3.03,-6.02,-1.5795,-3.1863,-0.7069,-37.6875,35.6875,22.0,15.375,60.5,174.125,0
1776971768.236,8.5904,-3.1436,-4.4508,-0.2787,3.0265,-2.5738,-3.6,15.75,-205.2,7.5178,3.2777,-1.2019,-0.1681,-0.3155,-0.4852,-76.2,2.25,-33.6,10.93,-3.03,-6.02,-1.5795,-3.1863,-0.7069,-37.6875,35.6875,22.0,15.375,60.5,174.125,0
1776971768.241,8.5904,-3.1436,-4.4508,0.1021,2.9908,-2.4853,-3.6,15.75,-205.2,7.4915,3.9863,-0.9529,-0.1647,-0.2699,-0.4181,-76.2,0.3,-34.35,12.06,-2.13,-6.52,-1.6221,-3.0445,-0.805,-37.5625,39.375,26.6875,17.25,58.875,176.0625,0
1776971768.246,9.6007,-2.6791,-4.3862,0.1021,2.9908,-2.4853,-3.6,15.75,-205.2,7.4915,3.9863,-0.9529,-0.1647,-0.2699,-0.4181,-76.2,0.3,-34.35,12.06,-2.13,-6.52,-1.6221,-3.0445,-0.805,-37.5625,39.375,26.6875,17.25,58.875,176.0625,0
1776971768.251,10.6087,-2.229,-3.4524,0.0869,2.905,-2.4075,-4.65,18.3,-203.4,7.6591,4.3551,-0.7925,-0.1583,-0.2364,-0.348,-76.2,0.3,-34.35,12.84,-1.0,-6.31,-1.633,-2.9671,-0.9665,-37.5625,39.375,26.6875,19.3125,57.25,177.9375,0
1776971768.258,10.6087,-2.229,-3.4524,0.0869,2.905,-2.4075,-4.65,18.3,-203.4,7.6591,4.3551,-0.7925,-0.1583,-0.2364,-0.348,-78.0,0.15,-33.0,12.73,-0.63,-5.91,-1.5457,-2.882,-1.105,-37.5625,39.375,26.6875,21.5,55.6875,179.75,0
1776971768.263,10.3837,-1.5562,-3.2441,-0.0773,2.9218,-2.4197,-5.85,19.2,-200.7,7.8673,4.2282,-0.6656,-0.1135,-0.1937,-0.2729,-78.0,0.15,-33.0,12.73,-0.63,-5.91,-1.5457,-2.882,-1.105,-37.5625,39.375,26.6875,23.5625,54.125,-178.5625,0
1776971768.271,10.0892,-1.6448,-2.8706,-0.203,2.9194,-2.3998,-7.05,18.9,-200.7,7.9583,4.0247,-0.5148,-0.0373,-0.1775,-0.2022,-78.0,0.15,-33.0,12.53,-0.41,-5.52,-1.3134,-2.7587,-1.1748,-37.5625,39.375,26.6875,25.375,52.6875,-177.1875,0
1776971768.281,9.5888,-1.6305,-2.9233,-0.2174,2.8727,-2.379,-8.25,19.8,-199.8,7.8985,3.7613,-0.6081,0.0645,-0.1929,-0.1498,-76.2,1.95,-34.35,11.99,-0.51,-5.31,-0.9632,-2.5929,-1.1781,-37.5625,39.375,26.6875,25.375,52.6875,-177.1875,0
1776971768.286,9.5888,-1.6305,-2.9233,-0.2174,2.8727,-2.379,-8.25,19.8,-199.8,7.8985,3.7613,-0.6081,0.0645,-0.1929,-0.1498,-76.2,1.95,-34.35,11.99,-0.51,-5.31,-0.9632,-2.5929,-1.1781,-36.375,36.75,31.0,26.75,51.3125,-176.1875,0
1776971768.291,9.2464,-1.7478,-2.7366,-0.1242,2.8578,-2.3153,-9.3,20.25,-198.0,7.7907,3.553,-0.7542,0.2078,-0.1844,-0.1119,-77.4,2.25,-33.3,11.43,-0.49,-5.3,-0.5531,-2.4053,-1.1214,-36.375,36.75,31.0,26.75,51.3125,-176.1875,0
1776971768.296,9.2464,-1.7478,-2.7366,-0.1242,2.8578,-2.3153,-9.3,20.25,-198.0,7.7907,3.553,-0.7542,0.2078,-0.1844,-0.1119,-77.4,2.25,-33.3,11.43,-0.49,-5.3,-0.5531,-2.4053,-1.1214,-36.375,36.75,31.0,27.5625,50.0,-175.5625,0
1776971768.301,9.0453,-1.8124,-2.296,-0.0477,2.8272,-2.2495,-9.3,20.25,-198.0,7.501,3.486,-1.0223,0.3067,-0.1697,-0.0895,-77.4,0.75,-34.05,11.25,-0.66,-5.61,-0.1473,-2.2242,-0.9839,-36.375,36.75,31.0,27.5625,50.0,-175.5625,0
1776971768.306,9.0453,-1.8124,-2.296,-0.0477,2.8272,-2.2495,-9.3,20.25,-198.0,7.501,3.486,-1.0223,0.3067,-0.1697,-0.0895,-77.4,0.75,-34.05,11.25,-0.66,-5.61,0.2193,-2.1108,-0.805,-36.375,36.75,31.0,27.9375,48.8125,-175.25,0
1776971768.312,9.0285,-1.9537,-2.0997,-0.0266,2.8269,-2.1637,-9.6,21.9,-197.1,7.2401,3.4644,-0.9218,0.3296,-0.1394,-0.0546,-75.45,2.7,-34.35,11.51,-1.08,-6.36,0.2193,-2.1108,-0.805,-36.375,36.75,31.0,27.875,47.625,-175.25,0
1776971768.321,9.256,-2.1979,-2.1883,-0.0336,2.7899,-2.0547,-11.25,22.05,-195.15,7.1826,3.213,-0.8068,0.3238,-0.1077,-0.0059,-78.75,0.9,-33.45,12.03,-2.01,-7.65,0.4832,-2.0671,-0.6174,-36.375,36.75,31.0,27.5,46.4375,-175.4375,0
1776971768.331,9.5122,-2.7629,-2.0063,-0.1567,2.7041,-1.9577,-10.5,20.25,-194.85,7.2856,3.3447,-0.7207,0.324,-0.0906,0.0727,-75.45,3.45,-32.55,11.6,-2.88,-7.72,0.6283,-2.1577,-0.4309,-36.375,36.75,31.0,27.5,46.4375,-175.4375,0
1776971768.336,9.5122,-2.7629,-2.0063,-0.1567,2.7041,-1.9577,-10.5,20.25,-194.85,7.3789,3.1053,-0.6584,0.324,-0.0906,0.0727,-75.45,3.45,-32.55,11.6,-2.88,-7.72,0.6283,-2.1577,-0.4309,-36.375,36.75,31.0,27.125,45.1875,-175.6875,0
1776971768.341,10.0748,-3.1508,-1.6688,-0.2825,2.4941,-1.8532,-10.95,21.45,-194.25,7.3789,3.1053,-0.6584,0.3024,-0.0991,0.1487,-75.45,3.45,-32.55,11.28,-4.02,-8.17,0.6174,-2.2526,-0.3087,-36.875,31.5,31.6875,27.125,45.1875,-175.6875,0
1776971768.346,10.0748,-3.1508,-1.6688,-0.2825,2.4941,-1.8532,-10.95,21.45,-194.25,7.4891,2.9281,-0.5578,0.3024,-0.0991,0.1487,-75.45,3.45,-32.55,11.28,-4.02,-8.17,0.6174,-2.2526,-0.3087,-36.875,31.5,31.6875,18.5,43.875,-175.875,0
1776971768.351,10.3334,-3.3255,-1.5419,-0.5129,2.2471,-1.764,-9.75,20.25,-192.3,7.4891,2.9281,-0.5578,0.2366,-0.1194,0.2094,-77.25,2.85,-33.45,10.91,-5.48,-8.44,0.3425,-2.3126,-0.2487,-36.875,31.5,31.6875,18.5,43.875,-175.875,0
1776971768.359,10.0245,-3.2513,-1.0798,-0.8394,2.1053,-1.7174,-9.75,20.25,-192.3,7.4268,2.8108,-0.4645,0.1532,-0.1178,0.2627,-77.25,2.85,-33.45,10.77,-5.92,-8.51,-0.096,-2.342,-0.2149,-36.875,31.5,31.6875,18.4375,42.5625,-175.75,0
1776971768.363,10.0245,-3.2513,-1.0798,-0.8394,2.1053,-1.7174,-9.75,20.25,-192.3,7.4268,2.8108,-0.4645,0.1532,-0.1178,0.2627,-77.25,2.85,-33.45,10.77,-5.92,-8.51,-0.096,-2.342,-0.2149,-36.875,31.5,31.6875,18.5,41.25,-175.4375,0
1776971768.372,9.5577,-2.7533,-0.7207,-1.1501,2.1232,-1.7349,-7.05,20.7,-191.1,7.4771,2.8874,-0.4453,0.0767,-0.097,0.3304,-76.2,1.5,-33.6,10.6,-6.17,-8.4,-0.6032,-2.3573,-0.1898,-36.875,31.5,31.6875,18.6875,39.9375,-174.875,0
1776971768.381,9.5193,-2.1715,-0.7422,-1.4059,2.2114,-1.8106,-4.8,22.65,-187.8,7.5465,2.9544,-0.5028,0.02,-0.1029,0.3928,-76.2,2.25,-34.8,10.31,-5.79,-7.71,-1.0756,-2.3736,-0.1462,-36.875,31.5,31.6875,18.6875,39.9375,-174.875,0
1776971768.386,9.9048,-1.7957,-0.8523,-1.4941,2.2287,-1.8599,-4.8,22.65,-187.8,7.6327,3.1939,-0.5435,-0.0346,-0.1005,0.4466,-76.2,2.25,-34.8,10.31,-5.79,-7.71,-1.0756,-2.3736,-0.1462,-36.875,31.5,31.6875,18.6875,39.9375,-174.875,0
1776971768.391,9.9048,-1.7957,-0.8523,-1.4941,2.2287,-1.8599,-6.3,22.95,-185.7,7.6327,3.1939,-0.5435,-0.0346,-0.1005,0.4466,-78.45,2.25,-33.6,9.8,-5.29,-7.08,-1.441,-2.4784,-0.0447,-36.0625,27.75,34.25,19.0,38.5625,-174.125,0
1776971768.396,10.1682,-0.9792,-0.6105,-1.558,2.2031,-1.9209,-6.3,22.95,-185.7,7.7644,3.3806,-0.3735,-0.0895,-0.0861,0.4868,-78.45,2.25,-33.6,9.8,-5.29,-7.08,-1.441,-2.4784,-0.0447,-36.0625,27.75,34.25,19.0,38.5625,-174.125,0
1776971768.401,10.1682,-0.9792,-0.6105,-1.558,2.2031,-1.9209,-6.9,25.5,-184.8,7.7644,3.3806,-0.3735,-0.0895,-0.0861,0.4868,-77.4,1.5,-33.6,9.33,-5.0,-6.5,-1.6166,-2.5733,0.1244,-36.0625,27.75,34.25,19.4375,37.1875,-173.4375,0
1776971768.407,10.2568,0.1915,-0.0431,-1.6315,2.1472,-1.9236,-6.9,25.5,-184.8,7.9631,3.6081,-0.1413,-0.17,-0.0592,0.5212,-77.4,1.5,-33.6,9.33,-5.0,-6.5,-1.6526,-2.5351,0.3054,-36.0625,27.75,34.25,20.0,35.8125,-172.75,0
1776971768.412,10.2568,0.1915,-0.0431,-1.6315,2.1472,-1.9236,-6.9,25.5,-184.8,7.9631,3.6081,-0.1413,-0.17,-0.0592,0.5212,-76.95,1.05,-33.6,9.39,-4.94,-6.34,-1.6526,-2.5351,0.3054,-36.0625,27.75,34.25,20.625,34.5,-172.1875,0
1776971768.421,10.896,0.7374,-0.1724,-1.5559,2.0755,-1.9025,-6.9,25.5,-184.8,8.0804,3.699,0.0479,-0.2406,-0.0488,0.5446,-76.8,0.9,-33.45,9.62,-4.62,-6.12,-1.6144,-2.4129,0.4854,-36.0625,27.75,34.25,21.375,33.3125,-171.6875,0
1776971768.431,11.3461,0.929,-0.3017,-1.4765,1.8922,-1.8162,-6.45,33.75,-184.5,8.1116,3.881,-0.0335,-0.3134,-0.0392,0.5724,-76.8,0.9,-33.45,9.65,-4.73,-5.97,-1.5283,-2.3257,0.6643,-36.0625,27.75,34.25,21.375,33.3125,-171.6875,0
1776971768.436,11.564,0.7566,-0.5148,-1.3837,1.8106,-1.7789,-6.45,33.75,-184.5,8.0493,4.1468,-0.0359,-0.4327,-0.0317,0.5881,-76.8,0.9,-33.45,9.65,-4.73,-5.97,-1.5283,-2.3257,0.6643,-36.0625,27.75,34.25,22.125,32.125,-171.3125,0
1776971768.441,11.564,0.7566,-0.5148,-1.3837,1.8106,-1.7789,-7.5,40.05,-185.55,8.0493,4.1468,-0.0359,-0.4327,-0.0317,0.5881,-77.7,2.25,-32.55,9.72,-4.82,-5.89,-1.4148,-2.2329,0.8138,-30.5625,23.5625,41.875,22.125,32.125,-171.3125,0
1776971768.446,11.4778,0.656,-0.5602,-1.1255,1.6062,-1.6462,-7.5,40.05,-185.55,8.102,4.3048,-0.2131,-0.5939,-0.0032,0.6094,-77.7,2.25,-32.55,9.72,-4.82,-5.89,-1.4148,-2.2329,0.8138,-30.5625,23.5625,41.875,22.125,32.125,-171.3125,0
1776971768.451,11.4778,0.656,-0.5602,-1.1255,1.6062,-1.6462,-6.6,43.95,-187.2,8.3653,4.5274,-0.7733,-0.5939,-0.0032,0.6094,-77.7,2.25,-32.55,9.45,-4.76,-5.02,-1.3614,-2.1129,0.9065,-30.5625,23.5625,41.875,22.9375,31.0625,-171.0,0
1776971768.458,10.3358,1.075,-1.1229,-1.2481,1.7459,-1.6132,-7.5,50.25,-189.75,8.3653,4.5274,-0.7733,-0.7525,0.0442,0.6363,-77.7,2.25,-32.55,9.12,-3.93,-3.95,-1.345,-1.9984,0.9687,-30.5625,23.5625,41.875,23.75,30.0625,-170.625,0
1776971768.462,10.3358,1.075,-1.1229,-1.2481,1.7459,-1.6132,-7.5,50.25,-189.75,8.5569,4.9129,-1.482,-0.7762,0.1058,0.6702,-77.7,1.5,-32.85,9.12,-3.93,-3.95,-1.345,-1.9984,0.9687,-30.5625,23.5625,41.875,24.625,29.125,-170.4375,0
1776971768.471,8.7747,0.261,-2.3391,-1.518,1.1482,-1.3323,-7.5,50.25,-189.75,8.5066,5.1284,-1.8148,-0.7533,0.1212,0.7173,-77.4,1.95,-31.8,8.8,-3.62,-2.87,-1.2403,-1.8839,1.117,-30.5625,23.5625,41.875,25.625,28.3125,-170.3125,0
1776971768.482,9.8904,-0.2514,-1.1779,-1.4597,1.3105,-1.2156,-7.5,50.25,-189.75,8.3007,5.4468,-1.5874,-0.8122,0.1236,0.7541,-77.4,2.25,-31.35,8.66,-5.3,-2.13,-1.0341,-1.6908,1.345,-30.5625,23.5625,41.875,25.625,28.3125,-170.3125,0
1776971768.486,12.2942,-1.2953,-0.3496,-1.0408,0.7829,-0.9097,-4.05,67.95,-199.2,8.3007,5.4468,-1.5874,-0.8122,0.1236,0.7541,-77.4,2.25,-31.35,8.66,-5.3,-2.13,-1.0341,-1.6908,1.345,-30.5625,23.5625,41.875,25.625,28.3125,-170.3125,0
1776971768.492,12.2942,-1.2953,-0.3496,-1.0408,0.7829,-0.9097,-4.05,67.95,-199.2,8.406,6.1148,-1.3096,-0.829,0.1172,0.793,-77.55,0.15,-33.75,9.11,-5.79,-2.13,-0.9479,-1.4094,1.4999,-23.5,19.0,46.6875,26.625,27.6875,-170.3125,0
1776971768.496,10.987,-0.5602,1.7382,-1.4757,0.8162,-0.684,-0.15,74.4,-204.6,8.406,6.1148,-1.3096,-0.829,0.1172,0.793,-77.55,0.15,-33.75,9.11,-5.79,-2.13,-0.9479,-1.4094,1.4999,-23.5,19.0,46.6875,26.625,27.6875,-170.3125,0
1776971768.501,10.987,-0.5602,1.7382,-1.4757,0.8162,-0.684,-0.15,74.4,-204.6,8.6503,6.5529,-1.1181,-0.7466,0.0877,0.8306,-77.4,1.05,-31.8,9.84,-5.65,-1.97,-1.0876,-1.0941,1.5555,-23.5,19.0,46.6875,27.6875,27.25,-170.1875,0
1776971768.506,10.6039,-0.1437,1.4222,-1.7882,0.7981,-0.469,0.3,79.5,-205.8,8.6503,6.5529,-1.1181,-0.7466,0.0877,0.8306,-77.4,1.05,-31.8,9.84,-5.65,-1.97,-1.3123,-0.9228,1.6188,-23.5,19.0,46.6875,28.8125,26.875,-169.9375,0
1776971768.512,11.4156,-0.4381,2.0997,-1.7587,0.7397,-0.2851,0.3,79.5,-205.8,8.6526,6.845,-0.826,-0.6478,0.0714,0.854,-78.45,0.3,-31.05,10.03,-5.26,-1.6,-1.3123,-0.9228,1.6188,-23.5,19.0,46.6875,30.0,26.625,-169.6875,0
1776971768.522,11.0636,-0.4334,2.5929,-1.7701,0.4978,-0.069,3.15,82.8,-211.5,8.6646,6.924,-0.6871,-0.6027,0.0882,0.8791,-78.45,0.3,-31.05,9.63,-4.56,0.02,-1.3843,-0.7985,1.7104,-23.5,19.0,46.6875,30.0,26.625,-169.6875,0
1776971768.532,11.212,0.0024,2.8467,-1.8237,0.234,0.1689,3.15,82.8,-211.5,8.7676,6.6702,-1.0151,-0.5745,0.1623,0.886,-78.3,1.35,-30.9,9.23,-4.22,0.99,-1.2959,-0.6469,1.789,-23.5,19.0,46.6875,31.1875,26.4375,-169.5,0
1776971768.536,11.212,0.0024,2.8467,-1.8237,0.234,0.1689,8.1,90.45,-216.3,8.7676,6.6702,-1.0151,-0.5745,0.1623,0.886,-78.3,1.35,-30.9,9.23,-4.22,0.99,-1.2959,-0.6469,1.789,-23.5,19.0,46.6875,32.375,26.4375,-169.375,0
1776971768.542,11.3342,0.2035,2.2553,-2.0789,0.9958,0.3301,8.1,90.45,-216.3,8.8777,6.2752,-1.9034,-0.5433,0.2204,0.8644,-78.3,1.35,-30.9,9.19,-3.9,1.79,-1.1857,-0.3752,1.837,-16.5625,15.0625,47.375,32.375,26.4375,-169.375,0
1776971768.546,11.3342,0.2035,2.2553,-2.0789,0.9958,0.3301,9.3,96.75,-217.65,8.8777,6.2752,-1.9034,-0.5433,0.2204,0.8644,-78.3,1.35,-30.9,9.19,-3.9,1.79,-1.1857,-0.3752,1.837,-16.5625,15.0625,47.375,32.375,26.4375,-169.375,0
1776971768.551,10.9535,0.3472,1.2186,-2.1634,0.3938,0.562,9.3,96.75,-217.65,9.0429,5.6575,-2.7246,-0.5348,0.218,0.8154,-78.15,0.75,-31.05,9.52,-3.48,2.39,-1.0974,-0.0175,1.861,-16.5625,15.0625,47.375,33.5625,26.5625,-169.25,0
1776971768.558,10.9535,0.3472,1.2186,-2.1634,0.3938,0.562,11.55,99.3,-217.95,8.8992,4.9704,-2.7054,-0.5974,0.1713,0.7392,-78.15,0.75,-31.05,10.0,-3.09,2.3,-1.0025,0.4222,1.8686,-16.5625,15.0625,47.375,34.6875,27.0,-169.1875,0
1776971768.563,11.2384,0.8116,1.0271,-1.9478,-0.3128,0.7602,11.55,99.3,-217.95,8.8992,4.9704,-2.7054,-0.5974,0.1713,0.7392,-77.25,0.45,-30.9,10.0,-3.09,2.3,-1.0025,0.4222,1.8686,-16.5625,15.0625,47.375,35.8125,27.6875,-169.1875,0
1776971768.572,11.4251,1.7813,1.5251,-1.7952,-1.1914,0.8767,10.35,100.65,-219.15,8.6957,4.5059,-2.0351,-0.7674,0.1394,0.692,-78.3,-1.35,-31.2,10.69,-2.97,1.9,-0.8727,0.8258,1.8937,-16.5625,15.0625,47.375,36.9375,28.5,-169.3125,0
1776971768.582,10.9104,2.3367,2.6264,-1.5218,-1.9145,1.0416,10.95,99.45,-218.55,8.2121,4.0773,-1.4102,-0.8958,0.1114,0.7093,-78.0,-0.9,-29.7,11.97,-1.81,0.57,-0.7538,1.1585,1.9242,-16.5625,15.0625,47.375,36.9375,28.5,-169.3125,0
1776971768.587,10.9104,2.3367,2.6264,-1.5218,-1.9145,1.0416,10.95,99.45,-218.55,8.2001,4.5586,-1.5179,-0.793,0.1727,0.7789,-78.0,-0.9,-29.7,11.97,-1.81,0.57,-0.7538,1.1585,1.9242,-16.5625,15.0625,47.375,36.9375,28.5,-169.3125,0
1776971768.592,9.3948,3.0071,3.3662,-1.0677,-2.1378,1.0016,10.95,99.45,-218.55,8.2001,4.5586,-1.5179,-0.793,0.1727,0.7789,-78.9,0.0,-28.05,-2.29,-0.4,-4.34,-0.6283,1.237,1.9177,-13.5625,12.5,47.375,38.0,29.375,-169.4375,0
1776971768.597,9.3948,3.0071,3.3662,-1.0677,-2.1378,1.0016,7.95,98.55,-220.5,8.7005,4.9895,-1.585,-0.5758,0.3011,0.9284,-78.9,0.0,-28.05,-2.29,-0.4,-4.34,-0.6283,1.237,1.9177,-13.5625,12.5,47.375,38.0,29.375,-169.4375,0
1776971768.602,7.501,5.5019,2.9664,-0.2803,-1.9534,0.6915,7.95,98.55,-220.5,8.7005,4.9895,-1.585,-0.5758,0.3011,0.9284,-77.25,0.45,-28.65,10.25,9.94,-10.6,0.3054,1.0559,2.2438,-13.5625,12.5,47.375,39.1875,30.125,-170.25,0
1776971768.607,7.501,5.5019,2.9664,-0.2803,-1.9534,0.6915,5.55,101.4,-220.65,10.1514,4.3886,-1.6161,-0.4082,0.4783,1.1229,-77.25,0.45,-28.65,10.25,9.94,-10.6,0.6883,1.6144,2.9987,-13.5625,12.5,47.375,40.6875,31.3125,-171.5625,0
1776971768.612,6.5888,6.5266,4.4125,-0.1135,-1.3504,0.1079,5.55,101.4,-220.65,10.1514,4.3886,-1.6161,-0.4082,0.4783,1.1229,-77.25,0.45,-28.65,-10.37,-1.48,-10.7,0.6883,1.6144,2.9987,-13.5625,12.5,47.375,41.9375,32.4375,-172.1875,0
1776971768.622,10.9391,8.8202,2.2984,-0.6182,-0.5121,-0.5007,4.65,105.3,-220.5,11.6574,3.2226,-0.5291,-0.4884,0.3813,1.3225,-77.25,-0.15,-28.2,5.04,19.75,-14.33,-0.1178,1.6886,2.4151,-13.5625,12.5,47.375,42.6875,33.4375,-172.0625,0
1776971768.632,14.9757,9.2392,0.1006,-0.1966,-0.0432,-0.1916,1.8,110.25,-221.85,12.7491,1.6592,-0.5052,-0.6275,0.2942,1.4973,-77.25,-0.15,-28.2,4.78,21.25,-0.58,-0.913,1.729,1.1617,-13.5625,12.5,47.375,42.6875,33.4375,-172.0625,0
1776971768.637,14.9757,9.2392,0.1006,-0.1966,-0.0432,-0.1916,-2.85,115.05,-220.8,16.0483,2.5019,-3.6129,-0.2166,0.336,1.793,-77.25,-0.15,-28.2,4.78,21.25,-0.58,-0.913,1.729,1.1617,-13.5625,12.5,47.375,42.6875,33.4375,-172.0625,0
1776971768.642,16.35,7.9799,-0.1293,0.2006,0.2502,0.3163,-2.85,115.05,-220.8,16.0483,2.5019,-3.6129,-0.2166,0.336,1.793,-78.3,-1.35,-28.2,14.98,22.35,-9.22,-0.2105,2.9823,0.7101,-13.875,12.6875,46.5625,43.0,35.125,-172.0,0
1776971768.647,16.35,7.9799,-0.1293,0.2006,0.2502,0.3163,-2.85,115.05,-220.8,16.8432,5.2577,-4.051,-0.4399,0.0352,1.9164,-78.3,-1.35,-28.2,14.98,22.35,-9.22,-0.2105,2.9823,0.7101,-13.875,12.6875,46.5625,43.0,35.125,-172.0,0
1776971768.652,17.8919,3.6655,-0.0359,0.9595,0.299,0.591,-2.85,115.05,-220.8,16.8432,5.2577,-4.051,-0.4399,0.0352,1.9164,-78.0,-1.35,-28.2,16.21,1.89,-9.75,1.2719,1.7573,0.4091,-13.875,12.6875,46.5625,43.0,36.125,-172.8125,0
1776971768.66,14.2048,-3.96,-0.2203,1.6694,-0.219,0.8918,-4.8,139.2,-234.9,12.5911,6.1675,1.2282,-1.8151,-0.0666,1.5218,-78.0,-1.35,-28.65,11.42,-2.31,-6.0,1.6352,2.5558,0.6829,-13.875,12.6875,46.5625,43.0,37.625,-173.875,0
1776971768.665,14.2048,-3.96,-0.2203,1.6694,-0.219,0.8918,-1.95,154.65,-239.1,10.252,3.6655,4.5729,-2.0051,0.3272,1.1032,-77.7,-2.25,-27.75,11.42,-2.31,-6.0,1.6352,2.5558,0.6829,-13.875,12.6875,46.5625,42.875,38.5,-175.125,0
1776971768.672,12.0237,-7.3287,-2.8323,1.1415,0.2862,1.0024,-1.95,154.65,-239.1,9.8378,0.2777,3.948,-2.0051,0.3272,1.1032,-76.65,-2.25,-26.55,10.54,-7.18,-10.5,1.9177,1.5664,0.5727,-13.875,12.6875,46.5625,42.8125,38.75,-176.1875,0
1776971768.682,8.6646,-5.8299,-0.7183,1.9028,-0.8082,1.5551,-1.95,155.4,-238.05,8.5928,-2.6408,2.6959,-1.1074,0.6528,0.9449,-77.7,-3.9,-25.5,6.52,-9.5,-10.96,1.6046,0.4178,0.492,-13.875,12.6875,46.5625,42.8125,38.75,-176.1875,0
1776971768.687,7.8362,-3.1867,-0.1317,1.4631,-0.8466,1.3763,1.5,153.15,-239.55,8.5928,-2.6408,2.6959,-0.142,0.5375,0.9694,-77.7,-3.9,-25.5,6.52,-9.5,-10.96,1.6046,0.4178,0.492,-13.875,12.6875,46.5625,42.75,39.1875,-176.4375,0
1776971768.692,7.8362,-3.1867,-0.1317,1.4631,-0.8466,1.3763,1.5,153.15,-239.55,7.2568,-4.616,1.8076,-0.142,0.5375,0.9694,-115.05,-3.9,-25.5,6.3,-2.66,-8.41,0.4102,0.7712,0.0349,-16.0625,14.5,44.6875,42.75,39.1875,-176.4375,0
1776971768.697,8.3486,-2.308,3.5889,0.0413,-0.7743,1.3784,5.85,145.65,-234.45,7.2568,-4.616,1.8076,0.336,0.6872,1.0371,-76.65,-4.2,-25.5,6.3,-2.66,-8.41,0.4102,0.7712,0.0349,-16.0625,14.5,44.6875,42.6875,40.0,-176.125,0
1776971768.702,8.3486,-2.308,3.5889,0.0413,-0.7743,1.3784,5.85,145.65,-234.45,7.0653,-4.9368,0.5243,0.462,0.76,1.1064,-76.65,-4.2,-25.5,7.4,1.19,-8.02,-0.2662,1.5108,-0.2171,-16.0625,14.5,44.6875,42.6875,40.0,-176.125,0
1776971768.707,8.2959,-3.2226,6.3207,-0.663,-0.7973,1.2788,5.85,145.65,-234.45,7.0653,-4.9368,0.5243,0.462,0.76,1.1064,-76.65,-4.2,-25.5,7.4,1.19,-8.02,-0.2411,1.2992,-0.1571,-16.0625,14.5,44.6875,42.625,40.6875,-175.875,0
1776971768.713,8.2959,-3.2226,6.3207,-0.663,-0.7973,1.2788,7.8,109.65,-224.55,7.7452,-3.8116,-0.4429,0.0405,0.7445,1.1556,-77.4,-4.2,-24.3,7.98,2.25,-6.93,-0.2411,1.2992,-0.1571,-16.0625,14.5,44.6875,42.5625,41.0,-175.875,0
1776971768.722,8.5281,-3.6727,6.0047,-0.5303,-0.9228,1.282,11.4,89.7,-219.6,8.7364,-2.2362,-0.8404,-0.5742,0.546,1.2079,-77.4,-4.2,-24.3,6.93,0.99,-7.3,0.0011,0.4985,-0.0469,-16.0625,14.5,44.6875,42.625,41.0,-175.9375,0
1776971768.732,8.5138,-4.0941,5.1164,-0.3781,-1.0461,1.3006,13.95,76.2,-213.45,9.5361,-0.8547,-1.063,-1.1746,0.2702,1.2225,-77.4,-4.2,-24.3,6.98,0.6,-7.2,0.0415,-0.0022,0.0818,-16.0625,14.5,44.6875,42.625,41.0,-175.9375,0
1776971768.737,9.6582,-2.5618,3.0813,-0.4932,-0.91,1.2188,13.95,76.2,-213.45,9.5361,-0.8547,-1.063,-1.1746,0.2702,1.2225,-78.45,-5.4,-23.25,6.98,0.6,-7.2,0.0415,-0.0022,0.0818,-16.0625,14.5,44.6875,42.625,41.0,-175.9375,0
1776971768.742,9.6582,-2.5618,3.0813,-0.4932,-0.91,1.2188,16.05,67.65,-207.75,9.7971,0.3136,-0.4094,-1.6174,0.077,1.1655,-78.45,-5.4,-23.25,6.11,0.24,-8.04,-0.1036,-0.4767,0.1669,-18.25,16.0,42.6875,42.75,40.75,-175.9375,0
1776971768.747,9.56,-1.5347,0.7733,-0.5497,-0.6901,1.104,16.05,67.65,-207.75,9.7971,0.3136,-0.4094,-1.6174,0.077,1.1655,-77.7,-6.15,-22.95,6.11,0.24,-8.04,-0.1036,-0.4767,0.1669,-18.25,16.0,42.6875,42.75,40.75,-175.9375,0
1776971768.752,9.56,-1.5347,0.7733,-0.5497,-0.6901,1.104,18.15,62.55,-205.2,9.8713,0.3089,1.2186,-1.8135,0.0362,1.0496,-77.7,-6.15,-22.95,6.29,0.27,-8.04,-0.0698,-0.4178,0.1538,-18.25,16.0,42.6875,42.875,40.5,-176.0,0
1776971768.76,10.2304,-0.4788,-0.2777,-0.7647,-0.5644,0.9105,18.15,62.55,-205.2,9.8976,0.1221,2.545,-1.639,0.0727,0.9214,-77.4,-5.85,-24.0,6.49,0.16,-7.92,0.0491,0.1538,0.0404,-18.25,16.0,42.6875,42.875,40.625,-176.0625,0
1776971768.765,10.149,0.6608,-0.1891,-0.9545,-0.3357,0.7589,18.15,62.55,-205.2,9.8976,0.1221,2.545,-1.639,0.0727,0.9214,-76.95,-4.2,-22.5,6.49,0.16,-7.92,0.0491,0.1538,0.0404,-18.25,16.0,42.6875,42.8125,40.8125,-176.125,0
1776971768.772,10.149,0.6608,-0.1891,-0.9545,-0.3357,0.7589,16.2,58.05,-200.85,9.663,-0.1867,3.0502,-1.2894,0.2134,0.8015,-76.95,-5.85,-23.25,6.43,0.17,-7.88,0.1298,0.36,0.012,-18.25,16.0,42.6875,42.75,41.0,-176.1875,0
1776971768.782,8.8753,-0.3711,-0.2298,-0.9699,-0.1599,0.5596,14.25,56.4,-201.75,9.4499,0.2801,3.2417,-0.8998,0.2944,0.6869,-76.95,-5.85,-23.25,6.32,0.13,-7.8,0.2258,0.4025,0.0055,-18.25,16.0,42.6875,42.75,41.0,-176.1875,0
1776971768.787,9.3613,-1.1564,0.1053,-0.8575,0.0965,0.3669,14.25,56.4,-201.75,9.4499,0.2801,3.2417,-0.8998,0.2944,0.6869,-78.3,-5.25,-22.35,6.32,0.13,-7.8,0.2258,0.4025,0.0055,-17.1875,16.25,43.875,42.75,41.25,-176.3125,0
1776971768.792,9.3613,-1.1564,0.1053,-0.6659,0.0189,0.3214,10.8,57.75,-200.1,9.3134,0.1293,2.9113,-0.6488,0.4141,0.5844,-78.3,-5.25,-22.35,6.42,0.17,-7.69,0.24,0.3894,-0.0022,-17.1875,16.25,43.875,42.75,41.25,-176.3125,0
1776971768.797,9.6007,-1.0199,0.3543,-0.6659,0.0189,0.3214,10.8,57.75,-200.1,9.323,0.1508,2.2673,-0.6488,0.4141,0.5844,-78.3,-5.25,-22.35,6.42,0.17,-7.69,0.24,0.3894,-0.0022,-17.1875,16.25,43.875,42.625,41.5,-176.4375,0
1776971768.802,9.5433,-0.9912,1.4772,-0.4053,-0.1447,0.3701,8.4,61.65,-201.0,9.323,0.1508,2.2673,-0.4815,0.4916,0.5295,-78.3,-5.25,-22.35,6.52,0.23,-7.63,0.2476,0.468,-0.0295,-17.1875,16.25,43.875,42.625,41.5,-176.4375,0
1776971768.807,9.5433,-0.9912,1.4772,-0.4053,-0.1447,0.3701,8.4,61.65,-201.0,9.244,0.0359,1.7597,-0.4815,0.4916,0.5295,-76.65,-4.95,-22.95,6.52,0.23,-7.63,0.216,0.5138,-0.0676,-17.1875,16.25,43.875,42.5625,41.75,-176.5,0
1776971768.813,9.3757,-1.506,2.1572,-0.1799,-0.2979,0.4242,7.05,63.15,-203.1,9.244,0.0359,1.7597,-0.3467,0.5177,0.4908,-76.65,-4.95,-22.95,6.7,0.36,-7.43,0.216,0.5138,-0.0676,-17.1875,16.25,43.875,42.4375,42.0,-176.5625,0
1776971768.822,9.153,-2.2984,2.8611,-0.1998,-0.376,0.4876,7.05,63.15,-203.1,9.0644,-0.6249,1.6137,-0.307,0.5449,0.4338,-76.65,-4.95,-22.95,6.46,0.41,-7.3,0.1494,0.4396,-0.0862,-17.1875,16.25,43.875,42.4375,42.0,-176.5625,0
1776971768.832,9.2105,-3.2872,3.1125,-0.4069,-0.4525,0.5516,5.55,67.65,-207.15,9.4284,-1.2378,1.5778,-0.4434,0.5348,0.3677,-78.45,-6.9,-22.5,6.22,0.3,-7.4,0.0894,0.3033,-0.0796,-17.1875,16.25,43.875,42.375,42.1875,-176.5625,0
1776971768.837,9.2105,-3.2872,3.1125,-0.4069,-0.4525,0.5516,5.55,67.65,-207.15,9.833,-1.8004,1.3886,-0.7368,0.4381,0.3179,-78.45,-4.65,-23.25,6.22,0.3,-7.4,0.0894,0.3033,-0.0796,-17.1875,16.25,43.875,42.375,42.1875,-176.5625,0
1776971768.842,9.5888,-3.1819,3.1316,-0.6342,-0.5201,0.6563,5.85,67.65,-205.65,9.833,-1.8004,1.3886,-0.7368,0.4381,0.3179,-78.45,-4.65,-23.25,5.91,0.32,-7.37,0.0382,0.168,-0.0611,-18.5625,16.375,42.6875,42.375,42.25,-176.5625,0
1776971768.847,9.5888,-3.1819,3.1316,-0.6342,-0.5201,0.6563,5.85,67.65,-205.65,10.0987,-2.0758,1.336,-1.1178,0.2966,0.2848,-78.0,-5.25,-22.35,5.91,0.32,-7.37,0.0382,0.168,-0.0611,-18.5625,16.375,42.6875,42.375,42.25,-176.5625,0
1776971768.852,9.7133,-2.9257,2.5331,-0.8447,-0.623,0.7453,7.35,68.4,-207.75,10.0987,-2.0758,1.336,-1.1178,0.2966,0.2848,-78.0,-5.25,-22.35,6.2,0.31,-7.6,-0.0415,0.1484,-0.0371,-18.5625,16.375,42.6875,42.3125,42.375,-176.5,0
1776971768.859,9.7133,-2.9257,2.5331,-0.8447,-0.623,0.7453,9.0,65.55,-206.55,10.1754,-2.0614,1.6592,-1.5012,0.1636,0.2515,-77.55,-6.75,-22.35,6.65,0.28,-7.56,-0.1047,0.2389,-0.0273,-18.5625,16.375,42.6875,42.375,42.5,-176.375,0
1776971768.864,9.9048,-2.9113,1.7023,-0.9979,-0.5582,0.7352,9.0,65.55,-206.55,9.8833,-1.3455,2.1572,-1.5012,0.1636,0.2515,-78.75,-4.8,-23.1,6.65,0.28,-7.56,-0.1047,0.2389,-0.0273,-18.5625,16.375,42.6875,42.375,42.625,-176.3125,0
1776971768.873,9.9886,-2.727,0.5267,-1.1748,-0.5116,0.6829,9.3,65.25,-206.55,9.8833,-1.3455,2.1572,-1.7912,0.1439,0.2289,-78.75,-4.8,-23.1,6.6,0.3,-7.52,-0.1516,0.2956,-0.0316,-18.5625,16.375,42.6875,42.375,42.8125,-176.1875,0
1776971768.883,9.7205,-2.2793,0.1532,-1.2444,-0.4306,0.5881,9.3,65.25,-206.55,9.7564,-1.2163,2.636,-1.9332,0.1314,0.2425,-77.55,-4.8,-20.55,6.65,0.19,-7.58,-0.144,0.2945,-0.0436,-18.5625,16.375,42.6875,42.375,42.8125,-176.1875,0
1776971768.887,9.7205,-2.2793,0.1532,-1.2444,-0.4306,0.5881,9.3,65.25,-206.55,9.5098,-0.8811,2.7438,-1.9622,0.1234,0.2491,-77.55,-4.8,-20.55,6.65,0.19,-7.58,-0.144,0.2945,-0.0436,-19.0,16.0625,42.6875,42.3125,43.0,-176.0625,0
1776971768.893,9.323,-1.6209,0.237,-1.25,-0.323,0.4549,10.95,64.65,-205.35,9.5098,-0.8811,2.7438,-1.9622,0.1234,0.2491,-77.55,-4.8,-20.55,6.5,0.08,-7.52,-0.1025,0.3556,-0.0698,-19.0,16.0625,42.6875,42.3125,43.0,-176.0625,0
1776971768.898,9.323,-1.6209,0.237,-1.25,-0.323,0.4549,10.95,64.65,-205.35,9.3398,-0.5914,2.5091,-1.9223,0.1007,0.2595,-78.0,-4.8,-20.85,6.5,0.08,-7.52,-0.1025,0.3556,-0.0698,-19.0,16.0625,42.6875,42.3125,43.25,-176.0,0
1776971768.903,9.2847,-1.5299,0.8619,-1.2441,-0.2001,0.3304,10.05,65.25,-207.6,9.3613,-0.2179,2.217,-1.9223,0.1007,0.2595,-78.0,-4.8,-20.85,6.53,0.29,-7.44,-0.0535,0.4396,-0.0862,-19.0,16.0625,42.6875,42.3125,43.25,-176.0,0
1776971768.909,9.3278,-1.2689,1.008,-1.287,-0.1455,0.2526,8.4,63.15,-205.65,9.3613,-0.2179,2.217,-1.8548,0.0624,0.2657,-78.0,-4.8,-20.85,6.46,0.38,-7.31,-0.0338,0.4811,-0.0938,-19.0,16.0625,42.6875,42.25,43.5,-175.875,0
1776971768.914,9.3278,-1.2689,1.008,-1.287,-0.1455,0.2526,8.4,63.15,-205.65,9.4619,0.0742,1.9082,-1.8173,0.0059,0.2795,-77.55,-4.8,-20.85,6.46,0.38,-7.31,-0.0338,0.4811,-0.0938,-19.0,16.0625,42.6875,42.1875,43.75,-175.8125,0
1776971768.922,9.1602,-0.8739,1.4293,-1.2116,-0.2747,0.2617,8.25,62.25,-207.3,9.3901,0.2274,1.9297,-1.8173,0.0059,0.2795,-77.55,-4.8,-20.85,6.67,0.43,-7.23,-0.0273,0.4767,-0.0971,-19.0,16.0625,42.6875,42.125,44.0,-175.75,0
1776971768.932,9.1075,-0.9026,0.7542,-1.0006,-0.4383,0.283,8.25,62.25,-207.3,9.0644,0.2993,2.1261,-1.8666,-0.0333,0.3056,-76.2,-3.9,-21.45,6.65,0.48,-7.15,-0.0371,0.4461,-0.0905,-19.0,16.0625,42.6875,42.125,44.0,-175.75,0
1776971768.937,9.0429,-1.3001,1.6233,-0.8681,-0.3203,0.2785,8.25,62.25,-207.3,9.0644,0.2993,2.1261,-1.8666,-0.0333,0.3056,-77.7,-5.4,-21.75,6.65,0.48,-7.15,-0.0371,0.4461,-0.0905,-19.0,16.0625,42.6875,42.125,44.1875,-175.625,0
1776971768.942,9.0429,-1.3001,1.6233,-0.8681,-0.3203,0.2785,8.25,62.25,-207.3,9.1123,0.328,2.4517,-1.8293,-0.0362,0.3038,-77.7,-5.4,-21.75,6.64,0.58,-7.17,-0.0556,0.3862,-0.0785,-19.375,16.375,42.375,42.125,44.1875,-175.625,0
1776971768.947,9.4164,-1.8435,1.1325,-0.8607,-0.311,0.2867,8.25,62.25,-207.3,9.1123,0.328,2.4517,-1.8293,-0.0362,0.3038,-78.75,-3.3,-21.9,6.64,0.58,-7.17,-0.0556,0.3862,-0.0785,-19.375,16.375,42.375,42.125,44.1875,-175.625,0
1776971768.952,9.4164,-1.8435,1.1325,-0.8607,-0.311,0.2867,6.3,62.7,-209.55,9.0812,0.4788,2.8036,-1.7219,-0.0093,0.2918,-78.75,-3.3,-21.9,7.13,0.88,-6.96,-0.0829,0.3174,-0.0458,-19.375,16.375,42.375,42.0625,44.375,-175.5625,0
1776971768.961,9.2943,-1.9417,0.9313,-0.866,-0.2414,0.3112,6.9,63.3,-209.4,9.3877,0.4573,3.1101,-1.7219,-0.0093,0.2918,-77.55,-4.5,-21.6,6.61,0.6,-6.97,-0.1374,0.2433,0.0164,-19.375,16.375,42.375,42.125,44.5,-175.5,0
1776971768.966,9.2943,-1.9417,0.9313,-0.866,-0.2414,0.3112,6.9,63.3,-209.4,9.3877,0.4573,3.1101,-1.5154,0.0104,0.2958,-77.4,-4.65,-21.45,6.61,0.6,-6.97,-0.1374,0.2433,0.0164,-19.375,16.375,42.375,42.1875,44.5625,-175.4375,0
1776971768.973,9.6055,-2.0399,0.4621,-0.8404,-0.3104,0.3437,7.05,64.65,-209.55,9.4092,0.5076,3.0813,-1.2782,0.0253,0.2979,-77.4,-4.65,-21.45,7.04,0.75,-7.15,-0.2182,0.1254,0.0785,-19.375,16.375,42.375,42.3125,44.625,-175.3125,0
1776971768.983,9.6534,-1.8316,0.6105,-0.8322,-0.3952,0.3872,7.95,64.05,-210.15,9.4284,0.4262,2.8132,-1.0459,0.025,0.2891,-77.4,-4.65,-21.45,6.64,0.51,-7.07,-0.2563,0.0469,0.0916,-19.375,16.375,42.375,42.3125,44.625,-175.3125,0
1776971768.988,9.5481,-1.7645,0.6416,-0.7906,-0.4301,0.3813,7.95,64.05,-210.15,9.4284,0.4262,2.8132,-1.0459,0.025,0.2891,-77.25,-3.6,-21.9,6.64,0.51,-7.07,-0.2563,0.0469,0.0916,-19.375,16.375,42.375,42.3125,44.625,-175.3125,0
1776971768.993,9.5481,-1.7645,0.6416,-0.7906,-0.4301,0.3813,7.95,64.05,-210.15,9.3589,0.4429,2.4636,-0.8577,0.0493,0.2896,-77.25,-3.6,-21.9,6.72,0.44,-6.79,-0.2749,-0.0098,0.0916,-21.1875,15.25,43.1875,42.4375,44.625,-175.1875,0
1776971768.998,9.3565,-1.336,0.656,-0.756,-0.3512,0.3301,7.95,64.05,-210.15,9.3589,0.4429,2.4636,-0.8577,0.0493,0.2896,-77.25,-3.6,-21.9,6.72,0.44,-6.79,-0.2749,-0.0098,0.0916,-21.1875,15.25,43.1875,42.4375,44.625,-175.1875,0
1776971769.003,9.3565,-1.336,0.656,-0.756,-0.3512,0.3301,7.95,64.05,-210.15,9.2895,0.3496,2.1883,-0.7088,0.0642,0.2806,-77.25,-3.6,-21.9,5.88,0.6,-7.78,-0.3163,-0.0633,0.1462,-21.1875,15.25,43.1875,42.5625,44.5625,-175.125,0
1776971769.009,9.3039,-1.1612,0.656,-0.7099,-0.2505,0.2657,7.8,63.9,-208.2,9.3015,0.261,2.1261,-0.6073,0.0663,0.2787,-76.65,-3.9,-20.25,6.38,0.54,-7.05,-0.1713,0.0262,0.1025,-21.1875,15.25,43.1875,42.6875,44.625,-175.0625,0
1776971769.014,9.3039,-1.1612,0.656,-0.7099,-0.2505,0.2657,7.8,63.9,-208.2,9.3015,0.261,2.1261,-0.6073,0.0663,0.2787,-76.65,-3.9,-20.25,6.38,0.54,-7.05,-0.1713,0.0262,0.1025,-21.1875,15.25,43.1875,42.75,44.75,-175.0625,0
1776971769.023,9.347,-0.6249,0.8092,-0.5569,-0.1687,0.2342,8.4,63.9,-210.0,9.3326,0.1939,1.9225,-0.5617,0.0549,0.287,-76.65,-4.95,-21.75,6.56,0.87,-6.91,-0.0567,0.204,0.0884,-21.1875,15.25,43.1875,52.5,44.8125,-175.125,0
1776971769.033,9.4978,-0.5914,0.9361,-0.3725,-0.1567,0.2417,7.8,64.2,-210.3,9.4475,0.1532,1.7693,-0.5438,0.0434,0.2936,-76.5,-4.05,-21.15,6.54,0.82,-6.95,-0.0284,0.2029,0.1178,-21.1875,15.25,43.1875,52.5,44.8125,-175.125,0
1776971769.038,9.7564,-1.4102,0.8236,-0.3365,-0.2241,0.2489,8.25,66.0,-211.5,9.7492,0.182,1.4964,-0.5438,0.0434,0.2936,-77.4,-4.95,-21.45,6.54,0.82,-6.95,-0.0284,0.2029,0.1178,-21.1875,15.25,43.1875,52.5,44.9375,-175.1875,0
1776971769.043,9.7564,-1.4102,0.8236,-0.3365,-0.2241,0.2489,8.25,66.0,-211.5,9.7492,0.182,1.4964,-0.5622,0.0322,0.2982,-77.4,-4.95,-21.45,6.78,0.65,-6.92,-0.0513,0.1494,0.1374,-20.875,16.1875,42.375,52.5,44.9375,-175.1875,0
1776971769.048,9.9599,-2.2936,0.4549,-0.3781,-0.3155,0.2926,8.25,66.0,-211.5,9.9599,0.3041,1.3168,-0.5622,0.0322,0.2982,-76.2,-4.2,-20.25,6.78,0.65,-6.92,-0.0513,0.1494,0.1374,-20.875,16.1875,42.375,52.5,45.0,-175.1875,0
1776971769.053,9.9599,-2.2936,0.4549,-0.3781,-0.3155,0.2926,8.25,66.0,-211.5,9.9599,0.3041,1.3168,-0.6001,0.0053,0.3035,-76.2,-4.2,-20.25,6.94,0.32,-7.31,-0.0938,0.1647,0.1451,-20.875,16.1875,42.375,52.5,45.0,-175.1875,0
1776971769.059,10.2232,-2.2218,0.3472,-0.4258,-0.4311,0.3445,7.95,64.8,-210.45,9.8617,0.3855,1.1636,-0.66,-0.0149,0.3099,-78.0,-3.6,-21.6,7.03,0.38,-7.2,-0.1113,0.1582,0.1178,-20.875,16.1875,42.375,52.5625,45.125,-175.1875,0
1776971769.064,9.8593,-1.8771,0.4812,-0.5049,-0.5353,0.377,7.95,64.8,-210.45,9.8617,0.3855,1.1636,-0.66,-0.0149,0.3099,-78.0,-3.6,-21.6,7.03,0.38,-7.2,-0.1113,0.1582,0.1178,-20.875,16.1875,42.375,52.625,45.25,-175.1875,0
1776971769.073,9.8593,-1.8771,0.4812,-0.5875,-0.5391,0.3762,8.85,63.9,-212.85,9.6534,0.3424,1.1875,-0.753,-0.024,0.2979,-78.0,-3.6,-21.6,7.04,0.35,-7.18,-0.1113,0.216,0.0851,-20.875,16.1875,42.375,52.6875,45.375,-175.125,0
1776971769.083,9.5433,-1.7526,0.6752,-0.6267,-0.4871,0.3603,8.7,63.0,-212.25,9.5577,0.3448,1.2977,-0.8535,-0.0357,0.2777,-77.7,-3.9,-20.7,7.13,0.37,-7.14,-0.0993,0.2378,0.0665,-20.875,16.1875,42.375,52.6875,45.375,-175.125,0
1776971769.088,9.5433,-1.7526,0.6752,-0.6267,-0.4871,0.3603,7.8,63.45,-211.65,9.6271,0.2035,1.4317,-0.9358,-0.0546,0.2526,-77.7,-3.9,-20.7,7.13,0.37,-7.14,-0.0993,0.2378,0.0665,-20.875,16.1875,42.375,52.6875,45.375,-175.125,0
1776971769.093,9.5433,-2.1476,0.6847,-0.6203,-0.4375,0.3437,7.8,63.45,-211.65,9.6271,0.2035,1.4317,-0.9358,-0.0546,0.2526,-77.7,-3.9,-20.7,6.91,0.5,-7.07,-0.0894,0.2029,0.0545,-21.5625,16.5,42.6875,52.8125,45.5,-175.125,0
1776971769.098,9.5433,-2.1476,0.6847,-0.6203,-0.4375,0.3437,9.9,63.9,-213.15,9.6319,-0.1077,1.6185,-0.9899,-0.0818,0.2438,-77.25,-4.5,-20.55,6.91,0.5,-7.07,-0.0894,0.2029,0.0545,-21.5625,16.5,42.6875,52.8125,45.5,-175.125,0
1776971769.103,9.7181,-1.9848,0.5411,-0.5497,-0.4159,0.3419,9.9,63.9,-213.15,9.6319,-0.1077,1.6185,-0.9899,-0.0818,0.2438,-77.25,-4.5,-20.55,6.85,0.62,-6.97,-0.0687,0.1942,0.0338,-21.5625,16.5,42.6875,52.8125,45.625,-175.0625,0
1776971769.108,9.7181,-1.9848,0.5411,-0.5497,-0.4159,0.3419,9.9,63.9,-213.15,9.6271,-0.261,1.9225,-1.0283,-0.1045,0.2457,-76.95,-4.95,-21.75,6.85,0.62,-6.97,-0.0818,0.1669,0.0545,-21.5625,16.5,42.6875,52.875,45.6875,-175.0625,0
1776971769.114,9.924,-2.047,0.6632,-0.5524,-0.4285,0.3341,9.9,63.9,-213.15,9.6271,-0.261,1.9225,-1.0283,-0.1045,0.2457,-76.95,-4.95,-21.75,6.47,0.76,-6.89,-0.0818,0.1669,0.0545,-21.5625,16.5,42.6875,53.0,45.75,-175.0625,0
1776971769.123,9.9814,-2.5235,0.6369,-0.5324,-0.4732,0.3387,10.05,63.0,-213.0,9.5672,-0.34,2.1524,-1.0563,-0.1156,0.2619,-77.4,-4.2,-20.7,6.63,0.43,-7.18,-0.1036,0.1462,0.0873,-21.5625,16.5,42.6875,53.0,45.75,-175.0625,0
1776971769.133,9.5888,-2.4373,0.5411,-0.4951,-0.5423,0.3392,9.75,63.3,-212.55,9.5792,-0.3472,2.32,-1.0435,-0.1148,0.2785,-77.7,-2.7,-21.45,7.09,0.47,-7.08,-0.0851,0.2618,0.0764,-21.5625,16.5,42.6875,53.0,45.9375,-175.0,0
1776971769.138,9.5888,-2.4373,0.5411,-0.4951,-0.5423,0.3392,10.05,63.75,-213.0,9.4978,-0.1939,2.2889,-1.0264,-0.1106,0.2931,-77.4,-4.2,-20.25,7.09,0.47,-7.08,-0.0851,0.2618,0.0764,-21.5625,16.5,42.6875,53.0625,46.125,-175.0,0
1776971769.143,9.3541,-2.7102,-0.1413,-0.4954,-0.5891,0.3472,10.05,63.75,-213.0,9.4978,-0.1939,2.2889,-1.0264,-0.1106,0.2931,-77.4,-4.2,-20.25,7.13,0.62,-6.9,-0.0884,0.3392,0.06,-20.5,15.75,42.0,53.0625,46.125,-175.0,0
1776971769.147,9.3541,-2.7102,-0.1413,-0.4954,-0.5891,0.3472,10.65,62.7,-213.45,9.2823,0.1245,2.15,-0.9843,-0.1058,0.3102,-77.7,-3.45,-20.25,7.13,0.62,-6.9,-0.0884,0.3392,0.06,-20.5,15.75,42.0,53.0625,46.125,-175.0,0
1776971769.152,9.5146,-2.6887,-0.0335,-0.5868,-0.5782,0.3475,10.65,62.7,-213.45,9.4906,0.2993,2.0063,-0.9843,-0.1058,0.3102,-77.7,-3.45,-20.25,6.87,0.52,-7.09,-0.0709,0.3229,0.0622,-20.5,15.75,42.0,53.0625,46.25,-175.0,0
1776971769.157,9.5146,-2.6887,-0.0335,-0.5868,-0.5782,0.3475,10.5,63.3,-213.0,9.4906,0.2993,2.0063,-0.927,-0.1074,0.3453,-77.7,-3.45,-20.25,6.87,0.52,-7.09,-0.0524,0.2673,0.0785,-20.5,15.75,42.0,53.0625,46.375,-175.0,0
1776971769.163,9.5074,-2.7605,-0.1676,-0.655,-0.5588,0.3368,10.5,63.3,-213.0,9.4715,0.4214,1.8986,-0.8655,-0.117,0.372,-77.7,-3.45,-20.25,6.9,0.6,-6.94,-0.0524,0.2673,0.0785,-20.5,15.75,42.0,53.0625,46.375,-175.0,0
1776971769.172,9.7707,-2.569,-0.4142,-0.6931,-0.5148,0.3264,10.5,63.3,-213.0,9.5146,0.5938,1.9465,-0.8655,-0.117,0.372,-77.25,-3.3,-20.55,7.05,0.59,-7.06,-0.0327,0.2716,0.0949,-20.5,15.75,42.0,53.0625,46.5,-175.0,0
1776971769.176,9.7707,-2.569,-0.4142,-0.6931,-0.5148,0.3264,10.8,61.5,-213.75,9.5146,0.5938,1.9465,-0.8015,-0.1026,0.3957,-77.25,-3.3,-20.55,7.05,0.59,-7.06,-0.0327,0.2716,0.0949,-20.5,15.75,42.0,53.0625,46.625,-175.0,0
1776971769.184,9.7276,-2.2314,-0.5171,-0.708,-0.5081,0.3016,10.65,60.15,-213.75,9.5481,0.5794,1.8196,-0.7194,-0.0957,0.4175,-77.25,-3.3,-20.55,7.06,0.59,-6.99,-0.0774,0.2258,0.1134,-20.5,15.75,42.0,53.0625,46.625,-175.0,0
1776971769.188,9.7276,-2.2314,-0.5171,-0.708,-0.5081,0.3016,10.65,60.15,-216.0,9.5481,0.5794,1.8196,-0.7194,-0.0957,0.4175,-77.7,-2.25,-20.7,7.06,0.59,-6.99,-0.0567,0.2225,0.1156,-21.875,15.75,42.375,53.0625,46.75,-175.0625,0
1776971769.194,9.7468,-1.7621,-0.4477,-0.6688,-0.4911,0.283,10.95,61.2,-213.45,9.6319,0.5698,1.6903,-0.6246,-0.0983,0.4319,-77.7,-2.25,-20.7,6.99,0.55,-6.86,-0.0567,0.2225,0.1156,-21.875,15.75,42.375,53.0625,46.75,-175.0625,0
1776971769.198,9.7468,-1.7621,-0.4477,-0.6542,-0.4732,0.2785,10.95,61.2,-213.45,9.6319,0.5698,1.6903,-0.6246,-0.0983,0.4319,-76.95,-4.2,-19.5,6.99,0.55,-6.86,-0.0491,0.2138,0.1058,-21.875,15.75,42.375,53.0,46.875,-175.0625,0
1776971769.203,9.8857,-1.4222,-0.1772,-0.6542,-0.4732,0.2785,11.25,60.0,-214.05,9.6702,0.6728,1.561,-0.5407,-0.0943,0.4487,-76.95,-4.2,-19.5,6.98,0.5,-6.87,-0.0491,0.2138,0.1058,-21.875,15.75,42.375,53.0,46.875,-175.0625,0
1776971769.208,9.8497,-1.0295,-0.1053,-0.5833,-0.4978,0.2992,11.25,60.0,-214.05,9.6702,0.6728,1.561,-0.5407,-0.0943,0.4487,-75.6,-2.4,-19.8,6.98,0.5,-6.87,-0.0491,0.1778,0.1113,-21.875,15.75,42.375,53.0,46.9375,-175.125,0
1776971769.214,9.8497,-1.0295,-0.1053,-0.5833,-0.4978,0.2992,9.6,60.9,-214.5,9.56,0.7805,1.6017,-0.4703,-0.0911,0.4626,-75.6,-2.4,-19.8,6.95,0.51,-6.9,-0.0491,0.1778,0.1113,-21.875,15.75,42.375,53.0,46.9375,-175.125,0
1776971769.223,9.7324,-1.0822,-0.1125,-0.4546,-0.5505,0.3251,9.6,60.9,-214.5,9.3901,0.8308,1.5586,-0.4093,-0.0871,0.465,-78.15,-4.65,-21.0,6.87,0.54,-6.86,-0.0338,0.1702,0.1124,-21.875,15.75,42.375,52.9375,47.0,-175.125,0
1776971769.227,9.73,-1.1516,0.1963,-0.3571,-0.5255,0.352,9.6,60.9,-214.5,9.3901,0.8308,1.5586,-0.4093,-0.0871,0.465,-78.15,-4.2,-19.95,6.87,0.54,-6.86,-0.0447,0.2007,0.1014,-21.875,15.75,42.375,52.9375,47.125,-175.1875,0
1776971769.234,9.73,-1.1516,0.1963,-0.3571,-0.5255,0.352,10.8,60.75,-216.6,9.3565,0.9122,1.5682,-0.3499,-0.0829,0.4636,-78.15,-4.2,-19.95,7.1,0.62,-6.85,-0.0447,0.2007,0.1014,-21.875,15.75,42.375,52.9375,47.125,-175.1875,0
1776971769.239,9.5529,-1.2474,-0.0575,-0.2427,-0.5449,0.3651,10.8,60.75,-216.6,9.2751,0.7949,1.6113,-0.3499,-0.0829,0.4636,-76.8,-2.85,-20.85,7.1,0.62,-6.85,-0.0447,0.2007,0.1014,-21.875,15.375,42.0,52.9375,47.25,-175.1875,0
1776971769.244,9.5529,-1.2474,-0.0575,-0.2427,-0.5449,0.3651,9.9,61.65,-216.75,9.2751,0.7949,1.6113,-0.2955,-0.0608,0.4652,-76.8,-2.85,-20.85,6.98,0.65,-6.65,-0.0524,0.24,0.0916,-21.875,15.375,42.0,52.9375,47.25,-175.1875,0
1776971769.249,9.6391,-1.4006,-0.1197,-0.1852,-0.5686,0.3898,9.9,61.65,-216.75,9.3877,0.7111,1.6831,-0.2955,-0.0608,0.4652,-76.95,-3.9,-19.95,6.98,0.65,-6.65,-0.0524,0.24,0.0916,-21.875,15.375,42.0,52.9375,47.375,-175.1875,0
1776971769.254,9.6391,-1.4006,-0.1197,-0.1852,-0.5686,0.3898,10.05,63.0,-217.2,9.3877,0.7111,1.6831,-0.2201,-0.0616,0.4578,-76.95,-3.9,-19.95,7.0,0.63,-6.81,-0.0491,0.2182,0.0894,-21.875,15.375,42.0,52.9375,47.375,-175.1875,0
1776971769.258,9.8067,-1.7382,-0.146,-0.1703,-0.5921,0.4223,10.05,63.0,-217.2,9.4978,0.5507,1.6472,-0.2201,-0.0616,0.4578,-78.0,-3.3,-19.8,7.0,0.63,-6.81,-0.0458,0.2247,0.084,-21.875,15.375,42.0,52.9375,47.4375,-175.1875,0
1776971769.264,9.8067,-1.7382,-0.146,-0.1703,-0.5921,0.4223,10.95,63.45,-217.35,9.4978,0.5507,1.6472,-0.1519,-0.0645,0.4501,-78.0,-3.3,-19.8,6.91,0.52,-6.85,-0.0458,0.2247,0.084,-21.875,15.375,42.0,52.9375,47.4375,-175.1875,0
1776971769.273,10.1394,-2.1452,-0.2705,-0.1935,-0.6352,0.4626,9.75,62.25,-218.7,9.6893,0.3543,1.6688,-0.0919,-0.0786,0.4349,-78.0,-3.3,-19.8,6.96,0.53,-6.84,-0.0698,0.2269,0.0829,-21.875,15.375,42.0,53.0,47.5625,-175.1875,0
1776971769.277,10.4698,-1.7933,-0.7925,-0.1745,-0.7434,0.5057,9.75,62.25,-218.7,9.9431,0.2514,1.5754,-0.0919,-0.0786,0.4349,-76.65,-3.45,-19.2,6.96,0.53,-6.84,-0.0742,0.2727,0.0862,-21.875,15.375,42.0,53.0,47.6875,-175.25,0
1776971769.284,10.4698,-1.7933,-0.7925,-0.1745,-0.7434,0.5057,9.75,62.25,-218.7,9.9431,0.2514,1.5754,-0.0727,-0.089,0.4338,-76.65,-3.45,-19.2,6.75,0.29,-6.86,-0.0742,0.2727,0.0862,-21.875,15.375,42.0,53.0,47.6875,-175.25,0
1776971769.289,10.4339,-1.4461,-0.9481,-0.1553,-0.7903,0.4914,9.75,62.25,-218.7,9.8737,0.1772,1.4557,-0.0616,-0.1127,0.4253,-77.7,-3.9,-19.5,6.75,0.29,-6.86,-0.1058,0.2989,0.0753,-22.25,15.0,41.5625,53.0625,47.8125,-175.1875,0
1776971769.294,10.4339,-1.4461,-0.9481,-0.1553,-0.7903,0.4914,11.55,62.25,-219.75,9.8737,0.1772,1.4557,-0.0616,-0.1127,0.4253,-77.7,-3.9,-19.5,7.02,0.23,-6.81,-0.1058,0.2989,0.0753,-22.25,15.0,41.5625,53.0625,47.8125,-175.1875,0
1776971769.299,10.2185,-1.4293,-0.7159,-0.1442,-0.7826,0.4639,11.55,62.25,-219.75,10.0006,0.3519,1.3958,-0.0544,-0.17,0.4394,-78.45,-3.0,-18.45,7.02,0.23,-6.81,-0.1364,0.4254,0.0349,-22.25,15.0,41.5625,53.125,48.0625,-175.125,0
1776971769.304,10.2185,-1.4293,-0.7159,-0.1442,-0.7826,0.4639,11.4,61.95,-218.1,10.0006,0.3519,1.3958,-0.0544,-0.17,0.4394,-78.45,-3.0,-18.45,6.91,0.29,-6.96,-0.1364,0.4254,0.0349,-22.25,15.0,41.5625,53.125,48.0625,-175.125,0
1776971769.31,10.228,-1.494,-0.3448,-0.1671,-0.7749,0.4458,11.4,61.95,-218.1,10.0126,0.3208,1.4293,-0.089,-0.1889,0.4341,-78.15,-3.0,-20.7,6.89,0.29,-7.01,-0.1462,0.456,-0.0284,-22.25,15.0,41.5625,53.3125,48.3125,-175.0,0
1776971769.315,10.2568,-1.7023,-0.2538,-0.1604,-0.8074,0.4684,11.4,61.2,-218.85,10.0126,0.3208,1.4293,-0.089,-0.1889,0.4341,-78.15,-3.0,-20.7,6.89,0.29,-7.01,-0.1462,0.456,-0.0284,-22.25,15.0,41.5625,53.5,48.625,-174.875,0
1776971769.324,10.2568,-1.7023,-0.2538,-0.1604,-0.8074,0.4684,11.7,60.9,-219.6,10.0173,0.316,1.4868,-0.1183,-0.2268,0.4327,-77.4,-4.65,-21.45,7.1,0.35,-6.84,-0.1473,0.5432,-0.0764,-22.25,15.0,41.5625,53.5,48.625,-174.875,0
1776971769.331,10.2831,-2.083,0.0215,-0.1135,-0.8737,0.5095,11.7,60.9,-220.65,9.845,0.1484,1.4389,-0.17,-0.243,0.4266,-77.4,-4.2,-20.7,6.89,0.4,-6.79,-0.156,0.6065,-0.1091,-22.25,15.0,41.5625,53.625,48.875,-174.6875,0
1776971769.336,10.24,-2.1332,-0.0168,-0.0898,-0.9395,0.5668,11.7,60.9,-220.65,9.8402,0.2729,1.482,-0.17,-0.243,0.4266,-77.4,-4.2,-20.7,6.89,0.4,-6.79,-0.156,0.6065,-0.1091,-22.25,15.0,41.5625,53.625,48.875,-174.6875,0
1776971769.341,10.24,-2.1332,-0.0168,-0.0898,-0.9395,0.5668,11.7,60.9,-220.65,9.8402,0.2729,1.482,-0.2086,-0.239,0.4221,-77.4,-3.0,-21.0,7.03,0.42,-6.76,-0.1516,0.5967,-0.1385,-23.375,15.0,40.75,53.75,49.125,-174.5625,0
1776971769.345,10.228,-2.2458,-0.1317,-0.1434,-1.0032,0.6195,11.7,60.9,-220.65,9.7085,0.4669,1.3479,-0.2137,-0.2356,0.4088,-77.4,-3.0,-21.0,7.03,0.42,-6.76,-0.1516,0.5967,-0.1385,-23.375,15.0,40.75,53.75,49.125,-174.5625,0
1776971769.35,10.228,-2.2458,-0.1317,-0.1434,-1.0032,0.6195,11.7,60.9,-220.65,9.7085,0.4669,1.3479,-0.2137,-0.2356,0.4088,-77.25,-4.8,-19.05,7.18,0.51,-6.53,-0.1669,0.6665,-0.1582,-23.375,15.0,40.75,54.0,49.5,-174.3125,0
1776971769.355,10.1418,-2.1572,0.0455,-0.1873,-1.036,0.6486,12.45,60.45,-222.0,9.6486,0.8428,1.3743,-0.1977,-0.2478,0.389,-77.25,-4.8,-19.05,7.18,0.51,-6.53,-0.1669,0.6665,-0.1582,-23.375,15.0,40.75,54.25,49.875,-174.0625,0
1776971769.363,10.1801,-1.7406,1.0008,-0.3307,-1.0581,0.6835,12.45,60.15,-220.95,9.6486,0.8428,1.3743,-0.1977,-0.2478,0.389,-77.25,-4.8,-19.05,7.18,0.44,-6.5,-0.1756,0.7079,-0.1691,-23.375,15.0,40.75,54.4375,50.25,-173.8125,0
1776971769.373,10.3046,-1.6807,0.577,-0.5007,-1.0968,0.7373,12.45,59.4,-222.45,9.5768,0.8595,1.2713,-0.1945,-0.2617,0.3557,-78.75,-3.3,-20.1,7.51,0.61,-6.19,-0.1614,0.7461,-0.1734,-23.375,15.0,40.75,54.4375,50.25,-173.8125,0
1776971769.383,10.5034,-1.506,0.4836,-0.558,-1.1943,0.777,15.3,57.45,-222.0,9.5505,1.324,1.0534,-0.1889,-0.2731,0.3051,-78.0,-4.05,-20.1,7.7,0.72,-6.21,-0.1614,0.8443,-0.156,-23.375,15.0,40.75,54.625,50.75,-173.5625,0
1776971769.388,10.5034,-1.506,0.4836,-0.558,-1.1943,0.777,15.3,57.45,-222.0,9.5505,1.324,1.0534,-0.2017,-0.2675,0.2385,-78.0,-4.05,-20.1,7.7,0.72,-6.21,-0.1614,0.8443,-0.156,-23.375,15.0,40.75,54.625,50.75,-173.5625,0
1776971769.393,10.738,-1.154,0.5507,-0.6091,-1.3129,0.8394,15.0,58.2,-222.75,9.5026,1.5706,0.9673,-0.2017,-0.2675,0.2385,-77.25,-4.05,-19.8,7.34,0.99,-5.88,-0.1887,0.8814,-0.1047,-25.1875,14.6875,39.5625,54.8125,51.1875,-173.3125,0
1776971769.398,10.738,-1.154,0.5507,-0.6091,-1.3129,0.8394,15.0,58.2,-222.75,9.5026,1.5706,0.9673,-0.1972,-0.2681,0.1761,-77.25,-4.05,-19.8,7.34,0.99,-5.88,-0.1887,0.8814,-0.1047,-25.1875,14.6875,39.5625,54.8125,51.1875,-173.3125,0
1776971769.403,10.5752,-0.7781,0.6608,-0.7005,-1.3755,0.8879,15.0,58.2,-222.75,9.268,1.8028,0.9122,-0.1972,-0.2681,0.1761,-78.15,-3.45,-19.2,7.21,0.65,-6.1,-0.2116,0.9643,-0.0458,-25.1875,14.6875,39.5625,54.9375,51.75,-173.0625,0
1776971769.408,10.5752,-0.7781,0.6608,-0.7005,-1.3755,0.8879,15.0,58.2,-222.75,9.268,1.8028,0.9122,-0.199,-0.2587,0.1242,-78.15,-3.45,-19.2,7.21,0.65,-6.1,-0.2149,1.0428,-0.0425,-25.1875,14.6875,39.5625,55.125,52.3125,-172.8125,0
1776971769.414,10.6494,-0.9577,0.2035,-0.7909,-1.4221,0.927,15.6,56.25,-225.75,9.3326,2.1691,0.6464,-0.2004,-0.3243,0.0778,-78.15,-4.65,-20.25,7.15,0.61,-6.08,-0.2149,1.0428,-0.0425,-25.1875,14.6875,39.5625,55.25,52.9375,-172.5625,0
1776971769.423,10.8338,-0.5028,-0.1101,-0.7493,-1.4933,0.9156,15.6,55.05,-229.05,9.2296,2.4852,0.4693,-0.2888,-0.2617,0.0288,-78.9,-4.2,-20.25,7.15,0.92,-6.48,-0.2302,1.2021,-0.0273,-25.1875,14.6875,39.5625,55.25,52.9375,-172.5625,0
1776971769.433,10.7236,-0.2897,-0.9912,-0.7125,-1.5521,0.9598,15.15,52.8,-231.45,9.2536,2.8371,0.3831,-0.3379,-0.3232,-0.0048,-77.25,-3.3,-19.35,7.04,0.64,-6.16,-0.2476,1.4334,-0.0033,-25.1875,14.6875,39.5625,55.375,53.75,-172.25,0
1776971769.438,10.7236,-0.2897,-0.9912,-0.7125,-1.5521,0.9598,15.15,52.8,-231.45,9.2536,2.8371,0.3831,-0.3379,-0.3232,-0.0048,-77.25,-3.3,-19.35,7.04,0.64,-6.16,-0.2476,1.4334,-0.0033,-25.1875,14.6875,39.5625,55.375,53.75,-172.25,0
1776971769.443,11.0277,-0.8045,-0.9146,-0.7584,-1.6505,0.991,14.7,53.4,-230.55,9.2249,3.1508,0.182,-0.4098,-0.3592,-0.0301,-78.0,-2.85,-20.1,7.52,0.76,-6.11,-0.2323,1.6668,0.0207,-26.0,13.875,40.375,55.4375,54.6875,-172.0,0
1776971769.448,11.0277,-0.8045,-0.9146,-0.7584,-1.6505,0.991,14.7,53.4,-230.55,9.2249,3.1508,0.182,-0.4098,-0.3592,-0.0301,-78.0,-2.85,-20.1,7.52,0.76,-6.11,-0.2323,1.6668,0.0207,-26.0,13.875,40.375,55.4375,54.6875,-172.0,0
1776971769.453,11.2982,-0.9673,-0.9266,-0.8151,-1.6641,1.0387,14.7,53.4,-230.55,9.4475,3.3232,0.3543,-0.4341,-0.4098,-0.0751,-78.0,-2.85,-20.1,7.21,0.76,-6.08,-0.2509,1.8424,0.0545,-26.0,13.875,40.375,55.5,55.6875,-171.6875,0
1776971769.458,11.2982,-0.9673,-0.9266,-0.8151,-1.6641,1.0387,14.7,53.4,-230.55,9.4475,3.3232,0.3543,-0.4341,-0.4098,-0.0751,-78.0,-2.85,-20.1,7.21,0.76,-6.08,-0.2662,1.9929,0.0927,-26.0,13.875,40.375,55.5,56.8125,-171.375,0
1776971769.464,11.9255,-0.7949,-0.8475,-0.8276,-1.7256,1.1045,14.7,53.4,-230.55,10.1179,3.2729,-0.0718,-0.3944,-0.4295,-0.1604,-78.75,-1.35,-21.9,7.79,0.97,-5.83,-0.2662,1.9929,0.0927,-26.0,13.875,40.375,55.5625,57.9375,-171.0625,0
1776971769.473,12.7707,0.3591,-0.3519,-0.8319,-1.76,1.1772,14.85,52.05,-238.65,10.6183,2.9736,-0.3759,-0.3501,-0.478,-0.2713,-78.75,-1.35,-21.9,7.5,1.24,-6.44,-0.3338,2.0191,0.1724,-26.0,13.875,40.375,55.5625,57.9375,-171.0625,0
1776971769.483,13.0292,0.1628,-0.3448,-1.104,-1.7285,1.2409,14.25,51.15,-242.7,10.4363,2.806,-0.1915,-0.3493,-0.4991,-0.3821,-78.9,-1.95,-20.7,7.38,0.29,-6.8,-0.1789,2.0835,0.1342,-26.0,13.875,40.375,55.4375,59.0625,-170.8125,0
1776971769.488,13.0292,0.1628,-0.3448,-1.104,-1.7285,1.2409,13.05,49.8,-243.3,10.4363,2.806,-0.1915,-0.3493,-0.4991,-0.3821,-78.9,-1.95,-20.7,7.38,0.29,-6.8,-0.1789,2.0835,0.1342,-26.0,13.875,40.375,55.375,60.375,-170.375,0
1776971769.493,13.5248,-0.5339,0.9768,-1.3827,-1.8615,1.3408,13.05,49.8,-243.3,10.094,3.0239,0.1772,-0.3749,-0.5271,-0.5161,-78.75,-0.45,-20.85,7.22,-0.75,-7.0,-0.1462,2.3518,0.012,-28.875,14.25,36.875,55.375,60.375,-170.375,0
1776971769.498,13.5248,-0.5339,0.9768,-1.5095,-1.9929,1.4714,14.1,49.5,-246.45,10.3501,2.806,0.5339,-0.3749,-0.5271,-0.5161,-78.75,-0.45,-20.85,7.22,-0.75,-7.0,-0.1462,2.3518,0.012,-28.875,14.25,36.875,55.5625,61.875,-169.5,0
1776971769.503,14.1521,-0.589,2.545,-1.5095,-1.9929,1.4714,14.1,49.5,-246.45,10.3501,2.806,0.5339,-0.3435,-0.5564,-0.6917,-78.9,-2.25,-20.7,6.95,-0.67,-6.84,-0.3982,2.8023,-0.1189,-28.875,14.25,36.875,55.5625,61.875,-169.5,0
1776971769.508,14.2838,-0.4405,2.3774,-1.4957,-2.1162,1.5849,14.1,49.5,-246.45,10.9822,1.992,0.7446,-0.3435,-0.5564,-0.6917,-78.9,-2.25,-20.7,6.95,-0.67,-6.84,-0.5672,3.4536,-0.1767,-28.875,14.25,36.875,55.875,63.75,-168.3125,0
1776971769.514,14.2838,-0.4405,2.3774,-1.4957,-2.1162,1.5849,14.1,49.5,-246.45,10.9822,1.992,0.7446,-0.2489,-0.6129,-0.9561,-76.8,-2.1,-22.65,6.79,0.9,-7.41,-0.5672,3.4536,-0.1767,-28.875,14.25,36.875,56.3125,66.0625,-166.75,0
1776971769.524,14.6405,0.1628,2.2936,-1.5473,-1.8333,1.6276,14.1,49.5,-246.45,10.6303,1.7406,0.6273,-0.2625,-0.7152,-1.2646,-78.75,1.35,-21.6,7.51,2.04,-5.7,-0.9937,4.287,0.0785,-28.875,14.25,36.875,56.3125,66.0625,-166.75,0
1776971769.533,14.5208,0.0287,2.1596,-1.3542,-1.6078,1.6417,20.85,48.45,-254.1,10.4842,1.1037,0.1844,-0.2052,-0.7149,-1.5226,-78.75,0.45,-22.35,10.43,2.25,-5.82,-0.3163,4.7473,0.5618,-28.875,14.25,36.875,55.875,68.6875,-165.8125,0
1776971769.538,12.9191,-0.6728,0.7542,-0.943,-1.6214,1.6414,22.65,51.45,-254.1,10.7907,0.7207,0.4238,-0.0522,-0.8084,-1.6982,-78.75,0.45,-22.35,10.43,2.25,-5.82,-0.3163,4.7473,0.5618,-28.875,14.25,36.875,55.875,68.6875,-165.8125,0
1776971769.543,12.9191,-0.6728,0.7542,-0.943,-1.6214,1.6414,22.65,51.45,-254.1,10.7907,0.7207,0.4238,-0.0522,-0.8084,-1.6982,-78.75,0.45,-22.35,13.18,3.48,-6.12,-0.0065,5.1782,0.9327,-33.25,13.875,33.6875,55.0,71.625,-165.1875,0
1776971769.548,12.785,-1.4054,-0.3424,-0.5766,-2.0259,1.639,21.15,52.95,-254.85,11.1498,0.7566,0.3783,0.0075,-0.9046,-1.8463,-78.75,0.45,-22.35,13.18,3.48,-6.12,-0.0065,5.1782,0.9327,-33.25,13.875,33.6875,55.0,71.625,-165.1875,0
1776971769.553,12.785,-1.4054,-0.3424,-0.5766,-2.0259,1.639,21.15,52.95,-254.85,11.1498,0.7566,0.3783,0.0075,-0.9046,-1.8463,-78.45,2.7,-22.5,14.41,4.76,-7.7,-0.036,5.8828,1.2785,-33.25,13.875,33.6875,53.9375,74.9375,-164.6875,0
1776971769.559,12.4714,-2.6264,-0.7183,-0.251,-2.4664,1.6974,23.25,52.5,-255.75,10.8218,-0.2705,0.4477,-0.1855,-0.9947,-1.9931,-78.45,2.7,-22.5,14.41,4.76,-7.7,-0.1178,6.1425,1.5119,-33.25,13.875,33.6875,52.9375,78.4375,-164.125,0
1776971769.564,12.4714,-2.6264,-0.7183,-0.251,-2.4664,1.6974,23.25,52.5,-255.75,10.8218,-0.2705,0.4477,-0.1855,-0.9947,-1.9931,-78.45,2.7,-22.5,15.49,1.21,-5.56,-0.1178,6.1425,1.5119,-33.25,13.875,33.6875,51.8125,82.0,-164.25,0
