timestamp,thigh_acc_x,thigh_acc_y,thigh_acc_z,thigh_gyro_x,thigh_gyro_y,thigh_gyro_z,thigh_mag_x,thigh_mag_y,thigh_mag_z,shank_acc_x,shank_acc_y,shank_acc_z,shank_gyro_x,shank_gyro_y,shank_gyro_z,shank_mag_x,shank_mag_y,shank_mag_z,foot_acc_x,foot_acc_y,foot_acc_z,foot_gyro_x,foot_gyro_y,foot_gyro_z,foot_mag_x,foot_mag_y,foot_mag_z,foot_euler_x,foot_euler_y,foot_euler_z,perturbation_event
1776973299.955,9.6702,-1.6041,1.7669,-0.1823,0.0674,0.4338,-85.35,3.45,-10.65,9.5864,1.6927,1.154,-0.1013,0.1375,0.3147,-106.95,-0.45,7.2,-4.62,-2.12,-8.46,-0.0578,-0.0654,0.0818,12.6875,10.75,37.0625,269.9375,-28.5,164.6875,0
1776973299.96,9.7516,-1.3791,1.8483,-0.1801,0.0594,0.449,-85.35,3.45,-10.65,9.5696,1.7023,1.1444,-0.0562,0.1663,0.3256,-106.5,-1.2,6.45,-4.62,-2.12,-8.46,-0.048,-0.0644,0.0753,12.6875,10.75,37.0625,269.9375,-28.5,164.75,0
1776973299.966,9.6247,-1.1396,1.719,-0.1801,0.0594,0.449,-86.1,2.7,-11.4,9.5696,1.7023,1.1444,-0.0562,0.1663,0.3256,-106.5,-1.2,6.45,-4.49,-2.11,-8.51,-0.048,-0.0644,0.0753,12.6875,10.75,37.0625,270.0,-28.5625,164.8125,0
1776973299.974,9.6247,-1.1396,1.719,-0.1929,0.0578,0.4546,-84.6,4.2,-11.4,9.5361,1.6328,1.0942,-0.0799,0.149,0.3408,-105.6,-1.8,7.35,-4.54,-2.23,-8.49,-0.0316,-0.0764,0.0742,12.6875,10.75,37.0625,270.0,-28.5625,164.8125,0
1776973299.979,9.5457,-1.1109,2.0279,-0.1228,0.0589,0.4575,-84.6,4.2,-11.4,9.5098,1.6041,1.1732,-0.0485,0.1426,0.3624,-105.6,-1.8,7.35,-4.54,-2.23,-8.49,-0.0185,-0.0873,0.0731,12.6875,10.75,37.0625,270.0,-28.625,164.8125,0
1776973299.985,9.6606,-0.9673,1.9369,-0.0432,0.0608,0.4754,-86.55,3.9,-11.1,9.5098,1.6041,1.1732,-0.0485,0.1426,0.3624,-105.6,-1.8,7.35,-4.62,-2.1,-8.45,-0.0185,-0.0873,0.0731,12.6875,10.75,37.0625,270.0,-28.625,164.8125,0
1776973299.99,9.6606,-0.9673,1.9369,-0.0432,0.0608,0.4754,-86.55,3.9,-11.1,9.5409,1.8483,1.3455,0.0008,0.1319,0.3741,-107.85,-0.75,7.05,-4.62,-2.1,-8.45,-0.0065,-0.0807,0.0665,11.875,11.5,36.75,270.375,-28.625,164.8125,0
1776973299.995,9.5313,-0.9194,1.6424,-0.0125,0.0653,0.4943,-85.5,2.4,-10.5,9.5409,1.8483,1.3455,0.0008,0.1319,0.3741,-107.85,-0.75,7.05,-4.64,-2.05,-8.43,-0.0065,-0.0807,0.0665,11.875,11.5,36.75,270.375,-28.625,164.8125,0
1776973300.0,9.5313,-0.9194,1.6424,-0.0125,0.0653,0.4943,-85.5,2.4,-10.5,9.4355,2.0255,1.3527,0.0285,0.1442,0.3832,-106.2,-0.9,9.0,-4.64,-2.05,-8.43,0.0076,-0.0796,0.0589,11.875,11.5,36.75,270.375,-28.6875,164.875,0
1776973300.005,9.4547,-0.7925,1.9465,0.0208,0.0624,0.5201,-85.5,2.4,-10.5,9.4355,2.0255,1.3527,0.0285,0.1442,0.3832,-106.2,-0.9,9.0,-4.64,-2.05,-8.51,0.0076,-0.0796,0.0589,11.875,11.5,36.75,270.375,-28.6875,164.875,0
1776973300.01,9.4547,-0.7925,1.9465,0.0208,0.0624,0.5201,-85.5,2.4,-10.5,8.9902,1.5323,0.9194,0.0509,0.194,0.3917,-106.5,-1.65,8.25,-4.64,-2.05,-8.51,0.0229,-0.0829,0.0502,11.875,11.5,36.75,270.4375,-28.75,164.875,0
1776973300.016,9.5289,-1.0271,1.8483,0.0067,0.0509,0.5391,-85.2,2.85,-10.05,8.9902,1.5323,0.9194,0.0509,0.194,0.3917,-106.2,-1.2,8.7,-4.63,-2.08,-8.46,0.0229,-0.0829,0.0502,11.875,11.5,36.75,270.4375,-28.75,164.875,0
1776973300.025,9.2584,-1.403,2.2697,-0.0402,0.0384,0.5484,-85.2,2.85,-10.05,9.5696,1.3312,1.0511,-0.1745,0.234,0.4104,-106.2,-1.2,8.7,-4.59,-2.19,-8.43,0.0251,-0.0774,0.0436,11.875,11.5,36.75,270.4375,-28.75,164.875,0
1776973300.03,9.2584,-1.403,2.2697,-0.0402,0.0384,0.5484,-85.2,2.85,-10.05,8.9591,1.2617,1.2522,0.283,0.1423,0.4181,-106.2,-1.2,8.7,-4.59,-2.19,-8.43,0.0251,-0.0698,0.048,11.875,11.5,36.75,270.5,-28.8125,164.875,0
1776973300.036,9.2775,-1.8699,2.3583,-0.0434,0.0709,0.571,-85.8,2.25,-9.6,9.2823,0.7781,1.6592,0.234,0.1815,0.429,-106.2,-1.2,8.7,-4.71,-2.16,-8.26,0.0251,-0.0698,0.048,11.875,11.5,36.75,270.5,-28.8125,164.875,0
1776973300.041,9.2775,-1.8699,2.3583,-0.0434,0.0709,0.571,-85.8,2.25,-9.6,9.2823,0.7781,1.6592,0.234,0.1815,0.429,-106.2,-1.2,8.7,-4.71,-2.16,-8.26,0.0098,-0.0524,0.048,11.875,10.75,37.0625,270.6875,-28.875,164.875,0
1776973300.046,9.6223,-2.0279,2.3487,-0.0946,0.0426,0.5769,-86.1,3.0,-10.35,9.5289,0.3807,1.7502,-0.0597,0.1855,0.4746,-105.15,-2.7,7.95,-4.63,-2.18,-8.3,0.0098,-0.0524,0.048,11.875,10.75,37.0625,270.6875,-28.875,164.875,0
1776973300.05,9.6223,-2.0279,2.3487,-0.0946,0.0426,0.5769,-86.1,3.0,-10.35,9.5289,0.3807,1.7502,-0.0597,0.1855,0.4746,-105.15,-2.7,7.95,-4.63,-2.18,-8.3,0.0098,-0.0524,0.048,11.875,10.75,37.0625,270.6875,-28.875,164.875,0
1776973300.056,9.426,-2.0806,2.5857,-0.1172,0.0362,0.5633,-85.2,2.1,-10.5,9.5816,0.4908,2.241,0.0616,0.1895,0.5367,-103.65,-2.4,8.25,-4.58,-2.11,-8.37,-0.0033,-0.0393,0.0447,11.875,10.75,37.0625,270.6875,-28.875,164.875,0
1776973300.06,9.426,-2.0806,2.5857,-0.1172,0.0362,0.5633,-85.2,2.1,-10.5,9.5816,0.4908,2.241,0.0616,0.1895,0.5367,-103.65,-2.4,8.25,-4.58,-2.11,-8.37,-0.0087,-0.0404,0.0491,11.875,10.75,37.0625,270.75,-28.875,164.9375,0
1776973300.066,9.5864,-2.3391,2.5402,-0.0501,0.0096,0.5537,-86.1,2.7,-11.85,9.5217,0.5483,2.1907,0.1604,0.2451,0.5886,-104.25,-3.3,9.15,-4.61,-2.15,-8.39,-0.0087,-0.0404,0.0491,11.875,10.75,37.0625,270.75,-28.875,164.9375,0
1776973300.075,9.6582,-2.5379,2.7461,-0.0525,-0.0354,0.5284,-84.75,2.1,-10.8,9.7803,0.5794,2.1045,0.1021,0.2425,0.6582,-104.25,-3.3,7.8,-4.63,-2.14,-8.4,-0.0087,-0.0404,0.0458,11.875,10.75,37.0625,270.75,-28.9375,164.9375,0
1776973300.079,9.6582,-2.5379,2.7461,-0.0525,-0.0354,0.5284,-84.75,2.1,-10.8,9.7803,0.5794,2.1045,0.1021,0.2425,0.6582,-104.25,-3.3,7.8,-4.63,-2.14,-8.4,-0.0033,-0.0415,0.0447,11.875,10.75,37.0625,270.75,-28.9375,164.9375,0
1776973300.086,9.7468,-2.8252,2.3655,-0.064,-0.052,0.5175,-85.5,1.35,-11.25,9.7013,0.6081,2.1548,0.0965,0.2939,0.7072,-104.25,-3.3,7.8,-4.66,-2.11,-8.38,-0.0033,-0.0415,0.0447,11.875,10.75,37.0625,270.75,-28.9375,164.9375,0
1776973300.091,9.7923,-2.715,2.1548,-0.064,-0.052,0.5175,-85.5,1.35,-11.25,9.7013,0.6081,2.1548,0.0965,0.2939,0.7072,-104.25,-3.3,7.8,-4.63,-2.07,-8.42,0.0076,-0.0469,0.0415,12.6875,10.75,36.375,271.0,-29.0,164.9375,0
1776973300.096,9.7923,-2.715,2.1548,-0.0858,-0.0746,0.5164,-85.5,1.35,-11.25,9.4834,0.68,2.2122,0.3214,0.3107,0.7536,-103.35,-4.65,6.9,-4.63,-2.07,-8.42,0.0076,-0.0469,0.0415,12.6875,10.75,36.375,271.0,-29.0,164.9375,0
1776973300.101,9.8497,-2.1548,1.8364,-0.1039,-0.1023,0.5079,-85.5,1.35,-11.25,9.4834,0.68,2.2122,0.3214,0.3107,0.7536,-103.35,-4.65,6.9,-4.63,-2.07,-8.42,0.0251,-0.0524,0.0393,12.6875,10.75,36.375,271.0625,-29.0,164.9375,0
1776973300.106,9.8497,-2.1548,1.8364,-0.1039,-0.1023,0.5079,-84.6,1.05,-10.35,9.6822,0.7805,1.8411,0.3507,0.3206,0.7893,-102.75,-3.3,8.55,-4.62,-2.05,-8.43,0.0251,-0.0524,0.0393,12.6875,10.75,36.375,271.0625,-29.0,164.9375,0
1776973300.11,9.9168,-1.3048,1.6281,-0.1175,-0.1279,0.5036,-84.6,1.05,-10.35,9.6822,0.7805,1.8411,0.3507,0.3206,0.7893,-102.75,-3.3,8.55,-4.62,-2.05,-8.43,0.0415,-0.06,0.0371,12.6875,10.75,36.375,271.0625,-29.0,164.9375,0
1776973300.116,9.9168,-1.3048,1.6281,-0.1175,-0.1279,0.5036,-85.5,-0.9,-10.8,9.73,0.9074,1.7142,0.3832,0.3099,0.8052,-102.6,-6.9,8.7,-4.54,-1.96,-8.54,0.0415,-0.06,0.0371,12.6875,10.75,36.375,271.0625,-29.0,164.9375,0
1776973300.125,9.9216,-0.9673,1.8962,-0.1303,-0.1428,0.518,-85.5,-0.15,-10.05,9.7252,1.063,1.5802,0.4154,0.3019,0.7991,-102.75,-5.55,8.85,-4.53,-1.9,-8.6,0.0633,-0.0829,0.0338,12.6875,10.75,36.375,271.0625,-29.0625,164.9375,0
1776973300.13,9.8306,-0.7278,1.5419,-0.1103,-0.1266,0.5348,-85.5,-0.15,-10.05,9.7252,1.063,1.5802,0.4154,0.3019,0.7991,-102.75,-5.55,8.85,-4.53,-1.9,-8.6,0.0807,-0.1091,0.0327,12.6875,10.75,36.375,271.125,-29.0625,164.9375,0
1776973300.136,9.8306,-0.7278,1.5419,-0.1103,-0.1266,0.5348,-83.85,0.0,-10.65,9.979,1.2737,1.3838,0.389,0.2766,0.7909,-102.75,-5.55,8.85,-4.51,-2.11,-8.51,0.0807,-0.1091,0.0327,12.6875,10.75,36.375,271.125,-29.0625,164.9375,0
1776973300.141,10.0987,-0.7685,1.4533,-0.1535,-0.1015,0.5761,-83.85,0.0,-10.65,9.979,1.2737,1.3838,0.389,0.2766,0.7909,-102.75,-5.55,8.85,-4.51,-2.11,-8.51,0.0807,-0.1091,0.0327,13.0625,11.5,37.5,271.375,-29.125,164.9375,0
1776973300.146,10.0987,-0.7685,1.4533,-0.1535,-0.1015,0.5761,-84.75,-0.9,-11.55,10.07,1.6616,1.1612,0.3595,0.2686,0.7594,-102.75,-5.55,8.85,-4.49,-2.19,-8.55,0.0654,-0.1178,0.0185,13.0625,11.5,37.5,271.375,-29.125,164.9375,0
1776973300.151,10.4962,-0.7949,0.9074,-0.1849,-0.0714,0.6214,-84.75,-0.9,-11.55,10.07,1.6616,1.1612,0.3595,0.2686,0.7594,-102.75,-5.55,8.85,-4.49,-2.19,-8.55,0.0654,-0.1178,0.0185,13.0625,11.5,37.5,271.375,-29.1875,164.9375,0
1776973300.156,10.4962,-0.7949,0.9074,-0.1849,-0.0714,0.6214,-84.6,0.3,-11.4,10.4124,1.7406,0.8212,0.3246,0.2601,0.7237,-102.9,-7.95,9.0,-4.45,-1.99,-8.74,0.036,-0.1309,0.0087,13.0625,11.5,37.5,271.375,-29.1875,164.9375,0
1776973300.161,10.5105,-0.4621,0.5363,-0.2238,-0.0749,0.6896,-84.6,0.3,-11.4,10.4124,1.7406,0.8212,0.3246,0.2601,0.7237,-102.9,-7.95,9.0,-4.45,-1.99,-8.74,0.084,-0.1789,0.0371,13.0625,11.5,37.5,271.4375,-29.25,164.875,0
1776973300.166,10.5105,-0.4621,0.5363,-0.2238,-0.0749,0.6896,-84.6,0.3,-11.4,10.3813,1.8435,0.4669,0.2894,0.2403,0.6984,-103.5,-7.5,8.85,-4.0,-2.16,-9.18,0.084,-0.1789,0.0371,13.0625,11.5,37.5,271.4375,-29.375,164.8125,0
1776973300.175,10.4483,-0.3208,1.0247,-0.32,-0.064,0.744,-84.6,-1.95,-11.4,10.4291,2.0614,0.2825,0.2635,0.2284,0.6542,-102.75,-9.0,9.9,-4.22,-2.27,-8.67,0.1211,-0.2454,0.0611,13.0625,11.5,37.5,271.4375,-29.375,164.8125,0
1776973300.185,10.2208,-0.1077,0.8571,-0.2683,-0.0416,0.7978,-84.6,-1.95,-11.4,10.4196,2.2003,0.4046,0.2364,0.2419,0.6121,-103.65,-8.7,8.7,-4.31,-2.28,-8.8,0.0698,-0.3185,0.0774,13.0625,11.5,37.5,271.5,-29.5625,164.75,0
1776973300.19,10.4196,-0.1149,0.9649,-0.2942,-0.0123,0.8463,-84.6,-1.95,-11.4,10.4196,2.2003,0.4046,0.2364,0.2419,0.6121,-103.65,-8.7,8.7,-4.31,-2.28,-8.8,0.0698,-0.3185,0.0774,13.0625,11.5,37.5,271.75,-29.8125,164.6875,0
1776973300.195,10.4196,-0.1149,0.9649,-0.2942,-0.0123,0.8463,-84.6,-1.95,-10.65,10.3382,2.2027,0.34,0.2326,0.2593,0.5692,-103.65,-8.7,8.7,-4.34,-2.26,-8.93,0.0535,-0.3949,0.0949,12.6875,11.1875,36.75,271.75,-29.8125,164.6875,0
1776973300.2,10.8457,-0.6129,1.1372,-0.2886,0.0045,0.9132,-84.6,-1.95,-10.65,10.3382,2.2027,0.34,0.2308,0.2582,0.55,-103.65,-8.7,8.7,-4.34,-2.26,-8.93,0.0535,-0.3949,0.0949,12.6875,11.1875,36.75,271.8125,-30.0625,164.6875,0
1776973300.205,10.8457,-0.6129,1.1372,-0.2886,0.0045,0.9132,-83.4,-1.5,-9.9,10.5441,2.2841,0.3065,0.2308,0.2582,0.55,-104.55,-9.3,8.85,-4.35,-2.35,-9.07,0.0458,-0.4385,0.1091,12.6875,11.1875,36.75,271.8125,-30.0625,164.6875,0
1776973300.21,10.8864,-0.6297,0.7733,-0.2819,-0.032,0.9872,-83.4,-1.5,-9.9,10.7595,2.4828,0.2011,0.2126,0.2132,0.5348,-104.55,-9.3,8.85,-4.35,-2.35,-9.07,0.0295,-0.4789,0.1189,12.6875,11.1875,36.75,271.875,-30.3125,164.6875,0
1776973300.216,11.066,-0.5124,0.6177,-0.2835,-0.0216,1.0762,-84.15,-3.0,-9.9,10.7595,2.4828,0.2011,0.2126,0.2132,0.5348,-103.95,-10.65,8.25,-4.13,-2.35,-9.35,0.0295,-0.4789,0.1189,12.6875,11.1875,36.75,271.875,-30.6875,164.625,0
1776973300.225,11.2504,-0.3974,0.0694,-0.2835,-0.0216,1.0762,-84.45,-4.5,-10.5,10.5441,2.3008,0.3663,0.0197,0.1002,0.5175,-104.55,-9.3,8.55,-4.18,-2.14,-9.41,0.0316,-0.5912,0.1494,12.6875,11.1875,36.75,271.875,-30.6875,164.625,0
1776973300.235,11.1378,-0.1628,0.0694,-0.1609,-0.0067,1.2377,-83.25,-5.55,-10.5,10.8793,2.6049,0.2921,0.0488,0.0426,0.5065,-104.7,-10.2,9.3,-3.99,-2.43,-9.68,0.0535,-0.7352,0.1778,12.6875,11.1875,36.75,271.9375,-31.125,164.625,0
1776973300.24,11.1378,-0.1628,0.0694,-0.1609,-0.0067,1.2377,-83.25,-5.55,-10.5,11.0445,2.7246,0.4693,0.2497,0.0514,0.4565,-104.7,-10.2,9.3,-3.99,-2.43,-9.68,0.0535,-0.7352,0.1778,12.6875,11.1875,36.75,272.125,-31.625,164.5625,0
1776973300.245,11.4084,0.0575,0.3208,-0.1196,0.0256,1.3038,-83.25,-4.8,-10.5,11.0445,2.7246,0.4693,0.2497,0.0514,0.4565,-104.7,-10.2,9.3,-4.09,-2.43,-9.58,0.048,-0.9119,0.2138,13.0625,10.5,36.375,272.125,-31.625,164.5625,0
1776973300.25,11.4084,0.0575,0.3208,-0.1196,0.0256,1.3038,-83.25,-4.8,-10.5,11.4299,2.8252,0.0527,0.2414,-0.0506,0.4165,-104.7,-10.2,9.3,-4.09,-2.43,-9.58,0.048,-0.9119,0.2138,13.0625,10.5,36.375,272.25,-32.25,164.5625,0
1776973300.255,11.3964,0.3711,-0.431,0.0258,0.0517,1.3651,-83.25,-4.8,-10.5,11.4299,2.8252,0.0527,0.2414,-0.0506,0.4165,-104.7,-10.2,9.3,-4.06,-2.79,-9.72,-0.0087,-1.1072,0.2651,13.0625,10.5,36.375,272.25,-32.25,164.5625,0
1776973300.26,11.3964,0.3711,-0.431,0.0258,0.0517,1.3651,-83.25,-4.8,-10.5,10.7835,2.7198,-0.0599,0.1687,-0.1684,0.3805,-104.7,-10.2,9.3,-4.06,-2.79,-9.72,-0.0796,-1.3832,0.3512,13.0625,10.5,36.375,272.3125,-33.0625,164.5625,0
1776973300.266,11.4874,0.6105,-0.6033,0.0925,0.0874,1.4634,-84.45,-6.45,-10.05,10.7835,2.7198,-0.0599,0.1687,-0.1684,0.3805,-103.8,-11.55,9.6,-3.94,-2.92,-9.77,-0.0796,-1.3832,0.3512,13.0625,10.5,36.375,272.4375,-34.0,164.625,0
1776973300.275,11.473,1.0726,-0.7877,0.186,0.1194,1.5799,-82.65,-7.35,-8.85,11.3006,3.2633,-0.3496,-0.0253,-0.1292,0.3067,-103.35,-11.7,10.05,-4.37,-2.52,-9.31,-0.1047,-1.6428,0.4352,13.0625,10.5,36.375,272.4375,-34.0,164.625,0
1776973300.285,11.813,1.9082,-1.1301,0.255,0.146,1.7285,-83.1,-7.35,-9.9,10.6662,4.0294,-0.5315,0.4626,-0.284,0.2377,-103.35,-11.7,10.5,-4.25,-2.38,-9.44,-0.0633,-1.8664,0.5138,13.0625,10.5,36.375,272.5625,-35.0625,164.6875,0
1776973300.29,11.813,1.9082,-1.1301,0.255,0.146,1.7285,-83.1,-7.35,-9.9,10.6734,4.6017,-1.1516,0.6142,-0.4421,0.1444,-103.35,-11.7,10.5,-4.25,-2.38,-9.44,-0.0633,-1.8664,0.5138,13.0625,10.5,36.375,272.5625,-35.0625,164.6875,0
1776973300.295,12.3996,2.3679,-1.4653,0.2902,0.1911,1.878,-83.25,-8.4,-10.05,10.6734,4.6017,-1.1516,0.6142,-0.4421,0.1444,-103.95,-12.9,10.05,-4.51,-2.8,-9.83,-0.0491,-2.0922,0.6141,15.25,11.1875,36.0,273.0,-36.25,164.75,0
1776973300.3,12.3996,2.3679,-1.4653,0.2902,0.1911,1.878,-83.25,-8.4,-10.05,10.5153,5.0518,-1.9345,0.5444,-0.5915,0.0187,-103.95,-12.9,10.05,-4.51,-2.8,-9.83,-0.0491,-2.0922,0.6141,15.25,11.1875,36.0,273.0,-36.25,164.75,0
1776973300.305,13.0292,2.3559,-1.9106,0.3701,0.259,2.0448,-83.85,-9.3,-8.4,10.5153,5.0518,-1.9345,0.5444,-0.5915,0.0187,-103.95,-12.9,10.05,-3.67,-3.5,-10.1,-0.0251,-2.3257,0.7527,15.25,11.1875,36.0,273.25,-37.625,164.8125,0
1776973300.31,13.0292,2.3559,-1.9106,0.3701,0.259,2.0448,-83.85,-9.3,-8.4,10.4675,5.6216,-2.4828,0.8612,-0.7075,-0.1268,-103.95,-12.9,10.05,-3.67,-3.5,-10.1,-0.0567,-2.6529,0.9152,15.25,11.1875,36.0,273.5625,-39.1875,164.875,0
1776973300.316,13.8648,2.7509,-2.3918,0.4104,0.3325,2.2188,-83.4,-11.7,-8.85,10.4387,6.359,-3.0694,1.1668,-0.8711,-0.2787,-103.5,-11.55,8.55,-3.86,-3.72,-9.85,-0.0567,-2.6529,0.9152,15.25,11.1875,36.0,274.0,-40.9375,165.125,0
1776973300.325,14.8033,2.8036,-2.3391,0.3315,0.4026,2.3547,-83.4,-11.7,-8.85,10.4387,6.359,-3.0694,1.1668,-0.8711,-0.2787,-103.8,-13.5,7.8,-3.61,-4.72,-9.78,-0.1102,-2.9921,1.1574,15.25,11.1875,36.0,274.0,-40.9375,165.125,0
1776973300.335,15.4689,3.0526,-2.047,0.2697,0.4317,2.4816,-81.6,-11.7,-8.85,10.5129,6.6679,-3.7182,1.5585,-1.1495,-0.6177,-106.05,-12.75,5.7,-3.99,-5.95,-10.4,-0.2509,-3.4296,1.4813,15.25,11.1875,36.0,274.5625,-43.0,165.5625,0
1776973300.34,16.1417,3.0023,-1.4341,0.2697,0.4317,2.4816,-81.6,-13.2,-8.85,10.4914,6.924,-2.8323,1.5585,-1.1495,-0.6177,-103.65,-12.9,6.45,-3.99,-5.95,-10.4,-0.2509,-3.4296,1.4813,15.25,11.1875,36.0,301.625,-45.3125,166.25,0
1776973300.346,16.1417,3.0023,-1.4341,0.1303,0.4644,2.5738,-81.6,-13.2,-8.85,10.0389,6.3805,-2.4636,1.7544,-1.2095,-0.8146,-103.65,-12.9,6.45,-4.49,-6.44,-10.73,-0.4342,-3.8583,1.8588,19.25,10.5,34.375,301.625,-45.3125,166.25,0
1776973300.351,16.2614,3.0191,0.1508,0.0746,0.4783,2.6606,-81.6,-13.2,-8.85,10.0389,6.3805,-2.4636,1.7544,-1.2095,-0.8146,-102.9,-12.9,5.85,-4.49,-6.44,-10.73,-0.4342,-3.8583,1.8588,19.25,10.5,34.375,298.4375,-47.9375,167.375,0
1776973300.356,16.2614,3.0191,0.1508,0.0746,0.4783,2.6606,-79.5,-15.0,-8.25,9.8354,5.9711,-2.1883,1.9851,-1.3595,-0.9739,-102.9,-12.9,5.85,-5.24,-6.31,-10.91,-0.6796,-4.3241,2.3093,19.25,10.5,34.375,298.4375,-47.9375,167.375,0
1776973300.361,14.7866,3.5913,0.2346,-0.008,0.465,2.7328,-79.5,-15.0,-8.25,9.8354,5.9711,-2.1883,1.9851,-1.3595,-0.9739,-102.9,-12.9,5.85,-5.24,-6.31,-10.91,-0.9338,-4.7942,2.7707,19.25,10.5,34.375,294.8125,-50.875,169.0,0
1776973300.366,14.7866,3.5913,0.2346,-0.008,0.465,2.7328,-81.3,-16.95,-6.75,10.3262,5.0877,-1.3168,2.0736,-1.3931,-1.1522,-102.9,-12.9,5.85,-6.47,-6.3,-11.5,-0.9338,-4.7942,2.7707,19.25,10.5,34.375,290.9375,-54.0,171.3125,0
1776973300.376,13.3357,3.79,2.6983,-0.1943,0.4269,2.7614,-78.75,-16.95,-7.95,11.133,3.7876,-0.3232,2.2071,-1.5135,-1.3182,-102.3,-12.0,4.95,-11.53,-6.04,-13.31,-1.2457,-5.2098,3.1678,19.25,10.5,34.375,290.9375,-54.0,171.3125,0
1776973300.386,12.6653,2.6695,4.4796,-0.2188,0.3635,2.7701,-78.75,-16.95,-7.95,11.7747,2.8946,0.6345,1.9891,-1.804,-1.4605,-101.85,-13.2,3.6,-12.66,-4.4,-13.71,-1.6624,-5.4694,3.3216,19.25,10.5,34.375,286.875,-57.25,174.375,0
1776973300.39,12.2463,1.5395,5.5737,-0.032,0.3368,2.642,-78.75,-18.9,-7.95,11.7747,2.8946,0.6345,1.9891,-1.804,-1.4605,-101.25,-11.25,2.1,-12.66,-4.4,-13.71,-1.6624,-5.4694,3.3216,19.25,10.5,34.375,283.0,-60.4375,178.125,0
1776973300.396,12.2463,1.5395,5.5737,-0.032,0.3368,2.642,-78.75,-18.9,-7.95,12.3613,2.2098,1.6688,1.6577,-1.9521,-1.5671,-101.25,-11.25,2.1,-12.65,-6.62,-13.52,-1.8817,-5.5076,3.3183,26.5625,9.0,31.375,283.0,-60.4375,178.125,0
1776973300.4,11.4563,0.1508,5.9089,0.5804,0.3027,2.5253,-78.75,-18.9,-7.95,12.3613,2.2098,1.6688,1.6577,-1.9521,-1.5671,-99.6,-10.65,0.45,-12.65,-6.62,-13.52,-1.8817,-5.5076,3.3183,26.5625,9.0,31.375,279.125,-63.375,-177.125,0
1776973300.405,11.4563,0.1508,5.9089,0.5804,0.3027,2.5253,-78.75,-18.9,-7.95,13.7379,1.1205,2.3343,1.3296,-1.9713,-1.8093,-99.6,-10.65,0.45,-16.13,-11.03,-13.2,-2.1697,-5.4192,3.3216,26.5625,9.0,31.375,279.125,-63.375,-177.125,0
1776973300.412,11.382,-0.8116,5.6024,1.7403,0.485,2.3766,-77.4,-21.0,-7.35,13.7379,1.1205,2.3343,1.3296,-1.9713,-1.8093,-99.6,-10.65,0.45,-14.05,-8.3,-14.11,-2.5656,-5.1084,3.0914,26.5625,9.0,31.375,275.375,-66.0625,-171.4375,0
1776973300.417,10.987,-2.1332,5.8347,1.7403,0.485,2.3766,-77.4,-21.0,-7.35,15.3636,-0.5315,3.1819,0.6001,-1.8058,-1.966,-99.6,-10.65,0.45,-14.05,-8.3,-14.11,-2.5656,-5.1084,3.0914,26.5625,9.0,31.375,271.875,-68.125,-165.0,0
1776973300.426,10.987,-2.1332,5.8347,2.5945,0.3914,2.1389,-77.4,-21.0,-7.35,15.0069,-1.0511,3.6823,-0.1721,-1.5468,-1.9987,-99.15,-9.75,-1.05,-11.51,-11.01,-12.73,-2.7173,-4.4866,2.9278,26.5625,9.0,31.375,268.1875,-69.6875,-157.375,0
1776973300.436,8.7867,-3.644,7.4101,3.4379,0.0981,1.8583,-76.5,-23.55,-4.95,13.1777,-0.6847,3.699,-0.8985,-1.2769,-1.9241,-99.3,-7.95,-0.45,1.64,-11.37,-8.22,-3.0391,-3.9455,3.002,26.5625,9.0,31.375,268.1875,-69.6875,-157.375,0
1776973300.44,7.6351,-5.6575,7.1299,3.7974,0.174,1.7014,-76.5,-23.25,-4.95,13.1777,-0.6847,3.699,-0.8985,-1.2769,-1.9241,-97.5,-9.15,-1.95,1.64,-11.37,-8.22,-3.0391,-3.9455,3.002,26.5625,9.0,31.375,268.1875,-69.6875,-157.375,0
1776973300.446,8.0613,-6.5721,7.4795,3.7974,0.174,1.7014,-76.5,-23.25,-4.95,12.1721,-0.4214,3.7373,-1.3387,-0.8639,-1.9215,-97.5,-9.15,-1.95,-6.71,-6.2,-1.9,-3.8365,-3.9248,3.1176,36.1875,0.5,25.0625,264.0625,-70.8125,-148.1875,0
1776973300.45,8.0613,-6.5721,7.4795,3.7625,-0.0253,1.7821,-75.45,-23.4,-3.3,12.1721,-0.4214,3.7373,-1.3387,-0.8639,-1.9215,-96.75,-6.9,-1.95,-6.71,-6.2,-1.9,-3.8365,-3.9248,3.1176,36.1875,0.5,25.0625,264.0625,-70.8125,-148.1875,0
1776973300.455,6.1363,-7.0677,9.2871,3.7625,-0.0253,1.7821,-75.45,-23.4,-3.3,11.0445,-0.2634,3.5578,-1.2279,-0.7826,-1.9084,-96.75,-6.9,-1.95,-29.86,-7.69,-6.88,-4.528,-3.8212,1.741,36.1875,0.5,25.0625,260.4375,-72.0,-139.625,0
1776973300.46,6.1363,-7.0677,9.2871,4.1523,0.1569,1.809,-74.7,-25.05,-1.8,11.0445,-0.2634,3.5578,-1.2279,-0.7826,-1.9084,-97.35,-6.0,-1.35,-29.86,-7.69,-6.88,-3.5856,-1.2937,-0.336,36.1875,0.5,25.0625,258.375,-72.625,-136.5625,0
1776973300.466,6.5649,-5.5474,7.7931,4.1131,0.231,1.5916,-74.7,-25.05,-1.8,10.7571,0.498,3.7781,-0.9971,-0.7202,-1.8751,-97.35,-6.0,-1.35,-19.41,-9.96,-12.99,-3.5856,-1.2937,-0.336,36.1875,0.5,25.0625,257.125,-72.9375,-138.6875,0
1776973300.476,8.1475,-4.3144,6.3231,3.2085,0.0799,1.3195,-74.55,-25.5,-0.9,10.5872,1.4461,3.0335,-0.6065,-0.7155,-1.8082,-97.35,-6.0,-1.35,-10.38,-12.58,-8.12,-3.2343,1.0374,-1.994,36.1875,0.5,25.0625,255.875,-73.0,-142.6875,0
1776973300.486,8.2073,-3.3902,5.8897,2.3137,-0.1801,1.1005,-74.1,-25.95,-0.9,9.9192,3.1268,3.2082,-0.1466,-0.6214,-1.7861,-96.45,-1.95,-1.5,-6.02,-9.74,-4.97,-3.5692,2.054,-2.6005,36.1875,0.5,25.0625,255.875,-73.0,-142.6875,0
1776973300.491,8.2073,-3.3902,5.8897,2.3137,-0.1801,1.1005,-74.1,-25.95,-0.9,10.8984,5.2912,3.0622,0.6987,-0.6387,-1.8426,-96.9,-0.75,-0.6,-6.02,-9.74,-4.97,-3.5692,2.054,-2.6005,40.1875,-7.75,18.875,254.125,-72.75,-146.625,0
1776973300.496,7.3837,-4.1539,5.2648,1.8095,-0.2473,0.9116,-74.1,-25.95,-0.9,10.8984,5.2912,3.0622,0.6987,-0.6387,-1.8426,-96.9,-0.75,-0.6,-3.93,-4.3,-3.61,-3.987,2.3409,-2.4904,40.1875,-7.75,18.875,254.125,-72.75,-146.625,0
1776973300.501,7.3837,-4.1539,5.2648,1.8095,-0.2473,0.9116,-74.55,-25.95,1.2,11.3557,6.5793,3.0861,1.3406,-0.7999,-1.91,-99.3,1.2,0.45,-3.93,-4.3,-3.61,-3.987,2.3409,-2.4904,40.1875,-7.75,18.875,252.4375,-72.3125,-150.0,0
1776973300.506,7.1299,-4.5921,6.2944,1.8114,-0.409,0.7101,-74.55,-25.95,1.2,11.3557,6.5793,3.0861,1.3406,-0.7999,-1.91,-99.3,1.2,0.45,-3.67,2.37,-3.67,-3.8354,2.3104,-2.2602,40.1875,-7.75,18.875,252.4375,-72.3125,-150.0,0
1776973300.512,7.1299,-4.5921,6.2944,1.8114,-0.409,0.7101,-74.55,-25.95,1.2,11.3437,6.6607,2.4493,1.9803,-0.9686,-1.9606,-98.85,2.4,-0.15,-3.69,3.4,-3.79,-3.0783,2.2438,-2.0486,40.1875,-7.75,18.875,251.0625,-71.75,-153.1875,0
1776973300.517,6.8043,-5.703,6.4715,1.7166,-0.6137,0.4818,-73.35,-26.7,2.4,11.3437,6.6607,2.4493,1.9803,-0.9686,-1.9606,-98.85,2.4,-0.15,-3.69,3.4,-3.79,-3.0783,2.2438,-2.0486,40.1875,-7.75,18.875,250.25,-71.0,-156.25,0
1776973300.526,6.517,-6.5314,6.6224,1.5071,-0.8058,0.2635,-73.35,-26.7,2.4,10.5967,5.1451,0.5267,2.2737,-0.9406,-1.9668,-98.85,2.4,-0.15,-3.36,2.64,-3.75,-2.1053,2.2569,-1.7573,40.1875,-7.75,18.875,249.75,-70.125,-158.875,0
1776973300.536,6.1746,-6.4548,6.4691,1.0379,-0.9848,0.129,-71.85,-26.7,3.45,11.3988,5.1547,1.3599,2.9338,-0.7645,-2.0328,-105.45,4.95,2.55,-3.49,0.92,-3.92,-1.3341,2.2929,-1.345,40.1875,-7.75,18.875,249.75,-70.125,-158.875,0
1776973300.541,6.1746,-6.4548,6.4691,1.0379,-0.9848,0.129,-73.8,-25.95,3.0,11.0038,3.9385,0.0958,3.4408,-0.8402,-2.0915,-106.35,6.75,4.95,-3.49,0.92,-3.92,-1.3341,2.2929,-1.345,40.1875,-7.75,18.875,249.75,-70.125,-158.875,0
1776973300.546,5.8299,-6.3518,6.4787,0.6765,-1.0645,0.0448,-73.8,-25.95,3.0,11.0038,3.9385,0.0958,3.4408,-0.8402,-2.0915,-106.35,6.75,4.95,-5.34,-1.47,-4.65,-0.9828,2.3791,-0.8585,40.0,-8.0625,22.0625,249.25,-69.0625,-160.75,0
1776973300.551,5.8299,-6.3518,6.4787,0.6765,-1.0645,0.0448,-73.2,-28.95,2.1,11.5568,0.838,-1.0702,3.516,-0.7837,-2.0451,-109.8,8.4,7.2,-5.34,-1.47,-4.65,-0.9828,2.3791,-0.8585,40.0,-8.0625,22.0625,249.25,-69.0625,-160.75,0
1776973300.556,5.6312,-6.6631,6.6702,0.3579,-1.1559,-0.0083,-73.2,-28.95,2.1,11.5568,0.838,-1.0702,3.516,-0.7837,-2.0451,-109.8,8.4,7.2,-6.15,-1.81,-4.98,-0.9425,2.5733,-0.4734,40.0,-8.0625,22.0625,248.5,-67.8125,-162.0,0
1776973300.561,5.6312,-6.6631,6.6702,0.3579,-1.1559,-0.0083,-73.2,-28.95,2.1,9.6199,2.7222,2.2889,3.2988,-0.9012,-1.954,-113.85,12.45,10.05,-6.15,-1.81,-4.98,-1.0057,2.8863,-0.2825,40.0,-8.0625,22.0625,247.5625,-66.3125,-162.9375,0
1776973300.567,5.533,-7.0078,6.7038,0.1053,-1.2737,-0.0448,-73.2,-28.95,2.1,9.6199,2.7222,2.2889,3.2988,-0.9012,-1.954,-114.75,15.75,10.95,-6.39,-1.96,-5.15,-1.0057,2.8863,-0.2825,40.0,-8.0625,22.0625,246.4375,-64.625,-163.8125,0
1776973300.576,5.4899,-7.0533,6.2513,-0.2747,-1.3872,-0.0967,-73.35,-26.7,0.45,9.3087,3.4931,2.5331,3.6393,-0.7482,-1.7808,-114.75,15.75,10.95,-5.55,-2.31,-4.31,-1.0581,3.2354,-0.2803,40.0,-8.0625,22.0625,245.375,-62.8125,-164.6875,0
1776973300.586,5.4588,-6.5793,5.7533,-0.6526,-1.5298,-0.129,-73.35,-26.7,0.45,9.2727,3.2226,1.9058,3.2743,-0.5766,-1.7075,-114.75,15.75,10.95,-5.22,-2.3,-3.73,-1.0843,3.4841,-0.4145,40.0,-8.0625,22.0625,245.375,-62.8125,-164.6875,0
1776973300.591,5.3582,-5.7317,5.2218,-0.9358,-1.6811,-0.199,-74.1,-27.15,0.9,9.4068,2.8467,1.549,3.2373,-0.5777,-1.663,-118.35,19.8,13.8,-5.22,-2.3,-3.73,-1.0843,3.4841,-0.4145,40.0,-8.0625,22.0625,245.375,-62.8125,-164.6875,0
1776973300.596,5.3582,-5.7317,5.2218,-0.9358,-1.6811,-0.199,-74.1,-27.15,0.9,9.4068,2.8467,1.549,3.2373,-0.5777,-1.663,-118.35,19.8,13.8,-4.96,-2.27,-2.98,-1.1017,3.5921,-0.6087,36.0625,-8.1875,27.25,244.25,-61.0,-165.6875,0
1776973300.6,5.0494,-4.7645,5.1092,-1.0632,-1.8463,-0.3309,-73.65,-27.75,-1.35,9.7755,2.5379,1.0822,3.0281,-0.5899,-1.6182,-118.65,21.0,14.25,-4.96,-2.27,-2.98,-1.1017,3.5921,-0.6087,36.0625,-8.1875,27.25,244.25,-61.0,-165.6875,0
1776973300.606,5.0494,-4.7645,5.1092,-1.0632,-1.8463,-0.3309,-73.65,-27.75,-1.35,9.7755,2.5379,1.0822,3.0281,-0.5899,-1.6182,-121.5,21.45,14.7,-4.54,-1.86,-2.32,-1.105,3.5965,-0.8312,36.0625,-8.1875,27.25,243.25,-59.1875,-166.6875,0
1776973300.61,4.5011,-3.699,5.047,-0.9761,-1.9462,-0.4724,-74.4,-28.05,-0.6,9.2632,3.0047,1.1947,2.8495,-0.6752,-1.5319,-121.5,21.45,14.7,-4.54,-1.86,-2.32,-1.0221,3.4765,-1.0625,36.0625,-8.1875,27.25,242.375,-57.4375,-167.6875,0
1776973300.617,4.5011,-3.699,5.047,-0.9761,-1.9462,-0.4724,-74.4,-28.05,-0.6,9.0166,1.3743,0.4118,2.7208,-0.6688,-1.5055,-119.4,21.3,13.8,-4.94,-1.56,-2.47,-1.0221,3.4765,-1.0625,36.0625,-8.1875,27.25,241.8125,-55.75,-168.875,0
1776973300.626,4.3862,-2.8252,4.9153,-0.6344,-2.0107,-0.6265,-73.05,-26.7,-2.7,8.6981,0.2083,0.0575,2.4075,-0.7101,-1.4813,-119.4,21.3,13.8,-5.32,-1.73,-2.73,-0.8443,3.3325,-1.2861,36.0625,-8.1875,27.25,241.8125,-55.75,-168.875,0
1776973300.636,4.2713,-1.7119,4.7788,-0.0757,-2.0491,-0.8164,-75.15,-26.55,-4.35,8.3701,-0.6393,-0.2538,2.1384,-0.6968,-1.5047,-119.1,19.05,10.65,-5.7,-2.2,-3.15,-0.6578,3.2474,-1.4519,36.0625,-8.1875,27.25,241.5,-54.125,-170.125,0
1776973300.641,4.3886,-0.8715,4.2353,0.3928,-2.0555,-1.0237,-74.85,-25.95,-4.2,8.3701,-0.6393,-0.2538,2.1384,-0.6968,-1.5047,-119.1,19.05,10.65,-5.7,-2.2,-3.15,-0.6578,3.2474,-1.4519,36.0625,-8.1875,27.25,241.5,-54.125,-170.125,0
1776973300.646,4.3886,-0.8715,4.2353,0.3928,-2.0555,-1.0237,-74.85,-25.95,-4.2,8.0086,-1.3096,-0.7829,1.8402,-0.6318,-1.5567,-118.35,19.5,12.45,-5.27,-2.79,-3.17,-0.5749,3.2441,-1.5446,31.5625,-10.1875,32.375,241.3125,-52.5,-171.3125,0
1776973300.651,4.5945,-0.8475,3.972,0.9188,-2.0523,-1.2412,-74.85,-25.95,-4.2,8.0086,-1.3096,-0.7829,1.8402,-0.6318,-1.5567,-118.35,19.5,12.45,-5.27,-2.79,-3.17,-0.5749,3.2441,-1.5446,31.5625,-10.1875,32.375,241.3125,-52.5,-171.3125,0
1776973300.656,4.5945,-0.8475,3.972,0.9188,-2.0523,-1.2412,-74.85,-25.95,-4.2,7.6926,-0.8499,-1.0295,1.5886,-0.566,-1.6113,-118.95,19.65,11.55,-5.03,-2.54,-3.34,-0.601,3.2332,-1.5555,31.5625,-10.1875,32.375,241.0625,-50.8125,-172.375,0
1776973300.661,4.81,-1.6735,3.8499,1.4024,-2.0384,-1.4136,-76.65,-26.55,-5.85,7.6926,-0.8499,-1.0295,1.5886,-0.566,-1.6113,-118.95,19.65,11.55,-5.03,-2.54,-3.34,-0.6141,3.1481,-1.5195,31.5625,-10.1875,32.375,240.8125,-49.1875,-173.3125,0
1776973300.667,5.0901,-2.9497,4.0127,1.4024,-2.0384,-1.4136,-76.65,-26.55,-5.85,7.4675,-0.0263,-1.2474,1.3566,-0.4226,-1.6305,-117.45,20.4,9.75,-5.11,-2.11,-3.58,-0.6141,3.1481,-1.5195,31.5625,-10.1875,32.375,240.625,-47.625,-174.125,0
1776973300.676,5.4971,-4.0725,4.2018,1.7488,-2.0286,-1.5191,-76.8,-26.7,-6.75,7.6543,0.4501,-1.2785,1.234,-0.3714,-1.6473,-117.3,20.25,10.95,-5.74,-2.47,-4.5,-0.5323,3.0609,-1.4933,31.5625,-10.1875,32.375,240.625,-47.625,-174.125,0
1776973300.686,5.8371,-4.7501,4.2329,1.9681,-2.0195,-1.5471,-76.8,-25.2,-5.7,7.0437,0.3472,-1.5562,1.0912,-0.3629,-1.6108,-117.3,20.25,10.95,-5.78,-3.28,-4.62,-0.3742,3.0205,-1.5381,31.5625,-10.1875,32.375,240.6875,-46.0,-175.0,0
1776973300.691,5.8371,-4.7501,4.2329,1.9718,-2.0456,-1.5543,-76.95,-23.85,-5.55,7.0437,0.3472,-1.5562,1.0912,-0.3629,-1.6108,-117.3,20.25,10.95,-5.78,-3.28,-4.62,-0.3742,3.0205,-1.5381,31.5625,-10.1875,32.375,240.6875,-46.0,-175.0,0
1776973300.696,5.873,-4.9943,3.7661,1.9718,-2.0456,-1.5543,-76.95,-23.85,-5.55,7.0629,0.7254,-1.1253,1.0768,-0.2705,-1.5434,-117.15,19.95,10.05,-5.39,-3.95,-4.49,-0.2793,3.0358,-1.6712,26.0625,-10.75,36.0,249.1875,-44.4375,-175.9375,0
1776973300.701,5.873,-4.9943,3.7661,1.7834,-2.0765,-1.5591,-76.65,-24.15,-6.6,7.0629,0.7254,-1.1253,1.0768,-0.2705,-1.5434,-117.15,19.95,10.05,-5.39,-3.95,-4.49,-0.2793,3.0358,-1.6712,26.0625,-10.75,36.0,249.1875,-44.4375,-175.9375,0
1776973300.706,5.8442,-5.0877,3.5985,1.6294,-2.1093,-1.5668,-76.65,-24.15,-6.6,6.5553,1.142,-1.1875,0.9785,-0.1535,-1.4957,-117.15,19.95,9.0,-4.81,-3.89,-4.35,-0.2836,3.0085,-1.861,26.0625,-10.75,36.0,248.0,-42.8125,-176.875,0
1776973300.712,5.8442,-5.0877,3.5985,1.6294,-2.1093,-1.5668,-78.3,-23.55,-6.75,6.5553,1.142,-1.1875,0.9022,-0.1668,-1.4509,-117.15,19.95,9.0,-5.16,-3.67,-4.58,-0.2705,2.906,-2.0759,26.0625,-10.75,36.0,246.75,-41.25,-177.8125,0
1776973300.717,5.3702,-4.7238,3.5458,1.5023,-2.1514,-1.594,-78.3,-23.55,-6.75,6.9192,1.5586,-1.1229,0.9022,-0.1668,-1.4509,-115.5,20.25,9.6,-5.16,-3.67,-4.58,-0.2705,2.906,-2.0759,26.0625,-10.75,36.0,245.4375,-39.75,-178.875,0
1776973300.726,5.2098,-3.9073,3.5075,1.4368,-2.1781,-1.6481,-78.3,-23.55,-6.75,6.8019,1.7765,-1.1923,0.7799,-0.1394,-1.3965,-116.55,21.75,9.6,-5.17,-4.01,-4.63,-0.1571,2.8013,-2.3431,26.0625,-10.75,36.0,245.4375,-39.75,-178.875,0
1776973300.736,5.2648,-3.1196,3.2298,1.4594,-2.1965,-1.7445,-78.15,-21.9,-8.85,6.6942,1.7741,-1.1349,0.6723,-0.0983,-1.3249,-116.55,21.75,9.6,-4.75,-4.6,-4.49,-0.0338,2.7293,-2.6387,26.0625,-10.75,36.0,243.9375,-38.25,179.875,0
1776973300.741,5.2648,-3.1196,3.2298,1.4594,-2.1965,-1.7445,-78.15,-21.9,-8.85,6.6942,1.7741,-1.1349,0.6723,-0.0983,-1.3249,-116.55,21.75,9.6,-4.75,-4.6,-4.49,-0.0338,2.7293,-2.6387,26.0625,-10.75,36.0,242.3125,-36.75,178.625,0
1776973300.746,5.0949,-2.4493,3.122,1.6198,-2.2191,-1.8594,-78.15,-21.9,-8.85,6.6224,1.7597,-1.2761,0.6139,-0.0544,-1.2404,-116.25,22.8,9.9,-4.15,-5.02,-4.41,0.0131,2.6136,-2.9332,21.6875,-11.0625,40.0,242.3125,-36.75,178.625,0
1776973300.751,5.0949,-2.4493,3.122,1.6198,-2.2191,-1.8594,-80.55,-22.8,-9.75,6.6224,1.7597,-1.2761,0.5883,0.0253,-1.1453,-116.25,22.8,9.9,-4.15,-5.02,-4.41,0.0131,2.6136,-2.9332,21.6875,-11.0625,40.0,240.5625,-35.375,177.375,0
1776973300.756,5.0494,-1.8507,3.0646,1.809,-2.2244,-1.9982,-80.55,-22.8,-9.75,6.1316,1.5897,-1.312,0.5883,0.0253,-1.1453,-116.4,20.7,7.95,-3.93,-4.82,-4.37,0.0065,2.4544,-3.1972,21.6875,-11.0625,40.0,240.5625,-35.375,177.375,0
1776973300.761,5.0494,-1.8507,3.0646,1.809,-2.2244,-1.9982,-80.55,-19.65,-9.0,6.1316,1.5897,-1.312,0.571,0.1671,-1.0365,-116.4,20.7,7.95,-3.93,-4.82,-4.37,0.0196,2.3027,-3.4099,21.6875,-11.0625,40.0,238.75,-34.0,176.125,0
1776973300.767,5.102,-1.7885,3.0861,2.0693,-2.2665,-2.1738,-80.55,-19.65,-9.0,5.952,1.4365,-1.6185,0.571,0.1671,-1.0365,-115.2,21.45,9.3,-3.58,-4.61,-4.44,0.0196,2.3027,-3.4099,21.6875,-11.0625,40.0,236.8125,-32.625,174.875,0
1776973300.776,5.0949,-1.9345,3.0837,2.2897,-2.3004,-2.3454,-80.85,-18.3,-10.65,5.6982,1.233,-1.8148,0.5649,0.2403,-0.9241,-113.4,22.95,8.7,-3.38,-4.34,-4.81,0.0709,2.1511,-3.5605,21.6875,-11.0625,40.0,236.8125,-32.625,174.875,0
1776973300.786,5.3534,-2.5115,3.1484,2.4437,-2.3052,-2.5077,-82.65,-19.05,-9.15,5.8012,1.008,-1.9585,0.6214,0.3621,-0.8021,-117.15,22.2,9.3,-3.26,-4.22,-5.07,0.1407,2.0235,-3.6357,21.6875,-11.0625,40.0,234.875,-31.3125,173.5625,0
1776973300.791,5.6527,-3.237,3.2561,2.4437,-2.3052,-2.5077,-82.65,-18.75,-11.4,5.4372,0.7374,-1.9776,0.559,0.3802,-0.6715,-117.15,22.2,9.3,-3.26,-4.22,-5.07,0.1407,2.0235,-3.6357,21.6875,-11.0625,40.0,232.9375,-30.0,172.375,0
1776973300.796,5.6527,-3.237,3.2561,2.521,-2.367,-2.6574,-82.65,-18.75,-11.4,5.4372,0.7374,-1.9776,0.559,0.3802,-0.6715,-117.15,22.2,9.3,-3.35,-3.85,-5.6,0.2171,1.9319,-3.6401,17.25,-10.25,41.375,232.9375,-30.0,172.375,0
1776973300.801,5.794,-3.9049,3.3303,2.521,-2.367,-2.6574,-83.4,-17.1,-12.45,5.3295,0.7518,-1.9656,0.5865,0.4357,-0.534,-117.15,22.2,9.3,-3.35,-3.85,-5.6,0.2171,1.9319,-3.6401,17.25,-10.25,41.375,231.0625,-28.6875,171.125,0
1776973300.806,5.794,-3.9049,3.3303,2.513,-2.4149,-2.7531,-83.4,-17.1,-12.45,5.3295,0.7518,-1.9656,0.5865,0.4357,-0.534,-115.8,22.8,9.6,-4.04,-3.32,-7.1,0.3262,1.8773,-3.5801,17.25,-10.25,41.375,231.0625,-28.6875,171.125,0
1776973300.814,6.1172,-4.7477,3.3016,2.4213,-2.4472,-2.8205,-83.4,-17.1,-12.45,5.3463,0.6416,-2.1189,0.5007,0.5321,-0.3802,-115.2,22.65,9.0,-4.59,-3.48,-7.98,0.4865,1.8991,-3.483,17.25,-10.25,41.375,229.3125,-27.3125,169.9375,0
1776973300.819,6.1172,-4.7477,3.3016,2.4213,-2.4472,-2.8205,-83.4,-17.1,-12.45,5.3463,0.6416,-2.1189,0.4293,0.574,-0.2281,-115.2,22.65,9.0,-4.59,-3.48,-7.98,0.4865,1.8991,-3.483,17.25,-10.25,41.375,227.625,-25.875,168.8125,0
1776973300.827,6.5505,-5.3008,3.3926,2.1823,-2.4794,-2.865,-84.45,-14.55,-12.75,5.3463,0.6584,-2.2027,0.4293,0.574,-0.2281,-115.65,22.2,10.8,-4.97,-3.53,-8.68,0.6512,2.0377,-3.351,17.25,-10.25,41.375,226.0625,-24.3125,167.6875,0
1776973300.837,7.3023,-5.8682,3.0957,1.7611,-2.5242,-2.9066,-84.0,-13.5,-13.5,5.4085,0.5555,-2.0973,0.3579,0.6139,-0.0616,-115.95,22.65,9.3,-4.98,-3.37,-9.12,0.7756,2.258,-3.2005,17.25,-10.25,41.375,226.0625,-24.3125,167.6875,0
1776973300.842,7.9942,-6.1411,3.1292,1.2545,-2.5996,-2.934,-85.5,-15.0,-13.5,5.2792,0.5483,-1.8148,0.288,0.6843,0.0917,-115.95,22.65,9.3,-4.98,-3.37,-9.12,0.7756,2.258,-3.2005,17.25,-10.25,41.375,224.625,-22.5625,166.625,0
1776973300.847,7.9942,-6.1411,3.1292,1.2545,-2.5996,-2.934,-85.5,-15.0,-13.5,5.2792,0.5483,-1.8148,0.288,0.6843,0.0917,-115.95,22.65,9.3,-4.68,-2.15,-9.76,0.8792,2.4816,-3.0161,14.875,-9.875,44.5625,224.625,-22.5625,166.625,0
1776973300.851,8.3079,-6.2632,2.8754,0.6515,-2.6628,-2.9572,-83.7,-12.3,-14.25,5.4684,0.4573,-1.9249,0.1716,0.7317,0.2414,-115.95,22.65,9.3,-4.68,-2.15,-9.76,0.8792,2.4816,-3.0161,14.875,-9.875,44.5625,224.625,-22.5625,166.625,0
1776973300.857,8.3079,-6.2632,2.8754,0.6515,-2.6628,-2.9572,-83.7,-12.3,-14.25,5.4684,0.4573,-1.9249,0.1716,0.7317,0.2414,-117.15,21.9,9.75,-4.66,-1.59,-10.15,1.0287,2.6584,-2.7827,14.875,-9.875,44.5625,223.375,-20.75,165.5625,0
1776973300.862,8.7771,-6.0454,2.6432,0.1053,-2.7262,-2.9796,-85.35,-10.95,-17.4,5.4324,0.5339,-1.7095,0.1135,0.7613,0.3757,-118.35,22.05,9.9,-4.66,-1.59,-10.15,1.2119,2.7925,-2.4936,14.875,-9.875,44.5625,222.3125,-18.9375,164.5625,0
1776973300.867,8.7771,-6.0454,2.6432,0.1053,-2.7262,-2.9796,-85.35,-10.95,-17.4,5.4324,0.5339,-1.7095,0.0714,1.0709,0.518,-118.35,22.05,9.9,-4.85,-1.68,-10.63,1.2119,2.7925,-2.4936,14.875,-9.875,44.5625,221.4375,-17.0625,163.5625,0
1776973300.877,8.9687,-5.6216,2.3918,-0.4349,-2.7797,-3.0369,-85.5,-10.35,-18.6,4.5035,0.1365,-1.7549,0.0714,1.0709,0.518,-118.5,21.9,10.05,-5.24,-2.77,-11.3,1.345,2.9114,-2.174,14.875,-9.875,44.5625,221.4375,-17.0625,163.5625,0
1776973300.887,9.244,-4.8387,2.1691,-0.8828,-2.7627,-3.1104,-85.5,-10.35,-18.6,5.7796,0.1484,-1.9585,-0.162,0.9529,0.8234,-119.25,21.45,11.55,-5.58,-2.76,-11.7,1.3679,3.0052,-1.838,14.875,-9.875,44.5625,220.75,-15.125,162.6875,0
1776973300.891,9.2632,-3.5937,2.0207,-1.2449,-2.7179,-3.1765,-84.45,-6.75,-20.85,6.2369,0.1221,-2.3439,-0.162,0.9529,0.8234,-118.95,22.65,11.55,-5.58,-2.76,-11.7,1.3679,3.0052,-1.838,14.875,-9.875,44.5625,220.75,-15.125,162.6875,0
1776973300.896,9.2632,-3.5937,2.0207,-1.2449,-2.7179,-3.1765,-84.45,-6.75,-20.85,6.3734,0.1317,-2.5211,-0.2947,1.0581,0.9856,-118.95,22.65,11.55,-5.76,-2.56,-11.86,1.3701,3.0456,-1.5272,12.5,-9.0625,47.875,220.3125,-13.3125,161.875,0
1776973300.901,9.8282,-2.6121,1.585,-1.5942,-2.5882,-3.2476,-84.45,-6.75,-20.85,6.3734,0.1317,-2.5211,-0.2947,1.0581,0.9856,-118.95,22.65,11.55,-5.76,-2.56,-11.86,1.3701,3.0456,-1.5272,12.5,-9.0625,47.875,220.3125,-13.3125,161.875,0
1776973300.906,9.8282,-2.6121,1.585,-1.5942,-2.5882,-3.2476,-84.45,-6.75,-20.85,7.118,0.3974,-2.9544,-0.296,1.2396,1.1527,-118.95,22.65,11.55,-5.67,-2.49,-11.82,1.4475,3.0358,-1.249,12.5,-9.0625,47.875,219.9375,-11.4375,161.0,0
1776973300.913,10.4675,-2.2889,1.0319,-1.7197,-2.4384,-3.3268,-84.0,-5.25,-23.4,7.118,0.3974,-2.9544,-0.296,1.2396,1.1527,-119.85,21.75,11.7,-6.54,-3.35,-12.07,1.6024,2.942,-0.9785,12.5,-9.0625,47.875,219.75,-9.75,160.125,0
1776973300.918,10.5512,-1.8052,1.1803,-1.4352,-2.2092,-3.346,-84.0,-5.25,-23.4,7.6088,0.9098,-3.2896,-0.319,1.2156,1.319,-119.85,21.75,11.7,-6.54,-3.35,-12.07,1.6024,2.942,-0.9785,12.5,-9.0625,47.875,219.75,-8.125,159.1875,0
1776973300.927,10.3717,-0.8739,0.759,-1.1455,-2.0272,-3.3092,-84.75,-0.9,-26.1,7.8578,1.5371,-3.6775,-0.2571,1.1922,1.4264,-119.25,20.4,12.9,-7.86,-4.96,-12.4,1.7606,2.8045,-0.721,12.5,-9.0625,47.875,219.8125,-6.625,158.1875,0
1776973300.937,10.5632,-0.0359,0.9313,-0.9196,-1.8791,-3.2431,-84.0,0.45,-27.9,8.3797,2.4277,-4.0127,-0.2489,1.3544,1.4741,-121.5,19.95,12.15,-9.09,-6.29,-12.51,1.8184,2.7543,-0.5203,12.5,-9.0625,47.875,219.8125,-6.625,158.1875,0
1776973300.942,10.5632,-0.0359,0.9313,-0.9196,-1.8791,-3.2431,-82.65,2.7,-27.75,8.3797,2.4277,-4.0127,-0.2489,1.3544,1.4741,-121.95,20.55,12.75,-9.09,-6.29,-12.51,1.8184,2.7543,-0.5203,12.5,-9.0625,47.875,219.9375,-5.125,157.25,0
1776973300.947,10.8098,0.5842,0.9912,-0.8092,-1.7328,-3.1083,-82.65,2.7,-27.75,9.7492,3.8188,-4.4173,-0.1847,1.4629,1.5489,-121.95,20.55,12.75,-10.23,-6.74,-11.55,1.7671,2.7914,-0.4243,7.5,-6.5,53.375,219.9375,-5.125,157.25,0
1776973300.952,10.8098,0.5842,0.9912,-0.8092,-1.7328,-3.1083,-82.65,2.7,-27.75,9.7492,3.8188,-4.4173,-0.1847,1.4629,1.5489,-121.95,20.55,12.75,-10.23,-6.74,-11.55,1.7671,2.7914,-0.4243,7.5,-6.5,53.375,220.0,-3.5625,156.375,0
1776973300.957,11.2504,0.7087,1.0199,-0.6707,-1.546,-2.9018,-82.65,2.7,-27.75,10.4196,5.3965,-5.3367,0.0131,1.4794,1.6113,-121.95,20.55,12.75,-10.34,-5.78,-10.6,1.6821,2.7893,-0.4701,7.5,-6.5,53.375,220.0,-3.5625,156.375,0
1776973300.961,11.2504,0.7087,1.0199,-0.6707,-1.546,-2.9018,-82.65,2.7,-27.75,10.4196,5.3965,-5.3367,0.0131,1.4794,1.6113,-121.8,22.2,15.0,-10.34,-5.78,-10.6,1.6581,2.6267,-0.636,7.5,-6.5,53.375,220.0,-2.125,155.4375,0
1776973300.967,11.2144,0.8452,1.0295,-0.3698,-1.3688,-2.6143,-83.1,3.45,-29.25,11.0636,7.0006,-5.6,0.2595,1.3518,1.566,-121.8,22.2,15.0,-10.63,-4.6,-9.69,1.6581,2.6267,-0.636,7.5,-6.5,53.375,219.8125,-0.75,154.5,0
1776973300.977,10.829,0.8571,0.8308,-0.0123,-1.1991,-2.2572,-83.1,3.45,-29.25,11.7819,8.011,-5.2744,0.319,1.1415,1.4837,-122.7,21.75,14.55,-12.34,-2.59,-8.06,1.7191,2.3202,-0.8476,7.5,-6.5,53.375,219.5,0.4375,153.5,0
1776973300.987,10.3525,0.4046,0.6584,0.2822,-0.9214,-1.8874,-84.6,9.0,-30.3,12.074,9.086,-4.5849,0.1178,1.0144,1.3696,-124.35,22.2,16.2,-13.47,-2.1,-7.05,1.8217,1.934,-1.0701,7.5,-6.5,53.375,219.5,0.4375,153.5,0
1776973300.992,10.3525,0.4046,0.6584,0.2822,-0.9214,-1.8874,-84.6,9.0,-30.3,12.074,9.086,-4.5849,0.1178,1.0144,1.3696,-122.1,25.65,15.75,-13.47,-2.1,-7.05,1.8217,1.934,-1.0701,7.5,-6.5,53.375,219.5,0.4375,153.5,0
1776973300.997,9.5768,0.0742,2.0638,0.5692,-0.623,-1.4863,-84.15,7.8,-31.35,12.1194,9.7492,-4.1492,-0.2438,1.1085,1.1437,-122.1,25.65,15.75,-14.22,-1.9,-5.71,1.8697,1.5086,-1.3046,1.5,-1.875,56.25,218.9375,1.5,152.4375,0
1776973301.002,9.5768,0.0742,2.0638,0.5692,-0.623,-1.4863,-84.15,7.8,-31.35,12.1194,9.7492,-4.1492,-0.2438,1.1085,1.1437,-123.15,27.3,14.25,-14.22,-1.9,-5.71,1.8697,1.5086,-1.3046,1.5,-1.875,56.25,218.9375,1.5,152.4375,0
1776973301.007,10.1897,0.8906,1.7286,0.2721,-0.2065,-1.1383,-83.7,9.45,-30.45,11.6119,10.1801,-3.6224,-0.5993,1.0003,0.9348,-123.15,27.3,14.25,-14.71,-1.19,-4.36,1.7541,0.9916,-1.4824,1.5,-1.875,56.25,218.25,2.375,151.5,0
1776973301.015,11.6358,0.4693,0.2849,0.0858,-0.1588,-0.6795,-82.35,8.55,-31.05,11.4251,10.5608,-3.5769,-0.7144,1.1762,0.7869,-123.15,27.3,14.25,-18.73,-7.62,1.47,1.3537,0.3185,-1.6493,1.5,-1.875,56.25,217.375,2.9375,150.8125,0
1776973301.02,11.6358,0.4693,0.2849,0.0858,-0.1588,-0.6795,-82.35,8.55,-31.05,11.4251,10.5608,-3.5769,-0.7144,1.1762,0.7869,-120.75,30.45,12.9,-18.73,-7.62,1.47,1.3537,0.3185,-1.6493,1.5,-1.875,56.25,216.1875,2.5,151.0625,0
1776973301.027,8.4324,1.063,3.213,0.5697,0.3608,0.0613,-82.5,9.45,-31.95,10.9367,10.2759,-4.0606,-0.6022,1.2444,0.6829,-120.75,30.45,12.9,-23.57,-2.18,6.49,-0.3676,-1.849,-1.6624,1.5,-1.875,56.25,214.9375,1.25,152.0625,0
1776973301.037,11.157,4.889,-0.6201,0.6395,1.1111,0.6254,-82.95,7.5,-30.15,13.0819,10.2161,-3.5674,-0.3099,1.6252,0.7663,-118.2,30.9,13.65,-28.35,5.33,6.41,-1.6777,-3.3227,-1.3974,1.5,-1.875,56.25,214.9375,1.25,152.0625,0
1776973301.042,19.0291,6.6439,-13.7643,-0.23,0.5907,0.4642,-82.95,7.5,-30.15,15.7155,8.9352,-2.8443,-0.4519,2.0219,1.1048,-118.5,30.15,13.35,-28.35,5.33,6.41,-1.6777,-3.3227,-1.3974,-1.875,3.375,59.25,213.6875,-0.3125,153.1875,0
1776973301.047,19.0291,6.6439,-13.7643,-0.23,0.5907,0.4642,-82.95,7.5,-30.15,15.7155,8.9352,-2.8443,-0.4519,2.0219,1.1048,-118.5,30.15,13.35,-2.22,4.25,-14.6,-2.0355,-3.987,-1.2599,-1.875,3.375,59.25,213.6875,-0.3125,153.1875,0
1776973301.052,17.8105,6.1196,-16.4937,0.3792,-0.0791,0.0693,-82.95,7.5,-30.15,15.2008,8.1187,-3.7948,-0.7693,1.6371,1.339,-118.95,30.15,12.9,-2.22,4.25,-14.6,-2.0355,-3.987,-1.2599,-1.875,3.375,59.25,212.5,-2.3125,154.0625,0
1776973301.057,17.8105,6.1196,-16.4937,0.3792,-0.0791,0.0693,-82.65,6.9,-27.75,15.2008,8.1187,-3.7948,-0.7693,1.6371,1.339,-118.95,30.15,12.9,0.12,-7.3,-21.62,-1.6264,-4.5269,-1.0919,-1.875,3.375,59.25,212.5,-2.3125,154.0625,0
1776973301.062,8.1475,-0.5842,-9.7755,2.1341,0.4549,-0.0085,-82.65,6.9,-27.75,14.1497,7.92,-4.3144,-0.5785,0.9737,1.2614,-118.95,30.15,12.9,0.12,-7.3,-21.62,-0.8792,-4.5237,-0.3392,-1.875,3.375,59.25,211.75,-4.5,154.4375,0
1776973301.068,8.1475,-0.5842,-9.7755,2.1341,0.4549,-0.0085,-82.65,6.9,-27.75,14.1497,7.92,-4.3144,-0.5785,0.9737,1.2614,-118.95,30.15,12.9,-9.9,-0.27,-14.87,-0.8792,-4.5237,-0.3392,-1.875,3.375,59.25,211.5625,-6.6875,154.9375,0
1776973301.077,10.6949,-6.7229,-11.6334,1.9289,0.8692,0.3762,-82.35,6.6,-29.85,15.1912,7.525,-4.4317,0.3435,0.915,1.3315,-117.6,30.3,10.2,-6.21,12.32,-15.88,-0.9218,-4.1255,0.6981,-1.875,3.375,59.25,211.5625,-6.6875,154.9375,0
1776973301.087,14.7531,-7.0773,-10.3597,0.7682,0.8583,0.6483,-83.85,6.9,-28.05,16.5056,6.4189,-5.2553,1.3688,0.8876,1.582,-119.4,27.3,11.4,-6.93,5.75,-18.94,-0.4167,-3.9335,0.937,-1.875,3.375,59.25,211.625,-8.875,155.0625,0
1776973301.092,12.6869,-3.6033,-3.0071,0.6515,1.145,0.7741,-83.85,6.9,-28.05,16.9988,4.6256,-5.952,2.4728,0.7152,1.6691,-117.75,30.15,10.5,-6.93,5.75,-18.94,-0.4167,-3.9335,0.937,-1.875,3.375,59.25,211.8125,-11.1875,154.8125,0
1776973301.097,12.6869,-3.6033,-3.0071,0.6515,1.145,0.7741,-84.15,6.15,-28.05,16.9988,4.6256,-5.952,2.4728,0.7152,1.6691,-118.35,26.55,9.15,-12.27,1.12,-17.33,0.336,-3.9783,1.2741,8.0625,3.375,62.1875,211.8125,-11.1875,154.8125,0
1776973301.102,12.6414,2.308,1.6041,0.3984,1.4402,0.9142,-84.15,6.15,-28.05,15.7012,2.1596,-5.624,3.3771,0.2297,1.5255,-118.35,26.55,9.15,-12.27,1.12,-17.33,0.336,-3.9783,1.2741,8.0625,3.375,62.1875,212.3125,-13.375,154.5,0
1776973301.107,12.6414,2.308,1.6041,0.3984,1.4402,0.9142,-84.45,4.8,-27.9,15.7012,2.1596,-5.624,3.3771,0.2297,1.5255,-118.05,28.05,8.55,-10.77,-4.07,-14.44,0.5836,-3.5986,1.6188,8.0625,3.375,62.1875,212.3125,-13.375,154.5,0
1776973301.115,12.2607,7.173,5.3008,0.3477,1.639,0.9758,-84.45,4.8,-27.9,14.3054,0.3687,-4.2401,3.9031,-0.3485,1.1706,-118.05,28.05,8.55,-9.86,-12.94,-10.73,0.6,-3.0958,1.5053,8.0625,3.375,62.1875,212.8125,-15.3125,154.1875,0
1776973301.12,10.8864,9.7851,5.6623,0.8343,1.6537,0.9355,-84.45,4.8,-27.9,11.1426,-0.9888,-2.059,3.4448,-0.655,0.6787,-118.05,28.05,8.55,-9.86,-12.94,-10.73,0.6,-3.0958,1.5053,8.0625,3.375,62.1875,213.3125,-17.125,154.0625,0
1776973301.127,10.0963,8.8298,2.6504,0.8343,1.6537,0.9355,-85.35,4.2,-25.05,11.1426,-0.9888,-2.059,3.4448,-0.655,0.6787,-120.6,27.0,3.9,-13.69,-15.29,-10.64,0.2138,-2.9627,1.4508,8.0625,3.375,62.1875,213.8125,-18.75,154.3125,0
1776973301.137,10.1514,3.7828,1.0774,1.7224,1.4011,0.8372,-85.35,4.2,-25.05,9.2296,-2.5498,-0.2131,2.0475,0.0019,0.2433,-121.95,25.8,5.25,-10.53,-9.45,-8.8,-0.3589,-2.5209,1.5708,8.0625,3.375,62.1875,213.8125,-18.75,154.3125,0
1776973301.142,10.1514,3.7828,1.0774,2.4909,1.2065,0.7461,-85.35,4.2,-25.05,7.9344,-4.2425,2.6145,0.3725,-0.3893,-0.1721,-121.95,25.8,5.25,-10.53,-9.45,-8.8,-0.3589,-2.5209,1.5708,8.0625,3.375,62.1875,213.8125,-18.75,154.3125,0
1776973301.147,10.2065,-2.083,1.6209,2.4909,1.2065,0.7461,-86.55,1.95,-24.0,7.9344,-4.2425,2.6145,0.3725,-0.3893,-0.1721,-123.45,21.3,4.2,-6.6,-1.96,-10.25,-0.8268,-1.8151,1.3352,22.0,3.375,61.5,214.25,-20.0,154.875,0
1776973301.152,10.2065,-2.083,1.6209,2.5151,1.1181,0.7592,-86.55,1.95,-24.0,5.3989,-6.1028,6.6726,-1.7347,0.2262,-0.2915,-123.45,21.3,4.2,-6.6,-1.96,-10.25,-0.8268,-1.8151,1.3352,22.0,3.375,61.5,214.25,-20.0,154.875,0
1776973301.157,9.8641,-6.6702,1.7573,2.5151,1.1181,0.7592,-86.1,1.95,-24.0,5.3989,-6.1028,6.6726,-1.7347,0.2262,-0.2915,-123.45,18.3,6.75,-5.39,-2.46,-9.77,-0.9479,-1.4072,1.1236,22.0,3.375,61.5,214.625,-20.9375,155.5,0
1776973301.163,9.8641,-6.6702,1.7573,1.8754,1.1956,0.7608,-86.1,1.95,-24.0,5.5809,-7.5992,8.0373,-2.9543,0.6856,-0.0887,-123.45,18.3,6.75,-5.25,-2.3,-10.23,-0.8858,-1.1606,0.9239,22.0,3.375,61.5,214.875,-21.75,156.0625,0
1776973301.168,10.8146,-9.3158,2.0949,0.7538,1.2753,0.7735,-86.25,0.9,-23.4,5.9113,-7.5274,7.2927,-2.2452,0.7139,0.295,-123.45,18.3,6.75,-5.25,-2.3,-10.23,-0.8858,-1.1606,0.9239,22.0,3.375,61.5,215.0625,-22.5,156.5,0
1776973301.177,11.0373,-7.8578,1.6496,-0.4682,1.2516,0.716,-86.55,0.75,-22.2,5.9855,-5.9376,4.4269,-1.2257,1.1868,0.6582,-123.45,18.3,6.75,-6.1,-1.07,-10.62,-0.7538,-1.0919,0.721,22.0,3.375,61.5,215.1875,-23.0625,156.875,0
1776973301.187,10.5393,-4.3335,1.8364,-1.4328,1.1687,0.5588,-87.3,-0.75,-21.75,7.7285,-4.6328,2.1548,-0.154,1.4917,0.8735,-116.7,0.9,7.65,-5.44,-3.16,-9.5,-0.5585,-0.8967,0.5291,22.0,3.375,61.5,215.1875,-23.0625,156.875,0
1776973301.192,10.5393,-4.3335,1.8364,-1.4328,1.1687,0.5588,-87.3,-0.75,-21.75,7.7285,-4.6328,2.1548,-0.154,1.4917,0.8735,-116.7,0.9,7.65,-5.44,-3.16,-9.5,-0.5585,-0.8967,0.5291,22.0,3.375,61.5,215.3125,-23.4375,157.0625,0
1776973301.197,9.8569,-0.8811,1.9321,-1.8703,1.0536,0.4535,-87.45,-0.15,-20.1,7.9368,-3.7326,1.1396,0.4844,1.3606,1.0373,-112.65,-2.4,9.0,-4.96,-3.39,-9.11,-0.2891,-0.6185,0.3687,29.5625,0.5,62.0,215.3125,-23.4375,157.0625,0
1776973301.202,9.8569,-0.8811,1.9321,-1.8703,1.0536,0.4535,-87.45,-0.15,-20.1,7.9368,-3.7326,1.1396,0.4844,1.3606,1.0373,-112.65,-2.4,9.0,-4.96,-3.39,-9.11,-0.2891,-0.6185,0.3687,29.5625,0.5,62.0,215.3125,-23.4375,157.0625,0
1776973301.207,9.7061,2.3774,1.7741,-1.9172,0.9462,0.5188,-87.45,-0.15,-20.1,8.0445,-2.9616,0.4094,0.5702,1.3925,1.1708,-109.95,-6.0,7.35,-4.55,-2.84,-8.96,-0.1756,-0.3883,0.2596,29.5625,0.5,62.0,215.375,-23.6875,157.125,0
1776973301.215,9.7803,4.5825,1.5514,-1.6478,0.878,0.6731,-87.75,-1.65,-20.1,8.0445,-2.9616,0.4094,0.5702,1.3925,1.1708,-105.75,-8.4,6.15,-4.4,-3.45,-8.58,-0.132,-0.2771,0.2007,29.5625,0.5,62.0,215.4375,-23.875,157.25,0
1776973301.22,9.7803,4.5825,1.5514,-1.6478,0.878,0.6731,-87.75,-1.65,-20.1,9.8904,-1.6783,0.2466,0.4402,1.4189,1.2644,-105.75,-8.4,6.15,-4.4,-3.45,-8.58,-0.132,-0.2771,0.2007,29.5625,0.5,62.0,215.5,-24.0625,157.3125,0
1776973301.228,9.5505,5.2888,0.7518,-1.0581,0.8388,0.7576,-87.0,-1.35,-20.85,10.3214,0.4214,0.8092,0.17,1.0496,1.2073,-105.75,-8.4,6.15,-4.56,-3.39,-8.58,-0.1134,-0.2334,0.1593,29.5625,0.5,62.0,215.5625,-24.1875,157.375,0
1776973301.237,9.6941,5.3582,-0.0168,-0.4114,0.7925,0.7186,-88.35,0.0,-19.95,11.6119,2.375,0.4142,-0.3107,0.915,1.1471,-101.4,-10.2,6.45,-4.44,-3.36,-8.52,-0.1124,-0.1974,0.1211,29.5625,0.5,62.0,215.5625,-24.1875,157.375,0
1776973301.242,9.6941,5.3582,-0.0168,-0.4114,0.7925,0.7186,-88.35,0.0,-19.95,11.6119,2.375,0.4142,-0.3107,0.915,1.1471,-101.4,-10.2,6.45,-4.44,-3.36,-8.52,-0.1124,-0.1974,0.1211,30.875,-1.875,60.375,215.5625,-24.25,157.5,0
1776973301.248,9.7037,3.6272,-0.6081,0.1183,0.7405,0.652,-88.95,0.15,-19.8,11.4874,4.7908,0.7781,-0.3834,0.7815,0.9334,-100.35,-13.2,4.05,-4.14,-3.12,-8.47,-0.1287,-0.1538,0.0905,30.875,-1.875,60.375,215.5625,-24.25,157.5,0
1776973301.252,9.7037,3.6272,-0.6081,0.1183,0.7405,0.652,-88.95,0.15,-19.8,11.4874,4.7908,0.7781,-0.3834,0.7815,0.9334,-100.35,-13.2,4.05,-4.14,-3.12,-8.47,-0.1287,-0.1538,0.0905,30.875,-1.875,60.375,215.5625,-24.3125,157.5625,0
1776973301.257,9.3589,1.7813,-1.008,0.4655,0.7205,0.643,-87.75,-1.65,-17.1,11.4132,5.6982,0.8739,-0.8577,0.6872,0.68,-99.9,-13.8,5.7,-4.01,-2.94,-8.52,-0.1527,-0.12,0.0665,30.875,-1.875,60.375,215.5625,-24.3125,157.5625,0
1776973301.263,9.2009,0.8643,-1.6735,0.5521,0.7456,0.6877,-87.75,-1.65,-17.1,11.4132,5.6982,0.8739,-0.8577,0.6872,0.68,-99.9,-13.8,5.7,-3.97,-2.72,-8.56,-0.1702,-0.0949,0.0524,30.875,-1.875,60.375,215.5625,-24.375,157.6875,0
1776973301.268,9.2009,0.8643,-1.6735,0.5521,0.7456,0.6877,-89.55,-1.05,-19.2,9.6367,5.8251,0.9194,-1.2462,0.6635,0.5047,-101.4,-13.2,5.1,-3.97,-2.72,-8.56,-0.1702,-0.0949,0.0524,30.875,-1.875,60.375,215.5625,-24.4375,157.75,0
1776973301.277,9.0333,0.9002,-1.731,0.4471,0.7794,0.72,-89.55,-1.05,-19.2,9.0812,5.6024,0.1173,-1.3278,0.6827,0.4615,-101.4,-13.2,5.1,-3.93,-2.72,-8.54,-0.1647,-0.0742,0.0436,30.875,-1.875,60.375,215.5625,-24.4375,157.75,0
1776973301.287,8.8801,1.4413,-1.4892,0.1748,0.8047,0.7328,-88.35,-3.0,-15.9,8.8969,5.1092,-0.929,-1.3238,0.676,0.4852,-101.4,-13.2,5.1,-3.74,-2.71,-8.5,-0.1353,-0.0316,0.0338,30.875,-1.875,60.375,215.5625,-24.5,157.8125,0
1776973301.292,8.7484,1.8651,-1.0702,-0.1444,0.8394,0.7578,-88.35,-3.0,-15.9,8.8969,5.1092,-0.929,-1.3238,0.676,0.4852,-101.4,-13.2,5.1,-3.74,-2.71,-8.5,-0.1353,-0.0316,0.0338,30.875,-1.875,60.375,215.5625,-24.5,157.8125,0
1776973301.297,8.7484,1.8651,-1.0702,-0.1444,0.8394,0.7578,-88.35,-3.0,-15.9,8.4755,4.4341,-1.3096,-1.1727,0.7442,0.5329,-102.0,-10.5,8.1,-3.68,-2.9,-8.4,-0.1178,-0.0262,0.0349,32.25,-1.875,60.375,215.5625,-24.5,157.9375,0
1776973301.302,8.7101,2.2314,-0.893,-0.4914,0.8455,0.7802,-88.35,-3.0,-15.9,8.4755,4.4341,-1.3096,-1.1727,0.7442,0.5329,-102.0,-10.5,8.1,-3.68,-2.9,-8.4,-0.1178,-0.0262,0.0349,32.25,-1.875,60.375,215.5625,-24.5,157.9375,0
1776973301.307,8.7101,2.2314,-0.893,-0.4914,0.8455,0.7802,-89.4,-2.85,-16.35,8.7245,3.9528,-1.3408,-0.8972,0.793,0.5375,-102.75,-10.8,9.15,-3.6,-3.03,-8.28,-0.1124,-0.072,0.0447,32.25,-1.875,60.375,215.5625,-24.5625,158.0,0
1776973301.315,8.6143,2.8347,-0.577,-0.7101,0.9443,0.8204,-89.4,-2.85,-16.35,8.5952,3.4261,-0.8882,-0.7309,0.9547,0.5225,-103.5,-10.05,10.95,-3.43,-3.29,-8.08,-0.1156,-0.1189,0.0633,32.25,-1.875,60.375,215.5625,-24.625,158.0625,0
1776973301.32,8.7987,2.9664,-0.4262,-0.7101,0.9443,0.8204,-87.75,-4.05,-16.8,8.5952,3.4261,-0.8882,-0.7309,0.9547,0.5225,-103.5,-10.05,10.95,-3.43,-3.29,-8.08,-0.1156,-0.1189,0.0633,32.25,-1.875,60.375,215.625,-24.75,158.125,0
1776973301.328,8.7987,2.9664,-0.4262,-0.8537,0.987,0.8911,-89.7,-3.6,-15.6,8.7005,2.9544,-0.51,-0.4879,0.8764,0.4972,-105.6,-8.55,11.7,-3.58,-3.3,-8.06,-0.1396,-0.1778,0.0971,32.25,-1.875,60.375,215.625,-24.875,158.25,0
1776973301.338,8.8753,3.1196,-0.0479,-0.8076,1.0206,0.9731,-89.55,-4.65,-15.15,8.691,1.6041,-0.6488,-0.396,0.9459,0.4335,-105.6,-8.55,11.7,-3.73,-3.17,-8.15,-0.1844,-0.2389,0.1353,32.25,-1.875,60.375,215.625,-24.875,158.25,0
1776973301.343,9.4092,2.8443,0.1101,-0.7045,1.0195,1.0384,-89.55,-4.65,-15.15,9.3158,1.2594,-1.9273,-0.8314,1.4,0.3829,-105.6,-8.55,11.7,-3.73,-3.17,-8.15,-0.1844,-0.2389,0.1353,32.1875,-2.6875,60.875,215.6875,-25.0625,158.375,0
1776973301.348,9.4092,2.8443,0.1101,-0.7045,1.0195,1.0384,-89.55,-4.65,-14.7,9.3158,1.2594,-1.9273,-0.8314,1.4,0.3829,-111.3,-9.9,16.8,-3.8,-3.33,-8.06,-0.2236,-0.2705,0.1658,32.1875,-2.6875,60.875,215.6875,-25.0625,158.375,0
1776973301.352,9.517,2.6552,-0.1101,-0.583,0.951,1.0531,-89.55,-4.65,-14.7,9.7683,0.4764,4.1061,0.7338,1.011,-0.0083,-111.3,-9.9,16.8,-3.8,-3.33,-8.06,-0.2236,-0.2705,0.1658,32.1875,-2.6875,60.875,215.6875,-25.25,158.5625,0
1776973301.358,9.517,2.6552,-0.1101,-0.583,0.951,1.0531,-89.85,-6.15,-13.95,9.7683,0.4764,4.1061,0.7338,1.011,-0.0083,-116.4,-11.7,21.45,-3.66,-3.06,-8.07,-0.252,-0.2825,0.1865,32.1875,-2.6875,60.875,215.6875,-25.25,158.5625,0
1776973301.362,9.0381,2.0686,-0.3089,-0.417,0.9334,1.0557,-89.85,-6.15,-13.95,9.8497,-0.2418,0.2729,0.4258,0.574,0.1287,-116.4,-11.7,21.45,-3.66,-3.06,-8.07,-0.2847,-0.2891,0.2073,32.1875,-2.6875,60.875,215.75,-25.4375,158.6875,0
1776973301.368,8.8562,1.7813,-0.0622,-0.417,0.9334,1.0557,-89.85,-6.15,-13.95,9.8497,-0.2418,0.2729,0.4258,0.574,0.1287,-121.65,-14.25,22.8,-3.76,-3.07,-8.14,-0.2847,-0.2891,0.2073,32.1875,-2.6875,60.875,215.8125,-25.625,158.9375,0
1776973301.378,9.2751,1.4078,0.2634,-0.1956,0.9753,1.08,-90.9,-6.75,-14.85,8.3653,3.3471,6.8905,1.3592,0.0959,0.2726,-124.35,-17.4,23.55,-4.25,-2.9,-8.32,-0.3033,-0.3218,0.2291,32.1875,-2.6875,60.875,215.8125,-25.625,158.9375,0
1776973301.388,9.1746,1.1779,0.6847,0.025,0.9971,1.1008,-89.85,-5.85,-13.65,8.3582,4.6543,1.901,0.5145,1.2697,0.3461,-124.05,-16.65,23.55,-4.77,-3.32,-8.46,-0.3065,-0.3425,0.2389,32.1875,-2.6875,60.875,215.875,-25.875,159.125,0
1776973301.392,9.1746,1.1779,0.6847,0.1772,0.9838,1.1263,-89.85,-5.85,-13.65,9.3733,1.9704,-2.0734,-0.9555,1.2071,0.3861,-124.05,-16.65,23.55,-4.77,-3.32,-8.46,-0.3065,-0.3425,0.2389,32.1875,-2.6875,60.875,215.875,-25.875,159.125,0
1776973301.398,9.1291,0.1844,0.9313,0.2201,0.9987,1.1202,-89.7,-7.95,-13.05,9.3733,1.9704,-2.0734,-0.9555,1.2071,0.3861,-124.05,-16.65,23.55,-4.97,-3.45,-8.43,-0.3196,-0.3382,0.2465,33.5625,-3.75,59.6875,215.9375,-26.0625,159.3125,0
1776973301.402,9.1291,0.1844,0.9313,0.2201,0.9987,1.1202,-89.7,-7.95,-13.05,8.7317,-0.1149,-1.0175,-1.1703,0.6129,0.5127,-119.85,-16.5,21.0,-4.97,-3.45,-8.43,-0.3196,-0.3382,0.2465,33.5625,-3.75,59.6875,216.0,-26.25,159.5625,0
1776973301.407,9.4882,-0.2131,1.5514,0.1607,1.012,1.1189,-89.4,-7.95,-12.75,8.7317,-0.1149,-1.0175,-1.1703,0.6129,0.5127,-119.85,-16.5,21.0,-4.38,-2.4,-8.39,-0.3491,-0.276,0.2433,33.5625,-3.75,59.6875,216.0,-26.25,159.5625,0
1776973301.415,9.4882,-0.2131,1.5514,0.1607,1.012,1.1189,-89.4,-7.95,-12.75,8.8849,0.0335,0.0287,-0.8828,0.7128,0.5145,-118.5,-16.95,19.35,-4.2,-2.98,-8.29,-0.3523,-0.2443,0.2127,33.5625,-3.75,59.6875,216.0625,-26.4375,159.75,0
1776973301.42,9.6845,-0.3807,1.4317,0.0234,1.0192,1.1287,-90.45,-9.45,-12.0,8.9759,0.2394,0.0096,-0.826,0.6291,0.4996,-118.5,-16.95,19.35,-4.2,-2.98,-8.29,-0.3523,-0.2443,0.2127,33.5625,-3.75,59.6875,216.0625,-26.625,160.0,0
1776973301.428,10.0102,-0.3926,1.1492,-0.1836,0.9992,1.1365,-89.1,-6.9,-12.15,8.9759,0.2394,0.0096,-0.826,0.6291,0.4996,-115.8,-16.8,19.95,-3.95,-2.87,-8.18,-0.3491,-0.2389,0.2073,33.5625,-3.75,59.6875,216.125,-26.75,160.25,0
1776973301.438,9.9455,-0.261,0.7973,-0.4538,0.9667,1.121,-89.1,-6.9,-12.15,8.9304,0.3543,-0.3424,-0.6869,0.8442,0.4895,-115.2,-16.95,19.65,-3.71,-3.13,-8.08,-0.3491,-0.2454,0.2182,33.5625,-3.75,59.6875,216.125,-26.75,160.25,0
1776973301.443,9.9455,-0.261,0.7973,-0.4538,0.9667,1.121,-89.1,-6.9,-12.15,9.4116,0.5578,-0.4717,-0.6869,0.8442,0.4895,-115.2,-16.95,19.65,-3.71,-3.13,-8.08,-0.3491,-0.2454,0.2182,33.5625,-3.75,59.6875,216.125,-26.75,160.25,0
1776973301.447,9.6558,0.431,0.3328,-0.4197,0.9731,1.1399,-88.95,-9.9,-11.25,9.4116,0.5578,-0.4717,-0.6869,0.8442,0.4895,-115.2,-16.95,19.65,-3.75,-3.22,-8.28,-0.3622,-0.2869,0.2585,34.5,-5.6875,59.75,216.1875,-27.0,160.5,0
1776973301.452,9.6558,0.431,0.3328,-0.4197,0.9731,1.1399,-88.95,-9.9,-11.25,9.3015,0.5267,0.0958,-0.7581,0.9571,0.4943,-114.0,-20.25,19.95,-3.75,-3.22,-8.28,-0.3622,-0.2869,0.2585,34.5,-5.6875,59.75,216.1875,-27.0,160.5,0
1776973301.457,9.5864,0.2586,0.5483,-0.3619,1.0024,1.1836,-88.95,-9.9,-11.25,9.3015,0.5267,0.0958,-0.7581,0.9571,0.4943,-114.0,-20.25,19.95,-4.74,-2.21,-8.73,-0.3742,-0.3545,0.3229,34.5,-5.6875,59.75,216.3125,-27.25,160.75,0
1776973301.462,9.5864,0.2586,0.5483,-0.3619,1.0024,1.1836,-88.95,-9.9,-11.25,9.0956,0.4908,0.3376,-0.7565,0.9089,0.5031,-112.05,-20.7,19.35,-4.74,-2.21,-8.73,-0.3567,-0.3589,0.36,34.5,-5.6875,59.75,216.4375,-27.5,161.0,0
1776973301.468,9.3613,0.2801,0.1197,-0.2769,1.0008,1.186,-88.65,-10.35,-11.25,8.4036,0.7446,0.5124,-0.7474,0.8143,0.5105,-112.05,-20.7,19.35,-4.72,-2.17,-8.79,-0.3567,-0.3589,0.36,34.5,-5.6875,59.75,216.5625,-27.6875,161.25,0
1776973301.478,9.2225,0.4525,0.0527,-0.21,1.0245,1.1714,-88.8,-11.7,-9.6,8.1379,0.9912,0.735,-0.7293,0.8132,0.5236,-111.3,-21.9,20.7,-4.75,-2.19,-8.69,-0.3033,-0.3272,0.3338,34.5,-5.6875,59.75,216.5625,-27.6875,161.25,0
1776973301.488,9.2464,0.3615,0.5387,-0.1428,1.0168,1.1514,-88.8,-12.0,-8.1,8.5473,1.3743,0.8308,-0.7101,0.8402,0.5481,-110.7,-22.05,21.3,-4.65,-2.3,-8.66,-0.2673,-0.2913,0.3109,34.5,-5.6875,59.75,216.625,-27.9375,161.4375,0
1776973301.493,9.505,0.5435,0.9697,-0.1428,1.0168,1.1514,-88.8,-12.0,-8.1,8.5473,1.3743,0.8308,-0.7101,0.8402,0.5481,-108.75,-23.7,20.4,-4.65,-2.3,-8.66,-0.2673,-0.2913,0.3109,34.5,-5.6875,59.75,216.75,-28.125,161.625,0
1776973301.498,9.505,0.5435,0.9697,-0.0954,1.0317,1.1466,-88.65,-11.85,-7.5,9.3805,1.5323,0.8739,-0.7549,0.922,0.5745,-108.75,-23.7,20.4,-4.4,-2.38,-8.54,-0.2454,-0.2716,0.3011,34.875,-6.375,59.0,216.75,-28.125,161.625,0
1776973301.503,9.7755,0.2227,1.4916,-0.0954,1.0317,1.1466,-88.65,-11.85,-7.5,9.3805,1.5323,0.8739,-0.7549,0.922,0.5745,-108.75,-23.7,20.4,-4.4,-2.38,-8.54,-0.2454,-0.2716,0.3011,34.875,-6.375,59.0,216.875,-28.3125,161.8125,0
1776973301.508,9.7755,0.2227,1.4916,-0.1095,1.0187,1.1383,-88.65,-11.85,-7.5,9.6175,1.5107,0.9816,-0.7341,0.9209,0.5788,-108.75,-23.7,20.4,-4.22,-2.69,-8.5,-0.2083,-0.2618,0.2934,34.875,-6.375,59.0,216.875,-28.3125,161.8125,0
1776973301.515,9.9359,-0.8021,1.5299,-0.1569,1.0754,1.1711,-88.65,-11.85,-7.5,9.6175,1.5107,0.9816,-0.7341,0.9209,0.5788,-107.4,-25.05,22.35,-4.76,-2.19,-8.73,-0.1865,-0.2716,0.3087,34.875,-6.375,59.0,217.0,-28.5,161.9375,0
1776973301.519,9.9359,-0.8021,1.5299,-0.1569,1.0754,1.1711,-87.75,-13.8,-7.2,9.8617,1.2594,1.2019,-0.8172,0.951,0.566,-107.4,-25.05,22.35,-4.76,-2.19,-8.73,-0.1865,-0.2716,0.3087,34.875,-6.375,59.0,217.125,-28.6875,162.1875,0
1776973301.528,10.2232,-1.2019,1.5107,-0.2822,1.1002,1.2297,-87.75,-13.8,-7.2,9.3446,0.929,1.245,-0.8644,0.8364,0.566,-108.15,-25.5,21.3,-4.95,-2.16,-8.66,-0.1593,-0.2803,0.3109,34.875,-6.375,59.0,217.125,-28.6875,162.1875,0
1776973301.538,10.2041,-0.9888,0.9529,-0.4914,1.1162,1.2598,-87.45,-14.55,-6.45,9.4786,0.8284,1.0942,-0.8431,0.858,0.5865,-110.25,-25.65,22.95,-5.0,-1.96,-8.74,-0.1374,-0.2411,0.2803,34.875,-6.375,59.0,217.25,-28.875,162.3125,0
1776973301.543,10.3908,-0.8978,1.2019,-0.627,1.1327,1.3006,-87.45,-14.55,-6.45,9.4786,0.8284,1.0942,-0.8431,0.858,0.5865,-108.9,-26.55,23.1,-5.0,-1.96,-8.74,-0.1374,-0.2411,0.2803,34.875,-6.375,59.0,217.3125,-29.0,162.4375,0
1776973301.548,10.3908,-0.8978,1.2019,-0.627,1.1327,1.3006,-88.8,-15.6,-6.6,9.3565,0.8835,0.735,-0.825,0.9385,0.6158,-108.9,-26.55,23.1,-4.7,-2.04,-8.93,-0.1233,-0.2051,0.2411,35.5625,-6.6875,59.375,217.3125,-29.0,162.4375,0
1776973301.553,10.5249,-0.4453,0.7566,-0.7418,1.1229,1.3606,-88.8,-15.6,-6.6,9.3565,0.8835,0.735,-0.825,0.9385,0.6158,-108.9,-26.55,23.1,-4.7,-2.04,-8.93,-0.1233,-0.2051,0.2411,35.5625,-6.6875,59.375,217.4375,-29.125,162.5,0
1776973301.558,10.5249,-0.4453,0.7566,-0.7418,1.1229,1.3606,-88.65,-15.0,-5.7,10.0102,1.0032,0.3089,-0.806,0.9571,0.6688,-108.9,-26.55,23.1,-4.49,-1.7,-9.42,-0.1167,-0.1953,0.1963,35.5625,-6.6875,59.375,217.4375,-29.125,162.5,0
1776973301.563,11.248,-0.3017,0.2466,-0.8013,1.1231,1.4349,-88.65,-15.0,-5.7,10.0102,1.0032,0.3089,-0.806,0.9571,0.6688,-109.2,-27.0,23.1,-4.49,-1.7,-9.42,-0.0524,-0.2313,0.1745,35.5625,-6.6875,59.375,217.5,-29.3125,162.5625,0
1776973301.569,11.248,-0.3017,0.2466,-0.8013,1.1231,1.4349,-88.65,-17.4,-4.95,10.8098,1.1971,0.2538,-0.8732,0.8609,0.7053,-109.2,-27.0,23.1,-3.72,-1.79,-9.9,-0.0524,-0.2313,0.1745,35.5625,-6.6875,59.375,217.5625,-29.5,162.5625,0
1776973301.578,11.1426,-0.079,-0.9577,-0.8199,1.1119,1.522,-87.75,-17.4,-4.95,10.5872,1.4365,0.6464,-0.8194,0.7554,0.6904,-109.95,-27.3,24.45,-3.24,-1.43,-10.52,0.0404,-0.3262,0.1582,35.5625,-6.6875,59.375,217.5625,-29.5,162.5625,0
1776973301.588,10.3765,0.9577,-0.2562,-0.5361,1.1834,1.5833,-86.85,-17.55,-2.85,10.4627,1.6927,0.8739,-0.7906,0.5921,0.6299,-109.05,-27.45,24.3,-3.77,-2.39,-9.77,0.0611,-0.516,0.156,35.5625,-6.6875,59.375,217.625,-29.8125,162.5625,0
1776973301.593,10.3789,0.5674,-0.9002,-0.5742,1.2337,1.6534,-86.85,-17.55,-2.85,10.6781,2.5833,0.5411,-0.7405,0.4293,0.5686,-110.55,-29.7,26.1,-3.77,-2.39,-9.77,0.0611,-0.516,0.156,35.5625,-6.6875,59.375,217.625,-29.8125,162.5625,0
1776973301.598,10.3789,0.5674,-0.9002,-0.5742,1.2337,1.6534,-86.85,-17.55,-2.85,10.6781,2.5833,0.5411,-0.7405,0.4293,0.5686,-110.55,-29.7,26.1,-4.04,-1.98,-9.95,-0.0262,-0.6578,0.1756,35.5,-8.1875,59.0,217.625,-30.1875,162.5625,0
1776973301.603,10.6853,0.2322,0.486,-0.5319,1.2574,1.716,-86.85,-17.55,-2.85,10.6087,3.5985,0.4238,-0.6976,0.3293,0.4895,-110.25,-30.15,25.8,-4.04,-1.98,-9.95,-0.0262,-0.6578,0.1756,35.5,-8.1875,59.0,217.625,-30.1875,162.5625,0
1776973301.608,10.6853,0.2322,0.486,-0.5319,1.2574,1.716,-86.85,-17.55,-2.85,10.6087,3.5985,0.4238,-0.6976,0.3293,0.4895,-110.25,-30.15,25.8,-3.56,-1.85,-10.36,0.0338,-0.745,0.1822,35.5,-8.1875,59.0,217.6875,-30.625,162.5,0
1776973301.615,11.3342,0.4046,0.7973,-0.421,1.2737,1.8237,-87.0,-20.4,-3.45,11.1618,3.9409,0.5507,-0.8386,0.2649,0.3834,-110.25,-30.15,25.8,-3.45,-1.84,-10.6,0.1462,-0.9523,0.2116,35.5,-8.1875,59.0,217.75,-31.125,162.375,0
1776973301.62,11.8944,0.5315,0.8739,-0.412,1.2974,1.954,-87.0,-20.4,-3.45,11.1618,3.9409,0.5507,-0.8386,0.2649,0.3834,-108.9,-31.05,24.45,-3.45,-1.84,-10.6,0.1462,-0.9523,0.2116,35.5,-8.1875,59.0,217.875,-31.875,162.1875,0
1776973301.628,12.6797,0.7925,0.6752,-0.3515,1.3723,2.0563,-85.8,-22.2,-1.35,10.8721,3.6655,1.1349,-1.0403,0.2489,0.2617,-110.85,-30.15,26.1,-3.35,-2.28,-10.59,0.2607,-1.261,0.2585,35.5,-8.1875,59.0,217.9375,-32.75,162.0,0
1776973301.638,13.441,1.6879,0.5914,-0.5023,1.4109,2.1184,-85.8,-22.2,-1.35,12.3182,3.7613,1.3958,-1.1327,0.1322,0.1191,-109.2,-31.05,24.45,-3.44,-3.0,-10.71,0.2607,-1.6199,0.3087,35.5,-8.1875,59.0,217.9375,-32.75,162.0,0
1776973301.643,13.441,1.6879,0.5914,-0.5023,1.4109,2.1184,-84.15,-23.4,-1.05,13.0915,4.4628,1.3048,-0.9601,-0.0224,-0.0477,-109.2,-31.05,24.45,-3.44,-3.0,-10.71,0.2607,-1.6199,0.3087,35.5,-8.1875,59.0,218.0625,-33.9375,161.8125,0
1776973301.648,14.1066,1.8651,-1.0989,-0.6134,1.4658,2.233,-84.15,-25.05,-1.05,13.0915,4.4628,1.3048,-0.9601,-0.0224,-0.0477,-109.95,-31.5,23.85,-3.06,-3.7,-10.7,0.2007,-2.0486,0.4112,37.6875,-7.5,58.1875,218.0625,-33.9375,161.8125,0
1776973301.653,14.1066,1.8651,-1.0989,-0.6134,1.4658,2.233,-84.15,-25.05,-1.05,13.2232,5.3702,0.7422,-0.6997,-0.0242,-0.2545,-109.95,-31.5,23.85,-3.06,-3.7,-10.7,0.2007,-2.0486,0.4112,37.6875,-7.5,58.1875,218.1875,-35.3125,161.5625,0
1776973301.658,15.2678,1.4054,-3.4405,-0.8058,1.5314,2.3742,-84.15,-25.05,-1.05,13.2232,5.3702,0.7422,-0.6997,-0.0242,-0.2545,-109.95,-31.5,23.85,-3.44,-3.25,-11.19,0.252,-2.5165,0.5978,37.6875,-7.5,58.1875,218.1875,-35.3125,161.5625,0
1776973301.663,15.2678,1.4054,-3.4405,-0.8058,1.5314,2.3742,-82.95,-25.95,1.65,13.0292,6.4596,-0.5219,-0.3461,-0.1807,-0.4461,-109.95,-31.5,23.85,-3.44,-3.25,-11.19,0.3196,-2.9572,0.793,37.6875,-7.5,58.1875,218.5,-37.0625,161.3125,0
1776973301.669,16.5056,1.2689,-4.1851,-1.0714,1.5796,2.5508,-82.95,-25.95,1.65,13.0292,6.4596,-0.5219,-0.3461,-0.1807,-0.4461,-110.4,-30.0,22.8,-1.92,-3.18,-11.06,0.3196,-2.9572,0.793,37.6875,-7.5,58.1875,218.875,-39.0,161.0,0
1776973301.678,17.3987,3.7302,-5.1188,-1.162,1.6156,2.7997,-82.95,-25.95,1.65,12.3397,7.9679,-2.739,0.0112,-0.2926,-0.6422,-112.5,-31.5,24.15,-1.87,-3.95,-11.57,0.5138,-3.4045,1.0494,37.6875,-7.5,58.1875,218.875,-39.0,161.0,0
1776973301.688,19.2949,5.3798,-7.4819,-1.4115,1.6571,3.0371,-81.75,-27.9,-0.15,11.2887,9.4643,-4.9752,0.3222,-0.5931,-0.8404,-113.25,-32.55,23.4,-1.08,-2.21,-12.57,0.5138,-4.1201,1.3941,37.6875,-7.5,58.1875,219.4375,-41.4375,160.6875,0
1776973301.693,19.2949,5.3798,-7.4819,-1.4115,1.6571,3.0371,-81.75,-27.9,-0.15,11.078,9.3182,-6.2034,0.6971,-0.9654,-1.0557,-113.25,-32.55,23.4,-1.08,-2.21,-12.57,0.5138,-4.1201,1.3941,37.6875,-7.5,58.1875,219.4375,-41.4375,160.6875,0
1776973301.698,20.9636,5.8945,-7.9296,-1.4029,1.68,3.1991,-81.75,-27.9,-0.15,11.078,9.3182,-6.2034,0.6971,-0.9654,-1.0557,-114.0,-33.0,23.85,-0.52,-3.37,-13.08,0.5345,-4.8411,1.7693,42.1875,-6.6875,53.875,258.0,-44.3125,160.4375,0
1776973301.702,20.9636,5.8945,-7.9296,-1.4029,1.68,3.1991,-80.55,-30.3,0.9,11.1235,10.1323,-3.474,1.3536,-0.8351,-1.3579,-114.0,-33.0,23.85,-0.52,-3.37,-13.08,0.5345,-4.8411,1.7693,42.1875,-6.6875,53.875,258.0,-44.3125,160.4375,0
1776973301.707,20.1041,5.4133,-6.5218,-1.2351,1.6896,3.1746,-80.55,-30.3,0.9,11.1235,10.1323,-3.474,1.3536,-0.8351,-1.3579,-115.95,-32.7,24.0,-0.64,-4.96,-13.52,0.5781,-5.669,2.2275,42.1875,-6.6875,53.875,255.25,-47.6875,160.1875,0
1776973301.712,20.1041,5.4133,-6.5218,-1.2351,1.6896,3.1746,-77.7,-31.95,3.3,11.8633,7.1228,-6.7014,1.416,-1.6286,-1.537,-115.95,-32.7,24.0,-0.64,-4.96,-13.52,0.5596,-6.5875,2.7598,42.1875,-6.6875,53.875,252.3125,-51.625,160.125,0
1776973301.719,17.1688,5.5881,-4.6232,-1.0048,1.7038,3.067,-77.55,-33.75,1.65,10.6901,6.4284,-2.0279,2.2231,-2.1181,-1.7264,-115.95,-32.7,24.0,-5.22,-5.78,-14.62,0.5596,-6.5875,2.7598,42.1875,-6.6875,53.875,249.0,-56.25,160.3125,0
1776973301.728,14.4897,3.1484,-0.2107,-0.9212,1.5783,2.9308,-77.55,-33.75,1.65,12.5504,4.3718,-3.9528,1.5039,-2.0875,-1.7944,-116.25,-32.55,20.55,-12.03,-4.72,-15.7,0.4363,-7.65,3.3052,42.1875,-6.6875,53.875,249.0,-56.25,160.3125,0
1776973301.738,13.5272,-0.8188,3.2896,-0.2654,1.5681,2.7566,-74.85,-35.4,2.4,14.4131,1.9393,-1.7406,1.1386,-2.2721,-1.9217,-115.05,-32.55,20.55,-17.38,-4.95,-17.12,0.3622,-8.7441,3.5452,42.1875,-6.6875,53.875,245.75,-61.4375,160.5,0
1776973301.743,13.3956,-1.5874,6.4955,-0.2654,1.5681,2.7566,-74.7,-35.1,1.8,14.4131,1.9393,-1.7406,1.1386,-2.2721,-1.9217,-115.05,-32.55,20.55,-17.38,-4.95,-17.12,0.3622,-8.7441,3.5452,42.1875,-6.6875,53.875,243.125,-66.9375,160.0,0
1776973301.748,13.3956,-1.5874,6.4955,0.3163,1.6531,2.5999,-74.7,-35.1,1.8,16.0603,-1.1732,1.9824,1.2934,-2.5618,-1.9857,-114.75,-31.05,16.35,-19.35,-7.18,-17.31,0.5094,-9.3713,3.1874,52.75,-7.875,42.875,243.125,-66.9375,160.0,0
1776973301.753,12.6725,-0.5243,7.6806,0.5081,1.6699,2.4344,-73.05,-36.45,1.95,16.0603,-1.1732,1.9824,1.2934,-2.5618,-1.9857,-114.75,-31.05,16.35,-19.35,-7.18,-17.31,0.5094,-9.3713,3.1874,52.75,-7.875,42.875,243.125,-66.9375,160.0,0
1776973301.758,12.6725,-0.5243,7.6806,0.5081,1.6699,2.4344,-73.05,-36.45,1.95,16.7427,-3.8571,5.1811,1.3478,-2.5468,-2.1008,-113.85,-27.45,15.75,-19.46,-7.29,-19.15,0.5094,-9.3713,3.1874,52.75,-7.875,42.875,240.8125,-72.4375,159.3125,0
1776973301.763,13.0245,-1.6807,4.6807,0.4226,1.6739,2.2751,-73.05,-36.45,1.95,16.7427,-3.8571,5.1811,1.3478,-2.5468,-2.1008,-113.85,-27.45,15.75,-19.46,-7.29,-19.15,0.6861,-8.8826,2.9987,52.75,-7.875,42.875,239.0,-77.625,158.0625,0
1776973301.769,13.0245,-1.6807,4.6807,0.4226,1.6739,2.2751,-73.05,-36.45,1.95,16.666,-5.3079,7.015,0.8545,-2.4131,-2.1575,-113.85,-27.45,15.75,-12.47,-8.2,-18.1,0.6861,-8.8826,2.9987,52.75,-7.875,42.875,237.625,-81.875,157.5,0
1776973301.779,13.1681,-3.2058,3.6248,0.6137,1.5863,2.0824,-70.8,-38.55,4.5,16.3093,-4.4652,7.2999,0.1689,-1.987,-2.0941,-109.8,-24.9,11.55,-7.69,-8.96,-17.31,0.7756,-7.1733,2.882,52.75,-7.875,42.875,237.625,-81.875,157.5,0
1776973301.789,12.0668,-6.3039,3.893,1.162,1.5665,1.7147,-70.35,-36.9,6.0,16.1968,-2.8515,5.6838,-0.5588,-1.6577,-1.9089,-110.4,-21.75,9.9,3.76,-7.72,-11.09,0.7352,-6.7435,3.0598,52.75,-7.875,42.875,236.1875,-86.0,178.5625,0
1776973301.793,12.323,-8.0541,8.6838,2.0598,1.2942,1.1335,-68.7,-39.9,7.35,16.1968,-2.8515,5.6838,-0.5588,-1.6577,-1.9089,-110.4,-21.75,9.9,3.76,-7.72,-11.09,0.7352,-6.7435,3.0598,52.75,-7.875,42.875,234.6875,-89.5,-0.4375,0
1776973301.799,12.323,-8.0541,8.6838,2.0598,1.2942,1.1335,-68.7,-39.9,7.35,14.631,-1.4054,4.4963,-1.0272,-1.558,-1.8122,-104.55,-18.75,8.55,-2.15,4.95,-11.45,0.805,-6.7435,3.4852,62.25,-12.1875,18.1875,234.6875,-89.5,-0.4375,0
1776973301.804,10.5129,-9.4164,11.6143,2.2018,0.6246,0.9467,-66.75,-39.0,8.1,14.631,-1.4054,4.4963,-1.0272,-1.558,-1.8122,-104.55,-18.75,8.55,-2.15,4.95,-11.45,0.805,-6.7435,3.4852,62.25,-12.1875,18.1875,233.4375,-86.1875,-2.4375,0
1776973301.809,10.5129,-9.4164,11.6143,2.2018,0.6246,0.9467,-66.75,-39.0,8.1,14.3269,-0.3998,4.0654,-0.8724,-1.4381,-1.7917,-103.8,-17.25,6.3,-30.23,-5.9,-11.38,1.1814,-5.1542,3.5681,62.25,-12.1875,18.1875,233.4375,-86.1875,-2.4375,0
1776973301.818,7.7907,-8.1762,13.0939,1.773,0.4535,0.9934,-68.4,-40.05,9.3,13.6781,0.486,3.225,-0.586,-1.6238,-1.8447,-102.9,-13.95,4.35,-9.52,-14.56,-17.82,1.9962,-1.1596,2.4162,62.25,-12.1875,18.1875,233.1875,-84.75,-3.875,0
1776973301.828,4.9752,-5.0973,11.5855,1.691,0.2161,0.813,-67.5,-39.45,9.9,12.8497,1.968,3.0646,-0.4274,-1.9215,-1.9156,-102.9,-13.95,4.35,-10.17,-17.3,-16.52,1.5304,1.5457,1.0799,62.25,-12.1875,18.1875,233.3125,-84.8125,-4.5,0
1776973301.836,5.5282,-1.8651,9.3637,0.8671,-0.4932,0.2888,-67.5,-39.45,9.9,11.7005,3.8331,3.0526,-0.5476,-2.1141,-1.9646,-100.95,-9.0,3.15,-5.45,-16.16,-12.85,0.5181,3.122,0.2989,62.25,-12.1875,18.1875,233.3125,-85.1875,-4.6875,0
1776973301.841,5.1571,-0.9266,5.9496,-0.2944,-1.0216,-0.2204,-67.5,-37.5,8.4,11.7005,3.8331,3.0526,-0.5476,-2.1141,-1.9646,-100.95,-9.0,3.15,-5.45,-16.16,-12.85,0.5181,3.122,0.2989,62.25,-12.1875,18.1875,233.3125,-85.1875,-4.6875,0
1776973301.846,5.1571,-0.9266,5.9496,-0.2944,-1.0216,-0.2204,-67.5,-37.5,8.4,10.4411,4.3048,2.0399,-0.8159,-2.0832,-1.918,-101.25,-7.8,1.35,0.25,-10.45,-6.69,-0.5923,3.8332,-0.0175,57.5,-18.0625,0.5625,232.8125,-85.125,-175.25,0
1776973301.851,4.3718,-1.142,4.5418,-0.98,-1.2753,-0.5873,-67.5,-37.5,8.4,10.4411,4.3048,2.0399,-0.8159,-2.0832,-1.918,-101.25,-7.8,1.35,0.25,-10.45,-6.69,-0.5923,3.8332,-0.0175,57.5,-18.0625,0.5625,232.8125,-85.125,-175.25,0
1776973301.855,4.3718,-1.142,4.5418,-0.98,-1.2753,-0.5873,-67.5,-37.5,8.4,9.4954,5.1308,3.4931,-0.6107,-1.4514,-1.9327,-102.15,-6.9,0.75,0.6,-7.42,-4.92,-1.3515,4.0012,-0.2345,57.5,-18.0625,0.5625,231.9375,-84.1875,-175.375,0
1776973301.86,3.6775,-1.2019,4.5011,-0.8372,-1.4685,-0.8402,-67.5,-37.5,8.4,9.4954,5.1308,3.4931,-0.6107,-1.4514,-1.9327,-102.15,-6.9,0.75,0.6,-7.42,-4.92,-1.3515,4.0012,-0.2345,57.5,-18.0625,0.5625,231.0625,-82.8125,-142.125,0
1776973301.869,3.1723,-1.221,5.035,-0.2582,-1.6164,-1.0904,-69.45,-37.95,6.9,8.8538,5.2672,3.8786,0.0983,-0.9126,-2.1226,-102.75,-4.8,0.0,1.17,-5.27,-3.77,-1.6417,4.0906,-0.4996,57.5,-18.0625,0.5625,230.3125,-81.125,-152.6875,0
1776973301.879,2.964,-1.573,5.4564,0.3096,-1.8191,-1.4258,-69.6,-38.1,6.0,9.1291,5.4324,3.9097,0.7821,-0.6123,-2.2934,-102.75,-4.8,0.0,1.68,-4.16,-2.89,-1.5959,4.119,-0.8149,57.5,-18.0625,0.5625,230.3125,-81.125,-152.6875,0
1776973301.889,2.8371,-1.743,5.7174,0.6382,-2.1621,-1.7333,-69.15,-35.7,6.45,9.2488,4.7238,2.8587,0.9747,-0.453,-2.4541,-103.05,-2.25,2.4,1.75,-3.6,-2.25,-1.3952,3.9968,-1.1181,57.5,-18.0625,0.5625,229.875,-79.3125,-160.375,0
1776973301.894,2.8371,-1.743,5.7174,0.6382,-2.1621,-1.7333,-70.8,-36.9,4.95,9.2871,3.6129,2.4828,1.0781,-0.3882,-2.4728,-103.05,-2.25,2.4,1.75,-3.6,-2.25,-1.3952,3.9968,-1.1181,57.5,-18.0625,0.5625,229.875,-79.3125,-160.375,0
1776973301.899,2.5139,-2.1931,5.7868,0.8324,-2.4664,-1.971,-70.8,-36.9,4.95,9.2871,3.6129,2.4828,1.0781,-0.3882,-2.4728,-106.35,-1.5,3.45,1.14,-3.65,-2.51,-1.1388,3.8801,-1.4083,52.0,-18.5625,8.0,229.75,-77.5,-166.4375,0
1776973301.904,2.5139,-2.1931,5.7868,0.8324,-2.4664,-1.971,-71.85,-35.4,3.75,8.2887,1.9249,2.3296,0.9662,-0.2403,-2.3475,-105.6,-0.75,5.25,1.14,-3.65,-2.51,-1.1388,3.8801,-1.4083,52.0,-18.5625,8.0,229.75,-77.5,-166.4375,0
1776973301.909,2.7892,-2.3415,6.2824,0.9699,-2.7739,-2.0989,-71.85,-35.4,3.75,8.2887,1.9249,2.3296,0.9662,-0.2403,-2.3475,-105.6,-0.75,5.25,0.26,-3.94,-3.08,-0.8694,3.8648,-1.7311,52.0,-18.5625,8.0,230.0,-75.5625,-171.5625,0
1776973301.916,2.794,-2.4181,6.4955,0.9699,-2.7739,-2.0989,-71.85,-33.45,4.95,8.3965,1.1133,2.3918,1.0752,-0.2142,-2.2148,-108.15,0.75,7.05,-1.68,-5.44,-4.23,-0.6447,3.9423,-2.0966,52.0,-18.5625,8.0,230.5625,-73.5,-176.25,0
1776973301.921,2.794,-2.4181,6.4955,1.0706,-3.0084,-2.141,-71.85,-33.45,4.95,8.3965,1.1133,2.3918,1.0752,-0.2142,-2.2148,-108.15,0.75,7.05,-1.68,-5.44,-4.23,-0.6447,3.9423,-2.0966,52.0,-18.5625,8.0,231.5625,-71.25,179.4375,0
1776973301.929,3.134,-2.6791,6.6391,1.1812,-3.1874,-2.2484,-71.85,-33.45,4.95,7.9464,0.5507,1.7861,1.2513,-0.4506,-2.0558,-109.65,3.3,8.55,-2.67,-6.43,-4.75,-0.5116,4.0928,-2.4871,52.0,-18.5625,8.0,232.8125,-68.8125,175.5625,0
1776973301.939,3.292,-2.7509,6.371,1.3462,-3.4113,-2.3614,-75.6,-32.55,2.4,6.9815,1.1875,3.6368,1.6145,-0.5343,-1.8125,-109.65,3.3,8.55,-3.72,-7.5,-5.33,-0.5269,4.2979,-2.8983,52.0,-18.5625,8.0,232.8125,-68.8125,175.5625,0
1776973301.944,3.292,-2.7509,6.371,1.3462,-3.4113,-2.3614,-75.15,-32.4,2.55,6.0501,1.1277,3.5075,1.9628,-0.3661,-1.6113,-108.75,3.45,9.75,-3.72,-7.5,-5.33,-0.5269,4.2979,-2.8983,52.0,-18.5625,8.0,234.25,-66.125,172.125,0
1776973301.949,3.2585,-2.4229,5.4875,1.3507,-3.6047,-2.4714,-75.15,-32.4,2.55,6.0501,1.1277,3.5075,1.9628,-0.3661,-1.6113,-108.75,3.45,9.75,-4.71,-8.23,-5.7,-0.7025,4.552,-3.3478,46.75,-18.375,15.5625,234.25,-66.125,172.125,0
1776973301.954,3.4405,-2.3583,4.2976,1.3507,-3.6047,-2.4714,-77.55,-30.3,0.9,5.8562,1.2091,3.5171,2.2266,-0.1647,-1.4709,-109.8,2.7,8.7,-4.71,-8.23,-5.7,-0.7025,4.552,-3.3478,46.75,-18.375,15.5625,235.8125,-63.125,169.25,0
1776973301.959,3.4405,-2.3583,4.2976,1.4144,-3.6444,-2.6015,-77.55,-30.3,0.9,5.8562,1.2091,3.5171,2.2266,-0.1647,-1.4709,-109.8,2.7,8.7,-6.02,-8.31,-5.69,-0.9839,4.8007,-3.7808,46.75,-18.375,15.5625,235.8125,-63.125,169.25,0
1776973301.964,3.9361,-2.4349,4.0749,1.4144,-3.6444,-2.6015,-77.25,-29.85,1.2,5.6312,1.0965,3.4812,2.3803,-0.0733,-1.2931,-109.8,1.2,8.7,-6.02,-8.31,-5.69,-1.2665,5.0058,-4.1168,46.75,-18.375,15.5625,237.4375,-59.9375,166.875,0
1776973301.97,3.9361,-2.4349,4.0749,1.4842,-3.6956,-2.7584,-77.25,-29.85,1.2,5.6312,1.0965,3.4812,2.3803,-0.0733,-1.2931,-109.8,1.2,8.7,-6.15,-7.97,-5.51,-1.2665,5.0058,-4.1168,46.75,-18.375,15.5625,239.1875,-56.625,165.0625,0
1776973301.979,4.5945,-3.2058,4.2545,1.4165,-3.7617,-2.8927,-79.65,-25.8,-2.55,5.5043,0.9337,3.4477,2.7374,-0.121,-1.0648,-110.55,0.45,9.3,-6.42,-7.48,-5.27,-1.4759,5.1313,-4.3033,46.75,-18.375,15.5625,239.1875,-56.625,165.0625,0
1776973301.989,5.3367,-3.5817,5.3008,1.4583,-3.8472,-3.0569,-81.9,-28.5,-1.8,4.8674,0.6632,3.134,2.8834,-0.1218,-0.8212,-110.55,0.45,9.3,-7.01,-5.92,-5.75,-1.5446,5.1902,-4.3404,46.75,-18.375,15.5625,241.0,-53.1875,163.6875,0
1776973301.994,5.7868,-3.5817,5.1356,1.4077,-3.9855,-3.2242,-81.9,-28.5,-1.8,4.9536,-0.3591,2.9425,2.9751,-0.0035,-0.6281,-113.7,-0.3,8.85,-7.01,-5.92,-5.75,-1.5446,5.1902,-4.3404,46.75,-18.375,15.5625,241.0,-53.1875,163.6875,0
1776973301.999,5.7868,-3.5817,5.1356,1.4077,-3.9855,-3.2242,-81.9,-28.5,-1.8,4.9536,-0.3591,2.9425,3.0606,0.1359,-0.462,-113.7,-0.3,8.85,-7.28,-5.1,-6.27,-1.4094,5.1814,-4.3022,44.0,-17.1875,25.1875,243.125,-49.75,162.625,0
1776973302.004,6.3063,-3.6823,4.9608,1.4019,-4.099,-3.4166,-83.85,-24.6,-2.85,5.375,-0.7087,2.8276,3.0606,0.1359,-0.462,-114.6,-1.95,9.3,-7.28,-5.1,-6.27,-1.4094,5.1814,-4.3022,44.0,-17.1875,25.1875,243.125,-49.75,162.625,0
1776973302.009,6.3063,-3.6823,4.9608,1.4019,-4.099,-3.4166,-83.85,-24.6,-2.85,5.375,-0.7087,2.8276,2.7603,0.3379,-0.323,-114.6,-1.95,9.3,-7.6,-5.02,-6.77,-1.0886,5.1793,-4.2237,44.0,-17.1875,25.1875,245.875,-46.3125,161.75,0
1776973302.014,6.845,-3.5051,4.9392,1.4583,-4.2144,-3.5911,-83.85,-24.6,-2.85,5.3917,-1.3527,2.6193,2.7603,0.3379,-0.323,-115.95,-1.95,11.1,-7.6,-5.02,-6.77,-0.6872,5.176,-4.0939,44.0,-17.1875,25.1875,249.3125,-42.875,160.9375,0
1776973302.02,6.845,-3.5051,4.9392,1.4583,-4.2144,-3.5911,-83.85,-24.6,-2.85,5.4468,-2.2913,2.5618,2.5066,0.4796,-0.2006,-115.95,-1.95,11.1,-8.08,-5.74,-7.65,-0.6872,5.176,-4.0939,44.0,-17.1875,25.1875,208.75,-39.4375,160.125,0
1776973302.029,7.4484,-3.5817,5.0805,1.5993,-4.2911,-3.768,-86.55,-18.75,-8.1,6.3087,-3.3591,2.3774,2.2487,0.6371,-0.0759,-116.85,-3.3,12.0,-8.3,-6.33,-8.17,-0.2967,5.1411,-3.9499,44.0,-17.1875,25.1875,208.75,-39.4375,160.125,0
1776973302.039,8.5425,-3.8499,4.9177,1.6936,-4.3513,-3.8629,-85.8,-18.0,-9.6,6.7205,-4.4987,2.2793,1.813,0.7237,0.036,-118.5,-3.45,10.5,-8.6,-6.97,-8.82,0.036,5.0538,-3.8005,44.0,-17.1875,25.1875,207.125,-36.0625,159.3125,0
1776973302.044,9.7803,-4.6256,5.0709,1.5876,-4.3828,-3.8688,-87.45,-17.4,-10.8,6.7205,-4.4987,2.2793,1.813,0.7237,0.036,-118.5,-3.45,10.5,-8.6,-6.97,-8.82,0.036,5.0538,-3.8005,44.0,-17.1875,25.1875,205.5625,-32.8125,158.5,0
1776973302.049,9.7803,-4.6256,5.0709,1.5876,-4.3828,-3.8688,-87.45,-17.4,-10.8,6.8809,-5.2002,2.3296,1.5306,0.7189,0.1553,-118.5,-3.45,10.5,-8.97,-7.62,-9.55,0.2836,4.9066,-3.6586,44.0625,-12.6875,39.0,205.5625,-32.8125,158.5,0
1776973302.054,10.8433,-5.2457,5.3415,1.2764,-4.4243,-3.8792,-87.0,-15.45,-12.0,6.8809,-5.2002,2.3296,1.5306,0.7189,0.1553,-116.7,-3.9,13.95,-8.97,-7.62,-9.55,0.2836,4.9066,-3.6586,44.0625,-12.6875,39.0,205.5625,-32.8125,158.5,0
1776973302.059,10.8433,-5.2457,5.3415,1.2764,-4.4243,-3.8792,-87.0,-15.45,-12.0,6.5697,-5.7054,2.4373,1.2121,0.623,0.239,-116.7,-3.9,13.95,-10.55,-8.77,-11.67,0.4767,4.7211,-3.5256,44.0625,-12.6875,39.0,204.1875,-29.6875,157.75,0
1776973302.064,11.983,-6.3398,5.2888,0.8743,-4.4403,-3.9663,-87.0,-15.45,-12.0,6.5697,-5.7054,2.4373,1.2121,0.623,0.239,-118.65,-5.55,13.05,-10.55,-8.77,-11.67,0.6687,4.576,-3.4208,44.0625,-12.6875,39.0,202.875,-26.625,156.9375,0
1776973302.07,12.7635,-7.4915,5.533,0.6105,-4.4132,-4.0516,-87.0,-15.45,-12.0,5.9616,-6.2704,1.7645,0.8476,0.6422,0.3059,-118.65,-5.55,13.05,-12.05,-9.45,-12.9,0.6687,4.576,-3.4208,44.0625,-12.6875,39.0,201.5625,-23.5625,156.125,0
1776973302.079,12.8305,-6.8259,6.7325,0.6105,-4.4132,-4.0516,-88.2,-11.1,-14.85,6.1148,-5.6383,0.8499,0.4919,0.7698,0.4892,-118.35,-7.05,14.25,-14.17,-10.29,-14.18,0.8978,4.5444,-3.3827,44.0625,-12.6875,39.0,200.3125,-20.375,155.1875,0
1776973302.089,12.3373,-4.6017,5.8227,0.1868,-4.2384,-4.0156,-88.2,-11.1,-14.85,6.3686,-4.2329,-0.1532,0.1943,0.9289,0.8132,-117.75,-5.7,14.7,-19.11,-12.2,-15.26,1.1246,4.7048,-3.4699,44.0625,-12.6875,39.0,200.3125,-20.375,155.1875,0
1776973302.094,12.3373,-4.6017,5.8227,0.1868,-4.2384,-4.0156,-89.1,-5.4,-21.75,6.3686,-4.2329,-0.1532,0.1943,0.9289,0.8132,-117.75,-5.7,14.7,-19.11,-12.2,-15.26,1.1246,4.7048,-3.4699,44.0625,-12.6875,39.0,199.0,-17.0,154.3125,0
1776973302.099,12.1721,-2.9449,3.462,-0.2289,-3.9751,-3.9103,-89.1,-5.4,-21.75,6.596,-2.2003,-0.9529,0.0005,0.988,1.0816,-117.75,-5.7,14.7,-20.99,-12.89,-14.54,1.2097,4.9611,-3.7143,32.0,-2.75,53.5625,199.0,-17.0,154.3125,0
1776973302.104,12.1721,-2.9449,3.462,-0.2289,-3.9751,-3.9103,-87.3,-3.9,-21.75,6.596,-2.2003,-0.9529,0.0005,0.988,1.0816,-116.4,-7.2,12.9,-20.99,-12.89,-14.54,1.2097,4.9611,-3.7143,32.0,-2.75,53.5625,197.5,-13.4375,153.5,0
1776973302.109,12.4882,-2.0183,2.3774,-0.4327,-3.6151,-3.8125,-87.3,-3.9,-21.75,7.3622,0.4549,-1.7885,-0.0791,0.7863,1.2873,-116.4,-7.2,12.9,-22.33,-13.65,-12.7,1.1006,5.1607,-3.9881,32.0,-2.75,53.5625,197.5,-13.4375,153.5,0
1776973302.119,11.3389,-2.0638,1.5945,-0.5676,-3.2191,-3.6988,-86.7,-2.1,-23.1,8.4132,3.067,-4.051,0.4341,0.9958,1.4605,-115.2,-9.15,13.95,-24.22,-13.08,-7.64,0.7221,5.1684,-4.0982,32.0,-2.75,53.5625,195.9375,-9.875,152.9375,0
1776973302.126,11.3389,-2.0638,1.5945,-0.5676,-3.2191,-3.6988,-86.55,0.3,-26.25,11.1618,5.4995,-8.2528,1.1173,0.6246,1.5961,-113.85,-8.4,13.35,-25.05,-11.1,-4.91,0.2138,4.9436,-3.9663,32.0,-2.75,53.5625,194.4375,-6.4375,152.75,0
1776973302.131,10.4675,-2.5043,2.4038,-0.4714,-2.6084,-3.5378,-86.55,0.3,-26.25,11.1618,5.4995,-8.2528,1.1173,0.6246,1.5961,-114.15,-10.2,12.15,-25.05,-11.1,-4.91,0.2138,4.9436,-3.9663,32.0,-2.75,53.5625,193.0,-3.25,152.75,0
1776973302.14,9.7372,-3.2274,3.7828,-0.3405,-2.0451,-3.2165,-85.8,2.25,-25.8,13.3453,9.232,-14.2718,2.473,0.0224,1.6164,-114.9,-8.7,10.5,-25.23,-7.86,-2.24,-0.1331,4.5815,-3.6248,32.0,-2.75,53.5625,193.0,-3.25,152.75,0
1776973302.144,9.7372,-3.2274,3.7828,-0.3405,-2.0451,-3.2165,-84.6,4.2,-29.55,15.9478,14.3676,-15.9933,4.0201,0.0741,1.2732,-114.9,-8.7,10.5,-25.23,-7.86,-2.24,-0.1331,4.5815,-3.6248,32.0,-2.75,53.5625,191.8125,-0.4375,152.75,0
1776973302.15,8.7771,-3.9504,5.8275,-0.235,-1.5481,-2.8058,-84.6,4.2,-29.55,15.9478,14.3676,-15.9933,4.0201,0.0741,1.2732,-114.9,-8.7,10.5,-25.16,-3.82,0.27,-0.0502,4.0939,-3.1634,13.75,7.25,50.5,191.8125,-0.4375,152.75,0
1776973302.154,8.7771,-3.9504,5.8275,-0.235,-1.5481,-2.8058,-84.6,4.2,-29.55,17.0371,15.457,-13.4578,3.5821,0.2164,0.789,-114.9,-8.7,10.5,-25.16,-3.82,0.27,-0.0502,4.0939,-3.1634,13.75,7.25,50.5,191.8125,-0.4375,152.75,0
1776973302.159,6.7086,-3.1508,6.1507,-0.4898,-0.9942,-2.2964,-84.6,4.2,-29.55,17.0371,15.457,-13.4578,3.5821,0.2164,0.789,-118.05,-5.25,10.65,-26.34,3.57,3.55,0.6349,3.5354,-2.6245,13.75,7.25,50.5,190.8125,1.9375,152.4375,0
1776973302.165,5.6862,-0.5076,4.719,-0.4898,-0.9942,-2.2964,-82.5,6.75,-28.65,12.5169,14.1569,-6.4428,1.987,0.6235,0.2705,-118.05,-5.25,10.65,-28.39,7.29,4.83,1.7759,2.9485,-2.1042,13.75,7.25,50.5,190.0625,3.875,151.4375,0
1776973302.17,5.6862,-0.5076,4.719,-1.02,-0.299,-1.5473,-82.5,6.75,-28.65,12.5169,14.1569,-6.4428,1.987,0.6235,0.2705,-119.1,-0.75,10.2,-28.39,7.29,4.83,1.7759,2.9485,-2.1042,13.75,7.25,50.5,189.3125,5.5625,149.75,0
1776973302.18,5.1499,0.8882,3.3399,-1.2897,0.3469,-0.6464,-82.5,6.75,-28.65,13.726,12.3804,-6.1435,0.9148,0.9086,-0.1871,-115.95,3.45,10.5,-30.39,9.35,6.21,3.1001,2.3911,-1.7682,13.75,7.25,50.5,188.625,6.875,147.5,0
1776973302.19,4.8626,0.9625,4.3718,-0.8785,1.0416,0.2281,-85.05,7.35,-29.25,9.5409,9.3805,-6.8043,-0.0679,0.7749,-0.6286,-114.9,5.7,10.8,-32.82,3.38,8.19,4.0481,1.7911,-1.6101,13.75,7.25,50.5,188.625,6.875,147.5,0
1776973302.194,8.9759,2.9042,6.754,-0.8785,1.0416,0.2281,-84.0,6.75,-27.45,8.3677,7.1587,-3.802,-0.3824,0.2835,-0.5662,-114.9,5.7,10.8,-32.82,3.38,8.19,4.0481,1.7911,-1.6101,1.25,9.75,46.0625,187.8125,7.75,145.4375,0
1776973302.2,8.9759,2.9042,6.754,-0.1583,1.6577,0.7626,-84.0,6.75,-27.45,8.3677,7.1587,-3.802,-0.3824,0.2835,-0.5662,-114.9,5.7,10.8,-26.44,-5.25,6.68,3.8768,1.0472,-1.4083,1.25,9.75,46.0625,187.8125,7.75,145.4375,0
1776973302.204,10.5512,3.9049,0.9768,-0.1583,1.6577,0.7626,-83.25,6.45,-26.4,7.513,4.8914,-1.0295,-0.6454,0.0733,-0.4988,-114.9,5.7,10.8,-26.44,-5.25,6.68,3.8768,1.0472,-1.4083,1.25,9.75,46.0625,186.875,7.625,145.25,0
1776973302.21,10.5512,3.9049,0.9768,0.3381,1.6617,1.2367,-83.25,6.45,-26.4,7.513,4.8914,-1.0295,-0.6454,0.0733,-0.4988,-111.6,9.45,11.1,-24.75,-21.0,7.52,0.5269,-1.2632,-1.3232,1.25,9.75,46.0625,186.875,7.625,145.25,0
1776973302.218,10.2089,6.3949,2.0662,0.9209,2.3068,1.3368,-83.4,5.85,-24.0,7.3933,4.8195,2.7414,-0.9963,0.7426,-0.7274,-111.6,9.45,11.1,-0.9,9.84,-5.54,-2.6987,-4.5542,0.2858,1.25,9.75,46.0625,186.375,5.4375,146.875,0
1776973302.223,20.2214,9.1937,-10.1849,0.9209,2.3068,1.3368,-83.4,5.85,-24.0,11.0325,2.6552,5.272,-2.1035,1.1175,-0.4692,-112.65,8.4,11.1,-0.9,9.84,-5.54,-2.6987,-4.5542,0.2858,1.25,9.75,46.0625,185.8125,3.1875,149.1875,0
1776973302.23,20.2214,9.1937,-10.1849,-0.142,1.1239,0.6174,-83.4,5.85,-24.0,11.0325,2.6552,5.272,-2.1035,1.1175,-0.4692,-111.3,8.7,12.9,-1.63,-18.94,-17.91,-3.9499,-4.6208,0.1909,1.25,9.75,46.0625,185.75,1.5,150.75,0
1776973302.24,15.2271,10.1203,-11.6167,0.615,0.9262,0.2132,-83.1,2.7,-21.75,10.4555,-0.2274,4.9632,-2.8258,0.7205,-0.2864,-112.5,9.0,12.0,5.25,-18.51,-10.3,-2.8045,-3.158,0.6469,1.25,9.75,46.0625,185.75,1.5,150.75,0
1776973302.245,9.4212,-2.296,-5.1332,3.8006,1.0235,0.4306,-83.1,2.7,-21.75,9.845,0.4788,1.4174,-2.3718,0.756,-0.2569,-112.5,9.0,12.0,5.25,-18.51,-10.3,-2.8045,-3.158,0.6469,1.25,9.75,46.0625,186.3125,-0.625,152.5,0
1776973302.25,9.4212,-2.296,-5.1332,3.8006,1.0235,0.4306,-83.1,2.7,-21.75,9.845,0.4788,1.4174,-2.3718,0.756,-0.2569,-109.5,8.7,11.55,-4.17,9.83,-5.6,-3.182,-3.4874,1.8708,-2.5,15.6875,43.75,186.3125,-0.625,152.5,0
1776973302.255,14.4753,-8.497,-16.3644,3.5074,1.2175,1.0696,-84.0,3.3,-22.35,12.6605,3.4477,-1.2953,-0.4181,1.222,0.182,-109.5,8.7,11.55,-4.17,9.83,-5.6,-3.182,-3.4874,1.8708,-2.5,15.6875,43.75,186.4375,-3.1875,153.875,0
1776973302.26,14.4753,-8.497,-16.3644,3.5074,1.2175,1.0696,-84.0,3.3,-22.35,12.6605,3.4477,-1.2953,-0.4181,1.222,0.182,-109.5,8.7,11.55,-7.53,12.78,-19.44,-2.4904,-4.4004,1.3919,-2.5,15.6875,43.75,186.4375,-3.1875,153.875,0
1776973302.264,17.0036,-10.9247,-10.1682,2.4816,1.2622,1.3832,-84.0,3.3,-22.35,17.5663,6.7493,-4.6543,1.6363,1.7866,0.842,-109.5,8.7,11.55,-7.53,12.78,-19.44,-0.7199,-4.6044,0.8738,-2.5,15.6875,43.75,186.375,-5.6875,154.25,0
1776973302.27,17.0036,-10.9247,-10.1682,2.4816,1.2622,1.3832,-84.15,3.0,-21.45,19.9724,8.9256,-8.9519,3.7289,1.3899,1.0856,-106.8,10.05,10.2,-10.44,7.83,-22.61,-0.7199,-4.6044,0.8738,-2.5,15.6875,43.75,186.6875,-8.1875,154.25,0
1776973302.28,14.0252,-14.2048,-4.9656,1.8663,1.6625,1.7437,-83.25,1.35,-21.15,19.9724,8.9256,-8.9519,5.1081,-0.3293,0.5076,-106.5,11.4,7.95,-14.93,11.24,-21.8,-0.0938,-4.2215,1.6068,-2.5,15.6875,43.75,187.25,-10.4375,154.1875,0
1776973302.29,14.3604,-9.6175,2.3655,0.0493,2.0643,1.9612,-84.45,0.9,-19.35,15.6485,8.4731,-11.461,2.898,-1.4615,-0.1817,-107.1,14.25,5.25,-14.98,-9.91,-15.99,0.1669,-3.6576,1.813,-2.5,15.6875,43.75,187.25,-10.4375,154.1875,0
1776973302.294,12.2368,-3.304,9.3087,-1.3075,2.1306,1.8175,-84.6,38.1,-19.35,15.6485,8.4731,-11.461,2.898,-1.4615,-0.1817,-107.1,14.25,5.25,-14.98,-9.91,-15.99,0.1669,-3.6576,1.813,-2.5,15.6875,43.75,187.25,-10.4375,154.1875,0
1776973302.3,12.2368,-3.304,9.3087,-1.3075,2.1306,1.8175,-84.6,-0.3,-17.4,5.7221,-1.8747,-1.7358,1.2433,-1.0528,-0.4082,-105.3,19.8,2.85,-15.81,-16.72,-12.87,0.0818,-3.1034,1.5806,6.0625,6.875,41.5625,187.75,-12.375,154.125,0
1776973302.304,10.7739,2.8659,8.011,-1.5394,1.9913,1.7499,-84.6,-0.3,-17.4,5.7221,-1.8747,-1.7358,1.2433,-1.0528,-0.4082,-105.3,19.8,2.85,-15.81,-16.72,-12.87,0.0818,-3.1034,1.5806,6.0625,6.875,41.5625,187.75,-12.375,154.125,0
1776973302.309,8.8801,7.5896,2.4636,-1.5394,1.9913,1.7499,-85.8,-1.95,-15.45,2.4349,-8.3941,5.703,0.4559,0.7703,-0.2753,-105.3,19.8,2.85,-8.61,-9.91,-8.6,-0.2443,-2.4129,1.2872,6.0625,6.875,41.5625,188.125,-13.875,154.3125,0
1776973302.317,8.8801,7.5896,2.4636,-0.9707,1.6896,1.6273,-85.8,-1.95,-15.45,2.4349,-8.3941,5.703,0.4559,0.7703,-0.2753,-108.75,35.4,4.05,-5.02,-5.12,-8.48,-0.5378,-2.0311,1.1159,6.0625,6.875,41.5625,188.4375,-15.1875,154.625,0
1776973302.322,6.1651,8.7197,2.2122,0.5646,1.4983,1.3797,-85.8,-1.95,-15.45,7.6878,-10.4962,18.5215,1.7816,-0.0677,-0.0464,-108.75,35.4,4.05,-5.02,-5.12,-8.48,-0.5378,-2.0311,1.1159,6.0625,6.875,41.5625,188.875,-16.3125,155.0625,0
1776973302.33,5.8299,3.9935,5.2625,1.8474,1.4434,1.0992,-83.7,-4.05,-14.55,1.8196,-8.1092,10.7452,0.296,0.1514,-0.0112,-111.45,41.25,4.95,-2.84,-6.58,-6.07,-0.7276,-1.7715,1.1846,6.0625,6.875,41.5625,189.25,-17.5,155.625,0
1776973302.34,6.6463,-1.6544,7.5824,1.445,1.5505,1.0222,-83.7,-4.05,-14.55,2.9832,-10.0604,3.0742,0.0933,1.1426,0.5303,-112.5,39.0,6.3,-4.56,-4.66,-7.45,-0.9065,-1.7617,1.2163,6.0625,6.875,41.5625,189.25,-17.5,155.625,0
1776973302.345,6.6463,-1.6544,7.5824,1.445,1.5505,1.0222,-83.7,-4.05,-14.55,2.9832,-10.0604,3.0742,0.0933,1.1426,0.5303,-112.5,39.0,6.3,-4.56,-4.66,-7.45,-0.9065,-1.7617,1.2163,6.0625,6.875,41.5625,189.625,-18.625,156.3125,0
1776973302.35,10.5752,-7.1946,2.5019,0.47,1.4773,1.1455,-84.45,-4.5,-14.25,4.1899,-5.4181,2.2745,-0.2182,1.4088,0.8868,-115.8,36.75,10.65,-6.19,-2.26,-9.15,-1.0996,-1.6417,1.1825,13.6875,5.875,37.75,189.625,-18.625,156.3125,0
1776973302.355,10.5752,-7.1946,2.5019,0.47,1.4773,1.1455,-84.45,-4.5,-14.25,4.1899,-5.4181,2.2745,-0.2182,1.4088,0.8868,-115.8,36.75,10.65,-6.19,-2.26,-9.15,-1.0996,-1.6417,1.1825,13.6875,5.875,37.75,189.9375,-19.5,157.0,0
1776973302.36,12.6988,-10.5919,0.5794,-0.5415,1.2689,1.3555,-84.6,-4.95,-12.45,8.1259,0.893,0.9409,-1.0232,1.6944,0.9286,-116.4,26.7,12.6,-5.07,-3.84,-8.81,-1.0472,-1.3941,1.0232,13.6875,5.875,37.75,189.9375,-19.5,157.0,0
1776973302.365,12.6988,-10.5919,0.5794,-0.5415,1.2689,1.3555,-84.6,-4.95,-12.45,8.1259,0.893,0.9409,-1.0232,1.6944,0.9286,-116.4,26.7,12.6,-5.07,-3.84,-8.81,-0.8978,-1.2272,0.877,13.6875,5.875,37.75,190.1875,-20.375,157.5625,0
1776973302.371,12.2009,-8.5258,1.6496,-1.0954,1.0272,1.5044,-83.85,-4.2,-11.85,13.9055,4.4053,1.7047,-1.8911,1.4589,0.9505,-116.4,26.7,12.6,-4.1,-2.49,-8.91,-0.8978,-1.2272,0.877,13.6875,5.875,37.75,190.4375,-21.125,158.0625,0
1776973302.38,11.145,-5.4827,2.2553,-1.4181,0.9856,1.4149,-83.85,-4.95,-12.45,14.4203,5.6144,1.8771,-1.4285,0.7408,0.8639,-114.6,12.45,15.75,-4.8,-1.66,-9.5,-0.8323,-1.1901,0.8225,13.6875,5.875,37.75,190.4375,-21.125,158.0625,0
1776973302.39,11.7771,-3.4285,1.2737,-1.8087,0.8713,1.2721,-83.85,-4.95,-12.45,11.2336,4.7884,0.577,-0.4482,0.6371,0.8079,-111.45,7.8,15.6,-6.54,-3.84,-8.13,-0.7909,-1.0243,0.7854,13.6875,5.875,37.75,190.6875,-21.8125,158.5625,0
1776973302.395,11.7771,-3.4285,1.2737,-1.8087,0.8713,1.2721,-83.85,-4.95,-12.45,11.2336,4.7884,0.577,-0.4482,0.6371,0.8079,-111.45,7.8,15.6,-6.54,-3.84,-8.13,-0.7909,-1.0243,0.7854,13.6875,5.875,37.75,190.6875,-21.8125,158.5625,0
1776973302.4,11.3318,-0.6512,1.4605,-1.7048,0.7141,1.2036,-83.85,-7.35,-11.4,10.8338,2.0638,-0.0407,0.0394,0.8777,0.8513,-110.7,5.55,14.85,-4.99,-0.98,-10.05,-0.7101,-0.577,0.661,16.25,2.25,36.75,190.875,-22.25,159.0625,0
1776973302.405,11.3318,-0.6512,1.4605,-1.7048,0.7141,1.2036,-83.85,-7.35,-11.4,10.8338,2.0638,-0.0407,0.0394,0.8777,0.8513,-109.95,5.25,14.25,-4.99,-0.98,-10.05,-0.7101,-0.577,0.661,16.25,2.25,36.75,190.875,-22.25,159.0625,0
1776973302.41,9.9814,2.4014,0.747,-1.1354,0.6475,1.1085,-83.85,-7.35,-11.4,10.556,-0.7278,0.3112,0.0989,0.8575,0.9699,-109.95,5.25,14.25,-5.74,-2.07,-9.19,-0.5072,-0.4811,0.5454,16.25,2.25,36.75,191.125,-22.625,159.4375,0
1776973302.418,9.3901,4.0223,-0.1149,-0.1074,0.6776,0.9393,-82.65,-8.1,-10.65,9.8617,-1.2641,0.747,-0.1106,0.8362,1.089,-109.95,5.25,14.25,-4.63,-2.97,-8.53,-0.2782,-0.3872,0.444,16.25,2.25,36.75,191.25,-22.875,159.625,0
1776973302.423,9.3901,4.0223,-0.1149,-0.1074,0.6776,0.9393,-82.65,-8.1,-10.65,9.8617,-1.2641,0.747,-0.1106,0.8362,1.089,-109.95,5.25,14.25,-4.63,-2.97,-8.53,-0.2782,-0.3872,0.444,16.25,2.25,36.75,191.4375,-23.125,159.8125,0
1776973302.43,9.1913,2.8156,1.0582,0.9022,0.7317,0.7613,-83.1,-8.55,-11.1,9.5696,-0.9649,0.5866,-0.3272,0.9486,1.1676,-109.95,5.25,14.25,-4.98,-2.56,-8.61,-0.2334,-0.3131,0.3785,16.25,2.25,36.75,191.5625,-23.3125,160.0,0
1776973302.44,9.414,0.6129,1.4222,1.4328,0.7687,0.6598,-85.05,-8.55,-10.65,9.3901,0.3496,0.3879,-0.397,1.0299,1.218,-104.25,3.0,11.4,-4.79,-2.67,-8.46,-0.2694,-0.2913,0.3109,16.25,2.25,36.75,191.5625,-23.3125,160.0,0
1776973302.445,9.596,-1.4844,1.4509,1.6438,0.805,0.6715,-85.05,-8.55,-10.65,9.086,2.0566,0.5842,-0.2649,1.1695,1.2438,-102.9,1.2,13.35,-4.79,-2.67,-8.46,-0.2694,-0.2913,0.3109,16.25,2.25,36.75,191.5625,-23.3125,160.0,0
1776973302.45,9.596,-1.4844,1.4509,1.6438,0.805,0.6715,-85.2,-9.15,-10.05,9.086,2.0566,0.5842,-0.2649,1.1695,1.2438,-102.9,1.2,13.35,-4.91,-2.47,-8.54,-0.2618,-0.2749,0.2596,17.0,0.0625,36.5,191.625,-23.5625,160.1875,0
1776973302.455,10.3046,-3.2753,1.4557,1.4192,0.7938,0.7341,-85.2,-9.15,-10.05,9.3541,2.8874,1.0008,-0.2745,1.1447,1.2497,-102.3,2.25,14.85,-4.91,-2.47,-8.54,-0.2618,-0.2749,0.2596,17.0,0.0625,36.5,191.625,-23.5625,160.1875,0
1776973302.46,10.3046,-3.2753,1.4557,1.4192,0.7938,0.7341,-84.6,-10.5,-8.85,9.3541,2.8874,1.0008,-0.2745,1.1447,1.2497,-102.3,2.25,14.85,-4.84,-2.64,-8.31,-0.2007,-0.2531,0.2182,17.0,0.0625,36.5,191.6875,-23.6875,160.375,0
1776973302.465,10.8912,-4.6878,1.7286,0.7546,0.6869,0.7402,-84.6,-10.5,-8.85,9.3374,3.146,0.9337,0.1455,1.1119,1.2756,-101.1,1.95,14.7,-4.84,-2.64,-8.31,-0.1702,-0.2247,0.1876,17.0,0.0625,36.5,191.75,-23.875,160.5,0
1776973302.471,10.8912,-4.6878,1.7286,0.7546,0.6869,0.7402,-83.7,-7.5,-9.75,9.3374,3.146,0.9337,0.1455,1.1119,1.2756,-101.1,1.95,14.7,-4.6,-3.02,-8.18,-0.1702,-0.2247,0.1876,17.0,0.0625,36.5,191.8125,-24.0,160.5625,0
1776973302.48,10.2256,-4.3024,1.585,0.0125,0.5529,0.7317,-83.7,-7.5,-9.75,8.9352,2.8706,1.2977,0.32,1.0531,1.2841,-101.1,1.95,14.7,-4.58,-3.1,-8.2,-0.1549,-0.1931,0.18,17.0,0.0625,36.5,191.8125,-24.0,160.5625,0
1776973302.49,9.6031,-2.7797,0.9936,-0.5662,0.4775,0.7573,-82.35,-8.1,-8.85,9.019,2.1117,1.4676,0.3288,0.9795,1.3153,-102.15,-0.15,15.75,-4.8,-2.73,-8.19,-0.1374,-0.1527,0.1691,17.0,0.0625,36.5,191.875,-24.125,160.6875,0
1776973302.495,9.4906,-0.5243,0.6776,-0.6853,0.5207,0.7597,-82.35,-8.1,-8.85,8.8729,1.5754,1.3743,0.4604,1.0472,1.3097,-103.95,-1.2,17.55,-4.8,-2.73,-8.19,-0.1374,-0.1527,0.1691,17.0,0.0625,36.5,191.9375,-24.1875,160.75,0
1776973302.5,9.4906,-0.5243,0.6776,-0.6853,0.5207,0.7597,-83.1,-9.3,-8.1,8.8729,1.5754,1.3743,0.4604,1.0472,1.3097,-103.95,-1.2,17.55,-4.75,-2.81,-8.21,-0.1254,-0.1309,0.1462,17.75,-0.5625,34.875,191.9375,-24.1875,160.75,0
1776973302.505,9.6917,1.1827,0.3998,-0.716,0.6006,0.7773,-83.1,-9.3,-8.1,8.6814,0.9577,0.9481,0.591,1.1237,1.3094,-103.8,-2.55,20.55,-4.75,-2.81,-8.21,-0.1254,-0.1309,0.1462,17.75,-0.5625,34.875,192.0,-24.3125,160.875,0
1776973302.51,9.6917,1.1827,0.3998,-0.716,0.6006,0.7773,-83.25,-11.1,-9.75,8.6814,0.9577,0.9481,0.591,1.1237,1.3094,-103.8,-2.55,20.55,-4.81,-2.67,-8.22,-0.1178,-0.1167,0.132,17.75,-0.5625,34.875,192.0,-24.3125,160.875,0
1776973302.517,10.0413,1.4676,0.2442,-0.5129,0.6299,0.8122,-83.25,-11.1,-9.75,9.5577,0.7183,0.395,0.6981,1.0006,1.3206,-105.45,-6.45,20.7,-4.78,-2.56,-8.33,-0.108,-0.12,0.1233,17.75,-0.5625,34.875,192.0625,-24.375,160.9375,0
1776973302.522,9.5672,2.2625,0.17,-0.1535,0.6808,0.7882,-85.2,-11.1,-9.0,9.9072,0.838,0.2011,0.6781,0.9033,1.2761,-105.45,-6.45,20.7,-4.78,-2.56,-8.33,-0.108,-0.12,0.1233,17.75,-0.5625,34.875,192.0625,-24.4375,161.0,0
1776973302.53,9.7396,1.4293,0.2179,-0.1535,0.6808,0.7882,-83.25,-10.65,-9.0,9.9072,0.838,0.2011,0.6781,0.9033,1.2761,-105.45,-6.45,20.7,-4.75,-2.58,-8.3,-0.0971,-0.1418,0.1102,17.75,-0.5625,34.875,192.125,-24.5625,161.0625,0
1776973302.54,9.6558,0.4477,0.3735,0.1823,0.7144,0.8026,-82.95,-10.35,-8.7,9.6175,1.2498,0.0694,0.5319,0.8396,1.2129,-105.45,-6.45,20.7,-4.76,-2.56,-8.33,-0.096,-0.1625,0.1069,17.75,-0.5625,34.875,192.125,-24.5625,161.0625,0
1776973302.545,9.6558,0.4477,0.3735,0.3246,0.7264,0.8271,-82.95,-10.35,-8.7,9.1578,1.6592,-0.1867,0.3331,0.8577,1.1381,-108.75,-12.9,24.0,-4.76,-2.56,-8.33,-0.096,-0.1625,0.1069,17.75,-0.5625,34.875,192.1875,-24.75,161.1875,0
1776973302.55,9.8067,-0.3543,0.3998,0.2595,0.7157,0.8633,-82.95,-10.35,-8.7,9.1578,1.6592,-0.1867,0.1114,0.8316,1.0549,-108.75,-12.9,24.0,-4.61,-2.54,-8.35,-0.0927,-0.1658,0.1069,18.6875,-1.6875,34.875,192.1875,-24.75,161.1875,0
1776973302.555,9.8067,-0.3543,0.3998,0.2595,0.7157,0.8633,-82.95,-10.35,-8.7,8.8873,2.1572,-0.4573,0.1114,0.8316,1.0549,-108.9,-16.8,22.8,-4.61,-2.54,-8.35,-0.0927,-0.1658,0.1069,18.6875,-1.6875,34.875,192.1875,-24.75,161.1875,0
1776973302.56,9.7205,-0.5028,0.51,0.1788,0.6368,0.9028,-84.0,-12.6,-7.5,8.7005,2.2769,-0.5435,-0.0019,0.8767,0.9689,-108.9,-16.8,22.8,-4.77,-2.62,-8.18,-0.0622,-0.1691,0.1091,18.6875,-1.6875,34.875,192.25,-24.9375,161.25,0
1776973302.565,9.7205,-0.5028,0.51,0.1788,0.6368,0.9028,-84.0,-12.6,-7.5,8.7005,2.2769,-0.5435,-0.0019,0.8767,0.9689,-108.9,-19.5,22.35,-4.77,-2.62,-8.18,-0.0469,-0.1778,0.108,18.6875,-1.6875,34.875,192.25,-25.125,161.3125,0
1776973302.571,9.6151,-0.1508,0.4788,0.0386,0.6137,0.9257,-84.0,-12.6,-7.5,8.8178,2.3176,-0.5602,-0.0181,0.8639,0.8871,-108.9,-19.5,22.35,-4.65,-2.6,-8.24,-0.0469,-0.1778,0.108,18.6875,-1.6875,34.875,192.25,-25.125,161.3125,0
1776973302.58,9.5529,0.3256,0.4046,-0.0826,0.5939,0.9494,-82.5,-13.05,-8.25,8.9064,2.3703,-0.8116,0.1223,0.9577,0.8095,-109.05,-22.95,21.15,-4.53,-2.86,-8.2,-0.0371,-0.1756,0.1102,18.6875,-1.6875,34.875,192.3125,-25.25,161.375,0
1776973302.585,9.5529,0.3256,0.4046,-0.0826,0.5939,0.9494,-82.5,-13.05,-8.25,8.9064,2.3703,-0.8116,0.1223,0.9577,0.8095,-109.05,-22.95,21.15,-4.53,-2.86,-8.2,-0.06,-0.192,0.1244,18.6875,-1.6875,34.875,192.375,-25.4375,161.375,0
1776973302.591,9.6367,0.3496,0.5219,-0.1399,0.6209,0.9697,-81.15,-14.85,-8.85,8.5593,2.3439,0.328,0.3176,0.8607,0.7901,-109.05,-22.95,21.15,-4.73,-2.8,-8.16,-0.06,-0.192,0.1244,18.6875,-1.6875,34.875,192.375,-25.4375,161.375,0
1776973302.596,9.6367,0.3496,0.5219,-0.1399,0.6209,0.9697,-81.15,-14.85,-8.85,8.5593,2.3439,0.328,0.3176,0.8607,0.7901,-108.15,-25.05,21.0,-4.73,-2.8,-8.16,-0.0851,-0.2214,0.1407,19.0,-1.0,33.75,192.4375,-25.625,161.4375,0
1776973302.601,9.8569,0.3208,0.2227,-0.1167,0.6614,1.0283,-81.6,-13.65,-6.9,8.7795,2.7509,-0.2993,0.0152,1.2185,0.6923,-108.15,-25.05,21.0,-4.81,-2.67,-8.08,-0.0851,-0.2214,0.1407,19.0,-1.0,33.75,192.4375,-25.625,161.4375,0
1776973302.606,9.8569,0.3208,0.2227,-0.1167,0.6614,1.0283,-81.6,-13.65,-6.9,8.7795,2.7509,-0.2993,0.0152,1.2185,0.6923,-106.8,-25.05,20.25,-4.81,-2.67,-8.08,-0.0949,-0.2291,0.1429,19.0,-1.0,33.75,192.5,-25.8125,161.5625,0
1776973302.611,9.9144,0.1293,0.1173,-0.1575,0.6749,1.0813,-81.3,-15.45,-5.25,8.825,1.9154,-0.7278,-0.4378,1.0182,0.736,-106.8,-25.05,20.25,-4.68,-2.58,-8.22,-0.0949,-0.2291,0.1429,19.0,-1.0,33.75,192.5,-25.8125,161.5625,0
1776973302.616,9.9144,0.1293,0.1173,-0.1575,0.6749,1.0813,-81.3,-15.45,-5.25,8.825,1.9154,-0.7278,-0.4378,1.0182,0.736,-105.75,-25.95,21.15,-4.68,-2.58,-8.22,-0.1134,-0.2542,0.1418,19.0,-1.0,33.75,192.5625,-26.0,161.625,0
1776973302.621,9.5936,0.3376,0.3519,-0.1988,0.7168,1.1146,-82.2,-14.25,-5.25,8.6167,1.1732,0.7374,-0.4423,0.9566,0.7416,-104.55,-25.8,22.05,-4.61,-2.58,-8.3,-0.1134,-0.2542,0.1418,19.0,-1.0,33.75,192.5625,-26.1875,161.6875,0
1776973302.63,9.4786,0.2514,0.5028,-0.1164,0.753,1.1764,-82.35,-15.15,-6.15,9.3925,0.7733,1.7382,-0.2124,0.8553,0.7413,-104.55,-25.8,22.05,-4.72,-2.31,-8.36,-0.1429,-0.2847,0.1473,19.0,-1.0,33.75,192.5625,-26.1875,161.6875,0
1776973302.64,9.7229,0.1484,0.9313,-0.0296,0.7389,1.2052,-82.35,-15.15,-6.15,9.5409,0.4094,2.0016,-0.0949,0.7626,0.7586,-104.55,-25.8,22.05,-4.77,-2.39,-8.31,-0.1658,-0.3152,0.1462,19.0,-1.0,33.75,192.625,-26.375,161.8125,0
1776973302.645,9.7229,0.1484,0.9313,-0.0296,0.7389,1.2052,-82.35,-15.15,-6.15,9.5409,0.4094,2.0016,-0.0949,0.7626,0.7586,-104.55,-25.8,22.05,-4.77,-2.39,-8.31,-0.1658,-0.3152,0.1462,19.0,-1.0,33.75,192.625,-26.375,161.8125,0
1776973302.65,9.9216,-0.7542,1.4102,0.0653,0.7341,1.2052,-80.55,-16.2,-3.75,9.6606,0.1508,1.3072,-0.1716,0.8604,0.7893,-104.55,-25.8,22.05,-4.78,-2.44,-8.51,-0.1756,-0.336,0.1505,20.0625,-1.0625,34.1875,192.625,-26.5625,161.9375,0
1776973302.655,9.9216,-0.7542,1.4102,0.0653,0.7341,1.2052,-80.55,-16.2,-3.75,9.6606,0.1508,1.3072,-0.1716,0.8604,0.7893,-99.9,-26.55,23.1,-4.78,-2.44,-8.51,-0.1756,-0.336,0.1505,20.0625,-1.0625,34.1875,192.625,-26.5625,161.9375,0
1776973302.66,10.2065,-1.7933,1.257,0.1295,0.7021,1.2244,-79.5,-17.4,-4.95,9.7827,-0.0024,1.0487,-0.3235,0.8647,0.8348,-99.9,-26.55,23.1,-4.73,-2.51,-8.64,-0.1418,-0.3534,0.1505,20.0625,-1.0625,34.1875,192.6875,-26.75,162.0,0
1776973302.665,10.2089,-2.2266,1.1612,0.1295,0.7021,1.2244,-79.5,-17.4,-4.95,9.7827,-0.0024,1.0487,-0.3235,0.8647,0.8348,-100.2,-26.25,25.2,-4.73,-2.51,-8.64,-0.1069,-0.3818,0.1516,20.0625,-1.0625,34.1875,192.6875,-27.0,162.0625,0
1776973302.671,10.2089,-2.2266,1.1612,0.0205,0.6907,1.2385,-79.65,-16.8,-4.8,9.6965,0.1508,1.3767,-0.477,0.8314,0.8716,-100.35,-28.95,23.55,-4.68,-2.43,-8.67,-0.1069,-0.3818,0.1516,20.0625,-1.0625,34.1875,192.75,-27.25,162.125,0
1776973302.681,10.2615,-2.162,1.1564,-0.0418,0.6592,1.2377,-79.35,-17.55,-4.35,9.3709,0.3926,1.7526,-0.6134,0.8276,0.919,-100.35,-26.7,24.75,-4.68,-2.3,-8.68,-0.0884,-0.4189,0.1429,20.0625,-1.0625,34.1875,192.75,-27.25,162.125,0
1776973302.69,10.0413,-1.0511,1.257,-0.1511,0.5969,1.251,-77.55,-18.9,-3.75,9.4906,0.759,1.9609,-0.6752,0.8228,0.955,-100.35,-26.7,24.75,-4.76,-2.34,-8.6,-0.0709,-0.4669,0.144,20.0625,-1.0625,34.1875,192.75,-27.5,162.1875,0
1776973302.695,9.9431,-0.0646,0.7901,-0.125,0.5985,1.2841,-77.55,-18.9,-3.75,9.4906,0.759,1.9609,-0.6752,0.8228,0.955,-100.35,-26.7,24.75,-4.76,-2.34,-8.6,-0.0709,-0.4669,0.144,20.0625,-1.0625,34.1875,192.75,-27.5,162.1875,0
1776973302.7,9.9431,-0.0646,0.7901,-0.125,0.5985,1.2841,-77.4,-19.05,-4.35,9.5672,1.1253,1.6161,-0.6243,0.8639,0.9598,-97.8,-27.45,26.4,-4.67,-2.31,-8.75,-0.0589,-0.5334,0.1527,19.875,-2.1875,34.5625,192.8125,-27.8125,162.1875,0
1776973302.705,9.8857,0.9433,0.4453,-0.0608,0.6249,1.3592,-77.4,-19.05,-4.35,9.5672,1.1253,1.6161,-0.4988,0.8633,0.9377,-97.8,-27.45,26.4,-4.67,-2.31,-8.75,-0.0589,-0.5334,0.1527,19.875,-2.1875,34.5625,192.8125,-27.8125,162.1875,0
1776973302.71,9.8857,0.9433,0.4453,-0.0608,0.6249,1.3592,-77.4,-19.05,-4.35,9.4451,1.506,0.9577,-0.4988,0.8633,0.9377,-97.5,-28.2,27.15,-4.61,-2.46,-8.82,-0.0709,-0.6229,0.1614,19.875,-2.1875,34.5625,192.8125,-28.1875,162.25,0
1776973302.715,10.5058,1.0894,0.0766,-0.0866,0.636,1.4424,-77.4,-19.05,-4.35,9.8785,2.0758,-0.1604,-0.3176,0.8111,0.8998,-97.5,-28.2,27.15,-4.61,-2.46,-8.82,-0.0742,-0.7538,0.1833,19.875,-2.1875,34.5625,192.875,-28.5625,162.3125,0
1776973302.721,10.5058,1.0894,0.0766,-0.0866,0.636,1.4424,-78.0,-18.9,-3.75,9.8785,2.0758,-0.1604,-0.3176,0.8111,0.8998,-96.6,-29.25,26.25,-4.63,-2.56,-8.79,-0.0742,-0.7538,0.1833,19.875,-2.1875,34.5625,192.9375,-29.0625,162.3125,0
1776973302.731,10.908,1.1085,-0.1891,-0.0629,0.692,1.5303,-78.0,-18.9,-3.75,10.4483,2.7294,-1.4461,-0.1378,0.8391,0.8442,-96.9,-29.55,27.0,-4.36,-2.87,-9.29,-0.0993,-0.9043,0.2236,19.875,-2.1875,34.5625,192.9375,-29.75,162.4375,0
1776973302.741,11.4467,1.1732,-0.4405,-0.0003,0.724,1.6217,-76.5,-22.8,-2.4,10.8793,3.5674,-2.2841,0.1074,0.7605,0.7885,-95.7,-28.95,29.25,-4.26,-2.84,-9.41,-0.1484,-1.1192,0.3033,19.875,-2.1875,34.5625,192.9375,-29.75,162.4375,0
1776973302.746,11.5353,0.8906,-1.3982,0.0432,0.7962,1.7341,-76.5,-22.8,-2.4,10.8697,4.288,-2.3272,0.1905,0.6963,0.7304,-95.7,-28.95,29.25,-4.26,-2.84,-9.41,-0.1484,-1.1192,0.3033,19.875,-2.1875,34.5625,193.0625,-30.5,162.5,0
1776973302.751,11.5353,0.8906,-1.3982,0.0432,0.7962,1.7341,-76.8,-22.5,-1.2,10.8697,4.288,-2.3272,0.1905,0.6963,0.7304,-95.7,-28.95,29.25,-4.38,-2.68,-9.47,-0.1931,-1.3624,0.4123,20.875,-2.875,33.0,193.0625,-30.5,162.5,0
1776973302.755,11.5496,0.8332,-1.9058,0.1252,0.8407,1.8564,-76.8,-22.5,-1.2,10.5058,4.7094,-1.9225,0.0813,0.575,0.6499,-95.7,-28.95,29.25,-4.38,-2.68,-9.47,-0.1931,-1.3624,0.4123,20.875,-2.875,33.0,193.1875,-31.4375,162.625,0
1776973302.761,11.5496,0.8332,-1.9058,0.1252,0.8407,1.8564,-74.85,-22.5,-1.2,10.5058,4.7094,-1.9225,0.0813,0.575,0.6499,-96.0,-30.45,27.15,-4.36,-2.23,-9.76,-0.1647,-1.6177,0.5007,20.875,-2.875,33.0,193.1875,-31.4375,162.625,0
1776973302.765,11.5041,1.5706,-1.5682,0.1964,0.8577,2.0057,-74.85,-22.5,-1.2,10.6518,5.4253,-1.4246,-0.2132,0.4618,0.5284,-96.0,-30.45,27.15,-4.36,-2.23,-9.76,-0.1189,-1.8882,0.6,20.875,-2.875,33.0,193.375,-32.5625,162.6875,0
1776973302.771,11.8226,2.8515,-1.3695,0.2944,0.8489,2.1954,-75.15,-24.6,0.3,10.6518,5.4253,-1.4246,-0.2132,0.4618,0.5284,-97.05,-31.2,30.45,-4.11,-1.42,-10.02,-0.1189,-1.8882,0.6,20.875,-2.875,33.0,193.5625,-33.8125,162.6875,0
1776973302.781,12.5959,3.6799,-0.984,0.2944,0.8489,2.1954,-75.15,-24.6,0.3,11.1354,6.2393,-0.9313,-0.3728,0.2726,0.3541,-96.45,-31.2,29.7,-3.92,-1.06,-9.79,0.0262,-2.1817,0.6981,20.875,-2.875,33.0,193.5625,-33.8125,162.6875,0
1776973302.791,13.9031,4.64,-0.5483,0.5164,0.895,2.5791,-72.6,-26.4,0.45,11.2144,6.7516,-0.5938,-0.5335,0.0165,0.146,-97.8,-31.65,30.45,-3.74,-2.3,-10.14,0.168,-2.5536,0.8018,20.875,-2.875,33.0,193.875,-35.3125,162.5625,0
1776973302.796,13.9031,4.64,-0.5483,0.5164,0.895,2.5791,-72.6,-26.4,0.45,12.0165,6.8331,-0.6129,-0.5191,-0.3056,-0.0989,-97.8,-31.65,30.45,-3.74,-2.3,-10.14,0.168,-2.5536,0.8018,20.875,-2.875,33.0,193.875,-35.3125,162.5625,0
1776973302.801,15.4282,5.138,-3.1843,0.3858,1.0003,2.7928,-72.6,-26.4,0.45,12.0165,6.8331,-0.6129,-0.5191,-0.3056,-0.0989,-97.8,-31.65,30.45,-3.28,-3.36,-10.48,0.2236,-2.9332,0.9545,22.75,-2.5625,32.5625,194.1875,-37.0,162.4375,0
1776973302.806,15.4282,5.138,-3.1843,0.3858,1.0003,2.7928,-72.6,-26.4,0.45,12.7324,7.2209,-0.8882,-0.1471,-0.389,-0.4109,-97.8,-31.65,30.45,-3.28,-3.36,-10.48,0.2236,-2.9332,0.9545,22.75,-2.5625,32.5625,194.6875,-39.0,162.375,0
1776973302.811,17.3244,4.4819,-4.5298,0.0173,1.1189,2.9396,-70.8,-27.9,1.65,12.7324,7.2209,-0.8882,-0.1471,-0.389,-0.4109,-101.7,-34.5,30.15,-2.87,-5.04,-10.68,0.2793,-3.3892,1.1912,22.75,-2.5625,32.5625,194.6875,-39.0,162.375,0
1776973302.819,18.8065,6.0047,-3.9337,0.0173,1.1189,2.9396,-70.8,-27.9,1.65,11.3557,8.2504,-3.1029,0.3238,-0.462,-0.6678,-101.4,-33.9,28.65,-2.55,-6.82,-10.72,0.2673,-3.9554,1.5664,22.75,-2.5625,32.5625,195.3125,-41.375,162.3125,0
1776973302.824,18.8065,6.0047,-3.9337,-0.3235,1.1658,3.1634,-68.7,-28.95,1.8,11.0684,9.7372,-4.8411,0.7845,-0.6251,-0.8793,-101.4,-33.9,28.65,-2.55,-6.82,-10.72,0.2673,-3.9554,1.5664,22.75,-2.5625,32.5625,230.3125,-44.1875,162.5625,0
1776973302.831,19.9652,8.3175,-4.4388,-0.7181,1.1319,3.4659,-67.5,-29.7,1.8,10.252,9.2153,-2.7677,0.7898,-1.436,-1.0677,-103.35,-33.15,30.0,-2.14,-6.88,-11.79,0.1407,-4.6197,2.1118,22.75,-2.5625,32.5625,226.875,-47.5,163.25,0
1776973302.841,19.9365,9.0668,-4.5059,-0.7242,1.1215,3.646,-66.9,-31.5,1.2,8.5904,11.0445,0.838,1.7144,-1.2367,-1.4027,-103.95,-33.45,29.7,-2.82,-7.02,-12.73,-0.0491,-5.3996,2.7783,22.75,-2.5625,32.5625,226.875,-47.5,163.25,0
1776973302.846,19.9365,9.0668,-4.5059,-0.7242,1.1215,3.646,-66.9,-31.5,1.2,8.5904,11.0445,0.838,1.7144,-1.2367,-1.4027,-103.95,-33.45,29.7,-2.82,-7.02,-12.73,-0.0491,-5.3996,2.7783,22.75,-2.5625,32.5625,226.875,-47.5,163.25,0
1776973302.851,18.0355,8.8035,-3.2034,-0.4143,1.182,3.6103,-64.65,-32.25,3.0,10.8745,9.0644,-0.3304,1.9585,-0.9699,-1.7688,-104.25,-32.25,28.05,-5.01,-7.5,-13.61,-0.3894,-6.2995,3.4645,26.75,-4.375,28.6875,222.875,-51.375,164.4375,0
1776973302.856,18.0355,8.8035,-3.2034,-0.4143,1.182,3.6103,-64.65,-32.25,3.0,10.8745,9.0644,-0.3304,1.9585,-0.9699,-1.7688,-104.25,-32.25,28.05,-5.01,-7.5,-13.61,-0.3894,-6.2995,3.4645,26.75,-4.375,28.6875,222.875,-51.375,164.4375,0
1776973302.861,15.6581,6.9935,-0.7973,-0.178,1.2164,3.3787,-63.45,-33.45,2.7,14.0707,5.3319,-1.0151,2.6883,-1.2854,-1.9497,-104.25,-32.25,28.05,-15.07,-10.44,-16.24,-0.8116,-7.2158,4.0579,26.75,-4.375,28.6875,218.375,-55.8125,166.5,0
1776973302.866,15.6581,6.9935,-0.7973,-0.178,1.2164,3.3787,-63.45,-33.45,2.7,14.0707,5.3319,-1.0151,2.6883,-1.2854,-1.9497,-104.25,-32.25,28.05,-15.07,-10.44,-16.24,-1.3363,-7.8693,4.4713,26.75,-4.375,28.6875,213.5625,-60.5625,169.75,0
1776973302.872,14.4059,3.2417,1.3838,0.2878,1.0624,3.0137,-63.45,-33.45,2.7,15.9981,2.296,-0.7254,3.0851,-1.8119,-2.0656,-101.7,-28.05,27.0,-18.73,-9.42,-17.12,-1.3363,-7.8693,4.4713,26.75,-4.375,28.6875,208.9375,-65.375,174.5,0
1776973302.881,12.7826,1.8866,6.6104,1.0592,0.9475,2.6247,-60.75,-35.55,3.6,17.5016,0.6369,1.0295,3.1112,-2.3244,-2.1994,-99.9,-27.75,27.3,-17.33,-9.75,-17.14,-1.7584,-8.0732,4.6382,26.75,-4.375,28.6875,208.9375,-65.375,174.5,0
1776973302.891,11.9519,1.0511,3.45,1.0701,0.971,2.384,-60.75,-35.55,3.6,15.4881,-0.4788,3.4405,2.8202,-2.5069,-2.3718,-102.3,-25.8,24.9,-16.17,-6.79,-17.64,-1.8926,-8.0536,4.6306,26.75,-4.375,28.6875,204.6875,-69.9375,-178.5,0
1776973302.896,13.8576,-3.8714,2.7366,1.0701,0.971,2.384,-60.75,-35.55,3.6,15.4881,-0.4788,3.4405,2.8202,-2.5069,-2.3718,-102.3,-25.8,24.9,-16.17,-6.79,-17.64,-1.8926,-8.0536,4.6306,26.75,-4.375,28.6875,201.3125,-74.0,-169.125,0
1776973302.901,13.8576,-3.8714,2.7366,1.0325,1.2457,2.2697,-59.1,-36.0,4.8,14.4682,-1.9273,5.1284,1.8914,-2.1549,-2.4011,-102.6,-25.2,22.95,-13.14,-9.81,-17.43,-1.6308,-7.8354,4.1342,32.0,-10.25,18.875,201.3125,-74.0,-169.125,0
1776973302.906,14.0827,-8.2815,7.5848,1.0325,1.2457,2.2697,-59.1,-36.0,4.8,14.4682,-1.9273,5.1284,1.8914,-2.1549,-2.4011,-102.6,-25.2,22.95,-13.14,-9.81,-17.43,-1.6308,-7.8354,4.1342,32.0,-10.25,18.875,198.6875,-77.1875,-156.0625,0
1776973302.911,14.0827,-8.2815,7.5848,1.8058,1.4493,2.0153,-59.1,-36.0,4.8,16.0771,-4.3551,5.4444,0.6675,-1.6534,-2.2876,-102.6,-25.2,22.95,-9.48,-14.1,-14.93,-1.3079,-7.1515,3.7394,32.0,-10.25,18.875,198.6875,-77.1875,-156.0625,0
1776973302.917,12.6773,-9.0932,9.0214,3.0915,1.3781,1.4701,-57.45,-36.45,6.75,16.0771,-4.3551,5.4444,0.6675,-1.6534,-2.2876,-99.6,-22.2,22.5,-1.2,-15.05,-13.26,-1.6166,-6.2886,3.8059,32.0,-10.25,18.875,196.0,-79.0,-137.625,0
1776973302.922,12.6773,-9.0932,9.0214,3.0915,1.3781,1.4701,-57.6,-36.0,8.1,18.0978,-5.9544,4.0797,-0.2102,-1.3134,-2.0256,-99.6,-22.2,22.5,-1.2,-15.05,-13.26,-1.6166,-6.2886,3.8059,32.0,-10.25,18.875,193.0625,-79.3125,-114.8125,0
1776973302.931,10.9846,-8.2265,7.0653,4.1142,0.599,1.1311,-57.0,-35.4,8.1,16.5679,-4.889,2.241,-0.8639,-1.6318,-2.0105,-99.45,-20.25,20.55,-9.35,-3.96,-4.93,-2.2067,-6.293,3.9292,32.0,-10.25,18.875,190.25,-78.5,-92.625,0
1776973302.941,10.6063,-5.0949,10.8122,3.6276,0.5931,1.4381,-57.0,-35.4,11.55,14.3125,-3.0215,2.0734,-1.4394,-1.6025,-2.1035,-96.6,-18.3,18.45,-32.56,-10.16,-9.9,-3.0969,-6.641,3.1307,32.0,-10.25,18.875,190.25,-78.5,-92.625,0
1776973302.946,6.7325,-5.8897,10.3118,4.0318,0.417,1.602,-57.0,-35.4,11.55,14.3125,-3.0215,2.0734,-1.4394,-1.6025,-2.1035,-96.45,-15.45,18.3,-32.56,-10.16,-9.9,-3.0969,-6.641,3.1307,32.0,-10.25,18.875,188.9375,-77.875,-81.8125,0
1776973302.951,6.7325,-5.8897,10.3118,4.0318,0.417,1.602,-57.0,-35.4,11.55,13.4123,-1.2929,3.1388,-1.6425,-1.4205,-2.2575,-96.45,-15.45,18.3,-13.8,-13.54,-15.61,-2.2537,-3.6412,0.9119,34.6875,-21.25,4.375,188.9375,-77.875,-81.8125,0
1776973302.956,6.4763,-3.5482,11.0516,4.1605,0.2302,1.149,-56.7,-34.5,13.5,13.4123,-1.2929,3.1388,-1.6425,-1.4205,-2.2575,-94.2,-13.65,15.0,-13.8,-13.54,-15.61,-2.2537,-3.6412,0.9119,34.6875,-21.25,4.375,188.625,-78.4375,-79.6875,0
1776973302.961,6.4763,-3.5482,11.0516,4.1605,0.2302,1.149,-56.7,-34.5,13.5,13.6182,0.0886,3.292,-1.3608,-1.6888,-2.2465,-94.2,-13.65,15.0,-9.43,-13.9,-13.9,-1.7988,-0.2651,-1.0614,34.6875,-21.25,4.375,188.625,-78.4375,-79.6875,0
1776973302.968,6.4236,-2.1165,9.4308,2.6649,-0.5596,0.5644,-56.7,-34.5,13.5,11.5831,1.8579,3.1173,-1.1343,-1.9095,-2.2031,-94.2,-13.65,15.0,-2.44,-11.32,-10.18,-2.0911,1.7148,-2.1762,34.6875,-21.25,4.375,188.5625,-79.75,-82.4375,0
1776973302.973,4.9297,-2.6049,6.2249,2.6649,-0.5596,0.5644,-57.45,-32.25,14.25,11.5831,1.8579,3.1173,-1.1343,-1.9095,-2.2031,-94.2,-13.65,15.0,-2.44,-11.32,-10.18,-2.0911,1.7148,-2.1762,34.6875,-21.25,4.375,188.25,-81.1875,-89.0625,0
1776973302.981,4.9297,-2.6049,6.2249,1.2756,-0.9894,0.0139,-57.45,-32.25,14.25,9.8665,3.292,2.897,-0.9361,-1.4877,-2.1909,-91.65,-9.15,15.45,-0.44,-7.86,-7.72,-2.5994,2.6027,-2.4162,34.6875,-21.25,4.375,187.75,-82.375,-99.5625,0
1776973302.991,3.9409,-2.4301,4.616,0.9374,-1.133,-0.4349,-58.65,-31.5,16.05,9.4691,3.7804,2.5474,-0.8476,-0.7749,-2.1498,-91.35,-9.45,13.95,-0.09,-4.18,-6.02,-2.8296,2.9529,-2.3322,34.6875,-21.25,4.375,187.75,-82.375,-99.5625,0
1776973302.996,3.5841,-2.9305,5.0973,1.0682,-1.2897,-0.7911,-58.8,-31.2,15.45,9.9096,3.4453,2.5929,-0.352,-0.5526,-2.2439,-93.0,-9.3,13.8,-0.09,-4.18,-6.02,-2.8296,2.9529,-2.3322,34.6875,-21.25,4.375,187.75,-82.375,-99.5625,0
1776973303.001,3.4596,-3.8762,5.2744,1.0682,-1.2897,-0.7911,-58.8,-31.2,15.45,9.9096,3.4453,2.5929,-0.352,-0.5526,-2.2439,-93.0,-9.3,13.8,0.41,-0.17,-4.53,-2.6234,3.182,-2.2242,32.6875,-27.1875,-7.0,187.25,-83.0625,-114.25,0
1776973303.006,3.4596,-3.8762,5.2744,1.3592,-1.4677,-1.1767,-59.55,-30.45,15.45,10.5489,3.225,1.8723,0.3147,-0.3126,-2.3446,-94.2,-7.2,13.95,0.41,-0.17,-4.53,-2.6234,3.182,-2.2242,32.6875,-27.1875,-7.0,187.25,-83.0625,-114.25,0
1776973303.011,3.2896,-4.6208,5.7916,1.3592,-1.4677,-1.1767,-59.55,-30.45,15.45,10.5489,3.225,1.8723,0.3147,-0.3126,-2.3446,-94.2,-7.2,13.95,0.53,-0.03,-4.17,-2.0399,3.4459,-2.1151,32.6875,-27.1875,-7.0,187.0,-83.0,-131.625,0
1776973303.02,3.2896,-4.6208,5.7916,1.5612,-1.8287,-1.5823,-60.3,-27.75,14.4,10.2903,2.7366,1.585,0.8612,-0.5167,-2.3806,-94.2,-7.2,13.95,0.59,-0.88,-3.97,-1.393,3.6532,-1.9679,32.6875,-27.1875,-7.0,187.0625,-82.1875,-147.4375,0
1776973303.025,2.2913,-5.5737,4.8387,1.3694,-2.242,-1.8439,-63.3,-27.75,13.2,10.6877,2.1093,1.2594,0.9196,-0.3099,-2.3358,-94.05,-4.8,16.35,0.59,-0.88,-3.97,-1.393,3.6532,-1.9679,32.6875,-27.1875,-7.0,187.3125,-80.6875,-159.125,0
1776973303.032,2.5809,-5.6934,4.5226,1.0938,-2.5037,-1.9764,-63.3,-27.75,13.2,10.6877,2.1093,1.2594,0.9196,-0.3099,-2.3358,-94.05,-4.8,16.35,-0.6,-2.45,-4.45,-0.9119,3.8168,-1.7682,32.6875,-27.1875,-7.0,187.6875,-78.8125,-167.0625,0
1776973303.042,2.4876,-6.2225,4.9344,0.7909,-2.6907,-2.0845,-63.3,-27.75,13.2,10.2831,2.0183,0.6153,1.4013,-0.5076,-2.3012,-96.9,-4.05,15.6,-1.41,-2.95,-4.69,-0.6283,4.0099,-1.5948,32.6875,-27.1875,-7.0,187.6875,-78.8125,-167.0625,0
1776973303.047,2.4876,-6.2225,4.9344,0.7909,-2.6907,-2.0845,-65.25,-24.15,11.85,8.3941,1.1277,0.7278,1.0443,-0.3477,-2.1575,-97.65,-1.8,17.4,-1.41,-2.95,-4.69,-0.6283,4.0099,-1.5948,44.25,-22.75,-6.375,188.0625,-76.625,-172.5,0
1776973303.052,3.0119,-6.6894,5.4253,0.4951,-2.8458,-2.2471,-65.25,-24.15,11.85,8.3941,1.1277,0.7278,1.0443,-0.3477,-2.1575,-97.65,-1.8,17.4,-2.09,-3.14,-5.14,-0.4734,4.2717,-1.5086,44.25,-22.75,-6.375,188.0625,-76.625,-172.5,0
1776973303.056,3.0119,-6.6894,5.4253,0.4951,-2.8458,-2.2471,-65.1,-24.45,10.5,8.9112,-0.419,0.9266,1.2132,-0.3424,-1.9724,-96.9,-1.8,18.75,-2.09,-3.14,-5.14,-0.4734,4.2717,-1.5086,44.25,-22.75,-6.375,188.5625,-74.1875,-176.5,0
1776973303.061,3.2777,-6.541,5.2481,0.3046,-3.0619,-2.42,-65.1,-24.45,10.5,8.9112,-0.419,0.9266,1.2132,-0.3424,-1.9724,-96.9,-1.8,18.75,-3.77,-3.52,-6.17,-0.3196,4.5695,-1.5108,44.25,-22.75,-6.375,188.5625,-74.1875,-176.5,0
1776973303.067,3.2777,-6.541,5.2481,0.3046,-3.0619,-2.42,-65.1,-23.25,10.05,7.4508,0.1915,1.6735,1.097,-0.3453,-1.7741,-96.75,-1.65,19.65,-3.77,-3.52,-6.17,-0.1353,4.9044,-1.6221,44.25,-22.75,-6.375,189.375,-71.5,-179.625,0
1776973303.072,3.3399,-5.7341,4.367,0.0189,-3.2279,-2.6012,-65.1,-23.25,10.05,7.4508,0.1915,1.6735,1.097,-0.3453,-1.7741,-96.75,-1.65,19.65,-4.11,-4.35,-6.4,-0.1353,4.9044,-1.6221,44.25,-22.75,-6.375,190.375,-68.5625,177.625,0
1776973303.082,3.3112,-5.8634,1.7669,-0.5423,-3.3023,-2.7161,-66.9,-20.1,9.0,7.8817,0.2442,2.7078,1.7152,-0.3885,-1.5844,-96.75,-1.65,19.65,-4.68,-5.23,-6.77,0.0,5.2349,-1.8261,44.25,-22.75,-6.375,190.375,-68.5625,177.625,0
1776973303.091,4.0223,-5.1906,3.8786,-0.5375,-3.4113,-2.7963,-68.4,-21.3,8.25,7.1898,0.067,2.3942,1.9462,-0.4279,-1.4205,-98.85,-0.9,21.9,-5.58,-5.89,-6.89,0.0305,5.5371,-2.1184,44.25,-22.75,-6.375,191.6875,-65.4375,175.3125,0
1776973303.096,4.0223,-5.1906,3.8786,-0.5375,-3.4113,-2.7963,-70.95,-20.7,6.6,6.5218,0.1413,2.1165,2.2601,-0.2054,-1.2489,-99.3,-1.65,21.45,-5.58,-5.89,-6.89,0.0305,5.5371,-2.1184,44.25,-22.75,-6.375,193.3125,-62.125,173.1875,0
1776973303.101,4.027,-4.3431,3.3112,-0.8444,-3.4979,-2.9591,-70.95,-20.7,6.6,6.5218,0.1413,2.1165,2.2601,-0.2054,-1.2489,-99.3,-1.65,21.45,-5.55,-4.36,-6.38,-0.06,5.8174,-2.5013,52.6875,-14.6875,11.6875,193.3125,-62.125,173.1875,0
1776973303.106,4.027,-4.3431,3.3112,-0.8444,-3.4979,-2.9591,-70.95,-20.7,6.6,6.1938,0.2849,2.648,2.444,-0.3885,-1.0008,-100.2,-0.75,21.6,-5.55,-4.36,-6.38,-0.06,5.8174,-2.5013,52.6875,-14.6875,11.6875,193.3125,-62.125,173.1875,0
1776973303.111,4.6495,-4.8937,2.6145,-1.2436,-3.5285,-3.2708,-70.95,-20.7,6.6,6.1938,0.2849,2.648,2.444,-0.3885,-1.0008,-100.2,-0.75,21.6,-4.45,-3.51,-6.35,-0.1898,5.9647,-2.8667,52.6875,-14.6875,11.6875,195.125,-58.625,171.3125,0
1776973303.117,5.3654,-5.0877,2.2458,-1.2436,-3.5285,-3.2708,-70.05,-18.15,3.75,5.7485,0.1844,2.5211,2.654,-0.4855,-0.712,-99.9,-0.75,22.35,-4.45,-3.51,-6.35,-0.1669,5.9199,-3.0467,52.6875,-14.6875,11.6875,197.3125,-55.0625,169.6875,0
1776973303.122,5.3654,-5.0877,2.2458,-1.514,-3.6263,-3.5445,-70.05,-18.15,3.75,5.3558,-0.328,2.2841,2.7054,-0.4445,-0.4575,-99.9,-0.75,22.35,-4.61,-2.78,-6.63,-0.1669,5.9199,-3.0467,52.6875,-14.6875,11.6875,199.875,-51.625,168.25,0
1776973303.132,5.3558,-4.8243,2.8515,-1.4666,-3.6178,-3.8419,-70.05,-18.15,3.75,5.0111,-1.0223,2.0494,2.7025,-0.3832,-0.2675,-99.9,-0.75,22.35,-5.74,-1.89,-7.87,-0.036,5.7596,-3.0412,52.6875,-14.6875,11.6875,199.875,-51.625,168.25,0
1776973303.142,4.9416,-3.3495,3.2561,-1.0786,-3.6993,-4.0846,-71.7,-13.2,0.0,4.719,-1.8914,2.2577,2.4869,-0.2276,-0.1343,-99.6,-0.45,20.7,-6.58,-1.52,-8.88,0.2018,5.5938,-2.9343,52.6875,-14.6875,11.6875,202.875,-48.25,167.0625,0
1776973303.146,5.1763,-2.2745,2.1476,-0.6539,-3.6884,-4.3463,-73.2,-13.2,-1.05,4.719,-1.8914,2.2577,2.4869,-0.2276,-0.1343,-100.05,-0.9,18.6,-6.58,-1.52,-8.88,0.2018,5.5938,-2.9343,52.6875,-14.6875,11.6875,202.875,-48.25,167.0625,0
1776973303.152,5.1763,-2.2745,2.1476,-0.6539,-3.6884,-4.3463,-73.2,-13.2,-1.05,4.7764,-2.7821,1.7837,2.2796,-0.0402,-0.0155,-100.05,-0.9,18.6,-7.41,-1.92,-9.62,0.5247,5.5098,-2.7533,38.1875,-1.0625,29.75,206.5,-44.9375,165.9375,0
1776973303.156,6.3303,-0.5483,2.0806,0.0099,-3.7038,-4.621,-73.2,-11.25,-2.85,4.7764,-2.7821,1.7837,2.2796,-0.0402,-0.0155,-100.05,-1.95,20.4,-7.41,-1.92,-9.62,0.5247,5.5098,-2.7533,38.1875,-1.0625,29.75,206.5,-44.9375,165.9375,0
1776973303.161,6.3303,-0.5483,2.0806,0.0099,-3.7038,-4.621,-73.2,-11.25,-2.85,5.1619,-3.7517,1.6735,1.8575,0.1343,0.1116,-100.05,-1.95,20.4,-8.64,-3.9,-10.81,0.8323,5.536,-2.5209,38.1875,-1.0625,29.75,178.3125,-41.625,164.9375,0
1776973303.166,8.4132,0.419,1.8842,0.5478,-3.7425,-4.7881,-73.95,-10.95,-4.8,5.1619,-3.7517,1.6735,1.8575,0.1343,0.1116,-101.4,-1.65,20.7,-8.64,-3.9,-10.81,1.0003,5.5676,-2.2918,38.1875,-1.0625,29.75,177.625,-38.3125,164.0625,0
1776973303.172,8.4132,0.419,1.8842,0.5478,-3.7425,-4.7881,-73.95,-10.95,-4.8,5.4372,-4.6878,1.585,1.582,0.1836,0.2124,-100.95,-1.8,21.6,-8.77,-4.44,-11.52,1.0003,5.5676,-2.2918,38.1875,-1.0625,29.75,177.0625,-35.0625,163.25,0
1776973303.182,11.0014,-1.3024,2.6336,0.6494,-3.7595,-4.8174,-75.3,-9.45,-5.7,5.7197,-5.3606,1.1995,1.4434,0.2896,0.2912,-100.95,-1.8,21.6,-9.45,-4.98,-12.54,1.057,5.4607,-2.1151,38.1875,-1.0625,29.75,177.0625,-35.0625,163.25,0
1776973303.192,13.2304,-4.5801,3.304,1.0445,-3.8245,-4.7969,-74.7,-7.8,-8.4,5.9711,-6.2393,0.8428,0.9001,0.4503,0.4138,-101.25,-2.25,21.6,-10.64,-5.37,-13.64,1.1236,5.2556,-2.0093,38.1875,-1.0625,29.75,176.5,-31.9375,162.5,0
1776973303.196,14.4155,-6.7852,4.6831,1.6379,-3.8941,-4.7662,-74.7,-7.8,-8.4,5.9711,-6.2393,0.8428,0.9001,0.4503,0.4138,-101.25,-2.25,21.3,-10.64,-5.37,-13.64,1.1236,5.2556,-2.0093,38.1875,-1.0625,29.75,176.0,-28.9375,161.6875,0
1776973303.202,14.4155,-6.7852,4.6831,1.6379,-3.8941,-4.7662,-74.7,-7.8,-8.4,5.7676,-6.4476,0.3807,0.7552,0.5918,0.5588,-102.75,-4.05,21.3,-13.1,-6.68,-15.45,1.249,5.0931,-2.0082,16.25,2.75,28.25,176.0,-28.9375,161.6875,0
1776973303.206,15.0739,-6.4883,5.4731,1.853,-4.0036,-4.4979,-74.55,-5.55,-10.5,5.7676,-6.4476,0.3807,0.7552,0.5918,0.5588,-102.75,-4.05,21.3,-13.1,-6.68,-15.45,1.249,5.0931,-2.0082,16.25,2.75,28.25,175.4375,-25.875,160.75,0
1776973303.211,15.0739,-6.4883,5.4731,1.853,-4.0036,-4.4979,-74.55,-5.55,-10.5,5.9304,-5.7652,-0.0335,0.506,0.7493,0.7743,-101.85,-4.95,20.4,-14.73,-6.36,-16.15,1.4737,5.0582,-2.1457,16.25,2.75,28.25,175.4375,-25.875,160.75,0
1776973303.22,15.3277,-5.0973,3.79,1.4858,-4.0326,-4.1033,-75.45,-2.7,-12.9,6.0621,-3.6631,-0.5171,0.0133,0.8242,0.9846,-101.85,-4.95,20.4,-16.41,-5.81,-16.58,1.7388,5.0604,-2.5395,16.25,2.75,28.25,174.75,-22.75,159.625,0
1776973303.225,15.5863,-4.0941,4.2186,1.0416,-4.1355,-3.796,-73.95,-0.75,-13.2,6.0621,-3.6631,-0.5171,0.0133,0.8242,0.9846,-98.4,-5.55,18.75,-16.41,-5.81,-16.58,1.7388,5.0604,-2.5395,16.25,2.75,28.25,173.6875,-19.5625,158.3125,0
1776973303.232,12.8832,-1.9106,3.1843,1.0416,-4.1355,-3.796,-73.95,-0.75,-13.2,6.5841,-0.3663,-0.7853,-0.4186,0.7634,1.0877,-98.4,-5.55,18.75,-20.25,-6.05,-15.38,1.9591,4.9426,-3.1514,16.25,2.75,28.25,172.25,-16.375,156.875,0
1776973303.242,11.3461,-3.2729,-0.565,0.5108,-3.7275,-3.0918,-75.15,0.0,-14.7,7.5537,2.5594,-2.6576,-0.5462,0.303,1.1439,-98.4,-5.55,18.75,-24.39,-7.24,-13.83,1.994,4.6611,-3.8048,16.25,2.75,28.25,172.25,-16.375,156.875,0
