timestamp,thigh_acc_x,thigh_acc_y,thigh_acc_z,thigh_gyro_x,thigh_gyro_y,thigh_gyro_z,thigh_mag_x,thigh_mag_y,thigh_mag_z,shank_acc_x,shank_acc_y,shank_acc_z,shank_gyro_x,shank_gyro_y,shank_gyro_z,shank_mag_x,shank_mag_y,shank_mag_z,foot_acc_x,foot_acc_y,foot_acc_z,foot_gyro_x,foot_gyro_y,foot_gyro_z,foot_mag_x,foot_mag_y,foot_mag_z,foot_euler_x,foot_euler_y,foot_euler_z,perturbation_event
1776973761.152,12.9407,-2.636,4.1396,-0.652,-2.2322,-1.6984,-65.25,9.3,14.55,9.7923,-4.3359,3.4524,0.4786,1.5836,1.2207,-76.5,-6.45,26.7,-0.9,-5.93,-10.29,1.1846,-4.8422,2.5733,47.0625,33.1875,35.25,338.0625,-80.0625,157.625,0
1776973761.161,12.5432,-3.0023,4.6807,-1.1122,-1.9031,-1.6321,-65.25,9.3,14.55,8.983,-4.7908,4.0223,0.6755,1.5412,0.8945,-76.5,-6.45,26.7,0.88,-4.94,-8.29,1.0636,-4.5804,2.6834,47.0625,33.1875,35.25,338.0625,-80.0625,157.625,0
1776973761.171,11.5305,-2.8946,4.9752,-1.2079,-1.5396,-1.5617,-63.75,8.7,12.9,8.9256,-6.1651,5.7269,0.8607,1.218,0.5993,-73.95,-6.6,27.0,2.43,-1.62,-7.75,0.9665,-4.5804,2.8013,47.0625,33.1875,35.25,337.0,-82.9375,160.8125,0
1776973761.176,10.5704,-1.7334,4.7381,-0.8775,-1.4282,-1.5583,-63.75,8.7,12.9,7.9176,-6.778,7.8817,1.1002,0.8292,0.4954,-73.95,-6.6,27.0,2.43,-1.62,-7.75,0.9665,-4.5804,2.8013,47.0625,33.1875,35.25,337.0,-82.9375,160.8125,0
1776973761.181,10.5704,-1.7334,4.7381,-0.8775,-1.4282,-1.5583,-63.75,8.7,12.9,7.9176,-6.778,7.8817,1.1002,0.8292,0.4954,-73.2,-7.8,27.3,-14.34,-0.06,-9.29,0.9163,-4.6317,3.0652,55.5,30.1875,20.75,335.75,-85.875,179.3125,0
1776973761.186,10.0556,-0.9313,3.8235,-0.8583,-1.3582,-1.5404,-63.75,8.7,12.9,6.699,-7.865,9.0237,0.9944,0.5231,0.4205,-73.2,-7.8,27.3,-14.34,-0.06,-9.29,0.9163,-4.6317,3.0652,55.5,30.1875,20.75,335.75,-85.875,179.3125,0
1776973761.191,10.0556,-0.9313,3.8235,-0.8583,-1.3582,-1.5404,-64.05,8.7,12.9,6.699,-7.865,9.0237,0.9944,0.5231,0.4205,-74.55,-6.75,27.45,-11.35,-7.41,-11.01,1.1705,-3.6346,2.9747,55.5,30.1875,20.75,334.8125,-87.75,-179.0,0
1776973761.197,10.1945,-0.7853,1.2043,-1.2223,-1.3131,-1.4338,-64.05,8.7,10.8,4.7357,-7.2065,10.0173,0.9406,0.263,0.2222,-72.0,-6.9,27.75,-5.81,-9.66,-12.28,1.7835,-0.8923,2.0246,55.5,30.1875,20.75,334.6875,-87.375,-177.9375,0
1776973761.202,10.1945,-0.7853,1.2043,-1.2223,-1.3131,-1.4338,-63.15,11.55,10.95,4.446,-5.0422,8.0924,0.3757,-0.0216,-0.0453,-72.0,-6.9,27.75,-5.81,-9.66,-12.28,1.7835,-0.8923,2.0246,55.5,30.1875,20.75,335.125,-86.5,-177.375,0
1776973761.211,11.2839,-0.4477,0.7422,-1.0786,-1.356,-1.4759,-63.0,10.2,11.1,4.3694,-3.3255,6.2201,0.3757,-0.0216,-0.0453,-74.55,-6.45,26.7,-5.09,-9.89,-10.93,1.7868,1.2097,1.0374,55.5,30.1875,20.75,335.125,-86.5,-177.375,0
1776973761.221,11.1187,0.8428,1.9034,-0.7139,-1.4448,-1.5695,-62.1,10.05,9.15,4.5203,-2.7725,4.9057,-0.6107,-0.3802,-0.4247,-74.1,-6.0,26.4,-0.28,-7.9,-6.8,1.3461,2.3507,0.3469,55.5,30.1875,20.75,335.6875,-85.4375,-177.1875,0
1776973761.226,10.2544,2.7701,2.478,-0.2702,-1.2041,-1.6089,-62.1,10.05,9.15,4.5203,-2.7725,4.9057,-1.255,-0.481,-0.8148,-74.1,-6.0,26.4,-0.28,-7.9,-6.8,1.3461,2.3507,0.3469,55.5,30.1875,20.75,335.6875,-85.4375,-177.1875,0
1776973761.231,10.2544,2.7701,2.478,-0.2702,-1.2041,-1.6089,-61.65,10.8,10.65,4.118,-2.7485,4.3622,-1.255,-0.481,-0.8148,-74.1,-6.0,26.4,0.34,-6.74,-5.41,0.8127,2.8678,-0.1124,57.875,24.1875,11.0,336.125,-84.125,-177.3125,0
1776973761.235,10.1514,3.541,2.0016,-0.0152,-1.096,-1.627,-61.65,10.8,10.65,4.118,-2.7485,4.3622,-1.1895,-0.6901,-1.0563,-74.1,-6.0,26.4,0.34,-6.74,-5.41,0.8127,2.8678,-0.1124,57.875,24.1875,11.0,336.125,-84.125,-177.3125,0
1776973761.241,10.1514,3.541,2.0016,-0.0152,-1.096,-1.627,-61.65,10.8,10.65,3.893,-2.8012,3.5506,-0.8527,-0.9603,-1.2388,-72.9,-4.2,24.75,0.57,-5.97,-4.59,0.2923,3.0947,-0.48,57.875,24.1875,11.0,336.5,-82.625,-161.0625,0
1776973761.245,9.8378,3.5291,1.2833,0.1428,-0.8729,-1.68,-61.65,10.8,10.65,3.893,-2.8012,3.5506,-0.8527,-0.9603,-1.2388,-72.9,-4.2,24.75,0.57,-5.97,-4.59,-0.1353,3.2518,-0.8563,57.875,24.1875,11.0,336.8125,-81.0,-167.5625,0
1776973761.252,9.8378,3.5291,1.2833,0.1428,-0.8729,-1.68,-59.1,10.5,9.9,3.6966,-3.1412,4.1635,-0.4847,-1.2705,-1.4248,-72.9,-4.2,24.75,0.8,-5.16,-3.55,-0.1353,3.2518,-0.8563,57.875,24.1875,11.0,337.125,-79.3125,-173.0,0
1776973761.261,9.7276,3.1987,0.814,0.0115,-0.5436,-1.7616,-58.95,10.2,10.05,3.1603,-2.6791,4.2306,-0.0874,-1.5687,-1.6539,-73.05,-2.4,21.15,0.61,-4.67,-3.25,-0.48,3.3369,-1.2305,57.875,24.1875,11.0,337.125,-79.3125,-173.0,0
1776973761.271,10.2304,3.1603,1.913,0.3701,-0.6054,-1.7672,-57.45,9.9,9.75,2.964,-2.162,3.462,0.0328,-1.7968,-1.8943,-74.4,-1.95,21.75,0.09,-4.05,-3.38,-0.7712,3.315,-1.585,57.875,24.1875,11.0,337.4375,-77.5625,-177.625,0
1776973761.276,10.0868,2.8012,1.9273,0.5041,-0.3693,-1.7664,-57.45,9.9,9.75,2.964,-2.162,3.462,0.0328,-1.7968,-1.8943,-74.4,-1.95,21.75,0.09,-4.05,-3.38,-0.7712,3.315,-1.585,57.875,24.1875,11.0,337.8125,-75.75,178.3125,0
1776973761.281,10.0868,2.8012,1.9273,0.469,-0.4186,-1.7072,-58.35,10.5,11.4,3.055,-2.6983,2.8443,0.0821,-2.0656,-2.0299,-75.45,-2.7,19.5,-0.9,-3.31,-3.92,-0.9654,3.2594,-1.933,54.0,24.5625,17.1875,337.8125,-75.75,178.3125,0
1776973761.286,9.6893,2.3391,1.9872,0.469,-0.4186,-1.7072,-58.35,10.5,11.4,3.055,-2.6983,2.8443,0.0821,-2.0656,-2.0299,-75.45,-2.7,19.5,-0.9,-3.31,-3.92,-0.9654,3.2594,-1.933,54.0,24.5625,17.1875,338.4375,-73.875,174.5625,0
1776973761.291,9.1482,2.047,2.4924,0.6869,-0.1876,-1.6129,-58.35,10.5,11.4,3.146,-3.4907,2.8683,0.3802,-1.9145,-2.1647,-73.95,-0.3,19.2,-3.8,-2.3,-4.97,-0.9785,3.2714,-2.3049,54.0,24.5625,17.1875,338.4375,-73.875,174.5625,0
1776973761.299,9.1482,2.047,2.4924,0.6869,-0.1876,-1.6129,-55.65,11.4,11.85,4.0414,-3.6224,4.2665,0.8295,-1.9103,-2.31,-73.95,-0.3,19.2,-4.2,-2.74,-5.47,-0.8399,3.3914,-2.7064,54.0,24.5625,17.1875,339.375,-71.8125,170.9375,0
1776973761.304,8.5305,1.7406,2.3032,0.845,-0.0999,-1.4909,-55.65,11.4,11.85,4.0414,-3.6224,4.2665,0.8295,-1.9103,-2.31,-73.95,-0.3,19.2,-4.2,-2.74,-5.47,-0.8399,3.3914,-2.7064,54.0,24.5625,17.1875,340.75,-69.5,167.625,0
1776973761.311,7.7788,1.5586,2.0111,0.963,-0.0967,-1.3422,-55.8,11.25,12.0,5.0206,-3.5195,3.9193,1.1141,-2.0328,-2.4816,-74.55,2.4,15.3,-4.61,-2.52,-5.77,-0.6349,3.6205,-3.0347,54.0,24.5625,17.1875,342.4375,-67.0,164.875,0
1776973761.321,7.4699,1.0894,2.0423,1.0421,-0.1593,-1.2007,-55.8,10.5,12.0,5.9711,-3.1939,3.8355,1.311,-2.1941,-2.6313,-74.55,2.4,15.3,-4.54,-2.35,-6.24,-0.4778,3.8757,-3.2049,54.0,24.5625,17.1875,342.4375,-67.0,164.875,0
1776973761.326,7.4699,1.0894,2.0423,1.0421,-0.1593,-1.2007,-55.8,10.5,12.0,5.9711,-3.1939,3.8355,1.311,-2.1941,-2.6313,-74.55,2.4,15.3,-4.54,-2.35,-6.24,-0.4778,3.8757,-3.2049,54.0,24.5625,17.1875,342.4375,-67.0,164.875,0
1776973761.331,7.2233,0.5698,1.6807,1.2372,-0.0759,-1.0632,-55.5,12.3,10.65,6.7229,-3.158,4.1827,1.4258,-2.2812,-2.7584,-76.05,6.75,14.55,-5.01,-2.44,-6.54,-0.3207,4.0917,-3.279,52.0,26.5625,26.5625,344.4375,-64.3125,162.5625,0
1776973761.336,7.2233,0.5698,1.6807,1.2372,-0.0759,-1.0632,-55.5,12.3,10.65,7.4843,-3.4788,3.9959,1.4258,-2.2812,-2.7584,-76.05,6.75,14.55,-5.01,-2.44,-6.54,-0.3207,4.0917,-3.279,52.0,26.5625,26.5625,344.4375,-64.3125,162.5625,0
1776973761.341,7.0844,0.4573,1.5706,1.4368,-0.0168,-0.9084,-55.2,12.75,12.0,7.4843,-3.4788,3.9959,1.2822,-2.395,-2.9122,-76.65,8.55,12.45,-5.43,-2.59,-6.92,-0.1909,4.2444,-3.2638,52.0,26.5625,26.5625,346.6875,-61.5,160.75,0
1776973761.346,7.0844,0.4573,1.5706,1.4368,-0.0168,-0.9084,-55.2,12.75,12.0,7.9224,-4.0893,3.541,1.2822,-2.395,-2.9122,-76.65,8.55,12.45,-5.43,-2.59,-6.92,-0.0949,4.3655,-3.1536,52.0,26.5625,26.5625,349.125,-58.625,159.375,0
1776973761.352,6.936,0.2705,1.5227,1.7464,0.1569,-0.7757,-55.2,12.75,12.0,7.9224,-4.0893,3.541,1.0531,-2.5556,-3.051,-76.2,9.0,11.85,-6.86,-2.31,-7.76,-0.0949,4.3655,-3.1536,52.0,26.5625,26.5625,351.75,-55.6875,158.375,0
1776973761.361,6.9935,-0.0646,1.5012,1.8666,0.178,-0.6552,-54.45,12.3,12.0,7.9918,-4.1587,3.6679,0.8074,-2.6867,-3.2133,-76.2,10.5,10.35,-6.91,-1.96,-7.71,0.0055,4.5019,-2.966,52.0,26.5625,26.5625,354.625,-52.75,157.75,0
1776973761.371,7.1084,-0.5291,1.1779,1.9502,0.2246,-0.5361,-53.7,12.75,10.65,8.6287,-4.4173,3.3567,0.6118,-2.7888,-3.3723,-75.3,11.4,8.7,-6.67,-1.38,-7.61,0.1505,4.6851,-2.7009,52.0,26.5625,26.5625,354.625,-52.75,157.75,0
1776973761.376,7.1084,-0.5291,1.1779,1.9502,0.2246,-0.5361,-53.7,12.75,10.65,9.0549,-5.0518,3.0789,0.6137,-2.9268,-3.4336,-75.3,11.4,8.7,-6.67,-1.38,-7.61,0.1505,4.6851,-2.7009,47.0625,36.25,45.75,357.8125,-49.8125,157.3125,0
1776973761.381,6.6631,-0.644,1.0151,1.8967,0.1284,-0.3821,-54.45,10.05,8.1,9.0549,-5.0518,3.0789,0.6137,-2.9268,-3.4336,-75.6,15.0,7.2,-6.7,-1.03,-7.93,0.3556,4.7833,-2.3616,47.0625,36.25,45.75,357.8125,-49.8125,157.3125,0
1776973761.386,6.6631,-0.644,1.0151,1.8967,0.1284,-0.3821,-54.45,10.05,8.1,9.5505,-4.8602,2.1763,0.7338,-2.9199,-3.3747,-75.6,15.0,7.2,-6.7,-1.03,-7.93,0.3556,4.7833,-2.3616,47.0625,36.25,45.75,357.8125,-49.8125,157.3125,0
1776973761.391,7.4723,-0.8978,0.3926,1.8775,0.1053,-0.2713,-53.1,10.2,9.0,9.5505,-4.8602,2.1763,0.7338,-2.9199,-3.3747,-75.6,15.0,7.2,-7.59,-2.05,-8.65,0.6218,4.7178,-1.9482,47.0625,36.25,45.75,1.3125,-46.9375,156.9375,0
1776973761.399,7.3454,-1.2881,-0.1149,1.8157,-0.0365,-0.1812,-53.1,10.2,9.0,10.1969,-5.0111,2.308,0.555,-2.9282,-3.3313,-73.8,16.95,4.5,-8.04,-2.77,-8.98,0.8672,4.5128,-1.4977,47.0625,36.25,45.75,5.0,-44.3125,156.6875,0
1776973761.404,7.3454,-1.2881,-0.1149,1.8157,-0.0365,-0.1812,-53.1,10.2,9.0,10.3932,-5.5761,3.1173,0.0645,-3.0118,-3.3849,-73.8,16.95,4.5,-8.04,-2.77,-8.98,0.8672,4.5128,-1.4977,47.0625,36.25,45.75,8.8125,-41.9375,156.5,0
1776973761.412,7.5106,-1.3671,-0.656,1.5609,-0.1887,-0.1122,-52.05,9.15,7.2,10.3932,-5.5761,3.1173,0.0645,-3.0118,-3.3849,-72.3,18.45,2.7,-8.67,-3.62,-9.69,0.9905,4.2531,-1.1017,47.0625,36.25,45.75,12.6875,-39.6875,156.3125,0
1776973761.421,7.434,-1.6424,-1.1301,1.3752,-0.21,-0.0919,-53.4,8.55,7.05,8.2504,-6.3446,4.391,-0.5652,-2.8096,-3.4582,-70.5,18.75,2.55,-10.58,-4.64,-11.6,1.0276,4.0143,-0.8388,47.0625,36.25,45.75,12.6875,-39.6875,156.3125,0
1776973761.426,7.434,-1.6424,-1.1301,1.0219,-0.3168,-0.0538,-53.4,8.55,7.05,9.7923,-5.8203,4.8315,-1.0893,-2.7955,-3.4579,-70.5,18.75,2.55,-10.58,-4.64,-11.6,1.0276,4.0143,-0.8388,47.0625,36.25,45.75,321.375,-37.5,156.125,0
1776973761.431,7.1778,-1.2737,-1.4222,1.0219,-0.3168,-0.0538,-50.55,7.65,7.65,9.7923,-5.8203,4.8315,-1.0893,-2.7955,-3.4579,-70.95,21.45,2.55,-11.09,-4.85,-12.05,1.0974,3.9674,-0.7985,13.0,43.875,63.0625,321.375,-37.5,156.125,0
1776973761.436,6.7205,-0.6536,-1.5323,0.6448,-0.3115,0.0274,-51.0,6.9,6.45,10.6039,-4.8698,4.3838,-1.5039,-2.8493,-3.4848,-70.95,21.45,2.55,-11.09,-4.85,-12.05,1.0974,3.9674,-0.7985,13.0,43.875,63.0625,321.5625,-35.3125,155.875,0
1776973761.441,6.7205,-0.6536,-1.5323,0.6448,-0.3115,0.0274,-51.0,6.9,6.45,10.3549,-3.9002,3.2202,-1.5039,-2.8493,-3.4848,-70.2,22.95,-0.6,-11.01,-4.75,-11.93,1.0974,3.9674,-0.7985,13.0,43.875,63.0625,321.5625,-35.3125,155.875,0
1776973761.446,6.8977,-0.3065,-1.7502,0.2388,-0.2643,0.0655,-51.0,6.9,6.45,10.3549,-3.9002,3.2202,-1.6342,-2.7089,-3.5333,-70.2,22.95,-0.6,-11.01,-4.75,-11.93,1.2152,4.1081,-0.8912,13.0,43.875,63.0625,321.75,-33.0625,155.5,0
1776973761.452,6.8977,-0.3065,-1.7502,0.2388,-0.2643,0.0655,-51.0,6.9,6.45,10.3621,-2.6767,2.3032,-1.4623,-2.6732,-3.5903,-68.4,22.8,0.45,-10.45,-4.74,-10.86,1.2152,4.1081,-0.8912,13.0,43.875,63.0625,321.9375,-30.6875,155.0625,0
1776973761.461,7.1084,-0.0048,-1.7358,-0.142,-0.2982,0.114,-51.0,6.9,6.45,9.153,-1.8842,2.3655,-1.4623,-2.6732,-3.5903,-68.4,22.8,0.45,-10.97,-5.37,-9.87,1.3941,4.2095,-0.9425,13.0,43.875,63.0625,321.9375,-30.6875,155.0625,0
1776973761.471,7.1491,0.4621,-1.5897,-0.5812,-0.3523,0.1687,-52.95,7.05,4.5,8.5281,-1.2857,2.5139,-0.9244,-2.3883,-3.6553,-65.25,25.05,-0.6,-9.25,-5.82,-10.5,1.5621,4.251,-0.9239,13.0,43.875,63.0625,322.125,-28.375,154.5,0
1776973761.476,7.3382,0.7781,-1.3479,-0.9894,-0.3408,0.1972,-51.45,5.55,6.3,8.5281,-1.2857,2.5139,-0.9244,-2.3883,-3.6553,-65.25,25.05,-0.6,-9.25,-5.82,-10.5,1.5621,4.251,-0.9239,13.0,43.875,63.0625,322.125,-28.375,154.5,0
1776973761.481,7.3382,0.7781,-1.3479,-0.9894,-0.3408,0.1972,-51.45,5.55,6.3,9.6702,-1.2689,3.2513,-0.8489,-2.4424,-3.6058,-65.25,25.05,-0.6,-12.4,-5.63,-11.57,1.6864,4.0383,-1.0123,-17.375,38.375,37.6875,322.3125,-26.0625,153.8125,0
1776973761.486,7.5058,1.1109,-1.245,-1.3507,-0.1775,0.2028,-53.7,7.05,7.05,9.6702,-1.2689,3.2513,-0.8489,-2.4424,-3.6058,-65.25,25.05,-0.6,-12.4,-5.63,-11.57,1.6864,4.0383,-1.0123,-17.375,38.375,37.6875,322.3125,-26.0625,153.8125,0
1776973761.491,7.5058,1.1109,-1.245,-1.3507,-0.1775,0.2028,-53.7,7.05,7.05,10.1873,-1.6209,3.0574,-0.9121,-2.4051,-3.5088,-63.0,26.1,-2.55,-10.69,-5.17,-11.12,1.8391,4.2324,-1.2708,-17.375,38.375,37.6875,322.375,-23.6875,153.0,0
1776973761.499,7.7189,1.7957,-1.0534,-1.6518,-0.1647,0.2137,-53.7,9.0,8.1,10.1873,-1.6209,3.0574,-0.9121,-2.4051,-3.5088,-63.0,26.1,-2.55,-10.26,-4.94,-11.06,1.886,4.1081,-1.4901,-17.375,38.375,37.6875,322.25,-21.25,152.0625,0
1776973761.503,7.7189,1.7957,-1.0534,-1.9369,-0.0717,0.2846,-53.7,9.0,8.1,10.5752,-1.5754,2.885,-1.0821,-2.2428,-3.403,-62.55,26.55,-1.35,-10.26,-4.94,-11.06,1.886,4.1081,-1.4901,-17.375,38.375,37.6875,322.125,-18.875,151.0625,0
1776973761.512,7.6878,2.2793,-0.8787,-1.9369,-0.0717,0.2846,-53.7,9.0,8.1,10.8386,-1.2091,2.9712,-1.2052,-2.1938,-3.2988,-61.2,29.1,-3.0,-10.1,-4.67,-11.09,1.934,4.0295,-1.645,-17.375,38.375,37.6875,321.875,-16.5,150.125,0
1776973761.522,7.9272,3.2777,-1.1588,-2.0062,-0.1372,0.3176,-54.3,10.95,10.5,10.6374,-0.7949,2.3511,-1.339,-2.185,-3.2037,-60.3,30.45,-2.55,-10.21,-3.91,-10.94,1.9002,3.9335,-1.7159,-17.375,38.375,37.6875,321.875,-16.5,150.125,0
1776973761.526,8.1594,4.5298,-1.324,-2.0051,-0.0914,0.3075,-54.75,10.5,10.65,10.6374,-0.7949,2.3511,-1.339,-2.185,-3.2037,-60.3,30.45,-2.55,-10.21,-3.91,-10.94,1.9002,3.9335,-1.7159,-17.375,38.375,37.6875,321.625,-14.1875,149.125,0
1776973761.532,8.1594,4.5298,-1.324,-2.0051,-0.0914,0.3075,-54.75,10.5,10.65,10.2161,-0.4166,2.0925,-1.3678,-2.1783,-3.1205,-60.3,30.45,-2.55,-10.62,-3.43,-10.72,1.8555,3.8081,-1.6973,-8.0625,31.5,18.5,321.625,-14.1875,149.125,0
1776973761.536,8.4635,5.9759,-1.8914,-1.9265,0.0365,0.2713,-55.65,13.95,9.75,10.2161,-0.4166,2.0925,-1.3678,-2.1783,-3.1205,-60.3,30.45,-2.55,-10.62,-3.43,-10.72,1.8555,3.8081,-1.6973,-8.0625,31.5,18.5,321.4375,-12.0,148.1875,0
1776973761.541,8.4635,5.9759,-1.8914,-1.9265,0.0365,0.2713,-55.65,13.95,9.75,9.8665,-0.0838,1.7454,-1.3022,-2.0552,-2.9825,-58.65,31.05,-2.7,-10.92,-2.8,-10.33,1.8173,3.7023,-1.6133,-8.0625,31.5,18.5,321.4375,-12.0,148.1875,0
1776973761.546,8.497,7.3526,-2.1955,-1.6241,0.0818,0.2502,-54.45,11.55,11.7,9.8665,-0.0838,1.7454,-1.3022,-2.0552,-2.9825,-58.65,31.05,-2.7,-10.92,-2.8,-10.33,1.7781,3.5856,-1.4813,-8.0625,31.5,18.5,321.3125,-9.875,147.3125,0
1776973761.552,9.0932,8.4108,-2.2841,-1.5457,0.1839,0.2526,-54.45,11.55,11.7,9.5385,0.079,1.2306,-1.2505,-1.9025,-2.7837,-58.65,31.05,-2.7,-11.2,-2.18,-9.77,1.7781,3.5856,-1.4813,-8.0625,31.5,18.5,321.25,-7.875,146.375,0
1776973761.562,9.0932,8.4108,-2.2841,-1.6225,0.1258,0.2686,-54.45,11.55,11.7,9.3541,0.1556,1.0247,-1.178,-1.7171,-2.5426,-56.85,34.8,-4.8,-11.86,-1.11,-8.12,1.7388,3.4339,-1.3003,-8.0625,31.5,18.5,321.25,-6.0625,145.5,0
1776973761.572,9.4499,8.5281,-1.7358,-1.4661,0.2968,0.2718,-56.1,11.4,15.75,9.1004,0.2825,0.6752,-1.1564,-1.4909,-2.2559,-57.0,34.5,-5.7,-12.46,-0.53,-7.08,1.7039,3.231,-1.093,-8.0625,31.5,18.5,321.25,-6.0625,145.5,0
1776973761.576,9.4499,8.5281,-1.7358,-1.4661,0.2968,0.2718,-54.75,13.05,14.55,9.0166,0.1365,0.747,-1.1564,-1.4909,-2.2559,-57.0,34.5,-5.7,-12.46,-0.53,-7.08,1.7039,3.231,-1.093,-8.0625,31.5,18.5,321.3125,-4.4375,144.625,0
1776973761.582,9.8785,8.5377,-1.6903,-1.1221,0.3174,0.3992,-54.75,13.05,14.55,9.0166,0.1365,0.747,-1.2377,-1.2676,-1.9444,-56.55,35.55,-4.8,-13.1,0.04,-6.04,1.645,2.9518,-0.865,-1.25,31.5,21.1875,321.3125,-4.4375,144.625,0
1776973761.586,9.8785,8.5377,-1.6903,-1.1221,0.3174,0.3992,-54.75,11.25,17.4,8.5545,-0.3017,0.9002,-1.2484,-0.9952,-1.5668,-56.55,35.55,-4.8,-13.1,0.04,-6.04,1.645,2.9518,-0.865,-1.25,31.5,21.1875,321.4375,-3.0625,143.8125,0
1776973761.592,9.8904,8.6622,-1.5826,-0.7554,0.2745,0.3629,-54.75,11.25,17.4,8.5545,-0.3017,0.9002,-1.2484,-0.9952,-1.5668,-56.1,36.3,-4.8,-15.56,1.56,-4.52,1.5653,2.606,-0.6327,-1.25,31.5,21.1875,321.4375,-3.0625,143.8125,0
1776973761.601,9.1435,8.8633,-1.8986,-0.4429,0.3048,0.2374,-55.65,10.95,17.85,7.7716,-0.5387,0.7973,-1.2079,-0.6893,-1.1237,-55.05,35.1,-4.8,-17.08,2.49,-3.5,1.4672,2.27,-0.42,-1.25,31.5,21.1875,321.625,-1.9375,143.0625,0
1776973761.609,9.1435,8.8633,-1.8986,-0.4429,0.3048,0.2374,-56.25,10.05,18.15,6.7325,-0.6776,0.3735,-1.1596,-0.304,-0.6185,-55.05,35.1,-4.8,-18.04,3.36,-2.09,1.3199,1.9428,-0.2073,-1.25,31.5,21.1875,321.9375,-1.0,142.3125,0
1776973761.614,9.5816,9.3254,-2.4349,-0.0653,0.3968,0.1143,-56.25,10.05,18.15,6.2345,-0.4956,0.3903,-1.1596,-0.304,-0.6185,-55.95,34.95,-4.95,-18.04,3.36,-2.09,1.3199,1.9428,-0.2073,-1.25,31.5,21.1875,322.25,-0.3125,141.6875,0
1776973761.622,9.924,9.6295,-3.5626,0.2928,0.3453,0.2057,-56.25,10.05,18.15,6.2345,-0.4956,0.3903,-1.0651,0.113,-0.0855,-55.95,34.95,-4.95,-19.24,4.88,0.49,1.1323,1.5326,0.0425,-1.25,31.5,21.1875,322.25,-0.3125,141.6875,0
1776973761.627,9.924,9.6295,-3.5626,0.2928,0.3453,0.2057,-56.4,10.65,21.15,6.3446,-0.0646,1.0463,-0.9334,0.5092,0.4229,-55.95,34.95,-4.95,-19.24,4.88,0.49,1.1323,1.5326,0.0425,-1.25,31.5,21.1875,322.625,0.0,141.1875,0
1776973761.632,9.2105,10.1801,-4.0414,0.5899,0.372,0.2814,-56.4,10.65,21.15,6.3446,-0.0646,1.0463,-0.9334,0.5092,0.4229,-55.95,36.15,-4.2,-19.37,5.15,1.06,0.9348,0.9774,0.3371,-2.6875,35.0625,24.5,322.625,0.0,141.1875,0
1776973761.637,9.2105,10.1801,-4.0414,0.5899,0.372,0.2814,-56.4,9.45,20.7,6.6942,-0.4046,1.4437,-0.6752,0.8364,0.8593,-55.95,36.15,-4.2,-19.37,5.15,1.06,0.9348,0.9774,0.3371,-2.6875,35.0625,24.5,322.625,0.0,141.1875,0
1776973761.642,8.9902,8.9735,-3.3782,0.8319,0.3357,0.3371,-56.4,9.45,20.7,6.6942,-0.4046,1.4437,-0.6752,0.8364,0.8593,-56.1,36.0,-4.05,-19.0,4.59,1.01,0.7134,0.3174,0.6327,-2.6875,35.0625,24.5,323.0,-0.125,140.75,0
1776973761.649,8.9902,8.9735,-3.3782,0.8226,0.3579,0.4796,-56.25,10.05,22.05,7.8697,0.407,3.5482,-0.1234,1.2132,1.1423,-56.1,36.0,-4.05,-18.33,3.01,0.35,0.0436,-0.3502,0.6981,-2.6875,35.0625,24.5,323.375,-0.5,140.75,0
1776973761.654,9.0094,7.1132,-1.9369,0.8226,0.3579,0.4796,-56.55,8.55,21.3,11.3701,4.1468,1.2953,0.1801,1.2958,1.1855,-56.55,32.4,-2.55,-18.33,3.01,0.35,0.0436,-0.3502,0.6981,-2.6875,35.0625,24.5,323.375,-1.75,142.5625,0
1776973761.662,7.8506,5.0781,-0.1197,0.5071,1.5071,0.6648,-56.55,8.55,21.3,11.3701,4.1468,1.2953,0.1801,1.2958,1.1855,-56.55,34.05,-0.3,2.64,-3.84,-7.36,-3.3227,-2.1413,0.8781,-2.6875,35.0625,24.5,323.6875,-3.4375,144.8125,0
1776973761.672,9.8689,3.4477,0.6153,-0.0935,1.092,0.8617,-56.55,8.55,21.3,13.6996,7.3741,-4.0773,-0.3997,0.8191,0.9174,-55.8,31.65,-0.6,-4.43,-1.5,-12.74,-4.0044,-2.6671,1.5392,-2.6875,35.0625,24.5,323.6875,-3.4375,144.8125,0
1776973761.677,9.8689,3.4477,0.6153,-0.0935,1.092,0.8617,-56.1,8.7,20.7,13.1921,9.4954,-6.1028,-0.526,0.393,0.291,-55.8,31.65,-0.6,-4.43,-1.5,-12.74,-4.0044,-2.6671,1.5392,-2.6875,35.0625,24.5,323.8125,-4.6875,146.5,0
1776973761.682,8.3175,2.4493,1.415,-0.5529,0.6987,0.931,-56.1,8.7,20.7,9.991,7.3646,-4.4963,-0.526,0.393,0.291,-55.8,31.95,0.6,1.38,-13.77,-11.22,-3.1143,-2.1108,0.9174,-3.5625,36.5,23.375,323.8125,-4.6875,146.5,0
1776973761.687,8.3175,2.4493,1.415,-0.5529,0.6987,0.931,-56.4,6.9,21.45,9.991,7.3646,-4.4963,0.841,0.1154,-0.0341,-55.8,31.95,0.6,1.38,-13.77,-11.22,-3.1143,-2.1108,0.9174,-3.5625,36.5,23.375,324.375,-6.125,148.125,0
1776973761.692,8.078,2.1476,0.7446,-0.7674,0.5143,0.9459,-56.4,6.9,21.45,7.3382,1.5323,-4.1851,0.841,0.1154,-0.0341,-55.8,31.95,0.6,0.32,-0.48,-4.19,-2.9038,-1.9537,1.7791,-3.5625,36.5,23.375,324.375,-6.125,148.125,0
1776973761.7,9.1387,3.1364,-0.6943,-0.1063,0.6672,1.1642,-59.1,8.25,21.6,7.3382,1.5323,-4.1851,1.9764,0.3555,0.2049,-55.8,31.95,0.6,-3.42,6.56,-8.16,-3.1678,-2.3824,2.0977,-3.5625,36.5,23.375,325.0625,-7.875,149.9375,0
1776973761.705,9.1387,3.1364,-0.6943,-0.1063,0.6672,1.1642,-58.65,9.15,20.7,11.0181,-0.5794,-7.1204,2.3046,0.518,0.578,-55.35,33.15,0.0,-3.42,6.56,-8.16,-3.1678,-2.3824,2.0977,-3.5625,36.5,23.375,325.25,-9.375,151.125,0
1776973761.712,12.0835,3.1651,-2.3798,1.1359,0.8817,1.5716,-59.7,10.2,22.95,14.1737,1.3168,-6.2584,1.5577,0.2934,0.7461,-55.35,33.15,0.0,-3.95,4.27,-11.3,-2.1195,-2.4424,1.1443,-3.5625,36.5,23.375,325.125,-10.6875,151.625,0
1776973761.722,14.6717,2.4229,-4.0247,2.2676,0.692,1.8687,-59.7,10.2,22.95,13.0005,0.8571,-4.8794,0.8583,0.8292,0.8479,-57.0,31.5,-0.15,-1.14,0.83,-10.94,-1.0505,-2.4402,0.5061,-3.5625,36.5,23.375,325.125,-10.6875,151.625,0
1776973761.727,17.1712,1.5347,-4.3814,3.5061,0.7213,1.8868,-59.7,10.2,22.95,13.0005,0.8571,-4.8794,0.8583,0.8292,0.8479,-57.0,31.5,-0.15,-1.14,0.83,-10.94,-1.0505,-2.4402,0.5061,-3.5625,36.5,23.375,325.125,-10.6875,151.625,0
1776973761.732,17.1712,1.5347,-4.3814,3.5061,0.7213,1.8868,-59.55,11.25,22.35,14.5448,-0.8356,-2.794,0.9006,0.6566,0.9395,-57.0,31.5,-0.15,-3.71,7.63,-14.09,-0.7614,-2.8198,0.9207,0.75,34.25,27.1875,325.1875,-12.3125,152.0,0
1776973761.737,18.3731,1.3599,-4.0031,4.0875,0.4157,1.6811,-59.55,11.25,22.35,14.5448,-0.8356,-2.794,0.9006,0.6566,0.9395,-57.9,30.6,-0.15,-3.71,7.63,-14.09,-0.7614,-2.8198,0.9207,0.75,34.25,27.1875,325.1875,-12.3125,152.0,0
1776973761.742,18.3731,1.3599,-4.0031,4.0875,0.4157,1.6811,-60.3,9.0,21.6,13.8122,-2.3583,-0.0024,0.7312,0.8535,1.028,-57.6,30.45,-2.1,-7.58,5.75,-15.88,-0.4941,-3.1132,1.4595,0.75,34.25,27.1875,325.5625,-14.1875,152.25,0
1776973761.747,17.1257,1.1995,-3.0742,3.8205,0.1583,1.2668,-60.3,9.0,21.6,13.8122,-2.3583,-0.0024,0.7312,0.8535,1.028,-57.6,30.45,-2.1,-7.58,5.75,-15.88,-0.3033,-2.9191,1.7486,0.75,34.25,27.1875,326.125,-16.0625,152.4375,0
1776973761.753,17.1257,1.1995,-3.0742,3.8205,0.1583,1.2668,-58.2,7.65,21.9,12.7539,-0.3376,3.7445,0.6427,1.2116,1.0539,-58.05,30.45,-1.35,-9.88,-1.68,-14.32,-0.3033,-2.9191,1.7486,0.75,34.25,27.1875,326.75,-17.8125,152.75,0
1776973761.762,13.9965,0.747,-1.482,2.9711,0.13,0.7488,-57.9,4.65,21.45,11.9159,3.8499,4.3048,0.8948,1.38,1.0312,-58.05,30.45,-1.35,-14.64,-19.13,-10.88,-0.4887,-2.5667,1.7748,0.75,34.25,27.1875,327.1875,-19.0625,153.3125,0
1776973761.772,10.3597,-0.0024,-0.9888,1.6776,0.8242,0.2854,-57.9,4.65,21.45,11.7244,5.0757,1.4174,1.5215,1.1194,1.028,-58.05,30.45,-1.35,-8.61,-9.06,-8.3,-0.8138,-1.7879,1.4301,0.75,34.25,27.1875,327.1875,-19.0625,153.3125,0
1776973761.777,5.2026,-1.1133,0.0646,0.1767,0.756,0.0557,-57.9,4.65,21.45,11.7244,5.0757,1.4174,1.5215,1.1194,1.028,-58.2,30.6,-0.9,-8.61,-9.06,-8.3,-0.8138,-1.7879,1.4301,0.75,34.25,27.1875,327.1875,-19.0625,153.3125,0
1776973761.782,5.2026,-1.1133,0.0646,0.1767,0.756,0.0557,-55.2,-2.55,23.4,10.2879,4.1803,1.798,1.857,0.8298,0.9875,-58.2,30.6,-0.9,-5.45,1.07,-10.9,-0.8923,-1.4792,1.1432,7.5625,32.0625,28.5,327.5625,-20.0625,153.875,0
1776973761.787,6.5697,-3.2082,-1.3886,-1.8684,0.5745,0.17,-55.2,-2.55,23.4,10.2879,4.1803,1.798,1.857,0.8298,0.9875,-58.2,30.6,-0.9,-5.45,1.07,-10.9,-0.8923,-1.4792,1.1432,7.5625,32.0625,28.5,327.5625,-20.0625,153.875,0
1776973761.792,6.5697,-3.2082,-1.3886,-1.8684,0.5745,0.17,-55.8,-3.75,23.85,8.3342,0.7829,3.1053,1.4285,0.6683,0.8362,-58.2,30.6,-0.9,-4.39,-4.19,-8.4,-0.7614,-1.1737,1.0461,7.5625,32.0625,28.5,327.9375,-20.875,154.375,0
1776973761.801,6.8091,-5.8179,3.9121,-2.2508,0.6078,0.0192,-56.1,-2.7,22.95,8.1092,-2.8084,3.316,1.0267,0.7906,0.7733,-58.95,27.9,-2.4,-4.29,-4.88,-8.28,-0.8628,-1.045,0.8923,7.5625,32.0625,28.5,328.1875,-21.625,154.9375,0
1776973761.806,7.4172,-6.1938,7.1874,-1.5655,1.5932,-0.3016,-56.1,-2.7,22.95,8.1092,-2.8084,3.316,1.0267,0.7906,0.7733,-61.5,28.5,-0.3,-4.29,-4.88,-8.28,-0.8628,-1.045,0.8923,7.5625,32.0625,28.5,328.4375,-22.3125,155.5,0
1776973761.813,7.4172,-6.1938,7.1874,-1.5655,1.5932,-0.3016,-59.85,-2.25,22.35,8.77,-3.8571,3.3471,0.5241,0.9361,0.8252,-60.75,27.75,-1.35,-4.99,-2.6,-9.25,-0.8388,-0.9556,0.7789,7.5625,32.0625,28.5,328.625,-22.875,155.9375,0
1776973761.822,5.928,-4.1946,4.6687,-1.2113,1.5532,0.0011,-60.45,0.9,20.4,10.4938,-3.0263,2.4325,-0.0314,0.8601,0.7741,-60.75,27.75,-1.35,-5.19,-4.07,-8.97,-0.7483,-0.8127,0.6861,7.5625,32.0625,28.5,328.625,-22.875,155.9375,0
1776973761.827,6.4428,-2.6887,3.2585,-1.5167,1.1461,0.4647,-60.45,0.9,20.4,9.6486,-1.5754,1.549,-0.3922,0.8298,0.655,-59.7,27.45,-0.9,-5.19,-4.07,-8.97,-0.7483,-0.8127,0.6861,7.5625,32.0625,28.5,328.8125,-23.3125,156.375,0
1776973761.832,6.4428,-2.6887,3.2585,-1.5167,1.1461,0.4647,-60.45,0.9,20.4,9.6486,-1.5754,1.549,-0.3922,0.8298,0.655,-59.7,27.45,-0.9,-5.12,-3.5,-9.17,-0.6698,-0.6785,0.5749,12.6875,30.0,27.6875,328.8125,-23.3125,156.375,0
1776973761.837,8.2073,-2.1117,1.9537,-1.7746,1.0701,0.7213,-60.45,0.9,20.4,10.2592,0.1963,1.2641,-0.3709,0.8601,0.5801,-60.75,26.1,0.6,-5.12,-3.5,-9.17,-0.6698,-0.6785,0.5749,12.6875,30.0,27.6875,328.9375,-23.6875,156.75,0
1776973761.842,8.2073,-2.1117,1.9537,-1.6899,0.8122,0.9643,-63.3,9.45,20.1,10.2592,0.1963,1.2641,-0.3709,0.8601,0.5801,-60.75,26.1,0.6,-5.06,-2.42,-9.63,-0.5814,-0.5389,0.4669,12.6875,30.0,27.6875,328.9375,-23.6875,156.75,0
1776973761.849,9.0309,-2.5881,1.1827,-1.6899,0.8122,0.9643,-63.3,9.45,20.1,10.7907,1.4892,1.3096,-0.3094,0.7309,0.5971,-61.2,27.15,-0.45,-5.02,-2.85,-9.36,-0.4701,-0.4451,0.3643,12.6875,30.0,27.6875,329.0,-24.0,157.0625,0
1776973761.854,10.4627,-3.0119,0.7302,-1.194,0.574,1.1125,-64.35,12.15,19.65,10.7907,1.4892,1.3096,-0.3094,0.7309,0.5971,-61.2,27.15,-0.45,-5.02,-2.85,-9.36,-0.4701,-0.4451,0.3643,12.6875,30.0,27.6875,329.0625,-24.25,157.3125,0
1776973761.862,11.1402,-1.652,1.5993,-0.4983,0.2627,1.145,-66.15,12.9,18.6,10.2687,2.1835,1.8723,-0.2582,0.6057,0.6102,-61.2,27.15,-0.45,-4.93,-2.96,-8.86,-0.4363,-0.3862,0.2727,12.6875,30.0,27.6875,329.125,-24.4375,157.5625,0
1776973761.872,10.9319,0.9529,3.462,0.2534,0.2142,0.9297,-67.5,15.0,18.45,9.6893,2.9329,1.8771,-0.1935,0.5548,0.6211,-61.2,26.4,1.65,-4.57,-2.98,-8.88,-0.3316,-0.2291,0.2051,12.6875,30.0,27.6875,329.125,-24.4375,157.5625,0
1776973761.877,10.9319,0.9529,3.462,0.2534,0.2142,0.9297,-67.5,15.0,18.45,9.3206,3.2848,1.3264,-0.0336,0.5119,0.6358,-62.7,26.7,-0.15,-4.57,-2.98,-8.88,-0.3316,-0.2291,0.2051,12.6875,30.0,27.6875,329.125,-24.4375,157.5625,0
1776973761.882,10.1203,3.0885,4.786,0.2206,0.5494,0.6432,-67.5,15.0,18.45,9.3206,3.2848,1.3264,-0.0336,0.5119,0.6358,-62.7,26.7,-0.15,-4.48,-3.26,-8.64,-0.2694,-0.1636,0.1625,16.0,28.1875,27.25,329.1875,-24.5625,157.6875,0
1776973761.887,10.1203,3.0885,4.786,0.2206,0.5494,0.6432,-67.5,15.0,18.45,9.4547,3.0981,0.8739,0.2286,0.4903,0.6592,-61.5,27.75,-0.6,-4.48,-3.26,-8.64,-0.2694,-0.1636,0.1625,16.0,28.1875,27.25,329.1875,-24.5625,157.6875,0
1776973761.892,9.2799,4.0342,5.4013,0.0309,0.6797,0.5159,-67.35,16.2,15.0,9.4547,3.0981,0.8739,0.2286,0.4903,0.6592,-61.5,27.75,-0.6,-4.4,-3.15,-8.61,-0.2083,-0.1636,0.132,16.0,28.1875,27.25,329.1875,-24.6875,157.875,0
1776973761.901,8.7939,4.4891,4.7836,-0.3227,0.5718,0.4453,-67.8,13.8,15.6,9.3805,2.4014,0.6536,0.4557,0.4695,0.6619,-62.25,27.0,2.1,-4.14,-3.23,-8.49,-0.2029,-0.0818,0.0993,16.0,28.1875,27.25,329.1875,-24.75,158.0,0
1776973761.905,8.7939,4.4891,4.7836,-0.3227,0.5718,0.4453,-67.8,13.8,15.6,9.2225,1.7957,0.7494,0.4836,0.5071,0.636,-62.55,27.3,1.8,-4.14,-3.23,-8.49,-0.2029,-0.0818,0.0993,16.0,28.1875,27.25,329.25,-24.8125,158.0625,0
1776973761.913,8.9519,4.3934,3.5985,-0.7757,0.6763,0.4114,-68.7,15.9,17.55,9.5002,1.4844,0.9553,0.4836,0.5071,0.636,-62.55,27.3,1.8,-4.06,-3.32,-8.38,-0.1876,-0.0578,0.0829,16.0,28.1875,27.25,329.25,-24.8125,158.1875,0
1776973761.923,8.7771,4.1946,2.4421,-1.048,0.8013,0.4223,-68.1,16.95,17.55,9.256,1.3623,0.759,0.0045,0.4916,0.6217,-62.7,25.5,1.65,-4.03,-3.29,-8.32,-0.1756,-0.0513,0.0818,16.0,28.1875,27.25,329.25,-24.8125,158.1875,0
1776973761.927,8.7771,4.1946,2.4421,-1.048,0.8013,0.4223,-68.1,16.95,17.55,9.256,1.3623,0.759,0.0045,0.4916,0.6217,-62.7,25.5,1.65,-4.03,-3.29,-8.32,-0.1756,-0.0513,0.0818,16.25,27.875,28.0625,329.25,-24.875,158.3125,0
1776973761.933,8.9304,3.6895,1.6281,-1.019,0.9206,0.4599,-68.1,16.95,17.55,9.0668,1.5107,0.5076,-0.4056,0.5345,0.6464,-62.7,25.5,1.65,-3.98,-3.42,-8.2,-0.1724,-0.0491,0.0807,16.25,27.875,28.0625,329.25,-24.875,158.3125,0
1776973761.938,8.9304,3.6895,1.6281,-1.019,0.9206,0.4599,-68.1,16.95,17.55,9.0668,1.5107,0.5076,-0.4056,0.5345,0.6464,-63.45,25.5,1.65,-3.98,-3.42,-8.2,-0.1724,-0.0491,0.0807,16.25,27.875,28.0625,329.3125,-24.9375,158.4375,0
1776973761.943,9.256,3.2178,0.7853,-0.7933,1.0405,0.4919,-68.1,16.95,17.55,8.9663,2.071,0.1604,-0.7229,0.5817,0.6891,-63.45,25.5,1.65,-3.91,-3.39,-8.18,-0.1898,-0.048,0.0851,16.25,27.875,28.0625,329.3125,-24.9375,158.4375,0
1776973761.949,9.3039,2.15,-0.0239,-0.5641,1.1024,0.4794,-70.35,19.8,23.4,8.9663,2.071,0.1604,-0.7229,0.5817,0.6891,-63.45,25.5,1.65,-3.84,-3.35,-8.16,-0.204,-0.0567,0.0938,16.25,27.875,28.0625,329.3125,-24.9375,158.5625,0
1776973761.954,9.3039,2.15,-0.0239,-0.5641,1.1024,0.4794,-70.35,19.8,23.4,9.0501,2.8132,-0.2131,-0.9041,0.611,0.7288,-62.7,24.75,1.95,-3.84,-3.35,-8.16,-0.204,-0.0567,0.0938,16.25,27.875,28.0625,329.3125,-25.0,158.6875,0
1776973761.963,9.2105,1.9704,-2.3176,-0.8082,1.1658,0.5031,-71.55,19.5,25.65,8.9567,3.2825,-0.2011,-0.927,0.567,0.7863,-62.7,24.75,1.95,-3.85,-3.28,-8.17,-0.2214,-0.0698,0.1091,16.25,27.875,28.0625,329.375,-25.0625,158.875,0
1776973761.973,9.4786,0.1341,-1.1995,-0.6739,1.4109,0.3022,-71.85,20.55,28.5,9.0932,3.371,-0.1987,-0.8964,0.5809,0.7917,-63.9,23.55,3.0,-3.76,-3.29,-8.14,-0.2487,-0.0753,0.1189,16.25,27.875,28.0625,329.375,-25.0625,158.875,0
1776973761.977,9.4786,0.1341,-1.1995,0.1239,0.9292,0.2617,-71.85,21.75,29.55,9.0932,3.371,-0.1987,-0.8964,0.5809,0.7917,-65.1,23.55,3.0,-3.76,-3.29,-8.14,-0.2487,-0.0753,0.1189,16.25,27.875,28.0625,329.375,-25.125,159.0625,0
1776973761.983,9.675,1.3479,2.2625,0.1239,0.9292,0.2617,-71.85,21.75,29.55,9.2656,3.45,-0.2418,-0.7717,0.5806,0.8084,-65.1,23.55,3.0,-3.82,-3.28,-8.15,-0.2825,-0.1014,0.1385,16.25,27.6875,27.75,329.375,-25.125,159.0625,0
1776973761.987,9.426,2.1165,2.8898,0.1956,0.7213,0.2542,-71.85,21.75,29.55,9.2656,3.45,-0.2418,-0.7717,0.5806,0.8084,-62.55,24.6,3.3,-3.82,-3.28,-8.15,-0.2825,-0.1014,0.1385,16.25,27.6875,27.75,329.4375,-25.25,159.25,0
1776973761.993,9.426,2.1165,2.8898,0.1956,0.7213,0.2542,-71.85,21.75,29.55,9.2368,3.2226,0.1293,-0.5582,0.5846,0.8348,-62.55,24.6,3.3,-3.89,-3.23,-8.21,-0.3174,-0.1244,0.1527,16.25,27.6875,27.75,329.4375,-25.25,159.25,0
1776973761.997,8.916,1.8723,2.2913,0.0091,0.5825,0.2033,-70.05,18.75,35.55,9.2368,3.2226,0.1293,-0.5582,0.5846,0.8348,-64.05,24.15,4.35,-3.89,-3.23,-8.21,-0.3414,-0.1342,0.1625,16.25,27.6875,27.75,329.4375,-25.3125,159.4375,0
1776973762.003,8.916,1.8723,2.2913,0.0091,0.5825,0.2033,-70.05,18.75,35.55,9.0884,2.6336,0.5722,-0.3757,0.6009,0.8519,-64.05,24.15,4.35,-3.78,-3.25,-8.06,-0.3414,-0.1342,0.1625,16.25,27.6875,27.75,329.4375,-25.3125,159.4375,0
1776973762.012,8.7508,1.4102,1.4174,-0.3469,0.518,0.2252,-70.65,15.45,34.95,9.1315,2.0542,0.8164,-0.215,0.5891,0.8468,-64.35,24.45,4.2,-3.84,-3.13,-8.18,-0.3458,-0.1604,0.1789,16.25,27.6875,27.75,329.5,-25.375,159.625,0
1776973762.022,9.335,1.0942,1.5347,-0.6347,0.4951,0.2529,-66.45,13.8,37.05,9.1411,1.3048,1.2953,-0.0813,0.6262,0.8623,-64.35,24.45,4.2,-5.06,-3.33,-8.66,-0.3414,-0.1909,0.1887,16.25,27.6875,27.75,329.5,-25.5625,159.875,0
1776973762.027,9.1698,0.1389,1.5538,-0.9041,0.5257,0.1727,-67.65,12.15,38.25,9.1411,1.3048,1.2953,-0.0813,0.6262,0.8623,-65.1,22.5,3.75,-5.06,-3.33,-8.66,-0.3414,-0.1909,0.1887,16.25,27.6875,27.75,329.5,-25.5625,159.875,0
1776973762.032,9.1698,0.1389,1.5538,-0.9041,0.5257,0.1727,-67.65,12.15,38.25,9.1698,0.8811,1.5275,0.0413,0.6909,0.8844,-65.1,22.5,3.75,-4.85,-2.76,-8.47,-0.336,-0.1342,0.1713,16.25,26.875,28.1875,329.5625,-25.625,160.0625,0
1776973762.037,9.1482,-0.0359,1.6759,-0.9124,0.4994,0.1212,-67.65,12.15,38.25,9.4619,0.7326,1.5897,0.0413,0.6909,0.8844,-65.55,23.4,2.85,-4.85,-2.76,-8.47,-0.336,-0.1342,0.1713,16.25,26.875,28.1875,329.5625,-25.625,160.0625,0
1776973762.042,9.1482,-0.0359,1.6759,-0.9124,0.4994,0.1212,-67.65,12.15,38.25,9.4619,0.7326,1.5897,0.1029,0.7296,0.8884,-65.55,23.4,2.85,-4.11,-2.71,-8.46,-0.312,-0.0447,0.1134,16.25,26.875,28.1875,329.5625,-25.6875,160.25,0
1776973762.047,8.9687,1.1947,1.4772,-1.0888,0.4525,0.2132,-64.95,9.0,34.5,9.6941,0.2993,2.1883,0.1029,0.7296,0.8884,-65.1,22.8,4.95,-4.11,-2.71,-8.46,-0.2956,-0.0436,0.0971,16.25,26.875,28.1875,329.5625,-25.75,160.4375,0
1776973762.053,8.9687,1.1947,1.4772,-1.0888,0.4525,0.2132,-64.95,9.0,34.5,9.6941,0.2993,2.1883,-0.081,0.7408,0.8921,-65.1,22.8,4.95,-4.38,-2.97,-8.48,-0.2956,-0.0436,0.0971,16.25,26.875,28.1875,329.5625,-25.75,160.625,0
1776973762.063,9.0166,1.506,0.6919,-1.3249,0.6662,0.3099,-66.15,8.7,34.35,9.8737,-0.1484,1.9656,-0.3485,0.6944,0.8711,-65.4,21.6,3.75,-3.82,-3.12,-8.14,-0.2825,-0.0316,0.0862,16.25,26.875,28.1875,329.5625,-25.75,160.625,0
1776973762.073,8.837,1.3455,0.4166,-1.2172,0.765,0.3507,-66.9,6.45,33.9,9.6199,-0.3089,1.3168,-0.4541,0.6211,0.8386,-64.8,21.9,4.05,-3.63,-3.45,-8.07,-0.2814,-0.0295,0.0971,16.25,26.875,28.1875,329.625,-25.8125,160.8125,0
1776973762.078,8.9735,1.0223,1.1229,-1.0477,0.8106,0.376,-65.7,7.5,32.4,9.3901,-0.4166,1.2617,-0.4596,0.6579,0.8604,-67.2,21.45,4.35,-3.63,-3.45,-8.07,-0.2814,-0.0295,0.0971,17.375,25.75,27.375,329.625,-25.875,161.0,0
1776973762.083,8.9735,1.0223,1.1229,-1.0477,0.8106,0.376,-65.7,7.5,32.4,9.3901,-0.4166,1.2617,-0.4596,0.6579,0.8604,-67.2,21.45,4.35,-4.23,-3.07,-8.26,-0.3065,-0.0807,0.132,17.375,25.75,27.375,329.625,-25.875,161.0,0
1776973762.088,8.9447,0.6488,1.968,-0.8756,0.7754,0.3984,-66.9,8.4,31.8,9.6774,-0.1844,1.1803,-0.5412,0.6275,0.8759,-67.2,21.45,4.35,-4.23,-3.07,-8.26,-0.3065,-0.0807,0.132,17.375,25.75,27.375,329.625,-25.9375,161.1875,0
1776973762.093,8.9447,0.6488,1.968,-0.8756,0.7754,0.3984,-66.9,8.4,31.8,9.6774,-0.1844,1.1803,-0.5412,0.6275,0.8759,-67.2,21.45,4.35,-4.39,-2.72,-8.49,-0.3218,-0.0796,0.1287,17.375,25.75,27.375,329.625,-25.9375,161.1875,0
1776973762.102,9.0333,0.4549,2.5738,-0.7085,0.6912,0.4343,-66.9,8.4,31.8,9.6534,0.5674,1.0391,-0.6368,0.5886,0.8612,-68.4,20.85,4.2,-4.29,-2.8,-8.46,-0.3022,-0.0633,0.108,17.375,25.75,27.375,329.6875,-26.0,161.4375,0
1776973762.112,8.983,0.6369,2.8252,-0.5817,0.6174,0.4477,-66.0,7.8,31.35,9.3925,1.2785,0.7542,-0.5572,0.5878,0.845,-68.4,20.85,4.2,-4.36,-2.65,-8.6,-0.2749,-0.0589,0.0971,17.375,25.75,27.375,329.6875,-26.0,161.5625,0
1776973762.122,8.8945,0.6081,3.1125,-0.5473,0.5156,0.4652,-66.45,6.75,31.65,9.4044,1.8747,0.7661,-0.364,0.6003,0.8263,-67.35,18.15,6.0,-4.33,-2.54,-8.57,-0.24,-0.0644,0.0807,17.375,25.75,27.375,329.6875,-26.0625,161.75,0
1776973762.126,8.8633,0.6943,3.213,-0.5617,0.4612,0.4914,-68.25,7.05,31.35,9.4403,1.8579,1.0223,-0.198,0.5886,0.8212,-67.95,18.0,6.6,-4.33,-2.54,-8.57,-0.24,-0.0644,0.0807,17.375,25.75,27.375,329.6875,-26.0625,161.75,0
1776973762.131,8.8633,0.6943,3.213,-0.5617,0.4612,0.4914,-68.25,7.05,31.35,9.4403,1.8579,1.0223,-0.198,0.5886,0.8212,-67.95,18.0,6.6,-4.08,-2.87,-8.37,-0.216,-0.0633,0.0731,17.375,25.75,27.875,329.6875,-26.125,161.875,0
1776973762.136,8.7532,1.0104,2.8635,-0.5825,0.4868,0.5095,-67.2,6.0,31.95,9.1578,1.5634,1.4892,-0.0501,0.591,0.8079,-67.65,18.15,6.0,-4.08,-2.87,-8.37,-0.216,-0.0633,0.0731,17.375,25.75,27.875,329.6875,-26.125,161.875,0
1776973762.141,8.7532,1.0104,2.8635,-0.5825,0.4868,0.5095,-67.2,6.0,31.95,9.1578,1.5634,1.4892,-0.0501,0.591,0.8079,-67.65,18.15,6.0,-4.1,-2.89,-8.34,-0.1942,-0.0687,0.0807,17.375,25.75,27.875,329.6875,-26.1875,162.0,0
1776973762.146,8.8657,1.3719,2.3679,-0.5809,0.5329,0.5143,-67.2,6.0,31.95,9.3925,0.9194,1.8148,-0.0053,0.6014,0.8098,-67.65,18.15,6.0,-4.1,-2.89,-8.34,-0.1942,-0.0687,0.0807,17.375,25.75,27.875,329.75,-26.1875,162.125,0
1776973762.153,9.1961,1.7693,1.7765,-0.5974,0.6262,0.5161,-67.2,6.0,31.95,9.4523,0.2634,2.0806,-0.0053,0.6014,0.8098,-67.95,18.75,6.6,-4.08,-3.07,-8.26,-0.2203,-0.0698,0.0993,17.375,25.75,27.875,329.75,-26.1875,162.125,0
1776973762.161,9.1961,1.7693,1.7765,-0.607,0.6515,0.5175,-67.2,5.25,32.4,9.4523,0.2634,2.0806,-0.0799,0.5766,0.8047,-67.95,18.75,6.6,-4.26,-2.87,-8.37,-0.2127,-0.0927,0.1222,17.375,25.75,27.875,329.75,-26.25,162.25,0
1776973762.166,9.2416,1.8794,1.3455,-0.607,0.6515,0.5175,-66.45,5.55,32.7,9.2967,-0.0287,1.5275,-0.1764,0.6267,0.837,-67.95,18.75,6.6,-4.26,-2.87,-8.37,-0.2127,-0.0927,0.1222,17.375,25.75,27.875,329.8125,-26.375,162.375,0
1776973762.173,9.4284,2.1404,1.0511,-0.619,0.6456,0.5116,-66.45,5.55,32.7,9.7468,0.6201,1.0774,-0.3643,0.6742,0.8817,-67.65,18.15,7.2,-4.33,-2.72,-8.47,-0.2149,-0.0982,0.132,17.375,25.75,27.875,329.8125,-26.375,162.375,0
1776973762.178,9.4284,2.1404,1.0511,-0.619,0.6456,0.5116,-66.6,4.95,32.85,9.7468,0.6201,1.0774,-0.3643,0.6742,0.8817,-67.65,18.15,7.2,-4.33,-2.72,-8.47,-0.2149,-0.0982,0.132,17.375,25.75,27.875,329.8125,-26.4375,162.5,0
1776973762.183,9.4547,2.5211,0.7805,-0.5971,0.5548,0.4628,-66.6,4.95,32.85,9.3302,1.9178,0.3328,-0.55,0.6648,0.9097,-67.65,18.15,7.2,-4.32,-2.77,-8.37,-0.2116,-0.0916,0.1276,17.375,25.375,27.0625,329.8125,-26.4375,162.5,0
1776973762.188,9.4547,2.5211,0.7805,-0.5971,0.5548,0.4628,-67.35,4.2,31.8,9.3302,1.9178,0.3328,-0.55,0.6648,0.9097,-69.15,17.7,7.95,-4.32,-2.77,-8.37,-0.2116,-0.0916,0.1276,17.375,25.375,27.0625,329.8125,-26.4375,162.5,0
1776973762.193,9.1674,2.8778,0.7518,-0.6011,0.5774,0.3914,-67.65,2.7,36.75,9.0501,2.8683,-0.1269,-0.6043,0.7181,0.9534,-69.15,17.7,7.95,-4.03,-2.94,-8.42,-0.204,-0.0916,0.132,17.375,25.375,27.0625,329.875,-26.5,162.625,0
1776973762.198,9.1674,2.8778,0.7518,-0.6011,0.5774,0.3914,-67.65,2.7,36.75,9.0501,2.8683,-0.1269,-0.6043,0.7181,0.9534,-69.15,17.7,8.7,-4.03,-2.94,-8.42,-0.2094,-0.1004,0.1527,17.375,25.375,27.0625,329.875,-26.5,162.75,0
1776973762.204,9.2656,3.3279,0.3567,-0.5556,0.5431,0.32,-67.65,2.7,36.75,9.153,3.1987,0.0575,-0.5868,0.7512,1.0152,-69.15,17.7,8.7,-4.08,-2.88,-8.41,-0.2094,-0.1004,0.1527,17.375,25.375,27.0625,329.875,-26.5,162.75,0
1776973762.213,9.2703,3.6895,0.0503,-0.6265,0.5121,0.2555,-67.65,2.7,36.75,9.244,3.0454,0.2394,-0.6131,0.7933,1.1159,-68.85,16.95,8.7,-4.08,-2.81,-8.43,-0.1996,-0.1178,0.168,17.375,25.375,27.0625,329.9375,-26.625,162.875,0
1776973762.218,9.2703,3.6895,0.0503,-0.6265,0.5121,0.2555,-68.4,2.7,34.65,9.244,3.0454,0.2394,-0.6131,0.7933,1.1159,-69.45,15.6,8.4,-4.08,-2.81,-8.43,-0.1931,-0.1396,0.18,17.375,25.375,27.0625,330.0,-26.6875,163.0625,0
1776973762.224,8.837,3.7876,0.6177,-0.6177,0.4863,0.182,-68.4,3.15,36.15,9.2536,2.4373,0.723,-0.5319,0.8455,1.2167,-69.45,15.6,8.4,-4.11,-2.74,-8.64,-0.1931,-0.1396,0.18,17.375,25.375,27.0625,330.0,-26.6875,163.0625,0
1776973762.229,8.837,3.7876,0.6177,-0.6177,0.4863,0.182,-68.4,3.15,36.15,9.2536,2.4373,0.723,-0.5319,0.8455,1.2167,-69.45,15.9,10.35,-4.11,-2.74,-8.64,-0.18,-0.1713,0.1767,17.75,25.75,28.6875,330.0625,-26.8125,163.1875,0
1776973762.234,8.8202,3.6009,1.2378,-0.8132,0.4431,0.1146,-67.8,0.75,36.6,9.7755,1.6209,1.1301,-0.6187,0.8649,1.3065,-69.45,15.9,10.35,-4.75,-1.79,-8.91,-0.18,-0.1713,0.1767,17.75,25.75,28.6875,330.0625,-26.8125,163.1875,0
1776973762.239,8.8202,3.6009,1.2378,-1.0448,0.3571,0.0679,-67.8,0.75,36.6,9.7755,1.6209,1.1301,-0.6187,0.8649,1.3065,-70.05,15.45,9.3,-4.75,-1.79,-8.91,-0.18,-0.1713,0.1767,17.75,25.75,28.6875,330.125,-26.875,163.3125,0
1776973762.244,9.1411,3.4788,2.1141,-1.0448,0.3571,0.0679,-65.85,0.15,37.2,9.6845,1.0846,1.3216,-0.5937,0.8945,1.368,-70.05,15.45,9.3,-4.34,-2.54,-8.72,-0.1767,-0.1527,0.1385,17.75,25.75,28.6875,330.125,-26.875,163.3125,0
1776973762.253,8.7269,2.9975,3.1364,-1.2705,0.2835,0.0336,-65.85,0.15,37.2,9.9814,0.7063,2.2362,-0.559,0.9334,1.4178,-70.05,15.45,9.3,-4.26,-2.69,-8.68,-0.1516,-0.1222,0.1156,17.75,25.75,28.6875,330.125,-27.0,163.375,0
1776973762.262,8.8011,2.4541,3.3662,-1.5407,0.2433,0.0429,-65.85,0.15,37.2,10.0413,0.4166,2.4349,-0.4972,0.9486,1.4909,-69.45,12.9,11.4,-4.23,-2.31,-9.11,-0.1134,-0.0829,0.1178,17.75,25.75,28.6875,330.1875,-27.0625,163.5,0
1776973762.27,8.8202,1.9225,3.6751,-1.6822,0.0767,0.1058,-67.35,2.4,36.75,10.2759,0.0814,2.3774,-0.4663,0.9633,1.5692,-69.45,11.25,11.4,-4.43,-2.26,-9.1,-0.048,-0.1047,0.1331,17.75,25.75,28.6875,330.25,-27.125,163.5625,0
1776973762.274,8.8202,1.9225,3.6751,-1.6822,0.0767,0.1058,-66.75,3.0,37.35,10.2759,0.0814,2.3774,-0.4663,0.9633,1.5692,-69.45,11.25,11.4,-4.43,-2.26,-9.1,-0.048,-0.1047,0.1331,17.75,25.75,28.6875,330.25,-27.125,163.5625,0
1776973762.279,9.3565,1.3671,4.2569,-1.5751,0.0072,0.1348,-66.75,3.0,37.35,10.2879,0.0144,2.4493,-0.5393,0.9363,1.6252,-70.2,12.0,12.15,-4.09,-2.53,-9.14,0.0469,-0.1309,0.1298,18.1875,25.375,27.875,330.3125,-27.1875,163.5625,0
1776973762.284,9.3565,1.3671,4.2569,-1.5751,0.0072,0.1348,-66.9,1.65,36.15,10.2879,0.0144,2.4493,-0.5393,0.9363,1.6252,-70.2,12.0,12.15,-4.09,-2.53,-9.14,0.0469,-0.1309,0.1298,18.1875,25.375,27.875,330.3125,-27.1875,163.5625,0
1776973762.289,9.809,1.1277,4.7453,-1.2812,0.024,0.1399,-66.9,1.65,36.15,10.6877,-0.9218,1.992,-0.6765,0.9507,1.6577,-70.5,10.5,11.85,-3.77,-2.39,-9.45,0.1036,-0.2062,0.1298,18.1875,25.375,27.875,330.375,-27.3125,163.5,0
1776973762.294,9.809,1.1277,4.7453,-1.2812,0.024,0.1399,-68.1,3.15,34.35,10.6877,-0.9218,1.992,-0.6765,0.9507,1.6577,-70.5,10.5,11.85,-3.77,-2.39,-9.45,0.1036,-0.2062,0.1298,18.1875,25.375,27.875,330.4375,-27.5,163.4375,0
1776973762.303,10.6111,1.2234,4.3838,-0.9297,0.1452,0.0965,-68.1,3.15,35.7,11.3772,-1.5658,1.5371,-0.7504,0.9641,1.7208,-71.1,9.45,12.3,-2.34,-2.89,-10.91,0.1625,-0.2913,0.0938,18.1875,25.375,27.875,330.5,-27.8125,163.25,0
1776973762.313,11.3701,1.3168,3.5985,-0.6019,0.2862,0.0394,-68.1,3.15,35.7,11.7053,-1.154,1.5203,-0.818,0.9694,1.7682,-72.6,8.4,14.55,-4.11,-2.09,-9.9,0.2585,-0.5356,0.132,18.1875,25.375,27.875,330.5,-27.8125,163.25,0
1776973762.323,11.8992,1.585,2.6193,-0.2803,0.3435,0.0008,-67.35,5.7,34.95,12.0524,-0.9792,0.7422,-0.9289,0.9947,1.7821,-72.6,8.4,14.55,-3.19,-2.78,-10.28,0.3316,-0.7527,0.1767,18.1875,25.375,27.875,330.5625,-28.25,163.0625,0
1776973762.328,11.8848,1.7526,1.6712,-0.117,0.3456,-0.0061,-67.35,5.7,34.95,12.2368,-1.6712,0.1724,-0.8998,1.0232,1.8106,-71.55,5.55,14.25,-3.19,-2.78,-10.28,0.3316,-0.7527,0.1767,18.1875,25.375,27.875,330.6875,-28.8125,162.8125,0
1776973762.333,11.8848,1.7526,1.6712,-0.117,0.3456,-0.0061,-66.9,4.95,33.9,12.2368,-1.6712,0.1724,-0.8998,1.0232,1.8106,-71.55,5.55,14.25,-3.2,-3.58,-10.46,0.3949,-1.0199,0.2509,19.1875,24.6875,29.875,330.6875,-28.8125,162.8125,0
1776973762.338,11.9734,2.2745,0.7087,-0.0791,0.2617,-0.0165,-66.9,4.95,33.9,12.4451,-1.7741,-0.3256,-0.8692,1.0778,1.8583,-71.55,5.55,14.25,-3.2,-3.58,-10.46,0.3949,-1.0199,0.2509,19.1875,24.6875,29.875,330.6875,-28.8125,162.8125,0
1776973762.343,11.9734,2.2745,0.7087,-0.0791,0.2617,-0.0165,-68.55,5.55,34.8,12.4451,-1.7741,-0.3256,-0.8692,1.0778,1.8583,-71.55,5.55,14.25,-2.99,-3.27,-10.44,0.3916,-1.3581,0.3447,19.1875,24.6875,29.875,330.875,-29.625,162.5625,0
1776973762.349,11.8561,2.6983,-0.0622,-0.2774,0.1724,-0.097,-68.55,5.55,34.8,12.6127,-0.9457,0.0335,-0.9707,1.1016,1.9297,-70.8,5.55,14.85,-2.99,-3.27,-10.44,0.3872,-1.7355,0.4352,19.1875,24.6875,29.875,331.0,-30.5625,162.3125,0
1776973762.354,11.8561,2.6983,-0.0622,-0.2774,0.1724,-0.097,-67.65,6.45,35.7,12.7922,0.7997,-0.0431,-0.9707,1.1016,1.9297,-70.8,5.55,14.85,-3.27,-2.71,-10.57,0.3872,-1.7355,0.4352,19.1875,24.6875,29.875,331.25,-31.8125,162.125,0
1776973762.363,12.2703,3.565,-0.7015,-0.5135,-0.1045,-0.2942,-67.65,6.45,35.7,12.7922,0.7997,-0.0431,-1.0067,1.0981,2.015,-72.6,3.6,15.3,-2.73,-1.87,-11.11,0.3589,-2.1708,0.5825,19.1875,24.6875,29.875,331.5,-33.375,161.8125,0
1776973762.373,11.9135,4.5514,-1.0798,-0.7685,-0.5097,-0.5305,-67.2,3.0,34.5,15.0859,2.9018,-1.3168,-0.9622,1.1714,2.1448,-71.7,2.7,16.2,-3.05,-2.0,-10.95,0.3992,-2.6256,0.7494,19.1875,24.6875,29.875,331.5,-33.375,161.8125,0
1776973762.378,11.7196,5.5929,-1.8076,-0.9678,-0.8657,-0.7554,-67.2,3.0,34.5,15.0859,2.9018,-1.3168,-1.0245,1.2468,2.2926,-71.7,2.7,16.2,-3.05,-2.0,-10.95,0.3992,-2.6256,0.7494,19.1875,24.6875,29.875,331.875,-35.125,161.4375,0
1776973762.383,11.7196,5.5929,-1.8076,-0.9678,-0.8657,-0.7554,-68.55,3.3,35.55,16.5439,3.8188,-2.1883,-1.0245,1.2468,2.2926,-72.0,2.25,17.7,-2.41,-3.6,-11.21,0.6545,-3.0838,0.9577,19.5625,24.6875,27.5,331.875,-35.125,161.4375,0
1776973762.388,12.0476,6.4596,-1.9225,-0.7797,-1.2521,-0.9737,-68.55,3.3,35.55,16.5439,3.8188,-2.1883,-1.0866,1.3041,2.456,-72.0,2.25,17.7,-2.41,-3.6,-11.21,0.6545,-3.0838,0.9577,19.5625,24.6875,27.5,331.875,-35.125,161.4375,0
1776973762.393,12.0476,6.4596,-1.9225,-0.7797,-1.2521,-0.9737,-66.15,1.95,33.9,18.105,4.2377,-3.2537,-1.0866,1.3041,2.456,-72.0,2.25,17.7,-1.96,-4.38,-11.78,0.6512,-3.5321,1.2315,19.5625,24.6875,27.5,332.4375,-37.1875,161.125,0
1776973762.4,11.5831,7.3717,-2.5786,-0.1604,-2.1011,-1.1247,-66.15,1.95,33.9,18.105,4.2377,-3.2537,-1.1453,1.3177,2.6622,-70.8,-1.35,17.85,-1.51,-5.41,-11.99,0.6076,-4.0841,1.5577,19.5625,24.6875,27.5,333.0625,-39.625,160.8125,0
1776973762.404,10.4435,7.1467,2.0446,0.8255,-1.8724,-1.2348,-66.9,-1.95,34.35,17.8272,3.2657,-4.4915,-1.3107,1.351,2.7291,-70.8,-1.35,17.85,-1.51,-5.41,-11.99,0.6076,-4.0841,1.5577,19.5625,24.6875,27.5,13.5,-42.4375,160.6875,0
1776973762.413,11.2144,5.9711,1.1708,1.829,-1.8937,-1.3931,-66.9,-1.95,34.35,16.599,2.2769,-4.5466,-1.4008,1.4575,2.5799,-70.8,-1.35,17.85,-1.52,-6.68,-11.77,0.5443,-4.7004,1.9897,19.5625,24.6875,27.5,10.375,-45.75,160.8125,0
1776973762.423,12.5217,4.3958,-0.9912,2.1258,-2.2068,-1.5918,-66.9,-1.95,34.35,14.4729,1.324,-2.8994,-1.6625,1.473,2.3811,-69.15,-4.05,19.35,-2.28,-7.75,-11.21,0.3611,-5.3909,2.5591,19.5625,24.6875,27.5,10.375,-45.75,160.8125,0
1776973762.428,12.5217,4.3958,-0.9912,2.1258,-2.2068,-1.5918,-66.9,-1.95,34.35,14.4729,1.324,-2.8994,-1.6625,1.473,2.3811,-69.15,-4.05,19.35,-2.28,-7.75,-11.21,0.3611,-5.3909,2.5591,19.5625,24.6875,27.5,10.375,-45.75,160.8125,0
1776973762.433,12.0907,2.4948,-2.2098,2.3009,-2.3886,-1.7331,-66.75,-0.3,30.15,12.4115,0.2227,-0.2538,-1.7581,1.5308,2.2002,-72.0,-4.65,18.75,-6.55,-6.99,-11.94,0.1113,-6.0967,3.2179,23.6875,24.0,24.75,6.6875,-49.5,161.4375,0
1776973762.438,12.0907,2.4948,-2.2098,2.3009,-2.3886,-1.7331,-66.75,-0.3,30.15,12.4115,0.2227,-0.2538,-1.7581,1.5308,2.2002,-72.0,-4.65,18.75,-6.55,-6.99,-11.94,0.1113,-6.0967,3.2179,23.6875,24.0,24.75,6.6875,-49.5,161.4375,0
1776973762.443,12.5241,0.6369,-1.9656,1.9305,-2.1639,-1.8644,-66.6,0.9,28.95,11.0947,-0.7925,2.4517,-1.6931,1.5681,2.0574,-70.2,-5.85,19.5,-10.21,-5.6,-12.61,-0.0098,-6.7032,3.7132,23.6875,24.0,24.75,2.875,-53.6875,162.4375,0
1776973762.45,12.5241,0.6369,-1.9656,1.9305,-2.1639,-1.8644,-65.85,3.15,28.65,11.0947,-0.7925,2.4517,-1.6931,1.5681,2.0574,-69.75,-6.9,18.45,-14.64,-5.66,-13.81,0.2803,-7.0882,3.8561,23.6875,24.0,24.75,359.625,-58.0625,163.625,0
1776973762.454,13.1154,-0.905,-1.4509,1.3102,-2.2098,-1.9452,-65.85,3.15,28.65,10.4363,-2.2458,4.3191,-1.287,1.6515,1.9454,-69.75,-6.9,18.45,-14.64,-5.66,-13.81,0.2803,-7.0882,3.8561,23.6875,24.0,24.75,357.0625,-62.4375,164.9375,0
1776973762.463,13.726,-2.4181,-0.3543,0.6174,-2.4091,-1.9841,-66.45,6.3,26.7,10.3884,-3.0598,5.2577,-0.749,1.7006,1.8871,-69.45,-8.55,20.25,-16.86,-5.78,-13.69,0.6109,-7.0719,3.7383,23.6875,24.0,24.75,355.25,-66.5625,166.375,0
1776973762.474,14.0492,-3.8379,1.5874,0.0882,-2.6556,-2.0185,-66.45,6.3,26.7,10.8481,-3.5506,4.5705,-0.3243,1.7088,1.9049,-69.6,-9.45,21.15,-17.86,-6.77,-14.35,0.9032,-6.7861,3.4525,23.6875,24.0,24.75,355.25,-66.5625,166.375,0
1776973762.478,14.0492,-3.8379,1.5874,0.0882,-2.6556,-2.0185,-66.45,6.3,26.7,10.8481,-3.5506,4.5705,-0.3243,1.7088,1.9049,-69.6,-9.45,21.15,-17.86,-6.77,-14.35,0.9032,-6.7861,3.4525,23.6875,24.0,24.75,354.0625,-70.1875,168.1875,0
1776973762.483,14.3676,-4.865,3.2729,-0.4876,-2.6326,-1.9955,-66.15,7.65,19.65,10.8194,-5.7628,3.0789,-0.1074,1.8663,1.8554,-69.6,-9.45,21.15,-13.28,-9.02,-13.32,1.1988,-6.0628,3.1776,32.875,20.6875,16.5,354.0625,-70.1875,168.1875,0
1776973762.488,14.3676,-4.865,3.2729,-0.4876,-2.6326,-1.9955,-66.15,7.65,19.65,10.8194,-5.7628,3.0789,-0.1074,1.8663,1.8554,-69.6,-9.45,21.15,-13.28,-9.02,-13.32,1.1988,-6.0628,3.1776,32.875,20.6875,16.5,352.875,-73.4375,171.1875,0
1776973762.493,14.9446,-5.1308,4.1444,-1.2449,-2.2918,-1.9025,-68.1,9.15,19.35,11.2575,-7.8051,4.695,0.4354,1.97,1.5463,-68.25,-9.75,22.2,-8.09,-9.18,-12.65,1.0657,-5.3134,3.1132,32.875,20.6875,16.5,352.875,-73.4375,171.1875,0
1776973762.502,15.208,-5.2792,4.4939,-1.262,-1.9907,-1.7581,-66.6,11.4,15.75,10.4698,-8.1283,6.9456,1.1935,1.9633,1.0403,-69.6,-11.1,23.1,4.58,-8.67,-9.21,0.7538,-4.8193,3.2987,32.875,20.6875,16.5,351.5,-76.25,176.4375,0
1776973762.507,15.208,-5.2792,4.4939,-1.262,-1.9907,-1.7581,-66.6,11.4,15.75,10.4698,-8.1283,6.9456,1.1935,1.9633,1.0403,-69.6,-11.1,23.1,4.58,-8.67,-9.21,0.7538,-4.8193,3.2987,32.875,20.6875,16.5,349.625,-78.875,-174.25,0
1776973762.514,13.611,-4.774,3.5721,-1.2923,-2.1043,-1.6094,-65.85,9.9,13.95,8.9112,-5.5881,7.6998,1.5695,1.5849,0.6368,-69.75,-12.0,24.75,6.17,-5.86,-7.39,0.2487,-4.768,3.6477,32.875,20.6875,16.5,347.3125,-81.0625,-158.4375,0
1776973762.524,11.5496,-3.3758,3.5003,-1.3622,-2.2263,-1.5668,-65.85,9.9,13.95,7.6662,-6.3231,6.0621,0.8103,0.8657,0.4479,-68.85,-11.4,23.85,-12.72,-4.93,-10.44,-0.4516,-4.924,3.8703,32.875,20.6875,16.5,347.3125,-81.0625,-158.4375,0
1776973762.529,11.5496,-3.3758,3.5003,-1.3622,-2.2263,-1.5668,-66.0,14.25,9.9,4.6902,-8.2313,7.3382,0.8612,0.6518,0.2252,-68.85,-11.4,23.85,-12.72,-4.93,-10.44,-0.4516,-4.924,3.8703,32.875,20.6875,16.5,345.6875,-81.875,-141.875,0
1776973762.534,10.2927,-1.2977,3.2106,-1.3659,-1.6566,-1.6126,-66.0,14.25,9.9,4.6902,-8.2313,7.3382,0.8612,0.6518,0.2252,-67.35,-10.35,23.1,-12.97,-5.64,-11.26,-0.1462,-3.4961,3.1001,40.1875,14.0,7.875,345.6875,-81.875,-141.875,0
1776973762.539,10.2927,-1.2977,3.2106,-1.6915,-1.2793,-1.5753,-63.15,12.3,8.55,3.4907,-8.2528,7.6878,0.6957,0.4501,-0.0298,-67.35,-10.35,23.1,-12.97,-5.64,-11.26,-0.1462,-3.4961,3.1001,40.1875,14.0,7.875,345.25,-81.625,-135.25,0
1776973762.544,10.3669,-0.2682,1.9297,-1.6915,-1.2793,-1.5753,-63.15,12.3,8.55,3.4907,-8.2528,7.6878,0.6957,0.4501,-0.0298,-69.0,-9.0,23.25,-7.15,-8.01,-11.22,0.7909,-0.841,1.7115,40.1875,14.0,7.875,345.25,-81.625,-135.25,0
1776973762.549,11.0588,0.4597,0.1245,-2.0145,-1.7355,-1.5186,-65.7,13.5,6.75,2.1835,-5.8562,7.0054,-0.0525,0.2417,-0.3765,-69.0,-9.0,23.25,-7.15,-8.01,-11.22,1.1988,1.2872,0.3807,40.1875,14.0,7.875,345.6875,-80.9375,-138.125,0
1776973762.554,11.0588,0.4597,0.1245,-2.0145,-1.7355,-1.5186,-65.7,13.5,6.75,2.1835,-5.8562,7.0054,-0.0525,0.2417,-0.3765,-69.0,-9.0,23.25,-3.21,-9.81,-10.21,1.1988,1.2872,0.3807,40.1875,14.0,7.875,346.375,-80.0625,-144.375,0
1776973762.564,10.3022,-1.0798,-0.0718,-1.902,-2.0344,-1.5095,-65.1,12.15,7.95,1.8316,-4.4724,4.8961,-1.0722,0.0408,-0.7754,-69.45,-8.55,24.3,1.54,-7.68,-5.48,1.0254,2.3082,-0.3371,40.1875,14.0,7.875,346.375,-80.0625,-144.375,0
1776973762.574,8.3007,0.9218,1.0175,-1.6038,-1.8021,-1.5878,-64.8,13.65,6.9,2.66,-3.6559,3.4572,-1.6816,-0.1772,-1.1461,-69.45,-8.55,24.3,2.57,-5.52,-3.84,0.6883,2.5602,-0.6949,40.1875,14.0,7.875,347.0625,-79.0625,-150.6875,0
1776973762.578,8.1187,2.4277,0.9481,-1.5551,-1.5815,-1.6073,-64.8,13.65,6.9,2.7102,-3.6081,3.0933,-1.7576,-0.3469,-1.5031,-69.45,-8.55,24.3,2.57,-5.52,-3.84,0.6883,2.5602,-0.6949,40.1875,14.0,7.875,347.0625,-79.0625,-150.6875,0
1776973762.583,8.1187,2.4277,0.9481,-1.5551,-1.5815,-1.6073,-64.8,13.65,6.9,2.7102,-3.6081,3.0933,-1.7576,-0.3469,-1.5031,-69.75,-8.1,25.05,2.5,-3.77,-3.03,0.4276,2.5035,-0.8879,46.6875,9.25,5.5625,347.6875,-78.0625,-156.1875,0
1776973762.588,8.0206,3.4046,0.644,-1.5399,-1.3272,-1.5905,-63.15,14.55,7.8,2.569,-3.5195,3.1723,-1.4234,-0.4751,-1.7672,-69.75,-8.1,25.05,2.5,-3.77,-3.03,0.4276,2.5035,-0.8879,46.6875,9.25,5.5625,347.6875,-78.0625,-156.1875,0
1776973762.593,8.0206,3.4046,0.644,-1.5399,-1.3272,-1.5905,-63.15,14.55,7.8,2.569,-3.5195,3.1723,-1.4234,-0.4751,-1.7672,-69.75,-7.8,22.5,2.05,-2.82,-3.0,0.3829,2.4816,-1.0788,46.6875,9.25,5.5625,348.375,-77.0,-161.1875,0
1776973762.6,8.1882,3.8618,0.3903,-1.177,-1.0051,-1.5958,-60.9,15.75,9.6,2.5642,-3.3423,3.1771,-0.9262,-0.7157,-2.0182,-69.75,-7.8,22.5,0.89,-2.61,-3.18,0.5094,2.5209,-1.3025,46.6875,9.25,5.5625,349.375,-75.8125,-165.9375,0
1776973762.605,8.1882,3.8618,0.3903,-1.177,-1.0051,-1.5958,-60.9,15.75,9.6,1.8675,-3.2178,3.4548,-0.4101,-0.9641,-2.2897,-69.45,-6.6,22.2,0.89,-2.61,-3.18,0.5094,2.5209,-1.3025,46.6875,9.25,5.5625,350.625,-74.5625,-170.625,0
1776973762.614,8.6095,3.4357,0.5291,-0.7829,-0.7067,-1.6705,-62.25,14.7,9.3,1.6352,-2.9473,1.9465,-0.4101,-0.9641,-2.2897,-70.95,-4.65,22.5,0.75,-2.97,-3.25,0.6676,2.6125,-1.5424,46.6875,9.25,5.5625,352.0625,-73.25,-175.125,0
1776973762.624,9.505,3.4189,1.6065,-0.429,-0.4162,-1.6513,-60.45,16.2,10.05,1.6568,-3.0981,3.1436,-0.1804,-1.1764,-2.5511,-70.95,-4.65,22.5,0.42,-3.15,-3.55,0.7559,2.702,-1.7802,46.6875,9.25,5.5625,352.0625,-73.25,-175.125,0
1776973762.629,9.2751,3.1077,2.2242,-0.1657,-0.4858,-1.5362,-60.45,16.2,10.05,1.6568,-3.0981,3.1436,-0.0077,-1.3781,-2.808,-70.95,-4.65,22.5,0.42,-3.15,-3.55,0.7559,2.702,-1.7802,46.6875,9.25,5.5625,353.75,-71.75,-179.375,0
1776973762.634,9.2751,3.1077,2.2242,-0.1657,-0.4858,-1.5362,-60.45,16.2,10.05,1.6783,-2.8611,3.7278,0.1399,-1.4333,-3.0054,-72.0,-3.0,21.75,-1.05,-3.43,-4.92,0.7756,2.7882,-2.0355,48.1875,15.1875,18.5625,353.75,-71.75,-179.375,0
1776973762.639,8.9352,2.4325,2.047,0.0528,-0.3285,-1.3648,-60.3,18.0,12.0,1.6783,-2.8611,3.7278,0.1399,-1.4333,-3.0054,-72.0,-3.0,21.75,-1.05,-3.43,-4.92,0.7756,2.7882,-2.0355,48.1875,15.1875,18.5625,355.625,-70.125,176.5625,0
1776973762.644,8.9352,2.4325,2.047,0.0528,-0.3285,-1.3648,-60.3,18.0,12.0,2.9664,-2.6863,2.9904,-0.0179,-1.5242,-3.1592,-72.0,-3.0,21.75,-1.91,-3.13,-5.97,0.7505,2.8951,-2.3267,48.1875,15.1875,18.5625,355.625,-70.125,176.5625,0
1776973762.649,8.6431,2.2386,2.0063,0.2856,-0.3142,-1.214,-59.25,17.4,11.55,2.9664,-2.6863,2.9904,-0.0179,-1.5242,-3.1592,-72.0,-3.0,21.75,-1.91,-3.13,-5.97,0.7658,3.0685,-2.6136,48.1875,15.1875,18.5625,357.8125,-68.25,172.75,0
1776973762.655,7.9607,1.8459,1.8196,0.4628,-0.2414,-1.0829,-59.25,17.4,11.55,3.6775,-3.4381,2.4062,0.0512,-1.6006,-3.2572,-73.65,1.05,17.7,-3.22,-2.8,-6.96,0.7658,3.0685,-2.6136,48.1875,15.1875,18.5625,0.25,-66.1875,169.1875,0
1776973762.664,7.9607,1.8459,1.8196,0.4628,-0.2414,-1.0829,-59.7,20.7,12.6,4.7716,-3.8762,2.0542,0.3046,-1.4344,-3.4168,-75.15,1.5,17.7,-4.61,-2.11,-7.88,0.8018,3.3728,-2.8972,48.1875,15.1875,18.5625,3.0625,-63.75,166.0625,0
1776973762.674,7.4939,1.2282,2.0686,0.5987,-0.1697,-0.7757,-59.55,18.75,12.75,6.4787,-3.9121,2.6264,0.5255,-1.5487,-3.5448,-75.15,3.9,16.65,-4.24,-1.78,-8.04,0.8563,3.7405,-3.1198,48.1875,15.1875,18.5625,3.0625,-63.75,166.0625,0
1776973762.679,6.9911,0.5483,1.5993,0.5987,-0.1697,-0.7757,-60.0,19.2,12.9,6.4787,-3.9121,2.6264,0.5255,-1.5487,-3.5448,-75.15,3.9,16.65,-4.24,-1.78,-8.04,0.8563,3.7405,-3.1198,48.1875,15.1875,18.5625,6.125,-61.125,163.4375,0
1776973762.684,6.5793,0.0383,1.4317,0.8503,-0.2121,-0.6646,-60.0,19.2,12.9,7.6471,-3.7565,2.4708,0.5796,-1.8279,-3.6271,-74.55,6.45,16.35,-4.14,-1.07,-8.25,0.9098,4.0448,-3.1798,41.1875,27.1875,28.6875,6.125,-61.125,163.4375,0
1776973762.689,6.5793,0.0383,1.4317,0.8503,-0.2121,-0.6646,-60.0,19.2,12.9,7.6471,-3.7565,2.4708,0.5796,-1.8279,-3.6271,-74.55,6.45,16.35,-4.14,-1.07,-8.25,0.9098,4.0448,-3.1798,41.1875,27.1875,28.6875,6.125,-61.125,163.4375,0
1776973762.694,5.9616,-0.0096,1.4341,1.1882,-0.2124,-0.5556,-60.0,19.2,12.9,7.9416,-3.9049,2.466,0.5209,-2.0264,-3.7209,-73.8,7.2,14.85,-4.39,-0.41,-8.58,0.9927,4.2215,-3.1001,41.1875,27.1875,28.6875,9.4375,-58.375,161.25,0
1776973762.702,5.9616,-0.0096,1.4341,1.1882,-0.2124,-0.5556,-59.25,20.7,12.15,8.0373,-4.379,2.4038,0.4114,-2.1618,-3.8296,-73.8,8.7,14.85,-5.55,-0.02,-9.39,1.1552,4.3426,-2.9245,41.1875,27.1875,28.6875,13.0625,-55.5625,159.5,0
1776973762.707,5.9328,-0.0982,1.4126,1.4573,-0.137,-0.4319,-59.1,20.55,12.75,8.0373,-4.379,2.4038,0.4114,-2.1618,-3.8296,-73.8,8.7,14.85,-5.55,-0.02,-9.39,1.1552,4.3426,-2.9245,41.1875,27.1875,28.6875,17.0,-52.75,158.125,0
1776973762.714,5.6216,-0.5052,1.3719,1.6068,0.0991,-0.2825,-59.1,20.55,12.75,7.865,-4.944,2.5666,0.3725,-2.3108,-3.97,-73.8,8.7,14.85,-6.32,-0.57,-9.8,1.3439,4.4539,-2.6573,41.1875,27.1875,28.6875,21.25,-49.875,157.0,0
1776973762.724,5.8083,-0.9697,1.3336,1.6411,0.2721,-0.1061,-60.3,20.25,12.45,7.8817,-4.9608,2.8108,0.1226,-2.4277,-4.1211,-74.4,12.9,12.9,-6.82,-1.08,-9.97,1.4857,4.6109,-2.3333,41.1875,27.1875,28.6875,21.25,-49.875,157.0,0
1776973762.729,5.8083,-0.9697,1.3336,1.6411,0.2721,-0.1061,-59.25,20.7,11.55,8.6742,-4.853,2.7988,0.1226,-2.4277,-4.1211,-74.4,12.9,12.9,-6.82,-1.08,-9.97,1.4857,4.6109,-2.3333,41.1875,27.1875,28.6875,21.25,-49.875,157.0,0
1776973762.734,6.3518,-1.6376,1.1013,1.591,0.4191,0.0533,-59.25,20.7,11.55,8.6742,-4.853,2.7988,-0.1508,-2.5359,-4.212,-73.8,16.5,11.25,-6.46,-0.9,-9.89,1.5523,4.7647,-1.9777,23.25,37.5625,32.875,25.8125,-47.0,156.1875,0
1776973762.739,6.3518,-1.6376,1.1013,1.591,0.4191,0.0533,-59.25,20.7,11.55,9.4595,-4.7262,2.5786,-0.1508,-2.5359,-4.212,-73.8,16.5,11.25,-6.46,-0.9,-9.89,1.5523,4.7647,-1.9777,23.25,37.5625,32.875,25.8125,-47.0,156.1875,0
1776973762.744,6.1723,-1.9968,0.9409,1.3752,0.566,0.1767,-59.25,20.7,11.55,9.4595,-4.7262,2.5786,-0.2462,-2.6628,-4.2903,-73.95,18.0,8.4,-6.59,-1.04,-10.21,1.6352,4.7833,-1.6188,23.25,37.5625,32.875,30.5625,-44.25,155.5625,0
1776973762.749,6.1723,-1.9968,0.9409,1.3752,0.566,0.1767,-58.05,18.3,11.4,9.7683,-4.4077,2.4972,-0.2462,-2.6628,-4.2903,-73.95,18.0,8.4,-6.59,-1.04,-10.21,1.7726,4.6666,-1.2588,23.25,37.5625,32.875,35.625,-41.625,155.0,0
1776973762.755,6.2704,-2.4373,0.6273,1.2188,0.5529,0.312,-58.05,17.25,10.65,9.7683,-4.4077,2.4972,-0.2286,-2.7017,-4.2884,-74.1,18.45,7.95,-6.78,-1.13,-10.58,1.7726,4.6666,-1.2588,23.25,37.5625,32.875,41.0,-39.125,154.375,0
1776973762.764,6.8426,-2.5019,0.0982,0.9084,0.5415,0.3882,-57.0,17.55,10.65,13.2878,-4.1994,3.1891,-0.4612,-3.0635,-4.2453,-73.35,18.9,8.25,-8.15,-1.66,-12.0,1.9809,4.4397,-0.925,23.25,37.5625,32.875,345.6875,-36.875,153.625,0
1776973762.774,7.0174,-2.2984,-0.1437,0.5548,0.4482,0.4279,-57.3,16.05,9.15,10.9583,-5.023,3.4117,-1.0397,-2.7909,-4.2386,-73.8,22.5,7.5,-10.12,-2.73,-13.46,2.2777,4.1855,-0.7221,23.25,37.5625,32.875,345.6875,-36.875,153.625,0
1776973762.779,7.0174,-2.2984,-0.1437,0.5548,0.4482,0.4279,-57.3,16.05,9.15,11.2791,-6.1268,4.6663,-1.3126,-2.7246,-4.2439,-73.8,22.5,7.5,-10.12,-2.73,-13.46,2.2777,4.1855,-0.7221,23.25,37.5625,32.875,346.25,-34.6875,152.6875,0
1776973762.784,7.1826,-1.8172,-0.4094,0.1519,0.3344,0.4706,-57.3,16.05,9.15,11.2791,-6.1268,4.6663,-1.3126,-2.7246,-4.2439,-73.8,22.5,7.5,-12.02,-3.79,-14.53,2.5384,4.0677,-0.6861,11.875,37.75,31.0,346.25,-34.6875,152.6875,0
1776973762.789,7.1826,-1.8172,-0.4094,0.1519,0.3344,0.4706,-57.3,16.05,9.15,11.4132,-5.5234,5.3151,-1.5945,-2.6428,-4.2357,-73.8,22.5,7.5,-12.02,-3.79,-14.53,2.5384,4.0677,-0.6861,11.875,37.75,31.0,346.8125,-32.4375,151.6875,0
1776973762.794,7.6902,-1.4317,-0.5698,-0.1985,0.1348,0.538,-57.3,16.05,9.15,11.4132,-5.5234,5.3151,-1.5945,-2.6428,-4.2357,-73.35,25.5,6.45,-12.03,-4.58,-14.52,2.6584,4.227,-0.781,11.875,37.75,31.0,346.8125,-32.4375,151.6875,0
1776973762.8,7.6591,-0.6225,-0.4525,-0.5782,-0.1175,0.6579,-57.3,16.05,9.15,11.8944,-3.553,4.6591,-1.9476,-2.6766,-4.1917,-73.35,25.5,6.45,-10.49,-4.8,-14.29,2.6333,4.4626,-0.8563,11.875,37.75,31.0,347.375,-30.0625,150.75,0
1776973762.805,7.6591,-0.6225,-0.4525,-0.5782,-0.1175,0.6579,-57.9,14.7,10.05,11.8944,-3.553,4.6591,-1.9476,-2.6766,-4.1917,-73.35,25.5,6.45,-10.49,-4.8,-14.29,2.6333,4.4626,-0.8563,11.875,37.75,31.0,347.875,-27.625,149.8125,0
1776973762.814,8.1403,0.2849,-0.2921,-1.0672,-0.3211,0.7418,-58.35,17.55,10.65,11.995,-1.9369,3.0885,-2.136,-2.8098,-4.156,-70.95,27.3,5.1,-11.73,-4.75,-14.74,2.522,4.5379,-0.8498,11.875,37.75,31.0,348.375,-25.25,148.875,0
1776973762.824,7.7644,1.3001,-0.3472,-1.7054,-0.5145,0.7538,-59.55,15.3,12.0,11.3605,-1.3096,2.4134,-1.9433,-2.6446,-4.1651,-69.45,30.0,4.35,-11.01,-4.27,-14.19,2.4206,4.4571,-0.8454,11.875,37.75,31.0,348.375,-25.25,148.875,0
1776973762.829,7.6136,2.1452,-0.3543,-2.1027,-0.5761,0.7168,-59.55,15.3,12.0,11.4658,-0.2777,3.1316,-1.7283,-2.5724,-4.0806,-69.45,30.0,4.35,-11.01,-4.27,-14.19,2.4206,4.4571,-0.8454,11.875,37.75,31.0,348.375,-25.25,148.875,0
1776973762.834,7.6136,2.1452,-0.3543,-2.1027,-0.5761,0.7168,-60.75,16.95,12.9,11.4658,-0.2777,3.1316,-1.7283,-2.5724,-4.0806,-67.95,31.95,2.85,-13.14,-3.85,-14.79,2.3486,4.0524,-0.8628,6.25,34.0625,28.375,348.8125,-23.0625,147.9375,0
1776973762.839,7.8961,3.383,-0.5243,-2.3819,-0.4202,0.6856,-60.75,16.95,12.9,11.7076,0.6967,3.055,-1.748,-2.7001,-3.889,-67.95,31.95,2.85,-13.14,-3.85,-14.79,2.3486,4.0524,-0.8628,6.25,34.0625,28.375,348.8125,-23.0625,147.9375,0
1776973762.844,7.8961,3.383,-0.5243,-2.3819,-0.4202,0.6856,-60.75,16.95,12.9,11.9016,1.154,2.7605,-1.748,-2.7001,-3.889,-66.3,32.4,1.8,-13.07,-3.02,-14.41,2.3442,4.4419,-1.0701,6.25,34.0625,28.375,349.1875,-20.6875,146.9375,0
1776973762.85,8.2983,4.7309,-0.7422,-2.4437,-0.1799,0.6366,-60.75,16.95,12.9,11.9016,1.154,2.7605,-1.8053,-2.6708,-3.6492,-66.3,32.4,1.8,-13.15,-2.29,-13.87,2.318,4.275,-1.273,6.25,34.0625,28.375,349.4375,-18.3125,145.9375,0
1776973762.855,8.2983,4.7309,-0.7422,-2.4437,-0.1799,0.6366,-60.3,19.05,15.3,11.8728,1.2594,2.3535,-1.6134,-2.5274,-3.3625,-66.9,34.2,1.65,-13.15,-2.29,-13.87,2.318,4.275,-1.273,6.25,34.0625,28.375,349.5,-15.9375,144.875,0
1776973762.864,8.6574,6.5122,-1.008,-2.3121,0.0141,0.5047,-62.1,18.75,17.1,11.655,1.2809,1.5658,-1.4173,-2.3662,-3.0323,-66.15,35.4,1.65,-13.44,-1.15,-12.15,2.2689,4.1626,-1.4595,6.25,34.0625,28.375,349.5,-13.6875,143.8125,0
1776973762.874,8.3342,9.4284,-0.814,-1.9228,-0.4626,0.304,-61.65,17.55,17.4,11.4275,1.2474,0.9792,-1.2183,-2.233,-2.6809,-66.15,35.4,1.65,-14.17,-0.46,-11.34,2.0977,3.9706,-1.5828,6.25,34.0625,28.375,349.5,-13.6875,143.8125,0
1776973762.879,9.2201,11.8728,-1.3144,-2.2436,0.312,0.222,-61.65,17.55,17.4,11.4275,1.2474,0.9792,-1.2183,-2.233,-2.6809,-66.15,35.4,1.65,-14.17,-0.46,-11.34,2.0977,3.9706,-1.5828,6.25,34.0625,28.375,349.5,-13.6875,143.8125,0
1776973762.884,9.2201,11.8728,-1.3144,-2.2436,0.312,0.222,-64.95,18.3,19.5,10.501,1.2546,0.4262,-0.9753,-2.0704,-2.2849,-64.65,37.35,1.2,-14.89,0.07,-10.38,1.8871,3.7394,-1.6395,9.5625,35.875,32.5,349.375,-11.4375,142.875,0
1776973762.889,10.5512,13.0987,-1.7765,-2.1823,0.3094,0.0815,-64.95,18.3,19.5,10.501,1.2546,0.4262,-0.9753,-2.0704,-2.2849,-64.65,37.35,1.2,-14.89,0.07,-10.38,1.8871,3.7394,-1.6395,9.5625,35.875,32.5,349.375,-11.4375,142.875,0
1776973762.894,10.5512,13.0987,-1.7765,-2.1823,0.3094,0.0815,-64.95,18.3,19.5,9.2344,1.4174,0.3639,-0.6475,-1.8538,-1.8762,-63.3,37.95,0.6,-15.79,0.66,-9.37,1.633,3.5507,-1.6395,9.5625,35.875,32.5,349.25,-9.3125,142.0625,0
1776973762.904,10.58,12.5528,-2.3607,-2.278,0.6352,0.0149,-64.95,18.3,19.5,6.5912,1.9752,-1.4868,-0.2801,-1.6073,-1.3717,-63.3,40.2,0.3,-16.81,2.16,-6.13,1.309,3.3707,-1.573,9.5625,35.875,32.5,349.0625,-7.3125,141.4375,0
1776973762.911,10.884,11.2791,-3.6009,-2.1032,0.8234,0.1514,-64.95,18.3,19.5,4.4412,-1.7933,-5.193,-0.2801,-1.6073,-1.3717,-63.3,40.2,0.3,-17.56,2.7,-2.46,0.9207,3.1503,-1.4388,9.5625,35.875,32.5,348.9375,-5.4375,141.0,0
1776973762.916,10.6231,11.8034,-4.5921,-1.5362,0.6387,0.142,-61.2,17.4,25.35,4.4412,-1.7933,-5.193,-0.6851,-1.0275,-0.9334,-62.55,38.7,0.3,-17.56,2.7,-2.46,0.9207,3.1503,-1.4388,9.5625,35.875,32.5,348.875,-3.8125,140.8125,0
1776973762.925,10.6231,11.8034,-4.5921,-1.5362,0.6387,0.142,-64.35,17.4,27.15,1.7765,-0.9481,-1.8172,-0.6123,-0.3019,-0.4596,-64.35,40.5,0.15,-19.19,-0.94,3.0,0.3971,2.8994,-1.1857,9.5625,35.875,32.5,348.875,-3.8125,140.8125,0
1776973762.93,11.9686,12.1961,-6.936,-0.2164,0.7434,0.0394,-64.35,17.4,27.15,1.7765,-0.9481,-1.8172,-0.6123,-0.3019,-0.4596,-64.35,40.5,0.15,-19.19,-0.94,3.0,0.3971,2.8994,-1.1857,1.1875,47.1875,34.5625,349.0,-2.5625,141.0,0
1776973762.935,11.9686,12.1961,-6.936,-0.2164,0.7434,0.0394,-63.15,16.05,29.55,3.6679,0.3089,-0.6057,-1.3611,0.5002,0.0541,-63.15,40.5,0.15,-23.01,12.54,5.19,-0.3512,2.4533,-0.5574,1.1875,47.1875,34.5625,349.0,-2.5625,141.0,0
1776973762.94,12.3996,14.54,-9.2249,1.2582,0.3246,0.0951,-63.15,16.05,29.55,3.6679,0.3089,-0.6057,-1.3611,0.5002,0.0541,-63.15,40.5,0.15,-23.01,12.54,5.19,-0.3512,2.4533,-0.5574,1.1875,47.1875,34.5625,349.5625,-1.875,141.1875,0
1776973762.945,12.3996,14.54,-9.2249,1.2582,0.3246,0.0951,-62.25,15.9,30.0,6.6128,0.158,-0.2059,-1.4027,0.9108,0.6299,-63.15,40.5,0.15,-21.09,17.24,4.12,-0.2673,1.8511,0.3774,1.1875,47.1875,34.5625,349.5625,-1.875,141.1875,0
1776973762.952,10.7093,14.188,-8.0685,1.9897,-0.2388,0.1487,-62.25,15.9,30.0,8.6095,-1.403,1.8651,-0.498,1.2031,1.0363,-63.15,40.5,0.15,-18.18,11.96,3.52,1.1912,1.1345,0.9261,1.1875,47.1875,34.5625,350.3125,-1.75,140.5625,0
1776973762.957,8.5617,10.058,-5.4899,2.0408,-0.3717,0.1178,-62.25,15.9,30.0,8.6095,-1.403,1.8651,-0.498,1.2031,1.0363,-65.55,39.45,1.8,-18.18,11.96,3.52,1.1912,1.1345,0.9261,1.1875,47.1875,34.5625,351.0625,-2.0,139.3125,0
1776973762.965,7.8937,6.1052,-2.5618,1.2084,1.2883,0.1151,-61.5,13.65,30.45,10.2999,0.9026,5.5785,0.3267,1.4477,1.2185,-65.55,39.45,1.8,-16.15,3.24,1.57,2.2875,0.3382,1.1705,1.1875,47.1875,34.5625,351.375,-2.6875,139.1875,0
1776973762.975,9.5505,2.0949,0.917,0.9862,0.0234,0.2217,-60.6,11.25,30.6,12.8401,6.6702,-0.3567,0.2995,1.0531,1.2926,-66.0,37.5,4.35,-0.87,-9.67,-4.94,0.1974,-0.9348,0.8367,1.1875,47.1875,34.5625,351.375,-2.6875,139.1875,0
1776973762.979,9.5505,2.0949,0.917,0.9862,0.0234,0.2217,-60.6,11.25,30.6,12.5863,9.153,-0.3903,-0.2494,0.6947,0.8817,-66.0,37.5,4.35,-0.87,-9.67,-4.94,0.1974,-0.9348,0.8367,1.1875,47.1875,34.5625,351.375,-2.6875,139.1875,0
1776973762.985,6.5003,0.1532,2.8611,0.2966,1.1018,0.493,-59.85,10.05,28.05,12.5863,9.153,-0.3903,-0.2494,0.6947,0.8817,-66.0,37.5,4.35,-4.0,0.07,-13.64,-3.8288,-2.6136,2.1598,-4.6875,49.75,35.1875,351.9375,-4.5625,141.3125,0
1776973762.989,6.5003,0.1532,2.8611,0.2966,1.1018,0.493,-59.85,10.05,28.05,11.5041,8.655,-3.1125,-0.1332,0.4271,0.2697,-65.4,36.9,4.95,-4.0,0.07,-13.64,-3.8288,-2.6136,2.1598,-4.6875,49.75,35.1875,351.9375,-4.5625,141.3125,0
1776973762.994,7.2544,0.1197,2.7821,-0.1692,1.1634,0.6438,-61.2,9.9,31.05,11.5041,8.655,-3.1125,-0.1332,0.4271,0.2697,-64.5,37.05,6.15,-1.13,-11.01,-10.92,-3.843,-2.6976,1.9471,-4.6875,49.75,35.1875,352.375,-6.4375,143.4375,0
1776973763.004,6.9001,0.7661,2.7174,-0.271,0.8823,0.8274,-61.2,9.9,31.05,8.8418,4.8195,-0.3328,1.6907,0.1183,0.0099,-64.5,37.05,6.15,-3.08,-5.36,-4.89,-3.1601,-2.09,1.4421,-4.6875,49.75,35.1875,352.6875,-7.8125,145.1875,0
1776973763.011,6.9001,0.7661,2.7174,-0.271,0.8823,0.8274,-62.1,15.0,28.5,7.6567,-0.6369,-1.9369,2.6782,0.4767,0.271,-64.35,36.15,4.5,-6.52,6.0,-8.13,-3.5561,-1.8217,2.4849,-4.6875,49.75,35.1875,353.625,-9.4375,147.25,0
1776973763.016,8.3175,0.9361,1.8292,0.1151,1.1109,1.2161,-62.1,15.0,28.5,7.6567,-0.6369,-1.9369,2.6782,0.4767,0.271,-64.35,36.15,4.5,-6.52,6.0,-8.13,-3.5561,-1.8217,2.4849,-4.6875,49.75,35.1875,354.3125,-10.8125,149.3125,0
1776973763.025,12.5648,0.656,0.5004,0.6632,0.8775,1.7595,-63.15,13.8,27.3,12.1338,0.0934,-4.2306,2.068,0.6267,0.6083,-64.8,36.15,4.5,-4.29,3.1,-8.7,-3.5496,-1.6821,2.0235,-4.6875,49.75,35.1875,354.3125,-10.8125,149.3125,0
1776973763.03,12.5648,0.656,0.5004,0.6632,0.8775,1.7595,-63.15,16.05,28.8,15.9502,0.1508,-8.9352,0.3834,0.5116,0.8005,-64.8,37.05,3.3,-4.29,3.1,-8.7,-3.5496,-1.6821,2.0235,1.75,49.1875,39.5,354.375,-11.8125,150.75,0
1776973763.035,15.3444,-0.1748,0.012,1.4437,0.591,2.1637,-63.15,16.05,28.8,15.9502,0.1508,-8.9352,0.3834,0.5116,0.8005,-64.8,37.05,3.3,5.34,2.02,-10.97,-2.6322,-1.6133,0.8945,1.75,49.1875,39.5,354.375,-11.8125,150.75,0
1776973763.04,15.3444,-0.1748,0.012,1.4437,0.591,2.1637,-64.65,18.75,28.8,17.5088,-2.9736,-5.9807,0.4104,0.5281,0.9041,-64.8,37.05,3.3,5.34,2.02,-10.97,-2.6322,-1.6133,0.8945,1.75,49.1875,39.5,354.3125,-13.125,151.6875,0
1776973763.045,18.4808,-0.8739,-1.233,2.2074,0.756,2.1197,-64.65,18.75,28.8,17.5088,-2.9736,-5.9807,0.4104,0.5281,0.9041,-64.8,37.05,3.3,-4.91,6.72,-15.1,-1.7159,-2.2962,0.6283,1.75,49.1875,39.5,354.3125,-13.125,151.6875,0
1776973763.051,18.4808,-0.8739,-1.233,2.2074,0.756,2.1197,-66.6,18.9,29.25,15.2678,-4.1803,1.4724,1.0325,0.8452,0.9819,-65.85,36.45,4.2,-15.18,6.16,-18.22,-0.8868,-3.2507,1.1421,1.75,49.1875,39.5,354.4375,-15.0,152.0625,0
1776973763.056,22.1392,-0.4693,-2.9856,2.5143,0.6859,1.938,-66.6,18.9,29.25,14.5807,-1.4653,1.8076,1.0325,0.8452,0.9819,-66.9,36.45,3.45,-15.18,6.16,-18.22,-0.8868,-3.2507,1.1421,1.75,49.1875,39.5,354.9375,-17.0,152.625,0
1776973763.065,20.1855,1.4198,-3.6176,2.8626,0.3118,1.4743,-66.6,18.9,29.25,14.5807,-1.4653,1.8076,0.2888,1.1445,1.0965,-66.9,36.45,3.45,-17.75,-5.01,-17.86,-0.8825,-3.0521,1.7999,1.75,49.1875,39.5,355.5625,-18.5625,153.3125,0
1776973763.075,14.6765,3.8595,-3.3662,2.9423,0.3664,0.6137,-66.45,18.3,26.7,11.4371,0.4429,2.1237,0.1636,1.1652,1.0624,-67.65,36.15,3.75,-6.12,-4.93,-9.73,-1.1606,-2.3507,1.838,1.75,49.1875,39.5,355.5625,-18.5625,153.3125,0
1776973763.08,14.6765,3.8595,-3.3662,2.9423,0.3664,0.6137,-65.1,16.95,28.65,11.4371,0.4429,2.1237,0.8127,1.0669,1.0309,-67.65,37.35,4.5,-6.12,-4.93,-9.73,-1.1606,-2.3507,1.838,1.75,49.1875,39.5,355.875,-19.875,153.9375,0
1776973763.085,8.521,3.1867,-1.0534,1.8335,1.2753,-0.0754,-65.1,16.95,28.65,9.414,3.4453,1.7478,0.8127,1.0669,1.0309,-67.65,37.35,4.5,-8.74,2.53,-13.4,-1.0025,-1.9755,1.2163,8.1875,45.0,43.1875,355.875,-19.875,153.9375,0
1776973763.09,8.521,3.1867,-1.0534,1.8335,1.2753,-0.0754,-62.55,13.65,29.7,9.414,3.4453,1.7478,0.9371,0.903,1.0658,-66.9,34.95,3.45,-8.74,2.53,-13.4,-1.0025,-1.9755,1.2163,8.1875,45.0,43.1875,356.1875,-20.6875,154.4375,0
1776973763.095,7.0533,0.4166,0.1556,-0.008,1.2758,-0.3736,-62.55,13.65,29.7,7.9942,3.8403,3.3591,0.9371,0.903,1.0658,-66.9,34.95,3.45,-7.33,-0.43,-11.43,-0.7483,-1.2305,0.949,8.1875,45.0,43.1875,356.1875,-20.6875,154.4375,0
1776973763.103,3.8355,-2.8778,2.2936,-1.9225,2.1109,-0.4639,-60.75,10.2,31.05,7.9942,3.8403,3.3591,0.7256,0.7266,0.9113,-67.35,34.95,4.95,-4.04,-5.44,-8.08,-0.4843,-0.8105,0.6829,8.1875,45.0,43.1875,356.4375,-21.3125,154.75,0
1776973763.108,3.8355,-2.8778,2.2936,-1.9225,2.1109,-0.4639,-60.75,10.2,31.05,7.7883,1.1612,4.4388,0.5135,0.639,0.8468,-67.35,34.95,4.95,-4.04,-5.44,-8.08,-0.4843,-0.8105,0.6829,8.1875,45.0,43.1875,356.5625,-21.75,155.0625,0
1776973763.115,6.8307,-4.3694,0.0455,-3.3739,2.1418,-0.226,-60.75,10.2,31.05,7.367,-0.5195,3.3686,0.4133,0.6358,0.8724,-67.35,34.95,4.95,-3.81,-2.79,-8.44,-0.4625,-0.709,0.5356,8.1875,45.0,43.1875,356.6875,-22.25,155.375,0
1776973763.125,6.0693,-9.2344,2.3774,-2.9276,0.8567,-0.2713,-59.25,5.4,33.9,8.9232,-1.075,1.8387,0.1106,0.7288,0.8026,-68.4,33.0,4.5,-4.44,-3.87,-8.26,-0.54,-0.7516,0.5192,8.1875,45.0,43.1875,356.6875,-22.25,155.375,0
1776973763.13,5.521,-8.0134,7.1898,-0.9758,1.5988,0.0701,-60.9,6.75,33.45,8.9232,-1.075,1.8387,0.1106,0.7288,0.8026,-69.6,34.2,4.2,-4.44,-3.87,-8.26,-0.54,-0.7516,0.5192,8.1875,45.0,43.1875,356.6875,-22.25,155.375,0
1776973763.135,5.521,-8.0134,7.1898,-0.9758,1.5988,0.0701,-60.9,6.75,33.45,9.6726,-0.9553,1.3144,-0.0195,0.6544,0.6635,-69.6,34.2,4.2,-4.36,-3.94,-8.33,-0.4407,-0.636,0.5105,17.5,43.75,43.875,356.875,-22.6875,155.6875,0
1776973763.14,5.7341,-3.5506,4.9823,-0.5428,1.6097,0.6939,-63.3,10.65,32.55,9.6726,-0.9553,1.3144,-0.0195,0.6544,0.6635,-68.1,33.0,5.7,-4.36,-3.94,-8.33,-0.4407,-0.636,0.5105,17.5,43.75,43.875,356.875,-22.6875,155.6875,0
1776973763.145,5.7341,-3.5506,4.9823,-0.5428,1.6097,0.6939,-63.3,10.65,32.55,9.8474,-0.1101,0.8212,-0.1775,0.6952,0.5782,-68.1,33.0,5.7,-4.29,-2.99,-8.9,-0.4963,-0.4843,0.4658,17.5,43.75,43.875,357.0,-23.0625,156.0,0
1776973763.15,8.1977,-2.0303,1.9369,-1.4679,0.7011,0.9233,-65.7,16.5,30.9,9.8474,-0.1101,0.8212,-0.1775,0.6952,0.5782,-69.45,34.05,5.55,-4.29,-2.99,-8.9,-0.5476,-0.4331,0.4222,17.5,43.75,43.875,357.125,-23.375,156.375,0
1776973763.156,8.1977,-2.0303,1.9369,-1.4679,0.7011,0.9233,-65.7,16.5,30.9,10.0078,1.1995,0.9984,-0.3792,0.7045,0.5556,-69.45,34.05,5.55,-4.52,-3.22,-9.01,-0.5476,-0.4331,0.4222,17.5,43.75,43.875,357.25,-23.6875,156.6875,0
1776973763.165,9.3087,-2.2889,-1.0774,-2.5658,0.0629,1.0059,-67.2,17.25,30.15,9.9886,1.8651,1.6688,-0.5556,0.6422,0.55,-70.05,32.55,4.95,-4.69,-3.2,-8.83,-0.5323,-0.4342,0.3709,17.5,43.75,43.875,357.25,-23.6875,156.6875,0
1776973763.175,10.8362,-2.8012,-0.5291,-2.299,-0.4074,1.1072,-67.2,17.25,30.15,9.6917,2.5067,1.889,-0.5785,0.5684,0.5772,-70.05,33.0,7.5,-4.38,-3.17,-8.63,-0.4658,-0.3883,0.2967,17.5,43.75,43.875,357.3125,-23.9375,157.0,0
1776973763.18,11.6358,-1.5969,1.2809,-1.4765,-0.408,1.0469,-70.2,20.4,29.25,9.6917,2.5067,1.889,-0.5785,0.5684,0.5772,-70.05,33.0,7.5,-4.38,-3.17,-8.63,-0.4658,-0.3883,0.2967,17.5,43.75,43.875,357.375,-24.1875,157.1875,0
1776973763.185,11.6358,-1.5969,1.2809,-1.4765,-0.408,1.0469,-70.2,20.4,29.25,9.5409,3.0215,1.5993,-0.4093,0.4834,0.6009,-70.05,33.0,7.5,-4.51,-3.32,-8.5,-0.3785,-0.3229,0.2487,19.1875,42.375,44.5625,357.375,-24.1875,157.1875,0
1776973763.19,11.8082,1.6735,3.8738,-0.4602,-0.1881,0.789,-70.2,21.15,26.85,9.5409,3.0215,1.5993,-0.4093,0.4834,0.6009,-70.5,32.4,6.9,-4.51,-3.32,-8.5,-0.3785,-0.3229,0.2487,19.1875,42.375,44.5625,357.4375,-24.3125,157.4375,0
1776973763.195,11.8082,1.6735,3.8738,-0.4602,-0.1881,0.789,-70.2,21.15,26.85,9.6175,3.146,1.3168,-0.1279,0.486,0.6219,-70.5,32.4,6.9,-4.45,-3.45,-8.51,-0.3131,-0.2247,0.2127,19.1875,42.375,44.5625,357.4375,-24.3125,157.4375,0
1776973763.202,9.8593,3.8595,5.9735,-0.1484,0.3464,0.4565,-70.8,21.0,24.9,10.1586,2.5905,1.2186,0.0938,0.4759,0.644,-70.5,32.4,6.9,-4.45,-3.09,-8.62,-0.2705,-0.2127,0.1778,19.1875,42.375,44.5625,357.4375,-24.4375,157.5625,0
1776973763.207,9.335,5.2433,7.2401,-0.5558,0.5388,0.2356,-71.55,20.55,26.25,10.1586,2.5905,1.2186,0.0938,0.4759,0.644,-70.8,30.3,8.25,-4.45,-3.09,-8.62,-0.2705,-0.2127,0.1778,19.1875,42.375,44.5625,357.5,-24.625,157.6875,0
1776973763.215,9.335,5.2433,7.2401,-0.5558,0.5388,0.2356,-71.55,20.55,26.25,9.8713,2.0255,1.5131,0.1271,0.4543,0.6395,-70.8,30.3,8.25,-4.4,-3.11,-8.56,-0.2094,-0.2149,0.1429,19.1875,42.375,44.5625,357.5,-24.75,157.8125,0
1776973763.225,8.9878,5.1667,6.3877,-0.9638,0.582,0.1391,-71.55,20.55,26.25,9.56,1.2546,1.8124,0.0003,0.4189,0.5907,-70.95,31.2,8.4,-4.15,-3.13,-8.45,-0.1527,-0.1822,0.1134,19.1875,42.375,44.5625,357.5,-24.75,157.8125,0
1776973763.23,8.5281,4.6136,5.1667,-1.4085,0.7392,0.146,-71.1,20.55,26.7,9.2344,0.9744,1.9034,-0.2995,0.4186,0.5684,-71.1,31.5,8.7,-4.15,-3.13,-8.45,-0.1527,-0.1822,0.1134,19.1875,42.375,44.5625,357.5,-24.75,157.8125,0
1776973763.235,8.5281,4.6136,5.1667,-1.4402,0.8095,0.2012,-71.1,20.55,26.7,9.2344,0.9744,1.9034,-0.2995,0.4186,0.5684,-71.1,31.5,8.7,-4.25,-3.3,-8.34,-0.1091,-0.1647,0.096,20.0,41.25,44.5625,357.5625,-24.8125,157.875,0
1776973763.24,8.5593,4.2425,3.5027,-1.4402,0.8095,0.2012,-72.6,20.55,27.0,9.1554,1.2043,1.4557,-0.6707,0.413,0.5886,-71.1,32.25,8.25,-4.25,-3.3,-8.34,-0.1091,-0.1647,0.096,20.0,41.25,44.5625,357.5625,-24.8125,157.875,0
1776973763.245,8.7867,4.197,2.1739,-1.3166,0.9033,0.3091,-72.6,20.55,27.0,9.1554,1.2043,1.4557,-0.6707,0.413,0.5886,-71.1,32.25,8.25,-4.17,-3.67,-8.03,-0.084,-0.1451,0.0884,20.0,41.25,44.5625,357.5625,-24.9375,157.9375,0
1776973763.25,8.7867,4.197,2.1739,-1.3166,0.9033,0.3091,-72.0,22.2,29.25,9.2943,2.296,0.8978,-0.8849,0.4541,0.6283,-71.7,31.2,10.65,-4.17,-3.67,-8.03,-0.0927,-0.1222,0.0905,20.0,41.25,44.5625,357.5625,-25.0,158.0,0
1776973763.256,8.9399,3.96,1.1277,-1.0792,0.9142,0.3864,-72.75,23.7,31.8,9.2943,2.296,0.8978,-0.8849,0.4541,0.6283,-71.7,31.2,10.65,-4.11,-3.67,-8.05,-0.0927,-0.1222,0.0905,20.0,41.25,44.5625,357.625,-25.0625,158.0625,0
1776973763.265,9.0956,2.4469,0.1844,-0.8356,0.9276,0.4151,-72.75,23.7,31.8,9.2129,3.4644,0.5459,-0.9635,0.4676,0.6654,-71.7,29.7,9.15,-4.1,-3.46,-8.16,-0.1167,-0.1134,0.0982,20.0,41.25,44.5625,357.625,-25.1875,158.1875,0
1776973763.275,9.1099,2.4277,-1.9393,-0.8559,0.9038,0.4743,-72.75,23.7,31.8,8.9495,4.1132,-0.0335,-0.9697,0.4463,0.7083,-71.7,29.7,9.15,-4.07,-3.6,-8.05,-0.1385,-0.096,0.1091,20.0,41.25,44.5625,357.625,-25.1875,158.1875,0
1776973763.28,9.1099,2.4277,-1.9393,-0.8559,0.9038,0.4743,-72.75,23.7,31.8,8.7987,4.2737,-0.1748,-0.7797,0.4767,0.7221,-71.85,29.55,10.8,-4.07,-3.6,-8.05,-0.1385,-0.096,0.1091,20.0,41.25,44.5625,357.625,-25.1875,158.1875,0
1776973763.285,9.7659,0.3711,-1.8866,-0.7514,1.2183,0.2697,-72.75,23.7,31.8,8.7987,4.2737,-0.1748,-0.7797,0.4767,0.7221,-71.85,29.55,10.8,-4.12,-3.53,-8.07,-0.1625,-0.096,0.1244,20.6875,41.0,44.5,357.6875,-25.25,158.3125,0
1776973763.29,9.7659,0.3711,-1.8866,-0.7514,1.2183,0.2697,-74.7,25.5,39.15,9.0621,4.3048,-0.3519,-0.5814,0.4938,0.7349,-73.65,28.95,11.1,-4.12,-3.53,-8.07,-0.1625,-0.096,0.1244,20.6875,41.0,44.5,357.6875,-25.25,158.3125,0
1776973763.295,9.7803,1.5251,2.2984,0.316,0.756,0.2166,-74.7,25.5,39.15,9.0621,4.3048,-0.3519,-0.5814,0.4938,0.7349,-73.65,28.95,11.1,-3.97,-3.35,-8.12,-0.1789,-0.1025,0.1396,20.6875,41.0,44.5,357.75,-25.3125,158.4375,0
1776973763.3,9.7803,1.5251,2.2984,0.316,0.756,0.2166,-75.0,27.15,40.05,8.9926,3.9409,-0.1844,-0.3078,0.4951,0.7733,-72.0,29.25,10.35,-3.97,-3.35,-8.12,-0.1942,-0.1167,0.1549,20.6875,41.0,44.5,357.75,-25.4375,158.5625,0
1776973763.306,9.5864,2.8539,3.0502,0.3858,0.5209,0.2569,-73.5,26.4,42.9,8.8538,3.201,0.5171,-0.3078,0.4951,0.7733,-72.0,29.25,10.35,-4.39,-3.3,-8.32,-0.1942,-0.1167,0.1549,20.6875,41.0,44.5,357.75,-25.4375,158.5625,0
1776973763.314,9.1004,2.8539,2.332,0.1647,0.441,0.2214,-73.5,26.4,42.9,8.8538,3.201,0.5171,-0.1551,0.5433,0.8258,-72.0,28.05,11.85,-4.35,-3.21,-8.25,-0.2149,-0.1342,0.1713,20.6875,41.0,44.5,357.8125,-25.5,158.6875,0
1776973763.32,9.1004,2.8539,2.332,0.1647,0.441,0.2214,-71.85,25.5,45.6,9.2057,2.0782,1.0056,-0.1231,0.5705,0.8513,-71.85,28.65,11.55,-4.35,-3.21,-8.25,-0.2094,-0.1233,0.1614,20.6875,41.0,44.5,357.875,-25.625,158.8125,0
1776973763.326,9.0908,2.4421,1.4772,-0.223,0.4402,0.1647,-71.85,25.5,45.6,9.2871,1.3168,1.245,-0.1431,0.5814,0.8559,-71.85,28.65,11.55,-4.22,-3.23,-8.21,-0.2094,-0.1233,0.1614,20.6875,41.0,44.5,357.875,-25.625,158.8125,0
1776973763.331,9.0908,2.4421,1.4772,-0.223,0.4402,0.1647,-71.85,25.5,45.6,9.2871,1.3168,1.245,-0.1431,0.5814,0.8559,-72.9,27.3,11.4,-4.22,-3.23,-8.21,-0.2094,-0.1233,0.1614,21.75,40.25,44.5,357.9375,-25.6875,159.0,0
1776973763.336,9.1171,1.7837,1.1468,-0.6574,0.4242,0.1228,-71.1,21.0,49.8,9.3637,1.2378,1.585,-0.17,0.5966,0.8521,-72.9,27.3,11.4,-4.17,-3.21,-8.23,-0.216,-0.1233,0.1658,21.75,40.25,44.5,357.9375,-25.6875,159.0,0
1776973763.341,9.1171,1.7837,1.1468,-0.6574,0.4242,0.1228,-71.1,21.0,49.8,9.3637,1.2378,1.585,-0.17,0.5966,0.8521,-72.9,27.3,11.4,-4.17,-3.21,-8.23,-0.216,-0.1233,0.1658,21.75,40.25,44.5,358.0,-25.8125,159.125,0
1776973763.346,9.1626,0.6967,1.4198,-0.8591,0.4818,0.0514,-70.05,17.55,49.8,9.426,0.8571,1.494,-0.292,0.5817,0.8148,-72.9,27.3,11.4,-4.13,-3.24,-8.09,-0.2291,-0.1353,0.1713,21.75,40.25,44.5,358.0,-25.8125,159.125,0
1776973763.351,9.1626,0.6967,1.4198,-0.8591,0.4818,0.0514,-70.05,17.55,49.8,9.426,0.8571,1.494,-0.292,0.5817,0.8148,-73.65,26.1,11.1,-4.13,-3.24,-8.09,-0.2313,-0.1429,0.1767,21.75,40.25,44.5,358.0625,-25.9375,159.25,0
1776973763.356,8.8202,-0.0527,1.6305,-0.8607,0.5446,-0.0205,-68.55,13.8,50.1,9.1937,0.723,1.7645,-0.393,0.5836,0.805,-73.65,26.1,11.1,-3.95,-3.53,-8.05,-0.2313,-0.1429,0.1767,21.75,40.25,44.5,358.0625,-25.9375,159.25,0
1776973763.365,9.232,0.5674,2.1476,-1.0144,0.5899,0.0091,-68.4,12.9,47.85,9.4451,0.5435,1.8316,-0.5031,0.6006,0.8215,-73.65,26.1,11.1,-4.31,-3.25,-8.14,-0.2662,-0.1614,0.1887,21.75,40.25,44.5,358.0625,-26.0,159.4375,0
1776973763.37,9.232,0.5674,2.1476,-1.0144,0.5899,0.0091,-68.4,12.9,47.85,9.4451,0.5435,1.8316,-0.5031,0.6006,0.8215,-74.1,26.7,13.05,-4.31,-3.25,-8.14,-0.2542,-0.1571,0.1909,21.75,40.25,44.5,358.125,-26.125,159.625,0
1776973763.376,8.904,1.5778,1.3001,-1.327,0.6137,0.0893,-68.4,12.9,47.85,9.4475,0.5411,1.3671,-0.631,0.5614,0.8268,-74.1,26.7,13.05,-4.29,-3.32,-8.17,-0.2542,-0.1571,0.1909,21.75,40.25,44.5,358.125,-26.125,159.625,0
1776973763.381,8.9735,1.4246,0.7422,-1.4682,0.6555,0.1564,-68.4,12.9,47.85,9.4475,0.5411,1.3671,-0.631,0.5614,0.8268,-74.85,26.4,11.25,-4.29,-3.32,-8.17,-0.2596,-0.1713,0.1909,22.1875,39.5625,44.75,358.1875,-26.25,159.75,0
1776973763.386,8.9735,1.4246,0.7422,-1.4682,0.6555,0.1564,-66.0,14.25,47.25,9.3925,0.7997,1.0367,-0.6107,0.558,0.8466,-74.85,26.4,11.25,-4.48,-2.87,-8.32,-0.2596,-0.1713,0.1909,22.1875,39.5625,44.75,358.1875,-26.25,159.75,0
1776973763.391,9.0405,0.9194,0.7614,-1.4402,0.623,0.1767,-66.0,14.25,47.25,9.3925,0.7997,1.0367,-0.6107,0.558,0.8466,-74.1,25.5,12.75,-4.48,-2.87,-8.32,-0.2367,-0.1636,0.1833,22.1875,39.5625,44.75,358.25,-26.375,159.9375,0
1776973763.396,9.0405,0.9194,0.7614,-1.4402,0.623,0.1767,-67.5,12.0,46.95,9.2727,1.0056,1.1492,-0.5057,0.5764,0.8521,-74.1,25.5,12.75,-4.57,-3.04,-8.31,-0.2367,-0.1636,0.1833,22.1875,39.5625,44.75,358.25,-26.375,159.9375,0
1776973763.403,8.7364,0.2298,1.7095,-1.2574,0.522,0.211,-67.5,12.0,46.95,9.3182,0.9122,1.0942,-0.5177,0.5646,0.8497,-73.95,25.05,13.65,-4.6,-2.95,-8.3,-0.2193,-0.1418,0.1538,22.1875,39.5625,44.75,358.3125,-26.5,160.0625,0
1776973763.407,8.7364,0.2298,1.7095,-1.2574,0.522,0.211,-68.7,13.95,45.3,9.3182,0.9122,1.0942,-0.5177,0.5646,0.8497,-73.95,25.05,13.65,-4.6,-2.95,-8.3,-0.2193,-0.1418,0.1538,22.1875,39.5625,44.75,358.3125,-26.5625,160.1875,0
1776973763.416,8.9783,0.4334,2.3655,-1.0645,0.4517,0.2574,-68.25,13.5,44.85,9.165,0.9409,1.0439,-0.5012,0.5502,0.8601,-73.95,25.05,13.65,-4.6,-2.76,-8.38,-0.1702,-0.1145,0.1189,22.1875,39.5625,44.75,358.375,-26.625,160.3125,0
1776973763.425,9.0333,0.6488,2.5259,-0.9811,0.3643,0.2793,-66.6,13.2,43.95,9.268,0.8045,1.1301,-0.4149,0.5987,0.8476,-74.55,24.0,14.25,-4.45,-2.86,-8.35,-0.1516,-0.1058,0.1025,22.1875,39.5625,44.75,358.375,-26.625,160.3125,0
1776973763.43,8.983,1.1229,2.5786,-0.9507,0.3384,0.2737,-66.6,13.2,43.95,9.3877,1.3144,1.5778,-0.4149,0.5987,0.8476,-74.55,24.0,14.25,-4.45,-2.86,-8.35,-0.1516,-0.1058,0.1025,22.1875,39.5625,44.75,358.375,-26.625,160.3125,0
1776973763.435,8.983,1.1229,2.5786,-0.9507,0.3384,0.2737,-66.6,13.2,43.95,9.3877,1.3144,1.5778,-0.3645,0.5652,0.8236,-74.55,24.0,14.25,-4.52,-2.8,-8.33,-0.132,-0.0971,0.084,23.1875,38.75,43.6875,358.375,-26.6875,160.375,0
1776973763.44,9.074,1.3216,2.8563,-0.9515,0.3208,0.2822,-66.6,13.2,43.95,9.3541,1.0511,1.9489,-0.3645,0.5652,0.8236,-75.9,23.85,13.95,-4.52,-2.8,-8.33,-0.132,-0.0971,0.084,23.1875,38.75,43.6875,358.375,-26.6875,160.375,0
1776973763.445,9.074,1.3216,2.8563,-0.9515,0.3208,0.2822,-69.0,11.25,44.1,9.3541,1.0511,1.9489,-0.3688,0.6089,0.7898,-75.9,23.85,13.95,-4.25,-3.15,-8.27,-0.1265,-0.0949,0.0764,23.1875,38.75,43.6875,358.375,-26.75,160.5,0
1776973763.45,8.8729,1.2713,3.0071,-1.011,0.3227,0.2891,-69.0,11.25,44.1,9.6941,0.6153,2.2529,-0.3512,0.619,0.7791,-75.3,22.05,14.85,-4.25,-3.15,-8.27,-0.1178,-0.1025,0.0742,23.1875,38.75,43.6875,358.375,-26.8125,160.5625,0
1776973763.456,8.8729,1.2713,3.0071,-1.011,0.3227,0.2891,-68.25,10.05,43.8,9.6941,0.6153,2.2529,-0.3512,0.619,0.7791,-75.3,22.05,14.85,-4.29,-3.2,-8.18,-0.1178,-0.1025,0.0742,23.1875,38.75,43.6875,358.4375,-26.9375,160.625,0
1776973763.465,8.849,1.0918,3.0119,-1.0616,0.3685,0.2995,-68.25,12.0,43.35,9.5313,-0.2514,2.4876,-0.3842,0.5985,0.7568,-75.6,22.5,15.6,-4.2,-3.26,-8.19,-0.0971,-0.1167,0.0818,23.1875,38.75,43.6875,358.4375,-27.0,160.6875,0
1776973763.476,8.6215,0.9529,2.5977,-1.0248,0.3632,0.3246,-67.5,10.05,44.4,9.5505,-0.8691,2.3463,-0.4338,0.6145,0.7647,-76.5,22.8,15.6,-4.58,-2.92,-8.25,-0.1036,-0.1298,0.096,23.1875,38.75,43.6875,358.4375,-27.0,160.6875,0
1776973763.48,8.5545,0.7494,2.3128,-1.0312,0.534,0.3568,-67.5,10.05,44.4,9.5026,-0.7829,1.8268,-0.555,0.579,0.7695,-76.2,21.0,15.45,-4.58,-2.92,-8.25,-0.1036,-0.1298,0.096,23.1875,38.75,43.6875,358.5,-27.0625,160.75,0
1776973763.486,8.5545,0.7494,2.3128,-1.0312,0.534,0.3568,-67.5,10.05,44.4,9.5026,-0.7829,1.8268,-0.555,0.579,0.7695,-76.2,21.0,15.45,-4.64,-2.84,-8.27,-0.1036,-0.1331,0.0993,24.0,39.1875,46.0,358.5,-27.0625,160.75,0
1776973763.49,8.6742,0.4381,1.9489,-1.0062,0.5524,0.3837,-67.5,10.05,44.4,9.1889,-0.1963,1.6735,-0.6254,0.5812,0.7557,-75.3,20.4,16.35,-4.64,-2.84,-8.27,-0.1036,-0.1331,0.0993,24.0,39.1875,46.0,358.5,-27.1875,160.8125,0
1776973763.495,8.6742,0.4381,1.9489,-1.0062,0.5524,0.3837,-69.75,7.8,45.15,9.1889,-0.1963,1.6735,-0.6254,0.5812,0.7557,-75.3,20.4,16.35,-4.63,-2.79,-8.28,-0.1047,-0.1244,0.0938,24.0,39.1875,46.0,358.5,-27.1875,160.8125,0
1776973763.5,8.9567,0.3903,1.7166,-0.9633,0.5772,0.4082,-69.75,7.8,45.15,9.0166,0.5483,1.3743,-0.6305,0.595,0.7418,-75.3,20.4,16.35,-4.63,-2.79,-8.28,-0.0982,-0.1124,0.0818,24.0,39.1875,46.0,358.5625,-27.25,160.875,0
1776973763.506,9.074,0.5339,1.6783,-0.8932,0.5734,0.4026,-69.15,9.15,45.75,9.0166,0.5483,1.3743,-0.6305,0.595,0.7418,-75.3,20.4,16.35,-4.61,-2.8,-8.25,-0.0982,-0.1124,0.0818,24.0,39.1875,46.0,358.5625,-27.3125,160.9375,0
1776973763.516,9.074,0.5339,1.6783,-0.8625,0.5955,0.3861,-68.55,9.75,46.65,8.9016,1.0726,1.3934,-0.5868,0.6299,0.7424,-77.4,20.7,16.2,-4.51,-2.79,-8.31,-0.0938,-0.0916,0.0687,24.0,39.1875,46.0,358.5625,-27.3125,160.9375,0
1776973763.526,9.5361,1.5275,1.5706,-0.8492,0.5265,0.3501,-67.5,8.55,47.25,9.0884,1.1588,1.3791,-0.5249,0.6654,0.7584,-75.45,19.05,17.4,-4.53,-2.88,-8.26,-0.0796,-0.0753,0.0633,24.0,39.1875,46.0,358.5625,-27.375,161.0,0
1776973763.531,9.5361,1.5275,1.5706,-0.8492,0.5265,0.3501,-67.5,8.55,47.25,9.4236,1.2139,1.3695,-0.5233,0.6965,0.7887,-76.2,19.5,18.0,-4.53,-2.88,-8.26,-0.0796,-0.0753,0.0633,24.0,39.1875,46.0,358.5625,-27.4375,161.0625,0
1776973763.536,9.6271,1.9944,1.5562,-0.8612,0.4149,0.2944,-68.7,8.4,48.15,9.4236,1.2139,1.3695,-0.5233,0.6965,0.7887,-76.2,19.5,18.0,-4.46,-2.91,-8.19,-0.0644,-0.0676,0.0611,23.1875,38.75,45.1875,358.5625,-27.4375,161.0625,0
1776973763.54,9.6271,1.9944,1.5562,-0.8612,0.4149,0.2944,-68.7,8.4,48.15,9.6151,1.221,1.5107,-0.5641,0.7242,0.793,-77.55,17.4,18.3,-4.46,-2.91,-8.19,-0.0644,-0.0676,0.0611,23.1875,38.75,45.1875,358.625,-27.4375,161.0625,0
1776973763.546,9.414,2.2817,1.5921,-0.8964,0.2912,0.2526,-68.7,8.4,48.15,9.6271,0.5794,2.2649,-0.5641,0.7242,0.793,-77.55,17.4,18.3,-4.21,-3.47,-8.07,-0.0415,-0.0774,0.0654,23.1875,38.75,45.1875,358.625,-27.4375,161.0625,0
1776973763.55,9.414,2.2817,1.5921,-0.8964,0.2912,0.2526,-68.7,8.4,48.15,9.6271,0.5794,2.2649,-0.5788,0.7693,0.7927,-76.05,17.7,19.05,-4.21,-3.47,-8.07,-0.0524,-0.0807,0.0753,23.1875,38.75,45.1875,358.625,-27.5,161.125,0
1776973763.556,9.1889,2.3774,1.7095,-1.0219,0.2856,0.2388,-68.4,6.9,48.15,10.0269,-0.2777,2.7318,-0.7064,0.7877,0.8532,-76.05,17.7,19.05,-4.23,-3.36,-8.24,-0.0524,-0.0807,0.0753,23.1875,38.75,45.1875,358.6875,-27.5625,161.1875,0
1776973763.566,8.9208,2.3296,2.1332,-1.2265,0.3299,0.2462,-68.55,6.75,48.0,10.1227,-0.2682,2.2482,-0.7416,0.7893,0.9273,-75.9,17.55,19.95,-4.62,-2.81,-8.34,-0.0829,-0.0698,0.0851,23.1875,38.75,45.1875,358.6875,-27.625,161.25,0
1776973763.576,8.7939,2.0758,2.9497,-1.3752,0.328,0.2827,-67.35,4.2,49.95,9.979,0.1628,2.4134,-0.7053,0.814,0.9832,-75.9,17.55,19.95,-4.96,-2.53,-8.61,-0.0796,-0.06,0.0894,23.1875,38.75,45.1875,358.6875,-27.625,161.25,0
1776973763.58,8.7939,2.0758,2.9497,-1.3752,0.328,0.2827,-68.1,4.65,49.95,9.979,0.1628,2.4134,-0.7053,0.814,0.9832,-75.6,16.5,20.55,-4.96,-2.53,-8.61,-0.0796,-0.06,0.0894,23.1875,38.75,45.1875,358.6875,-27.625,161.25,0
1776973763.586,8.8178,1.8675,3.5793,-1.3965,0.3142,0.3395,-68.1,4.65,49.95,10.0413,0.5986,2.138,-0.6933,0.8103,1.0309,-75.6,16.5,20.55,-4.6,-2.53,-8.61,-0.0447,-0.072,0.0829,24.25,38.75,44.375,358.75,-27.6875,161.3125,0
1776973763.59,8.8178,1.8675,3.5793,-1.3965,0.3142,0.3395,-68.1,4.65,49.95,10.0413,0.5986,2.138,-0.6933,0.8103,1.0309,-75.6,16.5,20.55,-4.6,-2.53,-8.61,-0.0447,-0.072,0.0829,24.25,38.75,44.375,358.75,-27.6875,161.3125,0
1776973763.595,9.1171,1.7047,3.9648,-1.3478,0.2806,0.4018,-68.1,4.65,49.95,10.1107,0.6608,1.7502,-0.5846,0.814,1.0792,-75.6,16.5,20.55,-4.45,-2.69,-8.58,0.0142,-0.0513,0.0611,24.25,38.75,44.375,358.75,-27.6875,161.3125,0
1776973763.604,9.4355,1.8076,3.8786,-1.2343,0.2068,0.4434,-69.0,4.5,50.85,10.4363,0.3232,1.9417,-0.5846,0.814,1.0792,-75.15,14.85,20.25,-3.83,-2.33,-9.36,0.0785,-0.0938,0.0764,24.25,38.75,44.375,358.8125,-27.75,161.25,0
1776973763.608,9.4355,1.8076,3.8786,-1.2343,0.2068,0.4434,-69.0,4.5,50.85,10.4363,0.3232,1.9417,-0.5489,0.8103,1.1362,-75.15,14.85,20.25,-3.83,-2.33,-9.36,0.0785,-0.0938,0.0764,24.25,38.75,44.375,358.875,-27.875,161.1875,0
1776973763.616,9.5648,2.0853,3.881,-1.145,0.1868,0.4607,-67.35,3.45,50.7,10.2352,0.0958,1.9632,-0.4922,0.8013,1.1748,-76.05,14.55,21.9,-4.24,-2.79,-8.8,0.1691,-0.168,0.1156,24.25,38.75,44.375,358.9375,-28.0625,161.0625,0
1776973763.626,9.8881,2.3176,3.6943,-1.0461,0.2254,0.4423,-68.25,3.3,51.6,10.5632,-0.1724,2.6312,-0.4341,0.8383,1.2228,-74.85,13.8,21.15,-4.08,-2.83,-8.99,0.216,-0.3098,0.12,24.25,38.75,44.375,358.9375,-28.0625,161.0625,0
1776973763.631,9.8881,2.3176,3.6943,-1.0461,0.2254,0.4423,-67.2,4.5,51.9,10.5632,-0.1724,2.6312,-0.4341,0.8383,1.2228,-74.85,13.8,21.15,-4.08,-2.83,-8.99,0.2553,-0.4123,0.1058,25.0,38.375,45.5625,359.0,-28.3125,160.9375,0
1776973763.636,10.2999,2.2697,3.4524,-0.9737,0.3032,0.3864,-67.2,4.5,51.9,10.9223,0.2801,2.7366,-0.3429,0.8343,1.2766,-75.3,13.8,23.4,-4.26,-2.62,-8.96,0.2553,-0.4123,0.1058,25.0,38.375,45.5625,359.0,-28.3125,160.9375,0
1776973763.641,10.2999,2.2697,3.4524,-0.9009,0.3299,0.3019,-67.8,3.75,49.5,10.9223,0.2801,2.7366,-0.3429,0.8343,1.2766,-75.3,13.8,23.4,-4.26,-2.62,-8.96,0.3174,-0.5225,0.0949,25.0,38.375,45.5625,359.0625,-28.625,160.75,0
1776973763.646,10.9104,1.7837,3.2753,-0.9009,0.3299,0.3019,-67.8,3.75,49.5,11.2168,0.0407,1.9728,-0.4922,0.8487,1.3302,-75.3,13.8,23.4,-4.12,-2.29,-9.45,0.3174,-0.5225,0.0949,25.0,38.375,45.5625,359.0625,-28.625,160.75,0
1776973763.655,11.473,1.2713,3.0718,-0.733,0.3653,0.2009,-67.8,3.75,49.5,11.1474,-0.3184,1.8028,-0.5569,0.8548,1.327,-76.65,12.45,23.7,-3.77,-3.41,-9.55,0.4025,-0.6523,0.1025,25.0,38.375,45.5625,359.125,-28.9375,160.4375,0
1776973763.661,11.3557,1.0415,2.5355,-0.514,0.3304,0.129,-69.0,4.05,50.55,11.0277,-0.6177,0.8739,-0.5569,0.8548,1.327,-76.65,12.45,23.7,-3.77,-3.41,-9.55,0.468,-0.8323,0.1287,25.0,38.375,45.5625,359.1875,-29.4375,160.1875,0
1776973763.667,11.3557,1.0415,2.5355,-0.514,0.3304,0.129,-69.0,4.05,50.55,11.0277,-0.6177,0.8739,-0.6598,0.9222,1.3398,-76.65,12.45,23.7,-3.78,-3.52,-9.56,0.468,-0.8323,0.1287,25.0,38.375,45.5625,359.25,-30.0,159.8125,0
1776973763.676,10.8242,1.4772,1.8292,-0.4314,0.3347,0.0592,-67.35,3.45,52.05,10.999,-0.4405,0.8212,-0.7829,0.9774,1.3784,-75.9,10.95,24.0,-3.87,-3.22,-9.28,0.4592,-1.0221,0.1625,25.0,38.375,45.5625,359.25,-30.0,159.8125,0
1776973763.681,10.6614,2.2434,1.2186,-0.4586,0.3022,-0.0304,-69.15,4.65,49.95,10.9391,0.316,0.7638,-0.9086,1.0051,1.4533,-75.9,10.95,24.0,-3.87,-3.22,-9.28,0.4592,-1.0221,0.1625,25.0,38.375,45.5625,359.375,-30.625,159.5,0
1776973763.686,10.6614,2.2434,1.2186,-0.4586,0.3022,-0.0304,-69.15,4.65,49.95,10.9391,0.316,0.7638,-0.9086,1.0051,1.4533,-73.95,10.05,25.05,-3.99,-2.74,-9.42,0.4952,-1.2108,0.216,25.375,38.0625,44.0,359.375,-30.625,159.5,0
1776973763.691,10.4675,2.6983,1.0319,-0.5854,0.2361,-0.1655,-68.25,3.75,51.9,10.9966,1.075,0.4214,-0.9385,1.032,1.5434,-73.95,10.05,25.05,-3.99,-2.74,-9.42,0.4952,-1.2108,0.216,25.375,38.0625,44.0,359.4375,-31.4375,159.0625,0
1776973763.696,10.4675,2.6983,1.0319,-0.5854,0.2361,-0.1655,-68.25,3.75,51.9,10.9966,1.075,0.4214,-0.9385,1.032,1.5434,-74.85,9.15,25.35,-3.84,-2.71,-9.51,0.588,-1.3864,0.2662,25.375,38.0625,44.0,359.4375,-31.4375,159.0625,0
1776973763.705,10.8864,3.4716,0.644,-0.7376,0.1884,-0.3163,-68.25,3.75,51.9,11.3318,1.6233,0.1604,-0.8847,1.0864,1.6281,-76.95,8.1,28.05,-3.89,-2.51,-9.6,0.6872,-1.6122,0.3163,25.375,38.0625,44.0,359.625,-32.3125,158.625,0
1776973763.712,11.5041,4.3622,0.146,-0.7549,-0.0147,-0.4922,-67.35,3.15,51.75,12.1171,1.9824,-0.2298,-0.8644,1.1234,1.7131,-76.2,6.6,27.0,-3.89,-2.51,-9.6,0.7756,-1.9079,0.3905,25.375,38.0625,44.0,359.75,-33.375,158.0625,0
1776973763.717,11.5041,4.3622,0.146,-0.7549,-0.0147,-0.4922,-67.35,3.15,51.75,12.1171,1.9824,-0.2298,-0.8644,1.1234,1.7131,-76.2,6.6,27.0,-3.32,-2.57,-10.18,0.7756,-1.9079,0.3905,25.375,38.0625,44.0,0.0,-34.625,157.4375,0
1776973763.726,11.497,5.2337,0.0982,-0.7682,-0.2212,-0.6856,-67.2,0.75,50.55,13.0125,1.6089,-0.2777,-0.9049,1.1509,1.817,-73.95,6.15,27.75,-3.09,-3.54,-10.16,0.8399,-2.2395,0.5247,25.375,38.0625,44.0,0.0,-34.625,157.4375,0
1776973763.731,12.0333,6.043,0.4932,-0.7762,-0.4839,-0.9054,-67.65,0.9,50.7,14.0228,1.5419,-0.3903,-0.8497,1.2113,1.967,-73.95,6.15,27.75,-3.09,-3.54,-10.16,0.8399,-2.2395,0.5247,25.375,38.0625,44.0,0.0,-34.625,157.4375,0
1776973763.736,12.0333,6.043,0.4932,-0.7762,-0.4839,-0.9054,-67.65,0.9,50.7,14.0228,1.5419,-0.3903,-0.8497,1.2113,1.967,-73.95,6.15,27.75,-3.41,-3.05,-10.08,0.9261,-2.6365,0.7156,27.5625,40.25,42.375,0.3125,-36.125,156.8125,0
1776973763.741,11.6023,6.3614,0.5866,-0.8452,-1.003,-1.0896,-65.7,-2.25,51.9,15.2582,1.1684,-1.5969,-0.918,1.2692,2.1791,-73.95,6.15,27.75,-3.41,-3.05,-10.08,0.9261,-2.6365,0.7156,27.5625,40.25,42.375,0.3125,-36.125,156.8125,0
1776973763.746,11.6023,6.3614,0.5866,-0.8452,-1.003,-1.0896,-65.7,-2.25,51.9,15.2582,1.1684,-1.5969,-0.918,1.2692,2.1791,-73.95,2.25,29.55,-3.01,-3.33,-10.91,0.9785,-3.0729,0.8967,27.5625,40.25,42.375,0.625,-37.875,156.0625,0
1776973763.751,11.4419,5.3989,0.5674,-0.6427,-1.509,-1.1924,-65.7,-2.25,51.9,16.6493,0.6967,-2.8659,-1.1111,1.3091,2.3286,-73.95,2.25,29.55,-3.01,-3.33,-10.91,1.0374,-3.5267,1.0712,27.5625,40.25,42.375,54.0625,-39.9375,155.3125,0
1776973763.757,11.4419,5.3989,0.5674,-0.6427,-1.509,-1.1924,-65.7,-2.25,51.9,17.2861,0.0575,-3.8834,-1.1111,1.3091,2.3286,-73.95,2.25,29.55,-2.64,-3.7,-11.06,1.0374,-3.5267,1.0712,27.5625,40.25,42.375,52.3125,-42.25,154.4375,0
1776973763.766,11.5688,4.5155,1.4174,0.6523,-1.7842,-1.2809,-65.7,-2.25,51.9,17.2861,0.0575,-3.8834,-1.3725,1.3875,2.3798,-73.2,0.3,29.25,-2.48,-4.5,-11.31,1.0625,-4.0579,1.273,27.5625,40.25,42.375,52.3125,-42.25,154.4375,0
1776973763.776,10.8457,4.7285,1.9537,1.3955,-1.5567,-1.3715,-66.45,-2.25,49.8,13.7499,-1.7334,-2.6959,-1.7032,1.5497,2.3236,-71.55,-1.35,29.7,-4.57,-6.88,-11.01,1.1203,-4.6949,1.5403,27.5625,40.25,42.375,50.3125,-45.0,153.4375,0
1776973763.781,11.4227,3.4572,-1.6616,1.8743,-1.8008,-1.4869,-66.75,-2.55,48.45,13.7499,-1.7334,-2.6959,-1.9873,1.5894,2.1405,-71.55,-1.35,29.7,-4.57,-6.88,-11.01,1.1203,-4.6949,1.5403,27.5625,40.25,42.375,48.0,-48.125,152.375,0
1776973763.786,11.4227,3.4572,-1.6616,1.8743,-1.8008,-1.4869,-66.75,-2.55,48.45,10.9295,-1.731,0.7853,-1.9873,1.5894,2.1405,-72.45,-1.95,29.85,-6.83,-6.15,-10.39,1.0952,-5.3974,1.861,33.5,41.0,36.0625,48.0,-48.125,152.375,0
1776973763.791,11.9064,1.3791,-3.0694,1.9676,-2.197,-1.6497,-68.1,0.45,47.1,10.9295,-1.731,0.7853,-1.9785,1.6156,1.9958,-72.45,-1.95,29.85,-6.83,-6.15,-10.39,1.0952,-5.3974,1.861,33.5,41.0,36.0625,45.4375,-51.625,151.1875,0
1776973763.796,11.9064,1.3791,-3.0694,1.9676,-2.197,-1.6497,-68.1,0.45,47.1,9.572,-0.9984,3.6105,-1.9785,1.6156,1.9958,-73.2,-4.2,30.3,-10.27,-4.69,-10.33,1.0374,-6.053,2.1773,33.5,41.0,36.0625,45.4375,-51.625,151.1875,0
1776973763.802,12.038,-0.7302,-2.6911,1.7038,-2.42,-1.6968,-68.25,0.75,45.9,9.572,-0.9984,3.6105,-1.7845,1.6729,1.9569,-73.2,-4.2,30.3,-13.59,-4.4,-10.99,1.2021,-6.5221,2.318,33.5,41.0,36.0625,43.0625,-55.4375,149.625,0
1776973763.807,12.2775,-2.138,-1.5634,0.9169,-2.464,-1.687,-68.25,0.75,45.9,9.6103,-0.4477,4.7956,-1.5378,1.6955,1.9068,-73.2,-4.2,30.3,-13.59,-4.4,-10.99,1.2021,-6.5221,2.318,33.5,41.0,36.0625,41.3125,-59.1875,147.4375,0
1776973763.816,12.9957,-2.7773,0.2083,0.0301,-2.481,-1.7131,-68.25,0.75,45.9,10.4052,-0.7087,5.1523,-1.1977,1.7424,1.8207,-68.7,-7.35,32.55,-15.38,-5.89,-11.41,1.6024,-6.5581,2.2853,33.5,41.0,36.0625,41.3125,-59.1875,147.4375,0
1776973763.826,13.2088,-3.1388,2.0758,-0.5921,-2.5975,-1.7371,-67.65,3.9,40.35,11.5927,-1.0199,4.6855,-0.6968,1.74,1.7269,-68.7,-7.35,32.55,-15.8,-7.56,-12.66,2.0453,-6.2974,2.1686,33.5,41.0,36.0625,40.1875,-62.75,144.625,0
1776973763.831,13.2088,-3.1388,2.0758,-0.5921,-2.5975,-1.7371,-70.05,4.5,39.9,11.5927,-1.0199,4.6855,-0.6968,1.74,1.7269,-68.7,-7.35,32.55,-15.8,-7.56,-12.66,2.0453,-6.2974,2.1686,33.5,41.0,36.0625,40.1875,-62.75,144.625,0
1776973763.836,13.0388,-3.462,3.6895,-1.1447,-2.5045,-1.7213,-66.9,4.2,34.65,11.7364,-1.7597,3.8307,-0.1322,1.6148,1.6278,-67.5,-9.3,34.05,-12.35,-7.79,-11.1,2.3311,-5.38,2.2057,43.0,39.1875,22.6875,39.5625,-65.875,141.625,0
1776973763.841,13.0388,-3.462,3.6895,-1.1447,-2.5045,-1.7213,-66.9,4.2,34.65,11.7364,-1.7597,3.8307,-0.1322,1.6148,1.6278,-67.5,-9.3,34.05,-12.35,-7.79,-11.1,2.3311,-5.38,2.2057,43.0,39.1875,22.6875,39.0,-68.9375,137.9375,0
1776973763.846,12.7132,-3.4453,4.4987,-1.4549,-2.2996,-1.676,-67.35,4.2,34.95,11.2049,-2.8347,3.972,0.4818,1.5327,1.4621,-66.9,-9.45,34.2,-6.97,-7.37,-10.85,2.3311,-5.38,2.2057,43.0,39.1875,22.6875,39.0,-68.9375,137.9375,0
1776973763.851,12.7132,-3.4453,4.4987,-1.4549,-2.2996,-1.676,-67.35,4.2,34.95,11.2049,-2.8347,3.972,0.4818,1.5327,1.4621,-66.9,-9.45,34.2,-6.97,-7.37,-10.85,2.2526,-5.0636,2.3616,43.0,39.1875,22.6875,38.375,-71.875,133.8125,0
1776973763.857,12.3325,-2.897,4.7956,-1.4615,-2.0518,-1.6265,-67.35,4.2,34.95,9.2991,-3.3279,4.8626,0.9942,1.712,1.21,-65.85,-10.65,34.95,-3.16,-6.95,-10.16,2.2526,-5.0636,2.3616,43.0,39.1875,22.6875,37.8125,-74.625,129.1875,0
1776973763.866,11.4467,-2.5642,4.3503,-1.4131,-1.9332,-1.5463,-69.45,5.7,30.45,8.3653,-3.7397,6.5457,1.137,1.6462,0.9523,-65.1,-9.15,34.95,-0.88,-6.01,-8.95,2.3115,-4.6786,2.5405,43.0,39.1875,22.6875,37.8125,-74.625,129.1875,0
1776973763.876,10.9702,-1.5969,3.6368,-1.2846,-1.9566,-1.4477,-70.65,7.2,29.25,7.4723,-5.7197,5.8754,1.1898,1.3443,0.7245,-64.8,-9.3,36.6,-5.22,-2.47,-8.8,2.1271,-4.1997,3.0751,43.0,39.1875,22.6875,36.9375,-77.4375,124.625,0
1776973763.881,10.9702,-1.5969,3.6368,-1.2846,-1.9566,-1.4477,-70.65,7.2,29.25,7.4723,-5.7197,5.8754,1.1898,1.3443,0.7245,-64.8,-9.3,36.6,-5.22,-2.47,-8.8,2.1271,-4.1997,3.0751,43.0,39.1875,22.6875,36.9375,-77.4375,124.625,0
1776973763.886,10.2855,-0.2753,2.7509,-1.0408,-1.873,-1.3592,-70.65,5.7,27.9,6.3877,-8.0756,8.0565,1.6467,0.9478,0.5612,-64.8,-8.1,35.85,-18.61,-9.84,-11.86,1.6439,-3.6259,3.2299,48.5625,34.75,7.0,35.75,-80.0,120.0,0
1776973763.891,10.2855,-0.2753,2.7509,-1.0408,-1.873,-1.3592,-70.65,5.7,27.9,6.3877,-8.0756,8.0565,1.6467,0.9478,0.5612,-64.8,-8.1,35.85,-18.61,-9.84,-11.86,1.6439,-3.6259,3.2299,48.5625,34.75,7.0,35.75,-80.0,120.0,0
1776973763.896,10.6398,0.2418,1.4844,-0.8876,-1.8964,-1.2534,-68.4,8.7,27.6,4.9201,-8.2696,9.517,1.5937,0.8202,0.3411,-64.8,-8.1,35.85,-12.87,-11.58,-11.76,1.3963,-1.6242,2.6453,48.5625,34.75,7.0,35.0,-81.75,118.875,0
1776973763.904,10.6973,0.7278,0.9673,-0.9934,-1.8197,-1.2532,-68.4,8.7,27.6,4.4149,-7.5465,8.1163,0.8804,0.6001,0.0176,-64.5,-7.35,36.9,-9.65,-10.65,-10.16,1.0177,0.5825,1.7977,48.5625,34.75,7.0,34.625,-82.4375,124.0625,0
1776973763.909,10.6973,0.7278,0.9673,-0.9934,-1.8197,-1.2532,-70.65,8.4,27.9,4.4149,-7.5465,8.1163,0.8804,0.6001,0.0176,-64.5,-7.35,36.9,-9.65,-10.65,-10.16,1.0177,0.5825,1.7977,48.5625,34.75,7.0,34.5,-82.125,133.375,0
1776973763.917,10.4794,1.9321,1.3575,-0.9422,-1.6936,-1.283,-70.65,8.4,27.9,4.2569,-5.8969,6.6104,0.1074,0.1524,-0.3344,-64.5,-6.6,37.65,-2.36,-7.83,-9.27,0.5683,2.1588,1.0625,48.5625,34.75,7.0,34.5,-81.125,142.25,0
1776973763.926,10.1993,3.5626,1.7071,-0.6462,-1.3712,-1.3659,-70.65,7.95,26.85,3.79,-4.6088,4.525,-0.6123,-0.105,-0.6646,-63.15,-7.95,37.5,-0.97,-5.97,-8.07,0.2454,2.9267,0.5629,48.5625,34.75,7.0,34.5,-81.125,142.25,0
1776973763.931,10.1993,3.5626,1.7071,-0.1908,-1.2843,-1.4735,-70.65,7.95,26.85,4.1827,-4.1324,2.7557,-1.2295,-0.3211,-0.9643,-63.15,-7.95,37.5,-0.97,-5.97,-8.07,0.2454,2.9267,0.5629,50.75,27.75,-4.1875,34.6875,-79.6875,148.6875,0
1776973763.936,9.9479,4.0438,1.6927,-0.1908,-1.2843,-1.4735,-68.4,10.2,26.85,4.1827,-4.1324,2.7557,-1.2295,-0.3211,-0.9643,-64.05,-7.8,37.65,0.44,-4.83,-6.39,0.132,3.2038,0.1909,50.75,27.75,-4.1875,34.6875,-79.6875,148.6875,0
1776973763.941,9.9479,4.0438,1.6927,-0.0394,-0.996,-1.5335,-68.4,10.2,26.85,4.221,-3.6895,3.5937,-1.3161,-0.5641,-1.2127,-64.05,-7.8,37.65,0.44,-4.83,-6.39,0.132,3.2038,0.1909,50.75,27.75,-4.1875,35.0,-78.125,152.8125,0
1776973763.946,9.5624,3.8188,1.7933,-0.0394,-0.996,-1.5335,-70.2,10.2,27.9,4.221,-3.6895,3.5937,-1.3161,-0.5641,-1.2127,-64.35,-5.55,36.0,1.92,-3.29,-3.43,0.0676,3.2365,-0.1156,50.75,27.75,-4.1875,35.0,-78.125,152.8125,0
1776973763.952,9.4427,3.6512,2.1572,0.1234,-0.8194,-1.5673,-70.2,10.2,27.9,4.1061,-3.1268,3.4955,-1.3323,-0.8164,-1.3622,-64.35,-5.55,36.0,1.92,-3.29,-3.43,-0.0109,3.1492,-0.3971,50.75,27.75,-4.1875,35.4375,-76.4375,155.375,0
1776973763.957,9.4427,3.6512,2.1572,0.1234,-0.8194,-1.5673,-69.3,10.05,29.55,4.1061,-3.1268,3.4955,-1.3323,-0.8164,-1.3622,-64.8,-6.6,36.6,1.75,-2.96,-3.02,-0.0109,3.1492,-0.3971,50.75,27.75,-4.1875,35.9375,-74.75,156.8125,0
1776973763.966,9.7181,2.8323,2.1548,0.4239,-0.7186,-1.5772,-69.3,10.05,29.55,3.9073,-2.8132,3.5961,-1.2785,-1.1085,-1.4762,-64.8,-6.6,36.6,1.29,-2.72,-3.08,-0.0884,3.0129,-0.6338,50.75,27.75,-4.1875,36.5,-73.125,157.5,0
1776973763.976,10.1514,2.3391,2.4301,0.5556,-0.725,-1.5303,-67.35,9.45,30.75,3.802,-2.8132,3.3806,-1.2167,-1.416,-1.6238,-66.9,-6.75,34.95,-0.28,-2.93,-3.93,-0.1647,2.8907,-0.877,50.75,27.75,-4.1875,36.5,-73.125,157.5,0
1776973763.981,9.9479,1.9058,2.7414,0.6299,-0.712,-1.457,-67.35,9.45,30.75,3.4907,-3.1963,3.4357,-1.0123,-1.5934,-1.7757,-66.9,-6.75,34.95,-0.28,-2.93,-3.93,-0.1647,2.8907,-0.877,50.75,27.75,-4.1875,36.5,-73.125,157.5,0
1776973763.986,9.9479,1.9058,2.7414,0.6299,-0.712,-1.457,-67.5,11.55,31.35,3.4907,-3.1963,3.4357,-1.0123,-1.5934,-1.7757,-66.9,-6.75,34.95,-1.46,-3.18,-4.51,-0.2825,2.8482,-1.1574,50.5,27.0,3.875,37.1875,-71.375,157.6875,0
1776973763.991,9.2727,1.3503,2.4636,0.6027,-0.8631,-1.3771,-67.5,11.55,31.35,3.5841,-3.4788,3.9792,-0.7123,-1.6752,-1.9366,-66.9,-6.75,34.95,-1.46,-3.18,-4.51,-0.2825,2.8482,-1.1574,50.5,27.0,3.875,37.1875,-71.375,157.6875,0
1776973763.996,9.2727,1.3503,2.4636,0.6027,-0.8631,-1.3771,-65.55,12.45,31.8,3.5841,-3.4788,3.9792,-0.7123,-1.6752,-1.9366,-66.75,-4.65,32.55,-2.57,-3.53,-5.17,-0.4189,2.9463,-1.4432,50.5,27.0,3.875,38.0,-69.5625,157.5625,0
1776973764.004,8.4108,1.2306,2.2027,0.5921,-0.8063,-1.2812,-67.2,12.0,30.6,3.9241,-3.6583,4.0677,-0.392,-1.7813,-2.0851,-66.75,-4.65,32.55,-3.35,-3.57,-5.81,-0.5552,3.1841,-1.7028,50.5,27.0,3.875,38.875,-67.625,157.375,0
1776973764.009,7.7907,0.8571,2.0734,0.5684,-0.8426,-1.1572,-67.2,12.0,30.6,4.3503,-3.6703,4.0773,-0.1199,-1.873,-2.225,-67.65,-4.5,30.45,-3.35,-3.57,-5.81,-0.5552,3.1841,-1.7028,50.5,27.0,3.875,39.875,-65.4375,157.1875,0
1776973764.017,7.7907,0.8571,2.0734,0.5684,-0.8426,-1.1572,-67.2,12.0,30.6,4.7381,-3.5362,3.7852,-0.1199,-1.873,-2.225,-70.05,-2.85,31.65,-3.96,-2.84,-6.28,-0.6425,3.4699,-1.9144,50.5,27.0,3.875,41.125,-63.0625,157.0,0
1776973764.027,7.5968,0.6632,1.8483,0.5415,-0.6712,-1.0315,-67.2,12.0,30.6,5.5162,-3.3639,3.9576,-0.0405,-1.9364,-2.3763,-69.75,-3.45,30.3,-3.88,-2.1,-6.25,-0.6218,3.7579,-2.0617,50.5,27.0,3.875,41.125,-63.0625,157.0,0
1776973764.031,7.1539,0.6991,1.9369,0.6129,-0.6131,-0.9497,-67.2,12.0,30.6,5.5162,-3.3639,3.9576,-0.0237,-2.0003,-2.5311,-69.75,-3.45,30.3,-3.88,-2.1,-6.25,-0.6218,3.7579,-2.0617,50.5,27.0,3.875,41.125,-63.0625,157.0,0
1776973764.037,7.1539,0.6991,1.9369,0.6129,-0.6131,-0.9497,-65.7,14.25,29.85,6.2393,-3.2394,3.9576,-0.0624,-2.1101,-2.6529,-69.75,-3.45,30.3,-3.76,-1.38,-6.28,-0.4625,3.9728,-2.1206,46.0625,29.375,12.375,42.625,-60.5625,156.875,0
1776973764.041,6.766,0.7159,1.8914,0.8649,-0.3962,-0.8591,-65.7,14.25,29.85,6.2393,-3.2394,3.9576,-0.0624,-2.1101,-2.6529,-69.75,-3.45,30.3,-3.76,-1.38,-6.28,-0.4625,3.9728,-2.1206,46.0625,29.375,12.375,42.625,-60.5625,156.875,0
1776973764.047,6.766,0.7159,1.8914,0.8649,-0.3962,-0.8591,-66.0,15.3,30.15,6.675,-3.3064,3.9887,-0.0837,-2.1949,-2.7987,-70.95,0.0,29.55,-4.47,-0.94,-6.79,-0.1898,4.1168,-2.1086,46.0625,29.375,12.375,44.4375,-58.0,156.6875,0
1776973764.051,6.8235,0.5148,1.4724,1.1269,-0.2721,-0.7434,-66.0,15.3,30.15,6.675,-3.3064,3.9887,-0.0837,-2.1949,-2.7987,-70.95,0.0,29.55,-4.47,-0.94,-6.79,0.1134,4.2313,-2.0213,46.0625,29.375,12.375,46.75,-55.375,156.4375,0
1776973764.057,6.8235,0.5148,1.4724,1.2958,-0.1367,-0.64,-65.25,15.0,31.35,6.8091,-3.7038,4.1252,0.0794,-2.3377,-2.9444,-70.95,0.0,29.55,-5.18,-1.52,-7.23,0.1134,4.2313,-2.0213,46.0625,29.375,12.375,49.3125,-52.75,156.3125,0
1776973764.067,6.9264,0.2298,1.2019,1.2958,-0.1367,-0.64,-64.05,14.4,28.95,6.6367,-3.4405,4.2856,0.0725,-2.46,-3.124,-73.2,3.45,26.55,-6.0,-2.29,-7.58,0.3262,4.384,-1.8697,46.0625,29.375,12.375,49.3125,-52.75,156.3125,0
1776973764.076,7.1922,-0.237,1.0942,1.3336,-0.0975,-0.373,-64.05,14.4,28.95,7.0533,-2.7509,3.9337,0.0069,-2.5714,-3.3255,-74.4,3.0,27.0,-6.24,-3.25,-7.88,0.4069,4.5695,-1.6744,46.0625,29.375,12.375,52.125,-50.0625,156.3125,0
1776973764.081,7.3095,-0.4549,1.1325,1.3336,-0.0975,-0.373,-64.05,14.4,28.95,7.0533,-2.7509,3.9337,0.0069,-2.5714,-3.3255,-74.4,3.0,27.0,-6.24,-3.25,-7.88,0.4069,4.5695,-1.6744,46.0625,29.375,12.375,55.125,-47.375,156.4375,0
1776973764.086,7.3095,-0.4549,1.1325,1.2388,-0.0629,-0.2502,-65.7,16.05,29.55,7.8721,-2.2266,3.7278,0.0445,-2.6958,-3.5365,-75.3,4.8,24.6,-6.23,-3.18,-7.89,0.4069,4.7091,-1.4421,36.875,33.375,21.0,55.125,-47.375,156.4375,0
1776973764.091,7.355,-0.6201,1.312,1.2388,-0.0629,-0.2502,-65.7,16.05,29.55,7.8721,-2.2266,3.7278,0.0445,-2.6958,-3.5365,-75.3,4.8,24.6,-6.23,-3.18,-7.89,0.4069,4.7091,-1.4421,36.875,33.375,21.0,55.125,-47.375,156.4375,0
1776973764.096,7.5681,-0.7877,1.1564,1.0861,-0.0093,-0.1466,-63.3,15.9,28.2,8.4922,-2.9281,3.632,0.2257,-2.8581,-3.6588,-76.65,4.65,23.7,-6.19,-2.82,-7.84,0.4145,4.7266,-1.1792,36.875,33.375,21.0,58.1875,-44.6875,156.625,0
1776973764.103,7.5681,-0.7877,1.1564,1.0861,-0.0093,-0.1466,-63.9,15.0,26.25,9.1913,-3.802,3.1436,0.2257,-2.8581,-3.6588,-76.65,4.65,23.7,-6.31,-2.66,-8.14,0.48,4.5815,-0.8868,36.875,33.375,21.0,61.4375,-42.1875,156.875,0
1776973764.108,7.8051,-0.9194,1.1061,0.9377,-0.0368,-0.0805,-63.9,15.0,26.25,9.1913,-3.802,3.1436,0.4644,-2.8954,-3.638,-76.65,8.1,23.25,-6.31,-2.66,-8.14,0.48,4.5815,-0.8868,36.875,33.375,21.0,14.875,-39.8125,157.125,0
1776973764.117,7.6471,-1.4653,0.7494,0.7544,-0.0597,-0.0405,-64.65,15.0,27.0,9.6798,-4.0654,2.8132,0.5233,-2.8943,-3.569,-75.6,7.95,20.55,-7.0,-3.25,-8.66,0.5847,4.3535,-0.5978,36.875,33.375,21.0,15.25,-37.625,157.25,0
1776973764.127,7.5633,-1.3288,0.565,0.5692,-0.1092,-0.0003,-64.65,15.0,27.0,9.9455,-4.7812,3.4165,0.2899,-2.9463,-3.5501,-75.6,7.95,20.55,-7.82,-3.92,-9.48,0.7112,4.0972,-0.3971,36.875,33.375,21.0,15.25,-37.625,157.25,0
1776973764.132,7.5633,-1.3288,0.565,0.5692,-0.1092,-0.0003,-64.65,15.0,27.0,9.6558,-5.7221,4.2186,0.2899,-2.9463,-3.5501,-75.6,7.95,20.55,-7.82,-3.92,-9.48,0.7112,4.0972,-0.3971,36.875,33.375,21.0,15.25,-37.625,157.25,0
1776973764.137,7.2425,-1.257,0.1796,0.4112,-0.1426,0.0314,-64.65,15.0,27.0,9.6558,-5.7221,4.2186,-0.0397,-2.7755,-3.581,-76.8,14.25,17.1,-9.26,-4.3,-10.76,0.8858,3.9466,-0.372,27.75,32.875,26.5,15.5625,-35.5,157.25,0
1776973764.142,7.2425,-1.257,0.1796,0.4112,-0.1426,0.0314,-64.65,14.25,27.75,9.8689,-5.6407,5.3295,-0.0397,-2.7755,-3.581,-76.8,14.25,17.1,-9.26,-4.3,-10.76,0.8858,3.9466,-0.372,27.75,32.875,26.5,15.5625,-35.5,157.25,0
1776973764.147,6.7852,-0.9936,-0.0527,0.1665,-0.0368,0.0733,-64.65,14.25,27.75,9.8689,-5.6407,5.3295,-0.5028,-2.8797,-3.6119,-77.4,14.85,17.4,-10.26,-5.1,-11.83,1.0996,4.0121,-0.5291,27.75,32.875,26.5,15.875,-33.375,157.0625,0
1776973764.153,6.7852,-0.9936,-0.0527,0.1665,-0.0368,0.0733,-65.7,14.55,27.0,10.7021,-5.2984,5.0039,-1.0568,-2.9521,-3.6527,-77.4,14.85,17.4,-9.68,-5.59,-11.59,1.2828,4.1648,-0.7429,27.75,32.875,26.5,16.125,-31.0625,156.6875,0
1776973764.158,6.7062,-0.7278,-0.2729,-0.0509,0.0394,0.1314,-65.7,14.55,27.0,10.7021,-5.2984,5.0039,-1.0568,-2.9521,-3.6527,-78.75,16.95,14.55,-9.68,-5.59,-11.59,1.2828,4.1648,-0.7429,27.75,32.875,26.5,16.3125,-28.75,156.1875,0
1776973764.167,7.0988,-0.4046,-0.3831,-0.2659,0.0826,0.1924,-66.0,15.0,25.65,10.8457,-4.6232,4.13,-1.384,-2.9471,-3.7475,-79.65,19.5,13.95,-9.34,-6.08,-11.01,1.3941,4.215,-0.8727,27.75,32.875,26.5,16.4375,-26.4375,155.6875,0
1776973764.177,7.197,0.0503,-0.395,-0.5604,0.129,0.2718,-64.05,14.4,25.35,10.5225,-3.6152,2.8898,-1.5095,-2.9082,-3.876,-77.55,18.9,11.25,-9.25,-6.62,-10.78,1.4246,4.143,-0.8825,27.75,32.875,26.5,16.4375,-26.4375,155.6875,0
1776973764.182,7.197,0.0503,-0.395,-0.5604,0.129,0.2718,-64.05,14.4,25.35,11.0061,-3.2801,1.9872,-1.4472,-2.8631,-3.9945,-77.55,18.9,11.25,-9.25,-6.62,-10.78,1.4246,4.143,-0.8825,27.75,32.875,26.5,16.4375,-26.4375,155.6875,0
1776973764.187,7.6136,0.5171,-0.5746,-0.9241,0.1154,0.3565,-64.05,14.4,25.35,11.0061,-3.2801,1.9872,-1.4472,-2.8631,-3.9945,-77.25,20.85,11.55,-11.47,-6.32,-12.16,1.4399,3.9357,-0.8476,23.75,29.1875,31.25,16.625,-24.25,155.125,0
1776973764.192,7.6136,0.5171,-0.5746,-0.9241,0.1154,0.3565,-64.8,15.15,27.9,10.2352,-3.6129,2.8898,-1.1058,-2.7443,-4.0585,-77.25,20.85,11.55,-11.47,-6.32,-12.16,1.4399,3.9357,-0.8476,23.75,29.1875,31.25,16.625,-24.25,155.125,0
1776973764.197,7.6471,1.1756,-0.9218,-1.2297,0.0965,0.4634,-64.8,15.15,27.9,10.2352,-3.6129,2.8898,-1.1058,-2.7443,-4.0585,-77.25,20.85,11.55,-12.19,-5.91,-11.97,1.5588,3.831,-0.8988,23.75,29.1875,31.25,16.75,-22.125,154.4375,0
1776973764.205,8.011,2.1093,-1.3958,-1.4823,0.0922,0.5947,-65.55,16.2,27.6,10.0413,-2.9473,3.4524,-1.1026,-2.4973,-4.0188,-77.25,20.85,11.55,-13.27,-5.42,-12.87,1.7933,3.8201,-1.0319,23.75,29.1875,31.25,16.875,-20.0,153.5625,0
1776973764.21,8.011,2.1093,-1.3958,-1.4823,0.0922,0.5947,-65.85,13.2,28.95,10.3693,-2.1931,3.5458,-1.4237,-2.4912,-3.8877,-74.85,24.75,9.3,-13.27,-5.42,-12.87,1.7933,3.8201,-1.0319,23.75,29.1875,31.25,16.875,-17.6875,152.5625,0
1776973764.217,8.1547,3.3806,-2.0566,-1.5497,0.0999,0.6691,-65.85,13.2,28.95,10.3693,-2.1931,3.5458,-1.4237,-2.4912,-3.8877,-74.85,24.75,9.3,-13.54,-3.69,-12.61,2.0988,4.0175,-1.2337,23.75,29.1875,31.25,16.875,-15.3125,151.375,0
1776973764.227,8.2528,4.7333,-2.3583,-1.4016,0.0384,0.6744,-65.85,16.65,29.7,10.5776,-1.8603,3.1771,-1.7611,-2.3848,-3.7164,-74.85,28.35,9.0,-13.84,-3.07,-12.17,2.2973,4.0764,-1.3614,23.75,29.1875,31.25,16.875,-15.3125,151.375,0
1776973764.232,8.4108,5.7892,-2.5426,-1.1098,0.0671,0.6611,-65.85,16.65,29.7,10.5105,-1.664,3.3351,-1.918,-2.2743,-3.5232,-74.85,28.35,9.0,-13.84,-3.07,-12.17,2.2973,4.0764,-1.3614,23.75,29.1875,31.25,16.875,-12.9375,150.1875,0
1776973764.237,8.4108,5.7892,-2.5426,-1.1098,0.0671,0.6611,-65.85,16.65,29.7,10.5105,-1.664,3.3351,-1.918,-2.2743,-3.5232,-74.85,28.35,9.0,-13.6,-2.58,-11.33,2.3682,4.1724,-1.3668,21.1875,30.0625,41.6875,16.875,-12.9375,150.1875,0
1776973764.242,7.9224,6.857,-2.4493,-0.7181,-0.11,0.6408,-67.5,15.3,30.9,10.1945,-1.0846,2.7677,-2.0736,-2.1453,-3.318,-74.85,31.05,6.75,-13.6,-2.58,-11.33,2.3682,4.1724,-1.3668,21.1875,30.0625,41.6875,17.0,-10.625,149.0625,0
1776973764.247,7.9224,6.857,-2.4493,-0.7181,-0.11,0.6408,-67.5,15.3,30.9,10.635,-0.2059,1.9992,-2.0736,-2.1453,-3.318,-73.35,32.55,6.45,-12.64,-3.56,-10.73,2.2689,4.1462,-1.2152,21.1875,30.0625,41.6875,17.0,-10.625,149.0625,0
1776973764.254,9.6462,7.9918,-3.2274,-0.5929,0.3672,0.6606,-67.65,14.7,32.55,10.635,-0.2059,1.9992,-2.1666,-1.8892,-3.0726,-73.35,32.55,6.45,-14.39,1.32,-7.06,1.7355,3.7361,-0.8672,21.1875,30.0625,41.6875,17.1875,-8.5625,148.25,0
1776973764.259,9.6462,7.9918,-3.2274,-0.5929,0.3672,0.6606,-67.2,15.0,32.7,10.3573,-0.4429,1.3838,-2.0558,-1.853,-2.7286,-71.7,34.05,6.15,-14.39,1.32,-7.06,1.7355,3.7361,-0.8672,21.1875,30.0625,41.6875,17.5,-6.8125,147.5,0
1776973764.267,9.6798,8.9902,-3.2465,-0.2832,0.1156,0.6158,-67.2,15.0,32.7,9.4284,-0.1891,1.7789,-1.7802,-1.5124,-2.2849,-71.7,34.05,6.15,-16.09,3.11,-8.03,1.5272,3.4874,-0.492,21.1875,30.0625,41.6875,17.875,-5.125,146.5625,0
1776973764.277,9.6845,9.2512,-2.5163,-0.3126,0.049,0.4978,-68.55,13.8,34.5,9.6031,0.8523,2.0973,-1.6409,-1.2244,-1.8095,-71.7,34.05,6.15,-16.67,7.33,-7.47,1.825,3.3838,-0.4342,21.1875,30.0625,41.6875,17.875,-5.125,146.5625,0
1776973764.282,9.6678,9.1339,-1.1037,-0.6265,-0.0248,0.2926,-70.2,13.65,35.7,9.6031,0.8523,2.0973,-1.6409,-1.2244,-1.8095,-72.0,36.3,6.15,-16.67,7.33,-7.47,1.825,3.3838,-0.4342,21.1875,30.0625,41.6875,17.875,-5.125,146.5625,0
1776973764.287,9.6678,9.1339,-1.1037,-0.6265,-0.0248,0.2926,-70.2,13.65,35.7,8.7652,2.1213,1.233,-1.4466,-1.0224,-1.2796,-72.0,36.3,6.15,-17.09,5.7,-5.5,2.3398,3.2245,-0.528,9.5625,42.5625,47.0,18.1875,-3.4375,145.3125,0
1776973764.292,10.4722,8.5281,-1.154,-0.9006,0.2793,0.1873,-70.2,13.65,35.7,8.7652,2.1213,1.233,-1.4466,-1.0224,-1.2796,-72.0,36.3,6.15,-17.09,5.7,-5.5,2.3398,3.2245,-0.528,9.5625,42.5625,47.0,18.1875,-3.4375,145.3125,0
1776973764.297,10.4722,8.5281,-1.154,-0.9006,0.2793,0.1873,-70.2,13.65,35.7,6.2608,1.7119,-2.715,-1.352,-0.6728,-0.7181,-72.0,36.3,6.15,-17.78,4.26,-3.31,2.3758,2.8569,-0.5007,9.5625,42.5625,47.0,18.4375,-2.0,144.0,0
1776973764.307,10.6303,8.5258,-1.5538,-1.4194,0.4919,0.1322,-69.0,12.0,37.65,5.2864,1.2282,-2.0494,-0.898,-0.1937,-0.2158,-70.95,37.5,4.8,-18.14,1.7,-0.51,1.6712,2.2646,-0.3742,9.5625,42.5625,47.0,18.6875,-0.875,143.125,0
1776973764.315,10.5584,8.521,-3.1077,-1.0728,0.6699,0.1247,-69.45,11.4,38.55,4.7956,1.7741,-0.7901,-0.5652,0.3946,0.3264,-70.2,37.05,5.55,-20.12,-0.51,5.75,-0.0622,1.2937,0.0644,9.5625,42.5625,47.0,18.9375,-0.3125,143.1875,0
1776973764.32,11.0205,9.7157,-4.9009,-0.1556,0.8183,0.2393,-70.95,12.15,39.3,4.7956,1.7741,-0.7901,-0.5652,0.3946,0.3264,-71.25,35.1,5.1,-20.12,-0.51,5.75,-0.0622,1.2937,0.0644,9.5625,42.5625,47.0,19.375,-0.5625,144.1875,0
1776973764.328,11.0205,9.7157,-4.9009,-0.1556,0.8183,0.2393,-70.8,12.75,39.9,6.0238,1.4724,0.5411,-0.0887,0.8641,0.9046,-71.25,35.1,5.1,-20.46,4.37,6.83,-1.9079,-0.0142,0.745,9.5625,42.5625,47.0,19.375,-0.5625,144.1875,0
1776973764.333,11.6047,10.3453,-6.1387,0.651,0.7418,0.3264,-70.8,12.75,39.9,6.0238,1.4724,0.5411,-0.0887,0.8641,0.9046,-70.8,36.9,6.0,-20.46,4.37,6.83,-2.9365,-1.4377,1.2141,-1.0625,52.5625,39.25,19.75,-1.625,145.875,0
1776973764.338,11.6047,10.3453,-6.1387,0.9443,0.6203,0.4186,-70.8,12.75,39.9,8.0014,0.9218,1.0295,0.8202,1.2132,1.3395,-71.7,35.55,6.9,-20.36,6.03,6.25,-2.9365,-1.4377,1.2141,-1.0625,52.5625,39.25,19.75,-1.625,145.875,0
1776973764.343,11.4658,9.4547,-5.0135,0.9443,0.6203,0.4186,-70.8,12.75,39.9,8.0014,0.9218,1.0295,0.8202,1.2132,1.3395,-71.7,35.55,6.9,-20.36,6.03,6.25,-3.5103,-2.2002,1.3843,-1.0625,52.5625,39.25,20.125,-3.0625,147.8125,0
1776973764.348,9.8809,7.2544,-2.4804,0.8023,0.231,0.5244,-68.4,14.7,39.3,11.0325,3.7972,0.1006,1.0954,1.5492,1.2476,-71.7,35.55,6.9,3.12,4.0,-11.35,-3.5103,-2.2002,1.3843,-1.0625,52.5625,39.25,20.125,-3.0625,147.8125,0
1776973764.356,9.8809,7.2544,-2.4804,0.8023,0.231,0.5244,-68.4,14.7,39.3,15.0787,7.7859,-5.7652,0.0333,0.8037,0.7173,-70.95,35.55,7.35,-2.64,-8.1,-15.86,-3.555,-2.6322,1.1366,-1.0625,52.5625,39.25,20.25,-4.625,149.75,0
1776973764.363,7.5298,4.1635,-0.5148,-0.0871,1.5242,0.5609,-69.9,11.7,39.3,13.3237,8.2384,-6.8426,0.0333,0.8037,0.7173,-70.95,35.55,7.35,-2.64,-8.1,-15.86,-2.5591,-2.4729,0.8879,-1.0625,52.5625,39.25,20.3125,-6.0625,151.125,0
1776973764.368,8.849,2.047,0.1389,-0.4892,0.3941,0.4471,-68.55,11.55,40.95,13.3237,8.2384,-6.8426,-0.0133,-0.0293,0.3227,-70.95,35.55,7.35,0.48,-13.33,-12.59,-2.5591,-2.4729,0.8879,-1.0625,52.5625,39.25,20.6875,-7.4375,152.25,0
1776973764.377,9.4116,1.2426,0.1772,-0.2547,0.5505,0.5452,-69.0,13.05,40.95,9.1004,3.7613,-4.0893,1.4783,0.3214,0.2702,-71.85,34.2,7.95,-3.08,-3.31,-7.12,-1.9591,-2.1686,1.3025,-1.0625,52.5625,39.25,20.6875,-7.4375,152.25,0
1776973764.382,9.4116,1.2426,0.1772,-0.2547,0.5505,0.5452,-69.0,13.05,40.95,11.564,-1.0534,-6.4476,2.3443,0.3544,0.5345,-70.5,35.55,7.65,-3.08,-3.31,-7.12,-1.9591,-2.1686,1.3025,-1.0625,52.5625,39.25,21.0,-8.9375,153.1875,0
1776973764.387,12.1338,1.5874,-0.2418,0.2899,1.1525,1.0861,-68.4,10.65,42.9,11.564,-1.0534,-6.4476,2.3443,0.3544,0.5345,-70.5,35.55,7.65,-0.1,8.01,-9.82,-1.6668,-2.354,1.2501,0.5625,51.0625,41.875,21.0,-8.9375,153.1875,0
1776973764.392,12.1338,1.5874,-0.2418,0.2899,1.1525,1.0861,-68.4,10.65,42.9,15.3253,-1.719,-9.3709,2.23,0.3405,0.7538,-71.25,35.1,8.1,-0.1,8.01,-9.82,-1.6668,-2.354,1.2501,0.5625,51.0625,41.875,21.0625,-10.625,153.5625,0
1776973764.397,15.4641,1.9992,-1.8603,1.2169,0.9435,1.6486,-68.4,10.65,42.9,15.3253,-1.719,-9.3709,2.23,0.3405,0.7538,-71.25,35.1,8.1,-3.48,1.19,-14.19,-0.829,-2.9343,0.9228,0.5625,51.0625,41.875,21.0625,-10.625,153.5625,0
1776973764.407,19.247,1.2953,-3.9744,2.2199,0.4655,1.9764,-70.2,12.45,40.65,13.9343,-2.7222,-0.5411,2.7054,0.7703,0.8993,-70.8,34.2,7.2,-11.37,-0.9,-16.24,-0.4331,-3.1754,1.3537,0.5625,51.0625,41.875,21.375,-12.5625,153.8125,0
1776973764.417,19.6779,1.3695,-3.3878,3.4677,0.5532,1.8357,-69.3,13.5,40.95,14.7746,-1.0295,2.6791,2.5474,1.3225,0.9523,-70.95,34.05,5.85,-15.87,-14.05,-13.34,-0.6403,-2.7522,1.7759,0.5625,51.0625,41.875,22.0,-14.3125,154.1875,0
1776973764.425,19.6779,1.3695,-3.3878,3.4677,0.5532,1.8357,-69.3,13.5,40.95,15.2989,1.5778,3.2848,1.9095,1.3667,1.0227,-72.6,36.15,5.25,-11.38,-10.7,-9.06,-0.8847,-2.1871,1.765,0.5625,51.0625,41.875,22.625,-15.875,154.8125,0
1776973764.429,17.7362,1.6544,-3.462,4.1051,0.7067,1.327,-70.35,11.55,40.5,13.5296,0.1556,2.6624,1.9095,1.3667,1.0227,-72.6,36.15,5.25,-11.38,-10.7,-9.06,-0.8847,-2.1871,1.765,0.5625,51.0625,41.875,22.625,-15.875,154.8125,0
1776973764.434,17.7362,1.6544,-3.462,4.1051,0.7067,1.327,-70.35,11.55,40.5,13.5296,0.1556,2.6624,1.7325,1.1903,0.955,-72.6,36.15,5.25,-7.2,2.66,-12.02,-0.8748,-1.6853,1.1901,8.1875,49.0625,44.25,23.0,-17.0,155.3125,0
1776973764.439,10.896,2.4205,-1.573,4.0612,1.4554,0.6635,-68.25,12.0,41.55,11.1163,0.2562,4.5322,1.7325,1.1903,0.955,-71.55,33.75,6.45,-7.2,2.66,-12.02,-0.8748,-1.6853,1.1901,8.1875,49.0625,44.25,23.0,-17.0,155.3125,0
1776973764.444,10.896,2.4205,-1.573,4.0612,1.4554,0.6635,-68.25,12.0,41.55,11.1163,0.2562,4.5322,1.7459,0.9233,0.9137,-71.55,33.75,6.45,-5.79,-1.39,-10.83,-0.6807,-1.2174,0.8465,8.1875,49.0625,44.25,23.25,-17.8125,155.75,0
1776973764.449,7.4388,0.6656,1.8028,2.6284,2.2521,0.1857,-68.25,12.0,41.55,8.1786,2.1237,3.6727,1.7459,0.9233,0.9137,-71.55,33.75,6.45,-5.79,-1.39,-10.83,-0.6807,-1.2174,0.8465,8.1875,49.0625,44.25,23.4375,-18.25,156.0625,0
1776973764.458,5.3463,-2.5953,4.3263,0.5748,2.3872,-0.1809,-64.2,9.3,43.05,8.1786,2.1237,3.6727,1.1402,0.7448,0.9158,-71.55,33.75,6.45,-4.62,-6.79,-8.09,-0.4701,-0.6425,0.5476,8.1875,49.0625,44.25,23.5625,-18.75,156.3125,0
1776973764.467,5.4468,-5.1978,4.7956,-1.2897,1.9593,-0.3597,-62.7,6.3,43.8,7.6136,2.0423,3.134,0.7147,0.7171,0.8647,-71.55,33.0,5.7,-4.91,-5.05,-8.5,-0.4102,-0.7799,0.4418,8.1875,49.0625,44.25,23.5625,-18.75,156.3125,0
1776973764.477,5.6096,-6.1938,4.9919,-2.2111,1.5993,-0.2561,-62.55,3.9,44.7,8.0421,-1.221,2.3104,0.648,0.708,0.8394,-71.25,31.65,6.6,-4.94,-2.96,-8.95,-0.3272,-0.6534,0.4047,8.1875,49.0625,44.25,23.6875,-19.125,156.5,0
1776973764.482,5.6096,-6.1938,4.9919,-2.2111,1.5993,-0.2561,-62.55,3.9,44.7,8.0421,-1.221,2.3104,0.2785,0.724,0.842,-72.45,31.65,6.9,-4.94,-2.96,-8.95,-0.3272,-0.6534,0.4047,8.1875,49.0625,44.25,23.6875,-19.125,156.5,0
1776973764.487,6.687,-6.7253,2.4277,-2.8472,1.2828,-0.3091,-61.35,4.8,45.15,8.9016,-2.4636,-0.0455,0.2785,0.724,0.842,-72.45,31.65,6.9,-3.71,-4.68,-7.93,-0.3905,-0.3425,0.3545,14.6875,47.5625,43.1875,23.8125,-19.4375,156.75,0
1776973764.492,6.687,-6.7253,2.4277,-2.8472,1.2828,-0.3091,-61.35,4.8,45.15,8.9016,-2.4636,-0.0455,-0.4106,0.769,0.7565,-72.45,31.2,7.35,-3.71,-4.68,-7.93,-0.3905,-0.3425,0.3545,14.6875,47.5625,43.1875,23.8125,-19.4375,156.75,0
