timestamp,thigh_acc_x,thigh_acc_y,thigh_acc_z,thigh_gyro_x,thigh_gyro_y,thigh_gyro_z,thigh_mag_x,thigh_mag_y,thigh_mag_z,shank_acc_x,shank_acc_y,shank_acc_z,shank_gyro_x,shank_gyro_y,shank_gyro_z,shank_mag_x,shank_mag_y,shank_mag_z,foot_acc_x,foot_acc_y,foot_acc_z,foot_gyro_x,foot_gyro_y,foot_gyro_z,foot_mag_x,foot_mag_y,foot_mag_z,foot_euler_x,foot_euler_y,foot_euler_z,perturbation_event
1776973568.827,9.0094,0.826,2.4565,-0.8079,0.4178,0.4479,-91.05,5.55,46.65,9.6055,-0.237,2.6791,-0.3904,0.6792,0.7328,-78.15,13.95,22.95,-4.46,-2.7,-8.53,0.0425,-0.12,0.0589,17.5,32.75,24.25,26.5,-26.375,162.125,0
1776973568.832,9.2033,0.8021,2.3894,-0.8079,0.4178,0.4479,-92.4,5.4,47.1,9.5624,0.1987,2.5211,-0.3099,0.6718,0.7514,-77.55,13.8,23.1,-4.4,-2.7,-8.54,0.0687,-0.1342,0.0611,17.5,32.75,24.25,26.5,-26.5,162.125,0
1776973568.837,9.5696,0.6776,2.3463,-0.8428,0.4439,0.4058,-92.4,5.4,47.1,9.5624,0.1987,2.5211,-0.3099,0.6718,0.7514,-77.55,13.8,23.1,-4.4,-2.7,-8.54,0.0982,-0.1614,0.0644,17.5,32.75,24.25,26.5625,-26.5625,162.0625,0
1776973568.843,9.5696,0.6776,2.3463,-0.8428,0.4439,0.4058,-90.75,6.0,48.45,9.6606,-0.249,1.9776,-0.3416,0.7008,0.7671,-75.9,13.65,24.3,-4.26,-2.73,-8.67,0.0982,-0.1614,0.0644,17.5,32.75,24.25,26.625,-26.6875,162.0,0
1776973568.852,10.2232,0.2753,2.3703,-0.8292,0.5321,0.3435,-90.75,6.0,48.45,10.0317,-1.063,2.1787,-0.3557,0.7069,0.7847,-77.55,13.5,23.85,-3.83,-2.7,-9.05,0.1004,-0.2062,0.0633,17.5,32.75,24.25,26.625,-26.8125,161.9375,0
1776973568.862,10.489,0.0982,2.1811,-0.7349,0.4964,0.2785,-91.65,3.9,48.15,9.979,-1.4724,1.7358,-0.4074,0.7346,0.8132,-76.5,11.85,24.6,-4.26,-2.54,-8.78,0.1211,-0.2509,0.0644,17.5,32.75,24.25,26.625,-26.8125,161.9375,0
1776973568.867,10.252,0.0072,2.1835,-0.6169,0.4679,0.2345,-91.65,3.9,48.15,9.979,-1.4724,1.7358,-0.4074,0.7346,0.8132,-76.5,11.85,24.6,-4.26,-2.54,-8.78,0.1211,-0.2509,0.0644,17.875,32.5,25.5,25.375,-27.0,161.8125,0
1776973568.872,10.252,0.0072,2.1835,-0.6169,0.4679,0.2345,-90.6,1.95,47.85,10.1778,-1.257,2.2793,-0.4639,0.7602,0.8242,-76.65,11.7,22.95,-4.35,-2.72,-8.64,0.1713,-0.2891,0.0654,17.875,32.5,25.5,25.375,-27.0,161.8125,0
1776973568.877,9.833,0.1317,1.9345,-0.5391,0.5063,0.2198,-90.6,1.95,47.85,10.1778,-1.257,2.2793,-0.4639,0.7602,0.8242,-76.65,11.7,22.95,-4.35,-2.72,-8.64,0.1713,-0.2891,0.0654,17.875,32.5,25.5,25.4375,-27.1875,161.6875,0
1776973568.882,9.833,0.1317,1.9345,-0.5391,0.5063,0.2198,-90.45,1.5,48.75,9.979,-0.8188,2.5498,-0.4828,0.7698,0.8218,-76.65,11.7,22.95,-4.26,-2.67,-8.84,0.2149,-0.3305,0.0644,17.875,32.5,25.5,25.4375,-27.1875,161.6875,0
1776973568.887,9.6367,0.2849,1.6855,-0.5889,0.4482,0.2366,-90.45,1.5,48.75,9.979,-0.8188,2.5498,-0.4828,0.7698,0.8218,-76.65,11.7,22.95,-4.26,-2.67,-8.84,0.2607,-0.3862,0.0644,17.875,32.5,25.5,25.4375,-27.3125,161.5625,0
1776973568.893,9.6367,0.2849,1.6855,-0.5889,0.4482,0.2366,-90.0,2.55,49.05,10.0963,-0.4573,3.1244,-0.4357,0.7751,0.8298,-76.2,10.95,25.5,-4.03,-2.99,-9.05,0.2607,-0.3862,0.0644,17.875,32.5,25.5,25.4375,-27.3125,161.5625,0
1776973568.902,9.9072,0.4597,1.4629,-0.728,0.401,0.2619,-90.0,2.55,49.05,10.2783,-0.5076,3.4093,-0.4056,0.773,0.8551,-76.5,10.65,25.65,-4.23,-2.68,-8.9,0.2683,-0.4974,0.0938,17.875,32.5,25.5,25.5,-27.5625,161.4375,0
1776973568.907,9.6558,0.9433,1.5921,-0.8836,0.3909,0.2896,-90.0,2.55,49.05,10.2783,-0.5076,3.4093,-0.4056,0.773,0.8551,-76.5,10.65,25.65,-4.23,-2.68,-8.9,0.3033,-0.5825,0.1178,17.875,32.5,25.5,25.5625,-27.8125,161.25,0
1776973568.913,9.6558,0.9433,1.5921,-0.8836,0.3909,0.2896,-90.0,2.55,49.05,10.5345,-0.6249,3.1149,-0.3698,0.7546,0.8887,-75.3,9.45,26.1,-4.29,-3.06,-8.85,0.3033,-0.5825,0.1178,17.875,32.5,25.5,25.5625,-27.8125,161.25,0
1776973568.918,9.9359,1.3312,2.0135,-0.9872,0.364,0.3144,-90.0,2.55,49.05,10.5848,-0.7685,2.6264,-0.3368,0.7666,0.9305,-75.3,9.45,26.1,-4.29,-3.08,-8.8,0.3371,-0.649,0.1342,17.875,33.1875,22.75,24.4375,-28.1875,161.0,0
1776973568.923,9.9359,1.3312,2.0135,-0.9872,0.364,0.3144,-88.95,-0.3,49.05,10.5848,-0.7685,2.6264,-0.3368,0.7666,0.9305,-75.15,12.0,26.25,-4.29,-3.08,-8.8,0.3371,-0.649,0.1342,17.875,33.1875,22.75,24.4375,-28.1875,161.0,0
1776973568.928,10.3094,1.81,2.4086,-1.003,0.3893,0.3091,-88.95,-0.3,49.05,10.4698,-0.814,1.9249,-0.3139,0.7674,0.9561,-75.15,12.0,26.25,-4.29,-3.08,-8.8,0.3763,-0.7276,0.1538,17.875,33.1875,22.75,24.5,-28.5625,160.8125,0
1776973568.933,10.3094,1.81,2.4086,-1.003,0.3893,0.3091,-89.4,-2.4,49.65,10.4698,-0.814,1.9249,-0.3139,0.7674,0.9561,-74.55,9.15,24.9,-4.3,-3.01,-8.87,0.3763,-0.7276,0.1538,17.875,33.1875,22.75,24.5,-28.5625,160.8125,0
1776973568.938,10.4986,2.3583,2.715,-0.951,0.3637,0.2947,-89.4,-2.4,49.65,10.4244,-0.4812,1.5778,-0.2936,0.801,0.9811,-74.55,9.15,24.9,-4.3,-3.01,-8.87,0.3785,-0.8399,0.1844,17.875,33.1875,22.75,24.5625,-29.0625,160.5625,0
1776973568.943,10.3142,2.9592,2.5666,-0.7949,0.3333,0.2494,-90.75,-2.25,49.05,10.4244,-0.4812,1.5778,-0.2936,0.801,0.9811,-75.3,9.15,27.45,-4.25,-3.15,-8.98,0.3785,-0.8399,0.1844,17.875,33.1875,22.75,24.6875,-29.625,160.3125,0
1776973568.952,10.3142,2.9592,2.5666,-0.7949,0.3333,0.2494,-92.4,-2.7,49.95,10.4267,-0.158,1.2522,-0.2747,0.8282,1.0126,-75.3,9.15,27.45,-4.26,-2.71,-9.15,0.3665,-1.0036,0.2411,17.875,33.1875,22.75,24.6875,-29.625,160.3125,0
1776973568.962,10.5489,3.1699,2.3248,-0.5268,0.2526,0.0682,-92.4,-2.7,49.95,10.7188,0.4836,0.9337,-0.2414,0.8697,1.0573,-76.05,8.7,26.4,-4.28,-2.83,-9.51,0.3545,-1.1836,0.2989,17.875,33.1875,22.75,24.8125,-30.3125,160.0625,0
1776973568.967,10.9128,3.3806,2.0255,-0.5268,0.2526,0.0682,-92.4,-2.7,49.95,10.8816,1.0056,0.9505,-0.2198,0.9222,1.0824,-76.05,8.7,26.4,-4.28,-2.83,-9.51,0.3545,-1.1836,0.2989,17.875,33.1875,22.75,23.75,-31.125,159.875,0
1776973568.972,11.2551,3.6152,1.7837,-0.3853,0.1799,-0.044,-91.5,-4.5,49.05,10.8816,1.0056,0.9505,-0.2198,0.9222,1.0824,-76.05,8.7,26.4,-4.05,-2.92,-9.45,0.3174,-1.4148,0.3665,18.5625,33.1875,23.875,23.75,-31.125,159.875,0
1776973568.977,11.2551,3.6152,1.7837,-0.3853,0.1799,-0.044,-91.5,-4.5,49.05,11.3102,1.0104,0.7614,-0.1919,0.9896,1.1293,-76.05,8.7,26.4,-4.05,-2.92,-9.45,0.3174,-1.4148,0.3665,18.5625,33.1875,23.875,23.875,-32.0,159.625,0
1776973568.982,11.224,3.8259,1.6376,-0.2864,0.1503,-0.194,-91.35,-5.7,51.75,11.3102,1.0104,0.7614,-0.1919,0.9896,1.1293,-73.95,7.8,27.3,-4.09,-2.86,-9.5,0.3283,-1.6144,0.4429,18.5625,33.1875,23.875,23.875,-32.0,159.625,0
1776973568.987,11.224,3.8259,1.6376,-0.2864,0.1503,-0.194,-91.35,-5.7,51.75,11.6717,0.9218,0.5267,-0.2124,1.048,1.1916,-73.95,7.8,27.3,-4.09,-2.86,-9.5,0.4352,-1.7846,0.5421,18.5625,33.1875,23.875,24.125,-33.0625,159.3125,0
1776973568.993,11.3437,3.9456,1.4126,-0.2942,0.0783,-0.3485,-92.7,-2.4,48.6,11.6717,0.9218,0.5267,-0.2124,1.048,1.1916,-73.35,6.75,28.2,-3.83,-3.39,-9.73,0.4352,-1.7846,0.5421,18.5625,33.1875,23.875,24.375,-34.25,159.0,0
1776973569.002,11.88,4.0893,1.3575,-0.2862,-0.0147,-0.5193,-91.95,-4.2,49.2,11.995,0.8523,0.2586,-0.2843,1.1138,1.2617,-73.05,4.5,27.15,-4.17,-3.21,-9.62,0.4996,-2.0082,0.6709,18.5625,33.1875,23.875,24.375,-34.25,159.0,0
1776973569.012,12.0093,3.9385,1.4437,-0.1817,-0.1897,-0.7011,-91.95,-4.2,49.2,12.3014,0.6201,-0.0215,-0.3698,1.1554,1.3411,-73.05,4.5,27.15,-3.96,-3.4,-9.9,0.528,-2.2471,0.8083,18.5625,33.1875,23.875,24.75,-35.5625,158.6875,0
1776973569.017,12.0093,3.9385,1.4437,-0.1817,-0.1897,-0.7011,-91.95,-4.2,49.2,12.7515,0.0311,-0.4501,-0.5119,1.21,1.4186,-72.6,6.75,29.7,-3.96,-3.4,-9.9,0.528,-2.2471,0.8083,18.5625,33.1875,23.875,24.75,-35.5625,158.6875,0
1776973569.022,12.1314,3.4955,1.4126,-0.0488,-0.316,-0.8785,-91.95,-4.2,49.2,13.1322,-1.0582,-0.9146,-0.5119,1.21,1.4186,-72.6,6.75,29.7,-3.98,-3.56,-9.86,0.5225,-2.5275,0.9468,21.0625,33.1875,20.75,24.25,-37.0625,158.4375,0
1776973569.027,12.1314,3.4955,1.4126,-0.0488,-0.316,-0.8785,-91.95,-4.2,49.2,13.1322,-1.0582,-0.9146,-0.7293,1.2713,1.5005,-72.6,6.75,29.7,-3.98,-3.56,-9.86,0.5225,-2.5275,0.9468,21.0625,33.1875,20.75,24.25,-37.0625,158.4375,0
1776973569.032,11.5424,3.0382,0.9385,0.0738,-0.4954,-1.0014,-94.95,-1.65,48.9,13.1561,-1.9321,-0.8332,-0.7293,1.2713,1.5005,-72.6,6.75,29.7,-4.04,-3.82,-9.83,0.5738,-2.8743,1.1017,21.0625,33.1875,20.75,24.6875,-38.75,158.0625,0
1776973569.037,11.5424,3.0382,0.9385,0.0738,-0.4954,-1.0014,-96.15,-1.5,50.85,13.1561,-1.9321,-0.8332,-0.914,1.336,1.57,-70.5,3.45,30.3,-4.04,-3.82,-9.83,0.6196,-3.267,1.2632,21.0625,33.1875,20.75,72.6875,-40.6875,157.6875,0
1776973569.043,10.9846,2.4445,-0.2538,0.288,-0.7208,-1.069,-96.15,-1.5,50.85,13.0795,-2.2913,-1.0223,-1.1599,1.4059,1.6257,-70.5,3.45,30.3,-4.2,-3.76,-9.72,0.6196,-3.267,1.2632,21.0625,33.1875,20.75,70.875,-42.875,157.3125,0
1776973569.052,11.2815,1.4269,-1.652,0.6422,-0.9526,-1.1194,-97.05,-0.45,50.4,13.0819,-2.6959,-0.9768,-1.448,1.4887,1.6763,-70.5,3.45,30.3,-5.48,-3.45,-9.82,0.6796,-3.6914,1.4323,21.0625,33.1875,20.75,70.875,-42.875,157.3125,0
1776973569.062,11.3725,0.6129,-1.4964,1.0323,-1.1716,-1.1732,-97.5,-0.15,48.9,12.7132,-3.1173,-0.2801,-1.6875,1.5852,1.684,-70.05,2.85,29.4,-6.68,-4.07,-10.28,0.805,-4.1059,1.5795,21.0625,33.1875,20.75,69.0,-45.3125,156.75,0
1776973569.067,11.3725,0.6129,-1.4964,1.0323,-1.1716,-1.1732,-97.5,-0.15,48.9,12.7132,-3.1173,-0.2801,-1.6875,1.5852,1.684,-70.35,0.15,30.9,-6.68,-4.07,-10.28,0.805,-4.1059,1.5795,21.0625,33.1875,20.75,69.0,-45.3125,156.75,0
1776973569.072,11.3006,-0.0958,-2.9137,1.0864,-1.3384,-1.2244,-97.5,-0.15,48.9,11.655,-3.4477,0.9002,-1.7842,1.7507,1.647,-70.35,0.15,30.9,-7.4,-4.12,-10.69,0.8945,-4.4899,1.6973,24.75,32.75,15.5625,67.1875,-48.0,156.125,0
1776973569.077,11.3006,-0.0958,-2.9137,1.0864,-1.3384,-1.2244,-96.75,-0.15,48.6,11.655,-3.4477,0.9002,-1.7842,1.7507,1.647,-70.35,-0.45,29.4,-7.4,-4.12,-10.69,0.8945,-4.4899,1.6973,24.75,32.75,15.5625,67.1875,-48.0,156.125,0
1776973569.082,11.2623,-1.2019,-3.055,0.7799,-1.748,-1.2324,-96.75,-0.15,48.6,10.7428,-2.7414,2.4062,-1.7877,1.8245,1.5942,-70.35,-0.45,29.4,-9.73,-3.31,-10.11,1.0527,-4.888,1.777,24.75,32.75,15.5625,65.5625,-50.875,155.3125,0
1776973569.087,11.2623,-1.2019,-3.055,0.7799,-1.748,-1.2324,-97.5,-1.2,46.35,10.7428,-2.7414,2.4062,-1.7877,1.8245,1.5942,-66.3,-2.7,33.3,-9.73,-3.31,-10.11,1.3199,-5.1127,1.8141,24.75,32.75,15.5625,64.1875,-53.875,154.1875,0
1776973569.093,11.1785,-1.7238,-1.7933,0.1119,-1.9558,-1.2185,-97.5,-1.2,46.35,10.2113,-2.4493,2.976,-1.8237,1.8458,1.5535,-67.65,-2.1,34.2,-10.49,-2.26,-10.14,1.3199,-5.1127,1.8141,24.75,32.75,15.5625,63.4375,-56.875,152.5625,0
1776973569.103,10.7021,-1.968,-0.4429,-0.5638,-2.04,-1.2089,-97.95,-1.05,44.4,9.8186,-2.399,3.4979,-1.7549,1.8786,1.4882,-67.65,-2.1,34.2,-11.52,-2.68,-10.36,1.8468,-5.1836,1.7639,24.75,32.75,15.5625,63.4375,-56.875,152.5625,0
1776973569.112,10.7045,-2.217,0.5555,-0.9182,-2.0379,-1.2132,-97.05,-2.4,42.9,9.6175,-2.6695,3.2944,-1.578,1.829,1.4029,-66.3,-3.45,33.6,-10.87,-3.23,-9.93,2.6093,-5.032,1.6264,24.75,32.75,15.5625,63.5,-59.75,150.1875,0
1776973569.117,10.7045,-2.217,0.5555,-1.0669,-1.9401,-1.2316,-96.9,-1.05,41.55,9.6175,-2.6695,3.2944,-1.578,1.829,1.4029,-66.3,-3.45,33.6,-10.87,-3.23,-9.93,2.6093,-5.032,1.6264,24.75,32.75,15.5625,63.5,-59.75,150.1875,0
1776973569.122,10.3884,-2.4732,1.5682,-1.0669,-1.9401,-1.2316,-96.9,-1.05,41.55,9.3326,-3.237,3.5171,-1.3795,1.7765,1.3033,-66.3,-3.45,33.6,-9.49,-2.88,-9.13,3.255,-4.6818,1.5653,29.0,31.0,9.25,64.25,-62.4375,147.3125,0
1776973569.127,10.2903,-2.5618,2.1332,-1.2025,-1.8058,-1.2343,-96.9,-1.05,41.55,9.3326,-3.237,3.5171,-1.3795,1.7765,1.3033,-63.15,-4.05,33.45,-9.49,-2.88,-9.13,3.255,-4.6818,1.5653,29.0,31.0,9.25,64.25,-62.4375,147.3125,0
1776973569.132,10.2903,-2.5618,2.1332,-1.2025,-1.8058,-1.2343,-96.9,-1.05,41.55,8.9376,-3.7661,3.9433,-1.2031,1.7203,1.1991,-63.15,-4.05,33.45,-8.16,-2.75,-8.93,3.7895,-4.3808,1.5773,29.0,31.0,9.25,65.375,-64.9375,143.875,0
1776973569.137,10.1514,-2.5738,2.5163,-1.275,-1.6497,-1.2231,-95.4,-0.3,39.15,8.9376,-3.7661,3.9433,-1.2031,1.7203,1.1991,-63.15,-4.05,33.45,-8.16,-2.75,-8.93,4.2881,-4.0415,1.6755,29.0,31.0,9.25,66.8125,-67.25,140.0625,0
1776973569.143,10.1514,-2.5738,2.5163,-1.275,-1.6497,-1.2231,-95.4,-0.3,39.15,8.3079,-4.1084,4.3263,-1.0778,1.6571,1.0698,-63.15,-4.05,33.45,-6.79,-3.44,-7.98,4.2881,-4.0415,1.6755,29.0,31.0,9.25,68.3125,-69.5,136.0625,0
1776973569.153,10.3118,-2.1117,2.9018,-1.2257,-1.465,-1.2228,-95.1,-1.8,37.35,7.7644,-4.3934,4.7812,-0.9617,1.6156,0.931,-62.4,-6.75,33.0,-3.96,-5.86,-5.93,4.5357,-3.6903,1.873,29.0,31.0,9.25,68.3125,-69.5,136.0625,0
1776973569.162,10.7045,-1.6664,2.9975,-1.1892,-1.3808,-1.2297,-93.15,-1.95,36.15,7.6279,-4.367,5.4899,-0.7613,1.4845,0.793,-61.5,-7.8,35.1,-1.13,-5.86,-5.13,4.3622,-3.4928,2.1751,29.0,31.0,9.25,69.5,-71.6875,132.0625,0
1776973569.167,10.9583,-1.4269,2.8802,-1.1429,-1.4344,-1.2177,-91.65,-0.15,34.95,7.3287,-5.0901,5.8562,-0.4333,1.2886,0.6392,-59.7,-9.15,34.2,-1.13,-5.86,-5.13,4.3622,-3.4928,2.1751,29.0,31.0,9.25,69.5,-71.6875,132.0625,0
1776973569.173,10.9583,-1.4269,2.8802,-1.1429,-1.4344,-1.2177,-91.65,-0.15,34.95,7.3287,-5.0901,5.8562,-0.4333,1.2886,0.6392,-59.7,-9.15,34.2,-2.22,-5.58,-7.46,3.7361,-3.315,2.4729,33.375,26.5625,-3.5625,70.0625,-73.9375,128.3125,0
1776973569.178,10.6734,-0.7638,2.8467,-0.9694,-1.4378,-1.2289,-91.65,-0.15,34.95,6.7469,-5.205,7.252,-0.1476,1.0347,0.4658,-61.5,-9.75,34.05,-2.22,-5.58,-7.46,3.7361,-3.315,2.4729,33.375,26.5625,-3.5625,70.0625,-73.9375,128.3125,0
1776973569.183,10.6734,-0.7638,2.8467,-0.9694,-1.4378,-1.2289,-91.65,-0.15,34.95,6.7469,-5.205,7.252,-0.1476,1.0347,0.4658,-61.5,-9.75,34.05,-9.55,-11.31,-12.7,2.6649,-2.5089,2.6834,33.375,26.5625,-3.5625,69.9375,-75.9375,126.0625,0
1776973569.191,10.6422,0.1077,2.8371,-0.8521,-1.4642,-1.2257,-91.5,1.05,32.7,6.3853,-4.2473,7.4124,-0.1857,0.9036,0.2409,-61.5,-9.75,34.05,-4.97,-8.61,-13.57,1.7464,-0.4898,2.4009,33.375,26.5625,-3.5625,69.625,-77.1875,127.5625,0
1776973569.195,10.6757,1.0606,2.9568,-0.7887,-1.3296,-1.2284,-90.75,0.75,34.5,6.9719,-3.3758,4.7285,-0.1857,0.9036,0.2409,-60.15,-9.15,34.5,-4.97,-8.61,-13.57,1.7464,-0.4898,2.4009,33.375,26.5625,-3.5625,69.25,-77.625,132.125,0
1776973569.203,10.6757,1.0606,2.9568,-0.7887,-1.3296,-1.2284,-90.75,0.75,34.5,6.9719,-3.3758,4.7285,-0.5473,0.4786,-0.0709,-60.15,-9.15,34.5,-3.23,-7.99,-10.86,0.9425,1.0876,1.9068,33.375,26.5625,-3.5625,68.8125,-77.4375,138.125,0
1776973569.213,10.7332,1.9034,2.9018,-0.6776,-1.1993,-1.2337,-91.35,2.7,31.5,7.1826,-2.3655,3.7373,-0.98,0.057,-0.4146,-60.15,-9.15,34.5,-0.43,-7.25,-8.37,0.3327,1.9046,1.5621,33.375,26.5625,-3.5625,68.8125,-77.4375,138.125,0
1776973569.218,10.6973,2.3703,2.8347,-0.4786,-1.1325,-1.2574,-90.15,1.95,33.3,6.8019,-2.2673,2.8706,-1.2907,-0.2952,-0.6496,-58.8,-8.55,35.1,-0.43,-7.25,-8.37,0.3327,1.9046,1.5621,33.375,26.5625,-3.5625,68.125,-76.9375,144.3125,0
1776973569.223,10.6973,2.3703,2.8347,-0.4786,-1.1325,-1.2574,-90.15,1.95,33.3,6.8019,-2.2673,2.8706,-1.2907,-0.2952,-0.6496,-58.8,-8.55,35.1,0.42,-4.7,-6.82,-0.1538,2.282,1.3734,36.875,19.375,-12.5,68.125,-76.9375,144.3125,0
1776973569.228,10.4244,2.7414,3.1005,-0.3046,-1.0517,-1.2857,-91.65,0.9,31.8,6.3375,-3.3926,3.134,-1.2417,-0.5313,-0.7623,-59.55,-9.3,33.6,0.42,-4.7,-6.82,-0.1538,2.282,1.3734,36.875,19.375,-12.5,68.125,-76.9375,144.3125,0
1776973569.233,10.4244,2.7414,3.1005,-0.3046,-1.0517,-1.2857,-91.65,0.9,31.8,6.3375,-3.3926,3.134,-1.2417,-0.5313,-0.7623,-59.55,-9.3,33.6,0.0,-4.12,-6.58,-0.4549,2.4293,1.1683,36.875,19.375,-12.5,67.375,-76.1875,149.9375,0
1776973569.238,10.2615,2.9185,3.2992,-0.1556,-0.9499,-1.3009,-91.65,0.9,31.8,6.3422,-3.9696,4.3383,-0.9553,-0.7786,-0.8471,-60.15,-10.35,33.45,0.0,-4.12,-6.58,-0.5334,2.5285,0.8258,36.875,19.375,-12.5,66.8125,-75.125,154.375,0
1776973569.243,9.7731,2.7126,3.7613,-0.1263,-0.8186,-1.3129,-91.65,0.9,31.8,6.2584,-4.1994,4.5083,-0.9553,-0.7786,-0.8471,-60.15,-10.35,33.45,-0.07,-3.95,-6.18,-0.5334,2.5285,0.8258,36.875,19.375,-12.5,66.4375,-73.9375,157.5,0
1776973569.253,10.5417,2.6456,3.6272,0.105,-0.6843,-1.3227,-91.8,5.55,32.7,5.7341,-3.948,4.1563,-0.7671,-1.0214,-0.9715,-61.05,-10.95,34.35,0.18,-4.01,-5.54,-0.5171,2.6082,0.3905,36.875,19.375,-12.5,66.4375,-73.9375,157.5,0
1776973569.263,9.3733,2.5283,3.1843,0.2606,-0.7679,-1.3222,-91.65,6.15,32.1,5.545,-3.158,3.9313,-0.6302,-1.2356,-1.1266,-61.8,-11.25,32.85,0.09,-4.08,-5.35,-0.4898,2.6638,-0.0535,36.875,19.375,-12.5,66.3125,-72.5,159.5,0
1776973569.268,9.3733,2.5283,3.1843,0.2606,-0.7679,-1.3222,-92.7,6.15,32.55,5.545,-3.158,3.9313,-0.5742,-1.4072,-1.2798,-62.25,-9.0,33.3,0.09,-4.08,-5.35,-0.4898,2.6638,-0.0535,36.875,19.375,-12.5,66.4375,-71.0625,160.5625,0
1776973569.273,10.1706,1.8507,2.5929,0.3144,-0.8937,-1.2862,-92.7,6.15,32.55,5.3439,-2.8276,4.1276,-0.4301,-1.5807,-1.4437,-62.25,-9.0,33.3,-0.59,-4.16,-5.38,-0.4723,2.6834,-0.4723,41.0,15.75,-6.5625,66.4375,-71.0625,160.5625,0
1776973569.278,10.1706,1.8507,2.5929,0.3144,-0.8937,-1.2862,-94.05,7.05,33.0,5.3439,-2.8276,4.1276,-0.4301,-1.5807,-1.4437,-62.25,-9.0,33.3,-0.59,-4.16,-5.38,-0.4723,2.6834,-0.4723,41.0,15.75,-6.5625,66.8125,-69.4375,160.9375,0
1776973569.283,9.6175,3.1723,3.4357,0.5548,-0.8231,-1.2718,-94.05,7.05,33.0,5.1667,-2.3224,4.1061,-0.2156,-1.7744,-1.5583,-62.25,-9.0,33.3,-3.1,-3.61,-6.4,-0.456,2.7129,-0.8716,41.0,15.75,-6.5625,66.8125,-69.4375,160.9375,0
1776973569.291,9.6175,3.1723,3.4357,0.5548,-0.8231,-1.2718,-94.05,7.05,33.0,5.1667,-2.3224,4.1061,-0.2156,-1.7744,-1.5583,-64.65,-9.9,31.65,-3.65,-3.79,-6.49,-0.408,2.8242,-1.2926,41.0,15.75,-6.5625,67.5,-67.75,160.75,0
1776973569.295,8.8753,3.3208,3.4764,0.8761,-0.7061,-1.2207,-93.45,9.45,32.85,5.3558,-2.1356,4.7333,0.0642,-1.8812,-1.6782,-64.65,-9.9,31.65,-3.65,-3.79,-6.49,-0.408,2.8242,-1.2926,41.0,15.75,-6.5625,68.5,-65.8125,160.125,0
1776973569.303,8.2313,2.8467,2.8898,0.9579,-0.6171,-1.1064,-96.45,10.95,33.3,5.8658,-2.0949,4.9273,0.4858,-2.0835,-1.866,-64.65,-9.9,31.65,-3.5,-4.31,-6.41,-0.3567,3.0576,-1.7355,41.0,15.75,-6.5625,69.75,-63.6875,159.4375,0
1776973569.313,8.0565,2.4397,2.6169,1.1405,-0.5684,-1.0299,-95.85,11.25,31.65,6.122,-1.7382,4.6615,0.7831,-2.2623,-2.0033,-65.55,-9.0,30.6,-3.33,-4.2,-6.35,-0.4025,3.2921,-2.054,41.0,15.75,-6.5625,69.75,-63.6875,159.4375,0
1776973569.318,8.0565,2.4397,2.6169,1.1405,-0.5684,-1.0299,-95.85,11.25,31.65,6.122,-1.7382,4.6615,0.7831,-2.2623,-2.0033,-67.95,-7.35,31.05,-3.33,-4.2,-6.35,-0.4025,3.2921,-2.054,41.0,15.75,-6.5625,69.75,-63.6875,159.4375,0
1776973569.323,8.0804,2.15,2.3798,1.3342,-0.5505,-0.939,-97.8,12.15,32.55,6.8833,-1.6113,4.6687,0.98,-2.3603,-2.1458,-67.95,-7.35,31.05,-3.59,-3.69,-6.28,-0.552,3.4568,-2.2057,41.6875,16.875,-0.6875,71.0625,-61.5,158.8125,0
1776973569.328,8.0804,2.15,2.3798,1.3342,-0.5505,-0.939,-97.8,12.15,32.55,6.8833,-1.6113,4.6687,0.98,-2.3603,-2.1458,-67.95,-5.85,31.35,-3.59,-3.69,-6.28,-0.552,3.4568,-2.2057,41.6875,16.875,-0.6875,71.0625,-61.5,158.8125,0
1776973569.333,8.3079,2.2194,2.1069,1.5258,-0.4354,-0.8508,-96.6,11.55,30.9,7.5633,-1.8866,4.8866,1.2359,-2.5618,-2.2657,-67.95,-5.85,31.35,-4.12,-3.36,-6.57,-0.7178,3.5517,-2.2384,41.6875,16.875,-0.6875,72.3125,-59.1875,158.4375,0
1776973569.338,8.3079,2.2194,2.1069,1.5258,-0.4354,-0.8508,-96.6,11.55,30.9,7.5633,-1.8866,4.8866,1.2359,-2.5618,-2.2657,-68.85,-6.75,28.65,-4.12,-3.36,-6.57,-0.8268,3.5986,-2.1795,41.6875,16.875,-0.6875,73.5,-56.875,158.3125,0
1776973569.344,8.3414,1.8866,1.889,1.4799,-0.3384,-0.7544,-96.6,11.55,30.9,7.9535,-2.6001,4.9392,1.4722,-2.7248,-2.3622,-68.85,-6.75,28.65,-4.65,-3.17,-6.99,-0.8268,3.5986,-2.1795,41.6875,16.875,-0.6875,74.75,-54.5625,158.3125,0
1776973569.353,8.4731,1.719,1.652,1.7493,-0.3035,-0.7157,-96.9,13.5,30.15,8.2887,-3.1867,4.5849,1.5194,-2.8794,-2.4341,-68.85,-6.75,28.65,-5.52,-2.87,-7.43,-0.8519,3.663,-2.0737,41.6875,16.875,-0.6875,74.75,-54.5625,158.3125,0
1776973569.363,7.9918,1.2761,1.3647,1.4807,-0.2086,-0.6797,-99.15,13.5,30.6,8.7771,-4.1587,4.3598,1.3845,-2.9934,-2.4632,-72.9,-3.45,28.05,-5.81,-3.07,-7.43,-0.781,3.7459,-1.9624,41.6875,16.875,-0.6875,76.0625,-52.25,158.375,0
1776973569.368,7.9918,1.2761,1.3647,1.4807,-0.2086,-0.6797,-99.15,13.5,30.6,8.7771,-4.1587,4.3598,1.3845,-2.9934,-2.4632,-72.9,-3.45,28.05,-5.81,-3.07,-7.43,-0.781,3.7459,-1.9624,41.6875,16.875,-0.6875,76.0625,-52.25,158.375,0
1776973569.373,8.0637,0.6608,1.2929,1.3979,-0.0983,-0.6302,-97.8,15.45,32.1,9.1506,-5.296,4.5466,1.3009,-3.1626,-2.4555,-72.9,-3.45,28.05,-6.28,-3.45,-7.58,-0.6349,3.8157,-1.8577,39.875,22.75,4.375,77.625,-49.9375,158.5,0
1776973569.378,8.0637,0.6608,1.2929,1.3979,-0.0983,-0.6302,-97.8,15.45,32.1,9.1866,-5.5761,4.5466,1.3009,-3.1626,-2.4555,-73.95,-0.3,25.05,-6.28,-3.45,-7.58,-0.6349,3.8157,-1.8577,39.875,22.75,4.375,77.625,-49.9375,158.5,0
1776973569.383,8.1259,0.4525,1.0199,1.4248,-0.0413,-0.6179,-97.5,15.45,30.75,9.1866,-5.5761,4.5466,1.1874,-3.2074,-2.4072,-73.95,-0.3,25.05,-7.4,-4.98,-8.02,-0.4494,3.8179,-1.7726,39.875,22.75,4.375,79.4375,-47.5625,158.625,0
1776973569.389,7.9942,0.0239,0.6129,1.5436,0.0189,-0.5849,-97.5,15.45,30.75,9.6486,-5.1547,4.3383,0.9505,-3.1832,-2.3683,-75.3,0.15,26.4,-7.54,-6.11,-8.12,-0.3,3.747,-1.7377,39.875,22.75,4.375,81.5,-45.3125,158.625,0
1776973569.394,7.9942,0.0239,0.6129,1.5436,0.0189,-0.5849,-97.5,15.45,30.75,9.6486,-5.1547,4.3383,0.9505,-3.1832,-2.3683,-75.3,0.15,26.4,-7.54,-6.11,-8.12,-0.3,3.747,-1.7377,39.875,22.75,4.375,83.8125,-43.0625,158.5625,0
1776973569.403,7.9416,-0.1628,0.2059,1.5218,-0.1077,-0.5375,-99.9,16.8,30.9,10.0293,-4.4125,4.2641,0.7194,-3.2157,-2.3641,-75.15,1.05,24.3,-7.6,-7.11,-8.24,-0.2509,3.6292,-1.7944,39.875,22.75,4.375,86.125,-40.875,158.5,0
1776973569.413,7.5058,-0.2682,0.1484,1.6305,-0.048,-0.4895,-98.4,15.75,29.1,10.1011,-3.5578,4.3335,0.526,-3.2447,-2.3952,-76.2,3.45,24.0,-7.9,-7.6,-8.51,-0.3512,3.4394,-1.9264,39.875,22.75,4.375,86.125,-40.875,158.5,0
1776973569.418,7.8913,-0.0072,-0.1844,1.5084,0.2798,-0.4213,-98.4,15.75,29.1,9.9072,-2.7461,4.2665,0.4962,-3.2314,-2.4349,-78.9,4.95,21.75,-7.9,-7.6,-8.51,-0.3512,3.4394,-1.9264,39.875,22.75,4.375,39.375,-38.8125,158.4375,0
1776973569.423,7.8913,-0.0072,-0.1844,1.5084,0.2798,-0.4213,-98.4,18.0,29.55,9.9072,-2.7461,4.2665,0.4962,-3.2314,-2.4349,-78.9,4.95,21.75,-9.37,-7.75,-9.19,-0.5203,3.2038,-2.1162,36.5625,27.875,11.75,39.375,-38.8125,158.4375,0
1776973569.428,7.1443,0.2035,-0.0168,1.3342,0.0613,-0.3597,-98.4,18.0,29.55,9.9311,-1.6903,4.3239,0.7413,-3.1741,-2.4523,-77.7,4.95,22.5,-9.37,-7.75,-9.19,-0.5203,3.2038,-2.1162,36.5625,27.875,11.75,38.1875,-36.75,158.3125,0
1776973569.433,7.1443,0.2035,-0.0168,1.3342,0.0613,-0.3597,-98.85,16.95,30.45,9.9311,-1.6903,4.3239,0.7413,-3.1741,-2.4523,-77.7,4.95,22.5,-9.93,-7.7,-9.38,-0.6229,3.0129,-2.3616,36.5625,27.875,11.75,38.1875,-36.75,158.3125,0
1776973569.438,8.1786,0.395,-0.2969,1.21,-0.0157,-0.3331,-98.85,16.95,30.45,10.0724,-1.0008,3.4429,0.9976,-3.0974,-2.4784,-77.7,4.95,22.5,-9.93,-7.7,-9.38,-0.6218,2.8983,-2.6245,36.5625,27.875,11.75,36.9375,-34.75,158.125,0
1776973569.444,8.1786,0.395,-0.2969,1.21,-0.0157,-0.3331,-98.7,18.3,29.85,10.0724,-1.0008,3.4429,0.9976,-3.0974,-2.4784,-77.7,4.95,22.5,-10.01,-7.76,-9.23,-0.6218,2.8983,-2.6245,36.5625,27.875,11.75,35.5,-32.6875,157.875,0
1776973569.453,7.7357,0.3065,-0.6919,0.8314,0.1817,-0.2944,-98.7,18.3,29.85,10.3525,-0.8882,2.8874,1.5287,-3.0204,-2.4978,-81.0,6.75,19.05,-9.71,-8.17,-8.63,-0.5803,2.8394,-2.8416,36.5625,27.875,11.75,34.0625,-30.6875,157.5625,0
1776973569.463,7.6662,0.6225,-0.8523,0.5516,0.328,-0.2425,-99.15,18.0,30.15,10.4675,-0.9337,3.0933,2.056,-2.9977,-2.4925,-80.1,8.1,17.4,-9.67,-8.29,-8.43,-0.5847,2.7511,-2.9616,36.5625,27.875,11.75,34.0625,-30.6875,157.5625,0
1776973569.468,7.8817,1.1708,-1.0965,0.3619,0.4463,-0.174,-99.15,18.0,30.15,10.2759,-1.4868,2.9161,2.3084,-2.954,-2.4555,-80.85,12.0,15.45,-9.67,-8.29,-8.43,-0.5847,2.7511,-2.9616,36.5625,27.875,11.75,34.0625,-30.6875,157.5625,0
1776973569.473,7.8817,1.1708,-1.0965,0.3619,0.4463,-0.174,-97.95,18.0,29.1,10.2759,-1.4868,2.9161,2.3084,-2.954,-2.4555,-80.85,12.0,15.45,-9.93,-7.95,-8.53,-0.6349,2.6267,-3.0074,31.375,32.25,18.375,32.5625,-28.6875,157.375,0
1776973569.478,8.0158,2.0375,-1.4198,0.235,0.3563,-0.0898,-97.95,18.0,29.1,10.5417,-1.9273,3.2992,2.4107,-2.9162,-2.4054,-81.9,10.95,15.45,-9.93,-7.95,-8.53,-0.6349,2.6267,-3.0074,31.375,32.25,18.375,32.5625,-28.6875,157.375,0
1776973569.483,8.0158,2.0375,-1.4198,0.235,0.3563,-0.0898,-97.35,18.3,29.55,10.8218,-2.3559,3.1747,2.4107,-2.9162,-2.4054,-81.9,10.95,15.45,-9.78,-7.84,-8.43,-0.6578,2.4882,-3.0554,31.375,32.25,18.375,31.0625,-26.75,157.1875,0
1776973569.492,8.0182,2.7509,-1.5874,0.1463,0.2896,0.0075,-98.25,18.15,29.7,10.8218,-2.3559,3.1747,2.3667,-2.9074,-2.3457,-82.2,12.6,12.75,-9.53,-7.92,-8.43,-0.6327,2.354,-3.1547,31.375,32.25,18.375,29.4375,-24.875,157.0,0
1776973569.497,8.1092,3.6703,-1.7214,0.1972,0.3411,0.1007,-98.25,18.15,29.7,11.0875,-2.5953,2.636,2.2735,-2.8655,-2.2873,-82.2,12.6,12.75,-9.53,-7.92,-8.43,-0.6327,2.354,-3.1547,31.375,32.25,18.375,27.8125,-23.0,156.8125,0
1776973569.504,8.1092,3.6703,-1.7214,0.3568,0.4285,0.2294,-98.25,18.15,29.7,11.2408,-2.7078,2.5043,2.2106,-2.8543,-2.2447,-81.6,13.95,10.65,-9.47,-7.92,-8.31,-0.5967,2.2024,-3.2801,31.375,32.25,18.375,26.0625,-21.25,156.625,0
1776973569.514,8.3941,4.4077,-1.7166,0.6243,0.4349,0.3344,-98.55,20.7,29.7,10.9678,-2.1548,2.5666,2.0781,-2.8786,-2.2167,-81.6,13.95,10.65,-9.56,-7.88,-8.2,-0.5803,2.0093,-3.4001,31.375,32.25,18.375,26.0625,-21.25,156.625,0
1776973569.518,8.6622,4.8866,-2.0351,0.6243,0.4349,0.3344,-98.55,20.7,29.7,10.9678,-2.1548,2.5666,2.0781,-2.8786,-2.2167,-83.1,15.6,9.9,-9.56,-7.88,-8.2,-0.5803,2.0093,-3.4001,24.5,35.5625,22.0,24.25,-19.5625,156.4375,0
1776973569.523,8.2863,5.2074,-2.1045,1.0243,0.3312,0.4426,-97.35,19.05,30.15,10.7045,-1.8459,1.6496,1.8018,-2.849,-2.2036,-83.1,15.6,9.9,-9.57,-7.43,-7.59,-0.5901,1.7922,-3.483,24.5,35.5625,22.0,24.25,-19.5625,156.4375,0
1776973569.528,8.2863,5.2074,-2.1045,1.0243,0.3312,0.4426,-97.35,19.05,30.15,10.7045,-1.8459,1.6496,1.8018,-2.849,-2.2036,-83.1,15.6,9.9,-9.57,-7.43,-7.59,-0.5901,1.7922,-3.483,24.5,35.5625,22.0,22.4375,-18.0,156.25,0
1776973569.533,8.1116,5.4468,-2.2194,1.4698,0.275,0.5111,-97.95,19.5,29.85,9.7276,-1.5921,1.8531,1.7579,-2.7688,-2.1583,-83.1,15.6,9.9,-10.32,-6.74,-7.75,-0.624,1.5577,-3.519,24.5,35.5625,22.0,22.4375,-18.0,156.25,0
1776973569.539,8.1116,5.4468,-2.2194,1.4698,0.275,0.5111,-98.7,20.25,28.5,9.7276,-1.5921,1.8531,1.7579,-2.7688,-2.1583,-81.9,19.5,6.9,-10.32,-6.74,-7.75,-0.5869,1.3221,-3.5332,24.5,35.5625,22.0,20.5625,-16.5625,156.125,0
1776973569.544,8.8753,5.7844,-2.3224,2.0427,0.2249,0.5233,-98.7,20.25,28.5,9.3494,-1.2809,1.6783,1.7032,-2.5295,-2.0504,-81.9,19.5,6.9,-11.25,-5.92,-8.03,-0.5869,1.3221,-3.5332,24.5,35.5625,22.0,18.6875,-15.125,155.9375,0
1776973569.553,8.6167,5.4109,-2.217,2.399,0.2952,0.5052,-99.3,19.95,28.2,9.2033,-0.8236,0.6919,1.5756,-2.3126,-1.9081,-83.1,22.2,3.6,-11.73,-5.25,-7.28,-0.4309,1.1956,-3.5605,24.5,35.5625,22.0,16.8125,-13.75,155.6875,0
1776973569.563,8.7843,5.0542,-2.1069,2.6929,0.2393,0.4826,-99.3,19.95,28.2,9.3063,-0.6991,0.0982,1.5292,-2.0843,-1.7832,-83.1,22.2,2.1,-11.95,-5.53,-6.76,-0.2498,1.1825,-3.5812,24.5,35.5625,22.0,16.8125,-13.75,155.6875,0
1776973569.568,8.7843,5.0542,-2.1069,2.6929,0.2393,0.4826,-101.25,19.95,28.2,9.3063,-0.6991,0.0982,1.5292,-2.0843,-1.7832,-81.75,24.0,0.45,-11.95,-5.53,-6.76,-0.2498,1.1825,-3.5812,24.5,35.5625,22.0,15.0,-12.3125,155.4375,0
1776973569.574,9.3685,5.1523,-2.2529,2.9697,0.1609,0.494,-101.25,21.0,27.0,9.086,-0.68,0.0718,1.6318,-1.8799,-1.6489,-81.75,24.0,0.45,-12.48,-5.7,-6.37,-0.1527,1.177,-3.5125,16.75,37.6875,25.375,15.0,-12.3125,155.4375,0
1776973569.578,9.3685,5.1523,-2.2529,2.9697,0.1609,0.494,-99.9,21.3,28.8,9.086,-0.68,0.0718,1.6318,-1.8799,-1.6489,-83.25,24.45,-1.2,-12.48,-5.7,-6.37,-0.1527,1.177,-3.5125,16.75,37.6875,25.375,13.3125,-11.0,155.25,0
1776973569.583,8.849,5.1475,-2.2242,3.0886,0.2166,0.4506,-99.9,21.3,28.8,8.6359,-0.8523,-0.1556,1.5463,-1.6049,-1.4933,-83.25,24.45,-1.2,-13.1,-5.43,-5.9,-0.216,1.1443,-3.3434,16.75,37.6875,25.375,13.3125,-11.0,155.25,0
1776973569.593,9.754,4.7884,-1.968,2.8882,0.3171,0.4903,-100.95,24.3,27.3,8.3318,-1.4557,-0.3591,1.2678,-1.3059,-1.3451,-82.35,25.35,-1.35,-13.52,-3.65,-3.74,-0.3785,1.1236,-3.1165,16.75,37.6875,25.375,11.6875,-9.6875,155.1875,0
1776973569.603,9.9455,4.5801,-2.1117,2.9026,0.4668,0.4373,-100.5,24.0,28.05,8.1451,-1.9393,0.0814,0.9998,-0.9878,-1.1663,-82.35,25.35,-1.35,-13.41,-2.53,-2.97,-0.5323,1.0407,-2.8242,16.75,37.6875,25.375,10.1875,-8.5,155.3125,0
1776973569.611,11.054,4.9799,-2.7821,2.7179,0.5809,0.4088,-100.5,24.0,28.05,8.169,-1.8842,0.6009,0.6971,-0.6675,-0.9769,-83.25,25.95,-1.95,-13.29,-1.17,-2.48,-0.5443,0.9577,-2.4729,16.75,37.6875,25.375,8.9375,-7.4375,155.5,0
1776973569.616,11.054,4.9799,-2.7821,2.7179,0.5809,0.4088,-100.5,24.0,28.05,8.169,-1.8842,0.6009,0.6971,-0.6675,-0.9769,-83.25,25.95,-1.95,-13.29,-1.17,-2.48,-0.5443,0.9577,-2.4729,16.75,37.6875,25.375,8.9375,-7.4375,155.5,0
1776973569.621,11.1426,4.8219,-2.8539,2.5836,0.3962,0.3619,-101.85,23.7,25.35,7.9775,-1.4676,1.1229,0.4541,-0.4042,-0.7693,-82.2,26.7,-2.4,-12.82,0.77,-1.47,0.0404,0.5825,-1.6864,9.5,38.0625,27.375,8.0625,-6.75,155.375,0
1776973569.625,11.1426,4.8219,-2.8539,2.5836,0.3962,0.3619,-101.85,23.7,25.35,7.9775,-1.4676,1.1229,0.4541,-0.4042,-0.7693,-82.2,26.7,-2.4,-12.82,0.77,-1.47,0.0404,0.5825,-1.6864,9.5,38.0625,27.375,8.0625,-6.75,155.375,0
1776973569.63,10.5489,4.8243,-2.7892,2.5055,0.2702,0.2337,-101.1,25.2,26.4,8.26,-0.5076,1.5945,0.3195,-0.1777,-0.587,-80.25,27.45,-2.7,-12.26,1.28,-3.02,0.0404,0.5825,-1.6864,9.5,38.0625,27.375,7.1875,-6.0625,155.25,0
1776973569.635,10.5489,4.8243,-2.7892,2.5055,0.2702,0.2337,-101.1,25.2,26.4,8.26,-0.5076,1.5945,0.3195,-0.1777,-0.587,-80.25,27.45,-2.7,-12.26,1.28,-3.02,0.0404,0.5825,-1.6864,9.5,38.0625,27.375,6.5,-5.5625,154.875,0
1776973569.644,9.3757,4.3574,-2.5019,2.3539,0.0442,0.0474,-102.6,25.2,23.55,7.9392,0.5076,1.4988,0.2217,-0.0357,-0.405,-81.15,27.75,-1.8,-11.2,0.34,-1.47,0.5411,0.3938,-1.3635,9.5,38.0625,27.375,5.9375,-5.3125,154.3125,0
1776973569.654,9.232,3.2465,-2.4301,2.0979,0.1026,-0.1327,-100.95,24.3,25.95,7.7069,0.8428,1.6927,0.2902,0.1532,-0.1873,-81.75,28.35,-2.7,-11.35,-2.37,-0.64,0.9261,0.0371,-1.0734,9.5,38.0625,27.375,5.9375,-5.3125,154.3125,0
1776973569.664,8.6311,2.5379,-1.5921,1.6089,0.1255,-0.2236,-101.4,25.95,24.75,7.5346,0.747,1.9273,0.4546,0.3347,0.0509,-81.15,27.75,-3.6,-12.66,-3.4,-0.74,0.7429,-0.9894,-0.685,9.5,38.0625,27.375,5.4375,-5.625,153.875,0
1776973569.668,8.6311,2.5379,-1.5921,1.0379,0.2041,-0.2659,-101.4,25.95,24.75,7.3981,0.5602,2.6312,0.6675,0.6003,0.284,-81.15,27.75,-3.6,-12.66,-3.4,-0.74,0.7429,-0.9894,-0.685,9.5,38.0625,27.375,5.4375,-5.625,153.875,0
1776973569.673,7.9799,1.81,-0.6297,1.0379,0.2041,-0.2659,-101.4,25.95,24.75,7.3981,0.5602,2.6312,0.6675,0.6003,0.284,-81.15,27.75,-3.6,-13.0,-3.66,-0.4,0.3665,-1.4955,-0.5356,4.6875,37.25,26.0625,5.0,-6.25,153.625,0
1776973569.678,7.932,1.1205,-0.2251,0.4101,0.4338,-0.3203,-99.6,25.95,24.3,7.6614,0.2969,2.897,0.8143,0.8604,0.474,-81.15,27.75,-3.6,-13.0,-3.66,-0.4,0.3665,-1.4955,-0.5356,4.6875,37.25,26.0625,5.0,-6.25,153.625,0
1776973569.683,7.932,1.1205,-0.2251,0.4101,0.4338,-0.3203,-99.6,25.95,24.3,7.6614,0.2969,2.897,0.8143,0.8604,0.474,-81.0,27.15,-2.7,-14.04,-2.64,0.23,0.3665,-1.4955,-0.5356,4.6875,37.25,26.0625,4.5,-6.875,153.3125,0
1776973569.69,8.0397,0.5698,0.0287,-0.114,0.5177,-0.4024,-98.7,25.05,23.85,8.2025,0.1915,3.2082,0.9236,1.0917,0.6177,-81.0,27.15,-2.7,-10.14,-1.62,2.05,-0.0665,-2.2515,-0.1069,4.6875,37.25,26.0625,4.125,-7.9375,153.25,0
1776973569.695,8.0397,0.5698,0.0287,-0.114,0.5177,-0.4024,-98.7,25.05,23.85,9.4571,1.3958,2.9521,0.9236,1.0917,0.6177,-81.0,27.15,-2.7,-10.14,-1.62,2.05,-0.0665,-2.2515,-0.1069,4.6875,37.25,26.0625,3.8125,-9.25,153.375,0
1776973569.704,8.7484,-0.5411,-0.1006,-0.5921,0.5606,-0.4679,-99.3,27.15,23.25,9.4571,1.3958,2.9521,0.9153,1.311,0.6169,-80.25,26.7,-3.0,0.24,-3.14,-2.66,-0.3774,-2.6344,0.1014,4.6875,37.25,26.0625,3.5,-10.8125,153.75,0
1776973569.714,10.0628,-1.2546,0.1149,-0.878,0.8404,-0.4138,-99.9,25.5,24.15,13.9319,3.6152,-6.5505,0.1756,1.0459,0.3653,-80.85,25.8,-0.6,-2.2,-10.32,-9.76,-0.7985,-3.0434,0.1996,4.6875,37.25,26.0625,3.5,-10.8125,153.75,0
1776973569.719,11.0971,-1.3288,-0.3879,-0.922,1.0347,-0.3539,-99.9,25.5,24.15,13.9319,3.6152,-6.5505,-0.5271,0.5577,0.0469,-80.85,25.8,-0.6,-2.2,-10.32,-9.76,-0.7985,-3.0434,0.1996,4.6875,37.25,26.0625,3.4375,-12.3125,154.125,0
1776973569.724,11.0971,-1.3288,-0.3879,-0.922,1.0347,-0.3539,-99.9,25.5,24.15,12.6055,1.6975,-6.4476,-0.5271,0.5577,0.0469,-80.85,26.1,0.3,-3.23,-5.29,-10.14,-0.9054,-2.6965,0.6163,4.0,38.0,24.0625,3.4375,-12.3125,154.125,0
1776973569.729,12.038,-1.1492,-1.7837,-0.4061,0.911,-0.3035,-97.95,27.0,23.4,12.6055,1.6975,-6.4476,-0.0413,0.4551,-0.0424,-80.85,26.1,0.3,-3.23,-5.29,-10.14,-0.9054,-2.6965,0.6163,4.0,38.0,24.0625,3.5625,-13.8125,154.5,0
1776973569.734,12.038,-1.1492,-1.7837,-0.4061,0.911,-0.3035,-97.95,27.0,23.4,12.4187,-2.0087,-7.0533,-0.0413,0.4551,-0.0424,-80.25,25.5,-0.15,-2.66,5.69,-10.6,-0.6523,-2.5187,0.8519,4.0,38.0,24.0625,3.5625,-13.8125,154.5,0
1776973569.739,12.7348,-0.7326,-1.8651,0.3051,0.5409,-0.1743,-96.15,25.8,24.45,12.4187,-2.0087,-7.0533,0.9337,0.3597,0.0581,-80.25,25.5,-0.15,-2.66,5.69,-10.6,-0.2138,-3.0281,0.8247,4.0,38.0,24.0625,3.625,-15.5,154.5,0
1776973569.745,12.7348,-0.7326,-1.8651,0.3051,0.5409,-0.1743,-96.15,25.8,24.45,12.4091,-4.7166,-6.8043,0.8346,0.6145,0.2046,-80.25,25.5,-0.15,-4.56,4.24,-12.53,-0.2138,-3.0281,0.8247,4.0,38.0,24.0625,4.0625,-17.375,154.6875,0
1776973569.754,13.8624,0.4166,-1.573,1.0914,0.3094,-0.0709,-96.6,26.55,23.4,11.6765,-5.4923,-1.7645,0.5556,1.032,0.4149,-81.0,25.5,0.15,-18.25,-5.64,-17.06,-0.3305,-3.0009,1.4672,4.0,38.0,24.0625,4.8125,-18.9375,155.25,0
1776973569.764,15.2271,2.5833,-4.379,1.3819,0.1615,-0.1841,-94.35,28.05,21.3,12.1434,-4.4772,-1.063,0.3291,1.3619,0.5529,-81.0,25.5,0.15,-15.43,-10.73,-11.87,-0.733,-2.2078,1.9111,4.0,38.0,24.0625,4.8125,-18.9375,155.25,0
1776973569.769,15.694,4.0869,-7.1419,1.0381,-0.1148,-0.4151,-95.25,29.7,20.7,12.1434,-4.4772,-1.063,0.3291,1.3619,0.5529,-81.0,25.5,0.15,-15.43,-10.73,-11.87,-0.733,-2.2078,1.9111,4.0,38.0,24.0625,4.8125,-18.9375,155.25,0
1776973569.774,15.694,4.0869,-7.1419,1.0381,-0.1148,-0.4151,-95.25,29.7,20.7,13.0915,-3.2346,-2.3631,-0.0743,1.3185,0.4746,-81.15,26.55,1.35,-5.54,-7.52,-7.3,-0.9381,-1.2283,1.2337,6.375,36.1875,22.0625,5.25,-19.8125,155.875,0
1776973569.779,12.3445,2.7461,-5.9687,0.6523,-0.3627,-0.6102,-95.25,29.7,20.7,13.0915,-3.2346,-2.3631,-0.0743,1.3185,0.4746,-81.15,26.55,1.35,-5.54,-7.52,-7.3,-0.9381,-1.2283,1.2337,6.375,36.1875,22.0625,5.25,-19.8125,155.875,0
1776973569.784,12.3445,2.7461,-5.9687,0.6523,-0.3627,-0.6102,-95.25,29.7,20.7,12.1697,-4.0103,0.1006,-0.3301,1.161,0.3307,-81.0,26.7,2.4,-4.62,-0.18,-10.97,-0.9108,-1.3254,1.0145,6.375,36.1875,22.0625,5.5625,-20.6875,156.5,0
1776973569.793,8.5736,-0.8811,-1.8292,0.2601,0.3011,-0.2822,-91.8,34.05,19.5,9.9742,-3.4189,1.4772,-0.5622,1.1426,0.3384,-79.5,25.2,1.95,-6.35,-2.43,-10.34,-0.5912,-1.1192,0.7559,6.375,36.1875,22.0625,5.8125,-21.4375,156.875,0
1776973569.798,10.2927,-1.889,1.7526,0.5657,-0.1764,0.1007,-90.15,35.7,19.05,9.9742,-3.4189,1.4772,-0.5622,1.1426,0.3384,-79.5,25.2,1.95,-6.35,-2.43,-10.34,-0.5912,-1.1192,0.7559,6.375,36.1875,22.0625,5.9375,-22.0,157.125,0
1776973569.804,10.0796,1.2306,5.0685,0.7679,-0.2422,-0.1572,-90.15,34.95,20.1,8.7508,-0.9649,1.7549,-0.9649,1.0461,0.3584,-80.55,25.5,2.4,-4.68,-5.56,-8.41,-0.4232,-0.8487,0.5421,6.375,36.1875,22.0625,6.0625,-22.5,157.375,0
1776973569.814,8.0493,1.8723,5.1092,-0.2894,-0.1924,-0.3794,-90.9,34.65,19.35,8.6239,0.7638,2.9329,-1.0861,0.9129,0.3078,-80.25,26.4,1.95,-4.73,-3.7,-9.03,-0.3545,-0.7876,0.4265,6.375,36.1875,22.0625,6.0625,-22.5,157.375,0
1776973569.819,8.0493,1.8723,5.1092,-0.2894,-0.1924,-0.3794,-90.9,34.65,19.35,8.6239,0.7638,2.9329,-1.0861,0.9129,0.3078,-80.25,26.4,1.95,-4.73,-3.7,-9.03,-0.3545,-0.7876,0.4265,9.5625,34.25,20.5625,6.125,-22.9375,157.5,0
1776973569.824,5.636,1.0056,5.6096,-0.3656,0.4463,-0.3275,-90.9,34.65,19.35,9.7851,2.5786,3.3064,-0.769,0.8434,0.3259,-80.85,25.35,3.6,-5.11,-4.06,-8.3,-0.2542,-0.7145,0.3403,9.5625,34.25,20.5625,6.125,-22.9375,157.5,0
1776973569.829,5.636,1.0056,5.6096,-0.3656,0.4463,-0.3275,-90.9,34.65,19.35,9.7851,2.5786,3.3064,-0.769,0.8434,0.3259,-80.85,25.35,3.6,-5.11,-4.06,-8.3,-0.2542,-0.7145,0.3403,9.5625,34.25,20.5625,6.25,-23.3125,157.625,0
1776973569.834,8.0756,1.2067,4.2928,0.0903,0.3762,-0.0749,-92.25,35.25,21.3,10.9942,3.7709,2.1955,-0.2832,0.7037,0.3403,-80.85,25.35,3.6,-5.11,-5.58,-7.75,-0.1745,-0.5749,0.2694,9.5625,34.25,20.5625,6.25,-23.3125,157.625,0
1776973569.84,8.0756,1.2067,4.2928,0.0903,0.3762,-0.0749,-92.25,35.25,21.3,11.0684,3.3495,1.482,0.3882,0.5849,0.2782,-80.85,25.35,3.6,-5.85,-5.12,-8.37,-0.1724,-0.4036,0.24,9.5625,34.25,20.5625,6.3125,-23.5625,157.75,0
1776973569.845,8.6,1.8986,3.4979,0.6523,0.5814,0.0775,-91.65,34.65,20.4,11.0684,3.3495,1.482,0.3882,0.5849,0.2782,-80.4,25.05,4.35,-5.85,-5.12,-8.37,-0.1724,-0.4036,0.24,9.5625,34.25,20.5625,6.375,-23.625,157.875,0
1776973569.854,8.6838,2.0973,2.9473,1.0952,0.659,0.2078,-93.0,35.25,19.5,10.8864,1.8555,0.5746,1.1287,0.4879,0.1863,-80.4,25.05,4.35,-3.85,-3.48,-8.31,-0.1854,-0.1385,0.1778,9.5625,34.25,20.5625,6.375,-23.75,158.0,0
1776973569.864,9.5529,1.4748,2.5666,1.3792,0.724,0.3285,-93.15,35.4,20.7,10.4794,0.6488,0.7925,1.5916,0.4175,0.0773,-81.0,25.2,5.7,-4.11,-4.18,-7.93,-0.2062,-0.0764,0.1462,9.5625,34.25,20.5625,6.375,-23.75,158.0,0
1776973569.869,9.5529,1.4748,2.5666,1.3792,0.724,0.3285,-93.15,35.4,20.7,9.7755,-0.5674,0.9864,1.9084,0.3304,-0.0434,-81.0,25.2,5.7,-4.11,-4.18,-7.93,-0.2062,-0.0764,0.1462,9.5625,34.25,20.5625,6.4375,-23.8125,158.125,0
1776973569.874,9.9551,1.3838,2.0734,1.5383,0.8511,0.3536,-93.0,35.55,21.0,9.7755,-0.5674,0.9864,1.9084,0.3304,-0.0434,-81.75,25.95,3.75,-4.2,-3.6,-8.09,-0.204,-0.0829,0.1516,12.5625,32.75,21.0,6.4375,-23.8125,158.125,0
1776973569.879,9.9551,1.3838,2.0734,1.5383,0.8511,0.3536,-93.0,35.55,21.0,9.6941,-1.7502,0.6584,1.7984,0.2825,-0.1524,-81.75,25.95,3.75,-4.2,-3.6,-8.09,-0.204,-0.0829,0.1516,12.5625,32.75,21.0,6.5,-23.875,158.25,0
1776973569.884,10.4986,1.5443,1.2115,1.5471,0.8657,0.3872,-93.0,35.55,21.0,9.6941,-1.7502,0.6584,1.7984,0.2825,-0.1524,-79.8,24.75,3.0,-4.4,-3.26,-8.33,-0.1833,-0.0774,0.1364,12.5625,32.75,21.0,6.5,-23.875,158.25,0
1776973569.891,10.4986,1.5443,1.2115,1.6281,0.7445,0.3896,-93.0,35.55,21.0,10.1083,-2.5714,0.4764,1.4671,0.2382,-0.1737,-79.8,24.75,3.0,-4.54,-3.03,-8.6,-0.1298,-0.0589,0.1069,12.5625,32.75,21.0,6.5625,-23.9375,158.375,0
1776973569.896,10.7236,1.9585,0.2562,1.6281,0.7445,0.3896,-93.45,38.7,21.15,10.1083,-2.5714,0.4764,1.4671,0.2382,-0.1737,-80.85,25.35,4.35,-4.54,-3.03,-8.6,-0.1298,-0.0589,0.1069,12.5625,32.75,21.0,6.5625,-23.9375,158.4375,0
1776973569.904,9.8545,1.1468,-0.6081,1.6265,0.5891,0.3826,-93.6,42.0,22.35,9.9719,-2.7198,0.0838,0.9553,0.2001,-0.1516,-80.85,25.35,4.35,-4.34,-2.93,-8.51,-0.0884,-0.0273,0.0654,12.5625,32.75,21.0,6.5625,-23.9375,158.4375,0
1776973569.914,9.7755,-0.5291,-1.743,1.2676,0.1711,0.5041,-94.5,44.7,21.15,10.0772,-2.5522,-0.3663,0.2971,0.1812,-0.1585,-80.55,25.5,2.7,-4.18,-3.23,-8.36,-0.0633,-0.024,0.0425,12.5625,32.75,21.0,6.5625,-23.9375,158.4375,0
1776973569.919,9.7755,-0.5291,-1.743,1.2676,0.1711,0.5041,-94.5,44.7,21.15,10.1251,-2.4062,-0.9649,-0.2595,0.1609,-0.1665,-80.55,25.5,2.7,-4.18,-3.23,-8.36,-0.0633,-0.024,0.0425,12.5625,32.75,21.0,6.5625,-23.9375,158.4375,0
1776973569.924,10.137,1.3886,2.3104,1.9468,0.4498,0.433,-93.15,45.9,21.9,10.1251,-2.4062,-0.9649,-0.2595,0.1609,-0.1665,-80.55,25.5,2.7,-4.34,-2.92,-8.65,-0.0284,-0.0273,0.024,11.875,32.75,21.5,6.5625,-24.0,158.5,0
1776973569.929,10.137,1.3886,2.3104,1.9468,0.4498,0.433,-93.15,45.9,21.9,10.137,-1.5538,-0.5531,-0.5041,0.1932,-0.1751,-80.55,25.5,2.7,-4.34,-2.92,-8.65,-0.0284,-0.0273,0.024,11.875,32.75,21.5,6.5625,-24.0,158.5,0
1776973569.934,10.3166,2.5115,0.8835,2.0752,0.5644,0.2657,-93.15,45.9,21.9,10.137,-1.5538,-0.5531,-0.5041,0.1932,-0.1751,-79.65,25.35,2.55,-4.24,-3.1,-8.5,0.0305,-0.0284,-0.0022,11.875,32.75,21.5,6.5625,-24.0,158.4375,0
1776973569.944,10.4315,1.1803,-0.2538,1.7349,0.6323,0.122,-91.95,47.4,20.1,10.0509,-0.3759,-0.3926,-0.6318,0.1727,-0.1863,-78.15,25.35,5.1,-4.26,-3.1,-8.54,0.0622,-0.0404,-0.0196,11.875,32.75,21.5,6.5625,-24.0,158.4375,0
1776973569.953,10.3046,0.249,-0.2801,1.5447,0.5002,0.0648,-91.5,46.8,19.95,9.7324,0.8547,-0.3998,-0.6488,0.1889,-0.1943,-78.9,25.05,5.85,-4.35,-3.14,-8.44,0.0829,-0.0447,-0.0393,11.875,32.75,21.5,6.5625,-24.0625,158.375,0
1776973569.958,10.3046,0.249,-0.2801,1.5447,0.5002,0.0648,-91.5,46.8,19.95,9.517,2.2984,-0.4477,-0.5553,0.1815,-0.2126,-78.9,25.05,5.85,-4.35,-3.14,-8.44,0.0829,-0.0447,-0.0393,11.875,32.75,21.5,6.5625,-24.0625,158.3125,0
1776973569.965,8.7963,-0.4046,-0.17,1.2279,0.4956,-0.0115,-91.5,46.8,20.25,9.4236,3.2777,-0.5339,-0.3118,0.1855,-0.2332,-80.1,24.6,5.1,-4.23,-3.36,-8.35,0.0818,-0.0382,-0.0535,11.875,32.75,21.5,6.5625,-24.0625,158.3125,0
1776973569.97,8.2648,-0.4549,0.2538,0.8636,0.5236,-0.0274,-91.5,46.8,20.25,9.4236,3.2777,-0.5339,-0.3118,0.1855,-0.2332,-80.1,24.6,5.1,-4.23,-3.36,-8.35,0.0676,-0.0273,-0.0665,11.875,33.5625,21.5,6.5,-24.0625,158.25,0
1776973569.975,8.2648,-0.4549,0.2538,0.8636,0.5236,-0.0274,-90.9,46.95,20.1,9.3805,3.7038,-0.747,-0.0791,0.0994,-0.2438,-79.5,24.75,4.95,-4.32,-3.44,-8.24,0.0676,-0.0273,-0.0665,11.875,33.5625,21.5,6.5,-24.0625,158.25,0
1776973569.98,8.679,0.419,0.5555,0.5233,0.5353,-0.0418,-90.9,46.95,20.1,9.3805,3.7038,-0.747,-0.0791,0.0994,-0.2438,-79.5,24.75,4.95,-4.32,-3.44,-8.24,0.0556,-0.0109,-0.0742,11.875,33.5625,21.5,6.5,-24.0625,158.1875,0
1776973569.985,8.679,0.419,0.5555,0.5233,0.5353,-0.0418,-89.4,44.4,20.1,9.2632,3.225,-1.2426,0.1553,0.0392,-0.2427,-79.65,25.8,5.85,-4.15,-3.44,-8.12,0.0556,-0.0109,-0.0742,11.875,33.5625,21.5,6.5,-24.0625,158.1875,0
1776973569.991,8.8322,1.3958,0.3328,0.1903,0.4479,-0.0147,-89.4,44.4,20.1,9.2632,3.225,-1.2426,0.1553,0.0392,-0.2427,-79.65,25.8,5.85,-4.2,-3.54,-8.17,0.0458,-0.0065,-0.0676,11.875,33.5625,21.5,6.4375,-24.0625,158.125,0
1776973569.996,8.8322,1.3958,0.3328,0.1903,0.4479,-0.0147,-89.4,44.4,20.1,9.2225,2.32,-1.3264,0.433,0.045,-0.2174,-79.65,25.8,5.85,-4.2,-3.54,-8.17,0.0458,-0.0065,-0.0676,11.875,33.5625,21.5,6.4375,-24.0,158.125,0
1776973570.004,9.0884,2.1835,-0.498,0.0759,0.4482,-0.0237,-88.95,41.55,20.25,9.493,1.5969,-1.2617,0.55,0.0314,-0.1903,-78.9,26.55,5.1,-4.12,-3.34,-8.22,0.0447,0.0033,-0.0665,11.875,33.5625,21.5,6.375,-24.0,158.0625,0
1776973570.014,9.3302,2.8587,-0.7566,0.227,0.3419,-0.0354,-90.15,38.7,19.65,9.6678,1.1803,-1.245,0.4996,0.0293,-0.1655,-79.05,25.95,4.5,-4.01,-3.16,-8.15,0.0371,0.0142,-0.0611,11.875,33.5625,21.5,6.375,-24.0,158.0625,0
1776973570.019,9.4619,3.5051,-1.4126,0.2558,0.3904,-0.0751,-90.15,38.7,19.65,9.6678,1.1803,-1.245,0.4996,0.0293,-0.1655,-79.05,25.95,4.5,-4.01,-3.16,-8.15,0.0371,0.0142,-0.0611,11.875,33.5625,21.5,6.375,-24.0,158.0625,0
1776973570.024,9.4619,3.5051,-1.4126,0.2558,0.3904,-0.0751,-89.1,39.9,20.4,9.6534,0.9505,-1.1037,0.3728,0.0703,-0.1399,-78.0,27.15,5.25,-4.18,-3.25,-8.25,0.0218,0.0055,-0.0447,11.875,32.5,20.25,6.375,-24.0,158.0625,0
1776973570.029,9.8641,3.4453,-1.6664,0.2238,0.3696,-0.0938,-89.1,39.9,20.4,9.6534,0.9505,-1.1037,0.3728,0.0703,-0.1399,-78.0,27.15,5.25,-4.18,-3.25,-8.25,0.0218,0.0055,-0.0447,11.875,32.5,20.25,6.375,-24.0,158.0625,0
1776973570.034,9.8641,3.4453,-1.6664,0.2238,0.3696,-0.0938,-89.1,39.45,19.05,9.7564,0.9553,-1.154,0.2427,0.0757,-0.1319,-79.65,27.0,4.8,-4.22,-3.18,-8.37,0.0164,0.0033,-0.0371,11.875,32.5,20.25,6.375,-24.0,158.0625,0
1776973570.039,10.1394,3.2417,-1.4868,0.2382,0.2188,-0.0943,-89.1,39.45,19.05,9.7564,0.9553,-1.154,0.2427,0.0757,-0.1319,-79.65,27.0,4.8,-4.22,-3.18,-8.37,0.0251,0.0153,-0.0382,11.875,32.5,20.25,6.3125,-24.0,158.0,0
1776973570.045,10.1394,3.2417,-1.4868,0.2382,0.2188,-0.0943,-89.1,39.45,19.05,9.5433,1.2354,-1.0391,0.2052,0.0738,-0.125,-79.65,26.55,5.1,-4.1,-3.37,-8.25,0.0251,0.0153,-0.0382,11.875,32.5,20.25,6.3125,-24.0,158.0,0
1776973570.054,9.6845,2.2984,-1.4246,0.1242,0.0805,-0.0775,-88.05,38.4,20.4,9.3422,1.0726,-1.3479,0.0413,0.0791,-0.1247,-78.3,26.4,4.5,-4.11,-3.38,-8.27,0.0262,0.0164,-0.0349,11.875,32.5,20.25,6.3125,-24.0,158.0,0
1776973570.063,9.833,2.2194,-1.008,0.0053,0.0658,-0.146,-88.2,39.3,19.5,9.5457,0.8859,-1.0726,-0.1058,0.0831,-0.1119,-78.3,26.4,4.5,-4.19,-3.26,-8.34,0.0382,0.0175,-0.0447,11.875,32.5,20.25,6.3125,-23.9375,158.0,0
1776973570.068,9.4882,2.4541,-0.8691,-0.073,-0.0306,-0.1647,-88.2,39.3,19.5,9.5457,0.8859,-1.0726,-0.1058,0.0831,-0.1119,-78.3,26.4,4.5,-4.19,-3.26,-8.34,0.0382,0.0175,-0.0447,11.875,32.5,20.25,6.3125,-23.9375,158.0,0
1776973570.072,9.4882,2.4541,-0.8691,-0.073,-0.0306,-0.1647,-89.4,39.15,19.65,9.6462,1.0726,-0.9505,-0.1793,0.081,-0.0885,-78.3,26.4,4.5,-4.12,-3.25,-8.32,0.0502,0.0262,-0.0502,11.5625,33.5625,21.0625,6.25,-23.9375,157.9375,0
1776973570.077,9.2943,2.5618,-0.917,-0.1138,-0.064,-0.1868,-89.4,39.15,19.65,9.6462,1.0726,-0.9505,-0.1793,0.081,-0.0885,-81.15,25.8,5.85,-4.12,-3.25,-8.32,0.0502,0.0262,-0.0502,11.5625,33.5625,21.0625,6.25,-23.9375,157.9375,0
1776973570.082,9.2943,2.5618,-0.917,-0.1138,-0.064,-0.1868,-87.9,39.75,21.0,9.4906,1.3791,-1.0942,-0.2134,0.0783,-0.0671,-81.15,25.8,5.85,-4.27,-3.16,-8.34,0.0578,0.0316,-0.0513,11.5625,33.5625,21.0625,6.25,-23.9375,157.875,0
1776973570.086,8.5234,2.7509,-0.7805,-0.0997,0.0181,-0.2054,-87.9,39.75,21.0,9.4906,1.3791,-1.0942,-0.2134,0.0783,-0.0671,-81.15,25.8,5.85,-4.27,-3.16,-8.34,0.0578,0.0316,-0.0513,11.5625,33.5625,21.0625,6.25,-23.9375,157.875,0
1776973570.091,8.5234,2.7509,-0.7805,-0.0997,0.0181,-0.2054,-87.0,39.15,20.7,9.3853,2.0183,-1.0678,-0.2206,0.0584,-0.0658,-81.15,25.8,5.85,-3.7,-3.49,-7.9,0.0415,0.048,-0.0502,11.5625,33.5625,21.0625,6.25,-23.875,157.875,0
1776973570.096,9.1339,3.225,-0.6919,0.06,0.0434,-0.2188,-87.0,39.15,20.7,9.3853,2.0183,-1.0678,-0.2206,0.0584,-0.0658,-80.4,27.3,5.1,-3.7,-3.49,-7.9,0.0415,0.048,-0.0502,11.5625,33.5625,21.0625,6.25,-23.875,157.875,0
1776973570.105,9.754,3.9361,-0.5555,0.222,-0.0264,-0.1865,-87.0,39.15,20.7,9.3685,2.4756,-1.1301,-0.146,0.0458,-0.0568,-79.35,26.1,5.55,-3.94,-3.29,-8.16,0.0044,0.024,-0.0284,11.5625,33.5625,21.0625,6.25,-23.875,157.875,0
1776973570.112,9.754,3.9361,-0.5555,0.222,-0.0264,-0.1865,-88.5,40.5,19.95,9.5457,2.1141,-0.9936,0.0242,0.0546,-0.0589,-79.35,26.1,5.55,-4.1,-3.36,-8.22,-0.0142,0.0098,-0.012,11.5625,33.5625,21.0625,6.25,-23.875,157.875,0
1776973570.117,9.4212,3.9169,-0.1556,0.2321,-0.0818,-0.1247,-88.5,40.5,19.95,9.5457,2.1141,-0.9936,0.0242,0.0546,-0.0589,-79.35,26.1,5.55,-4.1,-3.36,-8.22,-0.0142,0.0098,-0.012,11.5625,33.5625,21.0625,6.25,-23.875,157.875,0
1776973570.122,9.4212,3.9169,-0.1556,0.2321,-0.0818,-0.1247,-88.35,38.4,20.7,9.7803,1.8483,-0.4166,0.2297,0.0416,-0.0703,-79.35,26.1,5.55,-4.13,-3.32,-8.32,-0.0262,0.0087,-0.0011,11.875,33.5625,20.75,6.25,-23.875,157.875,0
1776973570.126,9.5648,3.4907,-0.1365,0.2427,-0.1021,-0.0797,-88.35,38.4,20.7,9.7803,1.8483,-0.4166,0.2297,0.0416,-0.0703,-79.5,27.15,5.7,-4.13,-3.32,-8.32,-0.0262,0.0087,-0.0011,11.875,33.5625,20.75,6.25,-23.875,157.875,0
1776973570.131,9.5648,3.4907,-0.1365,0.2427,-0.1021,-0.0797,-89.25,39.75,21.3,9.8234,1.5347,-0.8571,0.2025,0.0117,-0.0781,-79.5,27.15,5.7,-4.59,-3.25,-8.59,-0.012,0.0022,-0.0022,11.875,33.5625,20.75,6.25,-23.875,157.875,0
1776973570.136,9.8258,3.4429,-0.1006,0.3413,-0.1226,-0.0663,-89.25,39.75,21.3,9.8234,1.5347,-0.8571,0.2025,0.0117,-0.0781,-79.35,27.0,5.55,-4.59,-3.25,-8.59,-0.012,0.0022,-0.0022,11.875,33.5625,20.75,6.1875,-23.875,157.875,0
1776973570.145,9.5122,3.134,-0.4094,0.405,-0.0485,-0.06,-87.9,41.25,20.55,9.9599,1.0606,-1.0965,0.1974,0.0168,-0.065,-79.8,27.45,6.75,-4.58,-3.32,-8.57,0.0502,0.0251,-0.0349,11.875,33.5625,20.75,6.1875,-23.8125,157.8125,0
1776973570.155,9.2895,2.6959,-1.1684,0.4546,-0.0179,-0.0925,-87.9,41.25,20.55,9.7492,0.5602,-1.1588,0.1793,0.0051,-0.0437,-79.8,27.45,6.75,-4.35,-3.47,-8.42,0.0982,0.0535,-0.0676,11.875,33.5625,20.75,6.1875,-23.8125,157.8125,0
1776973570.165,9.4236,2.3176,-1.5323,0.4032,-0.0256,-0.1039,-86.7,39.75,19.95,9.4858,0.3256,-0.9337,0.1037,0.0011,-0.0557,-79.5,26.7,6.0,-3.63,-3.31,-7.93,0.1233,0.0731,-0.0851,11.875,33.5625,20.75,6.1875,-23.75,157.6875,0
1776973570.169,9.4236,2.3176,-1.5323,0.4032,-0.0256,-0.1039,-86.7,39.75,19.95,9.2153,0.8212,-1.0343,-0.0472,-0.0189,-0.0648,-79.5,26.7,6.0,-3.63,-3.31,-7.93,0.1233,0.0731,-0.0851,11.875,33.5625,20.75,6.125,-23.75,157.625,0
1776973570.174,9.4116,2.241,-2.0877,0.3317,-0.0184,-0.0933,-86.7,39.75,19.95,9.2153,0.8212,-1.0343,-0.0472,-0.0189,-0.0648,-78.3,27.15,4.2,-3.81,-3.32,-8.17,0.096,0.0524,-0.0654,12.6875,33.1875,21.0625,6.125,-23.75,157.625,0
1776973570.179,9.4116,2.241,-2.0877,0.3317,-0.0184,-0.0933,-87.6,40.2,19.35,9.1075,1.3455,-1.4317,-0.1045,-0.0021,-0.0586,-78.3,27.15,4.2,-3.81,-3.32,-8.17,0.096,0.0524,-0.0654,12.6875,33.1875,21.0625,6.125,-23.75,157.625,0
1776973570.184,9.0908,1.9321,-1.8794,0.348,-0.0847,-0.101,-87.6,40.2,19.35,9.1075,1.3455,-1.4317,-0.1045,-0.0021,-0.0586,-79.35,26.55,6.15,-4.55,-3.21,-8.43,0.0938,0.0284,-0.0556,12.6875,33.1875,21.0625,6.125,-23.6875,157.5625,0
1776973570.192,9.2943,1.4772,-1.5634,0.3323,-0.1154,-0.0741,-87.6,40.65,20.1,9.5337,1.731,-1.5299,-0.121,-0.0043,-0.0805,-79.35,26.55,6.15,-3.32,-3.67,-7.86,0.0829,0.0513,-0.0611,12.6875,33.1875,21.0625,6.125,-23.625,157.5625,0
1776973570.196,9.2943,1.4772,-1.5634,0.3323,-0.1154,-0.0741,-87.6,40.65,20.1,9.4882,1.6807,-1.4174,-0.0117,0.0059,-0.0917,-78.3,26.7,5.25,-3.32,-3.67,-7.86,0.0829,0.0513,-0.0611,12.6875,33.1875,21.0625,6.125,-23.625,157.5,0
1776973570.205,9.9288,1.3096,-1.3216,0.3256,-0.0847,-0.0322,-87.15,40.5,19.5,9.7803,1.506,-1.0032,0.1258,-0.0061,-0.089,-79.8,27.45,4.95,-4.04,-3.43,-8.18,0.0251,0.0153,-0.0185,12.6875,33.1875,21.0625,6.125,-23.625,157.5,0
1776973570.215,8.8753,1.312,-0.3807,0.2673,-0.0741,-0.0072,-87.15,40.5,19.5,9.9766,1.2498,-0.9457,0.1375,-0.0208,-0.0762,-78.75,26.4,5.7,-4.23,-3.28,-8.35,-0.0109,-0.0011,0.0,12.6875,33.1875,21.0625,6.125,-23.625,157.5,0
1776973570.22,8.8753,1.312,-0.3807,0.1948,-0.0293,-0.02,-86.4,40.05,19.5,9.9766,1.2498,-0.9457,0.1375,-0.0208,-0.0762,-78.75,26.4,5.7,-4.23,-3.28,-8.35,-0.0109,-0.0011,0.0,12.25,34.0,22.0,5.6875,-23.6875,157.5,0
1776973570.225,9.6271,1.6185,-0.4812,0.1948,-0.0293,-0.02,-86.4,40.05,19.5,10.1083,1.0127,-0.5914,0.0869,-0.0168,-0.0663,-78.75,26.4,5.7,-4.46,-3.26,-8.55,-0.0022,0.0,-0.0044,12.25,34.0,22.0,5.6875,-23.625,157.5,0
1776973570.235,9.6151,2.3798,-0.7302,0.1639,0.0373,-0.04,-88.2,40.5,20.25,10.2472,0.9984,-0.7302,-0.0576,-0.0349,-0.0405,-78.15,28.5,5.55,-4.76,-3.23,-8.76,0.0491,0.0,-0.0305,12.25,34.0,22.0,5.6875,-23.625,157.5,0
1776973570.244,10.0341,2.8108,-0.7733,0.04,0.0837,-0.0725,-88.2,40.5,18.75,10.2975,0.7685,-0.3376,-0.0517,-0.0368,-0.0163,-78.15,28.5,5.55,-4.84,-3.24,-8.91,0.1364,0.0349,-0.084,12.25,34.0,22.0,5.625,-23.625,157.375,0
1776973570.254,9.9479,2.8683,-0.5363,-0.1226,0.0525,-0.1069,-87.15,41.55,19.2,9.9838,0.9984,0.4597,0.0056,-0.0701,0.0029,-78.15,28.5,5.55,-4.56,-3.62,-8.58,0.2563,0.0687,-0.1538,12.25,34.0,22.0,5.625,-23.5625,157.25,0
1776973570.262,9.2464,2.8012,-0.1173,-0.199,-0.0613,-0.1927,-87.15,41.55,19.2,9.3398,1.7573,-0.2251,-0.0743,-0.1079,0.0021,-79.5,27.9,4.2,-3.97,-3.37,-8.11,0.3054,0.0993,-0.1953,12.25,34.0,22.0,5.5625,-23.4375,157.0,0
1776973570.267,9.2464,2.8012,-0.1173,-0.199,-0.0613,-0.1927,-88.5,42.3,20.25,9.3398,1.7573,-0.2251,-0.0743,-0.1079,0.0021,-78.3,26.7,5.7,-3.97,-3.37,-8.11,0.3054,0.0993,-0.1953,12.25,34.0,22.0,5.5625,-23.4375,157.0,0
1776973570.272,9.1363,2.7174,-0.0024,-0.3179,-0.0477,-0.2569,-88.5,42.3,20.25,9.1554,2.0351,-0.7159,-0.0778,-0.1236,-0.0218,-78.3,26.7,5.7,-3.92,-3.84,-7.84,0.2836,0.108,-0.1963,12.25,34.0,20.375,5.1875,-23.375,156.8125,0
1776973570.277,9.1363,2.7174,-0.0024,-0.3179,-0.0477,-0.2569,-88.95,40.05,18.75,9.1554,2.0351,-0.7159,-0.0778,-0.1236,-0.0218,-78.45,26.55,7.35,-3.92,-3.84,-7.84,0.2836,0.108,-0.1963,12.25,34.0,20.375,5.1875,-23.375,156.8125,0
1776973570.282,9.1411,2.6624,-0.2035,-0.3826,-0.024,-0.2811,-88.95,40.05,18.75,9.3877,1.6544,-1.3288,0.0173,-0.1244,-0.056,-78.45,26.55,7.35,-3.88,-4.2,-7.78,0.2334,0.1156,-0.1745,12.25,34.0,20.375,5.125,-23.25,156.6875,0
1776973570.287,9.1411,2.6624,-0.2035,-0.3826,-0.024,-0.2811,-87.45,41.25,19.5,9.3877,1.6544,-1.3288,0.0173,-0.1244,-0.056,-78.45,26.55,5.1,-3.88,-4.2,-7.78,0.2334,0.1156,-0.1745,12.25,34.0,20.375,5.0625,-23.1875,156.5625,0
1776973570.295,9.2009,2.7605,-0.3711,-0.2577,-0.125,-0.2364,-87.45,41.25,19.5,9.663,1.008,-1.1827,0.1063,-0.1188,-0.0589,-79.5,27.45,6.0,-4.26,-3.6,-8.37,0.1953,0.1222,-0.1593,12.25,34.0,20.375,5.0625,-23.1875,156.5625,0
1776973570.305,9.1698,2.9712,-0.8475,-0.1037,-0.1252,-0.1724,-87.9,41.55,20.55,9.9862,0.6943,-1.2665,0.0266,-0.1005,-0.0381,-79.5,27.45,6.0,-4.17,-3.44,-8.4,0.1963,0.1407,-0.1658,12.25,34.0,20.375,5.0,-23.0625,156.4375,0
1776973570.315,9.1339,3.2944,-1.5012,0.1692,-0.0746,-0.0906,-87.45,41.55,20.25,9.9647,0.7781,-1.3001,-0.093,-0.0797,-0.0019,-80.1,27.3,4.35,-4.01,-3.37,-8.44,0.204,0.1549,-0.1833,12.25,34.0,20.375,4.9375,-22.9375,156.25,0
1776973570.32,8.7101,3.4333,-1.8747,0.4026,-0.1407,0.0005,-87.45,41.55,20.25,9.6845,1.4102,-1.506,-0.093,-0.0797,-0.0019,-80.1,27.3,4.35,-4.01,-3.37,-8.44,0.204,0.1549,-0.1833,12.25,34.0,20.375,4.9375,-22.9375,156.25,0
1776973570.325,8.7101,3.4333,-1.8747,0.4026,-0.1407,0.0005,-87.45,41.55,20.25,9.6845,1.4102,-1.506,-0.1737,-0.0586,0.0197,-80.1,27.3,4.35,-4.13,-3.7,-8.32,0.2171,0.1407,-0.1909,11.875,33.0625,20.375,4.625,-22.8125,156.125,0
1776973570.33,9.3039,3.6512,-1.9992,0.5161,0.1045,0.0621,-87.3,41.7,20.1,9.3661,2.0255,-1.7454,-0.1737,-0.0586,0.0197,-78.15,28.05,5.85,-4.13,-3.7,-8.32,0.2171,0.1407,-0.1909,11.875,33.0625,20.375,4.625,-22.8125,156.125,0
1776973570.335,9.3039,3.6512,-1.9992,0.5161,0.1045,0.0621,-87.3,41.7,20.1,9.3661,2.0255,-1.7454,-0.1948,-0.0573,0.0389,-78.15,28.05,5.85,-3.96,-3.72,-8.18,0.2247,0.1527,-0.2018,11.875,33.0625,20.375,4.5625,-22.6875,156.0,0
1776973570.34,9.2368,3.5003,-2.0375,0.5822,-0.0701,0.061,-87.45,42.75,18.75,8.928,2.5019,-1.3838,-0.121,-0.0695,0.0304,-79.8,28.35,4.95,-3.96,-3.72,-8.18,0.2127,0.1647,-0.2018,11.875,33.0625,20.375,4.4375,-22.5625,155.8125,0
1776973570.346,9.3015,3.3854,-1.7071,0.4815,0.0003,0.0104,-86.25,42.15,20.1,8.928,2.5019,-1.3838,-0.121,-0.0695,0.0304,-79.35,26.1,5.1,-3.66,-3.62,-8.04,0.2127,0.1647,-0.2018,11.875,33.0625,20.375,4.375,-22.4375,155.6875,0
1776973570.355,9.3015,3.3854,-1.7071,0.2406,-0.0354,-0.053,-88.2,41.55,19.5,9.0022,2.7701,-1.391,-0.041,-0.0821,0.0274,-79.35,26.1,5.1,-3.39,-3.57,-7.96,0.1844,0.144,-0.1778,11.875,33.0625,20.375,4.375,-22.375,155.625,0
1776973570.365,9.3925,2.8012,-1.3982,0.0794,-0.1015,-0.1191,-88.2,41.55,19.5,9.2153,2.6528,-1.1636,0.0994,-0.0845,0.0264,-78.9,27.3,6.15,-3.83,-3.87,-8.01,0.1614,0.1069,-0.1462,11.875,33.0625,20.375,4.375,-22.375,155.625,0
1776973570.37,9.3925,2.8012,-1.3982,0.0794,-0.1015,-0.1191,-88.2,41.55,19.5,9.4332,2.1763,-0.9361,0.2425,-0.1085,0.0059,-79.05,26.7,6.75,-3.83,-3.87,-8.01,0.1614,0.1069,-0.1462,11.875,33.0625,20.375,3.9375,-22.25,155.5,0
1776973570.375,8.7245,2.3248,-0.9194,-0.065,-0.0901,-0.1729,-87.6,42.45,18.6,9.4332,2.1763,-0.9361,0.2425,-0.1085,0.0059,-79.05,26.7,6.75,-3.57,-4.04,-7.82,0.1287,0.1091,-0.1287,10.75,34.0,19.5625,3.9375,-22.25,155.5,0
1776973570.38,8.7245,2.3248,-0.9194,-0.065,-0.0901,-0.1729,-87.6,42.45,18.6,9.2799,1.7957,-0.6225,0.3416,-0.1332,-0.0037,-79.35,28.05,5.1,-3.57,-4.04,-7.82,0.1287,0.1091,-0.1287,10.75,34.0,19.5625,3.9375,-22.1875,155.4375,0
1776973570.385,8.9256,2.2266,-0.8188,-0.1753,0.0088,-0.2116,-87.15,43.05,18.15,9.2799,1.7957,-0.6225,0.3416,-0.1332,-0.0037,-79.35,28.05,5.1,-3.32,-3.92,-7.79,0.0687,0.1134,-0.0905,10.75,34.0,19.5625,3.9375,-22.1875,155.4375,0
1776973570.39,8.9256,2.2266,-0.8188,-0.1753,0.0088,-0.2116,-87.15,43.05,18.15,9.3613,1.6113,-0.6608,0.3437,-0.1553,0.0019,-79.35,28.05,5.1,-3.32,-3.92,-7.79,0.012,0.0884,-0.0425,10.75,34.0,19.5625,3.9375,-22.125,155.4375,0
1776973570.396,8.6287,2.1428,-1.0008,-0.2124,0.0437,-0.1948,-88.95,42.0,20.25,9.6391,1.4461,-0.8619,0.3437,-0.1553,0.0019,-79.5,27.15,4.2,-3.64,-3.77,-7.99,0.012,0.0884,-0.0425,10.75,34.0,19.5625,3.9375,-22.125,155.5,0
1776973570.405,8.7149,2.32,-1.3408,-0.1705,0.024,-0.1665,-87.9,43.05,19.2,9.6391,1.4461,-0.8619,0.3008,-0.1601,0.0061,-79.5,27.15,4.2,-3.67,-3.98,-7.95,-0.0305,0.0764,-0.0098,10.75,34.0,19.5625,3.9375,-22.125,155.5,0
1776973570.411,8.7149,2.32,-1.3408,-0.1705,0.024,-0.1665,-87.9,43.05,19.2,9.5457,1.2713,-1.087,0.2297,-0.1532,0.008,-79.5,27.15,4.2,-3.74,-4.03,-8.02,-0.0676,0.072,0.0175,10.75,34.0,19.5625,3.9375,-22.0625,155.5,0
1776973570.416,8.9878,2.5163,-1.6616,-0.1162,-0.0242,-0.1045,-87.9,42.0,19.5,9.596,0.759,-1.5323,0.1633,-0.1402,-0.0043,-79.8,27.15,4.5,-3.74,-4.03,-8.02,-0.0676,0.072,0.0175,10.75,34.0,19.5625,3.9375,-22.0625,155.5,0
1776973570.421,8.9878,2.5163,-1.6616,-0.1162,-0.0242,-0.1045,-87.9,42.0,19.5,9.596,0.759,-1.5323,0.1633,-0.1402,-0.0043,-79.8,27.15,4.5,-4.12,-3.7,-8.44,-0.0873,0.0698,0.0284,10.75,34.0,20.0,3.625,-22.0625,155.5625,0
1776973570.426,8.9998,2.7916,-1.7693,-0.0416,-0.0365,-0.0266,-87.9,42.0,19.5,9.5481,0.6728,-1.4198,0.1295,-0.1386,0.0048,-79.8,27.15,4.5,-4.12,-3.7,-8.44,-0.0873,0.0698,0.0284,10.75,34.0,20.0,3.625,-22.0625,155.5625,0
1776973570.431,8.9998,2.7916,-1.7693,-0.0416,-0.0365,-0.0266,-87.9,42.0,19.5,9.5481,0.6728,-1.4198,0.1295,-0.1386,0.0048,-79.35,27.3,5.55,-4.08,-3.53,-8.48,-0.0753,0.0916,0.0109,10.75,34.0,20.0,3.625,-22.0,155.625,0
1776973570.436,9.3925,2.9712,-1.7023,0.0437,0.0594,0.0578,-87.9,40.8,19.2,9.6271,0.7518,-1.7262,0.0298,-0.1348,0.0056,-79.35,27.3,5.55,-4.08,-3.53,-8.48,-0.0753,0.0916,0.0109,10.75,34.0,20.0,3.625,-22.0,155.625,0
1776973570.441,9.3925,2.9712,-1.7023,0.0437,0.0594,0.0578,-87.9,40.8,19.2,9.6271,0.7518,-1.7262,0.0298,-0.1348,0.0056,-79.65,27.75,4.8,-4.08,-3.53,-8.48,-0.0491,0.1156,-0.0142,10.75,34.0,20.0,3.625,-21.9375,155.6875,0
1776973570.446,9.7779,2.9712,-1.6712,0.1426,-0.0357,0.1114,-88.8,41.7,18.6,9.6798,0.8356,-1.743,0.0003,-0.1402,-0.0165,-79.65,27.75,4.8,-3.8,-3.59,-8.37,-0.0491,0.1156,-0.0142,10.75,34.0,20.0,3.625,-21.875,155.6875,0
1776973570.455,9.4451,3.0837,-1.6352,0.1636,-0.0248,0.1207,-88.05,41.4,19.05,9.517,1.0942,-1.4988,0.0043,-0.1372,-0.0165,-79.5,25.5,4.2,-3.63,-3.81,-8.22,-0.0284,0.1124,-0.024,10.75,34.0,20.0,3.625,-21.8125,155.6875,0
1776973570.465,9.505,2.9856,-1.573,0.1887,-0.0269,0.0935,-87.9,41.55,19.2,9.2129,1.731,-1.4581,-0.0298,-0.1338,-0.0184,-78.0,26.4,3.75,-3.63,-3.43,-8.26,-0.024,0.0862,-0.0196,10.75,34.0,20.0,3.625,-21.8125,155.6875,0
1776973570.47,9.505,2.9856,-1.573,0.1887,-0.0269,0.0935,-87.9,41.55,19.2,9.2129,1.731,-1.4581,-0.0298,-0.1338,-0.0184,-78.45,28.05,5.1,-3.63,-3.43,-8.26,-0.024,0.0862,-0.0196,10.75,34.0,20.0,3.3125,-21.8125,155.75,0
1776973570.475,9.2871,3.0789,-1.5634,0.1905,-0.0594,0.0698,-87.9,41.55,19.2,9.3422,2.0949,-1.415,-0.0218,-0.1511,-0.0226,-78.45,28.05,5.1,-3.54,-3.59,-8.2,-0.0338,0.0644,-0.0098,10.75,34.25,21.0625,3.3125,-21.8125,155.75,0
1776973570.48,9.2871,3.0789,-1.5634,0.1905,-0.0594,0.0698,-87.9,41.55,19.2,9.3422,2.0949,-1.415,-0.0218,-0.1511,-0.0226,-78.45,28.05,5.1,-3.54,-3.59,-8.2,-0.0338,0.0644,-0.0098,10.75,34.25,21.0625,3.3125,-21.75,155.75,0
1776973570.485,9.4475,3.1125,-1.7861,0.0314,-0.0621,0.048,-87.9,41.55,19.2,9.347,2.1189,-1.2306,0.0775,-0.1652,-0.0368,-78.45,28.05,5.1,-3.57,-3.79,-8.15,-0.0502,0.0415,0.0065,10.75,34.25,21.0625,3.3125,-21.75,155.75,0
1776973570.49,9.4475,3.1125,-1.7861,0.0314,-0.0621,0.048,-87.9,41.55,19.2,9.347,2.1189,-1.2306,0.0775,-0.1652,-0.0368,-79.05,29.1,4.95,-3.57,-3.79,-8.15,-0.0709,0.0295,0.0262,10.75,34.25,21.0625,3.3125,-21.75,155.8125,0
1776973570.496,9.335,2.8802,-2.0566,-0.0818,-0.1705,0.0173,-86.4,42.0,20.25,9.402,2.1069,-1.1971,0.1785,-0.166,-0.0296,-79.05,29.1,4.95,-3.75,-3.82,-8.2,-0.0709,0.0295,0.0262,10.75,34.25,21.0625,3.375,-21.75,155.875,0
1776973570.505,8.6335,2.6049,-1.5323,-0.1135,-0.1572,0.0051,-87.45,42.75,19.95,9.5098,2.2098,-1.1684,0.2633,-0.1138,-0.0069,-80.1,27.75,5.55,-3.96,-3.78,-8.32,-0.0894,0.0207,0.036,10.75,34.25,21.0625,3.375,-21.75,155.9375,0
1776973570.516,8.9136,2.5043,-1.1971,-0.1937,-0.0671,0.0021,-89.25,43.05,19.95,9.9024,2.2003,-1.5538,0.3781,-0.1372,0.0285,-78.75,27.15,3.45,-4.08,-3.75,-8.37,-0.0949,0.0371,0.0305,10.75,34.25,21.0625,3.375,-21.75,155.9375,0
1776973570.52,9.1363,2.2673,-1.1875,-0.2132,0.0775,0.0016,-89.25,43.05,19.95,9.9024,2.2003,-1.5538,0.3781,-0.1372,0.0285,-79.8,27.15,4.95,-4.08,-3.75,-8.37,-0.0949,0.0371,0.0305,10.75,34.25,21.0625,3.375,-21.75,155.9375,0
1776973570.525,9.1363,2.2673,-1.1875,-0.2132,0.0775,0.0016,-88.35,42.15,18.6,9.6869,2.0375,-1.2426,0.4935,-0.1314,0.0426,-79.8,27.15,4.95,-3.91,-3.85,-8.26,-0.0894,0.0622,0.0131,10.375,34.6875,20.75,3.0,-21.75,156.0,0
1776973570.53,8.8729,2.387,-1.0798,-0.1474,-0.028,-0.0021,-88.35,42.15,18.6,9.6869,2.0375,-1.2426,0.4935,-0.1314,0.0426,-79.8,27.9,2.7,-3.91,-3.85,-8.26,-0.0894,0.0622,0.0131,10.375,34.6875,20.75,3.0,-21.75,156.0,0
1776973570.535,8.8729,2.387,-1.0798,-0.1474,-0.028,-0.0021,-88.35,42.15,18.6,9.5074,2.1189,-1.3791,0.4783,-0.1098,0.061,-79.8,27.9,2.7,-3.81,-3.68,-8.28,-0.0905,0.0753,0.0087,10.375,34.6875,20.75,3.0,-21.6875,156.0625,0
1776973570.54,9.0094,2.6097,-1.4413,-0.081,0.0117,-0.0221,-88.35,42.15,18.6,9.3685,2.332,-1.2689,0.4783,-0.1098,0.061,-79.05,28.35,2.7,-3.81,-3.68,-8.28,-0.1058,0.0818,0.0142,10.375,34.6875,20.75,3.0,-21.625,156.125,0
1776973570.546,9.0094,2.6097,-1.4413,-0.081,0.0117,-0.0221,-88.2,43.05,18.75,9.3685,2.332,-1.2689,0.5364,-0.1146,0.1018,-79.05,28.35,2.7,-3.77,-3.64,-8.27,-0.1058,0.0818,0.0142,10.375,34.6875,20.75,3.0,-21.625,156.125,0
1776973570.555,8.9735,2.9808,-1.3575,-0.0184,0.0003,-0.0266,-88.8,41.7,19.05,9.2895,1.5754,-1.5945,0.5449,-0.1713,0.0735,-79.05,28.35,2.7,-3.63,-3.95,-8.05,-0.1254,0.0862,0.0207,10.375,34.6875,20.75,3.0625,-21.625,156.1875,0
1776973570.565,10.2352,3.4477,-1.6089,0.1058,-0.1069,-0.0256,-89.85,42.9,18.6,9.2129,0.8068,-1.6209,0.4525,-0.1636,0.0538,-78.45,28.05,2.85,-3.56,-3.79,-8.16,-0.1505,0.0742,0.036,10.375,34.6875,20.75,3.0625,-21.5625,156.25,0
1776973570.57,8.7221,3.3998,-1.494,0.0168,0.0045,0.016,-89.85,42.9,18.6,9.1602,0.1724,-1.5227,0.2835,-0.1615,-0.0019,-78.45,28.05,2.85,-3.56,-3.79,-8.16,-0.1505,0.0742,0.036,10.375,34.6875,20.75,3.0625,-21.5625,156.25,0
1776973570.575,8.7221,3.3998,-1.494,0.0168,0.0045,0.016,-87.3,44.7,18.6,9.1602,0.1724,-1.5227,0.2835,-0.1615,-0.0019,-78.45,28.05,2.85,-3.63,-3.79,-8.23,-0.1647,0.0589,0.0524,11.1875,34.6875,20.0,3.0,-21.5625,156.375,0
1776973570.58,9.6223,3.3519,-1.9273,-0.0608,0.0056,0.0533,-87.3,44.7,18.6,9.9168,0.2466,-1.8052,0.1921,-0.1053,0.029,-78.3,29.1,1.65,-3.63,-3.79,-8.23,-0.1647,0.0589,0.0524,11.1875,34.6875,20.0,3.0,-21.5625,156.375,0
1776973570.585,9.6223,3.3519,-1.9273,-0.0608,0.0056,0.0533,-87.3,44.7,18.6,9.9168,0.2466,-1.8052,0.1921,-0.1053,0.029,-78.3,29.1,1.65,-3.98,-3.65,-8.43,-0.1614,0.048,0.0578,11.1875,34.6875,20.0,3.0,-21.5625,156.5,0
1776973570.59,9.2967,3.2944,-2.138,0.0261,-0.0117,0.1029,-87.3,44.7,18.6,10.2185,0.9984,-2.2122,0.1306,-0.1087,0.0951,-78.0,26.7,2.4,-3.98,-3.65,-8.43,-0.1484,0.06,0.0393,11.1875,34.6875,20.0,3.0,-21.5625,156.5625,0
1776973570.596,9.2967,3.2944,-2.138,0.0261,-0.0117,0.1029,-87.3,44.7,18.6,10.2185,0.9984,-2.2122,0.1306,-0.1087,0.0951,-78.0,26.7,2.4,-3.83,-3.67,-8.36,-0.1484,0.06,0.0393,11.1875,34.6875,20.0,3.0,-21.5625,156.5625,0
1776973570.606,9.2249,3.3495,-2.0901,0.1085,-0.1351,0.1338,-88.35,41.4,18.3,9.7947,1.3192,-2.2625,0.1122,-0.0999,0.1372,-81.0,27.9,1.65,-3.68,-3.52,-8.33,-0.1494,0.0687,0.0262,11.1875,34.6875,20.0,3.0,-21.5,156.75,0
1776973570.616,8.904,3.158,-2.1763,0.21,-0.1735,0.1522,-88.95,43.05,18.75,9.0046,1.4413,-2.0351,0.0298,-0.17,0.1263,-79.35,27.75,1.05,-3.51,-3.23,-8.36,-0.144,0.072,0.0218,11.1875,34.6875,20.0,3.0,-21.5,156.75,0
1776973570.621,8.6933,3.1939,-1.9848,0.1855,0.3778,0.15,-88.35,42.9,19.05,8.904,1.6879,-2.0614,0.028,-0.1482,0.1031,-79.35,27.75,1.05,-3.51,-3.23,-8.36,-0.144,0.072,0.0218,10.375,34.6875,20.375,2.75,-21.4375,156.8125,0
1776973570.626,8.6933,3.1939,-1.9848,0.1855,0.3778,0.15,-88.35,42.9,19.05,8.904,1.6879,-2.0614,0.028,-0.1482,0.1031,-79.35,27.75,1.05,-3.49,-3.28,-8.34,-0.1233,0.0425,0.0273,10.375,34.6875,20.375,2.75,-21.4375,156.8125,0
1776973570.631,9.7971,3.3136,-2.4445,0.178,0.3179,0.1354,-89.1,43.95,17.85,8.983,1.3264,-1.9968,0.044,-0.1263,0.053,-78.75,27.9,2.4,-3.49,-3.28,-8.34,-0.1233,0.0425,0.0273,10.375,34.6875,20.375,2.75,-21.5,156.9375,0
1776973570.636,9.4499,3.3902,-2.0973,0.2742,0.0842,0.1319,-89.1,43.95,17.85,8.983,1.3264,-1.9968,0.044,-0.1263,0.053,-78.75,27.9,2.4,-3.57,-3.79,-8.19,-0.1287,0.0098,0.0404,10.375,34.6875,20.375,2.75,-21.5,156.9375,0
1776973570.641,9.4499,3.3902,-2.0973,0.2742,0.0842,0.1319,-89.1,43.95,17.85,9.2943,1.0942,-1.8651,-0.0157,-0.1271,0.0131,-78.75,27.9,2.4,-3.57,-3.79,-8.19,-0.1222,0.0033,0.0513,10.375,34.6875,20.375,2.8125,-21.5,157.0,0
1776973570.646,9.2153,3.1747,-1.8818,0.1612,0.1002,0.1186,-89.1,43.95,17.85,9.8114,1.0558,-1.8004,-0.0157,-0.1271,0.0131,-78.75,27.9,2.4,-3.64,-3.61,-8.32,-0.1222,0.0033,0.0513,10.375,34.6875,20.375,2.8125,-21.5,157.0,0
1776973570.655,9.2536,2.9137,-1.7286,0.1332,0.0954,0.0818,-88.95,42.3,19.2,9.7372,1.3599,-1.9728,-0.0075,-0.1556,0.0296,-80.4,28.05,1.35,-3.66,-3.52,-8.36,-0.1331,-0.0131,0.0622,10.375,34.6875,20.375,2.8125,-21.5,157.0625,0
1776973570.66,9.2536,2.9137,-1.7286,0.1332,0.0954,0.0818,-89.85,42.9,18.3,9.7372,1.3599,-1.9728,0.0064,-0.1863,0.053,-79.5,27.9,2.4,-3.66,-3.52,-8.36,-0.1494,-0.0142,0.0698,10.375,34.6875,20.375,2.8125,-21.5625,157.1875,0
1776973570.667,9.323,2.66,-1.5778,0.1522,-0.0234,0.0512,-89.85,42.9,18.3,9.4906,1.7669,-2.1141,-0.0037,-0.1596,0.0695,-79.5,27.9,2.4,-3.82,-3.67,-8.35,-0.1494,-0.0142,0.0698,10.375,34.6875,20.375,2.8125,-21.5625,157.1875,0
1776973570.671,9.323,2.66,-1.5778,0.1522,-0.0234,0.0512,-90.45,41.55,17.7,9.4906,1.7669,-2.1141,-0.0037,-0.1596,0.0695,-79.8,26.4,0.9,-3.82,-3.67,-8.35,-0.1494,-0.0142,0.0698,10.375,33.5625,20.75,2.625,-21.5625,157.25,0
1776973570.676,9.1482,2.3152,-1.5419,0.1348,0.0576,0.0568,-90.45,41.55,17.7,9.493,2.2075,-1.9728,0.0083,-0.1218,0.1047,-79.8,26.4,0.9,-4.05,-3.58,-8.5,-0.1385,-0.0229,0.0698,10.375,33.5625,20.75,2.625,-21.5625,157.25,0
1776973570.681,9.1482,2.3152,-1.5419,0.1348,0.0576,0.0568,-88.35,40.95,19.65,9.493,2.2075,-1.9728,0.0083,-0.1218,0.1047,-78.45,27.75,1.8,-4.05,-3.58,-8.5,-0.1385,-0.0229,0.0698,10.375,33.5625,20.75,2.625,-21.5625,157.3125,0
1776973570.686,9.3685,2.1787,-1.9393,0.1831,0.0232,0.0586,-88.35,40.95,19.65,9.5122,2.2673,-1.9417,0.0949,-0.1095,0.13,-78.45,27.75,1.8,-4.02,-3.42,-8.55,-0.1069,-0.0109,0.0458,10.375,33.5625,20.75,2.625,-21.5625,157.3125,0
1776973570.692,9.3685,2.1787,-1.9393,0.1831,0.0232,0.0586,-88.35,40.95,19.65,9.5122,2.2673,-1.9417,0.0949,-0.1095,0.13,-78.3,28.65,0.45,-3.88,-3.51,-8.48,-0.0698,0.0131,0.0218,10.375,33.5625,20.75,2.625,-21.5625,157.375,0
1776973570.697,9.4619,2.3559,-1.9417,0.2806,-0.1055,0.0738,-88.35,40.95,19.65,9.4475,1.7238,-1.8579,0.1564,-0.0975,0.1434,-78.3,28.65,0.45,-3.88,-3.51,-8.48,-0.0698,0.0131,0.0218,10.375,33.5625,20.75,2.625,-21.5625,157.375,0
1776973570.706,9.2775,2.466,-2.0423,0.3139,-0.118,0.0829,-88.35,40.95,19.65,9.4475,1.0606,-1.6185,0.194,-0.1047,0.1471,-79.05,28.65,0.45,-3.6,-3.48,-8.31,-0.0425,0.0327,0.0033,10.375,33.5625,20.75,2.625,-21.5625,157.4375,0
1776973570.716,9.0788,2.3894,-1.8771,0.3192,-0.0799,0.0653,-89.4,41.4,18.3,9.2512,1.0606,-1.6568,0.1943,-0.0946,0.1362,-79.05,28.65,0.45,-3.53,-3.56,-8.26,-0.0502,0.0393,0.0,10.375,33.5625,20.75,2.625,-21.5625,157.4375,0
1776973570.721,9.0788,2.3894,-1.8771,0.3192,-0.0799,0.0653,-90.75,42.0,17.4,9.2512,1.0606,-1.6568,0.1943,-0.0946,0.1362,-78.9,27.75,0.3,-3.53,-3.56,-8.26,-0.0502,0.0393,0.0,10.375,33.5625,20.75,2.25,-21.5,157.5,0
1776973570.726,9.3589,2.3655,-1.3982,0.2308,-0.0605,0.049,-90.75,42.0,17.4,9.1866,1.3982,-1.8004,0.1881,-0.065,0.1324,-78.9,27.75,0.3,-3.7,-3.6,-8.23,-0.0589,0.0229,0.0164,10.0625,33.1875,22.75,2.25,-21.5,157.5,0
1776973570.731,9.3589,2.3655,-1.3982,0.2308,-0.0605,0.049,-89.7,42.0,18.15,9.1866,1.3982,-1.8004,0.1881,-0.065,0.1324,-80.85,28.5,1.35,-3.7,-3.6,-8.23,-0.0589,0.0229,0.0164,10.0625,33.1875,22.75,2.25,-21.5,157.5,0
1776973570.736,9.3685,2.2793,-1.2282,0.1271,-0.0461,0.02,-89.7,42.0,18.15,9.3972,1.4509,-1.8842,0.2393,-0.061,0.1074,-80.85,28.5,1.35,-3.62,-3.6,-8.29,-0.0676,0.0251,0.0196,10.0625,33.1875,22.75,2.25,-21.5,157.5,0
1776973570.741,9.3685,2.2793,-1.2282,0.1271,-0.0461,0.02,-87.9,41.55,16.65,9.3972,1.4509,-1.8842,0.2393,-0.061,0.1074,-79.35,29.25,0.0,-3.62,-3.6,-8.29,-0.0742,0.0229,0.0273,10.0625,33.1875,22.75,2.25,-21.5,157.5625,0
1776973570.747,9.2368,2.241,-1.3815,0.0203,-0.0136,-0.029,-87.9,41.55,16.65,9.2632,1.2594,-1.7789,0.2904,-0.0506,0.0762,-79.35,29.25,0.0,-3.57,-3.71,-8.24,-0.0742,0.0229,0.0273,10.0625,33.1875,22.75,2.3125,-21.5,157.625,0
1776973570.756,9.3494,2.2482,-1.5179,-0.0317,0.0325,-0.0346,-87.9,41.55,16.65,9.481,0.9409,-1.9034,0.2723,-0.024,0.0791,-79.35,27.75,1.05,-3.85,-3.58,-8.43,-0.0818,0.0055,0.0371,10.0625,33.1875,22.75,2.3125,-21.5,157.625,0
1776973570.762,8.8011,2.1261,-1.5993,-0.064,0.134,-0.032,-88.95,41.55,17.4,10.1131,0.249,-1.9058,0.2273,-0.0181,0.1085,-78.15,27.75,-0.3,-3.79,-3.52,-8.4,-0.0818,0.0055,0.0349,10.0625,33.1875,22.75,2.3125,-21.5625,157.6875,0
1776973570.767,8.8011,2.1261,-1.5993,-0.064,0.134,-0.032,-88.95,41.55,17.4,10.1131,0.249,-1.9058,0.2273,-0.0181,0.1085,-78.15,27.75,-0.3,-3.79,-3.52,-8.4,-0.0818,0.0055,0.0349,10.0625,33.1875,22.75,2.3125,-21.5625,157.6875,0
1776973570.772,9.4523,2.0734,-1.913,-0.0674,0.4013,-0.004,-89.4,41.7,17.25,10.5704,0.3041,-2.1165,0.2172,-0.0128,0.1972,-79.8,28.65,0.45,-3.97,-3.51,-8.55,-0.0676,0.0109,0.0229,10.75,33.1875,21.5625,2.1875,-21.5625,157.6875,0
1776973570.777,9.4523,2.0734,-1.913,-0.0674,0.4013,-0.004,-89.4,41.7,17.25,10.5704,0.3041,-2.1165,0.2172,-0.0128,0.1972,-79.8,28.65,0.45,-3.97,-3.51,-8.55,-0.0676,0.0109,0.0229,10.75,33.1875,21.5625,2.1875,-21.5625,157.6875,0
1776973570.782,9.9407,2.1093,-2.162,0.0616,0.1623,0.0344,-87.6,41.4,18.3,9.3637,-0.0551,-1.7621,0.1274,-0.0706,0.1865,-79.8,28.65,0.45,-3.93,-3.23,-8.61,-0.0382,0.0196,0.0087,10.75,33.1875,21.5625,2.1875,-21.5625,157.75,0
1776973570.787,9.9407,2.1093,-2.162,0.0616,0.1623,0.0344,-87.6,41.4,18.3,9.3637,-0.0551,-1.7621,0.1274,-0.0706,0.1865,-79.8,28.65,0.45,-3.93,-3.23,-8.61,-0.0382,0.0196,0.0087,10.75,33.1875,21.5625,2.1875,-21.5625,157.75,0
1776973570.792,8.5329,1.822,-1.8675,0.0155,0.3184,0.0741,-89.25,42.3,17.4,8.157,-0.1221,-1.4461,-0.1532,-0.0456,0.0608,-79.5,29.1,-0.45,-3.72,-3.52,-8.41,-0.0175,0.0262,-0.0065,10.75,33.1875,21.5625,2.1875,-21.5,157.75,0
1776973570.797,8.5329,1.822,-1.8675,0.0155,0.3184,0.0741,-89.25,42.3,17.4,8.157,-0.1221,-1.4461,-0.1532,-0.0456,0.0608,-79.5,29.1,-0.45,-3.72,-3.52,-8.41,-0.0175,0.0262,-0.0065,10.75,33.1875,21.5625,2.1875,-21.5,157.75,0
1776973570.806,8.4755,1.7621,-1.6759,0.0831,0.7834,0.0791,-89.25,42.3,17.4,8.655,1.0008,-2.1261,-0.2054,0.0211,0.029,-79.5,29.1,-0.45,-3.76,-3.5,-8.36,-0.0076,0.0175,-0.012,10.75,33.1875,21.5625,2.1875,-21.5,157.75,0
1776973570.814,9.1411,1.8651,-1.573,0.0722,0.934,0.069,-89.25,42.3,17.4,9.7372,1.8483,-2.1284,-0.0735,-0.0133,0.0464,-80.4,28.5,-0.6,-3.72,-3.55,-8.33,-0.012,0.0295,-0.012,10.75,33.1875,21.5625,2.1875,-21.5,157.75,0
1776973570.819,9.1411,1.8651,-1.573,0.0722,0.934,0.069,-88.2,42.0,18.45,10.0628,2.0255,-2.1931,-0.0735,-0.0133,0.0464,-80.4,28.5,-0.6,-3.72,-3.55,-8.33,-0.012,0.0295,-0.012,10.75,33.1875,21.5625,2.1875,-21.5,157.75,0
1776973570.824,8.4324,2.1763,-1.2091,-0.0562,1.2225,0.0807,-88.2,42.0,18.45,10.0628,2.0255,-2.1931,0.0266,-0.0424,0.0687,-79.5,27.9,0.15,-3.67,-3.5,-8.33,-0.0229,0.0447,-0.0109,10.75,32.75,21.0625,2.0625,-21.5,157.75,0
1776973570.829,8.4324,2.1763,-1.2091,-0.0562,1.2225,0.0807,-88.05,41.4,19.35,10.3142,2.0231,-2.0758,0.0266,-0.0424,0.0687,-79.5,27.9,0.15,-3.67,-3.5,-8.33,-0.0229,0.0447,-0.0109,10.75,32.75,21.0625,2.0625,-21.5,157.75,0
1776973570.833,9.4786,2.3152,-1.3743,-0.1564,1.4512,0.0767,-88.05,41.4,19.35,10.3142,2.0231,-2.0758,0.1785,-0.0618,0.1228,-79.5,26.7,-1.65,-3.75,-3.47,-8.42,-0.0295,0.0295,-0.0065,10.75,32.75,21.0625,2.0625,-21.4375,157.75,0
1776973570.838,9.4786,2.3152,-1.3743,-0.1564,1.4512,0.0767,-87.0,41.4,18.6,9.2967,1.2043,-1.8028,0.1785,-0.0618,0.1228,-79.5,26.7,-1.65,-3.75,-3.47,-8.42,-0.0295,0.0295,-0.0065,10.75,32.75,21.0625,2.0625,-21.4375,157.75,0
1776973570.843,12.2846,2.794,-1.9058,0.1098,0.6925,0.0637,-87.0,41.4,18.6,9.2967,1.2043,-1.8028,0.2451,-0.1063,0.1159,-79.5,27.45,0.15,-3.8,-3.54,-8.4,-0.0404,0.0109,-0.0065,10.75,32.75,21.0625,2.0625,-21.4375,157.8125,0
1776973570.848,12.2846,2.794,-1.9058,0.1098,0.6925,0.0637,-89.85,40.65,20.4,8.4013,0.5986,-1.6281,0.2451,-0.1063,0.1159,-79.5,27.45,0.15,-3.8,-3.54,-8.4,-0.0404,0.0109,-0.0065,10.75,32.75,21.0625,2.0625,-21.4375,157.8125,0
1776973570.856,9.7899,3.0694,-1.3815,0.2089,-0.2148,0.0394,-89.85,40.65,20.4,8.4013,0.5986,-1.6281,0.1215,-0.0909,0.028,-79.5,28.65,0.45,-3.78,-3.55,-8.36,-0.0284,0.0273,-0.0087,10.75,32.75,21.0625,2.0625,-21.4375,157.8125,0
1776973570.864,9.3996,2.9497,-1.5514,0.1591,-0.0767,-0.0171,-89.85,40.65,20.4,8.8753,1.2809,-1.9225,0.0336,-0.036,0.0093,-80.1,27.75,-0.6,-3.63,-3.59,-8.24,-0.0393,0.0371,-0.0076,10.75,32.75,21.0625,2.0625,-21.4375,157.8125,0
1776973570.869,9.2081,2.9664,-0.9888,0.2308,-0.0477,-0.0341,-88.95,40.05,19.5,9.4595,1.7669,-2.2314,0.0831,-0.0338,0.0109,-80.1,27.75,-0.6,-3.63,-3.59,-8.24,-0.0393,0.0371,-0.0076,10.75,32.75,21.0625,2.0625,-21.4375,157.8125,0
1776973570.874,9.2081,2.9664,-0.9888,0.2308,-0.0477,-0.0341,-88.95,40.05,19.5,9.4595,1.7669,-2.2314,0.0831,-0.0338,0.0109,-80.1,27.75,-0.6,-3.58,-3.59,-8.27,-0.0654,0.0458,0.0,10.0625,34.0,21.0625,1.8125,-21.4375,157.875,0
1776973570.879,10.0652,3.0981,-1.0726,0.2827,-0.113,-0.0344,-88.8,40.95,20.7,9.7827,1.482,-2.2769,0.1471,-0.0642,0.0277,-80.1,27.75,-0.6,-3.58,-3.59,-8.27,-0.0654,0.0458,0.0,10.0625,34.0,21.0625,1.8125,-21.4375,157.875,0
1776973570.884,10.0652,3.0981,-1.0726,0.2827,-0.113,-0.0344,-88.8,40.95,20.7,9.7827,1.482,-2.2769,0.1471,-0.0642,0.0277,-79.35,27.75,0.0,-3.52,-3.57,-8.25,-0.0633,0.0425,0.0044,10.0625,34.0,21.0625,1.8125,-21.4375,157.875,0
1776973570.889,12.481,3.1987,-1.8459,0.5425,-1.2502,-0.089,-87.3,41.7,20.1,9.5744,0.7302,-2.1596,0.1652,-0.1031,0.0181,-79.35,27.75,0.0,-3.52,-3.57,-8.25,-0.0633,0.0425,0.0044,10.0625,34.0,21.0625,1.8125,-21.4375,157.875,0
1776973570.894,12.481,3.1987,-1.8459,0.5425,-1.2502,-0.089,-87.3,41.7,20.1,9.5744,0.7302,-2.1596,0.1652,-0.1031,0.0181,-79.5,27.9,-0.9,-3.52,-3.52,-8.34,-0.0709,0.0185,0.0142,10.0625,34.0,21.0625,1.8125,-21.375,157.9375,0
1776973570.899,7.4292,2.873,-1.3767,0.4074,-1.1588,-0.0799,-88.05,42.9,18.6,9.3781,0.2921,-2.162,0.1258,-0.0919,-0.0298,-79.5,27.9,-0.9,-3.52,-3.52,-8.34,-0.0709,0.0185,0.0142,10.0625,34.0,21.0625,1.8125,-21.4375,158.0,0
1776973570.907,7.4292,2.873,-1.3767,0.1772,-0.0474,-0.0805,-88.05,42.9,18.6,9.6414,0.3089,-2.0925,0.024,-0.0917,-0.0013,-78.9,27.3,-1.35,-3.86,-3.26,-8.57,-0.0807,-0.012,0.024,10.0625,34.0,21.0625,1.8125,-21.4375,158.0,0
1776973570.916,8.7747,2.375,-1.2594,0.2212,0.13,0.0032,-88.05,42.9,18.6,9.3326,0.3184,-1.9632,-0.0922,-0.0869,0.008,-79.5,29.1,-1.65,-3.89,-3.21,-8.63,-0.06,-0.0142,0.0153,10.0625,34.0,21.0625,1.8125,-21.4375,158.0,0
1776973570.921,9.6199,2.3727,-1.3096,0.2212,0.13,0.0032,-88.05,42.9,18.6,9.3326,0.3184,-1.9632,-0.0922,-0.0869,0.008,-79.8,28.35,-0.45,-3.89,-3.21,-8.63,-0.06,-0.0142,0.0153,10.0625,34.0,21.0625,1.8125,-21.4375,158.0625,0
1776973570.926,9.56,2.2769,-1.5419,0.2353,-0.0914,0.0322,-87.45,41.25,18.15,9.3781,0.3998,-1.6305,-0.1092,-0.0949,-0.0195,-79.8,28.35,-0.45,-3.71,-3.28,-8.47,-0.0349,0.0011,0.0011,11.1875,33.1875,20.75,1.8125,-21.4375,158.0625,0
1776973570.931,9.56,2.2769,-1.5419,0.2353,-0.0914,0.0322,-87.45,41.25,18.15,9.3781,0.3998,-1.6305,-0.1092,-0.0949,-0.0195,-79.8,28.35,-0.45,-3.71,-3.28,-8.47,-0.0349,0.0011,0.0011,11.1875,33.1875,20.75,1.8125,-21.4375,158.0625,0
1776973570.936,9.3494,1.5921,-1.4892,0.1615,-0.1034,0.0354,-86.4,42.0,18.75,9.7468,0.644,-1.5658,-0.1066,-0.109,-0.0117,-79.5,27.9,-1.2,-3.6,-3.34,-8.4,-0.0338,0.0,-0.0011,11.1875,33.1875,20.75,1.8125,-21.4375,158.0625,0
1776973570.941,9.3494,1.5921,-1.4892,0.1615,-0.1034,0.0354,-86.4,42.0,18.75,9.7468,0.644,-1.5658,-0.1066,-0.109,-0.0117,-79.5,27.9,-1.2,-3.6,-3.34,-8.4,-0.0393,-0.0142,0.012,11.1875,33.1875,20.75,1.8125,-21.4375,158.0625,0
1776973570.947,9.1961,1.4293,-1.3479,0.2009,-0.1159,0.04,-87.0,41.7,17.85,9.596,0.8547,-1.4533,-0.0528,-0.1537,-0.028,-79.5,27.9,-1.2,-3.75,-3.34,-8.47,-0.0393,-0.0142,0.012,11.1875,33.1875,20.75,1.8125,-21.4375,158.0625,0
1776973570.956,8.8705,1.4533,-1.1899,0.199,-0.048,0.0613,-88.95,42.75,17.7,9.7133,1.2019,-1.6161,-0.0594,-0.1705,-0.0027,-79.05,28.65,-0.9,-3.77,-3.41,-8.45,-0.0415,-0.0033,0.0131,11.1875,33.1875,20.75,1.8125,-21.4375,158.125,0
1776973570.964,8.8705,1.4533,-1.1899,0.199,-0.048,0.0613,-88.95,42.75,17.7,9.2153,1.324,-1.6424,-0.0594,-0.1705,-0.0027,-79.05,28.65,-0.9,-3.96,-3.56,-8.45,-0.036,-0.0022,0.0098,11.1875,33.1875,20.75,1.8125,-21.4375,158.125,0
1776973570.968,9.1315,1.494,-1.312,0.1383,0.0741,0.0863,-88.95,42.75,17.7,9.2153,1.324,-1.6424,-0.0586,-0.1335,-0.0179,-79.05,28.65,-0.9,-3.96,-3.56,-8.45,-0.036,-0.0022,0.0098,11.1875,33.1875,20.75,1.8125,-21.4375,158.125,0
1776973570.973,9.1315,1.494,-1.312,0.1383,0.0741,0.0863,-88.95,42.75,17.7,9.2823,1.4222,-1.5778,-0.0586,-0.1335,-0.0179,-80.25,27.9,-1.2,-3.93,-3.52,-8.47,-0.0284,0.0033,0.0022,10.375,32.75,21.5625,1.6875,-21.5,158.125,0
1776973570.978,9.2249,1.6568,-1.2905,0.1881,0.0045,0.1279,-88.5,40.8,19.95,9.2823,1.4222,-1.5778,0.0005,-0.1172,-0.0341,-80.25,27.9,-1.2,-3.93,-3.52,-8.47,-0.0284,0.0033,0.0022,10.375,32.75,21.5625,1.6875,-21.5,158.125,0
1776973570.983,9.2249,1.6568,-1.2905,0.1881,0.0045,0.1279,-88.5,40.8,19.95,9.0716,1.6759,-1.7933,0.0879,-0.0901,-0.0469,-79.65,29.25,-1.05,-3.89,-3.46,-8.51,-0.012,0.0229,-0.0131,10.375,32.75,21.5625,1.625,-21.5,158.125,0
1776973570.988,9.1961,1.6759,-1.2498,0.1644,0.0778,0.1514,-88.2,42.0,19.2,9.0716,1.6759,-1.7933,0.0879,-0.0901,-0.0469,-79.65,29.25,-1.05,-3.89,-3.46,-8.51,-0.012,0.0229,-0.0131,10.375,32.75,21.5625,1.625,-21.5,158.125,0
1776973570.993,9.1961,1.6759,-1.2498,0.1644,0.0778,0.1514,-88.2,42.0,19.2,9.6031,1.6855,-2.1428,0.2116,-0.0855,-0.0608,-78.75,27.9,0.15,-3.77,-3.52,-8.42,0.0022,0.0404,-0.0251,10.375,32.75,21.5625,1.625,-21.4375,158.125,0
1776973570.998,9.4739,1.8531,-1.4054,0.19,0.0909,0.1511,-88.2,41.25,19.2,9.6031,1.6855,-2.1428,0.2116,-0.0855,-0.0608,-78.75,27.9,0.15,-3.77,-3.52,-8.42,0.0022,0.0404,-0.0251,10.375,32.75,21.5625,1.625,-21.4375,158.125,0
1776973571.007,9.5816,2.0686,-1.3336,0.2486,0.0203,0.137,-88.35,42.9,19.05,10.1107,1.1923,-2.2649,0.3587,-0.1362,-0.0512,-79.5,27.9,-1.2,-3.75,-3.56,-8.41,-0.0022,0.0458,-0.0316,10.375,32.75,21.5625,1.625,-21.4375,158.125,0
1776973571.013,9.7947,2.2793,-1.2689,0.2294,0.0077,0.1343,-87.45,42.9,19.05,9.9479,0.7374,-2.3655,0.392,-0.1609,-0.0141,-78.9,28.5,-0.6,-3.8,-3.5,-8.45,-0.0098,0.0447,-0.0404,10.375,32.75,21.5625,1.625,-21.4375,158.125,0
1776973571.018,9.7947,2.2793,-1.2689,0.2294,0.0077,0.1343,-87.45,42.75,18.45,9.9479,0.7374,-2.3655,0.392,-0.1609,-0.0141,-78.9,28.5,-0.6,-3.8,-3.5,-8.45,-0.0098,0.0447,-0.0404,10.375,32.75,21.5625,1.625,-21.4375,158.125,0
1776973571.023,9.9934,2.3176,-1.3886,0.2228,-0.0544,0.1074,-87.45,42.75,18.45,9.7252,0.4645,-1.9321,0.4072,-0.1644,0.0131,-79.8,28.65,-0.9,-3.8,-3.5,-8.45,-0.0055,0.0469,-0.0524,10.375,32.75,22.25,1.375,-21.375,158.0625,0
1776973571.028,9.9934,2.3176,-1.3886,0.2228,-0.0544,0.1074,-87.45,42.75,18.45,9.7252,0.4645,-1.9321,0.4072,-0.1644,0.0131,-79.8,28.65,-0.9,-3.68,-3.5,-8.43,-0.0055,0.0469,-0.0524,10.375,32.75,22.25,1.375,-21.375,158.0625,0
1776973571.032,9.663,2.2913,-1.4533,0.1767,-0.0187,0.0581,-87.45,42.75,18.45,9.1937,0.4764,-1.6759,0.3512,-0.1676,0.008,-79.8,28.65,-0.9,-3.68,-3.5,-8.43,-0.0055,0.0469,-0.0524,10.375,32.75,22.25,1.375,-21.375,158.0625,0
1776973571.037,9.663,2.2913,-1.4533,0.1767,-0.0187,0.0581,-89.1,42.45,18.3,9.1937,0.4764,-1.6759,0.3512,-0.1676,0.008,-79.8,28.65,-0.9,-3.73,-3.46,-8.44,0.0033,0.0415,-0.0622,10.375,32.75,22.25,1.375,-21.375,158.0625,0
1776973571.042,9.6103,2.3846,-1.3743,0.1641,0.0349,0.0117,-89.1,42.45,18.3,9.1722,1.2546,-1.7789,0.3024,-0.1146,-0.0048,-79.8,28.65,-0.9,-3.82,-3.41,-8.47,0.0065,0.0305,-0.0687,10.375,32.75,22.25,1.3125,-21.3125,158.0625,0
1776973571.047,9.6103,2.3846,-1.3743,0.1641,0.0349,0.0117,-88.35,40.65,17.25,9.1722,1.2546,-1.7789,0.3024,-0.1146,-0.0048,-80.4,27.3,-1.05,-3.82,-3.41,-8.47,0.0065,0.0305,-0.0687,10.375,32.75,22.25,1.25,-21.3125,158.0625,0
1776973571.057,9.5577,2.5618,-1.4844,0.1644,0.0986,0.0021,-87.6,42.45,18.3,9.7133,1.4365,-1.9992,0.3142,-0.1295,-0.0123,-80.1,27.3,-2.1,-3.91,-3.59,-8.48,-0.0087,0.0295,-0.0742,10.375,32.75,22.25,1.25,-21.3125,158.0625,0
1776973571.062,9.5026,2.818,-1.7142,0.1769,0.0629,-0.0192,-88.05,40.95,18.3,9.9072,1.391,-2.0494,0.3331,-0.1535,-0.0056,-80.1,27.75,-1.35,-3.86,-3.75,-8.4,0.0142,0.0567,-0.0971,10.375,32.75,22.25,1.25,-21.25,158.0,0
1776973571.068,9.5026,2.818,-1.7142,0.1769,0.0629,-0.0192,-88.05,40.95,18.3,9.9072,1.391,-2.0494,0.3331,-0.1535,-0.0056,-80.1,27.75,-1.35,-3.86,-3.75,-8.4,0.0142,0.0567,-0.0971,10.375,32.75,22.25,1.25,-21.25,158.0,0
1776973571.073,9.3853,2.9113,-1.8986,0.1679,0.028,-0.0282,-88.05,40.95,18.3,10.1251,1.0822,-2.2482,0.3648,-0.1903,0.0394,-80.1,27.75,-1.35,-3.86,-3.75,-8.4,0.0033,0.0633,-0.1167,10.375,32.5,22.0,1.0625,-21.25,158.0,0
1776973571.077,9.3853,2.9113,-1.8986,0.1679,0.028,-0.0282,-88.05,40.95,18.3,10.1251,1.0822,-2.2482,0.3648,-0.1903,0.0394,-80.4,28.05,-1.8,-3.9,-3.91,-8.37,0.0033,0.0633,-0.1167,10.375,32.5,22.0,1.0625,-21.25,158.0,0
1776973571.082,9.2392,3.0526,-2.0638,0.1522,0.0224,-0.04,-88.05,40.95,18.3,9.3518,0.9266,-2.4205,0.3238,-0.1839,0.044,-80.4,28.05,-1.8,-3.9,-3.91,-8.37,-0.0044,0.0807,-0.1451,10.375,32.5,22.0,0.9375,-21.125,158.0,0
1776973571.087,9.2392,3.0526,-2.0638,0.1522,0.0224,-0.04,-90.75,41.55,18.15,9.3518,0.9266,-2.4205,0.3238,-0.1839,0.044,-78.75,28.35,-3.0,-3.74,-3.55,-8.43,-0.0044,0.0807,-0.1451,10.375,32.5,22.0,0.9375,-21.125,158.0,0
1776973571.094,9.0621,3.1675,-1.9752,0.1836,-0.0037,-0.0504,-87.9,41.25,17.4,9.177,1.0511,-2.5307,0.2691,-0.1631,0.0338,-78.75,28.35,-2.7,-3.59,-3.75,-8.37,-0.0207,0.0873,-0.1658,10.375,32.5,22.0,0.875,-21.0625,157.9375,0
1776973571.099,9.0621,3.1675,-1.9752,0.1836,-0.0037,-0.0504,-87.9,41.25,17.4,8.9807,1.3096,-2.5546,0.243,-0.1458,0.0197,-78.75,28.35,-2.7,-3.59,-3.75,-8.37,-0.0207,0.0873,-0.1658,10.375,32.5,22.0,0.8125,-21.0,157.9375,0
1776973571.107,9.0644,3.1987,-1.5921,0.1964,0.0666,-0.069,-89.25,42.75,17.4,8.9807,1.3096,-2.5546,0.243,-0.1458,0.0197,-78.75,28.35,-2.7,-3.5,-3.6,-8.26,-0.0207,0.0818,-0.1909,10.375,32.5,22.0,0.6875,-20.9375,157.9375,0
1776973571.117,9.1961,3.2968,-1.5802,0.2238,0.1215,-0.0943,-88.05,43.2,19.05,9.426,0.3998,-2.5929,0.2172,-0.1418,-0.0354,-80.1,27.75,-1.05,-3.38,-3.81,-8.18,-0.0665,0.0578,-0.2029,10.375,32.5,22.0,0.6875,-20.9375,157.9375,0
1776973571.122,9.4236,3.0861,-1.8699,0.2699,0.1069,-0.1231,-89.4,41.4,18.6,9.426,0.3998,-2.5929,0.2038,-0.1644,-0.0658,-80.1,27.75,-1.05,-3.38,-3.81,-8.18,-0.0665,0.0578,-0.2029,10.375,32.5,22.0,0.5,-20.875,157.9375,0
1776973571.127,9.4236,3.0861,-1.8699,0.2699,0.1069,-0.1231,-89.4,41.4,18.6,7.9727,0.7446,-2.4445,0.2038,-0.1644,-0.0658,-80.1,27.75,-1.05,-3.23,-3.75,-8.14,-0.0535,0.0458,-0.2356,11.1875,34.0,22.25,0.5,-20.875,157.9375,0
1776973571.132,9.5217,2.909,-2.1931,0.3837,0.2635,-0.1196,-89.4,41.4,18.6,7.9727,0.7446,-2.4445,0.0525,-0.134,-0.1077,-80.1,27.75,-1.05,-3.23,-3.75,-8.14,-0.0535,0.0458,-0.2356,11.1875,34.0,22.25,0.5,-20.875,157.9375,0
1776973571.137,9.5217,2.909,-2.1931,0.3837,0.2635,-0.1196,-89.4,41.4,18.6,10.8098,1.0846,-2.2529,0.0472,-0.1724,-0.0152,-79.05,29.85,-1.65,-3.44,-3.85,-8.18,-0.0807,-0.0033,-0.2553,11.1875,34.0,22.25,0.375,-20.8125,157.875,0
1776973571.142,9.4667,2.9161,-2.2482,0.4666,0.109,-0.0967,-88.8,43.65,18.6,10.8098,1.0846,-2.2529,0.0472,-0.1724,-0.0152,-79.05,29.85,-1.65,-3.44,-3.85,-8.18,-0.1156,-0.0535,-0.2913,11.1875,34.0,22.25,0.1875,-20.75,157.9375,0
1776973571.147,9.4667,2.9161,-2.2482,0.4666,0.109,-0.0967,-88.8,43.65,18.6,9.0573,1.9441,-2.2122,-0.0528,-0.1553,0.0632,-79.8,28.35,-3.75,-3.55,-3.48,-8.43,-0.1156,-0.0535,-0.2913,11.1875,34.0,22.25,0.0,-20.75,157.875,0
1776973571.157,8.9974,2.7916,-2.0662,0.5009,0.1716,-0.077,-88.35,41.4,17.85,8.8538,2.6671,-2.1021,0.0075,-0.1108,0.044,-80.25,28.65,-2.7,-3.52,-3.61,-8.39,-0.1069,-0.0764,-0.3469,11.1875,34.0,22.25,0.0,-20.75,157.875,0
1776973571.163,9.1674,2.5618,-1.7166,0.4618,0.1343,-0.0461,-89.85,42.45,17.55,8.8538,2.6671,-2.1021,0.0075,-0.1108,0.044,-80.25,28.65,-2.7,-3.46,-3.5,-8.4,-0.108,-0.1058,-0.3905,11.1875,34.0,22.25,359.75,-20.6875,157.875,0
1776973571.168,8.9471,2.1715,-1.6257,0.4517,0.0845,-0.0448,-89.85,42.45,17.55,9.2656,2.4205,-1.9537,0.2545,-0.1236,0.0179,-79.8,27.15,-2.4,-3.46,-3.5,-8.4,-0.108,-0.1058,-0.3905,11.1875,34.0,22.25,359.75,-20.6875,157.875,0
1776973571.173,8.9471,2.1715,-1.6257,0.4517,0.0845,-0.0448,-87.0,43.65,19.05,9.2656,2.4205,-1.9537,0.2545,-0.1236,0.0179,-79.8,27.15,-2.4,-3.46,-3.5,-8.4,-0.1429,-0.1244,-0.3905,10.0625,32.75,22.75,359.375,-20.6875,157.8125,0
1776973571.178,8.8777,1.889,-1.5299,0.4,0.1159,-0.0496,-87.0,43.65,19.05,8.8681,1.913,-2.1189,0.4112,-0.1292,-0.0208,-79.8,27.15,-2.4,-3.6,-3.77,-8.32,-0.1429,-0.1244,-0.3905,10.0625,32.75,22.75,359.375,-20.6875,157.8125,0
1776973571.182,8.8777,1.889,-1.5299,0.4,0.1159,-0.0496,-87.0,43.65,19.05,8.8681,1.913,-2.1189,0.4112,-0.1292,-0.0208,-79.8,27.15,-2.4,-3.6,-3.77,-8.32,-0.1669,-0.1145,-0.4025,10.0625,32.75,22.75,359.125,-20.6875,157.8125,0
1776973571.187,9.0812,1.7334,-1.5945,0.3781,0.1572,-0.0298,-87.0,43.65,19.05,8.7939,1.8076,-2.4157,0.4834,-0.0717,-0.0474,-79.05,27.9,-3.0,-3.63,-4.01,-8.24,-0.1669,-0.1145,-0.4025,10.0625,32.75,22.75,359.125,-20.6875,157.8125,0
1776973571.192,9.0812,1.7334,-1.5945,0.3781,0.1572,-0.0298,-88.5,42.75,17.4,8.7939,1.8076,-2.4157,0.4834,-0.0717,-0.0474,-79.05,27.9,-3.0,-3.63,-4.01,-8.24,-0.1909,-0.1025,-0.4243,10.0625,32.75,22.75,358.8125,-20.625,157.8125,0
1776973571.198,9.2368,1.7526,-1.5802,0.3523,0.1404,0.0037,-88.5,42.75,17.4,9.4332,1.5419,-2.4134,0.5263,-0.0501,-0.0386,-79.05,27.9,-3.0,-3.69,-3.76,-8.39,-0.1909,-0.1025,-0.4243,10.0625,32.75,22.75,358.5625,-20.625,157.8125,0
1776973571.207,9.4739,1.8244,-1.5036,0.3808,0.1255,0.0346,-87.9,42.0,19.5,9.3829,1.2977,-2.4062,0.5033,-0.0229,-0.0179,-79.5,28.35,-3.45,-3.77,-3.92,-8.41,-0.2062,-0.1058,-0.4734,10.0625,32.75,22.75,358.1875,-20.5625,157.8125,0
1776973571.217,9.7923,2.1452,-1.6448,0.4247,0.0874,0.0538,-88.35,42.45,17.25,9.5672,1.0223,-2.3487,0.5319,0.028,0.0072,-79.35,28.05,-3.3,-3.89,-4.2,-8.35,-0.2007,-0.12,-0.5476,10.0625,32.75,22.75,358.1875,-20.5625,157.8125,0
1776973571.222,9.7923,2.1452,-1.6448,0.4247,0.0874,0.0538,-89.85,43.2,17.25,9.5672,1.0223,-2.3487,0.5319,0.028,0.0072,-79.35,28.05,-3.3,-3.89,-4.2,-8.35,-0.2007,-0.12,-0.5476,10.0625,32.75,22.75,358.1875,-20.5625,157.8125,0
1776973571.227,9.8378,2.3679,-1.8603,0.4413,0.0592,0.0338,-89.85,43.2,17.25,9.7779,0.6369,-2.241,0.5596,-0.0035,0.0274,-79.8,28.35,-4.95,-3.76,-3.89,-8.37,-0.1844,-0.1342,-0.6425,9.375,32.75,22.0,357.6875,-20.5,157.75,0
1776973571.232,9.8378,2.3679,-1.8603,0.4413,0.0592,0.0338,-88.5,42.75,17.4,9.7516,0.8499,-2.1189,0.5596,-0.0035,0.0274,-79.8,28.35,-4.95,-3.76,-3.89,-8.37,-0.1844,-0.1342,-0.6425,9.375,32.75,22.0,357.6875,-20.5,157.75,0
1776973571.237,9.9551,2.2242,-1.8699,0.4959,0.0298,-0.0048,-88.5,42.75,17.4,9.7516,0.8499,-2.1189,0.6097,-0.0064,0.0264,-79.05,28.65,-5.7,-3.56,-4.05,-8.19,-0.2051,-0.1331,-0.7178,9.375,32.75,22.0,357.25,-20.375,157.75,0
1776973571.242,9.9551,2.2242,-1.8699,0.4959,0.0298,-0.0048,-88.5,42.75,17.4,9.5768,1.4174,-1.9896,0.6097,-0.0064,0.0264,-79.05,28.65,-5.7,-3.56,-4.05,-8.19,-0.2171,-0.1702,-0.7909,9.375,32.75,22.0,356.8125,-20.3125,157.6875,0
1776973571.248,9.7444,2.0303,-1.7238,0.473,0.0128,-0.0522,-88.5,42.75,17.4,9.5768,1.4174,-1.9896,0.6704,-0.0064,0.0282,-78.45,29.25,-4.05,-3.6,-4.46,-8.02,-0.2171,-0.1702,-0.7909,9.375,32.75,22.0,356.25,-20.25,157.625,0
1776973571.257,9.6103,2.3248,-1.6185,0.4692,0.0594,-0.0903,-88.95,42.75,15.9,9.3565,1.889,-2.0135,0.7229,-0.008,0.0314,-79.35,28.5,-4.05,-3.68,-4.6,-8.0,-0.24,-0.2083,-0.8661,9.375,32.75,22.0,355.6875,-20.1875,157.625,0
1776973571.267,9.5529,2.3774,-1.8292,0.4018,0.032,-0.1455,-88.05,42.45,16.8,9.3877,1.8435,-2.241,0.8303,-0.0048,0.0152,-79.35,28.5,-4.05,-3.61,-4.3,-8.12,-0.2814,-0.2356,-0.9501,9.375,32.75,22.0,355.6875,-20.1875,157.625,0
1776973571.272,9.5529,2.3774,-1.8292,0.4018,0.032,-0.1455,-89.7,42.0,16.65,9.3134,1.5778,-2.0949,0.922,0.0069,0.036,-79.35,28.5,-4.05,-3.61,-4.3,-8.12,-0.2814,-0.2356,-0.9501,9.0,32.75,23.0625,354.9375,-20.0625,157.5625,0
1776973571.277,8.8514,2.4397,-1.9082,0.408,0.0954,-0.1807,-89.7,42.0,16.65,9.3134,1.5778,-2.0949,0.922,0.0069,0.036,-78.9,29.25,-3.6,-3.7,-4.33,-8.21,-0.3305,-0.2574,-1.033,9.0,32.75,23.0625,354.9375,-20.0625,157.5625,0
1776973571.282,8.8514,2.4397,-1.9082,0.408,0.0954,-0.1807,-88.5,43.05,16.65,9.4427,1.3743,-1.913,0.9633,0.0384,0.0568,-78.9,29.25,-3.6,-3.7,-4.33,-8.21,-0.3305,-0.2574,-1.033,9.0,32.75,23.0625,354.25,-20.0,157.5625,0
1776973571.287,9.1171,2.4852,-1.9106,0.3824,0.0671,-0.1729,-88.5,43.05,16.65,9.4427,1.3743,-1.913,0.9633,0.0384,0.0568,-78.9,29.25,-3.6,-3.74,-4.1,-8.16,-0.3567,-0.2891,-1.1246,9.0,32.75,23.0625,354.25,-20.0,157.5625,0
1776973571.292,9.1171,2.4852,-1.9106,0.3824,0.0671,-0.1729,-88.5,43.05,16.65,9.3158,1.1684,-2.0566,0.999,0.0618,0.0496,-78.9,29.25,-3.6,-3.74,-4.1,-8.16,-0.3774,-0.3196,-1.2185,9.0,32.75,23.0625,353.5,-19.875,157.5,0
1776973571.298,9.4882,2.7845,-1.9513,0.6403,0.2683,-0.1679,-88.5,43.05,16.65,9.3158,1.1684,-2.0566,0.999,0.0618,0.0496,-79.35,28.05,-5.85,-3.58,-4.31,-8.09,-0.3774,-0.3196,-1.2185,9.0,32.75,23.0625,353.5,-19.875,157.5,0
1776973571.307,9.2416,2.6025,-1.7071,0.5452,0.1956,-0.1466,-88.95,42.75,17.7,9.5098,0.9673,-2.1859,1.016,0.0618,0.0397,-79.35,28.5,-6.9,-3.58,-3.98,-8.14,-0.4123,-0.3469,-1.2905,9.0,32.75,23.0625,352.75,-19.8125,157.4375,0
1776973571.311,9.2416,2.6025,-1.7071,0.5452,0.1956,-0.1466,-88.8,43.65,16.5,9.6558,0.4142,-2.2458,1.0171,0.0549,0.0266,-79.35,28.5,-6.9,-3.58,-3.98,-8.14,-0.4571,-0.3731,-1.3286,9.0,32.75,23.0625,351.875,-19.75,157.3125,0
1776973571.318,9.2033,2.3918,-1.47,0.5193,0.1492,-0.1074,-88.8,43.65,16.5,9.6558,0.4142,-2.2458,1.0171,0.0549,0.0266,-78.15,28.5,-6.6,-3.37,-4.27,-8.08,-0.4571,-0.3731,-1.3286,9.0,32.75,23.0625,351.875,-19.75,157.3125,0
1776973571.323,9.2105,2.3176,-1.2426,0.4447,0.0997,-0.0847,-89.25,43.5,16.65,9.6295,-0.0503,-2.0279,0.9598,0.0013,0.0285,-78.15,28.5,-6.6,-3.37,-4.27,-8.08,-0.4571,-0.3731,-1.3286,8.1875,33.1875,22.75,351.0,-19.6875,157.3125,0
1776973571.328,9.2105,2.3176,-1.2426,0.4447,0.0997,-0.0847,-89.7,43.8,15.6,9.1363,0.7781,-2.0111,0.9598,0.0013,0.0285,-79.65,28.5,-7.35,-3.43,-3.94,-8.11,-0.4821,-0.4047,-1.3744,8.1875,33.1875,22.75,351.0,-19.6875,157.3125,0
1776973571.333,9.2081,2.4038,-1.0678,0.4343,0.064,-0.0762,-89.7,43.8,15.6,9.1363,0.7781,-2.0111,0.8505,0.0045,0.0629,-79.65,28.5,-7.35,-3.43,-3.94,-8.11,-0.4821,-0.4047,-1.3744,8.1875,33.1875,22.75,350.125,-19.625,157.25,0
1776973571.338,9.2081,2.4038,-1.0678,0.4343,0.064,-0.0762,-89.4,43.2,15.75,8.8633,1.7957,-2.2721,0.8505,0.0045,0.0629,-79.65,28.5,-7.35,-3.72,-3.59,-8.53,-0.5094,-0.4483,-1.4006,8.1875,33.1875,22.75,350.125,-19.625,157.25,0
1776973571.343,9.3254,2.3296,-1.0558,0.3848,0.0578,-0.0698,-89.4,43.2,15.75,8.8633,1.7957,-2.2721,0.9017,0.0509,0.0727,-79.65,28.5,-7.35,-3.72,-3.59,-8.53,-0.5181,-0.4581,-1.4224,8.1875,33.1875,22.75,349.25,-19.5625,157.25,0
1776973571.348,9.3254,2.3296,-1.0558,0.3848,0.0578,-0.0698,-89.4,43.2,15.75,9.0908,1.8627,-2.2817,0.9017,0.0509,0.0727,-80.25,28.65,-7.5,-3.76,-3.53,-8.54,-0.5181,-0.4581,-1.4224,8.1875,33.1875,22.75,348.375,-19.4375,157.25,0
1776973571.357,9.244,2.2505,-1.3551,0.3706,0.0797,-0.0871,-89.4,43.2,15.75,9.4403,1.0127,-2.241,1.0712,0.0925,0.044,-80.25,28.65,-7.5,-3.72,-4.03,-8.36,-0.5149,-0.4363,-1.4301,8.1875,33.1875,22.75,347.5,-19.375,157.25,0
1776973571.367,9.2799,2.3655,-1.6233,0.3874,0.1636,-0.1146,-88.35,44.4,15.45,9.4667,-0.2179,-1.9345,1.194,0.0927,0.0059,-80.25,28.35,-9.0,-3.63,-3.76,-8.33,-0.528,-0.4178,-1.4323,8.1875,33.1875,22.75,347.5,-19.375,157.25,0
1776973571.372,9.1435,2.5786,-1.8794,0.5489,0.2297,-0.1226,-89.4,44.4,15.0,9.4667,-0.2179,-1.9345,1.1951,0.0629,-0.0187,-80.25,28.35,-9.0,-3.63,-3.76,-8.33,-0.528,-0.4178,-1.4323,8.1875,33.1875,22.75,346.375,-19.25,157.25,0
1776973571.377,9.1435,2.5786,-1.8794,0.5489,0.2297,-0.1226,-89.4,44.4,15.0,9.517,-0.8906,-1.992,1.0682,0.0671,-0.0549,-79.05,29.55,-8.7,-3.66,-4.06,-8.39,-0.5421,-0.408,-1.441,5.25,32.5,23.0625,346.375,-19.25,157.25,0
1776973571.382,9.1722,2.8108,-1.9273,0.5196,0.2641,-0.1018,-88.35,45.15,15.0,9.517,-0.8906,-1.992,1.0682,0.0671,-0.0549,-79.05,29.55,-8.7,-3.66,-4.06,-8.39,-0.5421,-0.408,-1.441,5.25,32.5,23.0625,345.4375,-19.125,157.3125,0
1776973571.387,9.1722,2.8108,-1.9273,0.5196,0.2641,-0.1018,-88.2,45.0,14.85,9.6079,-0.8356,-2.4517,0.9585,0.0586,-0.0584,-80.25,29.85,-6.75,-3.43,-3.82,-8.32,-0.5443,-0.3949,-1.4726,5.25,32.5,23.0625,345.4375,-19.125,157.3125,0
1776973571.392,8.8753,2.5857,-1.9345,0.7421,0.3864,-0.0773,-88.2,45.0,14.85,9.6079,-0.8356,-2.4517,0.9585,0.0586,-0.0584,-80.25,29.85,-6.75,-3.43,-3.82,-8.32,-0.5541,-0.3785,-1.4868,5.25,32.5,23.0625,344.5625,-19.0625,157.3125,0
1776973571.398,8.8753,2.5857,-1.9345,0.7421,0.3864,-0.0773,-88.2,45.0,14.85,9.9072,-0.8859,-2.7198,0.8799,0.0266,-0.0637,-80.25,28.35,-7.5,-3.32,-3.63,-8.31,-0.5541,-0.3785,-1.4868,5.25,32.5,23.0625,343.625,-18.9375,157.3125,0
1776973571.407,9.3039,2.3343,-1.6664,0.7376,0.3405,-0.0248,-88.8,44.4,15.75,9.4475,-0.1939,-3.0071,0.8002,0.0482,-0.0477,-79.8,29.85,-9.0,-3.66,-3.16,-8.69,-0.5574,-0.384,-1.4693,5.25,32.5,23.0625,342.75,-18.8125,157.3125,0
1776973571.417,9.9024,2.0782,-1.5323,0.7504,0.2936,0.0152,-89.4,44.7,15.45,9.3087,0.5052,-3.1795,0.814,0.0757,-0.0474,-79.5,28.35,-7.95,-3.74,-3.05,-8.81,-0.54,-0.3992,-1.4628,5.25,32.5,23.0625,342.75,-18.8125,157.3125,0
1776973571.422,10.1394,1.8364,-1.7454,0.7666,0.2233,0.057,-89.4,44.7,15.45,9.3087,0.5052,-3.1795,0.814,0.0757,-0.0474,-79.5,28.35,-7.95,-3.74,-3.05,-8.81,-0.54,-0.3992,-1.4628,5.25,32.5,23.0625,341.6875,-18.6875,157.3125,0
1776973571.427,10.1394,1.8364,-1.7454,0.7666,0.2233,0.057,-89.25,44.55,16.35,9.3948,0.6584,-3.1747,0.9787,0.1127,-0.0357,-79.5,28.35,-7.95,-3.8,-2.78,-9.1,-0.5181,-0.3851,-1.441,4.1875,31.6875,24.25,341.6875,-18.6875,157.3125,0
1776973571.432,10.0341,1.7095,-2.0686,0.7306,0.1276,0.0682,-89.25,44.55,16.35,9.3948,0.6584,-3.1747,0.9787,0.1127,-0.0357,-79.5,28.35,-7.95,-3.8,-2.78,-9.1,-0.5181,-0.3851,-1.441,4.1875,31.6875,24.25,340.875,-18.5625,157.3125,0
1776973571.437,10.0341,1.7095,-2.0686,0.7306,0.1276,0.0682,-90.45,44.55,14.85,9.5792,0.7254,-2.7007,1.1812,0.1953,-0.0352,-80.4,30.0,-9.6,-4.06,-3.0,-9.03,-0.48,-0.348,-1.4104,4.1875,31.6875,24.25,340.875,-18.5625,157.3125,0
1776973571.442,9.9335,1.7142,-2.4038,0.797,0.1061,0.0658,-90.45,44.55,14.85,9.5792,0.7254,-2.7007,1.1812,0.1953,-0.0352,-80.4,30.0,-9.6,-4.06,-3.0,-9.03,-0.4309,-0.2967,-1.3908,4.1875,31.6875,24.25,340.0,-18.4375,157.3125,0
1776973571.448,9.9335,1.7142,-2.4038,0.797,0.1061,0.0658,-88.8,45.45,15.75,10.0628,1.0199,-2.0901,1.3318,0.2353,-0.037,-80.4,30.0,-9.6,-3.94,-3.41,-8.85,-0.4309,-0.2967,-1.3908,4.1875,31.6875,24.25,339.1875,-18.25,157.3125,0
1776973571.457,10.1418,1.7502,-2.5402,0.9198,0.0858,0.0354,-88.8,45.45,15.75,9.7133,1.1708,-1.9465,1.4565,0.2665,-0.0101,-79.35,28.95,-8.4,-3.99,-4.08,-8.61,-0.4003,-0.2542,-1.3908,4.1875,31.6875,24.25,338.3125,-18.0625,157.25,0
1776973571.467,9.6845,1.9824,-2.4325,0.8636,0.0642,-0.0517,-90.6,44.7,13.65,9.821,1.5371,-1.8747,1.582,0.2843,-0.004,-77.7,28.05,-7.65,-4.18,-4.96,-8.16,-0.3829,-0.2345,-1.4377,4.1875,31.6875,24.25,338.3125,-18.0625,157.25,0
1776973571.472,9.7037,2.3296,-2.7557,0.8636,0.0642,-0.0517,-90.6,44.7,13.65,9.6606,1.8148,-2.1691,1.582,0.2843,-0.004,-77.7,28.05,-7.65,-4.18,-4.96,-8.16,-0.3829,-0.2345,-1.4377,4.1875,31.6875,24.25,338.3125,-18.0625,157.25,0
1776973571.477,9.5241,2.3296,-2.4804,0.777,0.0314,-0.1362,-91.5,44.55,14.25,9.6606,1.8148,-2.1691,1.6872,0.2547,0.0144,-78.45,27.3,-9.15,-3.18,-5.3,-7.67,-0.4156,-0.2236,-1.5523,2.6875,31.0,25.5,337.25,-17.875,157.1875,0
1776973571.482,9.5241,2.3296,-2.4804,0.777,0.0314,-0.1362,-91.5,44.55,14.25,9.4236,1.6544,-2.2338,1.6872,0.2547,0.0144,-78.45,27.3,-9.15,-3.18,-5.3,-7.67,-0.4156,-0.2236,-1.5523,2.6875,31.0,25.5,337.25,-17.875,157.1875,0
1776973571.487,9.0453,2.1572,-2.3391,0.6073,0.1037,-0.2121,-90.15,45.15,13.65,9.4236,1.6544,-2.2338,1.9196,0.2555,0.0266,-80.4,27.0,-9.15,-2.93,-5.21,-7.51,-0.48,-0.2476,-1.6766,2.6875,31.0,25.5,336.25,-17.625,157.1875,0
1776973571.492,9.0453,2.1572,-2.3391,0.6073,0.1037,-0.2121,-90.15,45.15,13.65,9.4116,1.2067,-2.2266,2.1016,0.2753,0.0384,-80.4,27.0,-9.15,-2.93,-5.21,-7.51,-0.5258,-0.3502,-1.813,2.6875,31.0,25.5,335.1875,-17.4375,157.125,0
1776973571.498,9.0644,2.2242,-2.1476,0.5534,0.1684,-0.2766,-91.5,44.25,13.5,9.4116,1.2067,-2.2266,2.1016,0.2753,0.0384,-80.4,27.0,-9.15,-3.21,-5.31,-7.49,-0.5258,-0.3502,-1.813,2.6875,31.0,25.5,334.0,-17.25,157.125,0
1776973571.507,8.8729,2.411,-1.9393,0.4946,0.2617,-0.3016,-91.5,44.25,13.5,9.2464,0.7566,-2.1189,2.157,0.2995,0.0221,-78.75,28.35,-9.0,-3.37,-5.22,-7.68,-0.5552,-0.4745,-1.97,2.6875,31.0,25.5,332.6875,-17.0625,157.0625,0
1776973571.518,9.0046,2.6576,-2.083,0.4599,0.388,-0.2926,-89.85,46.95,13.35,9.086,0.0934,-2.2505,2.1698,0.3435,-0.0317,-78.75,28.35,-9.0,-3.5,-5.3,-7.77,-0.6043,-0.5661,-2.1042,2.6875,31.0,25.5,332.6875,-17.0625,157.0625,0
1776973571.523,9.0046,2.6576,-2.083,0.4599,0.388,-0.2926,-89.85,46.95,13.35,9.2488,-0.2777,-1.9728,2.0933,0.3728,-0.0504,-78.75,28.35,-9.0,-3.5,-5.3,-7.77,-0.6043,-0.5661,-2.1042,1.1875,31.0,26.25,331.3125,-16.9375,157.0625,0
1776973571.528,8.6503,2.9688,-2.2889,0.7088,0.4439,-0.275,-89.85,46.65,13.35,9.2488,-0.2777,-1.9728,2.0933,0.3728,-0.0504,-79.35,26.1,-9.15,-3.75,-5.24,-7.76,-0.6381,-0.649,-2.2427,1.1875,31.0,26.25,331.3125,-16.9375,157.0625,0
1776973571.533,8.6503,2.9688,-2.2889,0.7088,0.4439,-0.275,-89.85,46.65,13.35,9.5984,-0.4094,-1.9896,1.9145,0.3797,-0.0365,-79.35,26.1,-9.15,-3.75,-5.24,-7.76,-0.6381,-0.649,-2.2427,1.1875,31.0,26.25,329.8125,-16.75,157.0,0
1776973571.538,8.8059,3.2178,-2.411,0.8974,0.4604,-0.2835,-90.9,46.95,13.65,9.5984,-0.4094,-1.9896,1.9145,0.3797,-0.0365,-78.9,26.55,-9.15,-3.19,-4.99,-7.5,-0.673,-0.7025,-2.3824,1.1875,31.0,26.25,329.8125,-16.75,157.0,0
1776973571.543,8.8059,3.2178,-2.411,0.8974,0.4604,-0.2835,-90.9,46.95,13.65,9.754,0.1365,-1.8555,1.796,0.3581,0.0035,-78.9,26.55,-9.15,-3.19,-4.99,-7.5,-0.7003,-0.7701,-2.5144,1.1875,31.0,26.25,328.3125,-16.625,156.9375,0
1776973571.548,9.0573,3.2394,-2.6121,1.0371,0.34,-0.2817,-90.45,47.25,12.45,9.754,0.1365,-1.8555,1.796,0.3581,0.0035,-79.5,27.45,-8.7,-3.4,-4.54,-7.67,-0.7003,-0.7701,-2.5144,1.1875,31.0,26.25,326.6875,-16.5,156.875,0
1776973571.557,9.0932,3.0095,-2.7102,1.0797,0.5319,-0.2681,-91.5,48.75,12.75,9.5864,1.585,-1.7717,1.8111,0.2673,0.0794,-79.5,27.45,-8.7,-3.48,-4.23,-7.89,-0.7178,-0.8639,-2.6016,1.1875,31.0,26.25,325.0625,-16.375,156.875,0
1776973571.568,9.4236,2.9975,-2.5977,1.149,0.4455,-0.2654,-91.5,48.75,12.75,9.2273,2.1811,-2.1069,2.0155,0.2646,0.0975,-79.35,27.3,-8.1,-3.62,-4.11,-8.02,-0.7439,-0.9272,-2.6453,1.1875,31.0,26.25,325.0625,-16.375,156.875,0
1776973571.573,9.4236,2.9975,-2.5977,1.149,0.4455,-0.2654,-91.5,48.75,12.75,8.6119,1.3072,-2.6959,2.1738,0.2896,0.0533,-79.35,27.3,-8.1,-3.62,-4.11,-8.02,-0.7439,-0.9272,-2.6453,1.1875,31.0,26.25,323.375,-16.3125,156.8125,0
1776973571.578,8.9974,3.1436,-2.4086,1.004,0.4567,-0.2838,-90.6,49.65,13.35,8.9136,-0.2993,-3.0789,2.1738,0.2896,0.0533,-79.65,27.3,-8.1,-2.94,-3.65,-8.03,-0.769,-0.9447,-2.6485,-1.0,29.375,27.5,323.375,-16.3125,156.8125,0
1776973571.583,8.9974,3.1436,-2.4086,1.004,0.4567,-0.2838,-90.6,49.65,13.35,8.9136,-0.2993,-3.0789,2.2727,0.3344,-0.0453,-79.65,25.8,-8.4,-2.94,-3.65,-8.03,-0.769,-0.9447,-2.6485,-1.0,29.375,27.5,321.75,-16.1875,156.8125,0
1776973571.588,8.8346,3.1867,-2.1428,0.7669,0.8354,-0.3128,-91.35,51.15,12.9,9.2751,-1.6017,-2.5738,2.2727,0.3344,-0.0453,-79.65,25.8,-8.4,-2.76,-3.06,-8.24,-0.7985,-0.9425,-2.5994,-1.0,29.375,27.5,321.75,-16.1875,156.8125,0
1776973571.592,8.8346,3.1867,-2.1428,0.7669,0.8354,-0.3128,-91.35,51.15,12.9,9.2751,-1.6017,-2.5738,2.2218,0.288,-0.0655,-79.65,25.8,-8.4,-2.76,-3.06,-8.24,-0.8105,-0.9643,-2.5176,-1.0,29.375,27.5,320.1875,-16.125,156.8125,0
1776973571.598,9.2991,3.0047,-1.968,0.8727,0.5764,-0.3198,-91.5,51.0,12.0,9.074,-2.3966,-2.6528,1.9897,0.2614,-0.129,-78.45,26.1,-8.4,-3.12,-3.04,-8.45,-0.8105,-0.9643,-2.5176,-1.0,29.375,27.5,318.625,-16.125,156.8125,0
1776973571.608,9.1626,2.873,-1.9106,0.8911,0.6398,-0.2987,-90.9,50.7,12.15,8.442,-2.387,-3.3112,1.9044,0.287,-0.1873,-78.45,26.1,-8.4,-3.17,-3.23,-8.17,-0.7592,-1.0014,-2.4816,-1.0,29.375,27.5,317.125,-16.125,156.8125,0
1776973571.618,8.0517,2.3296,-2.0231,0.9185,0.7216,-0.2395,-90.9,50.7,12.15,8.6335,-0.6584,-3.4046,1.7869,0.586,-0.1263,-78.75,27.9,-11.55,-2.67,-3.17,-7.88,-0.7167,-1.0297,-2.4664,-1.0,29.375,27.5,317.125,-16.125,156.8125,0
1776973571.623,10.4507,2.49,-2.9401,1.3198,0.878,-0.1847,-90.9,50.7,12.15,8.6335,-0.6584,-3.4046,1.7869,0.586,-0.1263,-78.75,23.55,-9.75,-2.67,-3.17,-7.88,-0.7167,-1.0297,-2.4664,-1.0,29.375,27.5,317.125,-16.125,156.8125,0
1776973571.628,10.4507,2.49,-2.9401,1.3198,0.878,-0.1847,-90.75,50.55,13.05,9.9695,-0.1389,-2.0949,1.8303,0.4916,-0.0634,-78.75,23.55,-9.75,-2.87,-2.89,-7.95,-0.6818,-1.1061,-2.4478,-3.5625,28.0,27.0625,315.5625,-16.125,156.75,0
1776973571.633,9.7229,2.3535,-3.0239,1.4306,0.6336,-0.1474,-90.75,50.55,13.05,9.9695,-0.1389,-2.0949,1.8303,0.4916,-0.0634,-78.9,25.8,-9.15,-2.87,-2.89,-7.95,-0.6818,-1.1061,-2.4478,-3.5625,28.0,27.0625,315.5625,-16.125,156.75,0
1776973571.638,9.7229,2.3535,-3.0239,1.4306,0.6336,-0.1474,-91.95,51.15,12.15,9.8881,-0.0934,-2.0303,1.8791,0.4541,-0.0658,-78.9,25.8,-9.15,-3.57,-2.86,-8.24,-0.6425,-1.2566,-2.4522,-3.5625,28.0,27.0625,314.0,-16.25,156.625,0
1776973571.643,9.7731,2.1021,-3.4764,1.5775,0.7043,-0.11,-91.95,51.15,12.15,9.8881,-0.0934,-2.0303,1.8791,0.4541,-0.0658,-78.9,22.95,-8.85,-3.57,-2.86,-8.24,-0.5683,-1.3439,-2.4729,-3.5625,28.0,27.0625,312.4375,-16.375,156.5,0
1776973571.648,9.7731,2.1021,-3.4764,1.5775,0.7043,-0.11,-90.6,52.2,12.15,9.6414,-0.9409,-2.3631,1.8024,0.4386,-0.0837,-78.9,22.95,-8.85,-3.78,-2.15,-9.01,-0.5683,-1.3439,-2.4729,-3.5625,28.0,27.0625,310.875,-16.5,156.375,0
1776973571.658,9.6247,1.9106,-3.2274,1.6627,0.3451,-0.1276,-88.95,54.0,12.0,9.4523,-1.9106,-2.5019,1.6912,0.3749,-0.0767,-78.0,24.75,-10.05,-3.56,-1.36,-9.43,-0.5454,-1.3025,-2.4086,-3.5625,28.0,27.0625,310.875,-16.5,156.375,0
1776973571.668,8.8226,1.8052,-2.4924,1.4005,0.4634,-0.1431,-90.15,51.15,10.5,9.2895,-2.4349,-2.8276,1.5244,0.3557,-0.0573,-78.0,24.75,-10.05,-3.59,-0.42,-9.8,-0.528,-1.2261,-2.2286,-3.5625,28.0,27.0625,309.5,-16.625,156.25,0
1776973571.673,9.0022,1.7071,-1.8962,1.1628,0.578,-0.1783,-90.15,51.15,10.5,9.2895,-2.4349,-2.8276,1.5244,0.3557,-0.0573,-78.75,24.45,-9.75,-3.59,-0.42,-9.8,-0.528,-1.2261,-2.2286,-3.5625,28.0,27.0625,308.1875,-16.75,156.125,0
1776973571.678,9.0022,1.7071,-1.8962,1.1628,0.578,-0.1783,-90.15,51.15,10.5,9.0142,-2.6408,-2.9736,1.3427,0.3962,-0.0501,-78.75,24.45,-9.75,-3.45,-0.2,-9.95,-0.4745,-1.1334,-1.9755,-4.6875,27.5625,29.0,308.1875,-16.75,156.125,0
1776973571.682,9.1746,1.6783,-1.7286,1.0557,0.5148,-0.2124,-91.05,52.5,9.9,9.0142,-2.6408,-2.9736,1.3427,0.3962,-0.0501,-78.75,24.45,-9.75,-3.45,-0.2,-9.95,-0.4745,-1.1334,-1.9755,-4.6875,27.5625,29.0,308.1875,-16.75,156.125,0
1776973571.688,9.1746,1.6783,-1.7286,1.0557,0.5148,-0.2124,-91.05,52.5,9.9,9.0094,-2.6264,-3.0239,1.1058,0.4239,-0.0469,-78.75,24.45,-9.75,-3.39,-0.29,-10.03,-0.4232,-0.9916,-1.6668,-4.6875,27.5625,29.0,307.125,-16.875,156.0625,0
1776973571.692,9.2632,1.6568,-1.9848,0.9651,0.6078,-0.2126,-91.5,52.5,10.95,9.0094,-2.6264,-3.0239,1.1058,0.4239,-0.0469,-79.65,24.6,-10.35,-3.39,-0.29,-10.03,-0.3709,-0.8421,-1.3657,-4.6875,27.5625,29.0,306.25,-17.0,156.0,0
1776973571.699,9.2632,1.6568,-1.9848,0.9651,0.6078,-0.2126,-91.5,52.5,10.95,9.0908,-2.7773,-3.0933,0.8577,0.4301,-0.0909,-79.65,24.6,-10.35,-3.1,-0.37,-9.86,-0.3709,-0.8421,-1.3657,-4.6875,27.5625,29.0,305.5625,-17.125,155.9375,0
1776973571.708,9.6965,1.506,-2.648,0.9819,0.5705,-0.1844,-90.15,51.45,11.85,9.1291,-2.8443,-3.1149,0.6235,0.4069,-0.1484,-78.45,23.4,-10.65,-2.51,-0.47,-9.52,-0.3207,-0.7036,-1.0788,-4.6875,27.5625,29.0,305.5625,-17.125,155.9375,0
1776973571.718,9.3757,1.1492,-2.9592,1.0261,0.5454,-0.1498,-91.95,51.15,10.05,8.9543,-2.4995,-3.1627,0.4154,0.4029,-0.1932,-78.9,25.05,-11.1,-2.86,-0.61,-9.69,-0.2618,-0.6207,-0.7919,-4.6875,27.5625,29.0,305.0,-17.25,155.9375,0
1776973571.723,9.3446,0.9864,-3.2944,1.0269,0.5502,-0.093,-91.95,51.15,10.05,9.1243,-2.2817,-3.5626,0.1767,0.3946,-0.2302,-78.45,25.35,-12.15,-2.86,-0.61,-9.69,-0.2618,-0.6207,-0.7919,-4.6875,27.5625,29.0,304.75,-17.4375,155.875,0
1776973571.728,9.3446,0.9864,-3.2944,1.0269,0.5502,-0.093,-91.95,51.15,10.05,9.1243,-2.2817,-3.5626,0.1767,0.3946,-0.2302,-78.45,25.35,-12.15,-3.04,-0.75,-9.67,-0.1822,-0.5585,-0.5334,-5.0,26.375,29.5625,304.75,-17.4375,155.875,0
1776973571.733,9.9216,0.6895,-3.6368,1.0022,0.5636,-0.0336,-90.45,53.55,10.2,9.3302,-2.5067,-3.1053,0.1079,0.4354,-0.2598,-79.35,25.35,-11.1,-3.04,-0.75,-9.67,-0.1822,-0.5585,-0.5334,-5.0,26.375,29.5625,304.5625,-17.5625,155.875,0
1776973571.738,9.9216,0.6895,-3.6368,1.0022,0.5636,-0.0336,-90.45,53.55,10.2,9.3302,-2.5067,-3.1053,0.1079,0.4354,-0.2598,-79.35,25.35,-11.1,-2.73,-0.81,-9.4,-0.1178,-0.468,-0.2934,-5.0,26.375,29.5625,304.5625,-17.5625,155.875,0
1776973571.743,10.1849,0.4908,-3.814,0.9984,0.409,0.0416,-91.5,52.05,10.2,9.5026,-2.2649,-2.5139,0.0456,0.4575,-0.2939,-79.05,25.5,-10.5,-2.73,-0.81,-9.4,-0.0545,-0.4047,-0.0742,-5.0,26.375,29.5625,304.4375,-17.75,155.875,0
1776973571.749,10.1035,0.2658,-3.8379,0.8812,0.3752,0.0959,-91.5,52.05,10.2,9.5026,-2.2649,-2.5139,0.0456,0.4575,-0.2939,-79.05,25.5,-10.5,-2.41,-2.9,-8.49,-0.0545,-0.4047,-0.0742,-5.0,26.375,29.5625,304.4375,-18.0,155.8125,0
1776973571.758,9.8833,0.2131,-3.5865,0.7013,0.2984,0.0951,-90.15,52.2,10.05,9.3709,-1.6209,-2.0662,-0.0855,0.4319,-0.3349,-79.05,25.5,-10.5,-2.58,-3.54,-8.22,0.0349,-0.4603,0.0284,-5.0,26.375,29.5625,304.4375,-18.0,155.8125,0
1776973571.768,9.4068,0.6129,-3.3208,0.534,0.2569,0.0799,-90.45,51.75,11.4,9.1554,-1.2737,-2.1141,-0.2334,0.4175,-0.3728,-77.7,22.95,-10.65,-2.87,-3.25,-8.54,0.0611,-0.5345,0.0731,-5.0,26.375,29.5625,304.375,-18.3125,155.75,0
1776973571.773,9.4068,0.6129,-3.3208,0.534,0.2569,0.0799,-90.6,51.45,10.5,9.4212,-1.0942,-1.561,-0.2646,0.4442,-0.3933,-78.45,24.15,-10.65,-2.87,-3.25,-8.54,0.0611,-0.5345,0.0731,-5.0,26.375,29.5625,304.375,-18.3125,155.75,0
1776973571.778,9.3637,1.0654,-2.8683,0.3285,0.1735,0.0365,-90.6,51.45,10.5,9.4212,-1.0942,-1.561,-0.2646,0.4442,-0.3933,-78.45,24.15,-10.65,-5.52,-3.25,-9.96,0.0447,-0.588,0.1396,-5.0,25.25,30.25,304.5,-18.625,155.6875,0
1776973571.783,9.3637,1.0654,-2.8683,0.3285,0.1735,0.0365,-90.6,51.45,10.5,9.8138,-0.7278,-1.5131,-0.3235,0.5145,-0.3741,-79.5,24.75,-9.75,-5.52,-3.25,-9.96,0.0447,-0.588,0.1396,-5.0,25.25,30.25,304.5,-18.625,155.6875,0
1776973571.788,9.1482,1.1971,-2.1763,0.1087,0.1591,-0.0029,-90.6,51.45,10.5,9.8138,-0.7278,-1.5131,-0.3235,0.5145,-0.3741,-79.5,24.75,-9.75,-4.45,-3.77,-9.01,0.0229,-0.5432,0.1974,-5.0,25.25,30.25,304.5625,-18.9375,155.6875,0
1776973571.793,9.1482,1.1971,-2.1763,0.1087,0.1591,-0.0029,-89.25,49.8,10.95,9.8713,-0.0096,-1.3862,-0.3978,0.5497,-0.3685,-79.05,25.2,-8.25,-4.45,-3.77,-9.01,0.0142,-0.3458,0.1724,-5.0,25.25,30.25,304.625,-19.1875,155.6875,0
1776973571.799,9.0429,1.5826,-1.7502,-0.085,0.2555,-0.0234,-89.25,49.8,10.95,9.4906,0.34,-1.1588,-0.3978,0.5497,-0.3685,-79.05,25.2,-8.25,-3.18,-4.28,-8.21,0.0142,-0.3458,0.1724,-5.0,25.25,30.25,304.625,-19.375,155.6875,0
1776973571.808,8.7532,2.0231,-1.4916,-0.2529,0.4106,-0.0498,-90.6,50.7,10.5,9.4906,0.34,-1.1588,-0.3853,0.5329,-0.3616,-78.75,24.45,-7.95,-3.23,-3.2,-8.5,0.0044,-0.2967,0.1527,-5.0,25.25,30.25,304.625,-19.375,155.6875,0
1776973571.818,8.5736,2.2098,-1.2043,-0.4455,0.4032,-0.0957,-89.85,51.45,10.05,9.0621,0.6536,-0.6369,-0.2891,0.5231,-0.3659,-79.35,25.05,-8.4,-3.03,-2.93,-8.39,-0.0284,-0.3327,0.1734,-5.0,25.25,30.25,304.6875,-19.5625,155.6875,0
1776973571.823,8.5736,2.2098,-1.2043,-0.4455,0.4032,-0.0957,-91.05,50.55,11.4,9.0621,0.6536,-0.6369,-0.2196,0.5542,-0.3605,-79.35,25.05,-8.4,-3.03,-2.93,-8.39,-0.0284,-0.3327,0.1734,-5.0,25.25,30.25,304.6875,-19.5625,155.6875,0
1776973571.828,8.1379,2.4469,-0.8643,-0.534,0.4146,-0.1276,-91.05,50.55,11.4,9.2775,1.1851,-0.5866,-0.2196,0.5542,-0.3605,-79.35,25.05,-8.4,-3.02,-3.5,-8.09,-0.048,-0.3458,0.1963,-4.0,25.875,30.6875,304.9375,-19.8125,155.75,0
1776973571.833,8.1379,2.4469,-0.8643,-0.534,0.4146,-0.1276,-91.05,50.55,11.4,9.2775,1.1851,-0.5866,-0.1607,0.5705,-0.3698,-78.0,26.4,-9.75,-3.02,-3.5,-8.09,-0.048,-0.3458,0.1963,-4.0,25.875,30.6875,304.9375,-19.8125,155.75,0
1776973571.838,7.9176,2.9497,-0.5578,-0.4682,0.4554,-0.1466,-91.05,50.55,11.4,9.3063,1.8148,-0.7159,-0.1607,0.5705,-0.3698,-78.0,26.4,-9.75,-3.07,-3.74,-7.97,-0.1036,-0.3643,0.2443,-4.0,25.875,30.6875,305.0625,-20.0,155.8125,0
1776973571.843,7.9176,2.9497,-0.5578,-0.4682,0.4554,-0.1466,-89.4,50.4,12.9,9.3063,1.8148,-0.7159,-0.0645,0.5545,-0.3608,-78.0,26.4,-9.75,-3.07,-3.74,-7.97,-0.2214,-0.3774,0.3033,-4.0,25.875,30.6875,305.125,-20.3125,155.9375,0
1776973571.849,8.0445,3.6871,-0.4525,-0.3909,0.5481,-0.1114,-89.4,50.4,12.9,9.3494,2.047,-0.6488,0.0392,0.5449,-0.3307,-78.0,26.4,-9.75,-2.95,-3.55,-7.88,-0.2214,-0.3774,0.3033,-4.0,25.875,30.6875,305.25,-20.5625,156.1875,0
1776973571.858,8.3318,4.1563,-0.3687,-0.2851,0.5646,-0.0725,-90.15,51.45,12.15,9.3948,1.8387,-1.0319,0.1029,0.5268,-0.2995,-78.45,26.1,-7.35,-2.99,-3.91,-7.86,-0.3818,-0.384,0.3687,-4.0,25.875,30.6875,305.25,-20.5625,156.1875,0
1776973571.868,8.667,4.628,-0.4717,-0.1609,0.485,-0.0309,-90.75,49.5,13.8,9.6151,1.4006,-1.1803,0.214,0.5313,-0.263,-78.15,27.75,-8.85,-3.39,-4.18,-7.95,-0.5378,-0.4036,0.4309,-4.0,25.875,30.6875,305.4375,-20.875,156.5625,0
1776973571.873,8.667,4.628,-0.4717,-0.1609,0.485,-0.0309,-89.7,50.55,14.55,9.6151,1.4006,-1.1803,0.214,0.5313,-0.263,-78.9,28.95,-8.85,-3.39,-4.18,-7.95,-0.5378,-0.4036,0.4309,-4.0,25.875,30.6875,305.6875,-21.1875,156.9375,0
1776973571.878,9.0405,5.0254,-0.5339,-0.0648,0.5255,0.0272,-89.7,50.55,14.55,9.8689,0.8428,-1.3431,0.295,0.5862,-0.1966,-78.9,28.95,-8.85,-4.14,-4.93,-8.28,-0.6414,-0.4254,0.4549,-3.5625,25.1875,29.6875,305.6875,-21.1875,156.9375,0
1776973571.883,9.0405,5.0254,-0.5339,-0.0648,0.5255,0.0272,-88.8,50.7,15.0,9.8689,0.8428,-1.3431,0.295,0.5862,-0.1966,-78.75,27.45,-8.7,-4.14,-4.93,-8.28,-0.6414,-0.4254,0.4549,-3.5625,25.1875,29.6875,305.8125,-21.5,157.375,0
1776973571.888,9.3374,5.5306,-0.4477,0.2547,0.4716,0.0749,-88.8,50.7,15.0,10.0006,0.0838,-1.3384,0.3539,0.644,-0.1332,-78.75,27.45,-8.7,-4.43,-4.11,-8.6,-0.6763,-0.4363,0.4374,-3.5625,25.1875,29.6875,305.8125,-21.5,157.375,0
1776973571.893,9.3374,5.5306,-0.4477,0.3283,0.6896,0.1311,-88.8,50.7,15.0,10.0006,0.0838,-1.3384,0.3539,0.644,-0.1332,-78.75,27.45,-8.7,-4.43,-4.11,-8.6,-0.66,-0.4232,0.384,-3.5625,25.1875,29.6875,305.875,-21.8125,157.8125,0
1776973571.899,10.3238,5.8849,-0.4908,0.3283,0.6896,0.1311,-89.85,50.4,15.0,10.07,-0.4118,-0.8284,0.2931,0.6869,-0.081,-78.75,27.45,-8.7,-4.44,-3.53,-8.86,-0.66,-0.4232,0.384,-3.5625,25.1875,29.6875,305.9375,-22.0625,158.1875,0
1776973571.908,9.6726,5.794,-0.723,0.6075,0.23,0.134,-89.85,50.4,15.0,10.0963,-0.5171,-0.6057,0.1828,0.6883,-0.0506,-79.65,29.25,-8.4,-4.4,-3.38,-8.8,-0.5934,-0.3894,0.3163,-3.5625,25.1875,29.6875,305.9375,-22.0625,158.1875,0
1776973571.918,9.8114,5.8059,-1.3264,0.7821,0.4567,0.1423,-88.8,49.95,15.45,9.5984,0.0527,-0.6584,0.158,0.7288,-0.0282,-79.65,29.25,-8.4,-4.56,-3.34,-8.78,-0.516,-0.36,0.252,-3.5625,25.1875,29.6875,306.0,-22.3125,158.5,0
1776973571.923,8.7125,5.952,-0.8308,1.068,0.4231,0.1599,-88.8,49.95,15.45,9.5984,0.0527,-0.6584,0.158,0.7288,-0.0282,-78.0,27.15,-8.7,-4.56,-3.34,-8.78,-0.516,-0.36,0.252,-3.5625,25.1875,29.6875,306.125,-22.5,158.75,0
1776973571.928,8.7125,5.952,-0.8308,1.068,0.4231,0.1599,-89.25,51.0,14.25,9.3781,0.9864,-0.2538,0.1135,0.7469,-0.0171,-78.0,27.15,-8.7,-4.23,-3.13,-8.49,-0.4581,-0.3196,0.1963,-2.0625,24.375,30.75,306.125,-22.5,158.75,0
1776973571.933,9.1578,5.8682,-0.7877,1.0453,0.275,0.1071,-89.25,51.0,14.25,9.5313,1.6712,-0.2418,0.1135,0.7469,-0.0171,-79.35,29.25,-7.35,-4.23,-3.13,-8.49,-0.4581,-0.3196,0.1963,-2.0625,24.375,30.75,306.125,-22.6875,159.0,0
1776973571.938,9.1578,5.8682,-0.7877,1.0453,0.275,0.1071,-89.25,51.0,14.25,9.5313,1.6712,-0.2418,0.0749,0.7392,-0.0296,-79.35,29.25,-7.35,-3.94,-3.05,-8.52,-0.4134,-0.2542,0.1582,-2.0625,24.375,30.75,306.125,-22.6875,159.0,0
1776973571.943,9.4403,5.272,-0.5004,1.0616,0.2606,0.0658,-89.25,51.0,14.25,9.7731,2.5474,-0.2945,0.0749,0.7392,-0.0296,-79.05,29.55,-7.2,-3.94,-3.05,-8.52,-0.4091,-0.2302,0.1484,-2.0625,24.375,30.75,306.125,-22.8125,159.25,0
1776973571.949,9.4403,5.272,-0.5004,1.0616,0.2606,0.0658,-87.15,48.75,13.8,9.7731,2.5474,-0.2945,0.1719,0.7037,-0.0474,-79.05,29.55,-7.2,-3.79,-3.39,-8.22,-0.4091,-0.2302,0.1484,-2.0625,24.375,30.75,306.125,-22.9375,159.4375,0
1776973571.958,8.5569,4.2952,0.0144,1.076,0.2438,0.0346,-89.85,50.7,13.35,10.1227,3.1795,0.3615,0.2499,0.668,-0.0115,-78.45,28.95,-7.65,-3.99,-3.88,-8.4,-0.3829,-0.2171,0.144,-2.0625,24.375,30.75,306.125,-22.9375,159.4375,0
1776973571.968,8.4946,3.7062,-0.0383,0.988,0.3285,0.0163,-88.2,49.8,13.05,9.833,3.2417,-0.3472,0.405,0.6249,0.0418,-80.4,28.95,-8.4,-5.07,-4.76,-8.33,-0.3862,-0.2171,0.1702,-2.0625,24.375,30.75,306.1875,-23.125,159.6875,0
1776973571.973,8.4515,3.158,0.4262,0.9878,0.3621,0.0043,-88.2,49.8,13.05,9.3948,2.5331,-0.3041,0.6696,0.6464,0.0765,-79.05,30.6,-7.5,-5.07,-4.76,-8.33,-0.3862,-0.2171,0.1702,-2.0625,24.375,30.75,306.1875,-23.125,159.6875,0
1776973571.978,8.4515,3.158,0.4262,0.9878,0.3621,0.0043,-88.05,47.7,13.95,9.3948,2.5331,-0.3041,0.6696,0.6464,0.0765,-79.05,30.6,-7.5,-4.06,-3.35,-8.43,-0.3523,-0.1516,0.1691,-2.0625,23.1875,31.5625,306.1875,-23.1875,159.875,0
1776973571.983,8.4874,2.8419,0.4357,1.0331,0.396,0.0093,-88.05,47.7,13.95,9.8641,1.245,0.6656,0.6813,0.6891,0.1194,-79.05,30.6,-7.5,-4.06,-3.35,-8.43,-0.3523,-0.1516,0.1691,-2.0625,23.1875,31.5625,306.1875,-23.1875,159.875,0
1776973571.988,8.4874,2.8419,0.4357,1.0331,0.396,0.0093,-87.15,48.3,12.0,9.8641,1.245,0.6656,0.6813,0.6891,0.1194,-79.05,30.6,-7.5,-3.84,-3.46,-8.19,-0.3316,-0.1353,0.1669,-2.0625,23.1875,31.5625,306.25,-23.3125,160.125,0
1776973571.993,8.5712,2.7869,0.4645,0.9963,0.4652,0.037,-87.15,48.3,12.0,9.8426,0.261,0.5076,0.5228,0.6411,0.1596,-80.4,28.05,-6.6,-3.84,-3.46,-8.19,-0.3272,-0.1484,0.1778,-2.0625,23.1875,31.5625,306.3125,-23.4375,160.3125,0
1776973571.999,8.5712,2.7869,0.4645,0.9963,0.4652,0.037,-87.15,48.3,12.0,9.8426,0.261,0.5076,0.5228,0.6411,0.1596,-80.4,28.05,-6.6,-3.98,-3.29,-8.37,-0.3272,-0.1484,0.1778,-2.0625,23.1875,31.5625,306.375,-23.5625,160.5625,0
1776973572.009,9.3661,2.7366,0.1987,0.837,0.8569,0.06,-88.2,47.25,11.4,9.8928,-0.4142,0.2729,0.3778,0.6161,0.2057,-80.4,28.05,-6.6,-4.03,-3.02,-8.45,-0.3414,-0.1396,0.1942,-2.0625,23.1875,31.5625,306.375,-23.5625,160.5625,0
1776973572.019,9.019,2.6456,-0.0431,0.906,0.6035,0.0538,-88.05,44.7,12.6,9.9647,-0.7278,0.2466,0.2457,0.6259,0.2238,-79.5,28.65,-5.25,-4.19,-2.8,-8.61,-0.3502,-0.1276,0.1974,-2.0625,23.1875,31.5625,306.4375,-23.625,160.75,0
1776973572.023,9.2584,2.8635,-0.3759,0.9553,0.3912,0.0474,-88.05,44.7,12.6,9.9814,-0.3424,0.6369,0.1607,0.6273,0.2609,-79.5,28.65,-4.95,-4.19,-2.8,-8.61,-0.3502,-0.1276,0.1974,-2.0625,23.1875,31.5625,306.5625,-23.75,161.0,0
1776973572.028,9.2584,2.8635,-0.3759,0.9102,0.377,0.0402,-86.7,44.25,12.0,9.9814,-0.3424,0.6369,0.1607,0.6273,0.2609,-79.5,28.65,-4.95,-4.34,-2.5,-8.73,-0.2978,-0.1025,0.1767,-0.6875,22.875,31.5625,306.5625,-23.75,161.0,0
1776973572.033,9.2895,2.976,-0.1748,0.9102,0.377,0.0402,-86.7,44.25,12.0,9.9335,0.5411,0.8906,0.081,0.563,0.2625,-79.05,28.65,-4.5,-4.34,-2.5,-8.73,-0.2978,-0.1025,0.1767,-0.6875,22.875,31.5625,306.625,-23.8125,161.1875,0
1776973572.038,9.2895,2.976,-0.1748,0.7965,0.4586,0.0544,-85.8,44.7,11.85,9.9335,0.5411,0.8906,0.081,0.563,0.2625,-79.05,28.65,-4.5,-4.19,-2.6,-8.63,-0.2978,-0.1025,0.1767,-0.6875,22.875,31.5625,306.625,-23.8125,161.1875,0
1776973572.043,9.4667,2.964,-0.1484,0.7965,0.4586,0.0544,-85.8,44.7,11.85,9.7995,1.3527,0.5578,0.0885,0.5071,0.2185,-78.45,27.3,-5.85,-4.19,-2.6,-8.63,-0.2574,-0.0851,0.1473,-0.6875,22.875,31.5625,306.625,-23.875,161.375,0
1776973572.049,9.2775,2.7509,-0.0551,0.6803,0.5257,0.0981,-85.8,44.7,11.85,9.7109,0.8475,0.8643,0.0885,0.5071,0.2185,-78.45,27.3,-5.85,-3.99,-3.09,-8.46,-0.2574,-0.0851,0.1473,-0.6875,22.875,31.5625,306.6875,-23.9375,161.5,0
1776973572.059,9.1913,2.727,0.1844,0.6113,0.4562,0.15,-87.6,42.45,12.15,9.8761,0.249,1.1205,0.308,0.4948,0.1988,-78.45,27.3,-5.85,-4.2,-2.69,-8.55,-0.2531,-0.1036,0.1582,-0.6875,22.875,31.5625,306.6875,-23.9375,161.5,0
1776973572.069,9.1243,2.8299,0.589,0.6611,0.4525,0.2081,-85.5,42.9,10.5,10.0485,-0.0718,1.0942,0.3866,0.4908,0.2513,-79.5,27.45,-6.45,-4.27,-2.6,-8.62,-0.2182,-0.1025,0.1516,-0.6875,22.875,31.5625,306.75,-24.0625,161.6875,0
1776973572.073,9.1243,2.8299,0.589,0.6611,0.4525,0.2081,-85.5,42.9,10.5,10.0485,-0.0718,1.0942,0.3866,0.4908,0.2513,-79.5,27.45,-6.45,-4.27,-2.6,-8.62,-0.2182,-0.1025,0.1516,-0.6875,22.875,31.5625,306.9375,-24.125,161.8125,0
1776973572.079,9.3757,3.1005,1.0271,0.7442,0.4799,0.2414,-85.8,41.4,10.05,9.924,-0.012,0.9098,0.3906,0.4612,0.2633,-79.5,27.45,-6.45,-4.16,-2.65,-8.53,-0.1985,-0.0829,0.1407,-0.25,22.5625,31.5625,306.9375,-24.125,161.8125,0
1776973572.084,9.3757,3.1005,1.0271,0.7442,0.4799,0.2414,-85.8,41.4,10.05,9.924,-0.012,0.9098,0.3906,0.4612,0.2633,-79.65,28.95,-3.6,-4.16,-2.65,-8.53,-0.1985,-0.0829,0.1407,-0.25,22.5625,31.5625,307.0,-24.1875,161.9375,0
1776973572.089,9.6534,2.9592,1.4676,0.8287,0.4474,0.2372,-85.35,39.75,9.6,9.9048,-0.4501,1.2713,0.4194,0.4479,0.2521,-79.65,28.95,-3.6,-4.12,-2.66,-8.61,-0.1844,-0.0785,0.1374,-0.25,22.5625,31.5625,307.0,-24.1875,161.9375,0
1776973572.093,9.6534,2.9592,1.4676,0.8287,0.4474,0.2372,-85.35,39.75,9.6,9.9048,-0.4501,1.2713,0.4194,0.4479,0.2521,-78.9,28.5,-4.8,-4.12,-2.66,-8.61,-0.1713,-0.0807,0.1353,-0.25,22.5625,31.5625,307.0625,-24.25,162.0625,0
1776973572.099,9.4236,2.7294,1.1301,0.9622,0.486,0.2324,-84.9,41.25,10.2,9.9742,-0.4334,1.4892,0.4138,0.4186,0.2366,-78.9,28.5,-4.8,-4.15,-2.68,-8.54,-0.1713,-0.0807,0.1353,-0.25,22.5625,31.5625,307.0625,-24.25,162.0625,0
1776973572.108,9.402,2.5714,0.9074,0.9593,0.4868,0.2388,-84.9,41.25,10.2,9.9719,-0.4094,1.4198,0.3773,0.3957,0.2449,-80.1,27.0,-4.05,-4.33,-2.5,-8.65,-0.1636,-0.0753,0.1374,-0.25,22.5625,31.5625,307.125,-24.3125,162.1875,0
1776973572.113,9.402,2.5714,0.9074,0.9593,0.4868,0.2388,-84.9,41.25,10.2,9.9719,-0.4094,1.4198,0.3773,0.3957,0.2449,-80.1,27.75,-5.1,-4.33,-2.5,-8.65,-0.1374,-0.0676,0.1233,-0.25,22.5625,31.5625,307.125,-24.375,162.3125,0
1776973572.12,9.5337,2.5115,1.2737,1.0168,0.3733,0.2577,-85.5,39.45,9.0,10.0197,-0.2466,1.5299,0.3762,0.3539,0.2545,-80.1,27.75,-5.1,-4.35,-2.37,-8.63,-0.1374,-0.0676,0.1233,-0.25,22.5625,31.5625,307.125,-24.375,162.3125,0
1776973572.124,9.5337,2.5115,1.2737,1.0168,0.3733,0.2577,-85.5,39.45,9.0,10.0197,-0.2466,1.5299,0.3762,0.3539,0.2545,-79.05,28.35,-4.2,-4.35,-2.37,-8.63,-0.1047,-0.06,0.1014,-0.25,22.1875,32.0,307.25,-24.4375,162.375,0
