timestamp,thigh_acc_x,thigh_acc_y,thigh_acc_z,thigh_gyro_x,thigh_gyro_y,thigh_gyro_z,thigh_mag_x,thigh_mag_y,thigh_mag_z,shank_acc_x,shank_acc_y,shank_acc_z,shank_gyro_x,shank_gyro_y,shank_gyro_z,shank_mag_x,shank_mag_y,shank_mag_z,foot_acc_x,foot_acc_y,foot_acc_z,foot_gyro_x,foot_gyro_y,foot_gyro_z,foot_mag_x,foot_mag_y,foot_mag_z,foot_euler_x,foot_euler_y,foot_euler_z,perturbation_event
1776971506.764,11.1977,-1.0487,5.1068,-1.5537,2.67,1.344,-14.85,-43.05,24.9,14.2,-4.1444,-1.0439,-3.3055,-1.5114,-2.9215,-74.85,-31.05,-39.0,29.95,4.77,-15.8,-2.1271,7.9292,4.143,-67.6875,33.375,32.5,315.0,79.3125,103.5,0
1776971506.772,11.9231,-3.3112,3.5985,-0.7405,3.0542,1.2518,-14.85,-45.0,26.25,14.8967,-2.5307,-0.5148,-3.5003,-1.4197,-2.9705,-74.85,-31.05,-39.0,19.47,5.06,-15.57,-1.6155,5.9668,4.7975,-67.6875,33.375,32.5,313.875,76.9375,87.4375,0
1776971506.777,11.9231,-3.3112,3.5985,-0.7405,3.0542,1.2518,-10.5,-44.55,26.7,14.8967,-2.5307,-0.5148,-3.5003,-1.4197,-2.9705,-74.85,-31.05,-39.0,19.47,5.06,-15.57,-1.6155,5.9668,4.7975,-67.6875,33.375,32.5,312.6875,74.0,80.875,0
1776971506.784,10.8433,-6.2608,1.9968,-0.0442,2.9484,0.8966,-8.25,-45.0,29.55,14.947,-1.3384,-0.1389,-3.4094,-1.181,-2.8946,-76.2,-28.95,-37.65,10.39,5.16,-13.07,-1.7661,4.0153,4.8575,-67.6875,33.375,32.5,311.4375,70.9375,78.3125,0
1776971506.794,10.0437,-9.1506,1.3503,0.114,2.3798,0.4594,-8.25,-45.0,29.55,14.1617,0.5363,-0.3663,-3.2282,-0.8431,-2.7845,-78.0,-26.7,-37.5,3.48,7.66,-16.11,-2.1718,3.0958,5.0462,-67.6875,33.375,32.5,311.4375,70.9375,78.3125,0
1776971506.799,7.2137,-11.1905,5.2864,0.1921,2.0091,0.1807,-8.25,-45.0,29.55,12.5241,2.3846,-0.9625,-2.8919,-0.4796,-2.7779,-78.15,-25.05,-36.15,3.48,7.66,-16.11,-2.1718,3.0958,5.0462,-67.6875,33.375,32.5,311.4375,70.9375,78.3125,0
1776971506.804,7.2137,-11.1905,5.2864,0.1921,2.0091,0.1807,-8.25,-45.0,29.55,12.5241,2.3846,-0.9625,-2.8919,-0.4796,-2.7779,-78.15,-25.05,-36.15,29.96,6.65,-27.15,-2.0737,2.1664,5.3014,-67.0625,43.6875,9.75,309.875,67.8125,77.9375,0
1776971506.809,6.2034,-12.7491,6.4404,-0.6147,1.8253,-0.097,-8.25,-45.0,29.55,12.1769,3.304,-2.399,-2.5836,-0.1506,-2.7896,-78.0,-21.3,-36.45,29.96,6.65,-27.15,-2.0737,2.1664,5.3014,-67.0625,43.6875,9.75,309.875,67.8125,77.9375,0
1776971506.814,6.2034,-12.7491,6.4404,-0.6147,1.8253,-0.097,-6.15,-44.55,32.4,12.1769,3.304,-2.399,-2.5836,-0.1506,-2.7896,-78.0,-21.3,-36.45,24.26,4.89,-22.83,-0.0087,4.2128,4.7473,-67.0625,43.6875,9.75,308.0625,64.6875,74.1875,0
1776971506.823,6.0669,-12.2439,6.6631,-1.0608,1.1397,-0.4293,-6.15,-44.55,32.4,12.1147,3.7589,-3.0981,-2.2383,0.0698,-2.7267,-77.55,-22.05,-35.25,16.81,9.56,-15.86,-1.8282,1.5784,3.0456,-67.0625,43.6875,9.75,307.5625,62.875,74.4375,0
1776971506.831,6.1292,-8.7891,3.1173,-1.9705,0.6097,-0.8521,-4.8,-43.65,34.95,11.8178,4.6783,-2.8587,-1.7685,0.3539,-2.6409,-79.5,-18.45,-33.75,10.09,11.5,-14.01,-2.7358,-0.8639,1.3079,-67.0625,43.6875,9.75,307.8125,62.25,77.1875,0
1776971506.836,6.1292,-8.7891,3.1173,-1.9705,0.6097,-0.8521,-3.75,-42.45,32.85,10.8409,4.2042,-1.8124,-1.7685,0.3539,-2.6409,-79.5,-18.45,-33.75,10.09,11.5,-14.01,-2.7358,-0.8639,1.3079,-67.0625,43.6875,9.75,308.6875,62.4375,80.625,0
1776971506.844,4.1061,-5.1595,0.9601,-2.3132,0.2577,-1.2156,-2.1,-42.3,31.65,10.8409,4.2042,-1.8124,-1.1826,0.4109,-2.6737,-79.5,-18.45,-33.75,1.12,12.1,-4.21,-2.8122,-1.7966,-0.0196,-67.0625,43.6875,9.75,308.6875,62.4375,80.625,0
1776971506.849,2.9161,-4.0127,0.4693,-1.6265,0.1569,-1.5964,-2.1,-42.3,31.65,10.2639,4.2593,-1.008,-0.5177,0.2723,-2.7185,-79.8,-15.75,-33.0,1.12,12.1,-4.21,-2.8122,-1.7966,-0.0196,-49.0,52.0625,8.0625,309.75,63.125,83.75,0
1776971506.854,2.9161,-4.0127,0.4693,-1.6265,0.1569,-1.5964,-2.1,-42.3,31.65,9.6079,2.3583,-1.0918,-0.5177,0.2723,-2.7185,-79.8,-15.75,-33.0,0.64,9.75,-3.55,-2.1348,-1.9657,-0.9796,-49.0,52.0625,8.0625,309.75,63.125,83.75,0
1776971506.859,2.2793,-4.2401,0.395,-0.3355,0.0671,-2.0123,-2.1,-42.3,31.65,9.6079,2.3583,-1.0918,0.057,0.0783,-2.7475,-79.8,-15.75,-33.0,0.64,9.75,-3.55,-2.1348,-1.9657,-0.9796,-49.0,52.0625,8.0625,310.9375,64.125,86.0625,0
1776971506.864,2.2793,-4.2401,0.395,-0.3355,0.0671,-2.0123,-6.3,-41.7,34.95,9.4044,1.4724,-1.3096,0.057,0.0783,-2.7475,-79.8,-15.75,-33.0,2.0,6.99,-4.49,-1.3014,-1.573,-1.6722,-49.0,52.0625,8.0625,310.9375,64.125,86.0625,0
1776971506.871,2.1404,-5.2313,0.668,0.6781,-0.0626,-2.3899,-6.3,-41.7,34.95,9.4044,1.4724,-1.3096,0.5412,-0.0725,-2.7456,-79.35,-12.0,-29.85,1.7,2.74,-5.79,-0.7647,-1.6035,-2.3976,-49.0,52.0625,8.0625,312.25,65.5,88.25,0
1776971506.876,2.1404,-5.2313,0.668,0.6781,-0.0626,-2.3899,-5.25,-40.2,35.7,9.1219,0.0144,-1.1851,0.6837,-0.1775,-2.6724,-79.35,-12.0,-29.85,1.7,2.74,-5.79,-0.7647,-1.6035,-2.3976,-49.0,52.0625,8.0625,313.875,67.25,90.6875,0
1776971506.884,2.2242,-6.2752,1.2043,1.0922,-0.263,-2.7216,-6.3,-36.9,36.75,8.8825,0.4573,-1.889,0.7184,-0.2212,-2.6255,-79.65,-11.25,-29.55,2.06,0.69,-6.35,-0.5389,-1.6853,-3.0663,-49.0,52.0625,8.0625,315.8125,69.1875,93.5625,0
1776971506.894,2.3703,-7.8171,1.1133,1.0424,-0.3704,-2.9385,-8.25,-37.05,39.15,8.7125,0.893,-2.0135,0.6856,-0.2862,-2.5122,-79.5,-7.95,-28.95,2.83,-1.0,-7.2,-0.5738,-1.7213,-3.5517,-49.0,52.0625,8.0625,315.8125,69.1875,93.5625,0
1776971506.899,2.8084,-8.4348,1.8387,0.9014,-0.5572,-3.1054,-8.25,-37.05,39.15,8.7125,0.893,-2.0135,0.6856,-0.2862,-2.5122,-80.85,-7.35,-29.85,2.83,-1.0,-7.2,-0.5738,-1.7213,-3.5517,-49.0,52.0625,8.0625,315.8125,69.1875,93.5625,0
1776971506.904,2.8084,-8.4348,1.8387,0.9014,-0.5572,-3.1054,-10.5,-35.55,38.7,8.4228,1.1588,-1.6496,0.6179,-0.3331,-2.3832,-80.85,-7.35,-29.85,4.97,-3.52,-9.33,-0.6872,-1.8882,-3.8157,-38.5625,46.25,12.875,317.9375,71.1875,97.375,0
1776971506.909,2.9281,-8.3127,2.2529,0.8159,-0.6931,-3.3207,-10.5,-35.55,38.7,8.4228,1.1588,-1.6496,0.6179,-0.3331,-2.3832,-80.85,-7.35,-29.85,4.97,-3.52,-9.33,-0.6872,-1.8882,-3.8157,-38.5625,46.25,12.875,317.9375,71.1875,97.375,0
1776971506.914,2.9281,-8.3127,2.2529,0.8159,-0.6931,-3.3207,-10.5,-35.55,38.7,8.5904,1.5682,-1.4006,0.5375,-0.3248,-2.2284,-80.85,-7.35,-29.85,5.92,-5.04,-10.4,-0.757,-2.21,-3.8234,-38.5625,46.25,12.875,320.0625,73.0625,102.75,0
1776971506.922,3.6392,-8.102,2.6695,0.7722,-0.8492,-3.4965,-12.45,-32.7,40.05,8.6431,1.6137,-1.2378,0.5375,-0.3248,-2.2284,-79.5,-5.25,-28.2,6.38,-7.06,-11.57,-0.9021,-2.7653,-3.5867,-38.5625,46.25,12.875,322.125,74.5,110.25,0
1776971506.927,3.7493,-8.2001,2.7749,0.5119,-1.1199,-3.5988,-12.45,-32.7,40.05,8.6431,1.6137,-1.2378,0.5364,-0.3659,-2.0749,-79.5,-5.25,-28.2,6.38,-7.06,-11.57,-0.9021,-2.7653,-3.5867,-38.5625,46.25,12.875,324.125,75.3125,120.0625,0
1776971506.935,3.6368,-8.406,2.5833,0.1713,-1.3113,-3.6503,-14.85,-33.0,40.5,8.7245,1.5826,-0.7494,0.5175,-0.3965,-1.8985,-79.5,-5.25,-28.2,6.66,-8.46,-12.06,-1.2097,-3.3881,-3.2027,-38.5625,46.25,12.875,326.25,75.3125,131.375,0
1776971506.944,3.3471,-7.3143,2.0877,-0.1687,-1.4893,-3.7065,-15.9,-30.3,41.25,8.6024,1.1803,-0.6416,0.5705,-0.4874,-1.6691,-80.25,-2.4,-27.15,5.4,-9.55,-10.76,-1.7737,-3.9935,-2.798,-38.5625,46.25,12.875,326.25,75.3125,131.375,0
1776971506.949,3.3471,-7.3143,2.0877,-0.1687,-1.4893,-3.7065,-15.9,-30.3,41.25,8.6024,1.1803,-0.6416,0.5705,-0.4874,-1.6691,-80.25,-2.4,-27.15,5.4,-9.55,-10.76,-1.7737,-3.9935,-2.798,-35.5625,35.75,9.6875,328.625,74.375,142.6875,0
1776971506.954,3.4477,-6.4428,1.9441,-0.1458,-1.6409,-3.8115,-18.75,-28.8,40.2,7.8961,1.0032,-0.3663,0.6025,-0.4338,-1.4517,-80.4,-2.7,-26.55,4.25,-9.18,-9.37,-2.3671,-4.5215,-2.4282,-35.5625,35.75,9.6875,328.625,74.375,142.6875,0
1776971506.959,3.4477,-6.4428,1.9441,-0.1458,-1.6409,-3.8115,-18.75,-28.8,40.2,7.8961,1.0032,-0.3663,0.6025,-0.4338,-1.4517,-78.45,-1.05,-25.5,4.25,-9.18,-9.37,-2.3671,-4.5215,-2.4282,-35.5625,35.75,9.6875,331.25,72.6875,152.4375,0
1776971506.964,3.7182,-6.2393,1.9585,0.1172,-1.7906,-3.9444,-20.4,-27.15,40.65,7.695,1.0511,-0.4669,0.6238,-0.3365,-1.2124,-78.45,-1.05,-25.5,3.76,-8.37,-8.37,-2.8514,-4.8466,-2.054,-35.5625,35.75,9.6875,331.25,72.6875,152.4375,0
1776971506.969,3.7182,-6.2393,1.9585,0.1172,-1.7906,-3.9444,-20.4,-27.15,40.65,7.695,1.0511,-0.4669,0.6238,-0.3365,-1.2124,-78.45,-1.05,-25.5,3.76,-8.37,-8.37,-3.1361,-4.9491,-1.6722,-35.5625,35.75,9.6875,334.0,70.5625,160.0625,0
1776971506.975,4.5729,-6.529,1.4796,0.0544,-2.1253,-4.075,-20.4,-27.15,40.65,7.8602,0.8859,-0.4669,0.5931,-0.3467,-0.9814,-81.0,-1.35,-26.4,4.05,-6.55,-6.82,-3.1361,-4.9491,-1.6722,-35.5625,35.75,9.6875,336.875,68.1875,165.875,0
1776971506.984,4.1396,-6.6942,2.296,-0.1386,-2.1983,-4.3721,-22.8,-22.8,39.9,7.6686,0.6704,-0.1437,0.4602,-0.3736,-0.7775,-79.65,0.3,-27.75,4.16,-6.31,-5.95,-3.2387,-4.8695,-1.3363,-35.5625,35.75,9.6875,336.875,68.1875,165.875,0
1776971506.995,5.7341,-7.6974,0.9002,-0.3381,-2.3784,-4.5048,-25.5,-21.9,39.0,7.4101,0.3926,0.1891,0.315,-0.4098,-0.6163,-80.25,0.15,-27.15,4.57,-6.0,-5.61,-3.255,-4.708,-1.1323,-35.5625,35.75,9.6875,339.875,65.75,170.375,0
1776971507.0,5.7341,-7.6974,0.9002,-0.3381,-2.3784,-4.5048,-25.5,-21.9,39.0,7.0797,-0.0192,0.3519,0.145,-0.4429,-0.4586,-80.25,0.15,-27.15,4.57,-6.0,-5.61,-3.255,-4.708,-1.1323,-35.0625,34.5,9.5625,343.0625,63.4375,174.125,0
1776971507.005,6.1172,-6.3782,1.8316,-0.6528,-2.9127,-4.4984,-27.75,-19.65,37.8,7.0797,-0.0192,0.3519,0.145,-0.4429,-0.4586,-80.25,0.15,-27.15,7.93,-5.55,-7.5,-3.2398,-4.3895,-1.0886,-35.0625,34.5,9.5625,343.0625,63.4375,174.125,0
1776971507.01,6.1172,-6.3782,1.8316,-0.6528,-2.9127,-4.4984,-27.75,-19.65,37.8,6.8307,0.067,0.3256,-0.0442,-0.4487,-0.291,-80.1,0.15,-27.15,7.93,-5.55,-7.5,-3.2398,-4.3895,-1.0886,-35.0625,34.5,9.5625,346.5,61.25,177.5,0
1776971507.015,7.3741,-4.0869,2.7318,-0.9606,-3.0478,-4.5333,-28.65,-18.0,38.4,6.8307,0.067,0.3256,-0.0442,-0.4487,-0.291,-80.1,2.25,-25.8,8.25,-5.53,-8.56,-3.2016,-4.0939,-1.2479,-35.0625,34.5,9.5625,346.5,61.25,177.5,0
1776971507.024,8.6167,-4.2784,4.367,-1.0682,-3.1333,-4.6535,-28.65,-18.0,38.4,6.5242,0.3519,0.2442,-0.235,-0.4311,-0.1199,-80.1,2.25,-25.8,8.34,-6.03,-9.55,-3.1656,-3.9335,-1.4868,-35.0625,34.5,9.5625,350.3125,59.0625,-179.1875,0
1776971507.034,12.2392,-5.7868,4.3814,-1.2486,-3.0462,-4.4894,-32.85,-12.9,34.95,6.371,0.9146,0.3855,-0.4852,-0.3467,0.0568,-79.65,3.0,-27.0,10.21,-6.72,-10.96,-3.1536,-3.7666,-1.6188,-35.0625,34.5,9.5625,354.5,56.9375,-176.125,0
1776971507.041,11.9255,-5.7581,2.7725,-1.6028,-3.205,-4.3361,-34.05,-11.25,31.65,5.7772,1.7669,0.1245,-0.7296,-0.1692,0.2252,-79.65,1.5,-27.75,16.6,-7.18,-13.34,-3.2038,-3.5594,-1.6635,-35.0625,34.5,9.5625,359.0,54.875,-173.25,0
1776971507.046,11.9255,-5.7581,2.7725,-1.6028,-3.205,-4.3361,-34.05,-11.25,31.65,5.7772,1.7669,0.1245,-0.7296,-0.1692,0.2252,-79.65,1.5,-27.75,16.6,-7.18,-13.34,-3.2038,-3.5594,-1.6635,-35.0625,34.5,9.5625,359.0,54.875,-173.25,0
1776971507.051,11.2791,-4.8698,1.8196,-1.853,-3.0326,-4.0969,-33.3,-9.0,30.15,6.098,2.3343,0.0,-0.9513,-0.0171,0.3675,-79.65,3.45,-28.8,17.22,-6.89,-12.13,-3.2987,-3.5986,-1.6712,-38.6875,31.6875,20.375,3.875,52.75,-170.5625,0
1776971507.056,11.2791,-4.8698,1.8196,-1.853,-3.0326,-4.0969,-33.3,-9.0,30.15,6.098,2.3343,0.0,-0.9513,-0.0171,0.3675,-79.65,3.45,-28.8,17.22,-6.89,-12.13,-3.2987,-3.5986,-1.6712,-38.6875,31.6875,20.375,3.875,52.75,-170.5625,0
1776971507.061,10.7739,-1.968,0.5674,-1.756,-3.1016,-3.836,-35.55,-7.5,29.55,6.1627,2.8228,-0.5531,-1.2716,0.3357,0.51,-79.5,4.8,-28.95,16.24,-6.63,-9.79,-3.2965,-3.8703,-1.5893,-38.6875,31.6875,20.375,9.0,50.5,-168.125,0
1776971507.065,10.7739,-1.968,0.5674,-1.756,-3.1016,-3.836,-35.55,-7.5,29.55,6.1627,2.8228,-0.5531,-1.2716,0.3357,0.51,-79.5,4.8,-28.95,16.24,-6.63,-9.79,-3.2965,-3.8703,-1.5893,-38.6875,31.6875,20.375,9.0,50.5,-168.125,0
1776971507.074,10.5441,-1.0654,1.415,-1.4107,-3.0182,-3.5575,-35.7,-6.45,27.6,5.8993,4.0821,-1.652,-1.4264,0.6504,0.6254,-80.55,5.25,-29.4,17.28,-7.53,-8.8,-3.099,-3.9346,-1.3526,-38.6875,31.6875,20.375,14.1875,48.1875,-166.125,0
1776971507.084,10.4675,-1.2258,2.0758,-1.1021,-2.6526,-3.1653,-35.7,-6.45,27.6,6.2968,5.6767,-2.2625,-1.4682,0.8122,0.6752,-79.8,7.2,-29.4,17.64,-7.58,-8.59,-2.7947,-3.8266,-1.093,-38.6875,31.6875,20.375,19.1875,46.0,-164.5,0
1776971507.091,10.7093,-1.0511,2.0853,-0.8236,-2.1365,-2.6148,-35.7,-1.95,25.8,6.936,6.7732,-1.7334,-1.3741,0.6736,0.6992,-79.8,7.2,-29.4,17.19,-7.21,-8.17,-2.5689,-3.7241,-0.9163,-38.6875,31.6875,20.375,24.125,43.875,-163.1875,0
1776971507.096,10.7093,-1.0511,2.0853,-0.8236,-2.1365,-2.6148,-35.7,-1.95,25.8,7.0773,7.5633,-1.1564,-1.1796,0.389,0.7288,-79.8,7.2,-29.4,17.19,-7.21,-8.17,-2.5689,-3.7241,-0.9163,-38.6875,31.6875,20.375,24.125,43.875,-163.1875,0
1776971507.101,9.2129,-0.1891,1.221,-0.7469,-1.9764,-2.149,-34.95,-0.9,24.3,7.0773,7.5633,-1.1564,-1.1796,0.389,0.7288,-80.55,6.75,-30.45,15.45,-8.99,-6.98,-2.3344,-3.7154,-0.7003,-38.875,23.6875,31.5625,351.125,41.8125,-162.125,0
1776971507.106,9.2129,-0.1891,1.221,-0.7469,-1.9764,-2.149,-34.95,-0.9,24.3,6.9623,8.2145,-0.6105,-1.0645,0.1913,0.7394,-80.55,6.75,-30.45,15.45,-8.99,-6.98,-2.3344,-3.7154,-0.7003,-38.875,23.6875,31.5625,351.125,41.8125,-162.125,0
1776971507.111,8.9471,-0.8236,0.2274,-0.6408,-2.1506,-2.0646,-36.75,0.45,24.0,6.9623,8.2145,-0.6105,-1.0645,0.1913,0.7394,-80.55,6.75,-30.45,15.45,-8.99,-6.98,-2.0409,-3.6914,-0.3731,-38.875,23.6875,31.5625,351.625,39.8125,-161.375,0
1776971507.115,8.9471,-0.8236,0.2274,-0.6408,-2.1506,-2.0646,-36.75,0.45,24.0,6.3135,8.2193,-0.103,-1.1301,0.3091,0.716,-81.75,7.95,-29.7,14.76,-10.76,-6.25,-2.0409,-3.6914,-0.3731,-38.875,23.6875,31.5625,352.3125,37.875,-160.875,0
1776971507.125,9.0644,-2.0853,1.4964,-0.3419,-1.955,-1.7922,-36.3,1.5,22.8,6.7229,7.6974,0.6273,-1.4029,0.5486,0.6995,-82.65,7.35,-30.6,14.15,-11.78,-5.85,-1.8664,-3.5997,0.0164,-38.875,23.6875,31.5625,353.1875,36.125,-160.4375,0
1776971507.135,9.1746,-2.7749,1.9034,-0.9705,-2.0856,-1.6092,-36.0,2.4,22.2,6.2608,7.0844,0.8763,-1.4378,0.6209,0.7258,-81.15,6.9,-31.05,13.98,-11.7,-5.61,-1.8904,-3.5125,0.4461,-38.875,23.6875,31.5625,353.1875,36.125,-160.4375,0
1776971507.145,10.2807,-2.4445,1.0774,-1.4634,-2.1125,-1.6547,-36.0,2.4,22.2,6.754,6.4117,0.7063,-1.4218,0.756,0.8306,-81.3,7.95,-30.15,14.72,-9.9,-4.78,-2.0497,-3.3467,0.9076,-38.875,23.6875,31.5625,354.375,34.5625,-160.125,0
1776971507.149,9.1698,-0.6967,-0.6632,-1.736,-2.1181,-1.5679,-37.2,4.65,19.05,6.754,6.4117,0.7063,-1.4218,0.756,0.8306,-81.3,7.95,-30.15,14.72,-9.9,-4.78,-2.0497,-3.3467,0.9076,-38.875,23.6875,31.5625,354.375,34.5625,-160.125,0
1776971507.154,9.1698,-0.6967,-0.6632,-1.736,-2.1181,-1.5679,-37.2,4.65,19.05,6.687,5.6216,0.2777,-1.6054,1.1205,0.9806,-81.3,9.45,-30.15,14.83,-9.15,-4.04,-2.2231,-3.243,1.3068,-36.1875,15.75,46.375,355.75,33.125,-159.75,0
1776971507.159,8.5545,0.0551,-0.6009,-1.5732,-1.7413,-1.4019,-36.0,9.15,16.8,6.687,5.6216,0.2777,-1.6054,1.1205,0.9806,-81.3,9.45,-30.15,14.83,-9.15,-4.04,-2.2231,-3.243,1.3068,-36.1875,15.75,46.375,355.75,33.125,-159.75,0
1776971507.164,8.5545,0.0551,-0.6009,-1.5732,-1.7413,-1.4019,-36.0,9.15,16.8,8.3653,5.2122,-0.3184,-1.6622,1.1386,1.1378,-81.3,9.45,-30.15,14.51,-8.42,-2.73,-2.3278,-3.11,1.5817,-36.1875,15.75,46.375,357.3125,31.8125,-159.375,0
1776971507.169,9.4739,0.4812,-0.2849,-1.8231,-1.3035,-1.0147,-35.4,7.2,16.8,8.3653,5.2122,-0.3184,-1.6622,1.1386,1.1378,-81.3,9.45,-30.15,14.51,-8.42,-2.73,-2.3398,-2.9594,1.7017,-36.1875,15.75,46.375,358.875,30.625,-158.9375,0
1776971507.175,9.4739,0.4812,-0.2849,-1.8231,-1.3035,-1.0147,-35.4,7.2,16.8,9.6151,5.4372,-0.8906,-1.3371,0.6507,1.2412,-81.75,9.15,-31.2,12.72,-6.66,0.15,-2.3398,-2.9594,1.7017,-36.1875,15.75,46.375,0.4375,29.5625,-158.5625,0
1776971507.185,9.4499,1.1492,-1.1636,-1.9993,-0.81,-0.5734,-34.65,8.7,16.5,9.4834,6.3422,-0.972,-0.8985,0.1242,1.2729,-81.75,9.15,-31.2,12.1,-5.62,1.21,-2.2362,-2.6878,1.7159,-36.1875,15.75,46.375,1.9375,28.6875,-158.1875,0
1776971507.195,9.1219,-0.3472,1.1205,-1.6252,-0.5289,-0.3222,-34.65,8.7,16.5,8.8394,6.8857,-0.7757,-0.7887,0.0179,1.2409,-82.5,9.15,-30.9,12.07,-4.52,1.55,-2.0082,-2.3769,1.6668,-36.1875,15.75,46.375,1.9375,28.6875,-158.1875,0
1776971507.2,9.2249,2.8706,-1.2234,-1.4496,-0.47,-0.134,-34.65,8.7,16.5,8.8394,6.8857,-0.7757,-0.7887,0.0179,1.2409,-82.5,9.15,-30.9,12.07,-4.52,1.55,-2.0082,-2.3769,1.6668,-36.1875,15.75,46.375,1.9375,28.6875,-158.1875,0
1776971507.205,9.2249,2.8706,-1.2234,-1.4496,-0.47,-0.134,-34.65,8.7,16.5,9.4355,7.0222,-0.4812,-0.9081,-0.0909,1.2087,-83.4,8.55,-29.25,12.11,-3.63,1.69,-1.6133,-1.994,1.5959,-27.25,8.0625,54.875,3.25,28.0,-157.9375,0
1776971507.21,8.2624,2.8228,-3.158,-1.4482,-0.4604,0.1399,-36.3,10.05,14.55,9.3877,7.5034,-0.2011,-0.9081,-0.0909,1.2087,-83.4,8.55,-29.25,12.11,-3.63,1.69,-1.6133,-1.994,1.5959,-27.25,8.0625,54.875,3.25,28.0,-157.9375,0
1776971507.215,7.6112,2.0997,-3.6105,-0.1737,-0.1807,0.3341,-36.3,10.05,14.55,9.3877,7.5034,-0.2011,-1.0373,-0.1695,1.2025,-83.85,8.1,-28.8,12.49,-4.43,1.88,-1.1017,-1.7028,1.4933,-27.25,8.0625,54.875,4.375,27.4375,-157.9375,0
1776971507.224,7.6112,2.0997,-3.6105,-0.1737,-0.1807,0.3341,-35.4,9.45,14.7,8.6957,7.7117,-0.4932,-0.9022,-0.1071,1.1786,-83.7,6.75,-28.95,13.02,-3.84,2.72,-0.624,-1.4454,1.2665,-27.25,8.0625,54.875,5.3125,26.9375,-158.0625,0
1776971507.228,7.7644,2.059,-2.2984,0.2118,0.1585,0.6299,-35.55,9.0,15.3,8.6957,7.7117,-0.4932,-0.9022,-0.1071,1.1786,-83.7,6.75,-28.95,13.02,-3.84,2.72,-0.624,-1.4454,1.2665,-27.25,8.0625,54.875,6.0,26.5625,-158.3125,0
1776971507.235,7.5417,2.1117,-2.1045,0.3898,0.481,0.9126,-35.55,9.0,15.3,8.9807,7.8578,-0.7254,-0.6174,-0.0669,1.1791,-81.75,7.5,-27.9,12.55,-3.56,3.93,-0.2498,-1.165,1.0079,-27.25,8.0625,54.875,6.5625,26.3125,-158.6875,0
1776971507.245,7.5369,1.6113,-2.4421,0.6379,0.8111,1.1738,-35.55,10.5,15.3,8.8011,7.6471,-0.9984,-0.3144,-0.1362,1.2073,-84.15,6.9,-28.05,11.07,-4.02,4.84,0.1505,-0.8399,0.8247,-27.25,8.0625,54.875,6.5625,26.3125,-158.6875,0
1776971507.25,7.5369,1.6113,-2.4421,0.6379,0.8111,1.1738,-35.55,10.5,15.3,9.4499,7.3023,-1.6209,0.0866,-0.1903,1.2497,-84.15,6.9,-28.05,11.07,-4.02,4.84,0.1505,-0.8399,0.8247,-27.25,8.0625,54.875,6.8125,26.1875,-159.25,0
1776971507.255,10.6877,3.0622,-2.1284,0.7965,1.4149,1.2159,-35.55,10.5,15.3,9.4499,7.3023,-1.6209,0.0866,-0.1903,1.2497,-84.15,6.9,-28.05,9.21,-4.11,5.2,0.6414,-0.4243,0.5978,-20.0,0.6875,59.6875,6.8125,26.1875,-159.25,0
1776971507.26,10.6877,3.0622,-2.1284,0.7965,1.4149,1.2159,-36.3,9.0,18.15,9.663,7.2449,-1.5969,0.287,-0.0096,1.4146,-84.15,6.9,-28.05,9.21,-4.11,5.2,0.6414,-0.4243,0.5978,-20.0,0.6875,59.6875,6.75,26.25,-159.9375,0
1776971507.265,12.7946,4.3072,1.2426,0.8844,1.4362,1.1591,-36.3,9.0,18.15,9.663,7.2449,-1.5969,0.287,-0.0096,1.4146,-83.25,4.5,-27.45,4.94,-3.11,6.8,1.1726,0.0164,0.1353,-20.0,0.6875,59.6875,6.75,26.25,-159.9375,0
1776971507.27,12.7946,4.3072,1.2426,0.8844,1.4362,1.1591,-36.3,7.5,18.15,9.6199,6.1746,-0.7973,0.1831,0.1143,1.4749,-83.25,4.5,-27.45,4.94,-3.11,6.8,1.861,1.1563,1.141,-20.0,0.6875,59.6875,7.0625,27.0625,-161.125,0
1776971507.276,14.1449,6.505,-1.9848,0.3158,0.6728,0.7378,-35.4,5.7,19.35,9.6199,6.1746,-0.7973,0.1831,0.1143,1.4749,-83.25,4.5,-27.45,5.36,6.6,-10.64,1.861,1.1563,1.141,-20.0,0.6875,59.6875,7.6875,28.0625,-162.6875,0
1776971507.285,13.307,5.3798,-4.1563,0.7546,0.4506,0.5854,-35.55,5.7,19.35,9.8976,4.9799,0.2849,-0.182,0.0882,1.4421,-82.2,3.6,-25.35,7.61,10.24,-22.26,2.0159,1.3766,1.8577,-20.0,0.6875,59.6875,8.4375,29.0,-164.3125,0
1776971507.295,11.971,2.2769,-5.9472,1.3624,0.1535,0.5684,-36.0,7.2,18.3,11.066,3.3519,1.142,-0.4738,0.1058,1.4615,-81.9,3.9,-25.8,7.82,10.48,-12.75,2.0595,1.0614,2.1031,-20.0,0.6875,59.6875,8.4375,29.0,-164.3125,0
1776971507.3,11.971,2.2769,-5.9472,1.3624,0.1535,0.5684,-36.0,7.2,18.3,13.2711,1.324,-0.0048,-0.5894,0.311,1.6374,-81.9,3.9,-25.8,7.82,10.48,-12.75,2.0595,1.0614,2.1031,-20.0,0.6875,59.6875,8.4375,29.0,-164.3125,0
1776971507.305,13.5943,-5.3558,-6.9791,1.8114,-0.0925,0.571,-36.0,7.2,18.3,13.2711,1.324,-0.0048,-0.5894,0.311,1.6374,-81.9,4.65,-25.05,0.28,5.76,-6.14,1.9733,1.1214,1.8522,-17.0625,2.5,60.75,9.125,29.875,-165.875,0
1776971507.31,13.5943,-5.3558,-6.9791,1.8114,-0.0925,0.571,-36.0,7.2,18.3,16.0914,-0.1125,-1.4509,-0.5284,0.1801,1.7861,-81.9,4.65,-25.05,0.28,5.76,-6.14,1.9733,1.1214,1.8522,-17.0625,2.5,60.75,9.125,29.875,-165.875,0
1776971507.315,15.8472,-5.7485,-1.1157,0.8497,0.611,0.5428,-36.0,7.2,18.3,16.0914,-0.1125,-1.4509,-0.5284,0.1801,1.7861,-82.5,4.5,-24.6,2.86,-3.03,-3.36,1.741,1.5468,0.865,-17.0625,2.5,60.75,9.25,30.8125,-167.0,0
1776971507.323,14.9877,-3.79,1.5395,-0.1007,1.0445,0.6209,-36.75,7.65,19.35,16.9342,-0.5315,-2.3774,-0.6166,0.0,1.7944,-83.7,2.85,-24.15,28.62,-15.18,-25.37,2.4184,1.9188,-0.841,-17.0625,2.5,60.75,8.3125,31.75,-167.9375,0
1776971507.327,14.9877,-3.79,1.5395,-0.1007,1.0445,0.6209,-36.75,5.7,18.3,16.8839,-0.0814,-1.3671,-0.8196,-0.3088,1.5974,-83.7,2.85,-24.15,28.62,-15.18,-25.37,2.4184,1.9188,-0.841,-17.0625,2.5,60.75,7.875,33.1875,-168.625,0
1776971507.335,14.2263,-1.4892,-0.2658,-0.1687,1.2926,0.7418,-36.3,4.8,20.25,12.5265,-0.8547,0.8188,-0.8196,-0.3088,1.5974,-83.1,0.75,-24.3,18.94,-9.45,-17.34,1.633,2.6954,-0.0185,-17.0625,2.5,60.75,8.0,34.5625,-169.375,0
1776971507.345,10.908,-0.6991,0.0311,0.7131,1.4669,0.7477,-35.7,6.15,21.15,10.4315,-1.9273,1.9273,-1.5484,-0.3413,0.9606,-83.1,0.75,-24.3,10.82,3.4,-8.07,1.1574,2.3246,0.7494,-17.0625,2.5,60.75,8.0,34.5625,-169.375,0
1776971507.35,10.908,-0.6991,0.0311,1.2614,1.6971,0.8615,-35.7,6.15,21.15,10.4315,-1.9273,1.9273,-1.5484,-0.3413,0.9606,-83.1,0.75,-24.3,10.82,3.4,-8.07,1.1574,2.3246,0.7494,-17.0625,2.5,60.75,7.9375,35.625,-169.6875,0
1776971507.355,9.6822,0.7949,0.9864,1.2614,1.6971,0.8615,-34.95,4.95,21.9,8.4539,-2.0901,1.1037,-1.5092,-0.5263,0.9747,-81.75,-0.45,-22.35,10.95,-4.47,-12.15,0.5618,1.9308,0.324,-22.5625,9.875,60.6875,7.9375,35.625,-169.6875,0
1776971507.36,8.9376,2.4014,2.2769,1.6779,1.4999,1.0155,-34.95,4.95,21.9,8.4539,-2.0901,1.1037,-1.5092,-0.5263,0.9747,-81.75,-0.45,-22.35,10.95,-4.47,-12.15,0.5618,1.9308,0.324,-22.5625,9.875,60.6875,7.9375,36.125,-170.0625,0
1776971507.365,8.9376,2.4014,2.2769,1.6779,1.4999,1.0155,-34.95,4.95,21.9,7.0198,-2.4062,-1.142,-1.3896,-0.2518,1.1991,-80.1,-1.95,-21.0,7.56,-6.32,-10.01,0.624,0.9327,0.1756,-22.5625,9.875,60.6875,7.9375,36.125,-170.0625,0
1776971507.371,9.2129,2.8778,3.2872,1.7309,1.0714,0.9337,-34.95,4.95,21.9,7.0198,-2.4062,-1.142,-1.3896,-0.2518,1.1991,-80.1,-1.95,-21.0,7.56,-6.32,-10.01,0.4112,0.5629,0.0502,-22.5625,9.875,60.6875,7.8125,36.4375,-170.25,0
1776971507.376,9.2129,2.8778,3.2872,1.7309,1.0714,0.9337,-36.75,4.65,24.0,6.8067,-2.0973,-1.7262,-1.574,-0.0248,1.3728,-80.4,-3.9,-18.75,7.66,2.64,-8.21,0.4112,0.5629,0.0502,-22.5625,9.875,60.6875,7.75,36.75,-170.3125,0
1776971507.385,8.691,2.9209,2.047,1.6398,0.7605,0.8263,-35.85,4.05,24.45,7.3981,-1.2402,-0.1077,-1.8618,0.0645,1.4416,-79.65,-3.0,-20.25,7.78,2.69,-7.25,0.1625,0.5432,-0.0415,-22.5625,9.875,60.6875,7.6875,37.0,-170.1875,0
1776971507.395,8.6718,2.7557,0.1317,1.4552,0.502,0.7048,-36.3,2.55,23.85,8.6694,-0.0024,2.0973,-2.1189,-0.113,1.5028,-80.55,-3.6,-19.35,7.14,0.89,-7.45,0.0055,0.4778,-0.0993,-22.5625,9.875,60.6875,7.6875,37.0,-170.1875,0
1776971507.4,8.8729,1.6735,-0.7039,1.2383,0.4205,0.7424,-36.3,2.55,23.85,8.6694,-0.0024,2.0973,-2.1189,-0.113,1.5028,-80.55,-3.6,-19.35,7.14,0.89,-7.45,0.0055,0.4778,-0.0993,-22.5625,9.875,60.6875,7.625,37.125,-170.0625,0
1776971507.405,8.8729,1.6735,-0.7039,1.2383,0.4205,0.7424,-36.75,2.7,25.05,9.2799,0.17,3.553,-2.1778,-0.405,1.4506,-80.55,-3.6,-18.3,6.46,0.02,-7.69,-0.1309,0.24,-0.1025,-28.0625,12.6875,59.0,7.625,37.125,-170.0625,0
1776971507.41,8.9711,1.0463,-0.9074,0.7869,0.5063,0.7202,-36.75,2.7,25.05,9.2799,0.17,3.553,-2.1778,-0.405,1.4506,-80.55,-3.6,-18.3,6.46,0.02,-7.69,-0.1309,0.24,-0.1025,-28.0625,12.6875,59.0,7.625,37.125,-169.9375,0
1776971507.415,8.9711,1.0463,-0.9074,0.7869,0.5063,0.7202,-36.75,2.7,25.05,8.2552,-0.4812,3.9121,-2.1541,-0.3781,1.3283,-80.55,-3.6,-18.3,4.75,0.61,-7.66,-0.1854,0.0022,-0.0709,-28.0625,12.6875,59.0,7.625,37.125,-169.9375,0
1776971507.425,7.9966,1.4246,-0.7781,-0.0765,0.6083,0.5804,-35.85,1.05,26.25,8.77,-0.5315,4.3527,-2.1186,-0.2646,1.1343,-81.0,-6.0,-18.3,4.94,1.17,-7.43,-0.1276,-0.0447,-0.0164,-28.0625,12.6875,59.0,7.625,37.125,-169.875,0
1776971507.434,9.3589,0.8643,1.3719,-1.2849,0.8127,0.4399,-36.75,1.65,24.75,9.0621,0.6488,4.4317,-2.1136,0.008,0.955,-81.0,-6.0,-18.3,5.04,1.14,-7.24,0.012,0.1276,0.0415,-28.0625,12.6875,59.0,7.6875,37.1875,-169.875,0
1776971507.439,9.1698,1.901,0.067,-1.7104,0.9177,0.4104,-36.75,1.65,24.75,9.0621,0.6488,4.4317,-2.1136,0.008,0.955,-81.0,-6.0,-18.3,5.04,1.14,-7.24,0.012,0.1276,0.0415,-28.0625,12.6875,59.0,7.75,37.3125,-169.9375,0
1776971507.446,9.1698,1.901,0.067,-1.7104,0.9177,0.4104,-36.45,0.9,26.1,9.2368,1.5323,4.0821,-2.1605,0.3997,0.7805,-79.65,-3.9,-19.5,5.49,0.7,-7.62,0.0622,0.2062,0.1418,-28.0625,12.6875,59.0,7.75,37.3125,-169.9375,0
1776971507.451,9.7971,2.0734,-0.4142,-1.9785,0.991,0.5444,-36.45,0.9,26.1,9.1506,2.1069,3.0191,-2.1605,0.3997,0.7805,-79.65,-3.9,-19.5,5.49,0.7,-7.62,0.0676,0.1364,0.2443,-30.1875,12.25,58.1875,7.875,37.375,-170.0625,0
1776971507.456,9.7971,2.0734,-0.4142,-1.9785,0.991,0.5444,-33.3,3.0,27.0,9.1506,2.1069,3.0191,-2.1799,0.5721,0.6744,-80.55,-5.55,-19.05,6.0,1.1,-7.38,0.0676,0.1364,0.2443,-30.1875,12.25,58.1875,7.875,37.375,-170.0625,0
1776971507.461,9.4092,3.0406,-0.0359,-1.8743,0.729,0.4959,-33.3,3.0,27.0,9.0884,2.4349,1.8866,-2.1474,0.6078,0.663,-80.55,-5.55,-19.05,6.0,1.1,-7.38,0.0971,0.1014,0.3011,-30.1875,12.25,58.1875,8.0,37.5,-170.25,0
1776971507.466,9.4092,3.0406,-0.0359,-1.8743,0.729,0.4959,-35.1,2.25,25.65,9.0884,2.4349,1.8866,-2.1474,0.6078,0.663,-80.4,-4.95,-18.45,6.16,1.05,-7.49,0.0971,0.1014,0.3011,-30.1875,12.25,58.1875,8.0,37.5,-170.25,0
1776971507.472,10.4459,4.142,-1.154,-1.4538,0.9923,0.6787,-35.1,2.25,25.65,8.983,2.0686,1.0391,-2.076,0.559,0.6742,-80.4,-4.95,-18.45,6.27,0.9,-7.65,0.1189,-0.0142,0.3502,-30.1875,12.25,58.1875,8.1875,37.5,-170.5,0
1776971507.477,10.5105,2.7797,0.1676,-1.2817,0.7818,0.7767,-35.1,2.25,25.65,8.983,2.0686,1.0391,-2.076,0.559,0.6742,-79.8,-5.25,-18.3,6.27,0.9,-7.65,0.1189,-0.0142,0.3502,-30.1875,12.25,58.1875,8.3125,37.5,-170.75,0
1776971507.486,8.9064,1.5562,-0.9457,-0.9785,0.5833,0.8013,-36.45,2.7,27.15,9.347,1.233,0.8092,-2.0741,0.4221,0.7,-79.8,-7.2,-19.05,5.94,0.41,-8.26,0.1833,-0.0687,0.3796,-30.1875,12.25,58.1875,8.5625,37.4375,-171.0625,0
1776971507.495,8.9256,0.6249,0.6991,-0.8386,0.7317,0.7986,-34.8,0.75,26.7,9.2584,0.0718,1.2067,-2.1735,0.2902,0.7061,-79.8,-5.55,-18.6,6.23,0.0,-9.03,0.1909,-0.1298,0.4287,-30.1875,12.25,58.1875,8.5625,37.4375,-171.0625,0
1776971507.5,8.9256,0.6249,0.6991,-0.8386,0.7317,0.7986,-34.8,0.75,26.7,9.5289,-0.3304,1.4581,-2.326,0.0767,0.7061,-79.8,-5.55,-18.6,6.23,0.0,-9.03,0.1909,-0.1298,0.4287,-30.1875,12.25,58.1875,8.6875,37.5625,-171.3125,0
1776971507.505,9.3206,0.9984,0.9553,-0.8865,0.7594,0.8266,-36.0,0.15,26.85,9.5289,-0.3304,1.4581,-2.326,0.0767,0.7061,-79.8,-5.55,-18.6,6.29,0.04,-8.43,0.2203,0.0927,0.3152,-30.5625,12.6875,58.5,8.6875,37.5625,-171.3125,0
1776971507.51,9.3206,0.9984,0.9553,-0.8865,0.7594,0.8266,-36.0,0.15,26.85,9.2895,-0.7566,2.0997,-2.4499,-0.0746,0.7442,-79.8,-5.55,-18.6,6.29,0.04,-8.43,0.2203,0.0927,0.3152,-30.5625,12.6875,58.5,8.75,37.875,-171.4375,0
1776971507.515,9.4954,1.4964,1.0487,-0.9278,0.7163,0.7725,-36.75,1.2,27.15,9.2895,-0.7566,2.0997,-2.4499,-0.0746,0.7442,-79.65,-4.65,-17.4,6.09,1.08,-7.46,0.1745,0.5661,0.2094,-30.5625,12.6875,58.5,8.75,37.875,-171.4375,0
1776971507.523,9.4954,1.4964,1.0487,-0.9278,0.7163,0.7725,-35.1,1.05,28.05,9.2225,0.146,2.3774,-2.492,-0.0837,0.7645,-79.65,-4.65,-17.4,6.18,1.09,-7.51,0.1571,0.5574,0.2105,-30.5625,12.6875,58.5,8.8125,38.1875,-171.5625,0
1776971507.528,9.2632,1.2641,1.1013,-0.9334,0.6672,0.7341,-35.1,1.05,28.05,9.4116,-0.2035,2.9928,-2.456,-0.0496,0.7762,-79.65,-4.65,-17.4,6.18,1.09,-7.51,0.1571,0.5574,0.2105,-30.5625,12.6875,58.5,8.875,38.4375,-171.75,0
1776971507.536,9.6917,0.7446,0.5914,-0.9822,0.6568,0.7237,-35.1,1.05,28.05,9.4116,-0.2035,2.9928,-2.456,-0.0496,0.7762,-81.75,-5.55,-18.3,6.13,0.62,-7.69,0.1473,0.3905,0.2542,-30.5625,12.6875,58.5,9.0,38.6875,-171.875,0
1776971507.546,9.7324,0.8356,0.3783,-0.9859,0.6648,0.7088,-36.75,-0.15,28.2,9.2536,0.5052,3.2537,-2.3369,0.0418,0.7464,-78.75,-5.55,-19.35,6.03,0.74,-7.7,0.1244,0.4331,0.2378,-30.5625,12.6875,58.5,9.0,38.6875,-171.875,0
1776971507.551,9.7324,0.8356,0.3783,-0.9859,0.6648,0.7088,-36.75,-0.15,28.2,9.3446,0.984,2.9257,-2.1882,0.1444,0.7104,-78.75,-5.55,-19.35,6.03,0.74,-7.7,0.1244,0.4331,0.2378,-30.5625,12.6875,58.5,9.0,38.6875,-171.875,0
1776971507.556,9.7205,1.3575,0.1197,-1.0941,0.6662,0.7202,-35.4,2.4,27.9,9.1435,1.7717,2.6456,-2.1882,0.1444,0.7104,-80.1,-6.6,-19.95,6.16,0.64,-7.68,0.1091,0.4832,0.2334,-30.5625,14.5,57.6875,9.0625,39.0,-172.0625,0
1776971507.56,9.7205,1.3575,0.1197,-1.0941,0.6662,0.7202,-35.1,0.75,28.05,9.1435,1.7717,2.6456,-2.0384,0.1839,0.6837,-80.1,-6.6,-19.95,6.16,0.64,-7.68,0.1091,0.4832,0.2334,-30.5625,14.5,57.6875,9.0625,39.0,-172.0625,0
1776971507.566,9.6414,1.9704,-0.0622,-1.2313,0.648,0.7829,-35.1,0.75,28.05,9.0812,1.9465,2.4349,-2.0384,0.1839,0.6837,-82.35,-6.6,-18.45,6.23,0.57,-7.49,0.1145,0.4734,0.2302,-30.5625,14.5,57.6875,9.1875,39.25,-172.1875,0
1776971507.571,9.6414,1.9704,-0.0622,-1.2313,0.648,0.7829,-36.3,-1.05,27.75,9.0812,1.9465,2.4349,-1.8919,0.1681,0.6446,-82.35,-6.6,-18.45,6.23,0.57,-7.49,0.1178,0.4734,0.228,-30.5625,14.5,57.6875,9.25,39.5,-172.3125,0
1776971507.576,9.6175,2.1117,-0.577,-1.3097,0.7717,0.8847,-36.3,-1.05,27.75,9.1626,2.387,2.2434,-1.7965,0.1396,0.6171,-81.0,-5.25,-18.3,5.84,1.07,-7.4,0.1178,0.4734,0.228,-30.5625,14.5,57.6875,9.375,39.8125,-172.5,0
1776971507.586,9.5026,2.1165,-1.2234,-1.4131,0.7125,0.9435,-36.3,-1.05,27.75,9.2033,2.6456,2.2505,-1.7408,0.0695,0.5793,-80.1,-5.85,-19.2,5.71,1.24,-7.24,0.1396,0.5334,0.2531,-30.5625,14.5,57.6875,9.5,40.1875,-172.6875,0
1776971507.596,9.347,1.9106,-1.1061,-1.4722,0.631,0.9867,-36.3,-1.05,27.75,9.1171,2.7126,2.1931,-1.6758,-0.0117,0.5185,-80.1,-5.85,-19.2,5.96,1.18,-7.34,0.1582,0.5989,0.2978,-30.5625,14.5,57.6875,9.5,40.1875,-172.6875,0
1776971507.6,9.347,1.9106,-1.1061,-1.4722,0.631,0.9867,-35.1,-1.5,29.1,9.1171,2.7126,2.1931,-1.6758,-0.0117,0.5185,-80.1,-5.85,-19.2,5.96,1.18,-7.34,0.1582,0.5989,0.2978,-30.5625,14.5,57.6875,9.625,40.5625,-172.875,0
1776971507.606,9.2296,1.7861,-1.1612,-1.364,0.7083,1.0674,-35.1,-1.5,29.1,9.0118,2.7988,2.0877,-1.5292,-0.1287,0.4546,-79.65,-5.85,-19.2,6.08,1.03,-7.23,0.1582,0.6621,0.324,-30.875,16.6875,57.6875,9.625,40.5625,-172.875,0
1776971507.61,9.2296,1.7861,-1.1612,-1.364,0.7083,1.0674,-35.85,0.75,29.1,9.0118,2.7988,2.0877,-1.5292,-0.1287,0.4546,-79.65,-5.85,-19.2,6.08,1.03,-7.23,0.1582,0.6621,0.324,-30.875,16.6875,57.6875,9.75,41.0,-173.0625,0
1776971507.615,9.8761,0.9912,0.4118,-1.1223,0.8436,1.1029,-35.85,0.75,29.1,8.9615,2.2122,2.0542,-1.3707,-0.1799,0.417,-79.65,-5.85,-19.2,5.64,1.04,-7.22,0.1244,0.6818,0.3502,-30.875,16.6875,57.6875,9.75,41.0,-173.0625,0
1776971507.622,9.7995,0.8882,0.1125,-0.9451,0.659,1.0624,-35.7,-1.2,30.0,8.9615,2.2122,2.0542,-1.3707,-0.1799,0.417,-81.6,-5.4,-18.45,5.6,1.06,-7.06,0.1134,0.7472,0.3916,-30.875,16.6875,57.6875,9.9375,41.4375,-173.25,0
1776971507.627,9.7995,0.8882,0.1125,-0.9451,0.659,1.0624,-35.7,-1.2,30.0,9.1794,2.2984,2.1165,-1.1967,-0.1556,0.4165,-80.55,-5.25,-19.35,5.6,1.06,-7.06,0.1134,0.7472,0.3916,-30.875,16.6875,57.6875,10.125,41.9375,-173.5,0
1776971507.636,9.9647,0.8523,0.6177,-0.6947,0.7139,0.9542,-34.8,-1.8,29.1,9.4763,2.059,2.2362,-0.9931,-0.1178,0.4479,-80.55,-5.25,-19.35,5.64,1.09,-6.8,0.1058,0.853,0.4461,-30.875,16.6875,57.6875,10.375,42.5,-173.75,0
1776971507.646,9.8857,-0.1341,0.7781,-0.486,0.5926,0.9124,-34.8,-1.8,29.1,9.2416,1.9992,2.1069,-0.7943,-0.0538,0.4884,-80.1,-5.4,-17.4,7.05,0.05,-9.48,0.0894,0.9643,0.5236,-30.875,16.6875,57.6875,10.375,42.5,-173.75,0
1776971507.651,9.1506,-1.4389,0.7973,-0.291,0.5169,0.9033,-33.9,-2.7,31.05,9.2416,1.9992,2.1069,-0.7943,-0.0538,0.4884,-80.1,-5.4,-17.4,7.05,0.05,-9.48,0.0894,0.9643,0.5236,-30.875,16.6875,57.6875,10.375,42.5,-173.75,0
1776971507.656,9.1506,-1.4389,0.7973,-0.291,0.5169,0.9033,-33.9,-2.7,31.05,8.8083,1.8268,1.7909,-0.6582,-0.0203,0.5534,-80.1,-5.4,-17.4,7.35,-1.92,-6.66,0.036,1.0396,0.6109,-32.375,17.0625,56.75,10.6875,43.0625,-174.0625,0
1776971507.661,9.0644,-2.3918,1.4868,-0.5185,0.6686,0.9515,-33.9,-1.95,29.7,8.8083,1.8268,1.7909,-0.6582,-0.0203,0.5534,-79.5,-6.45,-18.3,7.35,-1.92,-6.66,0.036,1.0396,0.6109,-32.375,17.0625,56.75,10.6875,43.0625,-174.0625,0
1776971507.666,9.0644,-2.3918,1.4868,-0.5185,0.6686,0.9515,-33.9,-1.95,29.7,8.7077,1.8076,1.3144,-0.5686,-0.0663,0.6134,-79.5,-6.45,-18.3,7.58,0.23,-7.29,-0.0742,1.0657,0.4581,-32.375,17.0625,56.75,10.9375,43.6875,-174.1875,0
1776971507.671,9.6534,-2.3463,1.4868,-0.6893,0.9017,1.0064,-34.05,-1.8,29.85,8.7077,1.8076,1.3144,-0.5686,-0.0663,0.6134,-79.5,-6.45,-18.3,7.58,0.23,-7.29,0.0338,1.0952,0.2771,-32.375,17.0625,56.75,11.0625,44.3125,-174.3125,0
1776971507.677,9.6534,-2.3463,1.4868,-0.6893,0.9017,1.0064,-34.05,-1.8,29.85,8.7771,1.7454,1.1372,-0.4948,-0.1396,0.6861,-80.25,-5.25,-19.8,8.73,-0.77,-8.77,0.0338,1.0952,0.2771,-32.375,17.0625,56.75,22.3125,44.875,-174.375,0
1776971507.686,10.2448,-1.5275,1.5969,-0.7266,1.044,0.9982,-34.5,-2.55,29.55,9.1985,1.5634,1.3551,-0.4133,-0.1847,0.7839,-80.25,-5.25,-19.8,6.66,-0.38,-7.55,0.0415,1.0014,0.1865,-32.375,17.0625,56.75,22.3125,44.875,-174.375,0
1776971507.696,9.8497,-0.8332,0.7614,-0.7887,1.1175,1.0403,-35.1,-3.75,31.35,9.2273,1.2139,1.5969,-0.2851,-0.1895,0.8689,-80.25,-5.25,-19.8,6.89,0.77,-7.25,0.0185,0.9708,0.1582,-32.375,17.0625,56.75,22.0625,45.4375,-174.375,0
1776971507.701,10.0173,-0.6943,0.8475,-0.7445,1.1271,1.0922,-35.1,-3.75,31.35,9.1435,0.9984,1.6017,-0.2851,-0.1895,0.8689,-80.1,-5.85,-20.7,6.89,0.77,-7.25,0.0185,0.9708,0.1582,-32.375,17.0625,56.75,21.875,46.0,-174.4375,0
1776971507.706,10.0173,-0.6943,0.8475,-0.7445,1.1271,1.0922,-35.1,-3.75,31.35,9.1435,0.9984,1.6017,-0.2012,-0.0895,0.9433,-80.1,-5.85,-20.7,7.65,0.73,-6.85,-0.0196,1.0603,0.1582,-35.0,17.375,55.1875,21.875,46.0,-174.4375,0
1776971507.711,9.7252,-0.4262,-0.0407,-0.6963,1.1138,1.133,-34.05,-3.75,31.35,9.3111,1.0606,1.5155,-0.1199,-0.0224,1.0099,-79.65,-4.65,-20.25,7.65,0.73,-6.85,-0.0196,1.0603,0.1582,-35.0,17.375,55.1875,21.75,46.5625,-174.4375,0
1776971507.716,9.7252,-0.4262,-0.0407,-0.6963,1.1138,1.133,-34.05,-3.75,31.35,9.3111,1.0606,1.5155,-0.1199,-0.0224,1.0099,-79.65,-4.65,-20.25,7.32,0.0,-6.68,-0.0295,0.9338,0.1494,-35.0,17.375,55.1875,21.75,46.5625,-174.4375,0
1776971507.724,9.6247,0.5219,0.0192,-0.6083,1.1719,1.1453,-33.75,-5.25,30.9,9.754,1.3886,1.5203,0.0133,-0.0085,1.0512,-79.8,-5.25,-20.55,7.32,-0.33,-6.95,-0.1298,0.7636,0.1854,-35.0,17.375,55.1875,21.6875,47.0,-174.4375,0
1776971507.729,10.3046,0.2394,-1.6137,-0.5633,1.0824,1.2073,-34.05,-4.5,33.0,9.7276,1.8651,1.5395,0.0133,-0.0085,1.0512,-81.0,-6.0,-21.9,7.32,-0.33,-6.95,-0.1298,0.7636,0.1854,-35.0,17.375,55.1875,21.875,47.4375,-174.3125,0
1776971507.736,10.3046,0.2394,-1.6137,-0.5633,1.0824,1.2073,-34.05,-4.5,33.0,9.7276,1.8651,1.5395,0.0839,-0.0685,1.0741,-81.0,-6.75,-21.9,6.3,-0.33,-6.59,-0.2422,0.781,0.1374,-35.0,17.375,55.1875,22.0625,48.0,-174.125,0
1776971507.746,9.5265,-0.1772,-0.8643,-0.4884,1.2289,1.335,-32.4,-6.15,32.55,9.5984,2.9736,1.7406,0.1191,-0.1745,1.0525,-81.0,-6.75,-19.35,8.42,-0.83,-6.53,-0.2683,1.0177,-0.0164,-35.0,17.375,55.1875,22.0625,48.0,-174.125,0
1776971507.751,10.082,0.7542,-0.7661,-0.49,1.3326,1.4072,-32.85,-6.45,33.6,9.9144,3.7589,1.5323,0.0677,-0.2182,1.0011,-80.55,-7.2,-20.85,8.42,-0.83,-6.53,-0.2683,1.0177,-0.0164,-35.0,17.375,55.1875,22.3125,48.5625,-173.8125,0
1776971507.756,10.082,0.7542,-0.7661,-0.49,1.3326,1.4072,-32.85,-6.45,33.6,9.9144,3.7589,1.5323,0.0677,-0.2182,1.0011,-80.55,-7.2,-20.85,7.8,-0.69,-6.51,-0.2073,1.0821,-0.204,-37.75,18.875,54.0,22.3125,48.5625,-173.8125,0
1776971507.761,11.078,1.5251,-1.798,-0.3882,1.4128,1.4005,-32.85,-6.45,33.6,10.1682,3.7014,1.5251,0.0408,-0.1375,0.9302,-80.55,-7.2,-20.85,7.8,-0.69,-6.51,-0.2073,1.0821,-0.204,-37.75,18.875,54.0,22.625,49.125,-173.4375,0
1776971507.766,11.078,1.5251,-1.798,-0.3733,1.3662,1.4077,-32.85,-6.45,33.6,10.1682,3.7014,1.5251,0.0408,-0.1375,0.9302,-80.55,-7.2,-20.85,7.19,-0.41,-6.96,-0.2258,0.9948,-0.2705,-37.75,18.875,54.0,22.625,49.125,-173.4375,0
1776971507.771,11.1211,2.2098,-1.6807,-0.3733,1.3662,1.4077,-32.4,-6.15,34.35,10.1011,3.1627,1.4988,0.0858,-0.0514,0.8378,-81.3,-6.75,-20.55,7.19,-0.41,-6.96,-0.2607,1.2239,-0.2247,-37.75,18.875,54.0,22.9375,49.75,-173.0625,0
1776971507.777,10.726,2.7174,-1.7502,-0.3944,1.4045,1.4741,-31.5,-7.8,34.8,9.8857,3.0239,1.561,0.0858,-0.0514,0.8378,-81.3,-6.75,-20.55,7.02,-0.13,-7.05,-0.2607,1.2239,-0.2247,-37.75,18.875,54.0,23.3125,50.6875,-172.6875,0
1776971507.786,10.8194,2.2266,-1.391,-0.5774,1.5343,1.5793,-31.5,-7.8,34.8,9.8019,2.818,1.9537,0.114,-0.0557,0.7,-81.3,-6.75,-20.55,6.03,-0.66,-4.34,-0.54,1.6875,0.1145,-37.75,18.875,54.0,23.3125,50.6875,-172.6875,0
1776971507.796,10.7284,1.573,-2.2841,-0.6843,1.4991,1.6774,-32.85,-8.4,35.4,9.3948,2.0614,2.162,0.1266,-0.1266,0.494,-80.85,-8.1,-19.95,6.4,0.96,-7.48,-0.3327,1.3003,-0.2269,-37.75,18.875,54.0,23.625,51.375,-172.25,0
1776971507.801,10.7284,1.573,-2.2841,-0.6843,1.4991,1.6774,-32.85,-8.4,34.35,9.3948,2.0614,2.162,0.1519,-0.2185,0.2547,-80.55,-7.5,-19.8,6.4,0.96,-7.48,-0.3327,1.3003,-0.2269,-37.75,18.875,54.0,23.625,51.375,-172.25,0
1776971507.806,9.7923,0.3065,-2.1524,-0.834,1.5631,1.7104,-32.85,-8.4,34.35,9.4236,1.5179,2.0039,0.1519,-0.2185,0.2547,-80.55,-7.5,-19.8,6.98,1.21,-6.18,-0.4254,1.7726,-0.1702,-40.75,19.1875,51.25,24.0,52.375,-171.6875,0
1776971507.811,9.7923,0.3065,-2.1524,-0.834,1.5631,1.7104,-32.85,-8.4,34.35,9.4236,1.5179,2.0039,0.0466,-0.3304,-0.0013,-81.9,-8.55,-20.25,6.98,1.21,-6.18,-0.4254,1.7726,-0.1702,-40.75,19.1875,51.25,24.0,52.375,-171.6875,0
1776971507.816,9.6558,-0.4238,-2.3032,-0.9707,1.7914,1.7235,-32.85,-8.4,34.35,9.6798,0.9026,1.9441,0.0466,-0.3304,-0.0013,-81.9,-8.55,-20.25,7.09,0.96,-5.94,-0.7396,2.2155,-0.0556,-40.75,19.1875,51.25,24.5625,53.5625,-171.0,0
1776971507.822,9.6558,-0.4238,-2.3032,-0.9707,1.7914,1.7235,-31.65,-9.9,36.75,9.6798,0.9026,1.9441,-0.2206,-0.4509,-0.2217,-80.55,-7.2,-18.6,7.09,0.96,-5.94,-1.1486,2.594,0.1113,-40.75,19.1875,51.25,25.375,55.0,-170.125,0
1776971507.827,10.3334,-1.0104,-1.8268,-1.0179,2.0067,1.6057,-31.35,-10.2,37.2,10.386,0.9816,2.0734,-0.6496,-0.4509,-0.3437,-80.55,-7.2,-18.6,6.77,1.33,-6.15,-1.1486,2.594,0.1113,-40.75,19.1875,51.25,26.3125,56.6875,-169.125,0
1776971507.836,11.6789,-1.506,-1.7909,-1.2678,2.1562,1.4789,-31.65,-9.9,36.15,11.1115,1.8962,1.5203,-0.9174,-0.4162,-0.4836,-79.65,-7.35,-18.0,6.87,0.56,-6.66,-1.4628,3.0314,0.3283,-40.75,19.1875,51.25,26.3125,56.6875,-169.125,0
1776971507.846,13.3237,-1.0894,-1.4724,-1.4722,2.2649,1.2764,-30.75,-11.25,37.65,11.485,2.5929,0.5674,-1.0131,-0.3842,-0.6827,-79.5,-6.75,-19.05,7.27,1.03,-7.09,-1.2915,3.483,0.5803,-40.75,19.1875,51.25,26.875,58.625,-168.3125,0
1776971507.851,13.3237,-1.0894,-1.4724,-1.4722,2.2649,1.2764,-30.75,-11.25,37.65,11.485,2.5929,0.5674,-1.0131,-0.3842,-0.6827,-79.5,-6.75,-19.05,7.27,1.03,-7.09,-1.2915,3.483,0.5803,-40.75,19.1875,51.25,26.125,60.625,-168.4375,0
1776971507.856,15.9119,-2.2194,-3.7062,-2.0035,2.2519,1.0997,-30.3,-11.7,37.8,13.1106,3.3232,0.1652,-1.1612,-0.3744,-0.9116,-79.5,-6.75,-19.05,5.56,7.43,-5.86,-0.1658,3.5059,0.9676,-43.6875,18.875,49.25,26.125,60.625,-168.4375,0
1776971507.861,15.9119,-2.2194,-3.7062,-2.0035,2.2519,1.0997,-30.3,-11.7,37.8,13.1106,3.3232,0.1652,-1.1612,-0.3744,-0.9116,-80.4,-7.35,-19.95,5.56,7.43,-5.86,-0.1658,3.5059,0.9676,-43.6875,18.875,49.25,26.125,60.625,-168.4375,0
1776971507.866,17.4322,-4.6591,-5.7676,-2.7059,2.2303,1.0768,-30.3,-11.7,37.8,13.3381,4.3766,-0.6632,-1.3555,-0.5391,-1.0778,-80.4,-7.35,-19.95,5.0,0.19,-6.7,-0.3458,3.8594,1.9231,-43.6875,18.875,49.25,25.0,62.9375,-169.4375,0
1776971507.871,17.4322,-4.6591,-5.7676,-2.7059,2.2303,1.0768,-30.3,-11.7,37.8,13.3381,4.3766,-0.6632,-1.3555,-0.5391,-1.0778,-80.85,-6.6,-18.75,5.0,0.19,-6.7,0.7832,6.0443,2.0551,-43.6875,18.875,49.25,22.75,66.4375,-171.0625,0
1776971507.877,18.9094,-3.5817,-8.8155,-3.8837,2.2002,1.1738,-27.0,-10.2,39.6,12.7132,4.0606,-1.4533,-1.3443,-0.8556,-1.1692,-80.85,-6.6,-18.75,3.21,-0.2,-6.09,0.7832,6.0443,2.0551,-43.6875,18.875,49.25,20.75,70.875,-172.875,0
1776971507.886,17.9374,-1.0726,-9.3374,-5.1824,2.0467,1.6545,-28.05,-13.65,40.05,10.8433,2.9688,-2.3655,-1.1181,-1.0629,-1.3129,-80.55,-6.45,-19.35,12.56,2.12,-5.25,0.6447,7.7296,2.0988,-43.6875,18.875,49.25,20.75,70.875,-172.875,0
1776971507.896,15.3492,2.5474,0.8882,-6.4782,1.0882,1.7158,-27.75,-12.9,39.0,9.4403,3.3519,-0.9481,-0.9332,-1.4336,-1.6345,-79.65,-5.85,-18.45,16.95,4.81,-6.51,0.5334,8.1572,1.5512,-43.6875,18.875,49.25,19.25,75.4375,-174.3125,0
1776971507.901,15.3492,2.5474,0.8882,-6.4782,1.0882,1.7158,-27.75,-12.9,39.0,9.4403,3.3519,-0.9481,-0.9332,-1.4336,-1.6345,-78.75,-4.8,-19.8,16.95,4.81,-6.51,0.5334,8.1572,1.5512,-43.6875,18.875,49.25,19.25,75.4375,-174.3125,0
1776971507.906,17.9254,7.9009,5.3463,-7.446,0.6374,1.5196,-27.75,-13.65,34.95,7.6136,2.8323,1.7119,-0.5164,-1.4112,-2.0816,-78.75,-4.8,-19.8,14.35,5.21,-8.88,-0.2389,8.2161,1.3025,-51.0,18.5,41.375,18.5625,80.0625,-175.6875,0
1776971507.911,17.9254,7.9009,5.3463,-6.1798,-0.0837,1.6046,-27.75,-13.65,34.95,8.9735,0.5387,-0.2825,-0.5164,-1.4112,-2.0816,-80.55,-3.6,-19.35,14.35,5.21,-8.88,-0.2389,8.2161,1.3025,-51.0,18.5,41.375,18.5625,80.0625,-175.6875,0
1776971507.916,18.761,7.7548,0.1125,-6.1798,-0.0837,1.6046,-26.25,-14.7,35.7,8.9735,0.5387,-0.2825,-0.6811,-1.34,-2.5269,-80.55,-3.6,-19.35,24.82,4.42,-11.04,-1.3908,9.3277,1.6002,-51.0,18.5,41.375,18.5625,85.25,179.9375,0
1776971507.924,18.5191,5.4827,-0.5794,-2.9116,0.1649,0.9907,-26.25,-14.7,35.7,9.7899,-0.5866,-2.0087,-1.3067,-1.2971,-2.9814,-80.55,-3.6,-19.35,30.46,8.23,-11.4,-2.1915,10.2364,2.2078,-51.0,18.5,41.375,18.625,88.4375,1.1875,0
1776971507.929,18.5191,5.4827,-0.5794,-2.9116,0.1649,0.9907,-26.25,-14.7,35.7,9.7899,-0.5866,-2.0087,-1.3067,-1.2971,-2.9814,-78.45,0.0,-18.45,30.46,8.23,-11.4,-2.1915,10.2364,2.2078,-51.0,18.5,41.375,18.0625,83.0625,27.0,0
1776971507.937,19.3595,4.2593,2.7007,-1.2971,0.8444,0.9662,-27.6,-15.75,34.5,11.88,-1.2043,-1.2713,-1.5996,-1.1298,-3.3087,-78.45,0.0,-18.45,36.0,6.24,-18.68,-2.0584,9.4619,3.2976,-51.0,18.5,41.375,17.4375,78.25,28.25,0
1776971507.947,15.5695,3.2178,1.7957,-0.586,1.4655,1.1946,-26.85,-16.8,34.5,15.4306,-0.6201,-0.4525,-1.5918,-1.1029,-3.4387,-78.45,0.0,-18.45,22.27,7.38,-15.32,-2.6845,7.7274,3.9826,-51.0,18.5,41.375,17.4375,78.25,28.25,0
1776971507.951,13.8337,0.4956,1.9848,0.3509,2.0584,1.109,-26.85,-16.8,34.5,17.7482,-0.2227,-0.3448,-1.1812,-1.108,-3.3811,-80.1,1.95,-19.95,22.27,7.38,-15.32,-2.6845,7.7274,3.9826,-51.0,18.5,41.375,17.0625,74.5,31.1875,0
1776971507.956,13.8337,0.4956,1.9848,0.3509,2.0584,1.109,-26.1,-17.55,36.6,17.7482,-0.2227,-0.3448,-1.1812,-1.108,-3.3811,-80.1,1.95,-19.95,14.56,5.89,-14.71,-3.1743,5.6527,3.8005,-60.1875,23.5625,19.0625,17.0625,74.5,31.1875,0
1776971507.961,12.7395,-2.7533,3.8092,1.6611,2.0709,0.9792,-26.1,-17.55,36.6,16.532,0.0575,-0.4501,-0.906,-0.8458,-3.2831,-78.3,3.6,-20.55,14.56,5.89,-14.71,-3.1743,5.6527,3.8005,-60.1875,23.5625,19.0625,17.125,71.75,34.375,0
1776971507.966,12.7395,-2.7533,3.8092,1.6611,2.0709,0.9792,-25.95,-16.95,37.2,16.532,0.0575,-0.4501,-0.906,-0.8458,-3.2831,-78.3,3.6,-20.55,3.87,6.54,-13.18,-3.7786,3.8964,3.2103,-60.1875,23.5625,19.0625,17.125,71.75,34.375,0
1776971507.973,12.2799,-6.4643,4.2186,1.7421,2.2346,0.721,-25.95,-16.95,37.2,14.2647,1.2689,-0.407,-0.7655,-0.4122,-3.2495,-78.3,5.55,-20.85,-1.01,1.13,5.47,-2.8198,3.6597,4.1779,-60.1875,23.5625,19.0625,16.3125,68.6875,37.8125,0
1776971507.977,12.2799,-6.4643,4.2186,1.7421,2.2346,0.721,-25.95,-16.95,37.2,14.2647,1.2689,-0.407,-0.7655,-0.4122,-3.2495,-78.3,5.55,-20.85,-1.01,1.13,5.47,-2.8198,3.6597,4.1779,-60.1875,23.5625,19.0625,14.875,63.75,36.625,0
1776971507.987,10.4244,-11.6526,8.3773,2.4456,2.7091,0.2286,-25.95,-16.95,37.2,12.8449,1.9752,-1.2282,-0.7125,-0.0272,-3.2487,-76.95,6.15,-20.7,39.37,11.29,-35.43,-0.6512,7.8158,4.4495,-60.1875,23.5625,19.0625,14.375,61.125,37.1875,0
1776971507.997,7.7452,-11.8752,7.8243,1.675,2.5093,0.0967,-24.75,-17.4,43.2,12.6534,2.2362,-2.2817,-0.6646,0.0877,-3.2562,-76.5,9.15,-20.1,30.97,11.07,-26.65,-1.4628,4.0099,2.6987,-60.1875,23.5625,19.0625,14.375,61.125,37.1875,0
1776971508.001,6.1579,-13.216,6.201,0.3906,2.6297,0.2369,-24.75,-17.4,43.2,12.6749,2.4469,-3.1268,-0.5303,0.0272,-3.3159,-77.4,9.0,-19.2,30.97,11.07,-26.65,-1.4628,4.0099,2.6987,-60.1875,23.5625,19.0625,14.4375,60.5625,38.6875,0
1776971508.007,6.1579,-13.216,6.201,0.3906,2.6297,0.2369,-23.85,-17.25,45.9,12.6749,2.4469,-3.1268,-0.5303,0.0272,-3.3159,-77.4,9.0,-19.2,22.84,13.62,-18.94,-1.6122,0.3883,1.0374,-56.5625,28.0,2.5,14.4375,60.5625,38.6875,0
1776971508.011,8.327,-9.7013,4.6615,0.1412,1.7323,0.2702,-23.85,-17.25,45.9,12.4355,2.7725,-2.8754,-0.1527,0.1372,-3.2722,-77.4,9.0,-19.2,22.84,13.62,-18.94,-1.6122,0.3883,1.0374,-56.5625,28.0,2.5,14.4375,60.5625,38.6875,0
1776971508.016,8.327,-9.7013,4.6615,0.1412,1.7323,0.2702,-25.2,-18.15,46.35,12.4355,2.7725,-2.8754,-0.1527,0.1372,-3.2722,-77.4,9.0,-19.2,11.93,9.69,-14.33,-1.4312,-1.7279,-0.2476,-56.5625,28.0,2.5,14.8125,61.375,40.375,0
1776971508.025,7.197,-8.1475,4.4197,-0.4972,1.2489,0.0069,-25.05,-18.0,45.6,11.6837,2.4493,-1.142,0.2697,0.1178,-3.2511,-75.45,11.25,-20.7,6.64,6.65,-9.32,-0.7559,-3.2507,-1.0145,-56.5625,28.0,2.5,15.25,63.125,42.25,0
1776971508.03,5.8658,-7.5346,3.3016,-0.814,0.5577,-0.3683,-25.05,-18.0,45.6,11.2575,1.5227,-0.4788,0.5508,0.0472,-3.2612,-75.45,11.25,-20.7,6.64,6.65,-9.32,-0.7559,-3.2507,-1.0145,-56.5625,28.0,2.5,15.75,65.25,44.0,0
1776971508.037,4.8147,-7.0174,2.466,-0.8058,-0.0871,-0.7506,-25.05,-18.0,45.6,11.5041,1.0582,-0.5531,0.8074,0.0043,-3.2444,-75.45,11.25,-20.7,1.3,4.56,-6.0,-0.1833,-3.7874,-1.5599,-56.5625,28.0,2.5,16.3125,67.5,45.5625,0
1776971508.047,3.644,-5.8921,2.2338,-0.5756,-0.5353,-1.1191,-25.2,-16.65,44.25,10.4722,0.2466,-0.3352,0.8647,-0.1506,-3.2586,-74.55,17.7,-20.1,-1.82,0.76,-3.15,0.0916,-3.7634,-1.9722,-56.5625,28.0,2.5,16.3125,67.5,45.5625,0
1776971508.052,3.644,-5.8921,2.2338,-0.5756,-0.5353,-1.1191,-25.95,-16.65,44.25,10.4722,0.2466,-0.3352,0.8647,-0.1506,-3.2586,-73.8,18.45,-22.35,-1.82,0.76,-3.15,0.0916,-3.7634,-1.9722,-56.5625,28.0,2.5,16.3125,67.5,45.5625,0
1776971508.057,2.2338,-6.0956,2.3272,-0.2161,-0.8593,-1.5407,-25.95,-13.95,45.0,10.2208,0.4166,-0.2777,0.842,-0.1588,-3.2141,-73.8,18.45,-22.35,-0.78,-0.27,-3.75,0.1167,-3.3216,-2.3027,-47.75,27.25,-2.0,17.1875,69.6875,46.625,0
1776971508.062,2.2338,-6.0956,2.3272,-0.2161,-0.8593,-1.5407,-27.0,-13.95,45.0,10.2208,0.4166,-0.2777,0.842,-0.1588,-3.2141,-72.9,19.05,-22.2,-0.78,-0.27,-3.75,0.1167,-3.3216,-2.3027,-47.75,27.25,-2.0,17.1875,69.6875,46.625,0
1776971508.067,1.8052,-6.7564,2.5091,0.1617,-0.9926,-2.0075,-27.0,-13.95,45.0,9.9,0.7446,-0.4166,0.6518,-0.2206,-3.1416,-72.9,19.05,-22.2,0.13,-0.75,-4.26,0.1134,-2.9082,-2.5536,-47.75,27.25,-2.0,18.1875,71.8125,47.1875,0
1776971508.073,1.8052,-6.7564,2.5091,0.1617,-0.9926,-2.0075,-27.3,-14.4,43.5,9.9,0.7446,-0.4166,0.6518,-0.2206,-3.1416,-73.05,21.6,-21.9,1.07,-1.14,-4.97,0.2596,-2.7347,-2.6278,-47.75,27.25,-2.0,19.3125,73.9375,47.4375,0
1776971508.078,2.4205,-7.5705,2.6887,0.4903,-1.0981,-2.4341,-27.3,-14.4,43.5,9.7659,2.2482,-0.5842,0.4879,-0.3054,-3.0678,-73.05,21.6,-21.9,1.07,-1.14,-4.97,0.2596,-2.7347,-2.6278,-47.75,27.25,-2.0,20.125,76.0,48.0,0
1776971508.087,3.4644,-7.7213,2.4541,0.7389,-1.311,-2.7744,-28.8,-12.9,43.5,9.7612,1.2163,-0.6752,0.3696,-0.4157,-2.9852,-73.05,21.6,-21.9,2.28,-2.7,-6.21,0.5694,-2.822,-2.4729,-47.75,27.25,-2.0,20.6875,78.0,49.6875,0
1776971508.097,3.2992,-8.1618,2.5833,0.8407,-1.5876,-3.0105,-28.8,-12.9,43.5,9.3637,0.7781,-0.4764,0.2377,-0.486,-2.8805,-70.35,22.05,-22.65,3.0,-4.42,-7.31,0.8574,-3.0674,-2.1435,-47.75,27.25,-2.0,20.6875,78.0,49.6875,0
1776971508.102,3.2992,-8.1618,2.5833,0.8407,-1.5876,-3.0105,-32.25,-10.05,40.5,9.3637,0.7781,-0.4764,0.2377,-0.486,-2.8805,-70.35,22.05,-22.65,3.0,-4.42,-7.31,0.8574,-3.0674,-2.1435,-47.75,27.25,-2.0,21.0,79.9375,53.9375,0
1776971508.107,3.3686,-8.9399,2.2194,0.6606,-1.6928,-3.1115,-32.25,-10.05,40.5,9.3972,0.1676,-0.1437,0.1623,-0.5041,-2.7206,-70.35,22.05,-22.65,3.74,-5.95,-8.2,0.7887,-3.4503,-1.753,-42.875,17.875,-3.25,21.0,79.9375,53.9375,0
1776971508.112,3.3686,-8.9399,2.2194,0.6606,-1.6928,-3.1115,-32.4,-6.45,40.35,9.3972,0.1676,-0.1437,0.1623,-0.5041,-2.7206,-68.25,25.35,-24.3,3.74,-5.95,-8.2,0.7887,-3.4503,-1.753,-42.875,17.875,-3.25,21.375,81.8125,63.0625,0
1776971508.117,3.7709,-8.8514,2.3032,0.5553,-1.8911,-3.1538,-32.4,-6.45,40.35,9.3589,0.6991,-0.0862,0.3131,-0.6432,-2.5564,-68.25,25.35,-24.3,5.49,-7.08,-9.76,0.2574,-4.0001,-1.4366,-42.875,17.875,-3.25,21.375,81.8125,63.0625,0
1776971508.126,3.4261,-8.3869,2.8635,0.3555,-2.0784,-3.189,-32.55,-5.55,38.7,8.26,0.565,-0.4477,0.684,-0.7045,-2.4285,-69.0,26.1,-25.8,5.99,-6.79,-9.79,-0.4778,-4.5793,-1.2228,-42.875,17.875,-3.25,22.0625,83.25,6.5625,0
1776971508.133,3.4261,-8.3869,2.8635,0.3555,-2.0784,-3.189,-33.15,-4.65,37.5,8.0014,0.8906,-0.3376,0.684,-0.7045,-2.4285,-68.25,27.0,-25.8,5.99,-6.79,-9.79,-1.2992,-4.9982,-1.1017,-42.875,17.875,-3.25,23.0625,83.75,174.0,0
1776971508.138,3.0837,-7.9104,2.7485,0.0738,-2.3321,-3.2157,-33.15,-4.65,37.5,8.0014,0.8906,-0.3376,0.8436,-0.7218,-2.2348,-68.25,27.0,-25.8,6.34,-5.85,-9.49,-1.2992,-4.9982,-1.1017,-42.875,17.875,-3.25,24.4375,82.8125,131.875,0
1776971508.147,3.1292,-7.2544,2.5881,-0.1583,-2.6172,-3.2354,-34.2,-3.15,38.55,7.7069,1.2186,-0.2586,0.931,-0.7272,-2.031,-66.75,27.75,-27.0,5.75,-3.48,-7.72,-1.8337,-5.404,-1.081,-42.875,17.875,-3.25,24.4375,82.8125,131.875,0
1776971508.152,3.1292,-7.2544,2.5881,-0.1583,-2.6172,-3.2354,-34.2,-3.15,38.55,7.2401,1.6257,-0.5914,0.931,-0.7272,-2.031,-66.0,27.75,-28.05,5.75,-3.48,-7.72,-1.8337,-5.404,-1.081,-42.875,17.875,-3.25,24.4375,82.8125,131.875,0
1776971508.157,2.9616,-5.8658,2.6839,-0.2505,-2.9319,-3.3294,-34.2,-3.15,38.55,7.2401,1.6257,-0.5914,0.9734,-0.7914,-1.877,-66.0,27.75,-28.05,5.53,-2.63,-6.98,-2.0104,-5.693,-1.1105,-54.375,12.875,-11.25,26.0,80.6875,150.125,0
1776971508.162,2.9616,-5.8658,2.6839,-0.2505,-2.9319,-3.3294,-37.05,0.0,33.75,6.79,1.8435,0.0407,0.8847,-0.7477,-1.7118,-68.1,29.85,-29.4,5.53,-2.63,-6.98,-2.0104,-5.693,-1.1105,-54.375,12.875,-11.25,26.0,80.6875,150.125,0
1776971508.167,2.6839,-5.375,2.557,-0.2457,-3.1688,-3.4653,-37.05,0.0,33.75,6.79,1.8435,0.0407,0.8847,-0.7477,-1.7118,-68.1,29.85,-29.4,5.69,-2.03,-6.76,-1.9199,-5.8196,-1.1661,-54.375,12.875,-11.25,27.625,78.0,161.4375,0
1776971508.172,2.6839,-5.375,2.557,-0.2457,-3.1688,-3.4653,-35.1,2.25,32.7,6.4955,1.5443,0.4214,0.8082,-0.5958,-1.456,-68.1,29.85,-29.4,5.69,-2.03,-6.76,-1.7246,-5.8556,-1.2523,-54.375,12.875,-11.25,29.25,75.0625,168.6875,0
1776971508.178,2.5929,-5.1116,2.9832,-0.1442,-3.4275,-3.6353,-35.1,2.25,32.7,6.4955,1.5443,0.4214,0.8082,-0.5958,-1.456,-68.1,29.85,-29.4,6.24,-1.75,-6.69,-1.7246,-5.8556,-1.2523,-54.375,12.875,-11.25,30.9375,72.0,173.75,0
1776971508.187,2.7054,-5.1715,3.3926,0.0448,-3.6487,-3.7646,-37.2,2.7,30.0,6.4356,1.3288,0.3448,0.7698,-0.5119,-1.198,-65.25,30.9,-29.85,8.44,-0.18,-7.16,-1.5141,-5.8305,-1.3854,-54.375,12.875,-11.25,30.9375,72.0,173.75,0
1776971508.197,2.9425,-5.9017,4.3,0.1188,-3.787,-3.8101,-36.3,6.0,27.75,6.189,1.4078,0.3041,0.6976,-0.3989,-0.9326,-65.25,30.9,-29.85,9.35,-2.18,-9.02,-1.2195,-5.8479,-1.5424,-54.375,12.875,-11.25,32.625,68.8125,177.5,0
1776971508.202,3.2872,-5.8849,4.6926,0.1034,-3.7585,-3.8054,-36.3,6.0,27.75,6.0334,1.2977,0.2562,0.6592,-0.3064,-0.6486,-64.5,30.0,-32.1,9.35,-2.18,-9.02,-1.2195,-5.8479,-1.5424,-54.375,12.875,-11.25,34.625,65.5,-179.3125,0
1776971508.207,3.2872,-5.8849,4.6926,0.1034,-3.7585,-3.8054,-36.3,6.0,27.75,6.0334,1.2977,0.2562,0.6592,-0.3064,-0.6486,-64.5,30.0,-32.1,11.12,-3.69,-10.18,-1.2403,-5.9516,-1.7431,-75.0,6.75,24.5,34.625,65.5,-179.3125,0
1776971508.212,3.9528,-4.8794,4.4412,0.1375,-3.9309,-3.787,-35.7,7.65,22.95,5.8658,0.9984,0.1915,0.6121,-0.2166,-0.356,-63.45,32.25,-31.65,11.12,-3.69,-10.18,-1.2403,-5.9516,-1.7431,-75.0,6.75,24.5,37.3125,62.0625,-176.375,0
1776971508.217,3.9528,-4.8794,4.4412,0.1375,-3.9309,-3.787,-35.7,7.65,22.95,5.8658,0.9984,0.1915,0.6121,-0.2166,-0.356,-63.45,32.25,-31.65,10.76,-2.56,-9.07,-1.6602,-6.1316,-2.0202,-75.0,6.75,24.5,37.3125,62.0625,-176.375,0
1776971508.224,5.8059,-3.3782,3.5147,-0.1649,-3.5988,-3.8525,-35.7,9.45,20.7,5.6599,0.8643,-0.0694,0.554,-0.122,-0.0658,-63.45,30.6,-31.2,10.77,-1.97,-8.52,-2.0322,-6.1719,-2.1402,-75.0,6.75,24.5,40.75,58.5625,-173.6875,0
1776971508.229,5.8059,-3.3782,3.5147,-0.1649,-3.5988,-3.8525,-35.7,12.15,18.3,5.3079,0.8978,-0.237,0.554,-0.122,-0.0658,-63.45,30.6,-31.2,10.77,-1.97,-8.52,-2.0322,-6.1719,-2.1402,-75.0,6.75,24.5,44.5625,55.125,-171.375,0
1776971508.237,6.6463,-4.1539,1.7214,-0.1713,-3.9615,-4.2506,-35.7,12.15,18.3,5.3079,0.8978,-0.237,0.4823,-0.028,0.1905,-64.05,30.9,-33.3,11.65,-1.22,-7.95,-2.1249,-6.0192,-2.1293,-75.0,6.75,24.5,48.75,51.75,-169.375,0
1776971508.247,8.1331,-2.9616,0.9673,0.8849,-4.0316,-4.5784,-36.0,13.65,16.5,4.3096,0.8523,-0.4717,0.3616,0.1748,0.4173,-64.65,31.8,-33.0,15.75,0.64,-9.78,-2.0279,-5.7847,-2.1751,-75.0,6.75,24.5,48.75,51.75,-169.375,0
1776971508.252,9.2368,-3.0813,3.0215,0.9686,-4.512,-4.7308,-34.8,15.3,13.5,3.3734,1.0391,-0.5315,0.2433,0.5084,0.643,-66.9,31.8,-33.75,15.75,0.64,-9.78,-2.0279,-5.7847,-2.1751,-75.0,6.75,24.5,53.3125,48.5,-167.5,0
1776971508.257,9.2368,-3.0813,3.0215,0.9686,-4.512,-4.7308,-34.8,15.3,13.5,1.9513,0.9888,-0.6464,0.2433,0.5084,0.643,-66.9,31.8,-33.75,18.96,1.75,-11.73,-1.9144,-5.4782,-2.3486,-53.75,-5.6875,54.375,53.3125,48.5,-167.5,0
1776971508.262,11.4156,-2.478,3.1532,0.9529,-4.3002,-4.5333,-34.8,15.3,13.5,1.9513,0.9888,-0.6464,-0.1727,1.2875,0.9409,-66.9,31.8,-33.75,18.96,1.75,-11.73,-1.9144,-5.4782,-2.3486,-53.75,-5.6875,54.375,58.125,45.3125,-165.8125,0
1776971508.267,11.4156,-2.478,3.1532,0.9529,-4.3002,-4.5333,-34.8,15.3,13.5,2.7174,0.8811,-0.9337,-0.1727,1.2875,0.9409,-66.9,31.8,-33.75,22.19,2.51,-13.38,-1.6166,-5.3483,-2.6289,-53.75,-5.6875,54.375,58.125,45.3125,-165.8125,0
1776971508.272,12.6007,-1.2474,3.5267,1.0264,-3.4869,-3.8586,-31.35,19.2,8.7,2.7174,0.8811,-0.9337,-0.7874,2.4896,1.3435,-66.3,32.85,-36.9,22.19,2.51,-13.38,-1.1726,-5.5294,-2.9092,-53.75,-5.6875,54.375,29.875,41.9375,-164.4375,0
1776971508.278,12.6007,-1.2474,3.5267,1.0264,-3.4869,-3.8586,-29.55,18.9,7.95,9.6702,3.2441,-2.0686,-0.1929,1.433,1.7869,-66.3,32.85,-36.9,24.7,1.97,-14.36,-1.1726,-5.5294,-2.9092,-53.75,-5.6875,54.375,28.75,38.3125,-163.375,0
1776971508.287,14.7124,1.4988,2.3128,1.2476,-2.7382,-2.9649,-29.55,18.9,7.95,7.3143,6.4524,-2.9042,0.3629,0.429,2.1288,-67.2,32.85,-36.6,25.58,-1.4,-11.82,-0.7821,-5.8828,-3.1034,-53.75,-5.6875,54.375,28.75,38.3125,-163.375,0
1776971508.297,13.6254,1.5036,4.1779,1.5484,-3.2447,-2.4067,-27.9,21.0,6.75,7.1299,9.8737,-3.2705,0.8396,0.0514,2.286,-67.95,31.65,-35.1,24.7,-3.21,-9.46,-0.5432,-6.1185,-3.1252,-53.75,-5.6875,54.375,27.5625,34.5625,-162.5625,0
1776971508.302,12.4882,-0.5818,3.7158,1.5873,-3.8648,-2.1301,-27.9,21.0,6.75,7.1299,9.8737,-3.2705,0.8396,0.0514,2.286,-67.95,31.65,-35.1,24.7,-3.21,-9.46,-0.5432,-6.1185,-3.1252,-53.75,-5.6875,54.375,27.5625,34.5625,-162.5625,0
1776971508.307,12.4882,-0.5818,3.7158,1.5873,-3.8648,-2.1301,-26.25,20.4,4.05,5.1236,11.2192,-3.4548,1.0504,0.3096,2.2841,-68.25,30.0,-36.15,24.6,-4.73,-7.57,-0.4287,-6.0039,-2.966,-20.25,-16.375,69.25,26.4375,30.875,-161.9375,0
1776971508.312,12.22,-1.6999,2.9113,1.6611,-4.0646,-2.1349,-26.25,20.4,4.05,5.1236,11.2192,-3.4548,1.0504,0.3096,2.2841,-69.75,30.9,-35.55,24.6,-4.73,-7.57,-0.4287,-6.0039,-2.966,-20.25,-16.375,69.25,26.4375,30.875,-161.9375,0
1776971508.317,12.22,-1.6999,2.9113,1.61,-3.9468,-1.9036,-26.25,20.4,4.05,7.1826,10.6111,-2.7725,0.8993,0.7171,2.2679,-69.75,30.9,-35.55,26.05,-4.35,-3.99,-0.3502,-5.7007,-2.6474,-20.25,-16.375,69.25,25.5,27.4375,-161.5625,0
1776971508.326,11.6071,-0.2346,1.2378,1.61,-3.9468,-1.9036,-26.25,20.4,4.05,9.2727,9.6678,-2.0135,0.911,0.6757,2.209,-70.2,28.5,-35.55,26.7,-2.53,-1.44,-0.264,-5.4051,-2.1871,-20.25,-16.375,69.25,24.8125,24.1875,-161.3125,0
1776971508.33,11.2288,-0.4741,-1.3408,1.3867,-3.4155,-1.7403,-22.05,21.0,0.0,9.2727,9.6678,-2.0135,0.911,0.6757,2.209,-70.2,28.5,-35.55,26.7,-2.53,-1.44,-0.264,-5.4051,-2.1871,-20.25,-16.375,69.25,24.3125,21.1875,-161.3125,0
1776971508.338,10.647,-2.7892,-2.4038,0.607,-2.7422,-1.5002,-21.75,20.25,-1.05,9.3206,9.663,-1.6041,0.4839,0.9068,2.0552,-70.2,28.5,-35.55,26.76,-1.16,2.0,-0.036,-5.1967,-1.6602,-20.25,-16.375,69.25,24.0625,18.4375,-161.5625,0
1776971508.348,8.3797,-0.4669,-2.478,-0.0781,-1.6721,-1.0573,-21.75,21.75,-1.35,10.671,9.7683,-1.0439,-0.0179,0.8897,1.789,-72.3,28.65,-35.7,26.06,-0.39,6.6,0.2782,-4.7309,-1.1923,-20.25,-16.375,69.25,24.0625,18.4375,-161.5625,0
1776971508.352,8.3797,-0.4669,-2.478,-0.0781,-1.6721,-1.0573,-21.75,21.75,-1.35,10.671,9.7683,-1.0439,-0.0179,0.8897,1.789,-72.3,28.65,-35.7,26.06,-0.39,6.6,0.2782,-4.7309,-1.1923,-20.25,-16.375,69.25,23.625,16.125,-161.875,0
1776971508.357,5.8299,3.3615,-3.5626,-0.4676,-0.5103,-0.4996,-19.5,21.75,-0.6,11.3126,10.0317,-2.4349,-0.2878,0.7016,1.3931,-72.3,28.65,-35.7,18.45,-1.59,14.37,0.6316,-4.0033,-1.2665,14.1875,-0.1875,45.1875,23.625,16.125,-161.875,0
1776971508.362,5.8299,3.3615,-3.5626,-0.4676,-0.5103,-0.4996,-19.5,21.75,-0.6,11.3126,10.0317,-2.4349,-0.2878,0.7016,1.3931,-72.3,28.65,-35.7,18.45,-1.59,14.37,0.6316,-4.0033,-1.2665,14.1875,-0.1875,45.1875,22.75,14.875,-162.4375,0
1776971508.367,3.201,6.4955,-5.1092,-0.2753,0.397,0.1711,-19.5,21.75,-0.6,10.5225,10.386,-4.2737,-0.4487,0.4514,0.8623,-73.35,27.15,-36.75,22.47,-4.14,17.48,1.261,-1.8413,-1.7071,14.1875,-0.1875,45.1875,22.75,14.875,-162.4375,0
1776971508.374,3.201,6.4955,-5.1092,-0.2753,0.397,0.1711,-19.5,21.75,-0.6,9.991,10.8816,-4.4987,-0.1703,-0.016,0.4005,-72.6,27.9,-36.75,29.03,-7.47,22.23,1.3406,0.1625,-1.8391,14.1875,-0.1875,45.1875,21.625,14.6875,-162.9375,0
1776971508.378,3.055,9.4619,-1.8651,0.214,1.376,0.7786,-19.5,21.75,-0.6,9.991,10.8816,-4.4987,-0.1703,-0.016,0.4005,-72.6,27.9,-36.75,29.03,-7.47,22.23,1.3406,0.1625,-1.8391,14.1875,-0.1875,45.1875,20.6875,14.5,-162.6875,0
1776971508.388,5.375,8.7556,-1.1013,0.4351,2.1181,1.2689,-19.2,20.55,-1.05,8.8155,10.8338,-3.3471,-0.1844,-0.1119,0.0733,-72.0,27.0,-35.1,17.11,7.89,25.92,-0.0164,0.1931,-1.6155,14.1875,-0.1875,45.1875,20.0,15.3125,-163.125,0
1776971508.398,7.9057,9.3877,1.2713,1.3467,2.4056,1.5892,-21.9,18.15,-0.75,9.505,10.2639,-1.9417,-0.5684,-0.226,-0.1695,-72.9,26.55,-33.3,18.79,3.1,34.97,1.1661,1.8566,-0.853,14.1875,-0.1875,45.1875,20.0,15.3125,-163.125,0
1776971508.402,7.9057,9.3877,1.2713,1.3467,2.4056,1.5892,-21.9,18.15,-0.75,11.6861,8.181,1.4078,-0.9886,-0.3195,-0.0989,-72.9,26.55,-33.3,18.79,3.1,34.97,1.1661,1.8566,-0.853,14.1875,-0.1875,45.1875,20.0,15.3125,-163.125,0
1776971508.407,14.619,5.2289,-14.0588,0.7738,2.8815,1.3832,-21.6,16.65,1.2,11.6861,8.181,1.4078,-0.9886,-0.3195,-0.0989,-73.05,27.45,-33.75,6.63,-8.43,18.56,3.087,3.5986,0.3349,10.0,8.5625,41.0,19.625,17.3125,-164.6875,0
1776971508.412,14.619,5.2289,-14.0588,0.7738,2.8815,1.3832,-21.6,16.65,1.2,14.6238,5.6024,2.6576,-1.0461,-0.2649,0.1724,-73.05,27.45,-33.75,6.63,-8.43,18.56,3.087,3.5986,0.3349,10.0,8.5625,41.0,19.625,17.3125,-164.6875,0
1776971508.417,20.4345,-3.0933,-17.7674,1.796,1.44,0.595,-23.25,16.8,0.3,14.6238,5.6024,2.6576,-1.0461,-0.2649,0.1724,-72.3,24.75,-32.4,4.08,-9.24,-39.07,2.3278,1.741,0.8956,10.0,8.5625,41.0,19.8125,18.375,-166.0625,0
1776971508.427,14.8991,-3.553,-6.6679,2.8847,1.1037,0.1625,-23.25,16.8,0.3,13.6469,2.9688,0.1341,-0.6025,-0.1314,0.4836,-72.3,24.75,-32.4,3.27,-9.46,-8.44,2.1675,1.8991,-0.5094,10.0,8.5625,41.0,19.25,19.3125,-167.125,0
1776971508.437,15.6964,-4.9033,-3.4453,2.355,1.7237,0.4247,-21.3,14.25,2.1,14.6645,3.7948,-6.2153,0.3424,-0.1596,0.6757,-72.45,24.6,-31.8,10.3,-8.64,-5.15,1.8053,4.3524,-0.8694,10.0,8.5625,41.0,18.3125,21.5625,-167.75,0
1776971508.447,14.2407,-4.774,-1.3192,1.162,1.9223,1.1141,-23.4,13.65,2.25,14.5137,7.2401,-5.4468,0.736,-0.158,0.643,-72.45,24.6,-31.8,16.34,-12.7,-11.06,0.6861,5.164,-0.204,10.0,8.5625,41.0,17.8125,24.375,-167.8125,0
1776971508.452,14.2407,-4.774,-1.3192,1.162,1.9223,1.1141,-23.4,13.65,2.25,13.5296,7.0006,-1.1109,0.8356,-0.0426,0.2236,-72.45,24.6,-31.8,16.34,-12.7,-11.06,0.6861,5.164,-0.204,10.0,8.5625,41.0,17.8125,24.375,-167.8125,0
1776971508.456,15.1673,-2.4229,7.4555,0.655,2.2561,1.594,-23.25,11.55,3.15,13.5296,7.0006,-1.1109,0.8356,-0.0426,0.2236,-71.1,22.05,-31.65,25.26,-7.72,-19.74,0.5694,4.4931,-0.012,2.0,15.5,40.5,17.5,26.8125,-167.875,0
1776971508.461,15.1673,-2.4229,7.4555,0.655,2.2561,1.594,-23.25,11.55,3.15,11.7986,3.1412,1.8603,0.5431,0.0274,-0.2289,-71.1,22.05,-31.65,25.26,-7.72,-19.74,0.5694,4.4931,-0.012,2.0,15.5,40.5,17.5,26.8125,-167.875,0
1776971508.466,13.3429,1.5945,9.7971,0.518,2.4749,1.732,-24.6,11.25,5.25,11.7986,3.1412,1.8603,0.5431,0.0274,-0.2289,-71.25,22.2,-30.6,27.3,10.5,-25.28,0.3087,3.4885,0.384,2.0,15.5,40.5,17.4375,28.75,-167.9375,0
1776971508.471,13.3429,1.5945,9.7971,0.518,2.4749,1.732,-24.6,11.25,5.25,8.6766,-4.865,5.1044,-0.323,0.2902,-0.3957,-71.25,22.2,-30.6,27.3,10.5,-25.28,0.3087,3.4885,0.384,2.0,15.5,40.5,17.375,30.8125,-168.75,0
1776971508.478,10.0604,3.8523,7.9416,1.1879,1.9311,1.4301,-25.65,9.3,6.3,4.8985,-9.6007,4.9823,-0.323,0.2902,-0.3957,-70.95,22.95,-30.3,15.24,18.06,-3.32,1.5272,3.6903,0.5465,2.0,15.5,40.5,17.25,32.5625,-169.4375,0
1776971508.488,4.9273,5.1691,3.6296,2.2258,1.1471,0.9395,-25.65,9.3,6.3,5.6719,-7.75,3.0646,-0.5641,0.4503,0.057,-72.6,20.85,-28.95,8.46,-3.46,-11.1,1.3526,3.2027,0.4691,2.0,15.5,40.5,17.25,32.5625,-169.4375,0
1776971508.498,4.944,0.5076,5.5952,3.7419,0.8657,0.5263,-25.5,6.15,6.15,8.9112,-1.9393,1.8076,-0.7576,0.5105,0.7962,-71.55,20.4,-28.95,8.52,-6.46,-11.18,1.4541,2.7031,0.5836,2.0,15.5,40.5,17.1875,34.125,-170.25,0
1776971508.503,5.5617,-2.2027,5.1212,4.6309,0.983,0.1748,-25.5,6.15,6.15,8.9112,-1.9393,1.8076,-1.4336,0.5865,1.2918,-71.55,20.4,-28.95,8.52,-6.46,-11.18,1.4541,2.7031,0.5836,-7.875,23.5,39.5625,17.1875,35.5625,-171.0,0
1776971508.508,5.5617,-2.2027,5.1212,4.6309,0.983,0.1748,-24.75,5.4,8.7,10.9942,2.3248,2.6767,-1.5537,0.5574,1.5735,-72.6,20.4,-28.95,8.1,0.29,-7.95,1.2512,2.5798,0.5498,-7.875,23.5,39.5625,17.1875,35.5625,-171.0,0
1776971508.513,6.6272,-5.351,6.1603,4.2671,1.3193,0.1716,-24.75,5.4,8.7,10.9942,2.3248,2.6767,-1.5537,0.5574,1.5735,-72.6,20.4,-28.95,8.1,0.29,-7.95,1.2512,2.5798,0.5498,-7.875,23.5,39.5625,17.25,36.8125,-171.5625,0
1776971508.518,6.6272,-5.351,6.1603,4.2671,1.3193,0.1716,-25.95,3.9,7.95,10.7236,3.9049,4.2018,-0.8633,0.6654,1.6246,-72.6,20.4,-28.95,11.03,-0.99,-10.42,0.8727,2.1893,0.5421,-7.875,23.5,39.5625,17.25,36.8125,-171.5625,0
1776971508.527,11.4467,-6.1459,6.5697,3.277,2.1554,0.2585,-26.7,3.15,10.8,11.224,3.79,3.4692,0.0448,0.7125,1.5676,-72.45,21.9,-28.5,11.36,-7.43,-10.55,0.589,1.717,0.4658,-7.875,23.5,39.5625,17.3125,37.8125,-172.0,0
1776971508.535,14.8488,-7.8721,7.1012,1.2169,2.1615,0.6323,-26.7,3.15,10.8,11.224,3.79,3.4692,0.0448,0.7125,1.5676,-72.45,21.9,-28.5,7.35,-1.2,-8.78,0.2465,1.1705,0.3327,-7.875,23.5,39.5625,17.4375,38.5,-172.1875,0
1776971508.54,15.864,-8.0302,4.8387,-1.5444,2.2015,0.6896,-26.7,3.15,10.8,9.7133,2.0016,1.3192,0.7839,0.6686,1.4853,-72.45,21.9,-28.5,7.35,-1.2,-8.78,0.2465,1.1705,0.3327,-7.875,23.5,39.5625,17.5,38.875,-172.3125,0
1776971508.548,15.864,-8.0302,4.8387,-1.5444,2.2015,0.6896,-26.7,3.15,10.8,9.3422,0.3065,0.7805,0.9649,0.6872,1.4376,-74.85,18.45,-28.2,6.4,2.57,-7.44,0.1276,0.6774,0.2269,-7.875,23.5,39.5625,17.5,38.875,-172.3125,0
1776971508.553,12.6079,-4.2641,1.9944,-2.9276,1.7355,0.7101,-28.5,3.9,12.6,9.3422,0.3065,0.7805,0.9649,0.6872,1.4376,-74.85,18.45,-28.2,6.4,2.57,-7.44,0.1276,0.6774,0.2269,-7.875,23.5,39.5625,17.5625,39.125,-172.5,0
1776971508.558,12.6079,-4.2641,1.9944,-2.9276,1.7355,0.7101,-28.5,3.9,12.6,9.0621,-0.7685,0.2179,0.8873,0.7112,1.4448,-74.55,18.15,-28.95,6.94,-0.59,-8.06,0.1734,0.4614,0.1865,-14.1875,27.875,36.5625,17.5625,39.125,-172.5,0
1776971508.563,10.6063,-5.7269,0.7805,-3.6345,1.5575,0.9033,-26.7,4.65,13.65,9.0621,-0.7685,0.2179,0.8873,0.7112,1.4448,-74.55,18.15,-28.95,6.94,-0.59,-8.06,0.1734,0.4614,0.1865,-14.1875,27.875,36.5625,17.5625,39.3125,-172.6875,0
1776971508.568,10.6063,-5.7269,0.7805,-3.6345,1.5575,0.9033,-26.7,4.65,13.65,9.1051,-1.1516,-0.1844,0.4501,0.7043,1.4637,-73.8,17.7,-28.65,6.38,0.42,-7.49,0.2247,0.3502,0.1374,-14.1875,27.875,36.5625,17.5625,39.3125,-172.6875,0
1776971508.574,8.9926,-1.2713,-2.1715,-2.6382,0.9262,0.9657,-25.95,4.2,13.35,9.4978,-2.2482,-0.5914,0.4501,0.7043,1.4637,-73.8,17.7,-28.65,5.93,0.98,-7.36,0.324,0.3163,0.0742,-14.1875,27.875,36.5625,17.5625,39.5,-172.875,0
1776971508.579,8.837,4.9225,-2.399,-1.2127,1.1634,0.8889,-25.95,4.2,13.35,9.4978,-2.2482,-0.5914,-0.1122,0.5431,1.5218,-74.1,17.7,-27.45,5.93,0.98,-7.36,0.324,0.3163,0.0742,-14.1875,27.875,36.5625,17.5,39.625,-173.0625,0
1776971508.588,8.837,4.9225,-2.399,-0.1881,0.9761,0.7288,-26.25,4.2,13.65,9.7324,-2.2697,-0.7733,-0.6811,0.3086,1.599,-74.1,17.7,-27.45,6.17,-0.2,-7.64,0.3491,0.2105,0.0742,-14.1875,27.875,36.5625,17.5,39.625,-173.25,0
1776971508.598,10.4244,2.6576,0.1245,0.1911,0.9769,0.7045,-26.25,4.2,13.65,8.9208,-1.4509,-0.0311,-1.2025,0.2721,1.6411,-74.85,15.75,-28.2,5.65,-0.09,-7.88,0.2836,-0.0065,0.0829,-14.1875,27.875,36.5625,17.5,39.625,-173.25,0
1776971508.603,10.4244,2.6576,0.1245,0.1911,0.9769,0.7045,-27.75,3.9,11.85,9.2632,-1.6113,0.5076,-1.2025,0.2721,1.6411,-74.85,15.75,-28.2,5.65,-0.09,-7.88,0.2836,-0.0065,0.0829,-15.5625,27.875,34.5,17.5,39.6875,-173.375,0
1776971508.608,10.3573,0.5794,1.7406,0.5361,0.7858,0.6885,-27.75,3.9,11.85,9.2632,-1.6113,0.5076,-1.7155,0.166,1.6771,-74.85,15.75,-28.2,5.09,0.41,-8.01,0.12,0.1124,0.0589,-15.5625,27.875,34.5,17.5,39.6875,-173.375,0
1776971508.613,10.3573,0.5794,1.7406,0.5361,0.7858,0.6885,-27.75,3.45,13.35,8.8155,1.5897,1.3551,-1.7155,0.166,1.6771,-74.85,15.75,-28.2,5.09,0.41,-8.01,0.12,0.1124,0.0589,-15.5625,27.875,34.5,17.5,40.0,-173.3125,0
1776971508.618,9.8833,-0.3089,2.1261,0.6379,0.5385,0.672,-27.75,3.45,13.35,8.8155,1.5897,1.3551,-1.866,0.1532,1.7501,-76.2,15.6,-28.5,6.02,0.32,-7.4,0.0044,0.5487,0.0185,-15.5625,27.875,34.5,17.5,40.0,-173.3125,0
1776971508.626,9.8833,-0.3089,2.1261,0.6379,0.5385,0.672,-26.7,1.95,14.7,9.1267,1.2306,1.5514,-1.9164,0.13,1.7786,-77.7,14.4,-27.3,6.17,0.44,-7.23,0.0295,0.7101,0.0175,-15.5625,27.875,34.5,17.5,40.375,-173.3125,0
1776971508.631,8.8011,-0.9768,1.6281,0.6861,0.3741,0.6121,-26.7,1.95,14.7,9.1267,1.2306,1.5514,-1.9164,0.13,1.7786,-77.7,14.4,-27.3,6.17,0.44,-7.23,0.0295,0.7101,0.0175,-15.5625,27.875,34.5,17.5,40.6875,-173.375,0
1776971508.638,9.6965,-1.8076,1.0295,0.23,0.5121,0.5265,-27.0,1.95,13.95,8.8011,1.075,2.047,-2.0355,0.1919,1.7491,-77.4,13.65,-26.55,6.34,0.48,-7.33,0.0524,0.4876,0.0873,-15.5625,27.875,34.5,17.5625,40.875,-173.4375,0
1776971508.648,10.343,-2.9688,1.2163,-0.7903,0.6022,0.4954,-26.85,1.5,14.55,8.9352,1.2713,2.0111,-1.9628,0.3198,1.7083,-78.0,16.2,-28.2,6.31,0.99,-7.15,0.0327,0.3294,0.1604,-15.5625,27.875,34.5,17.5625,40.875,-173.4375,0
1776971508.653,10.343,-2.9688,1.2163,-0.7903,0.6022,0.4954,-26.85,1.5,14.55,9.1219,1.3934,1.4389,-1.8138,0.4013,1.7088,-78.0,16.2,-28.2,6.31,0.99,-7.15,0.0327,0.3294,0.1604,-15.5625,27.875,34.5,17.6875,41.0625,-173.5,0
1776971508.658,10.1083,-1.8603,0.1245,-1.5218,0.7466,0.4879,-26.85,1.5,14.55,9.1219,1.3934,1.4389,-1.8138,0.4013,1.7088,-78.0,13.5,-27.15,6.37,0.21,-7.4,-0.0109,0.3218,0.2203,-16.5625,29.875,35.25,17.6875,41.0625,-173.5,0
1776971508.663,10.1083,-1.8603,0.1245,-1.5218,0.7466,0.4879,-28.2,2.25,14.85,9.4403,1.3264,1.1277,-1.7509,0.4181,1.6816,-78.0,13.5,-27.15,6.37,0.21,-7.4,-0.0109,0.3218,0.2203,-16.5625,29.875,35.25,17.875,41.25,-173.5625,0
1776971508.668,10.1634,-0.4118,-0.7039,-1.5108,0.8476,0.4748,-28.2,2.25,14.85,9.4403,1.3264,1.1277,-1.7509,0.4181,1.6816,-79.05,13.5,-27.15,6.68,-0.12,-7.63,-0.1571,0.324,0.2836,-16.5625,29.875,35.25,17.875,41.25,-173.5625,0
1776971508.675,10.1634,-0.4118,-0.7039,-1.5108,0.8476,0.4748,-26.7,1.65,14.7,9.6103,1.008,1.3671,-1.8122,0.4247,1.6611,-79.05,13.5,-27.15,6.51,0.09,-7.49,-0.3414,0.4036,0.2771,-16.5625,29.875,35.25,18.0625,41.5,-173.5,0
1776971508.679,9.9719,1.1923,-0.1963,-1.2955,0.9164,0.53,-26.7,1.65,14.7,9.6103,1.008,1.3671,-1.8122,0.4247,1.6611,-79.05,13.5,-27.15,6.51,0.09,-7.49,-0.3414,0.4036,0.2771,-16.5625,29.875,35.25,18.3125,41.8125,-173.3125,0
1776971508.688,10.3406,2.0542,0.1413,-1.2159,1.0139,0.6808,-27.6,1.5,15.6,9.7372,1.063,1.7406,-1.7976,0.32,1.6257,-79.5,12.6,-27.45,6.55,0.32,-7.92,-0.5061,0.528,0.2651,-16.5625,29.875,35.25,18.5625,42.125,-173.0625,0
1776971508.698,10.5584,2.1668,0.3639,-1.1429,0.8308,0.8575,-27.75,1.2,15.45,9.2368,1.3934,2.1141,-1.7325,0.105,1.5801,-79.5,12.6,-27.45,6.99,-0.23,-7.71,-0.5727,0.5749,0.2487,-16.5625,29.875,35.25,18.5625,42.125,-173.0625,0
1776971508.703,10.5584,2.1668,0.3639,-1.1429,0.8308,0.8575,-28.95,0.3,15.3,8.7724,1.415,2.1883,-1.6942,-0.0024,1.5633,-79.5,12.6,-27.45,6.99,-0.23,-7.71,-0.5727,0.5749,0.2487,-16.5625,29.875,35.25,18.5625,42.125,-173.0625,0
1776971508.708,10.1131,1.743,0.5052,-1.0968,0.5883,0.9678,-28.95,0.3,15.3,8.7724,1.415,2.1883,-1.6942,-0.0024,1.5633,-80.1,12.9,-25.8,6.92,1.07,-7.0,-0.5411,0.5574,0.1909,-17.375,29.5,33.75,18.8125,42.4375,-172.8125,0
1776971508.713,10.1131,1.743,0.5052,-1.0968,0.5883,0.9678,-28.95,0.3,15.3,8.6024,2.3583,2.0638,-1.6355,-0.0778,1.5426,-80.1,12.9,-25.8,6.92,1.07,-7.0,-0.5411,0.5574,0.1909,-17.375,29.5,33.75,18.8125,42.4375,-172.8125,0
1776971508.718,9.6247,1.221,-0.3687,-1.1762,0.5215,0.9915,-28.95,0.3,15.3,8.3606,2.9544,1.9513,-1.6355,-0.0778,1.5426,-80.1,10.05,-27.0,7.08,0.75,-7.13,-0.4145,0.408,0.1767,-17.375,29.5,33.75,18.9375,42.6875,-172.6875,0
1776971508.727,9.256,0.8691,-0.7781,-1.2335,0.6241,0.9824,-29.4,1.05,15.3,8.3606,2.9544,1.9513,-1.5087,-0.0762,1.5196,-79.8,10.65,-26.4,6.35,0.88,-7.33,-0.3272,0.2825,0.2269,-17.375,29.5,33.75,19.125,42.875,-172.5625,0
1776971508.732,9.256,0.8691,-0.7781,-1.2335,0.6241,0.9824,-28.05,0.15,16.8,8.5018,3.6919,1.9249,-1.3049,-0.0632,1.485,-79.8,10.65,-26.4,6.35,0.88,-7.33,-0.3272,0.2825,0.2269,-17.375,29.5,33.75,19.375,43.0625,-172.5625,0
1776971508.739,9.2081,1.154,-0.838,-1.2393,0.8426,0.9691,-28.05,0.15,16.8,8.5832,3.4668,1.9632,-1.064,-0.0549,1.4146,-80.85,11.25,-25.8,7.33,0.28,-7.73,-0.2814,0.3109,0.276,-17.375,29.5,33.75,19.5,43.3125,-172.5,0
1776971508.748,9.4475,1.3072,-1.3384,-1.2217,0.9867,0.9987,-29.55,1.2,15.45,8.77,3.1915,1.6831,-0.8354,-0.0112,1.3371,-80.1,10.95,-26.25,7.76,1.03,-6.49,-0.2291,0.4243,0.2443,-17.375,29.5,33.75,19.5,43.3125,-172.5,0
1776971508.753,9.6271,1.4293,-2.0135,-1.2297,0.9907,1.0291,-28.2,-0.75,15.3,8.77,3.1915,1.6831,-0.8354,-0.0112,1.3371,-80.1,10.95,-26.25,7.76,1.03,-6.49,-0.2291,0.4243,0.2443,-18.0625,29.5625,35.0625,19.75,43.5,-172.5,0
1776971508.759,9.6271,1.4293,-2.0135,-1.2297,0.9907,1.0291,-28.2,-0.75,15.3,8.7604,3.2441,1.3886,-0.5532,0.0634,1.2601,-81.15,10.05,-26.25,6.59,0.79,-7.09,-0.3054,0.3316,0.3436,-18.0625,29.5625,35.0625,19.75,43.5,-172.5,0
1776971508.763,9.3589,0.7853,-1.2546,-1.2979,0.9675,1.0917,-28.2,-0.75,15.3,8.7604,3.2441,1.3886,-0.5532,0.0634,1.2601,-81.15,10.05,-26.25,6.59,0.79,-7.09,-0.3054,0.3316,0.3436,-18.0625,29.5625,35.0625,20.0625,43.625,-172.5,0
1776971508.769,9.3589,0.7853,-1.2546,-1.2979,0.9675,1.0917,-28.2,-0.75,15.3,9.0261,3.2753,1.2474,-0.2324,0.0959,1.1815,-81.15,10.05,-26.25,5.75,0.39,-7.74,-0.2945,0.1331,0.3676,-18.0625,29.5625,35.0625,20.0625,43.625,-172.5,0
1776971508.774,9.4906,1.3838,-1.2905,-1.1876,1.1005,1.0813,-28.5,-0.15,15.75,9.0261,3.2753,1.2474,-0.2324,0.0959,1.1815,-81.15,10.05,-26.25,6.53,0.66,-7.31,-0.1614,0.3098,0.3327,-18.0625,29.5625,35.0625,20.25,43.8125,-172.5625,0
1776971508.779,9.4906,1.3838,-1.2905,-1.1876,1.1005,1.0813,-27.9,-1.8,16.65,8.8969,3.5291,1.1947,0.0448,0.2164,1.1351,-81.6,10.05,-27.0,6.53,0.66,-7.31,-0.1614,0.3098,0.3327,-18.0625,29.5625,35.0625,20.4375,44.125,-172.625,0
1776971508.788,9.8114,1.1061,-0.7638,-0.9774,1.1133,1.0563,-27.9,-1.8,16.65,9.1291,3.5769,1.1947,0.3195,0.283,1.0805,-81.6,8.1,-25.05,6.91,0.88,-7.1,-0.1844,0.5345,0.3305,-18.0625,29.5625,35.0625,20.4375,44.125,-172.625,0
1776971508.798,10.0461,0.6991,-0.0934,-0.6328,1.1242,1.0184,-27.9,0.0,17.7,8.6981,3.5578,1.2905,0.5212,0.3978,1.0627,-81.9,8.55,-26.55,6.72,0.95,-6.54,-0.2509,0.5072,0.3262,-18.0625,29.5625,35.0625,20.6875,44.4375,-172.625,0
1776971508.803,10.3837,-0.1628,-0.1772,-0.3232,1.1215,1.0179,-27.9,0.0,16.65,8.6981,3.5578,1.2905,0.5212,0.3978,1.0627,-81.9,8.55,-26.55,6.72,0.95,-6.54,-0.2509,0.5072,0.3262,-18.0625,29.5625,35.0625,20.6875,44.4375,-172.625,0
1776971508.808,10.3837,-0.1628,-0.1772,-0.3232,1.1215,1.0179,-28.05,-1.95,17.85,8.7101,3.1053,1.1971,0.7032,0.3752,1.1058,-82.35,8.55,-27.75,6.23,0.54,-7.8,-0.288,0.3294,0.3905,-17.6875,30.0,35.5625,35.625,44.625,-172.625,0
1776971508.813,9.9024,-0.8571,-0.4142,-0.109,1.0882,1.0696,-28.05,-1.95,17.85,8.7101,3.1053,1.1971,0.7032,0.3752,1.1058,-82.35,8.55,-27.75,6.23,0.54,-7.8,-0.288,0.3294,0.3905,-17.6875,30.0,35.5625,35.625,44.625,-172.625,0
1776971508.818,9.9024,-0.8571,-0.4142,-0.109,1.0882,1.0696,-28.05,-1.95,17.85,8.9304,2.4995,0.7278,0.8076,0.3395,1.1751,-82.35,9.0,-28.8,7.34,0.86,-6.98,-0.2738,0.3698,0.3971,-17.6875,30.0,35.5625,35.6875,44.875,-172.6875,0
1776971508.825,9.7923,-1.3479,-0.7326,-0.0634,1.1719,1.1343,-28.05,-1.95,17.85,9.2632,1.7717,0.0599,0.8215,0.2377,1.255,-82.35,9.0,-28.8,7.34,0.32,-6.79,-0.3731,0.4418,0.4232,-17.6875,30.0,35.5625,35.875,45.125,-172.6875,0
1776971508.83,9.7923,-1.3479,-0.7326,-0.0634,1.1719,1.1343,-28.8,-3.15,19.05,9.2632,1.7717,0.0599,0.8215,0.2377,1.255,-82.35,7.8,-29.85,7.34,0.32,-6.79,-0.3731,0.4418,0.4232,-17.6875,30.0,35.5625,36.3125,45.3125,-172.625,0
1776971508.838,9.9886,-1.1588,-2.2146,-0.1828,1.1692,1.1735,-29.1,-3.45,18.6,9.2727,1.1803,-0.4788,0.6598,0.2395,1.3131,-82.35,7.8,-29.85,6.03,-0.27,-7.54,-0.5705,0.216,0.4789,-17.6875,30.0,35.5625,36.75,45.5625,-172.5625,0
1776971508.848,9.4978,-1.2713,-2.0016,-0.3317,1.1301,1.2199,-29.1,-3.9,19.05,9.1985,1.2546,-0.3543,0.486,0.1567,1.3691,-83.1,6.6,-28.8,6.98,0.48,-6.99,-0.601,0.384,0.5007,-17.6875,30.0,35.5625,36.75,45.5625,-172.5625,0
1776971508.853,9.8114,-0.565,-2.059,-0.3968,1.2119,1.2867,-29.1,-3.9,19.05,9.1435,2.2146,0.1724,0.486,0.1567,1.3691,-83.1,6.6,-28.8,6.98,0.48,-6.99,-0.601,0.384,0.5007,-17.6875,30.0,35.5625,37.1875,45.9375,-172.4375,0
1776971508.858,9.8114,-0.565,-2.059,-0.3968,1.2119,1.2867,-28.95,-4.05,19.2,9.1435,2.2146,0.1724,0.3989,0.0679,1.3686,-83.1,6.6,-28.8,7.09,-0.41,-7.35,-0.5476,0.6305,0.3927,-18.0625,30.6875,35.1875,37.1875,45.9375,-172.4375,0
1776971508.863,10.2208,1.0654,-1.5012,-0.2158,1.2502,1.2865,-28.95,-4.05,19.2,9.5122,3.0358,1.2977,0.4317,0.0472,1.3017,-83.1,6.6,-28.8,7.09,-0.41,-7.35,-0.5476,0.6305,0.3927,-18.0625,30.6875,35.1875,37.5,46.3125,-172.25,0
1776971508.869,10.3477,2.0949,-1.98,0.1162,1.2772,1.3225,-26.4,-5.55,19.95,9.5122,3.0358,1.2977,0.4317,0.0472,1.3017,-84.45,4.8,-29.7,6.28,-0.11,-7.27,-0.4189,0.7145,0.1865,-18.0625,30.6875,35.1875,37.5,46.3125,-172.25,0
1776971508.874,10.3477,2.0949,-1.98,0.1162,1.2772,1.3225,-26.4,-5.55,19.95,9.8306,3.2801,2.466,0.5702,-0.0338,1.2108,-84.45,4.8,-29.7,6.28,-0.11,-7.27,-0.2803,0.8356,0.0142,-18.0625,30.6875,35.1875,37.6875,46.8125,-172.0,0
1776971508.879,10.0844,2.5379,-1.6568,0.4647,1.2633,1.3739,-26.4,-5.55,19.95,9.8306,3.2801,2.466,0.5702,-0.0338,1.2108,-83.7,4.8,-29.4,5.4,-0.58,-8.0,-0.2803,0.8356,0.0142,-18.0625,30.6875,35.1875,37.75,47.4375,-171.75,0
1776971508.888,10.386,2.0973,-1.1588,0.5718,1.3249,1.4623,-28.05,-7.2,21.9,10.0341,3.7948,2.9066,0.648,-0.0552,1.1151,-83.1,5.4,-27.3,7.11,-0.03,-7.38,-0.1451,1.1977,-0.1593,-18.0625,30.6875,35.1875,37.75,47.4375,-171.75,0
1776971508.898,10.9487,1.7526,-1.0534,0.4922,1.4024,1.5543,-27.6,-9.3,22.35,9.9958,3.6966,2.9377,0.659,-0.0426,0.9926,-82.95,2.4,-29.4,7.95,1.16,-5.93,-0.1658,1.4377,-0.2978,-18.0625,30.6875,35.1875,37.875,48.1875,-171.3125,0
1776971508.903,10.9487,1.7526,-1.0534,0.4922,1.4024,1.5543,-27.6,-9.3,22.35,9.7731,3.3926,2.7342,0.721,-0.0381,0.8204,-82.95,2.4,-29.4,7.95,1.16,-5.93,-0.1658,1.4377,-0.2978,-18.0625,30.6875,35.1875,37.875,48.1875,-171.3125,0
1776971508.908,11.0229,1.2905,-2.1404,0.3254,1.4181,1.6308,-26.1,-9.0,22.35,9.7731,3.3926,2.7342,0.721,-0.0381,0.8204,-83.4,2.25,-29.25,7.55,0.5,-6.35,-0.2105,1.5021,-0.3349,-18.1875,29.5625,35.6875,38.125,49.0,-170.875,0
1776971508.913,11.0229,1.2905,-2.1404,0.3254,1.4181,1.6308,-26.1,-9.0,22.35,9.596,2.4684,2.2434,0.785,-0.0346,0.6129,-83.4,2.25,-29.25,7.55,0.5,-6.35,-0.2105,1.5021,-0.3349,-18.1875,29.5625,35.6875,38.125,49.0,-170.875,0
1776971508.918,10.4004,0.5507,-1.8818,0.1231,1.481,1.6774,-26.85,-8.55,22.8,9.596,2.4684,2.2434,0.785,-0.0346,0.6129,-82.95,0.9,-27.45,6.82,0.65,-6.67,-0.096,1.3854,-0.3523,-18.1875,29.5625,35.6875,38.1875,49.6875,-170.4375,0
1776971508.925,10.4004,0.5507,-1.8818,0.1231,1.481,1.6774,-26.85,-8.55,22.8,9.6606,2.0111,2.241,0.7045,-0.1388,0.3685,-82.95,0.9,-27.45,7.19,1.22,-6.18,-0.1549,1.5468,-0.3436,-18.1875,29.5625,35.6875,38.3125,50.5625,-169.9375,0
1776971508.93,10.5058,0.0838,-1.5036,-0.1673,1.6379,1.7123,-26.85,-8.55,22.8,9.7492,1.5227,2.3607,0.7045,-0.1388,0.3685,-82.95,0.9,-27.45,7.19,1.22,-6.18,-0.1549,1.5468,-0.3436,-18.1875,29.5625,35.6875,38.6875,51.5,-169.3125,0
1776971508.939,11.2168,-0.759,-2.3176,-0.4623,1.6752,1.7301,-26.85,-8.55,22.8,9.7492,1.5227,2.3607,0.4596,-0.2236,0.1244,-81.9,-0.3,-27.3,7.22,1.11,-5.89,-0.4734,1.8326,-0.2618,-18.1875,29.5625,35.6875,39.375,52.625,-168.4375,0
1776971508.949,11.497,-2.2601,-3.2872,-0.8926,1.7155,1.7509,-26.4,-12.3,24.9,11.0492,1.391,2.4636,0.1348,-0.2044,-0.0493,-81.9,-0.3,-27.3,6.68,0.57,-6.17,-0.8748,2.1173,-0.1342,-18.1875,29.5625,35.6875,39.375,52.625,-168.4375,0
1776971508.954,11.497,-2.2601,-3.2872,-0.8926,1.7155,1.7509,-26.4,-12.3,24.9,11.0492,1.391,2.4636,-0.1836,-0.1572,-0.1506,-81.9,-0.3,-27.3,6.68,0.57,-6.17,-0.8748,2.1173,-0.1342,-18.1875,29.5625,35.6875,39.375,52.625,-168.4375,0
1776971508.959,12.536,-4.3167,-4.0654,-1.6361,1.9247,1.8266,-26.25,-12.15,25.05,11.8441,2.4229,1.6161,-0.1836,-0.1572,-0.1506,-82.2,-1.35,-25.65,6.29,-2.49,-8.09,-1.2752,2.5176,0.0349,-20.75,29.875,34.5,40.3125,54.0,-167.375,0
1776971508.963,12.536,-4.3167,-4.0654,-1.6361,1.9247,1.8266,-26.25,-12.15,25.05,11.8441,2.4229,1.6161,-0.296,-0.3373,-0.3102,-82.2,-1.35,-25.65,6.29,-2.49,-8.09,-1.2752,2.5176,0.0349,-20.75,29.875,34.5,40.3125,54.0,-167.375,0
1776971508.969,13.8816,-6.6319,-4.5921,-2.2953,2.1935,1.8858,-25.5,-12.45,25.8,12.3876,2.9066,0.3424,-0.296,-0.3373,-0.3102,-83.25,-1.35,-25.65,8.0,-3.8,-6.83,-1.5664,3.267,0.2956,-20.75,29.875,34.5,41.1875,55.8125,-166.125,0
1776971508.974,13.8816,-6.6319,-4.5921,-2.2953,2.1935,1.8858,-25.5,-12.45,25.8,12.3876,2.9066,0.3424,-0.5097,-0.4908,-0.5207,-83.25,-2.4,-25.65,8.0,-3.8,-6.83,-1.4672,3.6717,0.4156,-20.75,29.875,34.5,41.8125,57.8125,-164.875,0
1776971508.979,16.4242,-8.1594,-8.2432,-3.5791,2.5434,1.7307,-27.3,-12.9,25.35,12.876,2.6217,-1.3767,-0.7125,-0.7837,-0.7594,-82.35,-1.05,-25.05,6.73,2.75,-6.64,-1.4672,3.6717,0.4156,-20.75,29.875,34.5,42.625,59.8125,-163.5,0
1776971508.989,18.1888,-7.4962,-9.4403,-4.4928,2.6156,1.5807,-27.3,-12.9,25.35,11.4371,2.4588,-3.4548,-0.9601,-1.1367,-0.926,-82.95,-1.35,-25.65,1.38,3.4,-5.18,-1.801,3.5201,0.601,-20.75,29.875,34.5,42.625,59.8125,-163.5,0
1776971508.999,17.6644,2.3535,-8.5617,-6.1897,1.6294,1.6534,-26.1,-15.3,24.9,8.9759,3.1388,-3.1532,-1.1143,-1.5372,-1.1215,-80.85,0.75,-27.3,6.95,5.33,-7.0,-1.1966,5.7901,0.8574,-20.75,29.875,34.5,42.4375,63.0,-161.9375,0
1776971509.004,17.6644,2.3535,-8.5617,-6.1897,1.6294,1.6534,-26.1,-15.3,24.9,8.9759,3.1388,-3.1532,-1.1143,-1.5372,-1.1215,-80.85,0.75,-27.3,6.95,5.33,-7.0,-1.1966,5.7901,0.8574,-20.75,29.875,34.5,41.125,67.3125,-159.8125,0
1776971509.009,15.1553,6.1244,0.3208,-7.2827,0.4322,1.6691,-25.2,-14.7,23.25,6.8259,3.4381,-1.0511,-1.0973,-1.7688,-1.428,-80.85,0.75,-27.3,11.57,2.47,-5.64,-0.2727,7.8573,0.9741,-25.0625,29.5,32.5,41.125,67.3125,-159.8125,0
1776971509.014,15.1553,6.1244,0.3208,-7.215,-0.3613,1.6001,-25.2,-14.7,23.25,6.8259,3.4381,-1.0511,-1.0973,-1.7688,-1.428,-80.85,-0.3,-28.05,11.57,2.47,-5.64,-0.2727,7.8573,0.9741,-25.0625,29.5,32.5,39.625,71.875,-156.5625,0
1776971509.019,13.2112,9.7755,3.8068,-7.215,-0.3613,1.6001,-25.35,-14.25,21.0,7.7189,2.0255,0.407,-0.919,-1.8024,-1.9971,-80.85,-0.3,-28.05,18.41,3.17,-7.92,0.0229,8.467,1.0505,-25.0625,29.5,32.5,39.625,71.875,-156.5625,0
1776971509.026,16.1441,10.2975,1.8651,-5.0409,-0.5678,1.526,-24.75,-14.7,20.4,9.7396,-0.4046,0.0934,-0.919,-1.8024,-1.9971,-80.85,-0.3,-28.05,17.18,7.65,-13.28,-0.2749,7.4896,0.9632,-25.0625,29.5,32.5,38.625,75.875,-151.875,0
1776971509.031,16.1441,10.2975,1.8651,-5.0409,-0.5678,1.526,-24.75,-14.7,20.4,9.7396,-0.4046,0.0934,-1.1162,-1.8077,-2.5242,-81.3,2.1,-27.15,17.18,7.65,-13.28,-0.2749,7.4896,0.9632,-25.0625,29.5,32.5,37.3125,80.25,-143.4375,0
1776971509.039,18.9453,9.7923,3.6105,-1.715,-0.0935,0.9406,-25.65,-14.55,18.75,10.4818,-1.3264,0.7518,-1.3949,-1.817,-2.9695,-81.3,2.1,-27.15,23.2,7.25,-10.69,-0.2291,8.3339,1.5435,-25.0625,29.5,32.5,35.375,84.6875,-175.625,0
1776971509.049,19.0866,6.5434,0.3352,0.5273,0.324,0.9595,-25.65,-14.55,18.75,11.6167,-0.4214,0.5387,-1.5508,-1.4605,-3.2034,-79.35,2.1,-27.9,23.33,2.66,-6.85,-0.012,8.563,2.6464,-25.0625,29.5,32.5,35.375,84.6875,-175.625,0
1776971509.054,15.7227,0.9337,2.5067,1.7126,0.9193,0.9678,-25.65,-14.55,18.75,11.6167,-0.4214,0.5387,-1.5508,-1.4605,-3.2034,-79.35,3.45,-27.3,23.33,2.66,-6.85,-0.012,8.563,2.6464,-25.0625,29.5,32.5,33.0625,87.0625,-2.375,0
1776971509.059,15.7227,0.9337,2.5067,1.7126,0.9193,0.9678,-24.45,-16.95,19.65,14.0468,-0.5459,0.3376,-1.2516,-1.1791,-3.1645,-79.35,3.45,-27.3,29.31,6.08,-16.11,0.2749,8.5172,3.4438,-33.25,30.1875,22.6875,33.0625,87.0625,-2.375,0
1776971509.064,14.7818,-1.6712,3.9935,1.9404,1.8024,1.1338,-24.45,-16.95,19.65,14.0468,-0.5459,0.3376,-1.2516,-1.1791,-3.1645,-79.05,5.55,-28.2,29.31,6.08,-16.11,0.2749,8.5172,3.4438,-33.25,30.1875,22.6875,33.0625,87.0625,-2.375,0
1776971509.069,14.7818,-1.6712,3.9935,1.9404,1.8024,1.1338,-25.95,-18.9,18.6,16.9198,-0.9242,0.4118,-0.6046,-1.1135,-3.0259,-79.05,5.55,-28.2,23.17,9.25,-16.74,-0.2978,7.9751,3.6859,-33.25,30.1875,22.6875,31.0625,83.9375,-0.3125,0
1776971509.075,14.0468,-4.6543,4.8411,2.0672,2.1272,1.356,-24.45,-19.2,22.5,17.6836,-0.2514,0.4453,-0.2153,-0.9257,-2.9657,-78.9,6.15,-27.3,17.9,8.69,-18.3,-1.6253,6.5428,2.8896,-33.25,30.1875,22.6875,30.25,80.1875,7.9375,0
1776971509.08,14.0468,-4.6543,4.8411,2.0672,2.1272,1.356,-24.45,-19.2,22.5,17.6836,-0.2514,0.4453,-0.2153,-0.9257,-2.9657,-78.75,6.0,-27.45,17.9,8.69,-18.3,-1.6253,6.5428,2.8896,-33.25,30.1875,22.6875,30.5,77.25,13.125,0
1776971509.089,13.8481,-6.426,5.4492,2.3297,2.6518,1.3446,-25.95,-19.2,23.25,16.5176,1.0343,0.4262,-0.2033,-0.5273,-2.9196,-78.75,6.0,-27.45,-0.68,-3.2,-14.11,-2.9932,5.0156,2.1991,-33.25,30.1875,22.6875,31.125,75.4375,16.875,0
1776971509.099,13.5129,-9.6941,5.0589,2.5874,3.0017,1.2033,-26.1,-20.25,24.15,14.516,2.3679,-0.8547,-0.3379,-0.1588,-2.8887,-78.75,6.0,-27.45,18.48,-5.96,-7.03,-3.351,2.8972,1.6406,-33.25,30.1875,22.6875,31.125,75.4375,16.875,0
1776971509.104,9.9311,-11.971,6.9216,1.8269,2.3638,1.0917,-26.1,-20.25,24.15,13.3094,2.5283,-2.2434,-0.3938,0.0597,-2.9876,-77.55,9.9,-27.9,18.48,-5.96,-7.03,-3.351,2.8972,1.6406,-33.25,30.1875,22.6875,31.1875,72.4375,20.125,0
1776971509.109,9.9311,-11.971,6.9216,1.8269,2.3638,1.0917,-26.1,-20.25,24.15,13.3094,2.5283,-2.2434,-0.3938,0.0597,-2.9876,-77.55,9.9,-27.9,33.58,8.16,-31.45,-2.942,4.9066,2.5405,-35.25,34.5,8.5,31.1875,72.4375,20.125,0
1776971509.114,8.6048,-13.2711,6.2968,0.732,1.9673,1.024,-24.3,-20.55,29.1,12.7036,2.2625,-3.292,-0.4453,0.0437,-3.0987,-77.55,9.9,-27.9,33.58,8.16,-31.45,-2.942,4.9066,2.5405,-35.25,34.5,8.5,31.6875,70.375,23.75,0
1776971509.119,8.6048,-13.2711,6.2968,0.732,1.9673,1.024,-24.3,-20.55,29.1,12.7036,2.2625,-3.292,-0.4453,0.0437,-3.0987,-77.55,9.9,-27.9,18.2,9.39,-20.15,-3.963,3.1154,2.1958,-35.25,34.5,8.5,31.6875,70.375,23.75,0
1776971509.129,7.252,-10.5393,6.1435,0.0282,0.8753,0.8402,-24.15,-20.4,28.65,13.0867,2.1045,-3.1795,-0.2944,-0.1604,-3.2639,-76.2,12.9,-28.5,8.68,13.97,-12.85,-3.9575,-0.2422,1.4824,-35.25,34.5,8.5,32.4375,70.125,28.1875,0
1776971509.139,6.6295,-8.0756,5.6527,-0.7234,0.1186,0.4189,-23.25,-22.5,29.55,13.0125,1.7286,-3.1436,0.2054,-0.1458,-3.3183,-74.7,13.2,-28.5,4.87,11.27,-8.24,-3.0729,-2.4587,1.4104,-35.25,34.5,8.5,32.75,70.875,33.8125,0
1776971509.146,3.893,-7.1635,5.3343,-1.056,-0.4106,-0.0314,-23.85,-22.05,27.75,12.6965,1.3384,-1.9848,0.8156,0.0099,-3.1826,-73.95,14.85,-27.75,1.34,9.55,-5.84,-1.4301,-3.7525,1.6908,-35.25,34.5,8.5,32.125,72.0,40.5625,0
1776971509.151,2.0446,-6.9121,4.8698,-1.263,-0.6043,-0.4586,-23.85,-22.05,27.75,11.1282,0.9313,-1.3072,0.8156,0.0099,-3.1826,-74.85,16.95,-29.7,1.34,9.55,-5.84,-1.4301,-3.7525,1.6908,-35.25,34.5,8.5,32.125,72.0,40.5625,0
1776971509.156,2.0446,-6.9121,4.8698,-1.263,-0.6043,-0.4586,-23.85,-22.05,27.75,11.1282,0.9313,-1.3072,1.1487,0.1412,-3.0262,-74.85,16.95,-29.7,0.76,5.94,-4.15,0.1658,-3.7405,1.8599,-37.375,33.375,8.1875,30.625,72.75,47.375,0
1776971509.161,1.2354,-5.8945,4.1061,-0.9166,-0.8745,-0.9896,-23.85,-22.05,27.75,10.7667,1.4365,-0.7398,1.3885,0.0981,-2.8903,-73.2,17.55,-29.85,0.76,5.94,-4.15,0.1658,-3.7405,1.8599,-37.375,33.375,8.1875,30.625,72.75,47.375,0
1776971509.166,1.2354,-5.8945,4.1061,-0.9166,-0.8745,-0.9896,-25.35,-19.05,26.7,10.7667,1.4365,-0.7398,1.3885,0.0981,-2.8903,-73.2,17.55,-29.85,0.56,4.87,-4.1,0.901,-3.5747,1.8664,-37.375,33.375,8.1875,28.8125,73.25,54.0625,0
1776971509.171,2.2553,-5.2122,2.9329,-0.5097,-1.2055,-1.5058,-25.35,-19.05,26.7,10.3238,0.9266,-0.1676,1.4618,0.154,-2.6963,-72.45,20.25,-30.3,0.56,4.87,-4.1,0.901,-3.5747,1.8664,-37.375,33.375,8.1875,27.0,73.5625,60.5625,0
1776971509.179,0.4621,-6.0262,3.6871,-0.284,-1.5636,-1.9172,-24.75,-19.2,27.9,9.4499,0.3089,-0.1006,1.4618,0.154,-2.6963,-72.45,20.25,-30.3,0.82,3.76,-4.4,1.1323,-3.5452,1.5599,-37.375,33.375,8.1875,25.5625,73.875,66.875,0
1776971509.189,0.6991,-5.8299,3.055,-0.008,-1.5122,-2.27,-23.85,-19.5,26.7,8.8418,0.3448,-0.0599,1.4304,0.0722,-2.5514,-72.45,20.25,-30.3,0.84,2.97,-4.34,0.9796,-3.5037,1.0461,-37.375,33.375,8.1875,25.5625,73.875,66.875,0
1776971509.199,1.4222,-6.9671,2.5666,0.2028,-1.7624,-2.5732,-25.5,-17.7,25.35,10.8673,-20.0754,-27.6794,1.1511,0.1037,-2.3686,-71.7,20.25,-31.05,0.76,2.76,-4.18,0.5661,-3.5048,0.3458,-37.375,33.375,8.1875,24.625,74.375,73.25,0
1776971509.204,1.4222,-6.9671,2.5666,0.2028,-1.7624,-2.5732,-25.95,-16.95,24.3,10.8673,-20.0754,-27.6794,-1.6201,-1.7786,-1.1788,-71.7,20.25,-31.05,0.76,2.76,-4.18,0.5661,-3.5048,0.3458,-37.375,33.375,8.1875,24.625,74.375,73.25,0
1776971509.209,0.3831,-7.6184,2.6336,0.4066,-2.0014,-2.7883,-25.95,-16.95,24.3,-0.3855,12.8976,2.7294,2.821,1.0693,-1.5178,-71.7,20.25,-31.05,1.6,3.2,-4.65,0.1036,-3.4645,-0.3731,-37.75,36.0,15.25,24.3125,75.0,79.875,0
1776971509.214,0.3831,-7.6184,2.6336,0.4066,-2.0014,-2.7883,-25.95,-16.95,24.3,-0.3855,12.8976,2.7294,2.821,1.0693,-1.5178,-71.85,20.85,-31.95,1.6,3.2,-4.65,0.1036,-3.4645,-0.3731,-37.75,36.0,15.25,24.3125,75.0,79.875,0
1776971509.219,1.3144,-6.6702,2.241,0.4085,-1.9851,-2.8551,-25.95,-16.95,24.3,9.6079,7.5513,2.5618,1.8093,0.7352,-1.9849,-71.85,20.85,-31.95,2.64,3.62,-5.06,-0.2334,-3.4481,-1.0516,-37.75,36.0,15.25,24.5625,75.8125,87.0625,0
1776971509.227,2.1165,-6.4308,2.4732,0.292,-2.0672,-3.0257,-27.75,-16.2,22.2,5.8658,6.6559,-10.6015,1.8093,0.7352,-1.9849,-69.75,19.05,-33.3,4.76,4.24,-6.46,-0.3251,-3.4994,-1.6166,-37.75,36.0,15.25,25.1875,76.6875,95.3125,0
1776971509.232,2.1165,-6.4308,2.4732,0.292,-2.0672,-3.0257,-27.6,-13.8,22.05,5.8658,6.6559,-10.6015,0.4255,0.4029,-2.0283,-71.25,19.5,-34.05,4.76,4.24,-6.46,-0.3251,-3.4994,-1.6166,-37.75,36.0,15.25,25.9375,77.4375,105.1875,0
1776971509.24,2.6432,-6.1579,2.7701,0.3784,-2.1975,-3.2322,-27.6,-13.8,22.05,8.4108,2.4588,-1.9872,0.1735,-0.4034,-1.7483,-71.25,19.5,-34.05,5.84,3.86,-6.75,-0.216,-3.7274,-2.0355,-37.75,36.0,15.25,26.75,77.8125,117.1875,0
1776971509.25,2.5067,-5.2864,3.5458,0.4834,-2.444,-3.3761,-28.05,-13.95,22.2,8.497,-1.81,1.5467,0.1719,-0.226,-1.6835,-70.5,19.95,-32.85,6.49,3.31,-7.04,0.0131,-4.1692,-2.3366,-37.75,36.0,15.25,26.75,77.8125,117.1875,0
1776971509.254,2.5067,-5.2864,3.5458,0.4834,-2.444,-3.3761,-29.4,-12.0,21.3,8.497,-1.81,1.5467,0.1719,-0.226,-1.6835,-69.0,21.45,-32.85,6.49,3.31,-7.04,0.0131,-4.1692,-2.3366,-45.375,34.0,25.5625,27.5,77.5,130.6875,0
1776971509.259,2.7988,-4.7357,3.2034,0.5185,-2.7107,-3.4979,-29.4,-12.0,21.3,9.2057,-2.2314,2.4086,0.6965,-0.4676,-1.6289,-69.0,21.45,-32.85,7.67,1.6,-7.86,0.1865,-4.7222,-2.57,-45.375,34.0,25.5625,27.5,77.5,130.6875,0
1776971509.264,2.7988,-4.7357,3.2034,0.5185,-2.7107,-3.4979,-29.4,-9.75,21.0,9.2057,-2.2314,2.4086,0.6965,-0.4676,-1.6289,-69.45,21.45,-31.8,7.67,1.6,-7.86,0.1865,-4.7222,-2.57,-45.375,34.0,25.5625,28.4375,76.4375,144.0,0
1776971509.269,2.909,-4.8435,3.2848,0.6312,-2.9663,-3.6393,-29.4,-9.75,21.0,6.6966,-0.5626,0.0646,0.9217,-0.437,-1.5423,-69.45,21.45,-31.8,8.33,0.85,-8.25,0.1767,-5.2054,-2.7805,-45.375,34.0,25.5625,28.4375,76.4375,144.0,0
1776971509.274,2.909,-4.8435,3.2848,0.6312,-2.9663,-3.6393,-29.4,-9.75,21.0,6.6966,-0.5626,0.0646,0.9217,-0.437,-1.5423,-69.45,21.45,-31.8,8.33,0.85,-8.25,-0.0022,-5.6407,-2.9703,-45.375,34.0,25.5625,29.5625,74.5625,155.625,0
1776971509.28,3.2872,-4.6878,3.5769,0.9089,-3.181,-3.7979,-29.4,-9.75,21.0,6.9192,1.3024,-0.7207,0.8418,-0.0624,-1.3848,-69.45,21.45,-31.8,9.72,0.32,-8.87,-0.0022,-5.6407,-2.9703,-45.375,34.0,25.5625,31.125,72.0,165.0625,0
1776971509.289,2.9473,-4.7573,4.8602,1.0355,-3.3108,-3.901,-29.4,-8.55,19.2,6.7612,-0.237,-0.9529,0.9073,0.041,-1.255,-68.25,22.95,-32.85,10.2,0.03,-8.74,-0.3065,-5.9756,-3.1656,-45.375,34.0,25.5625,31.125,72.0,165.0625,0
1776971509.299,4.5753,-4.039,5.849,1.1762,-3.1533,-3.9775,-31.2,-7.8,18.15,6.8354,-0.51,0.0982,0.7629,0.2457,-1.0208,-69.15,22.5,-33.45,9.2,-0.42,-6.89,-0.6043,-6.1381,-3.3499,-45.375,34.0,25.5625,33.125,69.0,172.4375,0
1776971509.304,5.4372,-3.043,4.197,1.2582,-2.8138,-4.2226,-32.55,-4.8,16.65,6.7205,-1.0319,0.9266,0.7629,0.2457,-1.0208,-68.4,22.5,-34.2,9.2,-0.42,-6.89,-0.6043,-6.1381,-3.3499,-45.375,34.0,25.5625,33.125,69.0,172.4375,0
1776971509.309,5.4372,-3.043,4.197,1.2582,-2.8138,-4.2226,-31.35,-4.2,18.3,6.7205,-1.0319,0.9266,0.708,0.4498,-0.7735,-68.4,22.5,-34.2,8.22,-0.42,-5.15,-0.8454,-6.3006,-3.3881,-37.0,22.75,37.875,35.5625,65.6875,178.0625,0
1776971509.314,6.0214,-2.1955,0.656,1.8482,-2.5961,-4.5352,-31.35,-4.2,18.3,7.2161,-0.3711,1.6568,0.708,0.4498,-0.7735,-67.65,23.25,-34.2,8.22,-0.42,-5.15,-0.8454,-6.3006,-3.3881,-37.0,22.75,37.875,35.5625,65.6875,178.0625,0
1776971509.319,6.0214,-2.1955,0.656,1.8482,-2.5961,-4.5352,-31.35,-4.2,18.3,7.2161,-0.3711,1.6568,0.729,0.6078,-0.4855,-67.65,23.25,-34.2,7.55,-0.29,-3.83,-1.0134,-6.1861,-3.3369,-37.0,22.75,37.875,38.3125,62.25,-177.5625,0
1776971509.328,8.0972,-3.2322,-3.292,2.2791,-3.0265,-4.7835,-31.35,-4.2,18.3,6.7133,-0.5698,0.7829,0.5201,0.611,-0.1911,-69.15,22.5,-35.25,13.34,1.14,-5.42,-1.1585,-5.6974,-3.1863,-37.0,22.75,37.875,41.4375,59.0,-174.1875,0
1776971509.332,8.0972,-3.2322,-3.292,2.2791,-3.0265,-4.7835,-31.35,-4.2,18.3,6.7133,-0.5698,0.7829,0.5201,0.611,-0.1911,-67.95,23.85,-36.15,13.34,1.14,-5.42,-1.1585,-5.6974,-3.1863,-37.0,22.75,37.875,44.8125,55.9375,-171.25,0
1776971509.34,10.4507,-5.217,0.7829,2.2039,-3.6178,-4.8773,-31.5,0.0,12.45,5.5809,-1.1325,-1.6352,0.149,0.9843,0.0133,-67.95,23.85,-36.15,15.02,1.78,-7.59,-1.1552,-5.0658,-3.2659,-37.0,22.75,37.875,48.4375,53.0625,-168.625,0
1776971509.35,12.3948,-3.9768,3.2202,2.0936,-3.8805,-4.8784,-31.2,0.3,11.7,4.4245,-0.4836,-1.7382,-0.3206,1.7925,0.2627,-67.95,23.85,-36.15,16.69,2.47,-10.13,-1.0188,-4.6218,-3.5408,-37.0,22.75,37.875,48.4375,53.0625,-168.625,0
1776971509.354,15.6341,-4.8459,5.0781,1.8106,-3.5685,-4.2016,-31.2,0.3,11.7,3.5865,-2.1787,-1.3862,-1.1562,3.4131,0.5566,-70.5,26.1,-38.85,16.69,2.47,-10.13,-1.0188,-4.6218,-3.5408,-37.0,22.75,37.875,52.1875,50.3125,-166.3125,0
1776971509.36,15.6341,-4.8459,5.0781,1.8106,-3.5685,-4.2016,-32.55,2.25,11.7,3.5865,-2.1787,-1.3862,-1.1562,3.4131,0.5566,-70.5,26.1,-38.85,23.68,4.44,-15.21,-0.8159,-4.3622,-3.6128,-39.375,28.75,41.75,52.1875,50.3125,-166.3125,0
1776971509.364,16.7786,-3.5721,0.7159,0.7269,-2.4547,-3.1491,-32.55,2.25,11.7,12.7036,1.2019,-1.1899,-0.0829,1.4552,0.9582,-70.5,26.1,-38.85,23.68,4.44,-15.21,-0.8159,-4.3622,-3.6128,-39.375,28.75,41.75,52.1875,50.3125,-166.3125,0
1776971509.37,16.7786,-3.5721,0.7159,0.7269,-2.4547,-3.1491,-31.65,3.9,10.05,12.7036,1.2019,-1.1899,-0.0829,1.4552,0.9582,-70.5,26.1,-38.85,26.75,5.28,-15.36,-0.564,-4.3797,-3.5419,-39.375,28.75,41.75,55.875,47.4375,-164.5625,0
1776971509.374,17.4226,-2.7485,1.4198,0.9398,-2.7534,-2.8005,-31.65,3.9,10.05,9.7085,4.142,-2.6576,0.4914,-0.0045,1.2609,-73.65,26.55,-38.4,26.75,5.28,-15.36,-0.2825,-4.7484,-3.4601,-39.375,28.75,41.75,59.6875,44.375,-163.25,0
1776971509.38,17.4226,-2.7485,1.4198,0.9398,-2.7534,-2.8005,-31.65,3.9,10.05,9.7085,4.142,-2.6576,0.4914,-0.0045,1.2609,-73.65,26.55,-38.4,26.86,5.91,-13.34,-0.2825,-4.7484,-3.4601,-39.375,28.75,41.75,25.375,41.0625,-162.375,0
1776971509.39,14.1689,-0.4429,-1.1253,0.8569,-3.456,-2.6135,-31.65,6.45,9.0,10.8577,6.213,-1.8675,0.8828,-0.632,1.2734,-73.8,24.75,-39.3,25.17,5.75,-10.87,0.0742,-5.2622,-3.4198,-39.375,28.75,41.75,23.8125,37.5625,-161.9375,0
1776971509.4,9.0429,-0.6536,0.9433,0.8767,-3.8453,-2.6513,-29.85,6.15,5.85,7.4316,7.3909,-2.1189,0.9257,-0.6504,1.2422,-72.6,23.55,-37.5,22.15,1.57,-6.13,0.4254,-5.5392,-3.3739,-39.375,28.75,41.75,23.8125,37.5625,-161.9375,0
1776971509.405,8.1475,-1.1875,1.6233,1.3853,-3.3833,-2.6636,-29.85,6.15,5.85,5.6958,8.1163,-1.8435,0.6952,0.061,1.1394,-72.9,22.65,-38.85,22.15,1.57,-6.13,0.4254,-5.5392,-3.3739,-39.375,28.75,41.75,22.25,34.0625,-161.6875,0
1776971509.41,8.1475,-1.1875,1.6233,1.3853,-3.3833,-2.6636,-29.4,7.05,5.25,5.6958,8.1163,-1.8435,0.6952,0.061,1.1394,-72.9,22.65,-38.85,20.91,-2.41,-5.68,0.6556,-5.4465,-3.4328,-43.25,2.6875,68.6875,22.25,34.0625,-161.6875,0
1776971509.414,11.169,0.2203,2.0231,1.6236,-2.7371,-2.3427,-29.4,7.05,5.25,6.9432,8.5521,0.9768,1.0091,0.2385,1.0096,-73.35,23.55,-37.95,20.91,-2.41,-5.68,0.6556,-5.4465,-3.4328,-43.25,2.6875,68.6875,20.625,30.75,-161.3125,0
1776971509.42,11.169,0.2203,2.0231,1.6236,-2.7371,-2.3427,-29.85,8.4,4.05,4.8411,7.3334,0.9098,1.0091,0.2385,1.0096,-73.35,23.55,-37.95,20.67,-2.52,-5.34,0.5094,-5.152,-3.5867,-43.25,2.6875,68.6875,20.625,30.75,-161.3125,0
1776971509.428,12.1099,0.3687,3.2537,1.5343,-2.8517,-2.1629,-28.5,8.7,3.6,4.8411,7.3334,0.9098,1.3675,0.5438,0.8756,-73.05,23.55,-37.95,20.49,-0.89,-5.12,0.1353,-4.9055,-3.5528,-43.25,2.6875,68.6875,19.0625,27.5625,-160.875,0
1776971509.433,10.2999,0.8452,-1.3288,0.5745,-2.9825,-2.0821,-28.5,8.7,3.6,5.2481,6.8426,0.1269,1.1463,1.073,0.8351,-73.05,23.55,-37.95,20.49,-0.89,-5.12,0.1353,-4.9055,-3.5528,-43.25,2.6875,68.6875,17.625,24.5,-160.5,0
1776971509.44,9.6055,-0.3974,-4.889,0.5255,-2.7949,-1.8623,-28.5,8.7,3.6,8.4108,7.9009,-1.008,0.574,0.7943,0.8633,-73.05,23.55,-37.95,20.19,-1.93,-3.95,0.1549,-4.6415,-3.2867,-43.25,2.6875,68.6875,16.3125,21.75,-160.5625,0
1776971509.45,7.2808,-1.0822,-4.3718,0.951,-2.1045,-1.6249,-26.7,8.7,1.2,9.4403,8.0254,-2.4828,-0.1532,0.2856,0.8772,-74.4,21.0,-38.85,20.87,-2.84,-1.66,0.685,-4.2793,-2.9038,-43.25,2.6875,68.6875,16.3125,21.75,-160.5625,0
1776971509.455,7.2808,-1.0822,-4.3718,0.951,-2.1045,-1.6249,-26.7,8.7,1.2,9.4403,8.0254,-2.4828,-0.1532,0.2856,0.8772,-74.4,21.0,-38.85,20.87,-2.84,-1.66,0.685,-4.2793,-2.9038,-43.25,2.6875,68.6875,16.3125,21.75,-160.5625,0
1776971509.46,6.8091,-0.1221,-2.9233,0.5641,-1.6025,-1.2193,-26.25,9.9,-0.15,8.8609,8.0373,-3.0861,-0.3443,-0.118,0.8548,-74.4,21.0,-38.85,15.75,-3.48,5.78,1.2381,-3.9204,-2.3278,-11.6875,-0.75,57.75,15.25,19.25,-161.0625,0
1776971509.465,6.8091,-0.1221,-2.9233,0.5641,-1.6025,-1.2193,-26.25,9.9,-0.15,8.8609,8.0373,-3.0861,-0.3443,-0.118,0.8548,-75.3,22.05,-39.3,15.75,-3.48,5.78,1.2381,-3.9204,-2.3278,-11.6875,-0.75,57.75,15.25,19.25,-161.0625,0
1776971509.47,4.853,0.7518,-2.3032,-0.1391,-1.0768,-0.8178,-25.5,9.9,-0.15,7.3143,8.2863,-3.316,-0.2118,-0.2156,0.8615,-75.3,22.05,-39.3,17.13,-6.89,7.79,1.3723,-3.7699,-1.7126,-11.6875,-0.75,57.75,14.5,17.0,-161.75,0
1776971509.476,4.853,0.7518,-2.3032,-0.1391,-1.0768,-0.8178,-25.5,9.9,-0.15,7.3143,8.2863,-3.316,-0.2118,-0.2156,0.8615,-75.9,19.95,-38.1,17.1,-9.16,10.12,1.0897,-2.8885,-1.2577,-11.6875,-0.75,57.75,13.9375,15.25,-162.3125,0
1776971509.481,4.446,2.4924,-3.474,-0.587,-0.2595,-0.4247,-24.75,10.65,0.15,7.2808,8.6359,-3.5243,-0.0112,-0.1367,0.8055,-75.9,19.95,-38.1,17.1,-9.16,10.12,1.0897,-2.8885,-1.2577,-11.6875,-0.75,57.75,13.6875,14.0,-162.375,0
1776971509.49,4.4796,4.3,-3.1508,-0.5966,0.2126,-0.0067,-25.95,11.4,-0.75,7.7644,9.5313,-3.1987,0.2513,-0.134,0.6845,-74.55,20.4,-37.95,16.63,-7.74,11.07,0.0905,-2.0889,-0.7843,-11.6875,-0.75,57.75,13.625,13.0625,-161.875,0
1776971509.5,4.5011,5.5258,-2.2338,-0.2931,0.6931,0.4013,-25.95,11.4,-0.75,8.5018,9.8689,-2.1835,0.1748,-0.2952,0.4804,-74.55,19.65,-39.3,16.63,-2.56,11.39,-0.9076,-1.6024,-0.4996,-11.6875,-0.75,57.75,13.625,13.0625,-161.875,0
1776971509.505,4.5011,5.5258,-2.2338,-0.2931,0.6931,0.4013,-25.95,11.4,-0.75,8.5018,9.8689,-2.1835,0.1748,-0.2952,0.4804,-74.1,19.35,-38.55,16.63,-2.56,11.39,-0.9076,-1.6024,-0.4996,-11.6875,-0.75,57.75,13.625,12.5,-161.375,0
1776971509.51,5.8131,4.4819,-2.1428,0.1114,1.0701,0.7525,-25.5,10.2,2.55,8.3462,9.3422,-1.2426,0.1354,-0.4557,0.2324,-74.1,19.35,-38.55,16.19,-1.19,11.49,-0.8628,-0.9643,-0.2662,-8.0625,2.875,56.25,13.625,12.5,-161.375,0
1776971509.515,5.8131,4.4819,-2.1428,0.1114,1.0701,0.7525,-25.5,10.2,2.55,8.3462,9.3422,-1.2426,0.1354,-0.4557,0.2324,-74.55,17.7,-38.25,16.19,-1.19,11.49,-0.8628,-0.9643,-0.2662,-8.0625,2.875,56.25,13.6875,12.3125,-161.3125,0
1776971509.52,6.3614,2.0614,-1.9249,0.6656,1.3121,1.0387,-25.65,11.25,1.05,7.9751,7.8602,-0.5531,0.2992,-0.396,0.04,-74.55,17.7,-38.25,14.96,-0.81,11.4,-0.1254,-0.4134,0.0436,-8.0625,2.875,56.25,13.6875,12.3125,-161.3125,0
1776971509.53,8.0062,1.5754,2.1069,1.2764,1.6236,1.2111,-27.3,9.9,2.55,7.6231,8.4994,-0.5076,0.8037,-0.3277,0.0437,-74.55,17.7,-38.25,14.26,-2.4,7.34,0.6818,0.2793,0.3109,-8.0625,2.875,56.25,13.75,12.5,-161.75,0
1776971509.54,11.1163,0.1125,0.1532,0.7349,2.3062,1.2668,-27.75,9.15,3.0,8.1211,8.655,-2.332,1.0637,-0.4759,0.3533,-74.85,17.4,-36.0,3.77,-7.8,4.6,1.2414,1.0341,0.4396,-8.0625,2.875,56.25,13.875,13.125,-162.4375,0
1776971509.549,14.1282,2.1931,-1.8268,1.0901,2.3363,0.9425,-27.75,9.15,3.0,9.5624,8.023,-1.5347,1.4629,-0.3922,0.7296,-74.4,15.15,-34.35,0.12,7.74,-12.43,1.3264,1.7322,1.1421,-8.0625,2.875,56.25,14.25,14.25,-163.25,0
1776971509.554,14.1282,2.1931,-1.8268,1.0901,2.3363,0.9425,-27.75,9.15,3.0,12.0859,6.3805,-2.7366,1.4629,-0.3922,0.7296,-75.15,16.8,-35.1,0.12,7.74,-12.43,1.3264,1.7322,1.1421,-8.0625,2.875,56.25,14.25,14.25,-163.25,0
1776971509.559,16.0651,1.1899,-8.9759,0.2204,2.1629,0.6744,-29.1,8.7,4.35,12.0859,6.3805,-2.7366,1.2033,-0.4274,1.3081,-75.15,16.8,-35.1,0.3,7.41,-20.22,1.4977,2.6431,1.2785,-8.0625,2.5625,60.0625,14.625,15.8125,-164.1875,0
1776971509.564,16.0651,1.1899,-8.9759,0.2204,2.1629,0.6744,-29.1,8.7,4.35,13.951,2.2841,-1.4772,1.2033,-0.4274,1.3081,-75.15,16.8,-35.1,0.3,7.41,-20.22,1.4977,2.6431,1.2785,-8.0625,2.5625,60.0625,14.625,15.8125,-164.1875,0
1776971509.569,15.8544,-2.3367,-10.7883,1.3376,1.1002,0.3837,-28.5,7.65,6.15,13.951,2.2841,-1.4772,1.0501,-0.364,1.4549,-73.65,14.4,-35.1,-0.02,-5.52,-3.6,1.0701,3.3499,1.6384,-8.0625,2.5625,60.0625,15.25,17.875,-164.875,0
1776971509.573,15.8544,-2.3367,-10.7883,1.3376,1.1002,0.3837,-28.5,7.65,6.15,14.5256,-1.3599,-1.8771,1.0501,-0.364,1.4549,-73.65,14.4,-35.1,-0.02,-5.52,-3.6,1.0701,3.3499,1.6384,-8.0625,2.5625,60.0625,15.4375,19.5625,-165.6875,0
1776971509.581,13.1154,-2.7653,-4.9392,1.8562,0.9657,0.4549,-29.7,7.5,7.05,14.5256,-1.3599,-1.8771,1.6883,-0.3877,1.2993,-74.4,13.65,-34.8,-0.92,2.7,-4.14,1.4028,2.9038,1.0287,-8.0625,2.5625,60.0625,15.0625,21.375,-166.0,0
1776971509.59,13.5703,-3.0909,-1.8244,1.0301,1.2412,0.9054,-29.85,7.65,6.9,14.0803,-0.3855,-4.0701,2.1477,-0.5375,1.06,-74.1,11.1,-33.75,11.28,3.47,-10.3,0.9338,3.4252,-0.1538,-8.0625,2.5625,60.0625,15.0625,21.375,-166.0,0
1776971509.6,12.6414,-1.2689,-2.0063,0.4815,1.3113,1.1754,-29.7,6.0,7.05,13.5655,2.7605,-5.6431,1.6742,-0.3056,0.671,-74.1,11.1,-33.75,11.37,-2.3,-10.89,0.3676,4.7822,-0.4549,-8.0625,2.5625,60.0625,14.4375,23.875,-165.875,0
1776971509.605,13.1777,-0.2466,-1.4868,0.4167,1.5916,1.2561,-29.7,6.0,7.05,12.9957,3.1699,-3.7397,1.3568,-0.0845,0.3413,-73.35,8.4,-31.95,11.37,-2.3,-10.89,0.3676,4.7822,-0.4549,-8.0625,2.5625,60.0625,14.4375,23.875,-165.875,0
1776971509.61,13.1777,-0.2466,-1.4868,0.4167,1.5916,1.2561,-29.7,6.0,7.05,12.9957,3.1699,-3.7397,1.3568,-0.0845,0.3413,-73.35,8.4,-31.95,8.38,0.97,-11.32,0.0633,4.7506,-0.6927,-16.5625,7.1875,60.0625,13.75,26.375,-165.375,0
1776971509.615,12.3062,1.0654,2.3487,1.3158,1.5436,1.2359,-30.75,3.75,9.6,13.2088,2.0351,-2.5067,1.5524,-0.0211,0.1178,-73.35,8.4,-31.95,8.38,0.97,-11.32,0.0633,4.7506,-0.6927,-16.5625,7.1875,60.0625,13.75,26.375,-165.375,0
1776971509.62,12.3062,1.0654,2.3487,1.3158,1.5436,1.2359,-30.75,3.75,9.6,13.2088,2.0351,-2.5067,1.5524,-0.0211,0.1178,-73.35,8.4,-31.95,13.82,0.06,-15.25,-0.1451,4.4484,-0.4461,-16.5625,7.1875,60.0625,13.1875,28.6875,-164.875,0
1776971509.628,12.2942,2.6169,5.6695,2.0494,1.8309,1.1711,-31.65,3.15,9.75,11.6286,-0.5938,-0.6871,1.5167,-0.1615,0.0773,-73.2,6.15,-31.35,22.22,7.06,-13.75,0.2105,4.5597,-0.2771,-16.5625,7.1875,60.0625,12.6875,31.0625,-164.5,0
1776971509.633,10.5608,2.387,5.5593,2.8477,1.7579,0.9667,-31.65,3.15,9.75,8.7676,-2.2529,2.6432,0.676,-0.215,0.1514,-73.2,6.15,-31.35,22.22,7.06,-13.75,0.2105,4.5597,-0.2771,-16.5625,7.1875,60.0625,12.375,33.5625,-164.8125,0
1776971509.641,10.5608,2.387,5.5593,2.8477,1.7579,0.9667,-30.15,2.25,11.4,7.6614,-4.616,3.8523,0.676,-0.215,0.1514,-73.95,5.4,-29.85,14.64,6.86,-3.66,1.0886,4.5379,0.2716,-16.5625,7.1875,60.0625,12.25,35.75,-165.5625,0
1776971509.65,8.8538,0.5842,3.9193,2.9604,1.5639,0.7456,-31.95,1.05,10.95,8.3222,-5.6312,2.4325,-0.0666,0.0962,0.2848,-73.05,3.3,-28.65,10.27,0.04,-9.12,1.633,3.8692,0.7439,-16.5625,7.1875,60.0625,12.25,35.75,-165.5625,0
1776971509.655,7.2305,-3.1196,3.8427,2.9362,1.2375,0.4631,-31.95,-0.3,12.45,8.3222,-5.6312,2.4325,-0.3853,0.4506,0.5375,-73.05,3.3,-28.65,10.27,0.04,-9.12,1.633,3.8692,0.7439,-16.5625,7.1875,60.0625,12.3125,37.125,-166.4375,0
1776971509.66,7.2305,-3.1196,3.8427,2.9362,1.2375,0.4631,-31.95,-0.3,12.45,9.2129,-3.7565,0.7087,-0.3853,0.4506,0.5375,-73.05,3.6,-27.9,8.64,-2.84,-9.73,1.3243,2.3933,0.8018,-33.6875,7.0,59.5625,12.3125,37.125,-166.4375,0
1776971509.665,7.8793,-4.6663,2.162,3.1243,1.008,0.182,-31.95,-0.3,12.45,9.2129,-3.7565,0.7087,-0.6624,0.6302,0.8106,-73.2,3.45,-27.75,8.64,-2.84,-9.73,1.3243,2.3933,0.8018,-33.6875,7.0,59.5625,12.4375,38.25,-167.1875,0
1776971509.67,7.8793,-4.6663,2.162,3.1243,1.008,0.182,-31.95,-0.3,12.45,10.4028,-1.5826,1.0247,-0.6624,0.6302,0.8106,-73.2,3.45,-27.75,8.88,2.11,-7.56,1.1006,1.9362,0.7887,-33.6875,7.0,59.5625,12.4375,38.25,-167.1875,0
1776971509.675,8.3653,-6.6702,3.7014,2.8959,0.7861,-0.0946,-32.85,-1.65,13.95,10.4028,-1.5826,1.0247,-1.0608,0.8553,1.0008,-73.2,3.45,-27.75,8.88,2.11,-7.56,0.9796,1.8751,0.7003,-33.6875,7.0,59.5625,12.5,39.375,-167.8125,0
1776971509.681,8.3653,-6.6702,3.7014,2.8959,0.7861,-0.0946,-32.85,-1.65,13.95,10.9223,0.0622,2.4852,-1.0448,0.9505,1.0912,-72.9,4.2,-27.0,10.0,0.34,-8.62,0.9796,1.8751,0.7003,-33.6875,7.0,59.5625,12.625,40.3125,-168.4375,0
1776971509.69,9.8904,-7.0246,5.2672,1.8255,1.1703,-0.044,-34.95,-2.4,16.5,10.9942,1.1325,2.5594,-0.6462,0.902,1.1034,-72.9,4.2,-27.0,10.67,-3.02,-10.69,0.8149,1.6122,0.6654,-33.6875,7.0,59.5625,12.625,40.3125,-168.4375,0
1776971509.7,12.6677,-5.6695,4.8147,0.34,1.6473,0.1969,-33.75,-1.05,17.7,10.9271,1.9273,0.838,-0.3216,0.7474,1.0592,-75.3,2.85,-27.15,7.08,0.62,-7.43,0.7418,1.2228,0.4691,-33.6875,7.0,59.5625,12.6875,41.0,-168.9375,0
1776971509.705,14.4299,-4.9775,3.6009,-1.5481,1.4981,0.53,-33.6,-0.9,17.85,10.9271,1.9273,0.838,-0.3216,0.7474,1.0592,-75.3,2.85,-27.15,7.08,0.62,-7.43,0.7418,1.2228,0.4691,-33.6875,7.0,59.5625,12.6875,41.0,-168.9375,0
1776971509.71,14.4299,-4.9775,3.6009,-1.5481,1.4981,0.53,-33.6,-0.9,17.85,10.2951,0.9888,-0.3903,-0.1196,0.6342,1.0541,-75.3,2.85,-27.15,5.91,3.12,-7.01,0.3916,0.8127,0.2803,-43.1875,12.1875,55.75,12.75,41.5,-169.25,0
1776971509.715,12.3182,-2.9904,0.2969,-2.9351,1.0754,0.7298,-33.6,-0.9,17.85,10.2951,0.9888,-0.3903,-0.1196,0.6342,1.0541,-75.3,2.85,-27.15,5.91,3.12,-7.01,0.3916,0.8127,0.2803,-43.1875,12.1875,55.75,12.75,41.5,-169.25,0
1776971509.72,10.3932,-2.7749,-2.0518,-2.3649,0.6358,0.7994,-33.6,-0.9,17.85,9.8043,1.1732,-0.7326,-0.0597,0.607,1.0451,-75.45,2.25,-26.55,7.08,0.28,-7.67,0.276,0.6403,0.228,-43.1875,12.1875,55.75,12.75,41.875,-169.4375,0
1776971509.727,10.3932,-2.7749,-2.0518,-2.3649,0.6358,0.7994,-33.6,-0.9,17.85,9.572,1.5323,-0.7709,-0.0597,0.607,1.0451,-75.45,3.0,-26.25,6.72,0.94,-7.23,0.2531,0.6032,0.2258,-43.1875,12.1875,55.75,12.8125,42.25,-169.625,0
1776971509.732,8.9783,1.4246,-1.9848,-1.5945,0.7218,0.7898,-33.6,-0.9,17.85,9.572,1.5323,-0.7709,-0.036,0.4956,1.0653,-75.45,3.0,-26.25,6.72,0.94,-7.23,0.2531,0.6032,0.2258,-43.1875,12.1875,55.75,12.875,42.4375,-169.75,0
1776971509.74,9.153,2.8515,-1.6664,-0.9049,0.8444,0.7933,-34.05,1.05,16.65,9.5265,0.7997,-0.8715,0.061,0.4112,1.1032,-76.05,2.85,-26.1,6.8,1.0,-7.19,0.1331,0.396,0.2051,-43.1875,12.1875,55.75,12.9375,42.5625,-169.9375,0
1776971509.75,10.0556,2.3463,-0.747,-0.4042,0.9443,0.7301,-34.65,-0.15,17.55,9.5146,0.3208,-0.3065,0.0155,0.319,1.1815,-76.05,1.35,-26.4,7.15,0.2,-7.45,0.1167,0.0982,0.204,-43.1875,12.1875,55.75,12.9375,42.5625,-169.9375,0
1776971509.755,10.0556,2.3463,-0.747,-0.4042,0.9443,0.7301,-34.5,-1.5,15.6,9.5146,0.3208,-0.3065,0.0155,0.319,1.1815,-76.05,1.35,-26.4,7.15,0.2,-7.45,0.1167,0.0982,0.204,-43.1875,12.1875,55.75,13.0625,42.5,-170.0625,0
1776971509.76,9.9886,1.6568,-0.3232,-0.0504,0.9976,0.6675,-34.5,-1.5,15.6,9.5744,0.3328,0.0024,-0.0797,0.2577,1.2593,-76.8,0.45,-25.65,6.64,0.4,-7.56,0.1134,-0.0862,0.1953,-46.375,13.75,54.0625,13.0625,42.5,-170.0625,0
1776971509.765,9.9886,1.6568,-0.3232,-0.0504,0.9976,0.6675,-34.05,-1.5,19.2,9.5744,0.3328,0.0024,-0.0797,0.2577,1.2593,-76.8,0.45,-25.65,6.64,0.4,-7.56,0.1134,-0.0862,0.1953,-46.375,13.75,54.0625,13.125,42.5,-170.1875,0
1776971509.77,9.7875,1.3431,-0.6704,0.2393,0.9848,0.6672,-34.05,-1.5,19.2,9.2656,0.7733,-0.0239,-0.3336,0.1732,1.347,-76.05,0.9,-27.15,6.14,0.4,-7.66,0.0611,-0.0469,0.1691,-46.375,13.75,54.0625,13.125,42.5,-170.1875,0
1776971509.776,9.7875,1.3431,-0.6704,0.2393,0.9848,0.6672,-34.05,-1.5,19.2,8.8585,1.4964,0.0646,-0.3336,0.1732,1.347,-76.05,0.9,-27.15,6.14,0.4,-7.66,0.096,0.2891,0.0676,-46.375,13.75,54.0625,13.125,42.6875,-170.25,0
1776971509.781,9.5457,-0.146,0.2969,0.1908,0.8306,0.5937,-34.05,-1.5,19.2,8.8585,1.4964,0.0646,-0.607,0.17,1.3984,-76.05,0.9,-27.15,5.94,0.56,-7.3,0.096,0.2891,0.0676,-46.375,13.75,54.0625,13.125,42.9375,-170.3125,0
1776971509.79,9.8713,-1.1205,-0.1389,-0.1106,0.8836,0.5236,-33.3,-2.55,18.75,8.5617,1.7262,-0.9122,-0.87,0.211,1.4432,-77.25,-0.15,-26.1,6.14,1.11,-7.2,0.1124,0.4996,0.0415,-46.375,13.75,54.0625,13.125,43.1875,-170.375,0
1776971509.8,9.6055,-1.5323,-0.5986,-0.453,0.8572,0.5446,-34.65,-3.9,19.05,8.0038,1.64,-0.9529,-0.9363,0.1905,1.4432,-76.65,0.75,-27.3,6.91,1.2,-6.95,0.108,0.4821,0.0894,-46.375,13.75,54.0625,13.125,43.1875,-170.375,0
1776971509.805,9.6055,-1.5323,-0.5986,-0.453,0.8572,0.5446,-34.2,-3.45,19.05,8.2217,1.4557,-1.4006,-0.9723,0.2158,1.4472,-76.65,0.75,-27.3,6.91,1.2,-6.95,0.108,0.4821,0.0894,-46.375,13.75,54.0625,13.125,43.1875,-170.375,0
1776971509.81,9.2751,-1.0008,-1.2665,-0.7826,0.9355,0.5241,-34.2,-3.45,19.05,8.2217,1.4557,-1.4006,-0.9723,0.2158,1.4472,-76.95,-1.05,-27.0,7.17,0.48,-6.96,0.0698,0.4298,0.1505,-46.6875,14.0625,53.75,13.1875,43.4375,-170.4375,0
1776971509.815,9.2751,-1.0008,-1.2665,-0.7826,0.9355,0.5241,-35.1,-4.5,19.5,8.5281,1.6496,-0.8284,-0.918,0.1807,1.5412,-76.95,-1.05,-27.0,7.17,0.48,-6.96,0.0698,0.4298,0.1505,-46.6875,14.0625,53.75,13.1875,43.4375,-170.4375,0
1776971509.82,9.3709,0.0599,-1.3288,-0.9401,0.9246,0.5079,-34.8,-3.75,19.5,8.5281,1.6496,-0.8284,-0.918,0.1807,1.5412,-78.15,-1.95,-27.3,6.81,0.21,-7.17,-0.0556,0.4243,0.1909,-46.6875,14.0625,53.75,13.25,43.6875,-170.5,0
1776971509.828,9.4379,1.3431,-1.3551,-0.9132,0.8604,0.5113,-34.8,-3.75,20.25,8.2791,1.9201,-0.8715,-0.9169,0.1026,1.7064,-77.4,-0.3,-26.55,6.82,0.57,-7.1,-0.2422,0.3632,0.1953,-46.6875,14.0625,53.75,13.4375,43.9375,-170.4375,0
1776971509.833,9.4379,1.3431,-1.3551,-0.9132,0.8604,0.5113,-34.8,-3.75,20.25,8.6119,2.0566,-0.5411,-0.9169,0.1026,1.7064,-77.4,-0.3,-26.55,6.82,0.57,-7.1,-0.2422,0.3632,0.1953,-46.6875,14.0625,53.75,33.3125,44.125,-170.25,0
1776971509.841,9.5409,2.071,-1.1444,-0.8172,0.8612,0.5169,-33.75,-3.3,21.6,8.6119,2.0566,-0.5411,-0.8956,-0.0562,1.8612,-78.9,-2.25,-26.55,6.98,0.69,-6.87,-0.4178,0.3534,0.1734,-46.6875,14.0625,53.75,33.8125,44.375,-170.0,0
1776971509.851,9.4858,2.1931,-1.2617,-0.7181,0.814,0.5084,-34.2,-4.65,21.45,8.2313,2.6073,-0.4046,-0.9371,-0.1348,1.9177,-78.9,-2.25,-26.55,6.49,0.97,-6.95,-0.5105,0.4025,0.1494,-46.6875,14.0625,53.75,33.8125,44.375,-170.0,0
1776971509.855,9.2512,2.2505,-1.1085,-0.5596,0.7778,0.5028,-34.2,-4.65,21.45,7.4101,3.213,0.4573,-0.7701,-0.0845,1.9604,-78.9,-2.25,-26.55,6.49,0.97,-6.95,-0.5105,0.4025,0.1494,-46.6875,14.0625,53.75,33.8125,44.375,-170.0,0
1776971509.86,9.2512,2.2505,-1.1085,-0.5596,0.7778,0.5028,-33.15,-4.65,20.4,7.4101,3.213,0.4573,-0.7701,-0.0845,1.9604,-78.15,-3.9,-24.75,6.64,1.03,-7.25,-0.4483,0.3578,0.2083,-48.0,13.75,53.75,34.1875,44.5625,-169.875,0
1776971509.865,9.3446,2.0016,-0.8978,-0.5087,0.8108,0.5132,-33.15,-4.65,20.4,8.5377,3.3686,0.6608,-0.66,-0.0099,1.9505,-78.15,-3.9,-24.75,6.64,1.03,-7.25,-0.4483,0.3578,0.2083,-48.0,13.75,53.75,34.1875,44.5625,-169.875,0
1776971509.87,9.3446,2.0016,-0.8978,-0.5087,0.8108,0.5132,-34.95,-4.2,22.2,8.5377,3.3686,0.6608,-0.66,-0.0099,1.9505,-78.15,-3.9,-24.75,7.12,1.35,-6.61,-0.4483,0.3578,0.2083,-48.0,13.75,53.75,34.5625,44.8125,-169.6875,0
1776971509.875,9.9359,1.5658,-0.7733,-0.5103,0.7639,0.5135,-34.95,-4.2,22.2,7.683,2.6001,0.0742,-0.5478,0.0437,1.926,-78.15,-3.9,-24.75,7.12,1.35,-6.61,-0.2934,0.4123,0.1058,-48.0,13.75,53.75,34.8125,45.0625,-169.5,0
1776971509.881,9.9359,1.5658,-0.7733,-0.5103,0.7639,0.5135,-34.95,-4.2,22.2,8.0397,2.9185,0.9266,-0.5478,0.0437,1.926,-76.5,-6.0,-23.4,6.74,1.13,-7.05,-0.2934,0.4123,0.1058,-48.0,13.75,53.75,34.9375,45.25,-169.4375,0
1776971509.891,9.8641,1.3599,-0.8739,-0.4716,0.6241,0.4956,-34.95,-4.2,22.2,9.7659,2.3272,0.103,-0.3246,0.1466,1.9025,-76.65,-5.85,-22.95,8.03,0.71,-7.24,-0.2487,0.3949,0.1887,-48.0,13.75,53.75,34.9375,45.25,-169.4375,0
1776971509.901,9.7157,1.0942,-0.9601,-0.5441,0.5726,0.5023,-33.6,-4.65,22.2,8.9136,2.15,0.7949,-0.134,0.3139,1.7992,-77.4,-6.9,-24.3,7.11,1.34,-6.95,-0.3207,0.2313,0.2814,-48.0,13.75,53.75,35.125,45.4375,-169.4375,0
1776971509.905,9.7133,1.087,-0.8523,-0.5934,0.563,0.5265,-33.6,-4.65,22.2,8.9136,2.15,0.7949,0.057,0.3541,1.7576,-77.4,-6.9,-24.3,7.11,1.34,-6.95,-0.3207,0.2313,0.2814,-48.0,13.75,53.75,35.25,45.5625,-169.4375,0
1776971509.91,9.7133,1.087,-0.8523,-0.5934,0.563,0.5265,-34.65,-4.65,23.25,9.6103,2.0063,0.5435,0.2454,0.3355,1.7706,-77.4,-7.8,-22.5,6.9,1.02,-7.13,-0.2651,0.1385,0.2923,-48.6875,13.375,53.375,35.25,45.5625,-169.4375,0
1776971509.915,9.9024,0.6943,-0.838,-0.506,0.6267,0.5257,-34.65,-4.65,23.25,9.6103,2.0063,0.5435,0.2454,0.3355,1.7706,-77.4,-7.8,-22.5,6.9,1.02,-7.13,-0.2651,0.1385,0.2923,-48.6875,13.375,53.375,35.1875,45.75,-169.4375,0
1776971509.92,9.9024,0.6943,-0.838,-0.506,0.6267,0.5257,-33.75,-3.75,21.6,9.7612,0.3424,-0.3639,0.2984,0.3776,1.7626,-77.4,-8.1,-23.25,6.41,0.78,-7.28,-0.1102,0.3076,0.1942,-48.6875,13.375,53.375,35.1875,45.75,-169.4375,0
1776971509.927,9.8881,0.6297,-0.2729,-0.5324,0.6403,0.6046,-33.75,-3.75,21.6,9.7612,0.3424,-0.3639,0.2984,0.3776,1.7626,-77.4,-8.1,-23.25,7.03,0.83,-6.58,-0.0055,0.5629,0.1014,-48.6875,13.375,53.375,35.0625,46.0625,-169.4375,0
1776971509.932,9.8881,0.6297,-0.2729,-0.5324,0.6403,0.6046,-35.7,-4.65,22.95,11.0205,-0.9864,-1.4892,0.2441,0.4679,1.7616,-76.65,-9.3,-25.05,7.03,0.83,-6.58,-0.0055,0.5629,0.1014,-48.6875,13.375,53.375,34.875,46.375,-169.375,0
1776971509.941,10.6566,-0.3687,-0.5291,-0.4141,0.737,0.6278,-35.7,-4.65,22.95,10.7859,-0.1125,-1.3599,0.2076,0.57,1.7634,-76.65,-9.3,-25.05,6.42,0.64,-7.36,-0.0622,0.625,0.1287,-48.6875,13.375,53.375,34.875,46.375,-169.375,0
1776971509.951,10.4698,-0.9026,-0.0551,-0.356,0.6102,0.5947,-34.5,-6.3,22.8,9.0405,0.0072,-0.1796,0.1831,0.5265,1.7802,-78.15,-10.5,-24.0,6.31,0.6,-7.03,-0.1724,0.6752,0.1734,-48.6875,13.375,53.375,34.875,46.8125,-169.3125,0
1776971509.956,9.7396,-1.1851,-0.0982,-0.2156,0.6342,0.6113,-34.5,-6.3,22.8,9.0405,0.0072,-0.1796,0.1831,0.5265,1.7802,-78.15,-10.5,-24.0,6.31,0.6,-7.03,-0.1724,0.6752,0.1734,-48.6875,13.375,53.375,34.875,46.8125,-169.3125,0
1776971509.961,9.7396,-1.1851,-0.0982,-0.2156,0.6342,0.6113,-36.6,-6.75,23.1,9.8258,-1.1875,-1.7957,-0.0464,0.4831,1.7261,-78.15,-10.5,-24.0,6.66,0.96,-7.28,-0.2083,0.8661,0.1429,-49.6875,13.375,53.1875,34.875,47.25,-169.1875,0
1776971509.965,9.0357,-1.6712,0.5171,-0.1388,0.6254,0.6456,-36.6,-6.75,23.1,9.8258,-1.1875,-1.7957,-0.0464,0.4831,1.7261,-78.15,-10.5,-24.0,6.66,0.96,-7.28,-0.2083,0.8661,0.1429,-49.6875,13.375,53.1875,34.875,47.25,-169.1875,0
1776971509.971,9.0357,-1.6712,0.5171,-0.1388,0.6254,0.6456,-34.65,-6.9,24.3,10.1538,-0.2753,-0.51,0.0123,0.6203,1.5215,-78.0,-11.4,-25.65,7.29,0.18,-7.09,-0.2302,0.9032,0.0829,-49.6875,13.375,53.1875,34.9375,47.75,-169.0,0
1776971509.975,9.1435,-1.3024,0.0742,0.1458,0.7941,0.7266,-34.65,-6.9,24.3,10.1538,-0.2753,-0.51,0.0123,0.6203,1.5215,-78.0,-11.4,-25.65,7.29,0.18,-7.09,-0.1658,0.9839,-0.0436,-49.6875,13.375,53.1875,34.9375,48.3125,-168.8125,0
1776971509.982,8.6119,-1.2426,1.3096,0.0514,0.7027,0.7653,-36.0,-7.95,25.05,10.6207,-0.9792,-0.3352,0.0386,0.5489,1.2937,-78.15,-12.45,-24.75,7.9,0.93,-6.21,-0.1658,0.9839,-0.0436,-49.6875,13.375,53.1875,34.9375,48.8125,-168.5625,0
1776971509.991,8.4563,-1.403,1.7597,-0.0037,0.664,0.7117,-35.55,-7.05,24.45,10.8409,-0.7661,-0.2801,-0.0714,0.7,0.98,-77.55,-12.3,-25.65,7.97,1.0,-6.44,-0.12,0.9774,-0.0993,-49.6875,13.375,53.1875,34.9375,49.3125,-168.25,0
1776971510.001,9.3039,-1.154,1.8483,0.0517,0.7522,0.7056,-35.55,-7.05,24.45,11.0373,-0.8906,0.4477,-0.1479,0.7501,0.6174,-78.0,-11.4,-24.6,7.9,1.06,-6.41,-0.1276,0.9152,-0.1244,-49.6875,13.375,53.1875,34.9375,49.3125,-168.25,0
1776971510.006,9.3039,-1.154,1.8483,0.0517,0.7522,0.7056,-35.55,-7.05,24.45,9.8617,-1.7717,0.6656,-0.1479,0.7501,0.6174,-78.0,-11.4,-24.6,7.9,1.06,-6.41,-0.1276,0.9152,-0.1244,-49.6875,13.375,53.1875,34.9375,49.3125,-168.25,0
1776971510.011,9.809,-1.2737,1.6352,0.0608,0.8351,0.7562,-34.05,-9.0,24.9,9.8617,-1.7717,0.6656,-0.2156,0.7901,0.4455,-79.8,-12.6,-26.1,8.01,1.36,-6.07,-0.1462,0.8552,-0.1265,-51.1875,14.5,52.0625,35.0625,49.75,-168.0,0
1776971510.016,9.809,-1.2737,1.6352,0.0608,0.8351,0.7562,-34.05,-9.0,24.9,9.8545,-2.1189,0.3017,-0.2156,0.7901,0.4455,-79.8,-12.6,-26.1,8.01,1.36,-6.07,-0.1462,0.8552,-0.1265,-51.1875,14.5,52.0625,35.0625,49.75,-168.0,0
1776971510.021,10.2448,-1.6185,1.7837,0.0139,0.9028,0.8039,-34.65,-8.7,26.1,9.8545,-2.1189,0.3017,-0.401,0.9379,0.3371,-79.5,-11.85,-27.9,7.99,1.43,-5.94,-0.1604,0.7559,-0.0971,-51.1875,14.5,52.0625,35.125,50.125,-167.75,0
1776971510.03,10.477,-1.4365,1.4222,-0.1924,0.9268,0.9001,-33.75,-7.05,24.45,10.0676,-2.2649,0.4956,-0.493,0.9723,0.2753,-79.5,-11.85,-27.9,7.68,1.22,-6.18,-0.1494,0.649,-0.084,-51.1875,14.5,52.0625,35.1875,50.5,-167.5,0
1776971510.037,10.477,-1.4365,1.4222,-0.1924,0.9268,0.9001,-34.2,-9.45,25.8,10.2807,-1.4724,0.1053,-0.5558,1.0331,0.1921,-79.5,-11.85,-27.9,7.37,1.1,-6.26,-0.1069,0.6381,-0.0687,-51.1875,14.5,52.0625,35.25,50.8125,-167.3125,0
1776971510.042,10.1275,-1.391,1.008,-0.3147,0.9244,0.9569,-34.2,-9.45,25.8,10.2807,-1.4724,0.1053,-0.5558,1.0331,0.1921,-80.55,-10.35,-28.95,7.37,1.1,-6.26,-0.1069,0.6381,-0.0687,-51.1875,14.5,52.0625,35.25,51.1875,-167.125,0
1776971510.051,9.8354,-0.8739,0.838,-0.4652,0.9406,1.0048,-34.65,-7.65,26.4,9.7827,-0.9409,0.3112,-0.4687,1.0291,0.1367,-81.9,-10.5,-28.8,7.4,0.99,-6.14,-0.0818,0.6861,-0.0665,-51.1875,14.5,52.0625,35.25,51.1875,-167.125,0
1776971510.056,9.8354,-0.8739,0.838,-0.4652,0.9406,1.0048,-34.65,-7.65,26.4,9.6151,-0.0886,1.0271,-0.3619,1.0384,0.0658,-81.9,-10.5,-28.8,7.4,0.99,-6.14,-0.0818,0.6861,-0.0665,-54.0625,13.0,49.75,35.1875,51.5625,-166.9375,0
1776971510.061,9.4308,-0.1077,0.723,-0.4748,0.9577,1.0536,-34.65,-7.65,26.4,9.6151,-0.0886,1.0271,-0.3619,1.0384,0.0658,-80.85,-10.95,-28.5,7.61,1.09,-6.05,-0.0502,0.7145,-0.072,-54.0625,13.0,49.75,35.1875,51.5625,-166.9375,0
1776971510.066,9.4308,-0.1077,0.723,-0.4748,0.9577,1.0536,-34.65,-7.65,26.4,9.335,0.6488,1.4293,-0.2697,1.0285,0.0141,-80.85,-10.95,-28.5,7.61,1.09,-6.05,-0.0502,0.7145,-0.072,-54.0625,13.0,49.75,35.0625,52.0,-166.75,0
1776971510.071,9.2512,0.8356,0.3807,-0.4327,0.9387,1.1016,-34.05,-9.75,27.0,9.335,0.6488,1.4293,-0.2697,1.0285,0.0141,-82.35,-9.75,-28.05,7.49,0.96,-5.85,-0.0196,0.7745,-0.0644,-54.0625,13.0,49.75,35.0625,52.0,-166.75,0
1776971510.077,9.2512,0.8356,0.3807,-0.4327,0.9387,1.1016,-34.2,-10.2,27.9,8.9807,1.3024,1.2019,-0.2262,0.9795,0.028,-82.35,-9.75,-28.05,7.5,0.91,-6.22,-0.0065,0.8738,-0.048,-54.0625,13.0,49.75,34.9375,52.4375,-166.5625,0
1776971510.082,9.2344,0.6584,-0.5794,-0.3248,0.9673,1.1466,-34.2,-10.2,27.9,8.9807,1.3024,1.2019,-0.2262,0.9795,0.028,-80.85,-10.05,-27.75,7.5,0.91,-6.22,-0.0065,0.8738,-0.048,-54.0625,13.0,49.75,34.8125,53.0,-166.3125,0
1776971510.091,9.1937,-0.0862,-1.3479,-0.1948,1.0512,1.2081,-33.9,-10.65,27.6,8.8609,1.5203,0.3926,-0.0922,0.8934,0.0298,-82.2,-10.35,-27.45,7.68,0.91,-5.9,-0.0393,1.0123,-0.0349,-54.0625,13.0,49.75,34.8125,53.0,-166.3125,0
1776971510.101,9.6007,-0.5531,-2.1668,-0.203,1.1495,1.2745,-32.25,-11.55,28.8,9.007,1.0271,-0.2442,0.024,0.7051,0.0528,-82.2,-10.35,-27.45,7.7,1.11,-5.5,-0.0753,1.1312,-0.0404,-54.0625,13.0,49.75,34.6875,53.625,-166.0625,0
1776971510.106,9.6007,-0.5531,-2.1668,-0.203,1.1495,1.2745,-32.25,-11.55,28.8,8.1666,1.506,-0.6584,0.0661,0.4826,0.1535,-82.2,-10.35,-27.45,7.7,1.11,-5.5,-0.0753,1.1312,-0.0404,-54.0625,13.0,49.75,34.6875,53.625,-166.0625,0
1776971510.111,10.1107,-0.7518,-2.2936,-0.4991,1.2476,1.3488,-32.25,-11.55,28.8,8.1666,1.506,-0.6584,0.0661,0.4826,0.1535,-81.9,-10.95,-26.55,7.32,0.64,-5.83,-0.1276,1.2512,-0.0273,-55.0625,12.6875,48.25,34.625,54.25,-165.75,0
1776971510.116,10.1107,-0.7518,-2.2936,-0.4991,1.2476,1.3488,-34.05,-12.75,29.1,9.5696,1.5443,-0.5818,0.0027,0.3698,0.1844,-81.9,-10.95,-26.55,7.32,0.64,-5.83,-0.1276,1.2512,-0.0273,-55.0625,12.6875,48.25,34.625,54.25,-165.75,0
1776971510.121,10.3118,-0.2682,-2.897,-0.8932,1.2652,1.4368,-34.05,-12.75,29.1,10.0844,1.6855,-0.5531,0.0027,0.3698,0.1844,-81.9,-10.95,-26.55,7.22,0.6,-5.86,-0.1854,1.513,-0.0153,-55.0625,12.6875,48.25,34.5625,55.0625,-165.3125,0
1776971510.128,10.3453,1.6113,-3.8858,-1.2859,1.3472,1.5644,-34.5,-12.0,29.85,10.0844,1.6855,-0.5531,-0.1378,0.356,0.0629,-81.9,-10.95,-26.55,7.14,0.65,-5.81,-0.2629,1.7573,0.0338,-55.0625,12.6875,48.25,34.5,56.0,-164.875,0
1776971510.133,10.3453,1.6113,-3.8858,-1.2859,1.3472,1.5644,-34.5,-12.0,29.85,9.5193,3.5362,-0.0718,-0.154,0.2196,0.0117,-82.95,-9.9,-26.4,7.14,0.65,-5.81,-0.2629,1.7573,0.0338,-55.0625,12.6875,48.25,34.4375,57.0,-164.3125,0
