timestamp,thigh_acc_x,thigh_acc_y,thigh_acc_z,thigh_gyro_x,thigh_gyro_y,thigh_gyro_z,thigh_mag_x,thigh_mag_y,thigh_mag_z,shank_acc_x,shank_acc_y,shank_acc_z,shank_gyro_x,shank_gyro_y,shank_gyro_z,shank_mag_x,shank_mag_y,shank_mag_z,foot_acc_x,foot_acc_y,foot_acc_z,foot_gyro_x,foot_gyro_y,foot_gyro_z,foot_mag_x,foot_mag_y,foot_mag_z,foot_euler_x,foot_euler_y,foot_euler_z,perturbation_event
37.435,9.3182,2.3439,-1.7406,-0.049,0.0128,0.0096,-70.2,3.9,-43.2,9.7707,-0.0622,0.5411,0.0,0.0341,-0.0187,-27.3,13.95,2.25,-3.62,-4.81,-7.64,0.011999134317000549,0.0032724911773637858,-0.004363321569818381,-7.875,-6.5625,21.25,242.125,-21.25,147.375,0
37.444,9.3422,2.3703,-1.549,-0.0605,0.0093,0.0083,-71.7,1.95,-43.95,9.6869,-0.103,0.5124,0.0008,0.0413,-0.0197,-27.3,13.95,2.25,-3.64,-4.81,-7.63,0.009817473532091357,0.0032724911773637858,-0.0032724911773637858,-7.875,-6.5625,21.25,242.125,-21.25,147.375,0
37.454,9.3494,2.2625,-1.4653,-0.0554,0.0053,-0.0011,-71.55,3.3,-43.8,9.7276,-0.0646,0.4262,-0.0184,0.0466,-0.0179,-27.75,13.65,1.5,-3.61,-4.83,-7.6,0.010908303924545953,0.0032724911773637858,-0.004363321569818381,-7.875,-6.5625,21.25,242.125,-21.25,147.375,0
37.459,9.3494,2.2625,-1.4653,-0.0554,0.0053,-0.0011,-70.05,4.05,-44.25,9.7923,-0.1365,0.4214,-0.0141,0.0472,-0.0101,-26.7,13.2,2.25,-3.61,-4.83,-7.6,0.011999134317000549,0.0021816607849091904,-0.004363321569818381,-7.0625,-6.5625,22.0625,242.125,-21.25,147.3125,0
37.465,9.3158,2.1811,-1.4581,-0.0248,0.0008,-0.0125,-70.05,4.05,-44.25,9.7923,-0.1365,0.4214,-0.0141,0.0472,-0.0101,-28.5,14.4,1.5,-3.63,-4.81,-7.62,0.011999134317000549,0.0021816607849091904,-0.004363321569818381,-7.0625,-6.5625,22.0625,242.125,-21.25,147.3125,0
37.475,9.2895,2.1859,-1.6376,0.0104,0.0059,-0.0141,-71.1,4.5,-43.8,9.7947,-0.1149,0.486,-0.0069,0.0461,-0.0163,-27.3,12.45,1.2,-3.63,-4.8,-7.63,0.008726643139636761,0.004363321569818381,-0.0021816607849091904,-7.0625,-6.5625,22.0625,242.125,-21.25,147.3125,0
37.485,9.3302,2.2266,-1.6951,0.0096,0.0032,-0.0109,-70.5,3.45,-45.15,9.7636,-0.158,0.5243,-0.024,0.0456,-0.0192,-28.8,13.95,1.5,-3.6,-4.81,-7.61,0.009817473532091357,0.0032724911773637858,-0.004363321569818381,-7.0625,-6.5625,22.0625,242.125,-21.25,147.3125,0
37.494,9.2057,2.3104,-1.7549,0.0008,0.0024,-0.0091,-71.55,3.6,-44.55,9.7516,-0.1077,0.4764,-0.0179,0.0405,-0.016,-28.8,13.95,1.5,-3.63,-4.8,-7.61,0.009817473532091357,0.0010908303924545952,-0.004363321569818381,-7.0625,-6.5625,22.0625,242.125,-21.25,147.3125,0
37.499,9.3134,2.375,-1.6352,0.0008,0.0024,-0.0091,-71.55,3.6,-44.55,9.7492,0.0503,0.4812,-0.0123,0.0437,-0.0101,-28.8,13.95,1.5,-3.63,-4.8,-7.61,0.009817473532091357,0.0010908303924545952,-0.004363321569818381,-7.0625,-6.5625,22.0625,242.125,-21.25,147.3125,0
37.506,9.3134,2.375,-1.6352,-0.0248,0.0013,-0.0056,-71.55,3.6,-44.55,9.7492,0.0503,0.4812,-0.0104,0.0434,-0.0128,-27.3,12.15,1.5,-3.62,-4.82,-7.63,0.010908303924545953,0.0032724911773637858,-0.004363321569818381,-7.0625,-6.5625,22.0625,242.125,-21.25,147.3125,0
37.511,9.3039,2.2936,-1.506,-0.0592,0.0115,-0.0037,-70.95,2.7,-45.15,9.7827,0.012,0.4812,-0.008,0.0421,-0.0147,-27.3,12.15,1.5,-3.62,-4.82,-7.63,0.007635812747182167,0.0021816607849091904,-0.007635812747182167,-7.5,-5.5,21.25,242.125,-21.25,147.3125,0
37.516,9.3039,2.2936,-1.506,-0.0592,0.0115,-0.0037,-70.95,2.7,-45.15,9.7827,0.012,0.4812,0.0117,0.0437,-0.0099,-26.85,13.5,2.1,-3.62,-4.82,-7.63,0.007635812747182167,0.0021816607849091904,-0.007635812747182167,-7.5,-5.5,21.25,242.125,-21.25,147.3125,0
37.525,9.3565,2.2242,-1.5131,-0.0589,0.0091,-0.0045,-70.5,3.9,-44.4,9.821,-0.0646,0.5171,0.0203,0.0424,-0.0157,-27.75,13.2,0.75,-3.62,-4.84,-7.65,0.008726643139636761,0.0021816607849091904,-0.007635812747182167,-7.5,-5.5,21.25,242.125,-21.25,147.3125,0
37.535,9.2943,2.2936,-1.6999,-0.0394,0.0029,-0.0043,-71.85,3.6,-43.5,9.7779,-0.1221,0.4693,-0.0005,0.0426,-0.0088,-27.9,12.3,2.1,-3.64,-4.84,-7.67,0.008726643139636761,0.0,-0.004363321569818381,-7.5,-5.5,21.25,242.125,-21.25,147.3125,0
37.545,9.2871,2.4134,-1.6233,-0.0386,-0.0056,-0.0053,-71.1,3.6,-44.25,9.7205,-0.1556,0.5483,-0.0144,0.0533,-0.0053,-27.9,12.3,2.1,-3.62,-4.82,-7.63,0.009817473532091357,-0.0032724911773637858,-0.004363321569818381,-7.5,-5.5,21.25,242.125,-21.25,147.3125,0
37.554,9.3637,2.3966,-1.4844,-0.0408,-0.008,-0.008,-70.8,2.4,-43.5,9.7923,-0.0407,0.5219,-0.0165,0.0512,-0.0083,-27.3,13.65,1.5,-3.64,-4.83,-7.6,0.011999134317000549,-0.0021816607849091904,-0.0054541519622729765,-7.5,-5.5,21.25,242.125,-21.25,147.3125,0
37.559,9.2847,2.3152,-1.573,-0.032,-0.0149,-0.0059,-70.8,3.3,-44.85,9.8114,-0.0192,0.4118,-0.0131,0.0562,-0.0152,-27.3,13.65,1.5,-3.64,-4.83,-7.6,0.011999134317000549,-0.0021816607849091904,-0.0054541519622729765,-7.5,-7.375,21.6875,242.125,-21.25,147.3125,0
37.566,9.2823,2.2984,-1.6424,-0.032,-0.0149,-0.0059,-70.8,3.3,-44.85,9.73,-0.0431,0.5243,0.0,0.0512,-0.0083,-27.0,13.65,0.45,-3.62,-4.83,-7.6,0.007635812747182167,0.0,-0.0054541519622729765,-7.5,-7.375,21.6875,242.125,-21.25,147.3125,0
37.575,9.2823,2.2984,-1.6424,-0.0043,-0.0091,-0.0131,-70.8,3.3,-44.85,9.8043,-0.0694,0.5076,0.0013,0.0517,-0.0067,-28.5,14.4,-0.15,-3.63,-4.82,-7.63,0.0065449823547275715,0.0021816607849091904,-0.0065449823547275715,-7.5,-7.375,21.6875,242.125,-21.25,147.3125,0
37.585,9.2799,2.2769,-1.5179,0.0163,-0.0045,-0.0179,-72.0,3.45,-44.7,9.754,-0.0694,0.5626,-0.0037,0.0381,-0.0045,-28.2,13.8,2.1,-3.62,-4.84,-7.63,0.0065449823547275715,0.0,-0.0032724911773637858,-7.5,-7.375,21.6875,242.125,-21.25,147.3125,0
37.595,9.268,2.217,-1.4916,-0.004,0.0021,-0.0125,-70.8,3.6,-43.8,9.8354,-0.1245,0.51,0.0069,0.0416,-0.0069,-28.2,13.8,2.1,-3.6,-4.82,-7.62,0.0054541519622729765,0.0021816607849091904,-0.0032724911773637858,-7.5,-7.375,21.6875,242.125,-21.25,147.3125,0
37.603,9.268,2.217,-1.4916,-0.0117,-0.0019,-0.0144,-71.7,3.45,-45.15,9.8737,-0.2131,0.5555,0.0064,0.0429,-0.0037,-28.2,13.8,2.1,-3.63,-4.82,-7.62,0.0054541519622729765,0.0010908303924545952,-0.0032724911773637858,-7.5,-7.375,21.6875,242.125,-21.25,147.3125,0
37.608,9.3206,2.3056,-1.4988,-0.0195,0.0085,-0.0099,-71.7,3.45,-45.15,9.8737,-0.2131,0.5555,0.0064,0.0429,-0.0037,-28.2,13.8,2.1,-3.63,-4.82,-7.62,0.0054541519622729765,0.0010908303924545952,-0.0032724911773637858,-7.5,-7.375,21.6875,242.125,-21.25,147.3125,0
37.615,9.2823,2.3272,-1.6807,-0.0189,0.0125,-0.0075,-70.2,4.65,-43.2,9.7659,-0.2634,0.589,0.0072,0.0416,-0.0067,-27.75,13.65,1.95,-3.63,-4.83,-7.62,0.008726643139636761,0.0010908303924545952,-0.0054541519622729765,-7.875,-6.5625,22.5,242.125,-21.25,147.3125,0
37.625,9.1961,2.2889,-1.664,-0.0328,-0.0037,-0.0045,-71.1,2.85,-43.05,9.7947,-0.1963,0.577,0.0029,0.0346,-0.008,-28.8,14.4,2.55,-3.62,-4.83,-7.63,0.008726643139636761,0.0032724911773637858,-0.0032724911773637858,-7.875,-6.5625,22.5,242.125,-21.25,147.3125,0
37.634,9.232,2.3487,-1.6041,-0.0328,-0.0037,-0.0045,-70.5,3.9,-43.95,9.73,-0.091,0.5028,-0.0027,0.045,-0.0072,-27.6,15.3,1.35,-3.65,-4.81,-7.64,0.008726643139636761,0.0021816607849091904,-0.004363321569818381,-7.875,-6.5625,22.5,242.125,-21.25,147.3125,0
37.639,9.232,2.3487,-1.6041,-0.041,0.008,0.0029,-70.5,3.9,-43.95,9.73,-0.091,0.5028,-0.0027,0.045,-0.0072,-27.6,15.3,1.35,-3.65,-4.81,-7.64,0.008726643139636761,0.0021816607849091904,-0.004363321569818381,-7.875,-6.5625,22.5,242.125,-21.25,147.3125,0
37.646,9.3087,2.3272,-1.5419,-0.045,-0.0011,0.0045,-70.5,3.9,-43.95,9.7157,-0.0024,0.5339,0.0019,0.0424,-0.0067,-28.65,13.8,1.35,-3.63,-4.83,-7.59,0.010908303924545953,-0.004363321569818381,-0.0032724911773637858,-7.875,-6.5625,22.5,242.125,-21.25,147.3125,0
37.655,9.3326,2.32,-1.5945,-0.0232,-0.0141,-0.0048,-71.25,4.95,-44.7,9.7779,0.0359,0.4405,0.0056,0.0458,-0.0112,-28.65,13.8,1.35,-3.62,-4.84,-7.63,0.008726643139636761,0.0,-0.0065449823547275715,-7.875,-6.5625,22.5,242.125,-21.25,147.3125,0
37.66,9.3326,2.32,-1.5945,-0.0232,-0.0141,-0.0048,-71.25,4.95,-44.7,9.7779,0.0359,0.4405,0.0053,0.0384,-0.0083,-28.65,13.8,1.35,-3.62,-4.84,-7.63,0.009817473532091357,-0.0010908303924545952,-0.009817473532091357,-8.25,-7.0,20.5,242.125,-21.25,147.3125,0
37.666,9.3278,2.3056,-1.5083,0.0027,0.0029,-0.0147,-71.25,4.95,-44.7,9.742,0.0742,0.4717,0.0069,0.0394,-0.0069,-29.4,14.25,1.65,-3.63,-4.86,-7.59,0.009817473532091357,-0.0010908303924545952,-0.009817473532091357,-8.25,-7.0,20.5,242.125,-21.25,147.3125,0
37.675,9.3685,2.1883,-1.4605,0.0085,-0.0016,-0.0211,-70.35,1.35,-44.55,9.7564,-0.067,0.498,0.0043,0.0418,-0.0048,-28.8,15.15,1.2,-3.62,-4.84,-7.6,0.007635812747182167,0.0010908303924545952,-0.0065449823547275715,-8.25,-7.0,20.5,242.125,-21.25,147.3125,0
37.685,9.2847,2.1787,-1.5443,0.0189,0.0027,-0.0232,-70.8,2.4,-44.25,9.8138,-0.2035,0.5507,-0.0011,0.04,-0.0056,-27.15,14.25,0.6,-3.61,-4.86,-7.63,0.009817473532091357,0.0010908303924545952,-0.007635812747182167,-8.25,-7.0,20.5,242.125,-21.25,147.3125,0
37.695,9.2895,2.2146,-1.6999,0.0075,-0.0064,-0.0165,-70.95,2.7,-43.65,9.7252,-0.2658,0.6129,-0.0133,0.045,-0.0128,-26.4,13.5,1.05,-3.6,-4.82,-7.63,0.009817473532091357,0.0010908303924545952,-0.0054541519622729765,-8.25,-7.0,20.5,242.125,-21.25,147.3125,0
37.701,9.3446,2.3391,-1.6137,-0.0187,0.0,-0.0128,-71.55,3.6,-44.55,9.7564,-0.2179,0.6129,-0.0184,0.0477,-0.0061,-26.4,13.5,1.05,-3.63,-4.8,-7.61,0.011999134317000549,0.0,-0.004363321569818381,-8.25,-7.0,20.5,242.125,-21.25,147.3125,0
37.706,9.3446,2.3391,-1.6137,-0.0187,0.0,-0.0128,-71.55,3.6,-44.55,9.7564,-0.2179,0.6129,-0.0184,0.0477,-0.0061,-26.4,13.5,1.05,-3.63,-4.8,-7.61,0.011999134317000549,0.0,-0.004363321569818381,-8.25,-7.0,20.5,242.125,-21.25,147.3125,0
37.712,9.3494,2.332,-1.6281,-0.0461,-0.0107,-0.0056,-71.55,3.6,-44.55,9.8665,-0.0599,0.589,-0.0242,0.049,-0.0045,-26.4,15.3,1.65,-3.62,-4.83,-7.62,0.009817473532091357,0.0021816607849091904,-0.004363321569818381,-7.5,-6.1875,22.5,242.125,-21.25,147.3125,0
37.716,9.3494,2.332,-1.6281,-0.0461,-0.0107,-0.0056,-71.55,3.6,-44.55,9.8665,-0.0599,0.589,-0.0242,0.049,-0.0045,-26.4,15.3,1.65,-3.62,-4.83,-7.62,0.009817473532091357,0.0021816607849091904,-0.004363321569818381,-7.5,-6.1875,22.5,242.125,-21.25,147.3125,0
37.726,9.2608,2.4277,-1.5275,-0.0717,-0.0061,0.0011,-70.05,4.05,-44.25,9.73,-0.0527,0.5219,-0.0304,0.0501,-0.0093,-29.1,15.15,1.95,-3.64,-4.83,-7.64,0.007635812747182167,0.0,-0.0032724911773637858,-7.5,-6.1875,22.5,242.125,-21.25,147.3125,0
37.735,9.3541,2.2338,-1.4341,-0.0911,0.0061,-0.0024,-70.05,4.05,-44.25,9.7109,-0.0622,0.5219,-0.0192,0.0485,-0.0083,-28.8,14.4,1.2,-3.6,-4.85,-7.66,0.009817473532091357,-0.0021816607849091904,-0.0021816607849091904,-7.5,-6.1875,22.5,242.125,-21.25,147.3125,0
37.744,9.2608,2.2194,-1.5921,-0.0741,-0.0101,-0.0043,-70.95,3.9,-43.95,9.7085,-0.2059,0.5052,-0.0133,0.0437,-0.0091,-27.3,13.95,0.75,-3.6,-4.83,-7.62,0.011999134317000549,0.0,-0.0032724911773637858,-7.5,-6.1875,22.5,242.125,-21.25,147.3125,0
37.749,9.2392,2.3152,-1.5993,-0.0741,-0.0101,-0.0043,-70.95,3.9,-43.95,9.7444,-0.1508,0.577,-0.0101,0.0522,-0.0075,-27.3,13.95,0.75,-3.6,-4.83,-7.62,0.011999134317000549,0.0,-0.0032724911773637858,-7.5,-6.1875,22.5,242.125,-21.25,147.3125,0
37.756,9.2392,2.3152,-1.5993,-0.0522,0.0061,-0.0072,-69.0,2.25,-43.65,9.7444,-0.1508,0.577,-0.0101,0.0522,-0.0075,-28.05,15.45,0.75,-3.62,-4.82,-7.59,0.013089964709455143,-0.0010908303924545952,-0.0032724911773637858,-7.5,-6.1875,22.5,242.125,-21.25,147.3125,0
37.761,9.3733,2.3631,-1.494,-0.0426,0.0099,0.0003,-71.7,2.7,-43.65,9.7923,-0.0766,0.5531,-0.0245,0.053,-0.0043,-28.05,15.45,0.75,-3.62,-4.82,-7.59,0.011999134317000549,0.0,-0.0010908303924545952,-7.875,-5.875,22.0625,242.125,-21.25,147.3125,0
37.766,9.3733,2.3631,-1.494,-0.0426,0.0099,0.0003,-71.7,2.7,-43.65,9.7923,-0.0766,0.5531,-0.0245,0.053,-0.0043,-28.05,15.45,0.75,-3.63,-4.83,-7.61,0.011999134317000549,0.0,-0.0010908303924545952,-7.875,-5.875,22.0625,242.125,-21.25,147.3125,0
37.776,9.3158,2.3559,-1.4844,-0.0397,-0.0056,0.0011,-71.55,4.05,-44.85,9.7707,-0.0215,0.5722,-0.0133,0.045,-0.0064,-27.0,14.7,1.5,-3.62,-4.82,-7.62,0.010908303924545953,-0.0010908303924545952,-0.004363321569818381,-7.875,-5.875,22.0625,242.125,-21.25,147.3125,0
37.785,9.2799,2.3942,-1.4796,-0.0261,-0.0048,-0.0061,-71.55,4.05,-44.85,9.7683,-0.0622,0.6704,0.0155,0.0389,-0.0107,-27.6,15.0,0.3,-3.64,-4.87,-7.64,0.011999134317000549,-0.0021816607849091904,-0.0032724911773637858,-7.875,-5.875,22.0625,242.125,-21.25,147.3125,0
37.794,9.2775,2.3535,-1.4413,-0.0203,-0.0091,-0.0037,-70.95,2.7,-44.7,9.754,-0.0958,0.6297,0.0168,0.037,-0.0104,-27.3,13.65,1.5,-3.63,-4.87,-7.6,0.011999134317000549,-0.004363321569818381,-0.0054541519622729765,-7.875,-5.875,22.0625,242.125,-21.25,147.25,0
37.799,9.2368,2.411,-1.5538,-0.0123,0.0011,-0.0021,-70.95,2.7,-44.7,9.7612,-0.1796,0.644,0.0016,0.0402,-0.0125,-27.75,13.65,0.75,-3.63,-4.87,-7.6,0.011999134317000549,-0.004363321569818381,-0.0054541519622729765,-7.875,-5.875,22.0625,242.125,-21.25,147.25,0
37.806,9.2608,2.4828,-1.5083,-0.0123,0.0011,-0.0021,-70.95,2.7,-44.7,9.7612,-0.1796,0.644,-0.0032,0.0389,-0.0128,-27.75,13.65,0.75,-3.64,-4.85,-7.59,0.010908303924545953,-0.0010908303924545952,-0.004363321569818381,-7.875,-5.875,22.0625,242.125,-21.25,147.25,0
37.811,9.2608,2.4828,-1.5083,-0.0253,0.0061,-0.008,-71.25,3.45,-42.45,9.7851,-0.1987,0.644,-0.0064,0.033,-0.0117,-27.75,13.65,0.75,-3.64,-4.85,-7.59,0.010908303924545953,-0.0010908303924545952,-0.0032724911773637858,-7.875,-5.875,21.25,242.125,-21.25,147.25,0
37.817,9.2967,2.3583,-1.4653,-0.0509,-0.0032,-0.0056,-71.25,3.45,-42.45,9.7947,-0.0886,0.4621,-0.0184,0.0392,-0.0088,-27.75,13.65,0.75,-3.61,-4.85,-7.59,0.010908303924545953,-0.0010908303924545952,-0.0032724911773637858,-7.875,-5.875,21.25,242.125,-21.25,147.25,0
37.826,9.2895,2.2865,-1.5658,-0.0509,-0.0032,-0.0056,-71.55,4.8,-44.25,9.7947,-0.0886,0.4621,-0.0139,0.0394,-0.0109,-27.15,15.0,1.35,-3.63,-4.84,-7.62,0.010908303924545953,0.004363321569818381,-0.007635812747182167,-7.875,-5.875,21.25,242.125,-21.25,147.25,0
37.836,9.3015,2.3463,-1.549,0.0045,0.0139,-0.0093,-71.1,2.85,-44.25,9.7851,-0.0694,0.6009,-0.0061,0.0365,-0.0043,-25.65,15.3,2.1,-3.61,-4.82,-7.64,0.009817473532091357,0.0021816607849091904,-0.0065449823547275715,-7.875,-5.875,21.25,242.125,-21.25,147.25,0
37.845,9.2727,2.3104,-1.5562,-0.0218,0.0109,-0.0005,-71.1,2.85,-44.25,9.7731,0.0407,0.5507,-0.0123,0.0354,-0.0136,-27.9,15.3,2.1,-3.62,-4.84,-7.63,0.009817473532091357,0.004363321569818381,-0.0065449823547275715,-7.875,-5.875,21.25,242.125,-21.25,147.25,0
37.855,9.2536,2.3224,-1.6161,-0.0218,0.0109,-0.0005,-71.7,3.9,-44.7,9.7731,0.0407,0.5507,0.0005,0.0296,-0.0117,-26.7,13.95,2.25,-3.63,-4.86,-7.59,0.010908303924545953,0.004363321569818381,-0.007635812747182167,-7.875,-5.875,21.25,242.125,-21.25,147.25,0
37.86,9.2536,2.3224,-1.6161,-0.0421,-0.0013,-0.0016,-71.7,3.9,-44.7,9.7276,-0.012,0.6009,0.0003,0.0274,-0.0101,-26.7,13.95,2.25,-3.63,-4.86,-7.59,0.010908303924545953,0.004363321569818381,-0.007635812747182167,-7.875,-7.0,21.25,242.125,-21.25,147.25,0
37.867,9.2368,2.308,-1.7023,-0.0528,0.0024,-0.0029,-69.45,2.7,-44.7,9.6917,-0.0575,0.6752,0.0152,0.0349,-0.0061,-26.7,13.95,2.25,-3.65,-4.84,-7.64,0.011999134317000549,0.0010908303924545952,-0.004363321569818381,-7.875,-7.0,21.25,242.125,-21.25,147.25,0
37.876,9.2871,2.3727,-1.6017,-0.0725,-0.0072,0.0056,-69.45,2.7,-44.7,9.7755,-0.0886,0.5555,-0.0056,0.0384,-0.0075,-26.7,13.95,2.25,-3.64,-4.85,-7.57,0.007635812747182167,0.0010908303924545952,0.0,-7.875,-7.0,21.25,242.125,-21.25,147.25,0
37.885,9.2608,2.3774,-1.5299,-0.06,-0.0144,-0.0056,-70.35,4.5,-43.5,9.7779,-0.0886,0.5004,-0.0197,0.0362,-0.0085,-27.3,15.45,1.95,-3.61,-4.9,-7.59,0.004363321569818381,0.0032724911773637858,0.0010908303924545952,-7.875,-7.0,21.25,242.125,-21.25,147.25,0
37.894,9.3637,2.3966,-1.4365,-0.0277,0.0045,-0.0024,-70.35,4.8,-43.8,9.7683,-0.1101,0.4693,-0.0224,0.0346,-0.0053,-27.3,14.4,1.5,-3.64,-4.85,-7.61,0.0032724911773637858,0.0010908303924545952,0.0,-7.875,-7.0,21.25,242.125,-21.25,147.25,0
37.899,9.3637,2.3966,-1.4365,-0.0277,0.0045,-0.0024,-70.35,4.8,-43.8,9.7683,-0.1101,0.4693,-0.0224,0.0346,-0.0053,-27.15,14.25,1.05,-3.64,-4.85,-7.61,0.0032724911773637858,0.0010908303924545952,0.0,-7.875,-7.0,21.25,242.125,-21.25,147.25,0
37.906,9.2847,2.3894,-1.3551,-0.0306,0.0003,0.0056,-71.25,2.7,-43.95,9.7252,-0.0168,0.6033,-0.0253,0.0389,-0.0059,-27.15,14.25,1.05,-3.64,-4.85,-7.62,0.0,0.0032724911773637858,0.0010908303924545952,-7.875,-7.0,21.25,242.125,-21.25,147.25,0
37.911,9.2847,2.3894,-1.3551,-0.0306,0.0003,0.0056,-71.25,2.7,-43.95,9.7252,-0.0168,0.6033,-0.0253,0.0389,-0.0059,-27.9,14.55,1.05,-3.64,-4.85,-7.62,0.0021816607849091904,0.0032724911773637858,0.0021816607849091904,-7.0625,-6.1875,21.25,242.125,-21.25,147.25,0
37.917,9.3494,2.3942,-1.5179,-0.0165,0.0005,0.0037,-70.5,3.9,-43.65,9.833,0.0311,0.5243,-0.0258,0.037,-0.0013,-27.9,14.55,1.05,-3.61,-4.87,-7.59,0.0021816607849091904,0.0032724911773637858,0.0021816607849091904,-7.0625,-6.1875,21.25,242.125,-21.25,147.25,0
37.926,9.2871,2.4612,-1.6472,-0.0171,-0.0067,0.0019,-71.1,2.1,-43.05,9.8067,-0.0599,0.6009,-0.0072,0.0253,-0.0109,-27.9,14.55,1.05,-3.63,-4.87,-7.63,0.0021816607849091904,0.0065449823547275715,0.0021816607849091904,-7.0625,-6.1875,21.25,242.125,-21.25,147.25,0
37.935,9.2584,2.49,-1.6544,-0.0171,0.0005,0.0019,-72.3,4.5,-43.8,9.7013,-0.1676,0.7877,-0.0056,0.0224,-0.0104,-28.2,14.55,2.85,-3.63,-4.87,-7.62,0.0010908303924545952,0.0032724911773637858,0.0021816607849091904,-7.0625,-6.1875,21.25,242.125,-21.25,147.25,0
37.944,9.2249,2.4588,-1.6017,-0.0354,-0.0024,0.0024,-72.3,4.5,-43.8,9.7612,-0.2107,0.6201,-0.0131,0.0245,-0.0072,-27.9,13.8,1.65,-3.62,-4.89,-7.61,0.0,0.0021816607849091904,0.0021816607849091904,-7.0625,-6.1875,21.25,242.125,-21.25,147.25,0
37.949,9.2249,2.4588,-1.6017,-0.0354,-0.0024,0.0024,-72.3,4.5,-43.8,9.7612,-0.2107,0.6201,-0.0131,0.0245,-0.0072,-27.9,12.75,0.6,-3.62,-4.89,-7.61,0.0,0.0021816607849091904,0.0021816607849091904,-7.0625,-6.1875,21.25,242.125,-21.25,147.25,0
37.956,9.2967,2.399,-1.5897,-0.053,0.0011,0.0067,-70.95,3.9,-43.65,9.7564,-0.1053,0.5243,-0.0125,0.0282,-0.0013,-27.15,14.55,1.05,-3.64,-4.84,-7.57,-0.0021816607849091904,0.0032724911773637858,0.0021816607849091904,-7.0625,-6.1875,21.25,242.125,-21.25,147.25,0
37.961,9.3039,2.3439,-1.5155,-0.0458,0.0067,0.0067,-70.95,3.9,-43.65,9.7564,-0.1053,0.5243,-0.02,0.0296,-0.0075,-27.15,14.55,1.05,-3.64,-4.84,-7.57,-0.0010908303924545952,0.004363321569818381,0.0,-7.0625,-6.1875,21.6875,242.125,-21.25,147.25,0
37.967,9.3039,2.3439,-1.5155,-0.0458,0.0067,0.0067,-69.75,4.2,-44.4,9.7612,-0.0982,0.589,-0.0179,0.0336,-0.0096,-27.15,14.55,1.05,-3.63,-4.84,-7.61,-0.0010908303924545952,0.004363321569818381,0.0,-7.0625,-6.1875,21.6875,242.125,-21.25,147.25,0
37.976,9.3111,2.375,-1.5131,-0.0328,0.0061,0.0067,-72.3,3.3,-44.25,9.7707,0.0144,0.5315,-0.0269,0.0349,-0.0067,-27.15,14.55,1.05,-3.62,-4.86,-7.62,-0.0010908303924545952,0.0021816607849091904,-0.0010908303924545952,-7.0625,-6.1875,21.6875,242.125,-21.25,147.25,0
37.986,9.2967,2.2625,-1.4461,-0.0099,-0.0056,0.0045,-70.5,3.9,-43.2,9.7851,0.0982,0.4549,-0.0338,0.0325,-0.004,-27.0,13.95,1.2,-3.62,-4.87,-7.66,0.0010908303924545952,0.0032724911773637858,0.0010908303924545952,-7.0625,-6.1875,21.6875,242.125,-21.25,147.25,0
37.994,9.3398,2.2458,-1.5251,0.0317,0.0093,-0.0032,-70.95,3.9,-43.95,9.7133,0.1053,0.5507,-0.0285,0.033,-0.0027,-27.15,15.0,1.35,-3.63,-4.89,-7.58,0.004363321569818381,0.0010908303924545952,0.0021816607849091904,-7.0625,-6.1875,21.6875,242.125,-21.25,147.25,0
37.999,9.244,2.241,-1.6185,0.0224,-0.0061,-0.008,-70.95,3.9,-43.95,9.7133,0.1053,0.5507,-0.025,0.0408,-0.0019,-27.9,13.05,1.65,-3.63,-4.89,-7.58,0.004363321569818381,0.0010908303924545952,0.0021816607849091904,-7.0625,-6.1875,21.6875,242.125,-21.25,147.25,0
38.007,9.244,2.241,-1.6185,0.0224,-0.0061,-0.008,-70.8,3.3,-44.55,9.7564,0.0168,0.6321,-0.025,0.0386,-0.0043,-27.15,13.8,0.3,-3.6,-4.9,-7.59,0.0054541519622729765,-0.0010908303924545952,0.0054541519622729765,-7.0625,-6.1875,21.6875,242.125,-21.25,147.25,0
38.012,9.2344,2.2936,-1.7119,0.0104,0.0,-0.0024,-70.8,3.3,-44.55,9.742,-0.1652,0.6393,-0.0248,0.0277,-0.0093,-27.15,13.8,0.3,-3.6,-4.9,-7.59,0.0032724911773637858,0.0,0.0054541519622729765,-8.25,-6.5625,21.6875,242.125,-21.25,147.25,0
38.017,9.2344,2.2936,-1.7119,0.0104,0.0,-0.0024,-70.8,3.3,-44.55,9.742,-0.1652,0.6393,-0.0248,0.0277,-0.0093,-27.6,15.0,0.6,-3.58,-4.89,-7.59,0.0032724911773637858,0.0,0.0054541519622729765,-8.25,-6.5625,21.6875,242.125,-21.25,147.25,0
38.026,9.2584,2.3272,-1.7286,-0.0354,0.0051,0.0048,-71.25,3.45,-45.45,9.754,-0.2179,0.6416,-0.0325,0.0346,-0.0064,-27.6,15.0,0.6,-3.63,-4.83,-7.6,0.0,-0.0010908303924545952,0.007635812747182167,-8.25,-6.5625,21.6875,242.125,-21.25,147.25,0
38.036,9.2919,2.3607,-1.6185,-0.0869,-0.0019,0.0173,-71.25,3.45,-45.45,9.7827,-0.1891,0.6129,-0.041,0.0328,-0.0029,-27.75,14.4,1.95,-3.64,-4.82,-7.62,0.0,0.0032724911773637858,0.004363321569818381,-8.25,-6.5625,21.6875,242.125,-21.25,147.25,0
38.044,9.3446,2.3966,-1.4557,-0.1202,-0.0157,0.0229,-71.7,3.9,-44.7,9.8378,-0.1317,0.5171,-0.0576,0.0376,0.0011,-27.75,14.4,1.95,-3.62,-4.83,-7.65,-0.0010908303924545952,0.004363321569818381,0.0054541519622729765,-8.25,-6.5625,21.6875,242.125,-21.25,147.25,0
38.049,9.3374,2.2553,-1.5514,-0.1061,-0.0147,0.0184,-71.7,3.9,-44.7,9.8019,-0.0503,0.5148,-0.0589,0.0389,-0.0019,-27.6,15.0,0.0,-3.62,-4.83,-7.65,-0.0010908303924545952,0.004363321569818381,0.0054541519622729765,-8.25,-6.5625,21.6875,242.125,-21.25,147.25,0
38.057,9.3446,2.2027,-1.5874,-0.0781,-0.008,0.0128,-71.55,4.8,-43.8,9.8019,-0.0503,0.5148,-0.0589,0.0389,-0.0019,-27.3,13.95,1.95,-3.63,-4.85,-7.63,0.0021816607849091904,0.0021816607849091904,0.004363321569818381,-8.25,-6.5625,21.6875,242.125,-21.25,147.25,0
38.062,9.3446,2.2027,-1.5874,-0.0781,-0.008,0.0128,-71.55,4.8,-43.8,9.7659,0.0192,0.565,-0.053,0.0298,-0.0016,-27.3,13.95,1.95,-3.63,-4.85,-7.63,0.004363321569818381,0.0010908303924545952,0.004363321569818381,-7.875,-6.1875,20.875,242.125,-21.25,147.25,0
38.067,9.3015,2.2721,-1.4748,-0.049,0.0112,0.0213,-71.55,2.85,-43.5,9.7659,0.0192,0.565,-0.0453,0.0264,-0.0037,-28.2,13.5,1.05,-3.61,-4.84,-7.62,0.004363321569818381,0.0010908303924545952,0.004363321569818381,-7.875,-6.1875,20.875,242.125,-21.25,147.25,0
38.076,9.2727,2.3942,-1.549,-0.0376,0.0032,0.0149,-71.85,4.05,-43.8,9.7659,0.0407,0.5578,-0.0477,0.0285,-0.0059,-28.2,13.5,1.05,-3.62,-4.84,-7.63,0.007635812747182167,0.007635812747182167,0.0054541519622729765,-7.875,-6.1875,20.875,242.125,-21.25,147.25,0
38.086,9.2536,2.4924,-1.5682,-0.0381,-0.0088,0.0176,-71.85,4.05,-43.8,9.8067,0.0144,0.6057,-0.033,0.0266,0.0,-26.7,13.95,1.2,-3.61,-4.87,-7.63,0.004363321569818381,0.004363321569818381,0.0065449823547275715,-7.875,-6.1875,20.875,242.125,-21.25,147.25,0
38.094,9.2536,2.4924,-1.5682,-0.0381,-0.0088,0.0176,-71.85,4.05,-43.8,9.7683,-0.0958,0.6105,-0.0125,0.0237,-0.0024,-26.7,13.95,1.2,-3.65,-4.83,-7.6,0.0032724911773637858,0.0054541519622729765,0.0054541519622729765,-7.875,-6.1875,20.875,242.125,-21.25,147.25,0
38.099,9.2823,2.4924,-1.585,-0.0432,-0.0059,0.0136,-70.35,4.05,-44.55,9.8282,-0.0742,0.6057,-0.0085,0.0245,0.0072,-29.85,13.95,0.45,-3.65,-4.83,-7.6,0.0032724911773637858,0.0054541519622729765,0.0054541519622729765,-7.875,-6.1875,20.875,242.125,-21.25,147.25,0
38.107,9.153,2.4852,-1.6927,-0.0506,-0.0069,0.0096,-70.35,4.05,-44.55,9.7564,-0.0527,0.6057,-0.016,0.0232,0.0008,-28.5,14.4,1.5,-3.64,-4.86,-7.61,0.0032724911773637858,0.0065449823547275715,0.0032724911773637858,-7.875,-6.1875,20.875,242.125,-21.25,147.25,0
38.112,9.153,2.4852,-1.6927,-0.0506,-0.0069,0.0096,-70.35,4.05,-44.55,9.7564,-0.0527,0.6057,-0.016,0.0232,0.0008,-28.5,14.4,1.5,-3.64,-4.86,-7.61,0.0010908303924545952,0.004363321569818381,0.0021816607849091904,-7.875,-6.1875,20.875,242.125,-21.25,147.25,0
38.117,9.2799,2.4397,-1.5395,-0.048,-0.0115,0.0061,-70.2,2.25,-45.15,9.7348,-0.0646,0.6057,-0.0218,0.0282,0.0005,-28.2,14.55,1.05,-3.65,-4.87,-7.59,0.0010908303924545952,0.004363321569818381,0.0021816607849091904,-7.875,-6.1875,20.875,242.125,-21.25,147.25,0
38.126,9.2703,2.4014,-1.5012,-0.0368,-0.0115,0.0024,-69.6,3.3,-44.85,9.6869,-0.0144,0.5171,-0.028,0.04,-0.0032,-27.15,13.8,1.65,-3.62,-4.9,-7.58,-0.0021816607849091904,0.007635812747182167,0.0021816607849091904,-7.875,-6.1875,20.875,242.125,-21.25,147.25,0
38.136,9.3015,2.1907,-1.4317,-0.0445,-0.0107,0.0037,-70.35,3.6,-43.8,9.8474,-0.0383,0.4717,-0.0373,0.0397,-0.0075,-27.15,13.8,1.65,-3.59,-4.85,-7.62,0.0,0.0065449823547275715,0.0021816607849091904,-7.875,-6.1875,20.875,242.125,-21.25,147.25,0
38.144,9.3374,2.138,-1.6328,-0.0184,-0.0099,0.0069,-70.35,3.6,-43.8,9.8474,-0.0383,0.4717,-0.0253,0.0354,0.0011,-27.6,15.0,0.6,-3.64,-4.83,-7.63,-0.0032724911773637858,0.0054541519622729765,0.0032724911773637858,-7.875,-6.1875,20.875,242.125,-21.25,147.25,0
38.149,9.3374,2.138,-1.6328,-0.0184,-0.0099,0.0069,-70.2,3.9,-44.4,9.7827,-0.0527,0.5363,-0.0234,0.0365,0.0024,-27.6,15.0,0.6,-3.64,-4.83,-7.63,-0.0032724911773637858,0.0054541519622729765,0.0032724911773637858,-7.875,-6.1875,20.875,242.125,-21.25,147.25,0
38.157,9.335,2.2817,-1.6376,0.0109,0.0272,-0.0013,-71.55,4.05,-44.85,9.7851,-0.0263,0.4956,-0.0189,0.0413,0.0008,-27.75,13.65,1.5,-3.63,-4.83,-7.63,-0.004363321569818381,0.0054541519622729765,0.004363321569818381,-7.875,-6.1875,20.875,242.125,-21.25,147.25,0
38.162,9.3254,2.2769,-1.7023,0.0109,0.0272,-0.0013,-71.55,4.05,-44.85,9.7851,-0.0263,0.4956,-0.0189,0.0413,0.0008,-27.75,13.65,1.5,-3.63,-4.83,-7.63,-0.0010908303924545952,0.0032724911773637858,0.0032724911773637858,-9.0,-6.5625,21.6875,242.125,-21.25,147.25,0
38.167,9.3254,2.2769,-1.7023,-0.0147,0.0088,0.0037,-71.25,4.2,-44.4,9.7564,-0.0239,0.5411,-0.0077,0.033,-0.0005,-27.15,14.25,1.35,-3.61,-4.88,-7.62,-0.0010908303924545952,0.0032724911773637858,0.0032724911773637858,-9.0,-6.5625,21.6875,242.125,-21.25,147.25,0
38.176,9.2871,2.3152,-1.664,-0.032,0.0069,0.0109,-71.25,4.2,-44.4,9.6941,-0.182,0.6536,0.0056,0.032,-0.0035,-27.75,13.65,0.75,-3.64,-4.82,-7.61,-0.0010908303924545952,0.0054541519622729765,0.004363321569818381,-9.0,-6.5625,21.6875,242.125,-21.25,147.25,0
38.186,9.2775,2.4229,-1.6975,-0.0514,-0.0083,0.0149,-69.6,4.05,-44.25,9.7995,-0.1245,0.6105,0.0059,0.0408,0.0083,-27.75,13.65,0.75,-3.62,-4.84,-7.64,0.0021816607849091904,0.0010908303924545952,0.0010908303924545952,-9.0,-6.5625,21.6875,242.125,-21.25,147.25,0
38.194,9.3565,2.4684,-1.652,-0.0759,-0.0021,0.0163,-69.6,4.05,-44.25,9.7827,-0.0192,0.5148,-0.0149,0.04,-0.0021,-27.75,13.65,1.5,-3.61,-4.86,-7.62,0.0032724911773637858,-0.0032724911773637858,0.0032724911773637858,-9.0,-6.5625,21.6875,242.125,-21.25,147.25,0
38.199,9.3565,2.4684,-1.652,-0.0759,-0.0021,0.0163,-70.35,4.05,-43.8,9.7827,-0.0192,0.5148,-0.0149,0.04,-0.0021,-27.75,13.65,1.5,-3.61,-4.86,-7.62,0.0032724911773637858,-0.0032724911773637858,0.0032724911773637858,-9.0,-6.5625,21.6875,242.125,-21.25,147.25,0
38.207,9.2703,2.4325,-1.5682,-0.0685,-0.0179,0.0104,-70.5,3.9,-43.95,9.7516,0.0551,0.5555,-0.0187,0.0373,0.0053,-27.6,15.0,1.05,-3.63,-4.85,-7.64,0.0032724911773637858,-0.0021816607849091904,0.0010908303924545952,-9.0,-6.5625,21.6875,242.125,-21.25,147.25,0
38.212,9.2967,2.4349,-1.5562,-0.0581,-0.0144,0.0083,-70.5,3.9,-43.95,9.7516,0.0551,0.5555,-0.0282,0.0541,0.0069,-27.15,13.8,2.4,-3.63,-4.85,-7.64,0.0021816607849091904,0.0021816607849091904,0.0010908303924545952,-7.5,-5.875,20.75,242.125,-21.25,147.25,0
38.217,9.2967,2.4349,-1.5562,-0.0581,-0.0144,0.0083,-70.8,4.8,-44.55,9.7516,0.1077,0.5363,-0.0298,0.0581,0.0091,-27.15,13.8,2.4,-3.63,-4.86,-7.63,0.0021816607849091904,0.0021816607849091904,0.0010908303924545952,-7.5,-5.875,20.75,242.125,-21.25,147.25,0
38.227,9.3565,2.3535,-1.4461,-0.0373,-0.008,0.0027,-70.35,1.35,-43.5,9.7803,0.1173,0.486,-0.0368,0.0533,0.0077,-28.2,15.0,0.6,-3.61,-4.87,-7.62,0.0021816607849091904,-0.0032724911773637858,0.0032724911773637858,-7.5,-5.875,20.75,242.125,-21.25,147.25,0
38.236,9.335,2.2793,-1.4413,-0.0261,-0.0253,-0.0088,-70.8,3.3,-44.85,9.754,-0.091,0.5483,-0.0445,0.0394,0.0101,-28.2,15.0,0.6,-3.62,-4.9,-7.6,0.0032724911773637858,0.0,0.004363321569818381,-7.5,-5.875,20.75,242.125,-21.25,147.25,0
38.244,9.2608,2.1811,-1.4269,-0.016,-0.0203,-0.008,-70.8,3.3,-44.85,9.7181,-0.1077,0.6081,-0.0203,0.0362,0.0069,-28.2,15.0,0.6,-3.63,-4.85,-7.65,-0.0010908303924545952,-0.0010908303924545952,0.0054541519622729765,-7.5,-5.875,20.75,242.125,-21.25,147.25,0
38.249,9.3039,2.2673,-1.5969,-0.0061,-0.0051,-0.0093,-70.8,3.3,-44.85,9.7181,-0.1077,0.6081,-0.0203,0.0362,0.0069,-28.2,15.0,0.6,-3.63,-4.85,-7.65,-0.0010908303924545952,-0.0010908303924545952,0.0054541519622729765,-7.5,-5.875,20.75,242.125,-21.25,147.25,0
38.257,9.3039,2.2673,-1.5969,-0.0061,-0.0051,-0.0093,-70.95,3.45,-41.7,9.7109,-0.1341,0.6512,-0.0213,0.0394,0.0147,-27.75,13.2,1.5,-3.63,-4.86,-7.6,0.0,-0.0010908303924545952,0.0054541519622729765,-7.5,-5.875,20.75,242.125,-21.25,147.25,0
38.262,9.2368,2.399,-1.6616,-0.0256,-0.0437,-0.0045,-70.95,3.45,-41.7,9.7875,-0.091,0.6464,-0.028,0.0365,0.0051,-27.0,14.4,2.55,-3.63,-4.86,-7.6,-0.0054541519622729765,0.0021816607849091904,0.0021816607849091904,-7.5,-6.5625,21.6875,242.125,-21.25,147.25,0
38.267,9.3111,2.4517,-1.6209,-0.0256,-0.0437,-0.0045,-70.2,2.7,-44.4,9.7875,-0.091,0.6464,-0.028,0.0365,0.0051,-27.0,14.4,2.55,-3.64,-4.84,-7.63,-0.0054541519622729765,0.0021816607849091904,0.0021816607849091904,-7.5,-6.5625,21.6875,242.125,-21.25,147.25,0
38.277,9.3781,2.4708,-1.6089,-0.0586,0.0029,-0.0032,-72.0,3.45,-42.45,9.7803,-0.0646,0.6847,-0.0016,0.0301,0.0061,-28.8,13.2,3.3,-3.67,-4.85,-7.58,-0.0054541519622729765,0.0032724911773637858,0.0032724911773637858,-7.5,-6.5625,21.6875,242.125,-21.25,147.25,0
38.286,9.3661,2.375,-1.5131,-0.06,-0.0509,-0.0005,-70.35,3.3,-43.5,9.7229,-0.1437,0.6608,0.0093,0.0344,0.0091,-28.5,14.4,1.95,-3.65,-4.87,-7.62,-0.0054541519622729765,0.0065449823547275715,0.0,-7.5,-6.5625,21.6875,242.125,-21.25,147.25,0
38.295,9.3661,2.375,-1.5131,-0.0714,-0.0597,-0.0037,-70.35,3.3,-43.5,9.7731,-0.1532,0.6129,0.0024,0.0634,0.0029,-28.5,14.4,1.95,-3.61,-4.88,-7.59,-0.013089964709455143,0.0,-0.0021816607849091904,-7.5,-6.5625,21.6875,242.125,-21.25,147.25,0
38.3,9.3613,2.2601,-1.4389,-0.0538,-0.0413,-0.0083,-69.75,3.45,-43.95,9.7731,-0.1532,0.6129,-0.0179,0.029,-0.0013,-28.5,14.4,1.95,-3.61,-4.88,-7.59,-0.013089964709455143,0.0,-0.0021816607849091904,-7.5,-6.5625,21.6875,242.125,-21.25,147.25,0
38.307,9.2919,2.1572,-1.6233,-0.0256,-0.0362,-0.0131,-70.95,2.7,-43.65,9.8521,-0.1556,0.5746,-0.0179,0.029,-0.0013,-29.7,15.75,2.4,-3.6,-4.88,-7.55,-0.02072577745663731,0.0010908303924545952,0.0010908303924545952,-7.5,-6.5625,21.6875,242.125,-21.25,147.25,0
38.312,9.2919,2.1572,-1.6233,-0.0256,-0.0362,-0.0131,-70.95,2.7,-43.65,9.7133,-0.1867,0.6177,-0.0171,0.0069,-0.0013,-27.75,15.45,3.0,-3.6,-4.88,-7.55,-0.021816607849091906,0.007635812747182167,0.0010908303924545952,-8.25,-6.5625,21.25,242.125,-21.25,147.25,0
38.318,9.2536,2.1596,-1.4581,-0.0117,-0.025,-0.0147,-70.95,2.7,-43.65,9.7133,-0.1867,0.6177,-0.0171,0.0069,-0.0013,-27.75,15.45,3.0,-3.59,-4.88,-7.64,-0.021816607849091906,0.007635812747182167,0.0010908303924545952,-8.25,-6.5625,21.25,242.125,-21.25,147.3125,0
38.327,9.3948,2.229,-1.4006,-0.0155,-0.0157,-0.0099,-70.2,4.2,-43.2,9.7085,-0.1317,0.589,-0.0083,0.0573,0.004,-28.5,16.2,1.2,-3.65,-4.86,-7.6,-0.019634947064182715,0.0065449823547275715,0.0032724911773637858,-8.25,-6.5625,21.25,242.125,-21.25,147.3125,0
38.336,9.2703,2.15,-1.5395,-0.0261,-0.0456,-0.0059,-70.2,4.2,-43.2,9.7205,-0.1604,0.656,-0.0197,0.0778,-0.0101,-29.7,14.25,1.05,-3.62,-4.86,-7.65,-0.014180795101909739,0.011999134317000549,0.0021816607849091904,-8.25,-6.5625,21.25,242.125,-21.25,147.3125,0
38.346,9.1506,2.2984,-1.652,-0.0226,0.0064,-0.0011,-70.2,4.2,-43.2,9.7468,-0.1341,0.6057,-0.0109,0.0584,-0.0125,-29.7,14.25,1.05,-3.63,-4.84,-7.62,-0.008726643139636761,0.02072577745663731,0.0021816607849091904,-8.25,-6.5625,21.25,242.125,-21.1875,147.3125,0
38.352,9.1506,2.2984,-1.652,-0.0226,0.0064,-0.0011,-70.2,1.5,-43.95,9.742,-0.1317,0.6488,0.0077,0.0544,-0.0051,-28.5,13.65,2.25,-3.63,-4.84,-7.62,-0.0054541519622729765,0.010908303924545953,0.0010908303924545952,-8.25,-6.5625,21.25,242.125,-21.1875,147.3125,0
38.358,9.3111,2.4852,-1.5897,-0.012,0.0312,-0.0072,-71.25,2.25,-44.4,9.7205,-0.0096,0.5818,-0.004,0.057,-0.0112,-28.5,13.65,2.25,-3.63,-4.85,-7.6,-0.0054541519622729765,0.010908303924545953,0.0010908303924545952,-8.25,-6.5625,21.25,242.125,-21.1875,147.3125,0
38.363,9.3111,2.4852,-1.5897,-0.012,0.0312,-0.0072,-71.25,2.25,-44.4,9.7205,-0.0096,0.5818,-0.004,0.057,-0.0112,-27.75,15.45,0.75,-3.63,-4.88,-7.58,-0.0021816607849091904,0.0065449823547275715,0.0010908303924545952,-7.5,-6.5625,20.875,242.125,-21.1875,147.3125,0
38.368,9.268,2.4086,-1.4964,-0.0322,0.0242,-0.0136,-70.5,4.65,-42.9,9.6869,0.0886,0.5459,0.0011,0.0613,-0.0109,-27.75,15.45,0.75,-3.63,-4.88,-7.58,-0.0021816607849091904,0.0065449823547275715,0.0010908303924545952,-7.5,-6.5625,20.875,242.125,-21.1875,147.3125,0
38.377,9.3326,2.32,-1.5538,-0.0064,0.0402,-0.029,-70.5,4.65,-42.9,9.6869,0.0886,0.5459,0.0157,0.0813,-0.0168,-27.6,14.25,0.3,-3.63,-4.87,-7.56,-0.0021816607849091904,0.0021816607849091904,0.0010908303924545952,-7.5,-6.5625,20.875,242.125,-21.1875,147.3125,0
38.387,9.2991,2.2266,-1.6089,0.0107,0.024,-0.0352,-68.85,4.8,-44.85,9.7683,-0.1101,0.5315,-0.0069,0.0506,-0.0117,-28.8,15.45,3.3,-3.63,-4.86,-7.63,0.0021816607849091904,0.008726643139636761,-0.0010908303924545952,-7.5,-6.5625,20.875,242.125,-21.1875,147.3125,0
38.397,9.2703,2.2721,-1.6041,0.012,0.032,-0.04,-68.85,4.8,-44.85,9.7803,-0.1532,0.5626,-0.0248,0.0528,-0.0173,-28.2,13.8,2.4,-3.59,-4.85,-7.62,0.0,0.0010908303924545952,0.0,-7.5,-6.5625,20.875,242.125,-21.1875,147.3125,0
38.407,9.1889,2.2673,-1.6999,0.0234,0.0163,-0.0346,-71.7,5.4,-45.15,9.7181,-0.1413,0.5459,-0.028,0.024,-0.0117,-28.2,13.8,2.4,-3.62,-4.82,-7.63,-0.0032724911773637858,-0.0054541519622729765,-0.0021816607849091904,-7.5,-6.5625,20.875,242.125,-21.1875,147.3125,0
38.412,9.1985,2.3918,-1.6999,0.0234,0.0163,-0.0346,-71.7,5.4,-45.15,9.7181,-0.1413,0.5459,-0.028,0.024,-0.0117,-28.05,15.15,2.25,-3.62,-4.82,-7.63,-0.0065449823547275715,-0.008726643139636761,0.0,-8.25,-6.1875,20.5,242.125,-21.1875,147.3125,0
38.418,9.1985,2.3918,-1.6999,0.0301,0.0373,-0.0274,-69.6,4.5,-44.85,9.7037,0.0168,0.6153,-0.0402,0.0304,-0.0109,-28.05,15.15,2.25,-3.65,-4.85,-7.61,-0.0065449823547275715,-0.008726643139636761,0.0,-8.25,-6.1875,20.5,242.125,-21.1875,147.3125,0
38.427,9.2991,2.4948,-1.5826,0.0344,0.0155,-0.0314,-69.6,4.5,-44.85,9.7659,0.1508,0.4405,-0.0552,0.0258,-0.0021,-28.95,15.0,1.65,-3.63,-4.88,-7.58,-0.008726643139636761,-0.008726643139636761,0.0,-8.25,-6.1875,20.5,242.125,-21.1875,147.3125,0
38.437,9.3278,2.5115,-1.5826,0.0274,0.0061,-0.0341,-72.0,3.9,-42.9,9.7229,0.1077,0.4405,-0.036,0.0221,-0.0109,-28.2,15.0,1.35,-3.64,-4.9,-7.6,-0.010908303924545953,-0.0010908303924545952,0.0,-8.25,-6.1875,20.5,242.125,-21.1875,147.3125,0
38.445,9.2967,2.3798,-1.4174,0.0426,-0.0208,-0.0402,-72.3,3.6,-42.75,9.663,-0.0215,0.4956,0.0,0.024,-0.0131,-27.6,15.3,2.1,-3.61,-4.86,-7.63,-0.011999134317000549,0.004363321569818381,0.0010908303924545952,-8.25,-6.1875,20.5,242.125,-21.1875,147.3125,0
38.45,9.2368,2.3415,-1.5155,0.0426,-0.0208,-0.0402,-71.55,3.6,-42.75,9.663,-0.0215,0.4956,0.0,0.024,-0.0131,-27.6,15.3,2.1,-3.61,-4.86,-7.63,-0.011999134317000549,0.004363321569818381,0.0010908303924545952,-8.25,-6.1875,20.5,242.125,-21.1875,147.3125,0
38.458,9.2368,2.3415,-1.5155,0.0765,0.0043,-0.0485,-70.35,2.85,-43.5,9.7348,-0.1772,0.5794,0.0101,0.0381,-0.016,-27.6,15.3,2.1,-3.6,-4.88,-7.63,-0.009817473532091357,0.011999134317000549,-0.0010908303924545952,-8.25,-6.1875,20.5,242.125,-21.1875,147.3125,0
38.463,9.3254,2.3439,-1.5921,0.0863,-0.0077,-0.0461,-70.35,2.85,-43.5,9.7348,-0.1772,0.5794,0.0101,0.0381,-0.016,-28.2,14.55,1.05,-3.6,-4.88,-7.63,-0.0065449823547275715,0.013089964709455143,-0.0021816607849091904,-8.25,-6.1875,22.0625,242.125,-21.1875,147.3125,0
38.468,9.3254,2.3439,-1.5921,0.0863,-0.0077,-0.0461,-69.6,2.85,-43.5,9.7851,-0.2801,0.589,0.0088,0.0349,-0.0168,-28.95,13.8,1.35,-3.59,-4.84,-7.63,-0.0065449823547275715,0.013089964709455143,-0.0021816607849091904,-8.25,-6.1875,22.0625,242.125,-21.1875,147.3125,0
38.477,9.3518,2.3296,-1.6783,0.0885,-0.0013,-0.0429,-69.6,2.85,-43.5,9.833,-0.3352,0.656,0.0346,0.0157,-0.0152,-28.95,13.8,1.35,-3.62,-4.85,-7.65,-0.013089964709455143,0.0054541519622729765,-0.0010908303924545952,-8.25,-6.1875,22.0625,242.125,-21.1875,147.3125,0
38.487,9.335,2.3056,-1.8004,0.0682,-0.0573,-0.036,-69.6,2.85,-43.5,9.7875,-0.4166,0.6057,0.0368,-0.0005,-0.0179,-28.2,14.25,2.1,-3.63,-4.84,-7.63,-0.01854411667172812,-0.0010908303924545952,0.0,-8.25,-6.1875,22.0625,242.125,-21.1875,147.3125,0
38.497,9.3039,2.3104,-1.7693,0.0362,0.0152,-0.0258,-69.15,4.5,-42.3,9.6941,-0.3519,0.6823,0.0168,0.0085,-0.0165,-28.65,14.55,2.1,-3.66,-4.82,-7.63,-0.01636245588681893,-0.0021816607849091904,-0.0032724911773637858,-8.25,-6.1875,22.0625,242.125,-21.1875,147.3125,0
38.506,9.323,2.3846,-1.719,0.0546,0.0125,-0.0197,-71.25,3.45,-43.2,9.6558,-0.2705,0.5794,-0.0242,0.0554,-0.0298,-28.2,14.25,2.1,-3.61,-4.83,-7.63,0.019634947064182715,0.0054541519622729765,-0.007635812747182167,-8.25,-6.1875,22.0625,242.125,-21.1875,147.3125,0
38.511,9.1028,2.2936,-1.5706,0.0738,0.0091,-0.0125,-70.2,4.95,-41.1,9.6558,-0.2705,0.5794,-0.0242,0.0554,-0.0298,-28.2,14.25,2.1,-3.61,-4.83,-7.63,0.019634947064182715,0.0054541519622729765,-0.007635812747182167,-7.0625,-6.5625,20.0625,242.125,-21.1875,147.3125,0
38.517,9.1842,2.3176,-1.4653,0.0738,0.0091,-0.0125,-70.2,4.95,-41.1,9.7468,-0.1269,0.4908,-0.0117,0.1402,-0.0386,-28.65,14.55,1.35,-3.6,-4.79,-7.68,0.02072577745663731,-0.007635812747182167,-0.008726643139636761,-7.0625,-6.5625,20.0625,242.125,-21.1875,147.3125,0
38.527,9.3901,2.2482,-1.5538,0.1074,0.1202,-0.0083,-70.5,3.9,-42.45,9.8904,-0.0024,0.4741,0.0072,0.0658,-0.0328,-27.3,12.9,0.75,-3.62,-4.86,-7.65,0.010908303924545953,-0.027270759811364884,-0.007635812747182167,-7.0625,-6.5625,20.0625,242.125,-21.1875,147.3125,0
38.537,9.3972,2.2482,-1.6376,0.1631,0.1021,-0.0136,-69.6,2.1,-44.25,9.6917,-0.0479,0.4741,0.012,0.0187,-0.0288,-26.85,15.3,2.4,-3.61,-4.87,-7.61,0.023998268634001098,-0.021816607849091906,-0.007635812747182167,-7.0625,-6.5625,20.0625,242.125,-21.25,147.3125,0
38.545,9.3972,2.2482,-1.6376,0.1631,0.1021,-0.0136,-71.25,2.7,-43.65,9.6438,-0.1844,0.6033,0.04,0.0767,-0.0485,-26.85,15.3,2.4,-3.62,-4.84,-7.61,0.026179929418910286,-0.015271625494364335,-0.004363321569818381,-7.0625,-6.5625,20.0625,242.125,-21.25,147.25,0
38.55,9.2296,2.2146,-1.6257,0.1692,0.1066,-0.0245,-71.25,2.7,-43.65,9.6438,-0.1844,0.6033,0.0442,0.0655,-0.0418,-26.7,14.4,0.75,-3.62,-4.84,-7.61,0.026179929418910286,-0.015271625494364335,-0.004363321569818381,-7.0625,-6.5625,20.0625,242.125,-21.25,147.25,0
38.558,9.2296,2.2745,-1.6616,0.1676,0.1154,-0.0266,-71.25,2.7,-43.65,9.7707,-0.3639,0.5962,0.0405,0.0648,-0.0453,-26.7,14.4,0.75,-3.63,-4.81,-7.62,0.015271625494364335,-0.01636245588681893,-0.0054541519622729765,-7.0625,-6.5625,20.0625,242.125,-21.25,147.25,0
38.563,9.2296,2.2745,-1.6616,0.1676,0.1154,-0.0266,-70.8,3.6,-43.05,9.7109,-0.4884,0.5363,0.0016,0.0304,-0.0405,-26.7,14.4,0.75,-3.63,-4.81,-7.62,0.0010908303924545952,-0.015271625494364335,-0.007635812747182167,-7.0625,-5.875,22.5,242.125,-21.25,147.25,0
38.568,9.1889,2.2075,-1.6424,0.1074,0.0581,-0.0171,-70.8,3.6,-43.05,9.7109,-0.4884,0.5363,0.0016,0.0304,-0.0405,-27.15,15.3,1.35,-3.66,-4.84,-7.59,0.0010908303924545952,-0.015271625494364335,-0.007635812747182167,-7.0625,-5.875,22.5,242.125,-21.25,147.25,0
38.577,9.3374,2.2194,-1.8148,0.1063,0.0282,-0.0131,-70.35,2.85,-43.5,9.6007,-0.4214,0.6033,0.0008,0.0325,-0.0402,-26.85,12.75,3.45,-3.65,-4.83,-7.56,-0.010908303924545953,-0.007635812747182167,-0.008726643139636761,-7.0625,-5.875,22.5,242.125,-21.25,147.25,0
38.587,9.2201,2.2601,-1.6616,0.1039,0.0139,0.0072,-72.0,3.9,-45.15,9.7588,-0.1293,0.6369,0.0083,0.0522,-0.0485,-28.65,13.5,2.1,-3.7,-4.84,-7.61,-0.008726643139636761,0.008726643139636761,-0.014180795101909739,-7.0625,-5.875,22.5,242.125,-21.25,147.25,0
38.597,9.4092,2.4445,-1.7765,0.13,0.0264,0.0264,-70.8,3.3,-44.25,9.7468,0.2562,0.5171,0.0184,0.0618,-0.0474,-27.75,15.15,1.5,-3.62,-4.87,-7.61,-0.011999134317000549,0.033815742166092455,-0.021816607849091906,-7.0625,-5.875,22.5,242.125,-21.25,147.25,0
38.606,9.2033,2.545,-1.6735,0.1362,0.0258,0.0173,-69.6,2.85,-43.5,9.7947,0.2179,0.486,0.0386,0.06,-0.0509,-27.75,15.15,1.5,-3.62,-4.84,-7.66,-0.01636245588681893,0.0469057068755476,-0.0229074382415465,-7.0625,-5.875,22.5,242.125,-21.1875,147.3125,0
38.611,9.2033,2.545,-1.6735,0.1362,0.0258,0.0173,-69.45,2.25,-43.95,9.6726,0.0335,0.5411,0.0778,0.0317,-0.0448,-27.75,15.15,1.5,-3.62,-4.84,-7.66,-0.01636245588681893,0.0469057068755476,-0.0229074382415465,-7.0625,-5.875,22.5,242.125,-21.1875,147.3125,0
38.616,9.1435,2.466,-1.798,0.1239,0.0421,0.0088,-69.45,2.25,-43.95,9.6726,0.0335,0.5411,0.0778,0.0317,-0.0448,-27.75,15.15,1.5,-3.55,-4.84,-7.59,-0.03054325098872867,0.0469057068755476,-0.0229074382415465,-7.5,-6.1875,21.25,242.125,-21.1875,147.3125,0
38.621,9.1435,2.466,-1.798,0.1239,0.0421,0.0088,-69.45,2.25,-43.95,9.5074,-0.0479,0.419,0.0773,0.052,-0.044,-27.75,15.15,1.5,-3.55,-4.84,-7.59,-0.03054325098872867,0.0469057068755476,-0.0229074382415465,-7.5,-6.1875,21.25,242.125,-21.1875,147.3125,0
38.626,9.1195,2.4421,-1.7119,0.138,0.0541,0.0005,-69.45,2.25,-43.95,9.5074,-0.0479,0.419,0.0773,0.052,-0.044,-27.9,13.5,2.1,-3.61,-4.89,-7.62,-0.03272491177363786,0.03599740295100164,-0.021816607849091906,-7.5,-6.1875,21.25,242.0625,-21.125,147.3125,0
38.631,9.1195,2.4421,-1.7119,0.138,0.0541,0.0005,-70.2,1.95,-45.15,9.5146,0.0862,0.4214,0.061,0.0725,-0.0405,-27.9,13.5,2.1,-3.61,-4.89,-7.62,-0.03272491177363786,0.03599740295100164,-0.021816607849091906,-7.5,-6.1875,21.25,242.0625,-21.125,147.3125,0
38.638,9.2153,2.4493,-1.6831,0.1729,0.1015,0.0003,-70.2,1.95,-45.15,9.5146,0.0862,0.4214,0.0493,0.0962,-0.0418,-27.75,14.4,2.25,-3.65,-4.87,-7.64,-0.021816607849091906,0.025089099026455692,-0.0229074382415465,-7.5,-6.1875,21.25,242.0625,-21.125,147.3125,0
38.647,9.2536,2.478,-1.8914,0.2252,0.1143,0.0013,-70.2,1.95,-45.15,9.6989,0.2059,0.3783,0.0115,0.0815,-0.033,-27.9,15.3,2.85,-3.6,-4.87,-7.65,-0.014180795101909739,0.02072577745663731,-0.023998268634001098,-7.5,-6.1875,21.25,242.0625,-21.125,147.3125,0
38.657,9.1818,2.557,-1.9417,0.2278,0.0855,-0.0107,-71.1,3.6,-43.8,9.9264,0.3232,0.5076,0.0272,0.1122,-0.0253,-28.5,13.95,1.95,-3.55,-4.84,-7.66,-0.0032724911773637858,0.009817473532091357,-0.0229074382415465,-7.5,-6.1875,21.25,242.0625,-21.125,147.3125,0
38.662,9.1387,2.6719,-1.9656,0.2137,0.0813,-0.0109,-70.05,3.3,-43.5,9.7109,0.4166,0.5411,0.0232,0.1204,-0.024,-28.5,13.95,1.95,-3.55,-4.84,-7.66,-0.004363321569818381,-0.0021816607849091904,-0.021816607849091906,-7.875,-5.875,22.875,242.0625,-21.0625,147.3125,0
38.668,9.1387,2.6719,-1.9656,0.2137,0.0813,-0.0109,-70.05,3.3,-43.5,9.73,0.7374,0.668,-0.0091,0.1292,-0.0115,-28.5,13.95,1.95,-3.59,-4.91,-7.63,-0.004363321569818381,-0.0021816607849091904,-0.021816607849091906,-7.875,-5.875,22.875,242.0,-21.0625,147.3125,0
38.678,9.2727,2.7366,-1.8076,0.2052,0.0296,-0.0213,-70.5,2.7,-44.4,9.6965,0.7614,0.6416,-0.029,0.1418,-0.016,-28.95,13.8,0.6,-3.51,-4.95,-7.55,0.0065449823547275715,-0.0054541519622729765,-0.021816607849091906,-7.875,-5.875,22.875,242.0,-21.0625,147.3125,0
38.687,9.2344,2.897,-1.7861,0.1876,0.0072,-0.036,-71.1,3.3,-43.8,9.6151,0.7757,0.5363,0.0099,0.17,-0.0203,-27.75,13.95,0.45,-3.51,-5.05,-7.53,0.028361590203819478,-0.008726643139636761,-0.017453286279273523,-7.875,-5.875,22.875,242.0,-21.0625,147.3125,0
38.697,9.2488,2.7773,-1.743,0.1687,-0.025,-0.0493,-71.1,3.3,-43.8,9.7276,0.3783,0.5938,0.0288,0.1799,-0.0093,-26.4,13.5,1.65,-3.6,-5.03,-7.54,0.025089099026455692,-0.011999134317000549,-0.008726643139636761,-7.875,-5.875,22.875,242.0,-21.0625,147.3125,0
38.707,8.9543,2.5618,-1.5323,0.129,-0.033,-0.0605,-70.5,2.25,-42.9,9.7803,0.0287,0.6943,0.0088,0.1697,0.0013,-28.05,13.2,1.95,-3.61,-4.97,-7.52,0.008726643139636761,-0.0010908303924545952,-0.0032724911773637858,-7.875,-5.875,22.875,242.0,-21.0625,147.3125,0
38.712,9.5122,2.5809,-1.7262,0.1519,0.0863,-0.0666,-70.5,2.25,-42.9,9.7803,0.0287,0.6943,0.0088,0.1697,0.0013,-28.05,13.2,1.95,-3.61,-4.97,-7.52,0.007635812747182167,0.009817473532091357,-0.0021816607849091904,-6.75,-6.5625,21.6875,242.0,-21.0625,147.3125,0
38.718,9.5122,2.5809,-1.7262,0.1519,0.0863,-0.0666,-70.5,2.25,-42.9,9.7731,-0.2083,0.7781,-0.069,0.1508,0.0125,-28.05,13.2,1.95,-3.64,-4.88,-7.62,0.007635812747182167,0.009817473532091357,-0.0021816607849091904,-6.75,-6.5625,21.6875,242.0,-21.0625,147.3125,0
38.728,9.5361,2.1979,-1.3096,0.214,-0.1116,-0.0831,-70.35,2.4,-42.75,9.7205,-0.3783,0.7039,-0.1242,0.2217,-0.0005,-27.0,15.45,1.95,-3.51,-4.89,-7.61,-0.013089964709455143,0.013089964709455143,-0.0021816607849091904,-6.75,-6.5625,21.6875,242.0,-21.0625,147.3125,0
38.738,9.0046,2.0135,-1.5251,0.1362,0.0738,-0.0581,-70.95,3.0,-42.45,9.9551,-0.1796,0.9673,-0.11,0.0117,0.0232,-28.05,13.95,2.55,-3.61,-4.84,-7.61,0.0021816607849091904,-0.0054541519622729765,0.0054541519622729765,-6.75,-6.5625,21.6875,242.0,-21.0625,147.3125,0
38.747,9.2584,2.0255,-1.8531,0.1543,0.0608,-0.0448,-70.95,1.5,-43.2,9.833,-0.1365,0.8595,-0.1079,-0.0312,0.0232,-26.4,14.55,2.4,-3.62,-4.88,-7.62,-0.011999134317000549,0.010908303924545953,0.0065449823547275715,-6.75,-6.5625,21.6875,242.0,-21.0625,147.3125,0
38.755,9.1698,2.2194,-1.8818,0.1647,-0.025,-0.0368,-69.6,2.4,-42.3,9.8354,-0.3926,0.7733,-0.1151,0.0195,0.0128,-27.9,15.0,2.4,-3.53,-4.88,-7.61,-0.025089099026455692,0.0032724911773637858,0.004363321569818381,-6.75,-6.5625,21.6875,242.0,-21.0625,147.3125,0
38.76,9.1435,2.399,-1.6927,0.1021,0.0698,-0.0059,-69.6,2.4,-42.3,9.8354,-0.3926,0.7733,-0.1151,0.0195,0.0128,-27.9,15.0,2.4,-3.53,-4.88,-7.61,-0.025089099026455692,0.0032724911773637858,0.004363321569818381,-6.75,-6.5625,21.6875,242.0,-21.0625,147.3125,0
38.765,9.1435,2.399,-1.6927,0.1021,0.0698,-0.0059,-70.35,2.1,-43.5,9.8354,-0.7781,0.6009,-0.0959,0.0469,0.0136,-27.6,15.0,2.85,-3.66,-4.86,-7.62,0.0032724911773637858,-0.033815742166092455,0.011999134317000549,-7.875,-5.875,20.5,242.0,-21.0625,147.3125,0
38.77,9.1889,2.557,-1.6352,0.06,0.0839,0.0077,-70.35,2.1,-43.5,9.8354,-0.7781,0.6009,-0.0959,0.0469,0.0136,-27.6,15.0,2.85,-3.66,-4.86,-7.62,0.0032724911773637858,-0.033815742166092455,0.011999134317000549,-7.875,-5.875,20.5,242.0,-21.0625,147.3125,0
38.775,9.1889,2.557,-1.6352,0.06,0.0839,0.0077,-70.35,1.35,-43.8,9.7085,-0.8452,0.5842,-0.0605,0.0813,0.0021,-27.6,15.0,2.85,-3.7,-4.79,-7.64,0.0,-0.03272491177363786,0.010908303924545953,-7.875,-5.875,20.5,242.0,-21.125,147.3125,0
38.78,9.2608,2.569,-1.6951,0.0807,0.0253,0.0317,-70.35,1.35,-43.8,9.7085,-0.8452,0.5842,-0.0605,0.0813,0.0021,-27.6,15.0,2.85,-3.7,-4.79,-7.64,0.0,-0.03272491177363786,0.010908303924545953,-7.875,-5.875,20.5,242.0,-21.125,147.3125,0
38.788,9.3541,2.7821,-1.719,0.0959,0.0163,0.06,-70.35,1.35,-43.8,9.9455,-0.34,0.8906,0.0067,0.0797,0.0107,-27.75,13.65,1.5,-3.63,-4.69,-7.66,-0.013089964709455143,0.008726643139636761,0.0,-7.875,-5.875,20.5,242.0,-21.125,147.3125,0
38.798,9.2871,3.0406,-1.5371,0.1183,-0.0211,0.0767,-70.35,1.35,-42.0,9.9407,0.1987,0.8547,0.0205,0.1719,0.004,-28.5,13.65,1.2,-3.49,-4.83,-7.66,0.04145155491327462,0.0054541519622729765,-0.004363321569818381,-7.875,-5.875,20.5,242.0,-21.125,147.3125,0
38.807,9.2129,3.1915,-1.3791,0.1719,0.0496,0.0661,-69.75,1.5,-41.7,10.0437,0.7039,0.6895,0.1458,0.0783,-0.004,-28.8,15.15,2.25,-3.55,-4.98,-7.55,0.0469057068755476,-0.019634947064182715,-0.011999134317000549,-7.875,-5.875,20.5,242.0,-21.125,147.25,0
38.812,9.2129,3.1915,-1.3791,0.1719,0.0496,0.0661,-70.35,2.85,-42.3,10.0437,0.7039,0.6895,0.3067,0.0514,-0.0216,-26.7,13.95,1.95,-3.55,-4.98,-7.55,0.0469057068755476,-0.019634947064182715,-0.011999134317000549,-7.875,-5.875,20.5,242.0,-21.125,147.25,0
38.817,9.2009,3.1125,-1.2881,0.2425,0.0962,0.0482,-70.35,2.85,-42.3,9.7109,0.5962,0.9649,0.3235,0.056,-0.0264,-26.7,13.95,1.95,-3.56,-5.02,-7.55,0.06981314511709409,-0.05781401080009355,-0.0065449823547275715,-7.5,-5.875,22.5,242.0,-21.125,147.25,0
38.822,9.2009,3.1125,-1.2881,0.2425,0.0962,0.0482,-69.6,1.65,-42.3,9.7109,0.5962,0.9649,0.3563,0.1021,-0.0464,-26.7,13.95,1.95,-3.56,-5.02,-7.55,0.06981314511709409,-0.05781401080009355,-0.0065449823547275715,-7.5,-5.875,22.5,242.0,-21.125,147.25,0
38.827,9.1123,2.8299,-1.1684,0.3,0.1356,0.0352,-69.6,1.65,-42.3,9.651,-0.1867,1.0894,0.3573,0.0943,-0.0456,-26.7,13.95,1.95,-3.49,-5.0,-7.52,0.09817473532091357,-0.06654065393973031,-0.0032724911773637858,-7.5,-5.875,22.5,242.0,-21.1875,147.1875,0
38.832,9.1123,2.8299,-1.1684,0.3,0.1356,0.0352,-70.5,1.5,-43.2,9.651,-0.1867,1.0894,0.2907,0.1207,-0.0493,-26.7,13.95,1.95,-3.49,-5.0,-7.52,0.08072144904164005,-0.07853978825673086,0.0010908303924545952,-7.5,-5.875,22.5,242.0,-21.1875,147.125,0
38.838,9.2416,2.6743,-1.1923,0.4016,0.1364,0.0317,-70.5,1.5,-43.2,9.6414,-0.7159,0.984,0.2907,0.1207,-0.0493,-28.2,13.5,3.15,-3.63,-4.87,-7.62,0.08072144904164005,-0.07853978825673086,0.0010908303924545952,-7.5,-5.875,22.5,242.0,-21.25,147.0625,0
38.848,9.3565,2.7845,-1.391,0.4743,0.1966,0.0544,-70.35,0.9,-43.5,9.8952,-0.577,1.0511,0.1924,0.1543,-0.02,-28.95,15.75,3.15,-3.67,-4.87,-7.68,0.07090397550954869,-0.06217733236991193,-0.0021816607849091904,-7.5,-5.875,22.5,242.0,-21.25,147.0625,0
38.858,9.4691,2.9999,-1.4485,0.5071,0.1924,0.0546,-70.35,0.9,-43.5,10.1227,0.2753,0.972,0.1055,0.1226,0.0088,-26.85,14.55,1.35,-3.64,-4.8,-7.72,0.034906572558547046,-0.0469057068755476,-0.007635812747182167,-7.5,-5.875,22.5,242.0,-21.25,147.0625,0
38.863,9.3278,2.7892,-1.3551,0.5071,0.1924,0.0546,-69.6,0.9,-43.05,9.9288,0.7494,1.0606,0.0914,0.0083,0.0131,-30.3,14.4,2.25,-3.64,-4.8,-7.72,0.034906572558547046,-0.0469057068755476,-0.007635812747182167,-8.5625,-6.5625,21.25,242.0,-21.3125,147.0,0
38.868,9.3278,2.7892,-1.3551,0.4604,0.17,0.0405,-69.6,0.9,-43.05,9.9288,0.7494,1.0606,0.0914,0.0083,0.0131,-30.3,14.4,2.25,-3.57,-5.06,-7.6,0.01854411667172812,-0.056723180407638955,-0.0065449823547275715,-8.5625,-6.5625,21.25,242.0,-21.3125,147.0,0
38.873,9.2488,2.6528,-1.245,0.4604,0.17,0.0405,-70.2,1.5,-43.95,9.572,0.7949,1.2234,0.145,-0.0554,0.0,-27.75,13.65,2.55,-3.57,-5.06,-7.6,0.01854411667172812,-0.056723180407638955,-0.0065449823547275715,-8.5625,-6.5625,21.25,242.0,-21.3125,147.0,0
38.878,9.2488,2.6528,-1.245,0.3778,0.1452,0.033,-70.2,1.5,-43.95,9.572,0.7949,1.2234,0.145,-0.0554,0.0,-27.75,13.65,2.55,-3.64,-5.05,-7.53,0.013089964709455143,-0.08726643139636762,-0.0010908303924545952,-8.5625,-6.5625,21.25,242.0,-21.3125,147.0,0
38.883,9.2249,2.4636,-1.1396,0.3778,0.1452,0.033,-70.35,0.15,-42.3,9.493,0.5986,1.3455,0.2329,-0.0663,0.0064,-27.75,13.65,2.55,-3.64,-5.05,-7.53,0.03599740295100164,-0.10035639610582277,0.0032724911773637858,-8.5625,-6.5625,21.25,242.0,-21.375,147.0,0
38.889,9.2249,2.4636,-1.1396,0.3584,0.1263,0.0226,-70.35,0.15,-42.3,9.493,0.5986,1.3455,0.1498,0.0242,0.0037,-27.75,13.65,2.55,-3.7,-5.01,-7.5,0.03599740295100164,-0.10035639610582277,0.0032724911773637858,-8.5625,-6.5625,21.25,242.0,-21.4375,146.9375,0
38.898,9.4691,2.3846,-1.3096,0.3483,0.1442,0.0096,-70.2,1.05,-42.15,9.6534,0.237,0.9673,0.141,0.0229,0.0099,-26.4,14.55,3.15,-3.67,-5.09,-7.41,0.033815742166092455,-0.08835726178882222,0.007635812747182167,-8.5625,-6.5625,21.25,242.0,-21.4375,146.9375,0
38.908,9.4499,2.1476,-1.3264,0.3584,0.089,0.0093,-70.8,0.15,-41.55,9.6103,-0.1365,0.7997,0.0805,0.0152,0.0109,-28.5,15.9,1.5,-3.74,-4.95,-7.48,0.0065449823547275715,-0.06872231472463951,0.0054541519622729765,-8.5625,-6.5625,21.25,241.9375,-21.4375,146.9375,0
38.913,9.6103,1.9776,-1.5586,0.3765,0.0946,0.0386,-70.95,0.0,-43.2,9.584,-0.103,0.6153,0.0437,0.0978,0.0144,-28.05,13.95,3.0,-3.74,-4.95,-7.48,0.0065449823547275715,-0.06872231472463951,0.0054541519622729765,-8.5625,-6.5625,21.25,241.9375,-21.4375,146.9375,0
38.918,9.6103,1.9776,-1.5586,0.3765,0.0946,0.0386,-70.95,0.0,-43.2,9.584,-0.103,0.6153,-0.1559,0.1761,0.0069,-28.05,13.95,3.0,-3.75,-4.9,-7.54,-0.02072577745663731,-0.03163408138118326,0.0065449823547275715,-7.5,-5.875,22.0625,241.9375,-21.4375,146.9375,0
38.923,9.6654,1.9968,-2.1165,0.3581,0.1263,0.0877,-70.95,0.0,-43.2,9.7444,-0.2514,0.1125,-0.1812,0.1788,0.0021,-27.3,13.65,3.0,-3.75,-4.9,-7.54,-0.02072577745663731,-0.03163408138118326,0.0065449823547275715,-7.5,-5.875,22.0625,241.9375,-21.4375,146.9375,0
38.928,9.6654,1.9968,-2.1165,0.3581,0.1263,0.0877,-70.95,0.0,-43.2,9.7444,-0.2514,0.1125,-0.3091,0.1386,0.0013,-27.3,13.65,3.0,-3.64,-4.84,-7.6,-0.027270759811364884,0.0054541519622729765,0.0054541519622729765,-7.5,-5.875,22.0625,241.9375,-21.4375,146.9375,0
38.933,9.8426,2.569,-2.4804,0.3603,0.0749,0.1276,-70.95,0.0,-42.15,9.8689,0.0311,0.4932,-0.3142,0.145,0.0013,-27.3,13.65,3.0,-3.64,-4.84,-7.6,-0.015271625494364335,0.0054541519622729765,0.013089964709455143,-7.5,-5.875,22.0625,241.9375,-21.4375,146.9375,0
38.939,9.8426,2.569,-2.4804,0.3603,0.0749,0.1276,-70.95,0.0,-42.15,9.9024,0.6201,0.7422,-0.3304,0.1383,0.0504,-27.3,13.65,3.0,-3.56,-4.79,-7.7,-0.015271625494364335,0.0054541519622729765,0.013089964709455143,-7.5,-5.875,22.0625,242.0,-21.5,147.0,0
38.948,9.1985,2.7485,-2.6432,0.3043,0.044,0.1053,-70.05,-1.35,-43.8,9.7612,1.3336,0.9697,-0.3669,0.1178,0.0624,-27.6,14.55,3.9,-3.56,-4.8,-7.69,0.0054541519622729765,-0.010908303924545953,0.028361590203819478,-7.5,-5.875,22.0625,242.0,-21.5,147.0,0
38.956,8.8705,2.6552,-2.3439,0.4325,0.0346,0.056,-70.5,0.75,-43.2,9.7612,1.3336,0.9697,-0.3669,0.1178,0.0624,-28.2,13.8,3.45,-3.51,-4.97,-7.6,0.019634947064182715,-0.034906572558547046,0.03926989412836543,-7.5,-5.875,22.0625,242.0,-21.5,146.9375,0
38.961,8.9304,2.8467,-2.0782,0.3877,0.0616,0.0274,-70.5,0.75,-43.2,9.5864,1.81,1.2354,-0.3762,0.0927,0.0565,-27.75,13.65,2.55,-3.51,-4.97,-7.6,0.019634947064182715,-0.034906572558547046,0.03926989412836543,-7.5,-5.875,22.0625,242.0,-21.5,146.9375,0
38.966,8.9304,2.8467,-2.0782,0.3877,0.0616,0.0274,-70.95,-0.3,-42.9,9.5864,1.81,1.2354,-0.3762,0.0927,0.0565,-27.75,13.65,2.55,-3.41,-5.36,-7.15,0.02072577745663731,-0.049087367660456786,0.05345068923027517,-7.0625,-6.5625,21.25,242.0,-21.5625,146.9375,0
38.971,9.2225,2.8419,-1.6831,0.2731,0.0738,0.0045,-70.95,-0.3,-42.9,9.7133,1.4796,0.7614,-0.3826,0.0986,0.0261,-26.7,13.95,1.95,-3.41,-5.36,-7.15,0.02072577745663731,-0.049087367660456786,0.05345068923027517,-7.0625,-6.5625,21.25,242.0,-21.5625,146.9375,0
38.976,9.2225,2.8419,-1.6831,0.2731,0.0738,0.0045,-70.8,0.15,-43.5,9.7133,1.4796,0.7614,-0.3826,0.0986,0.0261,-26.7,13.95,1.95,-3.32,-5.39,-7.21,0.010908303924545953,-0.047996537268002196,0.07526729707936708,-7.0625,-6.5625,21.25,242.0625,-21.5625,146.9375,0
38.981,9.2344,2.466,-1.3767,0.2641,0.0144,-0.0248,-70.8,0.15,-43.5,9.7013,0.6776,1.2091,-0.3246,0.0629,0.0083,-26.7,13.95,1.95,-3.32,-5.39,-7.21,0.010908303924545953,-0.047996537268002196,0.07526729707936708,-7.0625,-6.5625,21.25,242.125,-21.625,146.9375,0
38.989,9.4475,2.2242,-1.2282,0.2494,-0.0099,-0.0261,-71.85,-0.15,-42.75,9.7971,-0.3783,1.2594,-0.2912,0.0408,0.0429,-26.7,13.95,1.95,-3.62,-5.19,-7.3,-0.0021816607849091904,-0.04363321569818381,0.11999134317000548,-7.0625,-6.5625,21.25,242.1875,-21.6875,147.0,0
38.998,9.5122,1.8675,-1.1325,0.2076,-0.0258,-0.0328,-71.85,-0.15,-42.75,9.7516,-1.2689,1.0415,-0.3099,0.0458,0.0648,-26.7,13.95,1.95,-3.79,-4.92,-7.53,-0.011999134317000549,-0.02072577745663731,0.13962629023418818,-7.0625,-6.5625,21.25,242.25,-21.75,147.0625,0
39.008,9.4236,1.8244,-1.3527,0.2142,-0.0216,-0.0176,-71.55,-0.45,-43.5,9.8402,-1.2594,1.075,-0.3198,0.0722,0.0805,-27.9,14.25,3.15,-3.82,-4.81,-7.58,-0.0229074382415465,-0.0054541519622729765,0.14180795101909738,-7.0625,-6.5625,21.25,242.25,-21.75,147.0625,0
39.013,9.4236,1.8244,-1.3527,0.2142,-0.0216,-0.0176,-71.55,-0.45,-43.5,9.8402,-1.2594,1.075,-0.3198,0.0722,0.0805,-28.95,15.0,3.15,-3.82,-4.81,-7.58,-0.0229074382415465,-0.0054541519622729765,0.14180795101909738,-7.5,-6.1875,21.25,242.3125,-21.8125,147.0625,0
39.018,9.4116,1.7933,-1.2881,0.1452,-0.0184,0.0123,-71.55,-0.45,-43.5,9.9431,-0.9649,1.1827,-0.3685,0.0645,0.0821,-28.95,15.75,2.4,-3.8,-4.71,-7.67,-0.03708823334345624,-0.0021816607849091904,0.1385354598417336,-7.5,-6.1875,21.25,242.3125,-21.8125,147.0625,0
39.023,9.4116,1.7933,-1.2881,0.1452,-0.0184,0.0123,-71.25,-0.45,-43.5,9.9431,-0.9649,1.1827,-0.3685,0.0645,0.0821,-28.95,15.75,2.4,-3.8,-4.71,-7.67,-0.03708823334345624,-0.0021816607849091904,0.1385354598417336,-7.5,-6.1875,21.25,242.375,-21.8125,147.125,0
39.029,9.4571,1.8124,-1.324,0.0733,-0.0085,0.0285,-71.25,-1.05,-43.95,9.9048,-0.3687,1.4102,-0.3547,0.0197,0.0661,-28.05,13.95,3.3,-3.78,-4.59,-7.69,-0.045814876483093,-0.004363321569818381,0.13089964709455143,-7.5,-6.1875,21.25,242.375,-21.8125,147.125,0
39.037,9.6678,1.9273,-1.1875,0.0773,0.0032,0.0229,-71.55,-0.45,-44.25,9.7372,-0.1125,1.0104,-0.283,0.0165,0.0653,-28.05,13.95,3.3,-3.83,-4.71,-7.66,-0.042542385305729215,-0.0010908303924545952,0.11890051277755088,-7.5,-6.1875,21.25,242.4375,-21.875,147.1875,0
39.042,9.6678,1.9273,-1.1875,0.0773,0.0032,0.0229,-71.55,-0.45,-44.25,9.7372,-0.1125,1.0104,-0.283,0.0165,0.0653,-28.05,13.95,3.3,-3.83,-4.71,-7.66,-0.042542385305729215,-0.0010908303924545952,0.11890051277755088,-7.5,-6.1875,21.25,242.5,-21.875,147.1875,0
39.049,9.2727,2.1691,-1.3431,0.1124,0.0453,0.0285,-71.7,-1.95,-42.45,9.7492,0.3639,1.3815,-0.2177,-0.0165,0.0618,-28.2,14.55,3.9,-3.87,-4.73,-7.56,-0.03599740295100164,0.0010908303924545952,0.10908303924545953,-7.5,-6.1875,21.25,242.5625,-21.9375,147.25,0
39.059,9.3374,2.478,-1.4772,0.0727,0.029,0.0306,-71.25,0.0,-42.15,9.7085,0.4214,1.3216,-0.3086,-0.0344,0.0458,-27.75,13.95,2.25,-3.86,-4.63,-7.61,-0.023998268634001098,0.015271625494364335,0.09599307453600439,-7.5,-6.1875,21.25,242.5625,-21.9375,147.25,0
39.064,9.3374,2.478,-1.4772,0.0727,0.029,0.0306,-71.25,0.0,-42.15,9.7085,0.4214,1.3216,-0.2417,-0.057,0.0368,-27.75,13.95,2.25,-3.86,-4.63,-7.61,-0.023998268634001098,0.015271625494364335,0.09599307453600439,-7.5,-6.1875,20.875,242.625,-21.9375,147.3125,0
39.069,9.2296,2.7509,-1.142,0.0799,0.0155,0.0157,-71.25,0.0,-42.15,9.7803,0.3328,1.233,-0.2286,-0.0637,0.0333,-27.3,15.15,3.3,-3.8,-4.87,-7.52,-0.019634947064182715,0.028361590203819478,0.08290310982654923,-7.5,-6.1875,20.875,242.625,-21.9375,147.3125,0
39.074,9.2296,2.7509,-1.142,0.0799,0.0155,0.0157,-71.25,0.0,-42.15,9.7276,0.1963,1.3479,-0.1514,-0.0818,0.0394,-27.3,15.15,3.3,-3.8,-4.87,-7.52,-0.019634947064182715,0.028361590203819478,0.08290310982654923,-7.5,-6.1875,20.875,242.6875,-21.9375,147.3125,0
39.079,9.2464,2.8299,-0.8475,0.0962,0.0101,-0.0024,-71.7,-0.3,-43.65,9.7276,0.1963,1.3479,-0.1514,-0.0818,0.0394,-27.15,14.55,2.1,-3.76,-4.93,-7.55,-0.026179929418910286,0.04363321569818381,0.08072144904164005,-7.5,-6.1875,20.875,242.6875,-21.9375,147.3125,0
39.084,9.1889,2.7557,-0.8571,0.0962,0.0101,-0.0024,-71.7,-0.3,-43.65,9.596,-0.2897,1.2115,-0.2068,-0.0616,0.032,-27.15,14.55,2.1,-3.76,-4.93,-7.55,-0.033815742166092455,0.056723180407638955,0.08181227943409465,-7.5,-6.1875,20.875,242.75,-21.9375,147.375,0
39.089,9.1889,2.7557,-0.8571,0.0698,0.0408,-0.0019,-71.7,-0.3,-43.65,9.596,-0.2897,1.2115,-0.2068,-0.0616,0.032,-27.15,14.55,2.1,-3.83,-4.87,-7.54,-0.033815742166092455,0.056723180407638955,0.08181227943409465,-7.5,-6.1875,20.875,242.75,-21.9375,147.375,0
39.098,9.2296,2.5043,-1.0774,0.0528,-0.0059,0.0029,-70.2,-0.3,-42.45,9.5002,-0.7326,1.1588,-0.2633,-0.0205,0.0242,-28.65,15.0,4.2,-3.81,-5.03,-7.53,-0.0447240460906384,0.058904841192548144,0.08508477061145843,-7.5,-6.1875,20.875,242.75,-21.9375,147.375,0
39.105,9.0764,2.296,-1.154,0.0568,-0.0131,0.0107,-71.55,-0.45,-43.5,9.4619,-1.0008,0.68,-0.2731,-0.0109,0.0352,-28.65,15.0,4.2,-3.93,-4.36,-7.58,-0.049087367660456786,0.07744895786427626,0.08726643139636762,-7.5,-6.1875,20.875,242.8125,-21.9375,147.4375,0
39.11,9.0764,2.296,-1.154,0.0568,-0.0131,0.0107,-71.55,-0.45,-43.5,9.4619,-1.0008,0.68,-0.2731,-0.0109,0.0352,-29.7,15.0,3.15,-3.93,-4.36,-7.58,-0.049087367660456786,0.07744895786427626,0.08726643139636762,-7.5,-6.1875,20.875,242.8125,-21.9375,147.4375,0
39.115,9.4763,2.0039,-1.4293,0.0898,0.0349,0.0237,-71.25,-1.95,-42.45,9.7037,-0.5483,0.4501,-0.2585,-0.0165,0.0605,-29.7,15.0,3.15,-3.91,-4.47,-7.63,-0.03708823334345624,0.06544982354727572,0.07417646668691248,-7.5,-6.5625,21.25,242.875,-21.9375,147.5,0
39.121,9.4763,2.0039,-1.4293,0.0898,0.0349,0.0237,-71.25,-1.95,-42.45,9.7037,-0.5483,0.4501,-0.2585,-0.0165,0.0605,-27.75,14.7,3.6,-3.91,-4.47,-7.63,-0.03708823334345624,0.06544982354727572,0.07417646668691248,-7.5,-6.5625,21.25,242.875,-21.9375,147.5,0
39.125,9.7947,1.7238,-1.7238,0.129,-0.033,0.0349,-69.45,-1.5,-42.9,9.7755,-0.3567,0.1077,-0.2809,-0.0117,0.0546,-27.75,14.7,3.6,-3.8,-4.53,-7.64,-0.008726643139636761,0.045814876483093,0.047996537268002196,-7.5,-6.5625,21.25,242.9375,-21.9375,147.5,0
39.13,9.7947,1.7238,-1.7238,0.129,-0.033,0.0349,-69.45,-1.5,-42.9,9.7755,-0.3567,0.1077,-0.2809,-0.0117,0.0546,-28.05,14.7,4.05,-3.8,-4.53,-7.64,-0.008726643139636761,0.045814876483093,0.047996537268002196,-7.5,-6.5625,21.25,242.9375,-21.9375,147.5625,0
39.139,9.6295,1.6185,-1.573,0.1719,-0.0493,0.0306,-71.55,-0.45,-41.25,9.8402,-0.1939,0.644,-0.1537,-0.004,0.0514,-27.75,14.4,3.6,-3.71,-4.35,-7.73,-0.0021816607849091904,0.026179929418910286,0.034906572558547046,-7.5,-6.5625,21.25,242.9375,-21.9375,147.5,0
39.149,9.5792,1.6185,-1.6328,0.1892,-0.0314,0.0264,-71.7,-1.05,-43.2,9.9431,0.0934,0.905,-0.0717,-0.0376,0.0573,-27.75,14.4,3.6,-3.74,-4.4,-7.79,0.03708823334345624,0.03926989412836543,0.029452420596274072,-7.5,-6.5625,21.25,243.0,-21.9375,147.5,0
39.159,9.4715,1.7406,-1.6592,0.1455,-0.0389,0.0184,-71.7,-1.05,-43.2,9.809,0.2466,1.1516,0.0053,-0.0568,0.0506,-28.8,15.15,4.05,-3.78,-4.52,-7.68,0.047996537268002196,0.04036072452082003,0.021816607849091906,-7.5,-6.5625,21.25,243.0,-21.9375,147.5,0
39.164,9.517,2.1261,-1.2402,0.0373,-0.0506,0.0386,-71.7,-1.05,-43.2,9.7085,0.0814,1.494,0.0783,-0.0722,0.0466,-28.8,15.15,4.05,-3.78,-4.52,-7.68,0.047996537268002196,0.04036072452082003,0.021816607849091906,-6.375,-6.1875,20.875,243.0,-21.9375,147.5,0
39.169,9.517,2.1261,-1.2402,0.0373,-0.0506,0.0386,-70.5,-1.05,-43.2,9.7085,0.0814,1.494,0.0783,-0.0722,0.0466,-28.95,15.3,3.9,-3.78,-4.79,-7.55,0.04363321569818381,0.03708823334345624,0.007635812747182167,-6.375,-6.1875,20.875,243.0,-21.9375,147.5,0
39.174,9.098,2.6647,-1.0894,-0.1034,-0.0834,0.0493,-70.5,-1.05,-43.2,9.7061,-0.1867,1.5586,0.1218,-0.0831,0.0389,-28.95,15.3,3.9,-3.78,-4.79,-7.55,0.04363321569818381,0.03708823334345624,0.007635812747182167,-6.375,-6.1875,20.875,243.0,-21.875,147.5,0
39.179,9.098,2.6647,-1.0894,-0.1034,-0.0834,0.0493,-70.05,-2.4,-43.5,9.7061,-0.1867,1.5586,0.1218,-0.0831,0.0389,-28.5,15.45,3.6,-3.87,-4.72,-7.52,0.034906572558547046,0.04036072452082003,0.0054541519622729765,-6.375,-6.1875,20.875,243.0,-21.875,147.5,0
39.184,8.9304,2.9185,-1.1612,-0.1809,-0.052,0.0637,-70.05,-2.4,-43.5,9.5768,-0.498,1.1923,0.0997,-0.0794,0.0437,-28.5,15.45,3.6,-3.87,-4.72,-7.52,0.011999134317000549,0.0469057068755476,-0.0032724911773637858,-6.375,-6.1875,20.875,243.0,-21.875,147.5,0
39.189,9.2368,2.7485,-1.2067,-0.1809,-0.052,0.0637,-69.75,-1.05,-42.9,9.5768,-0.498,1.1923,0.06,-0.0597,0.0413,-27.6,14.55,5.25,-3.92,-4.8,-7.47,0.011999134317000549,0.0469057068755476,-0.0032724911773637858,-6.375,-6.1875,20.875,243.0,-21.8125,147.5,0
39.199,9.2368,2.7485,-1.2067,-0.2617,-0.008,0.0925,-72.0,-1.05,-43.2,9.4978,-0.7446,0.9505,0.0304,-0.0533,0.0618,-27.6,14.55,5.25,-3.88,-4.78,-7.45,-0.013089964709455143,0.07090397550954869,-0.017453286279273523,-6.375,-6.1875,20.875,243.0,-21.8125,147.5,0
39.209,9.2584,2.6264,-1.5323,-0.1697,-0.109,0.0978,-69.45,-0.3,-42.45,9.6989,-0.4669,0.8404,-0.0144,-0.0466,0.0749,-27.9,15.0,2.1,-3.84,-4.49,-7.55,-0.028361590203819478,0.09599307453600439,-0.029452420596274072,-6.375,-6.1875,20.875,243.0,-21.8125,147.5,0
39.214,9.2584,2.6264,-1.5323,-0.1591,-0.1029,0.1148,-69.45,-0.3,-42.45,9.9335,0.0479,0.6895,-0.0226,-0.053,0.0765,-27.9,15.0,2.1,-3.84,-4.49,-7.55,-0.028361590203819478,0.09599307453600439,-0.029452420596274072,-6.75,-6.0625,21.75,243.0,-21.75,147.5625,0
39.219,9.2871,2.5211,-1.5371,-0.1591,-0.1029,0.1148,-70.05,-0.45,-43.5,9.9335,0.5962,0.9768,0.0013,-0.0642,0.0842,-28.65,15.0,4.2,-3.71,-4.56,-7.59,-0.05345068923027517,0.11671885199264169,-0.042542385305729215,-6.75,-6.0625,21.75,243.0,-21.75,147.5625,0
39.224,9.2871,2.5211,-1.5371,-0.199,-0.1111,0.1215,-70.05,-0.45,-43.5,9.9335,0.5962,0.9768,0.0013,-0.0642,0.0842,-28.65,15.0,4.2,-3.71,-4.56,-7.59,-0.05345068923027517,0.11671885199264169,-0.042542385305729215,-6.75,-6.0625,21.75,243.0,-21.625,147.625,0
39.229,9.4332,2.5355,-1.3455,-0.2539,-0.1138,0.1274,-70.05,-0.45,-43.5,9.9144,0.4094,0.9026,0.024,-0.0781,0.0829,-27.9,15.75,3.45,-3.61,-4.66,-7.67,-0.05781401080009355,0.11890051277755088,-0.05235985883782057,-6.75,-6.0625,21.75,243.0,-21.625,147.625,0
39.234,9.4332,2.5355,-1.3455,-0.2539,-0.1138,0.1274,-70.05,-0.45,-43.5,9.9144,0.4094,0.9026,0.024,-0.0781,0.0829,-27.9,15.75,3.45,-3.61,-4.66,-7.67,-0.05781401080009355,0.11671885199264169,-0.050178198052911384,-6.75,-6.0625,21.75,243.0,-21.5625,147.625,0
39.24,9.3709,2.5618,-1.3599,-0.2739,-0.1601,0.1202,-70.35,-0.9,-42.75,9.9814,0.0766,1.0822,0.0845,-0.0738,0.0671,-28.05,13.65,3.0,-3.51,-4.87,-7.49,-0.05781401080009355,0.11671885199264169,-0.050178198052911384,-6.75,-6.0625,21.75,243.0,-21.5,147.6875,0
39.249,9.2991,2.6264,-1.3479,-0.2952,-0.1308,0.1263,-70.2,-1.95,-42.45,9.7923,-0.1125,1.2258,0.1471,-0.1207,0.0735,-27.9,13.8,2.4,-3.47,-4.8,-7.54,-0.058904841192548144,0.10690137846055034,-0.04145155491327462,-6.75,-6.0625,21.75,242.9375,-21.5,147.75,0
39.26,9.3518,2.4541,-0.893,-0.19,-0.036,0.1282,-71.55,-0.9,-42.75,9.9096,-0.4717,1.0127,0.1535,-0.1156,0.0959,-27.9,13.8,2.4,-3.66,-4.75,-7.59,-0.06981314511709409,0.091629752966186,-0.025089099026455692,-6.75,-6.0625,21.75,242.9375,-21.5,147.75,0
39.265,9.3518,2.4541,-0.893,-0.19,-0.036,0.1282,-71.55,-0.9,-42.75,9.9096,-0.4717,1.0127,0.1535,-0.1156,0.0959,-28.2,14.25,1.65,-3.66,-4.75,-7.59,-0.08072144904164005,0.07635812747182166,-0.0229074382415465,-7.0625,-5.75,20.0625,242.9375,-21.4375,147.75,0
39.27,9.4547,2.8874,-1.4198,-0.1242,-0.0557,0.15,-70.8,-0.9,-43.8,9.9,-0.3591,1.1157,0.1628,-0.1116,0.1005,-28.2,14.25,1.65,-3.62,-4.61,-7.67,-0.08072144904164005,0.07635812747182166,-0.0229074382415465,-7.0625,-5.75,20.0625,242.9375,-21.4375,147.75,0
39.275,9.4547,2.8874,-1.4198,-0.1242,-0.0557,0.15,-70.8,-0.9,-43.8,9.9,-0.3591,1.1157,0.1628,-0.1116,0.1005,-28.05,14.7,2.55,-3.62,-4.61,-7.67,-0.0894480921812768,0.06435899315482112,-0.023998268634001098,-7.0625,-5.75,20.0625,242.9375,-21.375,147.8125,0
39.28,9.3877,3.0598,-1.1229,-0.1351,-0.109,0.1436,-70.5,-2.7,-42.45,9.912,-0.1293,0.8595,0.1442,-0.1053,0.1058,-28.05,14.7,2.55,-3.63,-4.61,-7.69,-0.0894480921812768,0.06435899315482112,-0.023998268634001098,-7.0625,-5.75,20.0625,242.9375,-21.375,147.8125,0
39.285,9.3877,3.0598,-1.1229,-0.1351,-0.109,0.1436,-70.5,-2.7,-42.45,9.912,-0.1293,0.8595,0.1442,-0.1053,0.1058,-28.65,15.75,3.15,-3.69,-4.66,-7.72,-0.08617560100391303,0.058904841192548144,-0.021816607849091906,-7.0625,-5.75,20.0625,242.9375,-21.375,147.875,0
39.29,9.2608,2.9042,-0.8212,-0.1082,-0.1151,0.1266,-70.35,-2.4,-41.55,9.7372,-0.1173,0.7422,0.1399,-0.1122,0.1007,-28.65,15.75,3.15,-3.69,-4.66,-7.72,-0.08617560100391303,0.058904841192548144,-0.021816607849091906,-7.0625,-5.75,20.0625,242.9375,-21.375,147.875,0
39.299,9.2775,2.6456,-1.0175,-0.118,-0.1529,0.1412,-70.35,-2.4,-41.55,9.7133,-0.0958,0.9242,0.1537,-0.1071,0.0949,-27.6,13.8,2.85,-3.64,-4.69,-7.7,-0.08835726178882222,0.056723180407638955,-0.021816607849091906,-7.0625,-5.75,20.0625,242.9375,-21.3125,147.9375,0
39.304,9.2775,2.6456,-1.0175,-0.118,-0.1529,0.1412,-70.35,-2.4,-41.55,9.7133,-0.0958,0.9242,0.1537,-0.1071,0.0949,-27.6,13.8,2.85,-3.64,-4.69,-7.7,-0.091629752966186,0.05563235001518436,-0.025089099026455692,-7.0625,-5.75,20.0625,242.875,-21.3125,148.0,0
39.31,9.4451,2.5426,-1.3647,-0.1394,-0.1466,0.1716,-70.2,-0.3,-42.9,9.8809,-0.1221,0.6512,0.1689,-0.1274,0.1021,-27.6,13.8,2.85,-3.66,-4.59,-7.65,-0.091629752966186,0.05563235001518436,-0.025089099026455692,-7.0625,-5.75,20.0625,242.875,-21.3125,148.0,0
39.315,9.3757,2.3343,-1.3479,-0.1394,-0.1466,0.1716,-70.2,-0.3,-42.9,9.8809,-0.1221,0.6512,0.1764,-0.1303,0.1061,-27.6,15.3,2.1,-3.6,-4.65,-7.73,-0.09708390492845898,0.05126902844536598,-0.023998268634001098,-7.5,-5.75,21.6875,242.875,-21.25,148.0625,0
39.32,9.3757,2.3343,-1.3479,-0.0935,-0.1506,0.1705,-70.2,-0.3,-42.9,9.9503,-0.1772,0.8045,0.1761,-0.1282,0.1069,-27.6,15.3,2.1,-3.6,-4.65,-7.73,-0.09708390492845898,0.05126902844536598,-0.023998268634001098,-7.5,-5.75,21.6875,242.875,-21.25,148.0625,0
39.325,9.4068,2.2673,-1.233,-0.0935,-0.1506,0.1705,-70.2,-0.3,-42.9,9.9503,-0.1772,0.8045,0.1889,-0.141,0.1074,-28.5,14.4,2.55,-3.57,-4.65,-7.71,-0.0905389225737314,0.04363321569818381,-0.025089099026455692,-7.5,-5.75,21.6875,242.875,-21.25,148.125,0
39.33,9.4068,2.2673,-1.233,-0.1037,-0.1031,0.1708,-70.35,-0.15,-43.5,9.7468,-0.3017,1.0918,0.186,-0.1404,0.1047,-28.5,14.4,2.55,-3.57,-4.65,-7.71,-0.0905389225737314,0.04363321569818381,-0.025089099026455692,-7.5,-5.75,21.6875,242.875,-21.25,148.125,0
39.335,9.1626,2.1332,-1.2785,-0.138,-0.1154,0.1743,-70.35,-0.15,-43.5,9.7468,-0.3017,1.0918,0.1812,-0.1516,0.0845,-28.95,14.25,0.6,-3.56,-4.77,-7.67,-0.091629752966186,0.03272491177363786,-0.025089099026455692,-7.5,-5.75,21.6875,242.875,-21.25,148.1875,0
39.34,9.1626,2.1332,-1.2785,-0.138,-0.1154,0.1743,-70.05,-2.1,-42.0,9.6702,-0.644,0.8906,0.1889,-0.1503,0.0773,-28.95,14.25,0.6,-3.56,-4.77,-7.67,-0.091629752966186,0.03272491177363786,-0.025089099026455692,-7.5,-5.75,21.6875,242.8125,-21.1875,148.25,0
39.349,9.153,2.2362,-1.4748,-0.1116,-0.0989,0.1921,-71.1,-1.35,-42.75,9.7133,-0.6632,1.0654,0.2129,-0.1823,0.0679,-28.2,14.25,1.35,-3.65,-4.62,-7.65,-0.09817473532091357,0.027270759811364884,-0.01636245588681893,-7.5,-5.75,21.6875,242.8125,-21.1875,148.25,0
39.354,9.3111,2.5522,-1.4126,-0.1066,-0.069,0.2217,-71.1,-1.35,-42.75,9.7133,-0.6632,1.0654,0.1194,-0.1639,0.0693,-28.2,14.25,1.35,-3.65,-4.62,-7.65,-0.10581054806809574,0.03163408138118326,-0.013089964709455143,-7.5,-5.75,21.6875,242.8125,-21.1875,148.3125,0
39.36,9.3111,2.5522,-1.4126,-0.1066,-0.069,0.2217,-70.95,-1.95,-42.45,9.7755,-0.6943,0.9577,0.1066,-0.1625,0.0709,-28.2,14.25,1.35,-3.65,-4.5,-7.7,-0.10581054806809574,0.03163408138118326,-0.013089964709455143,-7.5,-5.75,21.6875,242.8125,-21.1875,148.3125,0
39.365,9.3589,2.7198,-1.4174,-0.1047,-0.0959,0.2419,-70.95,-1.95,-42.45,9.912,-0.6033,0.7661,-0.0061,-0.1684,0.0616,-28.2,14.25,1.35,-3.65,-4.5,-7.7,-0.11126470003036872,0.029452420596274072,-0.01854411667172812,-7.5,-6.0625,20.5,242.8125,-21.1875,148.375,0
39.37,9.3589,2.7198,-1.4174,-0.1047,-0.0959,0.2419,-70.95,-1.95,-42.45,9.912,-0.6033,0.7661,-0.0061,-0.1684,0.0616,-28.2,14.25,1.35,-3.53,-4.57,-7.68,-0.11126470003036872,0.029452420596274072,-0.01854411667172812,-7.5,-6.0625,20.5,242.8125,-21.1875,148.375,0
39.375,9.2416,2.8228,-1.3623,-0.064,-0.1053,0.2473,-70.95,-1.95,-42.45,9.7923,-0.2322,0.9026,-0.0139,-0.198,0.0661,-27.3,15.15,0.45,-3.53,-4.57,-7.68,-0.10690137846055034,0.014180795101909739,-0.017453286279273523,-7.5,-6.0625,20.5,242.8125,-21.1875,148.4375,0
39.38,9.2416,2.8228,-1.3623,-0.064,-0.1053,0.2473,-71.25,-1.5,-42.15,9.7923,-0.2322,0.9026,-0.0139,-0.198,0.0661,-27.3,15.15,0.45,-3.56,-4.58,-7.71,-0.10690137846055034,0.014180795101909739,-0.017453286279273523,-7.5,-6.0625,20.5,242.8125,-21.1875,148.4375,0
39.385,9.0453,2.909,-1.2665,0.0011,-0.1039,0.2326,-71.25,-1.5,-42.15,9.7109,0.3735,0.8164,-0.0072,-0.2156,0.0749,-27.9,13.5,2.1,-3.68,-4.57,-7.7,-0.10144722649827737,0.004363321569818381,-0.013089964709455143,-7.5,-6.0625,20.5,242.75,-21.1875,148.5,0
39.39,9.0453,2.909,-1.2665,0.0011,-0.1039,0.2326,-71.25,-1.5,-42.15,9.7109,0.3735,0.8164,-0.0072,-0.2156,0.0749,-27.9,13.5,2.1,-3.68,-4.57,-7.7,-0.10144722649827737,0.004363321569818381,-0.013089964709455143,-7.5,-6.0625,20.5,242.75,-21.1875,148.5,0
39.399,9.1387,2.8539,-1.3479,0.0895,-0.0917,0.2129,-70.5,-2.25,-42.15,9.651,0.6393,0.9122,-0.025,-0.2244,0.0754,-28.65,14.25,1.65,-3.62,-4.68,-7.65,-0.09708390492845898,0.007635812747182167,-0.01636245588681893,-7.5,-6.0625,20.5,242.75,-21.1875,148.5,0
39.405,9.3637,2.873,-1.2977,0.1178,-0.0981,0.215,-70.5,-2.25,-42.15,9.8426,0.5028,0.984,-0.0133,-0.2577,0.0677,-27.3,12.9,2.55,-3.58,-4.79,-7.6,-0.10144722649827737,0.013089964709455143,-0.017453286279273523,-7.5,-6.0625,20.5,242.75,-21.1875,148.5625,0
39.41,9.3637,2.873,-1.2977,0.1178,-0.0981,0.215,-70.35,-3.3,-42.75,9.8426,0.5028,0.984,-0.0133,-0.2577,0.0677,-27.3,12.9,2.55,-3.58,-4.79,-7.6,-0.10144722649827737,0.013089964709455143,-0.017453286279273523,-7.5,-6.0625,20.5,242.75,-21.1875,148.5625,0
39.415,9.4619,2.5929,-1.4629,0.1498,-0.1247,0.2025,-70.35,-3.3,-42.75,9.8306,-0.1604,0.4621,-0.0101,-0.2843,0.0653,-27.3,12.9,2.55,-3.58,-4.79,-7.6,-0.12217300395491468,0.026179929418910286,-0.0065449823547275715,-7.0625,-5.75,22.0625,242.75,-21.125,148.625,0
39.42,9.3685,2.4541,-1.6113,0.1498,-0.1247,0.2025,-70.35,-2.1,-42.3,9.8306,-0.1604,0.4621,-0.0101,-0.2843,0.0653,-27.3,12.9,2.55,-3.55,-4.84,-7.61,-0.12217300395491468,0.026179929418910286,-0.0065449823547275715,-7.0625,-5.75,22.0625,242.75,-21.125,148.625,0
39.425,9.3685,2.4541,-1.6113,0.15,-0.1676,0.2038,-70.35,-2.1,-42.3,9.7947,-0.6608,0.6752,0.048,-0.3083,0.0762,-27.0,13.65,1.2,-3.55,-4.84,-7.61,-0.1363537990568244,0.03054325098872867,-0.0010908303924545952,-7.0625,-5.75,22.0625,242.6875,-21.125,148.75,0
39.43,9.3158,2.3703,-1.7358,0.15,-0.1676,0.2038,-71.1,-3.6,-43.05,9.7947,-0.6608,0.6752,0.048,-0.3083,0.0762,-27.0,13.65,1.2,-3.65,-4.68,-7.66,-0.1363537990568244,0.03054325098872867,-0.0010908303924545952,-7.0625,-5.75,22.0625,242.6875,-21.125,148.75,0
39.435,9.3158,2.3703,-1.7358,0.1585,-0.1799,0.214,-71.1,-3.6,-43.05,9.7851,-0.6057,0.6057,0.0128,-0.2915,0.1042,-27.75,13.65,0.15,-3.66,-4.43,-7.84,-0.1407171206266428,0.03817906373591083,0.0032724911773637858,-7.0625,-5.75,22.0625,242.6875,-21.125,148.8125,0
39.44,9.4308,2.5618,-1.9752,0.1585,-0.1799,0.214,-71.1,-3.6,-43.05,9.7851,-0.6057,0.6057,0.0128,-0.2915,0.1042,-27.75,13.65,0.15,-3.66,-4.43,-7.84,-0.1407171206266428,0.03817906373591083,0.0032724911773637858,-7.0625,-5.75,22.0625,242.6875,-21.125,148.8125,0
39.449,9.3853,2.648,-1.9082,0.1753,-0.1756,0.227,-69.15,-3.6,-41.25,9.9144,-0.103,0.4094,-0.0879,-0.2649,0.1258,-27.15,13.5,1.35,-3.6,-4.46,-7.86,-0.1385354598417336,0.042542385305729215,0.0,-7.0625,-5.75,22.0625,242.6875,-21.125,148.875,0
39.459,9.3853,2.5355,-1.8651,0.1479,-0.2044,0.2353,-69.15,-3.6,-41.25,9.9431,0.2514,0.4046,-0.129,-0.2801,0.1308,-28.65,14.25,1.35,-3.55,-4.48,-7.87,-0.12980881670209685,0.03708823334345624,-0.0065449823547275715,-7.0625,-5.75,22.0625,242.6875,-21.125,149.0,0
39.464,9.3853,2.5355,-1.8651,0.1268,-0.2222,0.2289,-69.15,-3.6,-41.25,9.8569,0.5555,0.6249,-0.053,-0.3094,0.1394,-28.65,14.25,1.35,-3.55,-4.48,-7.87,-0.12980881670209685,0.03708823334345624,-0.0065449823547275715,-7.0625,-5.75,22.0625,242.6875,-21.125,149.0,0
39.469,9.4116,2.4995,-1.7119,0.0986,-0.2329,0.2321,-70.2,-2.7,-42.9,9.8569,0.5555,0.6249,-0.0152,-0.32,0.1354,-28.65,14.25,1.35,-3.52,-4.6,-7.78,-0.11017386963791412,0.03272491177363786,-0.0065449823547275715,-8.25,-5.75,20.875,242.6875,-21.0625,149.0625,0
39.474,9.4116,2.4995,-1.7119,0.0986,-0.2329,0.2321,-70.2,-2.7,-42.9,9.9479,0.5578,0.7039,-0.0117,-0.3198,0.1391,-27.3,14.7,0.15,-3.52,-4.6,-7.78,-0.11017386963791412,0.03272491177363786,-0.0065449823547275715,-8.25,-5.75,20.875,242.6875,-21.0625,149.125,0
39.479,9.4475,2.5809,-1.6257,0.0882,-0.2294,0.2214,-71.55,-2.85,-43.8,9.9479,0.5578,0.7039,0.0101,-0.3379,0.1399,-27.3,14.7,0.15,-3.49,-4.67,-7.8,-0.10253805689073196,0.03054325098872867,-0.004363321569818381,-8.25,-5.75,20.875,242.6875,-21.0625,149.125,0
39.484,9.4475,2.5809,-1.6257,0.0882,-0.2294,0.2214,-71.55,-2.85,-43.8,10.1586,0.6081,1.008,0.0163,-0.3376,0.1412,-27.75,13.65,0.15,-3.49,-4.67,-7.8,-0.10144722649827737,0.0229074382415465,0.004363321569818381,-8.25,-5.75,20.875,242.6875,-21.0625,149.1875,0
39.49,9.4427,2.7605,-1.4533,0.0576,-0.2329,0.1943,-70.05,-3.6,-43.05,10.1347,0.4022,1.1492,0.0218,-0.3523,0.1665,-27.75,13.65,0.15,-3.55,-4.6,-7.89,-0.10144722649827737,0.0229074382415465,0.004363321569818381,-8.25,-5.75,20.875,242.6875,-21.0625,149.1875,0
39.499,9.4595,2.8898,-1.221,-0.012,-0.2563,0.1855,-70.05,-3.6,-42.3,10.1347,0.4022,1.1492,0.0234,-0.3488,0.1788,-28.05,13.65,0.15,-3.53,-4.63,-7.9,-0.0927205833586406,0.010908303924545953,0.013089964709455143,-8.25,-5.75,20.875,242.6875,-21.0625,149.1875,0
39.504,9.4595,2.8898,-1.221,-0.012,-0.2563,0.1855,-70.05,-3.6,-42.3,10.2855,0.4405,1.087,0.0234,-0.3488,0.1788,-27.9,13.8,0.3,-3.53,-4.63,-7.9,-0.08835726178882222,-0.007635812747182167,0.017453286279273523,-8.25,-5.75,20.875,242.6875,-21.0625,149.25,0
39.51,9.5481,2.8347,-1.154,-0.1045,-0.2769,0.1777,-70.05,-3.6,-42.3,10.2639,0.182,0.7135,0.0075,-0.3523,0.1873,-27.6,12.75,0.6,-3.58,-4.81,-7.87,-0.08835726178882222,-0.007635812747182167,0.017453286279273523,-8.25,-5.75,20.875,242.6875,-21.0625,149.25,0
39.515,9.5481,2.8347,-1.154,-0.1045,-0.2769,0.1777,-70.05,-3.6,-42.3,10.2639,0.182,0.7135,0.0075,-0.3523,0.1873,-27.6,12.75,0.6,-3.58,-4.81,-7.87,-0.08072144904164005,-0.03272491177363786,0.025089099026455692,-8.25,-6.5,21.6875,242.6875,-21.0625,149.3125,0
39.52,9.5744,2.5546,-1.1875,-0.1711,-0.3024,0.1668,-69.45,-3.9,-43.2,10.2783,-0.3615,0.0766,0.0088,-0.3528,0.1998,-27.6,12.75,0.6,-3.57,-4.87,-7.85,-0.08072144904164005,-0.03272491177363786,0.025089099026455692,-8.25,-6.5,21.6875,242.6875,-21.0625,149.3125,0
39.525,9.5744,2.5546,-1.1875,-0.1711,-0.3024,0.1668,-69.45,-3.9,-43.2,10.2783,-0.3615,0.0766,0.0088,-0.3528,0.1998,-27.6,12.75,0.6,-3.57,-4.87,-7.85,-0.08290310982654923,-0.05454151962272977,0.03054325098872867,-8.25,-6.5,21.6875,242.6875,-21.125,149.375,0
39.53,9.3925,1.9393,-1.4198,-0.1966,-0.3275,0.1468,-69.45,-3.9,-43.2,9.9527,-1.0247,-0.1269,-0.0032,-0.3421,0.1982,-28.05,12.45,0.45,-3.52,-4.91,-7.91,-0.08290310982654923,-0.05454151962272977,0.03054325098872867,-8.25,-6.5,21.6875,242.6875,-21.125,149.375,0
39.535,9.3925,1.9393,-1.4198,-0.1966,-0.3275,0.1468,-69.45,-3.9,-43.2,9.9527,-1.0247,-0.1269,-0.0032,-0.3421,0.1982,-28.05,12.45,0.45,-3.54,-4.69,-7.83,-0.0938114137510952,-0.08072144904164005,0.04145155491327462,-8.25,-6.5,21.6875,242.6875,-21.1875,149.375,0
39.54,9.4475,1.4748,-1.6065,-0.215,-0.307,0.1479,-71.1,-3.6,-43.5,9.7731,-1.4796,-0.1197,-0.0141,-0.3469,0.2158,-27.3,13.65,0.15,-3.54,-4.69,-7.83,-0.0938114137510952,-0.08072144904164005,0.04145155491327462,-8.25,-6.5,21.6875,242.6875,-21.1875,149.375,0
39.549,9.5624,1.0965,-1.8938,-0.2505,-0.364,0.1737,-70.8,-3.6,-43.5,9.754,-1.2402,-0.0383,-0.0253,-0.3544,0.21,-27.3,13.65,0.15,-3.53,-4.5,-7.92,-0.11017386963791412,-0.10581054806809574,0.05126902844536598,-8.25,-6.5,21.6875,242.6875,-21.25,149.4375,0
39.559,9.6941,1.0199,-1.9369,-0.2182,-0.445,0.1927,-69.45,-5.4,-42.45,9.8162,-0.8499,-0.2562,-0.0344,-0.3477,0.1993,-27.6,14.25,-1.05,-3.61,-4.33,-7.97,-0.11126470003036872,-0.11453719120773251,0.058904841192548144,-8.25,-6.5,21.6875,242.6875,-21.3125,149.5,0
39.564,9.6127,0.9577,-2.0135,-0.2182,-0.445,0.1927,-69.45,-5.4,-42.45,9.8162,-0.8499,-0.2562,-0.0344,-0.3477,0.1993,-27.6,14.25,-1.05,-3.61,-4.33,-7.97,-0.11126470003036872,-0.11453719120773251,0.058904841192548144,-8.25,-6.5,21.6875,242.6875,-21.3125,149.5,0
39.569,9.6127,0.9577,-2.0135,-0.1911,-0.481,0.2169,-69.6,-2.4,-42.45,9.8521,-0.4597,-0.3879,-0.029,-0.3501,0.1857,-27.6,14.25,-1.05,-3.58,-4.45,-7.91,-0.09599307453600439,-0.12980881670209685,0.05345068923027517,-7.875,-6.375,22.0625,242.6875,-21.375,149.5625,0
39.574,9.6127,0.9792,-2.1596,-0.1911,-0.481,0.2169,-69.6,-2.4,-43.05,9.8521,-0.4597,-0.3879,-0.029,-0.3501,0.1857,-27.6,14.25,-1.05,-3.58,-4.45,-7.91,-0.09599307453600439,-0.12980881670209685,0.05345068923027517,-7.875,-6.375,22.0625,242.6875,-21.375,149.5625,0
39.58,9.6127,0.9792,-2.1596,-0.1839,-0.4938,0.2345,-68.85,-3.3,-42.75,10.0054,-0.1796,-0.5555,0.0237,-0.3629,0.1676,-27.75,13.95,-2.25,-3.59,-4.49,-7.94,-0.06435899315482112,-0.13744462944927902,0.045814876483093,-7.875,-6.375,22.0625,242.6875,-21.4375,149.625,0
39.589,9.6534,0.9481,-2.3966,-0.1687,-0.5041,0.2329,-68.85,-3.3,-42.75,10.0533,-0.1676,-0.5291,0.0802,-0.3557,0.1423,-26.4,13.05,-1.65,-3.62,-4.56,-7.94,-0.03163408138118326,-0.14398961180400657,0.0447240460906384,-7.875,-6.375,22.0625,242.6875,-21.5625,149.625,0
39.599,9.7636,1.0487,-2.5594,-0.1378,-0.5367,0.215,-69.45,-4.65,-42.45,10.1203,-0.237,-0.8164,0.0727,-0.2825,0.117,-26.85,13.05,-1.65,-3.58,-4.64,-7.95,0.007635812747182167,-0.14180795101909738,0.05345068923027517,-7.875,-6.375,22.0625,242.6875,-21.625,149.625,0
39.604,9.9168,1.1732,-2.9808,-0.1503,-0.5423,0.1916,-69.45,-4.65,-42.45,10.1203,-0.237,-0.8164,0.0727,-0.2825,0.117,-26.85,13.05,-1.65,-3.58,-4.64,-7.95,0.06217733236991193,-0.11999134317000548,0.07963061864918546,-7.875,-6.375,22.0625,242.6875,-21.6875,149.5625,0
39.611,9.9168,1.1732,-2.9808,-0.1503,-0.5423,0.1916,-69.6,-3.3,-43.05,10.228,-0.1604,-0.9409,0.0195,-0.2054,0.1053,-26.4,12.75,-1.35,-3.5,-4.82,-7.98,0.06217733236991193,-0.11999134317000548,0.07963061864918546,-7.875,-6.375,22.0625,242.6875,-21.6875,149.5625,0
39.615,9.9072,1.3144,-3.1532,-0.1591,-0.5868,0.1567,-69.6,-3.3,-43.05,10.5034,0.0215,-1.2426,0.0005,-0.1937,0.1308,-26.4,12.75,-1.35,-3.6,-4.88,-8.05,0.142898781411552,-0.08726643139636762,0.11671885199264169,-7.875,-6.375,21.6875,242.8125,-21.75,149.5,0
39.62,9.9072,1.3144,-3.1532,-0.1591,-0.5868,0.1567,-69.6,-3.6,-44.25,10.5034,0.0215,-1.2426,0.0005,-0.1937,0.1308,-27.9,13.5,0.0,-3.6,-4.88,-8.05,0.142898781411552,-0.08726643139636762,0.11671885199264169,-7.875,-6.375,21.6875,242.8125,-21.75,149.5,0
39.625,9.8641,1.3623,-3.5817,-0.1599,-0.6414,0.1226,-69.6,-3.6,-44.25,10.4675,-0.0718,-1.6903,0.0509,-0.2009,0.1649,-27.9,13.5,0.0,-3.69,-5.01,-8.03,0.22689272163055582,-0.06763148433218491,0.14726210298137035,-7.875,-6.375,21.6875,242.875,-21.875,149.375,0
39.63,9.8641,1.3623,-3.5817,-0.1599,-0.6414,0.1226,-67.2,-3.45,-44.7,10.4675,-0.0718,-1.6903,0.0509,-0.2009,0.1649,-27.9,13.5,0.0,-3.69,-5.01,-8.03,0.22689272163055582,-0.06763148433218491,0.14726210298137035,-7.875,-6.375,21.6875,242.875,-21.875,149.375,0
39.639,9.7707,1.3838,-3.8954,-0.1649,-0.7027,0.0807,-67.2,-3.45,-44.7,10.1155,0.0694,-1.7262,0.1226,-0.182,0.2073,-26.85,12.3,-1.05,-3.8,-4.94,-8.09,0.26070846379664825,-0.07635812747182166,0.14398961180400657,-7.875,-6.375,21.6875,243.0,-21.9375,149.25,0
39.649,9.4475,1.312,-4.0773,-0.1617,-0.7301,0.0458,-68.4,-2.1,-43.8,9.9144,0.1987,-1.6759,0.1463,-0.1471,0.2598,-28.8,12.45,-1.2,-3.8,-4.94,-8.05,0.2530726510494661,-0.09926556571336817,0.12326383434736926,-7.875,-6.375,21.6875,243.0625,-22.0,149.125,0
39.659,9.1818,1.3001,-4.221,-0.1591,-0.7544,0.0051,-69.0,-2.25,-42.9,9.8282,0.498,-1.4126,0.1399,-0.1143,0.3112,-27.15,12.0,-1.35,-3.87,-4.94,-8.11,0.24216434712492016,-0.12217300395491468,0.09817473532091357,-7.875,-6.375,21.6875,243.125,-22.125,149.0,0
39.664,8.9399,1.2306,-4.3383,-0.1418,-0.7631,-0.0309,-68.7,-3.9,-44.7,9.7899,0.6728,-1.1181,0.2017,-0.0789,0.3541,-27.15,12.0,-1.35,-3.87,-4.94,-8.11,0.24216434712492016,-0.12217300395491468,0.09817473532091357,-7.875,-6.375,21.6875,243.125,-22.125,149.0,0
39.669,8.9399,1.2306,-4.3383,-0.1418,-0.7631,-0.0309,-68.7,-3.9,-44.7,9.7899,0.6728,-1.1181,0.2017,-0.0789,0.3541,-28.5,11.4,-1.5,-3.91,-4.95,-8.09,0.24543683830228394,-0.1156280216001871,0.07308563629445788,-7.5,-5.875,22.0625,243.1875,-22.1875,148.875,0
39.674,9.0094,1.2186,-4.5107,-0.1396,-0.7408,-0.0442,-68.7,-3.9,-44.7,9.9503,1.0942,-0.723,0.3456,-0.0773,0.3885,-28.5,11.4,-1.5,-3.91,-4.95,-8.09,0.24543683830228394,-0.1156280216001871,0.07308563629445788,-7.5,-5.875,22.0625,243.1875,-22.1875,148.875,0
39.679,9.2273,1.3862,-4.5945,-0.1396,-0.7408,-0.0442,-68.7,-3.9,-44.7,9.9503,1.0942,-0.723,0.3456,-0.0773,0.3885,-28.5,11.4,-1.5,-3.9,-5.2,-7.99,0.26070846379664825,-0.12544549513227846,0.042542385305729215,-7.5,-5.875,22.0625,243.1875,-22.25,148.75,0
39.684,9.2273,1.3862,-4.5945,-0.1156,-0.7576,-0.0576,-67.2,-2.25,-45.15,10.0269,1.2186,-0.4812,0.485,-0.0722,0.4173,-28.5,11.4,-1.5,-3.9,-5.2,-7.99,0.27161676772119425,-0.12980881670209685,0.01636245588681893,-7.5,-5.875,22.0625,243.25,-22.3125,148.5625,0
39.69,9.4427,1.5874,-4.6136,-0.118,-0.7733,-0.0847,-67.2,-2.25,-45.15,10.0269,1.2186,-0.4812,0.485,-0.0722,0.4173,-26.25,12.45,-1.5,-4.13,-5.86,-7.96,0.27161676772119425,-0.12980881670209685,0.01636245588681893,-7.5,-5.875,22.0625,243.25,-22.375,148.375,0
39.7,9.4715,1.7095,-4.5298,-0.1255,-0.7733,-0.1271,-67.2,-4.2,-46.2,10.2352,1.1947,-0.4453,0.6643,-0.0671,0.4461,-27.3,11.7,-1.2,-4.26,-6.6,-7.66,0.24543683830228394,-0.13526296866436982,-0.021816607849091906,-7.5,-5.875,22.0625,243.1875,-22.4375,148.3125,0
39.71,9.1866,1.7334,-4.3622,-0.1537,-0.7605,-0.1961,-66.0,-3.0,-45.9,10.1131,0.826,-0.0479,0.7674,-0.0546,0.4903,-26.85,12.75,-2.4,-5.22,-7.2,-7.69,0.13526296866436982,-0.15817040690591633,-0.10362888728318655,-7.5,-5.875,22.0625,243.1875,-22.4375,148.3125,0
39.715,9.1866,1.7334,-4.3622,-0.1537,-0.7605,-0.1961,-67.5,-3.45,-45.45,9.9575,0.2921,0.2442,0.9092,-0.0234,0.55,-26.85,12.75,-2.4,-5.22,-7.2,-7.69,0.13526296866436982,-0.15817040690591633,-0.10362888728318655,-7.0625,-5.5625,21.25,243.0,-22.4375,148.25,0
39.72,9.0166,1.822,-4.2737,-0.1585,-0.7376,-0.2718,-67.5,-3.45,-45.45,9.9575,0.2921,0.2442,0.9092,-0.0234,0.55,-27.3,11.7,-3.0,-5.24,-6.75,-7.76,-0.06981314511709409,-0.19198614907200878,-0.21598441770600987,-7.0625,-5.5625,21.25,243.0,-22.4375,148.25,0
39.725,9.0166,1.822,-4.2737,-0.1585,-0.7376,-0.2718,-66.6,-2.85,-46.05,10.1131,0.4741,0.7973,1.0459,0.0618,0.6142,-27.3,11.7,-3.0,-5.24,-6.75,-7.76,-0.06981314511709409,-0.19198614907200878,-0.21598441770600987,-7.0625,-5.5625,21.25,242.6875,-22.4375,148.375,0
39.73,9.2632,1.9824,-4.1037,-0.1071,-0.8148,-0.3589,-66.6,-2.85,-46.05,10.1131,0.4741,0.7973,1.0459,0.0618,0.6142,-27.3,11.7,-3.0,-4.89,-7.12,-6.81,-0.3403390824458337,-0.19089531867955417,-0.4025164148157457,-7.0625,-5.5625,21.25,242.6875,-22.4375,148.375,0
39.738,9.086,2.0518,-3.6751,-0.0882,-0.6544,-0.4247,-66.75,-3.45,-47.7,10.3501,0.7997,0.5243,1.1109,0.11,0.6568,-27.3,11.7,-3.0,-6.46,-8.79,-4.59,-0.6348632884085744,-0.3926989412836543,-0.7832162217823994,-7.0625,-5.5625,21.25,242.125,-22.375,148.5,0
39.743,9.086,2.0518,-3.6751,-0.0882,-0.6544,-0.4247,-66.75,-3.45,-47.7,10.5536,1.2617,0.8164,1.3225,0.1601,0.7077,-27.3,11.7,-3.0,-6.46,-8.79,-4.59,-0.6348632884085744,-0.3926989412836543,-0.7832162217823994,-7.0625,-5.5625,21.25,241.3125,-22.5,148.625,0
39.75,9.1387,2.0758,-3.3399,0.0362,-0.6011,-0.5023,-66.75,-3.45,-47.7,10.5536,1.2617,0.8164,1.6369,0.1724,0.7424,-28.05,9.45,-1.2,-6.86,-8.41,-5.14,-0.8039419992390368,-0.9435682894732249,-1.115919491481051,-7.0625,-5.5625,21.25,240.3125,-22.8125,148.75,0
39.76,9.086,2.4205,-3.2274,0.1604,-0.5478,-0.5593,-66.6,-2.85,-48.3,10.2568,1.5754,0.9553,1.9915,0.1998,0.7701,-26.85,9.3,-2.1,-6.81,-8.26,-5.22,-0.9850198443864996,-1.3275405876172424,-1.1650068591415077,-7.0625,-5.5625,21.25,240.3125,-22.8125,148.75,0
39.765,9.086,2.4205,-3.2274,0.1604,-0.5478,-0.5593,-66.6,-2.85,-48.3,9.8474,1.3096,1.008,2.0171,0.2086,0.7709,-26.85,9.3,-2.1,-6.81,-8.26,-5.22,-0.9850198443864996,-1.3275405876172424,-1.1650068591415077,-7.0625,-5.5625,21.25,239.25,-23.1875,149.0,0
39.77,8.8322,2.7797,-2.9928,0.2811,-0.4231,-0.5993,-66.6,-2.85,-48.3,9.481,0.4693,1.1756,2.2716,0.2478,0.7639,-28.5,10.65,-0.75,-6.61,-6.32,-5.66,-1.2380924954359656,-1.5097092631571598,-1.231547513081238,-6.75,-5.1875,23.0,239.25,-23.1875,149.0,0
39.775,8.8322,2.7797,-2.9928,0.2811,-0.4231,-0.5993,-65.1,-2.85,-46.35,9.481,0.4693,1.1756,2.2716,0.2478,0.7639,-28.5,10.65,-0.75,-6.61,-6.32,-5.66,-1.2380924954359656,-1.5097092631571598,-1.231547513081238,-6.75,-5.1875,23.0,238.1875,-23.5,149.25,0
39.78,8.5712,3.0885,-3.0287,0.4354,-0.2822,-0.6342,-65.1,-2.85,-46.35,9.1842,-0.8356,1.2713,2.355,0.3166,0.7296,-27.9,7.8,-1.65,-5.89,-6.28,-5.6,-1.2795440503492403,-1.55006998767798,-1.320995605262515,-6.75,-5.1875,23.0,237.0625,-23.875,149.5,0
39.79,8.509,3.4237,-3.1196,0.5881,-0.1609,-0.6611,-65.4,-2.1,-47.55,9.0884,-2.0039,1.4868,2.351,0.3651,0.6912,-27.9,7.8,-1.65,-5.59,-5.71,-5.61,-1.251182460145421,-1.5020734504099778,-1.33408556997197,-6.75,-5.1875,23.0,237.0625,-23.875,149.5,0
39.8,8.5497,3.7972,-3.3136,0.732,-0.1055,-0.6899,-64.65,-2.85,-47.55,9.0716,-2.9497,1.3168,2.1639,0.4122,0.6467,-28.05,6.15,-1.5,-5.79,-5.56,-5.92,-1.1464627424697795,-1.4508044219646117,-1.2904523542737862,-6.75,-5.1875,23.0,236.0,-24.1875,149.6875,0
39.81,8.4827,3.9456,-3.4955,0.8412,-0.0578,-0.7147,-65.85,-2.4,-46.35,9.0477,-3.8331,1.0726,1.8114,0.4623,0.5974,-27.15,7.05,-2.85,-5.18,-5.08,-6.19,-1.018835586552592,-1.3831729376324269,-1.2217300395491466,-6.75,-5.1875,23.0,235.0,-24.5,149.8125,0
39.815,8.2432,3.699,-3.4668,0.8412,-0.0578,-0.7147,-65.85,-2.4,-46.35,9.0477,-3.8331,1.0726,1.8114,0.4623,0.5974,-27.15,7.05,-2.85,-5.18,-5.08,-6.19,-1.018835586552592,-1.3831729376324269,-1.2217300395491466,-6.75,-5.1875,23.0,235.0,-24.5,149.8125,0
39.82,8.2432,3.699,-3.4668,0.9164,0.012,-0.7357,-65.85,-2.4,-46.35,8.9878,-4.628,0.6416,1.376,0.5311,0.5284,-27.3,5.4,-0.45,-5.06,-4.45,-6.39,-0.9053892257373141,-1.2675449160322396,-1.1530077248245072,-6.0,-5.875,23.75,234.0625,-24.8125,149.875,0
39.825,8.0852,3.4165,-3.5386,0.9385,0.1332,-0.729,-63.9,-3.6,-46.8,8.9878,-4.628,0.6416,1.376,0.5311,0.5284,-28.5,4.2,-0.45,-5.06,-4.45,-6.39,-0.9053892257373141,-1.2675449160322396,-1.1530077248245072,-6.0,-5.875,23.75,233.1875,-25.125,149.9375,0
39.83,8.0852,3.4165,-3.5386,0.9385,0.1332,-0.729,-63.9,-3.6,-46.8,8.9256,-5.272,0.6919,0.9246,0.6041,0.4602,-28.5,4.2,-0.45,-4.9,-3.99,-6.64,-0.7952153560994,-1.2162758875868738,-1.0439246855790476,-6.0,-5.875,23.75,233.1875,-25.125,149.9375,0
39.836,8.2217,3.0718,-3.541,0.9142,0.215,-0.6923,-63.9,-3.6,-46.8,8.9256,-5.272,0.6919,0.9246,0.6041,0.4602,-28.5,4.2,-0.45,-4.79,-3.05,-7.35,-0.6272274756613923,-1.1191919826584147,-0.8573926884693119,-6.0,-5.875,23.75,232.4375,-25.375,149.9375,0
39.841,8.2217,3.0718,-3.541,0.9142,0.215,-0.6923,-63.9,-3.6,-46.8,8.8155,-5.4037,0.9936,0.4482,0.6518,0.3845,-28.5,4.2,-0.45,-4.79,-3.05,-7.35,-0.6272274756613923,-1.1191919826584147,-0.8573926884693119,-6.0,-5.875,23.75,231.9375,-25.6875,149.875,0
39.85,8.4683,2.6169,-3.4572,0.8617,0.2489,-0.6387,-64.8,-3.45,-47.7,8.8346,-5.035,1.2498,-0.0304,0.6984,0.3016,-28.05,4.2,-2.55,-4.9,-2.96,-7.73,-0.3883356197138359,-1.007927282628046,-0.5879575815330269,-6.0,-5.875,23.75,231.6875,-26.0625,149.75,0
39.86,8.8753,2.2434,-3.4237,0.8338,0.1596,-0.5724,-65.55,-1.95,-46.95,8.9926,-4.2401,1.4198,-0.4871,0.7117,0.2137,-28.8,3.15,-1.2,-4.79,-2.98,-7.96,-0.10144722649827737,-0.8203044551258557,-0.2759800892910126,-6.0,-5.875,23.75,231.6875,-26.0625,149.75,0
39.865,9.007,1.6544,-3.3016,0.8468,0.0538,-0.5137,-65.4,-2.1,-47.85,8.9926,-4.2401,1.4198,-0.4871,0.7117,0.2137,-28.65,4.05,0.0,-4.79,-2.98,-7.96,-0.10144722649827737,-0.8203044551258557,-0.2759800892910126,-6.0,-5.875,23.75,231.6875,-26.0625,149.75,0
39.871,9.007,1.6544,-3.3016,0.8468,0.0538,-0.5137,-65.4,-2.1,-47.85,9.1387,-3.2441,1.312,-0.8234,0.7077,0.1673,-28.65,4.05,0.0,-4.62,-3.14,-8.0,0.14617127258891577,-0.5377793834801154,0.049087367660456786,-7.0,-8.25,26.25,231.625,-26.3125,149.625,0
39.876,8.8418,1.154,-3.292,0.8926,0.0045,-0.4671,-66.3,-1.95,-47.7,9.1387,-3.2441,1.312,-1.0166,0.6832,0.1452,-28.8,4.2,-0.15,-4.62,-3.14,-8.0,0.3392482520533791,-0.26616261575892125,0.36106485990247106,-7.0,-8.25,26.25,231.875,-26.5625,149.5,0
39.881,8.6167,0.814,-3.2825,0.8926,0.0045,-0.4671,-66.3,-1.95,-47.7,9.2105,-2.5187,0.9792,-1.0285,0.6824,0.1484,-28.8,4.2,-0.15,-4.37,-3.9,-8.38,0.3392482520533791,-0.26616261575892125,0.36106485990247106,-7.0,-8.25,26.25,232.25,-26.6875,149.375,0
39.89,8.6167,0.814,-3.2825,0.9787,-0.0525,-0.4373,-66.3,-1.95,-47.7,9.3541,-1.798,0.7973,-1.0579,0.6368,0.1577,-29.4,4.5,0.6,-3.97,-4.16,-8.1,0.47342039032529437,-0.0054541519622729765,0.6043200374198457,-7.0,-8.25,26.25,232.75,-26.8125,149.3125,0
39.9,8.406,0.577,-3.3902,1.0541,-0.0727,-0.408,-66.0,-3.9,-48.45,9.335,-1.1061,0.6752,-0.9896,0.5782,0.1676,-29.4,4.5,0.6,-3.5,-4.4,-7.71,0.5061453020989322,0.19962196181919092,0.7679445962880351,-7.0,-8.25,26.25,232.75,-26.8125,149.3125,0
39.91,7.9895,0.6225,-3.5674,1.1423,-0.0226,-0.3952,-66.0,-3.9,-48.45,9.402,-0.51,0.5411,-0.8945,0.497,0.1796,-28.65,6.0,0.3,-2.66,-4.65,-7.41,0.47232955993283976,0.3217949657741056,0.8530293668994935,-7.0,-8.25,26.25,233.375,-26.9375,149.3125,0
39.915,7.9895,0.6225,-3.5674,1.189,0.0362,-0.3853,-64.5,-2.7,-48.45,9.402,-0.51,0.5411,-0.7488,0.4008,0.1871,-29.1,4.2,0.75,-2.66,-4.65,-7.41,0.47232955993283976,0.3217949657741056,0.8530293668994935,-7.0,-8.25,26.25,233.375,-26.9375,149.3125,0
39.92,7.9823,0.8954,-3.5745,1.189,0.0362,-0.3853,-64.5,-2.7,-48.45,9.3494,-0.1125,0.3615,-0.7488,0.4008,0.1871,-29.1,4.2,0.75,-2.62,-4.84,-7.52,0.41015222756292785,0.35670153833265267,0.8486660453296752,-9.25,-6.0,26.0625,233.9375,-27.0,149.3125,0
39.925,7.9823,0.8954,-3.5745,1.1117,0.0168,-0.3973,-65.85,-3.6,-48.6,9.2751,0.1053,0.1437,-0.4703,0.3136,0.1908,-28.65,4.05,0.3,-2.62,-4.84,-7.52,0.41015222756292785,0.35670153833265267,0.8486660453296752,-9.25,-6.0,26.0625,234.4375,-27.0625,149.375,0
39.931,7.5513,0.9912,-3.4907,0.8548,0.1599,-0.3949,-65.85,-3.6,-48.6,9.2751,0.1053,0.1437,-0.4703,0.3136,0.1908,-28.65,4.05,0.3,-2.64,-5.04,-7.36,0.30543250988728665,0.31197749224201426,0.7472188188313977,-9.25,-6.0,26.0625,234.4375,-27.0625,149.375,0
39.937,7.5513,0.9912,-3.4907,0.8548,0.1599,-0.3949,-64.65,-4.5,-47.1,9.2081,-0.0838,-0.1796,-0.1444,0.2441,0.1876,-29.55,5.4,0.45,-2.51,-5.54,-7.3,0.15707957651346172,0.26179929418910286,0.5857759207481177,-9.25,-6.0,26.0625,234.8125,-27.0625,149.5,0
39.942,8.0254,1.2977,-3.4453,0.7437,0.1458,-0.3989,-64.65,-4.5,-47.1,9.2081,-0.0838,-0.1796,-0.1444,0.2441,0.1876,-29.55,5.4,0.45,-2.51,-5.54,-7.3,0.15707957651346172,0.26179929418910286,0.5857759207481177,-9.25,-6.0,26.0625,235.0625,-27.125,149.625,0
39.95,8.0756,1.324,-3.3208,0.51,0.1777,-0.3906,-65.1,-4.8,-49.05,9.1363,-0.3567,-0.2227,0.1684,0.2001,0.1737,-29.55,5.4,0.45,-2.44,-5.42,-7.09,0.0021816607849091904,0.18871365789464498,0.41778804031010996,-9.25,-6.0,26.0625,235.25,-27.125,149.8125,0
39.96,8.4755,1.3958,-3.2801,0.3746,0.2068,-0.3698,-66.3,-3.9,-48.75,8.9687,-0.8164,-0.0168,0.4554,0.1583,0.1495,-29.55,3.9,0.15,-2.24,-5.18,-6.91,-0.17998701475500822,0.13308130787946063,0.2596176334041937,-9.25,-6.0,26.0625,235.25,-27.125,149.8125,0
39.965,8.4755,1.3958,-3.2801,0.3746,0.2068,-0.3698,-65.4,-3.6,-47.1,8.995,-1.336,0.2658,0.6968,0.1212,0.1111,-29.4,4.8,1.65,-2.24,-5.18,-6.91,-0.17998701475500822,0.13308130787946063,0.2596176334041937,-10.25,-4.6875,25.5625,235.25,-27.125,150.0,0
39.971,8.4252,1.5419,-3.2729,0.2196,0.2992,-0.3355,-65.4,-3.6,-47.1,8.995,-1.336,0.2658,0.6968,0.1212,0.1111,-29.4,4.8,1.65,-2.23,-5.0,-6.86,-0.3076141706721959,0.027270759811364884,0.10799220885300494,-10.25,-4.6875,25.5625,235.25,-27.125,150.0,0
39.976,8.4252,1.5419,-3.2729,0.2196,0.2992,-0.3355,-65.4,-3.6,-47.1,9.1099,-1.5634,0.498,0.8156,0.0461,0.0677,-29.4,4.05,1.65,-2.23,-5.0,-6.86,-0.27488925889855803,-0.13199047748700604,-0.05563235001518436,-10.25,-4.6875,25.5625,235.125,-27.1875,150.125,0
39.981,8.8681,1.6233,-3.3423,0.2118,0.2078,-0.3331,-65.4,-3.6,-47.1,9.1099,-1.5634,0.498,0.8156,0.0461,0.0677,-29.4,4.05,1.65,-2.39,-5.29,-7.3,-0.27488925889855803,-0.13199047748700604,-0.05563235001518436,-10.25,-4.6875,25.5625,235.125,-27.1875,150.125,0
39.99,8.7819,1.6759,-3.3016,0.1721,0.1553,-0.3083,-66.3,-4.65,-47.7,9.2608,-1.7119,0.7135,0.8873,0.0109,0.0187,-31.65,4.95,0.15,-2.49,-5.44,-7.43,-0.22143856966828285,-0.2912517147853769,-0.2323468735928288,-10.25,-4.6875,25.5625,234.9375,-27.25,150.125,0
40.0,8.8562,1.8938,-3.4524,0.1569,0.1167,-0.2825,-65.1,-4.5,-48.6,9.4116,-1.7621,0.6943,0.9614,-0.0544,-0.0056,-29.7,4.5,1.35,-2.5,-5.44,-7.58,-0.21816607849091907,-0.3479748951930159,-0.42651468344974675,-10.25,-4.6875,25.5625,234.625,-27.3125,150.125,0
40.01,8.7843,2.0279,-3.4357,0.1548,0.0946,-0.2678,-66.3,-3.0,-46.65,9.4619,-1.822,0.6943,1.0214,-0.0829,-0.024,-29.7,4.5,1.35,-2.73,-5.29,-7.81,-0.24980015987210233,-0.4385138177667473,-0.6054108678123004,-10.25,-4.6875,25.5625,234.1875,-27.375,150.0,0
40.015,8.7843,2.0279,-3.4357,0.1548,0.0946,-0.2678,-65.85,-4.5,-48.6,9.517,-2.1308,0.6081,1.0656,-0.121,-0.0466,-29.85,3.45,1.2,-2.73,-5.29,-7.81,-0.24980015987210233,-0.4385138177667473,-0.6054108678123004,-10.25,-4.6875,25.5625,234.1875,-27.375,150.0,0
40.02,8.6095,2.1979,-3.4333,0.1143,0.1186,-0.2507,-65.85,-4.5,-48.6,9.517,-2.1308,0.6081,1.0656,-0.121,-0.0466,-29.85,3.45,1.2,-2.85,-5.09,-7.75,-0.2781617500759218,-0.48978284621211327,-0.7581271227559437,-12.6875,-4.6875,25.5625,233.6875,-27.375,149.9375,0
40.025,8.6095,2.1979,-3.4333,0.1143,0.1186,-0.2507,-66.0,-3.45,-47.7,9.4212,-2.2984,0.5267,1.0515,-0.13,-0.0853,-29.85,3.9,2.55,-2.85,-5.09,-7.75,-0.2781617500759218,-0.48978284621211327,-0.7581271227559437,-12.6875,-4.6875,25.5625,233.6875,-27.375,149.9375,0
40.029,8.5305,2.3008,-3.3758,0.0839,0.1311,-0.2494,-66.0,-3.45,-47.7,9.4212,-2.2984,0.5267,1.0515,-0.13,-0.0853,-29.85,3.9,2.55,-2.92,-4.91,-7.65,-0.3174316442042872,-0.47996537268002193,-0.870482653178767,-12.6875,-4.6875,25.5625,233.0625,-27.375,149.8125,0
40.034,8.5305,2.3008,-3.3758,0.0839,0.1311,-0.2494,-66.3,-4.95,-48.0,9.3757,-2.49,0.5459,1.019,-0.1585,-0.1266,-30.3,2.7,1.95,-2.92,-4.91,-7.65,-0.30652334027974126,-0.4352413265893835,-0.9359324767260427,-12.6875,-4.6875,25.5625,232.4375,-27.3125,149.6875,0
40.041,8.5617,2.4876,-3.4022,0.0552,0.1689,-0.2443,-66.3,-4.95,-48.0,9.3996,-2.5977,0.7254,0.9654,-0.1713,-0.1633,-31.5,3.75,0.3,-3.06,-4.63,-7.71,-0.30652334027974126,-0.4352413265893835,-0.9359324767260427,-12.6875,-4.6875,25.5625,231.8125,-27.25,149.5625,0
40.05,8.6359,2.5953,-3.5434,0.0477,0.1836,-0.2475,-66.3,-4.95,-48.0,9.3996,-2.5977,0.7254,0.8668,-0.1745,-0.199,-31.5,3.75,0.3,-3.13,-4.66,-7.72,-0.27925258046837637,-0.38397229814401757,-0.9708390492845898,-12.6875,-4.6875,25.5625,231.8125,-27.25,149.5625,0
40.06,8.6,2.7007,-3.5721,0.0466,0.1655,-0.2545,-66.6,-4.8,-47.1,9.5098,-2.3607,0.4429,0.7618,-0.1809,-0.2411,-31.5,3.75,0.3,-3.21,-4.76,-7.75,-0.23561936477019257,-0.38288146775156295,-0.9806565228166811,-12.6875,-4.6875,25.5625,231.1875,-27.125,149.375,0
40.065,8.6,2.6384,-3.5937,0.0885,0.1572,-0.2555,-67.2,-3.45,-46.65,9.5098,-2.3607,0.4429,0.7618,-0.1809,-0.2411,-28.95,3.0,1.35,-3.21,-4.76,-7.75,-0.23561936477019257,-0.38288146775156295,-0.9806565228166811,-12.6875,-4.6875,25.5625,230.5625,-27.0625,149.1875,0
40.071,8.6,2.6384,-3.5937,0.0885,0.1572,-0.2555,-67.2,-3.45,-46.65,9.5744,-2.217,0.3831,0.6835,-0.1809,-0.2747,-28.95,3.0,1.35,-3.31,-4.68,-7.76,-0.20507611378146393,-0.40142558442329107,-0.9544765933977709,-13.0625,-3.5625,25.875,230.5625,-27.0625,149.1875,0
40.076,8.6431,2.5738,-3.5626,0.1687,0.1801,-0.2603,-66.15,-3.3,-48.3,9.5744,-2.217,0.3831,0.6835,-0.1809,-0.2747,-29.55,3.15,1.95,-3.31,-4.68,-7.76,-0.20507611378146393,-0.40142558442329107,-0.9544765933977709,-13.0625,-3.5625,25.875,230.0,-27.0,149.0,0
40.081,8.6431,2.5738,-3.5626,0.1687,0.1801,-0.2603,-66.15,-3.3,-48.3,9.5888,-2.0614,0.419,0.6302,-0.1847,-0.2955,-29.7,4.5,0.6,-3.59,-4.54,-7.79,-0.17998701475500822,-0.4145155491327462,-0.9021167345599503,-13.0625,-3.5625,25.875,230.0,-27.0,149.0,0
40.09,8.6,2.5139,-3.4572,0.2896,0.2201,-0.2489,-65.55,-4.2,-48.0,9.6199,-2.0111,0.2897,0.5644,-0.1823,-0.3214,-29.7,4.5,0.6,-3.66,-4.6,-7.76,-0.14398961180400657,-0.3948806020685635,-0.8268494374805833,-13.0625,-3.5625,25.875,229.4375,-26.9375,148.875,0
40.095,8.6838,2.5091,-3.5578,0.4207,0.2188,-0.2547,-66.3,-4.95,-48.0,9.6199,-2.0111,0.2897,0.5644,-0.1823,-0.3214,-29.4,4.05,0.0,-3.66,-4.6,-7.76,-0.09817473532091357,-0.3479748951930159,-0.7472188188313977,-13.0625,-3.5625,25.875,229.0,-26.875,148.6875,0
40.101,8.6838,2.5091,-3.5578,0.4207,0.2188,-0.2547,-66.3,-4.95,-48.0,9.5505,-1.8914,0.3089,0.4996,-0.1735,-0.3413,-29.55,4.2,-0.15,-3.8,-4.71,-7.75,-0.09817473532091357,-0.3479748951930159,-0.7472188188313977,-13.0625,-3.5625,25.875,228.5625,-26.8125,148.5,0
40.111,8.6,2.4397,-3.6919,0.5553,0.2254,-0.2681,-66.3,-4.2,-46.95,9.5553,-1.8411,0.1987,0.445,-0.1644,-0.3648,-29.55,4.2,-0.15,-4.01,-4.97,-7.55,-0.05126902844536598,-0.27052593732873964,-0.6664973697897577,-13.0625,-3.5625,25.875,228.5625,-26.8125,148.5,0
40.116,8.576,2.3559,-3.7852,0.667,0.1974,-0.2774,-66.3,-4.2,-46.95,9.5553,-1.8411,0.1987,0.445,-0.1644,-0.3648,-29.55,4.2,-0.15,-4.01,-4.97,-7.55,-0.05126902844536598,-0.27052593732873964,-0.6664973697897577,-13.0625,-3.5625,25.875,228.1875,-26.75,148.3125,0
40.121,8.576,2.3559,-3.7852,0.667,0.1974,-0.2774,-66.3,-4.2,-46.95,9.6462,-1.6496,0.0287,0.3669,-0.1418,-0.3882,-30.15,1.5,0.3,-4.16,-5.13,-7.51,-0.004363321569818381,-0.19198614907200878,-0.606501698204755,-13.6875,-3.375,25.875,228.1875,-26.75,148.3125,0
40.126,8.6215,2.2027,-4.039,0.7477,0.1958,-0.2875,-66.15,-4.5,-46.8,9.6462,-1.6496,0.0287,0.3669,-0.1418,-0.3882,-30.15,1.5,0.3,-4.16,-5.13,-7.51,-0.004363321569818381,-0.19198614907200878,-0.606501698204755,-13.6875,-3.375,25.875,227.875,-26.625,148.125,0
40.131,8.6766,2.0063,-4.1444,0.7477,0.1958,-0.2875,-66.15,-4.5,-46.8,9.6031,-1.7358,-0.0551,0.3211,-0.1258,-0.3994,-28.95,4.5,0.6,-4.12,-5.24,-7.4,0.0447240460906384,-0.11235553042282331,-0.5661409736839349,-13.6875,-3.375,25.875,227.875,-26.625,148.125,0
40.139,8.6766,2.0063,-4.1444,0.7983,0.2084,-0.2968,-66.15,-4.5,-46.8,9.5864,-1.6927,0.0503,0.3174,-0.0957,-0.4066,-28.95,4.5,0.6,-4.27,-5.37,-7.26,0.08181227943409465,-0.056723180407638955,-0.5465060266197522,-13.6875,-3.375,25.875,227.5625,-26.5,147.9375,0
40.144,8.6455,1.7119,-4.1851,0.8311,0.2515,-0.292,-66.15,-4.5,-46.8,9.5864,-1.6927,0.0503,0.3174,-0.0957,-0.4066,-31.95,3.75,0.3,-4.27,-5.37,-7.26,0.08181227943409465,-0.056723180407638955,-0.5465060266197522,-13.6875,-3.375,25.875,227.25,-26.375,147.75,0
40.151,8.7987,1.7166,-4.3048,0.8551,0.2726,-0.2694,-66.0,-4.65,-46.65,9.6175,-1.5347,0.1413,0.3206,-0.065,-0.4133,-28.8,4.95,-0.15,-4.2,-5.28,-7.18,0.11126470003036872,-0.03817906373591083,-0.5268710795555696,-13.6875,-3.375,25.875,227.0,-26.25,147.5625,0
40.161,8.8897,1.6616,-4.2976,0.8263,0.2915,-0.2558,-67.35,-5.55,-47.55,9.6989,-1.4796,0.1556,0.2825,-0.0445,-0.4274,-28.8,4.95,-0.15,-4.13,-5.2,-7.21,0.14180795101909738,-0.03272491177363786,-0.5105086236687506,-13.6875,-3.375,25.875,227.0,-26.25,147.5625,0
40.166,8.8897,1.6616,-4.2976,0.8263,0.2915,-0.2558,-66.15,-5.25,-47.1,9.6989,-1.4796,0.1556,0.2966,-0.0514,-0.4349,-28.8,4.95,-0.15,-4.13,-5.2,-7.21,0.14180795101909738,-0.03272491177363786,-0.5105086236687506,-14.25,-2.0625,24.5,226.75,-26.125,147.375,0
40.171,9.0285,1.4676,-4.0247,0.8079,0.3784,-0.2326,-66.15,-5.25,-47.1,9.6582,-1.2378,0.2729,0.2976,-0.0506,-0.4349,-29.55,4.65,0.45,-4.13,-5.11,-7.2,0.1810778451474628,-0.05235985883782057,-0.49414616778193166,-14.25,-2.0625,24.5,226.75,-26.125,147.375,0
40.176,9.0285,1.4676,-4.0247,0.8079,0.3784,-0.2326,-66.75,-6.15,-48.45,9.6582,-1.2378,0.2729,0.296,-0.0434,-0.4391,-29.55,4.65,0.45,-4.13,-5.11,-7.2,0.1810778451474628,-0.05235985883782057,-0.49414616778193166,-14.25,-2.0625,24.5,226.5,-26.0,147.125,0
40.181,8.9519,1.3623,-4.0582,0.8114,0.4658,-0.2337,-66.75,-6.15,-48.45,9.7229,-1.2522,0.0814,0.2987,-0.0437,-0.4439,-29.7,3.75,0.3,-4.0,-5.01,-7.29,0.21816607849091907,-0.07744895786427626,-0.4777837118951127,-14.25,-2.0625,24.5,226.5,-26.0,147.125,0
40.191,8.9663,1.47,-4.367,0.8311,0.477,-0.255,-66.75,-6.15,-48.45,9.8114,-1.4772,0.0622,0.3128,-0.044,-0.4522,-29.4,5.25,0.0,-3.87,-5.09,-7.38,0.24543683830228394,-0.10799220885300494,-0.4592395952233846,-14.25,-2.0625,24.5,226.0625,-25.8125,146.5625,0
40.201,9.0309,1.4054,-4.5705,0.8284,0.3144,-0.2497,-67.65,-5.55,-47.55,9.7899,-1.6712,0.1269,0.3512,-0.0695,-0.4634,-29.7,3.75,0.6,-3.68,-5.14,-7.43,0.2530726510494661,-0.13199047748700604,-0.44833129129883864,-14.25,-2.0625,24.5,226.0625,-25.8125,146.5625,0
40.211,8.7915,1.2019,-4.6088,0.6925,0.064,-0.2366,-67.65,-5.55,-47.55,9.584,-1.81,0.1341,0.3309,-0.0877,-0.4791,-29.7,3.75,0.6,-3.27,-5.01,-7.49,0.24652766869473852,-0.13962629023418818,-0.4341504961969289,-14.25,-2.0625,24.5,225.8125,-25.75,146.3125,0
40.211,8.7915,1.2019,-4.6088,0.6925,0.064,-0.2366,-67.65,-5.55,-47.55,9.584,-1.81,0.1341,0.3309,-0.0877,-0.4791,-29.7,3.75,0.6,-3.27,-5.01,-7.49,0.24652766869473852,-0.13962629023418818,-0.4341504961969289,-14.25,-2.0625,24.5,225.8125,-25.75,146.3125,0
40.216,8.7915,1.2019,-4.6088,0.6925,0.064,-0.2366,-67.65,-5.55,-47.55,9.5002,-1.7478,0.2059,0.2579,-0.0933,-0.5108,-29.7,3.75,0.6,-3.27,-5.01,-7.49,0.24652766869473852,-0.13962629023418818,-0.4341504961969289,-14.25,-2.0625,24.5,225.5625,-25.6875,146.0625,0
40.221,8.2911,1.0918,-3.9385,0.5572,0.0155,-0.2073,-66.75,-5.85,-45.9,9.5002,-1.7478,0.2059,0.2579,-0.0933,-0.5108,-29.7,3.75,0.6,-3.21,-4.83,-7.65,0.26616261575892125,-0.11126470003036872,-0.42651468344974675,-13.5625,-1.0,25.0625,225.5625,-25.6875,146.0625,0
40.226,8.2911,1.0918,-3.9385,0.5572,0.0155,-0.2073,-66.75,-5.85,-45.9,9.5074,-1.5467,0.0934,0.1431,-0.1085,-0.5292,-29.7,3.75,0.6,-3.21,-4.83,-7.65,0.26616261575892125,-0.11126470003036872,-0.42651468344974675,-13.5625,-1.0,25.0625,225.375,-25.625,145.8125,0
40.231,8.0876,1.0223,-3.4668,0.2904,0.1471,-0.1471,-66.9,-4.8,-47.85,9.5074,-1.5467,0.0934,0.1431,-0.1085,-0.5292,-29.85,4.2,0.45,-3.16,-4.68,-7.72,0.26616261575892125,-0.11126470003036872,-0.42651468344974675,-13.5625,-1.0,25.0625,225.375,-25.625,145.8125,0
40.239,8.3701,1.2258,-3.4596,0.125,0.1332,-0.1103,-68.25,-4.65,-47.7,9.6774,-1.4365,-0.0766,0.0983,-0.1452,-0.53,-30.15,5.25,-1.65,-3.21,-4.65,-7.96,0.28470673243064937,-0.0938114137510952,-0.4385138177667473,-13.5625,-1.0,25.0625,225.125,-25.5,145.5625,0
40.244,8.3701,1.2258,-3.4596,0.125,0.1332,-0.1103,-68.25,-4.65,-47.7,9.6774,-1.4365,-0.0766,0.0722,-0.1671,-0.5204,-30.15,5.25,-1.65,-3.21,-4.65,-7.96,0.28470673243064937,-0.0938114137510952,-0.4385138177667473,-13.5625,-1.0,25.0625,224.9375,-25.4375,145.25,0
40.251,8.5401,1.3647,-3.7254,-0.0328,0.1146,-0.0826,-66.9,-6.75,-46.35,9.6965,-1.3862,-0.1891,0.0783,-0.1652,-0.5169,-30.15,5.55,-0.6,-3.74,-4.56,-8.42,0.2912517147853769,-0.12217300395491468,-0.43633215698183814,-13.5625,-1.0,25.0625,224.75,-25.375,145.0,0
40.261,8.5856,1.5562,-3.7589,-0.1849,0.0989,-0.0629,-66.9,-6.75,-46.35,9.6606,-1.3767,-0.2227,0.1098,-0.2009,-0.4983,-30.15,6.0,0.3,-3.81,-4.51,-8.26,0.27052593732873964,-0.07635812747182166,-0.3883356197138359,-13.5625,-1.0,25.0625,224.75,-25.375,145.0,0
40.266,8.8657,1.5778,-3.7397,-0.1849,0.0989,-0.0629,-66.9,-6.75,-46.35,9.6702,-1.4892,-0.2825,0.0882,-0.1945,-0.4892,-30.15,6.0,0.3,-3.81,-4.51,-8.26,0.27052593732873964,-0.07635812747182166,-0.3883356197138359,-13.6875,-0.5,22.75,224.5625,-25.25,144.8125,0
40.271,8.8657,1.5778,-3.7397,-0.308,0.0898,-0.0437,-68.1,-5.55,-47.1,9.6702,-1.4892,-0.2825,0.0882,-0.1945,-0.4892,-30.15,6.0,0.3,-3.87,-4.46,-8.37,0.2519818206570115,0.0010908303924545952,-0.3479748951930159,-13.6875,-0.5,22.75,224.5625,-25.25,144.8125,0
40.276,8.8131,1.743,-3.3639,-0.4183,0.0037,-0.0378,-68.1,-5.55,-47.1,9.6247,-1.7095,-0.1748,0.056,-0.198,-0.4983,-30.15,6.0,0.3,-3.87,-4.46,-8.37,0.2519818206570115,0.0010908303924545952,-0.3479748951930159,-13.6875,-0.5,22.75,224.4375,-25.125,144.625,0
40.281,8.8131,1.743,-3.3639,-0.4183,0.0037,-0.0378,-68.1,-5.55,-47.1,9.6247,-1.7095,-0.1748,0.056,-0.198,-0.4983,-29.4,7.8,-1.35,-3.52,-4.46,-7.99,0.2519818206570115,0.0010908303924545952,-0.3479748951930159,-13.6875,-0.5,22.75,224.3125,-25.0,144.4375,0
40.291,8.7532,1.6975,-3.3375,-0.502,-0.0608,-0.0472,-68.25,-5.85,-46.2,9.6391,-1.7957,-0.2155,0.012,-0.2145,-0.5095,-29.55,7.65,-0.15,-3.64,-4.46,-7.88,0.21816607849091907,0.05999567158500274,-0.29779669714010454,-13.6875,-0.5,22.75,224.3125,-25.0,144.4375,0
40.301,8.7029,1.6352,-3.3806,-0.5542,-0.0408,-0.025,-66.6,-4.8,-46.35,9.6414,-1.6568,-0.1077,-0.0645,-0.1948,-0.5151,-29.4,7.5,0.3,-3.8,-4.58,-7.82,0.2552543118343753,0.10471971767564114,-0.22143856966828285,-13.6875,-0.5,22.75,224.25,-24.875,144.25,0
40.311,8.5473,1.6975,-3.5769,-0.5468,-0.0245,-0.0101,-68.85,-6.0,-45.6,9.5984,-1.4341,-0.1101,-0.125,-0.1895,-0.5169,-28.8,6.9,-0.45,-4.13,-4.96,-7.81,0.29343337557028615,0.10908303924545953,-0.19962196181919092,-13.6875,-0.5,22.75,224.1875,-24.75,144.0625,0
40.316,8.6814,1.6568,-3.8211,-0.4962,0.0421,0.0197,-68.85,-6.0,-45.6,9.7324,-1.1396,-0.1484,-0.178,-0.1791,-0.5124,-28.8,6.9,-0.45,-4.13,-4.96,-7.81,0.29343337557028615,0.10908303924545953,-0.19962196181919092,-13.6875,-0.5,22.75,224.125,-24.625,143.875,0
40.321,8.6814,1.6568,-3.8211,-0.4962,0.0421,0.0197,-68.7,-6.15,-47.4,9.7324,-1.1396,-0.1484,-0.1788,-0.174,-0.5068,-28.8,6.9,-0.45,-4.15,-4.81,-7.71,0.3043416794948321,0.1341721382719152,-0.18653199710973578,-13.0625,0.5625,23.5,224.125,-24.625,143.875,0
40.326,8.8011,1.7645,-3.9289,-0.4125,0.0461,0.0282,-68.7,-6.15,-47.4,9.7971,-0.8523,-0.1101,-0.1791,-0.1705,-0.5092,-28.8,6.9,-0.45,-4.15,-4.81,-7.71,0.3043416794948321,0.1341721382719152,-0.18653199710973578,-13.0625,0.5625,23.5,224.125,-24.5,143.6875,0
40.331,8.8011,1.7645,-3.9289,-0.4125,0.0461,0.0282,-68.4,-6.0,-46.8,9.7659,-0.656,-0.0982,-0.1764,-0.1439,-0.4943,-28.95,8.55,-1.35,-4.56,-5.18,-7.66,0.30652334027974126,0.17344203240028064,-0.13962629023418818,-13.0625,0.5625,23.5,224.125,-24.5,143.6875,0
40.338,8.734,1.9632,-4.1635,-0.3064,0.0831,0.0296,-68.25,-4.2,-46.95,9.7659,-0.656,-0.0982,-0.1764,-0.1439,-0.4943,-28.95,7.05,-2.1,-3.89,-4.88,-7.66,0.28470673243064937,0.21925690888337365,-0.08290310982654923,-13.0625,0.5625,23.5,224.125,-24.375,143.5625,0
40.343,8.7221,2.4995,-4.3551,-0.3064,0.0831,0.0296,-68.25,-4.2,-46.95,9.7013,-0.7685,-0.1915,-0.1756,-0.1439,-0.4794,-28.95,7.05,-2.1,-3.89,-4.88,-7.66,0.28470673243064937,0.21925690888337365,-0.08290310982654923,-13.0625,0.5625,23.5,224.1875,-24.3125,143.375,0
40.351,8.7221,2.4995,-4.3551,-0.2595,0.1791,0.0314,-68.25,-4.2,-46.95,9.6989,-1.1157,0.0431,-0.1268,-0.1495,-0.4762,-28.05,7.65,-1.5,-4.28,-4.69,-7.81,0.33161243930619694,0.20398528338900931,-0.06108650197745734,-13.0625,0.5625,23.5,224.25,-24.125,143.25,0
40.361,8.8538,2.806,-4.5155,-0.3011,0.1362,0.0149,-66.9,-4.5,-47.1,9.7348,-1.1205,0.1413,-0.089,-0.162,-0.4772,-29.7,7.5,-1.65,-4.02,-5.25,-7.68,0.35997402951001645,0.24652766869473852,-0.056723180407638955,-13.0625,0.5625,23.5,224.25,-24.125,143.25,0
40.366,8.8945,2.7461,-4.1539,-0.3544,0.0642,0.0123,-66.9,-4.5,-47.1,9.7348,-1.1205,0.1413,-0.089,-0.162,-0.4772,-29.1,7.65,-1.5,-4.02,-5.25,-7.68,0.35997402951001645,0.24652766869473852,-0.056723180407638955,-13.0625,0.5625,23.5,224.3125,-24.0,143.0625,0
40.371,8.7508,2.6384,-3.4955,-0.3544,0.0642,0.0123,-67.95,-5.85,-45.15,9.7492,-0.972,0.0479,-0.1719,-0.1537,-0.4836,-29.1,7.65,-1.5,-3.82,-5.34,-7.58,0.3479748951930159,0.2683442765438304,-0.06217733236991193,-13.1875,2.25,22.6875,224.3125,-24.0,143.0625,0
40.376,8.7508,2.6384,-3.4955,-0.3643,0.0466,0.0232,-67.95,-5.85,-45.15,9.7492,-0.972,0.0479,-0.1719,-0.1537,-0.4836,-29.1,7.65,-1.5,-3.82,-5.34,-7.58,0.3479748951930159,0.2683442765438304,-0.06217733236991193,-13.1875,2.25,22.6875,224.375,-23.875,142.875,0
40.382,8.1451,2.5762,-2.7797,-0.3643,0.0466,0.0232,-67.5,-3.9,-48.0,9.7588,-0.7805,-0.0886,-0.2681,-0.1617,-0.4844,-29.1,7.65,-1.5,-3.78,-5.23,-7.54,0.3468840648005613,0.28361590203819476,-0.08181227943409465,-13.1875,2.25,22.6875,224.375,-23.6875,142.6875,0
40.391,8.6526,2.8443,-3.2202,-0.397,0.1151,0.0469,-68.1,-4.05,-45.6,9.7731,-0.407,-0.1197,-0.2779,-0.1729,-0.473,-28.95,9.3,-0.6,-3.98,-5.32,-7.57,0.35561070794019806,0.2825250716457402,-0.11890051277755088,-13.1875,2.25,22.6875,224.4375,-23.5,142.5,0
40.401,8.4874,2.7653,-3.3208,-0.2473,0.1599,0.0466,-67.35,-6.0,-46.35,9.8593,-0.3783,-0.2179,-0.2585,-0.1652,-0.4674,-28.95,10.5,-1.35,-4.05,-5.41,-7.45,0.3468840648005613,0.2912517147853769,-0.14835293337382496,-13.1875,2.25,22.6875,224.4375,-23.5,142.5,0
40.411,8.7987,2.5905,-3.541,-0.2569,0.0965,0.0581,-68.85,-4.8,-46.8,9.7468,-0.4549,0.0263,-0.1777,-0.1825,-0.4575,-28.05,10.65,-2.25,-3.7,-5.41,-7.35,0.31415915302692343,0.3010691883174683,-0.14180795101909738,-13.1875,2.25,22.6875,224.4375,-23.3125,142.375,0
40.416,8.7987,2.5905,-3.541,-0.2569,0.0965,0.0581,-68.85,-4.8,-46.8,9.7468,-0.4549,0.0263,-0.1777,-0.1825,-0.4575,-27.9,11.25,-1.65,-3.7,-5.41,-7.35,0.31415915302692343,0.3010691883174683,-0.14180795101909738,-13.1875,2.25,22.6875,224.4375,-23.1875,142.25,0
40.421,8.8514,2.4517,-3.7134,-0.2268,0.0322,0.0517,-68.85,-4.8,-46.8,9.6869,-0.4645,0.0838,-0.0821,-0.2113,-0.4575,-27.9,11.25,-1.65,-3.69,-5.31,-7.37,0.2759800892910126,0.29016088439292237,-0.13308130787946063,-11.5,4.25,22.875,224.4375,-23.1875,142.25,0
40.426,8.8514,2.4517,-3.7134,-0.2268,0.0322,0.0517,-68.85,-4.8,-46.8,9.6869,-0.4645,0.0838,-0.0821,-0.2113,-0.4575,-27.9,11.25,-1.65,-3.69,-5.31,-7.37,0.2759800892910126,0.29016088439292237,-0.13308130787946063,-11.5,4.25,22.875,224.4375,-23.0,142.125,0
40.431,8.7532,2.375,-3.4931,-0.2126,0.012,0.0517,-67.95,-5.4,-45.15,9.6726,-0.6416,0.0455,-0.0855,-0.2214,-0.461,-27.9,11.25,-1.65,-3.69,-5.31,-7.4,0.2967058667476499,0.2945242059627407,-0.13744462944927902,-11.5,4.25,22.875,224.4375,-23.0,142.125,0
40.437,8.7532,2.375,-3.4931,-0.2126,0.012,0.0517,-67.95,-5.4,-45.15,9.6726,-0.6416,0.0455,-0.0986,-0.2276,-0.4738,-27.75,10.2,-0.45,-3.69,-5.31,-7.4,0.3032508491023775,0.3087050010646505,-0.15162542455118874,-11.5,4.25,22.875,224.4375,-22.8125,141.9375,0
40.442,8.2911,2.2889,-3.2801,-0.2651,0.1716,0.0554,-69.15,-4.5,-45.3,9.6917,-0.6081,0.1221,-0.1007,-0.2249,-0.4772,-27.75,10.2,-0.45,-3.66,-5.4,-7.35,0.3032508491023775,0.3087050010646505,-0.15162542455118874,-11.5,4.25,22.875,224.5,-22.625,141.8125,0
40.451,8.4587,2.217,-3.4429,-0.1945,0.1668,0.0402,-69.15,-3.6,-46.35,9.5984,-0.3807,0.079,-0.1146,-0.2252,-0.4836,-28.05,10.65,-2.25,-3.77,-5.58,-7.21,0.27052593732873964,0.31634081381183266,-0.14835293337382496,-11.5,4.25,22.875,224.5,-22.4375,141.75,0
40.461,8.3366,2.0782,-3.4022,-0.2188,0.2089,0.0448,-69.0,-3.45,-46.65,9.5696,-0.2322,-0.1484,-0.1338,-0.21,-0.4642,-28.95,11.25,-1.35,-3.86,-5.48,-7.12,0.2072577745663731,0.3076141706721959,-0.11671885199264169,-11.5,4.25,22.875,224.5,-22.4375,141.75,0
40.466,8.3366,2.0782,-3.4022,-0.2188,0.2089,0.0448,-69.0,-3.45,-46.65,9.5696,-0.2322,-0.1484,-0.1532,-0.2052,-0.4447,-28.2,12.75,-1.65,-3.86,-5.48,-7.12,0.2072577745663731,0.3076141706721959,-0.11671885199264169,-11.5,4.25,22.875,224.5,-22.3125,141.6875,0
40.472,8.4084,2.1859,-3.3447,-0.2001,0.2332,0.0549,-69.6,-3.6,-46.8,9.4858,-0.3017,-0.2251,-0.1532,-0.2052,-0.4447,-28.2,12.75,-1.65,-4.12,-5.27,-7.12,0.1603520676908255,0.26070846379664825,-0.07744895786427626,-11.0,5.0625,22.0625,224.5,-22.3125,141.6875,0
40.477,8.4084,2.1859,-3.3447,-0.2001,0.2332,0.0549,-69.6,-3.6,-46.8,9.4403,-0.3328,-0.1197,-0.1045,-0.1871,-0.4093,-29.7,10.8,-3.15,-4.12,-5.27,-7.12,0.1603520676908255,0.26070846379664825,-0.07744895786427626,-11.0,5.0625,22.0625,224.5625,-22.1875,141.625,0
40.482,8.406,2.1332,-3.2992,-0.21,0.2358,0.052,-68.7,-3.45,-46.95,9.4403,-0.3328,-0.1197,-0.1045,-0.1871,-0.4093,-29.7,10.8,-3.15,-4.55,-5.09,-7.05,0.17016954122291686,0.24107351673246555,-0.06872231472463951,-11.0,5.0625,22.0625,224.5625,-22.1875,141.625,0
40.487,8.2049,2.1524,-3.5003,-0.2036,0.2321,0.0573,-68.7,-3.45,-46.95,9.323,-0.3974,-0.0048,-0.0682,-0.1753,-0.3829,-29.7,10.8,-3.15,-4.56,-5.11,-6.91,0.17016954122291686,0.2585268030117391,-0.07526729707936708,-11.0,5.0625,22.0625,224.5625,-22.0625,141.5625,0
40.492,8.2049,2.1524,-3.5003,-0.2036,0.2321,0.0573,-68.7,-3.45,-46.95,9.323,-0.3974,-0.0048,-0.0682,-0.1753,-0.3829,-29.7,10.8,-3.15,-4.56,-5.11,-6.91,0.17016954122291686,0.2585268030117391,-0.07526729707936708,-11.0,5.0625,22.0625,224.625,-21.875,141.5,0
40.501,8.2456,2.0997,-3.4285,-0.1335,0.2094,0.0778,-68.7,-3.45,-46.65,9.2871,-0.3759,0.0024,-0.0855,-0.1503,-0.3547,-28.5,10.65,-2.25,-4.61,-5.03,-6.79,0.14944376376627955,0.2737984285061034,-0.07199480590200329,-11.0,5.0625,22.0625,224.625,-21.75,141.4375,0
40.512,8.1666,2.2146,-3.4141,-0.1202,0.2395,0.0946,-68.7,-3.45,-46.65,9.4068,-0.4956,-0.0359,-0.1164,-0.1372,-0.3315,-28.5,11.4,-3.3,-4.37,-4.85,-6.53,0.12544549513227846,0.280343410860831,-0.05781401080009355,-11.0,5.0625,22.0625,224.625,-21.75,141.4375,0
40.517,8.4132,2.2482,-3.0382,-0.1609,0.3112,0.1108,-68.7,-3.45,-46.65,9.3781,-0.5004,0.012,-0.1132,-0.1359,-0.3107,-29.4,11.55,-3.15,-4.37,-4.85,-6.53,0.10362888728318655,0.23889185594755635,-0.027270759811364884,-10.25,5.0625,22.5,224.6875,-21.625,141.4375,0
40.522,8.4132,2.2482,-3.0382,-0.1609,0.3112,0.1108,-68.7,-3.9,-44.7,9.3781,-0.5004,0.012,-0.1132,-0.1359,-0.3107,-29.4,11.55,-3.15,-4.22,-4.82,-6.44,0.10362888728318655,0.23889185594755635,-0.027270759811364884,-10.25,5.0625,22.5,224.6875,-21.625,141.4375,0
40.528,8.588,2.162,-3.043,-0.1871,0.3336,0.1007,-68.7,-3.9,-44.7,9.3541,-0.5866,0.0886,-0.1021,-0.1346,-0.2942,-27.75,11.4,-1.5,-4.2,-4.85,-6.48,0.0894480921812768,0.18216867553991742,0.004363321569818381,-10.25,5.0625,22.5,224.75,-21.5625,141.375,0
40.533,8.588,2.162,-3.043,-0.1871,0.3336,0.1007,-69.75,-3.45,-46.65,9.3541,-0.5866,0.0886,-0.1021,-0.1346,-0.2942,-27.75,11.4,-1.5,-4.2,-4.85,-6.48,0.0894480921812768,0.18216867553991742,0.004363321569818381,-10.25,5.0625,22.5,224.75,-21.5,141.375,0
40.542,8.667,2.0303,-2.9904,-0.2361,0.2934,0.1053,-68.85,-4.05,-45.3,9.3613,-0.5698,0.2346,-0.097,-0.1247,-0.2753,-27.75,11.4,-1.5,-4.09,-4.88,-6.41,0.06763148433218491,0.14180795101909738,0.04145155491327462,-10.25,5.0625,22.5,224.875,-21.5,141.375,0
40.551,8.4611,1.7693,-3.0239,-0.2561,0.3056,0.1239,-68.4,-4.5,-45.3,9.402,-0.6488,0.1963,-0.1146,-0.1231,-0.2678,-28.05,11.7,-2.55,-4.02,-4.76,-6.4,0.0469057068755476,0.11999134317000548,0.08399394021900383,-10.25,5.0625,22.5,224.875,-21.5,141.375,0
40.561,8.5377,1.7142,-2.885,-0.2475,0.3685,0.1359,-68.4,-4.5,-45.3,9.4667,-0.8547,0.1676,-0.1703,-0.1367,-0.2574,-28.8,12.45,-2.55,-4.06,-4.64,-6.43,0.03817906373591083,0.09817473532091357,0.13308130787946063,-10.25,5.0625,22.5,224.9375,-21.5,141.375,0
40.566,8.5784,1.6735,-2.909,-0.2244,0.3794,0.1396,-68.4,-4.5,-45.3,9.4451,-1.0295,0.3017,-0.1633,-0.1386,-0.239,-27.15,12.3,-1.35,-4.06,-4.64,-6.43,0.03817906373591083,0.09817473532091357,0.13308130787946063,-10.25,5.0625,22.5,224.9375,-21.5,141.375,0
40.572,8.5784,1.6735,-2.909,-0.2244,0.3794,0.1396,-68.4,-2.85,-44.85,9.4451,-1.0295,0.3017,-0.1633,-0.1386,-0.239,-27.15,12.3,-1.35,-3.99,-4.66,-6.4,0.034906572558547046,0.05454151962272977,0.1854411667172812,-10.0,7.0,23.1875,225.0625,-21.5,141.4375,0
40.577,8.5258,1.8172,-3.0311,-0.2454,0.38,0.1623,-68.4,-2.85,-44.85,9.3589,-1.0534,0.1748,-0.1889,-0.1402,-0.227,-27.6,11.55,-2.4,-3.99,-4.66,-6.4,0.034906572558547046,0.05454151962272977,0.1854411667172812,-10.0,7.0,23.1875,225.0625,-21.5,141.4375,0
40.582,8.5258,1.8172,-3.0311,-0.2454,0.38,0.1623,-68.4,-2.85,-44.85,9.3589,-1.0534,0.1748,-0.247,-0.1455,-0.2342,-27.6,11.55,-2.4,-3.88,-4.59,-6.41,0.011999134317000549,0.01854411667172812,0.26179929418910286,-10.0,7.0,23.1875,225.3125,-21.75,141.5,0
40.587,8.4851,2.0207,-3.0311,-0.2105,0.4125,0.1982,-68.4,-2.85,-44.85,9.3278,-1.3072,0.0215,-0.2505,-0.1423,-0.2292,-27.6,11.55,-2.4,-3.88,-4.59,-6.41,-0.019634947064182715,-0.007635812747182167,0.35888319911756184,-10.0,7.0,23.1875,225.5,-21.875,141.625,0
40.592,8.3653,2.1452,-2.9544,-0.2105,0.4125,0.1982,-70.05,-4.05,-44.25,9.256,-1.3695,-0.1437,-0.275,-0.0959,-0.247,-27.6,11.55,-2.4,-3.96,-4.3,-6.48,-0.019634947064182715,-0.007635812747182167,0.35888319911756184,-10.0,7.0,23.1875,225.75,-22.0625,141.6875,0
40.602,8.3653,2.1452,-2.9544,-0.199,0.4788,0.2334,-70.35,-4.05,-46.05,9.256,-1.3695,-0.1437,-0.3171,-0.1095,-0.234,-27.6,11.55,-2.4,-4.24,-4.01,-6.57,0.008726643139636761,-0.03599740295100164,0.4472404609063841,-10.0,7.0,23.1875,226.0,-22.25,141.6875,0
