timestamp,thigh_acc_x,thigh_acc_y,thigh_acc_z,thigh_gyro_x,thigh_gyro_y,thigh_gyro_z,thigh_mag_x,thigh_mag_y,thigh_mag_z,shank_acc_x,shank_acc_y,shank_acc_z,shank_gyro_x,shank_gyro_y,shank_gyro_z,shank_mag_x,shank_mag_y,shank_mag_z,foot_acc_x,foot_acc_y,foot_acc_z,foot_gyro_x,foot_gyro_y,foot_gyro_z,foot_mag_x,foot_mag_y,foot_mag_z,foot_euler_x,foot_euler_y,foot_euler_z,perturbation_event
1776971685.546,9.5146,-1.5969,-1.7933,-0.032,0.0541,-0.0309,149.55,1128.75,-1024.2,9.268,2.8994,-0.9912,-0.0866,-0.0112,-0.0309,-95.4,28.35,-27.15,6.92,0.39,-7.02,0.0065,-0.0131,0.0,-49.0,-10.5625,54.1875,59.125,44.5,-176.5,0
1776971685.551,9.5146,-1.5969,-1.7933,-0.032,0.0541,-0.0309,149.55,1128.75,-1024.2,9.1794,2.8802,-0.9098,-0.0735,-0.0131,-0.0296,-95.4,28.35,-27.15,6.92,0.39,-7.02,0.0065,-0.0131,0.0,-49.0,-10.5625,54.1875,59.125,44.5,-176.5,0
1776971685.56,9.4834,-1.6352,-1.81,-0.0107,0.0498,-0.0317,149.55,1128.75,-1024.2,9.1387,2.8539,-0.8978,-0.0735,-0.0131,-0.0296,-95.85,27.9,-27.45,6.89,0.39,-7.03,0.0087,-0.0207,0.0,-49.0,-10.5625,54.1875,59.125,44.5,-176.5,0
1776971685.566,9.4978,-1.6352,-1.8052,0.0016,0.0501,-0.0301,147.9,1129.95,-1024.65,9.1387,2.8539,-0.8978,-0.0517,-0.012,-0.0354,-96.75,27.3,-26.55,6.92,0.39,-7.02,0.0065,-0.0273,0.0,-49.0,-10.5625,54.1875,59.125,44.5,-176.5,0
1776971685.571,9.4978,-1.6352,-1.8052,0.0016,0.0501,-0.0301,147.9,1129.95,-1024.65,9.1866,2.7797,-0.9481,-0.0432,-0.0107,-0.0394,-96.75,27.3,-26.55,6.92,0.39,-7.02,0.0065,-0.0273,0.0,-49.0,-10.5625,54.1875,59.125,44.5,-176.5,0
1776971685.576,9.4571,-1.6592,-1.822,-0.0008,0.0514,-0.0309,151.35,1129.8,-1024.8,9.1866,2.7797,-0.9481,-0.0432,-0.0107,-0.0394,-96.6,28.35,-26.7,6.92,0.4,-7.0,0.0065,-0.0327,0.0033,-48.5625,-9.5,53.875,59.125,44.5,-176.5,0
1776971685.581,9.4571,-1.6592,-1.822,-0.0008,0.0514,-0.0309,151.35,1129.8,-1024.8,9.2249,2.7246,-0.9505,-0.0378,-0.0115,-0.0437,-96.6,28.35,-26.7,6.92,0.4,-7.0,0.0065,-0.0327,0.0033,-48.5625,-9.5,53.875,59.125,44.5,-176.5,0
1776971685.585,9.5577,-1.6568,-1.8316,-0.0099,0.0562,-0.0338,147.6,1130.4,-1023.6,9.2249,2.7246,-0.9505,-0.0378,-0.0115,-0.0437,-95.85,27.45,-27.45,6.92,0.4,-7.0,0.0076,-0.0436,0.0044,-48.5625,-9.5,53.875,59.125,44.4375,-176.5,0
1776971685.59,9.5577,-1.6568,-1.8316,-0.0099,0.0562,-0.0338,147.6,1130.4,-1023.6,9.1842,2.794,-0.8308,-0.0397,-0.0221,-0.0381,-95.85,27.45,-27.45,6.92,0.39,-7.02,0.0076,-0.0436,0.0044,-48.5625,-9.5,53.875,59.125,44.4375,-176.5,0
1776971685.595,9.5792,-1.6328,-1.8004,-0.0205,0.061,-0.0328,149.1,1131.15,-1023.6,9.1842,2.794,-0.8308,-0.0397,-0.0221,-0.0381,-95.85,27.45,-27.45,6.92,0.39,-7.02,0.0055,-0.0458,0.0033,-48.5625,-9.5,53.875,59.125,44.4375,-176.5,0
1776971685.601,9.5792,-1.6328,-1.8004,-0.0205,0.061,-0.0328,149.1,1131.15,-1023.6,9.2392,2.8204,-0.9218,-0.0578,-0.0266,-0.0434,-95.85,27.45,-27.45,6.87,0.37,-7.02,0.0055,-0.0458,0.0033,-48.5625,-9.5,53.875,59.125,44.375,-176.5,0
1776971685.61,9.5409,-1.6544,-1.7023,-0.0325,0.0674,-0.0333,149.1,1131.15,-1023.6,9.1889,2.806,-0.9673,-0.0751,-0.036,-0.0453,-95.4,29.1,-27.15,6.86,0.37,-7.03,0.0044,-0.0524,0.0065,-48.5625,-9.5,53.875,59.125,44.375,-176.5,0
1776971685.616,9.6055,-1.6759,-1.6999,-0.0445,0.0757,-0.04,149.1,1131.15,-1023.6,9.1889,2.806,-0.9673,-0.0751,-0.036,-0.0453,-95.4,29.1,-27.15,6.86,0.36,-7.03,0.0065,-0.0502,0.0076,-48.5625,-9.5,53.875,59.125,44.375,-176.5,0
1776971685.621,9.5816,-1.6185,-1.7262,-0.0554,0.0687,-0.044,149.1,1131.15,-1023.6,9.2081,2.8228,-0.9098,-0.0858,-0.04,-0.0424,-95.4,29.1,-27.15,6.86,0.36,-7.03,0.0065,-0.0502,0.0076,-48.5625,-9.5,53.875,59.125,44.375,-176.5,0
1776971685.626,9.5816,-1.6185,-1.7262,-0.0554,0.0687,-0.044,150.45,1130.4,-1024.35,9.2081,2.8228,-0.9098,-0.0858,-0.04,-0.0424,-96.9,28.35,-26.7,6.85,0.4,-7.02,0.0065,-0.0458,0.0055,-49.0,-9.875,55.0,59.125,44.375,-176.5,0
1776971685.631,9.6175,-1.5993,-1.7142,-0.06,0.0642,-0.045,150.45,1130.4,-1024.35,9.2296,2.909,-0.8571,-0.0954,-0.041,-0.045,-96.9,28.35,-26.7,6.85,0.4,-7.02,0.0065,-0.0458,0.0055,-49.0,-9.875,55.0,59.125,44.375,-176.5,0
1776971685.636,9.6175,-1.5993,-1.7142,-0.06,0.0642,-0.045,149.25,1131.0,-1024.5,9.2296,2.909,-0.8571,-0.0954,-0.041,-0.045,-96.75,28.5,-27.0,6.87,0.38,-7.05,0.0055,-0.048,0.0055,-49.0,-9.875,55.0,59.125,44.3125,-176.5,0
1776971685.641,9.6367,-1.5107,-1.6783,-0.0573,0.0589,-0.0464,149.25,1131.0,-1024.5,9.1818,2.976,-0.893,-0.1045,-0.0368,-0.0472,-96.75,28.5,-27.0,6.87,0.38,-7.05,0.0055,-0.048,0.0055,-49.0,-9.875,55.0,59.125,44.3125,-176.5,0
1776971685.645,9.6367,-1.5107,-1.6783,-0.0573,0.0589,-0.0464,150.0,1130.25,-1024.8,9.1818,2.976,-0.893,-0.1045,-0.0368,-0.0472,-97.2,28.5,-27.0,6.87,0.38,-7.05,0.0055,-0.0458,0.0044,-49.0,-9.875,55.0,59.125,44.3125,-176.5,0
1776971685.651,9.5888,-1.5682,-1.6951,-0.0501,0.056,-0.0392,150.0,1130.25,-1024.8,9.1794,3.0167,-0.984,-0.1071,-0.0341,-0.0437,-97.2,28.5,-27.0,6.87,0.39,-7.06,0.0055,-0.0458,0.0044,-49.0,-9.875,55.0,59.125,44.25,-176.5,0
1776971685.66,9.6247,-1.5443,-1.7478,-0.0418,0.0528,-0.0429,149.1,1130.4,-1024.35,9.1889,3.0095,-0.9098,-0.1124,-0.0322,-0.048,-95.55,27.3,-27.0,6.86,0.39,-7.05,0.0055,-0.0524,0.0087,-49.0,-9.875,55.0,59.125,44.25,-176.5,0
1776971685.664,9.6247,-1.5443,-1.7478,-0.0418,0.0528,-0.0429,149.1,1130.4,-1024.35,9.1889,3.0095,-0.9098,-0.1124,-0.0322,-0.048,-96.0,28.95,-27.75,6.86,0.39,-7.05,0.0044,-0.0567,0.012,-49.0,-9.875,55.0,59.1875,44.25,-176.5,0
1776971685.671,9.5577,-1.5897,-1.7262,-0.0456,0.052,-0.0413,149.1,1130.4,-1024.35,9.1842,3.0119,-0.9481,-0.1119,-0.0248,-0.049,-96.0,28.95,-27.75,6.86,0.37,-7.06,0.0044,-0.0567,0.012,-49.0,-9.875,55.0,59.1875,44.25,-176.5,0
1776971685.676,9.5577,-1.5897,-1.7262,-0.0456,0.052,-0.0413,149.1,1130.4,-1024.35,9.1506,2.9904,-0.9457,-0.1069,-0.0304,-0.0466,-96.3,29.25,-28.05,6.86,0.37,-7.06,0.0044,-0.0567,0.012,-49.375,-9.875,54.1875,59.1875,44.1875,-176.5,0
1776971685.681,9.6175,-1.561,-1.652,-0.0474,0.0466,-0.048,149.1,1130.4,-1024.35,9.1506,2.9904,-0.9457,-0.1069,-0.0304,-0.0466,-96.3,29.25,-28.05,6.85,0.36,-7.05,0.0011,-0.0545,0.0087,-49.375,-9.875,54.1875,59.1875,44.1875,-176.5,0
1776971685.686,9.6175,-1.561,-1.652,-0.0474,0.0466,-0.048,149.4,1131.15,-1024.35,9.1291,3.0406,-0.9577,-0.0983,-0.0365,-0.0488,-96.3,29.25,-28.05,6.85,0.36,-7.05,0.0011,-0.0545,0.0087,-49.375,-9.875,54.1875,59.1875,44.1875,-176.5,0
1776971685.691,9.5193,-1.5012,-1.6879,-0.0341,0.0509,-0.0458,149.4,1131.15,-1024.35,9.1291,3.0406,-0.9577,-0.0983,-0.0365,-0.0488,-96.3,29.25,-28.05,6.83,0.36,-7.04,0.0022,-0.0545,0.0076,-49.375,-9.875,54.1875,59.1875,44.1875,-176.5,0
1776971685.696,9.5193,-1.5012,-1.6879,-0.0341,0.0509,-0.0458,149.55,1131.0,-1023.15,9.2033,3.0311,-0.972,-0.0941,-0.0378,-0.0456,-94.65,27.15,-27.45,6.83,0.36,-7.04,0.0,-0.0535,0.0065,-49.375,-9.875,54.1875,59.1875,44.125,-176.5625,0
1776971685.701,9.5792,-1.4126,-1.6281,-0.0234,0.053,-0.052,149.55,1131.0,-1023.15,9.2033,3.0311,-0.972,-0.0941,-0.0378,-0.0456,-94.65,27.15,-27.45,6.76,0.36,-7.1,0.0,-0.0535,0.0065,-49.375,-9.875,54.1875,59.1875,44.125,-176.5625,0
1776971685.71,9.6965,-1.3886,-1.6305,-0.0248,0.049,-0.0576,149.4,1130.4,-1023.9,9.2009,3.0765,-0.9744,-0.1002,-0.0226,-0.0474,-94.65,27.15,-27.45,6.81,0.38,-7.07,0.0,-0.0491,0.0065,-49.375,-9.875,54.1875,59.1875,44.125,-176.5625,0
1776971685.717,9.6965,-1.3886,-1.6305,-0.0248,0.049,-0.0576,148.65,1130.4,-1024.65,9.1913,3.134,-0.9768,-0.1053,-0.024,-0.053,-95.4,27.45,-29.4,6.81,0.38,-7.07,0.0,-0.0382,0.0065,-49.375,-9.875,54.1875,59.1875,44.0625,-176.5625,0
1776971685.722,9.6151,-1.5131,-1.7142,-0.0189,0.0469,-0.053,148.65,1130.4,-1024.65,9.1913,3.134,-0.9768,-0.1053,-0.024,-0.053,-95.4,27.45,-29.4,6.81,0.38,-7.07,0.0,-0.0382,0.0065,-49.375,-9.875,54.1875,59.1875,44.0625,-176.5625,0
1776971685.727,9.6151,-1.5131,-1.7142,-0.0189,0.0469,-0.053,148.65,1130.4,-1024.65,9.1866,3.134,-0.9218,-0.0973,-0.0245,-0.0522,-95.85,29.55,-28.95,6.81,0.36,-7.1,0.0011,-0.0327,0.0055,-48.25,-10.1875,53.875,59.1875,44.0625,-176.5625,0
1776971685.732,9.6822,-1.5419,-1.6664,-0.0067,0.0421,-0.0496,148.65,1130.4,-1024.65,9.1866,3.134,-0.9218,-0.0973,-0.0245,-0.0522,-95.85,29.55,-28.95,6.81,0.36,-7.1,0.0011,-0.0327,0.0055,-48.25,-10.1875,53.875,59.1875,44.0625,-176.5625,0
1776971685.736,9.6822,-1.5419,-1.6664,-0.0067,0.0421,-0.0496,148.35,1130.7,-1024.35,9.2105,3.1819,-0.9074,-0.0845,-0.0226,-0.0565,-97.2,28.05,-26.55,6.81,0.36,-7.1,0.0,-0.0295,0.0055,-48.25,-10.1875,53.875,59.1875,44.0625,-176.5625,0
1776971685.741,9.6055,-1.5419,-1.7023,-0.0163,0.0448,-0.0512,148.35,1130.7,-1024.35,9.2105,3.1819,-0.9074,-0.0845,-0.0226,-0.0565,-97.2,28.05,-26.55,6.8,0.37,-7.1,0.0,-0.0295,0.0055,-48.25,-10.1875,53.875,59.1875,44.0625,-176.5625,0
1776971685.746,9.6055,-1.5419,-1.7023,-0.0163,0.0448,-0.0512,150.0,1129.8,-1025.25,9.1985,3.1867,-0.972,-0.0786,-0.0181,-0.052,-96.75,29.25,-27.75,6.82,0.38,-7.07,0.0011,-0.0273,0.0055,-48.25,-10.1875,53.875,59.1875,44.0625,-176.5625,0
1776971685.751,9.6031,-1.5395,-1.6759,-0.0234,0.0405,-0.0546,150.0,1129.8,-1025.25,9.1985,3.1867,-0.972,-0.0786,-0.0181,-0.052,-96.75,29.25,-27.75,6.82,0.38,-7.07,0.0011,-0.0273,0.0055,-48.25,-10.1875,53.875,59.1875,44.0,-176.5625,0
1776971685.76,9.5936,-1.5107,-1.6999,-0.0392,0.0349,-0.0562,147.6,1131.9,-1023.3,9.1051,3.2322,-0.9194,-0.0703,-0.016,-0.0552,-95.4,28.65,-28.2,6.82,0.36,-7.08,0.0011,-0.024,0.0022,-48.25,-10.1875,53.875,59.1875,44.0,-176.5625,0
1776971685.769,9.5577,-1.4892,-1.6328,-0.0485,0.0378,-0.0557,149.25,1130.55,-1024.8,9.086,3.1388,-0.9481,-0.0565,-0.0149,-0.0485,-96.9,28.65,-28.65,6.82,0.37,-7.08,0.0011,-0.0185,0.0033,-48.25,-10.1875,53.875,59.1875,44.0,-176.5625,0
1776971685.773,9.5577,-1.4892,-1.6328,-0.0485,0.0378,-0.0557,148.65,1130.4,-1024.35,9.1075,3.1939,-0.9936,-0.0392,-0.0224,-0.0477,-96.9,28.65,-28.65,6.82,0.37,-7.08,0.0011,-0.0185,0.0033,-49.0,-9.5,55.0,59.1875,44.0,-176.5625,0
1776971685.781,9.5289,-1.4269,-1.7095,-0.0576,0.0306,-0.0594,148.65,1130.4,-1024.35,9.1315,3.1173,-1.0175,-0.0392,-0.0224,-0.0477,-96.9,28.65,-28.65,6.79,0.37,-7.07,0.0011,-0.0218,0.0022,-49.0,-9.5,55.0,59.1875,44.0,-176.5625,0
1776971685.79,9.6055,-1.4389,-1.6735,-0.052,0.0346,-0.0648,148.65,1130.4,-1024.35,9.1315,3.1173,-1.0175,-0.0192,-0.0234,-0.0501,-96.9,29.1,-26.4,6.74,0.35,-7.05,0.0,-0.0196,0.0011,-49.0,-9.5,55.0,59.1875,44.0,-176.5625,0
1776971685.794,9.6055,-1.4389,-1.6735,-0.052,0.0346,-0.0648,149.85,1131.45,-1024.35,9.1506,3.1747,-0.9936,-0.0056,-0.025,-0.0506,-96.9,29.1,-26.4,6.74,0.35,-7.05,0.0011,-0.0109,-0.0011,-49.0,-9.5,55.0,59.1875,44.0,-176.5625,0
1776971685.801,9.6462,-1.4198,-1.6448,-0.0365,0.0389,-0.0666,149.85,1131.45,-1024.35,9.1195,3.1987,-0.9697,0.0072,-0.0216,-0.0509,-96.9,29.1,-26.4,6.78,0.38,-7.09,0.0011,-0.0109,-0.0011,-49.0,-9.5,55.0,59.1875,44.0,-176.5625,0
1776971685.81,9.6941,-1.4413,-1.5897,-0.0229,0.0298,-0.0613,149.1,1130.7,-1025.1,9.0357,3.2848,-0.8882,0.0029,-0.0173,-0.0397,-95.85,29.1,-26.7,6.83,0.39,-7.06,0.0022,-0.0033,0.0011,-49.0,-9.5,55.0,59.1875,44.0,-176.5625,0
1776971685.82,9.6295,-1.3934,-1.6233,-0.0123,0.0264,-0.0616,150.0,1133.25,-1024.5,9.0381,3.2825,-0.7997,0.0032,-0.0282,-0.0381,-96.0,28.95,-27.75,6.84,0.36,-7.08,0.0011,0.0,0.0011,-49.0,-9.5,55.0,59.1875,44.0,-176.5625,0
1776971685.825,9.5026,-1.4317,-1.6257,-0.0045,0.0165,-0.06,149.55,1131.0,-1024.2,9.0381,3.2825,-0.7997,0.0032,-0.0282,-0.0381,-96.0,28.95,-27.75,6.84,0.36,-7.08,0.0033,0.0022,-0.0011,-48.25,-9.0625,53.875,59.1875,44.0,-176.5625,0
1776971685.831,9.5026,-1.4317,-1.6257,-0.0045,0.0165,-0.06,149.4,1129.95,-1024.65,8.9663,3.3423,-0.7877,0.0165,-0.0317,-0.0373,-96.9,29.1,-27.15,6.84,0.37,-7.04,0.0033,0.0022,-0.0011,-48.25,-9.0625,53.875,59.1875,44.0,-176.5625,0
1776971685.84,9.5074,-1.3431,-1.5993,-0.0008,0.0069,-0.0565,149.4,1129.95,-1024.65,8.9016,3.3351,-0.6919,0.0402,-0.0365,-0.0341,-96.6,29.1,-27.45,6.87,0.38,-7.06,0.0065,-0.0022,-0.0033,-48.25,-9.0625,53.875,59.1875,44.0,-176.5625,0
1776971685.85,9.5768,-1.3623,-1.4724,0.0141,0.0093,-0.0594,149.4,1129.95,-1024.65,8.9184,3.3447,-0.6656,0.0573,-0.0424,-0.0389,-95.55,27.75,-28.05,6.84,0.37,-7.07,0.0044,-0.0065,-0.0022,-48.25,-9.0625,53.875,59.1875,44.0,-176.5625,0
1776971685.86,9.6558,-1.3264,-1.3527,0.0338,0.0112,-0.0512,148.8,1130.55,-1023.15,8.9184,3.3447,-0.6943,0.0778,-0.0482,-0.0349,-96.3,30.45,-28.5,6.81,0.38,-7.08,0.0098,-0.0131,-0.0011,-48.25,-9.0625,53.875,59.1875,44.0,-176.5625,0
1776971685.868,9.7229,-1.3767,-1.3144,0.0394,0.0045,-0.056,149.25,1131.75,-1024.5,8.8969,3.3806,-0.5986,0.0885,-0.0501,-0.033,-96.3,30.45,-28.5,6.82,0.37,-7.07,0.0098,-0.0164,-0.0033,-48.25,-9.0625,53.875,59.1875,43.9375,-176.5625,0
1776971685.873,9.7468,-1.3695,-1.2761,0.0501,-0.02,-0.052,149.55,1130.25,-1023.15,8.8969,3.3806,-0.5986,0.0885,-0.0501,-0.033,-96.3,30.45,-28.5,6.82,0.37,-7.07,0.0098,-0.0164,-0.0033,-48.25,-9.0625,53.875,59.1875,43.9375,-176.5625,0
1776971685.879,9.7468,-1.3695,-1.2761,0.0501,-0.02,-0.052,149.1,1132.2,-1023.9,8.9376,3.486,-0.6033,0.1005,-0.0408,-0.0314,-94.5,29.25,-28.8,6.81,0.38,-7.08,0.012,-0.0153,-0.0055,-48.25,-9.875,55.375,59.1875,43.9375,-176.5625,0
1776971685.885,9.7731,-1.4629,-1.2067,0.0613,-0.0392,-0.0517,149.1,1132.2,-1023.9,8.9376,3.486,-0.6033,0.1005,-0.0408,-0.0314,-94.5,29.25,-28.8,6.81,0.38,-7.08,0.0131,-0.0142,-0.0065,-48.25,-9.875,55.375,59.1875,43.9375,-176.5625,0
1776971685.891,9.7731,-1.4629,-1.2067,0.0613,-0.0392,-0.0517,149.55,1133.25,-1024.2,8.9591,3.5075,-0.5914,0.1162,-0.0317,-0.033,-94.5,29.25,-28.8,6.78,0.38,-7.09,0.0131,-0.0142,-0.0065,-48.25,-9.875,55.375,59.1875,43.9375,-176.5625,0
1776971685.9,9.8545,-1.4964,-1.0606,0.0741,-0.0557,-0.061,149.55,1133.25,-1024.2,8.9687,3.6057,-0.486,0.1428,-0.0282,-0.0288,-95.1,29.55,-29.4,6.75,0.37,-7.12,0.012,-0.0076,-0.0055,-48.25,-9.875,55.375,59.1875,43.9375,-176.5625,0
1776971685.909,9.8067,-1.5419,-1.1971,0.0663,-0.0802,-0.0666,149.55,1133.25,-1024.2,8.9328,3.7158,-0.4788,0.1668,-0.0218,-0.029,-94.65,28.65,-28.2,6.75,0.36,-7.12,0.012,0.0022,-0.0033,-48.25,-9.875,55.375,59.1875,43.9375,-176.5625,0
1776971685.914,9.8282,-1.64,-1.2163,0.0767,-0.1092,-0.0823,148.65,1132.65,-1023.3,8.9328,3.7158,-0.4788,0.1668,-0.0218,-0.029,-94.65,28.65,-28.2,6.75,0.36,-7.12,0.012,0.0022,-0.0033,-48.25,-9.875,55.375,59.1875,43.9375,-176.5625,0
1776971685.921,9.7827,-1.6328,-1.1803,0.0813,-0.1316,-0.0885,150.75,1133.25,-1023.45,8.9495,3.8427,-0.3974,0.1921,-0.0104,-0.0269,-95.1,29.55,-29.4,6.73,0.36,-7.08,0.012,0.0098,-0.0065,-48.25,-9.875,55.375,59.1875,43.9375,-176.5625,0
1776971685.926,9.7827,-1.6328,-1.1803,0.0813,-0.1316,-0.0885,150.75,1133.25,-1023.45,8.9064,3.7828,-0.3089,0.2233,0.0109,-0.0256,-95.1,29.55,-29.4,6.73,0.36,-7.08,0.012,0.0153,-0.0065,-47.5,-9.5,55.0,59.125,43.9375,-176.5625,0
1776971685.931,9.8067,-1.5778,-1.1803,0.0794,-0.154,-0.1018,149.85,1133.7,-1022.55,8.9064,3.7828,-0.3089,0.2233,0.0109,-0.0256,-95.4,29.55,-27.45,6.78,0.38,-7.1,0.012,0.0153,-0.0065,-47.5,-9.5,55.0,59.125,44.0,-176.625,0
1776971685.94,9.8306,-1.6185,-1.1779,0.0703,-0.1828,-0.1069,149.1,1133.4,-1023.3,8.9471,3.7757,-0.3543,0.2577,0.0248,-0.0218,-95.55,28.95,-28.5,6.79,0.39,-7.11,0.0131,0.0218,-0.0055,-47.5,-9.5,55.0,59.125,44.0,-176.625,0
1776971685.949,9.8306,-1.6185,-1.1779,0.0703,-0.1828,-0.1069,149.25,1133.55,-1023.45,9.0118,3.7613,-0.3232,0.3062,0.0418,-0.0301,-96.3,29.7,-28.05,6.79,0.39,-7.13,0.0087,0.0284,-0.0055,-47.5,-9.5,55.0,59.125,44.0,-176.625,0
1776971685.954,9.8378,-1.6831,-1.1612,0.0722,-0.1972,-0.126,149.25,1133.55,-1023.45,8.9519,3.7781,-0.2466,0.3062,0.0418,-0.0301,-96.3,29.7,-28.05,6.79,0.39,-7.13,0.0087,0.0284,-0.0055,-47.5,-9.5,55.0,59.125,44.0,-176.625,0
1776971685.961,10.0173,-1.6424,-1.4365,0.1367,-0.198,-0.1468,149.25,1133.55,-1023.45,8.9519,3.7781,-0.2466,0.3531,0.0581,-0.0288,-96.3,29.7,-28.05,6.76,0.36,-7.13,0.0098,0.0327,-0.0022,-47.5,-9.5,55.0,59.125,44.0,-176.625,0
1776971685.971,9.9599,-1.47,-1.2522,0.2443,-0.1908,-0.1564,146.7,1135.05,-1024.2,8.9926,3.8499,-0.237,0.3872,0.0765,-0.0322,-94.65,29.55,-28.95,6.67,0.23,-7.18,0.012,0.0425,-0.0011,-47.5,-9.5,55.0,59.125,44.0,-176.625,0
1776971685.976,9.9599,-1.47,-1.2522,0.2443,-0.1908,-0.1564,146.7,1135.05,-1024.2,8.9974,3.8595,-0.249,0.4319,0.1026,-0.0296,-94.65,29.55,-28.95,6.67,0.23,-7.18,0.012,0.0425,-0.0011,-47.5,-9.5,55.0,59.125,44.0,-176.625,0
1776971685.981,10.0245,-0.9266,-1.087,0.3427,-0.1727,-0.166,146.1,1135.65,-1025.4,8.9974,3.8595,-0.249,0.4319,0.1026,-0.0296,-94.65,29.55,-28.95,6.68,0.37,-7.2,0.012,0.0589,-0.0098,-48.25,-9.875,54.1875,59.125,44.0625,-176.625,0
1776971685.985,10.0245,-0.9266,-1.087,0.3427,-0.1727,-0.166,146.1,1135.65,-1025.4,9.0333,3.9648,-0.237,0.4831,0.1287,-0.0341,-94.65,29.55,-28.95,6.68,0.37,-7.2,0.012,0.0589,-0.0098,-48.25,-9.875,54.1875,59.125,44.0625,-176.625,0
1776971685.991,10.1059,-0.6991,-1.008,0.3738,-0.1892,-0.1759,146.7,1136.25,-1024.2,9.0333,3.9648,-0.237,0.4831,0.1287,-0.0341,-95.1,28.65,-28.2,6.69,0.51,-7.19,0.0175,0.0796,-0.0142,-48.25,-9.875,54.1875,59.125,44.125,-176.625,0
1776971685.995,10.1059,-0.6991,-1.008,0.3738,-0.1892,-0.1759,146.7,1136.25,-1024.2,9.0812,3.9002,-0.2466,0.53,0.1503,-0.0349,-95.1,28.65,-28.2,6.69,0.51,-7.19,0.024,0.096,-0.0076,-48.25,-9.875,54.1875,59.125,44.1875,-176.625,0
1776971686.001,10.0269,-1.0678,-1.1995,0.3714,-0.2617,-0.1735,144.9,1137.3,-1023.75,9.0884,3.8642,-0.2873,0.53,0.1503,-0.0349,-95.85,28.65,-28.2,6.84,0.55,-7.07,0.024,0.096,-0.0076,-48.25,-9.875,54.1875,59.125,44.1875,-176.625,0
1776971686.011,9.73,-1.6448,-1.5227,0.4,-0.3557,-0.1743,145.05,1137.15,-1023.9,9.0764,3.7445,-0.2251,0.5668,0.166,-0.0458,-95.25,28.5,-29.25,6.81,0.42,-7.14,0.0185,0.1069,-0.0022,-48.25,-9.875,54.1875,59.125,44.1875,-176.625,0
1776971686.019,9.5529,-2.0063,-1.6281,0.494,-0.3978,-0.1873,145.05,1137.15,-1023.9,9.0764,3.7445,-0.2251,0.6094,0.1839,-0.0485,-95.55,28.05,-28.5,6.85,0.4,-7.07,0.0142,0.1036,0.0044,-48.25,-9.875,54.1875,59.125,44.25,-176.625,0
1776971686.024,9.5529,-2.0063,-1.6281,0.494,-0.3978,-0.1873,145.05,1137.15,-1023.9,9.0668,3.6847,-0.3304,0.6632,0.1887,-0.048,-95.55,28.05,-28.5,6.85,0.4,-7.07,0.0142,0.1036,0.0044,-48.25,-9.875,54.1875,59.125,44.25,-176.625,0
1776971686.029,9.5888,-2.1093,-1.7119,0.5068,-0.4085,-0.219,147.0,1139.55,-1024.5,9.0668,3.6847,-0.3304,0.6632,0.1887,-0.048,-96.0,28.95,-29.85,6.85,0.33,-7.09,0.0164,0.1156,0.0098,-48.25,-9.0625,55.0,59.125,44.3125,-176.625,0
1776971686.033,9.5888,-2.1093,-1.7119,0.5068,-0.4085,-0.219,147.0,1139.55,-1024.5,8.995,3.4716,-0.3783,0.7139,0.1911,-0.0501,-96.0,28.95,-29.85,6.85,0.33,-7.09,0.0164,0.1156,0.0098,-48.25,-9.0625,55.0,59.125,44.3125,-176.625,0
1776971686.038,9.5241,-1.9465,-1.8699,0.4612,-0.4543,-0.2478,146.55,1137.9,-1024.35,8.995,3.4716,-0.3783,0.7139,0.1911,-0.0501,-96.3,29.7,-29.55,6.89,0.36,-7.09,0.0218,0.1036,0.0065,-48.25,-9.0625,55.0,59.125,44.375,-176.625,0
1776971686.043,9.5241,-1.9465,-1.8699,0.4612,-0.4543,-0.2478,146.55,1137.9,-1024.35,8.9974,3.3184,-0.4405,0.7541,0.1921,-0.0445,-96.3,29.7,-29.55,6.89,0.36,-7.09,0.0218,0.1036,0.0065,-48.25,-9.0625,55.0,59.125,44.375,-176.625,0
1776971686.051,9.4427,-1.7573,-2.0231,0.3962,-0.4636,-0.2643,145.8,1136.7,-1025.1,8.9663,3.2322,-0.5387,0.7909,0.2012,-0.0234,-96.3,29.7,-29.55,6.91,0.36,-7.07,0.0207,0.0905,0.0044,-48.25,-9.0625,55.0,59.125,44.4375,-176.625,0
1776971686.058,9.2512,-1.7358,-2.1883,0.3325,-0.4498,-0.2888,145.95,1136.25,-1026.3,8.9663,3.2322,-0.5387,0.7909,0.2012,-0.0234,-96.3,29.7,-29.55,6.95,0.47,-6.99,0.0251,0.1091,-0.0022,-48.25,-9.0625,55.0,59.0625,44.5,-176.6875,0
1776971686.063,9.2512,-1.7358,-2.1883,0.3325,-0.4498,-0.2888,145.95,1136.25,-1026.3,9.0836,3.1556,-0.7135,0.8087,0.2017,-0.0064,-95.1,28.65,-28.2,6.95,0.47,-6.99,0.0251,0.1091,-0.0022,-48.25,-9.0625,55.0,59.0625,44.5625,-176.6875,0
1776971686.071,9.1411,-1.6688,-2.2625,0.2856,-0.4221,-0.3118,145.95,1135.05,-1026.3,9.0836,3.0406,-0.8308,0.8194,0.2062,0.0208,-95.1,28.65,-28.2,7.05,0.77,-6.83,0.0404,0.0949,-0.0055,-48.25,-9.0625,55.0,59.0625,44.5625,-176.6875,0
1776971686.076,8.995,-1.5802,-2.3439,0.2699,-0.3984,-0.3102,145.95,1135.05,-1026.3,9.0836,3.0406,-0.8308,0.8194,0.2062,0.0208,-95.1,28.65,-28.2,7.05,0.77,-6.83,0.0404,0.0949,-0.0055,-48.5625,-9.5,53.875,59.0625,44.625,-176.6875,0
1776971686.081,8.995,-1.5802,-2.3439,0.2699,-0.3984,-0.3102,145.95,1135.05,-1026.3,9.0908,3.067,-0.972,0.8316,0.2089,0.0434,-94.8,27.0,-29.85,6.97,0.42,-6.97,0.0633,0.072,-0.0011,-48.5625,-9.5,53.875,59.0625,44.625,-176.6875,0
1776971686.086,9.1243,-1.4916,-2.4588,0.2822,-0.3624,-0.2992,145.95,1135.05,-1026.3,9.0908,3.067,-0.972,0.8316,0.2089,0.0434,-94.8,27.0,-29.85,6.97,0.42,-6.97,0.0633,0.072,-0.0011,-48.5625,-9.5,53.875,59.0625,44.625,-176.6875,0
1776971686.091,9.1243,-1.4916,-2.4588,0.2822,-0.3624,-0.2992,144.3,1134.45,-1027.95,9.0261,2.9951,-1.0295,0.8511,0.219,0.0719,-94.65,28.35,-29.4,7.02,0.49,-7.02,0.0589,0.0589,0.0142,-48.5625,-9.5,53.875,59.0625,44.625,-176.75,0
1776971686.096,9.2009,-1.3431,-2.5546,0.3136,-0.3443,-0.2966,145.35,1134.9,-1027.2,9.0261,2.9951,-1.0295,0.8511,0.219,0.0719,-94.65,28.35,-29.4,7.02,0.49,-7.02,0.1004,0.0502,0.0153,-48.5625,-9.5,53.875,59.0625,44.6875,-176.8125,0
1776971686.102,9.2009,-1.3431,-2.5546,0.3136,-0.3443,-0.2966,145.35,1134.9,-1027.2,8.9639,2.9377,-1.1061,0.8783,0.234,0.1055,-95.25,27.75,-28.8,6.95,0.48,-6.92,0.1004,0.0502,0.0153,-48.5625,-9.5,53.875,59.0625,44.6875,-176.8125,0
1776971686.111,9.3015,-1.0798,-2.5618,0.348,-0.3299,-0.3043,143.4,1136.55,-1028.4,9.0716,2.7892,-1.2067,0.8961,0.2403,0.1308,-96.0,27.3,-29.85,7.0,0.87,-7.3,0.1254,0.0185,0.0295,-48.5625,-9.5,53.875,59.0,44.6875,-176.875,0
1776971686.115,9.3757,-0.7661,-2.7509,0.3914,-0.3405,-0.3251,143.85,1136.55,-1027.35,9.0716,2.7892,-1.2067,0.8961,0.2403,0.1308,-96.0,27.3,-29.85,7.0,0.87,-7.3,0.1974,-0.0011,0.0218,-48.5625,-9.5,53.875,59.0,44.6875,-176.9375,0
1776971686.122,9.3757,-0.7661,-2.7509,0.3914,-0.3405,-0.3251,143.85,1136.55,-1027.35,9.0812,2.7581,-1.2809,0.9214,0.2507,0.1391,-96.0,27.75,-28.8,7.09,0.82,-7.16,0.1974,-0.0011,0.0218,-48.5625,-9.5,53.875,59.0,44.6875,-176.9375,0
1776971686.127,9.402,-0.5435,-2.8754,0.4612,-0.3504,-0.3429,142.65,1137.3,-1030.2,9.1243,2.6217,-1.3647,0.9214,0.2507,0.1391,-96.0,27.75,-28.8,7.09,0.82,-7.16,0.1974,-0.0011,0.0218,-49.0,-9.5,53.875,58.9375,44.625,-177.125,0
1776971686.132,9.402,-0.5435,-2.8754,0.4612,-0.3504,-0.3429,142.65,1137.3,-1030.2,9.1243,2.6217,-1.3647,0.9358,0.2579,0.1527,-95.1,27.15,-31.2,6.86,0.39,-7.08,0.2967,-0.0371,0.0109,-49.0,-9.5,53.875,58.9375,44.625,-177.125,0
1776971686.137,9.4379,-0.4908,-2.8994,0.5332,-0.3784,-0.3413,142.65,1137.3,-1030.2,9.1554,2.5402,-1.4317,0.9358,0.2579,0.1527,-95.1,27.15,-31.2,6.86,0.39,-7.08,0.2967,-0.0371,0.0109,-49.0,-9.5,53.875,58.8125,44.625,-177.3125,0
1776971686.142,9.4379,-0.4908,-2.8994,0.5332,-0.3784,-0.3413,142.65,1137.3,-1030.2,9.1554,2.5402,-1.4317,0.9286,0.2582,0.1535,-95.1,27.15,-31.2,7.03,0.48,-7.07,0.3611,-0.0513,0.0044,-49.0,-9.5,53.875,58.8125,44.625,-177.3125,0
1776971686.147,9.4523,-0.4956,-2.8132,0.6238,-0.3848,-0.3232,141.0,1137.45,-1027.95,9.2847,2.478,-1.4509,0.9132,0.2587,0.146,-95.1,27.15,-31.2,7.03,0.48,-7.07,0.4156,-0.0589,-0.0011,-49.0,-9.5,53.875,58.75,44.5625,-177.5625,0
1776971686.152,9.4523,-0.4956,-2.8132,0.6238,-0.3848,-0.3232,141.0,1137.45,-1027.95,9.2847,2.478,-1.4509,0.9132,0.2587,0.146,-94.35,25.5,-30.15,7.02,0.56,-7.16,0.4156,-0.0589,-0.0011,-49.0,-9.5,53.875,58.75,44.5625,-177.5625,0
1776971686.161,9.3589,-0.4381,-2.7557,0.7171,-0.3728,-0.3096,141.9,1136.55,-1029.45,9.3661,2.3894,-1.47,0.8895,0.2561,0.1372,-94.35,25.5,-30.15,6.86,0.6,-7.19,0.48,-0.1036,-0.0055,-49.0,-9.5,53.875,58.625,44.5,-177.75,0
1776971686.165,9.4715,-0.2682,-2.7749,0.7957,-0.3621,-0.3078,139.8,1137.3,-1029.45,9.3757,2.2122,-1.6017,0.8628,0.2611,0.1287,-94.35,25.5,-30.15,6.86,0.6,-7.19,0.5367,-0.1516,-0.0076,-49.0,-9.5,53.875,58.5,44.4375,-178.0625,0
1776971686.172,9.4715,-0.2682,-2.7749,0.7957,-0.3621,-0.3078,139.8,1137.3,-1029.45,9.3757,2.2122,-1.6017,0.8628,0.2611,0.1287,-95.55,26.1,-29.25,6.96,0.54,-7.31,0.5367,-0.1516,-0.0076,-49.0,-9.5,53.875,58.5,44.4375,-178.0625,0
1776971686.177,9.5553,-0.2849,-2.8611,0.8351,-0.3528,-0.2955,141.3,1136.25,-1030.95,9.4355,2.0806,-1.6113,0.8234,0.2721,0.1159,-95.55,26.1,-29.25,6.96,0.54,-7.31,0.6469,-0.1811,-0.0164,-49.375,-9.5,52.6875,58.3125,44.3125,-178.375,0
1776971686.182,9.5553,-0.2849,-2.8611,0.8351,-0.3528,-0.2955,141.3,1136.25,-1030.95,9.4355,2.0806,-1.6113,0.8234,0.2721,0.1159,-96.0,26.1,-29.55,6.96,0.48,-7.35,0.6469,-0.1811,-0.0164,-49.375,-9.5,52.6875,58.3125,44.3125,-178.375,0
1776971686.186,9.6606,-0.3232,-2.9664,0.8937,-0.356,-0.3043,141.3,1136.25,-1030.95,9.5098,1.9393,-1.6688,0.7895,0.2825,0.1053,-96.0,26.1,-29.55,6.96,0.48,-7.35,0.6469,-0.1811,-0.0164,-49.375,-9.5,52.6875,58.125,44.25,-178.75,0
1776971686.191,9.6606,-0.3232,-2.9664,0.8937,-0.356,-0.3043,141.3,1136.25,-1030.95,9.5098,1.9393,-1.6688,0.7895,0.2825,0.1053,-94.65,25.95,-30.45,6.89,0.67,-7.19,0.7527,-0.1745,0.0044,-49.375,-9.5,52.6875,58.125,44.25,-178.75,0
1776971686.196,9.5577,-0.2897,-3.122,0.9742,-0.3523,-0.2992,141.3,1136.25,-1030.95,9.56,1.7933,-1.8986,0.7386,0.2968,0.0954,-94.65,25.95,-30.45,6.89,0.67,-7.19,0.8498,-0.1724,-0.0109,-49.375,-9.5,52.6875,57.9375,44.125,-179.1875,0
1776971686.202,9.3326,-0.2298,-3.134,1.0491,-0.3448,-0.2904,141.3,1136.25,-1030.95,9.56,1.7933,-1.8986,0.7386,0.2968,0.0954,-96.0,25.35,-30.3,6.63,0.62,-7.42,0.8498,-0.1724,-0.0109,-49.375,-9.5,52.6875,57.9375,44.125,-179.1875,0
1776971686.211,9.3326,-0.2298,-3.134,1.0968,-0.3419,-0.2803,141.3,1136.55,-1031.7,9.5768,1.7238,-2.0135,0.692,0.2974,0.0999,-96.3,24.15,-29.25,6.82,0.51,-7.39,0.9479,-0.2051,-0.0207,-49.375,-9.5,52.6875,57.6875,44.0,-179.625,0
1776971686.215,9.4068,-0.1484,-3.292,1.0968,-0.3419,-0.2803,139.2,1136.4,-1033.2,9.5385,1.6927,-2.0686,0.6518,0.2944,0.0978,-96.3,24.15,-29.25,6.82,0.51,-7.39,1.045,-0.1876,-0.0458,-49.375,-9.5,52.6875,57.4375,43.875,179.75,0
1776971686.222,9.4427,-0.1556,-3.3495,1.0986,-0.3365,-0.2659,139.2,1136.4,-1033.2,9.5385,1.6927,-2.0686,0.6518,0.2944,0.0978,-95.25,24.6,-28.8,6.78,0.14,-7.24,1.045,-0.1876,-0.0458,-49.375,-9.5,52.6875,57.4375,43.875,179.75,0
1776971686.227,9.4427,-0.1556,-3.3495,1.0986,-0.3365,-0.2659,141.0,1134.45,-1033.95,9.4906,1.6975,-2.1955,0.6153,0.2745,0.0951,-95.25,24.6,-28.8,6.69,-0.05,-7.18,1.1541,-0.1865,-0.0524,-48.5625,-7.25,55.0,57.125,43.75,179.1875,0
1776971686.232,9.4308,-0.4956,-3.4907,1.0672,-0.3317,-0.2473,141.0,1134.45,-1033.95,9.6462,1.81,-2.2984,0.6153,0.2745,0.0951,-95.25,24.6,-28.8,6.69,-0.05,-7.18,1.1541,-0.1865,-0.0524,-48.5625,-7.25,55.0,57.125,43.75,179.1875,0
1776971686.237,9.4308,-0.4956,-3.4907,1.0672,-0.3317,-0.2473,141.45,1133.7,-1033.65,9.6462,1.81,-2.2984,0.5694,0.2425,0.0901,-95.25,24.6,-28.8,6.69,-0.05,-7.18,1.2086,-0.1745,-0.0753,-48.5625,-7.25,55.0,56.8125,43.6875,178.5,0
1776971686.242,9.3877,-0.9577,-3.4764,1.0485,-0.3059,-0.235,141.45,1133.7,-1033.65,9.6989,1.8914,-2.411,0.5694,0.2425,0.0901,-96.0,23.4,-28.5,6.45,-0.78,-7.0,1.2086,-0.1745,-0.0753,-48.5625,-7.25,55.0,56.8125,43.6875,178.5,0
1776971686.25,9.3589,-1.2737,-3.5219,1.0024,-0.271,-0.2196,141.45,1133.7,-1033.65,9.6989,1.8914,-2.411,0.5383,0.203,0.0778,-96.0,23.4,-28.5,6.47,-1.1,-6.93,1.1956,-0.1473,-0.0873,-48.5625,-7.25,55.0,56.5,43.5625,177.9375,0
1776971686.255,9.3589,-1.2737,-3.5219,1.0024,-0.271,-0.2196,141.45,1133.7,-1033.65,9.7947,1.9297,-2.4828,0.5057,0.1716,0.0687,-96.0,23.4,-28.5,6.47,-1.1,-6.93,1.1956,-0.1473,-0.0873,-48.5625,-7.25,55.0,56.1875,43.5,177.375,0
1776971686.262,9.3685,-1.3479,-3.4429,0.8719,-0.2502,-0.2174,141.45,1133.7,-1033.65,9.8976,1.9656,-2.5331,0.4666,0.1418,0.0573,-96.75,25.05,-31.05,6.39,-1.21,-6.81,1.1246,-0.1069,-0.1036,-48.5625,-7.25,55.0,55.875,43.5,176.875,0
1776971686.271,9.2488,-1.415,-3.5745,0.7216,-0.2284,-0.2089,145.8,1126.2,-1030.8,9.9647,1.8962,-2.5929,0.4109,0.1079,0.0437,-96.3,24.15,-29.85,6.56,-1.33,-6.84,1.0134,-0.0436,-0.1276,-48.5625,-7.25,55.0,55.875,43.5,176.875,0
1776971686.276,9.2488,-1.415,-3.5745,0.7216,-0.2284,-0.2089,148.35,1122.15,-1027.95,9.9647,1.8962,-2.5929,0.4109,0.1079,0.0437,-96.3,24.15,-29.85,6.56,-1.33,-6.84,1.0134,-0.0436,-0.1276,-48.5625,-7.25,55.0,55.875,43.5,176.875,0
1776971686.281,9.1051,-1.4605,-3.644,0.5716,-0.2065,-0.1815,148.35,1122.15,-1027.95,9.8114,1.8411,-2.5259,0.3475,0.0701,0.0304,-95.25,23.85,-29.85,6.69,-1.17,-6.86,0.8781,0.0218,-0.156,-47.5,-4.6875,55.0,55.625,43.5,176.4375,0
1776971686.286,9.1051,-1.4605,-3.644,0.5716,-0.2065,-0.1815,149.85,1118.7,-1027.5,9.8114,1.8411,-2.5259,0.3475,0.0701,0.0304,-95.25,23.85,-29.85,6.69,-1.17,-6.86,0.8781,0.0218,-0.156,-47.5,-4.6875,55.0,55.625,43.5,176.4375,0
1776971686.291,8.9399,-1.3791,-3.6919,0.4349,-0.1673,-0.1719,149.85,1118.7,-1027.5,9.8019,1.8292,-2.4852,0.2694,0.0378,0.0245,-95.4,24.45,-29.7,6.75,-1.07,-6.89,0.757,0.0535,-0.1767,-47.5,-4.6875,55.0,55.375,43.5625,176.125,0
1776971686.299,8.8466,-1.2402,-3.6464,0.3126,-0.1077,-0.1548,151.05,1115.55,-1028.85,9.6941,1.7334,-2.5019,0.2694,0.0378,0.0245,-95.4,24.45,-29.7,6.77,-1.07,-6.88,0.6676,0.0611,-0.1898,-47.5,-4.6875,55.0,55.125,43.625,175.875,0
1776971686.304,8.8466,-1.2402,-3.6464,0.3126,-0.1077,-0.1548,151.05,1115.55,-1028.85,9.6941,1.7334,-2.5019,0.1815,-0.0072,0.02,-95.55,24.6,-30.3,6.77,-1.07,-6.88,0.6676,0.0611,-0.1898,-47.5,-4.6875,55.0,54.875,43.625,175.625,0
1776971686.312,8.8418,-1.2282,-3.62,0.1788,-0.0232,-0.1354,151.05,1115.55,-1028.85,9.675,1.743,-2.5019,0.0935,-0.045,0.0173,-96.15,24.75,-30.45,6.83,-1.01,-6.83,0.5934,0.0524,-0.1996,-47.5,-4.6875,55.0,54.625,43.6875,175.4375,0
1776971686.321,8.7987,-1.2498,-3.6392,0.0722,0.0621,-0.1037,151.95,1110.9,-1027.5,9.5481,1.7071,-2.411,-0.0024,-0.081,0.0221,-96.15,24.75,-30.45,6.81,-1.03,-6.79,0.5214,0.0611,-0.1985,-47.5,-4.6875,55.0,54.625,43.6875,175.4375,0
1776971686.326,8.7987,-1.2498,-3.6392,0.0722,0.0621,-0.1037,149.55,1111.8,-1028.4,9.5481,1.7071,-2.411,-0.0024,-0.081,0.0221,-96.15,24.75,-30.45,6.81,-1.03,-6.79,0.5214,0.0611,-0.1985,-47.5,-2.875,55.0,54.4375,43.75,175.3125,0
1776971686.331,8.7724,-1.1971,-3.5051,0.0011,0.1242,-0.061,150.75,1112.55,-1028.1,9.4834,1.8316,-2.4038,-0.085,-0.1151,0.0277,-96.6,23.25,-30.15,6.87,-1.14,-6.73,0.4374,0.0644,-0.1942,-47.5,-2.875,55.0,54.4375,43.75,175.3125,0
1776971686.336,8.7724,-1.1971,-3.5051,0.0011,0.1242,-0.061,150.75,1112.55,-1028.1,9.4834,1.8316,-2.4038,-0.085,-0.1151,0.0277,-96.6,23.25,-30.15,6.87,-1.14,-6.73,0.4374,0.0644,-0.1942,-47.5,-2.875,55.0,54.25,43.8125,175.125,0
1776971686.341,8.8777,-1.2665,-3.2633,-0.065,0.1631,-0.0301,151.95,1111.65,-1027.95,9.4475,1.8723,-2.3008,-0.1487,-0.142,0.0314,-96.6,23.25,-30.15,6.88,-1.1,-6.68,0.336,0.072,-0.1854,-47.5,-2.875,55.0,54.25,43.8125,175.125,0
1776971686.346,8.8777,-1.2665,-3.2633,-0.1396,0.1937,-0.0093,151.95,1111.65,-1027.95,9.4475,1.8723,-2.3008,-0.1487,-0.142,0.0314,-96.6,23.25,-30.15,6.88,-1.1,-6.68,0.2193,0.0774,-0.1713,-47.5,-2.875,55.0,54.125,43.875,175.0,0
1776971686.352,8.8969,-1.3575,-3.225,-0.1396,0.1937,-0.0093,152.1,1111.5,-1027.05,9.3158,1.8771,-2.1404,-0.215,-0.1679,0.0312,-94.8,22.95,-29.85,6.86,-1.08,-6.71,0.2193,0.0774,-0.1713,-47.5,-2.875,55.0,54.125,43.875,175.0,0
1776971686.361,8.8633,-1.5419,-3.1412,-0.1951,0.2156,0.0075,152.1,1111.5,-1027.05,9.2727,1.9656,-2.0087,-0.2595,-0.1996,0.0346,-95.1,22.8,-31.2,6.89,-1.06,-6.67,0.0949,0.072,-0.156,-47.5,-2.875,55.0,54.0625,43.9375,175.0,0
1776971686.366,8.9854,-1.585,-3.0335,-0.2574,0.2329,0.0226,152.1,1111.5,-1027.05,9.2727,1.9656,-2.0087,-0.2595,-0.1996,0.0346,-95.1,22.8,-31.2,6.89,-1.06,-6.67,-0.0164,0.0644,-0.1407,-47.5,-2.875,55.0,54.0,44.0,175.0,0
1776971686.372,8.9854,-1.585,-3.0335,-0.2574,0.2329,0.0226,152.25,1113.45,-1026.45,9.2488,1.98,-1.8675,-0.3131,-0.2078,0.0378,-95.85,23.25,-30.45,6.9,-1.01,-6.71,-0.0164,0.0644,-0.1407,-47.5,-2.875,55.0,54.0,44.0,175.0,0
1776971686.377,9.0405,-1.5945,-2.9042,-0.3445,0.2515,0.0301,152.25,1113.45,-1026.45,9.2608,2.0925,-1.6999,-0.3533,-0.215,0.0304,-95.85,23.25,-30.45,6.9,-1.01,-6.71,-0.0164,0.0644,-0.1407,-46.75,-1.75,55.375,54.0,44.0625,175.125,0
1776971686.382,9.0405,-1.5945,-2.9042,-0.3445,0.2515,0.0301,152.55,1113.0,-1027.65,9.2608,2.0925,-1.6999,-0.3533,-0.215,0.0304,-96.0,24.6,-31.05,6.92,-0.85,-6.78,-0.1265,0.0513,-0.1276,-46.75,-1.75,55.375,54.0,44.0625,175.125,0
1776971686.387,9.1387,-1.5562,-2.909,-0.425,0.2726,0.0314,152.55,1113.0,-1027.65,9.268,2.138,-1.5993,-0.4021,-0.218,0.0341,-96.0,24.6,-31.05,6.92,-0.85,-6.78,-0.1265,0.0513,-0.1276,-46.75,-1.75,55.375,54.0,44.125,175.25,0
1776971686.392,9.1387,-1.5562,-2.909,-0.425,0.2726,0.0314,153.9,1114.8,-1027.35,9.268,2.138,-1.5993,-0.4021,-0.218,0.0341,-95.25,23.85,-31.05,6.93,-0.73,-6.81,-0.2203,0.0469,-0.1113,-46.75,-1.75,55.375,54.0,44.125,175.25,0
1776971686.397,9.1913,-1.3862,-2.8419,-0.4788,0.2888,0.0242,153.9,1114.8,-1027.35,9.2177,2.2242,-1.5083,-0.4343,-0.2209,0.0314,-95.25,23.85,-31.05,6.93,-0.73,-6.81,-0.2858,0.0218,-0.0993,-46.75,-1.75,55.375,54.0,44.125,175.4375,0
1776971686.402,9.1913,-1.3862,-2.8419,-0.4788,0.2888,0.0242,151.65,1115.4,-1026.75,9.2177,2.2242,-1.5083,-0.4343,-0.2209,0.0314,-96.15,24.75,-29.7,6.86,-0.79,-6.89,-0.2858,0.0218,-0.0993,-46.75,-1.75,55.375,54.0,44.125,175.6875,0
1776971686.411,9.1913,-1.1133,-2.8108,-0.4988,0.2912,0.0152,150.9,1115.4,-1025.4,9.177,2.2218,-1.3791,-0.4538,-0.2145,0.0349,-96.15,24.75,-29.7,6.89,-0.65,-6.95,-0.3327,-0.0196,-0.0873,-46.75,-1.75,55.375,54.0,44.125,175.6875,0
1776971686.421,9.2057,-0.9337,-2.8036,-0.5009,0.2982,0.0037,150.9,1115.4,-1025.4,9.2105,2.3703,-1.2881,-0.4711,-0.2124,0.0421,-95.1,26.4,-30.9,6.89,-0.47,-7.01,-0.3622,-0.0436,-0.0894,-46.75,-1.75,55.375,54.0625,44.0625,175.9375,0
1776971686.427,9.244,-0.7207,-2.8563,-0.4738,0.2966,0.0056,150.9,1115.4,-1025.4,9.1889,2.4684,-1.1444,-0.4663,-0.2004,0.0554,-95.1,26.4,-30.9,6.89,-0.47,-7.01,-0.3622,-0.0436,-0.0894,-48.25,-2.5,55.75,54.0625,44.0625,176.1875,0
1776971686.432,9.244,-0.7207,-2.8563,-0.4738,0.2966,0.0056,149.55,1116.0,-1026.6,9.1889,2.4684,-1.1444,-0.4663,-0.2004,0.0554,-95.1,26.4,-30.9,6.94,-0.31,-7.06,-0.3742,-0.0654,-0.0982,-48.25,-2.5,55.75,54.0625,44.0625,176.1875,0
1776971686.437,9.3134,-0.68,-2.818,-0.4106,0.2963,0.0,149.55,1116.0,-1026.6,9.2344,2.5714,-1.1181,-0.458,-0.1916,0.0594,-95.1,26.4,-30.9,6.94,-0.31,-7.06,-0.3742,-0.0654,-0.0982,-48.25,-2.5,55.75,54.0625,44.0,176.5,0
1776971686.442,9.3134,-0.68,-2.818,-0.4106,0.2963,0.0,150.15,1116.15,-1027.2,9.2344,2.5714,-1.1181,-0.458,-0.1916,0.0594,-94.35,24.0,-30.15,6.88,-0.24,-7.1,-0.3611,-0.0862,-0.1025,-48.25,-2.5,55.75,54.0625,44.0,176.5,0
1776971686.448,9.268,-0.6201,-2.8419,-0.34,0.2894,0.0035,150.15,1116.15,-1027.2,9.1794,2.5857,-1.0223,-0.4341,-0.1761,0.0762,-94.35,24.0,-30.15,6.83,-0.26,-7.11,-0.3305,-0.1145,-0.1058,-48.25,-2.5,55.75,54.125,43.9375,176.75,0
1776971686.453,9.2584,-0.6752,-2.8323,-0.2585,0.2782,-0.0045,150.75,1116.75,-1026.6,9.1363,2.66,-1.0726,-0.4341,-0.1761,0.0762,-94.8,24.6,-31.8,6.83,-0.26,-7.11,-0.3305,-0.1145,-0.1058,-48.25,-2.5,55.75,54.125,43.875,176.9375,0
1776971686.462,9.2584,-0.6752,-2.8323,-0.2585,0.2782,-0.0045,149.4,1116.9,-1026.75,9.1363,2.66,-1.0726,-0.3917,-0.1561,0.0863,-95.55,24.15,-30.3,6.85,-0.29,-7.07,-0.3065,-0.1342,-0.1134,-48.25,-2.5,55.75,54.125,43.875,176.9375,0
1776971686.472,9.3063,-0.7111,-2.8347,-0.1857,0.2619,-0.0019,148.2,1117.05,-1026.6,9.0285,2.7605,-1.0463,-0.3667,-0.1308,0.1071,-95.55,24.15,-30.3,6.75,-0.38,-7.09,-0.2782,-0.1385,-0.12,-48.25,-2.5,55.75,54.125,43.8125,177.1875,0
1776971686.477,9.2895,-0.7877,-2.7414,-0.1202,0.2409,-0.0152,148.2,1117.05,-1026.6,9.0501,2.8276,-1.1277,-0.3174,-0.1095,0.1274,-96.75,24.15,-31.05,6.75,-0.38,-7.09,-0.2782,-0.1385,-0.12,-48.25,-2.5,55.75,54.125,43.8125,177.1875,0
1776971686.482,9.3087,-0.9242,-2.7318,-0.0834,0.222,-0.028,148.2,1117.05,-1026.6,9.0597,2.8204,-1.1899,-0.3174,-0.1095,0.1274,-96.3,25.05,-30.6,6.73,-0.35,-7.1,-0.276,-0.1625,-0.1385,-48.25,-2.875,56.875,54.0625,43.75,177.4375,0
1776971686.486,9.3087,-0.9242,-2.7318,-0.0834,0.222,-0.028,148.2,1117.05,-1026.6,9.0597,2.8204,-1.1899,-0.267,-0.0901,0.1463,-96.3,25.05,-30.6,6.73,-0.35,-7.1,-0.276,-0.1625,-0.1385,-48.25,-2.875,56.875,54.0625,43.75,177.4375,0
1776971686.492,9.3661,-0.9697,-2.715,-0.0592,0.2153,-0.0381,150.45,1118.4,-1027.2,9.1267,2.7054,-1.1684,-0.267,-0.0901,0.1463,-96.3,25.05,-30.6,6.71,-0.32,-7.13,-0.2771,-0.18,-0.1593,-48.25,-2.875,56.875,54.0625,43.625,177.625,0
1776971686.496,9.3661,-0.9697,-2.715,-0.0592,0.2153,-0.0381,150.45,1118.4,-1027.2,9.1267,2.7054,-1.1684,-0.2393,-0.0805,0.1615,-95.85,25.2,-31.2,6.71,-0.32,-7.13,-0.2629,-0.1931,-0.1865,-48.25,-2.875,56.875,54.0,43.5,177.875,0
1776971686.502,9.347,-1.0989,-2.7461,-0.0554,0.2108,-0.0488,149.85,1117.2,-1027.2,9.1602,2.6719,-1.2426,-0.2153,-0.0775,0.1649,-95.85,25.2,-31.2,6.71,-0.28,-7.17,-0.2629,-0.1931,-0.1865,-48.25,-2.875,56.875,54.0,43.5,177.875,0
1776971686.511,9.3326,-1.0942,-2.6887,-0.0703,0.2022,-0.0525,150.45,1117.65,-1026.75,9.2129,2.6959,-1.3336,-0.2153,-0.0775,0.1649,-95.85,25.2,-31.2,6.74,-0.24,-7.16,-0.2454,-0.2062,-0.2073,-48.25,-2.875,56.875,53.9375,43.4375,178.125,0
1776971686.516,9.3326,-1.0942,-2.6887,-0.0703,0.2022,-0.0525,150.45,1117.65,-1026.75,9.2129,2.6959,-1.3336,-0.2153,-0.0709,0.1737,-95.85,24.75,-30.45,6.74,-0.24,-7.16,-0.2313,-0.2073,-0.2269,-48.25,-2.875,56.875,53.875,43.3125,178.375,0
1776971686.523,9.3015,-1.0127,-2.6312,-0.0863,0.2198,-0.0602,149.55,1117.8,-1026.6,9.2344,2.5833,-1.3862,-0.2244,-0.0637,0.1817,-95.85,24.75,-30.45,6.77,-0.22,-7.13,-0.2313,-0.2073,-0.2269,-48.25,-2.875,56.875,53.875,43.3125,178.375,0
1776971686.527,9.3015,-1.0127,-2.6312,-0.0863,0.2198,-0.0602,150.3,1116.75,-1027.35,9.2344,2.5833,-1.3862,-0.2244,-0.0637,0.1817,-95.85,24.75,-30.45,6.77,-0.22,-7.13,-0.2302,-0.2094,-0.2465,-47.0625,-4.6875,54.875,53.8125,43.1875,178.625,0
1776971686.532,9.2847,-0.9792,-2.5714,-0.1079,0.2286,-0.049,150.3,1116.75,-1027.35,9.2967,2.5043,-1.4389,-0.2427,-0.0597,0.1977,-95.85,24.45,-31.2,6.81,-0.15,-7.16,-0.2302,-0.2094,-0.2465,-47.0625,-4.6875,54.875,53.8125,43.1875,178.625,0
1776971686.537,9.2847,-0.9792,-2.5714,-0.1079,0.2286,-0.049,150.3,1116.75,-1027.35,9.2967,2.5043,-1.4389,-0.2427,-0.0597,0.1977,-95.85,24.45,-31.2,6.81,-0.15,-7.16,-0.2313,-0.2127,-0.2574,-47.0625,-4.6875,54.875,53.6875,43.0625,178.9375,0
1776971686.542,9.3134,-0.9649,-2.5211,-0.1311,0.2366,-0.0408,150.3,1116.75,-1027.35,9.2847,2.4229,-1.5347,-0.2494,-0.0616,0.2054,-95.85,24.45,-31.2,6.85,-0.07,-7.16,-0.2313,-0.2127,-0.2574,-47.0625,-4.6875,54.875,53.6875,43.0625,178.9375,0
1776971686.547,9.3134,-0.9649,-2.5211,-0.1311,0.2366,-0.0408,150.3,1116.75,-1027.35,9.2847,2.4229,-1.5347,-0.2494,-0.0616,0.2054,-95.85,24.0,-30.15,6.85,-0.07,-7.16,-0.228,-0.2214,-0.2607,-47.0625,-4.6875,54.875,53.5625,42.9375,179.1875,0
1776971686.553,9.2727,-0.8763,-2.5331,-0.1628,0.2446,-0.0338,151.8,1117.05,-1027.65,9.2967,2.4493,-1.5251,-0.2694,-0.0661,0.2166,-96.9,24.0,-30.9,6.81,-0.02,-7.21,-0.228,-0.2214,-0.2607,-47.0625,-4.6875,54.875,53.5625,42.9375,179.1875,0
1776971686.562,9.3134,-0.929,-2.4828,-0.2012,0.2569,-0.0325,151.2,1117.2,-1026.15,9.3015,2.4181,-1.6281,-0.2721,-0.0807,0.2204,-96.9,24.0,-30.9,6.8,0.0,-7.23,-0.2193,-0.24,-0.2585,-47.0625,-4.6875,54.875,53.5,42.8125,179.4375,0
1776971686.571,9.3709,-0.8859,-2.3942,-0.2169,0.275,-0.0205,151.2,1117.95,-1025.7,9.3015,2.4373,-1.6352,-0.2899,-0.0885,0.23,-96.15,23.55,-28.95,6.81,0.21,-7.21,-0.216,-0.2563,-0.2531,-47.0625,-4.6875,54.875,53.375,42.6875,179.6875,0
1776971686.576,9.3709,-0.8859,-2.3942,-0.2169,0.275,-0.0205,151.2,1117.95,-1025.7,9.3015,2.4373,-1.6352,-0.2899,-0.0885,0.23,-95.85,23.25,-31.65,6.81,0.21,-7.21,-0.216,-0.2563,-0.2531,-47.0625,-4.6875,54.875,53.375,42.6875,179.6875,0
1776971686.58,9.3948,-0.905,-2.4086,-0.226,0.2984,-0.0205,152.1,1117.05,-1026.6,9.3518,2.4229,-1.585,-0.3075,-0.0981,0.2353,-95.85,23.25,-31.65,6.73,0.02,-7.17,-0.192,-0.1516,-0.1844,-47.0625,-5.375,57.25,53.3125,42.625,179.875,0
1776971686.585,9.3948,-0.905,-2.4086,-0.226,0.2984,-0.0205,152.1,1117.05,-1026.6,9.3518,2.4229,-1.585,-0.3075,-0.0981,0.2353,-94.8,24.15,-31.35,6.73,0.02,-7.17,-0.192,-0.1516,-0.1844,-47.0625,-5.375,57.25,53.3125,42.625,179.875,0
1776971686.59,9.5122,-0.9266,-2.3607,-0.231,0.3192,-0.0173,151.2,1118.4,-1026.15,9.3541,2.478,-1.573,-0.3416,-0.1074,0.2372,-94.8,24.15,-31.35,6.71,0.06,-7.27,-0.192,-0.1516,-0.1844,-47.0625,-5.375,57.25,53.3125,42.5,-179.8125,0
1776971686.595,9.5122,-0.9266,-2.3607,-0.231,0.3192,-0.0173,151.2,1118.4,-1026.15,9.3541,2.478,-1.573,-0.3416,-0.1074,0.2372,-94.8,24.15,-31.35,6.71,0.06,-7.27,-0.192,-0.1516,-0.1844,-47.0625,-5.375,57.25,53.25,42.4375,-179.625,0
1776971686.602,9.6367,-0.8547,-2.2841,-0.2486,0.3192,-0.0093,151.2,1118.4,-1026.15,9.3541,2.4469,-1.5754,-0.3685,-0.1183,0.2401,-94.8,24.15,-31.35,6.61,0.0,-7.3,-0.1931,-0.1647,-0.1647,-47.0625,-5.375,57.25,53.25,42.4375,-179.625,0
1776971686.61,9.7755,-0.8188,-2.1596,-0.2561,0.3331,-0.004,151.05,1117.5,-1024.8,9.402,2.4948,-1.5586,-0.3989,-0.1164,0.2441,-96.3,24.6,-30.6,6.67,0.22,-7.37,-0.2073,-0.1527,-0.1429,-47.0625,-5.375,57.25,53.1875,42.3125,-179.4375,0
1776971686.615,9.7755,-0.8188,-2.1596,-0.2561,0.3331,-0.004,151.05,1117.5,-1024.8,9.402,2.4948,-1.5586,-0.3989,-0.1164,0.2441,-96.3,24.6,-30.6,6.67,0.22,-7.37,-0.2073,-0.1527,-0.1429,-47.0625,-5.375,57.25,53.125,42.1875,-179.3125,0
1776971686.622,9.6774,-0.8404,-2.0423,-0.2518,0.3448,-0.0024,153.0,1118.4,-1026.15,9.3685,2.4349,-1.5203,-0.4293,-0.1239,0.2446,-96.3,24.6,-30.6,6.63,0.27,-7.34,-0.1844,-0.2476,-0.1516,-47.0625,-5.375,57.25,53.125,42.1875,-179.3125,0
1776971686.627,9.6941,-0.7853,-1.9728,-0.2462,0.3544,0.0011,149.85,1119.45,-1023.6,9.3565,2.4181,-1.4844,-0.4572,-0.1268,0.2403,-96.15,23.25,-30.45,6.63,0.27,-7.34,-0.1844,-0.2476,-0.1516,-46.375,-6.875,57.25,53.125,42.0625,-179.125,0
1776971686.633,9.6941,-0.7853,-1.9728,-0.2462,0.3544,0.0011,149.85,1119.45,-1023.6,9.3565,2.4181,-1.4844,-0.4572,-0.1268,0.2403,-96.15,23.25,-30.45,6.6,0.17,-7.38,-0.1669,-0.2509,-0.1298,-46.375,-6.875,57.25,53.125,42.0625,-179.125,0
1776971686.637,9.7252,-0.8571,-1.8004,-0.2414,0.3645,0.0072,150.15,1119.45,-1023.6,9.3925,2.5259,-1.3719,-0.477,-0.1234,0.2332,-94.8,21.45,-31.35,6.6,0.17,-7.38,-0.1669,-0.2509,-0.1298,-46.375,-6.875,57.25,53.125,41.9375,-179.0,0
1776971686.642,9.7252,-0.8571,-1.8004,-0.2414,0.3645,0.0072,150.15,1119.45,-1023.6,9.3925,2.5259,-1.3719,-0.477,-0.1234,0.2332,-94.8,21.45,-31.35,6.61,0.15,-7.42,-0.1669,-0.216,-0.0938,-46.375,-6.875,57.25,53.125,41.9375,-179.0,0
1776971686.647,9.7468,-0.893,-1.6592,-0.2569,0.36,0.0131,150.9,1120.2,-1023.9,9.3446,2.6049,-1.4102,-0.4882,-0.1308,0.2193,-96.6,23.55,-30.9,6.61,0.15,-7.42,-0.1734,-0.2182,-0.0545,-46.375,-6.875,57.25,53.125,41.8125,-178.875,0
1776971686.653,9.7468,-0.893,-1.6592,-0.2569,0.36,0.0131,150.9,1120.2,-1023.9,9.3446,2.6049,-1.4102,-0.4882,-0.1308,0.2193,-96.6,23.55,-30.9,6.65,0.12,-7.44,-0.1734,-0.2182,-0.0545,-46.375,-6.875,57.25,53.125,41.8125,-178.875,0
1776971686.662,9.7851,-0.9194,-1.561,-0.2817,0.3616,0.0264,150.9,1120.2,-1023.9,9.3039,2.6647,-1.3551,-0.4962,-0.1295,0.2076,-96.9,22.5,-29.7,6.59,0.32,-7.4,-0.1734,-0.2465,-0.0109,-46.375,-6.875,57.25,53.125,41.6875,-178.75,0
1776971686.671,9.8138,-0.9433,-1.3815,-0.3118,0.3603,0.0405,150.9,1120.2,-1023.3,9.3134,2.715,-1.3336,-0.4962,-0.1247,0.1884,-96.0,23.85,-31.35,6.62,0.68,-7.5,-0.1505,-0.2694,0.0153,-46.375,-6.875,57.25,53.1875,41.5,-178.6875,0
1776971686.676,9.8234,-0.8715,-1.3192,-0.3387,0.3613,0.0392,151.95,1119.15,-1021.5,9.2057,2.8228,-1.2713,-0.4895,-0.1207,0.1753,-96.3,22.2,-31.05,6.62,0.68,-7.5,-0.1505,-0.2694,0.0153,-46.375,-6.875,57.25,53.1875,41.5,-178.6875,0
1776971686.681,9.8234,-0.8715,-1.3192,-0.3387,0.3613,0.0392,151.95,1119.15,-1021.5,9.2057,2.8228,-1.2713,-0.4895,-0.1207,0.1753,-96.3,22.2,-31.05,6.49,0.51,-7.52,-0.0949,-0.3152,0.024,-44.5625,-8.0,56.5,53.1875,41.375,-178.625,0
1776971686.685,9.8617,-0.6919,-1.3216,-0.3491,0.3525,0.0288,152.85,1121.55,-1021.65,9.1243,2.8491,-1.2402,-0.4826,-0.1095,0.1567,-96.3,22.2,-31.05,6.49,0.51,-7.52,-0.0949,-0.3152,0.024,-44.5625,-8.0,56.5,53.1875,41.375,-178.625,0
1776971686.69,9.8617,-0.6919,-1.3216,-0.3491,0.3525,0.0288,152.85,1121.55,-1021.65,9.1243,2.8491,-1.2402,-0.4826,-0.1095,0.1567,-96.3,22.2,-31.05,6.41,0.32,-7.52,-0.0458,-0.3229,0.0175,-44.5625,-8.0,56.5,53.25,41.1875,-178.625,0
1776971686.695,9.8857,-0.5076,-1.3719,-0.3352,0.3328,0.0165,152.1,1122.75,-1021.65,8.9591,2.9066,-1.1636,-0.4756,-0.0855,0.1439,-96.75,23.4,-30.6,6.41,0.32,-7.52,-0.0458,-0.3229,0.0175,-44.5625,-8.0,56.5,53.25,41.0,-178.625,0
1776971686.703,9.8857,-0.5076,-1.3719,-0.3352,0.3328,0.0165,152.1,1122.75,-1021.65,8.9208,2.8898,-1.1205,-0.4756,-0.0855,0.1439,-96.75,23.4,-30.6,6.25,0.2,-7.52,-0.0284,-0.3054,0.0153,-44.5625,-8.0,56.5,53.25,40.875,-178.625,0
1776971686.712,9.8713,-0.4597,-1.3815,-0.3003,0.3107,0.0045,151.65,1121.7,-1022.25,8.9208,2.8898,-1.1205,-0.4586,-0.06,0.1292,-96.75,23.4,-30.6,6.23,0.18,-7.51,-0.0273,-0.2782,0.0142,-44.5625,-8.0,56.5,53.25,40.875,-178.625,0
1776971686.722,9.8713,-0.419,-1.3671,-0.2555,0.2769,0.0053,151.65,1121.7,-1022.25,8.8921,3.0023,-1.0008,-0.4306,-0.0432,0.122,-96.75,23.4,-30.6,6.27,0.24,-7.48,-0.024,-0.2531,0.0131,-44.5625,-8.0,56.5,53.3125,40.6875,-178.625,0
1776971686.727,9.7995,-0.407,-1.4126,-0.198,0.2417,0.0064,151.2,1125.45,-1022.55,8.8921,3.0023,-1.0008,-0.3973,-0.0333,0.1122,-95.85,22.5,-30.9,6.27,0.24,-7.48,-0.024,-0.2531,0.0131,-44.5625,-8.0,56.5,53.3125,40.6875,-178.625,0
1776971686.732,9.7995,-0.407,-1.4126,-0.198,0.2417,0.0064,151.2,1125.45,-1022.55,8.9423,3.0598,-0.9912,-0.3973,-0.0333,0.1122,-95.85,22.5,-30.9,6.29,0.22,-7.48,-0.0207,-0.2367,0.0153,-44.1875,-7.6875,58.0625,53.3125,40.5625,-178.625,0
1776971686.737,9.8378,-0.3759,-1.3024,-0.1239,0.2206,0.0104,150.3,1127.55,-1021.95,8.9423,3.0598,-0.9912,-0.356,-0.0216,0.0946,-96.0,23.4,-30.6,6.29,0.22,-7.48,-0.0207,-0.2367,0.0153,-44.1875,-7.6875,58.0625,53.3125,40.5625,-178.625,0
1776971686.742,9.8378,-0.3759,-1.3024,-0.1239,0.2206,0.0104,150.3,1127.55,-1021.95,9.1028,3.0765,-1.0415,-0.356,-0.0216,0.0946,-96.0,23.4,-30.6,6.12,0.15,-7.5,-0.0175,-0.228,0.0229,-44.1875,-7.6875,58.0625,53.3125,40.4375,-178.625,0
1776971686.747,9.9264,-0.2682,-1.1732,-0.081,0.2028,0.016,150.15,1126.65,-1023.9,9.1028,3.0765,-1.0415,-0.3096,-0.0197,0.0866,-97.2,23.85,-30.3,6.12,0.15,-7.5,-0.0229,-0.2105,0.0338,-44.1875,-7.6875,58.0625,53.3125,40.3125,-178.625,0
1776971686.753,10.0269,-0.3256,-1.2594,-0.0576,0.1703,0.0218,150.15,1126.65,-1023.9,9.2009,3.0885,-1.0104,-0.2627,-0.0229,0.0741,-97.2,23.85,-30.3,6.04,0.19,-7.6,-0.0229,-0.2105,0.0338,-44.1875,-7.6875,58.0625,53.3125,40.3125,-178.625,0
1776971686.762,10.0269,-0.3256,-1.2594,-0.0576,0.1703,0.0218,150.75,1127.25,-1023.75,9.1913,3.122,-1.0511,-0.2209,-0.0117,0.06,-94.5,23.4,-29.55,6.02,0.25,-7.59,-0.0196,-0.18,0.0415,-44.1875,-7.6875,58.0625,53.375,40.1875,-178.625,0
1776971686.767,10.1035,-0.3472,-1.2929,-0.0538,0.154,0.0261,150.75,1127.25,-1023.75,9.1913,3.122,-1.0511,-0.2209,-0.0117,0.06,-95.55,22.2,-30.6,6.02,0.25,-7.59,-0.0175,-0.144,0.0425,-44.1875,-7.6875,58.0625,53.375,40.125,-178.625,0
1776971686.774,10.137,-0.4262,-1.2785,-0.0565,0.1362,0.02,150.75,1127.25,-1023.75,9.2368,3.1388,-1.1157,-0.1841,0.0,0.0541,-95.55,22.2,-30.6,6.02,0.14,-7.62,-0.0175,-0.144,0.0425,-44.1875,-7.6875,58.0625,53.375,40.125,-178.625,0
1776971686.778,10.137,-0.4262,-1.2785,-0.0565,0.1362,0.02,150.75,1127.25,-1023.75,9.2368,3.1388,-1.1157,-0.1841,0.0,0.0541,-95.55,22.2,-30.6,5.99,0.11,-7.66,-0.0153,-0.1036,0.0338,-44.25,-8.0,58.5,53.4375,40.0625,-178.6875,0
1776971686.783,10.1466,-0.4238,-1.3001,-0.0568,0.1162,0.0184,151.65,1127.7,-1023.75,9.268,3.2657,-1.1229,-0.1442,0.0115,0.0408,-95.55,22.2,-30.6,5.99,0.11,-7.66,-0.0153,-0.1036,0.0338,-44.25,-8.0,58.5,53.4375,40.0625,-178.6875,0
1776971686.788,10.1466,-0.4238,-1.3001,-0.0568,0.1162,0.0184,151.65,1127.7,-1022.55,9.268,3.2657,-1.1229,-0.1442,0.0115,0.0408,-96.3,22.2,-30.6,6.02,0.17,-7.67,-0.0153,-0.0513,0.0273,-44.25,-8.0,58.5,53.4375,40.0,-178.6875,0
1776971686.793,10.0509,-0.3519,-1.221,-0.0557,0.0975,0.0232,150.75,1127.25,-1023.45,9.2512,3.2705,-0.996,-0.1021,0.0157,0.0234,-96.3,22.2,-30.6,6.02,0.17,-7.67,-0.0153,-0.0513,0.0273,-44.25,-8.0,58.5,53.4375,40.0,-178.6875,0
1776971686.798,10.0509,-0.3519,-1.221,-0.0557,0.0975,0.0232,150.75,1127.25,-1023.45,9.2512,3.2705,-0.996,-0.1021,0.0157,0.0234,-96.3,22.2,-30.6,6.02,0.17,-7.67,-0.0109,-0.0087,0.0185,-44.25,-8.0,58.5,53.4375,40.0,-178.6875,0
1776971686.803,10.0533,-0.3017,-1.0989,-0.0461,0.0853,0.0232,150.0,1127.25,-1022.7,9.2201,3.3112,-1.1181,-0.0653,0.0187,0.0085,-96.3,22.2,-30.6,6.06,0.17,-7.62,-0.0109,-0.0087,0.0185,-44.25,-8.0,58.5,53.4375,40.0,-178.6875,0
1776971686.812,10.0149,-0.261,-1.1851,-0.0365,0.0658,0.0277,149.4,1126.2,-1023.3,9.2177,3.2753,-1.0175,-0.0213,0.0176,-0.0107,-96.15,24.0,-30.9,6.05,0.09,-7.66,-0.0065,0.0273,0.0098,-44.25,-8.0,58.5,53.4375,40.0,-178.6875,0
1776971686.82,10.0149,-0.261,-1.1851,-0.0365,0.0658,0.0277,149.4,1126.2,-1023.3,9.2033,3.1867,-1.0558,0.0139,0.0197,-0.0344,-96.75,23.85,-29.55,6.1,0.17,-7.65,-0.0044,0.0633,0.0022,-44.25,-8.0,58.5,53.4375,40.0,-178.6875,0
1776971686.825,9.9862,-0.3017,-1.2737,-0.0179,0.0378,0.0354,149.4,1126.2,-1023.3,9.2033,3.1867,-1.0558,0.0139,0.0197,-0.0344,-95.85,23.25,-29.55,6.1,0.17,-7.65,-0.0044,0.0633,0.0022,-44.25,-8.0,58.5,53.4375,40.0,-178.6875,0
1776971686.83,9.9862,-0.3017,-1.2737,0.0136,0.0152,0.0456,149.4,1126.2,-1023.3,9.1913,3.1436,-1.0582,0.0413,0.0141,-0.057,-95.85,23.25,-31.2,6.18,0.24,-7.61,-0.0011,0.0927,-0.0011,-43.5,-8.375,58.375,53.4375,40.0625,-178.6875,0
1776971686.835,10.003,-0.3998,-1.1923,0.0136,0.0152,0.0456,149.4,1126.2,-1023.3,9.1913,3.1436,-1.0582,0.0413,0.0141,-0.057,-95.85,23.25,-31.2,6.18,0.24,-7.61,-0.0011,0.0927,-0.0011,-43.5,-8.375,58.375,53.4375,40.0625,-178.6875,0
1776971686.84,9.8881,-0.5219,-1.2474,0.044,0.0003,0.0597,149.4,1126.2,-1023.3,9.1267,3.0406,-1.0654,0.064,0.0165,-0.0741,-96.6,22.8,-30.45,6.18,0.22,-7.55,-0.0022,0.1124,0.0044,-43.5,-8.375,58.375,53.4375,40.0625,-178.6875,0
1776971686.844,9.8881,-0.5219,-1.2474,0.044,0.0003,0.0597,150.9,1126.2,-1021.8,9.1267,3.0406,-1.0654,0.064,0.0165,-0.0741,-96.6,22.8,-30.45,6.18,0.22,-7.55,-0.0022,0.1124,0.0044,-43.5,-8.375,58.375,53.4375,40.0625,-178.6875,0
1776971686.849,9.9288,-0.5746,-1.1756,0.0498,-0.0226,0.0576,150.9,1126.2,-1021.8,9.1889,2.9712,-1.0199,0.0821,0.0165,-0.0839,-97.2,22.65,-30.6,6.15,0.22,-7.61,-0.0065,0.1309,0.0076,-43.5,-8.375,58.375,53.4375,40.125,-178.6875,0
1776971686.854,9.9288,-0.5746,-1.1756,0.0498,-0.0226,0.0576,151.05,1127.25,-1024.2,9.1889,2.9712,-1.0199,0.0821,0.0165,-0.0839,-97.2,22.65,-30.6,6.15,0.22,-7.61,-0.0065,0.1309,0.0076,-43.5,-8.375,58.375,53.4375,40.25,-178.6875,0
1776971686.863,9.9838,-0.644,-1.2091,0.0418,-0.041,0.0541,149.85,1125.45,-1022.55,9.2464,2.8874,-1.0439,0.0887,0.0133,-0.0965,-95.1,22.8,-29.4,6.05,0.16,-7.56,-0.0076,0.1593,0.0153,-43.5,-8.375,58.375,53.4375,40.25,-178.6875,0
1776971686.869,10.0963,-0.644,-1.2665,0.0232,-0.053,0.045,149.85,1125.45,-1022.55,9.2488,2.9592,-1.0319,0.0874,0.0112,-0.1138,-95.1,22.8,-29.4,6.08,0.15,-7.61,-0.0109,0.1953,0.0175,-43.5,-8.375,58.375,53.4375,40.3125,-178.6875,0
1776971686.874,10.0963,-0.644,-1.2665,0.0232,-0.053,0.045,151.05,1126.8,-1023.15,9.2488,2.9592,-1.0319,0.0874,0.0112,-0.1138,-95.1,22.8,-29.4,6.08,0.15,-7.61,-0.0109,0.1953,0.0175,-43.5,-8.375,58.375,53.4375,40.3125,-178.6875,0
1776971686.878,10.0868,-0.6105,-1.3408,-0.0024,-0.0818,0.0456,151.05,1126.8,-1023.15,9.268,2.9377,-1.0391,0.0794,0.0083,-0.121,-96.75,22.95,-29.25,6.08,0.15,-7.61,-0.0109,0.1953,0.0175,-43.5,-6.875,59.25,53.5,40.4375,-178.6875,0
1776971686.883,10.0868,-0.6105,-1.3408,-0.0024,-0.0818,0.0456,151.05,1126.8,-1023.15,9.268,2.9377,-1.0391,0.0794,0.0083,-0.121,-96.75,22.95,-29.25,6.24,0.17,-7.59,-0.0153,0.2247,0.0153,-43.5,-6.875,59.25,53.5,40.4375,-178.6875,0
1776971686.888,10.0341,-0.5722,-1.4389,-0.0224,-0.1005,0.0464,151.05,1126.8,-1023.15,9.2799,2.9856,-1.0918,0.0679,0.008,-0.134,-96.75,22.95,-29.25,6.24,0.17,-7.59,-0.0153,0.2247,0.0153,-43.5,-6.875,59.25,53.5,40.5625,-178.625,0
1776971686.893,10.0341,-0.5722,-1.4389,-0.0224,-0.1005,0.0464,150.15,1127.4,-1023.6,9.2799,2.9856,-1.0918,0.0679,0.008,-0.134,-96.75,22.95,-29.25,6.29,0.15,-7.57,-0.0164,0.2465,0.0044,-43.5,-6.875,59.25,53.5,40.5625,-178.625,0
1776971686.898,9.912,-0.7087,-1.4868,-0.0312,-0.1266,0.0506,150.15,1127.4,-1023.6,9.2895,2.9928,-1.008,0.0693,0.0048,-0.142,-95.85,24.0,-30.45,6.29,0.15,-7.57,-0.0229,0.2618,-0.0065,-43.5,-6.875,59.25,53.5,40.6875,-178.625,0
1776971686.903,9.912,-0.7087,-1.4868,-0.0312,-0.1266,0.0506,148.65,1128.45,-1023.6,9.2895,2.9928,-1.008,0.0693,0.0048,-0.142,-95.85,24.0,-30.45,6.38,0.09,-7.58,-0.0229,0.2618,-0.0065,-43.5,-6.875,59.25,53.5,40.875,-178.625,0
1776971686.912,9.8114,-0.7159,-1.5993,-0.0234,-0.1346,0.0498,148.8,1127.55,-1022.7,9.2895,2.9161,-1.0463,0.0634,0.0013,-0.1426,-96.9,23.25,-30.9,6.42,0.18,-7.54,-0.0295,0.2651,-0.0196,-43.5,-6.875,59.25,53.5,40.875,-178.625,0
1776971686.922,9.7396,-0.7829,-1.6616,-0.0115,-0.1434,0.0568,148.8,1128.0,-1023.45,9.2823,2.9066,-0.9816,0.0741,0.0027,-0.1463,-96.75,22.95,-29.85,6.48,0.2,-7.46,-0.0349,0.2683,-0.0229,-43.5,-6.875,59.25,53.4375,41.0,-178.5625,0
1776971686.927,9.7013,-0.9002,-1.7454,-0.0051,-0.1564,0.0624,148.8,1128.0,-1023.45,9.2512,2.8563,-1.0918,0.0818,0.0021,-0.1487,-96.75,24.6,-30.3,6.48,0.2,-7.46,-0.0349,0.2683,-0.0229,-43.5,-6.875,59.25,53.4375,41.125,-178.5625,0
1776971686.933,9.7013,-0.9002,-1.7454,-0.0051,-0.1564,0.0624,150.75,1128.0,-1023.75,9.2512,2.8563,-1.0918,0.0818,0.0021,-0.1487,-96.75,24.6,-30.3,6.43,0.15,-7.43,-0.0404,0.2662,-0.0251,-44.25,-7.6875,57.6875,53.4375,41.125,-178.5625,0
1776971686.937,9.5481,-0.905,-1.7813,0.0005,-0.1585,0.0677,150.75,1128.0,-1023.75,9.1961,2.7509,-1.0534,0.1031,-0.0019,-0.1522,-95.55,21.9,-29.85,6.43,0.15,-7.43,-0.0404,0.2662,-0.0251,-44.25,-7.6875,57.6875,53.4375,41.3125,-178.5,0
1776971686.943,9.5481,-0.905,-1.7813,0.0005,-0.1585,0.0677,150.75,1128.0,-1023.75,9.1961,2.7509,-1.0534,0.1031,-0.0019,-0.1522,-95.55,21.9,-29.85,6.5,0.24,-7.41,-0.0469,0.2618,-0.024,-44.25,-7.6875,57.6875,53.4375,41.3125,-178.5,0
1776971686.947,9.517,-0.996,-1.8699,-0.0099,-0.1591,0.0552,150.75,1128.0,-1023.75,9.1698,2.7342,-1.1133,0.1212,-0.0059,-0.1458,-96.3,22.95,-30.6,6.5,0.24,-7.41,-0.0502,0.2629,-0.0273,-44.25,-7.6875,57.6875,53.4375,41.4375,-178.4375,0
1776971686.953,9.517,-0.996,-1.8699,-0.0099,-0.1591,0.0552,148.8,1125.75,-1024.8,9.1698,2.5833,-1.0894,0.1271,0.0008,-0.1474,-96.3,22.95,-30.6,6.54,0.23,-7.37,-0.0502,0.2629,-0.0273,-44.25,-7.6875,57.6875,53.4375,41.4375,-178.4375,0
1776971686.962,9.493,-1.0846,-1.9513,-0.0173,-0.1665,0.0538,148.35,1125.45,-1024.35,9.2009,2.6073,-1.1756,0.1271,0.0008,-0.1474,-96.3,22.95,-30.6,6.57,0.24,-7.35,-0.0513,0.2531,-0.024,-44.25,-7.6875,57.6875,53.4375,41.5625,-178.375,0
1776971686.967,9.426,-1.0894,-1.9489,-0.0197,-0.1607,0.0554,148.35,1125.45,-1024.35,9.2009,2.6073,-1.1756,0.1343,-0.004,-0.142,-96.15,24.0,-30.15,6.57,0.24,-7.35,-0.0491,0.24,-0.0218,-44.25,-7.6875,57.6875,53.4375,41.6875,-178.375,0
1776971686.974,9.426,-1.0894,-1.9489,-0.0197,-0.1607,0.0554,148.5,1125.3,-1024.2,9.2368,2.557,-1.2474,0.1244,0.0029,-0.1332,-96.15,24.0,-30.15,6.61,0.27,-7.31,-0.0491,0.24,-0.0218,-44.25,-7.6875,57.6875,53.4375,41.6875,-178.375,0
1776971686.978,9.4547,-1.1205,-2.059,-0.0272,-0.1641,0.0512,148.5,1125.3,-1024.2,9.2368,2.557,-1.2474,0.1244,0.0029,-0.1332,-96.15,24.0,-30.15,6.61,0.27,-7.31,-0.0491,0.24,-0.0218,-44.875,-8.375,57.25,53.4375,41.8125,-178.3125,0
1776971686.983,9.4547,-1.1205,-2.059,-0.0272,-0.1641,0.0512,151.05,1124.55,-1024.5,9.2512,2.399,-1.2498,0.1167,0.0053,-0.1204,-96.15,24.0,-30.15,6.66,0.29,-7.29,-0.0469,0.2269,-0.0175,-44.875,-8.375,57.25,53.4375,41.8125,-178.3125,0
1776971686.988,9.3972,-1.1612,-2.1452,-0.0211,-0.1556,0.0525,151.05,1124.55,-1024.5,9.2512,2.399,-1.2498,0.1167,0.0053,-0.1204,-95.55,24.15,-29.85,6.66,0.29,-7.29,-0.0469,0.2269,-0.0175,-44.875,-8.375,57.25,53.4375,41.9375,-178.3125,0
1776971686.993,9.3972,-1.1612,-2.1452,-0.0211,-0.1556,0.0525,150.15,1125.45,-1024.65,9.3565,2.4277,-1.233,0.0978,0.0141,-0.105,-95.55,24.15,-29.85,6.69,0.3,-7.25,-0.0436,0.2116,-0.0087,-44.875,-8.375,57.25,53.4375,41.9375,-178.3125,0
1776971686.998,9.3925,-1.1827,-2.2529,-0.0216,-0.1556,0.0474,150.15,1125.45,-1024.65,9.3565,2.4277,-1.233,0.0978,0.0141,-0.105,-96.9,24.0,-30.9,6.69,0.3,-7.25,-0.0425,0.1985,-0.0022,-44.875,-8.375,57.25,53.4375,42.0625,-178.25,0
1776971687.004,9.3925,-1.1827,-2.2529,-0.0216,-0.1556,0.0474,150.15,1125.45,-1024.65,9.3661,2.3439,-1.2785,0.0901,0.0296,-0.0858,-96.9,24.0,-30.9,6.71,0.3,-7.29,-0.0425,0.1985,-0.0022,-44.875,-8.375,57.25,53.4375,42.0625,-178.25,0
1776971687.012,9.3158,-1.1684,-2.2649,-0.0253,-0.1372,0.0458,148.5,1124.25,-1025.55,9.3087,2.3367,-1.324,0.0871,0.0456,-0.0632,-96.6,24.75,-29.7,6.71,0.29,-7.26,-0.0382,0.1789,0.0087,-44.875,-8.375,57.25,53.4375,42.1875,-178.25,0
1776971687.017,9.2943,-1.1468,-2.308,-0.0157,-0.1274,0.0381,148.5,1124.25,-1025.55,9.3087,2.3367,-1.324,0.0871,0.0456,-0.0632,-95.55,23.4,-31.8,6.71,0.29,-7.26,-0.0349,0.1658,0.0164,-44.875,-8.375,57.25,53.5,42.25,-178.25,0
1776971687.024,9.2464,-1.1301,-2.3894,-0.0032,-0.1164,0.0304,150.15,1125.9,-1024.65,9.2847,2.387,-1.3575,0.0938,0.0576,-0.0474,-95.55,23.4,-31.8,6.72,0.26,-7.24,-0.0349,0.1658,0.0164,-44.875,-8.375,57.25,53.5,42.25,-178.25,0
1776971687.028,9.2464,-1.1301,-2.3894,-0.0032,-0.1164,0.0304,150.15,1125.9,-1024.65,9.2847,2.387,-1.3575,0.0938,0.0576,-0.0474,-96.3,25.35,-30.3,6.72,0.26,-7.24,-0.0316,0.1484,0.0229,-45.6875,-8.375,56.5,53.5,42.3125,-178.1875,0
1776971687.034,9.2584,-1.0846,-2.4157,0.0064,-0.1172,0.0264,148.65,1125.9,-1026.15,9.3111,2.3942,-1.3719,0.1226,0.0637,-0.024,-96.3,25.35,-30.3,6.73,0.28,-7.21,-0.0316,0.1484,0.0229,-45.6875,-8.375,56.5,53.5,42.3125,-178.1875,0
1776971687.038,9.2584,-1.0846,-2.4157,0.0064,-0.1172,0.0264,150.15,1125.45,-1025.4,9.3111,2.3942,-1.3719,0.1226,0.0637,-0.024,-96.3,25.35,-30.3,6.73,0.28,-7.21,-0.0251,0.1309,0.0295,-45.6875,-8.375,56.5,53.5,42.4375,-178.1875,0
1776971687.043,9.2536,-1.1444,-2.4708,0.0101,-0.1085,0.0272,150.15,1125.45,-1025.4,9.3158,2.375,-1.4772,0.1431,0.0655,-0.0125,-96.3,25.35,-30.3,6.79,0.19,-7.17,-0.0251,0.1309,0.0295,-45.6875,-8.375,56.5,53.5,42.4375,-178.1875,0
1776971687.048,9.2536,-1.1444,-2.4708,0.0101,-0.1085,0.0272,149.1,1126.2,-1026.15,9.3925,2.3727,-1.4174,0.1431,0.0655,-0.0125,-96.3,25.35,-30.3,6.79,0.19,-7.17,-0.0218,0.1014,0.0382,-45.6875,-8.375,56.5,53.5625,42.5,-178.25,0
1776971687.054,9.2464,-1.0894,-2.5163,0.0155,-0.0949,0.0224,149.1,1126.2,-1026.15,9.3925,2.3727,-1.4174,0.1735,0.0663,0.0035,-96.3,25.35,-30.3,6.75,0.26,-7.22,-0.0218,0.1014,0.0382,-45.6875,-8.375,56.5,53.5625,42.5,-178.25,0
1776971687.063,9.1722,-1.2163,-2.4876,0.0163,-0.0674,0.0266,149.1,1126.2,-1026.15,9.2895,2.3008,-1.3647,0.1911,0.0602,0.0104,-96.0,24.15,-29.85,6.75,0.35,-7.21,-0.0207,0.084,0.0502,-45.6875,-8.375,56.5,53.5625,42.5,-178.25,0
1776971687.069,9.1722,-1.2163,-2.4876,0.0163,-0.0674,0.0266,149.1,1124.4,-1027.5,9.2751,2.1644,-1.4509,0.1969,0.0568,0.0211,-96.0,24.15,-29.85,6.73,0.22,-7.17,-0.0142,0.0622,0.0535,-45.6875,-8.375,56.5,53.625,42.5625,-178.25,0
1776971687.074,9.2512,-1.2186,-2.6336,0.0072,-0.0536,0.0226,149.1,1124.4,-1027.5,9.2751,2.1644,-1.4509,0.1969,0.0568,0.0211,-96.0,24.15,-29.85,6.73,0.22,-7.17,-0.0142,0.0622,0.0535,-45.6875,-8.375,56.5,53.625,42.5625,-178.25,0
1776971687.079,9.2512,-1.2186,-2.6336,0.0072,-0.0536,0.0226,149.4,1123.95,-1027.2,9.3374,2.071,-1.4892,0.1916,0.057,0.0368,-96.0,24.15,-30.6,6.77,-0.16,-7.36,-0.0524,0.0425,0.0545,-44.875,-8.0,57.375,53.625,42.5625,-178.25,0
1776971687.084,9.2249,-1.1971,-2.6456,-0.0101,-0.033,0.0213,149.4,1123.95,-1027.2,9.3374,2.071,-1.4892,0.1916,0.057,0.0368,-96.0,24.15,-30.6,6.77,-0.16,-7.36,-0.0524,0.0425,0.0545,-44.875,-8.0,57.375,53.625,42.5625,-178.25,0
1776971687.088,9.2249,-1.1971,-2.6456,-0.0101,-0.033,0.0213,149.4,1123.65,-1025.4,9.3326,2.0782,-1.4485,0.1724,0.0517,0.0472,-94.8,23.4,-30.6,6.77,-0.16,-7.36,-0.0807,0.0284,0.0665,-44.875,-8.0,57.375,53.6875,42.625,-178.25,0
1776971687.094,9.2488,-1.075,-2.4469,-0.0253,-0.0123,0.0168,149.4,1123.65,-1025.4,9.3326,2.0782,-1.4485,0.1724,0.0517,0.0472,-94.8,23.4,-30.6,6.73,0.86,-7.13,-0.0807,0.0284,0.0665,-44.875,-8.0,57.375,53.6875,42.625,-178.25,0
1776971687.098,9.2488,-1.075,-2.4469,-0.0253,-0.0123,0.0168,150.3,1122.75,-1024.8,9.3134,2.0446,-1.4341,0.1511,0.0461,0.0552,-95.85,22.8,-29.7,6.73,0.86,-7.13,-0.0415,0.0065,0.0611,-44.875,-8.0,57.375,53.75,42.625,-178.25,0
1776971687.104,9.3063,-0.9673,-2.5426,-0.0573,0.004,0.0008,150.3,1122.75,-1024.8,9.3134,2.0446,-1.4341,0.1511,0.0461,0.0552,-95.85,22.8,-29.7,6.72,0.4,-7.3,-0.0415,0.0065,0.0611,-44.875,-8.0,57.375,53.75,42.625,-178.25,0
1776971687.113,9.4619,-0.8619,-2.7126,-0.0719,0.0045,-0.0101,148.65,1123.65,-1024.35,9.3182,2.1308,-1.4581,0.1295,0.0434,0.0669,-96.15,24.45,-30.45,6.61,0.04,-7.23,-0.024,-0.0076,0.0535,-44.875,-8.0,57.375,53.75,42.625,-178.25,0
1776971687.117,9.4619,-0.8619,-2.7126,-0.0719,0.0045,-0.0101,148.65,1123.65,-1024.35,9.2512,2.1859,-1.4581,0.1127,0.0437,0.0773,-96.15,24.45,-30.45,6.61,0.04,-7.23,-0.0273,-0.0065,0.0393,-44.875,-8.0,57.375,53.8125,42.625,-178.25,0
1776971687.124,9.4954,-0.7398,-2.5139,-0.06,0.0093,-0.0069,148.65,1123.65,-1024.35,9.2512,2.1859,-1.4581,0.1127,0.0437,0.0773,-95.85,23.55,-30.15,6.6,0.29,-7.23,-0.0273,-0.0065,0.0393,-44.875,-8.0,57.375,53.8125,42.625,-178.25,0
1776971687.129,9.4954,-0.7398,-2.5139,-0.06,0.0093,-0.0069,149.1,1124.4,-1026.15,9.3254,2.1572,-1.5275,0.0965,0.0384,0.085,-97.2,23.85,-29.85,6.56,0.2,-7.3,-0.0131,-0.0087,0.0218,-46.0625,-8.375,57.25,53.8125,42.625,-178.25,0
1776971687.134,9.517,-0.6273,-2.4181,-0.0258,0.0085,-0.0088,149.1,1124.4,-1026.15,9.3254,2.1572,-1.5275,0.0965,0.0384,0.085,-97.2,23.85,-29.85,6.56,0.2,-7.3,-0.0131,-0.0087,0.0218,-46.0625,-8.375,57.25,53.8125,42.625,-178.25,0
1776971687.143,9.5241,-0.4693,-2.4157,0.0077,0.0043,-0.0107,149.4,1121.7,-1027.2,9.3302,2.241,-1.5586,0.093,0.0389,0.0911,-97.2,23.85,-29.85,6.61,0.19,-7.26,-0.0044,-0.0087,0.0044,-46.0625,-8.375,57.25,53.8125,42.625,-178.25,0
1776971687.15,9.5864,-0.5818,-2.4014,0.045,-0.0008,-0.0075,147.9,1123.65,-1025.7,9.3134,2.3487,-1.5203,0.0805,0.0325,0.0893,-96.0,24.6,-31.05,6.59,0.18,-7.28,0.0022,-0.0022,-0.012,-46.0625,-8.375,57.25,53.8125,42.625,-178.25,0
1776971687.155,9.5864,-0.5818,-2.4014,0.045,-0.0008,-0.0075,147.9,1123.65,-1025.7,9.3422,2.3559,-1.5179,0.0805,0.0325,0.0893,-96.0,24.6,-31.05,6.59,0.18,-7.28,0.0022,-0.0022,-0.012,-46.0625,-8.375,57.25,53.8125,42.625,-178.25,0
1776971687.163,9.6175,-0.6009,-2.2458,0.0781,0.0011,-0.0019,150.0,1123.5,-1027.35,9.3422,2.3559,-1.5179,0.0719,0.0248,0.0946,-96.0,24.6,-31.05,6.61,0.19,-7.28,0.0065,-0.0022,-0.024,-46.0625,-8.375,57.25,53.8125,42.625,-178.25,0
1776971687.172,9.56,-0.7374,-2.2075,0.0898,0.0035,0.0163,149.55,1121.55,-1025.25,9.3158,2.4636,-1.561,0.0682,0.0266,0.0863,-96.6,24.0,-31.2,6.65,0.25,-7.25,0.0044,-0.0055,-0.0251,-46.0625,-8.375,57.25,53.75,42.625,-178.1875,0
1776971687.176,9.56,-0.7374,-2.2075,0.0898,0.0035,0.0163,149.55,1121.55,-1025.25,9.256,2.5139,-1.5227,0.0669,0.0248,0.0751,-96.6,24.0,-31.2,6.65,0.25,-7.25,0.0044,-0.0055,-0.0251,-46.375,-8.0,56.875,53.75,42.625,-178.1875,0
1776971687.183,9.6055,-0.8978,-2.0542,0.0879,0.0101,0.0256,149.55,1121.55,-1025.25,9.2344,2.5307,-1.4676,0.0669,0.0248,0.0751,-96.6,23.55,-30.15,6.64,0.23,-7.26,0.0044,-0.0098,-0.0218,-46.375,-8.0,56.875,53.75,42.625,-178.1875,0
1776971687.192,9.5984,-1.0199,-2.1811,0.0717,0.0133,0.0248,150.0,1122.0,-1026.0,9.2344,2.5307,-1.4676,0.064,0.0221,0.0757,-97.5,22.65,-29.55,6.6,0.23,-7.29,0.0011,-0.0109,-0.0218,-46.375,-8.0,56.875,53.75,42.625,-178.1875,0
1776971687.197,9.5984,-1.0199,-2.1811,0.0717,0.0133,0.0248,147.75,1122.0,-1027.05,9.3039,2.4732,-1.3695,0.0592,0.0155,0.0613,-97.5,22.65,-29.55,6.6,0.23,-7.29,0.0011,-0.0109,-0.0218,-46.375,-8.0,56.875,53.75,42.625,-178.1875,0
1776971687.204,9.6917,-1.087,-2.071,0.0658,0.0128,0.0264,147.75,1122.0,-1027.05,9.3494,2.5067,-1.324,0.0504,0.0056,0.0557,-96.6,23.25,-31.2,6.55,0.22,-7.3,0.0033,-0.0065,-0.0185,-46.375,-8.0,56.875,53.75,42.625,-178.1875,0
1776971687.213,9.7492,-1.0391,-1.8076,0.0349,0.0354,0.0213,150.15,1124.7,-1026.45,9.3805,2.6073,-1.336,0.045,-0.0005,0.041,-95.85,24.0,-31.2,6.43,0.17,-7.36,0.0033,0.012,-0.0153,-46.375,-8.0,56.875,53.75,42.625,-178.1875,0
1776971687.219,9.8761,-0.929,-1.743,-0.0163,0.0402,0.0099,149.55,1125.0,-1026.6,9.3805,2.6073,-1.336,0.045,-0.0005,0.041,-96.75,23.4,-30.6,6.43,0.17,-7.36,0.0022,0.0382,-0.0153,-46.375,-8.0,56.875,53.75,42.625,-178.1875,0
1776971687.224,9.8761,-0.929,-1.743,-0.0163,0.0402,0.0099,149.55,1125.0,-1026.6,9.3733,2.6552,-1.3671,0.0333,-0.0029,0.0258,-96.75,23.4,-30.6,6.48,0.27,-7.35,0.0022,0.0382,-0.0153,-46.375,-8.0,56.875,53.75,42.625,-178.1875,0
1776971687.229,9.8857,-0.8212,-1.8459,-0.061,0.0354,0.0053,149.25,1124.55,-1027.05,9.3733,2.6552,-1.3671,0.0333,-0.0029,0.0258,-96.75,23.4,-30.6,6.48,0.27,-7.35,0.0022,0.0382,-0.0153,-46.0625,-8.0,55.6875,53.6875,42.625,-178.1875,0
1776971687.234,9.8857,-0.8212,-1.8459,-0.061,0.0354,0.0053,149.25,1124.55,-1027.05,9.4236,2.7294,-1.3575,0.0245,-0.0021,0.0139,-96.75,23.4,-30.6,6.6,0.23,-7.28,0.0022,0.0633,-0.0164,-46.0625,-8.0,55.6875,53.6875,42.625,-178.1875,0
1776971687.239,9.8138,-0.7326,-1.8842,-0.0741,0.0189,0.0048,149.25,1124.55,-1027.05,9.4236,2.7294,-1.3575,0.0245,-0.0021,0.0139,-96.75,23.4,-31.05,6.6,0.23,-7.28,0.0022,0.0633,-0.0164,-46.0625,-8.0,55.6875,53.6875,42.6875,-178.125,0
1776971687.244,9.8138,-0.7326,-1.8842,-0.0741,0.0189,0.0048,149.25,1124.55,-1027.05,9.3805,2.7246,-1.312,0.0179,0.0024,0.0024,-96.75,23.4,-31.05,6.59,0.27,-7.31,0.0,0.0753,-0.0164,-46.0625,-8.0,55.6875,53.6875,42.6875,-178.125,0
1776971687.249,9.8162,-0.6919,-1.9225,-0.0608,0.0011,0.0035,149.25,1122.3,-1026.3,9.3805,2.7246,-1.312,0.0179,0.0024,0.0024,-96.75,23.4,-31.05,6.59,0.27,-7.31,-0.0033,0.084,-0.0164,-46.0625,-8.0,55.6875,53.6875,42.75,-178.125,0
1776971687.254,9.8162,-0.6919,-1.9225,-0.0608,0.0011,0.0035,149.25,1122.3,-1026.3,9.3015,2.7773,-1.3024,0.0234,0.0008,-0.0061,-96.75,23.4,-31.05,6.6,0.29,-7.3,-0.0033,0.084,-0.0164,-46.0625,-8.0,55.6875,53.6875,42.75,-178.125,0
1776971687.263,9.7731,-0.668,-1.9489,-0.0309,-0.0093,0.0131,146.7,1123.5,-1028.4,9.2991,2.7294,-1.2905,0.0328,0.0021,-0.0165,-95.85,24.0,-31.65,6.58,0.26,-7.29,-0.0076,0.0927,-0.0109,-46.0625,-8.0,55.6875,53.6875,42.75,-178.125,0
1776971687.268,9.7659,-0.6536,-2.0973,-0.0032,-0.0266,0.0221,146.7,1123.8,-1027.35,9.2991,2.7294,-1.2905,0.0328,0.0021,-0.0165,-95.85,24.0,-31.65,6.58,0.26,-7.29,-0.0098,0.1047,-0.0055,-46.0625,-8.0,55.6875,53.6875,42.8125,-178.125,0
1776971687.274,9.7659,-0.6536,-2.0973,-0.0032,-0.0266,0.0221,148.2,1123.8,-1027.65,9.2991,2.7246,-1.3072,0.0362,0.0048,-0.0208,-97.5,22.95,-30.6,6.62,0.25,-7.29,-0.0098,0.1047,-0.0055,-46.0625,-8.0,55.6875,53.6875,42.8125,-178.125,0
1776971687.279,9.675,-0.668,-2.071,0.0192,-0.0373,0.0272,148.2,1123.8,-1027.65,9.2967,2.7318,-1.2833,0.0362,0.0048,-0.0208,-97.2,22.2,-30.3,6.62,0.25,-7.29,-0.012,0.1091,-0.0065,-46.75,-7.6875,56.875,53.6875,42.875,-178.125,0
1776971687.284,9.675,-0.668,-2.071,0.0192,-0.0373,0.0272,148.2,1124.25,-1027.05,9.2967,2.7318,-1.2833,0.0474,0.0043,-0.025,-97.2,22.2,-30.3,6.63,0.25,-7.29,-0.012,0.1091,-0.0065,-46.75,-7.6875,56.875,53.6875,42.875,-178.125,0
1776971687.289,9.6486,-0.759,-2.15,0.0328,-0.0386,0.0197,148.2,1124.25,-1027.05,9.3063,2.6624,-1.3096,0.0474,0.0043,-0.025,-97.2,22.2,-30.3,6.63,0.25,-7.29,-0.0164,0.1134,-0.0065,-46.75,-7.6875,56.875,53.6875,42.9375,-178.125,0
1776971687.294,9.6486,-0.759,-2.15,0.0381,-0.0453,0.024,148.2,1124.25,-1027.05,9.3063,2.6624,-1.3096,0.0517,0.0008,-0.0314,-96.75,22.65,-30.3,6.65,0.23,-7.25,-0.0164,0.1134,-0.0065,-46.75,-7.6875,56.875,53.6875,42.9375,-178.125,0
1776971687.299,9.663,-0.8452,-2.1739,0.0381,-0.0453,0.024,148.2,1124.25,-1027.05,9.2871,2.6049,-1.3527,0.0517,0.0008,-0.0314,-96.75,22.65,-30.3,6.65,0.23,-7.25,-0.0175,0.1254,-0.0109,-46.75,-7.6875,56.875,53.6875,43.0,-178.0625,0
1776971687.304,9.5361,-0.9768,-2.2601,0.0349,-0.0504,0.0229,148.65,1122.9,-1026.45,9.2871,2.6049,-1.3527,0.0538,0.0005,-0.0333,-97.35,23.55,-30.45,6.65,0.19,-7.25,-0.0175,0.1254,-0.0109,-46.75,-7.6875,56.875,53.6875,43.0,-178.0625,0
1776971687.313,9.5361,-0.9768,-2.2601,0.0349,-0.0504,0.0229,148.65,1122.9,-1026.45,9.2727,2.5474,-1.3838,0.06,0.0024,-0.0338,-97.5,22.65,-30.3,6.65,0.24,-7.19,-0.0207,0.1265,-0.012,-46.75,-7.6875,56.875,53.6875,43.0625,-178.0625,0
1776971687.318,9.4763,-0.9361,-2.308,0.0338,-0.0453,0.0189,148.35,1123.65,-1027.2,9.2727,2.3894,-1.3695,0.06,0.0024,-0.0338,-97.5,22.65,-30.3,6.65,0.24,-7.19,-0.0218,0.1265,-0.0142,-46.75,-7.6875,56.875,53.6875,43.125,-178.0625,0
1776971687.324,9.4619,-1.0199,-2.217,0.0173,-0.0258,0.0157,149.4,1122.45,-1027.2,9.2727,2.3894,-1.3695,0.0549,-0.0013,-0.033,-97.5,22.65,-30.3,6.62,0.19,-7.19,-0.0218,0.1265,-0.0142,-46.75,-7.6875,56.875,53.6875,43.125,-178.0625,0
1776971687.329,9.4619,-1.0199,-2.217,0.0173,-0.0258,0.0157,149.4,1122.45,-1027.2,9.323,2.3391,-1.3671,0.0408,-0.0013,-0.0381,-97.5,22.65,-30.3,6.66,0.24,-7.2,-0.024,0.1374,-0.0131,-46.0625,-8.0,56.0625,53.6875,43.25,-178.0,0
1776971687.334,9.5026,-1.0678,-2.2529,-0.0059,-0.0173,0.0187,148.5,1123.05,-1028.85,9.323,2.3391,-1.3671,0.0408,-0.0013,-0.0381,-96.0,23.85,-30.6,6.66,0.24,-7.2,-0.024,0.1374,-0.0131,-46.0625,-8.0,56.0625,53.6875,43.25,-178.0,0
1776971687.339,9.5026,-1.0678,-2.2529,-0.0059,-0.0173,0.0187,148.5,1123.05,-1028.85,9.3398,2.2721,-1.4198,0.0203,-0.0037,-0.036,-96.0,23.85,-30.6,6.66,0.24,-7.2,-0.0251,0.1484,-0.012,-46.0625,-8.0,56.0625,53.6875,43.3125,-178.0,0
1776971687.344,9.5744,-1.0151,-2.3607,-0.0357,-0.0109,0.0173,148.5,1124.25,-1027.35,9.3398,2.2721,-1.4198,0.0203,-0.0037,-0.036,-96.0,23.85,-30.6,6.69,0.26,-7.2,-0.0251,0.1484,-0.012,-46.0625,-8.0,56.0625,53.6875,43.3125,-178.0,0
1776971687.349,9.5744,-1.0151,-2.3607,-0.0357,-0.0109,0.0173,148.5,1124.25,-1027.35,9.3709,2.3128,-1.4533,-0.0187,-0.0091,-0.041,-96.0,23.85,-30.6,6.69,0.26,-7.2,-0.0251,0.1494,-0.0164,-46.0625,-8.0,56.0625,53.6875,43.375,-178.0,0
1776971687.354,9.4858,-1.0127,-2.3535,-0.0594,-0.0139,0.0211,148.5,1124.25,-1027.35,9.3709,2.3128,-1.4533,-0.0187,-0.0091,-0.041,-97.65,24.0,-31.95,6.76,0.25,-7.18,-0.0251,0.1494,-0.0164,-46.0625,-8.0,56.0625,53.6875,43.375,-178.0,0
1776971687.363,9.4379,-1.0343,-2.32,-0.061,-0.016,0.0195,149.25,1122.75,-1028.4,9.256,2.296,-1.4413,-0.0402,-0.0104,-0.0349,-98.25,22.95,-31.05,6.79,0.25,-7.16,-0.0207,0.1462,-0.0153,-46.0625,-8.0,56.0625,53.6875,43.4375,-177.9375,0
1776971687.368,9.4379,-1.0343,-2.32,-0.061,-0.016,0.0195,149.25,1122.75,-1028.4,9.2225,2.3511,-1.5179,-0.0613,-0.0045,-0.0338,-98.25,22.95,-31.05,6.79,0.25,-7.16,-0.0218,0.1407,-0.0175,-46.0625,-8.0,56.0625,53.6875,43.5625,-177.9375,0
1776971687.374,9.3637,-1.0487,-2.3296,-0.0554,-0.0059,0.0277,147.9,1122.15,-1026.75,9.2225,2.3511,-1.5179,-0.0613,-0.0045,-0.0338,-96.15,23.25,-30.45,6.82,0.27,-7.11,-0.0218,0.1407,-0.0175,-46.0625,-8.0,56.0625,53.6875,43.5625,-177.9375,0
1776971687.379,9.3637,-1.0487,-2.3296,-0.0554,-0.0059,0.0277,147.9,1122.15,-1026.75,9.2033,2.3966,-1.4461,-0.069,-0.0091,-0.0328,-96.15,23.25,-30.45,6.82,0.27,-7.11,-0.0218,0.1407,-0.0175,-46.375,-8.0,56.0625,53.6875,43.625,-177.9375,0
1776971687.384,9.3518,-1.0223,-2.3822,-0.0554,-0.0128,0.0338,146.1,1122.45,-1026.75,9.2033,2.3966,-1.4461,-0.069,-0.0091,-0.0328,-97.2,23.4,-31.05,6.83,0.28,-7.1,-0.0196,0.1287,-0.012,-46.375,-8.0,56.0625,53.6875,43.625,-177.9375,0
1776971687.389,9.3518,-1.0223,-2.3822,-0.0554,-0.0128,0.0338,146.1,1122.45,-1026.75,9.1794,2.3798,-1.4485,-0.0719,-0.0109,-0.0309,-97.2,23.4,-31.05,6.83,0.28,-7.1,-0.0196,0.1287,-0.012,-46.375,-8.0,56.0625,53.625,43.6875,-177.875,0
1776971687.394,9.3302,-1.0271,-2.3966,-0.0453,-0.0123,0.0376,149.25,1122.3,-1027.65,9.1794,2.3798,-1.4485,-0.0719,-0.0109,-0.0309,-96.3,22.2,-29.55,6.84,0.24,-7.06,-0.0207,0.1178,-0.012,-46.375,-8.0,56.0625,53.625,43.6875,-177.875,0
1776971687.399,9.3302,-1.0271,-2.3966,-0.0453,-0.0123,0.0376,149.25,1122.3,-1027.65,9.2177,2.4134,-1.3934,-0.06,-0.0157,-0.0288,-96.3,22.2,-29.55,6.84,0.24,-7.06,-0.0185,0.0993,-0.0087,-46.375,-8.0,56.0625,53.6875,43.75,-177.875,0
1776971687.404,9.3254,-1.0534,-2.3559,-0.0418,-0.008,0.0344,149.25,1122.3,-1027.65,9.2033,2.3487,-1.3862,-0.06,-0.0157,-0.0288,-97.5,24.15,-30.6,6.85,0.24,-7.06,-0.0185,0.0993,-0.0087,-46.375,-8.0,56.0625,53.6875,43.75,-177.875,0
1776971687.413,9.3182,-1.1277,-2.308,-0.037,-0.0011,0.0405,149.25,1122.3,-1027.65,9.2033,2.3487,-1.3862,-0.0501,-0.0123,-0.0264,-97.5,24.15,-30.6,6.87,0.27,-7.06,-0.0273,0.0905,-0.0044,-46.375,-8.0,56.0625,53.6875,43.8125,-177.875,0
1776971687.418,9.3182,-1.1277,-2.308,-0.037,-0.0011,0.0405,149.25,1122.3,-1027.65,9.2081,2.3774,-1.4198,-0.0328,-0.0125,-0.0274,-97.5,24.15,-30.6,6.87,0.27,-7.06,-0.0371,0.0764,0.0033,-46.375,-8.0,56.0625,53.6875,43.8125,-177.8125,0
1776971687.425,9.3925,-1.1732,-2.3032,-0.0384,0.0093,0.0434,148.65,1122.45,-1027.5,9.2368,2.3176,-1.4246,-0.0237,-0.0045,-0.0304,-96.15,23.55,-30.15,6.88,0.4,-7.05,-0.0371,0.0764,0.0033,-46.375,-8.0,56.0625,53.6875,43.8125,-177.8125,0
1776971687.43,9.3326,-1.0726,-2.3679,-0.04,0.0197,0.04,148.65,1122.45,-1027.5,9.2368,2.3176,-1.4246,-0.0237,-0.0045,-0.0304,-96.15,23.55,-30.15,6.88,0.4,-7.05,-0.0284,0.0589,0.0109,-47.5,-9.0625,55.25,53.6875,43.875,-177.8125,0
1776971687.434,9.3326,-1.0726,-2.3679,-0.04,0.0197,0.04,148.35,1122.45,-1026.75,9.2512,2.2793,-1.4054,-0.0258,-0.0008,-0.0221,-96.15,23.55,-30.15,6.83,0.3,-7.06,-0.0284,0.0589,0.0109,-47.5,-9.0625,55.25,53.6875,43.875,-177.8125,0
1776971687.439,9.402,-1.0487,-2.3703,-0.0544,0.0099,0.0325,148.35,1122.45,-1026.75,9.2512,2.2793,-1.4054,-0.0258,-0.0008,-0.0221,-96.15,23.55,-30.15,6.83,0.3,-7.06,-0.0284,0.0589,0.0109,-47.5,-9.0625,55.25,53.6875,43.875,-177.8125,0
1776971687.444,9.402,-1.0487,-2.3703,-0.0544,0.0099,0.0325,149.4,1122.45,-1027.95,9.2273,2.3152,-1.3336,-0.0266,-0.0013,-0.0261,-96.15,23.55,-30.9,6.81,0.22,-7.07,-0.024,0.048,0.0164,-47.5,-9.0625,55.25,53.6875,43.875,-177.8125,0
1776971687.449,9.4882,-0.9553,-2.3104,-0.0637,0.0109,0.033,149.4,1122.45,-1027.95,9.2273,2.3152,-1.3336,-0.0266,-0.0013,-0.0261,-96.15,23.55,-30.9,6.81,0.22,-7.07,-0.0207,0.0404,0.0175,-47.5,-9.0625,55.25,53.6875,43.9375,-177.8125,0
1776971687.454,9.4882,-0.9553,-2.3104,-0.0637,0.0109,0.033,148.2,1123.5,-1028.4,9.2584,2.2984,-1.3001,-0.0248,0.0024,-0.0277,-95.4,22.8,-30.45,6.82,0.29,-7.09,-0.0207,0.0404,0.0175,-47.5,-9.0625,55.25,53.75,43.9375,-177.8125,0
1776971687.464,9.5122,-0.9457,-2.2625,-0.0592,0.0101,0.028,148.2,1123.5,-1028.4,9.2584,2.2601,-1.2617,-0.0402,0.0005,-0.0242,-95.85,24.75,-31.2,6.8,0.24,-7.08,-0.0175,0.0371,0.0164,-47.5,-9.0625,55.25,53.75,43.9375,-177.8125,0
1776971687.472,9.4739,-0.8356,-2.2386,-0.045,0.0149,0.0298,148.2,1123.5,-1028.4,9.3063,2.3607,-1.3288,-0.0402,0.0005,-0.0242,-96.3,24.6,-30.3,6.8,0.24,-7.09,-0.0142,0.0295,0.0142,-47.5,-9.0625,55.25,53.75,43.9375,-177.8125,0
1776971687.477,9.4739,-0.8356,-2.2386,-0.045,0.0149,0.0298,148.2,1123.5,-1028.4,9.3063,2.3607,-1.3288,-0.0482,-0.0083,-0.0256,-96.3,24.6,-30.3,6.8,0.24,-7.09,-0.0142,0.0295,0.0142,-47.5,-9.0625,55.25,53.75,43.9375,-177.8125,0
1776971687.482,9.4834,-0.8667,-2.3008,-0.0357,0.0115,0.0304,147.75,1122.75,-1028.1,9.3374,2.4134,-1.3599,-0.0482,-0.0083,-0.0256,-96.3,24.15,-31.05,6.81,0.26,-7.1,-0.012,0.0284,0.0109,-48.25,-7.6875,55.25,53.75,43.9375,-177.8125,0
1776971687.486,9.4834,-0.8667,-2.3008,-0.0357,0.0115,0.0304,147.75,1122.75,-1028.1,9.3374,2.4134,-1.3599,-0.0605,-0.0099,-0.0304,-96.3,24.15,-31.05,6.81,0.26,-7.1,-0.012,0.0284,0.0109,-48.25,-7.6875,55.25,53.75,43.9375,-177.8125,0
1776971687.491,9.5529,-0.9625,-2.3272,-0.0245,0.0131,0.0362,148.35,1123.95,-1027.95,9.2871,2.4157,-1.3072,-0.0605,-0.0099,-0.0304,-97.35,24.0,-30.15,6.8,0.28,-7.1,-0.0098,0.0262,0.0065,-48.25,-7.6875,55.25,53.75,44.0,-177.8125,0
1776971687.496,9.5529,-0.9625,-2.3272,-0.0245,0.0131,0.0362,148.35,1123.95,-1027.95,9.2871,2.4157,-1.3072,-0.0743,-0.0157,-0.0354,-97.35,24.0,-30.15,6.8,0.28,-7.1,-0.0098,0.0262,0.0065,-48.25,-7.6875,55.25,53.75,44.0,-177.8125,0
1776971687.504,9.4858,-0.9625,-2.3583,-0.0141,0.0144,0.0301,148.8,1123.8,-1028.4,9.3326,2.4636,-1.2905,-0.0714,-0.0141,-0.0336,-97.35,24.0,-30.15,6.78,0.26,-7.12,-0.0076,0.0251,0.0044,-48.25,-7.6875,55.25,53.75,44.0,-177.8125,0
1776971687.513,9.5313,-0.9816,-2.3391,-0.0141,0.0184,0.0304,149.25,1122.3,-1027.35,9.3039,2.5379,-1.2737,-0.0762,-0.0147,-0.036,-95.85,24.45,-30.15,6.79,0.29,-7.12,-0.0087,0.0207,0.0022,-48.25,-7.6875,55.25,53.75,44.0,-177.8125,0
1776971687.518,9.5361,-1.0918,-2.3463,-0.0104,0.0165,0.0312,149.25,1122.3,-1027.35,9.3039,2.5379,-1.2737,-0.0762,-0.0147,-0.036,-95.85,24.45,-30.15,6.79,0.29,-7.12,-0.0076,0.0229,0.0011,-48.25,-7.6875,55.25,53.75,44.0,-177.8125,0
1776971687.525,9.5361,-1.0918,-2.3463,-0.0104,0.0165,0.0312,149.25,1122.3,-1027.35,9.2895,2.5786,-1.2665,-0.0895,-0.0096,-0.0368,-95.85,24.45,-30.15,6.8,0.26,-7.08,-0.0076,0.0229,0.0011,-48.25,-7.6875,55.25,53.75,44.0,-177.8125,0
1776971687.529,9.5074,-1.087,-2.3439,-0.0213,0.016,0.0266,149.25,1122.3,-1027.35,9.2847,2.5905,-1.3216,-0.0895,-0.0096,-0.0368,-95.85,24.45,-30.15,6.8,0.26,-7.08,-0.0055,0.0218,0.0,-48.25,-8.6875,56.0625,53.75,44.0,-177.8125,0
1776971687.535,9.5074,-1.087,-2.3439,-0.0213,0.016,0.0266,147.9,1122.9,-1028.25,9.2847,2.5905,-1.3216,-0.0871,-0.0096,-0.0352,-97.2,23.85,-31.05,6.8,0.26,-7.08,-0.0055,0.0218,0.0,-48.25,-8.6875,56.0625,53.75,44.0,-177.8125,0
1776971687.543,9.5002,-1.0989,-2.2146,-0.025,0.0226,0.0189,149.4,1122.45,-1027.5,9.2608,2.5881,-1.3264,-0.0815,-0.0048,-0.0336,-96.9,25.2,-31.95,6.79,0.22,-7.05,-0.0044,0.0251,0.0011,-48.25,-8.6875,56.0625,53.75,44.0625,-177.8125,0
1776971687.551,9.5361,-1.0774,-2.1644,-0.0352,0.0312,0.0195,148.8,1123.05,-1028.4,9.2536,2.6145,-1.2737,-0.0805,-0.0051,-0.0304,-96.9,25.2,-31.95,6.78,0.27,-7.13,-0.0055,0.0262,-0.0033,-48.25,-8.6875,56.0625,53.75,44.0625,-177.8125,0
1776971687.556,9.5792,-1.0415,-2.2386,-0.0365,0.0264,0.0141,148.8,1123.05,-1028.4,9.2536,2.6145,-1.2737,-0.0805,-0.0051,-0.0304,-96.9,25.2,-30.9,6.78,0.27,-7.13,-0.0055,0.0262,-0.0033,-48.25,-8.6875,56.0625,53.75,44.0625,-177.8125,0
1776971687.564,9.5792,-1.0415,-2.2386,-0.0365,0.0264,0.0141,148.8,1123.05,-1027.65,9.2799,2.5977,-1.2809,-0.0653,-0.0083,-0.0314,-97.2,25.05,-31.05,6.82,0.26,-7.1,-0.0033,0.0316,-0.0033,-48.25,-8.6875,56.0625,53.75,44.0625,-177.8125,0
1776971687.571,9.584,-1.0199,-2.2458,-0.0389,0.0184,0.0133,148.2,1123.8,-1028.4,9.2823,2.6097,-1.3288,-0.0554,-0.0101,-0.0402,-97.2,25.05,-31.05,6.83,0.26,-7.07,-0.0033,0.0338,-0.0055,-48.25,-8.6875,56.0625,53.75,44.0625,-177.8125,0
1776971687.575,9.5361,-0.9385,-2.2817,-0.0408,0.0133,0.0128,148.2,1123.8,-1028.4,9.2823,2.6097,-1.3288,-0.0554,-0.0101,-0.0402,-95.55,24.15,-31.05,6.83,0.26,-7.07,-0.0033,0.0338,-0.0055,-48.25,-8.6875,56.0625,53.75,44.0625,-177.8125,0
1776971687.58,9.5361,-0.9385,-2.2817,-0.0408,0.0133,0.0128,148.2,1123.8,-1028.4,9.3254,2.6049,-1.3503,-0.0557,-0.0136,-0.0322,-95.55,24.15,-31.05,6.83,0.3,-7.09,-0.0033,0.0284,-0.0033,-47.0625,-8.375,54.875,53.75,44.125,-177.8125,0
1776971687.585,9.5361,-1.0439,-2.3008,-0.0437,0.0088,0.0109,148.2,1123.8,-1028.4,9.3254,2.6049,-1.3503,-0.0557,-0.0136,-0.0322,-96.0,24.15,-31.35,6.83,0.3,-7.09,-0.0033,0.0284,-0.0033,-47.0625,-8.375,54.875,53.75,44.125,-177.8125,0
1776971687.59,9.5361,-1.0439,-2.3008,-0.0437,0.0088,0.0109,147.6,1121.7,-1028.25,9.3254,2.636,-1.3671,-0.0586,-0.0051,-0.0349,-96.0,24.15,-31.35,6.83,0.3,-7.09,-0.0033,0.0284,-0.0033,-47.0625,-8.375,54.875,53.75,44.125,-177.8125,0
1776971687.595,9.5409,-1.0151,-2.3679,-0.0365,0.0096,0.0139,147.6,1121.7,-1028.25,9.3254,2.636,-1.3671,-0.0586,-0.0051,-0.0349,-96.0,24.15,-31.35,6.83,0.28,-7.07,-0.0033,0.0284,-0.0033,-47.0625,-8.375,54.875,53.75,44.125,-177.8125,0
1776971687.6,9.5409,-1.0151,-2.3679,-0.0365,0.0096,0.0139,147.45,1122.3,-1028.1,9.2895,2.569,-1.2881,-0.0658,-0.0091,-0.0336,-96.0,24.15,-31.35,6.83,0.28,-7.07,-0.0022,0.0284,0.0044,-47.0625,-8.375,54.875,53.75,44.125,-177.8125,0
1776971687.605,9.493,-1.0654,-2.3894,-0.0357,0.0139,0.0125,147.45,1122.3,-1028.1,9.2895,2.569,-1.2881,-0.0658,-0.0091,-0.0336,-96.75,23.4,-31.35,6.85,0.28,-7.11,-0.0022,0.0284,0.0044,-47.0625,-8.375,54.875,53.75,44.125,-177.8125,0
1776971687.614,9.3709,-1.0415,-2.4086,-0.0392,0.0157,0.0109,148.8,1122.3,-1028.4,9.2727,2.5594,-1.3408,-0.0655,-0.0093,-0.0349,-96.75,23.4,-31.35,6.85,0.25,-7.06,0.0,0.0164,0.0076,-47.0625,-8.375,54.875,53.75,44.125,-177.8125,0
1776971687.622,9.3709,-1.0415,-2.4086,-0.0392,0.0157,0.0109,148.65,1122.9,-1028.55,9.256,2.5426,-1.2641,-0.0661,-0.0112,-0.025,-96.0,22.65,-31.35,6.84,0.21,-7.05,0.0,0.0142,0.0087,-47.0625,-8.375,54.875,53.75,44.125,-177.8125,0
1776971687.627,9.3877,-0.9936,-2.3798,-0.0333,0.0187,0.0069,148.65,1122.9,-1028.55,9.2727,2.5139,-1.2617,-0.0709,-0.0136,-0.0197,-96.0,22.65,-30.3,6.84,0.21,-7.05,0.0,0.0142,0.0087,-47.0625,-8.375,54.875,53.75,44.125,-177.8125,0
1776971687.632,9.3877,-0.9936,-2.3798,-0.0333,0.0187,0.0069,148.8,1121.25,-1028.85,9.2727,2.5139,-1.2617,-0.0709,-0.0136,-0.0197,-96.0,22.65,-30.3,6.84,0.22,-7.07,-0.0011,0.0098,0.0098,-48.5625,-8.375,55.25,53.75,44.125,-177.8125,0
1776971687.637,9.4595,-1.0247,-2.4062,-0.0298,0.0213,0.0029,148.8,1121.25,-1028.85,9.2632,2.5881,-1.324,-0.0695,-0.0187,-0.0115,-96.3,24.15,-31.8,6.84,0.22,-7.07,-0.0011,0.0098,0.0098,-48.5625,-8.375,55.25,53.75,44.125,-177.8125,0
1776971687.644,9.481,-1.0558,-2.4229,-0.0309,0.0293,0.0104,148.8,1121.25,-1028.85,9.335,2.5881,-1.3168,-0.0695,-0.0187,-0.0115,-95.55,25.05,-31.05,6.84,0.25,-7.04,-0.0044,0.0076,0.0076,-48.5625,-8.375,55.25,53.75,44.125,-177.8125,0
1776971687.654,9.4978,-1.0798,-2.4517,-0.0266,0.0346,0.0115,147.6,1123.65,-1028.25,9.3565,2.5522,-1.3455,-0.0663,-0.0269,-0.0141,-97.95,24.15,-31.35,6.85,0.3,-7.1,-0.0055,0.0044,0.0065,-48.5625,-8.375,55.25,53.75,44.125,-177.8125,0
1776971687.661,9.4978,-1.0798,-2.4517,-0.0266,0.0346,0.0115,150.15,1123.65,-1027.95,9.3565,2.5522,-1.3455,-0.0648,-0.0309,-0.0016,-97.95,24.15,-31.35,6.85,0.29,-7.07,-0.0044,0.0011,0.0076,-48.5625,-8.375,55.25,53.75,44.125,-177.8125,0
1776971687.666,9.4619,-1.1444,-2.4373,-0.0306,0.0445,0.0096,150.15,1123.65,-1027.95,9.3302,2.5259,-1.3216,-0.065,-0.0226,0.0021,-96.6,24.75,-30.45,6.85,0.29,-7.07,-0.0044,0.0011,0.0076,-48.5625,-8.375,55.25,53.75,44.125,-177.8125,0
1776971687.674,9.4523,-1.166,-2.4612,-0.032,0.0466,0.0053,148.2,1122.3,-1028.1,9.4236,2.66,-1.3575,-0.0725,-0.02,0.0096,-96.15,24.0,-31.95,6.84,0.26,-7.07,-0.0044,-0.0033,0.0087,-48.5625,-8.375,55.25,53.75,44.125,-177.8125,0
1776971687.679,9.4523,-1.166,-2.4612,-0.032,0.0466,0.0053,149.1,1122.9,-1027.95,9.4236,2.66,-1.3575,-0.0725,-0.02,0.0096,-96.15,24.0,-31.95,6.84,0.26,-7.07,-0.0065,-0.0076,0.0087,-47.5,-8.0,55.25,53.75,44.125,-177.8125,0
1776971687.685,9.4379,-1.1277,-2.4014,-0.0354,0.0456,-0.0027,149.1,1122.9,-1027.95,9.3613,2.5498,-1.324,-0.0749,-0.0101,0.0179,-96.15,24.0,-31.95,6.86,0.26,-7.07,-0.0065,-0.0076,0.0087,-47.5,-8.0,55.25,53.75,44.125,-177.8125,0
1776971687.694,9.4595,-1.0894,-2.4445,-0.0304,0.0509,-0.0029,148.2,1122.3,-1028.1,9.2536,2.5786,-1.391,-0.0695,-0.0059,0.0285,-96.6,23.25,-30.9,6.87,0.26,-7.05,-0.0065,-0.0109,0.0109,-47.5,-8.0,55.25,53.75,44.125,-177.8125,0
1776971687.701,9.3661,-1.0032,-2.3966,-0.041,0.048,-0.0101,148.2,1122.3,-1028.1,9.2536,2.5786,-1.391,-0.0695,-0.0059,0.0285,-96.6,23.25,-30.9,6.86,0.25,-7.07,-0.0065,-0.0207,0.0142,-47.5,-8.0,55.25,53.75,44.125,-177.8125,0
1776971687.705,9.3661,-1.0032,-2.3966,-0.041,0.048,-0.0101,148.2,1122.3,-1028.1,9.2871,2.5642,-1.3431,-0.0655,-0.0088,0.0389,-96.6,23.25,-30.9,6.86,0.25,-7.07,-0.0065,-0.0207,0.0142,-47.5,-8.0,55.25,53.75,44.125,-177.8125,0
1776971687.714,9.3901,-1.0463,-2.3559,-0.036,0.0613,-0.0096,147.6,1122.45,-1027.2,9.2201,2.5666,-1.3934,-0.0648,-0.0077,0.0432,-95.85,24.45,-29.4,6.85,0.26,-7.09,-0.0076,-0.0251,0.0131,-47.5,-8.0,55.25,53.75,44.125,-177.8125,0
1776971687.722,9.4188,-0.9529,-2.3559,-0.0304,0.064,-0.0088,146.85,1122.15,-1028.55,9.2081,2.569,-1.4006,-0.0626,-0.0104,0.0493,-95.85,24.45,-29.4,6.83,0.28,-7.08,-0.0044,-0.036,0.0109,-47.5,-8.0,55.25,53.75,44.125,-177.8125,0
1776971687.727,9.4188,-0.9529,-2.3559,-0.0304,0.064,-0.0088,147.3,1122.15,-1028.25,9.2081,2.569,-1.4006,-0.0626,-0.0104,0.0493,-97.2,24.6,-30.6,6.83,0.28,-7.08,-0.0044,-0.036,0.0109,-47.5,-8.0,55.25,53.75,44.125,-177.8125,0
1776971687.732,9.5217,-0.9912,-2.3535,-0.033,0.0693,-0.0128,147.3,1122.15,-1028.25,9.2584,2.5067,-1.4964,-0.0679,-0.0117,0.0472,-97.2,24.6,-30.6,6.83,0.29,-7.09,-0.0022,-0.0447,0.0109,-47.875,-8.375,55.6875,53.75,44.0625,-177.8125,0
1776971687.737,9.5217,-0.9912,-2.3535,-0.033,0.0693,-0.0128,147.75,1122.0,-1027.65,9.2584,2.5067,-1.4964,-0.0679,-0.0117,0.0472,-96.75,23.85,-29.55,6.83,0.29,-7.09,-0.0022,-0.0447,0.0109,-47.875,-8.375,55.6875,53.75,44.0625,-177.8125,0
1776971687.742,9.4786,-0.9888,-2.4038,-0.032,0.0714,-0.0075,147.75,1122.0,-1027.65,9.2153,2.4876,-1.4485,-0.0773,-0.0133,0.048,-96.75,23.85,-29.55,6.84,0.27,-7.06,0.0,-0.0469,0.0109,-47.875,-8.375,55.6875,53.75,44.0625,-177.875,0
1776971687.747,9.4786,-0.9888,-2.4038,-0.032,0.0714,-0.0075,149.1,1122.15,-1028.25,9.2153,2.4876,-1.4485,-0.0773,-0.0133,0.048,-96.0,24.6,-31.35,6.84,0.27,-7.06,0.0,-0.0469,0.0109,-47.875,-8.375,55.6875,53.75,44.0625,-177.875,0
1776971687.754,9.517,-0.9625,-2.3679,-0.0301,0.0727,-0.008,149.1,1122.15,-1028.25,9.2057,2.5235,-1.4054,-0.081,-0.0064,0.049,-96.15,24.75,-30.45,6.81,0.24,-7.1,-0.0022,-0.0524,0.0098,-47.875,-8.375,55.6875,53.75,44.0,-177.875,0
1776971687.759,9.5122,-0.905,-2.2697,-0.0213,0.0786,-0.0035,149.1,1122.15,-1028.25,9.177,2.5498,-1.4269,-0.081,-0.0064,0.049,-96.15,24.75,-30.45,6.81,0.24,-7.1,0.0044,-0.0589,0.0087,-47.875,-8.375,55.6875,53.8125,44.0,-177.875,0
1776971687.765,9.5122,-0.905,-2.2697,-0.0213,0.0786,-0.0035,149.1,1122.15,-1028.25,9.177,2.5498,-1.4269,-0.0871,-0.0163,0.0461,-95.1,24.45,-31.2,6.81,0.24,-7.09,0.0044,-0.0589,0.0087,-47.875,-8.375,55.6875,53.8125,44.0,-177.875,0
1776971687.774,9.4691,-0.9002,-2.2936,-0.0261,0.0727,-0.0051,148.35,1121.4,-1029.3,9.232,2.545,-1.3695,-0.0919,-0.0184,0.0485,-95.1,24.45,-31.2,6.82,0.24,-7.08,0.0022,-0.0578,0.0076,-47.875,-8.375,55.6875,53.8125,43.9375,-177.875,0
1776971687.779,9.5193,-0.8787,-2.2721,-0.0282,0.0762,-0.0043,147.3,1121.7,-1029.0,9.2201,2.6312,-1.4365,-0.0919,-0.0184,0.0485,-95.1,24.45,-31.2,6.82,0.24,-7.08,0.0022,-0.0578,0.0076,-47.875,-8.375,55.6875,53.8125,43.9375,-177.875,0
1776971687.784,9.5193,-0.8787,-2.2721,-0.0282,0.0762,-0.0043,147.3,1121.7,-1029.0,9.2201,2.6312,-1.4365,-0.0909,-0.0221,0.0448,-97.35,25.5,-30.9,6.76,0.22,-7.1,0.0044,-0.0644,0.0022,-47.875,-8.0,54.5625,53.8125,43.9375,-177.875,0
1776971687.789,9.5816,-0.8978,-2.2362,-0.0253,0.0738,-0.0016,147.3,1123.95,-1028.25,9.2105,2.6432,-1.415,-0.0909,-0.0221,0.0448,-97.35,25.5,-30.9,6.76,0.22,-7.1,0.0044,-0.0644,0.0022,-47.875,-8.0,54.5625,53.8125,43.875,-177.875,0
1776971687.794,9.5816,-0.8978,-2.2362,-0.0253,0.0738,-0.0016,147.3,1123.95,-1028.25,9.2105,2.6432,-1.415,-0.0962,-0.024,0.0402,-97.35,25.5,-30.9,6.75,0.24,-7.13,0.0055,-0.0622,0.0011,-47.875,-8.0,54.5625,53.8125,43.875,-177.875,0
1776971687.799,9.663,-0.8332,-2.1955,-0.0288,0.0754,-0.0021,147.6,1123.95,-1028.55,9.2703,2.6217,-1.3695,-0.0949,-0.0282,0.0386,-97.35,25.5,-30.9,6.75,0.24,-7.13,0.0044,-0.0611,-0.0022,-47.875,-8.0,54.5625,53.8125,43.875,-177.875,0
1776971687.805,9.663,-0.8332,-2.1955,-0.0288,0.0754,-0.0021,147.3,1120.95,-1028.25,9.2703,2.6217,-1.3695,-0.0949,-0.0282,0.0386,-96.15,25.5,-30.45,6.74,0.22,-7.13,0.0044,-0.0611,-0.0022,-47.875,-8.0,54.5625,53.8125,43.875,-177.875,0
1776971687.814,9.6678,-0.8499,-2.1524,-0.0373,0.0773,-0.0037,147.3,1120.95,-1028.25,9.3518,2.6887,-1.3623,-0.0986,-0.0277,0.0277,-96.15,25.5,-30.45,6.74,0.21,-7.15,0.0033,-0.0535,-0.0065,-47.875,-8.0,54.5625,53.8125,43.8125,-177.875,0
1776971687.819,9.6989,-0.9218,-2.0949,-0.0458,0.0751,-0.0019,147.3,1120.95,-1028.25,9.3015,2.6671,-1.3408,-0.0967,-0.0256,0.0293,-96.9,24.75,-31.2,6.74,0.21,-7.15,0.0,-0.0436,-0.0076,-47.875,-8.0,54.5625,53.8125,43.8125,-177.875,0
1776971687.825,9.6989,-0.9218,-2.0949,-0.0458,0.0751,-0.0019,147.45,1123.05,-1028.85,9.3015,2.6671,-1.3408,-0.0967,-0.0256,0.0293,-97.35,25.5,-31.2,6.73,0.26,-7.17,0.0,-0.0436,-0.0076,-47.875,-8.0,54.5625,53.8125,43.8125,-177.875,0
1776971687.83,9.742,-0.8906,-2.1189,-0.0456,0.0719,-0.0045,147.45,1123.05,-1028.85,9.3685,2.6863,-1.4078,-0.1005,-0.0226,0.0306,-97.35,25.5,-31.2,6.73,0.26,-7.17,-0.0022,-0.0338,-0.0055,-47.5,-8.6875,54.875,53.8125,43.75,-177.875,0
1776971687.835,9.742,-0.8906,-2.1189,-0.0456,0.0719,-0.0045,146.7,1123.8,-1027.05,9.3685,2.6863,-1.4078,-0.1005,-0.0226,0.0306,-96.9,24.0,-31.65,6.73,0.26,-7.16,-0.0022,-0.0338,-0.0055,-47.5,-8.6875,54.875,53.8125,43.75,-177.875,0
1776971687.84,9.6917,-0.8667,-2.1596,-0.0402,0.0629,-0.0019,146.7,1123.8,-1027.05,9.3111,2.7533,-1.3551,-0.1058,-0.0261,0.0203,-96.9,24.0,-31.65,6.73,0.26,-7.16,-0.0022,-0.0338,-0.0055,-47.5,-8.6875,54.875,53.8125,43.75,-177.875,0
1776971687.845,9.6917,-0.8667,-2.1596,-0.0402,0.0629,-0.0019,148.8,1123.05,-1028.4,9.3111,2.7533,-1.3551,-0.1058,-0.0261,0.0203,-96.3,23.85,-31.05,6.72,0.27,-7.14,-0.0011,-0.0229,-0.0076,-47.5,-8.6875,54.875,53.8125,43.75,-177.875,0
1776971687.85,9.6438,-0.8619,-2.1117,-0.0389,0.053,-0.0011,148.8,1123.05,-1028.4,9.2823,2.7318,-1.3934,-0.1047,-0.0253,0.012,-96.3,23.85,-31.05,6.72,0.27,-7.14,-0.0022,-0.0164,-0.0065,-47.5,-8.6875,54.875,53.8125,43.75,-177.875,0
1776971687.855,9.6414,-0.8739,-2.1332,-0.0312,0.0514,-0.0024,148.5,1122.3,-1027.05,9.2703,2.7222,-1.3695,-0.1047,-0.0253,0.012,-95.55,24.6,-31.05,6.73,0.24,-7.18,-0.0022,-0.0164,-0.0065,-47.5,-8.6875,54.875,53.8125,43.75,-177.875,0
1776971687.864,9.6414,-0.8739,-2.1332,-0.0312,0.0514,-0.0024,147.75,1122.3,-1027.65,9.2703,2.7222,-1.3695,-0.0975,-0.0261,0.0096,-95.55,24.6,-31.05,6.73,0.27,-7.17,-0.0055,-0.0044,-0.0055,-47.5,-8.6875,54.875,53.8125,43.75,-177.875,0
1776971687.872,9.5792,-0.9122,-2.1548,-0.0269,0.049,0.004,147.75,1122.3,-1027.65,9.268,2.6983,-1.3336,-0.097,-0.0221,0.0048,-95.55,24.6,-31.05,6.75,0.26,-7.16,-0.0044,0.0044,-0.0065,-47.5,-8.6875,54.875,53.8125,43.75,-177.875,0
1776971687.877,9.5912,-0.9098,-2.1763,-0.028,0.0525,0.0,147.75,1122.3,-1027.65,9.2033,2.6959,-1.3288,-0.0959,-0.0253,0.0061,-96.3,25.35,-31.35,6.75,0.26,-7.16,-0.0044,0.0044,-0.0065,-47.5,-8.6875,54.875,53.8125,43.75,-177.875,0
1776971687.882,9.5912,-0.9098,-2.1763,-0.028,0.0525,0.0,147.75,1122.3,-1027.65,9.2033,2.6959,-1.3288,-0.0959,-0.0253,0.0061,-96.3,25.35,-31.35,6.77,0.27,-7.13,-0.0044,0.0055,-0.0055,-47.5,-7.6875,55.6875,53.8125,43.75,-177.875,0
1776971687.887,9.5553,-0.9242,-2.1955,-0.0256,0.0485,0.0005,148.65,1122.9,-1027.2,9.2344,2.6815,-1.3791,-0.0943,-0.0218,0.0069,-96.3,25.35,-31.35,6.77,0.27,-7.13,-0.0044,0.0055,-0.0055,-47.5,-7.6875,55.6875,53.8125,43.75,-177.875,0
1776971687.895,9.5289,-0.9864,-2.229,-0.0288,0.0456,0.0059,147.6,1122.15,-1027.5,9.2273,2.66,-1.3072,-0.0943,-0.0218,0.0069,-96.15,26.4,-29.4,6.77,0.24,-7.12,-0.0065,0.0055,-0.0076,-47.5,-7.6875,55.6875,53.8125,43.75,-177.875,0
1776971687.904,9.4715,-1.0032,-2.1811,-0.0264,0.0501,0.0011,147.75,1123.05,-1026.6,9.2751,2.6145,-1.3671,-0.0837,-0.0274,-0.0011,-96.15,26.4,-29.4,6.79,0.26,-7.13,-0.0055,0.0055,-0.0076,-47.5,-7.6875,55.6875,53.8125,43.75,-177.875,0
1776971687.912,9.4715,-1.0032,-2.1811,-0.0264,0.0501,0.0011,147.75,1123.05,-1026.6,9.2751,2.6145,-1.3671,-0.0869,-0.0304,-0.0016,-96.15,24.45,-31.65,6.76,0.25,-7.16,-0.0055,0.0065,-0.0076,-47.5,-7.6875,55.6875,53.8125,43.75,-177.875,0
1776971687.917,9.5457,-1.0558,-2.1739,-0.0282,0.0501,0.0045,148.35,1121.4,-1029.3,9.1722,2.5786,-1.391,-0.0869,-0.0352,0.0,-94.65,26.4,-31.2,6.76,0.25,-7.16,-0.0055,0.0065,-0.0076,-47.5,-7.6875,55.6875,53.8125,43.75,-177.875,0
1776971687.925,9.5002,-1.0127,-2.2458,-0.0392,0.0522,0.0067,148.35,1121.4,-1029.3,9.1961,2.6073,-1.2761,-0.0909,-0.0272,0.0027,-94.65,26.4,-31.2,6.8,0.25,-7.12,-0.0065,0.0131,-0.0087,-47.5,-7.6875,55.6875,53.8125,43.75,-177.875,0
1776971687.93,9.5002,-1.0127,-2.2458,-0.0392,0.0522,0.0067,148.35,1121.4,-1029.3,9.1961,2.6073,-1.2761,-0.0909,-0.0272,0.0027,-96.9,25.2,-30.45,6.8,0.25,-7.12,-0.0065,0.0087,-0.0087,-47.875,-7.6875,55.25,53.8125,43.75,-177.875,0
1776971687.935,9.4188,-1.0271,-2.1691,-0.0381,0.0504,-0.0008,148.35,1121.4,-1029.3,9.244,2.5642,-1.3144,-0.0919,-0.0261,0.0056,-95.25,25.35,-31.8,6.78,0.25,-7.1,-0.0065,0.0087,-0.0087,-47.875,-7.6875,55.25,53.8125,43.75,-177.875,0
1776971687.945,9.4954,-1.0439,-2.1883,-0.0349,0.0493,-0.0037,147.0,1123.05,-1027.65,9.2368,2.6169,-1.2857,-0.0815,-0.0216,0.0067,-95.25,25.35,-31.8,6.8,0.25,-7.09,-0.0055,0.0065,-0.0087,-47.875,-7.6875,55.25,53.8125,43.75,-177.875,0
1776971687.954,9.4786,-0.9888,-2.2697,-0.0301,0.0405,-0.0027,147.3,1123.2,-1027.5,9.2368,2.5809,-1.2953,-0.0711,-0.0293,0.0093,-95.25,24.6,-31.35,6.8,0.28,-7.12,-0.0033,0.0022,-0.0098,-47.875,-7.6875,55.25,53.8125,43.75,-177.875,0
1776971687.964,9.4523,-1.0319,-2.2721,-0.0237,0.0437,0.0005,148.65,1120.95,-1027.2,9.2656,2.6312,-1.2186,-0.0637,-0.0288,0.0131,-95.25,24.6,-31.35,6.81,0.3,-7.08,-0.0033,-0.0076,-0.0065,-47.875,-7.6875,55.25,53.8125,43.75,-177.875,0
1776971687.973,9.4236,-1.0678,-2.308,-0.0189,0.0466,-0.0043,146.1,1122.9,-1026.75,9.2703,2.5953,-1.2186,-0.0557,-0.0341,0.0192,-96.6,24.0,-30.15,6.83,0.29,-7.09,0.0011,-0.0142,-0.0055,-47.875,-7.6875,55.25,53.8125,43.75,-177.875,0
1776971687.978,9.4236,-1.0678,-2.308,-0.0189,0.0466,-0.0043,146.1,1122.9,-1026.75,9.2703,2.5953,-1.2186,-0.0557,-0.0341,0.0192,-96.6,24.0,-30.15,6.83,0.29,-7.09,0.0011,-0.0142,-0.0055,-47.875,-7.6875,55.25,53.8125,43.75,-177.875,0
1776971687.983,9.3901,-1.0846,-2.2338,-0.0187,0.0424,-0.0085,146.1,1122.9,-1026.75,9.2656,2.5474,-1.1851,-0.0464,-0.0234,0.0346,-96.6,24.0,-30.15,6.83,0.3,-7.1,0.0,-0.0262,-0.0044,-47.5,-8.0,56.0625,53.8125,43.75,-177.875,0
1776971687.988,9.3901,-1.0846,-2.2338,-0.0187,0.0424,-0.0085,146.1,1122.9,-1026.75,9.2656,2.5474,-1.1851,-0.0464,-0.0234,0.0346,-95.55,25.05,-31.8,6.83,0.3,-7.1,0.0,-0.0262,-0.0044,-47.5,-8.0,56.0625,53.8125,43.75,-177.875,0
1776971687.993,9.4044,-1.0798,-2.3391,-0.0229,0.0429,-0.0032,146.1,1122.9,-1026.75,9.2153,2.5283,-1.233,-0.0365,-0.025,0.0322,-95.55,25.05,-31.8,6.85,0.27,-7.08,0.0,-0.0327,-0.0022,-47.5,-8.0,56.0625,53.8125,43.6875,-177.875,0
1776971687.997,9.4044,-1.0798,-2.3391,-0.0229,0.0429,-0.0032,146.1,1122.9,-1026.75,9.2153,2.5283,-1.233,-0.0365,-0.025,0.0322,-95.4,24.75,-30.9,6.85,0.27,-7.08,0.0,-0.0327,-0.0022,-47.5,-8.0,56.0625,53.8125,43.6875,-177.875,0
1776971688.005,9.3182,-1.0702,-2.2601,-0.0216,0.0368,-0.0104,148.35,1121.7,-1027.95,9.1985,2.557,-1.2067,-0.0336,-0.0152,0.0378,-95.4,24.75,-30.9,6.84,0.27,-7.12,0.0055,-0.0436,0.0011,-47.5,-8.0,56.0625,53.8125,43.625,-177.875,0
1776971688.015,9.335,-1.1037,-2.2194,-0.0197,0.0464,-0.0085,148.2,1122.75,-1026.6,9.1028,2.6073,-1.2258,-0.0205,-0.0112,0.0453,-95.85,24.75,-30.45,6.87,0.27,-7.13,0.0076,-0.06,0.0011,-47.5,-8.0,56.0625,53.8125,43.625,-177.875,0
1776971688.023,9.3709,-1.0726,-2.2098,-0.0141,0.0509,-0.0125,147.3,1122.45,-1027.5,9.153,2.557,-1.2139,-0.0029,-0.0048,0.0461,-95.85,24.75,-30.9,6.84,0.31,-7.08,0.0098,-0.0742,0.0055,-47.5,-8.0,56.0625,53.8125,43.625,-177.875,0
1776971688.028,9.3709,-1.0726,-2.2098,-0.0141,0.0509,-0.0125,147.3,1122.45,-1027.5,9.153,2.557,-1.2139,-0.0029,-0.0048,0.0461,-96.0,25.35,-31.35,6.84,0.31,-7.08,0.0098,-0.0742,0.0055,-47.5,-8.0,56.0625,53.8125,43.625,-177.875,0
1776971688.032,9.335,-1.1277,-2.2194,-0.0144,0.0549,-0.008,147.45,1123.05,-1027.65,9.1099,2.6145,-1.2498,0.0107,-0.0016,0.0533,-96.0,25.35,-31.35,6.84,0.27,-7.09,0.0131,-0.0916,0.0087,-47.5,-8.0,55.6875,53.8125,43.5625,-177.875,0
1776971688.037,9.335,-1.1277,-2.2194,-0.0144,0.0549,-0.008,147.45,1123.05,-1027.65,9.1099,2.6145,-1.2498,0.0107,-0.0016,0.0533,-95.4,25.95,-31.95,6.84,0.27,-7.09,0.0131,-0.0916,0.0087,-47.5,-8.0,55.6875,53.8125,43.5625,-177.875,0
1776971688.042,9.3661,-1.0726,-2.2505,-0.0083,0.0549,-0.0045,147.45,1123.05,-1027.65,9.1099,2.5522,-1.233,0.0208,0.0003,0.0509,-95.4,25.95,-31.95,6.85,0.31,-7.09,0.0164,-0.1047,0.0087,-47.5,-8.0,55.6875,53.8125,43.5,-177.875,0
1776971688.047,9.3661,-1.0726,-2.2505,-0.0083,0.0549,-0.0045,147.45,1123.05,-1027.65,9.1099,2.5522,-1.233,0.0208,0.0003,0.0509,-95.4,25.95,-31.95,6.85,0.31,-7.09,0.0164,-0.1047,0.0087,-47.5,-8.0,55.6875,53.8125,43.5,-177.875,0
1776971688.054,9.3877,-1.1923,-2.1835,-0.0048,0.053,-0.008,148.65,1121.4,-1027.95,9.1243,2.49,-1.2929,0.0301,0.0147,0.0584,-95.4,25.95,-31.95,6.83,0.27,-7.12,0.0207,-0.1254,0.0153,-47.5,-8.0,55.6875,53.8125,43.4375,-177.9375,0
1776971688.061,9.347,-1.2186,-2.1787,-0.0109,0.0472,-0.0051,148.35,1122.45,-1028.25,9.1411,2.4684,-1.3958,0.0296,0.0173,0.0581,-96.75,23.85,-30.3,6.81,0.29,-7.15,0.0229,-0.1385,0.0164,-47.5,-8.0,55.6875,53.8125,43.375,-177.9375,0
1776971688.066,9.347,-1.2186,-2.1787,-0.0109,0.0472,-0.0051,148.35,1122.45,-1028.25,9.1411,2.4684,-1.3958,0.0296,0.0173,0.0581,-96.75,23.85,-30.3,6.81,0.29,-7.15,0.0229,-0.1385,0.0164,-47.5,-8.0,55.6875,53.8125,43.25,-177.9375,0
1776971688.075,9.4188,-1.1349,-2.1955,-0.0101,0.044,-0.0048,147.75,1120.8,-1027.05,9.1123,2.49,-1.3671,0.0208,0.0306,0.0629,-96.75,23.85,-30.3,6.81,0.3,-7.14,0.024,-0.1549,0.0207,-47.5,-8.0,55.6875,53.8125,43.25,-177.9375,0
1776971688.08,9.4523,-1.0989,-2.1308,-0.0088,0.0456,-0.0016,149.1,1122.15,-1027.5,9.1339,2.3918,-1.4006,-0.0027,0.0261,0.0658,-95.1,23.55,-30.9,6.81,0.3,-7.14,0.024,-0.1549,0.0207,-46.75,-8.375,56.5,53.8125,43.1875,-178.0,0
1776971688.085,9.4523,-1.0989,-2.1308,-0.0088,0.0456,-0.0016,149.1,1122.15,-1027.5,9.1339,2.3918,-1.4006,-0.0027,0.0261,0.0658,-95.1,23.55,-30.9,6.78,0.27,-7.14,0.0284,-0.1724,0.0273,-46.75,-8.375,56.5,53.8125,43.1875,-178.0,0
1776971688.09,9.4643,-1.063,-2.1691,-0.02,0.0506,-0.0067,148.35,1122.45,-1027.95,9.1363,2.3703,-1.3982,-0.0277,0.032,0.0552,-96.15,24.45,-31.95,6.78,0.27,-7.14,0.0284,-0.1724,0.0273,-46.75,-8.375,56.5,53.8125,43.0625,-178.0,0
1776971688.095,9.4643,-1.063,-2.1691,-0.02,0.0506,-0.0067,148.35,1122.45,-1027.95,9.1363,2.3703,-1.3982,-0.0277,0.032,0.0552,-96.15,24.45,-31.95,6.76,0.27,-7.18,0.0316,-0.1876,0.0316,-46.75,-8.375,56.5,53.8125,43.0625,-178.0,0
1776971688.1,9.4906,-1.0726,-2.1835,-0.0277,0.0485,-0.0107,148.35,1122.45,-1027.95,9.232,2.399,-1.4389,-0.0469,0.0266,0.0637,-95.1,23.55,-31.65,6.76,0.27,-7.18,0.0349,-0.2007,0.0371,-46.75,-8.375,56.5,53.8125,42.9375,-178.0625,0
1776971688.106,9.4906,-1.0726,-2.1835,-0.0277,0.0485,-0.0107,148.35,1122.45,-1027.95,9.2895,2.4181,-1.4485,-0.0469,0.0266,0.0637,-95.1,23.55,-31.65,6.73,0.26,-7.2,0.0349,-0.2007,0.0371,-46.75,-8.375,56.5,53.875,42.8125,-178.125,0
1776971688.115,9.5098,-0.9984,-2.1668,-0.0386,0.0469,-0.0021,147.75,1122.75,-1028.85,9.2967,2.3966,-1.4605,-0.0522,0.029,0.0637,-95.1,24.75,-30.45,6.72,0.25,-7.22,0.0338,-0.2083,0.0415,-46.75,-8.375,56.5,53.875,42.8125,-178.125,0
1776971688.123,9.5409,-1.0295,-2.229,-0.0421,0.0541,-0.008,148.35,1122.15,-1028.25,9.2967,2.3966,-1.4605,-0.0701,0.0285,0.0621,-96.75,26.1,-31.8,6.66,0.22,-7.26,0.0371,-0.2203,0.0458,-46.75,-8.375,56.5,53.875,42.75,-178.1875,0
1776971688.128,9.5624,-0.9122,-2.229,-0.0512,0.0536,-0.0035,148.35,1122.15,-1028.25,9.3494,2.4924,-1.4341,-0.0762,0.033,0.0608,-96.3,25.05,-29.55,6.66,0.22,-7.26,0.0371,-0.2203,0.0458,-46.75,-8.375,56.5,53.875,42.75,-178.1875,0
1776971688.133,9.5624,-0.9122,-2.229,-0.0512,0.0536,-0.0035,148.2,1122.0,-1027.65,9.3494,2.4924,-1.4341,-0.0762,0.033,0.0608,-96.3,25.05,-29.55,6.62,0.23,-7.27,0.036,-0.2225,0.048,-46.75,-8.0,56.0625,53.875,42.625,-178.1875,0
1776971688.138,9.6319,-0.8954,-2.2505,-0.0621,0.0586,-0.0037,148.2,1122.0,-1027.65,9.3302,2.5019,-1.4892,-0.0903,0.0314,0.0602,-96.3,25.05,-29.55,6.62,0.23,-7.27,0.036,-0.2225,0.048,-46.75,-8.0,56.0625,53.875,42.625,-178.1875,0
1776971688.142,9.6319,-0.8954,-2.2505,-0.0621,0.0586,-0.0037,149.25,1122.3,-1028.4,9.3302,2.5019,-1.4892,-0.0903,0.0314,0.0602,-96.3,25.05,-29.55,6.6,0.16,-7.28,0.0327,-0.2203,0.0502,-46.75,-8.0,56.0625,53.9375,42.5,-178.25,0
1776971688.147,9.5984,-0.7973,-2.2913,-0.0711,0.0655,-0.0139,149.25,1122.3,-1028.4,9.3494,2.5043,-1.5802,-0.105,0.0352,0.0608,-95.55,24.6,-30.3,6.6,0.16,-7.28,0.0327,-0.2203,0.0502,-46.75,-8.0,56.0625,53.9375,42.5,-178.25,0
1776971688.154,9.5984,-0.7973,-2.2913,-0.0711,0.0655,-0.0139,149.55,1121.55,-1027.65,9.2991,2.5522,-1.5251,-0.105,0.0352,0.0608,-95.55,24.6,-30.3,6.54,0.19,-7.36,0.0305,-0.2182,0.0502,-46.75,-8.0,56.0625,53.9375,42.375,-178.3125,0
1776971688.159,9.651,-0.7901,-2.2505,-0.0671,0.0655,-0.0096,149.55,1121.55,-1027.65,9.2991,2.5522,-1.5251,-0.1186,0.036,0.0581,-95.55,24.6,-30.3,6.54,0.19,-7.36,0.0295,-0.2138,0.0469,-46.75,-8.0,56.0625,53.9375,42.25,-178.375,0
1776971688.166,9.6606,-0.6895,-2.2769,-0.06,0.0693,-0.0096,149.55,1121.55,-1027.65,9.2512,2.4732,-1.6113,-0.1255,0.0434,0.0618,-95.55,24.6,-30.3,6.52,0.14,-7.34,0.0295,-0.2138,0.0469,-46.75,-8.0,56.0625,54.0,42.125,-178.375,0
1776971688.175,9.6247,-0.6704,-2.2769,-0.0474,0.0709,0.0021,148.35,1122.45,-1028.25,9.3206,2.5522,-1.5826,-0.1282,0.0512,0.0562,-96.6,24.45,-30.45,6.51,0.08,-7.33,0.024,-0.2105,0.0458,-46.75,-8.0,56.0625,54.0,42.125,-178.375,0
1776971688.18,9.6247,-0.6704,-2.2769,-0.0474,0.0709,0.0021,148.65,1121.7,-1027.2,9.3206,2.5522,-1.5826,-0.1282,0.0512,0.0562,-96.3,24.6,-29.85,6.51,0.08,-7.33,0.024,-0.2105,0.0458,-46.75,-8.0,56.0625,54.0,42.0,-178.4375,0
1776971688.185,9.6726,-0.6608,-2.2625,-0.0282,0.0709,0.0072,148.65,1121.7,-1027.2,9.3278,2.5139,-1.5107,-0.1327,0.0498,0.0602,-96.3,24.6,-29.85,6.48,0.05,-7.38,0.0185,-0.2018,0.0458,-45.6875,-8.0,57.6875,54.0,42.0,-178.4375,0
1776971688.19,9.6726,-0.6608,-2.2625,-0.0282,0.0709,0.0072,148.2,1122.75,-1027.35,9.3278,2.5139,-1.5107,-0.1327,0.0498,0.0602,-97.65,23.25,-30.45,6.48,0.05,-7.38,0.0185,-0.2018,0.0458,-45.6875,-8.0,57.6875,54.0625,41.875,-178.4375,0
1776971688.195,9.6774,-0.6632,-2.1955,-0.0144,0.0765,0.0115,148.2,1122.75,-1027.35,9.3494,2.5211,-1.5921,-0.1314,0.0464,0.0504,-97.65,23.25,-30.45,6.47,0.23,-7.36,0.0087,-0.192,0.0513,-45.6875,-8.0,57.6875,54.0625,41.875,-178.4375,0
1776971688.2,9.6774,-0.6632,-2.1955,-0.0144,0.0765,0.0115,149.25,1122.3,-1028.1,9.3494,2.5211,-1.5921,-0.1314,0.0464,0.0504,-96.6,25.5,-30.15,6.47,0.23,-7.36,0.0022,-0.1887,0.0502,-45.6875,-8.0,57.6875,54.0625,41.8125,-178.5,0
1776971688.206,9.6917,-0.7039,-2.1476,-0.0048,0.0749,0.0131,149.25,1122.3,-1028.1,9.3398,2.5283,-1.5706,-0.1394,0.0397,0.052,-96.6,25.5,-30.15,6.44,0.28,-7.41,0.0022,-0.1887,0.0502,-45.6875,-8.0,57.6875,54.0625,41.6875,-178.5,0
1776971688.215,9.7252,-0.6345,-2.1811,0.0021,0.0757,0.0123,149.25,1123.05,-1026.6,9.3948,2.6217,-1.5419,-0.1548,0.0378,0.0509,-95.55,25.05,-29.85,6.41,0.14,-7.42,0.0055,-0.1724,0.0393,-45.6875,-8.0,57.6875,54.0625,41.6875,-178.5,0
1776971688.223,9.7779,-0.6273,-2.2122,0.0123,0.0682,0.0128,149.25,1123.05,-1026.6,9.4068,2.6504,-1.6328,-0.1522,0.049,0.0517,-96.15,23.25,-30.15,6.37,0.19,-7.42,0.0065,-0.1582,0.0305,-45.6875,-8.0,57.6875,54.125,41.625,-178.5,0
1776971688.228,9.7779,-0.6273,-2.2122,0.0123,0.0682,0.0128,148.2,1123.5,-1028.1,9.4068,2.6504,-1.6328,-0.1522,0.049,0.0517,-96.15,23.25,-30.15,6.37,0.19,-7.42,0.0065,-0.1582,0.0305,-45.6875,-8.0,57.6875,54.125,41.625,-178.5,0
1776971688.233,9.8114,-0.6177,-2.2673,0.0192,0.0655,0.0141,148.2,1123.5,-1028.1,9.3422,2.7294,-1.5538,-0.1484,0.0504,0.0458,-96.15,23.25,-30.15,6.38,0.17,-7.42,0.0033,-0.1385,0.0218,-46.0625,-8.0,57.6875,54.125,41.5625,-178.5625,0
1776971688.238,9.8114,-0.6177,-2.2673,0.0192,0.0655,0.0141,149.25,1123.5,-1027.65,9.3422,2.7294,-1.5538,-0.1484,0.0504,0.0458,-96.0,23.85,-30.15,6.38,0.17,-7.42,0.0033,-0.1385,0.0218,-46.0625,-8.0,57.6875,54.125,41.5625,-178.5625,0
1776971688.243,9.7564,-0.6105,-2.2338,0.028,0.0613,0.0125,149.25,1123.5,-1027.65,9.335,2.6887,-1.5299,-0.1423,0.0621,0.0434,-96.0,23.85,-30.3,6.36,0.18,-7.44,0.0033,-0.1178,0.0076,-46.0625,-8.0,57.6875,54.125,41.5,-178.5625,0
1776971688.248,9.7564,-0.6105,-2.2338,0.028,0.0613,0.0125,148.65,1122.15,-1027.95,9.335,2.6887,-1.5299,-0.1423,0.0621,0.0434,-96.0,23.85,-30.3,6.36,0.18,-7.44,0.0033,-0.1178,0.0076,-46.0625,-8.0,57.6875,54.125,41.4375,-178.5625,0
1776971688.255,9.7276,-0.5818,-2.1763,0.0325,0.0501,0.0141,148.65,1122.15,-1027.95,9.2201,2.7102,-1.5036,-0.1247,0.0749,0.0448,-96.0,23.85,-30.3,6.31,0.08,-7.48,0.0044,-0.1014,0.0,-46.0625,-8.0,57.6875,54.125,41.4375,-178.5625,0
1776971688.263,9.7612,-0.5507,-2.0614,0.0554,0.0504,0.0117,149.55,1121.55,-1027.05,9.1818,2.7749,-1.4317,-0.1042,0.0834,0.0378,-97.2,23.85,-31.05,6.32,0.08,-7.49,0.0044,-0.0829,-0.0087,-46.0625,-8.0,57.6875,54.125,41.375,-178.5625,0
1776971688.268,9.7612,-0.5507,-2.0614,0.0554,0.0504,0.0117,147.9,1120.95,-1028.55,9.1818,2.7749,-1.4317,-0.1042,0.0834,0.0378,-97.2,23.85,-31.05,6.32,0.08,-7.49,0.0044,-0.0829,-0.0087,-46.0625,-8.0,57.6875,54.125,41.3125,-178.5,0
1776971688.276,9.7468,-0.4908,-2.0327,0.0869,0.048,0.016,147.9,1120.95,-1028.55,9.1315,2.7701,-1.3791,-0.0858,0.0839,0.0312,-96.9,24.0,-30.15,6.31,0.09,-7.44,0.0033,-0.0589,-0.0196,-46.0625,-8.0,57.6875,54.125,41.3125,-178.5,0
1776971688.281,9.809,-0.4429,-2.1117,0.1178,0.0373,0.0168,147.9,1120.95,-1028.55,9.1435,2.8299,-1.3264,-0.0789,0.0794,0.0195,-96.15,23.25,-30.15,6.31,0.09,-7.44,0.0033,-0.0589,-0.0196,-44.25,-7.6875,57.6875,54.0625,41.3125,-178.5,0
1776971688.286,9.809,-0.4429,-2.1117,0.1178,0.0373,0.0168,147.9,1120.95,-1028.55,9.1435,2.8299,-1.3264,-0.0789,0.0794,0.0195,-96.15,23.25,-30.15,6.34,0.24,-7.45,0.0055,-0.0447,-0.0436,-44.25,-7.6875,57.6875,54.0625,41.3125,-178.5,0
1776971688.291,9.8545,-0.5794,-2.0087,0.149,0.0173,0.0213,147.45,1123.05,-1027.65,9.2536,2.8204,-1.2977,-0.0608,0.0847,0.0107,-97.5,22.95,-30.3,6.34,0.24,-7.45,0.0055,-0.0447,-0.0436,-44.25,-7.6875,57.6875,54.0625,41.3125,-178.5,0
1776971688.296,9.8545,-0.5794,-2.0087,0.149,0.0173,0.0213,149.25,1123.05,-1026.6,9.2536,2.8204,-1.2977,-0.0608,0.0847,0.0107,-97.5,22.95,-30.3,6.41,0.3,-7.4,0.0076,-0.0229,-0.0578,-44.25,-7.6875,57.6875,54.0625,41.3125,-178.5,0
1776971688.301,9.8378,-0.7302,-2.0446,0.1951,-0.0011,0.0349,149.25,1123.05,-1026.6,9.3518,2.7845,-1.2737,-0.0453,0.085,0.0013,-96.9,24.0,-29.4,6.41,0.3,-7.4,0.0142,0.0,-0.0665,-44.25,-7.6875,57.6875,54.0,41.25,-178.4375,0
1776971688.306,9.8378,-0.7302,-2.0446,0.1951,-0.0011,0.0349,147.45,1124.25,-1027.35,9.3518,2.7845,-1.2737,-0.0453,0.085,0.0013,-96.9,24.0,-29.4,6.41,0.28,-7.42,0.0142,0.0,-0.0665,-44.25,-7.6875,57.6875,54.0,41.25,-178.4375,0
1776971688.315,9.809,-0.8811,-2.0351,0.2225,-0.0245,0.0424,148.35,1123.65,-1028.25,9.2919,2.7629,-1.2522,-0.0115,0.0783,-0.0115,-96.3,25.05,-29.55,6.41,0.3,-7.42,0.0175,0.0164,-0.06,-44.25,-7.6875,57.6875,54.0,41.3125,-178.4375,0
1776971688.32,9.8521,-0.984,-2.0925,0.2238,-0.0506,0.0421,148.35,1123.65,-1028.25,9.3709,2.8347,-1.2115,-0.0024,0.0778,-0.02,-96.3,25.05,-29.55,6.41,0.3,-7.42,0.0218,0.0425,-0.0491,-44.25,-7.6875,57.6875,53.9375,41.3125,-178.4375,0
1776971688.326,9.8521,-0.984,-2.0925,0.2238,-0.0506,0.0421,148.5,1123.05,-1027.35,9.323,2.727,-1.2234,-0.0024,0.0778,-0.02,-96.3,25.05,-29.55,6.38,0.32,-7.45,0.0218,0.0425,-0.0491,-44.25,-7.6875,57.6875,53.9375,41.3125,-178.4375,0
1776971688.331,9.9216,-1.0822,-2.059,0.194,-0.0685,0.0325,148.5,1123.05,-1027.35,9.323,2.727,-1.2234,0.0128,0.0887,-0.0213,-96.6,23.25,-29.4,6.38,0.32,-7.45,0.0284,0.0589,-0.048,-45.25,-8.375,57.6875,53.9375,41.3125,-178.4375,0
1776971688.336,9.9216,-1.0822,-2.059,0.194,-0.0685,0.0325,148.5,1123.05,-1027.35,9.3206,2.7869,-1.1995,0.0128,0.0887,-0.0213,-96.6,23.25,-29.4,6.38,0.19,-7.46,0.0284,0.0589,-0.048,-45.25,-8.375,57.6875,53.9375,41.3125,-178.4375,0
1776971688.341,9.8258,-1.0247,-2.047,0.1442,-0.0933,0.0093,148.5,1123.05,-1027.35,9.3206,2.7869,-1.1995,0.0213,0.0994,-0.0229,-96.6,23.25,-29.4,6.38,0.19,-7.46,0.0404,0.0807,-0.0611,-45.25,-8.375,57.6875,53.875,41.375,-178.375,0
1776971688.346,9.8258,-1.0247,-2.047,0.1442,-0.0933,0.0093,147.9,1123.2,-1029.0,9.3039,2.7485,-1.2354,0.0213,0.0994,-0.0229,-96.6,23.25,-29.4,6.34,0.1,-7.42,0.0404,0.0807,-0.0611,-45.25,-8.375,57.6875,53.875,41.375,-178.375,0
1776971688.351,9.6965,-0.9409,-2.0518,0.1274,-0.1098,-0.0099,147.9,1123.2,-1029.0,9.3039,2.7485,-1.2354,0.045,0.1082,-0.028,-96.0,25.05,-29.55,6.34,0.1,-7.42,0.0404,0.1102,-0.0774,-45.25,-8.375,57.6875,53.8125,41.4375,-178.375,0
1776971688.356,9.6965,-0.9409,-2.0518,0.1274,-0.1098,-0.0099,147.6,1124.7,-1028.55,9.2512,2.739,-1.1516,0.0536,0.1236,-0.029,-96.0,25.05,-29.55,6.41,0.24,-7.52,0.0404,0.1102,-0.0774,-45.25,-8.375,57.6875,53.8125,41.4375,-178.375,0
1776971688.365,9.4739,-0.8188,-2.1787,0.1327,-0.1191,-0.028,146.85,1124.4,-1028.25,9.232,2.7773,-1.1684,0.0536,0.1236,-0.029,-96.15,24.45,-29.4,6.46,0.28,-7.44,0.0404,0.1473,-0.0927,-45.25,-8.375,57.6875,53.75,41.5,-178.375,0
1776971688.37,9.323,-0.51,-2.2338,0.1911,-0.1178,-0.0362,146.85,1124.4,-1028.25,9.232,2.7773,-1.1684,0.0711,0.1308,-0.0261,-94.65,23.25,-28.2,6.46,0.28,-7.44,0.0524,0.1658,-0.1145,-45.25,-8.375,57.6875,53.6875,41.5625,-178.3125,0
1776971688.376,9.323,-0.51,-2.2338,0.1911,-0.1178,-0.0362,146.7,1124.25,-1029.15,9.2416,2.7054,-1.1923,0.1082,0.1287,-0.0354,-94.65,23.25,-28.2,6.51,0.34,-7.45,0.0524,0.1658,-0.1145,-45.25,-8.375,57.6875,53.6875,41.5625,-178.3125,0
1776971688.381,9.2296,-0.34,-2.2865,0.2665,-0.1154,-0.0341,146.7,1124.25,-1029.15,9.2416,2.7054,-1.1923,0.1082,0.1287,-0.0354,-97.65,22.8,-29.4,6.51,0.34,-7.45,0.0524,0.1658,-0.1145,-44.5625,-7.6875,58.375,53.5625,41.6875,-178.3125,0
1776971688.386,9.2296,-0.34,-2.2865,0.2665,-0.1154,-0.0341,146.55,1124.4,-1029.3,9.1842,2.6025,-1.1947,0.1327,0.1223,-0.04,-97.65,22.8,-29.4,6.57,1.01,-7.54,0.0764,0.156,-0.1505,-44.5625,-7.6875,58.375,53.5625,41.6875,-178.3125,0
1776971688.391,9.414,-0.0239,-2.5474,0.34,-0.1124,-0.0466,146.55,1124.4,-1029.3,9.1842,2.6025,-1.1947,0.1327,0.1223,-0.04,-94.5,24.15,-28.5,6.57,1.01,-7.54,0.0764,0.156,-0.1505,-44.5625,-7.6875,58.375,53.4375,41.6875,-178.25,0
1776971688.396,9.414,-0.0239,-2.5474,0.34,-0.1124,-0.0466,146.55,1124.4,-1029.3,9.2225,2.4948,-1.2402,0.1609,0.1327,-0.0464,-94.5,24.15,-28.5,6.87,1.23,-7.64,0.1429,0.0611,-0.2062,-44.5625,-7.6875,58.375,53.1875,41.6875,-178.25,0
1776971688.406,9.6079,0.2298,-2.9257,0.4194,-0.1322,-0.0568,144.3,1123.95,-1031.4,9.2105,2.4229,-1.336,0.1775,0.1471,-0.041,-96.9,24.0,-28.65,6.76,1.04,-7.71,0.2716,-0.0262,-0.2858,-44.5625,-7.6875,58.375,53.1875,41.6875,-178.25,0
1776971688.415,9.7085,0.3065,-2.9928,0.5585,-0.1463,-0.0544,143.25,1122.45,-1032.9,9.1506,2.3367,-1.2977,0.1799,0.15,-0.036,-96.9,24.0,-28.65,6.86,1.33,-7.5,0.4134,-0.1058,-0.3752,-44.5625,-7.6875,58.375,52.9375,41.625,-178.3125,0
1776971688.425,9.6702,0.7111,-2.8419,0.7576,-0.166,-0.052,143.25,1126.65,-1034.7,9.1459,2.3846,-1.3072,0.1545,0.1809,-0.0309,-95.55,22.95,-29.25,7.45,1.77,-8.2,0.5967,-0.1113,-0.54,-44.5625,-7.6875,58.375,52.5,41.5625,-178.375,0
1776971688.43,9.6271,1.1085,-3.0574,0.9822,-0.2012,-0.0727,143.25,1126.65,-1034.7,9.1459,2.3846,-1.3072,0.1545,0.1809,-0.0309,-95.55,22.95,-29.25,7.45,1.77,-8.2,0.5967,-0.1113,-0.54,-44.5625,-7.6875,58.375,52.5,41.5625,-178.375,0
1776971688.435,9.6271,1.1085,-3.0574,1.2817,-0.2579,-0.093,139.8,1129.8,-1036.95,9.2129,2.4253,-1.2809,0.1322,0.2105,-0.008,-95.55,22.95,-29.25,7.03,2.28,-7.54,0.8258,-0.1058,-0.7298,-46.0625,-8.0,57.6875,51.9375,41.5,-178.5,0
1776971688.44,9.5193,1.2641,-3.2322,1.2817,-0.2579,-0.093,139.8,1129.8,-1036.95,9.2129,2.4253,-1.2809,0.1322,0.2105,-0.008,-96.15,24.75,-28.2,7.03,2.28,-7.54,0.8258,-0.1058,-0.7298,-46.0625,-8.0,57.6875,51.9375,41.5,-178.5,0
1776971688.445,9.347,1.2043,-3.2513,1.5495,-0.3104,-0.125,139.8,1129.8,-1036.95,9.2656,2.4684,-1.1708,0.13,0.2324,0.0109,-96.15,24.75,-28.2,6.45,2.16,-7.57,1.1246,-0.2531,-0.8967,-46.0625,-8.0,57.6875,51.1875,41.3125,-178.6875,0
1776971688.45,9.347,1.2043,-3.2513,1.5495,-0.3104,-0.125,139.8,1129.8,-1036.95,9.2656,2.4684,-1.1708,0.13,0.2324,0.0109,-97.35,24.75,-28.2,6.45,2.16,-7.57,1.3854,-0.3327,-1.0854,-46.0625,-8.0,57.6875,50.3125,41.125,-178.9375,0
1776971688.456,9.2727,0.8116,-3.1484,1.8266,-0.3477,-0.1532,139.8,1129.8,-1036.95,9.1866,2.4995,-1.1588,0.1463,0.2617,0.0365,-97.35,24.45,-28.65,6.47,0.91,-7.59,1.3854,-0.3327,-1.0854,-46.0625,-8.0,57.6875,49.25,40.9375,-179.1875,0
1776971688.466,9.2368,0.2969,-3.0957,2.0272,-0.3645,-0.1644,126.6,1144.2,-1050.75,9.1818,2.4732,-1.1396,0.1953,0.2715,0.0584,-95.55,23.4,-27.3,6.3,0.4,-7.51,1.5697,-0.3676,-1.2555,-46.0625,-8.0,57.6875,48.125,40.6875,-179.4375,0
1776971688.476,9.1387,-0.1748,-2.9544,2.1909,-0.3829,-0.1537,123.6,1144.2,-1051.35,9.2632,2.5043,-1.2186,0.2561,0.2822,0.0807,-95.4,23.25,-28.2,6.4,0.36,-7.31,1.6952,-0.3709,-1.4214,-46.0625,-8.0,57.6875,48.125,40.6875,-179.4375,0
1776971688.481,9.1387,-0.1748,-2.9544,2.1909,-0.3829,-0.1537,123.6,1144.2,-1051.35,9.3996,2.4517,-1.1899,0.2561,0.2822,0.0807,-97.65,23.25,-28.65,6.4,0.36,-7.31,1.6952,-0.3709,-1.4214,-44.5625,-7.25,58.0625,46.875,40.5,-179.6875,0
1776971688.486,9.1578,-0.6345,-2.636,2.3297,-0.3906,-0.118,126.0,1143.0,-1053.0,9.3996,2.4517,-1.1899,0.3134,0.2832,0.1159,-97.65,23.25,-28.65,6.4,0.59,-7.11,1.7562,-0.3033,-1.5752,-44.5625,-7.25,58.0625,46.875,40.5,-179.6875,0
1776971688.491,9.1578,-0.6345,-2.636,2.3297,-0.3906,-0.118,126.0,1143.0,-1053.0,9.6055,2.2697,-1.2019,0.3616,0.2491,0.1426,-97.65,23.55,-27.45,6.4,0.59,-7.11,1.7562,-0.3033,-1.5752,-44.5625,-7.25,58.0625,45.5625,40.375,-179.8125,0
1776971688.496,9.0908,-1.0774,-2.5762,2.3846,-0.3762,-0.1074,128.55,1138.05,-1054.8,9.6055,2.2697,-1.2019,0.3616,0.2491,0.1426,-97.65,23.55,-27.45,6.49,1.56,-6.3,1.7584,-0.2509,-1.7442,-44.5625,-7.25,58.0625,45.5625,40.375,-179.8125,0
1776971688.505,9.0884,-1.3264,-2.4469,2.3923,-0.3387,-0.1172,128.55,1138.05,-1054.8,9.5888,2.32,-1.3503,0.405,0.2302,0.1673,-97.65,23.55,-27.45,6.55,2.15,-6.12,1.7279,-0.2258,-1.9635,-44.5625,-7.25,58.0625,44.125,40.25,-179.875,0
1776971688.511,9.0884,-1.3264,-2.4469,2.3923,-0.3387,-0.1172,128.55,1138.05,-1054.8,9.5433,2.4493,-1.4222,0.4565,0.2054,0.1855,-95.85,23.25,-27.9,6.55,2.15,-6.12,1.6384,-0.168,-2.2537,-44.5625,-7.25,58.0625,42.5625,40.1875,-179.6875,0
1776971688.517,8.9543,-1.6855,-2.4181,2.3689,-0.2992,-0.1247,128.55,1138.05,-1054.8,9.5433,2.4493,-1.4222,0.4565,0.2054,0.1855,-95.85,23.25,-27.9,6.71,2.67,-5.91,1.6384,-0.168,-2.2537,-44.5625,-7.25,58.0625,40.8125,40.125,-179.3125,0
1776971688.526,8.8609,-2.1356,-2.332,2.3462,-0.2483,-0.1378,132.9,1133.55,-1055.1,9.3972,2.715,-1.3408,0.5231,0.2241,0.2068,-95.85,23.25,-27.9,7.17,3.14,-6.68,1.5206,-0.0447,-2.5994,-44.5625,-7.25,58.0625,40.8125,40.125,-179.3125,0
1776971688.531,8.8609,-2.1356,-2.332,2.3462,-0.2483,-0.1378,132.9,1133.55,-1055.1,9.4188,2.7869,-1.2546,0.5785,0.2417,0.2313,-96.6,22.05,-27.9,7.17,3.14,-6.68,1.5206,-0.0447,-2.5994,-44.5625,-7.25,58.0625,40.8125,40.125,-179.3125,0
1776971688.536,8.6622,-2.6624,-2.0446,2.3275,-0.1705,-0.1388,133.5,1134.45,-1056.0,9.4188,2.7869,-1.2546,0.5785,0.2417,0.2313,-96.6,22.05,-27.9,7.84,2.31,-5.79,1.4137,0.1025,-2.9071,-42.75,-6.875,58.375,38.875,40.125,-178.75,0
1776971688.541,8.6622,-2.6624,-2.0446,2.3275,-0.1705,-0.1388,133.5,1134.45,-1056.0,9.5577,2.6312,-0.9697,0.6043,0.2774,0.2787,-96.6,22.05,-27.9,7.84,2.31,-5.79,1.4137,0.1025,-2.9071,-42.75,-6.875,58.375,38.875,40.125,-178.75,0
1776971688.546,8.6072,-3.1364,-1.5131,2.2772,-0.1511,-0.118,133.2,1131.3,-1054.8,9.5577,2.6312,-0.9697,0.6043,0.2774,0.2787,-98.1,21.6,-26.1,7.6,0.31,-6.71,1.4028,0.2542,-2.9365,-42.75,-6.875,58.375,37.0,40.25,-178.125,0
1776971688.551,8.6072,-3.1364,-1.5131,2.2772,-0.1511,-0.118,133.65,1132.5,-1054.8,9.6534,2.3559,-0.8787,0.5918,0.3539,0.352,-98.4,22.5,-26.7,7.6,0.31,-6.71,1.441,0.2454,-2.7423,-42.75,-6.875,58.375,35.1875,40.3125,-177.6875,0
1776971688.557,8.6,-3.6392,-1.2785,2.2244,-0.0195,-0.0842,133.65,1132.5,-1055.1,9.56,2.5642,-0.8547,0.5918,0.3539,0.352,-98.4,22.5,-26.7,7.74,-1.84,-7.82,1.441,0.2454,-2.7423,-42.75,-6.875,58.375,33.375,40.5,-177.125,0
1776971688.566,8.7412,-4.8076,-1.233,2.0203,0.037,-0.0522,133.65,1132.5,-1055.1,9.56,2.5642,-0.8547,0.5761,0.4117,0.401,-98.7,20.25,-26.55,8.45,-4.23,-8.31,1.3854,0.4712,-2.738,-42.75,-6.875,58.375,33.375,40.5,-177.125,0
1776971688.576,8.8705,-6.2393,-1.4868,1.6566,0.0104,-0.0685,139.65,1126.95,-1052.4,9.2751,2.4708,-0.6033,0.5966,0.441,0.4226,-99.0,21.45,-26.55,7.44,-6.13,-7.78,1.3864,0.6425,-2.1435,-42.75,-6.875,58.375,31.875,40.8125,-176.875,0
1776971688.581,8.5808,-7.1635,-1.5538,1.1759,0.016,-0.1055,148.35,1115.4,-1045.05,9.3901,2.1261,-0.5028,0.7458,0.497,0.4692,-99.0,21.45,-26.55,7.44,-6.13,-7.78,1.3864,0.6425,-2.1435,-42.75,-10.875,58.0625,30.75,40.75,-176.875,0
1776971688.586,8.5808,-7.1635,-1.5538,1.1759,0.016,-0.1055,148.35,1115.4,-1045.05,9.4978,1.8699,-0.8164,0.7458,0.497,0.4692,-99.6,20.85,-27.15,6.27,-6.86,-7.82,1.3494,-0.0065,-1.5621,-42.75,-10.875,58.0625,30.75,40.75,-176.875,0
1776971688.591,8.4898,-7.3191,-1.6424,0.6872,0.0541,-0.146,164.85,1094.55,-1032.3,9.4978,1.8699,-0.8164,0.9675,0.567,0.5399,-99.6,20.85,-27.15,6.27,-6.86,-7.82,1.3494,-0.0065,-1.5621,-42.75,-10.875,58.0625,29.9375,40.625,-176.9375,0
1776971688.596,8.4898,-7.3191,-1.6424,0.6872,0.0541,-0.146,164.85,1094.55,-1032.3,9.6654,1.4437,-1.1013,0.9675,0.567,0.5399,-99.6,20.85,-27.15,6.64,-4.78,-7.62,1.0003,-0.2182,-1.0527,-42.75,-10.875,58.0625,29.9375,40.625,-176.9375,0
1776971688.606,8.3701,-6.4428,-1.6712,0.2502,0.13,-0.1799,183.6,1067.4,-1017.9,9.8497,0.8475,-1.2833,1.0728,0.559,0.5937,-98.7,20.25,-24.3,6.49,-2.61,-7.3,0.5203,-0.2247,-0.5825,-42.75,-10.875,58.0625,29.5,40.5,-176.9375,0
1776971688.615,8.2839,-4.391,-1.2354,-0.0456,0.2673,-0.2166,199.05,1044.3,-1008.45,9.991,0.4357,-1.4174,1.0523,0.4964,0.6408,-98.7,20.25,-24.3,6.08,0.72,-7.07,0.1484,-0.3469,-0.2105,-42.75,-10.875,58.0625,29.375,40.25,-176.9375,0
1776971688.62,8.4611,-2.7078,-1.1085,-0.1719,0.4954,-0.328,199.05,1044.3,-1008.45,9.991,0.4357,-1.4174,0.9169,0.4229,0.6664,-98.7,20.25,-24.3,6.08,0.72,-7.07,0.1484,-0.3469,-0.2105,-42.75,-10.875,58.0625,29.375,40.0625,-176.9375,0
1776971688.627,8.4611,-2.7078,-1.1085,-0.1719,0.4954,-0.328,199.05,1044.3,-1008.45,10.1778,0.1532,-1.5706,0.6763,0.376,0.6853,-98.1,18.45,-27.9,5.26,1.48,-6.63,-0.0371,-0.3829,0.0142,-42.75,-10.875,58.0625,29.375,40.0625,-176.9375,0
1776971688.631,9.153,-1.3551,-2.1284,-0.4221,0.7256,-0.445,193.5,1040.55,-1009.5,10.1778,0.1532,-1.5706,0.6763,0.376,0.6853,-98.1,18.45,-27.9,5.26,1.48,-6.63,-0.0371,-0.3829,0.0142,-41.375,-10.75,57.6875,29.5,39.8125,-177.0625,0
1776971688.637,9.153,-1.3551,-2.1284,-0.4221,0.7256,-0.445,193.5,1040.55,-1009.5,10.2687,0.1077,-1.5826,0.3885,0.3576,0.6907,-99.75,18.3,-25.8,4.54,-0.19,-7.44,0.0654,-0.4909,0.1822,-41.375,-10.75,57.6875,29.5,39.8125,-177.0625,0
1776971688.641,9.6917,-0.2682,-2.7246,-0.3933,0.915,-0.4242,181.5,1052.25,-1018.5,10.2687,0.1077,-1.5826,0.3885,0.3576,0.6907,-98.85,18.15,-27.9,4.54,-0.19,-7.44,0.0654,-0.4909,0.1822,-41.375,-10.75,57.6875,29.6875,39.5,-177.375,0
1776971688.647,9.6917,-0.2682,-2.7246,-0.3933,0.915,-0.4242,181.5,1052.25,-1018.5,10.0748,0.2658,-1.4916,0.0554,0.3651,0.7104,-98.85,18.15,-27.9,4.81,-0.9,-8.16,0.2302,-0.5749,0.4069,-41.375,-10.75,57.6875,29.6875,39.5,-177.375,0
1776971688.655,10.2855,0.2634,-2.5905,-0.3523,0.9795,-0.3333,166.65,1068.0,-1030.2,9.8282,0.7566,-1.6759,-0.2657,0.3565,0.7186,-99.15,17.7,-26.7,5.34,-0.3,-8.22,0.3076,-0.4952,0.6414,-41.375,-10.75,57.6875,30.0,39.25,-177.875,0
1776971688.66,10.58,-0.1604,-2.545,-0.3171,0.9699,-0.2172,148.65,1089.15,-1040.4,9.8282,0.7566,-1.6759,-0.2657,0.3565,0.7186,-99.15,17.7,-26.7,5.34,-0.3,-8.22,0.3076,-0.4952,0.6414,-41.375,-10.75,57.6875,30.375,39.125,-178.375,0
1776971688.667,10.58,-0.1604,-2.545,-0.3171,0.9699,-0.2172,148.65,1089.15,-1040.4,9.809,1.5562,-1.8148,-0.5164,0.3325,0.7096,-99.75,16.8,-25.05,6.72,-0.89,-7.24,0.2465,-0.2378,0.7909,-41.375,-10.75,57.6875,30.8125,39.1875,-178.8125,0
1776971688.676,10.9702,-0.6776,-2.2721,-0.2481,1.0211,-0.1292,132.9,1107.0,-1050.15,10.0987,2.2936,-1.7813,-0.6776,0.2904,0.671,-100.95,16.8,-25.8,6.79,-0.98,-7.32,0.0873,0.1004,0.8563,-41.375,-10.75,57.6875,30.8125,39.1875,-178.8125,0
1776971688.682,11.4395,-0.0024,-2.1572,-0.239,1.0032,-0.1615,132.9,1107.0,-1050.15,10.0221,2.7102,-1.7789,-0.6776,0.2904,0.671,-100.95,16.8,-25.8,6.79,-0.98,-7.32,0.0873,0.1004,0.8563,-41.375,-10.75,57.6875,31.375,39.25,-179.125,0
