timestamp,thigh_acc_x,thigh_acc_y,thigh_acc_z,thigh_gyro_x,thigh_gyro_y,thigh_gyro_z,thigh_mag_x,thigh_mag_y,thigh_mag_z,shank_acc_x,shank_acc_y,shank_acc_z,shank_gyro_x,shank_gyro_y,shank_gyro_z,shank_mag_x,shank_mag_y,shank_mag_z,foot_acc_x,foot_acc_y,foot_acc_z,foot_gyro_x,foot_gyro_y,foot_gyro_z,foot_mag_x,foot_mag_y,foot_mag_z,foot_euler_x,foot_euler_y,foot_euler_z,perturbation_event
1776972561.89,9.4786,-3.869,2.6384,0.7298,-0.3629,0.66,16.2,46.8,-120.0,9.2703,-0.4453,0.7135,1.2132,0.5388,0.5081,-84.75,18.9,-7.2,5.61,1.31,-8.36,0.3109,0.2553,-0.0785,-29.75,-18.375,58.75,116.5625,33.8125,-172.1875,0
1776972561.898,8.6383,-3.9433,3.3854,0.2888,-0.4183,0.7695,16.05,46.95,-119.1,9.2249,-0.0838,1.3695,0.7557,0.5436,0.4407,-84.6,18.75,-5.85,4.97,1.1,-8.06,0.0524,-0.0665,0.024,-29.75,-18.375,58.75,116.625,33.75,-172.1875,0
1776972561.908,9.1937,-4.6352,3.7709,0.0067,-0.4658,0.882,16.05,46.95,-119.1,9.5433,0.0766,1.9752,0.3461,0.559,0.3507,-84.6,18.75,-5.85,3.58,1.07,-8.2,-0.0687,-0.1833,0.0894,-29.75,-18.375,58.75,116.625,33.75,-172.1875,0
1776972561.913,9.1937,-4.6352,3.7709,0.0067,-0.4658,0.882,20.7,45.3,-121.35,9.5433,0.0766,1.9752,0.3461,0.559,0.3507,-84.6,18.75,-5.85,3.58,1.07,-8.2,-0.0687,-0.1833,0.0894,-29.75,-18.375,58.75,116.6875,33.875,-172.125,0
1776972561.918,9.5912,-4.1707,2.3152,-0.0333,-0.4375,0.9201,20.7,45.3,-121.35,10.2663,-0.5052,2.2745,0.0645,0.522,0.2547,-85.05,19.95,-5.55,6.31,1.01,-8.35,-0.1527,0.264,0.1113,-30.1875,-16.875,60.0,116.6875,33.875,-172.125,0
1776972561.923,9.5912,-4.1707,2.3152,-0.0333,-0.4375,0.9201,23.85,45.75,-120.3,10.2663,-0.5052,2.2745,0.0645,0.522,0.2547,-85.05,19.95,-5.55,6.31,1.01,-8.35,-0.1527,0.264,0.1113,-30.1875,-16.875,60.0,116.8125,33.75,-172.125,0
1776972561.928,10.5632,-3.3088,0.5555,0.0056,-0.3938,0.8588,23.85,45.75,-120.3,10.2424,-0.8859,2.3104,-0.1426,0.4655,0.2129,-85.05,19.95,-5.55,5.66,0.82,-8.61,-0.1451,-0.2771,0.1942,-30.1875,-16.875,60.0,116.8125,33.75,-172.125,0
1776972561.932,10.5632,-3.3088,0.5555,-0.3182,-0.4538,0.8167,22.95,45.9,-121.2,10.2424,-0.8859,2.3104,-0.1426,0.4655,0.2129,-85.05,19.95,-5.55,5.66,0.82,-8.61,-0.2073,-0.276,0.18,-30.1875,-16.875,60.0,117.0,33.625,-172.0625,0
1776972561.938,10.7691,-3.0694,-0.4142,-0.3182,-0.4538,0.8167,22.95,45.9,-121.2,10.2472,-1.3599,2.2817,-0.2827,0.3866,0.2049,-85.2,17.7,-6.75,4.74,0.76,-8.57,-0.2073,-0.276,0.18,-30.1875,-16.875,60.0,117.0625,33.6875,-172.0625,0
1776972561.948,10.2903,-3.1412,-0.3376,-0.5268,-0.4828,0.7139,23.4,46.2,-119.4,10.5129,-1.7669,1.8842,-0.4615,0.2782,0.2204,-84.0,18.45,-5.25,5.44,0.75,-8.62,-0.1233,0.0676,0.1374,-30.1875,-16.875,60.0,117.0625,33.6875,-172.0625,0
1776972561.958,10.0485,-2.5235,-0.2993,-0.5838,-0.3728,0.6118,23.4,46.2,-119.4,10.5105,-1.6735,1.4341,-0.6781,0.1764,0.2622,-85.2,16.5,-5.7,5.18,0.76,-8.58,-0.0502,0.0982,0.1145,-30.1875,-16.875,60.0,117.125,33.75,-172.0625,0
1776972561.963,9.912,-2.1284,0.1748,-0.566,-0.2899,0.4988,23.4,46.2,-119.4,9.8737,-1.0391,0.9625,-0.6781,0.1764,0.2622,-85.2,16.5,-5.7,5.18,0.76,-8.58,-0.0502,0.0982,0.1145,-30.1875,-16.875,60.0,117.125,33.75,-172.0625,0
1776972561.968,9.912,-2.1284,0.1748,-0.566,-0.2899,0.4988,23.4,46.2,-119.4,9.8737,-1.0391,0.9625,-0.9166,0.1191,0.3011,-84.45,18.15,-5.7,5.16,0.8,-8.5,-0.0022,0.1614,0.084,-30.1875,-16.1875,59.5625,117.1875,33.8125,-172.125,0
1776972561.973,9.7324,-1.9034,0.2945,-0.575,-0.2702,0.4205,23.7,45.9,-120.9,9.5457,-0.3998,0.9361,-0.9166,0.1191,0.3011,-84.45,18.15,-5.7,5.16,0.8,-8.5,-0.0022,0.1614,0.084,-30.1875,-16.1875,59.5625,117.1875,33.8125,-172.125,0
1776972561.978,9.7324,-1.9034,0.2945,-0.575,-0.2702,0.4205,23.7,45.9,-120.9,9.5457,-0.3998,0.9361,-1.1666,0.0536,0.3232,-85.95,17.7,-5.25,5.08,1.02,-8.37,0.0305,0.2105,0.0611,-30.1875,-16.1875,59.5625,117.1875,33.9375,-172.125,0
1776972561.984,9.2512,-1.8316,0.8236,-0.5939,-0.2689,0.36,18.75,45.75,-121.05,9.4427,-0.0527,1.2354,-1.372,0.0226,0.3222,-85.95,17.7,-5.25,5.27,1.18,-8.12,-0.0033,0.2465,0.0447,-30.1875,-16.1875,59.5625,117.25,34.0625,-172.125,0
1776972561.989,9.2512,-1.8316,0.8236,-0.5939,-0.2689,0.36,18.75,45.75,-121.05,9.4427,-0.0527,1.2354,-1.372,0.0226,0.3222,-85.35,15.6,-6.15,5.27,1.18,-8.12,-0.0033,0.2465,0.0447,-30.1875,-16.1875,59.5625,117.25,34.1875,-172.125,0
1776972561.998,9.2895,-1.8962,0.5028,-0.611,-0.3022,0.3621,20.25,45.3,-120.0,9.2751,0.2394,1.5203,-1.4922,-0.0091,0.2995,-85.35,15.6,-6.15,5.02,1.17,-8.3,-0.0295,0.1505,0.0545,-30.1875,-16.1875,59.5625,117.25,34.1875,-172.125,0
1776972562.008,8.9783,-1.7142,0.2059,-0.5489,-0.401,0.3762,16.95,44.25,-120.3,9.1698,0.4573,1.7693,-1.5196,-0.0386,0.2633,-85.5,16.2,-4.2,5.26,1.17,-8.11,-0.0829,0.1963,0.0535,-30.1875,-16.1875,59.5625,117.3125,34.25,-172.0625,0
1776972562.013,9.0309,-1.6089,0.0814,-0.5255,-0.3909,0.4069,16.95,44.25,-120.3,9.268,0.4956,2.0111,-1.4298,-0.0344,0.235,-85.5,16.2,-4.2,5.26,1.17,-8.11,-0.0829,0.1963,0.0535,-30.1875,-16.1875,59.5625,117.375,34.375,-172.0625,0
1776972562.018,9.0309,-1.6089,0.0814,-0.5255,-0.3909,0.4069,16.95,44.25,-120.3,9.268,0.4956,2.0111,-1.4298,-0.0344,0.235,-85.5,16.2,-4.2,5.14,1.27,-8.17,-0.1374,0.1276,0.0654,-31.1875,-16.875,59.0625,117.375,34.375,-172.0625,0
1776972562.022,9.2967,-1.2857,-0.1508,-0.4943,-0.4533,0.4596,16.95,44.25,-120.3,9.3996,0.5339,2.2003,-1.2649,-0.0085,0.2241,-85.5,16.2,-4.2,5.14,1.27,-8.17,-0.1374,0.1276,0.0654,-31.1875,-16.875,59.0625,117.375,34.375,-172.0625,0
1776972562.028,9.2967,-1.2857,-0.1508,-0.4943,-0.4533,0.4596,16.95,44.25,-120.3,9.3996,0.5339,2.2003,-1.2649,-0.0085,0.2241,-85.5,16.5,-4.2,5.16,1.23,-8.19,-0.1331,0.0796,0.0807,-31.1875,-16.875,59.0625,117.4375,34.375,-172.0,0
1776972562.032,9.4236,-1.233,-0.4908,-0.4546,-0.3485,0.4767,16.65,42.0,-122.1,9.5385,0.723,2.1739,-1.011,0.0109,0.2097,-85.5,16.5,-4.2,5.16,1.23,-8.19,-0.1102,0.108,0.084,-31.1875,-16.875,59.0625,117.5,34.5,-171.9375,0
1776972562.039,9.4236,-1.233,-0.4908,-0.4546,-0.3485,0.4767,16.65,42.0,-122.1,9.5385,0.723,2.1739,-1.011,0.0109,0.2097,-86.55,17.1,-4.05,5.15,1.21,-8.28,-0.1102,0.108,0.084,-31.1875,-16.875,59.0625,117.5,34.5,-171.9375,0
1776972562.048,9.5768,-1.1827,-0.4477,-0.3248,-0.377,0.4863,16.05,43.65,-123.0,9.481,0.9266,2.0949,-0.744,0.0216,0.1927,-87.0,16.95,-4.2,5.15,1.1,-8.23,-0.084,0.1647,0.0807,-31.1875,-16.875,59.0625,117.5,34.5,-171.9375,0
1776972562.053,9.5146,-1.2019,-0.328,-0.2939,-0.4122,0.5071,15.9,41.25,-122.55,9.4164,1.154,1.8268,-0.4922,0.0285,0.1759,-87.0,16.95,-4.2,5.15,1.1,-8.23,-0.06,0.2225,0.0764,-31.1875,-16.875,59.0625,117.5625,34.625,-171.9375,0
1776972562.059,9.3637,-1.47,-0.1293,-0.2747,-0.4503,0.5089,16.8,40.65,-121.65,9.2943,1.1899,1.7119,-0.4922,0.0285,0.1759,-85.35,17.1,-2.85,5.14,1.15,-8.23,-0.06,0.2225,0.0764,-31.1875,-16.875,59.0625,117.5625,34.625,-171.9375,0
1776972562.064,9.3637,-1.47,-0.1293,-0.2747,-0.4503,0.5089,16.8,40.65,-121.65,9.2943,1.1899,1.7119,-0.2715,0.0325,0.1577,-85.35,17.1,-2.85,5.14,1.15,-8.23,0.0295,0.3131,0.0785,-31.1875,-16.875,58.25,117.625,34.75,-171.9375,0
1776972562.069,9.3302,-1.652,-0.328,-0.1857,-0.4959,0.5009,16.8,40.65,-121.65,9.3709,1.233,1.5036,-0.2715,0.0325,0.1577,-84.75,16.2,-3.0,5.14,1.07,-8.12,0.0295,0.3131,0.0785,-31.1875,-16.875,58.25,117.625,34.75,-171.9375,0
1776972562.074,9.3302,-1.652,-0.328,-0.1857,-0.4959,0.5009,16.8,40.65,-121.65,9.3709,1.233,1.5036,-0.1124,0.0421,0.1362,-84.75,16.2,-3.0,5.14,1.07,-8.12,0.1178,0.3807,0.0502,-31.1875,-16.875,58.25,117.5625,34.9375,-172.0,0
1776972562.079,9.4667,-1.3024,-0.3663,-0.0711,-0.5079,0.498,16.2,39.75,-123.15,9.4355,1.2282,1.4269,0.0157,0.0666,0.1287,-85.95,16.2,-3.0,5.22,0.61,-8.44,0.1178,0.3807,0.0502,-31.1875,-16.875,58.25,117.5625,34.9375,-172.0,0
1776972562.085,9.4667,-1.3024,-0.3663,-0.0711,-0.5079,0.498,16.2,39.75,-123.15,9.4355,1.2282,1.4269,0.0157,0.0666,0.1287,-85.95,16.2,-3.0,5.01,1.06,-8.01,0.1505,0.4538,0.0011,-31.1875,-16.875,58.25,117.5625,35.1875,-172.0625,0
1776972562.09,9.5433,-1.4557,-0.2083,-0.0458,-0.5303,0.4834,17.25,39.45,-123.75,9.3637,1.1205,1.3815,0.0927,0.0826,0.1138,-85.95,16.2,-3.0,5.01,1.06,-8.01,0.1505,0.4538,0.0011,-31.1875,-16.875,58.25,117.5625,35.4375,-172.0625,0
1776972562.098,9.4475,-1.6281,-0.0622,0.0195,-0.5372,0.4924,16.65,41.25,-122.55,9.3158,0.9385,1.2115,0.1383,0.0927,0.1231,-85.35,16.35,-4.05,5.38,1.17,-8.14,0.0458,0.4178,0.0316,-31.1875,-16.875,58.25,117.5625,35.4375,-172.0625,0
1776972562.104,9.4475,-1.6281,-0.0622,0.0195,-0.5372,0.4924,16.65,41.25,-122.55,9.3158,0.9385,1.2115,0.1383,0.0927,0.1231,-85.35,16.35,-4.05,5.56,1.19,-8.1,0.0218,0.3916,0.0349,-31.1875,-16.875,58.25,117.5625,35.625,-172.0625,0
1776972562.109,9.4619,-1.7717,-0.0575,0.11,-0.5212,0.493,15.6,40.05,-123.9,9.335,0.9457,1.1372,0.1487,0.0895,0.1188,-85.35,16.35,-4.05,5.56,1.19,-8.1,0.0218,0.3916,0.0349,-31.1875,-16.875,58.25,117.5625,35.625,-172.0625,0
1776972562.114,9.4619,-1.7717,-0.0575,0.11,-0.5212,0.493,15.6,40.05,-123.9,9.335,0.9457,1.1372,0.1487,0.0895,0.1188,-85.35,16.35,-4.05,5.56,1.19,-8.1,0.0218,0.3916,0.0349,-31.5,-16.1875,58.6875,117.5625,35.75,-172.0625,0
1776972562.119,9.6822,-1.7214,0.0742,0.1383,-0.5572,0.5009,17.7,40.05,-124.65,9.4763,1.0199,1.1396,0.1367,0.0855,0.1178,-85.8,15.6,-3.6,5.47,1.11,-8.1,-0.0131,0.3174,0.0447,-31.5,-16.1875,58.6875,117.5625,35.75,-172.0625,0
1776972562.124,9.6822,-1.7214,0.0742,0.1383,-0.5572,0.5009,17.7,40.05,-124.65,9.4763,1.0199,1.1396,0.1367,0.0855,0.1178,-85.8,15.6,-3.6,5.47,1.11,-8.1,-0.0131,0.3174,0.0447,-31.5,-16.1875,58.6875,117.5625,35.9375,-172.0625,0
1776972562.129,9.7013,-1.9561,0.0311,0.0903,-0.582,0.5228,17.7,40.05,-124.65,9.4619,0.929,1.1708,0.1266,0.0757,0.109,-84.15,16.35,-3.3,5.55,1.12,-8.06,-0.024,0.2858,0.0567,-31.5,-16.1875,58.6875,117.5625,35.9375,-172.0625,0
1776972562.134,9.7013,-1.9561,0.0311,0.0903,-0.582,0.5228,17.7,40.05,-124.65,9.4619,0.929,1.1708,0.1266,0.0757,0.109,-84.15,16.35,-3.3,5.55,1.12,-8.06,-0.0076,0.2607,0.0611,-31.5,-16.1875,58.6875,117.625,36.0625,-172.0625,0
1776972562.139,9.742,-2.1213,-0.0479,0.0757,-0.6099,0.5353,16.2,39.0,-125.7,9.5433,0.9792,1.245,0.1111,0.0717,0.0951,-86.25,17.4,-3.0,5.55,1.1,-8.13,-0.0076,0.2607,0.0611,-31.5,-16.1875,58.6875,117.625,36.25,-172.125,0
1776972562.148,9.845,-2.5019,-0.1915,0.0003,-0.6003,0.5596,17.55,37.95,-125.55,9.5457,0.9433,1.2833,0.0807,0.0674,0.0789,-85.35,17.4,-3.0,5.28,1.01,-8.04,0.0175,0.2705,0.0349,-31.5,-16.1875,58.6875,117.625,36.25,-172.125,0
1776972562.158,9.8067,-2.9018,-0.3998,-0.0504,-0.5849,0.5809,16.5,38.7,-123.75,9.675,0.8667,1.3695,0.0285,0.0658,0.0648,-86.1,15.6,-4.05,5.25,1.06,-8.18,0.0076,0.2782,0.0284,-31.5,-16.1875,58.6875,117.625,36.375,-172.0625,0
1776972562.163,9.8067,-2.9018,-0.3998,-0.0504,-0.5849,0.5809,16.5,38.7,-123.75,9.675,0.8667,1.3695,0.0285,0.0658,0.0648,-86.1,15.6,-4.05,5.25,1.06,-8.18,0.0076,0.2782,0.0284,-31.5,-16.1875,58.6875,117.625,36.4375,-172.125,0
1776972562.168,9.754,-3.1723,-0.7015,-0.0163,-0.6014,0.5883,16.95,37.5,-125.4,9.7779,0.6273,1.561,-0.0493,0.0629,0.0711,-86.1,15.6,-4.05,5.39,1.05,-8.2,-0.0109,0.2858,0.0338,-32.5625,-16.875,57.875,117.625,36.4375,-172.125,0
1776972562.173,9.754,-3.1723,-0.7015,-0.0163,-0.6014,0.5883,16.95,37.5,-125.4,9.7779,0.6273,1.561,-0.0493,0.0629,0.0711,-85.95,15.0,-3.45,5.39,1.05,-8.2,-0.0109,0.2858,0.0338,-32.5625,-16.875,57.875,117.625,36.625,-172.0625,0
1776972562.178,9.8976,-3.474,-0.6991,-0.0594,-0.6382,0.6163,18.45,38.25,-126.45,9.6917,0.4764,1.7071,-0.145,0.0605,0.0813,-85.95,15.0,-3.45,5.65,1.23,-8.2,0.0142,0.3294,0.0229,-32.5625,-16.875,57.875,117.625,36.625,-172.0625,0
1776972562.183,9.8976,-3.474,-0.6991,-0.0594,-0.6382,0.6163,18.45,38.25,-126.45,9.6917,0.4764,1.7071,-0.145,0.0605,0.0813,-85.95,15.0,-3.45,5.65,1.23,-8.2,0.0284,0.3425,0.0251,-32.5625,-16.875,57.875,117.625,36.75,-172.0625,0
1776972562.189,9.742,-3.8188,-0.6393,-0.1151,-0.6843,0.6355,18.45,38.25,-126.45,9.8928,0.2298,1.8411,-0.2164,0.0544,0.1026,-86.55,14.85,-2.55,5.65,1.29,-8.15,0.0284,0.3425,0.0251,-32.5625,-16.875,57.875,117.625,36.75,-172.0625,0
1776972562.198,9.5193,-3.9289,-0.5794,-0.1719,-0.6731,0.639,17.85,36.45,-125.55,9.9072,0.0838,1.9178,-0.2683,0.053,0.1228,-86.55,14.85,-2.55,5.47,1.29,-8.09,0.0458,0.2978,0.0371,-32.5625,-16.875,57.875,117.625,36.875,-172.125,0
1776972562.202,9.5193,-3.9289,-0.5794,-0.1719,-0.6731,0.639,17.85,36.45,-125.55,9.7875,-0.0311,2.0782,-0.2683,0.053,0.1228,-86.55,14.85,-2.55,5.47,1.29,-8.09,0.06,0.2923,0.0611,-32.5625,-16.875,57.875,117.625,36.9375,-172.125,0
1776972562.209,9.402,-4.0151,-0.4214,-0.2502,-0.6654,0.6392,18.3,37.65,-127.35,9.7875,-0.0311,2.0782,-0.316,0.0557,0.1548,-85.5,15.75,-3.45,5.36,1.21,-8.23,0.06,0.2923,0.0611,-32.5625,-16.875,57.875,117.625,36.9375,-172.125,0
1776972562.214,9.4906,-3.7996,-0.7877,-0.3411,-0.6251,0.6307,18.3,37.65,-127.35,9.6941,0.0622,2.0734,-0.3552,0.0522,0.1748,-85.5,15.75,-3.45,5.36,1.21,-8.23,0.0884,0.3185,0.0731,-33.6875,-17.25,58.6875,117.625,37.0625,-172.1875,0
1776972562.219,9.4906,-3.7996,-0.7877,-0.3411,-0.6251,0.6307,18.6,36.45,-128.4,9.6941,0.0622,2.0734,-0.3552,0.0522,0.1748,-86.1,16.8,-3.45,5.68,0.89,-7.93,0.0884,0.3185,0.0731,-33.6875,-17.25,58.6875,117.625,37.0625,-172.1875,0
1776972562.224,9.5122,-3.3423,-1.1612,-0.3691,-0.5899,0.6107,18.6,36.45,-128.4,9.7324,0.1532,1.9154,-0.396,0.0402,0.1919,-86.1,16.8,-3.3,5.68,0.89,-7.93,0.1025,0.2847,0.0676,-33.6875,-17.25,58.6875,117.625,37.25,-172.25,0
1776972562.229,9.5122,-3.3423,-1.1612,-0.3691,-0.5899,0.6107,17.85,35.4,-126.6,9.7324,0.1532,1.9154,-0.396,0.0402,0.1919,-86.1,15.6,-2.85,5.91,1.08,-8.12,0.1025,0.2847,0.0676,-33.6875,-17.25,58.6875,117.625,37.25,-172.25,0
1776972562.234,9.5457,-2.9544,-1.4533,-0.4045,-0.5478,0.5542,17.85,35.4,-126.6,9.8593,0.1077,1.6975,-0.4149,0.0128,0.2038,-86.1,15.6,-2.85,5.91,1.08,-8.12,0.0949,0.2825,0.06,-33.6875,-17.25,58.6875,117.625,37.375,-172.3125,0
1776972562.239,9.5457,-2.9544,-1.4533,-0.4045,-0.5478,0.5542,18.45,34.8,-127.5,9.8593,0.1077,1.6975,-0.4149,0.0128,0.2038,-88.2,15.45,-3.45,5.65,1.13,-7.98,0.0949,0.2825,0.06,-33.6875,-17.25,58.6875,117.625,37.375,-172.3125,0
1776972562.248,9.5289,-2.7605,-1.6807,-0.4098,-0.518,0.4807,18.45,34.8,-127.5,9.8737,0.2586,1.6137,-0.3717,-0.0184,0.2161,-88.2,15.45,-3.45,5.54,1.19,-8.01,0.12,0.2825,0.0513,-33.6875,-17.25,58.6875,117.625,37.5,-172.375,0
1776972562.253,9.5433,-2.897,-2.1213,-0.4133,-0.4724,0.4397,18.45,34.8,-127.5,9.742,0.3735,1.4796,-0.2891,-0.0416,0.2225,-84.75,16.5,-1.95,5.54,1.19,-8.01,0.1254,0.3643,0.0513,-33.6875,-17.25,58.6875,117.625,37.625,-172.4375,0
1776972562.259,9.5433,-2.897,-2.1213,-0.4133,-0.4724,0.4397,17.7,36.0,-128.55,9.742,0.3735,1.4796,-0.2891,-0.0416,0.2225,-86.25,15.0,-2.7,5.44,0.99,-7.97,0.1254,0.3643,0.0513,-33.6875,-17.25,58.6875,117.625,37.625,-172.4375,0
1776972562.264,9.5553,-2.6791,-2.4876,-0.3419,-0.5303,0.4341,17.7,36.0,-128.55,9.6845,0.6129,1.3838,-0.2017,-0.052,0.2262,-86.25,15.0,-2.7,5.44,0.99,-7.97,0.1254,0.3643,0.0513,-35.1875,-15.875,57.875,117.625,37.8125,-172.5625,0
1776972562.269,9.5553,-2.6791,-2.4876,-0.3419,-0.5303,0.4341,16.65,36.3,-128.55,9.6845,0.6129,1.3838,-0.2017,-0.052,0.2262,-86.25,15.0,-2.7,5.45,0.75,-7.97,0.1451,0.4527,0.0447,-35.1875,-15.875,57.875,117.625,37.8125,-172.5625,0
1776972562.274,9.7588,-2.1739,-2.9928,-0.2715,-0.5798,0.4178,16.65,36.3,-128.55,9.7588,0.5602,1.1396,-0.1218,-0.0674,0.2417,-86.25,15.0,-2.7,5.45,0.75,-7.97,0.1451,0.4527,0.0447,-35.1875,-15.875,57.875,117.5625,38.0625,-172.625,0
1776972562.279,9.7588,-2.1739,-2.9928,-0.2715,-0.5798,0.4178,16.2,33.75,-128.55,9.7588,0.5602,1.1396,-0.1218,-0.0674,0.2417,-86.25,15.0,-2.7,5.62,0.41,-8.2,0.1756,0.5301,0.0273,-35.1875,-15.875,57.875,117.5625,38.0625,-172.625,0
1776972562.284,9.414,-2.0183,-2.9257,-0.2374,-0.5939,0.3861,15.75,34.65,-129.45,9.7324,0.7087,1.0391,-0.0546,-0.0831,0.2851,-86.55,15.6,-1.35,5.98,0.71,-7.84,0.0949,0.6785,0.0218,-35.1875,-15.875,57.875,117.5625,38.4375,-172.625,0
1776972562.289,9.414,-2.0183,-2.9257,-0.2374,-0.5939,0.3861,15.75,34.65,-129.45,9.6965,0.6393,1.0511,-0.0546,-0.0831,0.2851,-86.55,15.6,-1.35,5.98,0.71,-7.84,0.0949,0.6785,0.0218,-35.1875,-15.875,57.875,117.5,38.8125,-172.625,0
1776972562.299,9.2368,-2.0614,-2.6121,-0.2174,-0.5929,0.3736,15.6,34.05,-129.6,9.5146,0.7015,1.1396,0.0056,-0.0778,0.3459,-86.55,15.6,-1.35,5.89,0.42,-8.01,0.024,0.6774,-0.0196,-35.1875,-15.875,57.875,117.5,38.8125,-172.625,0
1776972562.308,8.8945,-2.332,-2.3798,-0.1844,-0.6099,0.3853,15.6,34.05,-129.6,9.2656,0.7063,1.1037,0.0453,-0.073,0.4096,-86.25,14.55,-3.45,5.92,0.65,-7.85,-0.0142,0.6861,-0.0687,-35.1875,-15.875,57.875,117.4375,39.1875,-172.5625,0
1776972562.313,8.7771,-2.7485,-1.8818,-0.1218,-0.6241,0.4141,15.6,34.05,-129.6,9.2656,0.7063,1.1037,0.0794,-0.0741,0.4724,-87.0,14.55,-1.95,5.92,0.65,-7.85,-0.0142,0.6861,-0.0687,-35.1875,-15.875,57.875,117.375,39.625,-172.4375,0
1776972562.318,8.7771,-2.7485,-1.8818,-0.1218,-0.6241,0.4141,14.1,35.25,-129.9,9.1147,0.5722,1.1851,0.0794,-0.0741,0.4724,-87.0,14.55,-1.95,6.23,0.78,-7.67,0.0011,0.7516,-0.1254,-36.25,-16.875,57.5625,117.375,39.625,-172.4375,0
1776972562.323,8.7317,-3.225,-1.549,-0.1106,-0.6518,0.4778,14.1,35.25,-129.9,9.1147,0.5722,1.1851,0.1159,-0.0666,0.5065,-87.45,14.25,-1.95,6.23,0.78,-7.67,0.0011,0.7516,-0.1254,-36.25,-16.875,57.5625,117.375,39.625,-172.4375,0
1776972562.328,8.7317,-3.225,-1.549,-0.1106,-0.6518,0.4778,12.75,33.9,-130.8,8.9352,0.4764,1.245,0.1159,-0.0666,0.5065,-87.45,14.25,-1.95,6.38,0.81,-7.64,-0.0491,0.7178,-0.1527,-36.25,-16.875,57.5625,117.25,40.0,-172.3125,0
1776972562.333,8.6407,-3.5721,-1.3384,-0.0925,-0.6752,0.5436,12.75,33.9,-130.8,8.9352,0.4764,1.245,0.1569,-0.0522,0.5108,-87.0,15.45,-3.0,6.38,0.81,-7.64,-0.084,0.6654,-0.1658,-36.25,-16.875,57.5625,117.125,40.375,-172.125,0
1776972562.339,8.7101,-3.5698,-1.1492,-0.1167,-0.6781,0.6054,14.7,33.45,-131.25,8.8945,0.5148,1.336,0.2062,-0.0306,0.5081,-87.0,15.45,-3.0,6.44,0.78,-7.56,-0.084,0.6654,-0.1658,-36.25,-16.875,57.5625,117.0625,40.6875,-171.9375,0
1776972562.349,8.9112,-3.2968,-0.9098,-0.1503,-0.6797,0.6587,15.15,32.55,-133.2,8.9471,0.5124,1.3431,0.2382,-0.0051,0.4871,-88.2,13.8,-3.0,6.44,1.15,-7.41,-0.0829,0.6305,-0.1844,-36.25,-16.875,57.5625,116.9375,41.0,-171.8125,0
1776972562.359,9.2344,-3.1532,-0.9864,-0.1927,-0.6526,0.6829,15.9,33.0,-132.15,9.0621,0.6512,1.3695,0.2563,-0.0072,0.4498,-88.2,13.05,-1.95,6.27,1.04,-7.48,-0.084,0.5781,-0.18,-36.25,-16.875,57.5625,116.9375,41.0,-171.8125,0
1776972562.364,9.2344,-3.1532,-0.9864,-0.1927,-0.6526,0.6829,15.9,33.0,-132.15,9.0621,0.6512,1.3695,0.2563,-0.0072,0.4498,-88.2,13.05,-1.95,6.27,1.04,-7.48,-0.084,0.5781,-0.18,-36.25,-16.875,57.5625,116.8125,41.3125,-171.625,0
1776972562.369,9.5385,-2.9832,-0.996,-0.2388,-0.6534,0.6877,15.9,33.0,-132.15,9.1075,0.7135,1.2378,0.227,-0.0109,0.401,-88.2,13.05,-1.95,6.32,0.85,-7.17,-0.0665,0.5651,-0.1756,-37.0,-16.1875,56.75,116.8125,41.3125,-171.625,0
1776972562.374,9.5385,-2.9832,-0.996,-0.2388,-0.6534,0.6877,16.65,31.5,-133.2,9.1075,0.7135,1.2378,0.227,-0.0109,0.401,-87.6,13.2,-2.85,6.32,0.85,-7.17,-0.0665,0.5651,-0.1756,-37.0,-16.1875,56.75,116.8125,41.3125,-171.625,0
1776972562.379,9.7037,-2.9329,-1.2641,-0.2822,-0.6872,0.6979,16.65,31.5,-133.2,9.2632,0.9313,1.0534,0.1799,-0.0368,0.3568,-87.6,13.2,-2.85,6.11,0.92,-7.75,-0.0262,0.5749,-0.1963,-37.0,-16.1875,56.75,116.6875,41.5625,-171.5,0
1776972562.386,9.7037,-2.9329,-1.2641,-0.2822,-0.6872,0.6979,18.75,32.25,-132.15,9.4715,1.0319,0.9409,0.1799,-0.0368,0.3568,-87.6,13.2,-2.85,6.15,0.92,-7.52,-0.0382,0.6338,-0.1876,-37.0,-16.1875,56.75,116.625,41.9375,-171.3125,0
1776972562.391,10.0485,-2.8491,-1.4126,-0.3536,-0.744,0.7059,18.75,32.25,-132.15,9.4715,1.0319,0.9409,0.1183,-0.0621,0.319,-88.2,11.85,-2.7,6.15,0.92,-7.52,-0.0382,0.6338,-0.1876,-37.0,-16.1875,56.75,116.5,42.1875,-171.1875,0
1776972562.399,10.0963,-2.9066,-1.7262,-0.38,-0.8359,0.7147,18.6,31.95,-133.65,9.6103,1.1085,0.9122,0.0608,-0.0925,0.283,-88.2,11.85,-2.7,6.24,0.83,-7.57,-0.0251,0.6741,-0.1789,-37.0,-16.1875,56.75,116.5,42.1875,-171.1875,0
1776972562.405,10.0963,-2.9066,-1.7262,-0.38,-0.8359,0.7147,17.55,31.65,-133.05,9.5624,0.9816,0.9026,0.0608,-0.0925,0.283,-86.55,13.95,-4.8,6.05,0.99,-7.31,-0.0131,0.7156,-0.1702,-37.0,-16.1875,56.75,116.375,42.5,-171.0625,0
1776972562.41,9.9048,-3.0358,-1.6448,-0.3928,-0.9225,0.74,17.55,31.65,-133.05,9.5624,0.9816,0.9026,-0.0053,-0.1122,0.2811,-86.55,13.95,-4.8,6.05,0.99,-7.31,-0.0131,0.7156,-0.1702,-37.0,-16.1875,56.75,116.375,42.5,-171.0625,0
1776972562.415,9.9048,-3.0358,-1.6448,-0.3928,-0.9225,0.74,17.55,31.65,-133.05,9.5792,1.1085,0.9601,-0.0863,-0.1151,0.2769,-88.35,13.65,-3.3,6.05,0.99,-7.31,-0.0502,0.8519,-0.1516,-39.1875,-16.875,56.375,116.25,42.9375,-170.9375,0
1776972562.42,9.6845,-3.134,-1.561,-0.412,-0.9928,0.7573,17.55,31.65,-133.05,9.5792,1.1085,0.9601,-0.0863,-0.1151,0.2769,-88.35,13.65,-3.3,6.46,1.13,-7.34,-0.0502,0.8519,-0.1516,-39.1875,-16.875,56.375,116.25,42.9375,-170.9375,0
1776972562.425,9.6845,-3.134,-1.561,-0.412,-0.9928,0.7573,17.55,31.65,-133.05,9.5481,1.0654,1.1492,-0.1836,-0.1146,0.2723,-87.3,12.0,-3.3,6.46,1.13,-7.34,-0.0818,0.9141,-0.1102,-39.1875,-16.875,56.375,116.1875,43.375,-170.75,0
1776972562.43,9.6941,-3.1532,-1.4724,-0.4335,-1.0315,0.7687,17.55,31.65,-133.05,9.5481,1.0654,1.1492,-0.1836,-0.1146,0.2723,-87.3,12.0,-3.3,6.4,1.21,-7.23,-0.0818,0.9141,-0.1102,-39.1875,-16.875,56.375,116.1875,43.375,-170.75,0
1776972562.434,9.6941,-3.1532,-1.4724,-0.4335,-1.0315,0.7687,17.55,30.15,-134.7,9.6319,1.0463,1.3001,-0.2713,-0.118,0.2531,-87.0,12.6,-3.75,6.4,1.21,-7.23,-0.1593,0.9436,-0.0622,-39.1875,-16.875,56.375,116.125,43.875,-170.5625,0
1776972562.44,9.912,-3.565,-1.2522,-0.4655,-1.0541,0.8074,17.55,30.15,-134.7,9.6319,1.0463,1.3001,-0.2713,-0.118,0.2531,-87.0,12.6,-3.75,6.34,1.14,-7.41,-0.1593,0.9436,-0.0622,-39.1875,-16.875,56.375,116.125,43.875,-170.5625,0
1776972562.449,10.1514,-3.7661,-0.9577,-0.494,-1.0826,0.8761,18.15,29.55,-137.1,9.8234,1.0654,1.6185,-0.3323,-0.1191,0.2116,-86.55,12.0,-4.05,6.35,1.19,-7.33,-0.2989,1.0483,0.0273,-39.1875,-16.875,56.375,135.625,44.375,-170.3125,0
1776972562.453,10.1514,-3.7661,-0.9577,-0.494,-1.0826,0.8761,18.75,28.8,-136.35,10.1275,1.1899,1.6185,-0.3696,-0.1098,0.1439,-86.55,12.0,-4.05,6.35,1.19,-7.33,-0.4298,1.1519,0.1102,-39.1875,-16.875,56.375,135.8125,44.9375,-170.0625,0
1776972562.46,10.8194,-3.395,-1.0271,-0.4988,-1.0853,0.9473,18.75,28.8,-136.35,10.1275,1.1899,1.6185,-0.3696,-0.1098,0.1439,-86.55,12.0,-4.05,6.21,1.01,-7.32,-0.4298,1.1519,0.1102,-39.1875,-16.875,56.375,135.8125,44.9375,-170.0625,0
1776972562.465,11.3318,-3.1268,-0.9266,-0.579,-1.0952,1.0008,19.05,27.9,-136.5,10.3813,1.4772,1.6065,-0.4024,-0.1029,0.0866,-88.2,11.85,-4.2,6.33,1.17,-7.34,-0.54,1.3384,0.1745,-40.6875,-17.25,54.375,136.125,45.625,-169.75,0
1776972562.47,11.3318,-3.1268,-0.9266,-0.579,-1.0952,1.0008,19.05,27.9,-136.5,10.3813,1.4772,1.6065,-0.4024,-0.1029,0.0866,-88.2,11.85,-4.2,6.33,1.17,-7.34,-0.54,1.3384,0.1745,-40.6875,-17.25,54.375,136.125,45.625,-169.75,0
1776972562.475,11.9279,-3.1196,-0.4381,-0.7075,-1.1125,1.0704,19.05,27.9,-136.5,10.398,1.8028,1.6233,-0.3922,-0.1045,0.0141,-88.2,11.85,-4.2,6.33,1.17,-7.34,-0.6752,1.5435,0.2291,-40.6875,-17.25,54.375,136.5625,46.4375,-169.375,0
1776972562.48,11.9279,-3.1196,-0.4381,-0.7075,-1.1125,1.0704,19.05,27.9,-136.5,10.398,1.8028,1.6233,-0.3922,-0.1045,0.0141,-88.2,11.85,-4.2,6.33,1.24,-7.14,-0.6752,1.5435,0.2291,-40.6875,-17.25,54.375,136.5625,46.4375,-169.375,0
1776972562.485,12.1937,-2.7318,0.0551,-0.8039,-1.1679,1.1279,19.05,27.9,-136.5,10.3286,2.1691,1.8675,-0.356,-0.1063,-0.0818,-88.2,13.05,-2.7,6.33,1.24,-7.14,-0.8432,1.8075,0.3251,-40.6875,-17.25,54.375,137.0,47.4375,-168.875,0
1776972562.49,12.1937,-2.7318,0.0551,-0.8039,-1.1679,1.1279,19.05,27.9,-136.5,10.3286,2.1691,1.8675,-0.356,-0.1063,-0.0818,-88.2,13.05,-2.7,6.19,1.42,-7.31,-0.8432,1.8075,0.3251,-40.6875,-17.25,54.375,137.5,48.625,-168.375,0
1776972562.499,12.6581,-2.1955,-0.1652,-0.9054,-1.2907,1.1815,21.6,25.65,-139.8,10.1778,2.6839,1.9944,-0.284,-0.1234,-0.2001,-86.85,12.45,-3.3,6.29,1.24,-7.15,-0.973,2.1151,0.4407,-40.6875,-17.25,54.375,137.5,48.625,-168.375,0
1776972562.506,12.7419,-1.6664,0.0694,-1.0275,-1.4552,1.2143,21.15,24.15,-140.1,10.3597,2.9568,1.8794,-0.2094,-0.1511,-0.3262,-89.55,13.95,-2.85,6.24,1.15,-7.16,-0.9468,2.4118,0.504,-40.6875,-17.25,54.375,137.8125,50.0,-167.8125,0
1776972562.511,12.7419,-1.6664,0.0694,-1.0275,-1.4552,1.2143,23.4,23.4,-140.85,10.477,3.1268,1.4102,-0.1274,-0.2427,-0.4703,-89.55,13.95,-2.85,6.24,1.15,-7.16,-0.9468,2.4118,0.504,-40.6875,-17.25,54.375,137.8125,50.0,-167.8125,0
1776972562.516,12.8233,-0.735,-0.0838,-1.1018,-1.5719,1.2199,23.4,23.4,-140.85,10.477,3.1268,1.4102,-0.1274,-0.2427,-0.4703,-88.2,13.05,-3.75,6.89,1.55,-7.27,-0.9065,2.6769,0.5596,-44.375,-16.1875,52.75,138.0,51.5,-167.3125,0
1776972562.521,12.8233,-0.735,-0.0838,-1.1018,-1.5719,1.2199,23.7,22.2,-141.9,10.3334,2.9353,0.565,-0.0703,-0.3691,-0.6187,-88.2,13.05,-3.75,6.89,1.55,-7.27,-0.9065,2.6769,0.5596,-44.375,-16.1875,52.75,138.0,51.5,-167.3125,0
1776972562.526,12.5696,-0.1724,-0.4764,-1.2263,-1.6657,1.2311,23.7,22.2,-141.9,10.3334,2.9353,0.565,-0.0703,-0.3691,-0.6187,-88.2,13.5,-3.45,6.4,1.81,-6.43,-0.8334,2.7434,0.6665,-44.375,-16.1875,52.75,138.0,53.0625,-166.875,0
1776972562.531,12.5696,-0.1724,-0.4764,-1.2263,-1.6657,1.2311,23.7,22.2,-141.9,9.9288,2.399,-0.4573,-0.0738,-0.5356,-0.7424,-88.2,13.5,-3.45,6.4,1.81,-6.43,-0.8334,2.7434,0.6665,-44.375,-16.1875,52.75,138.0,53.0625,-166.875,0
1776972562.539,11.7819,0.2394,-1.0487,-1.3358,-1.7,1.2188,23.7,22.2,-141.9,9.1842,1.8076,-0.9529,-0.0738,-0.5356,-0.7424,-87.3,15.15,-2.1,5.51,1.91,-5.71,-0.6567,2.9823,0.8116,-44.375,-16.1875,52.75,137.75,54.8125,-166.5625,0
1776972562.549,11.4994,0.158,-1.6879,-1.4581,-1.7888,1.2041,25.2,22.2,-144.75,8.6862,1.1061,-1.2498,-0.121,-0.6971,-0.8759,-87.3,15.15,-2.1,7.41,0.43,-6.67,-0.456,3.7917,0.8116,-44.375,-16.1875,52.75,137.125,56.9375,-166.25,0
1776972562.557,10.2352,-0.5866,-1.6137,-1.4805,-1.9193,1.2188,25.2,20.4,-145.8,8.6862,1.1061,-1.2498,-0.2102,-0.8346,-1.0222,-87.6,13.65,-4.35,9.44,2.16,-6.17,-0.3502,4.0012,0.8181,-44.375,-16.1875,52.75,136.4375,59.1875,-165.9375,0
1776972562.562,9.2991,-1.4964,-0.7973,-1.3616,-1.9215,1.2548,25.5,18.9,-147.3,8.339,0.5124,-1.4054,-0.4389,-0.9832,-1.185,-87.6,13.65,-4.35,9.44,2.16,-6.17,-0.3502,4.0012,0.8181,-44.375,-16.1875,52.75,136.4375,59.1875,-165.9375,0
1776972562.567,9.2991,-1.4964,-0.7973,-1.3616,-1.9215,1.2548,25.5,18.9,-147.3,8.339,0.5124,-1.4054,-0.4389,-0.9832,-1.185,-87.6,13.65,-4.35,10.14,4.55,-6.57,-0.3131,3.9848,1.0701,-50.5,-17.25,46.5625,135.625,61.5,-165.8125,0
1776972562.572,8.6407,-1.2689,-1.0582,-1.2071,-1.8783,1.3502,23.25,20.55,-149.25,7.7117,-0.2131,-0.9433,-0.7253,-1.1149,-1.367,-87.6,13.65,-4.35,10.14,4.55,-6.57,-0.3131,3.9848,1.0701,-50.5,-17.25,46.5625,135.625,61.5,-165.8125,0
1776972562.577,8.6407,-1.2689,-1.0582,-1.2071,-1.8783,1.3502,23.25,20.55,-149.25,7.7117,-0.2131,-0.9433,-0.7253,-1.1149,-1.367,-87.75,15.0,-6.0,10.74,5.04,-9.88,0.3382,4.0906,1.4595,-50.5,-17.25,46.5625,134.0625,63.875,-166.5,0
1776972562.582,9.0142,-1.64,-2.0399,-1.1103,-1.7917,1.4384,24.3,17.55,-149.85,7.3837,-0.51,-0.5818,-0.9689,-1.1237,-1.5327,-87.75,15.0,-6.0,10.74,5.04,-9.88,0.3382,4.0906,1.4595,-50.5,-17.25,46.5625,132.0625,66.0625,-167.875,0
1776972562.59,9.0142,-1.64,-2.0399,-1.1103,-1.7917,1.4384,24.3,17.55,-149.85,7.2999,-0.6273,-0.4286,-1.1314,-1.0986,-1.6659,-87.6,16.35,-5.85,10.32,1.47,-6.43,0.9098,3.6128,1.5915,-50.5,-17.25,46.5625,130.25,68.375,-169.4375,0
1776972562.599,9.1985,-2.6552,-3.2298,-1.0941,-1.9121,1.5505,22.65,15.9,-149.85,7.4508,-0.565,-0.3328,-1.259,-1.0773,-1.7563,-86.7,16.5,-5.7,10.49,2.03,-5.06,0.7199,3.9226,1.7061,-50.5,-17.25,46.5625,130.25,68.375,-169.4375,0
1776972562.609,9.2512,-3.5458,-3.5291,-1.0736,-1.9931,1.6899,23.4,15.15,-153.3,8.1499,-0.4549,-0.2155,-1.2697,-1.0525,-1.8389,-87.6,16.8,-6.9,12.87,2.48,-6.63,0.5247,4.2204,1.6962,-50.5,-17.25,46.5625,128.6875,70.8125,-171.1875,0
1776972562.614,8.9902,-4.8698,-3.8523,-1.1815,-1.8303,1.7389,23.4,15.15,-153.3,8.1499,-0.4549,-0.2155,-1.2697,-1.0525,-1.8389,-86.85,18.75,-5.85,12.87,2.48,-6.63,0.5247,4.2204,1.6962,-50.5,-17.25,46.5625,128.6875,70.8125,-171.1875,0
1776972562.619,8.9902,-4.8698,-3.8523,-1.1815,-1.8303,1.7389,23.85,12.0,-152.1,9.1435,-0.6512,-0.3352,-1.1956,-0.9958,-1.8847,-86.85,18.75,-5.85,13.0,2.07,-6.53,0.1713,4.3568,1.6592,-59.25,-15.5,38.25,127.5,73.375,-173.125,0
1776972562.624,8.6838,-5.7988,-5.3056,-1.3702,-1.987,1.7107,23.85,12.0,-152.1,9.1435,-0.6512,-0.3352,-1.1956,-0.9958,-1.8847,-85.5,20.1,-5.7,13.0,2.07,-6.53,0.1713,4.3568,1.6592,-59.25,-15.5,38.25,127.5,73.375,-173.125,0
1776972562.629,8.6838,-5.7988,-5.3056,-1.5226,-2.1861,1.671,24.15,7.65,-150.45,10.4387,-1.0487,-0.4334,-1.149,-0.9662,-1.9351,-85.5,20.1,-5.7,14.42,3.07,-6.94,-0.1353,4.347,1.6821,-59.25,-15.5,38.25,126.5625,75.8125,-175.5625,0
1776972562.634,7.7883,-6.9312,-7.0509,-1.5226,-2.1861,1.671,24.15,7.65,-150.45,10.4387,-1.0487,-0.4334,-1.149,-0.9662,-1.9351,-85.5,20.1,-5.7,14.42,3.07,-6.94,-0.324,4.5149,1.6526,-59.25,-15.5,38.25,125.875,78.375,-178.875,0
1776972562.64,7.5633,-8.3534,-7.7764,-1.6326,-2.2407,1.6238,24.6,-1.5,-150.6,11.9183,-1.2091,0.0,-1.2628,-0.9105,-1.9817,-85.5,20.1,-5.7,18.22,3.01,-9.71,-0.324,4.5149,1.6526,-59.25,-15.5,38.25,125.625,80.75,176.9375,0
1776972562.649,6.6176,-8.7915,-7.92,-1.5945,-2.1717,1.5423,24.6,-1.5,-150.6,13.1035,-0.6369,-0.2011,-1.42,-0.9281,-2.0225,-85.5,20.4,-5.7,17.02,2.87,-10.25,-0.8716,4.2401,1.4661,-59.25,-15.5,38.25,125.625,80.75,176.9375,0
1776972562.659,6.4045,-8.5976,-7.6662,-1.6177,-1.7661,1.3587,21.3,-21.75,-142.8,13.4674,-0.0575,-0.4046,-1.4978,-0.8847,-2.0371,-85.5,20.4,-5.7,14.55,2.99,-10.0,-1.357,3.4994,1.3483,-59.25,-15.5,38.25,125.8125,82.5625,171.25,0
1776972562.664,6.4045,-8.5976,-7.6662,-1.6177,-1.7661,1.3587,21.3,-21.75,-142.8,13.5536,0.7326,-0.3567,-1.4978,-0.8847,-2.0371,-85.35,25.05,-6.15,14.55,2.99,-10.0,-1.357,3.4994,1.3483,-59.25,-15.5,38.25,126.1875,83.875,178.25,0
1776972562.669,5.5761,-6.7133,-8.4204,-1.6939,-1.5799,1.1642,20.1,-31.65,-136.2,13.5536,0.7326,-0.3567,-1.5673,-0.8319,-2.0137,-85.35,25.05,-6.15,11.54,2.75,-9.7,-1.6908,2.6834,1.3068,-68.0,-10.6875,28.5625,126.1875,83.875,178.25,0
1776972562.674,5.5761,-6.7133,-8.4204,-1.6939,-1.5799,1.1642,20.1,-31.65,-136.2,13.4865,0.3759,-0.1772,-1.5673,-0.8319,-2.0137,-83.7,24.75,-7.95,11.54,2.75,-9.7,-1.6908,2.6834,1.3068,-68.0,-10.6875,28.5625,126.5625,84.75,177.5625,0
1776972562.679,2.478,-6.7086,-8.2624,-1.7922,-1.2529,1.1319,15.3,-42.15,-131.25,13.4865,0.3759,-0.1772,-1.5902,-0.6949,-1.9636,-83.7,24.75,-7.95,7.15,0.64,-12.6,-1.8828,2.2602,1.4475,-68.0,-10.6875,28.5625,126.5625,84.75,177.5625,0
1776972562.686,2.478,-6.7086,-8.2624,-1.7922,-1.2529,1.1319,15.3,-42.15,-131.25,13.9247,0.759,-0.7278,-1.6028,-0.5425,-1.8866,-84.6,25.05,-6.15,4.26,-2.72,-15.03,-2.0649,1.753,1.9886,-68.0,-10.6875,28.5625,126.75,84.875,176.5,0
1776972562.691,1.6903,-5.8131,-7.7764,-1.8229,-1.2257,0.9707,11.55,-50.25,-121.35,13.9247,0.759,-0.7278,-1.6028,-0.5425,-1.8866,-84.6,25.05,-6.15,4.26,-2.72,-15.03,-2.0649,1.753,1.9886,-68.0,-10.6875,28.5625,126.4375,83.875,175.0625,0
1776972562.7,-0.2682,-4.3934,-7.7141,-1.5932,-0.9747,0.7941,9.6,-56.4,-116.55,13.5895,0.9433,-1.0558,-1.4914,-0.5995,-1.8687,-83.1,27.75,-5.55,13.45,-2.96,-12.43,-2.0846,0.3992,2.7402,-68.0,-10.6875,28.5625,125.875,82.3125,121.8125,0
1776972562.71,-2.727,-4.2377,-7.8171,-1.2694,-1.125,0.737,9.6,-56.4,-116.55,12.888,0.8978,-1.391,-1.3638,-0.6297,-1.8985,-81.6,25.8,-6.15,14.04,3.08,-19.46,-1.8544,-0.6338,3.0041,-68.0,-10.6875,28.5625,125.875,82.3125,121.8125,0
1776972562.714,-2.727,-4.2377,-7.8171,-1.2694,-1.125,0.737,9.6,-56.4,-116.55,12.8569,1.257,-1.075,-1.2428,-0.4442,-1.9121,-81.9,27.0,-6.6,14.04,3.08,-19.46,-1.8544,-0.6338,3.0041,-68.0,-10.6875,28.5625,125.3125,80.1875,125.25,0
1776972562.719,-4.0151,-3.5769,-8.0493,-0.8505,-0.2539,0.5646,9.0,-68.25,-110.4,12.8569,1.257,-1.075,-1.2428,-0.4442,-1.9121,-81.9,27.0,-6.6,2.26,5.5,-9.87,-2.0857,-2.6594,2.8645,-67.875,-9.5625,19.0625,125.3125,80.1875,125.25,0
1776972562.724,-4.0151,-3.5769,-8.0493,-0.8505,-0.2539,0.5646,9.0,-68.25,-110.4,13.1873,0.984,-1.5371,-0.9585,-0.3277,-1.8319,-81.9,27.0,-6.6,2.26,5.5,-9.87,-2.0857,-2.6594,2.8645,-67.875,-9.5625,19.0625,125.3125,80.1875,125.25,0
1776972562.729,-3.4237,-2.9736,-7.8865,0.1284,0.4738,0.2217,10.95,-73.65,-108.75,13.1873,0.984,-1.5371,-0.9585,-0.3277,-1.8319,-81.9,27.0,-6.6,-0.98,5.75,-5.9,-1.7541,-3.879,2.642,-67.875,-9.5625,19.0625,124.5625,77.6875,130.3125,0
1776972562.734,-3.4237,-2.9736,-7.8865,0.1284,0.4738,0.2217,10.95,-73.65,-108.75,13.216,0.6584,-2.2697,-0.547,-0.3187,-1.7086,-80.4,29.25,-5.85,-0.98,5.75,-5.9,-1.189,-3.9172,2.4326,-67.875,-9.5625,19.0625,123.5,75.25,133.9375,0
1776972562.74,-2.3128,-1.1779,-8.1834,1.173,1.505,-0.2952,12.6,-77.25,-106.05,13.216,0.6584,-2.2697,-0.547,-0.3187,-1.7086,-80.4,29.25,-5.85,-1.91,4.5,-4.07,-1.189,-3.9172,2.4326,-67.875,-9.5625,19.0625,122.375,73.0,136.25,0
1776972562.75,-0.3184,-0.5698,-10.8936,1.6609,2.3734,-0.9686,9.3,-75.0,-105.45,11.8872,1.7789,-1.6257,-0.304,-0.0091,-1.6342,-80.4,29.25,-5.85,-0.74,1.53,-3.88,-0.7669,-3.531,2.1675,-67.875,-9.5625,19.0625,122.375,73.0,136.25,0
1776972562.759,1.0894,1.2713,-11.9495,1.59,3.3286,-1.5457,7.95,-70.5,-105.0,11.3342,1.8196,-1.8028,0.0754,0.1212,-1.5828,-79.05,32.25,-6.45,-0.24,0.73,-3.67,-0.7658,-3.1689,1.777,-67.875,-9.5625,19.0625,121.4375,71.0625,138.125,0
1776972562.764,1.0894,1.2713,-11.9495,1.59,3.3286,-1.5457,7.95,-70.5,-105.0,11.3772,2.5977,-2.0949,0.3973,0.0669,-1.4911,-78.0,32.25,-6.0,-0.24,0.73,-3.67,-0.7658,-3.1689,1.777,-67.875,-9.5625,19.0625,121.4375,71.0625,138.125,0
1776972562.769,4.4412,1.6783,-10.8433,0.8236,4.5051,-1.7997,7.95,-70.5,-105.0,11.2264,2.8802,-2.4397,0.3973,0.0669,-1.4911,-78.0,32.25,-6.0,0.36,0.68,-3.81,-1.1334,-2.9212,1.3308,-60.5625,-5.75,26.5,121.0,69.3125,140.125,0
1776972562.774,5.5569,1.2306,-6.8929,-0.1804,4.1949,-1.6872,7.95,-70.5,-105.0,11.2264,2.8802,-2.4397,0.5606,-0.056,-1.4277,-78.3,33.45,-5.7,0.36,0.68,-3.81,-1.1334,-2.9212,1.3308,-60.5625,-5.75,26.5,121.0,69.3125,140.125,0
1776972562.779,5.5569,1.2306,-6.8929,-0.1804,4.1949,-1.6872,-0.15,-55.2,-96.6,10.4387,2.6887,-2.5259,0.5606,-0.056,-1.4277,-78.3,33.45,-5.7,1.77,0.79,-4.43,-1.5904,-2.6998,0.8901,-60.5625,-5.75,26.5,121.1875,67.875,142.4375,0
1776972562.785,5.1356,-0.328,-5.9544,-0.7821,3.1805,-1.4962,-0.15,-55.2,-96.6,10.4387,2.6887,-2.5259,0.5356,-0.1492,-1.4032,-77.7,34.05,-5.55,1.77,0.79,-4.43,-1.9384,-2.5504,0.468,-60.5625,-5.75,26.5,121.875,66.5625,145.0,0
1776972562.79,5.1356,-0.328,-5.9544,-0.7821,3.1805,-1.4962,-3.9,-51.3,-97.2,9.6295,2.0111,-2.6863,0.4509,-0.2353,-1.3819,-77.7,34.05,-5.55,5.18,0.2,-6.71,-1.9384,-2.5504,0.468,-60.5625,-5.75,26.5,122.9375,65.25,148.0,0
1776972562.8,3.7804,-2.2577,-5.8083,-0.8932,2.6803,-1.3376,-6.45,-46.8,-97.2,9.402,1.0247,-3.0502,0.4026,-0.3603,-1.3518,-78.15,34.05,-6.15,5.36,-0.56,-6.38,-2.1217,-2.7903,0.0665,-60.5625,-5.75,26.5,122.9375,65.25,148.0,0
1776972562.809,3.4955,-2.7533,-6.4308,-0.6494,2.651,-1.1876,-6.9,-45.75,-95.7,9.1051,0.6105,-3.0191,0.3499,-0.5097,-1.3059,-76.2,36.3,-7.65,4.96,-1.83,-5.82,-2.27,-3.0718,-0.2771,-60.5625,-5.75,26.5,124.3125,63.875,151.375,0
1776972562.814,4.0127,-2.4086,-8.0661,-0.3744,2.4794,-1.0152,-6.9,-45.75,-95.7,9.1051,0.6105,-3.0191,0.3499,-0.5097,-1.3059,-76.2,36.3,-7.65,4.96,-1.83,-5.82,-2.27,-3.0718,-0.2771,-60.5625,-5.75,26.5,126.0,62.5,154.6875,0
1776972562.819,4.0127,-2.4086,-8.0661,-0.3744,2.4794,-1.0152,-6.9,-45.75,-95.7,8.746,0.4812,-2.9353,0.2907,-0.6662,-1.2534,-76.2,36.3,-7.65,5.27,-4.55,-6.38,-2.354,-3.0707,-0.5334,-49.0625,-7.375,32.5,126.0,62.5,154.6875,0
1776972562.824,5.0278,-2.49,-7.3861,-0.4154,2.4392,-0.9494,-6.9,-45.75,-95.7,8.746,0.4812,-2.9353,0.2907,-0.6662,-1.2534,-76.2,36.3,-7.65,5.27,-4.55,-6.38,-2.354,-3.0707,-0.5334,-49.0625,-7.375,32.5,126.0,62.5,154.6875,0
1776972562.829,5.0278,-2.49,-7.3861,-0.4154,2.4392,-0.9494,-6.9,-45.75,-95.7,8.4443,0.5938,-2.6193,0.2182,-0.7911,-1.2087,-76.65,35.55,-7.35,6.15,-5.86,-6.96,-2.5187,-3.1809,-0.6883,-49.0625,-7.375,32.5,127.9375,61.0,158.0625,0
1776972562.834,6.0047,-3.1436,-6.7157,-0.8876,2.3257,-0.9739,-6.9,-45.75,-95.7,8.4443,0.5938,-2.6193,0.2182,-0.7911,-1.2087,-76.65,35.55,-7.35,6.15,-5.86,-6.96,-2.6518,-2.8329,-0.7483,-49.0625,-7.375,32.5,130.25,59.6875,161.1875,0
1776972562.841,6.0047,-3.1436,-6.7157,-0.8876,2.3257,-0.9739,-6.45,-44.25,-93.3,8.4204,1.0487,-2.047,0.1223,-0.8423,-1.1588,-76.65,35.55,-7.35,7.09,-6.85,-7.56,-2.6518,-2.8329,-0.7483,-49.0625,-7.375,32.5,132.625,58.375,164.0,0
1776972562.85,6.2824,-3.5482,-6.5745,-1.2303,2.4749,-1.0437,-5.4,-46.5,-91.2,8.5162,1.4533,-1.3743,0.0437,-0.8175,-1.1093,-75.3,36.9,-10.05,7.67,-7.44,-7.01,-2.6409,-2.6889,-0.685,-49.0625,-7.375,32.5,132.625,58.375,164.0,0
1776972562.86,6.3566,-3.3495,-6.6535,-1.2268,2.7598,-1.1501,-5.4,-46.8,-92.25,8.5976,1.8771,-1.0032,-0.0285,-0.7791,-1.0749,-74.1,38.55,-8.7,8.13,-6.94,-6.86,-2.5384,-2.6278,-0.4691,-49.0625,-7.375,32.5,134.9375,57.0625,166.375,0
1776972562.865,6.5314,-2.9281,-6.6631,-1.202,2.9516,-1.2582,-6.3,-45.45,-88.8,8.5976,1.8771,-1.0032,-0.0285,-0.7791,-1.0749,-75.3,38.55,-9.3,8.13,-6.94,-6.86,-2.5384,-2.6278,-0.4691,-49.0625,-7.375,32.5,134.9375,57.0625,166.375,0
1776972562.87,6.5314,-2.9281,-6.6631,-1.202,2.9516,-1.2582,-6.3,-45.45,-88.8,8.4659,2.4517,-0.7135,-0.1122,-0.7365,-1.0203,-75.3,38.55,-9.3,8.58,-6.04,-6.77,-2.3453,-2.5307,-0.1713,-37.5625,-10.5625,30.0,137.0625,55.6875,168.3125,0
1776972562.875,6.6248,-1.9968,-6.4596,-1.2356,3.0494,-1.3046,-6.3,-45.45,-88.8,8.4659,2.4517,-0.7135,-0.1122,-0.7365,-1.0203,-75.3,38.55,-9.3,8.58,-6.04,-6.77,-2.3453,-2.5307,-0.1713,-37.5625,-10.5625,30.0,137.0625,55.6875,168.3125,0
1776972562.88,6.6248,-1.9968,-6.4596,-1.2356,3.0494,-1.3046,-6.3,-45.45,-88.8,8.4587,2.7438,-0.7853,-0.2454,-0.68,-0.9531,-74.7,38.7,-9.9,9.23,-4.8,-7.12,-2.1086,-2.4096,0.0545,-37.5625,-10.5625,30.0,138.875,54.375,169.8125,0
1776972562.886,7.1826,-1.4222,-6.7397,-1.3073,2.8304,-1.2857,-6.3,-45.45,-88.8,8.4659,2.7246,-0.6847,-0.3992,-0.6784,-0.8844,-75.15,38.25,-9.15,9.51,-2.07,-7.26,-1.8424,-2.4096,0.1014,-37.5625,-10.5625,30.0,140.5,53.0625,171.0625,0
1776972562.891,7.4244,-0.6105,-6.8354,-1.1754,2.6953,-1.2756,-6.3,-45.45,-88.8,8.4659,2.7246,-0.6847,-0.3992,-0.6784,-0.8844,-75.15,38.25,-9.15,9.51,-2.07,-7.26,-1.8424,-2.4096,0.1014,-37.5625,-10.5625,30.0,141.875,51.6875,172.1875,0
1776972562.9,7.1587,-0.3831,-7.9679,-0.8639,2.5551,-1.3003,-9.6,-42.15,-87.0,8.6,2.7461,-0.5339,-0.5857,-0.6949,-0.7706,-73.35,39.6,-10.05,8.98,-1.03,-6.99,-1.5293,-2.4947,-0.0578,-37.5625,-10.5625,30.0,141.875,51.6875,172.1875,0
1776972562.91,6.7995,-0.6416,-7.7117,-0.8074,2.4594,-1.4461,-8.85,-41.7,-85.65,8.7149,2.6432,-0.261,-0.7514,-0.7354,-0.6225,-73.35,39.6,-10.05,8.43,-0.57,-6.84,-1.1716,-2.5515,-0.3523,-37.5625,-10.5625,30.0,143.125,50.3125,173.3125,0
1776972562.915,6.7995,-0.6416,-7.7117,-0.8074,2.4594,-1.4461,-7.95,-41.25,-84.0,8.7269,3.2154,-0.0239,-0.874,-0.7317,-0.4551,-73.35,39.6,-10.05,8.43,-0.57,-6.84,-1.1716,-2.5515,-0.3523,-37.5625,-10.5625,30.0,144.25,48.9375,174.375,0
1776972562.92,6.869,-2.229,-6.1962,-0.388,2.3824,-1.481,-7.95,-41.25,-84.0,8.7269,3.2154,-0.0239,-0.874,-0.7317,-0.4551,-73.65,39.0,-10.35,7.06,-2.2,-6.21,-0.8367,-2.5591,-0.7047,-33.5625,-13.25,31.25,144.25,48.9375,174.375,0
1776972562.924,6.869,-2.229,-6.1962,-0.388,2.3824,-1.481,-9.3,-40.5,-82.65,8.5042,3.4141,-0.1939,-0.7834,-0.6691,-0.3056,-73.65,39.0,-10.35,7.06,-2.2,-6.21,-0.8367,-2.5591,-0.7047,-33.5625,-13.25,31.25,144.25,48.9375,174.375,0
1776972562.93,6.3351,-2.9832,-5.8059,-0.2241,2.2537,-1.5569,-9.3,-40.5,-82.65,8.5042,3.4141,-0.1939,-0.7834,-0.6691,-0.3056,-73.65,39.0,-10.35,7.1,-3.5,-6.05,-0.5781,-2.2667,-1.0156,-33.5625,-13.25,31.25,145.3125,47.75,175.5,0
1776972562.934,6.3351,-2.9832,-5.8059,-0.2241,2.2537,-1.5569,-9.3,-40.5,-82.65,8.1882,3.3662,-0.5555,-0.6584,-0.5732,-0.182,-73.65,39.0,-10.35,7.1,-3.5,-6.05,-0.4505,-2.066,-1.177,-33.5625,-13.25,31.25,146.375,46.625,176.5,0
1776972562.941,5.624,-3.4069,-5.1451,-0.2305,2.1698,-1.618,-9.3,-40.5,-82.65,8.1882,3.3662,-0.5555,-0.6584,-0.5732,-0.182,-72.45,39.45,-10.35,6.98,-4.26,-5.71,-0.4505,-2.066,-1.177,-33.5625,-13.25,31.25,147.4375,45.625,177.5,0
1776972562.95,6.0382,-4.4867,-5.1906,-0.3227,2.1645,-1.6542,-9.75,-40.5,-82.2,7.9033,3.4836,-0.6656,-0.4794,-0.4636,-0.0751,-73.35,38.55,-9.75,7.12,-4.81,-5.58,-0.432,-1.886,-1.1541,-33.5625,-13.25,31.25,147.4375,45.625,177.5,0
1776972562.96,5.9209,-4.8794,-5.4372,-0.5564,2.0384,-1.7379,-8.85,-40.95,-79.95,7.5824,3.5434,-0.6321,-0.214,-0.3533,0.0253,-73.95,39.45,-8.85,7.88,-4.68,-5.55,-0.4745,-1.6952,-0.9916,-33.5625,-13.25,31.25,151.875,44.6875,178.3125,0
1776972562.965,5.9209,-4.8794,-5.4372,-0.5564,2.0384,-1.7379,-8.1,-38.7,-79.2,7.4005,3.7326,-0.3879,0.0256,-0.2302,0.1543,-73.95,39.45,-8.85,7.88,-4.68,-5.55,-0.4745,-1.6952,-0.9916,-33.5625,-13.25,31.25,151.5625,43.8125,179.0625,0
1776972562.97,5.6695,-5.193,-5.5402,-0.6757,2.12,-1.7813,-8.1,-38.7,-79.2,7.4005,3.7326,-0.3879,0.0256,-0.2302,0.1543,-73.05,40.8,-10.5,8.11,-4.42,-5.15,-0.4974,-1.5806,-0.7581,-27.25,-12.0625,31.1875,151.5625,43.8125,179.0625,0
1776972562.975,5.6695,-5.193,-5.5402,-0.6757,2.12,-1.7813,-7.8,-39.45,-79.5,7.2472,3.7493,-0.2753,0.1673,-0.1585,0.2982,-73.05,40.8,-10.5,8.11,-4.42,-5.15,-0.4974,-1.5806,-0.7581,-27.25,-12.0625,31.1875,151.375,43.0625,179.5625,0
1776972562.98,5.4971,-4.786,-5.5569,-0.68,2.2793,-1.8423,-7.8,-39.45,-79.5,7.2472,3.7493,-0.2753,0.1673,-0.1585,0.2982,-73.05,40.8,-11.55,8.84,-3.95,-5.15,-0.4974,-1.4246,-0.5203,-27.25,-12.0625,31.1875,151.375,43.0625,179.5625,0
1776972562.988,6.0286,-3.8283,-5.9089,-0.6249,2.4277,-1.8916,-9.3,-38.55,-77.55,7.0485,3.5147,-0.1221,0.2902,-0.1199,0.445,-74.1,40.05,-10.5,12.94,-2.29,-7.63,-0.5116,-1.2414,-0.3709,-27.25,-12.0625,31.1875,151.25,42.375,-179.875,0
1776972562.993,6.0286,-3.8283,-5.9089,-0.6249,2.4277,-1.8916,-9.3,-38.55,-77.55,6.8857,3.1556,-0.0575,0.4159,-0.0954,0.5931,-74.1,40.05,-10.5,12.94,-2.29,-7.63,-0.5116,-1.2414,-0.3709,-27.25,-12.0625,31.1875,151.1875,41.5625,-179.375,0
1776972563.001,6.8139,-3.0287,-6.7349,-0.6627,2.4616,-1.8826,-9.3,-38.55,-77.55,6.7684,3.1484,-0.1341,0.4159,-0.0954,0.5931,-74.1,40.05,-10.5,14.04,-1.02,-8.28,-0.5792,-1.405,-0.4058,-27.25,-12.0625,31.1875,150.9375,40.625,-178.75,0
1776972563.01,8.078,-2.3607,-6.7564,-0.5638,2.3446,-1.8426,-8.4,-36.15,-74.55,6.7205,3.0191,-0.1963,0.5558,-0.0663,0.7477,-75.9,39.45,-10.35,13.72,0.06,-7.8,-0.5989,-1.7224,-0.5967,-27.25,-12.0625,31.1875,150.9375,40.625,-178.75,0
1776972563.015,8.078,-2.3607,-6.7564,-0.5638,2.3446,-1.8426,-9.9,-36.9,-75.6,6.7205,3.0191,-0.1963,0.6622,-0.0522,0.9118,-75.9,39.45,-10.35,13.72,0.06,-7.8,-0.5989,-1.7224,-0.5967,-27.25,-12.0625,31.1875,150.9375,40.625,-178.75,0
1776972563.02,8.2097,-1.731,-6.122,-0.2156,2.3502,-1.7944,-9.9,-36.9,-75.6,6.7995,2.9808,-0.3065,0.6893,-0.0013,1.069,-75.9,39.45,-10.35,11.53,0.33,-5.15,-0.4843,-2.1424,-0.8247,-26.5,-9.75,27.0625,150.625,39.4375,-178.125,0
1776972563.025,8.2097,-1.731,-6.122,-0.2156,2.3502,-1.7944,-9.3,-33.3,-72.9,6.7995,2.9808,-0.3065,0.6893,-0.0013,1.069,-75.9,39.45,-10.35,11.53,0.33,-5.15,-0.4843,-2.1424,-0.8247,-26.5,-9.75,27.0625,150.625,39.4375,-178.125,0
1776972563.03,8.2049,-0.7015,-5.3774,0.1871,2.0627,-1.7328,-9.3,-33.3,-72.9,7.106,3.067,-0.6009,0.6853,0.0493,1.2215,-74.4,38.7,-10.65,10.96,0.1,-4.17,-0.2738,-2.3093,-1.0352,-26.5,-9.75,27.0625,150.125,38.125,-177.5625,0
1776972563.035,8.2049,-0.7015,-5.3774,0.5215,1.8383,-1.676,-9.9,-32.4,-71.7,7.106,3.067,-0.6009,0.6853,0.0493,1.2215,-74.4,38.7,-10.65,10.96,0.1,-4.17,-0.1254,-2.3027,-1.2283,-26.5,-9.75,27.0625,149.5,36.8125,-177.0,0
1776972563.041,8.0685,-0.8164,-5.4372,0.5215,1.8383,-1.676,-9.75,-30.3,-70.8,7.2664,3.0335,-0.7494,0.579,0.125,1.3749,-75.3,39.3,-12.0,10.47,-0.1,-3.07,-0.1254,-2.3027,-1.2283,-26.5,-9.75,27.0625,148.75,35.5625,-176.5,0
1776972563.05,8.3175,-0.9266,-4.7812,0.9196,1.7368,-1.6846,-9.75,-30.3,-70.8,7.2664,3.0287,-0.9026,0.4069,0.2433,1.5348,-76.05,38.85,-11.55,10.61,-0.2,-3.04,0.0338,-2.1053,-1.4104,-26.5,-9.75,27.0625,147.875,34.4375,-176.0,0
1776972563.06,8.442,-1.5323,-4.2904,1.2838,1.8191,-1.6731,-9.75,-30.3,-70.8,7.252,2.909,-0.8882,0.2014,0.3595,1.6774,-76.65,37.05,-11.1,10.65,-0.19,-2.02,0.1702,-1.9722,-1.573,-26.5,-9.75,27.0625,147.875,34.4375,-176.0,0
1776972563.065,8.9854,-1.822,-3.0502,1.5791,1.6212,-1.6177,-11.85,-24.75,-70.5,7.252,2.909,-0.8882,0.2014,0.3595,1.6774,-76.65,37.05,-11.1,10.65,-0.19,-2.02,0.1702,-1.9722,-1.573,-26.5,-9.75,27.0625,146.875,33.375,-175.5625,0
1776972563.07,8.9854,-1.822,-3.0502,1.5791,1.6212,-1.6177,-11.85,-24.75,-70.5,7.0797,2.794,-0.9625,0.0453,0.4575,1.7872,-76.65,37.5,-11.4,10.93,-0.02,-1.75,0.2051,-1.7551,-1.7115,-30.5625,-8.1875,30.375,146.875,33.375,-175.5625,0
1776972563.075,9.9216,-2.4397,-3.2968,1.7387,1.4994,-1.5098,-10.05,-22.05,-70.5,7.0797,2.794,-0.9625,0.0453,0.4575,1.7872,-76.65,37.5,-11.4,10.93,-0.02,-1.75,0.2051,-1.7551,-1.7115,-30.5625,-8.1875,30.375,145.875,32.5,-175.125,0
1776972563.08,9.9216,-2.4397,-3.2968,1.7387,1.4994,-1.5098,-10.05,-20.55,-69.45,7.185,2.8467,-1.0367,-0.0197,0.5385,1.8903,-76.65,36.3,-11.4,10.89,0.52,-2.05,0.2891,-1.4573,-1.7824,-30.5625,-8.1875,30.375,145.875,32.5,-175.125,0
1776972563.088,10.5153,-2.5139,-2.8754,1.9132,1.2532,-1.3851,-10.05,-20.55,-69.45,7.5082,2.4277,-1.0319,-0.0384,0.5934,1.9891,-76.65,36.3,-11.4,11.25,0.39,-0.51,0.4505,-1.3374,-1.849,-30.5625,-8.1875,30.375,144.8125,31.6875,-174.75,0
1776972563.093,10.5153,-2.5139,-2.8754,1.9132,1.2532,-1.3851,-10.35,-17.7,-68.1,7.5082,2.4277,-1.0319,-0.0384,0.5934,1.9891,-76.65,36.3,-11.4,11.25,0.39,-0.51,0.4505,-1.3374,-1.849,-30.5625,-8.1875,30.375,143.75,31.0625,-174.5,0
1776972563.101,12.3158,-2.4804,-2.0375,2.059,1.1223,-1.2249,-9.75,-17.25,-69.0,7.7333,3.1364,-2.1141,0.0637,0.6667,2.0568,-78.75,34.2,-10.5,11.84,-0.52,-0.93,0.5781,-0.9425,-1.8391,-30.5625,-8.1875,30.375,142.625,30.75,-174.1875,0
1776972563.11,14.1042,-2.0255,-2.6264,2.108,0.9294,-1.019,-9.75,-17.25,-69.0,8.6335,4.3,-2.8659,0.2846,0.6752,2.0598,-78.75,34.2,-10.5,18.58,0.87,-1.52,0.564,-0.4134,-1.898,-30.5625,-8.1875,30.375,142.625,30.75,-174.1875,0
1776972563.115,17.6836,-0.3783,-1.1325,2.145,0.6323,-0.6081,-9.75,-17.25,-69.0,10.6039,6.031,-3.1963,0.2846,0.6752,2.0598,-78.75,34.2,-10.5,18.58,0.87,-1.52,0.564,-0.4134,-1.898,-30.5625,-8.1875,30.375,142.625,30.75,-174.1875,0
1776972563.12,17.6836,-0.3783,-1.1325,2.145,0.6323,-0.6081,-7.8,-13.2,-67.5,10.6039,6.031,-3.1963,0.6259,0.6025,2.0078,-80.1,31.95,-9.15,19.24,-12.02,7.74,0.7614,1.153,-1.6657,-30.25,-11.5,37.0,141.5625,31.3125,-174.0,0
1776972563.125,20.1161,-0.5531,-0.1772,2.5325,0.0282,0.012,-7.8,-13.2,-67.5,13.3237,8.4994,-3.6176,0.6259,0.6025,2.0078,-80.1,31.95,-9.15,19.24,-12.02,7.74,0.7614,1.153,-1.6657,-30.25,-11.5,37.0,141.5625,31.3125,-174.0,0
1776972563.13,20.1161,-0.5531,-0.1772,2.5325,0.0282,0.012,-6.9,-11.55,-68.4,13.3237,8.4994,-3.6176,1.028,0.4557,1.85,-80.85,32.85,-10.35,32.02,-18.03,-13.51,2.4151,1.97,-0.5607,-30.25,-11.5,37.0,140.8125,32.3125,-175.125,0
1776972563.136,18.6844,-3.3639,0.4573,2.6223,-0.6542,0.6811,-6.9,-11.55,-68.4,15.2175,10.0245,-3.0047,1.1029,0.3349,1.5511,-80.85,32.85,-10.35,32.02,-18.03,-13.51,2.2155,2.6027,-0.6403,-30.25,-11.5,37.0,140.0,33.75,-176.0,0
1776972563.141,18.6844,-3.3639,0.4573,2.6223,-0.6542,0.6811,-3.9,-8.55,-69.75,15.2175,10.0245,-3.0047,1.1029,0.3349,1.5511,-81.15,30.9,-9.9,24.36,-12.91,-16.3,2.2155,2.6027,-0.6403,-30.25,-11.5,37.0,139.75,33.125,-175.9375,0
1776972563.151,13.2735,-5.849,-0.0886,1.4093,-0.8516,1.1143,-4.05,-7.2,-70.95,14.801,8.9399,-1.652,0.8092,0.4652,1.185,-80.4,29.7,-10.35,7.25,-2.25,-9.0,0.1407,-1.1443,-0.4952,-30.25,-11.5,37.0,139.75,33.125,-175.9375,0
1776972563.161,10.5752,-3.6823,-0.8667,-0.0261,-0.8729,1.194,-1.5,-7.65,-69.9,14.2072,5.9927,0.7159,0.7834,0.6134,0.9659,-82.65,28.05,-9.9,-4.17,6.1,-8.57,-1.0396,-2.3987,-0.3218,-30.25,-11.5,37.0,139.8125,31.75,-175.3125,0
1776972563.165,7.2592,1.0104,-0.6752,-0.0024,-1.1242,0.8066,-1.5,-7.65,-69.9,10.58,2.4924,0.8882,0.9537,0.7266,0.91,-82.65,28.05,-9.9,-4.17,6.1,-8.57,-1.0396,-2.3987,-0.3218,-30.25,-11.5,37.0,139.9375,30.6875,-174.8125,0
1776972563.17,7.2592,1.0104,-0.6752,1.469,-0.3714,0.0506,-1.5,-7.65,-69.9,10.58,2.4924,0.8882,0.9537,0.7266,0.91,-82.35,28.5,-8.85,-2.62,13.07,-4.91,-1.0156,-1.9733,-0.0905,-31.5625,-13.75,38.25,139.9375,30.6875,-174.8125,0
1776972563.175,6.7924,4.6495,0.5483,1.469,-0.3714,0.0506,-1.5,-7.65,-69.9,8.4108,0.9146,0.826,0.8223,0.9705,0.9358,-82.35,28.5,-8.85,-2.62,13.07,-4.91,-1.0156,-1.9733,-0.0905,-31.5625,-13.75,38.25,140.1875,30.25,-174.75,0
1776972563.181,10.5848,4.3263,5.4564,1.0509,1.412,-0.2361,-2.1,-3.0,-68.4,8.4108,0.9146,0.826,0.8223,0.9705,0.9358,-82.35,28.5,-8.85,3.75,5.08,-5.3,-0.2574,-0.7854,0.324,-31.5625,-13.75,38.25,140.1875,30.25,-174.75,0
1776972563.19,10.8481,1.1037,2.9066,-1.0616,1.279,0.0624,-4.5,0.15,-68.55,7.7405,0.4166,0.6081,0.5971,0.963,1.0344,-82.35,28.5,-8.85,5.01,-3.81,-9.58,0.4287,0.3632,0.2203,-31.5625,-13.75,38.25,140.25,30.4375,-175.0625,0
1776972563.2,10.6973,-0.8236,-3.0358,-1.8612,0.9238,0.2547,-4.95,-1.5,-67.2,7.343,0.2394,-0.5004,0.3917,0.7869,1.076,-82.35,28.5,-8.85,2.63,2.0,-7.56,0.2476,-0.0098,0.1996,-31.5625,-13.75,38.25,140.3125,30.4375,-175.25,0
1776972563.208,10.6973,-0.8236,-3.0358,-1.8612,0.9238,0.2547,-4.8,-2.7,-69.15,7.2712,0.8356,-2.387,0.1599,0.6654,1.0059,-82.35,28.5,-8.85,1.85,4.61,-6.86,0.0022,-0.1614,0.2334,-31.5625,-13.75,38.25,140.4375,30.375,-175.375,0
1776972563.213,8.6311,0.3304,-3.0885,-0.0666,0.5814,0.117,-4.8,-2.7,-69.15,7.7141,1.324,-3.7972,-0.0187,0.5572,0.8833,-85.05,27.75,-7.65,1.85,4.61,-6.86,0.0022,-0.1614,0.2334,-31.5625,-13.75,38.25,140.4375,30.375,-175.375,0
1776972563.217,8.6311,0.3304,-3.0885,-0.0666,0.5814,0.117,-7.2,0.0,-70.05,7.7141,1.324,-3.7972,-0.0187,0.5572,0.8833,-85.05,27.75,-7.65,6.2,-0.03,-9.14,0.0829,0.1734,0.3229,-30.25,-14.5,38.5,140.5625,30.5,-175.5,0
1776972563.222,8.9423,1.4533,-1.1803,1.8532,0.7775,-0.089,-7.2,0.0,-70.05,8.5521,1.2977,-4.3239,-0.1412,0.502,0.8138,-84.0,27.15,-9.0,6.2,-0.03,-9.14,0.0829,0.1734,0.3229,-30.25,-14.5,38.5,140.5625,30.5,-175.5,0
1776972563.227,8.9423,1.4533,-1.1803,1.8532,0.7775,-0.089,-7.2,0.0,-70.05,8.5521,1.2977,-4.3239,-0.1412,0.502,0.8138,-84.0,27.15,-9.0,6.53,0.01,-8.64,0.2945,0.7799,0.4123,-30.25,-14.5,38.5,140.75,30.9375,-175.8125,0
1776972563.232,10.4339,1.4437,-0.9505,1.6902,0.6547,-0.0184,-7.2,0.0,-70.05,9.256,0.8308,-3.4285,-0.247,0.4714,0.8162,-84.6,25.8,-8.1,6.53,0.01,-8.64,0.2945,0.7799,0.4123,-30.25,-14.5,38.5,140.9375,31.375,-176.125,0
1776972563.241,10.671,-0.3615,-1.9609,0.6813,0.3195,0.1679,-8.25,6.75,-74.4,9.7803,0.1604,-1.5227,-0.247,0.4714,0.8162,-84.15,25.8,-7.65,6.06,-0.04,-8.66,0.3676,0.7123,0.3992,-30.25,-14.5,38.5,141.0,31.75,-176.375,0
1776972563.251,10.0844,-2.1596,-3.2777,0.2284,0.1156,0.2038,-7.95,8.25,-74.4,9.9862,-0.3089,0.2011,-0.3046,0.4583,0.8402,-84.15,24.6,-6.6,5.99,-0.23,-8.81,0.4025,0.733,0.2651,-30.25,-14.5,38.5,141.0,31.75,-176.375,0
1776972563.261,9.4212,-2.5211,-3.2992,0.3064,-0.1069,0.2318,-8.85,7.65,-76.65,9.9503,-0.6249,1.2091,-0.0221,0.5217,0.8929,-83.85,24.15,-7.65,5.9,-0.37,-8.9,0.3512,0.4887,0.2127,-30.25,-14.5,38.5,141.0625,32.0625,-176.6875,0
1776972563.265,9.4212,-2.5211,-3.2992,0.3064,-0.1069,0.2318,-8.85,7.65,-76.65,9.9503,-0.6249,1.2091,-0.0221,0.5217,0.8929,-83.85,24.15,-7.65,5.9,-0.37,-8.9,0.3512,0.4887,0.2127,-30.25,-14.5,38.5,141.0625,32.0625,-176.6875,0
1776972563.271,8.8131,-2.5283,-2.727,0.4405,-0.1178,0.2936,-7.05,6.15,-75.6,9.7205,-0.6608,1.3623,0.1607,0.5814,0.9324,-83.85,24.15,-7.65,6.01,-0.74,-8.96,0.2171,0.1145,0.2236,-30.5,-14.5,38.0,141.125,32.125,-176.875,0
1776972563.275,8.8131,-2.5283,-2.727,0.4405,-0.1178,0.2936,-7.05,6.15,-75.6,9.7205,-0.6608,1.3623,0.1607,0.5814,0.9324,-83.85,24.15,-7.65,6.01,-0.74,-8.96,0.2171,0.1145,0.2236,-30.5,-14.5,38.0,141.125,32.125,-176.875,0
1776972563.281,8.1044,-1.6735,-2.4588,0.3307,0.0685,0.3259,-7.05,6.15,-75.6,9.3685,-0.4764,1.3719,0.2078,0.6315,0.9808,-85.2,23.55,-7.5,5.21,0.27,-8.49,-0.012,-0.0676,0.1505,-30.5,-14.5,38.0,141.1875,32.0625,-176.875,0
1776972563.289,8.6383,-0.7805,-3.644,0.3437,0.0354,0.3211,-7.05,6.15,-75.6,9.0501,-0.2227,1.233,0.2078,0.6315,0.9808,-85.2,23.55,-7.5,5.2,0.43,-8.32,-0.1887,-0.1058,0.072,-30.5,-14.5,38.0,141.3125,32.0625,-176.8125,0
1776972563.294,8.6383,-0.7805,-3.644,0.3437,0.0354,0.3211,-7.05,6.15,-75.6,9.0501,-0.2227,1.233,0.222,0.6278,1.0222,-85.2,23.55,-7.5,5.2,0.43,-8.32,-0.1887,-0.1058,0.072,-30.5,-14.5,38.0,141.3125,32.0,-176.75,0
1776972563.301,8.8705,-0.4669,-2.3152,0.5963,0.2832,0.2689,-10.8,2.25,-73.35,9.0261,0.395,0.7925,0.2417,0.5609,1.0576,-85.95,23.25,-5.25,4.95,0.48,-8.3,-0.1396,-0.024,0.0393,-30.5,-14.5,38.0,141.375,32.0625,-176.75,0
1776972563.311,9.3494,-0.8954,-1.0965,0.5196,0.3539,0.2798,-9.3,0.3,-71.55,9.1028,0.8212,0.3352,0.2425,0.4855,1.0949,-85.05,22.65,-6.15,5.03,0.42,-8.45,-0.0251,0.0207,0.0415,-30.5,-14.5,38.0,141.375,32.0625,-176.75,0
1776972563.316,9.8569,-1.063,-0.644,0.4263,0.421,0.2862,-9.15,0.9,-71.55,9.1028,0.8212,0.3352,0.2425,0.4855,1.0949,-85.05,22.65,-6.15,5.03,0.42,-8.45,-0.0251,0.0207,0.0415,-30.5,-14.5,38.0,141.375,32.0625,-176.75,0
1776972563.321,9.8569,-1.063,-0.644,0.4263,0.421,0.2862,-9.15,0.9,-72.45,9.2368,0.7925,0.1197,0.2497,0.4647,1.1381,-86.7,22.8,-6.45,5.05,0.3,-8.49,-0.0164,0.0916,0.0316,-31.1875,-13.75,37.875,141.375,32.0625,-176.75,0
1776972563.326,10.1251,-0.9649,0.2658,0.4106,0.551,0.2699,-8.1,1.2,-71.4,9.2368,0.7925,0.1197,0.2497,0.4647,1.1381,-86.7,22.8,-6.45,5.05,0.3,-8.49,-0.0164,0.0916,0.0316,-31.1875,-13.75,37.875,141.375,32.1875,-176.75,0
1776972563.331,10.1251,-0.9649,0.2658,0.4106,0.551,0.2699,-8.1,1.2,-71.4,9.5385,0.7853,-0.2155,0.3118,0.4647,1.1548,-86.25,20.4,-4.95,5.56,0.45,-8.36,0.0229,0.2334,-0.0142,-31.1875,-13.75,37.875,141.375,32.1875,-176.75,0
1776972563.336,10.738,0.2753,1.1612,0.3557,0.5033,0.32,-8.1,1.2,-71.4,9.5385,0.7853,-0.2155,0.3118,0.4647,1.1548,-86.25,20.4,-4.95,5.56,0.45,-8.36,0.0665,0.2629,-0.0578,-31.1875,-13.75,37.875,141.3125,32.375,-176.75,0
1776972563.342,10.738,0.2753,1.1612,0.3557,0.5033,0.32,-8.1,1.2,-71.4,9.6055,0.8715,-0.6488,0.3776,0.4546,1.0973,-85.95,21.3,-4.5,5.61,0.49,-8.4,0.0665,0.2629,-0.0578,-31.1875,-13.75,37.875,141.25,32.5,-176.8125,0
1776972563.351,10.3956,1.4174,2.1332,0.3437,0.2923,0.4122,-8.1,1.2,-71.4,9.6031,1.324,-0.8763,0.4466,0.486,0.9465,-86.55,20.7,-4.05,5.6,0.37,-8.34,0.0665,0.2258,-0.0796,-31.1875,-13.75,37.875,141.25,32.5,-176.8125,0
1776972563.361,10.2185,1.6568,3.0957,0.2228,0.1498,0.4748,-7.5,2.25,-73.35,9.6582,1.47,-0.6943,0.5367,0.4943,0.752,-86.55,20.7,-4.05,5.16,0.22,-8.17,0.06,0.1702,-0.0982,-31.1875,-13.75,37.875,141.1875,32.5625,-176.75,0
1776972563.366,10.319,1.9034,3.2298,-0.0322,0.0083,0.5604,-5.25,4.65,-73.5,9.8665,1.6161,-0.2825,0.5367,0.4943,0.752,-86.55,20.7,-4.05,5.16,0.22,-8.17,0.06,0.1702,-0.0982,-31.1875,-13.75,37.875,141.1875,32.5625,-176.75,0
1776972563.371,10.319,1.9034,3.2298,-0.0322,0.0083,0.5604,-5.25,4.65,-73.5,9.8665,1.6161,-0.2825,0.5601,0.4668,0.5276,-86.55,20.25,-5.1,4.78,0.26,-8.23,0.0524,0.1047,-0.1036,-32.25,-13.0,38.375,141.125,32.625,-176.75,0
1776972563.376,9.8881,1.3384,2.1069,-0.1175,-0.2217,0.6243,-4.95,6.3,-75.15,10.1873,1.5586,0.2538,0.4852,0.4618,0.3267,-86.55,20.25,-5.1,4.78,0.26,-8.23,0.0524,0.1047,-0.1036,-32.25,-13.0,38.375,141.125,32.625,-176.75,0
1776972563.381,9.8881,1.3384,2.1069,-0.1175,-0.2217,0.6243,-4.95,6.3,-75.15,10.1873,1.5586,0.2538,0.4852,0.4618,0.3267,-86.55,20.25,-5.1,4.66,0.52,-8.21,0.0044,-0.0131,-0.0894,-32.25,-13.0,38.375,141.0625,32.625,-176.75,0
1776972563.388,10.41,1.5012,1.4868,0.0589,-0.1412,0.6142,-3.45,9.45,-77.1,10.5728,1.5514,1.0175,0.319,0.4501,0.2028,-86.55,20.25,-5.1,4.08,1.17,-8.35,-0.0371,-0.0109,-0.0785,-32.25,-13.0,38.375,141.0625,32.625,-176.6875,0
1776972563.393,10.8577,0.5722,0.7087,0.2241,0.1407,0.5164,-3.45,9.45,-77.1,10.5728,1.5514,1.0175,0.319,0.4501,0.2028,-88.2,17.7,-3.0,4.08,1.17,-8.35,-0.0371,-0.0109,-0.0785,-32.25,-13.0,38.375,141.0,32.625,-176.625,0
1776972563.401,10.8577,0.5722,0.7087,0.2241,0.1407,0.5164,-3.45,9.45,-77.1,10.4938,1.3336,1.5467,0.1537,0.4301,0.1482,-87.6,19.5,-4.35,4.06,1.34,-8.21,-0.048,0.0109,-0.0382,-32.25,-13.0,38.375,141.0625,32.6875,-176.625,0
1776972563.411,10.9678,-0.9673,-0.3591,0.2593,0.1095,0.3914,-3.6,18.0,-79.8,10.0628,1.1396,1.8962,-0.0072,0.4194,0.1455,-87.0,19.65,-4.95,4.18,1.13,-8.56,-0.0709,0.1625,0.0251,-32.25,-13.0,38.375,141.0625,32.6875,-176.625,0
1776972563.416,10.3525,-3.4596,-0.2969,0.1575,0.1346,0.336,-2.4,20.25,-79.8,9.8952,0.9026,1.7071,-0.162,0.3533,0.1748,-87.0,19.65,-4.95,4.18,1.13,-8.56,-0.0709,0.1625,0.0251,-32.25,-13.0,38.375,141.0625,32.6875,-176.625,0
1776972563.421,10.3525,-3.4596,-0.2969,0.1575,0.1346,0.336,-2.4,20.25,-79.8,9.8952,0.9026,1.7071,-0.162,0.3533,0.1748,-88.2,18.45,-4.5,4.96,0.74,-8.49,-0.0709,0.3305,0.0851,-32.875,-12.6875,37.875,141.125,32.875,-176.625,0
1776972563.426,10.0413,-4.2976,-1.1564,0.0224,-0.0749,0.3984,-2.7,21.45,-79.5,9.8857,0.3089,1.166,-0.2377,0.2441,0.2078,-88.2,18.45,-4.5,4.96,0.74,-8.49,-0.0709,0.3305,0.0851,-32.875,-12.6875,37.875,141.125,32.875,-176.625,0
1776972563.431,10.0413,-4.2976,-1.1564,0.0224,-0.0749,0.3984,-2.7,21.45,-79.5,9.8857,0.3089,1.166,-0.2377,0.2441,0.2078,-85.95,18.15,-4.95,5.61,0.38,-8.35,-0.0305,0.5149,0.0993,-32.875,-12.6875,37.875,141.125,33.1875,-176.625,0
1776972563.436,9.5122,-3.9409,-1.008,0.1106,-0.2268,0.457,-2.25,19.2,-79.95,9.7588,-0.3352,0.5171,-0.2137,0.1943,0.2574,-85.95,18.15,-4.95,5.61,0.38,-8.35,0.0175,0.6021,0.0807,-32.875,-12.6875,37.875,141.1875,33.5,-176.625,0
1776972563.442,10.1107,-2.1117,-0.5219,0.2148,-0.0725,0.3741,-2.25,19.2,-79.95,9.7181,-0.8835,0.3448,-0.2137,0.1943,0.2574,-86.25,19.35,-4.2,6.19,0.15,-8.63,0.0175,0.6021,0.0807,-32.875,-12.6875,37.875,141.1875,33.8125,-176.625,0
1776972563.451,10.1466,-0.814,0.2705,-0.0029,-0.0645,0.304,-1.95,15.9,-79.5,9.7181,-0.8835,0.3448,-0.2022,0.1951,0.3019,-86.25,19.35,-4.2,5.85,0.42,-8.15,0.0207,0.5825,0.0316,-32.875,-12.6875,37.875,141.1875,34.0625,-176.625,0
1776972563.461,9.5768,-0.9864,0.2538,-0.0898,-0.0895,0.2681,-1.95,15.9,-79.5,9.754,-1.5802,1.6137,-0.227,0.2132,0.32,-85.95,19.35,-3.45,5.66,0.78,-8.26,-0.0076,0.4571,-0.0087,-32.875,-12.6875,37.875,141.1875,34.0625,-176.625,0
1776972563.466,9.5768,-0.9864,0.2538,-0.0898,-0.0895,0.2681,-2.4,10.05,-79.8,9.754,-1.5802,1.6137,-0.1948,0.2521,0.2955,-85.95,19.35,-3.45,5.66,0.78,-8.26,-0.0076,0.4571,-0.0087,-32.875,-12.6875,37.875,141.1875,34.3125,-176.625,0
1776972563.471,9.244,-1.4389,-0.0383,0.0181,-0.0909,0.2465,-2.4,10.05,-79.8,9.754,-1.3982,2.0782,-0.1948,0.2521,0.2955,-85.95,19.35,-3.45,5.78,0.72,-8.13,-0.0142,0.3512,-0.0131,-32.5,-13.0,37.5,141.1875,34.3125,-176.625,0
1776972563.476,9.244,-1.4389,-0.0383,0.0181,-0.0909,0.2465,-4.05,9.9,-79.95,9.754,-1.3982,2.0782,-0.1556,0.2627,0.2358,-85.95,19.35,-3.45,5.78,0.72,-8.13,-0.0142,0.3512,-0.0131,-32.5,-13.0,37.5,141.1875,34.4375,-176.625,0
1776972563.481,9.007,-1.5562,0.0287,0.1029,-0.0373,0.2238,-4.05,9.9,-79.95,9.6319,-0.8619,2.2769,-0.1556,0.2627,0.2358,-87.3,19.95,-3.3,5.76,0.52,-8.08,-0.0033,0.2651,0.0087,-32.5,-13.0,37.5,141.1875,34.4375,-176.625,0
1776972563.491,9.1746,-1.5203,-0.4525,0.0464,0.0293,0.2225,-2.7,9.15,-79.5,9.6798,-0.3783,2.3511,-0.0557,0.2238,0.1077,-89.1,18.3,-2.85,5.23,0.6,-8.3,-0.0044,0.0447,0.036,-32.5,-13.0,37.5,141.1875,34.5,-176.625,0
1776972563.501,9.2656,-1.324,-0.8404,-0.0157,0.0562,0.2313,-4.35,10.05,-80.1,9.4978,-0.0934,2.2745,0.0341,0.1903,0.0842,-87.6,18.75,-3.3,5.51,0.57,-8.15,0.0175,0.0295,0.0404,-32.5,-13.0,37.5,141.1875,34.5,-176.625,0
1776972563.506,9.2656,-1.324,-0.8404,-0.0157,0.0562,0.2313,-5.4,10.5,-79.8,9.4978,-0.0934,2.2745,0.0341,0.1903,0.0842,-87.6,18.75,-3.3,5.51,0.57,-8.15,0.0251,0.2269,0.024,-32.5,-13.0,37.5,141.1875,34.625,-176.6875,0
1776972563.512,9.3757,-1.3695,-0.9529,-0.0141,0.0147,0.2406,-5.4,10.5,-79.8,9.4475,0.1053,2.2649,0.1335,0.1759,0.0733,-88.2,18.15,-4.5,5.73,0.49,-8.13,0.0251,0.2269,0.024,-32.5,-13.0,37.5,141.1875,34.625,-176.6875,0
1776972563.517,9.3757,-1.3695,-0.9529,-0.0141,0.0147,0.2406,-5.4,10.5,-79.8,9.4475,0.1053,2.2649,0.1335,0.1759,0.0733,-88.2,18.15,-4.5,5.73,0.49,-8.13,0.0251,0.2269,0.024,-34.25,-13.0,37.0625,141.1875,34.75,-176.6875,0
1776972563.522,9.4643,-1.3001,-1.0918,0.0469,-0.0805,0.2422,-5.4,10.5,-79.8,9.4403,0.0503,2.0877,0.2483,0.1628,0.0746,-88.05,18.75,-4.05,5.66,0.47,-8.09,0.0284,0.2236,0.0229,-34.25,-13.0,37.0625,141.1875,34.75,-176.6875,0
1776972563.527,9.4643,-1.3001,-1.0918,0.0469,-0.0805,0.2422,-3.45,10.65,-79.2,9.4403,0.0503,2.0877,0.2483,0.1628,0.0746,-88.05,18.75,-4.05,5.66,0.47,-8.09,0.0284,0.2236,0.0229,-34.25,-13.0,37.0625,141.25,34.8125,-176.6875,0
1776972563.532,9.4284,-1.5012,-1.3479,0.1138,-0.122,0.2233,-4.35,10.05,-79.2,9.3709,0.0144,1.7023,0.3384,0.1436,0.0893,-89.4,18.15,-1.95,5.47,0.53,-8.14,0.0251,0.1887,0.0196,-34.25,-13.0,37.0625,141.25,34.8125,-176.6875,0
1776972563.537,9.4284,-1.5012,-1.3479,0.1138,-0.122,0.2233,-4.35,10.05,-78.3,9.3709,0.0144,1.7023,0.3384,0.1436,0.0893,-89.4,18.15,-1.95,5.47,0.53,-8.14,0.0131,0.1898,0.0185,-34.25,-13.0,37.0625,141.25,34.9375,-176.6875,0
1776972563.542,9.4763,-1.8818,-1.6328,0.1721,-0.1276,0.1807,-4.35,9.75,-79.35,9.3374,-0.0718,1.2641,0.4343,0.1468,0.1106,-89.4,18.15,-1.95,5.56,0.48,-8.03,0.0131,0.1898,0.0185,-34.25,-13.0,37.0625,141.25,34.9375,-176.6875,0
1776972563.551,9.5648,-1.8938,-1.5778,0.234,-0.1087,0.1228,-4.35,9.75,-79.35,9.426,-0.1891,0.9912,0.5409,0.1535,0.1428,-88.2,20.1,-1.95,5.37,0.43,-8.07,0.0371,0.1811,0.0185,-34.25,-13.0,37.0625,141.25,35.0625,-176.75,0
1776972563.556,9.5648,-1.8938,-1.5778,0.234,-0.1087,0.1228,-4.35,10.8,-79.05,9.426,-0.1891,0.9912,0.5409,0.1535,0.1428,-88.2,20.1,-2.7,5.37,0.43,-8.07,0.0589,0.1418,0.0196,-34.25,-13.0,37.0625,141.25,35.125,-176.75,0
1776972563.562,9.7588,-2.3918,-1.1277,0.2276,0.0173,0.0743,-3.9,10.05,-77.55,9.5457,-0.3017,0.7781,0.6376,0.1756,0.1713,-88.2,20.1,-2.7,5.66,0.51,-8.09,0.0589,0.1418,0.0196,-34.25,-13.0,37.0625,141.25,35.125,-176.75,0
1776972563.567,9.7588,-2.3918,-1.1277,0.2446,-0.0445,0.0677,-3.9,10.05,-77.55,9.5864,-0.7494,0.7278,0.6376,0.1756,0.1713,-88.2,20.1,-2.7,5.66,0.51,-8.09,0.0589,0.1418,0.0196,-34.0,-13.0,37.375,141.25,35.1875,-176.8125,0
1776972563.572,9.4715,-2.4205,-1.087,0.2446,-0.0445,0.0677,-3.9,10.05,-77.55,9.5864,-0.7494,0.7278,0.6995,0.1887,0.1897,-88.65,19.35,-3.45,5.75,0.39,-8.11,0.0524,0.1527,0.0207,-34.0,-13.0,37.375,141.25,35.1875,-176.8125,0
1776972563.577,9.2656,-1.9656,-0.8452,0.1839,-0.0203,0.0621,-3.9,10.05,-77.55,9.7061,-1.0032,0.6871,0.6995,0.1887,0.1897,-88.65,19.35,-3.45,5.75,0.39,-8.11,0.0524,0.1527,0.0207,-34.0,-13.0,37.375,141.25,35.25,-176.8125,0
1776972563.582,9.2656,-1.9656,-0.8452,0.1839,-0.0203,0.0621,-4.5,10.2,-79.2,9.7061,-1.0032,0.6871,0.7208,0.2068,0.1977,-88.2,18.15,-2.4,5.71,0.32,-8.08,0.0404,0.1538,0.012,-34.0,-13.0,37.375,141.25,35.25,-176.8125,0
1776972563.587,9.5217,-1.6328,-0.2586,0.0895,0.0269,0.0727,-4.5,10.2,-79.2,9.7971,-0.9577,0.5507,0.6963,0.2196,0.1852,-88.2,18.15,-2.4,5.71,0.32,-8.08,0.0262,0.1244,-0.0011,-34.0,-13.0,37.375,141.1875,35.375,-176.8125,0
1776972563.592,9.5217,-1.6328,-0.2586,0.0895,0.0269,0.0727,-4.35,12.0,-79.8,9.7971,-0.9577,0.5507,0.6963,0.2196,0.1852,-88.8,16.8,-3.3,5.65,0.45,-8.12,0.0262,0.1244,-0.0011,-34.0,-13.0,37.375,141.1875,35.375,-176.8125,0
1776972563.601,9.6247,-1.4605,-0.1724,0.0362,0.0722,0.0759,-4.35,7.5,-79.8,9.8593,-0.8523,0.6393,0.6275,0.2046,0.1668,-88.8,16.8,-3.3,5.71,0.45,-8.08,0.0087,0.0916,-0.0109,-34.0,-13.0,37.375,141.1875,35.375,-176.8125,0
1776972563.607,9.7252,-1.3695,-0.1987,-0.0264,0.0624,0.0997,-4.35,7.5,-79.8,9.9623,-0.7566,0.6871,0.5057,0.1743,0.1423,-87.0,18.15,-3.75,5.68,0.47,-8.07,0.0011,0.0578,-0.0109,-34.0,-13.0,37.375,141.1875,35.4375,-176.8125,0
1776972563.613,9.7252,-1.3695,-0.1987,-0.0264,0.0624,0.0997,-5.25,10.95,-78.9,9.9623,-0.7566,0.6871,0.5057,0.1743,0.1423,-86.7,18.45,-2.4,5.68,0.47,-8.07,0.0011,0.0578,-0.0109,-34.0,-13.0,37.375,141.1875,35.4375,-176.8125,0
1776972563.617,9.8114,-1.324,-0.2131,-0.0442,0.0349,0.1223,-5.25,10.95,-78.9,10.0844,-0.6321,0.7422,0.3549,0.1394,0.1178,-86.7,18.45,-2.4,5.65,0.51,-8.06,-0.0164,0.0098,-0.0109,-34.25,-13.375,37.75,141.1875,35.4375,-176.8125,0
1776972563.622,9.8114,-1.324,-0.2131,-0.0442,0.0349,0.1223,-4.95,11.55,-78.6,10.0844,-0.6321,0.7422,0.3549,0.1394,0.1178,-88.95,18.45,-2.7,5.65,0.51,-8.06,-0.0164,0.0098,-0.0109,-34.25,-13.375,37.75,141.1875,35.375,-176.8125,0
1776972563.631,9.9958,-1.1779,-0.1532,-0.0866,0.012,0.1458,-4.95,11.55,-78.6,10.2376,-0.4621,0.8164,0.182,0.1053,0.0901,-88.95,18.45,-2.7,5.48,0.46,-8.15,-0.0153,-0.0404,-0.0033,-34.25,-13.375,37.75,141.1875,35.375,-176.8125,0
1776972563.638,10.0269,-1.1875,-0.2897,-0.0829,0.0187,0.1511,-4.95,11.55,-78.6,10.228,-0.2035,0.759,0.0104,0.0663,0.0661,-88.95,18.45,-2.7,5.41,0.47,-8.15,-0.0087,-0.0393,-0.0011,-34.25,-13.375,37.75,141.1875,35.375,-176.8125,0
1776972563.643,10.0269,-1.1875,-0.2897,-0.0829,0.0187,0.1511,-4.95,10.8,-79.05,10.228,-0.2035,0.759,0.0104,0.0663,0.0661,-88.05,19.05,-3.6,5.41,0.47,-8.15,-0.0087,-0.0393,-0.0011,-34.25,-13.375,37.75,141.1875,35.375,-176.8125,0
1776972563.652,10.0796,-1.2474,-0.2969,-0.0605,0.0208,0.1375,-5.7,11.55,-79.35,10.1323,0.0934,0.6776,-0.142,0.0437,0.04,-88.05,19.05,-3.6,5.35,0.53,-8.17,-0.0098,0.0022,-0.0022,-34.25,-13.375,37.75,141.1875,35.375,-176.8125,0
1776972563.662,10.0796,-1.391,-0.4214,-0.0983,0.0101,0.1335,-6.45,10.5,-79.8,9.9479,0.395,0.6177,-0.2699,0.0424,0.0293,-88.05,19.05,-3.6,5.41,0.53,-8.13,-0.0076,0.0316,0.0022,-34.25,-13.375,37.75,141.1875,35.375,-176.8125,0
1776972563.667,9.9431,-1.5969,-0.4764,-0.0965,-0.0165,0.121,-6.45,10.5,-79.8,9.8904,0.4645,0.6823,-0.3587,0.0458,0.0285,-88.35,18.0,-2.1,5.41,0.53,-8.13,-0.0076,0.0316,0.0022,-34.25,-13.375,37.75,141.1875,35.4375,-176.8125,0
1776972563.672,9.9431,-1.5969,-0.4764,-0.0965,-0.0165,0.121,-4.5,9.9,-77.7,9.8904,0.4645,0.6823,-0.3587,0.0458,0.0285,-88.35,18.0,-2.1,5.44,0.51,-8.12,-0.0098,0.0731,0.012,-33.25,-13.0,37.0625,141.1875,35.4375,-176.8125,0
1776972563.677,9.8306,-1.6017,-0.431,-0.1231,-0.0408,0.1188,-4.5,9.9,-77.7,9.8138,0.5387,0.7398,-0.4,0.0554,0.0389,-88.65,18.15,-3.0,5.44,0.51,-8.12,-0.0098,0.0731,0.012,-33.25,-13.0,37.0625,141.1875,35.4375,-176.8125,0
1776972563.682,9.8306,-1.6017,-0.431,-0.1231,-0.0408,0.1188,-4.5,9.9,-77.7,9.8138,0.5387,0.7398,-0.4,0.0554,0.0389,-88.65,18.15,-3.0,5.58,0.51,-8.12,-0.0098,0.0731,0.012,-33.25,-13.0,37.0625,141.1875,35.4375,-176.8125,0
1776972563.686,9.6606,-1.5538,-0.4741,-0.138,-0.0501,0.1218,-4.5,9.9,-77.7,9.7612,0.4118,0.8691,-0.4069,0.0552,0.0437,-88.2,17.4,-3.75,5.58,0.51,-8.12,-0.0076,0.0644,0.0175,-33.25,-13.0,37.0625,141.1875,35.5,-176.8125,0
1776972563.692,9.6606,-1.5538,-0.4741,-0.138,-0.0501,0.1218,-4.5,9.9,-77.7,9.6726,0.2801,1.0678,-0.4069,0.0552,0.0437,-88.2,17.4,-3.75,5.63,0.49,-8.09,-0.0076,0.0644,0.0175,-33.25,-13.0,37.0625,141.25,35.5,-176.8125,0
1776972563.702,9.675,-1.415,-0.5722,-0.1274,-0.0349,0.1164,-3.75,10.2,-78.15,9.7252,0.1652,1.1013,-0.3717,0.049,0.0418,-87.45,18.15,-2.4,5.63,0.49,-8.1,-0.0065,0.0502,0.0196,-33.25,-13.0,37.0625,141.25,35.5,-176.8125,0
1776972563.71,9.675,-1.2785,-0.6009,-0.1255,-0.0195,0.1114,-5.25,9.9,-78.15,9.7252,0.1652,1.1013,-0.3059,0.0498,0.0274,-89.1,16.8,-2.55,5.63,0.48,-8.05,-0.0098,0.0196,0.0153,-33.25,-13.0,37.0625,141.25,35.5,-176.8125,0
1776972563.715,9.7324,-1.2163,-0.6249,-0.1314,-0.0341,0.1204,-5.25,9.9,-78.15,9.7636,0.1006,1.2881,-0.2414,0.053,0.0141,-88.35,18.3,-3.6,5.63,0.48,-8.05,-0.0098,0.0196,0.0153,-33.25,-13.0,37.0625,141.25,35.5,-176.8125,0
1776972563.72,9.7324,-1.2163,-0.6249,-0.1314,-0.0341,0.1204,-4.95,10.5,-79.8,9.7636,0.1006,1.2881,-0.2414,0.053,0.0141,-88.35,18.3,-3.6,5.58,0.47,-8.09,-0.0076,0.0033,0.0175,-34.25,-13.375,36.5625,141.25,35.5,-176.8125,0
1776972563.725,9.7061,-1.2713,-0.5531,-0.1151,-0.0496,0.1252,-4.95,10.5,-79.8,9.7516,0.0958,1.47,-0.1958,0.0509,0.0027,-88.35,18.3,-3.6,5.58,0.47,-8.09,-0.0076,0.0033,0.0175,-34.25,-13.375,36.5625,141.25,35.5,-176.8125,0
1776972563.732,9.6462,-1.4269,-0.577,-0.0957,-0.0629,0.1218,-5.4,10.5,-79.35,9.6726,0.0479,1.4916,-0.146,0.0402,-0.0069,-88.35,18.3,-3.6,5.53,0.48,-8.11,-0.0065,0.0098,0.0153,-34.25,-13.375,36.5625,141.25,35.5,-176.8125,0
1776972563.741,9.493,-1.6089,-0.7518,-0.0738,-0.0791,0.1199,-5.4,10.5,-79.35,9.6295,0.0239,1.5395,-0.1087,0.0397,-0.0011,-87.75,18.15,-2.7,5.55,0.49,-8.11,0.0033,0.0196,0.0142,-34.25,-13.375,36.5625,141.25,35.5,-176.8125,0
1776972563.748,9.493,-1.6089,-0.7518,-0.0738,-0.0791,0.1199,-5.4,10.5,-79.35,9.6295,0.0239,1.5395,-0.1087,0.0397,-0.0011,-87.75,18.15,-2.7,5.55,0.49,-8.11,0.012,0.0316,0.0153,-34.25,-13.375,36.5625,141.25,35.5,-176.8125,0
1776972563.753,9.3757,-1.7549,-0.9074,-0.0655,-0.0885,0.0949,-5.55,10.2,-77.7,9.505,-0.0886,1.4892,-0.0693,0.0381,0.0187,-87.0,18.15,-2.7,5.6,0.5,-8.05,0.012,0.0316,0.0153,-34.25,-13.375,36.5625,141.25,35.5,-176.875,0
1776972563.762,9.3781,-2.0758,-1.0439,-0.1077,-0.1263,0.0709,-3.9,9.3,-80.4,9.5074,-0.1245,1.4222,-0.037,0.0384,0.0269,-87.0,18.15,-2.7,5.54,0.45,-8.08,0.0131,0.0218,0.0175,-34.25,-13.375,36.5625,141.25,35.5,-176.875,0
1776972563.767,9.3781,-2.0758,-1.0439,-0.1077,-0.1263,0.0709,-3.9,9.3,-80.4,9.5074,-0.1245,1.4222,-0.037,0.0384,0.0269,-88.35,18.75,-2.85,5.54,0.45,-8.08,0.0131,0.0218,0.0175,-34.25,-13.375,36.5625,141.25,35.5,-176.875,0
1776972563.772,9.4308,-2.3607,-1.4796,-0.1346,-0.0978,0.0645,-3.75,8.7,-80.25,9.5313,-0.2825,1.3575,-0.0117,0.0312,0.0506,-88.35,18.75,-2.85,5.55,0.34,-8.04,0.0142,0.0273,0.0153,-33.6875,-13.375,36.6875,141.25,35.5,-176.875,0
1776972563.777,9.4308,-2.3607,-1.4796,-0.1346,-0.0978,0.0645,-3.75,8.7,-80.25,9.5313,-0.2825,1.3575,-0.0117,0.0312,0.0506,-89.1,18.0,-2.1,5.55,0.34,-8.04,0.0142,0.0273,0.0153,-33.6875,-13.375,36.6875,141.25,35.5625,-176.875,0
1776972563.782,9.4116,-2.2505,-1.4006,-0.0839,-0.0517,0.0333,-4.65,9.75,-79.8,9.5744,-0.4908,1.312,0.0088,0.024,0.0789,-89.1,18.0,-2.1,5.67,0.68,-7.98,0.0349,0.0262,0.0022,-33.6875,-13.375,36.6875,141.25,35.5625,-176.875,0
1776972563.787,9.4116,-2.2505,-1.4006,-0.0839,-0.0517,0.0333,-4.65,9.75,-79.8,9.5744,-0.4908,1.312,0.0088,0.024,0.0789,-90.15,19.65,-2.4,5.67,0.68,-7.98,0.0055,-0.0109,0.0087,-33.6875,-13.375,36.6875,141.25,35.5625,-176.875,0
1776972563.793,9.5337,-1.8387,-1.2091,-0.1271,-0.0274,0.0112,-5.55,10.2,-80.25,9.6726,-0.5555,1.233,-0.0032,-0.0019,0.1034,-90.15,19.65,-2.4,5.72,0.4,-8.07,0.0055,-0.0109,0.0087,-33.6875,-13.375,36.6875,141.25,35.5625,-176.875,0
1776972563.802,9.4212,-1.5706,-0.9361,-0.121,0.0131,-0.0011,-5.55,10.2,-80.25,9.651,-0.5698,1.1827,-0.0232,-0.0221,0.1308,-88.2,17.7,-2.7,5.72,0.43,-8.06,0.0044,-0.0142,-0.0044,-33.6875,-13.375,36.6875,141.25,35.5,-176.875,0
1776972563.807,9.4212,-1.5706,-0.9361,-0.121,0.0131,-0.0011,-5.55,10.2,-80.25,9.651,-0.5698,1.1827,-0.0232,-0.0221,0.1308,-87.6,18.75,-2.85,5.72,0.43,-8.06,0.0076,-0.0491,-0.0109,-33.6875,-13.375,36.6875,141.25,35.5,-176.875,0
1776972563.813,9.5553,-1.4605,-0.7733,-0.1231,0.0338,-0.0112,-5.4,10.05,-79.8,9.6822,-0.5626,1.1708,-0.0453,-0.041,0.1577,-87.6,18.75,-2.85,5.74,0.46,-8.06,0.0076,-0.0491,-0.0109,-33.6875,-13.375,36.6875,141.25,35.5,-176.875,0
1776972563.818,9.5553,-1.4605,-0.7733,-0.1231,0.0338,-0.0112,-5.7,9.3,-79.05,9.7444,-0.4405,1.0295,-0.0536,-0.0536,0.1703,-87.6,18.75,-2.85,5.74,0.46,-8.06,0.0153,-0.0742,-0.0153,-33.875,-13.375,36.25,141.25,35.4375,-176.875,0
1776972563.823,9.6127,-1.3551,-0.7135,-0.0951,0.0274,0.0,-5.7,9.3,-79.05,9.7444,-0.4405,1.0295,-0.0536,-0.0536,0.1703,-87.6,18.75,-2.85,5.7,0.46,-8.09,0.0153,-0.0742,-0.0153,-33.875,-13.375,36.25,141.25,35.4375,-176.875,0
1776972563.828,9.6127,-1.3551,-0.7135,-0.0951,0.0274,0.0,-4.35,10.8,-79.35,9.663,-0.2753,0.9577,-0.0613,-0.0509,0.1727,-89.7,17.7,-1.95,5.7,0.46,-8.09,0.0185,-0.108,-0.0175,-33.875,-13.375,36.25,141.25,35.375,-176.875,0
1776972563.833,9.6582,-1.3312,-0.6177,-0.0983,-0.0035,0.0195,-4.35,10.8,-79.35,9.663,-0.2753,0.9577,-0.0613,-0.0509,0.1727,-89.7,17.7,-1.95,5.79,0.53,-8.11,0.0185,-0.108,-0.0175,-33.875,-13.375,36.25,141.25,35.375,-176.875,0
1776972563.838,9.6582,-1.3312,-0.6177,-0.0983,-0.0035,0.0195,-4.05,10.2,-79.95,9.5768,-0.0479,0.9098,-0.0725,-0.0384,0.1761,-89.7,17.7,-1.95,5.79,0.53,-8.11,0.0196,-0.1473,-0.0218,-33.875,-13.375,36.25,141.25,35.3125,-176.875,0
1776972563.843,9.5577,-1.4748,-0.7925,-0.1346,-0.0408,0.0386,-4.05,10.2,-79.95,9.5768,-0.0479,0.9098,-0.0725,-0.0384,0.1761,-89.7,17.7,-1.95,5.78,0.47,-8.13,0.0196,-0.1473,-0.0218,-33.875,-13.375,36.25,141.25,35.3125,-176.875,0
1776972563.852,9.5936,-1.5443,-0.8045,-0.113,-0.0618,0.0397,-4.5,10.2,-80.25,9.56,0.2418,0.8284,-0.0866,-0.0248,0.1665,-88.65,18.15,-2.7,5.83,0.45,-8.11,0.0142,-0.1669,-0.0295,-33.875,-13.375,36.25,141.1875,35.1875,-176.875,0
1776972563.857,9.5936,-1.5443,-0.8045,-0.113,-0.0618,0.0397,-4.5,10.2,-80.25,9.572,0.4525,0.9984,-0.0965,-0.0197,0.1612,-89.1,16.35,-2.55,5.83,0.45,-8.11,0.0098,-0.2182,-0.0404,-33.875,-13.375,36.25,141.1875,35.125,-176.875,0
1776972563.863,9.6702,-1.415,-0.917,-0.1351,-0.0775,0.0365,-4.5,10.2,-80.25,9.572,0.4525,0.9984,-0.0965,-0.0197,0.1612,-89.1,16.35,-2.55,5.72,0.44,-8.05,0.0098,-0.2182,-0.0404,-33.875,-13.375,36.25,141.1875,35.125,-176.875,0
1776972563.868,9.7851,-1.4605,-0.735,-0.1452,-0.0786,0.0218,-4.05,8.7,-79.95,9.6247,0.5243,1.075,-0.0943,-0.0144,0.1548,-87.6,17.1,-2.85,5.72,0.44,-8.05,0.0098,-0.2182,-0.0404,-34.1875,-13.375,37.0625,141.1875,34.9375,-176.875,0
1776972563.873,9.7851,-1.4605,-0.735,-0.1452,-0.0786,0.0218,-4.05,8.7,-79.95,9.6247,0.5243,1.075,-0.0943,-0.0144,0.1548,-87.6,17.1,-2.85,5.49,0.47,-8.21,0.0022,-0.264,-0.0447,-34.1875,-13.375,37.0625,141.1875,34.9375,-176.875,0
1776972563.878,9.8881,-1.64,-0.9218,-0.1284,-0.0618,0.0029,-4.65,9.75,-79.8,9.7779,0.3998,1.154,-0.0778,-0.0213,0.1532,-89.4,17.7,-3.45,5.49,0.47,-8.21,0.0022,-0.264,-0.0447,-34.1875,-13.375,37.0625,141.125,34.8125,-176.875,0
1776972563.883,9.8881,-1.64,-0.9218,-0.1284,-0.0618,0.0029,-4.65,9.75,-79.8,9.7779,0.3998,1.154,-0.0778,-0.0213,0.1532,-89.4,17.7,-3.45,5.55,0.46,-8.19,0.0011,-0.2683,-0.0535,-34.1875,-13.375,37.0625,141.125,34.8125,-176.875,0
1776972563.888,9.9862,-1.4653,-0.7518,-0.0762,-0.053,0.0011,-4.95,8.55,-79.35,9.8713,0.34,1.0942,-0.0498,-0.0357,0.1452,-89.1,18.3,-2.55,5.55,0.46,-8.19,-0.012,-0.2978,-0.0535,-34.1875,-13.375,37.0625,141.125,34.625,-176.8125,0
1776972563.893,9.9862,-1.4653,-0.7518,-0.0762,-0.053,0.0011,-4.95,8.55,-79.35,9.8713,0.34,1.0942,-0.0498,-0.0357,0.1452,-89.1,18.3,-2.55,5.52,0.52,-8.15,-0.012,-0.2978,-0.0535,-34.1875,-13.375,37.0625,141.125,34.4375,-176.8125,0
1776972563.902,10.0054,-1.2546,-0.4932,-0.0592,-0.0408,-0.0021,-4.05,7.95,-79.5,10.0245,0.1796,0.9625,-0.0147,-0.0269,0.1402,-89.1,17.55,-2.1,5.45,0.58,-8.25,-0.0164,-0.3196,-0.0469,-34.1875,-13.375,37.0625,141.125,34.4375,-176.8125,0
1776972563.912,9.9551,-1.1109,-0.4669,-0.0773,-0.0488,0.0011,-3.75,9.9,-78.9,10.1059,-0.1101,0.8188,0.0144,-0.0221,0.1263,-89.1,17.55,-2.1,5.38,0.55,-8.24,-0.0098,-0.3043,-0.0447,-34.1875,-13.375,37.0625,141.0625,34.25,-176.8125,0
1776972563.917,9.8593,-1.1037,-0.5004,-0.1018,-0.0573,0.0056,-3.75,9.9,-78.9,10.0868,-0.2634,0.7159,0.0293,-0.0237,0.114,-88.8,17.55,-3.6,5.38,0.55,-8.24,-0.0098,-0.3043,-0.0447,-34.1875,-13.375,37.0625,141.0625,34.125,-176.75,0
1776972563.922,9.8593,-1.1037,-0.5004,-0.1018,-0.0573,0.0056,-3.75,9.9,-78.9,9.9886,-0.5195,0.6321,0.0293,-0.0237,0.114,-88.8,17.55,-3.6,5.32,0.5,-8.22,-0.0076,-0.2978,-0.0502,-34.5625,-13.0,37.375,141.0625,34.125,-176.75,0
1776972563.927,9.7444,-1.0702,-0.6393,-0.1292,-0.0853,0.0101,-4.8,8.4,-79.5,9.9886,-0.5195,0.6321,0.0258,-0.0173,0.1029,-88.8,17.55,-3.6,5.32,0.5,-8.22,-0.0076,-0.2978,-0.0502,-34.5625,-13.0,37.375,141.0625,33.9375,-176.75,0
1776972563.932,9.7444,-1.0702,-0.6393,-0.1292,-0.0853,0.0101,-4.8,8.4,-79.5,9.9383,-0.6393,0.6129,0.0258,-0.0173,0.1029,-88.8,17.55,-3.6,5.36,0.51,-8.24,-0.0087,-0.2967,-0.048,-34.5625,-13.0,37.375,141.0625,33.9375,-176.75,0
1776972563.937,9.7181,-1.1013,-0.893,-0.1319,-0.1114,0.0176,-4.35,9.0,-79.8,9.9383,-0.6393,0.6129,0.0099,-0.0211,0.0909,-88.65,16.95,-2.7,5.36,0.51,-8.24,0.0109,-0.288,-0.0425,-34.5625,-13.0,37.375,141.0,33.75,-176.75,0
1776972563.943,9.7181,-1.1013,-0.893,-0.1319,-0.1114,0.0176,-4.35,9.0,-79.8,9.7779,-0.4932,0.6464,-0.0139,-0.0306,0.0847,-88.65,16.95,-2.7,5.31,0.55,-8.24,0.0109,-0.288,-0.0425,-34.5625,-13.0,37.375,141.0,33.75,-176.75,0
1776972563.952,9.6223,-1.2378,-1.0032,-0.1172,-0.1268,0.0234,-4.8,9.15,-79.95,9.6367,-0.3472,0.7159,-0.0139,-0.0306,0.0847,-88.8,17.1,-3.6,5.22,0.5,-8.27,0.0164,-0.2967,-0.0382,-34.5625,-13.0,37.375,141.0,33.625,-176.75,0
1776972563.957,9.6295,-1.4916,-1.1061,-0.101,-0.1354,0.0306,-3.75,7.95,-80.55,9.6367,-0.3472,0.7159,-0.0477,-0.0458,0.0826,-89.55,17.1,-2.85,5.22,0.5,-8.27,0.0262,-0.2705,-0.0415,-34.5625,-13.0,37.375,140.9375,33.4375,-176.75,0
1776972563.963,9.6295,-1.4916,-1.1061,-0.101,-0.1354,0.0306,-3.75,7.95,-80.55,9.6845,-0.1389,0.9313,-0.1186,-0.0751,0.0893,-89.55,17.1,-2.85,5.29,0.41,-8.31,0.0262,-0.2705,-0.0415,-34.5625,-13.0,37.375,140.9375,33.4375,-176.75,0
1776972563.968,9.6343,-1.7119,-0.9888,-0.1085,-0.1471,0.0456,-4.35,9.0,-81.15,9.6845,-0.1389,0.9313,-0.1186,-0.0751,0.0893,-88.8,16.35,-2.85,5.25,0.38,-8.29,0.0284,-0.2618,-0.048,-33.5625,-12.6875,36.6875,140.9375,33.3125,-176.75,0
1776972563.973,9.6343,-1.7119,-0.9888,-0.1085,-0.1471,0.0456,-4.35,9.0,-81.15,9.6965,-0.0311,0.9553,-0.17,-0.1023,0.0935,-88.8,16.35,-2.85,5.25,0.38,-8.29,0.0284,-0.2618,-0.048,-33.5625,-12.6875,36.6875,140.9375,33.3125,-176.75,0
1776972563.978,9.7037,-1.8316,-0.9337,-0.0863,-0.1556,0.0586,-4.35,9.0,-81.15,9.6965,-0.0311,0.9553,-0.17,-0.1023,0.0935,-88.05,17.1,-3.3,5.25,0.38,-8.29,0.0284,-0.2618,-0.048,-33.5625,-12.6875,36.6875,140.875,33.125,-176.75,0
1776972563.983,9.7037,-1.8316,-0.9337,-0.0802,-0.134,0.061,-4.35,9.0,-81.15,9.663,0.1221,0.9936,-0.1903,-0.1244,0.1039,-88.05,17.1,-3.3,5.39,0.31,-8.38,0.0305,-0.252,-0.06,-33.5625,-12.6875,36.6875,140.875,33.125,-176.75,0
1776972563.988,9.6582,-1.7214,-0.8739,-0.0802,-0.134,0.061,-4.5,9.9,-81.0,9.663,0.1221,0.9936,-0.1903,-0.1244,0.1039,-88.05,16.35,-5.1,5.39,0.31,-8.38,0.0229,-0.2836,-0.0687,-33.5625,-12.6875,36.6875,140.875,33.0,-176.75,0
1776972563.993,9.6223,-1.5538,-0.8021,-0.0997,-0.1226,0.064,-4.5,9.9,-81.0,9.6893,0.316,0.9673,-0.1716,-0.1308,0.1196,-88.05,16.35,-5.1,5.26,0.42,-8.23,0.0229,-0.2836,-0.0687,-33.5625,-12.6875,36.6875,140.875,33.0,-176.75,0
1776972564.002,9.6223,-1.5538,-0.8021,-0.0997,-0.1226,0.064,-4.95,9.3,-81.15,9.6295,0.5267,0.9457,-0.1394,-0.1388,0.1364,-88.05,16.35,-5.1,5.07,0.48,-8.29,0.0251,-0.3033,-0.0644,-33.5625,-12.6875,36.6875,140.8125,32.8125,-176.75,0
1776972564.007,9.754,-1.3886,-0.759,-0.1069,-0.0821,0.0434,-2.85,7.8,-81.15,9.6295,0.5267,0.9457,-0.1394,-0.1388,0.1364,-89.1,17.1,-4.35,5.07,0.48,-8.29,0.0273,-0.2902,-0.0676,-33.5625,-12.6875,36.6875,140.8125,32.625,-176.75,0
1776972564.013,9.8665,-1.1684,-0.7805,-0.077,-0.0648,0.0242,-4.35,7.8,-81.15,9.7133,0.7063,0.9649,-0.0637,-0.1308,0.1436,-89.1,17.1,-4.35,5.1,0.75,-8.17,0.0273,-0.2902,-0.0676,-33.5625,-12.6875,36.6875,140.8125,32.625,-176.75,0
1776972564.018,9.8665,-1.1684,-0.7805,-0.077,-0.0648,0.0242,-4.35,7.8,-81.15,9.7133,0.7063,0.9649,-0.0637,-0.1308,0.1436,-89.1,17.1,-4.35,5.1,0.75,-8.17,0.0273,-0.2902,-0.0676,-32.75,-13.375,38.25,140.75,32.5,-176.75,0
1776972564.023,9.9695,-1.0965,-0.1628,0.0256,0.064,0.0277,-3.0,7.65,-82.35,9.7372,0.893,0.9146,0.0386,-0.1119,0.1436,-89.1,17.1,-4.35,4.98,0.47,-8.39,0.0458,-0.2673,-0.0622,-32.75,-13.375,38.25,140.75,32.5,-176.75,0
1776972564.028,9.9695,-1.0965,-0.1628,0.0256,0.064,0.0277,-3.0,7.65,-82.35,9.7372,0.893,0.9146,0.0386,-0.1119,0.1436,-89.85,17.1,-4.35,4.98,0.47,-8.39,0.0458,-0.2673,-0.0622,-32.75,-13.375,38.25,140.6875,32.375,-176.75,0
1776972564.033,9.9288,-0.8332,-0.5986,-0.0221,-0.0658,0.0032,-3.0,7.65,-82.35,9.7636,1.0247,1.0104,0.1514,-0.0879,0.1375,-89.85,17.1,-4.35,4.92,0.62,-8.52,0.0262,-0.2673,-0.0567,-32.75,-13.375,38.25,140.6875,32.375,-176.75,0
1776972564.039,9.9288,-0.8332,-0.5986,-0.0221,-0.0658,0.0032,-3.0,7.65,-82.35,9.6774,1.1061,0.9242,0.2643,-0.0592,0.1303,-89.85,16.8,-2.85,4.94,0.47,-8.31,0.0295,-0.2083,-0.06,-32.75,-13.375,38.25,140.6875,32.25,-176.75,0
1776972564.044,9.8976,-0.9074,-0.4645,-0.0213,-0.1458,0.0067,-2.85,7.05,-80.85,9.6774,1.1061,0.9242,0.2643,-0.0592,0.1303,-89.85,16.8,-2.85,4.94,0.47,-8.31,0.0295,-0.2083,-0.06,-32.75,-13.375,38.25,140.625,32.125,-176.75,0
1776972564.053,9.9048,-1.1133,-0.3735,-0.0141,-0.2062,0.0149,-3.15,7.05,-80.85,9.6151,1.0199,1.0367,0.356,-0.0378,0.1119,-88.35,17.55,-3.6,5.01,0.34,-8.5,0.0207,-0.168,-0.0545,-32.75,-13.375,38.25,140.625,32.125,-176.75,0
1776972564.059,9.9048,-1.1133,-0.3735,-0.0141,-0.2062,0.0149,-3.15,7.05,-80.4,9.6678,0.7877,1.0511,0.4117,-0.0272,0.0927,-88.65,16.5,-3.0,4.92,0.6,-8.31,0.0131,-0.1374,-0.06,-32.75,-13.375,38.25,140.625,32.0625,-176.75,0
1776972564.064,9.7085,-1.3216,-0.4453,0.0123,-0.2507,0.0203,-3.0,7.65,-81.75,9.6678,0.7877,1.0511,0.4117,-0.0272,0.0927,-88.65,16.5,-3.0,4.92,0.6,-8.31,0.0131,-0.1374,-0.06,-32.75,-13.375,38.25,140.625,32.0625,-176.75,0
1776972564.069,9.7085,-1.3216,-0.4453,0.0123,-0.2507,0.0203,-3.0,7.65,-81.75,9.6343,0.5555,0.9984,0.4663,-0.0149,0.0823,-89.55,17.1,-4.05,4.92,0.6,-8.31,0.0065,-0.1276,-0.0502,-32.0625,-12.6875,38.25,140.5625,31.9375,-176.75,0
1776972564.073,9.6941,-1.3479,-0.5363,0.0568,-0.2659,0.02,-3.9,9.0,-80.4,9.6343,0.5555,0.9984,0.4663,-0.0149,0.0823,-89.55,17.1,-4.05,4.9,0.63,-8.29,0.0065,-0.1276,-0.0502,-32.0625,-12.6875,38.25,140.5625,31.9375,-176.75,0
1776972564.078,9.6941,-1.3479,-0.5363,0.0568,-0.2659,0.02,-3.9,9.0,-80.4,9.6055,0.3041,0.8954,0.4852,-0.0131,0.0658,-90.15,17.7,-3.0,4.9,0.63,-8.29,0.0142,-0.1113,-0.0371,-32.0625,-12.6875,38.25,140.5625,31.875,-176.6875,0
1776972564.083,9.7444,-1.5012,-0.7183,0.0727,-0.2747,0.0285,-3.9,9.0,-80.4,9.6055,0.3041,0.8954,0.4852,-0.0131,0.0658,-90.15,17.7,-3.0,4.94,0.62,-8.31,0.0142,-0.1113,-0.0371,-32.0625,-12.6875,38.25,140.5625,31.875,-176.6875,0
1776972564.088,9.7444,-1.5012,-0.7183,0.0727,-0.2747,0.0285,-3.9,9.0,-80.4,9.6822,0.0862,0.7733,0.4911,-0.0213,0.0541,-90.15,17.7,-3.0,4.94,0.62,-8.31,0.0218,-0.1156,-0.0229,-32.0625,-12.6875,38.25,140.5625,31.8125,-176.6875,0
1776972564.093,9.6582,-1.6568,-0.9385,0.0642,-0.2803,0.025,-3.9,9.0,-80.4,9.6822,0.0862,0.7733,0.4911,-0.0213,0.0541,-90.15,17.7,-3.0,4.93,0.57,-8.33,0.0218,-0.1156,-0.0229,-32.0625,-12.6875,38.25,140.5625,31.8125,-176.6875,0
1776972564.102,9.572,-1.64,-1.1779,0.0392,-0.284,0.0282,-5.4,9.0,-81.15,9.7157,-0.1556,0.5938,0.4634,-0.0269,0.0466,-89.7,17.4,-5.25,4.87,0.52,-8.34,0.024,-0.1145,-0.0065,-32.0625,-12.6875,38.25,140.5625,31.75,-176.75,0
1776972564.107,9.572,-1.64,-1.1779,0.0392,-0.284,0.0282,-5.4,9.0,-81.15,9.7492,-0.4142,0.5195,0.4295,-0.0309,0.0424,-89.7,17.4,-5.25,4.87,0.52,-8.34,0.0229,-0.084,0.0022,-32.0625,-12.6875,38.25,140.5625,31.6875,-176.75,0
1776972564.113,9.6127,-1.5036,-1.3288,0.0322,-0.2633,0.0115,-3.6,8.55,-82.2,9.7492,-0.4142,0.5195,0.4295,-0.0309,0.0424,-89.7,17.4,-5.25,4.94,0.48,-8.35,0.0229,-0.084,0.0022,-32.0625,-12.6875,38.25,140.5625,31.6875,-176.75,0
1776972564.118,9.6127,-1.5036,-1.3288,0.0336,-0.2353,0.0008,-3.6,8.55,-82.2,9.7707,-0.498,0.5363,0.381,-0.0445,0.0456,-89.1,15.9,-5.1,4.94,0.48,-8.35,0.024,-0.0578,0.0065,-30.5625,-13.75,38.25,140.5625,31.625,-176.75,0
1776972564.123,9.6175,-1.4676,-1.5586,0.0336,-0.2353,0.0008,-4.35,8.55,-80.4,9.7707,-0.498,0.5363,0.381,-0.0445,0.0456,-89.1,15.9,-5.1,4.98,0.49,-8.37,0.024,-0.0578,0.0065,-30.5625,-13.75,38.25,140.5625,31.625,-176.75,0
1776972564.128,9.5744,-1.4389,-1.6496,0.032,-0.2022,-0.0184,-4.35,8.55,-80.4,9.7851,-0.6536,0.6129,0.3214,-0.0504,0.0594,-89.4,15.45,-4.2,4.98,0.49,-8.37,0.0295,-0.0436,0.0055,-30.5625,-13.75,38.25,140.5625,31.625,-176.75,0
1776972564.133,9.5744,-1.4389,-1.6496,0.032,-0.2022,-0.0184,-3.75,6.9,-81.75,9.7851,-0.6536,0.6129,0.3214,-0.0504,0.0594,-89.4,15.45,-4.2,4.98,0.44,-8.4,0.0295,-0.0436,0.0055,-30.5625,-13.75,38.25,140.5625,31.625,-176.75,0
1776972564.138,9.5217,-1.5395,-1.664,0.037,-0.1793,-0.0197,-3.75,6.9,-81.75,9.7348,-0.6321,0.7614,0.2702,-0.0629,0.0749,-91.2,16.2,-4.2,4.98,0.44,-8.4,0.0349,-0.0305,0.0044,-30.5625,-13.75,38.25,140.5,31.5625,-176.8125,0
1776972564.144,9.5217,-1.5395,-1.664,0.037,-0.1793,-0.0197,-3.75,6.9,-81.75,9.7013,-0.7661,0.8475,0.2702,-0.0629,0.0749,-91.2,16.2,-4.2,4.94,0.46,-8.36,0.0349,-0.0305,0.0044,-30.5625,-13.75,38.25,140.5,31.5625,-176.8125,0
1776972564.153,9.5217,-1.6472,-1.549,0.0773,-0.1737,-0.0304,-3.75,6.9,-81.75,9.675,-0.759,0.9481,0.2427,-0.0751,0.0869,-89.85,16.8,-4.8,4.9,0.51,-8.35,0.036,-0.0196,0.0065,-30.5625,-13.75,38.25,140.5,31.5625,-176.8125,0
1776972564.159,9.4786,-1.6951,-1.5179,0.1519,-0.1604,-0.0432,-3.75,6.9,-81.75,9.675,-0.759,0.9481,0.2222,-0.0767,0.1082,-89.55,16.8,-4.8,4.74,0.48,-8.28,0.036,-0.0065,0.0131,-30.5625,-13.75,38.25,140.5,31.5625,-176.8125,0
1776972564.164,9.4786,-1.6951,-1.5179,0.1519,-0.1604,-0.0432,-3.45,9.15,-82.8,9.7348,-0.6919,1.0774,0.2041,-0.0815,0.1228,-89.55,16.8,-4.8,4.74,0.48,-8.28,0.036,-0.0065,0.0131,-30.5625,-13.75,38.25,140.5,31.5625,-176.8125,0
1776972564.169,9.6055,-1.8196,-1.2785,0.1511,-0.1479,-0.0365,-3.45,9.15,-82.8,9.7348,-0.6919,1.0774,0.2041,-0.0815,0.1228,-87.75,16.2,-5.7,4.8,0.53,-8.32,0.0338,0.0164,0.024,-31.25,-13.75,37.75,140.5,31.5625,-176.875,0
1776972564.174,9.6055,-1.8196,-1.2785,0.1511,-0.1479,-0.0365,-5.55,9.9,-82.05,9.7659,-0.8619,1.0702,0.1943,-0.0847,0.1276,-87.75,16.2,-5.7,4.8,0.53,-8.32,0.0338,0.0164,0.024,-31.25,-13.75,37.75,140.5,31.5625,-176.875,0
1776972564.178,9.6726,-2.0542,-1.2306,0.0885,-0.1508,-0.0301,-5.55,9.9,-82.05,9.7659,-0.8619,1.0702,0.1943,-0.0847,0.1276,-87.75,16.2,-5.7,4.8,0.53,-8.32,0.0295,0.0425,0.0371,-31.25,-13.75,37.75,140.5625,31.5625,-176.875,0
1776972564.184,9.6726,-2.0542,-1.2306,0.0885,-0.1508,-0.0301,-4.5,9.45,-82.35,9.7468,-0.8835,0.9361,0.1889,-0.0791,0.1226,-87.75,16.2,-5.7,5.1,0.47,-8.43,0.0295,0.0425,0.0371,-31.25,-13.75,37.75,140.5625,31.5625,-176.875,0
1776972564.188,9.6367,-2.1883,-1.233,0.0613,-0.1641,-0.0341,-4.5,9.45,-82.35,9.7468,-0.8835,0.9361,0.1889,-0.0791,0.1226,-88.35,16.35,-5.85,5.1,0.47,-8.43,0.0262,0.0436,0.0316,-31.25,-13.75,37.75,140.5625,31.5625,-176.875,0
1776972564.194,9.6367,-2.1883,-1.233,0.0613,-0.1641,-0.0341,-2.85,7.8,-83.7,9.2799,-1.3862,1.0247,0.1753,-0.0783,0.1045,-88.35,16.35,-5.85,5.12,0.39,-8.46,0.0262,0.0436,0.0316,-31.25,-13.75,37.75,140.5625,31.625,-176.9375,0
1776972564.203,9.5122,-2.1644,-1.2282,0.0213,-0.1564,-0.0416,-2.85,7.8,-83.7,10.3166,-1.0918,0.5531,0.1561,-0.0203,0.0957,-88.35,16.35,-5.85,5.08,0.43,-8.44,0.0153,0.0262,0.0262,-31.25,-13.75,37.75,140.5625,31.625,-176.9375,0
1776972564.21,9.5074,-2.2841,-1.4006,-0.0218,-0.137,-0.0554,-2.85,7.8,-83.7,10.3166,-1.0918,0.5531,0.1561,-0.0203,0.0957,-89.55,16.35,-5.1,5.09,0.42,-8.46,0.0098,0.0207,0.0229,-31.25,-13.75,37.75,140.5625,31.625,-176.9375,0
1776972564.214,9.5074,-2.2841,-1.4006,-0.0218,-0.137,-0.0554,-3.75,9.45,-83.4,10.3525,-1.3455,0.5938,0.1559,-0.0392,0.0671,-89.55,16.35,-5.1,5.09,0.42,-8.46,0.0098,0.0207,0.0229,-31.25,-13.75,37.75,140.5625,31.625,-176.9375,0
1776972564.219,9.4595,-2.4134,-1.4964,-0.1348,-0.1412,-0.0584,-3.75,9.45,-83.4,10.3525,-1.3455,0.5938,0.1559,-0.0392,0.0671,-90.9,15.0,-4.95,5.07,0.38,-8.42,0.0164,0.0207,0.0218,-31.6875,-13.375,37.75,140.5625,31.625,-176.9375,0
1776972564.224,9.4595,-2.4134,-1.4964,-0.1348,-0.1412,-0.0584,-3.15,8.25,-83.7,8.7317,-2.4493,0.3998,0.1948,0.0229,0.0421,-90.9,15.0,-4.95,5.07,0.38,-8.42,0.0164,0.0207,0.0218,-31.6875,-13.375,37.75,140.625,31.625,-176.9375,0
1776972564.233,9.4092,-2.6767,-1.6592,-0.2361,-0.1244,-0.0536,-4.8,9.15,-84.15,10.0245,-2.5618,0.2897,0.2401,0.0528,0.0141,-89.55,15.9,-4.8,5.1,0.42,-8.41,0.0229,0.0033,0.0185,-31.6875,-13.375,37.75,140.625,31.625,-176.9375,0
1776972564.241,9.3829,-2.7461,-1.8771,-0.2907,-0.1005,-0.0733,-4.5,8.4,-81.75,11.169,-1.4844,2.3774,-0.21,-0.4533,-0.0333,-88.65,16.2,-4.95,5.09,0.39,-8.47,0.0218,-0.0011,0.0142,-31.6875,-13.375,37.75,140.625,31.625,-177.0,0
1776972564.246,9.4284,-2.4038,-1.9034,-0.3568,-0.0802,-0.085,-4.5,8.4,-81.75,11.169,-1.4844,2.3774,-0.21,-0.4533,-0.0333,-88.65,16.2,-4.95,5.09,0.39,-8.47,0.0218,-0.0011,0.0142,-31.6875,-13.375,37.75,140.625,31.625,-177.0,0
1776972564.253,9.4284,-2.4038,-1.9034,-0.3568,-0.0802,-0.085,-5.4,7.5,-83.25,9.2967,-0.7398,0.3903,-0.6654,-0.3208,-0.0099,-89.55,16.8,-5.1,5.07,0.37,-8.45,0.0175,-0.0022,0.0098,-31.6875,-13.375,37.75,140.625,31.625,-177.0,0
1776972564.261,9.4739,-2.0877,-1.9728,-0.4301,-0.0469,-0.0741,-5.4,7.5,-83.25,9.4116,-2.4828,-1.7621,-0.7826,0.2526,-0.0019,-89.7,16.2,-5.7,5.1,0.4,-8.43,0.0055,-0.0175,0.0055,-31.6875,-13.375,37.75,140.625,31.625,-177.0,0
1776972564.266,9.584,-1.6999,-1.9489,-0.5121,-0.0181,-0.0789,-5.4,7.5,-83.25,9.4116,-2.4828,-1.7621,-0.7826,0.2526,-0.0019,-89.7,16.2,-5.7,5.1,0.4,-8.43,0.0055,-0.0175,0.0055,-31.6875,-13.375,37.75,140.625,31.625,-177.0,0
1776972564.271,9.584,-1.6999,-1.9489,-0.5121,-0.0181,-0.0789,-5.25,5.7,-82.35,10.2424,-2.2051,-0.5746,-0.7397,0.0133,0.0051,-89.7,16.2,-5.7,5.07,0.31,-8.49,-0.0011,-0.0349,0.0011,-31.0,-12.6875,39.0,140.625,31.5625,-177.0,0
1776972564.276,9.5193,-1.5203,-1.9776,-0.5167,0.0013,-0.0917,-5.25,5.7,-82.35,10.2424,-2.2051,-0.5746,-0.7397,0.0133,0.0051,-89.7,16.2,-5.7,5.07,0.31,-8.49,-0.0011,-0.0349,0.0011,-31.0,-12.6875,39.0,140.625,31.5625,-177.0,0
1776972564.281,9.5193,-1.5203,-1.9776,-0.5167,0.0013,-0.0917,-4.95,7.05,-83.25,10.1969,-2.1093,0.2993,-0.6736,-0.2894,-0.0376,-89.55,16.35,-5.55,5.11,0.48,-8.43,-0.0196,-0.0425,-0.0087,-31.0,-12.6875,39.0,140.625,31.5625,-177.0,0
1776972564.286,9.2656,-1.5371,-1.7765,-0.4911,0.0304,-0.0986,-4.95,7.05,-83.25,10.1969,-2.1093,0.2993,-0.6736,-0.2894,-0.0376,-89.55,16.35,-5.55,5.11,0.48,-8.43,-0.0196,-0.0425,-0.0087,-31.0,-12.6875,39.0,140.625,31.5,-177.0,0
1776972564.293,9.3972,-1.5227,-1.8723,-0.4983,0.0663,-0.093,-4.65,7.05,-81.45,9.6343,-1.7382,1.008,-0.8343,-0.2702,-0.0645,-89.55,16.35,-5.55,5.07,0.48,-8.43,-0.0196,-0.0469,-0.0164,-31.0,-12.6875,39.0,140.625,31.5,-177.0,0
1776972564.3,9.3972,-1.5227,-1.8723,-0.4983,0.0663,-0.093,-4.8,4.95,-82.35,9.9527,-1.3384,1.1325,-1.0568,-0.2116,-0.0405,-89.4,15.75,-5.7,5.08,0.41,-8.43,-0.0164,-0.0611,-0.0196,-31.0,-12.6875,39.0,140.5625,31.5,-176.9375,0
1776972564.305,9.6319,-1.5586,-1.992,-0.5449,0.0687,-0.0693,-4.8,4.95,-82.35,9.9527,-1.3384,1.1325,-1.0568,-0.2116,-0.0405,-89.4,15.75,-5.7,5.08,0.41,-8.43,-0.0164,-0.0611,-0.0196,-31.0,-12.6875,39.0,140.5625,31.4375,-176.9375,0
1776972564.313,9.6199,-1.4772,-1.8914,-0.5825,0.0634,-0.0522,-5.4,8.25,-81.9,9.7588,-0.9888,0.6847,-1.1274,-0.154,-0.0096,-88.95,16.5,-4.95,5.03,0.41,-8.43,-0.0196,-0.0676,-0.024,-31.0,-12.6875,39.0,140.5625,31.4375,-176.9375,0
1776972564.318,9.6199,-1.4772,-1.8914,-0.5825,0.0634,-0.0522,-5.4,8.25,-81.9,9.651,-0.5028,0.5219,-1.0307,-0.2086,0.0088,-90.9,15.75,-5.7,5.03,0.41,-8.43,-0.0196,-0.0676,-0.024,-31.0,-12.6875,39.0,140.5625,31.4375,-176.9375,0
1776972564.323,9.4858,-1.4437,-1.5371,-0.5961,0.0474,-0.045,-5.4,8.25,-81.9,9.651,-0.5028,0.5219,-1.0307,-0.2086,0.0088,-90.9,15.75,-5.7,5.02,0.38,-8.4,-0.0196,-0.0611,-0.0305,-31.25,-12.6875,37.75,140.5625,31.4375,-176.9375,0
1776972564.328,9.4858,-1.4437,-1.5371,-0.5961,0.0474,-0.045,-6.3,6.45,-82.35,9.4068,-0.0048,0.5267,-0.8897,-0.2529,0.0075,-90.9,15.75,-5.7,5.02,0.38,-8.4,-0.0196,-0.0611,-0.0305,-31.25,-12.6875,37.75,140.5625,31.375,-176.875,0
1776972564.333,9.3254,-1.3958,-1.4653,-0.562,0.0568,-0.0461,-6.3,6.45,-82.35,9.4068,-0.0048,0.5267,-0.8897,-0.2529,0.0075,-89.85,16.35,-3.6,5.01,0.44,-8.43,-0.0284,-0.0654,-0.0338,-31.25,-12.6875,37.75,140.5625,31.375,-176.875,0
1776972564.338,9.3254,-1.3958,-1.4653,-0.562,0.0568,-0.0461,-4.65,6.0,-82.65,9.2632,0.1796,0.4262,-0.821,-0.215,-0.0115,-91.2,16.2,-4.5,5.01,0.44,-8.43,-0.0371,-0.0687,-0.0371,-31.25,-12.6875,37.75,140.5625,31.3125,-176.875,0
1776972564.344,9.426,-1.2594,-1.3096,-0.5351,0.0983,-0.0592,-4.65,6.0,-82.65,9.2632,0.1796,0.4262,-0.821,-0.215,-0.0115,-91.2,16.2,-4.5,4.98,0.51,-8.37,-0.0371,-0.0687,-0.0371,-31.25,-12.6875,37.75,140.5625,31.3125,-176.875,0
1776972564.353,9.414,-0.9768,-1.2234,-0.5436,0.1082,-0.0661,-2.85,7.05,-82.95,9.1578,0.2203,0.6632,-0.8018,-0.1804,-0.0392,-90.15,15.45,-5.25,4.9,0.52,-8.41,-0.0295,-0.0862,-0.0327,-31.25,-12.6875,37.75,140.5,31.25,-176.8125,0
1776972564.358,9.414,-0.9768,-1.2234,-0.5436,0.1082,-0.0661,-3.6,6.0,-81.15,9.2799,0.4381,0.7326,-0.7565,-0.1572,-0.0546,-90.15,15.45,-5.25,4.9,0.52,-8.41,-0.0175,-0.0654,-0.0262,-31.25,-12.6875,37.75,140.5,31.25,-176.8125,0
1776972564.364,9.7109,-0.8116,-1.2833,-0.5119,0.1013,-0.0767,-3.6,6.0,-81.15,9.2799,0.4381,0.7326,-0.7565,-0.1572,-0.0546,-90.15,15.45,-5.25,4.99,0.5,-8.35,-0.0175,-0.0654,-0.0262,-31.25,-12.6875,37.75,140.5,31.25,-176.8125,0
1776972564.369,9.7109,-0.8116,-1.2833,-0.5119,0.1013,-0.0767,-4.95,5.55,-82.95,9.5553,0.7638,0.5986,-0.6973,-0.1452,-0.052,-87.6,17.1,-5.1,4.99,0.5,-8.35,-0.012,-0.0676,-0.0218,-31.0,-13.0,38.25,140.5,31.1875,-176.8125,0
1776972564.374,9.8976,-0.5171,-1.3599,-0.4517,0.0925,-0.0925,-4.95,5.55,-82.95,9.8713,1.0415,0.5004,-0.6973,-0.1452,-0.052,-87.6,17.1,-5.1,4.93,0.55,-8.4,-0.012,-0.0676,-0.0218,-31.0,-13.0,38.25,140.5,31.1875,-176.8125,0
1776972564.379,9.8976,-0.5171,-1.3599,-0.4517,0.0925,-0.0925,-4.95,5.55,-82.95,9.8713,1.0415,0.5004,-0.6129,-0.1537,-0.0679,-87.6,17.1,-5.1,4.93,0.55,-8.4,-0.012,-0.0676,-0.0218,-31.0,-13.0,38.25,140.5,31.1875,-176.8125,0
1776972564.384,10.0509,-0.5124,-1.549,-0.372,0.11,-0.0965,-4.95,5.55,-82.95,9.8809,1.1396,0.4908,-0.6129,-0.1537,-0.0679,-87.6,17.1,-5.1,4.94,0.53,-8.4,-0.012,-0.0545,-0.0196,-31.0,-13.0,38.25,140.5,31.1875,-176.8125,0
1776972564.389,10.0509,-0.5124,-1.549,-0.372,0.11,-0.0965,-4.5,6.15,-82.05,9.8809,1.1396,0.4908,-0.5335,-0.1684,-0.0608,-89.4,16.2,-4.5,4.94,0.53,-8.4,-0.0131,-0.0382,-0.0153,-31.0,-13.0,38.25,140.5,31.125,-176.75,0
1776972564.394,9.9599,-0.3687,-1.4964,-0.2817,0.0642,-0.1095,-4.5,6.15,-82.05,9.8306,1.1827,0.3663,-0.4602,-0.1599,-0.0453,-89.4,16.2,-4.5,4.91,0.5,-8.43,-0.0131,-0.0382,-0.0153,-31.0,-13.0,38.25,140.5,31.125,-176.75,0
1776972564.403,9.9359,-0.2634,-1.2426,-0.2185,0.0187,-0.1175,-6.15,7.05,-83.25,9.8234,1.1325,0.3974,-0.4602,-0.1599,-0.0453,-89.1,15.6,-5.85,4.58,0.62,-8.31,-0.0109,-0.036,-0.0065,-31.0,-13.0,38.25,140.5,31.125,-176.75,0
1776972564.409,9.9359,-0.2634,-1.2426,-0.2038,-0.0266,-0.1066,-5.4,7.8,-82.65,9.8234,1.1325,0.3974,-0.3651,-0.1679,-0.0157,-89.7,15.6,-5.85,4.58,0.62,-8.31,-0.0011,-0.0153,0.0109,-31.0,-13.0,38.25,140.5,31.0625,-176.75,0
1776972564.414,9.8928,-0.2442,-0.9505,-0.2038,-0.0266,-0.1066,-5.4,7.8,-82.65,9.9599,1.1732,0.3855,-0.2747,-0.1636,0.0,-89.7,16.95,-4.95,4.84,0.6,-8.44,-0.0011,-0.0153,0.0109,-31.0,-13.0,38.25,140.5,31.0625,-176.75,0
1776972564.419,10.0126,-0.1748,-0.996,-0.1455,-0.0528,-0.0949,-4.05,6.45,-81.75,9.9599,1.1732,0.3855,-0.2747,-0.1636,0.0,-89.4,15.0,-5.25,5.0,0.47,-8.39,0.0044,0.0436,0.0175,-30.5625,-13.375,39.375,140.5,31.125,-176.75,0
1776972564.424,10.0126,-0.1748,-0.996,-0.1455,-0.0528,-0.0949,-4.05,6.45,-81.75,9.9719,1.166,0.3112,-0.2086,-0.1516,0.0077,-89.4,15.0,-5.25,5.0,0.47,-8.39,0.0044,0.0436,0.0175,-30.5625,-13.375,39.375,140.5,31.125,-176.75,0
1776972564.429,9.979,-0.1413,-1.0678,-0.101,-0.0735,-0.0754,-4.05,7.2,-82.35,9.9719,1.166,0.3112,-0.2086,-0.1516,0.0077,-91.05,15.9,-5.55,4.97,0.58,-8.43,0.0033,0.0338,0.0196,-30.5625,-13.375,39.375,140.5,31.125,-176.75,0
1776972564.434,9.979,-0.1413,-1.0678,-0.101,-0.0735,-0.0754,-4.05,7.2,-82.35,9.8306,1.1851,0.4118,-0.1559,-0.1354,0.0221,-91.05,15.9,-5.55,4.97,0.58,-8.43,0.0033,0.0338,0.0196,-30.5625,-13.375,39.375,140.5,31.125,-176.75,0
1776972564.439,9.8833,-0.2083,-1.2019,-0.0147,-0.0813,-0.0661,-4.05,7.2,-82.35,9.8306,1.1851,0.4118,-0.1559,-0.1354,0.0221,-91.05,15.9,-5.55,4.97,0.58,-8.43,0.0,0.0305,0.0218,-30.5625,-13.375,39.375,140.5,31.125,-176.75,0
1776972564.444,9.8833,-0.2083,-1.2019,-0.0147,-0.0813,-0.0661,-4.05,7.2,-82.35,9.8258,1.1732,0.3112,-0.0685,-0.1234,0.0373,-90.15,17.4,-4.95,5.0,0.54,-8.49,0.0,0.0305,0.0218,-30.5625,-13.375,39.375,140.5625,31.1875,-176.75,0
1776972564.453,9.9096,-0.4142,-1.2115,0.0306,-0.113,-0.057,-5.55,6.9,-82.8,9.5553,1.0319,0.3208,0.0477,-0.1207,0.0485,-90.15,17.4,-4.95,5.02,0.5,-8.44,-0.0022,0.06,0.0196,-30.5625,-13.375,39.375,140.5625,31.1875,-176.75,0
1776972564.46,9.7923,-0.5914,-1.2953,0.0498,-0.1623,-0.0469,-4.05,7.2,-82.05,9.5553,1.0319,0.3208,0.0477,-0.1207,0.0485,-90.3,15.15,-4.8,4.92,0.52,-8.39,0.0065,0.0458,0.0229,-30.5625,-13.375,39.375,140.5625,31.1875,-176.75,0
1776972564.465,9.7923,-0.5914,-1.2953,0.0498,-0.1623,-0.0469,-4.05,7.2,-82.05,9.4882,0.7901,0.3663,0.1466,-0.1061,0.048,-90.3,15.15,-4.8,4.92,0.52,-8.39,0.0065,0.0458,0.0229,-30.5625,-13.375,39.375,140.5625,31.1875,-176.75,0
1776972564.47,9.6678,-0.6608,-1.4341,0.1348,-0.1689,-0.053,-5.4,5.55,-82.2,9.4882,0.7901,0.3663,0.1466,-0.1061,0.048,-90.3,15.15,-4.8,4.85,0.57,-8.38,0.0076,0.0415,0.0273,-30.5625,-13.0,37.75,140.5625,31.1875,-176.75,0
1776972564.475,9.6678,-0.6608,-1.4341,0.1348,-0.1689,-0.053,-5.4,5.55,-82.2,9.7252,0.7302,0.2777,0.2238,-0.1045,0.0434,-90.3,15.15,-4.8,4.85,0.57,-8.38,0.0076,0.0415,0.0273,-30.5625,-13.0,37.75,140.5625,31.1875,-176.75,0
1776972564.479,9.742,-0.723,-1.4844,0.1974,-0.166,-0.0658,-4.95,6.0,-83.7,9.7109,0.6153,0.2059,0.2238,-0.1045,0.0434,-90.15,15.15,-4.8,4.87,0.55,-8.4,0.0153,0.0458,0.0371,-30.5625,-13.0,37.75,140.5625,31.25,-176.8125,0
1776972564.484,9.742,-0.723,-1.4844,0.1974,-0.166,-0.0658,-4.95,6.0,-83.7,9.7109,0.6153,0.2059,0.3088,-0.0866,0.0378,-90.15,15.45,-5.25,4.87,0.55,-8.4,0.0153,0.0458,0.0371,-30.5625,-13.0,37.75,140.5625,31.25,-176.8125,0
1776972564.489,9.8138,-0.7973,-1.4437,0.235,-0.141,-0.0733,-4.95,6.0,-83.7,9.5241,0.3089,0.2634,0.3088,-0.0866,0.0378,-90.15,15.45,-5.25,4.87,0.55,-8.4,0.024,0.0818,0.0404,-30.5625,-13.0,37.75,140.5625,31.25,-176.8125,0
1776972564.494,9.8138,-0.7973,-1.4437,0.235,-0.141,-0.0733,-4.95,6.0,-83.7,9.5241,0.3089,0.2634,0.364,-0.0751,0.0346,-89.55,15.15,-4.8,4.96,0.55,-8.38,0.024,0.0818,0.0404,-30.5625,-13.0,37.75,140.5625,31.25,-176.8125,0
1776972564.503,9.7133,-0.9313,-1.4198,0.2467,-0.1799,-0.0781,-4.95,6.0,-83.7,9.6678,0.1389,0.3352,0.3912,-0.0594,0.0362,-90.3,15.9,-5.1,4.91,0.56,-8.46,0.0284,0.0622,0.0535,-30.5625,-13.0,37.75,140.625,31.3125,-176.875,0
1776972564.508,9.6127,-1.1468,-1.3288,0.2286,-0.2038,-0.0682,-4.95,7.8,-83.7,9.6678,0.1389,0.3352,0.3912,-0.0594,0.0362,-90.3,15.9,-5.1,4.91,0.56,-8.46,0.0229,0.1004,0.0633,-30.5625,-13.0,37.75,140.625,31.375,-176.875,0
1776972564.515,9.6127,-1.1468,-1.3288,0.2286,-0.2038,-0.0682,-4.65,8.55,-82.95,9.7731,-0.0742,0.431,0.4373,-0.0501,0.0224,-89.1,17.1,-5.85,5.1,0.42,-8.5,0.0229,0.1004,0.0633,-30.5625,-13.0,37.75,140.625,31.375,-176.875,0
1776972564.519,9.6558,-1.3312,-1.573,0.2081,-0.2052,-0.0554,-4.65,8.55,-82.95,9.6798,-0.2394,0.4334,0.4743,-0.0509,0.0277,-89.1,17.1,-5.85,5.1,0.42,-8.5,0.0229,0.1004,0.0633,-29.875,-13.375,37.875,140.6875,31.4375,-176.875,0
1776972564.524,9.6558,-1.3312,-1.573,0.2081,-0.2052,-0.0554,-5.55,7.2,-84.15,9.6798,-0.2394,0.4334,0.4743,-0.0509,0.0277,-89.85,14.85,-5.1,5.2,0.32,-8.59,0.0185,0.1189,0.0513,-29.875,-13.375,37.875,140.6875,31.4375,-176.875,0
1776972564.529,9.5912,-1.4413,-1.6376,0.2044,-0.2222,-0.0525,-5.55,7.2,-84.15,9.7372,-0.6153,0.407,0.457,-0.0546,0.0266,-89.85,14.85,-5.1,5.2,0.32,-8.59,0.0185,0.1189,0.0513,-29.875,-13.375,37.875,140.6875,31.4375,-176.9375,0
1776972564.534,9.5912,-1.4413,-1.6376,0.2204,-0.2062,-0.0626,-5.85,7.2,-84.15,9.7372,-0.6153,0.407,0.457,-0.0546,0.0266,-90.3,15.9,-4.8,4.97,0.49,-8.42,0.0142,0.0894,0.0393,-29.875,-13.375,37.875,140.6875,31.4375,-176.9375,0
1776972564.539,9.5098,-1.3647,-1.6376,0.2204,-0.2062,-0.0626,-5.85,7.2,-84.15,9.9288,-0.5195,0.328,0.4322,-0.0613,0.0317,-90.3,15.9,-4.8,4.97,0.49,-8.42,0.0164,0.0731,0.0393,-29.875,-13.375,37.875,140.6875,31.5,-176.9375,0
1776972564.544,9.6869,-1.3384,-1.6807,0.2041,-0.1756,-0.0735,-5.85,7.2,-84.15,9.9288,-0.5195,0.328,0.4322,-0.0613,0.0317,-90.3,15.9,-4.8,4.93,0.48,-8.43,0.0164,0.0731,0.0393,-29.875,-13.375,37.875,140.6875,31.5,-176.9375,0
1776972564.553,9.6869,-1.3384,-1.6807,0.2041,-0.1756,-0.0735,-5.85,7.2,-84.15,9.7612,-0.905,0.2442,0.4154,-0.056,0.0195,-90.15,16.5,-6.0,4.96,0.58,-8.44,0.0185,0.0884,0.0447,-29.875,-13.375,37.875,140.75,31.5625,-176.9375,0
1776972564.558,9.651,-1.2234,-1.7071,0.2156,-0.1511,-0.0909,-5.85,7.2,-84.15,9.9982,-0.7757,0.3065,0.3544,-0.0762,0.0306,-90.15,16.5,-6.0,4.96,0.58,-8.44,0.0262,0.1058,0.0491,-29.875,-13.375,37.875,140.75,31.5625,-177.0,0
1776972564.564,9.6391,-1.1253,-1.8675,0.2316,-0.1103,-0.0999,-5.25,7.95,-83.85,9.9982,-0.7757,0.3065,0.3544,-0.0762,0.0306,-90.15,16.5,-6.0,4.91,0.48,-8.37,0.0262,0.1058,0.0491,-29.875,-13.375,37.875,140.75,31.5625,-177.0,0
1776972564.569,9.6391,-1.1253,-1.8675,0.2316,-0.1103,-0.0999,-5.25,7.95,-83.85,9.9431,-0.8475,0.2274,0.3107,-0.0922,0.0381,-90.15,16.5,-6.0,4.91,0.48,-8.37,0.0284,0.1189,0.06,-31.25,-13.0,37.875,140.75,31.625,-177.0,0
1776972564.574,9.6917,-1.0798,-1.4988,0.211,-0.1061,-0.1058,-5.7,8.25,-84.0,9.9431,-0.8475,0.2274,0.3107,-0.0922,0.0381,-89.7,16.2,-6.0,4.76,0.53,-8.39,0.0284,0.1189,0.06,-31.25,-13.0,37.875,140.75,31.625,-177.0,0
1776972564.579,9.6917,-1.0798,-1.4988,0.211,-0.1061,-0.1058,-5.7,8.25,-84.0,9.9623,-0.8787,0.1867,0.2124,-0.1258,0.0322,-89.7,16.2,-6.0,4.76,0.53,-8.39,0.024,0.1647,0.0709,-31.25,-13.0,37.875,140.8125,31.6875,-177.0625,0
1776972564.584,9.6965,-0.9242,-1.6472,0.198,-0.117,-0.1026,-5.55,7.65,-83.1,9.9623,-0.8787,0.1867,0.2124,-0.1258,0.0322,-90.3,14.4,-6.6,4.87,0.51,-8.37,0.024,0.1647,0.0709,-31.25,-13.0,37.875,140.8125,31.6875,-177.0625,0
1776972564.589,9.6965,-0.9242,-1.6472,0.198,-0.117,-0.1026,-5.55,7.65,-83.1,9.8785,-0.7518,0.0168,0.1372,-0.1319,0.0322,-90.3,14.4,-6.6,4.87,0.51,-8.37,0.0229,0.2094,0.0796,-31.25,-13.0,37.875,140.8125,31.8125,-177.0625,0
1776972564.595,9.675,-0.9649,-1.9297,0.1753,-0.1191,-0.1026,-6.9,8.25,-84.0,9.8785,-0.7518,0.0168,0.1372,-0.1319,0.0322,-89.85,15.15,-6.6,4.97,0.47,-8.45,0.0229,0.2094,0.0796,-31.25,-13.0,37.875,140.8125,31.8125,-177.0625,0
1776972564.603,9.6798,-1.0654,-1.8459,0.1833,-0.1354,-0.1034,-6.9,8.25,-84.0,9.924,-0.6991,-0.1053,0.0954,-0.1364,0.029,-88.05,15.6,-6.6,5.09,0.43,-8.36,0.0262,0.2258,0.0829,-31.25,-13.0,37.875,140.875,31.9375,-177.125,0
1776972564.608,9.6798,-1.0654,-1.8459,0.1833,-0.1354,-0.1034,-6.9,8.25,-84.0,9.7851,-0.6009,-0.1077,0.0565,-0.1516,0.0232,-88.05,15.6,-6.6,5.09,0.43,-8.36,0.0273,0.2007,0.096,-31.25,-13.0,37.875,140.9375,32.0625,-177.1875,0
1776972564.615,9.6295,-1.1277,-1.8172,0.1652,-0.137,-0.0914,-6.15,9.0,-84.75,9.7683,-0.4908,-0.1437,0.0565,-0.1516,0.0232,-88.95,15.0,-6.0,5.09,0.47,-8.39,0.0273,0.2007,0.096,-31.25,-13.0,37.875,140.9375,32.0625,-177.1875,0
1776972564.62,9.6295,-1.1277,-1.8172,0.1652,-0.137,-0.0914,-6.15,9.0,-84.75,9.7683,-0.4908,-0.1437,0.0496,-0.1471,0.0139,-88.95,15.0,-6.0,5.3,0.32,-8.51,0.0338,0.2007,0.0938,-32.375,-13.0,39.0625,141.0,32.125,-177.1875,0
1776972564.625,9.4571,-1.154,-2.0063,0.154,-0.1196,-0.0799,-7.2,9.0,-83.7,9.6774,-0.4932,-0.1676,0.0466,-0.1458,0.0016,-89.4,15.45,-7.95,5.3,0.32,-8.51,0.0338,0.2007,0.0938,-32.375,-13.0,39.0625,141.0,32.125,-177.1875,0
1776972564.629,9.4571,-1.154,-2.0063,0.154,-0.1196,-0.0799,-7.2,9.0,-83.7,9.6774,-0.4932,-0.1676,0.0466,-0.1458,0.0016,-89.4,15.45,-7.95,5.3,0.32,-8.51,0.0393,0.216,0.072,-32.375,-13.0,39.0625,141.0,32.25,-177.25,0
1776972564.634,9.5648,-1.2234,-2.0183,0.1508,-0.1135,-0.0738,-6.45,8.55,-85.8,9.7803,-0.4908,-0.2634,0.0501,-0.1295,-0.0051,-89.4,15.45,-7.95,5.3,0.15,-8.39,0.0393,0.216,0.072,-32.375,-13.0,39.0625,141.0,32.25,-177.25,0
1776972564.642,9.4475,-1.2809,-2.1237,0.1466,-0.1228,-0.0778,-7.05,8.4,-83.85,9.7803,-0.4908,-0.2634,0.0501,-0.1295,-0.0051,-90.3,16.8,-6.15,5.27,0.35,-8.36,0.0393,0.1909,0.06,-32.375,-13.0,39.0625,141.0,32.375,-177.3125,0
1776972564.647,9.4475,-1.2809,-2.1237,0.1466,-0.1228,-0.0778,-7.05,8.4,-83.85,9.6414,-0.5578,-0.1724,0.0573,-0.1274,-0.0104,-90.3,16.8,-6.15,5.27,0.35,-8.36,0.0393,0.1909,0.06,-32.375,-13.0,39.0625,141.0625,32.5,-177.3125,0
1776972564.654,9.4308,-1.0726,-2.083,0.1444,-0.0938,-0.0797,-5.25,7.95,-83.1,9.6534,-0.6656,-0.1844,0.0576,-0.1132,-0.0195,-90.3,16.8,-6.15,5.27,0.41,-8.29,0.0338,0.1604,0.0567,-32.375,-13.0,39.0625,141.0625,32.5625,-177.375,0
1776972564.664,9.4547,-1.0534,-2.0016,0.1258,-0.0879,-0.0813,-5.25,7.95,-83.1,9.6917,-0.8045,-0.2035,0.0789,-0.1098,-0.0224,-89.55,17.1,-5.55,5.25,0.42,-8.29,0.036,0.1364,0.0545,-32.375,-13.0,39.0625,141.0625,32.5625,-177.375,0
1776972564.669,9.4547,-1.0534,-2.0016,0.1258,-0.0879,-0.0813,-5.25,7.95,-83.1,9.6917,-0.8045,-0.2035,0.0789,-0.1098,-0.0224,-89.55,17.1,-5.55,5.25,0.42,-8.29,0.036,0.1364,0.0545,-32.375,-13.0,39.0625,141.125,32.625,-177.375,0
1776972564.674,9.4164,-0.9649,-2.1452,0.1151,-0.0791,-0.0786,-6.45,8.55,-84.3,9.6295,-0.7278,-0.1532,0.0983,-0.0922,-0.0221,-89.85,15.6,-7.65,5.32,0.36,-8.29,0.0295,0.1396,0.0491,-31.6875,-12.6875,39.875,141.125,32.625,-177.375,0
1776972564.679,9.4164,-0.9649,-2.1452,0.1151,-0.0791,-0.0786,-6.45,8.55,-84.3,9.6295,-0.7278,-0.1532,0.0983,-0.0922,-0.0221,-89.85,15.6,-7.65,5.32,0.36,-8.29,0.0295,0.1396,0.0491,-31.6875,-12.6875,39.875,141.125,32.625,-177.375,0
1776972564.684,9.3398,-1.008,-2.2673,0.1162,-0.0901,-0.077,-6.9,9.3,-84.75,9.6271,-0.7877,-0.1939,0.1234,-0.0741,-0.0256,-89.85,15.9,-8.4,5.35,0.39,-8.3,0.036,0.132,0.0447,-31.6875,-12.6875,39.875,141.125,32.6875,-177.4375,0
1776972564.689,9.3398,-1.008,-2.2673,0.1162,-0.0901,-0.077,-6.9,9.3,-84.75,9.6271,-0.7877,-0.1939,0.1234,-0.0741,-0.0256,-89.85,15.9,-8.4,5.35,0.39,-8.3,0.0349,0.0971,0.0393,-31.6875,-12.6875,39.875,141.125,32.75,-177.4375,0
1776972564.695,9.3254,-0.9601,-2.3104,0.1279,-0.0837,-0.0695,-6.15,9.3,-83.7,9.5624,-0.6512,-0.2418,0.1743,-0.0661,-0.0301,-90.3,15.6,-7.35,5.34,0.35,-8.33,0.0349,0.0971,0.0393,-31.6875,-12.6875,39.875,141.125,32.75,-177.4375,0
1776972564.704,9.232,-0.9984,-2.3559,0.142,-0.1026,-0.0669,-7.35,9.9,-84.6,9.4427,-0.6033,-0.1006,0.2057,-0.0706,-0.0322,-88.35,15.9,-7.65,5.34,0.36,-8.27,0.0305,0.0851,0.0316,-31.6875,-12.6875,39.875,141.125,32.8125,-177.5,0
1776972564.708,9.4427,-1.0319,-2.2529,0.1503,-0.0949,-0.0608,-7.35,9.9,-84.6,9.4427,-0.6033,-0.1006,0.2057,-0.0706,-0.0322,-88.35,15.9,-7.65,5.34,0.36,-8.27,0.0316,0.0764,0.024,-31.6875,-12.6875,39.875,141.125,32.875,-177.5,0
1776972564.715,9.4427,-1.0319,-2.2529,0.1503,-0.0949,-0.0608,-7.5,10.5,-82.95,9.5984,-0.6201,0.0718,0.2116,-0.0775,-0.025,-89.85,17.1,-7.35,5.3,0.35,-8.28,0.0316,0.0764,0.024,-31.6875,-12.6875,39.875,141.125,32.875,-177.5,0
1776972564.72,9.5457,-1.0654,-2.1763,0.1647,-0.0989,-0.0645,-7.5,10.5,-82.95,9.8019,-0.4788,0.2466,0.2116,-0.0775,-0.025,-89.85,17.1,-7.35,5.3,0.35,-8.28,0.0316,0.0535,0.0175,-32.0625,-12.6875,38.5625,141.125,32.875,-177.5625,0
1776972564.725,9.5457,-1.0654,-2.1763,0.1647,-0.0989,-0.0645,-7.5,10.5,-82.95,9.8019,-0.4788,0.2466,0.2065,-0.1031,-0.0168,-89.85,17.1,-7.35,5.3,0.36,-8.3,0.0316,0.0535,0.0175,-32.0625,-12.6875,38.5625,141.125,32.875,-177.5625,0
1776972564.73,9.7013,-1.2617,-2.0782,0.1951,-0.0983,-0.061,-7.5,10.5,-82.95,9.8497,-0.2849,0.4717,0.2065,-0.1031,-0.0168,-89.85,17.1,-7.35,5.3,0.36,-8.3,0.0273,0.0393,0.0142,-32.0625,-12.6875,38.5625,141.125,32.875,-177.5625,0
1776972564.735,9.7013,-1.2617,-2.0782,0.1951,-0.0983,-0.061,-7.35,9.9,-85.2,9.8497,-0.2849,0.4717,0.2217,-0.1212,-0.0083,-89.7,16.2,-7.2,5.34,0.36,-8.3,0.0273,0.0393,0.0142,-32.0625,-12.6875,38.5625,141.125,32.875,-177.5625,0
1776972564.74,9.7779,-1.3719,-1.8435,0.2073,-0.1098,-0.0586,-7.35,9.9,-85.2,9.9264,-0.1628,0.6273,0.2217,-0.1212,-0.0083,-89.7,16.2,-7.2,5.34,0.36,-8.3,0.0229,0.0262,0.0044,-32.0625,-12.6875,38.5625,141.125,32.9375,-177.5625,0
1776972564.745,9.7779,-1.3719,-1.8435,0.2073,-0.1098,-0.0586,-7.5,11.25,-85.5,9.9264,-0.1628,0.6273,0.2001,-0.149,0.0029,-89.7,16.2,-7.2,5.3,0.38,-8.33,0.0229,0.0262,0.0044,-32.0625,-12.6875,38.5625,141.125,32.9375,-177.5625,0
1776972564.754,9.7923,-1.6305,-1.6281,0.1921,-0.1066,-0.0525,-6.15,9.3,-84.3,9.924,0.1149,0.8547,0.2041,-0.1663,0.0141,-91.2,15.75,-6.0,5.23,0.4,-8.34,0.0175,0.012,-0.0022,-32.0625,-12.6875,38.5625,141.125,32.9375,-177.5625,0
1776972564.759,9.7923,-1.8818,-1.3862,0.1708,-0.1434,-0.064,-6.15,9.3,-84.3,9.9359,0.2346,0.996,0.2041,-0.1663,0.0141,-91.2,15.75,-6.0,5.23,0.4,-8.34,0.0131,0.0033,-0.0044,-32.0625,-12.6875,38.5625,141.125,32.9375,-177.5625,0
1776972564.765,9.7923,-1.8818,-1.3862,0.1708,-0.1434,-0.064,-5.55,9.9,-85.2,9.9359,0.2346,0.996,0.2388,-0.1612,0.0272,-90.15,14.25,-7.5,5.23,0.41,-8.33,0.0131,0.0033,-0.0044,-32.0625,-12.6875,38.5625,141.125,32.9375,-177.5625,0
1776972564.77,9.8761,-2.0614,-1.3288,0.1356,-0.1572,-0.0717,-6.45,10.8,-85.8,10.0628,0.1987,1.2091,0.2801,-0.1897,0.0338,-90.15,14.25,-7.5,5.23,0.41,-8.33,0.0098,0.0142,-0.0022,-32.75,-12.25,39.0,141.125,32.9375,-177.5625,0
1776972564.775,9.8761,-2.0614,-1.3288,0.1356,-0.1572,-0.0717,-6.45,10.8,-85.8,10.0628,0.1987,1.2091,0.2801,-0.1897,0.0338,-90.6,15.9,-9.15,5.25,0.41,-8.3,0.0098,0.0142,-0.0022,-32.75,-12.25,39.0,141.125,32.9375,-177.5625,0
1776972564.784,9.8857,-2.0231,-1.2067,0.0946,-0.1657,-0.0839,-6.45,10.8,-85.8,10.2711,0.2059,1.4964,0.2992,-0.2118,0.06,-90.45,14.25,-8.25,5.23,0.43,-8.34,0.0076,0.0109,-0.0033,-32.75,-12.25,39.0,141.125,32.9375,-177.5625,0
1776972564.79,9.8737,-2.0806,-1.142,-0.0043,-0.1681,-0.1066,-8.4,10.2,-85.65,10.1586,0.1437,1.5443,0.2931,-0.2094,0.097,-90.45,14.25,-8.25,5.18,0.39,-8.34,0.0055,0.012,0.0033,-32.75,-12.25,39.0,141.125,32.9375,-177.5625,0
1776972564.795,9.8737,-2.0806,-1.142,-0.0043,-0.1681,-0.1066,-8.4,10.2,-85.65,10.1586,0.1437,1.5443,0.2931,-0.2094,0.097,-89.7,15.75,-6.45,5.18,0.39,-8.34,0.0055,0.012,0.0033,-32.75,-12.25,39.0,141.125,32.9375,-177.5625,0
1776972564.804,9.7875,-1.9513,-1.1756,-0.0986,-0.1785,-0.133,-6.6,8.7,-85.95,9.8282,0.0982,1.3862,0.2641,-0.2097,0.0965,-90.3,15.6,-8.1,5.26,0.42,-8.27,0.0055,0.0305,0.0076,-32.75,-12.25,39.0,141.125,32.9375,-177.5625,0
1776972564.811,9.6271,-1.8675,-1.4054,-0.1745,-0.1596,-0.1655,-5.55,9.15,-86.7,9.6079,0.0622,1.2043,0.2324,-0.1809,0.0842,-90.3,15.6,-8.1,5.27,0.4,-8.26,0.012,0.0273,0.0142,-32.75,-12.25,39.0,141.125,32.9375,-177.5625,0
1776972564.816,9.3757,-1.6855,-1.6137,-0.2302,-0.1402,-0.1998,-5.55,9.15,-86.7,9.7348,-0.0215,1.0199,0.2324,-0.1809,0.0842,-90.3,15.6,-8.1,5.27,0.4,-8.26,0.012,0.0273,0.0142,-32.75,-12.25,39.0,141.125,32.9375,-177.5625,0
1776972564.821,9.3757,-1.6855,-1.6137,-0.2302,-0.1402,-0.1998,-6.6,10.95,-86.25,9.7348,-0.0215,1.0199,0.1956,-0.2126,0.0562,-90.3,15.6,-8.1,5.27,0.38,-8.26,0.0153,0.0251,0.0164,-33.875,-12.6875,36.5625,141.125,32.9375,-177.625,0
1776972564.826,9.3494,-1.4557,-1.7071,-0.2667,-0.1639,-0.2156,-6.6,10.95,-86.25,9.3901,-0.1389,0.7733,0.1956,-0.2126,0.0562,-88.8,16.35,-9.15,5.27,0.38,-8.26,0.0153,0.0251,0.0164,-33.875,-12.6875,36.5625,141.125,32.9375,-177.625,0
1776972564.831,9.3494,-1.4557,-1.7071,-0.2667,-0.1639,-0.2156,-5.7,10.05,-86.1,9.3901,-0.1389,0.7733,0.1897,-0.2403,0.0645,-88.8,16.35,-9.15,5.24,0.39,-8.2,0.0218,0.0164,0.0229,-33.875,-12.6875,36.5625,141.1875,33.0,-177.625,0
1776972564.835,9.177,-1.1085,-1.9944,-0.315,-0.1455,-0.2209,-5.7,10.05,-86.1,9.1339,-0.237,0.3591,0.1897,-0.2403,0.0645,-88.8,16.35,-9.15,5.24,0.39,-8.2,0.0218,0.0164,0.0229,-33.875,-12.6875,36.5625,141.1875,33.0,-177.625,0
1776972564.84,9.177,-1.1085,-1.9944,-0.315,-0.1455,-0.2209,-5.7,10.05,-86.1,9.1339,-0.237,0.3591,0.1964,-0.2308,0.0613,-88.8,16.35,-9.15,5.25,0.16,-8.26,0.0273,0.0142,0.0295,-33.875,-12.6875,36.5625,141.1875,33.0,-177.625,0
1776972564.845,9.2656,-0.9481,-2.2122,-0.2862,-0.1394,-0.2273,-5.7,10.05,-86.1,9.0094,-0.3089,-0.0144,0.1964,-0.2308,0.0613,-90.15,15.45,-8.25,5.25,0.16,-8.26,0.0273,0.0142,0.0295,-33.875,-12.6875,36.5625,141.1875,33.0,-177.6875,0
1776972564.854,9.2656,-0.5195,-2.4995,-0.2875,-0.1466,-0.2188,-7.05,10.2,-85.95,8.995,-0.3065,-0.2897,0.2057,-0.199,0.0573,-89.85,14.4,-8.1,5.32,0.57,-8.07,0.0524,0.012,0.0273,-33.875,-12.6875,36.5625,141.1875,33.0,-177.6875,0
1776972564.863,9.2656,-0.5195,-2.4995,-0.2875,-0.1466,-0.2188,-8.1,11.7,-85.65,8.995,-0.3065,-0.2897,0.2241,-0.162,0.0504,-89.85,14.4,-8.1,5.39,0.31,-8.25,0.0535,0.0087,0.0229,-33.875,-12.6875,36.5625,141.1875,33.0,-177.6875,0
1776972564.867,9.2967,-0.2777,-2.6719,-0.2742,-0.1783,-0.2094,-8.1,11.7,-85.65,9.1626,-0.2658,-0.6249,0.2401,-0.1258,0.0557,-89.55,15.6,-9.15,5.39,0.31,-8.25,0.0535,0.0087,0.0229,-33.875,-12.6875,36.5625,141.1875,33.0,-177.6875,0
1776972564.872,9.2967,-0.2777,-2.6719,-0.2742,-0.1783,-0.2094,-7.8,9.15,-85.95,9.1626,-0.2658,-0.6249,0.2401,-0.1258,0.0557,-89.55,15.6,-9.15,5.31,0.35,-8.26,0.0404,-0.0022,0.0175,-32.375,-12.6875,37.875,141.1875,33.0,-177.75,0
1776972564.877,9.5193,-0.1053,-2.885,-0.2164,-0.1988,-0.2089,-7.8,9.15,-85.95,9.3805,0.0287,-0.8499,0.2806,-0.118,0.0442,-91.05,15.15,-9.15,5.31,0.35,-8.26,0.0404,-0.0022,0.0175,-32.375,-12.6875,37.875,141.1875,33.0,-177.75,0
1776972564.882,9.5193,-0.1053,-2.885,-0.2164,-0.1988,-0.2089,-9.75,9.3,-85.8,9.3805,0.0287,-0.8499,0.2806,-0.118,0.0442,-91.05,15.15,-9.15,5.26,0.35,-8.31,0.0305,-0.0415,0.0142,-32.375,-12.6875,37.875,141.1875,32.9375,-177.75,0
1776972564.887,9.5217,-0.0646,-2.8778,-0.1591,-0.2062,-0.2052,-9.75,9.3,-85.8,9.5577,-0.0766,-1.0032,0.3413,-0.1378,0.0341,-89.7,16.2,-9.3,5.26,0.35,-8.31,0.0305,-0.0415,0.0142,-32.375,-12.6875,37.875,141.1875,32.9375,-177.75,0
1776972564.894,9.596,-0.1724,-2.8467,-0.0839,-0.2185,-0.1964,-9.75,9.3,-85.8,9.9144,0.0862,-0.996,0.3765,-0.1604,0.0389,-89.7,15.45,-10.05,5.3,0.34,-8.29,0.0262,-0.0349,0.0065,-32.375,-12.6875,37.875,141.1875,32.9375,-177.75,0
1776972564.901,9.596,-0.1724,-2.8467,-0.0839,-0.2185,-0.1964,-9.75,9.3,-85.8,9.9144,0.0862,-0.996,0.3765,-0.1604,0.0389,-89.7,15.45,-10.05,5.24,0.37,-8.35,0.0207,-0.0447,-0.0011,-32.375,-12.6875,37.875,141.1875,32.9375,-177.8125,0
1776972564.906,9.6438,-0.3711,-2.6624,-0.025,-0.2388,-0.1796,-9.75,9.3,-85.8,9.663,-0.1269,-0.8954,0.404,-0.1713,0.0506,-89.7,15.45,-10.05,5.24,0.37,-8.35,0.0207,-0.0447,-0.0011,-32.375,-12.6875,37.875,141.1875,32.875,-177.8125,0
1776972564.915,9.5433,-0.6369,-2.3966,0.0021,-0.2526,-0.1596,-8.25,9.3,-87.15,9.9814,-0.3017,-0.7302,0.3629,-0.1655,0.0506,-90.15,16.95,-8.7,5.28,0.37,-8.31,0.0175,-0.0513,-0.0044,-32.375,-12.6875,37.875,141.1875,32.875,-177.8125,0
1776972564.92,9.5433,-0.6369,-2.3966,0.0021,-0.2526,-0.1596,-8.85,9.9,-88.05,9.9814,-0.3017,-0.7302,0.3629,-0.1655,0.0506,-90.15,16.95,-8.7,5.28,0.37,-8.31,0.0175,-0.0513,-0.0044,-32.375,-12.6875,37.875,141.1875,32.875,-177.8125,0
1776972564.925,9.5768,-0.9074,-2.1691,0.0053,-0.2577,-0.1471,-8.85,9.9,-88.05,10.0604,-0.4717,-0.5578,0.319,-0.1951,0.0573,-90.15,16.95,-8.7,5.26,0.36,-8.31,0.012,-0.0567,-0.0098,-32.75,-12.6875,38.375,141.1875,32.875,-177.8125,0
1776972564.93,9.5768,-0.9074,-2.1691,0.0053,-0.2577,-0.1471,-7.2,9.3,-86.85,10.0604,-0.4717,-0.5578,0.319,-0.1951,0.0573,-90.15,16.95,-8.7,5.26,0.36,-8.31,0.012,-0.0567,-0.0098,-32.75,-12.6875,38.375,141.1875,32.8125,-177.8125,0
1776972564.935,9.6582,-1.0367,-2.0901,-0.0152,-0.2521,-0.1466,-7.2,9.3,-86.85,9.9862,-0.6201,-0.4357,0.2715,-0.1921,0.0578,-90.15,15.75,-9.0,5.27,0.35,-8.34,0.0076,-0.06,-0.0109,-32.75,-12.6875,38.375,141.1875,32.8125,-177.8125,0
1776972564.94,9.6582,-1.0367,-2.0901,-0.0152,-0.2521,-0.1466,-7.8,10.95,-88.8,9.9862,-0.6201,-0.4357,0.2715,-0.1921,0.0578,-90.15,15.75,-9.0,5.27,0.35,-8.34,0.0022,-0.0676,-0.012,-32.75,-12.6875,38.375,141.1875,32.75,-177.8125,0
1776972564.945,9.8019,-1.0056,-1.9297,-0.0592,-0.2334,-0.138,-7.8,10.95,-88.8,10.0772,-0.5052,-0.2538,0.2252,-0.2124,0.052,-90.9,15.45,-10.5,5.26,0.4,-8.34,0.0022,-0.0676,-0.012,-32.75,-12.6875,38.375,141.1875,32.75,-177.8125,0
1776972564.954,9.8593,-1.0247,-1.8052,-0.125,-0.2198,-0.1383,-7.8,10.95,-88.8,10.0485,-0.5267,-0.2682,0.2286,-0.223,0.0573,-89.4,14.55,-9.0,5.21,0.4,-8.37,0.0033,-0.0753,-0.0131,-32.75,-12.6875,38.375,141.125,32.75,-177.8125,0
1776972564.959,9.8593,-1.0247,-1.8052,-0.125,-0.2198,-0.1383,-7.8,10.95,-88.8,10.0485,-0.5267,-0.2682,0.2286,-0.223,0.0573,-89.4,14.55,-9.0,5.21,0.4,-8.37,-0.0022,-0.06,-0.0142,-32.75,-12.6875,38.375,141.125,32.6875,-177.8125,0
1776972564.965,9.924,-0.7997,-1.7119,-0.1932,-0.215,-0.1426,-7.8,10.95,-88.8,10.0389,-0.4142,-0.2298,0.2358,-0.2454,0.0485,-90.3,14.4,-9.6,5.24,0.42,-8.32,-0.0022,-0.06,-0.0142,-32.75,-12.6875,38.375,141.125,32.6875,-177.8125,0
1776972564.97,9.9934,-0.5746,-1.585,-0.2491,-0.2174,-0.1404,-8.85,10.65,-88.5,10.0413,-0.237,-0.5339,0.2358,-0.2454,0.0485,-90.3,14.4,-9.6,5.24,0.42,-8.32,-0.0022,-0.0578,-0.0109,-32.0625,-13.0,37.875,141.125,32.6875,-177.75,0
1776972564.975,9.9934,-0.5746,-1.585,-0.2491,-0.2174,-0.1404,-8.85,10.65,-88.5,10.0413,-0.237,-0.5339,0.259,-0.2398,0.0266,-89.7,15.75,-10.5,5.25,0.42,-8.39,-0.0022,-0.0578,-0.0109,-32.0625,-13.0,37.875,141.125,32.6875,-177.75,0
1776972564.98,10.003,-0.261,-1.5107,-0.2886,-0.2174,-0.1394,-7.05,9.15,-87.0,10.0916,0.0886,-0.7159,0.2739,-0.2318,-0.0032,-89.7,15.75,-10.5,5.25,0.42,-8.39,0.0044,-0.0676,-0.0098,-32.0625,-13.0,37.875,141.125,32.625,-177.75,0
1776972564.985,10.003,-0.261,-1.5107,-0.2886,-0.2174,-0.1394,-7.05,9.15,-87.0,10.0916,0.0886,-0.7159,0.2739,-0.2318,-0.0032,-89.7,16.2,-9.75,5.25,0.44,-8.34,0.0044,-0.0676,-0.0098,-32.0625,-13.0,37.875,141.125,32.625,-177.75,0
1776972564.99,10.1754,0.1508,-1.4844,-0.3128,-0.2305,-0.1164,-8.7,11.25,-88.35,10.137,0.3855,-0.9002,0.2966,-0.2214,-0.0176,-89.7,16.2,-9.75,5.25,0.44,-8.34,0.0087,-0.0633,-0.0055,-32.0625,-13.0,37.875,141.125,32.5625,-177.75,0
1776972564.995,10.1754,0.1508,-1.4844,-0.3128,-0.2305,-0.1164,-9.3,11.55,-88.65,10.137,0.3855,-0.9002,0.2966,-0.2214,-0.0176,-89.7,16.2,-9.75,5.27,0.45,-8.36,0.0087,-0.0633,-0.0055,-32.0625,-13.0,37.875,141.125,32.5625,-177.75,0
1776972565.005,10.2544,0.4094,-1.3958,-0.34,-0.2587,-0.0933,-9.3,11.55,-88.65,10.0628,0.6153,-1.0822,0.3259,-0.2094,-0.0469,-90.45,16.2,-12.0,5.18,0.43,-8.37,0.0131,-0.0676,0.0022,-32.0625,-13.0,37.875,141.125,32.5625,-177.75,0
1776972565.009,10.2903,0.7614,-1.3934,-0.3605,-0.2822,-0.0541,-9.3,11.55,-88.65,9.9,0.6488,-1.4222,0.3544,-0.2044,-0.0592,-90.45,16.2,-12.0,5.18,0.43,-8.37,0.0164,-0.0731,0.0142,-32.0625,-13.0,37.875,141.125,32.5,-177.8125,0
1776972565.016,10.2903,0.7614,-1.3934,-0.3605,-0.2822,-0.0541,-8.25,10.5,-88.95,9.9,0.6488,-1.4222,0.3544,-0.2044,-0.0592,-90.45,16.2,-12.0,5.23,0.47,-8.35,0.0164,-0.0731,0.0142,-32.0625,-13.0,37.875,141.125,32.5,-177.8125,0
1776972565.02,10.3525,1.0558,-1.3408,-0.3659,-0.3325,-0.0059,-8.25,10.5,-88.95,9.9766,0.6871,-1.664,0.3504,-0.1804,-0.073,-90.45,16.2,-12.0,5.23,0.47,-8.35,0.0164,-0.0687,0.0251,-32.375,-12.6875,37.75,141.125,32.4375,-177.8125,0
1776972565.025,10.3525,1.0558,-1.3408,-0.3659,-0.3325,-0.0059,-10.8,12.0,-89.4,9.9766,0.6871,-1.664,0.3504,-0.1804,-0.073,-91.05,15.9,-11.1,5.18,0.43,-8.32,0.0164,-0.0687,0.0251,-32.375,-12.6875,37.75,141.125,32.4375,-177.8125,0
1776972565.03,10.4746,1.3671,-1.3264,-0.3555,-0.38,0.0533,-10.8,12.0,-89.4,10.2855,0.6608,-1.8866,0.2782,-0.2161,-0.1394,-91.05,15.9,-11.1,5.18,0.43,-8.32,0.0109,-0.0644,0.0338,-32.375,-12.6875,37.75,141.1875,32.4375,-177.8125,0
1776972565.035,10.4746,1.3671,-1.3264,-0.3555,-0.38,0.0533,-9.9,10.95,-90.6,10.2855,0.6608,-1.8866,0.2782,-0.2161,-0.1394,-90.15,16.2,-10.5,5.17,0.4,-8.35,0.0109,-0.0644,0.0338,-32.375,-12.6875,37.75,141.1875,32.4375,-177.8125,0
1776972565.04,10.6662,1.5778,-1.257,-0.3424,-0.4258,0.1103,-9.9,10.95,-90.6,10.4004,1.1133,-2.1955,0.2467,-0.2395,-0.1849,-90.15,16.2,-10.5,5.17,0.4,-8.35,0.0065,-0.0524,0.0371,-32.375,-12.6875,37.75,141.1875,32.375,-177.8125,0
1776972565.046,10.6662,1.5778,-1.257,-0.3424,-0.4258,0.1103,-8.4,10.65,-89.85,10.4004,1.1133,-2.1955,0.2467,-0.2395,-0.1849,-90.15,15.75,-10.5,5.12,0.44,-8.36,0.0065,-0.0524,0.0371,-32.375,-12.6875,37.75,141.1875,32.375,-177.8125,0
1776972565.055,10.8074,1.6376,-1.154,-0.3424,-0.4676,0.1855,-8.85,11.7,-89.85,10.2663,1.2833,-2.5522,0.2473,-0.2425,-0.2166,-90.15,15.75,-10.5,5.07,0.49,-8.43,0.0055,-0.0338,0.0447,-32.375,-12.6875,37.75,141.1875,32.375,-177.8125,0
