timestamp,thigh_acc_x,thigh_acc_y,thigh_acc_z,thigh_gyro_x,thigh_gyro_y,thigh_gyro_z,thigh_mag_x,thigh_mag_y,thigh_mag_z,shank_acc_x,shank_acc_y,shank_acc_z,shank_gyro_x,shank_gyro_y,shank_gyro_z,shank_mag_x,shank_mag_y,shank_mag_z,foot_acc_x,foot_acc_y,foot_acc_z,foot_gyro_x,foot_gyro_y,foot_gyro_z,foot_mag_x,foot_mag_y,foot_mag_z,foot_euler_x,foot_euler_y,foot_euler_z,perturbation_event
1776973673.659,9.2249,5.0326,0.1628,0.0107,0.0195,0.5558,-95.7,39.15,40.65,10.5656,-0.0527,1.9058,-0.2689,0.7048,1.0643,-67.35,7.5,26.1,-3.66,-2.84,-9.24,-0.0055,-0.1538,0.1156,24.1875,25.875,25.375,34.9375,-28.0625,163.8125,0
1776973673.664,10.1323,5.4875,-0.6919,0.0879,0.1007,0.5273,-95.25,40.2,40.35,10.5656,-0.0527,1.9058,-0.2689,0.7048,1.0643,-68.4,5.25,26.7,-3.99,-2.65,-9.21,-0.0055,-0.1538,0.1156,24.1875,25.875,25.375,35.0,-28.1875,163.8125,0
1776973673.673,10.4746,5.4157,-1.166,0.0541,0.0706,0.4511,-95.85,40.5,40.5,10.6901,-0.4764,2.2505,-0.2188,0.7658,1.1261,-68.4,5.25,26.7,-4.07,-2.79,-9.16,0.0513,-0.204,0.1233,24.1875,25.875,25.375,35.0625,-28.375,163.75,0
1776973673.683,9.7971,5.0326,-1.1851,-0.0432,-0.0485,0.3563,-95.85,40.5,40.5,11.0253,-0.2634,1.5179,-0.2369,0.773,1.1924,-69.0,6.6,25.05,-3.71,-2.53,-9.47,0.1134,-0.3087,0.1484,24.1875,25.875,25.375,35.0625,-28.375,163.75,0
1776973673.688,9.7971,5.0326,-1.1851,-0.0432,-0.0485,0.3563,-95.85,40.5,40.5,11.2049,0.2346,0.9385,-0.3096,0.8543,1.2164,-69.0,6.6,25.05,-3.71,-2.53,-9.47,0.1134,-0.3087,0.1484,24.1875,25.875,25.375,35.125,-28.625,163.6875,0
1776973673.693,9.3637,4.4652,-1.652,-0.0725,-0.0789,0.2156,-97.8,39.9,42.45,11.2049,0.2346,0.9385,-0.3096,0.8543,1.2164,-69.0,6.6,25.05,-3.74,-2.67,-9.75,0.0993,-0.468,0.1909,24.1875,25.1875,25.875,35.125,-28.625,163.6875,0
1776973673.698,9.3637,4.4652,-1.652,-0.0725,-0.0789,0.2156,-97.8,39.9,42.45,11.3725,0.8212,0.2945,-0.4612,0.9246,1.2231,-69.0,6.6,25.05,-3.74,-2.67,-9.75,0.0993,-0.468,0.1909,24.1875,25.1875,25.875,35.25,-29.0625,163.625,0
1776973673.703,8.8825,4.0845,-2.3296,0.1676,-0.1492,0.0671,-96.0,38.7,42.45,11.3725,0.8212,0.2945,-0.4612,0.9246,1.2231,-67.35,4.5,26.4,-3.71,-2.68,-9.77,0.1484,-0.649,0.2367,24.1875,25.1875,25.875,35.25,-29.0625,163.625,0
1776973673.711,9.0836,4.2545,-3.5889,0.4972,-0.1966,-0.0765,-97.5,40.95,43.2,11.8106,1.6735,-0.6752,-0.498,1.0235,1.2785,-65.85,4.05,27.15,-3.64,-2.89,-9.84,0.2411,-0.8127,0.2902,24.1875,25.1875,25.875,35.375,-29.5,163.5,0
1776973673.716,9.0836,4.2545,-3.5889,0.4972,-0.1966,-0.0765,-97.5,40.95,43.2,12.9167,2.6887,-1.8483,-0.5793,1.0754,1.3883,-65.85,4.05,27.15,-3.64,-2.89,-9.84,0.2411,-0.8127,0.2902,24.1875,25.1875,25.875,35.5625,-30.125,163.375,0
1776973673.724,9.8976,4.9129,-4.6328,0.9324,-0.4764,-0.2526,-98.4,40.05,40.5,12.9167,2.6887,-1.8483,-0.5793,1.0754,1.3883,-66.6,3.3,27.15,-3.13,-3.42,-11.24,0.2618,-1.0679,0.3545,24.1875,25.1875,25.875,35.6875,-31.0,163.3125,0
1776973673.733,9.9766,4.0079,-4.2904,1.3073,-0.7762,-0.4402,-98.7,41.25,41.55,14.4035,4.2401,-2.4277,-0.6789,1.1794,1.5218,-66.0,3.0,29.55,-2.56,-3.14,-11.81,0.1658,-1.4704,0.4592,24.1875,25.1875,25.875,35.6875,-31.0,163.3125,0
1776973673.738,9.9766,4.0079,-4.2904,1.3073,-0.7762,-0.4402,-98.7,41.25,41.55,15.8736,3.4716,-1.4892,-0.9014,1.1863,1.631,-66.0,3.0,29.55,-2.56,-3.14,-11.81,0.1658,-1.4704,0.4592,24.1875,25.1875,25.875,35.9375,-32.125,163.1875,0
1776973673.743,10.8936,3.2274,-4.221,2.0014,-0.8966,-0.647,-98.7,41.25,41.55,16.4697,1.9585,-0.8595,-0.9014,1.1863,1.631,-65.25,2.7,28.8,-2.14,-2.94,-12.26,0.156,-1.945,0.5858,24.875,24.75,25.875,35.9375,-32.125,163.1875,0
1776973673.748,10.8936,3.2274,-4.221,2.0014,-0.8966,-0.647,-98.7,41.25,41.55,16.4697,1.9585,-0.8595,-0.8596,1.2271,1.7086,-65.25,2.7,28.8,-2.14,-2.94,-12.26,0.156,-1.945,0.5858,24.875,24.75,25.875,36.1875,-33.5625,163.0625,0
1776973673.753,11.643,3.8235,-5.3295,2.5722,-1.2279,-0.7037,-99.45,42.0,40.95,17.2766,1.0032,-1.6783,-0.8596,1.2271,1.7086,-64.8,0.75,31.05,-2.16,-2.69,-12.33,0.288,-2.4849,0.7854,24.875,24.75,25.875,36.1875,-33.5625,163.0625,0
1776973673.76,12.05,4.707,-4.8818,2.6561,-1.3992,-0.7328,-98.85,42.15,40.05,17.2766,1.0032,-1.6783,-0.6374,1.2223,1.8167,-64.8,0.75,31.05,-1.74,-3.49,-12.51,0.5651,-3.0412,1.0472,24.875,24.75,25.875,36.6875,-35.375,162.8125,0
1776973673.765,12.05,4.707,-4.8818,2.6561,-1.3992,-0.7328,-98.85,42.15,40.05,19.1081,1.7502,-1.9225,-0.6944,1.3265,1.9063,-64.8,0.75,31.05,-1.74,-3.49,-12.51,0.5651,-3.0412,1.0472,24.875,24.75,25.875,37.25,-37.5,162.5,0
1776973673.773,13.0388,5.1595,-3.7278,2.5263,-1.8546,-0.9198,-99.9,45.3,39.15,18.0427,2.0351,-1.6999,-1.06,1.3507,1.9417,-63.15,-1.35,31.2,-1.22,-3.83,-12.86,0.6567,-3.6085,1.3799,24.875,24.75,25.875,38.0625,-40.0625,162.3125,0
1776973673.783,13.0652,4.9033,-2.5666,2.0672,-2.2132,-1.1951,-100.35,45.15,40.35,16.4625,1.6831,-0.6225,-1.4887,1.355,1.918,-63.15,-1.35,31.2,-0.19,-4.04,-13.04,0.7396,-4.3011,1.7704,24.875,24.75,25.875,38.0625,-40.0625,162.3125,0
1776973673.788,13.2136,3.9456,-1.2809,1.9366,-2.8653,-1.4344,-100.35,45.15,40.35,16.4625,1.6831,-0.6225,-1.4887,1.355,1.918,-63.15,-1.35,31.2,-0.19,-4.04,-13.04,0.7396,-4.3011,1.7704,27.5,24.375,23.0625,75.4375,-43.125,162.125,0
1776973673.793,13.2136,3.9456,-1.2809,1.9366,-2.8653,-1.4344,-100.35,45.15,40.35,13.4267,-0.8068,1.415,-1.655,1.4887,1.9049,-62.55,-4.65,32.1,-1.0,-4.28,-12.0,0.9032,-5.0473,2.2907,27.5,24.375,23.0625,75.4375,-43.125,162.125,0
1776973673.798,12.9718,2.4205,0.4764,1.5772,-3.0843,-1.5252,-99.3,45.45,36.75,13.4267,-0.8068,1.415,-1.655,1.4887,1.9049,-62.55,-4.65,32.1,-1.0,-4.28,-12.0,0.9032,-5.0473,2.2907,27.5,24.375,23.0625,72.9375,-46.625,162.0625,0
1776973673.803,12.9718,2.4205,0.4764,1.5772,-3.0843,-1.5252,-99.3,45.45,36.75,10.2472,-3.6368,4.1156,-1.3755,1.6742,1.8983,-61.8,-5.85,32.85,-4.87,-3.71,-10.78,1.0265,-5.8109,2.8307,27.5,24.375,23.0625,72.9375,-46.625,162.0625,0
1776973673.81,12.1123,0.7326,2.4157,1.2033,-3.1109,-1.5428,-100.05,47.4,34.65,10.2472,-3.6368,4.1156,-1.3755,1.6742,1.8983,-61.8,-5.85,32.85,-8.62,-3.17,-10.05,0.9545,-6.1152,2.9703,27.5,24.375,23.0625,70.5,-50.375,162.125,0
1776973673.815,12.1123,0.7326,2.4157,1.2033,-3.1109,-1.5428,-100.05,47.4,34.65,8.0014,-5.715,7.6303,-0.712,1.6904,1.9822,-62.25,-5.4,33.3,-8.62,-3.17,-10.05,0.9545,-6.1152,2.9703,27.5,24.375,23.0625,68.375,-54.125,162.0625,0
1776973673.823,11.2599,-0.7398,4.798,0.741,-2.9012,-1.5042,-99.45,48.3,33.45,6.7253,-6.1842,8.5593,-0.2081,1.6827,2.0153,-60.3,-8.1,32.55,-15.24,-2.87,-9.79,0.877,-6.1632,2.6889,27.5,24.375,23.0625,68.375,-54.125,162.0625,0
1776973673.833,10.8026,-1.1564,5.7748,0.3651,-2.6247,-1.4226,-100.35,45.9,31.8,6.4763,-5.8873,9.4475,0.2614,1.4573,1.9814,-60.3,-8.1,32.55,-13.67,-2.45,-10.29,0.9807,-5.729,2.1817,27.5,24.375,23.0625,66.9375,-57.5,161.8125,0
1776973673.838,10.2448,-0.0599,4.9632,0.0309,-2.1845,-1.3789,-99.9,47.25,31.35,6.4763,-5.8873,9.4475,0.2614,1.4573,1.9814,-60.3,-8.1,32.55,-13.67,-2.45,-10.29,0.9807,-5.729,2.1817,27.5,24.375,23.0625,66.9375,-57.5,161.8125,0
1776973673.843,10.2448,-0.0599,4.9632,0.0309,-2.1845,-1.3789,-99.9,47.25,31.35,5.7126,-4.6304,8.6862,0.5532,1.2993,1.7912,-58.35,-8.55,34.35,-15.94,-2.52,-10.18,1.2577,-5.0822,1.7213,33.375,21.5,14.375,66.25,-60.4375,161.125,0
1776973673.848,12.1171,1.9058,2.5833,-0.6502,-1.6915,-1.4136,-99.9,47.25,31.35,5.7126,-4.6304,8.6862,0.5532,1.2993,1.7912,-58.35,-8.55,34.35,-15.94,-2.52,-10.18,1.2577,-5.0822,1.7213,33.375,21.5,14.375,66.25,-60.4375,161.125,0
1776973673.853,12.1171,1.9058,2.5833,-0.6502,-1.6915,-1.4136,-99.9,47.25,31.35,5.3319,-3.2609,8.3175,0.7754,0.9966,1.4623,-58.35,-8.55,34.35,-9.85,-3.42,-9.46,1.5686,-4.4419,1.4115,33.375,21.5,14.375,66.1875,-63.0625,160.125,0
1776973673.858,13.1849,2.9521,0.4788,-1.1727,-1.3512,-1.5559,-94.5,46.2,29.7,5.3319,-3.2609,8.3175,0.7754,0.9966,1.4623,-58.35,-8.55,34.35,-9.85,-3.42,-9.46,1.7224,-3.9084,1.1159,33.375,21.5,14.375,66.4375,-65.3125,158.75,0
1776973673.864,13.1849,2.9521,0.4788,-1.1727,-1.3512,-1.5559,-94.5,46.2,29.7,5.4061,-2.7964,6.8809,0.9926,0.6475,1.0938,-56.55,-9.3,34.8,-5.33,-2.4,-6.81,1.7224,-3.9084,1.1159,33.375,21.5,14.375,66.75,-67.1875,157.4375,0
1776973673.874,12.7108,3.486,0.8284,-1.356,-1.4965,-1.5924,-96.0,47.4,28.65,5.7652,-3.1867,6.9145,1.2774,0.1034,0.6864,-56.85,-8.55,35.1,-0.79,-5.25,-5.29,1.501,-3.3063,0.8792,33.375,21.5,14.375,66.75,-67.1875,157.4375,0
1776973673.883,12.1051,4.0821,1.6352,-1.4272,-1.9015,-1.4157,-94.5,46.95,26.4,5.7006,-2.2218,4.458,1.0112,-0.5838,0.3147,-56.7,-7.5,36.0,-2.75,-15.63,-19.23,0.7461,-1.9351,0.3949,33.375,21.5,14.375,66.875,-68.25,156.4375,0
1776973673.888,10.6111,4.1587,1.9489,-1.2196,-1.9795,-1.1703,-93.3,48.0,26.25,5.8802,-0.9912,1.1684,0.8226,-1.0405,-0.0541,-56.7,-7.5,36.0,-2.75,-15.63,-19.23,0.7461,-1.9351,0.3949,33.375,21.5,14.375,66.875,-68.25,156.4375,0
1776973673.893,10.6111,4.1587,1.9489,-1.2196,-1.9795,-1.1703,-93.3,48.0,26.25,5.8802,-0.9912,1.1684,0.8226,-1.0405,-0.0541,-56.25,-7.2,36.45,3.97,-12.88,-18.13,-0.3731,0.1811,-0.5258,38.1875,18.875,5.375,66.875,-68.0625,156.125,0
1776973673.898,12.5193,3.3519,1.482,-1.1802,-2.0931,-1.0778,-93.3,48.0,26.25,6.1914,-1.6664,-1.1851,1.0203,-1.4024,-0.4836,-56.25,-7.2,36.45,3.97,-12.88,-18.13,-0.3731,0.1811,-0.5258,38.1875,18.875,5.375,66.875,-68.0625,156.125,0
1776973673.903,12.5193,3.3519,1.482,-1.1802,-2.0931,-1.0778,-93.3,48.0,26.25,6.1914,-1.6664,-1.1851,1.0203,-1.4024,-0.4836,-56.7,-8.7,35.7,10.85,-8.54,-12.86,-1.2468,1.5566,-1.3166,38.1875,18.875,5.375,66.875,-66.9375,156.0,0
1776973673.911,12.7946,3.7421,2.2769,-0.8143,-1.5761,-1.291,-93.6,49.05,25.95,6.2465,-3.0622,0.8475,1.3464,-1.6403,-0.8388,-56.7,-8.7,35.7,6.58,-6.59,-9.72,-1.9929,1.9024,-1.753,38.1875,18.875,5.375,66.5,-65.625,156.0625,0
1776973673.915,12.2751,3.6679,2.7102,0.052,-1.1485,-1.3696,-93.6,49.05,25.95,6.2465,-3.0622,0.8475,1.3464,-1.6403,-0.8388,-59.1,-4.95,34.05,6.58,-6.59,-9.72,-1.9929,1.9024,-1.753,38.1875,18.875,5.375,66.0,-64.0,156.4375,0
1776973673.924,11.2288,3.5865,2.1883,0.8037,-1.0099,-1.3867,-92.7,51.15,24.3,5.8035,-4.695,2.5259,1.5042,-1.9801,-1.096,-59.1,-4.95,34.05,3.96,-0.26,-9.38,-2.3169,2.3027,-1.8697,38.1875,18.875,5.375,65.8125,-62.125,156.875,0
1776973673.934,10.9798,3.2322,0.6297,0.8543,-0.9534,-1.4381,-93.9,51.15,26.1,5.3223,-5.1834,3.9792,1.6244,-2.3771,-1.2316,-61.05,-4.95,32.1,3.45,0.31,-8.89,-2.03,2.8885,-1.9199,38.1875,18.875,5.375,65.8125,-62.125,156.875,0
1776973673.939,10.9798,3.2322,0.6297,0.8543,-0.9534,-1.4381,-91.05,51.75,25.95,4.0294,-4.4197,3.2944,1.2153,-2.6404,-1.319,-61.05,-4.95,32.1,3.45,0.31,-8.89,-2.03,2.8885,-1.9199,38.1875,18.875,5.375,66.25,-59.9375,157.25,0
1776973673.944,9.3853,2.5666,-0.5267,0.8284,-0.9166,-1.4549,-91.05,51.75,25.95,4.0294,-4.4197,3.2944,1.2153,-2.6404,-1.319,-60.45,-3.3,31.95,2.94,-0.11,-8.31,-1.4781,3.471,-1.9384,40.0625,17.375,4.5625,66.25,-59.9375,157.25,0
1776973673.949,9.3853,2.5666,-0.5267,0.8284,-0.9166,-1.4549,-91.65,51.9,24.0,3.8906,-4.2234,2.3655,0.6944,-2.9186,-1.4682,-60.45,-3.3,31.95,2.94,-0.11,-8.31,-1.4781,3.471,-1.9384,40.0625,17.375,4.5625,67.1875,-57.5,157.625,0
1776973673.954,7.5537,2.0351,-1.245,0.6622,-0.7978,-1.4568,-91.65,51.9,24.0,3.8906,-4.2234,2.3655,0.6944,-2.9186,-1.4682,-61.2,-1.65,31.65,0.7,-1.24,-7.85,-1.0734,3.9739,-1.8948,40.0625,17.375,4.5625,67.1875,-57.5,157.625,0
1776973673.958,7.5537,2.0351,-1.245,0.6622,-0.7978,-1.4568,-91.65,51.9,24.0,4.391,-4.3886,2.3631,0.4231,-3.0062,-1.6859,-61.2,-1.65,31.65,0.7,-1.24,-7.85,-0.8923,4.371,-1.8162,40.0625,17.375,4.5625,68.375,-54.875,158.125,0
1776973673.964,6.371,1.7957,-1.5897,0.6864,-0.684,-1.3432,-91.65,51.9,24.0,5.2696,-4.1946,2.5379,0.4231,-3.0062,-1.6859,-64.35,-2.4,29.4,-0.38,-1.5,-7.7,-0.8923,4.371,-1.8162,40.0625,17.375,4.5625,69.75,-52.125,158.6875,0
1776973673.974,5.3702,1.6328,-1.6807,0.8316,-0.6086,-1.097,-90.9,52.2,22.95,5.2696,-4.1946,2.5379,0.36,-3.0859,-1.9308,-65.4,-0.9,30.15,-1.26,-1.3,-7.59,-0.8301,4.6317,-1.7137,40.0625,17.375,4.5625,69.75,-52.125,158.6875,0
1776973673.984,4.5346,1.6735,-1.7909,0.8828,-0.5036,-0.7821,-92.25,52.8,22.35,6.4332,-4.027,3.2753,0.3304,-3.2516,-2.1146,-66.0,-0.75,29.25,-2.92,-1.81,-7.7,-0.7636,4.7527,-1.6286,40.0625,17.375,4.5625,71.3125,-49.375,159.1875,0
1776973673.988,4.5346,1.6735,-1.7909,0.8828,-0.5036,-0.7821,-91.5,52.05,20.55,6.4332,-4.027,3.2753,0.3435,-3.4145,-2.2284,-66.0,-0.75,29.25,-2.92,-1.81,-7.7,-0.7636,4.7527,-1.6286,40.0625,17.375,4.5625,71.3125,-49.375,159.1875,0
1776973673.994,3.1603,1.549,-1.731,0.9342,-0.4914,-0.502,-91.5,52.05,20.55,6.426,-3.7733,3.1651,0.3435,-3.4145,-2.2284,-66.0,-0.75,29.25,-3.86,-2.65,-7.83,-0.6578,4.7931,-1.6035,37.0,20.6875,11.5625,73.125,-46.5625,159.6875,0
1776973673.998,3.1603,1.549,-1.731,0.9342,-0.4914,-0.502,-92.4,51.9,20.1,6.426,-3.7733,3.1651,0.3227,-3.5495,-2.2956,-66.0,-0.75,29.25,-3.86,-2.65,-7.83,-0.6578,4.7931,-1.6035,37.0,20.6875,11.5625,73.125,-46.5625,159.6875,0
1776973674.003,4.1204,1.5036,-1.8699,0.8972,-0.1716,-0.3144,-92.4,51.9,20.1,6.5745,-3.4022,2.8706,0.3541,-3.6239,-2.3518,-69.0,1.5,25.8,-4.39,-3.53,-7.82,-0.5716,4.7997,-1.6352,37.0,20.6875,11.5625,75.3125,-43.75,160.0625,0
1776973674.009,4.1204,1.5036,-1.8699,0.8972,-0.1716,-0.3144,-92.4,51.9,20.1,6.5745,-3.4022,2.8706,0.3541,-3.6239,-2.3518,-69.0,1.5,25.8,-4.39,-3.53,-7.82,-0.5389,4.7669,-1.7126,37.0,20.6875,11.5625,35.5,-40.9375,160.375,0
1776973674.015,4.4101,1.5083,-1.6879,1.1847,0.0048,-0.1444,-94.2,48.9,17.85,7.0653,-2.7509,3.043,0.4485,-3.6988,-2.4501,-69.0,1.5,25.8,-4.74,-4.16,-7.73,-0.5389,4.7669,-1.7126,37.0,20.6875,11.5625,34.75,-38.1875,160.5625,0
1776973674.024,5.1212,1.0391,-1.8148,1.3518,0.1066,0.0024,-94.2,48.9,17.85,7.6902,-2.0662,3.3854,0.5641,-3.7217,-2.5764,-70.5,4.2,22.2,-5.46,-4.68,-7.3,-0.5258,4.6349,-1.8261,37.0,20.6875,11.5625,33.9375,-35.5,160.6875,0
1776973674.034,5.3319,0.3807,-1.7645,1.619,0.1697,0.182,-93.15,49.2,19.05,8.2384,-1.913,3.4572,0.8199,-3.7595,-2.662,-72.6,6.0,21.15,-5.66,-5.18,-7.16,-0.4931,4.4091,-1.9689,37.0,20.6875,11.5625,33.9375,-35.5,160.6875,0
1776973674.039,5.3319,0.3807,-1.7645,1.619,0.1697,0.182,-93.15,49.2,19.05,8.2384,-1.913,3.4572,0.8199,-3.7595,-2.662,-72.6,6.0,21.15,-5.66,-5.18,-7.16,-0.4931,4.4091,-1.9689,37.0,20.6875,11.5625,33.9375,-35.5,160.6875,0
1776973674.044,4.5825,-0.3855,-1.7166,1.7333,0.3994,0.3557,-93.15,51.15,17.85,8.1403,-1.5945,2.988,1.283,-3.7049,-2.6814,-71.7,6.6,19.5,-6.44,-5.55,-7.37,-0.456,4.095,-2.0911,33.375,24.375,19.75,33.0625,-32.9375,160.6875,0
1776973674.049,4.5825,-0.3855,-1.7166,1.7333,0.3994,0.3557,-93.15,51.15,17.85,8.1403,-1.5945,2.988,1.283,-3.7049,-2.6814,-71.7,6.6,19.5,-6.44,-5.55,-7.37,-0.456,4.095,-2.0911,33.375,24.375,19.75,33.0625,-32.9375,160.6875,0
1776973674.054,4.9584,-1.1492,-2.0279,1.68,0.5367,0.5513,-94.05,49.5,18.15,8.5258,-1.2713,3.4524,1.8922,-3.5735,-2.6564,-72.3,8.4,18.3,-9.39,-6.25,-7.96,-0.3872,3.7317,-2.2046,33.375,24.375,19.75,32.0625,-30.625,160.625,0
1776973674.059,5.2218,-1.5634,-2.3104,1.5596,0.5705,0.6182,-94.05,49.5,18.15,8.5258,-1.2713,3.4524,1.8922,-3.5735,-2.6564,-72.3,8.4,18.3,-9.39,-6.25,-7.96,-0.2738,3.4154,-2.3682,33.375,24.375,19.75,31.0,-28.375,160.4375,0
1776973674.065,5.2218,-1.5634,-2.3104,1.5596,0.5705,0.6182,-94.05,49.5,18.15,8.5569,-1.0726,3.5458,2.4269,-3.2293,-2.5162,-72.6,10.65,17.1,-10.99,-6.87,-8.11,-0.2738,3.4154,-2.3682,33.375,24.375,19.75,29.8125,-26.25,160.125,0
1776973674.074,5.4755,-1.5945,-2.0494,1.2316,0.4519,0.575,-94.05,49.8,18.15,8.7221,-1.1205,4.6711,2.8477,-2.9215,-2.2625,-73.65,12.45,15.45,-12.58,-7.61,-8.07,-0.1724,3.1798,-2.6431,33.375,24.375,19.75,28.4375,-24.0625,159.75,0
1776973674.084,4.7621,-1.154,-1.6209,0.7274,0.3208,0.4567,-94.05,47.55,19.5,9.0956,-1.9609,5.284,2.9191,-2.736,-1.9065,-73.65,12.45,15.45,-13.79,-8.12,-7.39,-0.1876,3.0303,-3.0031,33.375,24.375,19.75,28.4375,-24.0625,159.75,0
1776973674.089,5.1787,0.6105,-2.1691,0.2553,0.1514,0.352,-94.05,47.55,19.5,9.0956,-1.9609,5.284,2.9191,-2.736,-1.9065,-73.65,12.45,15.45,-13.79,-8.12,-7.39,-0.1876,3.0303,-3.0031,33.375,24.375,19.75,26.8125,-21.9375,159.4375,0
1776973674.094,5.1787,0.6105,-2.1691,0.2553,0.1514,0.352,-96.15,48.75,18.75,8.8777,-3.3327,6.6583,2.8786,-2.5327,-1.546,-74.85,14.55,12.0,-16.34,-7.46,-5.22,-0.3632,2.8569,-3.3554,27.875,28.0,25.25,26.8125,-21.9375,159.4375,0
1776973674.099,4.9536,2.4014,-3.8092,-0.2334,0.0266,0.2555,-96.15,48.75,18.75,7.3933,-4.1084,6.7828,2.8786,-2.5327,-1.546,-74.85,14.55,12.0,-16.34,-7.46,-5.22,-0.3632,2.8569,-3.3554,27.875,28.0,25.25,24.9375,-19.875,159.25,0
1776973674.104,4.9536,2.4014,-3.8092,-0.2334,0.0266,0.2555,-94.95,49.2,18.6,7.3933,-4.1084,6.7828,2.6329,-2.266,-1.1935,-74.85,14.55,12.0,-17.87,-6.12,-3.81,-0.6076,2.63,-3.627,27.875,28.0,25.25,24.9375,-19.875,159.25,0
1776973674.113,4.0989,5.0709,-5.3582,-0.4767,0.0791,0.1228,-94.95,49.2,18.6,6.2656,-4.5753,5.1451,2.0752,-1.878,-0.8847,-74.7,15.6,10.65,-19.78,-4.02,-1.96,-0.7887,2.3038,-3.7601,27.875,28.0,25.25,23.0625,-17.9375,159.1875,0
1776973674.117,4.6112,7.7405,-7.6758,-0.3437,0.3088,0.0368,-94.95,49.2,18.6,6.2656,-4.5753,5.1451,2.0752,-1.878,-0.8847,-74.1,17.4,9.3,-19.78,-4.02,-1.96,-0.7887,2.3038,-3.7601,27.875,28.0,25.25,21.1875,-16.1875,159.125,0
1776973674.124,4.6112,7.7405,-7.6758,-0.3437,0.3088,0.0368,-95.25,47.4,19.05,6.9719,-5.9161,4.5705,1.1855,-1.5148,-0.6001,-73.2,19.05,7.35,-19.34,13.67,3.19,-0.6545,2.0126,-3.6357,27.875,28.0,25.25,19.3125,-15.4375,158.1875,0
1776973674.134,5.023,10.4148,-11.3126,0.1553,0.1426,-0.0989,-95.1,47.55,18.15,4.8483,-7.1156,9.9551,0.4906,-0.7919,-0.3949,-74.55,17.7,7.95,-27.9,-5.07,19.9,0.6807,0.0916,-3.4776,27.875,28.0,25.25,19.3125,-15.4375,158.1875,0
1776973674.139,6.0956,14.8369,-15.8927,0.5526,-0.1583,-0.412,-95.1,47.55,18.15,6.4548,-1.9106,12.4882,-0.2377,0.3421,-0.0773,-74.55,17.7,7.95,-27.9,-5.07,19.9,0.6807,0.0916,-3.4776,27.875,28.0,25.25,17.9375,-16.25,156.875,0
1776973674.144,6.0956,14.8369,-15.8927,0.5526,-0.1583,-0.412,-95.25,48.9,19.05,6.4548,-1.9106,12.4882,-0.2377,0.3421,-0.0773,-75.15,18.3,7.65,-39.3,-10.07,31.96,1.5239,-2.5013,-2.2231,19.0625,32.0,30.0625,17.9375,-16.25,156.875,0
1776973674.149,8.5114,21.8136,-21.8615,0.7778,-0.8018,-0.8228,-95.25,48.9,19.05,18.433,5.4684,1.4174,-0.4588,1.7789,0.3123,-75.15,18.3,7.65,-39.3,-10.07,31.96,1.5239,-2.5013,-2.2231,19.0625,32.0,30.0625,17.9375,-16.25,156.875,0
1776973674.154,8.5114,21.8136,-21.8615,0.7778,-0.8018,-0.8228,-93.3,48.75,18.45,18.433,5.4684,1.4174,-0.4588,1.7789,0.3123,-75.15,18.3,7.65,-32.16,-19.11,-12.07,0.1942,-3.7535,1.2261,19.0625,32.0,30.0625,18.1875,-18.4375,156.75,0
1776973674.161,10.9439,26.0345,-16.1944,0.6222,-1.1532,-1.1658,-93.3,48.75,18.45,31.8956,8.4443,-11.2049,-2.8599,2.3025,0.8244,-75.15,18.3,7.65,-39.3,-29.81,-29.17,-3.291,-7.4002,2.8383,19.0625,32.0,30.0625,18.625,-22.8125,158.5,0
1776973674.166,15.7275,11.3533,-4.5442,1.2148,-0.0941,-1.0288,-93.3,48.75,18.45,18.5503,0.6297,-4.9177,-2.8599,2.3025,0.8244,-72.45,17.1,10.35,-39.3,-29.81,-29.17,-3.291,-7.4002,2.8383,19.0625,32.0,30.0625,18.625,-24.125,159.625,0
1776973674.174,15.7275,11.3533,-4.5442,1.2148,-0.0941,-1.0288,-93.3,48.75,18.45,18.5503,0.6297,-4.9177,-1.3531,1.7096,0.7064,-72.45,17.1,10.35,-10.9,12.41,-11.45,-1.9973,-2.2144,0.8258,19.0625,32.0,30.0625,18.5,-23.0,159.6875,0
1776973674.184,16.9869,2.6791,1.1516,1.4794,0.5255,-0.5375,-90.6,49.95,15.45,10.5297,-4.2904,-1.8459,-0.6979,1.2289,0.3773,-72.45,17.1,10.35,17.91,11.94,-0.77,-0.0458,1.9362,-0.5498,19.0625,32.0,30.0625,18.5,-23.0,159.6875,0
1776973674.189,15.6389,-3.0215,-3.4836,0.218,-0.4399,-0.3834,-90.6,49.95,15.45,8.837,-0.7638,0.6991,-2.3409,0.5255,0.7189,-72.0,16.35,12.45,17.91,11.94,-0.77,-0.0458,1.9362,-0.5498,19.0625,32.0,30.0625,18.5,-23.3125,160.0,0
1776973674.194,15.6389,-3.0215,-3.4836,0.218,-0.4399,-0.3834,-90.9,49.2,15.45,8.837,-0.7638,0.6991,-2.3409,0.5255,0.7189,-72.0,16.35,12.45,-5.2,-11.78,-8.2,-0.5934,-0.5225,0.1538,16.0625,33.5,27.5625,18.5,-23.3125,160.0,0
1776973674.199,2.2482,-7.015,4.7501,-0.2875,-1.4346,-0.8684,-90.9,49.2,15.45,6.1866,2.1476,-2.3272,-2.8408,0.9153,1.133,-73.8,15.45,13.5,-5.2,-11.78,-8.2,-0.5934,-0.5225,0.1538,16.0625,33.5,27.5625,18.625,-23.8125,160.125,0
1776973674.204,-0.7302,-7.2999,3.6727,1.4735,-1.2092,-1.4402,-90.75,49.5,13.8,6.1866,2.1476,-2.3272,-2.8408,0.9153,1.133,-73.8,15.45,13.5,0.0,-6.04,-4.54,-0.1462,-0.7876,0.4167,16.0625,33.5,27.5625,18.625,-23.8125,160.125,0
1776973674.214,-2.9401,-3.237,-5.1332,0.3858,-0.1676,-1.2937,-90.45,48.0,12.75,1.4389,2.9066,5.612,-1.6249,0.3067,1.0946,-74.1,14.25,13.05,-3.02,-3.01,-7.52,-0.0393,-0.997,0.625,16.0625,33.5,27.5625,18.875,-24.4375,160.1875,0
1776973674.224,0.7901,1.2139,-10.9822,-1.1698,-0.1199,-1.1303,-90.45,48.0,12.75,5.0135,1.8555,6.0023,-0.0072,0.8071,0.5678,-72.6,13.8,13.8,-7.38,-3.01,-9.57,-0.4811,-0.9479,0.6938,16.0625,33.5,27.5625,19.125,-25.0625,160.5625,0
1776973674.233,3.6871,6.3327,-2.8323,-1.8151,-0.7085,-1.3835,-90.15,46.2,15.45,8.1331,0.8212,4.5753,0.6584,0.9329,0.1583,-72.6,13.8,13.8,-7.47,-3.33,-7.98,-0.3262,-0.8279,0.6349,16.0625,33.5,27.5625,19.375,-25.625,160.8125,0
1776973674.238,3.6871,6.3327,-2.8323,-1.8151,-0.7085,-1.3835,-90.15,46.2,15.45,8.1331,0.8212,4.5753,0.7639,1.0531,0.1447,-73.35,12.6,15.3,-7.47,-3.33,-7.98,-0.3262,-0.8279,0.6349,16.0625,33.5,27.5625,19.375,-25.625,160.8125,0
1776973674.243,6.9097,6.8115,2.7007,-2.169,-0.1956,-1.4842,-90.15,43.2,17.85,12.3852,-1.2115,2.0135,0.7639,1.0531,0.1447,-73.35,12.6,15.3,-5.71,-2.94,-7.94,-0.1909,-0.4756,0.4691,19.0625,32.6875,28.0,19.5625,-25.9375,161.0,0
1776973674.248,6.9097,6.8115,2.7007,-2.169,-0.1956,-1.4842,-90.15,43.2,17.85,12.3852,-1.2115,2.0135,1.0341,1.4663,0.5484,-73.35,12.6,15.3,-5.71,-2.94,-7.94,-0.1909,-0.4756,0.4691,19.0625,32.6875,28.0,19.5625,-25.9375,161.0,0
1776973674.253,10.817,6.4572,-0.9649,-1.2494,0.4301,-1.0677,-87.45,42.75,16.35,13.7738,-1.719,0.7398,1.0341,1.4663,0.5484,-73.35,12.6,15.3,-4.85,-1.58,-9.16,-0.3851,-0.2509,0.3316,19.0625,32.6875,28.0,19.6875,-26.125,161.25,0
1776973674.258,10.817,6.4572,-0.9649,-1.2494,0.4301,-1.0677,-87.45,42.75,16.35,13.7738,-1.719,0.7398,1.5665,1.4698,0.8295,-73.8,14.25,16.05,-4.85,-1.58,-9.16,-0.3851,-0.2509,0.3316,19.0625,32.6875,28.0,19.75,-26.25,161.5,0
1776973674.265,11.4922,11.995,-3.632,-0.5889,0.0064,-0.6283,-85.35,43.05,17.1,12.9311,-2.4612,1.0199,1.6531,1.3102,0.8207,-73.8,14.25,16.05,-4.55,-1.69,-9.12,-0.3174,-0.1614,0.2367,19.0625,32.6875,28.0,19.75,-26.375,161.6875,0
1776973674.274,11.3246,9.5026,-3.0502,-0.3619,-0.1335,-0.3573,-85.35,43.05,17.1,11.3844,-2.4708,2.229,1.6449,1.1215,0.6395,-74.1,13.8,15.6,-4.33,-2.7,-8.56,-0.2411,-0.18,0.1658,19.0625,32.6875,28.0,19.75,-26.375,161.6875,0
1776973674.284,10.8793,7.8697,-2.6839,0.3906,0.0485,-0.2062,-85.35,43.05,17.1,9.3661,-2.7007,2.9066,1.5167,0.838,0.4482,-73.35,13.8,15.3,-4.61,-2.56,-8.71,-0.2378,-0.1364,0.1364,19.0625,32.6875,28.0,19.8125,-26.5,161.8125,0
1776973674.289,10.8793,7.8697,-2.6839,0.3906,0.0485,-0.2062,-85.35,43.05,17.1,9.3661,-2.7007,2.9066,1.5167,0.838,0.4482,-73.05,13.05,15.3,-4.61,-2.56,-8.71,-0.2378,-0.1364,0.1364,19.0625,32.6875,28.0,19.8125,-26.5625,161.9375,0
1776973674.294,9.6127,8.248,-3.2944,1.0253,-0.1148,-0.2062,-86.4,43.05,16.35,8.734,-3.4979,3.4405,1.1639,0.8068,0.3659,-73.05,13.05,15.3,-4.26,-2.93,-8.29,-0.1931,-0.1124,0.1036,20.0625,31.5625,26.875,19.8125,-26.5625,161.9375,0
1776973674.299,9.6127,8.248,-3.2944,1.0253,-0.1148,-0.2062,-85.5,44.7,16.35,8.734,-3.4979,3.4405,1.1639,0.8068,0.3659,-73.2,13.65,15.45,-4.26,-2.93,-8.29,-0.1931,-0.1124,0.1036,20.0625,31.5625,26.875,19.875,-26.625,162.0625,0
1776973674.304,8.4707,6.4811,-4.051,1.2047,-0.097,-0.2798,-85.5,44.7,15.45,9.0692,-4.221,3.6129,0.6723,0.8942,0.3344,-73.2,13.65,15.45,-4.32,-2.85,-8.45,-0.1527,-0.0949,0.0785,20.0625,31.5625,26.875,19.875,-26.625,162.0625,0
1776973674.312,6.2417,4.0869,-2.9712,0.9944,-0.1671,-0.3123,-85.95,43.05,15.6,10.2951,-3.8427,3.2633,0.0165,0.8076,0.3853,-72.3,13.8,16.35,-4.38,-2.56,-8.63,-0.168,-0.0611,0.0774,20.0625,31.5625,26.875,19.875,-26.6875,162.125,0
1776973674.317,6.2417,4.0869,-2.9712,0.9944,-0.1671,-0.3123,-85.95,43.05,15.6,10.2951,-3.8427,3.2633,0.0165,0.8076,0.3853,-72.3,13.8,16.35,-4.38,-2.56,-8.63,-0.168,-0.0611,0.0774,20.0625,31.5625,26.875,19.875,-26.6875,162.25,0
1776973674.325,5.9807,3.2777,-2.6456,0.6328,-0.0754,-0.2819,-84.75,43.65,16.2,10.9487,-2.7964,3.0239,-0.4831,0.6478,0.4301,-72.3,13.8,16.35,-4.15,-2.63,-8.41,-0.1636,-0.0251,0.0654,20.0625,31.5625,26.875,19.875,-26.6875,162.375,0
1776973674.335,6.2632,3.6416,-2.8108,0.3397,0.1604,-0.2297,-84.75,43.65,16.2,10.5872,-1.7334,2.9497,-0.6651,0.5233,0.4279,-72.6,13.8,17.55,-4.29,-2.75,-8.37,-0.1473,-0.0011,0.0567,20.0625,31.5625,26.875,19.875,-26.6875,162.375,0
1776973674.339,6.2632,3.6416,-2.8108,0.1913,0.2238,-0.2984,-82.2,42.45,15.0,9.8234,-1.0894,3.2657,-0.6651,0.5233,0.4279,-71.7,12.45,18.45,-4.29,-2.75,-8.37,-0.1473,-0.0011,0.0567,20.0625,31.5625,26.875,19.875,-26.6875,162.375,0
1776973674.344,6.7325,4.5705,-3.1771,0.1913,0.2238,-0.2984,-82.2,42.45,15.0,9.8234,-1.0894,3.2657,-0.6622,0.4061,0.392,-71.7,12.45,18.45,-4.44,-2.71,-8.34,-0.156,0.0109,0.06,20.5625,31.1875,27.5625,19.875,-26.75,162.4375,0
1776973674.349,8.1714,5.7102,-3.4884,-0.0213,0.34,-0.3603,-81.6,42.75,14.55,9.4763,-0.8835,3.1843,-0.5446,0.377,0.3656,-73.95,12.45,16.95,-4.44,-2.71,-8.34,-0.156,0.0109,0.06,20.5625,31.1875,27.5625,19.875,-26.75,162.4375,0
1776973674.354,8.1714,5.7102,-3.4884,-0.0213,0.34,-0.3603,-81.6,42.75,14.55,9.4763,-0.8835,3.1843,-0.5446,0.377,0.3656,-73.95,12.45,16.95,-4.38,-2.63,-8.45,-0.1756,0.0196,0.0502,20.5625,31.1875,27.5625,19.875,-26.6875,162.5625,0
1776973674.359,8.4013,6.0813,-3.7948,-0.1239,0.4311,-0.3789,-81.45,42.45,15.45,9.5409,-0.3831,2.7246,-0.279,0.344,0.3437,-72.6,15.0,18.6,-4.38,-2.63,-8.45,-0.1865,0.0404,0.0371,20.5625,31.1875,27.5625,19.875,-26.6875,162.6875,0
1776973674.365,8.4013,6.0813,-3.7948,-0.1239,0.4311,-0.3789,-81.45,42.45,15.45,9.5409,-0.3831,2.7246,-0.279,0.344,0.3437,-72.6,15.0,18.6,-4.49,-2.48,-8.49,-0.1865,0.0404,0.0371,20.5625,31.1875,27.5625,19.875,-26.6875,162.6875,0
1776973674.374,8.7987,5.6743,-4.0845,-0.1156,0.3541,-0.2979,-82.05,44.55,15.9,9.5744,-0.1939,2.1332,-0.0741,0.3102,0.3179,-72.6,12.6,19.35,-4.49,-2.36,-8.55,-0.1844,0.0589,0.024,20.5625,31.1875,27.5625,19.875,-26.6875,162.8125,0
1776973674.379,8.77,5.9879,-4.525,0.0264,0.4394,-0.2422,-82.05,44.55,15.9,9.7683,-0.3304,1.5203,0.1903,0.3307,0.2742,-71.55,12.3,17.55,-4.49,-2.36,-8.55,-0.168,0.0753,0.0044,20.5625,31.1875,27.5625,19.875,-26.625,162.875,0
1776973674.385,8.77,5.9879,-4.525,0.0264,0.4394,-0.2422,-82.05,44.55,15.9,9.7683,-0.3304,1.5203,0.1903,0.3307,0.2742,-71.55,12.3,17.55,-4.26,-2.66,-8.42,-0.168,0.0753,0.0044,20.5625,31.1875,27.5625,19.875,-26.625,162.875,0
1776973674.39,7.8985,5.4253,-4.4628,0.081,0.384,-0.1575,-82.05,44.55,15.9,9.8354,-0.7638,1.1205,0.4506,0.3616,0.2454,-71.55,12.3,17.55,-4.26,-2.66,-8.42,-0.1658,0.0807,0.0,20.1875,31.1875,27.875,19.875,-26.5625,163.0,0
1776973674.395,7.8985,5.4253,-4.4628,0.081,0.384,-0.1575,-82.05,44.55,15.9,9.8354,-0.7638,1.1205,0.4506,0.3616,0.2454,-71.55,12.3,17.55,-4.25,-2.34,-8.69,-0.1658,0.0807,0.0,20.1875,31.1875,27.875,19.875,-26.5625,163.0,0
1776973674.4,7.829,5.7533,-4.7621,0.0949,0.3413,-0.0671,-78.75,44.55,14.85,9.8904,-1.3815,1.4126,0.6006,0.4109,0.2305,-71.85,11.1,19.8,-4.25,-2.34,-8.69,-0.1484,0.0807,-0.0044,20.1875,31.1875,27.875,19.875,-26.5625,163.125,0
1776973674.405,7.829,5.7533,-4.7621,0.0949,0.3413,-0.0671,-78.75,44.55,14.85,9.8904,-1.3815,1.4126,0.6006,0.4109,0.2305,-71.85,11.1,19.8,-4.16,-2.34,-8.68,-0.1484,0.0807,-0.0044,20.1875,31.1875,27.875,19.875,-26.5625,163.125,0
1776973674.41,8.0325,6.1459,-4.5729,0.1463,0.3861,-0.0184,-78.75,43.8,15.3,10.0844,-1.7502,1.5107,0.6257,0.4282,0.1974,-71.85,11.1,19.8,-4.16,-2.34,-8.68,-0.12,0.0665,-0.0076,20.1875,31.1875,27.875,19.8125,-26.5,163.1875,0
1776973674.415,8.0325,6.1459,-4.5729,0.1463,0.3861,-0.0184,-78.75,43.8,15.3,10.0844,-1.7502,1.5107,0.6257,0.4282,0.1974,-71.85,11.1,19.8,-4.0,-2.64,-8.5,-0.12,0.0665,-0.0076,20.1875,31.1875,27.875,19.8125,-26.4375,163.25,0
1776973674.425,8.3821,6.0885,-3.814,0.0751,0.3885,0.0269,-76.65,44.25,16.65,9.9982,-1.8651,1.9848,0.6187,0.4474,0.1447,-70.2,12.9,18.0,-4.13,-2.53,-8.56,-0.108,0.0578,0.0022,20.1875,31.1875,27.875,19.8125,-26.4375,163.25,0
1776973674.434,8.6862,5.8634,-4.0534,0.2441,0.3768,0.0472,-77.7,44.55,14.55,9.7947,-2.0734,2.2697,0.5665,0.4407,0.1007,-71.7,11.7,20.25,-4.12,-2.51,-8.54,-0.0884,0.0305,0.0175,20.1875,31.1875,27.875,19.8125,-26.4375,163.3125,0
1776973674.439,8.3534,5.691,-4.0342,0.4599,0.3616,0.0533,-77.7,44.55,14.55,9.9766,-2.1763,2.5402,0.4306,0.4255,0.073,-72.45,12.0,18.75,-4.12,-2.51,-8.54,-0.0884,0.0305,0.0175,20.1875,31.1875,27.875,19.8125,-26.4375,163.3125,0
1776973674.444,8.3534,5.691,-4.0342,0.4599,0.3616,0.0533,-77.7,44.55,14.55,9.9766,-2.1763,2.5402,0.4306,0.4255,0.073,-72.45,12.0,18.75,-4.1,-2.7,-8.48,-0.0665,0.0229,0.0207,21.375,31.1875,28.6875,19.8125,-26.4375,163.375,0
1776973674.449,8.4036,5.0685,-3.9025,0.3208,0.3571,0.0501,-77.55,42.9,13.95,9.8234,-2.0782,2.3463,0.296,0.3813,0.0546,-70.05,13.05,19.05,-4.1,-2.7,-8.48,-0.0665,0.0229,0.0207,21.375,31.1875,28.6875,19.8125,-26.4375,163.375,0
1776973674.454,8.4036,5.0685,-3.9025,0.3208,0.3571,0.0501,-77.55,42.9,13.95,10.7404,-1.9656,3.1556,0.296,0.3813,0.0546,-70.05,13.05,19.05,-4.22,-2.68,-8.47,-0.0513,0.0087,0.0262,21.375,31.1875,28.6875,19.8125,-26.4375,163.375,0
1776973674.459,7.9392,5.1092,-3.9528,0.2366,0.4133,0.0336,-77.1,43.2,15.0,10.7404,-1.9656,3.1556,0.2771,0.2734,0.0413,-73.05,12.6,20.55,-4.22,-2.68,-8.47,-0.0382,0.0087,0.0295,21.375,31.1875,28.6875,19.875,-26.4375,163.375,0
1776973674.465,7.5537,5.2577,-3.9983,0.1029,0.4554,0.024,-77.1,43.2,15.0,9.7324,-2.0973,2.3535,0.0392,0.2928,0.0381,-73.05,12.6,20.55,-4.32,-2.61,-8.41,-0.0382,0.0087,0.0295,21.375,31.1875,28.6875,19.875,-26.4375,163.375,0
1776973674.474,7.5537,5.2577,-3.9983,0.1029,0.4554,0.024,-76.05,43.65,14.7,9.6367,-1.47,2.217,-0.0629,0.2622,0.0336,-70.5,14.4,18.75,-4.34,-2.51,-8.46,-0.0415,0.012,0.0273,21.375,31.1875,28.6875,19.875,-26.4375,163.4375,0
1776973674.481,7.6519,5.2601,-3.9289,0.0163,0.502,0.0096,-78.15,43.2,15.75,9.6367,-1.47,2.217,-0.0629,0.2622,0.0336,-70.5,14.4,18.75,-4.24,-2.49,-8.61,-0.0447,0.0229,0.0218,21.375,31.1875,28.6875,19.875,-26.375,163.4375,0
1776973674.486,7.75,5.1116,-3.9959,-0.11,0.5276,-0.0187,-78.15,43.2,15.75,9.8186,-1.3072,2.4301,-0.0986,0.1617,0.0139,-70.5,14.4,18.75,-4.24,-2.49,-8.61,-0.0447,0.0229,0.0218,21.375,31.1875,28.6875,19.875,-26.375,163.4375,0
1776973674.491,7.75,5.1116,-3.9959,-0.11,0.5276,-0.0187,-78.15,43.2,15.75,9.8186,-1.3072,2.4301,-0.0986,0.1617,0.0139,-70.8,12.6,19.8,-4.24,-2.49,-8.61,-0.0316,0.0142,0.012,21.0,31.1875,28.6875,19.875,-26.375,163.5,0
1776973674.496,7.8817,5.3127,-3.869,-0.2358,0.574,-0.0594,-78.15,43.2,15.75,9.5026,-1.0223,2.6001,-0.0845,0.198,-0.0093,-70.8,12.6,19.8,-4.29,-2.65,-8.39,-0.0316,0.0142,0.012,21.0,31.1875,28.6875,19.875,-26.375,163.5,0
1776973674.5,7.8817,5.3127,-3.869,-0.2358,0.574,-0.0594,-77.25,43.8,15.6,9.5026,-1.0223,2.6001,-0.0845,0.198,-0.0093,-70.35,12.6,19.05,-4.29,-2.65,-8.39,-0.0316,0.0142,0.012,21.0,31.1875,28.6875,19.875,-26.375,163.5,0
1776973674.505,7.9607,5.6503,-3.5554,-0.3371,0.5894,-0.0813,-77.25,43.8,15.6,9.0525,-0.9481,2.5546,-0.0597,0.1652,-0.004,-70.35,12.6,19.05,-4.28,-2.56,-8.53,-0.0295,0.0044,0.012,21.0,31.1875,28.6875,19.875,-26.375,163.5,0
1776973674.51,7.9607,5.6503,-3.5554,-0.3371,0.5894,-0.0813,-77.25,41.55,15.6,9.0525,-0.9481,2.5546,-0.0597,0.1652,-0.004,-71.55,12.6,20.1,-4.28,-2.56,-8.53,-0.0404,0.0185,0.0055,21.0,31.1875,28.6875,19.875,-26.375,163.5,0
1776973674.516,7.8961,5.6743,-3.2417,-0.384,0.6257,-0.1079,-76.8,43.2,15.45,10.1993,-0.5986,2.6121,0.1148,0.0983,-0.0035,-71.55,12.6,20.1,-4.18,-2.52,-8.63,-0.0404,0.0185,0.0055,21.0,31.1875,28.6875,19.875,-26.375,163.5625,0
1776973674.525,8.1331,5.3463,-2.8419,-0.336,0.5995,-0.1071,-76.8,43.2,15.45,9.7324,-0.5052,2.4086,0.1354,0.1103,-0.0053,-70.5,13.65,19.95,-4.19,-2.57,-8.57,-0.0218,0.0055,0.0011,21.0,31.1875,28.6875,19.875,-26.375,163.5625,0
1776973674.532,8.1331,5.3463,-2.8419,-0.336,0.5995,-0.1071,-78.0,44.55,18.15,9.5672,-1.1492,2.3655,0.1354,0.1103,-0.0053,-70.8,11.85,20.55,-4.19,-2.62,-8.45,-0.0098,0.0011,-0.0022,21.0,31.1875,28.6875,19.875,-26.375,163.5625,0
1776973674.536,8.1259,5.3127,-3.4141,-0.3437,0.5249,-0.0741,-78.15,45.15,17.85,9.5672,-1.1492,2.3655,0.1593,0.1295,-0.0168,-70.8,11.85,20.55,-4.19,-2.62,-8.45,-0.0098,0.0011,-0.0022,21.0,31.1875,28.6875,19.875,-26.375,163.5625,0
1776973674.541,8.1259,5.3127,-3.4141,-0.3437,0.5249,-0.0741,-78.15,45.15,17.85,9.3278,-1.5802,2.7916,0.1593,0.1295,-0.0168,-70.95,12.9,19.2,-4.09,-2.9,-8.23,-0.0033,0.0,-0.0022,20.5625,30.875,29.0625,19.875,-26.375,163.5,0
1776973674.546,8.2049,5.2146,-3.7876,-0.3022,0.5907,-0.0632,-78.15,45.15,17.85,9.3278,-1.5802,2.7916,0.2398,0.1183,-0.0717,-70.95,12.9,19.2,-4.09,-2.9,-8.23,-0.0033,0.0,-0.0022,20.5625,30.875,29.0625,19.875,-26.375,163.5,0
1776973674.555,8.2648,5.43,-3.8044,-0.3139,0.599,-0.0498,-78.15,45.15,17.85,9.4355,-2.162,2.7007,0.2787,0.1119,-0.0981,-70.95,12.9,19.2,-4.23,-2.71,-8.4,-0.0229,-0.0033,0.0055,20.5625,30.875,29.0625,19.875,-26.375,163.5,0
1776973674.563,7.9847,5.7509,-4.1755,-0.2499,0.639,-0.037,-78.45,43.5,17.1,9.517,-1.8196,2.2098,0.2657,0.0717,-0.0978,-72.45,13.65,19.95,-4.43,-2.28,-8.43,-0.0393,-0.0011,0.0098,20.5625,30.875,29.0625,19.8125,-26.375,163.5625,0
1776973674.568,7.9847,5.7509,-4.1755,-0.2499,0.639,-0.037,-78.6,44.4,18.6,9.517,-1.8196,2.2098,0.2657,0.0717,-0.0978,-72.45,13.65,19.95,-4.43,-2.28,-8.43,-0.0393,-0.0011,0.0098,20.5625,30.875,29.0625,19.8125,-26.3125,163.5625,0
1776973674.575,7.4579,6.2177,-4.1946,-0.2902,0.6065,-0.0317,-78.9,44.4,17.85,9.5361,-0.9433,1.403,0.1817,0.0754,-0.0786,-72.45,13.65,19.95,-4.44,-2.3,-8.39,-0.0404,0.0131,-0.0011,20.5625,30.875,29.0625,19.8125,-26.3125,163.5625,0
1776973674.585,6.6439,6.3925,-3.8762,-0.2992,0.5694,-0.0349,-79.65,45.45,18.3,9.8497,-0.1365,1.3216,0.1346,0.0775,-0.0898,-72.0,13.65,19.2,-4.21,-2.5,-8.43,-0.0611,0.0327,-0.0207,20.5625,30.875,29.0625,19.8125,-26.3125,163.5625,0
1776973674.59,6.6439,6.3925,-3.8762,-0.2992,0.5694,-0.0349,-79.65,45.45,18.3,9.7468,0.0982,2.0327,0.1439,0.0773,-0.1212,-72.3,15.0,19.8,-4.21,-2.5,-8.43,-0.0611,0.0327,-0.0207,20.5625,30.875,29.0625,19.8125,-26.3125,163.625,0
1776973674.595,6.3159,6.3398,-3.6919,-0.328,0.5726,-0.0163,-79.65,45.45,18.3,9.7468,0.0982,2.0327,0.1439,0.0773,-0.1212,-72.3,15.0,19.8,-4.13,-2.7,-8.6,-0.0949,0.0371,-0.0251,21.375,29.6875,28.25,19.8125,-26.3125,163.625,0
1776973674.6,6.3159,6.3398,-3.6919,-0.328,0.5726,-0.0163,-79.65,45.45,18.3,9.5313,-0.1413,2.5786,0.247,0.044,-0.1324,-71.1,13.8,20.1,-4.13,-2.7,-8.6,-0.0949,0.0371,-0.0251,21.375,29.6875,28.25,19.75,-26.25,163.6875,0
1776973674.605,6.1387,6.1531,-3.3974,-0.2249,0.6259,0.0211,-80.55,45.75,18.75,9.5313,-0.1413,2.5786,0.247,0.044,-0.1324,-71.1,13.8,20.1,-4.09,-2.76,-8.53,-0.0611,0.0709,-0.0251,21.375,29.6875,28.25,19.75,-26.25,163.6875,0
1776973674.61,6.1387,6.1531,-3.3974,-0.2249,0.6259,0.0211,-80.55,45.75,18.75,9.481,-0.5578,2.624,0.3493,0.0482,-0.1082,-71.55,14.25,19.35,-4.09,-2.76,-8.53,-0.0305,0.0338,-0.0175,21.375,29.6875,28.25,19.75,-26.1875,163.6875,0
1776973674.616,6.8833,5.7461,-3.2513,-0.2635,0.619,0.0879,-80.55,44.25,21.3,9.481,-0.5578,2.624,0.3493,0.0482,-0.1082,-71.55,14.25,19.35,-4.14,-2.62,-8.53,-0.0305,0.0338,-0.0175,21.375,29.6875,28.25,19.75,-26.1875,163.6875,0
1776973674.625,6.9456,5.7676,-3.5961,-0.3118,0.6488,0.1247,-82.35,43.5,19.2,9.4379,-0.9577,2.545,0.377,0.0578,-0.0831,-70.2,15.15,19.95,-4.25,-2.5,-8.48,-0.0295,0.0218,-0.0109,21.375,29.6875,28.25,19.75,-26.1875,163.6875,0
1776973674.632,7.6064,5.8945,-3.6895,-0.3078,0.6622,0.1535,-82.35,43.5,19.2,9.6127,-1.2929,2.3655,0.3155,0.0394,-0.0642,-71.1,13.05,20.1,-4.28,-2.47,-8.44,-0.036,0.0349,-0.0109,21.375,29.6875,28.25,19.75,-26.1875,163.6875,0
1776973674.637,7.6064,5.8945,-3.6895,-0.3078,0.6622,0.1535,-81.6,45.0,23.1,9.7085,-1.4676,2.1572,0.3155,0.0394,-0.0642,-71.1,13.05,20.1,-4.28,-2.47,-8.44,-0.036,0.0349,-0.0109,21.375,29.6875,28.25,19.75,-26.1875,163.6875,0
1776973674.642,7.4939,6.11,-3.5338,-0.2667,0.6592,0.1863,-81.6,45.0,23.1,9.7085,-1.4676,2.1572,0.2598,0.02,-0.0693,-71.1,13.05,20.1,-4.22,-2.48,-8.53,-0.0404,0.0415,-0.0153,21.375,30.5,27.875,19.75,-26.125,163.75,0
1776973674.647,7.4939,6.11,-3.5338,-0.2667,0.6592,0.1863,-82.2,43.2,21.9,9.7205,-1.4413,2.15,0.2598,0.02,-0.0693,-71.1,13.05,20.1,-4.22,-2.48,-8.53,-0.0404,0.0415,-0.0153,21.375,30.5,27.875,19.75,-26.125,163.75,0
1776973674.652,7.2496,5.9544,-3.5721,-0.2388,0.6158,0.2041,-82.2,43.2,21.9,9.7205,-1.4413,2.15,0.2153,0.0051,-0.0949,-71.25,14.85,20.25,-4.2,-2.45,-8.55,-0.0469,0.0469,-0.0175,21.375,30.5,27.875,19.75,-26.125,163.75,0
1776973674.657,7.2496,5.9544,-3.5721,-0.2388,0.6158,0.2041,-82.2,43.2,21.9,9.6965,-1.2546,2.3296,0.2153,0.0051,-0.0949,-71.25,14.85,20.25,-4.2,-2.45,-8.55,-0.0469,0.0469,-0.0175,21.375,30.5,27.875,19.75,-26.125,163.75,0
1776973674.662,6.9647,5.9687,-3.3016,-0.2651,0.6619,0.2659,-82.2,43.2,21.9,9.6965,-1.2546,2.3296,0.1993,-0.0053,-0.1071,-70.95,14.85,21.75,-4.19,-2.4,-8.64,-0.0404,0.0491,-0.024,21.375,30.5,27.875,19.6875,-26.0625,163.75,0
1776973674.666,6.9647,5.9687,-3.3016,-0.2651,0.6619,0.2659,-82.2,44.4,21.9,9.6175,-0.8811,2.375,0.2145,-0.0072,-0.1098,-70.95,14.85,21.75,-4.19,-2.4,-8.64,-0.0404,0.0491,-0.024,21.375,30.5,27.875,19.6875,-26.0625,163.8125,0
1776973674.675,6.7852,6.0908,-3.0047,-0.3347,0.7051,0.332,-83.1,42.75,22.05,9.6223,-0.6345,2.2027,0.2145,-0.0072,-0.1098,-71.1,14.25,20.55,-4.21,-2.35,-8.64,-0.0273,0.0447,-0.0251,21.375,30.5,27.875,19.6875,-26.0625,163.8125,0
1776973674.682,7.3071,5.8849,-3.2058,-0.3349,0.7807,0.3976,-83.1,42.75,22.05,9.6223,-0.6345,2.2027,0.235,-0.0027,-0.1167,-70.8,13.8,19.8,-4.2,-2.51,-8.55,-0.0076,0.0415,-0.0273,21.375,30.5,27.875,19.6875,-26.0,163.8125,0
1776973674.687,7.3071,5.8849,-3.2058,-0.3349,0.7807,0.3976,-83.7,43.65,22.5,9.5361,-0.5722,2.1596,0.2507,-0.0024,-0.1308,-70.8,13.8,19.8,-4.2,-2.51,-8.55,-0.0076,0.0415,-0.0273,21.375,30.5,27.875,19.6875,-26.0,163.8125,0
1776973674.691,7.5058,5.7868,-3.2992,-0.2366,0.7839,0.4482,-83.7,43.65,22.5,9.5361,-0.5722,2.1596,0.2507,-0.0024,-0.1308,-70.2,14.85,18.75,-4.19,-2.59,-8.55,0.0,0.0545,-0.0284,21.0,30.5,27.875,19.6875,-26.0,163.8125,0
1776973674.696,7.5058,5.7868,-3.2992,-0.2366,0.7839,0.4482,-83.85,44.25,22.35,9.4571,-0.8045,2.0207,0.2734,-0.012,-0.1284,-70.2,14.85,18.75,-4.19,-2.59,-8.55,0.0,0.0545,-0.0284,21.0,30.5,27.875,19.6875,-26.0,163.8125,0
1776973674.701,7.4029,5.545,-3.4261,-0.2577,0.8535,0.4887,-83.85,44.25,22.35,9.4571,-0.8045,2.0207,0.2734,-0.012,-0.1284,-70.2,15.6,19.2,-4.19,-2.48,-8.59,-0.0011,0.0567,-0.0349,21.0,30.5,27.875,19.625,-25.9375,163.75,0
1776973674.706,7.4029,5.545,-3.4261,-0.2577,0.8535,0.4887,-83.85,44.25,22.35,9.5529,-1.3551,1.9489,0.2566,-0.0168,-0.1244,-70.2,15.6,19.2,-4.19,-2.48,-8.59,-0.0011,0.0567,-0.0349,21.0,30.5,27.875,19.625,-25.9375,163.75,0
1776973674.711,7.7093,5.3774,-3.5889,-0.267,0.8492,0.5212,-83.85,44.25,22.35,9.5529,-1.3551,1.9489,0.2566,-0.0168,-0.1244,-70.2,15.6,19.2,-4.19,-2.48,-8.59,0.0011,0.0709,-0.0382,21.0,30.5,27.875,19.625,-25.875,163.75,0
1776973674.716,7.7093,5.3774,-3.5889,-0.267,0.8492,0.5212,-84.9,43.8,23.4,9.5098,-1.5323,1.798,0.234,-0.0147,-0.1284,-70.2,15.6,19.2,-4.18,-2.45,-8.62,0.0011,0.0709,-0.0382,21.0,30.5,27.875,19.625,-25.875,163.75,0
1776973674.725,7.5681,5.2026,-3.7254,-0.2617,0.821,0.5375,-86.4,45.0,23.1,9.5002,-1.3623,1.6664,0.1847,-0.0109,-0.1255,-71.1,14.55,19.05,-4.26,-2.28,-8.66,0.0087,0.072,-0.0425,21.0,30.5,27.875,19.625,-25.875,163.75,0
1776973674.73,7.5274,4.9895,-3.5626,-0.2217,0.8263,0.5486,-86.4,45.0,23.1,9.5002,-1.3623,1.6664,0.1847,-0.0109,-0.1255,-71.1,14.55,19.05,-4.26,-2.28,-8.66,0.0229,0.0709,-0.048,21.0,30.5,27.875,19.625,-25.8125,163.75,0
1776973674.736,7.4101,5.126,-3.6919,-0.1713,0.8524,0.5622,-85.8,42.9,24.0,9.4547,-1.0726,1.4222,0.0666,0.0035,-0.1367,-71.1,14.55,19.05,-4.21,-2.28,-8.64,0.0229,0.0709,-0.048,21.0,30.5,27.875,19.625,-25.8125,163.75,0
1776973674.741,7.4101,5.126,-3.6919,-0.1713,0.8524,0.5622,-85.8,42.9,24.0,9.4547,-1.0726,1.4222,0.0666,0.0035,-0.1367,-70.95,15.15,20.7,-4.21,-2.28,-8.64,0.0229,0.0709,-0.048,21.0,30.5,26.75,19.5625,-25.75,163.75,0
1776973674.746,7.4484,5.2265,-3.8523,-0.1607,0.8729,0.5766,-87.15,44.55,24.45,9.4858,-0.5938,1.0271,-0.0418,0.033,-0.1684,-70.95,15.15,20.7,-4.14,-2.36,-8.54,0.0404,0.0774,-0.0633,21.0,30.5,26.75,19.5625,-25.75,163.75,0
1776973674.751,7.4484,5.2265,-3.8523,-0.1607,0.8729,0.5766,-87.45,43.5,25.2,9.4858,-0.5938,1.0271,-0.0418,0.033,-0.1684,-69.15,15.45,20.1,-4.14,-2.36,-8.54,0.0404,0.0774,-0.0633,21.0,30.5,26.75,19.5625,-25.6875,163.6875,0
1776973674.756,7.1371,5.2744,-4.0294,-0.1284,0.8487,0.5945,-87.45,43.5,25.2,9.5744,-0.7638,0.747,-0.0783,0.0557,-0.2017,-69.15,15.45,20.1,-4.0,-2.58,-8.52,0.0469,0.0796,-0.0742,21.0,30.5,26.75,19.5625,-25.6875,163.6875,0
1776973674.761,7.1371,5.2744,-4.0294,-0.1284,0.8487,0.5945,-87.45,43.5,25.2,9.5744,-0.7638,0.747,-0.0783,0.0557,-0.2017,-70.35,15.45,20.55,-4.0,-2.58,-8.52,0.0491,0.0654,-0.0774,21.0,30.5,26.75,19.5,-25.625,163.625,0
1776973674.766,6.9408,5.3582,-3.6344,-0.1695,0.8617,0.6262,-87.45,43.5,25.2,9.6247,-1.0678,1.1875,-0.1071,0.0853,-0.2089,-70.35,15.45,20.55,-3.97,-2.51,-8.61,0.0491,0.0654,-0.0774,21.0,30.5,26.75,19.5,-25.5625,163.625,0
1776973674.775,7.0964,5.2241,-3.5674,-0.2249,0.8287,0.671,-88.05,42.9,25.8,9.833,-0.9385,1.075,-0.2049,0.0887,-0.1969,-71.85,14.55,20.55,-3.82,-2.4,-8.54,0.0556,0.0513,-0.0731,21.0,30.5,26.75,19.5,-25.5625,163.625,0
1776973674.785,6.8354,5.1811,-3.4477,-0.1948,0.8271,0.7019,-87.45,40.8,25.95,9.6462,-0.6249,1.4269,-0.2771,0.0919,-0.1876,-71.85,14.55,20.55,-3.74,-2.5,-8.62,0.0698,0.0295,-0.0687,21.0,30.5,26.75,19.4375,-25.5625,163.5625,0
1776973674.79,6.8354,5.1811,-3.4477,-0.1948,0.8271,0.7019,-87.45,40.8,25.95,9.6462,-0.6249,1.4269,-0.2771,0.0919,-0.1876,-71.85,14.55,20.55,-3.74,-2.5,-8.62,0.0698,0.0295,-0.0687,21.0,30.5,26.75,19.4375,-25.5625,163.5,0
1776973674.795,6.7588,5.1475,-3.2992,-0.178,0.8593,0.725,-89.1,40.95,25.05,9.2847,-0.3065,1.5323,-0.2976,0.0853,-0.19,-69.0,15.9,21.0,-4.09,-2.45,-8.5,0.0796,-0.0087,-0.06,19.1875,31.1875,27.5,19.4375,-25.5625,163.5,0
1776973674.8,6.7588,5.1475,-3.2992,-0.178,0.8593,0.725,-89.1,40.95,25.05,9.2847,0.2658,1.3431,-0.2976,0.0853,-0.19,-69.0,15.9,21.0,-4.09,-2.45,-8.5,0.0796,-0.0087,-0.06,19.1875,31.1875,27.5,19.4375,-25.5625,163.5,0
1776973674.805,6.924,5.193,-2.9688,-0.2585,0.8132,0.7245,-88.2,42.3,27.3,9.2847,0.2658,1.3431,-0.3285,0.0994,-0.178,-69.0,15.9,21.0,-3.94,-2.42,-8.56,0.0873,-0.024,-0.0556,19.1875,31.1875,27.5,19.4375,-25.5625,163.4375,0
1776973674.81,6.924,5.193,-2.9688,-0.2585,0.8132,0.7245,-88.2,42.3,27.3,9.3039,0.7135,1.2809,-0.3285,0.0994,-0.178,-69.0,15.9,21.0,-3.94,-2.42,-8.56,0.0851,-0.0229,-0.0622,19.1875,31.1875,27.5,19.375,-25.5625,163.375,0
1776973674.816,6.7924,4.9249,-2.5929,-0.3235,0.7941,0.7035,-88.2,42.3,27.3,9.3039,0.7135,1.2809,-0.3789,0.1284,-0.1641,-70.2,15.9,19.2,-3.98,-2.75,-8.55,0.0851,-0.0229,-0.0622,19.1875,31.1875,27.5,19.375,-25.5625,163.375,0
1776973674.825,6.8953,4.8866,-2.7342,-0.3877,0.7677,0.6749,-89.25,42.3,26.25,9.1842,0.9936,1.1325,-0.3246,0.1553,-0.1532,-69.0,15.15,19.5,-4.05,-2.78,-8.46,0.0982,-0.0338,-0.0589,19.1875,31.1875,27.5,19.375,-25.5625,163.25,0
1776973674.83,6.8953,4.8866,-2.7342,-0.3877,0.7677,0.6749,-89.25,42.3,26.25,9.1602,0.7518,1.3455,-0.2803,0.1911,-0.1319,-69.0,15.15,19.5,-4.05,-2.78,-8.46,0.1058,-0.0404,-0.0545,19.1875,31.1875,27.5,19.3125,-25.5625,163.1875,0
1776973674.836,6.7947,5.1068,-2.7773,-0.4437,0.7424,0.6459,-88.8,40.65,29.25,9.1602,0.7518,1.3455,-0.2803,0.1911,-0.1319,-67.95,15.9,19.95,-4.08,-2.75,-8.49,0.1058,-0.0404,-0.0545,19.1875,31.1875,27.5,19.3125,-25.5625,163.1875,0
1776973674.841,6.7947,5.1068,-2.7773,-0.4437,0.7424,0.6459,-91.35,38.7,30.0,9.2536,0.656,1.4246,-0.2646,0.2068,-0.117,-70.35,16.95,20.55,-4.08,-2.75,-8.49,0.1058,-0.0404,-0.0545,19.1875,32.6875,29.0625,19.3125,-25.5625,163.125,0
1776973674.846,6.8283,5.1619,-2.6145,-0.4615,0.7727,0.6257,-91.35,38.7,30.0,9.2536,0.656,1.4246,-0.2646,0.2068,-0.117,-70.35,16.95,20.55,-3.97,-2.88,-8.41,0.084,-0.0284,-0.048,19.1875,32.6875,29.0625,19.3125,-25.5625,163.125,0
1776973674.851,6.8283,5.1619,-2.6145,-0.4615,0.7727,0.6257,-88.95,39.3,28.8,9.4068,0.3328,1.6352,-0.2867,0.2326,-0.1002,-68.7,16.35,21.45,-3.97,-2.88,-8.41,0.084,-0.0284,-0.048,19.1875,32.6875,29.0625,19.3125,-25.5625,163.0625,0
1776973674.856,7.3215,5.2984,-2.3367,-0.4279,0.8082,0.6278,-88.95,39.3,28.8,9.4068,0.3328,1.6352,-0.2867,0.2326,-0.1002,-68.7,16.35,21.45,-3.89,-2.86,-8.38,0.0567,-0.0458,-0.0349,19.1875,32.6875,29.0625,19.3125,-25.5625,163.0625,0
1776973674.866,7.3287,5.2265,-1.8675,-0.469,0.7714,0.6787,-90.9,40.2,28.2,9.4571,0.1101,1.9968,-0.2305,0.2697,-0.0789,-70.35,15.0,19.35,-4.11,-2.7,-8.51,0.0436,-0.0218,-0.0229,19.1875,32.6875,29.0625,19.3125,-25.5625,163.0625,0
1776973674.872,7.7859,5.4396,-2.1452,-0.5657,0.7893,0.6915,-90.9,40.2,28.2,9.4523,0.1413,1.9489,-0.239,0.2643,-0.0493,-70.35,15.0,19.35,-4.11,-2.62,-8.52,0.0316,-0.0513,-0.0087,19.1875,32.6875,29.0625,19.3125,-25.625,163.0625,0
1776973674.877,7.7859,5.4396,-2.1452,-0.5657,0.7893,0.6915,-90.9,40.2,28.2,9.4523,0.1413,1.9489,-0.239,0.2643,-0.0493,-70.35,15.0,19.35,-4.11,-2.62,-8.52,0.0316,-0.0513,-0.0087,19.1875,32.6875,29.0625,19.3125,-25.625,163.0,0
1776973674.886,8.1235,5.2792,-1.8148,-0.5868,0.6875,0.6909,-89.85,38.4,31.5,9.5074,0.3232,1.8004,-0.3142,0.2486,-0.0362,-69.45,15.15,20.25,-4.08,-2.84,-8.4,0.0175,-0.06,-0.0098,19.1875,32.6875,29.0625,19.3125,-25.625,163.0,0
1776973674.891,8.1235,5.2792,-1.8148,-0.5484,0.6768,0.7226,-90.15,40.65,31.05,9.3541,0.1125,1.7549,-0.2971,0.2459,-0.0392,-69.45,15.15,20.25,-4.08,-2.84,-8.4,0.0175,-0.06,-0.0098,19.1875,32.6875,28.25,19.25,-25.625,163.0,0
1776973674.896,8.2289,5.2888,-1.4461,-0.5484,0.6768,0.7226,-90.15,40.65,31.05,9.3541,0.1125,1.7549,-0.2971,0.2459,-0.0392,-69.45,15.15,20.25,-4.08,-2.7,-8.47,0.0098,-0.0436,-0.0033,19.1875,32.6875,28.25,19.25,-25.625,163.0,0
1776973674.901,8.272,5.0613,-1.6472,-0.5281,0.7072,0.7448,-90.9,38.7,30.75,9.4044,-0.2873,2.6193,-0.2164,0.2699,-0.0352,-69.45,15.15,20.25,-4.08,-2.7,-8.47,0.0098,-0.0436,-0.0033,19.1875,32.6875,28.25,19.25,-25.625,163.0,0
1776973674.906,8.272,5.0613,-1.6472,-0.5281,0.7072,0.7448,-90.9,38.7,30.75,9.5241,-0.3759,2.8467,-0.2164,0.2699,-0.0352,-68.4,16.95,21.15,-4.12,-2.7,-8.46,-0.0065,-0.0502,0.0055,19.1875,32.6875,28.25,19.25,-25.625,163.0,0
1776973674.911,8.679,5.2337,-1.1061,-0.5478,0.7541,0.737,-91.35,39.15,29.7,9.5241,-0.3759,2.8467,-0.2244,0.2473,-0.0426,-68.4,16.95,21.15,-4.12,-2.7,-8.46,-0.012,-0.0513,0.0098,19.1875,32.6875,28.25,19.25,-25.6875,163.0,0
1776973674.916,8.679,5.2337,-1.1061,-0.5478,0.7541,0.737,-91.35,39.15,29.7,9.7995,-0.4741,2.7557,-0.2276,0.2294,-0.0352,-69.15,15.75,20.85,-4.09,-2.71,-8.53,-0.012,-0.0513,0.0098,19.1875,32.6875,28.25,19.25,-25.6875,163.0,0
1776973674.926,8.6503,5.2313,-0.7661,-0.6376,0.7221,0.7829,-91.35,39.15,29.7,9.7588,-0.5243,2.7797,-0.2276,0.2294,-0.0352,-69.6,16.2,21.15,-4.19,-2.58,-8.61,-0.0153,-0.0458,0.0109,19.1875,32.6875,28.25,19.25,-25.6875,163.0,0
1776973674.932,8.6862,5.1858,-0.5291,-0.5481,0.7584,0.7922,-90.45,40.05,30.15,9.7588,-0.5243,2.7797,-0.2102,0.2302,-0.0149,-69.15,17.7,21.15,-4.22,-2.56,-8.56,-0.0055,-0.0502,0.0142,19.1875,32.6875,28.25,19.25,-25.75,163.0,0
1776973674.937,8.6862,5.1858,-0.5291,-0.5481,0.7584,0.7922,-90.45,40.05,30.15,9.742,-0.4764,2.9688,-0.2369,0.222,0.008,-69.15,17.7,21.15,-4.22,-2.56,-8.56,-0.0055,-0.0502,0.0142,19.1875,32.6875,28.25,19.25,-25.75,163.0,0
1776973674.942,8.6407,5.3558,-0.6656,-0.4381,0.7983,0.818,-88.8,40.2,31.5,9.742,-0.4764,2.9688,-0.2369,0.222,0.008,-69.15,17.7,21.15,-4.22,-2.56,-8.56,-0.0055,-0.0502,0.0142,19.875,31.5625,27.875,19.25,-25.75,163.0,0
1776973674.947,8.6407,5.3558,-0.6656,-0.4381,0.7983,0.818,-88.8,40.2,31.5,9.6486,-0.3615,2.9497,-0.2761,0.1809,0.0176,-69.15,17.7,21.15,-4.19,-2.61,-8.53,0.0109,-0.0447,0.0098,19.875,31.5625,27.875,19.25,-25.75,163.0,0
1776973674.951,8.7556,5.1667,0.0215,-0.4916,0.8567,0.8404,-88.2,41.25,30.9,9.6486,-0.3615,2.9497,-0.2761,0.1809,0.0176,-69.15,17.7,21.15,-4.19,-2.61,-8.53,0.0109,-0.0447,0.0098,19.875,31.5625,27.875,19.25,-25.75,162.9375,0
1776973674.956,8.7556,5.1667,0.0215,-0.4916,0.8567,0.8404,-88.2,41.25,30.9,9.5074,-0.3232,3.2417,-0.2579,0.1551,0.0168,-68.25,17.1,21.75,-4.17,-2.65,-8.48,0.0207,-0.0338,0.0055,19.875,31.5625,27.875,19.25,-25.75,162.9375,0
1776973674.961,8.9759,4.5657,0.2729,-0.4048,0.8916,0.8657,-88.35,40.2,32.85,9.5074,-0.3232,3.2417,-0.2579,0.1551,0.0168,-68.25,17.1,21.75,-4.17,-2.65,-8.48,0.0229,-0.036,0.0011,19.875,31.5625,27.875,19.25,-25.75,162.9375,0
1776973674.967,8.9759,4.5657,0.2729,-0.4048,0.8916,0.8657,-88.35,40.2,32.85,9.5241,-0.4525,3.2609,-0.1884,0.1223,0.0024,-68.25,17.1,21.75,-4.15,-2.82,-8.43,0.0229,-0.036,0.0011,19.875,31.5625,27.875,19.25,-25.8125,162.9375,0
1776973674.976,9.0668,4.6017,-0.158,-0.2904,0.9707,0.866,-88.35,40.2,32.85,9.5553,-0.5363,2.964,-0.1066,0.0967,-0.0112,-69.0,16.8,21.75,-4.18,-2.74,-8.42,0.0196,-0.0371,0.0055,19.875,31.5625,27.875,19.25,-25.8125,162.9375,0
1776973674.981,9.0573,4.3191,-0.1796,-0.2681,0.9976,0.8777,-88.35,40.2,32.85,9.5553,-0.5363,2.964,-0.1066,0.0967,-0.0112,-69.0,16.8,21.75,-4.18,-2.74,-8.42,0.0131,-0.0338,0.0055,19.875,31.5625,27.875,19.25,-25.8125,162.9375,0
1776973674.987,9.0573,4.3191,-0.1796,-0.2681,0.9976,0.8777,-88.35,40.2,32.85,9.8067,-0.7542,2.794,-0.2105,0.0866,-0.0027,-70.8,15.45,22.35,-4.16,-2.62,-8.54,0.0131,-0.0338,0.0055,19.875,31.5625,27.875,19.25,-25.8125,162.9375,0
1776973674.992,8.8753,4.1539,0.0407,-0.2646,0.9617,0.9006,-87.9,41.25,33.0,9.8067,-0.7542,2.794,-0.2105,0.0866,-0.0027,-70.8,15.45,22.35,-4.16,-2.62,-8.54,0.0175,-0.0305,0.0065,19.875,31.875,27.875,19.25,-25.8125,162.875,0
1776973674.997,8.8753,4.1539,0.0407,-0.2646,0.9617,0.9006,-87.9,41.25,33.0,9.7755,-0.7398,2.5618,-0.2289,0.0738,0.0019,-69.15,16.2,22.35,-4.07,-2.67,-8.47,0.0175,-0.0305,0.0065,19.875,31.875,27.875,19.25,-25.8125,162.875,0
1776973675.001,8.8849,4.1348,-0.1341,-0.2769,0.9582,0.9052,-88.2,42.0,31.95,9.7755,-0.7398,2.5618,-0.2289,0.0738,0.0019,-69.15,16.2,22.35,-4.07,-2.67,-8.47,0.0218,-0.0349,0.0055,19.875,31.875,27.875,19.25,-25.8125,162.875,0
1776973675.006,8.8849,4.1348,-0.1341,-0.2769,0.9582,0.9052,-88.2,42.0,31.95,9.6845,-0.6512,2.5977,-0.2028,0.0538,0.0011,-68.7,15.6,22.2,-4.14,-2.74,-8.52,0.0218,-0.0349,0.0055,19.875,31.875,27.875,19.25,-25.8125,162.875,0
1776973675.011,9.1722,4.0534,-0.1053,-0.2667,0.9142,0.9153,-88.95,42.3,33.0,9.4499,-0.6752,2.6671,-0.2028,0.0538,0.0011,-68.7,15.6,22.2,-4.14,-2.74,-8.52,0.024,-0.0415,0.0098,19.875,31.875,27.875,19.25,-25.875,162.875,0
1776973675.017,9.1722,4.0534,-0.1053,-0.2747,0.8745,0.9393,-88.95,42.3,33.0,9.4499,-0.6752,2.6671,-0.1868,0.032,-0.0298,-69.0,14.4,21.75,-4.16,-2.65,-8.52,0.024,-0.0415,0.0098,19.875,31.875,27.875,19.25,-25.875,162.875,0
1776973675.026,9.0333,3.9217,-0.2538,-0.2747,0.8745,0.9393,-88.05,42.9,30.0,9.3948,-0.6273,2.4924,-0.1743,0.0378,-0.0381,-68.1,15.45,20.85,-4.16,-2.71,-8.49,0.0251,-0.0382,0.012,19.875,31.875,27.875,19.25,-25.875,162.875,0
1776973675.031,8.9519,4.1827,0.0263,-0.2006,0.8655,0.9411,-88.05,42.9,30.0,9.323,-0.7614,2.5857,-0.1743,0.0378,-0.0381,-68.1,15.45,20.85,-4.16,-2.71,-8.49,0.0273,-0.0393,0.0087,19.875,31.875,27.875,19.25,-25.875,162.8125,0
1776973675.037,8.3677,4.5059,0.2394,-0.0749,0.5124,0.9289,-88.05,42.9,30.0,9.323,-0.7614,2.5857,-0.1998,0.0298,-0.0376,-68.1,15.45,20.85,-4.24,-2.5,-8.52,0.0273,-0.0393,0.0087,19.875,31.875,27.875,19.25,-25.875,162.8125,0
1776973675.042,8.3677,4.5059,0.2394,-0.0749,0.5124,0.9289,-88.5,42.75,31.35,9.7324,-0.2634,2.5115,-0.2542,0.0501,-0.0378,-68.1,15.45,20.85,-4.18,-2.58,-8.51,0.0295,-0.0371,0.0065,18.75,32.6875,28.6875,19.25,-25.875,162.8125,0
1776973675.047,8.5784,4.5203,0.4956,-0.1788,0.9036,0.9427,-88.05,42.15,31.05,9.7324,-0.2634,2.5115,-0.2542,0.0501,-0.0378,-69.6,15.0,21.9,-4.18,-2.58,-8.51,0.0295,-0.0371,0.0065,18.75,32.6875,28.6875,19.25,-25.875,162.8125,0
1776973675.052,8.5784,4.5203,0.4956,-0.1788,0.9036,0.9427,-88.05,42.15,31.05,9.7348,0.1628,3.0981,-0.279,-0.0141,-0.02,-69.6,15.0,21.9,-4.18,-2.58,-8.51,0.0349,-0.0349,-0.0022,18.75,32.6875,28.6875,19.25,-25.9375,162.8125,0
1776973675.057,8.9376,4.5226,0.7063,-0.146,0.8537,0.9579,-88.5,41.25,31.95,9.7348,0.1628,3.0981,-0.279,-0.0141,-0.02,-69.6,15.45,22.65,-4.14,-2.64,-8.55,0.0349,-0.0349,-0.0022,18.75,32.6875,28.6875,19.25,-25.9375,162.8125,0
1776973675.061,8.9376,4.5226,0.7063,-0.146,0.8537,0.9579,-88.5,41.25,31.95,9.8019,0.5004,2.9425,-0.2633,-0.0293,-0.0245,-69.6,15.45,22.65,-4.14,-2.64,-8.55,0.0447,-0.0349,-0.0055,18.75,32.6875,28.6875,19.25,-25.9375,162.75,0
1776973675.067,8.5736,4.6807,0.8787,-0.1284,0.8207,0.9763,-91.05,40.5,31.35,9.8019,0.5004,2.9425,-0.2633,-0.0293,-0.0245,-69.45,15.15,23.7,-4.02,-2.93,-8.44,0.0447,-0.0349,-0.0055,18.75,32.6875,28.6875,19.25,-25.9375,162.6875,0
1776973675.076,8.758,4.4987,0.7925,-0.1061,0.7954,0.98,-91.05,40.5,31.35,9.6414,0.51,3.2825,-0.1495,-0.0514,0.0019,-68.4,15.75,21.9,-4.17,-2.86,-8.43,0.0611,-0.0458,0.0011,18.75,32.6875,28.6875,19.25,-25.9375,162.6875,0
1776973675.081,8.758,4.4987,0.7925,-0.1061,0.7954,0.98,-91.05,40.5,31.35,9.5361,0.2873,2.6336,-0.125,-0.0797,0.0256,-68.4,15.75,21.9,-4.17,-2.86,-8.43,0.06,-0.0622,0.0153,18.75,32.6875,28.6875,19.25,-25.9375,162.6875,0
1776973675.087,8.7364,4.1515,0.7638,-0.0823,0.7336,0.9454,-91.05,40.5,31.35,9.5361,0.2873,2.6336,-0.125,-0.0797,0.0256,-68.85,15.45,23.1,-4.14,-2.84,-8.41,0.06,-0.0622,0.0153,18.75,32.6875,28.6875,19.25,-25.9375,162.6875,0
1776973675.092,8.7364,4.1515,0.7638,-0.0823,0.7336,0.9454,-91.05,40.5,31.35,9.3278,-0.0192,2.5235,-0.1108,-0.0746,0.045,-68.85,15.45,23.1,-4.14,-2.84,-8.41,0.06,-0.0622,0.0153,19.875,33.0,28.6875,19.25,-26.0,162.625,0
1776973675.097,8.8538,3.5267,0.7757,-0.1601,0.7136,0.9355,-89.7,38.55,32.4,9.3278,-0.0192,2.5235,-0.1108,-0.0746,0.045,-68.85,15.75,22.35,-4.23,-2.81,-8.33,0.0556,-0.0611,0.0229,19.875,33.0,28.6875,19.25,-26.0,162.625,0
1776973675.102,8.8538,3.5267,0.7757,-0.1601,0.7136,0.9355,-89.7,38.55,32.4,9.2368,-0.3926,2.32,-0.118,-0.0957,0.0629,-68.85,15.75,22.35,-4.23,-2.81,-8.33,0.0556,-0.0611,0.0229,19.875,33.0,28.6875,19.3125,-26.0,162.5625,0
1776973675.107,9.0453,2.9592,-0.067,-0.1463,0.7096,0.9225,-89.25,38.25,31.95,9.2368,-0.3926,2.32,-0.118,-0.0957,0.0629,-68.85,15.75,22.35,-4.22,-2.76,-8.39,0.048,-0.0545,0.0273,19.875,33.0,28.6875,19.3125,-26.0,162.5625,0
1776973675.112,9.0453,2.9592,-0.067,-0.1463,0.7096,0.9225,-89.25,38.25,31.95,9.2344,-0.6057,2.3104,-0.1724,-0.0919,0.0741,-68.85,15.75,22.35,-4.22,-2.76,-8.39,0.0251,-0.0458,0.0295,19.875,33.0,28.6875,19.3125,-26.0625,162.5625,0
1776973675.117,9.1363,3.1915,-0.2274,-0.0815,0.6776,0.9254,-91.35,39.15,32.85,9.2344,-0.6057,2.3104,-0.1724,-0.0919,0.0741,-70.05,16.2,22.65,-4.22,-2.65,-8.45,0.0251,-0.0458,0.0295,19.875,33.0,28.6875,19.3125,-26.0625,162.5625,0
1776973675.126,9.5984,3.2346,0.2945,-0.0266,0.2332,0.878,-89.1,36.15,31.8,9.4619,-0.3711,2.2482,-0.2563,-0.0781,0.0781,-70.05,16.2,22.65,-4.15,-2.72,-8.4,0.0164,-0.0382,0.0262,19.875,33.0,28.6875,19.3125,-26.0625,162.5625,0
1776973675.134,8.7604,3.1292,0.8116,-0.2044,0.6944,0.9092,-89.1,36.15,31.8,9.7612,0.2466,2.2314,-0.3613,-0.0781,0.0466,-69.45,14.4,22.95,-3.84,-2.96,-8.52,0.012,-0.0371,0.0262,19.875,33.0,28.6875,19.3125,-26.0625,162.5625,0
1776973675.139,8.7604,3.1292,0.8116,-0.2044,0.6944,0.9092,-89.1,36.15,31.8,10.0197,0.0575,2.4229,-0.2817,-0.0949,0.0845,-69.45,14.4,22.95,-3.84,-2.96,-8.52,0.012,-0.0371,0.0262,19.875,33.0,28.6875,19.3125,-26.0625,162.5625,0
1776973675.144,9.4379,2.9473,0.5722,-0.2049,0.809,0.9196,-89.1,36.15,31.8,10.0197,0.0575,2.4229,-0.2817,-0.0949,0.0845,-69.45,14.4,22.95,-4.06,-2.83,-8.55,0.0425,-0.0894,0.0567,19.5,31.75,27.875,19.375,-26.125,162.5,0
1776973675.149,9.4379,2.9473,0.5722,-0.2049,0.809,0.9196,-89.7,34.5,31.35,9.6438,-0.2227,2.9784,-0.137,-0.1061,0.0823,-69.0,15.9,21.45,-4.06,-2.83,-8.55,0.0425,-0.0894,0.0567,19.5,31.75,27.875,19.375,-26.125,162.5,0
1776973675.154,9.0956,2.6671,1.075,-0.2374,0.6984,0.9054,-89.7,34.5,31.35,9.6438,-0.2227,2.9784,-0.137,-0.1061,0.0823,-69.6,13.8,21.45,-4.27,-2.7,-8.44,0.0425,-0.0894,0.0567,19.5,31.75,27.875,19.375,-26.1875,162.5,0
1776973675.159,9.0956,2.6671,1.075,-0.2374,0.6984,0.9054,-90.9,32.4,32.1,9.3972,-0.589,2.3918,-0.1471,-0.0917,0.097,-69.6,13.8,21.6,-4.27,-2.7,-8.44,0.0425,-0.0894,0.0567,19.5,31.75,27.875,19.375,-26.1875,162.5,0
1776973675.163,9.1339,2.15,1.0199,-0.2742,0.7578,0.8937,-90.9,32.4,32.1,9.3972,-0.589,2.3918,-0.1471,-0.0917,0.097,-69.6,13.8,21.6,-4.34,-2.64,-8.43,0.0469,-0.1014,0.0644,19.5,31.75,27.875,19.4375,-26.25,162.5,0
1776973675.168,9.1339,2.15,1.0199,-0.2742,0.7578,0.8937,-88.35,33.45,31.5,9.1554,-0.7733,1.9082,-0.1172,-0.1172,0.1023,-68.7,14.85,23.25,-4.34,-2.64,-8.43,0.0469,-0.1014,0.0644,19.5,31.75,27.875,19.4375,-26.3125,162.4375,0
1776973675.176,8.7388,2.1332,0.9457,-0.2411,0.7282,0.8756,-89.25,32.25,33.0,8.9759,-0.4166,2.217,-0.1159,-0.0616,0.1031,-69.6,15.45,21.15,-4.37,-2.58,-8.37,0.0458,-0.0894,0.0589,19.5,31.75,27.875,19.5,-26.3125,162.4375,0
1776973675.186,9.2464,2.0973,1.0271,-0.2507,0.7869,0.8729,-89.25,32.25,33.0,9.3302,-0.2155,1.9609,-0.1503,-0.0719,0.1074,-69.6,13.8,21.9,-4.31,-2.56,-8.39,0.0371,-0.0774,0.048,19.5,31.75,27.875,19.5,-26.3125,162.4375,0
1776973675.191,9.3853,1.9441,1.7909,-0.3147,0.6891,0.8609,-89.25,32.25,33.0,9.3302,-0.2155,1.9609,-0.1503,-0.0719,0.1074,-69.6,13.8,21.9,-4.31,-2.56,-8.39,0.0371,-0.0774,0.048,19.5,31.75,27.875,19.5,-26.3125,162.4375,0
1776973675.196,9.3853,1.9441,1.7909,-0.3147,0.6891,0.8609,-89.25,32.25,33.0,9.4068,-0.2346,2.399,-0.1359,-0.0789,0.0965,-69.6,13.8,21.9,-4.22,-2.64,-8.53,0.0218,-0.048,0.0305,20.1875,32.1875,27.875,19.5,-26.375,162.4375,0
1776973675.201,9.3015,1.7023,1.561,-0.3842,0.6387,0.846,-89.25,32.25,33.0,9.4068,-0.2346,2.399,-0.1359,-0.0789,0.0965,-69.6,13.8,21.9,-4.22,-2.64,-8.53,0.0218,-0.048,0.0305,20.1875,32.1875,27.875,19.5,-26.375,162.4375,0
1776973675.206,9.3015,1.7023,1.561,-0.3842,0.6387,0.846,-89.1,29.7,33.9,9.3374,-0.5004,3.0526,-0.0624,-0.069,0.0786,-68.85,15.0,21.6,-4.23,-2.74,-8.45,0.0218,-0.048,0.0305,20.1875,32.1875,27.875,19.5,-26.375,162.4375,0
1776973675.211,9.1889,1.6783,1.7286,-0.3134,0.6422,0.8178,-89.1,29.7,33.9,9.3374,-0.5004,3.0526,-0.0624,-0.069,0.0786,-68.85,15.0,21.6,-4.23,-2.74,-8.45,0.0153,-0.0545,0.0327,20.1875,32.1875,27.875,19.5,-26.4375,162.4375,0
1776973675.217,9.1889,1.6783,1.7286,-0.3134,0.6422,0.8178,-90.0,28.8,33.0,9.2847,-0.7326,2.7438,-0.0152,-0.0805,0.0781,-70.2,15.15,22.5,-4.32,-2.73,-8.32,0.0153,-0.0545,0.0327,20.1875,32.1875,27.875,19.5625,-26.4375,162.4375,0
1776973675.226,9.1818,1.391,1.6472,-0.3134,0.5875,0.8151,-89.1,28.2,32.85,9.177,-0.8452,2.4134,0.0741,-0.0765,0.0757,-70.2,14.4,21.75,-4.32,-2.73,-8.31,-0.0033,-0.0425,0.0284,20.1875,32.1875,27.875,19.5625,-26.4375,162.4375,0
1776973675.233,9.6582,1.4485,1.3048,-0.2342,0.5622,0.8026,-90.15,27.45,33.3,9.5289,-1.0415,1.9824,0.0919,-0.0528,0.0682,-70.2,14.4,21.75,-4.37,-2.55,-8.44,-0.024,-0.0185,0.0196,20.1875,32.1875,27.875,19.5625,-26.4375,162.4375,0
1776973675.238,9.6582,1.4485,1.3048,-0.2342,0.5622,0.8026,-90.15,27.45,33.3,9.5289,-1.0415,1.9824,0.0919,-0.0528,0.0682,-70.5,14.85,21.45,-4.37,-2.55,-8.44,-0.024,-0.0185,0.0196,20.1875,32.1875,27.875,19.5625,-26.4375,162.4375,0
1776973675.243,9.5193,1.5658,1.3934,-0.3339,0.6038,0.809,-90.15,27.45,33.3,9.6462,-0.8811,2.1715,0.1082,-0.0602,0.0618,-70.5,14.85,21.45,-4.27,-2.6,-8.51,-0.0295,-0.0076,0.012,20.1875,31.5,27.0625,19.5625,-26.4375,162.4375,0
1776973675.248,9.5193,1.5658,1.3934,-0.3339,0.6038,0.809,-90.15,27.45,33.3,9.6462,-0.8811,2.1715,0.1082,-0.0602,0.0618,-70.95,13.65,22.2,-4.27,-2.6,-8.51,-0.0295,-0.0076,0.012,20.1875,31.5,27.0625,19.5625,-26.4375,162.4375,0
1776973675.253,9.3422,1.6376,1.5347,-0.381,0.5486,0.7914,-90.15,27.45,33.3,9.5648,-0.7159,2.3152,0.0725,-0.0791,0.0549,-70.95,13.65,22.2,-4.3,-2.51,-8.54,-0.0207,-0.0022,0.0065,20.1875,31.5,27.0625,19.5625,-26.4375,162.5,0
1776973675.258,9.3422,1.6376,1.5347,-0.381,0.5486,0.7914,-88.5,25.05,33.0,9.5648,-0.7159,2.3152,0.0725,-0.0791,0.0549,-69.75,14.4,22.2,-4.3,-2.51,-8.54,-0.0207,-0.0022,0.0065,20.1875,31.5,27.0625,19.5625,-26.4375,162.5,0
1776973675.263,9.1626,1.7023,1.2617,-0.3706,0.5375,0.7573,-88.5,25.05,33.0,9.2225,-0.2011,2.4493,0.1077,-0.0725,0.056,-69.75,14.4,22.2,-4.36,-2.61,-8.39,-0.0142,-0.0022,0.0011,20.1875,31.5,27.0625,19.5625,-26.4375,162.5,0
1776973675.267,9.1626,1.7023,1.2617,-0.3706,0.5375,0.7573,-88.95,25.5,33.0,9.2225,-0.2011,2.4493,0.1077,-0.0725,0.056,-69.75,14.4,22.2,-4.36,-2.61,-8.39,-0.0142,-0.0022,0.0011,20.1875,31.5,27.0625,19.5625,-26.4375,162.5,0
1776973675.276,9.1315,1.8196,1.4509,-0.3512,0.6504,0.7277,-88.05,23.4,32.85,9.2656,-0.2322,2.1213,0.1236,-0.052,0.0637,-68.7,12.9,21.0,-4.32,-2.67,-8.41,-0.0207,0.0109,-0.0065,20.1875,31.5,27.0625,19.5625,-26.4375,162.5,0
1776973675.284,9.4236,1.798,1.4557,-0.373,0.6214,0.7061,-89.7,23.25,33.45,9.2751,0.0311,2.2003,0.1561,-0.0362,0.0719,-68.7,12.9,21.0,-4.29,-2.69,-8.42,-0.0338,0.0153,-0.0076,20.1875,31.5,27.0625,19.5625,-26.4375,162.5,0
1776973675.289,9.2703,1.9297,1.8459,-0.2846,0.5231,0.6912,-89.7,23.25,33.45,9.2751,0.0311,2.2003,0.1561,-0.0362,0.0719,-68.7,12.9,21.0,-4.29,-2.69,-8.42,-0.0338,0.0153,-0.0076,20.1875,31.5,27.0625,19.5625,-26.4375,162.5,0
1776973675.294,9.2703,1.9297,1.8459,-0.2846,0.5231,0.6912,-89.7,23.25,33.45,9.4739,0.1724,1.9465,0.1593,-0.0216,0.0999,-68.7,12.9,21.0,-4.24,-2.64,-8.49,-0.0404,0.0229,-0.0142,20.1875,31.75,27.0625,19.5,-26.4375,162.5625,0
1776973675.299,8.8825,2.2841,1.5419,-0.2044,0.554,0.6576,-89.7,23.25,33.45,9.4739,0.1724,1.9465,0.1593,-0.0216,0.0999,-69.6,15.45,20.55,-4.24,-2.64,-8.49,-0.0404,0.0229,-0.0142,20.1875,31.75,27.0625,19.5,-26.4375,162.5625,0
1776973675.303,8.8825,2.2841,1.5419,-0.2044,0.554,0.6576,-89.1,21.9,34.95,9.4164,0.5842,2.0446,0.1713,-0.0352,0.1164,-69.6,15.45,20.55,-4.22,-2.75,-8.37,-0.0349,0.0262,-0.0164,20.1875,31.75,27.0625,19.5,-26.4375,162.5625,0
1776973675.308,9.1315,2.2625,2.0518,-0.1948,0.4972,0.6049,-89.1,21.9,34.95,9.4164,0.5842,2.0446,0.1713,-0.0352,0.1164,-70.95,13.95,21.75,-4.22,-2.75,-8.37,-0.0349,0.0262,-0.0164,20.1875,31.75,27.0625,19.5,-26.4375,162.5625,0
1776973675.316,9.1315,2.2625,2.0518,-0.1948,0.4972,0.6049,-88.35,21.9,34.65,9.4116,0.5243,2.138,0.1322,-0.0418,0.1226,-70.05,14.25,21.6,-4.18,-2.91,-8.32,-0.0447,0.0262,-0.0109,20.1875,31.75,27.0625,19.5,-26.375,162.5625,0
1776973675.321,9.3087,1.8459,1.913,-0.1162,0.4509,0.574,-88.35,21.9,34.65,9.3158,-0.1149,2.5283,0.2145,-0.0477,0.1095,-70.05,14.25,21.6,-4.18,-2.91,-8.32,-0.0633,0.0196,-0.0011,20.1875,31.75,27.0625,19.5,-26.375,162.625,0
1776973675.327,9.2799,2.0303,1.2761,-0.0139,0.4807,0.5947,-89.4,21.9,35.4,9.3158,-0.1149,2.5283,0.2145,-0.0477,0.1095,-70.8,15.45,20.1,-4.06,-2.99,-8.39,-0.0633,0.0196,-0.0011,20.1875,31.75,27.0625,19.5,-26.375,162.625,0
1776973675.336,9.2919,2.3535,1.4868,0.0695,0.5041,0.6137,-89.25,21.3,34.8,9.3757,-0.7207,2.1811,0.2606,-0.0171,0.134,-70.95,12.9,20.25,-4.34,-2.65,-8.38,-0.0774,0.0207,0.0076,20.1875,31.75,27.0625,19.5,-26.3125,162.625,0
1776973675.341,9.2919,2.3535,1.4868,0.0695,0.5041,0.6137,-89.7,21.3,34.8,9.6869,-0.7805,1.798,0.2758,-0.0205,0.1649,-70.95,12.9,20.25,-4.34,-2.65,-8.38,-0.0774,0.0207,0.0076,20.1875,31.75,27.0625,19.5,-26.3125,162.625,0
1776973675.346,9.0644,2.332,1.7358,0.0669,0.4906,0.6171,-89.7,21.3,34.2,9.6869,-0.7805,1.798,0.2758,-0.0205,0.1649,-69.45,15.9,21.75,-4.25,-2.57,-8.48,-0.0894,0.0316,0.0055,20.1875,32.1875,28.25,19.4375,-26.3125,162.6875,0
1776973675.351,9.0644,2.332,1.7358,0.0669,0.4906,0.6171,-89.7,21.3,34.2,9.56,-0.4214,1.6065,0.1889,0.0061,0.1809,-69.45,15.9,21.75,-4.25,-2.57,-8.48,-0.0894,0.0316,0.0055,20.1875,32.1875,28.25,19.4375,-26.3125,162.6875,0
1776973675.356,9.0501,1.9034,1.8747,0.1492,0.4972,0.5926,-89.7,21.3,34.2,9.56,-0.4214,1.6065,0.1889,0.0061,0.1809,-69.45,15.9,21.75,-4.26,-2.51,-8.52,-0.0807,0.0316,0.0022,20.1875,32.1875,28.25,19.4375,-26.3125,162.75,0
1776973675.361,9.0501,1.9034,1.8747,0.1492,0.4972,0.5926,-89.7,21.3,34.2,9.4691,-0.2634,1.7334,0.1247,0.0139,0.1807,-69.45,15.9,21.75,-4.26,-2.51,-8.52,-0.0644,0.0262,-0.0044,20.1875,32.1875,28.25,19.4375,-26.3125,162.75,0
1776973675.367,9.2967,1.2905,1.9656,0.2427,0.477,0.586,-90.15,20.4,36.75,9.2153,0.0024,2.1883,0.1247,0.0139,0.1807,-71.55,13.5,21.15,-4.17,-2.64,-8.56,-0.0644,0.0262,-0.0044,20.1875,32.1875,28.25,19.4375,-26.25,162.8125,0
1776973675.377,9.3111,1.3982,1.8555,0.372,0.4509,0.6054,-89.25,19.8,35.25,9.2033,0.158,2.478,0.1652,0.0296,0.1793,-70.8,13.8,21.6,-4.23,-2.66,-8.46,-0.0502,0.0229,-0.0022,20.1875,32.1875,28.25,19.4375,-26.25,162.8125,0
1776973675.387,9.3637,1.9273,1.8052,0.3858,0.5105,0.5966,-89.25,19.05,34.5,9.4619,0.4501,2.0159,0.2193,0.04,0.1836,-70.8,15.0,20.85,-4.28,-2.57,-8.48,-0.0458,0.0196,-0.0022,20.1875,32.1875,28.25,19.4375,-26.25,162.8125,0
1776973675.391,9.3637,1.9273,1.8052,0.3858,0.5105,0.5966,-87.6,18.45,35.4,9.4619,0.4501,2.0159,0.2217,0.0216,0.21,-70.8,15.0,20.85,-4.28,-2.57,-8.48,-0.0458,0.0196,-0.0022,20.1875,32.1875,28.25,19.4375,-26.25,162.875,0
1776973675.397,9.5002,2.3966,1.9441,0.227,0.5057,0.5668,-87.6,18.45,35.4,9.7731,0.4717,1.8818,0.1935,0.0139,0.2308,-70.2,14.85,20.7,-4.27,-2.61,-8.42,-0.0469,0.024,-0.0044,19.875,32.1875,27.5,19.4375,-26.25,162.875,0
1776973675.401,9.5002,2.3966,1.9441,0.227,0.5057,0.5668,-87.6,18.45,35.4,9.7731,0.4717,1.8818,0.1935,0.0139,0.2308,-70.2,14.85,20.7,-4.27,-2.61,-8.42,-0.0469,0.024,-0.0044,19.875,32.1875,27.5,19.4375,-26.25,162.875,0
1776973675.407,9.3541,2.2936,1.5371,0.1215,0.5265,0.5348,-87.6,18.45,35.4,9.7372,0.3687,1.8124,0.1359,0.0115,0.2491,-72.0,13.2,21.0,-4.09,-2.77,-8.44,-0.048,0.0196,0.0,19.875,32.1875,27.5,19.4375,-26.25,162.875,0
1776973675.412,9.3541,2.2936,1.5371,0.1215,0.5265,0.5348,-88.5,17.55,36.6,9.7372,0.3687,1.8124,0.1359,0.0115,0.2491,-72.0,13.2,21.0,-4.09,-2.77,-8.44,-0.0447,0.0065,0.0087,19.875,32.1875,27.5,19.4375,-26.25,162.875,0
1776973675.417,9.3996,1.6664,1.9441,0.2078,0.4311,0.4839,-88.5,17.55,36.6,9.6917,-0.2322,1.8555,0.053,0.028,0.2822,-70.35,14.25,21.15,-4.04,-2.8,-8.48,-0.0447,0.0065,0.0087,19.875,32.1875,27.5,19.4375,-26.25,162.875,0
1776973675.426,9.2344,1.1181,1.5395,0.3238,0.4199,0.4639,-87.3,17.4,36.15,9.323,-0.3855,2.5043,0.0677,0.0282,0.307,-70.35,14.25,21.15,-4.05,-2.75,-8.5,-0.0404,-0.0098,0.024,19.875,32.1875,27.5,19.4375,-26.1875,162.9375,0
1776973675.431,9.2344,1.1181,1.5395,0.3238,0.4199,0.4639,-90.75,18.3,36.3,9.323,-0.3855,2.5043,0.0677,0.0282,0.307,-70.35,14.25,21.15,-4.05,-2.75,-8.5,-0.0404,-0.0262,0.0327,19.875,32.1875,27.5,19.4375,-26.25,162.9375,0
1776973675.438,8.9304,0.8691,1.6233,0.3235,0.3957,0.4479,-90.75,18.3,36.3,9.2368,-0.4142,2.478,0.052,0.0568,0.3323,-69.75,14.4,22.95,-4.31,-2.56,-8.41,-0.0404,-0.0262,0.0327,19.875,32.1875,27.5,19.4375,-26.25,162.9375,0
1776973675.442,9.3901,0.6081,2.059,0.1804,0.3781,0.4482,-87.15,17.55,35.25,9.2368,-0.4142,2.478,0.052,0.0568,0.3323,-69.75,14.4,22.95,-4.31,-2.56,-8.41,-0.0404,-0.0262,0.0327,21.375,31.75,26.75,19.4375,-26.25,163.0,0
1776973675.447,9.3901,0.6081,2.059,0.1804,0.3781,0.4482,-87.15,17.55,35.25,9.2177,-0.3328,2.1093,0.0485,0.0413,0.3421,-69.75,14.4,22.95,-4.26,-2.62,-8.46,-0.0469,-0.0251,0.036,21.375,31.75,26.75,19.4375,-26.25,163.0,0
1776973675.452,9.3422,0.5578,2.162,0.097,0.4253,0.4684,-89.1,16.65,37.8,9.2177,-0.3328,2.1093,0.0485,0.0413,0.3421,-69.75,14.4,22.95,-4.26,-2.62,-8.46,-0.0469,-0.0251,0.036,21.375,31.75,26.75,19.4375,-26.25,163.0,0
1776973675.457,9.3422,0.5578,2.162,0.097,0.4253,0.4684,-89.1,16.65,37.8,9.3015,-0.5339,2.1021,0.0509,0.0805,0.3384,-70.8,14.55,19.8,-4.29,-2.64,-8.41,-0.0535,-0.0175,0.0316,21.375,31.75,26.75,19.4375,-26.25,163.0,0
1776973675.462,9.584,0.9649,2.0997,0.0192,0.4109,0.4772,-89.1,16.65,37.8,9.3015,-0.5339,2.1021,0.0509,0.0805,0.3384,-70.8,14.55,19.8,-4.29,-2.64,-8.41,-0.0633,-0.012,0.0338,21.375,31.75,26.75,19.4375,-26.25,163.0625,0
1776973675.468,9.584,0.9649,2.0997,0.0192,0.4109,0.4772,-89.1,16.65,37.8,9.6391,-0.7135,1.8028,0.0376,0.0693,0.3573,-70.5,14.4,22.2,-4.22,-2.54,-8.53,-0.0633,-0.012,0.0338,21.375,31.75,26.75,19.4375,-26.25,163.125,0
1776973675.477,9.5098,1.4748,2.3224,-0.1527,0.3595,0.4604,-87.0,16.2,35.7,9.4954,-0.6105,1.8627,0.0211,0.0703,0.3728,-70.5,14.4,22.2,-4.22,-2.49,-8.52,-0.06,-0.0098,0.0305,21.375,31.75,26.75,19.4375,-26.25,163.125,0
1776973675.484,9.2775,1.6831,2.0327,-0.2915,0.3986,0.4469,-87.15,16.5,36.6,9.5074,-0.1676,1.9297,-0.0067,0.0805,0.3941,-69.6,13.8,20.85,-4.23,-2.5,-8.56,-0.0491,-0.0153,0.0316,21.375,31.75,26.75,19.5,-26.25,163.125,0
1776973675.489,9.2775,1.6831,2.0327,-0.2915,0.3986,0.4469,-87.15,16.5,36.6,9.5074,-0.1676,1.9297,-0.0067,0.0805,0.3941,-71.7,14.85,19.95,-4.23,-2.5,-8.56,-0.0491,-0.0153,0.0316,21.375,31.75,26.75,19.5,-26.25,163.125,0
1776973675.494,9.3063,1.7047,2.1931,-0.2923,0.3512,0.4365,-86.4,15.0,35.85,9.5217,0.2682,2.138,-0.0605,0.0946,0.4194,-71.7,14.85,19.95,-4.22,-2.45,-8.55,-0.0349,-0.0229,0.0284,19.1875,31.0625,27.875,19.5,-26.3125,163.1875,0
1776973675.499,9.3063,1.7047,2.1931,-0.2923,0.3512,0.4365,-86.55,15.0,35.85,9.5217,0.2682,2.138,-0.0605,0.0946,0.4194,-71.7,14.85,19.95,-4.22,-2.45,-8.55,-0.0349,-0.0229,0.0284,19.1875,31.0625,27.875,19.5,-26.3125,163.1875,0
1776973675.503,9.5313,1.7717,2.2266,-0.2105,0.3208,0.405,-86.55,14.7,36.75,9.6199,0.5004,2.2003,-0.0794,0.0879,0.4317,-71.7,14.85,19.95,-4.13,-2.7,-8.43,-0.0207,-0.0284,0.0295,19.1875,31.0625,27.875,19.5,-26.3125,163.1875,0
1776973675.508,9.5313,1.7717,2.2266,-0.2105,0.3208,0.405,-86.55,14.7,36.75,9.6199,0.5004,2.2003,-0.0794,0.0879,0.4317,-71.1,12.3,20.85,-4.13,-2.7,-8.43,-0.0207,-0.0284,0.0295,19.1875,31.0625,27.875,19.5,-26.3125,163.1875,0
1776973675.513,9.572,1.81,2.2386,-0.2292,0.3784,0.38,-86.55,14.7,36.75,9.6486,0.2179,1.9896,-0.0706,0.0759,0.4466,-71.1,12.3,20.85,-4.11,-2.75,-8.41,-0.024,-0.0404,0.0393,19.1875,31.0625,27.875,19.5,-26.3125,163.1875,0
1776973675.518,9.572,1.81,2.2386,-0.2292,0.3784,0.38,-86.55,14.7,36.75,9.6486,0.2179,1.9896,-0.0706,0.0759,0.4466,-71.1,12.3,20.85,-4.11,-2.75,-8.41,-0.024,-0.0404,0.0393,19.1875,31.0625,27.875,19.5,-26.375,163.1875,0
1776973675.527,9.2823,1.5323,2.241,-0.166,0.4005,0.3555,-86.4,14.25,36.6,9.7061,-0.4956,1.8914,-0.0962,0.0818,0.4834,-71.1,12.3,20.85,-4.22,-2.52,-8.51,-0.0284,-0.0545,0.0458,19.1875,31.0625,27.875,19.5,-26.375,163.1875,0
1776973675.533,9.3996,1.0606,1.6209,-0.1498,0.3126,0.3491,-86.4,15.0,37.35,9.6726,-0.7302,1.9273,-0.1444,0.0914,0.5247,-71.1,11.1,21.15,-4.14,-2.61,-8.57,-0.0262,-0.0458,0.0469,19.1875,31.0625,27.875,19.5625,-26.375,163.25,0
1776973675.538,9.3996,1.0606,1.6209,-0.1498,0.3126,0.3491,-86.4,15.0,37.35,9.6726,-0.7302,1.9273,-0.1444,0.0914,0.5247,-70.05,12.3,21.15,-4.14,-2.61,-8.57,-0.0262,-0.0458,0.0469,19.1875,31.0625,27.875,19.5625,-26.375,163.25,0
1776973675.543,9.3134,0.7111,1.2306,-0.1897,0.3325,0.3269,-86.55,15.45,36.75,9.3182,-0.5938,1.9968,-0.1729,0.1132,0.5537,-70.05,12.3,21.15,-4.27,-2.46,-8.55,-0.0207,-0.0436,0.0491,19.875,32.1875,28.25,19.5625,-26.375,163.25,0
1776973675.548,9.3134,0.7111,1.2306,-0.1897,0.3325,0.3269,-87.3,13.65,37.5,9.3182,-0.5938,1.9968,-0.1729,0.1132,0.5537,-70.5,12.45,22.2,-4.27,-2.46,-8.55,-0.0207,-0.0436,0.0491,19.875,32.1875,28.25,19.5625,-26.375,163.25,0
1776973675.553,9.2991,0.6584,1.6161,-0.1791,0.3246,0.3054,-87.3,13.65,37.5,9.2105,-0.5363,1.9776,-0.1479,0.1362,0.5782,-70.5,12.45,22.2,-4.27,-2.46,-8.55,-0.0153,-0.0469,0.048,19.875,32.1875,28.25,19.5625,-26.4375,163.25,0
1776973675.558,9.2991,0.6584,1.6161,-0.1791,0.3246,0.3054,-86.7,12.75,39.45,9.2105,-0.5363,1.9776,-0.1479,0.1362,0.5782,-70.5,12.45,22.2,-4.35,-2.45,-8.48,-0.0153,-0.0469,0.048,19.875,32.1875,28.25,19.5625,-26.4375,163.25,0
1776973675.563,9.4116,0.644,1.6305,-0.2486,0.267,0.2838,-86.7,12.75,39.45,9.1482,-0.3687,2.1069,-0.1657,0.1764,0.5804,-70.5,11.25,21.75,-4.35,-2.45,-8.48,-0.0087,-0.0415,0.0458,19.875,32.1875,28.25,19.625,-26.4375,163.3125,0
1776973675.568,9.4116,0.644,1.6305,-0.2928,0.1924,0.2537,-86.7,12.75,39.45,9.1482,-0.3687,2.1069,-0.1657,0.1764,0.5804,-72.3,11.1,21.75,-4.28,-2.52,-8.47,-0.0087,-0.0415,0.0458,19.875,32.1875,28.25,19.625,-26.5,163.3125,0
1776973675.577,9.402,0.9266,1.9321,-0.2928,0.1924,0.2537,-86.7,12.75,39.45,9.5241,-0.5028,1.9225,-0.211,0.1796,0.6038,-72.3,11.1,21.15,-4.26,-2.57,-8.46,-0.0131,-0.0349,0.0458,19.875,32.1875,28.25,19.625,-26.5,163.3125,0
1776973675.583,9.4571,1.1109,2.2218,-0.393,0.1801,0.2321,-87.6,12.45,36.75,9.6007,-0.7973,2.1715,-0.2169,0.1665,0.6163,-70.05,10.65,21.15,-4.22,-2.55,-8.46,-0.0076,-0.0349,0.0491,19.875,32.1875,28.25,19.625,-26.5,163.3125,0
1776973675.588,9.2536,1.336,2.2817,-0.437,0.1985,0.2254,-85.5,12.15,38.55,9.5744,-1.0726,2.3439,-0.2169,0.1665,0.6163,-70.05,10.65,21.15,-4.22,-2.55,-8.46,-0.0076,-0.0349,0.0491,19.875,32.1875,28.25,19.625,-26.5,163.3125,0
1776973675.593,9.2536,1.336,2.2817,-0.437,0.1985,0.2254,-85.5,12.15,38.55,9.5744,-1.0726,2.3439,-0.1945,0.1735,0.6344,-70.05,10.65,21.15,-4.22,-2.6,-8.51,-0.0022,-0.0404,0.0545,20.1875,31.75,26.75,19.6875,-26.5,163.3125,0
1776973675.598,9.1099,1.4389,2.5067,-0.4994,0.2308,0.227,-85.95,10.8,38.1,9.5696,-0.9792,2.3918,-0.1945,0.1735,0.6344,-70.05,10.65,21.15,-4.22,-2.6,-8.51,-0.0022,-0.0404,0.0545,20.1875,31.75,26.75,19.6875,-26.5,163.3125,0
1776973675.603,9.1099,1.4389,2.5067,-0.4994,0.2308,0.227,-85.95,10.8,38.1,9.5696,-0.9792,2.3918,-0.1996,0.1743,0.6571,-69.75,10.95,22.2,-4.29,-2.46,-8.59,0.0044,-0.0502,0.0589,20.1875,31.75,26.75,19.6875,-26.5625,163.3125,0
1776973675.608,8.9423,1.2833,2.5762,-0.4191,0.3011,0.2435,-85.65,10.5,36.6,9.5409,-0.6847,2.739,-0.2289,0.1631,0.6811,-69.75,10.95,22.2,-4.29,-2.46,-8.59,0.0044,-0.0502,0.0589,20.1875,31.75,26.75,19.6875,-26.5625,163.3125,0
1776973675.613,8.9423,1.2833,2.5762,-0.4191,0.3011,0.2435,-85.65,10.5,36.6,9.5409,-0.6847,2.739,-0.2289,0.1631,0.6811,-70.8,10.65,22.35,-4.29,-2.46,-8.59,0.0207,-0.0425,0.0578,20.1875,31.75,26.75,19.75,-26.5625,163.3125,0
1776973675.618,9.2871,1.1923,3.1029,-0.3461,0.3072,0.2614,-85.65,10.5,36.6,9.6558,-0.5986,2.7078,-0.304,0.1524,0.6757,-70.8,10.65,22.35,-4.22,-2.52,-8.54,0.0207,-0.0425,0.0578,20.1875,31.75,26.75,19.75,-26.5625,163.3125,0
1776973675.627,9.1842,1.0439,3.1173,-0.251,0.2846,0.299,-85.65,10.5,36.6,9.6534,-1.1061,2.5307,-0.304,0.1524,0.6757,-69.75,9.75,22.95,-4.32,-2.61,-8.51,0.0295,-0.0545,0.0622,20.1875,31.75,26.75,19.75,-26.625,163.3125,0
1776973675.632,9.1842,1.0439,3.1173,-0.251,0.2846,0.299,-84.9,10.8,38.4,9.6534,-1.1061,2.5307,-0.2662,0.1412,0.6856,-70.95,9.75,22.2,-4.32,-2.61,-8.51,0.0415,-0.0545,0.0665,20.1875,31.75,26.75,19.8125,-26.625,163.3125,0
1776973675.638,9.2249,0.9313,2.739,-0.1282,0.2963,0.3355,-84.75,9.45,36.75,9.7133,-1.8842,2.6647,-0.2244,0.1482,0.7021,-70.95,9.75,22.2,-4.18,-2.73,-8.57,0.0415,-0.0545,0.0665,20.1875,31.75,26.75,19.8125,-26.625,163.3125,0
1776973675.643,9.2249,0.9313,2.739,-0.1282,0.2963,0.3355,-84.75,9.45,36.75,9.7133,-1.8842,2.6647,-0.2244,0.1482,0.7021,-70.95,9.75,22.2,-4.18,-2.73,-8.57,0.0415,-0.0545,0.0665,19.875,31.5,28.25,19.8125,-26.6875,163.3125,0
1776973675.648,9.3015,0.9122,2.818,-0.0565,0.2809,0.3613,-85.95,9.75,37.35,9.675,-2.1907,2.6647,-0.2494,0.1359,0.7261,-70.95,9.75,22.2,-4.14,-2.74,-8.58,0.0305,-0.0785,0.0731,19.875,31.5,28.25,19.8125,-26.6875,163.3125,0
1776973675.653,9.3015,0.9122,2.818,-0.0565,0.2809,0.3613,-85.95,9.75,37.35,9.675,-2.1907,2.6647,-0.2494,0.1359,0.7261,-69.15,10.35,21.9,-4.14,-2.74,-8.58,0.0305,-0.0785,0.0731,19.875,31.5,28.25,19.875,-26.75,163.3125,0
1776973675.658,9.5672,0.8045,3.055,-0.0466,0.3099,0.3664,-84.45,9.45,39.0,9.6702,-2.0734,2.7916,-0.2923,0.1188,0.7333,-69.15,10.35,21.9,-4.19,-2.56,-8.63,0.0349,-0.0774,0.0698,19.875,31.5,28.25,19.875,-26.75,163.3125,0
1776973675.663,9.5672,0.8045,3.055,-0.0466,0.3099,0.3664,-84.45,9.45,39.0,9.6702,-2.0734,2.7916,-0.2923,0.1188,0.7333,-69.15,10.35,21.9,-4.19,-2.56,-8.63,0.0524,-0.0971,0.0665,19.875,31.5,28.25,19.9375,-26.75,163.3125,0
1776973675.668,9.7707,0.8882,3.4764,-0.0488,0.3493,0.3752,-85.5,8.4,37.2,9.8067,-1.8268,2.5642,-0.2689,0.1255,0.7357,-69.15,10.35,21.9,-4.22,-2.42,-8.77,0.0524,-0.0971,0.0665,19.875,31.5,28.25,19.9375,-26.8125,163.25,0
1776973675.677,9.8402,0.9888,3.6488,-0.1108,0.4002,0.3922,-85.5,8.4,37.2,10.1347,-1.7214,2.0279,-0.2124,0.1215,0.7413,-70.5,9.0,19.95,-3.81,-2.16,-9.2,0.0807,-0.1222,0.0654,19.875,31.5,28.25,20.0,-26.9375,163.1875,0
1776973675.687,9.6702,1.1779,3.5362,0.0514,0.4175,0.4056,-84.0,8.7,39.0,10.0987,-1.7334,2.2266,-0.182,0.1223,0.7618,-70.5,9.0,19.95,-4.25,-2.5,-8.82,0.1244,-0.1669,0.0709,19.875,31.5,28.25,20.0,-26.9375,163.1875,0
1776973675.692,9.6702,1.1779,3.5362,0.0514,0.4175,0.4056,-84.0,8.7,39.0,10.0987,-1.7334,2.2266,-0.182,0.1223,0.7618,-69.6,6.45,23.1,-4.25,-2.5,-8.82,0.1244,-0.1669,0.0709,19.875,31.5,28.25,20.0625,-27.0625,163.0625,0
1776973675.697,9.5193,1.3599,3.3974,0.0642,0.498,0.4005,-85.05,8.4,37.8,9.9862,-1.6544,2.4684,-0.1788,0.1039,0.7725,-69.6,6.45,23.1,-4.11,-2.5,-8.86,0.1713,-0.2203,0.0753,21.0,31.0625,28.25,20.0625,-27.0625,163.0625,0
1776973675.702,9.5193,1.3599,3.3974,0.0642,0.498,0.4005,-85.05,8.4,37.8,9.9862,-1.6544,2.4684,-0.1788,0.1039,0.7725,-69.15,6.75,21.6,-4.11,-2.5,-8.86,0.1713,-0.2203,0.0753,21.0,31.0625,28.25,20.0625,-27.25,163.0,0
1776973675.707,9.8569,1.5107,3.3016,0.1447,0.4852,0.3842,-84.6,9.0,38.4,10.0916,-1.4078,2.1979,-0.2062,0.0941,0.797,-69.15,6.75,21.6,-4.08,-2.52,-8.95,0.1985,-0.2836,0.0829,21.0,31.0625,28.25,20.0625,-27.25,163.0,0
1776973675.715,10.1778,1.6424,3.2274,0.1759,0.5271,0.3504,-83.7,7.95,39.3,10.2137,-1.1253,2.1308,-0.2697,0.0949,0.8202,-70.2,6.6,22.5,-4.11,-2.3,-9.14,0.204,-0.3589,0.0764,21.0,31.0625,28.25,20.125,-27.4375,162.875,0
1776973675.72,10.1778,1.6424,3.2274,0.1759,0.5271,0.3504,-83.7,7.95,39.3,10.2137,-1.1253,2.1308,-0.2697,0.0949,0.8202,-70.2,6.9,21.75,-4.11,-2.3,-9.14,0.204,-0.3589,0.0764,21.0,31.0625,28.25,20.1875,-27.5625,162.75,0
1776973675.728,10.0844,1.561,2.6767,0.2518,0.494,0.3277,-83.7,7.95,39.3,10.4052,-0.8092,2.3559,-0.3035,0.1242,0.8561,-70.2,6.9,21.75,-4.01,-2.91,-9.0,0.2247,-0.408,0.0851,21.0,31.0625,28.25,20.25,-27.8125,162.625,0
1776973675.738,9.9671,1.2282,2.2865,0.522,0.3704,0.3214,-81.15,7.65,39.0,10.8098,-0.3855,2.0087,-0.3672,0.1146,0.9212,-69.45,4.95,22.5,-3.98,-3.08,-9.08,0.2422,-0.4647,0.1124,21.0,31.0625,28.25,20.25,-27.8125,162.625,0
1776973675.742,10.7308,1.3958,1.8364,0.7155,0.1378,0.3251,-81.15,7.65,39.0,11.236,-0.7757,1.391,-0.3672,0.1146,0.9212,-69.0,5.85,22.95,-3.98,-3.08,-9.08,0.2422,-0.4647,0.1124,21.0,31.0625,28.25,20.3125,-28.125,162.4375,0
1776973675.747,10.7308,1.3958,1.8364,0.7155,0.1378,0.3251,-81.9,7.95,38.55,11.236,-0.7757,1.391,-0.4778,0.1005,0.9926,-69.0,5.85,22.95,-3.82,-3.27,-9.24,0.2422,-0.5509,0.144,21.375,31.0625,27.875,20.3125,-28.125,162.4375,0
1776973675.752,10.8888,1.7621,1.3599,0.8881,-0.0253,0.3064,-81.9,7.95,38.55,11.1594,-1.391,1.4293,-0.4631,0.1287,1.0493,-69.0,5.85,22.95,-3.82,-3.27,-9.24,0.2422,-0.5509,0.144,21.375,31.0625,27.875,20.375,-28.5,162.3125,0
1776973675.757,10.8888,1.7621,1.3599,0.8881,-0.0253,0.3064,-83.25,7.95,40.05,11.1594,-1.391,1.4293,-0.4631,0.1287,1.0493,-69.0,5.85,22.95,-3.87,-3.41,-9.27,0.192,-0.6709,0.1745,21.375,31.0625,27.875,20.375,-28.5,162.3125,0
1776973675.762,11.0373,2.1859,1.1516,0.8527,-0.0384,0.2779,-83.25,7.95,40.05,11.3198,-1.336,1.2091,-0.396,0.1588,1.1309,-69.15,3.6,21.9,-3.87,-3.41,-9.27,0.1298,-0.8159,0.228,21.375,31.0625,27.875,20.4375,-29.0,162.25,0
1776973675.768,11.0373,2.1859,1.1516,0.8527,-0.0384,0.2779,-83.7,7.65,38.55,11.3198,-1.336,1.2091,-0.396,0.1588,1.1309,-69.15,3.6,21.9,-3.7,-3.4,-9.38,0.1298,-0.8159,0.228,21.375,31.0625,27.875,20.5625,-29.5625,162.1875,0
1776973675.777,11.1402,2.569,1.233,0.5566,-0.0144,0.2161,-83.1,8.55,38.4,11.3509,-0.723,0.759,-0.3741,0.1671,1.2084,-69.45,3.45,22.2,-4.02,-2.73,-9.63,0.0971,-1.0003,0.2891,21.375,31.0625,27.875,20.5625,-29.5625,162.1875,0
1776973675.787,10.9487,2.8994,1.2881,0.4269,-0.2166,0.1204,-83.1,8.55,38.4,11.3413,-0.3136,0.3328,-0.3421,0.1919,1.2665,-68.85,2.4,23.85,-3.64,-2.78,-9.8,0.0371,-1.2392,0.3698,21.375,31.0625,27.875,20.6875,-30.3125,162.1875,0
1776973675.792,10.9654,3.2465,1.6065,0.3254,-0.2206,0.041,-83.1,8.55,38.4,11.3581,-0.3017,0.5507,-0.3219,0.2158,1.3126,-69.6,2.4,22.35,-3.64,-2.78,-9.8,0.0371,-1.2392,0.3698,21.375,31.0625,27.875,20.6875,-30.3125,162.1875,0
1776973675.797,10.9654,3.2465,1.6065,0.3254,-0.2206,0.041,-82.95,7.65,37.5,11.3581,-0.3017,0.5507,-0.3219,0.2158,1.3126,-69.6,2.4,22.35,-4.03,-2.63,-9.4,0.0022,-1.4563,0.444,21.375,31.5,25.5625,20.8125,-31.125,162.1875,0
1776973675.802,11.2264,3.6966,1.6352,0.3872,-0.3142,-0.0448,-82.95,7.65,37.5,11.4634,0.0455,0.3328,-0.2403,0.2142,1.3965,-70.2,0.75,23.25,-4.03,-2.63,-9.4,0.0022,-1.4563,0.444,21.375,31.5,25.5625,20.8125,-31.125,162.1875,0
1776973675.807,11.2264,3.6966,1.6352,0.3872,-0.3142,-0.0448,-83.25,7.2,39.0,11.4634,0.0455,0.3328,-0.2403,0.2142,1.3965,-70.2,0.75,23.25,-3.81,-2.22,-9.6,0.0218,-1.6362,0.5345,21.375,31.5,25.5625,20.9375,-32.125,162.125,0
1776973675.816,10.7356,4.1994,1.3671,0.5769,-0.5017,-0.1274,-83.25,7.2,37.5,11.2504,0.5315,-0.0742,-0.1927,0.2731,1.5015,-69.15,0.9,24.15,-3.85,-2.75,-9.45,0.1036,-1.825,0.6294,21.375,31.5,25.5625,21.1875,-33.1875,162.125,0
1776973675.821,10.5896,4.5514,0.7949,0.7107,-0.5529,-0.2073,-83.25,7.2,37.5,12.2751,1.1588,-0.4645,-0.1895,0.2755,1.6593,-69.15,0.9,24.15,-3.85,-2.75,-9.45,0.1036,-1.825,0.6294,21.375,31.5,25.5625,21.4375,-34.375,162.0625,0
1776973675.828,10.5896,4.5514,0.7949,0.7107,-0.5529,-0.2073,-84.9,7.05,37.35,12.2751,1.1588,-0.4645,-0.1895,0.2755,1.6593,-69.15,0.9,24.15,-3.73,-3.1,-9.82,0.144,-2.042,0.7461,21.375,31.5,25.5625,21.8125,-35.75,162.0625,0
1776973675.838,10.8649,4.5897,-1.1612,0.8809,-0.8505,-0.2923,-84.9,7.05,37.35,12.1625,2.715,-1.8459,-0.2174,0.2886,1.8018,-68.25,-1.5,24.0,-3.81,-3.44,-9.6,0.1309,-2.2864,0.8792,21.375,31.5,25.5625,21.8125,-35.75,162.0625,0
1776973675.843,9.9599,3.474,-1.2929,1.384,-1.2993,-0.3973,-84.9,7.05,37.35,12.1625,2.715,-1.8459,-0.311,0.3187,1.914,-68.25,-1.5,24.0,-3.81,-3.44,-9.6,0.1309,-2.2864,0.8792,23.1875,31.0625,25.0625,22.1875,-37.25,162.0625,0
1776973675.848,9.9599,3.474,-1.2929,1.384,-1.2993,-0.3973,-85.35,7.8,35.55,11.9135,2.2601,-1.8196,-0.311,0.3187,1.914,-68.25,-1.5,24.0,-3.97,-3.95,-9.5,0.0971,-2.5438,1.0385,23.1875,31.0625,25.0625,22.1875,-37.25,162.0625,0
1776973675.853,9.5002,3.7781,0.4693,2.0243,-1.2716,-0.3653,-85.35,7.8,35.55,11.9135,2.2601,-1.8196,-0.4167,0.3246,1.9574,-68.1,-3.3,24.9,-3.97,-3.95,-9.5,0.0971,-2.5438,1.0385,23.1875,31.0625,25.0625,22.625,-38.9375,162.1875,0
1776973675.858,9.5002,3.7781,0.4693,2.0243,-1.2716,-0.3653,-86.25,7.65,34.35,11.3365,1.3551,-1.4485,-0.4167,0.3246,1.9574,-68.1,-3.3,24.9,-4.14,-4.91,-9.43,0.0055,-2.7893,1.2326,23.1875,31.0625,25.0625,22.625,-38.9375,162.1875,0
1776973675.864,10.2161,4.458,-0.0311,1.813,-1.315,-0.3509,-85.35,10.8,32.7,11.3365,1.3551,-1.4485,-0.2982,0.3898,1.9625,-68.1,-2.1,23.1,-4.07,-5.3,-9.37,-0.1549,-3.0707,1.4912,23.1875,31.0625,25.0625,23.25,-40.8125,162.5,0
1776973675.869,10.7643,4.3287,-1.0439,1.7176,-1.3952,-0.466,-85.35,10.8,32.7,11.4539,0.7398,-0.9673,-0.1434,0.4716,1.9814,-68.1,-2.1,23.1,-4.07,-5.3,-9.37,-0.1549,-3.0707,1.4912,23.1875,31.0625,25.0625,58.625,-42.875,163.0625,0
1776973675.878,10.5776,3.8307,-0.9888,1.5966,-1.5303,-0.595,-85.8,10.65,32.55,11.4467,0.3089,-0.1101,-0.0973,0.5457,1.9966,-67.2,-5.4,24.75,-4.61,-5.28,-9.37,-0.3272,-3.3925,1.7966,23.1875,31.0625,25.0625,58.625,-42.875,163.0625,0
1776973675.888,10.3573,3.1268,-0.1437,1.6385,-1.7387,-0.7088,-86.4,10.8,33.0,11.4395,-0.3041,0.565,-0.1071,0.571,1.9857,-68.1,-4.8,24.15,-5.33,-4.84,-9.48,-0.48,-3.7023,2.1315,23.1875,31.0625,25.0625,55.5,-45.1875,163.875,0
1776973675.892,10.3573,3.1268,-0.1437,1.6385,-1.7387,-0.7088,-86.4,10.8,33.0,11.4395,-0.3041,0.565,-0.1071,0.571,1.9857,-68.1,-6.75,24.6,-5.33,-4.84,-9.48,-0.48,-3.7023,2.1315,23.1875,31.0625,25.0625,55.5,-45.1875,163.875,0
1776973675.898,9.809,2.5139,0.7159,1.8357,-1.8447,-0.7818,-86.4,10.8,33.0,10.6997,-0.7853,1.8387,-0.0037,0.5257,1.967,-68.1,-6.75,24.6,-6.24,-4.08,-9.55,-0.5661,-4.0055,2.4162,27.1875,30.375,22.75,52.25,-47.6875,164.875,0
1776973675.902,9.809,2.5139,0.7159,1.8357,-1.8447,-0.7818,-85.95,12.75,28.8,10.6997,-0.7853,1.8387,-0.0037,0.5257,1.967,-65.55,-8.1,24.3,-6.24,-4.08,-9.55,-0.5661,-4.0055,2.4162,27.1875,30.375,22.75,52.25,-47.6875,164.875,0
1776973675.908,9.2368,1.6376,1.2689,1.8818,-1.7504,-0.8002,-85.95,12.75,28.8,9.7372,-1.4198,3.0023,0.0434,0.497,1.9518,-65.55,-8.1,24.3,-9.15,-3.69,-9.96,-0.6709,-4.2291,2.5929,27.1875,30.375,22.75,49.0,-50.3125,166.1875,0
1776973675.914,9.2368,1.6376,1.2689,1.8818,-1.7504,-0.8002,-87.3,13.65,29.25,9.7372,-1.4198,3.0023,0.0434,0.497,1.9518,-65.55,-8.1,24.3,-10.46,-2.69,-10.27,-0.7974,-4.3895,2.6071,27.1875,30.375,22.75,45.8125,-53.0,167.75,0
1776973675.919,9.6343,1.0032,1.6592,1.8679,-1.8189,-0.837,-87.3,13.65,29.25,9.0237,-2.3367,3.8906,0.1753,0.4692,1.9276,-65.55,-8.1,24.3,-10.46,-2.69,-10.27,-0.7974,-4.3895,2.6071,27.1875,30.375,22.75,42.9375,-55.6875,169.4375,0
1776973675.928,10.003,0.7446,1.8651,1.8642,-2.043,-0.8932,-88.05,12.15,29.25,8.5114,-3.2034,4.7405,0.538,0.445,1.8922,-64.35,-9.45,23.85,-10.62,-3.45,-10.02,-0.8018,-4.4102,2.5089,27.1875,30.375,22.75,40.1875,-58.3125,171.375,0
1776973675.938,10.0892,0.5148,2.1021,1.7714,-2.0883,-0.9619,-87.0,13.95,26.85,8.0589,-3.4261,5.3319,0.9014,0.502,1.8644,-63.9,-8.7,26.1,-13.15,-5.45,-10.6,-0.9588,-4.3208,2.3922,27.1875,30.375,22.75,40.1875,-58.3125,171.375,0
1776973675.943,10.0892,0.5148,2.1021,1.7714,-2.0883,-0.9619,-87.0,13.95,26.85,8.0589,-3.4261,5.3319,0.9014,0.502,1.8644,-63.45,-9.15,24.6,-13.15,-5.45,-10.6,-0.9588,-4.3208,2.3922,27.1875,30.375,22.75,37.4375,-60.6875,173.625,0
1776973675.948,10.3573,0.5052,2.2218,1.7064,-2.125,-1.0142,-87.0,13.95,26.85,8.1714,-3.9241,4.5945,1.2372,0.5076,1.8165,-63.45,-9.15,24.6,-12.33,-5.28,-10.12,-1.2774,-4.0459,2.2329,33.5,24.875,17.6875,37.4375,-60.6875,173.625,0
1776973675.953,10.3573,0.5052,2.2218,1.7064,-2.125,-1.0142,-88.05,14.4,25.8,8.1714,-3.9241,4.5945,1.2372,0.5076,1.8165,-63.15,-11.4,27.15,-12.33,-5.28,-10.12,-1.2774,-4.0459,2.2329,33.5,24.875,17.6875,34.625,-62.8125,176.375,0
1776973675.958,11.157,0.5267,2.6815,1.4631,-1.9724,-1.0677,-88.05,14.4,25.8,8.3582,-4.2737,4.2258,1.6462,0.4415,1.7147,-63.15,-11.4,27.15,-10.09,-5.23,-9.65,-1.6417,-3.6848,2.0584,33.5,24.875,17.6875,34.625,-62.8125,176.375,0
1776973675.963,11.157,0.5267,2.6815,1.4631,-1.9724,-1.0677,-88.35,16.95,24.75,8.497,-5.2194,4.391,1.6462,0.4415,1.7147,-62.55,-11.7,25.5,-10.09,-5.23,-9.65,-1.921,-3.459,1.9155,33.5,24.875,17.6875,31.75,-64.75,179.4375,0
1776973675.969,12.0787,-0.2322,3.1795,0.9928,-1.7749,-1.1106,-88.35,16.95,24.75,8.497,-5.2194,4.391,1.9295,0.5249,1.6089,-62.55,-11.7,25.5,-7.85,-4.75,-9.13,-1.921,-3.459,1.9155,33.5,24.875,17.6875,28.9375,-66.6875,-177.0,0
1776973675.978,12.7779,-0.3448,3.7948,0.8092,-1.756,-1.141,-88.5,18.75,24.15,8.9112,-5.7365,5.1571,2.4568,0.4631,1.5863,-62.25,-9.3,26.55,-4.85,-3.98,-8.32,-2.1457,-3.4732,1.7988,33.5,24.875,17.6875,28.9375,-66.6875,-177.0,0
1776973675.988,12.3301,-0.8452,4.3311,0.5902,-1.5764,-1.1359,-87.15,17.55,24.15,8.7077,-5.7557,6.1363,3.0124,0.4261,1.5087,-62.25,-9.3,26.55,-3.14,-3.41,-7.57,-2.3824,-3.5725,1.6984,33.5,24.875,17.6875,26.125,-68.5625,-173.0,0
1776973675.993,12.3301,-0.8452,4.3311,0.5902,-1.5764,-1.1359,-87.15,17.55,24.15,8.418,-5.3415,7.0509,2.8565,0.146,1.4506,-60.45,-11.1,27.9,-3.14,-3.41,-7.57,-2.3824,-3.5725,1.6984,33.5,24.875,17.6875,23.5,-70.1875,-168.9375,0
1776973675.998,11.4108,-1.5036,4.3096,0.4207,-1.4013,-1.1138,-87.15,17.55,24.15,8.418,-5.3415,7.0509,2.8565,0.146,1.4506,-60.45,-11.1,27.9,0.57,-1.63,-6.84,-2.5656,-3.1667,1.3101,39.0,19.0,12.5625,23.5,-70.1875,-168.9375,0
1776973676.003,11.4108,-1.5036,4.3096,0.4207,-1.4013,-1.1138,-87.15,17.55,24.15,7.5944,-5.6096,7.4747,2.3832,-0.319,1.3933,-60.45,-11.1,27.9,0.57,-1.63,-6.84,-2.5656,-3.1667,1.3101,39.0,19.0,12.5625,23.5,-70.1875,-168.9375,0
1776973676.008,11.0708,-1.2857,3.96,0.3139,-1.2644,-1.1061,-87.15,17.55,24.15,7.5944,-5.6096,7.4747,2.3832,-0.319,1.3933,-60.45,-11.1,27.9,-9.53,-8.36,-12.08,-2.4304,-1.9308,0.0753,39.0,19.0,12.5625,21.6875,-71.1875,-166.8125,0
1776973676.016,10.7428,-0.7853,4.1061,0.4506,-1.2577,-1.1109,-86.25,19.2,22.95,5.9592,-5.0087,7.5202,2.3281,-0.3416,1.1993,-61.65,-9.45,27.9,-3.49,-7.58,-12.1,-2.0355,-0.1222,-1.0537,39.0,19.0,12.5625,20.75,-71.4375,-167.3125,0
1776973676.02,10.7428,-0.7853,4.1061,0.4506,-1.2577,-1.1109,-84.45,21.15,20.4,6.4811,-3.2322,6.359,2.3281,-0.3416,1.1993,-61.65,-9.45,27.9,-3.49,-7.58,-12.1,-2.0355,-0.1222,-1.0537,39.0,19.0,12.5625,20.125,-71.25,-169.3125,0
1776973676.028,10.1155,-0.0599,4.276,0.5505,-1.1231,-1.0765,-84.45,21.15,20.4,6.4811,-3.2322,6.359,2.0384,-0.6238,0.9348,-61.5,-10.05,27.75,-1.59,-8.7,-8.94,-2.1413,0.7221,-1.838,39.0,19.0,12.5625,19.25,-70.875,-171.5,0
1776973676.038,10.2496,0.9122,3.7948,0.5417,-1.0323,-1.0483,-84.9,21.75,21.0,6.7301,-1.9249,5.2385,1.3979,-1.089,0.6129,-61.8,-8.55,26.25,0.87,-6.02,-5.48,-2.5525,0.9621,-2.0802,39.0,19.0,12.5625,19.25,-70.875,-171.5,0
1776973676.043,9.6702,1.7957,3.4453,0.5284,-1.0043,-0.9878,-85.05,22.95,18.3,5.8035,-2.0016,3.6344,1.052,-1.3915,0.3563,-61.8,-8.55,26.25,0.87,-6.02,-5.48,-2.5525,0.9621,-2.0802,39.0,19.0,12.5625,19.25,-70.875,-171.5,0
1776973676.048,9.6702,1.7957,3.4453,0.5284,-1.0043,-0.9878,-85.05,22.95,18.3,5.8035,-2.0016,3.6344,1.052,-1.3915,0.3563,-61.2,-9.15,27.15,-0.17,-3.86,-5.42,-3.0369,1.0276,-2.1217,40.375,13.875,8.6875,18.0,-70.5,-173.375,0
1776973676.053,8.746,2.6911,3.2633,0.547,-0.7941,-0.995,-85.05,22.95,18.3,5.3199,-3.1436,3.5338,1.4115,-1.5902,0.1905,-61.2,-9.15,27.15,-0.17,-3.86,-5.42,-3.0369,1.0276,-2.1217,40.375,13.875,8.6875,18.0,-70.5,-173.375,0
1776973676.058,8.746,2.6911,3.2633,0.547,-0.7941,-0.995,-85.05,22.95,18.3,5.3199,-3.1436,3.5338,1.4115,-1.5902,0.1905,-61.2,-9.15,27.15,-1.03,-2.69,-5.49,-3.1874,1.1508,-2.2417,40.375,13.875,8.6875,16.75,-69.9375,-175.25,0
1776973676.063,8.3438,3.7541,2.976,0.5836,-0.5324,-1.012,-82.2,23.4,19.35,4.5657,-3.1699,4.9943,1.9729,-1.7685,0.0405,-61.2,-9.15,27.15,-1.03,-2.69,-5.49,-3.0303,1.3799,-2.4249,40.375,13.875,8.6875,15.625,-69.3125,-177.3125,0
1776973676.069,8.3438,3.7541,2.976,0.5836,-0.5324,-1.012,-82.2,23.4,19.35,4.3239,-2.3391,4.6495,1.9729,-1.7685,0.0405,-63.75,-8.1,27.0,-1.58,-2.07,-5.4,-3.0303,1.3799,-2.4249,40.375,13.875,8.6875,14.8125,-68.4375,-179.5,0
1776973676.078,8.1451,4.6064,2.6887,0.6997,-0.2835,-1.0134,-82.95,24.45,19.05,4.0606,-2.1452,4.5226,1.9961,-2.0089,-0.1042,-63.75,-8.1,27.0,-2.39,-1.93,-5.2,-2.7576,1.6417,-2.5471,40.375,13.875,8.6875,14.1875,-67.3125,178.375,0
1776973676.088,7.9176,4.5993,2.3296,0.8159,0.0061,-1.0043,-84.0,23.7,18.6,3.8188,-2.5355,4.6232,1.825,-2.2543,-0.2334,-63.9,-6.75,26.1,-3.21,-1.51,-5.23,-2.4827,1.9166,-2.5362,40.375,13.875,8.6875,14.1875,-67.3125,178.375,0
1776973676.093,8.3222,3.9576,1.8866,0.9398,0.2577,-1.0067,-82.35,24.0,17.4,3.8188,-2.5355,4.6232,1.9023,-2.2785,-0.3933,-63.9,-6.75,26.1,-3.21,-1.51,-5.23,-2.4827,1.9166,-2.5362,40.375,13.875,8.6875,13.6875,-66.0625,176.5625,0
1776973676.098,8.3222,3.9576,1.8866,0.9398,0.2577,-1.0067,-82.35,24.0,17.4,4.7453,-3.0789,5.3893,2.3116,-2.3198,-0.5199,-65.25,-4.95,25.5,-3.53,-1.57,-5.32,-2.1937,2.2198,-2.4576,39.0,14.5625,12.0,13.6875,-66.0625,176.5625,0
1776973676.103,8.169,3.1627,1.6065,1.218,0.3315,-0.9574,-82.35,24.0,17.4,4.7453,-3.0789,5.3893,2.3116,-2.3198,-0.5199,-65.25,-4.95,25.5,-3.53,-1.57,-5.32,-2.1937,2.2198,-2.4576,39.0,14.5625,12.0,13.4375,-64.5625,175.0,0
1776973676.108,8.169,3.1627,1.6065,1.218,0.3315,-0.9574,-82.35,24.0,17.4,5.4827,-3.0239,5.928,2.525,-2.428,-0.6019,-66.0,-4.65,24.0,-3.57,-2.84,-5.41,-1.9079,2.5602,-2.3366,39.0,14.5625,12.0,13.4375,-64.5625,175.0,0
1776973676.115,8.2768,2.6983,1.3408,1.5628,0.4429,-0.8665,-82.8,24.3,17.7,5.4827,-3.0239,5.928,2.525,-2.428,-0.6019,-65.55,-4.95,24.0,-3.64,-3.59,-5.4,-1.7224,2.8798,-2.2264,39.0,14.5625,12.0,13.25,-62.8125,173.8125,0
1776973676.12,8.2265,2.1596,0.9242,1.7525,0.3195,-0.7397,-84.45,25.65,16.5,6.0813,-3.2681,5.6503,2.432,-2.5908,-0.6723,-65.55,-4.95,24.0,-3.64,-3.59,-5.4,-1.7224,2.8798,-2.2264,39.0,14.5625,12.0,13.125,-60.9375,172.875,0
1776973676.128,8.2265,2.1596,0.9242,1.7525,0.3195,-0.7397,-83.7,25.65,16.5,6.5697,-3.9863,5.3486,2.2862,-2.7989,-0.7634,-66.3,-3.0,23.7,-3.69,-4.3,-5.28,-1.6461,3.1427,-2.1598,39.0,14.5625,12.0,12.9375,-59.0,172.1875,0
1776973676.138,8.0325,2.3224,1.9417,2.2663,0.4751,-0.5891,-84.0,27.15,15.75,6.6966,-4.6471,5.351,2.0526,-2.9287,-0.87,-69.0,-3.45,22.95,-4.08,-5.08,-5.11,-1.6657,3.2965,-2.1315,39.0,14.5625,12.0,12.9375,-59.0,172.1875,0
1776973676.143,7.9583,2.7126,2.8323,2.8501,0.6312,-0.4141,-84.0,27.15,15.75,6.6966,-4.6471,5.351,2.0526,-2.9287,-0.87,-69.0,-3.45,22.95,-4.08,-5.08,-5.11,-1.6657,3.2965,-2.1315,39.0,14.5625,12.0,12.75,-57.0,171.625,0
1776973676.148,7.9583,2.7126,2.8323,3.2178,0.6757,-0.2864,-83.55,27.75,16.65,7.1635,-4.719,5.3319,1.7285,-3.0121,-0.9769,-69.0,-3.45,22.95,-4.71,-5.17,-5.1,-1.6897,3.3445,-2.1446,34.875,14.25,16.0625,12.75,-57.0,171.625,0
1776973676.153,8.1618,2.4852,2.8802,3.2178,0.6757,-0.2864,-83.55,27.75,16.65,7.1635,-4.719,5.3319,1.7285,-3.0121,-0.9769,-69.0,-3.45,22.95,-4.71,-5.17,-5.1,-1.6897,3.3445,-2.1446,34.875,14.25,16.0625,12.75,-57.0,171.625,0
1776973676.158,8.2648,1.8507,2.4972,3.3918,0.708,-0.2169,-83.55,27.75,16.65,7.3933,-4.5729,5.1547,1.5596,-3.1693,-1.0573,-68.7,-2.25,20.7,-5.24,-5.45,-5.1,-1.6657,3.3227,-2.1958,34.875,14.25,16.0625,12.625,-55.0,171.1875,0
1776973676.163,8.2648,1.8507,2.4972,3.3918,0.708,-0.2169,-83.55,27.75,16.65,7.3933,-4.5729,5.1547,1.5596,-3.1693,-1.0573,-68.7,-2.25,20.7,-5.24,-5.45,-5.1,-1.5773,3.2387,-2.2995,34.875,14.25,16.0625,12.625,-53.0,170.6875,0
1776973676.169,8.5353,1.0008,2.1787,3.4728,0.7272,-0.1719,-83.1,26.25,14.85,7.3239,-4.2713,5.1404,1.6369,-3.2626,-1.1106,-68.7,-2.25,20.7,-6.27,-5.6,-5.46,-1.5773,3.2387,-2.2995,34.875,14.25,16.0625,12.8125,-51.0625,170.125,0
1776973676.178,8.8226,0.2418,2.0063,3.4725,0.7797,-0.1564,-84.6,27.75,15.3,7.6495,-3.4668,4.798,1.7824,-3.2682,-1.166,-70.2,0.75,18.45,-7.85,-6.51,-5.48,-1.4432,3.1623,-2.4904,34.875,14.25,16.0625,12.8125,-51.0625,170.125,0
1776973676.188,9.2344,-0.4836,1.7549,3.4081,0.8239,-0.1343,-84.9,30.75,14.25,7.9368,-2.5474,4.8866,1.9939,-3.2532,-1.2257,-71.7,0.75,17.7,-7.97,-7.21,-4.99,-1.3483,3.0849,-2.7685,34.875,14.25,16.0625,13.3125,-49.125,169.4375,0
1776973676.193,9.2344,-0.4836,1.7549,3.4081,0.8239,-0.1343,-84.9,30.75,14.25,7.9368,-2.5474,4.8866,1.9939,-3.2532,-1.2257,-71.7,0.75,17.7,-7.97,-7.21,-4.99,-1.3483,3.0849,-2.7685,34.875,14.25,16.0625,13.3125,-49.125,169.4375,0
1776973676.198,9.2129,-1.154,1.4796,3.314,0.8511,-0.1007,-84.9,28.05,13.8,8.2839,-1.9225,4.8578,2.2513,-3.2594,-1.2428,-73.2,1.95,15.9,-8.05,-7.49,-4.54,-1.3679,2.9169,-3.0805,31.5625,14.5625,24.0,14.0,-47.1875,168.6875,0
1776973676.203,9.2129,-1.154,1.4796,3.314,0.8511,-0.1007,-84.9,28.05,13.8,8.6072,-1.5754,4.5514,2.2513,-3.2594,-1.2428,-73.2,1.95,15.9,-8.05,-7.49,-4.54,-1.3679,2.9169,-3.0805,31.5625,14.5625,24.0,14.0,-47.1875,168.6875,0
1776973676.208,9.3494,-1.312,1.0582,3.1672,0.8964,-0.0773,-84.9,28.05,13.8,8.6072,-1.5754,4.5514,2.6017,-3.2282,-1.2364,-71.55,4.05,14.55,-8.93,-7.2,-4.7,-1.4835,2.5765,-3.3652,31.5625,14.5625,24.0,14.625,-45.4375,167.875,0
1776973676.214,9.3494,-1.312,1.0582,3.1672,0.8964,-0.0773,-84.9,28.05,13.8,8.6981,-1.2881,4.6256,3.0678,-3.1192,-1.1767,-71.55,4.05,14.55,-9.79,-7.08,-5.02,-1.597,2.1664,-3.6063,31.5625,14.5625,24.0,15.1875,-43.8125,167.0625,0
1776973676.219,9.4667,-1.2402,0.5507,2.97,0.8311,-0.0512,-85.05,28.2,12.6,8.6981,-1.2881,4.6256,3.0678,-3.1192,-1.1767,-71.55,4.05,14.55,-9.79,-7.08,-5.02,-1.597,2.1664,-3.6063,31.5625,14.5625,24.0,346.6875,-42.3125,166.25,0
1776973676.228,9.4691,-0.9529,0.1437,2.7683,0.6627,-0.0474,-85.35,28.5,10.95,9.2177,-1.4174,4.9153,3.5122,-2.9767,-1.0869,-74.55,4.5,12.3,-10.46,-7.21,-5.34,-1.6373,1.8239,-3.8419,31.5625,14.5625,24.0,346.6875,-42.3125,166.25,0
1776973676.238,9.5289,-0.6991,-0.2849,2.5482,0.6752,-0.0429,-83.25,31.95,11.1,9.3733,-1.5347,5.272,3.8856,-2.8765,-0.9667,-74.55,4.5,12.3,-11.57,-8.01,-5.91,-1.6635,1.5926,-4.0688,31.5625,14.5625,24.0,344.1875,-40.9375,165.4375,0
1776973676.243,9.5289,-0.6991,-0.2849,2.5482,0.6752,-0.0429,-83.25,31.95,11.1,9.6486,-1.822,5.375,4.1302,-2.7984,-0.858,-74.55,4.5,12.3,-11.57,-8.01,-5.91,-1.6635,1.5926,-4.0688,31.5625,14.5625,24.0,341.5,-39.5625,164.625,0
1776973676.248,9.5074,-0.3496,-0.9385,2.4027,0.6265,-0.0418,-84.9,30.0,9.15,9.6486,-1.822,5.375,4.1302,-2.7984,-0.858,-73.95,6.15,9.9,-11.86,-8.35,-6.06,-1.7366,1.4475,-4.2739,29.6875,14.25,30.1875,341.5,-39.5625,164.625,0
1776973676.253,9.5074,-0.3496,-0.9385,2.4027,0.6265,-0.0418,-84.9,30.0,9.15,9.7947,-2.1691,5.4109,4.2807,-2.6987,-0.7613,-73.95,6.15,9.9,-11.86,-8.35,-6.06,-1.7366,1.4475,-4.2739,29.6875,14.25,30.1875,338.75,-38.125,163.9375,0
1776973676.258,9.5672,0.1676,-1.4557,2.3723,0.6235,-0.0298,-83.7,29.7,9.75,9.7947,-2.1691,5.4109,4.2807,-2.6987,-0.7613,-73.8,6.0,8.7,-12.01,-8.48,-6.18,-1.8795,1.3406,-4.456,29.6875,14.25,30.1875,338.75,-38.125,163.9375,0
1776973676.263,9.5672,0.1676,-1.4557,2.3723,0.6235,-0.0298,-83.7,29.7,9.75,10.0628,-2.6719,5.3223,4.3774,-2.6001,-0.6931,-73.8,6.0,8.7,-12.01,-8.48,-6.18,-2.0573,1.2566,-4.6273,29.6875,14.25,30.1875,335.875,-36.75,163.3125,0
1776973676.269,9.7013,0.8595,-1.8244,2.396,0.6291,-0.0261,-83.7,29.7,9.75,10.0628,-2.6719,5.3223,4.3774,-2.6001,-0.6931,-75.6,6.75,7.95,-12.1,-8.56,-6.24,-2.0573,1.2566,-4.6273,29.6875,14.25,30.1875,332.9375,-35.375,162.875,0
1776973676.278,9.7492,1.5562,-1.9058,2.4347,0.6491,-0.0048,-84.9,28.5,8.55,10.3525,-3.0646,5.3774,4.4502,-2.5085,-0.6382,-74.4,8.1,6.9,-11.72,-8.42,-6.02,-2.2155,1.1999,-4.7702,29.6875,14.25,30.1875,332.9375,-35.375,162.875,0
1776973676.289,9.7492,2.1596,-1.9178,2.428,0.6768,0.0248,-85.95,27.0,7.8,10.2879,-3.0382,5.2241,4.4092,-2.4664,-0.5782,-74.85,7.95,4.95,-11.55,-8.08,-5.97,-2.3267,1.1585,-4.8891,29.6875,14.25,30.1875,329.875,-33.9375,162.5,0
1776973676.293,9.7492,2.1596,-1.9178,2.3726,0.6912,0.0727,-85.95,27.0,7.8,10.2472,-3.0837,4.7669,4.2477,-2.4187,-0.5481,-74.85,7.95,4.95,-11.55,-8.08,-5.97,-2.3267,1.1585,-4.8891,29.6875,14.25,30.1875,326.8125,-32.5,162.1875,0
1776973676.298,9.6822,2.4708,-1.9441,2.3726,0.6912,0.0727,-85.95,29.55,8.1,10.2472,-3.0837,4.7669,4.2477,-2.4187,-0.5481,-76.65,9.0,2.85,-11.3,-7.71,-5.86,-2.3453,1.0952,-4.9731,24.6875,15.5625,35.0625,326.8125,-32.5,162.1875,0
1776973676.303,9.7109,2.7294,-1.9345,2.3574,0.6757,0.1271,-85.95,29.55,8.1,10.0963,-3.2825,4.4388,4.038,-2.3665,-0.546,-76.65,9.0,2.85,-11.3,-7.71,-5.86,-2.3453,1.0952,-4.9731,24.6875,15.5625,35.0625,326.8125,-32.5,162.1875,0
1776973676.308,9.7109,2.7294,-1.9345,2.3574,0.6757,0.1271,-84.9,30.0,6.75,10.0963,-3.2825,4.4388,4.038,-2.3665,-0.546,-76.65,9.0,2.85,-10.72,-7.39,-5.53,-2.2722,1.0319,-5.02,24.6875,15.5625,35.0625,323.75,-31.125,161.9375,0
1776973676.316,9.5337,2.8635,-1.6735,2.4483,0.6214,0.1935,-84.9,30.0,6.75,10.058,-3.371,4.1396,3.8221,-2.2828,-0.55,-76.95,10.95,0.0,-10.35,-7.19,-5.39,-2.1533,0.9523,-5.0178,24.6875,15.5625,35.0625,320.75,-29.75,161.625,0
1776973676.321,9.5337,2.8635,-1.6735,2.4483,0.6214,0.1935,-84.9,30.0,6.75,9.8019,-3.2657,3.8786,3.5999,-2.2055,-0.5662,-76.95,10.95,0.0,-10.35,-7.19,-5.39,-2.1533,0.9523,-5.0178,24.6875,15.5625,35.0625,317.75,-28.4375,161.375,0
1776973676.329,9.6367,2.6839,-1.5395,2.5548,0.6526,0.2289,-84.45,29.7,7.2,9.6079,-3.0742,3.5291,3.3977,-2.0941,-0.5891,-75.9,10.5,-1.35,-10.07,-6.86,-5.33,-1.9929,0.8639,-4.9491,24.6875,15.5625,35.0625,314.875,-27.1875,161.125,0
1776973676.339,9.6893,2.4924,-1.0989,2.7677,0.6411,0.2462,-85.05,28.65,4.35,9.426,-2.794,3.1699,3.2181,-1.9889,-0.6318,-77.7,9.75,-1.05,-9.81,-6.58,-5.25,-1.7835,0.7701,-4.84,24.6875,15.5625,35.0625,314.875,-27.1875,161.125,0
1776973676.344,9.6031,2.229,-0.6632,3.0158,0.6054,0.2603,-85.05,28.65,4.35,9.426,-2.794,3.1699,3.2181,-1.9889,-0.6318,-77.7,9.75,-1.05,-9.81,-6.58,-5.25,-1.7835,0.7701,-4.84,24.6875,15.5625,35.0625,312.125,-25.9375,160.75,0
1776973676.349,9.6031,2.229,-0.6632,3.0158,0.6054,0.2603,-84.6,29.25,5.7,9.4475,-2.5211,3.0837,3.047,-1.865,-0.6662,-77.4,11.7,-3.3,-9.57,-6.27,-5.35,-1.5228,0.6763,-4.7146,21.0625,15.0625,40.25,312.125,-25.9375,160.75,0
1776973676.354,9.4978,2.0183,-0.2969,3.2498,0.571,0.2902,-84.6,29.25,5.7,9.4475,-2.5211,3.0837,3.047,-1.865,-0.6662,-77.4,11.7,-3.3,-9.57,-6.27,-5.35,-1.5228,0.6763,-4.7146,21.0625,15.0625,40.25,312.125,-25.9375,160.75,0
1776973676.359,9.4978,2.0183,-0.2969,3.2498,0.571,0.2902,-85.05,28.95,5.85,9.5289,-2.3391,2.8156,2.8631,-1.748,-0.7029,-75.6,11.1,-4.95,-9.31,-6.29,-5.34,-1.2457,0.6021,-4.576,21.0625,15.0625,40.25,309.5,-24.8125,160.375,0
1776973676.365,9.6055,1.8124,-0.237,3.3484,0.5713,0.3152,-84.75,28.2,4.8,9.5289,-2.3391,2.8156,2.8631,-1.748,-0.7029,-75.6,11.1,-4.95,-9.02,-6.32,-5.32,-0.9992,0.5269,-4.42,21.0625,15.0625,40.25,306.9375,-23.6875,159.9375,0
1776973676.37,9.6055,1.8124,-0.237,3.3484,0.5713,0.3152,-84.75,28.2,4.8,9.7348,-2.2122,2.8036,2.6782,-1.6108,-0.7072,-76.05,12.3,-5.25,-9.02,-6.32,-5.32,-0.9992,0.5269,-4.42,21.0625,15.0625,40.25,304.5625,-22.625,159.5,0
1776973676.379,9.6654,1.64,-0.316,3.3481,0.4549,0.3144,-84.75,28.2,4.8,9.7827,-1.9513,2.7629,2.5271,-1.4781,-0.7128,-76.05,12.3,-5.25,-8.93,-6.17,-5.66,-0.8018,0.4451,-4.2368,21.0625,15.0625,40.25,302.3125,-21.625,159.0,0
1776973676.389,9.7516,1.3958,-0.3352,3.2631,0.3997,0.2864,-86.55,27.15,2.55,9.8162,-1.5131,2.8395,2.3875,-1.3696,-0.7072,-75.9,12.45,-8.1,-8.88,-6.1,-5.75,-0.6229,0.3687,-4.0546,21.0625,15.0625,40.25,302.3125,-21.625,159.0,0
1776973676.394,9.9048,1.2378,-0.1772,3.1605,0.4295,0.2547,-86.55,27.15,2.55,9.8162,-1.5131,2.8395,2.3875,-1.3696,-0.7072,-75.9,12.45,-8.1,-8.88,-6.1,-5.75,-0.6229,0.3687,-4.0546,21.0625,15.0625,40.25,300.125,-20.6875,158.5,0
1776973676.399,9.9048,1.2378,-0.1772,3.1605,0.4295,0.2547,-86.25,26.4,2.55,9.7947,-1.1253,2.5714,2.2276,-1.2899,-0.6869,-75.9,12.45,-8.1,-8.68,-6.09,-5.72,-0.4581,0.312,-3.8779,18.25,17.375,46.6875,300.125,-20.6875,158.5,0
1776973676.404,10.2017,1.0846,-0.1365,3.0281,0.4245,0.1783,-84.75,27.15,1.2,9.7947,-1.1253,2.5714,2.2276,-1.2899,-0.6869,-75.9,12.45,-8.1,-8.68,-6.09,-5.72,-0.4581,0.312,-3.8779,18.25,17.375,46.6875,298.0625,-19.8125,158.0,0
1776973676.409,10.2017,1.0846,-0.1365,3.0281,0.4245,0.1783,-84.75,27.15,1.2,9.6845,-0.7326,2.5426,2.12,-1.1943,-0.6446,-75.3,13.05,-9.0,-8.3,-5.94,-5.59,-0.3502,0.2607,-3.6979,18.25,17.375,46.6875,298.0625,-19.8125,158.0,0
1776973676.417,9.991,0.9984,-0.3208,2.8658,0.3659,0.0911,-85.05,24.15,0.45,9.6822,-0.5483,2.4421,2.0121,-1.073,-0.5982,-76.65,13.2,-9.9,-8.38,-5.96,-5.53,-0.2858,0.1887,-3.5103,18.25,17.375,46.6875,296.125,-19.0,157.5625,0
1776973676.422,9.9359,0.9481,-0.7207,2.6049,0.4418,-0.0109,-85.05,24.15,0.45,9.6822,-0.5483,2.4421,2.0121,-1.073,-0.5982,-76.65,13.2,-9.9,-8.38,-5.96,-5.53,-0.2858,0.1887,-3.5103,18.25,17.375,46.6875,294.25,-18.1875,157.125,0
1776973676.429,9.8186,1.1444,-1.0606,2.4189,0.4133,-0.0877,-85.05,24.15,0.45,9.4379,-0.2203,2.7653,2.0419,-0.9571,-0.5327,-75.9,13.2,-12.15,-8.3,-6.12,-5.3,-0.2563,0.1102,-3.3358,18.25,17.375,46.6875,292.4375,-17.5,156.75,0
1776973676.439,9.5505,1.6735,-1.3791,2.3188,0.356,-0.1743,-86.55,24.9,-1.5,9.3182,0.1006,2.5522,2.1288,-0.8476,-0.4498,-78.0,12.3,-11.55,-8.23,-6.13,-5.1,-0.2323,0.0065,-3.1907,18.25,17.375,46.6875,292.4375,-17.5,156.75,0
1776973676.444,9.5505,1.6735,-1.3791,2.3188,0.356,-0.1743,-86.4,25.05,-1.65,9.347,0.3112,2.2529,2.1368,-0.752,-0.3528,-78.0,12.3,-11.55,-8.23,-6.13,-5.1,-0.2323,0.0065,-3.1907,18.25,17.375,46.6875,292.4375,-17.5,156.75,0
1776973676.449,9.2177,2.1596,-1.3767,2.2071,0.2689,-0.2771,-86.4,25.05,-1.65,9.347,0.3112,2.2529,2.1368,-0.752,-0.3528,-75.6,13.05,-13.8,-8.02,-6.78,-4.3,-0.1876,-0.1156,-3.1318,12.6875,20.25,52.1875,290.6875,-16.875,156.3125,0
1776973676.454,9.2177,2.1596,-1.3767,2.2071,0.2689,-0.2771,-85.95,24.75,-1.65,9.0453,0.17,2.6097,2.3113,-0.6305,-0.2838,-75.6,13.05,-13.8,-8.02,-6.78,-4.3,-0.1876,-0.1156,-3.1318,12.6875,20.25,52.1875,290.6875,-16.875,156.3125,0
1776973676.459,8.9687,2.1117,-1.5562,2.0283,0.3155,-0.3405,-85.95,24.75,-1.65,9.0453,0.17,2.6097,2.3113,-0.6305,-0.2838,-77.25,13.5,-13.5,-7.49,-7.28,-3.53,-0.1473,-0.2814,-3.1645,12.6875,20.25,52.1875,288.875,-16.3125,155.875,0
1776973676.464,8.9687,2.1117,-1.5562,2.0283,0.3155,-0.3405,-86.55,24.9,-1.95,9.019,0.1341,2.9257,2.4858,-0.5084,-0.2166,-77.25,13.5,-13.5,-7.49,-7.28,-3.53,-0.1353,-0.5432,-3.2496,12.6875,20.25,52.1875,287.0,-15.875,155.5,0
1776973676.47,8.6311,2.5953,-1.4796,1.9225,0.4064,-0.3477,-86.55,24.9,-1.95,9.019,0.1341,2.9257,2.4858,-0.5084,-0.2166,-77.25,13.5,-13.5,-7.05,-7.4,-2.96,-0.1353,-0.5432,-3.2496,12.6875,20.25,52.1875,285.0,-15.5,154.9375,0
1776973676.479,8.9783,2.8587,-1.2354,1.9169,0.5375,-0.3357,-85.65,26.25,-2.85,8.8035,0.4525,3.0742,2.6113,-0.3714,-0.1506,-76.2,11.7,-13.65,-7.21,-7.74,-2.45,-0.0731,-0.8967,-3.4154,12.6875,20.25,52.1875,285.0,-15.5,154.9375,0
1776973676.489,8.8322,2.8683,-0.735,1.9401,0.6683,-0.381,-85.65,26.25,-2.85,8.4372,0.8188,3.2561,2.7944,-0.2531,-0.1007,-76.05,11.4,-16.05,-7.56,-7.85,-2.48,0.0415,-1.2643,-3.6379,12.6875,20.25,52.1875,282.8125,-15.3125,154.375,0
1776973676.494,8.8322,2.8683,-0.735,1.9401,0.6683,-0.381,-85.8,23.7,-3.3,8.2025,0.8068,3.5674,3.0161,-0.1394,-0.0914,-76.05,11.4,-16.05,-7.56,-7.85,-2.48,0.0415,-1.2643,-3.6379,12.6875,20.25,52.1875,282.8125,-15.3125,154.375,0
1776973676.499,8.4036,3.0454,-0.2179,1.8519,0.8103,-0.4485,-85.8,23.7,-3.3,8.2025,0.8068,3.5674,3.0161,-0.1394,-0.0914,-75.45,12.9,-15.15,-7.94,-8.3,-2.66,0.1702,-1.5817,-3.8506,6.75,23.0,56.5,280.5,-15.125,153.625,0
1776973676.504,8.4036,3.0454,-0.2179,1.8519,0.8103,-0.4485,-85.95,24.3,-3.9,7.841,0.3352,3.972,3.2524,0.0088,-0.0885,-75.45,12.9,-15.15,-7.94,-8.3,-2.66,0.1702,-1.5817,-3.8506,6.75,23.0,56.5,280.5,-15.125,153.625,0
1776973676.509,7.8721,2.9808,0.2179,1.748,0.9883,-0.4954,-85.95,24.3,-3.9,7.841,0.3352,3.972,3.2524,0.0088,-0.0885,-76.5,10.65,-15.6,-8.22,-8.57,-2.8,0.2542,-1.7802,-4.0164,6.75,23.0,56.5,278.0625,-15.0,152.8125,0
1776973676.517,7.8051,2.545,1.0918,1.7475,1.0816,-0.5132,-86.4,23.25,-3.45,8.0206,-0.5602,4.1779,3.3628,0.1575,-0.0935,-74.85,11.85,-16.35,-7.86,-8.13,-2.78,0.2891,-1.8915,-4.1201,6.75,23.0,56.5,275.5625,-14.875,152.0,0
1776973676.522,7.8051,2.545,1.0918,1.7475,1.0816,-0.5132,-87.6,25.2,-3.6,8.4635,-0.6895,5.0829,3.3124,0.3136,-0.1564,-74.85,11.85,-16.35,-7.86,-8.13,-2.78,0.2891,-1.8915,-4.1201,6.75,23.0,56.5,273.0,-14.75,151.125,0
1776973676.53,7.9224,2.4229,2.1428,1.8477,1.2228,-0.5023,-87.6,25.2,-3.6,8.9495,-2.2075,3.5937,3.3124,0.3136,-0.1564,-76.05,11.4,-16.35,-6.72,-10.03,-4.22,0.3382,-1.9646,-4.1495,6.75,23.0,56.5,270.5625,-14.875,150.375,0
1776973676.539,7.7644,2.7533,2.2577,1.9478,1.3752,-0.5055,-87.6,25.2,-3.6,7.1754,-4.3479,5.9113,2.9151,0.3485,-0.2033,-76.05,11.4,-16.35,-9.95,-6.84,0.71,0.1778,-2.3802,-3.8288,6.75,23.0,56.5,270.5625,-14.875,150.375,0
1776973676.544,7.7644,2.7533,2.2577,1.9478,1.3752,-0.5055,-88.35,24.45,-3.3,7.1754,-4.3479,5.9113,3.0228,0.5961,-0.1039,-76.05,11.4,-16.35,-9.95,-6.84,0.71,0.1778,-2.3802,-3.8288,3.375,24.75,59.0625,268.3125,-15.375,149.875,0
1776973676.549,7.8865,2.5738,2.32,1.9825,1.3638,-0.4823,-88.35,24.45,-3.3,7.5872,-5.6982,5.9352,3.0228,0.5961,-0.1039,-76.65,11.25,-15.45,-13.63,-6.58,-1.89,-0.192,-2.9212,-3.2147,3.375,24.75,59.0625,268.3125,-15.375,149.875,0
1776973676.554,7.8865,2.5738,2.32,1.9825,1.3638,-0.4823,-87.15,22.5,-1.05,7.5872,-5.6982,5.9352,2.7635,0.7615,0.025,-76.65,11.25,-15.45,-13.63,-6.58,-1.89,-0.192,-2.9212,-3.2147,3.375,24.75,59.0625,266.25,-16.125,149.5,0
1776973676.559,8.1499,1.0606,3.2513,2.0222,1.4099,-0.3938,-87.15,22.5,-1.05,7.6255,-6.0262,6.189,2.4317,0.9145,0.1434,-76.65,11.25,-15.45,-14.41,-6.39,-3.23,-0.504,-3.2234,-2.8427,3.375,24.75,59.0625,266.25,-16.125,149.5,0
1776973676.565,9.0764,-0.7781,2.1284,2.0821,1.1834,-0.3056,-88.95,23.25,-2.4,7.6255,-6.0262,6.189,2.4317,0.9145,0.1434,-76.65,11.25,-15.45,-13.66,-5.92,-4.41,-1.0537,-3.243,-2.4936,3.375,24.75,59.0625,264.3125,-17.0,149.4375,0
1776973676.57,9.0764,-0.7781,2.1284,2.0821,1.1834,-0.3056,-88.95,23.25,-2.4,8.2073,-5.7437,6.62,2.1386,0.9489,0.2523,-78.15,9.3,-16.95,-13.66,-5.92,-4.41,-1.0537,-3.243,-2.4936,3.375,24.75,59.0625,262.4375,-17.875,149.8125,0
1776973676.579,9.6462,-2.4828,0.6752,2.1157,0.9174,-0.3011,-90.0,23.25,-2.1,8.5641,-4.6232,5.2505,1.7685,0.955,0.2292,-76.95,7.35,-15.45,-14.24,-7.74,-9.35,-1.753,-3.0849,-2.2253,3.375,24.75,59.0625,262.4375,-17.875,149.8125,0
1776973676.589,11.0325,-3.9241,1.1756,2.0518,0.8647,-0.2278,-90.0,23.25,-2.1,9.6175,-2.2769,2.0231,1.3059,0.7472,-0.0282,-79.05,9.45,-14.85,-9.29,3.46,-13.77,-2.6987,-2.6845,-1.5959,3.375,24.75,59.0625,260.9375,-18.6875,150.8125,0
1776973676.594,12.8473,-3.8882,1.1708,2.0883,0.7669,-0.1045,-90.0,23.25,-2.1,9.6175,-2.2769,2.0231,1.3059,0.7472,-0.0282,-79.05,9.45,-14.85,-9.29,3.46,-13.77,-2.6987,-2.6845,-1.5959,3.375,24.75,59.0625,260.9375,-18.6875,150.8125,0
1776973676.599,12.8473,-3.8882,1.1708,2.0883,0.7669,-0.1045,-90.0,23.25,-2.1,14.1665,-6.8618,-8.4922,0.7898,0.0282,-0.2158,-79.05,7.95,-15.3,-1.58,4.55,-13.81,-3.1481,-1.4083,-0.9163,4.6875,25.1875,59.25,259.9375,-19.125,152.25,0
1776973676.604,14.4514,-3.0526,-0.3591,2.0049,0.5971,0.04,-91.95,20.7,-2.55,14.1665,-6.8618,-8.4922,0.7898,0.0282,-0.2158,-79.05,7.95,-15.3,-1.58,4.55,-13.81,-3.1481,-1.4083,-0.9163,4.6875,25.1875,59.25,259.5,-19.1875,153.5625,0
1776973676.609,14.4514,-3.0526,-0.3591,2.0049,0.5971,0.04,-91.95,20.7,-2.55,16.101,-10.5584,-6.6295,1.2662,-0.077,-0.1023,-79.05,7.95,-15.3,-3.66,20.08,-19.2,-2.4587,-0.2007,-0.2891,4.6875,25.1875,59.25,259.5,-19.1875,153.5625,0
1776973676.619,14.8512,-2.5857,-5.5617,2.1043,0.4053,0.1873,-91.95,21.9,-3.6,13.7044,-9.1051,-1.1492,0.9875,0.0629,-0.1092,-78.15,7.35,-14.4,-4.49,2.2,-12.66,-1.0428,0.0764,0.2269,4.6875,25.1875,59.25,259.5,-19.1875,154.1875,0
1776973676.628,14.1138,-1.6544,-7.4101,2.4738,0.6696,0.2158,-92.7,22.95,-4.35,11.1139,-5.9735,-0.7685,0.3515,0.1529,-0.2785,-78.15,7.35,-14.4,-3.83,-10.49,-6.28,-0.3272,0.0153,0.3894,4.6875,25.1875,59.25,259.6875,-19.25,154.4375,0
1776973676.633,13.6829,-0.6225,-5.3151,2.4536,1.0762,0.1135,-91.5,22.8,-5.25,11.1139,-5.9735,-0.7685,0.3515,0.1529,-0.2785,-78.15,7.35,-14.4,-3.83,-10.49,-6.28,-0.3272,0.0153,0.3894,4.6875,25.1875,59.25,259.8125,-19.375,154.6875,0
1776973676.64,13.6829,-0.6225,-5.3151,2.4536,1.0762,0.1135,-91.5,22.8,-5.25,8.9376,-3.5003,-1.7502,0.4157,0.1034,-0.4914,-77.55,7.95,-13.5,-3.36,-9.82,-6.48,-0.3229,-0.0774,0.2978,4.6875,25.1875,59.25,259.8125,-19.375,154.6875,0
1776973676.645,12.1242,-0.7973,-2.2218,2.2561,1.1317,0.0554,-91.5,22.8,-5.25,8.5473,-2.6025,-1.9776,0.4157,0.1034,-0.4914,-77.55,7.95,-13.5,-3.67,2.35,-11.8,-0.6076,-0.1222,0.3163,9.5625,20.25,61.5625,259.9375,-19.5,155.0625,0
1776973676.65,12.1242,-0.7973,-2.2218,2.2561,1.1317,0.0554,-90.6,21.45,-5.85,8.5473,-2.6025,-1.9776,0.9558,0.2928,-0.6779,-78.3,7.95,-13.8,-3.67,2.35,-11.8,-0.6076,-0.1222,0.3163,9.5625,20.25,61.5625,259.9375,-19.5,155.0625,0
1776973676.655,11.4156,-2.5786,-0.7135,1.6505,1.0046,0.016,-90.6,21.45,-5.85,9.7516,-3.6751,-0.2801,0.9558,0.2928,-0.6779,-78.3,7.95,-13.8,-3.67,2.35,-11.8,-0.5356,-0.1538,0.2891,9.5625,20.25,61.5625,260.0,-19.6875,155.375,0
1776973676.66,11.4156,-2.5786,-0.7135,1.6505,1.0046,0.016,-90.75,22.5,-4.5,9.7516,-3.6751,-0.2801,1.2809,0.4922,-0.7946,-77.4,9.3,-13.65,-3.25,0.0,-9.79,-0.5356,-0.1538,0.2891,9.5625,20.25,61.5625,260.0,-19.6875,155.375,0
1776973676.668,11.2049,-4.0031,-0.6991,0.8721,0.6702,-0.0338,-90.75,22.5,-4.5,10.6901,-4.5681,1.3288,1.0229,0.4743,-0.8234,-77.4,9.3,-13.65,-2.69,-3.32,-7.88,-0.3174,-0.2018,0.2476,9.5625,20.25,61.5625,260.125,-19.8125,155.625,0
1776973676.673,10.8362,-4.5945,-0.1556,0.3893,0.5494,-0.0091,-88.35,22.2,-6.15,10.6901,-4.5681,1.3288,1.0229,0.4743,-0.8234,-79.65,8.1,-13.65,-2.69,-3.32,-7.88,-0.3174,-0.2018,0.2476,9.5625,20.25,61.5625,260.1875,-20.0625,155.75,0
1776973676.68,10.8362,-4.5945,-0.1556,0.3893,0.5494,-0.0091,-88.95,24.3,-5.7,11.2575,-5.0518,1.8435,0.578,0.2862,-0.7693,-76.95,9.75,-12.9,-4.49,-3.26,-9.68,-0.2062,-0.3316,0.2269,9.5625,20.25,61.5625,260.1875,-20.3125,155.75,0
1776973676.69,9.5648,-2.9592,1.5969,0.1628,0.3491,0.1242,-88.95,24.3,-5.7,8.8466,-4.8076,2.0973,0.1641,0.2505,-0.6654,-76.8,7.95,-13.5,-4.8,-2.2,-9.77,-0.084,-0.4429,0.1669,9.5625,20.25,61.5625,260.1875,-20.3125,155.75,0
1776973676.694,8.691,-0.5914,2.0925,-0.1988,0.3672,0.2214,-88.95,24.3,-5.7,9.9431,-3.3375,3.146,-0.0909,0.2025,-0.5963,-76.8,7.95,-13.5,-4.8,-2.2,-9.77,-0.084,-0.4429,0.1669,10.75,20.0,62.25,260.1875,-20.5,155.75,0
1776973676.7,8.691,-0.5914,2.0925,-0.4908,0.344,0.2718,-89.25,21.3,-5.7,9.9431,-3.3375,3.146,-0.0909,0.2025,-0.5963,-76.8,7.95,-13.5,-3.86,-2.84,-8.49,0.036,-0.3698,0.0807,10.75,20.0,62.25,260.1875,-20.5,155.75,0
1776973676.704,8.4276,1.1636,2.4038,-0.4908,0.344,0.2718,-89.25,21.3,-5.7,9.5864,-1.7095,2.9592,-0.5558,-0.0208,-0.6179,-76.8,7.95,-13.5,-3.86,-2.84,-8.49,0.036,-0.3698,0.0807,10.75,20.0,62.25,260.1875,-20.625,155.6875,0
1776973676.709,8.0278,2.6815,2.6025,-0.2763,0.3416,0.2726,-89.7,20.25,-3.45,9.5864,-1.7095,2.9592,-0.5558,-0.0208,-0.6179,-78.15,9.3,-14.7,-3.44,-4.12,-7.74,0.0807,-0.2443,0.0305,10.75,20.0,62.25,260.1875,-20.625,155.6875,0
1776973676.718,8.0278,2.6815,2.6025,-0.2763,0.3416,0.2726,-90.45,21.3,-5.7,9.019,-0.2442,2.4397,-0.955,-0.0482,-0.6896,-78.15,9.3,-14.7,-3.45,-4.64,-7.52,0.0262,-0.2127,0.0371,10.75,20.0,62.25,260.1875,-20.75,155.625,0
1776973676.725,8.1427,3.6105,3.0622,-0.0829,0.4445,0.231,-90.45,21.3,-5.7,9.2488,0.9457,2.7892,-1.0741,-0.0842,-0.7597,-77.55,10.35,-14.85,-3.45,-4.64,-7.52,-0.0665,-0.2007,0.0622,10.75,20.0,62.25,260.1875,-20.875,155.6875,0
1776973676.73,8.3031,4.1276,2.6743,0.0586,0.582,0.194,-88.05,21.15,-5.4,9.2488,0.9457,2.7892,-1.0741,-0.0842,-0.7597,-78.75,11.1,-13.05,-3.0,-4.53,-7.38,-0.0665,-0.2007,0.0622,10.75,20.0,62.25,260.25,-21.0,155.8125,0
1776973676.74,8.9615,4.1348,1.8627,0.2891,0.6544,0.1812,-90.15,20.4,-5.85,9.2727,1.4748,1.1444,-0.9872,-0.0725,-0.7584,-78.75,11.1,-13.05,-3.56,-5.07,-7.46,-0.204,-0.1702,0.1167,10.75,20.0,62.25,260.25,-21.0,155.8125,0
1776973676.744,8.9615,4.1348,1.8627,0.2891,0.6544,0.1812,-90.15,20.4,-5.85,9.7444,1.7741,0.1365,-0.6043,-0.052,-0.692,-77.7,11.25,-13.65,-3.56,-5.07,-7.46,-0.204,-0.1702,0.1167,10.75,20.0,62.25,260.25,-21.0,155.8125,0
1776973676.75,9.1818,3.9935,0.3639,0.5257,0.6925,0.1801,-90.15,20.4,-5.85,9.7444,1.7741,0.1365,-0.6043,-0.052,-0.692,-76.8,13.8,-13.65,-5.2,-4.41,-8.19,-0.3131,-0.2673,0.1767,10.5,19.375,61.75,260.25,-21.1875,156.0,0
1776973676.754,9.1818,3.9935,0.3639,0.5257,0.6925,0.1801,-90.15,20.4,-5.85,9.9407,2.1237,-0.1197,-0.2483,-0.1444,-0.6113,-76.8,13.8,-14.85,-5.2,-4.41,-8.19,-0.3131,-0.2673,0.1767,10.5,19.375,61.75,260.25,-21.1875,156.0,0
1776973676.759,10.0509,3.9696,-0.1676,0.8367,0.6912,0.1769,-92.55,19.8,-4.2,9.9407,2.1237,-0.1197,-0.2483,-0.1444,-0.6113,-76.8,13.8,-14.85,-3.86,-3.56,-8.41,-0.3829,-0.2553,0.1713,10.5,19.375,61.75,260.3125,-21.3125,156.1875,0
1776973676.764,10.0509,3.9696,-0.1676,0.8367,0.6912,0.1769,-92.55,19.8,-4.2,9.754,1.9489,-0.4429,-0.0949,-0.1223,-0.5564,-77.25,13.5,-13.05,-3.86,-3.56,-8.41,-0.3545,-0.0393,0.1342,10.5,19.375,61.75,260.3125,-21.375,156.4375,0
1776973676.77,10.5704,3.7421,-0.6656,1.0853,0.7562,0.1772,-94.5,19.2,-4.8,9.7348,1.2785,-0.7949,-0.0949,-0.1223,-0.5564,-77.25,13.5,-13.05,-3.77,-3.63,-8.61,-0.3545,-0.0393,0.1342,10.5,19.375,61.75,260.375,-21.4375,156.5625,0
1776973676.779,9.924,2.8467,-0.6776,1.1487,0.385,0.2372,-94.05,20.55,-3.9,9.7755,0.2394,-0.5339,0.0767,-0.1066,-0.5121,-77.25,13.5,-13.05,-4.76,-3.29,-9.13,-0.2607,-0.0971,0.1287,10.5,19.375,61.75,260.375,-21.5625,156.6875,0
1776973676.789,9.2871,3.0742,0.2634,1.2806,0.3698,0.324,-94.8,19.05,-4.2,10.4387,0.0575,-0.51,0.4082,0.0045,-0.4975,-78.3,12.3,-12.75,-4.46,-2.71,-9.18,-0.1156,-0.1167,0.0873,10.5,19.375,61.75,260.375,-21.5625,156.6875,0
1776973676.794,9.2871,3.0742,0.2634,1.2806,0.3698,0.324,-94.8,19.05,-4.2,10.4387,0.0575,-0.51,0.6518,0.0823,-0.4916,-78.3,12.3,-12.75,-4.46,-2.71,-9.18,-0.1156,-0.1167,0.0873,10.5,19.375,61.75,260.375,-21.5625,156.6875,0
1776973676.799,9.5577,4.1228,1.0056,1.4512,0.6464,0.2998,-94.8,19.05,-4.2,10.1107,0.1149,-0.3807,0.8212,0.0789,-0.494,-78.3,12.3,-12.75,-3.71,-2.98,-8.77,0.0055,-0.0415,0.0153,12.0,18.6875,62.75,260.375,-21.5625,156.6875,0
1776973676.804,9.5577,4.1228,1.0056,1.4512,0.6464,0.2998,-94.8,19.05,-4.2,10.1107,0.1149,-0.3807,0.8212,0.0789,-0.494,-76.2,13.95,-15.15,-3.71,-2.98,-8.77,0.0055,-0.0415,0.0153,12.0,18.6875,62.75,260.375,-21.5625,156.625,0
1776973676.809,9.8114,3.3782,-0.1077,1.5268,0.8604,0.0975,-94.5,18.9,-4.05,9.9216,0.4405,0.4166,0.9473,0.0906,-0.4975,-76.2,13.95,-15.15,-3.6,-3.53,-8.49,0.0742,-0.0273,-0.0164,12.0,18.6875,62.75,260.375,-21.5625,156.625,0
1776973676.819,9.1267,2.6264,0.2873,1.4123,0.6606,0.1564,-94.35,20.25,-4.5,9.8641,0.4645,0.8475,0.8508,0.0634,-0.5097,-76.5,11.4,-12.75,-3.82,-3.16,-8.57,0.12,-0.0644,-0.0142,12.0,18.6875,62.75,260.375,-21.625,156.5625,0
1776973676.825,9.1267,2.6264,0.2873,1.4123,0.6606,0.1564,-94.35,20.25,-4.5,9.8641,0.4645,0.8475,0.8508,0.0634,-0.5097,-76.2,13.65,-14.7,-3.82,-3.16,-8.57,0.144,-0.0676,-0.0251,12.0,18.6875,62.75,260.375,-21.625,156.4375,0
1776973676.83,9.1554,2.4972,1.1803,1.5314,0.7887,0.1743,-93.0,20.25,-2.85,9.7827,0.5052,1.2713,0.7647,0.0184,-0.469,-76.2,13.65,-14.7,-3.95,-3.63,-8.58,0.144,-0.0676,-0.0251,12.0,18.6875,62.75,260.375,-21.625,156.3125,0
1776973676.84,9.3039,2.49,1.8196,1.5212,0.7514,0.1452,-93.6,18.3,-4.5,9.9072,0.0814,1.2641,0.6728,0.012,-0.4298,-76.8,14.25,-13.5,-4.35,-3.61,-8.57,0.1887,-0.0589,-0.0371,12.0,18.6875,62.75,260.375,-21.625,156.3125,0
1776973676.845,9.3039,2.49,1.8196,1.4226,0.7392,0.158,-93.6,18.3,-4.5,9.9072,0.0814,1.2641,0.6728,0.012,-0.4298,-76.05,12.3,-13.8,-4.35,-3.61,-8.57,0.1887,-0.0589,-0.0371,12.0,18.6875,62.75,260.375,-21.625,156.1875,0
1776973676.85,9.3565,1.6855,1.166,1.4226,0.7392,0.158,-91.65,18.9,-4.8,9.9551,-0.2921,1.403,0.6054,-0.0091,-0.3896,-76.05,12.3,-13.8,-3.6,-4.11,-8.13,0.216,-0.0087,-0.0622,12.25,18.0,62.375,260.375,-21.625,156.1875,0
1776973676.855,9.4691,1.2402,1.063,1.4653,0.7573,0.198,-91.65,18.9,-4.8,9.9551,-0.2921,1.403,0.6054,-0.0091,-0.3896,-76.5,15.0,-13.5,-3.6,-4.11,-8.13,0.216,-0.0087,-0.0622,12.25,18.0,62.375,260.3125,-21.625,156.0625,0
1776973676.86,9.4691,1.2402,1.063,1.4653,0.7573,0.198,-91.65,18.9,-4.8,10.0556,-0.7422,1.1684,0.5073,-0.041,-0.3619,-76.5,15.0,-13.5,-3.93,-3.9,-8.11,0.204,0.0175,-0.0589,12.25,18.0,62.375,260.3125,-21.625,156.0625,0
1776973676.865,9.5361,0.9481,0.7183,1.3955,0.7533,0.2489,-91.65,18.9,-4.8,10.0556,-0.7422,1.1684,0.5073,-0.041,-0.3619,-76.5,15.0,-13.5,-3.93,-3.9,-8.11,0.1527,0.0218,-0.0415,12.25,18.0,62.375,260.3125,-21.625,156.0,0
1776973676.87,9.5361,0.9481,0.7183,1.3955,0.7533,0.2489,-93.15,18.15,-5.1,10.0963,-1.1325,0.6129,0.3216,-0.048,-0.3573,-76.5,15.0,-13.5,-3.85,-3.57,-8.28,0.1527,0.0218,-0.0415,12.25,18.0,62.375,260.3125,-21.5625,155.9375,0
1776973676.88,9.7827,0.917,0.4094,1.3009,0.7338,0.2774,-91.95,18.9,-5.4,10.0173,-1.3288,0.2203,0.1188,-0.061,-0.3501,-77.25,14.25,-14.25,-3.97,-3.46,-8.43,0.0927,0.0327,-0.0382,12.25,18.0,62.375,260.3125,-21.5625,155.875,0
1776973676.89,10.003,0.8739,0.4908,1.2345,0.7341,0.2747,-91.5,15.3,-4.2,9.8162,-0.8164,0.1269,-0.056,-0.0658,-0.3413,-76.2,12.9,-14.7,-3.86,-3.15,-8.51,0.0698,0.0295,-0.0404,12.25,18.0,62.375,260.3125,-21.5625,155.875,0
1776973676.895,9.8378,0.7398,0.7087,1.1386,0.6843,0.2811,-91.5,15.3,-4.2,9.6007,-0.2083,-0.2753,-0.056,-0.0658,-0.3413,-76.2,13.95,-12.9,-3.86,-3.15,-8.51,0.0698,0.0295,-0.0404,12.25,18.0,62.375,260.3125,-21.5625,155.875,0
1776973676.9,9.8378,0.7398,0.7087,1.1386,0.6843,0.2811,-91.65,16.65,-5.85,9.6007,-0.2083,-0.2753,-0.137,-0.0578,-0.3536,-76.2,13.95,-12.9,-3.62,-3.19,-8.5,0.0785,0.0295,-0.06,12.0,18.75,63.0625,260.3125,-21.5,155.8125,0
