timestamp,thigh_acc_x,thigh_acc_y,thigh_acc_z,thigh_gyro_x,thigh_gyro_y,thigh_gyro_z,thigh_mag_x,thigh_mag_y,thigh_mag_z,shank_acc_x,shank_acc_y,shank_acc_z,shank_gyro_x,shank_gyro_y,shank_gyro_z,shank_mag_x,shank_mag_y,shank_mag_z,foot_acc_x,foot_acc_y,foot_acc_z,foot_gyro_x,foot_gyro_y,foot_gyro_z,foot_mag_x,foot_mag_y,foot_mag_z,foot_euler_x,foot_euler_y,foot_euler_z,perturbation_event
1776971051.288,9.8976,-0.5267,0.5483,0.3994,-0.222,0.2814,-31.95,7.5,16.35,9.3446,-0.6105,1.5083,0.797,0.5817,0.7149,-85.05,-5.4,-18.75,6.65,-1.39,-7.25,0.048,-0.0338,0.0098,-27.6875,-4.0625,30.25,96.875,40.3125,170.9375,0
1776971051.297,10.0317,-0.431,0.4334,0.3762,-0.2598,0.2806,-31.95,7.5,16.35,9.5624,0.0168,1.8004,0.5268,0.5564,0.7416,-84.15,-6.9,-19.2,6.64,-1.4,-7.31,0.0469,-0.0469,0.0185,-27.6875,-4.0625,30.25,96.875,40.3125,170.9375,0
1776971051.303,10.0317,-0.431,0.4334,0.3762,-0.2598,0.2806,-31.95,7.5,16.35,9.5624,0.0168,1.8004,0.3491,0.4386,0.7815,-84.15,-6.9,-19.2,6.56,-1.3,-7.35,0.0611,-0.0524,0.012,-27.6875,-4.0625,30.25,96.875,40.3125,170.9375,0
1776971051.308,10.0078,-0.4429,0.2394,0.3483,-0.2902,0.292,-32.25,9.0,17.7,9.3948,0.5435,2.2003,0.2076,0.4735,0.8316,-83.85,-5.4,-20.25,6.56,-1.3,-7.35,0.0611,-0.0524,0.012,-27.6875,-4.0625,30.25,96.875,40.3125,170.9375,0
1776971051.313,10.0078,-0.4429,0.2394,0.3483,-0.2902,0.292,-32.25,9.0,17.7,9.3948,0.5435,2.2003,0.2076,0.4735,0.8316,-83.85,-5.4,-20.25,6.54,-1.34,-7.31,0.0676,-0.0862,0.0207,-27.25,-3.75,29.1875,96.875,40.25,170.875,0
1776971051.318,9.9479,-0.4334,0.1604,0.3126,-0.3144,0.3099,-32.85,6.45,17.85,9.3613,1.0822,2.2075,0.1908,0.4983,0.8625,-84.0,-6.75,-19.35,6.54,-1.34,-7.31,0.0676,-0.0862,0.0207,-27.25,-3.75,29.1875,96.875,40.25,170.875,0
1776971051.323,9.9479,-0.4334,0.1604,0.3126,-0.3144,0.3099,-32.85,6.45,17.85,9.3613,1.0822,2.2075,0.1908,0.4983,0.8625,-84.0,-6.75,-19.35,6.54,-1.34,-7.31,0.06,-0.0785,0.0229,-27.25,-3.75,29.1875,96.875,40.25,170.8125,0
1776971051.328,9.8402,-0.2753,0.1197,0.2979,-0.3208,0.3376,-32.85,7.65,16.5,9.2656,1.2737,2.0159,0.194,0.5191,0.8841,-84.0,-6.75,-19.35,6.61,-1.32,-7.3,0.06,-0.0785,0.0229,-27.25,-3.75,29.1875,96.875,40.25,170.8125,0
1776971051.333,9.8402,-0.2753,0.1197,0.2979,-0.3208,0.3376,-32.85,7.65,16.5,9.2656,1.2737,2.0159,0.194,0.5191,0.8841,-84.0,-6.75,-19.35,6.61,-1.32,-7.3,0.0502,-0.072,0.0207,-27.25,-3.75,29.1875,96.875,40.1875,170.75,0
1776971051.338,9.8426,0.0646,0.0503,0.284,-0.3344,0.3736,-32.25,7.05,17.4,9.4068,1.3455,1.8292,0.1402,0.526,0.894,-84.0,-6.75,-20.1,6.61,-1.39,-7.3,0.0502,-0.072,0.0207,-27.25,-3.75,29.1875,96.875,40.1875,170.75,0
1776971051.347,9.7875,0.2993,-0.1413,0.2942,-0.3475,0.4032,-32.25,7.05,17.4,9.3709,1.4269,1.731,0.06,0.481,0.8703,-83.1,-7.8,-18.75,6.56,-1.34,-7.37,0.0535,-0.0873,0.0175,-27.25,-3.75,29.1875,96.875,40.1875,170.75,0
1776971051.352,9.7875,0.2993,-0.1413,0.2942,-0.3475,0.4032,-32.25,7.05,17.4,9.3709,1.4269,1.731,0.06,0.481,0.8703,-83.1,-7.8,-18.75,6.56,-1.34,-7.37,0.0491,-0.0796,0.0044,-27.25,-3.75,29.1875,96.8125,40.125,170.6875,0
1776971051.358,9.9503,0.3328,-0.1437,0.344,-0.3571,0.4293,-30.45,7.8,15.9,9.3422,1.5203,1.7358,0.0037,0.4271,0.8617,-85.8,-8.1,-19.2,6.62,-1.28,-7.34,0.0491,-0.0796,0.0044,-27.25,-3.75,29.1875,96.8125,40.125,170.6875,0
1776971051.363,9.7013,0.4022,-0.3783,0.3523,-0.3691,0.4543,-30.75,6.75,17.1,9.3422,1.5203,1.7358,0.0037,0.4271,0.8617,-85.8,-8.1,-19.2,6.61,-1.25,-7.31,0.0436,-0.0829,0.0022,-27.0,-4.0625,30.375,96.8125,40.0625,170.6875,0
1776971051.368,9.7013,0.4022,-0.3783,0.3523,-0.3691,0.4543,-30.75,6.75,17.1,9.4403,1.549,1.7957,0.0056,0.3469,0.8655,-83.25,-8.7,-18.3,6.61,-1.25,-7.31,0.0436,-0.0829,0.0022,-27.0,-4.0625,30.375,96.8125,40.0625,170.6875,0
1776971051.373,9.6798,0.0934,-0.7302,0.3536,-0.3597,0.493,-33.0,5.25,16.65,9.4403,1.549,1.7957,0.0056,0.3469,0.8655,-83.25,-8.7,-18.3,6.61,-1.25,-7.31,0.0415,-0.0894,0.0044,-27.0,-4.0625,30.375,96.8125,40.0625,170.625,0
1776971051.378,9.6798,0.0934,-0.7302,0.3536,-0.3597,0.493,-33.0,5.25,16.65,9.4858,1.5874,1.7382,0.1196,0.2214,0.8713,-83.1,-9.3,-18.75,6.61,-1.32,-7.33,0.0415,-0.0894,0.0044,-27.0,-4.0625,30.375,96.8125,40.0625,170.625,0
1776971051.383,9.6103,0.0263,-0.9601,0.3349,-0.34,0.5401,-31.65,5.7,14.7,9.4858,1.5874,1.7382,0.1196,0.2214,0.8713,-83.1,-9.3,-18.75,6.61,-1.32,-7.33,0.0436,-0.1124,0.0076,-27.0,-4.0625,30.375,96.8125,40.0,170.625,0
1776971051.388,9.6103,0.0263,-0.9601,0.3349,-0.34,0.5401,-31.65,5.7,14.7,9.3111,1.3144,1.7047,0.1375,0.2542,0.8934,-84.6,-9.3,-17.4,6.51,-1.33,-7.32,0.0436,-0.1124,0.0076,-27.0,-4.0625,30.375,96.8125,40.0,170.625,0
1776971051.397,9.7755,0.498,-1.1732,0.2958,-0.3224,0.595,-32.85,7.2,14.4,9.4786,1.47,1.4341,0.2507,0.1719,0.9265,-84.6,-9.3,-17.4,6.55,-1.3,-7.34,0.0404,-0.132,0.0109,-27.0,-4.0625,30.375,96.8125,39.9375,170.625,0
1776971051.402,9.8402,0.8715,-1.4485,0.2758,-0.3128,0.6475,-32.85,7.2,14.4,9.4786,1.47,1.4341,0.2507,0.1719,0.9265,-84.6,-9.3,-17.4,6.55,-1.3,-7.34,0.0316,-0.1233,0.0142,-27.0,-4.0625,30.375,96.8125,39.875,170.5625,0
1776971051.408,9.8402,0.8715,-1.4485,0.2758,-0.3128,0.6475,-32.85,7.2,14.4,9.7133,1.664,1.2163,0.3661,0.0861,0.9569,-83.1,-10.5,-18.75,6.56,-1.43,-7.37,0.0316,-0.1233,0.0142,-27.0,-4.0625,30.375,96.8125,39.875,170.5625,0
1776971051.413,10.0772,1.573,-1.6999,0.2814,-0.2862,0.7208,-31.5,4.8,15.3,10.0916,2.0375,0.929,0.4311,-0.028,0.9467,-83.1,-10.5,-18.75,6.56,-1.43,-7.37,0.0316,-0.1233,0.0142,-27.6875,-4.5,31.5,96.8125,39.8125,170.5625,0
1776971051.418,10.0772,1.573,-1.6999,0.2814,-0.2862,0.7208,-31.5,4.8,15.3,10.0916,2.0375,0.929,0.4311,-0.028,0.9467,-83.1,-10.5,-18.75,6.58,-1.28,-7.39,0.0305,-0.1374,0.0142,-27.6875,-4.5,31.5,96.8125,39.8125,170.5625,0
1776971051.423,10.3142,1.7166,-2.2577,0.2593,-0.2574,0.7946,-31.65,5.7,15.45,10.5919,2.2745,0.6416,0.4538,-0.1516,0.9009,-83.1,-10.5,-18.75,6.58,-1.28,-7.39,0.0305,-0.1374,0.0142,-27.6875,-4.5,31.5,96.75,39.75,170.5625,0
1776971051.428,10.3142,1.7166,-2.2577,0.2593,-0.2574,0.7946,-31.65,5.7,15.45,10.5919,2.2745,0.6416,0.4538,-0.1516,0.9009,-82.35,-9.0,-18.0,6.47,-1.34,-7.54,0.0327,-0.1374,0.0033,-27.6875,-4.5,31.5,96.75,39.75,170.5625,0
1776971051.433,10.4962,1.3791,-3.1196,0.1956,-0.2172,0.8825,-30.6,5.7,15.45,10.9032,2.4493,0.2921,0.506,-0.291,0.8383,-82.35,-9.0,-18.0,6.47,-1.34,-7.54,0.0393,-0.1789,0.0011,-27.6875,-4.5,31.5,96.75,39.625,170.5,0
1776971051.438,10.4962,1.3791,-3.1196,0.1956,-0.2172,0.8825,-30.6,5.7,15.45,10.9032,2.4493,0.2921,0.506,-0.291,0.8383,-82.65,-12.0,-16.95,6.55,-1.33,-7.63,0.0393,-0.1789,0.0011,-27.6875,-4.5,31.5,96.75,39.5,170.5,0
1776971051.447,10.0724,1.0678,-3.4812,0.0597,-0.1761,0.987,-31.5,5.25,14.85,11.0014,2.4708,-0.1389,0.5524,-0.4045,0.7426,-82.5,-11.1,-17.1,6.4,-1.01,-7.93,0.0371,-0.2334,0.0011,-27.6875,-4.5,31.5,96.75,39.5,170.5,0
1776971051.457,9.8162,0.6991,-3.9002,-0.1833,-0.1242,1.1088,-30.15,4.05,15.3,11.0684,2.2889,-0.8045,0.6299,-0.4871,0.6358,-81.15,-11.7,-19.2,6.39,-0.95,-7.54,0.0654,-0.3174,-0.012,-27.6875,-4.5,31.5,96.6875,39.375,170.5,0
1776971051.462,9.5529,0.431,-4.6136,-0.4471,-0.0474,1.2073,-30.15,4.05,15.3,11.133,1.9321,-1.5826,0.7288,-0.5865,0.5399,-81.15,-11.7,-19.2,6.39,-0.95,-7.54,0.0654,-0.3174,-0.012,-27.6875,-4.5,31.5,96.6875,39.375,170.5,0
1776971051.467,9.5529,0.431,-4.6136,-0.4471,-0.0474,1.2073,-30.15,4.05,15.3,11.133,1.9321,-1.5826,0.7288,-0.5865,0.5399,-82.5,-12.3,-18.6,6.35,-1.34,-7.6,0.1047,-0.3676,0.0153,-26.5625,-4.5,29.875,96.6875,39.125,170.5,0
1776971051.472,9.7516,0.0335,-5.0757,-0.6696,0.0309,1.2921,-31.05,3.45,15.45,11.3222,1.6305,-2.2865,0.809,-0.741,0.4562,-82.5,-12.3,-18.6,6.35,-1.34,-7.6,0.1047,-0.3676,0.0153,-26.5625,-4.5,29.875,96.6875,39.125,170.5,0
1776971051.477,9.7516,0.0335,-5.0757,-0.6696,0.0309,1.2921,-31.05,3.45,15.45,11.3222,1.6305,-2.2865,0.809,-0.741,0.4562,-82.35,-11.25,-19.2,5.96,-1.36,-7.83,0.1254,-0.4374,0.0164,-26.5625,-4.5,29.875,96.625,38.9375,170.4375,0
1776971051.482,10.0868,0.3328,-4.4532,-0.8364,0.11,1.3704,-29.1,3.15,15.45,11.5329,1.1516,-2.8946,0.7954,-0.959,0.389,-82.35,-11.25,-19.2,5.96,-1.36,-7.83,0.2073,-0.5552,-0.0229,-26.5625,-4.5,29.875,96.5625,38.625,170.375,0
1776971051.488,10.0868,0.3328,-4.4532,-0.8364,0.11,1.3704,-29.1,3.15,15.45,11.5329,1.1516,-2.8946,0.7954,-0.959,0.389,-82.35,-11.25,-19.2,5.78,-2.42,-7.76,0.2073,-0.5552,-0.0229,-26.5625,-4.5,29.875,96.5,38.3125,170.3125,0
1776971051.497,10.3166,1.0008,-4.7812,-1.003,0.2289,1.4381,-30.15,1.8,14.25,11.5855,1.0271,-3.225,0.7144,-1.2244,0.328,-81.15,-12.9,-18.75,6.07,-1.15,-7.88,0.2411,-0.5738,-0.0404,-26.5625,-4.5,29.875,96.5,38.3125,170.3125,0
1776971051.507,10.1155,1.5897,-4.3287,-0.984,0.3086,1.4538,-28.8,3.15,13.95,11.3749,1.0175,-3.3639,0.5953,-1.4858,0.2539,-81.15,-12.9,-18.75,6.55,-0.6,-8.18,0.1211,-0.4385,-0.0131,-26.5625,-4.5,29.875,96.4375,38.0625,170.25,0
1776971051.512,10.2256,1.7741,-3.5099,-0.7783,0.3778,1.4605,-28.8,3.15,13.95,11.2815,1.0271,-3.1627,0.5193,-1.6745,0.1998,-81.15,-12.9,-18.75,6.55,-0.6,-8.18,0.1211,-0.4385,-0.0131,-26.5625,-4.5,29.875,96.4375,37.875,170.25,0
1776971051.517,10.2256,1.7741,-3.5099,-0.7783,0.3778,1.4605,-28.8,3.15,13.95,10.817,1.1372,-2.6025,0.5193,-1.6745,0.1998,-81.3,-11.4,-18.75,5.94,0.78,-9.27,0.084,-0.3807,0.0338,-27.25,-3.75,31.875,96.4375,37.875,170.25,0
1776971051.522,10.6063,2.0494,-2.8156,-0.5926,0.4842,1.4671,-28.05,2.4,14.4,10.817,1.1372,-2.6025,0.453,-1.7232,0.1644,-81.3,-11.4,-21.9,5.94,0.78,-9.27,0.084,-0.3807,0.0338,-27.25,-3.75,31.875,96.4375,37.75,170.125,0
1776971051.527,10.5752,2.0518,-2.2122,-0.4093,0.5436,1.4194,-28.05,2.4,14.4,10.8912,1.3336,-2.15,0.453,-1.7232,0.1644,-81.3,-11.4,-21.9,6.55,1.21,-9.14,0.1724,-0.18,0.1353,-27.25,-3.75,31.875,96.4375,37.75,170.125,0
1776971051.534,10.5752,2.0518,-2.2122,-0.4093,0.5436,1.4194,-30.15,0.3,14.25,10.8912,1.3336,-2.15,0.5721,-1.853,0.1199,-81.15,-12.45,-21.75,7.46,3.67,-10.13,0.4614,0.4985,0.3163,-27.25,-3.75,31.875,96.5625,38.0,169.6875,0
1776971051.539,10.7811,2.0614,-2.0087,-0.1815,0.6187,1.3627,-30.15,0.3,14.25,10.6255,1.312,-1.4006,0.6603,-1.8623,0.0855,-81.0,-13.05,-21.9,7.46,3.67,-10.13,0.4614,0.4985,0.3163,-27.25,-3.75,31.875,96.625,38.125,168.8125,0
1776971051.548,10.4579,1.8723,-1.0463,0.0069,0.6467,1.3225,-29.1,0.45,16.2,10.3094,1.3695,-0.7853,0.724,-1.7853,0.0711,-81.0,-13.05,-21.9,7.98,-0.66,-5.35,1.0821,0.3938,0.4472,-27.25,-3.75,31.875,96.625,38.125,168.8125,0
1776971051.558,10.1251,1.5419,-0.3711,0.259,0.7107,1.2729,-28.2,-0.3,15.3,10.3166,1.8411,-0.4166,0.805,-1.797,0.0413,-80.4,-13.65,-21.75,10.47,-0.7,-10.14,2.1195,-0.7439,0.1309,-27.25,-3.75,31.875,96.25,37.75,167.6875,0
1776971051.562,10.1251,1.5419,-0.3711,0.259,0.7107,1.2729,-28.5,0.15,17.25,10.3166,1.8411,-0.4166,0.805,-1.797,0.0413,-80.4,-13.65,-21.75,10.47,-0.7,-10.14,2.1195,-0.7439,0.1309,-27.25,-3.75,31.875,96.5625,37.1875,166.0,0
1776971051.568,10.501,1.008,0.328,0.4818,0.7253,1.2843,-28.5,0.15,17.25,9.8761,2.229,-0.067,0.8636,-1.7682,-0.0322,-80.4,-13.65,-21.75,8.02,2.77,-10.6,2.1948,-0.721,1.3417,-26.1875,-3.75,31.0625,96.5625,37.1875,166.0,0
1776971051.573,10.501,1.008,0.328,0.4818,0.7253,1.2843,-28.5,0.15,17.25,9.8761,2.229,-0.067,0.8636,-1.7682,-0.0322,-78.9,-12.9,-23.7,8.02,2.77,-10.6,2.1948,-0.721,1.3417,-26.1875,-3.75,31.0625,96.8125,36.5625,164.3125,0
1776971051.578,10.2161,0.4956,0.8787,0.797,0.7229,1.2231,-28.5,0.15,17.25,9.5265,2.4062,0.1748,0.9491,-1.5681,-0.0951,-78.9,-12.9,-23.7,8.93,3.05,-9.45,2.1948,-0.721,1.3417,-26.1875,-3.75,31.0625,96.8125,36.5625,164.3125,0
1776971051.584,10.2161,0.4956,0.8787,0.797,0.7229,1.2231,-27.0,-2.4,18.6,9.5265,2.4062,0.1748,0.9491,-1.5681,-0.0951,-78.9,-12.9,-23.7,9.45,3.57,-9.92,2.8787,0.4625,1.7868,-26.1875,-3.75,31.0625,97.3125,36.5625,161.9375,0
1776971051.589,10.4914,0.407,1.5754,1.0651,0.6813,1.2076,-27.9,-2.4,18.6,9.5984,2.5474,0.5195,1.0104,-1.3702,-0.142,-79.65,-13.2,-24.3,9.45,3.57,-9.92,2.8787,0.4625,1.7868,-26.1875,-3.75,31.0625,97.75,36.125,158.75,0
1776971051.598,10.5943,0.2155,2.2889,1.3438,0.6752,1.1908,-27.9,-1.5,17.1,9.8162,2.4541,0.8859,1.0296,-1.1975,-0.1743,-79.65,-13.2,-24.3,8.44,3.46,-9.1,4.1888,0.0076,2.1991,-26.1875,-3.75,31.0625,98.0625,35.6875,155.25,0
1776971051.608,10.659,-0.395,2.5211,1.6651,0.6371,1.1719,-27.6,-1.5,16.65,9.9886,2.3343,1.233,1.069,-1.0709,-0.2388,-79.65,-13.2,-24.3,8.07,2.63,-8.49,4.8956,-0.0164,2.1718,-26.1875,-3.75,31.0625,98.0625,35.6875,155.25,0
1776971051.613,10.659,-0.395,2.5211,1.6651,0.6371,1.1719,-27.15,-3.0,17.4,9.9886,2.3343,1.233,1.069,-1.0709,-0.2388,-79.05,-12.6,-24.15,8.07,2.63,-8.49,4.8956,-0.0164,2.1718,-26.1875,-3.75,31.0625,98.1875,35.25,151.6875,0
1776971051.618,10.1993,-0.565,2.8994,1.9284,0.6153,1.1836,-27.15,-3.0,17.4,10.1131,2.0255,1.7573,1.1202,-0.9737,-0.3251,-79.05,-12.6,-24.15,4.99,1.9,-7.87,5.128,0.1647,1.9482,-25.875,0.5625,32.25,98.1875,35.25,151.6875,0
1776971051.623,10.1993,-0.565,2.8994,1.9284,0.6153,1.1836,-27.0,-4.2,19.05,10.1131,2.0255,1.7573,1.1202,-0.9737,-0.3251,-76.65,-12.9,-24.0,4.99,1.9,-7.87,5.128,0.1647,1.9482,-25.875,0.5625,32.25,24.6875,35.25,148.25,0
1776971051.628,10.0485,-0.9194,3.2298,2.2103,0.6755,1.25,-27.0,-4.2,19.05,10.1873,1.6209,2.2936,1.1133,-0.8711,-0.4271,-76.65,-12.9,-24.0,7.85,4.33,-6.54,5.2403,0.6949,1.2261,-25.875,0.5625,32.25,24.6875,35.25,148.25,0
1776971051.635,10.4124,-0.1125,4.5873,2.7232,0.6723,1.3488,-27.0,-4.2,19.05,10.2568,1.415,2.8132,1.1708,-0.7376,-0.5036,-78.45,-12.45,-24.3,13.38,5.34,-8.61,5.1127,0.8432,-0.5683,-25.875,0.5625,32.25,20.5,35.8125,145.375,0
1776971051.64,10.4124,-0.1125,4.5873,2.7232,0.6723,1.3488,-26.25,-4.65,20.7,10.2568,1.415,2.8132,1.1708,-0.7376,-0.5036,-78.0,-13.5,-26.1,13.38,5.34,-8.61,5.1127,0.8432,-0.5683,-25.875,0.5625,32.25,18.0,36.625,143.9375,0
1776971051.648,10.5608,0.5986,5.4348,2.994,0.6406,1.3949,-25.2,-4.65,21.45,10.2328,1.7382,2.9664,1.2854,-0.6643,-0.6097,-78.0,-13.5,-26.1,16.41,1.09,-11.36,4.0808,0.0196,-2.5176,-25.875,0.5625,32.25,16.25,37.3125,143.75,0
1776971051.658,10.7571,1.415,5.2433,3.0838,0.5782,1.4043,-24.15,-5.7,21.45,10.0844,2.0949,3.5745,1.3249,-0.5806,-0.7506,-78.0,-13.5,-26.1,11.29,5.8,-8.4,3.1121,-1.1748,-3.6586,-25.875,0.5625,32.25,16.25,37.3125,143.75,0
1776971051.663,10.2879,1.6831,5.1547,3.3961,0.413,1.3089,-24.15,-5.7,21.45,9.5888,2.296,4.4365,1.2998,-0.4066,-0.8652,-76.65,-13.65,-24.75,11.29,5.8,-8.4,3.1121,-1.1748,-3.6586,-25.875,0.5625,32.25,14.5,38.0,143.875,0
1776971051.668,10.2879,1.6831,5.1547,3.3961,0.413,1.3089,-25.95,-6.9,22.5,9.5888,2.296,4.4365,1.2998,-0.4066,-0.8652,-76.65,-13.65,-24.75,6.31,6.98,-6.11,3.1438,-1.5708,-4.1855,-25.0625,10.875,28.0,14.5,38.0,143.875,0
1776971051.673,9.3589,1.9896,5.1475,3.9708,0.2425,1.1239,-25.95,-6.9,22.5,9.4188,2.4708,5.035,1.4083,-0.1895,-0.947,-76.65,-13.65,-24.75,6.31,6.98,-6.11,3.1438,-1.5708,-4.1855,-25.0625,10.875,28.0,12.625,38.875,143.75,0
1776971051.678,9.3589,1.9896,5.1475,3.9708,0.2425,1.1239,-25.95,-6.9,22.5,9.4188,2.4708,5.035,1.4083,-0.1895,-0.947,-76.65,-13.65,-24.75,7.17,3.01,-5.67,3.651,-1.2752,-4.4179,-25.0625,10.875,28.0,12.625,38.875,143.75,0
1776971051.683,8.5641,1.8124,5.2409,4.6245,0.0576,0.9443,-25.95,-6.9,22.5,9.5433,2.3583,4.7453,1.7056,-0.0125,-1.0003,-76.8,-12.3,-25.65,7.17,3.01,-5.67,3.9913,-1.2599,-4.4822,-25.0625,10.875,28.0,10.5625,39.75,143.5,0
1776971051.689,8.5641,1.8124,5.2409,4.6245,0.0576,0.9443,-23.7,-7.95,22.95,9.5433,2.3583,4.7453,1.7056,-0.0125,-1.0003,-76.8,-12.3,-25.65,7.54,0.56,-6.34,3.9913,-1.2599,-4.4822,-25.0625,10.875,28.0,8.5,40.625,143.375,0
1776971051.698,8.5569,1.4198,5.1811,5.1163,-0.1026,0.7951,-23.55,-9.0,24.15,9.5098,2.3631,4.2186,2.116,0.0858,-1.0563,-77.25,-11.85,-24.6,7.16,-1.51,-6.51,3.9488,-1.3526,-4.4833,-25.0625,10.875,28.0,8.5,40.625,143.375,0
1776971051.708,8.327,1.0606,4.8315,5.4398,-0.2308,0.671,-22.8,-7.5,25.95,9.0764,2.4732,3.9816,2.4666,0.2076,-1.1181,-76.5,-11.85,-24.6,6.39,-2.59,-6.45,3.6248,-1.4323,-4.4397,-25.0625,10.875,28.0,6.6875,41.4375,143.5,0
1776971051.713,8.3342,0.0168,4.6663,5.5118,-0.3091,0.5971,-22.8,-7.5,25.95,8.9256,2.6169,4.0725,2.7448,0.3952,-1.1804,-76.8,-11.4,-24.9,6.39,-2.59,-6.45,3.6248,-1.4323,-4.4397,-25.0625,10.875,28.0,6.6875,41.4375,143.5,0
1776971051.718,8.3342,0.0168,4.6663,5.5118,-0.3091,0.5971,-22.65,-8.7,25.35,8.9256,2.6169,4.0725,2.7448,0.3952,-1.1804,-76.8,-11.4,-24.9,5.88,-2.31,-5.9,3.2627,-1.3483,-4.3055,-25.1875,11.0625,24.0625,5.25,42.25,143.8125,0
1776971051.723,8.6239,-1.0391,5.1068,5.5773,-0.4125,0.5319,-22.65,-8.7,25.35,9.1219,2.4325,3.7972,3.0502,0.5849,-1.2052,-76.8,-10.35,-22.35,5.88,-2.31,-5.9,3.2627,-1.3483,-4.3055,-25.1875,11.0625,24.0625,5.25,42.25,143.8125,0
1776971051.728,8.6239,-1.0391,5.1068,5.5773,-0.4125,0.5319,-23.4,-9.15,27.9,9.1219,2.4325,3.7972,3.0502,0.5849,-1.2052,-76.8,-10.35,-22.35,6.35,-2.15,-5.98,3.0947,-1.2785,-4.0797,-25.1875,11.0625,24.0625,3.875,43.0,144.1875,0
1776971051.734,8.904,-1.9513,5.2936,5.4766,-0.4983,0.5239,-23.4,-9.15,27.9,9.4451,2.0638,3.0311,3.4432,0.6243,-1.2343,-76.65,-11.25,-22.2,6.51,-2.14,-6.35,3.0609,-1.3166,-3.8135,-25.1875,11.0625,24.0625,2.375,43.6875,144.5,0
1776971051.739,8.904,-1.9513,5.2936,5.4766,-0.4983,0.5239,-23.4,-9.15,27.9,9.7947,1.6472,2.4517,3.4432,0.6243,-1.2343,-76.65,-11.25,-22.2,6.51,-2.14,-6.35,3.0609,-1.3166,-3.8135,-25.1875,11.0625,24.0625,0.6875,44.1875,144.8125,0
1776971051.748,9.165,-2.8659,5.1284,5.1787,-0.5913,0.5431,-20.7,-7.5,29.55,10.0317,1.2905,2.1596,3.7539,0.5473,-1.283,-76.65,-11.25,-22.2,6.46,-1.94,-6.84,3.0609,-1.3995,-3.5517,-25.1875,11.0625,24.0625,0.6875,44.1875,144.8125,0
1776971051.758,9.2488,-3.45,5.0326,4.6849,-0.7069,0.5622,-19.5,-7.8,30.15,10.2041,0.5626,2.0566,3.8941,0.4583,-1.3352,-76.5,-10.35,-23.1,6.27,-1.83,-6.87,3.0478,-1.4901,-3.339,-25.1875,11.0625,24.0625,358.875,44.5625,145.0625,0
1776971051.763,9.3302,-3.7062,4.8411,4.156,-0.8383,0.5692,-19.5,-7.8,30.15,10.2041,0.5626,2.0566,3.9234,0.4255,-1.3843,-76.5,-10.35,-23.1,6.27,-1.83,-6.87,3.0478,-1.4901,-3.339,-25.1875,11.0625,24.0625,357.0,44.875,145.3125,0
1776971051.768,9.3302,-3.7062,4.8411,4.156,-0.8383,0.5692,-20.7,-8.25,31.35,10.5584,0.0527,1.9178,3.9234,0.4255,-1.3843,-76.5,-10.35,-23.1,6.39,-1.69,-7.04,2.9834,-1.561,-3.1689,-23.75,8.375,19.875,357.0,44.875,145.3125,0
1776971051.773,9.1985,-3.6009,4.6735,3.69,-0.967,0.5375,-20.7,-8.25,31.35,10.5584,0.0527,1.9178,3.9623,0.4018,-1.4088,-78.15,-9.0,-21.45,6.39,-1.69,-7.04,2.9834,-1.561,-3.1689,-23.75,8.375,19.875,357.0,44.875,145.3125,0
1776971051.778,9.1985,-3.6009,4.6735,3.69,-0.967,0.5375,-21.3,-7.8,32.4,10.7476,-0.079,1.8268,4.0169,0.3523,-1.4186,-78.15,-9.0,-21.45,6.63,-1.23,-7.46,2.87,-1.645,-3.026,-23.75,8.375,19.875,355.125,45.0625,145.625,0
1776971051.783,9.1602,-3.3878,4.5083,3.3318,-1.0605,0.4855,-21.3,-7.8,32.4,10.7476,-0.079,1.8268,4.0169,0.3523,-1.4186,-76.95,-9.75,-21.75,6.63,-1.23,-7.46,2.7303,-1.753,-2.9082,-23.75,8.375,19.875,353.25,45.125,146.0,0
1776971051.789,8.9807,-2.9329,4.3431,3.1256,-1.1546,0.3968,-21.3,-7.8,32.4,10.8625,0.0144,1.8268,4.1216,0.2902,-1.3933,-76.95,-9.75,-21.75,6.62,-0.99,-7.36,2.7303,-1.753,-2.9082,-23.75,8.375,19.875,351.375,45.125,146.4375,0
1776971051.798,8.9399,-2.5618,4.4245,3.0752,-1.2367,0.2737,-21.3,-7.8,32.4,10.7739,0.1149,1.7837,4.1392,0.2563,-1.359,-76.8,-9.15,-20.85,6.46,-0.7,-7.15,2.5831,-1.8468,-2.7991,-23.75,8.375,19.875,351.375,45.125,146.4375,0
1776971051.808,9.0357,-2.2601,4.3814,3.1205,-1.3326,0.1484,-21.0,-8.25,31.95,10.963,0.1006,1.4868,4.1134,0.23,-1.3342,-76.65,-7.8,-21.75,6.49,-0.48,-7.14,2.4173,-1.9057,-2.6987,-23.75,8.375,19.875,349.5625,45.0625,146.9375,0
1776971051.813,9.0357,-2.2601,4.3814,3.1205,-1.3326,0.1484,-21.0,-8.25,31.95,10.963,0.1006,1.4868,4.1134,0.23,-1.3342,-76.95,-8.1,-22.5,6.49,-0.48,-7.14,2.4173,-1.9057,-2.6987,-23.75,8.375,19.875,349.5625,45.0625,146.9375,0
1776971051.818,9.2727,-2.1668,4.3072,3.1912,-1.4173,0.0336,-20.25,-8.55,32.7,11.0253,0.0503,1.233,4.0633,0.206,-1.3193,-76.95,-8.1,-22.5,6.75,0.05,-7.21,2.2373,-1.9591,-2.6191,-22.25,7.1875,17.6875,347.8125,44.9375,147.5,0
1776971051.823,9.2727,-2.1668,4.3072,3.1912,-1.4173,0.0336,-20.25,-8.55,32.7,11.0253,0.0503,1.233,4.0633,0.206,-1.3193,-76.05,-7.5,-20.85,6.75,0.05,-7.21,2.2373,-1.9591,-2.6191,-22.25,7.1875,17.6875,347.8125,44.9375,147.5,0
1776971051.828,9.5122,-2.2242,4.221,3.2756,-1.514,-0.0959,-19.95,-9.3,31.95,11.2887,-0.2131,1.1013,3.9746,0.1735,-1.3003,-76.05,-7.5,-20.85,6.85,0.41,-7.26,2.0584,-2.0082,-2.5689,-22.25,7.1875,17.6875,346.1875,44.75,148.1875,0
1776971051.833,9.5122,-2.2242,4.221,3.2756,-1.514,-0.0959,-19.95,-9.3,31.95,11.2887,-0.2131,1.1013,3.9746,0.1735,-1.3003,-76.05,-7.5,-20.85,6.85,0.41,-7.26,1.8948,-2.0442,-2.5569,-22.25,7.1875,17.6875,344.625,44.5625,148.875,0
1776971051.839,9.6007,-2.3032,4.0055,3.3454,-1.6182,-0.1966,-21.15,-9.45,31.8,11.3701,-0.4166,1.063,3.8357,0.1447,-1.2881,-76.05,-7.5,-20.85,6.98,0.73,-7.33,1.8948,-2.0442,-2.5569,-22.25,7.1875,17.6875,343.1875,44.3125,149.6875,0
1776971051.848,9.6965,-2.5163,3.8571,3.37,-1.7046,-0.2939,-21.15,-9.45,31.8,11.3054,-0.5267,0.8475,3.6465,0.137,-1.2993,-76.05,-7.95,-20.1,7.33,1.29,-7.57,1.7639,-2.0759,-2.5798,-22.25,7.1875,17.6875,343.1875,44.3125,149.6875,0
1776971051.858,9.73,-2.8874,3.6152,3.3414,-1.7571,-0.3693,-22.5,-8.25,31.35,11.1235,-0.5483,0.644,3.456,0.1391,-1.3043,-76.05,-7.95,-20.1,7.44,1.44,-7.68,1.6952,-2.1086,-2.642,-22.25,7.1875,17.6875,341.8125,44.0,150.5625,0
1776971051.863,9.73,-2.8874,3.6152,3.3414,-1.7571,-0.3693,-22.5,-8.25,31.35,11.0133,-0.565,0.4022,3.456,0.1391,-1.3043,-76.5,-6.75,-22.65,7.44,1.44,-7.68,1.6952,-2.1086,-2.642,-22.25,7.1875,17.6875,341.8125,44.0,150.5625,0
1776971051.868,9.7803,-3.0742,3.4093,3.2823,-1.8186,-0.4477,-21.3,-8.25,31.65,11.0133,-0.565,0.4022,3.3183,0.1236,-1.2894,-76.5,-6.75,-22.65,7.69,1.48,-7.84,1.6755,-2.1566,-2.7162,-19.6875,7.6875,15.75,340.4375,43.6875,151.4375,0
1776971051.873,9.7803,-3.0742,3.4093,3.2823,-1.8186,-0.4477,-21.3,-8.25,31.65,10.8338,-0.7566,0.1437,3.3183,0.1236,-1.2894,-74.85,-7.2,-20.85,7.69,1.48,-7.84,1.6755,-2.1566,-2.7162,-19.6875,7.6875,15.75,340.4375,43.6875,151.4375,0
1776971051.878,9.8186,-3.3184,3.1292,3.1904,-1.8783,-0.5268,-22.5,-7.8,30.9,10.8338,-0.7566,0.1437,3.2247,0.0922,-1.2772,-74.85,-7.2,-20.85,8.14,0.71,-8.35,1.669,-2.2133,-2.7816,-19.6875,7.6875,15.75,339.0625,43.3125,152.375,0
1776971051.883,9.8186,-3.3184,3.1292,3.1904,-1.8783,-0.5268,-22.5,-7.8,30.9,10.8769,-0.893,0.2035,3.2247,0.0922,-1.2772,-75.6,-7.2,-20.85,8.14,0.71,-8.35,1.621,-2.2766,-2.8449,-19.6875,7.6875,15.75,337.6875,42.9375,153.3125,0
1776971051.889,9.8713,-3.474,2.885,3.103,-1.9169,-0.6179,-21.6,-7.2,30.75,10.8769,-0.893,0.2035,3.1269,0.0437,-1.2748,-75.6,-7.2,-20.85,8.19,0.28,-8.51,1.621,-2.2766,-2.8449,-19.6875,7.6875,15.75,336.375,42.4375,154.375,0
1776971051.898,9.8497,-3.5195,2.8467,3.018,-1.9606,-0.6947,-22.5,-8.25,29.55,10.8529,-1.0989,0.1341,3.0174,-0.0392,-1.2646,-75.15,-6.9,-21.0,8.32,-0.06,-8.7,1.5086,-2.3551,-2.8962,-19.6875,7.6875,15.75,336.375,42.4375,154.375,0
1776971051.908,10.0341,-3.4141,2.8802,2.9607,-2.0368,-0.7746,-22.5,-8.25,29.55,10.8146,-1.1899,0.103,2.9239,-0.1434,-1.25,-75.3,-6.0,-21.9,8.44,-0.22,-8.88,1.3843,-2.4489,-2.9125,-19.6875,7.6875,15.75,335.1875,41.9375,155.4375,0
1776971051.913,10.0341,-3.4141,2.8802,2.9607,-2.0368,-0.7746,-22.5,-8.25,29.55,10.7141,-1.3503,-0.0311,2.8312,-0.2369,-1.2209,-75.15,-5.85,-22.2,8.44,-0.22,-8.88,1.3843,-2.4489,-2.9125,-19.6875,7.6875,15.75,333.9375,41.25,156.5625,0
1776971051.918,9.8737,-3.462,2.9521,2.8466,-2.0824,-0.8689,-23.4,-8.7,28.2,10.7141,-1.3503,-0.0311,2.8312,-0.2369,-1.2209,-75.15,-5.85,-22.2,8.2,-0.56,-8.76,1.249,-2.5351,-2.8842,-18.25,10.25,9.6875,333.9375,41.25,156.5625,0
1776971051.923,9.8737,-3.462,2.9521,2.8466,-2.0824,-0.8689,-22.95,-9.15,28.2,10.5848,-1.3886,-0.1341,2.7267,-0.3003,-1.1858,-75.15,-5.85,-22.2,8.2,-0.56,-8.76,1.249,-2.5351,-2.8842,-18.25,10.25,9.6875,333.9375,41.25,156.5625,0
1776971051.928,9.9599,-3.5961,2.8874,2.7454,-2.1354,-0.9529,-22.95,-9.15,27.9,10.5848,-1.3886,-0.1341,2.7267,-0.3003,-1.1858,-75.15,-5.85,-22.2,7.94,-0.56,-8.67,1.1257,-2.5984,-2.8285,-18.25,10.25,9.6875,332.8125,40.5625,157.6875,0
1776971051.936,9.8976,-3.7206,2.8659,2.6779,-2.2122,-1.0437,-22.95,-9.45,28.2,10.3884,-1.3024,-0.0575,2.606,-0.3464,-1.1354,-76.5,-7.2,-23.1,7.75,-0.53,-8.62,1.0134,-2.6256,-2.7478,-18.25,10.25,9.6875,18.5625,39.75,158.75,0
1776971051.94,9.8976,-3.7206,2.8659,2.6779,-2.2122,-1.0437,-22.95,-9.45,28.2,10.07,-1.2354,-0.1987,2.606,-0.3464,-1.1354,-76.5,-7.2,-23.1,7.75,-0.53,-8.62,1.0134,-2.6256,-2.7478,-18.25,10.25,9.6875,16.6875,38.9375,159.8125,0
1776971051.949,9.7779,-3.881,2.6983,2.5796,-2.291,-1.1423,-22.8,-9.0,27.3,10.07,-1.2354,-0.1987,2.4773,-0.3754,-1.0733,-77.4,-5.85,-22.2,7.6,-0.36,-8.53,0.9108,-2.63,-2.6671,-18.25,10.25,9.6875,14.875,38.0625,160.8125,0
1776971051.959,9.5457,-3.8283,2.7629,2.4736,-2.3657,-1.2351,-22.8,-9.0,27.3,9.7133,-1.1732,-0.1604,2.363,-0.3877,-0.9982,-77.25,-7.2,-23.85,7.39,-0.29,-8.37,0.8105,-2.6278,-2.5885,-18.25,10.25,9.6875,14.875,38.0625,160.8125,0
1776971051.964,9.4667,-3.7804,2.569,2.3513,-2.4213,-1.3286,-22.8,-9.0,27.3,9.5624,-1.3288,-0.2562,2.2399,-0.3848,-0.9041,-74.4,-5.85,-23.7,7.39,-0.29,-8.37,0.8105,-2.6278,-2.5885,-18.25,10.25,9.6875,14.875,38.0625,160.8125,0
1776971051.969,9.4667,-3.7804,2.569,2.3513,-2.4213,-1.3286,-22.8,-9.0,27.3,9.5624,-1.3288,-0.2562,2.2399,-0.3848,-0.9041,-74.4,-5.85,-23.7,7.25,-0.13,-8.17,0.7069,-2.6104,-2.5307,-29.75,22.5625,10.1875,13.125,37.125,161.8125,0
1776971051.973,9.2392,-3.8427,2.4301,2.2026,-2.4893,-1.4186,-26.1,-9.75,23.85,9.3039,-1.3096,-0.4046,2.144,-0.3576,-0.8092,-76.95,-8.1,-23.25,7.25,-0.13,-8.17,0.7069,-2.6104,-2.5307,-29.75,22.5625,10.1875,13.125,37.125,161.8125,0
1776971051.979,9.2392,-3.8427,2.4301,2.2026,-2.4893,-1.4186,-26.1,-9.75,23.85,9.0692,-1.2977,-0.5387,2.144,-0.3576,-0.8092,-76.95,-8.1,-23.25,7.18,0.01,-8.03,0.625,-2.558,-2.4871,-29.75,22.5625,10.1875,11.4375,36.1875,162.75,0
1776971051.979,9.2392,-3.8427,2.4301,2.2026,-2.4893,-1.4186,-26.1,-9.75,23.85,9.0692,-1.2977,-0.5387,2.144,-0.3576,-0.8092,-76.95,-8.1,-23.25,7.18,0.01,-8.03,0.625,-2.558,-2.4871,-29.75,22.5625,10.1875,11.4375,36.1875,162.75,0
1776971051.983,9.0453,-3.5123,2.4636,2.0859,-2.5562,-1.5191,-26.25,-9.9,21.9,9.0692,-1.2977,-0.5387,2.0723,-0.3397,-0.7173,-75.45,-6.15,-23.7,7.18,0.01,-8.03,0.576,-2.5067,-2.4555,-29.75,22.5625,10.1875,9.75,35.25,163.6875,0
1776971051.989,9.0453,-3.5123,2.4636,2.0859,-2.5562,-1.5191,-26.25,-9.9,21.9,8.6431,-1.2761,-0.7278,2.0147,-0.3158,-0.6166,-75.45,-6.15,-23.7,7.53,0.21,-8.11,0.576,-2.5067,-2.4555,-29.75,22.5625,10.1875,8.1875,34.3125,164.5625,0
1776971051.999,8.679,-3.45,2.6647,2.055,-2.6127,-1.6265,-25.65,-10.5,21.3,8.418,-1.1803,-0.9266,2.0147,-0.3158,-0.6166,-75.45,-6.15,-23.7,8.16,0.22,-8.62,0.5356,-2.4664,-2.414,-29.75,22.5625,10.1875,8.1875,34.3125,164.5625,0
1776971052.009,9.0142,-2.9808,2.5498,2.0355,-2.6324,-1.7139,-24.75,-10.65,20.4,9.3565,-0.8571,-1.1851,1.9937,-0.3675,-0.3909,-74.7,-5.85,-22.95,8.73,0.19,-8.96,0.4941,-2.474,-2.3769,-29.75,22.5625,10.1875,6.625,33.3125,165.375,0
1776971052.013,9.0692,-3.0694,2.988,2.0901,-2.7291,-1.788,-24.75,-10.65,20.4,9.3565,-0.8571,-1.1851,1.9937,-0.3675,-0.3909,-74.7,-5.85,-22.95,8.73,0.19,-8.96,0.4941,-2.474,-2.3769,-29.75,22.5625,10.1875,5.0625,32.25,166.125,0
1776971052.019,9.0692,-3.0694,2.988,2.0901,-2.7291,-1.788,-24.75,-10.65,20.4,7.8673,-0.8787,-0.9912,1.8242,-0.149,-0.3043,-74.7,-5.85,-22.95,9.13,0.23,-8.97,0.4778,-2.5373,-2.33,-38.875,39.6875,28.5625,5.0625,32.25,166.125,0
1776971052.023,9.6007,-2.3104,2.0949,1.9926,-2.7035,-1.8085,-26.4,-12.0,18.45,7.8673,-0.8787,-0.9912,1.8242,-0.149,-0.3043,-74.85,-9.15,-24.6,9.13,0.23,-8.97,0.4778,-2.5373,-2.33,-38.875,39.6875,28.5625,3.5625,31.1875,166.8125,0
1776971052.029,9.6007,-2.3104,2.0949,1.9926,-2.7035,-1.8085,-26.4,-12.0,18.45,8.3486,-0.6201,-1.1253,1.7158,-0.1857,-0.2395,-74.85,-9.15,-24.6,9.25,0.31,-8.62,0.4734,-2.5929,-2.3115,-38.875,39.6875,28.5625,3.5625,31.1875,166.8125,0
1776971052.037,9.5337,-2.1524,2.0925,2.0113,-2.7057,-1.8008,-25.5,-11.7,16.8,7.8602,-0.3759,-0.8619,1.7158,-0.1857,-0.2395,-73.8,-7.5,-25.65,9.17,0.28,-8.1,0.4701,-2.6027,-2.342,-38.875,39.6875,28.5625,2.0625,30.0625,167.5,0
1776971052.042,9.3637,-1.9585,2.3559,2.169,-2.7216,-1.8085,-25.65,-12.3,15.3,7.8602,-0.3759,-0.8619,1.5226,0.0733,-0.1711,-73.8,-7.5,-25.65,9.17,0.28,-8.1,0.4701,-2.6027,-2.342,-38.875,39.6875,28.5625,0.5,28.9375,168.1875,0
1776971052.049,9.3637,-1.9585,2.3559,2.169,-2.7216,-1.8085,-25.65,-12.3,15.3,8.1307,0.1844,-0.8595,1.602,0.1079,-0.1191,-76.2,-9.75,-24.0,8.7,-0.95,-6.7,0.4538,-2.5471,-2.4206,-38.875,39.6875,28.5625,358.875,27.875,168.875,0
1776971052.059,9.3182,-2.332,2.4708,2.2679,-2.7552,-1.7632,-27.75,-11.4,16.5,7.8889,0.5555,-0.5483,1.6795,0.1447,-0.1045,-75.15,-8.1,-24.3,8.32,-1.72,-6.17,0.3883,-2.4315,-2.5525,-38.875,39.6875,28.5625,358.875,27.875,168.875,0
1776971052.064,9.8067,-2.5762,2.4325,2.2183,-2.6849,-1.6771,-26.7,-12.45,14.4,7.8889,0.5555,-0.5483,1.6795,0.1447,-0.1045,-74.85,-9.9,-24.15,8.32,-1.72,-6.17,0.3883,-2.4315,-2.5525,-38.875,39.6875,28.5625,357.25,26.9375,169.5625,0
1776971052.069,9.8067,-2.5762,2.4325,2.1104,-2.7014,-1.5543,-26.7,-12.45,14.4,7.75,0.3567,-0.1556,1.6968,0.2049,-0.0874,-74.85,-9.9,-24.15,8.1,-1.93,-5.5,0.2705,-2.2395,-2.7009,-40.5625,54.5,50.75,357.25,26.9375,169.5625,0
1776971052.074,9.7085,-2.9856,1.9417,2.1104,-2.7014,-1.5543,-26.7,-12.45,14.4,7.75,0.3567,-0.1556,1.6968,0.2049,-0.0874,-74.7,-10.95,-25.05,8.1,-1.93,-5.5,0.2705,-2.2395,-2.7009,-40.5625,54.5,50.75,355.5625,26.125,170.375,0
1776971052.079,9.402,-3.1268,1.585,2.0496,-2.6692,-1.4365,-26.7,-12.45,14.4,7.7141,0.2107,-0.3136,1.6486,0.372,-0.0163,-74.7,-10.95,-25.05,8.75,-2.1,-5.03,0.1865,-2.0071,-2.8067,-40.5625,54.5,50.75,355.5625,26.125,170.375,0
1776971052.085,9.402,-3.1268,1.585,2.0496,-2.6692,-1.4365,-27.0,-13.95,12.15,7.8219,0.3089,-0.7805,1.6486,0.372,-0.0163,-74.7,-10.95,-25.05,11.03,-1.57,-4.81,0.1614,-1.7333,-2.8602,-40.5625,54.5,50.75,353.875,25.4375,171.125,0
1776971052.09,8.6646,-3.2322,1.1396,1.942,-2.5698,-1.3563,-27.0,-13.95,12.15,7.8219,0.3089,-0.7805,1.6894,0.5012,0.0727,-74.7,-10.95,-25.05,11.03,-1.57,-4.81,0.1614,-1.7333,-2.8602,-40.5625,54.5,50.75,352.1875,24.8125,171.75,0
1776971052.099,8.1714,-2.794,0.589,1.6979,-2.3979,-1.3102,-28.8,-15.9,11.85,7.9535,0.4046,-1.2019,1.5836,0.6235,0.1927,-76.2,-11.25,-24.0,12.11,-1.45,-3.99,0.2858,-1.6286,-2.8416,-40.5625,54.5,50.75,352.1875,24.8125,171.75,0
1776971052.109,7.7261,-2.241,0.1939,1.4525,-2.1927,-1.27,-27.0,-17.4,11.55,8.3007,0.6057,-1.9249,1.4117,0.6744,0.3277,-76.2,-11.25,-24.0,13.61,-1.26,-3.86,0.4778,-1.6002,-2.7653,-40.5625,54.5,50.75,350.5625,24.125,172.1875,0
1776971052.114,7.7261,-2.241,0.1939,1.4525,-2.1927,-1.27,-27.3,-14.4,11.85,8.5353,1.008,-2.9449,1.4117,0.6744,0.3277,-74.85,-11.1,-23.4,13.61,-1.26,-3.86,0.4778,-1.6002,-2.7653,-40.5625,54.5,50.75,350.5625,24.125,172.1875,0
1776971052.119,7.8386,-1.1708,0.7661,1.3118,-1.8426,-1.2281,-27.3,-14.4,11.85,8.5353,1.008,-2.9449,1.3398,0.6584,0.4391,-74.85,-11.1,-23.4,17.07,-1.35,-3.14,0.7079,-1.6341,-2.6354,-37.1875,55.875,67.1875,348.9375,23.4375,172.5,0
1776971052.124,7.8386,-1.1708,0.7661,1.3118,-1.8426,-1.2281,-27.3,-14.4,11.85,8.5497,1.664,-3.948,1.3741,0.6403,0.5145,-74.7,-13.95,-25.5,17.07,-1.35,-3.14,0.7079,-1.6341,-2.6354,-37.1875,55.875,67.1875,348.9375,23.4375,172.5,0
1776971052.129,7.6255,-0.419,1.1109,1.3542,-1.4173,-1.1223,-27.3,-14.4,11.85,8.5497,1.664,-3.948,1.3741,0.6403,0.5145,-74.7,-13.95,-25.5,18.31,-1.35,-2.88,0.8836,-1.5359,-2.4631,-37.1875,55.875,67.1875,347.4375,22.75,172.625,0
1776971052.136,7.6255,-0.419,1.1109,1.3542,-1.4173,-1.1223,-27.3,-14.4,11.85,8.5281,2.3774,-4.5466,1.4149,0.7242,0.5383,-74.85,-13.05,-25.35,18.89,-1.73,-2.2,1.0428,-1.477,-2.2318,-37.1875,55.875,67.1875,346.0625,22.0625,172.625,0
1776971052.141,7.2664,0.3208,1.4533,1.55,-1.0019,-0.9761,-29.55,-17.4,10.8,8.5281,2.3774,-4.5466,1.4149,0.7242,0.5383,-74.85,-13.05,-25.35,18.89,-1.73,-2.2,1.0428,-1.477,-2.2318,-37.1875,55.875,67.1875,344.75,21.375,172.4375,0
1776971052.149,6.7397,0.4214,0.8523,1.7877,-0.5343,-0.8218,-27.9,-18.3,11.4,8.3199,2.2505,-4.446,1.3363,0.8236,0.4836,-74.55,-13.5,-23.1,17.46,-3.85,-0.19,1.1639,-1.5664,-1.9624,-37.1875,55.875,67.1875,343.625,20.5,172.1875,0
1776971052.159,6.7971,0.1077,0.8619,2.0464,-0.1679,-0.6957,-29.55,-19.65,12.6,7.8554,1.5754,-3.7014,1.0128,0.9329,0.4112,-74.55,-14.55,-22.65,16.14,-4.65,1.3,1.2163,-1.7813,-1.7006,-37.1875,55.875,67.1875,343.625,20.5,172.1875,0
1776971052.164,6.7971,0.1077,0.8619,2.0464,-0.1679,-0.6957,-29.55,-19.65,12.6,7.4651,1.0558,-2.715,0.5055,1.0304,0.3904,-74.55,-16.5,-21.9,16.14,-4.65,1.3,1.2163,-1.7813,-1.7006,-37.1875,55.875,67.1875,342.625,19.625,171.875,0
1776971052.169,7.2616,-0.6153,1.0918,2.1821,0.1191,-0.5673,-29.7,-18.75,13.05,7.4651,1.0558,-2.715,0.5055,1.0304,0.3904,-74.55,-16.5,-21.9,14.16,-5.08,2.88,1.1541,-1.8522,-1.4573,-26.375,47.5,71.5625,342.625,19.625,171.875,0
1776971052.174,7.2616,-0.6153,1.0918,2.1821,0.1191,-0.5673,-29.7,-18.75,13.05,7.3717,0.7207,-1.7334,-0.0141,1.1074,0.3986,-74.55,-16.5,-21.9,14.16,-5.08,2.88,1.1541,-1.8522,-1.4573,-26.375,47.5,71.5625,341.8125,18.875,171.5625,0
1776971052.179,8.0062,-1.8771,-0.2753,1.8903,0.3557,-0.4293,-29.7,-18.75,13.05,7.3717,0.7207,-1.7334,-0.0141,1.1074,0.3986,-74.55,-16.5,-21.9,12.34,-4.99,4.35,1.0385,-1.5512,-1.2305,-26.375,47.5,71.5625,341.8125,18.875,171.5625,0
1776971052.186,8.418,-3.9576,0.2538,1.7464,0.5678,-0.3552,-29.7,-18.75,13.05,7.9942,0.237,-1.4892,-0.4578,1.1866,0.482,-75.15,-16.35,-21.45,13.25,-11.29,6.5,0.8105,-0.8967,-1.0428,-26.375,47.5,71.5625,341.125,18.4375,171.375,0
1776971052.19,8.418,-3.9576,0.2538,1.7464,0.5678,-0.3552,-31.2,-21.3,14.25,9.0764,-0.0958,-1.4557,-0.4578,1.1866,0.482,-75.15,-16.35,-21.45,13.25,-11.29,6.5,0.8105,-0.8967,-1.0428,-26.375,47.5,71.5625,340.3125,18.375,171.375,0
1776971052.199,9.5864,-2.4948,0.8643,1.0333,0.8895,-0.243,-31.5,-21.3,14.85,9.0764,-0.0958,-1.4557,-0.5958,1.1546,0.5974,-73.95,-17.55,-23.7,9.49,-3.5,8.1,0.4309,-0.3894,-1.3821,-26.375,47.5,71.5625,339.625,18.5,171.5,0
1776971052.209,12.2248,-1.4916,-1.7837,-0.6813,1.0536,-0.129,-32.25,-21.3,15.6,12.0045,-0.6105,-0.3998,-0.3709,1.1591,0.6989,-73.95,-18.0,-21.45,7.21,1.19,11.08,0.1985,0.144,-1.177,-26.375,47.5,71.5625,339.625,18.5,171.5,0
1776971052.214,18.5527,-0.4238,-5.2529,-1.5503,0.8404,-0.2928,-32.25,-21.3,15.6,12.0045,-0.6105,-0.3998,-0.3523,1.1935,0.8191,-73.95,-18.0,-21.45,7.21,1.19,11.08,0.1985,0.144,-1.177,-26.375,47.5,71.5625,339.625,18.5,171.5,0
1776971052.219,18.5527,-0.4238,-5.2529,-1.5503,0.8404,-0.2928,-31.95,-20.25,15.3,17.1568,-1.5131,0.8978,-0.3523,1.1935,0.8191,-73.95,-19.05,-22.95,6.53,-4.57,-23.25,1.933,1.5915,0.8061,-18.875,47.75,69.1875,340.0,19.3125,170.1875,0
1776971052.224,21.3874,1.9082,-1.7741,-0.7831,0.4578,-0.6094,-31.95,-20.25,15.3,17.1568,-1.5131,0.8978,-0.7775,1.2558,1.0192,-74.4,-19.05,-20.25,6.53,-4.57,-23.25,1.933,1.5915,0.8061,-18.875,47.75,69.1875,340.0,19.3125,170.1875,0
1776971052.229,21.3874,1.9082,-1.7741,-0.7831,0.4578,-0.6094,-32.85,-21.15,16.5,21.9524,0.893,-0.9266,-0.7775,1.2558,1.0192,-74.4,-19.05,-20.25,17.35,-7.82,-29.68,2.618,4.1266,1.8762,-18.875,47.75,69.1875,340.9375,21.375,168.25,0
1776971052.239,17.2287,2.1261,0.3352,0.7789,0.8351,-0.7248,-32.85,-21.15,16.5,20.0969,2.1979,-1.8459,-0.7064,1.178,1.0424,-72.45,-21.45,-22.2,17.56,-5.44,-11.2,0.853,4.8095,0.9141,-18.875,47.75,69.1875,341.625,23.875,167.3125,0
1776971052.248,14.2958,-2.0973,-0.3831,1.1072,0.8553,-0.4501,-33.15,-19.65,16.5,14.3317,1.403,0.8882,-0.2928,0.7477,0.5502,-72.45,-21.45,-22.2,14.09,-5.41,-16.41,0.2793,1.0407,0.3262,-18.875,47.75,69.1875,341.875,24.375,167.0,0
1776971052.254,9.7851,-4.3838,-0.3184,0.841,0.9531,-0.413,-33.15,-19.65,16.5,14.3317,1.403,0.8882,-0.2542,0.9662,-0.0802,-72.45,-21.45,-22.2,14.09,-5.41,-16.41,0.3262,-0.4385,0.3272,-18.875,47.75,69.1875,341.9375,24.125,166.75,0
1776971052.26,9.7851,-4.3838,-0.3184,0.841,0.9531,-0.413,-34.5,-20.25,18.45,9.098,-0.9361,3.2202,-0.5033,1.3563,-0.3128,-73.65,-21.45,-22.2,11.75,-7.58,-13.25,0.3262,-0.4385,0.3272,-18.875,47.75,69.1875,341.9375,24.125,166.75,0
1776971052.265,9.5816,-3.9983,-1.4437,-0.1364,1.0024,-0.2393,-34.5,-20.25,18.45,9.098,-0.9361,3.2202,-0.5033,1.3563,-0.3128,-73.65,-21.45,-22.2,11.75,-7.58,-13.25,-0.0447,-0.516,-0.0196,-20.5625,48.5625,65.875,341.9375,23.875,166.8125,0
1776971052.27,9.5816,-3.9983,-1.4437,-0.1364,1.0024,-0.2393,-34.8,-19.8,18.15,7.8961,-2.3056,3.0789,-1.0523,1.7717,-0.202,-73.65,-21.45,-22.2,3.22,-4.18,-7.16,-0.0447,-0.516,-0.0196,-20.5625,48.5625,65.875,341.9375,23.875,166.8125,0
1776971052.275,8.4156,-1.743,-1.1708,-1.0139,0.813,-0.0679,-34.8,-19.8,18.15,7.8961,-2.3056,3.0789,-1.0523,1.7717,-0.202,-72.45,-23.4,-19.5,3.22,-4.18,-7.16,-0.2094,-0.432,-0.0065,-20.5625,48.5625,65.875,341.9375,23.625,167.0,0
1776971052.28,8.4156,-1.743,-1.1708,-1.0139,0.813,-0.0679,-33.75,-21.0,17.7,8.5928,-1.4341,1.4198,-1.6537,1.9713,0.0203,-72.45,-23.4,-19.5,2.38,-0.24,-8.71,-0.2094,-0.432,-0.0065,-20.5625,48.5625,65.875,341.9375,23.625,167.0,0
1776971052.288,8.0302,-0.4381,-0.4932,-1.5625,0.8503,0.0354,-33.75,-21.0,17.7,7.8243,0.1077,1.2402,-1.7088,1.4791,0.2731,-72.0,-22.95,-18.75,4.65,-0.74,-8.19,-0.3251,0.3022,-0.2476,-20.5625,48.5625,65.875,341.875,23.8125,167.1875,0
1776971052.293,8.7388,0.8068,-2.1955,-1.6214,0.8021,0.1029,-33.75,-21.0,17.7,7.8243,0.1077,1.2402,-1.7088,1.4791,0.2731,-72.0,-22.95,-18.75,4.65,-0.74,-8.19,-0.3349,0.4309,-0.2498,-20.5625,48.5625,65.875,341.75,24.0625,167.4375,0
1776971052.3,8.7388,0.8068,-2.1955,-1.6214,0.8021,0.1029,-33.75,-21.0,17.7,7.3957,0.2705,1.4964,-1.4176,1.2321,0.4698,-72.6,-24.45,-18.6,5.11,-0.21,-9.27,-0.3349,0.4309,-0.2498,-20.5625,48.5625,65.875,341.6875,24.125,167.625,0
1776971052.31,8.8274,2.5426,-3.8188,-1.0664,0.7658,0.0488,-35.1,-20.55,17.4,7.5034,0.0144,1.2785,-0.8569,1.0544,0.6179,-72.6,-23.25,-19.05,4.99,-0.81,-8.62,-0.2716,0.0785,-0.2422,-20.5625,48.5625,65.875,341.6875,24.125,167.625,0
1776971052.314,7.9895,4.2186,-3.802,-0.0778,0.7837,-0.1697,-35.1,-20.55,17.4,7.5034,0.0144,1.2785,-0.8569,1.0544,0.6179,-72.6,-23.25,-19.05,4.99,-0.81,-8.62,-0.2716,0.0785,-0.2422,-20.5625,48.5625,65.875,341.6875,24.125,167.625,0
1776971052.319,7.9895,4.2186,-3.802,-0.0778,0.7837,-0.1697,-35.1,-21.75,18.45,8.0661,0.7111,0.6776,-0.1809,0.9481,0.7237,-70.95,-23.85,-18.45,4.38,-2.33,-8.48,-0.2443,-0.048,-0.2258,-23.0,49.375,66.0625,341.5625,24.125,167.8125,0
1776971052.324,8.2073,3.2705,-2.9377,0.7104,0.8298,-0.3675,-35.1,-21.75,18.45,8.2049,0.8236,0.2346,-0.1809,0.9481,0.7237,-70.95,-23.85,-18.45,4.38,-2.33,-8.48,-0.2443,-0.048,-0.2258,-23.0,49.375,66.0625,341.5625,24.125,167.8125,0
1776971052.329,8.2073,3.2705,-2.9377,0.7104,0.8298,-0.3675,-35.4,-22.2,18.6,8.2049,0.8236,0.2346,0.5209,0.8756,0.728,-70.5,-25.05,-17.4,4.21,-1.25,-8.25,-0.3447,0.2029,-0.2618,-23.0,49.375,66.0625,341.5,24.3125,168.0625,0
1776971052.339,8.3821,1.4293,-2.162,0.9598,0.8396,-0.4538,-36.6,-21.0,17.7,8.023,2.0638,0.0455,0.9281,0.9539,0.6443,-70.5,-25.05,-17.4,3.98,-0.11,-8.12,-0.4287,0.3316,-0.2563,-23.0,49.375,66.0625,341.4375,24.5,168.375,0
1776971052.348,8.2815,0.2634,-1.8794,0.9497,0.7975,-0.482,-36.6,-21.0,17.7,7.9727,2.1883,0.4166,1.234,1.0938,0.5225,-70.2,-25.8,-17.7,3.52,-0.69,-7.62,-0.3872,0.2236,-0.1745,-23.0,49.375,66.0625,341.375,24.625,168.625,0
1776971052.353,8.6598,0.486,-2.0327,0.9206,0.7949,-0.5025,-36.6,-21.0,17.7,8.995,1.154,1.1851,1.234,1.0938,0.5225,-70.2,-25.8,-17.7,3.52,-0.69,-7.62,-0.3872,0.2236,-0.1745,-23.0,49.375,66.0625,341.375,24.75,168.75,0
1776971052.36,9.6678,0.9194,-1.4533,0.9062,0.7834,-0.5073,-37.35,-22.05,21.3,8.995,1.154,1.1851,1.2854,1.17,0.4978,-70.2,-25.8,-17.7,3.88,-1.53,-7.72,-0.2662,0.2269,-0.1004,-23.0,49.375,66.0625,341.375,24.75,168.75,0
1776971052.365,9.6678,0.9194,-1.4533,0.9062,0.7834,-0.5073,-37.35,-22.05,21.3,9.9407,0.5914,2.1356,1.178,1.092,0.5167,-70.2,-25.8,-17.7,3.88,-1.53,-7.72,-0.1865,0.5945,-0.1418,-23.875,48.25,67.25,341.3125,25.125,168.875,0
1776971052.37,10.0533,1.6712,-1.3431,0.8924,0.7663,-0.4642,-35.85,-21.3,19.5,9.9407,0.5914,2.1356,1.178,1.092,0.5167,-69.45,-28.05,-15.9,4.48,-1.48,-8.18,-0.1865,0.5945,-0.1418,-23.875,48.25,67.25,341.3125,25.125,168.875,0
1776971052.375,10.0533,1.6712,-1.3431,0.8924,0.7663,-0.4642,-35.85,-21.3,19.5,10.0269,1.0175,2.1859,1.2361,0.9414,0.5534,-69.45,-28.05,-15.9,4.48,-1.48,-8.18,-0.1865,0.5945,-0.1418,-23.875,48.25,67.25,341.3125,25.5625,168.9375,0
1776971052.38,9.9862,2.636,-2.0877,0.9611,0.761,-0.4088,-37.35,-22.8,21.0,10.0269,1.0175,2.1859,1.2361,0.9414,0.5534,-69.45,-27.0,-15.15,5.15,-1.53,-8.76,-0.1298,0.8116,-0.18,-23.875,48.25,67.25,341.3125,25.5625,168.9375,0
1776971052.388,9.9862,2.636,-2.0877,0.9611,0.761,-0.4088,-37.95,-22.95,22.5,10.4028,2.0494,2.2913,1.0744,0.9414,0.5662,-68.4,-29.55,-15.3,4.96,-1.21,-8.7,-0.0753,0.6065,-0.156,-23.875,48.25,67.25,341.25,25.9375,169.0,0
1776971052.392,9.7085,3.3615,-1.9489,1.1679,0.7234,-0.3611,-37.95,-22.95,22.5,10.5369,2.4708,2.2482,1.0744,0.9414,0.5662,-68.4,-29.55,-15.3,4.96,-1.21,-8.7,-0.0753,0.6065,-0.156,-23.875,48.25,67.25,341.1875,26.125,169.0,0
1776971052.4,9.4643,3.3399,-1.6041,1.2143,0.6971,-0.3019,-37.35,-23.55,23.4,10.5369,2.4708,2.2482,0.979,0.8183,0.4919,-68.25,-28.95,-15.45,4.89,-1.48,-8.34,-0.0196,0.3491,-0.1113,-23.875,48.25,67.25,341.1875,26.3125,169.0625,0
1776971052.41,9.4523,2.7869,-1.415,1.1045,0.6872,-0.2364,-37.35,-23.55,23.4,10.4339,2.3367,1.8627,0.8412,0.8306,0.3701,-68.4,-29.85,-13.05,4.74,-1.35,-8.58,-0.0033,0.3207,-0.1134,-23.875,48.25,67.25,341.1875,26.3125,169.0625,0
1776971052.415,9.4523,2.7869,-1.415,1.1045,0.6872,-0.2364,-0.75,-23.55,23.4,10.4004,2.0279,1.3527,0.7293,0.8164,0.2478,-68.4,-29.85,-13.05,4.74,-1.35,-8.58,-0.0033,0.3207,-0.1134,-23.875,48.25,67.25,341.125,26.5,169.0625,0
1776971052.42,9.7252,2.5738,-1.822,0.7866,0.72,-0.1444,-39.15,-22.5,24.9,10.4004,2.0279,1.3527,0.7293,0.8164,0.2478,-68.7,-29.25,-12.15,5.03,-2.12,-8.71,-0.0393,0.3807,-0.1353,-26.0625,46.5625,66.0625,341.125,26.5,169.0625,0
1776971052.424,9.7252,2.5738,-1.822,0.7866,0.72,-0.1444,-37.95,-23.7,25.05,10.3956,2.1117,0.9529,0.5084,0.7512,0.1703,-68.7,-29.25,-12.15,5.03,-2.12,-8.71,-0.0393,0.3807,-0.1353,-26.0625,46.5625,66.0625,341.0625,26.75,169.125,0
1776971052.43,9.7085,2.0877,-2.0111,0.3192,0.7578,-0.0442,-37.95,-23.7,25.05,10.3956,2.1117,0.9529,0.5084,0.7512,0.1703,-68.7,-29.25,-12.15,5.17,-1.6,-8.66,-0.0535,0.3392,-0.1254,-26.0625,46.5625,66.0625,341.0625,26.75,169.125,0
1776971052.438,9.3996,1.9537,-1.7382,-0.2054,0.7687,0.0413,-38.25,-23.4,27.9,10.1586,2.5115,0.6536,0.2691,0.724,0.1018,-68.25,-30.9,-11.85,5.03,-0.84,-8.32,-0.0513,0.2585,-0.0796,-26.0625,46.5625,66.0625,341.0625,26.875,169.1875,0
1776971052.443,9.3996,1.9537,-1.7382,-0.2054,0.7687,0.0413,-38.25,-23.4,27.9,9.9599,2.296,0.9002,0.0176,0.7352,0.0344,-68.25,-30.9,-11.85,5.03,-0.84,-8.32,-0.0513,0.2585,-0.0796,-26.0625,46.5625,66.0625,341.0625,27.0,169.1875,0
1776971052.45,9.2368,1.9728,-1.8723,-0.6742,0.7767,0.1114,-37.95,-23.7,25.35,9.6726,2.2649,1.1444,0.0176,0.7352,0.0344,-67.2,-30.45,-11.4,4.69,-1.14,-8.21,-0.0251,0.2062,-0.036,-26.0625,46.5625,66.0625,341.0625,27.125,169.1875,0
1776971052.46,9.2536,2.0542,-1.9225,-0.9601,0.7946,0.1964,-37.95,-23.7,25.35,9.6845,1.9728,0.9433,-0.6318,0.659,0.0147,-68.4,-31.05,-11.55,4.77,-1.32,-8.32,-0.0022,0.228,-0.0175,-26.0625,46.5625,66.0625,341.0625,27.125,169.1875,0
1776971052.465,9.2536,2.0542,-1.9225,-0.9601,0.7946,0.1964,-37.65,-23.55,27.0,9.6845,1.9728,0.9433,-0.6318,0.659,0.0147,-68.4,-31.05,-11.55,4.77,-1.32,-8.32,-0.0022,0.228,-0.0175,-26.0625,46.5625,66.0625,341.0625,27.125,169.1875,0
1776971052.47,9.5984,2.2865,-1.8387,-1.0429,0.813,0.2633,-37.65,-23.55,27.0,9.6678,1.5945,0.9936,-0.9193,0.5854,0.0269,-67.95,-29.7,-11.4,4.86,-1.42,-8.29,0.024,0.2509,0.0131,-27.5625,45.5625,66.0625,341.0625,27.25,169.125,0
1776971052.475,9.5984,2.2865,-1.8387,-1.0429,0.813,0.2633,-39.75,-24.9,28.65,9.6678,1.5945,0.9936,-0.9193,0.5854,0.0269,-67.95,-29.7,-11.4,4.86,-1.42,-8.29,0.024,0.2509,0.0131,-27.5625,45.5625,66.0625,341.0625,27.25,169.125,0
1776971052.48,9.4379,2.4397,-1.8172,-0.9681,0.8186,0.2803,-39.75,-24.9,28.65,9.426,0.9505,1.0654,-1.109,0.5255,0.0394,-67.5,-32.4,-9.9,4.92,-1.3,-8.29,0.0305,0.3,0.0218,-27.5625,45.5625,66.0625,341.0625,27.4375,169.125,0
1776971052.485,9.5026,2.5091,-1.5921,-0.7733,0.8167,0.2928,-38.55,-24.45,26.1,9.426,0.9505,1.0654,-1.109,0.5255,0.0394,-67.5,-32.4,-9.9,4.92,-1.3,-8.29,0.0055,0.3458,0.012,-27.5625,45.5625,66.0625,341.125,27.625,169.0625,0
1776971052.491,9.5026,2.5091,-1.5921,-0.7733,0.8167,0.2928,-38.55,-24.45,26.1,9.5241,0.6464,1.0439,-1.1245,0.458,0.0362,-66.6,-31.5,-10.5,5.01,-1.55,-8.37,0.0055,0.3458,0.012,-27.5625,45.5625,66.0625,341.125,27.625,169.0625,0
1776971052.5,9.4954,2.3032,-1.5203,-0.5473,0.813,0.3096,-38.55,-22.95,26.1,9.5289,0.5195,1.2761,-1.0312,0.3741,0.0354,-66.6,-31.5,-10.5,5.04,-1.6,-8.33,-0.0305,0.4069,-0.0076,-27.5625,45.5625,66.0625,341.125,27.875,169.0625,0
1776971052.504,9.3565,1.81,-1.4006,-0.3872,0.8042,0.3134,-38.55,-23.7,28.2,9.5289,0.5195,1.2761,-1.0312,0.3741,0.0354,-66.6,-31.5,-10.5,5.04,-1.6,-8.33,-0.0774,0.4592,-0.0153,-27.5625,45.5625,66.0625,341.125,28.125,169.125,0
1776971052.511,9.3565,1.81,-1.4006,-0.3872,0.8042,0.3134,-38.55,-23.7,28.2,9.3733,0.5124,1.6975,-0.882,0.3288,0.0173,-66.75,-30.45,-9.9,4.99,-1.41,-8.19,-0.0774,0.4592,-0.0153,-27.5625,45.5625,66.0625,341.125,28.125,169.125,0
1776971052.516,9.3422,1.5802,-0.9697,-0.2185,0.7893,0.319,-38.55,-23.7,28.2,9.3733,0.5124,1.6975,-0.882,0.3288,0.0173,-66.75,-30.45,-9.9,4.99,-1.41,-8.19,-0.0774,0.4592,-0.0153,-28.0,45.5,66.5,341.1875,28.4375,169.125,0
1776971052.521,9.3422,1.5802,-0.9697,-0.2185,0.7893,0.319,-38.55,-23.7,28.2,9.0668,0.5674,2.2003,-0.721,0.3419,-0.0107,-66.75,-30.45,-9.9,4.89,-1.3,-8.1,-0.1058,0.4854,0.0,-28.0,45.5,66.5,341.1875,28.4375,169.125,0
1776971052.525,9.2608,1.2354,-0.3831,-0.1119,0.7671,0.3011,-39.0,-22.65,28.95,9.0668,0.5674,2.2003,-0.721,0.3419,-0.0107,-66.75,-30.45,-9.9,4.89,-1.3,-8.1,-0.1058,0.4854,0.0,-28.0,45.5,66.5,341.1875,28.75,169.1875,0
1776971052.531,9.2608,1.2354,-0.3831,-0.1119,0.7671,0.3011,-39.0,-22.65,28.95,9.0453,0.4238,2.7054,-0.591,0.3512,-0.0437,-67.95,-29.7,-8.4,5.21,-1.4,-8.13,-0.1254,0.528,0.012,-28.0,45.5,66.5,341.1875,28.75,169.1875,0
1776971052.535,9.3661,1.0032,0.2107,-0.0866,0.7546,0.2899,-37.05,-25.8,29.55,9.0453,0.4238,2.7054,-0.591,0.3512,-0.0437,-67.95,-29.7,-8.4,5.21,-1.4,-8.13,-0.1571,0.6109,-0.0098,-28.0,45.5,66.5,341.25,29.125,169.25,0
1776971052.541,9.3661,1.0032,0.2107,-0.0866,0.7546,0.2899,-37.05,-25.8,29.55,8.9136,0.237,3.0933,-0.5247,0.3403,-0.052,-68.85,-31.05,-10.05,5.23,-1.27,-8.14,-0.1571,0.6109,-0.0098,-28.0,45.5,66.5,341.25,29.125,169.25,0
1776971052.55,9.5098,0.814,0.3496,-0.1524,0.7424,0.2907,-37.2,-24.9,30.0,8.9064,0.1844,3.2298,-0.4778,0.3222,-0.0501,-68.25,-28.95,-8.4,5.14,-1.4,-8.17,-0.1778,0.6523,-0.0207,-28.0,45.5,66.5,341.3125,29.5,169.375,0
1776971052.56,9.663,0.5028,0.6416,-0.2332,0.7213,0.2878,-37.95,-23.7,30.45,8.8155,0.2346,3.4213,-0.4269,0.3123,-0.0333,-66.9,-29.85,-8.7,5.66,-1.42,-8.31,-0.192,0.6829,-0.024,-28.0,45.5,66.5,341.375,29.875,169.4375,0
1776971052.564,9.9719,0.3926,0.6297,-0.3328,0.6925,0.3048,-37.5,-25.65,30.75,8.904,0.2634,3.4812,-0.4269,0.3123,-0.0333,-66.9,-29.85,-8.7,5.66,-1.42,-8.31,-0.192,0.6829,-0.024,-28.0,45.5,66.5,341.375,29.875,169.4375,0
1776971052.57,9.9719,0.3926,0.6297,-0.3328,0.6925,0.3048,-37.5,-25.65,30.75,8.904,0.2634,3.4812,-0.3802,0.328,-0.0088,-68.85,-29.85,-8.25,5.67,-1.28,-8.26,-0.1887,0.6709,-0.0207,-28.5625,44.25,64.75,341.375,30.25,169.5,0
1776971052.574,9.7396,0.4022,0.7757,-0.4279,0.6755,0.3256,-37.5,-25.65,30.75,9.0094,0.261,3.2825,-0.3802,0.328,-0.0088,-68.85,-29.85,-8.25,5.67,-1.28,-8.26,-0.1887,0.6709,-0.0207,-28.5625,44.25,64.75,341.375,30.25,169.5,0
1776971052.579,9.7396,0.4022,0.7757,-0.4279,0.6755,0.3256,-37.5,-25.65,30.75,9.0094,0.261,3.2825,-0.3437,0.3477,0.0237,-69.0,-30.9,-9.9,5.77,-1.21,-8.2,-0.1734,0.624,-0.0087,-28.5625,44.25,64.75,341.4375,30.5625,169.5625,0
1776971052.584,9.9024,0.4429,0.6369,-0.481,0.6624,0.3238,-36.75,-25.2,31.5,9.0261,0.2993,2.9951,-0.3437,0.3477,0.0237,-69.0,-30.9,-9.9,5.77,-1.21,-8.2,-0.1396,0.5803,-0.0131,-28.5625,44.25,64.75,341.5,30.875,169.625,0
1776971052.591,9.9024,0.4429,0.6369,-0.481,0.6624,0.3238,-36.75,-25.2,31.5,9.0261,0.2993,2.9951,-0.3059,0.3637,0.0504,-69.0,-30.9,-9.9,5.91,-1.13,-8.1,-0.1396,0.5803,-0.0131,-28.5625,44.25,64.75,341.5,31.1875,169.625,0
1776971052.6,9.7971,0.3639,0.3376,-0.5002,0.6435,0.3267,-35.85,-24.0,30.6,9.0405,0.091,2.6624,-0.2926,0.3976,0.0853,-68.1,-28.65,-8.25,5.8,-1.29,-8.26,-0.1178,0.5127,-0.0109,-28.5625,44.25,64.75,341.5625,31.4375,169.625,0
1776971052.61,9.6414,0.4453,0.103,-0.4634,0.6227,0.3043,-36.75,-25.2,30.75,9.1339,-0.0479,2.2098,-0.2825,0.4229,0.1114,-68.1,-28.65,-8.25,5.81,-1.29,-8.13,-0.0676,0.4527,0.0044,-28.5625,44.25,64.75,341.5625,31.4375,169.625,0
1776971052.615,9.596,0.3903,0.0479,-0.4101,0.6033,0.2785,-37.2,-24.15,31.5,9.1171,-0.0958,1.834,-0.2878,0.4463,0.1346,-68.1,-28.65,-8.25,5.81,-1.29,-8.13,-0.0676,0.4527,0.0044,-28.5625,44.25,64.75,341.625,31.6875,169.625,0
1776971052.62,9.596,0.3903,0.0479,-0.3621,0.5929,0.2494,-37.2,-24.15,31.5,9.1171,-0.0958,1.834,-0.2878,0.4463,0.1346,-68.4,-29.85,-7.95,5.72,-1.37,-8.0,-0.0196,0.4211,0.0196,-31.1875,44.5625,64.375,341.625,31.6875,169.625,0
1776971052.625,9.6367,0.5291,-0.0575,-0.3621,0.5929,0.2494,-37.2,-24.15,31.5,9.2129,0.0,1.5323,-0.3166,0.4143,0.1692,-68.4,-29.85,-7.95,5.72,-1.37,-8.0,-0.0196,0.4211,0.0196,-31.1875,44.5625,64.375,341.625,31.875,169.625,0
1776971052.63,9.6869,0.644,-0.1652,-0.3264,0.5796,0.2427,-37.2,-24.15,31.5,9.2129,0.0,1.5323,-0.3166,0.4143,0.1692,-69.75,-29.7,-6.9,5.73,-1.3,-8.07,-0.0153,0.4222,0.0316,-31.1875,44.5625,64.375,341.625,31.875,169.625,0
1776971052.635,9.6869,0.644,-0.1652,-0.3264,0.5796,0.2427,-36.0,-24.9,32.85,9.2392,0.3352,1.3264,-0.3472,0.384,0.194,-69.75,-29.7,-6.9,5.73,-1.3,-8.07,-0.0262,0.4592,0.0284,-31.1875,44.5625,64.375,341.6875,32.1875,169.5625,0
1776971052.641,9.821,0.9098,-0.2801,-0.2454,0.5881,0.2398,-36.0,-24.45,32.1,9.2392,0.3352,1.3264,-0.3472,0.384,0.194,-66.75,-28.95,-8.85,5.69,-1.27,-7.92,-0.0262,0.4592,0.0284,-31.1875,44.5625,64.375,341.6875,32.1875,169.5625,0
1776971052.65,9.8545,1.1037,-0.3352,-0.1524,0.5801,0.2457,-36.0,-24.45,32.1,9.2799,0.4788,1.4222,-0.3917,0.3712,0.2129,-67.35,-29.1,-8.7,5.62,-1.15,-7.89,-0.0393,0.4865,0.0218,-31.1875,44.5625,64.375,341.6875,32.5,169.625,0
1776971052.655,9.8545,1.1037,-0.3352,-0.1524,0.5801,0.2457,-37.05,-23.55,33.0,9.4308,0.6273,1.4844,-0.4151,0.381,0.2358,-67.35,-29.1,-8.7,5.62,-1.15,-7.89,-0.0447,0.5236,0.0196,-31.1875,44.5625,64.375,341.75,32.8125,169.625,0
1776971052.661,9.7229,1.1708,-0.4142,-0.0493,0.5812,0.2526,-36.45,-25.2,32.85,9.4188,0.8739,1.585,-0.4151,0.381,0.2358,-69.0,-30.0,-8.85,5.57,-1.2,-7.89,-0.0447,0.5236,0.0196,-31.1875,44.5625,64.375,341.75,32.8125,169.625,0
1776971052.666,9.7229,1.1708,-0.4142,-0.0493,0.5812,0.2526,-36.45,-25.2,32.85,9.4188,0.8739,1.585,-0.4207,0.3904,0.251,-69.0,-30.0,-8.85,5.87,-1.33,-7.96,-0.0295,0.5356,0.0229,-32.25,45.6875,64.375,341.75,33.125,169.5625,0
1776971052.671,9.5672,1.1468,-0.4453,0.0101,0.5891,0.2635,-36.45,-24.9,32.1,9.5505,1.2929,1.6664,-0.4207,0.3904,0.251,-68.7,-29.25,-8.1,5.87,-1.33,-7.96,-0.0295,0.5356,0.0229,-32.25,45.6875,64.375,341.75,33.125,169.5625,0
1776971052.676,9.5672,1.1468,-0.4453,0.0101,0.5891,0.2635,-36.45,-24.9,32.1,9.5505,1.2929,1.6664,-0.4207,0.3813,0.2614,-68.7,-29.25,-8.1,5.87,-1.33,-7.96,-0.0251,0.5476,0.0109,-32.25,45.6875,64.375,341.8125,33.4375,169.5625,0
1776971052.681,9.5217,1.312,-0.3926,0.028,0.6102,0.2923,-36.45,-24.9,32.1,9.4499,1.6305,1.7406,-0.4149,0.3818,0.2598,-68.7,-29.25,-8.1,6.03,-1.27,-7.93,-0.0251,0.5476,0.0109,-32.25,45.6875,64.375,341.8125,33.4375,169.5625,0
1776971052.686,9.5217,1.312,-0.3926,0.028,0.6102,0.2923,-36.45,-24.9,32.1,9.4499,1.6305,1.7406,-0.4149,0.3818,0.2598,-68.7,-29.25,-8.1,6.03,-1.27,-7.93,-0.0295,0.5258,0.0033,-32.25,45.6875,64.375,341.8125,33.75,169.5625,0
1776971052.692,9.675,1.5251,-0.5555,0.0181,0.64,0.3174,-34.95,-24.9,33.9,9.3829,1.9082,1.7909,-0.3978,0.389,0.2651,-68.25,-28.5,-8.85,6.01,-1.11,-7.81,-0.0295,0.5258,0.0033,-32.25,45.6875,64.375,341.875,34.0,169.5625,0
1776971052.7,9.5864,1.506,-0.5674,0.0029,0.6534,0.3453,-37.05,-24.0,33.75,9.3685,2.1117,1.8699,-0.3675,0.405,0.2614,-68.25,-28.5,-8.85,6.03,-1.28,-7.86,-0.0273,0.4701,-0.0055,-32.25,45.6875,64.375,341.875,34.25,169.5,0
1776971052.71,9.663,1.7095,-0.6416,-0.0549,0.6811,0.3864,-34.8,-25.05,34.8,9.4691,2.1452,1.9465,-0.3192,0.4221,0.2625,-69.6,-27.9,-9.75,6.01,-1.2,-7.87,-0.0251,0.4516,0.0011,-32.25,45.6875,64.375,341.875,34.25,169.5,0
1776971052.715,9.663,1.7095,-0.6416,-0.0549,0.6811,0.3864,-34.8,-25.05,34.8,9.4691,2.1452,1.9465,-0.3192,0.4221,0.2625,-69.6,-27.9,-9.75,6.01,-1.2,-7.87,-0.0251,0.4516,0.0011,-32.25,45.6875,64.375,341.875,34.5,169.5,0
1776971052.72,9.7037,1.798,-0.6393,-0.0394,0.6848,0.4018,-35.85,-24.3,34.2,9.4786,2.0853,1.9896,-0.2718,0.4306,0.2617,-69.0,-28.5,-9.15,5.9,-1.11,-7.74,-0.0131,0.4701,-0.0218,-33.375,45.5625,63.1875,341.875,34.5,169.5,0
1776971052.725,9.7037,1.798,-0.6393,-0.0394,0.6848,0.4018,-35.85,-24.3,34.2,9.4786,2.0853,1.9896,-0.2718,0.4306,0.2617,-69.0,-28.5,-9.15,5.9,-1.11,-7.74,-0.0131,0.4701,-0.0218,-33.375,45.5625,63.1875,341.875,34.75,169.5,0
1776971052.73,9.5074,1.7765,-0.5267,0.0043,0.6933,0.408,-35.85,-24.3,34.2,9.4739,2.0758,1.9441,-0.2204,0.4322,0.251,-68.85,-27.9,-7.5,5.87,-1.17,-7.76,-0.0022,0.48,-0.0251,-33.375,45.5625,63.1875,341.875,34.75,169.5,0
1776971052.735,9.5074,1.7765,-0.5267,0.0043,0.6933,0.408,-35.85,-24.3,34.2,9.4739,2.0758,1.9441,-0.2204,0.4322,0.251,-68.85,-27.9,-7.5,5.87,-1.17,-7.76,-0.0055,0.5029,-0.0229,-33.375,45.5625,63.1875,341.875,35.0625,169.5,0
1776971052.741,9.493,1.5323,-0.5626,-0.0229,0.733,0.4269,-35.85,-24.3,34.2,9.4667,1.9944,1.9225,-0.1796,0.4218,0.2475,-67.5,-28.95,-8.1,5.97,-1.11,-7.73,-0.0055,0.5029,-0.0229,-33.375,45.5625,63.1875,341.875,35.0625,169.5,0
1776971052.75,9.3158,1.4246,-0.7374,-0.0157,0.7666,0.4639,-34.5,-24.0,35.25,9.3757,1.822,1.8244,-0.1338,0.4173,0.2321,-67.5,-28.95,-8.1,6.12,-1.08,-7.68,-0.0065,0.5378,-0.0305,-33.375,45.5625,63.1875,341.875,35.375,169.5,0
1776971052.755,9.3158,1.4246,-0.7374,-0.0157,0.7666,0.4639,-34.5,-24.0,35.25,9.3757,1.822,1.8244,-0.1338,0.4173,0.2321,-67.5,-28.95,-8.1,6.12,-1.08,-7.68,-0.0098,0.564,-0.0371,-33.375,45.5625,63.1875,341.875,35.75,169.5,0
1776971052.761,9.4164,1.1851,-0.6201,-0.024,0.8199,0.4914,-34.8,-25.8,37.35,9.4763,1.6017,1.6161,-0.0925,0.4189,0.2132,-70.35,-26.7,-9.0,6.23,-1.17,-7.73,-0.0098,0.564,-0.0371,-33.375,45.5625,63.1875,341.875,35.75,169.5,0
1776971052.766,9.3805,0.8978,-0.7709,-0.0501,0.8567,0.5265,-34.8,-25.8,37.35,9.4547,1.3934,1.482,-0.0925,0.4189,0.2132,-70.35,-26.7,-9.0,6.23,-1.17,-7.73,-0.0109,0.577,-0.0415,-34.75,45.5625,62.25,341.875,36.0625,169.5,0
1776971052.771,9.3805,0.8978,-0.7709,-0.0501,0.8567,0.5265,-34.2,-25.95,36.75,9.4547,1.3934,1.482,-0.0506,0.4013,0.2041,-70.35,-26.7,-9.0,6.37,-1.04,-7.6,-0.0109,0.577,-0.0415,-34.75,45.5625,62.25,341.875,36.0625,169.5,0
1776971052.776,9.232,1.0056,-0.6919,-0.0997,0.9017,0.5665,-34.2,-25.95,36.75,9.3853,1.1827,1.0918,-0.0506,0.4013,0.2041,-70.35,-26.7,-9.0,6.37,-1.04,-7.6,-0.0185,0.5618,-0.0425,-34.75,45.5625,62.25,341.875,36.375,169.5,0
1776971052.781,9.232,1.0056,-0.6919,-0.0997,0.9017,0.5665,-33.9,-24.9,36.15,9.3853,1.1827,1.0918,-0.0408,0.3781,0.1863,-70.05,-27.45,-9.75,6.27,-1.03,-7.64,-0.0185,0.5618,-0.0425,-34.75,45.5625,62.25,341.875,36.375,169.5,0
1776971052.789,9.2105,1.166,-0.5267,-0.1396,0.9657,0.6129,-33.9,-24.9,36.15,9.3254,1.2953,0.8739,-0.0725,0.336,0.1631,-70.05,-27.45,-9.75,6.59,-1.08,-7.56,-0.0164,0.5301,-0.0425,-34.75,45.5625,62.25,341.875,36.6875,169.4375,0
1776971052.794,9.2105,1.166,-0.5267,-0.1836,1.0259,0.6563,-33.9,-24.9,36.15,9.3254,1.2953,0.8739,-0.0725,0.336,0.1631,-69.45,-27.3,-9.9,6.59,-1.08,-7.56,-0.0164,0.5301,-0.0425,-34.75,45.5625,62.25,341.875,36.9375,169.4375,0
1776971052.801,9.4834,0.917,-0.6536,-0.1836,1.0259,0.6563,-33.0,-25.5,36.6,9.2727,1.1516,0.9337,-0.1639,0.2846,0.1482,-71.55,-27.15,-9.3,6.41,-1.26,-7.51,-0.0109,0.4952,-0.0545,-34.75,45.5625,62.25,341.875,37.1875,169.4375,0
1776971052.811,9.5433,1.0846,-0.5148,-0.1703,1.0435,0.6718,-32.25,-25.8,38.1,9.5529,1.1396,1.0654,-0.2641,0.2337,0.1279,-70.95,-27.0,-9.6,6.12,-1.16,-7.61,-0.0076,0.4527,-0.0556,-34.75,45.5625,62.25,341.875,37.1875,169.4375,0
1776971052.816,9.809,0.8595,-0.0646,-0.1721,1.0706,0.6654,-32.25,-25.8,38.1,9.73,1.1109,1.1181,-0.3866,0.19,0.0983,-70.95,-27.0,-9.6,6.12,-1.16,-7.61,-0.0076,0.4527,-0.0556,-34.75,45.5625,62.25,341.875,37.4375,169.4375,0
1776971052.821,9.809,0.8595,-0.0646,-0.1721,1.0706,0.6654,-32.25,-26.25,38.7,9.73,1.1109,1.1181,-0.3866,0.19,0.0983,-69.75,-26.55,-12.45,6.27,-1.02,-7.55,-0.0076,0.4745,-0.0545,-36.875,45.5625,60.75,341.875,37.4375,169.4375,0
1776971052.825,10.0437,0.1963,0.2418,-0.2038,1.0808,0.6715,-32.25,-26.25,38.7,9.7923,0.8188,1.5251,-0.563,0.1439,0.073,-69.75,-26.55,-12.45,6.27,-1.02,-7.55,-0.0076,0.4745,-0.0545,-36.875,45.5625,60.75,341.875,37.75,169.4375,0
1776971052.831,10.0437,0.1963,0.2418,-0.2038,1.0808,0.6715,-31.5,-25.5,39.15,9.7923,0.8188,1.5251,-0.563,0.1439,0.073,-70.8,-27.15,-10.5,6.03,-1.14,-7.58,-0.0295,0.5421,-0.0393,-36.875,45.5625,60.75,341.875,37.75,169.4375,0
1776971052.835,10.0652,-0.17,0.668,-0.2649,1.1008,0.6872,-31.5,-25.5,39.15,9.6486,0.4405,1.8028,-0.7141,0.1282,0.0693,-70.8,-27.15,-10.5,6.03,-1.14,-7.58,-0.0469,0.5792,-0.0185,-36.875,45.5625,60.75,341.875,38.125,169.4375,0
1776971052.841,10.0652,-0.17,0.668,-0.2649,1.1008,0.6872,-32.1,-25.95,40.35,9.6486,0.4405,1.8028,-0.7141,0.1282,0.0693,-70.8,-27.15,-10.5,6.19,-1.25,-7.68,-0.0469,0.5792,-0.0185,-36.875,45.5625,60.75,341.875,38.125,169.4375,0
1776971052.85,10.2232,-0.2634,0.8954,-0.372,1.1429,0.7075,-32.1,-25.95,40.35,9.7731,-0.0575,1.992,-0.8332,0.0357,0.0855,-73.05,-28.35,-13.5,6.42,-1.37,-7.64,-0.0622,0.6141,0.0098,-36.875,45.5625,60.75,341.9375,38.4375,169.4375,0
1776971052.855,10.4339,-0.1532,1.1061,-0.4703,1.1359,0.7027,-32.1,-25.95,40.35,9.8067,-0.0646,2.0925,-0.8372,0.0517,0.1063,-73.05,-28.35,-13.5,6.42,-1.37,-7.64,-0.0622,0.648,0.0447,-36.875,45.5625,60.75,342.0,38.8125,169.4375,0
1776971052.861,10.4339,-0.1532,1.1061,-0.4703,1.1359,0.7027,-31.95,-26.55,40.2,9.8067,-0.0646,2.0925,-0.8372,0.0517,0.1063,-73.05,-28.35,-13.5,6.31,-0.67,-7.89,-0.0622,0.648,0.0447,-36.875,45.5625,60.75,342.0,38.8125,169.4375,0
1776971052.866,10.4196,-0.9337,0.3472,-0.5582,1.1431,0.7163,-31.95,-26.55,40.2,10.1083,0.1748,1.8411,-0.8015,0.0266,0.1282,-73.05,-28.35,-13.5,6.31,-0.67,-7.89,-0.0676,0.661,0.0818,-38.375,45.0625,60.375,342.0625,39.125,169.375,0
1776971052.871,10.4196,-0.9337,0.3472,-0.5582,1.1431,0.7163,-29.55,-26.7,39.3,10.1083,0.1748,1.8411,-0.8015,0.0266,0.1282,-71.85,-28.35,-12.75,6.15,-1.37,-7.49,-0.0676,0.661,0.0818,-38.375,45.0625,60.375,342.0625,39.125,169.375,0
1776971052.876,10.4004,-1.8483,-0.0527,-0.6478,1.1413,0.7839,-30.15,-26.55,40.95,10.2208,0.3519,1.7789,-0.7373,0.0242,0.1471,-71.85,-28.35,-12.75,6.15,-1.37,-7.49,-0.0633,0.5705,0.0545,-38.375,45.0625,60.375,342.125,39.4375,169.375,0
1776971052.881,10.4004,-1.8483,-0.0527,-0.8146,1.1985,0.8577,-30.15,-26.55,40.95,10.2208,0.3519,1.7789,-0.7373,0.0242,0.1471,-71.55,-27.9,-13.5,5.77,-2.01,-7.61,-0.0633,0.5705,0.0545,-38.375,45.0625,60.375,342.125,39.4375,169.375,0
1776971052.886,10.4363,-1.2546,0.3519,-0.8146,1.1985,0.8577,-29.4,-26.25,39.15,10.1394,0.6943,1.5227,-0.6627,0.0685,0.1463,-71.55,-27.9,-13.5,5.77,-2.01,-7.61,-0.144,0.4952,0.0458,-38.375,45.0625,60.375,342.25,39.6875,169.375,0
1776971052.892,10.2615,-0.5938,0.5986,-0.9166,1.2367,0.9118,-29.4,-26.25,39.15,9.9144,1.0774,1.3384,-0.6627,0.0685,0.1463,-72.0,-27.75,-13.65,6.71,-1.76,-7.43,-0.144,0.4952,0.0458,-38.375,45.0625,60.375,342.3125,39.9375,169.4375,0
1776971052.901,9.9192,-0.0335,0.3807,-0.845,1.2521,0.9329,-29.4,-26.25,39.15,9.6127,1.2402,1.3862,-0.623,0.0469,0.1577,-72.6,-27.45,-13.65,7.01,-1.99,-7.44,-0.2116,0.4363,-0.0044,-38.375,45.0625,60.375,342.3125,39.9375,169.4375,0
1776971052.911,9.7707,0.431,0.5698,-0.773,1.3035,0.9134,-29.4,-26.25,39.15,9.6079,1.5802,1.2761,-0.6419,-0.0085,0.1684,-72.6,-28.35,-16.05,7.25,-1.32,-7.28,-0.3087,0.2989,-0.0382,-38.375,45.0625,60.375,342.3125,40.125,169.625,0
1776971052.916,9.7707,0.431,0.5698,-0.773,1.3035,0.9134,-29.4,-26.25,39.15,9.6079,1.5802,1.2761,-0.6414,-0.0509,0.1788,-72.6,-28.35,-16.05,7.25,-1.32,-7.28,-0.3087,0.2989,-0.0382,-38.375,45.0625,60.375,342.3125,40.125,169.625,0
1776971052.921,9.9695,0.6057,1.1779,-0.7045,1.3368,0.9233,-30.3,-28.2,41.1,9.833,1.9609,1.1684,-0.6414,-0.0509,0.1788,-72.6,-28.35,-16.05,7.22,-1.77,-7.09,-0.4091,0.2836,-0.2203,-39.1875,45.5,59.1875,342.3125,40.3125,169.9375,0
1776971052.926,9.9695,0.6057,1.1779,-0.7045,1.3368,0.9233,-29.1,-28.65,39.0,9.833,1.9609,1.1684,-0.6995,-0.1095,0.1865,-73.8,-28.35,-17.55,7.22,-1.77,-7.09,-0.4091,0.2836,-0.2203,-39.1875,45.5,59.1875,342.3125,40.3125,169.9375,0
1776971052.931,10.2615,0.0359,0.929,-0.6797,1.3627,0.9787,-29.1,-28.65,39.0,9.5241,2.071,1.2929,-0.8052,-0.1844,0.2012,-73.8,-28.35,-17.55,5.95,-1.34,-7.59,-0.4941,0.2683,-0.3142,-39.1875,45.5,59.1875,342.25,40.4375,170.3125,0
1776971052.938,10.2615,0.0359,0.929,-0.6797,1.3627,0.9787,-27.3,-28.95,40.65,9.5241,2.071,1.2929,-0.8052,-0.1844,0.2012,-73.8,-28.35,-17.55,6.65,-2.27,-7.54,-0.5236,0.3643,-0.3142,-39.1875,45.5,59.1875,342.1875,40.6875,170.75,0
1776971052.943,10.6757,-0.7853,1.0606,-0.7139,1.3795,1.0387,-27.3,-28.95,40.65,9.7229,2.0662,1.4006,-0.8055,-0.1825,0.2113,-73.65,-28.95,-19.5,6.65,-2.27,-7.54,-0.5236,0.3643,-0.3142,-39.1875,45.5,59.1875,342.125,41.125,171.1875,0
1776971052.951,11.2049,-1.1923,0.431,-0.9118,1.4304,1.1165,-28.8,-28.95,40.65,10.137,2.2721,1.1779,-0.7112,-0.1817,0.2134,-73.65,-28.95,-19.5,5.5,-0.37,-8.45,-0.5803,0.7036,-0.4243,-39.1875,45.5,59.1875,341.9375,41.625,171.75,0
1776971052.961,11.7579,-1.664,-0.1293,-1.1479,1.4629,1.2025,-28.8,-28.95,40.65,10.647,2.2936,0.5962,-0.6294,-0.2164,0.2086,-75.3,-30.6,-19.5,6.67,-2.1,-7.5,-0.589,0.8628,-0.5694,-39.1875,45.5,59.1875,341.9375,41.625,171.75,0
1776971052.966,11.7579,-1.664,-0.1293,-1.1479,1.4629,1.2025,-27.75,-30.15,42.15,10.647,2.2936,0.5962,-0.6294,-0.2164,0.2086,-75.3,-30.6,-19.8,6.67,-2.1,-7.5,-0.589,0.8628,-0.5694,-39.1875,45.5,59.1875,341.9375,41.625,171.75,0
1776971052.971,12.0787,-1.7645,-1.0199,-1.5012,1.51,1.3171,-27.75,-30.15,42.15,11.0923,2.5379,-0.2586,-0.4922,-0.263,0.1873,-75.3,-30.6,-19.8,6.22,0.04,-7.18,-0.5934,0.9239,-0.7079,-40.1875,44.375,59.1875,341.6875,42.1875,172.375,0
1776971052.976,12.0787,-1.7645,-1.0199,-1.5012,1.51,1.3171,-26.7,-29.7,43.95,11.0923,2.5379,-0.2586,-0.4922,-0.263,0.1873,-75.45,-31.65,-21.0,6.22,0.04,-7.18,-0.5934,0.9239,-0.7079,-40.1875,44.375,59.1875,341.6875,42.1875,172.375,0
1776971052.981,12.5073,-1.5395,-1.3671,-1.8186,1.5431,1.4565,-26.7,-29.7,43.95,11.2599,3.1292,-0.984,-0.3888,-0.3451,0.1316,-75.45,-31.65,-21.0,5.29,-0.8,-8.95,-0.6436,0.8738,-0.7559,-40.1875,44.375,59.1875,341.4375,42.75,173.0625,0
1776971052.986,12.5073,-1.5395,-1.3671,-1.8186,1.5431,1.4565,-25.5,-30.15,41.4,11.2599,3.1292,-0.984,-0.3888,-0.3451,0.1316,-74.85,-33.0,-22.35,5.29,-0.8,-8.95,-0.7919,1.4737,-0.7723,-40.1875,44.375,59.1875,341.25,43.5625,173.8125,0
1776971052.992,12.9167,0.0335,-1.8747,-2.1357,1.5884,1.6124,-25.5,-30.15,41.4,11.5808,3.6919,-1.6137,-0.4828,-0.5476,0.0504,-75.45,-34.05,-22.2,5.24,1.55,-7.96,-0.7919,1.4737,-0.7723,-40.1875,44.375,59.1875,330.125,44.8125,174.5,0
1776971053.001,13.1633,1.2067,-3.1388,-2.294,1.6238,1.7408,-25.2,-30.45,42.9,12.0357,3.1412,-2.375,-0.6923,-0.8676,-0.0341,-75.45,-34.05,-22.2,5.31,1.56,-8.76,-0.8159,2.1435,-0.7178,-40.1875,44.375,59.1875,330.125,44.8125,174.5,0
1776971053.011,12.5169,1.233,-3.7733,-2.1496,1.6617,1.8095,-24.6,-31.8,41.25,11.9471,2.3152,-2.0303,-0.7618,-1.2478,-0.0546,-75.6,-34.95,-23.4,2.66,2.79,-10.65,-0.3033,2.834,-0.6938,-40.1875,44.375,59.1875,331.25,46.4375,174.9375,0
1776971053.016,12.5169,1.233,-3.7733,-2.1496,1.6617,1.8095,-24.6,-31.8,41.25,11.9471,2.3152,-2.0303,-0.7618,-1.2478,-0.0546,-75.9,-36.3,-24.3,2.66,2.79,-10.65,-0.3033,2.834,-0.6938,-40.1875,44.375,59.1875,331.5,48.5,175.125,0
1776971053.021,11.6262,0.8068,-2.9113,-1.9129,1.7115,1.8322,-24.6,-31.8,41.25,11.497,2.0255,-1.7286,-0.728,-1.4418,-0.0437,-75.9,-36.3,-24.3,7.42,-3.93,-3.55,0.6207,3.7012,-1.2075,-43.0625,41.75,58.6875,331.5,48.5,175.125,0
1776971053.026,11.6262,0.8068,-2.9113,-1.9129,1.7115,1.8322,-24.15,-34.2,39.6,11.0852,1.6568,-2.2075,-0.728,-1.4418,-0.0437,-75.9,-36.3,-24.3,7.42,-3.93,-3.55,0.6207,3.7012,-1.2075,-43.0625,41.75,58.6875,331.8125,51.25,175.4375,0
1776971053.031,10.2879,0.8452,-2.1045,-1.5162,1.784,1.8061,-24.15,-34.2,39.6,11.0852,1.6568,-2.2075,-0.6664,-1.5668,-0.0408,-75.9,-36.3,-24.3,13.98,-5.87,-11.6,0.8421,4.8073,-1.6362,-43.0625,41.75,58.6875,331.8125,51.25,175.4375,0
1776971053.037,10.4339,0.3472,-0.8356,-1.2271,1.8562,1.7949,-23.4,-33.9,40.35,10.8625,0.984,-2.1452,-0.6275,-1.7027,-0.0922,-77.55,-38.55,-26.4,5.71,2.8,-5.2,-0.1887,4.7658,-0.2018,-43.0625,41.75,58.6875,332.5,53.875,175.4375,0
1776971053.042,10.4339,0.3472,-0.8356,-1.2271,1.8562,1.7949,-23.4,-33.9,40.35,10.8625,0.984,-2.1452,-0.6275,-1.7027,-0.0922,-114.3,-38.55,-26.4,5.71,2.8,-5.2,-0.1887,4.7658,-0.2018,-43.0625,41.75,58.6875,332.6875,56.375,175.0,0
1776971053.051,10.3693,0.6057,0.1796,-1.0528,1.9065,1.7043,-21.9,-35.7,39.0,10.6446,0.7661,-1.075,-0.7269,-1.9025,-0.1969,-75.9,-39.45,-27.0,9.09,1.18,-8.42,-0.0829,4.4746,0.2389,-43.0625,41.75,58.6875,332.6875,56.375,175.0,0
1776971053.061,10.8816,0.3903,1.4509,-0.8508,1.9151,1.6308,-22.2,-36.15,41.1,9.8497,0.5602,0.2562,-0.7602,-2.0214,-0.316,-76.8,-40.05,-27.15,9.92,0.7,-7.75,0.1233,4.7615,0.3774,-43.0625,41.75,58.6875,332.625,58.9375,174.1875,0
1776971053.066,10.7404,0.1508,2.8012,-0.7791,1.9207,1.5823,-22.2,-36.15,41.1,9.5648,0.3615,1.3671,-0.6736,-2.0443,-0.4485,-77.25,-41.25,-28.2,9.92,0.7,-7.75,0.1233,4.7615,0.3774,-43.0625,41.75,58.6875,332.625,58.9375,174.1875,0
1776971053.071,10.7404,0.1508,2.8012,-0.7791,1.9207,1.5823,-22.2,-36.15,41.1,9.5648,0.3615,1.3671,-0.6736,-2.0443,-0.4485,-77.25,-41.25,-28.2,13.13,0.14,-8.34,0.3851,4.6884,0.5465,-53.0,40.375,47.25,332.25,61.5,173.0,0
1776971053.076,10.5512,-0.4022,3.9672,-0.7032,2.0491,1.525,-22.2,-36.15,41.1,9.3039,0.1628,2.6097,-0.5761,-2.0294,-0.5836,-76.2,-43.35,-27.0,13.13,0.14,-8.34,0.3851,4.6884,0.5465,-53.0,40.375,47.25,332.25,61.5,173.0,0
1776971053.081,10.5512,-0.4022,3.9672,-0.7032,2.0491,1.525,-22.2,-36.15,41.1,9.3039,0.1628,2.6097,-0.5761,-2.0294,-0.5836,-76.2,-43.35,-27.0,14.12,1.19,-10.18,0.3643,5.0713,0.5803,-53.0,40.375,47.25,331.9375,64.25,171.375,0
1776971053.086,10.8314,-1.4533,5.2337,-0.5532,2.1629,1.5044,-20.25,-39.3,42.0,10.4627,-0.3879,3.6105,-0.5558,-1.9518,-0.7957,-76.8,-44.4,-28.65,14.12,1.19,-10.18,0.5607,4.8051,0.7527,-53.0,40.375,47.25,331.3125,66.8125,169.1875,0
1776971053.092,10.8314,-1.4533,5.2337,-0.5532,2.1629,1.5044,-20.25,-39.3,42.0,10.4627,-0.3879,3.6105,-0.5558,-1.9518,-0.7957,-76.8,-44.4,-28.65,12.49,0.86,-7.08,0.5607,4.8051,0.7527,-53.0,40.375,47.25,330.3125,69.0,166.1875,0
1776971053.101,10.2137,-2.3655,6.7804,-0.4642,2.1304,1.5242,-20.25,-40.8,40.5,11.0636,-0.9433,3.8235,-0.5372,-1.9811,-0.9667,-76.8,-44.4,-28.65,17.82,-1.17,-10.72,0.9457,4.2052,0.9403,-53.0,40.375,47.25,329.875,71.4375,162.75,0
1776971053.111,9.8833,-2.7653,7.1658,-0.3893,2.1607,1.53,-18.3,-42.15,41.1,10.4004,-1.2234,3.9121,-0.316,-1.7826,-1.1226,-76.8,-44.4,-27.15,18.09,-1.53,-13.5,0.516,4.7822,0.8094,-53.0,40.375,47.25,329.875,71.4375,162.75,0
1776971053.116,9.8497,-3.7469,6.9264,-0.3949,1.9945,1.5348,-19.2,-42.75,42.0,10.3477,-1.336,3.1915,-0.2148,-1.5465,-1.2196,-76.8,-44.4,-27.15,18.09,-1.53,-13.5,0.516,4.7822,0.8094,-53.0,40.375,47.25,330.0,73.625,159.25,0
1776971053.121,9.8497,-3.7469,6.9264,-0.3949,1.9945,1.5348,-19.2,-42.75,42.0,10.3477,-1.336,3.1915,-0.2148,-1.5465,-1.2196,-76.8,-44.4,-27.15,15.09,-0.69,-11.75,-0.1953,4.4419,0.6272,-58.25,41.75,31.1875,330.0,73.625,159.25,0
1776971053.126,9.2584,-4.1875,7.1132,-0.3816,1.8663,1.4722,-19.2,-42.75,42.0,11.3557,-0.7661,2.9688,-0.1705,-1.3789,-1.2955,-80.85,-45.3,-25.5,15.09,-0.69,-11.75,-0.1953,4.4419,0.6272,-58.25,41.75,31.1875,330.25,75.1875,155.9375,0
1776971053.131,9.2584,-4.1875,7.1132,-0.3816,1.8663,1.4722,-19.2,-42.75,42.0,12.0907,-0.4046,2.8276,-0.1705,-1.3789,-1.2955,-80.85,-45.3,-25.5,11.06,0.06,-10.43,-0.5225,3.2899,0.5912,-58.25,41.75,31.1875,330.25,75.1875,155.9375,0
1776971053.139,8.6742,-4.7573,7.6423,-0.3056,1.659,1.376,-15.0,-46.65,44.25,12.0907,-0.4046,2.8276,0.0663,-1.1802,-1.3733,-80.55,-44.4,-26.7,8.29,0.49,-9.48,-0.7625,2.6485,0.7418,-58.25,41.75,31.1875,330.5625,76.3125,152.375,0
1776971053.144,7.5369,-4.6807,6.5242,-0.3064,1.3403,1.2473,-13.8,-47.25,44.4,12.6294,-0.3855,2.7246,0.3752,-1.0709,-1.388,-81.15,-45.75,-26.55,8.29,0.49,-9.48,-0.7625,2.6485,0.7418,-58.25,41.75,31.1875,330.625,77.0625,148.0,0
1776971053.152,7.5369,-4.6807,6.5242,-0.3064,1.3403,1.2473,-12.6,-46.8,45.9,12.4714,-0.7829,2.6671,0.4823,-1.0818,-1.3539,-81.15,-45.75,-26.55,2.9,0.24,-9.61,-0.7985,2.1009,1.1454,-58.25,41.75,31.1875,330.375,77.1875,142.875,0
1776971053.162,7.6207,-6.043,6.8163,-0.4178,0.9627,1.157,-11.7,-49.65,46.35,11.6813,-0.668,2.5379,0.4205,-1.0698,-1.3134,-83.4,-45.0,-24.3,10.7,-3.13,-10.23,-0.8421,1.4901,1.7846,-58.25,41.75,31.1875,330.375,77.1875,142.875,0
1776971053.167,5.4923,-5.4444,7.1826,-0.1676,0.5529,0.922,-11.7,-49.65,46.35,11.6813,-0.668,2.5379,0.4205,-1.0698,-1.3134,-82.5,-43.95,-24.15,10.7,-3.13,-10.23,-0.8421,1.4901,1.7846,-58.25,41.75,31.1875,329.75,77.0,136.9375,0
1776971053.172,5.4923,-5.4444,7.1826,-0.3262,0.3813,0.6336,-10.05,-47.55,46.2,11.5903,-0.3136,2.1859,0.4874,-1.0187,-1.2686,-82.5,-43.95,-24.15,14.46,1.25,-16.72,-0.7123,1.5043,2.1424,-56.5625,44.5625,13.0,329.75,77.0,136.9375,0
1776971053.176,4.5442,-3.9816,5.8849,-0.3262,0.3813,0.6336,-10.05,-47.55,46.2,11.5903,-0.3136,2.1859,0.4874,-1.0187,-1.2686,-84.15,-43.35,-22.5,14.46,1.25,-16.72,-0.7123,1.5043,2.1424,-56.5625,44.5625,13.0,329.8125,77.0,131.0,0
1776971053.181,5.2888,-3.553,5.6048,-0.5433,0.178,0.3115,-10.05,-47.55,46.2,11.6382,0.2993,1.8579,0.6563,-1.0035,-1.2409,-84.15,-43.35,-22.5,10.26,3.16,-19.34,-1.4857,1.9417,2.0093,-56.5625,44.5625,13.0,329.8125,77.0,131.0,0
1776971053.186,5.2888,-3.553,5.6048,-0.5433,0.178,0.3115,-10.05,-47.55,46.2,11.6382,0.2993,1.8579,0.6563,-1.0035,-1.2409,-84.15,-43.35,-22.5,10.26,3.16,-19.34,-1.4257,0.5149,2.0104,-56.5625,44.5625,13.0,329.625,76.3125,127.875,0
1776971053.192,7.106,-3.1675,5.1356,-0.7085,-0.2022,0.0253,-7.35,-49.65,47.1,11.3844,1.0918,1.8244,0.7693,-0.9563,-1.2537,-84.15,-43.35,-22.5,5.36,5.38,-12.33,-1.4257,0.5149,2.0104,-56.5625,44.5625,13.0,328.1875,74.75,127.8125,0
1776971053.201,7.3143,-3.0502,4.8315,-0.6955,-0.7117,-0.1964,-6.6,-49.2,46.35,11.066,1.6281,2.3032,0.8577,-0.8815,-1.2817,-86.1,-42.15,-21.0,0.66,2.01,-7.25,-0.0404,-1.7082,2.2624,-56.5625,44.5625,13.0,325.6875,72.5625,128.9375,0
1776971053.212,6.8953,-2.8084,4.7956,-0.4636,-1.0693,-0.4271,-6.15,-49.05,45.9,11.0109,2.2218,3.0574,1.0768,-0.7703,-1.3075,-86.1,-42.15,-21.0,-1.16,0.55,-5.09,1.0287,-3.1318,2.5242,-56.5625,44.5625,13.0,325.6875,72.5625,128.9375,0
1776971053.217,6.8953,-2.8084,4.7956,-0.4636,-1.0693,-0.4271,-6.15,-49.05,45.9,11.0109,2.2218,3.0574,1.0768,-0.7703,-1.3075,-84.75,-40.05,-19.35,-1.16,0.55,-5.09,1.0287,-3.1318,2.5242,-56.5625,44.5625,13.0,325.6875,72.5625,128.9375,0
1776971053.222,6.608,-3.2274,4.9895,-0.2729,-1.3483,-0.5974,-5.7,-47.55,47.25,11.0732,2.0375,3.1843,1.4717,-0.7125,-1.2958,-84.75,-40.05,-19.35,-0.97,0.38,-4.52,1.0079,-2.678,2.3442,-50.0,50.875,3.0,323.25,70.625,129.375,0
1776971053.226,6.608,-3.2274,4.9895,-0.2729,-1.3483,-0.5974,-5.7,-47.55,47.25,11.0732,2.0375,3.1843,1.4717,-0.7125,-1.2958,-86.1,-36.75,-16.95,-0.97,0.38,-4.52,1.0079,-2.678,2.3442,-50.0,50.875,3.0,323.25,70.625,129.375,0
1776971053.232,6.5601,-4.1324,5.1667,-0.077,-1.6241,-0.756,-5.7,-47.55,47.25,11.1067,1.6999,2.7964,1.9073,-0.7181,-1.2793,-86.1,-36.75,-16.95,-0.52,1.11,-4.92,0.6567,-2.0442,1.9679,-50.0,50.875,3.0,321.375,69.0625,129.5,0
1776971053.239,6.5601,-4.1324,5.1667,-0.077,-1.6241,-0.756,-5.7,-47.55,47.25,10.7548,1.4389,2.2913,2.2535,-0.7549,-1.2622,-86.55,-37.95,-16.65,0.85,1.65,-6.31,0.1931,-1.5653,1.429,-50.0,50.875,3.0,320.125,67.875,129.8125,0
1776971053.243,6.0262,-4.5107,4.5203,0.1271,-1.8287,-0.9518,-5.7,-47.55,47.25,10.7548,1.4389,2.2913,2.2535,-0.7549,-1.2622,-86.55,-37.95,-16.65,0.85,1.65,-6.31,0.1931,-1.5653,1.429,-50.0,50.875,3.0,319.25,66.875,130.625,0
1776971053.252,5.8897,-3.4477,3.6607,0.5396,-1.9593,-1.097,-8.4,-46.2,47.1,10.3813,0.9194,1.7454,2.4525,-0.76,-1.2534,-85.8,-35.55,-15.45,2.92,2.18,-7.65,-0.1342,-1.6057,1.0287,-50.0,50.875,3.0,318.5625,65.8125,132.125,0
1776971053.262,6.4284,-2.308,3.4333,1.1807,-2.0283,-1.1088,-8.4,-45.45,47.1,9.9455,0.3639,1.2426,2.6092,-0.757,-1.2414,-85.5,-34.2,-13.5,5.51,3.19,-8.1,-0.18,-2.0769,0.7047,-50.0,50.875,3.0,318.5625,65.8125,132.125,0
1776971053.267,6.4284,-2.308,3.4333,1.1807,-2.0283,-1.1088,-8.4,-45.45,47.1,9.7564,0.1197,0.9601,2.6934,-0.7424,-1.2276,-86.85,-32.4,-9.9,5.51,3.19,-8.1,-0.18,-2.0769,0.7047,-45.1875,56.0625,1.5625,317.8125,64.6875,134.25,0
1776971053.272,7.0294,-2.5115,4.0247,1.7555,-2.1048,-1.0981,-9.0,-45.3,49.05,9.7564,0.1197,0.9601,2.6934,-0.7424,-1.2276,-86.85,-32.4,-9.9,5.75,3.06,-7.68,-0.0567,-2.606,0.2487,-45.1875,56.0625,1.5625,317.8125,64.6875,134.25,0
1776971053.277,7.0294,-2.5115,4.0247,1.7555,-2.1048,-1.0981,-9.0,-45.3,49.05,9.5744,0.1245,0.9385,2.6942,-0.6736,-1.2092,-86.85,-32.4,-9.9,5.75,3.06,-7.68,-0.0567,-2.606,0.2487,-45.1875,56.0625,1.5625,317.0625,63.5625,136.8125,0
1776971053.282,7.6878,-3.1963,4.2545,2.0891,-2.2601,-1.133,-9.6,-42.45,50.4,9.5744,0.1245,0.9385,2.6942,-0.6736,-1.2092,-86.85,-32.4,-9.9,5.3,2.56,-7.0,0.1571,-3.1405,-0.1909,-45.1875,56.0625,1.5625,317.0625,63.5625,136.8125,0
1776971053.287,7.6878,-3.1963,4.2545,2.0891,-2.2601,-1.133,-9.6,-42.45,50.4,9.4595,0.1724,1.0391,2.6076,-0.5982,-1.178,-88.05,-28.95,-10.35,5.3,2.56,-7.0,0.3054,-3.435,-0.6829,-45.1875,56.0625,1.5625,316.3125,62.375,139.6875,0
1776971053.293,7.7093,-3.8379,4.2329,2.1602,-2.4949,-1.1868,-9.6,-42.45,50.4,9.4595,0.1724,1.0391,2.6076,-0.5982,-1.178,-88.05,-28.95,-10.35,5.45,2.01,-6.32,0.3054,-3.435,-0.6829,-45.1875,56.0625,1.5625,315.75,61.25,142.6875,0
1776971053.302,7.9152,-4.2066,4.6304,2.1901,-2.7137,-1.2252,-10.65,-39.9,52.05,9.3278,0.3041,0.9936,2.4826,-0.5494,-1.1503,-87.45,-28.65,-7.95,5.75,1.31,-6.15,0.4069,-3.5288,-1.1836,-45.1875,56.0625,1.5625,315.75,61.25,142.6875,0
1776971053.312,8.0565,-4.5921,4.6471,2.1661,-2.8996,-1.2572,-13.8,-37.05,54.45,9.0692,0.4094,0.9026,2.3715,-0.5505,-1.1215,-86.55,-27.0,-7.35,6.58,0.57,-6.28,0.4843,-3.5048,-1.6602,-45.1875,56.0625,1.5625,315.375,60.25,145.8125,0
1776971053.316,8.0565,-4.5921,4.6471,2.1661,-2.8996,-1.2572,-13.8,-37.05,54.45,8.8729,0.431,0.6081,2.294,-0.5612,-1.0728,-87.45,-24.75,-7.95,6.58,0.57,-6.28,0.4843,-3.5048,-1.6602,-45.1875,56.0625,1.5625,315.375,60.25,145.8125,0
1776971053.321,8.6048,-4.4843,4.7453,2.0193,-3.0403,-1.2343,-13.8,-36.75,55.2,8.8729,0.431,0.6081,2.294,-0.5612,-1.0728,-87.45,-24.75,-7.95,7.51,0.13,-6.56,0.5367,-3.4514,-2.0889,-52.5,60.375,6.375,315.1875,59.25,148.9375,0
1776971053.326,8.6048,-4.4843,4.7453,1.8399,-3.1523,-1.1527,-13.8,-36.75,55.2,8.6933,0.5578,0.1915,2.2772,-0.5804,-1.0435,-88.05,-24.6,-7.65,7.51,0.13,-6.56,0.5367,-3.4514,-2.0889,-52.5,60.375,6.375,315.1875,59.25,148.9375,0
1776971053.331,8.8657,-4.197,4.6902,1.8399,-3.1523,-1.1527,-15.6,-34.5,55.5,8.6933,0.5578,0.1915,2.2772,-0.5804,-1.0435,-88.05,-24.6,-7.65,8.48,-0.4,-6.72,0.6087,-3.4459,-2.414,-52.5,60.375,6.375,315.125,58.25,152.0625,0
1776971053.337,8.9902,-3.9528,4.8459,1.6862,-3.2357,-1.0619,-15.6,-34.5,55.5,8.9184,0.7087,0.0287,2.3928,-0.7402,-1.0179,-88.95,-22.5,-6.0,8.48,-0.4,-6.72,0.7145,-3.4252,-2.6169,-52.5,60.375,6.375,315.0625,57.1875,155.0625,0
1776971053.343,8.9902,-3.9528,4.8459,1.6862,-3.2357,-1.0619,-16.5,-31.95,54.9,8.9184,0.7087,0.0287,2.3928,-0.7402,-1.0179,-88.95,-22.5,-6.0,9.37,-0.51,-7.13,0.7145,-3.4252,-2.6169,-52.5,60.375,6.375,314.9375,56.0625,157.875,0
1776971053.352,8.7077,-3.474,4.7692,1.6331,-3.3111,-1.0277,-16.5,-31.95,54.9,8.4898,0.3615,-0.3089,2.1996,-0.5105,-0.999,-88.95,-22.5,-6.0,10.35,-0.48,-7.53,0.8181,-3.3761,-2.6987,-52.5,60.375,6.375,314.9375,56.0625,157.875,0
1776971053.362,8.7795,-2.9161,4.6064,1.6518,-3.366,-1.0674,-17.85,-27.9,58.2,8.9136,0.3184,-0.3831,2.0606,-0.5963,-0.9721,-88.8,-18.75,-6.6,11.53,-0.58,-8.08,0.9218,-3.3827,-2.6616,-52.5,60.375,6.375,314.75,54.8125,160.3125,0
1776971053.367,9.1794,-2.6983,4.525,1.7174,-3.3817,-1.0864,-17.85,-27.9,58.2,8.9567,0.4429,-0.4669,2.0254,-0.5668,-0.9683,-88.8,-18.75,-6.6,11.53,-0.58,-8.08,0.9218,-3.3827,-2.6616,-52.5,60.375,6.375,314.75,54.8125,160.3125,0
1776971053.372,9.1794,-2.6983,4.525,1.7174,-3.3817,-1.0864,-19.05,-25.95,56.4,9.0621,0.5962,-0.419,2.0254,-0.5668,-0.9683,-88.8,-18.75,-6.6,11.71,-0.71,-8.06,1.0123,-3.4252,-2.5504,-59.0,49.5,19.6875,314.3125,53.5,162.4375,0
1776971053.376,9.4834,-2.648,4.5179,1.8357,-3.4142,-1.1061,-19.05,-25.95,56.4,9.0621,0.5962,-0.419,1.9966,-0.4938,-0.9555,-88.65,-18.15,-5.25,11.71,-0.71,-8.06,1.0123,-3.4252,-2.5504,-59.0,49.5,19.6875,314.3125,53.5,162.4375,0
1776971053.382,9.4834,-2.648,4.5179,1.8357,-3.4142,-1.1061,-20.4,-25.95,55.35,9.098,0.7494,-0.4118,1.9966,-0.4938,-0.9555,-88.65,-18.15,-5.25,11.93,-0.54,-8.12,1.0668,-3.4808,-2.4347,-59.0,49.5,19.6875,313.75,52.0,164.3125,0
1776971053.386,9.8282,-2.6336,4.2617,1.9569,-3.4051,-1.093,-20.4,-25.95,55.35,9.098,0.7494,-0.4118,1.9945,-0.5676,-0.927,-88.65,-15.45,-5.7,11.93,-0.54,-8.12,1.0832,-3.5016,-2.3169,-59.0,49.5,19.6875,313.0625,50.4375,165.875,0
1776971053.393,9.8282,-2.6336,4.2617,1.9569,-3.4051,-1.093,-22.2,-24.15,56.4,8.928,0.8523,-0.431,1.9604,-0.6201,-0.8735,-88.65,-15.45,-5.7,12.42,0.42,-8.29,1.0832,-3.5016,-2.3169,-59.0,49.5,19.6875,312.25,48.875,167.1875,0
1776971053.402,10.1945,-3.2609,3.8188,1.9822,-3.3763,-1.0818,-22.2,-24.15,56.4,8.9663,0.8978,-0.7733,1.8993,-0.66,-0.8268,-89.4,-14.55,-5.25,11.56,0.6,-7.11,1.105,-3.4994,-2.2024,-59.0,49.5,19.6875,311.25,47.1875,168.25,0
1776971053.412,10.2544,-3.5913,3.6799,1.9953,-3.3723,-1.0917,-24.15,-20.7,55.65,8.9711,1.1947,-1.2426,1.8642,-0.6765,-0.7794,-87.45,-13.05,-5.25,11.27,0.83,-6.37,1.1497,-3.5136,-2.1108,-59.0,49.5,19.6875,311.25,47.1875,168.25,0
1776971053.417,10.4004,-3.2322,3.8666,2.0097,-3.334,-1.0648,-24.3,-19.05,55.2,8.9711,1.1947,-1.2426,1.8642,-0.6765,-0.7794,-89.85,-10.5,-6.15,11.27,0.83,-6.37,1.1497,-3.5136,-2.1108,-59.0,49.5,19.6875,310.25,45.625,169.1875,0
1776971053.422,10.4004,-3.2322,3.8666,2.0097,-3.334,-1.0648,-24.3,-19.05,55.2,9.0333,1.5203,-1.561,1.9428,-0.6531,-0.7261,-89.85,-10.5,-6.15,12.16,1.46,-6.66,1.1421,-3.3598,-2.0878,-52.25,33.0,27.5625,310.25,45.625,169.1875,0
1776971053.427,10.4339,-2.9353,4.0534,1.9939,-3.2674,-1.0032,-26.85,-16.5,54.15,9.0333,1.5203,-1.561,1.9428,-0.6531,-0.7261,-90.3,-11.25,-5.85,12.16,1.46,-6.66,1.1421,-3.3598,-2.0878,-52.25,33.0,27.5625,309.1875,44.125,170.0,0
1776971053.432,10.4339,-2.9353,4.0534,1.9939,-3.2674,-1.0032,-26.85,-16.5,54.15,9.1243,1.8028,-1.8196,2.1106,-0.6608,-0.6752,-90.3,-11.25,-5.85,13.07,2.94,-7.04,1.1552,-3.1067,-2.102,-52.25,33.0,27.5625,309.1875,44.125,170.0,0
1776971053.44,10.2639,-2.9018,4.1132,2.1106,-3.2325,-0.9483,-26.7,-15.9,52.8,9.0621,1.9082,-1.9345,2.2684,-0.6496,-0.6323,-90.3,-11.25,-5.85,13.49,3.32,-7.1,1.261,-2.9256,-2.1129,-52.25,33.0,27.5625,327.8125,42.6875,170.6875,0
1776971053.445,9.6223,-2.6217,4.1396,2.3409,-3.1472,-0.9606,-26.7,-15.9,52.8,9.0621,1.9082,-1.9345,2.2684,-0.6496,-0.6323,-90.3,-11.25,-5.85,13.49,3.32,-7.1,1.261,-2.9256,-2.1129,-52.25,33.0,27.5625,326.1875,41.3125,171.1875,0
1776971053.452,9.9599,-2.308,4.1204,2.5431,-3.0502,-0.9076,-27.3,-13.95,53.55,9.3278,2.2314,-2.1213,2.4165,-0.6043,-0.5868,-87.6,-7.8,-6.15,13.39,3.85,-6.47,1.4323,-2.8667,-2.1675,-52.25,33.0,27.5625,324.4375,39.9375,171.5625,0
1776971053.462,9.2608,-1.9465,3.201,2.751,-2.9527,-0.8551,-27.3,-13.95,53.55,9.1913,2.4086,-1.9106,2.4813,-0.5521,-0.5734,-87.6,-7.8,-6.15,12.66,5.01,-5.04,1.6024,-2.8482,-2.2864,-52.25,33.0,27.5625,324.4375,39.9375,171.5625,0
1776971053.467,9.2608,-1.9465,3.201,2.751,-2.9527,-0.8551,-29.1,-10.65,51.45,9.1913,2.4086,-1.9106,2.4813,-0.5521,-0.5734,-89.4,-6.75,-7.95,12.66,5.01,-5.04,1.6024,-2.8482,-2.2864,-52.25,33.0,27.5625,324.4375,39.9375,171.5625,0
1776971053.472,8.5425,-1.6592,3.1939,2.9812,-2.8903,-0.7935,-29.1,-10.65,51.45,8.7867,2.4062,-1.6903,2.4896,-0.4064,-0.5636,-89.4,-6.75,-7.95,12.46,5.38,-4.25,1.7693,-2.7631,-2.4936,-41.375,19.6875,27.75,322.625,38.625,171.875,0
1776971053.477,8.5425,-1.6592,3.1939,2.9812,-2.8903,-0.7935,-31.05,-9.15,51.75,8.7867,2.4062,-1.6903,2.4896,-0.4064,-0.5636,-89.7,-6.0,-7.95,12.46,5.38,-4.25,1.7693,-2.7631,-2.4936,-41.375,19.6875,27.75,322.625,38.625,171.875,0
1776971053.482,7.762,-1.7526,3.9456,3.2058,-2.7997,-0.7242,-31.05,-9.15,51.75,8.43,1.9537,-1.5467,2.5103,-0.2089,-0.4868,-89.7,-6.0,-7.95,13.23,5.22,-4.88,1.886,-2.5176,-2.7991,-41.375,19.6875,27.75,320.625,37.4375,172.1875,0
1776971053.487,7.762,-1.7526,3.9456,3.2058,-2.7997,-0.7242,-32.25,-8.25,49.8,8.2217,1.4844,-1.3791,2.5103,-0.2089,-0.4868,-90.15,-6.75,-7.5,13.23,5.22,-4.88,1.8904,-2.2995,-3.1907,-41.375,19.6875,27.75,318.4375,36.4375,172.625,0
1776971053.493,7.5465,-1.6759,4.2306,3.3873,-2.6601,-0.6592,-32.25,-8.25,49.8,8.2217,1.4844,-1.3791,2.5343,-0.052,-0.4032,-90.15,-6.75,-7.5,15.79,5.11,-5.97,1.8904,-2.2995,-3.1907,-41.375,19.6875,27.75,316.0625,35.5,173.1875,0
1776971053.502,7.8171,-1.2953,4.5586,3.5517,-2.5578,-0.6193,-30.75,-5.55,50.1,8.2145,1.3144,-1.0918,2.5263,0.04,-0.3184,-89.1,-4.95,-7.35,15.79,5.79,-5.88,1.7639,-2.1642,-3.6477,-41.375,19.6875,27.75,313.4375,34.5,173.9375,0
1776971053.512,7.75,-0.9984,4.3239,3.6359,-2.4344,-0.5918,-33.9,-4.65,50.4,8.0661,1.4174,-1.142,2.5551,0.1569,-0.2505,-88.35,-4.2,-6.15,14.59,6.06,-4.7,1.7137,-2.2362,-4.0797,-41.375,19.6875,27.75,313.4375,34.5,173.9375,0
1776971053.517,7.75,-0.9984,4.3239,3.6359,-2.4344,-0.5918,-33.9,-4.65,50.4,7.6638,1.3958,-0.8882,2.6417,0.2579,-0.2337,-89.55,-4.95,-6.6,14.59,6.06,-4.7,1.7137,-2.2362,-4.0797,-41.375,19.6875,27.75,310.625,33.375,174.5,0
1776971053.522,7.695,-0.644,4.3646,3.7137,-2.3342,-0.5502,-33.9,-4.65,50.4,7.6638,1.3958,-0.8882,2.6417,0.2579,-0.2337,-89.55,-4.95,-6.6,13.44,5.57,-3.48,1.958,-2.4991,-4.3121,-36.0625,8.6875,21.1875,310.625,33.375,174.5,0
1776971053.527,7.695,-0.644,4.3646,3.7137,-2.3342,-0.5502,-33.6,-1.95,47.55,6.8714,1.7406,-0.3663,2.6534,0.3962,-0.2065,-89.55,-4.95,-6.6,13.44,5.57,-3.48,1.958,-2.4991,-4.3121,-36.0625,8.6875,21.1875,307.75,32.125,174.875,0
1776971053.532,7.513,-0.1796,4.3024,3.7915,-2.2663,-0.5009,-33.6,-1.95,47.55,6.8714,1.7406,-0.3663,2.6534,0.3962,-0.2065,-89.55,-4.95,-6.6,12.12,3.34,-2.09,2.3507,-2.6114,-4.3448,-36.0625,8.6875,21.1875,307.75,32.125,174.875,0
1776971053.539,7.2209,-0.182,3.8283,3.8928,-2.1783,-0.4293,-34.2,-0.9,47.85,6.11,1.7621,0.1125,2.6004,0.6765,-0.1124,-88.05,-1.05,-5.85,12.26,2.34,-2.28,2.6584,-2.4653,-4.263,-36.0625,8.6875,21.1875,304.9375,31.0,174.875,0
1776971053.544,7.2209,-0.182,3.8283,3.8928,-2.1783,-0.4293,-34.2,-0.9,47.85,6.11,1.7621,0.1125,2.6004,0.6765,-0.1124,-88.05,-1.05,-5.85,12.26,2.34,-2.28,2.6584,-2.4653,-4.263,-36.0625,8.6875,21.1875,302.1875,30.0,174.75,0
1776971053.552,6.8953,-0.4453,3.5195,3.9229,-2.0307,-0.373,-35.1,-1.8,46.95,5.4612,1.4868,0.3926,2.561,0.9792,0.0195,-87.75,-2.1,-6.75,12.13,1.88,-2.25,2.7685,-2.2384,-4.0961,-36.0625,8.6875,21.1875,299.625,29.0,174.5,0
1776971053.562,6.8714,-0.972,3.2753,3.9229,-1.8402,-0.3339,-34.65,1.65,47.55,5.8514,1.0439,0.0814,2.6508,1.052,0.1204,-88.05,-2.7,-6.15,11.52,2.35,-1.57,2.7674,-2.1424,-3.8386,-36.0625,8.6875,21.1875,299.625,29.0,174.5,0
1776971053.567,6.8714,-0.972,3.2753,3.9229,-1.8402,-0.3339,-34.65,1.65,47.55,6.1818,0.6201,-0.2897,2.7174,1.1005,0.1415,-88.65,-2.1,-5.25,11.52,2.35,-1.57,2.7674,-2.1424,-3.8386,-36.0625,8.6875,21.1875,299.625,29.0,174.5,0
1776971053.572,6.9671,-1.5538,3.1556,3.8653,-1.6252,-0.3214,-34.65,1.65,47.55,6.1818,0.6201,-0.2897,2.7174,1.1005,0.1415,-88.65,-2.1,-5.25,11.37,2.79,-1.33,2.7751,-2.0562,-3.5245,-37.1875,-1.75,23.375,297.1875,28.0625,174.0625,0
1776971053.577,6.9671,-1.5538,3.1556,3.8653,-1.6252,-0.3214,-35.55,3.0,46.65,6.6846,0.4501,-0.6776,2.6766,1.1183,0.1543,-87.45,-0.9,-5.7,11.37,2.79,-1.33,2.7751,-2.0562,-3.5245,-37.1875,-1.75,23.375,297.1875,28.0625,174.0625,0
1776971053.582,7.0126,-2.0494,2.8611,3.7355,-1.4306,-0.3341,-35.55,3.0,46.65,6.6846,0.4501,-0.6776,2.6766,1.1183,0.1543,-87.45,-0.9,-5.7,11.4,3.16,-1.39,2.8013,-1.9253,-3.1678,-37.1875,-1.75,23.375,295.0,27.1875,173.5,0
1776971053.587,7.0126,-2.0494,2.8611,3.7355,-1.4306,-0.3341,-35.1,4.05,45.6,7.1658,0.1508,-1.4413,2.6422,1.1114,0.1503,-87.45,-0.9,-5.7,11.4,3.16,-1.39,2.7773,-1.7748,-2.8274,-37.1875,-1.75,23.375,293.0,26.375,172.8125,0
1776971053.593,6.8283,-2.3128,2.9329,3.5477,-1.2268,-0.3922,-35.1,4.05,45.6,1.3288,1.2258,-3.9816,2.6422,1.1114,0.1503,-88.95,-2.4,-6.45,11.43,3.55,-1.42,2.7773,-1.7748,-2.8274,-37.1875,-1.75,23.375,291.1875,25.625,172.0625,0
1776971053.602,6.8259,-2.2505,2.8778,3.2679,-0.9952,-0.4711,-36.0,3.45,45.0,7.027,3.3064,1.1277,2.8725,2.1218,-0.1284,-88.95,-2.4,-6.45,10.53,4.81,-0.76,2.6594,-1.6919,-2.5504,-37.1875,-1.75,23.375,291.1875,25.625,172.0625,0
1776971053.612,7.1682,-2.1644,3.7158,3.0185,-0.7429,-0.5684,-35.55,6.0,43.35,9.3518,0.7614,-2.0782,1.247,2.5786,0.2601,-87.45,-0.9,-3.45,9.73,5.31,-0.6,2.4576,-1.5795,-2.3704,-37.1875,-1.75,23.375,289.5,24.9375,171.375,0
1776971053.617,7.3478,-1.2785,3.4788,2.7755,-0.5649,-0.6651,-35.4,5.7,43.5,9.3518,0.7614,-2.0782,0.9355,2.3923,0.388,-87.45,-0.9,-3.45,9.73,5.31,-0.6,2.4576,-1.5795,-2.3704,-37.1875,-1.75,23.375,289.5,24.9375,171.375,0
1776971053.622,7.3478,-1.2785,3.4788,2.7755,-0.5649,-0.6651,-35.4,5.7,43.5,11.6933,-2.3798,-1.7861,0.9355,2.3923,0.388,-87.45,-0.9,-3.45,10.02,6.0,0.21,2.2046,-1.3941,-2.3529,-36.0,-8.0,28.6875,287.875,24.375,170.8125,0
1776971053.627,7.4819,-0.68,3.2801,2.6582,-0.3893,-0.7746,-35.4,5.7,43.5,11.6933,-2.3798,-1.7861,1.3603,1.704,0.554,-87.45,-0.9,-3.45,10.02,6.0,0.21,2.2046,-1.3941,-2.3529,-36.0,-8.0,28.6875,287.875,24.375,170.8125,0
1776971053.632,7.4819,-0.68,3.2801,2.6582,-0.3893,-0.7746,-35.4,5.7,43.5,9.1674,-2.6336,-1.4317,2.2878,1.6902,0.5287,-86.7,-1.35,-2.4,9.63,6.95,-0.82,1.7911,-1.0777,-2.3431,-36.0,-8.0,28.6875,286.3125,24.0,170.4375,0
1776971053.638,7.7261,-0.6416,3.4117,2.646,-0.2475,-0.8753,-37.2,8.4,44.7,9.1674,-2.6336,-1.4317,2.2878,1.6902,0.5287,-86.85,-0.3,-1.35,9.53,7.3,-1.16,1.3984,-0.8901,-2.378,-36.0,-8.0,28.6875,284.8125,23.75,170.25,0
1776971053.643,7.7261,-0.6416,3.4117,2.646,-0.2475,-0.8753,-36.3,8.25,45.15,9.6079,-1.7573,-0.6393,2.3859,1.9212,0.643,-86.85,-0.3,-1.35,9.53,7.3,-1.16,1.3984,-0.8901,-2.378,-36.0,-8.0,28.6875,283.25,23.625,170.3125,0
1776971053.653,8.418,-0.9313,-0.2227,2.3361,-0.0783,-0.9931,-36.3,8.25,45.15,9.9838,-1.4174,-0.091,2.4925,1.8588,0.6824,-88.05,0.3,-1.05,9.49,7.47,-1.57,1.0319,-0.6349,-2.5416,-36.0,-8.0,28.6875,283.25,23.625,170.3125,0
1776971053.663,10.7212,-3.1364,-1.0439,2.3521,-0.0141,-1.0147,-36.45,10.65,42.9,10.2592,-1.3455,-0.3687,2.5516,2.0784,0.6917,-86.85,-0.75,-0.6,9.64,2.98,3.11,0.7429,-0.4472,-2.702,-36.0,-8.0,28.6875,281.625,23.625,170.5625,0
1776971053.667,12.2918,-2.1237,-4.9321,1.8111,0.0304,-0.8612,-36.45,10.65,42.9,10.2592,-1.3455,-0.3687,2.5516,2.0784,0.6917,-86.85,-0.75,-0.6,9.64,2.98,3.11,0.7429,-0.4472,-2.702,-36.0,-8.0,28.6875,279.75,23.8125,171.375,0
1776971053.673,12.2918,-2.1237,-4.9321,1.8111,0.0304,-0.8612,-35.4,10.95,42.45,12.3637,-1.0534,-0.9529,2.5127,1.8644,0.5569,-86.85,0.0,-0.3,2.26,17.28,5.44,0.0633,-0.264,-3.3227,-34.1875,-10.75,31.1875,279.75,23.8125,171.375,0
1776971053.677,18.2199,0.0958,-11.1713,0.4583,0.3693,-0.4775,-35.4,10.95,42.45,12.3637,-1.0534,-0.9529,2.5127,1.8644,0.5569,-86.85,0.0,-0.3,2.26,17.28,5.44,0.0633,-0.264,-3.3227,-34.1875,-10.75,31.1875,277.25,24.4375,172.6875,0
1776971053.682,18.2199,0.0958,-11.1713,0.4583,0.3693,-0.4775,-35.4,10.95,42.45,17.3508,1.8292,-7.3526,3.0403,1.3086,0.2292,-86.25,-0.9,2.4,2.12,18.44,1.04,-0.3731,0.5498,-4.7168,-34.1875,-10.75,31.1875,277.25,24.4375,172.6875,0
1776971053.687,24.3395,-5.5545,-9.1435,1.3049,0.2454,-0.4375,-35.4,10.95,42.45,17.3508,1.8292,-7.3526,3.0403,1.3086,0.2292,-86.25,-0.9,2.4,2.12,18.44,1.04,3.2845,2.8296,-3.819,-34.1875,-10.75,31.1875,274.8125,26.3125,171.8125,0
1776971053.693,24.3395,-5.5545,-9.1435,1.3049,0.2454,-0.4375,-37.95,11.4,43.2,23.8582,7.7045,-16.52,3.1115,0.2934,-0.6318,-86.25,-0.9,2.4,19.67,-1.33,-2.75,3.2845,2.8296,-3.819,-34.1875,-10.75,31.1875,275.75,29.625,170.25,0
1776971053.703,19.9341,-9.3709,-3.4907,2.8757,0.4565,-0.5188,-36.0,11.7,42.45,20.0083,2.1093,-12.1147,2.5695,-0.0077,-1.5847,-87.0,1.35,1.2,21.86,-27.28,-20.87,1.3897,6.389,1.6166,-34.1875,-10.75,31.1875,276.3125,30.9375,169.125,0
1776971053.713,14.3796,-7.4627,0.4645,2.9199,1.036,-0.2619,-37.05,12.3,45.15,12.0787,-7.9272,-5.1571,2.3814,1.789,-1.5079,-87.0,1.35,1.2,3.55,4.24,-7.26,1.1956,2.5591,1.0799,-34.1875,-10.75,31.1875,276.3125,30.9375,169.125,0
1776971053.718,6.9863,-7.0342,-0.8523,0.9529,0.895,-0.1809,-37.05,12.3,45.15,10.2735,-9.402,-0.5052,2.3814,1.789,-1.5079,-87.0,1.35,1.2,3.55,4.24,-7.26,1.1956,2.5591,1.0799,-34.1875,-10.75,31.1875,276.3125,30.9375,169.125,0
1776971053.723,6.9863,-7.0342,-0.8523,-0.3709,0.987,-0.3275,-35.1,13.8,44.4,10.2735,-9.402,-0.5052,0.8196,2.1027,-1.1525,-84.75,3.3,3.0,10.1,20.95,-8.22,0.9141,-1.0537,1.2272,-32.25,-15.75,29.5625,276.8125,30.25,168.25,0
1776971053.728,5.1882,-6.9671,-0.8021,-0.3709,0.987,-0.3275,-35.1,13.8,44.4,10.568,-7.173,-0.0215,0.8196,2.1027,-1.1525,-84.75,3.3,3.0,10.1,20.95,-8.22,0.9141,-1.0537,1.2272,-32.25,-15.75,29.5625,276.8125,30.25,168.25,0
1776971053.733,3.7158,-4.6687,-0.5124,0.1756,0.943,-0.4338,-35.1,13.8,44.4,10.568,-7.173,-0.0215,-1.0653,0.9262,-0.6358,-85.95,5.55,3.0,0.19,-4.04,1.81,1.6024,-1.2795,1.0941,-32.25,-15.75,29.5625,277.0625,29.375,167.125,0
1776971053.741,3.7158,-4.6687,-0.5124,0.1756,0.943,-0.4338,-35.1,13.8,44.4,8.3342,-4.4293,3.3495,-2.3691,0.23,-0.0879,-86.1,4.65,3.6,1.94,-34.68,-29.47,0.5694,0.1342,0.6981,-32.25,-15.75,29.5625,277.375,29.375,166.5625,0
1776971053.746,8.7963,-2.0039,0.0239,0.6006,0.6845,-0.4948,-35.7,14.7,45.3,8.3342,-4.4293,3.3495,-2.3691,0.23,-0.0879,-86.1,4.65,3.6,1.94,-34.68,-29.47,0.5694,0.1342,0.6981,-32.25,-15.75,29.5625,277.25,30.4375,166.1875,0
1776971053.753,10.2615,-0.2466,1.2785,0.2044,0.3677,-0.4927,-35.4,13.65,46.05,8.4803,-1.1756,3.1484,-2.202,0.15,0.0594,-85.95,4.5,3.45,8.78,0.88,-5.81,0.5781,1.898,-0.2793,-32.25,-15.75,29.5625,277.5,31.0625,165.8125,0
1776971053.763,11.0014,0.5052,2.1476,0.0344,0.2278,-0.5521,-34.5,13.8,46.65,8.2624,2.3391,0.5938,-1.1567,0.3381,-0.089,-85.2,3.6,1.65,3.11,-1.91,-11.39,0.3262,1.1923,0.4047,-32.25,-15.75,29.5625,277.5,31.0625,165.8125,0
1776971053.768,11.0014,0.5052,2.1476,0.0344,0.2278,-0.5521,-34.5,13.8,46.65,8.5688,3.1987,1.1372,-0.397,0.4207,-0.2902,-85.2,3.6,1.65,3.11,-1.91,-11.39,0.3262,1.1923,0.4047,-32.25,-15.75,29.5625,278.0,31.0625,165.5,0
1776971053.773,11.5233,0.2634,1.2785,0.3344,0.4684,-0.5425,-36.6,14.25,45.9,8.5688,3.1987,1.1372,-0.397,0.4207,-0.2902,-84.15,4.95,3.3,5.9,-3.91,-7.57,-0.0447,0.3033,0.8399,-35.5625,-12.0,26.6875,278.0,31.0625,165.5,0
1776971053.778,11.5233,0.2634,1.2785,0.3344,0.4684,-0.5425,-36.6,14.25,45.9,8.3103,1.5347,3.0765,0.1303,0.5987,-0.316,-84.15,4.95,3.3,5.9,-3.91,-7.57,-0.0447,0.3033,0.8399,-35.5625,-12.0,26.6875,278.1875,31.4375,165.5,0
1776971053.783,10.9702,-0.5698,0.8787,0.5316,0.4453,-0.5159,-35.4,15.15,44.25,8.3103,1.5347,3.0765,0.1303,0.5987,-0.316,-84.15,4.95,3.3,5.79,-0.51,-8.29,-0.1614,0.7069,0.2542,-35.5625,-12.0,26.6875,278.1875,31.4375,165.5,0
1776971053.788,10.9702,-0.5698,0.8787,0.5316,0.4453,-0.5159,-35.4,15.15,44.25,7.999,1.8124,4.1156,0.6984,0.8282,-0.1631,-84.15,4.95,3.3,5.79,-0.51,-8.29,-0.733,1.3363,0.1331,-35.5625,-12.0,26.6875,278.5,32.125,165.75,0
1776971053.794,9.7636,-2.0231,0.4022,0.3627,0.4924,-0.5391,-35.4,15.15,44.25,7.999,1.8124,4.1156,0.6984,0.8282,-0.1631,-83.4,4.2,3.6,6.27,0.23,-9.33,-0.733,1.3363,0.1331,-35.5625,-12.0,26.6875,278.6875,32.9375,165.875,0
1776971053.803,9.6462,-2.1835,0.2155,0.1247,0.4461,-0.4799,-33.75,16.5,44.85,8.6886,2.3894,3.0502,1.0067,0.9134,0.0024,-83.4,4.2,3.6,6.98,-1.15,-7.86,-0.5487,1.4464,-0.0055,-35.5625,-12.0,26.6875,278.8125,33.25,166.0,0
1776971053.813,9.5912,-1.6807,-0.0311,-0.1092,0.3691,-0.4125,-35.55,15.75,46.65,9.3996,2.4876,1.6041,1.0051,0.9102,0.0648,-84.6,5.4,5.55,5.68,-1.51,-8.25,-0.2793,0.6621,0.048,-35.5625,-12.0,26.6875,278.8125,33.25,166.0,0
1776971053.818,9.5912,-1.6807,-0.0311,-0.1092,0.3691,-0.4125,-35.55,15.75,46.65,9.9407,2.5402,0.5842,0.9721,0.9606,0.0749,-84.6,5.4,5.55,5.68,-1.51,-8.25,-0.2793,0.6621,0.048,-35.5625,-12.0,26.6875,278.9375,33.5625,166.125,0
1776971053.823,9.9,-0.4094,-0.1269,-0.3094,0.2483,-0.3797,-34.95,16.65,46.05,9.979,2.5091,-0.0455,0.9721,0.9606,0.0749,-83.1,5.85,4.05,5.1,-1.74,-7.91,-0.3818,0.5989,0.0578,-36.5,-11.875,25.5625,278.9375,33.5625,166.125,0
1776971053.828,9.9,-0.4094,-0.1269,-0.3094,0.2483,-0.3797,-34.95,16.65,46.05,9.979,2.5091,-0.0455,1.0568,0.9867,0.1495,-83.1,5.85,4.05,5.1,-1.74,-7.91,-0.3818,0.5989,0.0578,-36.5,-11.875,25.5625,279.0625,33.875,166.25,0
1776971053.833,9.8019,0.2682,-0.5219,-0.2902,0.1793,-0.3704,-34.8,16.5,46.65,9.9383,2.5857,-0.1053,1.0568,0.9867,0.1495,-82.95,5.25,5.25,6.11,-1.27,-8.25,-0.3818,0.5989,0.0578,-36.5,-11.875,25.5625,279.0625,33.875,166.25,0
1776971053.842,9.3254,0.893,-1.8914,0.0029,0.2116,-0.4074,-35.55,16.5,47.25,9.7947,3.0287,0.0048,1.2049,0.9766,0.1969,-84.0,4.8,7.2,6.26,-1.29,-8.08,-0.2225,0.4909,0.0284,-36.5,-11.875,25.5625,279.125,34.125,166.3125,0
1776971053.852,9.2488,2.332,-1.9968,0.4498,0.3,-0.4543,-35.55,16.5,47.25,9.7947,3.0287,0.0048,1.283,0.9483,0.2222,-83.85,5.4,6.15,5.95,-1.34,-7.8,-0.1385,0.3294,0.0425,-36.5,-11.875,25.5625,279.1875,34.3125,166.375,0
1776971053.857,9.2488,2.332,-1.9968,0.4498,0.3,-0.4543,-35.55,16.5,47.25,9.4355,3.7948,-0.2322,1.27,0.8817,0.2252,-83.85,5.4,6.15,5.95,-1.34,-7.8,-0.1385,0.3294,0.0425,-36.5,-11.875,25.5625,279.25,34.5,166.375,0
1776971053.864,9.8186,2.6049,-1.7621,0.8348,0.4218,-0.4175,-33.9,16.2,46.8,9.1482,4.2401,-0.2801,1.1684,0.8793,0.1692,-85.35,5.4,7.35,6.19,-1.45,-8.0,-0.12,0.2989,0.0251,-36.5,-11.875,25.5625,279.25,34.5,166.375,0
1776971053.869,9.8545,2.0446,-1.6448,1.1466,0.4005,-0.3754,-33.9,16.2,46.8,9.1482,4.2401,-0.2801,1.1684,0.8793,0.1692,-85.35,5.4,7.35,6.19,-1.45,-8.0,-0.12,0.2989,0.0251,-36.5,-11.875,25.5625,279.3125,34.6875,166.4375,0
1776971053.874,9.8545,2.0446,-1.6448,1.1466,0.4005,-0.3754,-34.95,17.7,46.35,8.9328,4.5059,-0.2394,1.2007,0.9108,0.1042,-85.35,5.4,7.35,5.78,-1.33,-8.06,-0.1331,0.3403,-0.0087,-38.0625,-12.5625,23.375,279.3125,34.6875,166.4375,0
1776971053.878,9.517,1.5299,-1.5347,1.2886,0.4181,-0.3464,-34.95,17.7,46.35,8.9328,4.5059,-0.2394,1.2007,0.9108,0.1042,-85.35,5.4,7.35,5.78,-1.33,-8.06,-0.1331,0.3403,-0.0087,-38.0625,-12.5625,23.375,279.3125,34.6875,166.4375,0
1776971053.883,9.517,1.5299,-1.5347,1.2886,0.4181,-0.3464,-34.5,17.25,47.7,8.9735,4.051,0.1389,1.3291,0.9441,0.0719,-82.5,8.4,7.2,5.74,-1.23,-7.92,-0.12,0.3752,-0.0469,-38.0625,-12.5625,23.375,279.3125,34.875,166.5,0
1776971053.888,9.4978,0.2251,-1.3838,1.2894,0.4522,-0.2798,-34.5,17.25,47.7,8.9735,4.051,0.1389,1.3291,0.9441,0.0719,-82.5,8.4,7.2,5.74,-1.23,-7.92,-0.108,0.4112,-0.0545,-38.0625,-12.5625,23.375,279.3125,35.125,166.625,0
1776971053.894,9.4978,0.2251,-1.3838,1.2894,0.4522,-0.2798,-35.1,16.8,48.0,9.1818,3.1867,0.2825,1.5623,0.8865,0.0637,-82.95,6.45,6.0,5.9,-1.17,-7.92,-0.108,0.4112,-0.0545,-38.0625,-12.5625,23.375,279.3125,35.3125,166.625,0
1776971053.903,9.7899,-0.668,-1.1468,1.1495,0.4636,-0.2427,-35.1,16.8,48.0,9.1075,2.3224,0.1556,1.7296,0.8847,0.0584,-82.95,6.75,7.95,5.71,-1.24,-7.71,-0.0654,0.3458,-0.0447,-38.0625,-12.5625,23.375,279.3125,35.3125,166.625,0
1776971053.913,9.924,-1.3024,-0.8954,0.8641,0.4287,-0.1998,-34.95,19.2,47.1,9.4882,1.6927,-0.0048,1.7616,0.8513,0.0922,-82.2,6.75,7.2,5.45,-1.24,-7.87,-0.0469,0.3611,-0.0273,-38.0625,-12.5625,23.375,279.3125,35.5,166.625,0
1776971053.918,9.7923,-1.2354,-0.9385,0.474,0.4151,-0.1572,-34.95,19.2,47.1,9.4882,1.6927,-0.0048,1.7616,0.8513,0.0922,-82.2,6.75,7.2,5.45,-1.24,-7.87,-0.0469,0.3611,-0.0273,-38.0625,-12.5625,23.375,279.375,35.75,166.625,0
1776971053.923,9.7923,-1.2354,-0.9385,0.474,0.4151,-0.1572,-35.1,19.8,48.0,9.3781,1.4485,-0.3496,1.6745,0.8439,0.1388,-82.95,8.4,7.5,5.88,-1.28,-7.87,-0.036,0.4222,-0.0338,-38.5625,-12.1875,22.0625,279.375,35.75,166.625,0
1776971053.928,9.7995,-0.7398,-0.8835,0.199,0.4277,-0.1066,-34.65,18.9,46.35,9.3781,1.4485,-0.3496,1.6745,0.8439,0.1388,-82.95,8.4,7.5,5.88,-1.28,-7.87,-0.036,0.4222,-0.0338,-38.5625,-12.1875,22.0625,279.375,36.0,166.625,0
1776971053.933,9.7995,-0.7398,-0.8835,0.199,0.4277,-0.1066,-34.65,18.9,46.35,9.6367,1.2737,-0.5171,1.5972,0.7645,0.1636,-82.5,8.7,7.2,6.14,-1.26,-7.79,-0.0338,0.4123,-0.0305,-38.5625,-12.1875,22.0625,279.375,36.0,166.625,0
1776971053.938,9.7564,-0.4022,-0.9697,0.0847,0.4365,-0.0946,-34.95,19.65,47.1,9.6367,1.2737,-0.5171,1.5972,0.7645,0.1636,-82.5,8.7,7.2,6.14,-1.26,-7.79,-0.0185,0.3687,-0.0218,-38.5625,-12.1875,22.0625,279.375,36.1875,166.6875,0
1776971053.944,9.7564,-0.4022,-0.9697,0.0847,0.4365,-0.0946,-34.95,19.65,47.1,9.7037,1.257,-0.4717,1.5231,0.6654,0.1801,-82.5,8.7,7.2,6.21,-1.15,-7.79,-0.0185,0.3687,-0.0218,-38.5625,-12.1875,22.0625,279.375,36.375,166.625,0
1776971053.953,9.9982,-0.0838,-0.7302,0.1719,0.4125,-0.1444,-34.5,19.8,48.45,9.6869,1.245,0.0694,1.3981,0.7117,0.2025,-82.2,8.4,7.2,6.14,-1.24,-7.69,-0.0044,0.2869,-0.0011,-38.5625,-12.1875,22.0625,279.375,36.375,166.625,0
1776971053.963,9.742,0.723,-0.8595,0.3429,0.3637,-0.1476,-34.5,19.8,48.45,9.9479,1.2019,0.419,1.3683,0.745,0.2158,-82.2,8.4,7.2,5.76,-1.44,-7.8,-0.0153,0.2345,0.0087,-38.5625,-12.1875,22.0625,279.375,36.5,166.625,0
1776971053.968,9.912,0.1676,-0.4238,0.5468,0.3848,-0.1023,-35.4,20.7,48.6,10.0676,1.1468,0.5938,1.3683,0.745,0.2158,-82.2,8.4,7.2,5.76,-1.44,-7.8,-0.0153,0.2345,0.0087,-38.5625,-12.1875,22.0625,279.375,36.5,166.625,0
1776971053.973,9.912,0.1676,-0.4238,0.5468,0.3848,-0.1023,-35.4,20.7,48.6,10.0676,1.1468,0.5938,1.4093,0.6984,0.2214,-82.35,8.55,8.4,5.83,-1.56,-7.82,-0.0404,0.2967,-0.0055,-37.875,-12.1875,20.5,279.4375,36.625,166.625,0
1776971053.978,10.0533,-0.3065,-0.2155,0.6384,0.3821,-0.0879,-34.05,21.3,48.0,9.9551,1.1013,0.9385,1.3979,0.7328,0.2172,-82.35,8.55,8.4,5.83,-1.56,-7.82,-0.0404,0.2967,-0.0055,-37.875,-12.1875,20.5,279.4375,36.625,166.625,0
1776971053.983,10.0533,-0.3065,-0.2155,0.6384,0.3821,-0.0879,-34.05,21.3,48.0,9.9551,1.1013,0.9385,1.3979,0.7328,0.2172,-82.35,9.3,9.9,6.2,-1.4,-7.69,-0.0873,0.3905,-0.0196,-37.875,-12.1875,20.5,279.4375,36.875,166.6875,0
1776971053.988,10.0126,-0.4788,-0.012,0.6797,0.3656,-0.0602,-34.2,19.95,48.6,9.7683,1.3264,1.1372,1.4392,0.7264,0.2515,-82.35,9.3,9.9,6.2,-1.4,-7.69,-0.1156,0.3556,-0.0131,-37.875,-12.1875,20.5,279.4375,37.0625,166.75,0
1776971053.994,9.8354,-0.6776,0.1437,0.6169,0.3275,-0.0333,-34.2,19.95,48.6,9.7683,1.3264,1.1372,1.4392,0.7264,0.2515,-80.4,9.75,8.4,6.28,-1.47,-7.74,-0.1156,0.3556,-0.0131,-37.875,-12.1875,20.5,279.4375,37.0625,166.75,0
1776971054.003,9.8354,-0.6776,0.1437,0.6169,0.3275,-0.0333,-34.2,19.95,48.15,9.9216,1.2665,1.4054,1.3952,0.7541,0.3246,-82.5,10.65,7.95,6.17,-1.47,-7.74,-0.12,0.3338,-0.0218,-37.875,-12.1875,20.5,279.5,37.25,166.8125,0
1776971054.012,9.9958,0.0192,-0.2035,0.5915,0.3275,-0.0229,-34.2,19.95,48.15,9.8641,1.2546,1.6496,1.4642,0.7312,0.3885,-81.0,9.9,8.25,6.22,-1.32,-7.61,-0.108,0.348,-0.0316,-37.875,-12.1875,20.5,279.5,37.4375,166.875,0
1776971054.017,9.9671,-0.2682,-0.0024,0.5724,0.3363,-0.0163,-34.2,19.95,48.15,9.9,1.1253,1.7047,1.4605,0.635,0.4149,-81.0,9.9,8.25,6.22,-1.32,-7.61,-0.108,0.348,-0.0316,-37.875,-12.1875,20.5,279.5,37.4375,166.875,0
1776971054.022,9.9671,-0.2682,-0.0024,0.5724,0.3363,-0.0163,-34.2,19.95,48.15,9.9,1.1253,1.7047,1.4605,0.635,0.4149,-80.25,11.4,8.7,6.21,-1.23,-7.62,-0.1069,0.3196,-0.0109,-39.0625,-12.1875,20.375,279.5625,37.625,166.875,0
1776971054.026,10.0293,-0.7087,0.3855,0.6243,0.3078,-0.0234,-33.75,21.0,48.15,9.2799,1.0846,2.0494,1.4935,0.631,0.3669,-80.25,11.4,8.7,6.21,-1.23,-7.62,-0.1069,0.3196,-0.0109,-39.0625,-12.1875,20.375,279.5625,37.625,166.875,0
1776971054.031,10.0293,-0.7087,0.3855,0.6243,0.3078,-0.0234,-33.75,21.0,48.75,9.2799,1.0846,2.0494,1.4935,0.631,0.3669,-80.25,11.4,8.7,6.32,-1.33,-7.67,-0.0884,0.3131,-0.0098,-39.0625,-12.1875,20.375,279.5625,37.8125,166.875,0
1776971054.036,9.9311,-0.9457,0.4741,0.6305,0.2659,-0.0429,-32.55,21.75,49.05,9.4284,0.6847,2.1284,1.461,0.7877,0.3584,-80.25,11.4,8.7,6.32,-1.33,-7.67,-0.0884,0.3131,-0.0098,-39.0625,-12.1875,20.375,279.5625,37.9375,166.9375,0
1776971054.044,10.1682,-1.3958,0.7207,0.631,0.2425,-0.0426,-32.55,21.75,49.05,9.4284,0.6847,2.1284,1.461,0.7877,0.3584,-82.2,10.35,8.25,6.34,-1.36,-7.69,-0.0796,0.2956,-0.0055,-39.0625,-12.1875,20.375,279.5625,37.9375,166.9375,0
1776971054.05,10.1682,-1.3958,0.7207,0.631,0.2425,-0.0426,-33.15,21.15,48.15,9.1889,0.3998,2.399,1.5212,0.7394,0.3749,-82.2,10.35,8.25,6.16,-1.39,-7.49,-0.0818,0.2814,0.0033,-39.0625,-12.1875,20.375,279.625,38.125,167.0,0
1776971054.055,10.0724,-1.5275,0.3424,0.5665,0.1903,-0.0453,-33.15,21.15,48.15,9.1315,0.5914,2.6791,1.3163,0.9379,0.4322,-82.2,10.35,8.25,6.16,-1.39,-7.49,-0.0818,0.2814,0.0033,-39.0625,-12.1875,20.375,279.625,38.3125,167.0625,0
1776971054.064,9.9695,-1.3527,0.5866,0.5545,0.1708,-0.052,-34.8,22.05,49.5,9.5505,0.7757,2.3296,1.3163,0.9379,0.4322,-80.4,10.5,8.85,6.34,-1.41,-7.53,-0.0753,0.2803,-0.0098,-39.0625,-12.1875,20.375,279.625,38.3125,167.0625,0
1776971054.069,9.9695,-1.3527,0.5866,0.5545,0.1708,-0.052,-34.8,22.05,49.5,9.5505,0.7757,2.3296,1.4442,0.8748,0.4565,-80.4,10.5,8.85,6.34,-1.41,-7.53,-0.0753,0.2803,-0.0098,-39.0625,-12.1875,20.375,279.625,38.3125,167.0625,0
1776971054.073,9.8833,-0.7422,0.498,0.5145,0.1466,-0.0437,-34.8,22.05,49.5,9.0908,0.7925,2.5163,1.4442,0.8748,0.4565,-80.85,11.7,9.6,6.44,-1.24,-7.53,-0.0611,0.2673,-0.0185,-39.0625,-12.5625,19.5,279.625,38.4375,167.125,0
1776971054.078,9.8833,-0.7422,0.498,0.5145,0.1466,-0.0437,-33.15,20.7,47.85,9.0908,0.7925,2.5163,1.5423,0.9872,0.4823,-80.85,11.7,9.6,6.44,-1.24,-7.53,-0.0611,0.2673,-0.0185,-39.0625,-12.5625,19.5,279.625,38.4375,167.125,0
1776971054.083,9.9359,-0.4381,0.5171,0.5537,0.1468,-0.0541,-33.15,20.7,47.85,9.4858,1.0965,2.545,1.5423,0.9872,0.4823,-78.9,11.25,8.4,6.44,-1.48,-7.56,-0.0447,0.1974,-0.0175,-39.0625,-12.5625,19.5,279.625,38.5625,167.125,0
1776971054.088,9.9359,-0.4381,0.5171,0.5537,0.1468,-0.0541,-33.3,22.5,48.0,9.4858,1.0965,2.545,1.7158,1.0142,0.5351,-78.9,11.25,8.4,6.44,-1.48,-7.56,-0.0164,0.1385,-0.0327,-39.0625,-12.5625,19.5,279.625,38.6875,167.1875,0
1776971054.094,10.0437,0.0934,0.4262,0.6219,0.1143,-0.0687,-33.3,22.5,48.0,9.3589,0.668,2.8611,1.6811,1.08,0.5753,-80.85,11.25,10.65,6.4,-1.33,-7.62,-0.0164,0.1385,-0.0327,-39.0625,-12.5625,19.5,279.625,38.6875,167.1875,0
1776971054.103,10.1418,0.012,0.2274,0.7269,0.0893,-0.0783,-33.75,22.05,48.45,9.912,0.8188,2.6743,1.8282,0.8966,0.5846,-79.5,11.4,10.05,6.28,-1.15,-7.58,-0.0076,0.1254,-0.0273,-39.0625,-12.5625,19.5,279.625,38.75,167.25,0
1776971054.108,10.1418,0.012,0.2274,0.7269,0.0893,-0.0783,-32.85,21.9,47.1,9.912,0.8188,2.6743,1.8282,0.8966,0.5846,-79.5,11.4,10.05,6.28,-1.15,-7.58,-0.0011,0.12,-0.0316,-39.0625,-12.5625,19.5,279.5625,38.8125,167.3125,0
1776971054.114,10.1825,-0.2562,0.1006,0.8106,0.065,-0.0626,-33.9,22.65,48.15,9.3302,0.6847,2.8491,1.7802,0.9377,0.595,-79.8,10.35,9.3,6.42,-1.06,-7.57,-0.0011,0.12,-0.0316,-39.0625,-12.5625,19.5,279.5625,38.8125,167.3125,0
1776971054.119,10.1825,-0.2562,0.1006,0.8106,0.065,-0.0626,-33.9,22.65,48.15,9.3302,0.6847,2.8491,1.7802,0.9377,0.595,-79.8,10.35,9.3,6.42,-1.06,-7.57,-0.0011,0.12,-0.0316,-38.75,-12.5,19.75,279.5,38.9375,167.3125,0
1776971054.124,10.2879,-0.5267,-0.0718,0.8324,0.0418,-0.0197,-33.9,22.65,48.15,9.9359,0.8308,2.3918,1.8623,0.8516,0.5921,-79.8,10.35,9.3,6.39,-1.18,-7.44,0.0316,0.1014,-0.0665,-38.75,-12.5,19.75,279.5,38.9375,167.3125,0
1776971054.129,10.2879,-0.5267,-0.0718,0.8324,0.0418,-0.0197,-33.9,22.65,48.15,9.9359,0.8308,2.3918,1.8623,0.8516,0.5921,-79.8,10.35,9.3,6.39,-1.18,-7.44,0.0316,0.1014,-0.0665,-38.75,-12.5,19.75,279.4375,38.9375,167.375,0
1776971054.134,9.7516,-0.8835,-0.2346,0.7797,0.0053,0.0333,-33.9,22.65,48.15,9.3446,0.8595,2.3511,1.8591,0.902,0.6105,-80.4,13.2,11.1,6.42,-1.4,-7.54,0.0371,0.0654,-0.0818,-38.75,-12.5,19.75,279.4375,38.9375,167.375,0
1776971054.139,9.7516,-0.8835,-0.2346,0.7797,0.0053,0.0333,-33.75,22.5,46.95,9.3446,0.8595,2.3511,1.8591,0.902,0.6105,-80.4,13.2,11.1,6.42,-1.4,-7.54,0.0676,0.0338,-0.1134,-38.75,-12.5,19.75,279.375,39.0,167.4375,0
1776971054.144,9.5936,-0.8811,-1.0558,0.7139,-0.0013,0.052,-33.15,23.4,47.85,9.5385,0.8643,2.0446,1.8167,0.9659,0.6416,-80.1,11.25,8.85,6.27,-1.44,-7.59,0.0676,0.0338,-0.1134,-38.75,-12.5,19.75,279.375,39.0,167.4375,0
1776971054.153,9.493,-0.0359,-1.324,0.7544,-0.0019,0.065,-33.15,23.4,47.85,9.7995,0.5483,1.5921,1.7989,0.934,0.6925,-79.8,13.8,10.05,6.4,-1.42,-7.56,0.1124,0.0087,-0.1658,-38.75,-12.5,19.75,279.25,39.0,167.4375,0
1776971054.158,9.493,-0.0359,-1.324,0.8727,0.0189,0.1023,-33.3,24.3,46.65,9.7995,0.5483,1.5921,1.7989,0.934,0.6925,-79.8,13.8,10.05,6.4,-1.42,-7.56,0.1429,-0.024,-0.204,-38.75,-12.5,19.75,279.125,39.0625,167.5,0
1776971054.164,9.7875,0.6536,-1.336,0.8727,0.0189,0.1023,-34.5,23.25,48.0,9.9359,0.4717,1.0606,1.8738,0.8031,0.7234,-78.3,13.05,9.3,6.33,-1.29,-7.55,0.1429,-0.024,-0.204,-38.75,-12.5,19.75,279.125,39.0625,167.5,0
1776971054.169,9.6486,1.1277,-1.8387,1.076,0.0413,0.1124,-34.5,23.25,48.0,9.9742,0.7254,0.7614,1.8738,0.8031,0.7234,-78.3,13.05,9.3,6.33,-1.29,-7.55,0.1451,-0.0567,-0.2182,-40.25,-13.25,18.5625,278.9375,39.0625,167.5,0
1776971054.174,9.6486,1.1277,-1.8387,1.076,0.0413,0.1124,-34.5,23.25,48.0,9.9742,0.7254,0.7614,1.898,0.7615,0.7549,-78.9,13.2,9.15,6.41,-1.24,-7.6,0.1451,-0.0567,-0.2182,-40.25,-13.25,18.5625,278.9375,39.0625,167.5,0
1776971054.179,9.7659,1.0151,-1.4676,1.278,0.0506,0.1418,-34.5,23.25,48.0,10.1778,1.1732,0.486,1.898,0.7615,0.7549,-78.9,13.2,9.15,6.41,-1.24,-7.6,0.1876,-0.0654,-0.2749,-40.25,-13.25,18.5625,278.75,39.0625,167.5625,0
1776971054.184,9.7659,1.0151,-1.4676,1.278,0.0506,0.1418,-34.5,23.25,48.0,10.1778,1.1732,0.486,1.9295,0.6169,0.7536,-79.5,12.3,9.0,6.27,-1.29,-7.57,0.1876,-0.0654,-0.2749,-40.25,-13.25,18.5625,278.75,39.0625,167.5625,0
1776971054.189,9.9958,0.6105,-1.2809,1.4008,0.0727,0.1977,-34.5,23.25,48.0,10.0102,1.4772,0.6752,1.8341,0.4495,0.7274,-79.5,12.3,9.0,6.27,-1.29,-7.57,0.2291,-0.0633,-0.336,-40.25,-13.25,18.5625,278.5,39.0625,167.625,0
1776971054.195,9.9958,0.6105,-1.2809,1.4008,0.0727,0.1977,-33.6,23.4,46.8,10.0102,1.4772,0.6752,1.8341,0.4495,0.7274,-79.5,12.3,9.0,6.11,-1.4,-7.63,0.2291,-0.0633,-0.336,-40.25,-13.25,18.5625,278.5,39.0625,167.625,0
1776971054.203,9.845,0.0766,-1.3264,1.449,0.0997,0.2827,-33.9,24.15,48.6,10.0245,1.6185,0.7398,1.7549,0.3424,0.7147,-79.5,13.5,10.05,6.17,-1.36,-7.59,0.2825,-0.0284,-0.4047,-40.25,-13.25,18.5625,278.1875,39.0625,167.6875,0
1776971054.208,9.7133,-0.0335,-1.1492,1.4818,0.1063,0.3557,-33.9,24.15,48.6,10.3262,1.6472,0.7326,1.7549,0.3424,0.7147,-79.5,13.5,10.05,6.17,-1.36,-7.59,0.3534,-0.0349,-0.4985,-40.25,-13.25,18.5625,277.875,39.125,167.6875,0
1776971054.215,9.7133,-0.0335,-1.1492,1.4818,0.1063,0.3557,-33.75,23.25,47.7,10.3262,1.6472,0.7326,1.7336,0.1929,0.6808,-79.5,13.5,10.05,6.25,-1.55,-7.62,0.3534,-0.0349,-0.4985,-40.25,-13.25,18.5625,277.875,39.125,167.6875,0
1776971054.22,9.505,-0.0311,-0.8619,1.4815,0.149,0.4295,-33.75,23.25,47.7,9.4763,1.4557,0.9888,1.5863,0.263,0.6789,-79.5,13.5,10.05,6.33,-1.42,-7.54,0.4276,-0.0076,-0.5978,-39.875,-13.5625,19.0625,277.4375,39.1875,167.75,0
1776971054.225,9.505,-0.0311,-0.8619,1.4815,0.149,0.4295,-34.5,24.75,47.25,9.4763,1.4557,0.9888,1.5863,0.263,0.6789,-79.05,14.55,10.8,6.33,-1.42,-7.54,0.4276,-0.0076,-0.5978,-39.875,-13.5625,19.0625,277.4375,39.1875,167.75,0
1776971054.229,9.5481,0.3591,-0.8739,1.481,0.1529,0.5041,-34.5,24.75,47.25,9.5409,1.4844,1.1301,1.5132,0.1905,0.6976,-79.05,14.55,10.8,6.33,-1.42,-7.54,0.5203,-0.0305,-0.7069,-39.875,-13.5625,19.0625,276.9375,39.25,167.75,0
1776971054.235,9.5481,0.3591,-0.8739,1.481,0.1529,0.5041,-34.5,24.75,47.25,9.5409,1.4844,1.1301,1.5132,0.1905,0.6976,-80.4,14.4,8.85,6.34,-1.72,-7.65,0.5203,-0.0305,-0.7069,-39.875,-13.5625,19.0625,276.9375,39.25,167.75,0
1776971054.239,9.4284,0.4166,-1.0439,1.5378,0.1617,0.583,-34.5,24.75,47.25,9.56,1.5993,1.1492,1.4549,0.1239,0.6923,-80.4,14.4,8.85,6.34,-1.72,-7.65,0.6316,-0.0524,-0.8334,-39.875,-13.5625,19.0625,276.375,39.3125,167.8125,0
1776971054.245,9.4284,0.4166,-1.0439,1.5378,0.1617,0.583,-34.05,24.3,47.25,9.56,1.5993,1.1492,1.4549,0.1239,0.6923,-79.35,14.4,10.35,6.26,-1.48,-7.62,0.6316,-0.0524,-0.8334,-39.875,-13.5625,19.0625,276.375,39.3125,167.8125,0
1776971054.254,9.5553,0.0838,-0.9409,1.6212,0.1657,0.6608,-33.6,24.15,46.05,9.4379,1.6305,1.2689,1.384,0.0256,0.6811,-79.35,14.4,10.35,6.15,-1.59,-7.5,0.7614,-0.1091,-0.9861,-39.875,-13.5625,19.0625,275.625,39.375,167.8125,0
1776971054.258,9.6798,0.4812,-0.4381,1.6774,0.1996,0.7266,-33.6,24.15,46.05,9.4427,1.7334,1.5083,1.3169,-0.0333,0.6912,-79.35,13.2,8.85,6.15,-1.59,-7.5,0.8487,-0.1909,-1.1279,-39.875,-13.5625,19.0625,274.8125,39.375,167.875,0
1776971054.265,9.7995,0.7278,-0.5555,1.6489,0.1953,0.7951,-33.9,22.65,47.55,9.4427,1.7334,1.5083,1.3169,-0.0333,0.6912,-79.35,13.65,9.6,6.39,-1.8,-7.65,0.8487,-0.1909,-1.1279,-39.875,-13.5625,19.0625,274.8125,39.375,167.875,0
1776971054.27,9.7995,0.7278,-0.5555,1.6489,0.1953,0.7951,-33.9,22.65,47.55,9.3182,1.7621,1.5155,1.2907,-0.0456,0.7173,-79.35,13.65,9.6,6.39,-1.8,-7.65,0.8487,-0.1909,-1.1279,-39.1875,-13.875,19.375,274.0,39.4375,167.9375,0
1776971054.275,9.4427,0.565,-0.6129,1.6537,0.2172,0.8727,-33.6,25.2,46.8,9.4667,2.0877,1.2282,1.2907,-0.0456,0.7173,-80.1,14.4,8.4,6.2,-1.2,-7.65,0.9021,-0.1942,-1.2032,-39.1875,-13.875,19.375,274.0,39.4375,167.9375,0
1776971054.28,9.4427,0.565,-0.6129,1.6537,0.2172,0.8727,-33.6,25.2,46.8,9.4667,2.0877,1.2282,1.2633,-0.0831,0.7258,-80.1,14.4,8.4,6.2,-1.2,-7.65,0.9021,-0.1942,-1.2032,-39.1875,-13.875,19.375,273.0625,39.4375,168.0,0
1776971054.285,9.4092,0.5507,-0.5555,1.6254,0.2545,0.9526,-33.9,21.15,46.8,9.335,2.387,1.1253,1.2633,-0.0831,0.7258,-80.1,14.4,8.4,6.48,-2.2,-7.64,0.9588,-0.2334,-1.2632,-39.1875,-13.875,19.375,273.0625,39.4375,168.0,0
1776971054.289,9.4092,0.5507,-0.5555,1.6254,0.2545,0.9526,-33.9,21.15,46.8,9.335,2.387,1.1253,1.1847,-0.178,0.7011,-80.1,14.4,8.4,6.48,-2.2,-7.64,1.0134,-0.216,-1.3646,-39.1875,-13.875,19.375,272.125,39.5,168.0625,0
1776971054.295,9.4954,0.6512,-0.4741,1.5199,0.292,1.0003,-33.9,21.15,46.8,9.2751,2.2625,1.2163,1.0653,-0.2529,0.6867,-79.05,15.0,8.7,6.57,-1.53,-7.79,1.0134,-0.216,-1.3646,-39.1875,-13.875,19.375,271.125,39.5625,168.125,0
1776971054.304,10.2735,1.1827,-0.4932,1.42,0.2811,1.0765,-34.2,21.45,46.35,9.6702,2.2338,1.2905,1.0653,-0.2529,0.6867,-79.05,15.0,8.7,6.07,-0.94,-7.77,1.033,-0.2138,-1.3984,-39.1875,-13.875,19.375,271.125,39.5625,168.125,0
1776971054.314,10.8625,1.5012,-0.905,1.2889,0.3075,1.1498,-33.3,22.5,45.9,10.3166,2.4445,1.2498,0.9635,-0.3349,0.6723,-79.65,13.95,8.7,6.36,-1.61,-7.7,1.0657,-0.2062,-1.3886,-39.1875,-13.875,19.375,270.125,39.5625,168.1875,0
1776971054.319,10.8625,1.5012,-0.905,1.2889,0.3075,1.1498,-33.3,22.5,45.9,10.3166,2.4445,1.2498,0.8529,-0.4647,0.6523,-79.65,13.95,8.1,6.36,-1.61,-7.7,1.0657,-0.2062,-1.3886,-39.1875,-13.875,19.375,269.125,39.625,168.25,0
1776971054.324,11.2767,1.2163,-1.2641,1.1663,0.3163,1.186,-34.95,22.2,48.6,10.7955,2.6097,1.2019,0.7421,-0.6273,0.5998,-79.65,13.95,8.1,6.18,-1.61,-8.13,0.9992,-0.1745,-1.3592,-38.375,-15.375,21.0,269.125,39.625,168.25,0
1776971054.329,11.2767,1.2163,-1.2641,1.1663,0.3163,1.186,-34.95,22.2,48.6,10.7955,2.6097,1.2019,0.7421,-0.6273,0.5998,-79.5,15.45,7.2,6.18,-1.61,-8.13,0.9992,-0.1745,-1.3592,-38.375,-15.375,21.0,269.125,39.625,168.25,0
1776971054.333,10.9128,0.7135,-1.3216,1.0179,0.316,1.2009,-33.75,21.3,47.25,10.8984,2.4301,1.0104,0.7421,-0.6273,0.5998,-79.5,15.45,7.2,6.29,-2.16,-8.17,0.853,-0.0753,-1.2839,-38.375,-15.375,21.0,268.25,39.75,168.375,0
1776971054.338,10.9128,0.7135,-1.3216,1.0179,0.316,1.2009,-33.75,21.3,47.25,10.8984,2.4301,1.0104,0.704,-0.7826,0.5335,-79.5,12.6,7.2,6.29,-2.16,-8.17,0.6556,-0.0131,-1.213,-38.375,-15.375,21.0,267.4375,39.875,168.5625,0
1776971054.345,10.2759,0.6584,-1.2258,0.8258,0.3624,1.2604,-33.75,21.3,47.25,10.6279,2.1404,0.6345,0.7613,-0.8783,0.4719,-80.25,13.5,6.0,5.6,-0.33,-8.38,0.6556,-0.0131,-1.213,-38.375,-15.375,21.0,266.75,40.0625,168.75,0
1776971054.354,9.8952,0.7997,-0.972,0.6041,0.3962,1.279,-33.75,21.3,47.25,10.5656,1.9441,0.0287,0.9222,-1.0685,0.4016,-81.0,13.5,4.95,6.11,-0.29,-7.75,0.5225,0.1254,-1.0647,-38.375,-15.375,21.0,266.75,40.0625,168.75,0
1776971054.364,9.8426,1.2163,-0.7542,0.4772,0.4503,1.3131,-33.9,20.7,46.8,10.0269,1.834,-0.2155,1.0056,-1.2009,0.3512,-81.0,13.5,4.95,6.01,0.23,-7.92,0.5225,0.2738,-0.8967,-38.375,-15.375,21.0,266.1875,40.3125,168.8125,0
1776971054.369,9.8426,1.2163,-0.7542,0.4772,0.4503,1.3131,-33.9,20.7,46.8,10.0269,1.834,-0.2155,1.0056,-1.2009,0.3512,-81.75,12.3,5.25,6.01,0.23,-7.92,0.5225,0.2738,-0.8967,-38.375,-15.375,21.0,266.1875,40.3125,168.8125,0
1776971054.374,9.9288,1.3623,-0.6369,0.3552,0.5111,1.3606,-34.2,18.9,48.6,9.9814,2.0662,-0.2658,1.0349,-1.3115,0.2918,-81.75,12.3,5.25,5.88,0.52,-7.85,0.6152,0.4898,-0.7145,-36.1875,-17.1875,22.5,265.6875,40.625,168.8125,0
1776971054.379,9.9288,1.3623,-0.6369,0.3552,0.5111,1.3606,-34.2,18.9,48.6,9.9814,2.0662,-0.2658,1.0349,-1.3115,0.2918,-81.75,12.3,5.25,5.88,0.52,-7.85,0.6152,0.4898,-0.7145,-36.1875,-17.1875,22.5,265.6875,40.625,168.8125,0
1776971054.384,10.3334,1.2641,-0.8667,0.3643,0.5537,1.3955,-35.55,18.3,47.25,9.8737,2.2625,-0.249,1.068,-1.4242,0.2254,-81.75,12.3,5.25,6.16,0.35,-8.27,0.7025,0.8563,-0.5018,-36.1875,-17.1875,22.5,265.3125,41.1875,168.5625,0
1776971054.389,10.3334,1.2641,-0.8667,0.3643,0.5537,1.3955,-35.55,18.3,47.25,9.8737,2.2625,-0.249,1.068,-1.4242,0.2254,-83.25,13.5,4.2,6.16,0.35,-8.27,1.0428,1.0047,-0.4091,-36.1875,-17.1875,22.5,264.875,41.75,168.0625,0
1776971054.395,10.7141,0.917,-0.9601,0.3728,0.5734,1.4346,-33.75,18.75,47.25,9.9144,2.2841,-0.1317,1.1551,-1.6089,0.1697,-83.25,13.5,4.2,5.61,2.25,-8.77,1.0428,1.0047,-0.4091,-36.1875,-17.1875,22.5,264.25,42.375,167.25,0
1776971054.404,10.6662,0.4908,-1.0127,0.3893,0.5753,1.4727,-33.75,18.75,47.25,9.9742,2.2003,-0.2514,1.3025,-1.7048,0.1306,-82.95,11.85,3.45,4.77,0.36,-7.86,1.7573,1.0308,-0.5061,-36.1875,-17.1875,22.5,264.25,42.375,167.25,0
1776971054.414,10.6422,0.1891,-0.8978,0.3949,0.5921,1.5164,-34.05,18.3,48.75,9.821,2.0255,-0.2753,1.4248,-1.6976,0.1212,-82.5,13.05,3.45,7.32,-3.92,-7.47,1.7464,0.5411,-0.6501,-36.1875,-17.1875,22.5,263.5625,42.75,166.5,0
1776971054.419,10.6422,0.1891,-0.8978,0.3949,0.5921,1.5164,-34.05,18.3,48.75,10.1179,2.2577,-0.4357,1.4248,-1.6976,0.1212,-84.0,12.3,0.9,7.32,-3.92,-7.47,1.7464,0.5411,-0.6501,-36.1875,-17.1875,22.5,263.5625,42.75,166.5,0
1776971054.424,11.0397,0.5722,-0.5722,0.4578,0.6281,1.5823,-33.9,15.9,48.9,10.1179,2.2577,-0.4357,1.6148,-1.8458,0.0778,-84.0,12.3,0.9,10.47,-2.15,-8.86,1.2632,1.0025,-0.1702,-37.0,-18.0625,22.0625,234.125,43.3125,165.8125,0
1776971054.429,10.9942,0.929,-0.0599,0.5702,0.6147,1.6403,-34.05,15.0,47.7,9.8162,2.2721,-0.2514,1.6148,-1.8458,0.0778,-83.1,12.9,0.3,10.47,-2.15,-8.86,1.2632,1.0025,-0.1702,-37.0,-18.0625,22.0625,234.125,43.3125,165.8125,0
1776971054.434,10.9942,0.929,-0.0599,0.5702,0.6147,1.6403,-34.05,15.0,47.7,9.8162,2.2721,-0.2514,1.6454,-1.8479,-0.0032,-83.1,12.9,0.3,6.78,0.83,-8.82,1.1814,1.3319,0.2258,-37.0,-18.0625,22.0625,232.9375,44.0,164.8125,0
1776971054.441,10.7859,1.5897,0.6536,0.7989,0.5974,1.6646,-33.75,13.8,48.45,9.8114,2.4445,-0.0575,1.6531,-1.8048,-0.0906,-83.4,12.9,0.0,8.03,1.18,-9.08,1.4355,1.4704,0.5301,-37.0,-18.0625,22.0625,231.375,44.6875,163.5625,0
1776971054.446,10.7859,1.5897,0.6536,0.7989,0.5974,1.6646,-33.75,13.8,48.45,9.8114,2.4445,-0.0575,1.6531,-1.8048,-0.0906,-83.4,12.9,0.0,8.03,1.18,-9.08,1.4355,1.4704,0.5301,-37.0,-18.0625,22.0625,229.25,45.3125,161.875,0
1776971054.454,10.6925,2.1428,1.5107,1.0656,0.554,1.6816,-31.5,13.5,49.05,9.8306,3.0358,0.3663,1.5801,-1.74,-0.2094,-83.4,12.9,0.0,7.54,0.45,-9.08,1.8359,1.4519,0.8105,-37.0,-18.0625,22.0625,229.25,45.3125,161.875,0
1776971054.464,10.8409,2.4062,2.4157,1.5071,0.4882,1.7064,-31.5,13.5,49.05,9.6367,3.5506,1.1875,1.4783,-1.6491,-0.3595,-83.4,14.85,-2.85,7.37,0.12,-8.77,2.3257,1.2294,1.0592,-37.0,-18.0625,22.0625,226.375,45.8125,159.75,0
1776971054.469,10.7308,2.7031,3.8523,1.9263,0.3706,1.7293,-32.85,13.65,49.65,9.4978,3.9648,2.1883,1.3683,-1.4767,-0.5148,-83.4,14.85,-2.85,7.37,0.12,-8.77,2.3257,1.2294,1.0592,-37.0,-18.0625,22.0625,222.9375,46.125,157.3125,0
1776971054.474,10.7308,2.7031,3.8523,1.9263,0.3706,1.7293,-32.85,13.65,49.65,9.4978,3.9648,2.1883,1.3683,-1.4767,-0.5148,-83.4,14.85,-2.85,8.0,1.5,-8.58,2.8678,1.1726,1.201,-36.6875,-17.6875,20.5,222.9375,46.125,157.3125,0
1776971054.479,10.6015,2.6983,4.4843,2.3044,0.2513,1.7187,-32.55,13.05,50.85,9.517,3.7852,3.1364,1.2939,-1.1772,-0.6688,-84.45,15.0,-3.0,8.0,1.5,-8.58,2.8678,1.1726,1.201,-36.6875,-17.6875,20.5,222.9375,46.125,157.3125,0
1776971054.485,10.6015,2.6983,4.4843,2.3044,0.2513,1.7187,-32.55,13.05,50.85,9.517,3.7852,3.1364,1.2939,-1.1772,-0.6688,-84.45,15.0,-3.0,8.46,1.57,-10.12,3.219,1.7191,1.1694,-36.6875,-17.6875,20.5,219.5625,46.75,154.5,0
1776971054.491,10.3765,2.4014,5.3127,2.7592,0.1713,1.6998,-33.3,12.0,49.8,9.7013,3.79,3.9744,1.3347,-0.9859,-0.8236,-84.75,13.5,-4.95,8.9,2.7,-9.38,3.8365,1.7824,1.309,-36.6875,-17.6875,20.5,215.625,47.3125,151.1875,0
1776971054.496,10.3765,2.4014,5.3127,2.7592,0.1713,1.6998,-33.3,12.0,49.8,9.7923,3.8523,4.5514,1.3347,-0.9859,-0.8236,-84.6,15.9,-4.8,8.9,2.7,-9.38,3.8365,1.7824,1.309,-36.6875,-17.6875,20.5,211.0,47.625,147.3125,0
1776971054.504,10.24,1.7166,6.0501,3.1371,0.1255,1.6686,-32.1,12.15,49.95,9.7923,3.8523,4.5514,1.4005,-0.7759,-0.984,-84.6,15.9,-4.8,9.77,2.81,-9.14,4.7015,1.5937,1.4552,-36.6875,-17.6875,20.5,211.0,47.625,147.3125,0
1776971054.514,10.0365,0.4884,6.2273,3.346,0.0949,1.6305,-32.1,12.15,49.95,9.8881,3.7685,4.7884,1.5833,-0.6145,-1.121,-83.1,16.35,-5.55,10.77,1.67,-10.45,5.693,1.2763,1.5915,-36.6875,-17.6875,20.5,205.5,47.75,142.9375,0
1776971054.519,9.8857,-0.6991,6.3135,3.6657,0.1223,1.6355,-33.15,9.9,50.4,10.1466,3.4716,5.2002,1.8202,-0.4269,-1.2063,-84.45,16.2,-6.0,10.77,1.67,-10.45,5.693,1.2763,1.5915,-36.6875,-17.6875,20.5,205.5,47.75,142.9375,0
1776971054.524,9.8857,-0.6991,6.3135,3.6657,0.1223,1.6355,-33.15,9.9,50.4,10.5704,2.9257,4.9967,1.8202,-0.4269,-1.2063,-84.45,16.2,-6.0,9.38,1.88,-8.08,6.4424,0.7778,1.5741,-39.25,-13.0,20.1875,199.5,47.5,138.3125,0
1776971054.529,9.3589,-2.0327,6.3327,3.8051,0.1295,1.6326,-32.25,9.75,50.55,10.5704,2.9257,4.9967,2.0965,-0.2755,-1.2351,-84.15,17.55,-8.1,9.38,1.88,-8.08,6.4424,0.7778,1.5741,-39.25,-13.0,20.1875,199.5,47.5,138.3125,0
1776971054.534,9.3589,-2.0327,6.3327,3.8051,0.1295,1.6326,-32.25,9.75,50.55,10.6638,2.0183,4.3383,2.0965,-0.2755,-1.2351,-84.15,17.55,-8.1,7.65,1.67,-5.1,7.1122,0.2738,1.6133,-39.25,-13.0,20.1875,193.0625,47.0,133.5625,0
1776971054.541,8.8801,-2.8515,6.5386,3.9844,0.0986,1.6398,-32.55,10.05,51.3,10.6638,2.0183,4.3383,2.4264,-0.2049,-1.2337,-84.15,17.55,-8.1,7.92,0.47,-4.51,7.6849,0.2465,1.3788,-39.25,-13.0,20.1875,186.8125,46.5,128.625,0
1776971054.546,8.691,-3.8858,6.7564,4.0175,0.0277,1.6942,-32.55,10.05,51.3,10.4172,1.2402,3.5147,2.6889,-0.1783,-1.214,-84.15,17.55,-8.1,7.92,0.47,-4.51,7.6849,0.2465,1.3788,-39.25,-13.0,20.1875,180.8125,46.0625,123.75,0
