timestamp,thigh_acc_x,thigh_acc_y,thigh_acc_z,thigh_gyro_x,thigh_gyro_y,thigh_gyro_z,thigh_mag_x,thigh_mag_y,thigh_mag_z,shank_acc_x,shank_acc_y,shank_acc_z,shank_gyro_x,shank_gyro_y,shank_gyro_z,shank_mag_x,shank_mag_y,shank_mag_z,foot_acc_x,foot_acc_y,foot_acc_z,foot_gyro_x,foot_gyro_y,foot_gyro_z,foot_mag_x,foot_mag_y,foot_mag_z,foot_euler_x,foot_euler_y,foot_euler_z,perturbation_event
1776971582.784,9.0716,3.5027,-0.5076,0.2843,0.7898,-0.0061,-39.15,7.5,41.55,10.2831,1.5083,3.8571,-2.8759,0.3901,0.3432,-88.8,-9.75,-9.9,6.39,1.04,-7.58,0.1298,0.2934,0.2269,-23.75,10.6875,30.75,320.0625,38.125,-174.5625,0
1776971582.793,9.6486,2.2769,1.063,0.0994,0.9204,0.1127,-40.5,7.5,40.5,10.6901,1.0942,6.2345,-2.4296,0.1892,0.2838,-90.9,-8.7,-11.25,6.6,0.4,-7.96,0.1527,0.0774,0.3316,-23.75,10.6875,30.75,320.1875,38.1875,-174.8125,0
1776971582.803,10.726,1.3431,2.0231,-0.1268,1.4986,0.3176,-40.5,6.45,42.45,9.3685,0.103,6.6702,-1.8269,-0.0035,0.2782,-89.7,-9.45,-12.0,6.77,0.15,-8.06,0.096,-0.0611,0.3796,-23.75,10.6875,30.75,320.375,38.1875,-175.0,0
1776971582.807,11.2336,1.4413,2.059,-0.4271,1.441,0.409,-40.5,6.45,42.45,9.3685,0.103,6.6702,-1.8269,-0.0035,0.2782,-89.85,-10.95,-10.65,6.77,0.15,-8.06,0.096,-0.0611,0.3796,-23.75,10.6875,30.75,320.375,38.1875,-175.0,0
1776971582.812,11.2336,1.4413,2.059,-0.4271,1.441,0.409,-40.5,6.45,42.45,8.6814,-0.656,5.5809,-1.4839,0.0903,0.3272,-89.85,-10.95,-10.65,6.89,0.11,-7.88,0.0993,0.1702,0.288,-24.1875,10.75,32.0,320.5625,38.25,-175.1875,0
1776971582.817,9.8976,2.4253,1.0582,-0.4586,1.275,0.2982,-37.35,5.25,43.35,8.6814,-0.656,5.5809,-1.4839,0.0903,0.3272,-90.6,-10.05,-11.1,6.89,0.11,-7.88,0.0993,0.1702,0.288,-24.1875,10.75,32.0,320.5625,38.25,-175.1875,0
1776971582.822,9.8976,2.4253,1.0582,-0.4586,1.275,0.2982,-37.35,5.25,43.35,8.8633,-0.723,3.9241,-1.0557,0.105,0.4167,-90.6,-10.05,-11.1,6.77,0.21,-8.08,0.1102,0.4058,0.1593,-24.1875,10.75,32.0,320.625,38.5,-175.3125,0
1776971582.827,9.9335,3.644,0.2394,-0.4024,1.0882,0.328,-39.45,5.25,45.15,8.8633,-0.723,3.9241,-1.0557,0.105,0.4167,-88.95,-11.1,-12.0,6.77,0.21,-8.08,0.1102,0.4058,0.1593,-24.1875,10.75,32.0,320.625,38.75,-175.375,0
1776971582.834,9.5648,3.9193,-0.4717,-0.2771,0.8756,0.364,-37.35,6.0,46.2,9.0573,-1.4916,2.5019,-0.6073,0.1514,0.4924,-88.95,-11.1,-12.0,6.87,0.47,-7.57,0.1113,0.4712,0.0807,-24.1875,10.75,32.0,320.5625,39.0,-175.5625,0
1776971582.844,8.8538,4.4005,-0.8428,-0.1825,0.5337,0.3168,-37.5,5.7,44.25,9.3661,-2.4277,1.8723,-0.4215,0.23,0.5335,-87.75,-11.85,-10.8,6.47,0.73,-7.6,0.2574,0.3894,0.0327,-24.1875,10.75,32.0,320.5625,39.0,-175.5625,0
1776971582.854,9.0812,4.0654,-0.6632,-0.06,0.3549,0.2454,-38.1,4.5,45.9,9.3757,-2.1931,2.4948,-0.4525,0.38,0.5433,-87.75,-11.85,-10.8,6.31,0.71,-7.54,0.3545,0.2313,0.0153,-24.1875,10.75,32.0,320.5,39.125,-175.75,0
1776971582.859,9.0812,4.0654,-0.6632,-0.06,0.3549,0.2454,-38.1,4.5,45.9,9.833,-2.2027,2.9808,-0.567,0.4652,0.4943,-89.55,-12.45,-10.35,6.31,0.71,-7.54,0.3545,0.2313,0.0153,-24.1875,10.75,32.0,320.5,39.125,-175.75,0
1776971582.864,9.2129,4.1132,-0.5483,-0.0093,0.2763,0.2105,-38.1,4.5,45.9,9.833,-2.2027,2.9808,-0.567,0.4652,0.4943,-89.55,-12.45,-10.35,6.3,0.7,-7.52,0.264,0.1844,0.0011,-24.5625,11.1875,31.1875,320.4375,39.25,-175.875,0
1776971582.869,9.2129,4.1132,-0.5483,-0.0093,0.2763,0.2105,-38.1,4.5,45.9,9.7229,-0.5531,3.4069,-0.648,0.5089,0.4439,-89.55,-12.45,-10.35,6.3,0.7,-7.52,0.264,0.1844,0.0011,-24.5625,11.1875,31.1875,320.4375,39.25,-175.875,0
1776971582.874,9.1123,3.7469,-0.3017,-0.0256,0.3035,0.2065,-37.95,4.65,45.75,9.7229,-0.5531,3.4069,-0.648,0.5089,0.4439,-89.55,-12.45,-10.35,6.42,0.56,-7.61,0.1604,0.1484,-0.0033,-24.5625,11.1875,31.1875,320.4375,39.3125,-175.9375,0
1776971582.882,9.1123,3.7469,-0.3017,-0.0256,0.3035,0.2065,-37.95,4.65,45.75,9.4475,0.7614,3.4836,-0.6606,0.4663,0.3973,-89.7,-13.05,-10.5,6.45,0.61,-7.53,0.12,0.1156,0.0044,-24.5625,11.1875,31.1875,320.375,39.375,-176.0,0
1776971582.887,9.1746,3.5362,0.1532,-0.2236,0.3493,0.2388,-38.25,4.95,45.75,9.3518,1.8723,3.0358,-0.6606,0.4663,0.3973,-89.55,-12.0,-10.65,6.45,0.61,-7.53,0.12,0.1156,0.0044,-24.5625,11.1875,31.1875,320.375,39.4375,-176.0625,0
1776971582.894,8.8298,3.0478,0.261,-0.571,0.4277,0.3003,-38.1,4.8,45.9,9.3518,1.8723,3.0358,-0.5476,0.4072,0.3477,-89.55,-12.0,-10.65,6.48,0.54,-7.56,0.1025,0.0927,0.0087,-24.5625,11.1875,31.1875,320.375,39.4375,-176.0625,0
1776971582.901,8.8298,3.0478,0.261,-0.8306,0.562,0.36,-38.1,4.8,45.9,9.2919,1.8555,2.4588,-0.3816,0.3488,0.2657,-89.7,-12.3,-10.5,6.43,0.47,-7.6,0.0687,0.0698,0.0109,-24.5625,11.1875,31.1875,320.375,39.4375,-176.125,0
1776971582.906,9.1099,2.624,-0.0718,-0.8306,0.562,0.36,-39.3,4.95,47.55,9.3374,1.4844,1.9178,-0.3816,0.3488,0.2657,-89.7,-12.3,-10.5,6.43,0.47,-7.6,0.0687,0.0698,0.0109,-24.5625,11.1875,31.1875,320.375,39.4375,-176.125,0
1776971582.911,9.1099,2.624,-0.0718,-0.9081,0.6297,0.3728,-39.3,4.95,47.55,9.3374,1.4844,1.9178,-0.2164,0.271,0.1793,-90.45,-15.75,-10.8,6.28,0.54,-7.59,0.0284,0.0578,0.0055,-25.25,12.0,30.0,320.375,39.5,-176.125,0
1776971582.916,9.1626,2.3248,-0.6369,-0.9081,0.6297,0.3728,-38.25,4.65,46.35,9.2751,0.3136,1.652,-0.2164,0.271,0.1793,-90.45,-15.75,-10.8,6.28,0.54,-7.59,0.0284,0.0578,0.0055,-25.25,12.0,30.0,320.375,39.5,-176.125,0
1776971582.921,9.1626,2.3248,-0.6369,-0.7986,0.5937,0.3432,-38.25,4.65,46.35,9.2751,0.3136,1.652,-0.1228,0.267,0.1162,-89.1,-14.4,-11.1,6.3,0.52,-7.55,0.0164,0.0611,-0.0065,-25.25,12.0,30.0,320.375,39.5625,-176.125,0
1776971582.926,9.3182,2.6073,-0.7422,-0.7986,0.5937,0.3432,-38.25,4.65,46.35,9.3134,-0.4764,1.391,-0.1228,0.267,0.1162,-89.1,-14.4,-11.1,6.3,0.52,-7.55,0.0164,0.0611,-0.0065,-25.25,12.0,30.0,320.375,39.5625,-176.125,0
1776971582.93,9.3182,2.6073,-0.7422,-0.559,0.4903,0.308,-38.25,4.65,46.35,9.3134,-0.4764,1.391,-0.182,0.2987,0.1007,-88.8,-15.15,-8.85,6.23,0.54,-7.56,0.0164,0.0665,-0.0022,-25.25,12.0,30.0,320.375,39.5625,-176.125,0
1776971582.935,9.5744,2.6647,-0.6919,-0.559,0.4903,0.308,-37.95,4.95,46.05,9.5098,-1.1851,1.1708,-0.182,0.2987,0.1007,-88.8,-15.15,-8.85,6.23,0.54,-7.56,0.0164,0.0665,-0.0022,-25.25,12.0,30.0,320.3125,39.625,-176.1875,0
1776971582.944,9.6295,2.411,-0.4334,-0.3339,0.3826,0.2769,-37.5,2.7,48.15,9.481,-1.6424,1.0678,-0.328,0.2801,0.1242,-88.8,-15.15,-8.85,6.23,0.56,-7.51,0.0229,0.0502,-0.0065,-25.25,12.0,30.0,320.3125,39.625,-176.1875,0
1776971582.952,9.3111,2.2984,-0.0455,-0.219,0.3182,0.2289,-39.15,3.3,47.7,9.481,-1.6424,1.0678,-0.5865,0.2931,0.1623,-89.85,-13.65,-9.9,6.2,0.55,-7.53,0.0491,0.0447,-0.0044,-25.25,12.0,30.0,320.3125,39.625,-176.1875,0
1776971582.957,9.3111,2.2984,-0.0455,-0.219,0.3182,0.2289,-39.15,3.3,47.7,9.4954,-1.4198,1.2091,-0.8865,0.2419,0.1783,-89.85,-13.65,-9.9,6.2,0.55,-7.53,0.0491,0.0447,-0.0044,-25.25,12.0,30.0,320.3125,39.625,-176.1875,0
1776971582.962,9.2512,2.2553,0.4238,-0.1553,0.328,0.2001,-37.2,3.45,47.85,9.4954,-1.4198,1.2091,-0.8865,0.2419,0.1783,-89.4,-13.8,-10.05,6.33,0.56,-7.5,0.1167,0.0698,-0.0196,-24.5625,11.5625,29.5625,320.3125,39.6875,-176.25,0
1776971582.966,9.2512,2.2553,0.4238,-0.1553,0.328,0.2001,-37.2,3.45,47.85,9.6965,-1.4341,1.64,-1.1575,0.1724,0.1871,-89.4,-13.8,-10.05,6.33,0.56,-7.5,0.1167,0.0698,-0.0196,-24.5625,11.5625,29.5625,320.3125,39.6875,-176.25,0
1776971582.971,9.335,2.3056,0.6608,-0.2073,0.38,0.1958,-38.4,3.0,47.7,9.6965,-1.4341,1.64,-1.1575,0.1724,0.1871,-88.8,-13.95,-8.85,6.36,0.51,-7.5,0.1167,0.0698,-0.0196,-24.5625,11.5625,29.5625,320.25,39.6875,-176.3125,0
1776971582.976,9.335,2.3056,0.6608,-0.2073,0.38,0.1958,-38.4,3.0,47.7,9.5624,-1.3623,1.9537,-1.4109,0.1116,0.1823,-88.8,-13.95,-8.85,6.36,0.51,-7.5,0.1167,0.0698,-0.0196,-24.5625,11.5625,29.5625,320.25,39.6875,-176.3125,0
1776971582.981,9.3087,2.3272,0.7494,-0.3243,0.4239,0.2076,-38.4,3.0,47.7,9.5624,-1.3623,1.9537,-1.4109,0.1116,0.1823,-88.8,-14.85,-9.15,6.25,0.43,-7.56,0.1364,0.0807,-0.0109,-24.5625,11.5625,29.5625,320.25,39.75,-176.375,0
1776971582.986,9.3087,2.3272,0.7494,-0.3243,0.4239,0.2076,-38.4,3.0,47.7,9.5265,-1.2833,2.3367,-1.5689,0.0616,0.1663,-88.8,-14.85,-9.15,6.25,0.43,-7.56,0.1364,0.0807,-0.0109,-24.5625,11.5625,29.5625,320.1875,39.8125,-176.4375,0
1776971582.994,9.5074,2.0662,0.589,-0.4567,0.4373,0.2268,-37.5,3.45,48.6,9.4164,-1.1157,2.6767,-1.6174,0.0104,0.1476,-88.2,-15.0,-10.05,6.42,0.41,-7.55,0.1691,0.1102,-0.0284,-24.5625,11.5625,29.5625,320.1875,39.8125,-176.4375,0
1776971583.0,9.4882,2.229,0.5076,-0.6592,0.4106,0.2507,-37.05,3.75,50.1,9.4164,-1.1157,2.6767,-1.6174,0.0104,0.1476,-89.55,-14.4,-9.15,6.11,0.42,-7.43,0.2978,0.2542,-0.0971,-24.5625,11.5625,29.5625,320.0625,39.9375,-176.5625,0
1776971583.005,9.4882,2.229,0.5076,-0.6592,0.4106,0.2507,-37.05,3.75,50.1,9.2799,-0.7183,2.964,-1.5934,-0.0019,0.1247,-89.55,-14.4,-9.15,6.11,0.42,-7.43,0.2978,0.2542,-0.0971,-24.5625,11.5625,29.5625,320.0625,39.9375,-176.5625,0
1776971583.01,9.517,2.332,0.3567,-0.8668,0.3776,0.2686,-38.1,1.8,48.0,9.2799,-0.7183,2.964,-1.5934,-0.0019,0.1247,-89.55,-14.4,-9.15,6.11,0.42,-7.43,0.3425,0.3534,-0.096,-25.25,11.1875,31.1875,319.9375,40.125,-176.6875,0
1776971583.015,9.517,2.332,0.3567,-0.8668,0.3776,0.2686,-38.1,1.8,48.0,9.4212,-0.431,3.1939,-1.497,0.0021,0.1159,-89.55,-14.4,-9.15,6.38,0.42,-7.29,0.3425,0.3534,-0.096,-25.25,11.1875,31.1875,319.9375,40.125,-176.6875,0
1776971583.02,9.7061,2.2003,0.2179,-0.9769,0.2417,0.2566,-37.5,3.15,48.6,9.4212,-0.431,3.1939,-1.497,0.0021,0.1159,-88.2,-15.0,-9.0,6.38,0.42,-7.29,0.42,0.42,-0.1418,-25.25,11.1875,31.1875,319.75,40.375,-176.8125,0
1776971583.025,9.7061,2.2003,0.2179,-0.9769,0.2417,0.2566,-37.5,3.15,48.6,9.3063,0.0551,3.2441,-1.3464,0.0378,0.1116,-88.2,-15.0,-9.0,6.07,0.54,-7.54,0.42,0.42,-0.1418,-25.25,11.1875,31.1875,319.75,40.375,-176.8125,0
1776971583.03,9.5265,2.4565,0.0982,-1.076,0.1415,0.2593,-38.1,2.25,48.75,9.3063,0.0551,3.2441,-1.3464,0.0378,0.1116,-88.2,-15.0,-9.0,6.07,0.54,-7.54,0.3916,0.48,-0.1309,-25.25,11.1875,31.1875,319.625,40.625,-177.0,0
1776971583.035,9.5265,2.4565,0.0982,-1.076,0.1415,0.2593,-38.1,2.25,48.75,9.2799,0.3735,2.9951,-1.154,0.109,0.1114,-88.2,-15.0,-9.0,6.26,0.57,-7.28,0.3916,0.48,-0.1309,-25.25,11.1875,31.1875,319.625,40.625,-177.0,0
1776971583.044,9.3111,2.739,-0.2155,-1.0973,0.0586,0.2494,-38.1,2.25,48.75,9.5074,0.5387,2.5786,-0.9894,0.1471,0.0983,-89.7,-14.25,-12.0,6.49,0.46,-7.41,0.348,0.504,-0.1058,-25.25,11.1875,31.1875,319.4375,40.875,-177.125,0
1776971583.049,9.1602,2.296,-0.4238,-1.0195,0.0967,0.2888,-38.1,2.25,48.75,9.5074,0.5387,2.5786,-0.9894,0.1471,0.0983,-90.3,-15.6,-10.35,6.49,0.46,-7.41,0.2771,0.5018,-0.0742,-25.25,11.1875,31.1875,319.375,41.1875,-177.1875,0
1776971583.055,9.1602,2.296,-0.4238,-1.0195,0.0967,0.2888,-38.25,1.95,48.15,9.6319,0.6823,1.9848,-0.8823,0.118,0.0906,-90.3,-15.6,-10.35,6.47,0.43,-7.31,0.2771,0.5018,-0.0742,-25.25,11.1875,31.1875,319.375,41.1875,-177.1875,0
1776971583.06,9.4643,2.2266,-0.2825,-0.9454,0.1921,0.2976,-39.15,3.3,48.45,9.5936,0.7039,1.6831,-0.8823,0.118,0.0906,-87.75,-16.2,-10.8,6.59,0.37,-7.35,0.2378,0.4287,-0.0404,-26.375,12.0625,30.0,319.25,41.4375,-177.3125,0
1776971583.065,9.4643,2.2266,-0.2825,-0.9454,0.1921,0.2976,-39.15,3.3,48.45,9.5936,0.7039,1.6831,-0.8703,0.0727,0.0962,-87.75,-16.2,-10.8,6.59,0.37,-7.35,0.2378,0.4287,-0.0404,-26.375,12.0625,30.0,319.25,41.4375,-177.3125,0
1776971583.07,9.3996,2.5043,-0.146,-0.8721,0.2774,0.2915,-37.35,0.75,48.75,9.6175,0.5938,1.312,-0.9406,0.0485,0.1231,-88.65,-15.75,-11.25,6.59,0.37,-7.35,0.2193,0.348,-0.0316,-26.375,12.0625,30.0,319.1875,41.625,-177.375,0
1776971583.075,9.3996,2.5043,-0.146,-0.8721,0.2774,0.2915,-37.35,0.75,48.75,9.6175,0.5938,1.312,-0.9406,0.0485,0.1231,-88.65,-15.75,-11.25,6.66,0.34,-7.26,0.2193,0.348,-0.0316,-26.375,12.0625,30.0,319.125,41.75,-177.5,0
1776971583.084,9.3901,2.5402,-0.182,-0.8116,0.348,0.2995,-37.65,1.8,48.75,9.7276,0.5411,1.1947,-1.0469,0.0171,0.1426,-88.2,-16.2,-10.05,6.59,0.32,-7.38,0.1942,0.2989,-0.0284,-26.375,12.0625,30.0,319.125,41.75,-177.5,0
1776971583.094,9.481,2.5379,-0.2682,-0.7181,0.3872,0.3088,-37.65,1.8,48.75,9.6223,0.5531,1.2354,-1.169,0.0,0.1543,-88.95,-15.0,-10.5,6.65,0.32,-7.26,0.1571,0.2553,-0.0175,-26.375,12.0625,30.0,319.125,41.9375,-177.5625,0
1776971583.099,9.3613,2.5522,-0.1796,-0.6478,0.4021,0.3115,-37.65,1.8,48.75,9.5241,0.5722,1.4389,-1.2644,0.004,0.1452,-88.95,-15.0,-10.5,6.65,0.32,-7.26,0.1276,0.2105,-0.0142,-26.375,12.0625,30.0,319.0625,42.0,-177.625,0
1776971583.105,9.3829,2.6456,-0.1197,-0.6195,0.4287,0.3038,-37.65,1.8,48.75,9.5241,0.5722,1.4389,-1.2644,0.004,0.1452,-88.95,-15.0,-10.5,6.6,0.35,-7.29,0.1276,0.2105,-0.0142,-26.375,12.0625,30.0,319.0625,42.0,-177.625,0
1776971583.11,9.3829,2.6456,-0.1197,-0.6195,0.4287,0.3038,-37.5,1.2,48.9,9.4116,0.6153,1.7262,-1.2809,0.0195,0.1332,-91.05,-15.9,-10.65,6.6,0.35,-7.29,0.0916,0.2116,-0.0131,-26.0,12.5,29.25,319.0625,42.125,-177.6875,0
1776971583.115,9.2895,2.715,0.0096,-0.5569,0.4048,0.2934,-37.5,1.2,48.9,9.4116,0.6153,1.7262,-1.2809,0.0195,0.1332,-91.05,-15.9,-10.65,6.48,0.41,-7.27,0.0916,0.2116,-0.0131,-26.0,12.5,29.25,319.0625,42.125,-177.6875,0
1776971583.12,9.2895,2.715,0.0096,-0.5569,0.4048,0.2934,-37.35,0.75,48.75,9.323,0.6225,2.0566,-1.2444,0.0354,0.1183,-91.05,-15.9,-10.65,6.48,0.41,-7.27,0.0916,0.2116,-0.0131,-26.0,12.5,29.25,319.0,42.25,-177.6875,0
1776971583.125,9.1674,2.6264,0.1676,-0.5191,0.3994,0.2848,-37.35,0.75,48.75,9.323,0.6225,2.0566,-1.2444,0.0354,0.1183,-91.05,-15.9,-10.65,6.46,0.4,-7.24,0.0654,0.2313,-0.0087,-26.0,12.5,29.25,319.0,42.25,-177.6875,0
1776971583.13,9.1674,2.6264,0.1676,-0.5191,0.3994,0.2848,-37.05,-0.3,49.8,9.3613,0.486,2.4421,-1.1967,0.0405,0.109,-88.95,-14.55,-12.0,6.46,0.4,-7.24,0.0382,0.2433,0.0065,-26.0,12.5,29.25,319.0,42.375,-177.6875,0
1776971583.135,9.3972,2.6911,0.4956,-0.497,0.4072,0.3014,-37.05,-0.3,49.8,9.3613,0.486,2.4421,-1.1967,0.0405,0.109,-88.95,-14.55,-12.0,6.5,0.39,-7.23,0.0382,0.2433,0.0065,-26.0,12.5,29.25,319.0,42.375,-177.6875,0
1776971583.144,9.4068,2.6767,0.6153,-0.5287,0.3912,0.3022,-37.2,-0.9,49.2,9.2967,0.5291,2.6815,-1.1178,0.0568,0.1085,-89.55,-15.9,-12.9,6.63,0.33,-7.24,0.0196,0.2433,0.0185,-26.0,12.5,29.25,319.0,42.5625,-177.75,0
1776971583.149,9.4068,2.6767,0.6153,-0.5287,0.3912,0.3022,-37.2,-0.9,49.2,9.3948,0.577,2.873,-1.0288,0.0823,0.1111,-88.2,-15.75,-13.5,6.63,0.33,-7.24,-0.0022,0.2574,0.0229,-26.0,12.5,29.25,319.0,42.6875,-177.75,0
1776971583.155,9.5313,2.636,0.5555,-0.6022,0.4024,0.3293,-37.2,-0.9,49.2,9.4308,0.668,2.8491,-1.0288,0.0823,0.1111,-88.2,-15.75,-13.5,6.69,0.4,-7.19,-0.0022,0.2574,0.0229,-26.0,12.5,29.25,319.0,42.6875,-177.75,0
1776971583.16,9.5313,2.636,0.5555,-0.6022,0.4024,0.3293,-37.2,-0.9,49.2,9.4308,0.668,2.8491,-0.9622,0.0797,0.1351,-89.1,-15.15,-12.15,6.69,0.4,-7.19,-0.0196,0.2662,0.0262,-27.0625,12.5,28.375,319.0,42.8125,-177.6875,0
1776971583.165,9.4954,2.5163,0.3711,-0.671,0.4271,0.3589,-37.2,-0.9,49.2,9.4739,0.7374,2.6552,-0.9622,0.0797,0.1351,-89.1,-15.15,-12.15,6.75,0.42,-7.14,-0.0196,0.2662,0.0262,-27.0625,12.5,28.375,319.0,42.8125,-177.6875,0
1776971583.17,9.4954,2.5163,0.3711,-0.671,0.4271,0.3589,-38.85,1.5,49.5,9.4739,0.7374,2.6552,-0.9185,0.0533,0.1466,-89.1,-15.15,-12.15,6.75,0.42,-7.14,-0.0371,0.2716,0.036,-27.0625,12.5,28.375,319.0625,43.0,-177.6875,0
1776971583.175,9.3877,2.4014,0.146,-0.7522,0.4423,0.3946,-38.85,1.5,49.5,9.4164,0.7159,2.4134,-0.9185,0.0533,0.1466,-89.1,-15.15,-12.15,6.72,0.39,-7.15,-0.0371,0.2716,0.036,-27.0625,12.5,28.375,319.0625,43.0,-177.6875,0
1776971583.18,9.3877,2.4014,0.146,-0.7522,0.4423,0.3946,-37.65,-1.8,50.1,9.4164,0.7159,2.4134,-0.8911,0.0312,0.1522,-90.3,-16.35,-12.15,6.72,0.39,-7.15,-0.0502,0.2738,0.0393,-27.0625,12.5,28.375,319.0625,43.125,-177.6875,0
1776971583.185,9.2895,2.3008,-0.1221,-0.8031,0.4602,0.4269,-37.65,-1.8,50.1,9.4236,0.8021,2.1835,-0.8801,0.012,0.1519,-90.3,-16.35,-12.15,6.74,0.39,-7.14,-0.0502,0.2738,0.0393,-27.0625,12.5,28.375,319.0625,43.125,-177.6875,0
1776971583.194,9.1387,2.3559,-0.1987,-0.8092,0.4714,0.4517,-36.6,-2.25,51.3,9.4092,0.8739,2.0446,-0.8801,0.012,0.1519,-90.3,-16.35,-12.15,6.81,0.37,-7.15,-0.0644,0.2771,0.0458,-27.0625,12.5,28.375,319.125,43.3125,-177.6875,0
1776971583.199,9.1387,2.3559,-0.1987,-0.8092,0.4714,0.4517,-38.4,-1.8,51.6,9.4092,0.8739,2.0446,-0.8735,0.0189,0.13,-89.55,-15.15,-12.45,6.81,0.37,-7.15,-0.0742,0.2596,0.0458,-27.0625,12.5,28.375,319.1875,43.4375,-177.625,0
1776971583.205,8.9854,2.5139,-0.2682,-0.7815,0.502,0.4748,-38.4,-1.8,51.6,9.3709,0.9936,1.9178,-0.8479,0.0338,0.1031,-89.55,-15.15,-12.45,6.85,0.31,-7.17,-0.0742,0.2596,0.0458,-27.0625,12.5,28.375,319.1875,43.4375,-177.625,0
1776971583.21,8.9854,2.5139,-0.2682,-0.7815,0.502,0.4748,-38.4,-1.8,51.6,9.3709,0.9936,1.9178,-0.8479,0.0338,0.1031,-89.1,-14.85,-12.9,6.85,0.31,-7.17,-0.0742,0.2596,0.0458,-27.5,12.0625,28.75,319.1875,43.5625,-177.625,0
1776971583.215,8.8011,2.7294,-0.486,-0.7568,0.5598,0.4962,-38.4,-1.8,51.6,9.3087,1.1468,1.7502,-0.8274,0.056,0.0549,-89.1,-14.85,-12.9,6.86,0.33,-7.11,-0.0916,0.2302,0.0469,-27.5,12.0625,28.75,319.1875,43.5625,-177.625,0
1776971583.22,8.8011,2.7294,-0.486,-0.7568,0.5598,0.4962,-36.6,-0.75,50.55,9.3087,1.1468,1.7502,-0.8274,0.056,0.0549,-89.4,-14.55,-14.25,6.86,0.33,-7.11,-0.0916,0.2302,0.0469,-27.5,12.0625,28.75,319.25,43.6875,-177.5625,0
1776971583.225,8.7604,3.1364,-0.6345,-0.7061,0.6089,0.5127,-36.6,-0.75,50.55,9.1578,1.3527,1.7717,-0.7951,0.0717,0.0104,-89.4,-14.55,-14.25,6.84,0.36,-7.06,-0.0905,0.2193,0.0447,-27.5,12.0625,28.75,319.25,43.6875,-177.5625,0
1776971583.23,8.5952,3.5506,-0.8763,-0.6406,0.6446,0.5225,-37.05,-2.55,51.6,9.1578,1.3527,1.7717,-0.7951,0.0717,0.0104,-89.1,-15.9,-13.95,6.82,0.4,-7.07,-0.0916,0.2116,0.0491,-27.5,12.0625,28.75,319.3125,43.8125,-177.5625,0
1776971583.236,8.5952,3.5506,-0.8763,-0.6406,0.6446,0.5225,-37.05,-2.55,51.6,9.1075,1.6161,1.8004,-0.7735,0.0741,-0.0394,-89.1,-15.9,-13.95,6.82,0.4,-7.07,-0.0916,0.2116,0.0491,-27.5,12.0625,28.75,319.3125,43.8125,-177.5625,0
1776971583.244,8.8969,3.9313,-0.996,-0.5545,0.6387,0.5175,-37.2,-1.2,51.45,9.1315,1.8292,2.0087,-0.7501,0.0669,-0.0655,-88.95,-16.5,-14.55,6.41,0.48,-6.95,-0.0851,0.2116,0.0567,-27.5,12.0625,28.75,319.3125,43.9375,-177.5,0
1776971583.254,9.2632,3.5865,-0.0407,-0.4104,0.6883,0.518,-35.85,-3.3,52.35,9.1339,1.8794,2.3056,-0.6965,0.0325,-0.0829,-89.1,-15.15,-14.4,6.03,0.53,-7.04,-0.0796,0.2476,0.0807,-27.5,12.0625,28.75,319.375,44.0625,-177.5,0
1776971583.259,9.2632,3.5865,-0.0407,-0.2798,0.7266,0.5431,-38.1,-4.5,51.6,9.1339,1.8794,2.3056,-0.6965,0.0325,-0.0829,-89.1,-15.15,-14.4,6.03,0.53,-7.04,-0.0796,0.2476,0.0807,-27.5,12.0625,28.75,319.375,44.0625,-177.5,0
1776971583.264,9.2009,3.3255,0.0,-0.2798,0.7266,0.5431,-38.1,-4.5,51.6,9.232,1.7262,2.5594,-0.6395,0.0269,-0.097,-89.1,-15.15,-14.4,6.07,0.49,-7.09,-0.0731,0.3382,0.1091,-28.5625,12.0625,28.0625,319.5,44.25,-177.5,0
1776971583.269,9.414,2.6025,0.2658,-0.2262,0.8444,0.5596,-38.1,-4.5,51.6,9.232,1.7262,2.5594,-0.6395,0.0269,-0.097,-89.1,-15.15,-14.4,6.07,0.49,-7.09,-0.0731,0.3382,0.1091,-28.5625,12.0625,28.0625,319.5,44.25,-177.5,0
1776971583.274,9.414,2.6025,0.2658,-0.2262,0.8444,0.5596,-38.1,-4.5,51.6,9.2751,1.6855,2.6193,-0.5649,0.0565,-0.093,-89.1,-15.15,-15.15,6.11,0.75,-6.97,-0.0764,0.4811,0.1364,-28.5625,12.0625,28.0625,319.5625,44.5,-177.5625,0
1776971583.281,9.4523,2.3583,0.4669,-0.1815,0.9054,0.5534,-37.05,-3.3,51.9,9.244,1.5826,2.5211,-0.5649,0.0565,-0.093,-89.1,-15.15,-15.15,6.14,0.72,-7.17,-0.0971,0.5901,0.1833,-28.5625,12.0625,28.0625,319.6875,44.875,-177.5625,0
1776971583.286,9.4523,2.3583,0.4669,-0.1815,0.9054,0.5534,-35.1,-4.05,52.65,9.244,1.5826,2.5211,-0.4722,0.1085,-0.0941,-89.1,-15.15,-15.15,6.14,0.72,-7.17,-0.0971,0.5901,0.1833,-28.5625,12.0625,28.0625,324.4375,45.25,-177.625,0
1776971583.295,9.1267,2.3128,0.5698,-0.1953,0.9321,0.5798,-34.95,-3.45,53.25,9.1051,1.5083,2.5259,-0.4135,0.1412,-0.1074,-88.65,-14.55,-15.3,6.98,0.3,-7.06,-0.1167,0.7123,0.24,-28.5625,12.0625,28.0625,324.4375,45.25,-177.625,0
1776971583.305,9.0453,2.1428,0.4525,-0.319,1.0067,0.6659,-36.0,-3.9,54.6,9.0764,1.5754,2.5953,-0.4072,0.1343,-0.1354,-87.75,-14.55,-13.8,8.4,-0.67,-7.2,-0.0622,0.7232,0.1865,-28.5625,12.0625,28.0625,324.375,45.625,-177.6875,0
1776971583.31,9.2416,2.1739,0.0407,-0.5393,1.0419,0.7171,-36.0,-3.9,54.6,9.0549,1.5778,2.4924,-0.4072,0.1343,-0.1354,-87.75,-14.55,-13.8,8.4,-0.67,-7.2,-0.0622,0.7232,0.1865,-28.5625,12.0625,28.0625,324.375,45.625,-177.6875,0
1776971583.315,9.2416,2.1739,0.0407,-0.5393,1.0419,0.7171,-35.4,-5.7,54.9,9.0549,1.5778,2.4924,-0.4154,0.118,-0.1676,-88.95,-14.55,-16.05,6.86,0.49,-6.94,-0.0524,0.636,0.1069,-28.1875,11.6875,26.875,324.375,46.0,-177.6875,0
1776971583.32,9.4068,2.4684,0.2059,-0.6797,1.104,0.7232,-35.4,-5.7,54.9,8.9471,1.5227,2.5259,-0.4463,0.0634,-0.2089,-88.95,-14.55,-16.05,6.86,0.49,-6.94,-0.0524,0.636,0.1069,-28.1875,11.6875,26.875,324.375,46.0,-177.6875,0
1776971583.325,9.4068,2.4684,0.2059,-0.6797,1.104,0.7232,-35.4,-5.7,54.9,8.9471,1.5227,2.5259,-0.4463,0.0634,-0.2089,-88.35,-13.65,-13.65,6.59,0.41,-7.15,-0.0415,0.6185,0.1058,-28.1875,11.6875,26.875,324.375,46.375,-177.75,0
1776971583.33,9.5074,2.5331,0.3759,-0.6294,1.1242,0.7178,-35.4,-5.7,54.9,9.2536,1.2498,2.5762,-0.5305,0.0922,-0.2467,-88.35,-13.65,-13.65,6.59,0.41,-7.15,-0.0382,0.7101,0.1309,-28.1875,11.6875,26.875,324.3125,46.75,-177.75,0
1776971583.335,9.5074,2.5331,0.3759,-0.6294,1.1242,0.7178,-35.85,-6.0,55.2,9.2536,1.2498,2.5762,-0.5305,0.0922,-0.2467,-89.4,-15.0,-15.6,6.43,0.65,-7.15,-0.0382,0.7101,0.1309,-28.1875,11.6875,26.875,324.25,47.1875,-177.8125,0
1776971583.345,9.6678,1.8244,0.7278,-0.5486,1.0981,0.7107,-34.95,-6.9,55.65,9.1698,1.0965,2.5402,-0.6043,0.1346,-0.2819,-89.7,-14.25,-14.85,7.01,0.32,-7.08,-0.0458,0.8247,0.1473,-28.1875,11.6875,26.875,324.25,47.1875,-177.8125,0
1776971583.355,9.6103,1.3862,1.2546,-0.4954,1.1413,0.7115,-34.5,-6.0,56.25,9.1435,0.929,2.5522,-0.6448,0.1343,-0.3024,-89.7,-14.25,-14.85,7.44,0.59,-6.67,-0.0469,0.9032,0.1484,-28.1875,11.6875,26.875,324.1875,47.6875,-177.875,0
1776971583.36,9.4882,0.972,1.4509,-0.4956,1.1778,0.7224,-34.5,-6.0,56.25,9.1961,0.747,2.5762,-0.6739,0.0965,-0.3094,-89.7,-14.25,-14.85,7.44,0.59,-6.67,-0.0469,0.9032,0.1484,-28.1875,11.6875,26.875,324.125,48.1875,-177.875,0
1776971583.365,9.4882,0.972,1.4509,-0.4956,1.1778,0.7224,-33.9,-6.9,55.65,9.1961,0.747,2.5762,-0.6739,0.0965,-0.3094,-89.1,-13.95,-16.2,7.55,0.33,-6.7,-0.0545,0.8716,0.1484,-28.1875,12.5,26.5,324.125,48.1875,-177.875,0
1776971583.37,9.6295,0.5674,1.8842,-0.5662,1.2545,0.7517,-33.9,-6.9,55.65,9.3972,0.3998,2.4014,-0.7147,0.0306,-0.3128,-89.1,-13.95,-16.2,7.55,0.33,-6.7,-0.0545,0.8716,0.1484,-28.1875,12.5,26.5,324.0625,48.625,-177.9375,0
1776971583.375,9.6295,0.5674,1.8842,-0.5662,1.2545,0.7517,-33.75,-7.5,56.55,9.3972,0.3998,2.4014,-0.7147,0.0306,-0.3128,-88.2,-14.55,-15.6,7.45,0.54,-6.64,-0.0513,0.8029,0.1538,-28.1875,12.5,26.5,324.0625,48.625,-177.9375,0
1776971583.381,9.5529,0.1508,1.5467,-0.6768,1.2921,0.7805,-33.75,-7.5,56.55,9.3757,0.0311,2.0016,-0.8204,-0.0341,-0.3107,-90.15,-12.3,-15.3,7.36,0.23,-6.8,-0.0447,0.7647,0.1505,-28.1875,12.5,26.5,324.0,49.0625,-178.0,0
1776971583.386,9.7492,-0.2801,1.8435,-0.756,1.3781,0.7754,-33.75,-7.5,56.55,9.6223,-0.2227,1.6975,-0.8204,-0.0341,-0.3107,-90.15,-12.3,-15.3,7.36,0.23,-6.8,-0.0447,0.7647,0.1505,-28.1875,12.5,26.5,323.9375,49.5,-178.0625,0
1776971583.395,10.1849,-0.8954,1.4246,-0.9172,1.3664,0.7789,-32.55,-8.55,58.05,9.6223,-0.2227,1.6975,-0.9534,-0.1055,-0.3182,-89.55,-13.65,-16.65,8.23,-0.92,-6.9,-0.0251,0.8039,0.1374,-28.1875,12.5,26.5,323.9375,49.5,-178.0625,0
1776971583.405,10.8098,-1.0582,1.3527,-1.0235,1.3987,0.7669,-33.15,-7.95,58.95,10.1059,-0.1939,1.4892,-1.1074,-0.1306,-0.3563,-88.2,-13.5,-16.35,7.85,-0.41,-6.37,-0.0262,0.8149,0.0676,-28.1875,12.5,26.5,323.875,50.0,-178.0625,0
1776971583.41,10.8098,-1.0582,1.3527,-1.0235,1.3987,0.7669,-33.15,-7.95,58.95,10.0341,-0.0383,1.2713,-1.2372,-0.2057,-0.3754,-88.2,-13.5,-16.35,7.85,-0.41,-6.37,-0.0262,0.8149,0.0676,-28.1875,12.5,26.5,323.875,50.0,-178.0625,0
1776971583.415,10.7141,-0.8116,1.7573,-1.1229,1.4019,0.7765,-32.85,-9.45,59.55,10.0916,0.3735,1.2498,-1.2372,-0.2057,-0.3754,-89.85,-12.9,-16.2,7.24,-0.04,-6.81,-0.0327,0.8432,0.0131,-29.6875,13.5,24.875,323.875,50.4375,-178.0625,0
1776971583.42,10.7141,-0.8116,1.7573,-1.1229,1.4019,0.7765,-32.85,-9.45,59.55,10.0916,0.3735,1.2498,-1.327,-0.3062,-0.3648,-89.85,-12.9,-16.2,7.24,-0.04,-6.81,-0.0327,0.8432,0.0131,-29.6875,13.5,24.875,323.875,50.4375,-178.0625,0
1776971583.425,10.4842,0.0311,2.0351,-1.1101,1.3688,0.7765,-31.95,-9.75,59.85,9.9264,0.9984,1.2809,-1.327,-0.3062,-0.3648,-89.85,-12.9,-16.2,7.41,-0.21,-6.55,-0.0513,1.0428,-0.0829,-29.6875,13.5,24.875,324.0,51.0,-177.9375,0
1776971583.43,10.4842,0.0311,2.0351,-1.1101,1.3688,0.7765,-31.95,-9.75,59.85,9.9264,0.9984,1.2809,-1.3784,-0.364,-0.3517,-89.85,-12.9,-16.2,7.41,-0.21,-6.55,-0.1462,1.1956,-0.1069,-29.6875,13.5,24.875,324.1875,51.6875,-177.75,0
1776971583.436,10.2017,0.146,1.8986,-1.069,1.3387,0.7474,-30.6,-10.95,60.3,9.7731,1.5299,1.4054,-1.4237,-0.3565,-0.3339,-89.85,-12.0,-16.2,7.51,-0.3,-6.55,-0.1462,1.1956,-0.1069,-29.6875,13.5,24.875,324.4375,52.375,-177.5,0
1776971583.445,10.1921,0.0814,2.1572,-1.0651,1.347,0.7424,-30.6,-10.95,60.3,9.7276,1.6831,1.4126,-1.4048,-0.3616,-0.3216,-89.85,-12.0,-16.2,7.61,-0.04,-6.14,-0.2214,1.261,-0.1276,-29.6875,13.5,24.875,324.4375,52.375,-177.5,0
1776971583.455,10.1634,0.4214,2.7222,-1.0986,1.3952,0.7565,-30.3,-12.15,61.35,9.8306,1.719,1.7765,-1.287,-0.3778,-0.3325,-89.7,-12.3,-17.85,7.81,0.12,-5.83,-0.2313,1.3068,-0.1778,-29.6875,13.5,24.875,324.75,53.125,-177.1875,0
1776971583.46,10.1634,0.4214,2.7222,-1.0986,1.3952,0.7565,-30.3,-12.15,61.35,9.8306,1.719,1.7765,-1.287,-0.3778,-0.3325,-89.7,-12.3,-17.85,7.81,0.12,-5.83,-0.2313,1.3068,-0.1778,-29.6875,13.5,24.875,324.75,53.125,-177.1875,0
1776971583.465,10.4555,0.68,2.3367,-1.1498,1.3907,0.7202,-31.05,-13.95,59.25,9.7875,1.4676,1.6712,-1.182,-0.397,-0.3709,-89.85,-10.5,-18.0,7.9,0.91,-5.23,-0.2923,1.4748,-0.1778,-31.5,12.5,24.0625,325.125,53.9375,-176.8125,0
1776971583.47,10.4555,0.68,2.3367,-1.1498,1.3907,0.7202,-31.05,-13.95,59.25,9.7875,1.4676,1.6712,-1.182,-0.397,-0.3709,-89.85,-10.5,-18.0,7.9,0.91,-5.23,-0.2923,1.4748,-0.1778,-31.5,12.5,24.0625,325.125,53.9375,-176.8125,0
1776971583.475,10.9367,0.2897,2.5163,-1.234,1.3789,0.6512,-28.95,-11.25,60.15,10.2352,1.5083,1.8866,-1.1463,-0.2718,-0.4213,-90.45,-11.4,-18.6,7.77,0.41,-5.69,-0.4581,1.5882,-0.0764,-31.5,12.5,24.0625,325.5625,54.8125,-176.4375,0
1776971583.48,10.9367,0.2897,2.5163,-1.234,1.3789,0.6512,-28.95,-11.25,60.15,10.2352,1.5083,1.8866,-1.1463,-0.2718,-0.4213,-90.45,-11.4,-18.6,7.77,0.41,-5.69,-0.8061,1.6559,0.0665,-31.5,12.5,24.0625,326.3125,55.6875,-175.9375,0
1776971583.486,11.4323,0.0886,2.0207,-1.4024,1.4176,0.6102,-29.55,-13.2,62.4,10.568,1.6616,1.9944,-1.1109,-0.2308,-0.4959,-89.55,-12.9,-18.0,7.45,0.54,-6.11,-0.8061,1.6559,0.0665,-31.5,12.5,24.0625,327.4375,56.75,-175.3125,0
1776971583.495,12.0644,-0.6895,1.2977,-1.6731,1.4605,0.5748,-29.55,-13.2,62.4,10.92,1.9106,1.992,-1.0701,-0.2787,-0.5971,-89.4,-11.4,-18.6,7.18,-0.11,-5.34,-1.2774,1.8533,0.2029,-31.5,12.5,24.0625,327.4375,56.75,-175.3125,0
1776971583.505,12.5935,-1.7861,0.6393,-2.0209,1.5665,0.5689,-29.55,-13.2,62.4,10.8793,1.9201,1.6328,-1.0229,-0.4397,-0.6933,-89.55,-11.25,-18.45,7.11,-0.33,-4.96,-1.8948,2.2831,0.2978,-31.5,12.5,24.0625,329.0625,58.0,-174.3125,0
1776971583.51,12.5935,-1.7861,0.6393,-2.0209,1.5665,0.5689,-29.55,-13.2,62.4,10.8793,1.9201,1.6328,-1.0229,-0.4397,-0.6933,-89.55,-11.25,-18.45,7.11,-0.33,-4.96,-1.8948,2.2831,0.2978,-31.5,12.5,24.0625,331.1875,59.6875,-173.0,0
1776971583.515,13.0364,-2.8898,-0.9888,-2.5551,1.7664,0.619,-28.8,-15.45,62.4,10.8002,1.9632,0.9601,-0.8934,-0.696,-0.8151,-89.55,-11.25,-18.45,8.78,0.08,-6.7,-2.6594,2.99,0.4756,-32.25,12.0625,21.375,331.1875,59.6875,-173.0,0
1776971583.52,13.0364,-2.8898,-0.9888,-2.5551,1.7664,0.619,-28.8,-15.45,62.4,10.8002,1.9632,0.9601,-0.8934,-0.696,-0.8151,-89.55,-11.25,-18.45,8.78,0.08,-6.7,-2.6594,2.99,0.4756,-32.25,12.0625,21.375,333.0625,61.625,-171.8125,0
1776971583.525,12.8952,-4.0294,-4.5203,-3.0912,2.1098,0.7293,-28.95,-16.05,64.05,10.6303,1.8962,-0.1939,-0.8247,-1.1013,-0.9563,-90.3,-10.5,-19.95,8.28,2.32,-5.64,-2.7107,3.375,0.781,-32.25,12.0625,21.375,333.0625,61.625,-171.8125,0
1776971583.53,12.8952,-4.0294,-4.5203,-4.1075,1.9244,0.7413,-28.95,-16.05,64.05,9.9671,1.573,-1.3767,-0.8247,-1.1013,-0.9563,-90.3,-10.5,-19.95,8.28,2.32,-5.64,-1.886,3.3467,1.3145,-32.25,12.0625,21.375,333.8125,63.5625,-171.6875,0
1776971583.536,13.2423,-5.1116,-1.7071,-4.1075,1.9244,0.7413,-25.95,-17.4,63.45,9.9671,1.573,-1.3767,-1.0243,-1.5306,-1.1487,-90.3,-10.5,-19.95,8.69,3.37,-6.8,-1.886,3.3467,1.3145,-32.25,12.0625,21.375,334.0625,65.625,-172.25,0
1776971583.545,13.0412,-2.0494,0.1628,-4.8627,1.6214,0.7989,-26.7,-16.65,63.15,9.4739,1.0127,-1.8004,-1.3494,-1.9132,-1.3949,-89.55,-10.05,-19.2,7.59,3.45,-5.92,-1.6897,3.5157,1.7944,-32.25,12.0625,21.375,334.0625,65.625,-172.25,0
1776971583.555,11.9566,1.336,0.4836,-5.1579,1.3323,0.6867,-26.7,-16.65,63.15,8.7676,0.0024,-1.719,-1.7142,-1.9995,-1.614,-89.55,-10.5,-19.95,8.07,0.61,-6.14,-1.5904,3.927,1.9515,-32.25,12.0625,21.375,334.125,67.9375,-173.1875,0
1776971583.56,10.161,2.9401,1.8579,-4.7425,0.895,0.3251,-26.7,-16.65,63.15,8.6622,-1.3503,-1.3862,-2.0414,-1.9012,-1.7893,-89.55,-10.5,-19.95,8.07,0.61,-6.14,-1.5904,3.927,1.9515,-32.25,12.0625,21.375,334.125,67.9375,-173.1875,0
1776971583.565,10.161,2.9401,1.8579,-4.7425,0.895,0.3251,-26.7,-16.65,63.15,8.6622,-1.3503,-1.3862,-2.0414,-1.9012,-1.7893,-88.2,-9.15,-19.05,10.42,2.13,-7.93,-1.3483,4.6797,1.9286,-35.1875,13.0625,17.375,334.0,70.625,-174.5625,0
1776971583.57,10.0293,2.6552,3.5291,-4.1667,0.6518,-0.0602,-25.35,-21.3,61.5,8.6,-1.8771,-0.7638,-2.3385,-1.7709,-1.9958,-88.2,-9.15,-19.05,10.42,2.13,-7.93,-1.3483,4.6797,1.9286,-35.1875,13.0625,17.375,334.0,70.625,-174.5625,0
1776971583.575,10.0293,2.6552,3.5291,-4.1667,0.6518,-0.0602,-25.35,-21.3,61.5,8.6,-1.8771,-0.7638,-2.3385,-1.7709,-1.9958,-90.15,-8.4,-21.15,13.28,3.07,-6.25,-0.9141,5.3265,1.8402,-35.1875,13.0625,17.375,333.5625,73.625,-176.5,0
1776971583.583,10.3286,2.0087,5.1116,-3.3588,0.5324,-0.3749,-26.7,-20.4,60.3,8.3486,-2.0806,-0.8092,-2.5079,-1.7088,-2.1698,-88.95,-5.25,-21.6,14.02,2.15,-5.24,-1.0396,5.2393,1.7355,-35.1875,13.0625,17.375,333.3125,76.5625,-179.125,0
1776971583.588,10.3286,2.0087,5.1116,-3.3588,0.5324,-0.3749,-26.7,-20.4,60.3,9.6343,-2.3798,-0.5052,-2.5079,-1.7088,-2.1698,-88.95,-5.25,-21.6,14.02,2.15,-5.24,-1.0396,5.2393,1.7355,-35.1875,13.0625,17.375,333.0625,79.375,176.375,0
1776971583.596,10.3621,0.3879,6.11,-2.7326,0.4751,-0.5614,-25.05,-22.05,60.15,9.6343,-2.3798,-0.5052,-2.6985,-1.5881,-2.295,-87.75,-4.05,-24.6,14.49,3.5,-4.87,-1.0625,5.0724,1.8031,-35.1875,13.0625,17.375,332.875,82.0,168.5625,0
1776971583.606,10.3142,-0.7997,7.2089,-2.2569,0.4743,-0.5998,-26.85,-21.75,58.35,11.2288,-2.3367,-0.4214,-2.7515,-1.5402,-2.3523,-87.75,-4.05,-24.6,14.52,2.13,-5.9,-1.1476,5.0102,1.8533,-35.1875,13.0625,17.375,332.875,82.0,168.5625,0
1776971583.61,10.3837,-2.1284,7.9559,-1.9316,0.7887,-0.5921,-26.85,-21.75,58.35,12.4977,-0.8284,-0.929,-2.7248,-1.1943,-2.3209,-87.75,-4.05,-24.6,14.52,2.13,-5.9,-1.1476,5.0102,1.8533,-37.0625,15.25,10.375,332.9375,84.1875,177.5625,0
1776971583.615,10.3837,-2.1284,7.9559,-1.9316,0.7887,-0.5921,-26.85,-21.75,58.35,12.4977,-0.8284,-0.929,-2.7248,-1.1943,-2.3209,-87.75,-2.1,-25.35,17.66,1.99,-7.21,-1.5293,4.708,1.7333,-37.0625,15.25,10.375,332.9375,84.1875,177.5625,0
1776971583.62,10.884,-3.7781,7.695,-1.489,1.4218,-0.2971,-27.0,-23.4,58.95,13.6637,0.0742,-0.5363,-2.7067,-1.0525,-2.233,-87.75,-2.1,-25.35,17.66,1.99,-7.21,-1.5293,4.708,1.7333,-37.0625,15.25,10.375,333.5,85.5,176.75,0
1776971583.625,10.884,-3.7781,7.695,-1.489,1.4218,-0.2971,-27.0,-23.4,58.95,13.6637,0.0742,-0.5363,-2.7067,-1.0525,-2.233,-89.1,-0.3,-24.0,16.78,3.2,-6.83,-2.1686,4.0153,1.5719,-37.0625,15.25,10.375,333.5,85.5,176.75,0
1776971583.63,9.7659,-3.0311,6.7277,-1.7203,1.6387,-0.5273,-26.1,-24.0,57.6,13.7738,1.1229,-0.3639,-2.6862,-1.0051,-2.1408,-89.1,-0.3,-24.0,16.78,3.2,-6.83,-2.858,3.4274,1.5228,-37.0625,15.25,10.375,334.375,85.75,176.0,0
1776971583.636,9.7659,-3.0311,6.7277,-1.7203,1.6387,-0.5273,-26.1,-24.0,57.6,13.5344,1.0127,-0.2586,-2.6862,-1.0051,-2.1408,-87.45,0.15,-26.7,15.38,2.25,-8.46,-2.858,3.4274,1.5228,-37.0625,15.25,10.375,335.5625,85.125,4.8125,0
1776971583.645,10.0293,-3.8978,6.7277,-1.9841,2.0227,-0.4823,-26.25,-22.95,58.2,12.6558,0.3807,-0.3208,-2.6196,-1.0938,-2.0627,-86.85,1.95,-25.8,13.43,1.0,-7.75,-3.4001,2.75,1.549,-37.0625,15.25,10.375,336.8125,84.125,5.75,0
1776971583.656,8.5066,-5.0709,6.1507,-2.1525,2.1482,-0.4178,-26.7,-23.7,59.25,11.6023,1.1612,-0.7709,-2.5034,-1.0765,-1.9612,-88.05,4.65,-26.55,6.53,1.72,-7.72,-3.8037,1.945,1.6832,-37.0625,15.25,10.375,336.8125,84.125,5.75,0
1776971583.66,7.3095,-4.6184,4.8626,-2.206,2.0294,-0.3885,-28.05,-23.7,60.3,11.6023,1.1612,-0.7709,-2.3718,-0.9302,-1.8575,-88.05,4.65,-26.55,6.53,1.72,-7.72,-3.8037,1.945,1.6832,-37.0625,15.25,10.375,337.75,82.875,79.0625,0
1776971583.665,7.3095,-4.6184,4.8626,-1.9809,1.6038,-0.5875,-28.05,-23.7,60.3,10.9894,0.8356,-1.3743,-2.1933,-0.7218,-1.8178,-88.05,4.95,-26.25,4.25,-0.45,-14.18,-3.7186,1.0679,2.0682,-37.5,17.5,3.0,337.75,82.875,79.0625,0
1776971583.67,6.9767,-5.8419,5.5929,-1.9809,1.6038,-0.5875,-28.05,-23.7,60.3,10.9894,0.8356,-1.3743,-2.1933,-0.7218,-1.8178,-88.05,4.95,-26.25,4.25,-0.45,-14.18,-3.7186,1.0679,2.0682,-37.5,17.5,3.0,337.75,82.875,79.0625,0
1776971583.675,4.8459,-4.537,5.6216,-1.7736,1.2337,-0.8367,-28.05,-23.7,60.3,10.9918,0.6584,-1.5203,-1.9529,-0.5673,-1.8127,-88.05,4.95,-26.25,17.96,-4.9,-12.16,-3.1841,0.5541,2.5558,-37.5,17.5,3.0,338.0625,81.4375,80.5,0
1776971583.684,4.8459,-4.537,5.6216,-1.7736,1.2337,-0.8367,-25.2,-24.9,59.55,11.6215,-0.158,-1.5706,-1.9529,-0.5673,-1.8127,-86.55,6.6,-26.25,8.68,5.69,-13.2,-3.4187,-0.4331,2.3802,-37.5,17.5,3.0,338.5625,80.125,84.875,0
1776971583.689,5.2505,-3.3662,4.1803,-2.2343,1.1314,-0.9411,-25.05,-25.5,60.9,11.6215,-0.158,-1.5706,-1.7403,-0.6265,-1.805,-86.55,6.6,-26.25,8.68,5.69,-13.2,-3.4187,-0.4331,2.3802,-37.5,17.5,3.0,338.6875,78.8125,93.5625,0
1776971583.696,6.6248,-2.9616,2.7581,-2.3289,0.5159,-1.2484,-25.05,-25.5,60.9,11.2623,0.2059,-1.2785,-1.615,-0.7109,-1.7882,-86.55,6.6,-26.25,3.58,5.58,-8.26,-3.0729,-2.3049,2.3616,-37.5,17.5,3.0,338.375,77.375,101.1875,0
1776971583.706,6.1124,-3.4261,2.2721,-2.0091,-0.2542,-1.5815,-26.25,-24.9,58.95,10.8122,0.8619,-1.4533,-1.4333,-0.5995,-1.736,-85.5,9.15,-26.7,0.31,6.14,-5.35,-2.318,-2.7227,2.3027,-37.5,17.5,3.0,338.375,77.375,101.1875,0
1776971583.711,6.1124,-3.4261,2.2721,-2.0091,-0.2542,-1.5815,-25.5,-23.7,58.5,10.8122,0.8619,-1.4533,-1.4333,-0.5995,-1.736,-85.5,9.15,-26.7,0.31,6.14,-5.35,-2.318,-2.7227,2.3027,-37.5,17.5,3.0,338.375,77.375,101.1875,0
1776971583.716,6.4428,-3.4237,2.3703,-1.4146,-0.7605,-1.8029,-25.5,-23.7,58.5,10.3046,1.2785,-1.6328,-1.2047,-0.4482,-1.675,-85.05,8.55,-25.05,0.2,3.19,-4.3,-1.7366,-2.4598,2.1108,-35.375,23.375,3.375,337.875,75.9375,106.5625,0
1776971583.721,6.4428,-3.4237,2.3703,-1.4146,-0.7605,-1.8029,-27.3,-25.2,58.5,10.3046,1.2785,-1.6328,-1.2047,-0.4482,-1.675,-85.05,8.55,-25.05,0.2,3.19,-4.3,-1.7366,-2.4598,2.1108,-35.375,23.375,3.375,337.875,75.9375,106.5625,0
1776971583.726,6.1699,-3.4165,2.332,-1.064,-1.1389,-1.9606,-27.3,-25.2,58.5,9.9479,1.9992,-1.5251,-1.0078,-0.2009,-1.5902,-84.6,10.5,-25.5,0.31,2.34,-4.74,-1.4366,-2.4249,1.6635,-35.375,23.375,3.375,337.4375,74.625,111.0625,0
1776971583.731,6.1699,-3.4165,2.332,-1.064,-1.1389,-1.9606,-27.3,-25.2,58.5,9.9479,1.9992,-1.5251,-1.0078,-0.2009,-1.5902,-84.6,10.5,-25.5,0.14,1.74,-4.9,-1.489,-2.3944,0.9599,-35.375,23.375,3.375,337.4375,73.5625,115.4375,0
1776971583.737,5.8131,-4.0127,3.0574,-0.9081,-1.3254,-2.1091,-27.3,-25.2,58.5,10.0892,2.5809,-1.4485,-0.8021,-0.0682,-1.4858,-84.0,11.4,-25.65,0.14,1.74,-4.9,-1.489,-2.3944,0.9599,-35.375,23.375,3.375,338.0,72.875,120.0625,0
1776971583.746,5.5522,-4.4221,3.0095,-0.6915,-1.3648,-2.23,-28.05,-24.45,56.4,10.1466,3.0119,-1.6113,-0.5713,-0.0418,-1.3683,-85.35,13.65,-26.55,0.26,1.32,-5.52,-1.7431,-2.3376,0.2094,-35.375,23.375,3.375,338.0,72.875,120.0625,0
1776971583.756,5.6934,-5.1787,2.5067,-0.5084,-1.3531,-2.3923,-30.3,-23.4,54.6,10.1083,2.8419,-1.7166,-0.3078,-0.0802,-1.2508,-84.0,12.6,-26.1,2.13,0.37,-7.1,-1.9624,-2.2875,-0.4451,-35.375,23.375,3.375,339.125,72.375,125.0,0
1776971583.761,5.6934,-5.1787,2.5067,-0.5084,-1.3531,-2.3923,-30.6,-23.7,55.35,9.7109,2.2194,-1.6568,-0.3078,-0.0802,-1.2508,-84.0,12.6,-26.1,2.13,0.37,-7.1,-1.9624,-2.2875,-0.4451,-35.375,23.375,3.375,340.5625,72.0,130.375,0
1776971583.766,5.9233,-5.679,2.0016,-0.3925,-1.2702,-2.5263,-30.6,-23.7,55.35,9.7109,2.2194,-1.6568,-0.0941,-0.0626,-1.1519,-84.0,12.6,-26.1,3.38,-0.65,-8.14,-2.0988,-2.3409,-0.9163,-31.75,27.25,8.75,340.5625,72.0,130.375,0
1776971583.771,5.9233,-5.679,2.0016,-0.3925,-1.2702,-2.5263,-31.5,-22.05,55.2,9.3374,1.8579,-1.4581,-0.0941,-0.0626,-1.1519,-84.0,12.6,-26.1,3.38,-0.65,-8.14,-2.0988,-2.3409,-0.9163,-31.75,27.25,8.75,342.3125,71.5625,136.0625,0
1776971583.776,6.1076,-5.3439,1.8866,-0.2166,-1.3347,-2.6012,-31.65,-20.4,52.5,9.3374,1.8579,-1.4581,0.0136,-0.0765,-1.0451,-84.15,13.65,-25.8,4.54,-2.1,-9.08,-2.2384,-2.5155,-1.1934,-31.75,27.25,8.75,342.3125,71.5625,136.0625,0
1776971583.784,6.9504,-5.3965,0.6297,-0.0085,-1.586,-2.635,-31.65,-20.4,52.5,8.9998,1.6616,-1.233,0.0211,-0.1071,-0.931,-84.15,13.65,-25.8,5.4,-5.38,-8.47,-2.4871,-2.8002,-1.333,-31.75,27.25,8.75,344.375,70.8125,142.0625,0
1776971583.789,6.9504,-5.3965,0.6297,-0.0085,-1.586,-2.635,-31.65,-20.4,52.5,8.9998,1.6616,-1.233,0.0211,-0.1071,-0.931,-84.15,15.9,-25.8,5.4,-5.38,-8.47,-2.4871,-2.8002,-1.333,-31.75,27.25,8.75,346.6875,69.875,148.1875,0
1776971583.796,7.3478,-5.2002,0.826,0.1601,-2.0227,-2.7304,-32.25,-18.0,51.6,8.7053,1.245,-1.2234,-0.0322,-0.1098,-0.8348,-84.0,16.2,-28.2,4.52,-6.24,-7.4,-2.8122,-3.1296,-1.3777,-31.75,27.25,8.75,349.3125,68.625,153.875,0
1776971583.806,8.0325,-4.8076,0.8092,0.3299,-2.2044,-2.7995,-35.1,-17.55,51.6,8.2432,0.6608,-1.1372,-0.1543,-0.0701,-0.7442,-83.7,15.75,-28.95,3.77,-6.46,-6.42,-3.0652,-3.2845,-1.3188,-31.75,27.25,8.75,349.3125,68.625,153.875,0
1776971583.811,9.3565,-5.3151,1.9249,0.243,-2.5996,-2.7539,-35.1,-17.55,51.6,7.9464,0.5914,-0.9553,-0.3749,0.0309,-0.6755,-83.7,15.75,-28.95,3.77,-6.46,-6.42,-3.0652,-3.2845,-1.3188,-31.75,27.25,8.75,349.3125,68.625,153.875,0
1776971583.816,9.3565,-5.3151,1.9249,0.243,-2.5996,-2.7539,-33.75,-16.8,48.45,7.9464,0.5914,-0.9553,-0.3749,0.0309,-0.6755,-83.7,17.7,-29.7,4.1,-7.13,-6.71,-3.159,-3.2092,-1.1465,-28.1875,28.75,13.75,352.0,67.25,158.875,0
1776971583.821,10.0796,-5.3079,2.7294,-0.0855,-3.0627,-2.6612,-33.75,-16.8,48.45,8.0158,0.7542,-0.8068,-0.6227,-0.0163,-0.6089,-83.7,17.7,-29.7,4.1,-7.13,-6.71,-3.159,-3.2092,-1.1465,-28.1875,28.75,13.75,352.0,67.25,158.875,0
1776971583.826,10.0796,-5.3079,2.7294,-0.0855,-3.0627,-2.6612,-35.4,-16.2,48.6,8.0158,0.7542,-0.8068,-0.6227,-0.0163,-0.6089,-84.15,19.05,-29.85,4.93,-7.37,-7.67,-3.182,-3.0369,-0.9305,-28.1875,28.75,13.75,354.75,65.8125,163.0,0
1776971583.831,10.5105,-4.7692,3.6847,-0.8801,-3.12,-2.4139,-35.4,-16.2,48.6,9.7109,0.7661,-0.2586,-0.6422,-0.5177,-0.5569,-84.15,19.05,-29.85,4.93,-7.37,-7.67,-3.1874,-2.906,-0.7418,-28.1875,28.75,13.75,357.5625,64.375,166.5625,0
1776971583.837,10.5105,-4.7692,3.6847,-0.8801,-3.12,-2.4139,-36.75,-13.65,46.35,9.7109,0.7661,-0.2586,-0.6422,-0.5177,-0.5569,-84.15,19.05,-29.85,5.59,-7.47,-8.29,-3.1874,-2.906,-0.7418,-28.1875,28.75,13.75,0.4375,62.9375,169.5625,0
1776971583.846,10.8457,-4.6615,3.6727,-1.7696,-3.1179,-2.2559,-36.75,-13.65,46.35,9.0118,0.7159,-0.0862,-0.7368,-0.6443,-0.5305,-82.5,20.85,-30.45,6.34,-7.14,-8.69,-3.1678,-2.7969,-0.577,-28.1875,28.75,13.75,0.4375,62.9375,169.5625,0
1776971583.856,9.9288,-4.0677,3.4237,-2.384,-3.1824,-2.1767,-36.75,-12.9,42.9,8.667,1.3479,-0.0742,-0.8199,-0.7448,-0.5121,-82.5,20.85,-30.45,9.93,-6.28,-10.47,-3.099,-2.6834,-0.4309,-28.1875,28.75,13.75,3.25,61.5,172.1875,0
1776971583.861,9.4355,-3.1173,2.6959,-2.5897,-3.08,-2.1221,-36.75,-12.9,42.9,8.1139,1.5778,0.249,-1.0368,-0.7448,-0.5049,-82.5,20.85,-30.45,9.93,-6.28,-10.47,-3.099,-2.6834,-0.4309,-28.1875,28.75,13.75,6.1875,60.0,174.5,0
1776971583.866,9.4355,-3.1173,2.6959,-2.5897,-3.08,-2.1221,-38.85,-13.5,42.3,8.1139,1.5778,0.249,-1.0368,-0.7448,-0.5049,-81.6,19.95,-29.85,11.39,-5.86,-11.01,-3.0456,-2.7194,-0.3371,-24.6875,29.6875,18.375,6.1875,60.0,174.5,0
1776971583.871,9.7013,-1.9034,2.0327,-2.4197,-3.0638,-2.1224,-38.85,-13.5,42.3,7.9655,1.8292,0.3112,-1.2241,-0.7309,-0.449,-81.6,19.95,-29.85,11.39,-5.86,-11.01,-3.0456,-2.7194,-0.3371,-24.6875,29.6875,18.375,9.1875,58.4375,176.6875,0
1776971583.876,9.7013,-1.9034,2.0327,-2.4197,-3.0638,-2.1224,-37.2,-10.65,39.3,7.8219,2.3248,0.2179,-1.2241,-0.7309,-0.449,-81.9,20.25,-29.85,11.82,-5.56,-10.77,-3.0292,-2.8929,-0.3251,-24.6875,29.6875,18.375,9.1875,58.4375,176.6875,0
1776971583.883,9.9766,-0.4788,1.6831,-1.9292,-3.0291,-2.2076,-37.2,-10.65,39.3,7.8219,2.3248,0.2179,-1.3835,-0.5697,-0.3978,-81.9,20.25,-30.3,12.19,-4.33,-10.05,-2.9791,-3.0358,-0.3491,-24.6875,29.6875,18.375,12.3125,56.75,178.75,0
1776971583.888,10.6446,0.158,1.4437,-1.3803,-2.9047,-2.3273,-38.4,-9.0,37.65,7.7045,2.9305,-0.012,-1.4618,-0.4056,-0.3595,-82.5,22.05,-30.45,12.19,-4.33,-10.05,-2.9791,-3.0358,-0.3491,-24.6875,29.6875,18.375,15.4375,55.0,-179.3125,0
1776971583.896,10.6446,0.158,1.4437,-1.3803,-2.9047,-2.3273,-38.25,-7.95,36.75,7.7165,3.5889,-0.1077,-1.4967,-0.3022,-0.316,-81.9,22.95,-31.8,12.62,-3.57,-10.1,-2.8209,-3.135,-0.3578,-24.6875,29.6875,18.375,18.5,53.1875,-177.625,0
1776971583.906,10.9415,0.486,0.9673,-0.7789,-2.8645,-2.3931,-38.25,-7.95,36.75,7.7117,4.4388,0.4094,-1.5998,-0.4439,-0.2697,-83.4,21.0,-31.05,12.85,-3.01,-10.11,-2.5667,-3.2343,-0.3785,-24.6875,29.6875,18.375,18.5,53.1875,-177.625,0
1776971583.911,11.1809,-0.3136,1.2474,-0.2547,-2.8925,-2.3694,-38.25,-7.95,36.75,7.7117,4.4388,0.4094,-1.5998,-0.4439,-0.2697,-83.4,21.0,-31.05,12.85,-3.01,-10.11,-2.5667,-3.2343,-0.3785,-24.6875,29.6875,18.375,18.5,53.1875,-177.625,0
1776971583.916,11.1809,-0.3136,1.2474,-0.2547,-2.8925,-2.3694,-38.4,-8.25,33.0,7.9464,4.2401,1.4629,-1.6598,-0.5737,-0.2358,-83.25,23.55,-31.2,12.69,-2.47,-9.98,-2.2809,-3.3532,-0.4571,-24.75,31.6875,25.6875,21.4375,51.3125,-176.1875,0
1776971583.921,10.8888,-0.4046,1.4485,0.0634,-2.9527,-2.2753,-38.4,-8.25,33.0,7.9464,4.2401,1.4629,-1.6598,-0.5737,-0.2358,-83.25,23.55,-31.2,12.69,-2.47,-9.98,-2.2809,-3.3532,-0.4571,-24.75,31.6875,25.6875,21.4375,51.3125,-176.1875,0
1776971583.926,10.8888,-0.4046,1.4485,0.0634,-2.9527,-2.2753,-38.85,-7.8,33.75,8.8226,4.8507,0.3998,-1.4743,-0.3821,-0.1689,-83.25,23.55,-31.2,11.61,-1.77,-9.25,-2.006,-3.4568,-0.5967,-24.75,31.6875,25.6875,24.4375,49.375,-174.875,0
1776971583.931,10.7595,-0.5866,1.3503,0.2414,-2.9876,-2.1138,-38.85,-7.8,33.75,8.8226,4.8507,0.3998,-1.4743,-0.3821,-0.1689,-83.25,23.55,-31.2,11.61,-1.77,-9.25,-1.7562,-3.4939,-0.8007,-24.75,31.6875,25.6875,27.375,47.4375,-173.625,0
1776971583.937,10.8816,-0.577,0.8715,0.2595,-2.9164,-1.97,-36.75,-4.95,31.5,8.169,4.1204,1.5107,-1.3523,-0.5143,-0.1356,-82.65,25.05,-31.8,11.14,-1.54,-9.11,-1.7562,-3.4939,-0.8007,-24.75,31.6875,25.6875,30.3125,45.5,-172.4375,0
1776971583.946,10.8816,-0.577,0.8715,0.1689,-2.9068,-1.8362,-37.05,-6.0,30.15,8.3055,4.1539,1.506,-1.108,-0.5375,-0.0053,-82.65,25.05,-31.8,10.87,-1.08,-9.17,-1.4813,-3.4198,-1.0341,-24.75,31.6875,25.6875,30.3125,45.5,-172.4375,0
1776971583.956,10.7404,-0.2107,-0.1748,0.2643,-2.8626,-1.7645,-37.05,-6.0,30.15,8.5425,4.6448,0.8811,-0.8505,-0.4407,0.1543,-83.1,26.1,-31.8,9.69,-1.12,-8.26,-1.177,-3.3892,-1.2195,-24.75,31.6875,25.6875,15.3125,43.5,-171.375,0
1776971583.961,10.7404,-0.2107,-0.1748,0.2643,-2.8626,-1.7645,-37.05,-6.0,30.15,8.5425,4.6448,0.8811,-0.8505,-0.4407,0.1543,-83.1,26.1,-31.8,9.69,-1.12,-8.26,-1.177,-3.3892,-1.2195,-24.75,31.6875,25.6875,14.875,41.5625,-170.4375,0
1776971583.966,10.5321,0.1508,-0.3519,0.3773,-2.8408,-1.6752,-37.05,-6.0,30.15,7.9679,4.956,0.407,-0.6819,-0.3552,0.2553,-83.1,26.1,-31.8,9.03,-1.08,-7.99,-0.8934,-3.3139,-1.3734,-24.1875,29.5,35.5,14.875,41.5625,-170.4375,0
1776971583.971,10.5321,0.1508,-0.3519,0.3773,-2.8408,-1.6752,-37.05,-6.0,30.15,7.9679,4.956,0.407,-0.6819,-0.3552,0.2553,-83.4,25.05,-31.05,9.03,-1.08,-7.99,-0.8934,-3.3139,-1.3734,-24.1875,29.5,35.5,14.3125,39.75,-169.6875,0
1776971583.976,10.6374,0.3448,-0.5363,0.4463,-2.8005,-1.5855,-37.95,-1.2,26.1,7.9464,5.3103,-0.1772,-0.3664,-0.2766,0.3022,-83.4,25.05,-31.05,8.64,-0.95,-7.55,-0.5912,-3.0751,-1.4563,-24.1875,29.5,35.5,14.3125,39.75,-169.6875,0
1776971583.982,10.6374,0.3448,-0.5363,0.4463,-2.8005,-1.5855,-37.95,-1.2,26.1,8.2624,4.9919,-0.2322,-0.3664,-0.2766,0.3022,-83.1,25.05,-32.55,8.64,-0.95,-7.55,-0.2902,-2.8034,-1.4606,-24.1875,29.5,35.5,13.6875,38.0625,-169.125,0
1776971583.987,10.4555,0.9912,-0.4477,0.6193,-2.728,-1.558,-36.6,-1.8,23.85,8.2624,4.9919,-0.2322,-0.154,-0.2848,0.3283,-83.85,21.9,-30.6,10.12,-0.33,-8.39,-0.2902,-2.8034,-1.4606,-24.1875,29.5,35.5,13.0,36.5625,-168.75,0
1776971583.996,11.0133,1.7023,-1.312,0.8458,-2.8016,-1.5354,-37.35,-0.75,22.8,8.7556,5.2098,-0.8547,0.0842,-0.166,0.3488,-83.85,21.9,-30.6,10.44,-0.14,-8.5,0.0644,-2.5711,-1.3963,-24.1875,29.5,35.5,12.375,35.0625,-168.75,0
1776971584.006,10.8625,2.5833,-1.8459,1.1141,-2.836,-1.5338,-36.45,-0.45,20.7,8.7676,5.3774,-0.9313,0.2049,-0.1684,0.34,-83.85,21.9,-30.6,10.66,-0.35,-8.6,0.4516,-2.4478,-1.2315,-24.1875,29.5,35.5,12.375,35.0625,-168.75,0
1776971584.011,10.8625,2.5833,-1.8459,1.1141,-2.836,-1.5338,-36.45,-0.45,20.7,8.1283,4.7549,-0.4022,0.2049,-0.1684,0.34,-82.65,24.15,-31.8,10.66,-0.35,-8.6,0.4516,-2.4478,-1.2315,-24.1875,29.5,35.5,11.75,33.6875,-168.9375,0
1776971584.016,9.8713,3.1675,-2.0901,1.3328,-2.5623,-1.4623,-36.45,-0.45,20.7,8.1283,4.7549,-0.4022,0.2662,-0.222,0.3424,-82.65,24.15,-31.8,10.91,-0.71,-8.69,0.7887,-2.3835,-1.0712,-22.6875,25.1875,40.5,11.75,33.6875,-168.9375,0
1776971584.021,9.8713,3.1675,-2.0901,1.3328,-2.5623,-1.4623,-36.45,-0.45,20.7,7.9248,4.7333,-0.0311,0.2169,-0.4234,0.3597,-82.65,24.15,-31.8,10.91,-0.71,-8.69,0.7887,-2.3835,-1.0712,-22.6875,25.1875,40.5,11.1875,32.3125,-169.3125,0
1776971584.026,11.2073,1.8723,-1.3743,1.5902,-2.658,-1.3851,-36.45,-0.45,20.7,7.9248,4.7333,-0.0311,0.2169,-0.4234,0.3597,-82.65,24.15,-31.8,11.18,-1.5,-8.39,1.0123,-2.3257,-0.9577,-22.6875,25.1875,40.5,11.1875,32.3125,-169.3125,0
1776971584.033,11.2073,1.8723,-1.3743,1.3614,-2.3401,-1.2524,-32.85,1.2,19.05,8.272,4.6519,0.1389,0.1268,-0.4114,0.3698,-82.5,22.8,-32.4,10.99,-2.06,-8.04,1.0952,-2.2515,-0.8705,-22.6875,25.1875,40.5,10.625,31.0,-169.75,0
1776971584.038,9.8354,0.7733,-1.901,1.3614,-2.3401,-1.2524,-32.85,1.2,19.05,8.272,4.6519,0.1389,0.1268,-0.4114,0.3698,-82.65,22.2,-31.8,10.99,-2.06,-8.04,1.0952,-2.2515,-0.8705,-22.6875,25.1875,40.5,10.125,29.75,-170.25,0
1776971584.046,9.7396,1.6999,-2.0255,1.4165,-2.3411,-1.1322,-35.4,1.95,18.3,8.3606,5.0326,0.261,0.0949,-0.4868,0.38,-82.65,22.2,-31.8,10.6,-2.58,-7.45,1.0679,-2.1631,-0.8192,-22.6875,25.1875,40.5,9.625,28.5625,-170.625,0
1776971584.056,9.4308,1.1516,-1.6448,1.3891,-2.1741,-1.0349,-35.4,1.2,16.8,7.9535,5.2146,0.3759,0.0671,-0.5297,0.4053,-81.3,22.05,-30.9,9.68,-2.93,-6.32,0.9436,-2.0431,-0.7865,-22.6875,25.1875,40.5,9.625,28.5625,-170.625,0
1776971584.061,9.4308,1.1516,-1.6448,1.3891,-2.1741,-1.0349,-32.85,2.4,16.8,8.2696,5.2553,0.2777,0.1154,-0.5708,0.393,-81.75,22.05,-32.4,9.68,-2.93,-6.32,0.9436,-2.0431,-0.7865,-22.6875,25.1875,40.5,9.625,28.5625,-170.625,0
1776971584.066,9.6941,0.2179,-1.5323,1.1162,-1.9396,-0.8436,-32.85,2.4,16.8,8.2696,5.2553,0.2777,0.1154,-0.5708,0.393,-81.75,22.05,-32.4,9.14,-2.92,-5.64,0.7669,-1.909,-0.7461,-19.75,23.1875,44.75,9.1875,27.4375,-170.9375,0
1776971584.071,9.6941,0.2179,-1.5323,1.1162,-1.9396,-0.8436,-32.85,2.4,16.8,8.5545,5.4755,0.0192,0.2225,-0.7493,0.373,-81.6,20.7,-31.35,9.14,-2.92,-5.64,0.7669,-1.909,-0.7461,-19.75,23.1875,44.75,9.1875,27.4375,-170.9375,0
1776971584.076,8.6814,0.589,-2.7461,0.8495,-1.8911,-0.7472,-32.85,2.4,16.8,8.5545,5.4755,0.0192,0.2225,-0.7493,0.373,-81.6,20.7,-31.35,8.52,-2.8,-4.98,0.5945,-1.729,-0.685,-19.75,23.1875,44.75,8.8125,26.4375,-171.125,0
1776971584.086,8.1475,0.51,-2.2314,0.6115,-1.7046,-0.6475,-32.55,1.5,15.3,8.0373,5.545,-0.3687,0.2252,-0.6883,0.3142,-80.85,22.65,-31.05,8.42,-2.94,-3.96,0.4745,-1.4781,-0.5749,-19.75,23.1875,44.75,8.5,25.5625,-171.3125,0
1776971584.096,7.3334,0.5363,-1.9058,0.138,-1.5593,-0.5279,-31.65,2.7,14.4,7.9703,5.6455,-0.5842,0.1932,-0.6265,0.231,-80.85,22.65,-31.05,8.67,-3.35,-3.73,0.3894,-1.2435,-0.3829,-19.75,23.1875,44.75,8.25,24.8125,-171.4375,0
1776971584.103,7.3933,1.0223,-1.7573,-0.2433,-1.4536,-0.3541,-29.85,1.65,15.45,8.0349,5.7796,-0.8212,0.1463,-0.583,0.1671,-82.2,21.3,-33.0,9.31,-3.96,-3.97,0.3142,-1.0832,-0.1091,-19.75,23.1875,44.75,8.1875,24.25,-171.625,0
1776971584.108,7.3933,1.0223,-1.7573,-0.2433,-1.4536,-0.3541,-29.85,1.65,15.45,7.7189,5.7365,-0.9242,0.0562,-0.5084,0.1092,-82.2,21.3,-33.0,9.31,-3.96,-3.97,0.3142,-1.0832,-0.1091,-19.75,23.1875,44.75,8.1875,24.25,-171.625,0
1776971584.112,7.1395,1.5179,-1.4676,-0.6105,-1.2881,-0.1884,-32.1,1.65,13.35,7.7189,5.7365,-0.9242,0.0562,-0.5084,0.1092,-82.2,21.3,-33.0,9.31,-3.96,-3.97,0.1604,-0.9981,0.1876,-16.75,21.25,45.6875,8.3125,23.6875,-171.8125,0
1776971584.117,7.1395,1.5179,-1.4676,-0.6105,-1.2881,-0.1884,-32.1,1.65,13.35,7.9535,5.715,-0.9026,-0.0211,-0.4274,0.0757,-82.2,21.3,-33.0,9.7,-4.24,-4.1,0.1604,-0.9981,0.1876,-16.75,21.25,45.6875,8.3125,23.6875,-171.8125,0
1776971584.122,7.2065,1.3958,-1.6161,-1.0131,-1.1282,-0.0525,-30.45,3.0,12.45,7.9535,5.715,-0.9026,-0.0211,-0.4274,0.0757,-81.9,20.25,-31.05,9.7,-4.24,-4.1,-0.0873,-1.0014,0.5171,-16.75,21.25,45.6875,8.6875,23.1875,-171.9375,0
1776971584.127,7.2065,1.3958,-1.6161,-1.0131,-1.1282,-0.0525,-30.45,3.0,12.45,7.841,5.5833,-1.0487,-0.1114,-0.3416,0.0584,-81.9,20.25,-31.05,9.21,-4.89,-3.42,-0.0873,-1.0014,0.5171,-16.75,21.25,45.6875,8.6875,23.1875,-171.9375,0
1776971584.136,6.8929,1.9992,-1.8483,-1.2247,-1.0269,0.0333,-30.45,3.0,12.45,7.7309,5.3295,-1.0558,-0.2062,-0.2435,0.0421,-82.35,21.45,-33.3,8.74,-5.0,-2.84,-0.3752,-0.9817,0.8421,-16.75,21.25,45.6875,9.1875,22.75,-171.9375,0
1776971584.146,6.7828,2.4397,-2.2075,-1.3992,-0.8476,0.0962,-30.45,3.0,9.9,7.7692,4.9775,-1.1827,-0.3136,-0.1569,0.0413,-81.9,21.45,-31.35,8.02,-4.93,-2.04,-0.6654,-0.9218,1.1737,-16.75,21.25,45.6875,9.9375,22.3125,-171.875,0
1776971584.156,6.9576,1.8747,-1.6424,-1.5756,-0.652,0.1748,-29.85,4.65,11.85,7.8578,4.7645,-1.2594,-0.4383,-0.1271,0.044,-82.35,21.45,-32.85,7.23,-4.54,-0.82,-0.8901,-0.7756,1.5326,-16.75,21.25,45.6875,10.9375,22.0,-171.75,0
1776971584.161,6.9073,1.9249,-1.64,-1.7768,-0.5137,0.2411,-29.55,5.7,11.1,7.8578,4.7645,-1.2594,-0.4383,-0.1271,0.044,-81.6,20.25,-31.35,7.23,-4.54,-0.82,-0.8901,-0.7756,1.5326,-16.75,21.25,45.6875,10.9375,22.0,-171.75,0
1776971584.165,6.9073,1.9249,-1.64,-1.7768,-0.5137,0.2411,-29.55,5.7,11.1,7.8578,4.4867,-1.3719,-0.591,-0.0632,0.0437,-81.6,20.25,-31.35,7.21,-4.21,-0.61,-1.0516,-0.552,1.91,-12.5,21.6875,47.375,12.125,21.875,-171.625,0
1776971584.17,7.1443,1.415,-1.2857,-1.9958,-0.316,0.2958,-29.4,4.8,12.45,7.8578,4.4867,-1.3719,-0.591,-0.0632,0.0437,-80.85,21.0,-33.3,7.21,-4.21,-0.61,-1.0516,-0.552,1.91,-12.5,21.6875,47.375,12.125,21.875,-171.625,0
1776971584.175,7.1443,1.415,-1.2857,-1.9958,-0.316,0.2958,-29.4,4.8,12.45,7.9775,4.3096,-1.4629,-0.7274,0.0083,0.0589,-80.85,21.0,-33.3,7.36,-3.85,-0.67,-1.2054,-0.3033,2.2722,-12.5,21.6875,47.375,13.5625,21.875,-171.4375,0
1776971584.18,7.5753,1.0343,-1.166,-2.2487,-0.1551,0.3816,-29.4,5.55,9.9,7.9775,4.3096,-1.4629,-0.7274,0.0083,0.0589,-80.85,21.0,-33.3,7.36,-3.85,-0.67,-1.2054,-0.3033,2.2722,-12.5,21.6875,47.375,15.125,22.0625,-171.25,0
1776971584.187,7.5753,1.0343,-1.166,-2.2487,-0.1551,0.3816,-29.4,5.55,9.9,7.853,4.2449,-1.4413,-0.8407,0.0794,0.0794,-80.85,21.0,-33.3,8.0,-2.85,-0.98,-1.3635,-0.0436,2.5896,-12.5,21.6875,47.375,16.875,22.375,-171.0625,0
1776971584.196,7.7093,0.5866,-0.6297,-2.5077,-0.0418,0.4607,-29.4,5.55,9.9,7.8051,4.1683,-1.2282,-0.9337,0.1228,0.1191,-81.15,21.9,-31.8,8.41,-2.3,-1.15,-1.5217,0.1778,2.8547,-12.5,21.6875,47.375,18.75,22.875,-170.8125,0
1776971584.207,8.0302,1.1564,0.0622,-2.7949,0.06,0.5297,-29.55,5.7,10.8,7.8051,3.984,-1.1636,-0.9803,0.17,0.1639,-81.0,22.5,-31.2,8.75,-1.61,-1.4,-1.6592,0.3512,3.0587,-12.5,21.6875,47.375,18.75,22.875,-170.8125,0
1776971584.211,7.6734,1.2617,-0.2107,-3.0459,0.1362,0.6643,-28.65,7.5,11.7,7.8051,3.984,-1.1636,-0.9803,0.17,0.1639,-80.4,21.9,-33.3,8.75,-1.61,-1.4,-1.6592,0.3512,3.0587,-12.5,21.6875,47.375,20.6875,23.4375,-170.5625,0
1776971584.217,7.6734,1.2617,-0.2107,-3.0459,0.1362,0.6643,-28.65,7.5,11.7,7.8386,3.6775,-1.0271,-1.008,0.2316,0.2164,-80.4,21.9,-33.3,8.99,-1.14,-1.53,-1.8075,0.504,3.2147,-10.75,20.5625,47.25,20.6875,23.4375,-170.5625,0
1776971584.221,7.9416,1.1995,0.1197,-3.1323,0.3064,0.737,-28.2,7.8,11.7,7.8386,3.6775,-1.0271,-1.008,0.2316,0.2164,-82.35,22.95,-32.1,8.99,-1.14,-1.53,-1.8075,0.504,3.2147,-10.75,20.5625,47.25,22.75,24.0625,-170.3125,0
1776971584.227,8.1475,1.7526,0.5387,-3.112,0.3885,0.8132,-28.2,7.8,11.7,7.9368,3.6152,-0.917,-0.9987,0.2417,0.2891,-82.35,22.95,-32.1,9.76,0.05,-2.28,-1.9046,0.6261,3.3434,-10.75,20.5625,47.25,22.75,24.0625,-170.3125,0
1776971584.232,8.1475,1.7526,0.5387,-3.112,0.3885,0.8132,-30.75,8.55,12.0,7.5944,3.7038,-0.7901,-0.9987,0.2417,0.2891,-82.5,23.25,-33.75,9.76,0.05,-2.28,-1.9384,0.697,3.4459,-10.75,20.5625,47.25,24.875,24.75,-170.0625,0
1776971584.238,8.2361,1.6712,0.0599,-3.1341,0.506,0.8684,-30.15,9.0,12.45,7.5944,3.7038,-0.7901,-0.9761,0.2731,0.3712,-82.5,23.25,-33.75,9.84,0.55,-2.51,-1.9384,0.697,3.4459,-10.75,20.5625,47.25,27.0,25.5,-169.8125,0
1776971584.247,8.5569,2.1237,0.3304,-3.0395,0.6547,0.9073,-30.15,9.0,12.45,8.078,3.5889,-0.7661,-0.8974,0.234,0.4644,-83.1,21.9,-31.8,9.63,0.98,-2.49,-1.9439,0.7341,3.5147,-10.75,20.5625,47.25,29.1875,26.3125,-169.625,0
1776971584.257,8.2121,2.5594,0.1796,-2.9108,0.6912,0.9571,-30.15,9.0,12.45,7.5992,3.6727,-0.6991,-0.8479,0.2545,0.5822,-83.1,21.9,-31.8,9.2,2.1,-2.22,-1.9297,0.7756,3.4874,-10.75,20.5625,47.25,29.1875,26.3125,-169.625,0
1776971584.262,8.2121,2.5594,0.1796,-2.9108,0.6912,0.9571,-30.75,9.3,13.5,7.5896,3.6057,-0.6704,-0.7072,0.3088,0.7139,-82.95,22.5,-31.65,9.2,2.1,-2.22,-1.9297,0.7756,3.4874,-10.75,20.5625,47.25,31.25,27.0625,-169.4375,0
1776971584.267,8.2648,2.9521,0.2658,-2.6452,0.8274,1.0288,-30.75,9.3,13.5,7.5896,3.6057,-0.6704,-0.7072,0.3088,0.7139,-82.95,22.5,-31.65,9.13,2.71,-2.05,-1.8915,0.8607,3.3456,-8.1875,18.6875,48.0,31.25,27.0625,-169.4375,0
1776971584.272,8.2648,2.9521,0.2658,-2.6452,0.8274,1.0288,-29.4,9.75,12.75,7.5202,3.5817,-0.7661,-0.5502,0.3096,0.8452,-82.95,22.5,-31.65,9.13,2.71,-2.05,-1.8915,0.8607,3.3456,-8.1875,18.6875,48.0,33.1875,27.9375,-169.3125,0
1776971584.277,8.3821,3.3543,0.3352,-2.3118,0.9625,1.1045,-31.35,9.15,12.6,7.5202,3.5817,-0.7661,-0.5502,0.3096,0.8452,-82.95,22.5,-31.65,9.19,3.31,-2.07,-1.801,0.9948,3.1056,-8.1875,18.6875,48.0,33.1875,27.9375,-169.3125,0
1776971584.285,8.2217,3.2274,0.1149,-1.8626,1.1306,1.1791,-31.35,9.15,12.6,7.5609,3.6727,-0.2538,-0.5263,0.3158,1.0147,-83.85,22.65,-33.3,9.85,4.25,-2.36,-1.6068,1.1432,2.7871,-8.1875,18.6875,48.0,34.875,28.875,-169.1875,0
1776971584.29,8.2217,3.2274,0.1149,-1.8626,1.1306,1.1791,-31.05,10.65,13.65,7.5729,4.1084,-0.2442,-0.5263,0.3158,1.0147,-84.6,20.25,-33.3,9.85,4.25,-2.36,-1.6068,1.1432,2.7871,-8.1875,18.6875,48.0,36.3125,29.8125,-169.125,0
1776971584.297,7.8961,2.8587,-0.2442,-1.368,1.3526,1.2585,-30.6,9.15,13.65,7.5729,4.1084,-0.2442,-0.481,0.3136,1.1914,-84.6,20.25,-32.1,10.8,4.8,-2.76,-1.2708,1.273,2.3976,-8.1875,18.6875,48.0,37.4375,30.75,-169.1875,0
1776971584.307,7.6279,2.6049,-0.5124,-0.8087,1.6161,1.3363,-30.6,9.15,13.65,8.0278,4.6376,-0.4142,-0.3818,0.1599,1.3225,-85.5,20.4,-32.7,11.78,5.04,-3.02,-0.8159,1.3668,1.945,-8.1875,18.6875,48.0,37.4375,30.75,-169.1875,0
1776971584.312,7.6279,2.6049,-0.5124,-0.8087,1.6161,1.3363,-30.6,9.15,13.65,7.015,4.3574,-0.5483,-0.4434,0.3749,1.4104,-83.4,21.0,-31.05,11.78,5.04,-3.02,-0.8159,1.3668,1.945,-8.1875,18.6875,48.0,37.4375,30.75,-169.1875,0
1776971584.317,11.2264,7.0198,-0.0479,-0.4301,1.7536,1.2646,-31.2,9.75,15.9,7.015,4.3574,-0.5483,-0.4434,0.3749,1.4104,-83.4,21.0,-31.05,12.81,4.79,-3.68,-0.2978,1.3581,1.4181,-7.5625,17.1875,47.6875,38.25,31.625,-169.4375,0
1776971584.322,11.2264,7.0198,-0.0479,-0.4301,1.7536,1.2646,-31.2,9.75,15.9,8.8992,4.197,-0.4094,-0.4394,0.5838,1.6025,-84.15,20.7,-31.05,12.81,4.79,-3.68,-0.2978,1.3581,1.4181,-7.5625,17.1875,47.6875,38.25,31.625,-169.4375,0
1776971584.327,15.3205,12.1793,-9.9264,-2.0949,1.4989,0.9086,-31.95,8.55,15.3,8.8992,4.197,-0.4094,-0.4394,0.5838,1.6025,-84.15,20.7,-31.05,1.06,18.07,-33.62,0.2814,1.0188,1.0221,-7.5625,17.1875,47.6875,38.6875,32.3125,-169.875,0
1776971584.332,15.3205,12.1793,-9.9264,-2.0949,1.4989,0.9086,-31.95,8.55,15.3,13.4339,4.3096,0.1508,-0.567,1.008,1.9907,-85.5,19.65,-31.2,1.06,18.07,-33.62,1.7071,-0.7898,0.9272,-7.5625,17.1875,47.6875,39.0,31.9375,-171.1875,0
1776971584.338,21.6699,14.7698,-15.2199,-3.1594,-0.2971,-0.2262,-32.85,9.9,16.5,15.1912,3.2226,3.7852,-0.567,1.008,1.9907,-85.5,19.65,-31.2,-17.69,15.04,-31.71,1.7071,-0.7898,0.9272,-7.5625,17.1875,47.6875,39.5,31.5,-172.0625,0
1776971584.347,11.406,7.9033,-10.0149,-0.473,-1.1898,-1.1183,-33.3,11.25,14.55,16.2016,0.8547,5.5067,-1.1815,0.862,2.2473,-85.5,19.65,-31.2,15.84,23.22,-37.59,0.8759,-0.9807,1.0647,-7.5625,17.1875,47.6875,39.4375,32.5,-171.8125,0
1776971584.357,11.5855,1.1636,7.252,5.3394,0.2952,-1.2508,-33.3,11.25,14.55,15.2152,0.4788,-1.5586,-1.0776,0.1524,2.2228,-86.1,18.3,-31.05,5.07,2.88,5.7,-0.3512,1.8533,-0.0218,-7.5625,17.1875,47.6875,39.4375,32.5,-171.8125,0
1776971584.362,11.5855,1.1636,7.252,4.3276,1.2545,-0.4927,-33.3,11.25,14.55,15.2152,0.4788,-1.5586,0.2537,-0.7608,2.3641,-86.25,16.95,-28.95,5.07,2.88,5.7,-0.3512,1.8533,-0.0218,-7.5625,17.1875,47.6875,39.5,34.6875,-172.25,0
1776971584.367,12.0093,5.1523,-5.7652,4.3276,1.2545,-0.4927,-33.3,11.25,14.55,12.6462,4.7764,-5.1404,0.6472,-0.016,2.2306,-86.25,16.95,-28.95,14.19,-5.84,-9.16,0.7854,3.8724,0.5454,-8.25,18.5625,48.25,39.5,34.6875,-172.25,0
1776971584.372,10.975,-1.4365,-2.6073,4.4984,0.8847,-0.2292,-33.3,11.25,14.55,12.6462,4.7764,-5.1404,0.6472,-0.016,2.2306,-87.6,14.85,-29.55,14.19,-5.84,-9.16,0.7854,3.8724,0.5454,-8.25,18.5625,48.25,39.5,36.1875,-173.125,0
1776971584.377,10.975,-1.4365,-2.6073,4.4984,0.8847,-0.2292,-32.1,8.4,18.3,11.5257,6.0932,-0.2921,-0.3142,0.7176,1.7008,-87.6,14.85,-29.55,17.5,-14.37,-16.96,1.4126,2.6409,0.6109,-8.25,18.5625,48.25,39.5,36.1875,-173.125,0
1776971584.385,14.1713,-2.8347,-1.0942,3.3537,0.5782,-0.1335,-34.05,6.75,17.1,9.7109,3.7278,1.6352,-0.3142,0.7176,1.7008,-87.3,13.65,-28.5,12.82,-15.5,-10.49,0.432,1.2752,0.2749,-8.25,18.5625,48.25,39.5,36.875,-173.375,0
1776971584.39,14.1713,-2.8347,-1.0942,3.3537,0.5782,-0.1335,-34.05,6.75,17.1,9.7109,3.7278,1.6352,0.2782,1.0722,1.3907,-87.3,13.65,-28.5,12.82,-15.5,-10.49,0.432,1.2752,0.2749,-8.25,18.5625,48.25,39.5625,37.0,-173.125,0
1776971584.397,9.833,0.5171,-4.3622,1.0821,0.1719,0.0056,-33.0,6.3,17.1,12.2368,1.5443,-0.158,0.9987,0.6571,1.181,-87.0,12.6,-28.65,5.66,5.64,-7.2,-0.4669,0.1516,-0.0295,-8.25,18.5625,48.25,39.625,37.0,-172.6875,0
1776971584.407,7.4101,3.8906,-0.8164,-0.5497,0.4072,0.2198,-33.15,6.15,16.8,8.9256,-1.3024,1.0463,0.7085,0.4061,1.0267,-87.3,11.25,-27.75,5.98,1.95,-8.48,-0.66,0.0164,-0.1265,-8.25,18.5625,48.25,39.625,37.0,-172.6875,0
1776971584.412,2.8778,6.6942,-3.158,-1.0147,1.1437,0.4834,-33.15,6.15,16.8,8.9256,-1.3024,1.0463,0.7085,0.4061,1.0267,-87.3,11.25,-27.75,5.98,1.95,-8.48,-0.66,0.0164,-0.1265,-8.25,18.5625,48.25,39.625,37.0,-172.6875,0
1776971584.417,2.8778,6.6942,-3.158,-1.0147,1.1437,0.4834,-33.15,6.15,16.8,7.8314,-2.4134,1.1133,0.388,0.4149,0.9337,-87.3,11.25,-27.75,7.14,-0.1,-8.09,-0.589,0.6632,-0.072,-10.5625,21.875,47.5,39.6875,37.3125,-172.3125,0
1776971584.422,6.2106,6.0501,-5.3415,-1.2177,1.7571,0.6323,-33.15,6.15,16.8,7.8314,-2.4134,1.1133,0.388,0.4149,0.9337,-87.6,10.5,-26.25,7.14,-0.1,-8.09,-0.589,0.6632,-0.072,-10.5625,21.875,47.5,39.6875,37.3125,-172.3125,0
1776971584.427,6.2106,6.0501,-5.3415,-1.2177,1.7571,0.6323,-33.15,6.15,16.8,9.6103,-2.4732,-0.6393,0.4125,0.4189,0.8079,-87.6,10.5,-26.25,5.42,2.43,-6.61,-0.6818,0.4581,-0.0327,-10.5625,21.875,47.5,39.8125,37.5625,-171.875,0
1776971584.432,7.5417,6.0597,-5.2984,-0.1756,1.266,0.4056,-33.15,6.15,16.8,9.6103,-2.4732,-0.6393,0.4125,0.4189,0.8079,-87.6,10.5,-26.25,5.42,2.43,-6.61,-0.6512,-0.1974,0.06,-10.5625,21.875,47.5,39.9375,37.5,-171.5625,0
1776971584.438,7.5417,6.0597,-5.2984,-0.1756,1.266,0.4056,-33.0,6.0,18.45,8.4779,-1.3192,-2.7007,-0.037,0.4149,0.648,-87.6,10.5,-26.25,5.43,1.96,-7.35,-0.6512,-0.1974,0.06,-10.5625,21.875,47.5,40.125,37.3125,-171.5625,0
1776971584.447,8.8107,4.1108,-3.96,0.06,1.1466,0.311,-34.2,7.65,19.65,8.7604,0.2945,-3.3184,-0.9246,0.4802,0.5041,-88.8,8.1,-24.75,4.78,1.19,-7.74,-0.2203,-0.3709,0.2302,-10.5625,21.875,47.5,40.125,37.3125,-171.5625,0
1776971584.457,8.8801,2.7557,-2.6193,0.1476,0.8244,0.2356,-33.6,7.2,19.35,9.2488,0.7542,-2.0782,-1.8906,0.5742,0.4586,-88.35,8.1,-25.8,5.48,0.72,-7.93,0.2323,0.0905,0.3283,-10.5625,21.875,47.5,40.25,37.375,-171.8125,0
1776971584.462,8.102,2.4397,-0.6177,0.1575,0.7613,0.1172,-33.6,7.2,19.35,9.675,0.3974,0.3328,-1.8906,0.5742,0.4586,-88.95,9.45,-26.4,5.48,0.72,-7.93,0.2323,0.0905,0.3283,-10.5625,21.875,47.5,40.375,37.625,-172.1875,0
1776971584.467,8.102,2.4397,-0.6177,0.1575,0.7613,0.1172,-34.2,4.95,18.3,9.675,0.3974,0.3328,-2.4853,0.652,0.4445,-88.95,9.45,-26.4,7.69,0.18,-8.7,0.444,0.4538,0.324,-12.0625,20.375,47.75,40.375,37.625,-172.1875,0
1776971584.472,9.663,1.9201,0.4142,0.1591,0.9084,0.1428,-34.2,4.95,18.3,9.1746,-0.158,2.6528,-2.4853,0.652,0.4445,-88.95,9.45,-24.6,7.69,0.18,-8.7,0.444,0.4538,0.324,-12.0625,20.375,47.75,40.4375,37.8125,-172.5,0
1776971584.477,9.663,1.9201,0.4142,0.1591,0.9084,0.1428,-34.2,4.95,18.3,9.1746,-0.158,2.6528,-2.5836,0.4975,0.4469,-88.95,9.45,-24.6,7.57,-0.31,-7.85,0.3949,0.3043,0.3152,-12.0625,20.375,47.75,40.4375,37.8125,-172.5,0
1776971584.485,10.5058,1.3479,1.3934,-0.0682,1.2505,0.1948,-36.3,6.3,21.6,9.3254,-0.5507,3.711,-2.3659,0.32,0.4596,-88.35,9.0,-25.05,5.93,0.25,-8.08,0.1494,-0.0055,0.3152,-12.0625,20.375,47.75,40.5625,37.875,-172.75,0
1776971584.49,10.501,0.9864,1.2498,-0.3784,1.2265,0.2411,-36.3,6.3,21.6,9.3254,-0.5507,3.711,-2.3659,0.32,0.4596,-88.35,9.0,-25.05,5.93,0.25,-8.08,0.1494,-0.0055,0.3152,-12.0625,20.375,47.75,40.6875,38.0,-172.9375,0
1776971584.498,9.8569,1.889,0.6105,-0.3613,1.1535,0.243,-33.75,7.05,21.3,8.7556,-0.8787,3.7733,-2.1141,0.2278,0.5004,-88.05,10.95,-25.05,6.91,0.38,-7.84,0.2171,0.2094,0.2149,-12.0625,20.375,47.75,40.6875,38.25,-173.125,0
1776971584.507,9.4954,2.9975,0.407,-0.1524,1.0381,0.1937,-34.65,5.7,22.2,8.5904,-1.1349,3.0909,-1.9111,0.1506,0.5905,-88.05,10.95,-25.05,6.8,0.53,-7.9,0.2531,0.3971,0.1473,-12.0625,20.375,47.75,40.6875,38.25,-173.125,0
1776971584.512,9.4954,2.9975,0.407,-0.1524,1.0381,0.1937,-34.65,5.7,22.2,8.9136,-1.3431,2.6576,-1.7483,0.1223,0.6891,-88.95,10.35,-23.1,6.8,0.53,-7.9,0.2531,0.3971,0.1473,-12.0625,20.375,47.75,40.6875,38.25,-173.125,0
1776971584.517,9.7324,3.1699,0.1437,0.0093,0.8021,0.1607,-35.55,5.55,22.05,8.9136,-1.3431,2.6576,-1.7483,0.1223,0.6891,-88.95,10.35,-23.1,6.73,0.81,-7.63,0.288,0.3611,0.1004,-11.5,21.5,47.0,40.6875,38.4375,-173.3125,0
1776971584.522,9.7324,3.1699,0.1437,0.0093,0.8021,0.1607,-35.4,6.45,22.95,9.0094,-1.4916,2.3679,-1.4506,0.247,0.7213,-88.95,10.35,-23.1,6.73,0.81,-7.63,0.288,0.3611,0.1004,-11.5,21.5,47.0,40.6875,38.4375,-173.3125,0
1776971584.527,9.2608,3.3255,-0.3567,0.0813,0.6059,0.1207,-35.4,6.45,22.95,9.0094,-1.4916,2.3679,-1.4506,0.247,0.7213,-88.95,10.35,-23.1,6.58,0.78,-7.58,0.2858,0.3262,0.0622,-11.5,21.5,47.0,40.625,38.625,-173.5,0
1776971584.532,9.2608,3.3255,-0.3567,0.0813,0.6059,0.1207,-35.4,6.45,22.95,9.5361,-1.6257,2.8108,-1.3387,0.2678,0.7312,-90.3,9.0,-24.0,6.58,0.78,-7.58,0.2465,0.2945,0.0316,-11.5,21.5,47.0,40.625,38.75,-173.625,0
1776971584.538,9.1506,3.3662,-0.7326,0.0807,0.5385,0.1228,-35.4,6.45,22.95,9.5361,-1.6257,2.8108,-1.3387,0.2678,0.7312,-90.3,9.0,-24.0,6.63,0.64,-7.59,0.2465,0.2945,0.0316,-11.5,21.5,47.0,40.5625,38.875,-173.6875,0
1776971584.547,9.2177,3.5841,-0.4812,0.0133,0.5321,0.1529,-35.85,6.75,22.8,9.7779,-1.5874,3.1364,-0.9505,0.4029,0.6648,-89.7,9.9,-23.85,6.38,0.68,-7.58,0.18,0.2051,0.0,-11.5,21.5,47.0,40.5625,38.9375,-173.75,0
1776971584.557,9.347,3.6583,-0.2729,-0.2356,0.5478,0.2238,-35.7,6.45,22.95,9.2919,0.1796,4.4796,-0.7647,0.3246,0.6374,-89.85,7.8,-23.7,6.16,0.71,-7.69,0.108,0.1134,-0.0098,-11.5,21.5,47.0,40.5625,38.9375,-173.75,0
1776971584.562,9.347,3.6583,-0.2729,-0.2356,0.5478,0.2238,-36.45,5.7,22.95,9.3063,0.4094,3.9552,-0.384,0.4018,0.5183,-89.7,7.8,-23.7,6.16,0.71,-7.69,0.108,0.1134,-0.0098,-11.5,21.5,47.0,40.5,39.0,-173.8125,0
1776971584.567,8.7891,3.9409,-0.0503,-0.4175,0.5271,0.2401,-36.45,5.7,22.95,9.3063,0.4094,3.9552,-0.384,0.4018,0.5183,-89.7,8.7,-22.65,6.27,0.79,-7.59,0.084,0.108,0.0,-11.75,21.75,46.5625,40.5,39.0,-173.8125,0
1776971584.572,8.7891,3.9409,-0.0503,-0.4175,0.5271,0.2401,-36.3,5.25,23.85,8.9256,1.4676,3.7158,-0.0242,0.5955,0.453,-89.7,8.4,-22.65,6.27,0.79,-7.59,0.084,0.108,0.0,-11.75,21.75,46.5625,40.5,39.0625,-173.8125,0
1776971584.577,8.928,3.3974,0.0072,-0.7218,0.5319,0.2358,-36.3,5.25,23.85,9.5577,1.3384,3.1939,-0.0242,0.5955,0.453,-89.7,8.4,-22.65,6.31,0.88,-7.53,0.0818,0.1211,0.0087,-11.75,21.75,46.5625,40.5,39.0625,-173.8125,0
1776971584.585,9.3901,3.1244,-0.2466,-0.9726,0.5119,0.2801,-37.35,6.3,23.4,9.5577,1.3384,3.1939,-0.0469,0.5622,0.3896,-88.95,9.15,-23.4,6.32,0.88,-7.57,0.072,0.1145,0.0196,-11.75,21.75,46.5625,40.5,39.125,-173.875,0
1776971584.59,9.3901,3.1244,-0.2466,-0.9726,0.5119,0.2801,-37.35,6.3,23.4,9.4619,0.9218,2.1284,-0.0272,0.6049,0.3091,-88.95,9.15,-23.4,6.32,0.88,-7.57,0.072,0.1145,0.0196,-11.75,21.75,46.5625,40.5,39.1875,-173.9375,0
1776971584.598,9.4643,2.8539,-0.6895,-1.149,0.5079,0.3248,-37.35,6.3,23.4,9.6965,0.2538,1.5251,-0.13,0.5668,0.251,-88.95,9.15,-23.4,6.42,0.69,-7.55,0.0654,0.1287,0.0229,-11.75,21.75,46.5625,40.5,39.1875,-173.9375,0
1776971584.604,9.584,2.5379,-1.1516,-1.1911,0.5239,0.3685,-36.0,5.7,25.05,9.6965,0.2538,1.5251,-0.13,0.5668,0.251,-91.8,7.35,-20.7,6.33,0.73,-7.6,0.0611,0.0949,0.0196,-11.75,21.75,46.5625,40.5,39.25,-173.9375,0
1776971584.609,9.584,2.5379,-1.1516,-1.1911,0.5239,0.3685,-36.0,5.7,25.05,9.7779,-0.7111,1.3216,-0.3411,0.4578,0.2086,-91.8,7.35,-20.7,6.33,0.73,-7.6,0.0611,0.0949,0.0196,-11.75,21.75,46.5625,40.5,39.25,-173.9375,0
1776971584.614,9.517,2.6025,-1.0511,-1.1093,0.4951,0.3906,-36.0,3.9,24.0,9.7779,-0.7111,1.3216,-0.3411,0.4578,0.2086,-90.45,8.4,-21.9,6.3,0.71,-7.56,0.0611,0.0753,0.0098,-11.75,22.75,46.1875,40.5,39.3125,-174.0,0
1776971584.619,9.517,2.6025,-1.0511,-1.1093,0.4951,0.3906,-36.0,3.9,24.0,9.8474,-1.0774,1.2186,-0.6352,0.3645,0.194,-90.45,8.4,-21.9,6.3,0.71,-7.56,0.0611,0.0753,0.0098,-11.75,22.75,46.1875,40.5,39.3125,-174.0,0
1776971584.624,9.3565,2.8036,-1.0032,-1.0389,0.4551,0.3794,-36.0,4.95,26.1,9.8474,-1.0774,1.2186,-0.6352,0.3645,0.194,-90.45,5.55,-20.1,6.18,0.63,-7.61,0.0513,0.0502,0.0098,-11.75,22.75,46.1875,40.4375,39.375,-174.0,0
1776971584.629,9.3565,2.8036,-1.0032,-1.0389,0.4551,0.3794,-36.0,4.95,26.1,9.7971,-1.008,1.1851,-0.9454,0.3328,0.1857,-90.45,5.55,-20.1,6.18,0.63,-7.61,0.0513,0.0502,0.0098,-11.75,22.75,46.1875,40.4375,39.375,-174.0,0
1776971584.634,9.2775,2.9281,-0.6105,-0.907,0.4647,0.3592,-36.45,6.9,26.4,9.7971,-1.008,1.1851,-0.9454,0.3328,0.1857,-89.85,8.1,-21.0,6.15,0.56,-7.61,0.0709,0.0709,-0.0011,-11.75,22.75,46.1875,40.4375,39.375,-174.0625,0
1776971584.638,9.2775,2.9281,-0.6105,-0.907,0.4647,0.3592,-36.45,6.9,26.4,9.7133,-1.0726,1.2546,-1.2526,0.263,0.1828,-89.85,8.1,-21.0,6.15,0.56,-7.61,0.0709,0.0709,-0.0011,-11.75,22.75,46.1875,40.375,39.4375,-174.125,0
1776971584.648,9.1051,3.2298,-0.1341,-0.7328,0.5007,0.3437,-35.55,5.25,25.2,9.572,-1.0391,1.4509,-1.5391,0.1793,0.1775,-90.45,6.0,-21.6,6.3,0.59,-7.62,0.1287,0.1342,-0.0196,-11.75,22.75,46.1875,40.375,39.4375,-174.125,0
1776971584.654,9.1818,3.0454,-0.1149,-0.6038,0.5145,0.3232,-35.55,5.25,25.2,9.572,-1.0391,1.4509,-1.5391,0.1793,0.1775,-91.8,7.8,-20.25,6.24,0.77,-7.44,0.1516,0.1702,-0.0251,-11.75,22.75,46.1875,40.375,39.5625,-174.1875,0
1776971584.659,9.1818,3.0454,-0.1149,-0.6038,0.5145,0.3232,-35.55,5.25,25.2,9.5193,-1.0415,1.7813,-1.7698,0.15,0.1769,-91.8,7.8,-20.25,6.24,0.77,-7.44,0.1516,0.1702,-0.0251,-11.75,22.75,46.1875,40.375,39.5625,-174.1875,0
1776971584.664,9.1482,2.8204,0.2897,-0.5556,0.5207,0.3096,-37.65,4.8,26.25,9.3996,-1.0511,2.3104,-1.7698,0.15,0.1769,-91.8,7.8,-20.25,6.24,0.77,-7.44,0.1516,0.1702,-0.0251,-11.875,21.75,45.6875,40.3125,39.625,-174.25,0
1776971584.668,9.1482,2.8204,0.2897,-0.5556,0.5207,0.3096,-37.65,4.8,26.25,9.3996,-1.0511,2.3104,-1.8895,0.1092,0.1719,-91.8,7.8,-20.25,6.09,0.73,-7.46,0.1429,0.1484,-0.0349,-11.875,21.75,45.6875,40.3125,39.625,-174.25,0
1776971584.673,9.2296,2.6217,0.565,-0.5761,0.5015,0.3096,-37.2,4.65,24.3,9.2632,-0.9409,2.7916,-1.8895,0.1092,0.1719,-91.2,7.5,-20.25,6.09,0.73,-7.46,0.1429,0.1484,-0.0349,-11.875,21.75,45.6875,40.25,39.6875,-174.3125,0
1776971584.678,9.2296,2.6217,0.565,-0.5761,0.5015,0.3096,-37.2,4.65,24.3,9.2632,-0.9409,2.7916,-1.8945,0.0759,0.1671,-91.2,7.5,-19.35,6.08,0.69,-7.48,0.1505,0.1658,-0.0404,-11.875,21.75,45.6875,40.25,39.6875,-174.3125,0
1776971584.683,9.3134,2.4014,0.3687,-0.7274,0.4935,0.3123,-36.75,6.15,27.6,9.2153,-0.8811,3.1747,-1.8945,0.0759,0.1671,-91.2,7.5,-19.35,6.08,0.69,-7.48,0.18,0.2323,-0.0502,-11.875,21.75,45.6875,40.1875,39.8125,-174.375,0
1776971584.688,9.3134,2.4014,0.3687,-0.7274,0.4935,0.3123,-36.75,6.15,27.6,9.2153,-0.8811,3.1747,-1.8079,0.0799,0.1564,-91.2,7.5,-19.35,6.08,0.6,-7.38,0.18,0.2323,-0.0502,-11.875,21.75,45.6875,40.1875,39.8125,-174.375,0
1776971584.697,9.3661,2.5259,0.7135,-0.8724,0.4799,0.3163,-37.05,6.0,26.7,9.1937,-0.4812,3.3447,-1.6729,0.0877,0.1575,-92.25,7.8,-19.5,6.08,0.78,-7.41,0.2509,0.3305,-0.0687,-11.875,21.75,45.6875,40.0625,40.0,-174.5,0
1776971584.702,9.3948,2.6695,0.5267,-0.9771,0.4229,0.3166,-38.4,5.55,28.05,9.2201,-0.012,3.4596,-1.6729,0.0877,0.1575,-92.25,7.8,-19.5,6.08,0.78,-7.41,0.2585,0.4309,-0.0458,-11.875,21.75,45.6875,40.0,40.25,-174.5625,0
1776971584.708,9.3948,2.6695,0.5267,-0.9771,0.4229,0.3166,-38.4,5.55,28.05,9.2201,-0.012,3.4596,-1.5071,0.105,0.1652,-89.7,7.2,-19.05,6.61,0.77,-7.25,0.2585,0.4309,-0.0458,-11.875,21.75,45.6875,40.0,40.25,-174.5625,0
1776971584.713,9.6055,2.8108,0.6871,-1.0301,0.3352,0.3136,-38.4,5.55,28.05,9.165,0.1604,3.3639,-1.3067,0.1442,0.1759,-90.45,7.2,-19.05,6.61,0.77,-7.25,0.2585,0.4309,-0.0458,-11.875,22.75,45.6875,39.875,40.5625,-174.6875,0
1776971584.718,9.6055,2.8108,0.6871,-1.0301,0.3352,0.3136,-38.4,5.55,28.05,9.165,0.1604,3.3639,-1.3067,0.1442,0.1759,-90.45,7.95,-17.55,6.42,0.78,-7.18,0.3054,0.5334,-0.0731,-11.875,22.75,45.6875,39.875,40.5625,-174.6875,0
1776971584.723,9.5529,2.8826,0.486,-1.0477,0.2518,0.3024,-36.75,4.95,26.85,9.2488,0.2107,3.1484,-1.1021,0.1519,0.1791,-90.45,7.95,-17.55,6.42,0.78,-7.18,0.3054,0.5334,-0.0731,-11.875,22.75,45.6875,39.6875,40.875,-174.8125,0
1776971584.728,9.5529,2.8826,0.486,-1.0477,0.2518,0.3024,-36.75,4.95,26.85,9.2488,0.2107,3.1484,-1.1021,0.1519,0.1791,-91.8,8.1,-18.0,6.36,0.75,-7.35,0.3491,0.589,-0.1429,-11.875,22.75,45.6875,39.6875,40.875,-174.8125,0
1776971584.733,8.9543,2.3679,0.0982,-0.98,0.2193,0.328,-36.75,4.65,28.65,9.1985,0.3639,2.8802,-0.9294,0.1375,0.1812,-91.8,8.1,-18.0,6.36,0.75,-7.35,0.2716,0.6152,-0.0982,-11.875,22.75,45.6875,39.5625,41.1875,-174.875,0
1776971584.739,8.9543,2.3679,0.0982,-0.98,0.2193,0.328,-37.35,6.3,28.5,9.1985,0.3639,2.8802,-0.9294,0.1375,0.1812,-92.4,7.5,-18.3,6.46,0.65,-7.24,0.2716,0.6152,-0.0982,-11.875,22.75,45.6875,39.5,41.5,-174.9375,0
1776971584.748,9.4164,2.3703,0.1772,-0.8924,0.2806,0.3296,-37.35,6.3,28.5,9.3015,0.5363,2.3703,-0.8084,0.1199,0.1817,-91.2,6.0,-19.05,6.7,0.58,-7.22,0.2083,0.612,-0.0556,-11.875,22.75,45.6875,39.5,41.5,-174.9375,0
1776971584.758,9.4595,2.5019,0.0718,-0.8263,0.3336,0.3022,-37.35,6.0,28.5,9.4739,0.419,2.0758,-0.7314,0.1218,0.1974,-91.2,6.0,-19.05,6.88,0.59,-7.16,0.1963,0.5651,-0.0502,-11.875,22.75,45.6875,39.4375,41.8125,-175.0,0
1776971584.763,9.5553,2.6719,0.0144,-0.7112,0.3661,0.2968,-37.35,6.0,28.5,9.6175,0.3328,1.8962,-0.7056,0.0949,0.2153,-91.2,6.0,-19.05,6.88,0.59,-7.16,0.1963,0.5651,-0.0502,-11.875,22.75,45.6875,39.4375,41.8125,-175.0,0
1776971584.768,9.5553,2.6719,0.0144,-0.7112,0.3661,0.2968,-37.35,6.0,28.5,9.6175,0.3328,1.8962,-0.7056,0.0949,0.2153,-89.55,5.85,-19.95,6.64,0.55,-7.17,0.2062,0.5127,-0.0524,-14.0625,23.1875,45.6875,39.3125,42.125,-175.0625,0
1776971584.773,9.5098,2.4828,-0.103,-0.6198,0.372,0.3118,-37.35,6.0,28.5,9.6343,0.1628,1.731,-0.7378,0.0544,0.2286,-89.55,5.85,-19.95,6.64,0.55,-7.17,0.2062,0.5127,-0.0524,-14.0625,23.1875,45.6875,39.3125,42.125,-175.0625,0
1776971584.778,9.5098,2.4828,-0.103,-0.5396,0.3877,0.3152,-37.35,6.0,28.5,9.6343,0.1628,1.731,-0.7378,0.0544,0.2286,-89.55,5.85,-19.95,6.65,0.53,-7.18,0.1844,0.4592,-0.0436,-14.0625,23.1875,45.6875,39.25,42.375,-175.125,0
1776971584.786,9.4164,2.3343,0.0335,-0.5396,0.3877,0.3152,-37.05,6.0,27.75,9.5481,0.2203,1.6712,-0.8178,0.0466,0.2254,-91.5,6.15,-18.45,6.66,0.64,-7.17,0.1374,0.4003,-0.0131,-14.0625,23.1875,45.6875,39.1875,42.625,-175.1875,0
1776971584.791,9.3134,2.2841,0.0503,-0.4823,0.4053,0.3224,-37.2,5.4,28.65,9.517,0.1389,1.7549,-0.8916,0.0413,0.2198,-91.5,6.15,-18.45,6.66,0.64,-7.17,0.1374,0.4003,-0.0131,-14.0625,23.1875,45.6875,39.1875,42.8125,-175.1875,0
1776971584.798,9.2919,2.466,0.2777,-0.457,0.4202,0.3216,-37.05,6.0,29.1,9.4308,0.2346,1.8818,-0.8916,0.0413,0.2198,-90.15,7.5,-16.8,6.86,0.54,-7.07,0.1047,0.3654,0.0033,-14.0625,23.1875,45.6875,39.1875,42.8125,-175.1875,0
1776971584.806,9.2919,2.466,0.2777,-0.457,0.4202,0.3216,-37.05,6.0,29.1,9.4308,0.2346,1.8818,-0.9753,0.0434,0.2182,-90.9,5.55,-16.35,6.8,0.58,-7.12,0.0818,0.3567,0.0098,-14.0625,23.1875,45.6875,39.1875,43.0,-175.25,0
1776971584.811,9.335,2.5402,0.3687,-0.4706,0.4173,0.3368,-36.6,6.0,27.0,9.4092,0.4238,2.0853,-1.0112,0.0528,0.2057,-90.9,5.55,-16.35,6.8,0.58,-7.12,0.0818,0.3567,0.0098,-14.0625,23.1875,45.6875,39.1875,43.0,-175.25,0
1776971584.816,9.335,2.5402,0.3687,-0.4706,0.4173,0.3368,-36.6,6.0,27.0,9.4092,0.4238,2.0853,-1.0112,0.0528,0.2057,-90.45,7.95,-17.85,6.78,0.57,-7.2,0.0785,0.3262,0.0065,-14.5,24.25,44.1875,38.625,43.1875,-175.25,0
1776971584.82,9.3087,2.5642,0.3759,-0.4714,0.4138,0.3429,-36.6,6.0,27.0,9.347,0.9864,2.3343,-1.0016,0.0554,0.21,-90.45,7.95,-17.85,6.78,0.57,-7.2,0.0785,0.3262,0.0065,-14.5,24.25,44.1875,38.625,43.375,-175.3125,0
1776971584.828,9.3637,2.5666,0.4214,-0.506,0.4293,0.3698,-36.6,6.0,27.0,9.4882,0.0383,2.7031,-0.9673,0.0557,0.2014,-90.45,7.95,-17.85,6.86,0.53,-7.07,0.0404,0.3011,0.024,-14.5,24.25,44.1875,38.625,43.375,-175.3125,0
1776971584.835,9.3637,2.5666,0.4214,-0.506,0.4293,0.3698,-36.6,6.0,27.0,9.4882,0.0383,2.7031,-0.9673,0.0557,0.2014,-92.55,6.6,-17.4,6.85,0.51,-7.1,0.0098,0.2803,0.0415,-14.5,24.25,44.1875,38.625,43.5,-175.3125,0
1776971584.84,9.4403,2.5139,0.3519,-0.5313,0.4572,0.3989,-36.75,5.4,29.7,9.4355,0.1245,2.6552,-0.9363,0.0482,0.2126,-92.55,6.6,-17.4,6.85,0.51,-7.1,0.0098,0.2803,0.0415,-14.5,24.25,44.1875,38.6875,43.625,-175.3125,0
1776971584.848,9.4284,2.5402,0.3136,-0.566,0.4639,0.4173,-36.6,4.5,30.15,9.4978,0.1724,2.8228,-0.898,0.0232,0.2102,-92.55,6.6,-17.4,6.81,0.56,-7.08,-0.0185,0.2738,0.0436,-14.5,24.25,44.1875,38.6875,43.625,-175.3125,0
1776971584.855,9.4284,2.5402,0.3136,-0.566,0.4639,0.4173,-36.6,4.5,30.15,9.4978,0.1724,2.8228,-0.898,0.0232,0.2102,-92.25,6.15,-16.65,6.84,0.54,-7.05,-0.0349,0.288,0.0415,-14.5,24.25,44.1875,38.6875,43.8125,-175.3125,0
1776971584.86,9.3853,2.6576,0.498,-0.5732,0.4644,0.445,-37.35,4.8,30.15,9.3781,0.4525,2.8922,-0.8553,0.0221,0.2108,-92.25,6.15,-16.65,6.84,0.54,-7.05,-0.0349,0.288,0.0415,-14.5,24.25,44.1875,38.6875,43.8125,-175.3125,0
1776971584.865,9.3853,2.6576,0.498,-0.5732,0.4644,0.445,-37.35,4.8,30.15,9.3781,0.4525,2.8922,-0.8553,0.0221,0.2108,-92.25,6.15,-16.65,6.97,0.54,-6.97,-0.0491,0.3043,0.0491,-15.5625,24.5625,44.1875,38.25,44.0,-175.25,0
1776971584.869,9.2727,2.8084,0.3639,-0.5937,0.4788,0.4719,-37.95,1.95,28.65,9.2703,0.5626,2.8012,-0.8266,0.0242,0.2062,-92.25,6.6,-16.95,6.97,0.54,-6.97,-0.0491,0.3043,0.0491,-15.5625,24.5625,44.1875,38.25,44.0,-175.25,0
1776971584.874,9.2727,2.8084,0.3639,-0.5937,0.4788,0.4719,-37.95,1.95,28.65,9.2703,0.5626,2.8012,-0.8266,0.0242,0.2062,-92.25,6.6,-16.95,6.98,0.54,-7.04,-0.0676,0.2825,0.0589,-15.5625,24.5625,44.1875,38.3125,44.125,-175.25,0
1776971584.879,9.2799,2.6695,0.2059,-0.6161,0.5036,0.4887,-37.95,1.95,28.65,9.3087,0.7685,2.6408,-0.7975,0.0176,0.2052,-89.85,6.15,-16.95,6.98,0.54,-7.04,-0.0676,0.2825,0.0589,-15.5625,24.5625,44.1875,38.3125,44.125,-175.25,0
1776971584.884,9.2799,2.6695,0.2059,-0.6161,0.5036,0.4887,-37.95,1.95,28.65,9.3087,0.7685,2.6408,-0.7975,0.0176,0.2052,-89.85,6.15,-16.95,7.09,0.42,-7.13,-0.0818,0.2498,0.0611,-15.5625,24.5625,44.1875,38.375,44.3125,-175.25,0
1776971584.889,9.1411,2.624,0.1245,-0.6414,0.5404,0.5124,-37.95,1.95,28.65,9.3182,0.9074,2.5594,-0.777,0.0125,0.194,-90.9,6.0,-16.8,7.09,0.42,-7.13,-0.0818,0.2498,0.0611,-15.5625,24.5625,44.1875,38.375,44.3125,-175.25,0
1776971584.898,9.177,2.6743,0.0455,-0.6664,0.5702,0.538,-38.1,5.25,32.4,9.4355,0.8643,2.3679,-0.7541,0.0234,0.1876,-92.4,6.45,-16.8,6.82,0.64,-6.96,-0.0971,0.2214,0.0524,-15.5625,24.5625,44.1875,38.4375,44.4375,-175.1875,0
1776971584.903,9.177,2.6743,0.0455,-0.6664,0.5702,0.538,-38.1,5.25,32.4,9.4355,0.8643,2.3679,-0.7541,0.0234,0.1876,-92.4,6.45,-16.8,6.82,0.64,-6.96,-0.1036,0.2116,0.048,-15.5625,24.5625,44.1875,38.4375,44.5625,-175.1875,0
1776971584.909,9.2105,2.6815,-0.17,-0.704,0.607,0.5716,-37.65,2.25,31.95,9.4116,1.0271,2.308,-0.7458,0.0378,0.1671,-91.2,7.5,-15.3,6.87,0.54,-6.96,-0.1036,0.2116,0.048,-15.5625,24.5625,44.1875,38.4375,44.5625,-175.1875,0
1776971584.914,9.1171,2.885,-0.2586,-0.7005,0.6552,0.5998,-37.65,2.25,31.95,9.3733,1.0942,2.2027,-0.7458,0.0378,0.1671,-91.2,7.5,-15.3,6.87,0.54,-6.96,-0.1025,0.2105,0.0458,-15.875,24.25,44.1875,38.1875,44.625,-175.125,0
1776971584.919,9.1171,2.885,-0.2586,-0.7005,0.6552,0.5998,-36.3,3.3,32.4,9.3733,1.0942,2.2027,-0.7365,0.0344,0.1402,-91.2,7.5,-15.3,6.73,0.57,-7.04,-0.1025,0.2105,0.0458,-15.875,24.25,44.1875,38.1875,44.625,-175.125,0
1776971584.926,8.8633,2.9521,-0.2538,-0.6765,0.7163,0.6334,-38.1,2.25,31.35,9.3087,1.3527,2.1883,-0.7429,0.032,0.1079,-92.4,6.0,-16.8,6.81,0.59,-6.96,-0.1004,0.2094,0.0556,-15.875,24.25,44.1875,48.0,44.75,-175.0625,0
1776971584.931,8.8633,2.9521,-0.2538,-0.6765,0.7163,0.6334,-38.1,2.25,31.35,9.3087,1.3527,2.1883,-0.7429,0.032,0.1079,-92.4,6.0,-16.8,6.81,0.59,-6.96,-0.1004,0.2094,0.0556,-15.875,24.25,44.1875,48.125,44.875,-175.0625,0
1776971584.939,8.9184,3.0071,-0.4573,-0.6694,0.7799,0.6595,-38.1,2.25,31.35,9.1985,1.7262,2.2075,-0.7586,0.0405,0.0725,-92.4,6.0,-16.8,6.73,0.6,-6.97,-0.1102,0.2182,0.0753,-15.875,24.25,44.1875,48.125,44.875,-175.0625,0
1776971584.947,8.6503,2.8539,-0.4262,-0.6478,0.821,0.7016,-38.4,2.55,32.7,8.9447,2.047,2.3511,-0.7775,0.0392,0.041,-91.65,6.75,-17.1,6.76,0.66,-6.95,-0.1102,0.2313,0.0894,-15.875,24.25,44.1875,48.1875,45.0,-175.0,0
1776971584.952,8.6503,2.8539,-0.4262,-0.6478,0.821,0.7016,-38.4,2.55,32.7,8.7173,2.2865,2.4924,-0.7775,0.0392,0.041,-91.65,6.75,-17.1,6.76,0.66,-6.95,-0.1102,0.2313,0.0894,-15.875,24.25,44.1875,48.25,45.1875,-175.0,0
1776971584.959,8.3294,2.7533,-0.3352,-0.6115,0.9094,0.7687,-37.2,2.4,32.85,8.7173,2.2865,2.4924,-0.7786,0.0336,0.0083,-90.15,6.45,-16.8,7.38,0.37,-7.09,-0.1124,0.2662,0.0993,-15.875,24.25,44.1875,48.25,45.1875,-175.0,0
1776971584.964,8.4851,2.5091,-0.2777,-0.5987,0.9846,0.8263,-37.2,2.4,32.85,8.6,2.49,2.5594,-0.7349,0.0237,-0.0187,-90.15,6.45,-16.8,7.38,0.37,-7.09,-0.1124,0.2662,0.0993,-15.875,24.25,44.1875,47.9375,45.3125,-175.0,0
1776971584.969,8.4851,2.5091,-0.2777,-0.5987,0.9846,0.8263,-38.1,1.5,33.45,8.6,2.49,2.5594,-0.7349,0.0237,-0.0187,-91.8,7.35,-16.95,7.27,0.5,-6.79,-0.1233,0.288,0.0916,-17.0625,24.25,44.5625,47.9375,45.3125,-175.0,0
1776971584.974,8.5018,3.055,-0.5076,-0.6003,1.0421,0.8604,-38.1,1.5,33.45,8.3199,2.5833,2.5498,-0.6496,0.0517,-0.0464,-91.8,7.35,-16.95,7.27,0.5,-6.79,-0.1233,0.288,0.0916,-17.0625,24.25,44.5625,48.0625,45.4375,-174.9375,0
1776971584.979,8.5018,3.055,-0.5076,-0.6003,1.0421,0.8604,-37.2,1.2,34.65,8.3199,2.5833,2.5498,-0.6496,0.0517,-0.0464,-91.8,6.9,-19.2,6.95,0.49,-6.83,-0.1364,0.2323,0.0753,-17.0625,24.25,44.5625,48.0625,45.4375,-174.9375,0
1776971584.983,9.1075,3.122,0.0982,-0.4722,1.1018,0.8735,-37.2,1.2,34.65,8.8178,2.6576,2.715,-0.4823,0.0799,-0.0762,-91.8,6.9,-19.2,6.95,0.49,-6.83,-0.1342,0.1767,0.0774,-17.0625,24.25,44.5625,48.1875,45.5625,-174.875,0
1776971584.989,9.1075,3.122,0.0982,-0.4722,1.1018,0.8735,-37.95,1.2,33.9,8.8178,2.6576,2.715,-0.4823,0.0799,-0.0762,-90.45,7.95,-15.3,6.89,0.67,-6.89,-0.1342,0.1767,0.0774,-17.0625,24.25,44.5625,48.3125,45.6875,-174.875,0
1776971584.998,9.584,2.6217,0.4621,-0.2934,1.145,0.8569,-37.95,1.2,33.9,8.9136,2.4277,2.715,-0.2936,0.1103,-0.0895,-91.05,6.9,-15.9,6.13,0.47,-7.22,-0.1342,0.2334,0.0764,-17.0625,24.25,44.5625,48.3125,45.6875,-174.875,0
1776971585.008,9.8354,2.1332,0.9122,-0.0879,1.1527,0.8255,-37.05,-0.3,35.25,9.2057,1.9489,2.636,-0.0717,0.1255,-0.0826,-91.05,6.9,-15.9,6.28,0.85,-6.93,-0.1309,0.2956,0.0818,-17.0625,24.25,44.5625,48.375,45.875,-174.8125,0
1776971585.013,10.137,1.5874,1.7837,0.105,1.1794,0.7879,-37.05,-0.3,35.25,9.4044,1.4748,2.4684,0.0813,0.1708,-0.0608,-91.05,6.9,-15.9,6.28,0.85,-6.93,-0.1309,0.2956,0.0818,-17.0625,24.25,44.5625,48.0625,46.125,-174.75,0
1776971585.018,10.137,1.5874,1.7837,0.105,1.1794,0.7879,-39.3,-0.9,35.4,9.4044,1.4748,2.4684,0.0813,0.1708,-0.0608,-91.2,6.0,-16.8,6.45,0.89,-6.88,-0.1331,0.4538,0.0927,-17.375,23.875,43.25,48.0625,46.125,-174.75,0
1776971585.023,9.9024,0.6105,2.1404,0.2041,1.2028,0.7877,-39.3,-0.9,35.4,9.3805,0.929,2.3176,0.1751,0.1434,-0.0064,-91.2,6.0,-16.8,6.45,0.89,-6.88,-0.1331,0.4538,0.0927,-17.375,23.875,43.25,48.0625,46.4375,-174.75,0
1776971585.028,9.9024,0.6105,2.1404,0.2041,1.2028,0.7877,-38.55,-0.45,37.2,9.3805,0.929,2.3176,0.1751,0.1434,-0.0064,-91.05,6.6,-18.0,7.25,0.31,-7.18,-0.1473,0.5934,0.1505,-17.375,23.875,43.25,48.0625,46.4375,-174.75,0
1776971585.033,10.058,0.0239,2.6336,0.1575,1.2335,0.8098,-38.55,-0.45,37.2,9.3685,0.2993,2.3655,0.1764,0.0616,0.0578,-91.05,6.6,-18.0,7.25,0.31,-7.18,-0.1767,0.636,0.1887,-17.375,23.875,43.25,48.125,46.8125,-174.75,0
1776971585.039,10.058,0.0239,2.6336,-0.0469,1.2156,0.837,-37.65,-0.75,36.6,9.5122,-0.3663,2.2098,0.1764,0.0616,0.0578,-91.8,7.8,-18.45,7.21,1.34,-6.19,-0.1767,0.636,0.1887,-17.375,23.875,43.25,48.1875,47.25,-174.6875,0
1776971585.048,10.2017,-0.5698,3.4884,-0.0469,1.2156,0.837,-38.25,-2.4,37.8,9.7731,-0.9529,2.0207,0.1005,-0.0021,0.1356,-90.45,6.75,-16.8,7.18,0.66,-6.94,-0.1724,0.7429,0.1484,-17.375,23.875,43.25,48.1875,47.25,-174.6875,0
1776971585.058,10.1083,-0.7877,2.9928,-0.3957,1.1791,0.8804,-38.25,-2.4,37.8,10.3717,-1.3791,1.9058,0.0445,-0.0573,0.2156,-93.0,9.0,-18.0,7.18,0.54,-6.96,-0.1942,0.685,0.2062,-17.375,23.875,43.25,48.25,47.625,-174.625,0
1776971585.063,10.5441,-2.1763,1.8627,-0.3957,1.1791,0.8804,-39.0,-2.4,39.6,10.3717,-1.3791,1.9058,-0.0613,-0.0501,0.2777,-93.0,9.0,-18.0,7.18,0.54,-6.96,-0.1942,0.685,0.2062,-17.375,23.875,43.25,48.25,47.625,-174.625,0
1776971585.068,10.9774,-2.7964,1.7597,-0.599,1.1674,0.951,-39.0,-2.4,39.6,10.5489,-1.482,1.4581,-0.0613,-0.0501,0.2777,-92.25,6.6,-16.95,7.66,-0.62,-6.87,-0.2651,0.6698,0.252,-17.375,23.875,44.5625,48.25,48.0,-174.625,0
1776971585.073,10.9774,-2.7964,1.7597,-0.599,1.1674,0.951,-38.55,-1.95,40.05,10.5489,-1.482,1.4581,-0.1431,-0.1404,0.3264,-92.25,6.6,-16.95,7.66,-0.62,-6.87,-0.2651,0.6698,0.252,-17.375,23.875,44.5625,48.25,48.0,-174.625,0
1776971585.078,11.1354,-1.0582,2.083,-0.7168,1.2087,0.9769,-38.55,-1.95,40.05,10.5752,-1.0894,1.2378,-0.2483,-0.2705,0.3605,-92.25,6.6,-16.95,5.97,-1.07,-7.68,-0.2956,0.7614,0.2171,-17.375,23.875,44.5625,48.375,48.4375,-174.5625,0
1776971585.083,11.1354,-1.0582,2.083,-0.7168,1.2087,0.9769,-38.55,-1.95,41.1,10.5752,-1.0894,1.2378,-0.2483,-0.2705,0.3605,-92.25,6.6,-16.95,5.97,-1.07,-7.68,-0.2694,0.8923,0.0698,-17.375,23.875,44.5625,48.625,48.9375,-174.375,0
1776971585.089,10.5393,0.3376,1.4629,-0.7165,1.1295,0.9355,-38.55,-1.95,41.1,10.3453,-0.5004,1.3312,-0.3491,-0.2571,0.3611,-92.55,5.4,-18.45,7.26,-0.1,-7.1,-0.2694,0.8923,0.0698,-17.375,23.875,44.5625,48.75,49.625,-174.125,0
1776971585.098,10.3262,0.6752,1.2594,-0.5817,1.1095,0.8996,-37.95,-3.15,41.4,10.161,0.0958,1.3455,-0.4226,-0.2068,0.3363,-92.55,5.4,-18.45,7.88,-0.12,-6.58,-0.216,1.2675,-0.0916,-17.375,23.875,44.5625,48.75,49.625,-174.125,0
1776971585.108,10.149,1.1037,1.2905,-0.4815,1.0834,0.898,-37.5,-4.65,41.1,10.1849,0.4429,1.1756,-0.4874,-0.2577,0.3211,-92.55,7.8,-16.2,8.07,0.37,-6.42,-0.2574,1.4192,-0.1691,-17.375,23.875,44.5625,49.0625,50.375,-173.75,0
1776971585.113,10.149,1.1037,1.2905,-0.4815,1.0834,0.898,-37.5,-4.65,41.1,10.1849,0.4429,1.1756,-0.4874,-0.2577,0.3211,-92.55,7.8,-16.2,8.07,0.37,-6.42,-0.2574,1.4192,-0.1691,-17.375,23.875,44.5625,49.0625,50.375,-173.75,0
1776971585.118,10.0652,1.0175,3.0287,-0.4559,1.2028,0.9478,-37.5,-4.65,41.1,9.8521,0.8978,1.4317,-0.5814,-0.243,0.3102,-91.5,6.15,-18.75,7.83,0.5,-6.12,-0.2356,1.4955,-0.2313,-19.5625,23.875,42.5,48.8125,51.1875,-173.375,0
1776971585.123,10.0652,1.0175,3.0287,-0.4559,1.2028,0.9478,-37.2,-4.2,42.9,9.8521,0.8978,1.4317,-0.5814,-0.243,0.3102,-91.5,6.15,-18.75,7.83,0.5,-6.12,-0.2356,1.4955,-0.2313,-19.5625,23.875,42.5,48.8125,51.1875,-173.375,0
1776971585.128,9.8162,1.3144,2.1596,-0.6185,1.1962,0.9284,-37.2,-4.2,42.9,9.5553,1.3455,1.834,-0.652,-0.2587,0.3184,-92.7,6.0,-17.1,7.83,0.78,-5.75,-0.1876,1.525,-0.2225,-19.5625,23.875,42.5,49.0,52.0625,-173.0,0
1776971585.133,9.8162,1.3144,2.1596,-0.6185,1.1962,0.9284,-37.35,-6.0,43.05,9.5553,1.3455,1.834,-0.652,-0.2587,0.3184,-92.7,6.0,-17.1,7.83,0.78,-5.75,-0.1909,1.6112,-0.1844,-19.5625,23.875,42.5,49.125,52.9375,-172.625,0
1776971585.139,9.8282,0.8691,1.9154,-0.7685,1.2287,0.9387,-37.35,-6.0,43.05,9.402,2.0614,2.1404,-0.7232,-0.2409,0.3312,-91.8,7.35,-19.95,7.57,0.97,-5.5,-0.1909,1.6112,-0.1844,-19.5625,23.875,42.5,49.25,53.875,-172.1875,0
1776971585.149,10.5153,0.2538,1.9537,-0.9638,1.2654,0.9569,-38.1,-4.8,44.1,9.4858,2.4469,2.2051,-0.785,-0.2222,0.3027,-91.65,7.95,-17.1,7.5,1.22,-5.17,-0.1854,1.7344,-0.1974,-19.5625,23.875,42.5,49.25,53.875,-172.1875,0
1776971585.158,11.2456,-0.1844,1.2594,-1.2319,1.2905,0.9761,-37.5,-4.65,44.25,10.1299,2.4684,1.9561,-0.821,-0.2078,0.2329,-91.65,6.45,-19.05,7.25,0.93,-5.3,-0.3676,1.9864,-0.1571,-19.5625,23.875,42.5,49.5,54.9375,-171.625,0
1776971585.163,11.2456,-0.1844,1.2594,-1.2319,1.2905,0.9761,-36.6,-6.3,44.85,10.3238,2.3774,1.6616,-0.821,-0.2078,0.2329,-91.65,6.45,-19.05,7.25,0.93,-5.3,-0.3676,1.9864,-0.1571,-19.5625,23.875,42.5,49.5,54.9375,-171.625,0
1776971585.168,11.5089,-1.2641,0.3855,-1.4941,1.3587,1.0022,-36.6,-6.3,44.85,10.3238,2.3774,1.6616,-0.8545,-0.2625,0.162,-91.65,6.45,-19.05,7.87,1.07,-5.35,-0.612,2.2329,-0.0709,-22.5625,22.75,41.25,49.625,56.125,-171.0,0
1776971585.173,11.5089,-1.2641,0.3855,-1.4941,1.3587,1.0022,-36.6,-6.3,44.85,10.5919,2.4469,1.8603,-0.8545,-0.2625,0.162,-91.65,6.45,-19.05,7.87,1.07,-5.35,-0.612,2.2329,-0.0709,-22.5625,22.75,41.25,49.625,56.125,-171.0,0
1776971585.178,12.22,-1.1085,0.3926,-1.6808,1.4341,1.0605,-36.6,-6.3,44.85,10.5919,2.4469,1.8603,-0.8724,-0.3744,0.0866,-94.05,4.95,-17.4,8.36,1.26,-5.22,-0.9676,2.3933,0.0796,-22.5625,22.75,41.25,50.3125,57.4375,-170.1875,0
1776971585.183,12.22,-1.1085,0.3926,-1.6808,1.4341,1.0605,-37.2,-5.4,45.0,10.5393,2.8108,2.3535,-0.8724,-0.3744,0.0866,-94.05,4.95,-17.4,8.36,1.26,-5.22,-1.2697,2.3518,0.2291,-22.5625,22.75,41.25,51.125,58.75,-169.3125,0
1776971585.189,12.4642,-0.17,-0.3926,-1.9361,1.3539,1.1239,-37.2,-5.4,45.0,10.5393,2.8108,2.3535,-0.8964,-0.4639,-0.0171,-94.05,4.95,-17.4,8.13,1.54,-5.83,-1.2697,2.3518,0.2291,-22.5625,22.75,41.25,51.875,59.9375,-168.625,0
1776971585.199,13.0173,-0.1963,-1.1588,-2.1186,1.2678,1.1612,-37.5,-6.9,45.75,10.6997,3.1388,2.6504,-0.9822,-0.5228,-0.1604,-92.7,6.0,-19.35,8.62,-0.61,-5.46,-1.2632,2.0268,0.4483,-22.5625,22.75,41.25,51.875,59.9375,-168.625,0
1776971585.209,13.6829,0.146,-2.2122,-2.2156,1.2713,1.2321,-37.35,-9.0,47.25,11.0971,2.727,2.5522,-1.0419,-0.652,-0.3419,-92.55,6.9,-19.35,6.92,2.0,-6.14,-1.3646,1.6919,0.6927,-22.5625,22.75,41.25,52.625,60.9375,-168.25,0
1776971585.213,13.4602,0.814,-2.5786,-2.3387,1.1828,1.2414,-38.1,-7.8,47.7,12.1123,2.1404,2.2386,-1.0232,-1.0325,-0.5681,-92.55,6.9,-18.0,6.92,2.0,-6.14,-1.3646,1.6919,0.6927,-22.5625,22.75,41.25,52.625,60.9375,-168.25,0
1776971585.218,13.4602,0.814,-2.5786,-2.3387,1.1828,1.2414,-38.1,-7.8,47.7,12.1123,2.1404,2.2386,-1.0232,-1.0325,-0.5681,-93.75,4.95,-18.75,7.16,-0.65,-8.61,-1.3788,1.7224,0.697,-26.1875,22.75,39.5,52.875,61.9375,-167.8125,0
1776971585.223,13.1944,1.8747,-2.5618,-2.6207,1.1037,1.2193,-35.85,-9.0,47.25,10.6183,1.2306,0.8787,-1.0627,-1.1567,-0.8076,-93.75,4.95,-18.75,7.16,-0.65,-8.61,-1.3788,1.7224,0.697,-26.1875,22.75,39.5,52.875,61.9375,-167.8125,0
1776971585.228,13.1944,1.8747,-2.5618,-2.6207,1.1037,1.2193,-35.85,-9.0,47.25,10.6183,1.2306,0.8787,-1.0627,-1.1567,-0.8076,-93.75,4.95,-18.75,6.36,0.17,-8.27,-1.3919,2.5711,0.7832,-26.1875,22.75,39.5,53.4375,63.4375,-167.25,0
1776971585.233,11.71,3.2417,-2.0542,-2.9007,0.9068,1.1618,-35.85,-9.0,47.25,10.0628,1.1253,0.3711,-0.9401,-1.4565,-1.0674,-91.65,7.2,-17.55,6.36,0.17,-8.27,-0.6229,4.0579,0.6949,-26.1875,22.75,39.5,53.25,65.6875,-166.625,0
1776971585.239,11.71,3.2417,-2.0542,-2.9007,0.9068,1.1618,-35.85,-9.0,47.25,10.0628,1.1253,0.3711,-0.9401,-1.4565,-1.0674,-91.65,7.2,-17.55,9.64,5.26,-6.28,-0.6229,4.0579,0.6949,-26.1875,22.75,39.5,52.375,68.75,-165.75,0
1776971585.249,10.5704,3.7469,-0.0048,-2.7411,0.882,1.0736,-37.5,-10.95,47.1,10.0485,1.0798,0.4741,-0.8271,-1.5575,-1.2934,-91.65,7.2,-17.55,13.04,3.26,-6.13,0.0545,5.464,0.6294,-26.1875,22.75,39.5,52.375,68.75,-165.75,0
1776971585.259,10.7739,4.3431,1.2354,-2.2052,0.825,0.9324,-37.2,-9.45,46.35,9.3278,0.5076,0.079,-0.8431,-1.537,-1.5231,-93.0,7.35,-18.75,12.49,2.77,-5.77,0.4156,6.0116,0.9087,-26.1875,22.75,39.5,51.125,72.0625,-165.0,0
1776971585.264,10.8314,4.7046,2.387,-1.712,0.6715,0.7703,-37.35,-10.5,46.95,8.7891,-0.3855,-0.0455,-0.934,-1.3957,-1.7816,-93.0,7.35,-18.75,12.49,2.77,-5.77,0.4156,6.0116,0.9087,-26.1875,22.75,39.5,49.9375,75.3125,-164.0,0
1776971585.269,10.8314,4.7046,2.387,-1.712,0.6715,0.7703,-35.7,-11.4,46.05,8.7891,-0.3855,-0.0455,-0.934,-1.3957,-1.7816,-93.0,7.35,-18.75,16.26,2.89,-7.78,0.492,5.8512,0.9283,-30.25,20.5625,36.375,49.9375,75.3125,-164.0,0
1776971585.274,11.1666,3.1891,3.9049,-1.1842,0.5577,0.5883,-35.7,-11.4,46.05,8.6431,-1.1564,0.3879,-1.0411,-1.2196,-1.9465,-92.25,7.8,-20.25,16.26,2.89,-7.78,0.492,5.8512,0.9283,-30.25,20.5625,36.375,48.8125,78.625,-163.0,0
1776971585.279,11.1666,3.1891,3.9049,-1.1842,0.5577,0.5883,-35.7,-11.4,46.05,8.521,-2.0279,0.4669,-1.0411,-1.2196,-1.9465,-92.25,7.8,-20.25,13.61,1.42,-3.68,0.2683,5.8239,1.2359,-30.25,20.5625,36.375,48.8125,78.625,-163.0,0
1776971585.285,11.9112,1.8938,4.5777,-0.9092,0.7853,0.4903,-35.7,-11.4,46.05,8.521,-2.0279,0.4669,-1.0222,-1.0834,-2.04,-90.9,9.9,-19.8,15.37,2.71,-5.09,0.0851,5.5829,1.5926,-30.25,20.5625,36.375,47.6875,81.875,-162.625,0
1776971585.29,11.9112,1.8938,4.5777,-0.9092,0.7853,0.4903,-35.7,-11.4,46.05,9.2368,-1.901,0.5674,-0.9483,-1.0387,-2.084,-90.45,9.45,-21.15,15.37,2.71,-5.09,0.0851,5.5829,1.5926,-30.25,20.5625,36.375,46.8125,85.125,-178.4375,0
1776971585.299,12.7922,0.9146,6.2489,-0.8106,0.8516,0.3698,-38.4,-11.55,48.45,10.1059,-1.7142,0.431,-0.8676,-0.9816,-2.1298,-90.45,9.45,-21.15,20.77,1.53,-9.85,-0.2062,5.717,1.6232,-30.25,20.5625,36.375,46.4375,88.25,-179.25,0
1776971585.309,11.4946,-1.7909,6.3973,-0.9265,1.3142,0.3384,-39.15,-12.75,49.5,10.6542,-0.8356,-0.0144,-0.7061,-0.9164,-2.1434,-90.6,11.7,-20.7,17.97,3.75,-9.95,-0.9381,5.4422,1.4639,-30.25,20.5625,36.375,46.4375,88.25,-179.25,0
1776971585.314,11.2192,-2.3679,5.9927,-0.9499,1.9764,0.5212,-39.15,-12.75,49.5,10.6542,-0.8356,-0.0144,-0.7061,-0.9164,-2.1434,-91.65,12.6,-20.85,17.97,3.75,-9.95,-0.9381,5.4422,1.4639,-30.25,20.5625,36.375,46.4375,88.25,-179.25,0
1776971585.319,11.2192,-2.3679,5.9927,-0.9499,1.9764,0.5212,-37.35,-13.05,49.5,12.1482,-0.5722,-0.0527,-0.5375,-0.8455,-2.1381,-91.65,12.6,-20.85,15.63,2.46,-9.39,-1.7781,4.408,1.2108,-38.0,22.6875,26.5625,46.75,89.0625,-0.0625,0
1776971585.324,11.2073,-2.1284,6.0741,-1.0997,2.0153,0.6182,-37.35,-13.05,49.5,12.1482,-0.5722,-0.0527,-0.5375,-0.8455,-2.1381,-90.15,15.0,-21.15,15.63,2.46,-9.39,-1.7781,4.408,1.2108,-38.0,22.6875,26.5625,46.75,89.0625,-0.0625,0
1776971585.329,11.2073,-2.1284,6.0741,-1.0997,2.0153,0.6182,-37.2,-11.7,49.95,13.3477,0.9625,0.0766,-0.3704,-0.7965,-2.0776,-90.15,15.0,-21.15,13.82,1.27,-9.98,-2.8253,3.7066,0.6567,-38.0,22.6875,26.5625,47.9375,87.0,0.3125,0
1776971585.335,10.4531,-3.541,5.6312,-0.9254,2.1176,0.7496,-37.2,-11.7,49.95,13.3477,0.9625,0.0766,-0.3704,-0.7965,-2.0776,-90.15,15.0,-21.15,5.61,1.79,-10.33,-3.7732,3.1416,0.5912,-38.0,22.6875,26.5625,49.5625,85.25,0.75,0
1776971585.34,9.1099,-3.3375,4.7669,-1.1466,1.5028,0.6805,-37.2,-11.7,49.95,12.5815,1.9441,-0.8859,-0.125,-0.7408,-2.0438,-87.45,16.95,-20.85,5.61,1.79,-10.33,-3.7732,3.1416,0.5912,-38.0,22.6875,26.5625,51.125,84.1875,1.5625,0
1776971585.349,7.8482,-3.7397,6.699,-0.8175,1.493,0.4042,-37.2,-11.7,49.95,11.71,2.2458,-1.0415,-0.025,-0.5276,-1.9774,-87.45,16.95,-20.85,2.35,-1.08,-11.74,-4.1735,1.7028,1.0101,-38.0,22.6875,26.5625,52.125,83.5625,2.5625,0
1776971585.359,6.9025,-3.4189,5.5282,-0.7077,1.2758,0.2334,-37.05,-14.25,51.9,11.5209,2.5498,-0.9194,0.2441,-0.6262,-1.9934,-87.45,16.95,-20.85,25.93,2.43,-17.36,-3.5125,0.6818,1.4454,-38.0,22.6875,26.5625,52.125,83.5625,2.5625,0
1776971585.364,6.9025,-3.4189,5.5282,-0.7077,1.2758,0.2334,-37.05,-14.25,51.9,11.5209,2.5498,-0.9194,0.2441,-0.6262,-1.9934,-87.45,17.7,-20.85,25.93,2.43,-17.36,-3.5125,0.6818,1.4454,-42.0625,22.0,17.875,53.25,83.0625,29.1875,0
1776971585.369,5.375,-2.1117,5.2529,-1.1175,1.2428,0.004,-37.05,-12.75,54.45,11.7531,0.7949,-1.0343,0.4431,-0.5721,-2.0304,-87.45,17.7,-20.85,15.59,13.45,-15.57,-3.4121,0.4047,1.081,-42.0625,22.0,17.875,53.25,83.0625,29.1875,0
1776971585.374,5.375,-2.1117,5.2529,-1.1175,1.2428,0.004,-37.05,-12.75,54.45,11.7531,0.7949,-1.0343,0.4431,-0.5721,-2.0304,-87.0,18.9,-21.15,15.59,13.45,-15.57,-3.4121,0.4047,1.081,-42.0625,22.0,17.875,54.3125,82.5625,34.1875,0
1776971585.379,7.3646,-0.1317,3.9863,-1.246,1.4152,-0.2188,-35.55,-14.25,54.75,11.8465,-0.5148,-0.7183,0.6456,-0.429,-2.036,-87.0,18.9,-21.15,7.8,10.34,-10.94,-3.4121,0.4047,1.081,-42.0625,22.0,17.875,54.3125,82.5625,34.1875,0
1776971585.388,7.1204,-0.9673,3.8547,-1.2606,0.586,-0.4932,-35.55,-14.55,53.7,11.9471,-0.759,-0.0144,0.821,-0.3778,-2.0209,-85.5,19.65,-21.6,3.46,7.43,-8.43,-1.5992,-2.3758,1.705,-42.0625,22.0,17.875,54.125,82.9375,47.625,0
1776971585.393,7.1204,-0.9673,3.8547,-1.2606,0.586,-0.4932,-35.55,-14.55,53.7,11.9471,-0.759,-0.0144,0.821,-0.3778,-2.0209,-85.95,18.9,-20.85,3.46,7.43,-8.43,0.5618,-3.5561,2.0355,-42.0625,22.0,17.875,52.5,83.0625,66.0,0
1776971585.4,7.1275,-1.3551,2.7533,-0.7901,-0.0834,-0.7778,-35.55,-14.55,53.7,11.4778,-1.1947,0.2682,0.8575,-0.2891,-2.0059,-85.95,18.9,-20.85,0.08,2.91,-4.94,0.5618,-3.5561,2.0355,-42.0625,22.0,17.875,50.9375,82.625,82.5,0
1776971585.409,7.2592,-2.0016,2.9521,-0.2454,-1.1282,-0.9116,-37.05,-13.05,54.45,11.1498,-1.1229,0.5171,0.8026,-0.1876,-1.9987,-86.25,21.6,-21.6,-0.21,1.39,-4.61,0.6065,-3.4088,1.8686,-42.0625,22.0,17.875,50.9375,82.625,82.5,0
1776971585.414,7.2592,-2.0016,2.9521,-0.2454,-1.1282,-0.9116,-37.05,-13.05,54.45,10.6614,-0.4477,0.3711,0.732,-0.0365,-1.934,-83.4,21.0,-21.45,-0.21,1.39,-4.61,0.6065,-3.4088,1.8686,-42.0625,22.0,17.875,49.6875,81.75,95.875,0
1776971585.419,5.9256,-2.0375,4.3455,0.1711,-1.676,-1.0573,-36.3,-12.75,53.7,10.6614,-0.4477,0.3711,0.732,-0.0365,-1.934,-83.4,21.0,-21.45,-0.29,0.9,-4.47,0.2651,-3.2932,1.5239,-41.0625,19.75,19.5,49.6875,81.75,95.875,0
1776971585.424,5.9256,-2.0375,4.3455,0.1711,-1.676,-1.0573,-36.3,-12.75,53.7,10.4387,1.403,0.0527,0.7061,0.0698,-1.8461,-83.4,21.0,-21.45,-0.29,0.9,-4.47,0.2651,-3.2932,1.5239,-41.0625,19.75,19.5,48.9375,80.875,106.1875,0
1776971585.429,5.7245,-1.6113,5.1595,0.3128,-1.8215,-1.1583,-35.85,-11.55,53.4,10.4387,1.403,0.0527,0.7061,0.0698,-1.8461,-83.4,21.0,-21.45,-0.27,1.63,-4.27,-0.228,-3.0598,1.0952,-41.0625,19.75,19.5,48.9375,80.875,106.1875,0
1776971585.434,5.7245,-1.6113,5.1595,0.3128,-1.8215,-1.1583,-35.85,-11.55,53.4,10.6829,2.2529,-0.4453,0.7314,0.1966,-1.7885,-82.95,22.8,-21.15,-0.27,1.63,-4.27,-0.5552,-2.9551,0.6272,-41.0625,19.75,19.5,48.625,79.9375,114.875,0
1776971585.44,5.5952,-4.0007,4.8219,0.5396,-1.663,-1.3771,-39.0,-12.45,53.25,10.6829,2.2529,-0.4453,0.7314,0.1966,-1.7885,-82.95,22.8,-21.15,2.01,4.33,-5.36,-0.5552,-2.9551,0.6272,-41.0625,19.75,19.5,48.5625,79.0625,122.9375,0
1776971585.449,5.6455,-3.6559,3.8307,0.9827,-1.4906,-1.55,-38.1,-10.5,52.35,10.738,2.4469,-0.407,0.8071,0.2425,-1.7557,-83.25,24.45,-21.6,3.65,5.0,-6.09,-0.5127,-3.0543,0.1407,-41.0625,19.75,19.5,48.5625,79.0625,122.9375,0
1776971585.459,6.4332,-3.3639,2.909,1.38,-1.5545,-1.6745,-38.1,-10.5,52.35,10.4579,1.9178,-0.2897,0.829,0.3051,-1.7174,-81.6,25.35,-22.95,4.3,4.97,-5.88,-0.2836,-3.2529,-0.3709,-41.0625,19.75,19.5,48.625,78.125,130.875,0
1776971585.464,6.4332,-3.3639,2.909,1.38,-1.5545,-1.6745,-38.1,-10.5,52.35,10.1921,1.2929,-0.1484,0.8111,0.3448,-1.6859,-81.75,25.95,-21.15,4.3,4.97,-5.88,-0.2836,-3.2529,-0.3709,-41.0625,19.75,19.5,48.625,78.125,130.875,0
1776971585.469,7.1658,-3.2705,2.8156,1.8226,-1.9486,-1.7842,-38.4,-7.8,50.85,10.1921,1.2929,-0.1484,0.8111,0.3448,-1.6859,-81.75,25.95,-21.15,3.66,2.9,-4.94,-0.0785,-3.4448,-0.889,-35.5625,22.25,21.375,48.875,77.125,138.75,0
1776971585.474,7.1658,-3.2705,2.8156,1.8226,-1.9486,-1.7842,-38.4,-7.8,50.85,9.8809,0.6345,0.0575,0.7186,0.3712,-1.6454,-82.35,26.1,-23.25,3.66,2.9,-4.94,-0.0785,-3.4448,-0.889,-35.5625,22.25,21.375,48.875,77.125,138.75,0
1776971585.479,7.8314,-3.4022,2.7581,2.2711,-2.3739,-1.8578,-38.85,-6.3,48.45,9.8809,0.6345,0.0575,0.7186,0.3712,-1.6454,-82.35,26.1,-23.25,3.93,1.95,-4.96,-0.012,-3.5027,-1.4115,-35.5625,22.25,21.375,49.3125,76.0625,146.3125,0
1776971585.486,7.8961,-3.8188,4.2138,2.2188,-2.7216,-1.8724,-39.15,-6.75,47.25,9.6462,0.3376,0.3065,0.5979,0.3936,-1.5836,-80.4,27.3,-23.25,4.54,1.27,-5.21,-0.0535,-3.4667,-1.9155,-35.5625,22.25,21.375,50.125,74.9375,153.625,0
1776971585.491,7.8961,-3.8188,4.2138,2.2188,-2.7216,-1.8724,-39.15,-6.75,47.25,9.4164,0.2107,0.1413,0.5979,0.3936,-1.5836,-80.4,27.3,-23.25,4.54,1.27,-5.21,-0.0535,-3.4667,-1.9155,-35.5625,22.25,21.375,51.25,73.6875,160.625,0
1776971585.499,8.6574,-4.0223,4.7621,1.9873,-2.9354,-1.7861,-39.0,-6.45,47.1,9.1674,0.4214,0.1556,0.4719,0.3981,-1.4994,-80.4,27.3,-23.25,5.26,-0.05,-5.43,-0.1724,-3.3794,-2.3322,-35.5625,22.25,21.375,52.6875,72.375,166.9375,0
1776971585.509,8.9232,-4.4125,5.3534,1.6161,-2.9865,-1.6006,-38.55,-4.95,45.75,9.3134,0.8236,0.1987,0.3925,0.4143,-1.3925,-79.65,30.45,-24.0,6.44,-0.43,-5.97,-0.2847,-3.219,-2.5885,-35.5625,22.25,21.375,52.6875,72.375,166.9375,0
1776971585.514,9.2344,-4.0462,4.8459,1.275,-3.0182,-1.3944,-38.55,-4.95,45.75,9.3134,0.8236,0.1987,0.4389,0.3123,-1.2835,-79.65,30.45,-24.0,6.44,-0.43,-5.97,-0.2847,-3.219,-2.5885,-35.5625,22.25,21.375,54.3125,70.9375,172.4375,0
1776971585.519,9.2344,-4.0462,4.8459,1.275,-3.0182,-1.3944,-38.55,-4.95,45.75,9.1219,1.2282,0.1604,0.4389,0.3123,-1.2835,-79.65,30.45,-24.0,7.52,-0.52,-6.32,-0.3174,-3.074,-2.6693,-30.5625,18.1875,26.25,54.3125,70.9375,172.4375,0
1776971585.524,9.0166,-3.2729,4.8507,1.0595,-3.181,-1.2814,-38.55,-4.95,45.75,9.1219,1.2282,0.1604,0.49,0.2241,-1.1599,-81.15,30.45,-25.5,7.52,-0.52,-6.32,-0.3174,-3.074,-2.6693,-30.5625,18.1875,26.25,55.8125,69.4375,177.0,0
1776971585.529,9.0166,-3.2729,4.8507,1.0595,-3.181,-1.2814,-40.05,-3.45,42.9,9.0214,1.3048,0.1604,0.6182,0.1684,-1.0544,-81.15,30.45,-25.5,8.41,-0.66,-6.71,-0.2411,-3.0238,-2.5962,-30.5625,18.1875,26.25,55.8125,69.4375,177.0,0
1776971585.534,8.3917,-2.5139,4.6615,1.0325,-3.2802,-1.2825,-40.2,-3.45,42.9,9.0214,1.3048,0.1604,0.6182,0.1684,-1.0544,-80.4,31.95,-26.25,8.41,-0.66,-6.71,-0.1025,-3.0685,-2.4282,-30.5625,18.1875,26.25,57.25,67.75,-179.375,0
1776971585.54,8.3917,-2.5139,4.6615,1.0325,-3.2802,-1.2825,-40.2,-4.05,40.95,8.7364,1.1708,0.1413,0.7061,0.1727,-0.9467,-80.4,31.95,-26.25,10.28,-0.85,-7.36,-0.1025,-3.0685,-2.4282,-30.5625,18.1875,26.25,58.5625,65.9375,-176.625,0
1776971585.549,8.3318,-1.9632,4.7046,1.1879,-3.3462,-1.3483,-40.2,-1.5,39.45,8.2504,1.3862,-0.2011,0.7754,0.1753,-0.8495,-81.0,31.5,-25.65,11.25,-0.6,-7.69,0.0,-3.1623,-2.234,-30.5625,18.1875,26.25,58.5625,65.9375,-176.625,0
1776971585.559,8.339,-1.2665,4.3191,1.3211,-3.3897,-1.465,-39.75,-2.4,39.0,7.3287,1.6616,-0.2682,0.7594,0.2715,-0.7799,-80.1,31.95,-24.0,12.03,-0.11,-7.92,0.0535,-3.3096,-2.0409,-30.5625,18.1875,26.25,59.75,64.0625,-174.5,0
1776971585.564,8.825,-0.9792,4.1563,1.4629,-3.4198,-1.6491,-40.95,-0.75,37.35,7.3287,1.6616,-0.2682,0.7594,0.2715,-0.7799,-80.85,34.35,-27.0,12.03,-0.11,-7.92,0.0535,-3.3096,-2.0409,-30.5625,18.1875,26.25,59.75,64.0625,-174.5,0
1776971585.569,8.825,-0.9792,4.1563,1.4629,-3.4198,-1.6491,-40.95,-0.75,37.35,6.7708,2.2745,0.3974,0.623,0.3397,-0.6472,-80.85,34.35,-27.0,13.89,1.23,-8.76,0.0982,-3.4819,-1.8904,-26.1875,14.1875,27.75,60.875,62.0,-172.9375,0
1776971585.574,9.4332,-1.1827,4.1803,1.6369,-3.3673,-1.7706,-40.95,-0.75,37.35,6.7708,2.2745,0.3974,0.623,0.3397,-0.6472,-81.15,34.05,-28.5,13.89,1.23,-8.76,0.0982,-3.4819,-1.8904,-26.1875,14.1875,27.75,60.875,62.0,-172.9375,0
1776971585.579,9.4332,-1.1827,4.1803,1.6369,-3.3673,-1.7706,-40.95,-0.75,37.35,8.0373,2.308,-0.0431,0.7282,0.3003,-0.5044,-81.15,34.05,-28.5,14.32,1.95,-8.67,0.1342,-3.7066,-1.8271,-26.1875,14.1875,27.75,62.0,59.8125,-171.6875,0
1776971585.587,10.0173,-1.4892,4.0342,1.7512,-3.2818,-1.8154,-39.9,0.0,34.5,8.2887,2.3056,0.2993,0.7282,0.3003,-0.5044,-81.15,34.05,-28.5,14.11,2.38,-8.32,0.1767,-3.9379,-1.862,-26.1875,14.1875,27.75,63.1875,57.5,-170.6875,0
1776971585.591,10.3525,-1.6927,3.9504,1.8346,-3.2935,-1.8024,-39.9,0.0,34.5,8.2887,2.3056,0.2993,0.7501,0.1812,-0.3728,-81.15,34.05,-28.5,14.11,2.38,-8.32,0.1767,-3.9379,-1.862,-26.1875,14.1875,27.75,64.5625,55.125,-169.75,0
1776971585.6,10.3525,-1.6927,3.9504,1.8346,-3.2935,-1.8024,-40.05,-0.9,32.55,8.2648,2.0949,0.0934,0.8154,0.1247,-0.2777,-80.1,36.0,-29.55,13.56,3.07,-7.85,0.2269,-4.0939,-1.9504,-26.1875,14.1875,27.75,65.9375,52.625,-169.0,0
1776971585.609,10.1969,-1.98,4.1372,1.8242,-3.3334,-1.7722,-39.15,2.25,31.65,8.3007,1.6592,0.1269,0.8476,0.0677,-0.1708,-80.25,36.15,-30.15,13.19,3.43,-7.66,0.3011,-4.1855,-2.0551,-26.1875,14.1875,27.75,65.9375,52.625,-169.0,0
1776971585.614,10.1179,-2.0135,4.142,1.6561,-3.4336,-1.704,-39.15,1.8,31.35,8.3007,1.6592,0.1269,0.8476,0.0677,-0.1708,-81.3,34.5,-31.2,13.19,3.43,-7.66,0.3011,-4.1855,-2.0551,-26.1875,14.1875,27.75,67.4375,50.0625,-168.3125,0
1776971585.619,10.0963,-1.4437,4.1635,1.4855,-3.4813,-1.6862,-39.15,1.8,31.35,8.2887,1.5826,0.1125,0.9134,0.0895,-0.065,-81.3,34.5,-31.2,12.92,3.7,-7.64,0.4047,-4.227,-2.1522,-21.375,10.5625,31.375,67.4375,50.0625,-168.3125,0
1776971585.624,10.0963,-1.4437,4.1635,1.4855,-3.4813,-1.6862,-38.1,4.05,28.8,8.09,1.3168,0.0646,0.9134,0.0895,-0.065,-80.55,34.95,-30.9,12.92,3.7,-7.64,0.4047,-4.227,-2.1522,-21.375,10.5625,31.375,69.0,47.5,-167.75,0
1776971585.629,9.9216,-0.5842,3.3758,1.3379,-3.529,-1.7245,-38.1,4.05,28.8,8.09,1.3168,0.0646,0.9497,0.1506,0.0397,-80.55,34.95,-30.9,12.62,3.85,-7.67,0.4952,-4.2455,-2.2307,-21.375,10.5625,31.375,69.0,47.5,-167.75,0
1776971585.634,9.9216,-0.5842,3.3758,1.3379,-3.529,-1.7245,-38.1,4.05,28.8,8.1858,1.0127,-0.2634,0.9497,0.1506,0.0397,-79.35,34.8,-32.55,12.62,3.85,-7.67,0.5585,-4.2117,-2.2864,-21.375,10.5625,31.375,70.625,44.9375,-167.3125,0
1776971585.64,9.7013,0.1149,2.8204,1.3432,-3.5176,-1.7949,-38.1,4.05,28.8,8.1858,1.0127,-0.2634,1.097,0.2987,0.1553,-79.35,34.8,-32.55,11.59,4.26,-7.31,0.5585,-4.2117,-2.2864,-21.375,10.5625,31.375,44.6875,42.4375,-166.9375,0
1776971585.649,10.2927,0.3903,2.3128,1.4549,-3.4861,-1.8706,-37.5,3.45,25.35,7.9344,0.8356,-0.1939,1.0531,0.3555,0.3019,-81.75,35.4,-31.65,10.75,4.55,-6.49,0.6174,-4.1015,-2.3366,-21.375,10.5625,31.375,43.4375,40.0625,-166.625,0
1776971585.66,10.647,0.814,1.8962,1.591,-3.6585,-1.9801,-37.65,5.25,25.65,8.2193,0.7135,-0.146,0.9529,0.3656,0.4455,-81.75,35.4,-31.65,9.59,4.67,-5.63,0.6785,-3.8419,-2.3507,-21.375,10.5625,31.375,43.4375,40.0625,-166.625,0
1776971585.664,10.647,0.814,1.8962,1.591,-3.6585,-1.9801,-34.65,4.2,22.2,8.1283,0.8356,-0.5076,0.8788,0.3123,0.5641,-80.85,34.35,-30.6,9.59,4.67,-5.63,0.6785,-3.8419,-2.3507,-21.375,10.5625,31.375,43.4375,40.0625,-166.625,0
1776971585.67,11.0109,1.4341,1.0271,1.6784,-3.7246,-2.0741,-34.65,4.2,22.2,8.1283,0.8356,-0.5076,0.8788,0.3123,0.5641,-80.85,34.35,-30.6,8.79,5.67,-4.85,0.8312,-3.4045,-2.2929,-17.25,4.5625,33.5,42.1875,37.9375,-166.4375,0
1776971585.674,11.0109,1.4341,1.0271,1.6784,-3.7246,-2.0741,-33.75,6.75,22.05,8.1116,1.1253,-0.9002,0.8119,0.2577,0.6747,-80.85,34.35,-30.6,8.79,5.67,-4.85,0.8312,-3.4045,-2.2929,-17.25,4.5625,33.5,42.1875,37.9375,-166.4375,0
1776971585.679,11.2887,2.2841,0.1939,1.7917,-3.702,-2.1615,-33.75,6.75,22.05,8.1116,1.1253,-0.9002,0.8119,0.2577,0.6747,-80.85,34.35,-30.6,9.67,6.21,-5.34,1.0963,-2.8492,-2.1566,-17.25,4.5625,33.5,41.0,36.125,-166.4375,0
1776971585.688,10.2951,3.0023,-1.1899,1.8551,-3.7433,-2.3872,-33.9,6.45,18.3,8.0325,1.549,-1.0846,0.7445,0.2153,0.7823,-82.5,32.25,-30.45,12.03,6.77,-7.1,1.4366,-2.3802,-2.0169,-17.25,4.5625,33.5,39.75,34.5625,-166.6875,0
1776971585.692,10.2951,3.0023,-1.1899,1.8551,-3.7433,-2.3872,-33.9,6.45,18.3,7.8219,2.1093,-1.4078,0.7445,0.2153,0.7823,-82.5,32.25,-30.45,12.03,6.77,-7.1,1.4366,-2.3802,-2.0169,-17.25,4.5625,33.5,38.5,33.1875,-167.0625,0
1776971585.7,11.1785,1.573,-0.4669,2.5612,-3.6226,-2.4837,-33.9,6.45,18.3,7.8219,2.1093,-1.4078,0.6909,0.1671,0.8745,-82.65,32.4,-31.8,15.81,6.94,-9.15,1.7104,-2.1468,-1.9679,-17.25,4.5625,33.5,37.1875,31.75,-167.5625,0
1776971585.71,10.7955,-0.3926,-0.6249,2.6052,-3.2285,-2.4448,-34.95,9.15,15.75,8.0613,3.1675,-1.8675,0.6944,0.0274,0.9262,-81.75,31.05,-31.2,20.68,5.9,-11.81,1.7737,-2.2318,-2.0431,-17.25,4.5625,33.5,37.1875,31.75,-167.5625,0
1776971585.715,10.7955,-0.3926,-0.6249,2.6052,-3.2285,-2.4448,-32.1,8.4,14.7,8.4013,3.8379,-2.3415,0.7546,-0.2145,0.8998,-81.75,30.6,-29.7,20.68,5.9,-11.81,1.7737,-2.2318,-2.0431,-8.375,2.0,35.5,35.8125,30.0625,-167.875,0
1776971585.72,11.0971,-0.8978,-1.7071,2.4451,-2.9063,-2.2918,-32.1,8.4,14.7,8.4013,3.8379,-2.3415,0.7546,-0.2145,0.8998,-81.75,30.6,-29.7,20.8,5.08,-10.94,1.5697,-2.6104,-2.3027,-8.375,2.0,35.5,35.8125,30.0625,-167.875,0
1776971585.725,11.0971,-0.8978,-1.7071,2.4451,-2.9063,-2.2918,-31.65,8.7,13.65,8.8729,5.1451,-2.4014,0.822,-0.4317,0.8351,-82.2,28.35,-32.4,20.8,5.08,-10.94,1.5697,-2.6104,-2.3027,-8.375,2.0,35.5,34.3125,28.125,-167.875,0
1776971585.73,11.248,0.2322,-0.0694,2.3497,-2.387,-2.0598,-31.65,8.7,13.65,8.8729,5.1451,-2.4014,0.822,-0.4317,0.8351,-82.2,28.35,-32.4,19.6,3.91,-9.4,1.1486,-3.0161,-2.6344,-8.375,2.0,35.5,34.3125,28.125,-167.875,0
1776971585.735,11.248,0.2322,-0.0694,2.3497,-2.387,-2.0598,-30.15,9.0,12.45,8.3103,6.5314,-2.3104,0.821,-0.5079,0.7163,-82.65,29.25,-30.6,19.6,3.91,-9.4,0.6523,-3.2267,-3.0576,-8.375,2.0,35.5,32.75,26.0,-167.625,0
1776971585.741,10.0509,1.1588,-0.0862,1.9963,-2.444,-1.8796,-30.15,9.0,12.45,8.7293,6.5266,-2.0016,0.821,-0.5079,0.7163,-82.65,29.25,-30.6,14.07,-0.29,-4.86,0.6523,-3.2267,-3.0576,-8.375,2.0,35.5,31.0,23.9375,-166.9375,0
1776971585.75,8.4994,-0.0766,-2.5331,1.5537,-2.0411,-1.7155,-30.15,9.0,12.45,9.2033,7.1012,-1.494,0.8284,-0.5806,0.5628,-82.65,29.25,-30.6,12.1,-0.29,-2.52,0.1025,-3.0729,-3.4056,-8.375,2.0,35.5,29.3125,22.125,-166.1875,0
1776971585.76,7.7309,0.9816,-3.0765,1.0893,-1.6214,-1.4943,-30.15,9.0,12.45,8.7771,7.6926,-0.9577,0.7386,-0.4772,0.4338,-83.4,28.5,-29.85,11.79,0.01,-1.12,-0.2378,-2.5187,-3.4558,-8.375,2.0,35.5,29.3125,22.125,-166.1875,0
1776971585.765,7.1491,0.5195,-1.7502,0.9659,-1.4765,-1.4101,-28.65,9.3,10.2,8.7771,7.6926,-0.9577,0.5822,-0.3757,0.3056,-83.4,28.5,-29.85,11.79,0.01,-1.12,-0.2378,-2.5187,-3.4558,-4.6875,1.5625,35.1875,27.6875,20.625,-165.5,0
1776971585.77,7.1491,0.5195,-1.7502,0.9659,-1.4765,-1.4101,-28.5,9.9,10.5,8.7364,7.8578,-0.2586,0.3283,-0.0954,0.1716,-83.4,28.5,-29.85,11.31,-0.79,1.44,-0.1974,-1.922,-3.1787,-4.6875,1.5625,35.1875,27.6875,20.625,-165.5,0
1776971585.775,7.5393,0.3735,-1.1827,0.1833,-1.1173,-1.1205,-28.5,9.9,10.5,8.7364,7.8578,-0.2586,0.3283,-0.0954,0.1716,-82.35,28.95,-31.05,11.31,-0.79,1.44,-0.1974,-1.922,-3.1787,-4.6875,1.5625,35.1875,26.25,19.5,-165.0625,0
1776971585.78,7.5393,0.3735,-1.1827,0.1833,-1.1173,-1.1205,-27.6,10.8,9.6,8.5042,7.8075,0.0575,0.1812,0.0501,0.0799,-82.35,28.95,-31.05,11.04,-2.4,2.34,0.0098,-1.417,-2.7293,-4.6875,1.5625,35.1875,25.0,18.625,-164.6875,0
1776971585.79,5.466,1.731,-3.814,-0.4847,-1.1151,-0.8727,-26.4,10.05,8.55,8.0876,7.9511,-0.1484,0.1487,0.2076,0.0349,-82.35,28.05,-30.3,10.41,-3.79,3.28,0.06,-0.9905,-2.3278,-4.6875,1.5625,35.1875,25.0,18.625,-164.6875,0
1776971585.8,5.6455,1.7286,-3.2848,-0.8623,-0.7602,-0.4876,-26.4,10.05,8.55,7.9942,7.9368,-0.6393,0.2065,0.2763,-0.0256,-82.2,27.45,-29.7,10.31,-4.65,4.37,-0.0654,-0.5291,-2.0115,-4.6875,1.5625,35.1875,23.9375,18.0625,-164.3125,0
1776971585.81,4.9033,2.4852,-3.0191,-0.9198,-0.453,-0.1154,-26.4,10.05,8.55,7.9033,8.1379,-1.0439,0.1668,0.218,-0.1236,-83.1,27.0,-29.55,11.77,-4.58,5.94,-0.2803,-0.024,-1.7322,-4.6875,1.5625,35.1875,23.0,17.75,-163.875,0
1776971585.814,3.0574,4.4987,-3.6583,-0.7013,0.0861,0.1029,-26.4,10.05,8.55,7.9033,8.1379,-1.0439,0.1668,0.218,-0.1236,-81.3,27.45,-30.15,11.77,-4.58,5.94,-0.2803,-0.024,-1.7322,-4.6875,1.5625,35.1875,23.0,17.75,-163.875,0
1776971585.82,3.0574,4.4987,-3.6583,-0.7013,0.0861,0.1029,-26.4,10.8,7.05,7.4962,7.6279,-1.0846,0.0839,0.2041,-0.1969,-81.3,27.45,-30.15,12.13,-3.92,6.17,-0.5574,0.3862,-1.4803,-0.6875,0.0625,36.75,22.25,17.75,-163.3125,0
1776971585.824,4.4269,3.8954,-1.403,-0.0957,0.4948,0.1386,-26.4,10.8,7.05,7.4962,7.6279,-1.0846,0.0839,0.2041,-0.1969,-83.1,25.35,-29.85,12.13,-3.92,6.17,-0.5574,0.3862,-1.4803,-0.6875,0.0625,36.75,22.25,17.75,-163.3125,0
1776971585.83,4.4269,3.8954,-1.403,-0.0957,0.4948,0.1386,-26.85,10.5,7.35,7.5274,6.4715,-1.008,0.04,0.3126,-0.2068,-83.1,25.35,-29.85,11.63,-2.81,5.51,-0.6959,0.684,-1.2119,-0.6875,0.0625,36.75,21.5625,17.9375,-162.6875,0
1776971585.834,6.5745,3.1939,-0.5531,0.4596,0.8487,0.1921,-26.85,10.5,7.35,7.5274,6.4715,-1.008,0.04,0.3126,-0.2068,-83.1,25.35,-29.85,11.63,-2.81,5.51,-0.5236,0.9796,-0.9087,-0.6875,0.0625,36.75,21.0,18.3125,-162.125,0
1776971585.84,6.5745,3.1939,-0.5531,0.4596,0.8487,0.1921,-26.7,12.45,8.7,7.7907,4.9225,-1.3216,0.0322,0.4796,-0.1998,-83.1,25.35,-29.85,10.08,-0.55,3.04,-0.5236,0.9796,-0.9087,-0.6875,0.0625,36.75,20.625,18.8125,-161.9375,0
1776971585.85,7.3885,2.7749,-0.2993,0.4975,1.162,0.2393,-26.1,10.8,9.6,7.7141,4.2952,-1.6735,-0.0293,0.5388,-0.1383,-83.25,25.95,-29.4,9.93,0.33,1.51,-0.1462,1.2119,-0.5389,-0.6875,0.0625,36.75,20.375,19.5,-161.9375,0
1776971585.86,7.9296,2.0423,0.419,0.636,1.4008,0.2848,-26.1,10.8,9.6,7.6255,3.9313,-1.3048,-0.1087,0.6976,-0.0282,-84.15,28.5,-30.3,10.69,0.95,-0.54,0.2531,1.3395,-0.1549,-0.6875,0.0625,36.75,20.375,19.5,-161.9375,0
1776971585.865,7.367,1.063,0.893,0.7386,1.8157,0.3325,-26.1,10.8,9.6,7.7021,3.6727,-0.8835,-0.1087,0.6976,-0.0282,-84.45,28.35,-30.15,10.69,0.95,-0.54,0.2531,1.3395,-0.1549,-0.6875,0.0625,36.75,20.375,19.5,-161.9375,0
1776971585.87,7.367,1.063,0.893,0.7386,1.8157,0.3325,-28.5,9.9,9.75,7.7021,3.6727,-0.8835,-0.0016,0.8066,0.1212,-84.45,28.35,-30.15,10.85,1.27,-3.16,0.4658,1.4312,0.1189,-0.6875,0.5,37.1875,20.3125,20.3125,-162.125,0
1776971585.875,8.3773,0.5722,0.7614,0.9606,2.1338,0.4133,-28.5,9.9,9.75,7.3957,4.0247,-0.6416,-0.0016,0.8066,0.1212,-84.45,28.35,-30.15,10.85,1.27,-3.16,0.4658,1.4312,0.1189,-0.6875,0.5,37.1875,20.3125,20.3125,-162.125,0
1776971585.88,8.3773,0.5722,0.7614,0.9606,2.1338,0.4133,-27.6,9.0,10.65,7.3957,4.0247,-0.6416,0.1655,0.9206,0.3094,-83.4,27.3,-29.55,10.07,1.35,-3.46,0.4625,1.4552,0.2411,-0.6875,0.5,37.1875,20.25,21.125,-162.375,0
1776971585.89,8.4013,-0.0766,1.1684,1.0206,2.3017,0.4239,-31.05,10.2,11.85,7.0533,3.948,-0.4477,0.2811,1.004,0.5095,-83.1,27.75,-30.3,9.22,1.69,-3.53,0.3087,1.4334,0.2651,-0.6875,0.5,37.1875,20.25,21.875,-162.5,0
1776971585.9,8.5281,-0.5531,1.1349,0.9427,2.469,0.4197,-31.2,9.0,13.05,7.3933,3.2681,-0.4573,0.3957,1.092,0.7048,-84.6,28.05,-29.25,8.83,2.11,-3.59,0.0644,1.5217,0.1942,-0.6875,0.5,37.1875,20.25,22.75,-162.4375,0
1776971585.909,10.3813,2.8443,-1.5083,0.0538,2.5642,0.396,-30.45,8.55,14.25,8.2265,2.3511,-0.1867,0.659,1.1325,0.9569,-84.6,28.05,-29.25,4.14,18.36,-24.0,0.3262,1.1476,0.3403,-0.6875,0.5,37.1875,20.3125,23.375,-162.625,0
1776971585.914,12.6749,2.0758,-3.7373,-0.5609,2.2982,0.1692,-30.45,8.55,14.25,9.402,1.4916,-0.0527,0.9332,0.9851,1.2004,-84.6,28.05,-29.25,4.14,18.36,-24.0,0.3262,1.1476,0.3403,-0.6875,0.5,37.1875,20.3125,23.375,-162.625,0
1776971585.919,12.6749,2.0758,-3.7373,-0.5609,2.2982,0.1692,-30.45,8.55,14.25,9.402,1.4916,-0.0527,0.9332,0.9851,1.2004,-84.6,26.1,-29.25,-5.61,4.4,-6.65,1.6308,1.8031,0.3949,-1.5,1.5625,34.875,20.1875,24.4375,-163.5,0
1776971585.924,13.1035,3.1987,-4.1994,-0.733,1.3387,-0.1969,-30.45,8.55,14.25,10.3286,0.4357,0.7781,1.0746,0.7522,1.4184,-84.6,26.1,-29.25,-5.61,4.4,-6.65,1.6308,1.8031,0.3949,-1.5,1.5625,34.875,20.1875,24.4375,-163.5,0
1776971585.929,13.1035,3.1987,-4.1994,-0.733,1.3387,-0.1969,-30.6,9.9,13.95,10.3286,0.4357,0.7781,1.0746,0.7522,1.4184,-84.6,26.1,-29.25,5.68,10.78,-16.2,1.1912,2.7882,0.0654,-1.5,1.5625,34.875,19.875,25.9375,-164.0,0
1776971585.933,12.6581,2.7509,-9.5146,-0.6603,0.9467,-0.2419,-30.6,9.9,13.95,11.5903,-0.0287,0.3304,1.1642,0.5185,1.6105,-84.6,26.1,-29.25,5.68,10.78,-16.2,1.1912,2.7882,0.0654,-1.5,1.5625,34.875,19.625,27.25,-164.25,0
1776971585.941,14.3676,-4.4724,-11.0181,0.8404,0.323,-0.3834,-30.6,10.65,15.45,11.5903,-0.0287,0.3304,1.1642,0.5185,1.6105,-86.25,24.45,-28.95,-3.71,-12.07,-4.94,0.7952,2.4696,0.1462,-1.5,1.5625,34.875,19.125,28.5,-164.375,0
1776971585.95,15.9933,-7.1443,-7.3574,1.0493,0.1255,-0.1919,-31.35,9.45,14.7,14.3245,0.2777,-0.8475,1.3619,0.1537,1.7253,-85.8,23.4,-27.0,2.12,-4.04,-10.01,0.7494,2.4293,-0.4941,-1.5,1.5625,34.875,19.125,28.5,-164.375,0
1776971585.96,16.9893,-3.5458,0.9481,0.8471,0.5937,-0.1511,-31.35,9.9,13.95,16.6373,1.573,-3.4692,1.6691,0.1207,1.7608,-86.85,22.65,-27.75,7.59,-4.88,-13.2,0.4985,3.5747,-0.8868,-1.5,1.5625,34.875,18.25,30.25,-164.0625,0
1776971585.965,16.9893,-3.5458,0.9481,0.8471,0.5937,-0.1511,-31.35,9.9,13.95,21.4353,3.3686,-4.7692,2.0214,0.5159,1.8055,-86.85,22.65,-27.75,7.59,-4.88,-13.2,0.4985,3.5747,-0.8868,-1.5,1.5625,34.875,18.25,30.25,-164.0625,0
1776971585.97,19.8144,0.0934,5.2026,0.8772,1.2252,-0.1108,-30.45,10.05,15.9,21.4353,3.3686,-4.7692,2.0214,0.5159,1.8055,-86.85,21.45,-29.25,39.37,-6.7,-26.75,0.3643,4.3862,-0.3458,-1.75,3.5,32.5625,17.6875,32.5625,-163.75,0
1776971585.975,19.8144,0.0934,5.2026,0.8772,1.2252,-0.1108,-30.45,10.05,15.9,19.2063,5.0709,-4.0414,1.8698,0.9081,1.5063,-86.85,21.45,-29.25,39.37,-6.7,-26.75,0.3643,4.3862,-0.3458,-1.75,3.5,32.5625,17.6875,32.5625,-163.75,0
1776971585.98,18.7658,0.2274,3.6248,1.0888,1.63,0.0027,-30.45,10.05,15.9,12.5336,4.4125,-0.2394,1.8698,0.9081,1.5063,-88.35,20.25,-29.55,23.14,4.51,-6.39,0.1953,4.1637,0.3622,-1.75,3.5,32.5625,17.5625,34.8125,-163.5625,0
1776971585.987,14.1809,1.221,0.0958,0.7301,1.8407,0.1937,-32.1,9.45,16.5,12.5336,4.4125,-0.2394,0.623,1.214,0.975,-87.45,20.1,-31.65,6.46,10.34,-1.64,-0.2705,0.7145,0.1985,-1.75,3.5,32.5625,17.6875,35.25,-163.375,0
1776971585.992,14.1809,1.221,0.0958,0.7301,1.8407,0.1937,-32.1,9.45,16.5,7.9966,1.7262,4.8961,-0.3944,1.0227,0.8793,-87.45,20.1,-31.65,6.46,10.34,-1.64,-0.2705,0.7145,0.1985,-1.75,3.5,32.5625,17.8125,35.1875,-163.4375,0
1776971586.0,8.6479,1.2258,0.0742,0.6891,2.0627,0.0866,-32.55,8.25,17.7,5.0996,-2.1859,4.9847,-0.122,0.8026,1.1493,-87.45,20.1,-31.65,7.9,9.87,-9.27,-0.0491,-0.1047,0.1865,-1.75,3.5,32.5625,17.8125,35.3125,-163.375,0
1776971586.01,7.0868,0.6584,0.3926,0.749,1.2071,-0.0317,-32.1,8.4,18.3,5.1547,-4.6735,2.3056,0.8487,0.461,1.4392,-89.7,18.45,-27.15,6.92,-4.92,-10.58,-0.0491,0.2531,0.0076,-1.75,3.5,32.5625,17.8125,35.3125,-163.375,0
1776971586.015,7.0868,0.6584,0.3926,0.749,1.2071,-0.0317,-34.65,8.4,18.3,5.1547,-4.6735,2.3056,0.8487,0.461,1.4392,-89.7,18.45,-27.15,6.92,-4.92,-10.58,-0.0491,0.2531,0.0076,-1.75,3.5,32.5625,17.8125,35.3125,-163.125,0
1776971586.02,4.9584,0.9026,-0.8284,0.9273,0.9062,0.0714,-34.65,6.9,18.6,5.521,-5.5881,0.5148,1.0453,0.2761,1.5785,-89.7,18.45,-27.15,6.1,2.28,-7.99,-0.3491,0.0185,-0.1342,-5.1875,5.875,27.875,17.8125,35.3125,-163.125,0
1776971586.025,4.9584,0.9026,-0.8284,0.9273,0.9062,0.0714,-34.2,9.45,19.65,5.521,-5.5881,0.5148,1.0453,0.2761,1.5785,-89.7,18.45,-27.15,6.1,2.28,-7.99,-0.3491,0.0185,-0.1342,-5.1875,5.875,27.875,17.6875,35.3125,-162.75,0
1776971586.03,6.0741,1.1253,-1.4916,0.1386,1.0168,0.247,-34.2,9.45,19.65,7.0437,-6.4141,-1.4988,0.5396,0.4493,1.7304,-90.6,15.15,-26.55,5.32,5.31,-5.87,-0.5061,0.0731,-0.2694,-5.1875,5.875,27.875,17.6875,35.3125,-162.75,0
1776971586.035,6.0741,1.1253,-1.4916,-0.66,0.9896,0.3102,-34.2,9.45,19.65,7.0437,-6.4141,-1.4988,0.5396,0.4493,1.7304,-90.6,15.15,-26.55,5.32,5.31,-5.87,-0.8127,0.0927,-0.2542,-5.1875,5.875,27.875,17.6875,35.3125,-162.1875,0
1776971586.041,7.5369,3.5769,-4.312,-0.66,0.9896,0.3102,-34.2,9.45,19.65,9.8665,-7.288,-4.6855,-0.2598,0.3667,1.8261,-91.2,15.45,-26.4,5.88,1.9,-7.6,-0.8127,0.0927,-0.2542,-5.1875,5.875,27.875,17.8125,35.1875,-161.625,0
1776971586.05,8.0661,5.0757,-5.9879,-0.8322,0.8226,0.1412,-34.2,9.15,20.4,11.2839,-6.4308,-4.0917,-1.2931,0.0125,1.6984,-91.2,13.8,-26.1,5.11,1.15,-8.09,-0.9359,-0.1473,-0.2029,-5.1875,5.875,27.875,17.8125,35.1875,-161.625,0
1776971586.06,8.2672,5.6958,-5.6719,-0.5929,0.7099,0.0778,-33.75,7.8,18.75,10.3118,-1.9082,-0.6608,-1.8335,-0.0941,1.3254,-92.25,12.9,-26.55,4.29,2.43,-7.27,-0.6196,-0.1374,-0.1287,-5.1875,5.875,27.875,17.8125,35.125,-161.25,0
1776971586.065,8.011,6.2991,-3.0023,-0.4437,0.3778,-0.0152,-34.05,9.0,22.05,10.3118,-1.9082,-0.6608,-1.8335,-0.0941,1.3254,-92.25,12.9,-26.55,4.29,2.43,-7.27,-0.6196,-0.1374,-0.1287,-5.1875,5.875,27.875,17.8125,35.125,-161.25,0
1776971586.07,8.011,6.2991,-3.0023,-0.4437,0.3778,-0.0152,-34.05,9.0,22.05,9.3422,3.3303,4.2353,-2.024,0.0077,0.8903,-92.25,12.9,-26.55,3.45,3.7,-6.57,-0.2356,0.0556,-0.0076,-5.25,5.1875,28.6875,17.875,35.125,-161.125,0
1776971586.075,8.3749,6.0142,-0.9194,-0.2907,0.4767,0.0378,-34.8,8.55,21.0,9.3422,3.3303,4.2353,-2.024,0.0077,0.8903,-92.25,12.9,-26.55,3.45,3.7,-6.57,-0.2356,0.0556,-0.0076,-5.25,5.1875,28.6875,17.875,35.125,-161.125,0
1776971586.08,8.3749,6.0142,-0.9194,-0.2907,0.4767,0.0378,-34.8,8.55,21.0,8.6048,6.7205,9.2751,-1.5593,0.2955,0.562,-92.7,12.6,-26.4,3.93,2.82,-7.06,0.0458,0.2978,0.1527,-5.25,5.1875,28.6875,17.9375,35.3125,-161.125,0
1776971586.087,8.2744,5.8826,0.3089,0.0722,0.6702,0.1372,-35.1,9.0,22.05,8.0565,7.5369,10.7931,-0.4783,0.6051,0.4525,-92.7,12.6,-26.4,5.24,2.3,-7.43,0.2978,0.4691,0.3022,-5.25,5.1875,28.6875,18.0,35.625,-161.375,0
1776971586.092,8.2744,5.8826,0.3089,0.0722,0.6702,0.1372,-35.1,9.0,22.05,8.0565,7.5369,10.7931,-0.4783,0.6051,0.4525,-92.7,12.6,-26.4,5.24,2.3,-7.43,0.2978,0.4691,0.3022,-5.25,5.1875,28.6875,18.125,35.9375,-161.6875,0
