timestamp,thigh_acc_x,thigh_acc_y,thigh_acc_z,thigh_gyro_x,thigh_gyro_y,thigh_gyro_z,thigh_mag_x,thigh_mag_y,thigh_mag_z,shank_acc_x,shank_acc_y,shank_acc_z,shank_gyro_x,shank_gyro_y,shank_gyro_z,shank_mag_x,shank_mag_y,shank_mag_z,foot_acc_x,foot_acc_y,foot_acc_z,foot_gyro_x,foot_gyro_y,foot_gyro_z,foot_mag_x,foot_mag_y,foot_mag_z,foot_euler_x,foot_euler_y,foot_euler_z,perturbation_event
1776973381.643,10.9439,7.8865,0.5746,1.8197,-0.692,-1.1924,-99.15,4.5,35.85,16.6804,1.7549,-3.462,-0.4802,1.2862,2.1706,-78.15,-3.45,22.95,-3.71,-7.39,-11.48,-0.1396,-4.4899,2.4064,27.0625,20.0625,27.5,55.5,-46.9375,164.1875,0
1776973381.652,11.0684,5.9161,-0.6297,2.1346,-0.8356,-1.4597,-99.45,4.05,36.3,14.4969,1.0343,-1.6281,-0.7682,1.421,2.1059,-78.15,-3.45,22.95,-4.9,-7.2,-11.48,-0.3142,-5.2087,2.8874,27.0625,20.0625,27.5,55.5,-46.9375,164.1875,0
1776973381.662,10.3501,3.5506,-2.6408,2.581,-1.0589,-1.5708,-99.15,5.55,35.25,12.7012,1.1779,1.0247,-0.8615,1.5399,2.1154,-78.0,-5.55,25.65,-8.2,-6.21,-12.28,-0.4789,-5.9461,3.3532,27.0625,20.0625,27.5,51.5625,-50.625,165.5625,0
1776973381.667,11.6909,1.0247,-3.6536,2.6753,-1.5415,-1.5852,-98.55,6.9,34.65,12.7012,1.1779,1.0247,-0.8615,1.5399,2.1154,-78.0,-5.55,25.65,-8.2,-6.21,-12.28,-0.4789,-5.9461,3.3532,27.0625,20.0625,27.5,47.8125,-54.5625,167.25,0
1776973381.672,11.6909,1.0247,-3.6536,2.6753,-1.5415,-1.5852,-98.55,6.9,34.65,11.7268,1.0391,2.0734,-0.9422,1.6212,2.1138,-78.0,-5.55,25.65,-13.7,-4.04,-13.56,-0.4309,-6.4534,3.6565,33.25,19.0625,21.6875,47.8125,-54.5625,167.25,0
1776973381.677,12.3948,-0.4022,-2.2649,2.1237,-1.8063,-1.5761,-98.55,6.9,34.65,11.1474,0.4262,3.4644,-0.9422,1.6212,2.1138,-78.0,-5.55,25.65,-13.7,-4.04,-13.56,-0.4309,-6.4534,3.6565,33.25,19.0625,21.6875,47.8125,-54.5625,167.25,0
1776973381.682,12.3948,-0.4022,-2.2649,2.1237,-1.8063,-1.5761,-98.55,6.9,34.65,11.1474,0.4262,3.4644,-0.7733,1.5924,2.044,-77.55,-9.15,26.4,-13.41,-3.94,-12.95,-0.1516,-6.6999,3.663,33.25,19.0625,21.6875,44.75,-58.625,169.25,0
1776973381.688,12.6893,-1.6065,-0.3472,1.4256,-1.8911,-1.6499,-98.55,9.45,31.5,10.6398,-0.3567,6.1316,-0.5401,1.4997,1.9638,-77.55,-9.15,26.4,-14.42,-4.46,-12.77,0.18,-6.7501,3.5081,33.25,19.0625,21.6875,42.375,-62.625,171.4375,0
1776973381.693,12.6893,-1.6065,-0.3472,1.4256,-1.8911,-1.6499,-98.55,9.45,31.5,10.6398,-0.3567,6.1316,-0.5401,1.4997,1.9638,-75.3,-9.15,27.15,-14.42,-4.46,-12.77,0.18,-6.7501,3.5081,33.25,19.0625,21.6875,40.8125,-66.5625,173.75,0
1776973381.702,12.6198,-2.6528,1.415,0.7719,-1.9164,-1.7168,-97.95,11.55,30.15,10.3166,-1.1085,5.3846,-0.3517,1.4504,1.9015,-73.95,-11.25,28.05,-15.56,-4.08,-14.59,0.6338,-6.665,3.159,33.25,19.0625,21.6875,40.8125,-66.5625,173.75,0
1776973381.712,12.9167,-2.8371,3.4596,0.1996,-1.8999,-1.8221,-96.9,10.8,28.8,10.1825,-2.411,3.9145,-0.166,1.3904,1.8175,-73.95,-11.7,28.05,-7.29,-6.72,-12.86,1.0614,-6.0999,2.8732,33.25,19.0625,21.6875,39.875,-70.0625,176.4375,0
1776973381.717,12.3565,-3.3016,4.7692,-0.5566,-1.7661,-1.9388,-97.05,11.4,28.2,9.7707,-5.1236,3.213,0.1655,1.3928,1.6691,-73.95,-11.7,28.05,-7.29,-6.72,-12.86,1.0614,-6.0999,2.8732,33.25,19.0625,21.6875,38.9375,-73.125,-179.5,0
1776973381.722,12.3565,-3.3016,4.7692,-0.5566,-1.7661,-1.9388,-97.05,11.4,28.2,9.7707,-5.1236,3.213,0.1655,1.3928,1.6691,-73.35,-12.6,29.4,-4.52,-6.14,-11.98,0.9218,-5.5065,2.8722,43.0,13.875,9.875,38.9375,-73.125,-179.5,0
1776973381.727,11.7196,-3.4022,5.4755,-1.0696,-1.5226,-1.9542,-97.05,11.4,28.2,9.754,-7.8554,4.7118,0.7871,1.3432,1.3448,-73.35,-12.6,29.4,-4.52,-6.14,-11.98,0.9218,-5.5065,2.8722,43.0,13.875,9.875,37.8125,-75.875,-173.125,0
1776973381.732,11.7196,-3.4022,5.4755,-1.0696,-1.5226,-1.9542,-97.05,11.4,28.2,9.754,-7.8554,4.7118,0.7871,1.3432,1.3448,-74.1,-12.3,29.7,-2.77,-7.32,-10.89,0.661,-5.1585,3.0216,43.0,13.875,9.875,37.8125,-75.875,-173.125,0
1776973381.737,12.1434,-3.7517,4.6759,-1.1229,-1.1301,-1.8359,-95.85,13.05,27.75,8.418,-7.4939,5.5881,1.6606,1.2268,0.915,-74.1,-12.3,29.7,-2.77,-7.32,-10.89,0.3458,-4.9611,3.1678,43.0,13.875,9.875,36.4375,-78.25,-163.375,0
1776973381.743,12.0835,-3.1651,2.8467,-0.7485,-1.0427,-1.7245,-95.85,13.05,27.75,8.418,-7.4939,5.5881,1.6606,1.2268,0.915,-74.1,-12.3,29.7,-0.91,-3.13,-7.79,0.3458,-4.9611,3.1678,43.0,13.875,9.875,34.875,-80.0625,-149.1875,0
1776973381.752,12.0835,-3.1651,2.8467,-0.4578,-1.1663,-1.7126,-95.4,13.5,27.0,7.106,-6.4955,6.0118,1.6864,0.7791,0.814,-72.45,-11.25,31.05,-22.91,-4.83,-7.53,-0.1254,-4.9349,3.1198,43.0,13.875,9.875,34.875,-80.0625,-149.1875,0
1776973381.762,11.0852,-1.6951,1.0678,-0.652,-1.1386,-1.7211,-94.35,15.3,27.75,5.8658,-6.5457,7.5082,1.3672,0.6155,0.9377,-73.35,-11.1,32.4,-14.97,-9.91,-11.13,0.2749,-3.0849,2.1806,43.0,13.875,9.875,34.0625,-80.6875,-137.5625,0
1776973381.767,11.0852,-1.6951,1.0678,-0.652,-1.1386,-1.7211,-93.9,15.45,26.1,4.3407,-5.7868,8.5665,1.6393,0.6451,0.7997,-73.35,-11.1,32.4,-14.97,-9.91,-11.13,0.2749,-3.0849,2.1806,43.0,13.875,9.875,34.0625,-80.6875,-137.5625,0
1776973381.772,11.2863,-1.1013,1.3527,-0.8348,-1.0917,-1.7056,-93.9,15.45,26.1,4.3407,-5.7868,8.5665,1.6393,0.6451,0.7997,-73.05,-10.65,32.7,-8.54,-11.68,-13.69,0.5705,-0.1178,0.7898,48.5625,8.5,-3.1875,34.0,-80.4375,-135.6875,0
1776973381.777,11.2863,-1.1013,1.3527,-0.8348,-1.0917,-1.7056,-93.15,15.15,26.85,4.853,-3.711,7.1204,1.2367,0.158,0.3315,-73.05,-10.65,32.7,-8.54,-11.68,-13.69,0.5705,-0.1178,0.7898,48.5625,8.5,-3.1875,34.0,-80.4375,-135.6875,0
1776973381.782,11.0038,-0.3543,1.561,-0.7021,-1.1919,-1.6928,-93.15,15.15,26.85,4.853,-3.711,7.1204,1.2367,0.158,0.3315,-73.2,-10.95,32.85,-2.07,-12.11,-8.3,0.0491,1.5424,-0.1996,48.5625,8.5,-3.1875,34.0,-79.9375,-139.5,0
1776973381.79,11.0038,-0.3543,1.561,-0.7021,-1.1919,-1.6928,-93.15,15.15,26.85,5.5019,-2.1093,5.0661,0.0171,-0.2723,-0.2457,-73.2,-10.95,32.85,1.29,-9.0,-5.87,-0.8847,2.2918,-0.5269,48.5625,8.5,-3.1875,33.5625,-79.0625,-144.5,0
1776973381.795,10.5584,0.7901,1.9082,-0.5121,-1.2969,-1.7155,-94.05,17.25,26.7,5.0805,-2.2984,3.8116,-0.6899,-0.5963,-0.6987,-72.3,-11.1,34.2,1.29,-9.0,-5.87,-0.8847,2.2918,-0.5269,48.5625,8.5,-3.1875,32.6875,-78.125,-148.625,0
1776973381.803,10.0054,1.5706,2.1165,-0.3829,-1.2268,-1.7296,-94.05,17.25,26.7,4.7022,-3.2681,3.7182,-0.5111,-0.7874,-0.9785,-73.05,-9.15,30.9,1.78,-5.3,-4.82,-1.6046,2.4511,-0.5705,48.5625,8.5,-3.1875,31.75,-77.125,-152.375,0
1776973381.812,9.9096,2.0614,2.7294,-0.2457,-0.984,-1.7648,-95.4,18.3,27.75,4.4125,-3.7541,4.0749,-0.0568,-0.934,-1.246,-73.05,-9.15,30.9,1.15,-1.53,-4.36,-1.6919,2.4347,-0.733,48.5625,8.5,-3.1875,31.75,-77.125,-152.375,0
1776973381.817,9.9096,2.0614,2.7294,-0.2457,-0.984,-1.7648,-93.9,19.65,28.2,4.4125,-3.7541,4.0749,-0.0568,-0.934,-1.246,-73.05,-9.15,30.9,1.15,-1.53,-4.36,-1.6919,2.4347,-0.733,52.875,6.5,-4.6875,31.3125,-76.1875,-156.375,0
1776973381.822,9.9407,2.3367,2.8754,-0.0655,-0.6726,-1.8093,-93.9,19.65,28.2,3.8499,-3.9816,3.0478,0.3224,-1.1037,-1.4901,-74.1,-7.95,30.9,1.11,-1.55,-4.06,-1.2937,2.4675,-1.0483,52.875,6.5,-4.6875,31.3125,-76.1875,-156.375,0
1776973381.827,9.9407,2.3367,2.8754,-0.0655,-0.6726,-1.8093,-96.15,22.5,27.0,3.8499,-3.9816,3.0478,0.3224,-1.1037,-1.4901,-74.1,-7.95,30.9,1.11,-1.55,-4.06,-1.2937,2.4675,-1.0483,52.875,6.5,-4.6875,31.375,-75.125,-160.75,0
1776973381.832,9.6822,2.3918,2.0734,0.2132,-0.4327,-1.8487,-96.15,22.5,27.0,3.5458,-4.7549,3.043,0.6209,-1.1676,-1.7469,-74.1,-7.95,30.9,0.95,-2.3,-3.75,-0.7647,2.4991,-1.4083,52.875,6.5,-4.6875,31.375,-75.125,-160.75,0
1776973381.837,9.6822,2.3918,2.0734,0.2132,-0.4327,-1.8487,-96.15,22.5,27.0,3.5458,-4.7549,3.043,0.6209,-1.1676,-1.7469,-74.1,-7.95,30.9,0.95,-2.3,-3.75,-0.3545,2.5362,-1.729,52.875,6.5,-4.6875,31.9375,-74.0625,-165.4375,0
1776973381.843,9.5648,2.1189,1.1588,0.2531,-0.5958,-1.8255,-96.15,22.5,27.0,3.6033,-3.5314,4.0749,0.7703,-1.4053,-1.9036,-75.45,-6.6,29.85,-0.26,-3.31,-3.84,-0.3545,2.5362,-1.729,52.875,6.5,-4.6875,32.8125,-72.9375,-170.0,0
1776973381.852,10.0628,0.3615,-0.4932,0.3933,-0.3906,-1.7968,-96.45,24.9,29.25,3.7038,-3.0095,2.5091,0.5252,-1.5359,-2.0054,-77.25,-5.55,30.45,-1.22,-2.93,-4.2,-0.1276,2.5951,-1.9886,52.875,6.5,-4.6875,32.8125,-72.9375,-170.0,0
1776973381.862,8.679,0.7853,-0.1341,-0.3672,-0.6307,-1.675,-95.4,26.55,30.9,4.0917,-3.2154,2.5953,0.5913,-1.5724,-2.1109,-78.3,-4.05,29.7,-2.15,-2.31,-4.7,0.0273,2.7118,-2.2013,52.875,6.5,-4.6875,34.0,-71.5625,-174.4375,0
1776973381.867,8.679,0.7853,-0.1341,-0.3672,-0.6307,-1.675,-97.8,27.9,31.8,4.0917,-3.2154,2.5953,0.5913,-1.5724,-2.1109,-78.3,-4.05,29.7,-2.15,-2.31,-4.7,0.0273,2.7118,-2.2013,52.875,6.5,-4.6875,34.0,-71.5625,-174.4375,0
1776973381.872,8.3725,1.7549,2.5187,0.6089,-0.4205,-1.5505,-97.8,27.9,31.8,4.7094,-3.6727,3.4285,0.926,-1.7392,-2.31,-79.05,-4.05,29.7,-2.79,-1.94,-5.09,0.204,2.8722,-2.402,55.5625,11.0625,3.875,35.4375,-70.0625,-178.6875,0
1776973381.877,8.3725,1.7549,2.5187,0.6089,-0.4205,-1.5505,-97.65,29.55,31.95,4.7094,-3.6727,3.4285,0.926,-1.7392,-2.31,-79.05,-3.3,29.4,-2.79,-1.94,-5.09,0.204,2.8722,-2.402,55.5625,11.0625,3.875,35.4375,-70.0625,-178.6875,0
1776973381.882,8.157,2.32,2.7342,1.1085,-0.5878,-1.3779,-97.65,29.55,31.95,4.7669,-3.7158,3.9121,1.0573,-1.934,-2.5101,-80.1,-1.5,29.85,-3.1,-2.1,-5.76,0.3665,3.0227,-2.522,55.5625,11.0625,3.875,37.125,-68.375,177.4375,0
1776973381.89,7.6399,3.0335,2.7725,1.3694,-0.6654,-1.2918,-97.05,30.9,30.75,5.0326,-4.5059,3.5554,0.9963,-2.0739,-2.6838,-80.1,-1.5,29.85,-3.79,-2.21,-6.42,0.4494,3.1678,-2.5187,55.5625,11.0625,3.875,39.0,-66.5,174.125,0
1776973381.895,7.6399,3.0335,2.7725,1.3694,-0.6654,-1.2918,-97.05,30.9,30.75,5.0326,-4.5059,3.5554,0.9963,-2.0739,-2.6838,-81.9,-0.3,27.3,-3.79,-2.21,-6.42,0.4494,3.1678,-2.5187,55.5625,11.0625,3.875,40.9375,-64.5,171.375,0
1776973381.903,7.1994,2.308,2.0518,1.522,-0.4706,-1.2148,-97.35,31.05,28.8,5.5091,-5.1787,4.1348,1.0909,-2.1543,-2.7848,-81.9,-0.3,27.3,-4.8,-2.29,-7.16,0.456,3.3499,-2.4675,55.5625,11.0625,3.875,42.875,-62.3125,169.1875,0
1776973381.913,7.1108,1.7526,1.1157,1.5252,-0.4207,-1.0656,-97.95,31.5,29.85,6.0932,-5.1523,4.1396,0.9982,-2.2878,-2.8538,-82.65,1.95,25.5,-5.98,-2.27,-8.11,0.4254,3.6205,-2.4129,55.5625,11.0625,3.875,42.875,-62.3125,169.1875,0
1776973381.918,6.8738,1.2019,0.8882,1.5354,-0.3904,-0.8929,-97.95,31.5,29.85,6.3255,-5.1691,3.7254,0.9982,-2.2878,-2.8538,-82.65,1.95,25.5,-5.98,-2.27,-8.11,0.4254,3.6205,-2.4129,55.5625,11.0625,3.875,42.875,-62.3125,169.1875,0
1776973381.923,6.8738,1.2019,0.8882,1.5354,-0.3904,-0.8929,-96.75,31.65,28.95,6.3255,-5.1691,3.7254,0.7226,-2.4269,-2.9665,-82.65,1.95,25.5,-6.07,-1.83,-8.24,0.3731,3.9739,-2.3551,56.0,19.25,13.875,44.9375,-59.875,167.4375,0
1776973381.927,6.7014,0.4932,0.8691,1.5559,-0.3808,-0.7064,-96.75,31.65,28.95,6.608,-5.2361,3.3016,0.4863,-2.5748,-3.0798,-83.85,4.95,25.5,-6.07,-1.83,-8.24,0.3731,3.9739,-2.3551,56.0,19.25,13.875,44.9375,-59.875,167.4375,0
1776973381.933,6.7014,0.4932,0.8691,1.5559,-0.3808,-0.7064,-96.45,31.95,27.9,6.608,-5.2361,3.3016,0.4863,-2.5748,-3.0798,-84.0,7.2,23.85,-6.05,-1.35,-8.27,0.3512,4.3142,-2.2798,56.0,19.25,13.875,47.125,-57.25,166.125,0
1776973381.937,6.4021,-0.2203,0.8835,1.8032,-0.1364,-0.559,-96.45,31.95,27.9,6.9623,-5.0805,3.158,0.291,-2.6795,-3.1946,-84.0,7.2,23.85,-6.05,-1.35,-8.27,0.4222,4.5684,-2.2057,56.0,19.25,13.875,49.5625,-54.5,165.0625,0
1776973381.943,6.4021,-0.2203,0.8835,1.8032,-0.1364,-0.559,-96.45,31.95,27.9,6.9623,-5.0805,3.158,0.291,-2.6795,-3.1946,-84.6,7.8,23.25,-5.84,-1.03,-8.13,0.4222,4.5684,-2.2057,56.0,19.25,13.875,52.3125,-51.6875,164.1875,0
1776973381.953,6.5218,-0.9984,0.8452,1.4725,-0.1974,-0.4034,-97.5,34.95,26.1,7.6471,-4.7118,3.067,0.1228,-2.7853,-3.2897,-85.5,8.7,20.55,-5.74,-1.23,-8.1,0.5738,4.7168,-2.1348,56.0,19.25,13.875,52.3125,-51.6875,164.1875,0
1776973381.963,6.4093,-1.2737,0.4046,1.6577,-0.0184,-0.3219,-95.85,33.0,25.2,8.0996,-4.2449,2.8826,-0.0091,-2.8983,-3.3726,-85.5,8.7,20.55,-5.7,-1.59,-8.06,0.7538,4.732,-2.0846,56.0,19.25,13.875,55.5625,-48.8125,163.3125,0
1776973381.967,6.936,-1.324,0.1724,1.2441,0.0903,-0.2491,-95.85,33.0,25.2,8.3653,-3.984,3.2825,-0.0168,-3.0297,-3.4707,-84.6,10.95,20.25,-5.7,-1.59,-8.06,0.7538,4.732,-2.0846,56.0,19.25,13.875,59.1875,-46.0625,162.4375,0
1776973381.972,6.936,-1.324,0.1724,1.2441,0.0903,-0.2491,-97.5,34.95,26.85,8.3653,-3.984,3.2825,-0.0168,-3.0297,-3.4707,-84.6,10.95,20.25,-5.73,-2.06,-8.09,0.9087,4.6142,-2.0497,46.5,30.25,25.25,59.1875,-46.0625,162.4375,0
1776973381.977,7.185,-1.7047,0.0024,1.1564,0.0482,-0.1887,-97.5,34.95,26.85,8.6981,-3.9887,3.1532,-0.0474,-3.103,-3.5386,-84.6,10.95,20.25,-5.73,-2.06,-8.09,0.9087,4.6142,-2.0497,46.5,30.25,25.25,63.125,-43.375,161.5625,0
1776973381.982,7.185,-1.7047,0.0024,1.1564,0.0482,-0.1887,-96.45,33.15,25.8,8.6981,-3.9887,3.1532,-0.0474,-3.103,-3.5386,-84.6,10.95,20.25,-6.05,-2.6,-8.59,1.0036,4.3753,-2.0017,46.5,30.25,25.25,63.125,-43.375,161.5625,0
1776973381.988,7.367,-1.7214,-0.2346,1.0008,0.0195,-0.1223,-96.45,33.15,25.8,9.335,-4.0486,2.9042,-0.1399,-3.1205,-3.5741,-87.3,15.15,16.2,-6.05,-2.6,-8.59,1.0559,4.0601,-1.9177,46.5,30.25,25.25,25.75,-40.9375,160.75,0
1776973381.994,7.367,-1.7214,-0.2346,1.0008,0.0195,-0.1223,-97.35,34.8,25.95,9.9048,-4.1539,3.2513,-0.1399,-3.1205,-3.5741,-87.3,15.15,16.2,-6.55,-2.81,-9.23,1.0559,4.0601,-1.9177,46.5,30.25,25.25,25.25,-38.625,159.875,0
1776973382.003,7.1802,-1.9489,-0.2682,0.6699,-0.0538,-0.0781,-97.35,34.8,25.95,9.9048,-4.1539,3.2513,-0.2678,-3.0894,-3.6252,-87.3,15.15,16.2,-7.62,-2.97,-10.2,1.165,3.7219,-1.8108,46.5,30.25,25.25,24.875,-36.5,158.9375,0
1776973382.013,6.7253,-2.15,-0.17,0.3752,-0.0485,-0.0538,-96.6,33.0,24.45,10.1466,-4.1276,4.2641,-0.3664,-3.096,-3.6647,-87.45,18.15,14.55,-11.47,-3.76,-12.87,1.3832,3.4852,-1.7421,46.5,30.25,25.25,24.875,-36.5,158.9375,0
1776973382.018,6.4236,-2.4636,-0.1676,0.0056,0.0834,-0.0248,-96.6,33.0,24.45,10.1466,-4.1276,4.2641,-0.462,-3.0377,-3.6966,-86.85,19.5,13.2,-11.47,-3.76,-12.87,1.3832,3.4852,-1.7421,46.5,30.25,25.25,24.5625,-34.375,157.875,0
1776973382.023,6.4236,-2.4636,-0.1676,0.0056,0.0834,-0.0248,-97.05,36.15,25.05,10.7141,-3.8164,4.4915,-0.462,-3.0377,-3.6966,-86.85,19.5,13.2,-12.73,-4.73,-13.62,1.6908,3.4699,-1.753,31.1875,37.5,29.5,24.5625,-34.375,157.875,0
1776973382.028,6.5027,-2.3415,0.0048,-0.2944,0.2038,0.0594,-97.05,36.15,25.05,10.7141,-3.8164,4.4915,-0.5143,-2.9271,-3.7158,-87.45,20.85,11.25,-12.73,-4.73,-13.62,1.6908,3.4699,-1.753,31.1875,37.5,29.5,24.5625,-34.375,157.875,0
1776973382.033,6.8833,-2.0207,0.1413,-0.6283,0.2782,0.1807,-97.65,33.3,24.45,11.3844,-3.2777,3.9361,-0.5143,-2.9271,-3.7158,-87.45,20.85,11.25,-12.96,-5.76,-13.75,1.9068,3.7263,-1.8119,31.1875,37.5,29.5,24.25,-32.0625,156.6875,0
1776973382.039,6.8833,-2.0207,0.1413,-0.6283,0.2782,0.1807,-97.65,33.3,24.45,11.3844,-3.2777,3.9361,-0.5628,-2.8434,-3.723,-88.35,22.95,10.35,-12.29,-6.11,-13.3,1.9133,4.0688,-1.8108,31.1875,37.5,29.5,24.0,-29.5625,155.625,0
1776973382.044,7.2281,-1.154,0.3783,-0.9758,0.3062,0.3187,-96.0,33.45,25.05,11.8393,-3.0047,3.3998,-0.5505,-2.8256,-3.7305,-86.25,24.0,9.3,-12.29,-6.11,-13.3,1.9133,4.0688,-1.8108,31.1875,37.5,29.5,23.8125,-27.0,154.75,0
1776973382.053,7.276,-0.4262,0.3017,-1.3702,0.3043,0.4346,-96.0,33.45,25.05,12.0764,-2.7461,3.4668,-0.6179,-2.8266,-3.7086,-86.25,24.0,9.3,-12.35,-5.36,-13.14,1.765,4.2979,-1.7104,31.1875,37.5,29.5,23.625,-24.4375,153.9375,0
1776973382.063,9.979,0.7039,0.2131,-1.53,0.4064,0.5305,-96.15,33.75,25.65,11.9686,-2.8898,3.6416,-0.8921,-2.7995,-3.6319,-86.25,28.35,8.25,-12.62,-4.57,-13.04,1.6428,4.3819,-1.5817,31.1875,37.5,29.5,23.625,-24.4375,153.9375,0
1776973382.068,9.979,0.7039,0.2131,-1.53,0.4064,0.5305,-96.15,33.75,25.65,11.9686,-2.8898,3.6416,-0.8921,-2.7995,-3.6319,-86.25,28.35,8.25,-12.62,-4.57,-13.04,1.6428,4.3819,-1.5817,31.1875,37.5,29.5,23.625,-24.4375,153.9375,0
1776973382.073,9.232,1.6855,-0.498,-1.7989,0.0882,0.5862,-96.6,33.75,25.95,11.4682,-2.9257,3.6033,-1.3262,-2.739,-3.5077,-86.25,28.35,8.25,-13.03,-3.98,-12.82,1.6537,4.3753,-1.5097,20.0625,37.5,28.0,23.5625,-21.9375,153.1875,0
1776973382.078,9.232,1.6855,-0.498,-1.7989,0.0882,0.5862,-96.6,33.75,25.95,11.4682,-2.9257,3.6033,-1.3262,-2.739,-3.5077,-84.15,29.7,4.8,-13.03,-3.98,-12.82,1.6537,4.3753,-1.5097,20.0625,37.5,28.0,23.5625,-21.9375,153.1875,0
1776973382.083,8.6814,3.3758,-1.5945,-1.7965,0.1591,0.5654,-96.9,33.3,27.0,10.9798,-2.4373,2.715,-1.8418,-2.5916,-3.3612,-84.15,29.7,4.8,-13.97,-3.52,-11.75,1.7366,4.3164,-1.4824,20.0625,37.5,28.0,23.5,-19.375,152.375,0
1776973382.092,8.8969,5.545,-2.7677,-1.4,0.1953,0.4759,-96.6,33.0,27.3,10.3621,-2.1979,2.2482,-2.1178,-2.3763,-3.2317,-84.0,32.25,4.2,-14.45,-2.91,-10.94,1.7421,4.203,-1.417,20.0625,37.5,28.0,23.4375,-17.0,151.5,0
1776973382.096,8.8969,5.545,-2.7677,-1.4,0.1953,0.4759,-96.6,33.0,27.3,10.3621,-2.1979,2.2482,-2.1178,-2.3763,-3.2317,-83.1,32.85,3.3,-14.45,-2.91,-10.94,1.7421,4.203,-1.417,20.0625,37.5,28.0,23.4375,-14.6875,150.75,0
1776973382.103,10.2041,7.5274,-3.9576,-1.2191,0.2747,0.3728,-96.15,33.3,29.85,9.6055,-2.3056,1.7861,-2.1554,-2.1008,-3.0862,-83.1,32.85,3.3,-14.9,-1.95,-10.05,1.6482,4.0524,-1.2468,20.0625,37.5,28.0,23.5625,-12.5,150.0,0
1776973382.113,11.1881,8.8226,-4.4963,-0.8966,0.0594,0.2497,-96.15,33.3,29.85,9.1626,-2.3679,2.1931,-2.0526,-1.8282,-2.9076,-82.65,34.05,3.3,-15.43,0.25,-7.98,1.5686,3.9106,-0.9708,20.0625,37.5,28.0,23.5625,-12.5,150.0,0
1776973382.118,11.1881,8.8226,-4.4963,-0.8966,0.0594,0.2497,-96.15,33.3,29.85,9.1626,-2.3679,2.1931,-2.0526,-1.8282,-2.9076,-82.2,35.7,2.7,-15.43,0.25,-7.98,1.5686,3.9106,-0.9708,13.5625,35.5,29.0625,23.875,-10.5625,149.25,0
1776973382.123,11.71,8.7987,-4.3096,-0.6563,-0.0288,0.2116,-96.75,34.95,28.95,8.588,-1.9632,2.4038,-2.0755,-1.5402,-2.6755,-82.2,35.7,2.7,-16.08,1.35,-7.31,1.6144,3.7743,-0.6425,13.5625,35.5,29.0625,23.875,-10.5625,149.25,0
1776973382.128,11.71,8.7987,-4.3096,-0.6563,-0.0288,0.2116,-96.75,34.95,28.95,8.588,-1.9632,2.4038,-2.0755,-1.5402,-2.6755,-81.3,36.15,2.4,-16.08,1.35,-7.31,1.6144,3.7743,-0.6425,13.5625,35.5,29.0625,24.3125,-8.6875,148.4375,0
1776973382.133,11.2599,8.9352,-3.9409,-0.5518,0.0376,0.2113,-98.7,34.5,28.5,8.3845,-1.2881,2.0877,-2.2039,-1.1943,-2.4008,-81.3,36.15,2.4,-16.77,2.43,-6.56,1.8282,3.6336,-0.3327,13.5625,35.5,29.0625,24.3125,-8.6875,148.4375,0
1776973382.138,11.2599,8.9352,-3.9409,-0.5518,0.0376,0.2113,-98.7,34.5,28.5,8.4635,-0.4262,2.1668,-2.2039,-1.1943,-2.4008,-81.3,36.15,2.4,-16.77,2.43,-6.56,2.1337,3.5157,-0.0665,13.5625,35.5,29.0625,24.9375,-7.0625,147.375,0
1776973382.144,10.3741,9.2703,-3.0239,-0.5889,-0.0509,0.2201,-97.5,34.2,28.2,8.4635,-0.4262,2.1668,-2.282,-0.9174,-2.0707,-81.3,36.15,2.4,-16.66,3.51,-4.3,2.1337,3.5157,-0.0665,13.5625,35.5,29.0625,25.6875,-5.5625,146.1875,0
1776973382.153,9.4763,9.1315,-1.9752,-0.8103,-0.04,0.1732,-98.7,35.55,29.55,8.4563,0.1484,1.6855,-2.2322,-0.671,-1.6459,-81.6,39.0,1.8,-16.64,4.38,-3.41,2.3246,3.3412,0.2127,13.5625,35.5,29.0625,26.5625,-4.3125,145.0,0
1776973382.163,8.4491,8.7556,-1.3623,-0.9566,0.1247,0.1167,-98.7,35.55,29.55,8.1906,0.3424,0.7159,-2.0203,-0.3994,-1.1447,-81.6,39.0,1.8,-16.96,5.25,-2.81,2.3071,3.026,0.5367,13.5625,35.5,29.0625,26.5625,-4.3125,145.0,0
1776973382.168,8.4491,8.7556,-1.3623,-0.9566,0.1247,0.1167,-98.7,35.55,29.55,7.5609,0.3687,0.3041,-1.7075,-0.0802,-0.599,-79.5,40.05,3.45,-16.96,5.25,-2.81,2.3071,3.026,0.5367,13.5625,35.5,29.0625,26.5625,-4.3125,145.0,0
1776973382.173,7.7572,8.5114,-1.3767,-0.8708,0.4754,0.0362,-97.65,33.75,30.9,7.5609,0.3687,0.3041,-1.7075,-0.0802,-0.599,-79.5,40.05,3.45,-17.28,5.78,-2.19,2.1195,2.5918,0.8476,8.6875,37.75,34.5,27.5625,-3.4375,143.9375,0
1776973382.178,7.7572,8.5114,-1.3767,-0.7386,0.6779,-0.0354,-97.65,33.75,30.9,6.8953,0.1772,0.1867,-1.4381,0.227,-0.0719,-79.5,40.5,4.2,-17.28,5.78,-2.19,2.1195,2.5918,0.8476,8.6875,37.75,34.5,27.5625,-3.4375,143.9375,0
1776973382.183,8.0397,7.9799,-1.8818,-0.7386,0.6779,-0.0354,-98.25,35.7,30.0,6.8953,0.1772,0.1867,-1.4381,0.227,-0.0719,-79.5,40.5,4.2,-17.57,5.46,-0.83,1.777,2.078,1.0766,8.6875,37.75,34.5,28.5625,-2.875,143.0,0
1776973382.191,8.7005,7.1228,-2.3727,-0.5049,0.8511,0.0552,-100.2,35.25,29.55,6.9743,-0.316,0.3232,-1.1826,0.5255,0.4423,-78.9,39.9,4.35,-17.48,5.07,-0.55,1.2457,1.489,1.2054,8.6875,37.75,34.5,29.5,-2.625,142.375,0
1776973382.195,8.7005,7.1228,-2.3727,-0.5049,0.8511,0.0552,-100.2,35.25,29.55,7.4101,-1.1109,0.984,-1.1826,0.5255,0.4423,-79.8,38.85,4.5,-17.48,5.07,-0.55,1.2457,1.489,1.2054,8.6875,37.75,34.5,30.375,-2.6875,142.0625,0
1776973382.203,9.0285,5.6264,-2.4995,-0.3222,0.7493,0.1937,-97.95,35.55,30.9,7.4101,-1.1109,0.984,-0.8372,0.7898,0.8966,-79.8,38.85,4.5,-17.26,4.84,-0.82,0.6152,0.8596,1.2785,8.6875,37.75,34.5,31.1875,-3.0,142.0625,0
1776973382.213,9.3877,4.6232,-2.0087,-0.1737,0.636,0.3421,-97.35,35.55,30.15,9.9479,-0.3352,2.5809,-0.506,1.081,1.1279,-79.05,37.65,4.5,-4.42,-17.21,-7.9,0.0425,0.24,1.3319,8.6875,37.75,34.5,31.1875,-3.0,142.0625,0
1776973382.218,9.4236,3.5961,-0.7302,-0.275,0.6459,0.5881,-97.35,35.55,30.15,11.6933,2.873,-1.6783,-0.2577,1.016,1.1636,-80.4,38.25,6.15,-4.42,-17.21,-7.9,0.0425,0.24,1.3319,8.6875,37.75,34.5,31.1875,-3.0,142.0625,0
1776973382.223,9.4236,3.5961,-0.7302,-0.275,0.6459,0.5881,-97.35,35.55,30.15,11.6933,2.873,-1.6783,-0.2577,1.016,1.1636,-80.4,38.25,6.15,-1.0,1.54,-6.85,-1.8402,-0.8421,1.0199,4.5625,44.0,35.0,31.5625,-3.75,143.125,0
1776973382.228,10.0437,2.9161,0.7302,-0.5017,0.6395,0.886,-97.5,32.7,30.45,13.5344,6.0166,-3.2537,-0.5548,0.7488,0.6869,-80.4,38.25,6.15,-1.0,1.54,-6.85,-1.8402,-0.8421,1.0199,4.5625,44.0,35.0,31.5625,-3.75,143.125,0
1776973382.233,10.0437,2.9161,0.7302,-0.5017,0.6395,0.886,-97.5,32.7,30.45,13.5344,6.0166,-3.2537,-0.5548,0.7488,0.6869,-80.4,38.25,6.15,-1.62,0.26,-13.42,-4.1746,-2.1729,1.8271,4.5625,44.0,35.0,32.0625,-5.3125,145.4375,0
1776973382.239,8.7293,2.5905,1.3647,-0.927,0.3499,1.0664,-96.6,33.75,31.35,12.8449,7.6447,-7.2305,-0.4663,0.0831,0.1809,-79.65,36.3,6.6,-1.62,0.26,-13.42,-3.6423,-2.1184,1.1159,4.5625,44.0,35.0,32.25,-6.625,147.4375,0
1776973382.244,8.7293,2.5905,1.3647,-0.927,0.3499,1.0664,-96.6,33.75,31.35,9.1985,4.8028,-4.1372,-0.4663,0.0831,0.1809,-79.65,36.3,6.6,3.49,-16.11,-10.24,-3.6423,-2.1184,1.1159,4.5625,44.0,35.0,32.5625,-7.8125,148.9375,0
1776973382.253,8.0996,2.2386,0.6225,-1.0126,0.3587,1.0712,-99.15,32.25,31.35,9.3829,1.5131,-2.8204,1.1447,0.2246,0.1641,-80.55,37.35,7.95,-2.22,5.07,-6.15,-2.6954,-1.7551,1.2599,4.5625,44.0,35.0,33.0625,-9.25,150.3125,0
1776973382.263,9.414,2.1021,-0.6081,-0.7072,0.7885,1.2377,-99.6,31.2,31.8,13.884,3.1556,-7.3071,1.9894,0.57,0.5079,-80.55,38.1,6.0,-3.11,7.3,-8.07,-2.4555,-1.9831,1.6068,4.5625,44.0,35.0,33.0625,-9.25,150.3125,0
1776973382.268,12.639,1.9393,-2.3439,-0.0629,1.0789,1.5823,-99.6,31.2,31.8,13.884,3.1556,-7.3071,1.247,0.5617,0.6273,-79.65,36.3,7.35,-3.11,7.3,-8.07,-2.4555,-1.9831,1.6068,4.5625,44.0,35.0,33.1875,-10.5625,151.375,0
1776973382.273,12.639,1.9393,-2.3439,-0.0629,1.0789,1.5823,-99.6,31.2,31.8,15.7443,1.7789,-8.2193,0.9667,0.4215,0.7136,-79.65,36.3,7.35,-0.57,0.2,-10.32,-1.945,-2.2057,1.0145,8.5625,41.1875,41.25,33.1875,-10.5625,151.375,0
1776973382.278,17.1832,1.9297,-4.6376,1.0512,1.0746,1.9593,-98.7,32.25,32.7,15.7443,1.7789,-8.2193,0.9667,0.4215,0.7136,-80.1,36.0,6.15,-0.57,0.2,-10.32,-1.945,-2.2057,1.0145,8.5625,41.1875,41.25,33.25,-12.0,152.0625,0
1776973382.283,17.1832,1.9297,-4.6376,1.0512,1.0746,1.9593,-98.7,32.25,32.7,15.1457,-1.3072,0.2562,1.6505,0.6619,0.8735,-80.1,36.0,6.15,-7.88,4.14,-15.49,-1.297,-2.5002,0.8596,8.5625,41.1875,41.25,33.25,-12.0,152.0625,0
1776973382.291,20.1448,2.6576,-6.2393,2.6308,0.3046,2.0827,-98.55,31.95,31.05,13.8193,-0.9553,1.4533,1.6505,0.6619,0.8735,-80.4,36.75,5.1,-12.51,-2.99,-15.3,-0.673,-2.7522,1.2479,8.5625,41.1875,41.25,33.5,-13.6875,152.4375,0
1776973382.296,22.065,3.1675,-5.8778,3.1064,0.2329,1.7877,-100.8,32.4,29.7,13.8193,-0.9553,1.4533,1.1501,1.169,1.0613,-80.4,36.75,5.1,-12.51,-2.99,-15.3,-0.673,-2.7522,1.2479,8.5625,41.1875,41.25,34.0625,-15.375,152.75,0
1776973382.304,18.9501,3.9121,-5.4468,3.5751,-0.3856,1.048,-100.8,32.4,29.7,13.2495,0.6871,1.4485,1.011,1.3608,1.0658,-80.4,36.75,5.1,-17.29,-12.35,-14.82,-0.5421,-2.5973,1.6744,8.5625,41.1875,41.25,34.75,-16.875,153.375,0
1776973382.314,12.967,3.6871,-3.4764,3.29,-1.1279,0.1223,-99.6,33.9,27.6,11.904,0.3998,-0.1006,1.5111,1.0709,0.9939,-80.4,36.0,4.05,-5.0,0.23,-10.35,-0.8912,-2.03,1.849,8.5625,41.1875,41.25,34.75,-16.875,153.375,0
1776973382.318,12.967,3.6871,-3.4764,3.29,-1.1279,0.1223,-98.85,36.9,25.35,11.904,0.3998,-0.1006,1.5111,1.0709,0.9939,-80.4,36.0,4.05,-5.0,0.23,-10.35,-0.8912,-2.03,1.849,8.5625,41.1875,41.25,35.125,-17.9375,154.0,0
1776973382.324,6.5769,0.0215,2.047,1.5729,-1.0187,-0.5009,-98.85,36.9,25.35,8.5521,-0.0982,1.7861,1.687,0.9513,0.9132,-80.4,36.0,4.05,-7.36,3.46,-14.05,-0.9632,-1.5261,1.2185,16.5625,38.0625,45.75,35.125,-17.9375,154.0,0
1776973382.328,6.5769,0.0215,2.047,1.5729,-1.0187,-0.5009,-98.85,36.9,25.35,8.5521,-0.0982,1.7861,1.687,0.9513,0.9132,-81.75,34.2,6.75,-7.36,3.46,-14.05,-0.9632,-1.5261,1.2185,16.5625,38.0625,45.75,35.125,-17.9375,154.0,0
1776973382.333,3.7278,-6.3159,3.7278,-0.7986,-0.2918,-0.3978,-98.85,36.9,25.35,7.6375,-0.6033,4.1707,1.0874,0.9414,0.8143,-81.75,34.2,6.75,-6.37,-1.77,-10.5,-0.8519,-1.4312,0.9632,16.5625,38.0625,45.75,35.4375,-18.875,154.5,0
1776973382.34,3.7278,-6.3159,3.7278,-0.7986,-0.2918,-0.3978,-97.05,40.65,22.95,8.2624,-1.0894,5.2433,1.0874,0.9414,0.8143,-81.3,35.4,5.7,-3.78,-5.62,-8.26,-0.601,-0.9916,0.721,16.5625,38.0625,45.75,35.625,-19.5625,154.875,0
1776973382.345,4.9704,-7.9033,9.4332,-1.108,0.4221,-0.5377,-97.05,40.65,22.95,8.2624,-1.0894,5.2433,0.2891,0.9332,0.7975,-81.3,35.4,5.7,-3.78,-5.62,-8.26,-0.601,-0.9916,0.721,16.5625,38.0625,45.75,35.8125,-20.125,155.25,0
1776973382.354,3.1723,-5.3151,5.7174,-2.1466,1.7142,-0.3246,-99.45,40.5,24.15,9.5912,-0.7015,4.3886,-0.1673,0.8892,0.7845,-81.15,35.1,6.6,-4.39,-2.61,-8.98,-0.5814,-0.8803,0.5858,16.5625,38.0625,45.75,35.9375,-20.6875,155.625,0
1776973382.364,4.1276,-5.3391,2.7007,-3.1115,1.8159,0.2065,-100.05,39.15,26.4,10.2496,0.498,3.0837,-0.4471,0.8092,0.7149,-80.55,33.45,7.5,-4.91,-4.27,-8.57,-0.625,-0.9021,0.5563,16.5625,38.0625,45.75,35.9375,-20.6875,155.625,0
1776973382.368,4.1276,-5.3391,2.7007,-3.1115,1.8159,0.2065,-98.55,38.4,27.9,10.6207,0.8643,2.3032,-0.4471,0.8092,0.7149,-81.0,33.75,8.7,-4.91,-4.27,-8.57,-0.625,-0.9021,0.5563,16.5625,38.0625,45.75,35.9375,-20.6875,155.625,0
1776973382.373,6.8043,-6.3207,0.6536,-3.3468,1.5298,0.652,-98.55,38.4,27.9,10.6207,0.8643,2.3032,-0.3669,0.733,0.6635,-81.0,33.75,8.7,-4.74,-4.35,-8.65,-0.5912,-0.7712,0.5083,23.25,35.0625,44.875,36.0625,-21.1875,155.9375,0
1776973382.378,6.8043,-6.3207,0.6536,-3.3468,1.5298,0.652,-98.55,38.4,27.9,10.2568,1.1372,2.7054,-0.3669,0.733,0.6635,-82.2,32.55,8.25,-4.74,-4.35,-8.65,-0.5912,-0.7712,0.5083,23.25,35.0625,44.875,36.0625,-21.1875,155.9375,0
1776973382.383,8.1858,-7.1778,0.1987,-2.8983,0.8228,1.1775,-98.55,38.4,27.9,10.2568,1.1372,2.7054,-0.2838,0.6923,0.6683,-82.2,32.55,8.25,-5.06,-2.72,-9.25,-0.5749,-0.625,0.4309,23.25,35.0625,44.875,36.1875,-21.625,156.3125,0
1776973382.393,11.5855,-5.2936,1.0846,-2.1245,0.7346,1.3949,-98.55,38.4,27.9,9.8833,1.2354,2.8108,-0.5343,0.6286,0.6611,-82.2,32.55,8.25,-4.67,-3.29,-8.92,-0.516,-0.4691,0.3469,23.25,35.0625,44.875,36.25,-21.9375,156.625,0
1776973382.4,12.4929,-2.1931,1.6424,-1.6971,0.4807,1.2529,-97.35,25.8,31.95,9.6247,1.4748,2.059,-0.797,0.5684,0.6539,-83.1,32.85,8.1,-4.4,-3.21,-8.76,-0.4091,-0.3262,0.2662,23.25,35.0625,44.875,36.3125,-22.1875,156.875,0
1776973382.405,12.4929,-2.1931,1.6424,-1.6971,0.4807,1.2529,-95.25,22.65,33.6,9.6247,1.4748,2.059,-0.797,0.5684,0.6539,-83.1,32.85,8.1,-4.4,-3.21,-8.76,-0.4091,-0.3262,0.2662,23.25,35.0625,44.875,36.375,-22.375,157.0625,0
1776973382.414,12.0931,1.1396,3.2801,-1.3387,0.0725,1.1271,-94.8,20.25,31.65,9.7468,1.8364,1.0726,-0.8705,0.522,0.664,-82.5,33.75,9.0,-4.37,-3.2,-8.68,-0.324,-0.2738,0.2094,23.25,35.0625,44.875,36.375,-22.375,157.0625,0
1776973382.419,12.0931,1.1396,3.2801,-1.3387,0.0725,1.1271,-94.8,20.25,31.65,9.9982,1.8675,0.8954,-0.7258,0.4951,0.6885,-83.25,32.25,9.75,-4.37,-3.2,-8.68,-0.324,-0.2738,0.2094,27.0,33.25,47.0625,36.4375,-22.5,157.25,0
1776973382.424,10.0389,4.4891,6.0166,-0.814,-0.1364,0.9561,-94.05,18.75,31.35,9.9982,1.8675,0.8954,-0.7258,0.4951,0.6885,-83.25,32.25,9.75,-4.37,-2.96,-8.79,-0.2683,-0.2225,0.1767,27.0,33.25,47.0625,36.4375,-22.5,157.25,0
1776973382.429,10.0389,4.4891,6.0166,-0.814,-0.1364,0.9561,-94.05,18.75,31.35,9.9144,1.8076,0.9768,-0.5431,0.4743,0.7024,-83.25,31.8,9.3,-4.37,-2.96,-8.79,-0.2683,-0.2225,0.1767,27.0,33.25,47.0625,36.4375,-22.625,157.375,0
1776973382.434,9.4308,6.4045,6.8809,-0.992,0.1903,0.7544,-94.05,18.75,31.35,9.9144,1.8076,0.9768,-0.5431,0.4743,0.7024,-83.25,31.8,9.3,-4.36,-2.72,-8.9,-0.2345,-0.168,0.1429,27.0,33.25,47.0625,36.4375,-22.625,157.375,0
1776973382.44,9.3637,7.4436,5.7341,-0.934,0.3597,0.5478,-94.05,18.75,31.35,9.6343,1.8531,1.3838,-0.4778,0.4596,0.6939,-83.4,30.45,10.65,-4.3,-2.84,-8.76,-0.1942,-0.108,0.1058,27.0,33.25,47.0625,36.5,-22.6875,157.5,0
1776973382.445,9.3637,7.4436,5.7341,-0.934,0.3597,0.5478,-97.65,15.75,32.4,9.4379,2.15,1.5586,-0.4778,0.4596,0.6939,-83.4,30.45,10.65,-4.3,-2.84,-8.76,-0.1942,-0.108,0.1058,27.0,33.25,47.0625,36.5,-22.75,157.625,0
1776973382.454,9.0166,7.5513,4.4915,-1.2345,0.6086,0.425,-99.45,17.25,34.2,9.4379,2.15,1.5586,-0.5577,0.4327,0.6632,-83.1,30.45,11.85,-3.96,-3.21,-8.4,-0.1527,-0.0654,0.072,27.0,33.25,47.0625,36.5,-22.8125,157.6875,0
1776973382.464,8.8657,6.7804,3.1723,-1.5804,0.8548,0.4365,-99.45,15.0,34.8,9.3589,2.5618,1.6975,-0.648,0.408,0.6582,-83.1,30.45,11.85,-3.99,-3.32,-8.3,-0.1342,-0.0622,0.0556,27.0,33.25,47.0625,36.5,-22.8125,157.6875,0
1776973382.469,9.0597,4.9512,1.1564,-1.4416,1.105,0.5028,-99.45,15.0,34.8,9.2919,3.0957,1.1827,-0.7149,0.405,0.7011,-81.9,30.45,11.1,-3.99,-3.32,-8.3,-0.1342,-0.0622,0.0556,27.0,33.25,47.0625,36.5,-22.8125,157.6875,0
1776973382.474,9.0597,4.9512,1.1564,-1.4416,1.105,0.5028,-99.6,17.4,36.15,9.2919,3.0957,1.1827,-0.7149,0.405,0.7011,-81.9,30.45,11.1,-4.03,-3.34,-8.26,-0.1331,-0.0654,0.0524,27.0,32.5625,46.25,36.5,-22.8125,157.75,0
1776973382.479,9.0501,3.6033,-0.9433,-1.0821,1.1048,0.5401,-99.6,17.4,36.15,9.1075,3.2872,0.6033,-0.7453,0.4213,0.7512,-81.9,30.45,11.1,-4.03,-3.34,-8.26,-0.1331,-0.0654,0.0524,27.0,32.5625,46.25,36.5,-22.8125,157.75,0
1776973382.484,9.0501,3.6033,-0.9433,-1.0821,1.1048,0.5401,-99.6,17.4,36.15,8.9304,3.3208,0.0694,-0.7453,0.4213,0.7512,-81.9,30.45,11.1,-3.94,-3.39,-8.19,-0.1429,-0.0567,0.0513,27.0,32.5625,46.25,36.5,-22.875,157.875,0
1776973382.492,9.3374,2.4229,-1.8747,-0.7221,0.9278,0.5359,-99.6,17.4,36.15,8.9304,3.3208,0.0694,-0.7898,0.4535,0.7927,-82.5,31.5,13.05,-3.83,-3.31,-8.18,-0.1614,-0.0415,0.0524,27.0,32.5625,46.25,36.5,-22.875,157.9375,0
1776973382.497,8.7556,1.6951,-1.4461,-0.4975,0.6827,0.4903,-99.6,17.4,36.15,8.758,3.1292,-0.1532,-0.9046,0.4972,0.8108,-82.5,31.5,13.05,-3.83,-3.31,-8.18,-0.1614,-0.0415,0.0524,27.0,32.5625,46.25,36.5625,-22.9375,158.0625,0
1776973382.504,8.7556,1.6951,-1.4461,-0.4975,0.6827,0.4903,-103.05,22.5,39.15,8.758,3.2705,-0.4645,-0.9473,0.5316,0.8367,-83.25,27.45,12.3,-3.64,-3.32,-8.08,-0.1942,-0.0316,0.06,27.0,32.5625,46.25,36.5625,-23.0,158.1875,0
1776973382.514,9.0525,1.4054,-0.9553,-0.3139,0.7131,0.4154,-103.05,25.5,40.5,8.6933,3.6009,-0.6512,-0.9292,0.5412,0.8945,-84.6,29.7,12.45,-3.61,-3.19,-8.12,-0.2193,-0.048,0.0796,27.0,32.5625,46.25,36.5625,-23.0,158.1875,0
1776973382.519,9.4332,0.6033,-0.5052,-0.1548,0.748,0.3144,-103.05,25.5,40.5,8.6933,3.6009,-0.6512,-0.9292,0.5412,0.8945,-83.85,28.95,13.2,-3.61,-3.19,-8.12,-0.2193,-0.048,0.0796,27.375,31.0625,47.0,36.5625,-23.0625,158.375,0
1776973382.524,9.4332,0.6033,-0.5052,-0.1548,0.748,0.3144,-105.15,26.7,42.15,9.0022,3.5147,-0.067,-0.8367,0.6094,0.8908,-83.85,28.95,13.2,-3.66,-3.24,-8.11,-0.2465,-0.0862,0.1091,27.375,31.0625,47.0,36.5625,-23.0625,158.375,0
1776973382.529,8.8753,0.5602,-1.0319,-0.4389,0.834,0.2862,-105.15,26.7,42.15,9.0022,3.5147,-0.067,-0.8367,0.6094,0.8908,-84.0,27.45,12.3,-3.66,-3.24,-8.11,-0.2465,-0.0862,0.1091,27.375,31.0625,47.0,36.625,-23.125,158.5625,0
1776973382.534,8.8753,0.5602,-1.0319,-0.4389,0.834,0.2862,-107.4,27.75,44.85,9.1602,3.2657,0.0072,-0.7064,0.5902,0.9265,-84.0,27.45,12.3,-3.74,-3.24,-8.11,-0.2716,-0.1222,0.1385,27.375,31.0625,47.0,36.625,-23.125,158.5625,0
1776973382.539,10.4196,0.2322,2.3224,0.0853,0.6403,0.0909,-107.4,27.75,44.85,9.1602,3.2657,0.0072,-0.7064,0.5902,0.9265,-83.85,27.3,14.4,-3.74,-3.24,-8.11,-0.3043,-0.144,0.1604,27.375,31.0625,47.0,36.625,-23.25,158.75,0
1776973382.545,10.4196,0.2322,2.3224,0.0853,0.6403,0.0909,-107.4,27.75,44.85,9.1339,2.8371,0.6608,-0.5255,0.5974,0.9531,-83.85,27.3,14.4,-3.62,-3.16,-8.15,-0.3043,-0.144,0.1604,27.375,31.0625,47.0,36.625,-23.25,158.75,0
1776973382.554,8.7125,1.5251,1.6233,-0.308,0.0927,0.1769,-115.8,30.3,51.9,9.2009,2.2098,1.3264,-0.4394,0.5836,0.991,-83.85,27.3,14.4,-3.95,-2.99,-8.3,-0.3251,-0.1691,0.18,27.375,31.0625,47.0,36.6875,-23.375,158.9375,0
1776973382.564,8.9471,1.0678,0.2131,-1.0541,0.3696,0.1892,-119.7,28.65,56.4,9.2967,1.5826,0.984,-0.36,0.5689,1.0102,-84.0,26.7,14.25,-4.93,-3.35,-8.66,-0.3294,-0.2029,0.1974,27.375,31.0625,47.0,36.75,-23.5,159.125,0
1776973382.569,9.1339,1.3982,0.7422,-1.2372,0.4487,0.1847,-119.7,28.65,56.4,9.2967,1.5826,0.984,-0.36,0.5689,1.0102,-84.0,26.7,14.25,-4.93,-3.35,-8.66,-0.3294,-0.2029,0.1974,27.375,31.0625,47.0,36.75,-23.5,159.125,0
1776973382.574,9.1339,1.3982,0.7422,-1.2372,0.4487,0.1847,-124.05,26.7,59.55,9.1315,0.9266,1.4198,-0.1921,0.5817,1.0339,-83.85,25.35,14.4,-4.09,-3.03,-8.15,-0.3327,-0.1854,0.204,28.5,31.75,46.5625,36.8125,-23.625,159.375,0
1776973382.579,8.8538,1.7573,1.3767,-1.2857,0.2955,0.247,-124.05,26.7,59.55,9.1315,0.9266,1.4198,-0.1921,0.5817,1.0339,-83.85,25.35,14.4,-4.09,-3.03,-8.15,-0.3327,-0.1854,0.204,28.5,31.75,46.5625,36.8125,-23.75,159.5625,0
1776973382.584,8.8538,1.7573,1.3767,-1.4823,0.3504,0.3088,-124.65,25.65,61.35,9.3733,0.589,1.6568,-0.1839,0.619,1.0573,-85.8,25.35,14.4,-4.31,-2.8,-8.45,-0.3371,-0.1331,0.1844,28.5,31.75,46.5625,36.8125,-23.75,159.5625,0
1776973382.592,8.5569,1.4557,0.9313,-1.4823,0.3504,0.3088,-124.65,25.65,61.35,9.4164,0.1939,1.5275,-0.3648,0.6035,1.0829,-84.0,24.75,15.3,-4.37,-2.77,-8.43,-0.348,-0.1222,0.1854,28.5,31.75,46.5625,36.875,-23.875,159.8125,0
1776973382.597,8.43,1.1947,0.0718,-1.6518,0.4567,0.3661,-124.65,25.65,61.35,9.4164,0.1939,1.5275,-0.3648,0.6035,1.0829,-84.0,24.75,15.3,-4.37,-2.77,-8.43,-0.348,-0.1222,0.1854,28.5,31.75,46.5625,36.9375,-23.9375,160.0,0
1776973382.604,8.746,1.2091,-0.0168,-1.7192,0.4258,0.3989,-124.65,25.65,61.35,9.3925,0.3041,1.2546,-0.5572,0.6051,1.0922,-84.0,24.0,15.3,-4.16,-2.84,-8.36,-0.3392,-0.1036,0.1756,28.5,31.75,46.5625,37.0,-24.0,160.25,0
1776973382.614,8.9112,1.3072,0.4094,-1.6499,0.5585,0.409,-118.2,22.95,56.4,9.3901,0.7207,0.8547,-0.6965,0.6254,1.0872,-84.6,23.4,15.45,-4.0,-2.91,-8.27,-0.3283,-0.0807,0.1571,28.5,31.75,46.5625,37.0,-24.0,160.25,0
1776973382.619,8.9112,1.3072,0.4094,-1.6499,0.5585,0.409,-118.2,22.95,56.4,9.2249,1.3192,0.5986,-0.7584,0.6392,1.08,-84.6,23.4,15.45,-4.0,-2.91,-8.27,-0.3283,-0.0807,0.1571,28.5,31.75,46.5625,37.0,-24.0,160.25,0
1776973382.624,8.4755,1.3575,0.9098,-1.4245,0.5097,0.4072,-115.2,19.2,55.65,9.2249,1.3192,0.5986,-0.7584,0.6392,1.08,-84.6,23.4,15.45,-3.83,-3.12,-8.26,-0.3262,-0.0829,0.1582,28.0625,30.0,46.875,37.0,-24.0625,160.4375,0
1776973382.629,8.4755,1.3575,0.9098,-1.4245,0.5097,0.4072,-115.2,19.2,55.65,8.9208,1.7693,0.316,-0.5886,0.7541,1.1008,-84.6,23.4,15.45,-3.83,-3.12,-8.26,-0.3262,-0.0829,0.1582,28.0625,30.0,46.875,37.0,-24.0625,160.4375,0
1776973382.634,9.0692,1.7813,1.063,-1.2721,0.4959,0.4064,-111.45,18.0,52.95,8.9208,1.7693,0.316,-0.5886,0.7541,1.1008,-85.8,21.9,16.65,-4.14,-2.88,-8.36,-0.3294,-0.0894,0.1713,28.0625,30.0,46.875,37.0625,-24.1875,160.6875,0
1776973382.639,9.0692,1.7813,1.063,-1.2721,0.4959,0.4064,-111.45,18.0,52.95,9.3757,1.8579,0.6249,-0.5505,0.7781,1.1002,-85.8,21.9,16.65,-4.14,-2.88,-8.36,-0.3403,-0.1102,0.1942,28.0625,30.0,46.875,37.125,-24.25,160.875,0
1776973382.645,9.0573,2.0255,1.0965,-1.2199,0.5918,0.4098,-110.25,15.9,53.25,9.3757,1.8579,0.6249,-0.5505,0.7781,1.1002,-85.8,21.9,16.65,-4.1,-2.74,-8.41,-0.3403,-0.1102,0.1942,28.0625,30.0,46.875,37.125,-24.25,160.875,0
1776973382.654,9.1219,2.217,1.0558,-1.2105,0.5697,0.4101,-110.25,15.9,53.25,9.8426,1.4605,0.6009,-0.5031,0.7536,1.0648,-85.35,21.0,16.65,-3.73,-3.11,-8.4,-0.3502,-0.1113,0.2018,28.0625,30.0,46.875,37.1875,-24.375,161.125,0
1776973382.659,9.1219,2.217,1.0558,-1.2105,0.5697,0.4101,-110.25,15.9,53.25,9.7348,0.9744,1.075,-0.38,0.7783,1.0515,-85.35,21.0,16.65,-3.73,-3.11,-8.4,-0.3447,-0.1385,0.2225,28.0625,30.0,46.875,37.25,-24.4375,161.3125,0
1776973382.665,9.4116,2.2194,1.0894,-1.1674,0.5969,0.4048,-104.7,12.9,52.8,9.7348,0.9744,1.075,-0.38,0.7783,1.0515,-84.45,20.1,15.6,-3.7,-3.29,-8.43,-0.3447,-0.1385,0.2225,28.0625,30.0,46.875,37.25,-24.4375,161.3125,0
1776973382.67,9.4116,2.2194,1.0894,-1.1674,0.5969,0.4048,-104.7,12.15,53.25,9.9742,0.4477,1.6209,-0.3424,0.7557,1.0336,-84.0,19.65,16.35,-3.7,-3.29,-8.43,-0.3425,-0.1691,0.2607,29.1875,29.6875,48.5,37.3125,-24.5625,161.5625,0
1776973382.675,9.5792,1.9513,1.3096,-1.1525,0.688,0.4128,-104.7,12.15,53.25,9.9742,0.4477,1.6209,-0.3424,0.7557,1.0336,-84.0,19.65,16.35,-3.93,-2.99,-8.51,-0.3425,-0.1691,0.2607,29.1875,29.6875,48.5,37.3125,-24.5625,161.5625,0
1776973382.68,9.5792,1.9513,1.3096,-1.1525,0.688,0.4128,-104.55,9.0,52.95,9.8138,-0.2849,2.217,-0.3541,0.7869,1.0392,-84.0,19.65,16.35,-3.93,-2.99,-8.51,-0.3185,-0.1963,0.2847,29.1875,29.6875,48.5,37.4375,-24.75,161.8125,0
1776973382.685,9.6007,1.6831,1.336,-1.1021,0.6704,0.4245,-104.55,9.0,52.95,9.8138,-0.2849,2.217,-0.3541,0.7869,1.0392,-85.8,20.25,18.0,-4.36,-2.51,-8.86,-0.3185,-0.1963,0.2847,29.1875,29.6875,48.5,37.4375,-24.75,161.8125,0
1776973382.691,9.5002,1.2905,1.2163,-1.0733,0.7429,0.425,-104.25,7.05,54.15,9.7923,-0.8116,1.6209,-0.3994,0.7799,1.0648,-83.25,19.65,17.1,-4.66,-2.24,-8.94,-0.2716,-0.2127,0.2923,29.1875,29.6875,48.5,37.5625,-24.875,162.0,0
1776973382.696,9.5002,1.2905,1.2163,-1.0733,0.7429,0.425,-104.25,7.05,54.15,9.5984,-0.8475,1.1109,-0.3994,0.7799,1.0648,-83.25,19.65,17.1,-4.66,-2.24,-8.94,-0.2716,-0.2127,0.2923,29.1875,29.6875,48.5,37.625,-25.0625,162.1875,0
1776973382.704,9.3565,1.0678,1.0439,-0.9694,0.7229,0.4237,-104.25,7.05,54.15,9.5984,-0.8475,1.1109,-0.5143,0.8364,1.0925,-85.35,18.0,18.45,-4.78,-1.96,-8.84,-0.2258,-0.2182,0.2629,29.1875,29.6875,48.5,37.6875,-25.1875,162.3125,0
1776973382.714,9.3733,0.9816,0.6823,-0.8559,0.7482,0.3981,-104.25,7.05,54.15,9.4475,0.589,0.7111,-0.6571,0.8647,1.0797,-85.35,18.0,18.45,-4.68,-2.09,-8.7,-0.1778,-0.204,0.216,29.1875,29.6875,48.5,37.6875,-25.1875,162.3125,0
1776973382.719,9.3733,0.9816,0.6823,-0.8559,0.7482,0.3981,-103.8,3.75,54.15,9.4475,0.589,0.7111,-0.8966,0.8684,1.0672,-85.35,18.0,18.45,-4.68,-2.09,-8.7,-0.1778,-0.204,0.216,29.1875,29.6875,48.5,37.6875,-25.1875,162.3125,0
1776973382.724,9.8067,1.0654,0.3112,-0.7005,0.7653,0.3675,-103.8,3.75,54.15,9.651,0.7781,0.9266,-0.8966,0.8684,1.0672,-83.85,16.8,21.45,-4.19,-2.62,-8.84,-0.1516,-0.1865,0.1614,29.5,28.1875,49.1875,37.75,-25.3125,162.4375,0
1776973382.729,9.8067,1.0654,0.3112,-0.6289,0.7072,0.3456,-103.8,3.75,53.4,9.651,0.7781,0.9266,-0.9209,0.9387,1.1191,-83.85,16.8,21.45,-4.19,-2.62,-8.84,-0.1516,-0.1865,0.1614,29.5,28.1875,49.1875,37.75,-25.3125,162.4375,0
1776973382.734,9.5122,1.3982,0.0814,-0.6289,0.7072,0.3456,-103.8,3.75,53.4,9.9096,0.8452,0.9529,-0.9209,0.9387,1.1191,-85.05,14.4,19.5,-4.17,-2.5,-8.91,-0.1287,-0.1527,0.108,29.5,28.1875,49.1875,37.8125,-25.4375,162.5,0
1776973382.739,9.7707,1.7382,-0.182,-0.6384,0.6731,0.323,-103.35,2.7,54.3,9.9096,0.8452,0.9529,-0.9393,0.9851,1.1951,-85.05,14.4,19.5,-4.17,-2.5,-8.91,-0.084,-0.1713,0.1036,29.5,28.1875,49.1875,37.8125,-25.5,162.5625,0
1776973382.745,9.7707,1.7382,-0.182,-0.6384,0.6731,0.323,-103.35,2.7,54.3,10.1179,0.8284,1.1779,-0.9569,1.0048,1.2577,-84.45,13.8,22.65,-4.32,-2.21,-9.03,-0.084,-0.1713,0.1036,29.5,28.1875,49.1875,37.875,-25.625,162.5625,0
1776973382.754,9.7851,1.901,-0.103,-0.8015,0.5388,0.3035,-102.9,2.7,54.6,10.7069,0.4741,0.7973,-0.9054,1.0099,1.3219,-85.2,13.5,21.6,-4.32,-2.26,-9.14,-0.0185,-0.2073,0.12,29.5,28.1875,49.1875,37.9375,-25.8125,162.5625,0
1776973382.764,10.2568,2.3439,0.3065,-1.0035,0.4527,0.3174,-102.9,2.7,54.6,11.145,-0.2538,0.1963,-0.8537,1.0427,1.429,-82.35,12.45,22.5,-2.98,-2.23,-10.05,0.0611,-0.2553,0.1331,29.5,28.1875,49.1875,37.9375,-25.8125,162.5625,0
1776973382.769,10.2615,2.7461,0.893,-1.2612,0.404,0.3283,-103.35,0.9,54.3,11.145,-0.2538,0.1963,-0.8537,1.0427,1.429,-82.35,12.45,22.5,-2.98,-2.23,-10.05,0.0611,-0.2553,0.1331,29.5,28.1875,49.1875,38.0,-26.125,162.4375,0
1776973382.774,10.2615,2.7461,0.893,-1.2612,0.404,0.3283,-103.35,0.9,54.3,10.4698,0.4238,0.1389,-0.725,1.0858,1.5047,-81.3,11.4,22.65,-3.55,-1.75,-10.21,0.2258,-0.4974,0.1473,30.6875,28.1875,49.1875,38.0,-26.125,162.4375,0
1776973382.779,10.4076,2.9473,1.3001,-1.4693,0.3685,0.3171,-103.35,0.45,54.6,10.4698,0.4238,0.1389,-0.725,1.0858,1.5047,-81.3,11.4,22.65,-3.55,-1.75,-10.21,0.2258,-0.4974,0.1473,30.6875,28.1875,49.1875,38.0625,-26.375,162.3125,0
1776973382.784,10.4076,2.9473,1.3001,-1.4693,0.3685,0.3171,-103.35,0.45,54.6,10.9104,1.0702,0.328,-0.6499,1.1266,1.5551,-81.3,11.4,22.65,-3.26,-2.49,-10.16,0.2258,-0.4974,0.1473,30.6875,28.1875,49.1875,38.0625,-26.375,162.3125,0
1776973382.792,10.671,3.1149,1.7454,-1.5924,0.2427,0.2761,-102.6,-2.4,54.6,10.8984,0.6871,0.5531,-0.5841,1.2041,1.6118,-81.9,10.5,24.75,-3.61,-2.17,-9.92,0.2923,-0.6687,0.1691,30.6875,28.1875,49.1875,38.1875,-26.75,162.125,0
1776973382.797,10.6494,3.4548,2.0997,-1.5593,0.0943,0.2204,-104.55,-4.05,55.8,10.8984,0.6871,0.5531,-0.5841,1.2041,1.6118,-81.9,10.5,24.75,-3.61,-2.17,-9.92,0.2923,-0.6687,0.1691,30.6875,28.1875,49.1875,38.25,-27.375,161.875,0
1776973382.805,10.6494,3.4548,2.0997,-1.5593,0.0943,0.2204,-104.55,-4.05,55.8,11.2767,0.589,0.4836,-0.5105,1.242,1.7115,-81.9,10.5,24.75,-3.8,-2.02,-9.88,0.4134,-1.0483,0.2345,30.6875,28.1875,49.1875,38.375,-28.0625,161.5625,0
1776973382.815,11.2527,3.6895,1.9154,-1.4935,-0.0008,0.1308,-104.85,-4.05,54.45,11.6957,0.7398,0.1628,-0.595,1.2859,1.8119,-81.3,7.95,26.4,-3.42,-2.45,-10.13,0.4385,-1.2926,0.2738,30.6875,28.1875,49.1875,38.375,-28.0625,161.5625,0
1776973382.819,11.6622,4.0797,1.4389,-1.3632,-0.1367,-0.0131,-104.85,-4.05,54.45,11.6957,0.7398,0.1628,-0.595,1.2859,1.8119,-81.3,7.95,26.4,-3.42,-2.45,-10.13,0.4385,-1.2926,0.2738,30.6875,28.1875,49.1875,38.5,-29.0,161.3125,0
1776973382.825,11.6622,4.0797,1.4389,-1.3632,-0.1367,-0.0131,-104.85,-4.05,54.45,12.2463,1.1779,-0.2705,-0.6227,1.3752,1.8914,-81.0,7.95,26.1,-3.3,-3.01,-10.29,0.4167,-1.6188,0.3425,32.1875,27.875,47.6875,38.5,-29.0,161.3125,0
1776973382.829,12.2823,4.6424,0.565,-1.1471,-0.1932,-0.223,-106.05,-5.25,54.75,12.9119,2.1261,-1.1396,-0.6227,1.3752,1.8914,-81.0,7.95,26.1,-3.3,-3.01,-10.29,0.4167,-1.6188,0.3425,32.1875,27.875,47.6875,38.5,-29.0,161.3125,0
1776973382.834,12.2823,4.6424,0.565,-1.1471,-0.1932,-0.223,-106.05,-5.25,54.75,12.9119,2.1261,-1.1396,-0.7512,1.4552,1.9676,-80.55,6.45,27.45,-2.97,-3.72,-10.95,0.3665,-2.0322,0.4843,32.1875,27.875,47.6875,38.625,-30.1875,161.0625,0
1776973382.841,12.5935,5.3151,-0.6752,-0.8521,-0.2475,-0.4858,-104.85,-4.8,54.75,13.6039,2.1452,-3.043,-0.9036,1.5831,2.0712,-80.55,6.45,27.45,-2.78,-3.47,-10.96,0.3512,-2.4642,0.6578,32.1875,27.875,47.6875,38.875,-31.5625,160.8125,0
1776973382.846,12.1434,6.6846,-2.2266,-0.5548,-0.4005,-0.7192,-105.75,-2.4,53.85,13.6039,2.1452,-3.043,-0.9036,1.5831,2.0712,-79.5,2.85,26.7,-2.78,-3.47,-10.96,0.3512,-2.4642,0.6578,32.1875,27.875,47.6875,39.1875,-33.25,160.4375,0
1776973382.855,12.1434,6.6846,-2.2266,-0.3829,-0.5977,-0.931,-105.75,-2.4,53.85,14.7698,1.9632,-3.8475,-1.0483,1.7376,2.2034,-80.1,3.0,28.8,-2.4,-3.35,-11.2,0.5247,-2.8842,0.8858,32.1875,27.875,47.6875,39.625,-35.1875,160.0625,0
1776973382.865,10.307,9.8881,-5.4708,-0.3547,-0.9542,-1.1514,-103.5,-4.5,53.4,16.2279,4.0558,-4.3191,-1.1183,1.8247,2.428,-80.25,1.65,28.95,-1.84,-3.46,-11.59,0.6447,-3.3336,1.1781,32.1875,27.875,47.6875,39.625,-35.1875,160.0625,0
1776973382.87,10.307,9.8881,-5.4708,-0.3547,-0.9542,-1.1514,-103.5,-4.5,53.4,18.5,5.1092,-5.4827,-1.3486,1.8551,2.6838,-80.25,1.65,28.95,-1.84,-3.46,-11.59,0.6447,-3.3336,1.1781,32.1875,27.875,47.6875,39.625,-35.1875,160.0625,0
1776973382.875,10.5225,10.0173,-3.7996,-0.0925,-1.2364,-1.4208,-103.5,-4.5,53.4,18.5,5.1092,-5.4827,-1.3486,1.8551,2.6838,-80.25,1.65,28.95,-1.8,-2.77,-12.23,0.7058,-3.903,1.4846,35.0,28.1875,43.6875,40.25,-37.5,159.6875,0
1776973382.879,10.5225,10.0173,-3.7996,-0.0925,-1.2364,-1.4208,-106.05,-3.75,54.15,20.9325,5.2122,-6.4093,-1.3592,1.8858,2.8674,-80.25,1.65,28.95,-1.8,-2.77,-12.23,0.7058,-3.903,1.4846,35.0,28.1875,43.6875,40.25,-37.5,159.6875,0
1776973382.885,12.1985,9.2536,-2.0375,0.5255,-1.0632,-1.7549,-106.05,-3.75,54.15,20.9325,5.2122,-6.4093,-1.3592,1.8858,2.8674,-77.25,0.9,30.9,0.08,-4.36,-14.03,0.7778,-4.5346,1.8435,35.0,28.1875,43.6875,41.0625,-40.25,159.375,0
1776973382.893,12.1985,9.2536,-2.0375,0.5255,-1.0632,-1.7549,-107.85,-2.55,54.45,21.5095,4.3431,-6.0908,-1.3339,1.874,2.9068,-77.25,0.9,30.9,0.28,-5.8,-14.21,0.8432,-5.3887,2.3137,35.0,28.1875,43.6875,83.375,-43.5,159.0,0
1776973382.898,14.5017,4.7214,-2.7892,0.9822,-1.9478,-1.9702,-112.05,-1.95,53.25,20.3747,2.4948,-5.2098,-1.2532,1.8503,2.7528,-77.25,0.9,30.9,0.28,-5.8,-14.21,0.8432,-5.3887,2.3137,35.0,28.1875,43.6875,80.0,-47.4375,158.75,0
1776973382.905,13.0987,6.6655,-1.1732,2.1016,-2.3918,-2.1338,-112.05,-1.95,53.25,20.3747,2.4948,-5.2098,-1.2532,1.8503,2.7528,-76.8,-3.6,30.15,-0.97,-6.31,-14.45,0.7996,-6.5112,2.8896,35.0,28.1875,43.6875,76.5,-52.125,158.5,0
1776973382.915,13.5201,3.8523,-3.0718,1.7269,-2.2751,-2.3419,-114.6,-0.9,52.8,17.6668,0.1796,-3.3255,-1.258,1.7325,2.517,-74.85,-3.6,32.4,-3.96,-5.81,-15.0,0.8301,-7.7602,3.3412,35.0,28.1875,43.6875,76.5,-52.125,158.5,0
1776973382.92,13.5201,3.8523,-3.0718,1.7269,-2.2751,-2.3419,-111.45,-0.3,50.55,14.4442,-3.4333,1.6712,-1.0709,1.7312,2.3081,-74.85,-3.6,32.4,-3.96,-5.81,-15.0,0.8301,-7.7602,3.3412,35.0,28.1875,43.6875,73.5625,-57.3125,157.75,0
1776973382.925,14.3461,0.5578,-2.1739,1.3616,-2.3808,-2.3699,-111.45,-0.3,50.55,14.4442,-3.4333,1.6712,-1.0709,1.7312,2.3081,-73.95,-7.35,31.35,-15.64,-4.4,-15.9,1.201,-8.7419,3.4132,42.75,28.5625,35.5,73.5625,-57.3125,157.75,0
1776973382.93,14.3461,0.5578,-2.1739,1.3616,-2.3808,-2.3699,-111.45,-0.3,50.55,11.7483,-4.8578,4.968,-0.6635,1.97,2.2252,-73.95,-7.35,31.35,-15.64,-4.4,-15.9,1.201,-8.7419,3.4132,42.75,28.5625,35.5,71.5,-62.625,156.25,0
1776973382.935,14.9685,-2.1524,-0.5171,1.1964,-2.5266,-2.2753,-111.45,-0.3,50.55,11.7483,-4.8578,4.968,-0.6635,1.97,2.2252,-73.2,-6.15,32.55,-16.97,-5.41,-15.23,1.7006,-9.0364,3.1667,42.75,28.5625,35.5,71.5,-62.625,156.25,0
1776973382.94,14.9685,-2.1524,-0.5171,1.1964,-2.5266,-2.2753,-110.4,4.5,48.45,11.2743,-5.2984,7.762,-0.4882,2.1442,2.1149,-73.2,-6.15,32.55,-16.97,-5.41,-15.23,2.0955,-8.6546,2.846,42.75,28.5625,35.5,70.25,-67.625,153.8125,0
1776973382.946,15.9669,-4.4604,1.6712,1.1567,-2.5652,-2.205,-108.0,6.15,43.95,11.2743,-4.4628,7.1204,-0.6595,2.2985,2.0272,-73.2,-6.15,32.55,-19.1,-6.32,-15.9,2.0955,-8.6546,2.846,42.75,28.5625,35.5,69.6875,-72.0625,150.375,0
1776973382.955,16.4721,-5.5641,2.624,0.9302,-2.4682,-2.1562,-105.3,7.05,42.0,11.497,-4.4915,5.1404,-0.6595,2.2985,2.0272,-69.6,-7.5,35.7,-14.07,-8.61,-15.7,2.4936,-7.7154,2.5765,42.75,28.5625,35.5,69.6875,-72.0625,150.375,0
1776973382.965,15.4881,-5.9233,3.4213,0.0754,-1.9425,-2.0025,-104.55,9.3,41.55,12.038,-4.5442,4.2306,-0.9278,2.3281,1.8991,-69.6,-7.5,35.7,-8.08,-8.18,-15.94,2.5765,-6.8002,2.5831,42.75,28.5625,35.5,69.375,-76.0,146.3125,0
1776973382.97,15.4881,-5.9233,3.4213,0.0754,-1.9425,-2.0025,-104.55,9.3,41.55,12.038,-4.5442,4.2306,-0.8383,2.2239,1.6292,-69.6,-7.5,35.7,-8.08,-8.18,-15.94,2.5765,-6.8002,2.5831,42.75,28.5625,35.5,69.375,-76.0,146.3125,0
1776973382.975,16.0771,-5.6192,4.2952,-0.4519,-1.8823,-1.8194,-104.55,9.3,41.55,11.6717,-5.8419,5.2696,-0.5833,1.8234,1.1604,-66.15,-11.1,35.7,-0.24,-7.07,-13.58,2.6813,-6.0203,2.8176,55.1875,24.1875,13.5,69.0625,-79.625,141.5625,0
1776973382.98,16.0771,-5.6192,4.2952,-0.4519,-1.8823,-1.8194,-104.55,9.3,41.55,11.6717,-5.8419,5.2696,-0.5833,1.8234,1.1604,-66.15,-11.1,35.7,-0.24,-7.07,-13.58,2.6813,-6.0203,2.8176,55.1875,24.1875,13.5,69.0625,-79.625,141.5625,0
1776973382.985,14.3556,-5.0302,4.7094,-0.8863,-1.7965,-1.6782,-99.9,10.5,36.3,9.8928,-8.43,8.1499,0.4463,1.3648,0.6305,-66.0,-11.25,36.15,4.96,2.56,-7.0,2.8722,-5.6614,3.327,55.1875,24.1875,13.5,68.625,-83.25,175.25,0
1776973382.991,13.1059,-4.0749,5.2409,-0.9497,-1.8029,-1.6076,-99.9,10.5,36.3,9.8928,-8.43,8.1499,0.4463,1.3648,0.6305,-66.0,-11.25,36.15,-21.56,-3.63,-11.94,2.6933,-5.7454,4.1299,55.1875,24.1875,13.5,67.6875,-87.0,177.4375,0
1776973382.996,13.1059,-4.0749,5.2409,-0.9497,-1.8029,-1.6076,-98.55,10.2,34.95,5.6336,-8.2839,11.3102,1.0344,0.6901,0.4114,-65.25,-11.25,35.85,-21.56,-3.63,-11.94,2.6933,-5.7454,4.1299,55.1875,24.1875,13.5,67.1875,-89.1875,0.4375,0
1776973383.005,12.0787,-2.8539,5.8275,-0.9651,-1.8016,-1.6244,-96.75,12.45,33.9,3.4453,-6.9647,9.2703,0.5556,0.4535,0.2894,-64.5,-11.25,35.85,-20.47,-10.97,-12.5,2.9485,-3.8201,3.7765,55.1875,24.1875,13.5,67.4375,-88.5625,-1.0,0
1776973383.015,12.2655,-1.8914,4.446,-1.2894,-1.7187,-1.7232,-95.7,14.4,32.1,3.1508,-6.7373,9.4451,0.1665,0.2491,-0.0645,-64.8,-9.0,36.6,-13.82,-11.05,-11.49,3.1089,-0.6294,2.6147,55.1875,24.1875,13.5,67.4375,-88.5625,-1.0,0
1776973383.02,9.6941,-0.5195,2.8563,-1.1847,-2.234,-1.8258,-95.7,14.4,32.1,3.1508,-6.7373,9.4451,0.1665,0.2491,-0.0645,-64.8,-9.0,36.6,-13.82,-11.05,-11.49,3.1089,-0.6294,2.6147,55.1875,24.1875,13.5,67.4375,-88.5625,-1.0,0
1776973383.025,9.6941,-0.5195,2.8563,-1.1847,-2.234,-1.8258,-95.1,14.55,30.9,2.7174,-6.3039,8.1259,-0.2832,-0.2188,-0.5313,-64.65,-9.45,35.7,-5.34,-14.65,-11.12,2.4827,1.8075,1.2501,56.75,18.6875,-9.5625,68.125,-88.25,-178.25,0
1776973383.03,11.1713,0.7614,1.8076,-2.0976,-2.0051,-1.8532,-95.1,14.55,30.9,2.7174,-6.3039,8.1259,-0.2832,-0.2188,-0.5313,-64.65,-9.45,35.7,-5.34,-14.65,-11.12,2.4827,1.8075,1.2501,56.75,18.6875,-9.5625,68.125,-88.25,-178.25,0
1776973383.035,11.1713,0.7614,1.8076,-2.0976,-2.0051,-1.8532,-95.1,14.55,30.9,2.3583,-5.1667,5.0877,-1.2241,-0.4354,-0.9377,-64.65,-9.45,35.7,-2.72,-13.61,-8.37,1.393,3.1667,0.3425,56.75,18.6875,-9.5625,68.625,-87.3125,-178.0625,0
1776973383.04,10.2879,2.2386,1.7214,-2.3979,-1.881,-1.922,-95.1,14.55,30.9,2.3583,-5.1667,5.0877,-1.2241,-0.4354,-0.9377,-64.65,-9.45,35.7,-2.72,-13.61,-8.37,0.1942,3.6303,-0.1145,56.75,18.6875,-9.5625,68.75,-85.6875,-178.125,0
1776973383.046,10.2879,2.2386,1.7214,-2.3979,-1.881,-1.922,-96.15,17.25,29.85,2.6288,-3.8379,3.6368,-2.0435,-0.6555,-1.2724,-66.75,-10.95,34.05,0.42,-11.78,-5.6,0.1942,3.6303,-0.1145,56.75,18.6875,-9.5625,68.4375,-83.875,-178.25,0
1776973383.055,9.8928,3.2561,1.5083,-2.1591,-1.445,-1.9998,-94.05,16.05,30.6,1.8794,-3.1891,3.1196,-2.2247,-0.8926,-1.5449,-66.75,-10.95,34.05,2.56,-4.65,-2.49,-0.6698,3.6816,-0.312,56.75,18.6875,-9.5625,68.0625,-81.9375,-169.5,0
1776973383.065,8.9184,3.9313,1.3216,-1.8175,-1.3022,-2.1237,-95.4,16.5,30.6,1.1756,-3.0502,3.1388,-1.8282,-0.9358,-1.7666,-67.5,-9.75,33.3,2.69,-2.44,-2.19,-0.9905,3.6859,-0.5454,56.75,18.6875,-9.5625,68.0625,-81.9375,-169.5,0
1776973383.07,8.3222,4.6424,1.3001,-1.3899,-1.3829,-2.2196,-95.4,16.5,30.6,1.3623,-2.8898,3.6607,-1.8282,-0.9358,-1.7666,-67.5,-9.75,33.3,2.69,-2.44,-2.19,-0.9905,3.6859,-0.5454,56.75,18.6875,-9.5625,67.9375,-80.0,-173.75,0
1776973383.075,8.3222,4.6424,1.3001,-1.3899,-1.3829,-2.2196,-94.95,18.15,31.8,1.3623,-2.8898,3.6607,-1.1317,-0.9995,-2.0472,-67.5,-10.95,32.85,2.7,-1.2,-1.96,-0.8607,3.6303,-0.8367,55.375,10.375,-12.875,67.9375,-80.0,-173.75,0
1776973383.08,7.853,4.1946,0.8021,-0.8423,-1.1655,-2.2452,-94.95,18.15,31.8,1.221,-2.6911,3.735,-1.1317,-0.9995,-2.0472,-67.5,-10.95,32.85,2.7,-1.2,-1.96,-0.8607,3.6303,-0.8367,55.375,10.375,-12.875,68.1875,-78.0625,-177.5,0
1776973383.085,7.853,4.1946,0.8021,-0.8423,-1.1655,-2.2452,-94.95,18.15,31.8,1.221,-2.6911,3.735,-0.5369,-1.2343,-2.3718,-67.5,-10.05,32.85,2.6,-0.57,-1.84,-0.4865,3.5343,-1.1377,55.375,10.375,-12.875,68.1875,-78.0625,-177.5,0
1776973383.093,6.4045,2.7366,0.1437,-0.6259,-0.793,-2.1567,-95.1,19.8,35.25,1.3599,-2.6288,3.6703,-0.2092,-1.5596,-2.6875,-67.5,-10.05,32.85,1.73,-0.66,-2.46,-0.0153,3.459,-1.4323,55.375,10.375,-12.875,69.0,-76.1875,178.8125,0
1776973383.098,7.7333,1.5802,-0.2442,-0.8881,-0.5151,-2.0326,-95.1,19.8,35.25,1.3599,-2.6288,3.6703,-0.2092,-1.5596,-2.6875,-68.85,-10.65,31.2,1.73,-0.66,-2.46,-0.0153,3.459,-1.4323,55.375,10.375,-12.875,70.3125,-74.25,175.3125,0
1776973383.105,7.7333,1.5802,-0.2442,-0.8881,-0.5151,-2.0326,-95.85,21.75,35.85,1.4485,-2.8228,3.6152,0.0115,-1.8759,-2.9409,-68.85,-10.65,31.2,0.93,-1.4,-3.09,0.4581,3.4318,-1.7431,55.375,10.375,-12.875,72.1875,-72.1875,171.6875,0
1776973383.115,7.367,2.4205,2.5067,-0.0637,-0.4391,-1.7957,-97.35,22.5,34.2,1.0223,-3.2537,2.7054,0.133,-2.1488,-3.0654,-71.1,-6.45,31.95,-0.07,-2.59,-3.86,0.8105,3.4612,-2.0988,55.375,10.375,-12.875,72.1875,-72.1875,171.6875,0
1776973383.12,7.592,3.2561,2.7102,0.453,-0.4418,-1.5268,-97.35,22.5,34.2,1.1349,-4.5681,3.4285,0.2806,-2.2569,-3.1786,-71.1,-6.45,31.95,-0.07,-2.59,-3.86,0.8105,3.4612,-2.0988,55.375,10.375,-12.875,72.1875,-72.1875,171.6875,0
1776973383.125,7.592,3.2561,2.7102,0.453,-0.4418,-1.5268,-95.7,22.95,35.4,1.1349,-4.5681,3.4285,0.2806,-2.2569,-3.1786,-71.1,-6.45,31.95,-2.57,-5.15,-5.16,0.9294,3.5757,-2.5176,54.75,12.75,-4.0625,74.4375,-70.0,168.1875,0
1776973383.13,6.5386,3.4117,3.383,0.8897,-0.5436,-1.2462,-95.7,22.95,35.4,1.336,-3.8978,4.6376,0.5945,-2.3723,-3.2932,-71.1,-6.45,31.95,-2.57,-5.15,-5.16,0.9294,3.5757,-2.5176,54.75,12.75,-4.0625,74.4375,-70.0,168.1875,0
1776973383.135,6.5386,3.4117,3.383,0.8897,-0.5436,-1.2462,-93.9,24.9,37.2,1.336,-3.8978,4.6376,0.5945,-2.3723,-3.2932,-74.1,-4.8,28.65,-3.49,-5.37,-5.85,0.7865,3.7743,-2.9594,54.75,12.75,-4.0625,77.0,-67.5625,164.875,0
1776973383.14,5.5545,2.8012,3.0789,1.2398,-0.481,-0.9377,-93.9,24.9,37.2,1.6855,-3.4788,2.7821,0.2353,-2.4339,-3.5029,-74.1,-4.8,28.65,-3.49,-5.37,-5.85,0.5465,4.0328,-3.3249,54.75,12.75,-4.0625,79.6875,-64.9375,162.0,0
1776973383.146,5.1451,1.9345,3.3926,1.4943,-0.3477,-0.7136,-93.9,24.9,37.2,1.6855,-3.4788,2.7821,0.2353,-2.4339,-3.5029,-76.2,-3.9,29.25,-4.28,-4.69,-6.41,0.5465,4.0328,-3.3249,54.75,12.75,-4.0625,82.625,-62.0,159.625,0
1776973383.155,5.7293,0.8404,3.3184,1.6094,-0.2936,-0.5108,-94.8,25.8,31.95,2.7126,-3.7302,2.5402,-0.0253,-2.5146,-3.6788,-75.9,-2.25,27.0,-5.44,-2.75,-7.32,0.3774,4.275,-3.5768,54.75,12.75,-4.0625,82.625,-62.0,159.625,0
1776973383.165,5.4708,-0.3376,3.2968,1.8098,-0.4586,-0.3054,-96.45,23.7,32.85,3.972,-3.8451,2.5067,0.0554,-2.5375,-3.8288,-76.5,-0.15,27.45,-5.52,-2.02,-7.64,0.3054,4.4811,-3.7045,54.75,12.75,-4.0625,85.75,-58.9375,157.625,0
1776973383.17,5.4708,-0.3376,3.2968,1.8098,-0.4586,-0.3054,-96.45,23.7,32.85,5.0996,-3.3375,2.7078,0.3893,-2.6255,-3.9612,-76.5,-0.15,27.45,-5.52,-2.02,-7.64,0.3054,4.4811,-3.7045,54.75,12.75,-4.0625,89.1875,-55.75,156.125,0
1776973383.175,5.1188,-0.826,2.8874,1.9601,-0.5343,-0.0959,-94.5,24.45,32.55,5.0996,-3.3375,2.7078,0.3893,-2.6255,-3.9612,-79.65,1.05,25.5,-5.91,-1.2,-7.86,0.3327,4.6753,-3.6717,54.1875,18.1875,3.25,89.1875,-55.75,156.125,0
1776973383.18,5.1188,-0.826,2.8874,1.9601,-0.5343,-0.0959,-94.5,24.45,32.55,5.9137,-2.6528,2.2434,0.6003,-2.7147,-4.0412,-79.65,1.05,25.5,-5.91,-1.2,-7.86,0.3327,4.6753,-3.6717,54.1875,18.1875,3.25,92.9375,-52.5,155.0,0
1776973383.185,4.604,-0.8859,2.3056,2.1413,-0.449,0.0903,-96.45,25.65,31.05,6.6631,-2.5522,2.399,0.6003,-2.7147,-4.0412,-79.65,3.0,25.8,-6.27,-0.8,-8.08,0.4178,4.8706,-3.4994,54.1875,18.1875,3.25,92.9375,-52.5,155.0,0
1776973383.191,4.604,-0.8859,2.3056,2.1413,-0.449,0.0903,-96.45,25.65,31.05,6.6631,-2.5522,2.399,0.8316,-2.7989,-4.1366,-79.65,3.0,25.8,-6.89,-0.35,-8.66,0.5585,5.0407,-3.2365,54.1875,18.1875,3.25,97.0625,-49.1875,154.1875,0
1776973383.196,4.7405,-1.3767,1.9178,2.1101,-0.392,0.2505,-96.45,25.65,31.05,7.4867,-3.4405,2.976,1.0227,-2.9846,-4.2423,-79.65,3.0,25.8,-6.89,-0.35,-8.66,0.5585,5.0407,-3.2365,54.1875,18.1875,3.25,101.625,-45.9375,153.5,0
1776973383.205,4.2904,-1.8603,1.3479,1.874,-0.1705,0.4362,-97.35,27.3,29.55,8.1858,-4.2665,3.4285,1.0842,-3.2026,-4.302,-80.4,7.35,21.0,-6.8,-0.31,-8.93,0.7559,5.1465,-2.942,54.1875,18.1875,3.25,101.625,-45.9375,153.5,0
1776973383.215,4.3359,-2.5379,1.6017,1.7528,0.0669,0.5766,-98.85,24.45,30.0,8.9974,-5.0829,3.9025,0.9662,-3.4003,-4.2924,-80.4,7.35,21.0,-6.63,-0.25,-9.15,1.0221,5.1684,-2.6802,54.1875,18.1875,3.25,106.75,-42.6875,152.9375,0
1776973383.22,4.3359,-2.5379,1.6017,1.7528,0.0669,0.5766,-97.95,24.75,30.15,8.9974,-5.0829,3.9025,0.9662,-3.4003,-4.2924,-80.4,7.35,21.0,-6.63,-0.25,-9.15,1.0221,5.1684,-2.6802,54.1875,18.1875,3.25,112.5,-39.5625,152.25,0
1776973383.225,5.2625,-2.5618,1.3288,1.8562,0.2451,0.6947,-97.95,24.75,30.15,10.1658,-5.4157,3.972,0.8079,-3.6484,-4.2541,-82.5,10.35,19.05,-6.48,-0.47,-9.73,1.3461,5.0669,-2.4576,48.6875,28.875,14.6875,112.5,-39.5625,152.25,0
1776973383.23,5.2625,-2.5618,1.3288,1.8562,0.2451,0.6947,-97.8,24.45,28.95,10.1658,-5.4157,3.972,0.8079,-3.6484,-4.2541,-82.5,10.35,19.05,-6.48,-0.47,-9.73,1.3461,5.0669,-2.4576,48.6875,28.875,14.6875,118.875,-36.625,151.4375,0
1776973383.235,5.9999,-3.292,1.233,1.3752,0.481,0.7714,-97.8,24.45,28.95,10.9271,-6.4524,3.5817,0.4727,-3.8722,-4.1565,-82.5,10.35,19.05,-6.89,-1.18,-10.53,1.669,4.8106,-2.2493,48.6875,28.875,14.6875,118.875,-36.625,151.4375,0
1776973383.24,5.9999,-3.292,1.233,1.3752,0.481,0.7714,-100.2,24.0,29.85,10.9271,-6.4524,3.5817,0.4727,-3.8722,-4.1565,-83.1,13.95,18.0,-6.89,-1.18,-10.53,1.9559,4.4342,-2.03,48.6875,28.875,14.6875,53.3125,-33.9375,150.5,0
1776973383.246,5.5402,-4.0414,1.1444,1.0994,0.5806,0.8236,-100.2,24.0,29.85,11.8034,-8.3462,4.1061,0.0815,-3.9218,-4.0614,-83.85,15.9,15.45,-8.08,-2.01,-11.81,1.9559,4.4342,-2.03,48.6875,28.875,14.6875,53.25,-31.4375,149.375,0
1776973383.255,6.1435,-4.6208,0.6249,0.6275,0.6843,0.8636,-100.2,24.0,29.85,12.5887,-9.3446,5.8131,-0.3632,-3.9309,-4.0937,-83.85,15.9,15.45,-13.46,-4.04,-14.74,2.2711,4.1397,-1.897,48.6875,28.875,14.6875,53.25,-31.4375,149.375,0
1776973383.265,6.6583,-4.9105,0.7087,0.0738,0.814,0.8823,-101.4,21.15,29.25,12.3565,-8.2456,8.0804,-0.737,-3.9895,-4.1009,-83.7,19.35,14.25,-15.25,-5.9,-15.18,2.5318,4.1801,-1.9264,48.6875,28.875,14.6875,53.1875,-28.875,148.125,0
1776973383.27,6.6583,-4.9105,0.7087,0.0738,0.814,0.8823,-100.2,22.5,29.55,12.3565,-8.2456,8.0804,-0.737,-3.9895,-4.1009,-83.7,19.35,14.25,-15.25,-5.9,-15.18,2.5318,4.1801,-1.9264,48.6875,28.875,14.6875,53.1875,-28.875,148.125,0
1776973383.275,7.2496,-4.1444,1.0151,-0.4647,0.8567,1.0006,-100.2,22.5,29.55,12.5672,-5.7485,6.608,-1.1495,-3.9319,-4.0377,-83.7,19.35,14.25,-16.5,-7.27,-15.41,2.5842,4.4277,-2.1064,39.5,38.0625,21.75,53.0625,-26.1875,146.875,0
1776973383.28,7.2496,-4.1444,1.0151,-0.4647,0.8567,1.0006,-101.1,19.65,28.95,12.5672,-5.7485,6.608,-1.1495,-3.9319,-4.0377,-83.7,20.85,10.8,-16.5,-7.27,-15.41,2.5842,4.4277,-2.1064,39.5,38.0625,21.75,53.0625,-26.1875,146.875,0
1776973383.285,7.7141,-1.6448,1.3815,-1.0,1.109,1.2638,-101.1,19.65,28.95,13.8576,-2.909,5.2385,-1.4384,-3.8323,-3.8184,-83.7,20.85,10.8,-17.95,-8.47,-15.42,2.3616,4.5575,-2.4042,39.5,38.0625,21.75,52.75,-23.375,145.6875,0
1776973383.292,7.9033,1.7023,0.9673,-1.3925,1.17,1.5079,-98.85,20.7,30.0,14.0755,-0.5674,4.2689,-1.615,-3.6721,-3.5549,-83.7,20.85,10.8,-21.53,-8.27,-14.02,1.8937,4.4986,-2.6889,39.5,38.0625,21.75,52.25,-20.4375,144.75,0
1776973383.297,7.9033,1.7023,0.9673,-1.3925,1.17,1.5079,-98.85,20.7,30.0,14.0755,-0.5674,4.2689,-1.615,-3.6721,-3.5549,-82.5,25.2,7.2,-21.53,-8.27,-14.02,1.8937,4.4986,-2.6889,39.5,38.0625,21.75,51.5,-17.5625,144.0,0
1776973383.306,8.3749,4.0917,-0.6752,-1.607,0.9625,1.5234,-98.85,20.7,30.0,13.0747,0.7949,2.8994,-1.5823,-3.4059,-3.2087,-82.5,25.2,7.2,-23.98,-6.35,-12.91,1.3548,4.3404,-2.906,39.5,38.0625,21.75,50.625,-14.6875,143.5,0
1776973383.316,9.7013,5.7868,-4.1276,-1.4426,0.6446,1.3534,-100.5,19.8,31.65,11.0157,2.7964,1.4772,-0.6571,-3.1824,-2.7462,-82.65,26.55,5.85,-25.82,-4.76,-11.14,0.9163,4.2455,-3.0761,39.5,38.0625,21.75,50.625,-14.6875,143.5,0
1776973383.321,12.7348,8.1738,-8.1906,-1.1807,0.9395,1.2782,-101.1,19.95,31.5,8.5449,-1.0439,-3.9361,-0.4732,-2.3041,-2.3942,-83.1,27.0,5.85,-25.82,-4.76,-11.14,0.9163,4.2455,-3.0761,39.5,38.0625,21.75,49.6875,-11.75,143.25,0
1776973383.326,12.7348,8.1738,-8.1906,-1.1807,0.9395,1.2782,-101.1,19.95,31.5,8.5449,-1.0439,-3.9361,-0.4732,-2.3041,-2.3942,-83.1,27.0,5.85,-26.25,-7.14,-1.98,0.4385,4.2499,-3.1318,29.875,45.5,22.6875,49.6875,-11.75,143.25,0
1776973383.33,15.84,11.9926,-9.9,-1.3715,1.0214,1.3712,-100.5,20.25,33.0,7.2305,-1.7142,2.3152,0.7384,-1.9105,-2.0635,-83.1,28.05,3.6,-26.25,-7.14,-1.98,0.4385,4.2499,-3.1318,29.875,45.5,22.6875,48.8125,-8.875,143.5625,0
1776973383.335,15.84,11.9926,-9.9,-1.3715,1.0214,1.3712,-100.5,20.25,33.0,7.2305,-1.7142,2.3152,0.7384,-1.9105,-2.0635,-83.1,28.05,3.6,-25.93,-9.94,1.91,-0.4636,4.2281,-2.9638,29.875,45.5,22.6875,48.8125,-8.875,143.5625,0
1776973383.34,13.0556,15.4234,-9.7516,-0.8897,1.069,1.1914,-100.8,21.9,33.3,5.873,-2.2122,4.1468,0.5721,-1.0208,-1.7946,-83.4,29.25,2.55,-25.93,-9.94,1.91,-1.5315,3.8484,-2.4249,29.875,45.5,22.6875,48.0625,-6.375,144.4375,0
1776973383.346,13.0556,15.4234,-9.7516,-0.8897,1.069,1.1914,-100.8,21.9,33.3,5.873,-2.2122,4.1468,0.5721,-1.0208,-1.7946,-83.4,29.25,2.55,-25.22,-4.51,3.88,-1.5315,3.8484,-2.4249,29.875,45.5,22.6875,47.5625,-4.3125,145.375,0
1776973383.355,14.1162,18.148,-8.1523,-0.0368,0.0549,0.8796,-101.85,21.45,32.55,6.5122,-4.4676,2.5618,0.0069,-0.5662,-1.4703,-82.65,30.45,2.85,-24.25,7.72,6.15,-1.6897,3.2452,-1.862,29.875,45.5,22.6875,47.5625,-4.3125,145.375,0
1776973383.366,11.8752,16.5655,-8.4755,0.6875,-0.2726,0.7128,-101.85,21.45,32.55,6.7564,-3.541,1.1923,-0.5444,-0.0506,-0.8511,-82.65,30.45,2.85,-24.49,12.66,7.19,-0.6698,2.4882,-1.3559,29.875,45.5,22.6875,47.1875,-2.75,145.75,0
1776973383.37,9.2919,13.5727,-7.3454,1.2604,-0.3115,0.6307,-101.25,25.5,31.35,6.8331,-2.047,0.316,-1.0224,0.4357,-0.0211,-81.3,31.5,0.45,-24.49,12.66,7.19,-0.6698,2.4882,-1.3559,29.875,45.5,22.6875,47.1875,-2.75,145.75,0
1776973383.376,9.2919,13.5727,-7.3454,1.2604,-0.3115,0.6307,-101.25,25.5,31.35,6.8331,-2.047,0.316,-1.0224,0.4357,-0.0211,-81.3,31.5,0.45,-24.24,15.82,7.82,1.1214,1.741,-0.9937,16.5,48.875,25.1875,47.0,-1.625,145.125,0
1776973383.38,9.153,10.5369,-5.7868,0.996,-0.2028,0.5913,-102.0,27.3,32.7,7.197,-0.3879,0.2682,-1.0219,0.781,0.748,-81.3,31.5,0.45,-24.24,15.82,7.82,1.1214,1.741,-0.9937,16.5,48.875,25.1875,47.0,-1.625,145.125,0
1776973383.386,9.153,10.5369,-5.7868,0.996,-0.2028,0.5913,-102.0,27.3,32.7,7.197,-0.3879,0.2682,-1.0219,0.781,0.748,-81.3,31.5,0.45,-23.49,15.57,7.76,3.0478,0.9436,-0.8323,16.5,48.875,25.1875,46.6875,-0.9375,143.4375,0
1776973383.394,8.3677,8.2552,-2.5714,0.4002,0.6811,0.4735,-102.3,25.5,31.95,10.4914,1.9417,2.7198,-0.5974,1.2161,1.0962,-81.15,30.9,2.85,-7.11,-23.48,1.84,3.0838,-0.1538,-1.2435,16.5,48.875,25.1875,46.0,-0.5625,141.75,0
1776973383.399,9.3206,4.9704,-0.7159,0.0434,0.9172,0.465,-101.7,25.5,32.7,12.8018,6.0071,-1.4389,-0.1002,1.2521,1.1255,-82.65,30.45,4.35,-7.11,-23.48,1.84,3.0838,-0.1538,-1.2435,16.5,48.875,25.1875,45.0,-1.8125,142.375,0
1776973383.406,9.3206,4.9704,-0.7159,0.0434,0.9172,0.465,-101.7,25.5,32.7,13.9845,11.6669,-5.5091,-0.1002,1.2521,1.1255,-82.65,30.45,4.35,4.84,-3.0,-2.44,-1.2086,-3.3347,-0.6959,16.5,48.875,25.1875,44.4375,-3.875,143.625,0
1776973383.416,8.5712,1.9513,1.0439,-1.3097,1.3502,0.963,-101.7,25.5,32.7,15.05,15.8424,-7.7069,-1.1455,0.9121,0.5841,-83.25,29.1,4.5,-4.9,-6.7,-12.09,-2.3856,-4.263,0.5498,16.5,48.875,25.1875,44.4375,-3.875,143.625,0
1776973383.421,8.0996,-0.2107,1.6688,-1.3097,1.3502,0.963,-101.7,25.5,32.7,15.05,15.8424,-7.7069,-1.3861,-0.1516,-0.1793,-81.3,27.9,6.75,-4.9,-6.7,-12.09,-2.3856,-4.263,0.5498,9.5,49.5,24.1875,43.6875,-5.625,144.4375,0
1776973383.426,7.9296,-0.4262,1.2258,-1.5412,1.0443,0.9459,-101.7,25.5,32.7,5.0422,11.6646,-2.569,-1.3861,-0.1516,-0.1793,-81.3,27.9,6.75,-5.03,-15.63,-5.98,-1.6155,-4.0044,-0.0153,9.5,49.5,24.1875,43.6875,-5.625,144.4375,0
1776973383.431,7.9296,-0.4262,1.2258,-1.5412,1.0443,0.9459,-100.8,23.4,33.9,5.0422,11.6646,-2.569,1.3704,0.3032,-0.1623,-81.3,27.9,6.75,-5.03,-15.63,-5.98,-1.6155,-4.0044,-0.0153,9.5,49.5,24.1875,43.8125,-7.375,145.3125,0
1776973383.436,8.576,1.0582,0.103,-0.7421,1.092,0.9928,-100.8,23.4,33.9,6.4452,2.6145,-0.2203,2.8895,0.9963,0.2041,-81.3,27.9,6.75,-7.02,3.5,-6.56,-1.6984,-2.894,1.285,9.5,49.5,24.1875,43.8125,-7.375,145.3125,0
1776973383.442,8.576,1.0582,0.103,-0.7421,1.092,0.9928,-100.8,20.7,33.9,6.4452,2.6145,-0.2203,2.8895,0.9963,0.2041,-82.35,29.25,6.6,-6.47,5.37,-8.2,-2.8765,-2.4904,2.2166,9.5,49.5,24.1875,44.5,-9.1875,146.9375,0
1776973383.447,10.8721,1.8244,-0.8595,0.6246,0.7938,1.2508,-99.6,22.65,34.35,12.6222,0.7039,-6.6702,2.4221,0.9166,0.473,-82.35,29.25,6.6,-6.47,5.37,-8.2,-2.8765,-2.4904,2.2166,9.5,49.5,24.1875,45.25,-10.9375,148.6875,0
1776973383.456,15.4139,0.9984,-2.6312,1.9148,0.749,1.5362,-97.35,21.0,32.7,16.1944,0.6225,-11.3988,0.8799,0.3328,0.5295,-82.35,29.25,6.6,-1.76,2.12,-13.42,-3.0194,-2.2624,2.2558,9.5,49.5,24.1875,45.875,-12.5625,150.0,0
1776973383.466,19.6851,0.7518,-2.4469,2.6001,0.7088,1.6499,-97.35,21.0,32.7,16.0819,-2.4253,-1.4988,1.428,0.445,0.7847,-82.2,29.1,5.7,-2.07,5.8,-14.89,-2.2569,-2.1609,1.9973,9.5,49.5,24.1875,45.875,-12.5625,150.0,0
1776973383.471,19.6851,0.7518,-2.4469,2.6001,0.7088,1.6499,-97.35,21.0,32.7,16.0819,-2.4253,-1.4988,1.428,0.445,0.7847,-81.75,29.55,4.95,-2.07,5.8,-14.89,-2.2569,-2.1609,1.9973,9.5,49.5,24.1875,46.4375,-14.4375,150.625,0
1776973383.476,22.0434,2.1763,-1.3096,2.5255,0.3776,1.4568,-97.35,21.0,32.7,13.5655,-3.5506,2.0351,1.1367,1.0922,1.1016,-81.75,29.55,4.95,-13.77,-9.95,-15.92,-1.0952,-2.9431,1.8686,14.0625,49.5625,24.25,46.4375,-14.4375,150.625,0
1776973383.481,22.0434,2.1763,-1.3096,2.5255,0.3776,1.4568,-97.65,20.25,31.65,13.5655,-3.5506,2.0351,1.1367,1.0922,1.1016,-81.15,30.0,6.9,-13.77,-9.95,-15.92,-1.0952,-2.9431,1.8686,14.0625,49.5625,24.25,47.3125,-16.375,151.625,0
1776973383.486,19.3571,5.0542,-2.0423,2.3942,-0.1175,1.0139,-99.3,21.9,30.75,14.2718,-3.8834,-0.4597,0.7144,1.3326,1.1858,-81.15,30.0,6.9,-19.29,-1.26,-13.73,-1.4508,-2.6191,2.4751,14.0625,49.5625,24.25,47.3125,-16.375,151.625,0
1776973383.493,19.3571,5.0542,-2.0423,2.3942,-0.1175,1.0139,-99.3,21.9,30.75,13.2375,-4.7333,0.3232,0.7144,1.3326,1.1858,-81.15,27.75,6.6,-6.46,-3.15,-11.16,-1.3221,-1.657,1.8424,14.0625,49.5625,24.25,48.0,-17.6875,152.5,0
1776973383.498,12.4379,5.7868,-2.4229,2.7038,-1.2175,0.3424,-97.8,22.65,28.65,13.2375,-4.7333,0.3232,0.1697,1.2265,1.0168,-82.5,27.45,6.45,-6.46,-3.15,-11.16,-1.3221,-1.657,1.8424,14.0625,49.5625,24.25,48.5,-18.8125,153.25,0
1776973383.506,7.446,2.466,-0.1676,1.1519,0.2377,-0.0333,-96.9,23.25,27.0,10.3046,-3.8451,-0.2418,0.304,1.169,0.9084,-82.5,27.45,6.45,-10.18,0.27,-13.18,-1.1377,-1.5228,1.4803,14.0625,49.5625,24.25,48.875,-19.5625,153.8125,0
1776973383.516,8.0565,-1.1277,0.996,0.141,-0.2254,-0.1324,-96.9,23.25,27.0,8.4108,-0.723,-1.2402,0.2526,1.0501,0.9308,-82.35,28.05,6.15,-7.41,-0.4,-11.0,-0.889,-1.0188,1.0188,14.0625,49.5625,24.25,48.875,-19.5625,153.8125,0
1776973383.521,8.0565,-1.1277,0.996,0.141,-0.2254,-0.1324,-96.9,23.25,27.0,8.4108,-0.723,-1.2402,0.2526,1.0501,0.9308,-82.35,28.05,6.15,-7.41,-0.4,-11.0,-0.889,-1.0188,1.0188,14.0625,49.5625,24.25,48.875,-19.5625,153.8125,0
1776973383.526,5.0877,-3.8331,2.2051,-1.3062,0.0621,-0.0477,-96.9,23.25,27.0,7.9727,1.0367,1.0367,0.0131,1.0786,0.9737,-82.35,28.05,6.15,-4.22,-4.0,-8.75,-0.7189,-0.6654,0.7418,22.0,46.5625,26.6875,49.125,-20.0625,154.25,0
1776973383.531,5.0877,-3.8331,2.2051,-1.3062,0.0621,-0.0477,-96.9,23.25,27.0,8.5904,1.81,2.7246,0.0131,1.0786,0.9737,-81.9,26.1,7.35,-4.22,-4.0,-8.75,-0.7189,-0.6654,0.7418,22.0,46.5625,26.6875,49.125,-20.0625,154.25,0
1776973383.536,5.7317,-4.7573,1.5036,-1.497,1.6062,0.0493,-97.35,26.25,29.85,8.5904,1.81,2.7246,0.0682,1.0493,0.9385,-81.9,26.1,7.35,-4.53,-2.88,-8.96,-0.6218,-0.7079,0.6229,22.0,46.5625,26.6875,49.3125,-20.5625,154.6875,0
1776973383.541,5.7317,-4.7573,1.5036,-1.497,1.6062,0.0493,-97.35,26.25,29.85,9.3374,2.8276,2.2936,0.0682,1.0493,0.9385,-81.9,26.1,7.35,-4.53,-2.88,-8.96,-0.6229,-0.6676,0.5509,22.0,46.5625,26.6875,49.5,-21.0625,155.0625,0
1776973383.547,7.3526,-3.8666,0.0431,-0.7807,1.6177,0.2161,-100.8,25.2,31.8,9.3374,2.8276,2.2936,0.2092,1.0032,0.8316,-81.9,26.1,7.35,-4.45,-3.44,-8.57,-0.6229,-0.6676,0.5509,22.0,46.5625,26.6875,49.625,-21.4375,155.4375,0
1776973383.556,5.8514,-3.6344,-0.0072,0.0533,0.7885,0.5308,-102.6,22.2,34.35,9.991,3.1388,1.3168,0.5662,0.9409,0.7304,-82.5,27.15,9.0,-4.37,-4.35,-8.33,-0.6109,-0.564,0.4865,22.0,46.5625,26.6875,49.625,-21.4375,155.4375,0
1776973383.566,6.3877,-3.5362,0.0024,0.4034,0.2667,0.9385,-101.25,21.3,33.0,10.1586,2.7031,1.1995,1.157,0.8513,0.6856,-82.65,25.05,9.9,-5.24,-3.95,-8.9,-0.6425,-0.4952,0.444,22.0,46.5625,26.6875,49.75,-21.8125,155.875,0
1776973383.571,6.3877,-3.5362,0.0024,0.4586,0.3539,1.339,-101.25,21.3,33.0,9.9479,2.3894,1.1899,1.5785,0.8124,0.6805,-82.95,25.2,8.7,-5.24,-3.95,-8.9,-0.6425,-0.4952,0.444,22.0,46.5625,26.6875,49.8125,-22.0625,156.3125,0
1776973383.576,7.7213,-3.5626,0.6536,0.4586,0.3539,1.339,-101.25,21.3,33.0,9.9479,2.3894,1.1899,1.5785,0.8124,0.6805,-82.95,25.2,8.7,-5.44,-4.02,-8.51,-0.6883,-0.3523,0.4211,25.6875,43.6875,27.5,49.8125,-22.0625,156.3125,0
1776973383.581,10.5465,-3.2202,0.9649,0.5508,0.6582,1.4845,-101.25,21.3,33.0,9.9671,1.3072,1.8507,1.4863,0.753,0.6664,-82.35,26.55,10.65,-5.44,-4.02,-8.51,-0.6883,-0.3523,0.4211,25.6875,43.6875,27.5,49.9375,-22.25,156.75,0
1776973383.586,10.5465,-3.2202,0.9649,0.5508,0.6582,1.4845,-101.1,13.95,32.85,9.9671,1.3072,1.8507,1.4863,0.753,0.6664,-82.35,26.55,10.65,-4.1,-3.21,-8.43,-0.7079,-0.1691,0.3567,25.6875,43.6875,27.5,49.9375,-22.25,156.75,0
1776973383.592,11.8585,-2.1955,2.0207,0.6571,0.4802,1.3406,-101.1,13.95,32.85,9.6223,0.0072,2.3415,1.0032,0.7064,0.6582,-82.35,26.55,10.65,-4.36,-3.33,-8.43,-0.6643,-0.1571,0.3305,25.6875,43.6875,27.5,50.0625,-22.375,157.1875,0
1776973383.597,11.8585,-2.1955,2.0207,0.6571,0.4802,1.3406,-100.35,11.7,32.1,9.6223,0.0072,2.3415,1.0032,0.7064,0.6582,-82.35,26.55,10.65,-4.36,-3.33,-8.43,-0.6643,-0.1571,0.3305,25.6875,43.6875,27.5,50.125,-22.5625,157.5625,0
1776973383.606,10.5417,0.0622,4.4317,1.1072,0.1458,1.0421,-100.05,12.9,30.45,9.9455,-0.5938,1.6903,0.486,0.671,0.6664,-82.95,25.5,9.75,-4.34,-3.24,-8.54,-0.6021,-0.1418,0.3054,25.6875,43.6875,27.5,50.1875,-22.625,157.875,0
1776973383.616,9.323,2.5163,6.3542,1.5207,0.2654,0.724,-97.35,11.25,29.55,10.1658,-0.9888,0.917,0.0919,0.6659,0.6941,-82.95,25.5,9.75,-4.58,-2.9,-8.75,-0.5312,-0.1222,0.2683,25.6875,43.6875,27.5,50.1875,-22.625,157.875,0
1776973383.621,9.3518,3.8116,6.0406,1.3131,0.4804,0.5076,-97.35,11.25,29.55,10.3621,-0.7973,0.6105,-0.2705,0.667,0.7157,-82.5,22.8,10.5,-4.58,-2.9,-8.75,-0.5312,-0.1222,0.2683,25.6875,43.6875,27.5,50.25,-22.75,158.1875,0
1776973383.626,9.3518,3.8116,6.0406,1.3131,0.4804,0.5076,-97.35,11.25,29.55,10.3621,-0.7973,0.6105,-0.2705,0.667,0.7157,-82.5,22.8,10.5,-4.3,-2.92,-8.6,-0.4592,-0.0567,0.216,27.1875,42.5625,27.5625,50.25,-22.75,158.1875,0
1776973383.631,9.9288,4.4269,4.4484,0.6534,0.8476,0.2785,-97.35,11.25,29.55,10.0437,0.3974,0.3208,-0.5391,0.6576,0.7258,-83.85,23.85,11.85,-4.3,-2.92,-8.6,-0.4592,-0.0567,0.216,27.1875,42.5625,27.5625,50.25,-22.75,158.1875,0
1776973383.636,9.9288,4.4269,4.4484,0.6534,0.8476,0.2785,-97.35,11.25,29.55,10.0437,0.3974,0.3208,-0.5391,0.6576,0.7258,-83.85,23.85,11.85,-4.26,-2.8,-8.64,-0.4025,-0.0142,0.18,27.1875,42.5625,27.5625,50.3125,-22.75,158.4375,0
1776973383.641,9.6343,3.8978,2.8515,-0.2134,0.9118,0.2188,-97.35,11.25,29.55,9.6319,1.9106,-0.0239,-0.6968,0.6198,0.7341,-82.5,22.05,10.05,-4.26,-2.8,-8.64,-0.3502,-0.0218,0.1516,27.1875,42.5625,27.5625,50.375,-22.8125,158.6875,0
1776973383.647,9.6343,3.8978,2.8515,-0.2134,0.9118,0.2188,-95.1,13.5,31.65,9.2943,3.2441,-0.2155,-0.6747,0.5796,0.7568,-82.5,22.05,10.05,-4.12,-2.93,-8.51,-0.3502,-0.0218,0.1516,27.1875,42.5625,27.5625,50.375,-22.875,158.875,0
1776973383.656,9.3374,3.6129,1.1851,-0.919,0.9745,0.2827,-95.25,13.2,31.8,9.0668,4.0462,-0.7135,-0.6747,0.5796,0.7568,-81.6,22.95,10.65,-4.15,-3.06,-8.47,-0.3131,-0.0436,0.132,27.1875,42.5625,27.5625,50.4375,-22.9375,159.0625,0
1776973383.666,9.2991,3.2346,-0.6608,-1.1831,1.0019,0.4263,-96.6,13.8,32.7,9.1267,4.0701,-0.8882,-0.0384,0.599,0.8527,-83.4,23.85,12.15,-4.2,-2.95,-8.41,-0.3011,-0.0469,0.1178,27.1875,42.5625,27.5625,50.4375,-22.9375,159.0625,0
1776973383.671,9.268,2.6719,-2.3607,-1.032,0.9475,0.5508,-96.6,13.8,32.7,9.1267,4.0701,-0.8882,-0.0384,0.599,0.8527,-82.65,22.65,11.4,-4.2,-2.95,-8.41,-0.3011,-0.0469,0.1178,27.1875,42.5625,27.5625,50.4375,-22.9375,159.0625,0
1776973383.676,9.268,2.6719,-2.3607,-1.032,0.9475,0.5508,-96.75,13.95,34.35,9.1171,3.7876,-0.759,0.2526,0.607,0.8567,-82.65,22.65,11.4,-4.13,-2.9,-8.4,-0.2978,-0.0382,0.1036,27.875,41.375,28.5,50.4375,-22.9375,159.25,0
1776973383.681,9.4475,2.6791,-3.735,-0.6941,0.9414,0.671,-96.75,13.95,34.35,9.1171,3.7876,-0.759,0.2526,0.607,0.8567,-82.65,22.65,11.4,-4.13,-2.9,-8.4,-0.2978,-0.0382,0.1036,27.875,41.375,28.5,50.4375,-22.9375,159.25,0
1776973383.686,9.4475,2.6791,-3.735,-0.6941,0.9414,0.671,-96.75,13.95,34.35,9.1866,2.8802,-0.5555,0.3203,0.6211,0.8436,-82.65,22.65,11.4,-4.06,-2.84,-8.46,-0.2967,-0.0305,0.0927,27.875,41.375,28.5,50.4375,-23.0,159.4375,0
1776973383.691,9.2512,1.5538,-5.0853,-0.7091,1.1847,0.623,-96.75,13.95,34.35,9.1866,2.8802,-0.5555,0.3203,0.6211,0.8436,-83.7,21.6,11.25,-4.06,-2.84,-8.46,-0.2956,-0.0349,0.0894,27.875,41.375,28.5,50.4375,-23.0625,159.625,0
1776973383.697,10.0796,1.6616,-1.008,0.2992,1.1298,0.3477,-100.5,13.5,36.6,9.177,1.9752,-0.3424,0.2801,0.6392,0.8521,-83.7,21.6,11.25,-3.81,-3.06,-8.27,-0.2956,-0.0349,0.0894,27.875,41.375,28.5,50.5,-23.0625,159.8125,0
1776973383.706,10.0365,2.0255,-4.2401,0.3397,0.2246,0.4852,-100.05,11.4,37.8,8.9878,1.3767,-0.1604,0.0973,0.6619,0.8868,-83.7,21.6,11.25,-3.83,-3.12,-8.23,-0.3076,-0.0447,0.1014,27.875,41.375,28.5,50.5,-23.0625,159.8125,0
1776973383.716,7.015,3.5961,3.8116,1.5319,0.1162,0.5097,-102.3,10.8,37.65,8.8945,1.154,-0.1556,-0.0677,0.7093,0.9244,-84.15,21.0,12.15,-3.93,-3.06,-8.28,-0.3283,-0.0644,0.1309,27.875,41.375,28.5,50.5,-23.125,160.0625,0
1776973383.721,7.015,3.5961,3.8116,1.5319,0.1162,0.5097,-102.3,10.8,37.65,8.8945,1.154,-0.1556,-0.0677,0.7093,0.9244,-83.7,21.6,12.0,-3.93,-3.06,-8.28,-0.3283,-0.0644,0.1309,27.875,41.375,28.5,50.5625,-23.1875,160.25,0
1776973383.726,8.2624,3.9145,1.4461,1.3528,0.8974,0.3371,-102.9,9.45,36.45,9.0357,1.3599,0.1532,-0.1383,0.7389,0.9675,-83.7,21.6,12.0,-4.08,-2.84,-8.32,-0.3316,-0.0633,0.1451,27.375,41.0,28.75,50.5625,-23.1875,160.25,0
1776973383.731,8.2624,3.9145,1.4461,1.3528,0.8974,0.3371,-102.9,9.45,36.45,9.0357,1.3599,0.1532,-0.1383,0.7389,0.9675,-82.95,19.35,13.05,-4.08,-2.84,-8.32,-0.3316,-0.0633,0.1451,27.375,41.0,28.75,50.5625,-23.25,160.4375,0
1776973383.736,8.679,2.3822,-0.5387,0.2769,0.7679,0.3054,-102.9,9.45,36.45,8.9783,1.573,0.3304,-0.1386,0.7565,0.9771,-82.95,19.35,13.05,-4.09,-2.82,-8.37,-0.3382,-0.0524,0.1516,27.375,41.0,28.75,50.5625,-23.25,160.4375,0
1776973383.741,8.679,2.3822,-0.5387,0.2769,0.7679,0.3054,-102.9,9.45,36.45,8.9783,1.573,0.3304,-0.1386,0.7565,0.9771,-83.1,19.95,13.65,-4.09,-2.82,-8.37,-0.3392,-0.0524,0.1549,27.375,41.0,28.75,50.625,-23.375,160.6875,0
1776973383.747,9.5888,0.7183,-0.1293,-0.1865,0.3688,0.3651,-102.9,9.45,36.45,8.9926,1.5993,0.2801,-0.1777,0.7853,0.9824,-83.1,19.95,13.65,-4.12,-2.76,-8.37,-0.3392,-0.0524,0.1549,27.375,41.0,28.75,50.625,-23.375,160.6875,0
1776973383.756,8.9591,0.5291,1.1444,-0.0562,0.0874,0.3536,-100.95,10.8,36.6,9.6103,1.6903,0.5555,-0.1287,0.7711,1.0014,-83.1,19.95,13.65,-4.01,-2.87,-8.29,-0.3425,-0.0545,0.1593,27.375,41.0,28.75,50.6875,-23.4375,160.9375,0
1776973383.761,8.9591,0.5291,1.1444,-0.0562,0.0874,0.3536,-100.05,10.2,36.45,9.6103,1.6903,0.5555,-0.1287,0.7711,1.0014,-83.85,19.05,15.15,-4.01,-2.87,-8.29,-0.3643,-0.0622,0.1724,27.375,41.0,28.75,50.75,-23.5,161.125,0
1776973383.767,9.0716,0.5818,1.4126,-0.0727,0.3704,0.3262,-100.05,10.2,36.45,9.517,1.4341,0.5483,0.0133,0.7306,0.9931,-83.85,19.05,15.15,-4.05,-2.76,-8.43,-0.3643,-0.0622,0.1724,27.375,41.0,28.75,50.75,-23.5,161.125,0
1776973383.772,9.0716,0.5818,1.4126,-0.0727,0.3704,0.3262,-98.55,9.45,35.7,9.4906,0.644,0.5986,0.1628,0.7581,0.9896,-83.85,19.05,15.15,-4.11,-2.73,-8.41,-0.3752,-0.0731,0.18,28.875,40.25,29.1875,50.75,-23.5625,161.375,0
1776973383.777,9.4116,0.3855,1.166,-0.1194,0.408,0.3304,-98.55,9.45,35.7,9.4906,0.644,0.5986,0.1628,0.7581,0.9896,-83.85,19.05,15.15,-4.11,-2.73,-8.41,-0.3752,-0.0731,0.18,28.875,40.25,29.1875,50.75,-23.5625,161.375,0
1776973383.782,9.4116,0.3855,1.166,-0.1194,0.408,0.3304,-98.55,7.95,37.2,9.6031,0.1269,0.8452,0.1948,0.7517,1.0006,-83.1,19.95,14.4,-4.11,-2.73,-8.41,-0.3752,-0.0687,0.1767,28.875,40.25,29.1875,50.8125,-23.625,161.625,0
1776973383.787,9.165,0.2131,0.8619,0.0003,0.4106,0.3443,-98.55,7.95,37.2,9.6031,0.1269,0.8452,0.1948,0.7517,1.0006,-83.1,19.95,14.4,-4.23,-2.61,-8.45,-0.3752,-0.0687,0.1767,28.875,40.25,29.1875,50.8125,-23.625,161.625,0
1776973383.792,9.165,0.2131,0.8619,0.0003,0.4106,0.3443,-98.55,7.95,37.2,9.6079,-0.316,0.8906,0.1332,0.7298,1.0059,-81.6,18.3,13.2,-4.23,-2.61,-8.45,-0.3676,-0.0491,0.1691,28.875,40.25,29.1875,50.875,-23.6875,161.875,0
1776973383.797,9.1674,0.1197,0.6728,0.0045,0.5143,0.3696,-98.55,7.95,37.2,9.6079,-0.316,0.8906,0.1332,0.7298,1.0059,-81.6,18.3,13.2,-4.38,-2.25,-8.65,-0.3676,-0.0491,0.1691,28.875,40.25,29.1875,50.9375,-23.75,162.125,0
1776973383.807,8.6431,-0.2035,0.8523,-0.0115,0.5545,0.4098,-96.9,7.8,37.65,9.8881,-0.3089,0.8475,0.0256,0.676,0.9968,-83.7,17.4,14.25,-4.26,-2.34,-8.55,-0.3414,-0.0425,0.1527,28.875,40.25,29.1875,50.9375,-23.75,162.125,0
1776973383.816,9.4212,-0.0886,0.7254,-0.0485,0.7328,0.4482,-97.8,8.4,36.45,9.7348,-0.5962,0.8188,-0.093,0.6243,0.9638,-83.25,16.2,14.55,-4.07,-2.66,-8.55,-0.3087,-0.0404,0.1385,28.875,40.25,29.1875,50.9375,-23.8125,162.3125,0
1776973383.821,9.4212,-0.0886,0.7254,-0.0485,0.7328,0.4482,-96.6,6.75,37.35,9.5241,-0.668,1.3216,-0.1335,0.6504,0.971,-83.85,15.6,15.45,-4.07,-2.66,-8.55,-0.3087,-0.0404,0.1385,28.875,40.25,29.1875,51.0,-23.8125,162.5,0
1776973383.826,9.3661,0.0455,0.7733,-0.1175,0.6009,0.4831,-96.6,6.75,37.35,9.5241,-0.668,1.3216,-0.1335,0.6504,0.971,-83.85,15.6,15.45,-4.31,-2.37,-8.55,-0.2902,-0.0338,0.1385,27.75,38.75,29.5625,51.0,-23.8125,162.5,0
1776973383.831,9.3661,0.0455,0.7733,-0.1175,0.6009,0.4831,-97.35,6.3,38.7,9.8043,-0.3496,1.2186,-0.1745,0.6227,0.9931,-83.85,15.6,15.45,-4.31,-2.37,-8.55,-0.2902,-0.0338,0.1385,27.75,38.75,29.5625,51.0625,-23.875,162.6875,0
1776973383.836,9.177,0.1556,1.1947,-0.2443,0.5044,0.514,-97.35,6.3,38.7,9.8043,-0.3496,1.2186,-0.1745,0.6227,0.9931,-82.2,16.95,16.05,-4.27,-2.27,-8.62,-0.2836,-0.0262,0.1364,27.75,38.75,29.5625,51.0625,-23.875,162.6875,0
1776973383.841,9.177,0.1556,1.1947,-0.2443,0.5044,0.514,-96.6,7.05,37.05,9.6271,-0.1053,1.0199,-0.1988,0.6339,0.9859,-82.2,16.95,16.05,-4.27,-2.27,-8.62,-0.2662,-0.0273,0.1276,27.75,38.75,29.5625,51.0625,-23.9375,162.875,0
1776973383.847,9.2177,0.6009,1.3862,-0.3802,0.5007,0.5377,-96.6,7.05,37.05,9.6271,-0.1053,1.0199,-0.1988,0.6339,0.9859,-82.2,16.95,16.05,-4.22,-2.37,-8.62,-0.2662,-0.0273,0.1276,27.75,38.75,29.5625,51.0625,-23.9375,162.875,0
1776973383.856,9.5648,0.9912,1.64,-0.4783,0.4935,0.5694,-96.6,7.05,37.05,9.7061,-0.2035,1.2091,-0.1783,0.6243,0.9792,-83.1,17.55,16.2,-4.26,-2.28,-8.59,-0.2509,-0.0327,0.1167,27.75,38.75,29.5625,51.125,-24.0,163.0625,0
1776973383.865,9.5241,1.2737,1.8747,-0.5958,0.445,0.587,-94.8,6.0,38.4,9.7612,-0.6536,1.7741,-0.1514,0.6331,0.9928,-83.1,17.55,16.2,-4.34,-2.06,-8.72,-0.2313,-0.0393,0.1025,27.75,38.75,29.5625,51.125,-24.0,163.25,0
1776973383.87,9.5241,1.2737,1.8747,-0.5958,0.445,0.587,-96.45,6.9,40.35,9.8881,-0.5962,1.4916,-0.1468,0.615,1.0179,-83.1,17.55,16.2,-4.34,-2.06,-8.72,-0.2313,-0.0393,0.1025,27.75,38.75,29.5625,51.125,-24.0,163.25,0
1776973383.874,9.3637,1.5083,2.1284,-0.6526,0.4405,0.5969,-96.45,6.9,40.35,9.8881,-0.5962,1.4916,-0.1468,0.615,1.0179,-82.5,15.75,16.8,-4.39,-1.94,-8.74,-0.1953,-0.0415,0.084,28.5625,39.0625,29.1875,51.1875,-24.0625,163.375,0
1776973383.879,9.3637,1.5083,2.1284,-0.6526,0.4405,0.5969,-95.85,6.75,40.5,9.6582,0.2298,1.1349,-0.1844,0.603,1.0445,-82.5,15.75,16.8,-4.39,-1.94,-8.74,-0.1953,-0.0415,0.084,28.5625,39.0625,29.1875,51.1875,-24.0625,163.375,0
1776973383.884,9.1554,1.8962,2.1572,-0.6075,0.4743,0.5883,-95.85,6.75,40.5,9.6582,0.2298,1.1349,-0.1844,0.603,1.0445,-82.35,13.2,16.95,-4.22,-2.18,-8.67,-0.1767,-0.0415,0.0644,28.5625,39.0625,29.1875,51.1875,-24.0625,163.4375,0
1776973383.889,9.1554,1.8962,2.1572,-0.6075,0.4743,0.5883,-96.45,6.9,40.65,9.5936,0.6033,0.9625,-0.1316,0.6214,1.0685,-82.35,13.2,16.95,-4.22,-2.18,-8.67,-0.1767,-0.0415,0.0644,28.5625,39.0625,29.1875,51.1875,-24.125,163.5625,0
1776973383.897,8.9711,2.2194,1.8292,-0.4631,0.4684,0.5718,-96.45,6.9,40.65,9.6319,0.7925,0.8452,-0.2427,0.6097,1.1069,-82.95,14.55,17.85,-4.22,-2.26,-8.66,-0.1484,-0.0436,0.0589,28.5625,39.0625,29.1875,51.1875,-24.125,163.5625,0
1776973383.904,8.9016,2.4732,1.1325,-0.2502,0.4442,0.5708,-96.45,6.9,40.65,9.6319,0.7925,0.8452,-0.2427,0.6097,1.1069,-81.3,13.05,17.55,-4.11,-2.43,-8.59,-0.1298,-0.0382,0.0589,28.5625,39.0625,29.1875,51.1875,-24.1875,163.625,0
1776973383.909,8.9016,2.4732,1.1325,-0.2502,0.4442,0.5708,-95.1,5.55,41.25,9.6582,0.9218,0.498,-0.206,0.6249,1.1506,-81.3,13.05,17.55,-4.11,-2.43,-8.59,-0.1298,-0.0382,0.0589,28.5625,39.0625,29.1875,51.1875,-24.1875,163.75,0
1776973383.917,9.2296,2.8587,0.2777,-0.06,0.5039,0.5606,-95.1,5.55,41.25,9.6869,1.0223,0.4094,-0.1711,0.6552,1.2087,-81.3,13.05,17.55,-4.1,-2.62,-8.53,-0.1265,-0.0425,0.0676,28.5625,39.0625,29.1875,51.1875,-24.1875,163.75,0
1776973383.922,9.1698,3.1508,-0.4477,0.0962,0.5508,0.5596,-95.1,4.05,41.55,9.6869,1.0223,0.4094,-0.1711,0.6552,1.2087,-81.3,13.05,17.55,-4.1,-2.62,-8.53,-0.1265,-0.0425,0.0676,29.5625,38.375,30.75,51.25,-24.25,163.8125,0
1776973383.927,9.1698,3.1508,-0.4477,0.0962,0.5508,0.5596,-95.1,4.05,41.55,9.8833,0.9122,0.2155,-0.13,0.6997,1.2854,-82.95,12.6,18.6,-4.1,-2.37,-8.8,-0.132,-0.0535,0.0753,29.5625,38.375,30.75,51.25,-24.25,163.8125,0
1776973383.932,9.177,3.5674,-0.9601,0.1537,0.6432,0.5521,-97.35,4.5,43.35,9.8833,0.9122,0.2155,-0.13,0.6997,1.2854,-82.95,12.6,18.6,-4.1,-2.37,-8.8,-0.132,-0.0535,0.0753,29.5625,38.375,30.75,51.25,-24.3125,163.875,0
1776973383.937,9.177,3.5674,-0.9601,0.1537,0.6432,0.5521,-97.35,4.5,43.35,10.0341,1.1923,0.1077,-0.0903,0.7067,1.3579,-82.95,12.6,18.6,-4.17,-2.19,-8.84,-0.1134,-0.0807,0.0862,29.5625,38.375,30.75,51.25,-24.3125,163.875,0
1776973383.943,9.3374,3.6966,-0.8523,0.122,0.6646,0.5295,-97.95,4.05,43.05,10.0341,1.1923,0.1077,-0.0903,0.7067,1.3579,-83.1,12.9,18.45,-4.11,-2.2,-9.07,-0.0785,-0.1113,0.0916,29.5625,38.375,30.75,51.3125,-24.375,163.9375,0
1776973383.948,8.9974,3.4477,-0.4693,0.1199,0.688,0.4767,-98.55,4.65,43.5,9.6031,0.9481,-0.498,-0.0011,0.7663,1.4144,-83.1,12.9,18.45,-4.11,-2.2,-9.07,-0.0785,-0.1113,0.0916,29.5625,38.375,30.75,51.3125,-24.4375,164.0,0
1776973383.957,8.9974,3.4477,-0.4693,0.1199,0.688,0.4767,-98.55,4.65,43.5,9.6127,0.2921,-0.5818,0.0179,0.834,1.4957,-81.15,11.7,19.2,-4.09,-2.15,-9.01,-0.0251,-0.1451,0.0993,29.5625,38.375,30.75,51.375,-24.5625,164.0,0
1776973383.967,9.2775,3.146,-0.4453,0.0525,0.6688,0.4287,-98.55,4.65,43.5,10.1466,0.893,-0.1125,0.0517,0.8711,1.5788,-80.85,9.3,19.2,-3.87,-1.79,-9.4,0.0262,-0.1854,0.0993,29.5625,38.375,30.75,51.375,-24.5625,164.0,0
1776973383.972,10.2927,3.0861,-0.3472,-0.0853,0.4818,0.3973,-97.8,2.7,42.15,10.1466,0.893,-0.1125,0.0517,0.8711,1.5788,-80.85,9.3,19.2,-3.87,-1.79,-9.4,0.0262,-0.1854,0.0993,29.5625,38.375,30.75,51.375,-24.5625,164.0,0
1776973383.977,10.2927,3.0861,-0.3472,-0.1825,0.2481,0.2968,-97.8,2.7,42.15,10.2903,2.5091,0.6895,0.1612,0.8495,1.7102,-81.15,8.55,21.0,-2.88,-1.33,-10.49,0.0665,-0.2422,0.084,29.5625,38.6875,30.375,51.4375,-24.6875,163.9375,0
1776973383.982,10.3453,3.4141,0.2729,-0.1825,0.2481,0.2968,-96.0,1.95,43.5,10.2903,2.5091,0.6895,0.1612,0.8495,1.7102,-81.15,8.55,21.0,-2.88,-1.33,-10.49,0.0665,-0.2422,0.084,29.5625,38.6875,30.375,51.4375,-24.6875,163.9375,0
1776973383.987,10.1801,3.3471,1.0271,-0.2166,0.146,0.1015,-96.6,1.95,43.5,10.422,3.3639,0.8523,0.3491,0.8751,1.8322,-81.6,8.1,20.7,-4.09,-1.19,-9.7,0.1451,-0.3872,0.0753,29.5625,38.6875,30.375,51.4375,-24.9375,163.875,0
1776973383.994,10.1801,3.3471,1.0271,-0.2166,0.146,0.1015,-96.6,3.3,43.35,10.7691,2.6097,0.7446,0.469,0.907,1.9257,-82.2,7.2,19.8,-3.3,-2.65,-10.23,0.2203,-0.5312,0.0698,29.5625,38.6875,30.375,51.5,-25.25,163.6875,0
1776973383.999,10.8409,2.818,1.3096,-0.2443,0.0842,-0.1343,-97.05,1.65,42.45,10.7691,2.6097,0.7446,0.469,0.907,1.9257,-82.2,7.2,19.8,-3.3,-2.65,-10.23,0.2203,-0.5312,0.0698,29.5625,38.6875,30.375,51.5,-25.625,163.5625,0
1776973384.007,11.5281,2.3942,1.2665,-0.1839,-0.0965,-0.3376,-97.05,1.65,42.45,11.3581,0.8308,-0.2945,0.3336,0.9718,2.0318,-82.2,7.2,19.8,-3.3,-3.6,-10.21,0.2814,-0.6905,0.1036,29.5625,38.6875,30.375,51.5625,-26.125,163.375,0
1776973384.017,11.4108,2.32,0.7254,-0.0045,-0.2526,-0.5135,-96.15,1.8,41.55,12.062,-0.3687,-0.8691,0.1183,1.096,2.1586,-79.8,5.55,21.15,-2.99,-3.48,-10.25,0.2236,-0.9032,0.1833,29.5625,38.6875,30.375,51.5625,-26.125,163.375,0
1776973384.022,11.4108,2.32,0.7254,-0.0045,-0.2526,-0.5135,-96.15,1.8,41.55,13.5225,1.2689,-1.8579,-0.1663,1.1863,2.3385,-79.8,5.55,21.15,-2.99,-3.48,-10.25,0.2236,-0.9032,0.1833,29.5625,38.6875,30.375,51.6875,-26.8125,163.3125,0
1776973384.027,11.1666,3.237,-1.3623,0.2441,-0.385,-0.6201,-96.15,2.25,41.55,13.5225,1.2689,-1.8579,-0.1663,1.1863,2.3385,-79.8,5.55,21.15,-2.86,-4.1,-10.26,0.1451,-1.1912,0.2945,29.1875,38.0,30.0,51.6875,-26.8125,163.3125,0
1776973384.032,11.1666,3.237,-1.3623,0.2441,-0.385,-0.6201,-96.15,2.25,41.55,14.9518,2.2817,-2.3104,-0.7152,1.2452,2.5413,-79.8,5.55,21.15,-2.86,-4.1,-10.26,0.1451,-1.1912,0.2945,29.1875,38.0,30.0,51.8125,-27.75,163.25,0
1776973384.037,10.8529,4.6232,-3.6847,0.4618,-0.4703,-0.7128,-97.8,2.7,41.4,14.9518,2.2817,-2.3104,-0.7152,1.2452,2.5413,-78.3,4.5,23.1,-2.31,-3.91,-11.55,0.0742,-1.6013,0.4461,29.1875,38.0,30.0,51.8125,-27.75,163.25,0
1776973384.042,10.8529,4.6232,-3.6847,0.4618,-0.4703,-0.7128,-97.8,2.7,41.4,16.5415,3.9025,-1.4485,-0.8556,1.2902,2.8277,-78.3,4.5,23.1,-2.31,-3.91,-11.55,0.024,-2.0235,0.6141,29.1875,38.0,30.0,52.0,-28.875,163.25,0
1776973384.048,10.3813,6.2106,-6.292,0.7165,-0.9041,-0.8388,-97.05,2.4,40.65,16.5415,3.9025,-1.4485,-0.8556,1.2902,2.8277,-78.15,2.7,21.45,-2.35,-3.31,-11.92,0.024,-2.0235,0.6141,29.1875,38.0,30.0,52.25,-30.375,163.1875,0
1776973384.057,10.2065,8.7436,-3.8571,0.9409,-1.1714,-1.0754,-97.65,2.55,40.5,18.3324,5.8826,-2.2721,-0.8647,1.2401,3.2207,-77.25,0.45,23.1,-1.71,-2.59,-12.87,0.0982,-2.5231,0.8007,29.1875,38.0,30.0,52.6875,-32.1875,163.0625,0
1776973384.067,11.2504,9.0309,-3.3758,0.7264,-1.3078,-1.4269,-97.65,2.55,40.5,19.2183,4.5562,-4.446,-0.9785,1.2087,3.4899,-76.5,-0.15,23.4,-0.41,-3.89,-14.06,0.2629,-3.1383,1.0723,29.1875,38.0,30.0,52.6875,-32.1875,163.0625,0
1776973384.072,11.2504,9.0309,-3.3758,0.7264,-1.3078,-1.4269,-97.65,2.55,40.5,18.6053,4.3958,-4.5011,-0.7973,1.2702,3.5661,-76.5,-0.15,23.4,-0.41,-3.89,-14.06,0.2629,-3.1383,1.0723,29.1875,38.0,30.0,52.6875,-32.1875,163.0625,0
1776973384.077,14.1234,1.8627,-9.4786,-0.3725,-2.3379,-1.5266,-99.9,4.5,39.9,18.6053,4.3958,-4.5011,-0.7973,1.2702,3.5661,-76.5,-0.15,23.4,-0.54,-5.74,-13.74,0.3098,-3.9215,1.3984,32.5625,38.0,28.75,53.1875,-34.5,163.0,0
1776973384.082,14.1234,1.8627,-9.4786,-0.3725,-2.3379,-1.5266,-99.9,4.5,39.9,17.0587,4.1276,-6.2944,-0.8689,1.315,3.4875,-76.5,-0.15,23.4,-0.54,-5.74,-13.74,0.3098,-3.9215,1.3984,32.5625,38.0,28.75,53.1875,-34.5,163.0,0
1776973384.087,10.2256,6.7445,6.687,2.2982,-1.9247,-1.4762,-99.6,4.95,37.8,17.0587,4.1276,-6.2944,-0.8689,1.315,3.4875,-76.8,-2.4,25.35,-1.13,-6.75,-13.41,0.168,-4.7724,1.8751,32.5625,38.0,28.75,53.9375,-37.375,163.0625,0
1776973384.094,11.5568,6.2872,1.5083,2.9138,-1.222,-1.7589,-99.6,4.95,37.8,16.7522,2.7821,-3.9002,-1.0416,1.3078,3.242,-76.8,-2.4,25.35,-1.85,-8.92,-13.41,-0.0404,-5.524,2.534,32.5625,38.0,28.75,54.9375,-40.6875,163.4375,0
1776973384.098,11.5568,6.2872,1.5083,2.9138,-1.222,-1.7589,-99.9,6.75,36.3,15.1218,1.312,0.0551,-1.0416,1.3078,3.242,-76.8,-2.4,25.35,-1.85,-8.92,-13.41,-0.0404,-5.524,2.534,32.5625,38.0,28.75,86.875,-44.5,164.375,0
1776973384.107,13.6613,4.118,-1.3336,2.7989,-1.3022,-1.9327,-98.7,8.25,35.55,15.1218,1.312,0.0551,-0.9907,1.1756,2.9047,-72.45,-5.4,26.25,-4.43,-7.36,-13.36,-0.3305,-6.2003,3.2823,32.5625,38.0,28.75,82.0625,-48.75,165.8125,0
1776973384.117,13.8409,1.8028,-0.8859,2.493,-1.5793,-1.9809,-98.7,8.25,35.55,10.0341,-2.7988,6.5697,-0.5641,0.9926,2.6017,-72.6,-7.95,25.35,-9.11,-5.97,-14.26,-0.5203,-6.9082,3.8615,32.5625,38.0,28.75,82.0625,-48.75,165.8125,0
1776973384.122,13.8409,1.8028,-0.8859,2.5165,-1.9561,-1.9713,-98.7,8.25,35.55,10.0341,-2.7988,6.5697,-0.0512,0.9633,2.4493,-72.6,-7.95,25.35,-9.11,-5.97,-14.26,-0.5203,-6.9082,3.8615,32.5625,38.0,28.75,82.0625,-48.75,165.8125,0
1776973384.127,15.1242,-0.6009,0.7566,2.5165,-1.9561,-1.9713,-99.3,9.9,33.9,8.1139,-2.6456,6.189,-0.0512,0.9633,2.4493,-72.3,-9.9,26.7,-13.82,-6.44,-15.0,-0.4145,-7.362,3.9619,38.75,35.375,21.375,77.875,-53.1875,167.5,0
1776973384.132,15.1457,-1.1684,1.9225,2.2228,-2.076,-2.0113,-99.3,9.9,33.9,8.1139,-2.6456,6.189,0.4378,1.0714,2.4341,-72.3,-9.9,26.7,-13.82,-6.44,-15.0,-0.4145,-7.362,3.9619,38.75,35.375,21.375,77.875,-53.1875,167.5,0
1776973384.137,15.1457,-1.1684,1.9225,2.2228,-2.076,-2.0113,-96.9,11.55,33.45,8.1475,-4.0654,4.3048,0.5668,1.3257,2.4928,-71.55,-9.9,27.9,-20.43,-11.26,-15.58,-0.4363,-7.3424,3.735,38.75,35.375,21.375,74.3125,-57.625,169.5625,0
1776973384.142,14.4538,-1.1588,2.7964,1.1463,-1.7347,-1.9734,-96.9,11.55,33.45,8.1475,-4.0654,4.3048,0.5668,1.3257,2.4928,-71.55,-9.9,27.9,-20.43,-11.26,-15.58,-0.7821,-6.6944,3.4154,38.75,35.375,21.375,71.0625,-61.5625,172.125,0
1776973384.148,14.4538,-1.1588,2.7964,1.1463,-1.7347,-1.9734,-96.9,13.5,31.65,11.1474,-9.8928,6.2082,1.1021,1.7288,2.3206,-69.15,-10.35,26.4,-17.32,-12.3,-13.66,-0.7821,-6.6944,3.4154,38.75,35.375,21.375,68.0,-64.875,175.625,0
1776973384.157,15.5503,-4.5921,5.0254,-0.1045,-1.0275,-1.6731,-96.45,12.45,28.65,11.9782,-8.1211,11.1139,3.2484,2.0169,1.6467,-69.45,-11.25,29.25,-9.35,-11.4,-12.73,-1.1999,-5.6178,3.146,38.75,35.375,21.375,68.0,-64.875,175.625,0
1776973384.167,16.204,-6.2225,4.9321,-0.4466,-0.9385,-1.5274,-95.85,13.5,28.8,9.754,-6.9743,10.6901,3.5898,0.5902,1.2742,-69.45,-11.25,29.25,7.48,-10.17,-9.01,-1.537,-4.7942,3.1089,38.75,35.375,21.375,64.875,-67.5625,-179.75,0
1776973384.172,15.4426,-5.1164,4.9129,-1.1165,-1.0355,-1.578,-95.85,13.5,28.8,9.754,-6.9743,10.6901,3.5898,0.5902,1.2742,-69.45,-11.25,29.25,7.48,-10.17,-9.01,-1.537,-4.7942,3.1089,38.75,35.375,21.375,61.5,-70.125,-173.5625,0
1776973384.177,15.4426,-5.1164,4.9129,-1.1165,-1.0355,-1.578,-95.85,13.5,28.8,6.9671,-3.9887,8.1163,2.9679,0.6257,1.4314,-67.2,-9.3,31.05,2.58,-7.48,-8.35,-2.0693,-4.756,3.2572,49.0625,26.5625,6.75,61.5,-70.125,-173.5625,0
1776973384.182,13.6517,-3.9911,5.6982,-1.9761,-0.922,-1.768,-95.85,13.5,28.8,6.9671,-3.9887,8.1163,2.9679,0.6257,1.4314,-67.2,-9.3,31.05,2.58,-7.48,-8.35,-2.0693,-4.756,3.2572,49.0625,26.5625,6.75,58.0,-72.5625,-166.5625,0
1776973384.187,13.6517,-3.9911,5.6982,-1.9761,-0.922,-1.768,-92.55,15.0,28.5,4.64,-4.3383,7.9272,2.9543,0.0863,1.3057,-67.2,-9.3,31.05,-16.18,-7.88,-10.2,-3.0772,-4.9076,2.4238,49.0625,26.5625,6.75,58.0,-72.5625,-166.5625,0
1776973384.195,12.3517,-2.6025,5.9616,-2.411,-0.8713,-1.9795,-91.05,17.25,28.05,4.3503,-3.8259,7.4484,2.8618,-0.141,1.0187,-65.85,-7.95,30.45,-6.41,-8.96,-9.88,-2.7893,-3.3445,0.5018,49.0625,26.5625,6.75,55.875,-74.3125,-162.4375,0
1776973384.2,11.4275,-1.166,5.2337,-2.3875,-1.0381,-2.0947,-91.05,17.25,28.05,4.3503,-3.8259,7.4484,2.8618,-0.141,1.0187,-65.85,-7.95,30.45,-6.41,-8.96,-9.88,-2.7893,-3.3445,0.5018,49.0625,26.5625,6.75,55.3125,-74.9375,-163.8125,0
1776973384.208,11.4275,-1.166,5.2337,-2.3875,-1.0381,-2.0947,-90.0,16.05,29.55,4.0199,-4.1372,6.7086,2.6843,-0.5612,0.5934,-67.5,-6.9,30.6,-2.47,-9.68,-9.94,-1.9722,-0.7265,-1.4944,49.0625,26.5625,6.75,55.4375,-74.875,-168.5,0
1776973384.217,10.6183,0.3232,3.7613,-2.2505,-1.3366,-2.1003,-89.85,16.2,28.65,3.45,-3.1795,6.1148,2.2074,-0.8436,0.1423,-66.3,-6.6,30.6,0.01,-9.05,-7.18,-1.9155,0.7745,-2.7151,49.0625,26.5625,6.75,55.4375,-74.875,-168.5,0
1776973384.222,9.3278,2.3296,2.648,-1.9806,-1.2726,-2.048,-89.85,16.2,28.65,3.45,-3.1795,6.1148,2.2074,-0.8436,0.1423,-66.3,-6.6,30.6,0.01,-9.05,-7.18,-1.9155,0.7745,-2.7151,49.0625,26.5625,6.75,55.4375,-74.875,-168.5,0
1776973384.227,9.3278,2.3296,2.648,-1.9806,-1.2726,-2.048,-89.85,16.2,28.65,3.2082,-2.7438,4.5801,1.4845,-1.1964,-0.214,-67.35,-4.5,30.9,1.34,-7.2,-4.83,-2.3202,1.1606,-3.0674,52.5,18.1875,-4.75,55.4375,-74.5,-173.75,0
1776973384.232,8.4372,3.9002,2.2218,-1.5194,-0.9395,-2.0499,-89.85,16.2,28.65,2.5235,-3.6775,4.4987,1.4845,-1.1964,-0.214,-67.35,-4.5,30.9,1.34,-7.2,-4.83,-2.3202,1.1606,-3.0674,52.5,18.1875,-4.75,55.4375,-74.5,-173.75,0
1776973384.237,8.4372,3.9002,2.2218,-1.5194,-0.9395,-2.0499,-91.35,19.95,29.25,2.5235,-3.6775,4.4987,1.4354,-1.388,-0.5017,-67.35,-4.5,30.9,0.35,-2.35,-3.6,-2.6496,1.1203,-2.99,52.5,18.1875,-4.75,55.125,-74.0,-178.3125,0
1776973384.243,7.082,5.4899,1.6113,-0.9478,-0.3858,-2.0107,-91.5,19.05,28.8,1.8579,-4.4532,5.8514,1.9177,-1.4813,-0.7312,-67.35,-4.5,30.9,0.35,-2.35,-3.6,-2.774,1.2872,-2.8962,52.5,18.1875,-4.75,54.6875,-73.25,177.6875,0
1776973384.248,7.5824,6.3662,0.9194,-0.227,-0.3994,-1.9316,-91.5,19.05,28.8,1.8579,-4.4532,5.8514,1.9177,-1.4813,-0.7312,-66.9,-1.65,30.45,-0.75,-0.88,-4.11,-2.774,1.2872,-2.8962,52.5,18.1875,-4.75,54.3125,-72.125,174.3125,0
1776973384.257,7.5824,6.3662,0.9194,0.3405,0.081,-1.8271,-93.6,20.55,31.65,1.2617,-5.0949,6.4189,2.1493,-1.684,-0.9617,-66.9,-1.65,30.45,-1.36,0.14,-4.58,-2.6158,1.7835,-2.8667,52.5,18.1875,-4.75,54.3125,-72.125,174.3125,0
1776973384.267,9.2344,3.9025,0.0359,1.0184,-0.0272,-1.6563,-94.2,20.7,31.5,0.972,-5.2936,5.5234,2.0225,-1.9129,-1.1399,-68.4,-2.1,28.65,-0.8,0.43,-4.65,-2.2406,2.4336,-2.8056,52.5,18.1875,-4.75,54.25,-70.625,171.4375,0
1776973384.272,9.2344,3.9025,0.0359,1.0184,-0.0272,-1.6563,-93.6,22.5,33.45,1.2617,-5.1619,5.1523,1.5378,-2.2111,-1.3374,-68.4,-2.1,28.65,-0.8,0.43,-4.65,-2.2406,2.4336,-2.8056,52.5,18.1875,-4.75,54.25,-70.625,171.4375,0
1776973384.277,7.6064,4.1156,3.0742,1.1341,0.1823,-1.4706,-93.6,22.5,33.45,1.2617,-5.1619,5.1523,1.5378,-2.2111,-1.3374,-69.75,0.0,29.25,-0.67,0.22,-4.74,-1.7857,3.0478,-2.6376,47.5,22.1875,-2.0625,54.4375,-68.6875,169.3125,0
1776973384.282,7.6064,4.1156,3.0742,1.1341,0.1823,-1.4706,-93.6,22.5,33.45,1.4365,-4.7932,4.865,1.1026,-2.5836,-1.477,-69.75,0.0,29.25,-0.67,0.22,-4.74,-1.7857,3.0478,-2.6376,47.5,22.1875,-2.0625,54.4375,-68.6875,169.3125,0
1776973384.287,7.8195,3.1412,4.0654,2.0382,0.2798,-1.2169,-93.6,22.5,33.45,1.4365,-4.7932,4.865,1.1026,-2.5836,-1.477,-70.95,0.3,28.5,-1.35,-0.04,-5.08,-1.3515,3.6008,-2.3878,47.5,22.1875,-2.0625,54.875,-66.5,167.8125,0
1776973384.294,7.8195,3.1412,4.0654,2.0382,0.2798,-1.2169,-95.4,25.05,34.8,1.1684,-3.8547,4.6687,0.9803,-2.7843,-1.566,-70.95,0.3,28.5,-2.23,-0.35,-5.38,-0.9447,4.1332,-2.1315,47.5,22.1875,-2.0625,55.625,-64.0,166.9375,0
1776973384.299,7.2425,2.2697,4.0175,2.5119,0.4554,-0.983,-95.4,25.05,34.8,1.1684,-3.8547,4.6687,0.9803,-2.7843,-1.566,-72.9,1.95,28.5,-2.23,-0.35,-5.38,-0.9447,4.1332,-2.1315,47.5,22.1875,-2.0625,56.6875,-61.1875,166.375,0
1776973384.308,7.3933,1.3001,4.7094,2.4189,0.2217,-0.7314,-96.6,25.5,37.65,1.3599,-3.984,4.0438,0.9446,-2.8637,-1.6713,-72.9,3.0,27.0,-1.42,-0.38,-3.97,-0.5945,4.7189,-1.9613,47.5,22.1875,-2.0625,56.6875,-61.1875,166.375,0
1776973384.318,6.8331,0.6033,4.695,2.6225,0.3208,-0.5268,-97.35,26.25,34.5,3.8738,-4.5538,3.8834,0.0682,-2.8917,-1.8674,-74.4,2.7,27.75,0.25,-0.44,-2.75,-0.3327,5.224,-1.8402,47.5,22.1875,-2.0625,58.0625,-58.125,166.0625,0
1776973384.322,6.8331,0.6033,4.695,2.6225,0.3208,-0.5268,-97.05,27.45,34.65,4.3191,-5.2696,4.5035,-0.9798,-3.2881,-2.1506,-74.4,2.7,27.75,0.25,-0.44,-2.75,-0.3327,5.224,-1.8402,47.5,22.1875,-2.0625,58.0625,-58.125,166.0625,0
1776973384.327,7.0198,0.4166,4.707,2.7411,0.4663,-0.3424,-97.05,27.45,34.65,4.3191,-5.2696,4.5035,-0.9798,-3.2881,-2.1506,-74.4,2.7,27.75,1.03,-0.35,-2.78,-0.1538,5.3702,-1.6832,41.75,27.25,5.5625,59.6875,-55.0,165.875,0
1776973384.332,7.0198,0.4166,4.707,2.7411,0.4663,-0.3424,-97.05,27.45,34.65,4.1539,-6.6319,3.9169,-1.7323,-3.6207,-2.3822,-74.4,2.7,27.75,1.03,-0.35,-2.78,-0.1538,5.3702,-1.6832,41.75,27.25,5.5625,59.6875,-55.0,165.875,0
1776973384.337,6.4907,0.419,4.0127,2.5021,0.3262,-0.1298,-97.05,27.45,34.65,4.1539,-6.6319,3.9169,-1.7323,-3.6207,-2.3822,-73.95,3.45,24.75,-1.17,-1.2,-4.09,0.0796,5.1182,-1.4214,41.75,27.25,5.5625,61.5625,-52.0625,165.75,0
1776973384.342,6.4907,0.419,4.0127,2.5021,0.3262,-0.1298,-98.25,29.7,33.6,4.3407,-7.4962,4.9752,-1.9255,-3.6441,-2.5988,-73.95,3.45,24.75,-1.17,-1.2,-4.09,0.3785,4.804,-1.1388,41.75,27.25,5.5625,63.6875,-49.3125,165.5625,0
1776973384.348,6.0071,0.0359,3.711,2.6196,0.2241,0.1322,-98.25,29.7,33.6,4.0103,-5.5186,6.6966,-1.4448,-3.7398,-2.8296,-73.95,3.45,24.75,-3.0,-2.49,-5.02,0.3785,4.804,-1.1388,41.75,27.25,5.5625,66.0625,-46.6875,165.5,0
1776973384.358,5.4372,-0.3687,3.5362,2.8525,0.0373,0.3515,-99.45,28.8,31.65,4.2042,-3.1388,4.9943,-1.4448,-3.7398,-2.8296,-76.8,3.6,21.15,-3.88,-4.36,-5.96,0.5847,4.7048,-0.8356,41.75,27.25,5.5625,66.0625,-46.6875,165.5,0
1776973384.368,5.1427,-0.826,3.3232,2.9031,0.1079,0.5417,-99.45,28.8,31.35,5.3391,-1.1851,4.6495,-0.9505,-3.836,-3.3678,-76.5,5.25,21.6,-5.51,-5.35,-7.08,0.625,4.7942,-0.5694,41.75,27.25,5.5625,68.625,-44.0625,165.5,0
1776973384.372,5.1427,-0.826,3.3232,2.9031,0.1079,0.5417,-101.4,28.95,30.75,5.3391,-1.1851,4.6495,-0.9505,-3.836,-3.3678,-76.5,5.25,21.6,-5.51,-5.35,-7.08,0.625,4.7942,-0.5694,41.75,27.25,5.5625,68.625,-44.0625,165.5,0
1776973384.377,5.4037,-1.6688,2.7892,2.9441,0.2441,0.6872,-101.4,28.95,30.75,7.1467,-0.2298,4.3311,-0.2491,-3.9082,-3.6689,-78.3,7.2,18.3,-5.5,-6.27,-7.12,0.5847,4.8902,-0.4538,34.0625,29.1875,13.5,39.8125,-41.375,165.5625,0
1776973384.382,5.4037,-1.6688,2.7892,2.9441,0.2441,0.6872,-103.05,28.8,29.55,7.1467,-0.2298,4.3311,-0.2491,-3.9082,-3.6689,-78.3,7.2,18.3,-5.5,-6.27,-7.12,0.5847,4.8902,-0.4538,34.0625,29.1875,13.5,39.8125,-41.375,165.5625,0
1776973384.387,5.4061,-2.229,2.2338,3.0593,0.526,0.7597,-103.05,28.8,29.55,8.339,-0.3328,3.0311,0.5844,-3.8437,-3.8077,-78.45,7.35,17.4,-6.61,-7.03,-7.53,0.5956,4.8084,-0.5672,34.0625,29.1875,13.5,39.9375,-38.6875,165.5625,0
1776973384.396,6.098,-2.9353,1.3623,3.0419,0.7778,0.7959,-103.05,28.8,29.55,10.0197,-0.9529,3.6847,0.5844,-3.8437,-3.8077,-78.45,7.35,17.4,-8.34,-8.1,-7.92,0.6567,4.5302,-0.9065,34.0625,29.1875,13.5,39.8125,-36.125,165.3125,0
1776973384.4,6.098,-2.9353,1.3623,3.0419,0.7778,0.7959,-106.35,26.55,31.35,10.0197,-0.9529,3.6847,1.5894,-3.6785,-3.743,-78.45,7.35,17.4,-8.34,-8.1,-7.92,0.6567,4.5302,-0.9065,34.0625,29.1875,13.5,39.375,-33.625,164.75,0
1776973384.408,6.3087,-3.9217,0.8882,2.8935,0.9345,0.7943,-106.35,26.55,31.35,11.1833,-0.735,4.1276,2.5381,-3.5392,-3.5213,-81.3,11.85,14.25,-10.95,-12.67,-8.52,0.684,4.2302,-1.5228,34.0625,29.1875,13.5,38.375,-31.1875,164.0,0
1776973384.418,6.4093,-4.8842,0.4717,2.711,1.1042,0.7813,-107.25,25.95,30.75,12.5408,0.3448,4.6495,3.4675,-3.4456,-3.2149,-81.3,11.85,14.25,-12.47,-14.55,-8.82,0.4843,3.8844,-2.4446,34.0625,29.1875,13.5,38.375,-31.1875,164.0,0
1776973384.423,6.6726,-5.2074,0.3112,2.3803,1.3643,0.7608,-109.2,25.5,31.35,12.5408,0.3448,4.6495,3.4675,-3.4456,-3.2149,-81.3,11.85,14.25,-12.47,-14.55,-8.82,0.4843,3.8844,-2.4446,34.0625,29.1875,13.5,36.625,-28.8125,163.1875,0
1776973384.428,6.6726,-5.2074,0.3112,2.3803,1.3643,0.7608,-109.2,25.5,31.35,13.2328,1.6233,4.8674,4.4097,-3.3553,-2.9044,-81.0,16.95,10.05,-14.01,-15.44,-8.96,0.0316,3.4645,-3.6052,27.75,30.25,17.0625,36.625,-28.8125,163.1875,0
1776973384.433,7.3765,-4.8052,0.3496,2.0206,1.6129,0.7863,-108.6,26.25,30.9,13.2328,1.6233,4.8674,4.4097,-3.3553,-2.9044,-81.0,16.95,10.05,-14.01,-15.44,-8.96,0.0316,3.4645,-3.6052,27.75,30.25,17.0625,34.0625,-26.375,162.375,0
1776973384.438,7.3765,-4.8052,0.3496,2.0206,1.6129,0.7863,-108.6,26.25,30.9,13.0532,1.9369,5.5019,5.3959,-3.2572,-2.6276,-81.15,17.1,8.1,-15.39,-15.06,-7.54,-0.4985,3.0478,-4.9382,27.75,30.25,17.0625,34.0625,-26.375,162.375,0
1776973384.443,8.6191,-3.4165,0.1245,1.8093,1.7259,0.8671,-108.6,26.25,30.9,13.0532,1.9369,5.5019,5.3959,-3.2572,-2.6276,-81.15,17.1,8.1,-15.39,-15.06,-7.54,-0.9654,2.5896,-6.2614,27.75,30.25,17.0625,30.6875,-23.9375,161.5625,0
1776973384.449,8.6191,-3.4165,0.1245,1.8093,1.7259,0.8671,-108.6,26.25,30.9,12.8808,1.1947,6.0501,6.4447,-3.1565,-2.4075,-80.25,19.35,6.0,-15.9,-14.38,-6.63,-0.9654,2.5896,-6.2614,27.75,30.25,17.0625,26.625,-21.5625,160.8125,0
1776973384.458,10.3406,-1.5802,-0.7757,1.8527,1.6649,0.9942,-108.6,26.25,30.9,12.4594,0.0,6.3877,7.2488,-3.0856,-2.2402,-81.3,20.4,3.75,-16.52,-13.55,-5.82,-1.3384,2.0388,-7.3893,27.75,30.25,17.0625,22.0,-19.25,160.1875,0
1776973384.468,12.232,1.6113,-1.7262,2.1234,1.5247,1.1914,-107.85,24.3,30.9,12.4068,-3.4907,3.8355,7.1836,-3.0641,-2.1282,-80.4,23.85,1.05,-17.51,-12.16,-4.72,-1.5817,1.4781,-8.2576,27.75,30.25,17.0625,22.0,-19.25,160.1875,0
1776973384.473,13.1394,6.5457,-3.7206,2.6353,1.4189,1.3877,-106.05,26.55,28.8,12.8808,-3.0694,13.477,7.1836,-3.0641,-2.1282,-80.4,23.85,1.05,-17.51,-12.16,-4.72,-1.5817,1.4781,-8.2576,27.75,30.25,17.0625,22.0,-19.25,160.1875,0
1776973384.478,13.1394,6.5457,-3.7206,2.6353,1.4189,1.3877,-106.05,26.55,28.8,12.8808,-3.0694,13.477,7.7016,-3.2575,-1.8807,-80.55,23.55,-0.9,-17.06,-9.93,-4.27,-1.6744,0.9588,-8.8215,18.5,30.25,20.375,17.0625,-17.0625,159.6875,0
1776973384.483,13.3285,9.7229,-5.1068,3.3742,1.2028,1.4144,-105.75,26.4,28.95,12.7012,-4.8123,6.4859,7.7016,-3.2575,-1.8807,-80.55,23.55,-0.9,-17.06,-9.93,-4.27,-1.6744,0.9588,-8.8215,18.5,30.25,20.375,17.0625,-17.0625,159.6875,0
1776973384.488,13.3285,9.7229,-5.1068,3.3742,1.2028,1.4144,-105.75,26.4,28.95,12.7012,-4.8123,6.4859,6.3458,-3.1168,-1.4536,-80.55,23.55,-0.9,-15.69,-4.08,-4.54,-1.6024,0.4712,-9.0866,18.5,30.25,20.375,11.9375,-15.0625,159.25,0
1776973384.496,11.1115,7.3526,-7.1706,3.9815,0.8593,1.2875,-109.2,27.75,29.1,13.3453,-9.402,5.9041,5.1688,-3.1131,-1.1919,-80.55,23.55,-0.9,-16.06,-2.87,-4.7,-0.9479,-0.0284,-9.0703,18.5,30.25,20.375,6.875,-13.25,158.5625,0
1776973384.501,10.999,4.5107,-6.0789,4.5512,0.5167,1.1999,-109.2,27.75,29.1,13.3453,-9.402,5.9041,5.1688,-3.1131,-1.1919,-81.0,24.45,-6.45,-16.06,-2.87,-4.7,-0.9479,-0.0284,-9.0703,18.5,30.25,20.375,2.0,-11.6875,157.5,0
1776973384.508,10.999,4.5107,-6.0789,4.5512,0.5167,1.1999,-112.35,34.2,26.1,11.1402,-12.038,3.881,3.8666,-2.7539,-1.1572,-81.0,24.45,-6.45,-18.28,-8.73,-2.81,0.1156,-0.4407,-8.6776,18.5,30.25,20.375,357.5625,-10.375,156.1875,0
1776973384.518,10.829,3.9935,-5.6767,4.2852,0.559,0.9185,-113.1,34.65,24.0,7.3526,-11.9614,3.0598,2.0584,-2.1791,-1.4237,-78.75,25.5,-10.05,-20.31,-13.03,-0.74,0.8716,-0.7658,-7.9532,18.5,30.25,20.375,357.5625,-10.375,156.1875,0
1776973384.523,12.2631,4.3527,-6.1244,3.1144,1.2694,0.8023,-113.1,34.65,24.0,5.3917,-9.9264,3.7781,0.1029,-1.4003,-1.8306,-78.75,25.5,-10.05,-20.31,-13.03,-0.74,0.8716,-0.7658,-7.9532,5.875,30.0,23.6875,353.75,-9.25,155.0,0
1776973384.528,12.2631,4.3527,-6.1244,3.1144,1.2694,0.8023,-111.15,38.25,25.95,5.3917,-9.9264,3.7781,0.1029,-1.4003,-1.8306,-78.75,25.5,-10.05,-20.68,-13.79,0.0,1.0265,-0.8465,-6.797,5.875,30.0,23.6875,353.75,-9.25,155.0,0
1776973384.533,13.5799,5.5354,-6.9839,2.5967,1.1679,0.7967,-111.15,38.25,25.95,4.1468,-8.7269,5.3702,-1.6529,-0.6622,-2.0757,-78.75,25.2,-9.3,-20.68,-13.79,0.0,1.0265,-0.8465,-6.797,5.875,30.0,23.6875,350.75,-8.5,154.0,0
1776973384.538,14.042,6.8522,-5.5713,2.388,1.4157,0.7951,-112.35,34.65,25.05,4.1468,-8.7269,5.3702,-1.6529,-0.6622,-2.0757,-79.35,27.75,-9.9,-21.85,-3.43,7.28,0.9468,-0.9817,-5.2523,5.875,30.0,23.6875,350.75,-8.5,154.0,0
1776973384.545,14.042,6.8522,-5.5713,2.388,1.4157,0.7951,-112.35,34.65,25.05,4.9991,-6.4548,6.8833,-2.7909,0.1791,-1.865,-79.35,27.75,-9.9,-23.39,-0.38,5.2,1.2577,-1.4235,-3.5616,5.875,30.0,23.6875,348.625,-8.3125,153.0,0
1776973384.549,14.0779,3.5817,-5.4037,2.5005,1.0515,0.643,-112.35,34.65,25.05,7.7835,-2.9592,6.2273,-2.7909,0.1791,-1.865,-77.4,27.3,-8.4,-23.39,-0.38,5.2,1.2577,-1.4235,-3.5616,5.875,30.0,23.6875,347.1875,-8.5,151.8125,0
1776973384.558,10.8769,0.6823,-4.0773,2.1072,0.1474,0.2944,-112.35,34.65,25.05,7.7835,-2.9592,6.2273,-3.6015,0.5319,-1.3768,-77.4,27.3,-8.4,-21.34,0.53,5.0,1.7159,-1.6373,-2.3649,5.875,30.0,23.6875,346.1875,-9.125,150.6875,0
1776973384.568,6.9216,-1.7478,-1.8866,1.194,-0.5292,-0.1916,-109.5,34.95,22.5,8.8059,0.6608,5.3271,-3.8685,0.6662,-0.6856,-77.4,27.3,-8.4,-21.34,-7.23,4.98,1.7017,-2.0268,-1.4454,5.875,30.0,23.6875,346.1875,-9.125,150.6875,0
1776973384.573,6.9216,-1.7478,-1.8866,1.194,-0.5292,-0.1916,-109.5,34.95,22.5,9.2727,3.7445,3.0454,-3.4789,0.87,0.1849,-78.3,29.1,-7.2,-21.34,-7.23,4.98,1.7017,-2.0268,-1.4454,5.875,30.0,23.6875,345.375,-10.25,150.3125,0
1776973384.578,4.8171,-4.2306,0.1556,-0.3928,-0.4247,-0.5518,-106.8,34.5,21.6,12.2799,9.9599,0.316,-3.4789,0.87,0.1849,-78.3,29.1,-7.2,-16.83,-0.11,3.26,0.3229,-2.7598,-0.7418,-1.0625,30.375,22.6875,345.375,-10.25,150.3125,0
1776973384.583,4.8171,-4.2306,0.1556,-0.3928,-0.4247,-0.5518,-106.8,34.5,21.6,12.2799,9.9599,0.316,-2.7656,0.9276,0.6515,-78.3,29.1,-7.2,-16.83,-0.11,3.26,0.3229,-2.7598,-0.7418,-1.0625,30.375,22.6875,345.375,-10.25,150.3125,0
1776973384.588,4.7932,-5.4779,2.3439,-2.1714,0.3592,-0.5801,-105.45,30.45,19.35,15.1697,12.8018,-12.7515,-2.7656,0.9276,0.6515,-78.3,29.1,-7.2,-0.73,4.43,-7.75,-1.9362,-3.5605,0.1134,-1.0625,30.375,22.6875,344.8125,-12.0,151.1875,0
1776973384.597,6.8139,-6.0047,3.2872,-4.273,1.0192,-0.3299,-103.65,27.9,21.45,15.1697,12.8018,-12.7515,-2.6521,0.5212,0.2497,-78.45,28.05,-2.85,1.82,-2.18,-16.22,-3.1241,-3.9717,0.5171,-1.0625,30.375,22.6875,344.375,-14.0625,152.75,0
1776973384.602,6.8139,-6.0047,3.2872,-4.273,1.0192,-0.3299,-103.65,27.9,21.45,17.5184,12.232,-20.3316,-1.3233,-0.7424,-0.3608,-76.95,28.5,-3.3,1.82,-2.18,-16.22,-3.1241,-3.9717,0.5171,-1.0625,30.375,22.6875,344.375,-16.0625,153.9375,0
1776973384.609,9.8378,-5.193,4.0103,-5.8571,1.222,0.052,-103.65,27.9,21.45,8.4635,4.6591,-8.1379,1.4941,0.3075,-0.412,-78.3,29.85,-3.45,-20.42,4.21,-20.86,-2.2438,-3.4874,1.1606,-1.0625,30.375,22.6875,345.1875,-18.4375,155.0625,0
1776973384.618,14.1186,-1.9752,2.3703,-6.6067,2.4112,0.5353,-98.85,24.9,23.55,11.2958,-3.6847,-1.585,3.1597,1.3171,0.0962,-78.3,29.85,-3.45,-26.64,7.33,-19.35,-1.8533,-3.471,2.5765,-1.0625,30.375,22.6875,345.1875,-18.4375,155.0625,0
1776973384.623,14.1186,-1.9752,2.3703,-6.6067,2.4112,0.5353,-98.85,24.9,23.55,11.2958,-3.6847,-1.585,3.1597,1.3171,0.0962,-78.45,30.0,-5.85,-26.64,7.33,-19.35,-1.8533,-3.471,2.5765,-1.0625,30.375,22.6875,345.1875,-18.4375,155.0625,0
1776973384.628,16.9629,3.5865,-1.4605,-4.2669,1.0419,0.9126,-95.85,22.8,22.35,14.9757,-7.264,-2.3655,3.0641,1.6148,0.4658,-78.45,30.0,-5.85,-13.76,-3.75,-12.73,-1.5752,-1.9755,2.1664,2.0625,28.875,24.0625,346.0625,-19.9375,156.1875,0
1776973384.633,16.9629,3.5865,-1.4605,-4.2669,1.0419,0.9126,-95.85,22.8,22.35,14.9757,-7.264,-2.3655,3.0641,1.6148,0.4658,-78.15,29.25,-4.35,-13.76,-3.75,-12.73,-1.5752,-1.9755,2.1664,2.0625,28.875,24.0625,346.0625,-19.9375,156.1875,0
1776973384.638,16.7738,8.8274,-4.9608,-1.2716,1.5212,0.9316,-94.35,21.75,22.8,15.2942,-5.8442,-2.8084,2.064,1.2878,0.4975,-78.15,29.25,-4.35,-2.08,-8.95,-8.81,-0.9741,-0.2422,0.7636,2.0625,28.875,24.0625,346.3125,-20.25,156.875,0
1776973384.646,16.2925,8.0996,-8.2073,1.4981,1.2558,0.5985,-91.35,21.9,22.2,9.584,-3.1436,-2.0375,2.064,1.2878,0.4975,-78.15,30.0,-4.8,-6.53,-3.55,-11.54,-1.0232,-0.42,0.6349,2.0625,28.875,24.0625,346.5625,-20.5625,157.5,0
1776973384.651,16.2925,8.0996,-8.2073,1.4981,1.2558,0.5985,-91.35,21.9,22.2,9.584,-3.1436,-2.0375,1.635,1.0253,0.4517,-78.15,30.0,-4.8,-6.53,-3.55,-11.54,-1.0232,-0.42,0.6349,2.0625,28.875,24.0625,346.6875,-21.0625,158.0625,0
1776973384.659,13.4458,6.0741,-6.2153,3.0057,0.1921,0.1106,-91.35,21.9,22.2,7.4388,-1.7526,0.1269,1.4149,1.0301,0.4642,-78.15,30.0,-4.8,-6.43,1.25,-10.83,-0.8814,-0.684,0.5607,2.0625,28.875,24.0625,346.75,-21.3125,158.375,0
1776973384.668,9.5768,4.3622,-2.5498,3.3358,0.0562,-0.1426,-91.35,21.9,22.2,5.7652,0.5195,1.4772,1.0413,0.9371,0.2942,-78.45,28.95,-5.1,-4.35,-5.1,-8.2,-0.5531,-0.3862,0.3272,2.0625,28.875,24.0625,346.75,-21.3125,158.375,0
1776973384.673,9.5768,4.3622,-2.5498,3.3358,0.0562,-0.1426,-91.35,21.9,22.2,5.7652,0.5195,1.4772,1.0413,0.9371,0.2942,-78.75,27.9,-4.95,-4.35,-5.1,-8.2,-0.5531,-0.3862,0.3272,2.0625,28.875,24.0625,346.8125,-21.4375,158.625,0
1776973384.678,8.2241,3.2202,-0.0048,2.6899,-0.4866,-0.1548,-91.5,25.5,21.0,9.007,2.1189,1.6113,0.728,1.092,0.13,-78.75,27.9,-4.95,-4.64,-6.01,-8.13,-0.3502,-0.1854,0.1844,6.25,25.0625,24.0,346.8125,-21.4375,158.625,0
1776973384.683,8.2241,3.2202,-0.0048,1.9548,-0.7394,-0.097,-91.5,25.5,21.0,9.007,2.1189,1.6113,0.728,1.092,0.13,-78.3,27.9,-3.75,-4.64,-6.01,-8.13,-0.3502,-0.1854,0.1844,6.25,25.0625,24.0,346.875,-21.5625,158.75,0
1776973384.688,7.3861,2.478,1.3982,1.9548,-0.7394,-0.097,-92.7,26.4,19.35,8.928,1.7382,1.7119,1.0877,1.0757,0.0109,-78.3,27.9,-3.75,-4.13,-3.54,-8.05,-0.1985,-0.1538,0.1724,6.25,25.0625,24.0,346.875,-21.5625,158.75,0
1776973384.698,6.1818,1.8172,2.7869,1.1799,-0.0029,0.0288,-91.8,27.0,20.25,11.2815,0.2322,-0.2298,1.3765,0.9302,-0.1226,-78.75,27.9,-3.75,-4.56,-2.94,-7.59,-0.1636,-0.1429,0.168,6.25,25.0625,24.0,346.9375,-21.6875,158.875,0
1776973384.708,7.1706,1.4964,3.6416,0.6187,0.4663,0.1948,-94.5,27.45,20.1,10.5297,-1.3288,-0.4286,1.1189,0.6518,-0.3408,-78.3,28.65,-2.7,-4.31,-4.14,-7.23,-0.2018,0.2923,0.1516,6.25,25.0625,24.0,347.0,-21.5625,159.0,0
1776973384.717,6.6583,0.838,4.3981,0.4042,0.6619,0.3448,-94.5,27.45,20.1,8.8633,-2.5426,1.0151,0.5065,0.6435,-0.3365,-77.55,28.65,-3.45,-2.6,-4.24,-8.37,-0.3152,-0.1047,0.1876,6.25,25.0625,24.0,347.0625,-21.625,159.25,0
1776973384.722,7.2329,0.1149,4.1994,0.5073,0.6773,0.4788,-94.5,27.45,20.1,9.2799,-2.9616,1.0918,0.5065,0.6435,-0.3365,-77.55,28.65,-3.45,-2.6,-4.24,-8.37,-0.3152,-0.1047,0.1876,6.25,25.0625,24.0,347.0625,-21.625,159.25,0
1776973384.727,7.2329,0.1149,4.1994,0.5073,0.6773,0.4788,-96.0,26.7,23.25,9.2799,-2.9616,1.0918,-0.0173,0.7075,-0.1631,-77.55,28.65,-3.45,-4.37,-3.18,-8.31,-0.1931,-0.0229,0.2356,7.5,24.25,25.25,347.1875,-21.6875,159.375,0
1776973384.732,7.3263,-0.5914,4.1324,0.7474,0.4389,0.6083,-96.0,26.7,23.25,10.6877,-1.5778,0.7207,-0.0173,0.7075,-0.1631,-78.15,29.7,-3.3,-4.37,-3.18,-8.31,-0.1931,-0.0229,0.2356,7.5,24.25,25.25,347.1875,-21.6875,159.375,0
1776973384.737,7.3263,-0.5914,4.1324,0.7474,0.4389,0.6083,-95.25,24.9,22.95,10.6877,-1.5778,0.7207,-0.5308,0.6656,-0.0027,-78.15,29.7,-3.3,-3.82,-3.73,-7.99,-0.3862,-0.1287,0.2618,7.5,24.25,25.25,347.25,-21.8125,159.625,0
1776973384.742,8.169,-0.6321,3.8164,1.2569,0.663,0.7429,-95.25,24.9,22.95,10.8649,0.7781,0.4214,-0.5308,0.6656,-0.0027,-78.15,29.7,-3.3,-3.82,-3.73,-7.99,-0.3862,-0.1287,0.2618,7.5,24.25,25.25,347.375,-22.0,159.9375,0
1776973384.749,8.169,-0.6321,3.8164,1.2569,0.663,0.7429,-96.6,25.5,24.45,10.8649,0.7781,0.4214,-0.9827,0.5231,0.0322,-78.15,29.7,-3.3,-3.56,-3.61,-8.18,-0.4549,-0.216,0.2574,7.5,24.25,25.25,347.4375,-22.0625,160.1875,0
1776973384.758,9.5433,-0.4501,3.5458,1.8826,0.7786,0.7842,-97.65,25.8,23.85,9.8928,2.9137,-0.7805,-0.7938,0.453,-0.0296,-76.95,28.5,-3.6,-4.08,-2.95,-8.44,-0.4123,-0.1102,0.2869,7.5,24.25,25.25,347.5625,-22.1875,160.5,0
1776973384.768,10.3166,0.2131,3.2944,2.2583,0.7506,0.7608,-97.5,25.2,25.35,9.347,4.4221,-2.0183,0.1495,0.5239,-0.1111,-78.45,29.7,-3.6,-4.14,-2.71,-8.69,-0.3665,-0.1102,0.3022,7.5,24.25,25.25,347.5625,-22.1875,160.5,0
1776973384.773,10.6542,0.8595,2.6145,2.206,0.6747,0.6747,-97.5,25.2,25.35,9.4332,3.9792,-1.9896,1.081,0.6249,-0.1673,-76.8,28.65,-3.0,-4.14,-2.71,-8.69,-0.3665,-0.1102,0.3022,7.5,24.25,25.25,347.5625,-22.1875,160.5,0
1776973384.778,10.6542,0.8595,2.6145,2.206,0.6747,0.6747,-97.5,25.2,25.35,9.4332,3.9792,-1.9896,1.081,0.6249,-0.1673,-76.8,28.65,-3.0,-4.42,-2.45,-8.82,-0.3251,-0.2083,0.2902,7.0,24.375,24.6875,347.6875,-22.375,160.6875,0
1776973384.783,9.7324,0.9768,1.9058,1.971,0.7163,0.5359,-97.5,25.2,25.35,9.6319,1.8771,-0.9816,1.5356,0.603,-0.2148,-78.15,28.5,-2.55,-4.42,-2.45,-8.82,-0.3251,-0.2083,0.2902,7.0,24.375,24.6875,347.6875,-22.375,160.6875,0
1776973384.788,9.7324,0.9768,1.9058,1.971,0.7163,0.5359,-96.9,25.8,23.85,9.6319,1.8771,-0.9816,1.5356,0.603,-0.2148,-78.15,28.5,-2.55,-4.29,-2.59,-8.78,-0.3229,-0.3011,0.2574,7.0,24.375,24.6875,347.75,-22.5625,160.9375,0
1776973384.796,9.3326,1.3264,0.8021,1.453,0.8519,0.4543,-97.95,24.75,24.45,9.6223,0.1269,0.2849,1.562,0.5598,-0.2169,-78.3,31.05,-3.45,-4.2,-2.75,-8.61,-0.2542,-0.2247,0.2094,7.0,24.375,24.6875,347.8125,-22.75,161.0625,0
1776973384.801,9.4643,1.7382,-0.0527,1.4631,0.9702,0.4093,-97.95,24.75,24.45,9.5936,-0.4741,0.6608,1.2705,0.5209,-0.1772,-77.7,30.45,-4.8,-4.2,-2.75,-8.61,-0.2542,-0.2247,0.2094,7.0,24.375,24.6875,347.875,-22.8125,161.1875,0
1776973384.809,10.4411,2.2242,-0.7733,1.5132,1.0336,0.3738,-97.65,23.55,23.85,10.0509,-1.2953,0.0359,1.2705,0.5209,-0.1772,-77.7,30.45,-4.8,-4.26,-2.54,-8.55,-0.1844,-0.1604,0.1865,7.0,24.375,24.6875,347.9375,-22.9375,161.3125,0
1776973384.819,10.8194,2.0901,-1.2306,1.6713,0.9856,0.3667,-97.5,24.15,23.55,10.58,-1.47,-0.1891,0.9228,0.4986,-0.1671,-77.7,30.45,-4.8,-3.93,-3.02,-8.38,-0.1691,-0.1254,0.1636,7.0,24.375,24.6875,347.9375,-22.9375,161.3125,0
1776973384.824,10.8194,2.0901,-1.2306,1.6713,0.9856,0.3667,-97.5,24.15,23.55,10.58,-1.47,-0.1891,0.7666,0.4839,-0.1809,-78.0,30.3,-4.2,-3.93,-3.02,-8.38,-0.1691,-0.1254,0.1636,7.0,24.375,24.6875,348.0,-23.0,161.4375,0
1776973384.829,11.8417,1.8699,-1.4054,1.6864,1.0136,0.3992,-97.5,24.15,23.55,10.6159,-1.9273,0.1508,0.5273,0.4213,-0.1935,-78.0,30.3,-4.2,-4.03,-2.86,-8.63,-0.1527,-0.108,0.1505,6.5625,22.75,26.0,348.0,-23.0,161.4375,0
1776973384.833,11.8417,1.8699,-1.4054,1.6864,1.0136,0.3992,-97.35,22.5,21.0,10.6159,-1.9273,0.1508,0.5273,0.4213,-0.1935,-78.15,29.25,-4.05,-4.03,-2.86,-8.63,-0.1527,-0.108,0.1505,6.5625,22.75,26.0,348.0625,-23.125,161.5625,0
1776973384.839,10.7715,1.221,-1.1923,1.789,0.8942,0.3944,-97.35,22.5,21.0,10.5249,-1.0774,0.079,0.3693,0.3557,-0.2057,-78.15,29.25,-4.05,-4.03,-2.67,-8.68,-0.0982,-0.0862,0.144,6.5625,22.75,26.0,348.0625,-23.125,161.5625,0
1776973384.843,10.7715,1.221,-1.1923,1.789,0.8942,0.3944,-96.15,22.05,21.3,10.5249,-1.0774,0.079,0.3693,0.3557,-0.2057,-77.55,30.3,-4.2,-4.03,-2.67,-8.68,-0.0742,-0.0382,0.1396,6.5625,22.75,26.0,348.125,-23.125,161.625,0
1776973384.849,9.8976,0.3735,-0.5578,1.8026,0.4453,0.4301,-96.15,22.05,21.3,9.7085,-0.0431,-0.4142,0.17,0.3677,-0.2246,-77.55,30.3,-4.2,-4.2,-2.53,-8.74,-0.0742,-0.0382,0.1396,6.5625,22.75,26.0,348.125,-23.125,161.625,0
1776973384.858,9.335,-0.3232,0.4286,1.8213,0.3611,0.473,-96.45,24.45,20.4,9.6462,0.5531,-0.3328,0.2417,0.4096,-0.2651,-77.7,30.0,-3.6,-4.24,-2.59,-8.61,-0.0807,-0.0447,0.1244,6.5625,22.75,26.0,348.1875,-23.25,161.6875,0
1776973384.868,8.7724,-0.7614,1.3408,1.9215,0.5356,0.5335,-95.1,22.5,19.5,9.663,1.0008,-0.4477,0.4056,0.4085,-0.3064,-78.9,30.0,-3.3,-4.19,-2.52,-8.66,-0.0894,-0.0567,0.108,6.5625,22.75,26.0,348.25,-23.25,161.75,0
1776973384.873,8.7724,-0.7614,1.3408,1.9215,0.5356,0.5335,-94.8,23.55,21.0,9.663,1.0008,-0.4477,0.4056,0.4085,-0.3064,-76.8,31.8,-3.75,-4.19,-2.52,-8.66,-0.0894,-0.0567,0.108,6.5625,22.75,26.0,348.25,-23.25,161.75,0
1776973384.878,9.0549,-0.8092,1.7933,2.0182,0.5281,0.5923,-94.8,23.55,21.0,9.6462,1.3048,-0.6153,0.5609,0.4138,-0.3317,-76.8,31.8,-3.75,-4.28,-2.44,-8.7,-0.0851,-0.0633,0.0894,7.875,22.0,26.0625,348.25,-23.3125,161.8125,0
1776973384.883,9.0549,-0.8092,1.7933,2.0182,0.5281,0.5923,-94.8,23.55,21.0,9.6462,1.3048,-0.6153,0.5609,0.4138,-0.3317,-76.8,31.8,-3.75,-4.28,-2.44,-8.7,-0.0851,-0.0633,0.0894,7.875,22.0,26.0625,348.25,-23.3125,161.8125,0
1776973384.888,9.0573,-0.6584,1.889,1.9702,0.5063,0.6161,-94.8,23.55,21.0,9.5241,1.3168,-0.7398,0.6702,0.405,-0.336,-76.8,31.8,-3.75,-4.2,-2.56,-8.57,-0.0611,-0.0764,0.0687,7.875,22.0,26.0625,348.3125,-23.375,161.875,0
1776973384.893,9.0573,-0.6584,1.889,1.9702,0.5063,0.6161,-93.3,20.55,19.2,9.5241,1.3168,-0.7398,0.6702,0.405,-0.336,-77.4,30.0,-2.55,-4.2,-2.56,-8.57,-0.0491,-0.0796,0.0491,7.875,22.0,26.0625,348.3125,-23.4375,161.9375,0
1776973384.899,9.2656,-0.1077,1.7286,1.9132,0.5617,0.5969,-93.3,20.55,19.2,9.3565,1.6664,-0.3735,0.7128,0.4263,-0.3176,-77.4,30.0,-2.55,-4.11,-2.69,-8.51,-0.0491,-0.0796,0.0491,7.875,22.0,26.0625,348.3125,-23.4375,161.9375,0
1776973384.908,9.8258,0.4262,1.4868,1.6545,0.4796,0.5465,-94.2,19.95,18.3,9.3015,2.3583,-0.905,0.6995,0.4175,-0.2838,-77.4,30.0,-2.55,-4.15,-2.64,-8.46,-0.048,-0.084,0.0371,7.875,22.0,26.0625,348.3125,-23.5,161.9375,0
1776973384.914,9.8258,0.4262,1.4868,1.6545,0.4796,0.5465,-93.3,20.55,17.7,9.3015,2.3583,-0.905,0.6995,0.4175,-0.2838,-76.95,31.2,-3.3,-4.15,-2.64,-8.46,-0.0447,-0.0742,0.0273,7.875,22.0,26.0625,348.375,-23.5625,162.0,0
1776973384.92,9.9,1.1085,1.1372,1.7381,0.2513,0.453,-93.3,20.55,17.7,9.3063,3.067,-1.3815,0.6816,0.429,-0.2366,-76.95,31.2,-3.3,-4.2,-2.72,-8.4,-0.0447,-0.0742,0.0273,7.875,22.0,26.0625,348.375,-23.5625,162.0,0
1776973384.925,9.9,1.1085,1.1372,1.7381,0.2513,0.453,-92.55,21.3,18.15,9.177,3.7493,-1.482,0.6816,0.429,-0.2366,-77.25,32.25,-4.5,-4.17,-2.68,-8.37,-0.0524,-0.0731,0.0273,7.875,22.375,26.1875,348.375,-23.625,162.0,0
1776973384.93,9.9096,1.7669,0.8092,1.7821,0.4173,0.3397,-92.55,21.3,18.15,9.177,3.7493,-1.482,0.7317,0.4354,-0.1839,-77.25,32.25,-4.5,-4.17,-2.68,-8.37,-0.0524,-0.0731,0.0273,7.875,22.375,26.1875,348.375,-23.625,162.0,0
1776973384.934,9.9096,1.7669,0.8092,1.6864,0.4695,0.2358,-92.55,21.3,18.15,9.0381,4.1683,-1.0439,0.7336,0.4495,-0.1498,-76.65,32.4,-4.35,-4.17,-2.68,-8.37,-0.0622,-0.0633,0.0207,7.875,22.375,26.1875,348.375,-23.6875,162.0625,0
1776973384.94,10.3525,2.0351,0.2346,1.6864,0.4695,0.2358,-92.55,21.3,18.15,9.0381,4.1683,-1.0439,0.7336,0.4495,-0.1498,-76.65,32.4,-4.35,-4.1,-2.81,-8.36,-0.0622,-0.0633,0.0207,7.875,22.375,26.1875,348.375,-23.6875,162.0625,0
1776973384.944,10.4627,2.3296,-0.091,1.7096,0.316,0.1359,-93.9,19.95,17.55,9.0501,4.4197,-0.7566,0.7416,0.4687,-0.1061,-77.4,31.65,-4.05,-4.1,-2.81,-8.36,-0.0731,-0.0491,0.0185,7.875,22.375,26.1875,348.375,-23.6875,162.125,0
1776973384.95,10.4627,2.3296,-0.091,1.7096,0.316,0.1359,-93.9,19.95,17.55,9.0501,4.4197,-0.7566,0.7416,0.4687,-0.1061,-77.4,31.65,-4.05,-4.08,-2.84,-8.36,-0.0731,-0.0491,0.0185,7.875,22.375,26.1875,348.375,-23.75,162.125,0
1776973384.959,10.0317,2.4876,-0.2155,1.7296,0.2124,0.0434,-93.45,20.4,16.2,9.1722,3.6679,-0.9409,0.7328,0.4874,-0.0648,-76.8,32.25,-4.5,-3.89,-3.12,-8.21,-0.0873,-0.0327,0.0229,7.875,22.375,26.1875,348.375,-23.75,162.25,0
1776973384.969,9.9072,2.5762,-0.3879,1.6475,0.2305,-0.0357,-94.95,21.15,16.2,9.2273,3.0239,-0.2586,0.8215,0.5151,-0.0288,-77.25,30.6,-4.95,-3.94,-3.27,-8.18,-0.12,-0.0284,0.0349,7.875,22.375,26.1875,348.375,-23.75,162.25,0
1776973384.974,9.9359,2.3655,-0.1101,1.5156,0.3317,-0.0725,-95.4,22.05,16.35,9.4882,2.2075,-0.0646,0.8266,0.5399,0.0298,-77.25,30.6,-4.95,-3.94,-3.27,-8.18,-0.12,-0.0284,0.0349,7.875,22.375,26.1875,348.375,-23.8125,162.3125,0
