timestamp,thigh_acc_x,thigh_acc_y,thigh_acc_z,thigh_gyro_x,thigh_gyro_y,thigh_gyro_z,thigh_mag_x,thigh_mag_y,thigh_mag_z,shank_acc_x,shank_acc_y,shank_acc_z,shank_gyro_x,shank_gyro_y,shank_gyro_z,shank_mag_x,shank_mag_y,shank_mag_z,foot_acc_x,foot_acc_y,foot_acc_z,foot_gyro_x,foot_gyro_y,foot_gyro_z,foot_mag_x,foot_mag_y,foot_mag_z,foot_euler_x,foot_euler_y,foot_euler_z,perturbation_event
48.889,-9.7899,-0.3208,-0.7949,-0.0008,0.0322,0.0035,53.7,30.0,7.05,0.8021,-9.0285,-4.13,-0.008,0.0189,0.0053,-54.0,-25.5,-36.45,-9.81,-0.84,0.58,-0.0022,0.0011,0.0,9.25,-3.0625,1.5625,0.5625,-83.8125,5.0,0
48.895,-9.7899,-0.3208,-0.7949,-0.0075,0.0328,-0.0043,53.7,30.0,7.05,0.8021,-9.0285,-4.13,-0.0035,-0.0024,0.0056,-52.65,-25.05,-36.6,-9.77,-0.82,0.56,-0.0022,0.0011,0.0,9.25,-3.0625,1.5625,0.5625,-83.8125,5.0,0
48.905,-9.7971,-0.3831,-0.7709,-0.0149,0.0344,-0.0021,54.3,30.15,6.15,0.7542,-9.098,-4.1539,-0.0229,0.0075,0.0051,-53.25,-25.2,-36.0,-9.71,-0.84,0.63,-0.0022,0.012,0.0,9.25,-3.0625,1.5625,0.5625,-83.8125,5.0,0
48.914,-9.8162,-0.3831,-0.8045,-0.0037,0.037,-0.0027,54.3,30.15,6.15,0.8619,-9.0573,-4.1037,-0.0357,-0.0037,0.0187,-53.4,-25.35,-34.35,-9.81,-0.86,0.55,-0.0022,0.0022,-0.0033,9.25,-3.0625,1.5625,0.5625,-83.8125,5.0,0
48.924,-9.8067,-0.3735,-0.7183,-0.016,0.0312,-0.0024,53.55,31.65,6.9,0.7614,-9.0812,-4.1276,-0.0445,-0.0115,0.0187,-53.1,-24.6,-36.9,-9.74,-0.8,0.6,0.0,-0.0022,-0.0044,9.25,-3.0625,1.5625,0.5625,-83.8125,5.0,0
48.933,-9.821,-0.4525,-0.8212,-0.0064,0.0301,-0.0008,53.4,30.75,6.3,0.6584,-8.849,-4.1444,-0.0719,-0.032,0.0384,-53.7,-25.2,-36.75,-9.78,-0.81,0.57,0.0011,0.0022,0.0,9.25,-3.0625,1.5625,0.5625,-83.8125,5.0,0
48.938,-9.7468,-0.4118,-0.7614,-0.0064,0.0301,-0.0008,52.35,30.45,6.9,0.6369,-9.1482,-4.2593,-0.0719,-0.032,0.0384,-53.7,-25.2,-36.75,-9.78,-0.81,0.57,0.0011,0.0022,0.0,9.25,-3.0625,-0.25,0.5625,-83.8125,5.0,0
48.945,-9.7636,-0.3304,-0.8356,-0.0285,0.0163,0.0123,52.35,30.45,6.9,0.7374,-8.7915,-4.2066,-0.0501,0.0104,0.0272,-53.7,-24.75,-36.0,-9.8,-0.83,0.61,0.0022,-0.0033,0.0033,9.25,-3.0625,-0.25,0.5625,-83.8125,5.0,0
48.955,-9.8689,-0.3017,-0.7446,0.0064,0.0123,0.0091,52.65,31.5,5.7,0.6009,-8.9711,-4.1851,-0.0224,-0.0125,0.0072,-53.7,-25.95,-36.45,-9.73,-0.89,0.54,0.0044,-0.0098,0.0055,9.25,-3.0625,-0.25,0.5625,-83.8125,5.0,0
48.965,-9.7659,-0.3639,-0.7446,-0.0117,0.0211,0.0045,54.3,30.45,6.15,0.6225,-9.1889,-4.2689,-0.0125,0.0048,-0.0171,-54.15,-26.55,-36.6,-9.73,-0.73,0.59,0.0044,-0.0065,0.0065,9.25,-3.0625,-0.25,0.5625,-83.8125,5.0,0
48.974,-9.7851,-0.34,-0.8619,-0.0293,0.0298,0.0027,54.3,30.45,6.15,0.9744,-8.8945,-4.0582,0.0075,0.0594,-0.0264,-54.15,-26.55,-36.6,-9.73,-0.88,0.56,0.0,0.0011,0.0,9.25,-3.0625,-0.25,0.5625,-83.8125,5.0,0
48.983,-9.8258,-0.2993,-0.723,0.0093,0.0474,-0.0115,52.95,30.3,7.05,0.8021,-9.1937,-4.1563,-0.0091,-0.0165,0.0104,-54.15,-25.8,-36.15,-9.76,-0.85,0.56,-0.0033,0.0,-0.0011,9.25,-3.0625,-0.25,0.5625,-83.8125,5.0,0
48.988,-9.8258,-0.2993,-0.723,-0.0064,0.0565,-0.0203,53.7,30.75,6.3,0.8021,-9.1937,-4.1563,-0.0269,0.0077,0.0338,-54.15,-25.8,-36.15,-9.76,-0.85,0.56,-0.0033,0.0,-0.0011,9.25,-3.75,0.375,0.5625,-83.8125,5.0,0
48.995,-9.7181,-0.407,-0.8499,-0.0064,0.0565,-0.0203,53.7,30.75,6.3,0.8068,-9.019,-4.1037,-0.0269,0.0077,0.0338,-54.15,-25.8,-36.15,-9.79,-0.83,0.6,-0.0044,0.0044,-0.0044,9.25,-3.75,0.375,0.5625,-83.8125,5.0,0
49.005,-9.845,-0.3735,-0.8045,-0.0029,0.0349,-0.0008,54.0,30.0,5.7,0.7542,-8.9974,-4.1492,-0.0424,-0.0147,0.0333,-54.0,-25.2,-37.2,-9.74,-0.81,0.56,-0.0033,0.0109,-0.0022,9.25,-3.75,0.375,0.5625,-83.8125,5.0,0
49.015,-9.8019,-0.3879,-0.7757,-0.0248,0.025,0.0091,53.1,29.7,6.45,0.7973,-8.9783,-4.221,-0.0544,-0.0187,0.0168,-55.05,-25.35,-36.6,-9.78,-0.81,0.56,-0.0055,0.0011,-0.0011,9.25,-3.75,0.375,0.5625,-83.8125,5.0,0
49.024,-9.8258,-0.316,-0.8236,-0.0043,0.0069,0.012,52.35,31.2,7.2,0.735,-8.9232,-4.221,-0.0392,-0.0112,0.0176,-54.6,-25.35,-36.15,-9.76,-0.85,0.56,0.0033,-0.0011,0.0022,9.25,-3.75,0.375,0.5625,-83.8125,5.0,0
49.033,-9.8641,-0.3328,-0.7709,-0.0056,0.0107,0.0107,52.35,31.2,7.2,0.7326,-8.9687,-4.1635,-0.0075,0.0109,0.0067,-54.6,-25.35,-36.15,-9.73,-0.81,0.59,0.0033,-0.0044,0.0033,9.25,-3.75,0.375,0.5625,-83.8125,5.0,0
49.038,-9.8641,-0.3328,-0.7709,-0.0173,0.0226,0.0061,52.35,31.2,7.2,0.7326,-8.9687,-4.1635,-0.0043,0.0296,0.0104,-53.25,-25.95,-36.75,-9.73,-0.81,0.59,0.0033,-0.0044,0.0033,8.875,-3.75,0.375,0.5625,-83.8125,5.0,0
49.045,-9.809,-0.2921,-0.7302,-0.0032,0.0485,-0.0104,52.35,31.2,7.2,0.8571,-8.9687,-4.1228,-0.0043,0.0296,0.0104,-53.85,-26.1,-35.1,-9.75,-0.84,0.59,-0.0033,0.0022,-0.0044,8.875,-3.75,0.375,0.5625,-83.8125,5.0,0
49.055,-9.8665,-0.3591,-0.7733,-0.0067,0.06,-0.0149,53.4,31.05,7.05,0.7925,-9.0764,-4.1348,-0.0168,0.0091,0.0184,-53.7,-25.2,-36.45,-9.76,-0.82,0.62,-0.0033,0.0022,-0.0044,8.875,-3.75,0.375,0.5625,-83.8125,5.0,0
49.065,-9.7252,-0.3448,-0.8619,-0.0123,0.0464,-0.0059,54.6,30.75,7.8,0.8045,-8.9471,-4.1061,-0.029,0.0032,0.028,-53.7,-25.2,-36.45,-9.8,-0.83,0.54,-0.0044,0.0055,-0.0033,8.875,-3.75,0.375,0.5625,-83.8125,5.0,0
49.075,-9.8306,-0.4166,-0.8068,0.0013,0.0187,0.0075,53.1,30.9,6.9,0.6656,-8.9471,-4.0701,-0.0096,-0.0306,-0.0077,-53.1,-25.8,-36.15,-9.75,-0.85,0.56,-0.0011,0.0044,0.0022,8.875,-3.75,0.375,0.5625,-83.8125,5.0,0
49.084,-9.7061,-0.3711,-0.759,0.0013,0.0187,0.0075,53.1,30.9,6.9,0.6105,-9.3398,-4.039,-0.0096,-0.0306,-0.0077,-53.1,-25.8,-36.15,-9.69,-0.81,0.62,-0.0022,0.0076,0.0011,8.875,-3.75,0.375,0.5625,-83.8125,5.0,0
49.088,-9.7061,-0.3711,-0.759,-0.0136,0.0005,0.0163,54.0,31.5,6.3,0.6105,-9.3398,-4.039,0.0053,0.1066,0.0019,-53.1,-25.8,-36.15,-9.69,-0.81,0.62,-0.0022,0.0076,0.0011,9.25,-3.0625,0.375,0.5625,-83.8125,5.0,0
49.096,-9.8282,-0.3496,-0.8356,-0.02,0.0107,0.0184,54.0,31.5,6.3,0.8523,-9.0237,-4.3551,0.008,-0.0091,-0.041,-53.4,-26.55,-36.9,-9.78,-0.83,0.55,-0.0033,-0.0076,0.0076,9.25,-3.0625,0.375,0.5625,-83.8125,5.0,0
49.105,-9.8282,-0.316,-0.7254,-0.0037,0.0075,0.0168,52.35,28.95,6.15,0.6369,-9.2823,-4.1779,0.0248,-0.0397,-0.0514,-53.4,-25.8,-36.9,-9.79,-0.87,0.62,-0.0131,0.0022,0.0011,9.25,-3.0625,0.375,0.5625,-83.8125,5.0,0
49.113,-9.7827,-0.4022,-0.7207,-0.0226,0.0165,0.0128,52.35,28.95,6.15,0.8236,-8.9759,-4.0677,-0.044,-0.0093,-0.0341,-53.4,-25.8,-36.9,-9.76,-0.86,0.55,-0.0109,0.0196,-0.0065,9.25,-3.0625,0.375,0.5625,-83.8125,5.0,0
49.118,-9.7827,-0.4022,-0.7207,-0.0226,0.0165,0.0128,52.2,30.0,6.75,0.8811,-9.3134,-3.8834,-0.044,-0.0093,-0.0341,-52.95,-24.45,-36.45,-9.76,-0.86,0.55,-0.0109,0.0196,-0.0065,9.25,-3.0625,0.375,0.5625,-83.8125,5.0,0
49.125,-9.7612,-0.3352,-0.7973,0.0032,0.0434,0.0,52.8,31.65,6.9,0.8811,-9.3134,-3.8834,-0.0618,-0.008,0.0045,-53.85,-25.8,-35.85,-9.71,-0.78,0.57,-0.0076,0.0109,-0.0065,9.25,-3.0625,0.375,0.5625,-83.8125,5.0,0
49.135,-9.7779,-0.3519,-0.7183,-0.0059,0.0839,-0.0285,54.0,31.05,6.3,1.1708,-8.9687,-4.2306,-0.065,0.0163,0.1143,-52.5,-25.5,-37.95,-9.79,-0.84,0.6,0.0044,-0.0175,0.0022,9.25,-3.0625,0.375,0.5625,-83.8125,5.0,0
49.14,-9.8043,-0.3974,-0.747,-0.0059,0.0839,-0.0285,54.0,31.05,6.3,0.5387,-9.1004,-4.027,-0.065,0.0163,0.1143,-52.5,-25.5,-37.95,-9.79,-0.84,0.6,0.012,-0.0164,0.0098,8.5625,-3.0625,0.875,0.5625,-83.8125,5.0,0
49.146,-9.8043,-0.3974,-0.747,-0.0176,0.0767,-0.0179,54.6,31.2,6.45,0.5387,-9.1004,-4.027,-0.0671,-0.0847,0.0314,-54.45,-25.5,-36.45,-9.72,-0.8,0.61,0.012,-0.0164,0.0098,8.5625,-3.0625,0.875,0.5625,-83.8125,5.0,0
49.155,-9.8114,-0.4262,-0.8284,-0.0016,0.0344,-0.0011,54.6,31.2,6.45,0.577,-8.8585,-4.1348,-0.0456,0.0312,-0.0091,-54.45,-25.5,-36.45,-9.72,-0.81,0.61,0.0076,-0.0076,0.0055,8.5625,-3.0625,0.875,0.5625,-83.8125,5.0,0
49.165,-9.8258,-0.3998,-0.9266,-0.0085,-0.0264,0.0304,52.35,31.2,8.25,0.6057,-8.9136,-4.3814,0.0216,0.024,-0.0557,-52.65,-25.5,-36.45,-9.8,-0.79,0.57,0.0087,-0.0196,0.0065,8.5625,-3.0625,0.875,0.5625,-83.8125,5.0,0
49.175,-9.8521,-0.3639,-0.7661,-0.0272,-0.0389,0.044,54.3,30.9,6.9,0.8356,-8.7317,-4.0749,0.0208,-0.0269,-0.0386,-52.65,-25.35,-37.65,-9.82,-0.87,0.55,-0.0033,0.0055,-0.0022,8.5625,-3.0625,0.875,0.5625,-83.8125,5.0,0
49.182,-9.7516,-0.3112,-0.747,-0.0059,0.0205,0.0083,54.3,30.9,6.9,0.8116,-9.1602,-4.1396,0.025,0.0301,-0.0043,-52.65,-25.35,-37.65,-9.7,-0.79,0.6,-0.0076,0.0109,-0.0055,8.5625,-3.0625,0.875,0.5625,-83.8125,5.0,0
49.187,-9.8474,-0.3041,-0.7207,-0.0059,0.0205,0.0083,52.95,30.75,6.3,0.6464,-9.1267,-4.0893,0.025,0.0301,-0.0043,-54.15,-24.6,-37.65,-9.7,-0.79,0.6,-0.0076,0.0109,-0.0055,8.5625,-3.0625,0.875,0.5625,-83.8125,5.0,0
49.192,-9.8474,-0.3041,-0.7207,-0.0061,0.0754,-0.0232,52.95,30.75,6.3,0.6464,-9.1267,-4.0893,-0.0048,-0.0043,-0.0426,-54.15,-24.6,-37.65,-9.8,-0.85,0.6,-0.0098,0.0033,-0.0098,8.875,-2.25,0.375,0.5625,-83.8125,5.0,0
49.196,-9.8067,-0.3567,-0.7781,-0.0061,0.0754,-0.0232,53.4,31.5,6.0,0.972,-9.1147,-4.1611,-0.0048,-0.0043,-0.0426,-54.15,-24.6,-37.65,-9.8,-0.85,0.6,-0.0098,0.0033,-0.0098,8.875,-2.25,0.375,0.5625,-83.8125,5.0,0
49.205,-9.8067,-0.3567,-0.7781,0.0133,0.101,-0.0381,53.55,30.45,6.9,0.838,-9.0237,-3.8786,-0.0261,-0.0117,0.0216,-52.95,-25.95,-37.5,-9.87,-0.86,0.54,-0.0044,0.0131,-0.0098,8.875,-2.25,0.375,0.5625,-83.8125,5.0,0
49.215,-9.7923,-0.3926,-0.7374,-0.016,0.0909,-0.0309,53.55,30.45,6.9,0.7973,-9.1291,-3.9552,-0.0719,-0.004,0.0725,-52.95,-25.95,-37.5,-9.72,-0.81,0.54,0.0011,0.0044,0.0033,8.875,-2.25,0.375,0.5625,-83.8125,5.0,0
49.223,-9.7803,-0.4238,-0.9146,-0.0075,0.0157,0.0072,53.55,30.45,6.9,0.7973,-9.1291,-3.9552,-0.1023,-0.0346,0.0533,-54.0,-25.5,-36.45,-9.85,-0.86,0.58,0.0044,-0.0207,0.0011,8.875,-2.25,0.375,0.5625,-83.8125,5.0,0
49.228,-9.7755,-0.3735,-0.8428,-0.0075,0.0157,0.0072,53.55,30.45,6.9,0.6608,-9.1578,-4.3838,-0.1023,-0.0346,0.0533,-54.15,-24.6,-36.15,-9.85,-0.86,0.58,0.0044,-0.0207,0.0011,8.875,-2.25,0.375,0.5625,-83.8125,5.0,0
49.236,-9.7659,-0.3711,-0.7973,-0.0229,-0.0218,0.0365,53.55,31.2,6.9,0.7422,-8.8609,-4.2832,-0.0506,-0.0053,0.0045,-52.95,-25.5,-37.5,-9.8,-0.83,0.57,0.0076,-0.0087,0.0087,8.875,-2.25,0.375,0.5625,-83.8125,5.0,0
49.241,-9.7659,-0.3711,-0.7973,-0.0173,-0.0589,0.0549,53.55,31.2,6.9,0.7422,-8.8609,-4.2832,-0.0128,0.025,0.0019,-52.95,-25.5,-37.5,-9.8,-0.83,0.57,0.0076,-0.0087,0.0109,8.5625,-3.0625,0.375,0.5625,-83.8125,4.9375,0
49.246,-9.8426,-0.3136,-0.6967,-0.0173,-0.0589,0.0549,53.1,32.7,7.65,0.6704,-8.7508,-4.2138,-0.0128,0.025,0.0019,-53.7,-26.4,-36.45,-9.7,-0.8,0.6,0.0076,-0.0087,0.0109,8.5625,-3.0625,0.375,0.5625,-83.8125,4.9375,0
49.255,-9.8019,-0.2514,-0.6057,-0.0163,-0.029,0.037,52.95,30.75,6.3,0.814,-9.0166,-4.1324,0.0216,-0.0101,-0.0338,-53.7,-26.4,-36.45,-9.8,-0.83,0.57,-0.0011,-0.0131,-0.0022,8.5625,-3.0625,0.375,0.5625,-83.8125,4.9375,0
49.265,-9.7971,-0.2682,-0.7111,-0.008,0.0482,-0.0069,53.85,30.9,6.9,0.9697,-9.1028,-4.1084,0.0336,0.0373,-0.0165,-53.25,-25.5,-36.45,-9.82,-0.88,0.56,-0.0055,0.0065,-0.0076,8.5625,-3.0625,0.375,0.5625,-83.8125,4.9375,0
49.272,-9.7971,-0.2682,-0.7111,0.0128,0.1063,-0.049,53.85,30.9,6.9,0.8499,-9.1411,-4.0127,0.0147,0.0117,0.0242,-53.25,-25.5,-36.45,-9.76,-0.81,0.58,-0.0087,0.0175,-0.0098,8.5625,-3.0625,0.375,0.5625,-83.8125,4.9375,0
49.276,-9.8354,-0.3448,-0.735,0.0128,0.1063,-0.049,53.85,30.9,6.9,0.8499,-9.1411,-4.0127,-0.04,-0.0128,0.0493,-53.1,-24.6,-37.65,-9.76,-0.81,0.58,-0.0087,0.0175,-0.0098,8.5625,-3.0625,0.375,0.5625,-83.8125,4.9375,0
49.286,-9.7995,-0.4693,-0.8547,-0.0019,0.13,-0.056,53.85,30.9,6.9,0.8021,-9.0908,-4.0342,-0.04,-0.0128,0.0493,-53.1,-24.6,-37.65,-9.81,-0.86,0.56,-0.0055,0.0065,-0.0055,8.5625,-3.0625,0.375,0.5625,-83.8125,4.9375,0
49.29,-9.7995,-0.4693,-0.8547,-0.0061,0.0799,-0.0288,53.85,30.9,6.9,0.8021,-9.0908,-4.0342,-0.085,-0.0213,0.04,-53.1,-24.6,-37.65,-9.81,-0.86,0.56,0.0022,-0.0033,0.0011,9.6875,-3.0625,0.875,0.5625,-83.8125,4.9375,0
49.296,-9.8138,-0.4286,-0.9361,-0.0061,0.0799,-0.0288,54.0,30.3,6.75,0.7039,-9.0668,-4.2114,-0.0778,-0.0075,0.0123,-52.35,-24.6,-36.15,-9.81,-0.87,0.57,0.0022,-0.0033,0.0011,9.6875,-3.0625,0.875,0.5625,-83.8125,4.9375,0
49.305,-9.8019,-0.4022,-0.8643,-0.0171,-0.0064,0.0242,52.8,30.9,7.2,0.7542,-8.9447,-4.2808,-0.0301,0.0088,-0.0045,-52.35,-24.6,-36.15,-9.72,-0.8,0.6,0.0065,-0.0087,0.0087,9.6875,-3.0625,0.875,0.5625,-83.8125,4.9375,0
49.315,-9.7971,-0.3735,-0.7015,-0.0211,-0.0642,0.061,53.55,30.45,4.35,0.7781,-8.8035,-4.2904,0.0115,-0.0165,-0.0155,-54.0,-24.75,-35.7,-9.77,-0.81,0.57,0.0033,-0.0098,0.0109,9.6875,-3.0625,0.875,0.5625,-83.8125,4.9375,0
49.325,-9.8497,-0.2849,-0.68,-0.0274,-0.0594,0.0589,52.8,29.7,6.15,0.7973,-8.995,-4.1946,0.0208,0.0557,-0.0085,-54.0,-25.2,-37.2,-9.78,-0.84,0.59,0.0,-0.0065,0.0022,9.6875,-3.0625,0.875,0.5625,-83.8125,4.9375,0
49.33,-9.8497,-0.2849,-0.68,-0.0096,0.0125,0.012,53.1,30.45,4.05,0.9194,-9.0501,-4.063,0.0208,0.0557,-0.0085,-54.45,-26.7,-36.75,-9.78,-0.84,0.59,-0.0065,0.0098,-0.0065,9.6875,-3.0625,0.875,0.5625,-83.8125,4.9375,0
49.336,-9.8426,-0.2777,-0.6823,0.0024,0.0898,-0.0325,53.1,30.45,4.05,0.9194,-9.0501,-4.063,-0.0064,0.0021,0.0176,-53.4,-25.35,-37.65,-9.77,-0.83,0.58,-0.0065,0.0098,-0.0065,9.6875,-3.0625,0.875,0.5625,-83.8125,4.9375,0
49.341,-9.8162,-0.3543,-0.7015,0.0024,0.0898,-0.0325,53.1,30.45,4.05,0.9122,-9.0788,-4.0821,-0.0064,0.0021,0.0176,-53.4,-25.35,-37.65,-9.77,-0.83,0.58,-0.0076,0.0109,-0.0087,8.875,-3.375,-0.25,0.5625,-83.8125,4.9375,0
49.346,-9.8162,-0.3543,-0.7015,0.0005,0.1287,-0.0554,53.1,30.45,4.05,0.9122,-9.0788,-4.0821,-0.0456,-0.0221,0.0352,-53.4,-25.35,-37.65,-9.73,-0.83,0.58,-0.0076,0.0109,-0.0087,8.875,-3.375,-0.25,0.5625,-83.8125,4.9375,0
49.356,-9.7636,-0.3591,-0.9074,-0.0027,0.0935,-0.0378,53.85,29.7,5.1,0.826,-9.153,-4.0821,-0.0658,-0.0133,0.0301,-53.7,-24.45,-36.45,-9.79,-0.88,0.56,-0.0022,0.0011,-0.0044,8.875,-3.375,-0.25,0.5625,-83.8125,4.9375,0
49.365,-9.7612,-0.4621,-0.8906,-0.0128,0.0117,0.0072,54.3,29.7,8.25,0.7614,-8.9687,-4.1396,-0.0568,-0.0085,0.0061,-53.7,-24.45,-36.45,-9.75,-0.83,0.56,0.0033,-0.0011,0.0011,8.875,-3.375,-0.25,0.5625,-83.8125,4.9375,0
49.375,-9.7444,-0.3472,-0.8284,-0.0176,-0.0405,0.0416,53.4,31.8,6.0,0.7494,-8.9399,-4.2737,-0.0139,0.0043,0.0045,-53.1,-25.05,-35.85,-9.72,-0.82,0.59,0.0033,-0.0098,0.0065,8.875,-3.375,-0.25,0.5625,-83.8125,4.9375,0
49.383,-9.8019,-0.3831,-0.7925,-0.0176,-0.0405,0.0416,54.3,31.2,5.4,0.8164,-8.8945,-4.1994,0.0032,0.0037,-0.0003,-53.1,-25.05,-35.85,-9.78,-0.82,0.58,0.0044,-0.012,0.0044,8.875,-3.375,-0.25,0.5625,-83.8125,4.9375,0
49.388,-9.8019,-0.3831,-0.7925,-0.0211,-0.0458,0.0453,54.3,31.2,5.4,0.8116,-9.0501,-4.0965,0.0032,0.0037,-0.0003,-53.85,-25.8,-35.85,-9.78,-0.82,0.58,0.0044,-0.012,0.0044,8.875,-3.375,-0.25,0.5625,-83.8125,4.9375,0
49.395,-9.833,-0.2873,-0.7087,-0.0144,0.0088,0.0144,53.4,30.3,6.0,0.8116,-9.0501,-4.0965,0.0029,0.0216,0.0069,-53.85,-25.8,-35.85,-9.77,-0.83,0.6,-0.0033,0.0022,-0.0044,9.6875,-3.375,0.0625,0.5625,-83.8125,4.9375,0
49.405,-9.809,-0.261,-0.6656,-0.0056,0.0703,-0.0205,53.4,30.3,6.0,0.814,-9.0429,-4.0654,-0.0242,-0.0088,0.0099,-53.7,-25.95,-36.75,-9.75,-0.82,0.57,-0.0044,0.0065,-0.0044,9.6875,-3.375,0.0625,0.5625,-83.8125,4.9375,0
49.412,-9.833,-0.3519,-0.759,-0.0056,0.0703,-0.0205,52.65,31.05,5.25,0.8356,-9.0668,-4.1324,-0.0496,-0.0075,0.028,-53.85,-25.05,-36.15,-9.79,-0.85,0.56,-0.0044,0.0011,-0.0033,9.6875,-3.375,0.0625,0.5625,-83.8125,4.9375,0
49.417,-9.833,-0.3519,-0.759,-0.0011,0.0903,-0.0346,52.65,31.05,5.25,0.7422,-9.0357,-4.1468,-0.0496,-0.0075,0.028,-52.2,-25.05,-36.15,-9.79,-0.85,0.56,-0.0044,0.0011,-0.0033,9.6875,-3.375,0.0625,0.5625,-83.8125,4.9375,0
49.426,-9.7588,-0.4094,-0.8212,-0.0035,0.0687,-0.0221,52.65,30.75,6.3,0.7326,-8.9663,-4.197,-0.0514,-0.0107,0.0192,-52.2,-25.5,-36.75,-9.79,-0.84,0.58,0.0,0.0,0.0,9.6875,-3.375,0.0625,0.5625,-83.8125,4.9375,0
49.436,-9.7588,-0.3615,-0.814,-0.0101,0.0269,0.0048,53.4,30.3,7.35,0.7446,-8.9519,-4.197,-0.0328,0.0048,0.0136,-53.1,-24.6,-38.4,-9.75,-0.82,0.6,0.0033,-0.0022,0.0033,9.6875,-3.375,0.0625,0.5625,-83.8125,4.9375,0
49.441,-9.7516,-0.4262,-0.7973,-0.0101,0.0269,0.0048,53.55,29.4,7.2,0.7446,-8.9519,-4.197,-0.0141,0.0027,0.0003,-54.45,-24.45,-37.2,-9.75,-0.82,0.6,0.0022,-0.0044,0.0022,8.875,-3.0625,0.0625,0.5625,-83.8125,4.9375,0
49.447,-9.7516,-0.4262,-0.7973,-0.0139,-0.0133,0.028,53.55,29.4,7.2,0.7709,-8.9639,-4.1659,-0.0141,0.0027,0.0003,-54.45,-24.45,-37.2,-9.75,-0.83,0.59,0.0022,-0.0044,0.0022,8.875,-3.0625,0.0625,0.5625,-83.8125,4.9375,0
49.456,-9.7588,-0.3926,-0.7278,-0.0187,-0.0072,0.024,52.8,29.7,5.85,0.7973,-9.0573,-4.1515,-0.0088,0.0109,-0.0016,-53.4,-26.55,-35.55,-9.77,-0.84,0.57,0.0,0.0,-0.0011,8.875,-3.0625,0.0625,0.5625,-83.8125,4.9375,0
49.466,-9.7899,-0.3256,-0.747,-0.0093,0.016,-0.0013,52.8,29.7,5.85,0.7805,-9.0812,-4.0701,-0.02,0.0075,0.0064,-52.35,-26.55,-37.65,-9.75,-0.84,0.57,-0.0022,0.0044,-0.0011,8.875,-3.0625,0.0625,0.5625,-83.8125,4.9375,0
49.475,-9.7683,-0.3328,-0.7326,-0.0059,0.0493,-0.0123,52.8,29.7,5.85,0.7685,-9.0644,-4.1611,-0.0309,-0.0061,0.0136,-52.35,-26.55,-37.65,-9.75,-0.83,0.56,-0.0044,0.0,-0.0022,8.875,-3.0625,0.0625,0.5625,-83.8125,4.9375,0
49.484,-9.8067,-0.3567,-0.7518,-0.0107,0.0578,-0.0141,53.85,31.2,6.9,0.7638,-9.0166,-4.2042,-0.0368,-0.0104,0.0258,-53.7,-25.5,-36.75,-9.76,-0.85,0.58,-0.0011,-0.0011,0.0011,8.875,-3.0625,0.0625,0.5625,-83.8125,4.9375,0
49.489,-9.8282,-0.3352,-0.7949,-0.0107,0.0578,-0.0141,51.75,30.45,6.15,0.7638,-9.0166,-4.2042,-0.0405,-0.0085,0.0179,-53.7,-25.5,-36.75,-9.76,-0.85,0.58,-0.0011,-0.0011,0.0011,8.875,-3.375,0.875,0.5625,-83.8125,4.9375,0
49.496,-9.8426,-0.3831,-0.8021,-0.0104,0.0488,-0.0077,51.75,30.45,6.15,0.8116,-8.9807,-4.1563,-0.0405,-0.0085,0.0179,-53.7,-25.5,-36.75,-9.78,-0.83,0.56,0.0011,-0.0033,0.0011,8.875,-3.375,0.875,0.5625,-83.8125,4.9375,0
49.506,-9.809,-0.4094,-0.8308,-0.0091,0.0248,0.0048,53.4,31.05,7.35,0.747,-9.0357,-4.197,-0.028,-0.0027,0.0099,-52.5,-25.95,-36.75,-9.77,-0.84,0.59,0.0011,-0.0022,0.0022,8.875,-3.375,0.875,0.5625,-83.8125,4.9375,0
49.516,-9.7827,-0.3879,-0.7829,-0.0107,0.0123,0.0075,54.0,30.3,6.3,0.747,-9.0333,-4.1444,-0.0152,0.0037,0.0037,-54.6,-26.1,-37.35,-9.76,-0.82,0.56,0.0022,-0.0011,0.0,8.875,-3.375,0.875,0.5625,-83.8125,4.9375,0
49.525,-9.809,-0.3424,-0.7709,-0.0107,0.0179,0.0112,52.35,30.15,5.1,0.8116,-9.0261,-4.1468,-0.0155,0.0048,0.0016,-54.0,-26.4,-36.45,-9.77,-0.85,0.61,-0.0022,0.0033,-0.0022,8.875,-3.375,0.875,0.5625,-83.8125,4.9375,0
49.532,-9.809,-0.3424,-0.7709,-0.0157,0.0258,-0.0008,52.35,30.15,5.1,0.7805,-9.0405,-4.1061,-0.0203,-0.0021,0.0128,-54.0,-25.2,-37.2,-9.77,-0.85,0.61,-0.0022,-0.0022,-0.0011,8.875,-3.375,0.875,0.5625,-83.8125,4.9375,0
49.537,-9.8114,-0.3903,-0.735,-0.0157,0.0258,-0.0008,52.95,29.25,6.75,0.7805,-9.0405,-4.1061,-0.032,-0.0056,0.0107,-54.0,-25.2,-37.2,-9.77,-0.82,0.58,-0.0022,-0.0022,-0.0011,8.875,-3.375,0.875,0.5625,-83.8125,4.9375,0
49.542,-9.8114,-0.3903,-0.735,-0.0099,0.0389,-0.0045,52.95,29.25,6.75,0.8643,-9.0261,-4.1803,-0.032,-0.0056,0.0107,-52.95,-25.95,-37.2,-9.77,-0.84,0.61,-0.0044,0.0011,-0.0011,9.25,-3.375,0.0625,0.5625,-83.8125,4.9375,0
49.547,-9.7899,-0.3903,-0.7925,-0.0099,0.0389,-0.0045,52.8,30.45,6.9,0.8643,-9.0261,-4.1803,-0.0405,-0.0117,0.0218,-52.95,-25.95,-37.2,-9.77,-0.84,0.61,-0.0044,0.0011,-0.0011,9.25,-3.375,0.0625,0.5625,-83.8125,4.9375,0
49.556,-9.7707,-0.407,-0.7925,-0.0061,0.0437,-0.0043,53.1,30.9,6.15,0.7614,-9.0405,-4.1396,-0.0362,-0.0019,0.0117,-53.25,-25.95,-36.0,-9.75,-0.84,0.57,0.0011,-0.0022,0.0,9.25,-3.375,0.0625,0.5625,-83.8125,4.9375,0
49.567,-9.8569,-0.3735,-0.8164,-0.0083,0.0301,0.0035,52.95,31.5,7.35,0.7254,-9.0046,-4.142,-0.024,0.0011,0.0083,-53.25,-25.95,-36.0,-9.77,-0.83,0.57,0.0011,-0.0033,0.0022,9.25,-3.375,0.0625,0.5625,-83.8125,4.9375,0
49.576,-9.7947,-0.3639,-0.6919,-0.0067,0.025,0.0069,54.45,30.75,6.75,0.7614,-8.9878,-4.1587,-0.0155,0.0133,0.004,-54.45,-25.2,-36.75,-9.75,-0.84,0.59,0.0011,-0.0011,0.0011,9.25,-3.375,0.0625,0.5625,-83.8125,4.9375,0
49.586,-9.8186,-0.3424,-0.7638,-0.0088,0.0192,0.0035,54.45,30.75,6.75,0.814,-9.0237,-4.1108,-0.0147,0.0059,0.0091,-54.45,-25.2,-36.75,-9.77,-0.83,0.58,0.0,-0.0044,0.0,9.25,-3.375,0.0625,0.5625,-83.8125,4.9375,0
49.591,-9.8186,-0.3424,-0.7638,-0.0125,0.0296,0.0043,54.45,30.75,6.75,0.8308,-9.1171,-4.1994,-0.0147,0.0059,0.0091,-53.7,-25.95,-36.0,-9.77,-0.83,0.58,-0.0033,0.0033,-0.0022,8.875,-3.375,0.375,0.5625,-83.8125,4.9375,0
49.597,-9.7659,-0.3208,-0.7494,-0.0075,0.0424,-0.0051,54.9,30.45,6.9,0.8308,-9.1171,-4.1994,-0.0216,-0.0008,0.0123,-53.7,-25.95,-36.0,-9.78,-0.82,0.57,-0.0033,0.0033,-0.0022,8.875,-3.375,0.375,0.5625,-83.8125,4.9375,0
49.606,-9.8234,-0.3041,-0.814,-0.0104,0.0389,-0.0067,53.4,31.05,7.8,0.8212,-9.0261,-4.1228,-0.0362,0.0008,0.0171,-55.2,-26.4,-36.75,-9.77,-0.83,0.57,-0.0011,0.0033,-0.0022,8.875,-3.375,0.375,0.5625,-83.8125,4.9375,0
49.616,-9.7659,-0.3831,-0.7781,-0.0117,0.0266,0.0005,53.55,30.45,5.85,0.7757,-9.0022,-4.1372,-0.0314,-0.0027,0.0131,-53.7,-25.5,-36.45,-9.77,-0.84,0.56,-0.0011,0.0,-0.0011,8.875,-3.375,0.375,0.5625,-83.8125,4.9375,0
49.626,-9.8114,-0.3448,-0.7925,-0.0088,0.0197,0.0043,51.9,31.05,6.3,0.7638,-9.0525,-4.1492,-0.0269,-0.0016,0.0107,-52.5,-26.7,-37.95,-9.78,-0.84,0.59,0.0,-0.0011,0.0011,8.875,-3.375,0.375,0.5625,-83.8125,4.9375,0
49.635,-9.7468,-0.3089,-0.7566,-0.008,0.0216,0.0067,54.0,28.8,5.7,0.759,-9.0309,-4.1515,-0.0221,0.0005,0.0125,-54.15,-24.6,-36.9,-9.75,-0.83,0.58,0.0,0.0011,0.0011,8.875,-3.375,0.375,0.5625,-83.8125,4.9375,0
49.64,-9.7468,-0.3089,-0.7566,-0.008,0.0216,0.0067,54.0,28.8,5.7,0.7685,-8.9759,-4.1635,-0.0221,0.0005,0.0125,-53.85,-25.35,-36.6,-9.75,-0.83,0.58,0.0,0.0011,0.0011,9.6875,-3.375,-0.25,0.5625,-83.8125,4.9375,0
49.647,-9.8067,-0.3663,-0.7733,-0.0104,0.028,0.004,54.0,28.8,5.7,0.7614,-9.0525,-4.1084,-0.0195,0.0013,0.0072,-53.85,-25.35,-36.6,-9.76,-0.83,0.59,0.0011,0.0,-0.0011,9.6875,-3.375,-0.25,0.5625,-83.8125,4.9375,0
49.656,-9.7803,-0.3519,-0.7949,-0.0064,0.0402,-0.0045,54.0,28.8,5.7,0.826,-9.0788,-4.1731,-0.0184,0.0069,0.0093,-53.85,-25.35,-36.6,-9.76,-0.83,0.56,-0.0033,0.0,-0.0011,9.6875,-3.375,-0.25,0.5625,-83.8125,4.9375,0
49.666,-9.833,-0.3711,-0.7829,-0.0096,0.0424,-0.0032,52.35,30.15,6.15,0.7638,-9.0812,-4.1611,-0.0285,-0.0072,0.0125,-52.95,-24.75,-36.0,-9.78,-0.81,0.57,0.0,-0.0011,-0.0022,9.6875,-3.375,-0.25,0.5625,-83.8125,4.9375,0
49.676,-9.8282,-0.3759,-0.7853,-0.0144,0.0349,-0.0013,52.8,30.45,6.45,0.7997,-9.074,-4.1587,-0.0338,-0.0091,0.0157,-52.95,-24.75,-36.0,-9.78,-0.84,0.58,-0.0022,0.0,-0.0022,9.6875,-3.375,-0.25,0.5625,-83.8125,4.9375,0
49.684,-9.8306,-0.3089,-0.8068,-0.0085,0.0232,0.0045,53.85,30.15,6.15,0.7997,-9.074,-4.1587,-0.0333,-0.0035,0.0149,-53.25,-25.95,-37.5,-9.74,-0.83,0.57,0.0011,-0.0033,0.0,9.6875,-3.375,-0.25,0.5625,-83.8125,4.9375,0
49.689,-9.7995,-0.3711,-0.7925,-0.0085,0.0232,0.0045,53.85,30.15,6.15,0.7781,-9.0166,-4.1827,-0.0333,-0.0035,0.0149,-53.25,-25.95,-37.5,-9.74,-0.83,0.57,0.0011,-0.0033,0.0,9.6875,-3.375,-0.25,0.5625,-83.8125,4.9375,0
49.697,-9.7995,-0.3711,-0.7925,-0.0064,0.0248,0.0091,54.0,31.05,5.7,0.7685,-8.9807,-4.1707,-0.0272,0.0013,0.0101,-53.25,-25.95,-37.5,-9.77,-0.84,0.57,0.0,-0.0011,0.0,9.25,-4.1875,0.375,0.5625,-83.8125,4.9375,0
49.706,-9.809,-0.3615,-0.7542,-0.0072,0.024,0.0075,54.75,31.05,7.05,0.8356,-9.0333,-4.1563,-0.0221,0.0027,0.0067,-53.7,-25.5,-37.5,-9.76,-0.83,0.56,0.0,-0.0044,0.0,9.25,-4.1875,0.375,0.5625,-83.8125,4.9375,0
49.716,-9.8306,-0.407,-0.7374,-0.0075,0.0328,-0.0013,54.75,31.05,7.05,0.7973,-9.0357,-4.1372,-0.02,0.0048,0.0075,-52.95,-25.5,-36.75,-9.74,-0.84,0.56,0.0,-0.0033,-0.0011,9.25,-4.1875,0.375,0.5625,-83.8125,4.9375,0
49.726,-9.7923,-0.3974,-0.8045,-0.0083,0.044,-0.0024,54.0,31.8,6.75,0.8643,-9.0261,-4.1659,-0.0232,0.0035,0.0096,-53.7,-25.95,-36.75,-9.78,-0.83,0.56,0.0,0.0011,0.0,9.25,-4.1875,0.375,0.5625,-83.8125,4.9375,0
49.735,-9.7588,-0.2945,-0.7805,-0.0067,0.0384,-0.0011,53.55,29.7,6.9,0.7374,-9.0644,-4.118,-0.0333,0.0037,0.0157,-53.85,-25.05,-37.35,-9.76,-0.84,0.57,-0.0022,0.0011,-0.0033,9.25,-4.1875,0.375,0.5625,-83.8125,4.9375,0
49.74,-9.809,-0.3328,-0.7638,-0.0067,0.0384,-0.0011,53.55,29.7,6.9,0.7374,-9.0644,-4.118,-0.0298,-0.0091,0.0152,-55.2,-25.2,-36.45,-9.76,-0.84,0.57,-0.0022,0.0011,-0.0033,8.875,-3.0625,0.375,0.5625,-83.8125,4.9375,0
49.747,-9.809,-0.3328,-0.7638,-0.012,0.036,0.0,53.1,31.95,7.65,0.735,-9.086,-4.1707,-0.0298,-0.0091,0.0152,-55.2,-25.2,-36.45,-9.76,-0.83,0.57,-0.0022,-0.0011,0.0011,8.875,-3.0625,0.375,0.5625,-83.8125,4.9375,0
49.756,-9.7971,-0.3256,-0.7757,-0.0133,0.0258,0.0088,53.4,30.75,7.05,0.8332,-9.0237,-4.1515,-0.0285,0.0005,0.0085,-54.45,-25.2,-35.25,-9.74,-0.82,0.56,0.0011,0.0,-0.0011,8.875,-3.0625,0.375,0.5625,-83.8125,4.9375,0
49.766,-9.8641,-0.395,-0.7661,-0.0115,0.0181,0.0072,54.3,30.15,6.9,0.7542,-9.0261,-4.1659,-0.0205,0.0035,0.0101,-54.45,-25.2,-35.25,-9.76,-0.85,0.56,0.0022,-0.0011,-0.0011,8.875,-3.0625,0.375,0.5625,-83.8125,4.9375,0
49.776,-9.7612,-0.3543,-0.6967,-0.0085,0.0226,0.0067,54.3,30.15,6.9,0.8284,-9.0214,-4.1755,-0.0226,-0.0032,0.0096,-52.2,-26.4,-36.45,-9.78,-0.84,0.55,-0.0011,0.0011,0.0,8.875,-3.0625,0.375,0.5625,-83.8125,4.9375,0
49.785,-9.7612,-0.3543,-0.6967,-0.0099,0.0352,-0.0019,52.95,30.0,7.05,0.814,-9.0285,-4.1204,-0.0226,-0.0032,0.0096,-52.2,-26.4,-36.45,-9.76,-0.82,0.56,0.0011,-0.0033,-0.0011,8.875,-3.0625,0.375,0.5625,-83.8125,4.9375,0
49.79,-9.809,-0.3663,-0.8045,-0.0155,0.0424,-0.0091,52.95,30.0,7.05,0.814,-9.0285,-4.1204,-0.0242,0.0016,0.0136,-52.2,-26.4,-36.45,-9.76,-0.82,0.56,0.0011,-0.0033,-0.0011,9.25,-3.0625,0.875,0.5625,-83.8125,4.9375,0
49.797,-9.8043,-0.3472,-0.7446,-0.0155,0.0424,-0.0091,53.4,30.3,6.75,0.7973,-9.0261,-4.1396,-0.0258,-0.0005,0.0155,-53.4,-25.05,-36.9,-9.77,-0.85,0.59,0.0,0.0,0.0,9.25,-3.0625,0.875,0.5625,-83.8125,4.9375,0
49.807,-9.7731,-0.3663,-0.7853,-0.0093,0.0354,-0.0029,53.7,31.05,6.75,0.7518,-9.0166,-4.1851,-0.029,0.0053,0.0139,-54.0,-24.45,-36.75,-9.77,-0.83,0.59,0.0,0.0022,0.0,9.25,-3.0625,0.875,0.5625,-83.8125,4.9375,0
49.816,-9.8043,-0.34,-0.8116,-0.0112,0.0269,0.0045,53.1,30.15,7.2,0.7661,-9.0405,-4.2042,-0.0266,0.0003,0.0072,-53.4,-26.1,-36.9,-9.75,-0.83,0.57,0.0011,0.0022,-0.0011,9.25,-3.0625,0.875,0.5625,-83.8125,4.9375,0
49.826,-9.7588,-0.4381,-0.7709,-0.0096,0.0179,0.0101,54.9,30.45,6.9,0.7853,-9.0477,-4.2042,-0.0258,0.004,0.0123,-55.05,-25.8,-37.65,-9.76,-0.83,0.6,-0.0011,-0.0022,0.0,9.25,-3.0625,0.875,0.5625,-83.8125,4.9375,0
49.837,-9.7875,-0.3017,-0.8499,-0.0117,0.0173,0.0083,54.9,30.45,6.9,0.7111,-9.086,-4.1324,-0.0189,0.0011,0.0059,-53.7,-25.5,-36.45,-9.77,-0.84,0.56,0.0,-0.0055,-0.0011,9.25,-3.0625,0.875,0.5625,-83.8125,4.9375,0
49.841,-9.7875,-0.3017,-0.8499,-0.0099,0.0285,0.0013,54.9,30.45,6.9,0.7709,-9.0118,-4.1922,-0.0189,0.0011,0.0059,-53.1,-26.55,-37.35,-9.77,-0.84,0.56,-0.0011,0.0022,-0.0011,9.25,-4.1875,0.375,0.5625,-83.8125,4.9375,0
49.847,-9.7971,-0.2969,-0.7757,-0.0099,0.0285,0.0013,54.9,30.45,6.9,0.7709,-9.0118,-4.1922,-0.0229,0.0037,0.0099,-53.1,-26.55,-37.35,-9.78,-0.84,0.56,-0.0011,0.0022,-0.0011,9.25,-4.1875,0.375,0.5625,-83.8125,4.9375,0
49.857,-9.8354,-0.3112,-0.7805,-0.0104,0.0362,-0.0067,53.1,30.45,6.15,0.7805,-9.0237,-4.1659,-0.0218,-0.0013,0.0099,-53.1,-26.55,-37.35,-9.75,-0.82,0.57,-0.0011,0.0011,-0.0011,9.25,-4.1875,0.375,0.5625,-83.8125,4.9375,0
49.867,-9.8114,-0.3735,-0.7685,-0.0083,0.0421,-0.0064,52.65,29.55,7.35,0.7518,-9.0118,-4.1611,-0.0317,-0.0056,0.0125,-52.5,-26.7,-36.0,-9.75,-0.82,0.56,0.0011,-0.0033,-0.0022,9.25,-4.1875,0.375,0.5625,-83.8125,4.9375,0
49.876,-9.7995,-0.3591,-0.7877,-0.0083,0.032,0.0011,52.05,30.9,5.4,0.7901,-8.9639,-4.1515,-0.0234,0.0013,0.0173,-52.5,-26.7,-36.0,-9.76,-0.82,0.59,0.0011,-0.0022,-0.0022,9.25,-4.1875,0.375,0.5625,-83.8125,4.9375,0
49.885,-9.7851,-0.3448,-0.7374,-0.0123,0.0216,0.0032,52.65,31.05,5.7,0.7638,-8.9759,-4.1132,-0.0322,-0.0021,0.0152,-53.4,-25.35,-36.9,-9.78,-0.83,0.57,0.0011,-0.0033,0.0011,9.25,-4.1875,0.375,0.5625,-83.8125,4.9375,0
49.89,-9.7851,-0.3448,-0.7374,-0.0067,0.0211,0.0088,52.95,31.5,6.75,0.7302,-9.0477,-4.1635,-0.0322,-0.0021,0.0152,-53.4,-25.35,-36.9,-9.78,-0.83,0.57,0.0011,-0.0033,0.0011,8.875,-3.75,0.875,0.5625,-83.8125,4.9375,0
49.897,-9.7779,-0.3472,-0.759,-0.0101,0.0293,0.0043,52.95,31.5,6.75,0.735,-9.0094,-4.1611,-0.0296,0.0011,0.0083,-54.45,-26.4,-36.45,-9.78,-0.83,0.56,0.0011,-0.0011,-0.0022,8.875,-3.75,0.875,0.5625,-83.8125,4.9375,0
49.907,-9.821,-0.3376,-0.735,-0.0083,0.0346,0.0019,52.95,31.5,6.75,0.8236,-9.0166,-4.1875,-0.0266,-0.0005,0.0123,-53.1,-26.1,-35.55,-9.78,-0.85,0.59,-0.0022,0.0011,0.0,8.875,-3.75,0.875,0.5625,-83.8125,4.9375,0
49.917,-9.8234,-0.3615,-0.7614,-0.0093,0.0426,-0.0037,53.7,31.5,8.1,0.7805,-9.0261,-4.1659,-0.0242,-0.0051,0.0093,-54.75,-25.2,-36.75,-9.75,-0.83,0.57,-0.0011,-0.0011,0.0,8.875,-3.75,0.875,0.5625,-83.8125,4.9375,0
49.926,-9.7755,-0.328,-0.7159,-0.0075,0.0322,0.0019,53.7,29.55,7.05,0.8045,-9.0166,-4.1515,-0.0245,0.0003,0.0112,-52.35,-25.35,-36.15,-9.77,-0.85,0.56,-0.0022,0.0,-0.0011,8.875,-3.75,0.875,0.5625,-83.8125,4.9375,0
49.934,-9.7899,-0.3639,-0.7901,-0.0075,0.0322,0.0019,53.1,30.9,5.85,0.7805,-8.9711,-4.1922,-0.0293,0.0027,0.0149,-53.85,-25.8,-36.6,-9.78,-0.83,0.59,-0.0022,0.0011,0.0,8.875,-3.75,0.875,0.5625,-83.8125,4.9375,0
49.939,-9.7899,-0.3639,-0.7901,-0.0059,0.0272,0.0013,53.85,30.45,6.45,0.7805,-8.9711,-4.1922,-0.028,0.0032,0.0112,-53.85,-25.8,-36.6,-9.78,-0.83,0.59,-0.0022,0.0011,0.0,8.875,-3.75,0.875,0.5625,-83.8125,4.9375,0
49.944,-9.7995,-0.34,-0.7901,-0.0059,0.0272,0.0013,53.85,30.45,6.45,0.7757,-8.9639,-4.13,-0.028,0.0032,0.0112,-52.95,-25.95,-37.5,-9.78,-0.86,0.58,0.0,0.0022,0.0,9.6875,-3.375,-0.25,0.5625,-83.8125,4.9375,0
49.949,-9.7995,-0.34,-0.7901,-0.0075,0.0248,0.0048,54.45,30.3,6.0,0.7757,-8.9639,-4.13,-0.0269,0.0043,0.0101,-52.95,-25.95,-37.5,-9.78,-0.86,0.58,0.0,0.0022,0.0,9.6875,-3.375,-0.25,0.5625,-83.8125,4.9375,0
49.957,-9.8043,-0.3089,-0.7997,-0.0072,0.0229,0.0043,54.45,30.3,6.0,0.8332,-9.007,-4.2042,-0.0269,0.0043,0.0101,-54.0,-24.75,-35.7,-9.76,-0.83,0.56,0.0011,-0.0022,0.0,9.6875,-3.375,-0.25,0.5625,-83.8125,4.9375,0
49.967,-9.8162,-0.3424,-0.7829,-0.012,0.0248,0.0005,54.45,30.3,6.0,0.7685,-9.0261,-4.2018,-0.0266,0.0035,0.0091,-54.0,-24.75,-35.7,-9.77,-0.82,0.56,0.0011,-0.0022,0.0011,9.6875,-3.375,-0.25,0.5625,-83.8125,4.9375,0
49.977,-9.8067,-0.3615,-0.7661,-0.0059,0.0378,-0.004,53.55,30.45,6.15,0.814,-9.0405,-4.1539,-0.029,0.0037,0.0133,-54.15,-26.1,-36.15,-9.78,-0.81,0.56,-0.0011,0.0011,-0.0011,9.6875,-3.375,-0.25,0.5625,-83.8125,4.9375,0
49.987,-9.821,-0.3735,-0.8045,-0.0075,0.0357,-0.0027,52.65,30.0,6.0,0.7973,-9.0381,-4.1707,-0.0277,-0.0021,0.0168,-54.15,-26.1,-36.15,-9.79,-0.83,0.62,-0.0011,0.0033,-0.0011,9.6875,-3.375,-0.25,0.5625,-83.8125,4.9375,0
49.992,-9.833,-0.3903,-0.759,-0.0075,0.0357,-0.0027,54.45,30.75,7.05,0.7973,-9.0381,-4.1707,-0.033,-0.0048,0.0133,-54.15,-26.1,-36.15,-9.79,-0.83,0.62,-0.0011,0.0011,0.0,9.25,-3.75,0.0625,0.5625,-83.8125,4.9375,0
49.998,-9.833,-0.3903,-0.759,-0.0093,0.0362,0.0024,53.55,30.9,6.9,0.8021,-9.0166,-4.1827,-0.0288,-0.0011,0.0096,-52.35,-25.8,-37.35,-9.78,-0.84,0.59,-0.0011,0.0011,0.0,9.25,-3.75,0.0625,0.5625,-83.8125,4.9375,0
50.007,-9.8067,-0.4094,-0.8212,-0.0069,0.0309,0.0037,54.3,30.15,6.45,0.7757,-9.0381,-4.2066,-0.0245,-0.0011,0.0112,-53.25,-25.5,-36.45,-9.77,-0.83,0.57,-0.0022,0.0022,0.0011,9.25,-3.75,0.0625,0.5625,-83.8125,4.9375,0
50.017,-9.8138,-0.3663,-0.7685,-0.0117,0.0248,0.0059,54.3,30.15,6.45,0.7566,-9.0573,-4.1468,-0.0277,0.0019,0.0075,-54.0,-24.75,-34.95,-9.74,-0.83,0.57,0.0022,-0.0044,-0.0022,9.25,-3.75,0.0625,0.5625,-83.8125,4.9375,0
50.027,-9.7971,-0.3472,-0.7925,-0.0085,0.0256,0.0043,54.3,30.15,6.45,0.7614,-9.0764,-4.118,-0.0221,-0.0027,0.0077,-53.25,-25.5,-36.0,-9.78,-0.82,0.55,-0.0011,-0.0011,-0.0022,9.25,-3.75,0.0625,0.5625,-83.8125,4.9375,0
50.036,-9.7492,-0.3424,-0.7566,-0.0109,0.0306,-0.0008,54.3,30.15,6.45,0.7326,-9.0692,-4.1515,-0.024,0.0008,0.0093,-52.35,-26.55,-37.65,-9.75,-0.84,0.57,-0.0011,-0.0011,-0.0011,9.25,-3.75,0.0625,0.5625,-83.8125,4.9375,0
50.041,-9.8402,-0.2993,-0.7901,-0.0109,0.0306,-0.0008,53.7,31.05,7.35,0.7805,-9.0573,-4.1515,-0.024,0.0008,0.0093,-52.35,-26.55,-37.65,-9.75,-0.84,0.57,-0.0011,-0.0011,-0.0011,9.25,-3.75,0.0625,0.5625,-83.8125,4.9375,0
50.047,-9.8282,-0.3591,-0.7422,-0.0101,0.033,-0.0013,54.0,30.75,6.75,0.7805,-9.0573,-4.1515,-0.0282,0.0061,0.0112,-54.0,-26.4,-36.0,-9.75,-0.84,0.57,0.0,-0.0033,-0.0044,9.25,-4.1875,0.375,0.5625,-83.8125,4.9375,0
50.057,-9.7923,-0.4238,-0.759,-0.0131,0.045,0.0013,53.85,31.95,5.4,0.8021,-9.0166,-4.1659,-0.0245,-0.0029,0.0117,-54.0,-26.4,-36.0,-9.78,-0.84,0.56,0.0,-0.0055,0.0,9.25,-4.1875,0.375,0.5625,-83.8125,4.9375,0
50.067,-9.821,-0.3352,-0.8428,-0.0093,0.0362,0.0029,54.0,31.05,6.0,0.7877,-8.9902,-4.1827,-0.0264,-0.0053,0.0077,-53.1,-25.35,-38.1,-9.77,-0.84,0.56,-0.0011,0.0,0.0,9.25,-4.1875,0.375,0.5625,-83.8125,4.9375,0
50.077,-9.7612,-0.3879,-0.7925,-0.0128,0.025,0.0021,53.4,29.55,7.35,0.8523,-9.0261,-4.1563,-0.0245,-0.0011,0.0109,-53.1,-25.35,-38.1,-9.75,-0.83,0.59,0.0,0.0011,0.0011,9.25,-4.1875,0.375,0.5625,-83.8125,4.9375,0
50.087,-9.7779,-0.3974,-0.7925,-0.0085,0.0266,0.0013,53.4,29.55,7.35,0.7949,-9.098,-4.142,-0.0282,0.0005,0.0056,-52.95,-25.2,-36.45,-9.76,-0.81,0.56,0.0,-0.0011,0.0011,9.25,-4.1875,0.375,0.5625,-83.8125,4.9375,0
50.091,-9.7779,-0.3974,-0.7925,-0.012,0.0288,0.0021,53.4,29.55,7.35,0.7781,-9.0525,-4.1659,-0.0282,0.0005,0.0056,-52.95,-25.2,-36.45,-9.76,-0.81,0.56,-0.0011,0.0011,-0.0011,9.6875,-3.375,0.375,0.5625,-83.8125,4.9375,0
50.098,-9.8186,-0.4262,-0.7685,-0.012,0.0288,0.0021,53.55,31.2,7.2,0.7733,-9.074,-4.1539,-0.0216,-0.0029,0.0083,-53.85,-25.8,-37.65,-9.76,-0.83,0.6,-0.0011,0.0011,-0.0011,9.6875,-3.375,0.375,0.5625,-83.8125,4.9375,0
50.107,-9.8162,-0.3472,-0.7566,-0.0088,0.0274,-0.0016,54.3,30.9,6.9,0.7733,-9.0668,-4.2282,-0.0216,0.0003,0.0093,-55.05,-25.35,-37.35,-9.76,-0.79,0.56,-0.0011,0.0022,0.0011,9.6875,-3.375,0.375,0.5625,-83.8125,4.9375,0
50.117,-9.8114,-0.3472,-0.8045,-0.0117,0.037,-0.0056,54.3,30.45,6.45,0.7853,-8.9783,-4.1755,-0.0266,0.0013,0.0131,-54.15,-24.6,-36.6,-9.77,-0.82,0.55,0.0,-0.0033,0.0,9.6875,-3.375,0.375,0.5625,-83.8125,4.9375,0
50.127,-9.809,-0.3496,-0.7853,-0.0112,0.04,0.0027,54.6,30.9,6.15,0.7877,-9.0477,-4.1108,-0.0232,-0.0064,0.0109,-54.6,-24.6,-36.6,-9.78,-0.83,0.57,-0.0022,-0.0011,0.0033,9.6875,-3.375,0.375,0.5625,-83.8125,4.9375,0
50.136,-9.8378,-0.3496,-0.7781,-0.0117,0.0309,0.0013,52.65,31.5,7.05,0.7877,-9.0477,-4.1108,-0.0229,-0.0024,0.0139,-54.0,-25.95,-36.75,-9.76,-0.82,0.58,0.0,0.0022,0.0,9.6875,-3.375,0.375,0.5625,-83.8125,4.9375,0
50.141,-9.8378,-0.3496,-0.7781,-0.0115,0.0272,-0.0005,52.65,31.5,7.05,0.7614,-8.9998,-4.1444,-0.0229,-0.0024,0.0139,-54.0,-25.95,-36.75,-9.76,-0.82,0.58,0.0,0.0022,0.0,9.6875,-3.375,0.375,0.5625,-83.8125,4.9375,0
50.147,-9.7707,-0.3783,-0.7949,-0.0115,0.0272,-0.0005,52.65,31.5,7.05,0.7638,-9.0309,-4.1683,-0.0232,0.0032,0.0099,-54.0,-25.95,-36.75,-9.75,-0.81,0.58,-0.0033,0.0,-0.0011,8.5625,-3.375,0.375,0.5625,-83.8125,4.9375,0
50.157,-9.8306,-0.3543,-0.7614,-0.0051,0.0322,0.0008,52.95,31.5,6.3,0.7973,-9.0166,-4.1875,-0.0242,-0.0011,0.0123,-53.25,-25.2,-35.7,-9.76,-0.82,0.58,-0.0011,0.0011,0.0022,8.5625,-3.375,0.375,0.5625,-83.8125,4.9375,0
50.167,-9.8904,-0.34,-0.759,-0.0077,0.0344,-0.0045,53.55,31.65,6.45,0.7063,-9.0214,-4.1156,-0.0301,0.0024,0.0099,-53.25,-25.2,-35.7,-9.76,-0.83,0.57,-0.0011,0.0,0.0022,8.5625,-3.375,0.375,0.5625,-83.8125,4.9375,0
50.177,-9.8138,-0.3519,-0.7446,-0.0077,0.0344,-0.0045,54.45,31.05,6.0,0.7853,-9.0692,-4.1324,-0.0248,-0.0032,0.0131,-54.15,-25.35,-37.35,-9.78,-0.86,0.58,-0.0011,0.0011,0.0,8.5625,-3.375,0.375,0.5625,-83.8125,4.9375,0
50.183,-9.8186,-0.3615,-0.759,-0.0085,0.0296,0.0013,54.45,31.05,6.0,0.7853,-9.0692,-4.1324,-0.0328,-0.0003,0.0104,-54.15,-25.35,-37.35,-9.78,-0.86,0.58,0.0,0.0,0.0033,8.5625,-3.375,0.375,0.5625,-83.8125,4.9375,0
50.188,-9.8186,-0.3615,-0.759,-0.0072,0.0301,0.0008,54.0,31.5,6.75,0.8092,-9.0285,-4.1707,-0.0328,-0.0003,0.0104,-54.15,-25.35,-37.35,-9.74,-0.84,0.58,0.0,0.0,0.0033,8.5625,-3.375,0.375,0.5625,-83.8125,4.9375,0
50.193,-9.7348,-0.3831,-0.7805,-0.0072,0.0301,0.0008,53.4,30.3,6.0,0.8092,-9.0285,-4.1707,-0.024,-0.0027,0.0152,-54.15,-25.35,-37.35,-9.76,-0.84,0.59,-0.0011,0.0,0.0011,8.875,-3.375,-0.25,0.5625,-83.8125,4.9375,0
50.198,-9.7348,-0.3831,-0.7805,-0.0091,0.0312,0.0091,53.4,30.3,6.0,0.7709,-8.9878,-4.1539,-0.024,-0.0027,0.0152,-53.1,-25.05,-36.9,-9.76,-0.84,0.59,-0.0011,0.0,0.0011,8.875,-3.375,-0.25,0.5625,-83.8125,4.9375,0
50.208,-9.8186,-0.3783,-0.759,-0.0141,0.025,0.0032,53.4,30.3,6.0,0.735,-8.9974,-4.1587,-0.0234,0.0027,0.0072,-53.1,-25.8,-36.9,-9.77,-0.83,0.58,0.0,0.0011,0.0,8.875,-3.375,-0.25,0.5625,-83.8125,4.9375,0
50.217,-9.821,-0.3376,-0.7661,-0.0093,0.0245,0.0013,53.4,30.3,6.0,0.7877,-8.9926,-4.1492,-0.024,0.0008,0.0099,-53.85,-24.15,-36.15,-9.77,-0.82,0.59,0.0011,0.0,0.0,8.875,-3.375,-0.25,0.5625,-83.8125,4.9375,0
50.227,-9.8186,-0.3615,-0.7805,-0.0093,0.0314,0.0013,53.55,29.7,7.2,0.7805,-9.1123,-4.1899,-0.0234,-0.0029,0.0101,-52.5,-25.5,-37.2,-9.75,-0.81,0.59,-0.0011,0.0,0.0,8.875,-3.375,-0.25,0.5625,-83.8125,4.9375,0
50.237,-9.8282,-0.3567,-0.7829,-0.0096,0.0312,0.0005,54.45,31.5,6.3,0.8116,-9.0573,-4.1396,-0.0221,-0.0011,0.0131,-55.05,-25.35,-36.15,-9.77,-0.85,0.59,0.0,0.0011,0.0,8.875,-3.375,-0.25,0.5625,-83.8125,4.9375,0
50.242,-9.8067,-0.3639,-0.7757,-0.0096,0.0312,0.0005,54.45,31.5,6.3,0.7374,-8.9783,-4.1444,-0.0229,0.0016,0.0152,-55.05,-25.35,-36.15,-9.77,-0.85,0.59,-0.0011,0.0022,0.0022,9.25,-4.1875,-1.0625,0.5625,-83.8125,4.9375,0
50.248,-9.8067,-0.3639,-0.7757,-0.0077,0.0301,-0.0016,53.7,29.55,5.25,0.7374,-8.9783,-4.1444,-0.0261,0.0005,0.0141,-53.1,-25.05,-38.4,-9.76,-0.83,0.58,-0.0011,0.0022,0.0022,9.25,-4.1875,-1.0625,0.5625,-83.8125,4.9375,0
50.258,-9.7731,-0.4238,-0.7446,-0.0085,0.0293,-0.0016,53.55,30.45,6.9,0.7781,-9.0573,-4.118,-0.0261,0.0045,0.0128,-53.1,-25.05,-38.4,-9.76,-0.84,0.58,-0.0011,-0.0011,0.0,9.25,-4.1875,-1.0625,0.5625,-83.8125,4.9375,0
50.267,-9.821,-0.3256,-0.7542,-0.012,0.0264,0.0045,55.35,30.45,6.45,0.7877,-8.9854,-4.1635,-0.0269,0.0011,0.0075,-54.0,-25.95,-37.2,-9.77,-0.83,0.55,-0.0022,0.0011,0.0011,9.25,-4.1875,-1.0625,0.5625,-83.8125,4.9375,0
50.277,-9.7827,-0.4118,-0.723,-0.0131,0.0293,0.0043,55.35,30.45,6.45,0.7661,-8.9974,-4.197,-0.0266,-0.0003,0.0123,-54.0,-25.95,-37.2,-9.77,-0.82,0.59,-0.0022,0.0022,0.0022,9.25,-4.1875,-1.0625,0.5625,-83.8125,4.9375,0
50.287,-9.8186,-0.3591,-0.7638,-0.0107,0.0301,-0.0003,53.4,31.05,6.0,0.7638,-8.9974,-4.1755,-0.0301,0.0021,0.0125,-53.85,-26.55,-36.9,-9.75,-0.83,0.57,-0.0011,0.0022,0.0022,9.25,-4.1875,-1.0625,0.5625,-83.8125,4.9375,0
50.292,-9.7181,-0.3711,-0.7877,-0.0107,0.0301,-0.0003,54.0,30.0,7.05,0.7685,-8.9735,-4.142,-0.0301,0.0021,0.0125,-53.85,-26.55,-36.9,-9.75,-0.83,0.57,0.0011,0.0,0.0011,8.875,-2.6875,-0.25,0.5625,-83.8125,4.9375,0
50.298,-9.809,-0.34,-0.7733,-0.0099,0.0258,0.0061,54.0,30.0,7.05,0.7685,-8.9735,-4.142,-0.0264,0.0005,0.0093,-54.15,-24.6,-36.6,-9.75,-0.83,0.55,0.0011,0.0,0.0011,8.875,-2.6875,-0.25,0.5625,-83.8125,4.9375,0
50.308,-9.809,-0.34,-0.7733,-0.0091,0.0272,0.0053,53.85,31.65,6.15,0.8404,-8.9352,-4.1635,-0.028,0.0029,0.0101,-53.4,-26.55,-36.6,-9.77,-0.84,0.58,0.0,0.0022,0.0011,8.875,-2.6875,-0.25,0.5625,-83.8125,4.9375,0
50.318,-9.7923,-0.3567,-0.8092,-0.0077,0.0274,0.0021,52.65,31.05,6.75,0.7997,-9.0549,-4.1827,-0.0269,-0.0008,0.0112,-53.25,-25.5,-37.2,-9.77,-0.83,0.57,0.0,0.0,0.0,8.875,-2.6875,-0.25,0.5625,-83.8125,4.9375,0
50.327,-9.8019,-0.3639,-0.8452,-0.0096,0.0346,0.0,53.4,31.5,6.0,0.7949,-9.0046,-4.1587,-0.0261,0.0043,0.0107,-53.25,-25.2,-34.95,-9.77,-0.83,0.56,0.0011,0.0011,0.0,8.875,-2.6875,-0.25,0.5625,-83.8125,4.9375,0
50.337,-9.8019,-0.3639,-0.8452,-0.008,0.0301,-0.0005,53.4,31.5,6.0,0.814,-9.0118,-4.1061,-0.0245,0.0021,0.0099,-54.0,-24.75,-37.95,-9.76,-0.82,0.59,0.0011,0.0033,0.0,8.875,-2.6875,-0.25,0.5625,-83.8125,4.9375,0
50.341,-9.8067,-0.3376,-0.814,-0.0088,0.0264,0.0011,53.4,29.55,6.0,0.7087,-9.0405,-4.1468,-0.0245,0.0021,0.0099,-54.0,-24.75,-37.95,-9.76,-0.82,0.59,0.0011,0.0033,0.0,10.0625,-4.1875,0.875,0.5625,-83.8125,4.9375,0
50.348,-9.8043,-0.3376,-0.7901,-0.0088,0.0264,0.0011,53.4,29.55,6.0,0.735,-9.0357,-4.1994,-0.0264,0.0021,0.0109,-54.0,-24.75,-37.95,-9.75,-0.81,0.58,0.0,0.0011,0.0,10.0625,-4.1875,0.875,0.5625,-83.8125,4.9375,0
50.358,-9.7372,-0.4046,-0.7949,-0.0131,0.0312,-0.0016,53.85,29.4,7.95,0.8356,-8.9711,-4.1492,-0.0272,-0.0067,0.0141,-54.45,-25.2,-36.75,-9.76,-0.82,0.56,0.0011,0.0011,0.0011,10.0625,-4.1875,0.875,0.5625,-83.8125,4.9375,0
50.368,-9.7755,-0.3926,-0.8021,-0.0059,0.0261,0.0045,52.95,30.75,6.3,0.747,-9.0046,-4.0989,-0.0248,-0.0053,0.0115,-54.45,-25.2,-36.75,-9.76,-0.83,0.55,0.0,0.0022,0.0011,10.0625,-4.1875,0.875,0.5625,-83.8125,4.9375,0
50.377,-9.7612,-0.3591,-0.826,-0.0112,0.0309,0.0024,52.35,30.45,6.45,0.7685,-9.0166,-4.1875,-0.0234,-0.0037,0.0165,-53.4,-25.35,-36.9,-9.76,-0.81,0.59,-0.0022,-0.0011,0.0,10.0625,-4.1875,0.875,0.5625,-83.8125,4.9375,0
50.386,-9.821,-0.395,-0.7901,-0.0075,0.0309,0.0037,52.95,30.3,5.7,0.7829,-9.007,-4.0965,-0.0277,0.0021,0.0139,-53.4,-25.35,-36.9,-9.75,-0.83,0.58,0.0011,0.0,0.0022,10.0625,-4.1875,0.875,0.5625,-83.8125,4.9375,0
50.391,-9.821,-0.395,-0.7901,-0.0085,0.0317,-0.0029,52.95,30.3,5.7,0.7829,-9.007,-4.0965,-0.0234,-0.0011,0.0144,-53.4,-25.35,-36.9,-9.75,-0.83,0.58,0.0011,0.0,0.0022,10.0625,-4.1875,0.875,0.5625,-83.8125,4.9375,0
50.398,-9.7875,-0.3663,-0.7542,-0.0085,0.0317,-0.0029,52.95,30.3,5.7,0.7781,-9.0477,-4.1539,-0.0234,-0.0011,0.0144,-53.4,-25.8,-36.15,-9.76,-0.83,0.58,0.0,0.0,0.0,8.5625,-3.0625,0.0625,0.5625,-83.8125,4.9375,0
50.408,-9.809,-0.3543,-0.735,-0.0093,0.032,0.0024,52.95,30.3,5.7,0.7542,-9.0214,-4.1851,-0.0264,0.0029,0.0107,-52.95,-26.4,-35.25,-9.77,-0.85,0.6,-0.0011,-0.0011,0.0022,8.5625,-3.0625,0.0625,0.5625,-83.8125,4.9375,0
50.417,-9.8043,-0.3998,-0.7733,-0.0152,0.0288,0.0024,53.1,31.65,6.9,0.7614,-9.0333,-4.1899,-0.0261,-0.0008,0.0075,-52.95,-25.5,-36.0,-9.77,-0.81,0.56,-0.0011,-0.0011,0.0,8.5625,-3.0625,0.0625,0.5625,-83.8125,4.9375,0
50.427,-9.7923,-0.3663,-0.8092,-0.0083,0.0317,0.0003,54.0,31.8,7.35,0.7494,-9.0166,-4.1659,-0.0203,-0.004,0.0109,-54.75,-25.5,-37.95,-9.78,-0.82,0.6,-0.0022,0.0011,0.0,8.5625,-3.0625,0.0625,0.5625,-83.8125,4.9375,0
50.432,-9.7923,-0.3663,-0.8092,-0.0077,0.0312,0.0013,53.55,31.2,5.85,0.7494,-9.0166,-4.1659,-0.0226,0.0045,0.0093,-54.75,-25.5,-37.95,-9.78,-0.82,0.6,-0.0022,0.0011,0.0,8.5625,-3.0625,0.0625,0.5625,-83.8125,4.9375,0
50.439,-9.7923,-0.3735,-0.7422,-0.0051,0.028,0.0013,54.45,31.05,7.05,0.747,-9.0237,-4.2282,-0.0226,0.0045,0.0093,-53.1,-24.6,-36.15,-9.76,-0.81,0.56,0.0,-0.0011,0.0,8.5625,-3.0625,0.0625,0.5625,-83.8125,4.9375,0
50.443,-9.8043,-0.3855,-0.7542,-0.0051,0.028,0.0013,54.45,31.05,7.05,0.7733,-9.0309,-4.1492,-0.0226,-0.0051,0.0123,-53.1,-24.6,-36.15,-9.76,-0.81,0.56,0.0,0.0011,0.0011,9.6875,-3.375,0.0625,0.5625,-83.8125,4.9375,0
50.449,-9.8043,-0.3855,-0.7542,-0.0075,0.0282,0.0024,53.7,30.75,5.7,0.7733,-9.0309,-4.1492,-0.0256,0.0048,0.0107,-54.45,-25.95,-37.95,-9.77,-0.85,0.58,0.0,0.0011,0.0011,9.6875,-3.375,0.0625,0.5625,-83.8125,4.9375,0
50.458,-9.7731,-0.3591,-0.7901,-0.0096,0.0341,0.0059,53.7,30.75,5.7,0.7781,-9.0333,-4.2066,-0.0282,0.0005,0.0128,-54.45,-25.95,-37.95,-9.75,-0.82,0.56,0.0,0.0022,0.0011,9.6875,-3.375,0.0625,0.5625,-83.8125,4.9375,0
50.468,-9.809,-0.3304,-0.7733,-0.0088,0.0301,0.0027,53.7,30.75,5.7,0.7638,-9.0118,-4.1539,-0.0237,-0.0005,0.0085,-53.85,-26.55,-36.6,-9.77,-0.84,0.55,0.0,0.0022,0.0011,9.6875,-3.375,0.0625,0.5625,-83.8125,4.9375,0
50.477,-9.8497,-0.3376,-0.7302,-0.0107,0.0282,0.0005,53.55,30.9,7.65,0.8045,-9.0118,-4.1276,-0.0253,0.0077,0.0104,-53.85,-26.55,-36.6,-9.77,-0.83,0.57,0.0,-0.0033,0.0,9.6875,-3.375,0.0625,0.5625,-83.8125,4.9375,0
50.485,-9.754,-0.3926,-0.8092,-0.0107,0.0282,0.0005,52.35,30.45,6.45,0.8356,-9.0046,-4.1468,-0.0253,0.0077,0.0104,-53.85,-26.55,-36.6,-9.76,-0.83,0.57,-0.0011,0.0044,0.0011,9.6875,-3.375,0.0625,0.5625,-83.8125,4.9375,0
50.49,-9.754,-0.3926,-0.8092,-0.0096,0.033,-0.0021,52.2,30.75,6.3,0.8356,-9.0046,-4.1468,-0.0216,-0.0005,0.0112,-53.25,-26.4,-36.45,-9.76,-0.83,0.57,-0.0011,0.0044,0.0011,9.6875,-3.375,0.0625,0.5625,-83.8125,4.9375,0
50.495,-9.7683,-0.3567,-0.7805,-0.0096,0.033,-0.0021,52.2,30.75,6.3,0.7925,-9.019,-4.1899,-0.0216,-0.0005,0.0112,-53.25,-26.4,-36.45,-9.78,-0.85,0.6,-0.0011,0.0033,0.0011,9.25,-3.375,0.0625,0.5625,-83.8125,4.9375,0
50.499,-9.7683,-0.3567,-0.7805,-0.0112,0.0301,0.0043,52.05,30.9,6.9,0.7925,-9.019,-4.1899,-0.0277,-0.0003,0.0125,-54.15,-24.6,-37.35,-9.78,-0.85,0.6,-0.0011,0.0033,0.0011,9.25,-3.375,0.0625,0.5625,-83.8125,4.9375,0
50.508,-9.7803,-0.3855,-0.7398,-0.0096,0.0314,0.0029,52.65,32.25,6.0,0.8212,-9.0333,-4.1635,-0.025,0.0008,0.0181,-54.45,-25.2,-36.0,-9.78,-0.85,0.59,-0.0011,-0.0011,0.0,9.25,-3.375,0.0625,0.5625,-83.8125,4.9375,0
50.518,-9.8426,-0.3519,-0.747,-0.0072,0.0304,0.0021,52.65,32.25,6.0,0.7757,-9.0525,-4.1683,-0.0304,0.0035,0.0115,-54.15,-24.6,-35.55,-9.78,-0.83,0.59,0.0,0.0,0.0,9.25,-3.375,0.0625,0.5625,-83.8125,4.9375,0
50.528,-9.8043,-0.3639,-0.7805,-0.0085,0.0309,-0.0003,54.0,29.25,6.75,0.7829,-9.0621,-4.0989,-0.0234,0.0,0.0107,-54.6,-27.0,-36.15,-9.75,-0.84,0.57,0.0,0.0022,0.0,9.25,-3.375,0.0625,0.5625,-83.8125,4.9375,0
50.538,-9.8426,-0.3448,-0.7877,-0.0101,0.0312,-0.0029,53.7,31.8,6.75,0.7781,-9.074,-4.1444,-0.0234,-0.0032,0.012,-53.1,-26.1,-36.6,-9.78,-0.84,0.59,0.0,-0.0011,0.0022,9.25,-3.375,0.0625,0.5625,-83.8125,4.9375,0
50.543,-9.8282,-0.3472,-0.7159,-0.0101,0.0312,-0.0029,53.7,31.8,6.75,0.7422,-9.019,-4.1922,-0.0234,-0.0032,0.012,-53.1,-26.1,-36.6,-9.78,-0.84,0.59,-0.0022,-0.0022,0.0011,7.875,-3.75,-0.25,0.5625,-83.8125,4.9375,0
50.549,-9.8282,-0.3472,-0.7159,-0.0107,0.0341,0.0037,53.1,31.95,6.9,0.7422,-9.019,-4.1922,-0.0293,-0.0032,0.0131,-53.1,-26.1,-36.6,-9.76,-0.84,0.58,-0.0022,-0.0022,0.0011,7.875,-3.75,-0.25,0.5625,-83.8125,4.9375,0
50.558,-9.7803,-0.3879,-0.7398,-0.0088,0.0285,-0.0043,54.75,31.05,7.35,0.7829,-9.0429,-4.1061,-0.0248,0.0024,0.0115,-53.85,-25.35,-36.15,-9.76,-0.83,0.59,0.0,0.0033,-0.0011,7.875,-3.75,-0.25,0.5625,-83.8125,4.9375,0
50.568,-9.7324,-0.3615,-0.7733,-0.0104,0.0317,-0.0021,53.4,30.75,6.75,0.8021,-9.0405,-4.1468,-0.0237,-0.0016,0.016,-53.85,-25.35,-36.15,-9.76,-0.81,0.58,0.0,0.0011,0.0011,7.875,-3.75,-0.25,0.5625,-83.8125,4.9375,0
50.578,-9.7995,-0.3448,-0.8475,-0.0104,0.0256,0.0016,53.4,30.75,6.75,0.8045,-9.0046,-4.1827,-0.0312,-0.0019,0.012,-53.7,-24.45,-37.95,-9.78,-0.84,0.59,0.0,0.0011,0.0022,7.875,-3.75,-0.25,0.5625,-83.8125,4.9375,0
50.587,-9.8258,-0.3448,-0.7278,-0.0099,0.0266,0.0027,53.7,30.75,6.75,0.8045,-9.0046,-4.1827,-0.0269,0.0035,0.0104,-53.7,-24.45,-37.95,-9.77,-0.82,0.56,0.0,0.0022,0.0,7.875,-3.75,-0.25,0.5625,-83.8125,4.9375,0
50.592,-9.7229,-0.3448,-0.7685,-0.0099,0.0266,0.0027,53.7,30.75,6.75,0.7709,-8.9878,-4.1587,-0.0269,0.0035,0.0104,-53.1,-25.35,-36.6,-9.77,-0.82,0.56,-0.0022,0.0011,-0.0011,8.5625,-3.0625,-0.6875,0.5625,-83.8125,4.9375,0
50.599,-9.8474,-0.3184,-0.814,-0.0096,0.0282,-0.0021,52.35,30.15,6.9,0.7614,-9.0525,-4.1587,-0.0248,-0.0024,0.0141,-52.5,-25.95,-36.75,-9.76,-0.84,0.57,-0.0022,0.0011,-0.0011,8.5625,-3.0625,-0.6875,0.5625,-83.8125,4.9375,0
50.608,-9.8474,-0.3903,-0.7733,-0.0085,0.0296,0.0011,53.1,30.9,7.2,0.7949,-9.0381,-4.1444,-0.0242,-0.0005,0.0152,-53.85,-25.35,-36.15,-9.78,-0.84,0.56,0.0011,-0.0033,0.0,8.5625,-3.0625,-0.6875,0.5625,-83.8125,4.9375,0
50.618,-9.7779,-0.3328,-0.7446,-0.008,0.0272,0.0021,54.6,30.15,6.45,0.7446,-9.0285,-4.2138,-0.0277,0.0024,0.0099,-52.95,-25.5,-36.75,-9.76,-0.83,0.56,0.0,-0.0011,-0.0011,8.5625,-3.0625,-0.6875,0.5625,-83.8125,4.9375,0
50.628,-9.8019,-0.4262,-0.723,-0.0109,0.0312,-0.0016,53.1,31.95,6.45,0.7446,-9.0692,-4.1515,-0.024,0.0027,0.0107,-52.35,-26.55,-36.9,-9.77,-0.84,0.57,-0.0011,0.0,-0.0011,8.5625,-3.0625,-0.6875,0.5625,-83.8125,4.9375,0
50.637,-9.8019,-0.4262,-0.723,-0.0072,0.0328,0.0021,53.1,31.95,6.45,0.826,-9.007,-4.1635,-0.0189,-0.0021,0.0133,-52.35,-26.55,-36.9,-9.77,-0.84,0.58,-0.0011,0.0,0.0,8.5625,-3.0625,-0.6875,0.5625,-83.8125,4.9375,0
50.642,-9.8354,-0.3376,-0.8188,-0.008,0.0288,-0.0005,53.1,31.95,6.45,0.826,-9.007,-4.1635,-0.0264,-0.0013,0.0157,-55.2,-23.55,-37.2,-9.77,-0.84,0.58,-0.0011,0.0,0.0,8.5625,-3.0625,-0.6875,0.5625,-83.8125,4.9375,0
50.648,-9.7971,-0.2873,-0.7709,-0.008,0.0288,-0.0005,53.1,31.95,6.45,0.7566,-8.9998,-4.13,-0.0264,-0.0013,0.0157,-54.15,-25.05,-35.85,-9.76,-0.81,0.6,-0.0011,0.0044,0.0,9.25,-3.375,0.375,0.5625,-83.8125,4.9375,0
50.658,-9.8067,-0.3543,-0.7781,-0.0123,0.0301,-0.0011,54.0,31.05,6.75,0.8045,-9.0333,-4.1276,-0.0232,-0.0029,0.0107,-54.15,-25.05,-35.85,-9.77,-0.84,0.57,0.0011,0.0022,-0.0022,9.25,-3.375,0.375,0.5625,-83.8125,4.9375,0
50.667,-9.7947,-0.4142,-0.735,-0.0123,0.032,-0.0005,52.65,30.75,7.8,0.7542,-8.9854,-4.1324,-0.025,0.0005,0.0136,-54.15,-25.05,-35.85,-9.78,-0.84,0.57,0.0011,0.0,-0.0022,9.25,-3.375,0.375,0.5625,-83.8125,4.9375,0
50.673,-9.7947,-0.4142,-0.735,-0.0072,0.0269,0.0008,52.65,30.75,7.8,0.7542,-8.9854,-4.1324,-0.0258,0.0003,0.0109,-53.4,-25.35,-36.9,-9.78,-0.84,0.57,-0.0011,-0.0022,0.0011,9.25,-3.375,0.375,0.5625,-83.8125,4.9375,0
50.679,-9.7995,-0.3639,-0.747,-0.0072,0.0269,0.0008,53.1,31.2,5.1,0.7278,-9.0285,-4.1851,-0.0258,-0.0021,0.0048,-53.4,-25.35,-36.9,-9.75,-0.83,0.56,-0.0011,-0.0022,0.0011,9.25,-3.375,0.375,0.5625,-83.8125,4.9375,0
50.689,-9.7995,-0.3807,-0.7422,-0.0096,0.036,0.0019,52.35,30.45,7.2,0.8308,-9.0166,-4.13,-0.0234,-0.0013,0.0096,-54.0,-25.2,-38.25,-9.75,-0.82,0.56,0.0,0.0,0.0011,9.25,-3.375,0.375,0.5625,-83.8125,4.9375,0
50.694,-9.7995,-0.3807,-0.7422,-0.0085,0.0338,0.0035,52.95,31.05,8.1,0.7661,-9.0357,-4.1468,-0.0234,-0.0013,0.0096,-54.0,-25.2,-38.25,-9.75,-0.82,0.56,0.0,0.0,-0.0033,10.0625,-3.75,0.0625,0.5625,-83.8125,4.9375,0
50.699,-9.7923,-0.3424,-0.7805,-0.0075,0.0288,0.0021,52.95,31.05,8.1,0.7661,-9.0357,-4.1468,-0.025,-0.0037,0.0109,-53.1,-25.8,-37.35,-9.76,-0.84,0.59,0.0,0.0,-0.0033,10.0625,-3.75,0.0625,0.5625,-83.8125,4.9375,0
50.709,-9.8545,-0.3735,-0.747,-0.008,0.0293,0.0027,52.95,31.05,8.1,0.7614,-9.0381,-4.1156,-0.0282,0.0024,0.0107,-53.25,-25.2,-35.7,-9.77,-0.82,0.58,0.0,-0.0022,0.0011,10.0625,-3.75,0.0625,0.5625,-83.8125,4.9375,0
50.718,-9.809,-0.4118,-0.759,-0.0093,0.0314,-0.0035,52.35,31.65,7.65,0.7398,-9.0429,-4.1492,-0.0248,-0.0021,0.0096,-53.25,-25.2,-35.7,-9.76,-0.84,0.57,-0.0011,-0.0022,0.0,10.0625,-3.75,0.0625,0.5625,-83.8125,4.9375,0
50.728,-9.7899,-0.316,-0.7494,-0.0141,0.0306,-0.0024,53.4,31.8,7.35,0.8356,-9.0118,-4.1946,-0.0221,-0.0027,0.0091,-53.25,-25.8,-36.6,-9.77,-0.84,0.59,-0.0011,-0.0033,0.0,10.0625,-3.75,0.0625,0.5625,-83.8125,4.9375,0
50.737,-9.7923,-0.395,-0.7781,-0.0141,0.0306,-0.0024,53.1,31.2,6.9,0.7805,-8.9759,-4.1108,-0.0274,-0.0024,0.0091,-53.25,-26.7,-37.2,-9.77,-0.82,0.56,-0.0011,0.0022,0.0,10.0625,-3.75,0.0625,0.5625,-83.8125,4.9375,0
50.742,-9.7923,-0.395,-0.7781,-0.0029,0.0336,0.0056,53.1,31.2,6.9,0.7781,-9.0285,-4.1587,-0.0274,-0.0024,0.0091,-54.45,-25.5,-37.5,-9.77,-0.82,0.56,-0.0011,0.0022,0.0,10.0625,-3.75,0.0625,0.5625,-83.8125,4.9375,0
50.749,-9.8282,-0.3567,-0.814,-0.0107,0.0274,0.0037,54.3,31.2,6.9,0.7781,-9.0285,-4.1587,-0.0211,-0.0005,0.0091,-54.45,-25.5,-37.5,-9.76,-0.82,0.56,-0.0011,-0.0011,-0.0022,9.25,-3.375,0.875,0.5625,-83.8125,4.9375,0
50.759,-9.8138,-0.431,-0.7709,-0.0096,0.0298,0.0035,53.55,29.7,6.9,0.7685,-8.9974,-4.1779,-0.0298,-0.0013,0.0149,-54.45,-25.5,-37.5,-9.76,-0.83,0.61,-0.0011,-0.0033,0.0011,9.25,-3.375,0.875,0.5625,-83.8125,4.9375,0
50.768,-9.7827,-0.3711,-0.7781,-0.008,0.0309,0.0045,53.55,29.7,6.9,0.7853,-9.0453,-4.13,-0.0277,0.0013,0.0115,-53.4,-25.8,-35.85,-9.77,-0.82,0.58,-0.0011,-0.0033,0.0,9.25,-3.375,0.875,0.5625,-83.8125,4.9375,0
50.778,-9.7564,-0.3759,-0.7757,-0.0125,0.0306,0.0019,53.7,30.0,5.7,0.7614,-9.007,-4.1611,-0.0269,-0.0029,0.0069,-53.4,-25.8,-35.85,-9.77,-0.82,0.57,0.0,-0.0011,0.0,9.25,-3.375,0.875,0.5625,-83.8125,4.9375,0
50.788,-9.7803,-0.3519,-0.8021,-0.0069,0.0253,0.0061,53.55,31.95,7.2,0.8212,-9.0525,-4.1492,-0.028,0.0011,0.0093,-52.65,-25.35,-36.9,-9.77,-0.84,0.59,-0.0011,0.0,-0.0022,9.25,-3.375,0.875,0.5625,-83.8125,4.9375,0
50.793,-9.7947,-0.3567,-0.7877,-0.0069,0.0253,0.0061,55.35,30.9,6.15,0.7997,-9.0573,-4.142,-0.028,0.0011,0.0093,-53.1,-25.8,-36.9,-9.77,-0.84,0.59,-0.0011,0.0022,0.0,8.875,-3.375,-0.25,0.5625,-83.8125,4.9375,0
50.799,-9.7947,-0.3567,-0.7877,-0.0091,0.0322,-0.0016,55.35,30.9,6.15,0.7997,-8.995,-4.209,-0.0245,-0.0029,0.0077,-53.85,-26.1,-36.15,-9.75,-0.86,0.56,-0.0011,0.0022,0.0,8.875,-3.375,-0.25,0.5625,-83.8125,4.9375,0
50.809,-9.8665,-0.3256,-0.7494,-0.0112,0.0274,0.0011,53.1,31.2,5.4,0.7135,-9.0573,-4.1922,-0.0282,0.0005,0.0107,-53.85,-26.1,-36.15,-9.78,-0.84,0.6,0.0,0.0,-0.0011,8.875,-3.375,-0.25,0.5625,-83.8125,4.9375,0
50.819,-9.8067,-0.3711,-0.7638,-0.0117,0.032,-0.0024,53.4,31.8,6.3,0.7494,-9.0046,-4.1899,-0.0261,0.0024,0.0141,-53.4,-24.15,-35.85,-9.76,-0.85,0.57,0.0,0.0,0.0,8.875,-3.375,-0.25,0.5625,-83.8125,4.9375,0
50.828,-9.7995,-0.3472,-0.7709,-0.0091,0.0304,-0.0011,53.4,31.8,6.3,0.759,-9.0333,-4.1324,-0.0245,-0.0053,0.0075,-54.45,-26.7,-36.75,-9.77,-0.83,0.56,0.0,-0.0044,-0.0011,8.875,-3.375,-0.25,0.5625,-83.8125,4.9375,0
50.837,-9.7923,-0.3543,-0.8116,-0.0075,0.0277,0.0003,53.4,31.8,6.3,0.759,-9.0333,-4.1324,-0.0269,0.0005,0.0048,-52.95,-25.2,-39.0,-9.76,-0.83,0.59,0.0,-0.0065,0.0,8.875,-3.375,-0.25,0.5625,-83.8125,4.9375,0
50.842,-9.7995,-0.3304,-0.7829,-0.0075,0.0277,0.0003,52.95,30.3,6.75,0.7949,-9.0166,-4.1563,-0.0269,0.0005,0.0048,-54.0,-25.2,-36.75,-9.76,-0.83,0.59,0.0,-0.0065,0.0,8.875,-3.375,-0.25,0.5625,-83.8125,4.9375,0
50.849,-9.7995,-0.3304,-0.7829,-0.0077,0.0296,0.004,52.95,30.3,6.75,0.7733,-8.9902,-4.1252,-0.033,-0.0035,0.0163,-54.0,-25.2,-36.75,-9.75,-0.84,0.56,0.0,-0.0011,-0.0011,8.875,-3.0625,-0.6875,0.5625,-83.8125,4.9375,0
50.859,-9.7995,-0.3759,-0.7877,-0.0101,0.0322,0.0024,53.4,31.8,7.8,0.7709,-8.995,-4.1659,-0.0288,0.0011,0.0093,-53.85,-26.1,-36.15,-9.75,-0.8,0.57,-0.0011,0.0,0.0,8.875,-3.0625,-0.6875,0.5625,-83.8125,4.9375,0
50.868,-9.7899,-0.3759,-0.8404,-0.0099,0.0293,0.0005,53.85,30.9,6.15,0.7614,-9.0692,-4.1396,-0.0253,0.0003,0.0099,-53.85,-26.1,-36.15,-9.77,-0.83,0.56,0.0,0.0,-0.0022,8.875,-3.0625,-0.6875,0.5625,-83.8125,4.9375,0
50.878,-9.8043,-0.3783,-0.7302,-0.0064,0.0349,0.0,52.65,31.5,6.75,0.8116,-9.0357,-4.142,-0.0261,-0.0029,0.0109,-52.65,-25.35,-35.85,-9.77,-0.84,0.58,-0.0011,-0.0011,0.0,8.875,-3.0625,-0.6875,0.5625,-83.8125,4.9375,0
50.883,-9.7971,-0.3519,-0.7805,-0.008,0.0336,0.0019,52.8,29.4,6.15,0.8116,-9.0357,-4.142,-0.0237,-0.0045,0.0096,-52.65,-25.35,-35.85,-9.77,-0.84,0.58,-0.0011,-0.0011,-0.0022,8.875,-3.0625,-0.6875,0.5625,-83.8125,4.9375,0
50.89,-9.7971,-0.3448,-0.8092,-0.008,0.0336,0.0019,52.8,29.4,6.15,0.7207,-9.0309,-4.1396,-0.0237,-0.0045,0.0096,-52.65,-25.35,-35.85,-9.77,-0.82,0.59,-0.0011,-0.0011,-0.0022,8.875,-3.0625,-0.6875,0.5625,-83.8125,4.9375,0
50.894,-9.7971,-0.3448,-0.8092,-0.0088,0.0293,0.0005,52.8,29.4,6.15,0.7207,-9.0309,-4.1396,-0.0256,0.0011,0.0045,-53.85,-25.35,-35.85,-9.77,-0.82,0.59,-0.0011,-0.0022,0.0011,10.375,-4.5,0.0625,0.5625,-83.8125,4.9375,0
50.9,-9.8426,-0.3496,-0.7805,-0.0088,0.0293,0.0005,51.15,30.3,6.3,0.7925,-9.0118,-4.1755,-0.0256,0.0011,0.0045,-53.85,-25.35,-35.85,-9.77,-0.83,0.56,-0.0011,-0.0022,0.0011,10.375,-4.5,0.0625,0.5625,-83.8125,4.9375,0
50.909,-9.8545,-0.3519,-0.7661,-0.0099,0.0301,-0.0048,51.15,30.3,6.3,0.8116,-8.995,-4.1803,-0.0256,0.0032,0.0123,-54.45,-24.75,-36.45,-9.76,-0.86,0.56,0.0,-0.0011,0.0,10.375,-4.5,0.0625,0.5625,-83.8125,4.9375,0
50.919,-9.7923,-0.316,-0.7757,-0.0115,0.0269,0.0059,52.8,31.2,5.85,0.7805,-9.0046,-4.2138,-0.033,0.0045,0.0112,-54.75,-24.45,-37.5,-9.76,-0.82,0.56,-0.0011,-0.0011,0.0,10.375,-4.5,0.0625,0.5625,-83.8125,4.9375,0
50.929,-9.7755,-0.4142,-0.7925,-0.0075,0.0296,0.004,53.85,30.45,7.65,0.8643,-9.0333,-4.1444,-0.028,0.0,0.0141,-52.95,-25.2,-36.0,-9.76,-0.83,0.56,-0.0022,-0.0022,0.0,10.375,-4.5,0.0625,0.5625,-83.8125,4.9375,0
50.938,-9.8067,-0.2921,-0.7877,-0.0075,0.0306,0.0027,54.6,30.45,5.85,0.8308,-9.0405,-4.1444,-0.0285,-0.0032,0.0096,-53.85,-25.05,-37.35,-9.76,-0.83,0.59,0.0011,0.0,-0.0011,10.375,-4.5,0.0625,0.5625,-83.8125,4.9375,0
50.942,-9.8067,-0.2921,-0.7877,-0.0123,0.0365,-0.0008,54.0,31.05,7.35,0.8308,-9.0405,-4.1444,-0.0277,0.0048,0.012,-53.85,-25.35,-36.15,-9.76,-0.83,0.59,0.0011,0.0,-0.0011,9.25,-3.375,0.0625,0.5625,-83.8125,4.9375,0
50.949,-9.7827,-0.3711,-0.8021,-0.0123,0.0365,-0.0008,54.0,31.05,7.35,0.8212,-9.0166,-4.1779,-0.0266,-0.0035,0.0072,-53.85,-25.35,-36.15,-9.75,-0.83,0.57,0.0,-0.0011,0.0022,9.25,-3.375,0.0625,0.5625,-83.8125,4.9375,0
50.959,-9.8019,-0.3567,-0.7398,-0.0051,0.0296,-0.0056,52.95,31.05,6.75,0.7805,-9.0237,-4.1683,-0.0296,-0.0024,0.0133,-53.85,-25.35,-36.15,-9.78,-0.86,0.59,-0.0011,-0.0011,0.0,9.25,-3.375,0.0625,0.5625,-83.8125,4.9375,0
50.969,-9.7971,-0.3424,-0.7877,-0.0128,0.0274,0.0021,51.75,31.65,6.15,0.8068,-9.074,-4.2353,-0.0256,-0.0021,0.0077,-52.65,-24.6,-36.9,-9.76,-0.86,0.58,-0.0011,-0.0033,-0.0011,9.25,-3.375,0.0625,0.5625,-83.8125,4.9375,0
50.979,-9.8114,-0.3256,-0.7805,-0.0115,0.0256,0.004,53.55,30.9,6.9,0.7781,-9.0094,-4.1946,-0.0269,-0.0019,0.0176,-52.65,-24.6,-36.9,-9.76,-0.83,0.57,0.0,0.0011,0.0011,9.25,-3.375,0.0625,0.5625,-83.8125,4.9375,0
50.989,-9.8234,-0.3376,-0.7973,-0.0075,0.0272,0.0019,53.4,30.3,6.75,0.7901,-8.9184,-4.197,-0.028,0.0013,0.0131,-53.7,-25.2,-36.75,-9.75,-0.83,0.57,-0.0011,0.0,-0.0011,9.25,-3.375,0.0625,0.5625,-83.8125,4.9375,0
50.994,-9.8234,-0.3376,-0.7973,-0.0083,0.0298,-0.0005,53.4,30.3,6.75,0.8332,-9.0214,-4.1659,-0.028,0.0013,0.0131,-54.6,-26.1,-37.35,-9.75,-0.83,0.57,0.0011,0.0011,-0.0011,8.875,-3.75,0.875,0.5625,-83.8125,4.9375,0
51.0,-9.7827,-0.3232,-0.7877,-0.0085,0.0285,0.0027,52.65,31.8,6.3,0.8332,-9.0214,-4.1659,-0.0272,-0.0043,0.0107,-54.6,-26.1,-37.35,-9.75,-0.85,0.59,0.0011,0.0011,-0.0011,8.875,-3.75,0.875,0.5625,-83.8125,4.9375,0
51.009,-9.7899,-0.3567,-0.7661,-0.0043,0.0328,0.0021,52.65,31.8,6.3,0.7566,-9.0142,-4.1515,-0.0253,-0.0003,0.0112,-54.15,-25.35,-36.9,-9.76,-0.83,0.59,-0.0011,0.0011,-0.0011,8.875,-3.75,0.875,0.5625,-83.8125,4.9375,0
51.019,-9.7899,-0.3615,-0.7733,-0.0072,0.0261,-0.0003,52.65,31.8,6.3,0.8116,-9.0237,-4.1444,-0.0229,0.0011,0.0173,-53.4,-26.1,-36.9,-9.76,-0.83,0.57,0.0,0.0022,0.0,8.875,-3.75,0.875,0.5625,-83.8125,4.9375,0
51.029,-9.8593,-0.3448,-0.8667,-0.0061,0.0314,0.0008,54.45,30.3,6.3,0.8092,-9.0333,-4.1276,-0.029,-0.0016,0.0107,-54.0,-24.0,-36.75,-9.76,-0.85,0.57,-0.0011,-0.0011,0.0,8.875,-3.75,0.875,0.5625,-83.8125,4.9375,0
51.038,-9.8138,-0.34,-0.7733,-0.0043,0.032,0.0048,53.4,31.8,7.8,0.8188,-9.0214,-4.1252,-0.0253,-0.0053,0.0072,-53.1,-25.35,-36.9,-9.76,-0.83,0.56,-0.0022,-0.0011,-0.0011,8.875,-3.75,0.875,0.5625,-83.8125,4.9375,0
51.043,-9.8641,-0.3519,-0.7614,-0.0043,0.032,0.0048,53.4,31.8,7.8,0.8164,-9.0022,-4.1492,-0.0253,-0.0053,0.0072,-51.9,-26.55,-35.55,-9.76,-0.83,0.56,-0.0011,0.0,-0.0011,9.25,-3.375,1.1875,0.5625,-83.8125,4.9375,0
51.05,-9.8641,-0.3519,-0.7614,-0.008,0.0288,-0.0005,54.45,31.8,6.75,0.7135,-9.0357,-4.1659,-0.0304,-0.0016,0.0128,-51.9,-26.55,-35.55,-9.76,-0.82,0.6,-0.0011,0.0,-0.0011,9.25,-3.375,1.1875,0.5625,-83.8125,4.9375,0
51.059,-9.7564,-0.3232,-0.7685,-0.0128,0.0328,0.0045,53.4,31.05,6.3,0.7685,-9.0214,-4.1372,-0.0266,0.0011,0.0115,-54.15,-24.15,-37.65,-9.77,-0.82,0.6,0.0,0.0,0.0,9.25,-3.375,1.1875,0.5625,-83.8125,4.9375,0
51.069,-9.7755,-0.3496,-0.7757,-0.0125,0.0269,0.0029,54.45,30.0,7.05,0.7542,-9.0285,-4.1468,-0.024,-0.0011,0.0099,-54.15,-24.15,-37.65,-9.75,-0.83,0.56,-0.0011,0.0033,0.0,9.25,-3.375,1.1875,0.5625,-83.8125,4.9375,0
51.079,-9.7827,-0.3041,-0.838,-0.012,0.0277,0.0048,54.45,30.0,7.05,0.7326,-9.0237,-4.2138,-0.0221,0.0003,0.0123,-52.5,-26.4,-37.5,-9.77,-0.82,0.56,0.0011,0.0,0.0,9.25,-3.375,1.1875,0.5625,-83.8125,4.9375,0
51.088,-9.8569,-0.3089,-0.814,-0.0096,0.0272,0.0021,52.35,29.7,6.45,0.7853,-9.0477,-4.1946,-0.025,-0.0035,0.0107,-52.5,-26.4,-37.5,-9.79,-0.82,0.57,0.0,-0.0033,-0.0011,9.25,-3.375,1.1875,0.5625,-83.8125,4.9375,0
51.093,-9.8306,-0.3304,-0.7638,-0.0096,0.0272,0.0021,52.35,29.7,6.45,0.7853,-9.0477,-4.1946,-0.0301,-0.0059,0.0144,-53.25,-25.5,-36.45,-9.79,-0.82,0.57,0.0,-0.0033,-0.0011,8.5625,-3.0625,0.0625,0.5625,-83.8125,4.9375,0
51.1,-9.8306,-0.3304,-0.7638,-0.0147,0.029,0.0035,53.7,29.55,6.3,0.7877,-9.0788,-4.1587,-0.0301,-0.0059,0.0144,-53.25,-25.5,-36.45,-9.76,-0.83,0.6,-0.0011,-0.0011,-0.0011,8.5625,-3.0625,0.0625,0.5625,-83.8125,4.9375,0
51.109,-9.7779,-0.3615,-0.7374,-0.0109,0.0282,0.0005,52.95,30.3,7.8,0.8404,-9.0022,-4.1731,-0.0306,0.0037,0.012,-54.0,-26.7,-36.75,-9.77,-0.85,0.59,0.0,0.0,-0.0011,8.5625,-3.0625,0.0625,0.5625,-83.8125,4.9375,0
51.119,-9.7636,-0.3208,-0.7853,-0.0141,0.0272,0.0016,54.9,30.45,7.65,0.7805,-9.019,-4.13,-0.0277,-0.0011,0.0104,-53.4,-25.8,-37.35,-9.75,-0.84,0.56,0.0022,-0.0011,-0.0022,8.5625,-3.0625,0.0625,0.5625,-83.8125,4.9375,0
51.129,-9.8378,-0.3041,-0.8164,-0.0077,0.0309,-0.0013,53.7,30.3,4.2,0.7757,-9.0525,-4.1348,-0.0234,0.0029,0.0141,-53.7,-25.5,-36.75,-9.77,-0.85,0.56,0.0,0.0022,0.0,8.5625,-3.0625,0.0625,0.5625,-83.8125,4.9375,0
51.139,-9.73,-0.3807,-0.7685,-0.0053,0.0312,0.0045,53.7,30.3,4.2,0.7638,-9.019,-4.1372,-0.0221,0.0,0.0136,-52.2,-24.75,-36.75,-9.75,-0.83,0.56,-0.0011,0.0022,-0.0022,8.5625,-3.0625,0.0625,0.5625,-83.8125,4.9375,0
51.144,-9.7899,-0.3759,-0.7685,-0.0117,0.0322,0.0011,53.7,30.3,4.2,0.7638,-9.019,-4.1372,-0.0245,0.0008,0.0088,-54.0,-26.7,-37.5,-9.75,-0.83,0.56,-0.0011,0.0011,0.0,8.875,-3.375,-0.6875,0.5625,-83.8125,4.9375,0
51.15,-9.7707,-0.4046,-0.7542,-0.0117,0.0322,0.0011,54.0,31.5,7.05,0.7661,-9.0118,-4.1132,-0.0184,-0.0027,0.0128,-54.0,-26.7,-37.5,-9.76,-0.83,0.57,-0.0011,0.0011,0.0,8.875,-3.375,-0.6875,0.5625,-83.8125,4.9375,0
51.16,-9.7995,-0.3759,-0.7566,-0.0083,0.0298,-0.0011,53.1,31.65,6.15,0.7733,-9.0309,-4.1156,-0.0261,-0.0011,0.0093,-54.0,-26.7,-37.5,-9.79,-0.82,0.56,0.0,0.0022,0.0,8.875,-3.375,-0.6875,0.5625,-83.8125,4.9375,0
51.17,-9.8067,-0.316,-0.8332,-0.012,0.032,0.0013,52.8,31.65,6.9,0.7661,-9.0525,-4.1539,-0.0317,-0.0024,0.012,-54.0,-25.95,-37.2,-9.74,-0.81,0.55,0.0,0.0,0.0,8.875,-3.375,-0.6875,0.5625,-83.8125,4.9375,0
51.179,-9.7947,-0.3472,-0.7805,-0.0067,0.0338,-0.0005,53.7,31.05,7.8,0.7757,-9.0405,-4.1659,-0.0253,-0.0005,0.0072,-54.0,-25.95,-37.2,-9.75,-0.83,0.57,0.0,-0.0011,-0.0022,8.875,-3.375,-0.6875,0.5625,-83.8125,4.9375,0
51.19,-9.7851,-0.3783,-0.7997,-0.0101,0.0349,0.0011,53.4,31.8,7.35,0.8188,-9.0381,-4.197,-0.0266,-0.0003,0.0088,-53.7,-25.95,-36.75,-9.75,-0.82,0.56,0.0,0.0,0.0011,8.875,-3.375,-0.6875,0.5625,-83.8125,4.9375,0
51.195,-9.7851,-0.3783,-0.7997,-0.0069,0.0298,0.0027,53.4,31.8,7.35,0.7949,-9.0477,-4.1994,-0.0266,-0.0003,0.0088,-53.85,-25.35,-35.85,-9.75,-0.82,0.56,0.0,0.0022,-0.0011,9.6875,-4.1875,-0.25,0.5625,-83.8125,4.9375,0
51.2,-9.7851,-0.2993,-0.747,-0.0069,0.0298,0.0027,53.4,31.8,7.35,0.7949,-9.0477,-4.1994,-0.0266,0.0027,0.0099,-53.85,-25.35,-35.85,-9.78,-0.83,0.58,0.0,0.0022,-0.0011,9.6875,-4.1875,-0.25,0.5625,-83.8125,4.9375,0
51.21,-9.7731,-0.3855,-0.747,-0.0091,0.032,0.0008,53.4,31.8,7.35,0.7709,-9.0597,-4.1563,-0.028,0.0003,0.0107,-52.95,-27.45,-36.75,-9.78,-0.84,0.59,0.0,-0.0011,0.0,9.6875,-4.1875,-0.25,0.5625,-83.8125,4.9375,0
51.219,-9.7995,-0.328,-0.8092,-0.0083,0.0338,-0.0056,53.85,30.9,7.65,0.8236,-9.0142,-4.1635,-0.0256,-0.0011,0.0125,-53.7,-25.5,-36.45,-9.78,-0.84,0.57,0.0011,-0.0044,0.0,9.6875,-4.1875,-0.25,0.5625,-83.8125,4.9375,0
51.229,-9.8162,-0.3232,-0.8021,-0.0117,0.0296,-0.0024,53.55,31.2,6.45,0.826,-9.0405,-4.1994,-0.0237,0.0005,0.012,-53.1,-25.35,-37.65,-9.78,-0.84,0.58,0.0011,-0.0011,0.0,9.6875,-4.1875,-0.25,0.5625,-83.8125,4.9375,0
51.238,-9.7923,-0.3208,-0.7709,-0.0109,0.0253,0.0024,53.1,29.7,7.2,0.7805,-9.0836,-4.1659,-0.0245,0.0019,0.0104,-53.1,-24.6,-38.1,-9.77,-0.83,0.6,0.0,-0.0022,-0.0011,9.6875,-4.1875,-0.25,0.5625,-83.8125,4.9375,0
51.243,-9.7923,-0.3208,-0.7709,-0.0075,0.025,-0.0027,52.8,30.9,7.2,0.7326,-8.995,-4.1468,-0.0245,0.0019,0.0104,-55.05,-25.35,-36.9,-9.77,-0.83,0.6,0.0,-0.0022,-0.0011,8.875,-4.1875,2.0,0.5625,-83.8125,4.9375,0
51.25,-9.7875,-0.328,-0.7781,-0.0075,0.0309,0.0011,52.8,30.9,7.2,0.7326,-8.995,-4.1468,-0.0237,0.0005,0.0104,-55.05,-25.35,-36.9,-9.76,-0.83,0.59,0.0011,-0.0033,0.0,8.875,-4.1875,2.0,0.5625,-83.8125,4.9375,0
51.26,-9.7659,-0.3496,-0.814,-0.0075,0.0309,0.0011,54.6,31.65,6.9,0.7781,-9.0573,-4.1563,-0.0213,-0.0056,0.0096,-52.95,-25.95,-36.75,-9.76,-0.85,0.57,0.0011,0.0011,-0.0011,8.875,-4.1875,2.0,0.5625,-83.8125,4.9375,0
51.27,-9.8354,-0.3759,-0.7518,-0.0056,0.0317,0.0029,54.6,31.65,6.9,0.7781,-8.9711,-4.2186,-0.0266,0.0024,0.0091,-52.95,-25.95,-36.75,-9.76,-0.83,0.56,0.0011,0.0,-0.0011,8.875,-4.1875,2.0,0.5625,-83.8125,4.9375,0
51.279,-9.8402,-0.3496,-0.7757,-0.0077,0.0322,0.0011,54.3,30.45,6.45,0.8404,-9.0285,-4.1611,-0.0261,0.0,0.0128,-55.05,-24.15,-36.6,-9.76,-0.82,0.56,-0.0011,-0.0011,0.0011,8.875,-4.1875,2.0,0.5625,-83.8125,4.9375,0
51.288,-9.821,-0.3615,-0.7638,-0.0077,0.0322,0.0011,54.6,29.4,6.9,0.8404,-9.0285,-4.1611,-0.0269,-0.0064,0.0197,-55.05,-24.15,-36.6,-9.76,-0.84,0.57,0.0,0.0011,0.0,8.875,-4.1875,2.0,0.5625,-83.8125,4.9375,0
51.293,-9.821,-0.3615,-0.7638,-0.012,0.028,-0.0008,53.85,30.9,7.65,0.7925,-9.0453,-4.197,-0.0269,-0.0064,0.0197,-55.05,-24.15,-36.6,-9.76,-0.84,0.57,0.0,0.0011,0.0,9.25,-3.375,-1.0625,0.5625,-83.8125,4.9375,0
51.3,-9.8402,-0.3567,-0.7685,-0.0115,0.029,0.0032,53.85,30.9,7.65,0.8045,-9.0668,-4.2234,-0.0197,0.0019,0.0117,-53.4,-25.35,-37.35,-9.76,-0.83,0.57,-0.0011,0.0,0.0022,9.25,-3.375,-1.0625,0.5625,-83.8125,4.9375,0
51.31,-9.8306,-0.3089,-0.7781,-0.0032,0.0288,-0.0029,53.55,31.65,6.9,0.7709,-8.9998,-4.1683,-0.0229,0.0005,0.0088,-53.85,-25.8,-37.35,-9.75,-0.83,0.58,-0.0011,0.0022,-0.0033,9.25,-3.375,-1.0625,0.5625,-83.8125,4.9375,0
51.32,-9.8067,-0.3879,-0.7757,-0.0067,0.0282,-0.0043,52.65,30.3,7.35,0.7446,-9.0477,-4.1707,-0.0237,0.0037,0.0155,-54.15,-25.35,-38.4,-9.75,-0.84,0.56,0.0011,0.0011,0.0,9.25,-3.375,-1.0625,0.5625,-83.8125,4.9375,0
51.329,-9.8114,-0.328,-0.7278,-0.0091,0.0317,0.0024,52.65,30.3,7.35,0.8452,-9.0261,-4.1468,-0.0274,0.0008,0.0099,-53.25,-25.2,-36.45,-9.77,-0.85,0.59,-0.0033,0.0011,0.0011,9.25,-3.375,-1.0625,0.5625,-83.8125,4.9375,0
51.339,-9.7875,-0.3879,-0.7542,-0.0099,0.0285,0.0019,53.7,31.05,5.7,0.7925,-9.0405,-4.2353,-0.0274,-0.0008,0.0107,-53.25,-25.5,-36.75,-9.78,-0.84,0.57,-0.0011,0.0022,-0.0022,9.25,-3.375,-1.0625,0.5625,-83.8125,4.9375,0
51.343,-9.8234,-0.395,-0.7709,-0.0099,0.0285,0.0019,54.45,29.55,6.75,0.7925,-9.0405,-4.2353,-0.0336,0.0027,0.0125,-53.25,-25.5,-36.75,-9.78,-0.84,0.57,-0.0011,0.0022,-0.0022,9.25,-3.375,-1.0625,0.5625,-83.8125,4.9375,0
51.35,-9.8234,-0.395,-0.7709,-0.0109,0.0285,0.0013,54.45,29.55,6.75,0.735,-9.0285,-4.0989,-0.0336,0.0027,0.0125,-52.65,-26.55,-36.6,-9.77,-0.85,0.62,0.0011,0.0,0.0011,9.25,-3.375,0.875,0.5625,-83.8125,4.9375,0
51.36,-9.8258,-0.3304,-0.826,-0.0152,0.0269,0.0069,52.8,30.9,6.9,0.7566,-9.0214,-4.1899,-0.0237,0.0016,0.0107,-52.65,-26.55,-36.6,-9.74,-0.82,0.59,0.0011,0.0,0.0011,9.25,-3.375,0.875,0.5625,-83.8125,4.9375,0
51.37,-9.821,-0.3783,-0.7374,-0.0088,0.0328,0.0,54.75,30.0,6.75,0.7326,-9.0788,-4.1611,-0.0256,-0.0043,0.0171,-54.45,-25.5,-37.2,-9.77,-0.84,0.57,0.0022,0.0011,-0.0011,9.25,-3.375,0.875,0.5625,-83.8125,4.9375,0
51.379,-9.8545,-0.3639,-0.7685,-0.0077,0.0325,0.0,53.1,30.45,6.9,0.7422,-8.9711,-4.142,-0.0285,0.0029,0.0123,-54.45,-25.5,-37.2,-9.75,-0.83,0.57,0.0,-0.0011,0.0011,9.25,-3.375,0.875,0.5625,-83.8125,4.9375,0
51.384,-9.7995,-0.3903,-0.7326,-0.0077,0.0325,0.0,53.1,30.45,6.9,0.7422,-8.9711,-4.142,-0.0242,-0.0008,0.0133,-54.45,-25.5,-37.2,-9.75,-0.83,0.57,0.0,-0.0011,0.0011,9.25,-3.375,0.875,0.5625,-83.8125,4.9375,0
51.391,-9.7995,-0.3903,-0.7326,-0.0133,0.0304,-0.0035,53.1,30.45,6.9,0.7853,-9.0525,-4.1515,-0.0211,0.0027,0.0149,-54.0,-25.2,-36.0,-9.76,-0.84,0.58,0.0,-0.0022,-0.0011,9.25,-3.375,0.875,0.5625,-83.8125,4.9375,0
51.396,-9.833,-0.3496,-0.7829,-0.0109,0.025,0.0029,53.1,30.45,6.9,0.7638,-9.007,-4.1922,-0.0211,0.0027,0.0149,-54.15,-26.1,-35.85,-9.76,-0.84,0.58,0.0011,-0.0022,-0.0011,8.875,-3.375,0.0625,0.5625,-83.8125,4.9375,0
51.401,-9.8737,-0.3974,-0.8045,-0.0109,0.025,0.0029,52.95,30.0,7.35,0.7638,-9.007,-4.1922,-0.0288,-0.0035,0.0099,-54.15,-26.1,-35.85,-9.78,-0.82,0.57,0.0011,-0.0022,-0.0011,8.875,-3.375,0.0625,0.5625,-83.8125,4.9375,0
51.41,-9.8737,-0.3974,-0.8045,-0.0053,0.0245,0.004,53.85,30.45,6.15,0.7997,-9.098,-4.0773,-0.0288,0.0019,0.0096,-54.0,-25.5,-36.0,-9.77,-0.82,0.59,0.0,0.0011,-0.0011,8.875,-3.375,0.0625,0.5625,-83.8125,4.9375,0
51.42,-9.845,-0.3472,-0.7638,-0.0059,0.0277,0.0,52.05,29.4,7.2,0.8164,-9.007,-4.2234,-0.0226,0.0008,0.0123,-54.45,-25.95,-36.75,-9.76,-0.81,0.58,0.0,-0.0011,0.0011,8.875,-3.375,0.0625,0.5625,-83.8125,4.9375,0
51.43,-9.7492,-0.3639,-0.7877,-0.0149,0.0312,-0.0005,54.9,31.65,7.65,0.7997,-9.019,-4.0989,-0.0272,0.0021,0.016,-54.15,-25.05,-35.55,-9.75,-0.82,0.56,0.0011,-0.0033,0.0,8.875,-3.375,0.0625,0.5625,-83.8125,4.9375,0
51.439,-9.7492,-0.3639,-0.7877,-0.0099,0.028,0.0051,53.4,30.3,7.05,0.7638,-9.0501,-4.2018,-0.0258,-0.0011,0.0165,-54.15,-24.6,-37.35,-9.77,-0.84,0.59,0.0011,0.0,-0.0022,8.875,-3.375,0.0625,0.5625,-83.8125,4.9375,0
51.444,-9.8114,-0.3855,-0.7733,-0.0109,0.0333,0.0035,53.4,30.3,7.05,0.8212,-9.0237,-4.2018,-0.0258,-0.0011,0.0165,-54.15,-24.6,-37.35,-9.77,-0.84,0.59,0.0011,0.0,-0.0022,8.875,-3.75,-1.0625,0.5625,-83.8125,4.9375,0
51.451,-9.8067,-0.3065,-0.7877,-0.0109,0.0333,0.0035,53.4,30.3,7.05,0.8212,-9.0237,-4.2018,-0.0256,0.0008,0.0131,-54.15,-24.6,-37.35,-9.78,-0.83,0.59,0.0022,0.0011,-0.0022,8.875,-3.75,-1.0625,0.5625,-83.8125,4.9375,0
51.46,-9.7731,-0.3496,-0.7925,-0.0112,0.0317,-0.0024,53.55,30.9,5.4,0.7518,-8.9615,-4.142,-0.0221,-0.0016,0.0128,-53.4,-25.35,-36.9,-9.74,-0.82,0.59,0.0011,-0.0022,-0.0011,8.875,-3.75,-1.0625,0.5625,-83.8125,4.9375,0
51.47,-9.8426,-0.3232,-0.7614,-0.0051,0.0322,-0.0011,52.8,30.9,6.9,0.7542,-8.9854,-4.1827,-0.0264,0.0021,0.0125,-53.4,-25.35,-36.9,-9.79,-0.84,0.57,0.0011,0.0,-0.0011,8.875,-3.75,-1.0625,0.5625,-83.8125,4.9375,0
51.48,-9.7779,-0.3639,-0.7614,-0.0096,0.0253,0.0059,53.85,31.2,6.45,0.7781,-9.0046,-4.1515,-0.0277,0.0024,0.0171,-54.6,-24.6,-36.9,-9.76,-0.83,0.57,-0.0011,-0.0022,-0.0011,8.875,-3.75,-1.0625,0.5625,-83.8125,4.9375,0
51.489,-9.7851,-0.3855,-0.7805,-0.0101,0.0285,0.0043,52.05,31.65,8.25,0.7566,-9.019,-4.118,-0.0208,-0.0008,0.0099,-54.6,-24.6,-36.9,-9.76,-0.82,0.58,0.0022,0.0011,0.0011,8.875,-3.75,-1.0625,0.5625,-83.8125,4.9375,0
51.494,-9.7851,-0.3855,-0.7805,-0.012,0.0301,-0.0067,52.05,31.65,8.25,0.8045,-9.0214,-4.1132,-0.0208,-0.0008,0.0099,-54.6,-24.6,-36.9,-9.76,-0.82,0.58,0.0022,0.0011,0.0011,9.25,-3.75,0.875,0.5625,-83.8125,4.9375,0
51.501,-9.8067,-0.3855,-0.7877,-0.012,0.0301,-0.0067,53.1,31.65,5.4,0.7901,-9.0405,-4.209,-0.0232,0.0024,0.0128,-53.7,-25.2,-36.75,-9.76,-0.82,0.59,0.0,-0.0011,-0.0022,9.25,-3.75,0.875,0.5625,-83.8125,4.9375,0
51.51,-9.7947,-0.3807,-0.7781,-0.0123,0.0272,0.0051,53.1,31.65,5.4,0.7661,-8.9878,-4.1851,-0.0272,-0.0048,0.0128,-54.0,-25.95,-36.45,-9.77,-0.83,0.56,0.0,0.0,-0.0011,9.25,-3.75,0.875,0.5625,-83.8125,4.9375,0
51.52,-9.7899,-0.3639,-0.7781,-0.0035,0.0365,0.0005,52.35,29.4,7.65,0.7805,-9.0573,-4.1707,-0.0229,0.004,0.0136,-53.85,-25.05,-36.6,-9.77,-0.83,0.57,0.0011,0.0033,-0.0022,9.25,-3.75,0.875,0.5625,-83.8125,4.9375,0
51.53,-9.8067,-0.3543,-0.8021,-0.0091,0.0312,0.0011,52.95,31.05,6.3,0.8236,-9.0214,-4.1899,-0.025,0.0045,0.0125,-53.25,-25.5,-37.2,-9.77,-0.81,0.57,0.0022,0.0,0.0011,9.25,-3.75,0.875,0.5625,-83.8125,4.9375,0
51.539,-9.8186,-0.3472,-0.7733,-0.0139,0.0272,0.0021,51.9,30.3,6.3,0.7949,-9.0477,-4.1683,-0.0282,-0.0024,0.0101,-54.45,-24.45,-36.0,-9.77,-0.84,0.6,0.0,-0.0011,0.0,9.25,-3.75,0.875,0.5625,-83.8125,4.9375,0
51.544,-9.8186,-0.3472,-0.7733,-0.0056,0.0314,-0.0029,51.9,30.3,6.3,0.7949,-9.0477,-4.1683,-0.0293,-0.0019,0.012,-54.45,-24.45,-36.0,-9.77,-0.84,0.6,0.0,-0.0011,0.0,9.25,-3.75,0.875,0.5625,-83.8125,4.9375,0
51.55,-9.8521,-0.3831,-0.7829,-0.0083,0.0277,0.0013,53.4,30.3,6.0,0.7877,-9.0381,-4.142,-0.0293,-0.0019,0.012,-54.45,-24.45,-37.2,-9.75,-0.83,0.6,0.0011,0.0,0.0011,8.875,-3.75,0.375,0.5625,-83.8125,4.9375,0
51.56,-9.8354,-0.3232,-0.747,-0.0109,0.0288,0.0088,53.4,31.5,7.8,0.7566,-9.0477,-4.1132,-0.0234,-0.0013,0.0101,-54.45,-24.45,-37.2,-9.75,-0.85,0.55,0.0011,-0.0011,0.0011,8.875,-3.75,0.375,0.5625,-83.8125,4.9375,0
51.57,-9.7372,-0.3112,-0.8284,-0.0061,0.0296,0.0032,53.4,31.5,7.8,0.7829,-9.0501,-4.1587,-0.0269,0.0061,0.0096,-53.85,-24.6,-36.15,-9.76,-0.85,0.56,0.0,-0.0011,0.0,8.875,-3.75,0.375,0.5625,-83.8125,4.9375,0
51.58,-9.8545,-0.3711,-0.7829,-0.0101,0.0288,-0.0019,53.4,31.5,7.8,0.8116,-9.0405,-4.0845,-0.0285,0.0011,0.0096,-53.85,-24.6,-36.15,-9.77,-0.83,0.59,0.0011,0.0011,-0.0011,8.875,-3.75,0.375,0.5625,-83.8125,4.9375,0
51.585,-9.8785,-0.3519,-0.7973,-0.0101,0.0288,-0.0019,53.4,31.5,7.8,0.8116,-9.0405,-4.0845,-0.0264,0.0053,0.0139,-53.85,-24.6,-36.15,-9.77,-0.83,0.59,0.0,-0.0011,-0.0011,8.875,-3.75,0.375,0.5625,-83.8125,4.9375,0
51.592,-9.8785,-0.3519,-0.7973,-0.0123,0.029,0.0032,52.8,31.2,6.15,0.7518,-8.983,-4.1994,-0.0274,0.0021,0.0099,-54.15,-25.8,-37.35,-9.76,-0.81,0.56,0.0,-0.0011,-0.0011,8.875,-3.75,0.375,0.5625,-83.8125,4.9375,0
51.596,-9.7899,-0.3639,-0.8021,-0.0123,0.029,0.0032,52.95,30.75,6.75,0.8284,-9.0381,-4.142,-0.0274,0.0021,0.0099,-53.4,-24.6,-37.65,-9.75,-0.84,0.59,0.0,0.0033,0.0,9.6875,-3.375,0.375,0.5625,-83.8125,4.9375,0
51.602,-9.7899,-0.3639,-0.8021,-0.0099,0.0352,-0.0019,52.95,30.75,6.75,0.8284,-9.0381,-4.142,-0.0304,0.0032,0.0123,-53.4,-24.6,-37.65,-9.75,-0.84,0.59,0.0,0.0033,0.0,9.6875,-3.375,0.375,0.5625,-83.8125,4.9375,0
51.611,-9.7683,-0.3304,-0.759,-0.012,0.0269,0.0043,53.1,30.15,7.95,0.7901,-9.0309,-4.1803,-0.0304,0.0032,0.0123,-54.45,-26.4,-36.75,-9.77,-0.84,0.57,-0.0011,0.0,-0.0022,9.6875,-3.375,0.375,0.5625,-83.8125,4.9375,0
51.62,-9.7588,-0.3615,-0.759,-0.0061,0.028,-0.0019,52.35,30.9,6.9,0.8116,-8.9615,-4.1827,-0.0274,0.0013,0.0109,-54.15,-26.55,-36.15,-9.75,-0.82,0.57,0.0,0.0011,0.0,9.6875,-3.375,0.375,0.5625,-83.8125,4.9375,0
51.63,-9.8138,-0.328,-0.8045,-0.0123,0.0264,0.004,53.55,30.45,7.95,0.8308,-9.0573,-4.1731,-0.0237,-0.0043,0.0144,-53.7,-25.2,-36.0,-9.76,-0.83,0.59,0.0022,-0.0022,0.0,9.6875,-3.375,0.375,0.5625,-83.8125,4.9375,0
51.639,-9.754,-0.3089,-0.7159,-0.0131,0.025,0.0024,53.55,30.45,7.95,0.7614,-9.0381,-4.1539,-0.0237,-0.0043,0.0144,-53.85,-27.0,-36.15,-9.76,-0.83,0.57,-0.0033,0.0,0.0,9.6875,-3.375,0.375,0.5625,-83.8125,4.9375,0
51.644,-9.7827,-0.3424,-0.7398,-0.0131,0.025,0.0024,53.55,30.45,7.95,0.7614,-9.0381,-4.1539,-0.0266,0.0019,0.0123,-53.85,-27.0,-36.15,-9.76,-0.83,0.57,-0.0033,0.0,0.0,9.6875,-3.375,0.375,0.5625,-83.8125,4.9375,0
51.651,-9.7827,-0.3424,-0.7398,-0.0123,0.0304,0.0019,54.0,30.75,6.75,0.7925,-9.0022,-4.1635,-0.025,0.0005,0.0144,-53.85,-27.0,-36.15,-9.77,-0.82,0.6,-0.0011,0.0,-0.0011,8.875,-3.75,0.875,0.5625,-83.8125,4.9375,0
51.661,-9.8378,-0.3448,-0.838,-0.0101,0.033,-0.0056,53.55,30.15,6.45,0.7446,-9.0644,-4.1731,-0.028,-0.0021,0.0085,-53.1,-25.35,-36.6,-9.75,-0.81,0.57,0.0011,0.0011,-0.0011,8.875,-3.75,0.875,0.5625,-83.8125,4.9375,0
51.67,-9.8234,-0.2897,-0.7925,-0.0115,0.033,0.0008,54.45,30.75,6.3,0.7805,-8.995,-4.1922,-0.0298,0.0029,0.0152,-53.1,-25.35,-36.6,-9.79,-0.85,0.55,0.0,-0.0011,0.0,8.875,-3.75,0.875,0.5625,-83.8125,4.9375,0
51.679,-9.7707,-0.3256,-0.7709,-0.0125,0.0304,-0.004,52.05,30.9,6.45,0.8308,-9.007,-4.1635,-0.0248,-0.0005,0.0123,-55.05,-25.35,-36.9,-9.77,-0.84,0.57,-0.0011,-0.0022,0.0011,8.875,-3.75,0.875,0.5625,-83.8125,4.9375,0
51.684,-9.7779,-0.3136,-0.7805,-0.0125,0.0304,-0.004,53.85,31.2,7.2,0.7302,-9.0094,-4.1707,-0.0248,-0.0005,0.0123,-55.05,-25.35,-36.9,-9.77,-0.84,0.57,-0.0011,-0.0022,0.0011,8.875,-3.75,0.875,0.5625,-83.8125,4.9375,0
51.691,-9.7803,-0.3232,-0.7853,-0.0104,0.0301,-0.0021,53.85,31.2,7.2,0.7302,-9.0094,-4.1707,-0.0264,0.0003,0.0109,-55.35,-26.1,-35.85,-9.77,-0.85,0.56,-0.0011,0.0022,0.0,8.875,-3.75,0.875,0.5625,-83.8125,4.9375,0
51.696,-9.7803,-0.3232,-0.7853,-0.0075,0.0277,0.0024,53.85,31.2,7.2,0.8045,-9.0597,-4.1228,-0.0264,0.0003,0.0109,-55.35,-26.1,-35.85,-9.77,-0.85,0.56,0.0,0.0,-0.0022,9.6875,-3.0625,1.1875,0.5625,-83.8125,4.9375,0
51.702,-9.8043,-0.3424,-0.7685,-0.0075,0.0277,0.0024,53.85,31.2,7.2,0.8045,-9.0597,-4.1228,-0.0229,-0.0027,0.0112,-53.1,-25.05,-36.15,-9.78,-0.82,0.58,0.0,0.0,-0.0022,9.6875,-3.0625,1.1875,0.5625,-83.8125,4.9375,0
51.711,-9.7659,-0.2921,-0.7853,-0.0027,0.0304,0.0013,53.1,30.15,5.4,0.7949,-9.0333,-4.1731,-0.0325,0.0029,0.0104,-53.7,-24.45,-36.75,-9.75,-0.86,0.57,-0.0011,0.0011,-0.0011,9.6875,-3.0625,1.1875,0.5625,-83.8125,4.9375,0
51.721,-9.7683,-0.3783,-0.7997,-0.0117,0.0317,0.0043,53.7,30.3,6.75,0.7757,-9.0118,-4.1396,-0.0269,-0.0027,0.0109,-54.45,-26.7,-36.75,-9.79,-0.82,0.55,-0.0011,0.0022,-0.0022,9.6875,-3.0625,1.1875,0.5625,-83.8125,4.9375,0
51.73,-9.7923,-0.34,-0.7925,-0.0101,0.0349,0.0024,53.55,32.4,6.15,0.7207,-9.0812,-4.1492,-0.025,-0.0003,0.0147,-53.85,-24.6,-35.85,-9.75,-0.82,0.57,0.0,0.0,0.0,9.6875,-3.0625,1.1875,0.5625,-83.8125,4.9375,0
51.74,-9.809,-0.3639,-0.7997,-0.0061,0.0306,0.0056,53.7,30.3,6.3,0.7733,-8.9998,-4.1396,-0.0285,0.004,0.0128,-52.95,-25.5,-37.5,-9.77,-0.83,0.59,0.0011,0.0011,0.0,9.6875,-3.0625,1.1875,0.5625,-83.8125,4.9375,0
51.744,-9.809,-0.3639,-0.7997,-0.0139,0.0293,0.0008,53.55,30.15,5.85,0.8308,-8.9783,-4.1611,-0.0285,0.004,0.0128,-52.95,-25.5,-37.5,-9.77,-0.83,0.59,0.0011,0.0011,0.0,9.6875,-3.375,0.0625,0.5625,-83.8125,4.9375,0
51.751,-9.7659,-0.3184,-0.8068,-0.0139,0.0293,0.0008,53.55,30.15,5.85,0.8021,-9.0261,-4.1084,-0.0248,-0.0048,0.0141,-53.7,-25.95,-36.45,-9.77,-0.83,0.58,-0.0033,-0.0011,-0.0011,9.6875,-3.375,0.0625,0.5625,-83.8125,4.9375,0
51.761,-9.821,-0.4334,-0.7997,-0.0064,0.0317,0.0021,53.55,30.15,5.85,0.7853,-8.983,-4.1324,-0.0285,0.004,0.0099,-53.7,-25.95,-36.45,-9.77,-0.83,0.59,-0.0011,0.0011,0.0011,9.6875,-3.375,0.0625,0.5625,-83.8125,4.9375,0
51.771,-9.8713,-0.3759,-0.7853,-0.0112,0.0309,0.0,53.55,30.15,5.85,0.7566,-9.0621,-4.1515,-0.032,0.0005,0.0075,-51.9,-25.35,-35.85,-9.75,-0.83,0.57,-0.0022,0.0033,0.0011,9.6875,-3.375,0.0625,0.5625,-83.8125,4.9375,0
51.781,-9.7851,-0.3735,-0.7638,-0.0136,0.0338,0.0032,53.7,30.75,6.75,0.7709,-9.0764,-4.142,-0.0277,-0.0048,0.0083,-51.9,-25.35,-35.85,-9.76,-0.8,0.59,0.0,-0.0011,0.0,9.6875,-3.375,0.0625,0.5625,-83.8125,4.9375,0
51.79,-9.7588,-0.3232,-0.7853,-0.0075,0.0317,0.0037,52.8,29.4,5.4,0.7901,-8.9926,-4.1659,-0.0258,-0.0048,0.0141,-54.0,-25.5,-34.5,-9.77,-0.83,0.58,0.0,-0.0022,0.0,9.6875,-3.375,0.0625,0.5625,-83.8125,4.9375,0
51.794,-9.7588,-0.3232,-0.7853,-0.0069,0.0338,0.0008,53.55,30.9,6.9,0.7901,-8.9926,-4.1659,-0.0269,-0.0064,0.0123,-54.0,-25.5,-34.5,-9.77,-0.83,0.58,0.0,-0.0022,0.0,8.875,-3.0625,-0.6875,0.5625,-83.8125,4.9375,0
51.801,-9.8234,-0.3136,-0.8212,-0.0069,0.0338,0.0008,53.55,30.9,6.9,0.7614,-8.9735,-4.1707,-0.0269,-0.0064,0.0123,-53.1,-25.8,-36.9,-9.77,-0.85,0.57,-0.0011,0.0011,0.0,8.875,-3.0625,-0.6875,0.5625,-83.8125,4.9375,0
51.811,-9.833,-0.3567,-0.7638,-0.0112,0.0274,0.0021,54.3,30.45,6.15,0.7829,-9.0118,-4.1324,-0.0203,-0.0053,0.0131,-53.7,-24.45,-37.5,-9.75,-0.82,0.56,-0.0011,0.0033,0.0,8.875,-3.0625,-0.6875,0.5625,-83.8125,4.9375,0
51.821,-9.7564,-0.3591,-0.7302,-0.0075,0.0306,0.0016,54.3,30.45,6.15,0.8045,-9.0094,-4.1851,-0.024,-0.0013,0.0109,-54.0,-24.0,-37.95,-9.73,-0.82,0.56,0.0,0.0,0.0,8.875,-3.0625,-0.6875,0.5625,-83.8125,4.9375,0
51.831,-9.8114,-0.3711,-0.8188,-0.0085,0.0312,0.0003,54.3,30.45,6.15,0.8021,-9.0309,-4.1348,-0.0258,0.0,0.012,-54.45,-26.7,-37.95,-9.75,-0.83,0.59,-0.0011,0.0,-0.0011,8.875,-3.0625,-0.6875,0.5625,-83.8125,4.9375,0
51.84,-9.7947,-0.3735,-0.7685,-0.0085,0.0312,0.0003,53.55,30.45,6.15,0.8116,-9.0261,-4.0917,-0.0269,0.0011,0.0091,-54.0,-23.55,-39.0,-9.75,-0.82,0.56,-0.0011,0.0011,-0.0011,8.875,-3.0625,-0.6875,0.5625,-83.8125,4.9375,0
51.845,-9.7947,-0.3735,-0.7685,-0.0128,0.0285,0.0048,53.55,30.45,6.45,0.8116,-9.0261,-4.0917,-0.0192,0.0,0.0125,-54.0,-23.55,-39.0,-9.75,-0.82,0.56,-0.0011,0.0011,-0.0011,10.375,-3.375,0.375,0.5625,-83.8125,4.9375,0
51.852,-9.7899,-0.3687,-0.735,-0.012,0.0229,0.0043,52.95,30.75,6.75,0.8356,-8.9974,-4.1132,-0.032,-0.0003,0.0107,-54.0,-23.55,-39.0,-9.75,-0.86,0.56,-0.0011,0.0,-0.0011,10.375,-3.375,0.375,0.5625,-83.8125,4.9375,0
51.861,-9.8043,-0.3567,-0.7614,-0.0085,0.0304,0.0032,53.55,30.9,7.2,0.7685,-8.9304,-4.1611,-0.0309,0.0021,0.0096,-54.75,-24.45,-36.75,-9.77,-0.83,0.59,0.0011,-0.0044,0.0,10.375,-3.375,0.375,0.5625,-83.8125,4.9375,0
51.871,-9.8545,-0.3687,-0.8116,-0.0104,0.0346,0.0011,52.95,30.75,7.05,0.7877,-9.0261,-4.1755,-0.029,0.0032,0.0091,-54.75,-24.45,-36.75,-9.73,-0.84,0.57,0.0,0.0,0.0,10.375,-3.375,0.375,0.5625,-83.8125,4.9375,0
51.881,-9.7995,-0.3807,-0.7805,-0.0048,0.0325,0.0027,52.95,30.75,7.05,0.7566,-8.9878,-4.1659,-0.0282,0.0008,0.0109,-52.95,-26.4,-37.5,-9.74,-0.84,0.57,-0.0011,0.0033,0.0011,10.375,-3.375,0.375,0.5625,-83.8125,4.9375,0
51.889,-9.8545,-0.3304,-0.7973,-0.0091,0.0296,-0.0003,52.95,30.75,7.05,0.7997,-9.0597,-4.1611,-0.0282,0.0008,0.0109,-54.45,-24.75,-36.0,-9.77,-0.83,0.59,0.0011,-0.0011,0.0,10.375,-3.375,0.375,0.5625,-83.8125,4.9375,0
51.894,-9.8545,-0.3304,-0.7973,-0.0091,0.0296,-0.0003,53.85,31.65,5.85,0.7997,-9.0597,-4.1611,-0.0266,-0.0024,0.0112,-54.45,-24.75,-36.0,-9.77,-0.83,0.59,0.0011,-0.0011,0.0,10.375,-3.375,0.375,0.5625,-83.8125,4.9375,0
51.901,-9.7779,-0.3376,-0.7973,-0.0109,0.0312,-0.0005,52.05,30.45,6.15,0.7733,-9.0094,-4.13,-0.0272,-0.0032,0.0075,-53.1,-24.6,-36.6,-9.77,-0.83,0.58,-0.0011,0.0011,-0.0011,9.25,-3.375,0.0625,0.5625,-83.8125,4.9375,0
51.911,-9.8138,-0.3759,-0.7829,-0.0117,0.0336,0.0027,54.45,29.55,6.0,0.8068,-9.0094,-4.1539,-0.0205,-0.0011,0.0107,-53.1,-25.35,-37.35,-9.77,-0.83,0.57,-0.0011,0.0033,0.0,9.25,-3.375,0.0625,0.5625,-83.8125,4.9375,0
51.921,-9.8282,-0.3783,-0.7949,-0.0088,0.0266,0.0008,55.5,31.05,6.75,0.8116,-9.0166,-4.1563,-0.0288,0.0096,0.0141,-55.05,-25.35,-36.9,-9.74,-0.82,0.55,0.0,0.0,0.0,9.25,-3.375,0.0625,0.5625,-83.8125,4.9375,0
51.931,-9.8426,-0.3735,-0.7446,-0.0101,0.0274,0.0019,52.65,30.3,7.35,0.7949,-9.0118,-4.1755,-0.0245,-0.0005,0.0104,-54.15,-25.05,-36.15,-9.76,-0.85,0.57,-0.0011,0.0022,0.0,9.25,-3.375,0.0625,0.5625,-83.8125,4.9375,0
51.94,-9.7971,-0.3759,-0.8068,-0.0085,0.0325,0.0016,52.65,30.3,7.35,0.8021,-9.0429,-4.2282,-0.0266,0.0037,0.0109,-55.05,-25.8,-37.35,-9.77,-0.84,0.57,-0.0011,0.0022,-0.0011,9.25,-3.375,0.0625,0.5625,-83.8125,4.9375,0
51.945,-9.8067,-0.3711,-0.7638,-0.0085,0.0325,0.0016,52.65,30.3,7.35,0.7566,-9.007,-4.2138,-0.0266,0.0037,0.0109,-55.05,-25.8,-37.35,-9.77,-0.84,0.57,-0.0011,0.0022,-0.0011,10.0625,-3.375,0.0625,0.5625,-83.8125,4.9375,0
51.952,-9.8067,-0.3711,-0.7638,-0.012,0.0264,0.0019,54.45,30.3,7.8,0.8212,-8.9735,-4.1492,-0.0234,-0.0003,0.0083,-52.95,-25.95,-37.5,-9.76,-0.85,0.6,-0.0011,0.0044,-0.0022,10.0625,-3.375,0.0625,0.5625,-83.8125,4.9375,0
51.961,-9.8043,-0.3017,-0.7973,-0.0099,0.0314,0.0005,53.4,30.75,7.05,0.7566,-9.0166,-4.1372,-0.0269,-0.0043,0.0096,-52.95,-25.95,-37.5,-9.78,-0.85,0.57,-0.0011,-0.0022,-0.0011,10.0625,-3.375,0.0625,0.5625,-83.8125,4.9375,0
51.971,-9.8234,-0.3136,-0.7661,-0.0093,0.0274,0.0005,53.55,31.2,5.85,0.8021,-9.0118,-4.1132,-0.0264,-0.004,0.0165,-53.7,-26.4,-36.45,-9.77,-0.84,0.59,-0.0022,0.0022,-0.0011,10.0625,-3.375,0.0625,0.5625,-83.8125,4.9375,0
51.981,-9.8497,-0.3472,-0.7949,-0.0091,0.029,-0.0011,52.2,30.0,8.1,0.7661,-9.0142,-4.1396,-0.0224,-0.0016,0.0091,-53.7,-26.4,-36.45,-9.74,-0.83,0.57,0.0,0.0022,0.0,10.0625,-3.375,0.0625,0.5625,-83.8125,4.9375,0
51.99,-9.7971,-0.3591,-0.8212,-0.0059,0.0264,0.0019,53.7,31.5,7.35,0.7661,-9.0142,-4.1396,-0.0272,-0.0024,0.0136,-53.4,-25.8,-36.6,-9.75,-0.83,0.56,0.0,0.0033,-0.0011,10.0625,-3.375,0.0625,0.5625,-83.8125,4.9375,0
51.995,-9.8019,-0.3879,-0.7757,-0.0059,0.0264,0.0019,53.7,31.5,7.35,0.7925,-9.0142,-4.1156,-0.0272,-0.0024,0.0136,-53.4,-25.8,-36.6,-9.75,-0.83,0.56,0.0,0.0033,-0.0011,9.25,-3.0625,0.0625,0.5625,-83.8125,4.9375,0
52.002,-9.8114,-0.34,-0.7757,-0.0051,0.0285,0.0019,53.7,31.5,7.35,0.8045,-9.0429,-4.209,-0.025,-0.0005,0.0109,-53.1,-25.05,-36.9,-9.77,-0.83,0.58,0.0011,-0.0011,-0.0011,9.25,-3.0625,0.0625,0.5625,-83.8125,4.9375,0
52.011,-9.8043,-0.3448,-0.747,-0.0083,0.0293,0.0019,53.7,31.5,7.35,0.7422,-9.0549,-4.1204,-0.0266,0.0016,0.0144,-54.15,-25.8,-36.15,-9.76,-0.85,0.57,0.0,0.0022,-0.0011,9.25,-3.0625,0.0625,0.5625,-83.8125,4.9375,0
52.021,-9.7324,-0.3496,-0.7494,-0.0064,0.0253,0.0024,54.3,30.9,5.85,0.7853,-9.0214,-4.1683,-0.0272,0.0045,0.0123,-55.05,-24.6,-36.15,-9.77,-0.82,0.57,-0.0011,0.0,0.0011,9.25,-3.0625,0.0625,0.5625,-83.8125,4.9375,0
52.031,-9.7923,-0.3543,-0.723,-0.0096,0.0354,0.0013,53.1,30.9,5.85,0.7757,-8.9759,-4.1372,-0.0277,-0.0027,0.0099,-54.45,-25.95,-36.75,-9.76,-0.85,0.56,0.0,0.0,-0.0011,9.25,-3.0625,0.0625,0.5625,-83.8125,4.9375,0
52.039,-9.809,-0.3663,-0.7207,-0.0083,0.0344,0.0035,53.55,31.95,6.9,0.826,-9.0285,-4.1851,-0.0218,0.0021,0.0149,-54.45,-25.95,-36.75,-9.75,-0.83,0.58,-0.0022,0.0,-0.0011,9.25,-3.0625,0.0625,0.5625,-83.8125,4.9375,0
52.044,-9.809,-0.3663,-0.7207,-0.008,0.0346,-0.0011,53.55,31.95,6.9,0.826,-9.0285,-4.1851,-0.0213,-0.0024,0.0083,-53.25,-23.55,-37.2,-9.75,-0.83,0.58,-0.0022,0.0,-0.0011,9.25,-3.0625,0.0625,0.5625,-83.8125,4.9375,0
52.049,-9.7229,-0.395,-0.7661,-0.008,0.0346,-0.0011,53.4,31.05,6.3,0.7733,-9.019,-4.1611,-0.0213,-0.0024,0.0083,-53.25,-23.55,-37.2,-9.77,-0.83,0.57,0.0,0.0044,-0.0011,9.25,-3.375,-0.25,0.5625,-83.8125,4.9375,0
52.054,-9.7229,-0.395,-0.7661,-0.0093,0.0282,-0.0013,53.4,31.05,6.3,0.7733,-9.019,-4.1611,-0.0309,0.0027,0.0152,-53.25,-23.55,-37.2,-9.77,-0.83,0.57,0.0,0.0044,-0.0011,9.25,-3.375,-0.25,0.5625,-83.8125,4.9375,0
52.062,-9.821,-0.3926,-0.7901,-0.0093,0.0282,-0.0013,52.8,31.65,7.65,0.8212,-8.9328,-4.1515,-0.0309,0.0027,0.0152,-54.0,-24.75,-36.75,-9.75,-0.83,0.59,-0.0033,0.0011,0.0,9.25,-3.375,-0.25,0.5625,-83.8125,4.9375,0
52.072,-9.833,-0.4118,-0.7494,-0.0029,0.0309,0.0043,52.8,31.65,7.65,0.7661,-9.0046,-4.1348,-0.0261,0.0027,0.0101,-54.0,-24.75,-36.75,-9.76,-0.82,0.56,-0.0011,0.0011,-0.0011,9.25,-3.375,-0.25,0.5625,-83.8125,4.9375,0
52.081,-9.7636,-0.3591,-0.8236,-0.0131,0.033,0.0029,53.55,30.9,7.2,0.7949,-9.0309,-4.1539,-0.0282,-0.0032,0.0069,-55.2,-24.75,-37.5,-9.78,-0.85,0.58,0.0,0.0022,0.0011,9.25,-3.375,-0.25,0.5625,-83.8125,4.9375,0
52.091,-9.8234,-0.3567,-0.7997,-0.0123,0.0312,0.0027,53.55,31.95,5.4,0.8021,-9.0525,-4.1396,-0.029,0.0035,0.0096,-53.1,-25.35,-36.6,-9.77,-0.81,0.58,0.0,0.0,-0.0033,9.25,-3.375,-0.25,0.5625,-83.8125,4.9375,0
52.096,-9.8234,-0.3567,-0.7997,-0.012,0.0296,-0.0011,53.55,31.95,5.4,0.7925,-8.9807,-4.209,-0.029,0.0035,0.0096,-53.1,-25.35,-36.6,-9.77,-0.81,0.58,0.0,-0.0055,0.0,9.25,-3.0625,0.0625,0.5625,-83.8125,4.9375,0
52.102,-9.7612,-0.3639,-0.7685,-0.0115,0.0346,0.0019,53.4,30.75,8.1,0.7925,-8.9807,-4.209,-0.0288,0.0029,0.0131,-52.65,-26.1,-38.1,-9.76,-0.81,0.57,0.0,-0.0055,0.0,9.25,-3.0625,0.0625,0.5625,-83.8125,4.9375,0
52.112,-9.8306,-0.3519,-0.7661,-0.0091,0.036,-0.0005,53.4,30.3,6.3,0.7733,-9.0261,-4.1539,-0.028,0.0053,0.008,-53.25,-24.75,-36.75,-9.76,-0.84,0.57,0.0,-0.0011,0.0011,9.25,-3.0625,0.0625,0.5625,-83.8125,4.9375,0
52.122,-9.7923,-0.2873,-0.7685,-0.0067,0.0293,0.0005,53.1,30.9,7.65,0.7973,-9.0549,-4.1803,-0.0266,0.0011,0.0125,-53.25,-25.5,-37.2,-9.76,-0.84,0.57,-0.0011,-0.0022,0.0,9.25,-3.0625,0.0625,0.5625,-83.8125,4.9375,0
52.131,-9.8282,-0.3735,-0.7757,-0.0085,0.0296,-0.0016,53.1,30.9,7.65,0.7853,-8.9902,-4.1922,-0.0261,-0.0029,0.0141,-54.45,-25.5,-37.2,-9.79,-0.84,0.57,0.0011,0.0,0.0011,9.25,-3.0625,0.0625,0.5625,-83.8125,4.9375,0
52.141,-9.7803,-0.3759,-0.7422,-0.0091,0.0272,0.0008,53.55,31.65,7.95,0.7494,-8.9615,-4.0965,-0.0258,0.0011,0.0112,-54.45,-26.4,-36.75,-9.77,-0.86,0.58,0.0,0.0011,0.0022,9.25,-3.0625,0.0625,0.5625,-83.8125,4.9375,0
52.146,-9.7923,-0.3974,-0.7685,-0.0091,0.0272,0.0008,53.55,30.15,6.9,0.747,-9.007,-4.1779,-0.0258,0.0011,0.0112,-54.45,-26.4,-36.75,-9.77,-0.86,0.58,0.0,0.0,0.0011,9.25,-4.1875,1.1875,0.5625,-83.8125,4.9375,0
52.152,-9.7923,-0.3974,-0.7685,-0.0112,0.0306,0.0003,53.55,30.15,6.9,0.747,-9.007,-4.1779,-0.0288,-0.0016,0.0072,-54.45,-25.95,-36.75,-9.76,-0.82,0.6,0.0,0.0,0.0011,9.25,-4.1875,1.1875,0.5625,-83.8125,4.9375,0
52.162,-9.7516,-0.328,-0.7829,-0.0061,0.0285,0.0032,53.7,33.0,6.75,0.7398,-8.9878,-4.1204,-0.025,-0.0005,0.0107,-54.45,-25.95,-36.75,-9.76,-0.85,0.56,0.0,-0.0011,0.0,9.25,-4.1875,1.1875,0.5625,-83.8125,4.9375,0
52.171,-9.8569,-0.4118,-0.7853,-0.0101,0.033,-0.0024,54.9,30.45,7.65,0.7709,-9.0142,-4.1755,-0.0296,-0.0024,0.0157,-53.7,-25.5,-35.7,-9.77,-0.85,0.57,0.0011,-0.0033,0.0011,9.25,-4.1875,1.1875,0.5625,-83.8125,4.9375,0
52.181,-9.7636,-0.3663,-0.7446,-0.0091,0.0314,0.0,52.65,31.05,6.3,0.7973,-9.0836,-4.1372,-0.0258,0.0064,0.0099,-53.7,-25.5,-35.7,-9.77,-0.83,0.57,0.0011,-0.0022,0.0011,9.25,-4.1875,1.1875,0.5625,-83.8125,4.9375,0
52.191,-9.8043,-0.3112,-0.7614,-0.0077,0.0317,-0.0024,52.65,31.05,6.3,0.759,-9.0381,-4.118,-0.0242,0.0016,0.0115,-53.7,-25.5,-35.7,-9.78,-0.82,0.6,-0.0011,0.0,0.0011,9.25,-4.1875,1.1875,0.5625,-83.8125,4.9375,0
52.195,-9.7971,-0.34,-0.7159,-0.0077,0.0317,-0.0024,52.65,31.05,6.3,0.7781,-8.9974,-4.1468,-0.0242,0.0016,0.0115,-52.95,-24.0,-35.7,-9.78,-0.82,0.6,-0.0011,0.0,0.0011,9.25,-3.0625,0.875,0.5625,-83.8125,4.9375,0
52.202,-9.7971,-0.34,-0.7159,-0.0059,0.0322,0.0016,52.65,31.05,6.3,0.8284,-9.0214,-4.1539,-0.0192,0.0019,0.0115,-53.1,-24.6,-36.6,-9.76,-0.83,0.58,0.0,0.0,0.0,9.25,-3.0625,0.875,0.5625,-83.8125,4.9375,0
52.212,-9.8019,-0.3687,-0.7111,-0.0112,0.0277,-0.0013,53.55,30.45,7.2,0.8068,-8.9902,-4.1827,-0.0266,0.0003,0.0165,-54.6,-25.35,-36.9,-9.77,-0.85,0.57,0.0011,-0.0022,0.0011,9.25,-3.0625,0.875,0.5625,-83.8125,4.9375,0
52.222,-9.809,-0.3376,-0.8164,-0.0104,0.0304,-0.0008,53.7,30.3,7.8,0.8045,-8.995,-4.142,-0.0274,-0.0016,0.0117,-55.2,-25.2,-37.5,-9.76,-0.83,0.57,0.0,-0.0011,0.0011,9.25,-3.0625,0.875,0.5625,-83.8125,4.9375,0
52.232,-9.7707,-0.328,-0.7925,-0.0061,0.0357,-0.0011,53.1,31.65,7.2,0.7973,-9.007,-4.1252,-0.0234,0.0,0.0083,-53.4,-25.35,-35.85,-9.76,-0.85,0.58,0.0022,0.0,0.0022,9.25,-3.0625,0.875,0.5625,-83.8125,4.9375,0
52.242,-9.7779,-0.3328,-0.814,-0.0075,0.0301,-0.0027,52.95,31.5,7.8,0.7973,-8.995,-4.1611,-0.0261,0.0024,0.0117,-54.15,-25.8,-37.35,-9.76,-0.85,0.58,0.0011,-0.0011,0.0,9.25,-3.0625,0.875,0.5625,-83.8125,4.9375,0
52.247,-9.8282,-0.328,-0.7685,-0.0104,0.0288,0.0019,52.8,31.2,7.65,0.7973,-8.995,-4.1611,-0.024,0.0027,0.0125,-54.15,-25.8,-37.35,-9.76,-0.85,0.58,-0.0022,0.0011,0.0,10.0625,-2.6875,-0.25,0.5625,-83.8125,4.9375,0
52.253,-9.7444,-0.3639,-0.8236,-0.0104,0.0288,0.0019,52.8,31.2,7.65,0.8092,-9.0501,-4.1252,-0.024,0.0027,0.0125,-54.15,-25.8,-37.35,-9.76,-0.83,0.59,-0.0022,0.0011,0.0,10.0625,-2.6875,-0.25,0.5625,-83.8125,4.9375,0
52.262,-9.7947,-0.3974,-0.8236,-0.0037,0.0336,0.0024,52.8,31.2,7.65,0.8212,-9.0405,-4.1468,-0.0269,-0.0016,0.0096,-54.45,-24.75,-37.5,-9.75,-0.82,0.57,0.0011,0.0011,0.0011,10.0625,-2.6875,-0.25,0.5625,-83.8125,4.9375,0
52.272,-9.7755,-0.3519,-0.7661,-0.0112,0.0314,0.0019,53.4,30.75,7.05,0.8164,-8.9998,-4.1587,-0.0256,-0.0016,0.0083,-54.45,-24.75,-37.5,-9.77,-0.83,0.57,0.0011,0.0,0.0,10.0625,-2.6875,-0.25,0.5625,-83.8125,4.9375,0
52.281,-9.7755,-0.3519,-0.7661,-0.0123,0.0314,-0.0003,52.35,31.2,6.45,0.7949,-9.0022,-4.1013,-0.0248,-0.0011,0.0112,-54.45,-24.75,-37.5,-9.76,-0.82,0.57,0.0011,-0.0022,0.0,10.0625,-2.6875,-0.25,0.5625,-83.8125,4.9375,0
52.285,-9.7995,-0.2729,-0.8116,-0.0064,0.0333,-0.0027,53.4,31.5,8.1,0.7949,-9.0022,-4.1013,-0.0232,0.0035,0.0141,-53.7,-24.75,-36.75,-9.76,-0.82,0.57,0.0011,-0.0022,0.0,10.0625,-2.6875,-0.25,0.5625,-83.8125,4.9375,0
52.293,-9.7827,-0.3974,-0.7685,-0.0064,0.0333,-0.0027,53.7,31.5,7.35,0.7901,-9.0046,-4.1515,-0.0232,0.0035,0.0141,-54.6,-24.6,-36.9,-9.73,-0.84,0.57,0.0,0.0022,0.0,10.0625,-2.6875,-0.25,0.5625,-83.8125,4.9375,0
52.298,-9.7827,-0.3974,-0.7685,-0.012,0.0272,0.0048,53.7,31.5,7.35,0.7614,-9.0477,-4.1707,-0.0232,0.0045,0.0123,-54.6,-24.6,-36.9,-9.73,-0.84,0.57,-0.0011,-0.0022,0.0,8.875,-3.0625,-0.25,0.5625,-83.8125,4.9375,0
52.303,-9.7995,-0.34,-0.7829,-0.012,0.0272,0.0048,53.4,30.0,6.0,0.7614,-9.0477,-4.1707,-0.025,0.0005,0.0085,-53.85,-25.8,-36.9,-9.75,-0.83,0.58,-0.0011,-0.0022,0.0,8.875,-3.0625,-0.25,0.5625,-83.8125,4.9375,0
52.312,-9.7803,-0.3256,-0.7446,-0.0117,0.0301,0.0029,53.4,30.0,6.0,0.7661,-9.0357,-4.1994,-0.0245,-0.0019,0.0112,-53.85,-25.8,-36.9,-9.77,-0.84,0.58,0.0022,-0.0022,-0.0011,8.875,-3.0625,-0.25,0.5625,-83.8125,4.9375,0
52.322,-9.7707,-0.3543,-0.7901,-0.0115,0.0296,0.0075,53.4,30.0,6.0,0.7638,-9.0692,-4.1683,-0.0245,-0.0008,0.0099,-53.85,-24.15,-36.6,-9.77,-0.82,0.55,0.0,-0.0011,0.0022,8.875,-3.0625,-0.25,0.5625,-83.8125,4.9375,0
52.332,-9.7995,-0.3352,-0.7853,-0.0085,0.029,-0.0013,52.2,30.0,7.8,0.7733,-9.0046,-4.1731,-0.0272,-0.0013,0.0021,-54.45,-26.4,-37.2,-9.78,-0.81,0.56,0.0011,-0.0033,0.0011,8.875,-3.0625,-0.25,0.5625,-83.8125,4.9375,0
52.341,-9.8186,-0.3328,-0.7518,-0.0123,0.0338,-0.0016,55.2,32.25,7.8,0.7733,-9.0597,-4.2018,-0.0272,-0.0013,0.0021,-54.0,-25.5,-38.25,-9.76,-0.85,0.57,-0.0022,-0.0011,0.0011,8.875,-3.0625,-0.25,0.5625,-83.8125,4.9375,0
52.345,-9.8186,-0.3328,-0.7518,-0.0107,0.0266,0.0029,55.35,29.4,6.15,0.7733,-9.0597,-4.2018,-0.0253,0.0027,0.0088,-54.0,-25.5,-38.25,-9.76,-0.85,0.57,-0.0022,-0.0011,0.0011,8.875,-3.0625,-0.25,0.5625,-83.8125,4.9375,0
52.352,-9.8186,-0.3543,-0.7901,-0.0107,0.0266,0.0029,54.0,30.75,7.05,0.7302,-8.9783,-4.118,-0.0218,0.0,0.0104,-54.0,-25.5,-38.25,-9.75,-0.84,0.57,-0.0011,-0.0033,0.0011,9.25,-3.0625,-0.25,0.5625,-83.8125,4.9375,0
52.362,-9.7923,-0.3879,-0.7494,-0.0115,0.0274,-0.0008,51.9,30.3,6.75,0.8021,-9.0166,-4.0917,-0.0272,0.0037,0.012,-53.4,-25.35,-36.6,-9.77,-0.84,0.59,0.0,0.0044,0.0,9.25,-3.0625,-0.25,0.5625,-83.8125,4.9375,0
52.371,-9.821,-0.3208,-0.7757,-0.0131,0.0317,0.0051,51.9,30.3,6.75,0.8164,-9.0261,-4.1875,-0.0301,-0.0016,0.0112,-53.4,-25.35,-36.6,-9.77,-0.84,0.56,-0.0011,-0.0011,0.0,9.25,-3.0625,-0.25,0.5625,-83.8125,4.9375,0
52.376,-9.821,-0.3208,-0.7757,-0.0096,0.0245,0.0043,51.9,30.3,6.75,0.7494,-9.1004,-4.1827,-0.0301,-0.0016,0.0112,-53.7,-25.5,-37.5,-9.77,-0.84,0.56,0.0011,-0.0044,0.0011,9.25,-3.0625,-0.25,0.5625,-83.8125,4.9375,0
52.383,-9.8019,-0.3615,-0.7494,-0.0064,0.0314,0.0,51.9,30.3,6.75,0.7494,-9.1004,-4.1827,-0.0301,0.0013,0.0107,-53.7,-25.5,-37.5,-9.75,-0.82,0.56,0.0011,-0.0044,0.0011,9.25,-3.0625,-0.25,0.5625,-83.8125,4.9375,0
52.393,-9.7851,-0.3567,-0.7973,-0.0067,0.032,0.0013,53.7,30.75,8.1,0.7949,-9.019,-4.1659,-0.0285,0.0027,0.0093,-53.7,-25.5,-37.5,-9.78,-0.83,0.57,0.0,-0.0022,0.0011,9.25,-3.0625,-0.25,0.5625,-83.8125,4.9375,0
52.397,-9.8234,-0.3759,-0.7614,-0.0067,0.032,0.0013,53.7,30.75,8.1,0.7901,-9.0118,-4.1683,-0.0285,0.0027,0.0093,-53.85,-24.6,-36.6,-9.78,-0.83,0.57,0.0011,0.0,0.0022,8.875,-3.375,-1.0625,0.5625,-83.8125,4.9375,0
52.403,-9.8234,-0.3759,-0.7614,-0.0043,0.0373,-0.0029,54.9,31.65,5.85,0.7901,-9.0118,-4.1683,-0.0298,0.0032,0.0104,-53.85,-24.6,-36.6,-9.77,-0.85,0.58,0.0011,0.0,0.0022,8.875,-3.375,-1.0625,0.5625,-83.8125,4.9375,0
52.412,-9.8043,-0.3472,-0.8212,-0.0141,0.0336,0.0019,51.75,30.45,6.9,0.8068,-9.007,-4.1803,-0.0282,-0.0013,0.0069,-53.25,-24.75,-36.75,-9.76,-0.81,0.56,-0.0022,0.0,0.0022,8.875,-3.375,-1.0625,0.5625,-83.8125,4.9375,0
52.422,-9.8569,-0.3065,-0.7997,-0.0072,0.033,0.0029,53.4,30.3,6.0,0.7542,-8.9807,-4.1875,-0.0205,-0.0019,0.0133,-54.45,-25.5,-37.5,-9.77,-0.81,0.56,0.0011,-0.0033,0.0033,8.875,-3.375,-1.0625,0.5625,-83.8125,4.9375,0
52.432,-9.8545,-0.3496,-0.7829,-0.0093,0.0317,-0.0061,53.4,30.3,7.8,0.8188,-9.0621,-4.142,-0.0264,-0.0021,0.0125,-53.7,-24.45,-36.45,-9.74,-0.83,0.57,0.0,-0.0022,0.0011,8.875,-3.375,-1.0625,0.5625,-83.8125,4.9375,0
52.442,-9.8354,-0.3783,-0.7326,-0.0093,0.0314,0.0024,53.4,30.3,7.8,0.8188,-9.0621,-4.142,-0.0256,-0.0024,0.0131,-54.75,-25.5,-36.45,-9.76,-0.82,0.59,0.0011,-0.0022,0.0011,8.875,-3.375,-1.0625,0.5625,-83.8125,4.9375,0
52.446,-9.7971,-0.4142,-0.7446,-0.0093,0.0314,0.0024,53.4,30.3,7.8,0.7781,-9.0429,-4.1659,-0.0256,-0.0024,0.0131,-55.05,-26.1,-36.9,-9.76,-0.82,0.59,0.0011,0.0011,0.0011,8.875,-3.75,0.875,0.5625,-83.8125,4.9375,0
52.453,-9.7971,-0.4142,-0.7446,-0.0032,0.0285,0.0024,52.35,30.9,7.95,0.7853,-8.995,-4.1707,-0.0253,0.004,0.0144,-55.05,-26.1,-36.9,-9.76,-0.83,0.58,0.0011,0.0011,0.0011,8.875,-3.75,0.875,0.5625,-83.8125,4.9375,0
52.462,-9.809,-0.3639,-0.7494,-0.0085,0.0309,-0.0019,51.45,31.05,7.05,0.7805,-9.007,-4.2138,-0.0226,0.0005,0.0128,-55.05,-26.1,-36.9,-9.77,-0.81,0.62,0.0011,0.0022,0.0011,8.875,-3.75,0.875,0.5625,-83.8125,4.9375,0
52.472,-9.8665,-0.3136,-0.8164,-0.0067,0.024,-0.0005,51.75,30.45,7.2,0.7973,-9.0237,-4.1659,-0.0253,0.0035,0.0091,-53.85,-25.8,-37.65,-9.75,-0.82,0.54,0.0,0.0,0.0022,8.875,-3.75,0.875,0.5625,-83.8125,4.9375,0
52.481,-9.7971,-0.3472,-0.7925,-0.0061,0.0389,0.0008,53.4,30.0,8.1,0.8404,-9.0884,-4.1946,-0.0237,0.0,0.016,-53.85,-25.8,-37.65,-9.76,-0.82,0.58,0.0011,-0.0033,-0.0011,8.875,-3.75,0.875,0.5625,-83.8125,4.9375,0
52.486,-9.8138,-0.3567,-0.7901,-0.0061,0.0389,0.0008,53.4,30.0,8.1,0.8404,-9.0884,-4.1946,-0.0232,0.0013,0.0085,-54.0,-25.95,-36.45,-9.76,-0.82,0.58,0.0011,-0.0033,-0.0011,8.875,-3.75,0.875,0.5625,-83.8125,4.9375,0
52.493,-9.8138,-0.3567,-0.7901,-0.0131,0.0325,-0.0013,53.4,30.3,6.0,0.8787,-9.0118,-4.1132,-0.0232,0.0013,0.0085,-54.0,-25.95,-36.45,-9.77,-0.82,0.59,0.0011,0.0,0.0011,8.875,-3.75,0.875,0.5625,-83.8125,4.9375,0
52.498,-9.7995,-0.3663,-0.7781,-0.0101,0.0248,0.0061,53.4,30.3,6.0,0.8787,-9.0118,-4.1132,-0.0288,0.0005,0.0085,-53.4,-24.6,-36.15,-9.77,-0.82,0.59,0.0011,-0.0033,0.0,9.25,-3.0625,-0.25,0.5625,-83.8125,4.9375,0
52.503,-9.7492,-0.3328,-0.8164,-0.0101,0.0248,0.0061,53.4,30.3,6.0,0.8212,-9.0333,-4.1803,-0.0288,0.0005,0.0085,-53.4,-24.6,-36.15,-9.77,-0.83,0.57,0.0011,-0.0033,0.0,9.25,-3.0625,-0.25,0.5625,-83.8125,4.9375,0
52.513,-9.7492,-0.3328,-0.8164,-0.0093,0.0298,0.0061,53.4,30.0,7.05,0.7877,-8.9711,-4.1492,-0.028,-0.0037,0.0091,-55.05,-25.8,-36.9,-9.77,-0.84,0.57,0.0011,-0.0022,0.0,9.25,-3.0625,-0.25,0.5625,-83.8125,4.9375,0
52.523,-9.8019,-0.3232,-0.8356,-0.0099,0.0298,0.0037,52.95,30.0,8.1,0.7278,-9.0453,-4.1659,-0.0211,0.0035,0.0123,-52.65,-23.85,-36.15,-9.77,-0.85,0.57,0.0,-0.0022,0.0022,9.25,-3.0625,-0.25,0.5625,-83.8125,4.9375,0
52.533,-9.7947,-0.4166,-0.7733,-0.0093,0.0298,0.0016,54.75,30.75,7.8,0.7733,-9.0453,-4.1587,-0.0216,-0.0024,0.0093,-54.0,-24.75,-36.0,-9.76,-0.84,0.57,0.0011,0.0,-0.0022,9.25,-3.0625,-0.25,0.5625,-83.8125,4.9375,0
52.542,-9.8067,-0.3567,-0.8212,-0.0051,0.0352,-0.0048,53.85,30.45,6.9,0.7997,-9.0692,-4.1803,-0.0224,0.0027,0.0064,-53.7,-25.5,-37.95,-9.77,-0.83,0.57,0.0,0.0022,0.0011,9.25,-3.0625,-0.25,0.5625,-83.8125,4.9375,0
52.547,-9.8067,-0.3567,-0.8212,-0.0059,0.0293,0.0021,53.85,30.45,6.9,0.8236,-9.0285,-4.1539,-0.0272,0.0013,0.0125,-53.7,-25.5,-37.95,-9.77,-0.83,0.57,0.0011,0.0022,0.0011,8.875,-3.0625,-0.6875,0.5625,-83.8125,4.9375,0
52.553,-9.7923,-0.3879,-0.7638,-0.0059,0.0293,0.0021,53.7,31.05,6.0,0.8236,-9.0285,-4.1539,-0.0248,-0.0005,0.0168,-53.7,-25.5,-37.95,-9.77,-0.85,0.57,0.0011,0.0022,0.0011,8.875,-3.0625,-0.6875,0.5625,-83.8125,4.9375,0
52.563,-9.7659,-0.3855,-0.8021,-0.008,0.033,-0.0029,53.7,31.05,6.0,0.7757,-9.0501,-4.1611,-0.0282,-0.0011,0.0128,-53.25,-25.5,-37.5,-9.76,-0.85,0.57,0.0011,-0.0033,0.0,8.875,-3.0625,-0.6875,0.5625,-83.8125,4.9375,0
52.573,-9.7683,-0.3328,-0.8116,-0.0104,0.0314,0.0027,53.7,31.05,6.0,0.7925,-9.0214,-4.1635,-0.0213,-0.0024,0.0091,-53.25,-25.5,-37.5,-9.76,-0.84,0.56,0.0,-0.0022,0.0011,8.875,-3.0625,-0.6875,0.5625,-83.8125,4.9375,0
52.582,-9.8019,-0.3424,-0.7877,-0.0112,0.0301,0.0085,53.4,30.75,6.3,0.7614,-9.0357,-4.1539,-0.0229,0.0027,0.0109,-52.95,-24.0,-37.2,-9.77,-0.83,0.59,0.0011,-0.0022,0.0022,8.875,-3.0625,-0.6875,0.5625,-83.8125,4.9375,0
52.591,-9.8019,-0.3783,-0.838,-0.0093,0.0285,-0.0005,54.45,28.8,6.75,0.7494,-8.9926,-4.1468,-0.0304,0.0032,0.0104,-52.95,-24.0,-37.2,-9.76,-0.8,0.6,0.0,0.0,0.0011,8.875,-3.0625,-0.6875,0.5625,-83.8125,4.9375,0
52.596,-9.8019,-0.3783,-0.838,-0.0085,0.0269,0.0035,54.45,28.8,6.75,0.7757,-9.0549,-4.0941,-0.0304,0.0032,0.0104,-52.5,-25.95,-36.75,-9.76,-0.8,0.6,0.0,0.0,0.0011,9.25,-3.0625,0.0625,0.5625,-83.8125,4.9375,0
52.603,-9.8043,-0.3543,-0.735,-0.0085,0.0269,0.0035,53.1,30.9,7.2,0.7757,-9.0549,-4.0941,-0.0213,-0.0029,0.0157,-52.5,-25.95,-36.75,-9.76,-0.84,0.59,0.0022,-0.0011,0.0011,9.25,-3.0625,0.0625,0.5625,-83.8125,4.9375,0
52.613,-9.8402,-0.34,-0.7949,-0.0056,0.0354,0.0037,52.8,28.95,7.2,0.7374,-9.0309,-4.197,-0.0269,-0.0005,0.0088,-53.7,-26.7,-37.95,-9.75,-0.83,0.54,-0.0022,-0.0022,0.0011,9.25,-3.0625,0.0625,0.5625,-83.8125,4.9375,0
52.623,-9.7827,-0.3543,-0.7566,-0.008,0.0352,0.0013,53.85,30.15,6.9,0.7805,-9.0668,-4.1779,-0.032,0.004,0.0093,-52.95,-24.0,-35.7,-9.75,-0.85,0.58,-0.0011,0.0,-0.0011,9.25,-3.0625,0.0625,0.5625,-83.8125,4.9375,0
52.632,-9.8186,-0.3328,-0.7805,-0.0093,0.0344,0.0011,53.85,30.15,6.9,0.7853,-9.0381,-4.1372,-0.0211,-0.0053,0.0149,-54.6,-25.05,-37.35,-9.79,-0.83,0.57,-0.0022,0.0022,-0.0011,9.25,-3.0625,0.0625,0.5625,-83.8125,4.9375,0
52.642,-9.8378,-0.3639,-0.8643,-0.0101,0.032,0.0024,53.1,30.9,6.15,0.7398,-8.9687,-4.1731,-0.0282,0.0005,0.0152,-52.65,-25.05,-36.9,-9.77,-0.83,0.57,0.0,-0.0022,-0.0011,9.25,-3.0625,0.0625,0.5625,-83.8125,4.9375,0
52.647,-9.8378,-0.3639,-0.8643,-0.0147,0.028,0.0027,52.65,31.05,7.8,0.8116,-9.019,-4.1707,-0.0282,0.0005,0.0152,-53.25,-25.95,-37.2,-9.77,-0.83,0.57,-0.0011,0.0,0.0,9.25,-3.375,-0.25,0.5625,-83.8125,4.9375,0
52.654,-9.9216,-0.328,-0.7853,-0.0117,0.0282,0.0019,52.65,31.05,7.8,0.7853,-9.0261,-4.1659,-0.0266,-0.0013,0.0093,-53.25,-25.95,-37.2,-9.76,-0.82,0.59,-0.0011,0.0,0.0,9.25,-3.375,-0.25,0.5625,-83.8125,4.9375,0
52.663,-9.8258,-0.395,-0.7542,-0.0112,0.0306,0.0037,54.3,30.15,7.65,0.7949,-8.9807,-4.1587,-0.0232,0.0008,0.0157,-53.25,-25.95,-37.2,-9.76,-0.83,0.55,0.0011,0.0,-0.0033,9.25,-3.375,-0.25,0.5625,-83.8125,4.9375,0
52.673,-9.7516,-0.3615,-0.7901,-0.0088,0.025,-0.0005,52.95,29.55,6.0,0.814,-9.0405,-4.1444,-0.0224,0.0008,0.0107,-52.2,-26.7,-38.25,-9.76,-0.84,0.59,0.0011,-0.0011,-0.0011,9.25,-3.375,-0.25,0.5625,-83.8125,4.9375,0
52.682,-9.809,-0.34,-0.7733,-0.0043,0.0333,0.0016,53.55,30.9,7.95,0.7781,-9.0477,-4.197,-0.0213,0.0008,0.0096,-52.2,-26.7,-38.25,-9.77,-0.83,0.55,0.0,-0.0022,0.0,9.25,-3.375,-0.25,0.5625,-83.8125,4.9375,0
52.692,-9.7827,-0.3328,-0.7997,-0.0115,0.0328,-0.0029,53.55,30.9,7.95,0.7302,-9.0357,-4.1324,-0.0253,-0.0024,0.0099,-52.65,-25.35,-36.6,-9.77,-0.83,0.59,-0.0011,0.0022,0.0011,9.25,-3.375,-0.25,0.5625,-83.8125,4.9375,0
52.696,-9.7827,-0.3328,-0.7997,-0.0115,0.0328,-0.0029,53.55,28.95,6.45,0.7302,-9.0357,-4.1324,-0.028,-0.0019,0.012,-52.65,-26.1,-36.15,-9.77,-0.83,0.59,-0.0011,0.0022,0.0011,8.25,-3.375,0.0625,0.5625,-83.8125,4.9375,0
52.704,-9.7372,-0.3855,-0.7853,-0.0099,0.0346,-0.0008,53.55,28.95,6.45,0.8092,-9.0214,-4.2066,-0.028,-0.0019,0.012,-52.65,-26.1,-36.15,-9.77,-0.85,0.58,0.0011,0.0033,0.0,8.25,-3.375,0.0625,0.5625,-83.8125,4.9375,0
52.713,-9.8426,-0.3256,-0.747,-0.0075,0.0304,0.004,53.7,31.8,7.35,0.7925,-9.0094,-4.1492,-0.0293,0.0064,0.0128,-52.95,-25.5,-36.75,-9.77,-0.83,0.59,0.0,-0.0033,0.0,8.25,-3.375,0.0625,0.5625,-83.8125,4.9375,0
52.723,-9.821,-0.3974,-0.7374,-0.0093,0.0266,0.0035,52.8,30.9,6.15,0.7398,-9.019,-4.1324,-0.0306,-0.0016,0.0115,-53.85,-25.8,-36.6,-9.76,-0.84,0.55,-0.0011,-0.0011,-0.0022,8.25,-3.375,0.0625,0.5625,-83.8125,4.9375,0
52.733,-9.8043,-0.3831,-0.7446,-0.0123,0.025,0.0003,53.7,31.5,7.05,0.8164,-9.0549,-4.2066,-0.028,0.0024,0.0123,-54.45,-25.5,-36.0,-9.78,-0.8,0.59,-0.0011,0.0011,-0.0022,8.25,-3.375,0.0625,0.5625,-83.8125,4.9375,0
52.742,-9.8067,-0.3639,-0.8212,-0.0085,0.0346,0.0005,52.65,30.3,7.35,0.814,-8.9998,-4.1492,-0.0229,-0.0005,0.0165,-53.25,-25.95,-36.0,-9.75,-0.83,0.57,-0.0011,-0.0011,0.0011,8.25,-3.375,0.0625,0.5625,-83.8125,4.9375,0
52.747,-9.7612,-0.3855,-0.7326,-0.0085,0.0346,0.0005,52.65,30.3,7.35,0.814,-8.9998,-4.1492,-0.0274,0.0045,0.0155,-53.25,-25.95,-36.0,-9.75,-0.83,0.57,-0.0011,-0.0011,0.0011,9.25,-3.75,1.1875,0.5625,-83.8125,4.9375,0
52.754,-9.7612,-0.3855,-0.7326,-0.0061,0.0338,0.0032,52.65,30.3,7.35,0.8092,-8.9998,-4.142,-0.0274,0.0045,0.0155,-53.25,-25.95,-36.0,-9.76,-0.83,0.58,0.0,0.0,0.0,9.25,-3.75,1.1875,0.5625,-83.8125,4.9375,0
52.763,-9.8019,-0.3543,-0.8332,-0.0053,0.0293,0.0005,52.65,30.3,7.35,0.7398,-9.0357,-4.1922,-0.0322,-0.0029,0.0088,-53.4,-27.0,-38.1,-9.76,-0.82,0.57,-0.0011,0.0022,0.0011,9.25,-3.75,1.1875,0.5625,-83.8125,4.9375,0
52.773,-9.8043,-0.3496,-0.8068,-0.0088,0.0258,-0.0016,52.95,30.0,7.05,0.7901,-9.0668,-4.1492,-0.0261,-0.0011,0.0125,-53.4,-27.0,-38.1,-9.77,-0.82,0.54,-0.0011,-0.0011,-0.0011,9.25,-3.75,1.1875,0.5625,-83.8125,4.9375,0
52.782,-9.8641,-0.3926,-0.814,-0.0083,0.0253,0.0013,52.2,30.3,5.7,0.7925,-9.0333,-4.1587,-0.02,-0.0021,0.0117,-53.85,-25.35,-36.6,-9.76,-0.85,0.55,-0.0011,0.0033,-0.0011,9.25,-3.75,1.1875,0.5625,-83.8125,4.9375,0
52.789,-9.7827,-0.328,-0.8068,-0.0096,0.0298,0.0032,53.55,30.9,7.95,0.7829,-9.0549,-4.1899,-0.0237,0.0,0.0131,-53.85,-25.35,-36.6,-9.76,-0.85,0.55,0.0011,0.0011,0.0011,9.25,-3.75,1.1875,0.5625,-83.8125,4.9375,0
52.795,-9.8378,-0.3591,-0.7709,-0.0096,0.0298,0.0032,53.4,31.5,6.0,0.7829,-9.0549,-4.1899,-0.0282,0.0021,0.0109,-53.85,-25.35,-36.6,-9.76,-0.83,0.57,0.0011,0.0011,0.0011,9.25,-3.75,1.1875,0.5625,-83.8125,4.9375,0
52.8,-9.8378,-0.3591,-0.7709,-0.0091,0.0312,0.0024,53.4,31.5,6.0,0.7781,-9.0836,-4.118,-0.0282,0.0021,0.0109,-53.4,-26.55,-37.35,-9.75,-0.82,0.6,-0.0022,-0.0033,0.0,8.5625,-3.375,0.0625,0.5625,-83.8125,4.9375,0
52.805,-9.7995,-0.3256,-0.7446,-0.0091,0.0312,0.0024,53.4,31.5,6.0,0.7781,-9.0836,-4.118,-0.0211,0.0013,0.0112,-53.4,-26.55,-37.35,-9.75,-0.82,0.6,-0.0022,-0.0033,0.0,8.5625,-3.375,0.0625,0.5625,-83.8125,4.9375,0
52.813,-9.833,-0.3256,-0.7638,-0.0056,0.0322,0.0,53.4,31.5,6.0,0.8284,-8.9902,-4.1587,-0.0282,0.0045,0.0109,-54.6,-25.8,-36.15,-9.77,-0.82,0.57,-0.0022,-0.0011,-0.0011,8.5625,-3.375,0.0625,0.5625,-83.8125,4.9375,0
52.823,-9.8402,-0.3615,-0.7877,-0.0085,0.0322,-0.0043,53.85,30.45,6.15,0.8212,-8.9807,-4.1635,-0.028,-0.0021,0.0045,-52.65,-25.35,-36.6,-9.76,-0.84,0.56,0.0,0.0,-0.0011,8.5625,-3.375,0.0625,0.5625,-83.8125,4.9375,0
52.833,-9.7755,-0.3855,-0.8332,-0.0096,0.0288,0.0005,53.55,30.45,7.2,0.7997,-9.0333,-4.1252,-0.032,-0.0064,0.0139,-53.85,-25.05,-36.6,-9.78,-0.85,0.58,0.0,0.0,0.0011,8.5625,-3.375,0.0625,0.5625,-83.8125,4.9375,0
52.843,-9.8617,-0.3232,-0.7997,-0.0101,0.0258,0.0029,53.4,32.25,6.0,0.7614,-9.0261,-4.0893,-0.0274,0.0019,0.0115,-54.15,-26.1,-36.6,-9.77,-0.84,0.58,0.0011,0.0,-0.0022,8.5625,-3.375,0.0625,0.5625,-83.8125,4.9375,0
52.848,-9.8617,-0.3232,-0.7997,-0.0061,0.0301,0.0035,53.4,32.25,6.0,0.7805,-9.0046,-4.1899,-0.0274,0.0019,0.0115,-54.6,-26.1,-36.6,-9.77,-0.84,0.58,0.0,-0.0022,-0.0022,8.875,-4.5,0.875,0.5625,-83.8125,4.9375,0
52.854,-9.809,-0.3519,-0.7829,-0.0061,0.0301,0.0035,52.95,30.3,6.75,0.7805,-9.0046,-4.1899,-0.0264,0.0021,0.0096,-54.6,-26.1,-36.6,-9.76,-0.84,0.58,0.0,-0.0022,-0.0022,8.875,-4.5,0.875,0.5625,-83.8125,4.9375,0
52.863,-9.8162,-0.3687,-0.7159,-0.0085,0.0306,0.0021,53.55,31.2,7.65,0.7853,-8.9759,-4.1132,-0.0261,0.0003,0.0093,-54.6,-26.1,-36.6,-9.75,-0.84,0.57,-0.0011,0.0,0.0011,8.875,-4.5,0.875,0.5625,-83.8125,4.9375,0
52.873,-9.7683,-0.3496,-0.8188,-0.008,0.0354,0.0021,53.55,31.2,7.65,0.8332,-8.995,-4.1539,-0.0226,-0.0037,0.0117,-54.0,-24.75,-35.7,-9.77,-0.83,0.56,0.0,0.0011,0.0,8.875,-4.5,0.875,0.5625,-83.8125,4.9375,0
52.883,-9.7899,-0.34,-0.7733,-0.0107,0.0344,0.0,54.0,30.0,7.05,0.7901,-8.9807,-4.1276,-0.0266,0.0,0.0085,-54.0,-24.75,-35.7,-9.76,-0.82,0.58,-0.0011,0.0,-0.0011,8.875,-4.5,0.875,0.5625,-83.8125,4.9375,0
52.891,-9.9192,-0.3112,-0.8092,-0.0141,0.0341,0.0,54.0,30.0,7.05,0.7446,-9.0357,-4.2066,-0.0269,0.0008,0.0069,-53.1,-25.05,-36.6,-9.78,-0.82,0.58,-0.0022,0.0,-0.0011,8.875,-4.5,0.875,0.5625,-83.8125,4.9375,0
52.896,-9.9192,-0.3112,-0.8092,-0.0088,0.0288,-0.0008,51.75,31.2,6.9,0.8284,-8.9687,-4.1468,-0.0269,0.0008,0.0069,-53.1,-25.05,-36.6,-9.78,-0.82,0.58,-0.0022,0.0,-0.0011,8.875,-4.5,0.875,0.5625,-83.8125,4.9375,0
52.903,-9.7588,-0.3615,-0.7685,-0.0088,0.0288,-0.0008,53.4,30.75,5.7,0.8021,-9.0333,-4.1827,-0.0296,-0.0003,0.0104,-55.05,-25.8,-36.6,-9.77,-0.83,0.59,-0.0022,0.0022,0.0,9.6875,-3.375,0.0625,0.5625,-83.8125,4.9375,0
52.913,-9.7827,-0.328,-0.7949,-0.0107,0.0344,0.0011,53.55,29.7,5.4,0.7829,-9.0764,-4.1683,-0.025,0.0024,0.0096,-54.0,-25.2,-37.2,-9.74,-0.84,0.57,-0.0011,-0.0022,0.0,9.6875,-3.375,0.0625,0.5625,-83.8125,4.9375,0
52.919,-9.7827,-0.328,-0.7949,-0.0112,0.0301,0.0029,53.55,29.7,5.4,0.7829,-9.0764,-4.1683,-0.0253,0.0013,0.0149,-54.0,-25.95,-36.0,-9.74,-0.84,0.57,0.0022,0.0,-0.0011,9.6875,-3.375,0.0625,0.5625,-83.8125,4.9375,0
52.924,-9.7899,-0.407,-0.8021,-0.0085,0.0328,0.0013,53.4,31.5,6.3,0.8068,-9.0214,-4.0749,-0.0253,0.0013,0.0149,-54.0,-25.95,-36.0,-9.77,-0.81,0.56,0.0022,0.0,-0.0011,9.6875,-3.375,0.0625,0.5625,-83.8125,4.9375,0
52.934,-9.7923,-0.3543,-0.814,-0.0096,0.0272,0.0,53.4,31.5,6.3,0.7949,-8.9998,-4.1707,-0.0274,0.0016,0.0101,-54.15,-25.8,-36.6,-9.77,-0.81,0.56,0.0,0.0,0.0,9.6875,-3.375,0.0625,0.5625,-83.8125,4.9375,0
52.944,-9.8497,-0.3759,-0.7494,-0.0093,0.0378,-0.0021,54.3,30.9,6.45,0.7638,-9.0166,-4.1755,-0.0245,-0.0059,0.0107,-53.4,-25.05,-36.9,-9.76,-0.82,0.6,0.0,-0.0011,0.0,9.6875,-3.375,0.0625,0.5625,-83.8125,4.9375,0
52.948,-9.8162,-0.3998,-0.7901,-0.0093,0.0378,-0.0021,54.3,30.9,6.45,0.7638,-9.0166,-4.1755,-0.0293,0.0005,0.0128,-53.4,-25.05,-36.9,-9.76,-0.82,0.6,0.0,0.0,-0.0011,9.25,-3.75,0.375,0.5625,-83.8125,4.9375,0
52.954,-9.8162,-0.3998,-0.7901,-0.0064,0.0293,-0.0016,53.85,31.2,7.65,0.7853,-9.0094,-4.2138,-0.0293,0.0005,0.0128,-53.4,-25.05,-36.9,-9.78,-0.84,0.59,0.0,0.0,-0.0011,9.25,-3.75,0.375,0.5625,-83.8125,4.9375,0
52.964,-9.7899,-0.3065,-0.7446,-0.0075,0.0338,0.0008,53.55,30.45,6.9,0.7638,-9.0501,-4.0893,-0.0234,0.0,0.0117,-52.95,-25.2,-36.75,-9.76,-0.83,0.57,-0.0011,-0.0011,-0.0011,9.25,-3.75,0.375,0.5625,-83.8125,4.9375,0
52.974,-9.7947,-0.2586,-0.8068,-0.0091,0.0322,0.0045,52.8,28.95,6.9,0.7614,-9.019,-4.1611,-0.0234,0.0019,0.012,-52.95,-25.2,-36.75,-9.73,-0.84,0.57,0.0,0.0,-0.0022,9.25,-3.75,0.375,0.5625,-83.8125,4.9375,0
52.983,-9.8186,-0.3304,-0.7566,-0.0107,0.032,0.0029,54.0,31.05,6.0,0.826,-9.0261,-4.1372,-0.0269,0.0035,0.0075,-54.15,-25.35,-36.9,-9.77,-0.84,0.56,0.0,-0.0022,-0.0022,9.25,-3.75,0.375,0.5625,-83.8125,4.9375,0
52.992,-9.7707,-0.3735,-0.7877,-0.0136,0.0298,0.0003,54.0,31.05,6.0,0.8308,-9.0142,-4.1324,-0.0266,0.0008,0.0112,-54.15,-25.35,-36.9,-9.77,-0.85,0.6,-0.0022,-0.0022,0.0011,9.25,-3.75,0.375,0.5625,-83.8125,4.9375,0
52.997,-9.8426,-0.3879,-0.7973,-0.0136,0.0298,0.0003,54.0,31.05,6.0,0.8308,-9.0142,-4.1324,-0.0272,-0.0037,0.0101,-54.15,-25.35,-36.9,-9.77,-0.85,0.6,-0.0022,-0.0022,0.0011,8.875,-3.375,1.1875,0.5625,-83.8125,4.9375,0
53.004,-9.8426,-0.3879,-0.7973,-0.0104,0.0336,-0.0021,54.0,31.05,6.0,0.8045,-9.0501,-4.1348,-0.0253,0.0008,0.0104,-53.4,-25.8,-35.85,-9.77,-0.83,0.58,-0.0011,0.0,-0.0022,8.875,-3.375,1.1875,0.5625,-83.8125,4.9375,0
53.014,-9.8545,-0.3615,-0.7446,-0.0101,0.0301,-0.0059,52.95,29.55,7.35,0.7901,-9.0261,-4.1563,-0.0357,-0.0016,0.0107,-53.7,-26.4,-36.75,-9.75,-0.82,0.56,0.0011,0.0022,-0.0011,8.875,-3.375,1.1875,0.5625,-83.8125,4.9375,0
53.024,-9.7971,-0.3543,-0.7925,-0.0123,0.0304,0.0008,53.7,30.75,5.25,0.7422,-9.0214,-4.1707,-0.024,0.0013,0.0157,-54.15,-25.05,-37.35,-9.74,-0.81,0.57,-0.0011,0.0,-0.0011,8.875,-3.375,1.1875,0.5625,-83.8125,4.9375,0
53.033,-9.8067,-0.3735,-0.7518,-0.0096,0.0301,-0.0029,55.2,33.0,6.3,0.7302,-9.007,-4.1875,-0.0264,0.0013,0.0133,-54.0,-25.5,-36.0,-9.76,-0.84,0.55,0.0011,0.0022,-0.0011,8.875,-3.375,1.1875,0.5625,-83.8125,4.9375,0
53.043,-9.7803,-0.3879,-0.747,-0.0093,0.0253,-0.0021,53.85,30.45,6.9,0.7542,-9.0094,-4.1659,-0.0261,0.0016,0.0123,-55.35,-27.0,-38.1,-9.78,-0.83,0.57,0.0,-0.0011,-0.0011,8.875,-3.375,1.1875,0.5625,-83.8125,4.9375,0
53.048,-9.8114,-0.3639,-0.8045,-0.0093,0.0253,-0.0021,52.65,30.3,6.9,0.759,-9.0118,-4.1851,-0.0261,0.0016,0.0123,-55.35,-27.0,-38.1,-9.78,-0.83,0.57,-0.0011,-0.0022,-0.0011,9.25,-3.75,-0.25,0.5625,-83.8125,4.9375,0
53.054,-9.8114,-0.3639,-0.8045,-0.0061,0.0298,0.004,52.65,30.3,7.05,0.759,-9.0118,-4.1851,-0.0256,-0.0051,0.0109,-55.05,-25.05,-36.9,-9.79,-0.81,0.57,-0.0011,-0.0022,-0.0011,9.25,-3.75,-0.25,0.5625,-83.8125,4.9375,0
53.064,-9.7995,-0.3759,-0.7518,-0.0117,0.029,-0.0013,52.65,30.3,7.05,0.7446,-9.0142,-4.1539,-0.028,-0.0037,0.0117,-55.05,-25.05,-36.9,-9.78,-0.82,0.58,-0.0022,-0.0022,0.0,9.25,-3.75,-0.25,0.5625,-83.8125,4.9375,0
53.074,-9.8497,-0.3615,-0.7638,-0.0085,0.0333,0.0005,52.2,31.8,6.3,0.7446,-9.0118,-4.1563,-0.0234,-0.0024,0.0099,-53.7,-26.4,-36.75,-9.76,-0.83,0.57,0.0,-0.0044,0.0,9.25,-3.75,-0.25,0.5625,-83.8125,4.9375,0
53.083,-9.8019,-0.3328,-0.8045,-0.0061,0.033,-0.0003,52.8,29.4,7.95,0.8308,-9.0525,-4.0965,-0.0245,-0.0021,0.0112,-53.7,-26.4,-36.75,-9.78,-0.84,0.59,0.0011,-0.0033,-0.0011,9.25,-3.75,-0.25,0.5625,-83.8125,4.9375,0
53.092,-9.7971,-0.3663,-0.7494,-0.0077,0.0325,0.0005,54.3,31.2,6.15,0.7638,-9.0812,-4.2114,-0.0232,-0.0013,0.0173,-53.25,-25.2,-37.5,-9.77,-0.83,0.57,-0.0022,-0.0011,-0.0022,9.25,-3.75,-0.25,0.5625,-83.8125,4.9375,0
53.097,-9.845,-0.3687,-0.7853,-0.0077,0.0325,0.0005,51.45,30.75,7.35,0.7997,-9.0549,-4.1899,-0.0232,-0.0013,0.0173,-53.25,-25.2,-37.5,-9.77,-0.83,0.57,-0.0022,-0.0011,-0.0022,9.25,-3.75,-0.25,0.5625,-83.8125,4.9375,0
53.104,-9.8617,-0.3759,-0.7709,-0.0093,0.028,-0.0013,51.45,30.75,7.35,0.7997,-9.0549,-4.1899,-0.0242,-0.0008,0.0125,-52.2,-26.7,-36.45,-9.77,-0.83,0.58,0.0,0.0,0.0,9.6875,-3.375,0.0625,0.5625,-83.8125,4.9375,0
53.114,-9.8354,-0.3352,-0.8284,-0.0099,0.0306,0.0059,53.1,31.65,5.85,0.7997,-9.0142,-4.1396,-0.0258,0.0035,0.0096,-54.45,-25.2,-36.45,-9.76,-0.84,0.59,-0.0033,0.0033,0.0022,9.6875,-3.375,0.0625,0.5625,-83.8125,4.9375,0
53.123,-9.8521,-0.3304,-0.7973,-0.0117,0.0293,-0.0029,53.1,31.65,5.85,0.8499,-9.0309,-4.2018,-0.0269,-0.0035,0.0093,-52.5,-25.95,-37.2,-9.76,-0.84,0.55,0.0011,0.0033,0.0,9.6875,-3.375,0.0625,0.5625,-83.8125,4.9375,0
53.128,-9.8521,-0.3304,-0.7973,-0.0104,0.037,0.0035,53.85,30.45,7.65,0.826,-9.0597,-4.1611,-0.0269,-0.0035,0.0093,-52.5,-25.95,-37.2,-9.76,-0.84,0.55,0.0011,0.0033,0.0,9.6875,-3.375,0.0625,0.5625,-83.8125,4.9375,0
53.134,-9.8497,-0.3687,-0.7901,-0.0104,0.037,0.0035,53.85,30.45,7.65,0.759,-9.0166,-4.1731,-0.0282,-0.0024,0.0069,-54.0,-25.5,-35.7,-9.75,-0.83,0.58,0.0,0.0,0.0022,9.6875,-3.375,0.0625,0.5625,-83.8125,4.9375,0
53.144,-9.7755,-0.3448,-0.7614,-0.0091,0.0293,0.0029,54.0,29.55,6.75,0.7853,-9.0142,-4.1875,-0.0245,-0.0005,0.0136,-54.0,-25.5,-35.7,-9.73,-0.82,0.6,0.0,0.0033,-0.0011,9.6875,-3.375,0.0625,0.5625,-83.8125,4.9375,0
53.149,-9.7755,-0.3448,-0.7614,-0.0123,0.0304,-0.0027,53.55,30.45,6.15,0.7853,-9.0142,-4.1875,-0.0197,-0.0011,0.0101,-54.0,-25.5,-35.7,-9.73,-0.82,0.6,0.0,0.0022,0.0011,9.6875,-3.375,0.375,0.5625,-83.8125,4.9375,0
53.155,-9.7947,-0.407,-0.7661,-0.0123,0.0304,-0.0027,53.55,30.45,6.15,0.7781,-8.9735,-4.1827,-0.0197,-0.0011,0.0101,-54.0,-25.5,-35.7,-9.75,-0.83,0.58,0.0,0.0022,0.0011,9.6875,-3.375,0.375,0.5625,-83.8125,4.9375,0
53.164,-9.809,-0.4381,-0.7661,-0.0091,0.032,0.0048,52.35,31.95,7.2,0.7925,-9.0142,-4.1348,-0.0264,-0.004,0.0093,-52.95,-25.5,-36.0,-9.77,-0.83,0.58,-0.0011,0.0022,-0.0022,9.6875,-3.375,0.375,0.5625,-83.8125,4.9375,0
53.174,-9.809,-0.3783,-0.7709,-0.0096,0.0285,0.0059,52.05,30.15,5.85,0.7805,-8.9759,-4.1659,-0.0221,-0.0027,0.0053,-52.95,-25.5,-36.0,-9.77,-0.85,0.57,0.0,0.0,-0.0011,9.6875,-3.375,0.375,0.5625,-83.8125,4.9375,0
53.184,-9.8186,-0.3663,-0.826,-0.0064,0.0317,0.0005,52.05,30.15,5.85,0.8188,-9.0597,-4.0941,-0.0261,0.0053,0.0069,-53.4,-25.05,-36.6,-9.76,-0.82,0.58,-0.0011,0.0022,0.0011,9.6875,-3.375,0.375,0.5625,-83.8125,4.9375,0
53.193,-9.8234,-0.3615,-0.7733,-0.0077,0.0312,0.0035,52.05,30.15,5.85,0.8212,-9.0549,-4.1492,-0.0272,-0.0024,0.0088,-53.4,-25.05,-36.6,-9.76,-0.8,0.58,-0.0011,0.0065,0.0011,9.6875,-3.375,0.375,0.5625,-83.8125,4.9375,0
53.198,-9.8234,-0.3615,-0.7733,-0.0075,0.0285,0.0019,52.8,31.95,6.9,0.8212,-9.0549,-4.1492,-0.0237,-0.0029,0.0112,-53.4,-25.05,-36.6,-9.76,-0.8,0.58,-0.0011,0.0065,0.0011,9.25,-3.75,0.875,0.5625,-83.8125,4.9375,0
53.205,-9.821,-0.3519,-0.7111,-0.0109,0.0338,-0.0035,52.8,31.95,6.9,0.7901,-9.0597,-4.1444,-0.0237,-0.0029,0.0112,-53.1,-25.35,-36.6,-9.78,-0.83,0.57,-0.0022,-0.0011,0.0011,9.25,-3.75,0.875,0.5625,-83.8125,4.9375,0
53.214,-9.7899,-0.3711,-0.7733,-0.0091,0.0304,0.0043,54.6,30.45,6.45,0.7709,-9.0166,-4.1659,-0.0232,-0.0045,0.0168,-55.05,-26.55,-36.9,-9.77,-0.81,0.57,0.0011,0.0,0.0011,9.25,-3.75,0.875,0.5625,-83.8125,4.9375,0
53.224,-9.7683,-0.3352,-0.7853,-0.0051,0.0304,0.0003,54.6,30.9,6.9,0.759,-9.0022,-4.1444,-0.0218,-0.0027,0.0128,-54.0,-25.2,-37.2,-9.75,-0.83,0.59,0.0011,0.0,0.0011,9.25,-3.75,0.875,0.5625,-83.8125,4.9375,0
53.234,-9.7755,-0.3065,-0.7901,-0.0091,0.0306,-0.0003,52.65,31.8,7.05,0.7566,-9.007,-4.1396,-0.0277,0.0035,0.0149,-52.5,-26.7,-36.0,-9.76,-0.85,0.58,-0.0011,0.0,0.0011,9.25,-3.75,0.875,0.5625,-83.8125,4.9375,0
53.243,-9.754,-0.3711,-0.7805,-0.0117,0.0282,0.0061,52.8,31.2,5.85,0.747,-9.074,-4.1515,-0.0253,0.0072,0.0088,-55.05,-26.55,-36.15,-9.77,-0.84,0.57,0.0,0.0011,0.0011,9.25,-3.75,0.875,0.5625,-83.8125,4.9375,0
53.248,-9.754,-0.3711,-0.7805,-0.0117,0.0282,0.0061,52.8,31.2,5.85,0.747,-9.074,-4.1515,-0.0306,0.0021,0.0115,-55.05,-26.55,-36.15,-9.77,-0.84,0.57,0.0,0.0011,0.0011,9.25,-3.75,0.875,0.5625,-83.8125,4.9375,0
53.254,-9.8043,-0.3328,-0.7566,-0.0067,0.0325,0.0024,53.55,30.45,5.85,0.8092,-9.0644,-4.1444,-0.025,-0.0005,0.0125,-53.85,-25.05,-37.35,-9.78,-0.82,0.59,-0.0022,-0.0033,0.0,9.25,-3.375,-0.6875,0.5625,-83.8125,4.9375,0
53.264,-9.7659,-0.3855,-0.7877,-0.0109,0.0298,-0.0013,54.45,31.5,6.0,0.8356,-8.9854,-4.1396,-0.0269,0.0019,0.012,-53.85,-25.05,-37.35,-9.76,-0.83,0.57,0.0,0.0,0.0,9.25,-3.375,-0.6875,0.5625,-83.8125,4.9375,0
53.274,-9.7971,-0.3759,-0.7925,-0.0117,0.0298,0.0011,53.55,30.15,6.45,0.7566,-9.1004,-4.1827,-0.028,0.0005,0.0128,-54.0,-24.45,-35.7,-9.75,-0.83,0.56,-0.0022,0.0,0.0033,9.25,-3.375,-0.6875,0.5625,-83.8125,4.9375,0
53.284,-9.833,-0.34,-0.7829,-0.0125,0.0317,0.0013,53.7,31.05,6.75,0.7877,-9.0237,-4.1611,-0.0245,-0.0043,0.0125,-54.0,-24.45,-35.7,-9.77,-0.83,0.58,0.0,0.0011,0.0,9.25,-3.375,-0.6875,0.5625,-83.8125,4.9375,0
53.293,-9.7755,-0.3855,-0.7733,-0.0093,0.0333,0.0008,53.7,31.05,6.75,0.7925,-9.0716,-4.1659,-0.0234,-0.0003,0.0117,-52.5,-25.2,-36.45,-9.77,-0.84,0.59,-0.0011,-0.0022,0.0011,9.25,-3.375,-0.6875,0.5625,-83.8125,4.9375,0
53.298,-9.7923,-0.3735,-0.7853,-0.0093,0.0333,0.0008,53.85,30.45,7.95,0.7398,-9.0573,-4.1468,-0.0234,-0.0003,0.0117,-52.5,-25.2,-36.45,-9.77,-0.84,0.59,-0.0011,-0.0022,0.0011,9.25,-3.375,0.375,0.5625,-83.8125,4.9375,0
53.305,-9.7923,-0.3735,-0.7853,-0.0112,0.0314,0.0,53.85,30.45,7.95,0.7398,-9.0573,-4.1468,-0.0317,0.0053,0.0043,-53.4,-26.55,-36.15,-9.76,-0.84,0.6,0.0,-0.0022,0.0,9.25,-3.375,0.375,0.5625,-83.8125,4.9375,0
53.314,-9.8043,-0.3567,-0.8068,-0.0107,0.0272,0.0029,54.6,30.45,5.85,0.7685,-9.0477,-4.1707,-0.0221,0.0016,0.0115,-53.7,-25.5,-38.25,-9.77,-0.82,0.57,0.0,0.0011,0.0,9.25,-3.375,0.375,0.5625,-83.8125,4.9375,0
53.324,-9.8474,-0.3926,-0.7877,-0.0093,0.0264,-0.0013,52.95,31.5,6.0,0.7661,-8.9926,-4.1635,-0.0234,-0.0037,0.0128,-53.1,-24.15,-38.1,-9.77,-0.84,0.57,0.0,-0.0033,0.0011,9.25,-3.375,0.375,0.5625,-83.8125,4.9375,0
53.334,-9.8497,-0.3903,-0.7374,-0.0083,0.0274,-0.0024,54.3,30.15,5.85,0.8212,-9.0357,-4.1515,-0.0269,0.0051,0.0133,-54.6,-23.85,-36.6,-9.77,-0.81,0.58,-0.0011,0.0011,0.0,9.25,-3.375,0.375,0.5625,-83.8125,4.9375,0
53.343,-9.7492,-0.3304,-0.7829,-0.0131,0.0293,-0.0008,52.35,30.45,8.7,0.7973,-8.9998,-4.1563,-0.0304,-0.0051,0.012,-52.5,-26.4,-35.7,-9.76,-0.83,0.59,0.0,0.0011,0.0,9.25,-3.375,0.375,0.5625,-83.8125,4.9375,0
53.348,-9.8282,-0.3112,-0.7997,-0.0131,0.0293,-0.0008,52.35,30.45,8.7,0.7901,-9.007,-4.1037,-0.0304,-0.0051,0.012,-52.5,-26.4,-35.7,-9.76,-0.83,0.59,0.0,0.0011,0.0,9.25,-3.75,-0.25,0.5625,-83.8125,4.9375,0
53.355,-9.8258,-0.3879,-0.7973,-0.0115,0.0306,0.0,55.65,30.9,6.15,0.7709,-9.0549,-4.1252,-0.024,0.0003,0.0131,-52.5,-26.4,-35.7,-9.76,-0.81,0.59,-0.0022,0.0022,0.0022,9.25,-3.75,-0.25,0.5625,-83.8125,4.9375,0
53.364,-9.8426,-0.4022,-0.7757,-0.0101,0.0258,0.004,55.65,30.9,6.15,0.7925,-9.0237,-4.2018,-0.0226,-0.0069,0.0133,-52.95,-24.75,-37.2,-9.75,-0.82,0.57,-0.0022,0.0,0.0,9.25,-3.75,-0.25,0.5625,-83.8125,4.9375,0
