timestamp,thigh_acc_x,thigh_acc_y,thigh_acc_z,thigh_gyro_x,thigh_gyro_y,thigh_gyro_z,thigh_mag_x,thigh_mag_y,thigh_mag_z,shank_acc_x,shank_acc_y,shank_acc_z,shank_gyro_x,shank_gyro_y,shank_gyro_z,shank_mag_x,shank_mag_y,shank_mag_z,foot_acc_x,foot_acc_y,foot_acc_z,foot_gyro_x,foot_gyro_y,foot_gyro_z,foot_mag_x,foot_mag_y,foot_mag_z,foot_euler_x,foot_euler_y,foot_euler_z,perturbation_event
1776972401.831,13.5057,1.3336,1.7262,-0.2699,-0.2638,-2.2833,-76.5000,12.3000,-34.2000,1.5634,-10.0221,-6.0023,0.7469,-2.7038,-0.1519,35.7000,25.9500,-172.9500,1.3300,4.3100,-14.0600,0.8672,3.5114,2.5962,-1.0000,2.5625,25.6875,39.2500,87.0000,178.9375,0
1776972401.836,13.5057,1.3336,1.7262,-0.2699,-0.2638,-2.2833,-76.5000,12.3000,-34.2000,1.5634,-10.0221,-6.0023,0.7469,-2.7038,-0.1519,34.5000,13.8000,-168.4500,1.3300,4.3100,-14.0600,0.8672,3.5114,2.5962,-1.0000,2.5625,25.6875,36.8125,87.0625,177.3125,0
1776972401.841,12.0261,5.0709,2.7892,-0.0533,-0.0930,-2.1839,-76.2000,12.9000,-34.3500,-1.3048,-11.5353,-6.6104,0.8663,-2.6071,-0.5124,34.5000,13.8000,-168.4500,20.8600,-1.1400,-18.8000,1.5086,2.8874,2.9049,-12.7500,2.1875,23.6875,36.8125,87.0625,177.3125,0
1776972401.846,12.0261,5.0709,2.7892,-0.0533,-0.0930,-2.1839,-76.2000,12.9000,-34.3500,-1.3048,-11.5353,-6.6104,0.8663,-2.6071,-0.5124,31.3500,0.9000,-161.5500,20.8600,-1.1400,-18.8000,1.5086,2.8874,2.9049,-12.7500,2.1875,23.6875,34.8750,86.0000,176.0000,0
1776972401.851,10.8194,4.3383,2.9808,0.1620,-0.1380,-2.2615,-76.2000,12.9000,-34.3500,-1.3886,-11.0995,-6.7253,0.8812,-1.7984,-0.8953,31.3500,0.9000,-161.5500,15.5500,5.5600,-25.9700,1.3090,1.0450,2.2471,-12.7500,2.1875,23.6875,34.8750,86.0000,176.0000,0
1776972401.858,10.5824,4.8626,2.3224,0.4780,-0.0181,-2.3108,-76.0500,15.7500,-34.3500,0.1125,-7.5609,-5.7365,0.5899,-1.5561,-1.1570,25.5000,-10.2000,-151.2000,7.7700,6.0800,-19.2900,0.7865,-1.4781,1.6002,-12.7500,2.1875,23.6875,33.5000,84.9375,175.1250,0
1776972401.863,10.5824,4.8626,2.3224,0.4780,-0.0181,-2.3108,-76.0500,15.7500,-35.2500,0.1125,-7.5609,-5.7365,0.5899,-1.5561,-1.1570,25.5000,-10.2000,-151.2000,7.7700,6.0800,-19.2900,0.7865,-1.4781,1.6002,-12.7500,2.1875,23.6875,32.1250,83.8125,174.3750,0
1776972401.871,11.2408,5.2194,1.7023,1.0072,0.2348,-2.2503,-76.0500,15.7500,-35.2500,0.1030,-4.6663,-2.8587,0.9017,-1.2558,-1.1876,21.3000,-20.5500,-142.8000,-1.0100,7.6800,-9.1900,0.8236,-2.4598,1.3352,-12.7500,2.1875,23.6875,30.5625,82.5000,122.6875,0
1776972401.881,10.2639,3.8451,1.1444,1.7413,0.4261,-2.1671,-74.1000,15.4500,-36.4500,-2.5115,-2.8395,-3.2250,1.4831,-1.3211,-1.3792,21.3000,-20.5500,-142.8000,-0.9400,7.7400,-7.3300,1.3035,-2.7151,1.2065,-12.7500,2.1875,23.6875,30.5625,82.5000,122.6875,0
1776972401.886,10.4028,2.0207,2.3774,1.7413,0.4261,-2.1671,-74.1000,15.4500,-36.4500,-0.9098,-0.5411,-2.6863,1.9025,-0.3320,-1.8317,18.7500,-38.2500,-128.8500,-0.9400,7.7400,-7.3300,1.3035,-2.7151,1.2065,-12.7500,2.1875,23.6875,28.6250,81.1250,128.0000,0
1776972401.891,10.4028,2.0207,2.3774,1.9918,0.3659,-2.1181,-73.8000,14.5500,-38.2500,-0.9098,-0.5411,-2.6863,1.9025,-0.3320,-1.8317,18.7500,-38.2500,-128.8500,-0.4800,7.7100,-6.7400,1.9144,-2.7696,1.0461,-22.6875,4.0000,19.8750,28.6250,81.1250,128.0000,0
1776972401.896,10.6734,1.5802,2.7821,1.9918,0.3659,-2.1181,-73.8000,14.5500,-38.2500,-0.1844,-1.3551,-3.9456,1.7850,-0.0245,-2.2892,16.5000,-41.4000,-124.8000,-0.4800,7.7100,-6.7400,1.9144,-2.7696,1.0461,-22.6875,4.0000,19.8750,26.5625,79.7500,132.4375,0
1776972401.901,10.6734,1.5802,2.7821,2.0669,0.5401,-2.0243,-75.3000,15.7500,-38.2500,-0.1844,-1.3551,-3.9456,1.7850,-0.0245,-2.2892,16.5000,-41.4000,-124.8000,0.0600,8.0000,-6.7700,2.3464,-2.8787,0.6981,-22.6875,4.0000,19.8750,26.5625,79.7500,132.4375,0
1776972401.909,10.2424,1.1061,3.0861,1.9737,0.6267,-1.9761,-75.4500,13.9500,-38.2500,0.9170,-3.0478,-4.9273,1.8213,0.2462,-2.8072,19.0500,-45.4500,-125.1000,0.2600,8.1200,-6.0500,2.5689,-3.0292,0.2029,-22.6875,4.0000,19.8750,24.5625,78.5000,136.8750,0
1776972401.914,10.2424,1.1061,3.0861,1.9737,0.6267,-1.9761,-75.4500,13.9500,-36.9000,0.9170,-3.0478,-4.9273,1.8213,0.2462,-2.8072,18.1500,-45.3000,-125.4000,0.2600,8.1200,-6.0500,2.5689,-3.0292,0.2029,-22.6875,4.0000,19.8750,22.8125,77.3750,141.3125,0
1776972401.921,10.4890,1.5083,2.7749,1.8802,0.8055,-1.8836,-74.8500,15.0000,-37.5000,1.8579,-5.6144,-4.7956,1.9076,0.7067,-3.4107,18.1500,-45.3000,-125.4000,1.0800,8.5000,-6.2800,2.6682,-3.0554,-0.3752,-22.6875,4.0000,19.8750,21.2500,76.3125,146.0625,0
1776972401.931,10.5441,2.4541,2.1452,1.8101,0.8934,-1.7672,-73.3500,13.5000,-37.9500,2.6935,-6.3255,-5.7652,1.7685,0.8807,-3.8661,17.7000,-41.5500,-125.7000,2.1200,9.0200,-6.4000,2.7729,-3.0598,-1.0276,-22.6875,4.0000,19.8750,21.2500,76.3125,146.0625,0
1776972401.936,10.2783,2.7461,1.8340,1.8418,0.9827,-1.6723,-73.3500,13.5000,-37.9500,2.7557,-6.6248,-6.6032,2.0307,0.9241,-4.0484,17.7000,-41.5500,-125.7000,2.1200,9.0200,-6.4000,2.7729,-3.0598,-1.0276,-22.6875,4.0000,19.8750,21.2500,76.3125,146.0625,0
1776972401.941,10.2783,2.7461,1.8340,1.8418,0.9827,-1.6723,-73.3500,13.5000,-37.9500,2.7557,-6.6248,-6.6032,2.0307,0.9241,-4.0484,17.7000,-41.5500,-125.7000,5.2100,9.4500,-8.0300,2.8492,-2.9965,-1.6973,-25.5625,8.0000,21.3750,20.0000,75.3750,151.1250,0
1776972401.946,9.9838,2.6312,1.7957,1.9577,1.0888,-1.5780,-73.3500,13.5000,-37.9500,2.3248,-6.4045,-6.8809,2.5354,0.9337,-4.2701,14.4000,-33.0000,-123.9000,5.2100,9.4500,-8.0300,2.8492,-2.9965,-1.6973,-25.5625,8.0000,21.3750,20.0000,75.3750,151.1250,0
1776972401.951,9.9838,2.6312,1.7957,1.9577,1.0888,-1.5780,-73.0500,14.5500,-36.4500,2.3248,-6.4045,-6.8809,2.5354,0.9337,-4.2701,14.4000,-33.0000,-123.9000,6.1700,9.2300,-8.2100,3.0391,-3.2910,-2.3376,-25.5625,8.0000,21.3750,18.8750,74.3125,156.7500,0
1776972401.956,9.3398,2.5019,1.5778,2.1738,1.1804,-1.4762,-73.0500,14.5500,-36.4500,2.1069,-3.9433,-7.4436,3.5733,1.0688,-4.5232,13.9500,-29.4000,-124.0500,6.1700,9.2300,-8.2100,3.2725,-3.8059,-2.8449,-25.5625,8.0000,21.3750,17.8125,72.8750,162.5000,0
1776972401.962,9.3398,2.5019,1.5778,2.1738,1.1804,-1.4762,-73.0500,14.5500,-36.4500,2.1069,-3.9433,-7.4436,3.5733,1.0688,-4.5232,13.9500,-29.4000,-124.0500,5.9300,8.4600,-7.3000,3.2725,-3.8059,-2.8449,-25.5625,8.0000,21.3750,16.8125,71.1875,167.6250,0
1776972401.971,9.2943,2.6288,1.6017,2.3851,1.1708,-1.3832,-73.0500,13.0500,-36.4500,1.6951,-0.6632,-7.5202,5.0657,1.4109,-4.8808,12.3000,-24.3000,-122.8500,5.7900,6.1100,-5.4900,3.3848,-4.0612,-3.1383,-25.5625,8.0000,21.3750,16.8125,71.1875,167.6250,0
1776972401.981,9.4667,1.8555,0.8619,2.8565,1.1815,-1.2955,-73.8000,13.5000,-36.0000,2.5762,2.4541,-4.9728,5.5611,1.8879,-5.0561,10.3500,-20.7000,-123.0000,6.7200,5.2000,-5.0600,3.3249,-4.1310,-3.2736,-25.5625,8.0000,21.3750,15.8125,69.2500,171.8750,0
1776972401.986,8.7795,1.7047,0.9481,3.1890,1.1962,-1.2191,-73.8000,13.5000,-36.0000,5.0733,2.5331,-1.7669,4.8307,1.5404,-5.0210,8.2500,-16.0500,-121.3500,6.7200,5.2000,-5.0600,3.3249,-4.1310,-3.2736,-25.5625,8.0000,21.3750,14.9375,67.1875,175.3750,0
1776972401.991,8.7795,1.7047,0.9481,3.1890,1.1962,-1.2191,-73.3500,13.5000,-34.5000,5.0733,2.5331,-1.7669,4.8307,1.5404,-5.0210,8.2500,-16.0500,-121.3500,7.8700,4.9000,-4.6800,3.1078,-4.1190,-3.3379,-25.5000,10.0625,24.6875,14.9375,67.1875,175.3750,0
1776972401.996,8.5281,1.4988,1.2402,3.3849,1.1802,-1.1117,-73.3500,13.5000,-34.5000,6.3039,0.0000,0.6895,3.3425,0.9276,-4.9000,8.2500,-16.0500,-121.3500,7.8700,4.9000,-4.6800,3.1078,-4.1190,-3.3379,-25.5000,10.0625,24.6875,14.3750,65.0000,178.3750,0
1776972402.001,8.1906,1.1205,1.3671,3.3849,1.1802,-1.1117,-73.9500,13.9500,-36.6000,6.3039,0.0000,0.6895,3.3425,0.9276,-4.9000,8.2500,-16.0500,-121.3500,8.8100,5.2500,-4.3700,2.8525,-4.0644,-3.4198,-25.5000,10.0625,24.6875,14.3750,65.0000,178.3750,0
1776972402.009,8.1906,1.1205,1.3671,3.4843,1.1213,-1.0464,-73.9500,13.9500,-36.6000,7.2257,-4.3191,1.8914,1.9582,0.4594,-4.7873,8.2500,-15.7500,-124.2000,9.4500,6.7800,-3.5300,2.7380,-4.0775,-3.5528,-25.5000,10.0625,24.6875,13.8750,62.7500,-179.0625,0
1776972402.013,8.0182,0.5555,1.5850,3.3665,1.1157,-0.9473,-72.9000,14.8500,-37.3500,7.8219,-8.2744,0.1676,1.5167,0.0807,-4.6242,10.5000,-18.0000,-125.4000,9.4500,6.7800,-3.5300,2.7380,-4.0775,-3.5528,-25.5000,10.0625,24.6875,13.4375,60.4375,-176.9375,0
1776972402.021,8.0948,0.0982,1.0606,3.1989,1.0906,-0.8188,-74.1000,11.8500,-36.0000,7.7165,-9.8354,-3.4237,2.4360,0.0250,-4.6143,10.5000,-18.0000,-125.4000,9.0000,7.3900,-3.3900,2.7893,-4.0186,-3.7132,-25.5000,10.0625,24.6875,12.8750,58.2500,-175.1250,0
1776972402.031,8.3965,0.1149,0.4860,2.9401,1.0214,-0.6976,-74.1000,11.8500,-36.0000,8.1618,-8.0062,-6.2968,3.7931,0.4482,-4.7230,12.3000,-22.8000,-126.4500,9.1700,7.7200,-3.9000,2.9060,-3.6859,-3.8670,-25.5000,10.0625,24.6875,12.8750,58.2500,-175.1250,0
1776972402.036,8.3965,0.1149,0.4860,2.9401,1.0214,-0.6976,-74.1000,11.8500,-36.0000,8.1618,-8.0062,-6.2968,3.7931,0.4482,-4.7230,13.3500,-24.0000,-125.7000,9.1700,7.7200,-3.9000,2.9060,-3.6859,-3.8670,-25.5000,10.0625,24.6875,12.2500,56.1875,-173.6875,0
1776972402.041,8.5162,-0.1149,0.1963,2.6337,0.9739,-0.5905,-75.1500,12.0000,-35.8500,8.8442,-6.0645,-6.2728,4.0398,0.8247,-4.8296,14.8500,-22.8000,-125.4000,12.0100,8.3600,-6.0800,3.0227,-3.3674,-4.0066,-18.7500,13.6875,24.0625,12.2500,56.1875,-173.6875,0
1776972402.046,8.5162,-0.1149,0.1963,2.6337,0.9739,-0.5905,-75.1500,12.0000,-35.8500,8.8442,-6.0645,-6.2728,4.0398,0.8247,-4.8296,14.8500,-22.8000,-125.4000,12.0100,8.3600,-6.0800,3.0227,-3.3674,-4.0066,-18.7500,13.6875,24.0625,11.5625,54.1250,-172.4375,0
1776972402.051,8.5425,-0.3998,-0.1939,2.2825,0.9851,-0.4644,-75.1500,12.0000,-35.8500,9.6414,-4.6112,-4.7238,3.4773,0.7981,-4.8936,14.8500,-22.8000,-125.4000,13.0200,8.9400,-6.0200,3.1252,-3.2649,-4.1037,-18.7500,13.6875,24.0625,11.5625,54.1250,-172.4375,0
1776972402.056,8.5425,-0.3998,-0.1939,2.2825,0.9851,-0.4644,-75.1500,12.0000,-35.8500,9.6414,-4.6112,-4.7238,3.4773,0.7981,-4.8936,14.8500,-22.8000,-125.4000,13.0200,8.9400,-6.0200,3.2289,-3.1656,-4.1113,-18.7500,13.6875,24.0625,10.6875,52.0625,-171.5625,0
1776972402.062,8.4707,-0.3998,-0.4022,1.9260,1.0480,-0.2819,-75.4500,11.2500,-35.8500,9.4691,-3.4453,-3.2681,2.6740,0.7663,-4.9288,15.9000,-20.5500,-123.1500,13.9000,9.9100,-6.0400,3.2289,-3.1656,-4.1113,-18.7500,13.6875,24.0625,9.3750,50.0000,-171.0625,0
1776972402.071,8.5569,0.1820,-1.1947,1.7893,1.0786,-0.0855,-75.1500,11.7000,-35.8500,9.2967,-3.4117,-3.1987,2.2148,1.0456,-4.9759,15.3000,-22.6500,-125.1000,16.0600,11.5900,-6.6400,3.4852,-3.1241,-4.0579,-18.7500,13.6875,24.0625,9.3750,50.0000,-171.0625,0
1776972402.081,8.3318,1.2474,-2.1835,1.8442,0.9934,0.0754,-75.3000,10.3500,-36.4500,8.7915,-3.1364,-3.9121,2.3390,1.2113,-5.0631,15.1500,-22.0500,-124.6500,16.7900,12.1700,-6.6700,3.8343,-3.1940,-4.0055,-18.7500,13.6875,24.0625,7.5625,47.9375,-171.0000,0
1776972402.086,8.3318,1.2474,-2.1835,1.8442,0.9934,0.0754,-75.3000,10.3500,-36.4500,8.7915,-3.1364,-3.9121,2.3390,1.2113,-5.0631,15.1500,-22.0500,-124.6500,16.7900,12.1700,-6.6700,3.8343,-3.1940,-4.0055,-18.7500,13.6875,24.0625,7.5625,47.9375,-171.0000,0
1776972402.091,8.0062,2.6647,-3.0047,2.0435,0.9377,0.1705,-75.3000,9.9000,-35.7000,8.5808,-2.6240,-4.5298,2.8088,1.3510,-5.1193,14.2500,-20.7000,-124.8000,16.8500,12.2800,-6.1700,4.1681,-3.3772,-4.0132,-23.2500,23.2500,12.3750,5.1875,45.7500,-171.2500,0
1776972402.096,8.0062,2.6647,-3.0047,2.0435,0.9377,0.1705,-75.3000,9.9000,-35.7000,8.5808,-2.6240,-4.5298,2.8088,1.3510,-5.1193,14.2500,-20.7000,-124.8000,16.8500,12.2800,-6.1700,4.1681,-3.3772,-4.0132,-23.2500,23.2500,12.3750,5.1875,45.7500,-171.2500,0
1776972402.101,7.8434,3.6081,-2.9544,2.2247,0.9526,0.2721,-75.4500,9.0000,-36.1500,8.8155,-2.5163,-4.2784,3.2479,1.3472,-5.0175,14.2500,-20.7000,-124.8000,16.3900,12.2900,-5.1300,4.4691,-3.6183,-4.1222,-23.2500,23.2500,12.3750,345.2500,43.4375,-171.8125,0
1776972402.108,7.9440,4.1683,-2.5331,2.2969,1.0693,0.4032,-75.4500,9.0000,-36.1500,8.8155,-2.5163,-4.2784,3.2479,1.3472,-5.0175,14.2500,-20.7000,-124.8000,14.8000,12.6600,-1.9600,4.6437,-3.7132,-4.2848,-23.2500,23.2500,12.3750,342.0000,41.0625,-172.5000,0
1776972402.112,7.9440,4.1683,-2.5331,2.2969,1.0693,0.4032,-77.2500,8.7000,-33.0000,9.1602,-2.1141,-4.8435,3.5762,1.2468,-4.8470,14.2500,-20.7000,-124.8000,14.8000,12.6600,-1.9600,4.6437,-3.7132,-4.2848,-23.2500,23.2500,12.3750,338.6875,38.7500,-173.2500,0
1776972402.121,8.8155,5.0015,-1.8794,2.3867,1.0256,0.5465,-77.2500,8.7000,-33.0000,9.5648,-1.7741,-5.3989,3.8906,1.1282,-4.6599,8.4000,-21.4500,-125.1000,13.5100,12.7500,-0.2900,4.7178,-3.5867,-4.4626,-23.2500,23.2500,12.3750,335.2500,36.6875,-173.9375,0
1776972402.131,8.9471,4.8507,-1.8100,2.6308,0.9292,0.6760,-77.2500,5.5500,-34.5000,9.9503,-2.0686,-4.9967,4.0382,0.9867,-4.4600,8.7000,-21.3000,-125.4000,13.5700,12.7800,0.5000,4.5935,-3.2529,-4.7647,-23.2500,23.2500,12.3750,335.2500,36.6875,-173.9375,0
1776972402.136,8.8921,4.5873,-2.0901,2.9058,0.8130,0.7725,-77.2500,5.5500,-34.5000,9.9503,-2.0686,-4.9967,4.0382,0.9867,-4.4600,8.7000,-21.3000,-125.4000,13.5700,12.7800,0.5000,4.5935,-3.2529,-4.7647,-23.2500,23.2500,12.3750,331.6250,34.8125,-174.3125,0
1776972402.141,8.8921,4.5873,-2.0901,2.9058,0.8130,0.7725,-77.2500,5.5500,-34.5000,10.3884,-2.6576,-4.5873,4.0041,0.9278,-4.2357,10.3500,-23.4000,-126.1500,14.9800,13.2200,1.2900,4.2433,-2.8503,-5.2360,-52.1875,27.0000,17.8750,331.6250,34.8125,-174.3125,0
1776972402.146,8.6335,4.0007,-2.2936,3.1248,0.5934,0.7994,-77.2500,5.5500,-34.5000,10.3884,-2.6576,-4.5873,4.0041,0.9278,-4.2357,10.3500,-23.4000,-126.1500,14.9800,13.2200,1.2900,4.2433,-2.8503,-5.2360,-52.1875,27.0000,17.8750,327.8750,33.1250,-174.3750,0
1776972402.151,8.6335,4.0007,-2.2936,3.1248,0.5934,0.7994,-77.2500,4.5000,-35.2500,10.5105,-2.8563,-4.0175,4.1046,0.9705,-3.9921,8.7000,-26.5500,-124.6500,15.0500,13.2200,1.9400,3.8365,-2.4805,-5.7792,-52.1875,27.0000,17.8750,327.8750,33.1250,-174.3750,0
1776972402.156,8.4563,4.1037,-2.4972,3.2919,0.4847,0.8348,-77.2500,4.5000,-35.2500,10.5105,-2.8563,-4.0175,4.1046,0.9705,-3.9921,8.7000,-26.5500,-124.6500,15.0500,13.2200,1.9400,3.4634,-2.0213,-6.1948,-52.1875,27.0000,17.8750,323.9375,31.6875,-174.1875,0
1776972402.162,8.4563,4.1037,-2.4972,3.2919,0.4847,0.8348,-78.4500,3.9000,-34.3500,10.9391,-3.1939,-3.1819,4.2269,1.1103,-3.6990,8.7000,-26.5500,-124.6500,15.2700,12.6500,2.4700,3.4634,-2.0213,-6.1948,-52.1875,27.0000,17.8750,319.9375,30.5000,-173.8125,0
1776972402.171,8.3629,4.5274,-2.5642,3.4256,0.4287,0.8745,-77.5500,2.1000,-33.7500,11.8178,-4.1324,-1.8531,4.1952,1.1786,-3.2985,6.9000,-25.8000,-126.7500,16.0600,10.0000,2.7600,3.0925,-1.5130,-6.4130,-52.1875,27.0000,17.8750,315.9375,29.5000,-173.2500,0
1776972402.181,8.5042,4.8100,-2.3056,3.4707,0.3858,0.8966,-79.5000,1.6500,-34.9500,12.3086,-5.0757,0.0239,4.0262,1.0845,-2.8096,5.8500,-28.2000,-125.1000,17.0100,8.5600,2.4500,2.6114,-1.0232,-6.5079,-52.1875,27.0000,17.8750,315.9375,29.5000,-173.2500,0
1776972402.186,8.3342,4.9129,-2.0830,3.3350,0.3483,0.8737,-79.5000,1.6500,-34.9500,12.0261,-6.4284,0.7781,3.5892,0.8911,-2.2489,5.8500,-28.2000,-125.1000,17.0100,8.5600,2.4500,2.6114,-1.0232,-6.5079,-52.1875,27.0000,17.8750,312.0625,28.7500,-172.4375,0
1776972402.191,8.3342,4.9129,-2.0830,3.3350,0.3483,0.8737,-79.3500,2.2500,-33.6000,12.0261,-6.4284,0.7781,3.5892,0.8911,-2.2489,6.1500,-30.0000,-125.4000,17.4100,7.7300,2.5500,2.0998,-0.6032,-6.4468,-53.0000,22.6875,34.6875,312.0625,28.7500,-172.4375,0
1776972402.196,7.8913,4.9368,-1.4988,2.9873,0.4016,0.8394,-79.3500,2.2500,-33.6000,11.3365,-7.7309,1.0894,2.9593,0.6107,-1.6198,6.1500,-30.0000,-125.4000,17.4100,7.7300,2.5500,2.0998,-0.6032,-6.4468,-53.0000,22.6875,34.6875,312.0625,28.7500,-172.4375,0
1776972402.201,7.8913,4.9368,-1.4988,2.9873,0.4016,0.8394,-78.7500,2.2500,-33.6000,11.3365,-7.7309,1.0894,2.9593,0.6107,-1.6198,7.2000,-32.2500,-126.0000,16.6800,7.1500,3.0100,1.6744,-0.2585,-6.1959,-53.0000,22.6875,34.6875,308.4375,28.1250,-171.5625,0
1776972402.210,7.8937,4.8722,-0.8811,2.5932,0.5108,0.7981,-78.7500,-0.1500,-33.0000,10.7164,-8.4898,1.1253,2.5341,0.4016,-1.0595,7.5000,-34.5000,-123.9000,15.7100,5.0000,4.1900,1.4159,0.0524,-5.7040,-53.0000,22.6875,34.6875,305.0625,27.6250,-170.6875,0
1776972402.215,7.5800,4.7357,-0.4022,2.1581,0.6456,0.7226,-78.7500,-0.1500,-33.0000,9.8928,-8.6766,0.8428,2.2484,0.3091,-0.6014,7.5000,-34.5000,-123.9000,15.7100,5.0000,4.1900,1.4159,0.0524,-5.7040,-53.0000,22.6875,34.6875,302.0625,27.3750,-169.9375,0
1776972402.222,7.1132,4.5753,-0.0311,2.1581,0.6456,0.7226,-78.0000,-2.4000,-31.9500,9.8928,-8.6766,0.8428,2.2484,0.3091,-0.6014,7.5000,-34.5000,-123.9000,15.1700,4.3100,4.1600,1.2926,0.3600,-5.0582,-53.0000,22.6875,34.6875,299.4375,27.3125,-169.2500,0
1776972402.232,6.8857,4.0606,-0.1149,1.6577,0.8474,0.6435,-78.0000,-2.4000,-31.9500,9.1267,-8.4228,-0.1628,1.9452,0.2840,-0.2531,10.8000,-37.5000,-123.6000,15.2900,3.5300,4.1800,1.1541,0.7090,-4.4440,-53.0000,22.6875,34.6875,299.4375,27.3125,-169.2500,0
1776972402.237,6.8857,4.0606,-0.1149,1.2577,1.0150,0.5391,-78.0000,-2.4000,-31.9500,8.7101,-7.9152,-1.2234,1.5767,0.3480,0.0179,10.8000,-37.5000,-123.6000,15.2900,3.5300,4.1800,1.1541,0.7090,-4.4440,-53.0000,22.6875,34.6875,299.4375,27.3125,-169.2500,0
1776972402.242,6.6032,2.6815,0.5267,1.2577,1.0150,0.5391,-78.4500,-2.7000,-31.9500,8.7101,-7.9152,-1.2234,1.5767,0.3480,0.0179,12.1500,-37.6500,-123.0000,14.2700,2.8400,3.6500,0.9163,0.9490,-3.7721,-53.7500,15.2500,40.0000,297.1250,27.4375,-168.6875,0
1776972402.246,6.6032,2.6815,0.5267,1.1370,1.1151,0.4658,-78.4500,-2.7000,-32.5500,7.7907,-6.9145,-1.7262,1.2215,0.3688,0.3464,12.1500,-37.6500,-123.0000,14.2700,2.8400,3.6500,0.9163,0.9490,-3.7721,-53.7500,15.2500,40.0000,297.1250,27.4375,-168.6875,0
1776972402.251,6.3039,1.1205,0.8978,1.2412,1.1250,0.4466,-78.4500,-2.7000,-32.5500,7.7907,-6.9145,-1.7262,1.2215,0.3688,0.3464,12.7500,-36.1500,-121.6500,13.6500,2.8200,2.5800,0.6589,1.0788,-3.0369,-53.7500,15.2500,40.0000,295.3125,27.6875,-168.1250,0
1776972402.256,6.3039,1.1205,0.8978,1.2412,1.1250,0.4466,-77.7000,-3.0000,-29.8500,7.1994,-6.7708,-2.0542,0.9662,0.4008,0.5841,12.7500,-36.1500,-121.6500,13.6500,2.8200,2.5800,0.4014,1.1399,-2.3671,-53.7500,15.2500,40.0000,293.8750,28.0625,-167.5625,0
1776972402.262,6.0501,-0.2179,-0.1269,1.3280,1.1618,0.4983,-78.4500,-5.4000,-30.3000,7.1994,-6.7708,-2.0542,0.9662,0.4008,0.5841,13.8000,-36.7500,-122.5500,13.1000,2.9300,1.2600,0.4014,1.1399,-2.3671,-53.7500,15.2500,40.0000,292.7500,28.4375,-167.0625,0
1776972402.272,6.0118,-2.4134,-1.5874,1.2782,1.2263,0.6227,-78.4500,-5.4000,-30.3000,6.8929,-6.3997,-2.6456,0.7711,0.3840,0.7647,11.8500,-36.3000,-121.3500,4.3500,8.0000,-8.8800,0.1658,1.1639,-1.8282,-53.7500,15.2500,40.0000,292.7500,28.4375,-167.0625,0
1776972402.282,7.4603,-3.2753,-3.0598,1.1695,1.2529,0.8204,-80.2500,-4.5000,-28.6500,6.9312,-5.2672,-2.5546,0.7890,0.4085,0.8500,11.8500,-36.3000,-121.3500,9.0300,4.9900,0.6500,1.3974,1.4246,-2.1140,-53.7500,15.2500,40.0000,291.3125,28.9375,-167.1250,0
1776972402.287,7.4603,-3.2753,-3.0598,1.1695,1.2529,0.8204,-80.2500,-6.7500,-28.9500,10.9008,-3.4381,-2.2505,1.1314,0.4586,0.7623,11.8500,-36.3000,-121.3500,9.0300,4.9900,0.6500,1.3974,1.4246,-2.1140,-53.7500,15.2500,40.0000,290.5625,30.5000,-167.5625,0
1776972402.292,11.2192,-0.9744,-2.4038,0.4754,1.1764,1.1008,-80.2500,-6.7500,-28.9500,18.1672,0.6895,-4.9057,1.6840,0.8940,0.5039,11.4000,-37.2000,-120.9000,22.8100,8.0300,-15.9600,1.5730,3.0380,-0.6447,-57.1875,6.5625,43.6875,290.5625,30.5000,-167.5625,0
1776972402.296,11.2192,-0.9744,-2.4038,0.4754,1.1764,1.1008,-79.5000,-6.7500,-28.9500,18.1672,0.6895,-4.9057,1.6840,0.8940,0.5039,11.4000,-37.2000,-120.9000,22.8100,8.0300,-15.9600,1.5730,3.0380,-0.6447,-57.1875,6.5625,43.6875,290.8125,31.8125,-169.5625,0
1776972402.302,18.9381,4.8147,-3.4884,-0.5049,1.0235,1.3291,-79.5000,-6.7500,-28.9500,27.5597,4.4915,-10.1275,1.9987,1.2343,0.3312,10.9500,-38.4000,-121.6500,25.3100,-29.0300,-10.8800,2.9463,2.1424,1.4344,-57.1875,6.5625,43.6875,290.8125,31.8125,-169.5625,0
1776972402.309,29.8030,8.3270,-4.5825,-1.4168,0.4724,1.1780,-79.5000,-6.7500,-28.9500,27.5597,4.4915,-10.1275,1.9987,1.2343,0.3312,7.8000,-39.4500,-121.6500,11.3300,-0.1000,-17.6500,1.6352,-0.5694,0.5792,-57.1875,6.5625,43.6875,290.8750,31.5625,-170.6875,0
1776972402.314,29.8030,8.3270,-4.5825,-1.4168,0.4724,1.1780,-79.5000,-7.5000,-27.9000,24.4927,7.6423,-18.8448,0.0999,0.3403,0.8460,7.8000,-39.4500,-121.6500,11.3300,-0.1000,-17.6500,1.6352,-0.5694,0.5792,-57.1875,6.5625,43.6875,290.9375,31.7500,-170.9375,0
1776972402.322,19.1177,5.5378,-5.3271,-1.2398,0.0719,0.5121,-79.5000,-7.5000,-27.9000,12.4331,6.6104,-16.3716,-0.9390,-0.2481,0.6558,7.9500,-41.5500,-121.0500,5.8200,9.8700,-10.7300,0.3698,0.2291,0.2465,-57.1875,6.5625,43.6875,291.2500,32.3125,-171.2500,0
1776972402.332,10.3286,2.9592,-0.3136,-0.1823,0.6931,-0.0341,-79.5000,-7.5000,-27.9000,5.5258,3.3615,-3.9409,-0.1879,0.4269,0.3365,4.0500,-41.7000,-123.0000,-1.4500,19.1900,0.1400,0.2345,0.9937,0.7112,-57.1875,6.5625,43.6875,291.2500,32.3125,-171.2500,0
1776972402.337,8.5856,1.0726,2.2362,-0.1823,0.6931,-0.0341,-80.4000,-7.8000,-26.2500,5.5258,3.3615,-3.9409,-0.1879,0.4269,0.3365,4.0500,-41.7000,-123.0000,-1.4500,19.1900,0.1400,0.2345,0.9937,0.7112,-57.1875,6.5625,43.6875,291.2500,32.3125,-171.2500,0
1776972402.342,8.5856,1.0726,2.2362,0.9499,0.9795,-0.0392,-80.4000,-7.8000,-26.2500,3.8307,1.2617,0.0646,0.9587,0.6251,0.0578,4.0500,-41.7000,-123.0000,9.9600,-8.5200,-12.0900,0.1200,0.4560,0.3109,-61.6875,8.2500,45.0625,291.3750,32.6250,-171.4375,0
1776972402.347,6.7876,1.4820,1.9872,0.9499,0.9795,-0.0392,-80.4000,-7.8000,-25.5000,3.8307,1.2617,0.0646,0.9587,0.6251,0.0578,-4.9500,-28.5000,-125.4000,9.9600,-8.5200,-12.0900,0.1200,0.4560,0.3109,-61.6875,8.2500,45.0625,291.3750,32.6250,-171.4375,0
1776972402.352,6.7876,1.4820,1.9872,1.4741,0.9603,0.2494,-80.4000,-7.8000,-25.5000,4.9464,-1.6688,-0.0024,0.4527,0.6073,0.5526,-4.9500,-28.5000,-125.4000,9.1400,-3.5900,-10.0100,0.3382,-0.0415,0.2062,-61.6875,8.2500,45.0625,291.4375,32.6250,-171.6875,0
1776972402.357,6.0238,0.9673,1.7478,1.3182,0.8143,0.5372,-80.2500,-9.9000,-25.6500,4.9464,-1.6688,-0.0024,0.4527,0.6073,0.5526,-6.9000,-26.2500,-126.0000,9.1400,-3.5900,-10.0100,-0.2465,0.0011,0.1189,-61.6875,8.2500,45.0625,291.5625,32.6250,-171.6250,0
1776972402.363,6.0238,0.9673,1.7478,1.3182,0.8143,0.5372,-80.2500,-9.9000,-25.6500,4.7669,-4.4173,1.3264,0.6518,-0.1426,0.9651,-6.9000,-26.2500,-126.0000,6.7400,1.8800,-7.6100,-0.2465,0.0011,0.1189,-61.6875,8.2500,45.0625,291.8125,32.4375,-171.2500,0
1776972402.372,6.4931,0.0168,1.4102,0.9691,0.6512,0.7695,-80.1000,-9.7500,-23.7000,5.8610,-8.3558,4.7788,2.0270,-0.1130,0.9683,-6.1500,-30.0000,-127.8000,4.6100,3.4300,-7.0300,-0.7963,-0.3731,0.1560,-61.6875,8.2500,45.0625,292.2500,32.0625,-170.6250,0
1776972402.382,7.6686,-1.2354,1.3408,0.6925,0.4916,0.9342,-80.2500,-9.4500,-23.4000,8.9376,-9.4044,3.3639,2.2020,0.0895,1.0344,-4.6500,-32.5500,-128.5500,6.8300,3.1200,-7.0700,-1.4224,-0.6720,0.3502,-61.6875,8.2500,45.0625,292.2500,32.0625,-170.6250,0
1776972402.387,8.4180,-1.7957,1.9465,0.4655,0.4738,0.9729,-81.0000,-11.1000,-24.1500,8.9376,-9.4044,3.3639,2.2020,0.0895,1.0344,-4.6500,-32.5500,-128.5500,6.8300,3.1200,-7.0700,-1.4224,-0.6720,0.3502,-61.6875,8.2500,45.0625,292.8125,31.5000,-169.8750,0
1776972402.392,8.4180,-1.7957,1.9465,0.4655,0.4738,0.9729,-81.0000,-11.1000,-24.1500,9.9144,-8.3749,-2.2960,1.3126,-0.4128,1.3054,-4.6500,-32.5500,-128.5500,7.9800,2.6200,-9.7200,-1.7399,-1.1508,0.4658,-61.7500,10.7500,44.0625,292.8125,31.5000,-169.8750,0
1776972402.397,10.0341,-1.2139,2.5977,0.3853,0.5700,0.9020,-81.0000,-11.1000,-24.1500,9.9144,-8.3749,-2.2960,1.3126,-0.4128,1.3054,-4.6500,-32.5500,-128.5500,7.9800,2.6200,-9.7200,-1.7399,-1.1508,0.4658,-61.7500,10.7500,44.0625,293.5625,31.1250,-169.5000,0
1776972402.402,10.0341,-1.2139,2.5977,0.3853,0.5700,0.9020,-81.0000,-11.1000,-24.1500,10.0149,-7.1635,-5.9304,0.6075,-0.5913,1.5023,-4.6500,-32.5500,-128.5500,5.7400,1.8500,-8.6400,-1.2599,-0.8988,0.8465,-61.7500,10.7500,44.0625,293.5625,31.1250,-169.5000,0
1776972402.410,11.4922,0.0000,3.0167,0.5348,0.5553,0.8471,-82.2000,-11.4000,-23.4000,11.4802,-3.2848,-6.8019,0.8183,-0.4453,1.1826,9.0000,-37.5000,-124.6500,3.3100,2.5300,-8.4300,-0.6370,-0.2203,0.6643,-61.7500,10.7500,44.0625,294.0000,31.0625,-169.3750,0
1776972402.414,11.5209,1.0989,2.4421,0.5348,0.5553,0.8471,-82.2000,-11.4000,-23.4000,11.4802,-3.2848,-6.8019,0.8183,-0.4453,1.1826,9.0000,-37.5000,-124.6500,3.3100,2.5300,-8.4300,-0.6370,-0.2203,0.6643,-61.7500,10.7500,44.0625,294.2500,31.2500,-169.1250,0
1776972402.422,11.5209,1.0989,2.4421,0.8279,0.5849,0.7983,-82.2000,-11.4000,-23.4000,9.9599,1.3024,-6.9456,0.4575,-0.2321,0.9393,11.2500,-34.8000,-120.0000,5.7200,1.8000,-8.1000,-0.6316,0.3360,0.3065,-61.7500,10.7500,44.0625,294.5000,31.4375,-168.8750,0
1776972402.432,10.9559,2.3535,1.3862,1.1839,0.6744,0.7802,-82.5000,-12.6000,-23.1000,9.5098,2.4565,-6.2177,0.1713,0.1969,0.6246,12.1500,-34.6500,-120.1500,5.9200,1.8400,-8.7400,-0.5258,0.3349,0.2607,-61.7500,10.7500,44.0625,294.5000,31.4375,-168.8750,0
1776972402.437,10.3741,2.9856,0.3543,1.5071,0.7077,0.7762,-81.7500,-12.3000,-23.8500,9.6127,0.6393,-4.5729,0.1663,0.8244,0.2132,14.7000,-31.6500,-120.1500,5.9200,1.8400,-8.7400,-0.5258,0.3349,0.2607,-61.7500,10.7500,44.0625,294.5625,31.5625,-168.9375,0
1776972402.442,10.3741,2.9856,0.3543,1.5071,0.7077,0.7762,-81.7500,-12.3000,-23.8500,9.6127,0.6393,-4.5729,0.1663,0.8244,0.2132,14.7000,-31.6500,-120.1500,6.0400,0.9200,-8.4300,0.0055,0.1658,0.1974,-60.2500,10.6875,46.0000,294.5625,31.5625,-168.9375,0
1776972402.447,9.8857,2.7773,-0.1341,1.7600,0.6563,0.7474,-82.2000,-12.3000,-21.6000,9.7659,0.1293,-2.7414,0.4064,0.7466,-0.1324,14.7000,-31.6500,-120.1500,6.0400,0.9200,-8.4300,0.0055,0.1658,0.1974,-60.2500,10.6875,46.0000,294.6250,31.6875,-168.9375,0
1776972402.452,9.4188,2.2601,-0.3328,1.7600,0.6563,0.7474,-82.2000,-12.3000,-21.6000,9.7659,0.1293,-2.7414,0.4064,0.7466,-0.1324,14.7000,-31.6500,-120.1500,5.6300,1.2700,-8.3300,-0.0360,0.1833,0.0840,-60.2500,10.6875,46.0000,294.6250,31.6875,-168.9375,0
1776972402.458,9.4188,2.2601,-0.3328,1.9532,0.6022,0.6949,-81.9000,-14.4000,-21.7500,8.9878,-0.9218,-0.6847,0.9414,0.5367,-0.2603,10.8000,-30.3000,-119.2500,5.4500,1.2200,-8.2400,-0.0153,0.1636,0.0425,-60.2500,10.6875,46.0000,294.6250,31.8125,-168.9375,0
1776972402.463,8.7484,1.4916,-0.1891,1.9833,0.5614,0.6328,-81.9000,-14.4000,-21.7500,8.9878,-0.9218,-0.6847,0.9414,0.5367,-0.2603,10.8000,-30.3000,-119.2500,5.4500,1.2200,-8.2400,-0.0153,0.1636,0.0425,-60.2500,10.6875,46.0000,294.6875,31.8125,-169.0000,0
1776972402.472,8.1307,0.7590,0.1006,1.9833,0.5614,0.6328,-81.3000,-14.2500,-21.6000,8.1906,-2.2817,-0.5243,1.2236,0.3120,-0.2081,10.3500,-30.9000,-121.9500,5.4100,1.3400,-8.0400,0.1353,0.0327,0.0709,-60.2500,10.6875,46.0000,294.6875,31.8125,-169.0000,0
1776972402.482,8.5138,0.5483,0.4717,1.6705,0.4644,0.5939,-82.5000,-15.4500,-21.1500,8.8945,-3.0071,-0.3687,0.9254,0.2523,-0.1255,6.9000,-28.5000,-122.1000,5.3600,1.2100,-7.7600,0.2225,-0.1025,0.1200,-60.2500,10.6875,46.0000,294.6875,31.7500,-169.1875,0
1776972402.487,8.5138,0.5483,0.4717,1.6705,0.4644,0.5939,-82.5000,-15.4500,-21.1500,9.2656,-2.8730,-1.6089,0.7248,0.2419,-0.0157,6.4500,-30.3000,-121.3500,5.3600,1.2100,-7.7600,0.2225,-0.1025,0.1200,-60.2500,10.6875,46.0000,294.6875,31.7500,-169.1875,0
1776972402.492,8.4204,0.5890,0.5171,1.4642,0.4295,0.6006,-82.5000,-15.4500,-21.1500,9.2656,-2.8730,-1.6089,0.7248,0.2419,-0.0157,6.4500,-30.3000,-121.3500,5.0400,1.3600,-7.9900,-0.0295,-0.0109,0.1309,-60.2500,8.8750,47.7500,294.7500,31.7500,-169.1875,0
1776972402.497,8.4204,0.5890,0.5171,1.4642,0.4295,0.6006,-81.0000,-15.0000,-21.6000,9.4403,-1.1277,-2.4397,0.5982,0.0536,0.0789,5.7000,-29.5500,-122.8500,5.0400,1.3600,-7.9900,-0.0295,-0.0109,0.1309,-60.2500,8.8750,47.7500,294.7500,31.7500,-169.1875,0
1776972402.502,8.8178,0.6273,0.7685,1.2870,0.3792,0.6113,-81.0000,-15.0000,-21.6000,9.4403,-1.1277,-2.4397,0.5982,0.0536,0.0789,5.7000,-29.5500,-122.8500,4.9100,1.0200,-7.4100,-0.2236,0.1767,0.0829,-60.2500,8.8750,47.7500,294.8750,31.8750,-169.1250,0
1776972402.509,8.8178,0.6273,0.7685,1.2870,0.3792,0.6113,-81.0000,-15.0000,-21.6000,9.6367,0.2298,-2.5450,0.5255,0.0751,0.1444,5.7000,-29.5500,-122.8500,5.2600,1.9200,-7.8200,-0.2782,0.1516,0.1287,-60.2500,8.8750,47.7500,294.9375,32.0000,-169.0000,0
1776972402.514,9.3877,0.8092,0.8835,1.1466,0.3355,0.6278,-81.7500,-16.2000,-20.5500,10.0748,0.1101,-2.6671,0.4271,0.2174,0.1069,4.9500,-31.0500,-123.1500,5.2600,1.9200,-7.8200,-0.2782,0.1516,0.1287,-60.2500,8.8750,47.7500,295.0625,32.0000,-169.0000,0
1776972402.522,9.9862,1.0104,0.7685,1.0768,0.3299,0.6347,-81.7500,-16.2000,-20.5500,10.0748,0.1101,-2.6671,0.4271,0.2174,0.1069,4.9500,-31.0500,-123.1500,5.0800,0.8500,-7.7600,-0.0578,-0.0371,0.1985,-60.2500,8.8750,47.7500,295.1875,32.1250,-168.8750,0
1776972402.532,10.5177,1.0989,0.8308,1.0714,0.3352,0.6312,-81.6000,-15.9000,-22.2000,10.2017,-0.5339,-2.1237,0.4439,0.2491,0.1085,3.4500,-29.4000,-123.0000,4.8600,0.9000,-8.1800,-0.3142,0.2007,0.1658,-60.2500,8.8750,47.7500,295.1875,32.1250,-168.8750,0
1776972402.537,10.5177,1.0989,0.8308,1.0714,0.3352,0.6312,-81.7500,-16.2000,-21.1500,10.4411,-1.1325,-1.8675,0.5409,0.0946,0.1572,2.8500,-28.8000,-123.6000,4.8600,0.9000,-8.1800,-0.3142,0.2007,0.1658,-60.2500,8.8750,47.7500,295.3125,32.2500,-168.6875,0
1776972402.542,10.5752,1.3024,0.9601,1.0882,0.3174,0.5987,-81.7500,-16.2000,-21.1500,10.4411,-1.1325,-1.8675,0.5409,0.0946,0.1572,2.2500,-28.8000,-123.6000,5.4000,1.1700,-8.1800,-0.3687,0.2891,0.0796,-60.2500,8.7500,46.0625,295.3125,32.2500,-168.6875,0
1776972402.547,10.5752,1.3024,0.9601,1.0882,0.3174,0.5987,-82.6500,-16.3500,-20.7000,10.2783,-1.5850,-1.3647,0.5129,-0.0850,0.2550,2.2500,-29.7000,-122.2500,5.4000,1.1700,-8.1800,-0.3687,0.2891,0.0796,-60.2500,8.7500,46.0625,295.3750,32.3750,-168.6250,0
1776972402.552,10.2735,1.5778,1.1660,1.1002,0.3048,0.5569,-82.6500,-16.3500,-20.7000,10.2783,-1.5850,-1.3647,0.5129,-0.0850,0.2550,2.2500,-29.4000,-123.0000,5.2300,1.3700,-8.1800,-0.1800,0.2062,0.0698,-60.2500,8.7500,46.0625,295.3750,32.3750,-168.6250,0
1776972402.557,10.2735,1.5778,1.1660,1.1002,0.3048,0.5569,-80.5500,-17.7000,-20.5500,9.8569,-2.0494,-0.9242,0.4215,-0.1743,0.3400,2.2500,-29.4000,-123.0000,5.2300,1.3700,-8.1800,0.0185,0.2182,0.0535,-60.2500,8.7500,46.0625,295.3750,32.5000,-168.6250,0
1776972402.563,9.9096,1.8004,1.5107,1.1229,0.3315,0.5129,-80.5500,-17.7000,-20.5500,9.3709,-2.1237,-1.5036,0.4322,-0.1591,0.3685,2.2500,-29.4000,-123.0000,5.4800,1.4800,-8.1300,0.0185,0.2182,0.0535,-60.2500,8.7500,46.0625,295.3750,32.6250,-168.6875,0
1776972402.572,9.4260,1.8675,1.7190,1.1370,0.3653,0.4762,-81.0000,-18.1500,-18.6000,9.3565,-1.7885,-1.8507,0.5151,-0.0991,0.3291,5.4000,-30.3000,-123.6000,5.4600,1.4100,-8.0500,0.1374,0.2094,0.0415,-60.2500,8.7500,46.0625,295.3750,32.6250,-168.6875,0
1776972402.582,9.2201,1.7717,1.6544,1.2265,0.3773,0.4399,-81.0000,-18.1500,-18.6000,9.8881,-1.3599,-1.7837,0.5108,-0.0378,0.2755,5.8500,-30.4500,-121.9500,5.5400,1.2600,-7.9800,0.1920,0.2280,0.0229,-60.2500,8.7500,46.0625,295.3125,32.7500,-168.8125,0
1776972402.587,9.3781,1.4868,1.4054,1.2265,0.3773,0.4399,-81.9000,-18.3000,-17.4000,9.8881,-1.3599,-1.7837,0.5108,-0.0378,0.2755,5.8500,-30.4500,-121.9500,5.5400,1.2600,-7.9800,0.1920,0.2280,0.0229,-60.2500,8.7500,46.0625,295.3125,32.7500,-168.8125,0
1776972402.592,9.3781,1.4868,1.4054,1.3507,0.3432,0.4000,-81.9000,-18.3000,-17.4000,10.3741,-0.7398,-1.0008,0.4594,-0.0461,0.2134,5.8500,-28.2000,-121.6500,5.7000,1.3500,-8.0300,0.2531,0.2629,-0.0109,-61.3750,9.5000,46.7500,295.2500,32.8750,-168.9375,0
1776972402.597,9.3206,1.5682,1.0463,1.3507,0.3432,0.4000,-81.9000,-18.3000,-17.4000,10.3741,-0.7398,-1.0008,0.4594,-0.0461,0.2134,5.8500,-28.2000,-121.6500,5.7000,1.3500,-8.0300,0.2531,0.2629,-0.0109,-61.3750,9.5000,46.7500,295.2500,32.8750,-168.9375,0
1776972402.602,9.3206,1.5682,1.0463,1.4994,0.2926,0.3227,-81.9000,-18.3000,-17.4000,10.5991,-0.6177,-0.5076,0.4626,-0.0741,0.1561,4.6500,-29.2500,-121.8000,5.5800,1.1200,-7.8600,0.2782,0.3469,-0.0840,-61.3750,9.5000,46.7500,295.1875,33.0625,-169.0000,0
1776972402.608,9.6438,1.7071,0.6728,1.6521,0.3325,0.2545,-82.2000,-18.1500,-17.5500,10.5991,-0.6177,-0.5076,0.4626,-0.0741,0.1561,4.6500,-29.2500,-121.8000,5.5800,1.1200,-7.8600,0.3709,0.5051,-0.2040,-61.3750,9.5000,46.7500,294.9375,33.3125,-169.1250,0
1776972402.613,9.6438,1.7071,0.6728,1.6521,0.3325,0.2545,-82.2000,-18.1500,-17.5500,10.7787,-0.4525,-0.6728,0.4722,-0.1444,0.1276,5.7000,-28.5000,-120.7500,5.2300,1.2300,-8.2400,0.3709,0.5051,-0.2040,-61.3750,9.5000,46.7500,294.9375,33.3125,-169.1250,0
1776972402.622,9.6534,1.6712,0.6680,1.7893,0.3818,0.1804,-82.9500,-17.7000,-16.0500,10.4579,-0.2346,-1.0678,0.5289,-0.2393,0.1100,5.7000,-28.5000,-120.7500,5.2500,1.6700,-8.0200,0.3883,0.6829,-0.1974,-61.3750,9.5000,46.7500,294.7500,33.6875,-169.1875,0
1776972402.632,9.5505,1.5036,0.4022,1.8479,0.3845,0.0922,-82.5000,-19.6500,-15.6000,10.0700,0.4334,-1.8723,0.5995,-0.3011,0.0624,5.7000,-28.5000,-121.3500,5.1900,1.6900,-7.9500,0.3512,0.7036,-0.1287,-61.3750,9.5000,46.7500,294.5625,34.0625,-169.3125,0
1776972402.637,9.3685,1.2617,0.0599,1.8391,0.4045,0.0187,-81.6000,-19.5000,-15.4500,10.0700,0.4334,-1.8723,0.5995,-0.3011,0.0624,5.7000,-28.5000,-121.3500,5.1900,1.6900,-7.9500,0.3512,0.7036,-0.1287,-61.3750,9.5000,46.7500,294.5625,34.0625,-169.3125,0
1776972402.642,9.3685,1.2617,0.0599,1.8391,0.4045,0.0187,-81.6000,-19.5000,-15.4500,10.0461,0.2131,-2.1715,0.5668,-0.3248,0.0360,6.1500,-29.2500,-121.8000,5.7700,1.3900,-8.1200,0.3796,0.6905,-0.1418,-61.7500,9.8750,45.1875,294.4375,34.4375,-169.4375,0
1776972402.646,9.4595,1.0798,-0.1748,1.8695,0.4255,-0.0237,-83.1000,-18.3000,-15.4500,10.0461,0.2131,-2.1715,0.5668,-0.3248,0.0360,6.1500,-29.2500,-121.8000,5.7700,1.3900,-8.1200,0.3796,0.6905,-0.1418,-61.7500,9.8750,45.1875,294.4375,34.4375,-169.4375,0
1776972402.651,9.4595,1.0798,-0.1748,1.8695,0.4255,-0.0237,-83.1000,-18.3000,-15.4500,9.8976,-0.7781,-2.5762,0.5780,-0.2681,0.0602,4.5000,-29.4000,-121.9500,7.7000,0.4500,-9.0500,0.3894,0.8029,-0.1331,-61.7500,9.8750,45.1875,294.2500,34.8125,-169.5625,0
1776972402.656,9.6199,0.7207,-0.2179,1.9135,0.4394,-0.0397,-81.9000,-18.7500,-15.4500,9.8976,-0.7781,-2.5762,0.5780,-0.2681,0.0602,4.5000,-29.4000,-121.9500,7.7000,0.4500,-9.0500,0.3894,0.8029,-0.1331,-61.7500,9.8750,45.1875,294.0625,35.2500,-169.6875,0
1776972402.663,9.6199,0.7207,-0.2179,1.9135,0.4394,-0.0397,-81.9000,-18.7500,-15.4500,9.8689,-1.6376,-2.0949,0.6747,-0.4287,0.0634,3.1500,-28.5000,-123.9000,6.3900,0.6900,-7.0600,0.3982,0.7243,-0.1069,-61.7500,9.8750,45.1875,293.8750,35.4375,-169.8125,0
1776972402.673,9.9647,0.4645,-0.1532,1.9457,0.4143,-0.0338,-81.9000,-18.7500,-15.4500,9.3709,-2.1883,-1.7023,0.7248,-0.5169,0.0693,2.4000,-30.3000,-122.5500,5.3800,1.3300,-7.7900,0.4134,0.4058,-0.1898,-61.7500,9.8750,45.1875,293.8750,35.4375,-169.8125,0
1776972402.683,10.2161,0.0072,-0.2442,1.9710,0.3816,-0.0386,-83.4000,-18.7500,-14.4000,9.2081,-2.6384,-2.5067,0.7155,-0.4876,0.1085,2.4000,-30.3000,-122.5500,5.6600,1.2200,-7.8500,0.3229,0.4287,-0.1560,-61.7500,9.8750,45.1875,293.6875,35.6250,-169.8750,0
1776972402.687,10.2161,0.0072,-0.2442,1.9907,0.3323,-0.0472,-83.4000,-18.7500,-14.4000,9.2081,-2.6384,-2.5067,0.7155,-0.4876,0.1085,2.4000,-30.3000,-122.5500,5.6600,1.2200,-7.8500,0.3229,0.4287,-0.1560,-61.7500,9.8750,45.1875,293.6875,35.6250,-169.8750,0
1776972402.692,10.1155,-0.2370,-0.9313,1.9907,0.3323,-0.0472,-83.4000,-18.7500,-14.4000,9.2608,-3.0502,-3.0957,0.5955,-0.4759,0.1535,3.6000,-31.0500,-122.8500,5.9900,1.3000,-7.9600,0.2607,0.5094,-0.1189,-62.7500,10.2500,44.8750,293.5625,35.9375,-169.9375,0
1776972402.697,10.1155,-0.2370,-0.9313,1.9660,0.3035,-0.0743,-83.7000,-18.4500,-13.0500,9.2608,-3.0502,-3.0957,0.5955,-0.4759,0.1535,3.6000,-31.0500,-122.8500,5.9900,1.3000,-7.9600,0.2607,0.5094,-0.1189,-62.7500,10.2500,44.8750,293.5625,35.9375,-169.9375,0
1776972402.702,10.0700,-0.2993,-0.8739,1.9660,0.3035,-0.0743,-83.7000,-18.4500,-13.0500,8.8849,-2.9090,-3.6631,0.4759,-0.4343,0.1857,3.6000,-30.7500,-121.8000,6.0500,1.0000,-7.8100,0.2476,0.5541,-0.1113,-62.7500,10.2500,44.8750,293.4375,36.1875,-170.0000,0
1776972402.709,10.0700,-0.2993,-0.8739,1.8330,0.2851,-0.0933,-82.5000,-20.4000,-12.7500,8.8992,-2.9018,-4.2090,0.2819,-0.3397,0.2318,3.6000,-30.7500,-121.8000,6.2900,1.1200,-7.6800,0.2782,0.5531,-0.0993,-62.7500,10.2500,44.8750,293.3125,36.5000,-170.0625,0
1776972402.714,10.1299,-0.3615,-0.5124,1.6073,0.2713,-0.0770,-82.5000,-20.4000,-12.7500,8.8992,-2.9018,-4.2090,0.2819,-0.3397,0.2318,1.9500,-30.4500,-122.2500,6.2900,1.1200,-7.6800,0.2782,0.5531,-0.0993,-62.7500,10.2500,44.8750,293.1875,36.8125,-170.1875,0
1776972402.723,10.1275,-0.6488,-0.1245,1.3941,0.2134,-0.0226,-82.9500,-19.3500,-12.7500,8.8298,-3.1077,-4.2617,0.1407,-0.3301,0.2502,2.8500,-32.2500,-121.8000,6.2800,1.1000,-7.6500,0.2967,0.5509,-0.0633,-62.7500,10.2500,44.8750,293.1875,36.8125,-170.1875,0
1776972402.733,10.0269,-0.9002,0.1867,1.2460,0.1492,0.0389,-82.9500,-18.1500,-9.7500,8.6143,-2.8994,-4.3311,0.1529,-0.3150,0.2300,2.8500,-32.2500,-121.8000,6.2800,0.8800,-7.5300,0.2760,0.5432,-0.0676,-62.7500,10.2500,44.8750,293.0625,37.0625,-170.2500,0
1776972402.738,10.0269,-0.9002,0.1867,1.2460,0.1492,0.0389,-82.6500,-17.5500,-12.1500,8.6119,-2.6456,-4.4580,0.1545,-0.2867,0.1873,2.8500,-32.2500,-121.8000,6.2800,0.8800,-7.5300,0.2760,0.5432,-0.0676,-62.7500,10.2500,44.8750,293.0000,37.3750,-170.3125,0
1776972402.743,10.0604,-0.9505,0.5267,1.1274,0.1037,0.1108,-82.6500,-17.5500,-12.1500,8.6119,-2.6456,-4.4580,0.1545,-0.2867,0.1873,2.8500,-32.2500,-121.8000,6.0400,0.7000,-7.4000,0.2291,0.5312,-0.0665,-63.5625,11.2500,42.7500,293.0000,37.3750,-170.3125,0
1776972402.748,10.0604,-0.9505,0.5267,1.1274,0.1037,0.1108,-82.2000,-18.4500,-11.5500,8.8538,-2.3774,-4.5226,0.1724,-0.1996,0.1426,2.8500,-32.2500,-121.8000,6.0400,0.7000,-7.4000,0.2291,0.5312,-0.0665,-63.5625,11.2500,42.7500,292.9375,37.6250,-170.3125,0
1776972402.753,10.2041,-0.7709,0.8116,1.0256,0.0999,0.1740,-82.2000,-18.4500,-11.5500,8.8538,-2.3774,-4.5226,0.1724,-0.1996,0.1426,4.8000,-32.4000,-123.0000,6.3400,0.8700,-7.4700,0.1156,0.4614,-0.0229,-63.5625,11.2500,42.7500,292.9375,37.6250,-170.3125,0
1776972402.758,10.2041,-0.7709,0.8116,1.0256,0.0999,0.1740,-82.2000,-18.4500,-11.5500,9.2201,-2.1261,-3.7302,0.1431,-0.1082,0.0970,4.8000,-32.4000,-123.0000,6.3400,0.8700,-7.4700,0.0098,0.3971,-0.0044,-63.5625,11.2500,42.7500,292.9375,37.8125,-170.3125,0
1776972402.763,10.3525,-0.3903,1.0343,0.9777,0.0962,0.2233,-82.2000,-18.4500,-11.5500,9.2201,-2.1261,-3.7302,0.1431,-0.1082,0.0970,3.6000,-31.5000,-121.8000,6.1500,0.6500,-7.6400,0.0098,0.3971,-0.0044,-63.5625,11.2500,42.7500,292.8750,38.0625,-170.2500,0
1776972402.773,10.3190,0.2155,0.8739,1.0219,0.0919,0.2473,-82.3500,-19.9500,-10.6500,9.5529,-2.0423,-3.2681,0.0282,-0.1154,0.1021,2.8500,-31.0500,-121.3500,6.2600,0.8100,-7.7200,-0.0207,0.4222,-0.0262,-63.5625,11.2500,42.7500,292.8750,38.0625,-170.2500,0
1776972402.783,10.0126,0.7781,0.5986,1.0962,0.1188,0.2646,-82.3500,-19.9500,-10.6500,9.5289,-2.0207,-3.0119,0.0144,-0.1649,0.1106,3.6000,-30.7500,-122.1000,6.5400,0.9400,-7.3800,-0.0524,0.4407,-0.0545,-63.5625,11.2500,42.7500,292.8750,38.3125,-170.1875,0
1776972402.788,10.0126,0.7781,0.5986,1.0962,0.1188,0.2646,-83.2500,-18.9000,-10.5000,9.3541,-2.0830,-2.9760,0.0461,-0.2433,0.1244,3.6000,-30.7500,-122.1000,6.5400,0.9400,-7.3800,-0.0524,0.4407,-0.0545,-63.5625,11.2500,42.7500,292.8750,38.5000,-170.1250,0
1776972402.793,9.7037,1.1301,0.7422,1.2838,0.1447,0.2785,-83.2500,-18.9000,-10.5000,9.3541,-2.0830,-2.9760,0.0461,-0.2433,0.1244,3.6000,-30.7500,-122.1000,6.4600,1.0900,-7.4500,-0.1091,0.2869,-0.0480,-65.3750,11.2500,41.5625,292.8750,38.5000,-170.1250,0
1776972402.798,9.7037,1.1301,0.7422,1.2838,0.1447,0.2785,-84.4500,-20.1000,-9.3000,8.9088,-2.1380,-3.3662,0.1175,-0.2976,0.1148,3.6000,-30.7500,-122.1000,6.4600,1.0900,-7.4500,-0.1091,0.2869,-0.0480,-65.3750,11.2500,41.5625,292.8125,38.5625,-170.0000,0
1776972402.803,9.2584,1.3767,0.6560,1.4930,0.1362,0.2928,-84.4500,-20.1000,-9.3000,8.9088,-2.1380,-3.3662,0.1175,-0.2976,0.1148,3.1500,-32.2500,-122.5500,6.4900,1.1900,-7.5000,-0.1385,0.1898,-0.0371,-65.3750,11.2500,41.5625,292.8125,38.5625,-170.0000,0
1776972402.808,8.9423,1.4796,0.9290,1.4930,0.1362,0.2928,-82.9500,-19.6500,-8.7000,8.7053,-2.0710,-3.3471,0.1857,-0.2683,0.0797,3.1500,-32.2500,-122.5500,6.4900,1.1900,-7.5000,-0.1407,0.1778,-0.0207,-65.3750,11.2500,41.5625,292.8750,38.6875,-169.8750,0
1776972402.814,8.9423,1.4796,0.9290,1.5780,0.1641,0.2934,-82.9500,-19.6500,-8.7000,8.7053,-2.0710,-3.3471,0.1857,-0.2683,0.0797,4.6500,-31.8000,-121.3500,6.5100,1.0600,-7.4400,-0.1407,0.1778,-0.0207,-65.3750,11.2500,41.5625,292.8750,38.7500,-169.8125,0
1776972402.823,9.0333,1.3408,1.3934,1.6342,0.1855,0.3054,-82.3500,-20.2500,-8.4000,8.8178,-2.1045,-3.3639,0.2060,-0.2523,0.0226,1.9500,-31.9500,-121.6500,6.5600,1.0300,-7.3000,-0.1200,0.1374,-0.0120,-65.3750,11.2500,41.5625,292.8750,38.7500,-169.8125,0
1776972402.833,9.1435,1.2761,1.3958,1.6934,0.1865,0.3440,-81.9000,-19.9500,-9.1500,9.0764,-2.1907,-3.1556,0.1998,-0.2678,-0.0181,3.0000,-31.2000,-120.9000,6.4400,0.9100,-7.3500,-0.1167,0.1331,-0.0175,-65.3750,11.2500,41.5625,292.8750,38.8125,-169.7500,0
1776972402.838,9.3087,1.1732,1.2833,1.6875,0.1855,0.3760,-81.0000,-18.9000,-7.5000,9.1794,-2.2242,-3.1029,0.2475,-0.2825,-0.0437,3.7500,-30.4500,-123.0000,6.4400,0.9100,-7.3500,-0.1167,0.1331,-0.0175,-65.3750,11.2500,41.5625,292.8750,38.8125,-169.7500,0
1776972402.843,9.3087,1.1732,1.2833,1.6875,0.1855,0.3760,-81.0000,-18.9000,-7.5000,9.1794,-2.2242,-3.1029,0.2475,-0.2825,-0.0437,3.7500,-30.4500,-123.0000,6.1700,1.0300,-7.4400,-0.0916,0.1124,-0.0535,-64.8750,11.6875,42.0000,292.8750,38.8750,-169.6875,0
1776972402.848,9.5337,1.0295,1.1540,1.6427,0.1887,0.4191,-81.0000,-18.9000,-7.5000,9.4499,-2.1835,-2.8898,0.2518,-0.3163,-0.0666,3.7500,-30.4500,-123.0000,6.1700,1.0300,-7.4400,-0.0916,0.1124,-0.0535,-64.8750,11.6875,42.0000,292.8750,38.8750,-169.6875,0
1776972402.853,9.5337,1.0295,1.1540,1.6427,0.1887,0.4191,-81.0000,-18.9000,-7.5000,9.4547,-2.3367,-2.7390,0.2334,-0.3579,-0.0642,3.7500,-30.4500,-123.0000,6.4200,1.1100,-7.4100,-0.0720,0.1091,-0.0862,-64.8750,11.6875,42.0000,292.8125,39.0000,-169.6250,0
1776972402.857,9.7899,0.8116,1.0391,1.5705,0.1793,0.4591,-82.2000,-18.9000,-7.9500,9.4547,-2.3367,-2.7390,0.2334,-0.3579,-0.0642,3.7500,-31.6500,-121.2000,6.4200,1.1100,-7.4100,-0.0502,0.1233,-0.1080,-64.8750,11.6875,42.0000,292.8125,39.0625,-169.5625,0
1776972402.864,9.7899,0.8116,1.0391,1.5705,0.1793,0.4591,-82.2000,-18.9000,-7.9500,9.1339,-2.3990,-3.0358,0.2435,-0.3866,-0.0773,3.7500,-31.6500,-121.2000,6.5200,1.2900,-7.3300,-0.0502,0.1233,-0.1080,-64.8750,11.6875,42.0000,292.8125,39.0625,-169.5625,0
1776972402.872,9.5816,0.7183,0.7997,1.5146,0.1524,0.5012,-82.2000,-18.9000,-7.9500,8.9423,-2.4253,-3.1843,0.1961,-0.3930,-0.0762,3.6000,-32.5500,-122.1000,6.0100,1.2300,-7.6000,-0.0360,0.1145,-0.1102,-64.8750,11.6875,42.0000,292.7500,39.1250,-169.5000,0
1776972402.878,9.1913,0.6991,0.5459,1.4813,0.1434,0.5287,-81.3000,-20.4000,-6.0000,8.9423,-2.4253,-3.1843,0.1961,-0.3930,-0.0762,3.9000,-31.8000,-122.8500,6.0100,1.2300,-7.6000,-0.0469,0.1745,-0.0873,-64.8750,11.6875,42.0000,292.6875,39.1875,-169.3750,0
1776972402.884,9.1913,0.6991,0.5459,1.4813,0.1434,0.5287,-81.3000,-20.4000,-6.0000,8.9591,-2.2458,-3.2322,0.1636,-0.3531,-0.0834,3.9000,-31.8000,-122.8500,6.5000,1.3300,-7.1800,-0.0469,0.1745,-0.0873,-64.8750,11.6875,42.0000,292.6875,39.1875,-169.3750,0
1776972402.889,9.1961,0.3280,0.5914,1.4210,0.1316,0.5265,-81.7500,-19.6500,-6.0000,8.9591,-2.2458,-3.2322,0.1636,-0.3531,-0.0834,4.8000,-32.4000,-121.2000,6.5000,1.3300,-7.1800,-0.0469,0.1745,-0.0873,-65.6875,10.7500,41.1875,292.6250,39.3125,-169.3125,0
1776972402.894,9.1961,0.3280,0.5914,1.4210,0.1316,0.5265,-81.7500,-19.6500,-6.0000,8.9567,-1.8148,-3.3399,0.1212,-0.3198,-0.0991,4.8000,-32.4000,-121.2000,6.5600,1.1300,-7.3800,-0.0742,0.2051,-0.0622,-65.6875,10.7500,41.1875,292.6250,39.3125,-169.3125,0
1776972402.899,8.9854,0.5531,1.0989,1.3182,0.1508,0.5361,-81.0000,-20.4000,-5.2500,8.9567,-1.8148,-3.3399,0.1212,-0.3198,-0.0991,3.9000,-30.3000,-123.1500,6.5600,1.1300,-7.3800,-0.0742,0.2051,-0.0622,-65.6875,10.7500,41.1875,292.6250,39.3750,-169.2500,0
1776972402.904,9.2680,0.5842,1.3527,1.3182,0.1508,0.5361,-81.0000,-20.4000,-5.2500,9.1770,-1.6209,-3.2633,0.0714,-0.2942,-0.1210,3.9000,-30.3000,-123.1500,6.5100,1.0000,-7.1400,-0.0840,0.1811,-0.0502,-65.6875,10.7500,41.1875,292.6250,39.3750,-169.2500,0
1776972402.909,9.2680,0.5842,1.3527,1.2201,0.1319,0.5915,-82.2000,-21.6000,-5.2500,9.1770,-1.6209,-3.2633,0.0714,-0.2942,-0.1210,3.9000,-30.3000,-123.1500,6.2400,1.0500,-7.5100,-0.0818,0.1167,-0.0644,-65.6875,10.7500,41.1875,292.6250,39.4375,-169.1875,0
1776972402.914,9.4906,0.4310,1.4293,1.2201,0.1319,0.5915,-82.2000,-21.6000,-5.2500,9.5481,-1.6161,-2.8946,0.1817,-0.3451,-0.1625,3.9000,-30.3000,-123.1500,6.2400,1.0500,-7.5100,-0.0818,0.1167,-0.0644,-65.6875,10.7500,41.1875,292.6250,39.4375,-169.1875,0
1776972402.923,9.6534,0.4166,1.2689,1.1189,0.0701,0.6571,-82.3500,-20.7000,-5.8500,9.4116,-1.6376,-2.9904,0.2755,-0.4674,-0.1780,3.9000,-30.7500,-121.8000,6.4300,1.2000,-7.4300,-0.0578,0.1724,-0.1036,-65.6875,10.7500,41.1875,292.5625,39.5625,-169.1250,0
1776972402.928,9.6534,0.4166,1.2689,1.0333,0.0314,0.7109,-82.3500,-20.7000,-5.8500,9.4116,-1.6376,-2.9904,0.2755,-0.4674,-0.1780,2.7000,-29.4000,-122.2500,6.4300,1.2000,-7.4300,-0.0371,0.2094,-0.1320,-65.6875,10.7500,41.1875,292.5000,39.6875,-169.0625,0
1776972402.934,9.5912,0.5986,1.1349,1.0134,-0.0144,0.7469,-82.5000,-22.0500,-5.7000,9.3829,-1.5730,-2.8060,0.3395,-0.5649,-0.1913,2.7000,-29.4000,-122.2500,6.4000,1.1900,-7.2600,-0.0371,0.2094,-0.1320,-65.6875,10.7500,41.1875,292.5000,39.6875,-169.0625,0
1776972402.939,9.5912,0.5986,1.1349,1.0134,-0.0144,0.7469,-82.5000,-22.0500,-5.7000,9.3829,-1.5730,-2.8060,0.3395,-0.5649,-0.1913,3.6000,-30.0000,-123.1500,6.4000,1.1900,-7.2600,-0.0044,0.1931,-0.1527,-65.2500,10.1875,41.5625,292.4375,39.7500,-168.9375,0
1776972402.944,9.4595,0.9170,1.0439,0.9976,-0.0509,0.7631,-82.5000,-22.0500,-5.7000,9.5984,-1.2977,-2.5379,0.3789,-0.6134,-0.1908,3.6000,-30.0000,-123.1500,6.3800,1.1400,-7.3200,-0.0044,0.1931,-0.1527,-65.2500,10.1875,41.5625,292.4375,39.7500,-168.9375,0
1776972402.949,9.4595,0.9170,1.0439,0.9976,-0.0509,0.7631,-81.7500,-21.6000,-4.5000,9.5984,-1.2977,-2.5379,0.3789,-0.6134,-0.1908,4.5000,-27.9000,-122.2500,6.3800,1.1400,-7.3200,0.0185,0.2542,-0.1778,-65.2500,10.1875,41.5625,292.3125,39.8750,-168.8750,0
1776972402.954,9.5600,1.2019,1.0678,0.9353,-0.1015,0.7679,-81.7500,-21.6000,-4.5000,9.9359,-1.4581,-2.3535,0.3291,-0.6275,-0.1735,4.5000,-27.9000,-122.2500,6.4600,1.1100,-7.1100,0.0185,0.2542,-0.1778,-65.2500,10.1875,41.5625,292.3125,39.8750,-168.8750,0
1776972402.959,9.5600,1.2019,1.0678,0.9353,-0.1015,0.7679,-81.7500,-21.6000,-4.5000,9.9359,-1.4581,-2.3535,0.3291,-0.6275,-0.1735,4.9500,-30.0000,-122.8500,6.4600,1.1100,-7.1100,-0.0011,0.2596,-0.1844,-65.2500,10.1875,41.5625,292.1875,40.0625,-168.8125,0
1776972402.964,9.5744,1.5419,1.1995,0.8532,-0.1583,0.7512,-81.7500,-21.6000,-4.5000,10.3118,-1.3192,-2.0853,0.2654,-0.6574,-0.1591,4.9500,-30.0000,-122.8500,6.3900,1.0100,-7.2700,-0.0011,0.2596,-0.1844,-65.2500,10.1875,41.5625,292.1875,40.0625,-168.8125,0
1776972402.973,9.5816,1.8699,1.3024,0.7978,-0.2260,0.7176,-81.3000,-21.3000,-5.7000,10.5345,-1.1875,-1.9297,0.2342,-0.7365,-0.1548,4.9500,-30.0000,-122.8500,6.3800,1.0000,-7.3300,0.0065,0.2694,-0.2127,-65.2500,10.1875,41.5625,292.0625,40.1875,-168.7500,0
1776972402.978,9.5816,1.8699,1.3024,0.7978,-0.2260,0.7176,-81.3000,-21.3000,-5.7000,10.5345,-1.1875,-1.9297,0.2342,-0.7365,-0.1548,5.2500,-30.1500,-122.7000,6.3800,1.0000,-7.3300,-0.0207,0.3196,-0.2487,-65.2500,10.1875,41.5625,291.9375,40.3125,-168.6250,0
1776972402.984,9.5624,2.1045,1.1732,0.7943,-0.2894,0.6757,-81.0000,-20.8500,-4.9500,10.7476,-0.7973,-1.5299,0.2241,-0.8271,-0.1423,5.2500,-30.1500,-122.7000,6.3000,0.9000,-7.4000,-0.0207,0.3196,-0.2487,-65.2500,10.1875,41.5625,291.9375,40.3125,-168.6250,0
1776972402.989,9.5624,2.1045,1.1732,0.7943,-0.2894,0.6757,-81.9000,-22.2000,-5.5500,10.8170,-0.3950,-1.2019,0.2912,-0.9806,-0.1378,5.4000,-29.2500,-122.5500,6.3000,1.0700,-7.4300,-0.0131,0.3840,-0.2847,-65.2500,10.1875,40.7500,291.8125,40.5000,-168.5000,0
1776972402.994,9.5672,2.3870,1.2498,0.8071,-0.3248,0.6289,-81.9000,-22.2000,-5.5500,10.8170,-0.3950,-1.2019,0.2912,-0.9806,-0.1378,5.4000,-29.2500,-122.5500,6.3000,1.0700,-7.4300,-0.0131,0.3840,-0.2847,-65.2500,10.1875,40.7500,291.8125,40.5000,-168.5000,0
1776972402.999,9.5672,2.3870,1.2498,0.8071,-0.3248,0.6289,-81.9000,-21.9000,-5.5500,10.8074,-0.2993,-1.1636,0.3944,-1.1066,-0.1418,6.3000,-28.9500,-123.7500,6.3000,1.0700,-7.4300,0.0022,0.4920,-0.3142,-65.2500,10.1875,40.7500,291.6250,40.7500,-168.3750,0
1776972403.004,9.4763,2.8539,1.2522,0.8519,-0.3483,0.5748,-81.9000,-21.9000,-5.5500,10.8074,-0.2993,-1.1636,0.3944,-1.1066,-0.1418,5.4000,-28.0500,-123.6000,6.3100,1.1400,-7.5500,0.0022,0.4920,-0.3142,-65.2500,10.1875,40.7500,291.6250,40.7500,-168.3750,0
1776972403.009,9.4763,2.8539,1.2522,0.8519,-0.3483,0.5748,-81.0000,-21.6000,-4.9500,10.9295,-0.4525,-1.0104,0.4698,-1.2239,-0.1535,5.4000,-28.0500,-123.6000,6.3100,1.1400,-7.5500,0.0262,0.6610,-0.3240,-65.2500,10.1875,40.7500,291.3750,41.0625,-168.1875,0
1776972403.014,9.4667,3.2034,1.4006,0.9321,-0.3597,0.5279,-81.0000,-21.6000,-4.9500,10.9295,-0.4525,-1.0104,0.4698,-1.2239,-0.1535,6.1500,-30.7500,-123.6000,6.3300,1.3600,-7.4900,0.0262,0.6610,-0.3240,-65.2500,10.1875,40.7500,291.1875,41.4375,-168.0000,0
1776972403.024,9.6103,3.6152,1.5083,1.0381,-0.3706,0.4887,-81.0000,-22.5000,-4.5000,11.3509,-0.7973,-0.7566,0.4943,-1.3241,-0.1442,6.1500,-30.7500,-123.6000,6.3800,1.4400,-7.3400,0.0742,0.7570,-0.3174,-65.2500,10.1875,40.7500,290.9375,41.8750,-167.8750,0
1776972403.034,9.9910,4.0989,1.8483,1.1309,-0.3794,0.4202,-81.0000,-22.5000,-4.5000,12.0093,-1.0104,-0.3136,0.4919,-1.4586,-0.1202,6.1500,-30.7500,-123.6000,6.3300,1.6300,-7.3800,0.1102,0.8683,-0.2793,-65.2500,10.1875,40.7500,290.9375,41.8750,-167.8750,0
1776972403.038,10.7380,4.3551,2.1668,1.1309,-0.3794,0.4202,-81.0000,-22.5000,-4.5000,12.9478,-1.3024,0.1508,0.5265,-1.5812,-0.0842,5.5500,-28.6500,-125.5500,6.3300,1.6300,-7.3800,0.1102,0.8683,-0.2793,-65.2500,10.1875,40.7500,290.7500,42.3750,-167.6875,0
1776972403.044,10.7380,4.3551,2.1668,1.2612,-0.3701,0.3166,-81.3000,-23.2500,-4.2000,12.9478,-1.3024,0.1508,0.5265,-1.5812,-0.0842,8.4000,-28.9500,-125.1000,6.2500,1.6600,-7.6400,0.1200,0.9850,-0.2269,-65.2500,9.0000,39.2500,290.7500,42.3750,-167.6875,0
1776972403.048,11.5736,4.4580,1.9800,1.2612,-0.3701,0.3166,-81.3000,-23.2500,-4.2000,13.9893,-1.2019,0.3974,0.6238,-1.7075,-0.0597,8.4000,-28.9500,-125.1000,6.2500,1.6600,-7.6400,0.1200,0.9850,-0.2269,-65.2500,9.0000,39.2500,290.5625,42.9375,-167.5625,0
1776972403.053,11.5736,4.4580,1.9800,1.3611,-0.3928,0.1852,-81.3000,-23.2500,-4.2000,13.9893,-1.2019,0.3974,0.6238,-1.7075,-0.0597,9.6000,-30.4500,-125.8500,5.9400,1.9900,-7.7500,0.0894,1.1585,-0.1745,-65.2500,9.0000,39.2500,290.5625,42.9375,-167.5625,0
1776972403.058,11.7555,4.3120,1.6233,1.3960,-0.3944,0.0842,-81.3000,-23.2500,-4.2000,14.5544,-0.7278,0.3950,0.7581,-1.8277,-0.0725,9.6000,-30.4500,-125.8500,5.9400,1.9900,-7.7500,0.0175,1.3581,-0.0676,-65.2500,9.0000,39.2500,316.1875,43.6875,-167.3750,0
1776972403.064,11.7555,4.3120,1.6233,1.3960,-0.3944,0.0842,-80.1000,-24.1500,-3.3000,14.5544,-0.7278,0.3950,0.7581,-1.8277,-0.0725,10.5000,-30.3000,-126.0000,5.6400,2.2000,-8.1800,0.0175,1.3581,-0.0676,-65.2500,9.0000,39.2500,315.7500,44.5000,-167.1875,0
1776972403.073,11.5089,3.9337,1.2570,1.4754,-0.3789,-0.0282,-80.2500,-22.8000,-1.9500,14.2934,-0.4501,0.3352,0.7498,-1.9241,-0.0682,10.5000,-30.3000,-126.0000,5.4400,3.0600,-8.0300,-0.0076,1.5217,0.0273,-65.2500,9.0000,39.2500,315.7500,44.5000,-167.1875,0
1776972403.083,11.2911,3.0742,0.8595,1.5847,-0.3568,-0.1711,-80.4000,-22.2000,-3.6000,13.8888,-0.5028,0.3663,0.5862,-1.9915,-0.0392,10.5000,-30.3000,-126.0000,6.1400,3.1800,-7.3600,0.0044,1.7639,0.1167,-65.2500,9.0000,39.2500,315.1875,45.5000,-167.0625,0
1776972403.088,11.2551,2.5618,0.3472,1.6606,-0.4311,-0.3552,-80.4000,-22.2000,-3.6000,13.8169,-0.2921,0.3687,0.4202,-2.0494,-0.0384,10.5000,-30.3000,-126.0000,6.1400,3.1800,-7.3600,0.0044,1.7639,0.1167,-65.2500,9.0000,39.2500,315.1875,45.5000,-167.0625,0
1776972403.093,11.2551,2.5618,0.3472,1.6606,-0.4311,-0.3552,-80.4000,-21.4500,-2.5500,13.8169,-0.2921,0.3687,0.4202,-2.0494,-0.0384,12.6000,-32.5500,-126.4500,5.6500,2.7100,-6.7800,0.0338,2.1686,0.3174,-67.5625,9.0000,37.2500,314.3750,46.6875,-166.9375,0
1776972403.098,11.3054,1.8914,0.0024,1.6353,-0.6166,-0.5129,-80.4000,-21.4500,-2.5500,13.1442,0.1652,0.0934,0.2851,-2.1157,-0.0600,12.6000,-32.5500,-126.4500,5.6500,2.7100,-6.7800,0.0338,2.1686,0.3174,-67.5625,9.0000,37.2500,314.3750,46.6875,-166.9375,0
1776972403.103,11.3054,1.8914,0.0024,1.6353,-0.6166,-0.5129,-81.7500,-22.5000,-3.0000,13.1442,0.1652,0.0934,0.2851,-2.1157,-0.0600,13.8000,-31.0500,-127.8000,4.2500,0.3100,-6.9500,0.1865,2.4598,0.5574,-67.5625,9.0000,37.2500,313.2500,48.1250,-167.0625,0
1776972403.110,11.0277,0.9170,-0.1915,1.4727,-0.8058,-0.6648,-82.3500,-21.9000,-2.1000,12.3230,0.0335,-0.0479,0.2880,-2.1384,-0.1199,13.8000,-31.0500,-127.8000,7.5900,4.4100,-9.5500,0.4898,2.9660,0.8138,-67.5625,9.0000,37.2500,311.5625,49.8125,-167.4375,0
1776972403.115,11.0277,0.9170,-0.1915,1.4727,-0.8058,-0.6648,-82.3500,-21.9000,-2.1000,11.4060,0.1484,0.1580,0.3360,-2.1373,-0.1140,14.2500,-31.6500,-127.9500,7.5900,4.4100,-9.5500,0.4898,2.9660,0.8138,-67.5625,9.0000,37.2500,310.0000,51.5625,-167.8750,0
1776972403.124,10.9319,-0.0407,-0.1748,1.1938,-0.9659,-0.8215,-82.3500,-21.9000,-2.1000,11.4323,0.5100,0.5291,0.4919,-2.1011,-0.1018,14.1000,-30.3000,-128.8500,8.6000,6.7300,-9.2700,0.3665,3.0063,1.0167,-67.5625,9.0000,37.2500,310.0000,51.5625,-167.8750,0
1776972403.134,10.5465,-0.4788,-0.0862,0.8687,-1.1194,-0.8958,-82.6500,-21.9000,-2.1000,11.4994,-0.2227,0.3639,0.6494,-2.1919,-0.0917,14.1000,-30.3000,-128.8500,14.3300,8.5200,-10.5600,1.3406,3.3194,2.4118,-67.5625,9.0000,37.2500,306.6250,53.6250,-169.8750,0
1776972403.139,9.8881,-0.9888,-0.2131,0.6235,-1.2550,-0.9713,-82.6500,-21.9000,-2.1000,11.4994,-0.2227,0.3639,0.6494,-2.1919,-0.0917,14.1000,-30.3000,-128.8500,14.3300,8.5200,-10.5600,1.3406,3.3194,2.4118,-67.5625,9.0000,37.2500,301.4375,55.5625,-173.5000,0
1776972403.144,9.8881,-0.9888,-0.2131,0.6235,-1.2550,-0.9713,-82.6500,-21.9000,-2.1000,10.5417,-1.1444,-1.1468,0.7365,-2.3148,-0.0522,13.8000,-31.5000,-130.6500,7.9500,5.5200,-9.0900,3.0140,3.0794,3.0260,-69.0000,10.5000,30.5000,301.4375,55.5625,-173.5000,0
1776972403.148,8.6263,-0.6393,-0.3065,0.6214,-1.3299,-1.1242,-82.6500,-21.9000,-2.1000,10.5417,-1.1444,-1.1468,0.7365,-2.3148,-0.0522,13.8000,-31.5000,-130.6500,7.9500,5.5200,-9.0900,3.0140,3.0794,3.0260,-69.0000,10.5000,30.5000,295.8750,57.2500,-177.6875,0
1776972403.154,7.8578,-0.5243,0.3089,0.6214,-1.3299,-1.1242,-83.7000,-18.9000,-4.5000,9.8402,-2.5187,-1.9728,1.0091,-2.4424,-0.0418,14.4000,-31.5000,-130.3500,11.5100,5.9800,-7.8000,3.7645,2.8765,2.7478,-69.0000,10.5000,30.5000,295.8750,57.2500,-177.6875,0
1776972403.158,7.8578,-0.5243,0.3089,0.4994,-1.0794,-1.2694,-83.7000,-18.9000,-4.5000,9.8402,-2.5187,-1.9728,1.0091,-2.4424,-0.0418,14.4000,-31.5000,-130.3500,11.5100,5.9800,-7.8000,4.1397,3.1340,3.2136,-69.0000,10.5000,30.5000,290.0000,59.0000,177.0625,0
1776972403.164,7.7644,-0.3496,0.1053,0.4980,-0.8799,-1.3451,-83.8500,-21.0000,-5.5500,9.3685,-3.5075,-2.0877,1.5202,-2.5042,-0.0226,16.2000,-31.0500,-130.3500,15.6100,8.2600,-12.2000,4.1397,3.1340,3.2136,-69.0000,10.5000,30.5000,284.3125,60.7500,171.1875,0
1776972403.174,8.0972,0.2179,-0.3879,0.6832,-0.7274,-1.3912,-83.8500,-19.9500,-5.5500,8.7221,-3.8283,-2.1069,1.8929,-2.5975,0.0434,17.5500,-31.9500,-130.8000,14.8100,4.3100,-11.0200,4.2324,3.5190,3.3336,-69.0000,10.5000,30.5000,284.3125,60.7500,171.1875,0
1776972403.184,8.1882,1.0894,-0.5267,0.9920,-0.5244,-1.4631,-83.1000,-18.3000,-5.8500,8.0254,-4.5370,-2.7294,2.0819,-2.6508,0.0624,19.6500,-32.7000,-130.5000,10.0700,6.1300,-5.8500,4.5291,2.5460,3.5474,-69.0000,10.5000,30.5000,278.4375,61.6875,164.6250,0
1776972403.188,8.1882,1.0894,-0.5267,0.9920,-0.5244,-1.4631,-83.1000,-18.3000,-5.8500,8.0254,-4.5370,-2.7294,2.0819,-2.6508,0.0624,19.6500,-32.7000,-130.5000,10.0700,6.1300,-5.8500,4.5291,2.5460,3.5474,-69.0000,10.5000,30.5000,278.4375,61.6875,164.6250,0
1776972403.193,8.0996,1.9058,-0.3160,1.3307,-0.2915,-1.5668,-83.7000,-18.4500,-5.2500,7.7045,-5.2840,-3.0885,2.1554,-2.7622,0.0213,19.6500,-32.7000,-130.5000,12.1500,6.5100,-13.0700,5.2534,2.3322,3.7885,-70.0000,18.8750,20.2500,272.0625,62.2500,157.1875,0
1776972403.198,8.0996,1.9058,-0.3160,1.3307,-0.2915,-1.5668,-83.7000,-18.4500,-5.2500,7.7045,-5.2840,-3.0885,2.1554,-2.7622,0.0213,19.6500,-32.7000,-130.5000,12.1500,6.5100,-13.0700,5.2534,2.3322,3.7885,-70.0000,18.8750,20.2500,272.0625,62.2500,157.1875,0
1776972403.203,8.1139,2.7629,0.2777,1.6491,-0.0346,-1.6630,-84.1500,-17.1000,-5.1000,7.9320,-5.9951,-3.9480,2.0590,-2.8879,-0.0027,24.3000,-35.2500,-131.1000,10.5800,7.0400,-11.4400,5.3963,2.3518,3.1961,-70.0000,18.8750,20.2500,266.2500,62.6250,150.0625,0
1776972403.209,8.1139,2.7629,0.2777,1.6491,-0.0346,-1.6630,-84.1500,-17.1000,-5.1000,7.9320,-5.9951,-3.9480,2.0590,-2.8879,-0.0027,24.3000,-35.2500,-131.1000,10.5800,7.0400,-11.4400,5.3276,0.6501,2.5525,-70.0000,18.8750,20.2500,260.6875,62.1875,144.4375,0
1776972403.215,8.6790,3.7206,1.0247,1.9305,0.2105,-1.7251,-84.1500,-17.1000,-5.1000,8.1475,-6.6391,-4.5610,2.0640,-3.0052,-0.0762,25.9500,-37.9500,-130.8000,12.0300,20.3700,-7.2500,5.3276,0.6501,2.5525,-70.0000,18.8750,20.2500,255.3125,61.9375,139.6250,0
1776972403.224,9.6031,4.0247,1.9441,2.1221,0.3579,-1.7301,-82.9500,-15.4500,-4.9500,8.2217,-5.5737,-4.2521,2.3593,-3.0241,-0.2316,28.5000,-37.9500,-128.7000,18.3100,14.3800,-15.5800,6.1937,0.5258,1.2588,-70.0000,18.8750,20.2500,255.3125,61.9375,139.6250,0
1776972403.234,10.4794,3.9504,2.6240,2.2228,0.4647,-1.7189,-82.9500,-15.4500,-4.9500,7.4412,-4.5753,-4.4341,2.8112,-2.8535,-0.4866,29.8500,-37.9500,-127.9500,11.3500,10.0400,-11.1500,6.0454,0.1451,-1.3352,-70.0000,18.8750,20.2500,251.5000,62.5000,137.1875,0
1776972403.239,10.4794,3.9504,2.6240,2.2228,0.4647,-1.7189,-82.9500,-15.4500,-4.9500,7.4412,-4.5753,-4.4341,2.8112,-2.8535,-0.4866,29.8500,-37.9500,-127.9500,11.3500,10.0400,-11.1500,6.0454,0.1451,-1.3352,-70.0000,18.8750,20.2500,248.9375,63.1875,137.0625,0
1776972403.244,10.9630,3.8427,3.1388,2.3262,0.5718,-1.7032,-85.2000,-14.2500,-4.5000,6.7900,-4.1204,-3.4141,3.4371,-2.4885,-0.8031,32.2500,-37.8000,-126.0000,7.6700,8.1300,-8.8000,5.2098,-0.8083,-2.6714,-63.7500,29.7500,8.1875,248.9375,63.1875,137.0625,0
1776972403.249,10.9630,3.8427,3.1388,2.3262,0.5718,-1.7032,-85.2000,-14.2500,-4.5000,6.7900,-4.1204,-3.4141,3.4371,-2.4885,-0.8031,32.2500,-37.8000,-126.0000,7.6700,8.1300,-8.8000,5.2098,-0.8083,-2.6714,-63.7500,29.7500,8.1875,248.9375,63.1875,137.0625,0
1776972403.254,11.2982,3.3232,3.2705,2.5085,0.6861,-1.7123,-83.1000,-11.7000,-3.6000,6.0789,-4.0079,-2.7533,3.9945,-2.1567,-1.1013,32.2500,-37.8000,-126.0000,2.2400,3.1800,-3.3200,4.6273,-0.9905,-3.4067,-63.7500,29.7500,8.1875,247.1250,64.0625,138.0625,0
1776972403.258,11.2982,3.3232,3.2705,2.5085,0.6861,-1.7123,-83.1000,-11.7000,-3.6000,6.0789,-4.0079,-2.7533,3.9945,-2.1567,-1.1013,32.2500,-37.8000,-126.0000,2.2400,3.1800,-3.3200,4.1081,-0.8170,-3.6346,-63.7500,29.7500,8.1875,245.9375,65.0625,139.5625,0
1776972403.265,11.4802,2.3176,3.2848,2.7320,0.7461,-1.7661,-85.0500,-10.5000,-3.6000,5.3127,-4.3766,-1.7454,4.3266,-1.8255,-1.3917,32.1000,-37.9500,-123.0000,1.6700,1.8400,-3.1400,4.1081,-0.8170,-3.6346,-63.7500,29.7500,8.1875,245.1250,66.1250,141.1875,0
1776972403.274,11.4778,1.3575,3.1556,2.9729,0.7853,-1.8351,-84.7500,-9.9000,-2.4000,5.0685,-5.2026,-0.9625,4.3329,-1.6086,-1.6025,34.0500,-36.3000,-121.0500,2.2300,1.2200,-3.9500,3.6270,-0.3894,-3.4950,-63.7500,29.7500,8.1875,245.1250,66.1250,141.1875,0
1776972403.284,11.3222,0.7638,2.5570,3.1086,0.8127,-1.8850,-84.4500,-7.9500,-2.7000,5.1212,-5.9113,-0.9242,4.1264,-1.5050,-1.7376,33.7500,-40.0500,-119.2500,4.9300,1.1600,-7.1500,3.2092,-0.0458,-3.2539,-63.7500,29.7500,8.1875,244.5625,67.1875,142.7500,0
1776972403.289,11.2312,0.3855,1.8579,3.1086,0.8127,-1.8850,-84.4500,-7.9500,-2.7000,5.2888,-7.3478,-1.2258,3.8379,-1.4069,-1.8799,33.7500,-40.0500,-119.2500,4.9300,1.1600,-7.1500,3.2092,-0.0458,-3.2539,-63.7500,29.7500,8.1875,244.5625,67.1875,142.7500,0
1776972403.294,11.2312,0.3855,1.8579,3.0627,0.8924,-1.9220,-85.2000,-5.5500,-1.6500,5.2888,-7.3478,-1.2258,3.8379,-1.4069,-1.8799,34.0500,-41.5500,-119.2500,6.6800,2.2500,-9.3900,2.7914,0.0535,-2.9714,-66.1875,22.8750,3.5625,244.1250,68.1875,144.3750,0
1776972403.298,11.1618,1.0463,1.2857,3.0627,0.8924,-1.9220,-85.2000,-5.5500,-1.6500,5.4277,-9.4355,-1.3479,3.5418,-1.2708,-2.0318,34.0500,-41.5500,-119.2500,6.6800,2.2500,-9.3900,2.7914,0.0535,-2.9714,-66.1875,22.8750,3.5625,244.1250,68.1875,144.3750,0
1776972403.303,11.1618,1.0463,1.2857,2.9964,0.9563,-1.9737,-85.2000,-5.5500,-1.6500,5.4277,-9.4355,-1.3479,3.5418,-1.2708,-2.0318,35.4000,-43.2000,-117.3000,7.7300,3.4700,-10.6700,2.5427,-0.1604,-2.6813,-66.1875,22.8750,3.5625,243.6875,69.0000,146.2500,0
1776972403.308,11.4898,0.8571,0.8068,2.9964,0.9563,-1.9737,-85.2000,-5.5500,-1.6500,5.8035,-11.1785,-1.4054,3.2604,-1.0978,-2.1520,35.4000,-43.2000,-117.3000,7.7300,3.4700,-10.6700,2.5678,-0.6414,-2.3835,-66.1875,22.8750,3.5625,243.0625,69.3750,148.2500,0
1776972403.315,11.4898,0.8571,0.8068,2.8847,1.0315,-2.0150,-85.0500,-4.6500,0.6000,5.8035,-11.1785,-1.4054,3.2604,-1.0978,-2.1520,35.4000,-43.2000,-117.3000,7.3500,4.5000,-10.6900,2.5678,-0.6414,-2.3835,-66.1875,22.8750,3.5625,242.0000,69.4375,150.3125,0
1776972403.324,11.6957,0.7925,0.5411,2.7145,1.0525,-2.0406,-85.0500,-4.6500,0.6000,5.6216,-12.5169,-1.7095,2.9607,-0.8585,-2.2106,36.0000,-49.2000,-115.5000,6.3700,4.1500,-9.7600,2.7663,-1.2185,-2.0998,-66.1875,22.8750,3.5625,242.0000,69.4375,150.3125,0
1776972403.334,11.8465,0.9553,0.2298,2.4896,1.0701,-2.0704,-84.4500,-2.1000,0.9000,5.6360,-12.5863,-2.5809,2.6532,-0.5383,-2.3566,36.0000,-50.7000,-113.1000,5.5300,3.5500,-8.7800,2.9551,-1.7333,-1.8948,-66.1875,22.8750,3.5625,240.5625,69.0625,152.3125,0
1776972403.339,11.7938,1.0894,0.1006,2.2351,1.0898,-2.0792,-84.4500,-2.1000,0.9000,5.2361,-11.3701,-4.0701,2.1991,-0.2880,-2.5527,35.1000,-53.5500,-111.7500,5.5300,3.5500,-8.7800,2.9551,-1.7333,-1.8948,-66.1875,22.8750,3.5625,240.5625,69.0625,152.3125,0
1776972403.344,11.7938,1.0894,0.1006,2.2351,1.0898,-2.0792,-83.4000,0.0000,0.3000,5.2361,-11.3701,-4.0701,2.1991,-0.2880,-2.5527,35.1000,-53.5500,-111.7500,4.6800,3.0900,-7.6100,2.9692,-2.0889,-1.7955,-69.2500,8.5625,3.5625,239.0000,68.5000,154.3125,0
1776972403.349,11.6334,1.1468,0.2011,1.9854,1.0893,-2.0781,-83.4000,0.0000,0.3000,4.7932,-9.5241,-5.3510,1.7629,-0.0821,-2.7765,33.9000,-56.4000,-109.8000,4.6800,3.0900,-7.6100,2.9692,-2.0889,-1.7955,-69.2500,8.5625,3.5625,239.0000,68.5000,154.3125,0
1776972403.354,11.6334,1.1468,0.2011,1.9854,1.0893,-2.0781,-84.6000,0.0000,1.0500,4.7932,-9.5241,-5.3510,1.7629,-0.0821,-2.7765,33.9000,-56.4000,-109.8000,4.5100,3.2300,-6.8000,2.7762,-2.2667,-1.7639,-69.2500,8.5625,3.5625,237.5625,67.7500,156.3125,0
1776972403.359,11.5999,1.0367,0.2729,1.7896,1.0453,-2.0579,-84.6000,0.0000,1.0500,4.5538,-7.5896,-6.1507,1.5180,0.3168,-3.0089,32.2500,-57.0000,-109.3500,4.5100,3.2300,-6.8000,2.4587,-2.3158,-1.7704,-69.2500,8.5625,3.5625,236.2500,66.9375,158.3125,0
1776972403.365,11.2791,1.0606,0.3232,1.7896,1.0453,-2.0579,-84.0000,2.1000,0.9000,4.5538,-7.5896,-6.1507,1.5180,0.3168,-3.0089,32.2500,-57.0000,-109.3500,4.8400,3.8500,-6.6900,2.4587,-2.3158,-1.7704,-69.2500,8.5625,3.5625,235.2500,66.0625,160.3125,0
1776972403.374,10.9822,0.8356,0.3400,1.6537,0.9542,-2.0323,-83.4000,2.2500,2.8500,4.2569,-5.6838,-6.4500,1.3302,0.7139,-3.2303,32.2500,-57.0000,-109.3500,5.4100,4.6700,-6.7200,2.1413,-2.3584,-1.7977,-69.2500,8.5625,3.5625,235.2500,66.0625,160.3125,0
1776972403.384,10.7859,0.8811,0.2251,1.5828,0.8612,-2.0147,-82.3500,5.4000,2.1000,4.3766,-4.8100,-6.2345,1.2247,1.1125,-3.4552,25.6500,-55.8000,-108.3000,7.4600,5.9800,-7.8200,1.9373,-2.3824,-1.8206,-69.2500,8.5625,3.5625,234.3750,65.1250,162.3125,0
1776972403.389,10.7859,0.8811,0.2251,1.5159,0.7871,-1.9873,-82.3500,5.4000,2.1000,4.5538,-3.8595,-6.6966,1.1858,1.4248,-3.6018,23.4000,-52.2000,-108.0000,7.4600,5.9800,-7.8200,1.9373,-2.3824,-1.8206,-69.2500,8.5625,3.5625,233.5625,64.1250,164.1875,0
1776972403.394,10.7787,1.0678,0.1149,1.5159,0.7871,-1.9873,-82.3500,5.4000,2.1000,4.5538,-3.8595,-6.6966,1.2060,1.6430,-3.6511,23.4000,-52.2000,-108.0000,8.4400,6.6000,-8.2900,1.8217,-2.4795,-1.8555,-64.3750,-4.5000,10.5625,233.5625,64.1250,164.1875,0
1776972403.399,10.7787,1.0678,0.1149,1.4352,0.7173,-1.9425,-82.3500,5.4000,2.1000,4.8985,-2.8659,-6.6726,1.2060,1.6430,-3.6511,19.3500,-49.6500,-106.9500,8.4400,6.6000,-8.2900,1.8217,-2.4795,-1.8555,-64.3750,-4.5000,10.5625,232.8125,62.9375,166.0625,0
1776972403.404,10.6231,1.1420,0.0742,1.4352,0.7173,-1.9425,-81.1500,5.4000,2.5500,5.2409,-2.1811,-6.1555,1.3835,1.7189,-3.5991,19.3500,-49.6500,-106.9500,9.1100,6.9600,-8.5000,1.7519,-2.6900,-1.9144,-64.3750,-4.5000,10.5625,232.8125,62.9375,166.0625,0
1776972403.410,10.6231,1.1420,0.0742,1.3534,0.6555,-1.8850,-81.1500,5.4000,2.5500,5.2409,-2.1811,-6.1555,1.3835,1.7189,-3.5991,14.1000,-48.0000,-106.5000,9.1100,6.9600,-8.5000,1.7202,-2.9921,-2.0093,-64.3750,-4.5000,10.5625,232.0625,61.5625,167.8750,0
1776972403.415,10.4986,1.6161,-0.0335,1.2971,0.6203,-1.8202,-81.3000,7.2000,2.4000,5.4492,-2.1596,-5.3941,1.6254,1.7261,-3.4901,14.1000,-48.0000,-106.5000,8.4800,6.9800,-6.8900,1.7202,-2.9921,-2.0093,-64.3750,-4.5000,10.5625,231.3750,60.0625,169.6875,0
1776972403.424,10.2807,1.8651,0.0622,1.3123,0.5820,-1.7595,-82.2000,8.7000,1.2000,5.7772,-2.2314,-4.6902,1.8106,1.6646,-3.3620,14.1000,-48.0000,-106.5000,7.9300,6.5900,-5.9400,1.6755,-3.2332,-2.1468,-64.3750,-4.5000,10.5625,231.3750,60.0625,169.6875,0
1776972403.434,9.9647,1.8842,0.0431,1.3883,0.5329,-1.6939,-81.9000,10.5000,2.8500,5.8347,-2.6264,-4.3646,1.8727,1.6523,-3.2444,14.1000,-48.0000,-106.5000,7.8100,6.3000,-5.5400,1.6122,-3.3194,-2.3006,-64.3750,-4.5000,10.5625,230.7500,58.4375,171.4375,0
1776972403.439,9.9647,1.8842,0.0431,1.3883,0.5329,-1.6939,-81.9000,10.5000,2.8500,5.8347,-2.6264,-4.3646,1.8727,1.6523,-3.2444,9.7500,-46.5000,-103.6500,7.8100,6.3000,-5.5400,1.6122,-3.3194,-2.3006,-64.3750,-4.5000,10.5625,230.7500,58.4375,171.4375,0
1776972403.444,9.6774,1.5251,-0.0790,1.4562,0.4655,-1.6108,-82.5000,10.3500,2.7000,5.8514,-3.6895,-4.3000,1.8490,1.7083,-3.2205,9.7500,-46.5000,-103.6500,7.9800,6.0700,-5.5600,1.4901,-3.2681,-2.4598,-52.0000,-9.2500,15.5000,230.3750,56.8125,173.1250,0
1776972403.449,9.6774,1.5251,-0.0790,1.4562,0.4655,-1.6108,-82.5000,10.3500,2.7000,5.8514,-3.6895,-4.3000,1.8490,1.7083,-3.2205,8.7000,-47.5500,-104.7000,7.9800,6.0700,-5.5600,1.4901,-3.2681,-2.4598,-52.0000,-9.2500,15.5000,230.3750,56.8125,173.1250,0
1776972403.454,9.2703,1.6065,-0.3280,1.5351,0.4053,-1.5012,-80.4000,12.0000,1.8000,5.8945,-4.9033,-4.3718,1.7896,1.8013,-3.2626,8.7000,-47.5500,-104.7000,8.1800,5.9300,-5.8400,1.3374,-3.1645,-2.6365,-52.0000,-9.2500,15.5000,230.2500,55.2500,174.8125,0
1776972403.459,9.2703,1.6065,-0.3280,1.5351,0.4053,-1.5012,-80.4000,12.0000,1.8000,5.8945,-4.9033,-4.3718,1.7896,1.8013,-3.2626,7.0500,-45.9000,-102.3000,8.1800,5.9300,-5.8400,1.2370,-3.0761,-2.7936,-52.0000,-9.2500,15.5000,230.2500,53.6875,176.4375,0
1776972403.465,9.0525,1.0534,-0.6656,1.6070,0.3376,-1.3638,-81.3000,12.6000,0.9000,5.5378,-5.3391,-4.5562,1.7211,1.9199,-3.3470,7.0500,-45.9000,-102.3000,8.7400,5.9400,-6.3600,1.2370,-3.0761,-2.7936,-52.0000,-9.2500,15.5000,230.5000,52.0625,178.0625,0
1776972403.474,8.8873,0.3926,-0.8116,1.6465,0.3600,-1.1977,-81.1500,13.2000,2.1000,5.5282,-5.4253,-4.6328,1.6558,2.0771,-3.4267,5.4000,-45.7500,-101.8500,9.4000,6.0500,-6.9500,1.1683,-3.0020,-2.9234,-52.0000,-9.2500,15.5000,230.5000,52.0625,178.0625,0
1776972403.484,8.6910,0.2203,-0.6536,1.5380,0.3917,-0.9843,-81.1500,13.2000,2.1000,5.8035,-5.3151,-4.6567,1.5969,2.2735,-3.5106,5.4000,-45.7500,-101.8500,10.6100,6.7900,-8.0200,1.1301,-2.9845,-3.0314,-52.0000,-9.2500,15.5000,230.8125,50.4375,179.5625,0
1776972403.489,8.6910,0.2203,-0.6536,1.5380,0.3917,-0.9843,-81.1500,13.2000,2.1000,5.8035,-5.3151,-4.6567,1.5969,2.2735,-3.5106,4.5000,-43.2000,-99.4500,10.6100,6.7900,-8.0200,1.1301,-2.9845,-3.0314,-52.0000,-9.2500,15.5000,231.1875,48.7500,-179.0000,0
1776972403.494,8.4731,0.4381,-1.1803,1.4821,0.4141,-0.7698,-80.2500,16.5000,-0.1500,6.2297,-5.1332,-4.6256,1.5657,2.4608,-3.5823,4.5000,-43.2000,-99.4500,10.7600,7.0700,-7.8800,1.1530,-3.0500,-3.1329,-49.5625,-12.5625,17.0000,231.1875,48.7500,-179.0000,0
1776972403.499,8.4731,0.4381,-1.1803,1.4821,0.4141,-0.7698,-80.2500,16.5000,-0.1500,6.2297,-5.1332,-4.6256,1.5657,2.4608,-3.5823,3.9000,-42.0000,-98.2500,10.7600,7.0700,-7.8800,1.1530,-3.0500,-3.1329,-49.5625,-12.5625,17.0000,231.1875,48.7500,-179.0000,0
1776972403.504,7.8745,0.9840,-1.7717,1.5300,0.4754,-0.6270,-80.8500,18.0000,0.6000,6.5721,-4.8363,-4.3574,1.6233,2.6079,-3.6782,3.9000,-42.0000,-98.2500,11.2100,7.1000,-7.9200,1.2370,-3.1536,-3.2398,-49.5625,-12.5625,17.0000,231.5000,46.9375,-177.7500,0
1776972403.509,7.6423,1.8244,-1.8292,1.5300,0.4754,-0.6270,-80.8500,18.0000,0.6000,6.5721,-4.8363,-4.3574,1.6233,2.6079,-3.6782,2.2500,-40.9500,-96.3000,11.2100,7.1000,-7.9200,1.3581,-3.2179,-3.3565,-49.5625,-12.5625,17.0000,231.8125,45.0625,-176.6250,0
1776972403.515,7.6423,1.8244,-1.8292,1.5130,0.5446,-0.4882,-80.1000,18.0000,0.3000,6.8163,-4.1276,-4.2784,1.7349,2.6990,-3.7617,1.0500,-40.5000,-95.7000,12.8800,6.6100,-7.6900,1.3581,-3.2179,-3.3565,-49.5625,-12.5625,17.0000,223.0000,43.1250,-175.6875,0
1776972403.525,7.3334,2.0925,-2.0207,1.4839,0.5868,-0.3565,-80.2500,16.5000,0.4500,6.8977,-3.4189,-4.4532,1.8335,2.7544,-3.8187,-0.4500,-37.2000,-91.9500,13.5700,6.4400,-7.2700,1.4355,-3.2834,-3.4732,-49.5625,-12.5625,17.0000,220.7500,41.1250,-174.8750,0
1776972403.535,7.0461,2.1165,-1.6831,1.4226,0.6198,-0.2185,-81.9000,17.1000,-0.3000,6.9623,-3.1268,-4.7190,1.8985,2.7747,-3.8368,-0.4500,-37.2000,-91.9500,13.8100,6.2700,-6.5100,1.4628,-3.3587,-3.5714,-49.5625,-12.5625,17.0000,220.7500,41.1250,-174.8750,0
1776972403.540,7.0318,1.5874,-1.0295,1.3507,0.6254,-0.0711,-81.9000,17.1000,-0.3000,7.1156,-3.3998,-5.0925,1.9044,2.7749,-3.8069,-0.4500,-37.2000,-91.9500,13.8100,6.2700,-6.5100,1.4628,-3.3587,-3.5714,-49.5625,-12.5625,17.0000,218.5625,39.0000,-174.1250,0
1776972403.545,7.0318,1.5874,-1.0295,1.3507,0.6254,-0.0711,-80.1000,18.7500,1.3500,7.1156,-3.3998,-5.0925,1.9044,2.7749,-3.8069,-2.4000,-33.0000,-91.8000,13.7800,6.0300,-5.7000,1.4912,-3.4263,-3.6237,-40.8750,-21.8750,26.0000,218.5625,39.0000,-174.1250,0
1776972403.550,7.0102,1.1349,-0.9457,1.2910,0.6046,0.0789,-80.1000,18.7500,1.3500,7.5633,-4.0606,-4.7094,1.9023,2.7470,-3.7046,-2.4000,-33.0000,-91.8000,13.7800,6.0300,-5.7000,1.4912,-3.4263,-3.6237,-40.8750,-21.8750,26.0000,218.5625,39.0000,-174.1250,0
1776972403.555,7.0102,1.1349,-0.9457,1.2910,0.6046,0.0789,-81.7500,18.1500,-0.1500,7.5633,-4.0606,-4.7094,1.9023,2.7470,-3.7046,-4.8000,-32.4000,-90.3000,14.2800,4.3800,-4.8600,1.5490,-3.4088,-3.5954,-40.8750,-21.8750,26.0000,216.3125,36.9375,-173.6250,0
1776972403.560,6.7780,1.0391,-1.2210,1.2772,0.6115,0.2270,-81.7500,18.1500,-0.1500,7.8745,-5.0494,-4.4724,1.8794,2.7568,-3.5210,-4.8000,-32.4000,-90.3000,14.2800,4.3800,-4.8600,1.5981,-3.3161,-3.4983,-40.8750,-21.8750,26.0000,214.1875,34.8750,-173.2500,0
1776972403.565,6.7780,1.0391,-1.2210,1.2772,0.6115,0.2270,-80.8500,19.0500,0.6000,7.8745,-5.0494,-4.4724,1.8794,2.7568,-3.5210,-4.3500,-31.0500,-89.7000,14.5300,2.9800,-4.8900,1.5981,-3.3161,-3.4983,-40.8750,-21.8750,26.0000,212.1875,32.8750,-173.0000,0
1776972403.575,6.7301,1.3527,-1.4222,1.2670,0.6667,0.3805,-80.8500,19.0500,0.6000,8.6335,-5.8873,-3.4165,1.7453,2.7563,-3.2719,-3.6000,-31.5000,-88.9500,14.7500,1.5100,-4.8700,1.5370,-3.2070,-3.3281,-40.8750,-21.8750,26.0000,210.3750,31.0000,-172.8750,0
1776972403.585,6.9264,1.8172,-1.7597,1.2396,0.6912,0.5119,-81.7500,18.1500,-1.6500,9.1602,-7.3502,-3.0143,1.5178,2.7259,-2.9641,-5.5500,-30.9000,-87.4500,14.9900,-0.8000,-4.7600,1.3395,-3.1110,-3.0500,-40.8750,-21.8750,26.0000,210.3750,31.0000,-172.8750,0
1776972403.590,7.4077,2.3679,-1.8675,1.2289,0.6107,0.6275,-81.7500,18.1500,-1.6500,9.3182,-8.2552,-2.4804,1.0275,2.6358,-2.6185,-5.5500,-30.9000,-87.4500,14.9900,-0.8000,-4.7600,1.3395,-3.1110,-3.0500,-40.8750,-21.8750,26.0000,210.3750,31.0000,-172.8750,0
1776972403.595,7.4077,2.3679,-1.8675,1.2289,0.6107,0.6275,-81.3000,18.4500,-0.1500,9.3182,-8.2552,-2.4804,1.0275,2.6358,-2.6185,-5.5500,-30.9000,-87.4500,15.0200,-1.5400,-4.4800,1.0450,-3.0151,-2.6704,-23.8750,-8.8750,24.0000,208.8750,29.1250,-172.6875,0
1776972403.600,7.3023,2.2649,-1.7933,1.1762,0.5444,0.7115,-81.3000,18.4500,-0.1500,9.4786,-8.5162,-2.0087,0.4623,2.5442,-2.3049,-5.5500,-30.9000,-87.4500,15.0200,-1.5400,-4.4800,1.0450,-3.0151,-2.6704,-23.8750,-8.8750,24.0000,208.8750,29.1250,-172.6875,0
1776972403.605,7.3023,2.2649,-1.7933,1.1762,0.5444,0.7115,-82.2000,17.4000,-0.9000,9.4786,-8.5162,-2.0087,0.4623,2.5442,-2.3049,-4.3500,-28.8000,-85.8000,15.1700,-1.8600,-4.2800,0.6425,-2.8743,-2.2417,-23.8750,-8.8750,24.0000,207.6250,27.3750,-172.5000,0
1776972403.612,7.6567,2.4421,-1.4461,0.9646,0.5196,0.8015,-82.2000,17.4000,-0.9000,9.4044,-8.0397,-1.8411,-0.1503,2.4768,-2.0211,-4.3500,-28.8000,-85.8000,15.5600,-1.9300,-4.1300,0.2334,-2.7096,-1.8097,-23.8750,-8.8750,24.0000,206.6875,25.7500,-172.2500,0
1776972403.617,7.8243,2.7438,-1.3431,0.7120,0.4855,0.8881,-81.7500,18.4500,-0.4500,9.9766,-6.8761,-1.9537,-0.5633,2.6079,-1.7483,-2.1000,-28.5000,-84.7500,15.5600,-1.9300,-4.1300,0.2334,-2.7096,-1.8097,-23.8750,-8.8750,24.0000,206.0000,24.3125,-171.8750,0
1776972403.625,8.0972,3.4836,-1.4796,0.4618,0.4676,0.9523,-81.3000,17.4000,-0.4500,9.9766,-6.8761,-1.9537,-0.5633,2.6079,-1.7483,-2.1000,-28.0500,-84.3000,15.7300,-1.7300,-2.8500,-0.1549,-2.5209,-1.3864,-23.8750,-8.8750,24.0000,205.6250,22.8750,-171.4375,0
1776972403.635,8.5305,4.1300,-1.6807,0.2454,0.4679,0.9971,-81.9000,16.3500,-0.6000,10.6494,-5.5641,-1.8627,-0.9076,2.7981,-1.5066,-2.2500,-25.2000,-83.1000,15.7400,-1.6800,-2.1000,-0.4745,-2.4053,-0.9981,-23.8750,-8.8750,24.0000,205.6250,22.8750,-171.4375,0
1776972403.640,8.5305,4.1300,-1.6807,0.2454,0.4679,0.9971,-81.9000,16.3500,-0.6000,11.2934,-3.9361,-2.0830,-1.1836,2.8658,-1.2638,-2.2500,-25.2000,-83.1000,15.7400,-1.6800,-2.1000,-0.4745,-2.4053,-0.9981,-23.8750,-8.8750,24.0000,205.6250,22.8750,-171.4375,0
1776972403.645,8.7532,4.7477,-1.7645,0.0906,0.4226,0.9995,-82.3500,15.6000,0.6000,11.2934,-3.9361,-2.0830,-1.1836,2.8658,-1.2638,-3.1500,-23.2500,-82.2000,16.3400,-1.4100,-1.6900,-0.7101,-2.1937,-0.6818,-33.5000,2.2500,34.2500,205.3750,21.6250,-171.0000,0
1776972403.650,8.7532,4.7477,-1.7645,0.0906,0.4226,0.9995,-82.3500,15.6000,0.6000,11.8010,-2.5786,-2.4804,-1.3582,2.8376,-0.9649,-3.1500,-23.2500,-82.2000,16.3400,-1.4100,-1.6900,-0.7101,-2.1937,-0.6818,-33.5000,2.2500,34.2500,205.3125,20.5000,-170.5000,0
1776972403.655,8.8681,5.5905,-1.4269,-0.1324,0.3565,1.0024,-82.5000,16.2000,37.9500,11.8010,-2.5786,-2.4804,-1.3582,2.8376,-0.9649,-3.1500,-23.2500,-82.2000,17.5800,-1.2000,-1.2700,-0.8694,-1.9471,-0.4396,-33.5000,2.2500,34.2500,205.3125,20.5000,-170.5000,0
1776972403.660,8.8681,5.5905,-1.4269,-0.1324,0.3565,1.0024,-82.5000,16.2000,-0.4500,12.4211,-0.8811,-3.0454,-1.4325,2.5594,-0.5782,-3.1500,-23.2500,-82.2000,17.5800,-1.2000,-1.2700,-0.9490,-1.7759,-0.2662,-33.5000,2.2500,34.2500,205.3750,19.5000,-169.9375,0
1776972403.667,8.8178,6.0669,-0.3903,-0.5572,0.3437,1.0166,-82.5000,16.2000,-0.4500,12.7372,-0.2562,-3.9792,-1.3987,2.1101,-0.2118,-2.8500,-21.0000,-81.4500,17.8900,-1.0200,-1.2500,-0.9490,-1.7759,-0.2662,-33.5000,2.2500,34.2500,205.4375,18.5625,-169.4375,0
1776972403.675,8.2839,6.0956,0.9050,-0.9190,0.3730,1.0365,-83.8500,13.9500,0.6000,12.6055,-0.7566,-5.4564,-1.2582,1.6292,0.0554,-3.4500,-20.7000,-81.3000,17.0000,-1.0900,-0.3900,-0.9567,-1.6995,-0.1789,-33.5000,2.2500,34.2500,205.5000,17.6875,-169.0000,0
1776972403.685,7.8913,5.4468,1.7430,-1.1181,0.5356,1.0853,-83.8500,13.9500,0.6000,12.5528,0.0287,-4.1970,-0.9118,1.1644,0.2510,-1.9500,-17.4000,-82.0500,13.8300,-2.0700,2.1300,-0.8988,-1.6210,-0.1811,-33.5000,2.2500,34.2500,205.5000,17.6875,-169.0000,0
1776972403.690,7.8913,5.4468,1.7430,-1.1181,0.5356,1.0853,-83.1000,13.6500,1.0500,12.5528,0.0287,-4.1970,-0.9118,1.1644,0.2510,-1.9500,-17.4000,-82.0500,13.8300,-2.0700,2.1300,-0.8988,-1.6210,-0.1811,-33.5000,2.2500,34.2500,205.5000,17.6875,-169.0000,0
1776972403.695,8.0972,4.8315,1.5467,-0.9899,0.6576,1.1724,-83.4000,12.0000,1.0500,11.3246,1.2043,-2.5163,-0.1519,0.6952,0.4962,-3.0000,-14.7000,-83.1000,13.4300,-2.8600,3.2000,-0.7843,-1.3832,-0.2509,-32.2500,0.3750,49.1875,205.5000,16.8750,-168.5625,0
1776972403.700,8.0972,4.8315,1.5467,-0.9899,0.6576,1.1724,-83.4000,12.0000,1.0500,11.3246,1.2043,-2.5163,-0.1519,0.6952,0.4962,-3.0000,-14.7000,-83.1000,13.4300,-2.8600,3.2000,-0.7843,-1.3832,-0.2509,-32.2500,0.3750,49.1875,205.5000,16.8750,-168.5625,0
1776972403.705,8.1690,4.7740,0.4310,-0.7229,0.6238,1.2356,-83.4000,12.0000,1.0500,11.4227,2.5738,-2.8946,0.2878,0.3331,0.7333,-3.0000,-14.7000,-83.1000,14.4100,-3.1900,3.4500,-0.6021,-0.9130,-0.3349,-32.2500,0.3750,49.1875,205.3750,16.3750,-168.1875,0
1776972403.711,7.8338,5.0446,-0.5842,-0.7229,0.6238,1.2356,-83.7000,12.6000,1.2000,11.4227,2.5738,-2.8946,0.2878,0.3331,0.7333,-3.0000,-14.7000,-83.1000,15.6200,-3.2500,3.6400,-0.4407,-0.3971,-0.3578,-32.2500,0.3750,49.1875,205.2500,16.1250,-167.8750,0
1776972403.716,7.8338,5.0446,-0.5842,-0.4274,0.5854,1.2558,-84.1500,10.9500,3.6000,11.7675,2.5857,-2.9401,0.2670,-0.1391,1.0160,-3.0000,-14.7000,-83.1000,15.6200,-3.2500,3.6400,-0.4407,-0.3971,-0.3578,-32.2500,0.3750,49.1875,205.1250,16.0000,-167.6250,0
1776972403.725,7.6758,5.4636,-1.6520,-0.1809,0.5532,1.2516,-84.1500,10.9500,3.6000,11.9973,1.2186,-1.8531,0.1375,-0.6875,1.3009,0.1500,-3.4500,-92.7000,15.4200,-4.1200,3.0500,-0.3687,-0.0938,-0.2869,-32.2500,0.3750,49.1875,205.0625,16.0625,-167.4375,0
1776972403.735,8.8250,5.8586,-1.6041,-0.0136,0.5388,1.2769,-83.2500,8.4000,3.4500,11.7364,0.9912,-0.0814,0.2124,-0.9838,1.5266,-0.1500,-2.7000,-96.3000,4.5400,-1.7300,6.1200,-0.3622,0.0709,-0.2400,-32.2500,0.3750,49.1875,205.0625,16.0625,-167.4375,0
1776972403.740,10.7907,5.0159,-1.0630,-0.0136,0.5388,1.2769,-83.2500,8.4000,3.4500,11.7364,0.9912,-0.0814,0.2124,-0.9838,1.5266,-0.1500,-2.7000,-96.3000,4.5400,-1.7300,6.1200,-0.3622,0.0709,-0.2400,-32.2500,0.3750,49.1875,205.0000,16.1875,-167.3125,0
1776972403.745,10.7907,5.0159,-1.0630,0.1114,0.4820,1.3688,-83.2500,8.4000,3.4500,9.4858,2.4565,1.7645,0.7064,-0.6387,1.2718,4.5000,1.6500,-104.1000,2.6600,8.6900,-7.6900,-0.1407,0.2454,-0.0044,-29.0000,-1.8750,58.2500,205.0000,16.1875,-167.3125,0
1776972403.750,13.1346,3.1077,-0.3998,0.1114,0.4820,1.3688,-83.2500,6.4500,3.4500,9.4858,2.4565,1.7645,0.7064,-0.6387,1.2718,4.5000,1.6500,-104.1000,2.6600,8.6900,-7.6900,-0.1407,0.2454,-0.0044,-29.0000,-1.8750,58.2500,205.3125,17.3750,-168.3125,0
1776972403.755,13.1346,3.1077,-0.3998,0.3208,0.4652,1.4498,-83.2500,6.4500,3.4500,10.0461,3.8020,4.1946,1.0754,-0.2196,0.7186,4.9500,5.2500,-109.3500,-4.6900,-1.6200,-21.6700,1.5970,2.0028,0.9087,-29.0000,-1.8750,58.2500,205.3125,17.3750,-168.3125,0
1776972403.760,14.3461,1.3144,-0.3783,0.3635,0.3738,1.5164,-83.2500,6.4500,3.4500,10.0461,3.8020,4.1946,1.0754,-0.2196,0.7186,4.9500,5.2500,-109.3500,-4.6900,-1.6200,-21.6700,0.8999,2.3420,1.1345,-29.0000,-1.8750,58.2500,205.6875,18.7500,-168.8750,0
1776972403.766,14.3461,1.3144,-0.3783,0.3635,0.3738,1.5164,-84.0000,6.0000,3.7500,14.4083,5.7341,3.7757,0.6734,0.5356,-0.0378,4.9500,5.2500,-109.3500,-1.0800,-2.9100,-19.6300,0.8999,2.3420,1.1345,-29.0000,-1.8750,58.2500,206.0000,20.0000,-169.0625,0
1776972403.775,14.2766,-0.2322,-2.5642,0.7770,0.3507,1.4991,-84.0000,6.0000,3.7500,17.4274,5.8778,-2.3511,-0.7157,0.6755,0.0381,4.9500,5.2500,-109.3500,0.3700,-2.1100,-5.6100,0.1953,2.1664,0.7265,-29.0000,-1.8750,58.2500,205.8125,21.5625,-168.3750,0
1776972403.785,16.2375,1.1205,-7.2784,1.3243,0.1863,1.4314,-83.2500,6.4500,3.4500,16.8600,2.8515,-4.9967,-1.9819,0.5359,0.5982,7.0500,17.7000,-117.6000,5.1900,0.2800,-10.9600,-0.9872,2.9267,-0.1745,-29.0000,-1.8750,58.2500,205.8125,21.5625,-168.3750,0
1776972403.790,17.4705,4.3455,-7.1156,0.7815,0.0858,1.2409,-84.0000,5.2500,3.4500,16.8600,2.8515,-4.9967,-1.9819,0.5359,0.5982,8.2500,19.0500,-120.3000,5.1900,0.2800,-10.9600,-0.9872,2.9267,-0.1745,-29.0000,-1.8750,58.2500,205.8125,21.5625,-168.3750,0
1776972403.795,17.4705,4.3455,-7.1156,0.7815,0.0858,1.2409,-84.0000,5.2500,3.4500,16.1154,0.7638,-4.9368,-1.6723,0.4159,0.8170,8.2500,19.0500,-120.3000,15.2000,-1.4500,-13.4700,-1.4781,4.0732,-0.0665,-33.5000,-0.2500,61.7500,205.7500,23.8125,-167.3125,0
1776972403.800,16.4553,5.7150,-3.2561,-0.0061,0.2417,0.9854,-84.1500,4.9500,4.3500,16.1154,0.7638,-4.9368,-1.6723,0.4159,0.8170,7.3500,19.9500,-127.6500,15.2000,-1.4500,-13.4700,-1.4781,4.0732,-0.0665,-33.5000,-0.2500,61.7500,205.7500,23.8125,-167.3125,0
1776972403.805,16.4553,5.7150,-3.2561,-0.0061,0.2417,0.9854,-84.1500,4.9500,4.3500,16.6589,-0.5555,-7.2353,-0.5316,0.2292,1.0448,7.3500,19.9500,-127.6500,29.2500,20.7600,-30.9700,-1.4781,4.0732,-0.0665,-33.5000,-0.2500,61.7500,205.6250,26.0000,-166.2500,0
1776972403.812,11.5065,4.5346,0.6105,-0.7658,0.7059,0.7957,-84.7500,4.0500,2.7000,14.8704,-1.5083,-5.0350,0.1268,-0.1476,1.3025,6.1500,25.5000,-132.1500,29.0200,7.2200,-9.5000,-1.8577,3.4634,0.8596,-33.5000,-0.2500,61.7500,206.1250,27.9375,-165.2500,0
1776972403.816,7.4268,1.1779,4.2928,-0.7658,0.7059,0.7957,-84.1500,4.2000,3.6000,14.8704,-1.5083,-5.0350,0.1268,-0.1476,1.3025,6.1500,25.5000,-132.1500,29.0200,7.2200,-9.5000,-1.8577,3.4634,0.8596,-33.5000,-0.2500,61.7500,206.4375,28.9375,-165.1250,0
1776972403.825,7.4268,1.1779,4.2928,-1.6990,1.1234,0.8074,-84.1500,4.2000,3.6000,10.5560,-5.9592,-1.9249,0.5620,-0.7711,1.5210,6.1500,25.5000,-132.1500,7.8100,3.7300,-13.1100,-0.2618,1.6962,0.6654,-33.5000,-0.2500,61.7500,206.5000,29.6875,-165.2500,0
1776972403.835,6.7852,-2.9712,4.8195,-1.5218,1.1255,1.0126,-85.5000,3.6000,3.7500,6.9839,-7.1060,0.5626,1.1093,-0.9625,1.3784,6.6000,35.4000,-134.7000,11.4200,-3.9400,-13.4300,0.2083,1.2621,0.4014,-33.5000,-0.2500,61.7500,206.5000,29.6875,-165.2500,0
1776972403.840,7.0581,-5.3319,2.3727,-0.3323,0.9057,1.2044,-86.1000,3.9000,2.1000,4.8315,-5.6288,-1.3240,1.2409,-1.3957,1.2140,10.3500,35.7000,-133.6500,11.4200,-3.9400,-13.4300,0.2083,1.2621,0.4014,-33.5000,-0.2500,61.7500,206.5000,29.6875,-165.2500,0
1776972403.845,7.6471,-5.0589,-0.6153,-0.3323,0.9057,1.2044,-86.1000,3.9000,2.1000,4.8315,-5.6288,-1.3240,1.2409,-1.3957,1.2140,10.3500,35.7000,-133.6500,5.0500,-4.8500,-10.3500,-0.1767,0.7658,0.3698,-49.0625,1.8750,63.0000,206.6875,30.1250,-165.2500,0
1776972403.850,7.6471,-5.0589,-0.6153,0.3936,0.8175,1.3360,-86.1000,3.9000,2.1000,7.9416,-3.5506,-0.6105,1.4373,-0.8580,0.9840,8.4000,34.2000,-132.3000,5.0500,-4.8500,-10.3500,-0.1767,0.7658,0.3698,-49.0625,1.8750,63.0000,206.6875,30.1250,-165.2500,0
1776972403.855,9.6079,-5.8419,-1.4102,0.3936,0.8175,1.3360,-86.1000,3.9000,2.1000,7.9416,-3.5506,-0.6105,1.4373,-0.8580,0.9840,8.4000,34.2000,-132.3000,7.5200,5.3700,-8.2000,-0.3425,0.5018,0.1898,-49.0625,1.8750,63.0000,206.8125,30.4375,-165.0625,0
1776972403.861,9.6079,-5.8419,-1.4102,0.0978,0.7546,1.5604,-85.9500,4.0500,2.7000,10.0987,-1.4796,2.6935,-0.0240,-0.6808,1.1543,12.6000,30.7500,-129.3000,7.5200,5.3700,-8.2000,-0.3218,0.3545,0.2116,-49.0625,1.8750,63.0000,207.0000,30.6875,-164.9375,0
1776972403.866,10.3789,-7.9224,-0.8787,-0.7962,0.1849,1.5671,-85.9500,4.0500,2.7000,10.0987,-1.4796,2.6935,-0.0240,-0.6808,1.1543,12.6000,30.7500,-129.3000,6.1500,3.3700,-7.9000,-0.3218,0.3545,0.2116,-49.0625,1.8750,63.0000,207.1250,30.8750,-164.8125,0
1776972403.875,10.5441,-7.1347,0.5674,-1.4133,-0.0914,1.3739,-84.7500,3.6000,2.7000,10.3334,-1.8531,4.4484,-0.7650,-0.7472,1.3424,10.8000,20.5500,-127.0500,5.5600,1.7100,-8.9700,-0.2389,0.2978,0.1996,-49.0625,1.8750,63.0000,207.1875,31.0000,-164.8125,0
1776972403.886,9.7923,-3.4453,2.4086,-1.7776,-0.0397,1.0565,-86.2500,4.0500,3.4500,8.7508,-1.4605,3.3591,-0.1964,-0.4708,1.1895,10.8000,20.5500,-127.0500,4.8100,2.4200,-7.6500,-0.0360,0.2149,0.1516,-49.0625,1.8750,63.0000,207.1875,31.0000,-164.8125,0
1776972403.890,9.7923,-3.4453,2.4086,-1.7776,-0.0397,1.0565,-83.8500,5.8500,5.8500,8.7819,0.1484,1.4365,-0.0176,-0.3126,1.0600,14.7000,6.1500,-124.5000,4.8100,2.4200,-7.6500,-0.0360,0.2149,0.1516,-49.0625,1.8750,63.0000,207.2500,31.1250,-164.9375,0
1776972403.895,8.8107,0.5148,5.3702,-1.6022,0.1039,0.8188,-83.8500,5.8500,5.8500,8.7819,0.1484,1.4365,-0.0176,-0.3126,1.0600,14.7000,6.1500,-124.5000,4.8700,3.1800,-7.6900,0.1233,0.1549,0.1909,-54.7500,1.5625,60.5000,207.2500,31.1250,-164.9375,0
1776972403.900,8.8107,0.5148,5.3702,-1.6022,0.1039,0.8188,-83.1000,2.7000,5.8500,9.3733,-0.0096,0.8404,-0.2302,-0.1823,0.9819,16.8000,3.4500,-125.1000,4.8700,3.1800,-7.6900,0.1233,0.1549,0.1909,-54.7500,1.5625,60.5000,207.3125,31.2500,-165.2500,0
1776972403.905,8.3103,3.1005,6.9576,-0.9241,0.3898,0.6667,-83.1000,2.7000,5.8500,9.3733,-0.0096,0.8404,-0.2302,-0.1823,0.9819,16.8000,3.4500,-125.1000,4.4200,2.6200,-7.5600,0.4385,0.1854,0.2302,-54.7500,1.5625,60.5000,207.3125,31.2500,-165.2500,0
1776972403.913,8.9735,3.9433,6.0334,-0.9241,0.3898,0.6667,-79.0500,2.4000,6.4500,9.7037,-2.6456,1.1492,-0.4978,-0.1841,0.8948,16.9500,6.0000,-124.6500,4.8000,1.9500,-8.0300,0.3883,0.2978,0.2073,-54.7500,1.5625,60.5000,207.3125,31.4375,-165.5000,0
1776972403.918,8.9735,3.9433,6.0334,-0.0197,0.6254,0.5729,-76.6500,1.0500,7.6500,9.5481,-3.8331,0.4262,-0.6094,-0.2342,0.8154,17.5500,6.1500,-122.2500,4.8000,1.9500,-8.0300,0.3883,0.2978,0.2073,-54.7500,1.5625,60.5000,207.3750,31.6250,-165.6875,0
1776972403.926,8.9352,4.0630,3.3998,0.8148,0.7213,0.5231,-76.6500,1.0500,7.6500,9.5481,-3.8331,0.4262,-0.6094,-0.2342,0.8154,17.5500,6.1500,-122.2500,5.5800,2.0000,-8.0700,0.2498,0.2913,0.1811,-54.7500,1.5625,60.5000,207.4375,31.8125,-165.8750,0
1776972403.936,8.8945,2.0830,1.0870,1.4168,0.7490,0.4788,-76.6500,0.0000,7.3500,9.2703,-3.1460,-0.1676,-0.4959,-0.3448,0.7629,16.9500,6.3000,-122.1000,5.6400,2.2300,-8.0300,0.3000,0.2847,0.1713,-54.7500,1.5625,60.5000,207.4375,31.8125,-165.8750,0
1776972403.940,8.8945,2.0830,1.0870,1.4168,0.7490,0.4788,-76.6500,0.0000,7.3500,9.7037,-1.4748,0.5531,-0.2822,-0.3547,0.6957,16.9500,6.3000,-122.1000,5.6400,2.2300,-8.0300,0.3000,0.2847,0.1713,-54.7500,1.5625,60.5000,207.4375,31.8125,-165.8750,0
1776972403.945,9.2368,-0.3926,0.3136,1.5148,0.7450,0.4250,-76.6500,0.0000,7.3500,9.7037,-1.4748,0.5531,-0.2822,-0.3547,0.6957,16.9500,6.3000,-122.1000,5.6300,2.0300,-7.9600,0.3960,0.2771,0.1713,-56.3750,2.2500,59.7500,207.4375,31.9375,-166.1250,0
1776972403.950,9.2368,-0.3926,0.3136,1.5148,0.7450,0.4250,-75.1500,-1.0500,7.3500,10.2280,-0.0790,0.8882,-0.2569,-0.3456,0.6233,17.4000,8.2500,-123.6000,5.6300,2.0300,-7.9600,0.3960,0.2771,0.1713,-56.3750,2.2500,59.7500,207.4375,31.9375,-166.1250,0
1776972403.955,9.9407,-0.9744,-0.2538,1.2225,0.6995,0.3885,-75.1500,-1.0500,7.3500,10.2280,-0.0790,0.8882,-0.3008,-0.3656,0.5433,17.4000,8.2500,-123.6000,5.3200,2.0100,-7.9500,0.3752,0.2618,0.1669,-56.3750,2.2500,59.7500,207.4375,32.1250,-166.3750,0
1776972403.960,9.9407,-0.9744,-0.2538,1.2225,0.6995,0.3885,-74.5500,-1.6500,7.9500,10.2879,0.4334,0.9194,-0.3008,-0.3656,0.5433,15.6000,8.2500,-123.6000,5.3200,2.0100,-7.9500,0.3229,0.2618,0.1756,-56.3750,2.2500,59.7500,207.5000,32.3125,-166.6250,0
1776972403.966,9.8114,-0.3974,-0.6704,0.7165,0.5444,0.3856,-74.5500,-1.6500,7.9500,10.3046,0.4022,0.5004,-0.2894,-0.3698,0.5121,15.6000,8.2500,-123.6000,5.5700,1.7000,-8.2500,0.3229,0.2618,0.1756,-56.3750,2.2500,59.7500,207.5000,32.4375,-166.7500,0
1776972403.976,9.5529,-0.5650,-0.8021,0.2721,0.4053,0.4032,-74.8500,-1.3500,6.7500,9.9503,-0.3831,-0.4286,-0.2190,-0.3922,0.5239,14.7000,9.1500,-124.5000,6.0800,1.1000,-8.6700,0.2389,0.2378,0.1538,-56.3750,2.2500,59.7500,207.5000,32.4375,-166.7500,0
1776972403.986,9.4715,-0.6297,-0.3926,-0.2324,0.3581,0.4085,-75.1500,-3.0000,6.9000,9.6295,-1.4868,-0.4573,-0.1617,-0.4221,0.5081,13.3500,10.8000,-126.4500,5.6800,1.9200,-7.9100,0.1298,0.2138,0.1058,-56.3750,2.2500,59.7500,207.5000,32.5625,-166.8750,0
1776972403.990,9.6582,-0.9505,0.2634,-0.7999,0.2827,0.3960,-74.4000,-3.4500,6.9000,9.6295,-1.4868,-0.4573,-0.1617,-0.4221,0.5081,11.5500,11.5500,-126.7500,5.6800,1.9200,-7.9100,0.1298,0.2138,0.1058,-56.3750,2.2500,59.7500,207.5625,32.6875,-166.9375,0
1776972403.995,9.6582,-0.9505,0.2634,-0.7999,0.2827,0.3960,-74.4000,-3.4500,6.9000,9.3254,-2.0255,-0.1508,-0.2294,-0.4788,0.5399,11.5500,11.5500,-126.7500,5.5800,2.0200,-8.0200,0.1451,0.2269,0.0873,-57.0000,3.0625,60.0625,207.5625,32.6875,-166.9375,0
1776972404.000,9.9479,-1.7885,1.0199,-1.3534,0.2158,0.4034,-73.3500,-3.6000,8.7000,9.3254,-2.0255,-0.1508,-0.2294,-0.4788,0.5399,11.5500,11.5500,-126.7500,5.5800,2.0200,-8.0200,0.1451,0.2269,0.0873,-57.0000,3.0625,60.0625,207.5625,32.6875,-166.9375,0
1776972404.005,9.9479,-1.7885,1.0199,-1.3534,0.2158,0.4034,-73.3500,-3.6000,8.7000,9.1339,-2.1835,-0.4118,-0.3251,-0.6214,0.6640,11.5500,11.5500,-126.7500,5.6100,1.7800,-7.9700,0.1953,0.2389,0.0742,-57.0000,3.0625,60.0625,207.5625,32.8125,-167.0625,0
1776972404.011,10.2472,-2.6025,1.7502,-1.6811,0.1116,0.4210,-74.4000,-3.4500,5.8500,9.1339,-2.1835,-0.4118,-0.3251,-0.6214,0.6640,11.2500,10.5000,-127.8000,5.6100,1.7800,-7.9700,0.2138,0.2367,0.0524,-57.0000,3.0625,60.0625,207.5000,33.0000,-167.1875,0
1776972404.017,10.2472,-2.6025,1.7502,-1.6811,0.1116,0.4210,-74.4000,-3.4500,5.8500,9.0812,-2.5402,-0.5435,-0.3491,-0.6163,0.7488,11.5500,9.3000,-127.5000,5.7800,1.8400,-7.9600,0.2138,0.2367,0.0524,-57.0000,3.0625,60.0625,207.5000,33.1250,-167.3125,0
1776972404.026,9.9958,-1.5826,2.0518,-1.7882,0.0059,0.4572,-73.8000,-3.6000,6.0000,9.3470,-2.4157,-0.6584,-0.4223,-0.5780,0.7938,11.4000,6.4500,-129.0000,5.6800,1.7900,-8.0200,0.2040,0.2345,0.0393,-57.0000,3.0625,60.0625,207.5000,33.1250,-167.3125,0
1776972404.036,9.7444,-0.3711,2.0734,-1.7464,-0.1069,0.5228,-73.8000,-3.6000,6.0000,9.5600,-2.1261,-0.7183,-0.4309,-0.5412,0.8103,12.1500,4.6500,-127.9500,5.7100,1.8200,-7.9500,0.2247,0.2803,0.0142,-57.0000,3.0625,60.0625,207.4375,33.2500,-167.3750,0
1776972404.041,9.6271,0.4693,1.9561,-1.6755,-0.1609,0.5841,-73.9500,-6.1500,6.1500,9.5600,-2.1261,-0.7183,-0.4309,-0.5412,0.8103,12.1500,4.6500,-127.9500,5.7100,1.8200,-7.9500,0.2247,0.2803,0.0142,-57.0000,3.0625,60.0625,207.4375,33.2500,-167.3750,0
1776972404.046,9.6271,0.4693,1.9561,-1.6755,-0.1609,0.5841,-73.9500,-6.1500,6.1500,9.6654,-1.7693,-0.5555,-0.4692,-0.5231,0.8188,12.1500,4.6500,-127.9500,5.6800,1.9400,-7.8200,0.2193,0.3054,-0.0131,-58.0625,4.8750,60.1875,207.3750,33.4375,-167.5000,0
1776972404.051,9.2847,1.0870,2.1883,-1.5298,-0.1665,0.5905,-74.5500,-7.2000,4.9500,9.6654,-1.7693,-0.5555,-0.4692,-0.5231,0.8188,12.1500,4.6500,-127.9500,5.6800,1.9400,-7.8200,0.2193,0.3054,-0.0131,-58.0625,4.8750,60.1875,207.3750,33.4375,-167.5000,0
1776972404.056,9.2847,1.0870,2.1883,-1.5298,-0.1665,0.5905,-74.5500,-7.2000,4.9500,9.5720,-1.6568,-0.2251,-0.4634,-0.4868,0.7949,12.1500,4.6500,-127.9500,5.7000,2.0000,-7.7700,0.1582,0.2182,0.0033,-58.0625,4.8750,60.1875,207.3125,33.5625,-167.5625,0
1776972404.061,9.2464,1.3336,2.5714,-1.3102,-0.1324,0.5806,-73.0500,-7.2000,6.4500,9.5720,-1.6568,-0.2251,-0.4634,-0.4868,0.7949,12.1500,4.6500,-127.9500,5.7000,2.0000,-7.7700,0.1200,0.1636,0.0251,-58.0625,4.8750,60.1875,207.3125,33.6875,-167.5625,0
1776972404.067,9.0668,1.4940,2.9305,-1.3102,-0.1324,0.5806,-73.0500,-7.2000,6.4500,9.4403,-1.8052,-0.2945,-0.4327,-0.4143,0.7349,13.0500,5.5500,-129.6000,5.7200,1.7600,-7.8900,0.1200,0.1636,0.0251,-58.0625,4.8750,60.1875,207.3125,33.6875,-167.5625,0
1776972404.075,9.0668,1.4940,2.9305,-0.9875,-0.0490,0.5665,-74.4000,-7.3500,6.9000,9.3661,-1.7526,-0.1915,-0.4255,-0.4181,0.6819,14.8500,4.8000,-130.6500,5.6500,1.8200,-7.8300,0.1189,0.1833,0.0142,-58.0625,4.8750,60.1875,207.3125,33.8125,-167.6250,0
1776972404.080,9.0094,1.6065,3.0167,-0.5950,0.0336,0.5609,-73.2000,-6.9000,5.8500,9.3661,-1.7526,-0.1915,-0.4255,-0.4181,0.6819,14.8500,4.8000,-130.6500,5.6500,1.8200,-7.8300,0.1571,0.2280,0.0153,-58.0625,4.8750,60.1875,207.2500,33.9375,-167.6875,0
1776972404.087,8.9471,1.6975,2.9233,-0.2097,0.0906,0.5726,-73.2000,-6.9000,5.8500,9.4739,-1.8627,0.5722,-0.3259,-0.2955,0.6550,15.9000,4.5000,-130.3500,5.4800,1.9200,-7.9100,0.1571,0.2280,0.0153,-58.0625,4.8750,60.1875,207.2500,33.9375,-167.6875,0
1776972404.092,8.9471,1.6975,2.9233,-0.2097,0.0906,0.5726,-73.2000,-8.5500,6.6000,9.4499,-2.0327,-0.2993,-0.2673,-0.4461,0.5902,15.9000,4.5000,-130.3500,5.4800,1.9200,-7.9100,0.2083,0.3512,0.0142,-58.0000,5.6875,58.6875,207.2500,34.1250,-167.8125,0
1776972404.097,8.9328,1.5323,2.6121,0.1279,0.1527,0.5820,-73.2000,-8.5500,6.6000,9.4499,-2.0327,-0.2993,-0.2673,-0.4461,0.5902,17.2500,5.4000,-129.4500,5.5400,1.9800,-7.7000,0.2083,0.3512,0.0142,-58.0000,5.6875,58.6875,207.2500,34.1250,-167.8125,0
1776972404.102,8.9328,1.5323,2.6121,0.1279,0.1527,0.5820,-73.0500,-7.9500,5.7000,9.4571,-2.2817,-0.5578,-0.2033,-0.5289,0.5454,17.2500,5.4000,-129.4500,5.5400,1.9800,-7.7000,0.1931,0.3480,0.0371,-58.0000,5.6875,58.6875,207.1875,34.3125,-167.8750,0
1776972404.107,8.9830,1.2450,2.1644,0.3725,0.2038,0.5929,-73.0500,-7.9500,5.7000,9.4571,-2.2817,-0.5578,-0.2033,-0.5289,0.5454,17.2500,5.4000,-129.4500,5.7000,2.0800,-7.4200,0.1931,0.3480,0.0371,-58.0000,5.6875,58.6875,207.1875,34.3125,-167.8750,0
1776972404.111,8.9830,1.2450,2.1644,0.3725,0.2038,0.5929,-71.8500,-8.7000,6.4500,9.4715,-2.0758,-0.6536,-0.0887,-0.5934,0.5135,17.2500,5.4000,-129.4500,5.7000,2.0800,-7.4200,0.1385,0.1713,0.0862,-58.0000,5.6875,58.6875,207.1875,34.4375,-167.9375,0
1776972404.117,9.1004,0.9529,1.8052,0.5089,0.2300,0.6051,-71.8500,-8.7000,6.4500,9.4715,-2.0758,-0.6536,-0.0887,-0.5934,0.5135,18.1500,4.8000,-129.6000,5.5600,1.9600,-7.5200,0.1385,0.1713,0.0862,-58.0000,5.6875,58.6875,207.2500,34.5625,-168.0625,0
1776972404.126,9.2584,0.5650,1.4964,0.5710,0.2326,0.6227,-71.8500,-8.7000,6.4500,9.5672,-1.8818,-0.7757,0.0029,-0.6145,0.4836,16.5000,4.6500,-129.7500,5.7200,1.9100,-7.6600,0.1025,0.1876,0.1134,-58.0000,5.6875,58.6875,207.2500,34.5625,-168.0625,0
1776972404.136,9.3996,0.2993,1.2234,0.5636,0.2084,0.6446,-72.9000,-8.5500,6.6000,9.6414,-1.5610,-0.8547,0.0799,-0.6019,0.4429,16.6500,4.5000,-129.9000,5.7800,1.9900,-7.5700,0.0840,0.2094,0.1309,-58.0000,5.6875,58.6875,207.3125,34.6875,-168.1250,0
1776972404.141,9.3996,0.2993,1.2234,0.5636,0.2084,0.6446,-72.3000,-7.5000,6.0000,9.6558,-1.4150,-0.7135,0.1098,-0.5854,0.4274,16.6500,4.5000,-129.9000,5.7800,1.9900,-7.5700,0.0840,0.2094,0.1309,-58.0000,5.6875,58.6875,207.3125,34.6875,-168.1250,0
1776972404.146,9.5744,0.0934,1.0678,0.5169,0.1751,0.6563,-72.3000,-7.5000,6.0000,9.6558,-1.4150,-0.7135,0.1098,-0.5854,0.4274,16.6500,4.5000,-130.3500,5.9800,1.8800,-7.6300,0.0709,0.1309,0.1560,-58.6875,5.6875,58.6875,207.3750,34.7500,-168.1875,0
1776972404.151,9.5744,0.0934,1.0678,0.5169,0.1751,0.6563,-73.3500,-8.4000,6.4500,9.6702,-1.4653,-0.6345,0.1258,-0.5737,0.4415,16.6500,4.5000,-130.3500,5.9800,1.8800,-7.6300,0.0709,0.1309,0.1560,-58.6875,5.6875,58.6875,207.3750,34.7500,-168.1875,0
1776972404.156,9.6750,0.0694,0.8691,0.4269,0.1383,0.6670,-73.3500,-8.4000,6.4500,9.6702,-1.4653,-0.6345,0.1258,-0.5737,0.4415,14.8500,4.0500,-130.3500,5.7800,1.9200,-7.6000,0.0633,0.0033,0.1942,-58.6875,5.6875,58.6875,207.4375,34.8125,-168.2500,0
1776972404.161,9.6750,0.0694,0.8691,0.4269,0.1383,0.6670,-72.6000,-8.4000,5.2500,9.7516,-1.7765,-0.4310,0.1194,-0.5963,0.4748,14.8500,4.0500,-130.3500,5.7800,1.9200,-7.6000,0.0415,-0.0894,0.2127,-58.6875,5.6875,58.6875,207.5625,34.8125,-168.3750,0
1776972404.167,9.7683,0.1844,0.6464,0.2896,0.0981,0.6678,-72.6000,-8.4000,5.2500,9.7516,-1.7765,-0.4310,0.1194,-0.5963,0.4748,14.8500,4.0500,-130.3500,5.7800,1.6900,-7.7200,0.0415,-0.0894,0.2127,-58.6875,5.6875,58.6875,207.6875,34.8125,-168.4375,0
1776972404.176,9.7300,0.4812,0.4429,0.1498,0.0682,0.6574,-71.7000,-6.9000,5.1000,9.8569,-1.8316,-0.4262,0.0922,-0.6539,0.5484,15.6000,3.7500,-131.1000,6.0900,1.4600,-8.0300,0.0033,-0.0742,0.2040,-58.6875,5.6875,58.6875,207.6875,34.8125,-168.4375,0
1776972404.186,9.5624,0.7949,0.6249,0.0160,0.0504,0.6379,-71.7000,-8.5500,6.9000,9.8426,-1.8914,-0.4238,0.0464,-0.6696,0.6145,15.7500,3.4500,-131.2500,6.0000,1.5500,-7.7500,-0.0349,-0.0556,0.1833,-58.6875,5.6875,58.6875,207.7500,34.7500,-168.5000,0
1776972404.191,9.4643,1.1133,0.7302,0.0160,0.0504,0.6379,-72.6000,-8.7000,6.7500,9.7779,-1.9968,-0.2274,-0.0093,-0.6872,0.6566,15.7500,3.4500,-131.2500,6.0000,1.5500,-7.7500,-0.0349,-0.0556,0.1833,-58.6875,5.6875,58.6875,207.8750,34.8125,-168.5000,0
1776972404.196,9.4643,1.1133,0.7302,-0.1271,0.0341,0.6123,-72.6000,-8.7000,6.7500,9.7779,-1.9968,-0.2274,-0.0093,-0.6872,0.6566,15.3000,4.2000,-131.8500,5.8000,1.5100,-7.8100,-0.0535,0.0273,0.1516,-60.0000,7.7500,58.2500,207.8750,34.8125,-168.5000,0
1776972404.201,9.4068,1.2115,0.9768,-0.1271,0.0341,0.6123,-70.9500,-9.3000,5.5500,9.6822,-1.9273,-0.1628,-0.0546,-0.7069,0.6710,15.3000,4.2000,-131.8500,5.8000,1.5100,-7.8100,-0.0535,0.0273,0.1516,-60.0000,7.7500,58.2500,207.9375,34.8750,-168.5000,0
1776972404.206,9.4068,1.2115,0.9768,-0.2326,0.0245,0.5852,-70.9500,-9.3000,5.5500,9.6822,-1.9273,-0.1628,-0.0546,-0.7069,0.6710,17.2500,2.7000,-131.5500,5.8600,1.5600,-7.6700,-0.0720,0.0829,0.1102,-60.0000,7.7500,58.2500,207.9375,34.8750,-168.5000,0
1776972404.213,9.4451,1.1875,1.3599,-0.2854,0.0051,0.5633,-70.9500,-9.3000,5.5500,9.6702,-1.4102,0.0958,-0.0458,-0.7056,0.6664,16.5000,3.4500,-132.3000,5.8000,1.4900,-7.6200,-0.1014,0.1298,0.0873,-60.0000,7.7500,58.2500,208.0000,34.9375,-168.5000,0
1776972404.218,9.4451,1.1875,1.3599,-0.2854,0.0051,0.5633,-70.9500,-9.3000,5.5500,9.8713,-1.5012,-0.1173,-0.0991,-0.7085,0.6736,16.5000,3.4500,-132.3000,5.8000,1.4900,-7.6200,-0.1014,0.1298,0.0873,-60.0000,7.7500,58.2500,208.0625,35.0625,-168.4375,0
1776972404.226,9.4140,1.1564,1.7885,-0.2614,-0.0144,0.5407,-71.8500,-7.9500,5.7000,9.9168,-1.8004,-0.4764,-0.0943,-0.7432,0.6622,16.5000,3.4500,-132.3000,5.3200,1.6400,-7.5100,-0.1200,0.2182,0.0578,-60.0000,7.7500,58.2500,208.0625,35.2500,-168.3750,0
1776972404.236,9.4355,0.8068,2.2458,-0.1503,-0.0274,0.5143,-71.2500,-9.7500,5.1000,9.8857,-2.2529,-0.0192,-0.0176,-0.7957,0.6696,17.8500,2.4000,-133.3500,4.9300,2.4200,-8.2400,-0.1014,0.2902,0.0753,-60.0000,7.7500,58.2500,208.0625,35.2500,-168.3750,0
1776972404.241,9.3877,0.4669,2.4612,-0.0005,-0.0216,0.4916,-70.8000,-9.1500,5.2500,9.8857,-2.2529,-0.0192,-0.0176,-0.7957,0.6696,17.8500,2.4000,-133.3500,4.9300,2.4200,-8.2400,-0.1014,0.2902,0.0753,-60.0000,7.7500,58.2500,208.1250,35.4375,-168.3750,0
1776972404.246,9.3877,0.4669,2.4612,-0.0005,-0.0216,0.4916,-70.8000,-9.1500,5.2500,9.9288,-2.4517,0.2059,0.0482,-0.8796,0.6877,18.6000,3.1500,-133.3500,6.2400,1.0000,-7.4000,0.0033,0.3687,0.0742,-59.2500,7.3750,59.0000,208.1250,35.4375,-168.3750,0
1776972404.251,9.4475,0.5363,2.4708,0.1148,-0.0056,0.4799,-70.0500,-9.4500,5.2500,9.9288,-2.4517,0.2059,0.0482,-0.8796,0.6877,18.6000,3.1500,-133.3500,6.2400,1.0000,-7.4000,0.0033,0.3687,0.0742,-59.2500,7.3750,59.0000,208.1250,35.6875,-168.3750,0
1776972404.256,9.4475,0.5363,2.4708,0.1148,-0.0056,0.4799,-70.0500,-9.4500,5.2500,9.7851,-2.4493,0.2610,0.0773,-0.9449,0.7149,20.4000,2.4000,-134.1000,5.4300,2.1200,-7.9600,0.0535,0.3763,0.0447,-59.2500,7.3750,59.0000,208.1250,35.6875,-168.3750,0
1776972404.261,9.2105,0.8021,2.3774,0.1807,0.0179,0.4730,-71.2500,-9.7500,5.5500,9.7851,-2.4493,0.2610,0.0773,-0.9449,0.7149,19.2000,3.3000,-133.5000,5.4300,2.1200,-7.9600,0.1113,0.2476,0.0927,-59.2500,7.3750,59.0000,208.1250,35.8125,-168.5000,0
1776972404.267,9.2105,0.8021,2.3774,0.1807,0.0179,0.4730,-71.2500,-9.7500,5.5500,9.8162,-2.4421,0.4669,0.0602,-0.9968,0.7360,19.2000,3.3000,-133.5000,6.6800,0.9400,-7.2600,0.1113,0.2476,0.0927,-59.2500,7.3750,59.0000,208.1250,36.0000,-168.5625,0
1776972404.276,9.4212,1.2019,2.3391,0.2446,0.0061,0.4487,-70.8000,-9.1500,4.9500,10.1251,-2.5833,0.7230,-0.0011,-1.0403,0.7754,19.3500,1.2000,-134.1000,5.9500,1.5500,-7.7000,0.1451,0.3534,0.0502,-59.2500,7.3750,59.0000,208.1250,36.0000,-168.5625,0
1776972404.286,9.5193,1.5778,1.9848,0.2502,0.0077,0.4074,-70.8000,-10.3500,5.2500,10.2089,-2.6911,0.8452,-0.0533,-1.0467,0.8226,19.3500,1.2000,-134.1000,5.5400,2.2500,-8.1000,0.1036,0.3491,0.0535,-59.2500,7.3750,59.0000,208.1250,36.1875,-168.6250,0
1776972404.291,9.7995,1.7502,1.7597,0.2262,0.0035,0.3461,-71.8500,-10.3500,3.7500,10.2089,-2.6911,0.8452,-0.0533,-1.0467,0.8226,21.0000,1.2000,-134.1000,5.5400,2.2500,-8.1000,0.1036,0.3491,0.0535,-59.2500,7.3750,59.0000,208.1250,36.1875,-168.6250,0
1776972404.296,9.7995,1.7502,1.7597,0.2262,0.0035,0.3461,-71.8500,-10.3500,3.7500,10.4722,-2.5402,0.0359,-0.0845,-1.0483,0.8258,21.0000,1.0500,-135.0000,5.0600,1.5500,-7.4200,0.1189,0.4363,0.0818,-60.7500,6.2500,58.2500,208.1250,36.4375,-168.6875,0
1776972404.301,10.3334,1.8220,1.4676,0.1836,-0.0091,0.3016,-71.8500,-10.3500,3.7500,10.4722,-2.5402,0.0359,-0.0845,-1.0483,0.8258,20.8500,0.9000,-136.2000,5.0600,1.5500,-7.4200,0.1189,0.4363,0.0818,-60.7500,6.2500,58.2500,208.1250,36.4375,-168.6875,0
1776972404.306,10.3334,1.8220,1.4676,0.1836,-0.0091,0.3016,-71.8500,-10.3500,3.7500,11.4922,-2.3607,-1.4222,-0.0930,-1.0603,0.8482,20.8500,0.9000,-136.2000,5.3900,1.4500,-9.1400,0.1353,0.6163,0.1004,-60.7500,6.2500,58.2500,208.1250,36.8125,-168.7500,0
1776972404.312,10.7978,1.6161,1.1349,0.1663,-0.0344,0.2675,-71.2500,-10.5000,4.8000,11.4922,-2.3607,-1.4222,-0.0930,-1.0603,0.8482,21.7500,1.5000,-135.6000,4.7600,0.6500,-7.5700,0.0382,0.8029,0.1167,-60.7500,6.2500,58.2500,208.1250,37.2500,-168.7500,0
1776972404.317,10.7619,1.2091,0.8619,0.1556,-0.0794,0.2681,-71.2500,-10.5000,4.8000,11.8298,-2.2362,-2.3631,-0.0767,-1.1338,0.8484,21.7500,1.5000,-135.6000,4.7600,0.6500,-7.5700,0.0382,0.8029,0.1167,-60.7500,6.2500,58.2500,208.1875,37.8125,-168.7500,0
1776972404.327,10.5776,0.9481,0.3903,0.1175,-0.1529,0.2657,-69.7500,-7.8000,4.3500,11.6526,-1.7813,-2.4397,-0.0951,-1.1788,0.8300,22.2000,0.1500,-137.2500,6.3800,1.6200,-7.8100,0.0120,0.9697,0.1680,-60.7500,6.2500,58.2500,208.1875,37.8125,-168.7500,0
1776972404.337,10.2783,1.0056,0.2107,-0.0083,-0.1924,0.2721,-72.0000,-9.3000,4.8000,11.2647,-1.3336,-2.3870,-0.1908,-1.2324,0.8005,22.5000,-0.3000,-137.1000,6.2200,1.5000,-7.6100,0.0327,0.9872,0.2247,-60.7500,6.2500,58.2500,208.2500,38.3750,-168.7500,0
1776972404.341,10.2783,1.0056,0.2107,-0.0083,-0.1924,0.2721,-71.2500,-10.9500,5.1000,11.2647,-1.3336,-2.3870,-0.1908,-1.2324,0.8005,22.5000,-0.3000,-137.1000,6.2200,1.5000,-7.6100,0.0327,0.9872,0.2247,-60.7500,6.2500,58.2500,208.3125,38.8125,-168.8125,0
1776972404.346,10.2855,1.2426,-0.0958,-0.1399,-0.2494,0.2936,-71.2500,-10.9500,5.1000,10.6231,-1.0199,-1.9465,-0.2555,-1.2998,0.7480,22.5000,-0.3000,-137.1000,5.8900,0.9300,-7.9200,0.0000,0.8574,0.2367,-61.8750,7.6875,58.1875,208.3125,38.8125,-168.8125,0
1776972404.351,10.2855,1.2426,-0.0958,-0.1399,-0.2494,0.2936,-70.8000,-9.9000,4.5000,10.6231,-1.0199,-1.9465,-0.2555,-1.2998,0.7480,20.7000,0.3000,-139.2000,5.8900,0.9300,-7.9200,0.0000,0.8574,0.2367,-61.8750,7.6875,58.1875,208.3750,39.3750,-168.7500,0
1776972404.357,9.9024,0.9960,0.2107,-0.2870,-0.2838,0.3099,-70.8000,-9.9000,4.5000,10.2759,-0.7781,-1.6783,-0.2707,-1.2822,0.7328,20.7000,0.3000,-139.2000,5.9800,1.2200,-7.6300,0.0011,0.9817,0.1593,-61.8750,7.6875,58.1875,208.3750,39.3750,-168.7500,0
1776972404.361,9.9024,0.9960,0.2107,-0.2870,-0.2838,0.3099,-70.5000,-10.0500,2.8500,10.2759,-0.7781,-1.6783,-0.2646,-1.2969,0.7735,17.8500,0.1500,-139.3500,5.9800,1.2200,-7.6300,0.0240,1.1476,0.0513,-61.8750,7.6875,58.1875,208.3750,40.0000,-168.6875,0
1776972404.367,9.6582,1.3503,0.4286,-0.3008,-0.3070,0.3038,-70.5000,-10.0500,2.8500,10.2376,-0.6752,-1.4222,-0.2646,-1.2969,0.7735,17.8500,0.1500,-139.3500,6.0600,1.2300,-7.4800,0.0240,1.1476,0.0513,-61.8750,7.6875,58.1875,208.2500,40.7500,-168.5625,0
1776972404.376,9.6558,1.6879,0.5507,-0.2454,-0.2923,0.2787,-68.7000,-10.0500,4.0500,10.2663,-1.6616,-0.9720,-0.3762,-1.4069,0.9012,19.0500,-0.1500,-140.8500,6.5900,1.2900,-6.8800,0.0142,1.3952,-0.0142,-61.8750,7.6875,58.1875,208.2500,40.7500,-168.5625,0
1776972404.386,9.3948,2.2601,0.6297,-0.0890,-0.2683,0.2182,-70.3500,-10.3500,3.7500,10.6279,-1.9393,-0.8356,-0.3611,-1.5186,1.0339,18.6000,-0.4500,-140.8500,7.0100,1.0800,-6.6600,-0.0687,1.6068,-0.0218,-61.8750,7.6875,58.1875,208.1875,41.6250,-168.3750,0
1776972404.391,9.3948,2.2601,0.6297,-0.0890,-0.2683,0.2182,-70.3500,-10.3500,3.7500,10.9559,-1.9465,-0.6656,-0.4146,-1.6086,1.1767,18.6000,-0.4500,-140.8500,7.0100,1.0800,-6.6600,-0.0687,1.6068,-0.0218,-61.8750,7.6875,58.1875,208.1875,41.6250,-168.3750,0
1776972404.396,9.3254,2.6767,0.7230,0.1444,-0.2678,0.1343,-70.3500,-10.3500,3.7500,10.9559,-1.9465,-0.6656,-0.4146,-1.6086,1.1767,18.6000,-0.4500,-140.8500,5.5600,1.0100,-7.1500,-0.0731,1.8850,-0.0731,-65.0625,8.0625,54.6875,208.0625,42.6875,-168.1250,0
1776972404.401,9.3254,2.6767,0.7230,0.1444,-0.2678,0.1343,-70.3500,-10.3500,3.7500,11.4658,-2.1404,-0.4429,-0.6726,-1.7376,1.3315,18.6000,-0.4500,-140.8500,5.5600,1.0100,-7.1500,-0.0731,1.8850,-0.0731,-65.0625,8.0625,54.6875,208.0625,42.6875,-168.1250,0
1776972404.406,9.7276,3.2058,1.0104,0.3264,-0.2689,-0.0091,-71.1000,-10.6500,3.7500,11.4658,-2.1404,-0.4429,-0.6726,-1.7376,1.3315,18.6000,-0.4500,-140.8500,5.7500,1.6400,-6.7600,-0.0687,2.3126,-0.0774,-65.0625,8.0625,54.6875,232.6875,43.9375,-167.7500,0
1776972404.413,10.1418,3.8403,1.0271,0.3264,-0.2689,-0.0091,-71.1000,-10.6500,3.7500,12.7707,-2.2769,-0.1772,-0.8745,-1.8413,1.4930,20.4000,-3.9000,-144.4500,5.4900,2.2100,-6.5700,-0.2356,2.7151,0.0731,-65.0625,8.0625,54.6875,232.1875,45.3750,-167.3750,0
1776972404.418,10.1418,3.8403,1.0271,0.4088,-0.2976,-0.1695,-71.1000,-10.6500,3.7500,12.7707,-2.2769,-0.1772,-0.8745,-1.8413,1.4930,20.4000,-3.9000,-144.4500,5.4900,2.2100,-6.5700,-0.2356,2.7151,0.0731,-65.0625,8.0625,54.6875,231.6875,47.1875,-166.8125,0
1776972404.427,10.1370,4.4867,1.1157,0.4487,-0.3651,-0.3024,-70.5000,-9.7500,3.3000,14.1952,-2.4541,0.7709,-1.0960,-1.9803,1.6681,21.7500,-3.7500,-144.9000,5.7100,2.4000,-7.1700,-0.3905,3.2452,0.1756,-65.0625,8.0625,54.6875,231.6875,47.1875,-166.8125,0
1776972404.437,10.1706,4.8674,1.4988,0.4866,-0.4327,-0.4410,-70.3500,-9.1500,4.2000,14.6166,-2.5259,2.5690,-1.4634,-2.1181,1.8570,22.5000,-4.0500,-145.9500,5.8800,1.6600,-7.1400,-0.5869,3.6128,0.1844,-65.0625,8.0625,54.6875,231.3750,49.1250,-166.0625,0
1776972404.441,10.0987,5.0446,1.7933,0.4866,-0.4327,-0.4410,-70.3500,-9.1500,4.2000,15.4713,-1.4772,3.0646,-1.6097,-2.2015,2.0051,28.5000,-5.7000,-147.6000,5.8800,1.6600,-7.1400,-0.5869,3.6128,0.1844,-65.0625,8.0625,54.6875,231.3750,49.1250,-166.0625,0
1776972404.447,10.0987,5.0446,1.7933,0.5364,-0.4967,-0.6225,-68.8500,-8.4000,3.0000,15.4713,-1.4772,3.0646,-1.6097,-2.2015,2.0051,28.5000,-5.7000,-147.6000,7.1600,1.7700,-6.6200,-0.7516,3.8212,0.2651,-70.1875,9.1875,50.3750,231.1875,51.2500,-165.1875,0
1776972404.452,9.6151,4.9488,1.2210,0.5788,-0.5937,-0.8138,-68.8500,-8.4000,3.0000,16.0531,1.6783,2.0614,-1.7211,-2.2191,1.9873,28.5000,-5.7000,-147.6000,7.1600,1.7700,-6.6200,-0.7516,3.8212,0.2651,-70.1875,9.1875,50.3750,231.1875,51.2500,-165.1875,0
1776972404.457,9.6151,4.9488,1.2210,0.5788,-0.5937,-0.8138,-70.3500,-9.4500,3.7500,16.0531,1.6783,2.0614,-1.7211,-2.2191,1.9873,28.5000,-5.7000,-147.6000,8.2100,0.8300,-7.3000,-1.0766,4.1975,0.3360,-70.1875,9.1875,50.3750,231.2500,53.5000,-164.0625,0
1776972404.461,9.6175,3.5650,0.7039,0.6899,-0.7266,-1.0184,-70.3500,-9.4500,3.7500,15.0883,3.6488,0.7326,-1.8189,-2.3633,1.8828,33.9000,-8.7000,-148.3500,8.2100,0.8300,-7.3000,-1.0396,4.3131,0.5563,-70.1875,9.1875,50.3750,231.1250,55.8750,-162.9375,0
1776972404.467,9.6175,3.5650,0.7039,0.6899,-0.7266,-1.0184,-69.6000,-8.4000,3.4500,15.0883,3.6488,0.7326,-1.8189,-2.3633,1.8828,33.9000,-8.7000,-148.3500,7.5700,4.4200,-8.0600,-1.0396,4.3131,0.5563,-70.1875,9.1875,50.3750,230.8750,58.2500,-161.8750,0
1776972404.477,9.6414,2.1907,0.2801,0.8841,-0.7938,-1.2265,-70.2000,-9.3000,3.3000,13.6302,3.8618,-0.7326,-1.8927,-2.4152,1.6587,36.3000,-6.0000,-151.3500,5.4300,1.3400,-7.9400,-0.9567,4.2433,0.6796,-70.1875,9.1875,50.3750,230.8750,58.2500,-161.8750,0
1776972404.487,10.1730,0.8092,-0.0048,0.8836,-0.9835,-1.4264,-70.2000,-9.3000,3.3000,12.2200,0.8428,-2.1189,-1.8618,-2.5085,1.4778,37.5000,-1.6500,-151.8000,5.5100,-0.3500,-3.8800,-0.7156,4.8291,0.6916,-70.1875,9.1875,50.3750,230.3125,60.9375,-160.6250,0
1776972404.492,10.1993,-0.5602,-0.5842,0.5614,-1.1263,-1.6454,-70.2000,-9.3000,3.3000,11.8968,-3.1149,-2.0255,-1.5519,-2.7009,1.3408,38.1000,0.7500,-156.0000,5.5100,-0.3500,-3.8800,-0.7156,4.8291,0.6916,-70.1875,9.1875,50.3750,230.0000,64.3750,-158.1250,0
1776972404.497,10.1993,-0.5602,-0.5842,0.5614,-1.1263,-1.6454,-70.8000,-7.5000,1.2000,11.8968,-3.1149,-2.0255,-1.5519,-2.7009,1.3408,38.1000,0.7500,-156.0000,20.0600,4.0700,-9.8400,-1.1596,6.4141,0.5847,-79.0000,9.1875,38.7500,230.0000,64.3750,-158.1250,0
1776972404.501,10.6350,-1.4246,-0.4693,0.0586,-1.2452,-1.8157,-70.8000,-7.5000,1.2000,11.5496,-4.0845,-0.8356,-1.0323,-2.7590,1.3094,41.4000,4.0500,-156.7500,20.0600,4.0700,-9.8400,-1.1596,6.4141,0.5847,-79.0000,9.1875,38.7500,230.0000,64.3750,-158.1250,0
1776972404.506,10.6350,-1.4246,-0.4693,0.0586,-1.2452,-1.8157,-70.8000,-7.5000,1.2000,11.5496,-4.0845,-0.8356,-0.7925,-2.7054,1.3486,41.4000,4.0500,-156.7500,15.9100,7.9800,-15.1000,-1.7071,7.1089,1.1912,-79.0000,9.1875,38.7500,229.7500,68.2500,-155.0000,0
1776972404.511,10.2520,-2.1380,0.0359,-0.3714,-1.2561,-1.8908,-70.8000,-7.5000,1.2000,10.9511,-3.3519,-1.7789,-0.7925,-2.7054,1.3486,41.4000,4.0500,-156.7500,15.9100,7.9800,-15.1000,0.0382,4.9676,1.8206,-79.0000,9.1875,38.7500,228.0625,71.1875,-154.3125,0
1776972404.518,10.1155,-2.0614,0.3855,-0.3714,-1.2561,-1.8908,-70.5000,-6.1500,1.3500,11.1737,-2.9401,-4.7764,-0.8378,-2.9055,1.4418,43.2000,6.7500,-159.1500,13.2800,6.8900,-6.3800,0.0382,4.9676,1.8206,-79.0000,9.1875,38.7500,226.2500,74.0000,-153.7500,0
1776972404.527,10.1155,-2.0614,0.3855,-0.6787,-1.1511,-1.9036,-69.7500,-3.4500,1.8000,9.3685,-4.6352,-5.4660,-0.8175,-2.9870,1.3528,42.9000,5.7000,-159.1500,16.7700,4.8300,-13.3900,0.5061,4.8247,1.8348,-79.0000,9.1875,38.7500,226.2500,74.0000,-153.7500,0
1776972404.537,11.1426,-1.4437,1.2019,-0.7829,-1.0429,-1.8993,-71.5500,-3.6000,1.2000,8.8298,-6.5769,-5.8969,-0.6334,-2.9657,1.1724,43.6500,3.9000,-159.3000,12.3800,5.6900,-9.7200,-0.3502,4.9524,1.7573,-79.0000,9.1875,38.7500,225.1250,76.9375,-152.1250,0
1776972404.542,11.1426,-1.4437,1.2019,-0.7293,-0.9718,-1.8932,-71.5500,-3.6000,1.2000,8.8298,-6.5769,-5.8969,-0.6334,-2.9657,1.1724,43.6500,3.9000,-159.3000,12.3800,5.6900,-9.7200,-0.3502,4.9524,1.7573,-79.0000,9.1875,38.7500,225.1250,76.9375,-152.1250,0
1776972404.547,11.7100,-0.9673,1.0726,-0.7293,-0.9718,-1.8932,-71.7000,-2.7000,2.5500,6.7971,-7.2760,-5.7365,-0.3962,-2.9172,0.9891,43.2000,1.0500,-156.0000,9.8700,4.6500,-10.9900,-1.2523,5.2578,1.6788,-89.1875,11.0625,19.8750,224.6250,79.8750,-148.3125,0
1776972404.552,11.7100,-0.9673,1.0726,-0.6203,-0.8644,-1.9145,-71.7000,-2.7000,2.5500,6.7971,-7.2760,-5.7365,-0.3962,-2.9172,0.9891,43.2000,1.0500,-156.0000,9.8700,4.6500,-10.9900,-1.2523,5.2578,1.6788,-89.1875,11.0625,19.8750,224.6250,79.8750,-148.3125,0
1776972404.557,12.0141,-0.3974,0.4980,-0.6203,-0.8644,-1.9145,-73.0500,-3.3000,0.4500,4.6424,-7.2185,-5.7485,-0.2329,-2.7027,0.7719,42.6000,-4.9500,-154.6500,8.7700,1.6400,-14.9400,-2.1162,4.7004,1.4377,-89.1875,11.0625,19.8750,224.9375,82.5000,-141.6875,0
1776972404.562,12.0141,-0.3974,0.4980,-0.4242,-0.6912,-1.9119,-73.0500,-3.3000,0.4500,4.6424,-7.2185,-5.7485,-0.2329,-2.7027,0.7719,42.6000,-4.9500,-154.6500,8.7700,1.6400,-14.9400,-2.5155,3.2081,0.8083,-89.1875,11.0625,19.8750,225.8125,84.1250,-175.6875,0
1776972404.568,11.7388,1.3431,-0.0431,-0.1194,-0.5263,-1.9441,-72.9000,-1.5000,0.6000,2.4828,-7.8578,-5.4971,-0.3062,-2.3299,0.4538,42.6000,-4.9500,-154.6500,8.8700,-0.4800,-16.4000,-2.5155,3.2081,0.8083,-89.1875,11.0625,19.8750,226.2500,84.8125,-176.2500,0
1776972404.577,11.9135,2.2410,-0.3950,0.2523,-0.3944,-2.0235,-72.9000,-1.5000,0.6000,1.8771,-7.1323,-6.0669,-0.6049,-2.0049,0.0757,39.3000,-24.1500,-143.7000,8.1300,-0.3700,-12.4800,-1.7999,0.7396,1.1126,-89.1875,11.0625,19.8750,226.2500,84.8125,-176.2500,0
1776972404.587,11.6047,1.4413,-0.1891,0.5625,-0.3509,-2.0971,-72.9000,1.9500,1.0500,0.4645,-6.7086,-6.5745,-0.9193,-1.7922,0.0189,33.3000,-32.2500,-136.8000,21.9100,7.3500,-19.8900,-1.1214,0.5738,1.9908,-89.1875,11.0625,19.8750,225.7500,85.8125,-177.3125,0
1776972404.592,11.6047,1.4413,-0.1891,0.5625,-0.3509,-2.0971,-72.9000,1.9500,1.0500,0.4645,-6.7086,-6.5745,-0.9193,-1.7922,0.0189,33.3000,-32.2500,-136.8000,21.9100,7.3500,-19.8900,-1.1214,0.5738,1.9908,-89.1875,11.0625,19.8750,225.1875,86.0625,-178.4375,0
1776972404.597,11.7699,1.5155,-0.1891,0.8314,-0.2867,-2.1106,-72.9000,1.9500,1.0500,2.3224,-4.3000,-5.9256,-0.8340,-1.6190,-0.1180,30.3000,-40.6500,-129.0000,8.5800,10.9900,-20.6200,-0.9381,-0.8039,2.1053,-86.1875,15.7500,6.7500,225.1875,86.0625,-178.4375,0
1776972404.602,11.7699,1.5155,-0.1891,0.8314,-0.2867,-2.1106,-72.9000,1.9500,1.0500,2.3224,-4.3000,-5.9256,-0.8340,-1.6190,-0.1180,30.3000,-40.6500,-129.0000,8.5800,10.9900,-20.6200,-0.9381,-0.8039,2.1053,-86.1875,15.7500,6.7500,223.9375,85.2500,-179.6250,0
1776972404.607,12.0931,2.2290,-0.1532,1.0261,-0.1745,-2.0555,-75.1500,6.9000,-0.3000,-0.4693,-3.2130,-5.6096,-0.5907,-1.4242,-0.0978,27.6000,-46.0500,-123.6000,4.9200,6.7400,-14.8400,0.1265,-2.0606,2.1598,-86.1875,15.7500,6.7500,223.9375,85.2500,-179.6250,0
1776972404.616,12.3708,2.0016,0.3807,1.1714,-0.1066,-1.9955,-77.4000,9.7500,-1.8000,0.2011,-2.7078,-4.4508,0.2555,-0.8817,-0.2894,28.6500,-52.8000,-119.7000,0.5100,5.4200,-9.5300,1.0188,-2.7347,2.1653,-86.1875,15.7500,6.7500,222.0625,83.6875,179.0625,0
1776972404.621,12.3708,2.0016,0.3807,1.1714,-0.1066,-1.9955,-77.4000,9.7500,-1.8000,0.2011,-2.7078,-4.4508,0.2555,-0.8817,-0.2894,28.6500,-52.8000,-119.7000,0.5100,5.4200,-9.5300,1.0188,-2.7347,2.1653,-86.1875,15.7500,6.7500,219.7500,81.9375,163.2500,0
1776972404.628,12.2128,1.4892,0.9074,1.2380,-0.0346,-1.9287,-81.3000,14.2500,-4.2000,-1.0151,-2.7677,-5.2744,1.1455,-0.0608,-0.6624,28.6500,-52.8000,-119.7000,-0.8100,3.2800,-6.3500,1.6472,-2.6834,2.3366,-86.1875,15.7500,6.7500,217.1875,80.1875,157.4375,0
1776972404.637,11.7723,2.0614,1.1971,1.2329,0.0136,-1.8631,-85.2000,13.8000,-7.9500,-0.1748,-2.0662,-6.0645,1.3542,0.5617,-1.1607,28.5000,-63.9000,-118.8000,-0.4600,3.6300,-6.2100,1.7857,-2.4773,2.3311,-86.1875,15.7500,6.7500,217.1875,80.1875,157.4375,0
1776972404.642,11.7723,2.0614,1.1971,1.2329,0.0136,-1.8631,-85.2000,13.8000,-7.9500,0.7949,-3.1436,-7.5920,1.1938,1.0363,-1.5894,28.5000,-63.9000,-118.8000,-0.4600,3.6300,-6.2100,1.7857,-2.4773,2.3311,-86.1875,15.7500,6.7500,214.7500,78.4375,153.8750,0
1776972404.647,11.3078,1.5921,0.8092,1.2140,0.0967,-1.8162,-88.8000,12.4500,-11.4000,0.7949,-3.1436,-7.5920,1.1938,1.0363,-1.5894,28.0500,-63.1500,-115.2000,-0.4200,4.3400,-6.0800,1.7137,-2.5253,2.1184,-77.0625,18.3750,21.5625,214.7500,78.4375,153.8750,0
1776972404.652,10.9367,0.8212,0.3735,1.2140,0.0967,-1.8162,-88.8000,12.4500,-11.4000,1.5586,-4.4053,-8.4372,1.0624,1.4573,-2.0054,28.0500,-63.1500,-115.2000,-0.4200,4.3400,-6.0800,1.7137,-2.5253,2.1184,-77.0625,18.3750,21.5625,214.7500,78.4375,153.8750,0
1776972404.657,10.9367,0.8212,0.3735,1.2076,0.1479,-1.8215,-88.9500,8.7000,-13.8000,1.5586,-4.4053,-8.4372,1.0624,1.4573,-2.0054,26.2500,-60.4500,-114.7500,0.9200,6.0000,-7.2000,1.5413,-2.4402,1.7344,-77.0625,18.3750,21.5625,212.6250,76.8125,151.8750,0
1776972404.662,10.9367,0.4501,0.3855,1.2076,0.1479,-1.8215,-88.9500,8.7000,-13.8000,2.0327,-4.7501,-9.1961,0.8934,1.5079,-2.2655,26.2500,-60.4500,-114.7500,0.9200,6.0000,-7.2000,1.4268,-2.3584,1.2446,-77.0625,18.3750,21.5625,210.7500,75.3125,151.1875,0
1776972404.668,10.9367,0.4501,0.3855,1.2119,0.1900,-1.8066,-88.9500,8.7000,-13.8000,2.0327,-4.7501,-9.1961,0.8934,1.5079,-2.2655,25.0500,-54.0000,-113.5500,2.3900,6.8200,-8.3900,1.4268,-2.3584,1.2446,-77.0625,18.3750,21.5625,209.1250,73.8750,151.6875,0
1776972404.677,10.7069,-0.3304,0.3543,1.1836,0.2105,-1.7765,-84.1500,0.3000,-12.4500,2.0135,-4.1372,-9.2943,0.9454,1.4823,-2.4088,22.2000,-50.7000,-113.4000,3.5400,7.3900,-9.3500,1.4890,-2.6158,0.6774,-77.0625,18.3750,21.5625,209.1250,73.8750,151.6875,0
1776972404.687,10.3717,0.4932,0.0431,1.2814,0.2345,-1.7451,-84.1500,0.3000,-12.4500,1.7286,-3.1029,-8.7987,1.4639,1.5436,-2.5738,22.2000,-50.7000,-113.4000,4.3200,7.3100,-9.6400,1.5403,-3.0325,0.0654,-77.0625,18.3750,21.5625,207.6875,72.3750,153.2500,0
1776972404.692,10.3453,0.5219,0.1484,1.3227,0.2276,-1.7355,-84.1500,0.3000,-12.4500,2.0183,-1.8124,-7.7596,2.2580,1.7461,-2.8397,22.2000,-50.7000,-113.4000,4.3200,7.3100,-9.6400,1.5403,-3.0325,0.0654,-77.0625,18.3750,21.5625,207.6875,72.3750,153.2500,0
1776972404.697,10.3453,0.5219,0.1484,1.3227,0.2276,-1.7355,-76.6500,-0.7500,-5.5500,2.0183,-1.8124,-7.7596,2.2580,1.7461,-2.8397,21.6000,-43.9500,-110.8500,4.7000,5.4700,-8.5700,1.4933,-3.4547,-0.5356,-50.0000,23.0000,32.8750,206.5000,70.7500,155.7500,0
1776972404.702,10.2687,0.9242,0.4788,1.3203,0.2321,-1.7213,-76.6500,-0.7500,-5.5500,2.7078,-0.4908,-6.3303,2.6982,1.8447,-3.0907,21.6000,-43.9500,-110.8500,4.7000,5.4700,-8.5700,1.4933,-3.4547,-0.5356,-50.0000,23.0000,32.8750,206.5000,70.7500,155.7500,0
1776972404.707,10.2687,0.9242,0.4788,1.3203,0.2321,-1.7213,-74.1000,1.3500,-3.0000,2.7078,-0.4908,-6.3303,2.6982,1.8447,-3.0907,20.1000,-40.9500,-110.2500,4.2600,4.5300,-6.9300,1.3799,-3.8365,-1.0614,-50.0000,23.0000,32.8750,205.6250,69.0000,158.6875,0
1776972404.715,10.0461,1.0367,0.6560,1.3390,0.2553,-1.6848,-72.3000,3.3000,-0.9000,3.0861,0.6560,-5.0542,2.8298,1.8953,-3.3340,16.9500,-39.7500,-107.5500,4.2100,3.9900,-5.6400,1.2217,-4.0350,-1.4595,-50.0000,23.0000,32.8750,205.0625,67.1875,161.8125,0
1776972404.720,9.8330,0.9146,0.8499,1.3390,0.2553,-1.6848,-72.3000,3.3000,-0.9000,3.6607,0.7254,-3.8068,2.6047,1.9332,-3.5578,16.9500,-39.7500,-107.5500,4.2100,3.9900,-5.6400,1.2217,-4.0350,-1.4595,-50.0000,23.0000,32.8750,204.6875,65.3125,164.7500,0
1776972404.728,9.8330,0.9146,0.8499,1.3398,0.2713,-1.6406,-72.3000,6.4500,0.4500,3.6607,0.7254,-3.8068,2.6047,1.9332,-3.5578,15.9000,-39.0000,-108.9000,4.8800,3.7800,-3.7600,1.0843,-3.9990,-1.7410,-50.0000,23.0000,32.8750,204.5625,63.5625,167.4375,0
1776972404.738,9.3948,0.8045,0.9122,1.3688,0.3120,-1.5601,-70.9500,7.3500,-0.6000,4.7860,-1.1971,-1.9178,1.9207,1.8716,-3.6503,15.9000,-39.0000,-108.9000,5.7900,4.0400,-3.9500,0.9905,-3.7939,-1.9471,-50.0000,23.0000,32.8750,204.5625,63.5625,167.4375,0
1776972404.742,9.1913,0.4022,0.5914,1.4357,0.2990,-1.4536,-70.9500,7.3500,-0.6000,5.5067,-3.9720,-1.5395,1.2692,1.7392,-3.6306,15.9000,-39.0000,-108.9000,5.7900,4.0400,-3.9500,0.9905,-3.7939,-1.9471,-50.0000,23.0000,32.8750,204.5625,61.8125,170.0000,0
