timestamp,thigh_acc_x,thigh_acc_y,thigh_acc_z,thigh_gyro_x,thigh_gyro_y,thigh_gyro_z,thigh_mag_x,thigh_mag_y,thigh_mag_z,shank_acc_x,shank_acc_y,shank_acc_z,shank_gyro_x,shank_gyro_y,shank_gyro_z,shank_mag_x,shank_mag_y,shank_mag_z,foot_acc_x,foot_acc_y,foot_acc_z,foot_gyro_x,foot_gyro_y,foot_gyro_z,foot_mag_x,foot_mag_y,foot_mag_z,foot_euler_x,foot_euler_y,foot_euler_z,perturbation_event
1776970419.835,6.8331,-5.4492,0.5243,0.4743,-2.2335,-1.5130,-68.4000,-29.5500,-18.6000,9.4308,-1.7214,3.9863,1.4597,-3.4837,-2.3156,-21.3000,-7.0500,36.6000,14.2800,2.1800,-8.7900,0.5280,-4.3611,-1.5283,-26.0000,2.5000,21.6875,314.3125,51.3125,164.2500,0
1776970419.840,6.8331,-5.4492,0.5243,0.6424,-2.4405,-1.4362,-68.4000,-29.5500,-18.6000,9.1028,-1.5467,3.9313,1.8143,-3.4110,-2.4219,-22.5000,-6.7500,34.2000,14.2800,2.1800,-8.7900,0.4854,-4.4146,-1.5326,-26.0000,2.5000,21.6875,313.5625,49.1250,165.7500,0
1776970419.846,6.6535,-6.1675,-0.5052,0.6891,-2.4666,-1.3909,-68.4000,-29.5500,-18.6000,9.1028,-1.5467,3.9313,1.8143,-3.4110,-2.4219,-22.5000,-6.7500,34.2000,15.3000,3.3400,-7.7400,0.4854,-4.4146,-1.5326,-26.0000,2.5000,21.6875,312.7500,47.0000,167.0000,0
1776970419.855,6.4787,-5.7772,-0.5938,0.6891,-2.4666,-1.3909,-68.7000,-28.9500,-18.7500,8.3486,-2.2290,4.2784,2.1626,-3.3356,-2.4712,-22.9500,-6.1500,33.9000,15.7900,3.8100,-7.4300,0.5160,-4.3470,-1.5479,-26.0000,2.5000,21.6875,312.7500,47.0000,167.0000,0
1776970419.865,6.7612,-6.2465,0.5219,0.5854,-2.2604,-1.4234,-68.7000,-28.9500,-18.7500,8.7436,-3.1580,4.7692,2.3667,-3.1858,-2.5074,-24.3000,-5.2500,32.7000,16.0300,3.8700,-7.0900,0.6294,-4.3273,-1.5828,-26.0000,2.5000,21.6875,311.6875,44.8750,168.0625,0
1776970419.870,6.7612,-6.2465,0.5219,0.5854,-2.2604,-1.4234,-68.7000,-28.9500,-18.7500,9.0022,-3.7493,4.6902,2.3057,-3.0622,-2.4880,-24.1500,-3.9000,29.7000,16.0300,3.8700,-7.0900,0.6294,-4.3273,-1.5828,-26.0000,2.5000,21.6875,333.8125,42.6250,169.0000,0
1776970419.875,5.9089,-5.6862,-0.2658,0.5825,-2.1834,-1.4178,-68.4000,-28.3500,-21.1500,9.0022,-3.7493,4.6902,2.3057,-3.0622,-2.4880,-24.1500,-3.9000,29.7000,15.3800,2.0200,-5.8700,0.7592,-4.3699,-1.6482,-15.5625,-0.5000,13.7500,333.8125,42.6250,169.0000,0
1776970419.880,5.9089,-5.6862,-0.2658,0.5825,-2.1834,-1.4178,-68.4000,-28.3500,-21.1500,9.0932,-4.1132,4.4915,2.0576,-2.9564,-2.4280,-24.1500,-3.9000,29.7000,15.3800,2.0200,-5.8700,0.7592,-4.3699,-1.6482,-15.5625,-0.5000,13.7500,332.5000,40.4375,169.7500,0
1776970419.885,6.2584,-5.4947,0.0838,0.5119,-1.9193,-1.3054,-69.0000,-28.0500,-21.4500,9.0932,-4.1132,4.4915,2.0576,-2.9564,-2.4280,-24.1500,-3.9000,29.7000,14.7000,0.3600,-5.0100,0.7789,-4.4157,-1.7170,-15.5625,-0.5000,13.7500,332.5000,40.4375,169.7500,0
1776970419.892,6.2584,-5.4947,0.0838,0.5119,-1.9193,-1.3054,-68.4000,-27.4500,-21.9000,9.1650,-3.9959,4.1659,1.7517,-2.8642,-2.3406,-24.7500,-2.4000,31.0500,14.1700,-1.0100,-4.5000,0.5923,-4.2979,-1.7050,-15.5625,-0.5000,13.7500,331.2500,38.2500,170.5625,0
1776970419.897,6.0166,-4.8483,-0.4022,0.4927,-1.7112,-1.1474,-68.4000,-27.4500,-21.9000,9.0190,-3.9313,3.9816,1.3800,-2.7736,-2.2537,-25.6500,-2.5500,29.8500,14.1700,-1.0100,-4.5000,0.5923,-4.2979,-1.7050,-15.5625,-0.5000,13.7500,330.1250,36.0625,171.2500,0
1776970419.905,6.1531,-4.1468,-0.7039,0.4551,-1.6228,-1.1519,-70.0500,-26.7000,-21.6000,9.0190,-3.9313,3.9816,1.3800,-2.7736,-2.2537,-25.6500,-2.5500,29.8500,12.6600,-2.9500,-3.0900,0.3403,-4.1888,-1.5544,-15.5625,-0.5000,13.7500,329.3125,34.0000,171.9375,0
1776970419.915,6.6367,-3.9959,0.3089,0.1463,-1.4138,-1.0866,-68.4000,-26.4000,-23.1000,8.7053,-3.5721,3.6152,0.9542,-2.6801,-2.1597,-27.0000,-1.9500,28.5000,11.8500,-3.3900,-2.8500,0.0829,-3.9270,-1.2174,-15.5625,-0.5000,13.7500,329.3125,34.0000,171.9375,0
1776970419.920,6.6367,-3.9959,0.3089,0.1463,-1.4138,-1.0866,-68.4000,-26.4000,-23.1000,8.5329,-3.3543,3.2417,0.4493,-2.5975,-2.0696,-27.0000,-1.9500,28.2000,11.8500,-3.3900,-2.8500,0.0829,-3.9270,-1.2174,-15.5625,-0.5000,13.7500,329.3125,34.0000,171.9375,0
1776970419.925,6.0358,-3.7685,-0.1460,-0.1958,-1.3909,-1.2039,-69.7500,-26.5500,-24.3000,8.5329,-3.3543,3.2417,0.4493,-2.5975,-2.0696,-27.9000,-2.2500,27.3000,11.6000,-3.3500,-3.0000,-0.1353,-3.5659,-0.8312,-25.2500,1.8750,4.2500,328.7500,32.1250,172.5000,0
1776970419.930,6.0358,-3.7685,-0.1460,-0.1958,-1.3909,-1.2039,-69.7500,-26.5500,-24.3000,8.5832,-2.8491,3.2226,0.0037,-2.5061,-1.9734,-27.9000,-2.2500,27.3000,11.6000,-3.3500,-3.0000,-0.1353,-3.5659,-0.8312,-25.2500,1.8750,4.2500,328.7500,32.1250,172.5000,0
1776970419.935,6.5338,-3.3255,0.6943,-0.7139,-1.4205,-1.2212,-69.7500,-26.5500,-24.3000,8.5832,-2.8491,3.2226,0.0037,-2.5061,-1.9734,-27.9000,-2.2500,27.3000,12.0300,-3.3900,-2.3700,-0.2411,-3.3096,-0.4429,-25.2500,1.8750,4.2500,328.4375,30.3125,172.8750,0
1776970419.940,6.5338,-3.3255,0.6943,-0.7139,-1.4205,-1.2212,-69.7500,-26.5500,-24.3000,8.2265,-2.4086,3.4069,-0.4189,-2.3979,-1.8964,-27.9000,-2.2500,27.3000,12.0300,-3.3900,-2.3700,-0.3698,-2.9278,-0.0371,-25.2500,1.8750,4.2500,328.3750,28.7500,173.2500,0
1776970419.946,6.3686,-4.0175,-0.1221,-1.0651,-1.2769,-1.1735,-69.1500,-26.7000,-24.6000,8.0349,-2.3104,3.1819,-0.7069,-2.2878,-1.8373,-28.0500,-0.9000,25.0500,11.8500,-2.9100,-2.0100,-0.3698,-2.9278,-0.0371,-25.2500,1.8750,4.2500,328.5625,27.3750,173.5000,0
1776970419.955,6.4763,-3.7733,-0.1269,-1.2883,-1.0475,-1.0920,-69.1500,-26.7000,-24.6000,8.0661,-2.0925,3.0095,-0.9081,-2.1477,-1.7946,-29.5500,-0.9000,24.3000,11.9400,-3.0400,-2.3400,-0.5040,-2.4336,0.3665,-25.2500,1.8750,4.2500,329.0000,26.1875,173.6875,0
1776970419.965,6.7995,-3.6823,-0.5267,-1.4898,-1.0216,-0.9713,-70.0500,-26.4000,-26.1000,8.2552,-1.9561,3.2513,-1.0792,-2.0033,-1.7267,-30.6000,0.1500,21.9000,12.0900,-2.9000,-2.8400,-0.6316,-2.0889,0.7363,-25.2500,1.8750,4.2500,329.0000,26.1875,173.6875,0
1776970419.970,6.4236,-3.5219,-1.0511,-1.4898,-1.0216,-0.9713,-70.0500,-26.4000,-26.1000,8.2552,-1.9561,3.2513,-1.0792,-2.0033,-1.7267,-30.6000,0.1500,21.9000,12.0900,-2.9000,-2.8400,-0.6316,-2.0889,0.7363,-25.2500,1.8750,4.2500,329.0000,26.1875,173.6875,0
1776970419.975,6.4236,-3.5219,-1.0511,-1.5884,-1.0195,-0.9270,-69.6000,-25.5000,-27.1500,8.3055,-1.7621,3.3375,-1.2454,-1.8143,-1.6409,-28.9500,-0.7500,21.0000,12.3200,-2.7400,-2.5000,-0.7079,-1.9079,1.0385,-48.6875,9.6875,18.6875,329.6250,25.0625,173.8750,0
1776970419.980,6.3686,-3.0454,-1.2067,-1.6955,-0.7221,-0.8471,-69.6000,-25.5000,-27.1500,8.3055,-1.7621,3.3375,-1.2454,-1.8143,-1.6409,-28.9500,-0.7500,21.0000,12.3200,-2.7400,-2.5000,-0.7079,-1.9079,1.0385,-48.6875,9.6875,18.6875,329.6250,25.0625,173.8750,0
1776970419.985,6.3686,-3.0454,-1.2067,-1.6955,-0.7221,-0.8471,-69.0000,-24.6000,-27.7500,8.2289,-1.8316,3.0765,-1.4181,-1.5948,-1.5364,-28.9500,-0.7500,21.0000,12.3500,-2.7800,-2.5400,-0.8345,-1.5446,1.1192,-48.6875,9.6875,18.6875,330.3125,24.1250,174.0625,0
1776970419.994,6.1842,-2.9928,-1.6376,-1.7909,-0.3123,-0.7330,-69.1500,-25.5000,-28.2000,7.5968,-1.7693,2.5067,-1.5998,-1.3619,-1.4474,-28.9500,-0.7500,21.0000,12.6800,-2.5100,-2.8300,-1.0908,-1.1814,1.2108,-48.6875,9.6875,18.6875,331.0625,23.4375,174.4375,0
1776970419.999,6.1100,-3.2082,-1.6783,-1.7909,-0.3123,-0.7330,-69.1500,-25.5000,-28.2000,7.5968,-1.7693,2.5067,-1.5998,-1.3619,-1.4474,-28.9500,-0.7500,21.0000,12.6800,-2.5100,-2.8300,-1.0908,-1.1814,1.2108,-48.6875,9.6875,18.6875,331.9375,22.7500,174.8750,0
1776970420.006,6.1100,-3.2082,-1.6783,-1.7011,-0.0829,-0.7120,-69.0000,-25.3500,-30.3000,7.3215,-1.7406,2.2553,-1.7744,-1.0848,-1.3640,-31.3500,1.9500,19.0500,12.9200,-2.4600,-1.6500,-1.3908,-1.0952,1.3352,-48.6875,9.6875,18.6875,332.8750,22.1250,175.5625,0
1776970420.016,6.0693,-2.8204,-1.8124,-1.5745,0.0823,-0.5649,-70.0500,-26.7000,-29.7000,7.0078,-1.2115,2.1093,-1.9319,-0.8402,-1.2305,-30.4500,0.7500,17.1000,12.7700,-2.4000,-0.9900,-1.6952,-1.0079,1.4072,-48.6875,9.6875,18.6875,332.8750,22.1250,175.5625,0
1776970420.020,6.3734,-2.7869,-2.2458,-1.4626,0.3698,-0.4692,-70.0500,-26.7000,-29.7000,7.0078,-1.2115,2.1093,-1.9319,-0.8402,-1.2305,-30.4500,0.7500,17.1000,12.7700,-2.4000,-0.9900,-1.6952,-1.0079,1.4072,-48.6875,9.6875,18.6875,333.8750,21.5625,176.3125,0
1776970420.025,6.3734,-2.7869,-2.2458,-1.4626,0.3698,-0.4692,-69.0000,-24.1500,-31.3500,7.1084,-0.7087,2.2410,-2.0478,-0.6123,-1.0880,-32.1000,1.6500,17.2500,12.7900,-2.4100,-0.3800,-1.9853,-0.8585,1.4432,-53.6875,21.0625,41.1875,333.8750,21.5625,176.3125,0
1776970420.030,6.7014,-2.7174,-1.7047,-1.3784,0.5420,-0.3837,-69.0000,-24.1500,-31.3500,7.1084,-0.7087,2.2410,-2.0478,-0.6123,-1.0880,-32.1000,1.6500,17.2500,12.7900,-2.4100,-0.3800,-1.9853,-0.8585,1.4432,-53.6875,21.0625,41.1875,334.9375,21.1875,177.2500,0
1776970420.035,6.7014,-2.7174,-1.7047,-1.3784,0.5420,-0.3837,-68.4000,-25.5000,-30.1500,7.4436,-0.2203,2.5666,-1.9838,-0.3821,-0.9262,-31.6500,1.2000,15.4500,13.1500,-2.5200,0.0300,-2.2395,-0.6785,1.4388,-53.6875,21.0625,41.1875,334.9375,21.1875,177.2500,0
1776970420.042,7.3526,-2.0111,-0.7374,-1.3342,0.6107,-0.2625,-68.4000,-25.5000,-30.1500,7.8051,0.2538,2.4110,-1.8367,-0.1479,-0.7450,-31.6500,1.2000,15.4500,13.6300,-1.6800,-0.0200,-2.4271,-0.5149,1.3897,-53.6875,21.0625,41.1875,335.9375,20.8750,178.3125,0
1776970420.047,7.5178,-1.4389,0.2442,-1.3342,0.6107,-0.2625,-68.4000,-25.5000,-30.1500,7.8051,0.2538,2.4110,-1.8367,-0.1479,-0.7450,-31.6500,1.2000,15.4500,13.6300,-1.6800,-0.0200,-2.4271,-0.5149,1.3897,-53.6875,21.0625,41.1875,336.8750,20.5625,179.3750,0
1776970420.056,7.5178,-1.4389,0.2442,-1.2652,0.7248,-0.1463,-70.2000,-24.1500,-31.8000,8.2241,0.6057,2.5450,-1.6582,0.0941,-0.5369,-33.6000,3.1500,15.7500,13.3400,-1.0000,0.0700,-2.4249,-0.4385,1.3232,-53.6875,21.0625,41.1875,337.8125,20.3750,-179.5625,0
1776970420.066,7.5753,0.6201,-1.2091,-1.1583,0.7861,-0.1495,-70.2000,-24.1500,-31.8000,8.3821,0.6345,1.8866,-1.5332,0.3667,-0.3123,-32.1000,3.1500,15.7500,13.1600,-0.5200,0.2800,-2.1915,-0.3545,1.2315,-53.6875,21.0625,41.1875,337.8125,20.3750,-179.5625,0
1776970420.071,7.5753,0.6201,-1.2091,-0.9081,0.8671,-0.0413,-70.2000,-24.1500,-31.8000,8.3821,0.6345,1.8866,-1.3699,0.6331,-0.0738,-32.1000,3.1500,15.7500,13.1600,-0.5200,0.2800,-2.1915,-0.3545,1.2315,-53.6875,21.0625,41.1875,337.8125,20.3750,-179.5625,0
1776970420.076,7.8171,1.5036,-1.6400,-0.9081,0.8671,-0.0413,-68.8500,-24.7500,-32.4000,8.2863,0.2227,1.1636,-1.3699,0.6331,-0.0738,-33.0000,2.2500,15.9000,13.7800,-0.0100,-0.0800,-1.8359,-0.1953,1.0636,-49.1875,25.2500,57.2500,338.5625,20.3125,-178.7500,0
1776970420.081,7.8171,1.5036,-1.6400,-0.7011,0.9028,0.2185,-68.8500,-24.7500,-32.4000,8.0613,3.0957,2.1213,-1.0738,0.9049,0.0759,-33.0000,2.2500,15.9000,13.7800,-0.0100,-0.0800,-1.8359,-0.1953,1.0636,-49.1875,25.2500,57.2500,338.5625,20.3125,-178.7500,0
1776970420.086,7.6686,1.4413,-2.2075,-0.7011,0.9028,0.2185,-71.1000,-25.5000,-33.4500,8.0613,3.0957,2.1213,-1.0738,0.9049,0.0759,-33.9000,3.9000,15.7500,12.4600,5.8400,-3.3800,-1.4388,-0.0502,0.8007,-49.1875,25.2500,57.2500,339.1875,20.2500,-178.1250,0
1776970420.094,7.6686,1.4413,-2.2075,-0.4183,0.9947,0.3627,-70.3500,-25.5000,-31.9500,8.9352,3.1292,-1.8986,-1.3872,1.4986,0.3299,-34.5000,1.5000,15.9000,17.2400,18.7500,0.7000,1.5021,0.4800,0.7199,-49.1875,25.2500,57.2500,339.4375,20.5625,-179.1250,0
1776970420.099,8.6694,1.8364,-2.0590,-0.0133,1.2518,0.3754,-70.3500,-25.5000,-31.9500,8.9352,3.1292,-1.8986,-1.3872,1.4986,0.3299,-34.5000,1.5000,15.9000,17.2400,18.7500,0.7000,1.5021,0.4800,0.7199,-49.1875,25.2500,57.2500,340.0625,21.5625,177.9375,0
1776970420.106,11.9327,2.8970,-2.2793,0.1751,1.2654,0.4887,-70.9500,-24.6000,-31.3500,12.1625,12.0261,-0.6057,-0.3064,1.3702,0.3459,-34.5000,1.5000,15.9000,10.5500,-7.7600,-0.0300,4.4451,1.8850,1.9439,-49.1875,25.2500,57.2500,341.9375,23.7500,175.6875,0
1776970420.116,17.5351,0.7542,-4.6208,0.1263,1.3435,0.4146,-71.7000,-27.7500,-31.0500,26.5565,10.5584,-28.4718,-1.8359,1.6196,0.1607,-34.5000,3.7500,15.9000,-12.0800,-21.2000,-30.2600,2.3300,4.0644,3.7775,-49.1875,25.2500,57.2500,341.9375,23.7500,175.6875,0
1776970420.121,17.5351,0.7542,-4.6208,0.1263,1.3435,0.4146,-71.7000,-27.7500,-31.0500,29.0656,3.3088,-11.9088,3.6495,-0.3730,-0.0893,-34.5000,3.7500,15.9000,-12.0800,-21.2000,-30.2600,2.3300,4.0644,3.7775,-45.7500,23.5000,66.0000,343.1250,27.3125,174.8125,0
1776970420.126,23.8391,-2.6073,-12.4427,0.9816,1.7059,0.4413,-73.3500,-27.9000,-30.9000,29.0656,3.3088,-11.9088,3.6495,-0.3730,-0.0893,-36.6000,1.8000,16.6500,19.4800,-20.8200,-22.1200,0.3927,6.7119,2.0180,-45.7500,23.5000,66.0000,343.1250,27.3125,174.8125,0
1776970420.130,23.8391,-2.6073,-12.4427,0.9816,1.7059,0.4413,-73.3500,-27.9000,-30.9000,15.6677,4.4412,-3.7493,5.7964,0.8660,0.0869,-36.6000,1.8000,16.6500,19.4800,-20.8200,-22.1200,0.3927,6.7119,2.0180,-45.7500,23.5000,66.0000,343.3750,29.3125,173.1250,0
1776970420.136,26.1758,-6.1339,-22.0003,3.2061,1.4533,0.8879,-73.3500,-27.9000,-30.9000,15.6677,4.4412,-3.7493,5.7964,0.8660,0.0869,-36.6000,1.5000,17.4000,6.7300,-21.3300,-17.0700,2.3638,3.6772,0.8443,-45.7500,23.5000,66.0000,343.3750,29.3125,173.1250,0
1776970420.140,26.1758,-6.1339,-22.0003,3.2061,1.4533,0.8879,-73.3500,-27.9000,-30.9000,9.1411,-6.7540,0.8140,5.3388,2.0797,0.2771,-36.6000,1.5000,17.4000,6.7300,-21.3300,-17.0700,0.9228,-0.0360,1.7541,-45.7500,23.5000,66.0000,344.2500,29.1875,172.0625,0
1776970420.146,17.9158,-0.2777,-23.5661,5.8473,0.2630,-0.4794,-71.1000,-29.1000,-28.6500,9.1411,-6.7540,0.8140,5.3388,2.0797,0.2771,-35.5500,0.7500,18.7500,13.2100,5.9500,-2.3300,0.9228,-0.0360,1.7541,-45.7500,23.5000,66.0000,344.6875,30.5625,171.6875,0
1776970420.156,8.0756,0.1269,1.7047,4.2834,-1.0150,-0.2950,-71.1000,-29.1000,-28.6500,7.9607,-6.1268,-0.2490,3.4512,2.2226,0.5297,-36.6000,-0.7500,21.0000,9.5600,-2.0600,-16.9800,0.0480,2.6889,0.7134,-45.7500,23.5000,66.0000,344.6875,30.5625,171.6875,0
1776970420.166,4.2114,-6.7971,-2.7845,4.1163,-0.2806,-0.2427,-70.9500,-29.2500,-26.5500,6.8761,-7.4915,2.6624,1.7826,1.6710,0.6715,-36.6000,-0.7500,21.0000,8.6900,-9.7400,-10.7600,0.4276,1.7290,-0.0305,-45.7500,23.5000,66.0000,344.6875,31.5625,171.3750,0
1776970420.171,4.2114,-6.7971,-2.7845,4.1163,-0.2806,-0.2427,-70.9500,-29.2500,-26.5500,7.7285,0.6129,2.0806,1.3803,1.6108,0.5950,-36.6000,-0.7500,21.0000,8.6900,-9.7400,-10.7600,0.4276,1.7290,-0.0305,-45.7500,23.5000,66.0000,344.6875,31.5625,171.3750,0
1776970420.176,4.4819,-9.7540,0.0838,3.5373,0.3720,-0.0349,-70.9500,-31.2000,-27.0000,7.7285,0.6129,2.0806,1.3803,1.6108,0.5950,-37.6500,-2.5500,22.0500,3.6700,-1.3600,-5.8800,0.5367,-0.1276,0.0894,-55.6875,33.7500,57.6875,344.6250,31.4375,171.0625,0
1776970420.180,4.4819,-9.7540,0.0838,3.5373,0.3720,-0.0349,-70.9500,-31.2000,-27.0000,7.8673,4.7477,3.5841,1.5556,1.6315,0.3509,-37.6500,-2.5500,22.0500,3.6700,-1.3600,-5.8800,0.5367,-0.1276,0.0894,-55.6875,33.7500,57.6875,344.6250,31.4375,171.0625,0
1776970420.186,8.0541,-6.4572,3.5434,3.4518,0.1753,0.5764,-71.1000,-32.2500,-24.1500,7.8673,4.7477,3.5841,1.5556,1.6315,0.3509,-37.2000,-1.6500,23.2500,6.8200,1.7000,-9.3100,0.1374,1.4748,0.0742,-55.6875,33.7500,57.6875,344.7500,32.2500,170.8750,0
1776970420.193,9.8737,-2.8276,10.6781,3.0750,0.6510,0.5260,-71.1000,-32.2500,-24.1500,9.7348,3.4046,5.4372,2.0630,1.4858,0.4391,-38.1000,-3.7500,24.4500,8.0500,-1.5900,-9.5200,-0.0229,1.5217,-0.0273,-55.6875,33.7500,57.6875,344.7500,33.1250,170.8125,0
1776970420.198,9.8737,-2.8276,10.6781,3.0750,0.6510,0.5260,-70.9500,-32.8500,-22.5000,11.1666,-0.6847,5.3822,1.7720,1.4146,0.5265,-38.1000,-3.7500,24.4500,8.0500,-1.5900,-9.5200,-0.0229,1.5217,-0.0273,-55.6875,33.7500,57.6875,344.8125,33.5625,170.7500,0
1776970420.206,9.7324,-0.5076,12.2080,2.0701,1.2369,0.6387,-70.0500,-33.4500,-22.3500,11.1666,-0.6847,5.3822,1.3552,1.0661,0.1077,-37.5000,-3.4500,25.8000,5.9800,0.2900,-8.3900,0.0502,0.8378,0.0404,-55.6875,33.7500,57.6875,344.8750,33.8750,170.6250,0
1776970420.216,10.1227,-6.8307,4.6495,0.8002,0.9150,0.2577,-71.7000,-33.6000,-21.7500,9.6223,-1.5251,2.9281,0.4080,0.7663,-0.3365,-37.5000,-3.4500,25.8000,6.0800,-0.4400,-7.7300,0.0589,0.6141,0.0513,-55.6875,33.7500,57.6875,344.8750,33.8750,170.6250,0
1776970420.221,6.8139,-9.1339,-0.0287,-0.3984,0.2270,0.0131,-71.7000,-33.6000,-21.7500,10.0652,-4.5274,2.0207,0.4080,0.7663,-0.3365,-37.5000,-3.4500,25.8000,6.0800,-0.4400,-7.7300,0.0589,0.6141,0.0513,-55.6875,33.7500,57.6875,344.8750,34.1875,170.6250,0
1776970420.225,6.8139,-9.1339,-0.0287,-0.3984,0.2270,0.0131,-71.7000,-33.6000,-21.7500,10.0652,-4.5274,2.0207,-1.6049,0.3882,-0.2843,-37.5000,-3.4500,25.8000,5.6900,-1.4200,-8.0300,0.0087,0.5040,0.0000,-58.0625,36.5625,55.0000,344.8750,34.1875,170.6250,0
1776970420.230,5.4564,-8.4683,-2.5953,-2.2303,0.7589,0.1511,-71.7000,-33.6000,-21.7500,10.5824,-7.0198,1.4676,-1.6049,0.3882,-0.2843,-38.1000,-2.5500,26.7000,5.6900,-1.4200,-8.0300,0.0087,0.5040,0.0000,-58.0625,36.5625,55.0000,344.8750,34.1875,170.6250,0
1776970420.235,5.4564,-8.4683,-2.5953,-2.2303,0.7589,0.1511,-70.9500,-34.3500,-21.7500,10.1299,-5.8012,1.7334,-3.6031,0.2406,0.0211,-38.1000,-2.5500,26.7000,5.5500,-0.9100,-8.3200,-0.1058,0.4821,0.0284,-58.0625,36.5625,55.0000,344.9375,34.4375,170.6250,0
1776970420.240,6.2058,-6.9839,-0.7542,-3.1325,1.5652,0.7789,-70.9500,-34.3500,-21.7500,10.1299,-5.8012,1.7334,-3.6031,0.2406,0.0211,-36.0000,-3.1500,26.4000,5.5500,-0.9100,-8.3200,-0.0644,0.4832,0.0196,-58.0625,36.5625,55.0000,345.0000,34.6875,170.6250,0
1776970420.246,6.2058,-6.9839,-0.7542,-3.1325,1.5652,0.7789,-70.9500,-34.3500,-21.7500,10.0461,-3.0095,1.4964,-4.4926,0.2571,0.4517,-36.0000,-3.1500,26.4000,5.7700,-1.4200,-7.8500,-0.0644,0.4832,0.0196,-58.0625,36.5625,55.0000,345.0000,35.0000,170.6250,0
1776970420.256,8.8226,-3.6344,-0.1796,-3.8256,0.7171,1.1807,-69.6000,-33.7500,-24.6000,11.1067,2.1883,1.0127,-4.6423,0.4085,0.7890,-38.2500,-3.4500,23.5500,6.9000,-1.5400,-7.5800,-0.0153,0.5171,-0.0022,-58.0625,36.5625,55.0000,345.0625,35.1250,170.5625,0
1776970420.266,8.5497,-2.7126,-0.4669,-4.0849,0.8673,1.2785,-69.7500,-34.3500,-26.2500,10.1730,7.9607,-0.5171,-3.5378,0.4447,0.8479,-38.5500,-4.2000,23.5500,7.4000,-0.9700,-7.5400,0.0011,0.2738,0.0753,-58.0625,36.5625,55.0000,345.0625,35.1250,170.5625,0
1776970420.271,6.9432,-2.7390,-0.6273,-4.0380,1.8820,1.0909,-69.7500,-34.3500,-26.2500,10.1730,7.9607,-0.5171,-3.5378,0.4447,0.8479,-38.5500,-4.2000,23.5500,7.4000,-0.9700,-7.5400,0.0011,0.2738,0.0753,-58.0625,36.5625,55.0000,345.1250,35.1250,170.5000,0
1776970420.276,6.9432,-2.7390,-0.6273,-4.0380,1.8820,1.0909,-70.3500,-33.0000,-25.3500,9.0812,13.4003,-2.3966,-1.5679,0.5612,0.6845,-38.5500,-4.2000,23.5500,5.9000,-1.5500,-7.9300,0.0022,0.0207,0.0927,-60.1875,36.8750,52.7500,345.1250,35.1250,170.5000,0
1776970420.281,11.0804,1.2809,-0.9385,-2.8162,1.6689,0.5279,-70.3500,-33.0000,-25.3500,9.0812,13.4003,-2.3966,-1.5679,0.5612,0.6845,-37.5000,-3.1500,23.5500,5.9000,-1.5500,-7.9300,0.0022,0.0207,0.0927,-60.1875,36.8750,52.7500,345.1250,35.1250,170.5000,0
1776970420.286,11.0804,1.2809,-0.9385,-2.8162,1.6689,0.5279,-70.5000,-34.3500,-26.2500,7.2784,14.0827,-2.1572,0.2054,0.6358,0.3659,-37.5000,-3.1500,23.5500,5.8600,-1.0300,-7.8400,-0.0404,0.0949,0.0098,-60.1875,36.8750,52.7500,345.1250,35.1875,170.5625,0
1776970420.295,14.2886,5.8754,-1.3791,-1.2697,0.8487,0.0687,-70.3500,-33.4500,-27.1500,7.6495,9.9096,-0.1293,1.5481,0.8612,0.1098,-37.2000,-4.6500,22.9500,6.1200,-1.0000,-7.8200,-0.2029,0.1887,-0.0262,-60.1875,36.8750,52.7500,345.1250,35.2500,170.6250,0
1776970420.299,13.2591,8.4204,0.1987,0.0592,0.7045,-0.3736,-70.3500,-33.4500,-27.1500,7.6495,9.9096,-0.1293,1.5481,0.8612,0.1098,-35.5500,-4.5000,24.1500,6.1200,-1.0000,-7.8200,-0.2029,0.1887,-0.0262,-60.1875,36.8750,52.7500,345.2500,35.4375,170.8750,0
1776970420.306,13.0843,8.0134,-0.2682,0.0592,0.7045,-0.3736,-70.2000,-34.3500,-26.5500,8.6766,5.3798,0.1652,2.0917,0.9230,0.0338,-35.5500,-4.5000,24.1500,5.6800,-0.9000,-7.7400,-0.4178,0.3436,0.0207,-60.1875,36.8750,52.7500,345.3750,35.7500,171.1250,0
1776970420.316,11.9782,4.5155,-3.0287,0.8641,0.3459,-0.7653,-70.2000,-34.3500,-26.5500,9.9144,1.5371,0.2682,2.1328,0.8873,0.0634,-37.5000,-5.4000,25.3500,5.6600,-0.8500,-7.8800,-0.5149,0.5083,0.0404,-60.1875,36.8750,52.7500,345.3750,35.7500,171.1250,0
1776970420.321,11.9782,4.5155,-3.0287,1.4874,0.1596,-0.3533,-70.2000,-34.3500,-26.5500,9.9144,1.5371,0.2682,2.1328,0.8873,0.0634,-38.1000,-8.2500,25.6500,5.6600,-0.8500,-7.8800,-0.5149,0.5083,0.0404,-60.1875,36.8750,52.7500,345.3750,35.7500,171.1250,0
1776970420.326,10.7141,-0.9984,-2.5522,1.6710,-0.2633,0.0160,-71.1000,-35.4000,-26.1000,10.0197,-1.5036,0.7350,1.6553,0.7631,0.1519,-38.1000,-8.2500,25.6500,6.1500,-0.7500,-7.7200,-0.4298,0.6294,-0.0098,-61.3750,36.7500,52.3750,345.5000,36.0625,171.3125,0
1776970420.331,10.7141,-0.9984,-2.5522,1.6710,-0.2633,0.0160,-71.1000,-35.4000,-26.1000,10.0197,-1.5036,0.7350,1.6553,0.7631,0.1519,-38.1000,-8.2500,25.6500,6.1500,-0.7500,-7.7200,-0.4298,0.6294,-0.0098,-61.3750,36.7500,52.3750,345.5000,36.0625,171.3125,0
1776970420.336,10.1754,-6.3231,-2.5738,1.4253,-0.8298,0.1748,-71.1000,-35.4000,-26.1000,10.3860,-3.0311,0.6584,0.6827,0.6486,0.2718,-38.1000,-8.2500,25.6500,6.2700,-0.5500,-7.6000,-0.1538,0.5094,-0.0360,-61.3750,36.7500,52.3750,345.5000,36.3750,171.3750,0
1776970420.341,10.1754,-6.3231,-2.5738,1.4253,-0.8298,0.1748,-71.1000,-35.4000,-26.1000,10.3860,-3.0311,0.6584,0.6827,0.6486,0.2718,-38.5500,-5.7000,26.8500,6.2700,-0.5500,-7.6000,0.0142,0.3294,0.0251,-61.3750,36.7500,52.3750,345.5625,36.5625,171.3125,0
1776970420.347,5.1332,-8.6024,-0.5650,-0.1985,0.5601,0.3874,-71.1000,-34.9500,-24.6000,10.6781,-2.3032,0.2322,-0.3325,0.5359,0.3909,-38.5500,-5.7000,26.8500,5.8300,-0.7000,-7.7100,0.0142,0.3294,0.0251,-61.3750,36.7500,52.3750,345.5625,36.6875,171.2500,0
1776970420.356,6.4308,-6.2537,-0.8595,-1.2164,1.5647,0.6728,-69.4500,-35.1000,-25.5000,9.6654,-0.5076,-0.1844,-0.8940,0.4791,0.4820,-38.1000,-6.3000,26.2500,5.8100,-0.8600,-7.6800,0.1004,0.2913,0.0491,-61.3750,36.7500,52.3750,345.5625,36.6875,171.2500,0
1776970420.366,9.5481,-2.3822,-2.0614,-1.2239,1.3083,0.7261,-69.6000,-35.4000,-25.6500,9.3972,1.2641,0.0694,-0.9896,0.5025,0.5335,-38.5500,-6.1500,25.3500,5.9100,-0.9500,-7.6100,0.1789,0.2411,0.0622,-61.3750,36.7500,52.3750,345.5625,36.8125,171.0625,0
1776970420.371,9.5481,-2.3822,-2.0614,-1.2239,1.3083,0.7261,-69.6000,-35.4000,-25.6500,9.5241,2.4134,0.1484,-0.8625,0.5486,0.5588,-38.1000,-5.2500,27.3000,5.9100,-0.9500,-7.6100,0.1789,0.2411,0.0622,-61.3750,36.7500,52.3750,345.5625,36.9375,170.9375,0
1776970420.376,10.0509,-0.4022,-1.5179,-0.8527,0.5756,0.7360,-71.1000,-35.7000,-24.6000,9.5241,2.4134,0.1484,-0.8625,0.5486,0.5588,-38.1000,-5.2500,27.3000,6.0100,-1.1600,-7.7000,0.2465,0.1734,0.0796,-63.1875,35.8750,51.5625,345.5625,36.9375,170.9375,0
1776970420.381,10.0509,-0.4022,-1.5179,-0.8527,0.5756,0.7360,-71.1000,-35.7000,-24.6000,9.6726,2.9880,0.3879,-0.5796,0.5585,0.5380,-38.2500,-7.9500,28.6500,6.0100,-1.1600,-7.7000,0.2465,0.1734,0.0796,-63.1875,35.8750,51.5625,345.5625,36.9375,170.6875,0
1776970420.386,9.8521,0.2035,-0.5866,-0.6163,0.5295,0.7530,-69.0000,-36.0000,-26.2500,9.6726,2.9880,0.3879,-0.5796,0.5585,0.5380,-38.2500,-7.9500,28.6500,6.1500,-1.2900,-7.6300,0.2814,0.0927,0.0873,-63.1875,35.8750,51.5625,345.5625,36.9375,170.6875,0
1776970420.393,9.7947,-0.0072,-0.3974,-0.6163,0.5295,0.7530,-69.0000,-36.0000,-26.2500,9.5313,3.1388,0.5076,-0.1966,0.5622,0.4810,-38.2500,-7.9500,28.6500,6.1100,-1.1600,-7.5500,0.2629,0.0851,0.0764,-63.1875,35.8750,51.5625,345.5625,37.0000,170.5000,0
1776970420.398,9.7947,-0.0072,-0.3974,-0.2766,0.7157,0.6944,-72.0000,-37.0500,-25.0500,9.5313,3.1388,0.5076,-0.1966,0.5622,0.4810,-37.6500,-6.7500,27.3000,6.1100,-1.1600,-7.5500,0.2629,0.0851,0.0764,-63.1875,35.8750,51.5625,345.5625,37.0625,170.3750,0
1776970420.406,10.4004,-0.6057,-0.2945,0.2433,0.7232,0.5785,-70.3500,-37.3500,-25.3500,9.3877,2.5355,0.4573,0.1548,0.5593,0.4175,-37.6500,-6.7500,27.3000,6.2700,-0.9700,-7.5600,0.1811,0.1167,0.0633,-63.1875,35.8750,51.5625,345.6250,37.1250,170.3125,0
1776970420.416,9.9742,-1.0606,0.0263,0.4756,0.2755,0.5111,-71.1000,-38.5500,-24.6000,9.2703,1.9106,0.6009,0.4474,0.5686,0.3720,-37.0500,-8.5500,29.1000,6.1500,-1.2000,-7.5700,0.0774,0.1374,0.0480,-63.1875,35.8750,51.5625,345.6250,37.1250,170.3125,0
1776970420.421,8.4659,-3.0335,-0.2298,0.4756,0.2755,0.5111,-71.1000,-38.5500,-24.6000,9.6438,0.9194,0.7374,0.5915,0.5868,0.3533,-37.0500,-8.5500,28.5000,6.1500,-1.2000,-7.5700,0.0774,0.1374,0.0480,-63.1875,35.8750,51.5625,345.6250,37.2500,170.3125,0
1776970420.426,8.4659,-3.0335,-0.2298,0.3944,0.5833,0.5425,-71.1000,-38.5500,-24.6000,9.6438,0.9194,0.7374,0.5915,0.5868,0.3533,-37.9500,-8.7000,28.6500,6.3300,-1.2200,-7.6000,-0.0316,0.1778,0.0469,-63.5000,36.2500,50.6875,345.6250,37.2500,170.3125,0
1776970420.431,8.8729,-3.9289,-1.0678,0.3944,0.5833,0.5425,-71.1000,-38.5500,-24.6000,10.1586,0.0599,0.7135,0.5351,0.5662,0.3504,-37.9500,-8.7000,28.6500,6.3300,-1.2200,-7.6000,-0.0316,0.1778,0.0469,-63.5000,36.2500,50.6875,345.6250,37.2500,170.3125,0
1776970420.436,8.8729,-3.9289,-1.0678,0.3360,0.8290,0.5321,-69.6000,-37.6500,-23.4000,10.1586,0.0599,0.7135,0.5351,0.5662,0.3504,-37.6500,-7.8000,28.5000,5.9500,-1.5200,-7.6900,-0.0873,0.2029,0.0338,-63.5000,36.2500,50.6875,345.6875,37.3125,170.3125,0
1776970420.441,9.2320,-4.1061,-1.2258,0.1791,0.7522,0.5838,-69.6000,-37.6500,-23.4000,10.1179,-0.3352,0.7542,0.3142,0.5345,0.3483,-37.6500,-7.8000,28.5000,5.9500,-1.5200,-7.6900,-0.1287,0.2465,0.0120,-63.5000,36.2500,50.6875,345.7500,37.5000,170.3750,0
1776970420.447,9.2320,-4.1061,-1.2258,0.1791,0.7522,0.5838,-69.6000,-37.6500,-23.4000,10.1179,-0.3352,0.7542,0.3142,0.5345,0.3483,-37.6500,-7.8000,28.5000,6.1400,-1.2900,-7.6700,-0.1287,0.2465,0.0120,-63.5000,36.2500,50.6875,345.7500,37.5000,170.3750,0
1776970420.456,9.4810,-4.8004,-0.4812,-0.1066,0.7274,0.6630,-70.0500,-39.3000,-23.8500,10.0102,-0.1844,0.9457,0.0480,0.5228,0.3797,-37.6500,-7.8000,28.5000,6.3200,-1.2300,-7.5100,-0.1298,0.2956,-0.0153,-63.5000,36.2500,50.6875,345.7500,37.6250,170.4375,0
1776970420.461,9.4332,-3.8140,-0.9457,-0.1945,0.6067,0.7304,-70.0500,-39.3000,-23.8500,9.8330,0.0287,0.8859,-0.2262,0.5124,0.4096,-37.6500,-9.0000,29.8500,6.3200,-1.2300,-7.5100,-0.1156,0.2836,-0.0218,-63.5000,36.2500,50.6875,345.7500,37.8125,170.5000,0
1776970420.467,9.4332,-3.8140,-0.9457,-0.1945,0.6067,0.7304,-69.6000,-38.5500,-22.6500,9.6510,0.6704,0.8092,-0.4165,0.5002,0.4365,-36.6000,-9.0000,30.1500,6.2600,-1.1500,-7.5200,-0.1156,0.2836,-0.0218,-63.5000,36.2500,50.6875,345.7500,37.8125,170.5000,0
1776970420.472,9.2416,-2.8611,-0.6033,-0.3741,0.5465,0.7608,-69.6000,-38.5500,-22.6500,9.6510,0.6704,0.8092,-0.4165,0.5002,0.4365,-36.6000,-9.0000,30.1500,6.2600,-1.1500,-7.5200,-0.0633,0.2236,-0.0098,-62.6875,36.5625,50.5625,345.8125,37.9375,170.5000,0
1776970420.477,9.2416,-2.8611,-0.6033,-0.3741,0.5465,0.7608,-71.5500,-39.3000,-23.1000,9.6271,0.9912,1.0463,-0.5079,0.5031,0.4277,-38.5500,-8.4000,30.7500,6.2800,-1.0500,-7.4800,-0.0633,0.2236,-0.0098,-62.6875,36.5625,50.5625,345.8125,37.9375,170.5000,0
1776970420.482,9.2536,-2.6480,-0.1173,-0.4506,0.5116,0.7826,-71.5500,-39.3000,-23.1000,9.6271,0.9912,1.0463,-0.5079,0.5031,0.4277,-38.5500,-8.4000,30.7500,6.2800,-1.0500,-7.4800,-0.0273,0.1865,0.0044,-62.6875,36.5625,50.5625,345.8125,38.0625,170.5000,0
1776970420.487,9.2536,-2.6480,-0.1173,-0.4506,0.5116,0.7826,-70.2000,-38.7000,-22.9500,9.8282,1.0247,1.0439,-0.4767,0.4799,0.3976,-38.5500,-8.4000,29.2500,6.2500,-0.9900,-7.4300,-0.0273,0.1865,0.0044,-62.6875,36.5625,50.5625,345.8125,38.0625,170.5000,0
1776970420.492,9.4164,-2.7054,0.1030,-0.4903,0.4535,0.8138,-70.2000,-38.7000,-22.9500,9.8282,1.0247,1.0439,-0.4767,0.4799,0.3976,-38.5500,-8.4000,29.2500,6.2500,-0.9900,-7.4300,0.0033,0.1658,0.0175,-62.6875,36.5625,50.5625,345.8125,38.1250,170.5000,0
1776970420.498,9.3374,-3.0311,0.2418,-0.4903,0.4535,0.8138,-67.5000,-40.6500,-22.9500,9.8761,0.8140,1.1444,-0.4005,0.4541,0.3528,-38.5500,-8.4000,29.2500,6.2000,-0.8900,-7.4800,0.0033,0.1658,0.0175,-62.6875,36.5625,50.5625,345.8125,38.2500,170.4375,0
1776970420.507,9.3374,-3.0311,0.2418,-0.4519,0.4325,0.8138,-69.6000,-38.8500,-23.1000,10.1203,0.2370,1.2210,-0.3059,0.4282,0.3176,-38.5500,-8.4000,29.2500,6.1900,-0.8700,-7.3800,0.0284,0.1396,0.0284,-62.6875,36.5625,50.5625,345.8750,38.3125,170.4375,0
1776970420.517,9.4116,-3.7613,0.2753,-0.4157,0.3810,0.8228,-69.6000,-38.8500,-23.1000,10.3717,-0.1341,1.3096,-0.2888,0.4128,0.2904,-37.5000,-10.6500,31.0500,6.2200,-1.1000,-7.5100,0.0327,0.1145,0.0425,-62.6875,36.5625,50.5625,345.8750,38.3125,170.4375,0
1776970420.521,9.2751,-4.4843,0.0120,-0.4058,0.3866,0.8071,-69.6000,-38.8500,-23.1000,10.3717,-0.1341,1.3096,-0.2888,0.4128,0.2904,-37.5000,-10.6500,31.0500,6.2200,-1.1000,-7.5100,0.0327,0.1145,0.0425,-62.6875,36.5625,50.5625,345.8750,38.3750,170.3750,0
1776970420.527,9.2129,-4.7429,-0.5363,-0.4058,0.3866,0.8071,-68.1000,-38.8500,-23.1000,10.3477,-0.3376,1.1229,-0.3405,0.3914,0.2870,-37.9500,-10.9500,30.7500,6.1500,-1.1500,-7.5300,0.0349,0.1265,0.0305,-63.7500,36.1875,49.5000,345.8750,38.3750,170.3750,0
1776970420.531,9.2129,-4.7429,-0.5363,-0.3936,0.4495,0.8015,-68.1000,-41.2500,-23.1000,10.3477,-0.3376,1.1229,-0.3405,0.3914,0.2870,-37.9500,-10.9500,30.7500,6.1500,-1.1500,-7.5300,0.0349,0.1265,0.0305,-63.7500,36.1875,49.5000,345.8750,38.3750,170.3750,0
1776970420.536,9.0501,-4.2377,-0.9768,-0.3936,0.4495,0.8015,-68.1000,-41.2500,-23.1000,10.1730,-0.2155,0.8667,-0.4477,0.3794,0.2907,-38.1000,-9.3000,31.3500,6.1100,-1.3500,-7.6600,0.0360,0.1451,0.0164,-63.7500,36.1875,49.5000,345.8750,38.4375,170.3125,0
1776970420.541,9.0501,-4.2377,-0.9768,-0.4397,0.5777,0.8037,-68.1000,-41.2500,-23.1000,10.1730,-0.2155,0.8667,-0.4477,0.3794,0.2907,-38.1000,-9.3000,31.3500,6.1100,-1.3500,-7.6600,0.0262,0.1614,-0.0044,-63.7500,36.1875,49.5000,345.8750,38.5000,170.3125,0
1776970420.547,8.8657,-3.5147,-1.0726,-0.4940,0.8037,0.8234,-67.9500,-40.6500,-23.2500,9.8713,0.2921,0.4142,-0.5657,0.3882,0.3259,-37.3500,-10.5000,31.6500,6.2300,-1.3500,-7.5600,0.0262,0.1614,-0.0044,-63.7500,36.1875,49.5000,345.8750,38.6250,170.3125,0
1776970420.556,9.5313,-2.7892,-1.4748,-0.5025,0.8532,0.7919,-67.9500,-40.6500,-23.2500,9.3709,0.9673,0.3304,-0.6656,0.4064,0.3848,-37.3500,-10.5000,31.6500,6.2200,-1.2600,-7.5500,0.0164,0.1691,-0.0295,-63.7500,36.1875,49.5000,345.8750,38.6250,170.3125,0
1776970420.566,8.8729,-2.4780,-1.8507,-0.5260,0.6720,0.8007,-67.9500,-40.6500,-22.5000,9.0836,1.7789,0.0359,-0.7426,0.4330,0.4378,-38.2500,-9.9000,29.7000,6.4000,-1.1000,-7.3500,0.0120,0.1898,-0.0469,-63.7500,36.1875,49.5000,345.8750,38.7500,170.3125,0
1776970420.571,8.8729,-2.4780,-1.8507,-0.5260,0.6720,0.8007,-67.9500,-42.1500,-22.9500,9.0836,1.7789,0.0359,-0.7426,0.4330,0.4378,-38.2500,-9.9000,29.7000,6.4000,-1.1000,-7.3500,0.0120,0.1898,-0.0469,-63.7500,36.1875,49.5000,345.8750,38.7500,170.3125,0
1776970420.576,8.4970,-1.3216,-1.6640,-0.6262,0.7570,0.8596,-67.9500,-42.1500,-22.9500,8.9926,2.3894,-0.3256,-0.7373,0.4604,0.4599,-37.9500,-12.1500,30.4500,6.2900,-1.0600,-7.2100,0.0044,0.1953,-0.0404,-65.0000,36.8750,49.5000,345.8125,38.8125,170.3125,0
1776970420.581,8.4970,-1.3216,-1.6640,-0.6262,0.7570,0.8596,-67.5000,-42.6000,-22.9500,8.9926,2.3894,-0.3256,-0.7373,0.4604,0.4599,-37.9500,-12.1500,30.4500,6.2900,-1.0600,-7.2100,0.0044,0.1953,-0.0404,-65.0000,36.8750,49.5000,345.8125,38.8125,170.3125,0
1776970420.586,9.1075,-0.0718,-1.6113,-0.6432,1.0094,0.8777,-67.5000,-42.6000,-22.9500,8.9256,2.9497,-0.9433,-0.7032,0.4890,0.4903,-37.6500,-12.0000,30.6000,6.2900,-0.9400,-7.2800,-0.0076,0.1876,-0.0295,-65.0000,36.8750,49.5000,345.8125,38.9375,170.3125,0
1776970420.591,9.1075,-0.0718,-1.6113,-0.6432,1.0094,0.8777,-67.9500,-41.4000,-22.5000,8.9256,2.9497,-0.9433,-0.7032,0.4890,0.4903,-37.6500,-12.0000,30.6000,6.2900,-0.9400,-7.2800,-0.0262,0.2007,-0.0185,-65.0000,36.8750,49.5000,345.8125,39.0625,170.3125,0
1776970420.597,10.0987,0.7661,-2.5450,-0.4306,0.8988,0.8756,-66.6000,-41.4000,-22.5000,8.7747,3.4285,-1.4030,-0.6363,0.5529,0.5473,-38.4000,-9.7500,31.6500,6.3100,-0.9500,-7.3300,-0.0262,0.2007,-0.0185,-65.0000,36.8750,49.5000,345.8125,39.1875,170.3125,0
1776970420.607,9.8689,1.3408,-3.2561,-0.2172,0.5926,0.8817,-66.6000,-43.2000,-21.6000,8.6790,3.9792,-2.0446,-0.5505,0.6363,0.6310,-36.7500,-10.6500,28.9500,6.3600,-0.9800,-7.2900,-0.0425,0.2193,-0.0098,-65.0000,36.8750,49.5000,345.8750,39.3125,170.3750,0
1776970420.617,9.5672,1.4150,-3.5195,-0.1260,0.6614,0.8972,-66.6000,-43.2000,-21.6000,8.8514,4.3144,-2.2146,-0.4634,0.7663,0.7096,-36.7500,-10.6500,28.9500,6.3400,-1.0900,-7.3900,-0.0535,0.2236,0.0000,-65.0000,36.8750,49.5000,345.8750,39.3125,170.3750,0
1776970420.621,9.5672,1.4150,-3.5195,-0.1260,0.6614,0.8972,-65.4000,-42.4500,-23.4000,8.8514,4.3144,-2.2146,-0.4634,0.7663,0.7096,-36.7500,-10.6500,28.9500,6.3400,-1.0900,-7.3900,-0.0535,0.2236,0.0000,-65.0000,36.8750,49.5000,345.8750,39.4375,170.3750,0
1776970420.627,9.8809,1.0415,-3.6057,-0.1332,0.8170,0.9182,-65.4000,-42.4500,-23.4000,9.4308,4.1300,-1.9225,-0.3941,0.8745,0.7765,-37.3500,-14.5500,30.6000,6.2700,-1.0100,-7.4400,-0.0611,0.2476,-0.0055,-65.2500,36.1875,49.0625,345.8750,39.4375,170.3750,0
1776970420.631,9.8809,1.0415,-3.6057,-0.1332,0.8170,0.9182,-65.4000,-42.4500,-23.4000,9.4308,4.1300,-1.9225,-0.3941,0.8745,0.7765,-37.3500,-14.5500,30.6000,6.2700,-1.0100,-7.4400,-0.0611,0.2476,-0.0055,-65.2500,36.1875,49.0625,345.8750,39.5625,170.4375,0
1776970420.637,10.4483,0.5531,-3.5267,-0.0778,0.9193,0.9297,-65.4000,-42.4500,-23.4000,9.8785,3.8044,-1.7765,-0.3384,0.9601,0.8303,-36.6000,-14.2500,31.9500,5.9900,-0.8800,-7.6000,-0.0622,0.2553,-0.0055,-65.2500,36.1875,49.0625,345.8750,39.5625,170.4375,0
1776970420.641,10.4483,0.5531,-3.5267,-0.0778,0.9193,0.9297,-66.1500,-44.7000,-21.6000,9.8785,3.8044,-1.7765,-0.2550,1.0437,0.8990,-36.6000,-14.2500,31.9500,5.9900,-0.8800,-7.6000,-0.0851,0.2814,-0.0109,-65.2500,36.1875,49.0625,345.9375,39.7500,170.4375,0
1776970420.648,10.4914,0.1796,-3.1675,-0.0277,1.0048,0.9252,-66.1500,-44.7000,-21.6000,10.0868,3.1484,-1.5107,-0.2550,1.0437,0.8990,-35.7000,-14.4000,31.8000,6.1200,-1.0000,-7.7600,-0.0851,0.2814,-0.0109,-65.2500,36.1875,49.0625,345.9375,39.9375,170.5000,0
1776970420.657,10.3430,-0.7829,-3.0502,-0.0008,1.0576,0.9358,-64.6500,-44.7000,-22.3500,10.2663,2.0973,-1.4796,-0.2673,1.1250,0.9870,-35.8500,-15.0000,33.0000,5.9900,-1.3000,-7.8000,-0.1134,0.3611,-0.0153,-65.2500,36.1875,49.0625,345.9375,39.9375,170.5000,0
1776970420.667,9.9431,-1.7980,-3.0694,-0.0168,1.1732,0.9467,-66.3000,-46.5000,-20.7000,10.4387,1.2498,-1.1229,-0.3128,1.1738,1.0765,-36.4500,-15.9000,32.8500,6.2100,-1.8700,-7.8600,-0.1080,0.4516,-0.0764,-65.2500,36.1875,49.0625,345.9375,40.1875,170.5625,0
1776970420.672,9.9862,-2.0590,-3.3016,-0.0168,1.1732,0.9467,-66.0000,-45.7500,-20.2500,10.1083,1.2091,-0.8380,-0.4823,1.2540,1.1599,-36.4500,-15.9000,32.8500,6.2100,-1.8700,-7.8600,-0.1080,0.4516,-0.0764,-65.2500,36.1875,49.0625,345.9375,40.1875,170.5625,0
1776970420.677,9.9862,-2.0590,-3.3016,-0.0882,1.2095,0.9547,-66.0000,-45.7500,-20.2500,10.1083,1.2091,-0.8380,-0.4823,1.2540,1.1599,-36.4500,-15.9000,32.8500,6.3100,-1.5500,-7.9300,-0.1854,0.5770,-0.1353,-65.5000,35.3750,49.5000,345.9375,40.5000,170.6875,0
1776970420.682,9.5050,-2.2697,-2.8395,-0.2766,1.3829,0.9363,-66.1500,-45.4500,-21.6000,9.8785,1.3982,-0.7183,-0.6030,1.3203,1.2444,-36.4500,-15.9000,32.8500,6.3100,-1.5500,-7.9300,-0.1854,0.5770,-0.1353,-65.5000,35.3750,49.5000,345.9375,40.5000,170.6875,0
1776970420.687,9.5050,-2.2697,-2.8395,-0.2766,1.3829,0.9363,-66.1500,-45.4500,-21.6000,9.8785,1.3982,-0.7183,-0.6030,1.3203,1.2444,-36.0000,-15.1500,33.3000,6.1500,-1.7700,-7.9300,-0.3763,0.7778,-0.1953,-65.5000,35.3750,49.5000,345.9375,40.9375,170.9375,0
1776970420.694,10.1754,-2.1883,-2.1620,-0.3741,1.4935,0.8697,-64.8000,-46.9500,-21.4500,9.9814,1.4293,-0.2825,-0.6358,1.3635,1.3097,-35.7000,-15.9000,33.6000,6.1200,-1.5200,-7.6900,-0.5007,0.9305,-0.2934,-65.5000,35.3750,49.5000,345.8750,41.5000,171.2500,0
1776970420.699,10.1754,-2.1883,-2.1620,-0.3741,1.4935,0.8697,-66.0000,-47.2500,-20.7000,9.9814,1.4293,-0.2825,-0.6118,1.4101,1.3664,-35.7000,-15.9000,33.6000,6.1200,-1.5200,-7.6900,-0.5007,0.9305,-0.2934,-65.5000,35.3750,49.5000,345.8750,42.1250,171.6875,0
1776970420.707,10.2568,-2.1428,-1.3384,-0.3952,1.3217,0.8652,-66.0000,-47.2500,-20.7000,10.1059,1.5802,0.3735,-0.6118,1.4101,1.3664,-36.3000,-18.7500,34.5000,6.8200,0.0400,-8.0000,-0.6294,1.0777,-0.3611,-65.5000,35.3750,49.5000,345.8750,42.8125,172.0000,0
1776970420.717,9.9503,-2.7438,-0.6009,-0.4197,1.2356,0.8548,-65.4000,-47.5500,-20.5500,10.7021,1.0726,0.9242,-0.5894,1.4514,1.3773,-34.8000,-20.5500,35.2500,6.4000,-0.3000,-7.9900,-0.4974,1.1879,-0.2062,-65.5000,35.3750,49.5000,345.8750,42.8125,172.0000,0
1776970420.722,10.2592,-3.1412,-0.3160,-0.4253,1.3137,0.8553,-65.4000,-47.5500,-20.5500,11.6885,0.4334,0.9481,-0.6030,1.4893,1.3947,-36.7500,-18.9000,35.7000,6.4000,-0.3000,-7.9900,-0.4974,1.1879,-0.2062,-66.2500,35.3750,45.8750,346.0000,43.5000,172.0000,0
1776970420.727,10.2592,-3.1412,-0.3160,-0.4253,1.3137,0.8553,-65.4000,-47.5500,-20.5500,11.6885,0.4334,0.9481,-0.6030,1.4893,1.3947,-36.7500,-18.9000,35.7000,6.1500,-0.5300,-8.2700,-0.1505,1.2446,0.0000,-66.2500,35.3750,45.8750,346.0000,43.5000,172.0000,0
1776970420.732,11.1618,-3.3447,-0.4573,-0.3810,1.4735,0.8484,-63.9000,-47.1000,-21.1500,12.5193,0.3711,0.6201,-0.6134,1.4853,1.4272,-36.7500,-18.9000,35.7000,6.1500,-0.5300,-8.2700,-0.1505,1.2446,0.0000,-66.2500,35.3750,45.8750,346.0625,44.2500,171.8750,0
1776970420.737,11.1618,-3.3447,-0.4573,-0.3810,1.4735,0.8484,-63.9000,-47.1000,-21.1500,12.5193,0.3711,0.6201,-0.6134,1.4853,1.4272,-36.7500,-18.9000,35.7000,6.6500,-0.6500,-8.5100,0.0284,1.4214,0.0502,-66.2500,35.3750,45.8750,346.0625,44.2500,171.8750,0
1776970420.742,11.7483,-3.3782,-1.0822,-0.4301,1.4573,0.8775,-63.9000,-47.1000,-21.1500,13.1011,0.3112,0.2658,-0.7037,1.5132,1.4909,-33.3000,-21.0000,36.6000,6.6500,-0.6500,-8.5100,0.3098,1.5653,0.0415,-66.2500,35.3750,45.8750,329.4375,45.1250,171.5625,0
1776970420.748,12.3158,-3.0454,-1.7957,-0.4301,1.4573,0.8775,-63.9000,-47.1000,-21.1500,13.1011,0.3112,0.2658,-0.8863,1.5481,1.5116,-33.3000,-21.0000,36.6000,5.3900,0.6400,-8.3100,0.3098,1.5653,0.0415,-66.2500,35.3750,45.8750,328.9375,46.0625,171.0625,0
1776970420.757,12.3158,-3.0454,-1.7957,-0.3632,1.3288,0.9715,-64.5000,-48.9000,-19.9500,13.5943,1.0750,-0.4166,-0.8863,1.5481,1.5116,-33.3000,-23.5500,37.6500,7.9700,-2.4100,-8.7800,0.6545,1.7006,-0.0753,-66.2500,35.3750,45.8750,328.9375,46.0625,171.0625,0
1776970420.767,13.1322,-1.9632,-2.5642,-0.2380,1.3955,0.9531,-62.7000,-48.6000,-19.8000,13.4961,1.2881,-0.3352,-0.9366,1.6038,1.5303,-33.3000,-23.5500,37.3500,6.2300,-1.0200,-9.2100,0.4723,1.9144,-0.0709,-66.2500,35.3750,45.8750,328.7500,47.1250,170.6875,0
1776970420.772,13.1322,-1.9632,-2.5642,-0.2774,1.5828,0.8292,-62.4000,-49.5000,-19.0500,13.5105,0.9409,-0.7063,-1.0253,1.6715,1.5873,-31.9500,-23.5500,38.7000,6.2300,-1.0200,-9.2100,0.4723,1.9144,-0.0709,-66.2500,35.3750,45.8750,328.9375,48.3750,170.2500,0
1776970420.777,13.0843,-2.1500,-2.0446,-0.2774,1.5828,0.8292,-62.4000,-49.5000,-19.0500,14.0803,-2.2266,-1.7789,-1.2524,1.8101,1.5892,-31.9500,-23.5500,38.7000,5.8800,-0.5000,-9.3900,0.1385,2.3584,0.1778,-69.1875,34.6875,44.0000,328.9375,48.3750,170.2500,0
1776970420.782,13.0843,-2.1500,-2.0446,-0.2025,1.7208,0.7903,-63.3000,-48.9000,-19.2000,14.0803,-2.2266,-1.7789,-1.2524,1.8101,1.5892,-31.9500,-23.5500,38.7000,5.8800,-0.5000,-9.3900,0.1385,2.3584,0.1778,-69.1875,34.6875,44.0000,328.9375,48.3750,170.2500,0
1776970420.787,12.8281,-4.1635,-6.0741,-0.2025,1.7208,0.7903,-63.3000,-48.9000,-19.2000,14.0683,-2.4756,-2.3128,-1.5940,1.9052,1.5511,-31.9500,-23.5500,38.7000,5.5300,-0.2200,-9.5400,0.1396,2.5787,0.2160,-69.1875,34.6875,44.0000,329.1250,49.7500,169.7500,0
1776970420.792,12.8281,-4.1635,-6.0741,-0.4663,1.7565,0.9009,-63.3000,-49.6500,-19.9500,14.0683,-2.4756,-2.3128,-1.5940,1.9052,1.5511,-31.9500,-23.5500,38.7000,5.5300,-0.2200,-9.5400,0.2018,2.7991,0.1614,-69.1875,34.6875,44.0000,329.2500,51.2500,169.1875,0
1776970420.798,10.9128,-7.3550,-11.5472,-1.2630,1.8202,1.0504,-63.3000,-49.6500,-19.9500,13.5368,-3.2106,-3.2801,-2.4224,1.9015,1.5593,-31.9500,-23.5500,38.7000,4.5600,1.2000,-9.6400,0.2018,2.7991,0.1614,-69.1875,34.6875,44.0000,329.3125,52.8750,168.6250,0
1776970420.807,8.7987,-7.7285,-8.7269,-1.1559,1.8596,1.0994,-61.2000,-49.8000,-19.3500,11.9902,-4.6160,-3.6416,-3.1440,1.8730,1.5660,-30.6000,-27.4500,37.2000,5.3400,-0.2800,-8.2400,0.4538,2.9180,-0.1254,-69.1875,34.6875,44.0000,329.3125,52.8750,168.6250,0
1776970420.817,8.6119,-9.1913,-10.3166,-1.6819,1.8439,1.1010,-61.2000,-49.8000,-19.3500,9.8881,-3.6440,-2.5091,-3.9087,1.9081,1.6265,-28.6500,-27.0000,37.3500,7.7200,-1.5500,-8.7500,0.3414,3.5474,-0.0393,-69.1875,34.6875,44.0000,329.5000,54.8125,167.9375,0
1776970420.822,8.6119,-9.1913,-10.3166,-1.6819,1.8439,1.1010,-61.8000,-50.4000,-21.4500,9.8881,-3.6440,-2.5091,-3.9087,1.9081,1.6265,-27.7500,-28.2000,34.6500,7.7200,-1.5500,-8.7500,0.3414,3.5474,-0.0393,-69.1875,34.6875,44.0000,329.5000,54.8125,167.9375,0
1776970420.827,7.6255,-9.5385,-4.9033,-1.9716,1.5513,1.4200,-61.8000,-50.4000,-21.4500,7.5322,-1.7430,1.0654,-4.3742,1.9971,1.6952,-27.7500,-28.2000,34.6500,7.1800,1.2100,-7.5600,0.3862,3.5703,0.2029,-72.1875,35.7500,38.0625,329.5625,56.6875,166.8750,0
1776970420.832,7.6255,-9.5385,-4.9033,-1.9716,1.5513,1.4200,-61.8000,-50.4000,-21.4500,7.5322,-1.7430,1.0654,-4.3742,1.9971,1.6952,-27.9000,-28.0500,35.5500,7.1800,1.2100,-7.5600,0.3862,3.5703,0.2029,-72.1875,35.7500,38.0625,329.5625,56.6875,166.8750,0
1776970420.837,8.2839,-7.8099,-0.0551,-2.0603,1.2252,1.5692,-61.8000,-50.4000,-21.4500,6.5793,-0.3663,2.8060,-4.5248,2.1080,1.7062,-27.9000,-28.0500,35.5500,11.4300,1.0600,-5.8700,0.5269,2.8765,0.0785,-72.1875,35.7500,38.0625,329.4375,58.2500,165.9375,0
1776970420.842,8.2839,-7.8099,-0.0551,-2.0603,1.2252,1.5692,-60.4500,-51.7500,-20.8500,6.5793,-0.3663,2.8060,-4.5248,2.1080,1.7062,-27.9000,-28.0500,35.5500,11.4300,1.0600,-5.8700,0.2225,3.5605,0.5236,-72.1875,35.7500,38.0625,329.4375,60.0625,164.5000,0
1776970420.848,9.6151,-2.6600,7.4244,-1.7312,0.9944,1.0030,-60.4500,-51.7500,-20.8500,7.2018,-0.5267,4.0151,-4.3367,2.1482,1.6619,-27.9000,-28.0500,35.5500,13.1500,1.2300,-4.8400,0.2225,3.5605,0.5236,-72.1875,35.7500,38.0625,329.9375,62.1875,162.5625,0
1776970420.857,10.4627,2.3727,6.7397,-1.6483,-0.2140,1.1426,-60.9000,-51.0000,-22.3500,8.9208,-0.9864,4.6304,-3.7270,2.2380,1.4927,-25.0500,-31.5000,32.4000,17.1600,1.9100,-7.6200,-0.5978,4.2597,1.1094,-72.1875,35.7500,38.0625,329.9375,62.1875,162.5625,0
1776970420.867,4.2018,-3.5410,-4.1851,-2.4946,-0.8276,0.8924,-59.4000,-51.4500,-24.1500,11.5784,-0.5986,5.0374,-3.1720,2.2082,1.3851,-23.5500,-33.0000,29.5500,18.9000,-3.4100,-19.2900,-1.2228,4.1168,1.7704,-72.1875,35.7500,38.0625,330.6250,64.0625,159.9375,0
1776970420.872,4.2018,-3.5410,-4.1851,-2.4946,-0.8276,0.8924,-59.5500,-53.1000,-25.8000,11.5784,-0.5986,5.0374,-3.1720,2.2082,1.3851,-23.8500,-33.7500,30.9000,18.9000,-3.4100,-19.2900,-1.2228,4.1168,1.7704,-72.1875,35.7500,38.0625,331.8750,66.0625,157.5625,0
1776970420.877,0.9673,-10.1251,2.6983,-2.1221,0.4162,0.6094,-59.5500,-53.1000,-25.8000,10.6590,-2.7270,4.1348,-2.8959,2.1165,1.2097,-23.8500,-33.7500,30.9000,15.9000,-0.3000,-10.6900,-1.6297,4.4091,1.2490,-73.5625,35.3750,28.1875,331.8750,66.0625,157.5625,0
1776970420.882,6.1842,-8.7747,5.1068,-2.1221,0.4162,0.6094,-58.9500,-52.9500,-27.9000,10.6590,-2.7270,4.1348,-2.8959,2.1165,1.2097,-24.1500,-32.4000,28.9500,15.9000,-0.3000,-10.6900,-1.6297,4.4091,1.2490,-73.5625,35.3750,28.1875,333.1875,67.6250,155.0000,0
1776970420.887,6.1842,-8.7747,5.1068,-2.0957,1.9300,0.6781,-58.9500,-52.9500,-27.9000,9.3733,-3.4141,4.1468,-2.5498,2.0976,1.0600,-24.1500,-32.4000,28.9500,8.9900,1.2800,-9.9400,-2.0453,3.6979,1.4813,-73.5625,35.3750,28.1875,333.1875,67.6250,155.0000,0
1776970420.895,5.8347,-8.3151,1.0798,-2.1392,2.3747,0.3115,-59.1000,-53.1000,-29.2500,8.4204,-3.9552,3.4836,-2.3875,2.0675,0.8719,-23.8500,-33.7500,28.0500,6.0100,0.9700,-10.5800,-2.1806,3.4852,1.8773,-73.5625,35.3750,28.1875,334.3125,68.8750,151.6875,0
1776970420.900,5.8347,-8.3151,1.0798,-2.1392,2.3747,0.3115,-59.1000,-53.1000,-29.2500,8.4204,-3.9552,3.4836,-2.3875,2.0675,0.8719,-23.8500,-33.7500,28.0500,6.0100,0.9700,-10.5800,-2.1806,3.4852,1.8773,-73.5625,35.3750,28.1875,335.0625,69.7500,147.4375,0
1776970420.908,7.3622,-9.2799,3.4213,-2.0358,2.0763,0.1849,-59.1000,-53.1000,-29.2500,8.0613,-6.3614,4.0630,-2.1802,1.8279,0.6755,-23.8500,-33.7500,28.0500,2.5400,-0.4600,-13.4500,-2.1937,3.2299,2.4369,-73.5625,35.3750,28.1875,335.5000,70.0625,142.3750,0
1776970420.917,7.8003,-8.7915,4.3000,-2.0099,2.0155,-0.0392,-60.4500,-53.7000,-31.2000,7.4508,-5.8299,5.0278,-1.9366,1.5937,0.4114,-22.9500,-33.4500,27.1500,14.5900,-0.9200,-16.5100,-2.3900,2.8798,3.0958,-73.5625,35.3750,28.1875,335.5000,70.0625,142.3750,0
1776970420.922,8.1211,-10.0868,3.5889,-1.9748,2.0091,-0.1247,-60.4500,-53.7000,-31.2000,7.1898,-4.6591,3.6272,-2.3049,1.3147,0.1668,-22.0500,-33.7500,27.3000,14.5900,-0.9200,-16.5100,-2.3900,2.8798,3.0958,-73.5625,35.3750,28.1875,335.5000,70.0625,142.3750,0
1776970420.927,8.1211,-10.0868,3.5889,-1.9748,2.0091,-0.1247,-60.4500,-53.7000,-31.2000,7.1898,-4.6591,3.6272,-2.3049,1.3147,0.1668,-22.9500,-33.9000,26.1000,7.0000,4.5800,-17.2900,-2.7925,2.5340,3.1503,-69.8750,37.8750,19.0000,336.1250,70.0000,137.7500,0
1776970420.932,8.3055,-9.7229,3.9337,-1.9694,1.6118,-0.1812,-60.4500,-53.7000,-33.4500,7.7620,-4.2066,3.2034,-2.4728,0.9992,-0.1386,-22.9500,-33.9000,26.1000,7.0000,4.5800,-17.2900,-2.7925,2.5340,3.1503,-69.8750,37.8750,19.0000,336.1250,70.0000,137.7500,0
1776970420.937,8.3055,-9.7229,3.9337,-1.9694,1.6118,-0.1812,-60.4500,-53.7000,-33.4500,7.7620,-4.2066,3.2034,-2.4728,0.9992,-0.1386,-22.9500,-34.6500,25.8000,3.7000,5.5100,-12.0000,-2.9900,0.9817,3.0598,-69.8750,37.8750,19.0000,336.6875,69.2500,135.0625,0
1776970420.942,8.7436,-8.3653,4.5274,-2.0464,1.1532,-0.3912,-62.2500,-54.0000,-33.6000,7.9655,-3.2154,3.1987,-2.2601,0.7013,-0.4623,-22.9500,-34.6500,25.8000,3.7000,5.5100,-12.0000,-2.2297,-0.1080,3.0958,-69.8750,37.8750,19.0000,336.5000,68.0000,133.3750,0
1776970420.948,8.7436,-8.3653,4.5274,-2.0464,1.1532,-0.3912,-62.2500,-54.0000,-33.6000,7.9655,-3.2154,3.1987,-2.2601,0.7013,-0.4623,-24.3000,-33.7500,24.1500,1.5700,5.7100,-8.8700,-2.2297,-0.1080,3.0958,-69.8750,37.8750,19.0000,336.1250,66.8750,131.7500,0
1776970420.957,9.0309,-7.3550,5.1978,-2.0861,0.5255,-0.7853,-61.6500,-53.4000,-35.7000,7.6231,-2.3798,3.3351,-1.8764,0.3880,-0.7093,-24.3000,-33.7500,24.1500,1.6700,4.3900,-8.7300,-1.6221,0.0458,2.7227,-69.8750,37.8750,19.0000,336.1250,66.8750,131.7500,0
1776970420.967,8.9495,-6.3303,4.8961,-1.9265,-0.0589,-1.1477,-61.5000,-53.1000,-37.3500,7.4268,-2.0734,3.5434,-1.5116,0.1098,-0.9579,-23.4000,-32.7000,21.9000,1.3600,2.8900,-8.1500,-1.1148,-0.2171,2.2242,-69.8750,37.8750,19.0000,335.6250,65.8750,130.7500,0
1776970420.972,9.2799,-4.9201,4.5370,-1.5242,-0.2763,-1.3896,-62.4000,-52.9500,-39.0000,7.2449,-2.1261,3.9409,-1.1991,-0.1855,-1.1612,-23.4000,-32.7000,21.9000,1.3600,2.8900,-8.1500,-1.1148,-0.2171,2.2242,-69.8750,37.8750,19.0000,335.1875,65.0000,130.3125,0
1776970420.977,9.2799,-4.9201,4.5370,-1.5242,-0.2763,-1.3896,-62.4000,-52.9500,-39.0000,7.2449,-2.1261,3.9409,-1.1991,-0.1855,-1.1612,-25.5000,-33.1500,20.1000,0.8000,1.7600,-7.8300,-0.8890,-0.4898,1.6799,-57.5625,43.0000,18.5000,335.1875,65.0000,130.3125,0
1776970420.982,8.4539,-3.2346,3.9409,-1.0195,-0.5596,-1.6835,-61.8000,-54.7500,-39.6000,6.6248,-2.1835,4.0223,-0.8407,-0.4053,-1.3219,-25.5000,-33.1500,20.1000,0.8000,1.7600,-7.8300,-0.8890,-0.4898,1.6799,-57.5625,43.0000,18.5000,334.9375,64.2500,130.6875,0
1776970420.987,8.4539,-3.2346,3.9409,-1.0195,-0.5596,-1.6835,-61.8000,-54.7500,-39.6000,6.6248,-2.1835,4.0223,-0.8407,-0.4053,-1.3219,-25.9500,-33.4500,21.9000,0.4200,0.6400,-7.3900,-0.8803,-0.7865,1.1170,-57.5625,43.0000,18.5000,334.9375,64.2500,130.6875,0
1776970420.994,7.2736,-2.4469,3.9792,-0.4615,-1.0038,-2.0749,-61.8000,-54.7500,-39.6000,5.6312,-2.5331,3.3327,-0.2364,-0.5111,-1.4645,-25.9500,-33.4500,21.9000,1.9200,0.2700,-8.2200,-0.9883,-0.9839,0.5825,-57.5625,43.0000,18.5000,335.0625,63.6250,131.6250,0
1776970420.999,7.7405,-4.0438,4.4053,0.0253,-0.9310,-2.2284,-61.8000,-54.7500,-39.6000,5.6312,-2.5331,3.3327,-0.2364,-0.5111,-1.4645,-26.8500,-34.0500,19.5000,1.9200,0.2700,-8.2200,-0.9883,-0.9839,0.5825,-57.5625,43.0000,18.5000,335.4375,63.1250,133.0000,0
1776970421.008,7.9847,-6.1052,3.7900,0.0253,-0.9310,-2.2284,-64.5000,-55.0500,-42.1500,5.7389,-2.6336,3.0358,0.4221,-0.5606,-1.6020,-26.8500,-34.0500,19.5000,3.2700,0.2300,-8.9600,-1.0614,-1.1312,0.1734,-57.5625,43.0000,18.5000,335.8125,62.5625,134.8750,0
1776970421.018,7.3670,-5.4755,3.5674,0.9902,-1.2252,-2.0049,-64.5000,-55.0500,-42.1500,5.9328,-2.8323,3.0239,1.0336,-0.6702,-1.7597,-26.8500,-34.0500,19.5000,3.9200,-0.1200,-8.7100,-1.0505,-1.5424,-0.0720,-57.5625,43.0000,18.5000,335.8125,62.5625,134.8750,0
1776970421.022,7.3670,-5.4755,3.5674,0.9902,-1.2252,-2.0049,-64.0500,-55.9500,-41.4000,6.3542,-3.1436,2.7294,1.4080,-0.8655,-1.9204,-26.8500,-34.0500,19.5000,3.9200,-0.1200,-8.7100,-1.0505,-1.5424,-0.0720,-57.5625,43.0000,18.5000,335.8125,62.5625,134.8750,0
1776970421.028,7.2568,-5.7628,2.9999,1.1620,-1.3408,-1.9745,-64.0500,-55.9500,-41.4000,6.3542,-3.1436,2.7294,1.4080,-0.8655,-1.9204,-30.1500,-33.0000,19.9500,3.6400,-0.9700,-8.0100,-0.8890,-2.1118,-0.2258,-45.0000,45.2500,22.7500,336.0625,61.8125,137.0625,0
1776970421.032,7.2568,-5.7628,2.9999,1.1620,-1.3408,-1.9745,-63.3000,-55.9500,-42.1500,6.8019,-4.2952,2.6719,1.7307,-1.1149,-2.1083,-30.1500,-33.0000,19.9500,3.6400,-0.9700,-8.0100,-0.8890,-2.1118,-0.2258,-45.0000,45.2500,22.7500,336.0625,61.8125,137.0625,0
1776970421.037,7.0198,-6.5721,3.5219,1.2319,-1.4003,-1.9926,-63.3000,-55.9500,-42.1500,6.8019,-4.2952,2.6719,1.7307,-1.1149,-2.1083,-29.4000,-34.8000,19.2000,3.4800,-1.9300,-7.3600,-0.6774,-2.5035,-0.3840,-45.0000,45.2500,22.7500,336.0625,60.9375,139.4375,0
1776970421.042,7.0198,-6.5721,3.5219,1.2319,-1.4003,-1.9926,-63.3000,-56.7000,-39.6000,7.3215,-5.3032,2.8419,1.8751,-1.3813,-2.2604,-29.4000,-34.8000,19.2000,3.4800,-1.9300,-7.3600,-0.6130,-2.7151,-0.5967,-45.0000,45.2500,22.7500,336.1250,59.9375,141.9375,0
1776970421.048,7.4268,-7.8817,3.2537,1.1037,-1.4397,-1.9758,-63.3000,-56.7000,-39.6000,8.0732,-6.4524,2.9305,1.7824,-1.6204,-2.3473,-31.9500,-33.3000,21.6000,3.5700,-3.0000,-6.4800,-0.6130,-2.7151,-0.5967,-45.0000,45.2500,22.7500,336.3125,58.9375,144.5625,0
1776970421.058,7.2951,-8.9040,1.8962,0.8857,-1.5799,-1.9638,-63.9000,-57.6000,-40.5000,8.6431,-7.3430,2.8802,1.4610,-1.8548,-2.3523,-31.0500,-31.6500,20.1000,3.5500,-3.0900,-5.9900,-0.6665,-2.9158,-0.8465,-45.0000,45.2500,22.7500,336.3125,58.9375,144.5625,0
1776970421.068,7.4101,-8.7269,1.3982,0.5673,-1.5457,-1.8231,-64.5000,-57.9000,-38.8500,9.0381,-7.8673,3.0406,1.0347,-2.0744,-2.3110,-31.0500,-31.6500,20.1000,4.2800,-3.0600,-6.0800,-0.7658,-3.0129,-1.1225,-45.0000,45.2500,22.7500,336.6875,57.9375,147.3750,0
1776970421.072,7.4101,-8.7269,1.3982,0.5673,-1.5457,-1.8231,-65.2500,-56.7000,-37.6500,9.0381,-7.8673,3.0406,1.0347,-2.0744,-2.3110,-31.0500,-31.6500,20.1000,4.2800,-3.0600,-6.0800,-0.7658,-3.0129,-1.1225,-45.0000,45.2500,22.7500,336.6875,57.9375,147.3750,0
1776970421.078,7.5489,-8.9256,1.4437,0.2598,-1.4448,-1.7115,-65.2500,-56.7000,-37.6500,8.9328,-7.1778,2.8730,0.5982,-2.2036,-2.2551,-31.9500,-32.5500,20.5500,5.0800,-3.0800,-6.2300,-0.8203,-2.9889,-1.3897,-38.2500,46.5000,24.0000,337.3125,56.8750,150.1875,0
1776970421.082,7.5489,-8.9256,1.4437,0.2598,-1.4448,-1.7115,-65.4000,-56.1000,-37.9500,8.9328,-7.1778,2.8730,0.5982,-2.2036,-2.2551,-31.9500,-32.5500,20.5500,5.0800,-3.0800,-6.2300,-0.8203,-2.9889,-1.3897,-38.2500,46.5000,24.0000,337.3125,56.8750,150.1875,0
1776970421.087,7.3717,-8.7077,0.6847,0.1492,-1.4901,-1.6547,-65.4000,-56.1000,-37.9500,8.7747,-6.0980,2.5426,0.2902,-2.2671,-2.2625,-33.7500,-33.3000,19.9500,6.7900,-3.5200,-6.7800,-0.7963,-3.0052,-1.5577,-38.2500,46.5000,24.0000,338.0625,55.8125,152.9375,0
1776970421.092,7.3717,-8.7077,0.6847,0.1492,-1.4901,-1.6547,-64.8000,-57.4500,-38.4000,8.7747,-6.0980,2.5426,0.2902,-2.2671,-2.2625,-33.7500,-33.3000,19.9500,6.7900,-3.5200,-6.7800,-0.7614,-3.0816,-1.6199,-38.2500,46.5000,24.0000,338.8125,54.6875,155.6250,0
1776970421.098,7.2401,-7.6112,0.3496,-0.0045,-1.7080,-1.6076,-64.8000,-57.4500,-38.4000,8.5066,-5.1116,2.2769,0.2625,-2.2934,-2.3169,-34.6500,-31.9500,20.7000,7.3100,-3.5000,-6.8600,-0.7614,-3.0816,-1.6199,-38.2500,46.5000,24.0000,339.5625,53.4375,158.1250,0
1776970421.108,7.1539,-7.2401,0.2921,-0.0853,-1.9212,-1.5777,-64.8000,-57.4500,-38.4000,8.5569,-4.0151,2.1907,0.4631,-2.3116,-2.4184,-34.0500,-32.2500,19.5000,8.2600,-3.2900,-7.1100,-0.7330,-3.1656,-1.6122,-38.2500,46.5000,24.0000,339.5625,53.4375,158.1250,0
1776970421.118,6.9959,-6.5410,0.2849,-0.0733,-2.0121,-1.5300,-65.1000,-57.6000,-37.5000,8.5305,-3.3447,2.1165,0.7077,-2.3579,-2.5543,-35.5500,-30.3000,18.4500,9.5400,-2.9000,-7.9200,-0.7690,-3.0838,-1.5643,-38.2500,46.5000,24.0000,340.3750,52.1250,160.3750,0
1776970421.123,7.1539,-5.9424,0.2801,-0.0733,-2.0121,-1.5300,-65.1000,-57.6000,-37.5000,8.5305,-3.3447,2.1165,0.7077,-2.3579,-2.5543,-35.5500,-30.3000,18.4500,9.5400,-2.9000,-7.9200,-0.7690,-3.0838,-1.5643,-38.2500,46.5000,24.0000,341.1875,50.8125,162.5000,0
1776970421.128,7.1539,-5.9424,0.2801,0.0509,-2.0989,-1.5079,-65.1000,-57.6000,-37.5000,9.2201,-3.1029,2.1380,0.9984,-2.3172,-2.6207,-35.5500,-30.3000,18.4500,10.2100,-3.1300,-8.0800,-0.7647,-3.0445,-1.5163,-43.0000,49.5000,28.8750,341.1875,50.8125,162.5000,0
1776970421.133,7.3478,-5.5809,0.2682,0.0509,-2.0989,-1.5079,-65.1000,-56.8500,-37.2000,9.2201,-3.1029,2.1380,0.9984,-2.3172,-2.6207,-35.5500,-30.3000,18.4500,10.2100,-3.1300,-8.0800,-0.7647,-3.0445,-1.5163,-43.0000,49.5000,28.8750,342.0625,49.3750,164.4375,0
1776970421.138,7.3478,-5.5809,0.2682,0.2950,-2.2063,-1.4807,-65.1000,-56.8500,-37.2000,9.9958,-3.2130,2.2841,1.2508,-2.3025,-2.6473,-35.4000,-29.7000,18.3000,10.6700,-3.0100,-8.5000,-0.7658,-3.0489,-1.4661,-43.0000,49.5000,28.8750,342.0625,49.3750,164.4375,0
1776970421.143,7.4244,-5.4779,-0.2298,0.4991,-2.2508,-1.4437,-66.6000,-57.6000,-36.7500,9.9958,-3.2130,2.2841,1.2508,-2.3025,-2.6473,-35.4000,-29.7000,18.3000,10.6700,-3.0100,-8.5000,-0.8094,-3.0216,-1.4159,-43.0000,49.5000,28.8750,343.0000,48.0000,166.2500,0
1776970421.149,7.4244,-5.4779,-0.2298,0.4991,-2.2508,-1.4437,-66.6000,-57.6000,-36.7500,10.2927,-3.4596,2.4541,1.4690,-2.2831,-2.6065,-36.3000,-28.0500,18.4500,11.4100,-2.6700,-8.8900,-0.8094,-3.0216,-1.4159,-43.0000,49.5000,28.8750,344.0000,46.5000,167.9375,0
1776970421.158,7.6686,-5.3271,-0.6847,0.4935,-2.1365,-1.3931,-66.0000,-56.7000,-36.6000,10.3477,-3.8140,2.5211,1.5836,-2.2404,-2.5325,-36.3000,-29.5500,18.7500,11.5500,-2.4400,-8.9600,-0.8410,-3.0511,-1.3908,-43.0000,49.5000,28.8750,344.0000,46.5000,167.9375,0
1776970421.168,8.0302,-5.2218,-0.3519,0.4279,-1.9766,-1.4402,-66.1500,-56.1000,-36.4500,10.5345,-3.9576,2.7773,1.6214,-2.2457,-2.4722,-37.9500,-28.2000,19.3500,11.5900,-2.3000,-9.0800,-0.8279,-3.1143,-1.3810,-43.0000,49.5000,28.8750,345.0625,44.9375,169.5000,0
1776970421.173,8.2552,-5.6695,-0.3089,0.2966,-1.9055,-1.4693,-66.9000,-56.5500,-36.4500,10.5345,-3.9576,2.7773,1.6214,-2.2457,-2.4722,-38.4000,-27.3000,17.7000,11.5900,-2.3000,-9.0800,-0.8279,-3.1143,-1.3810,-43.0000,49.5000,28.8750,345.0625,44.9375,169.5000,0
1776970421.178,8.2552,-5.6695,-0.3089,0.2966,-1.9055,-1.4693,-66.9000,-56.5500,-36.4500,10.4124,-3.8547,2.9329,1.5444,-2.2910,-2.4304,-38.4000,-27.3000,17.7000,11.6500,-2.2700,-9.2100,-0.7592,-3.1787,-1.3941,-47.1875,46.2500,44.1875,4.9375,43.3750,170.9375,0
1776970421.183,7.8458,-5.8035,-0.0622,0.1340,-1.8810,-1.4424,-66.9000,-56.1000,-34.2000,10.4124,-3.8547,2.9329,1.3454,-2.3539,-2.3910,-38.4000,-27.3000,17.7000,11.6500,-2.2700,-9.2100,-0.7592,-3.1787,-1.3941,-47.1875,46.2500,44.1875,4.1875,41.6875,172.2500,0
1776970421.188,7.8458,-5.8035,-0.0622,0.1340,-1.8810,-1.4424,-66.9000,-56.1000,-34.2000,10.0221,-3.5578,2.7031,1.3454,-2.3539,-2.3910,-38.4000,-27.3000,17.7000,10.8900,-2.2500,-8.8100,-0.6709,-3.2703,-1.4061,-47.1875,46.2500,44.1875,4.1875,41.6875,172.2500,0
1776970421.198,7.5657,-5.7174,-0.0192,-0.0448,-1.7922,-1.4269,-66.9000,-56.1000,-34.2000,9.7013,-3.2394,2.5091,1.0904,-2.4043,-2.3318,-38.2500,-24.4500,19.3500,10.2000,-2.4100,-8.3300,-0.5334,-3.4056,-1.3952,-47.1875,46.2500,44.1875,3.4375,39.8750,173.4375,0
1776970421.207,7.5513,-5.1332,0.2562,-0.3128,-1.6987,-1.4123,-67.3500,-55.6500,-36.0000,9.6367,-2.7581,2.3918,0.8673,-2.4376,-2.2841,-39.3000,-24.9000,19.3500,9.3700,-2.6300,-7.7500,-0.4003,-3.4928,-1.3330,-47.1875,46.2500,44.1875,2.6875,38.0625,174.4375,0
1776970421.215,7.8362,-5.2241,0.5195,-0.5716,-1.7648,-1.4032,-67.3500,-55.6500,-36.0000,9.8067,-2.1931,2.1835,0.6480,-2.4672,-2.2593,-40.8000,-24.4500,17.5500,7.5800,-2.8900,-6.7800,-0.2978,-3.4787,-1.2108,-47.1875,46.2500,44.1875,2.0000,36.1875,175.2500,0
1776970421.219,7.5992,-4.7429,0.0982,-0.7914,-1.8700,-1.3523,-67.3500,-55.6500,-36.0000,9.8067,-2.1931,2.1835,0.6480,-2.4672,-2.2593,-40.8000,-24.4500,17.5500,7.5800,-2.8900,-6.7800,-0.2978,-3.4787,-1.2108,-47.1875,46.2500,44.1875,2.0000,36.1875,175.2500,0
1776970421.224,7.5992,-4.7429,0.0982,-0.7914,-1.8700,-1.3523,-67.5000,-55.5000,-36.9000,9.7564,-1.9441,1.7980,0.4767,-2.4930,-2.2575,-39.3000,-23.7000,19.3500,6.8900,-2.9300,-6.6500,-0.1963,-3.3816,-1.0210,-38.8750,37.0625,50.8750,1.4375,34.3750,175.8125,0
1776970421.229,7.5369,-4.6280,-0.1772,-1.0232,-1.8985,-1.2881,-67.5000,-55.5000,-36.9000,9.7564,-1.9441,1.7980,0.4767,-2.4930,-2.2575,-39.3000,-23.7000,19.3500,6.8900,-2.9300,-6.6500,-0.1963,-3.3816,-1.0210,-38.8750,37.0625,50.8750,1.4375,34.3750,175.8125,0
1776970421.234,7.5369,-4.6280,-0.1772,-1.0232,-1.8985,-1.2881,-68.4000,-55.3500,-35.2500,9.7564,-1.5658,1.4174,0.3190,-2.5231,-2.2820,-39.4500,-19.8000,18.1500,6.5600,-3.1700,-6.5800,-0.0851,-3.1765,-0.7549,-38.8750,37.0625,50.8750,0.9375,32.6250,176.2500,0
1776970421.239,7.8697,-3.4740,-0.2514,-0.9443,-2.4131,-1.3110,-68.4000,-55.3500,-35.2500,9.7564,-1.5658,1.4174,0.3190,-2.5231,-2.2820,-39.4500,-19.8000,18.1500,6.5600,-3.1700,-6.5800,-0.0851,-3.1765,-0.7549,-38.8750,37.0625,50.8750,0.9375,32.6250,176.2500,0
1776970421.248,6.5122,-4.4867,-1.8268,-0.9443,-2.4131,-1.3110,-68.1000,-53.7000,-36.7500,9.4763,-1.6137,0.7111,0.1881,-2.5069,-2.3092,-39.4500,-19.8000,18.1500,6.7700,-3.4200,-6.9200,-0.0131,-2.8754,-0.4352,-38.8750,37.0625,50.8750,0.6875,31.0625,176.4375,0
1776970421.258,6.2441,-3.9840,-2.7294,-1.1535,-1.8815,-1.3478,-69.1500,-53.4000,-37.2000,9.4140,-1.4653,0.2155,-0.0421,-2.5082,-2.3387,-41.7000,-19.8000,14.5500,7.2800,-3.5200,-7.1600,-0.0491,-2.5427,-0.1124,-38.8750,37.0625,50.8750,0.5625,29.6250,176.5625,0
1776970421.267,6.7540,-3.4165,-3.6703,-1.1034,-1.5524,-1.3110,-68.7000,-52.8000,-38.4000,9.3853,-1.5993,0.5914,-0.3054,-2.5026,-2.3385,-41.5500,-17.4000,15.7500,8.3600,-3.5500,-7.4500,-0.2007,-2.2569,0.1680,-38.8750,37.0625,50.8750,0.6875,28.3750,176.6875,0
1776970421.272,6.7540,-3.4165,-3.6703,-1.1437,-1.4485,-1.1535,-68.7000,-52.8000,-38.4000,9.1099,-1.2665,0.4262,-0.5929,-2.4392,-2.3065,-40.8000,-17.7000,15.7500,8.3600,-3.5500,-7.4500,-0.2007,-2.2569,0.1680,-38.8750,37.0625,50.8750,0.6875,28.3750,176.6875,0
1776970421.277,7.0150,-2.9736,-3.7469,-1.1437,-1.4485,-1.1535,-69.7500,-51.1500,-38.4000,9.1099,-1.2665,0.4262,-0.5929,-2.4392,-2.3065,-40.8000,-17.7000,15.7500,9.6500,-3.3500,-7.7600,-0.4320,-2.0639,0.3949,-28.1875,32.7500,48.5625,0.9375,27.2500,176.8125,0
1776970421.281,7.0150,-2.9736,-3.7469,-1.2311,-1.1538,-1.0805,-69.7500,-51.1500,-38.4000,8.5114,-0.9361,0.2801,-0.9294,-2.3435,-2.2660,-41.5500,-16.2000,15.7500,9.6500,-3.3500,-7.7600,-0.4320,-2.0639,0.3949,-28.1875,32.7500,48.5625,0.9375,27.2500,176.8125,0
1776970421.286,6.6200,-2.5570,-3.3615,-1.2311,-1.1538,-1.0805,-69.7500,-51.1500,-38.4000,8.5114,-0.9361,0.2801,-0.9294,-2.3435,-2.2660,-41.5500,-16.2000,15.7500,11.0700,-3.5000,-7.8200,-0.6403,-1.9231,0.5934,-28.1875,32.7500,48.5625,1.3125,26.1250,177.0625,0
1776970421.291,6.6200,-2.5570,-3.3615,-1.3853,-0.9987,-1.0179,-69.7500,-51.1500,-38.4000,8.2815,-0.4262,0.4669,-1.1037,-2.0997,-2.1562,-41.5500,-16.2000,15.7500,11.0700,-3.5000,-7.8200,-0.6403,-1.9231,0.5934,-28.1875,32.7500,48.5625,1.8125,25.1250,177.3125,0
1776970421.298,6.9097,-2.0662,-3.0382,-1.4666,-0.8271,-0.9745,-70.3500,-51.0000,-37.2000,8.2815,-0.4262,0.4669,-1.1037,-2.0997,-2.1562,-41.5500,-16.2000,15.7500,12.0900,-4.1200,-7.4700,-0.7603,-1.8086,0.7821,-28.1875,32.7500,48.5625,2.4375,24.1875,177.5000,0
1776970421.308,6.8977,-1.8603,-2.9712,-1.5338,-0.5822,-1.0339,-70.3500,-51.0000,-37.2000,7.9176,-0.0239,0.5626,-1.1149,-1.8668,-2.0251,-41.5500,-16.2000,15.7500,12.3000,-4.7700,-7.3100,-0.8225,-1.6395,0.9447,-28.1875,32.7500,48.5625,2.4375,24.1875,177.5000,0
1776970421.318,7.1970,-1.0702,-2.7270,-1.5449,-0.3483,-1.0744,-68.8500,-51.4500,-39.3000,8.0637,0.4956,0.5650,-1.1423,-1.6537,-1.8746,-42.4500,-13.8000,12.4500,10.8500,-6.0900,-5.4300,-0.9665,-1.5893,1.1388,-28.1875,32.7500,48.5625,3.1250,23.3125,177.8125,0
1776970421.323,7.1970,-1.0702,-2.7270,-1.5449,-0.3483,-1.0744,-68.8500,-51.4500,-39.3000,8.3414,0.3543,0.4262,-1.2630,-1.4906,-1.7022,-41.5500,-10.9500,11.8500,10.8500,-6.0900,-5.4300,-0.9665,-1.5893,1.1388,-28.1875,32.7500,48.5625,3.1250,23.3125,177.8125,0
1776970421.328,7.2616,-1.0558,-1.9034,-1.6022,-0.1338,-1.0192,-73.0500,-49.0500,-37.5000,8.4611,0.2131,0.0527,-1.3595,-1.3638,-1.5095,-41.5500,-10.9500,11.8500,9.8600,-6.5600,-4.0300,-1.1694,-1.7017,1.3603,-23.0000,28.2500,38.1875,4.0000,22.3125,178.1250,0
1776970421.333,7.2616,-1.0558,-1.9034,-1.6022,-0.1338,-1.0192,-73.0500,-49.0500,-37.5000,8.4611,0.2131,0.0527,-1.3595,-1.3638,-1.5095,-42.4500,-11.5500,10.2000,9.8600,-6.5600,-4.0300,-1.1694,-1.7017,1.3603,-23.0000,28.2500,38.1875,4.0000,22.3125,178.1250,0
1776970421.338,6.9480,-1.6137,-1.7669,-1.8215,0.1964,-0.9454,-72.4500,-48.9000,-39.9000,8.4970,0.1269,-0.1077,-1.4911,-1.2697,-1.3254,-42.4500,-11.5500,10.2000,9.0800,-6.8400,-2.7800,-1.3821,-1.7661,1.5468,-23.0000,28.2500,38.1875,5.0000,21.3125,178.5625,0
1776970421.343,6.9480,-1.6137,-1.7669,-1.8215,0.1964,-0.9454,-72.4500,-48.9000,-39.9000,8.4970,0.1269,-0.1077,-1.4911,-1.2697,-1.3254,-42.3000,-9.9000,10.8000,9.0800,-6.8400,-2.7800,-1.6537,-1.5119,1.7115,-23.0000,28.2500,38.1875,6.1250,20.4375,179.1250,0
1776970421.349,7.2760,-1.5083,-1.8651,-1.9169,0.4967,-0.8511,-72.4500,-47.7000,-39.9000,8.7604,0.0479,-0.0646,-1.6220,-1.1437,-1.1175,-42.3000,-9.9000,10.8000,8.7300,-6.5500,-2.1400,-1.6537,-1.5119,1.7115,-23.0000,28.2500,38.1875,7.3125,19.8125,179.7500,0
1776970421.358,8.1427,-1.0151,-2.0231,-1.9063,0.5812,-0.6728,-73.3500,-47.1000,-40.0500,8.7843,0.0838,-0.0886,-1.7277,-1.0405,-0.9244,-42.3000,-9.9000,10.8000,9.0000,-6.0800,-1.8100,-1.8151,-1.0952,1.8686,-23.0000,28.2500,38.1875,8.6250,19.3750,-179.5625,0
1776970421.368,7.9942,-1.2641,-2.0949,-2.1141,0.7053,-0.4775,-73.9500,-46.0500,-39.9000,8.7939,0.0958,-0.2777,-1.8426,-0.8916,-0.7325,-42.9000,-6.9000,10.5000,8.8700,-5.6800,-1.5100,-1.8413,-0.7919,2.0246,-23.0000,28.2500,38.1875,8.6250,19.3750,-179.5625,0
1776970421.373,8.2049,-1.6975,-2.0710,-2.2215,0.8348,-0.3174,-73.9500,-46.0500,-39.9000,8.7939,0.0958,-0.2777,-1.8426,-0.8916,-0.7325,-42.6000,-6.4500,10.0500,8.8700,-5.6800,-1.5100,-1.8413,-0.7919,2.0246,-23.0000,28.2500,38.1875,10.0000,19.1250,-179.0000,0
1776970421.378,8.2049,-1.6975,-2.0710,-2.2215,0.8348,-0.3174,-73.9500,-46.0500,-39.9000,8.8633,0.1987,-0.4310,-1.8586,-0.7368,-0.5702,-42.6000,-6.4500,10.0500,8.7000,-5.4000,-1.1900,-1.7442,-0.5716,2.1718,-23.2500,28.5000,34.5625,10.0000,19.1250,-179.0000,0
1776970421.383,8.5162,-2.3415,-1.8220,-2.3398,0.8881,-0.2233,-73.9500,-46.0500,-39.9000,8.8633,0.1987,-0.4310,-1.8586,-0.7368,-0.5702,-41.7000,-4.5000,9.9000,8.7000,-5.4000,-1.1900,-1.7442,-0.5716,2.1718,-23.2500,28.5000,34.5625,11.4375,18.9375,-178.5625,0
1776970421.388,8.5162,-2.3415,-1.8220,-2.3398,0.8881,-0.2233,-75.4500,-45.3000,-40.3500,8.7125,0.0048,-0.7781,-1.9849,-0.6241,-0.4258,-41.7000,-4.5000,9.9000,8.7600,-4.9900,-0.7700,-1.5872,-0.2934,2.2962,-23.2500,28.5000,34.5625,11.4375,18.9375,-178.5625,0
1776970421.397,8.7508,-2.2553,-1.9680,-2.2748,0.6155,-0.0847,-75.4500,-45.3000,-40.3500,8.5162,-0.3974,0.1269,-2.0483,-0.4676,-0.2659,-42.6000,-3.9000,7.6500,9.0200,-4.7000,-0.7500,-1.4421,0.0513,2.3889,-23.2500,28.5000,34.5625,12.8750,19.0000,-178.2500,0
1776970421.402,8.2313,-1.4605,-2.5762,-2.0827,0.4461,0.0741,-75.4500,-45.3000,-40.3500,8.5162,-0.3974,0.1269,-2.0483,-0.4676,-0.2659,-41.5500,-5.4000,8.7000,9.0200,-4.7000,-0.7500,-1.4421,0.0513,2.3889,-23.2500,28.5000,34.5625,14.3750,19.3125,-177.9375,0
1776970421.409,8.2313,-1.4605,-2.5762,-2.0827,0.4461,0.0741,-74.8500,-44.4000,-40.8000,7.7979,0.1604,-0.6249,-2.0382,-0.2523,-0.0578,-41.5500,-5.4000,8.7000,10.0900,-4.5100,-1.1700,-1.3221,0.3796,2.4511,-23.2500,28.5000,34.5625,15.8125,19.7500,-177.7500,0
1776970421.419,8.0014,0.1867,-3.3447,-1.8884,0.5121,0.2936,-73.8000,-44.7000,-42.0000,7.6543,0.2179,-0.9146,-1.9470,0.0400,0.1668,-41.5500,-5.4000,8.7000,12.7700,-4.3400,-2.6600,-1.1912,0.7221,2.4664,-23.2500,28.5000,34.5625,15.8125,19.7500,-177.7500,0
1776970421.423,7.5082,0.9577,-3.7589,-1.5495,0.6171,0.5063,-73.8000,-44.7000,-42.0000,7.6543,0.2179,-0.9146,-1.9470,0.0400,0.1668,-42.4500,-2.5500,7.3500,12.7700,-4.3400,-2.6600,-1.1912,0.7221,2.4664,-23.2500,28.5000,34.5625,17.2500,20.2500,-177.6875,0
1776970421.429,7.5082,0.9577,-3.7589,-1.5495,0.6171,0.5063,-75.4500,-43.8000,-42.9000,7.5202,0.8787,-1.0487,-1.7128,0.3504,0.3653,-42.6000,-3.1500,9.3000,12.6700,-3.7600,-2.4800,-1.0723,0.8410,2.4227,-22.0000,28.5000,36.6875,17.2500,20.2500,-177.6875,0
1776970421.433,7.6279,1.0104,-3.9792,-1.0714,0.5287,0.6595,-75.4500,-43.8000,-42.9000,7.5202,0.8787,-1.0487,-1.7128,0.3504,0.3653,-42.6000,-3.1500,9.3000,12.6700,-3.7600,-2.4800,-1.0723,0.8410,2.4227,-22.0000,28.5000,36.6875,18.6250,20.6875,-177.5625,0
1776970421.438,7.6279,1.0104,-3.9792,-1.0714,0.5287,0.6595,-75.3000,-42.4500,-41.2500,7.9583,1.0918,-0.9816,-1.3694,0.6350,0.6129,-41.4000,-2.5500,8.5500,12.7000,-3.1600,-2.2900,-0.9959,0.6490,2.3235,-22.0000,28.5000,36.6875,18.6250,20.6875,-177.5625,0
1776970421.445,7.5800,0.5746,-3.0957,-0.6590,0.4338,0.8058,-75.3000,-43.2000,-39.7500,9.7157,3.6368,0.1556,-0.8215,0.8887,0.7858,-41.4000,-2.5500,8.5500,12.3500,-2.4500,-2.2300,-0.9054,0.5072,2.1293,-22.0000,28.5000,36.6875,19.9375,21.0000,-177.5625,0
1776970421.450,8.8131,-0.4645,-2.1093,-0.2910,0.3914,0.9052,-75.3000,-43.2000,-39.7500,9.7157,3.6368,0.1556,-0.8215,0.8887,0.7858,-41.8500,-3.4500,8.7000,12.3500,-2.4500,-2.2300,-0.9054,0.5072,2.1293,-22.0000,28.5000,36.6875,21.0000,21.2500,-177.5625,0
1776970421.459,11.0804,-0.3160,-1.3910,-0.2910,0.3914,0.9052,-74.8500,-42.4500,-39.7500,11.0373,4.7453,-3.2394,-1.0243,1.2185,0.6499,-42.0000,-2.2500,9.6000,3.6400,8.8000,-6.2700,-0.6130,0.3632,1.8064,-22.0000,28.5000,36.6875,22.3125,22.0625,-178.5625,0
1776970421.469,12.6150,-0.0048,-0.6656,0.0165,0.3400,0.8588,-74.8500,-42.4500,-39.7500,11.2432,8.4827,-0.4357,-0.2388,0.7093,0.4647,-42.0000,-2.2500,9.6000,2.6700,1.2700,-6.8200,0.8399,1.4257,2.5351,-22.0000,28.5000,36.6875,22.3125,22.0625,-178.5625,0
1776970421.473,12.6150,-0.0048,-0.6656,0.3595,0.1490,0.6795,-74.8500,-42.4500,-39.7500,16.0675,8.5808,-8.8418,-0.5257,0.6853,0.0474,-42.0000,-2.2500,9.6000,2.6700,1.2700,-6.8200,0.8399,1.4257,2.5351,-22.0000,28.5000,36.6875,24.0000,24.0000,-179.8750,0
1776970421.479,14.5137,-0.6560,-0.8571,0.3595,0.1490,0.6795,-75.1500,-44.1000,-39.6000,16.0675,8.5808,-8.8418,-0.5257,0.6853,0.0474,-43.3500,-3.9000,11.1000,3.4100,9.7200,-14.0800,0.8748,3.3707,3.2987,-22.1875,29.6875,35.8750,24.0000,24.0000,-179.8750,0
1776970421.483,14.5137,-0.6560,-0.8571,0.5790,0.3349,0.3651,-75.1500,-44.1000,-39.6000,19.4744,3.6105,-7.4460,2.0283,-0.2118,-0.4863,-43.3500,-3.9000,11.1000,3.4100,9.7200,-14.0800,0.8748,3.3707,3.2987,-22.1875,29.6875,35.8750,25.5000,26.0625,178.7500,0
1776970421.489,17.2526,-5.2720,-2.9951,0.7818,0.8873,0.2065,-75.1500,-44.1000,-39.6000,19.4744,3.6105,-7.4460,2.0283,-0.2118,-0.4863,-42.3000,-3.9000,11.1000,10.3800,1.6000,-15.1500,1.0570,3.8092,2.9540,-22.1875,29.6875,35.8750,25.5000,26.0625,178.7500,0
1776970421.498,18.0690,-7.7716,-8.4635,1.5396,1.0245,-0.2843,-73.9500,-44.1000,-38.8500,17.4274,0.9649,-1.5419,3.7904,0.0930,-0.5726,-42.0000,-3.3000,11.7000,5.3100,0.5900,-11.4900,0.4811,3.8583,1.5479,-22.1875,29.6875,35.8750,26.3125,28.1875,178.0000,0
1776970421.508,16.6397,-6.0501,-11.3796,2.6340,1.1143,-0.6110,-76.5000,-43.9500,-35.7000,14.3700,-0.9242,-0.8380,3.6268,0.5982,-0.3046,-41.7000,-4.5000,13.5000,9.6500,-5.2100,-8.3900,1.1290,2.5471,0.5716,-22.1875,29.6875,35.8750,26.5000,29.5625,177.1250,0
1776970421.514,16.6397,-6.0501,-11.3796,2.6340,1.1143,-0.6110,-76.5000,-43.9500,-35.7000,11.3174,-1.9321,-0.6297,2.7408,0.9220,-0.1092,-41.7000,-4.5000,13.5000,9.6500,-5.2100,-8.3900,1.7017,1.7050,-0.2411,-22.1875,29.6875,35.8750,26.1875,30.5625,176.2500,0
1776970421.520,11.9973,-2.6360,-5.6216,2.6444,-0.3429,-0.3325,-76.5000,-43.5000,-33.7500,11.3174,-1.9321,-0.6297,2.7408,0.9220,-0.1092,-40.6500,-4.0500,13.8000,14.4000,-6.3300,-13.5300,1.7017,1.7050,-0.2411,-22.1875,29.6875,35.8750,26.1875,30.5625,176.2500,0
1776970421.525,11.9973,-2.6360,-5.6216,2.6444,-0.3429,-0.3325,-76.5000,-43.5000,-33.7500,9.3063,-1.6496,-1.6759,1.6310,1.1117,0.1585,-40.6500,-4.0500,13.8000,14.4000,-6.3300,-13.5300,1.2108,1.8337,-0.8007,-21.8750,32.2500,32.5625,25.5625,31.5625,175.8125,0
1776970421.529,8.2648,-1.7957,-2.7605,2.6033,-0.8143,0.0325,-76.6500,-45.0000,-33.3000,9.3063,-1.6496,-1.6759,1.6310,1.1117,0.1585,-40.6500,-4.0500,13.8000,7.2500,-3.8600,-8.7500,1.2108,1.8337,-0.8007,-21.8750,32.2500,32.5625,25.5625,31.5625,175.8125,0
1776970421.534,8.2648,-1.7957,-2.7605,2.6033,-0.8143,0.0325,-76.6500,-45.0000,-33.3000,8.4635,1.4078,-2.5618,1.0661,1.1383,0.3360,-40.6500,-4.0500,13.8000,7.2500,-3.8600,-8.7500,0.9021,-0.2345,-1.0636,-21.8750,32.2500,32.5625,24.8125,31.5000,175.6875,0
1776970421.539,6.5314,-3.4548,-2.3008,2.3723,-0.1196,-0.0179,-76.9500,-45.0000,-32.1000,8.4635,1.4078,-2.5618,1.0661,1.1383,0.3360,-42.6000,-6.1500,15.7500,4.6100,-6.0600,-5.1800,0.9021,-0.2345,-1.0636,-21.8750,32.2500,32.5625,24.8125,31.5000,175.6875,0
1776970421.548,7.6686,-1.8771,-1.6233,2.2404,0.0879,0.0671,-76.2000,-46.0500,-31.0500,8.1355,2.9066,-1.2689,0.9542,1.1010,0.4578,-41.7000,-5.5500,17.1000,6.3700,-5.6700,-7.8300,0.7985,-0.5629,-0.8508,-21.8750,32.2500,32.5625,24.2500,31.1875,175.5625,0
1776970421.558,8.4731,-0.6081,-1.5874,1.8631,0.2502,0.1889,-74.7000,-46.0500,-29.8500,9.0309,3.2585,-1.5514,0.9036,0.9593,0.4506,-42.3000,-6.4500,19.3500,4.3800,-2.4800,-7.5100,0.4898,0.4789,-0.6523,-21.8750,32.2500,32.5625,23.8125,31.5000,175.5000,0
1776970421.568,8.2839,-1.2115,-2.3942,1.4647,0.4916,0.1604,-75.9000,-48.0000,-28.0500,7.8578,4.5274,-1.3455,0.8713,0.8327,0.2555,-42.0000,-7.5000,20.5500,4.7200,-1.8000,-7.1300,0.5138,-0.0960,-0.4058,-21.8750,32.2500,32.5625,23.5000,31.5000,175.3125,0
1776970421.573,8.2839,-1.2115,-2.3942,1.4647,0.4916,0.1604,-75.9000,-48.0000,-28.0500,7.4867,5.1427,-0.7709,0.8450,0.8756,0.0799,-42.0000,-7.5000,20.5500,4.7200,-1.8000,-7.1300,0.5138,-0.0960,-0.4058,-21.8750,32.2500,32.5625,23.5000,31.5000,175.3125,0
1776970421.577,8.1570,-1.6400,-2.5067,1.0826,0.1087,0.2012,-75.9000,-48.0000,-28.0500,7.4867,5.1427,-0.7709,0.8450,0.8756,0.0799,-42.0000,-7.5000,20.5500,4.5800,-0.3400,-7.7500,0.1265,0.4320,-0.2007,-25.0000,32.5000,28.6875,23.3750,31.7500,175.3125,0
1776970421.582,8.1570,-1.6400,-2.5067,1.0826,0.1087,0.2012,-75.9000,-48.0000,-28.0500,7.6064,4.2186,-0.1413,0.7221,0.8884,0.0328,-42.0000,-7.5000,20.5500,4.5800,-0.3400,-7.7500,0.1265,0.4320,-0.2007,-25.0000,32.5000,28.6875,23.3750,31.7500,175.3125,0
1776970421.587,8.0709,0.4094,0.7590,0.7701,0.2334,0.0901,-74.4000,-48.9000,-27.7500,7.6064,4.2186,-0.1413,0.7221,0.8884,0.0328,-42.0000,-7.5000,20.5500,5.1100,-0.4800,-8.0100,0.1265,0.4320,-0.2007,-25.0000,32.5000,28.6875,23.2500,32.0000,175.3125,0
1776970421.592,8.0709,0.4094,0.7590,0.7701,0.2334,0.0901,-74.4000,-48.9000,-27.7500,9.1913,1.6688,0.5363,0.1974,0.8559,0.1042,-42.0000,-7.5000,20.5500,5.1100,-0.4800,-8.0100,0.1265,0.4320,-0.2007,-25.0000,32.5000,28.6875,23.1875,32.1875,175.3125,0
1776970421.599,8.2768,-0.7829,0.4453,-0.3120,0.6901,0.2769,-74.4000,-48.9000,-27.7500,9.9479,-0.0144,1.0127,-0.5343,0.6997,0.2254,-42.7500,-7.8000,22.0500,5.5500,-0.2800,-7.8900,0.0338,0.4189,-0.0851,-25.0000,32.5000,28.6875,23.2500,32.5625,175.3750,0
1776970421.609,8.7747,-2.8419,-0.4764,-1.0190,1.0054,0.4956,-76.8000,-47.5500,-26.7000,10.3860,0.6608,0.6488,-1.1906,0.5963,0.2662,-42.6000,-7.2000,22.5000,5.9400,-1.8400,-7.9900,-0.1320,0.6676,-0.0109,-25.0000,32.5000,28.6875,23.2500,32.5625,175.3750,0
1776970421.619,9.8330,-4.8267,-1.0175,-1.2710,1.3808,0.3821,-74.5500,-47.1000,-26.1000,10.6039,1.6472,0.6943,-1.4512,0.5084,0.2793,-42.7500,-8.5500,22.3500,6.1100,-1.4200,-8.3700,-0.1636,0.6141,0.0338,-25.0000,32.5000,28.6875,23.2500,32.9375,175.4375,0
1776970421.624,10.0892,-4.4508,-0.8236,-1.2913,1.2644,0.3070,-74.5500,-47.1000,-26.1000,10.6039,1.6472,0.6943,-1.4512,0.5084,0.2793,-42.7500,-8.5500,22.3500,6.1100,-1.4200,-8.3700,-0.1636,0.6141,0.0338,-25.0000,32.5000,28.6875,23.2500,32.9375,175.4375,0
1776970421.629,10.0892,-4.4508,-0.8236,-1.2913,1.2644,0.3070,-75.3000,-48.6000,-26.1000,10.3118,2.5426,0.3615,-1.4200,0.4674,0.2870,-43.2000,-7.0500,22.3500,6.3100,-1.2100,-8.5400,-0.0785,0.4821,0.0153,-27.5625,32.6875,27.5000,23.3125,33.1875,175.4375,0
1776970421.634,10.8338,-1.8627,0.5459,-1.3041,1.2910,0.2651,-75.3000,-48.6000,-26.1000,10.3118,2.5426,0.3615,-1.4200,0.4674,0.2870,-43.2000,-7.0500,22.3500,6.3100,-1.2100,-8.5400,-0.0785,0.4821,0.0153,-27.5625,32.6875,27.5000,23.3125,33.1875,175.4375,0
1776970421.639,10.8338,-1.8627,0.5459,-1.3041,1.2910,0.2651,-76.8000,-48.3000,-27.1500,9.8402,3.4237,0.3831,-1.2425,0.4557,0.3304,-43.2000,-7.0500,22.3500,6.1500,-1.4700,-8.5200,0.0262,0.2400,-0.0055,-27.5625,32.6875,27.5000,23.3125,33.3125,175.4375,0
1776970421.644,11.0995,-0.8523,0.7063,-1.2049,1.2199,0.2878,-76.8000,-48.3000,-27.1500,9.8402,3.4237,0.3831,-1.2425,0.4557,0.3304,-43.2000,-7.0500,22.3500,6.1500,-1.4700,-8.5200,0.0491,0.0458,0.0055,-27.5625,32.6875,27.5000,23.3125,33.3125,175.3750,0
1776970421.650,11.0995,-0.8523,0.7063,-1.2049,1.2199,0.2878,-76.9500,-47.2500,-26.5500,9.3613,3.8259,0.0694,-1.1170,0.4663,0.3978,-41.7000,-7.8000,21.6000,5.9400,-1.4700,-8.3300,0.0491,0.0458,0.0055,-27.5625,32.6875,27.5000,23.3125,33.3750,175.3750,0
1776970421.659,11.2432,0.6201,-0.0527,-0.9422,0.7069,0.3789,-77.4000,-48.4500,-25.8000,8.8705,4.3144,-0.3472,-1.0024,0.4607,0.4474,-41.8500,-7.6500,22.5000,5.6400,-0.8000,-7.8900,0.0360,0.0207,0.0022,-27.5625,32.6875,27.5000,23.3125,33.3750,175.3750,0
1776970421.669,10.0556,1.4820,-0.8236,-0.8324,0.4570,0.4354,-77.4000,-48.4500,-25.8000,8.8442,4.6040,-1.0870,-0.9065,0.4541,0.4676,-42.9000,-7.9500,21.1500,5.6500,-0.5500,-7.9200,0.0196,0.0513,-0.0022,-27.5625,32.6875,27.5000,23.3125,33.3750,175.3750,0
1776970421.674,9.3494,0.7949,-1.5514,-0.7426,0.5028,0.4642,-77.4000,-48.4500,-25.8000,8.8442,4.6040,-1.0870,-0.9065,0.4541,0.4676,-42.3000,-9.4500,21.1500,5.6500,-0.5500,-7.9200,0.0196,0.0513,-0.0022,-27.5625,32.6875,27.5000,23.3125,33.3750,175.3750,0
1776970421.679,9.3494,0.7949,-1.5514,-0.7426,0.5028,0.4642,-75.6000,-49.0500,-25.3500,8.9064,4.2856,-1.6041,-0.7565,0.4636,0.4362,-42.3000,-9.4500,21.9000,5.7800,-0.4800,-7.8600,0.0196,0.0415,-0.0065,-28.5625,32.7500,27.5625,23.3125,33.3750,175.3750,0
1776970421.684,9.5265,0.3950,-1.9728,-0.9300,0.5862,0.5223,-75.6000,-49.0500,-25.3500,8.9064,4.2856,-1.6041,-0.7565,0.4636,0.4362,-41.8500,-8.4000,22.9500,5.7800,-0.4800,-7.8600,0.0196,0.0415,-0.0065,-28.5625,32.7500,27.5625,23.3125,33.4375,175.3750,0
1776970421.689,9.2656,-0.7374,-2.1955,-0.9300,0.5862,0.5223,-75.6000,-49.0500,-25.3500,9.0261,3.5913,-1.3671,-0.7253,0.4530,0.4309,-41.8500,-8.4000,22.9500,5.5600,-0.6600,-7.9900,0.0087,0.0447,-0.0022,-28.5625,32.7500,27.5625,23.3125,33.5000,175.3750,0
1776970421.699,9.0549,-1.4629,-2.8778,-1.3027,0.6829,0.6342,-76.6500,-48.9000,-26.2500,9.3350,2.4301,-1.1205,-0.8372,0.4506,0.4458,-41.8500,-8.4000,22.9500,5.4900,-0.9700,-8.0000,-0.0185,0.0753,-0.0120,-28.5625,32.7500,27.5625,23.3125,33.5000,175.3750,0
1776970421.709,9.1770,-1.9345,-2.2051,-1.5031,0.8167,0.7546,-75.4500,-48.9000,-26.5500,9.4499,2.3080,-0.7302,-1.1151,0.4357,0.4783,-40.0500,-9.9000,22.2000,5.3400,-1.4000,-8.0400,-0.0338,0.1265,-0.0065,-28.5625,32.7500,27.5625,23.3125,33.5625,175.3750,0
1776970421.718,9.3541,-1.9992,-1.6616,-1.4485,0.8055,0.7325,-74.4000,-49.2000,-27.0000,9.2727,1.8292,-0.7087,-1.4240,0.4311,0.5239,-40.9500,-9.3000,23.8500,5.3700,-0.8800,-7.8300,-0.0502,0.1691,-0.0087,-28.5625,32.7500,27.5625,23.3125,33.6250,175.3750,0
1776970421.723,9.3541,-1.9992,-1.6616,-1.4861,0.7290,0.7544,-74.4000,-49.2000,-27.0000,9.2727,1.8292,-0.7087,-1.4240,0.4311,0.5239,-41.5500,-9.4500,21.4500,5.3700,-0.8800,-7.8300,-0.0502,0.1691,-0.0087,-28.5625,32.7500,27.5625,23.3125,33.6250,175.3750,0
1776970421.728,8.9352,-1.3815,-0.9050,-1.4861,0.7290,0.7544,-75.1500,-48.9000,-25.0500,9.4212,1.8651,-0.0383,-1.5990,0.4034,0.5630,-41.5500,-9.4500,21.4500,5.4600,-0.8500,-7.8000,-0.0404,0.2356,0.0109,-28.0000,33.0625,26.7500,23.3125,33.7500,175.4375,0
1776970421.733,8.9352,-1.3815,-0.9050,-1.6627,0.6600,0.9092,-75.1500,-48.9000,-25.0500,9.4212,1.8651,-0.0383,-1.5990,0.4034,0.5630,-42.6000,-9.1500,22.5000,5.4600,-0.8500,-7.8000,-0.0404,0.2356,0.0109,-28.0000,33.0625,26.7500,23.3125,33.7500,175.4375,0
1776970421.738,9.2033,-1.0008,-0.0431,-1.6627,0.6600,0.9092,-73.9500,-50.4000,-27.3000,9.3661,2.7629,0.2155,-1.6443,0.3240,0.5654,-42.6000,-9.1500,22.5000,5.4200,-0.9000,-7.8600,-0.0098,0.2356,0.0251,-28.0000,33.0625,26.7500,23.3750,33.8750,175.3750,0
1776970421.743,9.2033,-1.0008,-0.0431,-1.5410,0.8844,0.9073,-73.9500,-50.4000,-27.3000,9.3661,2.7629,0.2155,-1.6443,0.3240,0.5654,-40.6500,-10.5000,22.3500,5.4200,-0.9000,-7.8600,-0.0098,0.2356,0.0251,-28.0000,33.0625,26.7500,23.3750,34.0625,175.3750,0
1776970421.750,10.1035,-1.2570,-0.0215,-1.3947,1.0237,0.8007,-75.3000,-49.8000,-27.4500,9.6534,3.0263,-0.0072,-1.4855,0.3118,0.5444,-40.6500,-10.5000,22.3500,5.6200,-0.7200,-7.8300,0.0033,0.2673,0.0207,-28.0000,33.0625,26.7500,23.3750,34.1875,175.3750,0
1776970421.759,10.3741,-1.2019,0.0886,-1.2598,0.8908,0.7927,-75.3000,-49.8000,-27.4500,9.5050,3.3064,-0.0790,-1.2716,0.3075,0.5199,-40.6500,-10.5000,22.3500,5.6300,-0.7600,-7.8400,0.0044,0.2836,0.0185,-28.0000,33.0625,26.7500,23.3750,34.1875,175.3750,0
1776970421.769,10.7739,-0.7566,0.0120,-1.0738,0.6086,0.7405,-72.4500,-49.6500,-27.0000,9.3948,3.3950,-0.2514,-1.0371,0.3291,0.5372,-42.4500,-8.5500,21.6000,5.6500,-0.6900,-7.7800,-0.0185,0.2891,0.0065,-28.0000,33.0625,26.7500,23.3750,34.3750,175.3750,0
1776970421.774,10.7739,-0.7566,0.0120,-1.0738,0.6086,0.7405,-72.4500,-49.6500,-27.0000,9.3661,2.7270,-0.2370,-0.8953,0.3349,0.5311,-39.9000,-10.5000,22.0500,5.6500,-0.6900,-7.7800,-0.0185,0.2891,0.0065,-28.0000,33.0625,26.7500,23.3750,34.3750,175.3750,0
1776970421.779,9.9192,-1.3527,-1.0199,-0.9395,0.3435,0.6933,-72.4500,-49.6500,-27.0000,9.3661,2.7270,-0.2370,-0.8953,0.3349,0.5311,-39.9000,-10.5000,22.0500,5.6300,-0.8100,-7.6300,-0.0567,0.3469,0.0284,-28.0000,32.5625,26.7500,23.4375,34.5625,175.3750,0
1776970421.784,9.9192,-1.3527,-1.0199,-0.9395,0.3435,0.6933,-72.4500,-49.6500,-27.0000,9.2320,2.7701,-0.2203,-0.7296,0.3344,0.4916,-41.1000,-10.2000,23.2500,5.6300,-0.8100,-7.6300,-0.0567,0.3469,0.0284,-28.0000,32.5625,26.7500,23.4375,34.5625,175.3750,0
1776970421.789,9.2033,-1.8172,-1.1516,-0.7626,0.2912,0.6566,-73.9500,-50.4000,-28.0500,9.2320,2.7701,-0.2203,-0.7296,0.3344,0.4916,-41.1000,-10.2000,23.2500,5.6600,-0.8000,-7.7300,-0.0873,0.4265,0.0491,-28.0000,32.5625,26.7500,23.5000,34.8125,175.3750,0
1776970421.794,9.2033,-1.8172,-1.1516,-0.7626,0.2912,0.6566,-73.9500,-50.4000,-28.0500,9.1866,2.5666,-0.2801,-0.6531,0.3547,0.5036,-41.8500,-9.4500,22.2000,5.6600,-0.8000,-7.7300,-0.1134,0.4832,0.0044,-28.0000,32.5625,26.7500,23.5000,35.0625,175.4375,0
1776970421.800,9.1602,-1.7502,-1.0989,-0.7008,0.4946,0.5708,-74.4000,-50.1000,-28.5000,9.1866,2.5666,-0.2801,-0.6531,0.3547,0.5036,-41.8500,-9.4500,22.2000,5.8400,-0.7800,-7.7800,-0.1134,0.4832,0.0044,-28.0000,32.5625,26.7500,23.5625,35.3750,175.4375,0
1776970421.809,9.2632,-1.4126,-1.3551,-0.6797,0.6856,0.5167,-72.0000,-50.8500,-28.0500,9.3805,2.6025,-0.3400,-0.6552,0.3603,0.4988,-41.7000,-10.8000,22.3500,6.7900,-0.8800,-8.1400,-0.1145,0.5072,0.0142,-28.0000,32.5625,26.7500,23.5625,35.3750,175.4375,0
1776970421.819,9.3111,-1.3886,-1.5634,-0.7695,0.6779,0.5836,-72.6000,-51.4500,-27.4500,9.5744,2.1739,-0.2705,-0.7048,0.3677,0.5049,-41.7000,-10.8000,22.3500,6.3200,-0.4300,-7.3200,-0.0676,0.3109,0.0120,-28.0000,32.5625,26.7500,23.5625,35.5000,175.5000,0
1776970421.824,9.7205,-1.7597,-1.7502,-0.7695,0.6779,0.5836,-72.6000,-51.4500,-27.4500,9.5720,1.8292,-0.3687,-0.8474,0.3435,0.5119,-41.7000,-12.3000,23.1000,6.3200,-0.4300,-7.3200,-0.0676,0.3109,0.0120,-28.0000,32.5625,26.7500,23.6250,35.6875,175.4375,0
1776970421.829,9.7205,-1.7597,-1.7502,-0.8476,0.7147,0.6166,-73.9500,-51.1500,-27.7500,9.5720,1.8292,-0.3687,-0.8474,0.3435,0.5119,-41.7000,-12.3000,23.1000,5.6600,-0.6600,-7.9800,-0.0251,0.2716,0.0611,-28.2500,32.5625,27.1875,23.6250,35.6875,175.4375,0
1776970421.834,9.4403,-2.3703,-1.7119,-0.8476,0.7147,0.6166,-73.9500,-51.1500,-27.7500,9.5864,1.9082,-0.6369,-0.9950,0.3360,0.5380,-40.9500,-11.5500,23.4000,5.6600,-0.6600,-7.9800,-0.0251,0.2716,0.0611,-28.2500,32.5625,27.1875,23.6250,35.8125,175.4375,0
1776970421.839,9.4403,-2.3703,-1.7119,-1.0086,0.6395,0.6686,-71.1000,-50.5500,-28.6500,9.5864,1.9082,-0.6369,-0.9950,0.3360,0.5380,-40.9500,-11.5500,23.4000,5.8900,-0.7900,-7.7800,0.0305,0.2389,0.0425,-28.2500,32.5625,27.1875,23.6250,35.8125,175.4375,0
1776970421.844,9.4092,-1.9034,-1.5538,-1.0464,0.5905,0.6885,-71.1000,-50.5500,-28.6500,9.4906,2.0159,-0.4717,-1.0485,0.3379,0.5601,-39.9000,-11.5500,24.4500,5.8900,-0.7900,-7.7800,0.0545,0.2400,0.0305,-28.2500,32.5625,27.1875,23.6250,35.9375,175.3750,0
1776970421.850,9.4092,-1.9034,-1.5538,-1.0464,0.5905,0.6885,-71.1000,-50.5500,-28.6500,9.4906,2.0159,-0.4717,-1.0485,0.3379,0.5601,-39.9000,-11.5500,24.4500,5.8400,-0.8300,-7.7700,0.0545,0.2400,0.0305,-28.2500,32.5625,27.1875,23.6875,36.0625,175.3125,0
1776970421.859,9.2584,-1.7837,-1.3001,-1.0645,0.6251,0.6827,-72.0000,-52.0500,-29.5500,9.2536,2.3128,-0.2897,-1.0296,0.3501,0.5713,-40.0500,-13.9500,21.4500,6.5300,-0.7500,-7.6700,0.0524,0.2738,0.0305,-28.2500,32.5625,27.1875,23.6875,36.0625,175.3125,0
1776970421.869,9.3661,-1.6137,-1.0415,-1.0592,0.6979,0.6731,-72.0000,-52.0500,-29.5500,9.4643,2.3894,-0.1580,-1.0016,0.3778,0.5857,-40.0500,-13.9500,21.4500,5.7600,-0.6600,-7.7400,0.0589,0.2334,0.0513,-28.2500,32.5625,27.1875,23.6875,36.1875,175.2500,0
1776970421.874,9.5984,-1.3048,-1.0127,-1.0096,0.6800,0.6811,-72.0000,-52.0500,-29.5500,9.4739,2.5187,-0.2155,-0.9164,0.3920,0.5950,-40.0500,-13.9500,21.4500,5.7600,-0.6600,-7.7400,0.0589,0.2334,0.0513,-28.2500,32.5625,27.1875,23.6875,36.1875,175.2500,0
1776970421.879,9.5984,-1.3048,-1.0127,-1.0096,0.6800,0.6811,-70.3500,-51.0000,-28.6500,9.4739,2.5187,-0.2155,-0.9164,0.3920,0.5950,-40.0500,-13.9500,21.4500,6.0200,-0.8100,-7.6100,0.0480,0.2465,0.0371,-29.5000,33.2500,26.0000,23.6875,36.3750,175.1875,0
1776970421.884,9.5648,-0.9697,-1.1277,-0.9009,0.6451,0.6856,-70.3500,-51.0000,-28.6500,9.3206,2.7270,-0.3112,-0.7919,0.4287,0.5881,-38.5500,-13.6500,23.5500,6.0200,-0.8100,-7.6100,0.0480,0.2465,0.0371,-29.5000,33.2500,26.0000,23.6875,36.3750,175.1875,0
1776970421.889,9.5648,-0.9697,-1.1277,-0.9009,0.6451,0.6856,-70.8000,-50.2500,-28.6500,9.3206,2.7270,-0.3112,-0.6520,0.4612,0.5913,-38.5500,-13.6500,23.5500,6.1900,-0.4300,-7.6300,0.0164,0.3054,0.0262,-29.5000,33.2500,26.0000,23.7500,36.5625,175.1875,0
1776970421.894,9.4810,-0.9457,-1.1277,-0.7677,0.6198,0.6880,-70.8000,-50.2500,-28.6500,9.2680,2.7390,-0.3711,-0.6520,0.4612,0.5913,-39.3000,-13.9500,22.9500,6.1900,-0.4300,-7.6300,-0.0273,0.3512,0.0185,-29.5000,33.2500,26.0000,23.7500,36.8125,175.1875,0
1776970421.900,9.4810,-0.9457,-1.1277,-0.7677,0.6198,0.6880,-71.7000,-50.4000,-28.5000,9.4379,2.3942,-0.4118,-0.5841,0.4994,0.5899,-40.2000,-12.7500,22.8000,6.4700,-0.4500,-7.5900,-0.0273,0.3512,0.0185,-29.5000,33.2500,26.0000,23.7500,36.8125,175.1875,0
1776970421.909,9.4355,-1.0582,-1.2306,-0.6488,0.6219,0.6835,-70.8000,-50.4000,-28.5000,9.5840,2.2458,-0.6225,-0.5156,0.5092,0.5902,-40.2000,-12.7500,22.8000,5.9700,-0.4400,-7.6300,-0.0295,0.2891,0.0131,-29.5000,33.2500,26.0000,23.7500,36.9375,175.1875,0
1776970421.914,9.4619,-1.4676,-1.5371,-0.5153,0.6376,0.6619,-70.8000,-51.0000,-28.9500,9.5840,2.2458,-0.6225,-0.5156,0.5092,0.5902,-39.0000,-13.2000,22.2000,5.9700,-0.4400,-7.6300,-0.0284,0.2749,0.0055,-29.5000,33.2500,26.0000,23.7500,37.1250,175.1875,0
1776970421.920,9.4547,-1.6161,-1.5993,-0.5153,0.6376,0.6619,-69.6000,-51.7500,-28.6500,9.2560,2.4541,-0.5866,-0.4868,0.5529,0.5939,-39.0000,-13.2000,22.2000,6.1400,-0.6500,-7.6500,-0.0284,0.2749,0.0055,-29.5000,33.2500,26.0000,23.7500,37.1250,175.1875,0
1776970421.925,9.4547,-1.6161,-1.5993,-0.4810,0.6494,0.6424,-69.6000,-51.7500,-28.6500,9.2560,2.4541,-0.5866,-0.4868,0.5529,0.5939,-39.0000,-13.2000,22.2000,6.1400,-0.6500,-7.6500,-0.0218,0.2847,0.0087,-28.6875,32.1875,26.0000,23.7500,37.3125,175.1875,0
1776970421.930,9.4379,-1.3575,-1.5179,-0.4519,0.6502,0.6257,-70.0500,-52.2000,-27.4500,9.3781,2.4493,-0.4310,-0.4820,0.5785,0.6097,-39.9000,-14.5500,23.1000,6.1900,-0.7700,-7.6100,-0.0218,0.2847,0.0087,-28.6875,32.1875,26.0000,23.7500,37.3125,175.1875,0
1776970421.935,9.4379,-1.3575,-1.5179,-0.4519,0.6502,0.6257,-70.0500,-52.2000,-27.4500,9.3781,2.4493,-0.4310,-0.4820,0.5785,0.6097,-39.9000,-14.5500,23.1000,6.1900,-0.7700,-7.6100,-0.0109,0.2683,-0.0065,-28.6875,32.1875,26.0000,23.8125,37.4375,175.1875,0
1776970421.940,9.5385,-1.1875,-1.5179,-0.4261,0.6662,0.6358,-70.0500,-52.2000,-27.4500,9.3613,2.4924,-0.4262,-0.5129,0.5931,0.6440,-40.5000,-14.7000,25.0500,6.1000,-0.7100,-7.6300,-0.0109,0.2683,-0.0065,-28.6875,32.1875,26.0000,23.8125,37.4375,175.1875,0
1776970421.945,9.5385,-1.1875,-1.5179,-0.4261,0.6662,0.6358,-70.0500,-52.2000,-27.4500,9.3613,2.4924,-0.4262,-0.5129,0.5931,0.6440,-40.5000,-14.7000,25.0500,6.1000,-0.7100,-7.6300,-0.0011,0.2738,-0.0076,-28.6875,32.1875,26.0000,23.8125,37.6250,175.1875,0
1776970421.950,9.5098,-0.8906,-1.4581,-0.3730,0.6829,0.6416,-70.5000,-52.0500,-26.2500,9.1626,2.7773,-0.3424,-0.4916,0.6297,0.6683,-38.5500,-15.9000,24.7500,6.2000,-0.7500,-7.6800,-0.0011,0.2738,-0.0076,-28.6875,32.1875,26.0000,23.8125,37.6250,175.1875,0
1776970421.959,9.5864,-0.8619,-1.1947,-0.3416,0.6787,0.6531,-70.5000,-52.0500,-26.2500,9.1913,2.8467,-0.1820,-0.4860,0.6710,0.7112,-39.0000,-14.7000,25.8000,6.2600,-0.7000,-7.5900,0.0076,0.2847,-0.0109,-28.6875,32.1875,26.0000,23.8125,37.7500,175.1875,0
1776970421.964,9.5864,-0.8619,-1.1947,-0.3416,0.6787,0.6531,-70.5000,-52.0500,-26.2500,9.1913,2.8467,-0.1820,-0.4860,0.6710,0.7112,-39.0000,-14.7000,25.8000,6.2600,-0.7000,-7.5900,0.0207,0.2727,-0.0196,-28.6875,32.1875,26.0000,23.7500,37.9375,175.1250,0
1776970421.970,9.4523,-0.9601,-0.8164,-0.3400,0.7280,0.6712,-68.2500,-51.6000,-27.0000,9.3350,2.6600,-0.0934,-0.4501,0.6880,0.7282,-37.3500,-16.8000,23.8500,6.2500,-0.6600,-7.4300,0.0207,0.2727,-0.0196,-28.6875,32.1875,26.0000,23.7500,37.9375,175.1250,0
1776970421.975,9.4523,-0.9601,-0.8164,-0.3400,0.7280,0.6712,-68.2500,-51.6000,-27.0000,9.3350,2.6600,-0.0934,-0.4501,0.6880,0.7282,-37.3500,-16.8000,23.8500,6.1600,-0.6700,-7.5400,0.0196,0.2585,-0.0098,-30.1875,33.2500,26.0625,23.8125,38.0625,175.1250,0
1776970421.980,9.4715,-0.9792,-0.7901,-0.3078,0.7266,0.6931,-68.7000,-53.5500,-25.8000,9.2991,2.4660,0.2873,-0.4149,0.7186,0.7392,-37.3500,-16.8000,23.8500,6.1600,-0.6700,-7.5400,0.0196,0.2585,-0.0098,-30.1875,33.2500,26.0625,23.8125,38.0625,175.1250,0
1776970421.985,9.4715,-0.9792,-0.7901,-0.3078,0.7266,0.6931,-68.7000,-53.5500,-25.8000,9.2991,2.4660,0.2873,-0.4149,0.7186,0.7392,-37.3500,-16.8000,23.8500,6.1300,-0.5900,-7.4200,0.0175,0.2760,0.0011,-30.1875,33.2500,26.0625,23.8125,38.2500,175.1250,0
1776970421.990,9.3087,-1.3910,-0.7183,-0.2982,0.6939,0.7109,-69.4500,-52.3500,-26.5500,9.1267,2.2793,0.2658,-0.4032,0.7634,0.7512,-37.9500,-16.9500,25.8000,6.1300,-0.5900,-7.4200,0.0175,0.2760,0.0011,-30.1875,33.2500,26.0625,23.8125,38.2500,175.1250,0
1776970421.995,9.3087,-1.3910,-0.7183,-0.2982,0.6939,0.7109,-69.4500,-52.3500,-26.5500,9.1267,2.2793,0.2658,-0.4032,0.7634,0.7512,-37.9500,-16.9500,25.8000,6.1300,-0.5900,-7.4200,0.0196,0.2923,0.0196,-30.1875,33.2500,26.0625,23.8125,38.4375,175.0625,0
1776970422.000,9.1698,-1.4796,-0.6201,-0.2819,0.6813,0.7168,-67.9500,-53.5500,-24.7500,8.8921,2.0135,0.5411,-0.3928,0.7573,0.7639,-36.6000,-18.0000,27.3000,6.1700,-0.6600,-7.4800,0.0196,0.2923,0.0196,-30.1875,33.2500,26.0625,23.8125,38.4375,175.0625,0
1776970422.009,9.0860,-1.4437,-0.4884,-0.2393,0.6931,0.7389,-67.9500,-53.5500,-24.7500,8.9423,2.1021,0.2658,-0.3597,0.8034,0.7799,-36.7500,-16.6500,28.2000,6.1200,-0.5900,-7.3400,0.0055,0.2945,0.0415,-30.1875,33.2500,26.0625,23.8125,38.5625,175.0625,0
1776970422.014,9.0860,-1.4437,-0.4884,-0.2393,0.6931,0.7389,-66.7500,-53.1000,-24.7500,8.9423,2.1021,0.2658,-0.3597,0.8034,0.7799,-36.7500,-16.6500,28.2000,6.1200,-0.5900,-7.3400,-0.0185,0.3196,0.0709,-30.1875,33.2500,26.0625,23.8750,38.7500,175.0000,0
1776970422.021,9.0836,-1.4676,-0.1149,-0.2038,0.6963,0.7584,-67.6500,-53.4000,-23.1000,9.2991,1.9632,0.5100,-0.3587,0.8378,0.8063,-37.0500,-18.0000,27.3000,6.2700,-0.5400,-7.2800,-0.0185,0.3196,0.0709,-30.1875,33.2500,26.0625,23.8750,38.7500,175.0000,0
1776970422.025,9.1339,-1.8986,-0.1269,-0.2038,0.6963,0.7584,-67.6500,-53.4000,-23.1000,9.5074,1.6951,0.7087,-0.2819,0.8612,0.7861,-37.0500,-18.0000,27.3000,6.2700,-0.5400,-7.2800,-0.0185,0.3196,0.0709,-29.8750,32.5000,25.0000,23.9375,38.9375,175.0000,0
1776970422.030,9.1339,-1.8986,-0.1269,-0.2012,0.6755,0.7743,-66.7500,-54.3000,-23.7000,9.5074,1.6951,0.7087,-0.2819,0.8612,0.7861,-36.7500,-18.1500,29.7000,6.1600,-0.6300,-7.5100,-0.0273,0.3087,0.0927,-29.8750,32.5000,25.0000,23.9375,38.9375,175.0000,0
1776970422.035,9.3182,-2.1428,-0.3280,-0.2012,0.6755,0.7743,-66.7500,-54.3000,-23.7000,9.5313,1.5682,1.2067,-0.2411,0.8879,0.7818,-36.7500,-18.1500,29.7000,6.1600,-0.6300,-7.5100,-0.0273,0.3087,0.0927,-29.8750,32.5000,25.0000,24.0000,39.1250,174.9375,0
1776970422.040,9.3182,-2.1428,-0.3280,-0.1223,0.6302,0.7775,-67.6500,-52.2000,-23.4000,9.5313,1.5682,1.2067,-0.2411,0.8879,0.7818,-36.7500,-18.1500,29.7000,6.1500,-0.7000,-7.6100,-0.0698,0.3043,0.1145,-29.8750,32.5000,25.0000,24.0000,39.1250,174.9375,0
1776970422.045,9.1985,-2.4445,-0.0359,-0.1223,0.6302,0.7775,-67.6500,-52.2000,-23.4000,9.5912,1.3001,1.4413,-0.2497,0.9252,0.7874,-36.7500,-18.1500,29.7000,6.1500,-0.7000,-7.6100,-0.1276,0.3207,0.1451,-29.8750,32.5000,25.0000,24.1250,39.2500,174.9375,0
1776970422.051,9.1985,-2.4445,-0.0359,-0.0791,0.6875,0.7855,-67.6500,-52.2000,-23.4000,9.5912,1.3001,1.4413,-0.2497,0.9252,0.7874,-35.1000,-19.8000,30.6000,6.2100,-0.8000,-7.6300,-0.1276,0.3207,0.1451,-29.8750,32.5000,25.0000,24.1250,39.2500,174.9375,0
1776970422.060,9.3781,-2.6624,0.0742,-0.0738,0.7981,0.7871,-67.6500,-52.2000,-23.4000,9.9934,0.9960,0.9649,-0.3144,0.9379,0.8322,-36.3000,-20.2500,29.5500,6.1700,-0.8000,-7.4700,-0.1920,0.2771,0.1473,-29.8750,32.5000,25.0000,24.2500,39.4375,175.0000,0
1776970422.064,9.4595,-2.8180,-0.4597,-0.0738,0.7981,0.7871,-67.2000,-54.0000,-21.4500,9.7420,0.4022,0.8739,-0.4434,0.9443,0.8439,-36.3000,-20.2500,29.5500,6.1700,-0.8000,-7.4700,-0.2225,0.2302,0.1298,-29.8750,32.5000,25.0000,24.3750,39.5625,175.0000,0
1776970422.071,9.4595,-2.8180,-0.4597,-0.0885,0.8335,0.8047,-67.2000,-54.0000,-21.4500,9.7420,0.4022,0.8739,-0.4434,0.9443,0.8439,-35.1000,-19.8000,30.9000,6.2200,-0.9800,-7.7600,-0.2225,0.2302,0.1298,-29.8750,32.5000,25.0000,24.3750,39.5625,175.0000,0
1776970422.076,9.2344,-2.9113,-0.8092,-0.1727,0.7701,0.8244,-67.2000,-54.0000,-21.4500,9.5146,1.0798,1.0846,-0.5897,0.9771,0.8617,-35.1000,-19.8000,30.9000,6.2200,-0.9800,-7.7600,-0.2749,0.3305,0.1396,-30.5625,33.2500,24.5625,24.5000,39.6875,175.1250,0
1776970422.081,9.2344,-2.9113,-0.8092,-0.1727,0.7701,0.8244,-65.4000,-52.5000,-21.1500,9.5146,1.0798,1.0846,-0.5897,0.9771,0.8617,-33.9000,-18.4500,30.0000,6.0300,-0.5700,-8.0300,-0.2749,0.3305,0.1396,-30.5625,33.2500,24.5625,24.5000,39.6875,175.1250,0
1776970422.085,9.1818,-2.7749,-0.2346,-0.2888,0.7989,0.8500,-65.4000,-52.5000,-21.1500,9.8665,1.4054,0.9816,-0.6315,0.9904,0.8953,-33.9000,-18.4500,30.0000,6.0300,-0.5700,-8.0300,-0.3360,0.4592,0.1429,-30.5625,33.2500,24.5625,24.6875,39.9375,175.1875,0
1776970422.090,9.1818,-2.7749,-0.2346,-0.2888,0.7989,0.8500,-65.4000,-52.5000,-21.1500,9.8665,1.4054,0.9816,-0.6315,0.9904,0.8953,-33.9000,-20.4000,32.5500,6.2700,-0.7700,-7.5500,-0.3360,0.4592,0.1429,-30.5625,33.2500,24.5625,24.6875,39.9375,175.1875,0
1776970422.100,9.5481,-2.5786,0.3519,-0.4133,0.8783,0.9020,-65.4000,-52.2000,-19.3500,10.1969,1.1588,0.8404,-0.6523,1.0155,0.9025,-33.9000,-20.4000,32.5500,5.8800,-0.4700,-7.7600,-0.3785,0.5247,0.1429,-30.5625,33.2500,24.5625,24.8750,40.2500,175.3125,0
1776970422.110,10.1945,-2.8587,-0.2849,-0.4647,0.9070,0.9411,-65.2500,-52.8000,-19.5000,10.6422,-0.4525,0.3639,-0.7288,0.9521,0.9499,-31.5000,-20.2500,32.7000,5.1300,-1.4700,-8.1600,-0.3894,0.6065,0.1265,-30.5625,33.2500,24.5625,25.0000,40.5625,175.4375,0
1776970422.119,10.1658,-3.5003,-1.8076,-0.5428,0.8812,0.9862,-65.5500,-51.6000,-19.2000,10.5536,-0.3903,0.2682,-0.8202,0.9934,1.0022,-32.1000,-20.4000,32.8500,6.2200,-1.6600,-7.8100,-0.4843,0.8094,0.0524,-30.5625,33.2500,24.5625,25.1250,41.0000,175.6875,0
1776970422.124,9.6414,-3.5626,-2.3703,-0.5335,0.7791,1.0365,-65.2500,-51.6000,-19.2000,10.1993,-0.0742,0.2274,-0.9126,1.0267,1.0797,-32.1000,-20.4000,32.8500,6.2200,-1.6600,-7.8100,-0.4843,0.8094,0.0524,-30.5625,33.2500,24.5625,25.1250,41.0000,175.6875,0
1776970422.129,9.6414,-3.5626,-2.3703,-0.5335,0.7791,1.0365,-65.2500,-51.6000,-19.2000,10.1993,-0.0742,0.2274,-0.9126,1.0267,1.0797,-31.5000,-23.5500,32.4000,6.5100,-2.1900,-7.5000,-0.5607,0.9817,-0.1222,-31.0000,33.2500,24.5625,25.2500,41.5625,176.0000,0
1776970422.133,9.3494,-3.2394,-2.0758,-0.4932,0.8162,1.0736,-64.5000,-52.0500,-18.7500,10.0844,0.1915,0.0287,-0.9054,1.0704,1.1431,-31.5000,-23.5500,32.4000,6.5100,-2.1900,-7.5000,-0.5607,0.9817,-0.1222,-31.0000,33.2500,24.5625,25.2500,41.5625,176.0000,0
1776970422.138,9.3494,-3.2394,-2.0758,-0.4932,0.8162,1.0736,-64.5000,-52.0500,-18.7500,10.0844,0.1915,0.0287,-0.9054,1.0704,1.1431,-31.2000,-21.3000,31.9500,7.3800,-0.2900,-7.5400,-0.5956,1.1443,-0.2934,-31.0000,33.2500,24.5625,25.1875,42.1875,176.4375,0
1776970422.143,9.2057,-2.7557,-1.8316,-0.4639,0.9134,1.1143,-64.5000,-52.0500,-18.7500,9.9790,0.2729,-0.1197,-0.8689,1.1287,1.2113,-31.2000,-21.3000,31.9500,7.3800,-0.2900,-7.5400,-0.5956,1.1443,-0.2934,-31.0000,33.2500,24.5625,25.1875,42.8125,177.0000,0
1776970422.150,9.2296,-2.4780,-1.9992,-0.4639,0.9134,1.1143,-64.5000,-52.0500,-18.7500,9.9790,0.2729,-0.1197,-0.8807,1.2089,1.2654,-31.2000,-21.3000,31.9500,6.8400,-1.2700,-7.3000,-0.6916,1.1061,-0.3327,-31.0000,33.2500,24.5625,25.0625,43.5000,177.5625,0
1776970422.160,9.3278,-2.2913,-1.9465,-0.4122,0.9494,1.1479,-62.4000,-52.9500,-17.1000,9.7564,0.5722,-0.0575,-0.9683,1.2462,1.3025,-31.2000,-21.3000,31.9500,6.1000,-1.7600,-7.2500,-0.6850,1.2163,-0.4756,-31.0000,33.2500,24.5625,25.0625,43.5000,177.5625,0
1776970422.170,9.5265,-1.9992,-1.3623,-0.4197,0.9547,1.1461,-62.4000,-52.9500,-17.1000,10.0413,1.0127,0.2897,-0.9963,1.2881,1.3702,-30.4500,-23.2500,34.5000,7.1700,-0.3300,-7.1100,-0.8476,1.3537,-0.6578,-31.0000,33.2500,24.5625,24.9375,44.3125,178.3750,0
1776970422.175,9.5265,-1.9992,-1.3623,-0.3813,0.9406,1.1575,-61.2000,-52.2000,-16.8000,10.0413,1.0127,0.2897,-0.9963,1.2881,1.3702,-30.4500,-23.2500,34.5000,7.1700,-0.3300,-7.1100,-0.8476,1.3537,-0.6578,-31.0000,33.2500,24.5625,24.9375,44.3125,178.3750,0
1776970422.180,9.6965,-1.9537,-1.2402,-0.3813,0.9406,1.1575,-61.2000,-52.2000,-16.8000,10.4555,0.5890,0.2586,-1.0920,1.3203,1.4410,-29.1000,-22.2000,35.7000,6.1600,-1.4600,-7.2600,-0.9981,1.4126,-0.7189,-31.6875,32.5000,24.0625,23.4375,45.0625,179.3125,0
1776970422.185,9.6965,-1.9537,-1.2402,-0.4170,1.0200,1.1543,-60.7500,-51.6000,-15.9000,10.4555,0.5890,0.2586,-1.0920,1.3203,1.4410,-29.1000,-22.2000,35.7000,6.1600,-1.4600,-7.2600,-0.9981,1.4126,-0.7189,-31.6875,32.5000,24.0625,23.4375,45.0625,179.3125,0
1776970422.190,10.1011,-2.0973,-1.8148,-0.4810,1.0658,1.1620,-60.7500,-51.6000,-15.9000,11.1115,0.4070,0.0000,-1.1509,1.3651,1.4991,-28.5000,-24.9000,34.6500,6.8100,0.0900,-7.6500,-1.0745,1.4901,-0.8018,-31.6875,32.5000,24.0625,25.3125,45.8750,-179.5625,0
1776970422.196,10.1011,-2.0973,-1.8148,-0.4810,1.0658,1.1620,-61.2000,-51.7500,-16.3500,11.1115,0.4070,0.0000,-1.1509,1.3651,1.4991,-26.7000,-24.9000,37.2000,6.2400,-0.0200,-7.8800,-1.1028,1.6384,-0.6152,-31.6875,32.5000,24.0625,27.0625,46.8125,-178.6250,0
1776970422.201,10.6279,-1.9154,-2.2242,-0.5351,1.1146,1.2335,-61.2000,-51.7500,-16.3500,11.7507,0.9409,-0.2849,-1.2361,1.4080,1.5649,-26.7000,-24.9000,37.2000,6.2400,-0.0200,-7.8800,-1.1028,1.6384,-0.6152,-31.6875,32.5000,24.0625,28.5000,47.8750,-177.6875,0
1776970422.210,11.3294,-2.1620,-3.1723,-0.5894,1.3291,1.2857,-61.0500,-51.6000,-13.2000,12.7395,-0.4741,-1.7526,-1.4376,1.4445,1.6667,-26.7000,-24.9000,37.2000,6.3500,-0.1300,-8.0200,-0.9654,1.9035,-0.5421,-31.6875,32.5000,24.0625,29.7500,49.1250,-176.8125,0
1776970422.220,11.3294,-2.6360,-4.8698,-0.7176,1.6145,1.3731,-60.9000,-51.0000,-14.2500,13.2615,-1.4054,-1.9968,-1.5910,1.4973,1.7235,-26.1000,-25.5000,37.3500,5.8600,-0.1400,-7.9200,-0.8934,2.2875,-0.4996,-31.6875,32.5000,24.0625,29.7500,49.1250,-176.8125,0
1776970422.225,11.3294,-2.6360,-4.8698,-0.7176,1.6145,1.3731,-60.3000,-51.1500,-12.9000,13.2615,-1.4054,-1.9968,-1.5910,1.4973,1.7235,-25.9500,-27.4500,37.8000,5.8600,-0.1400,-7.9200,-0.8934,2.2875,-0.4996,-31.6875,32.5000,24.0625,30.6250,50.5000,-176.0000,0
1776970422.230,11.3413,-4.1827,-6.3039,-0.9824,1.7166,1.5226,-60.3000,-51.1500,-12.9000,13.7044,-1.0295,-1.3934,-1.7480,1.5649,1.7986,-25.9500,-27.4500,37.8000,4.8500,4.1500,-9.5300,-0.6054,2.5722,-0.5880,-35.0000,30.5625,23.0000,30.6250,50.5000,-176.0000,0
1776970422.235,11.3413,-4.1827,-6.3039,-0.9824,1.7166,1.5226,-60.3000,-51.1500,-12.9000,13.7044,-1.0295,-1.3934,-1.7480,1.5649,1.7986,-24.7500,-27.4500,39.3000,4.8500,4.1500,-9.5300,-0.6054,2.5722,-0.5880,-35.0000,30.5625,23.0000,30.5000,51.6875,-175.5625,0
1776970422.240,11.1690,-4.3574,-6.3805,-1.0736,1.6409,1.7520,-60.3000,-51.1500,-12.9000,14.1282,0.5243,-2.9305,-2.0395,1.6246,1.9153,-24.7500,-27.4500,39.3000,7.3900,2.3400,-6.7600,0.3829,2.2046,-0.7799,-35.0000,30.5625,23.0000,30.5000,51.6875,-175.5625,0
1776970422.245,11.1690,-4.3574,-6.3805,-1.0736,1.6409,1.7520,-58.9500,-52.2000,-13.0500,14.1282,0.5243,-2.9305,-2.0395,1.6246,1.9153,-22.9500,-26.4000,38.2500,7.3900,2.3400,-6.7600,0.5716,1.1977,-0.6927,-35.0000,30.5625,23.0000,30.1250,52.3125,-175.3125,0
1776970422.251,12.5959,-3.2561,-5.3941,-1.0147,1.7443,1.8863,-58.9500,-52.2000,-13.0500,14.2120,0.8380,-3.9049,-2.3246,1.6252,2.0145,-22.9500,-26.4000,38.2500,7.3800,-2.5700,-8.2100,0.5716,1.1977,-0.6927,-35.0000,30.5625,23.0000,30.3125,53.5625,-174.8125,0
1776970422.260,13.1226,-2.8299,-5.6575,-0.9137,1.8788,1.8839,-58.9500,-52.2000,-13.0500,13.0005,1.9920,-3.1795,-2.5231,1.6758,2.1088,-21.9000,-27.9000,38.5500,4.9500,1.4300,-10.7600,-0.1582,2.3006,-0.3709,-35.0000,30.5625,23.0000,30.3125,53.5625,-174.8125,0
1776970422.270,13.3405,-1.6496,-4.4365,-0.7954,1.7488,1.6363,-57.4500,-51.0000,-12.3000,11.9207,2.5450,-1.7214,-2.5687,1.7072,2.1717,-21.9000,-27.9000,38.5500,7.5700,1.8800,-10.1500,-0.2880,3.5179,-0.5061,-35.0000,30.5625,23.0000,30.6875,55.5000,-174.0000,0
1776970422.275,13.6517,-0.8260,-2.0494,-0.7954,1.7488,1.6363,-57.6000,-50.1000,-11.4000,11.9207,2.5450,-1.7214,-2.5687,1.7072,2.1717,-21.6000,-29.7000,37.8000,7.5700,1.8800,-10.1500,-0.2880,3.5179,-0.5061,-35.0000,30.5625,23.0000,30.6875,55.5000,-174.0000,0
1776970422.280,13.6517,-0.8260,-2.0494,-0.6126,1.3334,1.2713,-57.6000,-50.1000,-11.4000,10.2999,2.8371,0.7709,-2.2719,1.7637,2.0843,-21.6000,-29.7000,37.8000,6.5800,1.7600,-9.0200,-0.1636,3.1634,-0.5563,-37.8750,31.0000,21.3750,30.9375,57.1875,-173.1875,0
1776970422.285,12.6222,2.8802,2.0949,-0.6126,1.3334,1.2713,-57.6000,-50.4000,-12.9000,10.2999,2.8371,0.7709,-2.2719,1.7637,2.0843,-19.0500,-27.9000,38.5500,6.5800,1.7600,-9.0200,-0.1636,3.1634,-0.5563,-37.8750,31.0000,21.3750,30.9375,57.1875,-173.1875,0
1776970422.290,12.6222,2.8802,2.0949,-0.2230,0.3813,1.2740,-57.6000,-50.4000,-12.9000,9.9000,2.9664,2.6456,-1.9159,1.7840,1.9417,-19.0500,-27.9000,38.5500,11.4200,1.4700,-7.8000,-0.1276,3.1274,-0.5618,-37.8750,31.0000,21.3750,31.1250,58.8750,-172.2500,0
1776970422.296,10.7739,1.3886,0.1149,-0.5143,-0.2084,1.3049,-56.7000,-49.8000,-11.2500,12.0452,1.8364,2.9161,-1.6489,1.9556,1.8975,-19.0500,-30.1500,39.0000,11.1000,0.0000,-9.8100,0.1134,3.4383,-0.5454,-37.8750,31.0000,21.3750,31.0000,60.7500,-171.3125,0
1776970422.301,10.7739,1.3886,0.1149,-0.5143,-0.2084,1.3049,-56.7000,-49.8000,-11.2500,12.0452,1.8364,2.9161,-1.6489,1.9556,1.8975,-19.0500,-30.1500,39.0000,11.1000,0.0000,-9.8100,0.1134,3.4383,-0.5454,-37.8750,31.0000,21.3750,31.0000,62.6875,-170.2500,0
1776970422.311,8.9759,-4.2617,-2.4301,-0.9662,-0.4391,1.3680,-57.0000,-50.5500,-12.7500,13.2375,0.8452,4.2641,-1.3843,1.9729,1.7810,-17.8500,-30.1500,39.3000,12.4000,1.3600,-11.3400,-0.0022,3.6968,-0.4374,-37.8750,31.0000,21.3750,31.1250,65.0625,-169.0625,0
1776970422.320,8.5760,-4.0294,7.1922,-0.1119,0.1370,1.0653,-55.5000,-47.5500,-12.3000,12.2463,-1.2426,4.6328,-1.2140,1.9494,1.7104,-16.2000,-30.0000,39.1500,14.0600,1.0500,-9.3600,-0.5127,4.2771,-0.0676,-37.8750,31.0000,21.3750,31.1250,65.0625,-169.0625,0
1776970422.325,8.3965,-6.2297,4.9392,0.1482,0.4879,0.8577,-55.5000,-47.5500,-12.3000,11.5137,-2.6576,6.7971,-0.5798,1.8794,1.7277,-16.2000,-30.0000,39.1500,14.0600,1.0500,-9.3600,-0.5127,4.2771,-0.0676,-41.1875,31.0000,15.0625,31.5000,67.7500,-167.5000,0
1776970422.330,8.3965,-6.2297,4.9392,0.1482,0.4879,0.8577,-55.5000,-47.5500,-12.3000,11.5137,-2.6576,6.7971,-0.5798,1.8794,1.7277,-16.2000,-30.0000,39.1500,19.1200,-0.4200,-13.2100,-1.0330,4.9491,0.2454,-41.1875,31.0000,15.0625,31.5000,67.7500,-167.5000,0
1776970422.335,7.2688,-7.4292,3.6320,-0.0301,0.9385,0.8519,-56.1000,-48.4500,-11.8500,10.2687,-3.2250,6.6367,-0.5971,1.9548,1.7864,-14.2500,-28.6500,39.3000,19.1200,-0.4200,-13.2100,-1.0330,4.9491,0.2454,-41.1875,31.0000,15.0625,32.6250,70.6250,-164.9375,0
1776970422.340,7.2688,-7.4292,3.6320,-0.0301,0.9385,0.8519,-56.1000,-48.4500,-11.8500,10.2687,-3.2250,6.6367,-0.5971,1.9548,1.7864,-14.2500,-28.6500,39.3000,19.6000,-1.8100,-15.8700,-2.0486,5.2622,0.2771,-41.1875,31.0000,15.0625,32.6250,70.6250,-164.9375,0
1776970422.345,7.5824,-7.5944,5.7126,-0.3597,1.3920,0.8577,-56.1000,-48.4500,-11.8500,9.8904,-3.9887,6.2273,-0.7093,1.7560,1.8724,-14.1000,-28.5000,40.2000,19.6000,-1.8100,-15.8700,-2.5885,4.0230,0.5421,-41.1875,31.0000,15.0625,33.9375,72.8750,-162.4375,0
1776970422.351,7.5824,-7.5944,5.7126,-0.3597,1.3920,0.8577,-56.1000,-48.4500,-11.8500,9.8904,-3.9887,6.2273,-0.7093,1.7560,1.8724,-14.1000,-28.5000,40.2000,15.1600,-0.3200,-14.2600,-2.5885,4.0230,0.5421,-41.1875,31.0000,15.0625,35.1875,74.3750,-161.0000,0
1776970422.360,8.0852,-8.9160,5.9041,-0.0999,1.1018,0.6507,-56.1000,-47.2500,-10.6500,8.9040,-4.2760,6.4165,-0.8196,1.6230,1.8772,-13.0500,-28.5000,41.2500,5.7600,0.5400,-9.2300,-2.5896,2.6016,0.8388,-41.1875,31.0000,15.0625,35.1875,74.3750,-161.0000,0
1776970422.370,8.5665,-8.6191,4.8961,-0.0520,0.9438,0.3701,-55.5000,-47.1000,-11.5500,8.1786,-3.9792,6.6798,-0.6390,1.4472,1.8210,-10.9500,-27.4500,40.0500,1.0500,1.4700,-9.0300,-2.6769,2.1140,1.2872,-41.1875,31.0000,15.0625,36.2500,75.6875,-160.6250,0
1776970422.375,8.6503,-8.8155,5.2313,-0.0839,0.8857,0.3917,-57.6000,-45.7500,-11.8500,8.1547,-5.0781,5.5929,-0.7597,1.0965,1.6403,-11.7000,-29.4000,40.3500,1.0500,1.4700,-9.0300,-2.6769,2.1140,1.2872,-41.1875,31.0000,15.0625,37.0625,77.1875,-161.9375,0
1776970422.380,8.6503,-8.8155,5.2313,-0.0839,0.8857,0.3917,-57.6000,-45.7500,-11.8500,8.1547,-5.0781,5.5929,-0.7597,1.0965,1.6403,-11.7000,-29.4000,40.3500,-1.0100,2.5900,-11.1700,-2.9332,2.0693,2.0649,-42.0000,29.5000,5.2500,37.0625,77.1875,-161.9375,0
1776970422.385,9.0381,-9.8043,5.4372,-0.0179,0.6736,0.6675,-56.1000,-46.9500,-11.8500,7.1371,-4.4053,7.5417,-0.2270,0.6739,1.2793,-11.7000,-29.4000,40.3500,-1.0100,2.5900,-11.1700,-2.9332,2.0693,2.0649,-42.0000,29.5000,5.2500,37.0625,77.1875,-161.9375,0
1776970422.390,8.2528,-9.5313,4.8243,-0.0179,0.6736,0.6675,-56.1000,-46.9500,-11.8500,7.1371,-4.4053,7.5417,-0.2270,0.6739,1.2793,-11.7000,-29.4000,40.3500,15.5800,1.7900,-10.5900,-2.8940,2.6082,2.1871,-42.0000,29.5000,5.2500,37.6875,78.9375,-163.8125,0
1776970422.398,8.2528,-9.5313,4.8243,0.0229,0.3904,0.6739,-57.3000,-45.0000,-12.1500,5.7054,-2.7461,6.4212,-0.2137,0.4445,0.9190,-10.8000,-28.5000,41.2500,6.5300,11.2700,-19.2900,-2.8340,2.2940,2.2177,-42.0000,29.5000,5.2500,38.2500,80.4375,-167.0625,0
1776970422.403,8.7628,-6.3566,7.9176,-0.4474,-0.0032,0.3262,-57.3000,-45.0000,-12.1500,6.3901,-1.5610,5.5952,-0.4237,0.1255,0.6251,-11.7000,-29.7000,41.1000,6.5300,11.2700,-19.2900,-2.8340,2.2940,2.2177,-42.0000,29.5000,5.2500,37.3750,80.5625,-174.4375,0
1776970422.411,9.7851,-5.4923,9.0860,-0.3714,-0.4285,-0.0520,-57.6000,-44.5500,-11.4000,6.3901,-1.5610,5.5952,-0.4237,0.1255,0.6251,-10.3500,-27.4500,40.3500,3.2000,8.3600,-12.5100,-0.6316,-0.2105,2.3137,-42.0000,29.5000,5.2500,35.0625,79.7500,176.8750,0
1776970422.421,10.0078,-4.7118,7.0557,-0.2534,-0.9278,-0.3573,-56.5500,-45.0000,-12.1500,7.2784,-1.2378,5.2984,-0.1924,-0.3254,0.3035,-9.9000,-26.7000,41.1000,-0.1100,4.7600,-9.3400,1.4552,-1.4737,2.4064,-42.0000,29.5000,5.2500,35.0625,79.7500,176.8750,0
1776970422.425,10.0078,-4.7118,7.0557,-0.2534,-0.9278,-0.3573,-57.0000,-44.4000,-13.8000,7.0677,-1.0918,5.0182,0.2894,-0.8295,0.0416,-9.9000,-26.7000,41.1000,-0.1100,4.7600,-9.3400,1.4552,-1.4737,2.4064,-42.0000,29.5000,5.2500,35.0625,79.7500,176.8750,0
1776970422.430,10.5560,-5.1499,7.3358,0.0091,-1.3214,-0.7240,-57.0000,-44.4000,-13.8000,7.0677,-1.0918,5.0182,0.2894,-0.8295,0.0416,-9.9000,-26.7000,41.1000,-1.3800,0.2100,-6.2700,2.2133,-1.6384,2.2078,-39.5000,31.3750,1.0000,32.3750,78.6875,169.8125,0
1776970422.435,10.5560,-5.1499,7.3358,0.0091,-1.3214,-0.7240,-57.0000,-44.4000,-13.8000,6.2249,-1.4198,4.7812,0.8021,-1.2209,-0.1727,-9.9000,-26.7000,41.1000,-1.3800,0.2100,-6.2700,2.2133,-1.6384,2.2078,-39.5000,31.3750,1.0000,32.3750,78.6875,169.8125,0
1776970422.440,9.4882,-4.6400,7.8985,0.4117,-1.6998,-1.1938,-57.0000,-44.4000,-13.8000,6.2249,-1.4198,4.7812,0.8021,-1.2209,-0.1727,-9.9000,-26.7000,41.1000,-1.1000,-0.3200,-6.2200,2.0857,-1.6112,1.8544,-39.5000,31.3750,1.0000,29.8750,77.6250,164.8125,0
1776970422.445,9.4882,-4.6400,7.8985,0.4117,-1.6998,-1.1938,-58.8000,-43.8000,-11.8500,5.8514,-2.5259,4.8554,1.1146,-1.5226,-0.3467,-9.9000,-26.7000,41.1000,-1.1000,-0.3200,-6.2200,1.5817,-1.4726,1.4868,-39.5000,31.3750,1.0000,27.8750,76.5625,161.5000,0
1776970422.451,8.2983,-4.8818,7.4747,0.8399,-2.1949,-1.3949,-58.8000,-43.8000,-11.8500,5.9328,-3.7948,5.3965,1.1972,-1.8205,-0.5241,-14.2500,-25.2000,40.6500,-0.6600,0.0800,-6.6100,1.5817,-1.4726,1.4868,-39.5000,31.3750,1.0000,26.3750,75.5625,159.7500,0
1776970422.461,7.3358,-5.7437,5.3510,1.1210,-2.7480,-1.5372,-58.8000,-43.8000,-11.8500,5.8251,-3.9433,5.4109,1.2569,-2.1328,-0.6781,-14.2500,-25.6500,39.6000,0.6200,2.2900,-7.1200,1.1454,-1.6330,1.0865,-39.5000,31.3750,1.0000,26.3750,75.5625,159.7500,0
1776970422.471,5.8155,-5.8299,4.7333,1.2481,-2.9135,-1.6129,-59.5500,-42.6000,-13.9500,5.5306,-3.5147,5.6096,1.3254,-2.4448,-0.7381,-14.1000,-23.5500,39.9000,1.9100,3.5200,-7.8100,0.9512,-1.8370,0.6338,-39.5000,31.3750,1.0000,25.2500,74.4375,159.3125,0
1776970422.475,5.8155,-5.8299,4.7333,1.2481,-2.9135,-1.6129,-61.9500,-42.4500,-13.0500,5.5306,-3.5147,5.6096,1.3254,-2.4448,-0.7381,-14.1000,-23.5500,39.9000,1.9100,3.5200,-7.8100,0.9512,-1.8370,0.6338,-39.5000,31.3750,1.0000,24.1875,73.4375,159.7500,0
1776970422.481,5.6000,-6.0430,5.0159,1.4906,-2.6798,-1.5865,-61.9500,-42.4500,-13.0500,5.1332,-2.9281,5.5905,1.5010,-2.6063,-0.8641,-16.8000,-24.4500,39.3000,3.3500,4.4800,-8.6000,1.1170,-1.9308,0.1658,-36.7500,30.8750,-1.5000,24.1875,73.4375,159.7500,0
1776970422.485,5.6000,-6.0430,5.0159,1.4906,-2.6798,-1.5865,-60.9000,-40.8000,-12.7500,5.1332,-2.9281,5.5905,1.5010,-2.6063,-0.8641,-16.8000,-24.4500,39.3000,3.3500,4.4800,-8.6000,1.1170,-1.9308,0.1658,-36.7500,30.8750,-1.5000,24.1875,73.4375,159.7500,0
1776970422.490,5.8849,-6.2441,5.4205,1.7200,-2.3752,-1.5322,-60.9000,-40.8000,-12.7500,5.4803,-2.8132,5.2816,1.6638,-2.7262,-0.9340,-16.8000,-24.4500,39.3000,4.3600,4.6600,-9.1500,1.4584,-2.3736,-0.2334,-36.7500,30.8750,-1.5000,23.0625,72.2500,160.7500,0
1776970422.496,7.0078,-5.9544,5.4995,1.7200,-2.3752,-1.5322,-63.4500,-40.8000,-14.8500,5.4803,-2.8132,5.2816,1.6638,-2.7262,-0.9340,-16.8000,-24.4500,39.3000,4.3600,4.6600,-9.1500,1.8075,-3.0794,-0.5312,-36.7500,30.8750,-1.5000,21.7500,70.6875,162.1875,0
1776970422.502,7.0078,-5.9544,5.4995,1.8634,-2.3062,-1.4218,-63.4500,-40.8000,-14.8500,5.4157,-2.5762,4.6639,1.9393,-2.8663,-1.0648,-18.3000,-22.9500,39.6000,4.3500,2.7000,-7.8100,1.8075,-3.0794,-0.5312,-36.7500,30.8750,-1.5000,20.3750,68.9375,163.7500,0
1776970422.511,7.0820,-5.7485,4.8315,2.0248,-2.7920,-1.3707,-64.6500,-40.5000,-14.2500,5.8107,-2.1404,4.5011,2.3872,-2.9338,-1.1687,-19.3500,-20.7000,38.5500,4.1600,2.1700,-6.7500,1.9471,-3.5986,-0.7363,-36.7500,30.8750,-1.5000,20.3750,68.9375,163.7500,0
1776970422.521,7.7548,-5.2337,4.3239,2.2415,-3.4315,-1.3763,-64.3500,-39.6000,-14.5500,6.4117,-2.2841,4.4412,2.7880,-3.0249,-1.2356,-19.2000,-20.2500,38.7000,4.4900,1.9800,-6.0800,1.9035,-3.7328,-0.9381,-36.7500,30.8750,-1.5000,19.0625,67.0625,165.3125,0
1776970422.525,7.3837,-5.4133,5.4013,2.2415,-3.4315,-1.3763,-64.3500,-39.6000,-14.5500,6.4117,-2.2841,4.4412,2.7880,-3.0249,-1.2356,-19.2000,-20.2500,38.7000,4.4900,1.9800,-6.0800,1.9035,-3.7328,-0.9381,-36.7500,30.8750,-1.5000,19.0625,67.0625,165.3125,0
1776970422.530,7.3837,-5.4133,5.4013,2.2737,-4.0790,-1.3896,-64.3500,-39.6000,-14.5500,6.8163,-2.5522,4.7357,3.1770,-3.2127,-1.2894,-21.6000,-19.6500,39.3000,5.8700,2.0700,-6.1500,1.7857,-3.7066,-1.1945,-37.5625,28.5625,1.7500,17.8750,65.1875,166.8750,0
1776970422.535,6.6391,-5.8203,6.4476,2.2737,-4.0790,-1.3896,-64.8000,-39.4500,-14.7000,6.8163,-2.5522,4.7357,3.1770,-3.2127,-1.2894,-21.6000,-19.6500,39.3000,5.8700,2.0700,-6.1500,1.7857,-3.7066,-1.1945,-37.5625,28.5625,1.7500,17.8750,65.1875,166.8750,0
1776970422.540,6.6391,-5.8203,6.4476,2.1957,-4.4289,-1.4051,-64.8000,-39.4500,-14.7000,7.7069,-3.0909,5.3199,3.2985,-3.4563,-1.3283,-22.8000,-17.2500,39.4500,6.5600,2.4800,-6.5300,1.6930,-3.6401,-1.4923,-37.5625,28.5625,1.7500,16.9375,63.4375,168.5625,0
1776970422.545,6.0478,-6.6391,6.3422,2.1448,-4.4736,-1.5463,-64.8000,-39.4500,-14.7000,7.7069,-3.0909,5.3199,3.2985,-3.4563,-1.3283,-22.8000,-17.2500,39.4500,6.5600,2.4800,-6.5300,1.6962,-3.6794,-1.8293,-37.5625,28.5625,1.7500,16.0625,61.6250,170.2500,0
1776970422.551,6.0478,-6.6391,6.3422,2.1448,-4.4736,-1.5463,-64.8000,-39.4500,-14.7000,8.4779,-4.1204,6.1890,3.2058,-3.7627,-1.3203,-22.8000,-17.2500,39.4500,7.0000,3.3000,-6.7500,1.6962,-3.6794,-1.8293,-37.5625,28.5625,1.7500,15.2500,59.7500,171.8750,0
1776970422.561,5.7150,-6.8618,5.1499,1.9566,-4.3058,-1.6590,-66.1500,-35.7000,-16.0500,8.8538,-4.3814,5.9903,2.8045,-3.9983,-1.2769,-24.6000,-16.5000,38.7000,7.3200,3.6300,-7.0100,1.8413,-3.7426,-2.1195,-37.5625,28.5625,1.7500,15.2500,59.7500,171.8750,0
1776970422.571,6.0094,-6.2153,4.6711,1.6276,-3.8730,-1.5511,-66.6000,-36.9000,-16.3500,8.9807,-4.1755,5.8251,2.5023,-4.1339,-1.2476,-25.0500,-15.0000,38.1000,7.5600,3.3800,-6.8200,2.1435,-3.8855,-2.3409,-37.5625,28.5625,1.7500,14.1250,57.7500,173.2500,0
1776970422.576,7.1970,-5.7533,4.3886,1.4602,-3.4779,-1.3765,-68.2500,-35.1000,-18.0000,8.9807,-4.1755,5.8251,2.5023,-4.1339,-1.2476,-25.0500,-15.0000,38.1000,7.5600,3.3800,-6.8200,2.1435,-3.8855,-2.3409,-37.5625,28.5625,1.7500,12.8750,55.8125,174.3750,0
1776970422.581,7.1970,-5.7533,4.3886,1.4602,-3.4779,-1.3765,-68.2500,-35.1000,-18.0000,8.9280,-3.3136,5.6647,2.3601,-4.1904,-1.2007,-25.3500,-14.2500,37.0500,8.8000,3.6800,-7.3800,2.3420,-3.8245,-2.4882,-40.1875,26.3750,8.7500,12.8750,55.8125,174.3750,0
1776970422.585,7.5154,-5.1619,3.7254,1.3949,-3.3969,-1.2220,-68.8500,-34.5000,-19.8000,8.9280,-3.3136,5.6647,2.3601,-4.1904,-1.2007,-25.3500,-14.2500,37.0500,8.8000,3.6800,-7.3800,2.3420,-3.8245,-2.4882,-40.1875,26.3750,8.7500,12.8750,55.8125,174.3750,0
1776970422.590,7.5154,-5.1619,3.7254,1.3949,-3.3969,-1.2220,-68.8500,-34.5000,-19.8000,8.8466,-2.3056,5.3798,2.4901,-4.1864,-1.1628,-26.4000,-12.3000,35.2500,10.2800,4.0100,-8.0300,2.4227,-3.7066,-2.5776,-40.1875,26.3750,8.7500,11.5000,53.8750,175.3125,0
1776970422.595,7.7093,-5.0566,3.5985,1.5199,-3.5610,-1.1253,-67.6500,-34.5000,-19.0500,8.8466,-2.3056,5.3798,2.4901,-4.1864,-1.1628,-26.4000,-12.3000,35.2500,10.2800,4.0100,-8.0300,2.4576,-3.6554,-2.6365,-40.1875,26.3750,8.7500,10.0000,51.9375,176.1250,0
1776970422.601,7.7093,-5.0566,3.5985,1.5199,-3.5610,-1.1253,-67.6500,-34.5000,-19.0500,8.8418,-1.2115,5.3510,2.7771,-4.1869,-1.1663,-26.4000,-12.0000,35.2500,12.8800,5.1100,-9.3100,2.4576,-3.6554,-2.6365,-40.1875,26.3750,8.7500,8.2500,49.9375,176.6250,0
1776970422.611,7.5992,-4.7884,3.8930,1.6875,-3.7992,-1.1346,-68.8500,-34.9500,-19.8000,9.2512,-0.4549,5.4468,3.2828,-4.1986,-1.2329,-26.4000,-12.0000,35.2500,13.1200,6.0900,-9.2500,2.5907,-3.7994,-2.6671,-40.1875,26.3750,8.7500,8.2500,49.9375,176.6250,0
1776970422.621,6.7588,-4.7597,3.7038,1.9156,-3.9679,-1.1540,-68.8500,-34.9500,-19.8000,9.6438,-0.0527,5.6144,3.9066,-4.2077,-1.3230,-28.5000,-11.4000,32.8500,13.2900,7.0600,-8.9400,2.7936,-3.9739,-2.7020,-40.1875,26.3750,8.7500,6.1250,47.8125,176.9375,0
1776970422.626,6.7588,-4.7597,3.7038,2.3065,-4.2461,-1.2220,-69.6000,-33.4500,-21.9000,9.6534,0.2729,5.6168,4.5658,-4.1907,-1.3680,-28.5000,-11.4000,32.8500,13.2900,7.0600,-8.9400,2.7936,-3.9739,-2.7020,-40.1875,26.3750,8.7500,6.1250,47.8125,176.9375,0
1776970422.631,5.9113,-4.4724,2.8228,2.3065,-4.2461,-1.2220,-69.6000,-33.4500,-21.9000,9.6534,0.2729,5.6168,4.5658,-4.1907,-1.3680,-30.3000,-8.7000,30.7500,14.3600,9.3600,-8.7600,3.0151,-3.9772,-2.7718,-41.5000,23.5000,19.7500,3.5625,45.6875,177.0625,0
1776970422.636,5.9113,-4.4724,2.8228,2.8509,-4.5333,-1.2119,-69.6000,-33.4500,-21.9000,8.6072,0.3424,5.4588,5.1545,-4.1669,-1.2732,-30.3000,-8.7000,30.7500,14.3600,9.3600,-8.7600,3.0151,-3.9772,-2.7718,-41.5000,23.5000,19.7500,3.5625,45.6875,177.0625,0
1776970422.641,6.5003,-3.6152,1.8316,2.8509,-4.5333,-1.2119,-69.6000,-33.4500,-21.9000,8.6072,0.3424,5.4588,5.1545,-4.1669,-1.2732,-30.4500,-9.3000,30.9000,14.7600,10.4500,-8.3800,3.3052,-3.9510,-2.9322,-41.5000,23.5000,19.7500,6.8125,43.6250,176.9375,0
1776970422.646,6.5003,-3.6152,1.8316,3.0958,-4.2746,-1.4245,-70.2000,-31.9500,-23.2500,8.5473,-0.3041,5.2648,5.6778,-4.0073,-1.1754,-30.4500,-9.3000,30.9000,14.7600,10.4500,-8.3800,3.7186,-3.9837,-3.2125,-41.5000,23.5000,19.7500,4.1875,41.5000,176.6250,0
1776970422.652,7.5824,-3.4668,2.6767,3.4973,-4.0047,-1.7200,-70.2000,-31.9500,-23.2500,8.5473,-0.3041,5.2648,5.6778,-4.0073,-1.1754,-29.4000,-7.5000,27.7500,14.8700,10.9800,-7.7100,3.7186,-3.9837,-3.2125,-41.5000,23.5000,19.7500,1.2500,39.3750,176.1250,0
1776970422.661,7.7093,-3.4309,2.6863,3.9732,-4.1749,-1.7906,-70.0500,-31.8000,-22.6500,8.9878,-0.6321,5.0613,6.1350,-3.8981,-1.0984,-30.4500,-6.0000,29.1000,14.0500,10.8700,-5.6100,4.1779,-4.1102,-3.5856,-41.5000,23.5000,19.7500,358.1250,37.1875,175.4375,0
1776970422.671,7.5968,-4.7812,2.2960,4.2858,-4.3948,-1.7661,-69.7500,-30.9000,-23.7000,9.3446,-1.1516,4.9943,6.4479,-3.7723,-1.0312,-30.4500,-6.0000,29.1000,13.6700,10.6700,-4.6000,4.5793,-4.1561,-3.9848,-41.5000,23.5000,19.7500,358.1250,37.1875,175.4375,0
1776970422.676,7.5968,-4.7812,2.2960,4.2858,-4.3948,-1.7661,-69.0000,-30.9000,-23.7000,9.5002,-1.9130,4.5131,6.6418,-3.6457,-0.9800,-30.4500,-6.0000,29.1000,13.6700,10.6700,-4.6000,4.5793,-4.1561,-3.9848,-41.5000,23.5000,19.7500,354.6875,35.2500,174.6250,0
1776970422.681,6.6367,-6.8378,2.0830,4.4108,-4.4225,-1.7184,-69.0000,-30.9000,-23.7000,9.5002,-1.9130,4.5131,6.6418,-3.6457,-0.9800,-31.3500,-3.4500,28.2000,13.5000,10.6600,-3.9300,4.8771,-3.9750,-4.3764,-41.5625,22.1875,28.7500,354.6875,35.2500,174.6250,0
1776970422.686,6.6367,-6.8378,2.0830,4.4108,-4.4225,-1.7184,-69.4500,-29.2500,-23.7000,9.3326,-2.7031,4.2928,6.7388,-3.4859,-0.9553,-31.3500,-3.4500,28.2000,13.5000,10.6600,-3.9300,4.8771,-3.9750,-4.3764,-41.5625,22.1875,28.7500,351.1250,33.4375,173.7500,0
1776970422.691,6.0478,-8.7628,0.6488,4.9799,-4.4278,-1.8900,-69.4500,-29.2500,-23.7000,9.3326,-2.7031,4.2928,6.7388,-3.4859,-0.9553,-31.3500,-3.4500,28.9500,13.2500,10.4500,-3.5400,5.1258,-3.7285,-4.6829,-41.5625,22.1875,28.7500,351.1250,33.4375,173.7500,0
1776970422.699,5.5115,-7.5369,-1.0606,5.3050,-4.0345,-1.9436,-69.1500,-30.3000,-23.8500,9.3470,-2.9904,4.4772,6.6946,-3.3180,-0.9499,-30.6000,-3.4500,29.2500,13.2000,10.9300,-1.9300,5.1978,-3.5376,-4.9262,-41.5625,22.1875,28.7500,347.4375,31.8125,172.7500,0
1776970422.704,5.5115,-7.5369,-1.0606,5.3050,-4.0345,-1.9436,-69.1500,-30.3000,-23.8500,9.2967,-2.5402,4.5083,6.5043,-3.1243,-0.9734,-30.6000,-3.4500,29.2500,13.2000,10.9300,-1.9300,5.1978,-3.5376,-4.9262,-41.5625,22.1875,28.7500,343.6875,30.3750,171.6875,0
1776970422.712,5.9256,-7.4771,-0.7853,5.3229,-3.6068,-1.9817,-69.1500,-30.3000,-23.8500,9.6917,-1.8483,4.5226,6.2056,-2.8714,-0.9806,-30.7500,-2.5500,26.7000,13.1900,10.4100,-1.6000,5.2185,-3.3205,-5.1553,-41.5625,22.1875,28.7500,339.8125,29.1875,170.7500,0
1776970422.721,6.5003,-7.7117,-0.5243,5.0297,-3.2330,-1.8466,-68.7000,-31.2000,-23.2500,9.9910,-1.1516,4.0079,5.9445,-2.6156,-0.9553,-30.7500,-2.5500,26.7000,13.5800,9.5800,-1.5200,5.0538,-3.0260,-5.4149,-41.5625,22.1875,28.7500,339.8125,29.1875,170.7500,0
1776970422.726,6.5003,-7.7117,-0.5243,5.0297,-3.2330,-1.8466,-68.7000,-31.2000,-23.2500,9.9910,-1.1516,4.0079,5.9445,-2.6156,-0.9553,-30.7500,-2.5500,26.7000,13.5800,9.5800,-1.5200,5.0538,-3.0260,-5.4149,-41.5625,22.1875,28.7500,335.8750,28.1875,170.0000,0
1776970422.731,7.3550,-5.6623,-2.0710,5.0271,-2.7651,-1.8415,-68.7000,-31.2000,-23.2500,10.2448,-0.7446,3.1029,5.6320,-2.2588,-0.8817,-30.7500,-2.5500,26.7000,15.6100,7.7400,-2.3900,4.6677,-2.7402,-5.6810,-37.7500,18.0000,39.1875,335.8750,28.1875,170.0000,0
1776970422.736,8.6838,-5.1380,-2.3152,5.0271,-2.7651,-1.8415,-68.7000,-31.2000,-23.2500,10.2448,-0.7446,3.1029,5.6320,-2.2588,-0.8817,-31.5000,-1.8000,23.4000,15.6100,7.7400,-2.3900,4.6677,-2.7402,-5.6810,-37.7500,18.0000,39.1875,331.9375,27.4375,169.5000,0
1776970422.741,8.6838,-5.1380,-2.3152,4.8683,-2.3707,-1.7736,-68.1000,-29.5500,-23.4000,10.2137,-0.4717,2.4828,5.3767,-1.8391,-0.7871,-31.5000,-1.8000,23.4000,17.1700,7.1400,-2.9300,4.1048,-2.3835,-5.8818,-37.7500,18.0000,39.1875,331.9375,27.4375,169.5000,0
