timestamp,thigh_acc_x,thigh_acc_y,thigh_acc_z,thigh_gyro_x,thigh_gyro_y,thigh_gyro_z,thigh_mag_x,thigh_mag_y,thigh_mag_z,shank_acc_x,shank_acc_y,shank_acc_z,shank_gyro_x,shank_gyro_y,shank_gyro_z,shank_mag_x,shank_mag_y,shank_mag_z,foot_acc_x,foot_acc_y,foot_acc_z,foot_gyro_x,foot_gyro_y,foot_gyro_z,foot_mag_x,foot_mag_y,foot_mag_z,foot_euler_x,foot_euler_y,foot_euler_z,perturbation_event
1776973191.780,10.3334,-1.5036,1.1636,-0.4668,-1.9665,-2.3116,-75.3000,-4.8000,-9.0000,9.0166,4.5705,-1.1971,-0.9001,-0.0592,-0.1159,-94.9500,-28.9500,30.4500,-10.0900,-2.5300,-10.7600,0.6425,2.2417,-2.2831,6.5625,-6.0625,27.5625,129.5000,-18.4375,158.7500,0
1776973191.790,9.9168,-0.9864,0.8595,-0.5665,-1.8743,-2.2615,-77.4000,-4.6500,-9.9000,8.9495,4.8435,-1.3072,-0.7285,0.0032,-0.1316,-93.4500,-28.2000,28.6500,-9.9800,-2.1400,-10.4700,0.6294,2.2700,-2.0878,6.5625,-6.0625,27.5625,128.6250,-16.8125,158.1875,0
1776973191.799,9.6438,-0.5794,0.4908,-0.6496,-1.7453,-2.2106,-76.8000,-2.4000,-10.5000,7.8219,4.9632,-0.9697,-0.5870,0.3794,-0.1311,-94.3500,-27.0000,28.8000,-9.6700,-1.8100,-9.9400,0.6447,2.3551,-1.8162,6.5625,-6.0625,27.5625,127.9375,-15.2500,157.6875,0
1776973191.806,9.3302,-0.2729,0.1628,-0.7309,-1.5956,-2.1448,-76.8000,-2.4000,-10.5000,8.9998,5.0422,-1.4078,-0.2990,0.2753,-0.0911,-94.3500,-27.0000,28.8000,-9.6700,-1.8100,-9.9400,0.6938,2.4326,-1.4901,6.5625,-6.0625,27.5625,127.4375,-13.6875,157.2500,0
1776973191.811,9.3302,-0.2729,0.1628,-0.7309,-1.5956,-2.1448,-76.6500,-2.2500,-10.6500,8.9998,5.0422,-1.4078,-0.2990,0.2753,-0.0911,-95.4000,-27.3000,28.5000,-9.3100,-1.4700,-9.3700,0.6938,2.4326,-1.4901,6.5625,-6.0625,27.5625,127.4375,-13.6875,157.2500,0
1776973191.816,9.1961,-0.1867,-0.1700,-0.8066,-1.4368,-2.0789,-76.6500,-2.2500,-10.6500,8.9471,5.0398,-1.7478,-0.0040,0.4658,-0.0509,-95.4000,-27.3000,28.5000,-9.3100,-1.4700,-9.3700,0.7930,2.4598,-1.1312,10.1875,-8.3750,22.5000,127.1250,-12.1875,156.8125,0
1776973191.821,9.1961,-0.1867,-0.1700,-0.8066,-1.4368,-2.0789,-77.4000,-1.9500,-12.9000,8.9471,5.0398,-1.7478,-0.0040,0.4658,-0.0509,-95.4000,-27.3000,28.5000,-8.8300,-1.0700,-8.4000,0.7930,2.4598,-1.1312,10.1875,-8.3750,22.5000,127.1250,-12.1875,156.8125,0
1776973191.826,9.0046,-0.2682,-0.1867,-0.8895,-1.2825,-1.9963,-77.4000,-1.9500,-12.9000,8.8131,4.7621,-1.7166,0.2180,0.1228,-0.0354,-95.4000,-27.3000,28.5000,-8.8300,-1.0700,-8.4000,0.9348,2.4424,-0.7799,10.1875,-8.3750,22.5000,127.0000,-10.7500,156.3125,0
1776973191.831,9.0046,-0.2682,-0.1867,-0.8895,-1.2825,-1.9963,-77.4000,-1.9500,-12.9000,8.8131,4.7621,-1.7166,0.2180,0.1228,-0.0354,-96.7500,-25.6500,31.0500,-8.7600,-0.9900,-8.0200,0.9348,2.4424,-0.7799,10.1875,-8.3750,22.5000,127.0000,-10.7500,156.3125,0
1776973191.840,8.9232,-0.1508,-0.1652,-0.9587,-1.1237,-1.9017,-77.2500,0.1500,-14.2500,8.6479,4.4245,-1.8316,0.3581,0.1428,-0.0224,-96.9000,-27.7500,30.1500,-8.5500,-0.9900,-7.6200,1.1159,2.4042,-0.4745,10.1875,-8.3750,22.5000,127.1250,-9.4375,155.7500,0
1776973191.850,8.9902,0.0407,-0.2322,-1.0499,-0.9856,-1.7885,-77.2500,0.1500,-14.2500,8.6646,4.1946,-1.6855,0.4096,0.0863,0.0149,-96.6000,-27.0000,29.8500,-8.2100,-0.9600,-6.9400,1.3079,2.3333,-0.2247,10.1875,-8.3750,22.5000,127.3125,-8.1875,155.0625,0
1776973191.859,8.8825,0.3974,-0.3831,-1.1338,-0.8575,-1.6545,-77.7000,0.3000,-14.7000,8.4851,4.0079,-1.5443,0.4167,0.1450,0.0775,-96.6000,-27.3000,33.0000,-7.9900,-1.0300,-6.5100,1.5043,2.2187,-0.0404,10.1875,-8.3750,22.5000,127.6250,-7.0625,154.3125,0
1776973191.864,8.8107,0.9146,-0.4166,-1.2223,-0.7226,-1.4935,-77.7000,0.3000,-14.7000,8.9232,4.1276,-1.3982,0.4197,0.2217,0.1170,-96.6000,-27.3000,33.0000,-7.9900,-1.0300,-6.5100,1.5043,2.2187,-0.0404,10.1875,-8.3750,22.5000,127.6250,-7.0625,154.3125,0
1776973191.869,8.8107,0.9146,-0.4166,-1.2223,-0.7226,-1.4935,-77.5500,2.4000,-15.6000,8.9232,4.1276,-1.3982,0.4197,0.2217,0.1170,-96.6000,-27.3000,33.0000,-7.6200,-1.0800,-6.0200,1.6624,2.0649,0.0851,20.7500,-7.3750,26.5625,128.0000,-6.0625,153.4375,0
1776973191.874,8.6933,1.3120,-0.5483,-1.3123,-0.6163,-1.3291,-77.5500,2.4000,-15.6000,9.1937,4.1037,-1.5419,0.4199,0.2380,0.1298,-96.6000,-27.3000,33.0000,-7.6200,-1.0800,-6.0200,1.6624,2.0649,0.0851,20.7500,-7.3750,26.5625,128.0000,-6.0625,153.4375,0
1776973191.878,8.6933,1.3120,-0.5483,-1.3123,-0.6163,-1.3291,-76.0500,2.1000,-16.0500,9.1937,4.1037,-1.5419,0.4199,0.2380,0.1298,-97.8000,-27.1500,31.5000,-7.4600,-1.3200,-5.5200,1.7551,1.8544,0.1647,20.7500,-7.3750,26.5625,128.3750,-5.1875,152.5625,0
1776973191.883,8.5018,1.4389,-0.3735,-1.2854,-0.5215,-1.1583,-76.0500,2.1000,-16.0500,8.8897,4.0342,-1.5131,0.3840,0.1617,0.1069,-97.8000,-27.1500,31.5000,-7.4600,-1.3200,-5.5200,1.7551,1.8544,0.1647,20.7500,-7.3750,26.5625,128.7500,-4.4375,151.6250,0
1776973191.891,8.3725,1.6640,-0.0670,-1.2854,-0.5215,-1.1583,-77.2500,2.8500,-15.3000,8.8897,4.0342,-1.5131,0.3840,0.1617,0.1069,-97.6500,-27.7500,31.6500,-7.8000,-1.6500,-5.6400,1.7802,1.5882,0.2007,20.7500,-7.3750,26.5625,129.1250,-3.8750,150.6875,0
1776973191.900,8.2313,1.7549,0.0814,-1.1509,-0.4274,-0.9838,-77.2500,2.8500,-15.3000,8.9112,3.8475,-1.2977,0.3301,0.1047,0.0730,-96.9000,-27.3000,30.6000,-8.1000,-1.9400,-5.7600,1.7126,1.3297,0.2029,20.7500,-7.3750,26.5625,129.1250,-3.8750,150.6875,0
1776973191.910,8.2121,1.7478,-0.1604,-1.0051,-0.2899,-0.7930,-76.2000,3.4500,-17.4000,8.7604,3.6966,-1.1444,0.2689,0.1223,0.0584,-97.8000,-27.9000,31.8000,-8.3500,-2.0000,-5.8000,1.5555,1.1334,0.1756,20.7500,-7.3750,26.5625,129.3750,-3.3750,149.8750,0
1776973191.915,8.2121,1.7478,-0.1604,-0.8663,-0.1753,-0.5905,-76.2000,3.4500,-17.4000,8.8059,3.6320,-1.0080,0.2212,0.1649,0.0282,-98.7000,-28.5000,31.6500,-8.3500,-2.0000,-5.8000,1.5555,1.1334,0.1756,20.7500,-7.3750,26.5625,129.3750,-3.3750,149.8750,0
1776973191.920,8.1259,1.5490,-0.3879,-0.8663,-0.1753,-0.5905,-76.2000,3.4500,-17.4000,8.8059,3.6320,-1.0080,0.2212,0.1649,0.0282,-98.7000,-28.5000,31.6500,-7.9300,-1.7000,-5.2200,1.3363,0.9970,0.1407,25.7500,-2.5000,37.3750,129.6250,-2.9375,149.1250,0
1776973191.925,8.1259,1.5490,-0.3879,-0.7837,-0.0605,-0.4021,-76.2000,3.4500,-17.4000,8.7987,3.4237,-0.9433,0.1327,0.2313,-0.0016,-98.7000,-28.5000,31.6500,-7.9300,-1.7000,-5.2200,1.3363,0.9970,0.1407,25.7500,-2.5000,37.3750,129.6250,-2.9375,149.1250,0
1776973191.930,8.0517,1.3623,-0.5818,-0.6848,0.0450,-0.2228,-77.7000,4.9500,-16.9500,8.7987,3.4237,-0.9433,0.1327,0.2313,-0.0016,-98.7000,-28.5000,31.6500,-7.6200,-1.4600,-4.8100,1.0897,0.8618,0.1233,25.7500,-2.5000,37.3750,129.8750,-2.5625,148.5625,0
1776973191.935,8.0517,1.3623,-0.5818,-0.6848,0.0450,-0.2228,-77.7000,4.9500,-16.9500,8.9591,3.2274,-0.9840,0.0794,0.2761,-0.0224,-98.7000,-28.5000,31.6500,-7.6200,-1.4600,-4.8100,0.8628,0.6720,0.1538,25.7500,-2.5000,37.3750,130.0625,-2.3125,148.0625,0
1776973191.941,8.0421,0.9744,-0.5507,-0.6033,0.1647,-0.0749,-78.3000,4.8000,-17.1000,8.9591,3.2274,-0.9840,0.0661,0.3102,-0.0269,-96.9000,-26.5500,31.3500,-7.5100,-1.2700,-4.5600,0.8628,0.6720,0.1538,25.7500,-2.5000,37.3750,130.2500,-2.1250,147.6875,0
1776973191.951,8.0302,0.7853,-0.2801,-0.4634,0.2859,0.0663,-78.7500,5.5500,-16.8000,9.0908,3.0694,-1.1851,0.0661,0.3102,-0.0269,-97.9500,-27.3000,31.3500,-7.6500,-1.4200,-4.3800,0.6927,0.4494,0.2149,25.7500,-2.5000,37.3750,130.2500,-2.1250,147.6875,0
1776973191.961,8.0996,0.5578,-0.0263,-0.3355,0.4029,0.1977,-78.1500,5.4000,-16.6500,9.1698,2.9161,-1.2594,0.0871,0.2928,0.0256,-97.3500,-28.8000,31.3500,-7.7200,-1.5500,-4.4200,0.5836,0.2367,0.2913,25.7500,-2.5000,37.3750,130.5000,-2.1250,147.3750,0
1776973191.965,8.0996,0.5578,-0.0263,-0.3355,0.4029,0.1977,-78.1500,5.4000,-16.6500,9.0405,3.0478,-1.2977,0.0871,0.2928,0.0256,-97.0500,-27.1500,31.0500,-7.7200,-1.5500,-4.4200,0.5836,0.2367,0.2913,25.7500,-2.5000,37.3750,130.6875,-2.1875,147.1250,0
1776973191.971,8.2049,0.4381,0.1101,-0.2603,0.5140,0.3192,-79.8000,3.3000,-15.3000,8.9687,2.8515,-1.3647,0.1127,0.2609,0.0674,-97.0500,-27.1500,31.0500,-7.5900,-1.6900,-4.4500,0.5192,0.0480,0.3578,27.7500,3.2500,43.5000,130.6875,-2.1875,147.1250,0
1776973191.975,8.2049,0.4381,0.1101,-0.2603,0.5140,0.3192,-79.8000,3.3000,-15.3000,8.9687,2.8515,-1.3647,0.1127,0.2609,0.0674,-97.0500,-27.1500,31.0500,-7.5900,-1.6900,-4.4500,0.5192,0.0480,0.3578,27.7500,3.2500,43.5000,130.8750,-2.3750,146.8125,0
1776973191.980,8.3629,0.3184,0.1820,-0.2001,0.6057,0.4234,-80.2500,4.0500,-16.8000,8.9759,2.7414,-1.4653,0.1801,0.2726,0.1146,-97.0500,-27.1500,31.0500,-7.0800,-1.9400,-4.6400,0.4854,-0.1167,0.4145,27.7500,3.2500,43.5000,130.8750,-2.3750,146.8125,0
1776973191.989,8.4611,0.1245,0.4214,-0.1295,0.6893,0.5335,-80.2500,4.0500,-16.8000,8.9759,2.7414,-1.4653,0.1801,0.2726,0.1146,-97.0500,-27.1500,31.0500,-7.0300,-2.0600,-4.8400,0.4778,-0.2880,0.4505,27.7500,3.2500,43.5000,131.1250,-2.6875,146.5625,0
1776973191.994,8.4611,0.1245,0.4214,-0.1295,0.6893,0.5335,-80.2500,4.0500,-16.8000,8.8897,2.6600,-1.5060,0.2366,0.2513,0.1775,-97.0500,-27.1500,31.0500,-7.0300,-2.0600,-4.8400,0.4778,-0.2880,0.4505,27.7500,3.2500,43.5000,131.3125,-3.0000,146.3125,0
1776973192.001,8.5329,0.0239,0.6201,-0.0818,0.7751,0.6331,-78.9000,3.4500,-15.4500,8.7317,2.5307,-1.4557,0.2563,0.2451,0.2403,-96.6000,-25.8000,29.8500,-6.9100,-2.2600,-5.0100,0.4898,-0.4549,0.4658,27.7500,3.2500,43.5000,131.4375,-3.4375,146.0000,0
1776973192.011,8.7029,-0.2753,0.7733,-0.0400,0.8308,0.7221,-80.1000,3.4500,-15.4500,8.6143,2.2553,-1.3192,0.2678,0.2886,0.3056,-96.9000,-28.5000,31.3500,-6.7000,-2.5200,-5.2000,0.5018,-0.6120,0.4516,27.7500,3.2500,43.5000,131.4375,-3.4375,146.0000,0
1776973192.016,8.7508,-0.4190,0.8595,-0.0400,0.8308,0.7221,-80.1000,3.4500,-15.4500,8.6143,2.2553,-1.3192,0.2678,0.2886,0.3056,-96.9000,-25.8000,29.8500,-6.7000,-2.5200,-5.2000,0.5018,-0.6120,0.4516,27.7500,3.2500,43.5000,131.5625,-3.9375,145.7500,0
1776973192.021,8.7508,-0.4190,0.8595,0.0416,0.8958,0.8095,-79.3500,2.2500,-15.1500,8.4108,2.0518,-1.1756,0.2321,0.3741,0.3797,-96.9000,-25.8000,29.8500,-6.9500,-3.1100,-5.7300,0.5018,-0.7636,0.4167,28.3750,5.5625,46.0625,131.5625,-3.9375,145.7500,0
1776973192.026,8.8178,-0.4980,1.0056,0.0416,0.8958,0.8095,-79.3500,2.2500,-15.1500,8.4108,2.0518,-1.1756,0.2321,0.3741,0.3797,-96.9000,-27.7500,29.5500,-6.9500,-3.1100,-5.7300,0.5018,-0.7636,0.4167,28.3750,5.5625,46.0625,131.6250,-4.4375,145.5000,0
1776973192.031,8.8178,-0.4980,1.0056,0.1151,0.9659,0.8948,-79.5000,2.4000,-14.5500,8.3797,1.6664,-0.9337,0.1961,0.4676,0.4668,-96.9000,-27.7500,29.5500,-6.9900,-3.4100,-5.7900,0.4800,-0.8945,0.3622,28.3750,5.5625,46.0625,131.6250,-4.4375,145.5000,0
1776973192.036,10.0628,1.1779,2.5187,0.3333,1.1109,0.8452,-79.5000,2.4000,-14.5500,8.3797,1.6664,-0.9337,0.1961,0.4676,0.4668,-96.9000,-27.7500,29.5500,-6.9900,-3.4100,-5.7900,0.4222,-0.9796,0.2945,28.3750,5.5625,46.0625,131.6250,-5.0000,145.2500,0
1776973192.042,10.0628,1.1779,2.5187,0.3333,1.1109,0.8452,-79.6500,0.7500,-15.1500,9.1770,1.1779,-0.1269,0.1844,0.6416,0.6590,-96.9000,-27.7500,29.5500,-6.8300,-3.6300,-5.7700,0.4222,-0.9796,0.2945,28.3750,5.5625,46.0625,131.3750,-5.3125,145.3125,0
1776973192.051,13.7810,4.6974,-0.7925,-0.0485,0.8183,0.4642,-80.5500,-0.1500,-15.3000,9.7636,0.9098,0.3879,0.1210,0.8010,0.9363,-97.5000,-28.2000,30.0000,4.1300,-17.6400,-14.8800,-0.2138,-0.8236,-0.1440,28.3750,5.5625,46.0625,131.3750,-5.3125,145.3125,0
1776973192.061,15.3612,8.5521,-7.1347,-1.1357,0.0296,-0.1330,-80.5500,-0.1500,-15.3000,9.9934,0.5866,0.7254,0.0592,0.7373,1.0834,-96.4500,-27.9000,29.2500,2.5100,-14.8000,-13.0700,-2.6234,-1.5392,-0.1724,28.3750,5.5625,46.0625,130.9375,-5.9375,146.6875,0
1776973192.066,11.4922,9.7564,-5.9376,-0.8860,-0.3784,-0.5953,-80.5500,-0.1500,-15.3000,9.9934,0.5866,0.7254,0.0592,0.7373,1.0834,-97.6500,-27.7500,29.1000,2.5100,-14.8000,-13.0700,-2.6234,-1.5392,-0.1724,28.3750,5.5625,46.0625,130.9375,-5.9375,146.6875,0
1776973192.071,11.4922,9.7564,-5.9376,-0.8860,-0.3784,-0.5953,-79.5000,0.4500,-11.5500,9.2153,0.6728,0.2705,-0.0901,0.6297,1.0898,-97.6500,-27.7500,29.1000,3.3400,-11.1700,-9.4600,-2.4773,-1.6908,-0.1233,33.8750,6.5000,46.3750,130.5625,-6.6875,148.0000,0
1776973192.075,6.3231,7.0629,-2.1572,0.9950,0.0512,-0.4533,-79.5000,0.4500,-11.5500,9.2153,0.6728,0.2705,-0.0901,0.6297,1.0898,-94.9500,-27.1500,30.0000,3.3400,-11.1700,-9.4600,-2.4773,-1.6908,-0.1233,33.8750,6.5000,46.3750,130.5625,-6.6875,148.0000,0
1776973192.081,6.3231,7.0629,-2.1572,0.9950,0.0512,-0.4533,-79.5000,0.4500,-11.5500,8.6359,1.4150,-0.4980,-0.3691,0.6249,0.9968,-94.9500,-27.1500,30.0000,1.9900,-5.5600,-2.0400,-2.1282,-1.5621,-0.2062,33.8750,6.5000,46.3750,130.1250,-7.3750,149.1250,0
1776973192.087,6.1172,3.9433,0.3089,2.6961,0.4269,-0.0919,-79.5000,0.4500,-11.5500,8.7819,3.0981,-0.7661,-0.4088,1.0118,0.9675,-94.9500,-27.1500,30.0000,-5.7600,0.8900,-7.7500,-2.5755,-1.8490,0.5051,33.8750,6.5000,46.3750,130.0000,-8.4375,150.5000,0
1776973192.092,6.1172,3.9433,0.3089,2.6961,0.4269,-0.0919,-80.1000,1.0500,-12.4500,8.7819,3.0981,-0.7661,-0.4088,1.0118,0.9675,-94.9500,-27.1500,30.0000,-5.7600,0.8900,-7.7500,-2.5755,-1.8490,0.5051,33.8750,6.5000,46.3750,129.9375,-9.6875,152.1250,0
1776973192.101,9.6869,4.1156,-3.0143,2.8386,0.6289,0.1561,-80.4000,-1.0500,-11.4000,11.0756,5.2553,-1.6209,-0.1215,1.3315,1.1005,-94.9500,-27.1500,30.0000,-7.2600,-1.9900,-11.6900,-2.9485,-2.2537,0.7101,33.8750,6.5000,46.3750,129.7500,-10.7500,153.5625,0
1776973192.111,10.3430,6.0382,-5.8658,1.9953,0.5023,0.1777,-81.0000,0.1500,-10.8000,13.1250,7.5178,-2.8970,0.5852,1.1501,1.1072,-94.5000,-27.1500,30.0000,-3.9100,-4.7000,-11.1800,-2.6758,-1.9155,0.3491,33.8750,6.5000,46.3750,129.7500,-10.7500,153.5625,0
1776973192.116,10.1706,4.3000,-4.5993,1.5791,0.5708,0.2246,-81.0000,0.1500,-10.8000,13.6781,8.6167,-3.7469,1.5644,0.6440,0.8210,-93.4500,-27.1500,29.2500,-3.9100,-4.7000,-11.1800,-2.6758,-1.9155,0.3491,33.8750,6.5000,46.3750,129.5625,-11.5000,154.8125,0
1776973192.121,10.1706,4.3000,-4.5993,1.5791,0.5708,0.2246,-80.5500,-0.9000,-11.2500,13.6781,8.6167,-3.7469,1.5644,0.6440,0.8210,-93.4500,-27.1500,29.2500,0.9900,-0.1100,-6.8600,-2.3835,-1.4083,0.1876,40.0000,3.0000,45.0000,129.5625,-11.5000,154.8125,0
1776973192.126,11.6191,1.6089,-6.1842,1.3781,0.4676,0.2843,-80.5500,-0.9000,-11.2500,13.5847,7.3191,-3.9744,2.3670,0.4399,0.5252,-95.4000,-27.7500,30.6000,0.9900,-0.1100,-6.8600,-2.3835,-1.4083,0.1876,40.0000,3.0000,45.0000,129.3750,-12.2500,156.0000,0
1776973192.131,11.3725,-0.1053,-8.3582,1.3781,0.4676,0.2843,-79.5000,0.1500,-9.3000,13.5847,7.3191,-3.9744,2.3670,0.4399,0.5252,-95.4000,-27.7500,30.6000,1.2700,4.0600,-9.1500,-2.2035,-1.4203,0.2596,40.0000,3.0000,45.0000,129.3750,-12.2500,156.0000,0
1776973192.136,11.3725,-0.1053,-8.3582,1.2012,0.2872,0.3166,-79.5000,0.1500,-9.3000,13.5751,5.0637,-3.0813,2.6662,0.4261,0.5433,-97.6500,-27.3000,33.0000,1.2700,4.0600,-9.1500,-1.6221,-1.7671,0.1800,40.0000,3.0000,45.0000,129.1875,-13.1875,156.8125,0
1776973192.142,10.3094,-2.0638,-8.1092,1.3155,0.4506,0.4386,-81.0000,-0.1500,-10.8000,13.5751,5.0637,-3.0813,2.6662,0.4261,0.5433,-97.6500,-27.3000,33.0000,-1.7700,5.1000,-12.0800,-1.6221,-1.7671,0.1800,40.0000,3.0000,45.0000,129.0625,-14.3125,157.2500,0
1776973192.151,11.2216,-3.5195,-4.3814,1.5292,0.6851,0.5708,-81.0000,-0.1500,-10.8000,13.0005,2.9664,-1.8196,2.4712,0.5825,0.7088,-97.6500,-27.3000,33.0000,-6.8000,7.7800,-14.7800,-0.8814,-1.9908,0.2978,40.0000,3.0000,45.0000,129.2500,-15.4375,157.5625,0
1776973192.161,11.4754,-0.0096,-0.2370,1.0880,0.9105,0.6137,-81.1500,-2.2500,-8.1000,13.3980,1.5275,-2.0159,2.0795,0.7194,0.9190,-100.3500,-28.6500,36.1500,-11.4700,0.0300,-14.2100,-0.5989,-1.8937,0.8378,40.0000,3.0000,45.0000,129.2500,-15.4375,157.5625,0
1776973192.166,11.4754,-0.0096,-0.2370,1.0880,0.9105,0.6137,-81.1500,-2.2500,-8.1000,13.6948,1.3743,-2.7246,1.8453,0.4783,1.0416,-103.0500,-30.7500,38.4000,-11.4700,0.0300,-14.2100,-0.5989,-1.8937,0.8378,40.0000,3.0000,45.0000,129.6250,-16.4375,157.8750,0
1776973192.171,11.0875,3.9169,1.2498,0.8623,1.1154,0.6054,-80.4000,-2.2500,-6.6000,13.6948,1.3743,-2.7246,1.8453,0.4783,1.0416,-104.2500,-29.5500,39.1500,-12.5400,-13.8100,-14.2000,-0.3818,-1.5850,1.0123,48.3750,-1.7500,42.0000,129.6250,-16.4375,157.8750,0
1776973192.176,11.0875,3.9169,1.2498,0.8623,1.1154,0.6054,-80.4000,-2.2500,-6.6000,12.2032,1.9561,-3.1316,1.6286,-0.0474,0.9324,-104.2500,-29.5500,39.1500,-12.5400,-13.8100,-14.2000,-0.3818,-1.5850,1.0123,48.3750,-1.7500,42.0000,129.6250,-16.4375,157.8750,0
1776973192.181,11.2623,4.8507,0.3041,1.2838,1.0333,0.5833,-80.4000,-3.0000,-6.1500,12.2032,1.9561,-3.1316,1.6286,-0.0474,0.9324,-106.0500,-30.0000,38.7000,-4.9200,-9.0700,-8.0700,-0.5705,-0.9665,0.8999,48.3750,-1.7500,42.0000,130.0000,-17.1250,158.2500,0
1776973192.189,9.6462,4.4341,2.6025,1.2838,1.0333,0.5833,-80.4000,-3.0000,-6.1500,10.3693,2.4972,-3.0406,1.3507,-0.5012,0.6440,-106.0500,-30.0000,38.7000,-6.5200,0.7400,-12.6300,-0.5432,-0.9119,0.6381,48.3750,-1.7500,42.0000,130.1875,-17.7500,158.6250,0
1776973192.194,9.6462,4.4341,2.6025,1.5625,0.9089,0.5526,-81.3000,-3.3000,-6.0000,9.0740,1.5826,-1.5562,0.5777,-0.6816,0.3794,-104.7000,-32.7000,37.2000,-6.5200,0.7400,-12.6300,-0.5432,-0.9119,0.6381,48.3750,-1.7500,42.0000,130.3750,-18.4375,158.9375,0
1776973192.202,8.5186,3.1939,3.3136,1.4064,0.8556,0.5694,-80.5500,-3.6000,-8.2500,9.0740,1.5826,-1.5562,0.5777,-0.6816,0.3794,-104.7000,-32.7000,37.2000,-5.7000,-2.3500,-10.6700,-0.5683,-1.1563,0.6174,48.3750,-1.7500,42.0000,130.5000,-19.0000,159.1875,0
1776973192.211,8.4324,1.4054,2.4421,1.0627,0.8748,0.6001,-82.2000,-4.5000,-6.0000,7.9296,-0.3472,0.1915,-0.3246,-0.4138,0.2481,-101.8500,-34.2000,35.4000,-2.6900,-4.9400,-7.7000,-0.3796,-0.8105,0.4440,48.3750,-1.7500,42.0000,130.5000,-19.0000,159.1875,0
1776973192.216,8.4324,1.4054,2.4421,1.0627,0.8748,0.6001,-82.2000,-4.5000,-6.0000,6.7469,-2.3679,1.9249,-1.1375,0.0402,0.2257,-101.8500,-34.2000,35.4000,-2.6900,-4.9400,-7.7000,-0.3796,-0.8105,0.4440,48.3750,-1.7500,42.0000,130.5000,-19.0000,159.1875,0
1776973192.221,9.0836,-0.7901,1.9800,0.9662,0.8937,0.6169,-82.2000,-4.5000,-6.0000,6.7469,-2.3679,1.9249,-1.1375,0.0402,0.2257,-98.8500,-33.1500,33.6000,-4.8800,-3.5400,-8.8500,-0.3785,-0.8094,0.3752,55.2500,-4.7500,39.2500,130.5625,-19.5000,159.3750,0
1776973192.226,9.0836,-0.7901,1.9800,0.9662,0.8937,0.6169,-82.2000,-4.5000,-6.0000,5.7365,-4.1324,3.3447,-1.6896,0.4247,0.2891,-98.8500,-33.1500,33.6000,-4.8800,-3.5400,-8.8500,-0.3785,-0.8094,0.3752,55.2500,-4.7500,39.2500,130.5625,-19.5000,159.3750,0
1776973192.231,9.6462,-1.0606,0.5411,0.6531,0.8274,0.5729,-82.2000,-4.8000,-6.0000,5.7365,-4.1324,3.3447,-1.7160,0.6885,0.4229,-96.9000,-33.0000,33.0000,-3.9900,-3.2400,-8.5300,-0.4254,-0.8890,0.3262,55.2500,-4.7500,39.2500,130.6250,-20.0000,159.6250,0
1776973192.237,9.5624,-0.7039,-0.0982,0.2190,0.7885,0.4980,-82.2000,-4.8000,-4.5000,5.8754,-5.2194,4.1420,-1.7160,0.6885,0.4229,-96.9000,-33.0000,33.0000,-3.5200,-3.6000,-8.5400,-0.4440,-0.7527,0.3022,55.2500,-4.7500,39.2500,130.6875,-20.4375,159.8750,0
1776973192.242,9.5624,-0.7039,-0.0982,0.2190,0.7885,0.4980,-82.2000,-4.8000,-4.5000,7.5322,-5.3989,4.4173,-1.4810,0.8186,0.6355,-94.5000,-33.4500,29.2500,-3.5200,-3.6000,-8.5400,-0.4440,-0.7527,0.3022,55.2500,-4.7500,39.2500,130.7500,-20.8750,160.1250,0
1776973192.251,9.4906,0.2777,-0.1724,-0.0485,0.7925,0.4815,-82.2000,-4.8000,-4.5000,9.1099,-4.3359,4.1755,-1.0507,0.8026,0.7802,-94.5000,-33.4500,29.2500,-4.0100,-2.7200,-8.9200,-0.4516,-0.6785,0.2760,55.2500,-4.7500,39.2500,130.7500,-21.2500,160.3750,0
1776973192.261,9.6391,1.5443,0.1652,-0.2731,0.7802,0.5063,-82.2000,-5.2500,-4.2000,10.4986,-2.9185,3.4357,-0.6686,0.6038,0.7845,-88.5000,-31.0500,27.0000,-4.2600,-2.6600,-8.9500,-0.4461,-0.6381,0.2531,55.2500,-4.7500,39.2500,130.7500,-21.2500,160.3750,0
1776973192.266,9.7827,2.2769,0.7685,-0.2731,0.7802,0.5063,-82.3500,-5.4000,-2.8500,10.4986,-2.9185,3.4357,-0.6686,0.6038,0.7845,-88.5000,-31.0500,27.0000,-4.2600,-2.6600,-8.9500,-0.4461,-0.6381,0.2531,55.2500,-4.7500,39.2500,130.7500,-21.5625,160.6250,0
1776973192.271,9.7827,2.2769,0.7685,-0.3325,0.7434,0.5279,-82.3500,-5.4000,-2.8500,10.5584,-1.1157,2.5977,-0.2393,0.2617,0.6779,-87.1500,-30.7500,25.9500,-4.2000,-2.7100,-8.8900,-0.3894,-0.5967,0.2018,58.8750,-7.6875,36.8750,130.7500,-21.5625,160.6250,0
1776973192.276,9.8138,2.7461,1.1349,-0.2009,0.7464,0.5486,-83.1000,-4.6500,-2.8500,10.5584,-1.1157,2.5977,-0.2393,0.2617,0.6779,-87.1500,-30.7500,25.9500,-4.2000,-2.7100,-8.8900,-0.3894,-0.5967,0.2018,58.8750,-7.6875,36.8750,130.7500,-21.9375,160.7500,0
1776973192.281,9.8138,2.7461,1.1349,-0.2009,0.7464,0.5486,-83.1000,-4.6500,-2.8500,10.2400,0.5746,2.2410,0.2198,0.1455,0.4903,-85.9500,-29.5500,25.6500,-4.3100,-2.5900,-8.9200,-0.2836,-0.5705,0.1484,58.8750,-7.6875,36.8750,130.7500,-21.9375,160.7500,0
1776973192.289,9.8904,3.1268,1.4892,0.1135,0.7266,0.5433,-81.6000,-5.4000,-3.3000,10.2400,0.5746,2.2410,0.5311,0.0959,0.3155,-84.1500,-30.3000,25.9500,-4.4000,-2.9900,-8.7900,-0.1876,-0.5509,0.1124,58.8750,-7.6875,36.8750,130.7500,-22.1875,160.8750,0
1776973192.294,9.6534,2.8850,1.7645,0.1135,0.7266,0.5433,-81.7500,-6.0000,-2.7000,10.1538,2.5570,2.1907,0.5311,0.0959,0.3155,-84.1500,-30.3000,25.9500,-4.4000,-2.9900,-8.7900,-0.1876,-0.5509,0.1124,58.8750,-7.6875,36.8750,130.7500,-22.5000,160.9375,0
1776973192.302,9.6534,2.8850,1.7645,0.3880,0.6891,0.5324,-81.7500,-6.0000,-2.7000,9.5505,3.4261,2.1380,0.3789,0.1596,0.2281,-84.1500,-28.5000,24.9000,-4.5700,-2.9200,-8.8400,-0.1494,-0.5018,0.0829,58.8750,-7.6875,36.8750,130.7500,-22.7500,161.0000,0
1776973192.312,9.7037,1.8938,1.6328,0.5025,0.6416,0.5271,-82.6500,-5.8500,-2.8500,9.7085,3.9840,2.0997,0.1274,0.2601,0.2196,-84.1500,-28.5000,24.9000,-4.5700,-3.0500,-8.7300,-0.1516,-0.4363,0.0676,58.8750,-7.6875,36.8750,130.7500,-22.7500,161.0000,0
1776973192.316,9.8593,0.7350,1.5610,0.4655,0.5974,0.4999,-82.6500,-5.8500,-2.8500,9.7085,3.9840,2.0997,0.1274,0.2601,0.2196,-84.1500,-28.5000,24.9000,-4.5700,-3.0500,-8.7300,-0.1516,-0.4363,0.0676,58.8750,-7.6875,36.8750,130.7500,-22.7500,161.0000,0
1776973192.321,9.8593,0.7350,1.5610,0.4655,0.5974,0.4999,-82.6500,-5.8500,-2.8500,9.7827,3.6799,2.0255,-0.0682,0.3038,0.2473,-84.7500,-28.9500,26.8500,-4.2100,-3.0100,-8.5500,-0.1800,-0.3425,0.0535,60.5625,-7.5625,36.5625,130.6875,-22.9375,161.0625,0
1776973192.326,9.8976,-0.0718,1.6640,0.3027,0.5505,0.4700,-82.5000,-5.5500,-3.4500,9.7827,3.6799,2.0255,-0.0682,0.3038,0.2473,-84.7500,-28.9500,26.8500,-4.2100,-3.0100,-8.5500,-0.1800,-0.3425,0.0535,60.5625,-7.5625,36.5625,130.6875,-22.9375,161.0625,0
1776973192.331,9.8976,-0.0718,1.6640,0.3027,0.5505,0.4700,-82.5000,-5.5500,-3.4500,9.6534,2.9377,1.7238,-0.0211,0.3379,0.2822,-84.7500,-28.2000,26.4000,-4.2300,-2.7700,-8.6400,-0.1985,-0.2574,0.0404,60.5625,-7.5625,36.5625,130.6875,-23.0625,161.1875,0
1776973192.336,9.9527,-0.2753,1.5658,0.0592,0.5438,0.4511,-82.3500,-6.9000,-2.5500,9.6534,2.9377,1.7238,-0.0211,0.3379,0.2822,-84.7500,-28.2000,26.4000,-4.2300,-2.7700,-8.6400,-0.1811,-0.2182,0.0480,60.5625,-7.5625,36.5625,130.6875,-23.1875,161.2500,0
1776973192.342,9.9934,0.2322,1.0918,0.0592,0.5438,0.4511,-83.1000,-7.3500,-2.8500,9.9168,2.4086,1.3001,0.1580,0.4317,0.3299,-85.6500,-26.2500,28.8000,-4.3400,-2.8100,-8.6100,-0.1811,-0.2182,0.0480,60.5625,-7.5625,36.5625,130.6875,-23.1875,161.2500,0
1776973192.351,9.9934,0.2322,1.0918,-0.2150,0.5167,0.4498,-83.1000,-7.3500,-2.8500,9.6414,1.8435,1.1013,0.2505,0.5367,0.3877,-87.9000,-27.0000,28.8000,-4.3400,-2.7200,-8.6100,-0.1298,-0.2007,0.0295,60.5625,-7.5625,36.5625,130.6875,-23.3125,161.3125,0
1776973192.356,9.8617,1.3527,0.8571,-0.3744,0.5057,0.4655,-81.7500,-6.7500,-1.6500,9.6414,1.8435,1.1013,0.2505,0.5367,0.3877,-87.9000,-27.0000,28.8000,-4.3400,-2.7200,-8.6100,-0.0785,-0.1625,0.0284,60.5625,-7.5625,36.5625,130.6875,-23.4375,161.3750,0
1776973192.362,9.6271,2.4684,0.8356,-0.4527,0.4874,0.4842,-83.2500,-7.9500,-1.6500,9.5912,1.3048,1.0774,0.2715,0.5804,0.4282,-87.9000,-27.0000,28.8000,-4.2400,-2.9100,-8.5300,-0.0785,-0.1625,0.0284,60.5625,-7.5625,36.5625,130.6875,-23.4375,161.3750,0
1776973192.367,9.6271,2.4684,0.8356,-0.4527,0.4874,0.4842,-83.2500,-7.9500,-1.6500,9.4188,1.0894,1.1372,0.2854,0.5798,0.4279,-87.9000,-27.0000,28.8000,-4.2400,-2.9100,-8.5300,-0.0556,-0.1014,0.0404,60.8750,-8.2500,34.2500,130.6875,-23.5000,161.3750,0
1776973192.372,9.4475,2.8874,0.8763,-0.4650,0.4967,0.4970,-83.2500,-7.9500,-1.6500,9.4188,1.0894,1.1372,0.2854,0.5798,0.4279,-87.9000,-27.0000,28.8000,-4.1700,-2.8500,-8.4900,-0.0556,-0.1014,0.0404,60.8750,-8.2500,34.2500,130.6875,-23.5000,161.3750,0
1776973192.377,9.4475,2.8874,0.8763,-0.4650,0.4967,0.4970,-83.4000,-6.6000,-1.8000,9.4643,0.9529,1.3838,0.2507,0.5060,0.3797,-87.9000,-27.0000,28.8000,-4.1700,-2.8500,-8.4900,-0.0502,-0.0698,0.0382,60.8750,-8.2500,34.2500,130.6875,-23.5625,161.4375,0
1776973192.382,9.5289,3.2561,0.8787,-0.4258,0.4525,0.5012,-83.4000,-6.6000,-1.8000,9.4643,0.9529,1.3838,0.2507,0.5060,0.3797,-88.9500,-22.0500,31.6500,-4.1300,-2.8800,-8.4300,-0.0502,-0.0698,0.0382,60.8750,-8.2500,34.2500,130.6875,-23.5625,161.4375,0
1776973192.387,9.5289,3.2561,0.8787,-0.4258,0.4525,0.5012,-83.4000,-6.6000,-1.8000,8.6766,0.1006,1.6472,0.2268,0.5353,0.2963,-88.9500,-22.0500,31.6500,-4.1300,-2.8800,-8.4300,-0.0633,-0.0589,0.0513,60.8750,-8.2500,34.2500,130.6875,-23.6250,161.5000,0
1776973192.392,9.1866,3.0263,0.1939,-0.2750,0.4346,0.5084,-83.4000,-6.6000,-1.8000,8.6766,0.1006,1.6472,0.2268,0.5353,0.2963,-91.6500,-20.4000,33.6000,-3.8200,-3.0400,-8.2500,-0.0633,-0.0589,0.0513,60.8750,-8.2500,34.2500,130.6875,-23.6875,161.5000,0
1776973192.402,9.2392,2.4636,0.2777,-0.1188,0.4471,0.5500,-82.9500,-6.0000,-1.6500,10.0389,0.2729,0.4980,-0.0187,0.6480,0.3195,-93.1500,-20.4000,35.7000,-3.8900,-3.1100,-8.2300,-0.0753,-0.0894,0.0545,60.8750,-8.2500,34.2500,130.6875,-23.6875,161.5000,0
1776973192.412,9.4763,1.8052,0.7159,-0.1132,0.4082,0.5710,-82.9500,-6.0000,-1.6500,8.6838,-1.1109,0.1652,-0.3110,0.8585,0.2036,-94.9500,-24.1500,40.3500,-4.1000,-2.9700,-8.3000,-0.1025,-0.1396,0.0644,60.8750,-8.2500,34.2500,130.7500,-23.7500,161.5625,0
1776973192.416,9.4763,1.8052,0.7159,-0.1132,0.4082,0.5710,-82.6500,-7.8000,-0.3000,10.5536,-0.1053,3.1029,0.4285,0.5081,0.0794,-94.9500,-24.1500,40.3500,-4.1000,-2.9700,-8.3000,-0.1025,-0.1396,0.0644,60.8750,-8.2500,34.2500,130.7500,-23.7500,161.5625,0
1776973192.422,9.4068,1.1229,0.6919,-0.1404,0.3922,0.5846,-82.6500,-7.8000,-0.3000,10.5536,-0.1053,3.1029,0.4285,0.5081,0.0794,-94.9500,-24.1500,40.3500,-4.1400,-2.8200,-8.3800,-0.1353,-0.1505,0.0785,62.0000,-8.5625,35.1875,130.7500,-23.8750,161.6875,0
1776973192.426,9.4068,1.1229,0.6919,-0.1404,0.3922,0.5846,-82.3500,-8.1000,-1.8000,8.8585,0.5794,1.3264,0.1116,0.5372,0.1793,-94.9500,-24.1500,40.3500,-4.1400,-2.8200,-8.3800,-0.1353,-0.1505,0.0785,62.0000,-8.5625,35.1875,130.7500,-23.8750,161.6875,0
1776973192.432,9.5313,0.8164,0.6943,-0.1974,0.3890,0.6009,-82.3500,-8.1000,-1.8000,8.8585,0.5794,1.3264,0.1116,0.5372,0.1793,-99.6000,-30.4500,49.9500,-4.2100,-2.7900,-8.4000,-0.1691,-0.1418,0.0796,62.0000,-8.5625,35.1875,130.7500,-23.9375,161.7500,0
1776973192.436,9.5313,0.8164,0.6943,-0.1974,0.3890,0.6009,-83.4000,-9.7500,-1.3500,9.5864,0.9074,2.3176,0.1572,0.2302,0.2198,-100.3500,-32.7000,53.2500,-4.2100,-2.7900,-8.4000,-0.1898,-0.1320,0.0764,62.0000,-8.5625,35.1875,130.7500,-24.0625,161.8750,0
1776973192.442,9.4260,1.0534,0.6943,-0.2403,0.4002,0.6065,-83.4000,-9.7500,-1.3500,9.5864,0.9074,2.3176,0.1572,0.2302,0.2198,-100.3500,-32.7000,53.2500,-4.2400,-2.7400,-8.4400,-0.1898,-0.1320,0.0764,62.0000,-8.5625,35.1875,130.7500,-24.1250,162.0000,0
1776973192.451,9.6678,0.5794,1.0870,-0.2878,0.4210,0.6081,-82.9500,-7.5000,-1.6500,8.9735,0.9840,1.7358,0.0165,0.0389,0.3219,-102.7500,-33.7500,51.3000,-4.2100,-2.7100,-8.4300,-0.1920,-0.1222,0.0764,62.0000,-8.5625,35.1875,130.7500,-24.1250,162.0000,0
1776973192.456,9.6678,0.5794,1.0870,-0.2878,0.4210,0.6081,-82.9500,-7.5000,-1.6500,9.2225,0.4980,0.1844,-0.5774,0.1106,0.3640,-99.3000,-34.6500,48.1500,-4.2100,-2.7100,-8.4300,-0.1898,-0.1233,0.0633,62.0000,-8.5625,35.1875,130.7500,-24.1875,162.1250,0
1776973192.463,9.5146,1.0056,0.9960,-0.3589,0.4021,0.5820,-82.9500,-7.5000,-1.6500,9.2225,0.4980,0.1844,-0.5774,0.1106,0.3640,-99.3000,-34.6500,48.1500,-4.2200,-2.8400,-8.3700,-0.1898,-0.1233,0.0633,62.0000,-8.5625,35.1875,130.7500,-24.1875,162.1250,0
1776973192.467,9.6917,0.7063,1.1875,-0.3589,0.4021,0.5820,-84.0000,-11.1000,-1.2000,9.7276,0.2370,-0.1006,-0.8956,0.3166,0.3411,-98.5500,-34.2000,48.1500,-4.2200,-2.8400,-8.3700,-0.1713,-0.1407,0.0589,61.0625,-9.6875,35.1875,130.7500,-24.3125,162.1875,0
1776973192.473,9.6917,0.7063,1.1875,-0.4660,0.4183,0.5399,-84.0000,-11.1000,-1.2000,9.7276,0.2370,-0.1006,-0.8956,0.3166,0.3411,-98.5500,-34.2000,48.1500,-4.1500,-2.7800,-8.3100,-0.1713,-0.1407,0.0589,61.0625,-9.6875,35.1875,130.7500,-24.3125,162.1875,0
1776973192.477,9.6462,0.6225,0.8260,-0.4660,0.4183,0.5399,-84.0000,-11.1000,-1.2000,9.8497,-0.0120,-0.2921,-1.0285,0.7011,0.2779,-98.5500,-34.2000,48.1500,-4.1500,-2.7800,-8.3100,-0.1614,-0.1549,0.0535,61.0625,-9.6875,35.1875,130.7500,-24.4375,162.2500,0
1776973192.482,9.6462,0.6225,0.8260,-0.5404,0.3603,0.5415,-84.0000,-11.1000,-1.2000,9.8497,-0.0120,-0.2921,-1.0285,0.7011,0.2779,-98.5500,-34.2000,48.1500,-4.2400,-3.0500,-8.3600,-0.1614,-0.1549,0.0535,61.0625,-9.6875,35.1875,130.7500,-24.4375,162.2500,0
1776973192.487,9.7731,0.7805,0.5459,-0.5057,0.3600,0.5454,-84.0000,-9.4500,-2.7000,9.7468,0.0742,-0.1413,-0.8617,0.5841,0.2758,-94.9500,-34.6500,41.4000,-4.2400,-3.0500,-8.3600,-0.1538,-0.1713,0.0665,61.0625,-9.6875,35.1875,130.7500,-24.5000,162.3750,0
1776973192.493,9.7731,0.7805,0.5459,-0.5057,0.3600,0.5454,-84.0000,-9.4500,-2.7000,9.7779,-0.1221,0.0239,-0.8644,0.4778,0.3064,-94.9500,-34.6500,41.4000,-4.1300,-2.6100,-8.4200,-0.1538,-0.1713,0.0665,61.0625,-9.6875,35.1875,130.7500,-24.5000,162.3750,0
1776973192.501,9.7612,1.2043,0.6991,-0.4754,0.3256,0.5494,-81.7500,-11.1000,-0.9000,9.7779,-0.1221,0.0239,-0.8644,0.4778,0.3064,-93.1500,-34.6500,41.1000,-4.3100,-2.6400,-8.4000,-0.1658,-0.1582,0.0785,61.0625,-9.6875,35.1875,130.8125,-24.6250,162.4375,0
1776973192.506,9.4763,1.4629,0.6919,-0.4754,0.3256,0.5494,-83.4000,-10.9500,-2.1000,9.3254,-0.2873,0.3089,-0.4863,0.2840,0.3078,-91.0500,-35.2500,39.1500,-4.3100,-2.6400,-8.4000,-0.1604,-0.1734,0.0829,61.0625,-9.6875,35.1875,130.8125,-24.7500,162.5625,0
1776973192.513,9.4763,1.4629,0.6919,-0.4343,0.3192,0.5375,-83.4000,-10.9500,-2.1000,9.7851,0.0263,0.4166,-0.5033,0.3936,0.3059,-91.0500,-35.2500,39.1500,-4.3800,-2.7300,-8.3900,-0.1604,-0.1734,0.0829,61.0625,-9.6875,35.1875,130.8125,-24.7500,162.5625,0
1776973192.518,9.5529,1.4988,0.4477,-0.3168,0.3067,0.5335,-82.2000,-9.9000,-0.9000,9.7851,0.0263,0.4166,-0.5033,0.3936,0.3059,-90.7500,-36.7500,37.6500,-4.3800,-2.7300,-8.3900,-0.1604,-0.1734,0.0829,61.8750,-10.0625,34.1875,130.8125,-24.8125,162.6250,0
1776973192.523,9.5529,1.4988,0.4477,-0.3168,0.3067,0.5335,-82.2000,-9.9000,-0.9000,9.4475,-0.0024,0.7853,-0.5372,0.3528,0.3070,-90.7500,-36.7500,37.6500,-4.2200,-2.7100,-8.3200,-0.1538,-0.1538,0.0764,61.8750,-10.0625,34.1875,130.8125,-24.8125,162.6250,0
1776973192.527,9.5146,1.3408,0.5722,-0.2686,0.3192,0.5247,-81.9000,-10.9500,-1.3500,9.4475,-0.0024,0.7853,-0.5372,0.3528,0.3070,-90.7500,-36.7500,37.6500,-4.2200,-2.7100,-8.3200,-0.1538,-0.1538,0.0764,61.8750,-10.0625,34.1875,130.8125,-24.9375,162.6875,0
1776973192.533,9.5146,1.3408,0.5722,-0.2686,0.3192,0.5247,-81.9000,-10.9500,-1.3500,9.3111,0.6632,0.8428,-0.5804,0.3024,0.3099,-90.7500,-36.7500,37.6500,-4.2000,-2.7800,-8.3500,-0.1462,-0.1484,0.0665,61.8750,-10.0625,34.1875,130.8125,-24.9375,162.6875,0
1776973192.537,9.6438,0.7661,0.5411,-0.1871,0.3232,0.5276,-81.7500,-11.4000,-0.1500,9.3111,0.6632,0.8428,-0.5804,0.3024,0.3099,-90.1500,-40.6500,36.7500,-4.2000,-2.7800,-8.3500,-0.1353,-0.1593,0.0687,61.8750,-10.0625,34.1875,130.8125,-25.0000,162.8125,0
1776973192.543,9.6438,0.7661,0.5411,-0.1871,0.3232,0.5276,-81.7500,-11.4000,-0.1500,8.9639,1.0726,1.4054,-0.5761,0.2486,0.2979,-90.1500,-40.6500,36.7500,-4.2800,-2.6000,-8.3700,-0.1353,-0.1593,0.0687,61.8750,-10.0625,34.1875,130.8125,-25.0000,162.8125,0
1776973192.552,9.6199,0.3184,1.0726,-0.1588,0.3512,0.5436,-81.7500,-11.4000,-0.1500,9.3087,1.2737,1.7406,-0.4463,0.2934,0.2846,-87.9000,-42.3000,35.5500,-4.2300,-2.6600,-8.3700,-0.1265,-0.1647,0.0796,61.8750,-10.0625,34.1875,130.8750,-25.1250,162.8750,0
1776973192.556,9.4930,0.3903,1.2378,-0.1935,0.3624,0.5574,-82.5000,-11.1000,0.1500,9.3087,1.2737,1.7406,-0.4463,0.2934,0.2846,-88.3500,-42.4500,34.3500,-4.2300,-2.6600,-8.3700,-0.1189,-0.1865,0.0796,61.8750,-10.0625,34.1875,130.8750,-25.2500,162.9375,0
1776973192.563,9.4930,0.3903,1.2378,-0.1935,0.3624,0.5574,-82.5000,-11.1000,0.1500,9.9216,1.6927,1.9872,-0.4700,0.3789,0.2779,-88.3500,-42.4500,34.3500,-4.4800,-2.4800,-8.4200,-0.1189,-0.1865,0.0796,61.8750,-10.0625,34.1875,130.8750,-25.2500,162.9375,0
1776973192.568,9.5074,0.8260,1.3384,-0.2249,0.3693,0.5670,-82.5000,-11.1000,0.1500,9.9216,1.6927,1.9872,-0.4700,0.3789,0.2779,-89.1000,-42.9000,35.4000,-4.4800,-2.4800,-8.4200,-0.1058,-0.1789,0.0753,63.2500,-11.1875,33.2500,130.8750,-25.3750,163.0000,0
1776973192.573,9.6295,1.2306,1.3192,-0.2249,0.3693,0.5670,-82.5000,-11.1000,0.1500,9.3278,1.6065,1.8316,-0.3965,0.3850,0.2670,-89.1000,-42.9000,35.4000,-4.5400,-2.5200,-8.4000,-0.1058,-0.1789,0.0753,63.2500,-11.1875,33.2500,130.8750,-25.3750,163.0000,0
1776973192.578,9.6295,1.2306,1.3192,-0.2481,0.3696,0.5761,-82.9500,-13.5000,-0.1500,9.3278,1.6065,1.8316,-0.3965,0.3850,0.2670,-89.7000,-43.8000,34.2000,-4.5400,-2.5200,-8.4000,-0.1058,-0.1789,0.0753,63.2500,-11.1875,33.2500,130.8750,-25.5000,163.0625,0
1776973192.583,9.5385,1.0343,0.9697,-0.2481,0.3696,0.5761,-82.9500,-13.5000,-0.1500,9.2536,1.0104,1.6975,-0.4135,0.4053,0.2510,-89.7000,-43.8000,34.2000,-4.4900,-2.6000,-8.3500,-0.0894,-0.1462,0.0665,63.2500,-11.1875,33.2500,130.8750,-25.5000,163.0625,0
1776973192.588,9.5385,1.0343,0.9697,-0.2494,0.3477,0.5654,-83.7000,-13.0500,-0.1500,9.2536,1.0104,1.6975,-0.4135,0.4053,0.2510,-89.7000,-43.8000,34.2000,-4.4900,-2.6000,-8.3500,-0.0818,-0.1145,0.0611,63.2500,-11.1875,33.2500,130.9375,-25.5625,163.1250,0
1776973192.593,9.7324,0.5602,1.2067,-0.2494,0.3477,0.5654,-83.7000,-13.0500,-0.1500,9.3326,0.5124,1.4509,-0.3552,0.3981,0.2587,-89.7000,-43.8000,34.2000,-4.2300,-2.8600,-8.2800,-0.0818,-0.1145,0.0611,63.2500,-11.1875,33.2500,130.9375,-25.5625,163.1250,0
1776973192.602,9.6367,0.1173,0.9960,-0.2124,0.3453,0.5612,-81.6000,-12.4500,0.0000,9.6726,0.3304,1.3886,-0.3349,0.4093,0.2763,-87.3000,-44.7000,35.4000,-4.2400,-2.7700,-8.2600,-0.0742,-0.1124,0.0676,63.2500,-11.1875,33.2500,130.9375,-25.6250,163.1250,0
1776973192.607,9.6367,0.1173,0.9960,-0.2217,0.3216,0.5473,-81.3000,-13.0500,-0.1500,9.6726,0.3304,1.3886,-0.3349,0.4093,0.2763,-89.4000,-46.2000,34.6500,-4.2400,-2.7700,-8.2600,-0.0720,-0.1309,0.0873,63.2500,-11.1875,33.2500,130.9375,-25.6875,163.1875,0
1776973192.613,9.6774,-0.2059,1.5323,-0.2113,0.3283,0.5516,-81.3000,-13.0500,-0.1500,9.6103,0.2586,1.5083,-0.2864,0.3856,0.2952,-89.4000,-46.2000,34.6500,-4.1400,-2.6900,-8.3400,-0.0720,-0.1309,0.0873,63.2500,-11.1875,33.2500,130.9375,-25.6875,163.1875,0
1776973192.618,9.6774,-0.2059,1.5323,-0.2113,0.3283,0.5516,-81.3000,-13.0500,-0.1500,9.6103,0.2586,1.5083,-0.2864,0.3856,0.2952,-88.2000,-46.0500,34.8000,-4.1400,-2.6900,-8.3400,-0.0709,-0.1571,0.0971,63.6875,-10.7500,33.2500,131.0000,-25.8125,163.2500,0
1776973192.623,9.6103,-0.2705,1.4653,-0.2443,0.3208,0.5676,-81.3000,-13.0500,-0.1500,9.6247,0.2394,1.5802,-0.2521,0.3379,0.3214,-89.4000,-46.0500,34.8000,-4.5600,-2.4100,-8.3400,-0.0709,-0.1571,0.0971,63.6875,-10.7500,33.2500,131.0000,-25.8125,163.2500,0
1776973192.628,9.6103,-0.2705,1.4653,-0.2443,0.3208,0.5676,-81.1500,-11.7000,1.0500,9.6247,0.2394,1.5802,-0.2521,0.3379,0.3214,-89.4000,-45.4500,36.4500,-4.5600,-2.4100,-8.3400,-0.0720,-0.1778,0.1047,63.6875,-10.7500,33.2500,131.0000,-25.9375,163.3125,0
1776973192.633,9.5696,-0.1915,1.5538,-0.2697,0.3198,0.5644,-81.1500,-11.7000,1.0500,9.4308,0.2466,1.6448,-0.2558,0.3232,0.3296,-89.4000,-45.4500,36.4500,-4.6300,-2.3600,-8.5100,-0.0720,-0.1778,0.1047,63.6875,-10.7500,33.2500,131.0000,-25.9375,163.3125,0
1776973192.638,9.5696,-0.1915,1.5538,-0.2697,0.3198,0.5644,-81.1500,-11.7000,1.0500,9.4308,0.2466,1.6448,-0.3187,0.3416,0.3371,-89.4000,-45.4500,36.4500,-4.6300,-2.3600,-8.5100,-0.0785,-0.1527,0.0927,63.6875,-10.7500,33.2500,131.0625,-26.0625,163.3750,0
1776973192.643,9.4547,-0.0407,1.6352,-0.2497,0.3243,0.5596,-81.1500,-11.7000,1.0500,9.3661,0.1460,1.5586,-0.3187,0.3416,0.3371,-89.4000,-45.4500,36.4500,-4.5400,-2.5100,-8.3200,-0.0785,-0.1527,0.0927,63.6875,-10.7500,33.2500,131.0625,-26.1250,163.3750,0
1776973192.652,9.4667,0.1006,1.7119,-0.2814,0.3352,0.5697,-82.2000,-13.8000,0.4500,9.2919,0.0263,1.4246,-0.4431,0.3477,0.3461,-88.9500,-45.3000,35.5500,-4.5600,-2.4800,-8.3900,-0.0796,-0.1167,0.0785,63.6875,-10.7500,33.2500,131.0625,-26.1250,163.3750,0
1776973192.662,9.6917,0.2227,1.5443,-0.3035,0.3421,0.5745,-82.5000,-15.4500,0.9000,9.3805,-0.1365,1.2857,-0.5367,0.3608,0.3587,-87.6000,-45.9000,35.4000,-4.5400,-2.5200,-8.3400,-0.0753,-0.0840,0.0742,63.6875,-10.7500,33.2500,131.1250,-26.1875,163.4375,0
1776973192.667,9.6917,0.2227,1.5443,-0.3035,0.3421,0.5745,-81.1500,-14.8500,1.3500,9.6750,-0.1700,1.1756,-0.5894,0.3762,0.3568,-88.0500,-45.1500,34.3500,-4.5400,-2.5200,-8.3400,-0.0753,-0.0840,0.0742,63.6875,-10.7500,33.2500,131.1250,-26.2500,163.5000,0
1776973192.672,9.6295,0.2394,1.2330,-0.2731,0.3515,0.5801,-81.1500,-14.8500,1.3500,9.6750,-0.1700,1.1756,-0.5894,0.3762,0.3568,-88.2000,-46.5000,34.3500,-4.3900,-2.5900,-8.2800,-0.0807,-0.0774,0.0600,63.5625,-10.6875,33.0000,131.1250,-26.2500,163.5000,0
1776973192.677,9.6295,0.2394,1.2330,-0.2731,0.3515,0.5801,-83.1000,-17.5500,1.8000,9.8593,-0.0646,1.0319,-0.6283,0.3691,0.3413,-88.2000,-46.5000,36.3000,-4.3900,-2.5900,-8.2800,-0.0807,-0.0774,0.0600,63.5625,-10.6875,33.0000,131.1250,-26.3125,163.5625,0
1776973192.682,9.6462,0.7757,1.4030,-0.3158,0.3349,0.6017,-83.1000,-17.5500,1.8000,9.8593,-0.0646,1.0319,-0.6283,0.3691,0.3413,-88.0500,-46.6500,34.9500,-4.3700,-2.6500,-8.2600,-0.0709,-0.0851,0.0611,63.5625,-10.6875,33.0000,131.1250,-26.3125,163.5625,0
1776973192.687,9.6462,0.7757,1.4030,-0.3158,0.3349,0.6017,-80.5500,-15.7500,0.1500,9.9335,0.2825,0.9242,-0.5676,0.3445,0.3011,-88.0500,-46.6500,34.9500,-4.3700,-2.6500,-8.2600,-0.0709,-0.1004,0.0698,63.5625,-10.6875,33.0000,131.1875,-26.3750,163.6250,0
1776973192.693,9.6223,0.9840,1.2546,-0.3371,0.3347,0.6283,-80.5500,-15.7500,0.1500,9.9335,0.2825,0.9242,-0.5676,0.3445,0.3011,-88.0500,-46.6500,34.9500,-4.4300,-2.5200,-8.3300,-0.0709,-0.1004,0.0698,63.5625,-10.6875,33.0000,131.1875,-26.3750,163.6250,0
1776973192.702,9.4044,0.7470,0.8164,-0.3248,0.3603,0.6544,-82.2000,-16.2000,1.6500,9.7636,0.3543,0.9936,-0.5854,0.3107,0.2553,-88.0500,-46.6500,34.9500,-4.4500,-2.5600,-8.3100,-0.0818,-0.1047,0.0665,63.5625,-10.6875,33.0000,131.1875,-26.4375,163.6250,0
1776973192.707,9.4044,0.7470,0.8164,-0.3248,0.3603,0.6544,-82.2000,-16.2000,1.6500,9.6486,0.7183,0.8906,-0.5790,0.2878,0.2065,-85.9500,-47.2500,35.8500,-4.4500,-2.5600,-8.3100,-0.0829,-0.1167,0.0665,63.5625,-10.6875,33.0000,131.1875,-26.5000,163.6875,0
1776973192.713,9.5241,0.4262,1.2905,-0.4098,0.3850,0.6917,-82.2000,-16.2000,1.6500,9.6486,0.7183,0.8906,-0.5790,0.2878,0.2065,-88.2000,-46.8000,35.5500,-4.4300,-2.6500,-8.2700,-0.0829,-0.1167,0.0665,63.5625,-10.6875,33.0000,131.1875,-26.5000,163.6875,0
1776973192.718,9.4643,0.7230,0.8691,-0.5193,0.3858,0.7312,-81.9000,-15.6000,2.8500,9.4739,0.9864,0.8978,-0.5817,0.2862,0.1628,-88.2000,-46.8000,35.5500,-4.4100,-2.5000,-8.3700,-0.0840,-0.1189,0.0709,64.0000,-10.6875,31.8750,131.1875,-26.5625,163.7500,0
1776973192.723,9.4643,0.7230,0.8691,-0.5193,0.3858,0.7312,-81.9000,-15.6000,2.8500,9.4739,0.9864,0.8978,-0.5817,0.2862,0.1628,-87.9000,-46.8000,34.8000,-4.4100,-2.5000,-8.3700,-0.0840,-0.1189,0.0709,64.0000,-10.6875,31.8750,131.1875,-26.5625,163.7500,0
1776973192.728,9.4667,0.6464,0.8691,-0.5375,0.4258,0.7746,-81.0000,-16.5000,1.6500,9.5193,1.2857,0.9290,-0.6805,0.3421,0.1260,-87.9000,-46.8000,34.8000,-4.4100,-2.5000,-8.3700,-0.0949,-0.1069,0.0753,64.0000,-10.6875,31.8750,131.2500,-26.6250,163.8125,0
1776973192.733,9.4667,0.6464,0.8691,-0.5375,0.4258,0.7746,-81.0000,-16.5000,1.6500,9.5193,1.2857,0.9290,-0.6805,0.3421,0.1260,-85.8000,-46.6500,35.7000,-4.5200,-2.5000,-8.3700,-0.0949,-0.1069,0.0753,64.0000,-10.6875,31.8750,131.2500,-26.6250,163.8125,0
1776973192.738,9.4379,0.6273,0.9337,-0.6113,0.4378,0.8263,-80.4000,-19.0500,2.5500,9.4212,1.4820,0.5986,-0.7056,0.3272,0.1098,-85.8000,-46.6500,35.7000,-4.5200,-2.5000,-8.3700,-0.0960,-0.1156,0.0753,64.0000,-10.6875,31.8750,131.2500,-26.6875,163.8750,0
1776973192.743,9.4379,0.6273,0.9337,-0.6113,0.4378,0.8263,-80.4000,-19.0500,2.5500,9.4212,1.4820,0.5986,-0.7056,0.3272,0.1098,-85.8000,-46.6500,35.7000,-4.5600,-2.4300,-8.3600,-0.0960,-0.1156,0.0753,64.0000,-10.6875,31.8750,131.2500,-26.6875,163.8750,0
1776973192.752,9.3637,0.7470,0.5171,-0.6861,0.4514,0.8799,-82.3500,-17.1000,0.6000,9.2536,1.5275,0.4764,-0.8159,0.3038,0.1039,-85.8000,-46.6500,35.7000,-4.5200,-2.4600,-8.3500,-0.0971,-0.1145,0.0720,64.0000,-10.6875,31.8750,131.2500,-26.8125,163.9375,0
1776973192.757,9.5624,0.7901,1.3384,-0.6933,0.4684,0.9193,-81.9000,-19.5000,2.1000,9.2703,1.7573,0.5387,-0.9792,0.2960,0.1130,-85.8000,-46.6500,35.7000,-4.5200,-2.4600,-8.3500,-0.1025,-0.1080,0.0709,64.0000,-10.6875,31.8750,131.3125,-26.8750,164.0000,0
1776973192.763,9.5624,0.7901,1.3384,-0.6933,0.4684,0.9193,-81.9000,-19.5000,2.1000,9.2703,1.7573,0.5387,-1.1383,0.2419,0.1271,-89.2500,-49.8000,35.8500,-4.6200,-2.3700,-8.3100,-0.1025,-0.1080,0.0709,64.0000,-10.6875,31.8750,131.3125,-26.8750,164.0000,0
1776973192.768,9.5912,1.0032,1.3072,-0.6611,0.4978,0.9542,-80.4000,-19.0500,2.1000,9.3877,1.6712,0.7781,-1.1383,0.2419,0.1271,-89.2500,-49.8000,35.8500,-4.6200,-2.3700,-8.3100,-0.1025,-0.1080,0.0709,63.5625,-11.5000,32.2500,131.3125,-26.9375,164.0625,0
1776973192.773,9.5912,1.0032,1.3072,-0.6611,0.4978,0.9542,-80.4000,-19.0500,2.1000,9.3877,1.7071,1.3408,-1.2732,0.1990,0.1463,-87.6000,-47.4000,36.7500,-4.4400,-2.5900,-8.3600,-0.1102,-0.0971,0.0665,63.5625,-11.5000,32.2500,131.3125,-26.9375,164.0625,0
1776973192.778,9.7109,0.7614,1.8938,-0.4858,0.5148,0.9995,-80.4000,-19.0500,2.1000,9.3877,1.7071,1.3408,-1.2732,0.1990,0.1463,-87.6000,-47.4000,36.7500,-4.4400,-2.5900,-8.3600,-0.1102,-0.0971,0.0665,63.5625,-11.5000,32.2500,131.3125,-27.0000,164.1875,0
1776973192.783,9.7109,0.7614,1.8938,-0.4858,0.5148,0.9995,-80.4000,-19.0500,2.1000,9.3948,1.6281,1.9082,-1.4112,0.1330,0.1668,-88.2000,-48.3000,35.5500,-4.6000,-2.3500,-8.4200,-0.1320,-0.0894,0.0644,63.5625,-11.5000,32.2500,131.3125,-27.0000,164.1875,0
1776973192.788,9.9240,0.5962,2.2410,-0.3765,0.5169,1.0501,-80.1000,-20.7000,2.1000,9.3948,1.6281,1.9082,-1.4112,0.1330,0.1668,-88.2000,-48.3000,35.5500,-4.6000,-2.3500,-8.4200,-0.1473,-0.0709,0.0622,63.5625,-11.5000,32.2500,131.3125,-27.0625,164.2500,0
1776973192.793,9.9240,0.5962,2.2410,-0.3765,0.5169,1.0501,-80.1000,-20.7000,2.1000,9.5744,1.5131,2.4900,-1.5330,0.0621,0.1929,-87.4500,-47.5500,34.8000,-4.6100,-2.3100,-8.4500,-0.1473,-0.0709,0.0622,63.5625,-11.5000,32.2500,131.3125,-27.0625,164.2500,0
1776973192.802,10.0149,0.7159,2.5091,-0.3043,0.4818,1.0797,-80.1000,-20.7000,2.1000,9.6534,1.3168,3.1244,-1.6918,0.0157,0.2068,-87.4500,-47.5500,34.8000,-4.5300,-2.2500,-8.5800,-0.1680,-0.0393,0.0491,63.5625,-11.5000,32.2500,131.3125,-27.0625,164.3750,0
1776973192.807,10.0556,0.3855,2.3798,-0.2579,0.5052,1.1237,-80.1000,-22.2000,3.3000,9.6534,1.3168,3.1244,-1.6918,0.0157,0.2068,-87.4500,-47.5500,34.8000,-4.5300,-2.2500,-8.5800,-0.1342,0.0011,0.0491,63.5625,-11.5000,32.2500,131.3125,-27.0625,164.4375,0
1776973192.813,10.2496,0.1604,2.5642,-0.2579,0.5052,1.1237,-80.1000,-22.2000,3.3000,9.8162,1.3862,3.7254,-1.4975,-0.0051,0.1847,-86.5500,-48.9000,33.9000,-4.5300,-2.4400,-8.5300,-0.1342,0.0011,0.0491,63.5625,-11.5000,32.2500,131.3125,-27.0625,164.4375,0
1776973192.818,10.2496,0.1604,2.5642,-0.2795,0.4858,1.1644,-79.6500,-22.6500,3.6000,9.8162,1.3862,3.7254,-1.4975,-0.0051,0.1847,-86.5500,-48.9000,33.9000,-4.5300,-2.4400,-8.5300,-0.1309,0.0273,0.0458,64.2500,-12.5000,31.8750,131.3750,-27.0625,164.5000,0
1776973192.823,10.2280,-0.1748,2.3679,-0.2795,0.4858,1.1644,-79.6500,-22.6500,3.6000,9.9623,1.4054,3.6559,-1.3912,-0.0029,0.1503,-87.0000,-46.2000,32.5500,-4.4800,-2.7100,-8.5000,-0.1309,0.0273,0.0458,64.2500,-12.5000,31.8750,131.3750,-27.0625,164.5000,0
1776973192.828,10.2280,-0.1748,2.3679,-0.3477,0.4780,1.1983,-78.1500,-22.6500,2.8500,9.9623,1.4054,3.6559,-1.3912,-0.0029,0.1503,-87.0000,-46.2000,32.5500,-4.4800,-2.7100,-8.5000,-0.1909,0.1320,0.0524,64.2500,-12.5000,31.8750,131.3750,-27.0000,164.6250,0
1776973192.833,10.3430,-0.4166,1.6999,-0.4082,0.4426,1.2409,-78.1500,-22.6500,2.8500,9.8186,1.4365,3.9241,-0.9382,-0.0077,0.0863,-85.6500,-46.5000,30.9000,-4.5300,-2.5800,-8.5200,-0.1909,0.1320,0.0524,64.2500,-12.5000,31.8750,131.3750,-27.0000,164.6250,0
1776973192.838,10.3430,-0.4166,1.6999,-0.4082,0.4426,1.2409,-79.5000,-24.4500,4.2000,9.8186,1.4365,3.9241,-0.9382,-0.0077,0.0863,-85.6500,-46.5000,30.9000,-4.5300,-2.5800,-8.5200,-0.2334,0.2793,0.0665,64.2500,-12.5000,31.8750,131.3750,-26.8750,164.8125,0
1776973192.843,10.5752,-0.7470,0.6033,-0.4831,0.4455,1.2865,-79.5000,-24.4500,4.2000,10.6734,1.6712,3.2346,-0.6619,0.0738,0.0171,-84.7500,-47.4000,30.7500,-4.5000,-2.8100,-8.5500,-0.2334,0.2793,0.0665,64.2500,-12.5000,31.8750,131.4375,-26.6875,165.0000,0
1776973192.853,10.4555,-1.0415,0.0431,-0.5033,0.4495,1.3403,-78.7500,-24.4500,3.0000,10.4842,1.4940,2.8036,-0.3651,0.0687,-0.0490,-85.3500,-45.0000,31.9500,-4.1900,-2.5800,-9.0500,-0.2345,0.3643,0.1058,64.2500,-12.5000,31.8750,131.5625,-26.7500,165.1250,0
1776973192.862,10.4914,-0.3065,0.5459,-0.5380,0.4636,1.3856,-78.3000,-24.4500,6.0000,10.2185,1.4772,1.7669,-0.0650,0.0354,-0.0722,-85.3500,-45.0000,31.9500,-4.1900,-2.4500,-8.8700,-0.1440,-0.0142,0.2334,64.2500,-12.5000,31.8750,131.5625,-26.7500,165.1250,0
1776973192.867,10.4914,-0.3065,0.5459,-0.5380,0.4636,1.3856,-78.3000,-24.4500,6.0000,10.2185,1.4772,1.7669,-0.0650,0.0354,-0.0722,-85.3500,-45.0000,31.9500,-4.1900,-2.4500,-8.8700,-0.1440,-0.0142,0.2334,64.2500,-12.5000,31.8750,131.5625,-26.7500,165.1250,0
1776973192.872,10.3382,0.2251,0.9002,-0.4924,0.4948,1.4104,-78.3000,-24.4500,6.0000,10.2065,1.5155,0.8978,0.0306,-0.0061,-0.1015,-84.1500,-42.0000,30.1500,-3.8600,-2.5300,-9.2100,-0.2978,-0.1145,0.2443,64.2500,-12.1875,31.8750,131.6250,-26.8125,165.3750,0
1776973192.877,10.3382,0.2251,0.9002,-0.4924,0.4948,1.4104,-78.3000,-24.4500,6.0000,10.2065,1.5155,0.8978,0.0306,-0.0061,-0.1015,-84.1500,-42.0000,30.1500,-3.8600,-2.5300,-9.2100,-0.2978,-0.1145,0.2443,64.2500,-12.1875,31.8750,131.6250,-26.8125,165.3750,0
1776973192.882,10.4651,0.1269,1.4772,-0.3267,0.5313,1.4546,-76.5000,-26.7000,4.5000,10.2376,1.4102,0.3567,0.0645,-0.0616,-0.1447,-82.8000,-40.0500,30.1500,-3.6700,-2.6600,-9.4000,-0.4832,-0.1494,0.2640,64.2500,-12.1875,31.8750,131.6875,-26.9375,165.6875,0
1776973192.890,10.7188,-0.2921,1.4509,-0.3267,0.5313,1.4546,-77.7000,-27.3000,5.8500,10.5273,1.1827,0.1963,-0.0509,-0.1204,-0.2012,-84.0000,-42.1500,30.7500,-3.6000,-2.9800,-9.5300,-0.5803,-0.3283,0.3512,64.2500,-12.1875,31.8750,131.8125,-27.1875,166.1250,0
1776973192.895,10.7188,-0.2921,1.4509,-0.1569,0.5748,1.4871,-77.7000,-27.3000,5.8500,10.5273,1.1827,0.1963,-0.0509,-0.1204,-0.2012,-84.0000,-42.1500,30.7500,-3.6000,-2.9800,-9.5300,-0.5803,-0.3283,0.3512,64.2500,-12.1875,31.8750,131.9375,-27.5000,166.5000,0
1776973192.903,11.2719,-1.2953,1.2306,-0.1194,0.6078,1.5220,-77.5500,-27.9000,5.2500,11.1666,0.9625,0.2011,-0.1639,-0.2388,-0.2795,-83.1000,-41.5500,29.5500,-3.5900,-3.4000,-9.7100,-0.5738,-0.5029,0.4407,64.2500,-12.1875,31.8750,132.1250,-27.9375,166.8125,0
1776973192.913,12.0931,-1.9824,0.5674,-0.1202,0.6443,1.5764,-76.0500,-28.6500,5.2500,12.0213,1.0104,0.0527,-0.2156,-0.3539,-0.3717,-83.1000,-41.5500,29.5500,-3.5000,-3.1700,-9.8500,-0.4374,-0.7156,0.4887,64.2500,-12.1875,31.8750,132.1250,-27.9375,166.8125,0
1776973192.918,12.0931,-1.9824,0.5674,-0.1202,0.6443,1.5764,-75.9000,-29.2500,5.2500,12.0213,1.0104,0.0527,-0.2156,-0.3539,-0.3717,-83.1000,-41.5500,29.5500,-3.5000,-3.1700,-9.8500,-0.4374,-0.7156,0.4887,64.2500,-12.1875,31.8750,132.1250,-27.9375,166.8125,0
1776973192.923,12.7491,-2.0375,0.1125,-0.2113,0.6512,1.6385,-75.9000,-29.2500,6.6000,12.6127,1.3001,-0.3232,-0.2513,-0.4855,-0.4735,-83.1000,-42.0000,28.8000,-3.0500,-2.9800,-10.4000,-0.3447,-1.1388,0.5432,64.0000,-13.5625,33.0625,132.3125,-28.6250,167.1250,0
1776973192.928,12.7491,-2.0375,0.1125,-0.2113,0.6512,1.6385,-75.9000,-29.2500,6.6000,12.6127,1.3001,-0.3232,-0.3086,-0.5809,-0.5830,-83.1000,-42.0000,28.8000,-3.0500,-2.9800,-10.4000,-0.3447,-1.1388,0.5432,64.0000,-13.5625,33.0625,132.3125,-28.6250,167.1250,0
1776973192.933,12.8976,-1.2905,-0.7685,-0.2478,0.6925,1.7347,-75.4500,-30.4500,8.1000,12.2439,1.5610,-0.6632,-0.3086,-0.5809,-0.5830,-85.6500,-42.7500,29.1000,-3.4700,-1.7600,-10.2100,-0.3829,-1.5043,0.6360,64.0000,-13.5625,33.0625,132.5000,-29.5000,167.4375,0
1776973192.938,12.8976,-1.2905,-0.7685,-0.2478,0.6925,1.7347,-75.4500,-30.4500,8.1000,12.2439,1.5610,-0.6632,-0.3584,-0.6419,-0.7032,-85.6500,-42.7500,29.1000,-3.4700,-1.7600,-10.2100,-0.3687,-1.8599,0.7407,64.0000,-13.5625,33.0625,132.7500,-30.6250,167.7500,0
1776973192.943,13.3692,-0.6823,-1.8340,-0.3635,0.7488,1.8242,-75.4500,-30.4500,8.1000,11.5808,2.0231,-1.1995,-0.3584,-0.6419,-0.7032,-85.3500,-45.0000,29.1000,-3.2900,-1.6000,-10.4900,-0.3687,-1.8599,0.7407,64.0000,-13.5625,33.0625,133.0000,-31.9375,168.0000,0
1776973192.953,13.5105,-0.1077,-2.3966,-0.5076,0.7997,1.8615,-75.4500,-31.9500,6.6000,11.0780,2.0494,-1.6448,-0.3339,-0.7024,-0.8111,-87.1500,-46.0500,28.0500,-3.4400,-0.8100,-10.9100,-0.2705,-2.3278,0.8050,64.0000,-13.5625,33.0625,133.3750,-33.6250,168.1250,0
1776973192.963,13.1106,0.2035,-2.7294,-0.5409,0.8849,1.8834,-75.4500,-31.9500,6.6000,10.3621,1.8004,-2.6408,-0.0509,-0.7645,-0.9286,-86.7000,-46.0500,25.6500,-3.5700,-2.3500,-10.6300,-0.0513,-2.8700,0.8781,64.0000,-13.5625,33.0625,133.3750,-33.6250,168.1250,0
1776973192.968,12.7132,0.1867,-3.3327,-0.6939,0.9827,1.8972,-75.4500,-31.9500,6.6000,10.4483,1.9010,-2.4948,0.4996,-0.7799,-1.0531,-86.7000,-46.0500,25.6500,-3.5700,-2.3500,-10.6300,-0.0513,-2.8700,0.8781,64.0000,-13.5625,33.0625,133.8125,-35.5000,168.1875,0
1776973192.973,12.7132,0.1867,-3.3327,-0.6939,0.9827,1.8972,-73.0500,-32.2500,6.7500,10.4483,1.9010,-2.4948,0.4996,-0.7799,-1.0531,-86.7000,-46.0500,25.6500,-2.8900,-2.7900,-11.4800,0.1538,-3.2670,1.0756,65.0625,-14.7500,32.6875,133.8125,-35.5000,168.1875,0
1776973192.978,12.3541,-0.1245,-2.5426,-0.7935,1.0754,1.8500,-73.0500,-32.2500,6.7500,10.8314,1.6089,-3.5314,1.0597,-1.0653,-1.2049,-87.9000,-49.5000,24.9000,-2.8900,-2.7900,-11.4800,0.1538,-3.2670,1.0756,65.0625,-14.7500,32.6875,134.4375,-37.6250,168.3750,0
1776973192.983,12.3541,-0.1245,-2.5426,-0.7935,1.0754,1.8500,-73.8000,-33.0000,6.4500,10.8314,1.6089,-3.5314,1.0597,-1.0653,-1.2049,-87.9000,-49.5000,24.9000,-4.2000,-5.0600,-9.1400,0.1669,-3.6117,1.4508,65.0625,-14.7500,32.6875,134.4375,-37.6250,168.3750,0
1776973192.991,11.9566,-0.0646,-2.0566,-0.8124,1.1487,1.7946,-72.9000,-33.1500,4.8000,10.9487,0.8571,-3.5769,1.0453,-1.5290,-1.3137,-89.7000,-50.2500,23.8500,-3.8500,-4.1200,-10.5400,-0.2411,-3.8277,1.7628,65.0625,-14.7500,32.6875,135.1875,-39.9375,168.9375,0
1776973192.996,11.9638,-0.2801,-1.1420,-0.8124,1.1487,1.7946,-72.9000,-33.1500,4.8000,10.7404,0.5124,-3.1747,0.9806,-1.8269,-1.2777,-89.7000,-50.2500,23.8500,-3.8500,-4.1200,-10.5400,-0.2411,-3.8277,1.7628,65.0625,-14.7500,32.6875,136.1250,-42.4375,169.8125,0
1776973193.003,11.9638,-0.2801,-1.1420,-0.8468,1.1746,1.7272,-71.1000,-35.4000,6.0000,10.7404,0.5124,-3.1747,0.9806,-1.8269,-1.2777,-91.0500,-49.5000,21.3000,-5.1800,-4.1300,-10.2800,-0.3851,-4.1822,2.1500,65.0625,-14.7500,32.6875,155.0625,-45.1250,170.8750,0
1776973193.013,11.9255,-0.4405,0.1915,-0.9262,1.1365,1.6353,-71.1000,-36.4500,6.4500,10.7548,0.5411,-2.5091,0.8873,-1.8418,-1.2681,-91.3500,-48.1500,21.1500,-5.8500,-3.6900,-10.6900,-0.4080,-4.5149,2.4478,65.0625,-14.7500,32.6875,155.0625,-45.1250,170.8750,0
1776973193.018,11.5688,-1.5778,2.3415,-0.9355,1.0541,1.5319,-71.1000,-36.4500,6.4500,11.4132,0.3591,-1.7597,0.4756,-1.9161,-1.3118,-91.3500,-48.1500,21.1500,-5.8500,-3.6900,-10.6900,-0.4080,-4.5149,2.4478,65.0625,-14.7500,32.6875,155.0625,-45.1250,170.8750,0
1776973193.023,11.5688,-1.5778,2.3415,-0.9355,1.0541,1.5319,-70.0500,-36.1500,4.9500,11.4132,0.3591,-1.7597,0.4756,-1.9161,-1.3118,-91.3500,-48.1500,21.1500,-6.7900,-2.6500,-10.8300,-0.2313,-4.8182,2.5787,68.3750,-16.5625,25.1875,152.5000,-48.0000,172.1250,0
1776973193.028,10.8266,-3.0167,3.5458,-0.8212,1.1117,1.4613,-70.0500,-36.1500,4.9500,11.5065,-0.0886,-0.5028,0.1823,-1.8471,-1.3931,-90.9000,-45.1500,19.0500,-6.7900,-2.6500,-10.8300,-0.2313,-4.8182,2.5787,68.3750,-16.5625,25.1875,152.5000,-48.0000,172.1250,0
1776973193.033,10.8266,-3.0167,3.5458,-0.8212,1.1117,1.4613,-70.0500,-36.1500,4.9500,11.5065,-0.0886,-0.5028,0.1823,-1.8471,-1.3931,-90.9000,-45.1500,19.0500,-10.0700,-2.6300,-11.2200,0.1734,-5.0647,2.5405,68.3750,-16.5625,25.1875,150.6250,-50.9375,173.2500,0
1776973193.038,10.3884,-4.1587,3.9911,-0.7525,1.2057,1.4418,-70.0500,-36.1500,4.9500,12.2368,-1.0008,0.7709,-0.1055,-1.8426,-1.4917,-89.2500,-46.5000,18.4500,-10.0700,-2.6300,-11.2200,0.4832,-5.1487,2.4195,68.3750,-16.5625,25.1875,149.3750,-53.9375,174.3125,0
1776973193.044,9.9455,-5.2505,3.7685,-0.7525,1.2057,1.4418,-70.5000,-38.7000,4.3500,12.2368,-1.0008,0.7709,-0.3139,-1.6974,-1.5889,-89.2500,-46.5000,18.4500,-11.4700,-3.7900,-11.1500,0.4832,-5.1487,2.4195,68.3750,-16.5625,25.1875,148.4375,-56.8125,175.3750,0
1776973193.053,9.6103,-7.1587,3.5961,-0.7690,1.3656,1.4655,-69.0000,-37.5000,4.3500,12.3613,-1.4796,1.3096,-0.3139,-1.6974,-1.5889,-90.0000,-45.3000,17.4000,-12.7400,-4.3800,-11.4200,0.6534,-4.9796,2.2940,68.3750,-16.5625,25.1875,148.4375,-56.8125,175.3750,0
1776973193.063,9.1506,-9.1889,5.0494,-0.7994,1.5100,1.4682,-68.8500,-38.5500,4.9500,12.4882,-2.0183,1.1420,-0.6659,-1.5188,-1.6390,-88.0500,-43.2000,16.8000,-10.7900,-5.8200,-9.5400,0.8301,-4.4713,2.2591,68.3750,-16.5625,25.1875,147.8125,-59.3125,176.6875,0
1776973193.068,9.1506,-9.1889,5.0494,-0.6979,1.6457,1.3627,-68.8500,-38.5500,4.9500,12.4882,-2.9544,1.6400,-0.9116,-1.4186,-1.5772,-90.4500,-44.2500,17.1000,-10.7900,-5.8200,-9.5400,0.8301,-4.4713,2.2591,68.3750,-16.5625,25.1875,147.8125,-59.3125,176.6875,0
1776973193.073,9.3111,-11.7651,7.7931,-0.6979,1.6457,1.3627,-67.6500,-39.3000,5.2500,12.4882,-2.9544,1.6400,-1.1263,-1.2177,-1.3925,-90.4500,-44.2500,17.1000,-7.8400,-4.8800,-8.7600,0.9098,-3.9695,2.3027,70.5000,-24.2500,15.7500,147.3125,-61.6250,178.2500,0
1776973193.078,9.3111,-11.7651,7.7931,-0.2233,1.7056,1.0251,-67.6500,-39.3000,5.2500,13.5823,-4.6998,2.3343,-1.1263,-1.2177,-1.3925,-90.4500,-44.2500,17.1000,-7.8400,-4.8800,-8.7600,0.9098,-3.9695,2.3027,70.5000,-24.2500,15.7500,147.3125,-61.6250,178.2500,0
1776973193.083,7.0413,-8.2265,7.1778,-0.2233,1.7056,1.0251,-67.3500,-40.0500,6.0000,13.1921,-5.3822,3.2322,-1.2894,-1.2982,-1.2891,-90.4500,-44.2500,17.1000,-4.4700,-3.4100,-7.6600,0.9730,-3.6674,2.4500,70.5000,-24.2500,15.7500,146.8125,-63.6250,-179.6250,0
1776973193.089,7.0413,-8.2265,7.1778,0.1892,1.4272,0.6339,-67.3500,-40.0500,6.0000,13.1921,-5.3822,3.2322,-1.2894,-1.2982,-1.2891,-86.7000,-43.0500,18.4500,-4.2600,-2.6100,-6.2000,1.1770,-3.6128,2.5885,70.5000,-24.2500,15.7500,146.4375,-65.6250,-177.1250,0
1776973193.094,5.2912,-6.9743,4.4245,-0.7530,1.2564,0.4599,-66.6000,-40.0500,5.7000,12.1410,-4.6974,2.7653,-1.6918,-1.3046,-1.3019,-86.7000,-43.0500,18.4500,-4.2600,-2.6100,-6.2000,1.1770,-3.6128,2.5885,70.5000,-24.2500,15.7500,146.2500,-67.3750,-174.2500,0
1776973193.103,5.3654,-6.4069,5.4564,-1.0565,0.9422,0.2356,-66.6000,-40.0500,5.7000,11.8417,-4.1803,2.6504,-2.0206,-1.1807,-1.3528,-88.0500,-43.2000,18.6000,1.4100,0.4100,-5.1200,1.3799,-3.3401,2.6474,70.5000,-24.2500,15.7500,146.2500,-67.3750,-174.2500,0
1776973193.113,3.2872,-6.7133,6.5864,-0.9324,0.4258,-0.0107,-65.5500,-39.4500,5.5500,11.4179,-3.5314,2.0614,-2.0656,-1.0965,-1.3624,-89.2500,-45.0000,20.2500,-10.3700,-1.0100,-7.4600,1.6308,-2.3518,2.1129,70.5000,-24.2500,15.7500,146.5000,-68.5000,-171.8750,0
1776973193.118,3.2872,-6.7133,6.5864,-0.9324,0.4258,-0.0107,-65.5500,-39.4500,5.5500,11.4179,-3.5314,2.0614,-2.0656,-1.0965,-1.3624,-88.2000,-45.3000,19.5000,-10.3700,-1.0100,-7.4600,1.6308,-2.3518,2.1129,70.5000,-24.2500,15.7500,146.5000,-68.5000,-171.8750,0
1776973193.123,2.6791,-5.4420,6.8043,-1.0333,0.3395,-0.3003,-65.5500,-39.4500,5.5500,10.8481,-2.7557,1.1109,-2.0102,-1.2412,-1.3656,-88.2000,-45.3000,19.5000,-13.4400,-7.6200,-12.1200,2.2733,-0.1898,1.1988,67.3750,-27.5000,9.5000,147.6875,-68.5000,-171.4375,0
1776973193.128,2.6791,-5.4420,6.8043,-1.0333,0.3395,-0.3003,-65.5500,-39.4500,5.5500,10.8481,-2.7557,1.1109,-2.0102,-1.2412,-1.3656,-88.2000,-45.3000,19.5000,-13.4400,-7.6200,-12.1200,2.2733,-0.1898,1.1988,67.3750,-27.5000,9.5000,147.6875,-68.5000,-171.4375,0
1776973193.133,2.9161,-4.3598,4.9871,-1.3552,0.0288,-0.7149,-66.6000,-39.3000,2.7000,10.5896,-1.9273,0.8571,-2.0243,-1.1703,-1.3520,-88.2000,-45.3000,19.5000,-2.7900,-10.5000,-8.6600,2.2406,1.4214,0.5203,67.3750,-27.5000,9.5000,149.1875,-67.6875,-172.2500,0
1776973193.138,2.9161,-4.3598,4.9871,-1.3552,0.0288,-0.7149,-66.6000,-39.3000,2.7000,10.5896,-1.9273,0.8571,-2.0243,-1.1703,-1.3520,-88.2000,-45.3000,19.5000,-2.7900,-10.5000,-8.6600,1.4617,2.0671,0.1571,67.3750,-27.5000,9.5000,150.1875,-66.5625,-173.1875,0
1776973193.144,2.7821,-3.2082,3.1747,-1.7770,-0.1783,-1.2033,-66.9000,-38.5500,1.9500,9.8569,-1.0319,0.5148,-2.0054,-1.0885,-1.3526,-88.2000,-45.3000,19.5000,0.5200,-10.6500,-5.3600,1.4617,2.0671,0.1571,67.3750,-27.5000,9.5000,150.3750,-65.3125,-173.6250,0
1776973193.153,2.3008,-2.9736,2.3128,-1.9089,-0.3160,-1.6041,-68.2500,-37.5000,1.0500,9.1051,-0.0599,0.3424,-2.0387,-0.9289,-1.3272,-92.5500,-42.0000,22.3500,1.0800,-8.3400,-4.6700,0.3971,2.2024,0.0622,67.3750,-27.5000,9.5000,150.1250,-64.0625,-173.8125,0
1776973193.163,2.3439,-3.6129,2.5283,-1.4845,-0.4317,-1.9412,-68.7000,-37.9500,-0.6000,8.6957,0.6991,0.4453,-1.9939,-0.8386,-1.2468,-92.4000,-42.9000,22.2000,-0.3500,-2.6900,-5.1300,-0.2465,2.2624,-0.0524,67.3750,-27.5000,9.5000,150.1250,-64.0625,-173.8125,0
1776973193.168,2.3439,-3.6129,2.5283,-1.4845,-0.4317,-1.9412,-68.7000,-37.9500,-0.6000,8.6957,0.6991,0.4453,-1.9939,-0.8386,-1.2468,-93.4500,-42.4500,22.2000,-0.3500,-2.6900,-5.1300,-0.2465,2.2624,-0.0524,67.3750,-27.5000,9.5000,150.1250,-64.0625,-173.8125,0
1776973193.173,2.8347,-4.0965,2.9305,-0.8143,-0.5113,-2.2100,-68.7000,-37.9500,-0.6000,8.2337,1.2019,0.2777,-1.9281,-0.5910,-1.1671,-93.0000,-40.0500,22.2000,-0.7400,-1.3400,-5.0400,-0.2858,2.4456,-0.2978,62.0000,-28.6875,15.6875,149.9375,-62.7500,-174.3125,0
1776973193.178,3.4357,-3.7493,2.3846,-0.8143,-0.5113,-2.2100,-68.7000,-37.9500,-0.6000,8.2337,1.2019,0.2777,-1.9281,-0.5910,-1.1671,-93.0000,-40.0500,23.1000,-0.7400,-1.3400,-5.0400,-0.2858,2.4456,-0.2978,62.0000,-28.6875,15.6875,149.9375,-62.7500,-174.3125,0
1776973193.183,3.4357,-3.7493,2.3846,-0.5169,-0.5854,-2.3603,-69.7500,-36.0000,-1.3500,8.0804,1.5251,-0.0455,-1.5633,-0.3472,-1.0789,-93.0000,-40.0500,23.1000,-0.5600,-0.8600,-4.7600,0.0109,2.7522,-0.5781,62.0000,-28.6875,15.6875,150.1250,-61.2500,-175.1875,0
1776973193.191,4.1515,-3.7924,0.6081,-0.6185,-0.6587,-2.4365,-69.7500,-36.0000,-1.3500,7.5633,1.4126,0.0814,-1.3334,-0.2097,-1.0472,-93.0000,-40.0500,23.1000,-0.3000,-1.2600,-4.3700,0.3807,2.9616,-0.8279,62.0000,-28.6875,15.6875,150.8125,-59.6250,-176.3750,0
1776973193.196,4.1515,-3.7924,0.6081,-0.6185,-0.6587,-2.4365,-69.7500,-36.0000,-1.3500,7.5633,1.4126,0.0814,-1.3334,-0.2097,-1.0472,-93.3000,-39.3000,24.9000,-0.3000,-1.2600,-4.3700,0.3807,2.9616,-0.8279,62.0000,-28.6875,15.6875,152.0000,-58.0000,-177.8750,0
1776973193.204,4.8554,-3.8666,2.4157,-0.4154,-0.7357,-2.5079,-73.2000,-34.3500,-1.8000,7.8003,1.1133,0.7829,-1.1916,0.0250,-0.9635,-92.7000,-39.1500,24.7500,-0.1700,-1.1000,-4.4900,0.6796,3.0227,-1.0439,62.0000,-28.6875,15.6875,153.5625,-56.3750,-179.5000,0
1776973193.213,5.2026,-3.7182,2.3727,-0.3613,-0.8551,-2.6420,-73.8000,-34.2000,-1.6500,8.0565,0.9170,1.3838,-0.8772,-0.0357,-0.8212,-91.8000,-37.5000,24.4500,-0.5600,-0.2700,-5.0400,0.9098,2.9725,-1.2141,62.0000,-28.6875,15.6875,153.5625,-56.3750,-179.5000,0
1776973193.218,5.4803,-4.0199,1.7334,-0.3909,-0.8844,-2.7928,-73.8000,-34.2000,-1.6500,8.0206,0.8787,1.4676,-0.5502,-0.2491,-0.6398,-91.8000,-37.5000,24.4500,-0.5600,-0.2700,-5.0400,0.9098,2.9725,-1.2141,62.0000,-28.6875,15.6875,155.5000,-54.7500,178.7500,0
1776973193.223,5.4803,-4.0199,1.7334,-0.3909,-0.8844,-2.7928,-74.7000,-34.0500,-4.3500,8.0206,0.8787,1.4676,-0.5502,-0.2491,-0.6398,-94.0500,-36.0000,25.6500,-1.5800,0.4000,-5.9100,1.1857,2.9485,-1.2785,54.6875,-23.8750,29.1875,155.5000,-54.7500,178.7500,0
1776973193.228,5.8538,-3.9576,1.7358,-0.4000,-1.0501,-2.9114,-74.7000,-34.0500,-4.3500,7.9272,0.8260,1.2977,-0.3413,-0.4034,-0.4543,-94.0500,-36.0000,25.6500,-1.5800,0.4000,-5.9100,1.1857,2.9485,-1.2785,54.6875,-23.8750,29.1875,157.9375,-53.0000,177.1250,0
1776973193.233,5.8538,-3.9576,1.7358,-0.4000,-1.0501,-2.9114,-75.9000,-31.2000,-3.6000,7.9272,0.8260,1.2977,-0.3413,-0.4034,-0.4543,-91.9500,-34.6500,25.0500,-3.3200,0.7600,-7.4800,1.4955,3.0576,-1.2337,54.6875,-23.8750,29.1875,157.9375,-53.0000,177.1250,0
1776973193.238,6.1028,-4.2641,1.6520,-0.4218,-1.1338,-3.0462,-75.9000,-31.2000,-3.6000,7.5010,0.7183,1.2043,-0.1863,-0.5415,-0.2827,-91.9500,-34.6500,25.0500,-3.3200,0.7600,-7.4800,1.7835,3.2299,-1.1181,54.6875,-23.8750,29.1875,160.7500,-51.1875,175.4375,0
1776973193.244,6.1028,-4.2641,1.6520,-0.4218,-1.1338,-3.0462,-77.5500,-31.5000,-4.5000,7.5010,0.7183,1.2043,-0.1863,-0.5415,-0.2827,-91.9500,-34.6500,25.0500,-4.3000,0.9300,-8.2000,1.7835,3.2299,-1.1181,54.6875,-23.8750,29.1875,163.9375,-49.2500,173.9375,0
1776973193.253,6.8690,-4.5514,1.8747,-0.5012,-1.2116,-3.1970,-78.1500,-30.4500,-5.1000,7.3334,0.2610,1.1325,-0.0757,-0.5183,-0.1322,-93.1500,-36.9000,26.8500,-4.6900,0.7700,-8.7100,1.9962,3.4241,-0.9687,54.6875,-23.8750,29.1875,163.9375,-49.2500,173.9375,0
1776973193.263,7.4723,-4.6280,1.6879,-0.6792,-1.3323,-3.3382,-78.1500,-30.4500,-5.1000,7.2281,-0.0287,0.9457,0.0594,-0.5049,-0.0192,-91.3500,-37.2000,26.4000,-4.8600,1.4600,-9.0500,2.0955,3.5681,-0.7418,54.6875,-23.8750,29.1875,167.3750,-47.2500,172.5625,0
1776973193.268,8.0589,-4.8004,1.0846,-0.9585,-1.4381,-3.4315,-78.1500,-30.4500,-5.1000,7.1132,0.0096,0.7230,0.1228,-0.5036,0.0823,-91.3500,-37.2000,26.4000,-4.8600,1.4600,-9.0500,2.0955,3.5681,-0.7418,54.6875,-23.8750,29.1875,170.9375,-45.1875,171.3750,0
1776973193.273,8.0589,-4.8004,1.0846,-0.9585,-1.4381,-3.4315,-81.6000,-27.0000,-8.4000,7.1132,0.0096,0.7230,0.1228,-0.5036,0.0823,-93.4500,-36.9000,26.4000,-5.1900,2.2100,-9.1700,2.1544,3.6161,-0.4331,42.5000,-16.5000,38.0000,170.9375,-45.1875,171.3750,0
1776973193.278,8.9328,-4.9775,0.9529,-1.1530,-1.4741,-3.4400,-81.6000,-27.0000,-8.4000,7.2592,-0.0766,0.3089,0.1282,-0.5622,0.1964,-93.4500,-36.9000,26.4000,-5.1900,2.2100,-9.1700,2.1544,3.6161,-0.4331,42.5000,-16.5000,38.0000,154.7500,-43.2500,170.3750,0
1776973193.283,8.9328,-4.9775,0.9529,-1.1530,-1.4741,-3.4400,-81.6000,-27.0000,-8.4000,7.2592,-0.0766,0.3089,0.1282,-0.5622,0.1964,-92.7000,-37.9500,27.6000,-5.4800,2.8100,-9.2600,2.2646,3.6096,-0.0938,42.5000,-16.5000,38.0000,154.7500,-43.2500,170.3750,0
1776973193.292,9.5720,-5.2720,1.4916,-1.3467,-1.5753,-3.3942,-84.6000,-22.6500,-8.4000,7.4388,-0.0742,0.0814,0.0946,-0.6022,0.2843,-92.7000,-37.9500,27.6000,-5.9800,3.1000,-9.8000,2.4478,3.5441,0.2182,42.5000,-16.5000,38.0000,155.5625,-41.3125,169.4375,0
1776973193.297,9.6869,-5.4372,1.6065,-1.5823,-1.6505,-3.3345,-84.6000,-22.6500,-8.4000,7.6591,-0.2179,-0.0982,-0.0040,-0.5169,0.3171,-92.7000,-37.9500,27.6000,-5.9800,3.1000,-9.8000,2.4478,3.5441,0.2182,42.5000,-16.5000,38.0000,156.5000,-39.5000,168.5000,0
1776973193.304,9.7564,-5.6264,1.9944,-1.9116,-1.6401,-3.2964,-83.2500,-21.3000,-10.5000,7.6591,-0.2179,-0.0982,-0.0040,-0.5169,0.3171,-95.4000,-38.5500,28.5000,-6.2900,2.2900,-10.3000,2.6562,3.4318,0.4581,42.5000,-16.5000,38.0000,157.5000,-37.7500,167.5000,0
1776973193.314,10.0437,-5.5569,2.8635,-2.2370,-1.6843,-3.2865,-85.5000,-21.3000,-11.5500,7.7620,-0.4525,-0.2107,-0.1055,-0.3256,0.2990,-94.3500,-39.7500,28.8000,-6.8000,0.9800,-10.9400,2.8045,3.3139,0.5716,42.5000,-16.5000,38.0000,157.5000,-37.7500,167.5000,0
1776973193.318,10.0437,-5.5569,2.8635,-2.2370,-1.6843,-3.2865,-85.5000,-21.3000,-11.5500,8.0373,-0.6440,-0.3112,-0.1812,-0.1228,0.2526,-94.3500,-39.7500,28.8000,-6.8000,0.9800,-10.9400,2.8045,3.3139,0.5716,42.5000,-16.5000,38.0000,157.5000,-37.7500,167.5000,0
1776973193.324,9.9766,-4.8866,3.2346,-2.5527,-1.7040,-3.2879,-83.7000,-20.1000,-13.5000,8.0373,-0.6440,-0.3112,-0.1812,-0.1228,0.2526,-95.1000,-38.5500,28.8000,-7.3300,-0.2700,-11.7100,2.8220,3.2387,0.5487,31.3750,-14.3750,43.5000,158.5625,-36.0625,166.5000,0
1776973193.328,9.9766,-4.8866,3.2346,-2.5527,-1.7040,-3.2879,-83.7000,-20.1000,-13.5000,8.2265,-0.6009,-0.1987,-0.3142,0.0232,0.1974,-95.1000,-38.5500,28.8000,-7.3300,-0.2700,-11.7100,2.8220,3.2387,0.5487,31.3750,-14.3750,43.5000,158.5625,-36.0625,166.5000,0
1776973193.334,10.0724,-3.4788,2.9305,-2.7166,-1.6718,-3.3007,-83.7000,-20.1000,-13.5000,8.2265,-0.6009,-0.1987,-0.3142,0.0232,0.1974,-96.9000,-38.5500,29.1000,-8.3400,-1.9300,-12.6600,2.7173,3.2507,0.4058,31.3750,-14.3750,43.5000,159.4375,-34.3750,165.4375,0
1776973193.340,10.0724,-3.4788,2.9305,-2.7166,-1.6718,-3.3007,-83.7000,-20.1000,-13.5000,8.5138,-0.1844,-0.3807,-0.4362,0.0877,0.1426,-96.9000,-38.5500,29.1000,-8.3100,-2.1400,-12.6200,2.5405,3.3478,0.2105,31.3750,-14.3750,43.5000,160.2500,-32.6250,164.4375,0
1776973193.345,10.2065,-1.6999,2.1069,-2.6095,-1.6169,-3.3004,-87.0000,-15.7500,-16.0500,8.7293,0.1460,-0.4645,-0.6867,0.1564,0.1018,-97.5000,-39.9000,30.0000,-8.3100,-2.1400,-12.6200,2.5405,3.3478,0.2105,31.3750,-14.3750,43.5000,160.8750,-30.8125,163.4375,0
1776973193.354,10.4483,-0.1676,1.2905,-2.2497,-1.6094,-3.2780,-87.0000,-15.7500,-16.0500,8.8801,0.7015,-0.4070,-0.9910,0.2014,0.0791,-97.5000,-39.9000,30.0000,-8.1900,-1.8500,-12.4300,2.3464,3.4307,0.0458,31.3750,-14.3750,43.5000,161.4375,-28.9375,162.5000,0
1776973193.364,10.3477,0.6512,0.9936,-1.7776,-1.5908,-3.2452,-86.5500,-11.2500,-16.9500,8.5401,1.2115,-0.3352,-1.3081,0.2707,0.0616,-98.7000,-39.3000,31.6500,-8.2700,-1.1700,-12.0600,2.2187,3.4448,-0.0873,31.3750,-14.3750,43.5000,161.4375,-28.9375,162.5000,0
1776973193.369,10.3477,0.6512,0.9936,-1.7776,-1.5908,-3.2452,-86.5500,-11.2500,-16.9500,8.5401,1.2115,-0.3352,-1.3081,0.2707,0.0616,-98.7000,-39.3000,31.6500,-8.2700,-1.1700,-12.0600,2.2187,3.4448,-0.0873,27.1875,-13.0000,51.5000,161.8750,-27.1250,161.5625,0
1776973193.374,10.4483,0.4381,0.9720,-1.3694,-1.5948,-3.1904,-87.7500,-10.3500,-19.0500,8.9495,1.9154,0.3400,-1.5681,0.3003,0.1053,-100.0500,-37.6500,31.0500,-8.3100,-1.2600,-11.9600,2.1686,3.4034,-0.1920,27.1875,-13.0000,51.5000,161.8750,-27.1250,161.5625,0
1776973193.379,10.4483,0.4381,0.9720,-1.3694,-1.5948,-3.1904,-87.7500,-10.3500,-19.0500,8.9495,1.9154,0.3400,-1.5681,0.3003,0.1053,-100.0500,-37.6500,31.0500,-8.3100,-1.2600,-11.9600,2.1686,3.4034,-0.1920,27.1875,-13.0000,51.5000,162.3125,-25.3125,160.6250,0
1776973193.384,10.9200,-0.2370,0.9242,-1.1032,-1.6006,-3.1189,-87.3000,-6.6000,-19.5000,9.2823,2.7461,0.5890,-1.8871,0.2694,0.0538,-100.8000,-37.6500,31.0500,-8.3000,-1.3100,-11.8800,2.1097,3.3510,-0.2574,27.1875,-13.0000,51.5000,162.3125,-25.3125,160.6250,0
1776973193.393,11.4108,-0.9864,0.8499,-1.0541,-1.5876,-3.0185,-86.2500,-4.8000,-21.9000,8.7364,3.0957,0.4573,-2.3582,0.2332,0.0253,-98.8500,-34.9500,32.1000,-8.2000,-1.1300,-11.8000,2.0115,3.2801,-0.2618,27.1875,-13.0000,51.5000,162.7500,-23.5625,159.7500,0
1776973193.403,11.6095,-1.5036,0.7925,-1.1056,-1.6118,-2.8978,-88.3500,-5.4000,-21.7500,9.0453,3.7637,0.6464,-2.6412,0.0711,0.0381,-98.8500,-34.9500,32.1000,-7.9000,-0.3600,-11.6600,1.9439,3.1961,-0.2291,27.1875,-13.0000,51.5000,163.1250,-21.8750,158.8750,0
1776973193.409,11.3772,-1.4389,1.1420,-1.2657,-1.6561,-2.7755,-88.3500,-5.4000,-21.7500,9.0453,3.7637,0.6464,-2.6412,0.0711,0.0381,-98.8500,-34.9500,32.1000,-7.9000,-0.3600,-11.6600,1.9373,3.0925,-0.1756,27.1875,-13.0000,51.5000,163.5625,-20.2500,158.0000,0
1776973193.415,11.3772,-1.4389,1.1420,-1.2657,-1.6561,-2.7755,-88.2000,-2.8500,-23.1000,5.2098,4.2569,1.0894,-2.9196,0.5502,0.0261,-98.8500,-34.9500,32.1000,-7.8100,-0.1800,-11.5600,1.9373,3.0925,-0.1756,27.1875,-13.0000,51.5000,163.5625,-20.2500,158.0000,0
1776973193.420,10.8577,-1.2163,0.8212,-1.5636,-1.6638,-2.6457,-88.2000,-2.8500,-23.1000,5.2098,4.2569,1.0894,-2.9196,0.5502,0.0261,-99.3000,-31.2000,28.2000,-7.8100,-0.1800,-11.5600,1.9700,2.9638,-0.1080,19.1875,-4.7500,62.8750,164.0000,-18.6875,157.1250,0
1776973193.425,10.8577,-1.2163,0.8212,-1.5636,-1.6638,-2.6457,-88.2000,-2.8500,-23.1000,10.3813,5.5952,0.3184,-2.8128,-0.4282,0.0224,-99.3000,-31.2000,28.2000,-7.7200,0.0400,-11.3800,1.9700,2.9638,-0.1080,19.1875,-4.7500,62.8750,164.0000,-18.6875,157.1250,0
1776973193.429,10.2424,-0.8763,0.4286,-1.9111,-1.6145,-2.5165,-88.2000,-2.8500,-23.1000,10.3813,5.5952,0.3184,-2.8128,-0.4282,0.0224,-99.1500,-27.7500,27.7500,-7.7200,0.0400,-11.3800,2.0322,2.8405,-0.0164,19.1875,-4.7500,62.8750,164.5000,-17.2500,156.1875,0
1776973193.435,10.2424,-0.8763,0.4286,-1.9111,-1.6145,-2.5165,-88.6500,-0.1500,-24.9000,8.5066,6.0118,-0.0287,-2.8703,-0.3224,0.0320,-99.1500,-27.7500,27.7500,-8.2400,0.5700,-10.9000,2.0322,2.8405,-0.0164,19.1875,-4.7500,62.8750,164.5000,-17.2500,156.1875,0
1776973193.443,9.8210,-0.6752,0.3376,-2.1059,-1.5148,-2.3904,-88.6500,-0.1500,-24.9000,9.2033,6.8953,-0.2945,-2.6348,-0.1482,0.0541,-98.4000,-26.5500,25.2000,-8.4300,0.7200,-10.6800,2.0998,2.7369,0.1036,19.1875,-4.7500,62.8750,165.0625,-15.8750,155.2500,0
1776973193.450,9.5577,-0.6105,0.5938,-2.2394,-1.4186,-2.2553,-87.7500,4.0500,-27.1500,9.2033,6.8953,-0.2945,-2.6348,-0.1482,0.0541,-98.8500,-25.6500,24.7500,-8.4300,0.7200,-10.6800,2.1500,2.6649,0.2574,19.1875,-4.7500,62.8750,165.6875,-14.6250,154.2500,0
1776973193.455,9.5577,-0.6105,0.5938,-2.2394,-1.4186,-2.2553,-88.0500,3.4500,-27.7500,8.6862,7.2520,-0.8715,-2.5452,-0.0514,0.1042,-98.8500,-25.6500,24.7500,-8.8800,0.9900,-10.5500,2.1500,2.6649,0.2574,19.1875,-4.7500,62.8750,166.4375,-13.3750,153.2500,0
1776973193.464,9.1818,-0.0862,0.6440,-2.3822,-1.3185,-2.1029,-88.0500,6.1500,-28.0500,9.1482,7.3957,-1.2378,-2.2359,-0.0613,0.1537,-98.8500,-25.6500,24.7500,-8.8000,1.2200,-9.5700,2.1828,2.6693,0.4320,19.1875,-4.7500,62.8750,166.4375,-13.3750,153.2500,0
1776973193.469,8.8897,0.5938,0.3089,-2.6385,-1.2071,-1.9526,-88.0500,6.1500,-28.0500,9.1482,7.3957,-1.2378,-2.2359,-0.0613,0.1537,-100.0500,-22.6500,23.5500,-8.8000,1.2200,-9.5700,2.1828,2.6693,0.4320,19.1875,-4.7500,62.8750,166.4375,-13.3750,153.2500,0
1776973193.474,8.8897,0.5938,0.3089,-2.6385,-1.2071,-1.9526,-86.5500,6.6000,-28.8000,8.8490,7.2592,-1.3695,-1.9849,-0.0983,0.1927,-100.0500,-22.6500,23.5500,-8.5100,1.4100,-8.8800,2.1653,2.6834,0.6381,6.0625,4.6875,64.0000,167.3125,-12.2500,152.2500,0
1776973193.479,8.6933,1.0175,-0.0599,-2.7880,-1.1202,-1.8026,-86.5500,6.6000,-28.8000,8.8490,7.2592,-1.3695,-1.7096,-0.0837,0.2014,-97.8000,-22.9500,22.9500,-8.5100,1.4100,-8.8800,2.1653,2.6834,0.6381,6.0625,4.6875,64.0000,167.3125,-12.2500,152.2500,0
1776973193.484,8.6933,1.0175,-0.0599,-2.7880,-1.1202,-1.8026,-87.6000,9.3000,-28.5000,8.1307,6.9839,-1.5610,-1.7096,-0.0837,0.2014,-97.8000,-22.9500,22.9500,-8.6900,1.5600,-8.4900,2.0988,2.6409,0.8901,6.0625,4.6875,64.0000,168.2500,-11.1875,151.3125,0
1776973193.493,8.4396,1.4940,-0.0622,-2.7963,-0.9899,-1.6076,-87.6000,9.3000,-28.5000,7.9080,6.8977,-1.7549,-1.5279,0.0586,0.2057,-98.7000,-22.0500,23.4000,-8.9000,1.7800,-8.1400,1.9995,2.5864,1.1825,6.0625,4.6875,64.0000,169.4375,-10.2500,150.5000,0
1776973193.499,8.1858,1.9082,-0.1891,-2.8482,-0.8543,-1.3859,-87.6000,9.3000,-28.5000,8.3342,6.9384,-1.9632,-1.2534,0.2673,0.1796,-101.4000,-22.6500,24.7500,-8.9000,1.7800,-8.1400,1.8882,2.5405,1.4846,6.0625,4.6875,64.0000,170.6875,-9.4375,149.6875,0
1776973193.505,8.0158,2.2098,-0.6847,-2.8482,-0.8543,-1.3859,-85.3500,13.6500,-30.3000,8.3342,6.9384,-1.9632,-1.2534,0.2673,0.1796,-101.4000,-22.6500,24.7500,-8.7000,2.4500,-7.0900,1.8882,2.5405,1.4846,6.0625,4.6875,64.0000,172.1250,-8.7500,148.9375,0
1776973193.514,8.0158,2.2098,-0.6847,-2.8775,-0.7360,-1.1418,-85.3500,13.6500,-30.3000,8.5401,6.9145,-2.2266,-1.0475,0.3464,0.1498,-102.0000,-22.8000,24.4500,-8.4400,2.7400,-6.3900,1.7879,2.4598,1.7879,6.0625,4.6875,64.0000,172.1250,-8.7500,148.9375,0
1776973193.519,7.7381,2.5379,-1.2905,-2.8168,-0.6107,-0.8873,-85.3500,13.6500,-30.3000,8.9591,6.8426,-2.4972,-0.7517,0.3134,0.1447,-102.0000,-22.8000,24.4500,-8.4400,2.7400,-6.3900,1.7879,2.4598,1.7879,-3.5000,12.0000,62.6875,173.7500,-8.2500,148.2500,0
1776973193.524,7.5226,2.5067,-1.8651,-2.8168,-0.6107,-0.8873,-86.2500,13.8000,-30.1500,8.9591,6.8426,-2.4972,-0.7517,0.3134,0.1447,-102.0000,-22.8000,24.4500,-8.2700,2.7500,-5.6000,1.6930,2.3202,2.0649,-3.5000,12.0000,62.6875,173.7500,-8.2500,148.2500,0
1776973193.529,7.5226,2.5067,-1.8651,-2.7486,-0.4423,-0.6150,-86.2500,13.8000,-30.1500,9.0070,6.5194,-2.6169,-0.5321,0.3227,0.1396,-103.5000,-23.5500,27.0000,-8.2700,2.7500,-5.6000,1.6930,2.3202,2.0649,-3.5000,12.0000,62.6875,175.4375,-7.9375,147.6250,0
1776973193.534,7.3622,2.4541,-1.8052,-2.7486,-0.4423,-0.6150,-86.2500,13.8000,-30.1500,9.0070,6.5194,-2.6169,-0.5321,0.3227,0.1396,-103.5000,-23.5500,27.0000,-8.5600,2.0500,-4.4500,1.5806,2.1020,2.3038,-3.5000,12.0000,62.6875,175.4375,-7.9375,147.6250,0
1776973193.539,7.3622,2.4541,-1.8052,-2.6350,-0.2670,-0.3405,-84.6000,15.1500,-29.5500,9.0860,5.9161,-2.5618,-0.3571,0.2878,0.1327,-103.8000,-24.3000,25.9500,-8.5600,2.0500,-4.4500,1.4355,1.8250,2.4685,-3.5000,12.0000,62.6875,177.1250,-7.8125,147.0625,0
1776973193.545,7.4196,2.4205,-1.7957,-2.5724,-0.1071,-0.0544,-83.7000,16.2000,-28.9500,9.0860,5.9161,-2.5618,-0.3571,0.2878,0.1327,-103.8000,-24.3000,25.9500,-8.7900,1.7600,-4.0800,1.4355,1.8250,2.4685,-3.5000,12.0000,62.6875,178.8750,-7.8750,146.5625,0
1776973193.554,7.7309,2.3918,-1.8148,-2.4690,0.0621,0.2182,-83.7000,16.2000,-28.9500,9.2464,5.4564,-2.5331,-0.1687,0.2814,0.1436,-103.5000,-25.8000,26.7000,-8.7500,1.5000,-3.7400,1.2795,1.5152,2.5416,-3.5000,12.0000,62.6875,178.8750,-7.8750,146.5625,0
1776973193.564,8.0206,2.3104,-1.5682,-2.2455,0.1839,0.4655,-85.3500,16.8000,-29.5500,9.5792,5.0278,-2.4876,0.0000,0.2236,0.1567,-104.2500,-26.2500,25.9500,-8.4000,0.5400,-3.8900,1.1116,1.1901,2.5482,-3.5000,12.0000,62.6875,180.5000,-8.1250,146.1875,0
1776973193.569,8.0206,2.3104,-1.5682,-2.2455,0.1839,0.4655,-85.3500,16.8000,-29.5500,9.8474,4.4484,-2.2290,0.0794,0.1178,0.1687,-104.2500,-26.2500,25.9500,-8.4000,0.5400,-3.8900,1.1116,1.1901,2.5482,-3.5000,12.0000,62.6875,182.0625,-8.5000,145.8750,0
1776973193.574,8.4443,2.0446,-1.2115,-1.9795,0.2870,0.6856,-85.3500,16.8000,-29.5500,9.8474,4.4484,-2.2290,0.0794,0.1178,0.1687,-104.2500,-26.2500,25.9500,-8.1200,-0.0100,-4.2400,0.8988,0.8650,2.5285,-10.0000,17.0625,60.0625,182.0625,-8.5000,145.8750,0
1776973193.579,8.4443,2.0446,-1.2115,-1.9795,0.2870,0.6856,-85.3500,18.0000,-28.8000,9.7707,3.7613,-2.0279,0.0778,-0.0458,0.1847,-105.1500,-27.1500,27.1500,-8.1200,-0.0100,-4.2400,0.8988,0.8650,2.5285,-10.0000,17.0625,60.0625,182.0625,-8.5000,145.8750,0
1776973193.584,8.8059,1.7142,-0.9697,-1.6659,0.3720,0.8708,-85.3500,18.0000,-28.8000,9.7707,3.7613,-2.0279,0.0778,-0.0458,0.1847,-105.1500,-27.1500,27.1500,-7.7300,-0.5200,-4.7300,0.6261,0.5476,2.4871,-10.0000,17.0625,60.0625,183.5625,-9.0625,145.7500,0
1776973193.591,8.8059,1.7142,-0.9697,-1.6659,0.3720,0.8708,-85.3500,18.0000,-28.8000,9.8210,3.3902,-1.5634,0.1244,-0.1511,0.2398,-105.7500,-27.1500,27.6000,-7.5100,-0.8500,-5.3800,0.3480,0.2563,2.4151,-10.0000,17.0625,60.0625,185.0000,-9.6875,145.7500,0
1776973193.595,8.9615,1.4078,-0.6225,-1.3643,0.4450,1.0355,-85.5000,18.1500,-27.9000,9.5768,3.0311,-1.5921,-0.0682,-0.1537,0.2966,-105.7500,-27.1500,27.6000,-7.5100,-0.8500,-5.3800,0.3480,0.2563,2.4151,-10.0000,17.0625,60.0625,186.2500,-10.3750,145.8750,0
1776973193.604,9.5026,1.1492,-0.0742,-1.1458,0.5167,1.1876,-85.5000,18.1500,-27.9000,9.5768,3.0311,-1.5921,-0.0682,-0.1537,0.2966,-106.0500,-28.0500,25.9500,-7.0500,-1.4300,-6.2000,0.1178,0.0175,2.3038,-10.0000,17.0625,60.0625,187.4375,-11.1250,146.0625,0
1776973193.614,12.0572,3.5817,0.5028,-0.8495,0.5622,1.0869,-86.1000,17.5500,-27.7500,9.7588,2.3104,-1.2761,-0.2129,-0.0839,0.3728,-104.2500,-27.0000,25.2000,3.1900,-6.2900,-10.9200,-0.0927,-0.1560,2.1238,-10.0000,17.0625,60.0625,187.4375,-11.1250,146.0625,0
1776973193.619,12.0572,3.5817,0.5028,-0.8495,0.5622,1.0869,-87.7500,17.4000,-27.4500,10.5512,1.7765,-0.6560,-0.2819,0.0797,0.5686,-103.0500,-26.2500,24.4500,3.1900,-6.2900,-10.9200,-0.0927,-0.1560,2.1238,-10.0000,17.0625,60.0625,187.4375,-11.1250,146.0625,0
1776973193.624,13.7547,6.4284,-3.2944,-1.1985,0.1415,0.7040,-87.7500,17.4000,-27.4500,10.5512,1.7765,-0.6560,-0.2803,0.0597,0.7530,-103.0500,-26.2500,24.4500,3.9500,-14.8800,-13.9600,-1.4748,-0.5094,1.7671,-11.3750,20.5000,58.3750,188.2500,-11.8750,147.0000,0
1776973193.629,13.7547,6.4284,-3.2944,-1.1985,0.1415,0.7040,-86.5500,16.8000,-26.5500,10.7356,1.2019,0.0192,-0.2803,0.0597,0.7530,-103.0500,-26.2500,24.4500,3.9500,-14.8800,-13.9600,-1.4748,-0.5094,1.7671,-11.3750,20.5000,58.3750,188.2500,-11.8750,147.0000,0
1776973193.634,12.2823,7.9607,-3.7924,-1.0669,-0.1708,0.1652,-86.5500,16.8000,-26.5500,10.1203,0.9098,0.0622,-0.3714,-0.0727,0.8564,-103.0500,-26.2500,24.4500,8.5100,-14.5100,-15.3800,-2.0486,-0.7429,1.8457,-11.3750,20.5000,58.3750,189.0000,-12.8125,148.3125,0
1776973193.639,12.2823,7.9607,-3.7924,-1.0669,-0.1708,0.1652,-85.9500,15.4500,-27.4500,10.1203,0.9098,0.0622,-0.3714,-0.0727,0.8564,-102.1500,-27.1500,21.1500,8.5100,-14.5100,-15.3800,-1.8151,-0.3283,1.4606,-11.3750,20.5000,58.3750,189.6250,-13.3750,149.4375,0
1776973193.645,10.6638,7.0366,-3.6871,-0.4098,-0.4117,-0.2118,-85.9500,15.4500,-27.4500,8.6742,0.8787,-0.2729,-0.4882,-0.2153,0.8370,-102.1500,-27.1500,21.1500,1.4200,-16.1500,-9.3900,-1.8151,-0.3283,1.4606,-11.3750,20.5000,58.3750,190.4375,-13.9375,150.5625,0
1776973193.654,7.3765,3.1388,-0.7015,0.8887,-0.2958,-0.1196,-86.1000,16.3500,-27.0000,8.1618,0.8404,-0.5435,-0.8122,-0.1487,0.8188,-101.8500,-23.7000,20.1000,0.9400,-4.3900,-4.6200,-1.6112,-0.2073,1.7486,-11.3750,20.5000,58.3750,190.4375,-13.9375,150.5625,0
1776973193.664,7.9176,1.0104,1.1803,1.5737,-0.0085,0.2161,-86.1000,16.3500,-27.0000,8.8442,1.2330,-0.1460,-1.0736,0.1476,0.9025,-100.3500,-23.7000,19.6500,-3.8200,0.9500,-6.7400,-1.6319,-0.6338,1.8959,-11.3750,20.5000,58.3750,191.3125,-14.7500,151.6250,0
1776973193.669,9.4882,1.8771,1.2570,1.0579,0.1255,0.4690,-85.2000,16.5000,-27.1500,8.8442,1.2330,-0.1460,-1.0736,0.1476,0.9025,-99.3000,-21.9000,16.5000,-3.8200,0.9500,-6.7400,-1.6319,-0.6338,1.8959,-11.3750,20.5000,58.3750,191.9375,-15.6875,152.6875,0
1776973193.674,9.4882,1.8771,1.2570,1.0579,0.1255,0.4690,-85.2000,16.5000,-27.1500,10.0197,2.4612,-0.3687,-1.0272,0.3637,1.0264,-99.3000,-21.9000,16.5000,-6.0500,-3.6900,-8.9600,-1.6232,-0.9861,1.6472,-7.5000,19.2500,59.8750,191.9375,-15.6875,152.6875,0
1776973193.679,9.8785,4.1635,1.7166,0.1945,0.1593,0.4943,-85.2000,16.5000,-27.1500,10.0197,2.4612,-0.3687,-1.0272,0.3637,1.0264,-99.3000,-21.9000,16.5000,-6.0500,-3.6900,-8.9600,-1.6232,-0.9861,1.6472,-7.5000,19.2500,59.8750,192.4375,-16.5000,153.6875,0
1776973193.684,9.8785,4.1635,1.7166,0.1945,0.1593,0.4943,-85.2000,16.5000,-27.1500,10.7452,4.3886,-1.1756,-0.4474,0.2806,0.9992,-99.3000,-21.9000,16.5000,-6.2100,-8.3600,-9.5500,-1.5893,-0.9861,1.3101,-7.5000,19.2500,59.8750,192.4375,-16.5000,153.6875,0
1776973193.692,10.0245,5.8634,1.8004,-0.1183,0.2673,0.4911,-86.1000,16.3500,-28.5000,11.3389,5.6790,-2.0830,0.4530,0.1290,0.8450,-96.6000,-22.0500,13.0500,-7.9700,-11.3100,-10.0500,-1.7977,-0.6796,1.2261,-7.5000,19.2500,59.8750,192.8750,-17.1250,154.8125,0
1776973193.697,11.8561,7.9057,2.1189,-0.1183,0.2673,0.4911,-87.0000,15.0000,-27.9000,11.3389,5.6790,-2.0830,0.4530,0.1290,0.8450,-96.6000,-21.7500,13.8000,-7.9700,-11.3100,-10.0500,-1.7977,-0.6796,1.2261,-7.5000,19.2500,59.8750,193.2500,-17.4375,156.1875,0
1776973193.705,11.8561,7.9057,2.1189,0.3256,0.3744,0.4762,-87.0000,15.0000,-27.9000,13.6781,5.9831,-2.0423,1.2001,0.2353,0.7719,-96.0000,-23.7000,11.1000,-6.2600,-7.0500,-8.3200,-2.1588,-0.1582,1.0548,-7.5000,19.2500,59.8750,193.5000,-17.2500,157.5625,0
1776973193.715,15.2702,5.6934,-4.8387,0.9110,0.1260,0.5049,-85.8000,13.6500,-27.7500,15.4091,4.9775,-0.4549,1.3885,0.2782,0.8767,-96.1500,-22.5000,12.4500,-0.0800,6.8800,-10.8100,-2.1958,0.6458,0.6512,-7.5000,19.2500,59.8750,193.5000,-17.2500,157.5625,0
1776973193.719,12.8736,0.8260,-5.3103,1.9811,-0.1327,0.4959,-86.2500,12.6000,-25.6500,15.4091,4.9775,-0.4549,1.3885,0.2782,0.8767,-96.1500,-22.5000,12.4500,-0.0800,6.8800,-10.8100,-2.1958,0.6458,0.6512,-7.5000,19.2500,59.8750,193.5000,-17.2500,157.5625,0
1776973193.725,12.8736,0.8260,-5.3103,1.9811,-0.1327,0.4959,-86.2500,12.6000,-25.6500,13.6493,3.1675,1.5514,1.0507,0.0983,0.8740,-97.6500,-23.5500,13.8000,-2.4700,2.2600,-11.2500,-1.4148,-0.0295,0.5040,-4.2500,15.3750,61.2500,193.6250,-17.3750,158.3750,0
1776973193.730,10.1586,-2.2194,-1.2570,2.4898,0.1897,0.5934,-85.8000,13.9500,-27.0000,13.6493,3.1675,1.5514,1.0507,0.0983,0.8740,-97.6500,-23.5500,13.8000,-2.4700,2.2600,-11.2500,-1.4148,-0.0295,0.5040,-4.2500,15.3750,61.2500,193.6250,-17.3750,158.3750,0
1776973193.735,10.1586,-2.2194,-1.2570,2.4898,0.1897,0.5934,-85.8000,13.9500,-27.0000,11.8824,1.4293,1.6712,0.6718,0.1529,0.7560,-97.6500,-23.5500,13.8000,-5.5400,-0.9300,-10.8400,-0.8661,-0.7112,0.5585,-4.2500,15.3750,61.2500,193.8125,-17.8750,158.9375,0
1776973193.740,10.0892,-2.8252,0.7781,1.8647,0.3488,0.6598,-86.2500,13.0500,-27.1500,11.8824,1.4293,1.6712,0.6718,0.1529,0.7560,-97.6500,-23.5500,13.8000,-5.5400,-0.9300,-10.8400,-0.6109,-0.5869,0.4309,-4.2500,15.3750,61.2500,193.9375,-18.2500,159.3125,0
1776973193.745,9.4523,-2.0351,-0.0718,1.8647,0.3488,0.6598,-86.2500,13.0500,-27.1500,10.2472,0.4262,0.7183,0.4815,0.1652,0.6368,-99.1500,-20.5500,15.3000,-3.9500,-1.1300,-10.3700,-0.6109,-0.5869,0.4309,-4.2500,15.3750,61.2500,194.0000,-18.5625,159.5625,0
1776973193.755,9.0836,0.5746,0.2011,0.7821,0.3232,0.7021,-86.2500,13.0500,-27.1500,8.8370,0.3232,0.2562,0.5486,0.1657,0.5681,-98.8500,-23.4000,15.4500,-3.7300,-0.9300,-10.2500,-0.4200,-0.5083,0.3218,-4.2500,15.3750,61.2500,194.0625,-18.9375,159.6875,0
1776973193.765,9.0932,3.2753,0.6225,0.3453,0.3144,0.6651,-87.6000,11.2500,-28.8000,8.4156,0.4094,0.6273,0.5654,0.1410,0.4964,-100.2000,-22.0500,17.1000,-4.0100,-3.4700,-8.8900,-0.2193,-0.5541,0.2520,-4.2500,15.3750,61.2500,194.0625,-18.9375,159.6875,0
1776973193.770,9.0932,3.2753,0.6225,0.3762,0.3160,0.6097,-87.0000,11.4000,-28.2000,8.2121,0.4310,0.9002,0.4335,0.0925,0.4325,-100.2000,-22.0500,17.1000,-4.0100,-3.4700,-8.8900,-0.2193,-0.5541,0.2520,-3.5000,10.1875,61.0000,194.1250,-19.1875,159.8125,0
1776973193.775,9.3877,4.7716,1.4581,0.6145,0.2302,0.5809,-87.0000,11.4000,-28.2000,8.2121,0.4310,0.9002,0.4335,0.0925,0.4325,-100.9500,-23.5500,18.1500,-3.4400,-3.6900,-8.4200,-0.2029,-0.4549,0.1931,-3.5000,10.1875,61.0000,194.1250,-19.1875,159.8125,0
1776973193.780,9.3877,4.7716,1.4581,0.6145,0.2302,0.5809,-87.3000,9.3000,-27.7500,8.1882,0.2011,0.6967,0.2009,0.1484,0.4032,-100.9500,-23.5500,18.1500,-3.4400,-3.6900,-8.4200,-0.2029,-0.4549,0.1931,-3.5000,10.1875,61.0000,194.1875,-19.4375,160.0000,0
1776973193.785,8.9471,4.8123,1.5419,0.9153,0.2321,0.5724,-87.3000,9.3000,-27.7500,8.1882,0.2011,0.6967,0.2009,0.1484,0.4032,-100.9500,-23.5500,18.1500,-3.3100,-3.5600,-8.3500,-0.3054,-0.3785,0.1822,-3.5000,10.1875,61.0000,194.1875,-19.4375,160.0000,0
1776973193.793,8.9471,4.8123,1.5419,0.9153,0.2321,0.5724,-85.8000,9.7500,-27.0000,8.4515,-0.4573,0.3543,-0.0282,0.1982,0.4066,-100.9500,-23.5500,18.1500,-3.6900,-3.3200,-8.5500,-0.3360,-0.4440,0.1844,-3.5000,10.1875,61.0000,194.1875,-19.6875,160.1875,0
1776973193.798,9.0381,3.4189,1.8124,1.0480,0.2851,0.5670,-86.8500,10.0500,-28.0500,8.4515,-0.4573,0.3543,-0.0282,0.1982,0.4066,-100.9500,-23.5500,18.1500,-3.6900,-3.3200,-8.5500,-0.3360,-0.4440,0.1844,-3.5000,10.1875,61.0000,194.1875,-20.0000,160.3125,0
1776973193.805,9.3901,1.3001,1.4078,0.7922,0.2902,0.5537,-86.8500,10.0500,-28.0500,8.5545,-1.3431,0.1508,-0.3152,0.2435,0.4445,-101.2500,-28.0500,15.3000,-3.9200,-3.3400,-8.6700,-0.2847,-0.5072,0.1691,-3.5000,10.1875,61.0000,194.1875,-20.2500,160.4375,0
1776973193.815,9.9168,-0.2610,1.6424,0.3219,0.2851,0.5335,-87.4500,9.1500,-26.1000,8.5353,-2.1165,0.0024,-0.4898,0.1628,0.5116,-98.7000,-28.5000,15.3000,-3.8500,-3.1400,-8.6500,-0.2345,-0.5138,0.1462,-3.5000,10.1875,61.0000,194.1875,-20.2500,160.4375,0
1776973193.820,9.9168,-0.2610,1.6424,0.3219,0.2851,0.5335,-87.4500,9.1500,-26.1000,8.8011,-2.4421,0.3184,-0.6869,0.1055,0.5806,-98.7000,-28.5000,15.3000,-3.8500,-3.1400,-8.6500,-0.2345,-0.5138,0.1462,-3.5000,10.1875,61.0000,194.1875,-20.5625,160.5625,0
1776973193.825,9.8162,-0.7518,0.3400,-0.1966,0.1791,0.5231,-87.4500,9.1500,-26.1000,8.8011,-2.4421,0.3184,-0.6869,0.1055,0.5806,-96.4500,-28.6500,12.9000,-3.2100,-3.2400,-8.2500,-0.2465,-0.4920,0.1353,-1.7500,9.6875,62.2500,194.1875,-20.5625,160.5625,0
1776973193.830,9.8162,-0.7518,0.3400,-0.1966,0.1791,0.5231,-87.0000,8.4000,-27.4500,8.9711,-2.2769,0.8763,-0.8804,0.0250,0.6283,-96.4500,-28.6500,12.9000,-3.2100,-3.2400,-8.2500,-0.2465,-0.4920,0.1353,-1.7500,9.6875,62.2500,194.1875,-20.8750,160.7500,0
1776973193.835,8.8538,-0.4932,-0.4405,-0.6619,0.1340,0.5201,-87.0000,8.4000,-27.4500,8.9711,-2.2769,0.8763,-0.8804,0.0250,0.6283,-95.8500,-29.2500,10.2000,-3.7000,-2.9700,-8.5500,-0.3152,-0.5105,0.1276,-1.7500,9.6875,62.2500,194.1875,-20.8750,160.7500,0
1776973193.841,9.0094,-0.0024,-0.7470,-0.6619,0.1340,0.5201,-87.0000,8.4000,-27.4500,9.3039,-1.9776,1.1277,-0.9976,0.0965,0.6347,-95.8500,-29.2500,10.2000,-3.9300,-2.9500,-8.5800,-0.3436,-0.5465,0.1331,-1.7500,9.6875,62.2500,194.1875,-21.1250,160.9375,0
1776973193.846,9.0094,-0.0024,-0.7470,-0.9891,0.1982,0.5281,-87.0000,8.4000,-27.4500,9.3039,-1.9776,1.1277,-0.9976,0.0965,0.6347,-95.8500,-29.2500,10.2000,-3.9300,-2.9500,-8.5800,-0.3436,-0.5465,0.1331,-1.7500,9.6875,62.2500,194.1875,-21.4375,161.0625,0
1776973193.855,9.4068,0.8188,-0.8332,-1.1303,0.2020,0.5031,-88.8000,7.8000,-26.2500,9.9575,-1.3264,0.7326,-1.0408,0.2449,0.6009,-91.0500,-28.0500,7.8000,-3.9000,-2.8000,-8.4300,-0.3022,-0.5203,0.1047,-1.7500,9.6875,62.2500,194.1875,-21.7500,161.2500,0
1776973193.865,9.4068,1.9800,-0.9505,-1.0467,0.2294,0.4783,-87.6000,8.5500,-27.0000,10.4986,-0.6177,0.0622,-0.9177,0.3131,0.4807,-90.7500,-27.3000,6.7500,-3.7800,-2.3000,-8.7900,-0.2847,-0.5160,0.1058,-1.7500,9.6875,62.2500,194.1875,-21.7500,161.2500,0
1776973193.870,9.2632,2.6959,-1.0487,-1.0467,0.2294,0.4783,-88.0500,9.7500,-27.7500,10.6638,0.3136,-0.8404,-0.7064,0.2617,0.3437,-90.7500,-27.3000,6.7500,-3.7800,-2.3000,-8.7900,-0.2847,-0.5160,0.1058,-1.7500,9.6875,62.2500,194.1250,-22.0625,161.3125,0
1776973193.875,9.2632,2.6959,-1.0487,-0.7695,0.2563,0.4684,-88.0500,9.7500,-27.7500,10.6638,0.3136,-0.8404,-0.7064,0.2617,0.3437,-90.0000,-26.5500,4.5000,-3.9400,-2.2900,-8.8200,-0.1996,-0.5607,0.0600,-1.1875,8.7500,61.8750,194.1250,-22.0625,161.3125,0
1776973193.880,9.3494,3.3279,-0.6129,-0.7695,0.2563,0.4684,-89.1000,9.7500,-25.8000,9.9096,0.8092,-1.0894,-0.8055,0.1487,0.2252,-90.0000,-26.5500,4.5000,-3.9400,-2.2900,-8.8200,-0.1996,-0.5607,0.0600,-1.1875,8.7500,61.8750,194.0625,-22.3750,161.3750,0
1776973193.885,9.3494,3.3279,-0.6129,-0.3507,0.3520,0.4575,-89.1000,9.7500,-25.8000,9.9096,0.8092,-1.0894,-0.8055,0.1487,0.2252,-89.1000,-25.9500,5.1000,-4.0300,-2.5300,-8.5600,-0.1374,-0.6185,0.0251,-1.1875,8.7500,61.8750,194.0000,-22.6875,161.3750,0
1776973193.895,9.4763,3.2010,0.2346,0.0000,0.3533,0.4389,-89.1000,9.7500,-25.8000,9.7995,1.0415,-1.0582,-0.5391,0.1532,0.1719,-87.9000,-26.2500,3.1500,-3.7600,-2.7200,-8.4600,-0.1451,-0.6360,-0.0055,-1.1875,8.7500,61.8750,194.0000,-22.6875,161.3750,0
1776973193.905,9.4140,2.6312,1.1516,0.3123,0.3413,0.4301,-88.9500,8.7000,-26.1000,10.0820,1.2426,-0.9888,-1.0512,0.1793,0.1943,-87.9000,-26.2500,3.1500,-4.1500,-2.7100,-8.5500,-0.1898,-0.6338,-0.0055,-1.1875,8.7500,61.8750,193.9375,-23.0625,161.4375,0
1776973193.915,9.7276,1.6257,1.4653,0.5561,0.3355,0.4088,-88.9500,8.7000,-26.1000,9.8234,1.0319,-0.1389,-1.0954,0.1919,0.2507,-87.6000,-27.4500,4.0500,-4.5900,-2.6000,-8.7600,-0.2105,-0.5901,0.0055,-1.1875,8.7500,61.8750,193.8125,-23.3750,161.5000,0
1776973193.920,10.0676,0.5650,1.6951,0.6051,0.3272,0.3968,-88.3500,7.3500,-27.7500,9.8234,1.0319,-0.1389,-1.0954,0.1919,0.2507,-87.6000,-27.4500,4.0500,-4.5900,-2.6000,-8.7600,-0.2105,-0.5901,0.0055,-1.1875,8.7500,61.8750,193.8125,-23.3750,161.5000,0
1776973193.925,10.0676,0.5650,1.6951,0.6051,0.3272,0.3968,-88.3500,7.3500,-27.7500,9.8881,0.5698,0.8954,-1.0344,0.0951,0.3062,-87.4500,-27.0000,4.9500,-5.0200,-2.8700,-8.6700,-0.1745,-0.5160,0.0033,1.3750,8.0000,61.5625,193.7500,-23.6250,161.5625,0
1776973193.929,10.1227,-0.1030,2.0063,0.4951,0.3102,0.4053,-86.8500,7.3500,-27.3000,9.8881,0.5698,0.8954,-1.0344,0.0951,0.3062,-87.4500,-27.0000,4.9500,-5.0200,-2.8700,-8.6700,-0.1745,-0.5160,0.0033,1.3750,8.0000,61.5625,193.7500,-23.6250,161.5625,0
1776973193.935,10.1227,-0.1030,2.0063,0.4951,0.3102,0.4053,-86.8500,7.3500,-27.3000,9.7971,0.2610,1.7382,-0.8026,0.0216,0.3352,-88.2000,-28.5000,3.9000,-4.9200,-2.6600,-8.5500,-0.1167,-0.3796,0.0229,1.3750,8.0000,61.5625,193.7500,-23.8125,161.6250,0
1776973193.939,10.1251,-0.2514,1.8531,0.2523,0.2547,0.3941,-88.9500,6.7500,-27.9000,9.7971,0.2610,1.7382,-0.8026,0.0216,0.3352,-88.2000,-28.5000,3.9000,-4.9200,-2.6600,-8.5500,-0.0753,-0.2313,0.0273,1.3750,8.0000,61.5625,193.7500,-23.9375,161.6250,0
1776973193.946,10.1251,-0.2514,1.8531,0.2523,0.2547,0.3941,-88.9500,6.7500,-27.9000,9.3302,-0.1125,2.5833,-0.7107,0.1255,0.3467,-90.0000,-30.3000,5.7000,-4.2100,-2.6900,-8.6000,-0.0753,-0.2313,0.0273,1.3750,8.0000,61.5625,193.7500,-24.0625,161.6875,0
1776973193.955,9.8354,0.2753,1.6352,0.0056,0.2110,0.3643,-88.8000,6.1500,-27.3000,9.3158,-0.2035,3.5985,-0.3677,0.2116,0.3192,-90.0000,-30.3000,5.7000,-4.3600,-2.6800,-8.5300,-0.0469,-0.2051,0.0295,1.3750,8.0000,61.5625,193.7500,-24.0625,161.6875,0
1776973193.965,9.6630,0.9122,1.2498,-0.1759,0.1924,0.3496,-88.8000,6.1500,-27.0000,9.7324,0.4597,4.3551,-0.1692,0.3475,0.2976,-91.6500,-30.9000,8.2500,-4.5100,-2.7300,-8.5400,-0.0295,-0.2193,0.0284,1.3750,8.0000,61.5625,193.6875,-24.1875,161.6875,0
1776973193.970,9.8234,1.5993,1.2617,-0.2867,0.2009,0.3483,-88.6500,7.2000,-27.1500,9.7324,0.4597,4.3551,-0.1692,0.3475,0.2976,-91.6500,-30.9000,8.2500,-4.5100,-2.7300,-8.5400,-0.0295,-0.2193,0.0284,1.3750,8.0000,61.5625,193.6875,-24.3125,161.6875,0
1776973193.975,9.8234,1.5993,1.2617,-0.2867,0.2009,0.3483,-88.6500,7.2000,-27.1500,9.6965,1.0989,4.4149,-0.1167,0.3802,0.2686,-92.5500,-30.7500,6.0000,-4.4100,-2.6400,-8.5300,-0.0382,-0.1811,0.0240,2.8750,7.2500,61.5625,193.6875,-24.3125,161.6875,0
1776973193.980,9.8641,1.9609,1.0989,-0.3259,0.1593,0.3557,-88.6500,7.2000,-27.1500,9.6965,1.0989,4.4149,-0.1167,0.3802,0.2686,-90.7500,-29.5500,8.5500,-4.4100,-2.6400,-8.5300,-0.0382,-0.1811,0.0240,2.8750,7.2500,61.5625,193.6875,-24.3750,161.6875,0
1776973193.985,9.6438,2.2122,1.0989,-0.3259,0.1593,0.3557,-88.6500,7.2000,-27.1500,9.7300,1.4533,3.8044,-0.1532,0.3328,0.2268,-90.7500,-29.5500,8.5500,-4.3500,-2.6600,-8.4800,-0.0284,-0.1374,0.0207,2.8750,7.2500,61.5625,193.6875,-24.3750,161.6875,0
1776973193.992,9.6438,2.2122,1.0989,-0.2601,0.1681,0.3704,-89.4000,5.2500,-25.3500,9.6845,1.6113,3.1053,-0.1724,0.2750,0.1735,-91.0500,-27.3000,8.5500,-4.4000,-2.6700,-8.4900,-0.0175,-0.1145,0.0218,2.8750,7.2500,61.5625,193.6875,-24.4375,161.6875,0
1776973193.997,9.6534,2.0399,1.0534,-0.2137,0.1537,0.3824,-89.4000,5.2500,-25.3500,9.6845,1.6113,3.1053,-0.1724,0.2750,0.1735,-91.0500,-27.3000,8.5500,-4.4000,-2.6700,-8.4900,-0.0175,-0.1145,0.0218,2.8750,7.2500,61.5625,193.6875,-24.5000,161.6875,0
1776973194.005,9.6941,1.8028,0.9720,-0.1719,0.1415,0.3850,-89.4000,5.2500,-25.3500,9.6127,1.6592,2.2122,-0.2427,0.2297,0.1748,-93.0000,-27.7500,8.8500,-4.3300,-2.6700,-8.4300,-0.0218,-0.0894,0.0273,2.8750,7.2500,61.5625,193.6875,-24.5000,161.6875,0
1776973194.012,9.6941,1.8028,0.9720,-0.1719,0.1415,0.3850,-87.7500,6.0000,-27.1500,9.6678,1.4581,1.3288,-0.3301,0.2779,0.1828,-93.0000,-27.7500,8.8500,-4.3400,-2.7600,-8.3800,-0.0404,-0.0687,0.0240,2.8750,7.2500,61.5625,193.7500,-24.5625,161.7500,0
1776973194.017,9.5960,1.6640,1.1037,-0.1673,0.1234,0.3938,-87.7500,6.0000,-27.1500,9.6678,1.4581,1.3288,-0.3301,0.2779,0.1828,-93.0000,-27.7500,8.8500,-4.3400,-2.7600,-8.3800,-0.0404,-0.0687,0.0240,2.8750,7.2500,61.5625,193.7500,-24.5625,161.7500,0
1776973194.021,9.5960,1.6640,1.1037,-0.1673,0.1234,0.3938,-88.3500,5.8500,-28.0500,9.6534,1.2617,0.4980,-0.3621,0.2739,0.1977,-91.0500,-24.0000,10.2000,-4.3400,-2.6400,-8.4600,-0.0556,-0.0513,0.0262,2.8750,7.1875,62.7500,193.7500,-24.6250,161.7500,0
1776973194.026,9.6486,1.4246,1.0870,-0.2156,0.0997,0.4064,-88.3500,5.8500,-28.0500,9.6534,1.2617,0.4980,-0.3621,0.2739,0.1977,-91.0500,-24.0000,10.2000,-4.3400,-2.6400,-8.4600,-0.0556,-0.0513,0.0262,2.8750,7.1875,62.7500,193.7500,-24.6250,161.7500,0
1776973194.031,9.6486,1.4246,1.0870,-0.2156,0.0997,0.4064,-88.2000,4.8000,-26.7000,9.8282,0.9792,0.0622,-0.3805,0.2939,0.2137,-90.9000,-24.1500,10.0500,-4.3100,-2.6800,-8.4300,-0.0676,-0.0349,0.0229,2.8750,7.1875,62.7500,193.7500,-24.6250,161.8125,0
1776973194.036,9.7899,1.3479,0.9720,-0.3136,0.0741,0.4090,-88.2000,4.8000,-26.7000,9.8282,0.9792,0.0622,-0.3805,0.2939,0.2137,-90.9000,-24.1500,10.0500,-4.3100,-2.6800,-8.4300,-0.0676,-0.0349,0.0229,2.8750,7.1875,62.7500,193.7500,-24.6250,161.8125,0
1776973194.041,9.7899,1.3479,0.9720,-0.3136,0.0741,0.4090,-89.8500,4.6500,-26.2500,9.7181,0.7326,-0.1293,-0.3925,0.2761,0.2161,-92.5500,-24.3000,10.6500,-4.3100,-2.6800,-8.4300,-0.0774,-0.0316,0.0218,2.8750,7.1875,62.7500,193.7500,-24.6250,161.8750,0
1776973194.046,9.7923,1.1229,0.8404,-0.3981,0.0266,0.3941,-89.8500,4.6500,-26.2500,9.7181,0.7326,-0.1293,-0.3925,0.2761,0.2161,-92.5500,-24.3000,10.6500,-4.1300,-2.7300,-8.3500,-0.0774,-0.0316,0.0218,2.8750,7.1875,62.7500,193.7500,-24.6250,161.8750,0
1776973194.055,9.5361,1.1971,0.9242,-0.4362,0.0480,0.4037,-89.8500,4.6500,-26.2500,9.7851,0.4022,-0.0790,-0.4946,0.2750,0.2110,-91.6500,-26.4000,10.5000,-4.1200,-2.7600,-8.4000,-0.0731,-0.0480,0.0295,2.8750,7.1875,62.7500,193.7500,-24.6875,161.9375,0
1776973194.060,9.5361,1.1971,0.9242,-0.4362,0.0480,0.4037,-89.7000,5.5500,-28.2000,9.5936,0.0431,0.2801,-0.6297,0.2777,0.2014,-91.6500,-26.4000,10.5000,-4.1200,-2.7600,-8.4000,-0.0611,-0.0840,0.0360,2.8750,7.1875,62.7500,193.7500,-24.7500,161.9375,0
1776973194.066,9.6774,1.3192,0.7230,-0.5217,0.0280,0.4037,-89.7000,5.5500,-28.2000,9.5936,0.0431,0.2801,-0.6297,0.2777,0.2014,-91.6500,-26.4000,10.5000,-4.3100,-2.6600,-8.3800,-0.0611,-0.0840,0.0360,2.8750,7.1875,62.7500,193.7500,-24.7500,161.9375,0
1776973194.071,9.6774,1.3192,0.7230,-0.5217,0.0280,0.4037,-89.7000,5.5500,-28.2000,9.6941,-0.2370,0.5339,-0.7794,0.2966,0.1817,-92.5500,-27.3000,11.7000,-4.3100,-2.6600,-8.3800,-0.0611,-0.0840,0.0360,3.1875,7.5625,61.5625,193.7500,-24.8125,162.0000,0
1776973194.076,9.4691,1.6376,0.2897,-0.5454,0.0336,0.3909,-89.7000,5.5500,-28.2000,9.6941,-0.2370,0.5339,-0.7794,0.2966,0.1817,-92.5500,-27.3000,11.7000,-4.1600,-2.7600,-8.2800,-0.0600,-0.0971,0.0327,3.1875,7.5625,61.5625,193.7500,-24.8125,162.0000,0
1776973194.081,9.4691,1.6376,0.2897,-0.5454,0.0336,0.3909,-88.8000,5.8500,-27.0000,9.6941,-0.4860,0.8092,-0.8841,0.2028,0.1599,-93.3000,-27.3000,9.9000,-4.1600,-2.7600,-8.2800,-0.0600,-0.0971,0.0327,3.1875,7.5625,61.5625,193.7500,-24.8750,162.0000,0
1776973194.086,9.4547,1.7693,0.3543,-0.4674,0.0432,0.3837,-88.8000,5.8500,-27.0000,9.6941,-0.4860,0.8092,-0.8841,0.2028,0.1599,-93.3000,-27.3000,9.9000,-4.2600,-2.7000,-8.3300,-0.0731,-0.0993,0.0349,3.1875,7.5625,61.5625,193.7500,-24.8750,162.0000,0
1776973194.091,9.4427,1.5921,0.5076,-0.4674,0.0432,0.3837,-89.8500,4.2000,-27.0000,9.7109,-0.6656,1.1157,-0.9534,0.1354,0.1410,-91.8000,-28.8000,9.9000,-4.2600,-2.7000,-8.3300,-0.0720,-0.1222,0.0371,3.1875,7.5625,61.5625,193.7500,-24.9375,162.0625,0
1776973194.096,9.4427,1.5921,0.5076,-0.4048,0.0346,0.3762,-89.8500,4.2000,-27.0000,9.7109,-0.6656,1.1157,-0.9534,0.1354,0.1410,-91.8000,-28.8000,9.9000,-4.2900,-2.6200,-8.3800,-0.0720,-0.1222,0.0371,3.1875,7.5625,61.5625,193.7500,-24.9375,162.0625,0
1776973194.105,9.4930,1.1492,0.6943,-0.3440,0.0365,0.3832,-88.9500,5.2500,-26.4000,9.5888,-0.6321,1.1468,-0.9449,0.0674,0.1186,-91.9500,-28.6500,9.0000,-4.4200,-2.5500,-8.4200,-0.0720,-0.1265,0.0360,3.1875,7.5625,61.5625,193.7500,-25.0000,162.1250,0
1776973194.110,9.4930,1.1492,0.6943,-0.3440,0.0365,0.3832,-88.9500,5.2500,-26.4000,9.7564,-0.5507,1.4174,-0.9180,0.0205,0.0997,-90.1500,-27.4500,7.9500,-4.4200,-2.5500,-8.4200,-0.0654,-0.1145,0.0327,3.1875,7.5625,61.5625,193.7500,-25.1250,162.1250,0
1776973194.116,9.7037,0.7230,1.0223,-0.3384,0.0242,0.3808,-88.9500,4.0500,-27.4500,9.7564,-0.5507,1.4174,-0.9180,0.0205,0.0997,-90.1500,-27.4500,7.9500,-4.4200,-2.5300,-8.3900,-0.0654,-0.1145,0.0327,3.1875,7.5625,61.5625,193.7500,-25.1250,162.1250,0
1776973194.121,9.5744,0.4693,1.0534,-0.4013,0.0112,0.3824,-89.1000,4.9500,-27.7500,10.0796,-0.6201,1.3791,-0.8711,-0.0328,0.0877,-90.1500,-27.4500,7.9500,-4.4200,-2.5300,-8.3900,-0.0622,-0.1222,0.0240,3.5625,7.1875,61.5625,193.7500,-25.1875,162.1875,0
1776973194.126,9.5744,0.4693,1.0534,-0.4013,0.0112,0.3824,-89.1000,4.9500,-27.7500,10.0796,-0.6201,1.3791,-0.8711,-0.0328,0.0877,-90.1500,-27.4500,7.9500,-4.4100,-2.5300,-8.3800,-0.0622,-0.1222,0.0240,3.5625,7.1875,61.5625,193.7500,-25.1875,162.1875,0
1776973194.131,9.5337,0.3735,1.2617,-0.4756,0.0021,0.3738,-88.6500,3.6000,-28.6500,9.4595,-0.6057,1.7861,-0.9489,-0.0613,0.0767,-89.1000,-29.4000,7.9500,-4.4100,-2.5300,-8.3800,-0.0502,-0.1134,0.0240,3.5625,7.1875,61.5625,193.7500,-25.2500,162.1875,0
1776973194.136,9.5337,0.3735,1.2617,-0.4756,0.0021,0.3738,-88.6500,3.6000,-28.6500,9.4595,-0.6057,1.7861,-0.9489,-0.0613,0.0767,-89.1000,-29.4000,7.9500,-4.4700,-2.5600,-8.4000,-0.0502,-0.1134,0.0240,3.5625,7.1875,61.5625,193.7500,-25.2500,162.1875,0
1776973194.141,9.8090,0.4070,1.4341,-0.5836,-0.0067,0.3701,-88.6500,3.6000,-28.6500,9.8497,-0.5148,1.8316,-0.9715,0.0109,0.0701,-88.9500,-26.5500,6.3000,-4.4700,-2.5600,-8.4000,-0.0436,-0.1004,0.0240,3.5625,7.1875,61.5625,193.7500,-25.3125,162.2500,0
1776973194.146,9.8090,0.4070,1.4341,-0.5836,-0.0067,0.3701,-88.6500,3.6000,-28.6500,9.8497,-0.5148,1.8316,-0.9715,0.0109,0.0701,-88.9500,-26.5500,6.3000,-4.4500,-2.5800,-8.3500,-0.0436,-0.1004,0.0240,3.5625,7.1875,61.5625,193.7500,-25.3750,162.2500,0
1776973194.155,9.8186,0.5866,1.3886,-0.6742,-0.0477,0.3557,-88.6500,4.5000,-27.4500,9.8497,-0.4214,2.0925,-1.0746,-0.0304,0.0770,-88.8000,-26.7000,7.2000,-4.3500,-2.6200,-8.3200,-0.0371,-0.0905,0.0175,3.5625,7.1875,61.5625,193.7500,-25.3750,162.2500,0
1776973194.161,9.8569,0.4956,1.2809,-0.7218,-0.0560,0.3528,-88.6500,4.5000,-27.4500,9.7540,-0.2658,2.1931,-1.1101,-0.0160,0.0725,-87.3000,-28.6500,6.1500,-4.3500,-2.6200,-8.3200,-0.0316,-0.0884,0.0196,3.5625,7.1875,61.5625,193.7500,-25.4375,162.3125,0
1776973194.166,9.8569,0.4956,1.2809,-0.7218,-0.0560,0.3528,-88.6500,4.5000,-27.4500,9.6438,-0.2155,2.2362,-1.1820,-0.0213,0.0759,-87.3000,-28.6500,6.1500,-4.4200,-2.6400,-8.3400,-0.0316,-0.0884,0.0196,3.5625,7.1875,61.5625,193.7500,-25.4375,162.3125,0
1776973194.171,9.7923,0.4286,1.3599,-0.6760,-0.0786,0.3456,-89.1000,3.9000,-26.5500,9.6438,-0.2155,2.2362,-1.1820,-0.0213,0.0759,-87.3000,-28.6500,6.1500,-4.4200,-2.6000,-8.4000,-0.0327,-0.0851,0.0207,3.5625,7.1875,62.3750,193.7500,-25.5000,162.3125,0
1776973194.176,9.7923,0.4286,1.3599,-0.6760,-0.0786,0.3456,-89.1000,3.9000,-26.5500,9.6941,-0.1772,2.1452,-1.2460,-0.0314,0.0933,-87.3000,-28.6500,6.1500,-4.4200,-2.6000,-8.4000,-0.0327,-0.0851,0.0207,3.5625,7.1875,62.3750,193.7500,-25.5000,162.3125,0
1776973194.181,9.8497,0.2059,1.2330,-0.6619,-0.0885,0.3453,-89.1000,4.9500,-27.0000,9.6941,-0.1772,2.1452,-1.2460,-0.0314,0.0933,-87.3000,-28.6500,6.1500,-4.4200,-2.6000,-8.4000,-0.0316,-0.0840,0.0251,3.5625,7.1875,62.3750,193.7500,-25.5625,162.3125,0
1776973194.186,9.8497,0.2059,1.2330,-0.6619,-0.0885,0.3453,-89.1000,4.9500,-27.0000,9.7252,-0.1532,2.0614,-1.3347,0.0125,0.1100,-87.3000,-28.6500,6.1500,-4.5300,-2.5000,-8.3400,-0.0316,-0.0840,0.0251,3.5625,7.1875,62.3750,193.7500,-25.5625,162.3125,0
1776973194.191,9.8809,0.1939,1.2857,-0.6347,-0.1114,0.3349,-89.4000,3.6000,-27.1500,9.7252,-0.1532,2.0614,-1.3347,0.0125,0.1100,-90.9000,-27.4500,5.8500,-4.5300,-2.5000,-8.3400,-0.0273,-0.0720,0.0218,3.5625,7.1875,62.3750,193.7500,-25.6250,162.3750,0
1776973194.196,9.8809,0.1939,1.2857,-0.6347,-0.1114,0.3349,-89.4000,3.6000,-27.1500,9.5744,-0.0192,2.0183,-1.3971,0.0226,0.1346,-90.4500,-26.2500,7.0500,-4.4900,-2.4900,-8.4000,-0.0273,-0.0720,0.0218,3.5625,7.1875,62.3750,193.7500,-25.6875,162.3750,0
1776973194.206,9.8569,0.2897,1.4293,-0.6059,-0.1460,0.3235,-88.2000,4.0500,-27.1500,9.6223,0.0910,2.0183,-1.4080,-0.0045,0.1514,-90.4500,-26.2500,7.0500,-4.4900,-2.5100,-8.3700,-0.0284,-0.0600,0.0153,3.5625,7.1875,62.3750,193.7500,-25.6875,162.3750,0
1776973194.212,9.8378,0.3807,1.3360,-0.6105,-0.1705,0.3150,-88.2000,4.0500,-27.1500,9.6223,0.0910,2.0183,-1.4080,-0.0045,0.1514,-90.9000,-28.6500,6.4500,-4.5300,-2.5400,-8.3900,-0.0305,-0.0469,0.0098,3.5625,7.1875,62.3750,193.7500,-25.6875,162.3750,0
1776973194.217,9.8833,0.5315,1.3527,-0.5838,-0.1775,0.3110,-88.2000,4.0500,-27.1500,9.7324,0.1628,1.9776,-1.3997,-0.0530,0.1689,-90.6000,-26.7000,6.9000,-4.5300,-2.5400,-8.3900,-0.0305,-0.0469,0.0098,3.5625,7.1875,62.3750,193.7500,-25.6875,162.3750,0
1776973194.222,9.8833,0.5315,1.3527,-0.5838,-0.1775,0.3110,-87.6000,3.0000,-27.0000,9.7324,0.1628,1.9776,-1.3997,-0.0530,0.1689,-90.6000,-26.7000,6.9000,-4.5300,-2.5400,-8.3900,-0.0305,-0.0469,0.0098,3.5625,6.7500,62.0000,193.7500,-25.7500,162.3750,0
1776973194.227,9.8713,0.6201,1.3743,-0.5785,-0.1956,0.3120,-87.6000,3.0000,-27.0000,9.6845,0.2658,1.9968,-1.3451,-0.1034,0.1836,-90.6000,-26.7000,6.9000,-4.5200,-2.5800,-8.3500,-0.0273,-0.0262,0.0044,3.5625,6.7500,62.0000,193.7500,-25.7500,162.3750,0
1776973194.231,9.8713,0.6201,1.3743,-0.5785,-0.1956,0.3120,-87.6000,3.0000,-27.0000,9.6845,0.2658,1.9968,-1.3451,-0.1034,0.1836,-90.6000,-26.7000,6.9000,-4.5200,-2.5800,-8.3500,-0.0273,-0.0262,0.0044,3.5625,6.7500,62.0000,193.7500,-25.7500,162.4375,0
1776973194.236,9.8138,0.6201,1.3695,-0.5620,-0.2084,0.3128,-87.6000,3.0000,-27.0000,9.6534,0.4956,2.0566,-1.3129,-0.1276,0.1905,-91.0500,-27.0000,7.0500,-4.5100,-2.5800,-8.3400,-0.0295,-0.0098,0.0000,3.5625,6.7500,62.0000,193.7500,-25.7500,162.4375,0
1776973194.241,9.8138,0.6201,1.3695,-0.5620,-0.2084,0.3128,-89.4000,2.8500,-27.4500,9.6534,0.4956,2.0566,-1.3129,-0.1276,0.1905,-91.0500,-27.0000,7.0500,-4.5100,-2.5800,-8.3400,-0.0251,0.0076,0.0000,3.5625,6.7500,62.0000,193.7500,-25.7500,162.4375,0
1776973194.246,9.8713,0.7326,1.1540,-0.5588,-0.2254,0.3200,-89.4000,2.8500,-27.4500,9.7588,0.6680,1.9944,-1.2606,-0.1330,0.2012,-90.6000,-25.6500,6.9000,-4.5000,-2.5800,-8.3800,-0.0251,0.0076,0.0000,3.5625,6.7500,62.0000,193.7500,-25.7500,162.4375,0
1776973194.256,9.7827,0.6991,0.9529,-0.6142,-0.2547,0.3166,-88.2000,3.3000,-28.6500,9.8617,0.7326,1.9872,-1.2127,-0.1215,0.1927,-91.9500,-25.9500,6.4500,-4.4300,-2.6000,-8.3400,-0.0185,0.0273,-0.0011,3.5625,6.7500,62.0000,193.7500,-25.7500,162.4375,0
1776973194.263,9.7827,0.6991,0.9529,-0.6142,-0.2547,0.3166,-86.7000,4.0500,-28.2000,9.8713,0.7757,1.9896,-1.1509,-0.1162,0.1785,-91.9500,-25.9500,6.4500,-4.4500,-2.6300,-8.3400,-0.0175,0.0284,0.0000,3.5625,6.7500,62.0000,193.7500,-25.7500,162.5000,0
1776973194.268,9.6845,0.2705,0.9673,-0.6811,-0.2603,0.3192,-86.7000,4.0500,-28.2000,9.8713,0.7757,1.9896,-1.1509,-0.1162,0.1785,-91.3500,-27.1500,5.8500,-4.4500,-2.6300,-8.3400,-0.0175,0.0284,0.0000,3.5625,6.7500,62.0000,193.7500,-25.7500,162.5000,0
1776973194.272,9.6845,0.2705,0.9673,-0.6811,-0.2603,0.3192,-87.4500,2.8500,-27.4500,9.8545,0.8092,1.8076,-1.0986,-0.0930,0.1522,-91.3500,-27.1500,5.8500,-4.4400,-2.5800,-8.3200,-0.0164,0.0316,0.0055,4.2500,7.1875,61.1875,193.7500,-25.7500,162.5000,0
1776973194.277,9.8067,0.0958,1.1396,-0.7029,-0.2726,0.3275,-87.4500,2.8500,-27.4500,9.8545,0.8092,1.8076,-1.0986,-0.0930,0.1522,-91.0500,-27.3000,8.8500,-4.4400,-2.5800,-8.3200,-0.0164,0.0316,0.0055,4.2500,7.1875,61.1875,193.7500,-25.7500,162.5000,0
1776973194.282,9.8067,0.0958,1.1396,-0.7029,-0.2726,0.3275,-87.0000,3.3000,-28.6500,9.8138,0.7973,1.6233,-1.0960,-0.0999,0.1319,-91.0500,-27.3000,8.8500,-4.4400,-2.4900,-8.3600,-0.0164,0.0349,0.0098,4.2500,7.1875,61.1875,193.7500,-25.7500,162.5000,0
1776973194.287,9.7947,0.4741,1.1061,-0.7506,-0.2830,0.3440,-87.0000,3.3000,-28.6500,9.8138,0.7973,1.6233,-1.0960,-0.0999,0.1319,-91.0500,-27.3000,8.8500,-4.4400,-2.4900,-8.3600,-0.0164,0.0349,0.0098,4.2500,7.1875,61.1875,193.7500,-25.7500,162.5000,0
1776973194.293,9.7372,0.8715,0.8691,-0.7506,-0.2830,0.3440,-89.5500,3.0000,-27.3000,9.7899,0.8164,1.5419,-1.1202,-0.1170,0.1231,-91.0500,-27.3000,8.8500,-4.4800,-2.4700,-8.4000,-0.0120,0.0371,0.0109,4.2500,7.1875,61.1875,193.8125,-25.6875,162.5000,0
1776973194.298,9.7372,0.8715,0.8691,-0.8021,-0.2971,0.3555,-89.5500,3.0000,-27.3000,9.7899,0.8164,1.5419,-1.1202,-0.1170,0.1231,-88.9500,-27.0000,6.7500,-4.4800,-2.4700,-8.4000,-0.0120,0.0371,0.0109,4.2500,7.1875,61.1875,193.8125,-25.6875,162.5000,0
1776973194.306,9.7037,1.2210,0.7039,-0.8162,-0.3022,0.3765,-89.5500,3.0000,-27.3000,9.7109,0.8835,1.2905,-1.1746,-0.1228,0.1268,-90.7500,-26.5500,7.3500,-4.4900,-2.5100,-8.3500,-0.0055,0.0415,0.0120,4.2500,7.1875,61.1875,193.8125,-25.6875,162.5000,0
1776973194.314,9.5337,1.3886,0.5411,-0.8055,-0.2998,0.3938,-87.4500,2.4000,-28.9500,9.7779,0.9553,1.0415,-1.2398,-0.1194,0.1231,-90.0000,-25.5000,7.0500,-4.4500,-2.6200,-8.3100,-0.0044,0.0524,0.0098,4.2500,7.1875,61.1875,193.8125,-25.6875,162.5625,0
1776973194.319,9.5337,1.3886,0.5411,-0.8055,-0.2998,0.3938,-87.4500,2.4000,-28.9500,9.7779,0.9553,1.0415,-1.2398,-0.1194,0.1231,-90.0000,-25.5000,7.0500,-4.4500,-2.6200,-8.3100,-0.0044,0.0524,0.0098,4.2500,7.1875,61.1875,193.8125,-25.6875,162.5625,0
1776973194.324,9.5265,1.4054,0.2634,-0.8103,-0.2934,0.4151,-87.4500,2.4000,-28.9500,9.9024,1.1061,0.7805,-1.2676,-0.1295,0.1308,-91.0500,-26.2500,6.7500,-4.4300,-2.5800,-8.3100,-0.0065,0.0698,0.0109,4.2500,7.8750,62.7500,193.8125,-25.6875,162.5625,0
1776973194.329,9.5265,1.4054,0.2634,-0.8103,-0.2934,0.4151,-87.4500,2.4000,-28.9500,9.9024,1.1061,0.7805,-1.2676,-0.1295,0.1308,-91.0500,-26.2500,6.7500,-4.4300,-2.5800,-8.3100,-0.0065,0.0698,0.0109,4.2500,7.8750,62.7500,193.8125,-25.6875,162.5625,0
1776973194.333,9.6367,1.5538,0.2873,-0.7935,-0.2846,0.4567,-86.2500,2.4000,-28.9500,9.8857,1.3455,0.6416,-1.2790,-0.1463,0.1255,-91.0500,-26.2500,6.7500,-4.3900,-2.6000,-8.3200,-0.0185,0.0709,0.0098,4.2500,7.8750,62.7500,193.8125,-25.6250,162.5625,0
1776973194.338,9.6367,1.5538,0.2873,-0.7935,-0.2846,0.4567,-86.2500,2.4000,-28.9500,9.8857,1.3455,0.6416,-1.2790,-0.1463,0.1255,-91.0500,-26.2500,6.7500,-4.3900,-2.6000,-8.3200,-0.0185,0.0709,0.0098,4.2500,7.8750,62.7500,193.8125,-25.6250,162.5625,0
1776973194.344,9.7276,1.8986,0.2586,-0.7954,-0.2843,0.4884,-86.5500,3.9000,-29.8500,9.8306,1.6089,0.6249,-1.2628,-0.1820,0.1124,-90.6000,-25.6500,6.1500,-4.3900,-2.5400,-8.3700,-0.0229,0.0720,0.0087,4.2500,7.8750,62.7500,193.8125,-25.6250,162.5625,0
1776973194.349,9.7276,1.8986,0.2586,-0.7954,-0.2843,0.4884,-86.5500,3.9000,-29.8500,9.8306,1.6089,0.6249,-1.2628,-0.1820,0.1124,-90.6000,-25.6500,6.1500,-4.3900,-2.5400,-8.3700,-0.0229,0.0720,0.0087,4.2500,7.8750,62.7500,193.8125,-25.5625,162.6250,0
1776973194.356,9.7899,1.9058,0.2227,-0.7914,-0.2713,0.5156,-87.0000,3.6000,-29.4000,9.8474,1.8100,0.6345,-1.2452,-0.2022,0.0877,-90.9000,-26.4000,7.2000,-4.2700,-2.7300,-8.3300,-0.0262,0.0753,0.0120,4.2500,7.8750,62.7500,193.8125,-25.5625,162.6250,0
1776973194.363,9.7971,1.7861,0.3831,-0.7392,-0.2611,0.5620,-86.8500,1.5000,-28.8000,9.9120,1.9848,0.8452,-1.2726,-0.2406,0.0786,-90.6000,-25.6500,7.6500,-4.2800,-2.6700,-8.3900,-0.0295,0.0665,0.0164,4.2500,7.8750,62.7500,193.8750,-25.5625,162.6250,0
1776973194.368,9.7971,1.7861,0.3831,-0.7392,-0.2611,0.5620,-86.8500,1.5000,-28.8000,9.9120,1.9848,0.8452,-1.2726,-0.2406,0.0786,-90.6000,-25.6500,7.6500,-4.2800,-2.6700,-8.3900,-0.0295,0.0665,0.0164,4.2500,7.8750,62.7500,193.8750,-25.5625,162.6250,0
1776973194.373,9.8785,1.6831,0.2298,-0.7240,-0.2675,0.6057,-86.8500,1.5000,-28.8000,9.9503,2.0207,1.1708,-1.3515,-0.2523,0.0741,-93.1500,-27.9000,8.2500,-4.3400,-2.7100,-8.3800,-0.0338,0.0622,0.0229,3.8750,6.3750,61.5625,193.8750,-25.5000,162.6875,0
1776973194.378,9.8785,1.6831,0.2298,-0.7240,-0.2675,0.6057,-86.8500,1.5000,-28.8000,9.9503,2.0207,1.1708,-1.3515,-0.2523,0.0741,-93.1500,-27.9000,8.2500,-4.3400,-2.7100,-8.3800,-0.0338,0.0622,0.0229,3.8750,6.3750,61.5625,193.8750,-25.5000,162.6875,0
1776973194.383,9.7229,1.2833,-0.1030,-0.6963,-0.2598,0.6422,-87.3000,2.7000,-29.5500,9.7612,1.9082,1.4868,-1.4325,-0.2681,0.0733,-92.5500,-27.3000,7.3500,-4.3100,-2.7400,-8.4000,-0.0338,0.0665,0.0262,3.8750,6.3750,61.5625,193.8750,-25.5000,162.6875,0
1776973194.388,9.7229,1.2833,-0.1030,-0.6963,-0.2598,0.6422,-87.3000,2.7000,-29.5500,9.7612,1.9082,1.4868,-1.4325,-0.2681,0.0733,-92.5500,-27.3000,7.3500,-4.3100,-2.7400,-8.4000,-0.0338,0.0665,0.0262,3.8750,6.3750,61.5625,193.8750,-25.5000,162.6875,0
1776973194.392,9.6869,1.0822,-0.0144,-0.6438,-0.2547,0.6763,-87.3000,2.7000,-29.5500,9.8019,1.6951,1.7621,-1.4719,-0.2630,0.0634,-92.5500,-27.3000,7.3500,-4.4200,-2.6200,-8.4100,-0.0382,0.0545,0.0284,3.8750,6.3750,61.5625,193.8750,-25.4375,162.6875,0
1776973194.397,9.6869,1.0822,-0.0144,-0.6438,-0.2547,0.6763,-87.3000,2.7000,-29.5500,9.8019,1.6951,1.7621,-1.4719,-0.2630,0.0634,-92.5500,-27.3000,7.3500,-4.4200,-2.6200,-8.4100,-0.0382,0.0545,0.0284,3.8750,6.3750,61.5625,193.9375,-25.4375,162.7500,0
1776973194.406,9.6175,1.0319,-0.2586,-0.6320,-0.2457,0.7035,-87.3000,3.0000,-30.6000,9.8330,1.4030,1.7190,-1.5018,-0.2766,0.0565,-93.0000,-27.7500,7.3500,-4.3400,-2.6200,-8.4900,-0.0382,0.0545,0.0327,3.8750,6.3750,61.5625,193.9375,-25.4375,162.7500,0
1776973194.412,9.5457,0.8188,-0.2346,-0.6411,-0.2238,0.7341,-87.3000,3.0000,-30.6000,9.7013,1.1109,1.6975,-1.4727,-0.2723,0.0296,-93.0000,-27.7500,7.3500,-4.3600,-2.5900,-8.4300,-0.0349,0.0611,0.0338,3.8750,6.3750,61.5625,193.9375,-25.4375,162.7500,0
1776973194.417,9.5457,0.8188,-0.2346,-0.6411,-0.2238,0.7341,-86.5500,1.9500,-30.3000,9.7013,1.1109,1.6975,-1.4727,-0.2723,0.0296,-92.2500,-28.5000,8.1000,-4.3600,-2.5900,-8.4300,-0.0349,0.0611,0.0338,3.8750,6.3750,61.5625,193.9375,-25.4375,162.7500,0
1776973194.422,9.6438,0.7949,-0.0096,-0.6198,-0.2316,0.7506,-86.5500,1.9500,-30.3000,9.7037,0.8452,1.5514,-1.4575,-0.2904,-0.0059,-92.2500,-28.5000,8.1000,-4.3600,-2.5900,-8.4300,-0.0251,0.0633,0.0338,4.6875,6.7500,61.1875,193.9375,-25.3750,162.8125,0
1776973194.427,9.6438,0.7949,-0.0096,-0.6198,-0.2316,0.7506,-86.2500,1.3500,-30.1500,9.7037,0.8452,1.5514,-1.4575,-0.2904,-0.0059,-93.3000,-26.5500,8.1000,-4.3200,-2.7300,-8.3900,-0.0251,0.0633,0.0338,4.6875,6.7500,61.1875,193.9375,-25.3750,162.8125,0
1776973194.431,9.7971,1.1492,0.4046,-0.6091,-0.2470,0.7674,-86.2500,1.3500,-30.1500,9.4739,0.6967,1.4485,-1.4304,-0.3030,-0.0562,-93.3000,-26.5500,8.1000,-4.3200,-2.7300,-8.3900,-0.0196,0.0633,0.0349,4.6875,6.7500,61.1875,194.0000,-25.3750,162.8125,0
1776973194.437,9.8426,1.5443,0.3591,-0.6091,-0.2470,0.7674,-85.0500,-1.5000,-30.3000,9.4739,0.6967,1.4485,-1.4304,-0.3030,-0.0562,-90.0000,-27.3000,8.5500,-4.2800,-2.6000,-8.4300,-0.0196,0.0633,0.0349,4.6875,6.7500,61.1875,194.0000,-25.3750,162.8125,0
1776973194.441,9.8426,1.5443,0.3591,-0.6209,-0.2497,0.7871,-85.0500,-1.5000,-30.3000,9.2273,0.4621,1.2713,-1.3915,-0.3027,-0.1058,-90.0000,-27.3000,8.5500,-4.2800,-2.6000,-8.4300,-0.0153,0.0622,0.0415,4.6875,6.7500,61.1875,194.0000,-25.3125,162.8750,0
1776973194.447,9.9982,1.6520,-0.0192,-0.6209,-0.2497,0.7871,-85.9500,2.1000,-29.7000,9.4308,0.1413,0.8475,-1.3241,-0.3035,-0.1615,-90.0000,-27.3000,8.5500,-4.3300,-2.7100,-8.5000,-0.0153,0.0622,0.0415,4.6875,6.7500,61.1875,194.0000,-25.3125,162.8750,0
1776973194.456,10.1059,0.9074,-0.5626,-0.6424,-0.2438,0.8124,-87.4500,1.3500,-30.1500,9.4308,0.1413,0.8475,-1.3241,-0.3035,-0.1615,-90.0000,-27.3000,8.5500,-4.2700,-2.8800,-8.4300,-0.0065,0.0545,0.0447,4.6875,6.7500,61.1875,194.0000,-25.3125,162.8750,0
1776973194.461,10.1059,0.9074,-0.5626,-0.7000,-0.2324,0.8322,-87.4500,1.3500,-30.1500,9.7468,-0.0910,0.5171,-1.2572,-0.3528,-0.2070,-90.0000,-27.3000,8.5500,-4.2700,-2.8800,-8.4300,-0.0033,0.0753,0.0502,4.6875,6.7500,61.1875,194.0625,-25.3125,162.8750,0
1776973194.467,10.0868,-0.2203,-0.8859,-0.7797,-0.2209,0.8439,-87.4500,1.3500,-30.1500,9.8689,-0.3831,0.2825,-1.2585,-0.3544,-0.2545,-91.5000,-24.0000,8.1000,-4.2600,-3.0400,-8.4200,-0.0033,0.0753,0.0502,4.6875,6.7500,61.1875,194.0625,-25.3125,162.8750,0
1776973194.472,10.0868,-0.2203,-0.8859,-0.7797,-0.2209,0.8439,-87.4500,1.3500,-30.1500,9.8689,-0.3831,0.2825,-1.2585,-0.3544,-0.2545,-90.9000,-25.6500,7.6500,-4.2600,-3.0400,-8.4200,-0.0033,0.0753,0.0502,3.8750,7.1875,62.3750,194.1250,-25.2500,162.8750,0
1776973194.477,10.0317,-1.1420,-1.1660,-0.8945,-0.1969,0.8615,-85.5000,0.1500,-29.7000,10.1370,-0.7015,0.1604,-1.3121,-0.3296,-0.2960,-90.9000,-25.6500,7.6500,-4.2600,-2.9100,-8.4500,0.0022,0.1244,0.0709,3.8750,7.1875,62.3750,194.1250,-25.2500,162.8750,0
1776973194.482,10.0317,-1.1420,-1.1660,-0.8945,-0.1969,0.8615,-85.5000,0.1500,-29.7000,10.1370,-0.7015,0.1604,-1.3121,-0.3296,-0.2960,-89.1000,-23.4000,4.8000,-4.2600,-2.9100,-8.4500,0.0022,0.1244,0.0709,3.8750,7.1875,62.3750,194.1875,-25.1875,162.9375,0
1776973194.487,10.0509,-1.1851,-1.4892,-1.0882,-0.1679,0.8724,-85.0500,-0.3000,-29.2500,10.2256,-0.9026,0.2346,-1.3755,-0.3816,-0.3373,-89.1000,-23.4000,4.8000,-4.2800,-2.9500,-8.4700,0.0153,0.1800,0.0894,3.8750,7.1875,62.3750,194.2500,-25.0625,162.9375,0
1776973194.496,10.1801,-1.2115,-1.6376,-1.2359,-0.1415,0.8575,-85.8000,-0.3000,-31.3500,10.3358,-1.0942,0.3328,-1.4746,-0.3906,-0.3885,-88.5000,-22.0500,4.5000,-4.0900,-2.7800,-8.8100,0.0382,0.2727,0.1156,3.8750,7.1875,62.3750,194.3750,-24.9375,162.9375,0
1776973194.506,10.3789,-0.6991,-1.6281,-1.3182,-0.0632,0.7679,-84.6000,-0.7500,-29.2500,10.2711,-1.3910,0.4334,-1.6204,-0.4660,-0.4551,-88.5000,-22.0500,4.5000,-3.3500,-3.1600,-9.3400,0.0796,0.2814,0.1516,3.8750,7.1875,62.3750,194.3750,-24.9375,162.9375,0
1776973194.516,10.2232,-0.5411,-1.4413,-1.4005,-0.0504,0.6883,-85.3500,-0.3000,-32.1000,10.1203,-1.6448,0.2921,-1.6603,-0.5718,-0.5271,-88.2000,-20.5500,2.8500,-3.9900,-3.0400,-8.6900,0.1385,0.2302,0.2323,3.8750,7.1875,62.3750,194.5625,-24.8125,162.9375,0
1776973194.521,10.2232,-0.5411,-1.4413,-1.4005,-0.0504,0.6883,-85.3500,-0.3000,-32.1000,10.1203,-1.6448,0.2921,-1.6603,-0.5718,-0.5271,-86.7000,-20.2500,1.0500,-3.9900,-3.0400,-8.6900,0.1385,0.2302,0.2323,3.8750,7.1875,62.3750,194.5625,-24.8125,162.9375,0
1776973194.526,10.8481,-1.3503,-2.0255,-1.3480,-0.0496,0.6366,-84.6000,-1.5000,-30.6000,10.5177,-1.6257,0.0527,-1.7368,-0.6963,-0.5846,-86.7000,-20.2500,1.0500,-3.6200,-1.9700,-9.4400,0.1756,0.1527,0.3927,3.1875,6.0625,62.0000,194.8125,-24.8125,163.0000,0
1776973194.531,10.8481,-1.3503,-2.0255,-1.3480,-0.0496,0.6366,-84.6000,-1.5000,-30.6000,10.5177,-1.6257,0.0527,-1.7368,-0.6963,-0.5846,-86.2500,-19.9500,0.7500,-3.6200,-1.9700,-9.4400,0.1756,0.1527,0.3927,3.1875,6.0625,62.0000,194.8125,-24.8125,163.0000,0
1776973194.536,11.0468,-2.3655,-1.4413,-1.5412,-0.0048,0.6432,-84.6000,-1.5000,-30.6000,10.8314,-1.4030,-0.4142,-1.5308,-0.8364,-0.6568,-86.2500,-19.9500,0.7500,-2.0300,-0.2300,-10.7100,0.2269,0.2073,0.6152,3.1875,6.0625,62.0000,195.1875,-24.8125,163.0000,0
1776973194.541,11.0468,-2.3655,-1.4413,-1.5412,-0.0048,0.6432,-84.6000,-1.5000,-30.6000,10.8314,-1.4030,-0.4142,-1.5308,-0.8364,-0.6568,-85.8000,-19.2000,1.5000,-2.0300,-0.2300,-10.7100,0.2029,0.1658,0.7069,3.1875,6.0625,62.0000,195.6250,-24.8125,163.0625,0
1776973194.547,10.8314,-3.1364,-1.7549,-1.7032,0.0109,0.6480,-84.1500,0.3000,-29.8500,10.9056,-1.2689,-0.8308,-1.5660,-0.8399,-0.7011,-85.8000,-19.2000,1.5000,-3.8100,-2.3900,-9.3000,0.2029,0.1658,0.7069,3.1875,6.0625,62.0000,196.1250,-24.8750,163.0625,0
1776973194.556,10.3549,-3.2082,-0.9840,-1.7645,0.0999,0.5782,-84.1500,0.3000,-29.8500,11.2288,-0.9936,-1.0630,-1.6451,-0.7655,-0.7269,-85.8000,-19.2000,1.5000,-3.6500,-3.1000,-9.3500,0.3905,0.1582,0.8519,3.1875,6.0625,62.0000,196.1250,-24.8750,163.0625,0
1776973194.566,10.0676,-3.6176,-0.2370,-1.8655,0.1535,0.4743,-83.1000,-1.0500,-32.1000,11.2216,-0.7111,-1.4341,-1.5601,-0.7362,-0.7592,-85.8000,-19.2000,1.5000,-3.9200,-2.6700,-8.9800,0.7189,0.0709,1.0297,3.1875,6.0625,62.0000,196.8125,-25.0000,162.9375,0
1776973194.571,10.0676,-3.6176,-0.2370,-1.8655,0.1535,0.4743,-83.1000,-1.0500,-32.1000,11.2216,-0.7111,-1.4341,-1.5601,-0.7362,-0.7592,-87.4500,-22.8000,2.1000,-3.9200,-2.6700,-8.9800,0.7189,0.0709,1.0297,3.1875,6.0625,62.0000,196.8125,-25.0000,162.9375,0
1776973194.576,9.9551,-3.5482,0.7278,-1.9007,0.1777,0.3248,-83.1000,-0.7500,-31.8000,10.8793,-0.7805,-1.7693,-1.3867,-0.8268,-0.7831,-87.4500,-22.8000,2.1000,-3.6400,-2.2600,-9.3000,1.0232,0.0829,1.2577,2.8750,6.7500,62.3750,197.6250,-25.1875,162.6875,0
1776973194.581,9.9551,-3.5482,0.7278,-1.9007,0.1777,0.3248,-83.1000,-0.7500,-31.8000,10.8793,-0.7805,-1.7693,-1.3867,-0.8268,-0.7831,-87.1500,-25.5000,2.1000,-3.6400,-2.2600,-9.3000,1.0232,0.0829,1.2577,2.8750,6.7500,62.3750,197.6250,-25.1875,162.6875,0
1776973194.585,9.8090,-3.5195,1.2426,-2.0688,0.1705,0.1636,-82.2000,0.1500,-32.7000,10.4100,-0.9050,-1.9249,-1.4490,-0.8164,-0.7722,-87.1500,-25.5000,2.1000,-3.5800,-2.6100,-9.1100,1.2850,0.1713,1.5250,2.8750,6.7500,62.3750,198.6875,-25.3125,162.3750,0
1776973194.590,9.8090,-3.5195,1.2426,-2.0688,0.1705,0.1636,-82.2000,0.1500,-32.7000,10.4100,-0.9050,-1.9249,-1.4490,-0.8164,-0.7722,-90.6000,-29.4000,4.8000,-3.5800,-2.6100,-9.1100,1.5512,0.2891,1.8086,2.8750,6.7500,62.3750,199.8750,-25.5000,162.0000,0
1776973194.597,9.8138,-3.6607,1.7358,-2.2135,0.1943,-0.0181,-84.0000,-0.1500,-31.6500,10.9607,-2.6552,-2.1739,-1.3731,-0.4082,-0.7775,-90.6000,-29.4000,4.8000,-3.1600,-2.6700,-9.1600,1.5512,0.2891,1.8086,2.8750,6.7500,62.3750,201.3125,-25.6250,161.5625,0
1776973194.606,9.7420,-3.7134,2.0997,-2.3633,0.1311,-0.2196,-83.2500,0.1500,-30.9000,11.4634,-3.1125,-0.1580,-0.6201,-0.5193,-0.8700,-91.3500,-33.9000,6.4500,-2.7200,-2.3500,-9.9600,1.8130,0.4385,2.0966,2.8750,6.7500,62.3750,201.3125,-25.6250,161.5625,0
1776973194.616,9.5289,-3.8690,1.7813,-2.5913,0.0783,-0.3936,-83.4000,1.9500,-31.3500,11.8800,-3.3040,0.6273,-0.8535,-0.5955,-0.7365,-91.3500,-33.9000,6.4500,-4.7500,-2.4300,-10.0600,2.0966,0.5760,2.3715,2.8750,6.7500,62.3750,203.0000,-25.7500,161.0625,0
1776973194.621,9.3925,-4.3886,1.6592,-2.8919,0.0402,-0.5231,-83.4000,1.9500,-31.3500,11.4179,-1.2857,1.3120,-0.7493,-1.1658,-0.4317,-96.4500,-34.9500,6.9000,-4.7500,-2.4300,-10.0600,2.0966,0.5760,2.3715,2.8750,6.7500,62.3750,203.0000,-25.7500,161.0625,0
