timestamp,thigh_acc_x,thigh_acc_y,thigh_acc_z,thigh_gyro_x,thigh_gyro_y,thigh_gyro_z,thigh_mag_x,thigh_mag_y,thigh_mag_z,shank_acc_x,shank_acc_y,shank_acc_z,shank_gyro_x,shank_gyro_y,shank_gyro_z,shank_mag_x,shank_mag_y,shank_mag_z,foot_acc_x,foot_acc_y,foot_acc_z,foot_gyro_x,foot_gyro_y,foot_gyro_z,foot_mag_x,foot_mag_y,foot_mag_z,foot_euler_x,foot_euler_y,foot_euler_z,perturbation_event
1776971924.940,8.4300,0.8164,-0.5986,0.9222,-0.7298,-1.5759,-88.9500,9.1500,-1.6500,9.9192,-2.7725,-2.3511,1.1594,-2.2084,0.4583,14.8500,18.0000,-177.0000,11.1600,3.1500,-6.3300,0.9098,3.3445,1.6155,-25.6875,-11.5000,16.0625,164.9375,65.8750,-171.5625,0
1776971924.949,8.7101,1.1899,0.1341,1.1948,-0.5860,-1.6188,-88.9500,9.1500,-1.6500,9.5217,-3.9672,-2.2218,1.4280,-2.2284,0.5494,14.8500,18.0000,-177.0000,12.1900,1.7200,-7.0100,1.0417,3.3390,1.8075,-25.6875,-11.5000,16.0625,164.9375,65.8750,-171.5625,0
1776971924.959,9.1506,1.4892,0.4501,1.5172,-0.4655,-1.6174,-88.9500,10.6500,-1.2000,9.3326,-4.1851,-3.4093,1.3065,-2.4501,0.7322,18.1500,18.7500,-178.0500,10.4500,2.4200,-4.2000,1.0047,3.2169,1.9515,-25.6875,-11.5000,16.0625,162.8750,67.7500,-174.0625,0
1776971924.964,9.2847,2.0111,0.3448,1.5172,-0.4655,-1.6174,-88.9500,10.6500,-1.2000,8.5976,-5.6551,-4.2425,1.2103,-2.6073,0.7719,18.1500,18.7500,-178.0500,10.4500,2.4200,-4.2000,1.0047,3.2169,1.9515,-25.6875,-11.5000,16.0625,161.0000,69.6875,-177.1250,0
1776971924.969,9.2847,2.0111,0.3448,1.5902,-0.2625,-1.5913,-88.9500,10.6500,-1.2000,8.5976,-5.6551,-4.2425,1.2103,-2.6073,0.7719,19.6500,13.2000,-177.4500,14.2400,3.0800,-7.4300,0.7745,3.3696,2.0671,-29.3750,-10.3750,10.1875,161.0000,69.6875,-177.1250,0
1776971924.974,9.7995,2.1069,0.8404,1.5505,-0.0829,-1.5527,-88.9500,10.6500,-1.2000,8.1618,-6.9456,-5.2289,1.0038,-2.7368,0.7144,19.6500,13.2000,-177.4500,14.2400,3.0800,-7.4300,0.7745,3.3696,2.0671,-29.3750,-10.3750,10.1875,159.4375,71.4375,179.3125,0
1776971924.979,9.7995,2.1069,0.8404,1.5505,-0.0829,-1.5527,-88.3500,13.9500,-2.5500,8.1618,-6.9456,-5.2289,1.0038,-2.7368,0.7144,20.1000,5.4000,-175.3500,15.7600,3.7100,-7.3600,0.4560,3.1176,2.1206,-29.3750,-10.3750,10.1875,159.4375,71.4375,179.3125,0
1776971924.986,10.5632,1.7142,0.9266,1.6710,0.0277,-1.4743,-88.3500,13.9500,-2.5500,8.6191,-7.4412,-4.9057,0.8982,-2.6684,0.6627,20.1000,5.4000,-175.3500,14.5100,4.7400,-6.8900,0.3054,2.6573,2.2580,-29.3750,-10.3750,10.1875,158.0000,72.8750,175.0625,0
1776971924.991,10.5632,1.7142,0.9266,1.6710,0.0277,-1.4743,-86.8500,15.1500,-3.6000,7.7285,-7.9009,-4.9871,0.8881,-2.5250,0.6403,20.7000,-0.7500,-172.3500,14.5100,4.7400,-6.8900,0.3054,2.6573,2.2580,-29.3750,-10.3750,10.1875,156.3125,73.8125,169.6875,0
1776971925.000,10.9870,1.3958,0.6991,1.7997,0.1103,-1.4226,-87.4500,15.7500,-1.9500,7.2233,-7.6495,-5.2481,0.8266,-2.4291,0.5316,19.2000,-7.5000,-167.4000,13.8000,3.7700,-7.7500,0.5454,2.0300,2.4762,-29.3750,-10.3750,10.1875,156.3125,73.8125,169.6875,0
1776971925.010,11.2312,1.0080,0.8236,1.8095,0.1282,-1.4061,-87.7500,15.7500,-3.7500,5.5186,-7.1898,-5.4779,0.7027,-2.6430,0.5095,19.2000,-7.5000,-167.4000,11.7700,4.3100,-8.8500,0.8628,1.5010,2.4249,-29.3750,-10.3750,10.1875,154.3750,74.3125,163.9375,0
1776971925.015,11.3940,0.5243,0.9194,1.8053,0.1316,-1.4157,-87.7500,15.7500,-3.7500,5.5186,-7.1898,-5.4779,0.7027,-2.6430,0.5095,19.2000,-7.5000,-167.4000,11.7700,4.3100,-8.8500,0.8628,1.5010,2.4249,-29.3750,-10.3750,10.1875,152.2500,74.1875,158.7500,0
1776971925.020,11.3940,0.5243,0.9194,1.8053,0.1316,-1.4157,-87.4500,16.5000,-4.2000,3.7469,-7.6040,-4.3790,0.8308,-2.2636,0.2577,15.9000,-26.2500,-154.5000,9.4500,7.3300,-10.2300,1.2512,0.4931,2.2526,-33.0625,-6.0000,5.6875,152.2500,74.1875,158.7500,0
1776971925.025,11.3701,0.0814,1.2498,1.8421,0.1828,-1.4445,-87.4500,16.5000,-4.2000,3.7469,-7.6040,-4.3790,0.8308,-2.2636,0.2577,15.9000,-26.2500,-154.5000,9.4500,7.3300,-10.2300,1.2512,0.4931,2.2526,-33.0625,-6.0000,5.6875,149.5000,73.7500,154.3125,0
1776971925.030,11.3701,0.0814,1.2498,1.8421,0.1828,-1.4445,-85.0500,18.0000,-4.8000,3.2130,-5.1739,-3.5506,1.0328,-1.9023,-0.2364,13.3500,-33.0000,-145.6500,15.4400,9.0900,-11.8300,2.4587,-0.1124,1.7693,-33.0625,-6.0000,5.6875,149.5000,73.7500,154.3125,0
1776971925.035,11.5257,-0.1844,1.5850,1.8953,0.2673,-1.4512,-85.0500,18.0000,-4.8000,3.2130,-5.1739,-3.5506,1.0328,-1.9023,-0.2364,13.3500,-33.0000,-145.6500,15.4400,9.0900,-11.8300,2.5525,-1.0385,0.9883,-33.0625,-6.0000,5.6875,147.0625,72.9375,152.1250,0
1776971925.041,11.5760,-0.7230,1.6831,1.8953,0.2673,-1.4512,-85.0500,18.0000,-4.8000,3.8810,-3.0670,-4.9967,1.1418,-2.3489,-0.3107,9.6000,-39.9000,-138.3000,9.5500,8.3600,-12.5300,2.5525,-1.0385,0.9883,-33.0625,-6.0000,5.6875,144.7500,72.0000,151.2500,0
1776971925.050,11.2168,0.1772,1.5706,1.8794,0.3704,-1.4317,-86.7000,20.1000,-3.7500,2.9042,-2.4948,-4.1635,1.7557,-1.5609,-0.6294,5.7000,-44.5500,-132.4500,1.4800,5.7500,-6.5300,2.5984,-1.6428,0.5127,-33.0625,-6.0000,5.6875,144.7500,72.0000,151.2500,0
1776971925.060,10.7236,0.4525,1.4485,1.8066,0.4698,-1.4165,-86.7000,20.1000,-3.7500,1.6999,-1.5610,-5.2289,2.2761,-1.4919,-0.8740,6.6000,-46.6500,-125.1000,0.1500,4.4100,-5.1500,2.5362,-1.6112,0.2793,-33.0625,-6.0000,5.6875,142.5625,71.1875,150.7500,0
1776971925.065,10.7236,0.4525,1.4485,1.7501,0.5481,-1.4115,-86.7000,20.1000,-3.7500,1.6999,-1.5610,-5.2289,2.2761,-1.4919,-0.8740,6.6000,-46.6500,-125.1000,0.1500,4.4100,-5.1500,2.5362,-1.6112,0.2793,-33.0625,-6.0000,5.6875,142.5625,71.1875,150.7500,0
1776971925.070,10.3789,0.9888,1.0534,1.7501,0.5481,-1.4115,-85.2000,21.3000,-6.4500,1.4030,-2.2122,-6.1411,2.9004,-0.6747,-1.3249,6.6000,-46.6500,-125.1000,0.5400,3.4600,-5.1100,2.3464,-1.3166,0.1309,-37.5625,0.2500,5.2500,140.5625,70.5000,150.3125,0
1776971925.075,10.3789,0.9888,1.0534,1.6878,0.6595,-1.3646,-85.2000,21.3000,-6.4500,1.4030,-2.2122,-6.1411,2.9004,-0.6747,-1.3249,6.6000,-46.6500,-125.1000,0.5400,3.4600,-5.1100,2.3464,-1.3166,0.1309,-37.5625,0.2500,5.2500,140.5625,70.5000,150.3125,0
1776971925.080,10.1083,1.4293,0.7518,1.6878,0.6595,-1.3646,-84.7500,22.8000,-6.0000,2.6312,-3.3112,-6.5194,3.2839,0.0562,-1.8658,4.9500,-53.5500,-121.0500,1.3200,3.6600,-5.4100,2.0737,-1.0996,-0.0982,-37.5625,0.2500,5.2500,138.9375,70.0000,150.1250,0
1776971925.086,10.1083,1.4293,0.7518,1.6459,0.7653,-1.3209,-84.7500,22.8000,-6.0000,2.6312,-3.3112,-6.5194,3.2839,0.0562,-1.8658,3.9000,-52.0500,-122.1000,4.3200,5.9300,-7.3000,1.8675,-1.0712,-0.3611,-37.5625,0.2500,5.2500,137.6250,69.5625,150.3750,0
1776971925.091,10.1203,2.3703,0.6057,1.6665,0.8823,-1.2812,-84.4500,21.3000,-5.7000,4.4700,-4.4532,-4.7453,3.3310,0.6504,-2.2164,3.9000,-52.0500,-122.1000,4.3200,5.9300,-7.3000,1.8675,-1.0712,-0.3611,-37.5625,0.2500,5.2500,136.4375,69.1875,151.0000,0
1776971925.100,10.1634,2.4852,0.5842,1.8058,0.9411,-1.2859,-83.4000,22.9500,-5.8500,6.2968,-4.9440,-3.3112,2.7779,0.7157,-2.2114,-0.4500,-48.4500,-120.9000,5.4200,6.8900,-7.6300,1.8555,-1.1999,-0.6272,-37.5625,0.2500,5.2500,136.4375,69.1875,151.0000,0
1776971925.110,10.0844,2.1117,0.6153,1.9883,0.9441,-1.3038,-83.7000,25.2000,-6.4500,6.4404,-5.3941,-2.4229,2.3209,0.2459,-2.1514,-1.8000,-44.5500,-119.2500,5.3800,7.0100,-7.0400,2.0148,-1.4726,-0.9152,-37.5625,0.2500,5.2500,135.1875,68.6875,152.0625,0
1776971925.115,10.0844,2.1117,0.6153,1.9883,0.9441,-1.3038,-83.7000,25.2000,-6.4500,6.4404,-5.3941,-2.4229,2.3209,0.2459,-2.1514,-3.4500,-43.2000,-117.3000,5.3800,7.0100,-7.0400,2.0148,-1.4726,-0.9152,-37.5625,0.2500,5.2500,135.1875,68.6875,152.0625,0
1776971925.120,10.1347,1.6664,0.7063,2.1381,0.9539,-1.3235,-82.2000,25.2000,-6.0000,5.0637,-5.4013,-2.4708,2.0651,-0.1018,-2.1464,-3.4500,-43.2000,-117.3000,5.1300,5.4800,-5.8000,2.2406,-1.7541,-1.1901,-41.6875,1.6875,10.1875,133.8750,68.1250,153.4375,0
1776971925.125,10.1347,1.6664,0.7063,2.1381,0.9539,-1.3235,-82.2000,25.2000,-6.0000,5.0637,-5.4013,-2.4708,2.0651,-0.1018,-2.1464,-3.4500,-43.2000,-117.3000,5.1300,5.4800,-5.8000,2.2406,-1.7541,-1.1901,-41.6875,1.6875,10.1875,133.8750,68.1250,153.4375,0
1776971925.130,10.0245,1.2953,0.6464,2.2607,0.9419,-1.3371,-82.2000,25.2000,-6.0000,4.3694,-5.3726,-2.9664,2.0342,-0.0352,-2.2484,-3.4500,-43.2000,-117.3000,5.3600,4.9700,-5.8800,2.3791,-1.9755,-1.4890,-41.6875,1.6875,10.1875,132.6250,67.5000,155.1250,0
1776971925.134,10.0245,1.2953,0.6464,2.2607,0.9419,-1.3371,-82.2000,25.2000,-6.0000,4.3694,-5.3726,-2.9664,2.0342,-0.0352,-2.2484,-4.3500,-40.8000,-116.8500,5.3600,4.9700,-5.8800,2.3649,-2.0737,-1.7922,-41.6875,1.6875,10.1875,131.4375,66.8750,157.0625,0
1776971925.141,9.9934,1.4772,0.7135,2.3505,0.9489,-1.3438,-81.6000,26.1000,-5.8500,4.7501,-5.5091,-4.0749,2.2846,0.2329,-2.4091,-4.3500,-40.8000,-116.8500,5.5100,4.5000,-5.7000,2.3649,-2.0737,-1.7922,-41.6875,1.6875,10.1875,130.5000,66.1875,159.2500,0
1776971925.150,9.9790,1.5706,1.0846,2.3622,0.9571,-1.3443,-81.6000,26.1000,-5.8500,5.7341,-5.6671,-4.4748,2.5405,0.4860,-2.5767,-4.0500,-43.6500,-116.5500,5.0600,3.8200,-5.1600,2.2504,-2.1217,-2.0442,-41.6875,1.6875,10.1875,130.5000,66.1875,159.2500,0
1776971925.160,10.0868,1.7406,1.2426,2.2980,0.9355,-1.3510,-80.8500,28.9500,-6.1500,6.8378,-5.3223,-4.6112,2.4674,0.6254,-2.6809,-5.5500,-40.6500,-117.0000,5.9600,2.7800,-5.0400,2.0846,-2.0289,-2.1751,-41.6875,1.6875,10.1875,129.7500,65.5000,161.5000,0
1776971925.165,10.0868,1.7406,1.2426,2.2980,0.9355,-1.3510,-80.8500,28.9500,-6.1500,7.6231,-4.9608,-4.3311,2.2354,0.6968,-2.7811,-7.3500,-38.7000,-115.5000,5.9600,2.7800,-5.0400,2.0846,-2.0289,-2.1751,-41.6875,1.6875,10.1875,129.7500,65.5000,161.5000,0
1776971925.170,10.1035,1.7909,1.1923,2.2556,0.8929,-1.3598,-79.5000,29.5500,-6.7500,7.6231,-4.9608,-4.3311,2.2354,0.6968,-2.7811,-7.3500,-38.7000,-115.5000,6.9200,2.7900,-5.1800,1.8817,-1.9668,-2.1904,-45.2500,2.3750,15.2500,129.1250,64.8125,163.6875,0
1776971925.175,10.1035,1.7909,1.1923,2.2556,0.8929,-1.3598,-79.5000,29.5500,-6.7500,8.0373,-4.8890,-3.4979,2.0227,0.7602,-2.8610,-6.4500,-37.5000,-115.3500,6.9200,2.7900,-5.1800,1.8817,-1.9668,-2.1904,-45.2500,2.3750,15.2500,129.1250,64.8125,163.6875,0
1776971925.180,10.1562,1.8627,1.2498,2.2242,0.8743,-1.3614,-78.3000,29.1000,-7.5000,8.0373,-4.8890,-3.4979,2.0227,0.7602,-2.8610,-6.4500,-37.5000,-115.3500,7.7300,3.2200,-5.2900,1.7159,-1.9766,-2.1348,-45.2500,2.3750,15.2500,128.6250,64.1250,165.6875,0
1776971925.185,10.0149,2.1404,1.2210,2.2242,0.8743,-1.3614,-78.3000,29.1000,-7.5000,8.0421,-5.2098,-3.0670,1.9817,0.7877,-2.9330,-6.4500,-37.5000,-115.3500,7.7300,3.2200,-5.2900,1.6341,-1.9831,-2.0508,-45.2500,2.3750,15.2500,128.1250,63.3125,167.5625,0
1776971925.191,10.0149,2.1404,1.2210,2.1980,0.8705,-1.3739,-78.9000,30.0000,-8.1000,8.0421,-5.2098,-3.0670,1.9817,0.7877,-2.9330,-6.4500,-37.5000,-115.3500,9.0400,4.4100,-5.2000,1.6341,-1.9831,-2.0508,-45.2500,2.3750,15.2500,127.6250,62.4375,169.1875,0
1776971925.200,9.9240,2.2673,1.1181,2.1919,0.8852,-1.4021,-79.6500,30.9000,-7.6500,7.9871,-5.5785,-2.9521,2.0379,0.8130,-2.9668,-8.4000,-34.2000,-113.1000,10.2400,5.0400,-5.5700,1.6482,-1.9755,-1.9886,-45.2500,2.3750,15.2500,127.6250,62.4375,169.1875,0
1776971925.210,9.8713,2.2266,0.9242,2.1802,0.9172,-1.4003,-77.4000,30.4500,-8.1000,7.9871,-6.0406,-3.4836,2.0981,0.8060,-2.9846,-8.8500,-33.1500,-112.3500,11.2800,5.6000,-5.8300,1.7431,-2.0562,-2.0006,-45.2500,2.3750,15.2500,126.9375,61.5000,170.6875,0
1776971925.215,10.0126,2.2098,0.8619,2.1767,0.9430,-1.3709,-77.4000,30.4500,-8.1000,7.9966,-6.2776,-4.1396,2.1751,0.8180,-3.0094,-9.7500,-32.2500,-112.5000,11.2800,5.6000,-5.8300,1.7431,-2.0562,-2.0006,-45.2500,2.3750,15.2500,126.1875,60.4375,172.0000,0
1776971925.220,10.0126,2.2098,0.8619,2.1767,0.9430,-1.3709,-77.4000,30.4500,-8.1000,7.9966,-6.2776,-4.1396,2.1751,0.8180,-3.0094,-9.7500,-32.2500,-112.5000,11.8300,6.1500,-5.4900,1.8620,-2.2275,-2.0824,-49.3750,-1.5000,26.0625,126.1875,60.4375,172.0000,0
1776971925.225,10.0628,2.1715,0.5052,2.1818,0.9427,-1.3280,-77.4000,30.4500,-8.1000,8.0493,-6.2177,-4.5226,2.2697,0.8881,-3.0742,-10.5000,-31.8000,-110.4000,11.8300,6.1500,-5.4900,1.8620,-2.2275,-2.0824,-49.3750,-1.5000,26.0625,125.3750,59.3125,173.3125,0
1776971925.230,10.0628,2.1715,0.5052,2.1818,0.9427,-1.3280,-75.6000,32.2500,-9.0000,8.0493,-6.2177,-4.5226,2.2697,0.8881,-3.0742,-10.5000,-31.8000,-110.4000,11.4300,5.9800,-4.7700,1.9428,-2.3562,-2.2057,-49.3750,-1.5000,26.0625,125.3750,59.3125,173.3125,0
1776971925.236,9.9838,2.2936,0.5938,2.1767,0.9457,-1.3145,-75.6000,32.2500,-9.0000,8.2624,-5.5138,-4.5131,2.3382,1.0323,-3.1413,-12.3000,-28.5000,-109.9500,11.4300,5.9800,-4.7700,1.9777,-2.3867,-2.3409,-49.3750,-1.5000,26.0625,124.6250,58.1250,174.5625,0
1776971925.241,9.9838,2.2936,0.5938,2.1767,0.9457,-1.3145,-75.6000,32.2500,-9.0000,8.4180,-4.7190,-4.3862,2.2873,1.1607,-3.1813,-12.3000,-28.5000,-109.9500,11.1300,5.8300,-4.1500,1.9777,-2.3867,-2.3409,-49.3750,-1.5000,26.0625,123.8750,56.9375,175.8125,0
1776971925.250,10.2208,2.2338,0.6273,2.1538,0.9382,-1.2926,-76.6500,33.6000,-10.6500,8.4180,-4.7190,-4.3862,2.2873,1.1607,-3.1813,-12.3000,-28.5000,-109.9500,11.2500,5.9800,-3.8700,1.9809,-2.3257,-2.4456,-49.3750,-1.5000,26.0625,123.8750,56.9375,175.8125,0
1776971925.260,10.0940,2.3032,0.5842,2.1610,0.9076,-1.2542,-75.3000,34.2000,-11.5500,8.6383,-4.1037,-4.1444,2.1975,1.2481,-3.1842,-13.9500,-25.6500,-107.7000,12.1000,6.9400,-4.2300,2.0060,-2.2624,-2.5449,-49.3750,-1.5000,26.0625,123.1250,55.8125,176.9375,0
1776971925.265,10.4531,2.2649,0.4932,2.2023,0.8756,-1.2111,-75.3000,34.2000,-11.5500,8.6694,-4.0654,-3.9720,2.1711,1.2841,-3.1578,-13.9500,-25.2000,-108.0000,12.1000,6.9400,-4.2300,2.0060,-2.2624,-2.5449,-49.3750,-1.5000,26.0625,123.1250,55.8125,176.9375,0
1776971925.270,10.4531,2.2649,0.4932,2.2023,0.8756,-1.2111,-74.8500,34.9500,-10.5000,8.6694,-4.0654,-3.9720,2.2356,1.2867,-3.1149,-13.9500,-25.2000,-108.0000,12.4400,7.3800,-4.5300,2.0868,-2.2580,-2.6605,-46.2500,-8.0000,42.0625,122.3125,54.6250,177.9375,0
1776971925.275,10.2615,2.1548,0.2179,2.2212,0.8601,-1.1572,-74.8500,34.9500,-10.5000,8.6407,-4.4053,-3.7900,2.2356,1.2867,-3.1149,-13.5000,-22.9500,-107.4000,12.4400,7.3800,-4.5300,2.0868,-2.2580,-2.6605,-46.2500,-8.0000,42.0625,122.3125,54.6250,177.9375,0
1776971925.280,10.2615,2.1548,0.2179,2.2212,0.8601,-1.1572,-74.1000,35.4000,-12.3000,8.5449,-4.8794,-3.6823,2.3800,1.3131,-3.0680,-13.5000,-22.9500,-107.4000,12.6100,7.6400,-4.7700,2.2067,-2.2875,-2.7991,-46.2500,-8.0000,42.0625,121.3750,53.3750,178.9375,0
1776971925.287,10.2041,2.1021,0.1915,2.2004,0.8934,-1.0864,-74.1000,35.4000,-12.3000,8.5449,-4.8794,-3.6823,2.3800,1.3131,-3.0680,-15.6000,-21.7500,-104.2500,12.9300,7.4400,-5.5100,2.3104,-2.3442,-2.9714,-46.2500,-8.0000,42.0625,120.4375,52.1250,179.8125,0
1776971925.291,10.1682,1.9896,0.1221,2.1330,0.9593,-0.9899,-75.9000,34.8000,-13.6500,8.4731,-5.1643,-3.5003,2.5167,1.3504,-3.0169,-13.9500,-20.7000,-106.6500,12.9300,7.4400,-5.5100,2.3104,-2.3442,-2.9714,-46.2500,-8.0000,42.0625,119.5000,50.7500,-179.2500,0
1776971925.300,9.9814,2.0758,-0.1820,2.1330,0.9593,-0.9899,-73.3500,35.4000,-12.3000,8.2720,-5.2960,-3.3950,2.5708,1.3760,-2.9942,-13.9500,-20.7000,-106.6500,12.8600,7.3100,-5.6300,2.3638,-2.4315,-3.1580,-46.2500,-8.0000,42.0625,119.5000,50.7500,-179.2500,0
1776971925.310,9.7013,1.8268,-0.2586,2.0707,1.0206,-0.7946,-73.3500,35.4000,-12.3000,7.8650,-5.2577,-3.4069,2.5047,1.3995,-3.0126,-13.9500,-20.7000,-106.6500,12.4900,7.1000,-5.4300,2.3616,-2.5329,-3.3390,-46.2500,-8.0000,42.0625,118.5625,49.3125,-178.3750,0
1776971925.315,9.7013,1.8268,-0.2586,2.0707,1.0206,-0.7946,-73.3500,35.4000,-12.3000,7.8650,-5.2577,-3.4069,2.5047,1.3995,-3.0126,-13.0500,-20.2500,-104.2500,12.4900,7.1000,-5.4300,2.3616,-2.5329,-3.3390,-46.2500,-8.0000,42.0625,117.7500,47.8125,-177.5625,0
1776971925.320,9.3996,1.7406,-0.1844,2.0752,1.0115,-0.6859,-73.8000,34.9500,-13.8000,7.4196,-5.0159,-3.4692,2.4011,1.4802,-3.0696,-12.4500,-20.2500,-104.2500,11.5700,6.4900,-4.8900,2.3431,-2.6038,-3.4841,-28.7500,-13.7500,54.2500,117.7500,47.8125,-177.5625,0
1776971925.325,9.3996,1.7406,-0.1844,2.0752,1.0115,-0.6859,-73.8000,34.9500,-13.8000,7.4196,-5.0159,-3.4692,2.4011,1.4802,-3.0696,-12.4500,-15.4500,-102.7500,11.5700,6.4900,-4.8900,2.3431,-2.6038,-3.4841,-28.7500,-13.7500,54.2500,117.7500,47.8125,-177.5625,0
1776971925.330,9.1554,1.4772,-0.1820,2.0877,0.9790,-0.5678,-73.8000,34.9500,-13.8000,7.1946,-4.7429,-3.7469,2.2993,1.6206,-3.1501,-12.7500,-16.9500,-102.7500,11.1800,6.1600,-4.7700,2.3071,-2.6234,-3.5768,-28.7500,-13.7500,54.2500,116.9375,46.2500,-176.7500,0
1776971925.335,9.1554,1.4772,-0.1820,2.0877,0.9790,-0.5678,-73.8000,34.9500,-13.8000,7.1946,-4.7429,-3.7469,2.2993,1.6206,-3.1501,-12.7500,-16.9500,-102.7500,11.1800,6.1600,-4.7700,2.2504,-2.6104,-3.6161,-28.7500,-13.7500,54.2500,108.3125,44.6875,-176.0625,0
1776971925.341,8.9447,1.2019,-0.2370,2.1149,0.9172,-0.4407,-72.4500,37.5000,-15.4500,7.1251,-4.5657,-3.8571,2.2207,1.7901,-3.2287,-12.7500,-12.9000,-101.2500,10.9000,5.9500,-4.7500,2.2504,-2.6104,-3.6161,-28.7500,-13.7500,54.2500,105.8750,43.1250,-175.4375,0
1776971925.351,8.7340,0.9529,-0.3711,2.1405,0.8521,-0.3168,-72.6000,36.9000,-15.6000,7.3287,-4.3407,-3.8834,2.1855,1.9724,-3.2842,-13.5000,-12.9000,-100.2000,10.6500,5.7600,-4.7900,2.1631,-2.5787,-3.6183,-28.7500,-13.7500,54.2500,105.8750,43.1250,-175.4375,0
1776971925.360,8.6455,0.6656,-0.5507,2.1216,0.7903,-0.1927,-73.3500,38.1000,-16.3500,7.6136,-4.0965,-3.6990,2.1962,2.1338,-3.3111,-13.5000,-12.9000,-100.2000,10.3100,5.5700,-4.8600,2.0475,-2.5373,-3.5910,-28.7500,-13.7500,54.2500,103.5000,41.5000,-174.8750,0
1776971925.365,8.6455,0.6656,-0.5507,2.1216,0.7903,-0.1927,-73.3500,38.1000,-16.3500,7.6136,-4.0965,-3.6990,2.1962,2.1338,-3.3111,-13.5000,-12.9000,-100.2000,10.3100,5.5700,-4.8600,2.0475,-2.5373,-3.5910,-28.7500,-13.7500,54.2500,103.5000,41.5000,-174.8750,0
1776971925.370,8.5258,0.3424,-0.7901,2.0312,0.7493,-0.0759,-74.1000,37.6500,-16.3500,8.1068,-3.6966,-3.5626,2.2066,2.2815,-3.3017,-13.3500,-8.5500,-99.7500,10.1900,5.5700,-4.7800,1.9231,-2.4533,-3.5539,-4.5000,-17.3750,55.5000,101.1875,40.0000,-174.3750,0
1776971925.375,8.5258,0.3424,-0.7901,2.0312,0.7493,-0.0759,-74.1000,37.6500,-16.3500,8.1068,-3.6966,-3.5626,2.2066,2.2815,-3.3017,-13.3500,-8.5500,-99.7500,10.1900,5.5700,-4.7800,1.9231,-2.4533,-3.5539,-4.5000,-17.3750,55.5000,101.1875,40.0000,-174.3750,0
1776971925.380,8.4755,0.2897,-1.0151,1.9065,0.7147,0.0413,-73.6500,37.9500,-17.4000,8.2480,-3.1149,-3.2417,2.2425,2.4040,-3.2692,-12.4500,-7.2000,-98.4000,10.1400,5.6900,-4.6200,1.8141,-2.3387,-3.4950,-4.5000,-17.3750,55.5000,98.9375,38.5000,-173.8750,0
1776971925.387,8.1044,0.3256,-1.4126,1.7866,0.7155,0.1388,-73.6500,37.9500,-17.4000,8.2001,-2.3679,-3.0095,2.1986,2.5349,-3.2197,-12.4500,-7.2000,-98.4000,10.4600,6.0300,-4.4600,1.7584,-2.1860,-3.3892,-4.5000,-17.3750,55.5000,96.8125,37.0625,-173.5000,0
1776971925.392,8.1044,0.3256,-1.4126,1.7866,0.7155,0.1388,-72.6000,36.4500,-17.8500,8.2001,-2.3679,-3.0095,2.1986,2.5349,-3.2197,-12.1500,-4.9500,-98.8500,10.4600,6.0300,-4.4600,1.7584,-2.1860,-3.3892,-4.5000,-17.3750,55.5000,94.7500,35.7500,-173.2500,0
1776971925.401,7.8506,0.4645,-1.8100,1.6955,0.6928,0.2238,-72.6000,36.4500,-17.8500,8.1786,-1.9034,-2.9904,2.0733,2.7009,-3.1685,-10.9500,-5.7000,-96.6000,11.1600,6.0400,-4.6700,1.7355,-2.0169,-3.2496,-4.5000,-17.3750,55.5000,92.7500,34.5000,-173.0625,0
1776971925.411,7.7045,0.6297,-2.2194,1.6046,0.6478,0.3056,-73.9500,35.5500,-18.4500,8.6455,-1.6233,-3.0718,1.9617,2.8719,-3.0771,-12.4500,-2.4000,-96.0000,11.8100,5.9000,-4.8400,1.6842,-1.8893,-3.1307,-4.5000,-17.3750,55.5000,92.7500,34.5000,-173.0625,0
1776971925.416,7.8865,0.9002,-2.4900,1.6046,0.6478,0.3056,-73.9500,35.5500,-18.4500,9.2847,-1.6759,-2.9616,1.9273,3.0393,-2.9441,-12.4500,-2.4000,-96.0000,11.8100,5.9000,-4.8400,1.6842,-1.8893,-3.1307,-4.5000,-17.3750,55.5000,92.7500,34.5000,-173.0625,0
1776971925.421,7.8865,0.9002,-2.4900,1.4789,0.5761,0.3736,-73.9500,35.5500,-18.4500,9.2847,-1.6759,-2.9616,1.9273,3.0393,-2.9441,-12.4500,-2.4000,-96.0000,12.6500,5.6100,-4.8100,1.5752,-1.7955,-3.0740,11.0000,-10.3750,47.2500,90.8125,33.3125,-172.8750,0
1776971925.426,8.1427,1.4748,-2.1093,1.3166,0.4546,0.4439,-73.9500,35.5500,-18.4500,10.1394,-2.4852,-2.6288,1.9838,3.1501,-2.7550,-12.4500,-2.4000,-96.0000,12.6500,5.6100,-4.8100,1.5752,-1.7955,-3.0740,11.0000,-10.3750,47.2500,90.8125,33.3125,-172.8750,0
1776971925.431,8.1427,1.4748,-2.1093,1.3166,0.4546,0.4439,-73.6500,36.7500,-17.7000,10.1394,-2.4852,-2.6288,1.9838,3.1501,-2.7550,-11.5500,-0.3000,-94.6500,12.6000,5.1200,-4.2600,1.4192,-1.7159,-3.0576,11.0000,-10.3750,47.2500,89.0000,32.1875,-172.6875,0
1776971925.436,7.8530,2.0973,-2.0518,1.1002,0.4229,0.4706,-73.6500,36.7500,-17.7000,11.0325,-2.8299,-1.2282,2.0995,3.0603,-2.4997,-11.5500,-0.3000,-94.6500,12.6000,5.1200,-4.2600,1.2348,-1.5850,-3.1569,11.0000,-10.3750,47.2500,87.0625,31.0625,-172.3750,0
1776971925.442,7.8530,2.0973,-2.0518,1.1002,0.4229,0.4706,-73.9500,34.3500,-19.2000,11.0325,-2.8299,-1.2282,2.0995,3.0603,-2.4997,-11.7000,3.1500,-94.2000,12.2300,3.2300,-3.8800,1.2348,-1.5850,-3.1569,11.0000,-10.3750,47.2500,85.0625,30.0625,-171.8125,0
1776971925.451,7.6782,2.5786,-1.9968,0.9028,0.4559,0.4794,-74.8500,34.9500,-20.5500,11.9926,-2.7198,-0.1389,1.9793,2.7422,-2.2220,-10.5000,4.5000,-92.8500,12.3100,2.0700,-3.8800,0.8825,-1.3384,-3.4208,11.0000,-10.3750,47.2500,83.0625,29.1875,-171.0000,0
1776971925.461,7.7883,3.2034,-2.1117,0.7797,0.4506,0.4954,-74.1000,33.4500,-20.5500,12.1075,-1.8890,-0.3448,1.7176,2.4456,-2.0379,-7.9500,6.0000,-92.2500,14.1500,3.2100,-3.3000,0.5160,-1.0254,-3.6379,11.0000,-10.3750,47.2500,83.0625,29.1875,-171.0000,0
1776971925.466,8.2313,3.8523,-2.1572,0.6222,0.3890,0.5199,-74.1000,33.4500,-20.5500,12.0620,-0.8882,-1.0319,1.6657,2.3252,-1.9079,-7.9500,6.0000,-92.2500,14.1500,3.2100,-3.3000,0.5160,-1.0254,-3.6379,11.0000,-10.3750,47.2500,80.9375,28.5000,-170.1250,0
1776971925.471,8.2313,3.8523,-2.1572,0.6222,0.3890,0.5199,-73.0500,34.5000,-19.0500,12.0620,-0.8882,-1.0319,1.6657,2.3252,-1.9079,-7.9500,6.0000,-92.2500,15.3900,4.0600,-2.4700,0.4320,-0.7134,-3.7023,15.6875,-5.1875,37.5625,80.9375,28.5000,-170.1250,0
1776971925.476,8.7293,4.7285,-2.0231,0.3765,0.3238,0.5574,-73.0500,34.5000,-19.0500,12.0309,-0.2969,-1.8699,1.7336,2.3118,-1.6995,-7.9500,6.0000,-92.2500,15.3900,4.0600,-2.4700,0.4320,-0.7134,-3.7023,15.6875,-5.1875,37.5625,78.9375,27.8125,-169.5000,0
1776971925.481,8.7293,4.7285,-2.0231,0.3765,0.3238,0.5574,-75.1500,34.0500,-19.5000,12.0309,-0.2969,-1.8699,1.7336,2.3118,-1.6995,-7.9500,6.0000,-92.2500,15.4900,4.0500,-1.4100,0.6261,-0.6021,-3.5267,15.6875,-5.1875,37.5625,78.9375,27.8125,-169.5000,0
1776971925.489,9.2464,5.9592,-1.7741,0.1498,0.3054,0.6009,-75.1500,34.0500,-19.5000,12.1506,-0.0335,-1.9106,1.8706,2.2575,-1.3965,-2.7000,10.6500,-91.6500,15.0100,2.3900,0.9200,1.0101,-0.5552,-3.2812,15.6875,-5.1875,37.5625,77.0000,27.1875,-169.1250,0
1776971925.494,9.2153,7.1898,-1.5179,0.0069,0.3142,0.5934,-75.1500,34.0500,-19.5000,12.1410,0.3352,-2.2553,1.9817,1.9788,-1.0086,-2.7000,10.6500,-91.6500,15.0100,2.3900,0.9200,1.0101,-0.5552,-3.2812,15.6875,-5.1875,37.5625,75.1875,26.6250,-169.0625,0
1776971925.501,9.2153,7.1898,-1.5179,0.0069,0.3142,0.5934,-73.9500,33.1500,-19.9500,12.1410,0.3352,-2.2553,1.9817,1.9788,-1.0086,-1.8000,14.5500,-92.8500,14.6000,1.2500,2.1700,1.3614,-0.4440,-3.0478,15.6875,-5.1875,37.5625,73.3750,26.1875,-169.1875,0
1776971925.511,8.6191,8.2935,-0.0335,0.0218,0.3882,0.5335,-73.9500,33.1500,-19.9500,11.6095,0.3998,-1.7693,2.0518,1.6300,-0.6336,-1.8000,18.0000,-95.1000,13.4500,0.0200,3.1900,1.5675,-0.1854,-2.8722,15.6875,-5.1875,37.5625,73.3750,26.1875,-169.1875,0
1776971925.516,8.6191,8.2935,-0.0335,0.1290,0.4930,0.4778,-73.9500,33.1500,-19.9500,11.2551,0.5387,-1.4341,1.9145,1.4346,-0.3461,-1.8000,18.0000,-95.1000,13.4500,0.0200,3.1900,1.5675,-0.1854,-2.8722,15.6875,-5.1875,37.5625,73.3750,26.1875,-169.1875,0
1776971925.521,8.2983,8.3079,0.6512,0.1290,0.4930,0.4778,-75.9000,33.1500,-17.4000,11.2551,0.5387,-1.4341,1.9145,1.4346,-0.3461,-1.5000,22.2000,-98.8500,13.8100,-0.2100,4.7300,1.5762,0.2651,-2.7674,15.0000,-2.5000,33.1875,71.6250,26.0625,-169.3125,0
1776971925.526,8.2983,8.3079,0.6512,0.2356,0.5343,0.4599,-75.9000,33.1500,-17.4000,11.3796,-1.1157,-0.8691,1.8604,1.0805,-0.0528,-1.5000,22.2000,-98.8500,13.8100,-0.2100,4.7300,1.5762,0.2651,-2.7674,15.0000,-2.5000,33.1875,71.6250,26.0625,-169.3125,0
1776971925.531,8.2121,7.9200,1.2378,0.2356,0.5343,0.4599,-75.9000,33.1500,-17.4000,11.3796,-1.1157,-0.8691,1.8604,1.0805,-0.0528,-1.5000,22.2000,-98.8500,14.9000,-1.8600,6.0700,1.3319,0.5607,-2.5460,15.0000,-2.5000,33.1875,70.0000,26.1250,-169.3125,0
1776971925.536,8.2121,7.9200,1.2378,0.2166,0.5729,0.4863,-75.1500,32.8500,-18.0000,10.8697,-1.1540,0.0120,1.9295,0.6742,0.2856,-1.5000,22.2000,-98.8500,14.9000,-1.8600,6.0700,1.0254,0.8868,-2.2886,15.0000,-2.5000,33.1875,68.5625,26.3750,-169.2500,0
1776971925.542,8.0086,7.2784,1.4126,0.1204,0.6110,0.5161,-74.5500,32.5500,-19.0500,10.8314,-1.7406,1.1229,1.6998,0.2697,0.7240,-1.5000,22.2000,-98.8500,13.5600,-2.7700,5.5000,1.0254,0.8868,-2.2886,15.0000,-2.5000,33.1875,67.1250,26.8750,-169.0000,0
1776971925.551,7.7740,6.3063,1.0247,0.1490,0.6403,0.5337,-74.5500,32.5500,-19.0500,9.7683,-1.9513,0.3017,1.3390,-0.0179,0.9998,6.1500,32.2500,-112.5000,13.8100,-2.8200,5.3400,0.8149,1.3603,-2.2318,15.0000,-2.5000,33.1875,67.1250,26.8750,-169.0000,0
1776971925.561,7.4603,5.1954,0.3448,0.2462,0.6523,0.5401,-76.2000,33.1500,-18.4500,9.4763,-2.7485,-1.0942,1.1455,-0.2510,1.1751,7.9500,36.0000,-116.8500,13.8700,-2.7200,4.9200,0.6480,1.5206,-2.1293,15.0000,-2.5000,33.1875,65.8125,27.5000,-168.6875,0
1776971925.566,7.4603,5.1954,0.3448,0.2462,0.6523,0.5401,-76.2000,33.1500,-18.4500,9.4763,-2.7485,-1.0942,1.1455,-0.2510,1.1751,11.4000,38.4000,-123.0000,13.8700,-2.7200,4.9200,0.6480,1.5206,-2.1293,15.0000,-2.5000,33.1875,64.5625,28.1250,-168.3750,0
1776971925.571,7.3263,4.0031,-0.2490,0.3861,0.6955,0.5444,-76.2000,33.1500,-18.4500,9.3829,-2.9497,-1.4485,0.8977,-0.3230,1.3145,11.4000,38.4000,-123.0000,12.9500,-2.7400,4.0100,0.6272,1.5893,-1.8980,11.8750,0.3750,31.3750,64.5625,28.1250,-168.3750,0
1776971925.576,7.3263,4.0031,-0.2490,0.3861,0.6955,0.5444,-75.6000,31.0500,-17.8500,9.3829,-2.9497,-1.4485,0.8977,-0.3230,1.3145,11.8500,39.3000,-125.4000,12.9500,-2.7400,4.0100,0.6272,1.5893,-1.8980,11.8750,0.3750,31.3750,63.4375,28.9375,-168.2500,0
1776971925.581,7.2927,3.0047,-0.7302,0.5886,0.7552,0.5806,-75.6000,31.0500,-17.8500,9.4643,-3.2825,-1.8316,0.8247,-0.4650,1.4802,11.8500,39.3000,-125.4000,12.9700,-3.0800,3.2500,0.7821,1.7813,-1.6526,11.8750,0.3750,31.3750,63.4375,28.9375,-168.2500,0
1776971925.588,7.2927,3.0047,-0.7302,0.5886,0.7552,0.5806,-75.6000,31.0500,-17.8500,9.4643,-3.2825,-1.8316,0.8247,-0.4650,1.4802,11.8500,39.3000,-125.4000,12.6600,-3.4700,-0.0100,0.8159,1.8162,-1.3843,11.8750,0.3750,31.3750,62.4375,29.7500,-168.1250,0
1776971925.593,7.5609,2.1452,-0.8499,0.7277,0.8039,0.6342,-76.5000,29.1000,-17.5500,9.9647,-3.1125,-2.5426,0.7528,-0.7357,1.6355,11.8500,39.3000,-125.4000,12.6600,-3.4700,-0.0100,0.8159,1.8162,-1.3843,11.8750,0.3750,31.3750,61.6250,30.7500,-168.0000,0
1776971925.601,8.5665,1.0774,-0.9577,0.9582,0.8543,0.6896,-76.5000,29.1000,-17.5500,10.0916,-3.1891,-1.9920,0.5534,-0.9563,1.7189,11.8500,39.3000,-125.4000,12.2100,-1.9000,-1.7700,0.6523,2.0759,-1.1912,11.8750,0.3750,31.3750,60.9375,31.5000,-168.1250,0
1776971925.611,9.5984,0.1269,-1.0415,1.1604,0.8103,0.7919,-76.5000,29.1000,-17.5500,9.0956,-0.9744,-0.2610,0.5449,-1.0842,1.6739,11.4000,46.2000,-130.8000,5.0100,15.8700,-11.7400,0.8716,1.5708,-0.8247,11.8750,0.3750,31.3750,60.9375,31.5000,-168.1250,0
1776971925.616,9.5984,0.1269,-1.0415,1.1604,0.8103,0.7919,-77.2500,29.5500,-17.1000,9.0956,-0.9744,-0.2610,0.5449,-1.0842,1.6739,11.2500,47.5500,-131.4000,5.0100,15.8700,-11.7400,0.8716,1.5708,-0.8247,11.8750,0.3750,31.3750,60.9375,31.5000,-168.1250,0
1776971925.621,11.2480,-0.4717,-0.7278,1.2772,0.7786,0.9643,-77.2500,29.5500,-17.1000,8.3725,3.1388,2.5833,1.5540,-0.6400,1.1306,11.2500,47.5500,-131.4000,4.3900,7.9400,-16.6600,2.7096,1.6886,0.0273,9.5625,4.0000,31.5625,60.4375,32.4375,-169.5000,0
1776971925.626,11.2480,-0.4717,-0.7278,1.2772,0.7786,0.9643,-78.0000,29.1000,-17.8500,8.3725,3.1388,2.5833,1.5540,-0.6400,1.1306,11.4000,47.7000,-133.3500,4.3900,7.9400,-16.6600,2.7096,1.6886,0.0273,9.5625,4.0000,31.5625,60.4375,32.4375,-169.5000,0
1776971925.631,13.5895,-0.4381,-1.3168,1.4999,0.7320,1.2478,-78.0000,29.1000,-17.8500,9.2392,7.5705,1.3384,2.3020,0.1982,0.2118,11.4000,47.7000,-133.3500,1.7700,4.1000,-29.8800,2.9431,0.3589,-0.2509,9.5625,4.0000,31.5625,59.7500,32.5625,-171.0000,0
1776971925.636,13.5895,-0.4381,-1.3168,1.4999,0.7320,1.2478,-76.8000,28.3500,-17.5500,9.2392,7.5705,1.3384,2.3020,0.1982,0.2118,8.4000,51.1500,-131.8500,1.7700,4.1000,-29.8800,2.4129,0.3851,-0.4418,9.5625,4.0000,31.5625,59.1250,32.7500,-172.1875,0
1776971925.642,15.6581,0.4334,-2.2314,1.7611,0.6376,1.5180,-78.1500,25.3500,-17.5500,16.4003,10.4267,-0.6967,2.4307,1.2897,-0.5782,8.4000,51.1500,-131.8500,4.9700,-12.5800,-13.7400,2.4129,0.3851,-0.4418,9.5625,4.0000,31.5625,59.3125,33.7500,-174.5000,0
1776971925.651,16.3069,2.1644,-4.0366,2.0254,0.5100,1.6020,-78.1500,25.3500,-16.9500,19.1823,7.0940,-7.7165,1.0541,1.3707,-0.4143,8.4000,51.1500,-131.8500,4.8900,-32.0600,-9.5000,3.3445,1.6548,1.4475,9.5625,4.0000,31.5625,59.3125,33.7500,-174.5000,0
1776971925.661,16.4194,4.4580,-5.3271,2.1349,0.3011,1.4501,-78.1500,27.3000,-17.4000,18.3037,-1.5850,-13.3956,-1.0595,0.9273,0.1655,4.9500,51.3000,-135.6000,22.8400,5.3900,-15.1000,1.5981,1.4933,1.5184,9.5625,4.0000,31.5625,59.8750,34.6875,-175.8750,0
1776971925.666,13.8672,6.0071,-4.4221,1.9545,0.1647,1.1588,-78.1500,26.1000,-19.2000,18.3037,-1.5850,-13.3956,-1.0595,0.9273,0.1655,2.4000,45.7500,-137.8500,22.8400,5.3900,-15.1000,1.5981,1.4933,1.5184,9.5625,4.0000,31.5625,60.0625,35.5000,-175.6875,0
1776971925.671,13.8672,6.0071,-4.4221,1.9545,0.1647,1.1588,-78.1500,26.1000,-19.2000,15.8352,-4.6352,-13.3668,-1.4290,0.1958,0.6608,2.4000,45.7500,-137.8500,9.3200,8.4200,-2.3300,-0.5192,1.4813,0.2509,8.5625,9.1875,30.8750,60.0625,35.5000,-175.6875,0
1776971925.676,9.7779,5.3726,-1.1277,1.5028,0.3296,0.9936,-78.1500,26.1000,-19.2000,15.8352,-4.6352,-13.3668,-1.4290,0.1958,0.6608,3.0000,43.9500,-140.4000,9.3200,8.4200,-2.3300,-0.5192,1.4813,0.2509,8.5625,9.1875,30.8750,60.0625,35.5000,-175.6875,0
1776971925.680,9.7779,5.3726,-1.1277,1.5028,0.3296,0.9936,-78.1500,26.1000,-19.2000,11.5424,-1.7885,-10.3166,0.5431,-0.6259,0.8879,3.0000,43.9500,-140.4000,4.4200,6.7800,-2.8300,-0.7778,0.3774,0.0513,8.5625,9.1875,30.8750,60.2500,35.6875,-175.2500,0
1776971925.685,7.7931,2.7342,2.3487,1.4354,0.6872,1.0123,-80.8500,22.9500,-19.2000,11.5424,-1.7885,-10.3166,0.5431,-0.6259,0.8879,0.3000,42.7500,-141.3000,4.4200,6.7800,-2.8300,0.0218,0.2793,0.0829,8.5625,9.1875,30.8750,60.2500,35.8750,-175.3125,0
1776971925.692,7.7931,2.7342,2.3487,1.4354,0.6872,1.0123,-80.8500,22.9500,-19.2000,7.1275,1.2546,-5.0829,2.5077,-1.0480,0.9846,0.3000,42.7500,-141.3000,10.4900,-3.8300,-10.3200,0.0218,0.2793,0.0829,8.5625,9.1875,30.8750,60.1875,36.0000,-175.1250,0
1776971925.701,7.8721,-0.5962,3.1675,1.6577,0.7933,1.1122,-80.8500,22.9500,-19.2000,7.1084,2.3894,2.6911,2.3174,-0.9297,0.8812,0.3000,44.2500,-143.8500,6.7600,-1.4000,-8.8600,-0.1156,0.3043,-0.1582,8.5625,9.1875,30.8750,60.1875,36.0000,-175.1250,0
1776971925.711,7.7165,-2.7198,2.0470,1.7909,0.6880,1.1482,-80.2500,24.0000,-19.3500,8.2672,0.9385,6.5721,1.5434,-0.9212,1.0235,0.3000,44.2500,-143.8500,6.4900,2.6000,-7.8500,-0.3589,-0.1244,-0.3120,8.5625,9.1875,30.8750,60.0625,35.9375,-174.8125,0
1776971925.716,7.6662,-3.4955,0.6105,1.6188,0.7123,1.2049,-80.4000,22.6500,-20.2500,6.6176,-2.3224,8.5449,0.1998,-0.7557,1.1021,2.1000,47.2500,-145.6500,6.4900,2.6000,-7.8500,-0.3589,-0.1244,-0.3120,8.5625,9.1875,30.8750,60.0625,35.9375,-174.8125,0
1776971925.721,7.6662,-3.4955,0.6105,1.6188,0.7123,1.2049,-80.4000,22.6500,-20.2500,6.6176,-2.3224,8.5449,0.1998,-0.7557,1.1021,2.1000,47.2500,-145.6500,6.3900,3.2300,-7.0500,-0.4581,-0.2563,-0.3480,8.0000,10.8750,30.5625,60.0000,35.7500,-174.4375,0
1776971925.726,7.7069,-3.2106,-1.1564,1.1293,0.6811,1.2830,-81.1500,22.9500,-18.4500,7.9272,-3.9504,4.9321,-0.0368,-0.5540,1.1501,5.7000,45.0000,-147.7500,6.3900,3.2300,-7.0500,-0.4581,-0.2563,-0.3480,8.0000,10.8750,30.5625,60.0000,35.7500,-174.4375,0
1776971925.731,7.7069,-3.2106,-1.1564,1.1293,0.6811,1.2830,-81.1500,22.9500,-18.4500,7.9272,-3.9504,4.9321,-0.0368,-0.5540,1.1501,5.7000,45.0000,-147.7500,5.3200,1.0500,-7.9600,-0.7898,-0.4745,-0.2967,8.0000,10.8750,30.5625,59.9375,35.5000,-173.9375,0
1776971925.736,8.5234,-3.1556,-2.8706,0.5388,0.4748,1.3579,-81.0000,22.0500,-20.1000,7.8027,-5.1188,4.1061,-0.2545,-0.6030,1.3129,10.8000,45.3000,-146.7000,5.3200,1.0500,-7.9600,-0.9774,-0.5596,-0.3207,8.0000,10.8750,30.5625,60.0000,35.1875,-173.2500,0
1776971925.742,8.9232,-2.6839,-3.3998,0.5388,0.4748,1.3579,-81.0000,22.0500,-20.1000,7.8027,-5.1188,4.1061,-0.2545,-0.6030,1.3129,10.8000,45.3000,-146.7000,4.7700,1.3300,-7.7200,-0.9774,-0.5596,-0.3207,8.0000,10.8750,30.5625,60.0000,34.8750,-172.8125,0
1776971925.751,8.3510,-1.2498,-2.0590,-0.0005,0.1748,1.3225,-82.9500,21.3000,-21.6000,7.7189,-5.1092,3.7828,-0.5438,-0.3254,1.3622,15.0000,42.9000,-146.1000,3.8500,2.0700,-7.2300,-0.7156,-0.4832,-0.2400,8.0000,10.8750,30.5625,60.0000,34.8750,-172.8125,0
1776971925.761,8.2648,0.4453,0.6752,-0.5148,0.1287,1.1314,-82.3500,20.7000,-19.5000,8.2648,-2.2913,3.2992,-0.7917,0.2801,1.3307,18.1500,43.5000,-143.8500,3.5300,1.9800,-6.9600,-0.2323,-0.1920,-0.0698,8.0000,10.8750,30.5625,60.0000,34.7500,-172.6250,0
1776971925.766,8.2648,0.4453,0.6752,-0.8484,0.2886,0.8924,-82.3500,20.7000,-19.5000,9.4547,1.4509,1.6065,-1.2412,0.6195,1.2812,18.1500,43.5000,-143.8500,3.5300,1.9800,-6.9600,-0.2323,-0.1920,-0.0698,8.0000,10.8750,30.5625,60.0000,34.9375,-172.6875,0
1776971925.771,8.6981,1.9776,3.1987,-0.8484,0.2886,0.8924,-82.3500,20.7000,-19.5000,9.4547,1.4509,1.6065,-1.2412,0.6195,1.2812,18.1500,43.5000,-143.8500,4.3400,1.8800,-7.3700,0.1047,0.2618,0.0218,8.0000,11.1875,31.5625,60.0000,34.9375,-172.6875,0
1776971925.776,8.6981,1.9776,3.1987,-0.7861,0.4959,0.7341,-83.1000,19.9500,-19.2000,10.2328,3.2753,-1.7382,-1.4061,0.7570,1.0749,23.7000,41.7000,-138.3000,4.3400,1.8800,-7.3700,0.1047,0.2618,0.0218,8.0000,11.1875,31.5625,60.0000,34.9375,-172.6875,0
1776971925.781,9.4786,3.0478,4.2497,-0.3824,0.5255,0.6832,-83.1000,19.9500,-19.2000,10.2328,3.2753,-1.7382,-1.4061,0.7570,1.0749,23.7000,41.7000,-138.3000,4.9200,1.6500,-7.2200,0.2203,0.6207,0.0338,8.0000,11.1875,31.5625,59.9375,35.2500,-172.8125,0
1776971925.786,9.4786,3.0478,4.2497,-0.3824,0.5255,0.6832,-83.1000,19.9500,-19.2000,10.7356,3.3782,-3.8690,-1.0685,0.8359,0.6630,22.5000,42.7500,-136.0500,4.9200,1.6500,-7.2200,0.2422,0.5389,0.0894,8.0000,11.1875,31.5625,59.9375,35.5625,-172.9375,0
1776971925.792,9.7085,3.7948,3.7685,0.2166,0.4461,0.6984,-83.1000,19.9500,-19.2000,10.7356,3.3782,-3.8690,-1.0685,0.8359,0.6630,19.9500,43.8000,-135.3000,5.4600,1.4100,-7.7000,0.2422,0.5389,0.0894,8.0000,11.1875,31.5625,59.9375,35.8125,-173.1250,0
1776971925.802,9.3829,3.9528,2.3200,0.9276,0.3792,0.7226,-83.4000,19.0500,-18.4500,11.2288,4.7190,-4.9201,0.2161,0.4978,0.2894,17.2500,46.6500,-139.0500,5.8300,1.3200,-7.7200,0.2716,0.4429,0.1287,8.0000,11.1875,31.5625,59.9375,36.0625,-173.3125,0
1776971925.812,9.6367,2.5666,0.9457,1.5601,0.3283,0.7317,-84.6000,18.7500,-19.5000,10.6518,4.1180,-1.6544,0.9816,0.3198,0.2180,14.7000,49.6500,-143.2500,5.8100,1.4800,-7.7200,0.2705,0.4592,0.1429,8.0000,11.1875,31.5625,59.9375,36.0625,-173.3125,0
1776971925.817,9.6367,2.5666,0.9457,1.5601,0.3283,0.7317,-84.7500,17.7000,-19.3500,10.6518,4.1180,-1.6544,0.9816,0.3198,0.2180,14.7000,49.6500,-143.2500,5.8100,1.4800,-7.7200,0.2705,0.4592,0.1429,8.0000,11.1875,31.5625,59.9375,36.0625,-173.3125,0
1776971925.822,9.9072,0.7638,0.2729,1.8855,0.2662,0.7176,-84.7500,17.7000,-19.3500,10.9654,2.2122,-0.0934,1.3067,0.1929,0.1292,14.7000,49.6500,-143.2500,6.1900,1.7200,-7.9300,0.3262,0.6501,0.1102,8.0000,11.1875,32.0000,59.9375,36.4375,-173.5000,0
1776971925.826,9.9072,0.7638,0.2729,1.8855,0.2662,0.7176,-83.7000,17.7000,-20.5500,10.9654,2.2122,-0.0934,1.3067,0.1929,0.1292,14.7000,49.6500,-143.2500,6.1900,1.7200,-7.9300,0.3262,0.6501,0.1102,8.0000,11.1875,32.0000,59.9375,36.4375,-173.5000,0
1776971925.832,9.9623,-0.9050,0.7350,1.9063,0.2625,0.7053,-83.7000,17.7000,-20.5500,10.0389,-0.6249,1.7023,1.4123,-0.0322,0.1575,8.7000,56.5500,-156.7500,7.3400,0.8900,-7.9900,0.3687,0.8050,0.0578,8.0000,11.1875,32.0000,59.8750,36.8750,-173.6875,0
1776971925.836,9.9623,-0.9050,0.7350,1.9063,0.2625,0.7053,-83.4000,16.8000,-19.5000,10.0389,-0.6249,1.7023,1.4123,-0.0322,0.1575,8.7000,56.5500,-156.7500,7.3400,0.8900,-7.9900,0.3305,0.6010,0.0229,8.0000,11.1875,32.0000,59.8125,37.2500,-173.8750,0
1776971925.843,9.9359,-1.4605,2.0614,1.8306,0.3216,0.7059,-83.4000,16.8000,-19.5000,9.3901,-3.4309,3.1723,1.3662,-0.0642,0.2366,9.6000,63.4500,-162.6000,7.0400,1.0000,-7.8600,0.3305,0.6010,0.0229,8.0000,11.1875,32.0000,59.8125,37.3750,-173.9375,0
1776971925.852,9.2727,-0.2801,2.8683,1.8141,0.4154,0.6430,-84.4500,16.2000,-19.0500,9.2201,-5.0278,4.4365,1.1658,-0.0261,0.3848,9.3000,63.3000,-167.4000,6.6800,1.2800,-7.6700,0.1527,0.2433,0.0196,8.0000,11.1875,32.0000,59.8125,37.3750,-173.9375,0
1776971925.862,8.9423,1.7837,3.3806,1.8866,0.5420,0.5367,-84.4500,16.2000,-19.0500,9.1435,-5.2074,4.4891,0.9268,-0.2531,0.6267,10.8000,65.5500,-169.2000,6.0000,1.6600,-7.4100,0.0273,0.0633,0.0131,8.0000,11.1875,32.0000,59.8125,37.3750,-174.0000,0
1776971925.867,9.4355,2.4924,3.8140,1.8866,0.5420,0.5367,-84.7500,14.2500,-20.1000,9.1435,-5.2074,4.4891,0.9268,-0.2531,0.6267,10.8000,65.5500,-169.2000,6.0000,1.6600,-7.4100,0.0273,0.0633,0.0131,8.0000,11.1875,32.0000,59.8125,37.3750,-174.0000,0
1776971925.872,9.4355,2.4924,3.8140,1.8778,0.6432,0.4839,-84.7500,14.2500,-20.1000,9.7037,-4.0079,4.3024,0.5100,-0.5236,0.9001,11.7000,67.2000,-169.6500,5.8900,1.6000,-7.5700,0.0142,-0.0076,0.0393,7.5625,11.0625,31.5625,59.8125,37.3750,-174.0000,0
1776971925.876,9.5936,1.8387,4.1539,1.8778,0.6432,0.4839,-84.7500,14.2500,-20.1000,9.7037,-4.0079,4.3024,0.5100,-0.5236,0.9001,11.7000,67.2000,-169.6500,5.8900,1.6000,-7.5700,0.0142,-0.0076,0.0393,7.5625,11.0625,31.5625,59.8125,37.3750,-174.0000,0
1776971925.881,9.5936,1.8387,4.1539,1.7786,0.5905,0.3741,-84.7500,14.2500,-20.1000,9.5912,-3.1627,3.6751,0.1852,-0.4578,1.0222,11.7000,67.2000,-169.6500,5.6900,1.3900,-7.5800,0.0731,-0.0556,0.0982,7.5625,11.0625,31.5625,59.8750,37.3750,-174.0625,0
1776971925.888,11.5855,-3.5817,3.7900,1.5617,0.5281,0.2955,-84.1500,15.9000,-20.2500,9.5912,-3.1627,3.6751,0.1852,-0.4578,1.0222,11.7000,67.2000,-169.6500,5.5300,1.4400,-7.6400,0.2040,-0.0196,0.1374,7.5625,11.0625,31.5625,59.8750,37.3750,-174.2500,0
1776971925.893,11.5855,-3.5817,3.7900,1.5617,0.5281,0.2955,-84.1500,15.9000,-20.2500,10.3334,-2.3056,2.6719,-0.0077,-0.3720,1.0762,17.4000,66.3000,-167.7000,5.5300,1.4400,-7.6400,0.2040,-0.0196,0.1374,7.5625,11.0625,31.5625,59.9375,37.5000,-174.5000,0
1776971925.902,10.6111,-2.6959,3.1987,1.3502,0.4391,0.3080,-84.7500,15.7500,-20.8500,10.7619,-1.6113,1.6017,0.0091,-0.4141,1.0288,20.2500,68.2500,-165.3000,5.5700,1.3200,-7.5900,0.3283,0.1778,0.1745,7.5625,11.0625,31.5625,59.9375,37.5000,-174.5000,0
1776971925.912,10.2615,-1.2617,2.0111,1.2990,0.4221,0.3461,-86.2500,13.8000,-20.5500,10.9702,-1.2761,0.4357,0.0080,-0.4636,0.8982,21.7500,69.0000,-163.5000,5.6600,1.4500,-7.5200,0.4167,0.3185,0.2029,7.5625,11.0625,31.5625,59.9375,37.6875,-174.8125,0
1776971925.917,9.6367,-0.1389,1.2665,0.9569,0.3296,0.3123,-85.9500,13.5000,-20.1000,10.9702,-1.2761,0.4357,0.0080,-0.4636,0.8982,21.7500,69.0000,-163.5000,5.6600,1.4500,-7.5200,0.4167,0.3185,0.2029,7.5625,11.0625,31.5625,59.9375,37.6875,-174.8125,0
1776971925.922,9.6367,-0.1389,1.2665,0.9569,0.3296,0.3123,-85.9500,13.5000,-20.1000,10.9439,-1.3719,-0.2586,-0.0250,-0.5124,0.7099,24.3000,67.5000,-162.0000,6.0000,1.0600,-7.6800,0.4549,0.3894,0.2269,7.5625,12.1875,30.5000,60.0000,37.8750,-175.1250,0
1776971925.927,9.6917,0.6440,0.7949,0.5708,0.2851,0.2960,-85.9500,13.5000,-20.5500,10.9439,-1.3719,-0.2586,-0.0250,-0.5124,0.7099,24.3000,67.5000,-162.0000,6.0000,1.0600,-7.6800,0.4549,0.3894,0.2269,7.5625,12.1875,30.5000,60.0000,37.8750,-175.1250,0
1776971925.932,9.6917,0.6440,0.7949,0.5708,0.2851,0.2960,-85.9500,13.5000,-20.5500,10.2807,-1.3647,-0.5267,-0.0221,-0.5289,0.5279,25.6500,66.0000,-161.7000,6.6000,0.2700,-8.1500,0.4767,0.4680,0.2105,7.5625,12.1875,30.5000,60.0000,38.1875,-175.5000,0
1776971925.937,9.6343,0.7901,0.4860,0.2766,0.2489,0.2931,-86.7000,13.8000,-19.0500,10.2807,-1.3647,-0.5267,-0.0221,-0.5289,0.5279,25.6500,66.0000,-161.7000,6.6000,0.2700,-8.1500,0.4691,0.5640,0.1494,7.5625,12.1875,30.5000,60.0000,38.5000,-175.8125,0
1776971925.943,9.6343,0.7901,0.4860,0.2766,0.2489,0.2931,-86.7000,13.8000,-19.0500,10.0461,-1.4676,-0.5028,0.0434,-0.5284,0.3765,25.6500,66.0000,-161.7000,6.6100,0.4700,-7.9800,0.4691,0.5640,0.1494,7.5625,12.1875,30.5000,59.9375,38.8125,-176.0625,0
1776971925.952,9.6558,0.2897,0.2610,0.0762,0.1852,0.2992,-86.7000,13.8000,-19.0500,9.4810,-1.4222,-0.3663,0.0917,-0.5199,0.2409,25.3500,63.7500,-161.2500,6.5200,0.7600,-7.7500,0.4200,0.5814,0.0982,7.5625,12.1875,30.5000,59.9375,38.8125,-176.0625,0
1776971925.962,9.5170,-0.4453,0.4381,-0.1095,0.0815,0.2715,-86.1000,12.9000,-19.2000,9.3398,-1.3695,-0.5387,0.1204,-0.4826,0.1204,21.3000,61.0500,-163.5000,6.5800,0.9200,-7.3000,0.3600,0.5061,0.0742,7.5625,12.1875,30.5000,59.8750,39.0625,-176.2500,0
1776971925.967,9.5361,-1.2282,0.7470,-0.2558,0.0416,0.2481,-86.1000,12.9000,-19.2000,9.0190,-1.4485,-0.8499,0.0815,-0.4458,0.0333,21.3000,61.0500,-163.5000,6.5800,0.9200,-7.3000,0.3600,0.5061,0.0742,7.5625,12.1875,30.5000,59.8750,39.0625,-176.2500,0
1776971925.972,9.5361,-1.2282,0.7470,-0.2558,0.0416,0.2481,-86.1000,12.9000,-19.2000,9.0190,-1.4485,-0.8499,0.0815,-0.4458,0.0333,19.3500,59.4000,-162.9000,6.3600,0.8500,-7.5400,0.2651,0.3087,0.0840,7.5625,12.5625,30.8750,59.8750,39.2500,-176.4375,0
1776971925.977,9.6510,-1.8316,1.3886,-0.2888,0.0189,0.2470,-86.2500,12.6000,-19.3500,8.8969,-1.4844,-1.2306,0.0690,-0.3928,0.0282,19.3500,59.4000,-162.9000,6.3600,0.8500,-7.5400,0.2651,0.3087,0.0840,7.5625,12.5625,30.8750,59.8750,39.2500,-176.4375,0
1776971925.982,9.5385,-1.7502,1.6472,-0.2888,0.0189,0.2470,-86.2500,12.6000,-19.3500,8.8969,-1.4844,-1.2306,0.0690,-0.3928,0.0282,16.6500,58.5000,-164.8500,6.3700,0.8800,-7.5600,0.1462,0.1658,0.1004,7.5625,12.5625,30.8750,59.9375,39.3750,-176.5625,0
1776971925.987,9.5385,-1.7502,1.6472,-0.2108,0.0197,0.2505,-86.1000,12.4500,-20.2500,8.9136,-1.3168,-1.1229,0.0919,-0.4048,0.0557,16.6500,58.5000,-164.8500,6.3700,0.8800,-7.5600,0.0785,0.0894,0.1004,7.5625,12.5625,30.8750,59.9375,39.4375,-176.6250,0
1776971925.993,9.4188,-1.3168,1.7190,-0.0610,0.0192,0.2481,-86.1000,12.4500,-20.2500,8.9136,-1.3168,-1.1229,0.0919,-0.4048,0.0557,12.7500,59.7000,-166.8000,6.5400,0.7800,-7.6000,0.0785,0.0894,0.1004,7.5625,12.5625,30.8750,60.0000,39.3750,-176.6875,0
1776971926.002,9.2751,-0.9409,1.4940,0.1202,0.0245,0.2547,-85.2000,12.6000,-20.1000,9.1315,-1.3934,-1.4054,0.1545,-0.3853,0.1172,12.7500,59.7000,-166.8000,6.4400,0.7300,-7.6200,0.0044,-0.0894,0.0982,7.5625,12.5625,30.8750,60.0000,39.3750,-176.6875,0
1776971926.012,9.2153,-0.5267,1.1349,0.2955,0.0229,0.2646,-87.6000,12.0000,-18.7500,9.0549,-1.5395,-1.4150,0.1865,-0.4080,0.1908,10.6500,59.4000,-166.0500,6.5000,0.7900,-7.5800,-0.0633,-0.1047,0.0796,7.5625,12.5625,30.8750,60.0625,39.3125,-176.6875,0
1776971926.017,9.2153,-0.5267,1.1349,0.2955,0.0229,0.2646,-85.0500,11.2500,-20.2500,9.0884,-1.7957,-1.6185,0.1298,-0.4218,0.2585,10.6500,59.4000,-166.0500,6.5000,0.7900,-7.5800,-0.0633,-0.1047,0.0796,7.5625,12.5625,30.8750,60.1250,39.2500,-176.6250,0
1776971926.022,9.2440,-0.3232,0.6943,0.4274,0.0562,0.3136,-85.0500,11.2500,-20.2500,9.0884,-1.7957,-1.6185,0.1298,-0.4218,0.2585,9.7500,57.7500,-164.5500,6.3100,0.9100,-7.4400,-0.0971,-0.1036,0.0600,6.8750,13.0000,31.6875,60.1250,39.2500,-176.6250,0
1776971926.027,9.2440,-0.3232,0.6943,0.4274,0.0562,0.3136,-86.1000,10.9500,-19.2000,9.1171,-1.9537,-1.9609,0.1037,-0.4146,0.3088,9.7500,57.7500,-164.5500,6.3100,0.9100,-7.4400,-0.0971,-0.1036,0.0600,6.8750,13.0000,31.6875,60.1250,39.2500,-176.5625,0
1776971926.032,9.3087,-0.2203,0.4980,0.5236,0.0978,0.3784,-86.1000,10.9500,-19.2000,9.1171,-1.9537,-1.9609,0.1037,-0.4146,0.3088,8.2500,57.0000,-164.1000,6.1500,1.0300,-7.5900,-0.0971,-0.1069,0.0578,6.8750,13.0000,31.6875,60.1250,39.2500,-176.5625,0
1776971926.037,9.3087,-0.2203,0.4980,0.5236,0.0978,0.3784,-86.1000,10.9500,-19.2000,9.1578,-2.0207,-2.1835,0.0821,-0.3912,0.3384,9.1500,55.9500,-164.1000,6.1500,1.0300,-7.5900,-0.0578,-0.0535,0.0535,6.8750,13.0000,31.6875,60.1875,39.1875,-176.5000,0
1776971926.043,9.3374,-0.2011,0.4860,0.5718,0.1306,0.4333,-86.1000,10.9500,-19.2000,9.1578,-2.0207,-2.1835,0.0821,-0.3912,0.3384,9.1500,55.9500,-166.5000,6.2400,0.9400,-7.5000,-0.0578,-0.0535,0.0535,6.8750,13.0000,31.6875,60.1875,39.1875,-176.4375,0
1776971926.052,9.4332,-0.1125,0.4980,0.5958,0.1591,0.4796,-85.3500,11.7000,-18.4500,9.4954,-1.8196,-1.8364,0.1095,-0.3515,0.3533,9.1500,54.1500,-163.9500,6.1900,0.9300,-7.5400,-0.0185,-0.0131,0.0513,6.8750,13.0000,31.6875,60.1875,39.1875,-176.4375,0
1776971926.057,9.4332,-0.1125,0.4980,0.5958,0.1591,0.4796,-85.3500,11.7000,-18.4500,9.7109,-1.5490,-1.6089,0.1583,-0.3110,0.3560,9.1500,54.1500,-163.9500,6.1900,0.9300,-7.5400,-0.0011,0.0153,0.0458,6.8750,13.0000,31.6875,60.1875,39.1875,-176.3750,0
1776971926.063,9.4763,-0.0311,0.5435,0.5985,0.1665,0.5169,-85.3500,11.7000,-18.4500,9.7923,-1.4341,-1.5012,0.2217,-0.2992,0.3488,9.1500,54.1500,-163.9500,6.4400,0.8700,-7.6000,-0.0011,0.0153,0.0458,6.8750,13.0000,31.6875,60.1875,39.1875,-176.3750,0
1776971926.068,9.4763,-0.0311,0.5435,0.5985,0.1665,0.5169,-87.0000,10.6500,-18.6000,9.7923,-1.4341,-1.5012,0.2217,-0.2992,0.3488,11.4000,52.2000,-164.4000,6.4700,0.8300,-7.6700,0.0076,0.0480,0.0404,6.5000,12.1875,31.2500,60.1875,39.2500,-176.3750,0
1776971926.073,9.6247,0.0718,0.6321,0.5865,0.1727,0.5428,-87.0000,10.6500,-18.6000,9.8330,-1.4030,-0.9433,0.1937,-0.2718,0.3331,11.4000,52.2000,-164.4000,6.4700,0.8300,-7.6700,0.0076,0.0480,0.0404,6.5000,12.1875,31.2500,60.1875,39.2500,-176.3750,0
1776971926.078,9.6750,0.0407,0.6249,0.5865,0.1727,0.5428,-88.0500,9.3000,-18.4500,9.8330,-1.4030,-0.9433,0.1937,-0.2718,0.3331,13.0500,53.2500,-163.8000,6.4300,0.7800,-7.6100,-0.0044,0.0491,0.0196,6.5000,12.1875,31.2500,60.1875,39.3125,-176.3125,0
1776971926.083,9.6750,0.0407,0.6249,0.5564,0.1628,0.5617,-88.0500,9.3000,-18.4500,9.7229,-1.5227,-0.4956,0.1279,-0.2348,0.2992,13.0500,53.2500,-163.8000,6.4300,0.7800,-7.6100,-0.0044,0.0491,0.0196,6.5000,12.1875,31.2500,60.1875,39.3125,-176.3125,0
1776971926.088,9.7899,0.1867,0.5459,0.5564,0.1628,0.5617,-87.0000,8.4000,-19.3500,9.7229,-1.5227,-0.4956,0.1279,-0.2348,0.2992,14.1000,52.5000,-165.6000,6.4300,0.7800,-7.6100,-0.0240,0.0349,0.0000,6.5000,12.1875,31.2500,60.1875,39.3125,-176.3125,0
1776971926.093,9.7899,0.1867,0.5459,0.4959,0.1700,0.5737,-87.0000,8.4000,-19.3500,9.8330,-1.3455,-0.1245,0.0448,-0.1974,0.2697,14.1000,52.5000,-165.6000,6.3000,0.9300,-7.5300,-0.0240,0.0349,0.0000,6.5000,12.1875,31.2500,60.1875,39.3125,-176.1875,0
1776971926.102,9.8210,0.2753,0.5387,0.4319,0.1545,0.5766,-86.7000,8.4000,-19.3500,9.9551,-1.1253,0.1939,-0.0322,-0.2046,0.2595,13.9500,52.2000,-164.4000,6.3800,0.8700,-7.5200,-0.0491,0.0240,-0.0164,6.5000,12.1875,31.2500,60.1875,39.3125,-176.1875,0
1776971926.107,9.7827,0.5124,0.5195,0.4319,0.1545,0.5766,-86.8500,9.3000,-19.2000,9.9551,-1.1253,0.1939,-0.0322,-0.2046,0.2595,14.2500,51.1500,-163.9500,6.3800,0.8700,-7.5200,-0.0927,0.0305,-0.0360,6.5000,12.1875,31.2500,60.1875,39.3750,-176.0625,0
1776971926.113,9.7827,0.5124,0.5195,0.3600,0.1298,0.5508,-86.8500,9.3000,-19.2000,10.0461,-0.7973,0.2777,-0.0282,-0.2478,0.2401,14.2500,51.1500,-163.9500,6.2700,0.9500,-7.4300,-0.0927,0.0305,-0.0360,6.5000,12.1875,31.2500,60.1875,39.3750,-176.0625,0
1776971926.118,9.8330,0.9122,0.5435,0.2832,0.0999,0.5151,-87.4500,9.4500,-17.5500,10.0461,-0.7973,0.2777,-0.0282,-0.2478,0.2401,14.2500,51.1500,-163.9500,6.2700,0.9500,-7.4300,-0.0927,0.0305,-0.0360,6.5000,12.5625,30.8750,60.1875,39.3750,-175.9375,0
1776971926.123,9.8330,0.9122,0.5435,0.2832,0.0999,0.5151,-87.4500,9.4500,-17.5500,10.1490,-0.3711,0.1221,0.0421,-0.2891,0.2233,14.2500,51.1500,-163.9500,6.1000,1.1300,-7.3300,-0.1254,0.0044,-0.0349,6.5000,12.5625,30.8750,60.1875,39.3750,-175.9375,0
1776971926.128,9.8785,1.1923,0.6776,0.2110,0.0703,0.4652,-87.4500,9.4500,-17.5500,10.1490,-0.3711,0.1221,0.0421,-0.2891,0.2233,12.3000,52.0500,-164.5500,6.1000,1.1300,-7.3300,-0.1254,0.0044,-0.0349,6.5000,12.5625,30.8750,60.1875,39.3750,-175.8125,0
1776971926.133,9.8785,1.1923,0.6776,0.2110,0.0703,0.4652,-87.4500,9.4500,-17.5500,10.2376,-0.1676,0.2753,0.0938,-0.3533,0.2150,12.3000,52.0500,-164.5500,6.0300,0.9900,-7.4900,-0.1298,-0.0327,-0.0131,6.5000,12.5625,30.8750,60.1875,39.3750,-175.8125,0
1776971926.138,9.7348,1.3168,0.8859,0.1601,0.0429,0.4271,-87.4500,7.5000,-18.6000,10.2376,-0.1676,0.2753,0.0938,-0.3533,0.2150,12.7500,52.9500,-164.7000,6.0300,0.9900,-7.4900,-0.1167,-0.0262,0.0022,6.5000,12.5625,30.8750,60.1875,39.3125,-175.7500,0
1776971926.143,9.7348,1.3168,0.8859,0.1601,0.0429,0.4271,-87.4500,7.5000,-18.6000,10.0748,-0.1484,0.2370,0.1351,-0.4040,0.2212,12.7500,52.9500,-164.7000,5.9700,1.0100,-7.4800,-0.1167,-0.0262,0.0022,6.5000,12.5625,30.8750,60.2500,39.3125,-175.6875,0
1776971926.153,9.6678,1.5036,1.0008,0.1351,0.0389,0.3960,-87.4500,7.5000,-18.6000,10.0485,-0.3591,0.3208,0.1833,-0.4615,0.2395,10.8000,52.5000,-163.8000,5.9800,0.9900,-7.5200,-0.0807,-0.0022,0.0207,6.5000,12.5625,30.8750,60.2500,39.3125,-175.6875,0
1776971926.163,9.6606,1.6137,1.1229,0.1274,0.0408,0.3698,-85.9500,8.7000,-17.8500,9.9623,-0.7590,0.4405,0.2092,-0.5207,0.2814,11.4000,53.4000,-165.0000,6.0700,0.9700,-7.4700,-0.0349,0.0545,0.0338,6.5000,12.5625,30.8750,60.2500,39.3750,-175.6875,0
1776971926.167,9.5936,1.6352,1.1971,0.1748,0.0536,0.3525,-86.7000,7.9500,-19.0500,9.9623,-0.7590,0.4405,0.2092,-0.5207,0.2814,11.2500,52.5000,-164.5500,6.0700,0.9700,-7.4700,-0.0349,0.0545,0.0338,6.5000,12.5625,30.8750,60.2500,39.4375,-175.6875,0
1776971926.173,9.5936,1.6352,1.1971,0.1748,0.0536,0.3525,-86.7000,7.9500,-19.0500,9.9359,-0.8906,0.4836,0.2166,-0.5865,0.3227,11.2500,52.5000,-164.5500,6.1400,1.0300,-7.4800,0.0000,0.1025,0.0480,7.1875,12.5625,30.8750,60.2500,39.4375,-175.6875,0
1776971926.177,9.4810,1.5467,1.2330,0.2409,0.0637,0.3368,-86.8500,7.3500,-18.0000,9.9359,-0.8906,0.4836,0.2166,-0.5865,0.3227,11.2500,52.5000,-164.5500,6.1400,1.0300,-7.4800,0.0000,0.1025,0.0480,7.1875,12.5625,30.8750,60.3125,39.5000,-175.6875,0
1776971926.182,9.4810,1.5467,1.2330,0.2409,0.0637,0.3368,-86.8500,7.3500,-18.0000,9.9192,-1.1779,0.3136,0.1847,-0.6507,0.3906,11.2500,52.5000,-164.5500,6.1500,1.0200,-7.4400,0.0284,0.1407,0.0611,7.1875,12.5625,30.8750,60.3125,39.5000,-175.6875,0
1776971926.187,9.4858,1.2905,1.1732,0.2867,0.0645,0.3285,-87.3000,7.3500,-18.4500,9.9192,-1.1779,0.3136,0.1847,-0.6507,0.3906,10.5000,51.7500,-166.6500,6.1500,1.0200,-7.4400,0.0491,0.1713,0.0807,7.1875,12.5625,30.8750,60.3125,39.5625,-175.6875,0
1776971926.193,9.4786,1.1133,1.1061,0.2867,0.0645,0.3285,-87.3000,7.3500,-18.4500,9.7851,-1.5802,0.2466,0.1604,-0.7149,0.4463,10.5000,51.7500,-166.6500,6.1400,0.9800,-7.4400,0.0491,0.1713,0.0807,7.1875,12.5625,30.8750,60.3125,39.5625,-175.6875,0
1776971926.201,9.4786,1.1133,1.1061,0.2992,0.0749,0.3174,-88.6500,7.5000,-18.6000,9.8258,-1.7573,-0.0670,0.1290,-0.7498,0.4876,12.1500,52.2000,-168.3000,6.2200,0.9500,-7.4100,0.0720,0.1996,0.0982,7.1875,12.5625,30.8750,60.3125,39.6875,-175.7500,0
1776971926.206,9.6007,0.9433,1.0032,0.2867,0.0778,0.2971,-88.6500,7.5000,-18.6000,9.8258,-1.7573,-0.0670,0.1290,-0.7498,0.4876,12.1500,51.1500,-167.2500,6.2200,0.9500,-7.4100,0.0720,0.1996,0.0982,7.1875,12.5625,30.8750,60.3750,39.8125,-175.8125,0
1776971926.213,9.6031,0.8045,0.9553,0.2713,0.0642,0.2888,-87.0000,7.9500,-18.3000,9.8928,-1.6496,-0.1628,0.1447,-0.7639,0.5036,12.1500,51.1500,-167.2500,6.2100,0.9200,-7.3800,0.1004,0.2193,0.1080,7.1875,12.5625,30.8750,60.3750,39.8125,-175.8125,0
1776971926.218,9.6031,0.8045,0.9553,0.2713,0.0642,0.2888,-87.4500,6.0000,-18.3000,9.9958,-1.3240,-0.4262,0.1090,-0.7669,0.4956,13.0500,53.5500,-166.9500,6.2100,0.9200,-7.3800,0.1156,0.2378,0.1156,6.5000,13.6875,30.8750,60.3750,39.9375,-175.8750,0
1776971926.223,9.5672,0.7422,0.9409,0.2332,0.0520,0.2753,-87.4500,6.0000,-18.3000,9.9958,-1.3240,-0.4262,0.1090,-0.7669,0.4956,13.0500,53.5500,-166.9500,6.1100,0.8700,-7.4000,0.1156,0.2378,0.1156,6.5000,13.6875,30.8750,60.3750,39.9375,-175.8750,0
1776971926.228,9.5672,0.7422,0.9409,0.2332,0.0520,0.2753,-88.8000,6.6000,-18.4500,10.0197,-1.2450,-0.3208,0.1274,-0.7749,0.4650,12.6000,52.8000,-167.7000,6.1100,0.8700,-7.4000,0.1156,0.2378,0.1156,6.5000,13.6875,30.8750,60.3750,40.1250,-175.9375,0
1776971926.233,9.5481,0.7733,0.8930,0.2028,0.0229,0.2614,-88.8000,6.6000,-18.4500,10.0197,-1.2450,-0.3208,0.1274,-0.7749,0.4650,12.6000,52.8000,-167.7000,6.0400,0.8800,-7.3600,0.1222,0.2618,0.1244,6.5000,13.6875,30.8750,60.3750,40.1250,-175.9375,0
1776971926.238,9.5481,0.7733,0.8930,0.2028,0.0229,0.2614,-88.8000,6.6000,-18.4500,10.0892,-1.1827,-0.1365,0.1066,-0.8007,0.4482,12.6000,52.8000,-167.7000,6.0400,0.8800,-7.3600,0.1244,0.3054,0.1331,6.5000,13.6875,30.8750,60.4375,40.2500,-176.0000,0
1776971926.244,9.5385,0.8332,0.9625,0.1703,-0.0077,0.2459,-88.8000,6.6000,-18.4500,10.0892,-1.1827,-0.1365,0.1066,-0.8007,0.4482,13.0500,52.0500,-168.7500,5.9400,0.8500,-7.3100,0.1244,0.3054,0.1331,6.5000,13.6875,30.8750,60.5000,40.4375,-176.1250,0
1776971926.253,9.4475,0.8859,0.9864,0.1407,-0.0410,0.2377,-88.2000,5.2500,-18.3000,9.9503,-0.7302,-0.4645,0.1593,-0.8439,0.4109,13.0500,52.0500,-168.7500,5.8200,0.8600,-7.2900,0.1254,0.3414,0.1440,6.5000,13.6875,30.8750,60.5000,40.4375,-176.1250,0
1776971926.263,9.3685,0.8236,1.1372,0.1311,-0.0578,0.2270,-87.3000,4.9500,-17.4000,10.0652,-1.1301,-0.8045,0.1585,-0.9036,0.4016,12.1500,51.9000,-170.7000,5.9600,0.7000,-7.3900,0.1331,0.3992,0.1604,6.5000,13.6875,30.8750,60.5625,40.6875,-176.3125,0
1776971926.268,9.3685,0.8236,1.1372,0.1311,-0.0578,0.2270,-86.7000,5.5500,-19.3500,9.9455,-1.4940,-0.5842,0.1905,-0.9734,0.4053,12.1500,51.9000,-170.1000,5.9600,0.7000,-7.3900,0.1331,0.3992,0.1604,6.5000,13.6875,30.8750,60.6250,40.9375,-176.4375,0
1776971926.273,9.3422,0.7015,1.2306,0.1215,-0.0733,0.2100,-86.7000,5.5500,-19.3500,9.9455,-1.4940,-0.5842,0.1905,-0.9734,0.4053,12.7500,51.1500,-169.3500,6.2200,0.5900,-7.0700,0.1396,0.4996,0.1887,7.1875,13.2500,31.2500,60.6250,40.9375,-176.4375,0
1776971926.278,9.3422,0.7015,1.2306,0.1215,-0.0733,0.2100,-86.7000,5.5500,-19.3500,9.6534,-1.5514,-0.9792,0.2185,-1.0222,0.4271,12.7500,51.1500,-169.3500,6.2200,0.5900,-7.0700,0.1396,0.4996,0.1887,7.1875,13.2500,31.2500,60.6250,41.3125,-176.5625,0
1776971926.283,9.3685,0.5650,1.2737,0.1132,-0.0799,0.1974,-88.9500,6.7500,-18.6000,9.6534,-1.5514,-0.9792,0.2185,-1.0222,0.4271,12.7500,51.1500,-169.3500,5.8100,1.0100,-7.0400,0.1953,0.5989,0.1571,7.1875,13.2500,31.2500,60.6250,41.3125,-176.5625,0
1776971926.288,9.3685,0.5650,1.2737,0.1132,-0.0799,0.1974,-88.8000,5.4000,-19.2000,9.6822,-2.0135,-0.7542,0.1940,-1.0275,0.4618,12.7500,51.1500,-169.3500,5.8100,1.0100,-7.0400,0.2389,0.5705,0.1887,7.1875,13.2500,31.2500,60.6875,41.5625,-176.7500,0
1776971926.294,9.2799,0.5411,1.1253,0.1034,-0.0869,0.1815,-88.8000,5.4000,-19.2000,9.6822,-2.0135,-0.7542,0.1940,-1.0275,0.4618,12.7500,51.1500,-169.3500,6.1700,0.6700,-7.5600,0.2389,0.5705,0.1887,7.1875,13.2500,31.2500,60.7500,41.9375,-176.9375,0
1776971926.303,9.3518,0.6081,1.0558,0.0738,-0.1148,0.1663,-87.4500,4.0500,-20.5500,9.7157,-2.1404,-0.9002,0.1077,-1.0416,0.5111,11.2500,50.5500,-171.0000,6.7400,0.5500,-7.1500,0.2291,0.6610,0.2160,7.1875,13.2500,31.2500,60.7500,41.9375,-176.9375,0
1776971926.313,9.4068,0.7494,1.1109,0.0144,-0.1426,0.1615,-88.0500,3.9000,-20.2500,9.6845,-2.0446,-0.8164,0.0064,-1.0504,0.5494,12.1500,48.9000,-172.5000,6.4200,0.4200,-7.3700,0.2127,0.7047,0.2040,7.1875,13.2500,31.2500,60.8125,42.3125,-177.1250,0
1776971926.318,9.4068,0.7494,1.1109,0.0144,-0.1426,0.1615,-88.0500,3.9000,-20.2500,9.8114,-1.8100,-0.7278,-0.1226,-1.0325,0.5913,12.1500,48.9000,-172.5000,6.4200,0.4200,-7.3700,0.2127,0.7047,0.2040,7.1875,13.2500,31.2500,60.8125,42.3125,-177.1250,0
1776971926.323,9.4164,0.9002,1.0678,-0.0330,-0.1761,0.1545,-88.0500,3.9000,-19.2000,9.8114,-1.8100,-0.7278,-0.1226,-1.0325,0.5913,10.0500,51.0000,-171.3000,6.4000,0.5000,-7.4000,0.1800,0.6905,0.1898,6.1875,13.0000,30.8750,60.8750,42.7500,-177.3125,0
1776971926.328,9.4236,1.0726,1.0582,-0.0330,-0.1761,0.1545,-88.0500,3.9000,-19.2000,9.8545,-1.1444,-0.7638,-0.1847,-1.0131,0.6057,10.0500,51.0000,-171.3000,6.4000,0.5000,-7.4000,0.1800,0.6905,0.1898,6.1875,13.0000,30.8750,60.8750,42.7500,-177.3125,0
1776971926.333,9.4236,1.0726,1.0582,-0.0973,-0.2070,0.1580,-88.0500,3.9000,-19.2000,9.8545,-1.1444,-0.7638,-0.1847,-1.0131,0.6057,13.8000,49.5000,-172.6500,6.3700,0.8900,-7.2400,0.1396,0.7658,0.1833,6.1875,13.0000,30.8750,60.9375,43.1875,-177.5000,0
1776971926.338,9.4068,1.5179,0.9840,-0.0973,-0.2070,0.1580,-88.0500,3.9000,-19.2000,9.8426,-1.1636,-0.8787,-0.2569,-1.0155,0.6110,13.8000,49.5000,-172.6500,6.3700,0.8900,-7.2400,0.1047,0.8050,0.2149,6.1875,13.0000,30.8750,61.0000,43.6250,-177.6250,0
1776971926.344,9.4068,1.5179,0.9840,-0.1569,-0.2491,0.1543,-88.0500,4.2000,-19.5000,10.0365,-1.1444,-1.0056,-0.3440,-1.0957,0.6600,13.8000,49.5000,-172.6500,7.1700,-0.1000,-7.9100,0.1047,0.8050,0.2149,6.1875,13.0000,30.8750,61.0625,44.0625,-177.7500,0
1776971926.353,9.4068,1.9178,0.9409,-0.2001,-0.3011,0.1476,-88.0500,4.2000,-19.5000,10.0365,-1.1444,-1.0056,-0.3440,-1.0957,0.6600,13.8000,49.5000,-172.6500,7.4900,-0.7000,-7.7900,0.0731,0.8236,0.1854,6.1875,13.0000,30.8750,61.0625,44.0625,-177.7500,0
1776971926.363,9.5098,2.2960,1.0534,-0.2164,-0.3379,0.1428,-89.1000,4.9500,-19.2000,10.6303,-1.5826,-0.1245,-0.3762,-1.1834,0.7698,13.3500,47.2500,-175.2000,7.4300,0.2400,-8.1000,0.0284,0.8847,0.0633,6.1875,13.0000,30.8750,61.1250,44.5625,-177.8125,0
1776971926.368,9.5098,2.7198,1.2857,-0.1977,-0.3515,0.1239,-89.1000,4.9500,-19.2000,10.6303,-1.5826,-0.1245,-0.3762,-1.1834,0.7698,13.3500,47.2500,-175.2000,7.4300,0.2400,-8.1000,0.0284,0.8847,0.0633,6.1875,13.0000,30.8750,65.3750,45.0625,-177.8125,0
1776971926.373,9.5098,2.7198,1.2857,-0.1977,-0.3515,0.1239,-89.5500,3.4500,-19.2000,11.3701,-1.6281,-0.3400,-0.4138,-1.3315,0.8652,13.0500,47.2500,-176.2500,7.2200,1.1100,-6.0600,0.0229,0.8770,0.0469,6.1875,13.6875,30.0625,65.3750,45.0625,-177.8125,0
1776971926.378,9.7540,3.0023,1.5323,-0.1516,-0.3504,0.0810,-89.5500,3.4500,-19.2000,11.3701,-1.6281,-0.3400,-0.4138,-1.3315,0.8652,13.0500,47.2500,-176.2500,7.2200,1.1100,-6.0600,0.0229,0.8770,0.0469,6.1875,13.6875,30.0625,65.3750,45.5625,-177.8125,0
1776971926.383,9.7540,3.0023,1.5323,-0.1516,-0.3504,0.0810,-88.6500,4.5000,-19.8000,12.1793,-1.5969,-0.2777,-0.4173,-1.4472,0.8977,13.8000,44.2500,-176.2500,6.6400,0.3800,-7.6600,-0.0087,0.8890,0.0044,6.1875,13.6875,30.0625,65.3750,45.5625,-177.8125,0
1776971926.388,10.4172,3.2489,1.4485,-0.0301,-0.3555,-0.0003,-88.6500,4.5000,-19.8000,12.1793,-1.5969,-0.2777,-0.4173,-1.4472,0.8977,13.8000,44.2500,-176.2500,6.6400,0.3800,-7.6600,0.0153,0.8301,-0.0316,6.1875,13.6875,30.0625,65.3125,46.0000,-177.7500,0
1776971926.394,10.4172,3.2489,1.4485,-0.0301,-0.3555,-0.0003,-88.8000,4.6500,-20.2500,13.1777,-0.7566,-1.1516,-0.5415,-1.5039,0.9755,14.8500,44.5500,-177.0000,6.8000,0.4900,-7.0800,0.0153,0.8301,-0.0316,6.1875,13.6875,30.0625,65.2500,46.5000,-177.7500,0
1776971926.403,11.2456,3.3208,1.4126,0.0930,-0.3837,-0.1215,-87.4500,4.0500,-18.6000,14.3173,-0.3783,-1.3312,-0.7210,-1.5857,1.0232,14.8500,44.5500,-177.0000,5.9500,-0.3700,-8.0500,0.0251,0.9021,-0.0578,6.1875,13.6875,30.0625,65.2500,46.5000,-177.7500,0
1776971926.413,11.4658,3.4093,1.3743,0.2158,-0.4279,-0.2334,-90.1500,4.0500,-19.8000,15.1649,0.0599,-0.8906,-0.9883,-1.7611,1.0251,14.8500,44.5500,-177.0000,5.8800,0.3100,-7.5900,-0.0687,0.9916,0.0393,6.1875,13.6875,30.0625,65.3125,47.0625,-177.6875,0
1776971926.418,11.7412,3.3160,1.1875,0.3352,-0.4330,-0.3525,-90.1500,4.0500,-19.8000,15.1649,0.0599,-0.8906,-0.9883,-1.7611,1.0251,14.8500,44.5500,-177.0000,5.8800,0.3100,-7.5900,-0.0687,0.9916,0.0393,6.1875,13.6875,30.0625,65.3125,47.0625,-177.6875,0
1776971926.423,11.7412,3.3160,1.1875,0.3352,-0.4330,-0.3525,-90.1500,4.0500,-19.8000,15.8831,0.6249,-0.4573,-1.1620,-1.9177,1.0384,18.1500,41.2500,-180.9000,6.1500,-0.4900,-7.8400,-0.1724,1.2730,0.0000,4.3750,13.0000,29.3750,65.4375,47.7500,-177.5625,0
1776971926.428,11.9854,3.2944,1.1325,0.4511,-0.4626,-0.4783,-90.1500,4.0500,-19.8000,15.8831,0.6249,-0.4573,-1.1620,-1.9177,1.0384,18.1500,41.2500,-180.9000,6.1500,-0.4900,-7.8400,-0.1724,1.2730,0.0000,4.3750,13.0000,29.3750,65.4375,47.7500,-177.5625,0
1776971926.433,11.9854,3.2944,1.1325,0.4511,-0.4626,-0.4783,-89.7000,4.8000,-20.8500,15.7491,1.0008,-0.2370,-1.2436,-2.1064,1.0461,18.7500,37.8000,-183.0000,6.2400,0.3600,-7.5100,-0.3054,1.4519,-0.0753,4.3750,13.0000,29.3750,65.8125,48.5625,-177.3125,0
1776971926.438,11.6167,3.2346,0.9912,0.5039,-0.5361,-0.6057,-89.7000,4.8000,-20.8500,15.7491,1.0008,-0.2370,-1.2436,-2.1064,1.0461,18.7500,37.8000,-183.0000,6.2400,0.3600,-7.5100,-0.4309,1.6330,-0.1309,4.3750,13.0000,29.3750,66.3125,49.4375,-176.9375,0
1776971926.444,11.3030,2.8850,0.4621,0.4908,-0.6536,-0.7504,-89.7000,4.8000,-20.8500,15.2319,1.1588,-0.4717,-1.2324,-2.2489,1.0706,20.2500,39.7500,-184.8000,6.7100,1.2300,-7.2100,-0.4309,1.6330,-0.1309,4.3750,13.0000,29.3750,66.8125,50.6875,-176.5000,0
1776971926.453,11.4108,2.0423,-0.4166,0.4908,-0.6536,-0.7504,-89.1000,2.2500,-21.0000,14.7962,1.5347,-0.7207,-1.1663,-2.3843,1.0778,21.3000,38.2500,-189.7500,6.4000,0.8800,-5.6700,-0.4658,2.1926,-0.1342,4.3750,13.0000,29.3750,66.8125,50.6875,-176.5000,0
1776971926.463,11.5640,1.0726,-0.9936,0.2470,-0.9329,-1.0416,-88.2000,4.5000,-20.8500,13.7164,0.7829,-0.6105,-1.0091,-2.5061,1.0592,21.3000,38.2500,-189.7500,7.2700,0.9000,-5.6100,-0.4789,2.7587,-0.1178,4.3750,13.0000,29.3750,67.2500,52.1875,-176.0625,0
1776971926.468,11.5640,1.0726,-0.9936,0.2470,-0.9329,-1.0416,-88.2000,4.5000,-20.8500,13.7164,0.7829,-0.6105,-1.0091,-2.5061,1.0592,21.3000,38.2500,-189.7500,7.2700,0.9000,-5.6100,-0.4789,2.7587,-0.1178,4.3750,13.0000,29.3750,67.2500,52.1875,-176.0625,0
1776971926.473,11.1402,-0.2562,-1.3312,0.1444,-1.0528,-1.1703,-89.4000,4.8000,-20.8500,12.3014,0.2466,-0.7901,-0.9265,-2.6188,0.9297,24.1500,38.7000,-195.7500,6.6800,-0.3400,-6.4100,-0.9523,3.2889,0.0480,3.1875,13.2500,29.3750,68.0625,54.0000,-175.3750,0
1776971926.478,11.1402,-0.2562,-1.3312,0.1444,-1.0528,-1.1703,-89.4000,4.8000,-20.8500,12.3014,0.2466,-0.7901,-0.9265,-2.6188,0.9297,24.1500,38.7000,-195.7500,6.6800,-0.3400,-6.4100,-0.9523,3.2889,0.0480,3.1875,13.2500,29.3750,68.0625,54.0000,-175.3750,0
1776971926.483,10.8002,-1.3815,-0.9098,0.1007,-1.1482,-1.3097,-87.7500,5.2500,-21.1500,10.8577,0.7135,-0.7063,-0.8497,-2.7352,0.7674,25.5000,37.6500,-197.1000,8.4700,0.4800,-6.8100,-1.6068,3.3936,0.3862,3.1875,13.2500,29.3750,69.3750,55.9375,-174.5625,0
1776971926.490,10.8002,-1.3815,-0.9098,0.1007,-1.1482,-1.3097,-88.6500,4.5000,-21.6000,9.6893,1.3455,-1.1277,-0.5817,-2.8229,0.6126,25.5000,36.9000,-198.6000,8.0300,3.3600,-13.0500,-1.8566,2.8732,0.9490,3.1875,13.2500,29.3750,70.5625,57.5625,-174.0625,0
1776971926.495,10.5656,-2.0782,-1.3144,-0.1860,-1.2785,-1.4517,-88.6500,4.5000,-21.6000,9.6893,1.3455,-1.1277,-0.5817,-2.8229,0.6126,25.5000,36.9000,-198.6000,8.0300,3.3600,-13.0500,-1.8566,2.8732,0.9490,3.1875,13.2500,29.3750,70.6250,59.8750,-174.1250,0
1776971926.504,9.6007,-2.4086,-1.2905,-0.6067,-1.4354,-1.5719,-88.3500,5.4000,-22.2000,9.0357,1.4413,-2.1404,-0.1196,-2.8610,0.5044,24.4500,37.2000,-199.9500,11.1100,5.1600,-6.2700,-0.9468,4.1495,1.0516,3.1875,13.2500,29.3750,70.6250,59.8750,-174.1250,0
1776971926.513,8.7604,-2.5905,-0.6081,-0.8210,-1.4882,-1.6880,-88.3500,5.4000,-22.2000,8.4156,-0.5052,-3.7876,0.3096,-2.7901,0.5103,25.6500,36.3000,-199.5000,14.4900,3.3700,-9.4800,0.6163,4.6764,1.4028,3.1875,13.2500,29.3750,69.0625,62.5625,-175.4375,0
1776971926.518,8.7604,-2.5905,-0.6081,-0.8210,-1.4882,-1.6880,-88.3500,5.4000,-22.2000,8.3222,-2.7438,-5.3056,0.6073,-2.8144,0.7003,25.6500,36.3000,-199.5000,14.4900,3.3700,-9.4800,0.6163,4.6764,1.4028,3.1875,13.2500,29.3750,69.0625,62.5625,-175.4375,0
1776971926.523,8.3797,-2.2817,0.0407,-0.8034,-1.3414,-1.7405,-88.0500,8.1000,-22.5000,8.3222,-2.7438,-5.3056,0.6073,-2.8144,0.7003,25.6500,36.3000,-199.5000,16.3900,4.0700,-10.0800,1.0221,4.4015,1.9330,-0.7500,10.7500,29.3750,66.9375,65.0625,-177.8750,0
1776971926.528,8.3797,-2.2817,0.0407,-0.8034,-1.3414,-1.7405,-88.0500,8.1000,-22.5000,7.6423,-5.7245,-6.3470,0.7741,-2.6782,0.8290,25.6500,36.3000,-199.5000,16.3900,4.0700,-10.0800,1.0221,4.4015,1.9330,-0.7500,10.7500,29.3750,66.9375,65.0625,-177.8750,0
1776971926.533,8.5090,-1.4126,0.5124,-0.6744,-1.1447,-1.7674,-88.0500,8.1000,-22.5000,7.6423,-5.7245,-6.3470,0.7741,-2.6782,0.8290,24.7500,30.1500,-203.8500,14.6700,5.3900,-8.2900,1.0101,4.0252,1.9940,-0.7500,10.7500,29.3750,65.0000,67.3125,179.0000,0
1776971926.538,8.5090,-1.4126,0.5124,-0.6744,-1.1447,-1.7674,-88.0500,8.1000,-22.5000,7.1275,-7.4747,-6.8019,0.5532,-2.6044,0.8404,24.7500,30.1500,-203.8500,14.6700,5.3900,-8.2900,1.0908,3.7917,2.1871,-0.7500,10.7500,29.3750,62.9375,69.3125,175.1250,0
1776971926.544,8.9663,0.3328,-0.4357,-0.3504,-0.7013,-1.6891,-88.2000,9.1500,-24.6000,7.1275,-7.4747,-6.8019,0.5532,-2.6044,0.8404,24.7500,22.6500,-201.7500,18.8400,7.2400,-11.9700,1.0908,3.7917,2.1871,-0.7500,10.7500,29.3750,61.0000,71.0000,170.3750,0
1776971926.554,9.9910,1.5993,-0.4214,-0.1242,-0.4082,-1.6110,-88.9500,11.4000,-25.3500,5.1404,-8.0924,-7.1802,0.6235,-2.6404,0.8881,25.6500,13.0500,-198.7500,11.3100,5.7300,-11.3700,1.0243,3.3379,2.2787,-0.7500,10.7500,29.3750,61.0000,71.0000,170.3750,0
1776971926.563,10.8649,1.9944,-0.0120,0.1479,-0.2987,-1.5588,-88.8000,10.9500,-27.3000,5.3295,-8.2217,-4.0127,0.8607,-2.4283,0.8130,24.6000,2.2500,-193.8000,4.5400,3.2900,-15.0600,1.2894,2.3889,2.3660,-0.7500,10.7500,29.3750,58.8125,72.0000,165.0000,0
1776971926.568,11.2408,2.2458,-0.0335,0.1479,-0.2987,-1.5588,-88.8000,10.9500,-27.3000,2.9497,-8.4372,-3.8355,0.8737,-2.0776,0.5550,21.3000,-4.8000,-185.8500,4.5400,3.2900,-15.0600,1.2894,2.3889,2.3660,-0.7500,10.7500,29.3750,58.8125,72.0000,165.0000,0
1776971926.573,11.2408,2.2458,-0.0335,0.4780,-0.1913,-1.5236,-87.6000,11.7000,-25.0500,2.9497,-8.4372,-3.8355,0.8737,-2.0776,0.5550,21.3000,-4.8000,-185.8500,10.9900,0.8800,-12.5000,1.4683,1.5032,2.1544,-5.6875,11.0625,26.5625,56.6250,72.4375,159.8125,0
1776971926.578,11.6358,1.7933,-0.1293,0.4780,-0.1913,-1.5236,-87.6000,11.7000,-25.0500,2.6145,-7.5130,-4.6950,0.6595,-2.0776,0.2723,21.3000,-4.8000,-185.8500,10.9900,0.8800,-12.5000,1.4683,1.5032,2.1544,-5.6875,11.0625,26.5625,56.6250,72.4375,159.8125,0
1776971926.583,11.6358,1.7933,-0.1293,0.8037,-0.0911,-1.4658,-87.4500,13.5000,-26.1000,2.6145,-7.5130,-4.6950,0.6595,-2.0776,0.2723,21.3000,-4.8000,-185.8500,10.2300,4.1900,-16.3700,1.7431,1.0810,1.8086,-5.6875,11.0625,26.5625,54.4375,72.6250,155.1875,0
1776971926.590,12.2439,2.3990,-0.1676,1.0938,-0.0799,-1.3965,-87.4500,13.5000,-26.1000,2.4708,-6.3997,-4.1899,0.5441,-1.6030,-0.0709,16.5000,-18.1500,-162.9000,3.1200,4.3000,-11.2200,1.1366,0.3392,1.1290,-5.6875,11.0625,26.5625,53.0625,72.5000,152.5000,0
1776971926.595,12.2439,2.3990,-0.1676,1.0938,-0.0799,-1.3965,-88.6500,13.5000,-26.4000,2.4708,-6.3997,-4.1899,0.5441,-1.6030,-0.0709,16.5000,-18.1500,-162.9000,3.1200,4.3000,-11.2200,1.1366,0.3392,1.1290,-5.6875,11.0625,26.5625,51.8750,72.1250,150.8750,0
1776971926.604,11.1809,1.9872,0.2801,1.3997,-0.0914,-1.3542,-88.6500,13.5000,-26.4000,2.7533,-2.5235,-3.8523,0.4935,-1.5290,-0.2142,12.7500,-22.2000,-150.1500,2.4000,4.0100,-8.7000,0.8410,-0.3272,0.9316,-5.6875,11.0625,26.5625,51.8750,72.1250,150.8750,0
1776971926.614,10.6734,1.3791,0.7638,1.6001,0.0232,-1.3062,-87.6000,15.1500,-26.2500,0.9864,-1.9944,-4.1061,0.4146,-1.0413,-0.3283,9.7500,-28.5000,-141.0000,3.7600,3.8600,-9.4600,0.9032,-0.4396,1.0221,-5.6875,11.0625,26.5625,50.6250,71.6250,149.2500,0
1776971926.619,10.3956,1.2163,0.9936,1.7118,0.1130,-1.2662,-87.6000,15.1500,-26.2500,0.1365,-2.0327,-6.3183,0.2414,-1.2828,-0.4447,9.9000,-31.9500,-134.7000,3.7600,3.8600,-9.4600,0.9032,-0.4396,1.0221,-5.6875,11.0625,26.5625,49.1875,70.9375,147.7500,0
1776971926.624,10.3956,1.2163,0.9936,1.7118,0.1130,-1.2662,-87.6000,15.1500,-26.2500,0.1365,-2.0327,-6.3183,0.2414,-1.2828,-0.4447,9.9000,-31.9500,-134.7000,3.8400,3.9000,-9.6900,1.0145,-0.7330,1.1159,-9.0625,13.0000,24.0000,49.1875,70.9375,147.7500,0
1776971926.629,10.3118,1.0798,1.1277,1.8194,0.1809,-1.2577,-87.6000,15.1500,-26.2500,0.5291,-3.2106,-6.2130,0.6784,-0.1919,-0.7210,9.9000,-39.9000,-132.6000,3.8400,3.9000,-9.6900,1.0145,-0.7330,1.1159,-9.0625,13.0000,24.0000,47.6250,70.0625,146.7500,0
1776971926.634,10.3118,1.0798,1.1277,1.8194,0.1809,-1.2577,-88.6500,18.1500,-27.1500,0.5291,-3.2106,-6.2130,0.6784,-0.1919,-0.7210,9.9000,-39.9000,-132.6000,2.6400,4.2100,-8.3700,1.0177,-1.2075,1.0832,-9.0625,13.0000,24.0000,47.6250,70.0625,146.7500,0
1776971926.638,10.8146,0.6057,1.1013,1.9132,0.1601,-1.2321,-88.6500,18.1500,-27.1500,2.3798,-4.6567,-5.4684,1.2281,0.5681,-1.2425,9.9000,-39.9000,-132.6000,2.6400,4.2100,-8.3700,0.9316,-1.5937,0.9654,-9.0625,13.0000,24.0000,46.1875,69.0625,146.3750,0
1776971926.645,10.6590,0.2322,0.9122,1.9132,0.1601,-1.2321,-86.5500,15.9000,-28.0500,2.5762,-5.3343,-4.9392,1.5791,0.9441,-1.6851,9.9000,-39.9000,-132.6000,2.3000,4.5800,-7.6300,0.9316,-1.5937,0.9654,-9.0625,13.0000,24.0000,44.8125,67.9375,146.3750,0
1776971926.654,10.6590,0.2322,0.9122,1.9420,0.2062,-1.2255,-87.0000,16.5000,-27.9000,3.5003,-4.3598,-6.0645,1.7680,1.4709,-2.0280,11.7000,-44.7000,-134.1000,2.4200,5.2100,-7.3200,0.8498,-1.8664,0.8083,-9.0625,13.0000,24.0000,44.8125,67.9375,146.3750,0
1776971926.664,10.6207,0.1269,0.5986,1.9963,0.3043,-1.2065,-86.8500,16.8000,-27.3000,4.6208,-3.0215,-5.6288,1.7128,1.5228,-2.2457,5.8500,-40.6500,-133.3500,3.2800,6.1800,-6.8000,0.8061,-2.0366,0.6021,-9.0625,13.0000,24.0000,43.5000,66.8125,146.7500,0
1776971926.669,10.5656,-0.0311,0.3376,2.0411,0.4218,-1.1674,-86.8500,16.8000,-27.3000,4.6208,-3.0215,-5.6288,1.7128,1.5228,-2.2457,3.1500,-36.0000,-131.7000,3.2800,6.1800,-6.8000,0.8061,-2.0366,0.6021,-9.0625,13.0000,24.0000,43.5000,66.8125,146.7500,0
1776971926.674,10.3046,0.2634,0.0575,2.0411,0.4218,-1.1674,-86.8500,16.8000,-27.7500,5.2529,-2.6193,-4.0151,1.5034,1.3550,-2.3566,3.1500,-36.0000,-131.7000,3.4400,6.4700,-5.8200,0.8061,-2.1457,0.2902,-8.7500,11.8750,21.6875,42.3125,65.6875,147.5000,0
1776971926.678,10.3046,0.2634,0.0575,2.0757,0.5215,-1.1045,-86.8500,16.8000,-27.7500,5.2529,-2.6193,-4.0151,1.5034,1.3550,-2.3566,1.9500,-31.9500,-129.4500,3.4400,6.4700,-5.8200,0.8061,-2.1457,0.2902,-8.7500,11.8750,21.6875,42.3125,65.6875,147.5000,0
1776971926.684,9.8426,0.6129,-0.0862,2.0757,0.5215,-1.1045,-87.4500,16.5000,-27.9000,5.1547,-3.1173,-3.1556,1.2590,1.0757,-2.4339,1.9500,-31.9500,-129.4500,3.6300,6.4200,-4.8800,0.8781,-2.2024,-0.1342,-8.7500,11.8750,21.6875,41.3125,64.6875,148.5000,0
1776971926.689,9.8426,0.6129,-0.0862,2.1189,0.6336,-1.0435,-87.4500,16.5000,-27.9000,5.1547,-3.1173,-3.1556,1.2590,1.0757,-2.4339,0.4500,-28.9500,-130.2000,3.6300,6.4200,-4.8800,1.0537,-2.4053,-0.5880,-8.7500,11.8750,21.6875,40.3125,63.7500,149.9375,0
1776971926.695,9.5170,1.0798,-0.0958,2.1496,0.7059,-0.9963,-87.4500,16.5000,-27.9000,4.9560,-3.1580,-4.1084,1.2489,0.9379,-2.5479,0.4500,-28.9500,-130.2000,3.7400,6.0100,-4.6000,1.0537,-2.4053,-0.5880,-8.7500,11.8750,21.6875,39.5625,62.8750,151.6875,0
1776971926.704,9.3494,1.3168,0.0024,2.1586,0.6869,-0.9561,-87.4500,18.1500,-27.9000,4.9823,-2.3487,-5.3510,1.5807,0.9358,-2.6638,0.4500,-28.9500,-130.2000,5.4300,6.0200,-5.0400,1.1214,-2.3835,-1.1334,-8.7500,11.8750,21.6875,39.5625,62.8750,151.6875,0
1776971926.714,9.2057,1.5060,0.1939,2.1304,0.6763,-0.9297,-87.4500,18.1500,-27.9000,5.3008,-2.1835,-5.7509,2.0411,1.0762,-2.8618,-0.1500,-28.6500,-129.7500,6.3600,6.0200,-5.5300,1.1541,-2.2340,-1.7115,-8.7500,11.8750,21.6875,39.1250,62.1875,153.7500,0
1776971926.719,9.2057,1.5060,0.1939,2.1304,0.6763,-0.9297,-87.4500,18.1500,-27.9000,5.3008,-2.1835,-5.7509,2.0411,1.0762,-2.8618,-0.4500,-27.1500,-129.4500,6.3600,6.0200,-5.5300,1.1541,-2.2340,-1.7115,-8.7500,11.8750,21.6875,38.8125,61.6250,156.0625,0
1776971926.724,9.1219,1.6352,0.2993,2.0595,0.6526,-0.9054,-86.5500,16.3500,-27.7500,5.8419,-2.0686,-5.7413,2.3830,1.2430,-3.0558,-0.4500,-27.1500,-129.4500,7.2300,5.7000,-6.0500,1.3014,-2.1860,-2.2067,-6.8750,10.3750,16.5000,38.8125,61.6250,156.0625,0
1776971926.729,9.1219,1.6352,0.2993,2.0595,0.6526,-0.9054,-86.5500,16.3500,-27.7500,5.8419,-2.0686,-5.7413,2.3830,1.2430,-3.0558,-0.9000,-27.9000,-127.9500,7.2300,5.7000,-6.0500,1.3014,-2.1860,-2.2067,-6.8750,10.3750,16.5000,38.8125,61.6250,156.0625,0
1776971926.734,9.1626,1.5251,0.5052,1.9582,0.6182,-0.8785,-86.7000,17.7000,-27.9000,6.5027,-2.0135,-5.4755,2.5226,1.3678,-3.1797,-0.9000,-27.9000,-127.9500,8.4000,4.0400,-6.5100,1.4879,-2.2318,-2.5842,-6.8750,10.3750,16.5000,38.5000,61.0625,158.5625,0
1776971926.739,9.1626,1.5251,0.5052,1.9582,0.6182,-0.8785,-86.7000,17.7000,-27.9000,6.5027,-2.0135,-5.4755,2.5226,1.3678,-3.1797,-1.5000,-27.4500,-128.4000,8.4000,4.0400,-6.5100,1.5686,-2.3202,-2.8569,-6.8750,10.3750,16.5000,38.3125,60.3750,161.1250,0
1776971926.745,9.1674,1.3264,0.6656,1.8359,0.5817,-0.8663,-89.1000,17.5500,-27.7500,7.4675,-2.5546,-4.3335,2.4437,1.4123,-3.2178,-3.1500,-27.7500,-127.8000,8.5700,3.3900,-6.2800,1.5686,-2.3202,-2.8569,-6.8750,10.3750,16.5000,38.2500,59.6250,163.8125,0
1776971926.754,9.1626,1.0175,0.6105,1.7256,0.5561,-0.8452,-87.0000,17.4000,-27.9000,8.2073,-3.2465,-3.5578,2.3321,1.3997,-3.1941,-3.1500,-27.7500,-127.8000,8.9600,3.2000,-6.2500,1.5250,-2.3813,-3.0598,-6.8750,10.3750,16.5000,38.2500,59.6250,163.8125,0
1776971926.764,9.3518,0.6967,0.4621,1.6462,0.5191,-0.8362,-86.8500,18.3000,-27.0000,8.9016,-3.8595,-3.3184,2.3414,1.3587,-3.1776,-3.7500,-27.7500,-127.8000,9.7600,3.8900,-6.2900,1.4334,-2.3813,-3.2005,-6.8750,10.3750,16.5000,38.3125,58.8125,166.4375,0
1776971926.769,9.3518,0.6967,0.4621,1.6462,0.5191,-0.8362,-86.8500,18.3000,-27.0000,8.9016,-3.8595,-3.3184,2.3414,1.3587,-3.1776,-3.7500,-28.2000,-125.8500,9.7600,3.8900,-6.2900,1.4334,-2.3813,-3.2005,-6.8750,10.3750,16.5000,38.3125,58.8125,166.4375,0
1776971926.774,9.3063,0.4022,0.3232,1.5724,0.4802,-0.8372,-86.7000,18.9000,-29.4000,9.3422,-3.9959,-3.4357,2.4949,1.3006,-3.2095,-2.8500,-27.7500,-126.0000,10.0000,4.0500,-6.3600,1.4246,-2.3595,-3.2932,-6.3750,8.2500,9.5625,38.4375,57.9375,169.0000,0
1776971926.779,9.3063,0.4022,0.3232,1.5724,0.4802,-0.8372,-86.7000,18.9000,-29.4000,9.3422,-3.9959,-3.4357,2.4949,1.3006,-3.2095,-2.8500,-27.7500,-126.0000,10.0000,4.0500,-6.3600,1.4246,-2.3595,-3.2932,-6.3750,8.2500,9.5625,38.4375,57.9375,169.0000,0
1776971926.784,9.3972,0.2634,0.1245,1.5042,0.4477,-0.8418,-86.7000,18.9000,-29.4000,9.7755,-3.9816,-3.3543,2.5476,1.2670,-3.2732,-3.7500,-27.1500,-126.6000,10.3800,4.0800,-6.5200,1.5501,-2.3387,-3.3249,-6.3750,8.2500,9.5625,38.5000,56.9375,171.3125,0
1776971926.790,9.2871,0.3879,-0.0527,1.4304,0.4202,-0.8362,-86.7000,18.9000,-29.4000,10.0868,-4.1204,-3.3160,2.4389,1.2273,-3.3321,-3.7500,-27.1500,-126.6000,10.8500,3.9700,-6.7500,1.7530,-2.3235,-3.2910,-6.3750,8.2500,9.5625,38.3125,55.9375,173.3750,0
1776971926.795,9.2871,0.3879,-0.0527,1.4304,0.4202,-0.8362,-89.1000,19.0500,-29.5500,10.0868,-4.1204,-3.3160,2.4389,1.2273,-3.3321,-5.5500,-27.1500,-124.8000,10.8500,3.9700,-6.7500,1.7530,-2.3235,-3.2910,-6.3750,8.2500,9.5625,37.9375,54.8125,175.0625,0
1776971926.804,9.2081,0.6081,-0.1604,1.3795,0.4061,-0.8191,-89.1000,19.0500,-29.5500,10.1873,-4.2449,-3.2825,2.3401,1.1927,-3.3726,-4.0500,-27.1500,-124.5000,11.9100,4.0300,-7.6600,1.9351,-2.3246,-3.2343,-6.3750,8.2500,9.5625,37.9375,54.8125,175.0625,0
1776971926.814,9.1051,0.9553,-0.2274,1.3209,0.4359,-0.8060,-87.3000,18.3000,-28.8000,10.2975,-4.2737,-3.1747,2.2364,1.2287,-3.4078,-4.0500,-27.1500,-124.5000,12.0900,4.1600,-7.8400,2.0584,-2.3649,-3.1787,-6.3750,8.2500,9.5625,37.3125,53.6250,176.5000,0
1776971926.819,9.2201,1.0343,-0.3280,1.3206,0.4799,-0.7695,-87.3000,18.3000,-28.8000,10.3789,-4.0534,-3.1627,2.1730,1.2686,-3.4539,-4.0500,-27.1500,-124.5000,12.0900,4.1600,-7.8400,2.0584,-2.3649,-3.1787,-6.3750,8.2500,9.5625,37.3125,53.6250,176.5000,0
1776971926.824,9.2201,1.0343,-0.3280,1.3206,0.4799,-0.7695,-87.6000,19.5000,-29.2500,10.3789,-4.0534,-3.1627,2.1730,1.2686,-3.4539,-5.2500,-28.2000,-121.2000,12.1000,4.3300,-7.8200,2.1391,-2.4304,-3.1176,-12.5000,5.1875,5.2500,36.6250,52.3750,177.6875,0
1776971926.829,9.4116,1.4269,-0.5459,1.3776,0.4826,-0.7197,-87.6000,19.5000,-29.2500,10.3166,-3.9313,-3.1891,2.1184,1.2929,-3.4989,-5.2500,-28.2000,-121.2000,12.1000,4.3300,-7.8200,2.1391,-2.4304,-3.1176,-12.5000,5.1875,5.2500,36.6250,52.3750,177.6875,0
1776971926.834,9.4116,1.4269,-0.5459,1.3776,0.4826,-0.7197,-86.8500,19.5000,-28.5000,10.3166,-3.9313,-3.1891,2.1184,1.2929,-3.4989,-5.7000,-23.5500,-123.9000,11.7400,4.8600,-7.3600,2.2035,-2.5056,-3.0478,-12.5000,5.1875,5.2500,35.6875,51.0625,178.6875,0
1776971926.839,9.5313,1.7023,-0.9002,1.4362,0.4700,-0.6885,-86.8500,19.5000,-28.5000,10.2376,-3.5051,-3.1939,2.0496,1.3302,-3.5298,-5.7000,-23.5500,-123.9000,11.7400,4.8600,-7.3600,2.2689,-2.5613,-2.9725,-12.5000,5.1875,5.2500,34.6250,49.6250,179.4375,0
1776971926.845,9.5313,1.7023,-0.9002,1.4362,0.4700,-0.6885,-87.7500,19.3500,-29.4000,10.2376,-3.5051,-3.1939,2.0496,1.3302,-3.5298,-6.1500,-24.0000,-123.1500,11.7400,5.2600,-7.3300,2.2689,-2.5613,-2.9725,-12.5000,5.1875,5.2500,33.3750,48.2500,-179.9375,0
1776971926.854,9.5768,1.9297,-1.1085,1.4762,0.4551,-0.6630,-88.9500,18.9000,-31.2000,10.0987,-3.1388,-3.4165,1.9942,1.3885,-3.5605,-6.3000,-23.4000,-121.9500,11.8500,5.5800,-7.3300,2.3376,-2.5733,-2.8962,-12.5000,5.1875,5.2500,31.9375,46.8125,-179.5625,0
1776971926.864,9.5361,2.0183,-1.2977,1.5068,0.4557,-0.6278,-87.3000,20.2500,-30.3000,10.0102,-2.8874,-3.5123,1.9588,1.4773,-3.5658,-9.6000,-23.4000,-120.1500,11.8200,5.8600,-7.2600,2.3824,-2.5798,-2.8329,-12.5000,5.1875,5.2500,31.9375,46.8125,-179.5625,0
1776971926.869,9.5193,2.0758,-1.4485,1.5319,0.4527,-0.5750,-87.3000,20.2500,-30.3000,10.0054,-2.5786,-3.5554,1.9625,1.5687,-3.5426,-9.6000,-23.4000,-120.1500,11.8200,5.8600,-7.2600,2.3824,-2.5798,-2.8329,-12.5000,5.1875,5.2500,30.4375,45.3125,-179.3125,0
1776971926.874,9.5193,2.0758,-1.4485,1.5319,0.4527,-0.5750,-87.3000,20.2500,-30.3000,10.0054,-2.5786,-3.5554,1.9625,1.5687,-3.5426,-9.6000,-23.4000,-120.1500,11.8400,6.2300,-7.1500,2.3835,-2.5918,-2.7783,-19.8750,1.5000,3.6875,30.4375,45.3125,-179.3125,0
1776971926.879,9.5672,2.0446,-1.5993,1.5671,0.4250,-0.5191,-87.3000,20.2500,-30.3000,9.9431,-2.2458,-3.4069,1.9724,1.6984,-3.4664,-9.6000,-23.4000,-120.1500,11.8400,6.2300,-7.1500,2.3835,-2.5918,-2.7783,-19.8750,1.5000,3.6875,27.0625,43.8750,-179.1250,0
1776971926.884,9.5672,2.0446,-1.5993,1.5671,0.4250,-0.5191,-88.3500,20.7000,-29.5500,9.9431,-2.2458,-3.4069,1.9724,1.6984,-3.4664,-10.0500,-20.2500,-118.9500,11.6900,6.3200,-6.9600,2.3420,-2.6016,-2.7402,-19.8750,1.5000,3.6875,27.0625,43.8750,-179.1250,0
1776971926.892,9.5984,2.1596,-1.9106,1.5937,0.3730,-0.4666,-88.3500,20.7000,-29.5500,9.9383,-2.1165,-3.2968,1.9284,1.8258,-3.3308,-12.1500,-20.4000,-119.8500,11.5500,6.4400,-6.6800,2.2449,-2.6049,-2.7293,-19.8750,1.5000,3.6875,25.0625,42.3750,-178.9375,0
1776971926.897,9.7157,2.1859,-2.1596,1.5993,0.3152,-0.4335,-88.3500,20.7000,-29.5500,9.9455,-2.0614,-2.9257,1.8847,1.9212,-3.1661,-12.1500,-20.4000,-119.8500,11.5500,6.4400,-6.6800,2.2449,-2.6049,-2.7293,-19.8750,1.5000,3.6875,23.1250,40.9375,-178.8125,0
1776971926.905,9.8881,2.5977,-2.3343,1.5993,0.3152,-0.4335,-86.5500,20.7000,-30.3000,10.1921,-2.2410,-2.5163,1.8271,2.0001,-2.9900,-13.2000,-19.2000,-119.4000,11.0600,6.3100,-6.1800,2.1118,-2.5787,-2.7129,-19.8750,1.5000,3.6875,21.2500,39.5000,-178.6875,0
1776971926.915,9.6917,2.6647,-2.4565,1.5876,0.0621,-0.4445,-89.4000,19.6500,-30.1500,10.0245,-2.4995,-1.9513,1.7019,2.0320,-2.7784,-14.1000,-19.0500,-117.9000,10.6200,6.1500,-5.9200,1.9591,-2.5198,-2.6889,-19.8750,1.5000,3.6875,21.2500,39.5000,-178.6875,0
1776971926.920,9.6917,2.6647,-2.4565,1.5876,0.0621,-0.4445,-89.4000,19.6500,-30.1500,10.0245,-2.4995,-1.9513,1.7019,2.0320,-2.7784,-14.1000,-19.0500,-117.9000,10.6200,6.1500,-5.9200,1.9591,-2.5198,-2.6889,-19.8750,1.5000,3.6875,21.2500,39.5000,-178.6875,0
1776971926.925,9.2105,2.5666,-2.3607,1.5505,0.0075,-0.4730,-87.7500,20.4000,-31.9500,10.2472,-2.7797,-1.6161,1.5732,2.0296,-2.5783,-14.7000,-19.2000,-117.6000,10.3300,5.9500,-5.8300,1.7922,-2.4326,-2.6518,-27.5000,-2.6875,10.8750,19.4375,38.1250,-178.5000,0
1776971926.929,9.2105,2.5666,-2.3607,1.5505,0.0075,-0.4730,-87.7500,20.4000,-31.9500,10.2472,-2.7797,-1.6161,1.5732,2.0296,-2.5783,-14.7000,-19.2000,-117.6000,10.3300,5.9500,-5.8300,1.7922,-2.4326,-2.6518,-27.5000,-2.6875,10.8750,19.4375,38.1250,-178.5000,0
1776971926.935,8.9208,2.4373,-2.3631,1.4666,0.0032,-0.4922,-89.4000,19.3500,-31.9500,10.3669,-2.8299,-1.3264,1.4149,1.9859,-2.3894,-14.7000,-19.2000,-117.6000,10.4300,5.2700,-6.4000,1.6101,-2.2951,-2.5973,-27.5000,-2.6875,10.8750,17.6875,36.8125,-178.3125,0
1776971926.940,8.9208,2.4373,-2.3631,1.4666,0.0032,-0.4922,-89.4000,19.3500,-31.9500,10.3669,-2.8299,-1.3264,1.4149,1.9859,-2.3894,-14.7000,-19.2000,-117.6000,10.4300,5.2700,-6.4000,1.4061,-2.1315,-2.5427,-27.5000,-2.6875,10.8750,16.0625,35.5625,-178.0625,0
1776971926.945,8.7508,2.3320,-2.2673,1.3470,-0.0045,-0.4898,-88.2000,20.8500,-30.9000,10.5129,-2.7533,-1.2115,1.2367,1.9934,-2.2327,-13.8000,-16.8000,-116.1000,11.1500,4.9500,-7.2000,1.4061,-2.1315,-2.5427,-27.5000,-2.6875,10.8750,14.4375,34.4375,-177.7500,0
1776971926.955,8.6215,2.2793,-2.2529,1.2119,-0.0061,-0.4967,-88.6500,19.3500,-31.2000,10.6853,-2.6743,-1.0702,0.9963,2.0454,-2.1128,-15.0000,-17.4000,-115.9500,11.7000,4.8300,-7.6900,1.1661,-1.9799,-2.5395,-27.5000,-2.6875,10.8750,12.8750,33.3125,-177.3750,0
1776971926.965,8.5665,2.4062,-2.2146,1.0459,0.0053,-0.4991,-88.6500,19.3500,-31.2000,10.5129,-2.6073,-0.9290,0.8212,2.1416,-2.0011,-14.4000,-14.5500,-115.6500,11.6500,4.6100,-7.7500,0.9076,-1.9188,-2.5842,-27.5000,-2.6875,10.8750,12.8750,33.3125,-177.3750,0
1776971926.970,8.5665,2.4062,-2.2146,1.0459,0.0053,-0.4991,-88.6500,19.3500,-31.2000,10.5129,-2.6073,-0.9290,0.8212,2.1416,-2.0011,-14.8500,-15.0000,-115.6500,11.6500,4.6100,-7.7500,0.9076,-1.9188,-2.5842,-29.6875,-5.6875,19.5000,11.3750,32.1875,-176.8125,0
1776971926.975,8.4898,2.4684,-2.1931,0.8711,0.0085,-0.4996,-87.6000,20.7000,-31.8000,10.5441,-2.1691,-0.6943,0.6715,2.2106,-1.8884,-14.8500,-15.0000,-114.0000,11.6300,3.7500,-7.7400,0.6807,-1.9253,-2.5962,-29.6875,-5.6875,19.5000,11.3750,32.1875,-176.8125,0
1776971926.980,8.4898,2.4684,-2.1931,0.8711,0.0085,-0.4996,-87.6000,20.7000,-31.8000,10.5441,-2.1691,-0.6943,0.6715,2.2106,-1.8884,-15.6000,-14.5500,-111.7500,11.6300,3.7500,-7.7400,0.6807,-1.9253,-2.5962,-29.6875,-5.6875,19.5000,9.8750,31.0625,-176.2500,0
1776971926.985,8.3965,2.6528,-2.0399,0.6781,0.0272,-0.5068,-87.6000,20.7000,-31.8000,10.4746,-1.8627,-0.6632,0.4557,2.2948,-1.7789,-15.6000,-14.5500,-111.7500,11.7700,3.4000,-7.6400,0.4974,-1.9231,-2.5776,-29.6875,-5.6875,19.5000,9.8750,31.0625,-176.2500,0
1776971926.994,8.2887,2.9090,-1.9369,0.4844,0.0480,-0.5151,-88.0500,20.2500,-31.8000,10.4363,-1.6735,-0.5890,0.2918,2.3523,-1.6657,-15.6000,-14.5500,-111.7500,11.4300,3.0500,-7.3100,0.3185,-1.9406,-2.5318,-29.6875,-5.6875,19.5000,8.5000,29.8750,-175.6875,0
1776971927.004,8.3007,3.2417,-1.5754,0.2915,0.0759,-0.5204,-88.0500,20.2500,-31.8000,10.7164,-1.6017,-0.4980,0.2134,2.3073,-1.5346,-13.3500,-12.3000,-109.3500,10.5300,2.1100,-6.5000,0.1713,-1.9962,-2.4347,-29.6875,-5.6875,19.5000,7.1250,28.6250,-175.0625,0
1776971927.012,8.2121,3.4979,-1.1085,0.0877,0.1210,-0.5217,-87.4500,22.0500,-32.7000,10.7332,-1.7573,0.0814,0.2265,2.1874,-1.3787,-14.8500,-10.5000,-108.3000,9.7100,1.3600,-5.9200,0.0556,-2.0366,-2.2777,-29.6875,-5.6875,19.5000,5.9375,27.4375,-174.5000,0
1776971927.016,8.2121,3.4979,-1.1085,0.0877,0.1210,-0.5217,-86.8500,22.2000,-32.1000,10.7332,-1.7573,0.0814,0.2265,2.1874,-1.3787,-14.8500,-10.5000,-108.3000,9.7100,1.3600,-5.9200,0.0556,-2.0366,-2.2777,-29.6875,-5.6875,19.5000,5.9375,27.4375,-174.5000,0
1776971927.021,8.0804,3.7517,-0.6632,-0.0738,0.2001,-0.5292,-86.8500,22.2000,-32.1000,10.7763,-1.9896,0.5914,0.1804,2.0720,-1.2617,-15.0000,-9.1500,-106.2000,9.7100,1.3600,-5.9200,-0.1942,-1.9515,-1.9799,-28.0625,-5.0625,28.3750,4.8750,26.2500,-173.8750,0
1776971927.026,8.0804,3.7517,-0.6632,-0.0738,0.2001,-0.5292,-88.8000,21.4500,-32.1000,10.7763,-1.9896,0.5914,0.1804,2.0720,-1.2617,-15.0000,-9.1500,-106.2000,8.8600,0.7200,-5.3800,-0.1942,-1.9515,-1.9799,-28.0625,-5.0625,28.3750,4.8750,26.2500,-173.8750,0
1776971927.031,7.7740,3.9433,-0.2705,-0.2198,0.3195,-0.5207,-88.8000,21.4500,-32.1000,10.6207,-1.9178,0.3400,-0.0096,1.9089,-1.1602,-15.0000,-7.6500,-106.6500,8.8600,0.7200,-5.3800,-0.1942,-1.9515,-1.9799,-28.0625,-5.0625,28.3750,3.8750,25.0000,-173.3125,0
1776971927.036,7.7740,3.9433,-0.2705,-0.2198,0.3195,-0.5207,-87.3000,21.4500,-31.8000,10.6207,-1.9178,0.3400,-0.0096,1.9089,-1.1602,-15.0000,-7.6500,-106.6500,7.9600,0.3500,-4.4000,-0.1942,-1.9515,-1.9799,-28.0625,-5.0625,28.3750,3.8750,25.0000,-173.3125,0
1776971927.044,7.5896,4.0821,-0.0263,-0.2774,0.4570,-0.5076,-87.3000,21.4500,-31.8000,10.2065,-1.6041,-0.0551,-0.1426,1.7102,-1.0643,-15.0000,-7.6500,-106.6500,7.7800,0.0000,-4.1800,-0.3054,-1.7770,-1.8795,-28.0625,-5.0625,28.3750,2.9375,23.9375,-172.6875,0
1776971927.055,7.6423,4.2329,0.0575,-0.2619,0.5502,-0.4903,-87.0000,22.5000,-32.4000,9.6486,-1.1588,-0.5339,-0.2862,1.6942,-0.9654,-15.0000,-7.6500,-106.6500,7.7200,-0.1700,-3.9100,-0.3600,-1.5501,-1.7235,-28.0625,-5.0625,28.3750,2.0625,22.9375,-172.1250,0
1776971927.064,7.7548,4.4819,0.1963,-0.1863,0.5673,-0.4762,-87.0000,22.5000,-32.4000,8.9902,-0.6608,-0.8882,-0.4658,1.7405,-0.8660,-15.6000,-2.5500,-104.7000,7.5100,-0.4300,-3.6300,-0.3698,-1.1236,-1.1225,-28.0625,-5.0625,28.3750,1.5625,22.2500,-171.6875,0
1776971927.069,7.6950,4.6232,0.2107,-0.0898,0.5580,-0.4583,-88.6500,22.5000,-31.6500,8.9902,-0.6608,-0.8882,-0.4658,1.7405,-0.8660,-16.5000,-2.4000,-104.1000,7.5100,-0.4300,-3.6300,-0.3698,-1.1236,-1.1225,-28.0625,-5.0625,28.3750,1.5625,22.2500,-171.6875,0
1776971927.074,7.6950,4.6232,0.2107,-0.0898,0.5580,-0.4583,-88.6500,22.5000,-31.6500,9.7875,-1.0798,-0.7781,-0.4543,1.5679,-0.6603,-16.5000,-2.4000,-104.1000,7.7800,-1.4200,-3.9000,-0.4549,-0.9163,-0.7745,-25.3750,-5.1875,35.3750,1.1875,21.6875,-171.3125,0
1776971927.079,7.6207,4.8842,0.1437,0.0344,0.5641,-0.4399,-88.6500,22.5000,-31.6500,9.7875,-1.0798,-0.7781,-0.4543,1.5679,-0.6603,-15.9000,0.0000,-103.6500,7.7800,-1.4200,-3.9000,-0.4549,-0.9163,-0.7745,-25.3750,-5.1875,35.3750,1.1875,21.6875,-171.3125,0
1776971927.083,7.6207,4.8842,0.1437,0.0344,0.5641,-0.4399,-88.6500,22.5000,-31.6500,9.4379,-1.2019,-0.1772,-0.5073,1.4202,-0.4580,-15.9000,0.0000,-103.6500,8.1300,-1.5700,-4.0900,-0.6534,-0.7581,-0.4778,-25.3750,-5.1875,35.3750,1.0000,21.1875,-170.8750,0
1776971927.088,7.6064,4.9440,-0.1030,0.1716,0.5852,-0.4008,-88.2000,22.5000,-29.7000,9.4379,-1.2019,-0.1772,-0.8791,1.5183,-0.3491,-14.8500,-0.7500,-103.6500,8.1300,-1.5700,-4.0900,-0.6534,-0.7581,-0.4778,-25.3750,-5.1875,35.3750,1.0000,20.8125,-170.3750,0
1776971927.095,7.6064,4.9440,-0.1030,0.1716,0.5852,-0.4008,-88.6500,23.2500,-30.4500,9.2225,-1.3791,0.0096,-0.8791,1.5183,-0.3491,-14.8500,-0.7500,-103.6500,8.2100,-1.5000,-4.0800,-0.9087,-0.6698,-0.2236,-25.3750,-5.1875,35.3750,1.1875,20.5000,-169.7500,0
1776971927.105,7.6016,5.0159,-0.1676,0.2942,0.6318,-0.3579,-88.6500,22.8000,-29.7000,9.2273,-1.4078,-0.0096,-0.9998,1.3318,-0.1628,-14.8500,-0.7500,-103.6500,8.0800,-1.2600,-3.6400,-1.1596,-0.6130,-0.0011,-25.3750,-5.1875,35.3750,1.4375,20.1875,-169.0000,0
1776971927.115,7.6327,4.9512,-0.3711,0.3810,0.6819,-0.3032,-88.6500,22.8000,-29.7000,9.0549,-1.3192,-0.0838,-1.1202,1.2574,-0.0091,-14.8500,-0.7500,-103.6500,7.9200,-1.0200,-3.3600,-1.3821,-0.5520,0.1724,-25.3750,-5.1875,35.3750,1.4375,20.1875,-169.0000,0
1776971927.120,7.6016,4.8650,-0.3974,0.4719,0.7237,-0.2510,-87.7500,23.5500,-29.7000,9.2512,-1.1468,-0.3256,-1.1722,1.1445,0.1399,-15.7500,1.6500,-103.3500,7.9200,-1.0200,-3.3600,-1.3821,-0.5520,0.1724,-25.3750,-5.1875,35.3750,1.7500,20.0000,-168.2500,0
1776971927.125,7.6016,4.8650,-0.3974,0.4719,0.7237,-0.2510,-87.7500,23.5500,-29.7000,9.2512,-1.1468,-0.3256,-1.1722,1.1445,0.1399,-15.7500,1.6500,-103.3500,7.9100,-0.7200,-3.1100,-1.5708,-0.4429,0.2956,-23.2500,-5.3750,42.5625,1.7500,20.0000,-168.2500,0
1776971927.130,7.7285,4.8435,-0.5531,0.5622,0.7608,-0.2068,-88.9500,22.8000,-28.2000,9.4044,-0.7829,-0.2059,-1.2945,1.0275,0.2990,-16.8000,3.1500,-103.3500,7.9100,-0.7200,-3.1100,-1.5708,-0.4429,0.2956,-23.2500,-5.3750,42.5625,1.7500,20.0000,-168.2500,0
1776971927.135,7.7692,4.7716,-0.8356,0.5622,0.7608,-0.2068,-88.9500,22.8000,-28.2000,9.4044,-0.7829,-0.2059,-1.2945,1.0275,0.2990,-16.8000,3.1500,-103.3500,7.6200,-0.0700,-2.5300,-1.7137,-0.3240,0.3807,-23.2500,-5.3750,42.5625,2.1875,19.8750,-167.3750,0
1776971927.139,7.7692,4.7716,-0.8356,0.6390,0.7783,-0.1591,-88.9500,23.5500,-30.1500,9.3541,-0.3711,-0.4908,-1.4123,0.8924,0.4397,-16.2000,3.3000,-101.1000,7.6200,-0.0700,-2.5300,-1.7737,-0.2062,0.4614,-23.2500,-5.3750,42.5625,2.6250,19.8125,-166.5000,0
1776971927.146,7.7500,4.7238,-1.0151,0.6835,0.7858,-0.1172,-88.9500,23.5500,-30.1500,9.3541,-0.3711,-0.4908,-1.4123,0.8924,0.4397,-16.2000,3.3000,-101.1000,7.3500,0.2300,-2.3200,-1.7737,-0.2062,0.4614,-23.2500,-5.3750,42.5625,3.1250,19.8750,-165.6250,0
1776971927.155,7.7883,4.5203,-1.2210,0.7000,0.7975,-0.0727,-88.9500,23.5500,-30.1500,9.4164,0.2322,-0.6033,-1.4077,0.7861,0.5577,-16.0500,4.6500,-101.2500,7.2300,0.4500,-2.1500,-1.7573,-0.0415,0.5498,-23.2500,-5.3750,42.5625,3.1250,19.8750,-165.6250,0
1776971927.165,7.7165,4.3981,-1.3767,0.6928,0.8095,-0.0218,-88.9500,24.0000,-28.6500,9.4763,0.9984,-0.6369,-1.2857,0.6590,0.6627,-16.0500,4.6500,-101.2500,7.4600,0.7100,-2.2100,-1.6952,0.1342,0.6349,-23.2500,-5.3750,42.5625,3.6250,20.0000,-164.8125,0
1776971927.170,7.7165,4.3981,-1.3767,0.6928,0.8095,-0.0218,-88.9500,24.0000,-28.6500,9.5265,1.5850,-0.8930,-1.1053,0.4924,0.7581,-16.0500,4.6500,-101.2500,7.4600,0.7100,-2.2100,-1.6952,0.1342,0.6349,-23.2500,-5.3750,42.5625,3.6250,20.0000,-164.8125,0
1776971927.175,7.5824,4.1276,-1.4174,0.6792,0.8122,0.0264,-88.9500,24.0000,-28.6500,9.5265,1.5850,-0.8930,-1.1053,0.4924,0.7581,-16.0500,4.6500,-101.2500,8.0600,1.3400,-2.5200,-1.5981,0.2738,0.7047,-21.5000,-7.7500,45.0000,4.1250,20.2500,-164.0000,0
1776971927.180,7.5824,4.1276,-1.4174,0.6792,0.8122,0.0264,-89.7000,23.5500,-26.7000,9.4739,1.7502,-1.1827,-0.9196,0.3413,0.8439,-15.0000,8.4000,-104.8500,8.0600,1.3400,-2.5200,-1.5981,0.2738,0.7047,-21.5000,-7.7500,45.0000,4.1250,20.2500,-164.0000,0
1776971927.185,7.5465,4.0223,-1.4293,0.6494,0.8183,0.0810,-89.7000,23.5500,-26.7000,9.4739,1.7502,-1.1827,-0.9196,0.3413,0.8439,-15.0000,8.4000,-104.8500,7.9600,1.7100,-2.5500,-1.4301,0.3611,0.7723,-21.5000,-7.7500,45.0000,4.6875,20.5625,-163.3750,0
1776971927.193,7.5800,3.8954,-1.2665,0.6494,0.8183,0.0810,-89.5500,23.8500,-27.0000,9.6486,2.0446,-1.1133,-0.6336,0.0973,0.9521,-15.6000,10.8000,-106.5000,7.8500,1.8400,-2.5900,-1.2021,0.4385,0.8454,-21.5000,-7.7500,45.0000,5.2500,20.9375,-162.8750,0
1776971927.198,7.5800,3.8954,-1.2665,0.6102,0.8252,0.1567,-89.7000,25.2000,-27.4500,10.8697,1.6233,-1.5514,-0.3413,0.1186,1.0171,-16.6500,13.8000,-108.9000,7.8500,1.8400,-2.5900,-1.2021,0.4385,0.8454,-21.5000,-7.7500,45.0000,5.8125,21.3750,-162.4375,0
1776971927.206,7.6567,3.7757,-1.2115,0.5676,0.8372,0.2481,-89.7000,25.2000,-27.4500,8.9423,1.8100,-0.8859,-0.1092,-0.1575,1.1000,-13.9500,13.9500,-112.3500,7.9000,1.9100,-2.8300,-0.9632,0.5072,0.8967,-21.5000,-7.7500,45.0000,6.3750,21.8750,-162.1875,0
1776971927.216,7.7500,3.6775,-1.1109,0.5020,0.8476,0.3424,-88.8000,22.6500,-27.3000,9.8952,1.8938,-1.5634,-0.1799,-0.0658,1.1647,-13.9500,13.9500,-112.3500,7.8100,1.9400,-2.9900,-0.7647,0.6000,0.9021,-21.5000,-7.7500,45.0000,6.3750,21.8750,-162.1875,0
1776971927.220,7.7500,3.6775,-1.1109,0.5020,0.8476,0.3424,-89.7000,24.0000,-26.4000,9.8952,1.8938,-1.5634,-0.1799,-0.0658,1.1647,-13.9500,13.9500,-112.3500,7.8100,1.9400,-2.9900,-0.7647,0.6000,0.9021,-21.7500,-9.3750,46.0625,6.8125,22.3750,-162.0000,0
1776971927.225,7.8865,3.6129,-1.1325,0.4397,0.8508,0.4525,-89.7000,24.0000,-26.4000,9.3182,1.4653,-1.7621,-0.0314,-0.0229,1.1993,-13.9500,13.9500,-112.3500,7.9400,2.0600,-3.1200,-0.6021,0.7472,0.8498,-21.7500,-9.3750,46.0625,6.8125,22.3750,-162.0000,0
1776971927.230,7.8865,3.6129,-1.1325,0.4397,0.8508,0.4525,-91.9500,23.5500,-26.7000,9.3182,1.4653,-1.7621,-0.0314,-0.0229,1.1993,-13.9500,13.9500,-112.3500,7.9400,2.0600,-3.1200,-0.6021,0.7472,0.8498,-21.7500,-9.3750,46.0625,7.1875,22.9375,-161.8125,0
1776971927.236,8.1427,3.8331,-1.1756,0.3547,0.8647,0.5836,-91.9500,23.5500,-26.7000,10.3070,0.7901,-2.1261,0.1631,-0.1601,1.1916,-13.3500,25.8000,-124.6500,8.2800,2.3200,-3.5600,-0.4756,0.8618,0.7385,-21.7500,-9.3750,46.0625,7.1875,22.9375,-161.8125,0
1776971927.242,8.1810,4.1372,-1.1827,0.2753,0.8572,0.7037,-91.9500,23.5500,-26.7000,10.3070,0.7901,-2.1261,0.1631,-0.1601,1.1916,-13.3500,25.8000,-124.6500,8.1900,2.4000,-3.4800,-0.4036,1.0036,0.5520,-21.7500,-9.3750,46.0625,7.5000,23.5625,-161.6250,0
1776971927.247,8.1810,4.1372,-1.1827,0.2753,0.8572,0.7037,-90.4500,22.0500,-24.6000,10.0580,0.3879,-2.3870,0.2284,-0.2558,1.2180,-11.8500,31.5000,-129.9000,8.1900,2.4000,-3.4800,-0.4036,1.0036,0.5520,-21.7500,-9.3750,46.0625,7.6250,24.2500,-161.4375,0
1776971927.256,8.0685,4.4532,-1.1612,0.1796,0.8735,0.8234,-90.4500,22.0500,-24.6000,9.7731,0.1844,-2.3870,0.3206,-0.4247,1.2670,-9.3000,34.0500,-133.9500,7.9700,2.4400,-3.3200,-0.3054,1.1497,0.3207,-21.7500,-9.3750,46.0625,7.5625,24.9375,-161.2500,0
1776971927.266,8.0158,4.3551,-0.7207,0.0735,0.9060,0.9510,-90.4500,22.0500,-24.6000,9.6175,0.3687,-2.1739,0.4197,-0.5542,1.3390,-10.6500,36.4500,-138.7500,7.9900,2.4000,-3.2600,-0.1974,1.3341,0.0742,-21.7500,-9.3750,46.0625,7.5625,24.9375,-161.2500,0
1776971927.270,7.9918,4.1324,-0.5028,0.0128,0.8990,1.0912,-91.8000,21.4500,-25.0500,9.6175,0.3687,-2.1739,0.4197,-0.5542,1.3390,-10.6500,36.4500,-138.7500,7.9900,2.4000,-3.2600,-0.1974,1.3341,0.0742,-21.7500,-9.3750,46.0625,7.3125,25.7500,-161.0625,0
1776971927.276,7.9918,4.1324,-0.5028,0.0128,0.8990,1.0912,-91.8000,21.4500,-25.0500,9.0956,0.5028,-1.8818,0.4626,-0.7205,1.4368,-10.6500,36.4500,-138.7500,9.4200,2.1400,-3.9900,-0.1014,1.5588,-0.1669,-25.1875,-10.0000,46.5000,7.3125,25.7500,-161.0625,0
1776971927.280,9.0501,4.1755,-0.5124,0.1537,0.8812,1.2414,-92.5500,20.7000,-23.7000,9.0956,0.5028,-1.8818,0.4626,-0.7205,1.4368,-10.6500,36.4500,-138.7500,9.4200,2.1400,-3.9900,-0.1014,1.5588,-0.1669,-25.1875,-10.0000,46.5000,6.9375,26.3125,-160.9375,0
1776971927.285,9.0501,4.1755,-0.5124,0.1537,0.8812,1.2414,-92.5500,20.7000,-23.7000,10.2089,1.9058,1.0630,0.7413,-0.6718,1.3480,-7.3500,40.2000,-146.1000,-5.7200,10.2700,-8.5900,0.2760,1.2392,-0.4309,-25.1875,-10.0000,46.5000,6.9375,26.3125,-160.9375,0
1776971927.293,10.4076,4.4245,-0.3065,0.2169,0.8068,1.4703,-92.4000,20.8500,-22.6500,8.3797,5.2577,3.5314,1.3981,-0.2174,0.9518,-7.3500,40.2000,-146.1000,3.1800,25.3700,-25.0400,2.6474,0.9087,0.1996,-25.1875,-10.0000,46.5000,6.6250,26.8125,-162.4375,0
1776971927.298,10.6063,4.1731,0.6632,0.2169,0.8068,1.4703,-93.0000,18.0000,-23.7000,8.3797,5.2577,3.5314,1.3981,-0.2174,0.9518,-7.0500,42.1500,-150.7500,3.1800,25.3700,-25.0400,2.6474,0.9087,0.1996,-25.1875,-10.0000,46.5000,6.1250,27.6875,-164.3125,0
1776971927.306,10.6063,4.1731,0.6632,0.1092,0.8799,1.6846,-93.0000,18.0000,-23.7000,7.3717,11.8968,2.3894,2.4461,0.5444,0.0514,-7.5000,48.0000,-154.2000,4.4800,6.7600,-21.7000,3.5136,1.5163,0.2029,-25.1875,-10.0000,46.5000,5.4375,28.2500,-166.0625,0
1776971927.316,10.2400,3.2082,1.2546,-0.0410,1.0128,1.8461,-93.7500,18.7500,-22.9500,12.4235,14.7435,4.2976,2.9998,1.3363,-0.3885,-8.8500,57.9000,-156.9000,-1.9800,2.3500,-4.1900,3.5201,1.1246,-0.2356,-25.1875,-10.0000,46.5000,5.4375,28.2500,-166.0625,0
1776971927.320,11.8321,3.1484,-1.0127,0.1095,1.0115,2.0523,-94.3500,18.1500,-21.1500,12.4235,14.7435,4.2976,2.2756,1.7810,-0.3070,-8.8500,57.9000,-156.9000,-1.9800,2.3500,-4.1900,3.5201,1.1246,-0.2356,-25.1875,-10.0000,46.5000,4.9375,29.1875,-167.9375,0
1776971927.326,11.8321,3.1484,-1.0127,0.1095,1.0115,2.0523,-94.3500,18.1500,-21.1500,18.3420,8.7963,2.2458,2.2756,1.7810,-0.3070,-8.7000,71.2500,-164.1000,-7.3000,-15.2000,-4.3200,3.4656,1.6559,0.1494,-30.5625,-6.8750,46.3750,4.9375,29.1875,-167.9375,0
1776971927.330,14.4346,4.3598,-2.8419,0.6035,0.7602,2.2127,-94.3500,18.1500,-21.1500,15.8592,1.2498,-6.5553,1.0533,1.1884,-0.2952,-8.7000,71.2500,-164.1000,-7.3000,-15.2000,-4.3200,3.4656,1.6559,0.1494,-30.5625,-6.8750,46.3750,4.1250,30.6250,-168.8125,0
1776971927.336,14.4346,4.3598,-2.8419,0.6035,0.7602,2.2127,-94.3500,18.1500,-21.1500,15.8592,1.2498,-6.5553,1.0533,1.1884,-0.2952,-8.7000,71.2500,-164.1000,4.8100,-19.3000,-14.6000,2.1882,2.7871,-0.5585,-30.5625,-6.8750,46.3750,4.1250,30.6250,-168.8125,0
1776971927.341,16.5463,5.6958,-5.1020,1.2977,0.4309,2.1370,-95.1000,14.2500,-21.6000,17.4705,-4.5657,-13.1657,0.3568,0.5590,-0.0842,-8.7000,71.2500,-164.1000,4.8100,-19.3000,-14.6000,0.8759,2.7423,-0.5367,-30.5625,-6.8750,46.3750,3.5625,32.0625,-168.9375,0
1776971927.346,18.9812,6.1411,-6.3758,1.2977,0.4309,2.1370,-95.1000,14.2500,-21.6000,17.4705,-4.5657,-13.1657,0.3568,0.5590,-0.0842,-4.9500,80.2500,-180.1500,7.9700,-16.4300,-14.9900,0.8759,2.7423,-0.5367,-30.5625,-6.8750,46.3750,3.5625,33.5625,-169.0000,0
1776971927.356,18.3683,5.6623,-5.1332,2.1013,0.2398,1.9316,-95.1000,14.2500,-21.6000,16.2878,-4.8291,-9.9168,0.2100,-0.0496,0.2694,-3.0000,76.2000,-185.7000,8.3900,-18.0900,-12.2800,0.2520,2.7151,0.3109,-30.5625,-6.8750,46.3750,3.5625,33.5625,-169.0000,0
1776971927.366,14.5998,4.4748,-1.1612,2.4283,-0.0109,1.5977,-95.5500,11.2500,-20.2500,17.0515,2.3080,-4.3048,-1.1018,-0.4631,0.9534,-2.2500,68.7000,-188.2500,16.2200,-7.9500,-17.0500,-0.9065,2.3606,0.3327,-30.5625,-6.8750,46.3750,3.8125,34.8750,-168.4375,0
1776971927.371,14.5998,4.4748,-1.1612,1.8524,0.1903,1.2633,-96.3000,10.5000,-19.9500,15.2415,8.1187,2.1117,-1.8626,-0.5582,1.3917,-2.2500,68.7000,-188.2500,16.2200,-7.9500,-17.0500,-0.9065,2.3606,0.3327,-30.5625,-6.8750,46.3750,3.8750,36.0000,-167.5000,0
1776971927.376,8.4707,2.7126,3.3447,1.8524,0.1903,1.2633,-96.3000,10.5000,-19.9500,15.2415,8.1187,2.1117,-1.8626,-0.5582,1.3917,-2.8500,62.2500,-194.4000,14.3700,19.7000,-2.6800,-1.3439,2.0628,-0.1080,-35.7500,0.8750,45.1875,3.8750,36.0000,-167.5000,0
1776971927.381,8.4707,2.7126,3.3447,0.6987,0.8402,0.9550,-96.3000,9.7500,-19.9500,11.0253,8.0661,5.7293,-0.7309,-0.6475,1.3262,-2.8500,62.2500,-194.4000,14.3700,19.7000,-2.6800,-1.3439,2.0628,-0.1080,-35.7500,0.8750,45.1875,3.6250,36.6875,-167.3750,0
1776971927.386,6.4859,0.0287,5.8610,-0.3000,1.3864,0.8727,-96.3000,9.7500,-19.9500,11.0253,8.0661,5.7293,-0.7309,-0.6475,1.3262,-3.9000,65.5500,-197.7000,5.8100,8.0300,-3.0600,0.1734,1.2861,-0.2258,-35.7500,0.8750,45.1875,3.6250,36.6875,-167.3750,0
1776971927.394,6.4859,0.0287,5.8610,-0.3000,1.3864,0.8727,-95.5500,10.0500,-19.2000,5.9185,3.5769,8.7843,0.9196,0.1988,1.1178,-3.9000,65.5500,-197.7000,8.7700,-0.9100,-11.0300,0.7799,1.0505,-0.1145,-35.7500,0.8750,45.1875,3.3750,37.1875,-167.6875,0
1776971927.399,5.9065,-1.3791,3.6296,-0.3443,1.4256,0.9273,-97.9500,9.0000,-18.7500,4.3670,-0.7111,6.2130,1.6321,0.8114,1.0381,-3.9000,65.5500,-197.7000,8.7700,-0.9100,-11.0300,0.7799,1.0505,-0.1145,-35.7500,0.8750,45.1875,3.3125,37.3125,-167.7500,0
1776971927.406,6.5266,-2.4277,-1.4581,0.3693,0.7882,0.8865,-97.9500,9.0000,-18.7500,4.3670,-0.7111,6.2130,1.6321,0.8114,1.0381,-4.5000,87.9000,-199.6500,4.0400,-0.6500,-8.8600,0.2302,0.1527,-0.0633,-35.7500,0.8750,45.1875,3.2500,37.3125,-167.7500,0
1776971927.416,6.6319,-4.3383,-5.6336,0.0586,0.0821,0.8780,-98.1000,9.1500,-17.8500,5.6336,-2.1572,4.1396,2.5863,0.1561,1.1679,-1.9500,90.1500,-197.8500,4.6000,4.7300,-6.7100,0.0164,0.0480,-0.0862,-35.7500,0.8750,45.1875,3.2500,37.3125,-167.7500,0
1776971927.421,6.6319,-4.3383,-5.6336,0.0586,0.0821,0.8780,-98.1000,9.1500,-17.8500,7.4412,-3.9265,7.4148,2.1338,-0.7322,1.4967,-1.9500,90.1500,-197.8500,4.6000,4.7300,-6.7100,0.0164,0.0480,-0.0862,-35.7500,0.8750,45.1875,3.2500,37.3125,-167.7500,0
1776971927.426,8.0661,-5.8826,-6.1842,-1.0613,-0.2326,0.9579,-98.1000,9.1500,-17.8500,7.4412,-3.9265,7.4148,2.1338,-0.7322,1.4967,0.0000,89.2500,-194.4000,3.9200,4.6000,-5.8200,-0.0938,0.0851,-0.0720,-40.3750,2.6875,41.6875,3.1875,37.3125,-167.6250,0
1776971927.431,8.0661,-5.8826,-6.1842,-1.0613,-0.2326,0.9579,-98.4000,7.5000,-19.3500,8.8633,-5.5929,6.7086,0.6518,-1.3840,1.6867,0.0000,89.2500,-194.4000,3.9200,4.6000,-5.8200,-0.0938,0.0851,-0.0720,-40.3750,2.6875,41.6875,3.1875,37.3125,-167.6250,0
1776971927.436,9.1530,-5.3965,-2.8060,-2.0035,-0.1452,0.9819,-98.4000,7.5000,-19.3500,8.8633,-5.5929,6.7086,0.6518,-1.3840,1.6867,3.4500,83.4000,-190.3500,3.9200,3.3100,-7.0300,-0.0829,0.4461,0.0196,-40.3750,2.6875,41.6875,3.1875,37.5625,-167.5625,0
1776971927.441,9.1530,-5.3965,-2.8060,-2.0035,-0.1452,0.9819,-98.4000,7.5000,-19.3500,9.6965,-6.0741,3.0909,-0.3613,-1.7848,1.6534,3.4500,83.4000,-190.3500,3.9200,3.3100,-7.0300,0.2334,0.7941,0.1767,-40.3750,2.6875,41.6875,3.2500,38.0625,-167.6875,0
1776971927.447,9.7875,-2.6624,2.6911,-2.3467,-0.0815,1.0024,-98.4000,7.5000,-19.3500,9.4691,-3.9073,0.1173,-0.1226,-1.4546,1.3672,7.2000,77.2500,-185.2500,4.3100,2.2700,-7.5700,0.2334,0.7941,0.1767,-40.3750,2.6875,41.6875,3.1875,38.6250,-168.1250,0
1776971927.456,9.3996,0.9577,6.6295,-2.0312,0.0509,0.9038,-99.4500,6.1500,-18.7500,9.4691,-3.9073,0.1173,-0.4261,-0.5369,1.0853,7.2000,77.2500,-185.2500,4.8400,2.0100,-7.4900,0.7385,1.0025,0.3360,-40.3750,2.6875,41.6875,3.1875,38.6250,-168.1250,0
1776971927.466,8.6095,3.6943,8.3797,-1.0392,0.2814,0.7525,-99.1500,6.7500,-18.6000,10.2185,0.5291,-3.0263,-0.3301,-0.5438,0.9478,8.1000,60.1500,-171.1500,5.9400,1.5500,-7.8100,1.0123,1.1334,0.4047,-40.3750,2.6875,41.6875,3.1875,39.2500,-168.8125,0
1776971927.471,8.8992,3.3543,7.7189,-1.0392,0.2814,0.7525,-99.0000,5.8500,-17.7000,10.2185,0.5291,-3.0263,-0.3301,-0.5438,0.9478,8.1000,60.1500,-171.1500,5.9400,1.5500,-7.8100,1.0123,1.1334,0.4047,-41.3750,3.7500,40.5000,3.1250,39.8750,-169.4375,0
1776971927.476,8.8992,3.3543,7.7189,0.2872,0.2609,0.6837,-99.0000,5.8500,-17.7000,9.8809,0.7781,-2.3583,0.0882,-0.4197,0.7125,7.5000,47.2500,-164.8500,7.5400,0.3700,-8.0100,0.9970,1.0199,0.3905,-41.3750,3.7500,40.5000,3.1250,39.8750,-169.4375,0
1776971927.481,8.9591,1.5251,5.2960,0.2872,0.2609,0.6837,-99.6000,6.0000,-17.1000,9.8809,0.7781,-2.3583,0.0882,-0.4197,0.7125,7.2000,39.7500,-162.0000,7.5400,0.3700,-8.0100,0.9970,1.0199,0.3905,-41.3750,3.7500,40.5000,3.1875,40.3125,-169.9375,0
1776971927.486,8.9591,1.5251,5.2960,1.3789,0.2427,0.6808,-99.6000,6.0000,-17.1000,10.4986,0.5219,-1.1636,0.5574,-0.4117,0.5558,7.2000,39.7500,-162.0000,7.4300,0.6900,-8.5900,0.7418,0.6818,0.3622,-41.3750,3.7500,40.5000,3.1875,40.3125,-169.9375,0
1776971927.494,9.4906,0.2921,2.4157,2.0025,0.3363,0.6422,-101.2500,3.4500,-17.7000,10.4986,0.5219,-1.1636,0.5574,-0.4117,0.5558,3.4500,32.4000,-161.5500,7.3900,0.9600,-8.2800,0.6480,0.5531,0.2913,-41.3750,3.7500,40.5000,3.1875,40.6250,-170.3750,0
1776971927.499,9.4906,0.2921,2.4157,2.0025,0.3363,0.6422,-97.2000,2.7000,-18.4500,9.8378,0.3424,0.9888,1.1159,-0.3880,0.4255,3.4500,32.4000,-161.5500,7.3900,0.9600,-8.2800,0.6480,0.5531,0.2913,-41.3750,3.7500,40.5000,3.1875,40.8750,-170.8125,0
1776971927.506,9.5553,-0.5435,0.5148,2.1448,0.4327,0.6006,-97.2000,2.7000,-18.4500,9.5481,-0.7925,2.9951,1.3379,-0.1900,0.3208,0.6000,29.5500,-164.1000,6.7700,1.0700,-8.0000,0.6425,0.4396,0.2367,-41.3750,3.7500,40.5000,3.1250,41.1250,-171.2500,0
1776971927.516,9.5289,-1.0439,0.7087,2.0003,0.5836,0.5636,-97.2000,2.7000,-18.4500,9.5672,-1.9585,2.9784,0.9198,-0.2926,0.4349,0.6000,29.5500,-164.1000,6.4300,1.1100,-7.7000,0.6196,0.4211,0.1931,-41.3750,3.7500,40.5000,3.1250,41.1250,-171.2500,0
1776971927.521,9.5433,-0.7470,1.0151,1.7480,0.6640,0.5247,-98.2500,3.0000,-18.0000,9.5672,-1.9585,2.9784,0.9198,-0.2926,0.4349,-1.5000,27.9000,-164.4000,6.4300,1.1100,-7.7000,0.6196,0.4211,0.1931,-41.3750,3.7500,40.5000,3.1250,41.1250,-171.2500,0
1776971927.526,9.5433,-0.7470,1.0151,1.7480,0.6640,0.5247,-98.2500,3.0000,-18.0000,9.5026,-3.6488,3.2082,0.4826,-0.3797,0.5588,-1.5000,27.9000,-164.4000,6.2900,1.2500,-7.6400,0.5072,0.4200,0.1647,-43.8750,6.7500,39.7500,3.0625,41.3750,-171.5625,0
1776971927.531,9.4786,-0.3519,1.3838,1.3664,0.5985,0.4959,-98.2500,3.0000,-18.0000,9.5026,-3.6488,3.2082,0.4826,-0.3797,0.5588,-0.6000,28.8000,-164.8500,6.2900,1.2500,-7.6400,0.5072,0.4200,0.1647,-43.8750,6.7500,39.7500,3.0625,41.3750,-171.5625,0
1776971927.536,9.4786,-0.3519,1.3838,1.3664,0.5985,0.4959,-98.2500,3.0000,-18.0000,9.2464,-4.6017,2.9568,0.1244,-0.5311,0.6915,-0.6000,28.8000,-164.8500,6.1700,1.4100,-7.4300,0.4080,0.3698,0.1669,-43.8750,6.7500,39.7500,3.0625,41.5625,-171.8750,0
1776971927.541,9.5122,-0.6201,1.6281,0.8748,0.5340,0.4682,-100.2000,3.4500,-17.4000,9.2464,-4.6017,2.9568,0.1244,-0.5311,0.6915,-1.2000,28.2000,-165.0000,6.1700,1.4100,-7.4300,0.3338,0.4145,0.1789,-43.8750,6.7500,39.7500,3.1250,41.8125,-172.1250,0
1776971927.547,9.5122,-0.6201,1.6281,0.8748,0.5340,0.4682,-100.2000,3.4500,-17.4000,9.1411,-4.5562,2.5067,-0.0277,-0.6931,0.8124,-1.2000,28.2000,-165.0000,5.9600,1.5400,-7.2800,0.3338,0.4145,0.1789,-43.8750,6.7500,39.7500,3.1250,42.0000,-172.3750,0
1776971927.556,9.6558,-1.2186,1.5443,0.3411,0.4788,0.4186,-101.1000,2.4000,-17.1000,9.2871,-4.2497,1.7957,-0.0762,-0.6504,0.8252,0.9000,27.4500,-165.4500,6.1700,1.0900,-7.4500,0.2825,0.3316,0.2258,-43.8750,6.7500,39.7500,3.1250,42.0000,-172.3750,0
1776971927.566,9.9551,-1.2785,1.6544,-0.0695,0.4506,0.3720,-100.9500,1.9500,-16.6500,10.1035,-3.3471,0.5986,-0.2854,-0.5436,0.7815,2.1000,27.3000,-165.3000,6.2300,1.0100,-7.6300,0.2825,0.2596,0.2640,-43.8750,6.7500,39.7500,3.2500,42.1875,-172.6250,0
1776971927.571,10.0987,-1.3288,1.8364,-0.2649,0.3765,0.3435,-101.8500,2.4000,-16.3500,10.1035,-3.3471,0.5986,-0.2854,-0.5436,0.7815,2.1000,27.3000,-165.3000,6.2300,1.0100,-7.6300,0.2825,0.2596,0.2640,-43.8750,6.7500,39.7500,3.2500,42.1875,-172.6250,0
1776971927.576,10.0987,-1.3288,1.8364,-0.2649,0.3765,0.3435,-101.8500,2.4000,-16.3500,10.2448,-2.2338,-0.2322,-0.4903,-0.4535,0.6845,2.1000,27.3000,-165.3000,6.7900,0.7400,-7.8900,0.2662,0.2094,0.2705,-45.1875,8.1875,38.6875,3.3125,42.3125,-172.8750,0
1776971927.581,10.1778,-1.2067,1.6400,-0.3725,0.2625,0.3520,-100.8000,3.6000,-16.8000,10.2448,-2.2338,-0.2322,-0.4903,-0.4535,0.6845,2.8500,28.8000,-165.6000,6.7900,0.7400,-7.8900,0.2662,0.2094,0.2705,-45.1875,8.1875,38.6875,3.3125,42.3125,-172.8750,0
1776971927.586,10.1778,-1.2067,1.6400,-0.3725,0.2625,0.3520,-100.8000,3.6000,-16.8000,10.3884,-1.5586,-0.6943,-0.6326,-0.3765,0.5564,2.8500,28.8000,-165.6000,6.9000,0.3600,-8.0800,0.2356,0.1582,0.2487,-45.1875,8.1875,38.6875,3.3750,42.4375,-173.1250,0
1776971927.593,9.8904,-0.9673,0.9816,-0.4900,0.1785,0.3541,-101.7000,1.0500,-17.4000,10.0844,-1.2953,-0.6321,-0.6845,-0.3227,0.4277,2.8500,27.7500,-163.8000,6.7400,0.3300,-8.0400,0.1811,0.1265,0.1920,-45.1875,8.1875,38.6875,3.4375,42.5000,-173.3125,0
1776971927.598,9.6247,-0.5914,0.6273,-0.6587,0.1290,0.3549,-101.7000,1.0500,-17.4000,10.0844,-1.2953,-0.6321,-0.6845,-0.3227,0.4277,2.8500,27.7500,-163.8000,6.7400,0.3300,-8.0400,0.1811,0.1265,0.1920,-45.1875,8.1875,38.6875,3.5000,42.5625,-173.4375,0
1776971927.606,9.4020,-0.4429,0.7207,-0.8492,0.1199,0.3472,-101.7000,1.0500,-17.4000,9.6414,-0.9744,-0.7039,-0.6718,-0.3019,0.3240,1.2000,28.2000,-163.2000,6.4500,0.8400,-7.7000,0.0949,0.0829,0.1364,-45.1875,8.1875,38.6875,3.5625,42.6250,-173.5000,0
1776971927.616,9.2033,-0.1867,0.9864,-0.9398,0.1106,0.3517,-100.8000,0.4500,-15.3000,9.3757,-0.0862,-0.6823,-0.5388,-0.3054,0.2494,2.7000,27.4500,-165.0000,6.1700,0.8900,-7.5800,0.0578,0.0480,0.1025,-45.1875,8.1875,38.6875,3.5625,42.6250,-173.5000,0
1776971927.621,9.2033,-0.1867,0.9864,-0.9398,0.1106,0.3517,-100.8000,0.4500,-15.3000,8.9854,0.0886,0.0599,-0.4319,-0.3424,0.2238,-0.6000,27.7500,-164.1000,6.1700,0.8900,-7.5800,0.0578,0.0480,0.1025,-45.1875,8.1875,38.6875,3.6250,42.6250,-173.5625,0
1776971927.626,9.2823,0.0383,1.2282,-0.9017,0.0834,0.3493,-100.8000,0.4500,-15.3000,8.9854,0.0886,0.0599,-0.4319,-0.3424,0.2238,-0.6000,27.7500,-164.1000,5.9600,1.0900,-7.4600,0.0502,0.0862,0.0884,-45.5625,9.5625,38.7500,3.6250,42.6250,-173.5625,0
1776971927.631,9.2823,0.0383,1.2282,-0.9017,0.0834,0.3493,-100.5000,1.9500,-14.7000,9.0357,-0.5076,0.0575,-0.3419,-0.3051,0.2486,-0.6000,27.7500,-164.1000,5.9600,1.0900,-7.4600,0.0502,0.0862,0.0884,-45.5625,9.5625,38.7500,3.6250,42.7500,-173.6250,0
1776971927.636,9.2249,0.1748,1.3958,-0.8356,0.0917,0.3475,-100.5000,1.9500,-14.7000,9.0357,-0.5076,0.0575,-0.3419,-0.3051,0.2486,-0.6000,27.7500,-164.1000,6.0600,1.3000,-7.3600,0.0404,0.1385,0.0927,-45.5625,9.5625,38.7500,3.6250,42.7500,-173.6250,0
1776971927.641,9.2249,0.1748,1.3958,-0.8356,0.0917,0.3475,-100.3500,0.9000,-15.6000,8.9974,-1.4485,-0.3112,-0.3128,-0.2633,0.2899,-3.0000,29.4000,-168.3000,6.0600,1.3000,-7.3600,0.0458,0.1134,0.1025,-45.5625,9.5625,38.7500,3.6875,42.8125,-173.7500,0
1776971927.647,9.3901,0.3017,1.6113,-0.7040,0.0703,0.3421,-100.3500,0.9000,-15.6000,8.9974,-1.4485,-0.3112,-0.3128,-0.2633,0.2899,-3.0000,29.4000,-168.3000,6.2100,1.0100,-7.5100,0.0458,0.1134,0.1025,-45.5625,9.5625,38.7500,3.7500,42.8750,-173.8125,0
1776971927.656,9.3446,-0.2083,1.6664,-0.5697,0.0981,0.3339,-100.9500,0.7500,-14.7000,9.5241,-1.7095,-0.4118,-0.1815,-0.2737,0.3251,-2.8500,30.3000,-170.2500,6.0500,1.1200,-7.3600,0.0447,0.0774,0.1113,-45.5625,9.5625,38.7500,3.7500,42.8750,-173.8125,0
1776971927.666,9.3206,0.0646,1.6544,-0.3997,0.0906,0.3192,-101.1000,0.1500,-14.5500,9.4786,-1.4868,-0.4693,-0.1239,-0.2931,0.3800,-4.6500,31.0500,-170.5500,6.1700,1.1600,-7.5900,-0.0262,0.0884,0.1244,-45.5625,9.5625,38.7500,3.8125,42.9375,-173.8750,0
1776971927.671,9.3206,0.0646,1.6544,-0.3997,0.0906,0.3192,-102.0000,0.0000,-15.1500,9.6199,-0.9984,-0.7015,-0.1471,-0.3403,0.4309,-3.1500,31.8000,-170.2500,6.1700,1.1600,-7.5900,-0.0262,0.0884,0.1244,-45.5625,9.5625,38.7500,3.8125,42.9375,-173.8750,0
1776971927.676,9.3446,0.4501,1.4892,-0.2217,0.1042,0.3203,-102.0000,0.0000,-15.1500,9.6199,-0.9984,-0.7015,-0.1471,-0.3403,0.4309,-3.1500,31.8000,-170.2500,6.3600,1.1500,-7.2000,-0.0458,0.0916,0.1222,-45.0625,9.5625,37.8750,3.8750,42.9375,-173.8750,0
1776971927.681,9.3446,0.4501,1.4892,-0.2217,0.1042,0.3203,-100.5000,-0.7500,-14.7000,9.4236,-0.6680,-0.6105,-0.1913,-0.3936,0.4511,-2.2500,33.9000,-170.1000,6.3600,1.1500,-7.2000,-0.0458,0.0916,0.1222,-45.0625,9.5625,37.8750,3.8750,42.9375,-173.8750,0
1776971927.686,9.3398,0.3663,1.3312,-0.0757,0.1162,0.3355,-100.5000,-0.7500,-14.7000,9.4236,-0.6680,-0.6105,-0.1913,-0.3936,0.4511,-2.2500,33.9000,-170.1000,5.9600,1.2600,-7.4200,-0.0916,-0.0589,0.1374,-45.0625,9.5625,37.8750,3.9375,42.8750,-173.8125,0
1776971927.691,9.3398,0.3663,1.3312,-0.0757,0.1162,0.3355,-100.5000,-0.7500,-14.7000,9.3901,-0.7709,-0.5411,-0.0791,-0.3794,0.4263,-2.2500,33.9000,-170.1000,5.9600,1.2600,-7.4200,-0.1014,0.0000,0.1560,-45.0625,9.5625,37.8750,4.0625,42.7500,-173.7500,0
1776971927.697,9.3757,0.2514,1.0223,0.0288,0.1268,0.3485,-100.5000,-0.7500,-14.7000,9.3901,-0.7709,-0.5411,-0.0791,-0.3794,0.4263,-1.9500,31.9500,-169.6500,6.1700,1.0700,-7.5500,-0.1014,0.0000,0.1560,-45.0625,9.5625,37.8750,4.0625,42.7500,-173.7500,0
1776971927.706,9.5768,0.1389,0.8260,0.0823,0.1330,0.3781,-101.8500,-0.9000,-14.2500,9.6031,-1.1779,-0.8954,-0.0024,-0.3504,0.3901,-1.9500,31.9500,-169.6500,6.6300,1.0900,-7.3600,-0.0862,0.0905,0.1451,-45.0625,9.5625,37.8750,4.1250,42.7500,-173.7500,0
1776971927.711,9.5768,0.1389,0.8260,0.0823,0.1330,0.3781,-101.8500,-0.9000,-14.2500,9.7683,-1.7358,-1.0415,-0.0085,-0.3709,0.3736,-2.1000,33.0000,-169.5000,6.6300,1.0900,-7.3600,-0.0611,0.0698,0.1178,-45.0625,9.5625,37.8750,4.1875,42.8125,-173.7500,0
1776971927.717,9.7013,0.1317,0.5722,0.0834,0.1287,0.3970,-101.8500,-0.9000,-14.2500,9.8234,-2.1404,-0.8882,-0.0701,-0.4000,0.3738,-1.3500,33.0000,-171.6000,6.6100,0.9300,-7.5200,-0.0611,0.0698,0.1178,-45.0625,9.5625,37.8750,4.1875,42.8125,-173.7500,0
1776971927.722,9.7348,-0.0120,0.5531,0.0362,0.1127,0.4096,-100.8000,-1.3500,-14.2500,9.8234,-2.1404,-0.8882,-0.0701,-0.4000,0.3738,-1.3500,33.0000,-171.6000,6.6100,0.9300,-7.5200,-0.0273,0.0622,0.0840,-46.5625,9.5625,38.3750,4.2500,42.8125,-173.7500,0
1776971927.727,9.7348,-0.0120,0.5531,0.0362,0.1127,0.4096,-100.8000,-1.3500,-14.2500,9.7612,-2.1117,-0.6345,-0.1527,-0.3744,0.3555,-1.8000,32.2500,-170.5500,6.5800,0.8400,-7.5900,-0.0273,0.0622,0.0840,-46.5625,9.5625,38.3750,4.2500,42.8125,-173.7500,0
1776971927.732,9.7420,-0.1915,0.4501,-0.0437,0.1074,0.4362,-101.1000,-2.1000,-14.2500,9.7612,-2.1117,-0.6345,-0.1527,-0.3744,0.3555,-1.8000,32.2500,-170.5500,6.5800,0.8400,-7.5900,-0.0273,0.0622,0.0840,-46.5625,9.5625,38.3750,4.2500,42.8750,-173.7500,0
1776971927.737,9.7420,-0.1915,0.4501,-0.0437,0.1074,0.4362,-101.1000,-2.1000,-14.2500,9.6247,-1.6831,-0.4932,-0.2017,-0.3256,0.3467,-1.8000,32.2500,-170.5500,6.5300,0.9600,-7.5400,-0.0164,0.0993,0.0524,-46.5625,9.5625,38.3750,4.2500,42.8750,-173.7500,0
1776971927.745,9.6702,-0.1556,0.5387,-0.1386,0.0954,0.4410,-102.4500,-1.5000,-13.2000,9.6247,-1.6831,-0.4932,-0.2017,-0.3256,0.3467,-1.8000,32.2500,-170.5500,6.4500,1.0000,-7.5400,-0.0218,0.1396,0.0262,-46.5625,9.5625,38.3750,4.2500,42.9375,-173.7500,0
1776971927.749,9.6702,-0.1556,0.5387,-0.1386,0.0954,0.4410,-102.4500,-1.5000,-13.2000,9.6343,-1.3910,-0.3328,-0.2292,-0.2651,0.3413,-1.8000,32.2500,-170.5500,6.4500,1.0000,-7.5400,-0.0218,0.1396,0.0262,-46.5625,9.5625,38.3750,4.3125,43.0625,-173.7500,0
1776971927.757,9.6414,-0.1604,0.6081,-0.2382,0.0605,0.4386,-101.2500,-0.7500,-14.4000,9.6295,-1.3096,-0.1269,-0.2547,-0.2276,0.3296,-0.6000,31.0500,-171.3000,6.4600,1.0900,-7.3300,-0.0273,0.1702,0.0109,-46.5625,9.5625,38.3750,4.3125,43.0625,-173.7500,0
1776971927.764,9.6414,-0.0622,0.6752,-0.3285,0.0397,0.4237,-100.9500,-3.4500,-14.4000,9.6295,-1.3096,-0.1269,-0.2547,-0.2276,0.3296,-0.6000,31.0500,-171.3000,6.4300,1.1200,-7.3400,-0.0218,0.1320,0.0087,-46.5625,9.5625,38.3750,4.2500,43.1250,-173.6875,0
1776971927.769,9.6534,-0.0527,0.8068,-0.3285,0.0397,0.4237,-100.9500,-3.4500,-14.4000,9.6989,-1.1349,0.1293,-0.2854,-0.2145,0.3461,-0.9000,31.6500,-172.5000,6.4300,1.1200,-7.3400,-0.0218,0.1320,0.0087,-46.5625,9.5625,38.3750,4.2500,43.1250,-173.6875,0
1776971927.774,9.6534,-0.0527,0.8068,-0.3965,0.0250,0.3922,-101.8500,-2.1000,-14.5500,9.6989,-1.1349,0.1293,-0.2854,-0.2145,0.3461,-0.9000,31.6500,-172.5000,6.3800,1.0500,-7.4300,-0.0142,0.1145,0.0142,-46.2500,10.0000,38.2500,4.2500,43.1250,-173.6875,0
1776971927.779,9.7444,0.0646,0.8906,-0.3965,0.0250,0.3922,-101.8500,-2.1000,-14.5500,9.8904,-1.1301,0.1844,-0.2790,-0.2454,0.3781,-2.2500,30.4500,-171.7500,6.3800,1.0500,-7.4300,-0.0142,0.1145,0.0142,-46.2500,10.0000,38.2500,4.2500,43.1250,-173.6875,0
1776971927.784,9.7444,0.0646,0.8906,-0.4341,0.0250,0.3698,-101.8500,-2.1000,-14.5500,9.8904,-1.1301,0.1844,-0.2790,-0.2454,0.3781,-2.2500,30.4500,-171.7500,6.4400,1.1300,-7.3400,-0.0164,0.1265,0.0196,-46.2500,10.0000,38.2500,4.2500,43.1250,-173.6250,0
1776971927.789,9.7683,0.3567,1.0654,-0.4341,0.0250,0.3698,-101.8500,-2.1000,-14.5500,9.8809,-1.1205,0.3041,-0.2635,-0.3110,0.3997,-1.9500,29.7000,-173.5500,6.4400,1.1300,-7.3400,-0.0164,0.1265,0.0196,-46.2500,10.0000,38.2500,4.2500,43.1250,-173.6250,0
1776971927.794,9.7683,0.3567,1.0654,-0.4578,0.0211,0.3413,-102.7500,-1.0500,-13.6500,9.8809,-1.1205,0.3041,-0.2635,-0.3110,0.3997,-1.9500,29.7000,-173.5500,6.4200,1.1300,-7.3100,-0.0153,0.1102,0.0218,-46.2500,10.0000,38.2500,4.2500,43.1875,-173.5625,0
1776971927.798,9.6917,0.5243,1.2737,-0.4578,0.0211,0.3413,-102.7500,-1.0500,-13.6500,9.8833,-1.2234,0.3448,-0.2465,-0.3675,0.4242,-1.9500,29.7000,-173.5500,6.4200,1.1300,-7.3100,-0.0153,0.1102,0.0218,-46.2500,10.0000,38.2500,4.2500,43.1875,-173.5000,0
1776971927.807,9.6917,0.5243,1.2737,-0.4591,0.0333,0.3174,-102.7500,-1.0500,-13.6500,9.8809,-1.2378,0.3065,-0.2249,-0.4026,0.4354,-1.9500,29.7000,-173.5500,6.4000,1.1100,-7.3900,-0.0153,0.0993,0.0262,-46.2500,10.0000,38.2500,4.2500,43.1875,-173.5000,0
1776971927.813,9.6702,0.7350,1.4198,-0.4405,0.0450,0.2947,-100.9500,-1.9500,-13.9500,9.8809,-1.2378,0.3065,-0.2249,-0.4026,0.4354,-1.9500,29.7000,-173.5500,6.4500,1.1600,-7.3900,0.0011,0.1233,0.0327,-46.2500,10.0000,38.2500,4.2500,43.1875,-173.5000,0
1776971927.818,9.6438,0.7518,1.6185,-0.4194,0.0485,0.2675,-100.9500,-1.9500,-13.9500,9.8306,-1.3886,0.3208,-0.2198,-0.4242,0.4455,-1.8000,30.7500,-173.4000,6.4500,1.1600,-7.3900,0.0011,0.1233,0.0327,-46.2500,10.0000,38.2500,4.2500,43.1875,-173.5000,0
1776971927.823,9.6438,0.7518,1.6185,-0.4194,0.0485,0.2675,-102.0000,-0.7500,-14.7000,9.8306,-1.3886,0.3208,-0.2198,-0.4242,0.4455,-1.8000,30.7500,-173.4000,6.4800,1.1000,-7.3700,0.0262,0.1429,0.0327,-45.5000,10.1875,37.1875,4.2500,43.2500,-173.5000,0
1776971927.828,9.5026,0.7853,1.6592,-0.4040,0.0501,0.2358,-102.0000,-0.7500,-14.7000,9.6630,-1.4964,0.4860,-0.1998,-0.4946,0.4511,-2.2500,29.7000,-173.5500,6.4800,1.1000,-7.3700,0.0262,0.1429,0.0327,-45.5000,10.1875,37.1875,4.2500,43.2500,-173.5000,0
1776971927.833,9.5026,0.7853,1.6592,-0.4040,0.0501,0.2358,-101.7000,-2.7000,-13.6500,9.6630,-1.4964,0.4860,-0.1998,-0.4946,0.4511,-2.2500,29.7000,-173.5500,6.4800,1.1000,-7.3700,0.0545,0.1713,0.0305,-45.5000,10.1875,37.1875,4.2500,43.3125,-173.5000,0
1776971927.838,9.5672,0.7638,1.6448,-0.3960,0.0488,0.2006,-101.7000,-2.7000,-13.6500,9.7372,-1.5993,0.5626,-0.1977,-0.4557,0.4738,0.3000,28.8000,-174.4500,6.5000,1.0500,-7.3900,0.0545,0.1713,0.0305,-45.5000,10.1875,37.1875,4.2500,43.3125,-173.5000,0
1776971927.842,9.5672,0.7638,1.6448,-0.3960,0.0488,0.2006,-102.6000,-2.8500,-14.2500,9.7372,-1.5993,0.5626,-0.1977,-0.4557,0.4738,0.3000,28.8000,-174.4500,6.5000,1.0500,-7.3900,0.0720,0.1854,0.0316,-45.5000,10.1875,37.1875,4.2500,43.3750,-173.5000,0
1776971927.848,9.5385,0.8452,1.6185,-0.3938,0.0424,0.1775,-102.6000,-2.8500,-14.2500,9.8330,-1.7382,0.6895,-0.2070,-0.4732,0.4850,-0.9000,30.4500,-174.3000,6.4900,1.1100,-7.3300,0.0720,0.1854,0.0316,-45.5000,10.1875,37.1875,4.2500,43.3750,-173.5000,0
1776971927.857,9.6223,0.8116,1.6712,-0.4135,0.0373,0.1553,-101.1000,-2.4000,-14.8500,9.8521,-1.7957,0.7135,-0.1892,-0.4940,0.5055,-0.9000,30.4500,-174.3000,6.5200,1.0700,-7.3400,0.0916,0.1833,0.0338,-45.5000,10.1875,37.1875,4.1875,43.4375,-173.5000,0
1776971927.861,9.6223,0.8116,1.6712,-0.4135,0.0373,0.1553,-101.1000,-2.4000,-14.8500,9.8521,-1.7957,0.7135,-0.1892,-0.4940,0.5055,-0.9000,30.4500,-174.3000,6.5200,1.0700,-7.3400,0.1058,0.2018,0.0207,-45.5000,10.1875,37.1875,4.1875,43.5000,-173.5625,0
