timestamp,thigh_acc_x,thigh_acc_y,thigh_acc_z,thigh_gyro_x,thigh_gyro_y,thigh_gyro_z,thigh_mag_x,thigh_mag_y,thigh_mag_z,shank_acc_x,shank_acc_y,shank_acc_z,shank_gyro_x,shank_gyro_y,shank_gyro_z,shank_mag_x,shank_mag_y,shank_mag_z,foot_acc_x,foot_acc_y,foot_acc_z,foot_gyro_x,foot_gyro_y,foot_gyro_z,foot_mag_x,foot_mag_y,foot_mag_z,foot_euler_x,foot_euler_y,foot_euler_z,perturbation_event
1776970497.310,7.9583,-4.0606,0.7542,1.7645,0.3560,1.1415,-77.7000,-16.3500,-22.2000,8.9735,-0.7087,-0.3998,1.4903,1.4663,0.5321,-33.7500,15.3000,12.4500,7.5300,0.0600,-6.1200,1.0843,1.8828,-0.0905,-5.1875,6.5625,51.7500,330.3125,17.9375,-179.5000,0
1776970497.315,7.3981,-3.9911,0.1700,1.7920,0.4365,1.2111,-77.7000,-16.3500,-22.2000,8.7101,-0.7278,-0.5339,1.4312,1.4986,0.5740,-34.5000,15.7500,13.0500,8.9300,-0.4700,-6.7300,1.1628,1.8642,-0.4440,-7.8750,6.5625,53.1875,329.9375,18.9375,179.8750,0
1776970497.320,7.3981,-3.9911,0.1700,1.7920,0.4365,1.2111,-78.4500,-17.5500,-21.4500,8.7101,-0.7278,-0.5339,1.4312,1.4986,0.5740,-34.5000,15.7500,13.0500,8.9300,-0.4700,-6.7300,1.1628,1.8642,-0.4440,-7.8750,6.5625,53.1875,329.9375,18.9375,179.8750,0
1776970497.325,7.1491,-4.0821,0.2083,1.8591,0.5462,1.2569,-78.4500,-17.5500,-21.4500,8.3582,-0.9553,-0.2993,1.4266,1.6859,0.6134,-34.5000,15.7500,13.0500,9.4900,-0.7300,-6.9400,1.1868,1.8031,-0.8039,-7.8750,6.5625,53.1875,329.3750,19.9375,179.3750,0
1776970497.331,7.1491,-4.0821,0.2083,1.8591,0.5462,1.2569,-78.9000,-18.7500,-21.0000,8.3582,-0.9553,-0.2993,1.4266,1.6859,0.6134,-34.5000,15.7500,13.0500,9.4900,-0.7300,-6.9400,1.1988,1.6592,-1.1465,-7.8750,6.5625,53.1875,328.6250,20.8750,178.9375,0
1776970497.336,7.2856,-3.4477,0.3424,1.9025,0.7242,1.3560,-78.9000,-18.7500,-21.0000,8.2049,-0.4118,-0.4621,1.3835,1.8575,0.7240,-34.5000,15.7500,13.0500,10.2700,-1.0700,-7.3100,1.1988,1.6592,-1.1465,-7.8750,6.5625,53.1875,327.6875,21.6875,178.6250,0
1776970497.346,7.9009,-3.0119,1.7861,1.9633,0.9126,1.4807,-78.9000,-18.7500,-21.0000,10.9535,2.7438,1.5610,1.5268,1.9694,0.7674,-36.0000,12.9000,15.0000,11.4700,-1.6200,-8.0000,1.1945,1.4879,-1.4290,-7.8750,6.5625,53.1875,326.6875,22.4375,178.3125,0
1776970497.356,12.9981,-0.6608,3.2753,1.8018,1.5036,0.8769,-78.9000,-20.2500,-18.7500,16.0172,10.0149,-3.9121,-0.0234,2.0859,0.3611,-35.7000,12.1500,16.2000,-16.3500,14.4800,-28.7300,1.1476,1.2588,-1.6493,-7.8750,6.5625,53.1875,326.6875,22.4375,178.3125,0
1776970497.360,12.9981,-0.6608,3.2753,1.8018,1.5036,0.8769,-78.9000,-20.2500,-18.7500,16.0172,10.0149,-3.9121,-0.0234,2.0859,0.3611,-35.7000,12.1500,16.2000,-16.3500,14.4800,-28.7300,1.1476,1.2588,-1.6493,-13.5000,5.8750,54.0625,325.6875,23.1875,177.9375,0
1776970497.366,21.0857,-5.0087,-5.3870,0.7938,1.7949,-0.3890,-78.9000,-20.2500,-18.7500,24.2413,6.7900,-18.5551,-1.5527,0.6739,-0.6086,-36.7500,12.9000,17.2500,1.4700,11.0200,-22.8000,1.3068,1.3166,-1.5686,-13.5000,5.8750,54.0625,325.6875,23.1875,177.9375,0
1776970497.371,21.0857,-5.0087,-5.3870,0.7938,1.7949,-0.3890,-77.4000,-20.2500,-18.4500,24.2413,6.7900,-18.5551,-1.5527,0.6739,-0.6086,-36.7500,12.9000,17.2500,1.4700,11.0200,-22.8000,1.3068,1.3166,-1.5686,-13.5000,5.8750,54.0625,326.0000,25.3750,176.8750,0
1776970497.376,26.5685,-8.8609,-7.7476,0.7424,-0.3595,-1.3334,-77.4000,-20.2500,-18.4500,22.4959,-0.9505,-11.2480,1.8714,-1.2438,-1.4666,-35.1000,15.0000,17.4000,-6.8500,2.2300,-31.7200,1.5283,4.0219,0.8574,-13.5000,5.8750,54.0625,326.0000,25.3750,176.8750,0
1776970497.385,16.2973,-6.9408,-4.5657,2.5053,-3.1499,-0.9270,-78.3000,-19.3500,-18.3000,15.0811,-1.9273,-0.7446,5.0673,-0.6603,-1.5055,-35.1000,15.0000,17.4000,12.1200,-25.4300,-3.9400,1.6570,2.7249,0.9817,-13.5000,5.8750,54.0625,326.3750,26.8750,175.6250,0
1776970497.395,10.6829,-5.7126,-4.0582,2.9625,-1.3339,-0.4719,-78.3000,-18.9000,-19.3500,13.5009,-6.4093,-1.0343,4.5123,0.8447,-1.1799,-34.9500,14.4000,16.2000,18.4600,-10.7900,-7.8000,2.0137,2.5264,0.3665,-13.5000,5.8750,54.0625,326.3750,28.2500,174.3125,0
1776970497.403,11.0540,-8.4084,-4.5490,3.0760,-0.1412,-0.0290,-79.3500,-19.9500,-17.7000,12.7683,-6.0861,-5.0398,2.4805,1.0051,-0.6440,-34.9500,14.4000,16.2000,16.2500,-2.3400,-10.8100,1.1705,3.5190,0.4003,-13.5000,5.8750,54.0625,326.5000,30.1875,173.4375,0
1776970497.408,11.0540,-8.4084,-4.5490,3.0760,-0.1412,-0.0290,-79.3500,-19.9500,-17.7000,12.7683,-6.0861,-5.0398,2.4805,1.0051,-0.6440,-34.8000,13.8000,16.6500,16.2500,-2.3400,-10.8100,1.1705,3.5190,0.4003,-13.5000,5.8750,54.0625,326.5000,30.1875,173.4375,0
1776970497.412,8.0948,-10.5608,-1.1779,1.7166,0.3981,0.2641,-78.7500,-19.3500,-20.1000,10.4387,-8.0469,-0.7566,0.1524,0.7677,-0.2454,-34.8000,13.8000,16.6500,7.2400,-6.5400,-9.9900,0.3665,1.5762,0.1811,-20.5625,4.7500,54.8750,326.6250,31.0000,173.1250,0
1776970497.417,8.0948,-10.5608,-1.1779,1.7166,0.3981,0.2641,-78.7500,-19.3500,-20.1000,10.4387,-8.0469,-0.7566,0.1524,0.7677,-0.2454,-34.2000,15.1500,17.5500,7.2400,-6.5400,-9.9900,0.3665,1.5762,0.1811,-20.5625,4.7500,54.8750,326.6250,31.0000,173.1250,0
1776970497.422,8.5665,-3.8403,-2.4876,0.4330,1.8815,0.4205,-77.7000,-19.9500,-18.0000,7.8051,1.6520,-5.6671,-1.1954,1.0056,0.1519,-34.2000,15.1500,17.5500,7.2400,-6.5400,-9.9900,0.4396,-0.2280,0.0273,-20.5625,4.7500,54.8750,326.5625,30.8750,172.8750,0
1776970497.427,8.5665,-3.8403,-2.4876,0.4330,1.8815,0.4205,-77.7000,-19.9500,-18.0000,7.8051,1.6520,-5.6671,-1.1954,1.0056,0.1519,-35.1000,14.2500,17.4000,7.5700,-1.7100,-9.6800,0.4396,-0.2280,0.0273,-20.5625,4.7500,54.8750,326.4375,31.1250,172.9375,0
1776970497.436,8.9519,2.7246,1.0702,-0.7711,1.8698,0.4996,-77.7000,-19.9500,-18.0000,5.5450,4.9991,-2.9544,-1.8695,1.2255,0.5798,-34.6500,15.9000,19.3500,5.6700,1.6300,-8.0900,0.0033,0.3512,-0.2323,-20.5625,4.7500,54.8750,326.3125,31.1875,173.0625,0
1776970497.446,10.1442,4.5873,-0.4693,-0.5337,1.3808,0.7725,-78.0000,-20.4000,-17.5500,7.3478,7.3981,-4.7166,-1.4397,1.3384,0.9990,-34.6500,15.9000,19.3500,4.2600,1.2500,-7.6400,-0.0491,0.1047,-0.2727,-20.5625,4.7500,54.8750,326.3125,31.1875,173.0625,0
1776970497.456,12.8066,6.2537,-3.2705,-0.1535,0.8942,1.0864,-78.0000,-20.4000,-17.5500,8.7819,9.6606,-7.4148,-0.3912,1.2462,1.1375,-36.4500,12.9000,18.6000,3.8600,1.3800,-8.0500,-0.2345,0.1374,-0.2618,-20.5625,4.7500,54.8750,326.1875,31.2500,173.2500,0
1776970497.461,10.0652,6.9599,-5.3654,0.9537,0.2278,0.8780,-78.1500,-21.0000,-16.6500,5.9759,11.2097,-8.1499,0.8524,1.0581,0.4732,-36.4500,12.9000,18.6000,3.8600,1.3800,-8.0500,-0.2345,0.1374,-0.2618,-20.5625,4.7500,54.8750,326.1875,31.2500,173.2500,0
1776970497.466,10.0652,6.9599,-5.3654,0.9537,0.2278,0.8780,-78.1500,-21.0000,-16.6500,5.9759,11.2097,-8.1499,0.8524,1.0581,0.4732,-35.4000,14.7000,19.3500,3.8600,0.0800,-7.7300,-0.3862,0.5181,-0.1822,-25.0000,6.5000,53.5625,326.1875,31.5625,173.5000,0
1776970497.471,7.9416,7.5896,-3.1819,1.7637,-0.1146,0.5774,-78.1500,-21.0000,-16.6500,5.4157,9.3087,-5.0015,1.7277,1.0760,-0.0650,-35.4000,14.7000,19.3500,3.8600,0.0800,-7.7300,-0.3862,0.5181,-0.1822,-25.0000,6.5000,53.5625,326.1875,31.5625,173.5000,0
1776970497.476,7.9416,7.5896,-3.1819,1.7637,-0.1146,0.5774,-78.1500,-21.0000,-16.6500,5.4157,9.3087,-5.0015,1.7277,1.0760,-0.0650,-35.1000,12.7500,18.1500,3.1600,-2.2100,-7.8200,-0.2880,0.4265,-0.1233,-25.0000,6.5000,53.5625,326.1875,31.8125,173.6875,0
1776970497.484,7.6734,5.2768,-0.1460,1.9169,0.2641,0.5119,-76.5000,-22.0500,-15.3000,6.0071,4.8866,-1.1827,1.9084,1.2630,-0.2340,-33.9000,13.6500,21.1500,2.9600,-0.0200,-7.7600,-0.2803,0.6163,-0.0774,-25.0000,6.5000,53.5625,326.1875,32.1875,173.8750,0
1776970497.489,7.0461,-2.4684,2.8204,1.5228,0.4413,0.5804,-76.5000,-22.0500,-15.3000,6.0071,4.8866,-1.1827,1.2697,1.1906,-0.1617,-33.9000,13.6500,21.1500,2.9600,-0.0200,-7.7600,-0.2803,0.6163,-0.0774,-25.0000,6.5000,53.5625,326.3125,32.7500,174.0000,0
1776970497.496,7.0461,-2.4684,2.8204,1.5228,0.4413,0.5804,-76.8000,-22.5000,-14.8500,8.6574,-0.0311,0.4764,1.2697,1.1906,-0.1617,-36.0000,12.9000,18.3000,4.0200,1.5800,-7.3200,-0.3731,1.0494,0.0447,-25.0000,6.5000,53.5625,326.4375,33.3750,174.0625,0
1776970497.506,8.5042,-7.3765,2.9497,0.4378,0.7754,0.4309,-76.5000,-23.2500,-14.5500,10.9487,-3.5961,1.4629,0.4604,1.0680,-0.0653,-36.0000,12.9000,18.3000,4.3100,0.9200,-6.9500,-0.2291,1.1781,0.1516,-25.0000,6.5000,53.5625,326.4375,33.3750,174.0625,0
1776970497.511,8.7484,-8.7532,2.8491,-0.3491,0.9371,0.4181,-77.4000,-21.9000,-14.7000,11.7771,-3.0957,2.2146,-0.2697,1.0078,0.0642,-36.0000,12.9000,18.3000,4.3100,0.9200,-6.9500,-0.2291,1.1781,0.1516,-25.0000,4.8750,53.0625,326.6250,34.1875,173.8750,0
1776970497.516,9.4763,-7.1946,3.0574,-0.3491,0.9371,0.4181,-77.4000,-21.9000,-14.7000,11.7771,-3.0957,2.2146,-0.2697,1.0078,0.0642,-35.5500,12.3000,21.6000,7.5400,-1.2100,-9.2500,0.0273,1.4410,0.2563,-25.0000,4.8750,53.0625,326.6250,34.1875,173.8750,0
1776970497.521,9.4763,-7.1946,3.0574,-0.4247,1.0376,0.4165,-76.5000,-21.6000,-14.8500,11.9734,-1.8818,2.3128,-0.8356,0.9363,0.1919,-35.5500,12.3000,21.6000,7.5400,-1.2100,-9.2500,0.0273,1.4410,0.2563,-25.0000,4.8750,53.0625,326.8125,35.0625,173.5625,0
1776970497.526,9.0597,-6.5697,3.1268,-0.4247,1.0376,0.4165,-76.5000,-21.6000,-14.8500,11.9734,-1.8818,2.3128,-0.8356,0.9363,0.1919,-37.0500,13.5000,22.3500,8.7400,-2.2300,-9.6900,0.1974,1.7028,0.2782,-25.0000,4.8750,53.0625,326.8125,35.0625,173.5625,0
1776970497.531,9.0597,-6.5697,3.1268,-0.7850,1.6284,0.4389,-75.1500,-22.9500,-14.4000,11.5664,0.2586,2.0758,-1.0824,0.9435,0.2920,-36.0000,12.4500,22.2000,8.7400,-2.2300,-9.6900,0.3360,1.2457,0.1582,-25.0000,4.8750,53.0625,326.8750,35.7500,173.3125,0
1776970497.537,10.8457,-2.9497,4.0797,-0.5500,1.5644,0.4900,-75.1500,-22.9500,-14.4000,11.5664,0.2586,2.0758,-1.0824,0.9435,0.2920,-36.0000,12.4500,22.2000,8.5800,-4.4400,-9.8700,0.3360,1.2457,0.1582,-25.0000,4.8750,53.0625,326.8125,36.1250,173.0625,0
1776970497.546,10.6183,-1.2402,4.2377,-0.4269,1.1652,0.4714,-75.1500,-22.9500,-14.4000,11.0277,2.5881,0.8260,-1.1064,0.9150,0.3917,-36.6000,12.0000,22.0500,7.3500,-0.9700,-8.5500,0.3469,0.6796,0.0262,-25.0000,4.8750,53.0625,326.8125,36.1875,172.8125,0
1776970497.556,9.6678,0.4405,3.3447,-0.0472,0.6837,0.4599,-76.8000,-23.2500,-13.0500,9.7492,4.2449,0.6776,-0.7320,0.7866,0.4178,-36.0000,10.9500,22.5000,6.2500,-1.1300,-7.4800,0.4080,0.1167,0.0753,-25.0000,4.8750,53.0625,326.8125,36.1875,172.8125,0
1776970497.561,9.6678,0.4405,3.3447,-0.0472,0.6837,0.4599,-76.8000,-23.2500,-13.0500,8.6981,5.2481,0.2562,-0.3163,0.7237,0.4000,-36.0000,10.9500,22.5000,6.2500,-1.1300,-7.4800,0.4080,0.1167,0.0753,-25.0000,4.8750,53.0625,326.8125,36.3125,172.7500,0
1776970497.566,9.6917,1.4437,2.9616,0.1492,0.5127,0.4783,-76.8000,-23.2500,-13.0500,8.6981,5.2481,0.2562,0.0093,0.6611,0.3968,-36.0000,10.9500,22.5000,5.5900,-0.5000,-8.1800,0.0480,0.2225,-0.0065,-30.0625,4.5625,52.5625,326.8125,36.3125,172.7500,0
1776970497.571,9.6917,1.4437,2.9616,0.1492,0.5127,0.4783,-75.4500,-23.4000,-13.6500,8.4252,5.4971,-0.1341,0.0093,0.6611,0.3968,-36.4500,13.2000,22.5000,5.5900,-0.5000,-8.1800,0.0480,0.2225,-0.0065,-30.0625,4.5625,52.5625,326.8125,36.4375,172.6875,0
1776970497.576,9.6103,1.1037,2.2625,0.3581,0.3810,0.5351,-75.4500,-23.4000,-13.6500,8.8585,4.8028,-0.7494,0.2523,0.6430,0.3914,-36.4500,13.2000,22.5000,5.9800,-0.1800,-8.0600,0.0480,0.2225,-0.0065,-30.0625,4.5625,52.5625,326.8125,36.4375,172.6875,0
1776970497.586,10.1849,0.3974,1.7885,0.5596,0.1905,0.5758,-76.6500,-25.0500,-12.4500,9.3063,3.6799,-1.3120,0.3416,0.6006,0.4109,-36.6000,13.0500,24.9000,5.4400,-0.6800,-7.8000,-0.0785,0.1734,-0.0065,-30.0625,4.5625,52.5625,326.8125,36.5625,172.7500,0
1776970497.595,9.8019,-1.3838,1.1013,0.2284,0.3432,0.6382,-75.9000,-24.6000,-12.4500,9.5553,2.3439,-1.4222,0.2222,0.5966,0.4295,-34.5000,11.5500,25.9500,5.6100,-0.8200,-7.8900,-0.1669,0.1418,-0.0055,-30.0625,4.5625,52.5625,326.8750,36.6250,172.8125,0
1776970497.603,9.4044,-2.5977,1.5323,0.2284,0.3432,0.6382,-76.9500,-25.0500,-12.1500,9.5553,2.3439,-1.4222,0.2222,0.5966,0.4295,-34.0500,12.3000,24.4500,5.6100,-0.8600,-7.9400,-0.2607,0.3578,0.0196,-30.0625,4.5625,52.5625,326.9375,36.8125,172.9375,0
1776970497.608,9.4044,-2.5977,1.5323,-0.0477,0.3480,0.6350,-76.9500,-25.0500,-12.1500,9.6750,1.3623,-1.0056,-0.1271,0.5542,0.4578,-34.0500,12.3000,24.4500,5.6100,-0.8600,-7.9400,-0.2607,0.3578,0.0196,-30.0625,4.5625,52.5625,326.9375,36.8125,172.9375,0
1776970497.613,8.7867,-3.7086,1.7190,-0.0477,0.3480,0.6350,-75.3000,-24.7500,-11.5500,9.6750,1.3623,-1.0056,-0.1271,0.5542,0.4578,-34.0500,12.3000,24.4500,5.6000,-0.8800,-8.0100,-0.2105,0.3698,0.0393,-30.0625,4.8750,52.0625,327.0000,37.0000,173.0000,0
1776970497.618,8.7867,-3.7086,1.7190,-0.5953,0.5265,0.5329,-75.3000,-24.7500,-11.5500,9.5888,0.5578,-0.6009,-0.6123,0.4764,0.4596,-34.0500,12.3000,24.4500,5.6000,-0.8800,-8.0100,-0.2105,0.3698,0.0393,-30.0625,4.8750,52.0625,327.0000,37.0000,173.0000,0
1776970497.622,8.7867,-3.6990,1.7717,-0.5953,0.5265,0.5329,-75.6000,-24.7500,-13.0500,9.5888,0.5578,-0.6009,-0.6123,0.4764,0.4596,-34.0500,12.3000,24.4500,5.7400,-0.8100,-8.0000,-0.2105,0.3698,0.0393,-30.0625,4.8750,52.0625,327.0625,37.1875,173.1250,0
1776970497.627,8.7867,-3.6990,1.7717,-0.9651,0.6971,0.4495,-75.6000,-24.7500,-13.0500,9.7636,0.5507,-0.3376,-1.0136,0.4615,0.5076,-34.0500,12.3000,24.4500,5.7400,-0.8100,-8.0000,-0.2105,0.3698,0.0393,-30.0625,4.8750,52.0625,327.0625,37.1875,173.1250,0
1776970497.636,9.3422,-3.9265,2.0255,-1.4346,0.6193,0.4802,-75.6000,-25.9500,-12.0000,10.0772,0.5291,-0.1891,-1.2372,0.4567,0.5484,-35.8500,12.0000,25.9500,5.8100,-0.8300,-8.0400,0.0251,0.2389,0.0425,-30.0625,4.8750,52.0625,327.0625,37.3125,173.0625,0
1776970497.641,9.2273,-3.6057,1.4748,-1.4346,0.6193,0.4802,-74.8500,-24.4500,-12.3000,10.0772,0.5291,-0.1891,-1.2372,0.4567,0.5484,-35.8500,9.3000,26.2500,5.8100,-0.8300,-8.0400,0.0884,0.1876,0.0360,-30.0625,4.8750,52.0625,327.1250,37.4375,173.0000,0
1776970497.647,9.2273,-3.6057,1.4748,-1.4626,0.9140,0.4796,-74.8500,-24.4500,-12.3000,9.8090,0.3926,0.1987,-1.3584,0.4274,0.5652,-35.8500,9.3000,26.2500,5.8600,-0.9900,-7.9700,0.0884,0.1876,0.0360,-30.0625,4.8750,52.0625,327.1250,37.5000,172.9375,0
1776970497.656,8.0278,-3.6248,1.4796,-1.3318,0.9904,0.4378,-74.8500,-24.4500,-12.3000,9.4978,0.8499,0.0048,-1.3595,0.4463,0.5249,-34.9500,10.9500,25.0500,6.0500,-0.9500,-7.9900,0.1134,0.1473,0.0251,-30.0625,4.8750,52.0625,327.1250,37.5000,172.9375,0
1776970497.661,9.8402,-2.8826,2.4780,-1.1106,0.7368,0.4335,-73.9500,-26.1000,-11.8500,9.4978,0.8499,0.0048,-1.3595,0.4463,0.5249,-36.0000,11.7000,24.7500,6.0500,-0.9500,-7.9900,0.1134,0.1473,0.0251,-31.1875,4.7500,52.0000,327.0625,37.5625,172.8125,0
1776970497.667,9.8402,-2.8826,2.4780,-1.1106,0.7368,0.4335,-73.9500,-26.1000,-11.8500,10.0293,1.6424,-0.1556,-1.2343,0.4101,0.5193,-36.0000,11.7000,24.7500,5.9000,-1.0600,-7.8800,0.1244,0.0611,0.0229,-31.1875,4.7500,52.0000,327.0625,37.5625,172.8125,0
1776970497.671,9.5816,-2.6049,1.7430,-1.1088,0.6651,0.4687,-73.9500,-26.1000,-11.8500,10.0293,1.6424,-0.1556,-1.2343,0.4101,0.5193,-36.0000,11.7000,24.7500,5.9000,-1.0600,-7.8800,0.1244,0.0611,0.0229,-31.1875,4.7500,52.0000,327.0625,37.5625,172.7500,0
1776970497.677,9.5816,-2.6049,1.7430,-1.1088,0.6651,0.4687,-73.9500,-26.1000,-11.8500,9.9383,1.6975,-0.2658,-1.0688,0.4029,0.5489,-36.0000,11.7000,24.7500,5.8400,-0.8900,-7.7200,0.1178,0.0764,0.0153,-31.1875,4.7500,52.0000,327.0625,37.5625,172.7500,0
1776970497.681,9.4786,-2.4732,1.3431,-0.9721,0.7059,0.4826,-74.5500,-24.7500,-12.3000,9.9383,1.6975,-0.2658,-1.0688,0.4029,0.5489,-36.0000,11.7000,24.7500,5.8400,-0.8900,-7.7200,0.1156,0.0469,0.0153,-31.1875,4.7500,52.0000,327.0625,37.6250,172.6875,0
1776970497.687,9.4786,-2.4732,1.3431,-0.9721,0.7059,0.4826,-74.5500,-24.7500,-12.3000,9.6391,1.8555,-0.2873,-0.8681,0.4005,0.5327,-36.0000,11.7000,24.7500,6.0000,-0.7100,-7.7400,0.1156,0.0469,0.0153,-31.1875,4.7500,52.0000,327.0625,37.6250,172.6875,0
1776970497.696,12.2727,0.3687,6.6152,0.0773,0.1716,0.4149,-74.8500,-26.4000,-12.7500,8.9040,2.6240,-0.7326,-0.6243,0.3600,0.4962,-34.0500,9.7500,26.2500,5.7300,-0.6900,-7.7900,0.0589,0.0316,0.0273,-31.1875,4.7500,52.0000,327.0625,37.6250,172.6250,0
1776970497.702,8.0134,-3.0885,1.1372,-1.0813,0.7546,0.5287,-73.8000,-26.4000,-11.2500,9.6750,1.5778,-0.2370,-0.4714,0.4580,0.4482,-34.9500,10.9500,26.1000,5.7300,-0.6900,-7.7900,-0.0207,0.0676,0.0044,-31.1875,4.7500,52.0000,327.0625,37.6250,172.6875,0
1776970497.707,8.0134,-3.0885,1.1372,-1.0813,0.7546,0.5287,-73.8000,-26.4000,-11.2500,9.6750,1.5778,-0.2370,-0.4714,0.4580,0.4482,-34.9500,10.9500,26.1000,5.8700,-0.8300,-7.7300,-0.0207,0.0676,0.0044,-31.1875,4.7500,52.0000,327.0625,37.6250,172.6875,0
1776970497.712,9.3996,-2.1979,0.7015,-0.2406,0.3706,0.4525,-73.8000,-26.7000,-12.3000,9.2081,1.5969,-0.6488,-0.4002,0.3778,0.4165,-35.4000,9.4500,25.8000,5.8700,-0.9000,-7.8000,-0.0589,0.0905,0.0022,-31.8750,4.5000,51.1875,327.0625,37.6875,172.6875,0
1776970497.717,9.3996,-2.1979,0.7015,-0.2406,0.3706,0.4525,-73.8000,-26.7000,-12.3000,9.2081,1.5969,-0.6488,-0.4002,0.3778,0.4165,-35.4000,9.4500,25.8000,5.8700,-0.9000,-7.8000,-0.0589,0.0905,0.0022,-31.8750,4.5000,51.1875,327.0625,37.6875,172.6875,0
1776970497.722,8.9208,-2.8467,1.0989,-0.3078,0.6134,0.4477,-74.8500,-25.9500,-11.5500,9.4164,1.1325,-0.6177,-0.3613,0.3882,0.3773,-35.5500,9.7500,24.9000,5.8700,-0.9000,-7.8000,-0.0709,0.0840,0.0196,-31.8750,4.5000,51.1875,327.1250,37.7500,172.7500,0
1776970497.727,8.9208,-2.8467,1.0989,-0.3078,0.6134,0.4477,-74.8500,-25.9500,-11.5500,9.4164,1.1325,-0.6177,-0.3613,0.3882,0.3773,-35.5500,9.7500,24.9000,5.7000,-0.6900,-7.7800,-0.0709,0.0840,0.0196,-31.8750,4.5000,51.1875,327.1250,37.7500,172.7500,0
1776970497.732,9.3589,-2.7869,1.4916,-0.1444,0.1929,0.4341,-73.6500,-26.1000,-11.4000,9.4978,1.2330,-0.7446,-0.3331,0.3736,0.3667,-35.5500,9.7500,24.9000,5.7000,-0.6900,-7.7800,-0.0644,0.0916,0.0142,-31.8750,4.5000,51.1875,327.1250,37.7500,172.8125,0
1776970497.737,8.6862,-3.1244,1.3288,-0.1444,0.1929,0.4341,-73.6500,-26.1000,-11.4000,9.4978,1.2330,-0.7446,-0.3331,0.3736,0.3667,-35.5500,9.7500,24.9000,5.9200,-0.7300,-7.7400,-0.0644,0.0916,0.0142,-31.8750,4.5000,51.1875,327.1250,37.7500,172.8125,0
1776970497.746,8.6862,-3.1244,1.3288,-0.4391,0.2931,0.4130,-73.6500,-26.1000,-11.4000,9.5840,1.1109,-0.6393,-0.3794,0.3387,0.3667,-33.3000,8.5500,26.2500,5.8900,-0.8800,-7.7100,-0.0360,0.0884,0.0447,-31.8750,4.5000,51.1875,327.1875,37.8125,172.8125,0
1776970497.751,9.0118,-3.2010,1.1396,-0.4343,0.4517,0.3592,-73.6500,-26.1000,-11.4000,9.5241,1.1253,-0.7566,-0.4362,0.3224,0.3525,-34.9500,9.9000,26.4000,5.8900,-0.8800,-7.7100,0.0033,0.0949,0.0447,-31.8750,4.5000,51.1875,327.1875,37.8750,172.7500,0
1776970497.757,9.1435,-2.7078,0.9266,-0.3656,0.4013,0.3435,-73.3500,-27.1500,-11.2500,9.5241,1.1253,-0.7566,-0.4362,0.3224,0.3525,-34.6500,9.4500,25.8000,5.8600,-0.7400,-7.7100,0.0033,0.0949,0.0447,-31.8750,4.5000,51.1875,327.1875,37.8750,172.7500,0
1776970497.762,9.1435,-2.7078,0.9266,-0.3656,0.4013,0.3435,-73.3500,-27.1500,-11.2500,9.4571,1.2426,-0.9122,-0.4309,0.3312,0.3379,-34.6500,9.4500,25.8000,5.8600,-0.7400,-7.7100,0.0033,0.0949,0.0447,-30.7500,4.7500,51.1875,327.1875,37.8750,172.7500,0
1776970497.767,9.2344,-2.6911,1.0032,-0.3667,0.3320,0.3499,-73.3500,-27.1500,-11.2500,9.4571,1.2426,-0.9122,-0.4309,0.3312,0.3379,-34.8000,8.2500,27.7500,5.9300,-0.7400,-7.6400,0.0436,0.0884,0.0567,-30.7500,4.7500,51.1875,327.1875,37.8750,172.7500,0
1776970497.772,9.2344,-2.6911,1.0032,-0.3667,0.3320,0.3499,-74.4000,-27.0000,-11.8500,9.6199,1.0989,-1.0463,-0.4218,0.3616,0.3397,-34.8000,8.2500,27.7500,5.9300,-0.7400,-7.6400,0.0436,0.0884,0.0567,-30.7500,4.7500,51.1875,327.2500,37.9375,172.6875,0
1776970497.777,9.3733,-3.0071,0.7254,-0.4586,0.4231,0.3435,-74.4000,-27.0000,-11.8500,9.6199,1.0989,-1.0463,-0.4218,0.3616,0.3397,-36.0000,7.9500,26.1000,5.6800,-0.8200,-7.7500,0.0513,0.1113,0.0753,-30.7500,4.7500,51.1875,327.2500,37.9375,172.6875,0
1776970497.782,9.3733,-3.0071,0.7254,-0.4586,0.4231,0.3435,-74.4000,-27.0000,-11.8500,9.7229,1.1229,-1.2282,-0.5057,0.3616,0.3400,-36.0000,7.9500,26.1000,5.6800,-0.8200,-7.7500,0.0698,0.1571,0.0698,-30.7500,4.7500,51.1875,327.2500,38.0000,172.6250,0
1776970497.787,9.5313,-2.5929,0.5866,-0.3824,0.3928,0.3397,-74.4000,-27.0000,-11.8500,9.7229,1.1229,-1.2282,-0.5057,0.3616,0.3400,-36.0000,7.9500,26.1000,5.5700,-0.9000,-7.7700,0.0698,0.1571,0.0698,-30.7500,4.7500,51.1875,327.2500,38.0000,172.6250,0
1776970497.796,9.5624,-1.7861,0.7638,-0.2459,0.3949,0.3805,-73.6500,-26.5500,-11.8500,9.5289,1.7071,-1.0894,-0.4647,0.3773,0.3405,-36.0000,7.9500,26.1000,5.9100,-0.8200,-7.8400,0.0894,0.2258,0.0535,-30.7500,4.7500,51.1875,327.3125,38.1250,172.5625,0
1776970497.801,9.5624,-1.7861,0.7638,-0.2459,0.3949,0.3805,-73.6500,-26.5500,-11.8500,9.4523,2.2098,-1.0008,-0.2899,0.4207,0.3637,-33.3000,9.0000,27.3000,5.9100,-0.8200,-7.8400,0.0796,0.2596,0.0404,-30.7500,4.7500,51.1875,327.3125,38.2500,172.5000,0
1776970497.808,9.5912,-1.5227,0.9888,-0.1007,0.3842,0.4442,-72.6000,-25.5000,-11.2500,9.4523,2.2098,-1.0008,-0.2899,0.4207,0.3637,-33.6000,8.4000,26.1000,6.0300,-0.8100,-7.7800,0.0796,0.2596,0.0404,-30.7500,4.7500,51.1875,327.3125,38.2500,172.5000,0
1776970497.812,9.5912,-1.5227,0.9888,-0.1007,0.3842,0.4442,-72.9000,-26.5500,-11.8500,9.3733,2.3487,-0.9744,-0.1362,0.4730,0.3893,-33.6000,8.4000,26.1000,6.0300,-0.8100,-7.7800,0.0873,0.2509,0.0142,-32.2500,5.1875,50.2500,327.3125,38.3750,172.4375,0
1776970497.817,9.5002,-1.5754,1.0415,0.0341,0.3595,0.4988,-72.9000,-26.5500,-11.8500,9.3733,2.3487,-0.9744,-0.1362,0.4730,0.3893,-33.9000,7.9500,26.1000,6.0400,-0.8600,-7.8700,0.0873,0.2509,0.0142,-32.2500,5.1875,50.2500,327.3125,38.3750,172.4375,0
1776970497.822,9.5002,-1.5754,1.0415,0.0341,0.3595,0.4988,-72.9000,-26.5500,-11.8500,9.3613,2.3104,-0.8906,-0.0179,0.5260,0.3896,-33.9000,7.9500,26.1000,6.0400,-0.8600,-7.8700,0.0644,0.2389,0.0120,-32.2500,5.1875,50.2500,327.3125,38.5000,172.3750,0
1776970497.827,9.4763,-1.7597,1.1732,0.1553,0.3328,0.5300,-74.4000,-27.3000,-11.4000,9.4739,2.1117,-0.5291,0.0706,0.5633,0.4000,-34.5000,7.5000,28.5000,6.1900,-0.7300,-7.6900,0.0644,0.2389,0.0120,-32.2500,5.1875,50.2500,327.3125,38.5000,172.3750,0
1776970497.832,9.4763,-1.7597,1.1732,0.1553,0.3328,0.5300,-73.3500,-27.9000,-10.5000,9.4739,2.1117,-0.5291,0.0706,0.5633,0.4000,-34.5000,7.5000,28.5000,6.1900,-0.7300,-7.6900,0.0305,0.2280,0.0120,-32.2500,5.1875,50.2500,327.3125,38.6250,172.3125,0
1776970497.838,9.7444,-1.7478,1.9513,0.2148,0.3896,0.5452,-73.3500,-27.9000,-10.5000,9.6319,2.1380,-0.7685,0.0703,0.6097,0.4149,-34.5000,8.2500,26.7000,6.0800,-0.6900,-7.7800,0.0305,0.2280,0.0120,-32.2500,5.1875,50.2500,327.3125,38.7500,172.3125,0
1776970497.847,9.5385,-1.9345,0.8763,0.1948,0.3472,0.5649,-72.0000,-28.0500,-11.1000,9.3901,2.0207,-0.8595,0.0794,0.5641,0.4354,-34.5000,8.2500,26.7000,6.1000,-0.6700,-7.7500,0.0011,0.2116,0.0065,-32.2500,5.1875,50.2500,327.3125,38.8125,172.3125,0
1776970497.857,9.3254,-2.0518,1.5634,0.0911,0.3781,0.5969,-72.0000,-28.0500,-11.1000,9.4260,1.8172,-0.7374,-0.0051,0.5966,0.4812,-34.9500,6.4500,28.2000,6.1000,-0.6100,-7.5700,-0.0065,0.1953,0.0011,-32.2500,5.1875,50.2500,327.3125,38.8125,172.3125,0
1776970497.862,9.3254,-2.0518,1.5634,0.0911,0.3781,0.5969,-72.0000,-28.0500,-11.1000,9.4260,1.8172,-0.7374,-0.0051,0.5966,0.4812,-34.9500,6.4500,28.2000,6.1000,-0.6100,-7.5700,-0.0065,0.1953,0.0011,-32.2500,5.1875,50.2500,327.3125,38.8125,172.3125,0
1776970497.867,9.3925,-2.2410,1.3886,0.0200,0.3848,0.6254,-71.8500,-27.9000,-10.0500,9.3230,1.9680,-0.5387,-0.0677,0.5766,0.5148,-34.2000,6.4500,27.9000,6.0000,-0.8200,-7.7100,0.0109,0.1756,0.0164,-32.1875,4.7500,50.0000,327.3125,38.9375,172.3125,0
1776970497.872,9.2296,-2.2625,1.8675,0.0200,0.3848,0.6254,-71.8500,-27.9000,-10.0500,9.3230,1.9680,-0.5387,-0.0677,0.5766,0.5148,-34.2000,6.4500,27.9000,6.0000,-0.8200,-7.7100,0.0109,0.1756,0.0164,-32.1875,4.7500,50.0000,327.3125,38.9375,172.3125,0
1776970497.877,9.2296,-2.2625,1.8675,-0.0576,0.4048,0.6217,-71.8500,-27.9000,-10.0500,9.6103,2.0111,-0.3926,-0.1260,0.5852,0.5385,-33.9000,7.2000,28.2000,5.8800,-0.8300,-7.6000,0.0207,0.1865,0.0185,-32.1875,4.7500,50.0000,327.3125,39.0000,172.3125,0
1776970497.882,9.5098,-2.1500,1.9178,-0.0576,0.4048,0.6217,-71.8500,-27.9000,-10.0500,9.6103,2.0111,-0.3926,-0.1260,0.5852,0.5385,-33.9000,7.2000,28.2000,5.8800,-0.8300,-7.6000,0.0273,0.2291,0.0120,-32.1875,4.7500,50.0000,327.3125,39.1250,172.2500,0
1776970497.888,9.5098,-2.1500,1.9178,-0.1194,0.3960,0.6310,-71.5500,-28.6500,-10.8000,9.4236,2.4588,-0.3735,-0.0917,0.5937,0.5505,-34.5000,6.7500,27.7500,5.8500,-0.7000,-7.5800,0.0273,0.2291,0.0120,-32.1875,4.7500,50.0000,327.3125,39.1250,172.2500,0
1776970497.896,9.4978,-1.5538,1.9537,-0.0810,0.3421,0.6632,-71.8500,-28.3500,-9.7500,9.3829,2.5522,0.1317,-0.0264,0.5915,0.5598,-35.1000,6.7500,27.3000,5.8300,-0.5900,-7.5200,0.0524,0.2618,0.0393,-32.1875,4.7500,50.0000,327.3750,39.2500,172.2500,0
1776970497.901,9.3470,-1.9034,2.2841,0.0317,0.3035,0.6947,-71.8500,-28.3500,-9.7500,9.3829,2.5522,0.1317,-0.0264,0.5915,0.5598,-35.1000,6.7500,27.3000,5.8300,-0.5900,-7.5200,0.0698,0.2694,0.0622,-32.1875,4.7500,50.0000,327.3750,39.3750,172.1875,0
1776970497.908,9.3470,-1.9034,2.2841,0.0317,0.3035,0.6947,-71.2500,-27.7500,-9.6000,9.5816,1.7358,0.2514,0.0927,0.5878,0.5798,-35.1000,6.7500,27.3000,5.8700,-0.4400,-7.4500,0.0698,0.2694,0.0622,-32.1875,4.7500,50.0000,327.3750,39.3750,172.1875,0
1776970497.912,9.0932,-2.6193,1.8986,0.1143,0.2846,0.7560,-71.2500,-27.7500,-9.6000,9.5816,1.7358,0.2514,0.0927,0.5878,0.5798,-35.1000,6.7500,27.3000,5.8700,-0.4400,-7.4500,0.0676,0.2978,0.0654,-33.1875,5.1875,50.0000,327.3750,39.5000,172.1875,0
1776970497.918,9.0932,-2.6193,1.8986,0.1143,0.2846,0.7560,-71.1000,-28.3500,-11.2500,9.5720,1.0798,0.2945,0.1553,0.6134,0.6086,-32.8500,6.1500,28.2000,5.8500,-0.7100,-7.6500,0.0676,0.2978,0.0654,-33.1875,5.1875,50.0000,327.3750,39.5000,172.1875,0
1776970497.922,8.8729,-3.2370,1.9106,0.0962,0.2998,0.8042,-71.1000,-28.3500,-11.2500,9.5720,1.0798,0.2945,0.1553,0.6134,0.6086,-32.8500,6.1500,28.2000,5.8500,-0.7100,-7.6500,0.0502,0.3131,0.0524,-33.1875,5.1875,50.0000,327.4375,39.6875,172.1250,0
1776970497.928,8.8729,-3.2370,1.9106,0.0962,0.2998,0.8042,-71.7000,-28.0500,-10.3500,9.6271,0.4693,0.4142,0.0773,0.6651,0.6699,-34.5000,4.5000,29.1000,6.4000,-1.0200,-7.6300,0.0502,0.3131,0.0524,-33.1875,5.1875,50.0000,327.4375,39.6875,172.1250,0
1776970497.932,8.7101,-3.7493,2.0207,0.0325,0.3675,0.8356,-71.7000,-28.0500,-10.3500,9.6271,0.4693,0.4142,0.0773,0.6651,0.6699,-34.5000,4.5000,29.1000,6.4000,-1.0200,-7.6300,0.0295,0.2934,0.0371,-33.1875,5.1875,50.0000,327.4375,39.8125,172.0625,0
1776970497.938,8.7101,-3.7493,2.0207,0.0325,0.3675,0.8356,-69.6000,-27.9000,-10.5000,10.2041,0.3496,0.1987,-0.0594,0.7051,0.7408,-33.3000,5.2500,29.5500,6.4600,-1.0100,-7.6300,0.0295,0.2934,0.0371,-33.1875,5.1875,50.0000,327.4375,39.9375,172.0000,0
1776970497.947,8.7987,-3.9959,2.0734,-0.0855,0.4434,0.8783,-70.3500,-29.8500,-10.0500,9.8426,0.5387,0.0622,-0.1673,0.7013,0.7722,-34.2000,3.9000,29.2500,6.4300,-1.0200,-7.5900,0.0131,0.2563,0.0262,-33.1875,5.1875,50.0000,327.4375,39.9375,172.0000,0
1776970497.957,9.0549,-3.7445,2.1644,-0.2513,0.4748,0.9041,-69.6000,-29.5500,-9.3000,9.9479,0.5842,0.4429,-0.2385,0.6672,0.7847,-33.7500,4.8000,30.6000,5.9800,-0.8200,-7.5500,0.0109,0.2280,0.0251,-33.1875,5.1875,50.0000,327.5000,40.0625,172.0000,0
1776970497.962,8.9160,-3.8355,2.2218,-0.2713,0.4221,0.8921,-69.6000,-29.5500,-9.3000,9.9479,0.5842,0.4429,-0.2385,0.6672,0.7847,-33.7500,4.8000,30.6000,5.9800,-0.8200,-7.5500,0.0109,0.2280,0.0251,-33.1875,5.1875,50.0000,327.5000,40.0625,172.0000,0
1776970497.967,8.9160,-3.8355,2.2218,-0.2713,0.4221,0.8921,-69.6000,-29.5500,-9.3000,9.8665,0.7542,0.6823,-0.2105,0.6299,0.7586,-33.7500,4.8000,30.6000,5.9800,-0.7600,-7.5100,0.0284,0.2258,0.0131,-33.5625,5.1875,51.0625,327.5000,40.1875,171.9375,0
1776970497.972,8.7987,-3.8164,2.4397,-0.2310,0.3885,0.8636,-69.6000,-29.5500,-9.3000,9.8665,0.7542,0.6823,-0.2105,0.6299,0.7586,-33.7500,4.8000,30.6000,5.9800,-0.7600,-7.5100,0.0284,0.2258,0.0131,-33.5625,5.1875,51.0625,327.5000,40.1875,171.9375,0
1776970497.977,8.7987,-3.8164,2.4397,-0.2310,0.3885,0.8636,-68.7000,-28.9500,-9.9000,9.6678,0.4932,0.9313,-0.2017,0.6067,0.7285,-32.8500,3.1500,29.7000,5.9800,-0.7300,-7.4800,0.0185,0.2443,0.0284,-33.5625,5.1875,51.0625,327.5000,40.3125,171.9375,0
1776970497.982,8.5090,-4.0725,2.4397,-0.1897,0.3176,0.8386,-68.7000,-28.9500,-9.9000,9.6678,0.4932,0.9313,-0.2017,0.6067,0.7285,-32.8500,3.1500,29.7000,5.9800,-0.7300,-7.4800,-0.0076,0.2465,0.0447,-33.5625,5.1875,51.0625,327.5625,40.4375,171.8750,0
1776970497.988,8.2265,-4.1827,1.8986,-0.1881,0.3291,0.8388,-68.7000,-28.9500,-9.9000,9.5648,0.0239,0.6919,-0.1695,0.6118,0.7234,-33.3000,3.0000,32.4000,6.3000,-0.9400,-7.3800,-0.0076,0.2465,0.0447,-33.5625,5.1875,51.0625,327.5625,40.4375,171.8750,0
1776970497.997,8.3606,-4.3335,1.9178,-0.1881,0.3291,0.8388,-67.2000,-31.9500,-9.1500,9.5457,-0.1077,0.7685,-0.1583,0.6344,0.7304,-33.9000,3.4500,30.4500,6.0700,-1.0000,-7.4900,-0.0360,0.2749,0.0513,-33.5625,5.1875,51.0625,327.5625,40.5625,171.8750,0
1776970498.002,8.3606,-4.3335,1.9178,-0.1540,0.3970,0.8519,-67.2000,-31.9500,-9.1500,9.6271,-0.1987,0.5507,-0.1857,0.6643,0.7357,-33.9000,3.4500,30.4500,6.0700,-1.0000,-7.4900,-0.0436,0.2967,0.0491,-33.5625,5.1875,51.0625,327.6250,40.7500,171.8750,0
1776970498.008,8.3246,-4.2641,1.7549,-0.1588,0.4327,0.8567,-68.7000,-30.9000,-9.9000,9.6271,-0.1987,0.5507,-0.1857,0.6643,0.7357,-32.4000,3.1500,31.8000,6.2600,-0.9700,-7.6000,-0.0436,0.2967,0.0491,-33.5625,5.1875,51.0625,327.6250,40.7500,171.8750,0
1776970498.013,8.3246,-4.2641,1.7549,-0.1588,0.4327,0.8567,-68.7000,-30.9000,-9.9000,9.4403,-0.0383,0.4741,-0.2358,0.6757,0.7488,-32.4000,3.1500,31.8000,6.2600,-0.9700,-7.6000,-0.0436,0.2956,0.0349,-35.0625,6.0000,50.2500,327.6875,40.8750,171.8750,0
1776970498.018,8.3606,-3.9600,1.8004,-0.1847,0.4703,0.8681,-67.5000,-31.2000,-9.9000,9.4403,-0.0383,0.4741,-0.2358,0.6757,0.7488,-32.4000,3.1500,31.8000,6.4900,-1.0700,-7.4300,-0.0436,0.2956,0.0349,-35.0625,6.0000,50.2500,327.6875,40.8750,171.8750,0
1776970498.023,8.3606,-3.9600,1.8004,-0.1847,0.4703,0.8681,-67.5000,-31.2000,-9.9000,9.3757,0.4190,0.2729,-0.2366,0.7061,0.7674,-32.4000,3.1500,31.8000,6.4900,-1.0700,-7.4300,-0.0469,0.2651,0.0229,-35.0625,6.0000,50.2500,327.6875,41.0625,171.8750,0
1776970498.028,8.6191,-3.6799,1.9513,-0.2324,0.4871,0.8868,-67.9500,-32.8500,-9.9000,9.3757,0.4190,0.2729,-0.2366,0.7061,0.7674,-32.4000,3.1500,31.8000,6.4300,-1.0200,-7.4900,-0.0469,0.2651,0.0229,-35.0625,6.0000,50.2500,327.6875,41.0625,171.8750,0
1776970498.036,8.6455,-3.6392,1.8411,-0.2475,0.4676,0.9161,-67.3500,-32.2500,-10.0500,9.3948,0.4166,0.3089,-0.2734,0.7048,0.8084,-31.9500,1.8000,32.7000,6.3800,-1.0100,-7.4500,-0.0545,0.2542,0.0185,-35.0625,6.0000,50.2500,327.7500,41.1875,171.8750,0
1776970498.041,8.6455,-3.6392,1.8411,-0.2475,0.4676,0.9161,-67.3500,-32.2500,-10.0500,9.5840,0.6033,0.4334,-0.2798,0.7229,0.8226,-31.9500,1.8000,32.7000,6.3800,-1.0100,-7.4500,-0.0545,0.2542,0.0185,-35.0625,6.0000,50.2500,327.7500,41.3125,171.8750,0
1776970498.048,8.6838,-3.5195,2.0087,-0.2390,0.5020,0.9233,-66.6000,-33.4500,-8.7000,9.5840,0.6033,0.4334,-0.2798,0.7229,0.8226,-32.1000,0.9000,31.0500,6.4300,-1.0000,-7.4100,-0.0665,0.2596,0.0055,-35.0625,6.0000,50.2500,327.7500,41.4375,171.8750,0
1776970498.057,8.7867,-3.6440,2.2122,-0.2110,0.4895,0.9353,-66.6000,-33.4500,-8.7000,9.6798,0.6704,0.6129,-0.2819,0.7213,0.8292,-30.6000,1.2000,32.5500,6.1000,-0.8600,-7.4700,-0.0764,0.2367,0.0011,-35.0625,6.0000,50.2500,327.7500,41.4375,171.8750,0
1776970498.062,8.7867,-3.6440,2.2122,-0.2110,0.4895,0.9353,-66.6000,-33.4500,-8.7000,9.9359,0.6847,0.7111,-0.3003,0.7349,0.8418,-31.2000,0.3000,31.9500,6.1000,-0.8600,-7.4700,-0.0764,0.2367,0.0011,-35.0625,6.0000,50.2500,327.7500,41.4375,171.8750,0
1776970498.067,8.9687,-3.7733,2.3367,-0.2204,0.5081,0.9393,-66.3000,-31.6500,-9.9000,9.9359,0.6847,0.7111,-0.3003,0.7349,0.8418,-31.2000,0.3000,31.9500,5.9000,-0.6900,-7.5800,-0.0807,0.2498,0.0065,-35.7500,5.1875,49.5000,327.8125,41.5625,171.9375,0
1776970498.072,8.9687,-3.7733,2.3367,-0.2204,0.5081,0.9393,-66.3000,-31.6500,-9.9000,9.9240,0.5291,0.6488,-0.2806,0.7083,0.8431,-31.2000,0.3000,31.9500,5.9000,-0.6900,-7.5800,-0.0807,0.2498,0.0065,-35.7500,5.1875,49.5000,327.8125,41.5625,171.9375,0
1776970498.077,8.9016,-3.8595,2.2673,-0.1913,0.5068,0.9446,-66.3000,-31.6500,-9.9000,9.9240,0.5291,0.6488,-0.2806,0.7083,0.8431,-31.2000,0.3000,31.9500,6.1300,-0.5600,-7.5200,-0.0916,0.2509,0.0196,-35.7500,5.1875,49.5000,327.8125,41.6875,171.9375,0
1776970498.087,8.9663,-4.0606,2.1117,-0.2148,0.5105,0.9944,-65.2500,-35.1000,-8.8500,9.9216,0.2107,0.6560,-0.2955,0.7477,0.8793,-31.2000,0.0000,32.7000,6.2300,-0.8500,-7.5600,-0.1113,0.2400,0.0196,-35.7500,5.1875,49.5000,327.8750,41.8750,172.0000,0
1776970498.096,8.8011,-4.4245,1.9345,-0.3016,0.4970,1.0525,-65.2500,-35.1000,-8.8500,9.8761,-0.2035,0.5722,-0.3400,0.7608,0.9318,-29.4000,-0.7500,30.9000,6.3400,-1.1400,-7.8000,-0.1189,0.2334,0.0065,-35.7500,5.1875,49.5000,327.9375,42.0000,172.0625,0
1776970498.101,8.8011,-4.4245,1.9345,-0.3016,0.4970,1.0525,-65.2500,-35.1000,-8.8500,10.2113,-0.4573,0.2442,-0.4058,0.7983,0.9827,-31.3500,-0.4500,32.5500,6.3400,-1.1400,-7.8000,-0.1189,0.2334,0.0065,-35.7500,5.1875,49.5000,327.9375,42.1250,172.0625,0
1776970498.108,9.0142,-4.8219,1.6855,-0.4522,0.5297,1.0949,-64.6500,-33.4500,-8.7000,10.7069,-0.9026,0.0455,-0.5625,0.7922,1.0280,-31.3500,-0.4500,32.5500,6.0100,-1.1900,-7.7200,-0.1004,0.3818,-0.0065,-35.7500,5.1875,49.5000,327.9375,42.1250,172.0625,0
1776970498.113,9.3613,-5.2122,1.5012,-0.6182,0.5425,1.1218,-64.6500,-33.4500,-8.7000,10.7069,-0.9026,0.0455,-0.5625,0.7922,1.0280,-29.5500,-0.4500,34.3500,6.0100,-1.1900,-7.7200,-0.1396,0.5378,-0.0644,-35.7500,6.2500,48.7500,328.0000,42.3750,172.1250,0
1776970498.118,9.3613,-5.2122,1.5012,-0.6182,0.5425,1.1218,-63.9000,-33.0000,-8.2500,10.6853,-0.3352,0.2921,-0.6611,0.7917,1.0946,-29.5500,-0.4500,34.3500,5.7300,-1.6800,-7.8000,-0.1396,0.5378,-0.0644,-35.7500,6.2500,48.7500,328.0000,42.3750,172.1250,0
1776970498.123,9.4475,-4.5993,1.7597,-0.7056,0.5894,1.1575,-63.9000,-33.0000,-8.2500,10.6853,-0.3352,0.2921,-0.6611,0.7917,1.0946,-30.4500,-2.2500,33.7500,5.7300,-1.6800,-7.8000,-0.2116,0.6294,-0.1604,-35.7500,6.2500,48.7500,327.9375,42.7500,172.3125,0
1776970498.128,9.4475,-4.5993,1.7597,-0.7056,0.5894,1.1575,-64.3500,-34.2000,-9.3000,10.3597,0.5698,0.4597,-0.7091,0.8082,1.1663,-30.4500,-2.2500,33.7500,6.3600,-1.8700,-7.5800,-0.2116,0.6294,-0.1604,-35.7500,6.2500,48.7500,327.9375,42.7500,172.3125,0
1776970498.136,9.3877,-3.6488,1.9249,-0.6339,0.6619,1.1743,-64.0500,-35.1000,-9.6000,10.3597,0.5698,0.4597,-0.7091,0.8082,1.1663,-30.4500,-2.2500,33.7500,6.6100,-1.4600,-7.6400,-0.2171,0.7636,-0.2640,-35.7500,6.2500,48.7500,327.8750,43.1875,172.5000,0
1776970498.141,9.4595,-3.2609,1.7382,-0.6339,0.6619,1.1743,-64.0500,-35.1000,-9.6000,10.1083,0.7805,0.3567,-0.6587,0.8284,1.2241,-30.6000,-2.4000,34.3500,6.6100,-1.4600,-7.6400,-0.2171,0.7636,-0.2640,-35.7500,6.2500,48.7500,327.7500,43.7500,172.8125,0
1776970498.148,9.4595,-3.2609,1.7382,-0.5215,0.6326,1.2718,-62.4000,-34.2000,-9.0000,9.9934,0.7446,0.5076,-0.5646,0.8716,1.2828,-30.6000,-2.4000,34.3500,6.0900,-1.9400,-7.6400,-0.2978,0.9218,-0.3774,-35.7500,6.2500,48.7500,327.6250,44.3750,173.2500,0
1776970498.158,9.1889,-3.4261,1.8747,-0.4338,0.6158,1.3534,-63.3000,-36.0000,-9.9000,10.0556,0.3926,0.3998,-0.5335,0.9126,1.3440,-30.1500,-3.0000,33.4500,6.8000,0.0700,-7.3800,-0.4091,1.1094,-0.5072,-35.7500,6.2500,48.7500,327.6250,44.3750,173.2500,0
1776970498.162,8.9543,-3.7062,1.9058,-0.4271,0.5939,1.4224,-63.3000,-36.0000,-9.9000,10.0556,0.3926,0.3998,-0.5335,0.9126,1.3440,-28.5000,-2.7000,33.6000,6.8000,0.0700,-7.3800,-0.4091,1.1094,-0.5072,-35.7500,6.2500,48.7500,327.6250,44.3750,173.2500,0
1776970498.167,8.9543,-3.7062,1.9058,-0.4271,0.5939,1.4224,-63.3000,-36.0000,-9.9000,10.3693,0.5195,1.0056,-0.5177,0.9174,1.3917,-28.5000,-2.7000,33.6000,5.8500,-2.5800,-7.6000,-0.6709,1.0625,-0.4298,-36.8750,6.2500,48.7500,315.2500,45.0000,173.7500,0
1776970498.172,9.3494,-3.9911,2.4349,-0.4378,0.6432,1.4759,-63.3000,-36.0000,-9.9000,10.3693,0.5195,1.0056,-0.5177,0.9174,1.3917,-29.1000,-2.7000,32.5500,5.8500,-2.5800,-7.6000,-0.6709,1.0625,-0.4298,-36.8750,6.2500,48.7500,315.2500,45.0000,173.7500,0
1776970498.177,9.3494,-3.9911,2.4349,-0.4378,0.6432,1.4759,-61.6500,-36.1500,-9.0000,11.2504,0.5722,0.8404,-0.5673,0.9049,1.4599,-29.1000,-2.7000,32.5500,6.7700,-1.1400,-7.3400,-0.7549,1.2283,-0.5465,-36.8750,6.2500,48.7500,316.6875,45.6875,174.4375,0
1776970498.184,10.4698,-3.9672,2.4876,-0.4586,0.6659,1.5370,-61.6500,-36.1500,-9.0000,11.2504,0.5722,0.8404,-0.5673,0.9049,1.4599,-28.2000,-5.2500,33.4500,6.3900,-0.8500,-7.9200,-0.9327,1.3908,-0.4331,-36.8750,6.2500,48.7500,318.3125,46.5000,175.1250,0
1776970498.189,11.4227,-4.2258,2.2577,-0.4586,0.6659,1.5370,-61.6500,-36.1500,-9.0000,11.8848,0.8715,0.5052,-0.6113,0.9145,1.5447,-28.2000,-5.2500,33.4500,6.3900,-0.8500,-7.9200,-0.9327,1.3908,-0.4331,-36.8750,6.2500,48.7500,319.4375,47.3125,175.5625,0
1776970498.198,11.4227,-4.2258,2.2577,-0.4732,0.6915,1.5468,-59.7000,-36.9000,-9.0000,12.1745,0.2586,-0.3926,-0.6153,0.9257,1.6214,-28.2000,-5.2500,33.4500,6.4300,0.3400,-8.2300,-0.6545,1.4966,-0.2782,-36.8750,6.2500,48.7500,320.0000,48.2500,175.7500,0
1776970498.208,11.2168,-4.6471,1.6041,-0.5481,0.6041,1.6321,-59.5500,-37.0500,-9.9000,12.0524,0.1413,0.1604,-0.5955,0.9382,1.6920,-27.3000,-5.7000,35.4000,6.0800,0.4600,-8.0500,-0.3065,1.6253,-0.0873,-36.8750,6.2500,48.7500,320.0000,48.2500,175.7500,0
1776970498.213,11.2168,-4.6471,1.6041,-0.5393,0.6480,1.7568,-59.5500,-37.0500,-9.9000,12.0524,0.1413,0.1604,-0.5955,0.9382,1.6920,-26.2500,-6.9000,35.4000,6.0800,0.4600,-8.0500,-0.3065,1.6253,-0.0873,-39.8750,5.1875,46.7500,320.1250,49.2500,175.6250,0
1776970498.218,11.5137,-4.4388,2.3320,-0.5393,0.6480,1.7568,-58.0500,-36.7500,-9.9000,12.7036,0.3950,0.4022,-0.5891,0.9737,1.8151,-26.2500,-6.9000,35.4000,6.4700,0.4300,-8.5300,0.0480,1.8359,-0.0349,-39.8750,5.1875,46.7500,320.1250,49.2500,175.6250,0
1776970498.222,11.5137,-4.4388,2.3320,-0.4978,0.7051,1.8698,-58.0500,-36.7500,-9.9000,12.7036,0.3950,0.4022,-0.5891,0.9737,1.8151,-26.1000,-7.5000,35.8500,6.4700,0.4300,-8.5300,0.0480,1.8359,-0.0349,-39.8750,5.1875,46.7500,319.5000,50.3125,175.1875,0
1776970498.228,13.0676,-4.4796,1.6065,-0.4978,0.7051,1.8698,-58.2000,-38.8500,-8.2500,13.6302,1.1564,-0.7757,-0.6808,0.9651,1.8985,-26.1000,-7.5000,35.8500,6.3300,0.7100,-8.7900,0.6021,1.8751,0.0185,-39.8750,5.1875,46.7500,319.5000,50.3125,175.1875,0
1776970498.232,13.0676,-4.4796,1.6065,-0.6427,0.7266,1.8993,-58.2000,-38.8500,-8.2500,13.6302,1.1564,-0.7757,-0.6808,0.9651,1.8985,-27.1500,-7.5000,35.2500,6.3300,0.7100,-8.7900,1.2174,1.4028,-0.1985,-39.8750,5.1875,46.7500,318.3125,51.0625,174.5625,0
1776970498.238,13.7571,-5.1858,-0.2993,-0.8631,0.6662,1.9558,-56.5500,-38.7000,-8.4000,14.2048,-0.1125,-2.2505,-0.7605,0.9718,1.9737,-24.7500,-8.7000,36.7500,5.4400,-1.2400,-8.3900,1.2174,1.4028,-0.1985,-39.8750,5.1875,46.7500,318.1875,52.0625,174.5625,0
1776970498.248,13.4291,-4.0079,-0.4214,-1.0152,0.8013,2.0635,-55.9500,-38.5500,-9.7500,13.9989,0.6369,-2.7078,-0.7442,0.9896,2.0294,-24.7500,-8.7000,36.7500,8.7300,-1.7700,-6.6700,0.5476,1.7377,-0.6065,-39.8750,5.1875,46.7500,318.1875,52.0625,174.5625,0
1776970498.258,13.4482,-2.8395,-0.7254,-1.1876,0.8196,2.1106,-54.4500,-40.0500,-9.3000,13.2040,1.5251,-3.1843,-0.9193,1.0488,2.1192,-24.7500,-8.7000,36.7500,5.1600,1.3700,-9.4100,-0.2062,2.7838,-0.3316,-39.8750,5.1875,46.7500,318.8125,53.6250,174.7500,0
1776970498.262,13.4482,-2.8395,-0.7254,-1.1876,0.8196,2.1106,-54.4500,-40.0500,-9.3000,13.2040,1.5251,-3.1843,-0.9161,1.1445,2.1701,-22.8000,-10.0500,35.5500,5.1600,1.3700,-9.4100,-0.2062,2.7838,-0.3316,-39.8750,5.1875,46.7500,318.8125,53.6250,174.7500,0
1776970498.268,11.9519,-1.7214,-0.4645,-1.1434,0.7376,2.2194,-52.5000,-38.5500,-9.3000,11.7747,1.8842,-2.5618,-0.9161,1.1445,2.1701,-22.8000,-10.0500,35.5500,6.2000,2.3500,-7.7500,0.0087,2.5831,-0.4821,-43.1875,3.3750,43.2500,319.2500,55.0625,174.9375,0
1776970498.272,11.9519,-1.7214,-0.4645,-1.1434,0.7376,2.2194,-52.5000,-38.5500,-9.3000,10.4028,2.2075,-0.9457,-0.7101,1.2239,2.1509,-22.6500,-11.4000,34.6500,6.2000,2.3500,-7.7500,0.0087,2.5831,-0.4821,-43.1875,3.3750,43.2500,319.2500,55.0625,174.9375,0
1776970498.277,10.4196,-1.8364,-0.0311,-0.6678,0.6400,2.2950,-52.5000,-38.5500,-9.3000,10.4028,2.2075,-0.9457,-0.7101,1.2239,2.1509,-22.6500,-11.4000,34.6500,8.3400,3.4200,-7.6600,0.1647,2.5373,-0.3916,-43.1875,3.3750,43.2500,319.5000,56.5000,175.0000,0
1776970498.284,10.4196,-1.8364,-0.0311,-0.6678,0.6400,2.2950,-52.5000,-38.5500,-9.3000,9.7875,2.2362,0.0215,-0.4434,1.3003,2.0688,-20.8500,-10.6500,36.4500,8.3800,3.2400,-7.9800,0.7712,2.5056,0.1811,-43.1875,3.3750,43.2500,318.7500,57.8750,174.1875,0
1776970498.289,9.2823,-2.0231,1.2713,-0.0679,0.4687,2.2042,-52.3500,-39.0000,-9.1500,9.7875,2.2362,0.0215,-0.4434,1.3003,2.0688,-20.2500,-12.0000,38.1000,8.3800,3.2400,-7.9800,0.7712,2.5056,0.1811,-43.1875,3.3750,43.2500,317.0625,59.0625,172.5625,0
1776970498.298,8.3773,-2.8802,2.2936,0.4175,0.3800,2.1109,-52.3500,-39.0000,-9.1500,9.6798,1.6113,1.0487,-0.2110,1.3739,1.9644,-20.2500,-12.0000,38.1000,9.2700,2.2900,-7.9500,1.5304,2.2329,0.5869,-43.1875,3.3750,43.2500,317.0625,59.0625,172.5625,0
1776970498.308,8.3366,-4.0079,3.8547,0.4048,0.4922,2.1011,-49.3500,-39.4500,-7.6500,10.3094,0.8499,3.0287,-0.0418,1.5465,1.8255,-20.2500,-12.0000,38.1000,10.6400,-1.5100,-6.9500,1.8620,2.6180,0.8039,-43.1875,3.3750,43.2500,315.0625,60.4375,170.4375,0
1776970498.312,8.3366,-4.0079,3.8547,0.4048,0.4922,2.1011,-49.3500,-39.4500,-7.6500,10.3765,0.1006,3.2609,-0.0464,1.6124,1.7821,-20.2500,-12.0000,38.1000,10.6400,-1.5100,-6.9500,1.8620,2.6180,0.8039,-43.1875,3.3750,43.2500,315.0625,60.4375,170.4375,0
1776970498.317,8.5234,-4.6184,3.5434,0.5529,0.6206,2.0158,-49.5000,-41.5500,-9.0000,10.3765,0.1006,3.2609,-0.0464,1.6124,1.7821,-17.7000,-13.0500,36.3000,10.2900,-0.7800,-7.2700,1.3035,4.5771,1.5239,-46.7500,4.7500,38.0625,313.4375,62.7500,167.2500,0
1776970498.322,8.5234,-4.6184,3.5434,0.5529,0.6206,2.0158,-49.5000,-41.5500,-9.0000,10.7069,-1.3982,4.8219,0.0290,1.5735,1.7096,-17.7000,-13.0500,36.3000,10.2900,-0.7800,-7.2700,1.3035,4.5771,1.5239,-46.7500,4.7500,38.0625,313.4375,62.7500,167.2500,0
1776970498.327,7.2903,-6.6439,5.4181,0.9212,1.0965,1.9223,-47.7000,-40.9500,-8.4000,10.7069,-1.3982,4.8219,0.0290,1.5735,1.7096,-17.8500,-13.9500,38.5500,16.4200,1.8000,-11.3900,0.8258,5.4072,1.5326,-46.7500,4.7500,38.0625,312.4375,65.4375,163.5625,0
1776970498.332,7.2903,-6.6439,5.4181,0.9212,1.0965,1.9223,-47.7000,-40.9500,-8.4000,9.5361,-2.6121,6.2058,0.2076,1.5569,1.7163,-17.8500,-13.9500,38.5500,16.4200,1.8000,-11.3900,0.7385,5.1771,1.6024,-46.7500,4.7500,38.0625,311.5625,67.8750,159.0625,0
1776970498.339,6.0932,-7.5776,6.6607,1.0621,0.9212,1.9502,-47.5500,-40.5000,-7.5000,9.5361,-2.6121,6.2058,0.2076,1.5569,1.7163,-14.7000,-14.7000,38.5500,17.8000,2.8300,-11.0600,0.7385,5.1771,1.6024,-46.7500,4.7500,38.0625,310.1875,69.8125,153.3750,0
1776970498.348,5.3295,-7.9583,5.6264,1.0072,1.0206,1.9793,-46.6500,-38.7000,-8.1000,9.0070,-3.4716,6.0406,0.2742,1.6395,1.6982,-16.5000,-14.4000,40.0500,18.6500,2.9700,-12.8100,1.1486,4.5499,1.8326,-46.7500,4.7500,38.0625,310.1875,69.8125,153.3750,0
1776970498.358,4.6184,-8.8801,6.2704,0.7325,1.3715,1.9652,-46.6500,-40.6500,-8.4000,8.7221,-3.9720,6.1363,0.2180,1.6193,1.6638,-16.5000,-14.4000,40.0500,10.6100,2.0400,-10.7900,1.6777,3.6554,1.9406,-46.7500,4.7500,38.0625,308.3125,71.0000,147.0000,0
1776970498.363,4.8291,-9.0214,6.3231,0.5300,1.3619,1.9929,-46.6500,-40.6500,-8.4000,8.4228,-4.8937,5.2265,0.1412,1.5410,1.5969,-16.5000,-14.4000,40.0500,10.6100,2.0400,-10.7900,1.6777,3.6554,1.9406,-46.7500,4.7500,38.0625,306.0625,71.6250,140.3125,0
1776970498.368,4.8291,-9.0214,6.3231,0.5300,1.3619,1.9929,-46.6500,-40.6500,-8.4000,8.4228,-4.8937,5.2265,0.1412,1.5410,1.5969,-16.5000,-14.4000,40.0500,5.2500,1.5300,-9.2000,2.2089,2.8525,2.0289,-50.0625,10.0000,27.5000,306.0625,71.6250,140.3125,0
1776970498.373,3.8978,-8.9495,5.5905,0.2246,0.9486,1.9425,-46.6500,-40.6500,-8.4000,7.9440,-4.8842,4.7309,0.1817,1.3470,1.4751,-16.5000,-14.4000,40.0500,5.2500,1.5300,-9.2000,2.2089,2.8525,2.0289,-50.0625,10.0000,27.5000,303.6250,71.8750,133.3125,0
1776970498.378,3.8978,-8.9495,5.5905,0.2246,0.9486,1.9425,-45.3000,-39.6000,-5.7000,7.9440,-4.8842,4.7309,0.1817,1.3470,1.4751,-12.6000,-15.0000,38.7000,-0.0300,0.1000,-9.9200,2.4096,2.6573,2.1118,-50.0625,10.0000,27.5000,303.6250,71.8750,133.3125,0
1776970498.386,2.7725,-10.4172,5.2696,-0.1415,0.4194,1.8143,-45.3000,-39.6000,-5.7000,7.6902,-6.3303,4.5418,0.1124,0.9779,1.2958,-13.3500,-14.2500,40.5000,0.7800,-3.4000,-12.0300,2.1468,2.6584,2.4064,-50.0625,10.0000,27.5000,301.3125,71.8125,126.0625,0
1776970498.391,1.5060,-12.0907,5.4516,-0.1415,0.4194,1.8143,-45.3000,-39.6000,-5.7000,7.0677,-7.0078,6.2560,0.2827,0.5545,1.0267,-13.3500,-14.2500,40.5000,0.7800,-3.4000,-12.0300,2.1468,2.6584,2.4064,-50.0625,10.0000,27.5000,299.6875,71.5625,119.3125,0
1776970498.398,1.5060,-12.0907,5.4516,-0.4892,0.0019,1.5886,-42.3000,-40.0500,-7.9500,6.9025,-5.9472,5.2672,-0.0573,0.2811,0.7578,-10.3500,-15.1500,40.3500,13.9100,-5.0600,-18.3300,1.3668,2.7467,2.3104,-50.0625,10.0000,27.5000,299.0625,71.0625,115.3125,0
1776970498.408,1.3455,-11.7196,5.4803,-0.9073,-0.0080,1.0635,-42.3000,-40.0500,-7.9500,7.2856,-4.9009,4.0941,-0.8186,-0.0218,0.5798,-11.5500,-15.0000,39.4500,8.3400,0.7100,-18.3300,-0.1778,1.8086,1.9395,-50.0625,10.0000,27.5000,299.0625,71.0625,115.3125,0
1776970498.413,3.4955,-9.6654,5.6455,-1.3832,0.1863,0.3086,-42.3000,-40.0500,-7.9500,7.2856,-4.9009,4.0941,-0.8186,-0.0218,0.5798,-11.5500,-15.0000,39.4500,8.3400,0.7100,-18.3300,-0.1778,1.8086,1.9395,-50.0625,10.0000,27.5000,299.0625,71.0625,115.3125,0
1776970498.418,3.4955,-9.6654,5.6455,-1.3832,0.1863,0.3086,-43.6500,-38.2500,-8.8500,7.0725,-4.3215,3.5482,-1.3651,-0.3179,0.3110,-11.5500,-15.0000,39.4500,2.5600,3.3600,-11.9800,-0.5367,-0.9054,2.2177,-47.1875,17.2500,14.1875,297.9375,69.7500,115.3750,0
1776970498.423,3.4309,-8.2456,4.8363,-1.7174,0.0386,-0.1274,-43.6500,-38.2500,-8.8500,7.0725,-4.3215,3.5482,-1.3651,-0.3179,0.3110,-11.5500,-15.0000,39.4500,2.5600,3.3600,-11.9800,-0.5367,-0.9054,2.2177,-47.1875,17.2500,14.1875,297.9375,69.7500,115.3750,0
1776970498.428,3.4309,-8.2456,4.8363,-1.7174,0.0386,-0.1274,-43.6500,-38.2500,-8.8500,6.7301,-3.7062,3.6105,-1.3163,-0.7048,0.0208,-11.8500,-15.0000,38.7000,-1.2600,3.2500,-6.2500,-0.0884,-1.6832,2.1729,-47.1875,17.2500,14.1875,296.4375,68.2500,116.2500,0
1776970498.432,3.5650,-7.8266,3.2489,-1.6577,-0.1868,-0.4599,-45.3000,-38.8500,-8.7000,6.7301,-3.7062,3.6105,-1.3163,-0.7048,0.0208,-11.8500,-15.0000,38.7000,-1.2600,3.2500,-6.2500,-0.0142,-1.6035,1.9493,-47.1875,17.2500,14.1875,295.0000,66.8750,117.0000,0
1776970498.439,3.2010,-6.5242,3.8882,-1.6577,-0.1868,-0.4599,-44.5500,-38.5500,-10.0500,5.9640,-2.3727,3.5123,-1.0080,-0.9473,-0.2441,-10.8000,-15.0000,38.7000,-1.7100,3.3300,-5.1700,-0.0142,-1.6035,1.9493,-47.1875,17.2500,14.1875,293.9375,65.8125,117.6875,0
1776970498.448,3.3423,-5.6886,2.6887,-1.3731,-0.5833,-0.7922,-44.7000,-39.4500,-11.1000,5.9472,-2.0782,3.7038,-0.4724,-1.1852,-0.5031,-13.5000,-15.4500,37.2000,-0.1400,3.8900,-6.3100,-0.1004,-1.3014,1.5010,-47.1875,17.2500,14.1875,293.9375,65.8125,117.6875,0
1776970498.458,2.8611,-5.7078,3.6416,-1.0664,-0.8484,-0.9785,-46.6500,-39.0000,-13.6500,5.6503,-2.1644,4.3503,0.1908,-1.4480,-0.7981,-12.6000,-15.0000,35.8500,2.2400,3.6500,-7.4300,-0.0262,-1.3952,1.0636,-47.1875,17.2500,14.1875,293.0000,64.9375,118.5625,0
1776970498.463,2.8611,-5.7078,3.6416,-0.6150,-1.2572,-1.1215,-46.6500,-39.0000,-13.6500,5.6503,-2.1644,4.3503,0.1908,-1.4480,-0.7981,-12.6000,-15.0000,35.8500,2.2400,3.6500,-7.4300,-0.0262,-1.3952,1.0636,-47.1875,17.2500,14.1875,292.1875,64.1250,119.8750,0
1776970498.468,2.6073,-5.7700,3.3878,-0.6150,-1.2572,-1.1215,-46.2000,-39.0000,-12.1500,5.5833,-2.6480,4.5753,0.7621,-1.6014,-1.0469,-13.5000,-14.7000,34.9500,3.3000,3.3900,-8.3400,0.0764,-1.7082,0.6196,-39.2500,20.3750,8.8750,292.1875,64.1250,119.8750,0
1776970498.473,2.6073,-5.7700,3.3878,-0.1314,-1.6558,-1.2564,-46.2000,-39.0000,-12.1500,5.5833,-2.6480,4.5753,0.7621,-1.6014,-1.0469,-13.5000,-14.7000,34.9500,3.3000,3.3900,-8.3400,0.0764,-1.7082,0.6196,-39.2500,20.3750,8.8750,291.5000,63.5000,121.7500,0
1776970498.478,2.4852,-6.2656,3.7733,0.2729,-2.1128,-1.4461,-46.2000,-39.0000,-12.1500,5.9592,-3.0502,3.8092,1.0115,-1.7634,-1.2745,-13.5000,-14.7000,34.9500,4.1300,3.0700,-9.2800,0.0949,-2.0082,0.1265,-39.2500,20.3750,8.8750,291.5000,63.5000,121.7500,0
1776970498.485,2.4852,-6.2656,3.7733,0.2729,-2.1128,-1.4461,-46.2000,-39.0000,-12.1500,5.9592,-3.0502,3.8092,1.0115,-1.7634,-1.2745,-14.8500,-15.7500,34.5000,4.3500,2.6900,-9.2300,0.2302,-2.6976,-0.3709,-39.2500,20.3750,8.8750,290.8125,62.8750,124.3125,0
1776970498.490,2.9113,-6.9504,3.0335,0.5633,-2.5061,-1.5841,-48.0000,-37.6500,-15.6000,6.7109,-3.2250,3.5314,1.1866,-1.8999,-1.5391,-14.8500,-15.7500,34.5000,4.3500,2.6900,-9.2300,0.2302,-2.6976,-0.3709,-39.2500,20.3750,8.8750,290.1875,62.1875,127.4375,0
1776970498.498,4.7285,-6.5434,3.0646,0.8540,-2.3329,-1.9979,-48.0000,-37.6500,-15.6000,6.9360,-2.5857,3.5602,1.3765,-2.0278,-1.7560,-15.3000,-15.1500,33.9000,4.4600,1.8400,-8.6200,0.2334,-3.1863,-0.7963,-39.2500,20.3750,8.8750,290.1875,62.1875,127.4375,0
1776970498.508,5.1930,-6.3303,4.1156,1.4597,-2.2084,-2.3558,-51.3000,-38.1000,-15.6000,7.4340,-2.3367,3.1627,1.6867,-2.0547,-1.9041,-16.6500,-15.0000,31.3500,4.1900,1.6300,-8.0900,0.1440,-3.5365,-1.1312,-39.2500,20.3750,8.8750,289.6875,61.4375,130.9375,0
1776970498.513,5.1930,-6.3303,4.1156,1.4597,-2.2084,-2.3558,-51.3000,-38.1000,-15.6000,7.4340,-2.3367,3.1627,1.6867,-2.0547,-1.9041,-16.6500,-15.0000,31.3500,4.1900,1.6300,-8.0900,0.1440,-3.5365,-1.1312,-39.2500,20.3750,8.8750,289.3125,60.5625,134.6250,0
1776970498.518,5.1475,-6.1196,2.2865,1.8138,-2.5548,-2.4144,-51.3000,-38.1000,-15.6000,7.7835,-2.8347,2.9832,2.0709,-2.1341,-1.9870,-17.7000,-14.5500,31.6500,4.4900,1.4700,-7.6000,0.0469,-3.7546,-1.3744,-32.5625,21.2500,6.2500,289.3125,60.5625,134.6250,0
1776970498.523,5.1475,-6.1196,2.2865,1.8138,-2.5548,-2.4144,-50.8500,-38.7000,-18.0000,7.7835,-2.8347,2.9832,2.0709,-2.1341,-1.9870,-17.7000,-14.2500,29.1000,4.4900,1.4700,-7.6000,0.0469,-3.7546,-1.3744,-32.5625,21.2500,6.2500,289.3125,60.5625,134.6250,0
1776970498.528,4.6376,-6.2393,2.7773,2.2737,-2.7939,-2.4837,-52.6500,-39.0000,-18.0000,7.3981,-3.0478,3.3016,2.4296,-2.3012,-2.0979,-17.7000,-14.2500,29.1000,5.5200,1.0600,-6.7900,0.0044,-3.8801,-1.5653,-32.5625,21.2500,6.2500,289.0000,59.6250,138.3125,0
1776970498.533,4.6376,-6.2393,2.7773,2.2737,-2.7939,-2.4837,-52.6500,-39.0000,-19.2000,7.3981,-3.0478,3.3016,2.4296,-2.3012,-2.0979,-17.7000,-14.2500,29.1000,5.5200,1.0600,-6.7900,0.0076,-3.9390,-1.7475,-32.5625,21.2500,6.2500,288.8125,58.5625,141.8750,0
1776970498.539,3.9576,-6.9264,2.3655,2.6710,-3.1594,-2.6033,-52.5000,-38.5500,-19.0500,7.1275,-3.6799,2.9353,2.7113,-2.4704,-2.2695,-17.7000,-14.2500,29.1000,6.2500,0.6200,-6.6600,0.0076,-3.9390,-1.7475,-32.5625,21.2500,6.2500,288.6875,57.4375,145.3750,0
1776970498.548,4.1132,-7.6112,2.4253,2.8775,-3.2428,-2.6987,-53.1000,-39.9000,-20.2500,7.5968,-3.9911,2.9521,3.0092,-2.5866,-2.4142,-20.7000,-16.0500,27.3000,7.0900,0.4400,-6.9100,-0.0055,-3.9575,-1.9624,-32.5625,21.2500,6.2500,288.6875,57.4375,145.3750,0
1776970498.558,4.7525,-8.3342,3.3160,2.5730,-3.1920,-2.7280,-53.1000,-39.9000,-20.2500,8.5353,-4.2473,3.1963,3.1469,-2.7451,-2.5130,-20.8500,-15.1500,28.2000,8.1700,0.8400,-7.6800,0.0044,-4.0230,-2.2558,-32.5625,21.2500,6.2500,288.7500,56.2500,148.8125,0
1776970498.563,4.7525,-8.3342,3.3160,2.5730,-3.1920,-2.7280,-53.7000,-41.2500,-19.0500,9.9695,-4.5801,3.8810,3.0201,-2.9974,-2.5037,-22.2000,-17.4000,27.9000,8.1700,0.8400,-7.6800,0.0044,-4.0230,-2.2558,-32.5625,21.2500,6.2500,288.7500,56.2500,148.8125,0
1776970498.568,5.8706,-9.3829,4.5945,2.0960,-3.1944,-2.7867,-53.7000,-41.2500,-19.0500,9.9695,-4.5801,3.8810,3.0201,-2.9974,-2.5037,-22.2000,-17.4000,27.9000,8.0300,1.1300,-8.2200,0.0905,-4.1092,-2.5416,-32.8750,19.0625,2.2500,288.8125,54.9375,152.1875,0
1776970498.573,7.0797,-10.3214,5.5713,2.0960,-3.1944,-2.7867,-54.6000,-40.2000,-20.7000,11.4132,-4.6232,4.8626,2.6918,-3.2743,-2.4680,-22.6500,-16.2000,26.1000,8.0300,1.1300,-8.2200,0.0905,-4.1092,-2.5416,-32.8750,19.0625,2.2500,288.8125,54.9375,152.1875,0
1776970498.578,7.0797,-10.3214,5.5713,1.6843,-3.2996,-2.8639,-54.6000,-40.2000,-20.7000,11.4132,-4.6232,4.8626,2.6918,-3.2743,-2.4680,-22.6500,-16.2000,26.1000,8.3500,1.1900,-8.4600,0.3109,-4.1004,-2.7663,-32.8750,19.0625,2.2500,288.8125,53.5625,155.3750,0
1776970498.583,7.7500,-10.1610,5.4396,1.6843,-3.2996,-2.8639,-55.9500,-40.8000,-21.6000,11.5448,-4.3527,4.4652,2.2681,-3.4264,-2.4578,-23.2500,-16.8000,25.9500,8.3500,1.1900,-8.4600,0.5225,-4.0721,-2.9692,-32.8750,19.0625,2.2500,288.7500,52.1875,158.2500,0
1776970498.589,7.7500,-10.1610,5.4396,1.2702,-3.3055,-3.0060,-55.9500,-40.8000,-21.6000,11.5448,-4.3527,4.4652,2.2681,-3.4264,-2.4578,-23.2500,-16.8000,25.9500,8.4700,1.1500,-9.1100,0.5225,-4.0721,-2.9692,-32.8750,19.0625,2.2500,288.5625,50.6875,160.8125,0
1776970498.598,7.3526,-8.9471,4.2186,1.0762,-3.2756,-3.0323,-55.9500,-40.8000,-21.6000,10.9678,-3.8044,3.9576,2.1589,-3.5146,-2.4403,-23.2500,-16.8000,25.9500,10.5300,0.5000,-10.6300,0.6458,-4.0164,-3.0292,-32.8750,19.0625,2.2500,288.3125,49.0625,163.0625,0
1776970498.608,7.2640,-7.7452,3.5817,1.0451,-3.4099,-2.9801,-56.2500,-41.5500,-21.9000,10.4459,-2.9281,3.6919,2.1738,-3.5373,-2.4096,-24.3000,-18.0000,25.2000,11.3700,0.3400,-11.2300,0.7058,-3.9477,-2.8863,-32.8750,19.0625,2.2500,288.3125,49.0625,163.0625,0
1776970498.613,7.3430,-7.1132,3.7230,1.0914,-3.5341,-2.9428,-56.2500,-41.5500,-21.9000,10.2520,-2.2458,3.1077,2.3017,-3.5573,-2.4248,-24.1500,-16.9500,24.3000,11.3700,0.3400,-11.2300,0.7058,-3.9477,-2.8863,-32.8750,19.0625,2.2500,287.8750,47.3125,165.0000,0
1776970498.618,7.3430,-7.1132,3.7230,1.0914,-3.5341,-2.9428,-56.2500,-41.5500,-21.9000,10.2520,-2.2458,3.1077,2.3017,-3.5573,-2.4248,-24.1500,-16.9500,24.3000,11.5900,0.3400,-11.4200,0.7189,-4.0644,-2.8089,-44.6875,26.3750,5.8750,287.8750,47.3125,165.0000,0
1776970498.623,7.5346,-7.0246,3.8355,1.1103,-3.7180,-2.9830,-57.9000,-42.0000,-24.9000,10.5249,-1.9944,3.1460,2.3830,-3.6212,-2.5023,-27.7500,-18.4500,24.0000,11.5900,0.3400,-11.4200,0.7189,-4.0644,-2.8089,-44.6875,26.3750,5.8750,287.3750,45.4375,166.7500,0
1776970498.628,7.5346,-7.0246,3.8355,1.1103,-3.7180,-2.9830,-57.9000,-42.0000,-24.9000,10.5249,-1.9944,3.1460,2.3830,-3.6212,-2.5023,-27.7500,-18.4500,24.0000,11.4400,0.6800,-11.4200,0.7145,-4.1866,-2.7129,-44.6875,26.3750,5.8750,287.3750,45.4375,166.7500,0
1776970498.633,7.7333,-7.4268,3.9792,1.1322,-3.8568,-3.0614,-57.9000,-42.0000,-24.6000,10.9295,-2.0446,3.3351,2.4557,-3.6825,-2.5807,-25.6500,-18.0000,24.1500,11.4400,0.6800,-11.4200,0.7570,-4.2422,-2.5918,-44.6875,26.3750,5.8750,310.8750,43.4375,168.2500,0
1776970498.639,7.7333,-7.4268,3.9792,1.1322,-3.8568,-3.0614,-57.9000,-43.5000,-24.9000,10.9295,-2.0446,3.3351,2.4557,-3.6825,-2.5807,-25.6500,-18.0000,24.1500,11.4000,0.9600,-11.4800,0.7570,-4.2422,-2.5918,-44.6875,26.3750,5.8750,309.1250,41.4375,169.3750,0
1776970498.648,7.8530,-7.5274,3.7158,1.0794,-3.8877,-3.1786,-57.9000,-43.5000,-24.9000,11.1618,-2.0518,2.8108,2.4283,-3.7510,-2.6260,-25.6500,-18.0000,24.1500,11.2200,1.0200,-11.5500,0.8476,-4.2488,-2.4424,-44.6875,26.3750,5.8750,309.1250,41.4375,169.3750,0
1776970498.659,7.9535,-7.4388,3.3830,1.0360,-3.9055,-3.2932,-58.9500,-43.5000,-25.6500,11.4108,-2.1500,2.3798,2.3374,-3.8403,-2.6742,-25.6500,-18.0000,24.1500,11.3400,1.0500,-11.8400,0.9632,-4.2182,-2.2646,-44.6875,26.3750,5.8750,307.5000,39.3125,170.2500,0
1776970498.663,8.0445,-7.5202,2.3176,0.9169,-3.7758,-3.4051,-60.3000,-44.5500,-25.0500,11.4922,-1.9417,1.9106,2.2479,-3.9186,-2.7227,-30.7500,-17.2500,21.6000,11.3400,1.0500,-11.8400,0.9632,-4.2182,-2.2646,-44.6875,26.3750,5.8750,307.5000,39.3125,170.2500,0
1776970498.668,8.0445,-7.5202,2.3176,0.9169,-3.7758,-3.4051,-60.3000,-44.5500,-25.0500,11.4922,-1.9417,1.9106,2.2479,-3.9186,-2.7227,-30.7500,-17.2500,21.6000,12.1100,1.0800,-12.6000,1.0734,-4.1877,-2.0649,-63.5625,38.6875,22.5625,305.9375,37.2500,170.8750,0
1776970498.673,8.6694,-7.3789,2.1284,0.8604,-3.5160,-3.5437,-60.9000,-43.5000,-26.4000,11.6909,-1.8340,1.4748,2.0598,-3.9426,-2.7699,-30.1500,-16.5000,22.8000,12.1100,1.0800,-12.6000,1.0734,-4.1877,-2.0649,-63.5625,38.6875,22.5625,305.9375,37.2500,170.8750,0
1776970498.678,8.8322,-6.8426,1.6305,0.8604,-3.5160,-3.5437,-60.9000,-43.5000,-26.4000,11.6909,-1.8340,1.4748,1.9241,-3.8896,-2.7856,-30.1500,-16.5000,22.8000,12.6200,0.9200,-13.0100,1.1497,-4.1790,-1.8391,-63.5625,38.6875,22.5625,304.5625,35.1250,171.1875,0
1776970498.685,8.8322,-6.8426,1.6305,0.9190,-3.3606,-3.6135,-60.9000,-43.5000,-26.4000,11.8657,-1.6975,0.9529,1.9241,-3.8896,-2.7856,-32.1000,-16.9500,20.4000,13.4900,0.4700,-13.5800,1.1312,-4.1746,-1.6221,-63.5625,38.6875,22.5625,303.3125,32.9375,171.4375,0
1776970498.690,9.0118,-6.1986,0.6153,0.9236,-3.2266,-3.5831,-60.9000,-43.5000,-26.4000,12.1003,-1.6783,0.5219,1.8093,-3.8133,-2.7808,-32.1000,-16.9500,20.4000,13.4900,0.4700,-13.5800,1.1312,-4.1746,-1.6221,-63.5625,38.6875,22.5625,302.1875,30.7500,171.6250,0
1776970498.699,9.4044,-5.8131,-0.1413,0.9236,-3.2266,-3.5831,-62.7000,-44.4000,-27.4500,12.0237,-1.5634,-0.2083,1.6862,-3.7140,-2.7699,-31.9500,-16.0500,20.5500,13.8800,0.0900,-13.3200,0.9676,-4.2455,-1.4530,-63.5625,38.6875,22.5625,302.1875,30.7500,171.6250,0
1776970498.708,9.7492,-5.4755,-0.4980,0.6265,-2.9902,-3.4680,-62.7000,-44.4000,-27.4500,11.7699,-1.4341,-0.9457,1.4938,-3.5714,-2.7656,-31.9500,-16.0500,20.5500,13.1900,0.3700,-12.5400,0.6850,-4.3797,-1.3483,-63.5625,38.6875,22.5625,301.1875,28.4375,171.8125,0
1776970498.713,9.7492,-5.4755,-0.4980,0.6265,-2.9902,-3.4680,-66.1500,-41.5500,-26.7000,11.7699,-1.4341,-0.9457,1.4938,-3.5714,-2.7656,-34.2000,-12.9000,18.6000,13.1900,0.3700,-12.5400,0.6850,-4.3797,-1.3483,-63.5625,38.6875,22.5625,300.2500,26.1250,172.1875,0
1776970498.719,9.6391,-5.6551,-0.9122,0.4738,-2.8882,-3.4331,-66.1500,-41.5500,-26.7000,11.5544,-1.2450,-1.4676,1.3355,-3.4206,-2.7845,-34.2000,-12.9000,18.6000,12.4000,0.7700,-11.6300,0.3578,-4.4375,-1.2883,-65.6875,43.3750,46.0000,300.2500,26.1250,172.1875,0
1776970498.724,9.6391,-5.6551,-0.9122,0.4738,-2.8882,-3.4331,-66.1500,-41.5500,-26.7000,11.5544,-1.2450,-1.4676,1.3355,-3.4206,-2.7845,-33.7500,-13.0500,17.7000,12.4000,0.7700,-11.6300,0.3578,-4.4375,-1.2883,-65.6875,43.3750,46.0000,299.3750,23.8125,172.6250,0
1776970498.729,9.4355,-5.3056,-1.2498,0.2577,-2.7352,-3.4464,-66.1500,-41.5500,-26.7000,11.2719,-1.0511,-1.6999,1.1826,-3.2927,-2.8392,-33.7500,-13.0500,17.7000,11.7200,1.7300,-10.3700,0.0971,-4.3535,-1.2708,-65.6875,43.3750,46.0000,299.3750,23.8125,172.6250,0
1776970498.734,9.4355,-5.3056,-1.2498,0.2577,-2.7352,-3.4464,-66.1500,-39.6000,-27.4500,11.2719,-1.0511,-1.6999,1.1826,-3.2927,-2.8392,-34.6500,-11.4000,16.5000,11.7200,1.7300,-10.3700,-0.0785,-4.1539,-1.2545,-65.6875,43.3750,46.0000,298.5625,21.6250,173.0625,0
1776970498.740,9.3613,-4.9536,-0.6225,0.1809,-2.5410,-3.4547,-66.1500,-39.6000,-27.4500,11.0157,-0.5962,-1.1037,1.0512,-3.1986,-2.8914,-35.7000,-10.9500,15.0000,11.6800,1.7900,-9.8400,-0.0785,-4.1539,-1.2545,-65.6875,43.3750,46.0000,297.8125,19.5000,173.5000,0
1776970498.749,9.3685,-3.0981,-0.2753,0.1140,-2.3113,-3.4667,-67.3500,-38.8500,-27.4500,10.3286,0.9529,-1.3719,0.7186,-3.1032,-2.8432,-35.7000,-10.9500,15.0000,11.1400,1.9200,-9.4600,-0.1887,-3.9128,-1.1945,-65.6875,43.3750,46.0000,297.0625,17.5625,173.8750,0
1776970498.759,9.0094,-1.1827,0.6752,-0.0256,-2.0491,-3.3409,-68.4000,-38.5500,-29.7000,9.5792,1.9082,-0.1676,0.4290,-3.0651,-2.6814,-35.7000,-9.4500,15.4500,10.9700,1.4200,-9.1300,-0.2160,-3.6652,-1.1541,-65.6875,43.3750,46.0000,297.0625,17.5625,173.8750,0
1776970498.764,9.0094,-1.1827,0.6752,-0.0256,-2.0491,-3.3409,-70.3500,-36.9000,-29.4000,9.5792,1.9082,-0.1676,0.4290,-3.0651,-2.6814,-35.7000,-9.4500,15.4500,10.9700,1.4200,-9.1300,-0.2160,-3.6652,-1.1541,-65.6875,43.3750,46.0000,296.3750,15.7500,174.3125,0
1776970498.769,9.8809,0.0287,2.0734,-0.0951,-1.9111,-3.1083,-70.3500,-36.9000,-29.4000,9.2464,3.7589,-0.9673,0.3336,-2.8677,-2.4181,-35.7000,-9.4500,15.4500,11.0600,-1.9100,-7.8500,-0.2509,-3.4656,-1.1476,-41.0000,43.0625,55.7500,296.3750,15.7500,174.3125,0
1776970498.774,9.8809,0.0287,2.0734,-0.0951,-1.9111,-3.1083,-71.1000,-36.9000,-29.7000,9.2464,3.7589,-0.9673,0.3336,-2.8677,-2.4181,-35.1000,-7.5000,12.4500,11.0600,-1.9100,-7.8500,-0.2509,-3.4656,-1.1476,-41.0000,43.0625,55.7500,296.3750,15.7500,174.3125,0
1776970498.779,10.3956,1.1899,-2.0039,0.0695,-1.9007,-2.8005,-71.1000,-36.9000,-29.7000,8.6311,2.4469,-3.4716,0.2467,-2.5775,-2.1352,-35.1000,-7.5000,12.4500,10.6200,-3.6400,-7.6000,-0.3251,-3.3478,-1.2315,-41.0000,43.0625,55.7500,295.6250,13.9375,174.6875,0
1776970498.787,9.0740,0.1867,-1.8507,-0.0045,-1.6459,-2.4139,-71.7000,-36.3000,-29.8500,7.8626,2.0279,-3.3591,0.5987,-2.3563,-1.9380,-35.7000,-7.2000,11.5500,10.8200,-3.1600,-6.6900,-0.5345,-3.3990,-1.3439,-41.0000,43.0625,55.7500,294.8125,12.1250,175.1875,0
1776970498.792,9.0740,0.1867,-1.8507,-0.0045,-1.6459,-2.4139,-71.7000,-36.3000,-29.8500,7.8626,2.0279,-3.3591,0.5987,-2.3563,-1.9380,-35.1000,-5.2500,11.4000,10.8200,-3.1600,-6.6900,-0.5345,-3.3990,-1.3439,-41.0000,43.0625,55.7500,294.1875,10.4375,175.7500,0
1776970498.799,8.4635,0.7566,-2.0806,0.0088,-1.4746,-2.1224,-71.7000,-36.3000,-29.8500,7.1060,2.2793,-2.9281,0.5537,-2.0334,-1.7371,-36.0000,-4.6500,9.3000,10.7200,-0.0400,-4.0500,-0.6523,-3.1176,-1.1290,-41.0000,43.0625,55.7500,293.5625,9.2500,175.9375,0
1776970498.809,7.7883,1.4653,-2.7342,0.0517,-1.2113,-1.8317,-71.1000,-32.5500,-30.1500,6.1339,2.5522,-3.5745,0.2659,-1.6702,-1.4791,-35.5500,-2.5500,9.9000,11.6000,-1.5800,-4.0400,-0.2062,-2.2591,-0.9828,-41.0000,43.0625,55.7500,293.5625,9.2500,175.9375,0
1776970498.814,7.8027,2.3631,-3.6224,-0.0674,-0.7989,-1.5050,-71.1000,-32.5500,-30.1500,6.1339,2.5522,-3.5745,-0.0352,-1.2161,-1.1807,-35.5500,-2.5500,9.9000,11.6000,-1.5800,-4.0400,-0.2062,-2.2591,-0.9828,-41.0000,43.0625,55.7500,293.5625,9.2500,175.9375,0
1776970498.819,7.8027,2.3631,-3.6224,-0.0674,-0.7989,-1.5050,-71.1000,-32.5500,-30.1500,5.5498,2.7414,-4.5681,-0.0352,-1.2161,-1.1807,-35.5500,-2.5500,9.9000,11.8400,-2.9800,-2.9400,0.1669,-1.8937,-0.6687,-28.5000,37.7500,51.0625,293.1875,8.2500,175.9375,0
1776970498.824,8.1116,2.6049,-4.0151,-0.0906,-0.4674,-1.0467,-73.0500,-32.2500,-30.4500,5.3678,2.8922,-4.7716,-0.0466,-0.7733,-0.8556,-35.5500,-2.5500,9.9000,11.8400,-2.9800,-2.9400,0.1669,-1.8937,-0.6687,-28.5000,37.7500,51.0625,293.1875,8.2500,175.9375,0
1776970498.829,8.1116,2.6049,-4.0151,-0.0906,-0.4674,-1.0467,-73.0500,-32.2500,-30.4500,5.3678,2.8922,-4.7716,-0.0466,-0.7733,-0.8556,-36.0000,-2.7000,9.0000,12.1000,-5.5600,0.9700,0.3120,-2.0453,-0.4200,-28.5000,37.7500,51.0625,292.8750,7.1250,175.8125,0
1776970498.834,7.9799,1.3815,-2.7845,-0.0959,-0.2523,-0.6083,-73.2000,-31.6500,-31.0500,6.0454,2.2625,-3.6488,0.0858,-0.3754,-0.5582,-36.0000,-2.7000,9.0000,12.1000,-5.5600,0.9700,0.0742,-1.8926,-0.2313,-28.5000,37.7500,51.0625,292.6875,6.0625,175.7500,0
1776970498.840,7.9799,1.3815,-2.7845,-0.0959,-0.2523,-0.6083,-73.2000,-31.6500,-31.0500,6.0454,2.2625,-3.6488,0.0858,-0.3754,-0.5582,-35.4000,-2.4000,9.3000,11.3100,-4.6900,2.1800,0.0742,-1.8926,-0.2313,-28.5000,37.7500,51.0625,292.6250,5.3750,176.0000,0
1776970498.849,7.8506,0.0239,-1.2785,-0.0701,-0.0608,-0.2785,-74.5500,-32.2500,-30.1500,6.8546,1.6209,-1.9441,0.0781,-0.0557,-0.3054,-37.2000,-0.4500,8.7000,9.8100,-2.9800,2.5400,-0.4407,-1.3188,-0.1134,-28.5000,37.7500,51.0625,292.6875,5.0000,176.4375,0
1776970498.859,7.6447,-1.2953,-0.3328,-0.1045,0.1841,-0.0671,-73.9500,-32.8500,-30.3000,7.5824,1.0965,-1.2282,-0.1338,0.2417,-0.1338,-35.7000,-0.1500,7.6500,8.3200,-1.9000,2.1700,-0.7407,-0.6490,0.0764,-28.5000,37.7500,51.0625,292.6875,5.0000,176.4375,0
1776970498.864,7.2281,-2.3272,-0.9337,-0.1988,0.4104,0.0312,-73.9500,-31.6500,-30.3000,7.8051,0.7183,-1.2689,-0.3552,0.4005,-0.0458,-35.7000,-0.1500,7.6500,8.3200,-1.9000,2.1700,-0.7407,-0.6490,0.0764,-28.5000,37.7500,51.0625,292.8750,4.9375,176.8125,0
1776970498.869,7.2281,-2.3272,-0.9337,-0.1988,0.4104,0.0312,-73.9500,-31.6500,-30.3000,7.8051,0.7183,-1.2689,-0.3552,0.4005,-0.0458,-37.0500,-0.3000,9.6000,6.2600,-1.0100,0.8600,-0.6763,-0.0578,0.2934,-25.6875,32.5625,50.0000,292.8750,4.9375,176.8125,0
1776970498.874,7.3334,-2.4876,-0.0359,-0.3813,0.6616,0.0706,-73.3500,-32.2500,-29.7000,7.6136,0.3855,-1.1779,-0.5438,0.4687,-0.0005,-37.0500,-0.3000,9.6000,6.2600,-1.0100,0.8600,-0.6763,-0.0578,0.2934,-25.6875,32.5625,50.0000,293.1250,5.1875,177.0625,0
1776970498.879,7.3334,-2.4876,-0.0359,-0.3813,0.6616,0.0706,-73.3500,-32.2500,-29.7000,7.6136,0.3855,-1.1779,-0.5438,0.4687,-0.0005,-37.0500,-0.3000,9.6000,6.1900,-0.9000,-0.0700,-0.5171,0.5138,0.4560,-25.6875,32.5625,50.0000,293.1250,5.1875,177.0625,0
1776970498.887,7.1635,-2.1117,-0.0096,-0.3389,0.7578,0.1348,-75.9000,-30.9000,-30.3000,7.2568,0.5650,-1.1492,-0.7911,0.5556,0.0698,-35.8500,0.3000,11.4000,6.5900,-0.8900,-1.1500,-0.4091,1.0461,0.5596,-25.6875,32.5625,50.0000,293.5000,5.7500,177.2500,0
1776970498.892,6.9647,-2.1572,-0.0359,-0.5678,0.9598,0.2398,-74.8500,-30.3000,-28.2000,7.0701,0.3519,-0.8906,-0.9363,0.7155,0.1743,-35.8500,0.3000,11.4000,6.5900,-0.8900,-1.1500,-0.4091,1.0461,0.5596,-25.6875,32.5625,50.0000,293.8750,6.5625,177.3750,0
1776970498.900,6.9623,-2.2577,0.0886,-0.5678,0.9598,0.2398,-74.8500,-30.3000,-28.2000,7.0701,0.3519,-0.8906,-0.9363,0.7155,0.1743,-35.1000,0.3000,8.8500,8.3900,-1.3500,-3.3600,-0.3414,1.4519,0.6490,-25.6875,32.5625,50.0000,294.3125,7.5000,177.5000,0
1776970498.909,6.8809,-2.3272,0.2945,-0.5809,1.0733,0.3914,-74.8500,-30.3000,-28.2000,7.0725,0.2777,-0.6129,-0.9683,0.8796,0.2907,-37.6500,2.2500,9.1500,9.1100,-1.3500,-4.4700,-0.3142,1.6864,0.7461,-25.6875,32.5625,50.0000,294.3125,7.5000,177.5000,0
1776970498.914,6.8809,-2.3272,0.2945,-0.5561,1.1914,0.5383,-76.9500,-31.6500,-27.3000,7.1730,0.2011,-0.3591,-0.9713,1.0387,0.4122,-37.6500,2.2500,9.1500,9.1100,-1.3500,-4.4700,-0.3142,1.6864,0.7461,-25.6875,32.5625,50.0000,294.8125,8.3750,177.6250,0
1776970498.919,6.7995,-2.6240,0.3663,-0.5561,1.1914,0.5383,-76.9500,-31.6500,-27.3000,7.1730,0.2011,-0.3591,-0.9713,1.0387,0.4122,-37.5000,0.9000,11.1000,9.4300,-1.4500,-5.0400,-0.3087,1.6995,0.8847,-25.0000,30.0000,50.5000,294.8125,8.3750,177.6250,0
1776970498.924,6.7995,-2.6240,0.3663,-0.5510,1.3278,0.6757,-76.9500,-31.6500,-27.3000,7.3167,-0.0263,-0.4238,-0.9792,1.1940,0.5124,-37.5000,0.9000,11.1000,9.4300,-1.4500,-5.0400,-0.3087,1.6995,0.8847,-25.0000,30.0000,50.5000,294.8125,8.3750,177.6250,0
1776970498.929,6.8690,-3.0861,0.3328,-0.5636,1.4309,0.7703,-76.9500,-31.6500,-27.3000,7.3167,-0.0263,-0.4238,-0.9792,1.1940,0.5124,-39.0000,0.9000,10.0500,8.7400,-1.6300,-5.4300,-0.3305,1.5643,1.0417,-25.0000,30.0000,50.5000,295.4375,9.2500,177.6875,0
1776970498.934,6.8690,-3.0861,0.3328,-0.5636,1.4309,0.7703,-76.2000,-31.2000,-27.7500,7.6327,-0.3089,-0.4357,-1.0307,1.3187,0.5726,-39.0000,0.9000,10.0500,8.7400,-1.6300,-5.4300,-0.4025,1.4028,1.1803,-25.0000,30.0000,50.5000,296.1250,10.0000,177.8125,0
1776970498.940,6.7301,-3.7373,0.4549,-0.6520,1.5399,0.8178,-76.2000,-31.2000,-27.7500,7.7716,-0.6823,-0.4717,-1.1530,1.3917,0.6081,-39.0000,0.9000,10.0500,7.7700,-1.5800,-4.9700,-0.4025,1.4028,1.1803,-25.0000,30.0000,50.5000,296.8750,10.6875,178.0000,0
1776970498.949,6.6702,-4.0941,0.5794,-0.7677,1.6377,0.8388,-78.0000,-30.3000,-27.4500,7.7716,-0.6823,-0.4717,-1.2982,1.4218,0.6158,-38.2500,0.4500,11.8500,6.8700,-1.3800,-4.4700,-0.5454,1.3112,1.2806,-25.0000,30.0000,50.5000,296.8750,10.6875,178.0000,0
1776970498.959,6.4404,-4.3215,0.7326,-0.9433,1.6955,0.8266,-76.5000,-31.0500,-26.1000,7.6207,-1.0726,-0.1149,-1.4799,1.4456,0.6075,-39.9000,2.2500,12.0000,6.2300,-1.0800,-4.0800,-0.7396,1.3668,1.3461,-25.0000,30.0000,50.5000,297.6875,11.4375,178.2500,0
1776970498.964,6.4404,-4.3215,0.7326,-0.9433,1.6955,0.8266,-76.9500,-32.4000,-24.7500,7.6207,-1.0726,-0.1149,-1.4799,1.4456,0.6075,-39.9000,2.2500,12.0000,6.2300,-1.0800,-4.0800,-0.7396,1.3668,1.3461,-25.0000,30.0000,50.5000,297.6875,11.4375,178.2500,0
1776970498.969,6.1268,-4.4293,0.8619,-1.1029,1.7914,0.7909,-76.9500,-32.4000,-24.7500,7.6423,-1.0439,0.0455,-1.6545,1.4610,0.5995,-39.1500,1.0500,12.7500,5.8400,-0.3900,-3.9200,-0.9348,1.5173,1.3854,-28.6875,28.3750,49.6875,298.5000,12.2500,178.6250,0
1776970498.974,6.1268,-4.4293,0.8619,-1.1029,1.7914,0.7909,-77.4000,-30.9000,-26.5500,7.6423,-1.0439,0.0455,-1.6545,1.4610,0.5995,-39.1500,1.0500,12.7500,5.8400,-0.3900,-3.9200,-0.9348,1.5173,1.3854,-28.6875,28.3750,49.6875,298.5000,12.2500,178.6250,0
1776970498.978,6.3997,-4.2569,1.1349,-1.2031,1.8684,0.7536,-77.4000,-30.9000,-26.5500,7.7285,-0.7278,0.2777,-1.7685,1.4813,0.5809,-40.2000,1.0500,13.5000,6.1000,-0.0900,-4.2600,-1.0974,1.7170,1.4148,-28.6875,28.3750,49.6875,299.3750,13.1875,179.0000,0
1776970498.983,6.3997,-4.2569,1.1349,-1.2031,1.8684,0.7536,-78.4500,-31.9500,-24.7500,7.7285,-0.7278,0.2777,-1.7685,1.4813,0.5809,-40.2000,1.0500,13.5000,6.1000,-0.0900,-4.2600,-1.1846,1.8871,1.4519,-28.6875,28.3750,49.6875,300.2500,14.2500,179.5000,0
1776970498.990,6.7971,-3.9025,1.4413,-1.2692,1.9060,0.7480,-78.4500,-31.9500,-24.7500,8.0661,-0.2969,0.5698,-1.8032,1.4973,0.5889,-40.2000,1.0500,13.5000,6.3600,0.1300,-4.6300,-1.1846,1.8871,1.4519,-28.6875,28.3750,49.6875,301.1875,15.3125,179.9375,0
1776970498.999,7.2808,-3.5985,1.8268,-1.2271,1.8985,0.7650,-78.4500,-31.9500,-24.7500,8.3797,0.2083,0.8978,-1.7437,1.4981,0.6043,-40.2000,1.0500,13.5000,7.0100,0.1100,-5.5800,-1.2043,2.0028,1.4933,-28.6875,28.3750,49.6875,301.1875,15.3125,179.9375,0
1776970499.009,7.6662,-3.3662,1.9992,-1.1290,1.8559,0.7962,-77.7000,-32.8500,-22.9500,8.8298,0.6177,0.9098,-1.6252,1.5026,0.6302,-40.5000,0.9000,15.4500,7.2100,0.0400,-6.0100,-1.2021,2.0791,1.5152,-28.6875,28.3750,49.6875,302.1250,16.5000,-179.5625,0
1776970499.014,7.6662,-3.3662,1.9992,-1.1290,1.8559,0.7962,-77.7000,-32.8500,-22.9500,8.8298,0.6177,0.9098,-1.6252,1.5026,0.6302,-40.5000,0.9000,15.4500,7.2100,0.0400,-6.0100,-1.2021,2.0791,1.5152,-28.6875,28.3750,49.6875,303.0625,17.6875,-179.1875,0
1776970499.019,8.2456,-3.2537,2.2458,-1.0003,1.8029,0.8380,-77.7000,-32.8500,-22.9500,9.1387,0.7087,0.6608,-1.4879,1.5106,0.6670,-41.4000,1.0500,14.8500,7.2100,0.0000,-6.2800,-1.1825,2.0911,1.5064,-30.5000,27.7500,49.3750,303.0625,17.6875,-179.1875,0
1776970499.024,8.2456,-3.2537,2.2458,-1.0003,1.8029,0.8380,-77.5500,-33.4500,-23.4000,9.1387,0.7087,0.6608,-1.4879,1.5106,0.6670,-41.7000,0.7500,14.8500,7.2100,0.0000,-6.2800,-1.1825,2.0911,1.5064,-30.5000,27.7500,49.3750,303.0625,17.6875,-179.1875,0
1776970499.029,8.5090,-3.2370,2.0016,-0.8615,1.6859,0.8903,-77.5500,-33.4500,-23.4000,9.2129,0.6512,0.4645,-1.3169,1.5047,0.6896,-41.7000,0.7500,16.6500,7.0700,0.3000,-6.7000,-1.1454,2.0628,1.4508,-30.5000,27.7500,49.3750,303.9375,18.8125,-178.8125,0
1776970499.034,8.5449,-3.4453,1.8364,-0.8615,1.6859,0.8903,-77.5500,-33.4500,-23.4000,9.2129,0.6512,0.4645,-1.3169,1.5047,0.6896,-43.5000,1.5000,15.3000,7.0700,0.3000,-6.7000,-1.0745,2.0159,1.3483,-30.5000,27.7500,49.3750,304.7500,19.9375,-178.4375,0
1776970499.040,8.5449,-3.4453,1.8364,-0.7797,1.5815,0.9603,-77.5500,-33.4500,-23.4000,9.2727,0.3974,0.4022,-1.1479,1.5391,0.7123,-43.5000,1.5000,15.3000,7.1100,0.5000,-6.8600,-1.0745,2.0159,1.3483,-30.5000,27.7500,49.3750,305.5000,21.0625,-178.1875,0
1776970499.049,8.5952,-3.5865,1.7837,-0.6291,1.4509,1.0251,-78.1500,-34.0500,-22.9500,9.3470,0.2251,0.6632,-0.9936,1.5812,0.7450,-43.5000,1.5000,15.3000,7.5100,0.5900,-7.1500,-0.9752,1.9799,1.2032,-30.5000,27.7500,49.3750,306.1875,22.1875,-177.8750,0
1776970499.060,8.2073,-3.5362,1.7166,-0.4596,1.4727,1.0901,-78.0000,-34.5000,-21.1500,9.1602,0.1867,0.2298,-0.8684,1.6188,0.8068,-41.1000,0.1500,17.8500,8.1200,0.6300,-7.6500,-0.8803,1.9439,1.0145,-30.5000,27.7500,49.3750,306.1875,22.1875,-177.8750,0
1776970499.064,8.4467,-3.6416,0.7470,-0.3112,1.4109,1.1932,-78.1500,-35.5500,-21.0000,9.1602,0.1867,0.2298,-0.8684,1.6188,0.8068,-42.6000,1.2000,19.0500,8.1200,0.6300,-7.6500,-0.8803,1.9439,1.0145,-30.5000,27.7500,49.3750,306.1875,22.1875,-177.8750,0
1776970499.069,8.4467,-3.6416,0.7470,-0.3112,1.4109,1.1932,-78.1500,-35.5500,-21.0000,8.4372,-0.1221,0.0958,-0.4522,1.6904,0.8335,-42.6000,1.2000,19.0500,10.2800,0.4600,-9.2300,-0.8127,1.8413,0.7309,-35.5000,26.2500,45.6875,306.6250,23.1875,-177.5625,0
1776970499.074,8.7987,-2.7581,2.5115,0.0847,1.5588,1.3123,-78.3000,-35.7000,-20.5500,8.4372,-0.1221,0.0958,-0.4522,1.6904,0.8335,-42.9000,0.4500,19.6500,10.2800,0.4600,-9.2300,-0.8127,1.8413,0.7309,-35.5000,26.2500,45.6875,306.6250,23.1875,-177.5625,0
1776970499.079,8.7987,-2.7581,2.5115,0.0847,1.5588,1.3123,-78.3000,-35.7000,-20.5500,11.0421,7.5369,2.1261,-0.1511,1.6441,0.8527,-42.9000,0.4500,19.6500,8.0000,6.9100,-12.7300,-0.7679,1.6504,0.3338,-35.5000,26.2500,45.6875,306.8750,24.1250,-177.1875,0
1776970499.087,15.0859,4.3670,4.3958,0.0189,2.2655,0.6880,-78.3000,-34.9500,-20.5500,18.6245,17.6572,-4.8698,-1.8823,2.1607,0.5116,-44.1000,0.4500,20.4000,-17.3700,31.3700,-28.0400,0.0447,2.6594,1.1639,-35.5000,26.2500,45.6875,307.5000,25.6250,-177.5000,0
1776970499.092,24.4137,6.8546,3.5865,0.0189,2.2655,0.6880,-78.3000,-34.9500,-20.5500,18.6245,17.6572,-4.8698,-1.8823,2.1607,0.5116,-44.1000,0.4500,20.4000,-17.3700,31.3700,-28.0400,0.0447,2.6594,1.1639,-35.5000,26.2500,45.6875,309.3125,29.8125,-178.6875,0
1776970499.100,24.4137,6.8546,3.5865,0.0282,2.5365,-0.6097,-79.0500,-35.4000,-19.8000,26.7672,23.6212,-27.9571,-2.7683,0.5161,-0.6720,-43.5000,-0.7500,20.5500,-2.6700,13.1200,-36.6900,0.3567,7.3926,3.5103,-35.5000,26.2500,45.6875,310.2500,31.4375,179.3750,0
1776970499.110,39.2254,3.7948,-11.1833,-0.1037,0.7746,-2.3502,-79.0500,-35.4000,-19.8000,27.4735,-0.2490,-17.1976,1.7389,-1.6835,-1.9257,-43.5000,-0.7500,20.5500,-1.6400,-21.2000,-19.8000,2.1293,2.9605,2.2733,-35.5000,26.2500,45.6875,310.2500,31.4375,179.3750,0
1776970499.115,22.0913,-6.7349,-11.4036,3.7502,-5.4710,-1.0698,-80.2500,-34.9500,-18.3000,14.0995,-0.1389,-6.2297,8.7312,-1.4615,-1.9947,-45.0000,1.5000,19.9500,-1.6400,-21.2000,-19.8000,2.1293,2.9605,2.2733,-40.2500,26.2500,42.8750,309.8750,29.1250,176.8125,0
1776970499.120,22.0913,-6.7349,-11.4036,3.7502,-5.4710,-1.0698,-80.2500,-34.9500,-18.3000,14.0995,-0.1389,-6.2297,8.7312,-1.4615,-1.9947,-45.0000,1.5000,19.9500,-4.2200,-31.3100,3.2300,4.3393,-4.2117,0.4636,-40.2500,26.2500,42.8750,309.8750,29.1250,176.8125,0
1776970499.125,6.7301,-0.1125,-7.4795,5.4564,-4.3289,-0.5617,-80.2500,-34.9500,-18.3000,9.2584,-8.1427,-0.6919,7.7210,0.5247,-1.7211,-44.8500,2.4000,19.3500,-4.2200,-31.3100,3.2300,4.3393,-4.2117,0.4636,-40.2500,26.2500,42.8750,309.1250,28.0000,174.3125,0
1776970499.130,6.7301,-0.1125,-7.4795,5.4564,-4.3289,-0.5617,-80.2500,-34.9500,-18.3000,9.2584,-8.1427,-0.6919,7.7210,0.5247,-1.7211,-44.8500,2.4000,19.3500,4.5100,-14.0500,0.7300,4.6546,-1.9308,-0.0480,-40.2500,26.2500,42.8750,309.1250,28.0000,174.3125,0
1776970499.135,5.4708,-5.2720,-5.1834,5.9069,-1.9577,0.1156,-79.8000,-34.9500,-19.3500,9.3446,-6.9695,-4.9847,4.9575,1.4032,-0.9795,-44.2500,1.5000,21.0000,4.5100,-14.0500,0.7300,1.5370,4.7298,0.5411,-40.2500,26.2500,42.8750,309.3125,30.6250,173.1250,0
1776970499.140,8.9902,-14.6669,-1.6951,5.9069,-1.9577,0.1156,-79.8000,-34.9500,-19.3500,9.3446,-6.9695,-4.9847,4.9575,1.4032,-0.9795,-44.2500,1.5000,21.0000,17.3100,-9.5700,-18.4000,1.5370,4.7298,0.5411,-40.2500,26.2500,42.8750,308.9375,31.8125,172.8125,0
1776970499.150,4.6591,-12.1314,-3.9217,4.1656,-0.1663,0.3882,-80.2500,-34.5000,-16.8000,13.6062,-14.6046,0.4453,1.9095,0.7799,-0.1868,-44.2500,1.5000,24.9000,9.7700,-13.2800,-12.2200,0.7559,2.1140,-0.5869,-40.2500,26.2500,42.8750,308.9375,31.8125,172.8125,0
1776970499.160,9.8713,0.3280,2.3272,2.4626,1.1391,0.6249,-79.5000,-34.9500,-16.0500,8.6048,-3.3016,-3.4572,0.0346,1.1687,0.0890,-44.8500,1.6500,23.2500,3.9500,-11.0700,-4.3000,0.0480,-1.6853,-0.0458,-40.2500,26.2500,42.8750,308.8750,30.8750,172.8750,0
1776970499.165,9.8713,0.3280,2.3272,1.7317,1.1826,0.6520,-79.0500,-34.9500,-14.8500,7.2137,3.9073,-1.7238,-0.8684,1.1295,0.3659,-44.8500,1.6500,23.2500,3.9500,-11.0700,-4.3000,0.0480,-1.6853,-0.0458,-40.2500,26.2500,42.8750,308.8750,30.8750,172.8750,0
1776970499.170,7.5824,0.0311,0.5578,0.5311,1.0651,0.8013,-79.0500,-34.9500,-14.8500,7.2137,3.9073,-1.7238,-0.8684,1.1295,0.3659,-44.8500,1.6500,23.2500,6.6300,8.5500,-11.2200,0.3763,0.3731,0.1462,-42.6875,34.1875,34.3750,308.8750,31.0625,172.6250,0
1776970499.174,7.5824,0.0311,0.5578,0.5311,1.0651,0.8013,-80.2500,-34.9500,-14.8500,7.7979,6.9887,-2.9425,-0.0850,1.1599,0.7141,-44.4000,2.7000,25.3500,6.6300,8.5500,-11.2200,0.3763,0.3731,0.1462,-42.6875,34.1875,34.3750,308.8750,31.0625,172.6250,0
1776970499.179,12.0764,5.1763,-0.8715,0.6901,1.4645,0.8777,-80.2500,-34.9500,-14.8500,7.7979,6.9887,-2.9425,-0.0850,1.1599,0.7141,-44.4000,2.7000,25.3500,5.2000,-1.0200,-7.3100,0.8519,0.1647,-0.0065,-42.6875,34.1875,34.3750,308.7500,31.1875,172.1250,0
1776970499.186,12.0764,5.1763,-0.8715,0.6901,1.4645,0.8777,-78.9000,-37.5000,-13.9500,9.0022,11.0229,-6.9552,1.0581,1.1740,0.8316,-44.8500,1.9500,26.1000,3.4200,-2.3800,-6.6000,0.8399,-1.0287,-0.1331,-42.6875,34.1875,34.3750,308.5625,30.6250,171.7500,0
1776970499.191,14.0348,9.7827,-5.6216,2.5319,-0.4333,0.8410,-78.9000,-37.5000,-13.9500,9.0022,11.0229,-6.9552,1.0581,1.1740,0.8316,-44.8500,1.9500,26.1000,3.4200,-2.3800,-6.6000,0.8399,-1.0287,-0.1331,-42.6875,34.1875,34.3750,308.4375,30.6250,171.7500,0
1776970499.200,10.0748,10.5393,-2.0016,3.0419,-1.3011,0.4207,-77.7000,-37.5000,-13.2000,6.2034,13.1944,-8.6024,2.1397,0.9334,0.2137,-45.1500,0.4500,26.4000,4.2600,-0.6400,-8.5300,0.0611,-0.0229,-0.1265,-42.6875,34.1875,34.3750,308.4375,30.9375,171.9375,0
1776970499.210,7.4172,6.2800,0.8978,2.6716,-0.1010,0.2862,-79.3500,-38.2500,-11.1000,4.4221,11.8345,-4.2162,2.7467,1.0083,-0.3922,-43.9500,0.3000,27.3000,3.9800,-1.0900,-8.7600,-0.2149,0.5683,-0.1505,-42.6875,34.1875,34.3750,308.4375,30.9375,171.9375,0
1776970499.215,7.4172,6.2800,0.8978,2.6716,-0.1010,0.2862,-79.3500,-38.2500,-11.1000,5.7365,5.4779,-2.8252,2.3062,1.1053,-0.3858,-44.5500,0.3000,27.7500,3.9800,-1.0900,-8.7600,-0.2149,0.5683,-0.1505,-42.6875,34.1875,34.3750,308.4375,30.9375,171.9375,0
1776970499.220,7.6543,0.0287,1.0439,1.8293,0.5886,0.3667,-79.3500,-38.2500,-11.1000,5.7365,5.4779,-2.8252,2.3062,1.1053,-0.3858,-44.5500,0.3000,27.7500,2.6600,0.6900,-7.7900,-0.2618,0.3949,-0.0284,-43.1875,34.5000,34.7500,308.4375,31.1250,172.0625,0
1776970499.225,7.6543,0.0287,1.0439,1.8293,0.5886,0.3667,-79.3500,-38.2500,-9.9000,7.7309,-0.5267,-1.1779,1.5116,0.9713,-0.3195,-44.5500,0.3000,27.7500,2.6600,0.6900,-7.7900,-0.2618,0.3949,-0.0284,-43.1875,34.5000,34.7500,308.4375,31.1250,172.0625,0
1776970499.230,7.7357,-4.4197,2.9425,1.0957,0.2803,0.3376,-79.3500,-38.2500,-9.9000,7.7309,-0.5267,-1.1779,0.4477,0.9361,-0.1972,-44.5500,0.3000,27.7500,1.7900,1.2900,-5.9200,-0.2083,0.3643,0.1833,-43.1875,34.5000,34.7500,308.6250,31.3125,172.0625,0
1776970499.235,7.7357,-4.4197,2.9425,1.0957,0.2803,0.3376,-79.3500,-38.2500,-9.9000,10.1849,-3.8188,1.2306,0.4477,0.9361,-0.1972,-45.1500,0.9000,27.9000,1.7900,1.2900,-5.9200,-0.3862,1.3570,0.3087,-43.1875,34.5000,34.7500,308.8750,32.0625,172.1250,0
1776970499.241,8.1882,-9.9695,3.7637,-0.1204,0.6219,0.3941,-79.3500,-38.2500,-9.9000,12.3421,-3.4764,1.4700,-0.6472,0.8412,0.1034,-45.4500,0.9000,29.2500,4.4800,-0.1200,-7.2100,-0.3862,1.3570,0.3087,-43.1875,34.5000,34.7500,309.3125,33.4375,172.1875,0
1776970499.250,8.3797,-8.8538,2.2577,-1.6260,1.3853,0.3850,-78.9000,-37.0500,-8.4000,11.6765,-2.1237,2.5379,-1.2915,0.7983,0.2257,-45.4500,0.9000,29.2500,7.2700,-0.2300,-9.9100,-0.5967,2.5176,0.3916,-43.1875,34.5000,34.7500,309.3125,33.4375,172.1875,0
1776970499.260,10.2472,-6.1220,3.2106,-1.1636,1.7158,0.3488,-79.0500,-38.5500,-9.3000,11.4467,0.2514,1.2833,-1.6068,0.9382,0.3493,-45.3000,1.5000,30.1500,10.3100,-5.2600,-12.5000,-0.3349,2.2198,0.2869,-43.1875,34.5000,34.7500,309.5625,34.6250,172.1875,0
1776970499.265,9.8474,-4.1037,2.7916,-1.1636,1.7158,0.3488,-79.0500,-37.6500,-9.3000,11.4467,0.2514,1.2833,-1.6068,0.9382,0.3493,-45.3000,1.5000,30.1500,10.3100,-5.2600,-12.5000,-0.3349,2.2198,0.2869,-43.1875,34.5000,34.7500,309.6875,35.0000,171.9375,0
1776970499.270,9.8474,-4.1037,2.7916,-1.2790,1.7952,0.3509,-79.0500,-37.6500,-9.3000,10.7332,2.6288,0.4956,-1.3949,0.8601,0.3070,-45.3000,1.5000,30.1500,5.7700,-0.7900,-9.0200,0.2236,0.6938,0.1854,-44.0000,34.8750,33.5625,309.6875,35.0000,171.9375,0
1776970499.275,11.2288,-0.9385,3.6200,-1.2790,1.7952,0.3509,-79.0500,-37.6500,-9.3000,10.7332,2.6288,0.4956,-1.3949,0.8601,0.3070,-45.3000,1.5000,30.1500,5.7700,-0.7900,-9.0200,0.2236,0.6938,0.1854,-44.0000,34.8750,33.5625,309.6875,35.0000,171.9375,0
1776970499.280,11.2288,-0.9385,3.6200,-1.0251,1.5407,0.3336,-77.4000,-39.0000,-11.1000,9.6750,4.7645,0.3496,-1.0267,0.6760,0.2886,-45.3000,1.5000,30.1500,6.6300,-1.6100,-8.6000,0.2476,0.1865,0.2203,-44.0000,34.8750,33.5625,309.7500,35.0625,171.6875,0
1776970499.286,10.3621,0.9840,3.3710,-0.5353,0.7802,0.3629,-78.0000,-38.1000,-8.7000,9.6750,4.7645,0.3496,-1.0267,0.6760,0.2886,-45.3000,1.5000,30.1500,6.6000,-1.5300,-7.8400,0.3709,0.2138,0.0676,-44.0000,34.8750,33.5625,309.7500,35.1875,171.4375,0
1776970499.291,10.3621,0.9840,3.3710,-0.5353,0.7802,0.3629,-78.0000,-38.1000,-8.7000,8.3199,5.5138,-0.7350,-0.6283,0.6571,0.3477,-45.1500,0.9000,31.5000,6.6000,-1.5300,-7.8400,0.3709,0.2138,0.0676,-44.0000,34.8750,33.5625,309.6875,35.1875,171.2500,0
1776970499.300,9.7540,1.9896,1.7023,-0.2822,0.7346,0.4343,-77.5500,-38.5500,-9.7500,8.2552,6.0693,-1.1301,-0.2249,0.6896,0.3685,-45.7500,-1.0500,30.1500,5.3000,-1.0200,-7.9400,0.3163,0.0425,0.0480,-44.0000,34.8750,33.5625,309.6875,35.1875,171.0625,0
1776970499.310,9.9982,2.3846,0.9936,0.3112,0.5596,0.4786,-77.5500,-38.5500,-9.7500,8.3199,5.5378,-2.1428,0.1769,0.7147,0.3581,-43.6500,-0.4500,31.5000,5.5600,-1.0100,-7.9900,0.3131,0.0033,0.0316,-44.0000,34.8750,33.5625,309.6875,35.1875,171.0625,0
1776970499.315,10.1155,1.3120,0.3519,0.5646,0.3571,0.5097,-77.5500,-38.5500,-9.7500,8.3199,5.5378,-2.1428,0.1769,0.7147,0.3581,-43.6500,-0.4500,31.5000,5.5600,-1.0100,-7.9900,0.3131,0.0033,0.0316,-44.0000,34.8750,33.5625,309.6875,35.1875,171.0625,0
1776970499.320,10.1155,1.3120,0.3519,0.5646,0.3571,0.5097,-76.9500,-39.4500,-7.6500,8.9399,4.4939,-2.2673,0.3741,0.7136,0.2912,-46.6500,0.1500,32.1000,5.3500,-1.2200,-8.1700,0.2214,0.0229,-0.0076,-45.7500,35.2500,30.5625,309.6250,35.1875,170.9375,0
1776970499.325,9.8593,0.0383,0.9313,0.4386,0.4239,0.5002,-76.9500,-39.4500,-7.6500,8.9399,4.4939,-2.2673,0.3741,0.7136,0.2912,-46.6500,0.1500,32.1000,5.3500,-1.2200,-8.1700,0.2214,0.0229,-0.0076,-45.7500,35.2500,30.5625,309.6250,35.1875,170.9375,0
1776970499.330,9.8593,0.0383,0.9313,0.4386,0.4239,0.5002,-76.9500,-39.4500,-7.6500,9.1578,3.1939,-1.8435,0.1924,0.6664,0.2713,-46.6500,0.1500,32.1000,5.5000,-0.9500,-7.6000,0.1331,0.1353,-0.0087,-45.7500,35.2500,30.5625,309.6250,35.3125,170.8750,0
1776970499.335,9.5553,-1.2234,1.3647,0.1330,0.3946,0.4370,-77.7000,-38.7000,-6.9000,9.1578,3.1939,-1.8435,0.1924,0.6664,0.2713,-46.6500,0.1500,32.1000,5.5000,-0.9500,-7.6000,0.0971,0.1734,0.0218,-45.7500,35.2500,30.5625,309.6250,35.3750,170.8125,0
1776970499.341,9.5553,-1.2234,1.3647,0.1330,0.3946,0.4370,-77.7000,-38.7000,-6.9000,9.1267,2.2290,-1.1516,-0.1919,0.6129,0.3008,-45.3000,0.7500,31.9500,4.9000,-0.9700,-8.0500,0.0971,0.1734,0.0218,-45.7500,35.2500,30.5625,309.6250,35.5625,170.7500,0
1776970499.350,9.2273,-2.0327,1.6807,-0.3243,0.5510,0.4477,-77.7000,-38.7000,-6.9000,9.3350,1.2402,-0.5004,-0.6496,0.6182,0.3909,-46.2000,-1.9500,32.1000,5.2300,-0.9700,-8.2000,-0.0251,0.3523,0.0164,-45.7500,35.2500,30.5625,309.6250,35.5625,170.7500,0
1776970499.360,8.9519,-3.0406,2.0901,-0.9585,0.7370,0.4930,-75.6000,-40.0500,-7.9500,9.6319,0.9313,-0.2011,-1.0451,0.6219,0.4847,-45.0000,-1.5000,31.6500,5.5600,-1.0500,-7.9400,-0.0720,0.5727,-0.0349,-45.7500,35.2500,30.5625,309.6875,35.8750,170.8125,0
1776970499.365,8.9232,-3.2561,1.5179,-1.2481,0.8969,0.4876,-75.6000,-40.0500,-7.9500,9.6319,0.9313,-0.2011,-1.0451,0.6219,0.4847,-45.0000,-1.5000,31.6500,5.5600,-1.0500,-7.9400,-0.0720,0.5727,-0.0349,-45.7500,35.2500,30.5625,309.6875,36.2500,170.8125,0
1776970499.370,9.1459,-2.7078,1.3288,-1.2481,0.8969,0.4876,-77.2500,-40.8000,-5.7000,9.6534,1.2426,-0.3519,-1.3265,0.6126,0.5372,-44.2500,-0.3000,33.0000,6.0500,-0.9300,-7.7100,-0.0698,0.6567,-0.0709,-46.8750,35.5625,30.1875,309.6875,36.2500,170.8125,0
1776970499.375,9.1459,-2.7078,1.3288,-1.3246,1.0869,0.4967,-77.2500,-40.8000,-5.7000,9.6989,1.8076,-0.0934,-1.3155,0.6097,0.5289,-44.2500,-0.3000,33.0000,6.0500,-0.9300,-7.7100,-0.0698,0.6567,-0.0709,-46.8750,35.5625,30.1875,309.6875,36.5625,170.8125,0
1776970499.380,9.6965,-2.3918,2.0877,-1.3246,1.0869,0.4967,-76.6500,-40.6500,-7.6500,9.6989,1.8076,-0.0934,-1.3155,0.6097,0.5289,-44.1000,-0.9000,33.3000,6.0400,-1.1100,-7.8900,-0.0382,0.5727,-0.0109,-46.8750,35.5625,30.1875,309.6875,36.5625,170.8125,0
1776970499.386,9.6965,-2.3918,2.0877,-1.1271,0.9553,0.4831,-76.5000,-41.5500,-6.4500,9.8857,2.2218,0.0024,-1.1327,0.5891,0.5103,-44.1000,-0.9000,33.3000,6.0400,-1.1100,-7.8900,-0.0142,0.4571,0.0207,-46.8750,35.5625,30.1875,309.7500,36.8125,170.7500,0
1776970499.391,9.5672,-2.2505,2.0159,-0.9041,0.7213,0.4615,-76.5000,-41.5500,-6.4500,9.8857,2.2218,0.0024,-1.1327,0.5891,0.5103,-44.1000,-0.9000,33.3000,6.1000,-0.9400,-7.9400,-0.0142,0.4571,0.0207,-46.8750,35.5625,30.1875,309.7500,37.0000,170.7500,0
1776970499.400,9.4475,-2.0518,2.0566,-0.6560,0.6744,0.4647,-76.5000,-39.6000,-6.7500,9.7612,2.3200,0.0599,-0.9324,0.5689,0.4871,-43.5000,-2.2500,33.0000,5.9800,-1.3700,-7.7600,0.0033,0.3534,0.0327,-46.8750,35.5625,30.1875,309.7500,37.0000,170.7500,0
1776970499.410,9.5960,-1.9872,2.1763,-0.3802,0.5049,0.4756,-75.9000,-40.6500,-7.6500,9.5600,2.2338,0.2610,-0.7085,0.5820,0.4655,-43.5000,-1.8000,33.7500,5.5100,-1.2000,-8.0500,0.0185,0.3033,0.0273,-46.8750,35.5625,30.1875,309.7500,37.1875,170.6875,0
1776970499.415,9.5960,-1.9872,2.1763,-0.3802,0.5049,0.4756,-75.9000,-40.6500,-7.6500,9.5289,2.1691,0.1844,-0.5316,0.5708,0.4522,-43.5000,-1.8000,33.7500,5.5100,-1.2000,-8.0500,0.0185,0.3033,0.0273,-46.8750,35.5625,30.1875,309.7500,37.1875,170.6875,0
1776970499.420,9.0237,-2.1500,2.0806,-0.2774,0.4658,0.4999,-75.9000,-40.6500,-7.6500,9.5289,2.1691,0.1844,-0.5316,0.5708,0.4522,-43.6500,-3.1500,34.9500,6.0500,-1.2600,-7.5500,0.0076,0.3043,0.0142,-46.8750,35.5625,28.5625,309.8125,37.3125,170.6875,0
1776970499.425,9.0237,-2.1500,2.0806,-0.2774,0.4658,0.4999,-75.9000,-40.6500,-7.6500,9.4691,2.1165,0.3926,-0.3784,0.5569,0.4173,-43.6500,-3.1500,34.9500,6.0500,-1.2600,-7.5500,0.0076,0.3043,0.0142,-46.8750,35.5625,28.5625,309.8125,37.3125,170.6875,0
1776970499.430,9.1171,-2.1883,2.1476,-0.1649,0.4546,0.5023,-75.9000,-42.6000,-6.9000,9.4691,2.1165,0.3926,-0.3784,0.5569,0.4173,-44.2500,-1.8000,33.7500,5.8800,-1.2800,-7.7000,-0.0076,0.3425,0.0153,-46.8750,35.5625,28.5625,309.8125,37.5000,170.6250,0
1776970499.435,9.1171,-2.1883,2.1476,-0.1649,0.4546,0.5023,-75.9000,-42.6000,-6.9000,9.4236,1.9058,0.3639,-0.3456,0.5391,0.4106,-44.2500,-1.8000,33.7500,5.8800,-1.2800,-7.7000,-0.0109,0.3578,0.0218,-46.8750,35.5625,28.5625,309.8750,37.6875,170.6250,0
1776970499.441,8.7340,-2.3487,2.4086,-0.1812,0.5881,0.4924,-75.9000,-42.6000,-6.9000,9.4236,1.9058,0.3639,-0.3456,0.5391,0.4106,-42.4500,-4.8000,34.5000,6.0100,-1.1200,-7.7800,-0.0109,0.3578,0.0218,-46.8750,35.5625,28.5625,309.8750,37.6875,170.6250,0
1776970499.450,9.1674,-2.6983,2.2793,-0.3022,0.5995,0.4770,-74.8500,-42.4500,-6.7500,9.3805,1.7693,0.1460,-0.4074,0.5287,0.4016,-42.4500,-4.8000,34.5000,6.0600,-0.9800,-7.6300,-0.0022,0.3589,0.0033,-46.8750,35.5625,28.5625,309.8750,37.9375,170.6250,0
1776970499.455,9.1674,-2.6983,2.2793,-0.3022,0.5995,0.4770,-74.8500,-42.4500,-6.7500,9.5505,1.3408,-0.2035,-0.5686,0.5209,0.4122,-42.4500,-4.8000,34.5000,6.0600,-0.9800,-7.6300,0.0142,0.3392,-0.0055,-46.8750,35.5625,28.5625,309.8750,38.0625,170.5625,0
1776970499.461,8.9136,-3.0311,1.8244,-0.4834,0.5939,0.4543,-74.7000,-42.1500,-6.1500,9.5505,1.3408,-0.2035,-0.5686,0.5209,0.4122,-44.1000,-4.6500,34.6500,6.0900,-1.0000,-7.8100,0.0142,0.3392,-0.0055,-46.8750,35.5625,28.5625,309.8750,38.0625,170.5625,0
1776970499.466,8.8657,-3.0646,1.5490,-0.4834,0.5939,0.4543,-75.4500,-42.1500,-6.6000,9.4954,1.0750,-0.3903,-0.7573,0.5007,0.4218,-44.1000,-4.6500,34.6500,5.8800,-1.0100,-7.6300,0.0251,0.3163,0.0044,-48.2500,34.5000,28.6875,309.8750,38.2500,170.5625,0
1776970499.471,8.8657,-3.0646,1.5490,-0.6840,0.7131,0.4226,-75.4500,-42.1500,-6.6000,9.4954,1.0750,-0.3903,-0.7573,0.5007,0.4218,-43.5000,-3.7500,36.3000,5.8800,-1.0100,-7.6300,0.0251,0.3163,0.0044,-48.2500,34.5000,28.6875,309.8750,38.2500,170.5625,0
1776970499.476,8.9064,-2.7940,1.6855,-0.6840,0.7131,0.4226,-75.4500,-42.1500,-6.6000,9.4667,1.3336,-0.3424,-0.9065,0.4724,0.4130,-44.1000,-3.7500,36.3000,5.8800,-1.0100,-7.6300,0.0524,0.2945,0.0055,-48.2500,34.5000,28.6875,309.8750,38.4375,170.5000,0
1776970499.481,8.9064,-2.7940,1.6855,-0.8116,0.8188,0.3885,-74.5500,-42.4500,-5.2500,9.4667,1.3336,-0.3424,-0.9558,0.4628,0.4154,-44.1000,-4.9500,34.9500,6.1100,-0.9900,-7.7300,0.0524,0.2945,0.0055,-48.2500,34.5000,28.6875,309.8750,38.4375,170.5000,0
1776970499.486,9.4140,-2.3176,1.9609,-0.8116,0.8188,0.3885,-74.5500,-42.4500,-5.2500,9.5912,1.7095,-0.2203,-0.9558,0.4628,0.4154,-42.0000,-2.5500,35.2500,6.1100,-0.9900,-7.7300,0.0567,0.3131,0.0175,-48.2500,34.5000,28.6875,309.8750,38.5625,170.5000,0
1776970499.491,9.4140,-2.3176,1.9609,-0.8188,0.7967,0.3898,-73.3500,-42.7500,-6.7500,9.6055,2.1907,-0.1939,-0.9257,0.4538,0.4386,-42.0000,-2.5500,35.2500,5.9200,-1.1500,-7.6900,0.0567,0.3131,0.0175,-48.2500,34.5000,28.6875,309.8750,38.5625,170.5000,0
1776970499.500,9.6175,-1.9944,1.8866,-0.7946,0.7197,0.4120,-73.6500,-43.3500,-8.4000,9.6055,2.1907,-0.1939,-0.9257,0.4538,0.4386,-43.3500,-5.7000,34.9500,6.2100,-1.0800,-7.6100,0.0578,0.2923,0.0164,-48.2500,34.5000,28.6875,309.8750,38.7500,170.4375,0
1776970499.505,9.8138,-1.9273,1.8244,-0.7946,0.7197,0.4120,-73.6500,-43.3500,-8.4000,9.7827,2.4397,-0.2107,-0.8319,0.4898,0.4514,-43.3500,-5.7000,34.9500,6.2100,-1.0800,-7.6100,0.0425,0.2913,0.0076,-48.2500,34.5000,28.6875,309.8750,38.8750,170.3750,0
1776970499.511,9.8138,-1.9273,1.8244,-0.7250,0.6771,0.4343,-74.8500,-44.4000,-6.4500,9.7755,2.4493,-0.3424,-0.6853,0.5023,0.4386,-43.3500,-5.7000,34.9500,6.2300,-1.1000,-7.6200,0.0425,0.2913,0.0076,-48.2500,34.5000,28.6875,309.8750,38.8750,170.3750,0
1776970499.516,9.4667,-1.8747,1.7023,-0.5063,0.5638,0.4309,-74.8500,-44.4000,-6.4500,9.7755,2.4493,-0.3424,-0.6853,0.5023,0.4386,-44.4000,-6.4500,36.7500,6.2300,-1.1000,-7.6200,0.0425,0.2913,0.0076,-48.2500,35.2500,26.6875,309.8750,39.0000,170.3750,0
1776970499.521,9.4667,-1.8747,1.7023,-0.5063,0.5638,0.4309,-74.7000,-44.5500,-7.3500,9.3494,2.1668,-0.1269,-0.5684,0.5103,0.4461,-44.4000,-6.4500,36.7500,6.0700,-1.2200,-7.5400,0.0338,0.2662,0.0087,-48.2500,35.2500,26.6875,309.8750,39.0000,170.3750,0
1776970499.526,9.2775,-1.7119,1.4533,-0.4277,0.5609,0.4674,-74.7000,-44.5500,-7.3500,9.3494,2.1668,-0.1269,-0.5684,0.5103,0.4461,-42.4500,-5.2500,36.6000,6.0700,-1.2200,-7.5400,0.0338,0.2662,0.0087,-48.2500,35.2500,26.6875,309.8750,39.1875,170.3125,0
1776970499.531,9.2775,-1.7119,1.4533,-0.4277,0.5609,0.4674,-74.7000,-44.5500,-7.3500,9.4786,1.9058,-0.1173,-0.5041,0.5486,0.4442,-42.4500,-5.2500,36.6000,6.2700,-1.1400,-7.5800,0.0109,0.2673,0.0076,-48.2500,35.2500,26.6875,309.8750,39.1875,170.3125,0
1776970499.536,9.3829,-2.2051,1.7717,-0.3094,0.5910,0.4764,-74.7000,-44.5500,-7.3500,9.4786,1.9058,-0.1173,-0.5041,0.5486,0.4442,-42.3000,-5.7000,36.7500,6.2700,-1.1400,-7.5800,-0.0142,0.2793,0.0055,-48.2500,35.2500,26.6875,309.9375,39.3125,170.3125,0
1776970499.541,9.3829,-2.2051,1.7717,-0.3094,0.5910,0.4764,-73.8000,-44.4000,-7.2000,9.2225,1.7573,-0.0862,-0.5060,0.5649,0.4453,-42.3000,-5.7000,36.7500,6.4200,-1.1000,-7.4900,-0.0142,0.2793,0.0055,-48.2500,35.2500,26.6875,309.9375,39.3125,170.3125,0
1776970499.550,9.0525,-2.2386,1.6783,-0.3523,0.6478,0.5002,-73.8000,-44.4000,-7.2000,9.4475,1.6927,-0.0096,-0.5393,0.5902,0.4639,-42.4500,-6.7500,35.5500,6.0000,-1.1500,-7.6400,-0.0229,0.2891,-0.0076,-48.2500,35.2500,26.6875,309.9375,39.5000,170.3125,0
1776970499.555,9.2560,-2.5331,2.2003,-0.4114,0.6310,0.5161,-73.8000,-44.4000,-7.2000,9.4475,1.6927,-0.0096,-0.5393,0.5902,0.4639,-42.4500,-6.7500,35.5500,6.0000,-1.1500,-7.6400,-0.0316,0.2727,-0.0076,-48.2500,35.2500,26.6875,309.9375,39.6250,170.3125,0
1776970499.561,9.2560,-2.5331,2.2003,-0.4114,0.6310,0.5161,-71.2500,-44.5500,-5.8500,9.6438,1.8699,-0.1341,-0.5945,0.6113,0.5105,-42.4500,-6.7500,35.5500,6.3000,-1.0000,-7.6200,-0.0316,0.2727,-0.0076,-48.2500,35.2500,26.6875,309.9375,39.6250,170.3125,0
1776970499.566,8.9711,-2.3176,1.8244,-0.4903,0.6598,0.5327,-71.2500,-44.5500,-5.8500,9.6438,1.8699,-0.1341,-0.5945,0.6113,0.5105,-42.4500,-6.7500,35.5500,6.3000,-1.0000,-7.6200,-0.0316,0.2727,-0.0076,-49.5000,35.2500,26.6875,309.9375,39.8125,170.3125,0
1776970499.571,8.9711,-2.3176,1.8244,-0.4903,0.6598,0.5327,-73.3500,-43.5000,-6.0000,9.2991,1.9609,-0.1844,-0.6206,0.6041,0.5177,-42.4500,-6.7500,35.5500,6.1800,-1.1500,-7.5200,-0.0153,0.3011,-0.0218,-49.5000,35.2500,26.6875,309.9375,39.8125,170.3125,0
1776970499.576,9.1123,-2.0638,1.8723,-0.5582,0.7181,0.5633,-73.3500,-43.5000,-6.0000,9.2991,1.9609,-0.1844,-0.6206,0.6041,0.5177,-41.8500,-7.9500,36.4500,6.1800,-1.1500,-7.5200,-0.0153,0.3011,-0.0218,-49.5000,35.2500,26.6875,309.9375,39.9375,170.3125,0
1776970499.581,9.0597,-1.8914,1.9010,-0.5582,0.7181,0.5633,-71.7000,-45.0000,-6.9000,9.1506,2.0710,-0.1484,-0.6800,0.6257,0.5423,-41.8500,-7.9500,36.4500,6.2900,-1.0400,-7.4900,-0.0098,0.2378,0.0011,-49.5000,35.2500,26.6875,309.9375,39.9375,170.3125,0
1776970499.586,9.0597,-1.8914,1.9010,-0.6089,0.7277,0.5846,-71.7000,-45.0000,-6.9000,9.1506,2.0710,-0.1484,-0.6800,0.6257,0.5423,-40.8000,-7.9500,37.2000,6.2900,-1.0400,-7.4900,0.0164,0.2269,-0.0164,-49.5000,35.2500,26.6875,309.9375,40.0625,170.3125,0
1776970499.591,9.3015,-1.7190,2.0997,-0.6089,0.7277,0.5846,-72.4500,-45.3000,-5.8500,9.3446,2.3750,-0.1772,-0.6739,0.6459,0.5630,-40.8000,-7.9500,37.2000,6.3400,-0.9200,-7.3700,0.0164,0.2269,-0.0164,-49.5000,35.2500,26.6875,309.9375,40.0625,170.3125,0
1776970499.600,9.3015,-1.7190,2.0997,-0.6286,0.7258,0.6190,-72.9000,-47.2500,-6.1500,9.6606,2.5450,0.2466,-0.6488,0.6398,0.5788,-42.7500,-9.0000,37.3500,6.1200,-0.8400,-7.4600,0.0273,0.2029,0.0033,-49.5000,35.2500,26.6875,309.9375,40.1250,170.3125,0
1776970499.605,9.6223,-1.8986,2.6288,-0.6241,0.6944,0.6187,-72.9000,-47.2500,-6.1500,9.6606,2.5450,0.2466,-0.6488,0.6398,0.5788,-41.5500,-8.7000,37.8000,6.1200,-0.8400,-7.4600,0.0316,0.1887,0.0044,-49.5000,35.2500,26.6875,309.9375,40.2500,170.3125,0
1776970499.612,9.7516,-2.5211,2.4421,-0.5812,0.5614,0.6344,-72.4500,-45.7500,-6.6000,9.9503,2.0901,0.3950,-0.5732,0.6035,0.5918,-41.5500,-8.7000,37.8000,6.1100,-0.8600,-7.4700,0.0316,0.1887,0.0044,-49.5000,35.2500,26.6875,309.9375,40.2500,170.3125,0
1776970499.616,9.7516,-2.5211,2.4421,-0.5812,0.5614,0.6344,-72.4500,-45.7500,-6.6000,9.9503,2.0901,0.3950,-0.5732,0.6035,0.5918,-41.5500,-8.7000,37.8000,6.1100,-0.8600,-7.4700,0.0371,0.2029,-0.0098,-49.7500,35.5625,25.8750,309.9375,40.3125,170.3125,0
1776970499.622,9.4547,-2.5139,1.8986,-0.4527,0.4911,0.6531,-72.4500,-45.7500,-6.6000,9.9192,1.7980,0.2251,-0.4271,0.6249,0.5820,-41.5500,-8.7000,37.8000,6.2100,-0.9900,-7.4700,0.0371,0.2029,-0.0098,-49.7500,35.5625,25.8750,309.9375,40.3125,170.3125,0
1776970499.626,9.4547,-2.5139,1.8986,-0.4527,0.4911,0.6531,-72.4500,-45.7500,-6.6000,9.5888,1.7765,0.5674,-0.3587,0.6643,0.5646,-41.5500,-8.7000,37.8000,6.2100,-0.9900,-7.4700,0.0175,0.2094,-0.0033,-49.7500,35.5625,25.8750,309.9375,40.4375,170.3125,0
1776970499.632,9.2273,-2.6217,2.1093,-0.3544,0.5745,0.6739,-71.7000,-46.9500,-6.6000,9.5888,1.7765,0.5674,-0.3587,0.6643,0.5646,-41.5500,-8.7000,37.8000,6.3200,-0.9200,-7.4000,0.0175,0.2094,-0.0033,-49.7500,35.5625,25.8750,309.9375,40.4375,170.3125,0
1776970499.636,9.2273,-2.6217,2.1093,-0.3544,0.5745,0.6739,-71.7000,-46.9500,-6.6000,9.7252,1.4653,0.6225,-0.3419,0.7051,0.5937,-40.6500,-9.7500,39.1500,6.3200,-0.9200,-7.4000,-0.0349,0.1833,0.0229,-49.7500,35.5625,25.8750,309.9375,40.5000,170.3750,0
1776970499.642,9.1315,-2.8850,2.3128,-0.2294,0.5729,0.7157,-71.7000,-46.9500,-6.6000,9.7252,1.4653,0.6225,-0.3419,0.7051,0.5937,-40.6500,-9.7500,39.1500,6.0700,-0.9900,-7.6200,-0.0349,0.1833,0.0229,-49.7500,35.5625,25.8750,309.9375,40.5000,170.3750,0
1776970499.651,8.8705,-3.0358,2.1476,-0.2494,0.5878,0.7368,-70.3500,-46.3500,-6.7500,9.6606,1.2713,0.4070,-0.3456,0.7109,0.6110,-42.6000,-10.2000,38.5500,6.3500,-1.0800,-7.4400,-0.0447,0.1516,0.0295,-49.7500,35.5625,25.8750,309.9375,40.6250,170.3750,0
1776970499.655,8.8705,-3.0358,2.1476,-0.2494,0.5878,0.7368,-70.3500,-46.3500,-6.7500,9.6606,1.2713,0.4070,-0.4085,0.7330,0.6299,-41.8500,-9.4500,37.8000,6.3500,-1.0800,-7.4400,-0.0644,0.1407,0.0109,-49.7500,35.5625,25.8750,310.0000,40.6875,170.3750,0
1776970499.662,8.7843,-3.1867,2.1715,-0.3267,0.6299,0.7501,-70.3500,-46.3500,-6.7500,9.4763,1.0439,0.4022,-0.4085,0.7330,0.6299,-41.8500,-9.4500,37.8000,6.1000,-1.3600,-7.5400,-0.0644,0.1407,0.0109,-49.7500,35.5625,25.8750,310.0000,40.6875,170.3750,0
1776970499.667,8.7843,-3.1867,2.1715,-0.3267,0.6299,0.7501,-70.3500,-46.3500,-6.7500,9.4499,1.0989,0.3232,-0.5196,0.7480,0.6606,-41.4000,-12.0000,38.7000,6.1000,-1.3600,-7.5400,-0.0720,0.1396,-0.0109,-49.7500,35.5625,26.6875,310.0000,40.7500,170.4375,0
1776970499.672,8.7843,-2.9975,2.0159,-0.4213,0.7200,0.7589,-70.0500,-48.3000,-6.4500,9.4499,1.0989,0.3232,-0.5196,0.7480,0.6606,-41.4000,-12.0000,38.7000,6.3100,-1.1300,-7.3500,-0.0720,0.1396,-0.0109,-49.7500,35.5625,26.6875,310.0000,40.7500,170.4375,0
1776970499.676,8.7843,-2.9975,2.0159,-0.4213,0.7200,0.7589,-70.0500,-48.3000,-6.4500,9.3948,1.4868,0.0311,-0.6113,0.7594,0.6909,-41.4000,-12.0000,38.7000,6.3100,-1.1300,-7.3500,-0.0894,0.1364,-0.0262,-49.7500,35.5625,26.6875,310.0000,40.8125,170.5000,0
1776970499.682,8.9184,-2.5546,1.9082,-0.4988,0.7610,0.7568,-69.1500,-49.5000,-5.7000,9.3948,1.4868,0.0311,-0.6113,0.7594,0.6909,-41.4000,-12.0000,38.7000,6.3300,-1.0400,-7.5300,-0.0894,0.1364,-0.0262,-49.7500,35.5625,26.6875,310.0000,40.8125,170.5000,0
1776970499.686,8.9184,-2.5546,1.9082,-0.4988,0.7610,0.7568,-69.1500,-49.5000,-5.7000,9.3805,1.6281,0.0096,-0.6432,0.7797,0.7029,-41.8500,-10.9500,40.0500,6.3300,-1.0400,-7.5300,-0.0993,0.1320,-0.0295,-49.7500,35.5625,26.6875,310.0000,40.8750,170.5625,0
1776970499.692,9.0261,-2.3631,1.7909,-0.5084,0.7695,0.7783,-67.9500,-48.0000,-5.5500,9.3805,1.6281,0.0096,-0.6432,0.7797,0.7029,-41.8500,-10.9500,40.0500,6.0900,-1.0600,-7.6700,-0.0993,0.1320,-0.0295,-49.7500,35.5625,26.6875,310.0000,40.8750,170.5625,0
1776970499.701,9.0501,-2.4277,1.7933,-0.4639,0.7815,0.8018,-69.0000,-48.4500,-5.1000,9.4643,1.5921,0.1245,-0.6115,0.8071,0.7144,-40.9500,-11.2500,39.1500,6.1100,-0.9700,-7.5000,-0.0818,0.2345,-0.0240,-49.7500,35.5625,26.6875,310.0000,40.9375,170.6250,0
1776970499.705,9.0501,-2.4277,1.7933,-0.4639,0.7815,0.8018,-69.0000,-48.4500,-5.1000,9.5098,1.6975,0.2610,-0.5303,0.8505,0.7240,-40.0500,-11.7000,39.3000,6.1100,-0.9700,-7.5000,-0.0807,0.3283,-0.0393,-49.7500,35.5625,26.6875,310.0625,41.1250,170.6875,0
1776970499.712,9.0668,-2.3511,2.0111,-0.4064,0.7687,0.8178,-68.7000,-48.4500,-4.3500,9.5098,1.6975,0.2610,-0.5303,0.8505,0.7240,-40.8000,-12.9000,40.3500,6.1300,-1.0800,-7.5900,-0.0807,0.3283,-0.0393,-49.7500,35.5625,26.6875,310.0625,41.1250,170.6875,0
1776970499.717,8.8514,-2.5283,1.8292,-0.4064,0.7687,0.8178,-68.7000,-48.4500,-4.3500,9.2632,1.4605,0.4788,-0.4469,0.8863,0.7362,-40.8000,-12.9000,40.3500,6.1300,-1.0800,-7.5900,-0.0807,0.3283,-0.0393,-49.5000,35.2500,24.3750,310.0625,41.3125,170.7500,0
1776970499.722,8.8514,-2.5283,1.8292,-0.3115,0.7693,0.8876,-67.3500,-50.5500,-4.5000,9.2632,1.4605,0.4788,-0.4469,0.8863,0.7362,-40.2000,-12.7500,39.9000,6.3000,-1.0400,-7.3700,-0.0796,0.3643,-0.0524,-49.5000,35.2500,24.3750,310.0625,41.3125,170.7500,0
1776970499.727,8.7724,-2.7007,2.2769,-0.2888,0.8505,0.9310,-67.3500,-50.5500,-4.5000,9.3422,1.3336,0.4429,-0.4375,0.9595,0.7765,-40.2000,-12.7500,39.9000,6.3000,-1.0400,-7.3700,-0.0796,0.3643,-0.0524,-49.5000,35.2500,24.3750,310.0000,41.5000,170.8125,0
1776970499.732,8.7724,-2.7007,2.2769,-0.2888,0.8505,0.9310,-67.3500,-50.5500,-4.5000,9.3422,1.3336,0.4429,-0.4375,0.9595,0.7765,-40.2000,-12.7500,39.9000,6.6400,-1.0600,-7.3800,-0.1254,0.3829,-0.0796,-49.5000,35.2500,24.3750,310.0000,41.5000,170.8125,0
1776970499.737,8.9974,-3.2537,1.6616,-0.3040,0.7821,1.0094,-67.3500,-50.5500,-4.5000,9.6582,0.6201,0.1125,-0.4061,0.9846,0.8252,-40.2000,-12.7500,39.9000,6.6400,-1.0600,-7.3800,-0.2345,0.3720,-0.0665,-49.5000,35.2500,24.3750,310.0625,41.6875,170.9375,0
1776970499.742,8.9974,-3.2537,1.6616,-0.3040,0.7821,1.0094,-66.3000,-50.4000,-4.8000,9.6582,0.6201,0.1125,-0.4061,0.9846,0.8252,-40.0500,-12.9000,40.3500,6.2300,-2.0300,-7.5700,-0.2345,0.3720,-0.0665,-49.5000,35.2500,24.3750,310.0625,42.0000,171.1250,0
1776970499.751,8.8202,-3.4357,1.9752,-0.3397,0.8471,1.0760,-66.3000,-50.4000,-4.8000,9.6702,0.5483,0.4549,-0.4378,1.0312,0.8865,-40.0500,-12.9000,40.3500,6.6400,-1.7200,-7.2100,-0.3076,0.4669,-0.1233,-49.5000,35.2500,24.3750,310.0625,42.0000,171.1250,0
1776970499.761,9.0261,-3.2944,1.8531,-0.3568,0.8815,1.0794,-66.1500,-51.0000,-5.7000,9.6247,0.8930,0.3903,-0.4631,1.0784,0.9379,-38.4000,-15.3000,42.7500,6.6500,-1.2600,-7.4300,-0.3196,0.6229,-0.2443,-49.5000,35.2500,24.3750,310.0000,42.3750,171.3750,0
1776970499.766,9.0716,-3.2801,2.6576,-0.3349,0.8942,1.1125,-66.1500,-51.0000,-5.7000,9.9742,1.0870,0.8930,-0.4090,1.0965,0.9563,-38.4000,-15.3000,42.7500,6.6500,-1.2600,-7.4300,-0.3196,0.6229,-0.2443,-49.5000,35.2500,24.3750,310.0000,42.3750,171.3750,0
1776970499.771,9.0716,-3.2801,2.6576,-0.3349,0.8942,1.1125,-65.1000,-51.4500,-3.4500,9.9742,1.0870,0.8930,-0.4090,1.0965,0.9563,-38.5500,-15.9000,43.9500,6.5000,-1.3800,-7.4400,-0.2989,0.6774,-0.2771,-50.8750,34.8750,23.5625,309.9375,42.7500,171.6250,0
1776970499.776,9.1363,-3.9768,2.9640,-0.2332,0.8079,1.1586,-65.1000,-51.4500,-3.4500,10.1514,0.4980,1.1612,-0.3778,1.0893,0.9558,-38.5500,-15.9000,43.9500,6.5000,-1.3800,-7.4400,-0.2989,0.6774,-0.2771,-50.8750,34.8750,23.5625,309.9375,42.7500,171.6250,0
1776970499.781,9.1363,-3.9768,2.9640,-0.2332,0.8079,1.1586,-65.1000,-51.0000,-3.7500,10.1514,0.4980,1.1612,-0.3778,1.0893,0.9558,-39.1500,-14.5500,43.3500,6.2200,-1.2300,-7.4900,-0.3305,0.6720,-0.2247,-50.8750,34.8750,23.5625,309.9375,43.1250,171.8750,0
1776970499.788,8.7149,-4.7238,2.9449,-0.3072,0.8042,1.1652,-65.1000,-51.0000,-3.7500,10.2304,0.0862,1.7190,-0.3632,1.1021,0.9465,-39.1500,-14.5500,43.3500,6.2700,-1.3300,-7.4500,-0.3622,0.7581,-0.2640,-50.8750,34.8750,23.5625,309.8750,43.5625,172.1875,0
1776970499.793,8.7747,-5.0829,3.1101,-0.3072,0.8042,1.1652,-64.0500,-51.6000,-2.8500,10.4028,-0.3807,1.8483,-0.4514,1.1103,0.9441,-39.1500,-14.5500,43.3500,6.2700,-1.3300,-7.4500,-0.3622,0.7581,-0.2640,-50.8750,34.8750,23.5625,309.8125,44.0625,172.5625,0
1776970499.801,8.7747,-5.0829,3.1101,-0.3296,0.8823,1.1506,-63.7500,-52.8000,-2.1000,10.4411,-1.1636,1.4820,-0.4954,1.1119,0.9737,-37.0500,-17.2500,43.0500,6.7500,-0.5600,-7.4400,-0.4549,0.8367,-0.3556,-50.8750,34.8750,23.5625,295.8750,44.5625,173.0625,0
1776970499.811,8.7197,-5.6240,2.7198,-0.3781,0.8769,1.1908,-62.7000,-53.4000,-2.7000,10.4890,-1.2689,1.2091,-0.6312,1.1261,1.0381,-35.7000,-17.7000,46.0500,6.8800,-1.2600,-7.4000,-0.6163,0.8792,-0.3774,-50.8750,34.8750,23.5625,295.8750,44.5625,173.0625,0
1776970499.816,8.7125,-5.7485,2.4780,-0.5841,0.9268,1.2327,-62.7000,-53.4000,-2.7000,10.4890,-1.2689,1.2091,-0.6312,1.1261,1.0381,-35.7000,-17.7000,46.0500,6.8800,-1.2600,-7.4000,-0.6163,0.8792,-0.3774,-50.8750,34.8750,23.5625,297.3125,45.1875,173.6875,0
1776970499.821,8.7125,-5.7485,2.4780,-0.5841,0.9268,1.2327,-62.4000,-52.9500,-3.7500,10.4076,-1.0439,1.2426,-0.7863,1.1205,1.0920,-35.7000,-17.7000,44.7000,7.0200,-0.7800,-7.3100,-0.8279,1.0614,-0.4036,-52.7500,34.0625,23.1875,297.3125,45.1875,173.6875,0
1776970499.826,8.6263,-5.4779,2.3846,-0.6979,0.9774,1.2417,-62.4000,-52.9500,-3.7500,10.4076,-1.0439,1.2426,-0.7863,1.1205,1.0920,-35.7000,-17.7000,44.7000,7.0200,-0.7800,-7.3100,-0.8279,1.0614,-0.4036,-52.7500,34.0625,23.1875,298.7500,45.7500,174.3125,0
1776970499.832,8.6119,-4.9129,2.2146,-0.6979,0.9774,1.2417,-61.0500,-53.1000,-2.8500,10.1131,-0.6225,1.1971,-0.8484,1.1261,1.1242,-36.7500,-18.1500,46.0500,6.8600,-1.0800,-7.2800,-0.8279,1.0614,-0.4036,-52.7500,34.0625,23.1875,298.7500,45.7500,174.3125,0
1776970499.838,8.6119,-4.9129,2.2146,-0.7029,1.0102,1.2609,-61.0500,-53.1000,-2.8500,10.1131,-0.6225,1.1971,-0.8484,1.1261,1.1242,-36.7500,-18.1500,46.0500,7.3400,1.0300,-7.4400,-0.8149,1.1661,-0.4134,-52.7500,34.0625,23.1875,300.1875,46.4375,174.9375,0
1776970499.843,8.5281,-4.2665,2.3631,-0.6672,1.0456,1.2809,-61.0500,-53.1000,-2.8500,9.7923,0.0958,1.1732,-0.8663,1.1506,1.1578,-34.5000,-19.0500,45.9000,7.3400,1.0300,-7.4400,-0.8149,1.1661,-0.4134,-52.7500,34.0625,23.1875,301.1250,47.2500,175.3125,0
1776970499.851,8.6766,-3.7350,2.3798,-0.6672,1.0456,1.2809,-59.7000,-54.6000,-3.0000,9.7013,0.3735,1.0678,-0.8857,1.1922,1.1727,-34.5000,-19.0500,45.9000,6.5400,-0.0800,-7.4200,-0.4854,1.4137,-0.2891,-52.7500,34.0625,23.1875,302.0000,48.0625,175.6875,0
1776970499.861,8.7245,-4.0941,2.1476,-0.6368,1.0464,1.3536,-59.7000,-54.6000,-3.0000,9.9120,-0.0790,0.8547,-0.8735,1.2393,1.2063,-33.0000,-20.2500,45.1500,6.5000,0.2100,-7.6600,-0.4854,1.4137,-0.2891,-52.7500,34.0625,23.1875,302.0000,48.0625,175.6875,0
1776970499.866,8.7245,-4.0941,2.1476,-0.6368,1.0464,1.3536,-59.7000,-54.6000,-3.0000,9.9120,-0.0790,0.8547,-0.8735,1.2393,1.2063,-33.0000,-20.2500,45.1500,6.5000,0.2100,-7.6600,-0.4854,1.4137,-0.2891,-52.7500,34.0625,23.1875,302.0000,48.0625,175.6875,0
1776970499.871,8.6694,-4.4987,2.5450,-0.7464,1.0858,1.4064,-59.5500,-55.0500,-4.3500,10.0963,-0.0814,1.2881,-0.9406,1.2678,1.2545,-33.0000,-22.0500,46.2000,6.1500,0.6200,-7.2200,0.0065,1.5108,-0.3643,-54.1875,33.0625,21.6875,302.3125,48.8750,175.8125,0
1776970499.876,8.6694,-4.4987,2.5450,-0.7464,1.0858,1.4064,-59.5500,-55.0500,-4.3500,10.0963,-0.0814,1.2881,-0.9406,1.2678,1.2545,-33.0000,-22.0500,46.2000,6.1500,0.6200,-7.2200,0.0065,1.5108,-0.3643,-54.1875,33.0625,21.6875,302.3125,48.8750,175.8125,0
1776970499.881,8.8825,-4.8123,2.9449,-0.8455,1.1916,1.4099,-56.2500,-55.6500,-4.9500,10.5632,-0.0024,1.6281,-1.0984,1.2899,1.2998,-33.3000,-22.5000,45.1500,4.6500,2.3900,-6.8800,0.3905,1.3777,-0.5291,-54.1875,33.0625,21.6875,302.2500,49.6875,175.8750,0
1776970499.889,9.7636,-5.0661,2.4421,-0.8455,1.1916,1.4099,-56.2500,-55.6500,-4.9500,11.1498,-0.2945,1.0463,-1.1887,1.2753,1.3390,-34.5000,-22.0500,46.9500,8.7800,-2.1600,-6.9500,0.5607,1.0701,-0.7810,-54.1875,33.0625,21.6875,302.1250,50.3125,176.0625,0
1776970499.894,9.7636,-5.0661,2.4421,-0.8649,1.2337,1.4048,-58.6500,-56.5500,-2.4000,11.1498,-0.2945,1.0463,-1.1887,1.2753,1.3390,-34.5000,-22.0500,46.9500,8.7800,-2.1600,-6.9500,0.5607,1.0701,-0.7810,-54.1875,33.0625,21.6875,302.3750,51.0000,176.3125,0
1776970499.902,10.1107,-5.3367,2.3727,-0.8671,1.2470,1.4272,-55.8000,-57.4500,-2.8500,11.6717,-0.3855,1.2522,-1.2119,1.2766,1.3848,-34.5000,-22.0500,46.9500,8.6600,-1.4000,-7.0100,0.1047,1.2545,-0.5760,-54.1875,33.0625,21.6875,303.3125,51.8750,177.0625,0
1776970499.911,10.7021,-6.2321,1.9273,-1.0086,1.3347,1.4077,-54.4500,-56.8500,-2.4000,12.6055,-1.2019,0.3112,-1.4077,1.3025,1.4344,-34.5000,-22.0500,46.9500,6.9100,-0.7100,-7.1400,-0.3556,1.5021,-0.8519,-54.1875,33.0625,21.6875,303.3125,51.8750,177.0625,0
1776970499.916,10.7021,-6.2321,1.9273,-1.0086,1.3347,1.4077,-54.4500,-56.8500,-2.4000,12.6055,-1.2019,0.3112,-1.4077,1.3025,1.4344,-34.5000,-22.0500,46.9500,6.9100,-0.7100,-7.1400,-0.3556,1.5021,-0.8519,-54.1875,33.0625,21.6875,304.5000,53.0625,177.8750,0
1776970499.921,11.5760,-7.0150,0.5028,-1.3563,1.4466,1.4666,-55.0500,-58.6500,-3.3000,13.2687,-2.0063,-0.8619,-1.5828,1.3187,1.4850,-31.3500,-25.2000,46.3500,7.0300,-1.8000,-7.4200,-0.5945,2.0802,-0.7647,-57.1875,31.1875,18.5625,304.5000,53.0625,177.8750,0
1776970499.926,11.5760,-7.0150,0.5028,-1.3563,1.4466,1.4666,-55.0500,-58.6500,-3.3000,14.0348,-1.5586,-1.7262,-2.0627,1.3643,1.5950,-31.3500,-25.2000,46.3500,7.0300,-1.8000,-7.4200,-0.5945,2.0802,-0.7647,-57.1875,31.1875,18.5625,305.6250,54.4375,178.6250,0
1776970499.932,12.2344,-6.5912,0.3472,-1.8485,1.7147,1.4949,-51.7500,-57.3000,-4.2000,14.0348,-1.5586,-1.7262,-2.0627,1.3643,1.5950,-28.9500,-26.2500,46.9500,5.7500,0.0300,-7.6700,-0.6959,2.5591,-0.5596,-57.1875,31.1875,18.5625,305.6250,54.4375,178.6250,0
1776970499.938,13.5464,-5.9711,-0.0790,-1.8485,1.7147,1.4949,-51.7500,-57.3000,-4.2000,14.6429,-1.0032,-2.6695,-2.7214,1.3387,1.7858,-28.9500,-26.2500,46.9500,5.6000,1.5500,-6.6400,-0.4058,2.4893,-0.6349,-57.1875,31.1875,18.5625,306.4375,55.8750,179.3125,0
1776970499.943,13.5464,-5.9711,-0.0790,-2.4523,2.0776,1.5103,-52.2000,-60.7500,-5.2500,14.6429,-1.0032,-2.6695,-2.7214,1.3387,1.7858,-29.1000,-27.9000,46.0500,5.6000,1.5500,-6.6400,-0.4058,2.4893,-0.6349,-57.1875,31.1875,18.5625,307.0000,57.1875,179.8750,0
1776970499.952,14.7698,-4.2760,-1.0439,-3.2610,2.3393,1.5897,-52.2000,-60.7500,-5.2500,14.2599,0.2634,-4.8650,-3.4368,1.2942,2.0209,-26.2500,-28.9500,46.8000,6.6100,0.0000,-6.9400,-0.1844,2.3518,-0.5640,-57.1875,31.1875,18.5625,307.0000,57.1875,179.8750,0
1776970499.961,13.8481,-2.4612,-1.4653,-4.0017,2.2346,1.8266,-49.5000,-59.2500,-7.5000,12.7539,1.4246,-3.5913,-3.9303,1.3054,2.1887,-26.2500,-28.9500,46.8000,6.5200,1.0900,-6.2700,-0.0382,2.2733,-0.3512,-57.1875,31.1875,18.5625,307.1875,58.4375,-179.7500,0
1776970499.966,11.8345,-1.2594,-0.4429,-4.0017,2.2346,1.8266,-49.5000,-59.2500,-7.5000,11.1690,2.8443,-1.5179,-3.8965,1.3773,2.2407,-26.2500,-28.9500,46.8000,6.5200,1.0900,-6.2700,-0.0382,2.2733,-0.3512,-57.1875,31.1875,18.5625,307.1875,58.4375,-179.7500,0
1776970499.971,11.8345,-1.2594,-0.4429,-3.7411,2.0904,1.9748,-49.5000,-59.2500,-7.5000,11.1690,2.8443,-1.5179,-3.8965,1.3773,2.2407,-26.2500,-28.9500,46.8000,7.2800,3.5100,-10.2200,0.0949,3.1590,-0.0589,-61.1875,29.0000,13.8750,307.1250,60.1875,-179.6875,0
1776970499.976,10.6781,-1.0630,0.5124,-3.7411,2.0904,1.9748,-49.5000,-59.2500,-7.5000,9.7300,3.4453,0.3112,-3.4224,1.4138,2.1493,-26.2500,-28.9500,46.8000,7.2800,3.5100,-10.2200,0.0949,3.1590,-0.0589,-61.1875,29.0000,13.8750,307.1250,60.1875,-179.6875,0
1776970499.981,10.6781,-1.0630,0.5124,-2.8141,1.8391,1.8929,-46.2000,-59.4000,-10.6500,9.7300,3.4453,0.3112,-3.4224,1.4138,2.1493,-21.7500,-33.3000,42.3000,9.8600,2.4900,-7.2600,0.2313,4.3153,0.1593,-61.1875,29.0000,13.8750,306.8125,62.5625,179.9375,0
1776970499.987,9.8689,-1.5730,0.4046,-1.9036,1.8090,1.9305,-46.2000,-59.4000,-10.6500,10.8314,3.0382,1.9465,-2.4960,1.5897,1.9481,-21.9000,-33.4500,41.8500,11.6500,0.6300,-8.3100,0.1636,4.8989,0.4385,-61.1875,29.0000,13.8750,306.4375,65.2500,179.3125,0
1776970499.993,9.8689,-1.5730,0.4046,-1.9036,1.8090,1.9305,-44.4000,-61.3500,-10.3500,10.8314,3.0382,1.9465,-2.4960,1.5897,1.9481,-21.9000,-33.4500,41.8500,11.6500,0.6300,-8.3100,0.1636,4.8989,0.4385,-61.1875,29.0000,13.8750,306.1875,68.2500,178.3750,0
1776970500.002,11.1809,-3.2585,5.0805,-1.1263,1.7363,1.8975,-42.4500,-60.6000,-11.1000,12.1793,2.6025,3.2274,-1.7920,1.6737,1.7440,-21.0000,-35.5500,42.3000,14.0100,1.2500,-9.4400,-0.0905,5.3887,0.6763,-61.1875,29.0000,13.8750,306.1875,68.2500,178.3750,0
1776970500.012,10.7571,-4.6735,5.6719,-0.4461,1.2833,1.8223,-42.6000,-61.5000,-11.5500,12.6558,1.5419,4.4532,-0.9625,1.6582,1.5972,-20.1000,-35.4000,42.4500,14.3900,2.4900,-9.8900,-0.0196,5.2502,0.8410,-61.1875,29.0000,13.8750,305.8125,71.1250,176.7500,0
1776970500.016,9.2249,-6.1818,4.8243,0.1919,1.3033,1.8607,-42.6000,-61.5000,-11.5500,11.9734,-0.4597,4.9225,-0.4096,1.6808,1.5319,-20.1000,-35.4000,42.4500,14.3900,2.4900,-9.8900,-0.0196,5.2502,0.8410,-61.1875,29.0000,13.8750,305.2500,73.7500,174.4375,0
1776970500.022,9.2249,-6.1818,4.8243,0.1919,1.3033,1.8607,-40.0500,-60.4500,-10.5000,11.9734,-0.4597,4.9225,-0.4096,1.6808,1.5319,-20.1000,-35.4000,42.4500,15.2800,1.3500,-9.4100,0.1833,4.7997,0.9152,-65.1875,28.6875,3.6875,305.2500,73.7500,174.4375,0
1776970500.026,7.6040,-6.6056,7.3789,0.1998,0.9491,2.1053,-40.0500,-60.4500,-10.5000,10.7500,-1.8771,5.9999,0.0658,1.9057,1.5154,-20.1000,-35.4000,42.4500,15.2800,1.3500,-9.4100,0.1833,4.7997,0.9152,-65.1875,28.6875,3.6875,304.8750,76.4375,171.1875,0
1776970500.031,7.6040,-6.6056,7.3789,0.1998,0.9491,2.1053,-39.7500,-60.1500,-9.9000,10.7500,-1.8771,5.9999,0.0658,1.9057,1.5154,-16.6500,-35.5500,42.7500,18.9800,-1.5000,-11.7100,-0.0567,4.9622,0.9577,-65.1875,28.6875,3.6875,304.8750,76.4375,171.1875,0
1776970500.036,6.7540,-8.7484,6.4069,0.5089,1.3584,2.0113,-39.7500,-60.1500,-9.9000,10.6015,-3.6799,6.1316,0.1079,1.8924,1.5737,-16.2000,-35.5500,44.4000,18.9800,-1.5000,-11.7100,-0.4156,4.3633,0.9207,-65.1875,28.6875,3.6875,304.7500,78.6875,167.0625,0
1776970500.042,6.7540,-8.7484,6.4069,0.5089,1.3584,2.0113,-39.7500,-60.1500,-9.9000,10.1466,-5.3678,5.8538,-0.0767,1.7051,1.5647,-16.2000,-35.5500,44.4000,13.7000,0.7800,-12.4200,-0.4156,4.3633,0.9207,-65.1875,28.6875,3.6875,304.8750,80.4375,162.5000,0
1776970500.052,6.1124,-10.2256,5.8227,0.2390,1.1858,2.0342,-36.6000,-58.0500,-9.0000,10.1466,-5.3678,5.8538,-0.0767,1.7051,1.5647,-14.2500,-36.1500,43.5000,12.2500,0.6700,-12.4600,-0.6436,3.4579,0.7298,-65.1875,28.6875,3.6875,304.8750,80.4375,162.5000,0
1776970500.062,4.4293,-11.1163,6.6726,-0.1415,1.2652,1.8884,-36.6000,-58.0500,-9.0000,9.1243,-5.9951,6.1268,-0.6864,1.3246,1.3829,-14.7000,-35.7000,45.3000,10.8500,0.0100,-12.4700,-1.1846,3.3848,0.8094,-65.1875,28.6875,3.6875,305.3125,82.0625,156.1250,0
1776970500.066,4.1276,-11.3270,6.2130,-0.5852,0.9739,1.6076,-36.6000,-58.0500,-9.0000,8.5856,-6.8809,6.1244,-0.6864,1.3246,1.3829,-12.4500,-36.4500,43.5000,10.8500,0.0100,-12.4700,-1.1846,3.3848,0.8094,-65.1875,28.6875,3.6875,305.3125,82.0625,156.1250,0
1776970500.072,2.7557,-10.3693,5.5522,-0.5852,0.9739,1.6076,-33.7500,-57.4500,-10.6500,7.5609,-5.8299,6.2944,-0.6955,1.0776,1.2119,-12.4500,-36.4500,43.5000,1.4900,-0.1700,-10.8900,-1.5108,2.8678,1.1934,-65.1875,30.1875,-9.5000,305.6875,83.1250,176.1875,0
1776970500.076,2.7557,-10.3693,5.5522,-0.7855,0.7093,1.4405,-33.7500,-57.4500,-10.6500,7.5609,-5.8299,6.2944,-0.6955,1.0776,1.2119,-12.4500,-36.4500,43.5000,1.4900,-0.1700,-10.8900,-1.5108,2.8678,1.1934,-65.1875,30.1875,-9.5000,305.6875,83.1250,176.1875,0
1776970500.081,1.7717,-10.5297,5.1020,-0.7855,0.7093,1.4405,-33.7500,-57.4500,-10.6500,6.6104,-6.5362,5.4516,-0.9462,0.6859,1.0195,-12.4500,-36.4500,43.5000,-1.1200,-1.4500,-11.5300,-1.3374,1.8762,1.8620,-65.1875,30.1875,-9.5000,305.5625,83.3125,175.2500,0
1776970500.088,1.7717,-10.5297,5.1020,-1.0427,0.6331,1.2505,-33.1500,-58.0500,-9.3000,6.6104,-6.5362,5.4516,-0.9462,0.6859,1.0195,-9.3000,-36.0000,45.9000,17.6900,-3.6800,-11.1800,-1.7650,2.1740,2.0344,-65.1875,30.1875,-9.5000,305.6250,83.1875,174.1875,0
1776970500.093,0.5578,-10.5608,3.9887,-0.9912,0.4687,0.9225,-31.6500,-57.6000,-7.5000,5.8826,-5.6431,6.9504,-0.5353,0.5132,0.6235,-9.3000,-36.0000,45.9000,17.6900,-3.6800,-11.1800,-1.7650,2.1740,2.0344,-65.1875,30.1875,-9.5000,306.1250,82.5000,111.1875,0
1776970500.102,1.4317,-8.9759,5.3271,-1.0813,0.7866,0.4269,-32.2500,-57.4500,-7.5000,5.0374,-4.0414,5.8179,-0.7202,0.3770,0.3629,-9.3000,-35.5500,46.9500,15.2600,3.1600,-16.6600,-2.9343,1.9646,2.3464,-65.1875,30.1875,-9.5000,306.1250,82.5000,111.1875,0
1776970500.112,1.9704,-7.3813,5.4708,-1.1370,0.5875,-0.0045,-30.7500,-56.2500,-8.8500,5.4516,-3.5841,4.3048,-0.9976,0.1996,0.1156,-8.4000,-33.1500,45.0000,6.7700,6.4100,-15.6900,-2.8187,-0.3818,2.5787,-65.1875,30.1875,-9.5000,306.3125,81.0625,110.5625,0
1776970500.117,1.9704,-7.3813,5.4708,-1.1370,0.5875,-0.0045,-30.7500,-56.2500,-8.8500,5.4516,-3.5841,4.3048,-0.9976,0.1996,0.1156,-8.2500,-34.5000,46.6500,6.7700,6.4100,-15.6900,-2.8187,-0.3818,2.5787,-65.1875,30.1875,-9.5000,306.3125,81.0625,110.5625,0
1776970500.122,3.1412,-6.9695,4.8291,-1.0674,0.4503,-0.3523,-30.7500,-56.2500,-8.8500,5.9448,-2.5809,3.8523,-1.0419,-0.1482,-0.1354,-8.2500,-34.5000,46.6500,3.4800,5.0600,-10.7000,-1.3199,-2.1118,2.4064,-64.1875,33.5625,-12.0625,305.5625,79.3750,114.6250,0
1776970500.127,3.1412,-6.9695,4.8291,-1.0674,0.4503,-0.3523,-30.4500,-56.1000,-10.0500,5.9448,-2.5809,3.8523,-1.0419,-0.1482,-0.1354,-7.3500,-34.2000,45.0000,3.4800,5.0600,-10.7000,-1.3199,-2.1118,2.4064,-64.1875,33.5625,-12.0625,305.5625,79.3750,114.6250,0
1776970500.132,3.1891,-6.5050,4.4173,-1.1000,0.0242,-0.6680,-31.8000,-55.0500,-9.9000,5.9592,-2.2817,3.5171,-0.7965,-0.5566,-0.4303,-7.3500,-34.2000,45.0000,0.5800,5.2700,-7.7900,-0.2803,-2.9823,2.3878,-64.1875,33.5625,-12.0625,304.0625,77.4375,119.0625,0
1776970500.137,3.1891,-6.5050,4.4173,-1.1000,0.0242,-0.6680,-31.8000,-55.0500,-9.9000,5.9592,-2.2817,3.5171,-0.7965,-0.5566,-0.4303,-7.3500,-34.2000,45.0000,0.5800,5.2700,-7.7900,0.4931,-2.9725,1.8959,-64.1875,33.5625,-12.0625,302.3125,75.6875,122.4375,0
1776970500.143,2.8252,-6.6008,3.9409,-1.0118,-0.5921,-0.9582,-31.5000,-55.5000,-10.6500,5.5306,-2.5043,3.5865,-0.3565,-0.9779,-0.6976,-7.3500,-34.2000,45.0000,-0.7900,2.2400,-5.0300,0.4931,-2.9725,1.8959,-64.1875,33.5625,-12.0625,300.6250,74.1875,124.8750,0
1776970500.152,2.3200,-7.1299,3.2848,-0.9435,-1.1730,-1.2105,-31.5000,-55.5000,-10.6500,5.7485,-3.7086,3.5554,-0.0408,-1.3582,-0.9094,-8.1000,-32.7000,45.7500,-0.5900,0.7700,-4.9800,0.7407,-2.6736,1.5490,-64.1875,33.5625,-12.0625,300.6250,74.1875,124.8750,0
1776970500.162,1.3048,-7.7620,2.7845,-0.7615,-1.7941,-1.5023,-31.5000,-55.5000,-10.6500,5.4660,-4.9680,4.2976,0.1258,-1.7677,-1.1389,-8.2500,-32.5500,45.1500,-0.0800,-0.2300,-5.5100,0.7287,-2.3769,1.1246,-64.1875,33.5625,-12.0625,299.1875,72.8750,126.8750,0
1776970500.167,1.3048,-7.7620,2.7845,-0.7615,-1.7941,-1.5023,-32.5500,-54.0000,-9.1500,5.4660,-4.9680,4.2976,0.1258,-1.7677,-1.1389,-7.8000,-33.1500,43.9500,-0.0800,-0.2300,-5.5100,0.7287,-2.3769,1.1246,-64.1875,33.5625,-12.0625,297.9375,71.7500,129.0625,0
1776970500.172,1.7549,-7.0533,3.6392,-0.1316,-2.0691,-1.8516,-32.5500,-54.0000,-9.1500,5.2601,-4.9057,4.4221,0.3059,-1.9902,-1.3763,-7.8000,-33.1500,43.9500,0.6400,-0.6000,-6.3400,0.6785,-2.4391,0.6970,-58.5000,39.7500,-6.0000,297.9375,71.7500,129.0625,0
1776970500.177,1.7549,-7.0533,3.6392,-0.1316,-2.0691,-1.8516,-32.5500,-54.0000,-9.1500,5.2601,-4.9057,4.4221,0.3059,-1.9902,-1.3763,-9.6000,-31.9500,45.0000,0.6400,-0.6000,-6.3400,0.6785,-2.4391,0.6970,-58.5000,39.7500,-6.0000,297.0000,70.6250,131.9375,0
1776970500.182,1.9800,-7.5657,2.0614,0.3794,-2.5580,-2.0792,-32.5500,-54.0000,-9.1500,5.2912,-4.5466,3.8666,0.3368,-2.1522,-1.5138,-9.6000,-31.9500,45.0000,3.1200,-0.2900,-7.6200,0.4342,-2.7620,0.3142,-58.5000,39.7500,-6.0000,297.0000,70.6250,131.9375,0
1776970500.188,2.2960,-6.2177,1.6185,0.8311,-2.7931,-2.3553,-33.7500,-52.8000,-9.1500,4.8028,-3.9433,2.7821,0.5646,-2.2383,-1.6923,-9.7500,-30.7500,44.8500,3.8200,-0.1600,-7.7500,0.2476,-3.1230,0.0567,-58.5000,39.7500,-6.0000,296.2500,69.4375,135.1875,0
