timestamp,thigh_acc_x,thigh_acc_y,thigh_acc_z,thigh_gyro_x,thigh_gyro_y,thigh_gyro_z,thigh_mag_x,thigh_mag_y,thigh_mag_z,shank_acc_x,shank_acc_y,shank_acc_z,shank_gyro_x,shank_gyro_y,shank_gyro_z,shank_mag_x,shank_mag_y,shank_mag_z,foot_acc_x,foot_acc_y,foot_acc_z,foot_gyro_x,foot_gyro_y,foot_gyro_z,foot_mag_x,foot_mag_y,foot_mag_z,foot_euler_x,foot_euler_y,foot_euler_z,perturbation_event
1776972105.244,8.2289,2.0303,-0.9385,1.0056,-0.0906,-0.3126,-86.7000,21.3000,2.4000,8.1570,-4.1922,-4.0151,0.1847,2.3883,-2.9175,-13.3500,-48.0000,-111.7500,12.1100,3.9300,-7.1000,0.5629,-3.5910,-2.1402,-64.0000,-15.0625,13.0000,229.0625,49.5000,-170.6250,0
1776972105.249,7.9583,1.6400,-0.7949,0.8255,-0.0512,-0.1735,-86.7000,21.3000,2.4000,8.0924,-3.7637,-3.7637,0.2225,2.4656,-2.9106,-13.5000,-46.6500,-108.4500,11.2800,4.0300,-6.6200,0.6141,-3.6085,-2.1828,-60.6875,-20.1875,22.3750,230.1875,47.3125,-170.0000,0
1776972105.254,7.9583,1.6400,-0.7949,0.8255,-0.0512,-0.1735,-86.7000,21.3000,2.4000,8.0924,-3.7637,-3.7637,0.2225,2.4656,-2.9106,-13.5000,-46.6500,-108.4500,11.2800,4.0300,-6.6200,0.6141,-3.6085,-2.1828,-60.6875,-20.1875,22.3750,230.1875,47.3125,-170.0000,0
1776972105.259,7.8673,1.5083,-0.8284,0.6662,0.0035,-0.0248,-86.7000,21.3000,2.4000,8.1307,-3.0813,-3.4500,0.2689,2.6311,-2.9580,-12.6000,-45.3000,-107.1000,10.7400,3.9200,-6.3200,0.6447,-3.5594,-2.2057,-60.6875,-20.1875,22.3750,231.3750,45.1875,-169.4375,0
1776972105.264,7.8673,1.5083,-0.8284,0.6662,0.0035,-0.0248,-86.8500,22.2000,1.3500,8.1307,-3.0813,-3.4500,0.2689,2.6311,-2.9580,-12.6000,-45.3000,-107.1000,10.7400,3.9200,-6.3200,0.6720,-3.4492,-2.2177,-60.6875,-20.1875,22.3750,209.6250,43.0625,-169.0000,0
1776972105.270,7.7261,1.5467,-1.1325,0.5574,0.0264,0.1236,-86.8500,22.2000,1.3500,7.7979,-2.3918,-3.5267,0.2960,2.8101,-3.0060,-13.9500,-43.6500,-106.9500,10.0900,3.8100,-5.5200,0.6720,-3.4492,-2.2177,-60.6875,-20.1875,22.3750,208.4375,41.0625,-168.6875,0
1776972105.279,7.5992,1.6927,-1.5538,0.4978,0.0354,0.2563,-86.2500,20.8500,1.9500,7.8769,-1.9728,-3.1603,0.3040,3.0150,-3.0619,-13.9500,-43.6500,-106.9500,8.3400,3.6800,-3.9300,0.7199,-3.2638,-2.1369,-60.6875,-20.1875,22.3750,208.4375,41.0625,-168.6875,0
1776972105.289,7.5585,1.9034,-1.6281,0.4655,0.0456,0.3810,-87.0000,22.8000,0.9000,8.0397,-1.6089,-2.8706,0.3376,3.1515,-3.0907,-16.2000,-41.2500,-101.8500,8.2300,3.5900,-3.7500,0.8563,-2.9889,-1.9875,-60.6875,-20.1875,22.3750,207.2500,39.2500,-168.5000,0
1776972105.294,7.5585,1.9034,-1.6281,0.4655,0.0456,0.3810,-86.2500,20.8500,0.9000,8.4276,-1.5826,-2.5786,0.4325,3.2644,-3.0886,-16.2000,-41.2500,-101.8500,8.2300,3.5900,-3.7500,0.8563,-2.9889,-1.9875,-60.6875,-20.1875,22.3750,206.1875,37.5625,-168.5000,0
1776972105.299,7.3670,2.1237,-1.6305,0.4695,0.0600,0.4996,-86.2500,20.8500,0.9000,8.4276,-1.5826,-2.5786,0.4325,3.2644,-3.0886,-15.6000,-38.5500,-100.8000,9.0700,3.5400,-4.3700,1.0145,-2.6289,-1.8184,-53.0000,-25.6875,31.8750,206.1875,37.5625,-168.5000,0
1776972105.304,7.3670,2.1237,-1.6305,0.4695,0.0600,0.4996,-87.6000,22.9500,0.6000,9.2249,-2.2553,-2.4277,0.6374,3.2562,-2.9929,-15.6000,-38.5500,-100.8000,9.0700,3.5400,-4.3700,1.0145,-2.6289,-1.8184,-53.0000,-25.6875,31.8750,205.2500,36.1875,-168.6875,0
1776972105.309,7.1395,2.5786,-1.5993,0.5002,0.0714,0.6070,-87.6000,22.9500,0.6000,9.2249,-2.2553,-2.4277,0.6374,3.2562,-2.9929,-17.7000,-36.3000,-98.5500,11.7100,3.5600,-6.0800,1.1061,-2.2700,-1.5915,-53.0000,-25.6875,31.8750,205.2500,36.1875,-168.6875,0
1776972105.316,7.0006,3.3830,-1.4629,0.5002,0.0714,0.6070,-85.9500,22.0500,1.6500,10.3501,-3.6440,-1.7717,0.7994,3.1453,-2.8322,-16.8000,-34.9500,-97.3500,13.0300,2.2300,-6.6800,1.1159,-1.9177,-1.3614,-53.0000,-25.6875,31.8750,204.3750,35.0000,-168.9375,0
1776972105.321,7.0006,3.3830,-1.4629,0.4962,0.0986,0.7024,-85.9500,22.0500,1.6500,10.3501,-3.6440,-1.7717,0.7994,3.1453,-2.8322,-16.8000,-34.9500,-97.3500,13.0300,2.2300,-6.6800,1.1159,-1.9177,-1.3614,-53.0000,-25.6875,31.8750,203.5625,33.8750,-169.1250,0
1776972105.330,6.8570,3.9744,-1.3024,0.4823,0.0986,0.7938,-85.9500,22.0500,1.6500,11.6334,-4.5945,-1.0630,0.8436,2.7992,-2.6209,-19.3500,-33.1500,-94.8000,14.6700,0.9500,-7.9800,1.0374,-1.7639,-1.2730,-53.0000,-25.6875,31.8750,202.8125,32.7500,-169.2500,0
1776972105.340,6.7038,4.1970,-1.1396,0.4836,0.0994,0.8657,-85.8000,20.7000,1.0500,12.3996,-4.4077,-0.7087,0.7743,2.3478,-2.3880,-19.3500,-33.1500,-94.8000,16.0100,0.2600,-8.3400,0.7789,-1.8217,-1.3003,-53.0000,-25.6875,31.8750,202.8125,32.7500,-169.2500,0
1776972105.345,6.9360,4.3239,-0.7470,0.4836,0.0994,0.8657,-85.8000,20.7000,1.0500,12.3301,-3.5650,-0.8643,0.6558,1.9982,-2.1898,-19.3500,-33.1500,-94.8000,16.0100,0.2600,-8.3400,0.7789,-1.8217,-1.3003,-53.0000,-25.6875,31.8750,202.0625,31.5625,-169.1250,0
1776972105.350,6.9360,4.3239,-0.7470,0.4138,0.1348,0.9289,-85.8000,20.7000,1.0500,12.3301,-3.5650,-0.8643,0.6558,1.9982,-2.1898,-15.0000,-30.9000,-91.6500,17.7500,0.2200,-7.4800,0.4669,-1.9711,-1.3614,-42.6875,-28.5625,36.8750,202.0625,31.5625,-169.1250,0
1776972105.355,7.5944,4.5011,-0.5531,0.4138,0.1348,0.9289,-86.5500,20.7000,-0.3000,11.7460,-2.8994,-1.1684,0.3848,1.9388,-2.0499,-14.2500,-29.4000,-91.9500,17.7500,0.2200,-7.4800,0.4669,-1.9711,-1.3614,-42.6875,-28.5625,36.8750,202.0625,31.5625,-169.1250,0
1776972105.360,7.5944,4.5011,-0.5531,0.3267,0.1681,0.9859,-86.5500,20.7000,-0.3000,11.7460,-2.8994,-1.1684,0.3848,1.9388,-2.0499,-14.2500,-29.4000,-91.9500,17.3900,0.3300,-6.0800,0.2160,-2.1980,-1.3275,-42.6875,-28.5625,36.8750,201.3750,30.1875,-169.0000,0
1776972105.365,8.2576,4.6543,-0.4812,0.2246,0.2164,1.0445,-87.4500,19.3500,1.6500,11.1235,-2.4900,-1.4341,0.1383,2.1114,-1.9327,-12.7500,-28.9500,-89.5500,16.7900,0.1000,-4.3300,0.1200,-2.4075,-1.2305,-42.6875,-28.5625,36.8750,200.8125,28.7500,-168.8125,0
1776972105.371,8.2576,4.6543,-0.4812,0.2246,0.2164,1.0445,-87.4500,19.3500,1.6500,11.1235,-2.4900,-1.4341,0.1383,2.1114,-1.9327,-12.7500,-28.9500,-89.5500,16.7900,0.1000,-4.3300,0.1200,-2.4075,-1.2305,-42.6875,-28.5625,36.8750,200.3125,27.3125,-168.7500,0
1776972105.380,8.5688,4.9680,-0.4812,0.1015,0.2995,1.0688,-87.7500,18.4500,1.2000,10.8457,-2.2505,-2.0590,0.0181,2.2052,-1.7483,-11.8500,-26.5500,-86.8500,15.0100,-0.5300,-0.6800,0.1844,-2.5056,-1.0876,-42.6875,-28.5625,36.8750,199.8750,25.8750,-168.8125,0
1776972105.390,8.8873,5.7724,-0.4812,-0.0274,0.3539,1.0653,-86.7000,18.9000,1.6500,10.8769,-1.3575,-2.1069,-0.1929,2.3212,-1.4618,-11.8500,-26.5500,-86.8500,14.3700,-0.9600,1.3200,0.3894,-2.4435,-0.9283,-42.6875,-28.5625,36.8750,199.8750,25.8750,-168.8125,0
1776972105.395,8.8969,6.9911,-0.3831,-0.1671,0.3933,1.0280,-86.8500,18.0000,1.3500,11.0085,-0.6512,-1.1325,-0.3467,2.1847,-1.0427,-11.8500,-26.5500,-86.8500,14.3700,-0.9600,1.3200,0.3894,-2.4435,-0.9283,-42.6875,-28.5625,36.8750,199.5000,24.5625,-169.0625,0
1776972105.400,8.8969,6.9911,-0.3831,-0.1671,0.3933,1.0280,-86.8500,18.0000,1.3500,11.0085,-0.6512,-1.1325,-0.3467,2.1847,-1.0427,-11.8500,-26.5500,-86.8500,11.4500,-1.8400,2.3400,0.5258,-2.2646,-0.7810,-37.0625,-30.8750,39.7500,199.5000,24.5625,-169.0625,0
1776972105.404,8.2791,7.9440,-0.4573,-0.2617,0.4090,0.9561,-87.0000,17.7000,0.9000,11.5903,-0.7925,-0.0694,-0.5175,1.8189,-0.5689,-12.1500,-19.2000,-86.2500,11.4500,-1.8400,2.3400,0.5258,-2.2646,-0.7810,-37.0625,-30.8750,39.7500,199.1250,23.5625,-169.1875,0
1776972105.410,8.2791,7.9440,-0.4573,-0.2617,0.4090,0.9561,-87.0000,17.7000,0.9000,11.5903,-0.7925,-0.0694,-0.5175,1.8189,-0.5689,-12.1500,-19.2000,-86.2500,13.0600,-4.3900,5.5700,0.4538,-1.6406,-0.7352,-37.0625,-30.8750,39.7500,199.1250,23.5625,-169.1875,0
1776972105.419,7.6088,8.7125,-0.5674,-0.2086,0.4343,0.8857,-87.0000,17.7000,0.9000,11.5161,-0.8068,1.2570,-0.6971,1.3153,-0.1370,-12.4500,-19.2000,-86.7000,13.6500,-4.4900,6.6700,-0.0087,-0.8639,-0.4963,-37.0625,-30.8750,39.7500,198.8750,23.0625,-169.1250,0
1776972105.429,7.5298,8.8107,-0.2370,-0.1228,0.4775,0.8404,-89.1000,16.8000,2.1000,11.6167,-0.3041,1.7478,-0.6789,0.7951,0.2822,-12.1500,-16.6500,-90.3000,13.3500,-4.3600,6.6400,-0.5629,-0.5727,-0.2400,-37.0625,-30.8750,39.7500,198.8125,22.7500,-168.7500,0
1776972105.435,7.5058,7.6064,-0.5411,-0.0933,0.5431,0.7618,-89.1000,16.8000,2.1000,10.8433,0.1101,1.6089,-0.6547,0.3006,0.6939,-9.7500,-15.7500,-94.0500,13.3500,-4.3600,6.6400,-1.0636,-0.4701,-0.1549,-37.0625,-30.8750,39.7500,198.8750,22.4375,-168.1875,0
1776972105.441,7.3215,7.3071,-1.5203,-0.0933,0.5431,0.7618,-89.1000,16.8000,2.1000,9.9479,0.1365,1.2019,-0.6475,0.0037,1.0480,-9.7500,-15.7500,-94.0500,12.5100,-3.5400,6.9300,-1.0636,-0.4701,-0.1549,-37.0625,-30.8750,39.7500,198.8750,22.4375,-168.1875,0
1776972105.446,7.3215,7.3071,-1.5203,-0.1274,0.5969,0.6861,-87.3000,16.8000,3.3000,9.9479,0.1365,1.2019,-0.6475,0.0037,1.0480,-9.7500,-15.7500,-94.0500,12.5100,-3.5400,6.9300,-1.3341,-0.1309,-0.0982,-31.5000,-33.0625,42.5000,199.0000,22.3750,-167.3750,0
1776972105.451,7.3646,6.6631,-1.9513,-0.1274,0.5969,0.6861,-87.3000,16.8000,3.3000,10.1227,-0.1149,0.2346,-0.5393,-0.3968,1.3614,-9.7500,-15.7500,-94.0500,12.3400,-1.9100,6.7100,-1.3341,-0.1309,-0.0982,-31.5000,-33.0625,42.5000,199.0000,22.3750,-167.3750,0
1776972105.455,7.3646,6.6631,-1.9513,-0.1263,0.6664,0.6190,-87.0000,15.7500,1.6500,10.1227,-0.1149,0.2346,-0.5393,-0.3968,1.3614,-9.7500,-15.7500,-94.0500,12.3400,-1.9100,6.7100,-1.3297,0.2542,-0.0207,-31.5000,-33.0625,42.5000,199.1250,22.5000,-166.6250,0
1776972105.461,7.4531,5.1954,-1.9154,-0.1263,0.6664,0.6190,-87.0000,15.7500,1.6500,9.7516,-0.3974,-0.4286,-0.5276,-0.6584,1.5932,-9.7500,-15.7500,-94.0500,12.3200,-0.9700,5.9900,-1.3297,0.2542,-0.0207,-31.5000,-33.0625,42.5000,199.1250,22.5000,-166.6250,0
1776972105.469,8.4467,3.7804,-1.3599,0.0293,0.7991,0.5947,-86.8500,14.4000,4.0500,9.8067,-0.3184,0.1532,-0.5220,-0.7405,1.7333,-1.5000,0.4500,-108.0000,12.6600,-0.1900,4.5400,-1.1443,0.5781,0.0938,-31.5000,-33.0625,42.5000,199.2500,22.8125,-166.0000,0
1776972105.479,9.5361,2.4157,-1.2258,0.1721,0.8966,0.6622,-88.0500,14.4000,5.8500,9.4571,2.2769,1.4868,-0.1583,-0.4375,1.5910,0.9000,7.2000,-114.4500,2.2200,23.3400,-20.9900,-0.5781,0.4222,0.3698,-31.5000,-33.0625,42.5000,199.5000,23.1250,-165.7500,0
1776972105.490,11.8082,1.4150,-0.8045,0.0016,0.8271,1.0323,-87.7500,13.8000,4.9500,9.5193,7.6423,1.7238,0.8588,0.1676,0.9281,0.6000,12.7500,-120.7500,-1.3200,4.0400,-8.3200,1.1737,0.0262,0.8672,-31.5000,-33.0625,42.5000,199.8750,23.2500,-166.5625,0
1776972105.494,11.8082,1.4150,-0.8045,0.0016,0.8271,1.0323,-87.7500,13.5000,4.9500,9.5193,7.6423,1.7238,0.8588,0.1676,0.9281,2.1000,21.7500,-124.9500,-1.3200,4.0400,-8.3200,1.1737,0.0262,0.8672,-31.5000,-33.0625,42.5000,199.8750,23.2500,-166.5625,0
1776972105.499,13.5967,0.4118,-0.9697,0.0187,0.6662,1.3123,-87.7500,13.5000,4.9500,12.4211,11.8848,-1.1396,1.2257,0.7735,-0.1346,2.1000,21.7500,-124.9500,-1.0900,-1.2900,-23.5900,1.8555,1.7028,0.9719,-29.0625,-35.1875,39.0625,200.0625,24.2500,-167.7500,0
1776972105.504,13.5967,0.4118,-0.9697,0.0187,0.6662,1.3123,-87.7500,13.5000,4.9500,12.4211,11.8848,-1.1396,1.2257,0.7735,-0.1346,2.1000,21.7500,-124.9500,-1.0900,-1.2900,-23.5900,1.8555,1.7028,0.9719,-29.0625,-35.1875,39.0625,200.0625,24.2500,-167.7500,0
1776972105.509,13.0173,-0.6273,-2.1979,0.3291,0.4860,1.4583,-87.7500,13.5000,4.9500,16.5320,12.0500,-5.2146,0.4980,1.1386,-0.6752,2.1000,21.7500,-124.9500,-6.2600,-6.5200,-0.9200,0.9599,1.8457,-0.4134,-29.0625,-35.1875,39.0625,199.6250,25.2500,-168.0625,0
1776972105.516,13.0173,-0.6273,-2.1979,0.3291,0.4860,1.4583,-87.0000,13.8000,5.2500,16.5320,12.0500,-5.2146,0.4980,1.1386,-0.6752,-0.1500,42.4500,-137.5500,0.1800,-10.9500,-3.1200,0.3076,2.4064,-1.0712,-29.0625,-35.1875,39.0625,198.8750,26.4375,-167.8750,0
1776972105.521,13.8193,0.4525,-5.8083,0.9715,0.3214,1.4477,-87.0000,13.8000,5.2500,15.0859,7.4364,-7.6567,-0.9385,0.5769,-0.2281,-0.1500,42.4500,-137.5500,0.1800,-10.9500,-3.1200,0.3076,2.4064,-1.0712,-29.0625,-35.1875,39.0625,198.1250,28.0625,-167.3750,0
1776972105.530,15.5934,4.3167,-7.9511,1.3147,0.0935,1.3267,-87.0000,13.8000,5.2500,13.4985,2.7725,-4.7597,-1.3837,0.4341,0.1276,-0.1500,51.1500,-147.3000,10.3900,-12.6600,-11.1000,0.0404,3.2779,-0.9927,-29.0625,-35.1875,39.0625,197.6875,29.9375,-166.5625,0
1776972105.540,17.3125,6.8259,-6.5146,1.0741,-0.1284,1.0880,-88.0500,11.7000,4.8000,13.4123,2.6695,-6.3398,-1.1551,0.3131,0.2350,0.1500,56.4000,-159.0000,10.4500,-6.9100,-18.4800,-0.7254,3.6346,-0.6054,-29.0625,-35.1875,39.0625,197.6875,29.9375,-166.5625,0
1776972105.545,17.3125,6.8259,-6.5146,1.0741,-0.1284,1.0880,-88.2000,11.4000,4.9500,13.4123,2.6695,-6.3398,-1.1551,0.3131,0.2350,-0.9000,63.1500,-173.5500,10.4500,-6.9100,-18.4800,-0.7254,3.6346,-0.6054,-29.0625,-35.1875,39.0625,197.6875,29.9375,-166.5625,0
1776972105.550,16.8983,6.3805,-2.1141,0.5513,0.0456,0.9260,-88.2000,11.4000,4.9500,17.0276,2.0542,-5.9592,-1.4690,1.6419,0.5025,-0.9000,63.1500,-173.5500,27.7800,15.9900,-21.7500,-0.9436,2.8929,-0.3458,-30.7500,-35.5625,39.0625,197.4375,31.4375,-165.6875,0
1776972105.555,16.8983,6.3805,-2.1141,0.5513,0.0456,0.9260,-88.2000,9.9000,5.7000,17.6165,2.6264,-0.2418,-0.2798,1.5378,0.8082,-3.0000,66.1500,-185.7000,27.7800,15.9900,-21.7500,-0.9436,2.8929,-0.3458,-30.7500,-35.5625,39.0625,197.4375,31.4375,-165.6875,0
1776972105.560,11.0804,3.7637,1.5897,-0.2825,0.4535,0.7421,-88.2000,9.9000,5.7000,17.6165,2.6264,-0.2418,-0.2798,1.5378,0.8082,-3.0000,66.1500,-185.7000,24.6600,23.5000,-1.6800,-1.0090,3.1383,0.1538,-30.7500,-35.5625,39.0625,197.5000,33.1875,-164.8750,0
1776972105.566,6.8187,0.9313,4.7956,-1.5705,1.0059,0.7602,-87.6000,9.7500,6.6000,12.6198,-0.3256,3.9002,1.3981,0.9470,0.9635,-3.0000,66.1500,-185.7000,6.4100,9.3600,2.0300,-0.1156,1.5337,0.1134,-30.7500,-35.5625,39.0625,197.4375,34.0000,-164.7500,0
1776972105.571,6.8187,0.9313,4.7956,-1.5705,1.0059,0.7602,-87.6000,9.7500,6.6000,12.6198,-0.3256,3.9002,1.3981,0.9470,0.9635,-5.5500,69.4500,-201.0000,6.4100,9.3600,2.0300,-0.1156,1.5337,0.1134,-30.7500,-35.5625,39.0625,197.5625,34.3125,-165.1250,0
1776972105.580,6.2537,-1.4629,5.0302,-1.7099,1.1607,1.0219,-87.6000,8.1000,5.8500,8.2959,-5.8514,6.1555,2.9809,0.1037,1.3177,-5.5500,69.4500,-201.0000,10.6000,-9.7000,-13.9600,0.5127,0.4287,0.4243,-30.7500,-35.5625,39.0625,197.6250,34.7500,-165.1875,0
1776972105.590,6.6990,-3.5314,2.2529,-0.4908,0.7397,1.2231,-87.7500,7.9500,7.9500,5.3271,-8.8992,7.8051,3.1003,-1.3755,1.6217,-2.7000,64.9500,-202.5000,7.1000,-6.2400,-10.9300,0.1353,0.8105,0.2411,-30.7500,-35.5625,39.0625,197.6250,34.7500,-165.1875,0
1776972105.595,6.9719,-4.2856,-1.1540,-0.4908,0.7397,1.2231,-87.7500,7.9500,7.9500,6.1794,-9.2344,4.7740,2.4480,-2.6734,1.6779,-2.7000,64.9500,-197.4000,7.1000,-6.2400,-10.9300,0.1353,0.8105,0.2411,-30.7500,-35.5625,39.0625,197.7500,34.8750,-164.9375,0
1776972105.600,6.9719,-4.2856,-1.1540,0.3411,0.3680,1.2156,-87.7500,7.9500,7.9500,6.1794,-9.2344,4.7740,2.4480,-2.6734,1.6779,1.5000,64.2000,-187.8000,5.5000,2.9300,-8.0100,-0.4494,0.2269,0.0349,-36.1875,-37.7500,34.0625,197.7500,34.8750,-164.9375,0
1776972105.605,8.4467,-5.0422,-2.5498,0.1122,0.3080,1.2654,-88.9500,6.0000,9.0000,8.3079,-4.4748,-1.3408,0.5558,-3.2397,1.8063,1.5000,64.2000,-187.8000,5.5000,2.9300,-8.0100,-0.4494,0.2269,0.0349,-36.1875,-37.7500,34.0625,197.7500,35.0000,-164.7500,0
1776972105.610,8.4467,-5.0422,-2.5498,0.1122,0.3080,1.2654,-88.9500,6.0000,9.0000,8.3079,-4.4748,-1.3408,0.5558,-3.2397,1.8063,7.2000,60.3000,-172.6500,5.1300,3.8700,-6.4000,-0.3502,0.2629,-0.0425,-36.1875,-37.7500,34.0625,197.7500,35.0000,-164.7500,0
1776972105.617,9.3446,-5.2002,-2.0111,-0.4128,0.0386,1.3467,-88.9500,6.0000,9.0000,6.4117,-0.8164,0.7518,-1.3368,-2.4245,2.0352,7.2000,60.3000,-172.6500,5.0400,1.4300,-8.1200,-0.0371,0.2193,0.0611,-36.1875,-37.7500,34.0625,197.7500,35.1875,-164.6875,0
1776972105.622,9.3446,-5.2002,-2.0111,-0.4128,0.0386,1.3467,-88.9500,6.0000,9.0000,6.4117,-0.8164,0.7518,-1.3368,-2.4245,2.0352,7.2000,60.3000,-172.6500,5.0400,1.4300,-8.1200,-0.0371,0.2193,0.0611,-36.1875,-37.7500,34.0625,197.8125,35.3125,-164.8750,0
1776972105.630,9.5457,-3.1508,1.2617,-0.8463,0.0330,1.3110,-87.4500,4.0500,9.0000,8.9567,1.0008,3.0646,-1.6060,-0.8950,1.7507,10.5000,38.5500,-150.6000,4.3000,0.6400,-8.2100,0.1680,0.1931,0.1887,-36.1875,-37.7500,34.0625,197.8750,35.5625,-165.0625,0
1776972105.640,9.3901,0.4453,3.4668,-0.9188,0.1679,1.0658,-87.4500,4.8000,8.2500,8.5952,2.8467,0.1844,-0.9241,-0.9398,1.4853,12.6000,28.0500,-143.5500,4.1900,2.2600,-7.3500,0.3207,0.4352,0.2214,-36.1875,-37.7500,34.0625,197.8750,35.5625,-165.0625,0
1776972105.645,8.6598,3.4716,4.2808,-0.4882,0.2395,0.7536,-88.9500,4.8000,8.7000,9.2536,4.6543,-0.5650,-0.3493,-0.3126,1.2287,12.6000,28.0500,-143.5500,4.1900,2.2600,-7.3500,0.3207,0.4352,0.2214,-36.1875,-37.7500,34.0625,197.8750,35.5625,-165.0625,0
1776972105.650,8.6598,3.4716,4.2808,-0.4882,0.2395,0.7536,-88.9500,4.8000,8.7000,9.2536,4.6543,-0.5650,-0.3493,-0.3126,1.2287,14.2500,19.2000,-138.7500,5.5900,2.5600,-7.0700,0.4974,0.5803,0.3022,-37.2500,-37.3750,32.8750,197.9375,35.9375,-165.3750,0
1776972105.655,9.0836,4.4005,5.0350,0.2222,0.3547,0.5598,-88.8000,1.9500,8.4000,10.5297,4.1324,-1.6137,0.0501,0.0021,0.9651,14.2500,19.2000,-138.7500,5.5900,2.5600,-7.0700,0.4974,0.5803,0.3022,-37.2500,-37.3750,32.8750,197.9375,35.9375,-165.3750,0
1776972105.660,9.0836,4.4005,5.0350,0.2222,0.3547,0.5598,-88.8000,1.9500,8.4000,10.5297,4.1324,-1.6137,0.0501,0.0021,0.9651,16.6500,13.0500,-138.1500,6.1600,1.6800,-7.8100,0.7178,0.4112,0.4374,-37.2500,-37.3750,32.8750,198.0000,36.1875,-165.9375,0
1776972105.666,8.8514,3.3710,5.1547,0.8098,0.5438,0.5420,-88.9500,4.5000,8.2500,10.8721,-0.1724,-1.1253,0.5998,-0.0352,0.7272,16.6500,13.0500,-138.1500,6.1600,1.6800,-7.8100,0.7538,0.3229,0.4778,-37.2500,-37.3750,32.8750,198.1250,36.4375,-166.5000,0
1776972105.671,9.4834,1.9968,4.0247,0.8098,0.5438,0.5420,-88.9500,4.5000,8.2500,10.6638,-3.1029,-0.6536,0.9233,-0.1050,0.5132,13.5000,13.2000,-138.0000,6.3700,0.9000,-8.3800,0.7538,0.3229,0.4778,-37.2500,-37.3750,32.8750,198.1875,36.7500,-167.0000,0
1776972105.680,9.4834,1.9968,4.0247,1.3190,0.6254,0.5577,-89.1000,3.0000,8.1000,10.6638,-3.1029,-0.6536,0.9233,-0.1050,0.5132,13.5000,13.2000,-138.0000,7.2500,0.7500,-8.4000,0.6600,0.4658,0.3872,-37.2500,-37.3750,32.8750,198.1875,36.7500,-167.0000,0
1776972105.690,9.8785,-1.2186,0.4860,1.6092,0.6281,0.5335,-89.1000,3.0000,8.1000,9.5050,-4.3024,3.2250,0.6520,-0.4788,0.5215,13.8000,11.5500,-138.1500,7.1400,0.9200,-8.2700,0.5465,0.5618,0.2662,-37.2500,-37.3750,32.8750,198.1875,37.0625,-167.3125,0
1776972105.695,9.8785,-1.2186,0.4860,1.7272,0.5817,0.4956,-88.8000,3.4500,8.8500,9.5050,-4.3024,3.2250,0.6520,-0.4788,0.5215,13.8000,11.5500,-138.1500,7.1400,0.9200,-8.2700,0.5465,0.5618,0.2662,-37.2500,-37.3750,32.8750,198.1875,37.3750,-167.6250,0
1776972105.700,9.6822,-2.6456,-0.0479,1.7272,0.5817,0.4956,-88.8000,3.4500,8.8500,9.4355,-3.4764,3.6943,0.2422,-0.6187,0.6062,12.7500,13.6500,-138.7500,6.9300,0.7200,-8.0600,0.4538,0.5225,0.1854,-38.7500,-38.8750,32.1875,198.1875,37.3750,-167.6250,0
1776972105.705,9.6822,-2.6456,-0.0479,1.6233,0.6099,0.4706,-88.8000,3.4500,8.8500,9.4355,-3.4764,3.6943,0.2422,-0.6187,0.6062,12.7500,13.6500,-138.7500,6.9300,0.7200,-8.0600,0.4538,0.5225,0.1854,-38.7500,-38.8750,32.1875,198.1875,37.5625,-167.8750,0
1776972105.710,9.7229,-2.8683,0.0670,1.6233,0.6099,0.4706,-88.8000,3.4500,8.8500,9.6845,-3.3112,3.1699,-0.1724,-0.6376,0.6640,12.6000,9.0000,-140.2500,6.6100,0.8700,-8.0900,0.3600,0.3796,0.1484,-38.7500,-38.8750,32.1875,198.1875,37.5625,-167.8750,0
1776972105.716,9.7229,-2.8683,0.0670,1.2100,0.6571,0.4525,-89.4000,3.3000,8.7000,9.6845,-3.3112,3.1699,-0.1724,-0.6376,0.6640,12.6000,9.0000,-140.2500,6.6100,0.8700,-8.0900,0.2858,0.2411,0.1222,-38.7500,-38.8750,32.1875,198.1875,37.7500,-168.0625,0
1776972105.721,9.5888,-1.8411,0.4334,0.6752,0.6163,0.4261,-89.4000,3.3000,8.7000,9.6606,-3.4405,2.2841,-0.4064,-0.5796,0.6734,13.0500,9.0000,-140.7000,6.2200,1.3300,-7.6300,0.2858,0.2411,0.1222,-38.7500,-38.8750,32.1875,198.1875,37.8125,-168.1875,0
1776972105.730,9.4834,-1.2713,0.8787,0.1132,0.5684,0.3978,-88.6500,3.6000,9.3000,9.3948,-2.7749,1.1013,-0.4628,-0.3936,0.6297,11.7000,9.4500,-139.8000,5.7700,1.1900,-7.8400,0.2465,0.1211,0.1080,-38.7500,-38.8750,32.1875,198.1875,37.8125,-168.1875,0
1776972105.740,9.3829,-0.7039,0.8571,-0.3573,0.5183,0.3738,-87.6000,1.0500,9.6000,9.2464,-1.6352,0.4932,-0.5785,-0.2121,0.5849,11.7000,9.4500,-139.8000,5.4700,1.5300,-7.3700,0.2487,0.1931,0.1145,-38.7500,-38.8750,32.1875,198.1875,37.9375,-168.3750,0
1776972105.745,9.3829,-0.7039,0.8571,-0.3573,0.5183,0.3738,-88.9500,3.3000,10.5000,9.2464,-1.6352,0.4932,-0.5785,-0.2121,0.5849,11.7000,9.4500,-139.8000,5.4700,1.5300,-7.3700,0.2487,0.1931,0.1145,-38.7500,-38.8750,32.1875,198.1875,37.9375,-168.3750,0
1776972105.750,9.4810,0.6656,0.6560,-0.6326,0.4772,0.3533,-88.9500,3.3000,10.5000,9.2584,-0.2658,-0.1437,-0.5580,-0.0205,0.5108,12.1500,11.7000,-139.8000,5.4800,1.6800,-7.2100,0.2542,0.2007,0.1604,-39.8750,-34.5000,32.8750,198.1875,38.0625,-168.5625,0
1776972105.755,9.4810,0.6656,0.6560,-0.6326,0.4772,0.3533,-87.3000,1.0500,10.3500,9.2584,-0.2658,-0.1437,-0.5580,-0.0205,0.5108,12.1500,11.7000,-139.8000,5.4800,1.6800,-7.2100,0.2542,0.2007,0.1604,-39.8750,-34.5000,32.8750,198.1875,38.0625,-168.5625,0
1776972105.760,10.0676,-1.9106,0.9888,-0.8708,0.3413,0.3219,-87.3000,1.0500,10.3500,9.5864,0.9768,-0.4381,-0.5454,0.0706,0.4314,10.9500,10.2000,-141.6000,5.1800,1.6100,-7.3100,0.3098,0.1527,0.2323,-39.8750,-34.5000,32.8750,198.2500,38.1875,-168.8125,0
1776972105.765,10.0676,-1.9106,0.9888,-0.8708,0.3413,0.3219,-87.3000,1.0500,10.3500,9.5864,0.9768,-0.4381,-0.5454,0.0706,0.4314,10.9500,10.2000,-141.6000,5.1800,1.6100,-7.3100,0.3763,0.2542,0.2749,-39.8750,-34.5000,32.8750,198.3125,38.3125,-169.1250,0
1776972105.771,9.7157,-0.8116,1.5227,-1.1596,0.1170,0.2646,-87.6000,1.9500,10.6500,10.0365,1.0942,-0.9266,-0.5337,-0.0981,0.4186,7.3500,10.2000,-142.2000,5.9000,1.1600,-7.7500,0.3763,0.2542,0.2749,-39.8750,-34.5000,32.8750,198.3750,38.6250,-169.5000,0
1776972105.780,9.8426,-0.8068,1.5993,-1.2409,-0.0506,0.2393,-87.6000,1.9500,10.6500,10.0652,0.3591,-0.9050,-0.4762,-0.2236,0.4112,6.6000,11.7000,-142.6500,6.8400,0.1300,-8.3100,0.4843,0.4222,0.2760,-39.8750,-34.5000,32.8750,198.3750,38.8750,-169.8125,0
1776972105.791,10.1083,-0.6177,1.1492,-1.2348,-0.0725,0.2670,-88.6500,1.6500,9.7500,10.0173,-0.6297,-1.0439,-0.3917,-0.3267,0.4282,6.3000,12.4500,-145.5000,6.9700,0.1300,-8.2200,0.4680,0.5258,0.2127,-39.8750,-34.5000,32.8750,198.3750,38.8750,-169.8125,0
1776972105.795,10.1083,-0.6177,1.1492,-1.2348,-0.0725,0.2670,-88.6500,1.6500,9.7500,10.0173,-0.6297,-1.0439,-0.3917,-0.3267,0.4282,6.3000,12.4500,-145.5000,6.9700,0.1300,-8.2200,0.4680,0.5258,0.2127,-39.8750,-34.5000,32.8750,198.3750,39.1875,-170.0000,0
1776972105.800,9.8043,-0.3519,0.6488,-1.1413,-0.0624,0.3323,-88.6500,1.6500,9.7500,9.5026,-1.5921,-1.2234,-0.2462,-0.3986,0.4293,6.3000,12.4500,-145.5000,6.8300,0.8000,-7.6600,0.3327,0.5411,0.1222,-40.1875,-34.8750,32.8750,198.3750,39.1875,-170.0000,0
1776972105.805,9.8043,-0.3519,0.6488,-1.1413,-0.0624,0.3323,-88.6500,1.6500,9.7500,9.5026,-1.5921,-1.2234,-0.2462,-0.3986,0.4293,6.3000,12.4500,-145.5000,6.8300,0.8000,-7.6600,0.3327,0.5411,0.1222,-40.1875,-34.8750,32.8750,198.3125,39.5000,-170.0625,0
1776972105.810,9.6606,0.1676,0.5842,-1.0749,-0.0261,0.3829,-87.7500,0.9000,9.3000,9.5265,-1.3527,-0.2586,-0.3411,-0.3765,0.4636,5.2500,12.4500,-148.3500,6.8100,1.0800,-7.5400,0.1822,0.4712,0.0556,-40.1875,-34.8750,32.8750,198.3125,39.5000,-170.0625,0
1776972105.819,9.4691,0.7446,1.0175,-1.0528,-0.0064,0.4221,-88.2000,0.1500,10.5000,9.3733,-1.4485,0.0958,-0.3288,-0.3778,0.4978,6.1500,14.2500,-149.5500,6.7400,0.9500,-7.4100,0.0807,0.3534,0.0164,-40.1875,-34.8750,32.8750,198.3125,39.6875,-170.1250,0
1776972105.823,9.4691,0.7446,1.0175,-1.0528,-0.0064,0.4221,-88.2000,0.1500,10.5000,9.3733,-1.4485,0.0958,-0.3288,-0.3778,0.4978,6.1500,14.2500,-149.5500,6.7400,0.9500,-7.4100,0.0807,0.3534,0.0164,-40.1875,-34.8750,32.8750,198.3125,39.7500,-170.1250,0
1776972105.831,9.4260,0.8739,1.4509,-0.9878,0.0101,0.4442,-88.0500,0.0000,9.1500,9.1075,-1.0942,0.4860,-0.3698,-0.3826,0.5468,6.4500,13.8000,-148.8000,6.2400,1.1200,-7.5400,0.0109,0.1844,-0.0109,-40.1875,-34.8750,32.8750,198.3125,39.8750,-170.0625,0
1776972105.841,9.3206,1.0367,1.8076,-0.8628,0.0216,0.4255,-88.0500,-0.7500,11.1000,9.1530,-0.8308,0.6201,-0.3072,-0.3770,0.5713,7.8000,13.9500,-150.4500,6.3100,1.2100,-7.4000,-0.0698,0.1593,-0.0175,-40.1875,-34.8750,32.8750,198.3125,39.8750,-170.0625,0
1776972105.846,9.1937,1.1444,1.9441,-0.6163,0.0469,0.4066,-88.0500,-0.7500,11.1000,9.1339,-0.9218,0.4645,-0.2510,-0.3509,0.5396,7.8000,13.9500,-150.4500,6.3100,1.2100,-7.4000,-0.0698,0.1593,-0.0175,-40.1875,-34.8750,32.8750,198.3125,39.9375,-170.0000,0
1776972105.851,9.1937,1.1444,1.9441,-0.6163,0.0469,0.4066,-87.0000,-0.9000,10.8000,9.1339,-0.9218,0.4645,-0.2510,-0.3509,0.5396,7.8000,13.9500,-150.4500,6.0500,1.3200,-7.3600,-0.0698,0.0938,-0.0087,-41.2500,-34.5000,32.5000,198.3125,39.9375,-170.0000,0
1776972105.856,9.1315,1.1971,1.9992,-0.2992,0.0938,0.3848,-87.0000,-0.9000,10.8000,9.4715,-1.0678,-0.2586,-0.2044,-0.3440,0.4954,7.8000,13.9500,-150.4500,6.0500,1.3200,-7.3600,-0.0698,0.0938,-0.0087,-41.2500,-34.5000,32.5000,198.3125,39.9375,-170.0000,0
1776972105.861,9.1315,1.1971,1.9992,-0.2992,0.0938,0.3848,-87.0000,-1.3500,12.0000,9.4715,-1.0678,-0.2586,-0.2044,-0.3440,0.4954,7.8000,13.9500,-150.4500,6.2000,1.2600,-7.4000,-0.1102,-0.0393,0.0185,-41.2500,-34.5000,32.5000,198.3125,39.8750,-169.9375,0
1776972105.866,9.0333,1.1205,1.9225,0.0314,0.1442,0.3720,-87.0000,-1.3500,12.0000,9.5648,-1.1636,-0.5363,-0.1175,-0.3528,0.4546,9.1500,13.9500,-150.4500,6.2000,1.2600,-7.4000,-0.1494,0.0360,0.0469,-41.2500,-34.5000,32.5000,198.3750,39.9375,-169.8750,0
1776972105.871,9.0333,1.1205,1.9225,0.0314,0.1442,0.3720,-87.0000,-1.3500,12.0000,9.5648,-1.1636,-0.5363,-0.1175,-0.3528,0.4546,9.1500,13.9500,-150.4500,6.2700,1.0900,-7.4800,-0.1494,0.0360,0.0469,-41.2500,-34.5000,32.5000,198.4375,39.9375,-169.8125,0
1776972105.881,9.1171,1.1109,1.8028,0.2830,0.1889,0.3587,-88.2000,-1.3500,10.0500,9.5361,-1.1229,-0.3807,-0.0847,-0.3672,0.4290,8.8500,12.4500,-149.4000,6.2000,1.2400,-7.2900,-0.1505,0.0829,0.0545,-41.2500,-34.5000,32.5000,198.4375,39.9375,-169.8125,0
1776972105.891,9.2440,1.1732,1.5826,0.4325,0.2036,0.3669,-88.2000,-2.1000,10.5000,9.6702,-1.1660,-0.2107,0.0029,-0.3661,0.3840,9.0000,13.5000,-149.8500,6.1500,1.1800,-7.4400,-0.1276,0.0644,0.0567,-41.2500,-34.5000,32.5000,198.5000,40.0000,-169.7500,0
1776972105.896,9.5409,0.9361,1.1779,0.4980,0.2086,0.3866,-88.2000,-2.1000,10.5000,9.7827,-1.1253,-0.1532,0.0357,-0.3712,0.3563,10.3500,12.4500,-149.7000,6.1500,1.1800,-7.4400,-0.1276,0.0644,0.0567,-41.2500,-34.5000,32.5000,198.5000,40.0000,-169.7500,0
1776972105.901,9.5409,0.9361,1.1779,0.4980,0.2086,0.3866,-87.4500,-1.6500,11.5500,9.7827,-1.1253,-0.1532,0.0357,-0.3712,0.3563,10.3500,12.4500,-149.7000,6.2800,1.1500,-7.4500,-0.0818,0.0785,0.0709,-41.6875,-34.8750,31.3750,198.5625,40.0625,-169.7500,0
1776972105.905,9.8258,0.6632,0.8906,0.4922,0.1943,0.4181,-87.4500,-1.6500,11.5500,9.5193,-1.4557,-0.1628,-0.0037,-0.3978,0.3571,10.3500,12.4500,-149.7000,6.2800,1.1500,-7.4500,-0.0818,0.0785,0.0709,-41.6875,-34.8750,31.3750,198.5625,40.0625,-169.7500,0
1776972105.910,9.8258,0.6632,0.8906,0.4922,0.1943,0.4181,-86.7000,-1.3500,11.2500,9.5193,-1.4557,-0.1628,-0.0037,-0.3978,0.3571,10.3500,12.4500,-149.7000,6.4700,1.1700,-7.3200,-0.0415,0.1342,0.0829,-41.6875,-34.8750,31.3750,198.6250,40.1250,-169.7500,0
1776972105.915,9.8857,0.4022,0.7398,0.4205,0.1788,0.4477,-86.7000,-1.3500,11.2500,10.0652,-1.3958,-0.4381,-0.0069,-0.3768,0.3813,10.3500,12.4500,-149.7000,6.4700,1.1700,-7.3200,-0.0284,0.1167,0.0840,-41.6875,-34.8750,31.3750,198.6875,40.1875,-169.8125,0
1776972105.921,9.8761,0.2658,0.6081,0.4205,0.1788,0.4477,-88.0500,-1.9500,10.3500,10.0652,-1.3958,-0.4381,-0.0069,-0.3768,0.3813,10.3500,12.4500,-149.7000,6.5900,1.0400,-7.4900,-0.0284,0.1167,0.0840,-41.6875,-34.8750,31.3750,198.6875,40.2500,-169.8125,0
1776972105.931,9.7157,0.1245,0.5315,0.3195,0.1495,0.4588,-87.4500,-2.4000,11.5500,9.9048,-1.4054,-0.2753,-0.0530,-0.3885,0.4077,9.7500,11.5500,-149.8500,6.5600,1.1100,-7.4100,-0.0316,0.0971,0.0774,-41.6875,-34.8750,31.3750,198.6875,40.2500,-169.8125,0
1776972105.941,9.7109,0.0646,0.3950,0.1799,0.1503,0.4684,-88.8000,-3.0000,10.3500,9.7899,-1.3815,-0.0551,-0.0813,-0.3933,0.4295,7.5000,12.7500,-151.3500,6.5100,1.1400,-7.3800,-0.0480,0.0829,0.0654,-41.6875,-34.8750,31.3750,198.7500,40.3125,-169.8125,0
1776972105.946,9.7109,0.0646,0.3950,0.0426,0.1255,0.4652,-88.8000,-3.0000,10.3500,9.7061,-1.2043,0.0383,-0.0973,-0.3760,0.4311,8.8500,10.9500,-152.2500,6.5100,1.1400,-7.3800,-0.0480,0.0829,0.0654,-41.6875,-34.8750,31.3750,198.8125,40.3750,-169.8125,0
1776972105.951,9.7013,-0.0335,0.5243,-0.0943,0.1074,0.4466,-86.7000,-2.1000,10.8000,9.7061,-1.2043,0.0383,-0.0973,-0.3760,0.4311,8.8500,10.9500,-152.2500,6.4000,1.1600,-7.3100,-0.0556,0.0731,0.0676,-41.2500,-34.7500,31.6875,198.8125,40.3750,-169.8125,0
1776972105.956,9.7013,-0.0335,0.5243,-0.0943,0.1074,0.4466,-86.7000,-2.1000,10.8000,9.6893,-1.1971,0.2490,-0.1058,-0.3786,0.4442,9.3000,13.8000,-152.4000,6.4000,1.1600,-7.3100,-0.0556,0.0731,0.0676,-41.2500,-34.7500,31.6875,198.8750,40.3750,-169.8125,0
1776972105.961,9.5816,-0.0455,0.7230,-0.2262,0.0738,0.4197,-86.7000,-2.1000,10.8000,9.6893,-1.1971,0.2490,-0.1058,-0.3786,0.4442,9.3000,13.8000,-152.4000,6.3400,1.2100,-7.4100,-0.0207,0.0360,0.0709,-41.2500,-34.7500,31.6875,198.8750,40.3750,-169.8125,0
1776972105.966,9.5816,-0.0455,0.7230,-0.2262,0.0738,0.4197,-86.7000,-2.1000,10.8000,9.6965,-1.2282,0.3687,-0.1378,-0.3917,0.4562,9.3000,13.8000,-152.4000,6.3400,1.2100,-7.4100,-0.0142,0.0196,0.0785,-41.2500,-34.7500,31.6875,198.8750,40.4375,-169.8125,0
1776972105.972,9.6127,-0.0503,1.0127,-0.3427,0.0528,0.3912,-88.0500,-3.0000,12.4500,9.7707,-1.8124,0.0622,-0.1684,-0.4080,0.4914,9.3000,13.8000,-152.4000,6.3700,1.1300,-7.4600,-0.0142,0.0196,0.0785,-41.2500,-34.7500,31.6875,198.8750,40.4375,-169.8125,0
1776972105.981,9.6223,0.0000,1.2905,-0.4194,0.0264,0.3635,-88.3500,-1.9500,10.6500,9.8019,-1.5634,0.5267,-0.1092,-0.4048,0.5164,9.6000,11.7000,-152.5500,6.3800,1.1900,-7.3100,-0.0491,0.0502,0.0731,-41.2500,-34.7500,31.6875,198.9375,40.4375,-169.8750,0
1776972105.986,9.6223,0.0000,1.2905,-0.4194,0.0264,0.3635,-88.3500,-1.9500,10.6500,9.8019,-1.5634,0.5267,-0.1092,-0.4048,0.5164,9.3000,12.0000,-152.4000,6.3800,1.1900,-7.3100,-0.0524,0.0611,0.0851,-41.2500,-34.7500,31.6875,199.0000,40.5000,-169.8750,0
1776972105.992,9.5505,0.1293,1.5251,-0.4807,0.0141,0.3304,-88.0500,-2.7000,10.6500,9.7109,-1.6616,0.4094,-0.1287,-0.5031,0.5095,9.3000,12.0000,-152.4000,6.3800,1.1400,-7.3900,-0.0524,0.0611,0.0851,-41.2500,-34.7500,31.6875,199.0000,40.5000,-169.8750,0
1776972105.997,9.5505,0.1293,1.5251,-0.4807,0.0141,0.3304,-88.0500,-2.7000,10.6500,9.7109,-1.6616,0.4094,-0.1287,-0.5031,0.5095,10.9500,11.4000,-151.8000,6.4200,1.1100,-7.2900,-0.0295,0.0480,0.1025,-41.6875,-34.0000,32.5000,199.0625,40.5625,-169.8750,0
1776972106.002,9.4547,0.3807,1.7430,-0.4954,0.0011,0.3123,-86.8500,-3.4500,11.4000,9.6534,-1.7478,0.3232,-0.1159,-0.5060,0.5159,10.9500,11.4000,-151.8000,6.4200,1.1100,-7.2900,-0.0295,0.0480,0.1025,-41.6875,-34.0000,32.5000,199.0625,40.5625,-169.8750,0
1776972106.007,9.4547,0.3807,1.7430,-0.4954,0.0011,0.3123,-86.8500,-3.4500,11.4000,9.6534,-1.7478,0.3232,-0.1159,-0.5060,0.5159,11.5500,11.5500,-152.7000,6.4200,1.1100,-7.2900,0.0011,-0.0142,0.1189,-41.6875,-34.0000,32.5000,199.1250,40.5625,-169.9375,0
1776972106.012,9.4140,0.5411,1.9417,-0.4724,0.0032,0.2939,-86.1000,-4.2000,11.1000,9.6510,-1.6903,0.1556,-0.0735,-0.4940,0.5092,11.5500,11.5500,-152.7000,6.4200,1.1300,-7.2200,0.0011,-0.0142,0.1189,-41.6875,-34.0000,32.5000,199.1250,40.5625,-169.9375,0
1776972106.017,9.4140,0.5411,1.9417,-0.4724,0.0032,0.2939,-86.1000,-4.2000,11.1000,9.6510,-1.6903,0.1556,-0.0735,-0.4940,0.5092,10.6500,11.7000,-152.5500,6.4200,1.1300,-7.2200,0.0676,-0.0458,0.1451,-41.6875,-34.0000,32.5000,199.1875,40.5000,-170.0625,0
1776972106.022,9.4810,0.7614,1.9656,-0.4421,0.0035,0.2761,-88.8000,-3.9000,11.8500,9.7779,-1.8292,0.0694,-0.0570,-0.4834,0.5039,10.6500,11.7000,-152.5500,6.1100,1.2300,-7.4200,0.0676,-0.0458,0.1451,-41.6875,-34.0000,32.5000,199.1875,40.5000,-170.0625,0
1776972106.031,9.5193,0.8116,1.8627,-0.4024,0.0083,0.2819,-87.6000,-4.2000,11.4000,9.9886,-1.8890,0.0407,-0.0679,-0.5209,0.5119,10.6500,11.7000,-152.5500,6.4800,1.0700,-7.3900,0.1113,0.0709,0.1516,-41.6875,-34.0000,32.5000,199.2500,40.5625,-170.1875,0
1776972106.036,9.5193,0.8116,1.8627,-0.4024,0.0083,0.2819,-87.6000,-4.2000,11.4000,9.9886,-1.8890,0.0407,-0.0679,-0.5209,0.5119,11.4000,10.6500,-153.3000,6.4800,1.0700,-7.3900,0.0993,0.1953,0.1374,-41.6875,-34.0000,32.5000,199.3125,40.6875,-170.3125,0
1776972106.042,9.5385,0.8571,1.6400,-0.3373,0.0171,0.2782,-86.7000,-4.0500,10.5000,9.7947,-1.7526,-0.1987,-0.0466,-0.5708,0.5089,11.2500,10.6500,-153.3000,6.5700,1.0200,-7.3000,0.0993,0.1953,0.1374,-41.6875,-34.0000,32.5000,199.3125,40.6875,-170.3125,0
1776972106.047,9.4499,1.0343,1.4748,-0.2686,0.0245,0.2870,-86.7000,-4.0500,10.5000,9.7947,-1.7526,-0.1987,-0.0466,-0.5708,0.5089,11.2500,12.3000,-153.4500,6.5700,1.0200,-7.3000,0.0993,0.1953,0.1374,-42.5000,-34.3750,31.0000,199.3750,40.8125,-170.4375,0
1776972106.052,9.4499,1.0343,1.4748,-0.2686,0.0245,0.2870,-86.7000,-4.0500,10.5000,9.7109,-1.5514,-0.2227,-0.0424,-0.6011,0.5025,12.6000,12.0000,-154.2000,6.5000,1.0900,-7.4000,0.0993,0.1734,0.1309,-42.5000,-34.3750,31.0000,199.3750,40.8125,-170.4375,0
1776972106.057,9.4906,1.1349,1.3336,-0.1935,0.0328,0.2939,-86.7000,-4.0500,10.5000,9.7109,-1.5514,-0.2227,-0.0424,-0.6011,0.5025,12.6000,12.0000,-154.2000,6.5000,1.0900,-7.4000,0.0993,0.1734,0.1309,-42.5000,-34.3750,31.0000,199.4375,40.9375,-170.5625,0
1776972106.062,9.4906,1.1349,1.3336,-0.1935,0.0328,0.2939,-87.4500,-4.5000,11.2500,9.6845,-1.2929,-0.2682,-0.0333,-0.6179,0.4858,12.3000,10.5000,-152.4000,6.3800,1.0400,-7.3100,0.1244,0.2029,0.1134,-42.5000,-34.3750,31.0000,199.4375,40.9375,-170.5625,0
1776972106.067,9.4715,1.2809,1.1899,-0.1284,0.0250,0.3046,-87.4500,-4.5000,11.2500,9.6845,-1.2929,-0.2682,-0.0333,-0.6179,0.4858,12.3000,10.5000,-152.4000,6.3800,1.0400,-7.3100,0.1604,0.2476,0.0807,-42.5000,-34.3750,31.0000,199.4375,41.0625,-170.6250,0
1776972106.072,9.4715,1.2809,1.1899,-0.1284,0.0250,0.3046,-87.6000,-6.6000,12.1500,9.6917,-1.3001,-0.5124,-0.0123,-0.6360,0.4724,12.6000,10.0500,-155.5500,6.5700,1.2100,-7.1400,0.1604,0.2476,0.0807,-42.5000,-34.3750,31.0000,199.4375,41.0625,-170.6250,0
1776972106.081,9.4020,1.3767,0.9744,-0.0629,0.0232,0.3022,-87.3000,-5.4000,11.1000,9.5768,-1.3001,-0.5267,0.0653,-0.6592,0.4626,12.6000,10.0500,-155.5500,6.4200,0.9400,-7.3200,0.2040,0.2193,0.0622,-42.5000,-34.3750,31.0000,199.3750,41.1875,-170.7500,0
1776972106.086,9.4667,1.3791,0.8691,-0.0021,0.0107,0.3123,-87.3000,-5.4000,11.1000,9.5768,-1.3001,-0.5267,0.0653,-0.6592,0.4626,12.6000,10.0500,-155.5500,6.4200,0.9400,-7.3200,0.1887,0.1767,0.0764,-42.5000,-34.3750,31.0000,199.3750,41.3125,-170.9375,0
1776972106.092,9.4667,1.3791,0.8691,-0.0021,0.0107,0.3123,-86.2500,-6.0000,12.0000,9.6582,-1.3791,-0.6728,0.1186,-0.6989,0.4666,12.3000,10.0500,-154.2000,6.2800,0.9900,-7.3200,0.1887,0.1767,0.0764,-42.5000,-34.3750,31.0000,199.3750,41.3125,-170.9375,0
1776972106.097,9.3853,1.3096,0.9146,0.0485,0.0173,0.3112,-86.2500,-6.0000,12.0000,9.7827,-1.3695,-0.6153,0.1188,-0.7621,0.5039,12.3000,10.0500,-154.2000,6.2800,0.9900,-7.3200,0.1549,0.1549,0.0916,-42.8750,-34.0000,31.3750,199.4375,41.3750,-171.0625,0
1776972106.102,9.3853,1.3096,0.9146,0.0485,0.0173,0.3112,-86.7000,-5.2500,12.3000,9.7827,-1.3695,-0.6153,0.1188,-0.7621,0.5039,12.1500,10.2000,-154.6500,6.1700,1.0400,-7.1800,0.1549,0.1549,0.0916,-42.8750,-34.0000,31.3750,199.4375,41.3750,-171.0625,0
1776972106.107,9.4308,1.2498,0.8882,0.1055,0.0123,0.3110,-86.7000,-5.2500,12.3000,9.6774,-1.3695,-0.5291,0.1039,-0.7874,0.5292,12.1500,10.2000,-154.6500,6.1700,1.0400,-7.1800,0.1385,0.2214,0.0753,-42.8750,-34.0000,31.3750,199.4375,41.5000,-171.1250,0
1776972106.112,9.4308,1.2498,0.8882,0.1055,0.0123,0.3110,-86.7000,-5.2500,11.5500,9.6774,-1.3695,-0.5291,0.1039,-0.7874,0.5292,12.1500,7.9500,-155.8500,6.2100,0.9400,-7.4000,0.1385,0.2214,0.0753,-42.8750,-34.0000,31.3750,199.4375,41.5000,-171.1250,0
1776972106.117,9.3781,1.1157,0.9122,0.1561,0.0157,0.3054,-86.7000,-5.2500,11.5500,9.5648,-1.3264,-0.8523,0.1370,-0.7986,0.5391,12.1500,7.9500,-155.8500,6.2100,0.9400,-7.4000,0.1342,0.2880,0.0960,-42.8750,-34.0000,31.3750,199.4375,41.6875,-171.2500,0
1776972106.122,9.3781,1.1157,0.9122,0.1561,0.0157,0.3054,-86.2500,-6.0000,11.5500,9.5648,-1.3264,-0.8523,0.1370,-0.7986,0.5391,12.4500,9.4500,-156.1500,5.9200,1.0300,-7.3400,0.1342,0.2880,0.0960,-42.8750,-34.0000,31.3750,199.4375,41.8750,-171.3750,0
1776972106.131,9.1722,0.9098,1.0965,0.2025,0.0176,0.3112,-87.3000,-7.3500,11.1000,9.5600,-1.6927,-0.7183,0.1180,-0.7975,0.5505,12.6000,9.0000,-155.5500,6.2200,0.9500,-7.1700,0.1647,0.3349,0.0993,-42.8750,-34.0000,31.3750,199.4375,41.8750,-171.3750,0
1776972106.141,9.4332,0.7207,1.1253,0.2411,0.0125,0.3072,-87.3000,-7.3500,11.1000,9.4284,-1.7358,-1.3336,0.1159,-0.8156,0.5556,12.6000,9.0000,-155.5500,6.1300,0.9900,-7.0400,0.1429,0.4036,0.1451,-42.8750,-34.0000,31.3750,199.5000,42.1250,-171.5000,0
1776972106.146,9.4092,0.4310,1.2330,0.2809,0.0197,0.3208,-87.3000,-7.3500,11.1000,9.4284,-2.0590,-1.4126,0.1855,-0.7895,0.5297,12.6000,9.0000,-155.5500,6.1300,0.9900,-7.0400,0.1429,0.4036,0.1451,-42.8750,-34.0000,31.3750,199.5000,42.1250,-171.5000,0
1776972106.151,9.4092,0.4310,1.2330,0.2809,0.0197,0.3208,-86.7000,-6.0000,11.5500,9.4284,-2.0590,-1.4126,0.1855,-0.7895,0.5297,13.9500,9.1500,-157.2000,6.0600,1.0100,-7.3300,0.1582,0.4309,0.1538,-43.5625,-33.6875,31.6875,199.5625,42.3125,-171.6250,0
1776972106.156,9.4379,0.1317,1.3910,0.3160,0.0096,0.3445,-86.7000,-6.0000,11.5500,9.5672,-2.6193,-1.5203,0.1924,-0.7765,0.5383,13.9500,9.1500,-157.2000,6.0600,1.0100,-7.3300,0.1582,0.4309,0.1538,-43.5625,-33.6875,31.6875,199.5625,42.3125,-171.6250,0
1776972106.161,9.5744,-0.0862,1.4629,0.3160,0.0096,0.3445,-86.8500,-5.8500,12.1500,9.5672,-2.6193,-1.5203,0.1924,-0.7765,0.5383,11.5500,8.5500,-158.4000,6.4200,0.9200,-6.9900,0.1582,0.5225,0.1789,-43.5625,-33.6875,31.6875,199.5625,42.6250,-171.7500,0
1776972106.166,9.5744,-0.0862,1.4629,0.3152,0.0072,0.3659,-86.8500,-5.8500,12.1500,9.6055,-2.8276,-1.5778,0.2137,-0.7815,0.5449,11.5500,8.5500,-158.4000,6.4200,0.9200,-6.9900,0.1582,0.5225,0.1789,-43.5625,-33.6875,31.6875,199.6250,42.9375,-171.8750,0
1776972106.172,9.6965,-0.1867,1.4724,0.3000,0.0048,0.3888,-88.3500,-6.1500,11.4000,9.6055,-2.8276,-1.5778,0.2137,-0.7815,0.5449,14.2500,7.6500,-157.5000,6.2500,1.0300,-7.1800,0.1604,0.6436,0.1876,-43.5625,-33.6875,31.6875,199.6875,43.3125,-172.0625,0
1776972106.181,9.7516,-0.2298,1.4820,0.2505,-0.0101,0.4098,-87.3000,-6.6000,11.4000,9.6606,-3.0981,-1.2234,0.1823,-0.7666,0.5497,13.9500,8.4000,-157.9500,7.1000,0.4500,-7.3500,0.1604,0.6534,0.2018,-43.5625,-33.6875,31.6875,199.6875,43.3125,-172.0625,0
1776972106.191,9.7492,-0.0742,1.4964,0.2062,-0.0179,0.4207,-86.2500,-6.7500,10.5000,9.7540,-3.1364,-1.2617,0.0946,-0.7714,0.5780,13.0500,6.3000,-158.4000,7.9300,0.2400,-7.6100,0.1320,0.7112,0.2313,-43.5625,-33.6875,31.6875,199.7500,43.7500,-172.1875,0
1776972106.196,9.7492,-0.0742,1.4964,0.2062,-0.0179,0.4207,-86.2500,-6.7500,10.5000,9.8378,-2.9185,-1.1827,0.0522,-0.7829,0.6142,13.0500,6.3000,-158.4000,7.9300,0.2400,-7.6100,0.1320,0.7112,0.2313,-43.5625,-33.6875,31.6875,199.7500,43.7500,-172.1875,0
1776972106.201,9.6893,0.2298,1.5060,0.1679,-0.0352,0.4090,-87.3000,-6.9000,11.8500,9.8378,-2.9185,-1.1827,0.0522,-0.7829,0.6142,13.0500,6.3000,-158.4000,7.2000,0.2100,-7.2000,0.1353,0.7450,0.1713,-43.5000,-32.1875,31.0000,199.8125,44.1250,-172.3125,0
1776972106.206,9.6893,0.2298,1.5060,0.1679,-0.0352,0.4090,-87.3000,-6.9000,11.8500,9.7468,-2.8611,-0.6297,-0.0634,-0.7826,0.6438,13.0500,6.3000,-158.4000,7.2000,0.2100,-7.2000,0.1353,0.7450,0.1713,-43.5000,-32.1875,31.0000,199.8125,44.1250,-172.3125,0
1776972106.211,9.5337,0.5219,1.5634,0.1450,-0.0386,0.3901,-87.3000,-6.9000,11.8500,9.7468,-2.8611,-0.6297,-0.0634,-0.7826,0.6438,15.1500,6.3000,-158.4000,7.5200,1.0000,-7.1800,0.1014,0.6905,0.0567,-43.5000,-32.1875,31.0000,215.1250,44.5625,-172.3125,0
1776972106.216,9.5337,0.5219,1.5634,0.1450,-0.0386,0.3901,-87.3000,-6.9000,11.8500,9.8881,-2.7054,-0.8116,-0.1474,-0.7687,0.6544,15.1500,6.3000,-158.4000,7.5200,1.0000,-7.1800,0.0382,0.6185,0.0556,-43.5000,-32.1875,31.0000,214.9375,44.8750,-172.3750,0
1776972106.222,9.5888,0.6512,1.4700,0.1330,-0.0389,0.3624,-85.9500,-7.5000,11.5500,9.8881,-2.7054,-0.8116,-0.2145,-0.7850,0.6510,16.5000,5.4000,-159.0000,6.7300,0.8000,-7.1200,0.0382,0.6185,0.0556,-43.5000,-32.1875,31.0000,214.8750,45.1250,-172.3125,0
1776972106.232,9.5960,0.7494,1.3120,0.1199,-0.0586,0.3222,-85.9500,-7.5000,11.5500,9.9264,-2.6097,-0.6656,-0.2145,-0.7850,0.6510,14.2500,5.7000,-159.3000,6.7400,0.7300,-7.1200,0.0153,0.4832,0.0273,-43.5000,-32.1875,31.0000,214.8750,45.1250,-172.3125,0
1776972106.242,9.5984,0.9481,1.2186,0.0826,-0.0845,0.2872,-87.6000,-6.9000,10.6500,10.0030,-2.4684,-0.7039,-0.3099,-0.8314,0.6773,15.3000,4.6500,-160.0500,6.8500,0.5800,-7.1000,0.0065,0.5061,0.0502,-43.5000,-32.1875,31.0000,214.7500,45.4375,-172.3125,0
1776972106.246,9.5984,0.9481,1.2186,0.0826,-0.0845,0.2872,-87.6000,-6.9000,10.6500,10.3022,-2.5307,-0.6800,-0.3099,-0.8314,0.6773,15.3000,4.6500,-160.0500,6.8500,0.5800,-7.1000,0.0065,0.5061,0.0502,-43.5000,-32.1875,31.0000,214.7500,45.4375,-172.3125,0
1776972106.251,9.5744,1.1444,1.2354,0.0213,-0.1085,0.2649,-87.3000,-9.0000,10.3500,10.6566,-2.2577,-1.0965,-0.3437,-0.8964,0.7133,16.5000,5.4000,-159.3000,6.8700,1.1100,-6.4600,-0.0175,0.4985,0.0764,-46.1875,-33.0000,29.3750,214.6875,45.6875,-172.3125,0
1776972106.256,9.5744,1.1444,1.2354,0.0213,-0.1085,0.2649,-87.3000,-9.0000,10.3500,10.6566,-2.2577,-1.0965,-0.3437,-0.8964,0.7133,16.5000,5.4000,-159.3000,6.8700,1.1100,-6.4600,-0.0175,0.4985,0.0764,-46.1875,-33.0000,29.3750,214.6875,45.6875,-172.3125,0
1776972106.261,9.9024,1.5754,1.1588,-0.0349,-0.1383,0.2340,-87.4500,-6.7500,11.2500,11.1306,-1.6664,-1.8028,-0.3448,-0.9819,0.7357,16.5000,5.4000,-159.3000,6.9200,0.2600,-7.0900,-0.0578,0.5083,0.0862,-46.1875,-33.0000,29.3750,214.6250,46.0000,-172.3125,0
1776972106.266,9.9024,1.5754,1.1588,-0.0349,-0.1383,0.2340,-87.4500,-6.7500,11.2500,11.1306,-1.6664,-1.8028,-0.3448,-0.9819,0.7357,16.5000,5.4000,-159.3000,6.9200,0.2600,-7.0900,-0.0251,0.6294,0.0447,-46.1875,-33.0000,29.3750,214.5625,46.3750,-172.2500,0
1776972106.272,10.1538,1.8699,0.9864,-0.0890,-0.1913,0.2105,-85.9500,-6.7500,11.2500,11.3892,-1.0175,-1.6257,-0.3432,-1.0938,0.6880,16.6500,3.3000,-162.0000,6.6000,0.0700,-7.3200,-0.0251,0.6294,0.0447,-46.1875,-33.0000,29.3750,214.5625,46.7500,-172.1875,0
1776972106.282,10.2999,2.0111,1.0295,-0.0983,-0.2507,0.1884,-85.9500,-7.5000,11.2500,11.5041,-0.6991,-1.2785,-0.4138,-1.1527,0.6787,15.9000,3.7500,-162.7500,6.8800,0.3100,-7.1000,-0.1353,0.7276,0.0622,-46.1875,-33.0000,29.3750,214.5625,46.7500,-172.1875,0
1776972106.292,10.2113,2.2458,1.2546,-0.0954,-0.2790,0.1503,-86.7000,-8.7000,11.2500,11.5041,-0.8092,-0.9385,-0.4866,-1.2409,0.7272,15.7500,3.4500,-163.9500,7.0600,0.5000,-6.9000,-0.2193,0.8607,0.0196,-46.1875,-33.0000,29.3750,214.6875,47.2500,-172.0000,0
1776972106.296,10.3286,2.4541,1.3240,-0.0954,-0.2790,0.1503,-86.7000,-8.7000,11.2500,11.5041,-0.8092,-0.9385,-0.4866,-1.2409,0.7272,15.7500,3.4500,-163.9500,7.0600,0.5000,-6.9000,-0.2193,0.8607,0.0196,-46.1875,-33.0000,29.3750,214.6875,47.2500,-172.0000,0
1776972106.301,10.3286,2.4541,1.3240,-0.0304,-0.2963,0.0933,-86.7000,-8.7000,11.2500,11.7124,-1.2234,-0.6201,-0.4562,-1.3169,0.7877,16.6500,3.3000,-164.1000,6.7200,0.1800,-7.2500,-0.2738,0.9796,0.0044,-47.1875,-32.1875,27.8750,215.0625,47.7500,-171.7500,0
1776972106.306,10.3477,2.7150,1.4150,0.0354,-0.3288,0.0250,-86.7000,-8.7000,11.2500,11.7124,-1.2234,-0.6201,-0.4562,-1.3169,0.7877,16.6500,3.3000,-164.1000,6.7200,0.1800,-7.2500,-0.2738,0.9796,0.0044,-47.1875,-32.1875,27.8750,215.0625,47.7500,-171.7500,0
1776972106.311,10.3477,2.7150,1.4150,0.0354,-0.3288,0.0250,-87.0000,-8.4000,9.0000,11.9519,-1.3288,-0.5866,-0.3925,-1.4035,0.8580,15.9000,3.0000,-165.6000,7.1400,0.5100,-6.8400,-0.2814,1.0439,-0.0644,-47.1875,-32.1875,27.8750,215.2500,48.3125,-171.4375,0
1776972106.316,10.2759,2.9712,1.5371,0.1143,-0.3360,-0.0594,-87.0000,-8.4000,9.0000,11.9519,-1.3288,-0.5866,-0.3925,-1.4035,0.8580,15.9000,3.0000,-165.6000,7.1400,0.5100,-6.8400,-0.3403,1.1999,-0.1091,-47.1875,-32.1875,27.8750,215.5625,49.0000,-171.0625,0
1776972106.322,10.2759,2.9712,1.5371,0.1143,-0.3360,-0.0594,-87.0000,-8.4000,9.0000,12.2416,-1.7382,-0.7877,-0.5433,-1.4861,0.9499,15.9000,3.0000,-165.6000,7.1100,0.6500,-6.5700,-0.3403,1.1999,-0.1091,-47.1875,-32.1875,27.8750,215.8750,49.7500,-170.6250,0
1776972106.332,10.6853,2.9951,1.6448,0.2118,-0.3461,-0.1580,-86.7000,-7.9500,10.5000,13.1681,-1.9848,-0.4741,-0.6936,-1.6843,1.0488,18.7500,0.3000,-168.1500,7.1900,0.6800,-5.9200,-0.3545,1.3908,-0.1985,-47.1875,-32.1875,27.8750,215.8750,49.7500,-170.6250,0
1776972106.342,11.0708,2.8706,1.4150,0.3227,-0.3714,-0.3022,-87.0000,-8.4000,10.8000,13.9343,-1.8364,0.0814,-0.8495,-1.8146,1.1748,19.6500,0.9000,-170.7000,6.9200,0.7900,-6.6200,-0.4167,1.5097,-0.2422,-47.1875,-32.1875,27.8750,216.2500,50.5000,-170.0625,0
1776972106.347,11.2073,2.5019,1.1971,0.4413,-0.4120,-0.4490,-87.0000,-8.4000,10.8000,13.9343,-1.8364,0.0814,-0.8495,-1.8146,1.1748,21.1500,0.4500,-171.1500,6.9200,0.7900,-6.6200,-0.4167,1.5097,-0.2422,-48.0625,-32.5625,25.8750,216.7500,51.4375,-169.3750,0
1776972106.352,11.2073,2.5019,1.1971,0.4413,-0.4120,-0.4490,-86.1000,-7.8000,12.4500,14.4538,-1.9585,0.8667,-1.1242,-1.9049,1.3123,21.1500,0.4500,-171.1500,6.6500,0.2800,-6.3300,-0.5280,1.7148,-0.2574,-48.0625,-32.5625,25.8750,216.7500,51.4375,-169.3750,0
1776972106.357,10.7955,2.5522,1.0032,0.5263,-0.4727,-0.5966,-86.1000,-7.8000,12.4500,14.4538,-1.9585,0.8667,-1.1242,-1.9049,1.3123,22.2000,-2.4000,-172.2000,6.6500,0.2800,-6.3300,-0.5280,1.7148,-0.2574,-48.0625,-32.5625,25.8750,217.3125,52.6875,-168.5625,0
1776972106.362,10.7955,2.5522,1.0032,0.5263,-0.4727,-0.5966,-87.0000,-7.2000,9.7500,14.4322,-1.7478,1.0151,-1.4107,-2.0350,1.4298,22.2000,-2.4000,-172.2000,6.4000,1.0500,-6.0300,-0.7898,2.3638,-0.1265,-48.0625,-32.5625,25.8750,217.3125,52.6875,-168.5625,0
1776972106.367,10.2232,2.8012,0.4022,0.5489,-0.5860,-0.7408,-87.0000,-7.2000,9.7500,14.4322,-1.7478,1.0151,-1.4107,-2.0350,1.4298,22.2000,-2.4000,-172.2000,6.4000,1.0500,-6.0300,-0.9992,2.9005,-0.0153,-48.0625,-32.5625,25.8750,217.9375,54.3125,-167.5000,0
1776972106.373,10.2759,2.3750,-0.4788,0.5489,-0.5860,-0.7408,-87.0000,-6.7500,9.7500,13.5871,-0.5914,0.9840,-1.6318,-2.1791,1.4903,22.2000,-2.4000,-172.2000,6.4100,0.3300,-6.3600,-0.9992,2.9005,-0.0153,-48.0625,-32.5625,25.8750,218.4375,55.8750,-166.6250,0
1776972106.382,10.2759,2.3750,-0.4788,0.4554,-0.7378,-0.8679,-86.7000,-4.8000,10.0500,12.5911,1.0702,1.0630,-1.6990,-2.1988,1.4258,22.2000,-2.4000,-172.2000,9.2700,1.6600,-6.7600,-1.1432,2.8612,0.3436,-48.0625,-32.5625,25.8750,218.4375,55.8750,-166.6250,0
1776972106.392,9.1051,0.5986,-0.8595,0.3722,-0.8775,-0.9707,-86.7000,-4.8000,10.0500,11.3222,2.4972,-1.3695,-1.7794,-2.2226,1.2697,30.6000,-4.9500,-176.4000,6.8600,1.1800,-7.7200,-1.3090,2.3496,0.6403,-48.0625,-32.5625,25.8750,219.0625,57.2500,-166.0000,0
1776972106.397,9.1051,0.5986,-0.8595,0.3760,-0.9643,-1.1008,-86.7000,-4.8000,10.0500,10.5201,1.8747,-2.9832,-1.8210,-2.2902,1.1008,30.1500,-4.5000,-178.0500,6.8600,1.1800,-7.7200,-1.3090,2.3496,0.6403,-48.0625,-32.5625,25.8750,219.0625,57.2500,-166.0000,0
1776972106.402,9.1530,-0.0790,-1.2258,0.3760,-0.9643,-1.1008,-87.3000,-4.6500,10.3500,10.5201,1.8747,-2.9832,-1.8210,-2.2902,1.1008,30.1500,-4.5000,-178.0500,6.7200,-3.2200,-9.1000,-1.3755,2.7663,0.4527,-50.2500,-33.6875,21.1875,219.8125,58.7500,-165.0000,0
1776972106.406,9.1530,-0.0790,-1.2258,0.2262,-1.0658,-1.2505,-87.3000,-4.6500,10.3500,10.6087,-0.1820,-2.3272,-1.4882,-2.3635,0.9659,32.1000,-1.9500,-180.0000,6.7200,-3.2200,-9.1000,-1.3755,2.7663,0.4527,-50.2500,-33.6875,21.1875,219.8125,58.7500,-165.0000,0
1776972106.412,9.1482,-0.9529,-1.5874,0.2262,-1.0658,-1.2505,-87.3000,-4.6500,10.3500,10.6087,-0.1820,-2.3272,-1.4882,-2.3635,0.9659,32.1000,-1.9500,-180.0000,8.4500,4.3700,-7.9600,-1.1759,3.5921,0.1298,-50.2500,-33.6875,21.1875,220.3125,60.6875,-163.5000,0
1776972106.416,9.1482,-0.9529,-1.5874,-0.1609,-1.1842,-1.3992,-87.3000,-4.6500,10.3500,10.6303,-1.8100,-1.3958,-0.9393,-2.4243,0.9070,31.0500,-1.2000,-183.1500,8.4500,4.3700,-7.9600,-1.4693,4.7244,0.4734,-50.2500,-33.6875,21.1875,220.6875,63.3125,-161.6875,0
1776972106.423,8.7747,-1.2737,-1.0008,-0.5385,-1.2585,-1.5423,-88.2000,-4.5000,9.3000,10.6303,-1.8100,-1.3958,-0.9393,-2.4243,0.9070,31.0500,-1.2000,-183.1500,11.1300,4.8900,-6.1700,-1.4693,4.7244,0.4734,-50.2500,-33.6875,21.1875,219.7500,66.0000,-160.8750,0
1776972106.432,8.6383,-1.3168,-0.4741,-0.6779,-1.1639,-1.6513,-88.3500,-3.4500,6.1500,10.1227,-1.7262,-2.3870,-0.6422,-2.4147,0.8708,31.0500,-1.2000,-183.1500,11.4700,1.4700,-6.8000,-0.2662,4.7691,1.0036,-50.2500,-33.6875,21.1875,219.7500,66.0000,-160.8750,0
1776972106.442,8.5018,-0.3855,-0.4764,-0.7088,-1.0445,-1.7397,-89.1000,-2.2500,7.6500,9.4523,-1.8507,-3.8595,-0.5726,-2.5692,0.9241,31.0500,-1.2000,-183.1500,14.6800,3.2400,-8.5400,0.4909,4.8509,1.2086,-50.2500,-33.6875,21.1875,218.1250,68.7500,-160.5625,0
1776972106.447,8.5018,-0.3855,-0.4764,-0.7088,-1.0445,-1.7397,-89.1000,-2.2500,7.6500,8.6072,-3.2154,-5.0063,-0.4189,-2.6473,0.9483,32.4000,-4.2000,-187.2000,14.6800,3.2400,-8.5400,0.4909,4.8509,1.2086,-50.2500,-33.6875,21.1875,216.6875,71.5625,-160.1875,0
1776972106.452,9.0836,0.1413,-0.0144,-0.5657,-0.9675,-1.8101,-88.6500,-2.1000,5.7000,8.6072,-3.2154,-5.0063,-0.4189,-2.6473,0.9483,32.4000,-4.2000,-187.2000,11.7700,2.9500,-4.1800,0.2389,4.9589,1.4094,-54.2500,-34.0000,11.3750,216.6875,71.5625,-160.1875,0
1776972106.457,9.0836,0.1413,-0.0144,-0.5657,-0.9675,-1.8101,-88.6500,-2.1000,5.7000,8.4683,-4.7501,-5.7245,-0.2942,-2.6646,0.9129,32.1000,-4.9500,-186.4500,11.7700,2.9500,-4.1800,0.2389,4.9589,1.4094,-54.2500,-34.0000,11.3750,215.2500,74.3125,-160.1875,0
1776972106.462,10.7380,0.0766,0.1053,-0.3344,-0.8031,-1.7613,-90.3000,-1.0500,7.3500,8.4683,-4.7501,-5.7245,-0.2942,-2.6646,0.9129,32.1000,-4.9500,-186.4500,18.9400,3.7300,-8.4100,0.3305,4.6993,1.5762,-54.2500,-34.0000,11.3750,215.2500,74.3125,-160.1875,0
1776972106.467,10.7380,0.0766,0.1053,-0.3344,-0.8031,-1.7613,-90.3000,-1.0500,7.3500,7.5346,-6.1675,-5.9496,-0.0400,-2.6830,0.8948,33.1500,-7.9500,-188.5500,18.9400,3.7300,-8.4100,0.1091,5.0015,1.6002,-54.2500,-34.0000,11.3750,213.9375,77.2500,-159.7500,0
1776972106.473,11.4491,0.5100,-0.1844,-0.0965,-0.6230,-1.6545,-88.9500,-0.9000,5.2500,7.5346,-6.1675,-5.9496,-0.0400,-2.6830,0.8948,33.1500,-7.9500,-188.5500,18.6300,2.5100,-11.0000,0.1091,5.0015,1.6002,-54.2500,-34.0000,11.3750,213.1250,79.7500,-159.5000,0
1776972106.482,11.5017,1.6041,-0.2227,0.1106,-0.3784,-1.5394,-88.9500,-0.9000,5.2500,7.0174,-7.1036,-6.5673,0.1543,-2.6180,0.9422,32.2500,-12.0000,-184.0500,15.2100,2.3500,-8.9700,-0.2967,4.3077,1.5435,-54.2500,-34.0000,11.3750,213.1250,79.7500,-159.5000,0
1776972106.492,11.2695,2.1739,0.6488,0.2254,-0.2851,-1.4703,-88.6500,2.8500,5.7000,6.0094,-7.4986,-6.5314,0.2374,-2.4920,0.9268,32.2500,-12.0000,-184.0500,11.2200,1.9200,-7.5200,-0.6927,3.6412,1.3810,-54.2500,-34.0000,11.3750,212.6250,81.9375,-159.1250,0
1776972106.497,11.2695,2.1739,0.6488,0.2254,-0.2851,-1.4703,-88.6500,2.8500,5.7000,4.7764,-7.4771,-6.3901,0.2475,-2.2788,0.7461,32.2500,-12.0000,-184.0500,11.2200,1.9200,-7.5200,-0.6927,3.6412,1.3810,-54.2500,-34.0000,11.3750,212.6250,81.9375,-159.1250,0
1776972106.502,11.2480,2.1380,1.0534,0.3477,-0.2244,-1.4434,-88.6500,2.8500,5.7000,4.7764,-7.4771,-6.3901,0.2475,-2.2788,0.7461,32.2500,-12.0000,-184.0500,7.7500,1.2500,-6.1200,-1.1181,2.9812,1.1301,-56.0625,-30.3750,-1.0625,212.7500,83.6875,-177.6875,0
1776972106.507,11.4227,0.9912,1.2641,0.3477,-0.2244,-1.4434,-88.6500,2.8500,5.7000,3.6320,-6.6559,-5.6647,0.1561,-2.2708,0.5297,29.7000,-38.5500,-170.2500,7.7500,1.2500,-6.1200,-1.1181,2.9812,1.1301,-56.0625,-30.3750,-1.0625,212.7500,83.6875,-177.6875,0
1776972106.512,11.4227,0.9912,1.2641,0.4740,-0.2137,-1.4059,-88.6500,3.3000,5.7000,3.6320,-6.6559,-5.6647,0.1561,-2.2708,0.5297,29.7000,-38.5500,-170.2500,1.8500,3.3800,-11.5500,-1.4006,2.6005,1.0047,-56.0625,-30.3750,-1.0625,213.0000,85.2500,-178.1250,0
1776972106.517,11.5353,0.9074,1.3503,0.4740,-0.2137,-1.4059,-88.6500,3.3000,4.5000,1.1612,-6.9049,-5.3247,0.1553,-1.9889,0.3832,26.4000,-46.8000,-161.2500,1.8500,3.3800,-11.5500,-1.5413,2.2493,1.1465,-56.0625,-30.3750,-1.0625,213.2500,86.6250,-178.7500,0
1776972106.523,11.5353,0.9074,1.3503,0.6307,-0.2249,-1.3667,-87.4500,5.5500,4.2000,1.1085,-5.8538,-4.5753,0.1551,-1.3792,0.0512,26.4000,-46.8000,-161.2500,21.3400,8.7200,-13.5400,-1.5413,2.2493,1.1465,-56.0625,-30.3750,-1.0625,212.8125,87.6250,-179.5000,0
1776972106.532,11.3437,1.1492,1.3862,0.8106,-0.1687,-1.3518,-88.8000,5.4000,4.0500,1.1756,-3.5458,-4.5538,0.0727,-1.6094,0.0024,22.5000,-54.0000,-153.1500,11.6000,9.5200,-16.6100,-0.6425,1.4573,1.3624,-56.0625,-30.3750,-1.0625,212.8125,87.6250,-179.5000,0
1776972106.542,11.4539,1.5802,1.3503,0.9502,-0.0906,-1.3664,-88.8000,5.4000,4.0500,1.1301,-2.9736,-3.5530,0.3046,-0.9241,-0.1119,19.6500,-60.1500,-142.6500,7.3200,6.7700,-14.1300,0.0698,-0.3414,1.6461,-56.0625,-30.3750,-1.0625,211.8750,87.5000,179.5625,0
1776972106.547,10.8721,1.8483,0.9074,1.0200,-0.0296,-1.4053,-87.6000,7.3500,5.5500,1.1301,-2.9736,-3.5530,0.3046,-0.9241,-0.1119,19.6500,-60.1500,-142.6500,7.3200,6.7700,-14.1300,0.0698,-0.3414,1.6461,-56.0625,-30.3750,-1.0625,211.8750,87.5000,179.5625,0
1776972106.552,10.8721,1.8483,0.9074,1.0200,-0.0296,-1.4053,-87.6000,7.3500,5.5500,0.7350,-2.8276,-3.5338,0.9734,-0.9499,-0.2854,19.6500,-60.1500,-142.6500,2.4400,3.0500,-9.0400,0.8247,-1.6461,1.6559,-56.8750,-25.5625,-10.0625,210.6250,86.3125,178.6250,0
1776972106.557,10.7643,1.8100,1.2785,1.1277,0.0410,-1.4346,-86.7000,7.5000,4.5000,0.7350,-2.8276,-3.5338,0.9734,-0.9499,-0.2854,17.2500,-69.9000,-131.8500,2.4400,3.0500,-9.0400,0.8247,-1.6461,1.6559,-56.8750,-25.5625,-10.0625,210.6250,86.3125,178.6250,0
1776972106.562,10.7643,1.8100,1.2785,1.1277,0.0410,-1.4346,-86.7000,7.5000,4.5000,1.7621,-3.0622,-4.4628,1.7237,0.0013,-0.7229,17.2500,-69.9000,-131.8500,1.4900,2.3300,-7.7200,1.2294,-2.2133,1.7333,-56.8750,-25.5625,-10.0625,208.8750,84.8125,177.6250,0
1776972106.567,10.5249,1.6257,1.2929,1.1439,0.2388,-1.4075,-88.9500,7.9500,4.5000,1.7621,-3.0622,-4.4628,1.7237,0.0013,-0.7229,17.4000,-76.8000,-128.2500,1.4900,2.3300,-7.7200,1.2479,-2.4500,1.7301,-56.8750,-25.5625,-10.0625,207.1250,83.1875,176.5625,0
1776972106.573,10.5249,1.6257,1.2929,1.1439,0.2388,-1.4075,-88.9500,7.9500,4.5000,2.3463,-3.9265,-5.8586,2.0366,0.5324,-1.2838,17.8500,-79.9500,-126.1500,1.3600,2.7500,-7.1500,1.2479,-2.4500,1.7301,-56.8750,-25.5625,-10.0625,205.4375,81.5000,148.9375,0
1776972106.582,10.3406,1.2617,1.3216,1.1724,0.3576,-1.3787,-88.9500,7.9500,4.5000,2.8156,-4.8842,-6.3111,2.2140,0.9257,-1.7928,17.5500,-80.7000,-125.1000,0.9800,3.7000,-6.3700,1.0352,-2.4980,1.6144,-56.8750,-25.5625,-10.0625,205.4375,81.5000,148.9375,0
1776972106.592,10.4459,1.4605,0.8260,1.2633,0.4282,-1.3752,-86.5500,9.7500,4.8000,4.4293,-4.6567,-5.7868,2.3718,1.5127,-2.1925,13.2000,-75.1500,-123.0000,1.1800,5.4500,-5.7200,0.8858,-2.5362,1.4323,-56.8750,-25.5625,-10.0625,203.9375,79.9375,148.7500,0
1776972106.597,10.2687,1.6472,0.6584,1.3395,0.5265,-1.3947,-86.5500,9.7500,4.8000,4.4293,-4.6567,-5.7868,2.3718,1.5127,-2.1925,13.2000,-75.1500,-123.0000,1.1800,5.4500,-5.7200,0.8858,-2.5362,1.4323,-56.8750,-25.5625,-10.0625,202.5625,78.3750,149.0000,0
1776972106.602,10.2687,1.6472,0.6584,1.3395,0.5265,-1.3947,-86.5500,9.7500,4.8000,5.5689,-3.7828,-4.3646,1.7419,1.3853,-2.2713,13.2000,-75.1500,-123.0000,2.3900,6.2700,-6.0500,0.8825,-2.4827,1.2163,-57.5000,-20.7500,-6.5625,202.5625,78.3750,149.0000,0
1776972106.607,10.0437,1.6640,0.6297,1.4019,0.5494,-1.4168,-85.5000,11.8500,5.2500,5.5689,-3.7828,-4.3646,1.7419,1.3853,-2.2713,13.2000,-75.1500,-123.0000,2.3900,6.2700,-6.0500,0.8825,-2.4827,1.2163,-57.5000,-20.7500,-6.5625,202.5625,78.3750,149.0000,0
1776972106.612,10.0437,1.6640,0.6297,1.4019,0.5494,-1.4168,-85.5000,11.8500,5.2500,5.4277,-3.2489,-4.2784,1.0789,0.9441,-2.2828,9.0000,-63.3000,-119.2500,4.4700,6.8400,-6.8700,1.0297,-2.3442,0.9490,-57.5000,-20.7500,-6.5625,201.1875,77.0000,149.3750,0
1776972106.619,9.5170,1.6424,0.5124,1.4493,0.5660,-1.4248,-87.6000,11.7000,4.0500,5.4277,-3.2489,-4.2784,0.8921,0.6137,-2.4067,9.0000,-63.3000,-119.2500,6.3300,6.6000,-7.3800,1.3341,-2.4936,0.5858,-57.5000,-20.7500,-6.5625,199.7500,75.6250,150.3125,0
1776972106.624,9.4451,1.8890,0.4812,1.4610,0.6137,-1.4320,-86.2500,12.3000,4.9500,4.7884,-3.5985,-4.4724,0.8921,0.6137,-2.4067,7.5000,-61.8000,-118.9500,6.3300,6.6000,-7.3800,1.3341,-2.4936,0.5858,-57.5000,-20.7500,-6.5625,198.3750,74.2500,152.0625,0
1776972106.632,9.6103,2.0590,0.4717,1.4610,0.6137,-1.4320,-86.2500,12.3000,4.9500,4.7645,-3.9840,-3.8044,1.1919,0.6574,-2.6151,5.7000,-60.3000,-118.9500,5.8200,5.9600,-6.7100,1.5457,-2.7947,0.1069,-57.5000,-20.7500,-6.5625,198.3750,74.2500,152.0625,0
1776972106.642,9.6582,2.3703,0.5866,1.4498,0.6590,-1.4663,-85.8000,13.9500,4.3500,5.4037,-3.7852,-4.1228,1.6156,0.8279,-2.7752,6.9000,-58.8000,-117.1500,5.1700,5.2900,-5.9000,1.5839,-2.9921,-0.4342,-57.5000,-20.7500,-6.5625,197.1875,72.8750,154.4375,0
1776972106.647,9.6582,2.3703,0.5866,1.4498,0.6590,-1.4663,-85.0500,16.3500,4.8000,5.4037,-3.7852,-4.1228,1.6156,0.8279,-2.7752,6.9000,-58.8000,-117.1500,5.1700,5.2900,-5.9000,1.5839,-2.9921,-0.4342,-57.5000,-20.7500,-6.5625,197.1875,72.8750,154.4375,0
1776972106.652,9.5696,2.5355,0.6321,1.4674,0.6779,-1.4607,-85.0500,16.3500,4.8000,6.1148,-3.2058,-4.9680,1.9585,1.0328,-2.9314,3.4500,-58.9500,-115.2000,5.4000,4.2500,-5.0200,1.5566,-3.0521,-0.9425,-57.3750,-17.8750,0.7500,196.2500,71.5625,157.2500,0
1776972106.657,9.5696,2.5355,0.6321,1.4674,0.6779,-1.4607,-85.5000,15.7500,5.2500,6.1148,-3.2058,-4.9680,1.9585,1.0328,-2.9314,3.4500,-58.9500,-115.2000,5.4000,4.2500,-5.0200,1.5566,-3.0521,-0.9425,-57.3750,-17.8750,0.7500,196.2500,71.5625,157.2500,0
1776972106.662,9.4260,2.6935,0.6369,1.4973,0.7072,-1.4336,-85.5000,15.7500,5.2500,6.7876,-2.9736,-5.1858,2.0275,1.1932,-3.1038,3.4500,-58.9500,-115.2000,6.6300,4.1800,-5.4300,1.5141,-2.9921,-1.3679,-57.3750,-17.8750,0.7500,195.6250,70.2500,160.1875,0
1776972106.667,9.4260,2.6935,0.6369,1.4973,0.7072,-1.4336,-85.5000,15.7500,5.2500,6.7876,-2.9736,-5.1858,1.8090,1.2300,-3.2482,3.4500,-58.9500,-115.2000,6.6300,4.1800,-5.4300,1.4257,-2.8133,-1.6919,-57.3750,-17.8750,0.7500,195.1875,69.0625,163.1250,0
1776972106.673,9.4403,2.4349,0.7302,1.5663,0.6997,-1.3965,-85.5000,15.7500,5.2500,7.3885,-3.0622,-4.7166,1.8090,1.2300,-3.2482,1.9500,-58.9500,-113.4000,8.0600,4.3900,-5.8400,1.4257,-2.8133,-1.6919,-57.3750,-17.8750,0.7500,194.9375,67.9375,166.0000,0
1776972106.683,9.4355,2.3080,0.6009,1.6355,0.6574,-1.3587,-84.0000,17.7000,4.5000,7.5729,-3.2944,-4.4365,1.6755,1.2239,-3.3465,2.7000,-57.1500,-113.7000,8.4900,4.4700,-5.6200,1.3723,-2.6791,-1.9090,-57.3750,-17.8750,0.7500,194.9375,67.9375,166.0000,0
1776972106.693,9.3182,2.1452,0.4094,1.6651,0.6075,-1.3203,-84.0000,17.7000,4.5000,7.4148,-3.2058,-4.0438,1.6582,1.2758,-3.4073,-1.9500,-54.4500,-113.1000,9.2300,3.9900,-5.5700,1.4246,-2.6867,-2.0246,-57.3750,-17.8750,0.7500,194.6875,66.7500,168.5625,0
1776972106.697,9.3182,2.1452,0.4094,1.6651,0.6075,-1.3203,-84.4500,20.4000,3.7500,7.5034,-3.3950,-4.3239,1.6878,1.3728,-3.4248,-1.9500,-54.4500,-113.1000,9.2300,3.9900,-5.5700,1.4246,-2.6867,-2.0246,-57.3750,-17.8750,0.7500,194.3125,65.5000,170.8750,0
1776972106.702,9.1506,2.2194,0.1628,1.6713,0.5849,-1.2708,-84.4500,20.4000,3.7500,7.5034,-3.3950,-4.3239,1.6878,1.3728,-3.4248,-2.2500,-55.6500,-113.1000,9.8400,3.9400,-5.8400,1.6264,-2.6322,-2.1031,-53.6875,-20.7500,7.6875,194.3125,65.5000,170.8750,0
1776972106.707,9.1506,2.2194,0.1628,1.6713,0.5849,-1.2708,-83.2500,20.4000,3.0000,7.6543,-3.8331,-4.4748,1.8207,1.3899,-3.4320,-2.2500,-55.6500,-113.1000,9.8400,3.9400,-5.8400,1.6264,-2.6322,-2.1031,-53.6875,-20.7500,7.6875,193.9375,64.1875,172.8750,0
1776972106.713,8.9902,2.1356,-0.0790,1.6702,0.5516,-1.2140,-83.2500,20.4000,3.0000,7.6543,-3.8331,-4.4748,1.8207,1.3899,-3.4320,-3.7500,-53.7000,-109.8000,10.6300,4.2500,-6.1900,1.6264,-2.6322,-2.1031,-53.6875,-20.7500,7.6875,193.9375,64.1875,172.8750,0
1776972106.720,8.8921,2.2960,-0.2274,1.6697,0.5361,-1.1671,-82.2000,23.5500,3.7500,7.9966,-4.2329,-4.6040,1.9263,1.3587,-3.4214,-3.7500,-53.7000,-109.8000,11.4000,4.6800,-6.4800,1.6570,-2.6224,-2.2013,-53.6875,-20.7500,7.6875,193.5625,62.8750,174.6875,0
1776972106.725,8.8921,2.2960,-0.2274,1.6697,0.5361,-1.1671,-82.2000,23.2500,3.4500,7.9966,-4.2329,-4.6040,1.9263,1.3587,-3.4214,-3.7500,-53.7000,-109.8000,11.4000,4.6800,-6.4800,1.6570,-2.6224,-2.2013,-53.6875,-20.7500,7.6875,193.2500,61.5000,176.6250,0
1776972106.733,8.8274,2.5067,-0.3926,1.6465,0.5308,-1.1165,-82.2000,23.2500,3.4500,8.2193,-4.3718,-4.5753,2.0499,1.3909,-3.3923,-5.7000,-52.5000,-109.3500,11.7400,4.6800,-6.6100,1.6886,-2.7009,-2.4936,-53.6875,-20.7500,7.6875,193.0625,60.0625,178.4375,0
1776972106.743,8.9783,2.6576,-0.4166,1.6097,0.4876,-1.0653,-81.7500,24.0000,3.4500,8.5090,-4.1994,-4.4772,2.1029,1.4261,-3.3878,-6.6000,-51.1500,-107.7000,12.3700,4.7600,-6.8600,1.6908,-2.7369,-2.6496,-53.6875,-20.7500,7.6875,193.0625,60.0625,178.4375,0
1776972106.748,8.8514,2.1284,-0.3639,1.6097,0.4876,-1.0653,-81.0000,23.5500,2.4000,8.4779,-3.9863,-4.2114,2.0248,1.4626,-3.3987,-6.6000,-51.1500,-107.7000,12.3700,4.7600,-6.8600,1.6908,-2.7369,-2.6496,-53.6875,-20.7500,7.6875,193.0625,60.0625,178.4375,0
1776972106.753,8.8514,2.1284,-0.3639,1.6193,0.3912,-1.0467,-81.0000,23.5500,2.4000,8.4779,-3.9863,-4.2114,2.0248,1.4626,-3.3987,-6.6000,-48.1500,-106.2000,12.7900,4.9600,-6.9700,1.7235,-2.8285,-2.7838,-46.6875,-27.0000,14.0000,192.9375,58.5000,-179.8125,0
1776972106.758,8.9950,1.5251,0.0383,1.6193,0.3912,-1.0467,-81.0000,23.5500,2.4000,8.2887,-3.8906,-3.9025,1.9060,1.5036,-3.4115,-6.6000,-48.1500,-106.2000,12.7900,4.9600,-6.9700,1.7235,-2.8285,-2.7838,-46.6875,-27.0000,14.0000,192.9375,58.5000,-179.8125,0
1776972106.763,8.9950,1.5251,0.0383,1.5386,0.3800,-0.9731,-81.0000,23.5500,2.4000,8.2887,-3.8906,-3.9025,1.9060,1.5036,-3.4115,-8.2500,-47.2500,-106.5000,12.8300,5.0200,-6.8800,1.7901,-2.9660,-2.8711,-46.6875,-27.0000,14.0000,192.7500,56.8125,-178.3750,0
1776972106.767,9.1650,1.5586,-0.4070,1.5167,0.3499,-0.8911,-81.1500,25.8000,2.1000,8.0852,-3.9409,-3.7541,1.7706,1.5186,-3.4166,-8.2500,-47.2500,-106.5000,12.8300,5.0200,-6.8800,1.8719,-3.1045,-2.9256,-46.6875,-27.0000,14.0000,192.5000,55.0625,-177.0625,0
1776972106.774,9.1650,1.5586,-0.4070,1.5167,0.3499,-0.8911,-81.1500,25.8000,2.1000,8.0852,-3.9409,-3.7541,1.6302,1.5271,-3.4211,-9.6000,-45.9000,-103.0500,12.6600,4.9900,-6.7800,1.8719,-3.1045,-2.9256,-46.6875,-27.0000,14.0000,192.1875,53.1875,-176.0625,0
1776972106.783,9.0501,1.9441,-0.5555,1.4991,0.3134,-0.7957,-81.1500,25.8000,2.1000,7.8266,-4.1803,-4.0414,1.6302,1.5271,-3.4211,-9.6000,-45.9000,-103.0500,12.5700,4.8400,-6.7800,1.9395,-3.2190,-2.9681,-46.6875,-27.0000,14.0000,192.1875,53.1875,-176.0625,0
1776972106.793,8.7556,1.9800,-0.4262,1.4575,0.3283,-0.6928,-79.5000,28.3500,1.6500,7.7764,-4.2617,-4.3862,1.6427,1.5500,-3.4451,-10.9500,-43.2000,-101.7000,11.4700,4.5400,-6.2300,1.9613,-3.3139,-3.0009,-46.6875,-27.0000,14.0000,191.8750,51.1875,-175.1875,0
1776972106.797,8.5928,1.8483,-0.4884,1.4261,0.3760,-0.5622,-80.2500,28.6500,1.2000,8.1738,-3.8954,-4.2042,1.7107,1.6952,-3.4773,-10.9500,-43.2000,-101.7000,11.4700,4.5400,-6.2300,1.9613,-3.3139,-3.0009,-46.6875,-27.0000,14.0000,191.8750,51.1875,-175.1875,0
1776972106.803,8.5928,1.8483,-0.4884,1.4261,0.3760,-0.5622,-80.2500,28.6500,1.2000,8.6431,-3.3208,-3.8523,1.7592,1.8407,-3.5114,-10.6500,-42.4500,-101.2500,11.2300,4.7300,-6.0900,1.9450,-3.3259,-2.9998,-36.0625,-29.3750,18.2500,191.5625,49.2500,-174.4375,0
1776972106.808,8.3869,1.6544,-0.4142,1.3241,0.4533,-0.4082,-80.4000,26.5500,0.0000,8.6431,-3.3208,-3.8523,1.7592,1.8407,-3.5114,-10.6500,-42.4500,-101.2500,11.2300,4.7300,-6.0900,1.9450,-3.3259,-2.9998,-36.0625,-29.3750,18.2500,191.5625,49.2500,-174.4375,0
1776972106.813,8.3869,1.6544,-0.4142,1.3241,0.4533,-0.4082,-80.4000,26.5500,0.0000,8.9112,-2.5929,-3.7469,1.7994,1.9473,-3.5557,-11.4000,-40.6500,-100.2000,11.6200,5.2900,-6.2000,1.9308,-3.2834,-2.9878,-36.0625,-29.3750,18.2500,191.1875,47.2500,-173.8750,0
1776972106.821,8.4276,1.4772,-0.6919,1.2113,0.4970,-0.2201,-81.0000,29.1000,1.2000,8.9112,-2.5929,-3.7469,1.7994,1.9473,-3.5557,-12.4500,-38.4000,-98.4000,12.2000,6.4300,-6.0100,1.9493,-3.2605,-3.0227,-36.0625,-29.3750,18.2500,190.8125,45.2500,-173.4375,0
1776972106.825,8.3390,1.7597,-1.1492,1.1674,0.4972,-0.0669,-79.3500,27.3000,0.3000,9.1459,-1.8076,-3.5817,1.8333,2.0454,-3.5791,-12.4500,-38.4000,-98.4000,12.2000,6.4300,-6.0100,1.9493,-3.2605,-3.0227,-36.0625,-29.3750,18.2500,175.8750,43.2500,-173.0625,0
1776972106.833,8.3390,1.7597,-1.1492,1.1674,0.4972,-0.0669,-79.3500,27.3000,0.3000,9.2153,-1.2091,-3.6464,1.9737,2.1277,-3.5818,-12.4500,-36.9000,-99.9000,12.1000,7.0100,-5.3900,2.0180,-3.2409,-3.1012,-36.0625,-29.3750,18.2500,173.7500,41.3125,-172.8750,0
1776972106.843,8.1570,2.3320,-1.8483,1.2284,0.4447,0.0442,-80.5500,29.1000,0.1500,9.5074,-0.3903,-3.8499,2.1730,2.1938,-3.5293,-12.4500,-36.9000,-99.9000,12.0400,7.4200,-4.6100,2.1391,-3.1601,-3.2201,-36.0625,-29.3750,18.2500,173.7500,41.3125,-172.8750,0
1776972106.848,8.4922,3.2944,-2.3391,1.3102,0.3784,0.0997,-80.5500,29.1000,0.1500,9.5074,-0.3903,-3.8499,2.1730,2.1938,-3.5293,-14.4000,-32.5500,-95.1000,12.0400,7.4200,-4.6100,2.1391,-3.1601,-3.2201,-36.0625,-29.3750,18.2500,171.5000,39.4375,-172.6875,0
1776972106.853,8.4084,3.9121,-2.3104,1.3102,0.3784,0.0997,-80.5500,29.1000,0.1500,9.4882,-0.1245,-4.0893,2.3752,2.0744,-3.3923,-14.4000,-32.5500,-95.1000,12.0900,7.7000,-3.9600,2.2580,-2.9987,-3.3914,-26.8750,-28.0000,19.6875,171.5000,39.4375,-172.6875,0
1776972106.858,8.4084,3.9121,-2.3104,1.4170,0.2713,0.1442,-79.8000,28.6500,0.9000,9.4882,-0.1245,-4.0893,2.3752,2.0744,-3.3923,-15.3000,-30.4500,-95.2500,12.0900,7.7000,-3.9600,2.2580,-2.9987,-3.3914,-26.8750,-28.0000,19.6875,169.1250,37.6250,-172.5625,0
1776972106.863,8.2959,4.1204,-2.1452,1.4170,0.2713,0.1442,-79.8000,28.6500,0.9000,9.6750,-0.6464,-3.9289,2.5977,2.0179,-3.2948,-15.3000,-30.4500,-95.2500,12.5200,7.7900,-3.1800,2.3300,-2.7893,-3.6172,-26.8750,-28.0000,19.6875,169.1250,37.6250,-172.5625,0
1776972106.868,8.2959,4.1204,-2.1452,1.4997,0.2459,0.1943,-79.8000,28.6500,0.9000,9.6750,-0.6464,-3.9289,2.5977,2.0179,-3.2948,-15.3000,-28.2000,-94.8000,12.5200,7.7900,-3.1800,2.3431,-2.5820,-3.8539,-26.8750,-28.0000,19.6875,166.6250,35.9375,-172.4375,0
1776972106.874,8.0613,4.2737,-1.6376,1.6028,0.3046,0.2561,-79.8000,28.6500,0.9000,9.7731,-1.5945,-3.3830,2.8003,1.9444,-3.2082,-15.3000,-28.2000,-94.8000,12.4100,7.4900,-2.5400,2.3431,-2.5820,-3.8539,-26.8750,-28.0000,19.6875,164.0000,34.3750,-172.2500,0
1776972106.883,7.8769,4.2737,-1.4820,1.7989,0.3480,0.3421,-78.7500,29.8500,-0.4500,10.1897,-2.6432,-2.0853,2.9287,1.8980,-3.0792,-16.0500,-26.4000,-94.5000,11.9400,6.5700,-1.9900,2.3017,-2.3246,-4.0830,-26.8750,-28.0000,19.6875,164.0000,34.3750,-172.2500,0
1776972106.893,7.7333,4.1587,-1.5754,1.9851,0.3762,0.4181,-80.1000,30.0000,-0.3000,10.5656,-3.6416,-1.1851,2.8661,1.8034,-2.9004,-16.0500,-26.4000,-94.5000,10.6400,4.2700,-1.1200,2.1413,-1.9406,-4.2455,-26.8750,-28.0000,19.6875,161.3750,33.0000,-171.9375,0
1776972106.898,7.7333,4.1587,-1.5754,1.9851,0.3762,0.4181,-79.3500,30.0000,-1.3500,10.5656,-3.6416,-1.1851,2.8661,1.8034,-2.9004,-16.0500,-26.4000,-94.5000,10.6400,4.2700,-1.1200,2.1413,-1.9406,-4.2455,-26.8750,-28.0000,19.6875,161.3750,33.0000,-171.9375,0
1776972106.903,7.6519,4.0270,-1.4940,2.0819,0.3770,0.4922,-79.3500,30.0000,-1.3500,10.9223,-3.8307,-0.5698,2.7014,1.5937,-2.6929,-16.0500,-26.4000,-94.5000,10.9100,3.9500,-0.3400,1.9199,-1.3755,-4.3153,-23.0625,-22.5000,26.2500,158.7500,31.8750,-171.5625,0
1776972106.908,7.6519,4.0270,-1.4940,2.0819,0.3770,0.4922,-80.2500,29.1000,-1.2000,10.9223,-3.8307,-0.5698,2.7014,1.5937,-2.6929,-13.2000,-22.2000,-91.3500,10.9100,3.9500,-0.3400,1.9199,-1.3755,-4.3153,-23.0625,-22.5000,26.2500,158.7500,31.8750,-171.5625,0
1776972106.913,7.4316,3.9073,-1.4054,2.1330,0.3949,0.5582,-80.2500,29.1000,-1.2000,10.7763,-3.9241,-0.4381,2.5604,1.4759,-2.4968,-13.2000,-22.2000,-91.3500,11.1100,3.8900,0.1800,1.7279,-0.8214,-4.2106,-23.0625,-22.5000,26.2500,156.1250,31.0625,-171.1875,0
1776972106.920,7.2951,4.0318,-1.3408,2.1330,0.3949,0.5582,-79.6500,30.4500,-1.8000,11.0038,-3.9002,-0.6847,2.4992,1.5074,-2.3379,-13.0500,-21.3000,-88.9500,11.6000,3.5400,0.4700,1.6930,-0.3578,-3.9935,-23.0625,-22.5000,26.2500,153.6875,30.5625,-170.8125,0
1776972106.925,7.2951,4.0318,-1.3408,2.1373,0.4133,0.6217,-79.6500,30.4500,-1.8000,11.0038,-3.9002,-0.6847,2.4992,1.5074,-2.3379,-13.0500,-21.3000,-88.9500,11.6000,3.5400,0.4700,1.6930,-0.3578,-3.9935,-23.0625,-22.5000,26.2500,151.3125,30.2500,-170.6250,0
1776972106.933,7.0773,4.1922,-1.1947,2.0542,0.4394,0.6827,-80.5500,30.3000,-2.4000,11.0732,-3.6440,-0.9337,2.4565,1.5572,-2.1917,-12.1500,-19.2000,-88.8000,11.8200,3.4900,0.3400,1.7911,0.0960,-3.7688,-23.0625,-22.5000,26.2500,149.0000,30.2500,-170.4375,0
1776972106.943,6.6319,4.5059,-1.3408,1.9001,0.4943,0.7325,-80.5500,30.3000,-2.4000,10.4507,-3.5985,-1.3024,2.3220,1.6004,-1.9620,-9.7500,-16.5000,-88.9500,14.3300,3.8200,-0.2900,1.8086,0.6272,-3.5856,-23.0625,-22.5000,26.2500,149.0000,30.2500,-170.4375,0
1776972106.948,6.6319,4.5059,-1.3408,1.9001,0.4943,0.7325,-80.5500,28.3500,-1.6500,10.9367,-3.3327,-1.3527,2.1706,1.5796,-1.6260,-9.7500,-16.5000,-88.9500,14.3300,3.8200,-0.2900,1.8086,0.6272,-3.5856,-23.0625,-22.5000,26.2500,146.8125,30.3125,-170.1875,0
1776972106.953,6.8977,5.1954,-1.6065,1.7040,0.5324,0.7133,-80.5500,28.3500,-1.6500,10.9367,-3.3327,-1.3527,2.1706,1.5796,-1.6260,-9.7500,-16.5000,-88.9500,17.5900,3.8800,-2.1000,1.6624,0.7112,-3.4787,-18.5000,-20.0625,32.6875,146.8125,30.3125,-170.1875,0
1776972106.958,6.8977,5.1954,-1.6065,1.7040,0.5324,0.7133,-80.5500,28.3500,-1.6500,11.1378,-3.9097,-1.8435,1.7688,1.2657,-1.1056,-9.7500,-16.5000,-88.9500,17.5900,3.8800,-2.1000,1.6624,0.7112,-3.4787,-18.5000,-20.0625,32.6875,144.6875,30.1875,-169.9375,0
1776972106.963,7.4531,5.9233,-1.8387,1.4738,0.5217,0.6638,-80.5500,28.3500,-1.6500,11.1378,-3.9097,-1.8435,1.7688,1.2657,-1.1056,-9.7500,-16.5000,-88.9500,22.2200,3.7400,-1.8300,1.5501,0.3512,-3.4056,-18.5000,-20.0625,32.6875,144.6875,30.1875,-169.9375,0
1776972106.968,7.8243,6.5434,-1.8076,1.4738,0.5217,0.6638,-80.8500,28.9500,-4.3500,10.3070,-4.3838,-1.0127,1.4461,0.9483,-0.5891,-8.1000,-13.2000,-87.4500,22.2200,3.7400,-1.8300,1.3330,-0.4549,-3.0936,-18.5000,-20.0625,32.6875,142.8125,29.6250,-169.7500,0
1776972106.974,7.8243,6.5434,-1.8076,1.2385,0.5231,0.5566,-80.8500,28.9500,-4.3500,10.3070,-4.3838,-1.0127,1.4461,0.9483,-0.5891,-8.1000,-13.2000,-87.4500,18.0400,2.5400,-0.4600,1.3330,-0.4549,-3.0936,-18.5000,-20.0625,32.6875,141.1250,28.8750,-169.6250,0
1776972106.983,8.0373,6.6008,-1.6281,0.9944,0.5726,0.4431,-81.6000,28.9500,-2.5500,9.4092,-4.0390,0.3448,1.2732,0.6789,-0.1916,-9.0000,-14.2500,-86.5500,14.0300,0.8600,1.8500,1.1999,-0.9327,-2.7162,-18.5000,-20.0625,32.6875,141.1250,28.8750,-169.6250,0
1776972106.993,7.9607,6.1220,-1.0798,0.7322,0.6707,0.3773,-80.5500,27.9000,-4.2000,9.4188,-3.3591,1.4341,1.0701,0.4732,0.1615,-9.3000,-13.0500,-85.8000,10.1900,-1.5600,5.1900,1.0745,-0.7919,-2.2907,-18.5000,-20.0625,32.6875,139.7500,28.1875,-169.5625,0
1776972106.998,7.7141,5.5857,-0.5291,0.4549,0.7578,0.3589,-80.8500,29.2500,-3.6000,9.4882,-3.1244,1.6783,0.7208,0.4205,0.4836,-10.8000,-13.0500,-86.8500,10.1900,-1.5600,5.1900,1.0745,-0.7919,-2.2907,-18.5000,-20.0625,32.6875,139.7500,28.1875,-169.5625,0
1776972107.003,7.7141,5.5857,-0.5291,0.4549,0.7578,0.3589,-80.8500,29.2500,-3.6000,9.4882,-3.1244,1.6783,0.7208,0.4205,0.4836,-10.8000,-13.0500,-86.8500,10.6800,-1.7700,4.6300,0.5727,-0.3382,-1.8599,-16.8750,-19.1875,34.8750,138.6875,27.8125,-169.3750,0
1776972107.008,7.2880,5.2074,-0.1580,0.1074,0.8362,0.3693,-81.1500,27.3000,-3.3000,9.5888,-3.3950,0.3879,0.4066,0.2958,0.8212,-10.8000,-13.0500,-86.8500,10.6800,-1.7700,4.6300,0.5727,-0.3382,-1.8599,-16.8750,-19.1875,34.8750,138.6875,27.8125,-169.3750,0
1776972107.013,7.2880,5.2074,-0.1580,0.1074,0.8362,0.3693,-81.1500,27.3000,-3.3000,9.5888,-3.3950,0.3879,0.4066,0.2958,0.8212,-10.8000,-13.0500,-86.8500,12.8000,-0.5100,3.4300,-0.0393,0.1025,-1.5359,-16.8750,-19.1875,34.8750,137.8125,27.7500,-168.8750,0
1776972107.020,6.9671,4.3527,0.0718,-0.1522,0.9142,0.3898,-80.8500,27.7500,-3.3000,10.4603,-3.8714,-0.5315,0.0301,0.0552,1.1954,-8.8500,-13.2000,-86.2500,9.3800,7.1000,6.9100,-0.4571,0.2018,-1.2741,-16.8750,-19.1875,34.8750,137.1875,27.6875,-168.2500,0
1776972107.024,6.9671,4.3527,0.0718,-0.1522,0.9142,0.3898,-80.8500,27.7500,-3.3000,10.4603,-3.8714,-0.5315,0.0301,0.0552,1.1954,-9.9000,-13.6500,-87.0000,9.3800,7.1000,6.9100,-0.4571,0.2018,-1.2741,-16.8750,-19.1875,34.8750,136.5625,28.0625,-168.0000,0
1776972107.033,7.2856,3.7900,0.0910,-0.2840,0.8561,0.4357,-80.8500,27.7500,-3.3000,11.2336,-2.7342,-1.0511,0.0533,-0.1053,1.4693,-9.9000,-13.6500,-87.0000,6.4400,3.2400,-0.4500,0.1058,0.8334,-0.9937,-16.8750,-19.1875,34.8750,135.8125,28.9375,-168.2500,0
1776972107.043,8.4731,3.1675,0.7183,-0.2992,0.8639,0.5017,-80.5500,27.4500,-1.9500,11.6095,1.5467,-2.1021,0.3355,-0.2033,1.4011,-9.9000,-14.4000,-85.9500,-3.2000,-8.6600,8.2300,1.1323,1.8446,-0.8345,-16.8750,-19.1875,34.8750,135.8125,28.9375,-168.2500,0
1776972107.048,10.8697,1.9417,-1.0343,0.0136,0.8031,0.6233,-80.5500,27.4500,-1.9500,10.9032,5.2289,-4.8028,0.3706,-0.2697,0.9689,-8.7000,-14.5500,-87.1500,-3.2000,-8.6600,8.2300,1.1323,1.8446,-0.8345,-16.8750,-19.1875,34.8750,135.0625,30.4375,-167.7500,0
1776972107.053,10.8697,1.9417,-1.0343,0.0136,0.8031,0.6233,-80.5500,27.4500,-1.9500,10.9032,5.2289,-4.8028,0.3706,-0.2697,0.9689,-8.7000,-12.0000,-87.9000,5.1600,-0.3000,-12.7000,-0.0076,2.9671,-1.1356,-15.0625,-17.5625,37.1875,135.0625,30.4375,-167.7500,0
1776972107.058,14.0707,1.1660,-5.1092,0.4327,0.7104,0.7671,-82.3500,27.0000,-1.8000,10.8793,8.7867,-6.1579,0.7570,0.0871,0.2433,-8.7000,-12.0000,-87.9000,5.1600,-0.3000,-12.7000,-0.0076,2.9671,-1.1356,-15.0625,-17.5625,37.1875,134.5000,32.0000,-167.0000,0
1776972107.063,14.0707,1.1660,-5.1092,0.4327,0.7104,0.7671,-82.3500,27.0000,-1.8000,10.8793,8.7867,-6.1579,0.7570,0.0871,0.2433,-8.7000,-12.0000,-87.9000,4.0700,-1.9100,-17.8200,-0.4134,3.0489,-0.8192,-15.0625,-17.5625,37.1875,134.5000,32.0000,-167.0000,0
1776972107.068,17.3436,2.1955,-8.3677,0.6262,0.4037,0.8170,-81.6000,27.0000,-1.3500,15.2630,11.0038,-6.9216,1.1735,0.5902,-0.1671,-8.7000,-12.0000,-87.9000,4.0700,-1.9100,-17.8200,0.3109,2.3311,-0.9087,-15.0625,-17.5625,37.1875,133.7500,33.1250,-166.6875,0
1776972107.074,21.2749,6.9719,-8.4683,0.6262,0.4037,0.8170,-81.6000,27.0000,-1.3500,21.7896,7.2377,-4.0270,0.8050,0.7869,0.0376,-13.9500,-6.1500,-88.8000,8.9800,-11.1800,-7.5300,0.3109,2.3311,-0.9087,-15.0625,-17.5625,37.1875,133.5625,35.3125,-166.5625,0
1776972107.084,17.8081,10.7141,-1.9441,0.3230,0.0538,0.7509,-81.6000,26.5500,-1.0500,21.9692,3.1915,-10.3669,-1.1375,0.6161,1.0608,-15.9000,-4.0500,-91.5000,35.7100,1.0300,-28.6600,0.3600,3.9848,0.1658,-15.0625,-17.5625,37.1875,133.4375,36.9375,-166.7500,0
1776972107.094,9.1794,8.3989,3.5961,-0.9838,0.0187,0.4580,-81.1500,24.6000,-0.6000,16.2566,0.8068,-8.0996,-1.4181,-0.2507,1.6686,-15.3000,-7.2000,-97.6500,11.1000,0.6600,-1.4500,0.6054,2.9540,0.2083,-15.0625,-17.5625,37.1875,133.4375,36.9375,-166.7500,0
1776972107.098,9.1794,8.3989,3.5961,-1.5516,0.8223,0.1836,-81.1500,22.9500,0.0000,16.2566,0.8068,-8.0996,-1.4181,-0.2507,1.6686,-15.3000,-7.2000,-97.6500,11.1000,0.6600,-1.4500,0.6054,2.9540,0.2083,-15.0625,-17.5625,37.1875,133.5625,36.9375,-166.8750,0
1776972107.104,6.9504,1.4389,2.0542,0.2537,1.1786,0.1298,-81.1500,22.9500,0.0000,9.1626,-1.3982,-3.7206,-0.0125,-1.1447,1.9300,-14.2500,-12.4500,-102.7500,4.3700,2.9100,-10.7900,0.0098,-0.0840,0.2803,-18.0625,-17.2500,35.0625,133.5625,36.9375,-166.8750,0
1776972107.108,6.9504,1.4389,2.0542,0.2537,1.1786,0.1298,-81.0000,24.4500,1.6500,9.1626,-1.3982,-3.7206,-0.0125,-1.1447,1.9300,-14.2500,-12.4500,-102.7500,4.3700,2.9100,-10.7900,0.0098,-0.0840,0.2803,-18.0625,-17.2500,35.0625,133.5625,36.9375,-166.8750,0
1776972107.113,6.9911,-3.9816,2.2362,2.1269,0.9398,0.2236,-81.0000,24.4500,1.6500,3.1939,-2.5235,-0.4477,2.3515,-1.2585,1.6792,-12.1500,-11.4000,-109.0500,6.4500,2.4400,-9.7400,-0.0033,0.2258,0.1309,-18.0625,-17.2500,35.0625,133.6250,37.0625,-166.8750,0
1776972107.121,6.9911,-3.9816,2.2362,2.1269,0.9398,0.2236,-81.0000,24.4500,1.6500,3.1939,-2.5235,-0.4477,2.3515,-1.2585,1.6792,-12.1500,-11.4000,-109.0500,6.4400,1.0000,-6.9500,0.0131,0.4592,0.0884,-18.0625,-17.2500,35.0625,133.6250,37.3125,-166.8750,0
1776972107.126,6.4141,-4.5011,1.7669,2.3651,0.7815,0.5151,-81.0000,24.4500,1.6500,0.5387,-3.7852,3.7062,3.7656,-1.0048,1.3081,-12.1500,-11.4000,-109.0500,6.4400,1.0000,-6.9500,0.0131,0.4592,0.0884,-18.0625,-17.2500,35.0625,133.8125,37.1875,-166.8750,0
1776972107.134,6.9456,-2.9688,1.0104,1.3193,0.8047,0.7733,-80.8500,23.8500,0.6000,3.8188,-4.6400,3.6655,3.5024,-0.4290,1.0541,-11.2500,6.0000,-114.3000,7.2500,3.2500,-6.3100,-0.1811,-0.3043,0.1996,-18.0625,-17.2500,35.0625,134.1875,36.6250,-166.6875,0
1776972107.144,8.5066,-1.3982,0.2634,0.4048,0.7783,0.9686,-80.8500,23.8500,0.6000,7.5753,-6.1459,1.8818,2.1781,-0.3619,1.1175,-9.3000,11.5500,-112.2000,6.7600,2.4100,-6.4500,-0.7592,-1.0581,0.3622,-18.0625,-17.2500,35.0625,134.1875,36.6250,-166.6875,0
1776972107.149,8.5066,-1.3982,0.2634,0.4048,0.7783,0.9686,-81.3000,23.5500,0.1500,7.5753,-6.1459,1.8818,2.1781,-0.3619,1.1175,-9.3000,11.5500,-112.2000,6.7600,2.4100,-6.4500,-0.7592,-1.0581,0.3622,-18.0625,-17.2500,35.0625,134.1875,36.6250,-166.6875,0
1776972107.154,9.8857,-0.5794,-0.0982,-0.0083,0.7365,1.0635,-81.3000,23.5500,0.1500,11.3461,-7.6064,1.2067,0.9118,-0.5417,1.4741,-3.7500,13.6500,-110.8500,4.8000,3.2500,-9.1100,-0.9741,-1.3690,0.4549,-21.7500,-15.8750,33.5625,134.7500,35.9375,-166.5000,0
1776972107.158,9.8857,-0.5794,-0.0982,-0.0083,0.7365,1.0635,-81.9000,22.9500,1.8000,11.3461,-7.6064,1.2067,0.9118,-0.5417,1.4741,-3.7500,13.6500,-110.8500,4.8000,3.2500,-9.1100,-0.9741,-1.3690,0.4549,-21.7500,-15.8750,33.5625,134.7500,35.9375,-166.5000,0
1776972107.164,10.7428,0.1149,0.1221,-0.0530,0.6390,1.1048,-81.9000,22.9500,1.8000,9.3661,-9.1602,-0.9433,-0.0501,-0.5766,1.6164,0.0000,7.0500,-112.2000,6.2400,1.9300,-7.8500,-0.3589,-0.1418,0.2825,-21.7500,-15.8750,33.5625,134.9375,35.9375,-166.4375,0
1776972107.169,10.7428,0.1149,0.1221,-0.0530,0.6390,1.1048,-82.2000,23.2500,1.2000,9.3661,-9.1602,-0.9433,-0.0501,-0.5766,1.6164,0.0000,7.0500,-112.2000,6.2400,1.9300,-7.8500,0.0491,0.3709,0.2334,-21.7500,-15.8750,33.5625,135.0625,36.1250,-166.5000,0
1776972107.175,10.3741,0.2298,0.9122,0.0496,0.6214,1.0515,-82.2000,23.2500,1.2000,10.9750,-8.7556,-2.1524,-0.1865,-0.1274,1.3019,1.5000,-0.1500,-108.0000,6.4300,1.0300,-8.3700,0.0491,0.3709,0.2334,-21.7500,-15.8750,33.5625,135.1250,36.3125,-166.6250,0
1776972107.184,9.8593,0.2131,1.3216,0.2641,0.6664,0.9577,-82.2000,22.0500,3.0000,10.3860,-3.6033,-3.2226,-0.8159,-0.4527,1.2729,1.5000,-0.1500,-108.0000,6.0100,0.5900,-8.5500,0.1440,0.2149,0.2105,-21.7500,-15.8750,33.5625,135.1875,36.4375,-166.7500,0
1776972107.194,9.4379,0.5339,1.5897,0.6336,0.6699,0.8873,-82.2000,21.6000,3.4500,8.5329,1.5203,-4.2042,-1.0064,-0.5135,1.1556,5.8500,-12.4500,-98.8500,5.6200,1.4400,-7.7200,0.1734,0.2618,0.1778,-21.7500,-15.8750,33.5625,135.1875,36.4375,-166.7500,0
1776972107.199,8.8825,1.1468,1.6137,0.6336,0.6699,0.8873,-81.9000,21.9000,3.6000,8.5329,1.5203,-4.2042,-1.0064,-0.5135,1.1556,5.8500,-12.4500,-98.8500,5.6200,1.4400,-7.7200,0.1734,0.2618,0.1778,-21.7500,-15.8750,33.5625,135.2500,36.6250,-166.9375,0
1776972107.204,8.8825,1.1468,1.6137,0.9755,0.7099,0.8497,-81.9000,21.9000,3.6000,8.1714,4.3670,-4.9799,-0.3853,-0.2715,0.8492,5.4000,-13.5000,-97.5000,5.2500,1.5700,-7.5600,0.2476,0.2040,0.1713,-21.3750,-15.6875,34.3750,135.2500,36.6250,-166.9375,0
1776972107.209,8.6263,1.5107,1.0678,0.9755,0.7099,0.8497,-81.9000,21.9000,3.6000,8.1714,4.3670,-4.9799,-0.3853,-0.2715,0.8492,5.4000,-13.5000,-97.5000,5.2500,1.5700,-7.5600,0.2476,0.2040,0.1713,-21.3750,-15.6875,34.3750,135.2500,36.8125,-167.1250,0
1776972107.214,8.6263,1.5107,1.0678,1.2465,0.7131,0.8162,-81.9000,21.9000,3.6000,5.6383,4.5179,-4.5346,0.4890,0.2268,0.2955,2.8500,-11.2500,-97.2000,5.2900,1.6300,-7.5100,0.2203,0.3294,0.1931,-21.3750,-15.6875,34.3750,135.2500,36.8125,-167.1250,0
1776972107.220,8.6550,1.8818,0.4453,1.3803,0.6382,0.7512,-83.1000,20.7000,3.3000,9.1985,5.6958,-3.2226,0.7496,1.0712,-0.1911,2.8500,-11.2500,-97.2000,5.3900,2.0200,-7.1400,0.2236,0.4232,0.2400,-21.3750,-15.6875,34.3750,135.3125,37.0625,-167.3125,0
1776972107.225,8.6550,1.8818,0.4453,1.3803,0.6382,0.7512,-83.1000,20.7000,3.3000,9.1985,5.6958,-3.2226,0.7496,1.0712,-0.1911,-1.0500,-4.8000,-97.2000,5.3900,2.0200,-7.1400,0.2236,0.4232,0.2400,-21.3750,-15.6875,34.3750,135.3750,37.2500,-167.6875,0
1776972107.234,8.8825,1.7861,0.0862,1.3792,0.5233,0.6651,-83.1000,20.7000,3.3000,9.6247,4.9488,-3.2633,0.8559,0.7250,-0.0749,-3.7500,-2.4000,-98.8500,6.0900,1.6000,-7.6300,0.4647,0.2956,0.2716,-21.3750,-15.6875,34.3750,135.4375,37.4375,-167.9375,0
1776972107.244,9.2823,1.4940,0.1556,1.1855,0.3821,0.5841,-82.3500,21.9000,2.8500,10.9918,2.1141,-0.9840,1.3296,0.7501,0.0264,-3.7500,-2.4000,-98.8500,6.4400,0.3400,-8.8400,0.4014,0.2782,0.2378,-21.3750,-15.6875,34.3750,135.4375,37.4375,-167.9375,0
1776972107.249,9.4188,1.2091,0.5411,0.9441,0.2928,0.5401,-82.3500,21.9000,2.8500,10.4267,-1.2354,0.2059,1.5319,0.4746,0.1476,-3.7500,-2.4000,-98.8500,6.4400,0.3400,-8.8400,0.4014,0.2782,0.2378,-21.3750,-15.6875,34.3750,135.4375,37.4375,-167.9375,0
1776972107.254,9.4188,1.2091,0.5411,0.9441,0.2928,0.5401,-82.9500,20.8500,2.7000,10.4267,-1.2354,0.2059,1.5319,0.4746,0.1476,-5.5500,6.1500,-109.8000,6.8400,0.5100,-8.1900,0.2563,0.4134,0.1342,-22.2500,-15.2500,33.2500,135.4375,37.6875,-168.1250,0
1776972107.259,9.4164,0.9625,1.0798,0.7328,0.2630,0.5025,-82.9500,20.8500,2.7000,9.9264,-3.8403,1.1851,1.4290,0.3677,0.2169,-5.5500,6.1500,-109.8000,6.8400,0.5100,-8.1900,0.2563,0.4134,0.1342,-22.2500,-15.2500,33.2500,135.4375,37.6875,-168.1250,0
1776972107.264,9.4164,0.9625,1.0798,0.7328,0.2630,0.5025,-81.9000,21.0000,3.3000,9.9264,-3.8403,1.1851,1.4290,0.3677,0.2169,-5.5500,9.1500,-116.2500,5.6100,1.8300,-7.5500,0.1942,0.1145,0.0938,-22.2500,-15.2500,33.2500,135.4375,37.7500,-168.2500,0
1776972107.269,9.5577,0.6704,1.7071,0.5889,0.2702,0.4836,-81.9000,21.0000,3.3000,9.0453,-5.0685,1.8531,1.1407,0.2814,0.3200,-5.5500,9.1500,-116.2500,5.6100,1.8300,-7.5500,-0.0098,0.0916,0.1254,-22.2500,-15.2500,33.2500,135.5000,37.8125,-168.3125,0
1776972107.275,9.5577,0.6704,1.7071,0.5889,0.2702,0.4836,-84.4500,20.8500,2.7000,9.0453,-5.0685,1.8531,1.1407,0.2814,0.3200,-5.4000,14.2500,-120.3000,5.3900,1.4500,-7.4600,-0.0098,0.0916,0.1254,-22.2500,-15.2500,33.2500,135.5625,37.9375,-168.3125,0
1776972107.284,9.6127,0.6560,2.0399,0.4927,0.3096,0.4834,-81.6000,18.7500,3.3000,8.9543,-5.6383,2.3008,0.6728,0.1812,0.4930,-4.6500,14.2500,-124.2000,4.9900,1.3300,-7.7500,-0.0938,0.2411,0.1287,-22.2500,-15.2500,33.2500,135.5625,37.9375,-168.3125,0
1776972107.294,9.6103,0.7590,2.4062,0.4413,0.3541,0.4871,-84.7500,20.1000,1.6500,9.7324,-4.9081,2.0494,0.1178,0.0773,0.7021,-2.2500,15.4500,-125.1000,6.0900,1.6900,-7.3200,0.0545,0.3971,0.1549,-22.2500,-15.2500,33.2500,135.6250,38.1875,-168.3750,0
1776972107.299,9.4930,1.1636,2.6408,0.4583,0.3909,0.4732,-84.7500,20.1000,1.6500,10.5800,-3.1556,0.7015,-0.2222,-0.1180,0.8633,-2.2500,15.4500,-125.1000,6.0900,1.6900,-7.3200,0.0545,0.3971,0.1549,-22.2500,-15.2500,33.2500,135.6875,38.3750,-168.5000,0
1776972107.304,9.4930,1.1636,2.6408,0.4583,0.3909,0.4732,-84.7500,20.1000,1.6500,10.5800,-3.1556,0.7015,-0.2222,-0.1180,0.8633,-2.2500,15.4500,-125.1000,6.1800,1.5400,-7.4300,0.2127,0.2858,0.1898,-22.1875,-13.6875,33.3750,135.6875,38.3750,-168.5000,0
1776972107.309,9.3972,1.5850,2.2817,0.5689,0.4146,0.4612,-84.7500,20.1000,1.6500,10.3334,-1.4317,-0.6321,-0.2920,-0.1895,0.9204,-2.2500,15.4500,-125.1000,6.1800,1.5400,-7.4300,0.2127,0.2858,0.1898,-22.1875,-13.6875,33.3750,135.7500,38.5000,-168.8125,0
1776972107.314,9.3972,1.5850,2.2817,0.5689,0.4146,0.4612,-82.9500,18.4500,3.4500,10.3334,-1.4317,-0.6321,-0.2920,-0.1895,0.9204,3.7500,14.4000,-123.7500,5.8300,1.5000,-7.8300,0.3676,0.1996,0.2280,-22.1875,-13.6875,33.3750,135.7500,38.5000,-168.8125,0
1776972107.320,9.4212,1.9704,2.0016,0.6491,0.3909,0.4407,-82.9500,18.4500,3.4500,9.9647,-0.3065,-1.5610,-0.1324,-0.0743,0.8308,3.6000,16.8000,-123.6000,5.9000,1.5800,-7.5500,0.4571,0.3262,0.2574,-22.1875,-13.6875,33.3750,135.7500,38.6875,-169.1250,0
1776972107.325,9.5170,2.2314,1.8100,0.7040,0.3544,0.4189,-82.9500,18.4500,3.4500,10.1682,0.1532,-2.0782,0.1490,0.0397,0.6438,3.6000,16.8000,-123.6000,5.9000,1.5800,-7.5500,0.4571,0.3262,0.2574,-22.1875,-13.6875,33.3750,135.8125,38.9375,-169.5000,0
1776972107.334,9.6391,2.0207,1.4820,0.7874,0.3022,0.3994,-82.9500,18.1500,2.4000,10.1682,0.1532,-2.0782,0.1490,0.0397,0.6438,4.6500,19.0500,-122.5500,6.0900,1.3300,-7.7800,0.4920,0.3774,0.2716,-22.1875,-13.6875,33.3750,135.8125,38.9375,-169.5000,0
1776972107.344,9.7252,1.5514,1.1229,0.9134,0.2545,0.3882,-84.0000,20.1000,2.4000,10.2592,0.2682,-2.4205,0.2627,0.0618,0.4612,4.5000,21.1500,-121.9500,6.5500,0.5500,-8.0600,0.5858,0.4691,0.2749,-22.1875,-13.6875,33.3750,135.8125,39.1875,-169.9375,0
1776972107.349,9.7252,1.5514,1.1229,0.9134,0.2545,0.3882,-84.0000,20.1000,2.4000,10.2735,-0.4429,-2.4852,0.3653,0.0120,0.3104,4.8000,19.2000,-120.4500,6.5500,0.5500,-8.0600,0.5858,0.4691,0.2749,-22.1875,-13.6875,33.3750,135.8125,39.1875,-169.9375,0
1776972107.354,9.8617,0.8882,0.7254,0.9569,0.2198,0.3962,-83.8500,18.3000,1.3500,10.2735,-0.4429,-2.4852,0.4373,-0.1346,0.2385,4.8000,19.2000,-120.4500,6.6900,0.3200,-8.0800,0.5781,0.4603,0.2422,-22.1875,-14.0625,33.8750,135.8125,39.5000,-170.3125,0
1776972107.359,9.8617,0.8882,0.7254,0.9569,0.2198,0.3962,-83.8500,18.3000,1.3500,9.9766,-1.1181,-2.0446,0.4373,-0.1346,0.2385,4.8000,19.2000,-120.4500,6.6900,0.3200,-8.0800,0.5781,0.4603,0.2422,-22.1875,-14.0625,33.8750,135.8125,39.5000,-170.3125,0
1776972107.364,9.8114,0.5315,0.5602,0.9081,0.1785,0.4186,-85.2000,19.6500,1.9500,9.5744,-1.7358,-1.2091,0.4879,-0.2843,0.2065,4.8000,19.2000,-120.4500,6.0500,0.8400,-7.7300,0.4767,0.4680,0.1876,-22.1875,-14.0625,33.8750,135.8125,39.7500,-170.6250,0
1776972107.369,9.8114,0.5315,0.5602,0.9081,0.1785,0.4186,-85.2000,19.6500,1.9500,9.5744,-1.7358,-1.2091,0.4879,-0.2843,0.2065,3.0000,18.9000,-121.9500,6.0500,0.8400,-7.7300,0.4025,0.6501,0.1254,-22.1875,-14.0625,33.8750,135.8125,40.1250,-170.8750,0
1776972107.375,9.6199,0.5148,0.5674,0.8154,0.1540,0.4274,-83.4000,20.2500,2.8500,9.3158,-2.2960,-0.7733,0.4501,-0.3094,0.1927,3.0000,18.9000,-121.9500,6.4300,0.6700,-7.8200,0.4025,0.6501,0.1254,-22.1875,-14.0625,33.8750,135.6875,40.5625,-171.0625,0
1776972107.384,9.7300,-0.4094,0.5602,0.6624,0.1564,0.4293,-84.1500,21.0000,1.3500,9.2225,-2.8252,-0.5866,0.4154,-0.2563,0.1820,1.8000,18.7500,-124.2000,6.6500,0.8000,-7.5500,0.3883,0.7854,0.0535,-22.1875,-14.0625,33.8750,135.6250,40.9375,-171.1875,0
1776972107.394,9.7013,0.2777,0.6321,0.4999,0.1418,0.4322,-84.1500,21.0000,1.3500,9.1961,-2.8132,-0.9625,0.2771,-0.1889,0.2126,-0.1500,18.1500,-123.3000,6.9200,0.8400,-7.2000,0.3382,0.7199,0.0131,-22.1875,-14.0625,33.8750,135.6250,40.9375,-171.1875,0
1776972107.399,9.7013,0.2777,0.6321,0.4999,0.1418,0.4322,-84.1500,21.0000,1.3500,9.1961,-2.8132,-0.9625,0.2771,-0.1889,0.2126,1.3500,15.7500,-121.0500,6.9200,0.8400,-7.2000,0.3382,0.7199,0.0131,-22.1875,-14.0625,33.8750,135.5625,41.2500,-171.3125,0
1776972107.404,9.4763,0.8906,0.8236,0.4186,0.1463,0.4322,-83.1000,19.5000,2.5500,9.3039,-2.2218,-1.0391,0.1569,-0.1324,0.2864,1.3500,15.7500,-121.0500,6.8200,0.9300,-7.2800,0.2629,0.5192,0.0218,-22.8750,-13.0000,33.0625,135.5625,41.2500,-171.3125,0
1776972107.409,9.4763,0.8906,0.8236,0.4186,0.1463,0.4322,-83.1000,19.5000,2.5500,9.3039,-2.2218,-1.0391,0.1569,-0.1324,0.2864,-0.1500,14.4000,-121.2000,6.8200,0.9300,-7.2800,0.2629,0.5192,0.0218,-22.8750,-13.0000,33.0625,135.5000,41.4375,-171.3750,0
1776972107.414,9.2847,1.2426,0.6225,0.4048,0.1474,0.3858,-83.1000,19.5000,2.5500,9.5313,-1.4174,-1.0774,0.0730,-0.1199,0.3533,-0.1500,14.4000,-121.2000,6.4800,0.9300,-7.4700,0.2018,0.3305,0.0098,-22.8750,-13.0000,33.0625,135.5000,41.4375,-171.3750,0
1776972107.421,9.5744,1.5921,0.5531,0.4458,0.1793,0.3821,-84.1500,19.5000,1.3500,9.5313,-1.4174,-1.0774,0.0730,-0.1199,0.3533,-0.1500,14.4000,-121.2000,6.4900,0.8600,-7.3700,0.1113,0.3011,0.0360,-22.8750,-13.0000,33.0625,135.5000,41.6250,-171.4375,0
1776972107.426,9.5744,1.5921,0.5531,0.4458,0.1793,0.3821,-84.1500,19.5000,1.3500,9.5936,-0.9146,-1.0151,0.0362,-0.1282,0.3765,-0.1500,14.4000,-121.2000,6.4900,0.8600,-7.3700,0.1113,0.3011,0.0360,-22.8750,-13.0000,33.0625,135.5000,41.6875,-171.5000,0
1776972107.435,9.4451,1.6831,0.6632,0.4879,0.1879,0.3661,-83.1000,17.1000,1.8000,9.4140,-0.8763,-0.8380,0.0653,-0.0957,0.3275,1.0500,12.3000,-121.3500,6.6100,0.9300,-7.2900,0.0218,0.1582,0.0687,-22.8750,-13.0000,33.0625,135.5625,41.6875,-171.5625,0
1776972107.445,9.5217,1.7813,0.7254,0.5585,0.1860,0.3381,-84.4500,18.1500,1.6500,9.6079,-0.9290,-1.3910,0.1106,-0.0546,0.2955,-1.3500,13.0500,-122.1000,6.3500,0.9200,-7.3900,-0.0055,-0.0425,0.0960,-22.8750,-13.0000,33.0625,135.5625,41.6875,-171.5625,0
1776972107.449,9.6175,1.4844,0.6608,0.7336,0.1767,0.3048,-84.4500,18.1500,1.6500,9.6079,-0.9290,-1.3910,0.1106,-0.0546,0.2955,0.3000,13.0500,-122.1000,6.3500,0.9200,-7.3900,-0.0055,-0.0425,0.0960,-22.8750,-13.0000,33.0625,135.6250,41.6875,-171.6250,0
1776972107.454,9.6175,1.4844,0.6608,0.7336,0.1767,0.3048,-84.4500,18.1500,2.4000,9.7659,-0.8763,-1.5419,0.1620,-0.1055,0.2830,0.3000,13.0500,-122.1000,6.2900,0.7900,-7.4400,0.0404,0.0175,0.1036,-25.0625,-12.1875,33.8750,135.6250,41.6875,-171.6250,0
1776972107.459,9.6079,1.0726,0.5243,0.8671,0.1785,0.2790,-84.4500,18.1500,2.4000,9.7659,-0.8763,-1.5419,0.1620,-0.1055,0.2830,0.1500,14.4000,-122.7000,6.2900,0.7900,-7.4400,0.0404,0.0175,0.1036,-25.0625,-12.1875,33.8750,135.6250,41.6875,-171.6250,0
1776972107.464,9.6079,1.0726,0.5243,0.8671,0.1785,0.2790,-84.1500,18.3000,1.0500,9.6941,-1.1732,-1.6041,0.1857,-0.1423,0.2883,0.1500,14.4000,-122.7000,6.5600,0.9300,-7.2800,0.0785,0.1396,0.0938,-25.0625,-12.1875,33.8750,135.6250,41.7500,-171.6875,0
1776972107.469,9.6558,0.8284,0.2274,0.9473,0.2116,0.2601,-84.1500,18.3000,1.0500,9.6941,-1.1732,-1.6041,0.1857,-0.1423,0.2883,0.1500,14.4000,-122.7000,6.5600,0.9300,-7.2800,0.0774,0.1265,0.0916,-25.0625,-12.1875,33.8750,135.6875,41.8750,-171.7500,0
1776972107.475,9.6558,0.8284,0.2274,0.9473,0.2116,0.2601,-85.3500,19.5000,0.3000,9.5936,-1.6328,-1.6592,0.2089,-0.1815,0.2880,0.1500,14.4000,-122.7000,6.6000,0.9400,-7.3300,0.0774,0.1265,0.0916,-25.0625,-12.1875,33.8750,135.6875,41.8750,-171.7500,0
1776972107.484,9.7324,0.6800,0.2969,0.9806,0.2220,0.2755,-85.3500,19.5000,0.3000,9.5505,-1.9465,-1.5945,0.2236,-0.2438,0.2950,0.1500,14.4000,-122.7000,6.4900,0.7700,-7.4100,0.0611,0.1025,0.0927,-25.0625,-12.1875,33.8750,135.6875,41.9375,-171.8750,0
1776972107.489,9.7252,0.6177,0.3807,0.9606,0.2513,0.3078,-85.3500,19.5000,0.3000,9.5505,-1.9465,-1.5945,0.2236,-0.2438,0.2950,0.0000,13.0500,-121.8000,6.4900,0.7700,-7.4100,0.0447,0.1898,0.0764,-25.0625,-12.1875,33.8750,135.7500,42.0000,-171.9375,0
1776972107.495,9.7252,0.6177,0.3807,0.9606,0.2513,0.3078,-85.3500,18.7500,1.8000,9.3422,-2.4588,-1.7047,0.2334,-0.2657,0.2763,0.0000,13.0500,-121.8000,6.4900,0.8700,-7.3200,0.0447,0.1898,0.0764,-25.0625,-12.1875,33.8750,135.7500,42.0000,-171.9375,0
1776972107.500,9.7659,0.5674,0.2394,0.9217,0.2814,0.3517,-85.3500,18.7500,1.8000,9.2057,-2.7557,-2.0111,0.2348,-0.2190,0.2260,0.1500,12.4500,-123.3000,6.4900,0.8700,-7.3200,0.0480,0.2334,0.0622,-25.0625,-11.3750,31.1875,135.7500,42.1250,-171.9375,0
1776972107.505,9.7659,0.5674,0.2394,0.9217,0.2814,0.3517,-85.3500,18.7500,1.8000,9.2057,-2.7557,-2.0111,0.2348,-0.2190,0.2260,1.0500,12.4500,-123.3000,6.5500,0.8900,-7.2600,0.0480,0.2334,0.0622,-25.0625,-11.3750,31.1875,135.7500,42.1250,-171.9375,0
1776972107.510,9.8545,0.5243,0.2825,0.8905,0.2835,0.4090,-85.3500,18.7500,1.8000,9.1985,-2.8802,-2.4541,0.1740,-0.1652,0.1964,1.0500,13.5000,-122.8500,6.5500,0.8900,-7.2600,0.0622,0.1898,0.0687,-25.0625,-11.3750,31.1875,135.8125,42.2500,-172.0000,0
1776972107.515,9.8545,0.5243,0.2825,0.8905,0.2835,0.4090,-85.0500,20.2500,1.0500,9.1985,-2.8802,-2.4541,0.1740,-0.1652,0.1964,1.2000,12.9000,-122.2500,6.5200,0.8300,-7.3100,0.0622,0.1898,0.0687,-25.0625,-11.3750,31.1875,135.8125,42.2500,-172.0000,0
1776972107.520,9.9120,0.5219,0.2394,0.8561,0.2691,0.4530,-85.0500,20.2500,1.0500,9.3374,-2.6480,-2.7605,0.1053,-0.1156,0.1815,1.2000,12.9000,-122.2500,6.5200,0.8300,-7.3100,0.0404,0.1276,0.0873,-25.0625,-11.3750,31.1875,135.8125,42.3125,-172.0625,0
1776972107.525,9.9647,0.4453,0.3304,0.8561,0.2691,0.4530,-84.0000,19.3500,0.1500,9.3374,-2.6480,-2.7605,0.1053,-0.1156,0.1815,1.2000,12.9000,-122.2500,6.5300,0.8500,-7.2800,0.0404,0.1276,0.0873,-25.0625,-11.3750,31.1875,135.8125,42.3125,-172.0625,0
1776972107.534,9.9647,0.4453,0.3304,0.8159,0.2422,0.4964,-84.6000,19.5000,-0.3000,9.5672,-2.2362,-2.5929,0.0344,-0.0778,0.1631,1.2000,12.9000,-122.2500,6.7500,0.5400,-7.3900,0.0120,0.1014,0.0884,-25.0625,-11.3750,31.1875,135.8750,42.3750,-172.1250,0
1776972107.539,9.9359,0.3615,0.3496,0.7706,0.2361,0.5268,-84.6000,19.5000,-0.3000,9.5624,-1.8723,-2.2266,0.0045,-0.0592,0.1322,1.2000,12.9000,-122.2500,6.7500,0.5400,-7.3900,-0.0131,0.0415,0.0818,-25.0625,-11.3750,31.1875,135.9375,42.4375,-172.1875,0
1776972107.546,9.7875,0.2274,0.2897,0.7293,0.2483,0.5572,-86.5500,18.0000,1.3500,9.5624,-1.8723,-2.2266,0.0045,-0.0592,0.1322,0.6000,12.0000,-118.9500,6.6500,0.7700,-7.3400,-0.0131,0.0415,0.0818,-25.0625,-11.3750,31.1875,135.9375,42.4375,-172.1875,0
1776972107.550,9.7875,0.2274,0.2897,0.7293,0.2483,0.5572,-86.5500,18.0000,1.3500,9.3996,-1.8818,-2.0470,0.0048,-0.0536,0.1167,0.6000,12.0000,-118.9500,6.7000,0.8000,-7.2900,-0.0393,0.0065,0.0753,-24.6875,-11.7500,32.7500,136.0000,42.4375,-172.2500,0
1776972107.555,9.6774,0.1820,0.4381,0.7000,0.2710,0.5793,-85.8000,17.5500,1.3500,9.3996,-1.8818,-2.0470,0.0048,-0.0536,0.1167,-1.0500,10.8000,-120.0000,6.7000,0.8000,-7.2900,-0.0393,0.0065,0.0753,-24.6875,-11.7500,32.7500,136.0000,42.4375,-172.2500,0
1776972107.560,9.6774,0.1820,0.4381,0.7000,0.2710,0.5793,-85.8000,17.5500,1.3500,9.2799,-2.0423,-2.2098,0.0322,-0.0482,0.1074,-1.0500,10.8000,-120.0000,6.7000,0.8000,-7.2900,-0.0480,-0.0240,0.0698,-24.6875,-11.7500,32.7500,136.0000,42.4375,-172.2500,0
1776972107.565,9.6486,0.3328,0.5794,0.6848,0.2694,0.6115,-84.6000,18.0000,1.3500,9.2799,-2.0423,-2.2098,0.0322,-0.0482,0.1074,-0.1500,10.9500,-119.1000,6.6600,0.8400,-7.3000,-0.0480,-0.0240,0.0698,-24.6875,-11.7500,32.7500,136.0000,42.4375,-172.2500,0
1776972107.570,9.6486,0.3328,0.5794,0.6848,0.2694,0.6115,-84.6000,18.0000,1.3500,9.2967,-2.3176,-2.2458,0.0312,-0.0597,0.1212,-0.1500,10.9500,-119.1000,6.6600,0.8400,-7.3000,-0.0338,-0.0196,0.0676,-24.6875,-11.7500,32.7500,136.0625,42.3750,-172.2500,0
1776972107.576,9.5241,0.4525,0.6153,0.6571,0.2731,0.6480,-84.6000,18.0000,1.3500,9.2967,-2.3176,-2.2458,0.0312,-0.0597,0.1212,-1.9500,10.9500,-119.4000,6.6800,0.8100,-7.3500,-0.0338,-0.0196,0.0676,-24.6875,-11.7500,32.7500,136.1250,42.3750,-172.3125,0
1776972107.585,9.4260,0.5698,0.6871,0.6446,0.2782,0.6829,-84.4500,18.1500,0.9000,9.3206,-2.3990,-2.2817,0.0139,-0.0565,0.1231,-1.9500,10.9500,-119.4000,6.6700,0.7600,-7.3200,-0.0295,0.0065,0.0578,-24.6875,-11.7500,32.7500,136.1250,42.3750,-172.3125,0
1776972107.590,9.4260,0.5698,0.6871,0.6446,0.2782,0.6829,-84.4500,18.1500,0.9000,9.3254,-2.4253,-2.3583,-0.0248,-0.0184,0.1210,-1.9500,10.9500,-119.4000,6.6700,0.7600,-7.3200,-0.0382,0.0011,0.0480,-24.6875,-11.7500,32.7500,136.1875,42.3750,-172.3125,0
1776972107.596,9.4451,0.7566,0.6752,0.6443,0.2654,0.7080,-84.4500,18.1500,0.9000,9.3254,-2.4253,-2.3583,-0.0509,0.0155,0.1148,-1.5000,11.7000,-119.1000,6.5900,0.7300,-7.3000,-0.0382,0.0011,0.0480,-24.6875,-11.7500,32.7500,136.1875,42.3750,-172.3125,0
1776972107.601,9.4451,0.7566,0.6752,0.6443,0.2654,0.7080,-84.4500,18.1500,0.9000,9.5265,-2.1476,-2.2482,-0.0509,0.0155,0.1148,-1.5000,11.7000,-119.1000,6.5900,0.7300,-7.3000,-0.0382,0.0011,0.0480,-25.7500,-11.3750,31.5625,136.1875,42.3750,-172.3125,0
1776972107.606,9.3781,1.0415,0.6943,0.6366,0.2726,0.7413,-85.5000,16.9500,1.2000,9.5337,-1.8890,-1.8771,-0.0578,0.0437,0.1021,-0.9000,12.4500,-119.4000,6.4600,0.6800,-7.3200,-0.0469,0.0044,0.0338,-25.7500,-11.3750,31.5625,136.1875,42.3750,-172.3125,0
1776972107.610,9.3781,1.0415,0.6943,0.6366,0.2726,0.7413,-85.5000,16.9500,1.2000,9.5337,-1.8890,-1.8771,-0.0578,0.0437,0.1021,-0.9000,12.4500,-119.4000,6.4600,0.6800,-7.3200,-0.0469,0.0044,0.0338,-25.7500,-11.3750,31.5625,136.1875,42.4375,-172.3125,0
1776972107.615,9.3853,1.1349,0.8404,0.6206,0.2787,0.7650,-84.7500,17.7000,1.6500,9.6055,-1.7262,-1.7406,-0.0674,0.1026,0.0778,-0.4500,10.9500,-118.0500,6.4200,0.8400,-7.3200,-0.0524,0.0295,0.0196,-25.7500,-11.3750,31.5625,136.1875,42.4375,-172.3125,0
1776972107.620,9.3853,1.1349,0.8404,0.6206,0.2787,0.7650,-84.7500,17.7000,1.6500,9.6055,-1.7262,-1.7406,-0.0674,0.1026,0.0778,-0.4500,10.9500,-118.0500,6.4200,0.8400,-7.3200,-0.0447,0.0753,0.0185,-25.7500,-11.3750,31.5625,136.2500,42.4375,-172.3125,0
1776972107.626,9.3877,0.8954,0.8523,0.6315,0.2931,0.7954,-84.7500,16.2000,1.9500,9.5792,-1.6328,-1.6520,-0.0482,0.1298,0.0490,-1.9500,10.9500,-118.0500,6.4800,0.8900,-7.2900,-0.0447,0.0753,0.0185,-25.7500,-11.3750,31.5625,136.2500,42.4375,-172.3125,0
1776972107.634,9.3925,0.6800,0.8068,0.6616,0.3232,0.8258,-85.8000,15.6000,-0.3000,9.5792,-1.6328,-1.6520,-0.0386,0.1053,0.0413,-0.1500,12.9000,-117.6000,6.7800,0.7800,-7.3300,-0.0404,0.1156,0.0120,-25.7500,-11.3750,31.5625,136.2500,42.5000,-172.3125,0
1776972107.639,9.3925,0.6800,0.8068,0.6616,0.3232,0.8258,-85.8000,15.6000,-0.3000,9.7276,-1.7214,-1.5562,-0.0386,0.1053,0.0413,-0.1500,12.9000,-117.6000,6.7800,0.7800,-7.3300,-0.0338,0.1069,0.0011,-25.7500,-11.3750,31.5625,136.2500,42.5625,-172.2500,0
1776972107.646,9.4739,0.5363,0.7805,0.7029,0.3533,0.8585,-86.1000,15.6000,0.3000,9.7923,-1.7717,-1.5610,-0.0581,0.0600,0.0549,-0.1500,12.9000,-117.6000,6.6500,0.8100,-7.2500,-0.0338,0.1069,0.0011,-25.7500,-11.3750,31.5625,136.2500,42.5625,-172.2500,0
1776972107.651,9.4475,0.4166,0.8499,0.7029,0.3533,0.8585,-86.1000,15.6000,0.3000,9.7923,-1.7717,-1.5610,-0.0581,0.0600,0.0549,-0.1500,12.9000,-117.6000,6.6500,0.8100,-7.2500,-0.0316,0.0665,0.0000,-24.6875,-11.3750,32.8750,136.2500,42.6250,-172.2500,0
1776972107.656,9.4475,0.4166,0.8499,0.7205,0.3637,0.8972,-85.5000,14.2500,1.9500,9.7181,-1.4796,-1.6735,-0.0613,0.0088,0.0717,-2.2500,11.4000,-119.4000,6.5400,0.7700,-7.2900,-0.0316,0.0665,0.0000,-24.6875,-11.3750,32.8750,136.2500,42.6250,-172.2500,0
1776972107.660,9.3996,0.3903,1.0391,0.7205,0.3637,0.8972,-85.5000,14.2500,1.9500,9.7181,-1.4796,-1.6735,-0.0613,0.0088,0.0717,-2.2500,11.4000,-119.4000,6.5400,0.7700,-7.2900,-0.0360,0.0654,0.0044,-24.6875,-11.3750,32.8750,136.2500,42.6250,-172.2500,0
1776972107.666,9.3996,0.3903,1.0391,0.7317,0.3786,0.9342,-85.5000,14.2500,1.9500,9.5361,-0.9481,-1.7765,-0.0155,0.0200,0.0570,0.3000,12.0000,-117.9000,6.5800,0.8500,-7.2300,-0.0360,0.0654,0.0044,-24.6875,-11.3750,32.8750,136.2500,42.6250,-172.2500,0
1776972107.670,9.3709,0.4836,1.2426,0.7186,0.3874,0.9697,-85.5000,14.2500,1.9500,9.5361,-0.9481,-1.7765,-0.0155,0.0200,0.0570,0.3000,12.0000,-117.9000,6.5800,0.8500,-7.2300,-0.0262,0.0644,0.0087,-24.6875,-11.3750,32.8750,136.2500,42.6875,-172.2500,0
1776972107.676,9.3709,0.4836,1.2426,0.7186,0.3874,0.9697,-85.8000,15.6000,0.3000,9.5265,-0.4549,-1.7885,0.0405,0.0703,0.0264,-2.2500,11.4000,-118.0500,6.5500,0.9100,-7.2200,-0.0262,0.0644,0.0087,-24.6875,-11.3750,32.8750,136.2500,42.6875,-172.2500,0
1776972107.685,9.3805,0.7254,1.1684,0.7173,0.3906,1.0008,-85.8000,15.6000,0.3000,9.7061,-0.0359,-1.5347,0.1031,0.1194,-0.0019,-3.0000,9.4500,-118.0500,6.5700,0.9200,-7.1800,-0.0033,0.0611,0.0185,-24.6875,-11.3750,32.8750,136.3125,42.6875,-172.2500,0
1776972107.690,9.3565,0.6369,1.0151,0.7533,0.3722,1.0195,-85.8000,15.6000,0.3000,9.7061,-0.0359,-1.5347,0.1031,0.1194,-0.0019,-3.0000,9.4500,-118.0500,6.5700,0.9200,-7.1800,0.0185,0.0447,0.0262,-24.6875,-11.3750,32.8750,136.3125,42.7500,-172.2500,0
1776972107.696,9.3565,0.6369,1.0151,0.7533,0.3722,1.0195,-87.7500,14.2500,0.9000,9.6845,0.0742,-1.2067,0.1879,0.0778,0.0197,-3.1500,11.2500,-117.4500,6.6700,0.8400,-7.2200,0.0185,0.0447,0.0262,-24.6875,-11.3750,32.8750,136.3125,42.7500,-172.2500,0
1776972107.701,9.1626,0.5674,0.8284,0.8298,0.3563,1.0142,-87.7500,14.2500,0.9000,9.6845,0.0742,-1.2067,0.1879,0.0778,0.0197,-3.1500,11.2500,-117.4500,6.6800,0.8400,-7.1800,0.0349,0.0415,0.0316,-25.7500,-11.3750,32.0625,136.3125,42.7500,-172.3125,0
1776972107.706,9.1626,0.5674,0.8284,0.8298,0.3563,1.0142,-86.8500,13.2000,0.3000,9.5816,-0.2705,-0.8499,0.2745,0.0496,0.0522,-3.1500,11.2500,-117.4500,6.6800,0.8400,-7.1800,0.0349,0.0415,0.0316,-25.7500,-11.3750,32.0625,136.3125,42.7500,-172.3125,0
1776972107.711,9.1530,0.1556,0.4142,0.9081,0.3190,0.9755,-86.8500,13.2000,0.3000,9.5816,-0.2705,-0.8499,0.2745,0.0496,0.0522,-3.1500,11.2500,-117.4500,6.6800,0.8400,-7.1800,0.0491,0.0251,0.0349,-25.7500,-11.3750,32.0625,136.3125,42.7500,-172.3750,0
1776972107.716,9.1530,0.1556,0.4142,0.9081,0.3190,0.9755,-87.4500,13.8000,-0.4500,9.4284,-0.8452,-0.5219,0.2963,-0.0163,0.1175,-2.7000,11.7000,-118.3500,6.7000,0.6800,-7.2200,0.0491,0.0251,0.0349,-25.7500,-11.3750,32.0625,136.3125,42.7500,-172.3750,0
1776972107.721,9.4834,-0.1556,0.2322,0.9435,0.2705,0.9044,-87.4500,13.8000,-0.4500,9.4284,-0.8452,-0.5219,0.2963,-0.0163,0.1175,-2.7000,11.7000,-118.3500,6.7000,0.6800,-7.2200,0.0578,0.0055,0.0349,-25.7500,-11.3750,32.0625,136.3125,42.7500,-172.4375,0
1776972107.726,9.4834,-0.1556,0.2322,0.9435,0.2705,0.9044,-88.9500,13.0500,0.4500,9.7995,-1.0726,-0.3687,0.3022,-0.0845,0.1972,-2.7000,12.4500,-119.4000,6.6400,0.6700,-7.2300,0.0578,0.0055,0.0349,-25.7500,-11.3750,32.0625,136.3125,42.7500,-172.4375,0
1776972107.735,9.8162,-0.2897,0.3136,0.8977,0.2254,0.8167,-88.0500,13.2000,-0.3000,10.1897,-0.8619,0.3136,0.2774,-0.1452,0.2854,-2.4000,12.0000,-120.3000,6.4700,0.7800,-7.2300,0.0654,0.0207,0.0240,-25.7500,-11.3750,32.0625,136.3125,42.7500,-172.5000,0
1776972107.740,9.9647,-0.2753,0.4860,0.7741,0.1652,0.7349,-88.0500,13.2000,-0.3000,10.1897,-0.8619,0.3136,0.2774,-0.1452,0.2854,-2.4000,12.0000,-120.3000,6.4700,0.7800,-7.2300,0.0764,0.0600,0.0240,-25.7500,-11.3750,32.0625,136.3125,42.8125,-172.5000,0
1776972107.746,9.9647,-0.2753,0.4860,0.7741,0.1652,0.7349,-87.7500,13.5000,0.4500,10.3238,-0.3879,0.4118,0.2571,-0.1921,0.3493,-2.1000,13.0500,-120.7500,6.4500,0.9100,-7.1700,0.0764,0.0600,0.0240,-25.7500,-11.3750,32.0625,136.3125,42.8125,-172.5000,0
1776972107.751,10.2855,-0.1963,0.7542,0.5868,0.1258,0.6472,-87.7500,13.5000,0.4500,10.4818,-0.2490,0.7063,0.2262,-0.2409,0.3957,-2.1000,11.5500,-120.3000,6.4500,0.9100,-7.1700,0.0764,0.0600,0.0240,-26.1875,-11.3750,30.8750,136.3125,42.8750,-172.5625,0
1776972107.756,10.2807,-0.0192,0.8954,0.5868,0.1258,0.6472,-87.7500,13.5000,0.4500,10.4818,-0.2490,0.7063,0.2262,-0.2409,0.3957,-2.1000,11.5500,-120.3000,6.4600,0.8900,-7.0900,0.0905,0.0884,0.0360,-26.1875,-11.3750,30.8750,136.3125,42.8750,-172.5625,0
1776972107.761,10.2807,-0.0192,0.8954,0.3805,0.0877,0.5596,-87.7500,13.5000,0.4500,10.4555,-0.5507,0.7422,0.2422,-0.2998,0.4146,-2.1000,11.5500,-120.3000,6.4600,0.8900,-7.0900,0.0905,0.0884,0.0360,-26.1875,-11.3750,30.8750,136.3125,42.8750,-172.6875,0
1776972107.766,10.1993,0.3112,0.9720,0.3805,0.0877,0.5596,-87.7500,11.4000,0.4500,10.4555,-0.5507,0.7422,0.2422,-0.2998,0.4146,-2.1000,11.5500,-120.3000,6.4600,0.8200,-7.2200,0.0971,0.0938,0.0502,-26.1875,-11.3750,30.8750,136.3125,42.8750,-172.6875,0
1776972107.771,10.1993,0.3112,0.9720,0.1516,0.0322,0.4791,-87.7500,11.4000,0.4500,10.4339,-1.1181,0.6416,0.2859,-0.3730,0.4223,-2.1000,11.5500,-120.3000,6.4600,0.8200,-7.2200,0.1102,0.0982,0.0644,-26.1875,-11.3750,30.8750,136.3125,42.9375,-172.7500,0
1776972107.776,10.0078,0.5531,1.1133,-0.0258,0.0013,0.4018,-87.7500,11.4000,0.4500,10.4339,-1.1181,0.6416,0.2859,-0.3730,0.4223,-0.4500,11.7000,-122.7000,6.5100,0.6900,-7.2700,0.1102,0.0982,0.0644,-26.1875,-11.3750,30.8750,136.3750,43.0000,-172.8750,0
1776972107.785,10.0389,0.4812,1.2330,-0.0258,0.0013,0.4018,-88.9500,11.8500,0.1500,10.3597,-1.8771,0.5483,0.2769,-0.4565,0.4311,1.9500,11.7000,-121.6500,6.3700,0.6200,-7.2200,0.1244,0.1298,0.0665,-26.1875,-11.3750,30.8750,136.3750,43.0000,-172.8750,0
1776972107.790,10.0389,0.4812,1.2330,-0.1228,-0.0099,0.3432,-88.9500,11.8500,0.1500,10.4962,-2.4205,0.5722,0.1713,-0.5793,0.4716,1.9500,11.7000,-121.6500,6.3700,0.6200,-7.2200,0.1429,0.1647,0.0611,-26.1875,-11.3750,30.8750,136.3750,43.0625,-173.0000,0
1776972107.796,9.9503,0.2801,1.3767,-0.2225,-0.0256,0.2923,-87.3000,10.0500,1.0500,10.4962,-2.4205,0.5722,0.1713,-0.5793,0.4716,2.4000,12.7500,-120.0000,6.2000,0.5800,-7.3200,0.1429,0.1647,0.0611,-26.1875,-11.3750,30.8750,136.3750,43.0625,-173.0000,0
1776972107.801,9.9503,0.2801,1.3767,-0.2225,-0.0256,0.2923,-87.3000,10.0500,1.0500,10.3262,-2.6791,-0.0263,0.0621,-0.6989,0.5124,1.3500,12.7500,-121.8000,6.2000,0.5800,-7.3200,0.1145,0.2138,0.0774,-25.0625,-11.3750,32.5000,136.3750,43.1875,-173.0625,0
1776972107.806,10.1323,0.4525,1.6233,-0.3259,-0.0741,0.2499,-87.7500,11.1000,-0.9000,10.3262,-2.6791,-0.0263,0.0621,-0.6989,0.5124,1.3500,12.7500,-121.8000,6.8700,0.3200,-7.3200,0.1145,0.2138,0.0774,-25.0625,-11.3750,32.5000,136.3750,43.1875,-173.0625,0
1776972107.811,10.1323,0.4525,1.6233,-0.3259,-0.0741,0.2499,-87.7500,11.1000,-0.9000,10.2400,-2.4612,0.1221,0.0336,-0.7410,0.5057,3.1500,11.5500,-122.1000,6.8700,0.3200,-7.3200,0.0993,0.2629,0.0273,-25.0625,-11.3750,32.5000,136.3750,43.3750,-173.1250,0
1776972107.816,9.8474,1.0008,1.6759,-0.3994,-0.0882,0.2228,-88.2000,10.6500,-1.2000,10.2400,-2.4612,0.1221,0.0336,-0.7410,0.5057,3.1500,11.5500,-122.1000,6.5000,0.6900,-7.2300,0.0993,0.2629,0.0273,-25.0625,-11.3750,32.5000,136.3750,43.5000,-173.1875,0
1776972107.825,9.6223,1.1971,1.5874,-0.3954,-0.0967,0.1958,-87.7500,10.3500,1.6500,10.1442,-1.9944,0.4118,-0.0306,-0.7139,0.4802,3.1500,11.5500,-122.1000,6.5600,0.6400,-7.3000,0.0545,0.2694,0.0338,-25.0625,-11.3750,32.5000,136.3750,43.5000,-173.1875,0
1776972107.832,9.6223,1.1971,1.5874,-0.3954,-0.0967,0.1958,-87.7500,10.3500,1.6500,10.0509,-1.9704,0.2729,-0.1162,-0.6534,0.4431,2.7000,11.4000,-122.2500,6.5400,0.7200,-7.1900,0.0491,0.2793,0.0284,-25.0625,-11.3750,32.5000,136.3750,43.6250,-173.1875,0
1776972107.836,9.5553,1.3838,1.4796,-0.3898,-0.1279,0.1561,-86.2500,9.9000,0.4500,10.0509,-1.9704,0.2729,-0.1162,-0.6534,0.4431,2.7000,11.4000,-122.2500,6.5400,0.7200,-7.1900,0.0491,0.2793,0.0284,-25.0625,-11.3750,32.5000,136.3125,43.7500,-173.2500,0
1776972107.845,9.6031,1.4150,1.5874,-0.3928,-0.1684,0.1138,-86.2500,9.9000,0.4500,10.0317,-1.7837,0.0575,-0.1529,-0.6406,0.3960,3.4500,11.4000,-124.5000,6.4800,0.6000,-7.0900,0.0622,0.2793,0.0196,-25.0625,-11.3750,32.5000,136.3125,43.7500,-173.2500,0
1776972107.850,9.6031,1.4150,1.5874,-0.3928,-0.1684,0.1138,-86.2500,9.9000,0.4500,10.1394,-1.5969,0.0503,-0.1580,-0.6776,0.3768,2.8500,12.0000,-123.1500,6.4800,0.6000,-7.0900,0.0622,0.2793,0.0196,-25.0625,-11.3750,32.5000,136.3125,43.7500,-173.2500,0
1776972107.855,9.4763,1.4988,1.8100,-0.3579,-0.1916,0.0861,-86.8500,9.7500,0.6000,10.1394,-1.5969,0.0503,-0.1580,-0.6776,0.3768,2.8500,12.0000,-123.1500,6.3700,0.5300,-7.2600,0.0600,0.2945,0.0316,-26.1875,-11.0000,32.8750,136.3125,43.8750,-173.3125,0
1776972107.860,9.4763,1.4988,1.8100,-0.3579,-0.1916,0.0861,-86.8500,9.7500,0.6000,10.1825,-1.6257,-0.7805,-0.1615,-0.7533,0.3805,2.1000,10.8000,-123.6000,6.3700,0.5300,-7.2600,0.0600,0.2945,0.0316,-26.1875,-11.0000,32.8750,136.3125,43.8750,-173.3125,0
1776972107.865,9.4260,1.5012,2.0494,-0.2710,-0.2086,0.0695,-86.8500,9.7500,0.6000,10.1825,-1.6257,-0.7805,-0.1615,-0.7533,0.3805,2.1000,10.8000,-123.6000,6.2200,0.6800,-7.2400,0.0938,0.3665,-0.0033,-26.1875,-11.0000,32.8750,136.3125,44.0625,-173.3750,0
1776972107.870,9.4260,1.5012,2.0494,-0.2710,-0.2086,0.0695,-86.8500,9.7500,0.6000,10.2663,-1.7789,-1.2091,-0.1522,-0.8524,0.3840,3.0000,10.2000,-124.0500,6.2200,0.6800,-7.2400,0.0687,0.4549,0.0305,-26.1875,-11.0000,32.8750,136.3125,44.2500,-173.4375,0
1776972107.876,9.4020,1.5275,2.1835,-0.1577,-0.2124,0.0602,-87.0000,9.9000,0.4500,10.2663,-1.7789,-1.2091,-0.1522,-0.8524,0.3840,3.0000,10.2000,-124.0500,7.0000,0.3700,-7.5100,0.0687,0.4549,0.0305,-26.1875,-11.0000,32.8750,136.3125,44.2500,-173.4375,0
1776972107.884,9.5409,1.5323,2.3607,0.0061,-0.2076,0.0501,-87.0000,9.9000,0.4500,10.2376,-2.1308,-1.3096,-0.0895,-0.9451,0.4018,3.0000,10.2000,-124.0500,6.9100,0.7600,-6.8600,0.0742,0.5181,0.0240,-26.1875,-11.0000,32.8750,136.3125,44.5625,-173.5000,0
1776972107.889,9.5409,1.5323,2.3607,0.0061,-0.2076,0.0501,-88.8000,10.0500,-0.3000,10.1658,-2.5283,-0.7638,-0.0861,-1.0299,0.4373,-0.6000,11.5500,-126.4500,6.9100,0.7600,-6.8600,0.0742,0.5181,0.0240,-26.1875,-11.0000,32.8750,149.1875,44.8125,-173.5000,0
1776972107.896,9.8497,1.5371,2.2793,0.2145,-0.2070,0.0320,-87.3000,9.3000,1.0500,10.5393,-2.4110,-0.5004,-0.0496,-1.0733,0.4703,-0.6000,11.5500,-126.4500,6.6300,0.9700,-7.2200,0.0665,0.4898,0.0251,-26.1875,-11.0000,32.8750,149.1875,44.8125,-173.5000,0
1776972107.901,9.9096,1.3144,2.0925,0.4183,-0.1927,0.0024,-87.3000,9.3000,1.0500,10.5393,-2.4110,-0.5004,-0.0496,-1.0733,0.4703,0.6000,10.0500,-125.7000,6.6300,0.9700,-7.2200,0.0665,0.4898,0.0251,-26.5625,-10.2500,31.6875,149.0000,45.0625,-173.5625,0
1776972107.906,9.9096,1.3144,2.0925,0.4183,-0.1927,0.0024,-87.7500,9.9000,-0.4500,10.7404,-2.0159,-1.2474,-0.0679,-1.1090,0.5124,0.6000,10.0500,-125.7000,6.5000,0.4000,-7.4000,0.0654,0.4756,0.0524,-26.5625,-10.2500,31.6875,149.0000,45.0625,-173.5625,0
1776972107.911,10.0628,1.1636,1.5299,0.6217,-0.1729,-0.0157,-87.7500,9.9000,-0.4500,10.7404,-2.0159,-1.2474,-0.0679,-1.1090,0.5124,0.1500,8.7000,-127.3500,6.5000,0.4000,-7.4000,0.0654,0.4756,0.0524,-26.5625,-10.2500,31.6875,148.8125,45.3750,-173.5625,0
1776972107.916,10.0628,1.1636,1.5299,0.6217,-0.1729,-0.0157,-88.6500,9.4500,-0.1500,10.7715,-1.7957,-1.1803,-0.1948,-1.1178,0.5625,0.1500,8.7000,-127.3500,6.9800,0.3200,-7.4900,0.0774,0.4745,-0.0022,-26.5625,-10.2500,31.6875,148.8125,45.3750,-173.5625,0
1776972107.925,10.1778,1.2881,1.3168,0.7424,-0.1998,-0.0410,-88.6500,9.4500,-0.1500,11.1761,-1.3431,-1.1851,-0.2619,-1.1250,0.5942,1.2000,9.4500,-126.6000,6.9200,0.6700,-7.0400,0.0927,0.6000,-0.0556,-26.5625,-10.2500,31.6875,148.6875,45.6875,-173.5625,0
1776972107.934,10.6255,1.7166,1.2833,0.8183,-0.2388,-0.0895,-87.3000,10.5000,-1.3500,11.1761,-1.3431,-1.1851,-0.2995,-1.1562,0.5854,1.5000,8.4000,-129.0000,6.1600,0.0600,-7.1900,0.0862,0.6240,-0.0742,-26.5625,-10.2500,31.6875,148.5000,46.0000,-173.5000,0
1776972107.939,10.9439,1.8842,1.1851,0.8183,-0.2388,-0.0895,-87.3000,10.5000,-1.3500,11.9806,-0.3496,-1.3479,-0.2995,-1.1562,0.5854,1.5000,8.4000,-129.0000,6.1600,0.0600,-7.1900,0.0862,0.6240,-0.0742,-26.5625,-10.2500,31.6875,148.4375,46.3750,-173.4375,0
1776972107.946,10.9439,1.8842,1.1851,0.8980,-0.3195,-0.1615,-87.0000,9.4500,0.1500,12.4331,0.2274,-1.4653,-0.3120,-1.2569,0.5534,1.5000,8.4000,-129.0000,6.2100,0.0400,-7.7200,0.0000,0.6261,-0.0360,-26.5625,-10.2500,31.6875,148.4375,46.3750,-173.4375,0
1776972107.951,11.1306,1.8794,1.1588,1.0115,-0.3984,-0.2249,-87.0000,9.4500,0.1500,12.4331,0.2274,-1.4653,-0.3120,-1.2569,0.5534,1.0500,7.0500,-131.4000,6.2100,0.0400,-7.7200,-0.1113,0.8247,-0.0785,-27.2500,-10.6875,29.6875,148.5000,46.8125,-173.2500,0
1776972107.956,11.1306,1.8794,1.1588,1.0115,-0.3984,-0.2249,-87.0000,9.4500,0.1500,12.7108,0.6177,-1.2522,-0.3445,-1.4093,0.5841,1.0500,7.0500,-131.4000,6.4900,0.2200,-7.4100,-0.1113,0.8247,-0.0785,-27.2500,-10.6875,29.6875,148.5000,46.8125,-173.2500,0
1776972107.961,11.1450,1.9680,0.8068,1.1034,-0.4887,-0.3051,-87.0000,9.4500,0.1500,12.7108,0.6177,-1.2522,-0.3445,-1.4093,0.5841,0.9000,7.6500,-132.3000,6.4900,0.2200,-7.4100,-0.1669,1.0341,-0.1320,-27.2500,-10.6875,29.6875,148.6250,47.3750,-173.0000,0
1776972107.966,11.1450,1.9680,0.8068,1.1034,-0.4887,-0.3051,-87.0000,11.4000,-3.0000,12.9263,0.2179,-1.1444,-0.4021,-1.5402,0.6139,0.9000,7.6500,-132.3000,6.3500,0.0800,-7.5300,-0.1669,1.0341,-0.1320,-27.2500,-10.6875,29.6875,148.6250,47.3750,-173.0000,0
1776972107.972,11.0492,2.0973,0.7135,1.1322,-0.5404,-0.4026,-87.0000,11.4000,-3.0000,12.9263,0.2179,-1.1444,-0.4021,-1.5402,0.6139,0.6000,7.8000,-132.7500,6.4100,0.3900,-7.2800,-0.2225,1.2010,-0.1658,-27.2500,-10.6875,29.6875,148.8750,48.0000,-172.6875,0
1776972107.977,11.0492,2.0973,0.7135,1.1322,-0.5404,-0.4026,-87.4500,10.6500,-1.9500,12.6941,-0.4501,-0.5435,-0.5145,-1.7227,0.6478,1.2000,7.8000,-132.7500,6.4100,0.3900,-7.2800,-0.2225,1.2010,-0.1658,-27.2500,-10.6875,29.6875,149.0625,48.8125,-172.3750,0
1776972107.986,10.6063,2.0087,0.6225,1.1607,-0.5375,-0.4959,-88.2000,11.8500,-1.9500,12.3565,-0.9625,-0.2514,-0.5673,-1.8594,0.7171,1.2000,6.1500,-136.2000,6.4000,0.4700,-6.9500,-0.2411,1.4224,-0.1876,-27.2500,-10.6875,29.6875,149.0625,48.8125,-172.3750,0
1776972107.996,10.2735,1.8794,0.4908,1.1876,-0.5292,-0.5785,-88.2000,11.8500,-1.9500,11.9159,-0.7398,-0.7949,-0.6222,-1.9207,0.7829,1.2000,6.1500,-136.2000,6.8400,0.3500,-6.6500,-0.1909,1.6242,-0.2422,-27.2500,-10.6875,29.6875,149.1875,49.6875,-171.9375,0
1776972108.000,9.8737,1.9537,0.1053,1.1754,-0.5793,-0.6536,-88.2000,12.3000,-3.7500,11.9159,-0.7398,-0.7949,-0.6222,-1.9207,0.7829,1.2000,6.1500,-136.2000,6.8400,0.3500,-6.6500,-0.1909,1.6242,-0.2422,-27.2500,-10.6875,29.6875,149.1875,49.6875,-171.9375,0
1776972108.006,9.2225,1.6041,-0.4046,1.1754,-0.5793,-0.6536,-88.0500,12.0000,-3.7500,11.5448,-0.3424,-1.3910,-0.7464,-1.9806,0.8431,1.2000,6.1500,-136.2000,6.7100,0.8700,-5.9000,-0.2116,1.7890,-0.2411,-28.0000,-10.2500,29.6875,149.3125,50.6250,-171.5000,0
1776972108.010,9.2225,1.6041,-0.4046,1.0984,-0.7027,-0.7309,-88.0500,12.0000,-4.8000,11.5448,-0.3424,-1.3910,-0.7464,-1.9806,0.8431,3.9000,4.5000,-140.2500,6.7100,0.8700,-5.9000,-0.2116,1.7890,-0.2411,-28.0000,-10.2500,29.6875,149.3125,50.6250,-171.5000,0
1776972108.015,8.9878,1.9489,-0.8811,1.0984,-0.7027,-0.7309,-88.0500,12.0000,-4.8000,11.3485,-0.2897,-1.4150,-0.8450,-2.0414,0.9222,3.9000,4.5000,-140.2500,7.3900,-0.7500,-5.2400,-0.3938,2.1500,-0.1069,-28.0000,-10.2500,29.6875,149.5000,51.8125,-171.0000,0
1776972108.020,8.9878,1.9489,-0.8811,0.9505,-0.7767,-0.8354,-87.6000,12.9000,-2.8500,11.3485,-0.2897,-1.4150,-0.8450,-2.0414,0.9222,3.0000,4.6500,-142.6500,7.3900,-0.7500,-5.2400,-0.5258,2.3889,-0.0731,-28.0000,-10.2500,29.6875,149.8125,53.1250,-170.3750,0
1776972108.026,8.7245,1.3312,-0.9409,0.8652,-0.8879,-0.8948,-87.6000,12.9000,-2.8500,11.1402,-0.1891,-1.4653,-0.7133,-2.2044,0.8972,2.8500,3.0000,-144.6000,8.5900,2.7900,-7.0500,-0.5258,2.3889,-0.0731,-28.0000,-10.2500,29.6875,150.4375,54.6250,-169.5000,0
1776972108.036,8.7412,0.6584,-0.8284,0.7991,-0.9459,-0.9675,-87.6000,12.9000,-2.8500,9.9838,-0.0120,-1.6257,-0.5167,-2.3140,0.7959,3.6000,4.5000,-145.9500,8.4600,-0.2000,-5.7400,-0.9577,2.7827,0.0611,-28.0000,-10.2500,29.6875,150.4375,54.6250,-169.5000,0
1776972108.046,8.8729,-0.1484,-0.8906,0.7344,-0.9755,-1.0797,-87.0000,14.5500,-4.2000,9.4643,-0.4549,-1.9728,-0.3888,-2.3577,0.7261,3.6000,4.5000,-145.9500,9.4400,0.3600,-5.8500,-1.2414,2.9289,0.2891,-28.0000,-10.2500,29.6875,151.1875,56.2500,-168.5625,0
1776972108.050,8.8729,-0.1484,-0.8906,0.7344,-0.9755,-1.0797,-87.0000,14.5500,-4.2000,9.3781,-1.2665,-1.8244,-0.1764,-2.4325,0.7245,3.6000,4.5000,-145.9500,9.4400,0.3600,-5.8500,-1.2414,2.9289,0.2891,-28.0000,-10.2500,29.6875,151.1875,56.2500,-168.5625,0
1776972108.055,9.0142,-0.8906,-0.7518,0.5561,-0.9513,-1.2111,-87.0000,14.5500,-4.2000,9.3781,-1.2665,-1.8244,-0.1764,-2.4325,0.7245,3.6000,4.5000,-145.9500,8.5500,3.6000,-8.0900,-1.5293,2.4271,0.6054,-31.2500,-10.6875,27.0000,152.0000,57.6250,-167.8125,0
1776972108.060,9.0142,-0.8906,-0.7518,0.5561,-0.9513,-1.2111,-87.6000,16.3500,-5.5500,9.5146,-1.8914,-1.7454,0.1569,-2.4800,0.7623,3.6000,4.5000,-145.9500,8.5500,3.6000,-8.0900,-1.5293,2.4271,0.6054,-31.2500,-10.6875,27.0000,152.0000,57.6250,-167.8125,0
1776972108.065,9.1411,-0.4214,-0.1484,0.3685,-0.8844,-1.3014,-87.6000,16.3500,-5.5500,9.5146,-1.8914,-1.7454,0.1569,-2.4800,0.7623,3.9000,0.3000,-148.2000,10.0000,3.8900,-8.0700,-0.7614,2.2329,0.8738,-31.2500,-10.6875,27.0000,152.0000,58.9375,-167.7500,0
1776972108.070,9.1411,-0.4214,-0.1484,0.3685,-0.8844,-1.3014,-86.8500,15.1500,-6.1500,9.4164,-2.2960,-2.0207,0.3874,-2.4890,0.8223,3.9000,0.3000,-148.2000,10.0000,3.8900,-8.0700,0.7538,3.1187,1.0854,-31.2500,-10.6875,27.0000,150.3125,60.7500,-168.5625,0
1776972108.077,9.0908,-0.0814,0.2011,0.3195,-0.8111,-1.3619,-86.8500,15.9000,-5.5500,9.4164,-2.2960,-2.0207,0.3874,-2.4890,0.8223,4.9500,1.5000,-149.8500,9.6800,1.2500,-6.5000,0.7538,3.1187,1.0854,-31.2500,-10.6875,27.0000,148.0000,62.5625,-170.1875,0
1776972108.086,9.2416,0.3496,0.9242,0.2931,-0.7056,-1.3867,-86.8500,15.9000,-5.5500,9.1961,-3.1508,-2.7342,0.4807,-2.4216,0.8431,5.2500,-0.4500,-150.4500,9.3800,1.5000,-6.9400,1.3755,3.0751,1.4323,-31.2500,-10.6875,27.0000,148.0000,62.5625,-170.1875,0
1776972108.096,9.4930,0.6201,1.2330,0.2611,-0.6182,-1.3941,-87.6000,17.5500,-7.6500,9.2153,-3.9863,-3.3303,0.5870,-2.3515,0.8561,5.7000,-2.2500,-151.6500,11.7000,3.1200,-8.4600,1.5272,3.2038,1.5828,-31.2500,-10.6875,27.0000,145.5625,64.5000,-172.2500,0
1776972108.101,9.4930,0.6201,1.2330,0.2611,-0.6182,-1.3941,-84.1500,17.1000,-7.6500,9.3230,-4.3598,-3.5195,0.6915,-2.3595,0.8415,5.7000,-2.2500,-151.6500,11.7000,3.1200,-8.4600,1.5272,3.2038,1.5828,-31.2500,-10.6875,27.0000,143.0000,66.4375,-174.8750,0
1776972108.106,9.7707,1.0870,1.4581,0.2305,-0.5481,-1.4101,-84.1500,17.1000,-7.6500,9.3230,-4.3598,-3.5195,0.6915,-2.3595,0.8415,5.7000,-2.2500,-151.6500,13.1600,4.4600,-8.5800,1.6875,3.3445,1.7617,-33.8750,-11.3750,21.5000,143.0000,66.4375,-174.8750,0
1776972108.111,9.7707,1.0870,1.4581,0.2305,-0.5481,-1.4101,-86.1000,18.3000,-6.9000,8.9639,-4.3503,-3.7565,0.8860,-2.3241,0.7789,5.7000,-2.2500,-151.6500,13.1600,4.4600,-8.5800,1.6875,3.3445,1.7617,-33.8750,-11.3750,21.5000,140.1875,68.2500,-178.3750,0
1776972108.116,9.6774,1.8603,1.8699,0.2358,-0.4783,-1.4389,-86.1000,18.3000,-6.9000,8.9639,-4.3503,-3.7565,0.8860,-2.3241,0.7789,8.1000,-8.4000,-153.3000,16.3900,8.1700,-8.0700,1.8937,3.1754,2.0540,-33.8750,-11.3750,21.5000,140.1875,68.2500,-178.3750,0
1776972108.123,9.7324,2.3463,2.0351,0.2955,-0.3704,-1.4589,-86.1000,18.3000,-6.9000,8.9304,-4.6112,-4.6400,1.0144,-2.3886,0.7330,8.1000,-8.4000,-153.3000,17.2700,6.4500,-9.8400,2.1991,2.8700,2.4860,-33.8750,-11.3750,21.5000,137.0625,69.8125,176.6250,0
