timestamp,thigh_acc_x,thigh_acc_y,thigh_acc_z,thigh_gyro_x,thigh_gyro_y,thigh_gyro_z,thigh_mag_x,thigh_mag_y,thigh_mag_z,shank_acc_x,shank_acc_y,shank_acc_z,shank_gyro_x,shank_gyro_y,shank_gyro_z,shank_mag_x,shank_mag_y,shank_mag_z,foot_acc_x,foot_acc_y,foot_acc_z,foot_gyro_x,foot_gyro_y,foot_gyro_z,foot_mag_x,foot_mag_y,foot_mag_z,foot_euler_x,foot_euler_y,foot_euler_z,perturbation_event
1776971849.852,9.5529,-0.0239,0.8428,0.2928,0.1529,0.4999,-72.6000,-14.5500,-20.1000,9.5481,-1.2330,0.9768,-0.2350,-0.6035,0.5041,12.7500,76.6500,-232.8000,6.5100,0.6300,-7.4500,0.0687,0.1516,0.0818,-61.2500,24.0000,59.1875,313.8750,40.1250,-176.0625,0
1776971849.857,9.4858,0.1460,0.6752,0.1711,0.1210,0.4895,-73.6500,-15.1500,-21.0000,9.4978,-1.2426,0.8092,-0.2518,-0.6360,0.5353,13.0500,77.5500,-234.0000,6.5200,0.6400,-7.4300,0.0687,0.1516,0.0818,-61.2500,24.0000,59.1875,313.8750,40.1250,-176.0625,0
1776971849.862,9.4858,0.1460,0.6752,0.1711,0.1210,0.4895,-73.6500,-15.1500,-21.0000,9.4978,-1.2426,0.8092,-0.2518,-0.6360,0.5353,13.0500,77.5500,-234.0000,6.5200,0.6400,-7.4300,0.0753,0.1429,0.0731,-61.2500,24.0000,59.1875,313.8750,40.1875,-176.1250,0
1776971849.867,9.3589,0.3448,0.6297,0.0610,0.0946,0.4770,-72.3000,-14.5500,-20.1000,9.4834,-1.3312,0.7207,-0.2505,-0.6648,0.5702,13.9500,77.4000,-234.1500,6.5700,0.5800,-7.4500,0.0753,0.1429,0.0731,-61.2500,24.0000,59.1875,313.8750,40.1875,-176.1250,0
1776971849.872,9.3589,0.3448,0.6297,0.0610,0.0946,0.4770,-72.3000,-14.5500,-20.1000,9.4834,-1.3312,0.7207,-0.2505,-0.6648,0.5702,13.9500,77.4000,-234.1500,6.5700,0.5800,-7.4500,0.0774,0.1385,0.0633,-61.2500,24.0000,59.1875,313.9375,40.2500,-176.1875,0
1776971849.877,9.2249,0.2538,0.7661,-0.0578,0.0733,0.4565,-72.6000,-14.5500,-20.1000,9.3278,-1.3360,0.8236,-0.2364,-0.6616,0.6009,12.6000,75.7500,-232.9500,6.5900,0.6600,-7.4300,0.0774,0.1385,0.0633,-61.2500,24.0000,59.1875,313.9375,40.2500,-176.1875,0
1776971849.886,9.2296,0.3807,0.9170,-0.1745,0.0674,0.4285,-72.6000,-14.5500,-20.1000,9.3134,-1.4269,0.9936,-0.2086,-0.6534,0.6286,12.1500,75.9000,-234.4500,6.6100,0.5300,-7.4300,0.0644,0.1058,0.0469,-61.2500,24.0000,59.1875,313.9375,40.3750,-176.2500,0
1776971849.891,9.2296,0.3807,0.9170,-0.1745,0.0674,0.4285,-72.6000,-14.5500,-20.1000,9.3134,-1.4269,0.9936,-0.2086,-0.6534,0.6286,12.1500,75.9000,-234.4500,6.6100,0.5300,-7.4300,0.0491,0.0742,0.0240,-61.2500,24.0000,59.1875,313.9375,40.3750,-176.3125,0
1776971849.897,9.2368,0.3160,1.2115,-0.2683,0.0608,0.4154,-73.3500,-15.4500,-21.9000,9.2967,-1.4940,1.0942,-0.1732,-0.6286,0.6632,12.1500,75.9000,-234.4500,6.4500,0.6500,-7.3700,0.0491,0.0742,0.0240,-61.2500,24.0000,59.1875,313.9375,40.3750,-176.3125,0
1776971849.902,9.2584,0.3950,1.5227,-0.2683,0.0608,0.4154,-73.3500,-15.4500,-21.9000,9.2967,-1.4940,1.0942,-0.1732,-0.6286,0.6632,12.1500,75.9000,-234.4500,6.3600,0.7100,-7.3600,0.0447,0.0818,0.0131,-60.8750,25.0000,59.1875,313.9375,40.4375,-176.3125,0
1776971849.907,9.2584,0.3950,1.5227,-0.3163,0.0493,0.4021,-73.3500,-15.4500,-21.9000,9.3518,-1.6041,1.0558,-0.1242,-0.5883,0.7067,14.2500,76.6500,-234.4500,6.3600,0.7100,-7.3600,0.0447,0.0818,0.0131,-60.8750,25.0000,59.1875,313.9375,40.4375,-176.3125,0
1776971849.912,9.3063,0.5052,1.9106,-0.3163,0.0493,0.4021,-73.3500,-15.4500,-21.9000,9.3518,-1.6041,1.0558,-0.1242,-0.5883,0.7067,14.2500,76.6500,-234.4500,6.3600,0.7100,-7.3600,0.0633,0.1298,0.0033,-60.8750,25.0000,59.1875,313.8750,40.5000,-176.3125,0
1776971849.917,9.3063,0.5052,1.9106,-0.3027,0.0466,0.3912,-72.9000,-15.9000,-19.9500,9.5744,-1.7621,1.2689,0.0037,-0.5574,0.7181,14.4000,77.2500,-236.5500,6.3200,0.7200,-7.3700,0.0633,0.1298,0.0033,-60.8750,25.0000,59.1875,313.8750,40.5000,-176.3125,0
1776971849.922,9.4523,0.6656,2.1668,-0.3027,0.0466,0.3912,-72.9000,-15.9000,-19.9500,9.5744,-1.7621,1.2689,0.0037,-0.5574,0.7181,14.4000,77.2500,-236.5500,6.3200,0.7200,-7.3700,0.1036,0.2018,-0.0076,-60.8750,25.0000,59.1875,313.8750,40.6250,-176.3750,0
1776971849.927,9.4523,0.6656,2.1668,-0.2545,0.0290,0.3845,-72.0000,-15.9000,-20.2500,9.8354,-1.6879,1.5227,0.1053,-0.5915,0.7272,13.3500,76.0500,-235.0500,5.8400,0.8300,-7.2600,0.1036,0.2018,-0.0076,-60.8750,25.0000,59.1875,313.8125,40.8125,-176.4375,0
1776971849.936,9.3757,0.8571,2.1332,-0.1996,0.0232,0.3757,-72.3000,-15.4500,-20.5500,9.8665,-1.7741,1.6376,0.1351,-0.6251,0.7384,14.4000,76.0500,-236.5500,5.6300,0.9300,-7.3000,0.1440,0.2891,-0.0120,-60.8750,25.0000,59.1875,313.8125,41.0000,-176.5625,0
1776971849.946,9.3541,0.8763,1.9273,-0.1945,0.0365,0.3525,-73.6500,-16.8000,-20.7000,9.8282,-1.8196,1.8052,0.1330,-0.6760,0.7458,14.7000,75.1500,-235.9500,5.9300,0.7600,-7.1900,0.1647,0.4243,0.0218,-60.8750,25.0000,59.1875,313.8125,41.0000,-176.5625,0
1776971849.951,9.4140,0.8835,1.8268,-0.2081,0.0578,0.3118,-73.6500,-16.8000,-20.7000,9.8282,-1.8196,1.8052,0.1330,-0.6760,0.7458,14.7000,75.1500,-235.9500,5.9300,0.7600,-7.1900,0.1647,0.4243,0.0218,-60.8750,25.0000,59.1875,313.8125,41.3125,-176.6250,0
1776971849.956,9.4140,0.8835,1.8268,-0.2081,0.0578,0.3118,-71.5500,-16.9500,-21.9000,9.9144,-2.0734,1.6975,0.0658,-0.7269,0.7466,14.7000,75.1500,-235.9500,5.7600,0.8300,-7.0600,0.1778,0.5051,0.0436,-61.5625,24.5625,58.7500,313.8125,41.3125,-176.6250,0
1776971849.961,9.3350,0.7685,1.8076,-0.2366,0.0429,0.2721,-71.5500,-16.9500,-21.9000,9.9144,-2.0734,1.6975,0.0658,-0.7269,0.7466,14.7000,75.1500,-235.9500,5.7600,0.8300,-7.0600,0.1778,0.5051,0.0436,-61.5625,24.5625,58.7500,313.7500,41.6250,-176.7500,0
1776971849.966,9.3350,0.7685,1.8076,-0.2366,0.0429,0.2721,-71.8500,-18.1500,-20.8500,9.7899,-2.6959,1.5299,-0.0080,-0.7917,0.7834,14.8500,76.0500,-237.1500,6.6100,0.0400,-7.2300,0.2094,0.6021,0.0458,-61.5625,24.5625,58.7500,313.7500,41.6250,-176.7500,0
1776971849.971,9.3134,0.7781,1.9776,-0.3003,0.0413,0.2337,-71.8500,-18.1500,-20.8500,9.7899,-2.6959,1.5299,-0.0080,-0.7917,0.7834,14.8500,76.0500,-237.1500,6.6100,0.0400,-7.2300,0.2454,0.7603,-0.0218,-61.5625,24.5625,58.7500,313.6875,42.0625,-176.8750,0
1776971849.977,9.3134,0.7781,1.9776,-0.3003,0.0413,0.2337,-71.8500,-18.1500,-20.8500,9.7348,-2.4062,1.0942,-0.0640,-0.8977,0.8005,16.2000,75.3000,-236.8500,6.1800,0.7300,-7.2900,0.2454,0.7603,-0.0218,-61.5625,24.5625,58.7500,313.6250,42.5000,-176.9375,0
1776971849.986,9.5170,0.7614,2.1213,-0.3397,0.0362,0.2102,-72.9000,-17.5500,-21.0000,9.8497,-2.7294,0.7494,-0.1119,-0.9617,0.7797,17.4000,75.3000,-238.2000,6.1200,0.5200,-7.0600,0.1593,0.7396,0.0000,-61.5625,24.5625,58.7500,313.6250,42.8750,-177.0000,0
1776971849.996,9.6079,0.8236,2.0973,-0.3818,0.0115,0.1977,-72.9000,-17.5500,-21.0000,10.1778,-2.9688,1.0798,-0.1338,-1.0054,0.7927,17.4000,75.7500,-238.2000,6.5900,0.5800,-7.2600,0.1669,0.7658,-0.0065,-61.5625,24.5625,58.7500,313.6250,42.8750,-177.0000,0
1776971850.001,9.6079,0.6991,1.8723,-0.3107,0.0229,0.2126,-72.9000,-17.5500,-21.0000,9.8617,-3.1196,0.8547,-0.1239,-1.0144,0.7957,17.4000,75.7500,-238.2000,6.5900,0.5800,-7.2600,0.1669,0.7658,-0.0065,-61.5625,24.5625,58.7500,313.6250,42.8750,-177.0000,0
1776971850.006,9.6079,0.6991,1.8723,-0.3107,0.0229,0.2126,-71.8500,-18.1500,-22.3500,9.8617,-3.1196,0.8547,-0.1239,-1.0144,0.7957,15.9000,76.0500,-239.7000,7.2300,0.3400,-7.5200,0.0949,0.8410,0.0327,-62.6875,26.0000,57.1875,313.5625,43.3750,-177.0625,0
1776971850.011,9.6702,0.8906,1.7933,-0.3456,0.0008,0.2180,-71.8500,-18.1500,-22.3500,9.9359,-3.2441,0.8882,-0.2451,-1.0627,0.8159,15.9000,76.0500,-239.7000,7.2300,0.3400,-7.5200,0.0949,0.8410,0.0327,-62.6875,26.0000,57.1875,313.5625,43.3750,-177.0625,0
1776971850.016,9.6702,0.8906,1.7933,-0.3456,0.0008,0.2180,-71.7000,-17.5500,-22.2000,9.9359,-3.2441,0.8882,-0.2451,-1.0627,0.8159,15.9000,76.0500,-239.7000,6.5300,0.7600,-6.8400,0.0415,0.8388,0.0415,-62.6875,26.0000,57.1875,313.5625,43.8125,-177.0625,0
1776971850.025,9.6726,0.7087,1.6951,-0.3816,0.0168,0.2228,-72.3000,-17.7000,-19.8000,10.0868,-3.4261,0.3759,-0.4066,-1.0952,0.8418,17.2500,73.9500,-239.1000,6.7400,0.2500,-7.2100,0.0676,0.7767,0.0295,-62.6875,26.0000,57.1875,313.5625,44.2500,-177.1250,0
1776971850.030,9.9000,0.5243,1.6017,-0.3917,-0.0203,0.2097,-72.3000,-17.7000,-19.8000,10.0868,-3.4261,0.3759,-0.5025,-1.0904,0.8500,17.2500,73.9500,-239.1000,6.7400,0.2500,-7.2100,0.0676,0.7767,0.0295,-62.6875,26.0000,57.1875,313.5625,44.7500,-177.1250,0
1776971850.037,9.8545,0.2251,1.6089,-0.3917,-0.0203,0.2097,-73.6500,-18.3000,-21.4500,10.0604,-3.1651,-0.1317,-0.5025,-1.0904,0.8500,16.0500,75.4500,-240.1500,6.8500,0.4400,-7.1400,0.0436,0.8967,0.0076,-62.6875,26.0000,57.1875,319.2500,45.2500,-177.0625,0
1776971850.047,9.8043,-0.0168,1.5179,-0.4461,-0.0104,0.1841,-72.0000,-17.1000,-21.7500,10.2951,-2.7246,-0.5052,-0.5753,-1.0331,0.8482,16.9500,75.7500,-240.0000,7.1300,0.4200,-6.9600,0.0098,0.9076,-0.0011,-62.6875,26.0000,57.1875,319.2500,45.2500,-177.0625,0
1776971850.051,9.8043,-0.0168,1.5179,-0.4604,-0.0322,0.1519,-72.0000,-17.1000,-21.7500,10.5919,-2.3104,-0.7877,-0.6273,-0.9966,0.8284,16.9500,75.7500,-240.0000,7.1300,0.4200,-6.9600,0.0098,0.9076,-0.0011,-65.1875,26.7500,54.7500,319.2500,45.7500,-177.0000,0
1776971850.057,10.2113,0.0670,1.2713,-0.4700,-0.0786,0.1191,-71.8500,-18.1500,-22.6500,10.5919,-2.3104,-0.7877,-0.6273,-0.9966,0.8284,17.4000,73.8000,-240.7500,7.3800,0.4500,-6.9100,-0.0382,0.8967,-0.0273,-65.1875,26.7500,54.7500,319.2500,45.7500,-177.0000,0
1776971850.061,10.2113,0.0670,1.2713,-0.4700,-0.0786,0.1191,-71.8500,-18.1500,-22.6500,11.2312,-1.6568,-1.6903,-0.6491,-1.0086,0.8228,17.4000,73.8000,-240.7500,7.3800,0.4500,-6.9100,-0.0382,0.8967,-0.0273,-65.1875,26.7500,54.7500,319.3125,46.2500,-176.9375,0
1776971850.067,10.9032,0.2610,0.9673,-0.4405,-0.1298,0.0797,-71.8500,-18.1500,-22.6500,11.2312,-1.6568,-1.6903,-0.6491,-1.0086,0.8228,16.2000,73.0500,-243.6000,6.3600,-0.4900,-7.7900,-0.0807,0.8923,-0.0458,-65.1875,26.7500,54.7500,319.3125,46.2500,-176.9375,0
1776971850.072,10.9032,0.2610,0.9673,-0.4405,-0.1298,0.0797,-71.8500,-18.1500,-22.6500,11.6310,-1.3001,-1.7142,-0.7096,-1.0595,0.8455,16.2000,73.0500,-243.6000,5.9800,-0.2500,-7.5100,-0.0938,0.8901,-0.0971,-65.1875,26.7500,54.7500,319.4375,46.7500,-176.8125,0
1776971850.077,11.0133,0.6225,0.9553,-0.4082,-0.2212,0.0778,-73.2000,-19.0500,-22.2000,11.6310,-1.3001,-1.7142,-0.7096,-1.0595,0.8455,16.2000,73.0500,-243.6000,5.9800,-0.2500,-7.5100,-0.0938,0.8901,-0.0971,-65.1875,26.7500,54.7500,319.8125,47.3750,-176.5625,0
1776971850.087,10.6303,0.9002,0.7949,-0.4130,-0.2414,0.0749,-73.2000,-19.0500,-22.2000,11.6622,-1.0032,-1.3144,-0.7453,-1.0320,0.8551,16.6500,71.5500,-245.4000,7.0300,-0.1800,-7.1200,-0.2793,1.1432,-0.0949,-65.1875,26.7500,54.7500,319.8125,47.3750,-176.5625,0
1776971850.097,10.2448,1.1684,0.6991,-0.4080,-0.2763,0.0799,-73.0500,-18.1500,-22.6500,11.0684,-1.1899,-1.6807,-0.8047,-1.1037,0.8727,15.3000,70.9500,-249.9000,7.5500,0.1300,-6.6700,-0.3218,1.3166,-0.1942,-65.1875,26.7500,54.7500,320.1875,48.0625,-176.1875,0
1776971850.101,10.2448,1.1684,0.6991,-0.4080,-0.2763,0.0799,-73.0500,-18.1500,-22.6500,10.8194,-1.3599,-1.2402,-0.8644,-1.0882,0.9441,15.3000,70.9500,-249.9000,7.5500,0.1300,-6.6700,-0.3218,1.3166,-0.1942,-65.1875,26.7500,54.7500,320.7500,48.8750,-175.6875,0
1776971850.106,9.9814,1.3048,0.6943,-0.4282,-0.2654,0.0951,-73.2000,-17.5500,-24.0000,10.8194,-1.3599,-1.2402,-0.8644,-1.0882,0.9441,15.0000,72.1500,-252.0000,8.0700,0.3700,-6.4600,-0.4112,1.4693,-0.2934,-67.3750,26.0000,53.2500,320.7500,48.8750,-175.6875,0
1776971850.111,9.9814,1.3048,0.6943,-0.4282,-0.2654,0.0951,-73.2000,-17.5500,-24.0000,10.4315,-2.4253,-0.5219,-0.8847,-1.1642,1.0421,15.0000,72.1500,-252.0000,8.0700,0.3700,-6.4600,-0.4112,1.4693,-0.2934,-67.3750,26.0000,53.2500,320.7500,48.8750,-175.6875,0
1776971850.116,9.7923,1.3455,0.8930,-0.4429,-0.2891,0.1122,-73.6500,-17.5500,-24.3000,10.4315,-2.4253,-0.5219,-0.8847,-1.1642,1.0421,16.5000,70.2000,-253.0500,8.0100,0.4400,-6.5000,-0.4461,1.6199,-0.3567,-67.3750,26.0000,53.2500,321.3750,49.7500,-175.1250,0
1776971850.122,9.7923,1.3455,0.8930,-0.4429,-0.2891,0.1122,-73.6500,-17.5500,-24.3000,10.2903,-3.3375,-0.0670,-0.8759,-1.3105,1.1394,14.1000,70.0500,-256.0500,8.0100,0.4400,-6.5000,-0.4385,1.6810,-0.3523,-67.3750,26.0000,53.2500,321.9375,50.6875,-174.5625,0
1776971850.127,9.4571,1.2019,0.9026,-0.4804,-0.2878,0.0970,-73.3500,-17.4000,-23.1000,10.2448,-3.9121,0.2155,-0.9276,-1.5090,1.2873,14.1000,70.0500,-256.0500,8.1100,1.3200,-5.5900,-0.4385,1.6810,-0.3523,-67.3750,26.0000,53.2500,322.5000,51.6250,-174.0000,0
1776971850.137,9.3518,1.2641,0.7805,-0.5217,-0.2593,0.0671,-73.0500,-16.5000,-23.4000,10.4315,-3.9911,0.2705,-1.0637,-1.6840,1.4258,14.1000,70.0500,-256.0500,7.1900,1.1700,-5.9000,-0.4952,1.7715,-0.2945,-67.3750,26.0000,53.2500,322.5000,51.6250,-174.0000,0
1776971850.146,9.5648,1.2378,0.6584,-0.5769,-0.2526,0.0115,-71.8500,-17.4000,-23.8500,10.8577,-4.2545,0.3711,-1.3494,-1.7475,1.5724,18.4500,70.0500,-257.1000,7.1700,1.7200,-5.4400,-0.6000,1.9493,-0.2542,-67.3750,26.0000,53.2500,323.1250,52.6875,-173.3125,0
1776971850.151,9.5648,1.2378,0.6584,-0.5769,-0.2526,0.0115,-71.8500,-17.4000,-23.8500,10.8577,-4.2545,0.3711,-1.3494,-1.7475,1.5724,19.3500,71.4000,-257.2500,7.1700,1.7200,-5.4400,-0.6000,1.9493,-0.2542,-67.3750,26.0000,53.2500,323.1250,52.6875,-173.3125,0
1776971850.156,10.0126,1.4796,0.4884,-0.6499,-0.2579,-0.0911,-71.8500,-17.4000,-23.8500,11.8369,-3.8906,0.6608,-1.6084,-1.6707,1.6782,19.3500,71.4000,-257.2500,7.1800,1.1500,-5.3000,-0.7505,2.2482,-0.1429,-70.6875,24.1875,48.5625,323.8125,53.9375,-172.5625,0
1776971850.161,10.3525,1.9465,0.3615,-0.6499,-0.2579,-0.0911,-71.8500,-17.4000,-23.8500,11.8369,-3.8906,0.6608,-1.6084,-1.6707,1.6782,22.2000,74.7000,-258.7500,7.1800,1.1500,-5.3000,-0.7505,2.2482,-0.1429,-70.6875,24.1875,48.5625,323.8125,53.9375,-172.5625,0
1776971850.166,10.3525,1.9465,0.3615,-0.7149,-0.2880,-0.2033,-72.3000,-18.1500,-25.3500,12.8257,-2.9832,0.6967,-1.8802,-1.5263,1.7016,22.2000,74.7000,-258.7500,8.0000,1.3100,-5.8600,-0.9130,2.4729,0.0240,-70.6875,24.1875,48.5625,324.5000,55.3125,-171.8125,0
1776971850.171,9.9335,3.0191,0.4669,-0.7149,-0.2880,-0.2033,-72.3000,-18.1500,-25.3500,12.8257,-2.9832,0.6967,-1.8802,-1.5263,1.7016,24.3000,75.7500,-258.6000,8.0000,1.3100,-5.8600,-1.0450,2.4969,0.2716,-70.6875,24.1875,48.5625,325.1875,56.6875,-171.1875,0
1776971850.177,9.9335,3.0191,0.4669,-0.8450,-0.3901,-0.2920,-72.3000,-18.1500,-25.3500,13.3596,-2.2601,1.0846,-2.2343,-1.3835,1.6585,24.3000,75.7500,-258.6000,8.0700,1.4000,-6.3100,-1.0450,2.4969,0.2716,-70.6875,24.1875,48.5625,325.6875,58.0000,-170.7500,0
1776971850.187,9.5026,4.0175,0.8643,-0.9846,-0.5044,-0.3882,-73.3500,-16.2000,-26.1000,13.9151,-0.5459,2.2098,-2.5842,-1.2662,1.5772,26.7000,78.1500,-259.0500,6.6600,0.3900,-4.8700,-1.0548,2.2657,0.5781,-70.6875,24.1875,48.5625,325.6875,58.0000,-170.7500,0
1776971850.197,9.7444,4.1444,0.8906,-1.0176,-0.5852,-0.5327,-74.1000,-16.2000,-24.9000,14.3197,1.8986,2.0159,-2.9114,-1.2297,1.4858,26.7000,78.1500,-259.0500,6.3900,1.3600,-7.9500,-0.9577,1.6690,0.8628,-70.6875,24.1875,48.5625,326.0000,59.0000,-170.7500,0
1776971850.202,10.2065,3.6009,0.7039,-0.9422,-0.6789,-0.7525,-74.1000,-16.2000,-24.9000,14.3197,1.8986,2.0159,-2.9114,-1.2297,1.4858,27.3000,80.4000,-262.9500,6.3900,1.3600,-7.9500,-0.9577,1.6690,0.8628,-70.6875,24.1875,48.5625,326.3125,60.0625,-170.5625,0
1776971850.207,10.2065,3.6009,0.7039,-0.9422,-0.6789,-0.7525,-72.3000,-16.2000,-26.7000,13.6469,3.8834,2.0087,-2.9308,-0.9990,1.2806,27.3000,80.4000,-262.9500,4.6200,-1.5700,-10.4500,-0.8945,1.8522,0.6392,-75.0625,22.0000,43.5000,326.3125,60.0625,-170.5625,0
1776971850.212,10.6590,2.7749,0.3711,-0.8649,-0.8428,-1.0155,-72.3000,-16.2000,-26.7000,13.6469,3.8834,2.0087,-2.9308,-0.9990,1.2806,27.9000,78.7500,-267.4500,4.6200,-1.5700,-10.4500,-0.8945,1.8522,0.6392,-75.0625,22.0000,43.5000,326.4375,62.1250,-170.3125,0
1776971850.217,10.6590,2.7749,0.3711,-0.8649,-0.8428,-1.0155,-72.9000,-14.8500,-27.3000,13.3788,4.5155,1.5634,-2.7973,-0.8311,1.0826,27.9000,78.7500,-267.4500,7.5800,5.8300,-7.3500,-0.9905,3.7056,0.8868,-75.0625,22.0000,43.5000,326.4375,62.1250,-170.3125,0
1776971850.225,10.4675,2.0279,0.0311,-0.8836,-0.9673,-1.2937,-72.9000,-14.8500,-27.3000,13.5033,3.2010,2.0734,-2.3710,-0.7274,0.9582,26.8500,80.2500,-272.4000,7.9400,5.0500,-5.8400,0.0022,5.2011,1.0145,-75.0625,22.0000,43.5000,325.5000,65.0625,-170.4375,0
1776971850.230,10.2735,1.6448,-0.3998,-1.0325,-1.0970,-1.5447,-73.6500,-13.9500,-28.5000,13.5033,3.2010,2.0734,-2.3710,-0.7274,0.9582,25.0500,79.0500,-280.6500,7.9400,5.0500,-5.8400,0.0022,5.2011,1.0145,-75.0625,22.0000,43.5000,323.6875,68.2500,-171.6250,0
1776971850.237,10.2735,1.6448,-0.3998,-1.0325,-1.0970,-1.5447,-73.2000,-13.2000,-29.5500,13.4267,0.7781,2.1644,-1.6872,-0.7424,0.9782,25.0500,79.0500,-280.6500,12.5000,2.6600,-5.1500,0.7909,5.5938,1.4639,-75.0625,22.0000,43.5000,321.7500,71.6875,-173.4375,0
1776971850.247,9.6917,1.1013,-0.5195,-1.1554,-1.1935,-1.7363,-73.2000,-13.2000,-29.5500,13.1514,-1.0008,1.9800,-1.2343,-1.1453,1.0685,23.5500,75.7500,-286.0500,13.8000,2.5400,-7.4500,1.0297,5.9658,1.5915,-75.0625,22.0000,43.5000,321.7500,71.6875,-173.4375,0
1776971850.252,8.9902,-0.0790,0.1125,-1.2337,-1.0994,-1.8786,-73.2000,-13.2000,-29.5500,13.1514,-1.0008,1.9800,-1.2343,-1.1453,1.0685,23.5500,75.7500,-286.0500,13.8000,2.5400,-7.4500,1.0297,5.9658,1.5915,-75.0625,22.0000,43.5000,321.7500,71.6875,-173.4375,0
1776971850.257,8.9902,-0.0790,0.1125,-1.2337,-1.0994,-1.8786,-73.3500,-12.6000,-32.4000,12.6246,-2.0949,1.5610,-1.0083,-1.7898,1.2127,23.5500,75.7500,-286.0500,14.8400,3.3200,-8.3400,0.7679,6.1730,1.5457,-79.3750,22.6875,34.5000,320.1875,75.1875,-175.6250,0
1776971850.262,8.9591,-0.9050,0.6728,-1.2569,-0.9971,-1.9708,-73.3500,-12.6000,-32.4000,12.6246,-2.0949,1.5610,-1.0802,-2.4928,1.3893,21.9000,69.9000,-297.6000,14.8400,3.3200,-8.3400,0.7679,6.1730,1.5457,-79.3750,22.6875,34.5000,320.1875,75.1875,-175.6250,0
1776971850.267,9.0237,-1.2330,1.2282,-1.2569,-0.9971,-1.9708,-73.3500,-12.6000,-32.4000,12.2559,-2.8611,0.5698,-1.0802,-2.4928,1.3893,21.9000,69.9000,-297.6000,15.5100,4.0200,-5.5800,0.2727,6.3192,1.8762,-79.3750,22.6875,34.5000,318.9375,78.6875,-179.6875,0
1776971850.272,9.0237,-1.2330,1.2282,-1.2750,-0.8833,-2.0416,-73.3500,-12.6000,-32.4000,12.0620,-3.6224,-1.6041,-1.3891,-3.1856,1.6185,20.4000,68.7000,-298.3500,15.5100,4.0200,-5.5800,0.2345,6.3497,2.3158,-79.3750,22.6875,34.5000,317.5625,82.1250,170.9375,0
1776971850.278,9.4930,-1.3072,1.4269,-1.1740,-0.7514,-2.1003,-71.8500,-9.1500,-33.0000,12.0620,-3.6224,-1.6041,-1.3891,-3.1856,1.6185,20.4000,68.7000,-298.3500,18.7100,1.5800,-7.3400,0.2345,6.3497,2.3158,-79.3750,22.6875,34.5000,316.1250,85.0000,177.3125,0
1776971850.287,10.3597,-1.0080,0.8978,-1.1740,-0.7514,-2.1003,-71.8500,-8.4000,-33.0000,11.3557,-5.2888,-2.9664,-1.2177,-3.6170,1.6292,21.9000,68.7000,-297.1500,22.9700,1.6200,-11.2000,0.2236,6.3454,2.5515,-79.3750,22.6875,34.5000,315.1250,85.8125,175.9375,0
1776971850.297,11.5999,-0.4381,0.4214,-0.9848,-0.6336,-2.3670,-71.7000,-6.6000,-36.9000,9.9742,-6.4667,-4.3503,-0.7818,-3.8949,1.6097,24.4500,68.4000,-295.8000,16.3000,3.8600,-9.2000,-0.3371,5.7509,2.5296,-79.3750,22.6875,34.5000,315.1250,85.8125,175.9375,0
1776971850.302,11.5999,-0.4381,0.4214,-0.9848,-0.6336,-2.3670,-71.7000,-6.6000,-36.9000,7.6231,-7.4460,-5.4731,-0.3698,-4.0183,1.6150,24.4500,68.4000,-295.8000,16.3000,3.8600,-9.2000,-0.3371,5.7509,2.5296,-79.3750,22.6875,34.5000,314.6875,84.4375,5.2500,0
1776971850.307,11.7531,1.1803,0.1939,-0.8343,-0.6422,-2.5103,-71.7000,-6.6000,-36.9000,7.6231,-7.4460,-5.4731,-0.3698,-4.0183,1.6150,24.4500,68.4000,-295.8000,14.4600,3.7800,-11.4800,-1.0494,4.9229,2.1882,-83.3750,28.5625,12.0625,314.6875,84.4375,5.2500,0
1776971850.312,11.7531,1.1803,0.1939,-0.8343,-0.6422,-2.5103,-70.8000,-5.2500,-37.9500,5.2146,-7.8793,-6.1172,-0.0482,-3.8437,1.5258,24.4500,68.4000,-295.8000,14.4600,3.7800,-11.4800,-1.0494,4.9229,2.1882,-83.3750,28.5625,12.0625,314.6875,82.4375,58.5000,0
1776971850.317,13.2256,0.9768,0.0670,-0.6960,-0.5718,-2.5708,-71.5500,-6.4500,-40.0500,5.2146,-7.8793,-6.1172,-0.0482,-3.8437,1.5258,24.4500,68.4000,-295.8000,14.3400,3.5100,-12.0400,-1.6886,4.3557,2.0213,-83.3750,28.5625,12.0625,314.6875,82.4375,58.5000,0
1776971850.326,13.0029,1.9585,-0.6488,-0.5076,-0.4439,-2.5381,-71.5500,-6.4500,-40.0500,3.1891,-8.8538,-5.2481,-1.5639,-3.4387,1.0840,33.7500,61.5000,-275.7000,10.3400,2.2100,-12.3600,-2.1173,3.4110,2.2264,-83.3750,28.5625,12.0625,314.7500,80.3750,53.8125,0
1776971850.334,12.6677,3.2394,-1.1349,-0.5076,-0.4439,-2.5381,-71.2500,-3.0000,-39.9000,0.6297,-8.5138,-8.1331,-1.5505,-2.2908,0.7941,36.4500,45.4500,-264.7500,12.5000,-3.6700,-10.7500,-1.8740,1.6930,2.2602,-83.3750,28.5625,12.0625,314.5625,78.8125,54.6875,0
1776971850.339,12.6677,3.2394,-1.1349,-0.1969,-0.2206,-2.4408,-71.2500,-3.0000,-39.9000,-1.1923,-8.7125,-8.1139,-1.6830,-1.7397,0.5132,36.4500,23.7000,-254.8500,12.5000,-3.6700,-10.7500,-1.8740,1.6930,2.2602,-83.3750,28.5625,12.0625,313.5000,77.0000,55.8125,0
1776971850.347,12.1578,3.2058,-0.6057,0.0024,-0.2723,-2.3667,-71.1000,-3.3000,-41.2500,-1.1923,-8.7125,-8.1139,-1.6830,-1.7397,0.5132,36.0000,1.2000,-240.9000,23.0800,4.4400,-21.1400,-0.7156,1.5621,2.7816,-83.3750,28.5625,12.0625,313.5000,77.0000,55.8125,0
1776971850.352,12.1578,3.2058,-0.6057,0.0024,-0.2723,-2.3667,-71.1000,-3.3000,-41.2500,-0.3376,-7.1778,-6.5457,-1.3379,-0.8849,0.1092,36.0000,1.2000,-240.9000,23.0800,4.4400,-21.1400,-0.7156,1.5621,2.7816,-83.3750,28.5625,12.0625,312.6250,75.6250,58.6250,0
1776971850.357,11.9040,1.6712,-0.8595,0.2049,-0.1250,-2.3513,-71.1000,-3.3000,-41.2500,-0.3376,-7.1778,-6.5457,-1.3379,-0.8849,0.1092,36.0000,1.2000,-240.9000,13.6000,5.8800,-16.7800,-1.1061,0.5541,2.6071,-74.0625,37.1875,-3.0625,312.6250,75.6250,58.6250,0
1776971850.362,11.9040,1.6712,-0.8595,0.2049,-0.1250,-2.3513,-71.1000,-3.3000,-41.2500,-0.1963,-4.8459,-6.6918,-1.3368,-0.4980,0.0525,36.0000,1.2000,-240.9000,13.6000,5.8800,-16.7800,-1.1061,0.5541,2.6071,-74.0625,37.1875,-3.0625,311.8125,74.9375,64.3125,0
1776971850.367,12.0141,0.3783,-0.4669,0.3323,-0.0600,-2.3513,-72.0000,-3.0000,-44.4000,-0.1963,-4.8459,-6.6918,-1.3368,-0.4980,0.0525,36.0000,1.2000,-240.9000,4.4700,4.9800,-10.5900,-1.2577,-1.4944,2.2078,-74.0625,37.1875,-3.0625,311.8125,74.9375,64.3125,0
1776971850.376,12.5863,-0.6776,-0.1365,0.3826,0.0045,-2.3491,-72.0000,-3.0000,-44.4000,0.4214,-2.3942,-6.1124,-0.8378,0.4858,-0.2041,36.0000,1.2000,-240.9000,0.7400,4.6800,-6.9000,-1.0559,-2.6594,1.9569,-74.0625,37.1875,-3.0625,310.9375,74.5000,71.4375,0
1776971850.380,12.5863,-0.6776,-0.1365,0.3826,0.0045,-2.3491,-70.9500,-1.9500,-45.1500,-0.9984,0.6991,-5.5785,-0.2694,0.9188,-0.3429,21.9000,-34.6500,-202.0500,0.7400,4.6800,-6.9000,-1.0559,-2.6594,1.9569,-74.0625,37.1875,-3.0625,309.8750,73.9375,78.3750,0
1776971850.388,12.7491,-1.1588,0.2610,0.4759,0.0648,-2.3518,-71.1000,-0.1500,-46.3500,-0.0479,2.3966,-6.6224,0.4655,0.8351,-0.4277,19.5000,-40.5000,-194.4000,-0.6600,4.3600,-5.1300,-0.7549,-2.9583,1.8021,-74.0625,37.1875,-3.0625,308.8125,73.3125,84.1250,0
1776971850.397,12.6150,-0.9960,0.5698,0.5196,0.0163,-2.3110,-71.1000,-0.1500,-46.3500,-0.0479,2.3966,-6.6224,0.6297,1.5311,-0.8362,20.7000,-45.0000,-190.2000,0.6700,4.9100,-5.6000,-0.4069,-2.7042,1.6526,-74.0625,37.1875,-3.0625,308.8125,73.3125,84.1250,0
1776971850.402,11.3365,-0.6871,0.8763,0.5196,0.0163,-2.3110,-71.5500,-0.4500,-47.1000,0.2849,1.6592,-7.7883,0.6297,1.5311,-0.8362,20.7000,-45.0000,-190.2000,0.6700,4.9100,-5.6000,-0.4069,-2.7042,1.6526,-74.0625,37.1875,-3.0625,307.5625,72.5625,88.7500,0
1776971850.407,11.3365,-0.6871,0.8763,0.3032,0.1103,-2.2186,-71.5500,-0.4500,-47.1000,0.2155,-0.0790,-8.9495,0.6670,1.6497,-1.1501,20.2500,-48.7500,-188.4000,1.8900,4.9400,-6.5200,0.0175,-2.4740,1.4530,-58.1875,43.0000,2.7500,307.5625,72.5625,88.7500,0
1776971850.412,11.1235,0.4932,0.6345,0.1122,0.1332,-2.0741,-71.7000,-2.2500,-47.4000,0.2155,-0.0790,-8.9495,0.6670,1.6497,-1.1501,20.2500,-48.7500,-188.4000,1.8900,4.9400,-6.5200,0.0175,-2.4740,1.4530,-58.1875,43.0000,2.7500,306.3125,71.8750,92.9375,0
1776971850.417,11.1235,0.4932,0.6345,0.1122,0.1332,-2.0741,-71.7000,-2.2500,-47.4000,0.2251,-2.3942,-8.8825,0.7445,2.1317,-1.4679,20.2500,-48.7500,-188.4000,3.0600,4.8200,-7.5900,0.4014,-2.5493,1.1617,-58.1875,43.0000,2.7500,306.3125,71.8750,92.9375,0
1776971850.425,10.5034,1.9632,0.4980,0.0069,0.2052,-1.9548,-71.2500,-1.9500,-49.5000,0.2251,-2.3942,-8.8825,0.7445,2.1317,-1.4679,20.2500,-48.7500,-188.4000,4.1900,4.2000,-8.7100,0.6152,-2.7947,0.7614,-58.1875,43.0000,2.7500,305.0625,71.3125,97.1250,0
1776971850.430,10.5034,1.9632,0.4980,0.0069,0.2052,-1.9548,-71.2500,-1.9500,-49.5000,1.3408,-3.7445,-9.8689,0.7250,2.2183,-1.6838,19.0500,-47.4000,-188.8500,4.1900,4.2000,-8.7100,0.6152,-2.7947,0.7614,-58.1875,43.0000,2.7500,304.0000,70.9375,101.8125,0
1776971850.438,10.2999,2.7749,0.2634,0.0533,0.3691,-1.8658,-71.2500,-1.9500,-49.5000,1.0391,-3.4309,-9.9096,1.2020,2.3513,-1.8514,17.7000,-43.0500,-189.7500,6.0000,2.3600,-10.3000,0.5760,-3.1416,0.2618,-58.1875,43.0000,2.7500,303.3125,70.5625,107.2500,0
1776971850.447,10.3022,2.9042,0.0694,0.2294,0.3571,-1.7760,-73.2000,-1.9500,-48.7500,1.0056,-2.2027,-9.8378,2.2335,2.5913,-2.0214,16.5000,-39.4500,-189.6000,6.2900,1.8200,-10.0500,0.2345,-3.5605,-0.3022,-58.1875,43.0000,2.7500,303.3125,70.5625,107.2500,0
1776971850.452,10.2232,2.3248,0.1796,0.3525,0.3136,-1.6958,-73.2000,-1.9500,-48.7500,1.0056,-2.2027,-9.8378,2.2335,2.5913,-2.0214,16.5000,-39.4500,-189.6000,6.2900,1.8200,-10.0500,0.2345,-3.5605,-0.3022,-58.1875,43.0000,2.7500,303.3125,70.5625,107.2500,0
1776971850.457,10.2232,2.3248,0.1796,0.3525,0.3136,-1.6958,-73.2000,-1.9500,-48.7500,1.5730,0.6943,-9.8210,3.9703,2.8154,-2.3353,13.9500,-37.2000,-187.5000,5.9800,1.1800,-9.5900,-0.2018,-4.1015,-0.8508,-44.3750,49.8750,4.8750,303.1250,70.1875,113.8125,0
1776971850.462,10.0844,2.0758,0.1221,0.4325,0.2659,-1.6124,-74.5500,-4.5000,-48.3000,1.5730,0.6943,-9.8210,3.9703,2.8154,-2.3353,13.9500,-37.2000,-187.5000,5.9800,1.1800,-9.5900,-0.2018,-4.1015,-0.8508,-44.3750,49.8750,4.8750,303.1250,70.1875,113.8125,0
1776971850.467,10.0844,2.0758,0.1221,0.4325,0.2659,-1.6124,-74.5500,-4.5000,-48.3000,2.1093,4.2569,-8.1762,5.4135,3.5797,-2.7677,13.2000,-33.9000,-187.5000,4.9800,-0.2100,-7.1400,-0.5890,-4.6000,-1.2894,-44.3750,49.8750,4.8750,303.3125,69.6875,121.2500,0
1776971850.472,9.8881,1.9201,-0.0215,0.5417,0.1972,-1.5545,-74.7000,-4.6500,-48.7500,2.1093,4.2569,-8.1762,5.4135,3.5797,-2.7677,13.2000,-33.9000,-187.5000,4.9800,-0.2100,-7.1400,-0.9032,-4.9393,-1.5839,-44.3750,49.8750,4.8750,303.7500,68.8125,129.0625,0
1776971850.478,9.8881,1.9201,-0.0215,0.5417,0.1972,-1.5545,-74.7000,-4.6500,-48.7500,4.2737,5.5378,-2.0686,4.8438,3.7505,-2.9844,13.2000,-33.9000,-187.5000,4.6900,-0.8900,-5.6000,-0.9032,-4.9393,-1.5839,-44.3750,49.8750,4.8750,304.5000,67.5625,136.5625,0
1776971850.487,9.5864,1.5060,0.0599,0.6667,0.1697,-1.5271,-75.1500,-3.4500,-47.7000,5.3486,1.3767,2.5163,2.5319,3.2490,-3.0782,5.2500,-21.1500,-191.4000,5.0300,-1.4800,-4.3200,-1.1497,-5.1062,-1.7508,-44.3750,49.8750,4.8750,304.5000,67.5625,136.5625,0
1776971850.497,9.3494,0.9505,-0.0215,0.8572,0.1108,-1.4653,-77.4000,-4.2000,-49.2000,5.9568,-5.2912,3.7900,0.1298,2.0622,-3.2476,1.3500,-22.5000,-194.1000,7.1900,-2.0600,-3.8500,-1.3515,-4.9796,-1.8522,-44.3750,49.8750,4.8750,305.5000,66.1250,143.3125,0
1776971850.502,8.7340,0.3567,-0.1844,0.9875,0.0831,-1.3755,-75.9000,-5.8500,-48.7500,5.9568,-5.2912,3.7900,0.1298,2.0622,-3.2476,1.3500,-22.5000,-194.1000,7.1900,-2.0600,-3.8500,-1.3515,-4.9796,-1.8522,-44.3750,49.8750,4.8750,306.8750,64.5625,149.2500,0
1776971850.507,8.3199,0.1269,-0.5962,0.9875,0.0831,-1.3755,-75.9000,-5.8500,-48.7500,6.7708,-11.3150,0.5842,-1.0824,2.1504,-3.2127,1.9500,-22.6500,-197.4000,8.6800,-1.5800,-4.8100,-1.5053,-4.6535,-1.9591,-47.5000,56.1875,8.0000,306.8750,64.5625,149.2500,0
1776971850.512,8.3199,0.1269,-0.5962,1.0123,0.0059,-1.2470,-78.0000,-5.2500,-49.3500,6.7708,-11.3150,0.5842,-1.0824,2.1504,-3.2127,1.9500,-22.6500,-197.4000,8.6800,-1.5800,-4.8100,-1.5053,-4.6535,-1.9591,-47.5000,56.1875,8.0000,308.3750,63.0000,154.3750,0
1776971850.517,8.2911,0.1891,-0.8499,1.0123,0.0059,-1.2470,-78.0000,-5.2500,-49.3500,5.2768,-12.5025,-5.2601,-0.2329,2.3683,-3.0323,4.8000,-27.9000,-196.0500,8.9800,-1.2000,-5.9800,-1.4399,-4.3066,-2.0835,-47.5000,56.1875,8.0000,308.3750,63.0000,154.3750,0
1776971850.524,8.2911,0.1891,-0.8499,0.9134,-0.1018,-1.1111,-78.0000,-5.2500,-49.3500,7.6638,-8.5569,-8.8346,1.6377,2.8354,-2.9481,2.4000,-27.9000,-196.0500,8.7800,-1.4600,-7.1000,-1.2643,-4.2095,-2.1435,-47.5000,56.1875,8.0000,309.8750,61.3750,158.9375,0
1776971850.529,7.9799,0.8499,-1.1468,0.7751,-0.2585,-1.0379,-78.0000,-5.2500,-49.3500,7.6638,-8.5569,-8.8346,1.6377,2.8354,-2.9481,2.4000,-27.3000,-192.3000,8.7800,-1.4600,-7.1000,-1.2643,-4.2095,-2.1435,-47.5000,56.1875,8.0000,311.3750,59.6250,162.7500,0
1776971850.537,8.1283,1.0343,-0.3280,0.4527,-0.2100,-0.9262,-79.8000,-7.2000,-49.3500,8.0948,-4.0893,-8.9304,2.1125,2.8458,-2.9204,2.4000,-27.3000,-192.3000,10.5600,-3.0800,-8.3300,-1.0766,-4.0513,-2.0857,-47.5000,56.1875,8.0000,312.8125,57.8750,166.0000,0
1776971850.547,8.3701,1.1708,-0.6009,0.3629,-0.2571,-0.7749,-79.8000,-7.2000,-49.3500,8.3725,-2.4134,-4.8554,1.2953,3.0920,-3.1858,2.4000,-27.0000,-185.5500,12.8300,-3.4600,-8.6500,-1.0167,-3.7557,-1.9831,-47.5000,56.1875,8.0000,312.8125,57.8750,166.0000,0
1776971850.552,8.3701,1.1708,-0.6009,0.3629,-0.2571,-0.7749,-79.6500,-8.5500,-47.4000,7.9655,-1.4413,-2.3559,-0.1210,3.0974,-3.3374,2.4000,-27.0000,-185.5500,12.8300,-3.4600,-8.6500,-1.0167,-3.7557,-1.9831,-47.5000,56.1875,8.0000,312.8125,57.8750,166.0000,0
1776971850.557,7.9823,1.6472,-0.8547,0.2262,-0.2707,-0.6475,-79.6500,-8.5500,-47.4000,7.9655,-1.4413,-2.3559,-0.1210,3.0974,-3.3374,2.2500,-27.9000,-184.6500,14.9000,-3.0600,-8.8100,-1.1781,-3.5812,-1.9090,-55.3750,50.8750,29.1875,314.5625,56.1875,168.9375,0
1776971850.562,7.9823,1.6472,-0.8547,0.2262,-0.2707,-0.6475,-81.0000,-8.4000,-48.3000,7.6686,-1.7837,-2.7629,-0.4863,3.5352,-3.5309,2.2500,-27.9000,-184.6500,14.9000,-3.0600,-8.8100,-1.1781,-3.5812,-1.9090,-55.3750,50.8750,29.1875,314.5625,56.1875,168.9375,0
1776971850.567,7.5800,1.9728,-0.9649,0.1370,-0.2459,-0.5081,-81.0000,-8.4000,-48.3000,7.6686,-1.7837,-2.7629,-0.4863,3.5352,-3.5309,0.0000,-28.8000,-184.8000,15.5800,-2.1800,-8.4900,-1.3854,-3.7263,-1.8348,-55.3750,50.8750,29.1875,316.5625,54.3125,171.6250,0
1776971850.572,7.5800,1.9728,-0.9649,0.1370,-0.2459,-0.5081,-81.6000,-9.3000,-47.4000,8.8562,-1.8866,-3.7014,-0.1522,3.6660,-3.6020,0.0000,-28.8000,-184.8000,15.5800,-2.1800,-8.4900,-1.4835,-3.7917,-1.6973,-55.3750,50.8750,29.1875,318.7500,52.3750,174.0625,0
1776971850.578,7.4675,2.1883,-1.1564,0.0853,-0.2619,-0.3842,-81.6000,-9.3000,-47.4000,8.8562,-1.8866,-3.7014,-0.1522,3.6660,-3.6020,-4.6500,-26.2500,-183.0000,15.7700,-1.9500,-8.2100,-1.4835,-3.7917,-1.6973,-55.3750,50.8750,29.1875,321.0625,50.3125,176.1875,0
1776971850.587,7.2712,2.7318,-1.4868,0.0418,-0.2904,-0.2737,-82.2000,-10.6500,-46.3500,8.9184,-3.0119,-3.5362,-0.1775,3.4176,-3.3609,-4.9500,-22.5000,-182.4000,15.9100,-1.4700,-7.9900,-1.5053,-3.8441,-1.5588,-55.3750,50.8750,29.1875,321.0625,50.3125,176.1875,0
1776971850.597,7.3622,3.3686,-1.6281,0.0059,-0.3230,-0.1831,-82.3500,-9.7500,-46.2000,9.6223,-5.0709,-3.1053,-0.2361,3.6122,-3.1472,-4.9500,-22.5000,-182.4000,15.7800,-0.9300,-8.0400,-1.4781,-3.9477,-1.4944,-55.3750,50.8750,29.1875,323.5000,48.1250,178.1250,0
1776971850.602,7.3622,3.3686,-1.6281,0.0059,-0.3230,-0.1831,-84.0000,-10.6500,-46.8000,9.5696,-5.4420,-2.4924,-0.2790,3.4925,-2.9780,-4.9500,-22.5000,-182.4000,15.7800,-0.9300,-8.0400,-1.4781,-3.9477,-1.4944,-55.3750,50.8750,29.1875,326.0000,45.9375,179.8125,0
1776971850.607,7.4005,3.6081,-1.5395,-0.0080,-0.3216,-0.0626,-84.0000,-10.6500,-46.8000,9.5696,-5.4420,-2.4924,-0.2790,3.4925,-2.9780,-8.8500,-20.7000,-181.8000,15.0900,-0.2700,-8.3900,-1.4279,-4.0459,-1.4846,-45.7500,36.6875,38.0000,326.0000,45.9375,179.8125,0
1776971850.612,7.4005,3.6081,-1.5395,-0.0080,-0.3216,-0.0626,-84.0000,-10.6500,-46.8000,9.2608,-4.7573,-2.4038,-0.3965,3.2412,-2.7536,-8.8500,-20.7000,-181.8000,15.0900,-0.2700,-8.3900,-1.4279,-4.0459,-1.4846,-45.7500,36.6875,38.0000,325.8125,43.6875,-178.5625,0
1776971850.617,7.5633,3.3830,-1.1109,-0.0504,-0.2721,0.0826,-84.0000,-10.6500,-46.8000,9.2608,-4.7573,-2.4038,-0.3965,3.2412,-2.7536,-10.5000,-22.0500,-180.6000,14.5100,-0.5400,-8.2000,-1.4257,-4.0699,-1.4792,-45.7500,36.6875,38.0000,325.8125,43.6875,-178.5625,0
1776971850.625,7.4843,3.3208,-0.8835,-0.0405,-0.2220,0.2337,-82.3500,-13.2000,-46.6500,8.7221,-4.8650,-2.6049,-0.6400,3.2077,-2.6028,-9.6000,-21.9000,-178.6500,13.7800,-0.8200,-7.8200,-1.4170,-4.0121,-1.4737,-45.7500,36.6875,38.0000,325.3750,41.4375,-177.0625,0
1776971850.632,7.4843,3.3208,-0.8835,-0.0405,-0.2220,0.2337,-82.3500,-13.2000,-46.6500,8.7724,-4.6591,-2.5283,-0.9148,3.2159,-2.5167,-9.6000,-21.9000,-178.6500,13.7800,-0.8200,-7.8200,-1.4170,-4.0121,-1.4737,-45.7500,36.6875,38.0000,324.8750,39.1250,-175.7500,0
1776971850.638,7.3622,3.0813,-0.9170,0.0338,-0.1700,0.3664,-82.3500,-13.2000,-46.6500,8.7724,-4.6591,-2.5283,-0.9148,3.2159,-2.5167,-10.8000,-22.0500,-177.3000,12.0700,-1.3700,-6.9800,-1.3384,-3.9772,-1.4388,-45.7500,36.6875,38.0000,324.4375,36.9375,-174.6875,0
1776971850.648,7.3789,2.7438,-1.0343,0.1178,-0.1450,0.4708,-84.0000,-13.0500,-45.3000,8.5784,-4.0893,-1.8004,-1.1303,3.2759,-2.4602,-10.6500,-21.9000,-172.2000,11.6000,-1.7400,-6.8100,-1.1661,-3.8888,-1.3363,-45.7500,36.6875,38.0000,324.4375,36.9375,-174.6875,0
1776971850.653,7.2137,2.5618,-0.9026,0.1106,-0.1330,0.5513,-85.2000,-15.0000,-45.3000,8.2528,-3.4596,-1.0008,-1.1868,3.4632,-2.4664,-10.6500,-21.9000,-172.2000,11.6000,-1.7400,-6.8100,-1.1661,-3.8888,-1.3363,-45.7500,36.6875,38.0000,324.0625,34.8750,-173.8125,0
1776971850.658,7.2137,2.5618,-0.9026,0.1106,-0.1330,0.5513,-85.2000,-15.0000,-45.3000,8.2528,-3.4596,-1.0008,-1.1868,3.4632,-2.4664,-10.6500,-21.9000,-172.2000,11.5500,-2.2800,-6.8400,-1.0123,-3.6696,-1.1312,-33.5000,27.5000,32.2500,324.0625,34.8750,-173.8125,0
1776971850.663,6.8043,2.7749,-0.5962,-0.0306,-0.0949,0.6320,-84.7500,-16.5000,-44.8500,8.7676,-3.6224,0.0287,-1.1077,3.7190,-2.4877,-11.2500,-18.3000,-169.8000,11.5500,-2.2800,-6.8400,-1.0123,-3.6696,-1.1312,-33.5000,27.5000,32.2500,323.8750,32.9375,-173.1250,0
1776971850.668,6.8043,2.7749,-0.5962,-0.0306,-0.0949,0.6320,-84.7500,-16.5000,-44.8500,8.7676,-3.6224,0.0287,-1.1077,3.7190,-2.4877,-11.2500,-18.3000,-169.8000,11.8300,-4.7100,-7.1600,-0.9610,-3.4001,-0.8607,-33.5000,27.5000,32.2500,323.8750,32.9375,-173.1250,0
1776971850.674,6.4165,3.0239,-0.0239,-0.3544,-0.0584,0.7237,-84.7500,-15.7500,-44.2500,9.6965,-3.6823,1.4246,-1.1652,3.7124,-2.4571,-12.7500,-16.9500,-167.5500,12.0700,-6.4900,-7.7800,-1.0090,-3.2070,-0.5934,-33.5000,27.5000,32.2500,323.8125,31.1250,-172.5000,0
1776971850.679,6.4165,3.0239,-0.0239,-0.3544,-0.0584,0.7237,-84.7500,-15.7500,-44.2500,10.9583,-3.5650,1.7478,-1.2524,3.3822,-2.3185,-12.7500,-16.9500,-167.5500,12.0700,-6.4900,-7.7800,-1.0090,-3.2070,-0.5934,-33.5000,27.5000,32.2500,323.8750,29.4375,-171.8750,0
1776971850.688,6.1172,3.0502,0.8930,-0.7552,-0.0333,0.8138,-85.8000,-17.5500,-43.6500,12.4953,-4.0079,1.0989,-1.3035,3.0235,-2.1618,-12.1500,-15.1500,-163.6500,12.5600,-7.1200,-8.2000,-1.1694,-3.0543,-0.3611,-33.5000,27.5000,32.2500,324.1875,27.8125,-171.1875,0
1776971850.698,6.0334,3.1675,1.4557,-1.0411,-0.0093,0.9164,-85.5000,-16.9500,-43.8000,14.1833,-4.4987,0.8356,-1.4631,2.3998,-1.9039,-9.1500,-12.1500,-162.6000,12.9100,-7.3700,-8.5000,-1.4028,-2.9038,-0.0654,-33.5000,27.5000,32.2500,324.1875,27.8125,-171.1875,0
1776971850.703,5.9783,3.3375,1.0630,-1.1578,0.0506,1.0152,-85.5000,-16.9500,-43.8000,14.1833,-4.4987,0.8356,-1.4631,2.3998,-1.9039,-7.0500,-9.4500,-159.7500,12.9100,-7.3700,-8.5000,-1.4028,-2.9038,-0.0654,-33.5000,27.5000,32.2500,324.1875,27.8125,-171.1875,0
1776971850.708,5.9783,3.3375,1.0630,-1.1578,0.0506,1.0152,-85.5000,-16.9500,-43.8000,11.8393,-4.2880,1.5419,-2.0504,2.2100,-1.7856,-7.0500,-9.4500,-159.7500,12.4800,-8.5100,-7.9100,-1.5043,-2.8285,0.3185,-35.0000,24.5000,26.5000,324.6875,26.3125,-170.5625,0
1776971850.713,6.0956,3.6583,0.4046,-1.2063,0.2601,1.0858,-84.6000,-19.5000,-41.7000,11.8393,-4.2880,1.5419,-2.0504,2.2100,-1.7856,-7.0500,-9.4500,-159.7500,12.4800,-8.5100,-7.9100,-1.5043,-2.8285,0.3185,-35.0000,24.5000,26.5000,324.6875,26.3125,-170.5625,0
1776971850.718,6.0956,3.6583,0.4046,-1.2063,0.2601,1.0858,-84.6000,-19.5000,-41.7000,10.7883,-2.0853,1.4796,-1.9361,2.5532,-1.8032,-7.0500,-9.4500,-159.7500,12.1600,-9.9400,-7.0500,-1.4846,-2.8602,0.7418,-35.0000,24.5000,26.5000,325.3750,24.8125,-170.0625,0
1776971850.727,6.9599,4.6759,0.1053,-1.3368,0.5073,1.1410,-84.6000,-19.5000,-41.7000,10.6279,0.2777,-1.1756,-2.1035,2.5794,-1.6419,-3.7500,-2.4000,-157.2000,12.8400,-10.5400,-6.2700,-1.4966,-2.7936,1.1312,-35.0000,24.5000,26.5000,326.3125,23.3750,-169.6250,0
1776971850.735,8.2384,6.3494,0.5746,-1.6046,0.6086,1.1671,-85.9500,-19.6500,-40.8000,10.6279,0.2777,-1.1756,-2.1035,2.5794,-1.6419,-3.7500,1.6500,-154.0500,12.4400,-8.8500,-2.2300,-1.6559,-2.6125,1.4563,-35.0000,24.5000,26.5000,327.4375,22.1250,-169.1875,0
1776971850.740,9.0621,7.9727,1.4413,-1.7912,0.5572,1.1322,-85.9500,-19.6500,-40.8000,10.8577,1.1037,-2.6767,-2.7720,2.4275,-1.4386,-3.7500,1.6500,-154.0500,12.4400,-8.8500,-2.2300,-1.6559,-2.6125,1.4563,-35.0000,24.5000,26.5000,328.7500,20.9375,-168.6875,0
1776971850.748,9.3685,9.1746,1.1899,-1.4799,0.4381,1.0781,-86.7000,-19.3500,-40.0500,10.9367,0.8428,-1.4054,-3.2159,2.1213,-1.2383,-2.1000,7.5000,-151.3500,11.6300,-9.3200,-0.2700,-1.7421,-2.4816,1.8261,-35.0000,24.5000,26.5000,328.7500,20.9375,-168.6875,0
1776971850.753,9.3685,9.1746,1.1899,-1.4799,0.4381,1.0781,-85.9500,-19.3500,-40.8000,10.9367,0.8428,-1.4054,-3.2159,2.1213,-1.2383,-1.2000,12.1500,-154.0500,11.6300,-9.3200,-0.2700,-1.7421,-2.4816,1.8261,-35.0000,20.0000,34.0000,330.3125,19.9375,-168.2500,0
1776971850.758,8.5329,10.1897,1.4174,-0.9249,0.3046,1.0166,-85.9500,-19.3500,-40.8000,12.4953,2.0566,2.1763,-3.3918,2.1027,-0.9694,-1.2000,12.1500,-154.0500,10.6600,-10.4400,1.3500,-1.7693,-2.2853,2.2384,-35.0000,20.0000,34.0000,330.3125,19.9375,-168.2500,0
1776971850.763,8.5329,10.1897,1.4174,-0.9249,0.3046,1.0166,-86.1000,-19.0500,-39.6000,12.4953,2.0566,2.1763,-3.3918,2.1027,-0.9694,-1.5000,13.6500,-154.3500,10.6600,-10.4400,1.3500,-1.7693,-2.2853,2.2384,-35.0000,20.0000,34.0000,332.0000,19.1250,-167.6875,0
1776971850.768,8.1044,11.0253,1.8220,-0.3456,0.2475,0.9086,-86.1000,-19.0500,-39.6000,16.0747,4.4388,6.3422,-2.9575,0.4501,-0.3611,-1.5000,13.6500,-154.3500,11.2600,-10.2000,4.2000,-2.0137,-2.0497,2.4925,-35.0000,20.0000,34.0000,332.0000,19.1250,-167.6875,0
1776971850.776,8.1044,11.0253,1.8220,-0.3456,0.2475,0.9086,-85.9500,-18.9000,-39.3000,12.7779,8.1523,7.9033,-2.6015,0.4335,0.0869,-1.5000,13.6500,-154.3500,12.3600,-8.3800,5.8200,-2.4304,-1.5359,2.5733,-35.0000,20.0000,34.0000,333.7500,18.6250,-166.8750,0
1776971850.780,8.3606,11.9878,1.4102,0.2707,0.1868,0.6955,-85.9500,-18.9000,-39.3000,12.7779,8.1523,7.9033,-2.6015,0.4335,0.0869,5.2500,27.4500,-170.1000,12.3600,-8.3800,5.8200,-2.4304,-1.5359,2.5733,-35.0000,20.0000,34.0000,335.5000,18.4375,-166.0000,0
1776971850.788,8.9160,12.3110,0.2179,0.8639,0.1743,0.4727,-86.1000,-19.9500,-36.9000,12.7539,7.6279,3.1173,-2.1186,0.2777,0.3317,5.2500,27.4500,-170.1000,13.0500,-7.2200,7.7200,-2.5918,-0.9752,2.6376,-35.0000,20.0000,34.0000,337.2500,18.5000,-165.2500,0
1776971850.798,8.6119,11.2839,-1.4820,1.2923,0.2150,0.2473,-86.1000,-19.9500,-36.9000,11.5257,6.4093,1.4940,-2.1048,-0.2494,0.4858,9.6000,37.6500,-184.9500,12.5900,-5.6100,10.2900,-2.2264,-0.5661,2.6387,-35.0000,20.0000,34.0000,337.2500,18.5000,-165.2500,0
1776971850.803,8.6119,11.2839,-1.4820,1.2923,0.2150,0.2473,-86.2500,-20.1000,-35.2500,11.5257,6.4093,1.4940,-2.1048,-0.2494,0.4858,14.2500,63.1500,-202.8000,12.5900,-5.6100,10.2900,-2.2264,-0.5661,2.6387,-35.0000,20.0000,34.0000,337.2500,18.5000,-165.2500,0
1776971850.808,6.5122,8.8178,-2.5187,1.2873,0.6225,0.0216,-86.2500,-20.1000,-35.2500,11.4491,-0.6177,-8.8777,-6.7868,2.4613,0.9049,14.2500,63.1500,-202.8000,8.3400,-4.2600,10.4000,-1.2883,-0.2607,2.5264,-28.0000,17.7500,40.1875,338.7500,18.6875,-165.0000,0
1776971850.813,6.5122,8.8178,-2.5187,1.2873,0.6225,0.0216,-86.2500,-20.1000,-35.2500,11.4491,-0.6177,-8.8777,-6.7868,2.4613,0.9049,19.6500,70.6500,-218.5500,8.3400,-4.2600,10.4000,-1.2883,-0.2607,2.5264,-28.0000,17.7500,40.1875,338.7500,18.6875,-165.0000,0
1776971850.818,8.5329,7.0270,-2.9090,1.4607,0.7296,-0.0560,-86.2500,-20.1000,-35.2500,11.9231,2.2242,-5.1691,-2.6593,2.8392,0.0341,19.6500,70.6500,-218.5500,8.0900,-5.0500,7.3000,-0.0840,0.2891,2.4391,-28.0000,17.7500,40.1875,340.1250,19.1875,-165.3750,0
1776971850.827,8.2289,5.2218,-2.4062,1.2820,0.6992,0.0616,-86.8500,-19.9500,-32.8500,12.7036,1.7861,0.8619,-0.5281,0.6941,0.2017,17.2500,64.6500,-232.8000,9.3100,-5.4800,3.5600,0.7450,1.1268,2.4827,-28.0000,17.7500,40.1875,341.3125,20.1250,-166.2500,0
1776971850.837,9.0285,3.0957,-2.0853,1.2862,0.3752,0.2904,-86.7000,-20.4000,-29.7000,13.1777,1.3240,0.7973,-0.4658,-2.1397,0.4226,17.2500,64.6500,-232.8000,9.6300,-3.4100,-3.4700,1.0810,1.7999,2.4555,-28.0000,17.7500,40.1875,342.5000,21.4375,-167.2500,0
1776971850.845,10.1993,2.0830,-2.3583,1.3065,0.0035,0.6472,-85.5000,-20.8500,-27.9000,11.8082,0.5650,3.1340,-0.3592,-4.3385,0.3216,9.3000,49.8000,-255.3000,-7.2200,1.5500,-18.6700,0.9425,2.1108,2.2798,-28.0000,17.7500,40.1875,343.5000,22.8750,-168.1875,0
1776971850.850,10.1993,2.0830,-2.3583,1.3065,0.0035,0.6472,-85.5000,-20.8500,-27.9000,11.8082,0.5650,3.1340,-0.3592,-4.3385,0.3216,7.2000,49.0500,-257.8500,-7.2200,1.5500,-18.6700,0.9425,2.1108,2.2798,-28.0000,17.7500,40.1875,343.5000,22.8750,-168.1875,0
1776971850.855,9.5600,2.0758,-0.9649,0.9110,-0.0432,0.9971,-85.3500,-20.7000,-26.2500,7.3334,2.4157,7.3741,1.0451,-5.0396,-0.0541,7.2000,49.0500,-257.8500,0.3100,7.2900,-17.9300,0.7527,2.3824,2.4718,-26.3750,16.8750,39.8750,344.6875,24.4375,-169.0625,0
1776971850.860,9.5600,2.0758,-0.9649,0.9110,-0.0432,0.9971,-85.3500,-20.7000,-26.2500,7.3334,2.4157,7.3741,1.0451,-5.0396,-0.0541,6.3000,46.9500,-258.4500,0.3100,7.2900,-17.9300,0.7527,2.3824,2.4718,-26.3750,16.8750,39.8750,344.6875,24.4375,-169.0625,0
1776971850.864,11.2934,1.2210,-0.5770,0.4165,-0.0949,1.3424,-85.5000,-20.1000,-26.1000,6.0190,6.2082,11.5736,4.2008,-3.0270,-0.8050,6.3000,46.9500,-258.4500,11.3200,9.0600,-22.5000,0.9370,2.9856,3.8779,-26.3750,16.8750,39.8750,346.5625,26.4375,-170.4375,0
1776971850.869,11.2934,1.2210,-0.5770,0.4165,-0.0949,1.3424,-85.5000,-20.1000,-26.1000,6.0190,6.2082,11.5736,4.2008,-3.0270,-0.8050,-0.4500,56.7000,-254.4000,11.3200,9.0600,-22.5000,0.9370,2.9856,3.8779,-26.3750,16.8750,39.8750,348.3750,28.6875,-171.3750,0
1776971850.878,12.2823,-0.3998,-1.0415,0.0818,-0.0802,1.7136,-84.7500,-20.1000,-24.6000,14.0755,8.8107,6.1411,1.8780,-1.5170,-0.2585,-6.3000,70.2000,-245.5500,4.0600,19.9000,9.5800,0.1353,3.5452,3.6183,-26.3750,16.8750,39.8750,349.1875,30.3750,-171.4375,0
1776971850.888,18.9645,0.3041,-4.9392,0.6803,0.2982,2.2343,-84.7500,-20.1000,-24.6000,18.1145,5.5522,-2.5139,0.0128,-1.0869,0.5937,-6.3000,70.2000,-245.5500,21.6800,17.3400,-13.8100,-0.5323,2.8263,1.5163,-26.3750,16.8750,39.8750,349.1875,30.3750,-171.4375,0
1776971850.898,21.3467,4.3646,-8.3175,0.7429,-0.3211,2.6041,-84.6000,-21.9000,-20.7000,23.2381,3.5410,-0.4645,1.0451,-0.3896,0.8298,-11.8500,97.5000,-248.5500,30.4200,14.5900,-26.3400,1.2883,3.6412,1.5512,-26.3750,16.8750,39.8750,349.7500,32.5000,-172.5000,0
1776971850.903,14.4849,5.9065,-3.3495,-1.1045,-0.4122,1.9953,-84.6000,-21.9000,-20.7000,18.8663,-2.2553,-2.4086,2.0875,-0.1322,0.7474,-11.8500,97.5000,-248.5500,30.4200,14.5900,-26.3400,1.2883,3.6412,1.5512,-26.3750,16.8750,39.8750,349.7500,32.5000,-172.5000,0
1776971850.908,14.4849,5.9065,-3.3495,-1.1045,-0.4122,1.9953,-84.6000,-21.9000,-20.7000,18.8663,-2.2553,-2.4086,2.0875,-0.1322,0.7474,-10.8000,112.0500,-252.1500,10.8000,-1.3900,-2.6400,2.2613,2.0497,0.6469,-27.2500,23.3750,35.7500,349.6875,33.6250,-173.9375,0
1776971850.913,11.3533,2.5929,2.1261,-2.6132,0.3309,1.3049,-82.9500,-24.0000,-19.8000,11.4395,-10.3046,-2.6312,1.7371,0.2769,1.0882,-10.8000,112.0500,-252.1500,10.8000,-1.3900,-2.6400,2.2613,2.0497,0.6469,-27.2500,23.3750,35.7500,349.6875,33.6250,-173.9375,0
1776971850.918,11.3533,2.5929,2.1261,-2.6132,0.3309,1.3049,-82.9500,-24.0000,-19.8000,11.4395,-10.3046,-2.6312,1.7371,0.2769,1.0882,-6.4500,117.7500,-251.8500,16.6900,-11.0900,-23.1000,2.2286,1.6144,0.5181,-27.2500,23.3750,35.7500,349.5625,34.5625,-175.2500,0
1776971850.926,9.5768,-1.0942,5.3989,-2.5021,0.7184,1.1415,-82.2000,-23.2500,-18.6000,9.0477,-13.0963,-1.8771,1.4581,-0.1495,1.4341,-6.4500,117.7500,-251.8500,7.5800,-20.2100,-6.1500,2.4882,-0.0436,0.0993,-27.2500,23.3750,35.7500,349.1875,34.5625,-176.6875,0
1776971850.930,7.5010,-5.0135,5.1212,-2.5021,0.7184,1.1415,-82.2000,-23.2500,-18.6000,9.0501,-9.5002,-3.2058,1.1639,-0.9049,1.6153,-1.5000,116.7000,-249.1500,7.5800,-20.2100,-6.1500,2.4882,-0.0436,0.0993,-27.2500,23.3750,35.7500,349.0625,34.2500,-177.6250,0
1776971850.938,7.5010,-5.0135,5.1212,-1.5319,0.8633,1.2513,-80.8500,-23.8500,-18.7500,9.0501,-9.5002,-3.2058,1.1639,-0.9049,1.6153,-1.5000,116.7000,-249.1500,7.5800,-2.8100,-9.7200,1.4192,-0.5541,0.2694,-27.2500,23.3750,35.7500,349.0000,34.6250,-177.5000,0
1776971850.948,5.5737,-6.1244,3.8810,-0.4882,0.9880,1.3925,-81.9000,-23.8500,-18.7500,6.8761,-1.3024,-4.1180,0.9060,-1.1946,1.7555,-1.5000,116.7000,-249.1500,6.6600,0.5000,-7.4700,-0.0404,0.6632,-0.1124,-27.2500,23.3750,35.7500,349.0000,34.6250,-177.5000,0
1776971850.953,5.7150,-6.1244,2.6336,0.1242,1.2292,1.5098,-81.9000,-25.0500,-16.6500,8.3438,4.9344,-0.6081,0.4706,-0.7898,1.5886,-1.5000,116.7000,-249.1500,6.6600,0.5000,-7.4700,-0.0404,0.6632,-0.1124,-27.2500,23.3750,35.7500,348.8750,35.3750,-177.1875,0
1776971850.958,5.7150,-6.1244,2.6336,0.1242,1.2292,1.5098,-81.9000,-25.0500,-16.6500,8.3438,4.9344,-0.6081,-0.2419,-0.8761,1.4501,4.8000,83.7000,-222.7500,6.4600,3.5700,-6.7900,-0.3687,1.4170,-0.3076,-30.0625,28.0625,31.0000,348.8750,35.3750,-177.1875,0
1776971850.963,6.7038,-3.0574,-0.1125,0.2715,1.1575,1.5396,-81.1500,-25.0500,-16.6500,8.4132,5.4037,5.7724,-0.2419,-0.8761,1.4501,4.8000,83.7000,-222.7500,6.4600,3.5700,-6.7900,-0.3687,1.4170,-0.3076,-30.0625,28.0625,31.0000,348.7500,36.0625,-176.8125,0
1776971850.968,6.7038,-3.0574,-0.1125,0.2715,1.1575,1.5396,-81.1500,-25.3500,-16.2000,7.2616,2.9521,8.2121,-0.2414,-1.0195,1.3574,8.1000,72.1500,-222.0000,6.0600,2.0000,-7.3200,-0.3829,1.2632,-0.3163,-30.0625,28.0625,31.0000,348.7500,36.0625,-176.8125,0
1776971850.973,8.0014,-0.1580,-1.5275,-0.0866,0.8426,1.5612,-81.1500,-25.3500,-16.2000,7.2616,2.9521,8.2121,-0.2414,-1.0195,1.3574,8.1000,72.1500,-222.0000,6.0600,2.0000,-7.3200,0.1254,0.9327,-0.1669,-30.0625,28.0625,31.0000,348.6250,36.5625,-176.8125,0
1776971850.979,9.4427,1.5036,-1.6999,-0.7072,0.4365,1.6025,-81.1500,-25.3500,-16.2000,6.7157,1.1444,6.8809,0.3962,-0.8655,1.1996,13.0500,63.7500,-221.1000,6.2700,0.6500,-7.1500,0.1254,0.9327,-0.1669,-30.0625,28.0625,31.0000,348.5625,36.8125,-176.9375,0
1776971850.988,9.8785,2.8706,-2.0111,-0.7072,0.4365,1.6025,-80.2500,-24.4500,-14.2500,6.9863,0.1460,5.5522,0.7615,-0.0397,0.9923,16.5000,59.7000,-222.7500,5.6700,1.2100,-7.3400,0.2847,0.3698,-0.0229,-30.0625,28.0625,31.0000,348.5625,36.8125,-176.9375,0
1776971850.998,9.7779,3.5099,-0.6440,-1.1858,-0.0176,1.2756,-80.2500,-24.4500,-14.2500,9.4954,-0.4980,2.6240,0.4429,0.2912,0.9268,16.5000,59.7000,-222.7500,5.2100,1.0000,-7.9900,0.1778,-0.3927,0.1167,-30.0625,28.0625,31.0000,348.6250,36.5625,-177.0625,0
1776971851.003,9.7779,3.5099,-0.6440,-1.1858,-0.0176,1.2756,-80.2500,-24.4500,-14.2500,9.4954,-0.4980,2.6240,0.4429,0.2912,0.9268,16.5000,59.7000,-222.7500,5.2100,1.0000,-7.9900,0.1778,-0.3927,0.1167,-30.0625,28.0625,31.0000,348.6250,36.5625,-177.0625,0
1776971851.008,9.6678,2.6767,1.7980,-0.8418,0.1258,0.9859,-80.4000,-25.8000,-15.1500,10.1658,-0.7039,0.5531,0.7325,0.0733,0.8244,16.5000,59.7000,-222.7500,5.6000,0.4400,-8.3100,0.0382,-0.4003,0.1669,-30.0625,27.5000,27.5000,348.6875,36.3750,-177.1875,0
1776971851.013,9.6678,2.6767,1.7980,-0.8418,0.1258,0.9859,-80.4000,-25.8000,-15.1500,10.1658,-0.7039,0.5531,0.7325,0.0733,0.8244,16.5000,59.7000,-222.7500,5.6000,0.4400,-8.3100,0.0382,-0.4003,0.1669,-30.0625,27.5000,27.5000,348.6875,36.3750,-177.1875,0
1776971851.018,9.6055,1.1851,3.8930,-0.0160,0.2137,0.7341,-79.3500,-25.8000,-13.9500,10.6973,-0.5698,0.7590,0.7802,-0.4391,0.8108,15.3000,63.1500,-219.6000,5.8700,0.4000,-8.1000,-0.1549,0.1396,0.1091,-30.0625,27.5000,27.5000,348.8125,36.4375,-177.1250,0
1776971851.026,9.5600,-0.8140,5.4803,-0.0160,0.2137,0.7341,-78.7500,-24.4500,-14.8500,11.0014,-0.5962,2.0303,0.3757,-0.8303,0.8548,16.6500,62.2500,-220.8000,6.6500,0.0800,-7.7600,-0.0022,0.6010,0.0644,-30.0625,27.5000,27.5000,348.8125,36.8125,-177.1250,0
1776971851.031,9.5600,-0.8140,5.4803,0.8023,0.3677,0.6126,-78.7500,-24.4500,-14.8500,11.0014,-0.5962,2.0303,0.3757,-0.8303,0.8548,16.6500,62.2500,-220.8000,6.6500,0.0800,-7.7600,-0.0022,0.6010,0.0644,-30.0625,27.5000,27.5000,348.8125,37.1250,-177.1875,0
1776971851.039,8.9040,-1.5826,5.7988,1.2052,0.5407,0.5596,-80.2500,-26.7000,-13.5000,8.7029,-3.1843,-0.0742,0.4596,-1.2100,0.8268,15.7500,61.9500,-220.6500,6.5600,0.1600,-7.7900,0.0753,0.6720,0.0382,-30.0625,27.5000,27.5000,348.7500,37.5000,-177.2500,0
1776971851.048,8.6431,-1.2761,4.5753,1.3896,0.5694,0.5606,-79.3500,-26.1000,-13.6500,7.7117,-4.3144,-0.6752,0.8351,-0.4695,0.6715,14.8500,58.8000,-219.7500,6.6600,0.1900,-7.5800,0.1309,0.5716,-0.0011,-30.0625,27.5000,27.5000,348.7500,37.5000,-177.2500,0
1776971851.053,8.6431,-1.2761,4.5753,1.3896,0.5694,0.5606,-79.3500,-26.1000,-13.6500,7.7117,-4.3144,-0.6752,0.8351,-0.4695,0.6715,14.8500,58.8000,-219.7500,6.6600,0.1900,-7.5800,0.1309,0.5716,-0.0011,-30.7500,26.5000,28.3750,348.6875,37.6875,-177.3750,0
1776971851.058,8.8322,-0.8859,2.7869,1.4232,0.5953,0.5820,-79.5000,-25.2000,-13.8000,9.1291,-3.6655,0.9098,1.0789,-0.1002,0.6502,14.8500,58.8000,-219.7500,6.3600,0.2100,-7.8500,0.2171,0.4472,-0.0611,-30.7500,26.5000,28.3750,348.6875,37.6875,-177.3750,0
1776971851.063,8.8322,-0.8859,2.7869,1.4232,0.5953,0.5820,-79.5000,-25.2000,-13.8000,9.1291,-3.6655,0.9098,1.0789,-0.1002,0.6502,14.8500,58.8000,-219.7500,6.3600,0.2100,-7.8500,0.2171,0.4472,-0.0611,-30.7500,26.5000,28.3750,348.6250,37.9375,-177.4375,0
1776971851.068,8.8155,-0.6440,1.7286,1.3952,0.6499,0.5921,-78.4500,-26.5500,-13.2000,8.9591,-2.8922,1.2306,1.2228,-0.3757,0.6965,14.8500,58.8000,-219.7500,6.5500,0.1900,-7.7400,0.2171,0.4472,-0.0611,-30.7500,26.5000,28.3750,348.6250,37.9375,-177.4375,0
1776971851.073,8.8155,-0.6440,1.7286,1.3952,0.6499,0.5921,-78.4500,-26.5500,-13.2000,8.9591,-2.8922,1.2306,1.2228,-0.3757,0.6965,14.8500,58.8000,-219.7500,6.5500,0.1900,-7.7400,0.2214,0.5923,-0.1222,-30.7500,26.5000,28.3750,348.5000,38.3125,-177.5000,0
1776971851.079,9.2153,-1.9321,0.9361,1.2457,0.6411,0.5790,-78.9000,-25.8000,-10.3500,9.2895,-2.5522,2.5881,0.9246,-0.3938,0.7093,9.0000,52.5000,-216.9000,6.6200,0.5200,-7.1800,0.2214,0.5923,-0.1222,-30.7500,26.5000,28.3750,348.4375,38.3125,-177.5625,0
1776971851.088,9.6917,-2.5379,0.3519,0.8844,0.6720,0.5598,-78.9000,-25.8000,-10.3500,9.7540,-3.0742,3.7876,0.5039,-0.3477,0.7589,9.7500,48.3000,-215.8500,6.5500,0.4000,-7.3300,0.1636,0.0764,-0.0676,-30.7500,26.5000,28.3750,348.4375,38.3125,-177.5625,0
1776971851.098,10.2185,-2.6839,0.2298,0.4375,0.6177,0.5407,-80.2500,-25.5000,-8.7000,9.0836,-3.5051,3.7996,0.1295,-0.4615,0.8026,11.2500,45.0000,-213.0000,6.1300,0.1200,-7.7600,0.2487,0.0153,-0.0524,-30.7500,26.5000,28.3750,348.3750,38.3125,-177.6875,0
1776971851.103,10.0892,-2.2290,0.4884,0.4375,0.6177,0.5407,-80.2500,-25.5000,-8.7000,9.0836,-3.5051,3.7996,-0.1258,-0.3816,0.8468,11.2500,45.0000,-213.0000,6.1300,0.1200,-7.7600,0.2487,0.0153,-0.0524,-30.7500,26.5000,28.3750,348.3125,38.4375,-177.7500,0
1776971851.108,10.0892,-2.2290,0.4884,-0.0946,0.5079,0.5039,-78.9000,-25.8000,-9.1500,9.0764,-3.9121,3.3974,-0.1258,-0.3816,0.8468,13.8000,41.2500,-212.5500,6.0500,-0.1300,-7.9200,0.1931,0.1549,-0.0578,-31.5000,28.2500,28.0000,348.3125,38.4375,-177.7500,0
1776971851.113,9.3661,-0.7302,1.0151,-0.7389,0.4080,0.4615,-78.9000,-25.8000,-9.1500,9.3948,-3.4907,2.5163,-0.3078,-0.2494,0.8639,13.8000,41.2500,-212.5500,6.0500,-0.1300,-7.9200,0.1931,0.1549,-0.0578,-31.5000,28.2500,28.0000,348.2500,38.5625,-177.7500,0
1776971851.118,9.3661,-0.7302,1.0151,-0.7389,0.4080,0.4615,-80.2500,-25.5000,-9.3000,9.3948,-3.4907,2.5163,-0.3078,-0.2494,0.8639,13.8000,41.2500,-212.5500,6.1800,0.1700,-7.4400,0.1047,0.3076,-0.0633,-31.5000,28.2500,28.0000,348.2500,38.5625,-177.7500,0
1776971851.126,9.5768,-0.4429,1.5275,-1.1583,0.4562,0.4143,-78.3000,-25.2000,-8.2500,9.4763,-2.8539,1.6616,-0.4948,-0.2124,0.8410,16.2000,36.0000,-209.7000,6.1300,0.2500,-7.7200,0.0927,0.3043,-0.0578,-31.5000,28.2500,28.0000,348.1875,38.7500,-177.8125,0
1776971851.131,9.5768,-0.4429,1.5275,-1.1583,0.4562,0.4143,-78.3000,-25.2000,-8.2500,9.4763,-2.8539,1.6616,-0.4948,-0.2124,0.8410,16.2000,36.0000,-209.7000,6.1300,0.2500,-7.7200,0.0927,0.3043,-0.0578,-31.5000,28.2500,28.0000,348.1250,38.9375,-177.7500,0
1776971851.139,9.7372,-0.4334,2.2027,-1.5476,0.4056,0.3392,-79.5000,-25.9500,-8.7000,9.5888,-2.6432,1.0271,-0.6640,-0.1735,0.7898,17.7000,36.7500,-209.7000,6.1300,0.0800,-7.6600,0.0535,0.3371,-0.0742,-31.5000,28.2500,28.0000,348.0625,39.1875,-177.7500,0
1776971851.149,9.5792,-0.5674,2.3080,-1.7405,0.3869,0.2398,-77.7000,-25.0500,-8.4000,9.3829,-2.3248,1.1684,-0.8180,-0.1116,0.7152,18.6000,34.2000,-207.7500,6.2500,0.1400,-7.6700,-0.0011,0.3992,-0.0764,-31.5000,28.2500,28.0000,348.0625,39.1875,-177.7500,0
1776971851.153,9.3877,-0.3376,2.2242,-1.8445,0.3477,0.1881,-77.7000,-25.0500,-8.4000,9.4140,-2.1548,1.1372,-0.7722,-0.0370,0.6041,18.7500,35.2500,-208.6500,6.2500,0.1400,-7.6700,-0.0011,0.3992,-0.0764,-31.5000,28.2500,28.0000,348.0625,39.1875,-177.7500,0
1776971851.159,9.3877,-0.3376,2.2242,-1.8445,0.3477,0.1881,-78.7500,-24.7500,-8.2500,9.4140,-2.1548,1.1372,-0.7722,-0.0370,0.6041,18.7500,35.2500,-208.6500,6.4900,0.1800,-7.4500,-0.0098,0.3840,-0.0491,-31.5000,26.3750,26.0000,348.0625,39.3750,-177.6875,0
1776971851.163,9.4308,-0.3974,1.7885,-1.8695,0.3118,0.1636,-78.7500,-24.7500,-8.2500,9.6199,-1.8172,1.0247,-0.7402,0.0240,0.5183,16.5000,34.6500,-207.4500,6.4900,0.1800,-7.4500,-0.0098,0.3840,-0.0491,-31.5000,26.3750,26.0000,348.0625,39.3750,-177.6875,0
1776971851.168,9.4308,-0.3974,1.7885,-1.8695,0.3118,0.1636,-78.3000,-26.4000,-9.0000,9.6199,-1.8172,1.0247,-0.7402,0.0240,0.5183,16.5000,34.6500,-207.4500,6.4400,0.2600,-7.3600,0.0011,0.2727,-0.0338,-31.5000,26.3750,26.0000,348.0000,39.5625,-177.6875,0
1776971851.173,9.5624,-0.5938,1.4341,-1.8903,0.2497,0.1652,-78.3000,-26.4000,-9.0000,9.6893,-1.3288,1.3503,-0.7472,-0.0139,0.4767,16.5000,34.6500,-207.4500,6.4400,0.2600,-7.3600,-0.0185,0.1789,0.0022,-31.5000,26.3750,26.0000,348.0000,39.6250,-177.6875,0
1776971851.179,9.5624,-0.5938,1.4341,-1.8903,0.2497,0.1652,-78.3000,-26.4000,-9.0000,9.6893,-1.3288,1.3503,-0.7472,-0.0139,0.4767,16.5000,34.6500,-207.4500,6.4000,0.2200,-7.5000,-0.0185,0.1789,0.0022,-31.5000,26.3750,26.0000,348.0000,39.6250,-177.6875,0
1776971851.188,9.7109,-0.7853,1.2737,-1.9532,0.1628,0.1788,-77.5500,-25.9500,-10.5000,9.6343,-1.2857,1.5012,-0.7418,-0.1090,0.4810,12.6000,33.7500,-209.7000,6.3100,0.3100,-7.4800,-0.0458,0.1614,0.0076,-31.5000,26.3750,26.0000,348.0000,39.7500,-177.6875,0
1776971851.193,9.7229,-0.7039,1.5227,-2.0699,0.1039,0.1958,-77.5500,-25.9500,-10.5000,9.4547,-1.4413,1.5562,-0.7045,-0.2137,0.4762,14.1000,34.5000,-209.4000,6.3100,0.3100,-7.4800,-0.0622,0.1833,0.0065,-31.5000,26.3750,26.0000,348.0625,39.8125,-177.6250,0
1776971851.200,9.5505,-0.4238,1.9632,-2.0699,0.1039,0.1958,-77.5500,-25.9500,-10.5000,9.4547,-1.4413,1.5562,-0.7045,-0.2137,0.4762,14.1000,34.5000,-209.4000,6.4100,0.4700,-7.3700,-0.0622,0.1833,0.0065,-31.5000,26.3750,26.0000,348.0625,39.8125,-177.6250,0
1776971851.204,9.5505,-0.4238,1.9632,-2.1322,0.1250,0.1940,-77.5500,-25.9500,-10.5000,8.4180,-1.7214,0.2035,-0.6622,-0.3872,0.4858,13.9500,33.4500,-211.0500,6.4100,0.4700,-7.3700,-0.0622,0.1833,0.0065,-31.5000,27.8750,26.3750,348.0625,39.9375,-177.5625,0
1776971851.209,9.4164,-0.4070,2.7222,-2.0288,0.1860,0.1777,-78.3000,-25.5000,-10.5000,8.4180,-1.7214,0.2035,-0.6622,-0.3872,0.4858,13.9500,33.4500,-211.0500,6.2100,0.4600,-7.3300,-0.0622,0.1844,0.0196,-31.5000,27.8750,26.3750,348.0625,39.9375,-177.5625,0
1776971851.214,9.4164,-0.4070,2.7222,-2.0288,0.1860,0.1777,-78.3000,-25.5000,-10.5000,8.9495,-1.9201,0.6273,-0.6297,-0.2076,0.4775,12.3000,34.5000,-212.5500,6.2100,0.4600,-7.3300,-0.0622,0.1844,0.0196,-31.5000,27.8750,26.3750,348.0625,40.0625,-177.5625,0
1776971851.219,9.1674,-0.1915,3.3758,-1.7837,0.2491,0.1423,-78.7500,-25.5000,-9.7500,8.9495,-1.9201,0.6273,-0.5415,-0.1143,0.4719,12.3000,34.5000,-212.5500,6.2300,0.4900,-7.4200,-0.0698,0.2291,0.0262,-31.5000,27.8750,26.3750,348.0625,40.0625,-177.5625,0
1776971851.224,9.1674,-0.1915,3.3758,-1.7837,0.2491,0.1423,-78.7500,-25.5000,-9.7500,8.9495,-2.0853,0.2059,-0.5415,-0.1143,0.4719,12.7500,36.4500,-213.1500,6.2300,0.4900,-7.4200,-0.0764,0.2771,0.0284,-31.5000,27.8750,26.3750,348.1250,40.2500,-177.5000,0
1776971851.230,9.2871,-0.1101,3.7709,-1.4229,0.3176,0.1130,-78.4500,-26.5500,-11.4000,9.3709,-2.2146,0.5626,-0.4724,-0.0472,0.4871,12.7500,36.4500,-213.1500,6.4200,0.3500,-7.3900,-0.0764,0.2771,0.0284,-31.5000,27.8750,26.3750,348.1250,40.2500,-177.5000,0
1776971851.238,9.5313,-0.2346,3.4979,-1.0051,0.3704,0.1026,-78.1500,-27.0000,-8.8500,9.3709,-2.2146,0.5626,-0.4724,-0.0472,0.4871,12.7500,36.4500,-213.1500,6.4500,0.3900,-7.3200,-0.0829,0.2956,0.0218,-31.5000,27.8750,26.3750,348.1250,40.3750,-177.5000,0
1776971851.244,9.5313,-0.2346,3.4979,-1.0051,0.3704,0.1026,-78.1500,-27.0000,-8.8500,9.5648,-2.4134,0.9960,-0.5359,-0.0306,0.5119,12.3000,37.5000,-214.3500,6.4500,0.3900,-7.3200,-0.1091,0.2923,0.0251,-31.5000,27.8750,26.3750,348.1875,40.5625,-177.4375,0
1776971851.250,9.7229,-0.3639,2.8156,-0.6592,0.3568,0.0863,-78.4500,-26.1000,-9.9000,9.6989,-2.0806,1.3048,-0.6174,-0.1058,0.5433,12.3000,37.5000,-214.3500,6.3300,0.4200,-7.2500,-0.1091,0.2923,0.0251,-31.5000,27.8750,26.3750,348.1875,40.5625,-177.4375,0
1776971851.254,9.7229,-0.3639,2.8156,-0.6592,0.3568,0.0863,-78.4500,-26.1000,-9.9000,9.6989,-2.0806,1.3048,-0.6174,-0.1058,0.5433,13.3500,34.5000,-215.1000,6.3300,0.4200,-7.2500,-0.0535,0.3251,0.0142,-32.2500,27.7500,26.0625,348.1875,40.7500,-177.3750,0
1776971851.259,9.8474,-0.5698,1.9800,-0.4860,0.3437,0.0733,-79.8000,-26.7000,-11.2500,9.4691,-1.8555,1.4629,-0.7099,-0.0999,0.5521,13.3500,34.5000,-215.1000,6.3300,0.3900,-7.2700,-0.0535,0.3251,0.0142,-32.2500,27.7500,26.0625,348.1875,40.7500,-177.3750,0
1776971851.264,9.8474,-0.5698,1.9800,-0.4860,0.3437,0.0733,-79.8000,-26.7000,-11.2500,9.4691,-1.8555,1.4629,-0.7099,-0.0999,0.5521,14.8500,33.7500,-214.3500,6.3300,0.3900,-7.2700,-0.0535,0.3251,0.0142,-32.2500,27.7500,26.0625,348.1875,40.9375,-177.3750,0
1776971851.269,10.0844,-1.2354,1.3838,-0.5071,0.2992,0.0450,-79.8000,-26.7000,-11.2500,9.6247,-1.2091,1.9968,-0.9134,-0.1583,0.5500,14.8500,33.7500,-214.3500,6.2100,0.3500,-7.2600,-0.0338,0.3502,0.0022,-32.2500,27.7500,26.0625,348.1875,40.9375,-177.3750,0
1776971851.274,10.0844,-1.2354,1.3838,-0.5071,0.2992,0.0450,-79.8000,-26.7000,-11.2500,9.6247,-1.2091,1.9968,-0.9134,-0.1583,0.5500,15.6000,33.3000,-216.1500,6.2100,0.3500,-7.2600,-0.0207,0.4036,-0.0120,-32.2500,27.7500,26.0625,348.1875,41.1875,-177.3125,0
1776971851.279,9.9311,-0.9936,1.1540,-0.7011,0.2705,0.0381,-77.7000,-26.5500,-10.3500,9.7157,-0.6991,1.7190,-1.2380,-0.0719,0.5521,15.6000,33.3000,-216.1500,6.5300,0.2600,-7.1600,-0.0207,0.4036,-0.0120,-32.2500,27.7500,26.0625,348.1875,41.1875,-177.3125,0
1776971851.288,9.7564,-0.5650,0.8332,-0.9246,0.2689,0.0221,-77.7000,-26.5500,-10.3500,9.7205,-1.0415,0.3591,-1.2449,-0.0021,0.5228,16.0500,32.7000,-214.9500,6.5400,0.3700,-7.4300,-0.0109,0.3872,-0.0175,-32.2500,27.7500,26.0625,348.1875,41.3750,-177.3125,0
1776971851.293,9.7564,-0.5650,0.8332,-0.9246,0.2689,0.0221,-77.7000,-26.5500,-10.3500,9.7205,-1.0415,0.3591,-1.2449,-0.0021,0.5228,16.0500,32.7000,-214.9500,6.5400,0.3700,-7.4300,-0.0196,0.4003,-0.0207,-32.2500,27.7500,26.0625,348.1875,41.6250,-177.2500,0
1776971851.300,9.8497,-0.7590,0.2993,-1.3102,0.2643,-0.0176,-77.7000,-25.3500,-10.6500,9.6534,-1.5706,1.4341,-1.0237,0.0298,0.4842,16.0500,32.7000,-214.9500,6.7400,0.2600,-7.2700,-0.0196,0.4003,-0.0207,-32.2500,27.7500,26.0625,348.1875,41.6250,-177.2500,0
1776971851.304,9.8378,-0.8188,0.7733,-1.3102,0.2643,-0.0176,-77.7000,-25.3500,-10.6500,9.6534,-1.5706,1.4341,-1.0237,0.0298,0.4842,17.7000,31.0500,-217.2000,6.7400,0.2600,-7.2700,-0.0338,0.3894,-0.0371,-32.5625,28.1875,25.2500,348.1250,41.8125,-177.2500,0
1776971851.310,9.8378,-0.8188,0.7733,-1.7451,0.2228,-0.0687,-78.9000,-25.8000,-10.6500,9.4379,-2.4995,1.4605,-1.0163,-0.0445,0.4655,17.7000,31.0500,-217.2000,6.6000,0.4000,-7.3400,-0.0338,0.3894,-0.0371,-32.5625,28.1875,25.2500,348.1250,41.8125,-177.2500,0
1776971851.314,9.6199,-0.7901,1.6352,-1.7451,0.2228,-0.0687,-78.9000,-25.8000,-10.6500,9.4379,-2.4995,1.4605,-1.0163,-0.0445,0.4655,18.3000,30.1500,-218.8500,6.6000,0.4000,-7.3400,-0.0295,0.4189,-0.0393,-32.5625,28.1875,25.2500,348.1250,42.0625,-177.1875,0
1776971851.320,9.6199,-0.7901,1.6352,-2.0073,0.1527,-0.1124,-76.8000,-27.1500,-10.8000,9.4236,-3.3112,1.2402,-1.0355,-0.0786,0.4533,18.3000,30.1500,-218.8500,6.5700,0.3700,-7.2800,-0.0295,0.4189,-0.0393,-32.5625,28.1875,25.2500,348.0625,42.3125,-177.1250,0
1776971851.329,9.5577,-1.1085,2.5738,-2.1554,0.0845,-0.1234,-77.4000,-27.0000,-11.4000,9.6414,-3.7948,0.7326,-1.0413,-0.1687,0.4647,18.1500,29.5500,-220.0500,6.7000,0.2300,-7.2700,0.0142,0.4429,-0.0513,-32.5625,28.1875,25.2500,348.0625,42.3125,-177.1250,0
1776971851.334,9.7396,-1.3001,2.9449,-2.2292,0.0437,-0.1138,-77.4000,-27.0000,-11.4000,9.6414,-3.7948,0.7326,-1.0413,-0.1687,0.4647,17.5500,25.9500,-220.6500,6.7000,0.2300,-7.2700,-0.0600,0.4200,-0.0644,-32.5625,28.1875,25.2500,348.0625,42.5000,-177.0625,0
1776971851.340,9.7396,-1.3001,2.9449,-2.2292,0.0437,-0.1138,-77.7000,-26.5500,-12.1500,9.8665,-3.6871,1.0295,-1.0754,-0.2817,0.4988,17.7000,25.5000,-221.1000,6.6000,0.3700,-7.2700,-0.0600,0.4200,-0.0644,-32.5625,28.1875,25.2500,348.0625,42.5000,-177.0625,0
1776971851.349,9.5816,-1.3838,3.1053,-2.2580,0.0272,-0.0981,-77.7000,-25.3500,-11.8500,9.7779,-3.7350,0.8523,-1.0877,-0.3381,0.5225,17.7000,25.5000,-221.1000,6.9300,0.4500,-7.2100,-0.0644,0.4549,-0.0731,-32.5625,28.1875,25.2500,348.0000,42.7500,-177.0000,0
1776971851.354,9.7085,-1.2474,2.8970,-2.2647,0.0160,-0.1116,-77.7000,-25.3500,-11.8500,9.7779,-3.7350,0.8523,-1.0877,-0.3381,0.5225,17.7000,25.5000,-221.1000,6.9300,0.4500,-7.2100,-0.0644,0.4549,-0.0731,-32.5625,28.1875,25.2500,348.0000,42.7500,-177.0000,0
1776971851.359,9.7085,-1.2474,2.8970,-2.2647,0.0160,-0.1116,-77.7000,-25.3500,-11.8500,9.5888,-3.6751,0.7446,-1.1218,-0.2931,0.5279,17.7000,25.5000,-221.1000,6.8100,0.4800,-7.0900,-0.0284,0.4494,-0.0764,-33.7500,26.0000,26.0625,348.0000,43.0000,-176.9375,0
1776971851.364,9.6486,-1.1037,2.7749,-2.3185,0.0815,-0.1402,-77.7000,-25.3500,-11.8500,9.5888,-3.6751,0.7446,-1.1218,-0.2931,0.5279,19.2000,23.2500,-223.3500,6.8100,0.4800,-7.0900,-0.0284,0.4494,-0.0764,-33.7500,26.0000,26.0625,347.9375,43.2500,-176.8750,0
1776971851.369,9.6486,-1.1037,2.7749,-2.3185,0.0815,-0.1402,-77.4000,-27.3000,-12.4500,9.7229,-3.4740,0.4142,-1.1610,-0.2121,0.5020,21.0000,22.0500,-224.7000,6.7600,0.3800,-7.2500,0.0131,0.4581,-0.0753,-33.7500,26.0000,26.0625,347.9375,43.2500,-176.8750,0
1776971851.374,9.6606,-0.7877,2.8036,-2.3326,0.1127,-0.1681,-77.4000,-27.3000,-12.4500,9.7229,-3.4740,0.4142,-1.1610,-0.2121,0.5020,21.0000,22.0500,-224.7000,6.7600,0.3800,-7.2500,0.0218,0.4331,-0.0829,-33.7500,26.0000,26.0625,347.8750,43.5000,-176.8125,0
1776971851.380,9.6606,-0.7877,2.8036,-2.3326,0.1127,-0.1681,-77.4000,-27.3000,-12.4500,9.5912,-3.1963,0.8763,-1.2321,-0.1335,0.4810,21.9000,22.9500,-224.5500,6.9700,0.3400,-7.1400,0.0218,0.4331,-0.0829,-33.7500,26.0000,26.0625,347.8750,43.5000,-176.8125,0
1776971851.389,9.6774,-0.2370,2.7438,-2.3118,0.1396,-0.1919,-78.0000,-24.7500,-13.5000,9.6055,-2.9497,1.0774,-1.2718,-0.0466,0.4748,22.2000,21.4500,-225.3000,7.0400,0.4200,-7.1000,-0.0044,0.3883,-0.0840,-33.7500,26.0000,26.0625,347.8125,43.6875,-176.7500,0
1776971851.393,9.4954,0.1365,2.8994,-2.2889,0.1178,-0.1940,-78.0000,-24.7500,-13.5000,9.6055,-2.9497,1.0774,-1.2446,-0.0693,0.4604,22.2000,21.4500,-225.3000,7.0400,0.4200,-7.1000,-0.0142,0.3938,-0.0884,-33.7500,26.0000,26.0625,347.7500,43.9375,-176.6875,0
1776971851.400,9.4954,0.1365,2.8994,-2.2889,0.1178,-0.1940,-77.4000,-25.8000,-13.9500,9.2009,-2.4038,0.8859,-1.2446,-0.0693,0.4604,20.4000,19.6500,-226.3500,6.9900,0.3500,-7.0600,-0.0142,0.3938,-0.0884,-33.7500,26.0000,26.0625,347.7500,43.9375,-176.6875,0
1776971851.405,9.3925,0.6153,3.1532,-2.2212,0.1127,-0.1863,-77.4000,-25.8000,-13.9500,9.5577,-2.3798,0.8811,-1.1775,-0.0200,0.4487,20.4000,19.6500,-226.3500,7.1700,0.4900,-6.9500,-0.0033,0.4058,-0.1091,-34.0625,28.1875,24.1875,347.6875,44.1250,-176.6250,0
1776971851.410,9.3925,0.6153,3.1532,-2.2212,0.1127,-0.1863,-78.9000,-24.6000,-13.6500,9.5577,-2.3798,0.8811,-1.1775,-0.0200,0.4487,20.4000,19.6500,-226.3500,7.1700,0.4900,-6.9500,-0.0033,0.4058,-0.1091,-34.0625,28.1875,24.1875,347.6875,44.1250,-176.6250,0
1776971851.415,9.2368,1.1013,3.1244,-2.0262,0.1255,-0.1825,-78.9000,-24.6000,-13.6500,9.4044,-2.7198,0.8380,-1.0824,-0.0544,0.4346,20.4000,19.6500,-226.3500,7.1700,0.4900,-6.9500,0.0185,0.3971,-0.1069,-34.0625,28.1875,24.1875,347.6250,44.3750,-176.5625,0
1776971851.420,8.9352,1.1732,2.8611,-2.0262,0.1255,-0.1825,-77.5500,-25.5000,-15.3000,9.4044,-2.7198,0.8380,-1.0824,-0.0544,0.4346,22.6500,19.9500,-225.9000,7.0200,0.5000,-6.9300,0.0185,0.3971,-0.1069,-34.0625,28.1875,24.1875,347.5625,44.5625,-176.5000,0
1776971851.429,8.9352,1.1732,2.8611,-1.8445,0.1620,-0.1964,-77.5500,-27.4500,-14.8500,9.1889,-3.5961,0.5387,-1.0352,-0.0845,0.4311,22.2000,19.2000,-228.7500,6.9500,0.4000,-7.0000,0.0251,0.3916,-0.0905,-34.0625,28.1875,24.1875,347.5625,44.5625,-176.5000,0
1776971851.435,9.4092,0.9816,2.8635,-1.6675,0.1018,-0.2068,-77.5500,-27.4500,-14.8500,9.4691,-3.8307,0.6584,-1.1159,-0.1271,0.4490,22.2000,19.2000,-228.7500,6.9800,0.3300,-6.9300,0.0044,0.3982,-0.0840,-34.0625,28.1875,24.1875,347.5000,44.8125,-176.5000,0
1776971851.440,9.5385,0.9146,2.7126,-1.6062,0.0978,-0.2150,-78.4500,-25.3500,-16.6500,9.4691,-3.8307,0.6584,-1.1159,-0.1271,0.4490,23.7000,18.1500,-230.5500,6.9800,0.3300,-6.9300,0.0044,0.3982,-0.0840,-34.0625,28.1875,24.1875,347.5000,44.8125,-176.5000,0
1776971851.449,9.8378,0.7590,2.5642,-1.6062,0.0978,-0.2150,-78.4500,-25.3500,-16.6500,9.8378,-2.9712,0.5986,-1.1389,-0.1143,0.4735,22.9500,17.4000,-230.2500,7.1800,0.5400,-6.7700,0.0022,0.4560,-0.0840,-34.0625,28.1875,24.1875,354.5625,45.0625,-176.4375,0
1776971851.454,9.8378,0.7590,2.5642,-1.5796,0.0466,-0.2142,-78.4500,-25.3500,-16.6500,9.9048,-2.8922,0.7590,-1.1338,-0.0975,0.4639,22.9500,17.4000,-230.2500,7.1800,0.5400,-6.7700,0.0022,0.4560,-0.0840,-34.0625,28.1875,24.1875,354.5625,45.0625,-176.4375,0
1776971851.459,9.7468,0.6009,2.4852,-1.5796,0.0466,-0.2142,-78.3000,-25.9500,-14.8500,9.9048,-2.8922,0.7590,-1.1338,-0.0975,0.4639,24.1500,17.7000,-230.2500,6.7000,0.4000,-6.9800,-0.0349,0.4265,-0.0665,-35.2500,27.5000,24.1875,354.6250,45.3125,-176.3125,0
1776971851.464,9.7468,0.6009,2.4852,-1.5633,0.0141,-0.2121,-78.3000,-25.9500,-14.8500,9.5122,-3.6009,0.7901,-1.3390,-0.1159,0.5031,24.1500,17.7000,-230.2500,6.7000,0.4000,-6.9800,-0.0349,0.4265,-0.0665,-35.2500,27.5000,24.1875,354.6250,45.3125,-176.3125,0
1776971851.469,9.5122,0.6345,2.4134,-1.5881,0.0165,-0.2244,-78.3000,-25.9500,-14.8500,9.5122,-3.6009,0.7901,-1.3390,-0.1159,0.5031,24.1500,17.7000,-230.2500,6.8500,0.3900,-7.0100,-0.0600,0.4821,-0.0240,-35.2500,27.5000,24.1875,354.6875,45.5625,-176.2500,0
1776971851.474,9.5122,0.6345,2.4134,-1.5881,0.0165,-0.2244,-78.3000,-25.9500,-14.8500,9.5648,-3.3423,0.5507,-1.4200,-0.1263,0.5492,24.1500,17.7000,-230.2500,6.8500,0.3900,-7.0100,-0.1145,0.5214,-0.0087,-35.2500,27.5000,24.1875,354.7500,45.8125,-176.1875,0
1776971851.480,9.2608,1.1971,2.3942,-1.6289,0.0067,-0.2321,-78.0000,-23.5500,-16.3500,9.5648,-3.3423,0.5507,-1.4200,-0.1263,0.5492,24.3000,17.5500,-231.4500,7.1100,0.5300,-6.7700,-0.1145,0.5214,-0.0087,-35.2500,27.5000,24.1875,354.7500,45.8125,-176.1875,0
1776971851.488,8.9615,1.4796,2.5379,-1.6068,-0.0040,-0.2366,-78.1500,-25.0500,-16.2000,9.5361,-2.4421,0.9457,-1.4450,-0.1290,0.5737,23.2500,18.3000,-230.4000,7.1100,0.4000,-6.7000,-0.1582,0.5083,-0.0055,-35.2500,27.5000,24.1875,354.9375,46.1250,-176.0625,0
1776971851.493,8.9615,1.4796,2.5379,-1.6068,-0.0040,-0.2366,-78.1500,-25.0500,-16.2000,9.5433,-1.3934,0.9098,-1.4805,-0.0914,0.5668,23.2500,18.3000,-230.4000,7.1100,0.4000,-6.7000,-0.1582,0.5083,-0.0055,-35.2500,27.5000,24.1875,355.0625,46.3750,-175.9375,0
1776971851.500,8.7197,1.6951,2.6384,-1.5055,-0.0117,-0.2566,-76.8000,-24.0000,-16.3500,9.3422,-1.0511,1.1660,-1.3134,-0.1274,0.5609,25.0500,17.5500,-231.4500,7.4000,0.5600,-6.6500,-0.1396,0.5094,-0.0295,-35.2500,27.5000,24.1875,355.0625,46.3750,-175.9375,0
1776971851.505,8.7197,1.6951,2.6384,-1.5055,-0.0117,-0.2566,-76.8000,-24.0000,-16.3500,9.3422,-1.0511,1.1660,-1.3134,-0.1274,0.5609,25.0500,17.5500,-231.4500,7.4000,0.5600,-6.6500,-0.1494,0.5029,-0.0305,-36.0625,26.0000,21.0000,355.2500,46.6875,-175.8125,0
1776971851.510,8.7724,1.7717,2.5833,-1.3648,-0.0045,-0.2675,-78.3000,-23.5500,-16.3500,10.0485,-1.4485,1.7645,-1.1064,-0.1495,0.5710,24.7500,20.4000,-232.3500,7.6600,0.4200,-6.3600,-0.1494,0.5029,-0.0305,-36.0625,26.0000,21.0000,355.2500,46.6875,-175.8125,0
1776971851.515,8.7724,1.7717,2.5833,-1.3648,-0.0045,-0.2675,-78.3000,-23.5500,-16.3500,10.0485,-1.4485,1.7645,-1.1064,-0.1495,0.5710,24.7500,20.4000,-232.3500,7.6600,0.4200,-6.3600,-0.1244,0.4200,-0.0404,-36.0625,26.0000,21.0000,355.3750,46.9375,-175.7500,0
1776971851.520,8.8514,1.7861,2.6360,-1.2380,0.0053,-0.2835,-76.2000,-22.9500,-17.4000,9.3925,-2.6863,0.3065,-1.1871,0.3581,0.6283,26.7000,22.2000,-234.1500,7.2700,0.4400,-6.6200,-0.1244,0.4200,-0.0404,-36.0625,26.0000,21.0000,355.5625,47.1250,-175.6250,0
1776971851.529,8.9615,1.7406,2.5594,-1.1032,0.0067,-0.3048,-77.4000,-23.8500,-15.4500,9.3206,-3.2513,0.4477,-0.9273,0.2537,0.6193,26.7000,22.2000,-234.1500,7.1800,0.4900,-6.6200,-0.1189,0.4189,-0.0524,-36.0625,26.0000,21.0000,355.5625,47.1250,-175.6250,0
1776971851.539,9.0932,1.6161,2.5307,-0.9763,-0.0067,-0.3285,-77.4000,-23.8500,-15.4500,9.9407,-2.7749,0.8643,-0.7338,0.0474,0.6459,25.0500,25.8000,-236.8500,7.2000,0.6300,-6.6600,-0.1167,0.4603,-0.0469,-36.0625,26.0000,21.0000,355.6875,47.3750,-175.5000,0
1776971851.544,9.0932,1.6161,2.5307,-0.9763,-0.0067,-0.3285,-77.4000,-23.8500,-15.4500,9.9407,-2.7749,0.8643,-0.7338,0.0474,0.6459,25.0500,25.8000,-236.8500,7.2000,0.6300,-6.6600,-0.1309,0.5105,-0.0305,-36.0625,26.0000,21.0000,355.8125,47.6875,-175.3750,0
1776971851.550,9.1530,1.5826,2.3966,-0.9070,-0.0197,-0.3491,-77.7000,-21.4500,-17.7000,10.1251,-2.8706,0.6943,-0.8204,-0.3219,0.7173,24.1500,24.1500,-238.5000,7.1500,0.6300,-6.5400,-0.1309,0.5105,-0.0305,-36.0625,26.0000,21.0000,355.8125,47.6875,-175.3750,0
1776971851.555,9.0836,1.2617,2.3367,-0.9070,-0.0197,-0.3491,-77.7000,-21.4500,-17.7000,10.1251,-2.8706,0.6943,-0.8204,-0.3219,0.7173,24.1500,24.1500,-238.5000,7.1500,0.6300,-6.5400,-0.1309,0.5105,-0.0305,-36.0625,25.1875,21.3750,356.0000,48.0000,-175.2500,0
1776971851.560,9.0836,1.2617,2.3367,-0.8540,-0.0258,-0.3459,-77.7000,-21.4500,-17.7000,9.9742,-2.9066,-0.1867,-0.8929,-0.6179,0.7823,25.6500,24.7500,-240.4500,7.3000,0.7700,-6.4700,-0.1658,0.5672,-0.0185,-36.0625,25.1875,21.3750,356.0000,48.0000,-175.2500,0
1776971851.565,9.0788,0.8882,2.1715,-0.8218,-0.0232,-0.3224,-77.7000,-21.4500,-17.7000,9.9742,-2.9066,-0.1867,-0.8929,-0.6179,0.7823,24.7500,24.7500,-240.4500,7.3000,0.7700,-6.4700,-0.1658,0.5672,-0.0185,-36.0625,25.1875,21.3750,356.1250,48.3750,-175.1250,0
1776971851.570,9.0788,0.8882,2.1715,-0.8218,-0.0232,-0.3224,-78.3000,-22.5000,-17.8500,9.4475,-2.9808,-0.5028,-0.8250,-0.7445,0.7989,24.7500,25.6500,-240.1500,7.5500,0.8900,-6.3400,-0.1887,0.6589,0.0120,-36.0625,25.1875,21.3750,356.1250,48.3750,-175.1250,0
1776971851.575,9.2057,0.4118,1.9728,-0.7898,-0.0160,-0.2952,-78.3000,-22.5000,-17.8500,9.4475,-2.9808,-0.5028,-0.8250,-0.7445,0.7989,26.7000,25.2000,-239.1000,7.5500,0.8900,-6.3400,-0.1996,0.6621,0.0491,-36.0625,25.1875,21.3750,356.3125,48.6875,-175.0000,0
1776971851.580,9.2057,0.4118,1.9728,-0.7898,-0.0160,-0.2952,-77.2500,-20.4000,-18.3000,8.8322,-3.3088,-1.0630,-0.7514,-0.7853,0.7999,26.7000,25.2000,-239.1000,7.4100,0.6700,-6.3500,-0.1996,0.6621,0.0491,-36.0625,25.1875,21.3750,356.4375,49.1250,-174.8750,0
1776971851.589,9.2105,0.0192,1.8938,-0.7504,-0.0269,-0.2526,-77.7000,-20.2500,-17.7000,8.5736,-3.9983,-1.1612,-0.6971,-0.7989,0.7938,26.7000,25.2000,-239.1000,7.6600,0.7100,-6.3100,-0.2029,0.6905,0.0742,-36.0625,25.1875,21.3750,356.5625,49.5000,-174.8125,0
1776971851.599,9.2273,-0.1508,1.8818,-0.7645,-0.0384,-0.2036,-79.3500,-20.2500,-17.7000,8.5832,-4.3431,-1.7047,-0.6848,-0.7690,0.7743,28.6500,27.7500,-240.0000,7.6200,0.8800,-5.9700,-0.2193,0.6829,0.1069,-36.0625,25.1875,21.3750,356.5625,49.5000,-174.8125,0
1776971851.604,9.3805,-0.3184,1.7406,-0.8196,-0.0408,-0.1420,-79.3500,-20.2500,-17.7000,8.5832,-4.3431,-1.7047,-0.6848,-0.7690,0.7743,28.6500,27.7500,-240.0000,7.6200,0.8800,-5.9700,-0.2193,0.6829,0.1069,-37.0625,27.5000,20.1875,356.6875,49.8125,-174.7500,0
1776971851.610,9.3805,-0.3184,1.7406,-0.8196,-0.0408,-0.1420,-79.5000,-20.1000,-17.5500,8.4539,-4.4029,-1.9752,-0.7035,-0.6414,0.7480,29.8500,25.2000,-238.8000,7.6800,0.2400,-5.9300,-0.1974,0.6338,0.0960,-37.0625,27.5000,20.1875,356.6875,49.8125,-174.7500,0
1776971851.614,9.4954,-0.4429,1.6376,-0.8657,-0.0711,-0.0685,-79.5000,-20.1000,-17.5500,8.4539,-4.4029,-1.9752,-0.7035,-0.6414,0.7480,29.8500,24.1500,-238.5000,7.6800,0.2400,-5.9300,-0.1974,0.6338,0.0960,-37.0625,27.5000,20.1875,356.9375,50.1875,-174.5625,0
1776971851.619,9.4954,-0.4429,1.6376,-0.8657,-0.0711,-0.0685,-78.3000,-19.6500,-17.8500,8.4707,-4.8363,-1.8435,-0.7957,-0.5185,0.7554,29.8500,24.1500,-238.5000,7.7500,0.8000,-5.9900,-0.2618,0.6316,0.0720,-37.0625,27.5000,20.1875,356.9375,50.1875,-174.5625,0
1776971851.628,9.5074,-0.4645,1.5993,-0.9403,-0.1037,0.0083,-78.3000,-19.6500,-17.8500,8.3486,-5.0566,-1.6233,-0.8263,-0.4578,0.7525,30.4500,24.0000,-235.8000,7.7700,0.4900,-5.9000,-0.2967,0.6501,0.0742,-37.0625,27.5000,20.1875,357.1875,50.5625,-174.4375,0
1776971851.633,9.5409,-0.4621,1.5514,-1.0368,-0.1154,0.0829,-78.3000,-19.6500,-17.8500,8.3486,-5.0566,-1.6233,-0.8263,-0.4578,0.7525,30.4500,24.0000,-235.8000,7.7700,0.4900,-5.9000,-0.2967,0.6501,0.0742,-37.0625,27.5000,20.1875,357.4375,50.9375,-174.2500,0
1776971851.640,9.5409,-0.4621,1.5514,-1.0368,-0.1154,0.0829,-79.0500,-19.3500,-18.3000,8.3486,-4.8339,-1.4820,-0.8351,-0.3499,0.7477,30.4500,24.0000,-235.8000,7.6800,0.6000,-6.0900,-0.3480,0.6512,0.0916,-37.0625,27.5000,20.1875,357.7500,51.3125,-174.0625,0
1776971851.650,9.6367,-0.5100,1.5107,-1.1178,-0.1260,0.1500,-79.0500,-19.3500,-18.3000,8.4539,-5.0350,-1.1636,-0.9419,-0.2832,0.7743,30.4500,24.0000,-235.8000,7.8100,0.6200,-5.9300,-0.3894,0.7156,0.1091,-37.0625,27.5000,20.1875,357.7500,51.3125,-174.0625,0
1776971851.654,9.6319,-0.4477,1.6879,-1.1977,-0.1258,0.2121,-79.0500,-19.3500,-18.3000,8.4539,-5.0350,-1.1636,-1.0245,-0.2539,0.8039,31.6500,16.6500,-235.6500,7.8100,0.6200,-5.9300,-0.3894,0.7156,0.1091,-37.0625,27.5000,20.1875,357.7500,51.3125,-174.0625,0
1776971851.660,9.6319,-0.4477,1.6879,-1.1977,-0.1258,0.2121,-79.3500,-19.5000,-18.0000,8.6598,-5.0374,-0.9792,-1.0245,-0.2539,0.8039,31.6500,16.6500,-235.6500,7.6000,0.7700,-5.9800,-0.4494,0.7330,0.1418,-38.1875,26.0000,19.3750,358.1250,51.7500,-173.8750,0
1776971851.664,9.6247,-0.3998,1.8364,-1.2470,-0.1095,0.2622,-79.3500,-19.5000,-18.0000,8.8849,-4.5969,-0.8284,-1.1088,-0.2270,0.8338,31.9500,15.7500,-235.8000,7.6000,0.7700,-5.9800,-0.4494,0.7330,0.1418,-38.1875,26.0000,19.3750,358.1250,51.7500,-173.8750,0
1776971851.669,9.5170,-0.3567,1.8172,-1.2470,-0.1095,0.2622,-78.7500,-19.6500,-18.0000,8.8849,-4.5969,-0.8284,-1.1088,-0.2270,0.8338,31.9500,15.7500,-235.8000,7.7700,0.6200,-5.8600,-0.5367,0.7898,0.1854,-38.1875,26.0000,19.3750,358.5625,52.1875,-173.6250,0
1776971851.674,9.5170,-0.3567,1.8172,-1.2377,-0.0978,0.2835,-78.7500,-19.6500,-17.8500,8.9160,-4.6663,-0.7063,-1.2862,-0.2062,0.8545,31.5000,16.5000,-235.0500,7.7700,0.6200,-5.8600,-0.6174,0.8181,0.2291,-38.1875,26.0000,19.3750,359.0625,52.6250,-173.3750,0
1776971851.680,9.5600,-0.3184,1.8316,-1.2452,-0.0901,0.2825,-78.7500,-20.1000,-17.8500,8.9160,-4.6663,-0.7063,-1.2862,-0.2062,0.8545,31.5000,16.5000,-235.0500,7.8200,0.6100,-5.7800,-0.6174,0.8181,0.2291,-38.1875,26.0000,19.3750,359.0625,52.6250,-173.3750,0
1776971851.689,9.4810,-0.2011,1.8699,-1.2452,-0.0901,0.2825,-78.7500,-20.1000,-17.8500,8.8202,-4.9249,-0.6847,-1.3185,-0.1548,0.8476,32.4000,16.9500,-236.2500,7.7900,0.7700,-5.8200,-0.6840,0.8650,0.2640,-38.1875,26.0000,19.3750,359.5625,53.1250,-173.1250,0
1776971851.694,9.4810,-0.2011,1.8699,-1.2766,-0.0850,0.2737,-78.0000,-18.4500,-19.0500,9.0333,-4.9201,-0.5650,-1.4200,-0.1175,0.8655,32.4000,16.9500,-236.2500,7.7900,0.7700,-5.8200,-0.7330,0.9239,0.3098,-38.1875,26.0000,19.3750,0.1250,53.6875,-172.8750,0
1776971851.700,9.4379,-0.0742,2.0494,-1.3456,-0.0991,0.2625,-76.0500,-19.3500,-19.3500,9.0333,-4.9201,-0.5650,-1.4200,-0.1175,0.8655,32.4000,16.9500,-236.2500,7.7400,0.5300,-5.6900,-0.7330,0.9239,0.3098,-38.1875,26.0000,19.3750,0.1250,53.6875,-172.8750,0
1776971851.706,9.4379,-0.0742,2.0494,-1.3456,-0.0991,0.2625,-76.0500,-19.3500,-19.3500,9.1770,-5.0589,-0.4645,-1.4983,-0.1308,0.8966,32.4000,16.9500,-236.2500,7.7400,0.5300,-5.6900,-0.8356,0.9905,0.3807,-38.5625,26.6875,18.2500,0.6875,54.2500,-172.6250,0
1776971851.710,9.3925,0.0575,2.2984,-1.4368,-0.1138,0.2601,-77.5500,-18.9000,-19.3500,9.1770,-5.0589,-0.4645,-1.4983,-0.1308,0.8966,32.4000,16.9500,-236.2500,7.9000,0.6900,-5.4100,-0.8356,0.9905,0.3807,-38.5625,26.6875,18.2500,0.6875,54.2500,-172.6250,0
1776971851.715,9.3925,0.0575,2.2984,-1.4368,-0.1138,0.2601,-77.5500,-18.9000,-19.3500,9.2775,-4.8674,-0.1341,-1.5162,-0.1506,0.9177,35.7000,15.9000,-238.0500,7.9000,0.6900,-5.4100,-1.0079,1.0276,0.4691,-38.5625,26.6875,18.2500,1.4375,54.8125,-172.3125,0
1776971851.720,9.4475,0.1245,2.4708,-1.5023,-0.1383,0.2507,-77.5500,-18.9000,-19.3500,9.2775,-4.8674,-0.1341,-1.5162,-0.1506,0.9177,35.7000,15.9000,-238.0500,8.0600,0.5200,-5.3600,-1.0079,1.0276,0.4691,-38.5625,26.6875,18.2500,2.1875,55.4375,-172.0000,0
1776971851.730,9.5241,0.1724,2.2410,-1.5367,-0.1407,0.2390,-77.5500,-18.9000,-19.3500,9.3589,-4.7884,-0.6895,-1.5809,-0.2137,0.9126,34.8000,13.8000,-237.6000,8.3200,0.5800,-5.2900,-1.1236,1.0494,0.5301,-38.5625,26.6875,18.2500,2.1875,55.4375,-172.0000,0
1776971851.739,9.5122,0.1125,1.9441,-1.5676,-0.1524,0.2108,-78.3000,-18.9000,-19.8000,9.3278,-5.0087,-0.7542,-1.6379,-0.2723,0.9252,34.2000,13.2000,-238.8000,8.3300,0.4700,-5.3600,-1.3014,1.0079,0.6032,-38.5625,26.6875,18.2500,3.1250,56.0625,-171.6250,0
1776971851.749,9.5457,0.1341,1.8028,-1.6025,-0.1636,0.1879,-78.3000,-18.9000,-19.8000,9.3158,-4.7884,-0.5818,-1.6713,-0.2753,0.9406,34.0500,14.2500,-238.2000,8.4300,0.4200,-4.9900,-1.4104,0.8585,0.7287,-38.5625,26.6875,18.2500,4.0625,56.5625,-171.3125,0
1776971851.754,9.5457,0.1341,1.8028,-1.6025,-0.1636,0.1879,-76.8000,-18.4500,-19.0500,9.4212,-4.8339,-0.6680,-1.7869,-0.2745,0.9811,34.0500,14.2500,-238.2000,8.4300,0.4200,-4.9900,-1.4104,0.8585,0.7287,-38.5625,26.6875,18.2500,4.0625,56.5625,-171.3125,0
1776971851.759,9.5840,0.1413,1.6640,-1.6830,-0.1745,0.1649,-76.8000,-18.4500,-19.0500,9.4212,-4.8339,-0.6680,-1.7869,-0.2745,0.9811,34.0500,14.2500,-238.2000,8.5400,0.3800,-4.8800,-1.4737,0.6992,0.8716,-38.5625,26.6875,17.5000,5.0000,57.0625,-171.1875,0
1776971851.764,9.5840,0.1413,1.6640,-1.6830,-0.1745,0.1649,-77.7000,-18.7500,-18.7500,9.4667,-4.8985,-0.2682,-1.8815,-0.2531,1.0155,34.0500,14.2500,-238.2000,8.5400,0.3800,-4.8800,-1.4737,0.6992,0.8716,-38.5625,26.6875,17.5000,5.0000,57.0625,-171.1875,0
1776971851.769,9.6893,0.4645,1.8124,-1.8183,-0.2017,0.1593,-77.7000,-18.7500,-18.7500,9.4667,-4.8985,-0.2682,-1.8815,-0.2531,1.0155,34.0500,14.2500,-238.2000,8.1900,0.4400,-5.0000,-1.5272,0.6305,0.9905,-38.5625,26.6875,17.5000,5.8750,57.5000,-171.0625,0
1776971851.774,9.6893,0.4645,1.8124,-1.8183,-0.2017,0.1593,-78.9000,-18.3000,-20.2500,9.6319,-4.8147,-0.6728,-2.0209,-0.2579,1.0557,34.2000,12.9000,-239.5500,8.1900,0.4400,-5.0000,-1.6101,0.8105,1.0254,-38.5625,26.6875,17.5000,6.8750,58.0000,-170.9375,0
1776971851.780,9.6822,0.8452,1.9465,-1.9819,-0.2531,0.1567,-78.9000,-18.3000,-20.2500,9.6319,-4.8147,-0.6728,-2.1424,-0.2582,1.0946,34.2000,12.9000,-239.5500,7.5900,1.2700,-5.6600,-1.6101,0.8105,1.0254,-38.5625,26.6875,17.5000,7.9375,58.8750,-170.6875,0
1776971851.790,9.9144,1.3982,2.0758,-2.1418,-0.2801,0.1604,-78.4500,-18.0000,-20.2500,9.9838,-4.6424,-0.3663,-2.1424,-0.2582,1.0946,35.4000,10.2000,-240.9000,8.2000,0.7400,-5.0700,-1.8261,1.3810,1.0690,-38.5625,26.6875,17.5000,7.9375,58.8750,-170.6875,0
1776971851.800,10.2496,1.9561,2.0446,-2.2372,-0.3022,0.1484,-77.4000,-18.0000,-21.0000,11.1067,-3.7781,-0.5986,-2.2831,-0.2350,1.1548,34.6500,9.9000,-241.3500,8.2100,1.6400,-5.3800,-1.8980,1.7682,1.2043,-38.5625,26.6875,17.5000,8.8750,59.9375,-170.5000,0
1776971851.805,10.4818,2.5881,1.7573,-2.2372,-0.3022,0.1484,-77.4000,-17.5500,-21.7500,11.1067,-3.7781,-0.5986,-2.2831,-0.2350,1.1548,34.9500,10.2000,-241.9500,8.2100,1.6400,-5.3800,-1.8980,1.7682,1.2043,-39.0000,27.5000,17.0625,9.5000,61.1875,-170.5000,0
1776971851.810,10.4818,2.5881,1.7573,-2.2242,-0.3056,0.1444,-77.4000,-17.5500,-21.7500,11.7244,-3.4069,-0.6560,-2.4261,-0.2870,1.1900,34.9500,10.2000,-241.9500,8.5500,0.4900,-4.9700,-1.5719,2.0399,1.2643,-39.0000,27.5000,17.0625,9.5000,61.1875,-170.5000,0
1776971851.815,10.4603,3.1173,1.5610,-2.1330,-0.3254,0.1375,-77.4000,-17.5500,-21.7500,11.7244,-3.4069,-0.6560,-2.4261,-0.2870,1.1900,34.9500,10.2000,-241.9500,8.5500,0.4900,-4.9700,-1.5719,2.0399,1.2643,-39.0000,27.5000,17.0625,9.8125,62.5625,-170.7500,0
1776971851.820,10.4603,3.1173,1.5610,-2.1330,-0.3254,0.1375,-77.4000,-17.5500,-21.7500,11.9542,-3.3519,-0.4501,-2.6374,-0.3392,1.2412,34.9500,10.2000,-241.9500,8.0300,0.4500,-4.4400,-1.3264,2.3202,1.3374,-39.0000,27.5000,17.0625,9.8125,62.5625,-170.7500,0
1776971851.827,10.3118,3.7397,1.6400,-2.0307,-0.3472,0.1167,-78.0000,-17.4000,-21.6000,11.9542,-3.3519,-0.4501,-2.6374,-0.3392,1.2412,34.9500,10.2000,-241.9500,8.5300,0.1200,-4.1900,-1.2065,2.4882,1.3854,-39.0000,27.5000,17.0625,9.9375,64.0625,-171.1875,0
1776971851.832,10.3118,3.7397,1.6400,-2.0307,-0.3472,0.1167,-78.0000,-17.4000,-21.6000,12.2152,-3.2513,-0.3783,-2.8823,-0.4421,1.2843,38.1000,7.8000,-246.4500,8.5300,0.1200,-4.1900,-1.2065,2.4882,1.3854,-39.0000,27.5000,17.0625,10.0000,65.6875,-171.6875,0
1776971851.840,10.3118,4.1587,1.6688,-1.9236,-0.3936,0.0653,-78.0000,-17.4000,-21.6000,12.6893,-2.8802,0.1389,-3.1717,-0.5820,1.3416,37.0500,7.8000,-246.4500,7.8100,-0.4200,-3.8900,-1.2163,2.7489,1.3995,-39.0000,27.5000,17.0625,10.1875,67.5000,-172.1250,0
1776971851.850,10.1131,4.0725,1.4844,-1.8373,-0.4290,-0.0346,-78.7500,-17.4000,-21.6000,13.9295,-2.1620,1.7789,-3.5146,-0.9409,1.3968,38.1000,7.8000,-247.9500,8.6300,0.2900,-3.8900,-1.3035,3.1525,1.3603,-39.0000,27.5000,17.0625,10.1875,67.5000,-172.1250,0
1776971851.855,10.0892,3.6248,1.2354,-1.8159,-0.5052,-0.1620,-76.9500,-15.6000,-22.5000,13.9295,-2.1620,1.7789,-3.5146,-0.9409,1.3968,38.1000,7.8000,-247.9500,8.6300,0.2900,-3.8900,-1.3035,3.1525,1.3603,-39.0000,27.5000,17.0625,10.5625,69.5000,-172.3750,0
1776971851.860,10.0892,3.6248,1.2354,-1.8159,-0.5052,-0.1620,-76.9500,-15.6000,-22.5000,12.8425,-1.0606,0.7781,-3.7172,-0.9745,1.4445,39.9000,7.5000,-248.5500,10.6000,0.7000,-4.4300,-1.4388,3.4503,1.2174,-37.5000,28.7500,15.8750,10.5625,69.5000,-172.3750,0
1776971851.865,10.2400,3.3471,0.7709,-1.8061,-0.6672,-0.3320,-78.0000,-15.0000,-21.6000,12.8425,-1.0606,0.7781,-3.7172,-0.9745,1.4445,39.9000,7.5000,-248.5500,10.6000,0.7000,-4.4300,-1.4388,3.4503,1.2174,-37.5000,28.7500,15.8750,11.1250,71.5625,-172.0625,0
1776971851.870,10.2400,3.3471,0.7709,-1.8061,-0.6672,-0.3320,-78.0000,-15.0000,-21.6000,13.7116,-1.1205,1.2809,-3.9250,-0.9068,1.4775,39.9000,7.5000,-248.5500,10.1400,0.8200,-4.8000,-1.4988,3.6106,0.8247,-37.5000,28.7500,15.8750,11.1250,71.5625,-172.0625,0
1776971851.875,10.3286,2.6001,0.2107,-1.9268,-0.8234,-0.5255,-78.1500,-15.1500,-22.2000,13.7116,-1.1205,1.2809,-3.9250,-0.9068,1.4775,39.9000,7.5000,-248.5500,10.1400,0.8200,-4.8000,-1.6177,4.0328,0.5236,-37.5000,28.7500,15.8750,11.9375,73.8125,-171.0000,0
1776971851.881,10.3286,2.6001,0.2107,-1.9268,-0.8234,-0.5255,-78.1500,-15.1500,-22.2000,13.1753,-0.6943,0.4573,-4.0846,-0.7823,1.4711,41.5500,7.6500,-254.1000,9.5300,1.5200,-4.4100,-1.6177,4.0328,0.5236,-37.5000,28.7500,15.8750,12.8750,76.2500,-169.1875,0
1776971851.890,9.7923,1.7933,-0.2682,-2.1368,-0.9979,-0.7312,-77.2500,-14.2500,-23.4000,14.0276,-1.2402,2.2338,-4.2386,-0.7733,1.5394,42.7500,9.7500,-254.2500,10.5300,1.9400,-4.6400,-1.8468,4.4833,0.3840,-37.5000,28.7500,15.8750,12.8750,76.2500,-169.1875,0
1776971851.900,9.0812,0.1413,-0.1844,-2.3313,-1.1391,-0.9478,-77.5500,-12.6000,-22.3500,12.0285,-1.2067,1.3001,-4.2090,-0.3373,1.6177,42.0000,11.5500,-258.1500,10.6900,2.6700,-5.9500,-2.2177,4.9218,0.3447,-37.5000,28.7500,15.8750,14.0625,79.0000,-166.1250,0
1776971851.905,9.0812,0.1413,-0.1844,-2.3822,-1.1623,-1.1586,-77.5500,-12.6000,-22.3500,12.0285,-1.2067,1.3001,-4.2090,-0.3373,1.6177,42.0000,11.5500,-258.1500,10.6900,2.6700,-5.9500,-2.2177,4.9218,0.3447,-37.5000,28.7500,15.8750,14.0625,79.0000,-166.1250,0
1776971851.910,8.6479,-0.4836,0.5100,-2.3822,-1.1623,-1.1586,-77.5500,-12.6000,-22.3500,11.7795,-0.3711,-0.4022,-3.9463,-0.3933,1.6875,40.8000,14.4000,-261.3000,12.4600,2.7500,-5.6000,-2.4293,5.3418,0.3600,-38.6875,29.5625,11.1875,15.2500,81.8750,-160.9375,0
1776971851.915,8.6479,-0.4836,0.5100,-2.3926,-1.1898,-1.3667,-78.1500,-12.0000,-22.9500,11.7795,-0.3711,-0.4022,-3.9463,-0.3933,1.6875,40.8000,14.4000,-261.3000,12.4600,2.7500,-5.6000,-2.4293,5.3418,0.3600,-38.6875,29.5625,11.1875,15.2500,81.8750,-160.9375,0
1776971851.920,8.4539,-0.6584,0.9074,-2.3926,-1.1898,-1.3667,-78.1500,-12.0000,-22.9500,11.4012,-0.5148,0.9529,-3.4963,-0.5636,1.6787,41.5500,15.9000,-261.9000,16.0300,3.1700,-4.0200,-2.5035,5.3723,0.6916,-38.6875,29.5625,11.1875,16.2500,84.7500,-177.5625,0
1776971851.927,8.4539,-0.6584,0.9074,-2.6787,-1.1583,-1.5961,-78.1500,-12.0000,-22.9500,11.1378,-1.2857,-0.3328,-2.9836,-0.8170,1.6409,41.5500,15.9000,-261.9000,14.0900,2.4400,-4.0400,-2.5024,5.2196,0.9916,-38.6875,29.5625,11.1875,17.0625,87.4375,-178.0625,0
1776971851.932,8.4827,-0.5531,1.4940,-3.0267,-1.1871,-1.7832,-77.7000,-9.0000,-23.2500,11.1378,-1.2857,-0.3328,-2.9836,-0.8170,1.6409,41.5500,15.9000,-261.9000,14.0900,2.4400,-4.0400,-2.5024,5.2196,0.9916,-38.6875,29.5625,11.1875,17.8750,88.1875,-1.3125,0
1776971851.940,8.7101,-0.7781,1.7861,-3.1496,-1.1831,-1.8874,-77.7000,-9.0000,-23.2500,11.8681,-2.2098,-1.7358,-2.6292,-1.2159,1.5492,42.3000,19.9500,-263.7000,15.4100,2.2600,-5.2200,-2.5602,4.9982,1.0396,-38.6875,29.5625,11.1875,18.9375,86.1875,-0.7500,0
1776971851.950,9.1411,-0.1053,1.4006,-3.1395,-1.1586,-1.9454,-77.7000,-6.6000,-23.7000,12.2775,-2.7294,-2.8228,-2.3907,-1.7203,1.5452,41.5500,20.7000,-264.4500,16.6800,1.7600,-6.8900,-3.0849,4.5749,0.9490,-38.6875,29.5625,11.1875,18.9375,86.1875,-0.7500,0
1776971851.955,9.1411,-0.1053,1.4006,-3.1395,-1.1586,-1.9454,-76.6500,-5.8500,-26.5500,11.6238,-3.0742,-2.8132,-2.3345,-1.9087,1.5969,41.5500,20.7000,-264.4500,16.6800,1.7600,-6.8900,-3.0849,4.5749,0.9490,-38.6875,29.5625,11.1875,20.1875,84.3125,0.0000,0
1776971851.960,10.1275,0.6680,0.6967,-2.9119,-1.0267,-1.9308,-76.6500,-5.8500,-26.5500,11.6238,-3.0742,-2.8132,-2.3345,-1.9087,1.5969,40.6500,20.5500,-263.2500,13.8200,1.5400,-3.0400,-3.6466,3.4536,1.0428,-40.5000,30.5625,2.6875,20.1875,84.3125,0.0000,0
1776971851.965,10.1275,0.6680,0.6967,-2.9119,-1.0267,-1.9308,-76.5000,-4.5000,-26.4000,11.3006,-3.5171,-3.9576,-2.3073,-2.0632,1.5900,40.6500,20.5500,-263.2500,13.8200,1.5400,-3.0400,-3.6466,3.4536,1.0428,-40.5000,30.5625,2.6875,21.6250,82.5000,6.2500,0
1776971851.970,11.0157,0.6369,0.1053,-2.5884,-0.9246,-1.9177,-76.5000,-4.5000,-26.4000,11.3006,-3.5171,-3.9576,-2.3073,-2.0632,1.5900,42.9000,22.6500,-261.3000,15.2300,1.5300,-4.0800,-4.0186,3.2736,1.0407,-40.5000,30.5625,2.6875,21.6250,82.5000,6.2500,0
1776971851.977,11.0157,0.6369,0.1053,-2.5884,-0.9246,-1.9177,-78.4500,-3.0000,-25.0500,9.9527,-3.4596,-4.8866,-2.2460,-2.2495,1.5428,42.9000,22.6500,-261.3000,14.1900,1.0400,-7.7000,-4.4462,3.6728,1.0407,-40.5000,30.5625,2.6875,23.1875,80.3750,10.5000,0
1776971851.982,11.1785,1.5993,-0.2059,-2.2652,-0.7328,-1.9167,-78.4500,-3.0000,-25.0500,9.9527,-3.4596,-4.8866,-2.2460,-2.2495,1.5428,43.6500,22.6500,-259.8000,14.1900,1.0400,-7.7000,-4.4462,3.6728,1.0407,-40.5000,30.5625,2.6875,24.9375,78.5000,14.5625,0
1776971851.990,11.0684,2.4708,-0.1437,-1.9729,-0.5713,-1.9668,-76.0500,-0.4500,-24.9000,8.0373,-3.2202,-5.0566,-2.1309,-2.2969,1.4184,43.6500,22.6500,-259.8000,13.3900,0.7600,-8.1700,-4.9709,3.2223,1.1541,-40.5000,30.5625,2.6875,26.7500,77.0000,18.6875,0
1776971852.000,10.7643,3.1747,-0.4980,-1.6646,-0.3965,-2.0542,-76.0500,-0.4500,-24.9000,5.6934,-2.9497,-5.4444,-1.9971,-1.7597,1.2465,45.9000,19.2000,-251.2500,11.4600,-0.0700,-7.6100,-5.4291,2.4598,1.2065,-40.5000,30.5625,2.6875,26.7500,77.0000,18.6875,0
1776971852.005,10.7643,3.1747,-0.4980,-1.6646,-0.3965,-2.0542,-76.2000,2.2500,-26.2500,4.0366,-2.4708,-5.7652,-1.9705,-1.5178,1.0587,45.9000,19.2000,-251.2500,11.4600,-0.0700,-7.6100,-5.4291,2.4598,1.2065,-40.5000,30.5625,2.6875,26.7500,77.0000,18.6875,0
1776971852.010,10.8793,3.6344,-0.9433,-1.3808,-0.2244,-2.1013,-76.2000,2.2500,-26.2500,4.0366,-2.4708,-5.7652,-1.9705,-1.5178,1.0587,44.5500,16.8000,-247.5000,6.6900,-0.6600,-6.5000,-5.6254,1.4399,1.6515,-39.5625,32.6875,-2.5000,28.3750,75.9375,24.1875,0
1776971852.015,10.8793,3.6344,-0.9433,-1.3808,-0.2244,-2.1013,-76.2000,2.2500,-26.2500,2.3296,-2.6767,-7.6088,-1.8354,-1.2894,0.8274,44.5500,16.8000,-247.5000,6.6900,-0.6600,-6.5000,-5.6254,1.4399,1.6515,-39.5625,32.6875,-2.5000,28.3750,75.9375,24.1875,0
1776971852.020,11.0492,3.5769,-1.5155,-1.0032,-0.0861,-2.0941,-76.2000,2.2500,-26.2500,2.3296,-2.6767,-7.6088,-1.8354,-1.2894,0.8274,43.2000,11.5500,-243.3000,20.0600,3.3500,-11.0700,-5.1629,1.0265,2.3115,-39.5625,32.6875,-2.5000,29.4375,74.8125,30.3750,0
1776971852.029,11.7292,2.8228,-1.8723,-0.5308,0.0640,-2.0731,-76.5000,3.6000,-26.1000,1.8268,-3.2777,-8.3414,-1.4019,-0.4042,0.5263,39.4500,7.5000,-238.9500,22.1100,10.9400,-21.0800,-4.0055,1.3995,1.7737,-39.5625,32.6875,-2.5000,30.2500,73.6250,34.1250,0
1776971852.037,13.0460,1.8914,-1.6664,-0.1116,0.0709,-2.0166,-75.9000,4.9500,-25.5000,2.0734,-3.8140,-9.8474,-0.8924,-0.2998,0.3296,36.4500,4.9500,-231.6000,15.0900,10.6200,-12.6400,-2.9180,-1.7759,1.3930,-39.5625,32.6875,-2.5000,30.6250,73.9375,39.8750,0
1776971852.042,13.0460,1.8914,-1.6664,-0.1116,0.0709,-2.0166,-75.9000,4.9500,-25.5000,3.1987,-2.6863,-8.4252,-0.4724,0.0584,0.2886,36.4500,4.9500,-231.6000,15.0900,10.6200,-12.6400,-2.9180,-1.7759,1.3930,-39.5625,32.6875,-2.5000,30.1250,74.5625,47.2500,0
1776971852.051,12.0692,0.9888,-1.3791,0.2683,-0.0013,-2.0081,-76.5000,6.7500,-23.8500,3.1987,-2.6863,-8.4252,-0.4724,0.0584,0.2886,36.4500,4.9500,-231.6000,7.6000,5.7800,-10.3800,-1.4432,-3.1056,1.6406,-39.5625,32.6875,-2.5000,30.1250,74.5625,47.2500,0
1776971852.056,13.0747,-0.6512,-1.4964,0.3640,0.1103,-2.0352,-76.6500,6.9000,-25.8000,2.7533,-1.0989,-7.6734,-0.0826,0.4700,0.2084,36.4500,4.9500,-231.6000,7.6000,5.7800,-10.3800,-1.4432,-3.1056,1.6406,-37.8750,34.7500,1.8750,29.1250,75.1250,55.5000,0
1776971852.061,13.0747,-0.6512,-1.4964,0.3640,0.1103,-2.0352,-76.6500,6.9000,-25.8000,2.7533,-1.0989,-7.6734,0.2590,0.9745,0.1127,28.0500,-2.7000,-217.8000,4.7600,3.5700,-7.8200,-0.5498,-3.6325,1.6122,-37.8750,34.7500,1.8750,29.1250,75.1250,55.5000,0
1776971852.066,13.3860,-0.8021,-1.5826,0.5100,0.0578,-2.0291,-77.2500,6.7500,-25.3500,2.2793,0.1317,-7.9535,0.2590,0.9745,0.1127,28.0500,-2.7000,-217.8000,4.7600,3.5700,-7.8200,-0.5498,-3.6325,1.6122,-37.8750,34.7500,1.8750,27.8750,75.5000,64.0625,0
1776971852.071,13.3860,-0.8021,-1.5826,0.5100,0.0578,-2.0291,-77.2500,6.7500,-25.3500,2.0111,1.0343,-8.1642,0.4450,1.4973,-0.0195,26.7000,-7.2000,-214.2000,2.1500,2.0500,-6.3100,-0.0044,-3.8310,1.4584,-37.8750,34.7500,1.8750,27.8750,75.5000,64.0625,0
1776971852.078,12.7802,-0.4621,-1.4030,0.3000,-0.0488,-2.0512,-75.1500,9.3000,-25.0500,2.0111,1.0343,-8.1642,0.4450,1.4973,-0.0195,23.2500,-11.2500,-208.3500,0.8600,0.2000,-5.1200,0.0600,-3.5976,1.2894,-37.8750,34.7500,1.8750,26.7500,75.5625,72.3125,0
1776971852.083,12.3852,0.1221,-1.5467,0.3000,-0.0488,-2.0512,-75.1500,9.3000,-25.0500,1.8316,1.4437,-8.5665,0.4903,1.8309,-0.2062,23.2500,-11.2500,-208.3500,0.8600,0.2000,-5.1200,0.0600,-3.5976,1.2894,-37.8750,34.7500,1.8750,25.8125,75.5000,80.1250,0
1776971852.091,12.3852,0.1221,-1.5467,0.1276,-0.0197,-2.0230,-75.1500,9.3000,-25.0500,2.1835,0.5938,-9.2225,0.3954,2.1448,-0.4487,24.1500,-14.7000,-203.1000,0.8500,-0.4000,-5.4100,-0.1625,-3.4503,1.0396,-37.8750,34.7500,1.8750,25.1875,75.2500,87.5000,0
1776971852.101,11.7819,0.9840,-1.8459,-0.0797,0.0226,-1.9995,-74.4000,11.2500,-25.5000,3.2872,-0.3352,-9.2871,0.2273,2.2111,-0.7381,20.8500,-18.1500,-198.6000,1.4900,-0.8700,-6.1700,-0.4603,-3.2736,0.7450,-37.8750,34.7500,1.8750,25.1875,75.2500,87.5000,0
1776971852.105,11.4946,2.1548,-2.0135,-0.2499,0.0645,-1.9630,-74.4000,11.2500,-25.5000,3.2872,-0.3352,-9.2871,0.2273,2.2111,-0.7381,20.8500,-18.1500,-198.6000,1.4900,-0.8700,-6.1700,-0.4603,-3.2736,0.7450,-37.8750,34.7500,1.8750,25.1875,75.2500,87.5000,0
1776971852.110,11.4946,2.1548,-2.0135,-0.2499,0.0645,-1.9630,-74.4000,11.2500,-25.5000,3.6009,-1.1037,-9.4475,0.0296,2.2074,-0.9531,20.8500,-18.1500,-198.6000,3.3900,-1.2100,-7.4700,-0.8716,-3.0281,0.4265,-34.3750,37.5000,8.0625,25.0000,75.0000,94.3125,0
1776971852.115,11.2216,2.1380,-1.8771,-0.3376,0.0906,-1.9436,-75.6000,12.6000,-24.9000,3.6009,-1.1037,-9.4475,0.0296,2.2074,-0.9531,20.8500,-18.1500,-198.6000,3.3900,-1.2100,-7.4700,-0.8716,-3.0281,0.4265,-34.3750,37.5000,8.0625,25.0000,75.0000,94.3125,0
1776971852.120,11.2216,2.1380,-1.8771,-0.3376,0.0906,-1.9436,-75.6000,12.6000,-24.9000,3.5913,-2.2170,-9.4260,-0.0376,2.3156,-1.1119,19.6500,-23.4000,-194.2500,6.2900,-0.7000,-9.5500,-1.3035,-3.0380,0.0927,-34.3750,37.5000,8.0625,25.1875,74.7500,101.1875,0
1776971852.128,11.0588,2.0614,-1.6041,-0.4562,-0.0376,-1.9465,-75.1500,13.9500,-24.7500,3.5913,-2.2170,-9.4260,0.1284,2.4581,-1.2364,17.5500,-23.7000,-191.7000,7.1300,-0.8100,-9.9600,-1.6657,-3.3052,-0.1876,-34.3750,37.5000,8.0625,25.7500,74.3750,108.6250,0
1776971852.133,11.1115,1.9896,-1.6999,-0.4740,-0.1591,-1.9372,-73.3500,14.2500,-25.3500,3.7062,-3.1484,-8.9950,0.1284,2.4581,-1.2364,17.5500,-23.7000,-191.7000,7.1300,-0.8100,-9.9600,-1.6657,-3.3052,-0.1876,-34.3750,37.5000,8.0625,26.5000,73.7500,116.6875,0
1776971852.141,10.6470,1.7597,-1.8052,-0.4740,-0.1591,-1.9372,-73.3500,14.2500,-25.3500,2.9473,-2.8180,-8.2935,0.5295,2.8088,-1.3675,15.1500,-25.0500,-191.2500,6.8000,-0.9800,-9.6300,-1.8577,-3.7405,-0.4167,-34.3750,37.5000,8.0625,27.4375,72.8750,124.9375,0
1776971852.151,10.3789,1.9249,-1.7621,-0.4719,-0.2457,-1.9007,-72.4500,15.1500,-24.0000,3.4046,-1.8531,-7.8937,1.1024,3.0776,-1.6105,13.5000,-22.2000,-188.8500,6.0700,-2.0200,-8.8400,-1.9362,-4.1048,-0.6076,-34.3750,37.5000,8.0625,27.4375,72.8750,124.9375,0
1776971852.155,10.3789,1.9249,-1.7621,-0.4863,-0.3008,-1.8125,-72.9000,15.6000,-24.3000,3.4046,-1.8531,-7.8937,1.1024,3.0776,-1.6105,11.4000,-19.9500,-188.2500,6.0700,-2.0200,-8.8400,-1.9362,-4.1048,-0.6076,-34.3750,37.5000,8.0625,28.4375,71.7500,132.6875,0
1776971852.160,10.1873,1.9201,-1.7190,-0.4860,-0.3325,-1.7120,-72.9000,15.6000,-24.3000,3.1196,0.6416,-7.7093,1.6110,3.4198,-1.9377,11.4000,-19.9500,-188.2500,6.5100,-2.6300,-8.8400,-2.0137,-4.2870,-0.7625,-32.1875,35.8750,15.5625,28.4375,71.7500,132.6875,0
1776971852.165,10.1873,1.9201,-1.7190,-0.4860,-0.3325,-1.7120,-72.6000,17.7000,-24.9000,3.1196,0.6416,-7.7093,1.6110,3.4198,-1.9377,11.4000,-19.9500,-188.2500,6.5100,-2.6300,-8.8400,-2.0137,-4.2870,-0.7625,-32.1875,35.8750,15.5625,29.6875,70.3125,139.8750,0
1776971852.170,9.8282,1.9417,-1.4581,-0.5124,-0.3456,-1.6030,-72.6000,17.7000,-24.9000,4.5945,2.8563,-6.0741,1.5583,3.9436,-2.1165,11.4000,-19.9500,-188.2500,6.7300,-3.0300,-8.5500,-2.1489,-4.4211,-0.8945,-32.1875,35.8750,15.5625,29.6875,70.3125,139.8750,0
1776971852.175,9.8282,1.9417,-1.4581,-0.5124,-0.3456,-1.6030,-71.5500,16.9500,-24.6000,4.5945,2.8563,-6.0741,1.5583,3.9436,-2.1165,3.7500,-7.6500,-183.1500,6.7300,-3.0300,-8.5500,-2.3333,-4.5379,-0.9992,-32.1875,35.8750,15.5625,31.1875,68.6250,146.3750,0
1776971852.181,8.9280,2.0973,-1.2043,-0.5713,-0.3008,-1.4847,-71.5500,16.9500,-24.6000,5.3295,2.7533,-3.8618,0.9134,3.7920,-2.0851,3.7500,-7.6500,-183.1500,6.3900,-3.2500,-7.0000,-2.3333,-4.5379,-0.9992,-32.1875,35.8750,15.5625,32.9375,66.7500,152.0000,0
1776971852.190,9.0477,2.3200,-0.9194,-0.4887,-0.4114,-1.3403,-72.6000,18.4500,-24.6000,5.3702,1.1061,-1.7717,-0.0536,3.6993,-2.0896,2.2500,-4.2000,-184.6500,6.9400,-3.0700,-6.5700,-2.4151,-4.4680,-1.0308,-32.1875,35.8750,15.5625,32.9375,66.7500,152.0000,0
1776971852.200,8.7724,1.7142,-0.9218,-0.3336,-0.5263,-1.2327,-72.6000,18.4500,-24.6000,5.8921,-2.3104,-2.2769,-0.7245,3.5978,-2.1538,0.4500,-1.2000,-186.0000,7.6400,-2.8600,-6.6900,-2.3944,-4.3295,-1.0297,-32.1875,35.8750,15.5625,34.7500,64.8750,156.8125,0
1776971852.205,8.7724,1.7142,-0.9218,-0.3336,-0.5263,-1.2327,-69.7500,19.5000,-24.7500,5.8921,-2.3104,-2.2769,-0.7245,3.5978,-2.1538,0.0000,0.0000,-185.2500,7.6400,-2.8600,-6.6900,-2.3944,-4.3295,-1.0297,-32.1875,35.8750,15.5625,34.7500,64.8750,156.8125,0
1776971852.210,7.9847,1.9273,-1.4078,-0.1042,-0.7093,-1.1724,-69.7500,19.5000,-24.7500,6.3375,-4.6352,-3.1173,-1.0038,3.8459,-2.1762,0.0000,0.0000,-185.2500,8.3700,-2.5400,-7.2100,-2.3322,-4.1528,-1.0777,-28.5000,29.0000,26.8750,36.6875,62.9375,160.9375,0
1776971852.215,7.9847,1.9273,-1.4078,-0.1042,-0.7093,-1.1724,-69.6000,20.4000,-24.1500,6.3375,-4.6352,-3.1173,-1.0038,3.8459,-2.1762,-1.0500,0.7500,-183.7500,8.3700,-2.5400,-7.2100,-2.3322,-4.1528,-1.0777,-28.5000,29.0000,26.8750,36.6875,62.9375,160.9375,0
1776971852.220,7.0629,2.2505,-0.7230,-0.1399,-0.6536,-1.1159,-69.6000,20.4000,-24.1500,8.1523,-5.5474,-4.2808,-0.4674,3.7009,-2.0664,-1.0500,0.7500,-183.7500,8.7400,-2.3800,-8.7800,-2.2166,-4.0033,-1.2021,-28.5000,29.0000,26.8750,38.7500,61.0000,164.5625,0
1776971852.228,7.2281,2.2793,-0.9529,-0.0584,-0.6464,-0.9771,-70.9500,21.9000,-24.3000,7.8578,-4.0199,-4.8961,0.3195,3.9796,-2.0243,-1.0500,0.7500,-183.7500,8.7600,-2.5100,-9.2700,-2.1217,-3.8986,-1.3472,-28.5000,29.0000,26.8750,41.0000,59.0625,167.8750,0
1776971852.233,7.2281,2.2793,-0.9529,-0.0584,-0.6464,-0.9771,-70.9500,21.9000,-24.3000,7.8578,-4.0199,-4.8961,0.3195,3.9796,-2.0243,-1.0500,0.7500,-183.7500,8.7600,-2.5100,-9.2700,-2.1217,-3.8986,-1.3472,-28.5000,29.0000,26.8750,43.3750,57.1875,170.9375,0
1776971852.241,7.1132,2.7174,-0.8284,-0.0677,-0.6667,-0.8460,-69.6000,20.1000,-25.6500,8.0158,-2.9137,-3.9744,0.4956,4.0105,-2.1477,0.0000,0.3000,-179.8500,9.6500,-2.4600,-9.8500,-2.0377,-3.7535,-1.4388,-28.5000,29.0000,26.8750,45.9375,55.2500,173.6875,0
1776971852.251,6.8666,2.8994,-0.4597,-0.0517,-0.6640,-0.7226,-69.6000,20.4000,-25.3500,6.9145,-1.3838,-3.5674,-0.0650,3.8101,-2.3627,-1.0500,1.5000,-178.0500,11.9900,-2.4300,-11.0300,-2.0104,-3.7295,-1.4890,-28.5000,29.0000,26.8750,45.9375,55.2500,173.6875,0
1776971852.255,6.8043,2.5977,-0.2562,-0.0517,-0.6640,-0.7226,-69.1500,23.5500,-24.9000,6.4763,-1.5227,-1.9201,-0.7584,3.8602,-2.4776,-1.2000,3.1500,-176.1000,11.9900,-2.4300,-11.0300,-2.0104,-3.7295,-1.4890,-17.8750,18.3750,32.0625,48.6875,53.1875,176.2500,0
1776971852.261,6.8043,2.5977,-0.2562,-0.0195,-0.6075,-0.5793,-69.1500,23.5500,-24.9000,6.4763,-1.5227,-1.9201,-0.7584,3.8602,-2.4776,-1.2000,3.1500,-176.1000,12.2600,-2.3600,-11.1500,-2.0399,-3.8474,-1.5370,-17.8750,18.3750,32.0625,48.6875,53.1875,176.2500,0
1776971852.266,6.6439,2.4876,-0.1149,-0.0195,-0.6075,-0.5793,-68.8500,22.8000,-25.6500,6.8139,-2.6528,-1.7502,-0.9790,3.9146,-2.4933,-1.2000,2.7000,-175.0500,12.2600,-2.3600,-11.1500,-2.0399,-3.8474,-1.5370,-17.8750,18.3750,32.0625,51.7500,50.9375,178.6250,0
1776971852.271,6.6439,2.4876,-0.1149,-0.0069,-0.5177,-0.4322,-68.8500,22.8000,-25.6500,6.8139,-2.6528,-1.7502,-0.9790,3.9146,-2.4933,-1.2000,2.7000,-175.0500,11.8500,-2.2400,-10.8200,-2.0551,-4.0939,-1.5697,-17.8750,18.3750,32.0625,51.7500,50.9375,178.6250,0
1776971852.275,6.6104,2.0614,0.1867,-0.0069,-0.5177,-0.4322,-68.4000,23.2500,-26.4000,7.3215,-3.9648,-2.1165,-0.9654,3.9626,-2.5157,-1.8000,3.7500,-172.3500,11.8500,-2.2400,-10.8200,-2.0224,-4.2510,-1.5752,-17.8750,18.3750,32.0625,55.0625,48.6250,-179.1250,0
1776971852.281,6.6104,2.0614,0.1867,-0.0072,-0.4271,-0.2926,-68.4000,23.2500,-26.4000,7.3215,-3.9648,-2.1165,-0.9654,3.9626,-2.5157,-1.8000,3.7500,-172.3500,11.3000,-2.2400,-10.4800,-2.0224,-4.2510,-1.5752,-17.8750,18.3750,32.0625,58.5625,46.1875,-177.1875,0
1776971852.291,6.4284,1.4293,0.4286,-0.0501,-0.3325,-0.1404,-68.4000,23.2500,-26.4000,7.7907,-4.3335,-1.8866,-0.9377,3.9618,-2.5277,-1.8000,3.7500,-172.3500,10.9900,-1.9900,-10.4100,-1.9689,-4.3044,-1.5468,-17.8750,18.3750,32.0625,52.9375,43.6875,-175.4375,0
1776971852.301,6.2776,1.0343,0.4453,-0.1460,-0.2294,0.0229,-68.7000,23.8500,-25.8000,8.3246,-4.0558,-1.7214,-0.9625,4.0875,-2.5871,-0.1500,6.1500,-170.4000,10.8900,-1.7500,-10.4500,-1.9384,-4.3742,-1.4879,-17.8750,18.3750,32.0625,52.9375,43.6875,-175.4375,0
1776971852.306,6.2345,0.8499,0.2634,-0.2523,-0.1591,0.2030,-68.7000,23.8500,-25.8000,9.1147,-3.8331,-1.4389,-0.5423,4.0121,-2.7022,-1.9500,6.9000,-166.8000,10.8900,-1.7500,-10.4500,-1.9384,-4.3742,-1.4879,-17.8750,18.3750,32.0625,52.6250,41.2500,-173.8750,0
1776971852.311,6.2345,0.8499,0.2634,-0.2523,-0.1591,0.2030,-68.7000,23.8500,-25.8000,9.1147,-3.8331,-1.4389,-0.5423,4.0121,-2.7022,-1.9500,6.9000,-166.8000,10.7600,-1.4000,-10.2400,-1.9133,-4.3502,-1.4159,-13.0000,15.0000,23.0000,52.6250,41.2500,-173.8750,0
1776971852.316,6.0501,0.8691,0.1652,-0.3840,-0.0642,0.3776,-68.4000,23.2500,-26.4000,9.5313,-2.7078,-0.8212,-0.6027,4.1243,-2.8202,1.0500,8.5500,-164.8500,10.7600,-1.4000,-10.2400,-1.9133,-4.3502,-1.4159,-13.0000,15.0000,23.0000,52.3750,38.8125,-172.5000,0
1776971852.321,6.0501,0.8691,0.1652,-0.3840,-0.0642,0.3776,-68.4000,23.2500,-26.4000,9.5313,-2.7078,-0.8212,-0.6027,4.1243,-2.8202,1.0500,8.5500,-164.8500,10.6600,-0.6400,-9.4200,-1.8479,-4.2455,-1.3308,-13.0000,15.0000,23.0000,52.3750,38.8125,-172.5000,0
1776971852.329,5.9089,1.3599,0.0215,-0.4890,0.0354,0.5729,-69.4500,22.9500,-25.5000,9.8928,-1.8986,-1.0008,-0.7376,4.3012,-2.9404,2.2500,10.6500,-161.8500,10.9400,-0.3000,-8.9200,-1.7039,-4.0350,-1.2326,-13.0000,15.0000,23.0000,52.1875,36.5000,-171.2500,0
1776971852.334,5.8203,2.3487,-0.2322,-0.5375,0.0967,0.7600,-69.4500,22.9500,-25.5000,10.0700,-1.3408,-1.1444,-0.6742,4.3079,-3.0339,1.2000,12.1500,-160.0500,10.9400,-0.3000,-8.9200,-1.7039,-4.0350,-1.2326,-13.0000,15.0000,23.0000,52.0000,34.3125,-170.2500,0
1776971852.341,5.8203,2.3487,-0.2322,-0.5375,0.0967,0.7600,-69.0000,23.4000,-27.0000,10.0700,-1.3408,-1.1444,-0.6742,4.3079,-3.0339,1.2000,12.1500,-160.0500,11.2200,-0.0700,-8.3500,-1.4650,-3.7797,-1.1356,-13.0000,15.0000,23.0000,51.7500,32.3750,-169.3750,0
1776971852.351,5.7078,3.5195,-0.2514,-0.5732,0.1953,0.9241,-68.8500,23.2500,-27.1500,10.4866,-1.2570,-1.0367,-0.4429,3.4984,-2.9540,1.2000,12.1500,-160.0500,12.7800,-0.9700,-7.9700,-1.2261,-3.4350,-1.0690,-13.0000,15.0000,23.0000,51.7500,32.3750,-169.3750,0
1776971852.356,5.6503,4.4748,-0.1197,-0.5652,0.3232,1.0563,-69.1500,22.8000,-26.4000,11.5592,-1.2091,-0.2849,-0.4429,3.4984,-2.9540,5.4000,14.5500,-156.0000,12.7800,-0.9700,-7.9700,-1.2261,-3.4350,-1.0690,-13.0000,15.0000,23.0000,51.4375,30.5625,-168.6250,0
1776971852.361,5.6503,4.4748,-0.1197,-0.5652,0.3232,1.0563,-69.1500,22.8000,-26.4000,12.0261,-1.3312,-0.0383,-0.1122,3.4544,-2.7984,4.8000,18.4500,-156.9000,14.1300,-1.7100,-8.1500,-1.1061,-3.0620,-1.0799,-36.1875,21.6875,43.3750,51.4375,30.5625,-168.6250,0
1776971852.366,5.7461,5.5976,-0.3089,-0.4101,0.4186,1.1490,-69.6000,23.2500,-26.4000,12.0261,-1.3312,-0.0383,-0.1122,3.4544,-2.7984,4.8000,18.4500,-156.9000,14.1300,-1.7100,-8.1500,-1.1061,-3.0620,-1.0799,-36.1875,21.6875,43.3750,51.1250,28.9375,-167.8125,0
1776971852.371,5.8754,6.3375,-0.5794,-0.4101,0.4186,1.1490,-69.6000,23.2500,-26.4000,13.0819,0.1269,0.1245,0.2443,3.2093,-2.5828,8.1000,21.4500,-158.7000,16.0000,-2.3100,-8.4500,-1.1192,-2.7674,-1.1825,-36.1875,21.6875,43.3750,51.1250,28.9375,-167.8125,0
1776971852.376,5.8754,6.3375,-0.5794,-0.1327,0.4295,1.1794,-69.6000,23.2500,-26.4000,13.0819,0.1269,0.1245,0.2443,3.2093,-2.5828,8.1000,21.4500,-158.7000,16.0000,-2.3100,-8.4500,-1.2054,-2.5656,-1.3068,-36.1875,21.6875,43.3750,50.6875,27.3750,-166.9375,0
1776971852.382,6.6679,6.8426,-0.2418,0.0759,0.4935,1.2566,-69.6000,23.2500,-26.4000,12.9622,1.7430,0.0311,0.2577,3.4094,-2.4805,9.3000,25.0500,-161.2500,17.8700,-2.4200,-8.3300,-1.2054,-2.5656,-1.3068,-36.1875,21.6875,43.3750,50.2500,25.8750,-166.0000,0
1776971852.391,7.5393,7.2185,0.4453,0.0759,0.4935,1.2566,-71.1000,23.5500,-26.7000,14.2048,2.4828,-0.1293,0.3139,3.3705,-2.1328,9.3000,25.0500,-161.2500,20.1000,-1.8000,-6.0500,-1.2326,-2.5209,-1.4006,-36.1875,21.6875,43.3750,50.2500,25.8750,-166.0000,0
1776971852.401,8.3294,8.0134,1.1684,0.2907,0.3909,1.3539,-71.1000,23.5500,-26.7000,17.0491,1.3958,-3.8451,1.0744,2.6638,-1.6172,9.3000,25.0500,-161.2500,21.1400,-1.4700,-4.2400,-1.1050,-2.5809,-1.4475,-36.1875,21.6875,43.3750,49.7500,24.2500,-165.1875,0
1776971852.406,8.3294,8.0134,1.1684,0.2907,0.3909,1.3539,-71.1000,23.5500,-26.7000,17.0491,1.3958,-3.8451,1.0744,2.6638,-1.6172,9.3000,25.0500,-161.2500,21.1400,-1.4700,-4.2400,-1.1050,-2.5809,-1.4475,-36.1875,21.6875,43.3750,49.7500,24.2500,-165.1875,0
1776971852.411,7.1874,9.2249,0.8284,0.3568,0.4386,1.3371,-70.0500,22.8000,-27.1500,9.4715,1.8818,-4.5203,0.7306,2.4400,-1.3949,18.7500,55.5000,-181.9500,20.4000,-1.1000,-1.4300,-0.7614,-2.7554,-1.4115,-19.2500,5.7500,69.5000,49.2500,22.5625,-164.6250,0
1776971852.415,7.1874,9.2249,0.8284,0.3568,0.4386,1.3371,-70.0500,22.8000,-27.1500,9.4715,1.8818,-4.5203,0.7306,2.4400,-1.3949,18.7500,55.5000,-181.9500,20.4000,-1.1000,-1.4300,-0.7614,-2.7554,-1.4115,-19.2500,5.7500,69.5000,49.2500,22.5625,-164.6250,0
1776971852.420,7.6758,9.9288,0.7494,0.4279,0.8729,1.2969,-71.1000,21.3000,-26.7000,19.6588,-4.0462,-1.9465,-1.5423,3.0478,-0.6153,19.5000,65.5500,-193.3500,13.0500,-2.6600,4.6800,-0.2618,-2.9834,-1.3755,-19.2500,5.7500,69.5000,48.7500,20.8125,-164.3750,0
1776971852.425,7.6758,9.9288,0.7494,0.4279,0.8729,1.2969,-71.1000,21.3000,-26.7000,19.6588,-4.0462,-1.9465,-1.5423,3.0478,-0.6153,19.5000,65.5500,-193.3500,13.0500,-2.6600,4.6800,0.2520,-2.7325,-1.4170,-19.2500,5.7500,69.5000,48.1250,19.1250,-164.3750,0
1776971852.431,9.2775,11.1690,0.2466,0.7123,0.7469,1.1983,-72.0000,21.4500,-27.7500,11.2695,0.1891,-0.1317,-1.2993,3.2301,-0.5630,23.2500,66.3000,-204.0000,12.9500,-5.7900,7.1000,0.2520,-2.7325,-1.4170,-19.2500,5.7500,69.5000,47.4375,17.8750,-164.4375,0
1776971852.441,8.9016,11.0277,-0.5219,1.0211,0.7096,0.9457,-71.7000,22.2000,-27.3000,8.6838,3.5698,6.3422,0.8186,3.4518,-0.2110,23.5500,67.0500,-211.5000,14.7400,-6.8700,8.6200,0.3927,-1.8850,-1.4846,-19.2500,5.7500,69.5000,46.6250,17.1250,-164.3750,0
1776971852.451,8.8322,11.3940,-1.4150,1.6334,0.5156,0.6209,-71.7000,22.2000,-28.8000,10.0916,4.0031,6.3327,0.3754,2.1730,0.5135,23.5500,67.0500,-211.5000,7.2800,-8.6700,13.5900,0.2498,-0.9457,-1.5403,-19.2500,5.7500,69.5000,46.6250,17.1250,-164.3750,0
1776971852.456,8.8322,11.3940,-1.4150,1.6334,0.5156,0.6209,-71.7000,22.2000,-28.8000,10.0916,4.0031,6.3327,0.3754,2.1730,0.5135,23.5500,67.0500,-211.5000,7.2800,-8.6700,13.5900,0.2498,-0.9457,-1.5403,-19.2500,5.7500,69.5000,45.5625,17.0000,-164.0000,0
1776971852.461,8.5138,9.7564,-1.0822,1.8524,0.5883,0.2510,-73.9500,21.0000,-28.0500,10.9463,1.9106,4.7908,0.2774,0.8207,0.9931,23.5500,67.0500,-211.5000,14.1100,-12.6500,16.7100,-0.0720,0.2563,-1.8380,0.7500,-3.2500,71.2500,45.5625,17.0000,-164.0000,0
1776971852.466,8.5138,9.7564,-1.0822,1.8524,0.5883,0.2510,-73.9500,21.0000,-28.0500,10.9463,1.9106,4.7908,0.2774,0.8207,0.9931,23.5500,67.0500,-211.5000,14.1100,-12.6500,16.7100,-0.0720,0.2563,-1.8380,0.7500,-3.2500,71.2500,44.3125,18.2500,-163.3125,0
1776971852.471,7.5944,7.5489,-1.0247,1.9766,0.6211,0.0131,-73.9500,21.0000,-28.0500,11.1642,-0.1772,1.5969,0.0690,-1.0376,1.1479,17.4000,56.2500,-238.2000,23.4400,-7.0400,17.9100,-0.4440,2.8940,-1.9482,0.7500,-3.2500,71.2500,44.3125,18.2500,-163.3125,0
1776971852.477,7.5154,4.7285,-0.9697,1.9766,0.6211,0.0131,-72.6000,20.8500,-26.7000,11.5448,-0.8475,0.2418,0.6566,-2.6311,1.4160,17.4000,56.2500,-238.2000,12.8200,-3.2300,16.0600,0.2345,2.4925,-1.9875,0.7500,-3.2500,71.2500,43.0000,19.2500,-162.9375,0
1776971852.482,7.5154,4.7285,-0.9697,1.9156,0.5806,-0.0133,-72.6000,20.8500,-26.7000,11.5448,-0.8475,0.2418,0.6566,-2.6311,1.4160,15.7500,54.4500,-238.0500,12.8200,-3.2300,16.0600,0.2345,2.4925,-1.9875,0.7500,-3.2500,71.2500,42.4375,20.0625,-162.8125,0
1776971852.491,7.6303,2.6432,-0.8188,1.8055,0.6067,0.2097,-72.6000,20.8500,-26.7000,9.3781,-1.4317,1.8866,1.2116,-3.5751,1.7800,15.9000,54.3000,-237.1500,-1.4900,1.8100,6.6100,0.2051,1.7868,-0.7178,0.7500,-3.2500,71.2500,42.1875,20.8750,-163.4375,0
1776971852.501,8.1307,1.2546,-1.4724,1.4591,0.5918,0.5833,-73.2000,19.5000,-27.0000,8.7771,-0.0814,1.9537,2.1349,-3.6242,1.8255,15.1500,55.0500,-234.7500,12.1600,10.0000,-24.2300,1.3264,1.5370,0.0033,0.7500,-3.2500,71.2500,42.1875,20.8750,-163.4375,0
1776971852.506,10.2472,-0.0168,-1.5323,1.4591,0.5918,0.5833,-73.2000,19.5000,-27.0000,7.8003,4.2186,4.4029,2.7741,-3.1696,1.3286,15.1500,55.0500,-234.7500,12.1600,10.0000,-24.2300,1.3264,1.5370,0.0033,0.7500,-3.2500,71.2500,42.1250,22.1875,-164.8750,0
1776971852.511,10.2472,-0.0168,-1.5323,1.1077,0.7282,1.0091,-74.4000,18.3000,-27.3000,7.8003,4.2186,4.4029,2.7741,-3.1696,1.3286,15.1500,55.0500,-234.7500,-2.4800,-2.1000,-8.4100,2.6114,2.1991,0.6970,6.5625,-4.5625,72.8750,42.1250,22.1875,-164.8750,0
1776971852.516,14.7818,-0.2442,-1.9656,0.6915,0.5774,1.5114,-74.4000,18.3000,-27.3000,10.6446,7.5824,4.0414,2.6374,-2.3816,0.5033,15.1500,55.0500,-234.7500,-2.4800,-2.1000,-8.4100,2.6114,2.1991,0.6970,6.5625,-4.5625,72.8750,42.0625,23.3125,-166.2500,0
1776971852.521,14.7818,-0.2442,-1.9656,0.6915,0.5774,1.5114,-75.1500,18.3000,-26.2500,10.6446,7.5824,4.0414,2.6374,-2.3816,0.5033,15.1500,55.0500,-234.7500,-0.4800,-3.4200,-23.6500,2.3933,1.9330,0.6938,6.5625,-4.5625,72.8750,42.0625,23.3125,-166.2500,0
1776971852.531,17.3197,-2.2098,-2.3966,0.6163,0.1895,1.8423,-74.5500,17.4000,-27.4500,20.0897,10.3070,-3.8618,1.9857,-1.2777,-0.1026,12.3000,55.5000,-217.9500,-3.6300,-12.6400,-5.0000,1.4770,2.1369,-0.0676,6.5625,-4.5625,72.8750,41.7500,24.4375,-166.9375,0
1776971852.540,21.1025,-2.6456,-8.9040,1.6044,-0.2510,1.9196,-74.1000,16.5000,-26.7000,20.7242,5.7772,-10.5824,-0.1743,-0.5119,0.0480,8.8500,54.4500,-214.2000,-0.1700,-11.3200,0.2900,0.8170,2.7522,-0.8159,6.5625,-4.5625,72.8750,41.0000,25.8125,-167.0625,0
1776971852.548,23.4632,2.8802,-11.2264,1.8101,-0.5100,1.8682,-75.4500,15.9000,-28.5000,20.0155,-0.5459,-9.0860,-1.8034,-0.8063,0.5812,8.7000,52.8000,-214.3500,20.5000,-17.8500,-18.1200,0.1647,3.8506,-0.6447,6.5625,-4.5625,72.8750,40.4375,27.8125,-166.6875,0
1776971852.553,23.4632,2.8802,-11.2264,1.8101,-0.5100,1.8682,-75.4500,15.9000,-28.5000,20.0155,-0.5459,-9.0860,-1.8034,-0.8063,0.5812,8.7000,52.8000,-214.3500,20.5000,-17.8500,-18.1200,0.1647,3.8506,-0.6447,6.5625,-4.5625,72.8750,40.4375,27.8125,-166.6875,0
1776971852.558,19.6947,5.3079,-4.8890,0.4112,-0.4335,1.3097,-75.4500,15.9000,-28.5000,19.7091,0.9816,-9.5960,-0.8199,-1.0088,0.8729,4.9500,54.7500,-215.4000,38.9900,9.0000,-34.5700,-0.3742,4.1735,-0.0720,-2.5625,-0.5000,77.5625,40.1875,30.0625,-166.1875,0
1776971852.563,19.6947,5.3079,-4.8890,0.4112,-0.4335,1.3097,-75.4500,15.9000,-28.5000,19.7091,0.9816,-9.5960,-0.8199,-1.0088,0.8729,4.9500,54.7500,-215.4000,38.9900,9.0000,-34.5700,-0.3742,4.1735,-0.0720,-2.5625,-0.5000,77.5625,40.1875,30.0625,-166.1875,0
1776971852.567,11.6238,3.5051,2.1284,-1.0011,0.2697,0.7221,-75.1500,13.9500,-26.2500,16.4625,3.5147,-6.7924,1.1146,0.5201,1.2081,4.9500,54.7500,-215.4000,28.0600,19.6300,4.1000,-0.8214,3.9041,0.5869,-2.5625,-0.5000,77.5625,40.3750,32.2500,-165.6250,0
1776971852.572,11.6238,3.5051,2.1284,-1.0011,0.2697,0.7221,-75.1500,13.9500,-26.2500,16.4625,3.5147,-6.7924,1.1146,0.5201,1.2081,4.9500,54.7500,-215.4000,28.0600,19.6300,4.1000,-0.8214,3.9041,0.5869,-2.5625,-0.5000,77.5625,40.5625,33.0625,-165.6875,0
1776971852.581,5.4253,-0.8380,8.6670,-2.2260,0.7426,0.5974,-75.1500,13.9500,-26.2500,8.1139,0.6177,-2.7605,2.1647,-0.6550,1.5748,-2.8500,79.5000,-224.7000,4.9500,12.6200,1.8500,0.0774,1.3668,0.4712,-2.5625,-0.5000,77.5625,40.5625,33.0625,-165.6875,0
1776971852.591,4.2904,-5.6719,6.3446,-1.4384,1.0475,0.8705,-75.1500,14.8500,-25.5000,4.9560,-3.5482,5.8155,2.8456,0.1577,1.4397,-6.6000,97.6500,-229.2000,8.5800,-13.7900,-14.2000,0.6490,0.0109,0.5203,-2.5625,-0.5000,77.5625,40.6875,33.1250,-166.2500,0
1776971852.601,4.6471,-7.3382,0.3687,-0.0650,0.9521,1.2004,-76.0500,14.5500,-24.6000,3.8451,-5.8610,5.3630,3.2439,-0.6110,1.1993,-8.2500,116.2500,-227.2500,7.3200,-5.1100,-9.2000,0.8083,1.2697,0.2531,-2.5625,-0.5000,77.5625,40.6250,33.8750,-166.6250,0
1776971852.606,4.6136,-7.5106,-2.1356,-0.3704,0.8961,1.5052,-76.0500,14.5500,-24.6000,4.2856,-7.4172,2.9473,3.3878,-1.4027,1.3712,-8.2500,116.2500,-227.2500,7.3200,-5.1100,-9.2000,0.8083,1.2697,0.2531,-2.5625,-0.5000,77.5625,40.6250,33.8750,-166.6250,0
1776971852.611,4.6136,-7.5106,-2.1356,-0.3704,0.8961,1.5052,-77.2500,14.5500,-23.8500,4.2856,-7.4172,2.9473,3.3878,-1.4027,1.3712,-3.9000,127.5000,-221.5500,5.9800,7.4000,-6.0600,0.0240,0.7047,0.0851,-16.2500,0.0625,81.1875,40.6250,34.2500,-166.6250,0
1776971852.616,8.2025,-7.5920,-1.5131,-1.5351,0.6582,1.8844,-77.2500,14.5500,-23.8500,8.5545,-8.4228,5.3343,2.1837,-0.4303,1.6990,1.9500,129.1500,-221.5500,5.9800,7.4000,-6.0600,0.0240,0.7047,0.0851,-16.2500,0.0625,81.1875,40.6250,34.2500,-166.6250,0
1776971852.621,12.6103,-5.6862,-0.5626,-1.5351,0.6582,1.8844,-76.2000,13.2000,-24.3000,8.5545,-8.4228,5.3343,2.1837,-0.4303,1.6990,1.9500,129.1500,-219.1500,7.8500,1.6700,-7.1900,-0.1974,0.3862,0.0949,-16.2500,0.0625,81.1875,40.6875,34.4375,-166.5000,0
1776971852.628,12.6103,-5.6862,-0.5626,-2.4165,-0.3435,1.9636,-77.2500,13.0500,-26.7000,10.4818,-9.6774,10.2328,0.5031,0.2209,2.0371,1.9500,129.1500,-219.1500,6.3700,-1.9100,-9.6800,-0.2520,-0.0535,0.2171,-16.2500,0.0625,81.1875,40.8750,34.4375,-166.5000,0
1776971852.633,11.2504,-1.2115,4.3072,-2.2431,-0.7589,1.8437,-77.2500,13.0500,-26.7000,8.3677,-8.2337,7.9248,0.1005,0.1380,2.2199,1.9500,129.1500,-219.1500,6.3700,-1.9100,-9.6800,-0.2520,-0.0535,0.2171,-16.2500,0.0625,81.1875,41.1250,34.1875,-166.5000,0
1776971852.641,8.9687,3.7924,6.4907,-1.4594,-0.3059,1.5140,-77.4000,12.0000,-23.7000,9.2129,-2.6600,5.4995,-0.0965,-0.3946,2.0491,12.7500,107.7000,-212.8500,4.7600,-0.5600,-9.4400,-0.2694,-0.5738,0.2978,-16.2500,0.0625,81.1875,41.3125,34.0625,-166.5625,0
1776971852.651,8.2528,7.0581,8.1259,-0.0099,0.4191,1.1010,-77.4000,12.0000,-23.7000,10.6805,2.2290,3.5458,-1.4703,-0.7032,1.9297,18.7500,104.5500,-204.4500,4.1000,2.1700,-8.1300,-0.0873,-0.2673,0.2574,-16.2500,0.0625,81.1875,41.3125,34.0625,-166.5625,0
1776971852.656,8.2528,7.0581,8.1259,-0.0099,0.4191,1.1010,-77.4000,12.0000,-23.7000,10.6805,2.2290,3.5458,-1.4703,-0.7032,1.9297,22.9500,111.1500,-196.0500,4.1000,2.1700,-8.1300,-0.0873,-0.2673,0.2574,-16.2500,0.0625,81.1875,41.3125,34.0625,-166.5625,0
1776971852.661,8.1930,7.1802,8.5234,1.4205,0.9769,0.7120,-77.2500,11.8500,-24.1500,9.7564,2.4277,0.6919,-2.3526,-0.6968,1.6451,22.9500,111.1500,-196.0500,5.1600,0.9900,-8.0200,0.2400,0.3152,0.2345,-18.8750,1.2500,81.3750,41.3750,34.2500,-166.7500,0
1776971852.666,8.1930,7.1802,8.5234,1.4205,0.9769,0.7120,-77.2500,11.8500,-24.1500,9.7564,2.4277,0.6919,-2.3526,-0.6968,1.6451,25.2000,117.4500,-191.4000,5.1600,0.9900,-8.0200,0.2400,0.3152,0.2345,-18.8750,1.2500,81.3750,41.3750,34.2500,-166.7500,0
1776971852.671,8.5569,6.2058,4.8387,2.2084,1.2825,0.4999,-77.2500,11.8500,-24.1500,9.3805,0.7542,1.4126,-1.7744,0.3011,1.0379,25.2000,117.4500,-191.4000,5.5800,1.1700,-7.8800,0.3545,0.5618,0.2825,-18.8750,1.2500,81.3750,41.4375,34.6250,-167.0000,0
1776971852.676,8.5569,6.2058,4.8387,2.2084,1.2825,0.4999,-77.2500,11.8500,-24.1500,9.3805,0.7542,1.4126,-1.7744,0.3011,1.0379,26.7000,122.7000,-188.5500,5.5800,1.1700,-7.8800,0.5487,0.4080,0.3349,-18.8750,1.2500,81.3750,41.5000,34.8750,-167.3750,0
1776971852.682,8.9376,3.4548,1.4078,2.4650,1.3169,0.4082,-77.2500,12.3000,-25.6500,9.3996,1.1612,2.0087,-0.6241,0.7986,0.5316,26.7000,122.7000,-188.5500,5.7500,1.9700,-7.6100,0.5487,0.4080,0.3349,-18.8750,1.2500,81.3750,41.5625,35.1250,-167.9375,0
1776971852.691,10.1514,-2.0446,-0.2634,2.2364,1.0810,0.3632,-78.9000,11.2500,-25.8000,10.0365,1.7693,2.1883,0.0304,0.3890,0.3128,26.7000,122.7000,-188.5500,5.5600,1.6700,-7.8100,0.7265,0.3414,0.3807,-18.8750,1.2500,81.3750,41.6250,35.4375,-168.5000,0
1776971852.701,10.2807,-2.4972,-0.6512,1.6542,0.8258,0.3126,-78.9000,10.5000,-26.2500,10.5034,1.1540,3.6272,0.2401,-0.1737,0.1569,20.7000,116.5500,-191.2500,5.3400,1.5600,-7.5700,0.8203,0.5334,0.3883,-18.8750,1.2500,81.3750,41.6250,35.4375,-168.5000,0
1776971852.706,10.2807,-2.4972,-0.6512,1.6542,0.8258,0.3126,-78.9000,10.5000,-26.2500,10.5034,1.1540,3.6272,0.2401,-0.1737,0.1569,17.7000,110.2500,-193.8000,5.3400,1.5600,-7.5700,0.8203,0.5334,0.3883,-18.8750,1.2500,81.3750,41.6250,35.8125,-169.0625,0
1776971852.711,10.1897,-2.3990,-0.3759,0.9148,0.4559,0.3840,-78.9000,10.0500,-25.5000,10.8984,-0.5339,3.0047,0.1937,-0.7666,0.0981,17.7000,110.2500,-193.8000,5.6000,1.3500,-7.7500,0.8912,0.6370,0.3982,-20.0625,1.6875,81.2500,41.6250,35.8125,-169.0625,0
1776971852.716,10.1897,-2.3990,-0.3759,0.9148,0.4559,0.3840,-78.9000,10.0500,-25.5000,10.8984,-0.5339,3.0047,0.1937,-0.7666,0.0981,14.7000,103.2000,-199.2000,5.6000,1.3500,-7.7500,0.8912,0.6370,0.3982,-20.0625,1.6875,81.2500,41.6875,36.1875,-169.6250,0
1776971852.721,9.6750,-1.4748,0.1245,0.1716,0.1919,0.5023,-78.3000,9.9000,-24.9000,9.9335,-2.5379,2.3679,0.1092,-1.3358,0.0826,14.7000,103.2000,-199.2000,5.9400,0.7700,-8.2700,0.7832,0.5956,0.3982,-20.0625,1.6875,81.2500,41.6875,36.1875,-169.6250,0
1776971852.730,9.2153,-1.4293,0.8188,-0.5481,0.0706,0.5724,-80.4000,10.5000,-23.7000,8.6694,-3.5386,1.4820,0.1799,-1.6315,0.1655,9.9000,98.7000,-203.5500,6.4800,0.2200,-8.6000,0.6174,0.5912,0.3796,-20.0625,1.6875,81.2500,41.7500,36.5625,-170.0625,0
