timestamp,thigh_acc_x,thigh_acc_y,thigh_acc_z,thigh_gyro_x,thigh_gyro_y,thigh_gyro_z,thigh_mag_x,thigh_mag_y,thigh_mag_z,shank_acc_x,shank_acc_y,shank_acc_z,shank_gyro_x,shank_gyro_y,shank_gyro_z,shank_mag_x,shank_mag_y,shank_mag_z,foot_acc_x,foot_acc_y,foot_acc_z,foot_gyro_x,foot_gyro_y,foot_gyro_z,foot_mag_x,foot_mag_y,foot_mag_z,foot_euler_x,foot_euler_y,foot_euler_z,perturbation_event
1776971766.292,10.9702,1.6951,1.0032,0.0083,0.1447,-1.5812,-76.2000,-5.8500,-26.5500,2.1620,2.4924,-9.4308,1.6968,1.0589,-0.5561,18.1500,39.0000,-242.8500,1.8700,4.9200,-7.7300,-0.2400,-1.6810,0.7756,-7.6875,24.7500,-7.1875,311.1875,67.1875,122.1875,0
1776971766.297,10.9702,1.6951,1.0032,0.0083,0.1447,-1.5812,-76.2000,-5.8500,-26.5500,2.3918,3.2896,-8.4300,2.5985,1.3115,-0.6486,14.8500,37.0500,-239.4000,1.5500,4.0300,-7.2200,-0.1364,-1.6646,0.2258,-7.6875,24.7500,-7.1875,310.8125,66.6250,123.9375,0
1776971766.302,10.9056,2.4660,0.5626,0.3134,0.2265,-1.5495,-76.5000,-5.5500,-25.6500,2.3918,3.2896,-8.4300,2.5985,1.3115,-0.6486,14.8500,37.0500,-239.4000,1.5500,4.0300,-7.2200,-0.2378,-1.6602,-0.3403,-7.6875,24.7500,-7.1875,310.7500,66.2500,126.0000,0
1776971766.308,10.9056,2.4660,0.5626,0.3134,0.2265,-1.5495,-76.5000,-5.5500,-25.6500,2.2577,1.6616,-6.5793,2.8722,1.7427,-0.8324,13.0500,39.7500,-239.7000,1.8500,4.1500,-7.0200,-0.2378,-1.6602,-0.3403,-7.6875,24.7500,-7.1875,310.9375,66.0000,128.5625,0
1776971766.317,10.7069,2.6097,0.2394,0.7805,0.3557,-1.4893,-76.6500,-5.4000,-25.0500,3.5985,-0.2179,-3.9504,2.7973,1.6603,-1.0531,12.4500,43.9500,-238.5000,2.1800,4.3000,-6.6900,-0.2563,-1.7824,-0.8029,-7.6875,24.7500,-7.1875,310.9375,66.0000,128.5625,0
1776971766.327,10.2855,2.9975,-0.0048,1.1759,0.5489,-1.4181,-76.6500,-5.4000,-25.0500,3.9097,-2.3463,-2.3535,2.6961,1.4895,-1.3161,12.4500,43.9500,-238.5000,3.8600,3.6000,-6.6800,-0.1254,-1.8599,-1.1465,-7.6875,24.7500,-7.1875,311.2500,65.8125,131.3125,0
1776971766.332,9.8545,3.2322,0.0263,1.5532,0.7368,-1.3259,-76.0500,-3.6000,-25.6500,3.9097,-2.3463,-2.3535,2.6961,1.4895,-1.3161,12.4500,43.9500,-238.5000,3.8600,3.6000,-6.6800,-0.1254,-1.8599,-1.1465,-7.6875,24.7500,-7.1875,311.5625,65.6250,134.3125,0
1776971766.337,9.8545,3.2322,0.0263,1.5532,0.7368,-1.3259,-76.0500,-3.6000,-25.6500,4.8363,-4.3096,-1.4796,2.6281,1.3646,-1.5050,10.3500,44.7000,-237.3000,4.3000,2.7900,-6.4000,0.0436,-1.9886,-1.4726,-21.1875,36.6875,-8.8750,311.5625,65.6250,134.3125,0
1776971766.342,9.7133,2.8850,-0.1149,1.8719,0.8639,-1.2329,-76.0500,-3.6000,-25.6500,4.8363,-4.3096,-1.4796,2.6281,1.3646,-1.5050,10.3500,44.7000,-237.3000,4.3000,2.7900,-6.4000,0.0436,-1.9886,-1.4726,-21.1875,36.6875,-8.8750,311.5625,65.6250,134.3125,0
1776971766.347,9.7133,2.8850,-0.1149,1.8719,0.8639,-1.2329,-76.0500,-3.6000,-25.6500,5.6336,-6.3255,-1.9728,2.5508,1.2377,-1.5836,12.3000,40.5000,-240.4500,4.3000,2.0200,-6.0900,0.1734,-2.1228,-1.8413,-21.1875,36.6875,-8.8750,312.0000,65.5000,137.6250,0
1776971766.352,9.6702,2.3367,-0.2227,2.0685,0.9387,-1.1636,-77.7000,-3.0000,-25.0500,5.6336,-6.3255,-1.9728,2.5508,1.2377,-1.5836,12.3000,40.5000,-240.4500,4.3000,2.0200,-6.0900,0.3316,-2.2678,-2.2046,-21.1875,36.6875,-8.8750,312.4375,65.3750,141.3125,0
1776971766.358,9.6582,1.6472,-0.1221,2.0709,0.9446,-1.1245,-77.7000,-3.0000,-25.0500,5.7604,-7.2903,-3.8379,2.6939,1.2630,-1.7816,12.7500,37.6500,-239.5500,4.2800,1.4100,-5.9700,0.3316,-2.2678,-2.2046,-21.1875,36.6875,-8.8750,313.0000,65.1250,145.1250,0
1776971766.367,9.6151,1.2354,0.1413,1.9193,0.8657,-1.0853,-76.9500,-2.7000,-22.9500,6.3949,-6.7732,-5.1667,2.6825,1.3011,-2.0054,12.7500,35.4000,-237.0000,5.3600,-0.0500,-6.1600,0.4941,-2.3213,-2.5187,-21.1875,36.6875,-8.8750,313.0000,65.1250,145.1250,0
1776971766.377,9.3996,0.9002,0.0120,1.6907,0.7592,-1.0709,-77.2500,-2.8500,-24.1500,6.3470,-5.4492,-5.3463,2.3846,1.3427,-2.2535,11.2500,35.2500,-235.3500,6.0200,-0.8500,-6.3900,0.5945,-2.4140,-2.7511,-21.1875,36.6875,-8.8750,313.5625,64.8750,149.1250,0
1776971766.382,9.3996,0.9002,0.0120,1.6907,0.7592,-1.0709,-79.6500,-2.7000,-25.5000,6.3470,-5.4492,-5.3463,2.3846,1.3427,-2.2535,11.2500,35.2500,-235.3500,6.0200,-0.8500,-6.3900,0.5945,-2.4140,-2.7511,-21.1875,36.6875,-8.8750,313.5625,64.8750,149.1250,0
1776971766.387,9.0716,0.7614,-0.2203,1.4981,0.6283,-1.0864,-79.6500,-2.7000,-25.5000,7.0701,-3.0789,-5.0446,2.0230,1.4322,-2.5261,11.2500,35.2500,-235.3500,7.0600,-1.6100,-6.7700,0.6000,-2.4696,-2.8471,-42.3750,47.7500,-4.0625,314.2500,64.4375,153.0625,0
1776971766.392,9.0716,0.7614,-0.2203,1.4981,0.6283,-1.0864,-78.0000,-2.1000,-24.6000,7.0701,-3.0789,-5.0446,2.0230,1.4322,-2.5261,11.2500,35.2500,-235.3500,7.0600,-1.6100,-6.7700,0.6000,-2.4696,-2.8471,-42.3750,47.7500,-4.0625,314.2500,64.4375,153.0625,0
1776971766.397,8.6383,0.8595,-0.3783,1.3430,0.5111,-1.1418,-78.0000,-2.1000,-24.6000,7.1754,-2.1069,-4.7477,1.7459,1.5199,-2.7275,9.0000,27.3000,-231.9000,8.2500,-2.3100,-6.7000,0.5792,-2.5242,-2.7903,-42.3750,47.7500,-4.0625,314.8750,63.8125,156.8750,0
1776971766.402,8.6383,0.8595,-0.3783,1.3430,0.5111,-1.1418,-76.8000,-4.0500,-23.8500,7.1754,-2.1069,-4.7477,1.7459,1.5199,-2.7275,9.0000,27.3000,-231.9000,8.2500,-2.3100,-6.7000,0.5127,-2.6027,-2.6224,-42.3750,47.7500,-4.0625,315.5000,63.0000,160.3750,0
1776971766.408,8.8777,0.7997,-0.2394,1.1799,0.4549,-1.1463,-76.8000,-4.0500,-23.8500,7.0294,-2.7007,-4.1252,1.5926,1.6896,-2.8954,8.1000,25.6500,-232.0500,8.6100,-2.1600,-6.4600,0.5127,-2.6027,-2.6224,-42.3750,47.7500,-4.0625,316.0625,62.0000,163.4375,0
1776971766.417,9.1171,0.6823,-0.6919,1.1034,0.3565,-1.1261,-76.8000,-4.0500,-23.8500,7.5322,-3.1939,-4.2042,1.4687,1.8724,-2.9223,4.3500,25.0500,-232.9500,8.9900,-1.6700,-6.1700,0.4222,-2.6376,-2.3966,-42.3750,47.7500,-4.0625,316.0625,62.0000,163.4375,0
1776971766.427,9.2225,0.8188,-0.9649,1.0352,0.2904,-1.1002,-78.1500,-1.9500,-24.7500,7.9679,-3.2010,-4.2952,1.3584,1.9417,-2.7795,1.8000,27.3000,-230.8500,9.4300,-0.2900,-5.7500,0.3698,-2.6420,-2.1838,-42.3750,47.7500,-4.0625,316.6250,60.9375,166.0625,0
1776971766.432,9.2225,0.8188,-0.9649,1.0352,0.2904,-1.1002,-78.1500,-1.9500,-24.7500,7.9679,-3.2010,-4.2952,1.3584,1.9417,-2.7795,1.8000,27.3000,-230.8500,9.4300,-0.2900,-5.7500,0.3698,-2.6420,-2.1838,-42.3750,47.7500,-4.0625,316.6250,60.9375,166.0625,0
1776971766.437,9.1937,1.0295,-1.2186,0.9934,0.2483,-1.0629,-78.1500,-1.9500,-24.7500,8.2911,-3.0382,-4.1731,1.3246,1.9774,-2.6065,-0.1500,27.4500,-229.9500,10.0900,0.0800,-6.1200,0.3752,-2.6104,-2.0202,-68.6875,49.0000,16.7500,317.0625,59.7500,168.3750,0
1776971766.442,9.1937,1.0295,-1.2186,0.9934,0.2483,-1.0629,-78.9000,-2.2500,-24.3000,8.5880,-3.0454,-4.2114,1.2969,1.9271,-2.4760,-0.1500,27.4500,-229.9500,10.0900,0.0800,-6.1200,0.3752,-2.6104,-2.0202,-68.6875,49.0000,16.7500,317.0625,59.7500,168.3750,0
1776971766.447,9.2344,1.4246,-1.2905,0.9944,0.2121,-1.0237,-78.9000,-2.2500,-24.3000,8.5880,-3.0454,-4.2114,1.2969,1.9271,-2.4760,-0.1500,27.4500,-229.9500,10.7400,0.3300,-6.6100,0.3982,-2.5373,-1.9253,-68.6875,49.0000,16.7500,317.5000,58.5625,170.3125,0
1776971766.454,9.1698,1.6281,-1.4269,0.9944,0.2121,-1.0237,-78.7500,0.4500,-24.6000,8.6957,-2.9688,-4.1204,1.2713,1.9105,-2.4118,-2.8500,27.7500,-229.3500,11.2600,0.4100,-7.1100,0.3742,-2.5307,-1.9090,-68.6875,49.0000,16.7500,317.9375,57.3125,172.1250,0
1776971766.459,9.1698,1.6281,-1.4269,1.0147,0.1687,-0.9854,-78.7500,0.4500,-24.6000,8.6957,-2.9688,-4.1204,1.2713,1.9105,-2.4118,-2.8500,27.7500,-229.3500,11.2600,0.4100,-7.1100,0.3742,-2.5307,-1.9090,-68.6875,49.0000,16.7500,318.5000,56.0625,173.8750,0
1776971766.468,9.1746,1.6975,-1.4317,0.9862,0.1330,-0.9409,-78.7500,-2.4000,-24.6000,8.6000,-2.9616,-4.1587,1.2084,1.9316,-2.3995,-3.0000,28.9500,-229.2000,11.7000,0.5500,-7.5500,0.3185,-2.5678,-1.9439,-68.6875,49.0000,16.7500,319.1250,54.6875,175.5000,0
1776971766.478,9.2464,1.7286,-1.3216,0.9126,0.0706,-0.8759,-79.8000,-0.1500,-24.1500,8.4515,-3.2896,-3.8451,1.0259,1.9934,-2.4107,-4.9500,29.2500,-228.3000,11.5400,0.7600,-7.5400,0.2738,-2.6616,-1.9788,-68.6875,49.0000,16.7500,319.1250,54.6875,175.5000,0
1776971766.482,9.1339,1.8076,-1.2689,0.9126,0.0706,-0.8759,-80.2500,0.9000,-26.7000,8.2361,-3.6009,-3.7373,0.8823,2.0640,-2.4237,-5.2500,28.9500,-228.3000,11.5400,0.7600,-7.5400,0.2738,-2.6616,-1.9788,-68.6875,49.0000,16.7500,319.8125,53.2500,177.0000,0
1776971766.487,9.1339,1.8076,-1.2689,0.8258,0.0434,-0.7962,-80.2500,0.9000,-26.7000,8.2361,-3.6009,-3.7373,0.8823,2.0640,-2.4237,-5.2500,28.9500,-228.7500,11.3700,0.9300,-7.4700,0.2618,-2.7663,-1.9853,-70.0625,37.6875,47.0000,319.8125,53.2500,177.0000,0
1776971766.493,9.2057,1.7334,-1.1564,0.7378,0.0285,-0.6944,-79.6500,0.3000,-24.0000,8.2217,-3.8355,-3.8259,0.7608,2.1442,-2.4339,-5.2500,29.4000,-228.7500,11.3700,0.9300,-7.4700,0.2618,-2.7663,-1.9853,-70.0625,37.6875,47.0000,320.5000,51.6875,178.3750,0
1776971766.498,9.2057,1.7334,-1.1564,0.7378,0.0285,-0.6944,-79.6500,0.3000,-24.0000,8.2217,-3.8355,-3.8259,0.7608,2.1442,-2.4339,-5.2500,29.4000,-228.7500,10.6800,1.1500,-7.2200,0.2760,-2.8514,-1.9809,-70.0625,37.6875,47.0000,320.5000,51.6875,178.3750,0
1776971766.503,9.1626,1.8675,-1.2019,0.6837,0.0088,-0.5769,-79.6500,0.3000,-24.0000,8.2552,-3.8642,-3.6966,0.6813,2.2351,-2.4331,-5.2500,29.4000,-228.7500,10.6800,1.1500,-7.2200,0.2683,-2.9092,-1.9897,-70.0625,37.6875,47.0000,321.2500,50.0625,179.6250,0
1776971766.508,9.1626,1.8675,-1.2019,0.6837,0.0088,-0.5769,-79.6500,0.3000,-24.0000,8.2552,-3.8642,-3.6966,0.6813,2.2351,-2.4331,-5.2500,29.4000,-228.7500,10.3100,1.2300,-7.1400,0.2683,-2.9092,-1.9897,-70.0625,37.6875,47.0000,322.0625,48.4375,-179.1875,0
1776971766.518,9.0980,1.8747,-1.2019,0.6478,-0.0072,-0.4594,-79.5000,0.4500,-26.1000,8.2887,-3.6105,-3.7565,0.6238,2.3486,-2.4488,-7.2000,29.5500,-227.5500,10.0100,1.3500,-7.1400,0.2400,-2.9223,-2.0060,-70.0625,37.6875,47.0000,323.0000,46.8125,-178.1250,0
1776971766.528,8.9902,1.8340,-1.2306,0.6174,-0.0120,-0.3523,-79.5000,0.4500,-26.1000,8.4060,-3.4357,-3.5554,0.5828,2.4714,-2.4928,-7.9500,30.0000,-226.5000,9.7200,1.4000,-7.1400,0.2225,-2.9060,-1.9951,-70.0625,37.6875,47.0000,323.0000,46.8125,-178.1250,0
1776971766.532,8.9447,1.8914,-1.1995,0.5708,-0.0072,-0.2459,-79.8000,0.4500,-27.1500,8.6694,-3.1125,-3.1939,0.5580,2.6092,-2.5274,-9.1500,30.1500,-225.6000,9.7200,1.4000,-7.1400,0.2225,-2.9060,-1.9951,-70.0625,37.6875,47.0000,323.0000,46.8125,-178.1250,0
1776971766.538,8.9447,1.8914,-1.1995,0.5708,-0.0072,-0.2459,-79.8000,0.4500,-27.1500,8.6694,-3.1125,-3.1939,0.5580,2.6092,-2.5274,-9.1500,30.1500,-225.6000,8.7800,1.4100,-6.8100,0.2389,-2.8591,-1.9482,-50.0000,27.0000,54.0625,323.8750,45.1875,-177.1875,0
1776971766.542,8.9615,1.6735,-1.2785,0.5076,0.0163,-0.1559,-79.8000,0.4500,-27.1500,8.9759,-2.8299,-2.6815,0.5622,2.7512,-2.5810,-10.9500,31.2000,-224.2500,8.7800,1.4100,-6.8100,0.2389,-2.8591,-1.9482,-50.0000,27.0000,54.0625,323.8750,45.1875,-177.1875,0
1776971766.548,8.9615,1.6735,-1.2785,0.5076,0.0163,-0.1559,-78.7500,1.3500,-25.6500,8.9759,-2.8299,-2.6815,0.5622,2.7512,-2.5810,-10.9500,31.2000,-224.2500,8.3400,1.4900,-6.5600,0.2847,-2.7620,-1.8599,-50.0000,27.0000,54.0625,317.3750,43.6250,-176.4375,0
1776971766.556,8.8897,1.5538,-1.2091,0.4258,0.0525,-0.0706,-80.5500,1.3500,-24.9000,9.1554,-2.7078,-2.0542,0.5337,2.8514,-2.6145,-11.7000,31.9500,-223.8000,8.4900,1.4400,-6.9200,0.3414,-2.6027,-1.7366,-50.0000,27.0000,54.0625,316.3750,42.1250,-175.8125,0
1776971766.561,8.7939,1.4006,-1.1444,0.3277,0.1005,0.0080,-80.5500,1.3500,-24.9000,9.2584,-2.4828,-1.3791,0.5292,2.9084,-2.6265,-11.7000,31.9500,-223.8000,8.4900,1.4400,-6.9200,0.3414,-2.6027,-1.7366,-50.0000,27.0000,54.0625,315.4375,40.6875,-175.3750,0
1776971766.568,8.5449,1.3384,-1.0127,0.3277,0.1005,0.0080,-80.5500,0.1500,-25.3500,9.5241,-1.9273,-0.7278,0.6051,2.9689,-2.6295,-11.7000,31.9500,-223.8000,10.1400,1.5100,-8.3600,0.3894,-2.4151,-1.6188,-50.0000,27.0000,54.0625,314.5625,39.4375,-175.0000,0
1776971766.578,8.1594,1.5347,-0.7853,0.2073,0.1668,0.0663,-79.5000,1.3500,-25.6500,9.5122,-1.4988,-0.7183,0.6955,3.0361,-2.5628,-12.4500,35.4000,-220.6500,11.4000,1.5900,-9.3600,0.4265,-2.2187,-1.5010,-50.0000,27.0000,54.0625,314.5625,39.4375,-175.0000,0
1776971766.583,8.1594,1.5347,-0.7853,0.0626,0.2276,0.1351,-79.5000,1.3500,-25.6500,9.5122,-1.4988,-0.7183,0.6955,3.0361,-2.5628,-11.7000,36.1500,-219.1500,11.4000,1.5900,-9.3600,0.4265,-2.2187,-1.5010,-50.0000,27.0000,54.0625,313.7500,38.1875,-174.6875,0
1776971766.588,7.9344,1.6831,-0.4860,0.0626,0.2276,0.1351,-80.1000,1.5000,-26.5500,10.7667,-1.5586,-0.2466,0.8292,3.0872,-2.4810,-11.7000,36.1500,-219.1500,12.9500,1.4600,-10.3400,0.4527,-2.1304,-1.3984,-43.0000,27.0000,46.1875,313.7500,38.1875,-174.6875,0
1776971766.593,7.9344,1.6831,-0.4860,-0.0850,0.2510,0.2102,-80.1000,1.5000,-26.5500,10.7667,-1.5586,-0.2466,0.8292,3.0872,-2.4810,-12.6000,40.0500,-220.5000,12.9500,1.4600,-10.3400,0.4527,-2.1304,-1.3984,-43.0000,27.0000,46.1875,313.0000,36.8750,-174.5000,0
1776971766.598,7.7931,2.1668,-0.2586,-0.0850,0.2510,0.2102,-80.1000,1.5000,-26.5500,11.7100,-1.5179,0.0120,0.8532,3.0502,-2.3784,-12.6000,40.0500,-220.5000,13.9800,0.6800,-10.9000,0.4734,-2.2046,-1.3221,-43.0000,27.0000,46.1875,313.0000,36.8750,-174.5000,0
1776971766.602,7.7931,2.1668,-0.2586,-0.1940,0.2649,0.2827,-80.1000,1.5000,-26.5500,11.7100,-1.5179,0.0120,0.8532,3.0502,-2.3784,-13.0500,43.0500,-219.4500,13.9800,0.6800,-10.9000,0.4374,-2.4555,-1.2926,-43.0000,27.0000,46.1875,312.2500,35.4375,-174.3125,0
1776971766.608,7.8338,2.3559,-0.1317,-0.2609,0.2795,0.3416,-78.7500,-0.4500,-27.1500,11.9088,-1.6137,0.5052,0.7839,2.9116,-2.2940,-13.0500,43.0500,-219.4500,13.4500,-0.0500,-10.2600,0.4374,-2.4555,-1.2926,-43.0000,27.0000,46.1875,311.5625,33.9375,-174.0625,0
1776971766.618,7.8889,2.5762,-0.1341,-0.2603,0.2710,0.3725,-78.7500,-0.4500,-27.1500,11.9806,-1.5730,0.7207,0.6305,2.6891,-2.2295,-13.2000,46.2000,-219.6000,12.9400,-0.5100,-9.5000,0.2847,-2.6704,-1.2905,-43.0000,27.0000,46.1875,311.5625,33.9375,-174.0625,0
1776971766.628,8.0302,3.0382,-0.2682,-0.1695,0.2936,0.3920,-78.4500,-0.3000,-25.8000,11.5401,-1.4964,0.5698,0.3685,2.3553,-2.1272,-13.2000,46.2000,-219.6000,12.2800,-0.6100,-8.6200,0.0513,-2.7936,-1.3112,-43.0000,27.0000,46.1875,310.8750,32.3125,-173.7500,0
1776971766.632,8.0302,3.0382,-0.2682,-0.1695,0.2936,0.3920,-78.4500,-0.3000,-25.8000,11.5401,-1.4964,0.5698,0.3685,2.3553,-2.1272,-10.0500,54.0000,-221.1000,12.2800,-0.6100,-8.6200,0.0513,-2.7936,-1.3112,-43.0000,27.0000,46.1875,310.8750,32.3125,-173.7500,0
1776971766.637,8.2289,3.6536,-0.4956,-0.0192,0.2926,0.3858,-80.5500,0.9000,-25.6500,12.0859,-1.6759,0.7614,0.1476,2.2098,-2.0059,-10.0500,54.0000,-221.1000,11.4300,-0.5100,-7.1700,-0.2225,-2.7860,-1.3003,-52.0625,27.0625,50.0625,310.2500,30.6875,-173.2500,0
1776971766.642,8.2289,3.6536,-0.4956,-0.0192,0.2926,0.3858,-80.5500,0.9000,-25.6500,12.0859,-1.6759,0.7614,0.1476,2.2098,-2.0059,-8.2500,57.3000,-221.8500,11.4300,-0.5100,-7.1700,-0.2225,-2.7860,-1.3003,-52.0625,27.0625,50.0625,310.2500,30.6875,-173.2500,0
1776971766.647,8.3366,4.2880,-0.8308,0.1490,0.2947,0.3592,-80.5500,0.4500,-26.4000,11.6215,-1.9537,0.9816,-0.0938,2.0701,-1.8676,-8.2500,57.3000,-221.8500,11.0600,-0.6800,-6.6700,-0.4254,-2.6878,-1.2435,-52.0625,27.0625,50.0625,309.7500,29.1250,-172.7500,0
1776971766.655,8.3390,4.9775,-0.9529,0.1490,0.2947,0.3592,-80.4000,0.3000,-27.7500,10.5752,-2.2075,1.6975,-0.3738,2.0459,-1.7472,-6.4500,61.8000,-221.8500,10.6300,-1.3200,-6.2100,-0.5443,-2.5395,-1.1443,-52.0625,27.0625,50.0625,309.2500,27.6250,-172.1875,0
1776971766.660,8.3390,4.9775,-0.9529,0.2332,0.3166,0.3211,-80.4000,0.3000,-27.7500,10.5752,-2.2075,1.6975,-0.3738,2.0459,-1.7472,-7.0500,63.9000,-221.7000,10.6300,-1.3200,-6.2100,-0.5443,-2.5395,-1.1443,-52.0625,27.0625,50.0625,308.8750,26.2500,-171.6250,0
1776971766.668,8.2073,5.6192,-0.9936,0.2222,0.3453,0.2622,-81.6000,-1.0500,-25.8000,9.5600,-1.8364,1.7238,-0.6773,2.2290,-1.6377,-7.0500,63.9000,-221.7000,11.0000,-3.1300,-5.8200,-0.6545,-2.3278,-1.0156,-52.0625,27.0625,50.0625,308.5625,25.0625,-171.0000,0
1776971766.678,8.0685,6.3135,-0.9218,0.1772,0.4000,0.2004,-80.8500,-1.0500,-25.5000,9.7061,-1.3934,1.6496,-1.0027,2.2639,-1.4613,-3.9000,67.8000,-222.9000,11.0100,-3.9200,-5.4800,-0.8596,-2.1315,-0.8705,-52.0625,27.0625,50.0625,308.5625,25.0625,-171.0000,0
1776971766.683,8.0685,6.3135,-0.9218,0.1772,0.4000,0.2004,-80.8500,-1.0500,-25.5000,9.7061,-1.3934,1.6496,-1.0027,2.2639,-1.4613,-3.9000,67.8000,-222.9000,11.0100,-3.9200,-5.4800,-0.8596,-2.1315,-0.8705,-44.5625,20.6875,61.2500,308.4375,23.8750,-170.3125,0
1776971766.688,8.0972,6.7540,-0.5626,0.1013,0.4626,0.1391,-80.8500,-1.0500,-25.5000,10.1634,-1.4461,2.1404,-1.3475,2.2516,-1.2542,-3.9000,67.8000,-222.9000,10.7100,-4.6400,-4.8600,-1.1421,-2.0082,-0.6665,-44.5625,20.6875,61.2500,308.4375,23.8750,-170.3125,0
1776971766.693,8.0972,6.7540,-0.5626,0.1013,0.4626,0.1391,-80.8500,-1.0500,-25.5000,10.1634,-1.4461,2.1404,-1.3475,2.2516,-1.2542,-3.9000,69.3000,-218.7000,10.7100,-4.6400,-4.8600,-1.1421,-2.0082,-0.6665,-44.5625,20.6875,61.2500,308.4375,22.8125,-169.5000,0
1776971766.698,7.7596,6.8738,-0.1748,0.0149,0.5297,0.0821,-81.1500,0.0000,-25.5000,10.6542,-1.9273,2.5809,-1.7102,2.0161,-1.0112,-3.9000,69.3000,-218.7000,9.4800,-6.2800,-3.1900,-1.4224,-1.9133,-0.4080,-44.5625,20.6875,61.2500,308.4375,22.8125,-169.5000,0
1776971766.703,7.5561,6.7900,-0.0646,0.0149,0.5297,0.0821,-81.1500,0.0000,-25.5000,10.6542,-1.9273,2.5809,-1.7102,2.0161,-1.0112,-4.5000,72.1500,-219.6000,9.4800,-6.2800,-3.1900,-1.7115,-1.7988,-0.1069,-44.5625,20.6875,61.2500,308.6875,21.8125,-168.6250,0
1776971766.709,7.5561,6.7900,-0.0646,0.0016,0.5897,0.0229,-81.1500,0.0000,-25.5000,11.4371,-1.8986,3.3399,-1.8892,1.7946,-0.6582,-3.6000,72.0000,-219.0000,8.8600,-7.0300,-2.4400,-1.7115,-1.7988,-0.1069,-44.5625,20.6875,61.2500,309.1250,20.9375,-167.6250,0
1776971766.718,7.7620,6.6200,-0.2466,0.0107,0.6400,-0.0330,-80.1000,-1.5000,-25.0500,9.9982,-0.5435,3.6081,-2.1831,1.5220,-0.3797,-3.6000,72.0000,-219.0000,8.5300,-7.4700,-1.5600,-1.9973,-1.6253,0.2487,-44.5625,20.6875,61.2500,309.8125,20.2500,-166.6250,0
1776971766.728,8.0637,6.5577,-0.4357,-0.0117,0.6038,-0.0741,-81.0000,-0.4500,-24.1500,10.3669,0.3783,4.3431,-2.3715,1.1900,-0.1623,-2.7000,71.4000,-219.1500,8.2900,-7.3900,-0.7700,-2.2144,-1.3963,0.6774,-44.5625,20.6875,61.2500,309.8125,20.2500,-166.6250,0
1776971766.733,8.2361,6.3518,-0.5531,-0.0450,0.5415,-0.1180,-81.0000,-0.4500,-24.1500,10.8840,0.7757,3.6631,-2.3974,0.7005,0.0837,-2.7000,71.4000,-219.1500,8.2900,-7.3900,-0.7700,-2.2144,-1.3963,0.6774,-44.5625,20.6875,61.2500,310.7500,19.8125,-165.6250,0
1776971766.738,8.2361,6.3518,-0.5531,-0.0450,0.5415,-0.1180,-81.6000,-0.7500,-25.0500,10.8840,0.7757,3.6631,-2.3974,0.7005,0.0837,-2.7000,71.4000,-219.1500,8.1700,-7.0700,0.7100,-2.2689,-1.1246,1.1639,-34.3750,13.8750,60.6875,310.7500,19.8125,-165.6250,0
1776971766.743,8.2983,6.3734,-0.6656,-0.0813,0.5220,-0.1500,-81.6000,-0.7500,-25.0500,10.2783,1.0678,4.6735,-2.9031,1.1914,0.1039,-2.7000,71.4000,-219.1500,8.1700,-7.0700,0.7100,-2.2689,-1.1246,1.1639,-34.3750,13.8750,60.6875,311.9375,19.6250,-164.7500,0
1776971766.748,8.2983,6.3734,-0.6656,-0.0813,0.5220,-0.1500,-81.6000,-1.5000,-26.2500,10.2783,1.0678,4.6735,-2.9031,1.1914,0.1039,-2.7000,71.4000,-219.1500,8.4500,-6.9400,1.1300,-2.2220,-0.8279,1.6275,-34.3750,13.8750,60.6875,311.9375,19.6250,-164.7500,0
1776971766.757,8.2624,6.0597,-0.7015,-0.0831,0.4866,-0.1889,-81.7500,-1.6500,-24.9000,10.0892,1.8866,1.3575,-2.7789,0.6323,0.2406,1.8000,79.8000,-218.7000,8.6800,-6.4400,1.4100,-2.1358,-0.5323,2.0093,-34.3750,13.8750,60.6875,313.3125,19.6250,-164.0000,0
1776971766.764,8.3414,5.6814,-0.8021,-0.0440,0.4666,-0.1927,-81.7500,-1.6500,-24.9000,10.3717,2.4612,0.4405,-2.4075,0.4343,0.1916,0.0000,86.2500,-218.2500,8.6800,-6.4400,1.4100,-2.0093,-0.2531,2.3115,-34.3750,13.8750,60.6875,314.8125,19.8750,-163.3125,0
1776971766.769,8.3414,5.6814,-0.8021,-0.0440,0.4666,-0.1927,-81.7500,-0.4500,-26.4000,10.3717,2.4612,0.4405,-2.4075,0.4343,0.1916,-0.9000,89.4000,-217.8000,8.5100,-4.8700,1.3500,-2.0093,-0.2531,2.3115,-34.3750,13.8750,60.6875,316.4375,20.2500,-162.8125,0
1776971766.778,8.6766,5.3702,-0.8619,0.0679,0.4330,-0.1759,-81.7500,-0.4500,-26.4000,10.8721,2.4756,0.0239,-2.4259,0.0544,0.2073,-1.5000,92.4000,-218.5500,8.5000,-4.0700,0.9000,-1.8097,0.0098,2.5842,-34.3750,13.8750,60.6875,316.4375,20.2500,-162.8125,0
1776971766.783,8.6311,4.9081,-0.8763,0.1279,0.3331,-0.1204,-81.7500,-0.4500,-26.4000,11.4108,2.0638,-0.6321,-2.1922,-0.4996,0.3222,-1.5000,92.4000,-218.5500,8.5000,-4.0700,0.9000,-1.8097,0.0098,2.5842,-34.3750,13.8750,60.6875,316.4375,20.2500,-162.8125,0
1776971766.788,8.6311,4.9081,-0.8763,0.1279,0.3331,-0.1204,-82.9500,0.1500,-25.3500,11.4108,2.0638,-0.6321,-2.1922,-0.4996,0.3222,-1.5000,92.4000,-218.5500,8.6500,-3.3500,0.2500,-1.6002,0.3262,2.8056,-28.1875,7.8750,60.0625,318.1250,20.8750,-162.4375,0
1776971766.793,8.3749,4.6208,-0.8882,0.1601,0.3126,-0.0338,-82.9500,0.1500,-25.3500,10.6303,1.6520,-0.8835,-2.0201,-0.9864,0.4511,-1.5000,92.4000,-218.5500,8.6500,-3.3500,0.2500,-1.6002,0.3262,2.8056,-28.1875,7.8750,60.0625,318.1250,20.8750,-162.4375,0
1776971766.798,8.3749,4.6208,-0.8882,0.1601,0.3126,-0.0338,-82.9500,0.1500,-25.3500,10.6303,1.6520,-0.8835,-2.0201,-0.9864,0.4511,-1.5000,92.4000,-218.5500,9.1300,-1.7900,-1.2500,-1.4170,0.5018,2.9332,-28.1875,7.8750,60.0625,319.8125,21.6875,-162.2500,0
1776971766.803,8.2241,4.3383,-0.9385,0.1956,0.3360,0.0839,-82.9500,0.1500,-25.3500,10.4555,1.5969,-1.6352,-1.6915,-1.3571,0.5633,-1.5000,92.4000,-218.5500,9.1300,-1.7900,-1.2500,-1.2621,0.8301,2.9431,-28.1875,7.8750,60.0625,321.5625,22.6250,-162.1250,0
1776971766.809,7.8841,4.3622,-1.1205,0.1956,0.3360,0.0839,-82.9500,-1.3500,-24.6000,10.4555,1.5969,-1.6352,-1.6915,-1.3571,0.5633,-6.3000,97.9500,-223.8000,9.6100,-0.8500,-2.0200,-1.2621,0.8301,2.9431,-28.1875,7.8750,60.0625,323.1875,23.6250,-162.0625,0
1776971766.818,7.8530,4.0797,-0.9864,0.2094,0.3419,0.2172,-83.1000,-1.0500,-25.0500,9.7875,1.5802,-1.9034,-1.2905,-1.2987,0.6539,-8.1000,102.1500,-226.6500,9.9500,0.0600,-2.5400,-1.1421,1.0636,2.8503,-28.1875,7.8750,60.0625,324.6875,24.6875,-162.0625,0
1776971766.828,7.7261,3.6871,-1.2761,0.1895,0.3491,0.3914,-82.5000,-1.6500,-24.6000,9.3278,1.8938,-2.2194,-1.1072,-1.3243,0.7805,-11.8500,104.5500,-227.2500,10.3100,0.7600,-3.0200,-0.9687,1.1454,2.6845,-28.1875,7.8750,60.0625,324.6875,24.6875,-162.0625,0
1776971766.833,7.7261,3.6871,-1.2761,0.1687,0.3688,0.5793,-82.5000,-1.6500,-24.6000,9.4810,2.0734,-2.0638,-0.9566,-1.4051,0.8918,-11.8500,104.5500,-227.2500,10.3100,0.7600,-3.0200,-0.9687,1.1454,2.6845,-27.2500,5.7500,59.1875,326.0000,25.7500,-162.1875,0
1776971766.838,7.2449,3.5793,-1.4892,0.1964,0.3752,0.7466,-83.1000,-1.5000,-23.7000,9.4810,2.0734,-2.0638,-0.9566,-1.4051,0.8918,-14.1000,108.0000,-230.1000,10.8600,1.9100,-3.8200,-0.7527,1.1465,2.4227,-27.2500,5.7500,59.1875,326.0000,25.7500,-162.1875,0
1776971766.843,7.2449,3.5793,-1.4892,0.1964,0.3752,0.7466,-83.1000,-1.5000,-23.7000,9.3805,2.2889,-1.9585,-0.6526,-1.6505,1.0930,-14.1000,108.0000,-230.1000,10.8600,1.9100,-3.8200,-0.7527,1.1465,2.4227,-27.2500,5.7500,59.1875,327.1250,26.6875,-162.3125,0
1776971766.849,7.0485,3.2896,-1.4964,0.1737,0.3952,0.9278,-82.5000,-1.6500,-25.6500,9.6295,3.0789,-1.1684,-0.4836,-1.6976,1.2476,-14.1000,108.0000,-230.1000,10.8200,2.2900,-3.8500,-0.4920,1.1366,2.0846,-27.2500,5.7500,59.1875,328.0000,27.5000,-162.5625,0
1776971766.858,7.8985,3.1963,-1.2977,0.1649,0.4583,1.1277,-83.1000,-3.0000,-24.0000,9.2919,4.6424,0.1915,0.3288,-1.5969,1.2305,-14.1000,108.0000,-230.1000,10.4900,2.7300,-3.8300,-0.2083,1.0756,1.6755,-27.2500,5.7500,59.1875,328.6250,28.1875,-163.0000,0
1776971766.868,8.5281,3.2202,-1.0965,0.1167,0.5518,1.3560,-83.1000,-3.0000,-24.0000,6.5242,7.4101,3.4333,1.4970,-1.2897,0.9427,-16.6500,114.0000,-236.8500,4.2600,14.2200,-9.3100,0.2367,0.8083,1.2752,-27.2500,5.7500,59.1875,328.6250,28.1875,-163.0000,0
1776971766.878,10.3334,2.8874,-0.1508,-0.0655,0.7645,1.5679,-83.4000,-2.7000,-23.2500,4.8674,10.8218,7.2880,2.2372,-0.5580,0.2401,-15.7500,121.9500,-240.1500,-13.9500,9.6400,-18.8300,2.0300,1.1356,1.9995,-27.2500,5.7500,59.1875,329.3750,29.0625,-164.6250,0
1776971766.883,10.3334,2.8874,-0.1508,-0.0655,0.7645,1.5679,-83.4000,-2.7000,-23.2500,4.8674,10.8218,7.2880,2.2372,-0.5580,0.2401,-15.7500,121.9500,-240.1500,-13.9500,9.6400,-18.8300,2.0300,1.1356,1.9995,-27.2500,5.7500,59.1875,329.3750,29.0625,-164.6250,0
1776971766.888,12.7802,2.1931,0.7230,-0.3262,0.8647,1.8298,-83.4000,-2.7000,-23.2500,11.6933,15.2822,5.2433,2.5554,0.5039,-0.6286,-16.5000,127.6500,-242.4000,-2.1200,13.0500,-39.1200,2.5929,0.6938,2.3595,-29.6875,5.0000,60.5000,330.2500,29.7500,-166.6875,0
1776971766.893,12.7802,2.1931,0.7230,-0.3262,0.8647,1.8298,-83.4000,-2.7000,-23.2500,11.6933,15.2822,5.2433,2.5554,0.5039,-0.6286,-16.5000,127.6500,-242.4000,-2.1200,13.0500,-39.1200,2.5929,0.6938,2.3595,-29.6875,5.0000,60.5000,330.2500,29.7500,-166.6875,0
1776971766.898,15.2654,0.6560,1.1396,-0.4005,0.8063,2.0587,-83.4000,-5.4000,-22.9500,17.3388,11.2001,-3.7900,2.3033,1.0547,-0.5143,-14.2500,133.9500,-243.4500,3.8400,9.7600,-14.4800,1.9602,0.3458,1.2468,-29.6875,5.0000,60.5000,330.6250,30.1250,-168.1875,0
1776971766.903,15.2654,0.6560,1.1396,-0.4005,0.8063,2.0587,-83.4000,-5.4000,-22.9500,17.3388,11.2001,-3.7900,2.3033,1.0547,-0.5143,-14.2500,133.9500,-243.4500,3.8400,9.7600,-14.4800,1.0036,1.7846,-0.0807,-29.6875,5.0000,60.5000,330.3125,31.0625,-168.5625,0
1776971766.909,19.4266,0.5148,-3.5291,0.6219,0.6646,2.3470,-83.1000,-6.1500,-23.2500,21.1480,0.8523,-9.0644,-0.2465,1.4424,-0.0941,-14.2500,133.9500,-243.4500,6.6300,-1.5900,-10.4000,1.0036,1.7846,-0.0807,-29.6875,5.0000,60.5000,330.3125,33.2500,-170.1250,0
1776971766.918,19.5487,3.6583,-6.5410,1.2281,0.1106,2.3222,-83.2500,-8.4000,-23.1000,22.1176,-3.7589,-2.7988,0.2164,0.6813,0.4644,-15.3000,143.7000,-247.6500,23.4600,-14.1000,-20.3300,2.5525,3.8255,1.0101,-29.6875,5.0000,60.5000,330.3125,33.2500,-170.1250,0
1776971766.928,13.7571,6.2106,-1.5778,0.1442,-0.1148,1.7059,-83.2500,-9.4500,-23.4000,17.7075,-3.7206,-0.4357,2.0893,-0.3403,1.1804,-14.8500,147.3000,-247.2000,22.1600,-15.0900,-16.0500,2.8547,2.0628,1.0548,-29.6875,5.0000,60.5000,330.3125,34.5000,-171.9375,0
1776971766.933,10.6063,4.0007,3.5434,0.1442,-0.1148,1.7059,-83.2500,-9.4500,-23.4000,17.7075,-3.7206,-0.4357,2.0893,-0.3403,1.1804,-14.8500,147.3000,-247.2000,22.1600,-15.0900,-16.0500,2.8547,2.0628,1.0548,-29.6875,5.0000,60.5000,330.3125,34.5000,-171.9375,0
1776971766.938,10.6063,4.0007,3.5434,-0.5017,0.5921,1.1458,-83.1000,-10.5000,-22.2000,10.5034,-2.7438,3.4548,2.4349,-0.6318,1.7925,-11.8500,146.2500,-248.5500,9.2600,3.7300,-10.0200,1.2075,1.2174,0.9632,-30.0625,9.5625,59.0000,330.6250,35.2500,-172.9375,0
1776971766.943,8.8322,1.6424,3.9289,-0.5017,0.5921,1.1458,-83.1000,-10.5000,-22.2000,10.5034,-2.7438,3.4548,2.4349,-0.6318,1.7925,-11.8500,146.2500,-248.5500,9.2600,3.7300,-10.0200,1.2075,1.2174,0.9632,-30.0625,9.5625,59.0000,330.6250,35.2500,-172.9375,0
1776971766.948,8.8322,1.6424,3.9289,-0.1615,0.8247,0.9102,-83.4000,-10.9500,-21.7500,5.9783,-0.5124,6.8738,2.6324,-0.9614,1.5791,-7.2000,142.5000,-250.0500,10.4400,-1.2800,-11.1800,0.2127,0.7429,0.3676,-30.0625,9.5625,59.0000,330.7500,35.6250,-173.1250,0
1776971766.956,7.5800,-0.5028,3.7685,0.2625,0.6305,0.8402,-83.4000,-10.9500,-21.7500,5.7772,1.6879,4.9775,2.1162,-0.9880,1.3443,-4.6500,139.8000,-249.0000,7.1000,-4.3900,-8.8900,0.3851,0.9065,0.1004,-30.0625,9.5625,59.0000,330.6875,36.1875,-173.3750,0
1776971766.961,7.5800,-0.5028,3.7685,0.2625,0.6305,0.8402,-83.4000,-10.9500,-21.7500,5.7772,1.6879,4.9775,2.1162,-0.9880,1.3443,-4.6500,139.8000,-249.0000,7.1000,-4.3900,-8.8900,0.3851,0.9065,0.1004,-30.0625,9.5625,59.0000,330.6875,36.5000,-173.3125,0
1776971766.969,6.1938,-1.9920,2.1524,0.6891,0.6222,0.8681,-83.7000,-13.8000,-19.8000,7.4124,-0.3950,6.3015,1.0291,-0.9222,1.3723,-4.6500,139.8000,-249.0000,5.6800,1.8900,-7.4400,-0.0502,0.6316,-0.0665,-30.0625,9.5625,59.0000,330.5625,37.0625,-173.1875,0
1776971766.978,6.8761,-2.5690,-0.1604,0.8900,0.6718,0.8831,-83.7000,-13.8000,-19.8000,7.4268,-3.1268,7.0653,0.7509,-0.7631,1.3139,3.7500,129.4500,-241.9500,6.0600,2.9700,-6.3200,-0.0284,1.0025,-0.0873,-30.0625,9.5625,59.0000,330.5625,37.0625,-173.1875,0
1776971766.983,7.6399,-2.4852,-2.5762,0.6608,0.6965,0.8487,-83.7000,-13.8000,-19.8000,7.4268,-3.1268,7.0653,0.7509,-0.7631,1.3139,3.7500,129.4500,-241.9500,6.0600,2.9700,-6.3200,-0.0284,1.0025,-0.0873,-30.0625,9.5625,59.0000,330.5625,37.4375,-173.3125,0
1776971766.988,7.6399,-2.4852,-2.5762,0.6608,0.6965,0.8487,-83.1000,-12.9000,-19.5000,7.9918,-4.9033,6.9887,0.2830,-0.6011,1.2239,5.2500,120.4500,-240.1500,6.3100,2.5200,-6.4700,0.2738,0.6959,0.0305,-33.6875,13.0625,55.5625,330.5625,37.4375,-173.3125,0
1776971766.993,9.0764,-1.5083,-4.4796,0.0448,0.5662,0.8037,-83.1000,-12.9000,-19.5000,9.2201,-4.3383,5.2433,-0.1023,-0.4663,1.0914,5.2500,120.4500,-240.1500,6.3100,2.5200,-6.4700,0.2738,0.6959,0.0305,-33.6875,13.0625,55.5625,330.5625,37.3125,-173.6875,0
1776971766.998,9.0764,-1.5083,-4.4796,0.0448,0.5662,0.8037,-82.9500,-15.7500,-17.1000,9.2201,-4.3383,5.2433,-0.1023,-0.4663,1.0914,8.1000,110.4000,-236.7000,5.6200,1.3500,-7.9300,0.4843,-0.2280,0.2302,-33.6875,13.0625,55.5625,330.5625,37.3125,-173.6875,0
1776971767.003,9.8019,-0.7422,-4.3000,-0.8079,0.3392,0.7679,-82.9500,-15.7500,-17.1000,9.8114,-2.9975,2.9161,-0.1772,-0.5828,0.9859,9.0000,97.8000,-232.2000,5.6200,1.3500,-7.9300,0.3665,-0.5083,0.3829,-33.6875,13.0625,55.5625,330.7500,37.0625,-174.0625,0
1776971767.009,9.8019,-0.7422,-4.3000,-0.8079,0.3392,0.7679,-82.9500,-14.5500,-18.3000,9.8114,-2.9975,2.9161,-0.1772,-0.5828,0.9859,9.0000,97.8000,-232.2000,4.7500,-0.4900,-8.8100,0.3665,-0.5083,0.3829,-33.6875,13.0625,55.5625,330.8750,37.0625,-174.1875,0
1776971767.018,9.9168,-0.4645,-1.9345,-1.5034,0.1889,0.7520,-83.4000,-14.8500,-19.9500,9.9024,-1.9465,-0.2274,-0.7416,-0.7474,0.8796,9.7500,89.2500,-228.3000,5.5400,0.2000,-8.1700,0.0251,-0.0295,0.2673,-33.6875,13.0625,55.5625,331.0000,37.3750,-174.3125,0
1776971767.029,9.9527,-0.1460,0.8619,-1.8157,0.1692,0.7141,-84.0000,-15.7500,-19.3500,10.1610,-0.1006,-1.9058,-0.8196,-0.3920,0.6755,9.7500,89.2500,-228.3000,6.3100,0.4000,-8.1300,-0.0065,0.5072,0.2454,-33.6875,13.0625,55.5625,331.0000,37.3750,-174.3125,0
1776971767.033,9.5529,0.1508,3.0574,-1.7970,0.1908,0.6947,-84.0000,-15.7500,-19.3500,10.0652,0.9122,-2.5091,-0.6331,-0.1324,0.5231,7.5000,73.0500,-225.7500,6.3100,0.4000,-8.1300,-0.0065,0.5072,0.2454,-33.6875,13.0625,55.5625,331.0625,37.6875,-174.4375,0
1776971767.038,9.5529,0.1508,3.0574,-1.7970,0.1908,0.6947,-82.5000,-15.0000,-18.6000,10.0652,0.9122,-2.5091,-0.6331,-0.1324,0.5231,7.5000,73.0500,-225.7500,6.2000,-0.3300,-8.5000,0.1505,0.5258,0.2345,-35.0625,13.5000,54.7500,331.0625,37.6875,-174.4375,0
1776971767.043,9.3206,-0.0670,4.1132,-1.5370,0.2196,0.6704,-82.5000,-15.0000,-18.6000,9.3158,0.4046,-2.4828,-0.2832,0.0330,0.3011,2.7000,72.9000,-224.5500,6.2000,-0.3300,-8.5000,0.1505,0.5258,0.2345,-35.0625,13.5000,54.7500,331.1250,37.8750,-174.6875,0
1776971767.048,9.0453,-0.3256,3.9409,-1.5370,0.2196,0.6704,-82.5000,-15.0000,-18.6000,9.3158,0.4046,-2.4828,-0.2832,0.0330,0.3011,2.7000,72.9000,-224.5500,6.1100,-0.3900,-8.3100,0.3207,0.4123,0.2073,-35.0625,13.5000,54.7500,331.1250,37.8750,-174.6875,0
1776971767.057,9.0453,-0.3256,3.9409,-1.2454,0.2795,0.6600,-82.5000,-15.0000,-18.6000,8.9232,0.7230,-2.0423,0.1569,0.2880,0.1466,-2.8500,73.8000,-225.1500,6.3100,0.1300,-8.0700,0.5520,0.6970,0.1080,-35.0625,13.5000,54.7500,331.0625,38.3125,-175.0000,0
1776971767.061,8.8107,0.0335,3.0574,-0.9806,0.2811,0.6694,-82.5000,-16.9500,-19.8000,11.0660,0.8763,3.0837,0.3944,0.1791,0.1849,-2.8500,73.8000,-225.1500,6.3100,0.1300,-8.0700,0.5520,0.6970,0.1080,-35.0625,13.5000,54.7500,330.9375,38.8125,-175.3125,0
1776971767.069,9.1315,-0.1269,1.9968,-0.6829,0.2465,0.6803,-82.5000,-16.9500,-19.8000,11.0660,0.8763,3.0837,0.3944,0.1791,0.1849,-9.0000,80.5500,-226.2000,6.9500,0.1800,-7.5400,0.6109,0.9948,0.0044,-35.0625,13.5000,54.7500,330.8125,39.3750,-175.5000,0
1776971767.079,9.2105,-1.0008,1.1349,-0.4511,0.3075,0.6765,-84.1500,-17.1000,-18.7500,8.6407,0.7302,0.5411,0.7850,0.2326,0.1895,-14.2500,87.9000,-226.6500,7.0300,0.2900,-7.4200,0.3665,1.0134,-0.0371,-35.0625,13.5000,54.7500,330.8125,39.3750,-175.5000,0
1776971767.084,9.2105,-1.0008,1.1349,-0.4511,0.3075,0.6765,-84.1500,-17.1000,-18.7500,8.7293,-1.1708,2.6528,1.0443,-0.0616,0.3427,-14.2500,87.9000,-226.6500,7.0300,0.2900,-7.4200,0.3665,1.0134,-0.0371,-35.0625,13.5000,54.7500,330.8125,39.3750,-175.5000,0
1776971767.089,9.5529,-1.4437,0.8236,-0.3741,0.3834,0.6416,-81.3000,-18.4500,-21.1500,8.7293,-1.1708,2.6528,1.0443,-0.0616,0.3427,-14.2500,87.9000,-226.6500,6.9400,0.2000,-7.4400,0.1669,0.6523,-0.0251,-34.3750,13.2500,55.0625,330.7500,39.7500,-175.5625,0
1776971767.094,9.5529,-1.4437,0.8236,-0.3741,0.3834,0.6416,-81.3000,-18.4500,-21.1500,9.6438,-2.4995,3.9552,0.8982,-0.3632,0.5998,-18.7500,102.3000,-231.1500,6.9400,0.2000,-7.4400,0.1669,0.6523,-0.0251,-34.3750,13.2500,55.0625,330.7500,39.7500,-175.5625,0
1776971767.099,9.7181,-1.2522,1.3240,-0.3062,0.4255,0.5833,-82.3500,-17.1000,-21.7500,9.6438,-2.4995,3.9552,0.8982,-0.3632,0.5998,-18.7500,102.3000,-231.1500,6.5800,0.1400,-7.7600,0.1418,0.2018,-0.0044,-34.3750,13.2500,55.0625,330.7500,39.8750,-175.6250,0
1776971767.104,9.7181,-1.2522,1.3240,-0.3062,0.4255,0.5833,-82.3500,-17.1000,-21.7500,9.0477,-3.4141,4.6543,0.5337,-0.2198,0.7767,-17.5500,103.2000,-233.8500,6.5800,0.1400,-7.7600,0.1102,0.0382,-0.0022,-34.3750,13.2500,55.0625,330.6875,39.8750,-175.6875,0
1776971767.109,9.3206,-0.4573,2.4157,-0.2033,0.5151,0.4938,-81.3000,-17.7000,-20.5500,9.9168,-3.5099,4.9680,0.0733,-0.2249,0.9297,-17.5500,103.2000,-233.8500,6.2100,0.2600,-7.7600,0.1102,0.0382,-0.0022,-34.3750,13.2500,55.0625,330.6875,39.9375,-175.6875,0
1776971767.119,9.5193,0.4980,3.0526,-0.1156,0.5476,0.4125,-83.2500,-19.6500,-20.8500,9.9168,-3.5099,4.9680,0.0733,-0.2249,0.9297,-14.7000,104.4000,-232.3500,6.1400,0.3000,-7.6600,0.0807,0.1178,-0.0240,-34.3750,13.2500,55.0625,330.6250,40.0625,-175.7500,0
1776971767.129,9.6582,0.7733,3.0789,-0.0378,0.5057,0.3387,-83.1000,-17.5500,-19.5000,9.2799,-3.5554,3.1699,-0.6792,-0.3925,1.0592,-6.9000,98.5500,-233.2500,6.1200,0.3600,-7.6800,0.0960,0.2029,-0.0295,-34.3750,13.2500,55.0625,330.6250,40.0625,-175.7500,0
1776971767.134,9.6582,0.7733,3.0789,-0.0378,0.5057,0.3387,-83.1000,-17.5500,-19.5000,9.2799,-3.5554,3.1699,-0.6792,-0.3925,1.0592,-3.6000,93.0000,-235.0500,6.1200,0.3600,-7.6800,0.0960,0.2029,-0.0295,-34.3750,13.2500,55.0625,330.5625,40.2500,-175.7500,0
1776971767.139,9.4020,0.5076,3.0718,-0.0080,0.5121,0.2936,-83.1000,-17.5500,-19.5000,9.7707,-2.9473,2.7749,-0.7322,-0.3070,1.0222,-3.6000,93.0000,-235.0500,6.4000,0.4900,-7.5000,0.1156,0.3011,-0.0436,-36.0625,14.8750,52.6875,330.5625,40.2500,-175.7500,0
1776971767.144,9.4020,0.5076,3.0718,-0.0080,0.5121,0.2936,-83.1000,-17.5500,-19.5000,9.7707,-2.9473,2.7749,-0.7322,-0.3070,1.0222,-3.6000,93.0000,-235.0500,6.4000,0.4900,-7.5000,0.1156,0.3011,-0.0436,-36.0625,14.8750,52.6875,330.5000,40.4375,-175.7500,0
1776971767.149,9.4954,-0.0814,2.7916,-0.0304,0.5263,0.2443,-81.7500,-20.4000,-19.3500,9.8928,-2.2170,1.8340,-0.6707,-0.4066,0.9515,-3.6000,93.0000,-235.0500,6.6700,0.4400,-7.2500,0.0698,0.3971,-0.0611,-36.0625,14.8750,52.6875,330.5000,40.4375,-175.7500,0
1776971767.158,9.4379,-0.5339,2.2649,-0.0829,0.4954,0.2132,-81.7500,-20.4000,-19.3500,9.9024,-1.3647,0.9457,-0.7285,-0.3360,0.7674,2.8500,86.5500,-231.4500,6.3800,0.2800,-7.5500,0.0065,0.2400,-0.0011,-36.0625,14.8750,52.6875,330.5000,40.5625,-175.7500,0
1776971767.166,9.7707,-0.9266,1.7238,-0.1588,0.3981,0.1977,-81.7500,-20.4000,-19.3500,9.9024,-1.3647,0.9457,-0.7285,-0.3360,0.7674,4.5000,85.9500,-231.3000,6.3500,0.2600,-7.5600,-0.0295,-0.0305,0.0447,-36.0625,14.8750,52.6875,330.5625,40.5625,-175.7500,0
1776971767.171,9.7707,-0.9266,1.7238,-0.1588,0.3981,0.1977,-82.9500,-18.9000,-20.1000,9.8330,-0.9218,0.4286,-0.6686,-0.2699,0.5465,5.4000,85.5000,-228.3000,6.3500,0.2600,-7.5600,-0.0295,-0.0305,0.0447,-36.0625,14.8750,52.6875,330.6250,40.5625,-175.8125,0
1776971767.179,9.7420,-0.5890,0.8978,-0.2843,0.3981,0.2012,-83.4000,-19.9500,-19.5000,9.6750,-1.1109,0.4693,-0.5377,-0.1021,0.3168,5.4000,85.5000,-228.3000,6.3300,0.2100,-7.6300,-0.0185,-0.0404,0.0644,-36.0625,14.8750,52.6875,330.6250,40.5625,-175.8125,0
1776971767.184,9.6893,-0.3974,0.3687,-0.4354,0.3192,0.2121,-83.4000,-19.9500,-19.5000,9.6750,-1.1109,0.4693,-0.5377,-0.1021,0.3168,3.0000,84.1500,-229.9500,6.3300,0.2100,-7.6300,-0.0185,-0.0404,0.0644,-36.0625,14.8750,52.6875,330.6250,40.5625,-175.8125,0
1776971767.189,9.6893,-0.3974,0.3687,-0.4354,0.3192,0.2121,-82.5000,-19.6500,-19.3500,9.5672,-0.7949,0.7805,-0.4914,-0.0320,0.1727,3.0000,84.1500,-229.9500,6.3400,0.3700,-7.4100,-0.0153,-0.0109,0.0425,-36.0625,14.5000,53.8750,330.6250,40.5625,-175.8125,0
1776971767.194,9.5481,-0.2873,0.2394,-0.7285,0.2761,0.2417,-82.5000,-19.6500,-19.3500,9.5672,-0.7949,0.7805,-0.4914,-0.0320,0.1727,-0.1500,85.2000,-227.7000,6.3400,0.3700,-7.4100,-0.0153,-0.0109,0.0425,-36.0625,14.5000,53.8750,330.6250,40.5625,-175.8125,0
1776971767.199,9.5481,-0.2873,0.2394,-0.7285,0.2761,0.2417,-84.0000,-19.3500,-17.5500,9.5624,-0.7398,0.7446,-0.5004,0.0839,0.1127,-0.1500,85.2000,-227.7000,6.3700,0.1700,-7.6300,-0.0153,-0.0109,0.0425,-36.0625,14.5000,53.8750,330.6875,40.5000,-175.8750,0
1776971767.204,9.4834,-0.3807,0.3543,-1.0882,0.2348,0.2622,-84.0000,-19.3500,-17.5500,9.5624,-0.7398,0.7446,-0.5004,0.0839,0.1127,-0.1500,85.2000,-227.7000,6.3700,0.1700,-7.6300,-0.0218,-0.0360,0.0295,-36.0625,14.5000,53.8750,330.6875,40.5000,-175.8750,0
1776971767.210,9.4834,-0.3807,0.3543,-1.0882,0.2348,0.2622,-81.9000,-19.9500,-18.4500,9.2512,-0.7901,0.8499,-0.5268,-0.0333,0.1223,-4.5000,84.4500,-231.0000,6.2000,0.3700,-7.6000,-0.0218,-0.0360,0.0295,-36.0625,14.5000,53.8750,330.6875,40.5000,-175.8750,0
1776971767.219,9.4475,-0.4286,0.7757,-1.4141,0.1943,0.2766,-81.7500,-19.9500,-18.4500,9.1123,-1.2163,0.8859,-0.5204,-0.1007,0.1911,-4.5000,84.4500,-231.0000,6.1300,0.3300,-7.5800,-0.0698,0.0425,0.0076,-36.0625,14.5000,53.8750,330.6875,40.5000,-175.8750,0
1776971767.223,9.3350,-0.5004,1.3455,-1.6308,0.1743,0.2904,-81.7500,-20.8500,-20.1000,9.1123,-1.2163,0.8859,-0.5204,-0.1007,0.1911,-7.9500,82.0500,-232.9500,6.1300,0.3300,-7.5800,-0.1047,0.0175,0.0087,-36.0625,14.5000,53.8750,330.7500,40.5000,-175.8125,0
1776971767.230,9.3350,-0.5004,1.3455,-1.6308,0.1743,0.2904,-81.7500,-20.8500,-20.1000,9.0764,-1.7669,0.5938,-0.5049,-0.1114,0.2747,-8.4000,82.6500,-232.0500,6.3600,0.3000,-7.4000,-0.1047,0.0175,0.0087,-36.0625,14.5000,53.8750,330.7500,40.5000,-175.8125,0
1776971767.235,9.3374,-0.5531,1.9944,-1.6766,0.1532,0.3024,-81.7500,-20.8500,-20.1000,9.0764,-1.7669,0.5938,-0.5049,-0.1114,0.2747,-8.4000,82.6500,-232.0500,6.3600,0.3000,-7.4000,-0.1047,0.0175,0.0087,-36.7500,14.5000,53.1875,330.7500,40.5000,-175.7500,0
1776971767.240,9.3374,-0.5531,1.9944,-1.6766,0.1532,0.3024,-81.7500,-20.8500,-19.3500,9.2775,-2.4110,0.6345,-0.5553,-0.1463,0.3667,-9.1500,84.4500,-233.1000,6.2400,0.3700,-7.4300,-0.1756,0.0142,0.0076,-36.7500,14.5000,53.1875,330.7500,40.5000,-175.7500,0
1776971767.245,9.3613,-0.4764,2.3918,-1.5886,0.1175,0.2923,-81.7500,-20.8500,-19.3500,9.2775,-2.4110,0.6345,-0.6368,-0.2374,0.4874,-9.1500,84.4500,-233.1000,6.2400,0.3700,-7.4300,-0.1756,0.0142,0.0076,-36.7500,14.5000,53.1875,330.8125,40.5000,-175.6250,0
1776971767.250,9.3613,-0.4764,2.3918,-1.5886,0.1175,0.2923,-81.7500,-20.8500,-19.3500,9.3637,-2.2075,0.5650,-0.6368,-0.2374,0.4874,-9.1500,84.4500,-233.1000,6.3800,0.3100,-7.4800,-0.1745,-0.0185,0.0022,-36.7500,14.5000,53.1875,330.8125,40.5000,-175.6250,0
1776971767.254,9.4092,-0.2107,2.6193,-1.4530,0.1194,0.2958,-81.7500,-20.8500,-19.3500,9.2656,-1.9441,0.8787,-0.6928,-0.1943,0.5660,-9.1500,84.4500,-233.1000,6.3800,0.3100,-7.4800,-0.1767,-0.0654,-0.0011,-36.7500,14.5000,53.1875,330.8750,40.4375,-175.5625,0
1776971767.260,9.3996,0.1053,2.7557,-1.4530,0.1194,0.2958,-81.6000,-20.2500,-21.0000,9.2656,-1.9441,0.8787,-0.6928,-0.1943,0.5660,-9.1500,84.4500,-233.1000,6.2800,0.4100,-7.4500,-0.1767,-0.0654,-0.0011,-36.7500,14.5000,53.1875,330.8750,40.4375,-175.5625,0
1776971767.269,9.3996,0.1053,2.7557,-1.2748,0.1306,0.2803,-81.6000,-20.2500,-21.0000,9.2751,-1.7621,0.9553,-0.7306,-0.0935,0.5966,-7.9500,81.7500,-235.0500,6.2300,0.4000,-7.5700,-0.1418,-0.0360,0.0022,-36.7500,14.5000,53.1875,330.8750,40.4375,-175.5000,0
1776971767.275,9.3637,0.2921,2.7725,-1.0714,0.1705,0.2563,-81.9000,-21.9000,-20.7000,9.5217,-1.8076,1.0511,-0.7618,0.0075,0.5910,-7.9500,81.7500,-235.0500,6.2300,0.4000,-7.5700,-0.0611,0.0262,-0.0044,-36.7500,14.5000,53.1875,330.8750,40.4375,-175.5000,0
1776971767.280,9.3972,0.2466,2.6504,-0.8804,0.2268,0.2422,-82.3500,-20.7000,-20.2500,9.5217,-1.8076,1.0511,-0.7618,0.0075,0.5910,-4.9500,81.3000,-233.2500,6.1100,0.4400,-7.5100,-0.0611,0.0262,-0.0044,-36.7500,14.5000,53.1875,330.8750,40.4375,-175.5000,0
1776971767.285,9.3972,0.2466,2.6504,-0.8804,0.2268,0.2422,-82.3500,-20.7000,-20.2500,9.5289,-1.6975,1.0702,-0.7986,0.0554,0.5558,-4.9500,81.3000,-233.2500,6.1100,0.4400,-7.5100,-0.0076,0.0982,-0.0055,-36.3750,14.5000,53.1875,330.8750,40.5000,-175.5000,0
1776971767.290,9.4715,0.2610,2.3296,-0.7288,0.2968,0.2334,-82.5000,-20.8500,-20.5500,9.5289,-1.6975,1.0702,-0.7986,0.0554,0.5558,-4.0500,81.9000,-234.4500,6.1500,0.5200,-7.5400,-0.0076,0.0982,-0.0055,-36.3750,14.5000,53.1875,330.8750,40.5000,-175.5000,0
1776971767.295,9.4715,0.2610,2.3296,-0.7288,0.2968,0.2334,-82.5000,-20.8500,-20.5500,9.6702,-1.3791,0.9649,-0.6592,0.0850,0.4852,-4.0500,81.9000,-234.4500,6.1500,0.5200,-7.5400,-0.0065,0.1364,0.0000,-36.3750,14.5000,53.1875,330.8750,40.5625,-175.5000,0
1776971767.300,9.6175,0.0958,2.0542,-0.6113,0.3259,0.2289,-81.6000,-22.2000,-21.0000,9.6702,-1.3791,0.9649,-0.6592,0.0850,0.4852,-5.2500,82.2000,-233.4000,6.1900,0.4200,-7.4300,-0.0065,0.1364,0.0000,-36.3750,14.5000,53.1875,330.8750,40.5625,-175.5000,0
1776971767.305,9.6175,0.0958,2.0542,-0.6113,0.3259,0.2289,-81.6000,-22.2000,-21.0000,9.7683,-1.0175,0.9840,-0.5510,0.0432,0.4056,-5.2500,82.2000,-233.4000,6.1900,0.4200,-7.4300,-0.0251,0.1451,0.0153,-36.3750,14.5000,53.1875,330.9375,40.6250,-175.5000,0
1776971767.310,9.7181,-0.0455,1.6496,-0.5526,0.3214,0.2060,-80.5500,-22.0500,-20.8500,9.7683,-1.0175,0.9840,-0.5510,0.0432,0.4056,-5.2500,82.2000,-233.4000,5.9300,0.4500,-7.5200,-0.0251,0.1451,0.0153,-36.3750,14.5000,53.1875,330.9375,40.6250,-175.5000,0
1776971767.319,9.7851,-0.2035,1.3575,-0.5622,0.2904,0.1900,-80.5500,-22.0500,-20.8500,9.9647,-1.0822,1.1684,-0.5494,0.0298,0.3616,-5.2500,82.2000,-233.4000,6.1600,0.4200,-7.4900,-0.0295,0.1898,0.0185,-36.3750,14.5000,53.1875,330.9375,40.7500,-175.5000,0
1776971767.323,9.7851,-0.2035,1.3575,-0.5622,0.2904,0.1900,-80.5500,-22.0500,-20.8500,9.9503,-1.3791,1.1923,-0.6043,-0.1013,0.3333,-5.2500,82.2000,-233.4000,6.1600,0.4200,-7.4900,-0.0196,0.2236,0.0087,-36.3750,14.5000,53.1875,330.9375,40.8125,-175.5000,0
1776971767.330,9.7947,-0.2777,1.0415,-0.6699,0.2478,0.1791,-81.1500,-22.2000,-20.2500,9.9503,-1.3791,1.1923,-0.6043,-0.1013,0.3333,-3.9000,79.8000,-233.7000,6.2700,0.3800,-7.5400,-0.0196,0.2236,0.0087,-36.3750,14.5000,53.1875,330.9375,40.8125,-175.5000,0
1776971767.335,9.7947,-0.2777,1.0415,-0.6699,0.2478,0.1791,-81.1500,-22.2000,-20.2500,9.7923,-1.7406,1.1851,-0.5761,-0.1879,0.3187,-3.9000,79.8000,-233.7000,6.1500,0.4800,-7.4300,-0.0164,0.2531,-0.0098,-36.6875,14.8750,53.1875,330.9375,40.9375,-175.4375,0
1776971767.340,9.7181,-0.4022,0.9361,-0.8423,0.2001,0.1601,-81.1500,-22.2000,-20.2500,9.7923,-1.7406,1.1851,-0.5761,-0.1879,0.3187,-5.8500,79.2000,-234.9000,6.1500,0.4800,-7.4300,-0.0164,0.2531,-0.0098,-36.6875,14.8750,53.1875,330.9375,40.9375,-175.4375,0
1776971767.345,9.7181,-0.4022,0.9361,-0.8423,0.2001,0.1601,-81.1500,-22.2000,-20.2500,9.7252,-2.1548,1.1468,-0.5862,-0.2598,0.3315,-5.8500,79.2000,-234.9000,6.1500,0.4800,-7.4300,-0.0425,0.2825,-0.0153,-36.6875,14.8750,53.1875,330.9375,41.1250,-175.4375,0
1776971767.350,9.7923,-0.4525,1.0942,-1.0507,0.1599,0.1617,-82.2000,-21.6000,-20.5500,9.7252,-2.1548,1.1468,-0.5862,-0.2598,0.3315,-5.5500,78.9000,-234.9000,6.3200,0.3300,-7.4700,-0.0425,0.2825,-0.0153,-36.6875,14.8750,53.1875,330.9375,41.1250,-175.4375,0
1776971767.355,9.7923,-0.4525,1.0942,-1.0507,0.1599,0.1617,-82.2000,-21.6000,-20.5500,9.8809,-2.5091,0.9361,-0.7112,-0.2563,0.3741,-5.5500,78.9000,-234.9000,6.3200,0.3300,-7.4700,-0.0491,0.3011,-0.0382,-36.6875,14.8750,53.1875,330.9375,41.2500,-175.3750,0
1776971767.360,9.9048,-0.2825,1.2019,-1.2470,0.1327,0.1537,-82.9500,-21.6000,-20.5500,9.8809,-2.5091,0.9361,-0.7112,-0.2563,0.3741,-6.3000,78.9000,-237.0000,6.4700,0.4800,-7.4500,-0.0491,0.3011,-0.0382,-36.6875,14.8750,53.1875,330.8750,41.4375,-175.3125,0
1776971767.369,9.8330,-0.4884,1.3431,-1.4120,0.1204,0.1431,-82.9500,-23.2500,-20.8500,9.9240,-2.8012,0.9026,-0.8942,-0.2369,0.4266,-6.3000,78.9000,-237.0000,6.5600,0.1300,-7.5300,-0.0469,0.3240,-0.0665,-36.6875,14.8750,53.1875,330.8750,41.4375,-175.3125,0
1776971767.379,9.6367,-0.6488,1.5921,-1.5527,0.1138,0.1292,-81.7500,-22.5000,-22.3500,9.5122,-2.6552,0.7709,-0.9912,-0.3214,0.4431,-5.2500,78.9000,-235.6500,6.3200,0.0900,-7.5900,-0.0676,0.3491,-0.0753,-36.6875,14.8750,53.1875,330.8750,41.6250,-175.2500,0
1776971767.384,9.6367,-0.6488,1.5921,-1.5527,0.1138,0.1292,-81.6000,-21.9000,-22.9500,9.4643,-2.2889,0.9218,-1.0848,-0.1482,0.4418,-5.2500,78.9000,-235.6500,6.3200,0.0900,-7.5900,-0.0676,0.3491,-0.0753,-36.6875,14.8750,53.1875,330.8125,41.8125,-175.1250,0
1776971767.389,9.6702,-0.7374,1.8771,-1.6595,0.1015,0.0978,-81.6000,-21.9000,-22.9500,9.4643,-2.2889,0.9218,-1.0848,-0.1482,0.4418,-6.1500,77.5500,-237.1500,6.2700,0.1300,-7.7800,-0.0764,0.3632,-0.0982,-37.5000,14.5000,51.8750,330.8125,41.8125,-175.1250,0
1776971767.394,9.6702,-0.7374,1.8771,-1.6595,0.1015,0.0978,-81.6000,-22.2000,-23.2500,9.6726,-1.9632,0.9816,-1.0685,-0.0914,0.4109,-6.1500,77.5500,-237.1500,6.2700,0.1300,-7.7800,-0.0764,0.3632,-0.0982,-37.5000,14.5000,51.8750,330.7500,42.0625,-175.0625,0
1776971767.399,9.7468,-0.8595,2.3032,-1.7381,0.0970,0.0818,-81.6000,-22.2000,-23.2500,9.6726,-1.9632,0.9816,-1.0685,-0.0914,0.4109,-5.7000,76.8000,-236.1000,6.5000,0.4200,-7.2400,-0.0731,0.4265,-0.1124,-37.5000,14.5000,51.8750,330.7500,42.0625,-175.0625,0
1776971767.404,9.7540,-1.0247,2.6480,-1.7381,0.0970,0.0818,-82.5000,-22.5000,-21.6000,9.8330,-1.9513,1.1157,-1.1080,-0.1018,0.4045,-5.7000,76.8000,-236.1000,6.5000,0.4200,-7.2400,-0.0491,0.4342,-0.1156,-37.5000,14.5000,51.8750,330.6875,42.2500,-175.0000,0
1776971767.410,9.7540,-1.0247,2.6480,-1.7952,0.0706,0.0701,-82.5000,-22.5000,-21.6000,9.8210,-2.0806,1.3815,-1.0730,-0.1330,0.4021,-2.7000,78.9000,-236.7000,6.4000,0.3100,-7.5900,-0.0491,0.4342,-0.1156,-37.5000,14.5000,51.8750,330.6875,42.2500,-175.0000,0
1776971767.419,9.8617,-1.0175,2.8683,-1.8143,0.0485,0.0695,-82.5000,-22.5000,-21.6000,9.8330,-2.2721,1.3623,-1.0392,-0.1644,0.4069,-4.3500,78.0000,-237.1500,6.6600,0.4300,-7.3500,-0.0382,0.5072,-0.1342,-37.5000,14.5000,51.8750,330.6250,42.5000,-174.8750,0
1776971767.429,9.7348,-0.7781,3.1340,-1.8095,0.0352,0.0789,-80.4000,-22.2000,-23.2500,9.8138,-2.7198,1.2617,-1.0307,-0.2324,0.4090,-4.3500,78.0000,-237.1500,6.5000,0.5300,-7.3300,-0.0360,0.5149,-0.1364,-37.5000,14.5000,51.8750,330.5625,42.8125,-174.7500,0
1776971767.434,9.7659,-0.4310,3.2322,-1.7920,0.0203,0.0738,-80.4000,-22.2000,-23.2500,9.8138,-2.7198,1.2617,-1.0307,-0.2324,0.4090,-4.3500,78.0000,-237.1500,6.5000,0.5300,-7.3300,-0.0360,0.5149,-0.1364,-37.5000,14.5000,51.8750,330.5625,42.8125,-174.7500,0
1776971767.439,9.7659,-0.4310,3.2322,-1.7920,0.0203,0.0738,-80.4000,-22.2000,-23.2500,9.8809,-3.1699,1.3503,-1.0725,-0.3091,0.4173,-1.3500,75.0000,-237.9000,6.6400,0.4400,-7.3600,-0.0327,0.5421,-0.1407,-37.8750,13.3750,51.5000,330.5000,43.0625,-174.6875,0
1776971767.444,9.8641,-0.0455,3.2106,-1.7579,0.0128,0.0690,-81.3000,-21.3000,-24.9000,9.8809,-3.1699,1.3503,-1.0725,-0.3091,0.4173,-1.3500,75.0000,-237.9000,6.6400,0.4400,-7.3600,-0.0327,0.5421,-0.1407,-37.8750,13.3750,51.5000,330.5000,43.0625,-174.6875,0
1776971767.449,9.8641,-0.0455,3.2106,-1.7579,0.0128,0.0690,-81.3000,-21.3000,-24.9000,9.8210,-2.8970,1.4748,-1.1130,-0.3224,0.4064,-1.8000,75.7500,-237.1500,6.6900,0.2800,-7.3700,-0.0742,0.5661,-0.1636,-37.8750,13.3750,51.5000,330.3750,43.3750,-174.5000,0
1776971767.454,9.8019,0.1963,3.0670,-1.7091,-0.0067,0.0624,-82.3500,-22.2000,-24.3000,9.8210,-2.8970,1.4748,-1.1130,-0.3224,0.4064,-1.8000,75.7500,-237.1500,6.6900,0.2800,-7.3700,-0.1145,0.5574,-0.1702,-37.8750,13.3750,51.5000,330.3125,43.6875,-174.3750,0
1776971767.460,9.8019,0.1963,3.0670,-1.7091,-0.0067,0.0624,-82.3500,-22.2000,-24.3000,9.5720,-2.8419,1.4269,-1.1450,-0.2662,0.3645,-1.0500,75.3000,-238.9500,6.7100,0.4000,-7.3000,-0.1145,0.5574,-0.1702,-37.8750,13.3750,51.5000,330.3125,43.6875,-174.3750,0
1776971767.469,9.4763,0.5171,2.8539,-1.6792,-0.0072,0.0381,-81.6000,-21.0000,-25.8000,9.5050,-2.1835,1.6209,-1.2201,-0.2214,0.3533,-0.3000,74.2500,-238.9500,6.8800,0.3900,-7.3000,-0.1505,0.5225,-0.1593,-37.8750,13.3750,51.5000,330.2500,43.9375,-174.1875,0
1776971767.473,9.2775,0.7350,2.7438,-1.6593,0.0088,0.0184,-81.3000,-20.1000,-26.4000,9.5050,-2.1835,1.6209,-1.2201,-0.2214,0.3533,-0.3000,74.2500,-238.9500,6.8800,0.3900,-7.3000,-0.1756,0.4778,-0.1462,-37.8750,13.3750,51.5000,330.1875,44.1875,-174.0000,0
1776971767.480,9.2775,0.7350,2.7438,-1.6593,0.0088,0.0184,-81.3000,-20.1000,-26.4000,9.6079,-1.7262,1.4940,-1.1975,-0.2025,0.3176,-1.2000,74.7000,-239.1000,6.8800,0.6100,-7.0900,-0.1756,0.4778,-0.1462,-37.8750,13.3750,51.5000,330.1875,44.1875,-174.0000,0
1776971767.485,9.5122,0.6321,2.7342,-1.6374,-0.0021,0.0099,-79.0500,-20.1000,-26.1000,9.6079,-1.7262,1.4940,-1.1975,-0.2025,0.3176,-1.2000,74.7000,-239.1000,6.8800,0.6100,-7.0900,-0.1756,0.4778,-0.1462,-38.8750,13.3750,50.2500,330.1875,44.3750,-173.8125,0
1776971767.490,9.5122,0.6321,2.7342,-1.6374,-0.0021,0.0099,-79.0500,-20.1000,-26.1000,9.7420,-1.5203,1.3910,-1.1517,-0.2268,0.2918,-1.2000,74.7000,-239.1000,6.7200,0.7000,-7.1200,-0.1778,0.4352,-0.1353,-38.8750,13.3750,50.2500,330.1875,44.3750,-173.8125,0
1776971767.495,9.3685,0.5339,2.8084,-1.6113,-0.0378,0.0053,-81.3000,-20.1000,-26.1000,9.7420,-1.5203,1.3910,-1.1517,-0.2268,0.2918,-0.3000,73.0500,-238.6500,6.7200,0.7000,-7.1200,-0.1778,0.4352,-0.1353,-38.8750,13.3750,50.2500,330.1250,44.6250,-173.6250,0
1776971767.500,9.4188,0.4310,2.8706,-1.6113,-0.0378,0.0053,-81.3000,-20.1000,-26.1000,9.6127,-1.6759,1.3096,-1.1106,-0.2667,0.2960,-0.3000,73.0500,-238.6500,6.9400,0.8600,-6.9800,-0.1953,0.4036,-0.0982,-38.8750,13.3750,50.2500,330.1250,44.6250,-173.6250,0
1776971767.505,9.4188,0.4310,2.8706,-1.5902,-0.0482,0.0101,-81.3000,-20.1000,-26.1000,9.6127,-1.6759,1.3096,-1.1106,-0.2667,0.2960,-1.3500,75.0000,-238.9500,6.9400,0.8600,-6.9800,-0.2138,0.3240,-0.0480,-38.8750,13.3750,50.2500,343.1250,44.8125,-173.5000,0
1776971767.510,9.4403,0.6464,2.9880,-1.5902,-0.0482,0.0101,-81.3000,-20.1000,-26.1000,9.7995,-1.7741,1.0798,-1.0421,-0.2795,0.2976,-1.3500,75.0000,-238.9500,6.7000,0.8500,-7.1700,-0.2138,0.3240,-0.0480,-38.8750,13.3750,50.2500,343.3750,44.9375,-173.3125,0
1776971767.520,9.1913,0.6656,2.9856,-1.5591,-0.0557,0.0261,-81.1500,-19.5000,-27.3000,9.4571,-2.3032,0.8452,-1.0232,-0.3824,0.3293,-0.9000,73.9500,-240.6000,6.6900,0.1800,-7.0800,-0.1953,0.3196,-0.0316,-38.8750,13.3750,50.2500,343.3750,44.9375,-173.3125,0
1776971767.529,8.8298,1.2546,2.8252,-1.5258,-0.0733,0.0434,-81.1500,-19.5000,-27.3000,9.3350,-2.2817,0.9697,-0.9622,-0.4191,0.3738,-1.2000,73.9500,-240.1500,6.7700,0.5700,-7.2300,-0.1669,0.3556,-0.0600,-38.8750,13.3750,50.2500,343.5625,45.1250,-173.1875,0
1776971767.534,8.8298,1.2546,2.8252,-1.4618,-0.0506,0.0528,-79.8000,-19.3500,-26.7000,9.3350,-2.2817,0.9697,-0.9622,-0.4191,0.3738,-1.2000,72.1500,-240.6000,6.7700,0.5700,-7.2300,-0.1669,0.3556,-0.0600,-38.8750,13.3750,50.2500,343.6875,45.3750,-173.0625,0
1776971767.539,9.3206,0.4190,2.6935,-1.4618,-0.0506,0.0528,-79.8000,-19.3500,-26.7000,9.3853,-2.1356,1.1133,-0.9222,-0.4186,0.4008,-1.2000,72.1500,-240.6000,7.1300,0.6300,-6.8900,-0.1582,0.3883,-0.0578,-40.7500,14.5000,50.2500,343.6875,45.3750,-173.0625,0
1776971767.544,9.3206,0.4190,2.6935,-1.3848,-0.0727,0.0613,-80.2500,-20.1000,-29.4000,9.3853,-2.1356,1.1133,-0.9222,-0.4186,0.4008,-1.2000,72.1500,-240.6000,7.1300,0.6300,-6.8900,-0.1582,0.3883,-0.0578,-40.7500,14.5000,50.2500,343.6875,45.3750,-173.0625,0
1776971767.549,9.0740,0.6656,2.4732,-1.3419,-0.0669,0.0602,-80.2500,-20.1000,-29.4000,9.3494,-1.9297,1.1899,-0.9366,-0.4061,0.4250,-1.2000,72.1500,-240.6000,7.0900,0.8200,-6.8100,-0.1658,0.3131,-0.0295,-40.7500,14.5000,50.2500,343.8750,45.5000,-172.9375,0
1776971767.554,9.0740,0.6656,2.4732,-1.3419,-0.0669,0.0602,-80.4000,-19.0500,-27.7500,9.3494,-1.9297,1.1899,-0.9049,-0.3888,0.4333,-1.9500,72.9000,-241.6500,7.0900,0.8200,-6.8100,-0.1680,0.2422,0.0011,-40.7500,14.5000,50.2500,344.0625,45.6875,-172.8125,0
1776971767.560,8.9926,0.9170,2.4541,-1.2851,-0.0917,0.0546,-80.4000,-19.0500,-27.7500,9.3470,-1.5275,1.3336,-0.9049,-0.3888,0.4333,-1.9500,72.9000,-241.6500,7.0900,0.9400,-6.7900,-0.1680,0.2422,0.0011,-40.7500,14.5000,50.2500,344.2500,45.7500,-172.7500,0
1776971767.570,9.1171,1.1540,2.3463,-1.2388,-0.0789,0.0426,-80.2500,-20.4000,-27.9000,9.4260,-1.2522,1.0894,-0.8836,-0.3754,0.4594,-0.3000,73.8000,-241.8000,6.9300,0.8600,-6.7700,-0.1734,0.1724,0.0469,-40.7500,14.5000,50.2500,344.2500,45.7500,-172.7500,0
1776971767.580,9.2033,1.1109,2.2458,-1.1647,-0.0709,0.0402,-81.1500,-20.2500,-29.8500,9.4834,-1.1301,1.2043,-0.7962,-0.3880,0.4762,-0.9000,71.4000,-241.3500,6.6200,1.1000,-6.7000,-0.1876,0.0938,0.0960,-40.7500,14.5000,50.2500,344.4375,45.8125,-172.6875,0
1776971767.584,9.2033,1.1109,2.2458,-1.1647,-0.0709,0.0402,-80.4000,-19.0500,-28.5000,9.4739,-1.2929,1.1899,-0.6672,-0.3581,0.4759,1.0500,71.5500,-242.2500,6.6200,1.1000,-6.7000,-0.1876,0.0938,0.0960,-40.7500,14.5000,50.2500,344.5625,45.8750,-172.6250,0
1776971767.589,9.2129,1.3048,2.1093,-1.1202,-0.0597,0.0522,-80.4000,-19.0500,-28.5000,9.4739,-1.2929,1.1899,-0.6672,-0.3581,0.4759,1.0500,71.5500,-242.2500,6.3000,1.0500,-6.9700,-0.2105,0.0709,0.1407,-41.0625,11.8750,51.0625,344.5625,45.8750,-172.6250,0
1776971767.594,9.2129,1.3048,2.1093,-1.1202,-0.0597,0.0522,-80.4000,-19.0500,-28.5000,9.6486,-2.0327,0.6321,-0.6376,-0.3616,0.4900,0.3000,73.0500,-243.3000,6.3000,1.0500,-6.9700,-0.2105,0.0709,0.1407,-41.0625,11.8750,51.0625,344.5625,45.8750,-172.6250,0
1776971767.599,9.4260,1.2426,2.0590,-1.0866,-0.0589,0.0626,-80.4000,-19.0500,-28.5000,9.6486,-2.0327,0.6321,-0.6376,-0.3616,0.4900,0.3000,73.0500,-243.3000,6.3700,0.5700,-7.0600,-0.1909,0.1451,0.1571,-41.0625,11.8750,51.0625,344.7500,45.9375,-172.6250,0
1776971767.604,9.4260,1.2426,2.0590,-1.0866,-0.0589,0.0626,-81.1500,-18.7500,-28.8000,10.0078,-3.1532,0.3184,-0.7160,-0.4383,0.5590,0.3000,73.0500,-243.3000,6.3700,0.5700,-7.0600,-0.1713,0.2760,0.1702,-41.0625,11.8750,51.0625,344.8125,46.1250,-172.6250,0
1776971767.610,9.4188,1.0894,1.9010,-1.0720,-0.0496,0.0775,-81.1500,-18.7500,-28.8000,10.0078,-3.1532,0.3184,-0.7160,-0.4383,0.5590,0.3000,73.0500,-243.3000,6.9000,0.6700,-6.7000,-0.1713,0.2760,0.1702,-41.0625,11.8750,51.0625,344.8125,46.2500,-172.6250,0
1776971767.620,9.3805,1.0415,1.6759,-1.0139,-0.0346,0.0898,-81.1500,-18.7500,-28.8000,9.8210,-3.2681,0.2035,-0.6784,-0.5420,0.6323,1.9500,72.4500,-243.4500,7.2500,0.6300,-6.9600,-0.1374,0.2673,0.1942,-41.0625,11.8750,51.0625,344.8125,46.2500,-172.6250,0
1776971767.630,9.4619,0.7805,1.5299,-0.9595,-0.0061,0.1045,-81.3000,-18.9000,-30.4500,9.6917,-3.1077,-0.3639,-0.7520,-0.5625,0.6582,1.5000,72.4500,-244.5000,7.4800,0.9100,-6.7200,-0.1036,0.2749,0.1691,-41.0625,11.8750,51.0625,344.8125,46.4375,-172.6250,0
1776971767.634,9.5720,0.6800,1.3527,-0.9595,-0.0061,0.1045,-80.4000,-18.3000,-31.0500,9.7205,-2.9209,-0.5387,-0.8713,-0.5505,0.6379,1.9500,71.4000,-245.8500,7.4800,0.9100,-6.7200,-0.1036,0.2749,0.1691,-41.0625,11.8750,51.0625,344.8125,46.4375,-172.6250,0
1776971767.639,9.5720,0.6800,1.3527,-0.9379,0.0011,0.1124,-80.4000,-18.3000,-31.0500,9.7205,-2.9209,-0.5387,-0.8713,-0.5505,0.6379,1.9500,71.4000,-245.8500,7.1300,0.4200,-6.9000,-0.0556,0.2553,0.1462,-41.5000,13.3750,49.0625,344.8125,46.5625,-172.6875,0
1776971767.644,9.9599,0.5674,1.2282,-0.9379,0.0011,0.1124,-81.0000,-19.3500,-29.4000,9.8521,-2.8060,-0.1556,-0.9281,-0.5020,0.6107,0.3000,71.5500,-244.3500,7.1300,0.4200,-6.9000,-0.0556,0.2553,0.1462,-41.5000,13.3750,49.0625,344.8125,46.5625,-172.6875,0
1776971767.649,9.9599,0.5674,1.2282,-0.9505,-0.0155,0.1053,-81.0000,-19.3500,-29.4000,9.8521,-2.8060,-0.1556,-0.9281,-0.5020,0.6107,0.3000,71.5500,-244.3500,6.9900,0.3900,-6.9700,-0.0796,0.2498,0.1440,-41.5000,13.3750,49.0625,344.7500,46.7500,-172.6875,0
1776971767.656,10.2161,0.3879,1.1732,-0.9787,-0.0493,0.0967,-81.3000,-18.9000,-30.9000,10.3908,-1.9154,-0.3280,-0.9630,-0.4591,0.5974,2.1000,70.0500,-245.7000,6.3200,0.3200,-7.0500,-0.1036,0.2880,0.1440,-41.5000,13.3750,49.0625,344.7500,46.9375,-172.6875,0
1776971767.661,10.2161,0.3879,1.1732,-0.9787,-0.0493,0.0967,-81.3000,-18.9000,-30.9000,10.6279,-1.3168,-0.4118,-1.0696,-0.4956,0.5883,2.1000,70.0500,-245.7000,6.3200,0.3200,-7.0500,-0.1036,0.2880,0.1440,-41.5000,13.3750,49.0625,344.8125,47.1250,-172.6250,0
1776971767.670,10.1610,0.2466,1.0822,-0.9803,-0.0935,0.0911,-81.7500,-19.6500,-30.4500,10.6279,-1.3168,-0.4118,-1.0696,-0.4956,0.5883,2.1000,70.0500,-245.7000,6.7200,0.2100,-7.2200,-0.1200,0.4200,0.0884,-41.5000,13.3750,49.0625,344.8125,47.1250,-172.6250,0
1776971767.680,10.2783,0.4334,1.0965,-1.0027,-0.1351,0.0802,-80.8500,-19.5000,-31.3500,10.5584,-1.3120,-0.3735,-1.0808,-0.5971,0.6305,1.0500,71.2500,-245.4000,6.7100,0.3800,-7.0600,-0.1669,0.5051,0.0404,-41.5000,13.3750,49.0625,344.9375,47.4375,-172.5625,0
1776971767.685,10.1634,0.5746,1.1875,-1.0155,-0.1585,0.0866,-80.1000,-19.0500,-31.0500,10.5153,-1.0606,-0.9002,-1.0808,-0.5971,0.6305,1.0500,72.3000,-245.7000,6.7100,0.3800,-7.0600,-0.1669,0.5051,0.0404,-41.5000,13.3750,49.0625,345.0625,47.7500,-172.3750,0
1776971767.690,10.1634,0.5746,1.1875,-1.0155,-0.1585,0.0866,-80.1000,-19.0500,-31.0500,10.4531,-1.3958,-0.5650,-1.0576,-0.6320,0.6715,1.0500,72.3000,-245.7000,6.8100,0.7800,-6.9600,-0.1909,0.5869,0.0076,-41.8750,14.0625,49.0625,345.0625,47.7500,-172.3750,0
1776971767.695,10.0628,0.7087,1.2522,-1.0102,-0.1908,0.1087,-81.1500,-19.9500,-31.3500,10.4531,-1.3958,-0.5650,-1.0576,-0.6320,0.6715,1.2000,72.1500,-247.3500,6.8100,0.7800,-6.9600,-0.1909,0.5869,0.0076,-41.8750,14.0625,49.0625,345.2500,48.1250,-172.1875,0
1776971767.700,10.0628,0.7087,1.2522,-1.0102,-0.1908,0.1087,-81.1500,-19.9500,-31.3500,10.2352,-2.2553,-0.3759,-1.1093,-0.6963,0.7296,1.2000,72.1500,-247.3500,7.0600,0.7600,-6.7300,-0.2291,0.7058,-0.0153,-41.8750,14.0625,49.0625,345.2500,48.1250,-172.1875,0
1776971767.705,9.7851,0.7733,1.2330,-1.0224,-0.2126,0.1364,-81.1500,-19.9500,-31.3500,10.2352,-2.2553,-0.3759,-1.1093,-0.6963,0.7296,0.9000,71.4000,-247.0500,7.0600,0.7600,-6.7300,-0.2094,0.7407,-0.0491,-41.8750,14.0625,49.0625,345.4375,48.5625,-172.0000,0
1776971767.711,9.7851,0.7733,1.2330,-1.0224,-0.2126,0.1364,-81.1500,-19.9500,-31.3500,10.0030,-2.3846,-0.0934,-1.0973,-0.7799,0.8194,2.8500,70.0500,-247.9500,7.1500,0.3700,-6.8000,-0.2094,0.7407,-0.0491,-41.8750,14.0625,49.0625,345.6250,49.0000,-171.7500,0
1776971767.720,9.5864,0.7350,1.1492,-1.0283,-0.2108,0.1585,-80.5500,-20.1000,-33.7500,10.0006,-2.4588,-0.1006,-1.2420,-0.8212,0.8892,2.8500,70.0500,-247.9500,7.1000,0.5200,-6.5300,-0.2269,0.8334,-0.0556,-41.8750,14.0625,49.0625,345.6250,49.0000,-171.7500,0
1776971767.730,9.3901,0.7039,1.1349,-1.0091,-0.2054,0.1783,-79.0500,-19.3500,-32.4000,9.7612,-2.7749,-0.7661,-1.2806,-0.8383,0.9252,2.8500,70.0500,-247.9500,7.5400,0.7400,-6.5200,-0.2356,0.9207,-0.0720,-41.8750,14.0625,49.0625,345.8125,49.5000,-171.5000,0
1776971767.735,9.2943,0.6823,1.1995,-0.9888,-0.1820,0.1820,-80.5500,-19.6500,-33.4500,9.7612,-2.7749,-0.7661,-1.2806,-0.8383,0.9252,2.2500,68.7000,-248.4000,7.5400,0.7400,-6.5200,-0.2356,0.9207,-0.0720,-41.8750,14.0625,49.0625,345.8125,49.5000,-171.5000,0
1776971767.740,9.2943,0.6823,1.1995,-0.9888,-0.1820,0.1820,-80.5500,-19.6500,-33.4500,9.6127,-2.5666,-0.6608,-1.2476,-0.8492,0.9363,2.2500,68.7000,-248.4000,7.4400,0.8900,-6.1400,-0.2520,1.0014,-0.0665,-42.1875,14.0625,49.0625,346.0000,50.0625,-171.1875,0
1776971767.744,9.3781,0.8499,1.2426,-0.9734,-0.1631,0.1681,-79.3500,-21.0000,-32.8500,9.6127,-2.5666,-0.6608,-1.2476,-0.8492,0.9363,4.5000,68.7000,-250.5000,7.4400,0.8900,-6.1400,-0.2520,1.0014,-0.0665,-42.1875,14.0625,49.0625,346.0000,50.0625,-171.1875,0
1776971767.750,9.3518,0.9074,1.1995,-0.9734,-0.1631,0.1681,-79.3500,-21.0000,-32.8500,9.7468,-2.5283,-0.4741,-1.2942,-0.8047,0.9606,4.6500,68.2500,-251.1000,7.5200,1.2300,-5.8800,-0.2673,1.0308,-0.0687,-42.1875,14.0625,49.0625,346.1875,50.6250,-170.8750,0
1776971767.756,9.3518,0.9074,1.1995,-0.9814,-0.1604,0.1242,-80.2500,-18.4500,-32.4000,9.7468,-2.5283,-0.4741,-1.2942,-0.8047,0.9606,4.6500,68.2500,-251.1000,7.4500,0.9000,-6.1200,-0.3152,1.0494,-0.0480,-42.1875,14.0625,49.0625,346.4375,51.1875,-170.5625,0
1776971767.761,9.3565,0.9888,0.9673,-1.0016,-0.1695,0.0874,-80.2500,-18.4500,-32.4000,10.0173,-2.6025,-0.4238,-1.4224,-0.8306,0.9926,5.2500,66.9000,-251.5500,7.4500,0.9000,-6.1200,-0.3152,1.0494,-0.0480,-42.1875,14.0625,49.0625,346.6875,51.7500,-170.2500,0
1776971767.770,9.4355,1.3144,0.9194,-1.0395,-0.1860,0.0549,-79.0500,-20.8500,-33.7500,10.1203,-2.0758,-0.5507,-1.4410,-0.8756,1.0240,5.4000,67.5000,-252.1500,7.5100,0.8800,-6.0200,-0.3731,1.1170,-0.0240,-42.1875,14.0625,49.0625,346.6875,51.7500,-170.2500,0
1776971767.780,9.3613,1.6496,0.8308,-1.0952,-0.2121,0.0277,-80.8500,-19.9500,-33.6000,10.3046,-1.2282,-0.5602,-1.4546,-0.9334,1.0336,5.4000,67.5000,-252.1500,6.9100,1.0700,-6.1200,-0.3840,1.2948,0.0415,-42.1875,14.0625,49.0625,346.8750,52.5000,-169.8750,0
1776971767.785,9.3613,1.6496,0.8308,-1.0952,-0.2121,0.0277,-80.2500,-20.4000,-33.7500,10.3046,-1.2282,-0.5602,-1.4546,-0.9334,1.0336,5.4000,67.5000,-252.1500,6.9100,1.0700,-6.1200,-0.3840,1.2948,0.0415,-42.1875,14.0625,49.0625,346.9375,53.3125,-169.5625,0
1776971767.790,9.3230,2.1021,0.7829,-1.1556,-0.2667,0.0187,-80.2500,-20.4000,-33.7500,10.4339,-1.0582,-0.7709,-1.3949,-0.9670,1.0357,8.1000,64.9500,-254.1000,6.7700,0.5900,-6.3100,-0.3142,1.4519,0.0949,-45.1875,13.3750,48.2500,346.9375,53.3125,-169.5625,0
1776971767.795,9.3230,2.1021,0.7829,-1.1556,-0.2667,0.0187,-80.2500,-20.4000,-33.7500,10.4339,-1.0582,-0.7709,-1.3949,-0.9670,1.0357,8.1000,64.9500,-254.1000,6.7700,0.5900,-6.3100,-0.3142,1.4519,0.0949,-45.1875,13.3750,48.2500,347.0000,54.1875,-169.2500,0
1776971767.800,9.3589,2.6073,0.7757,-1.2537,-0.2998,0.0003,-80.2500,-20.4000,-33.7500,10.7093,-1.1205,-0.6225,-1.3835,-1.0547,1.0712,6.6000,62.4000,-256.9500,7.6000,0.6200,-6.0500,-0.3240,1.6559,0.1091,-45.1875,13.3750,48.2500,347.0000,54.1875,-169.2500,0
1776971767.805,9.3589,2.6073,0.7757,-1.2537,-0.2998,0.0003,-79.8000,-20.1000,-34.5000,10.7093,-1.1205,-0.6225,-1.3835,-1.0547,1.0712,6.6000,62.4000,-256.9500,7.6000,0.6200,-6.0500,-0.3894,1.6101,0.1756,-45.1875,13.3750,48.2500,347.1250,55.1250,-168.9375,0
1776971767.811,9.4020,3.0239,0.6153,-1.3366,-0.3262,-0.0282,-79.8000,-20.1000,-34.5000,10.9702,-1.0702,-0.8116,-1.3542,-1.1178,1.1293,6.9000,61.5000,-258.6000,7.4800,1.1400,-5.9900,-0.3894,1.6101,0.1756,-45.1875,13.3750,48.2500,347.1250,56.1250,-168.5625,0
1776971767.820,9.6462,2.8850,0.4453,-1.3299,-0.3741,-0.0674,-79.8000,-20.1000,-34.5000,11.1378,-1.0104,-1.0247,-1.3907,-1.1842,1.1938,7.8000,60.9000,-259.8000,8.0000,0.6500,-5.9400,-0.3022,1.8839,0.0873,-45.1875,13.3750,48.2500,347.1250,56.1250,-168.5625,0
1776971767.830,9.9934,2.6935,-0.0503,-1.3051,-0.3986,-0.1620,-78.7500,-21.3000,-35.2500,11.4539,-1.3408,-0.7111,-1.4727,-1.2140,1.2628,8.4000,60.4500,-261.3000,8.0700,0.7400,-5.8400,-0.2891,1.9919,0.0131,-45.1875,13.3750,48.2500,347.1250,57.1875,-168.0625,0
1776971767.835,9.9934,2.6935,-0.0503,-1.3051,-0.3986,-0.1620,-78.9000,-21.9000,-35.5500,11.9183,-0.5483,-0.5339,-1.5617,-1.2284,1.3462,8.4000,60.4500,-261.3000,8.0700,0.7400,-5.8400,-0.2891,1.9919,0.0131,-45.1875,13.3750,48.2500,347.1250,57.1875,-168.0625,0
1776971767.840,10.1179,2.3487,-0.3017,-1.3030,-0.4263,-0.2694,-78.9000,-21.9000,-35.5500,11.9183,-0.5483,-0.5339,-1.5617,-1.2284,1.3462,8.4000,60.4500,-261.3000,8.0400,0.4900,-6.2800,-0.3414,1.9602,0.0295,-47.0000,13.0000,44.7500,347.1875,58.3125,-167.5000,0
1776971767.845,10.1179,2.3487,-0.3017,-1.3030,-0.4263,-0.2694,-78.1500,-21.0000,-35.5500,12.2487,-0.3687,-0.6488,-1.8226,-1.3046,1.4274,8.4000,60.4500,-261.3000,8.0400,0.4900,-6.2800,-0.3414,1.9602,0.0295,-47.0000,13.0000,44.7500,347.1875,58.3125,-167.5000,0
1776971767.850,9.6750,2.3511,-0.2394,-1.3406,-0.4828,-0.3672,-78.1500,-21.0000,-35.5500,12.2487,-0.3687,-0.6488,-1.8226,-1.3046,1.4274,8.4000,57.4500,-267.3000,7.1100,0.1400,-6.2700,-0.5323,2.1937,0.0033,-47.0000,13.0000,44.7500,347.4375,59.5000,-166.8125,0
1776971767.857,9.6295,2.4229,0.1652,-1.4040,-0.5207,-0.5143,-78.3000,-21.3000,-36.7500,12.4307,-0.5052,-0.0407,-2.0195,-1.3861,1.5380,8.4000,57.4500,-267.3000,7.5900,-0.2300,-6.3900,-0.8912,2.6911,-0.0829,-47.0000,13.0000,44.7500,347.9375,60.9375,-165.5625,0
1776971767.862,9.6295,2.4229,0.1652,-1.4040,-0.5207,-0.5143,-78.3000,-21.3000,-36.7500,12.4307,-0.5052,-0.0407,-2.0195,-1.3861,1.5380,9.0000,57.3000,-269.5500,7.5900,-0.2300,-6.3900,-0.8912,2.6911,-0.0829,-47.0000,13.0000,44.7500,348.8125,62.5000,-163.8750,0
1776971767.870,9.7683,2.3128,0.5219,-1.5138,-0.5844,-0.6832,-78.7500,-22.5000,-37.9500,12.9191,-0.2346,0.0455,-2.1743,-1.4749,1.6308,11.4000,57.4500,-269.4000,6.9300,0.0800,-5.9800,-1.2577,3.0183,-0.2203,-47.0000,13.0000,44.7500,350.0000,64.1875,-161.5000,0
1776971767.880,9.8019,1.8004,0.4884,-1.6649,-0.6829,-0.8918,-78.7500,-22.5000,-37.9500,13.5033,-0.5602,0.2586,-2.4850,-1.5479,1.6803,12.3000,56.2500,-272.1000,7.6000,-0.7000,-5.6500,-1.6373,3.3543,-0.3174,-47.0000,13.0000,44.7500,350.0000,64.1875,-161.5000,0
1776971767.885,9.6989,0.8619,-0.3184,-1.7712,-0.7935,-1.1514,-78.7500,-22.5000,-37.9500,13.7714,-1.6496,1.9130,-2.6345,-1.6169,1.7944,12.3000,56.2500,-272.1000,7.6000,-0.7000,-5.6500,-1.6373,3.3543,-0.3174,-50.2500,11.8750,40.8750,351.3750,66.1250,-158.5000,0
1776971767.890,9.6989,0.8619,-0.3184,-1.7712,-0.7935,-1.1514,-78.7500,-22.5000,-37.9500,13.7714,-1.6496,1.9130,-2.6345,-1.6169,1.7944,12.3000,56.2500,-272.1000,9.1200,2.6800,-7.8800,-2.1217,3.7437,-0.2542,-50.2500,11.8750,40.8750,351.3750,66.1250,-158.5000,0
1776971767.895,10.3549,-0.1628,-0.8643,-1.7507,-0.8668,-1.4245,-79.8000,-20.4000,-37.2000,12.7204,-1.0056,1.5419,-2.4213,-1.5823,1.9316,12.3000,56.2500,-272.1000,9.1200,2.6800,-7.8800,-2.1217,3.7437,-0.2542,-50.2500,11.8750,40.8750,352.5000,68.2500,-155.1875,0
1776971767.900,10.3549,-0.1628,-0.8643,-1.7507,-0.8668,-1.4245,-79.8000,-20.4000,-37.2000,12.7204,-1.0056,1.5419,-2.4213,-1.5823,1.9316,12.3000,56.2500,-272.1000,9.9400,4.6300,-6.7200,-2.0769,4.1910,-0.0207,-50.2500,11.8750,40.8750,352.5000,68.2500,-155.1875,0
1776971767.905,10.5800,-0.5938,-0.3926,-1.7059,-0.9862,-1.6550,-79.8000,-20.4000,-37.2000,12.7635,-0.4597,0.5267,-2.2788,-1.3960,1.9985,12.3000,56.2500,-272.1000,9.9400,4.6300,-6.7200,-1.8217,4.5302,0.1560,-50.2500,11.8750,40.8750,353.2500,70.5625,-151.3750,0
1776971767.911,10.5800,-0.5938,-0.3926,-1.7059,-0.9862,-1.6550,-79.8000,-20.4000,-37.2000,12.7635,-0.4597,0.5267,-2.2788,-1.3960,1.9985,17.8500,57.9000,-277.2000,11.7100,3.9700,-7.3700,-1.8217,4.5302,0.1560,-50.2500,11.8750,40.8750,353.7500,73.0625,-146.3125,0
1776971767.920,10.5058,-0.9457,-0.2634,-1.8900,-1.0776,-1.9044,-77.5500,-20.1000,-38.5500,12.6581,-1.0415,-1.4293,-2.1943,-1.4629,1.9947,18.3000,59.7000,-276.6000,13.2100,4.4800,-7.8100,-1.8675,5.0985,0.3272,-50.2500,11.8750,40.8750,353.7500,73.0625,-146.3125,0
1776971767.930,10.1251,-1.4676,0.0359,-2.3012,-1.1143,-2.1242,-78.0000,-19.6500,-38.2500,11.8705,-1.9178,-2.5642,-2.0267,-1.6934,2.0251,20.8500,63.9000,-276.1500,14.6100,4.6800,-7.2600,-1.9853,5.4760,0.5574,-50.2500,11.8750,40.8750,354.1875,75.6875,-139.5625,0
1776971767.935,9.9982,-2.4972,0.5291,-2.6652,-1.1210,-2.1903,-78.1500,-18.0000,-39.6000,11.6813,-3.2178,-2.4445,-1.9015,-1.7789,2.1114,20.8500,63.9000,-276.1500,14.6100,4.6800,-7.2600,-1.9853,5.4760,0.5574,-55.2500,8.5625,33.0000,354.6250,78.1250,-130.1250,0
1776971767.941,9.9982,-2.4972,0.5291,-2.6652,-1.1210,-2.1903,-78.1500,-18.0000,-39.6000,11.6813,-3.2178,-2.4445,-1.9015,-1.7789,2.1114,21.3000,64.5000,-276.0000,14.3200,3.2700,-6.3800,-2.2024,5.5621,0.7199,-55.2500,8.5625,33.0000,354.6250,78.1250,-130.1250,0
1776971767.945,10.0652,-2.9425,1.0271,-2.9668,-1.0906,-2.1613,-76.8000,-16.9500,-39.3000,11.7675,-4.9153,-3.3734,-1.7349,-1.9092,2.1850,21.3000,64.5000,-276.0000,14.3200,3.2700,-6.3800,-2.2024,5.5621,0.7199,-55.2500,8.5625,33.0000,355.0625,80.2500,-116.8125,0
1776971767.950,10.0652,-2.9425,1.0271,-2.9668,-1.0906,-2.1613,-76.8000,-16.9500,-39.3000,11.7675,-4.9153,-3.3734,-1.7349,-1.9092,2.1850,21.3000,64.5000,-276.0000,18.4900,3.4600,-5.6400,-2.4304,5.5414,0.9512,-55.2500,8.5625,33.0000,355.0625,80.2500,-116.8125,0
1776971767.959,10.9654,-2.9568,1.1708,-3.1355,-0.9851,-2.1589,-77.7000,-18.0000,-39.9000,11.2671,-7.0461,-5.2840,-2.0331,-2.1272,2.1535,21.3000,64.5000,-276.0000,18.9700,0.3100,-7.9100,-2.7980,5.2284,0.7069,-55.2500,8.5625,33.0000,355.8125,81.5625,-98.6250,0
1776971767.965,11.5999,-2.3008,0.6033,-3.0611,-0.9350,-2.2316,-78.3000,-18.0000,-39.9000,10.9223,-8.5090,-6.2106,-2.3646,-2.1597,2.0864,21.3000,64.5000,-276.0000,18.9700,0.3100,-7.9100,-4.0612,5.0756,0.5498,-55.2500,8.5625,33.0000,357.3125,81.7500,-77.0000,0
1776971767.971,12.0692,-0.4956,-0.0599,-3.0611,-0.9350,-2.2316,-78.3000,-14.2500,-43.0500,9.4164,-8.7484,-5.7150,-2.2135,-2.1954,2.0243,27.1500,58.8000,-274.9500,18.9700,1.5900,-11.6700,-4.0612,5.0756,0.5498,-55.2500,8.5625,33.0000,359.2500,81.0625,-58.4375,0
1776971767.981,13.4674,0.1125,-0.6440,-2.7043,-0.9065,-2.3974,-78.3000,-14.2500,-43.0500,7.0868,-7.3526,-5.0278,-1.8018,-2.2207,1.8732,29.5500,54.1500,-271.5000,12.0400,3.0000,-8.0700,-4.8793,4.4091,0.5192,-55.2500,8.5625,33.0000,359.2500,81.0625,-58.4375,0
1776971767.986,13.4674,0.1125,-0.6440,-2.2114,-0.7200,-2.5103,-76.9500,-11.2500,-42.1500,7.0868,-7.3526,-5.0278,-1.8018,-2.2207,1.8732,33.0000,43.8000,-267.9000,12.0400,3.0000,-8.0700,-4.8793,4.4091,0.5192,-55.2500,8.5625,33.0000,359.2500,81.0625,-58.4375,0
1776971767.991,13.8481,1.3910,-1.1612,-2.2114,-0.7200,-2.5103,-76.9500,-11.2500,-42.1500,3.3710,-5.6144,-6.6774,-1.6808,-1.7032,1.6273,33.0000,43.8000,-267.9000,11.1400,2.7000,-8.7100,-5.3113,3.7874,0.6850,-60.5000,8.5625,17.1875,1.2500,80.0625,-44.1250,0
1776971767.996,13.8481,1.3910,-1.1612,-1.8151,-0.5875,-2.4770,-76.9500,-11.2500,-42.1500,3.3710,-5.6144,-6.6774,-1.6808,-1.7032,1.6273,32.2500,36.3000,-259.6500,11.1400,2.7000,-8.7100,-5.3113,3.7874,0.6850,-60.5000,8.5625,17.1875,1.2500,80.0625,-44.1250,0
1776971768.001,12.4714,3.3567,-2.0686,-1.4610,-0.2198,-2.3502,-76.9500,-11.2500,-42.1500,2.1787,-5.4564,-6.4883,-1.9060,-1.3518,1.2934,32.2500,36.3000,-259.6500,8.9800,1.8100,-8.3800,-5.6505,2.9114,1.0777,-60.5000,8.5625,17.1875,3.2500,79.1875,-32.9375,0
1776971768.008,12.4714,3.3567,-2.0686,-1.4610,-0.2198,-2.3502,-77.5500,-10.3500,-41.5500,2.1787,-5.4564,-6.4883,-1.9060,-1.3518,1.2934,32.2500,36.3000,-259.6500,3.7200,1.0400,-13.2500,-5.9527,1.9111,1.6002,-60.5000,8.5625,17.1875,5.0000,78.6250,-23.0625,0
1776971768.013,11.5185,4.4245,-1.2282,-1.2849,-0.0965,-2.2002,-77.5500,-10.3500,-41.5500,0.6201,-4.1755,-7.3694,-2.0049,-0.9156,1.0027,32.2500,36.3000,-259.6500,3.7200,1.0400,-13.2500,-5.9527,1.9111,1.6002,-60.5000,8.5625,17.1875,6.1875,78.2500,-12.8125,0
1776971768.021,10.8314,3.3854,-1.5227,-1.1591,-0.0181,-2.1493,-77.5500,-7.9500,-41.5500,-0.6081,-4.2377,-7.9583,-1.9742,-0.6867,0.8996,26.1000,19.5000,-242.8500,21.7300,3.4400,-14.7300,-5.4269,1.4835,2.3213,-60.5000,8.5625,17.1875,7.1250,78.1875,-4.8125,0
1776971768.031,11.3533,1.9082,-2.1811,-0.9539,0.0482,-2.1296,-76.5000,-7.9500,-41.2500,0.6273,-4.1683,-8.4396,-1.8714,-0.5097,1.0469,26.1000,9.7500,-237.6000,19.8500,11.7600,-15.3900,-4.5728,0.4134,1.9951,-60.5000,8.5625,17.1875,7.1250,78.1875,-4.8125,0
1776971768.036,11.3533,1.9082,-2.1811,-0.9539,0.0482,-2.1296,-76.5000,-7.9500,-41.2500,0.6273,-4.1683,-8.4396,-1.8714,-0.5097,1.0469,24.7500,1.2000,-233.8500,19.8500,11.7600,-15.3900,-4.5728,0.4134,1.9951,-60.5000,8.5625,17.1875,7.5000,79.8750,2.0000,0
1776971768.040,11.8657,0.3879,-2.0662,-0.6297,0.0181,-2.1543,-76.6500,-7.3500,-41.1000,0.4118,-3.9696,-7.6614,-1.4903,0.2912,1.0834,24.7500,1.2000,-233.8500,18.1500,11.1700,-15.6800,-3.0031,-2.9681,1.8795,-58.5625,10.7500,7.6875,7.5000,79.8750,2.0000,0
1776971768.045,11.8657,0.3879,-2.0662,-0.6297,0.0181,-2.1543,-76.6500,-7.3500,-41.1000,0.4118,-3.9696,-7.6614,-1.4903,0.2912,1.0834,23.8500,-5.5500,-229.0500,18.1500,11.1700,-15.6800,-3.0031,-2.9681,1.8795,-58.5625,10.7500,7.6875,6.3750,81.9375,15.9375,0
1776971768.051,12.5911,-1.0104,-1.3024,-0.3837,0.0242,-2.1333,-77.2500,-5.5500,-40.8000,-0.9601,-2.7916,-6.2848,-0.5958,0.6163,1.0488,23.8500,-5.5500,-229.0500,3.7400,4.8100,-7.8700,-1.4148,-4.2281,3.1601,-58.5625,10.7500,7.6875,6.3750,81.9375,15.9375,0
1776971768.060,11.5281,-0.6105,-0.9816,-0.3144,-0.0176,-2.0859,-77.5500,-4.8000,-40.8000,-1.5467,-0.5986,-6.3997,0.2411,1.4333,0.6797,24.1500,-7.9500,-225.6000,1.7100,2.5600,-5.4100,-0.5956,-4.6164,3.3390,-58.5625,10.7500,7.6875,4.6875,83.3750,4.0625,0
1776971768.070,10.9032,0.1125,-0.8906,-0.3389,0.1351,-2.0579,-77.5500,-4.8000,-40.8000,-0.5794,1.1277,-8.6862,0.5569,2.1605,0.1082,24.1500,-7.9500,-225.6000,-0.3600,1.2500,-3.8700,-0.3916,-4.5040,3.1580,-58.5625,10.7500,7.6875,2.9375,83.5625,5.8125,0
1776971768.080,10.4962,1.3048,-1.1013,-0.2819,0.1636,-1.9582,-78.0000,-3.6000,-39.7500,-0.0431,2.1548,-11.1761,0.7703,2.7051,-0.5241,22.6500,-2.7000,-220.6500,-1.9000,-0.0900,-2.4200,-0.5334,-3.9412,2.9540,-58.5625,10.7500,7.6875,1.3125,82.4375,86.6875,0
1776971768.085,10.4962,1.3048,-1.1013,-0.2819,0.1636,-1.9582,-78.0000,-3.6000,-39.7500,-0.0431,2.1548,-11.1761,0.7703,2.7051,-0.5241,23.2500,2.2500,-217.2000,-1.9000,-0.0900,-2.4200,-0.5334,-3.9412,2.9540,-58.5625,10.7500,7.6875,1.3125,82.4375,86.6875,0
1776971768.090,10.5129,2.4277,-1.1684,-0.1633,0.2137,-1.8660,-78.0000,-3.6000,-39.7500,0.2251,2.9018,-13.7331,1.3528,3.3494,-1.1226,23.2500,2.2500,-217.2000,-1.3600,0.6600,-3.3300,-0.8661,-3.7361,2.4827,-54.0000,20.1875,11.1875,0.1250,80.9375,100.8125,0
1776971768.095,10.5129,2.4277,-1.1684,-0.1633,0.2137,-1.8660,-78.0000,-3.6000,-39.7500,0.2251,2.9018,-13.7331,1.3528,3.3494,-1.1226,17.8500,12.4500,-214.2000,-1.3600,0.6600,-3.3300,-0.8661,-3.7361,2.4827,-54.0000,20.1875,11.1875,359.4375,79.4375,110.7500,0
1776971768.100,10.5512,2.9832,-1.1779,0.0432,0.2537,-1.7861,-76.8000,-2.4000,-37.9500,1.9968,2.9832,-10.7500,1.5567,3.6764,-1.3414,17.8500,12.4500,-214.2000,-0.0800,0.9600,-4.2600,-1.2239,-3.5223,1.8577,-54.0000,20.1875,11.1875,359.4375,79.4375,110.7500,0
1776971768.105,10.5512,2.9832,-1.1779,0.0432,0.2537,-1.7861,-76.8000,-2.4000,-37.9500,1.9968,2.9832,-10.7500,1.5567,3.6764,-1.3414,12.3000,21.0000,-211.5000,-0.0800,0.9600,-4.2600,-1.5533,-3.1143,1.2261,-54.0000,20.1875,11.1875,359.3750,78.0625,118.1250,0
1776971768.111,10.4603,3.2729,-1.0271,0.2678,0.2502,-1.6883,-79.0500,-3.3000,-38.2500,3.0191,2.0710,-8.2025,1.0320,3.3428,-1.2668,12.3000,21.0000,-211.5000,4.0000,1.4400,-7.1400,-1.5533,-3.1143,1.2261,-54.0000,20.1875,11.1875,359.7500,76.8750,124.8125,0
1776971768.121,10.4004,2.6336,-0.9529,0.5092,0.2097,-1.6036,-78.1500,-1.0500,-36.1500,3.4860,1.3982,-5.6431,0.7477,2.8482,-1.2761,10.6500,26.7000,-210.6000,4.9600,0.8100,-6.9900,-1.7606,-3.0434,0.6218,-54.0000,20.1875,11.1875,0.4375,75.6875,131.5625,0
1776971768.131,10.1610,1.5730,-0.6823,0.7147,0.1268,-1.5449,-78.3000,-2.4000,-35.7000,2.8970,0.3735,-3.6679,0.6091,2.5583,-1.3725,10.6500,26.7000,-210.6000,4.2400,-0.1600,-5.8200,-1.8631,-3.3161,0.1331,-54.0000,20.1875,11.1875,0.4375,75.6875,131.5625,0
1776971768.136,9.8043,1.1516,-0.6776,0.8212,0.0520,-1.4754,-78.3000,-2.4000,-35.7000,2.7869,-1.6065,-2.8563,0.4836,2.5095,-1.5058,8.1000,25.9500,-210.0000,4.2400,-0.1600,-5.8200,-1.8631,-3.3161,0.1331,-54.0000,20.1875,11.1875,0.4375,75.6875,131.5625,0
1776971768.141,9.8043,1.1516,-0.6776,0.8212,0.0520,-1.4754,-77.5500,-2.1000,-34.9500,2.7869,-1.6065,-2.8563,0.4836,2.5095,-1.5058,8.1000,25.9500,-210.0000,4.0300,-1.0000,-5.4800,-1.9319,-3.5201,-0.2334,-43.8750,30.2500,18.0000,1.4375,74.4375,138.1875,0
1776971768.146,9.4212,0.7087,-0.6632,0.8095,-0.0552,-1.3891,-77.5500,-2.1000,-34.9500,3.8906,-4.6831,-3.3255,0.5119,2.5644,-1.7437,7.8000,22.9500,-210.3000,4.0300,-1.0000,-5.4800,-1.9319,-3.5201,-0.2334,-43.8750,30.2500,18.0000,1.4375,74.4375,138.1875,0
1776971768.151,9.4212,0.7087,-0.6632,0.8095,-0.0552,-1.3891,-78.0000,-1.3500,-36.0000,3.8906,-4.6831,-3.3255,0.5119,2.5644,-1.7437,7.8000,22.9500,-210.3000,4.9000,-1.9500,-5.7400,-1.9482,-3.4787,-0.5596,-43.8750,30.2500,18.0000,2.6250,73.1250,144.2500,0
1776971768.158,9.1099,0.4597,-0.8547,0.7109,-0.2265,-1.2998,-78.0000,-1.3500,-36.0000,4.4724,-6.7900,-5.0182,0.7554,2.8210,-1.9654,7.9500,19.8000,-211.5000,5.6700,-2.6400,-6.3000,-1.8435,-3.3467,-0.8661,-43.8750,30.2500,18.0000,4.0000,71.8125,149.7500,0
1776971768.163,8.4420,0.7111,-0.4693,0.7109,-0.2265,-1.2998,-78.0000,-1.3500,-36.0000,4.4724,-6.7900,-5.0182,0.7554,2.8210,-1.9654,7.3500,14.7000,-211.6500,5.6700,-2.6400,-6.3000,-1.8435,-3.3467,-0.8661,-43.8750,30.2500,18.0000,5.5000,70.4375,154.9375,0
1776971768.171,8.4420,0.7111,-0.4693,0.4975,-0.3416,-1.2713,-78.0000,-1.3500,-35.7000,5.6575,-7.0413,-6.1100,0.7016,2.9588,-2.0363,7.3500,14.7000,-211.6500,6.3100,-3.6000,-6.8300,-1.7170,-3.3783,-1.1443,-43.8750,30.2500,18.0000,7.1250,68.9375,159.6875,0
1776971768.181,8.5856,0.6129,-0.1652,0.1828,-0.3203,-1.1754,-78.0000,-1.3500,-35.7000,6.6631,-5.5641,-6.7469,0.4327,3.0270,-2.1213,7.2000,12.0000,-211.2000,7.6600,-4.7500,-7.2200,-1.6668,-3.4928,-1.3254,-43.8750,30.2500,18.0000,7.1250,68.9375,159.6875,0
1776971768.186,8.8370,0.8452,-0.4429,-0.0080,-0.3611,-1.0488,-78.0000,-1.3500,-35.7000,6.7445,-3.9241,-5.7581,0.0336,3.1051,-2.2532,7.2000,12.0000,-211.2000,7.6600,-4.7500,-7.2200,-1.6668,-3.4928,-1.3254,-37.6875,35.6875,22.0000,8.8750,67.3125,163.8750,0
1776971768.191,8.8370,0.8452,-0.4429,-0.0080,-0.3611,-1.0488,-77.5500,-0.9000,-35.7000,6.7445,-3.9241,-5.7581,0.0336,3.1051,-2.2532,7.2000,12.0000,-211.2000,8.3000,-5.0500,-6.9200,-1.6733,-3.4797,-1.3177,-37.6875,35.6875,22.0000,8.8750,67.3125,163.8750,0
1776971768.196,8.4180,1.1301,-0.5770,-0.1559,-0.3493,-0.9254,-77.5500,-0.9000,-35.7000,6.9432,-2.7605,-5.2672,-0.4290,3.1256,-2.5322,4.3500,12.3000,-207.6000,8.3000,-5.0500,-6.9200,-1.6733,-3.4797,-1.3177,-37.6875,35.6875,22.0000,10.5625,65.6250,167.2500,0
1776971768.201,8.4180,1.1301,-0.5770,-0.1559,-0.3493,-0.9254,-78.0000,0.1500,-35.7000,6.9432,-2.7605,-5.2672,-0.4290,3.1256,-2.5322,4.3500,12.3000,-207.6000,8.7800,-4.9600,-6.9400,-1.6526,-3.4219,-1.1323,-37.6875,35.6875,22.0000,10.5625,65.6250,167.2500,0
1776971768.206,8.1403,1.3886,-0.7207,-0.2340,-0.2966,-0.7903,-78.0000,0.1500,-35.7000,6.3925,-1.7214,-4.3024,-0.6363,3.2175,-2.6950,-0.3000,13.5000,-207.3000,8.7800,-4.9600,-6.9400,-1.5795,-3.3161,-0.8923,-37.6875,35.6875,22.0000,12.1250,63.9375,169.9375,0
1776971768.212,8.2839,1.8244,-0.9912,-0.2340,-0.2966,-0.7903,-77.4000,0.3000,-35.1000,6.3925,-1.7214,-4.3024,-0.6363,3.2175,-2.6950,-0.6000,16.5000,-207.6000,9.9100,-4.4500,-6.5100,-1.5795,-3.3161,-0.8923,-37.6875,35.6875,22.0000,13.6875,62.1875,172.1250,0
1776971768.221,7.8985,2.2913,-1.2234,-0.2036,-0.3232,-0.6520,-76.2000,0.3000,-34.3500,7.2161,-1.8962,-3.9385,-0.8106,3.1626,-2.8088,-3.4500,15.1500,-206.7000,9.9200,-3.8700,-5.8500,-1.5490,-3.2681,-0.7287,-37.6875,35.6875,22.0000,13.6875,62.1875,172.1250,0
1776971768.231,7.5178,3.2777,-1.2019,-0.1625,-0.3624,-0.5521,-76.2000,2.2500,-33.6000,7.9248,-3.6559,-4.3144,-0.5609,3.0822,-2.7073,-3.6000,15.7500,-205.2000,10.9300,-3.0300,-6.0200,-1.5795,-3.1863,-0.7069,-37.6875,35.6875,22.0000,15.3750,60.5000,174.1250,0
1776971768.236,7.5178,3.2777,-1.2019,-0.1681,-0.3155,-0.4852,-76.2000,2.2500,-33.6000,8.5904,-3.1436,-4.4508,-0.2787,3.0265,-2.5738,-3.6000,15.7500,-205.2000,10.9300,-3.0300,-6.0200,-1.5795,-3.1863,-0.7069,-37.6875,35.6875,22.0000,15.3750,60.5000,174.1250,0
1776971768.241,7.4915,3.9863,-0.9529,-0.1647,-0.2699,-0.4181,-76.2000,0.3000,-34.3500,8.5904,-3.1436,-4.4508,0.1021,2.9908,-2.4853,-3.6000,15.7500,-205.2000,12.0600,-2.1300,-6.5200,-1.6221,-3.0445,-0.8050,-37.5625,39.3750,26.6875,17.2500,58.8750,176.0625,0
1776971768.246,7.4915,3.9863,-0.9529,-0.1647,-0.2699,-0.4181,-76.2000,0.3000,-34.3500,9.6007,-2.6791,-4.3862,0.1021,2.9908,-2.4853,-3.6000,15.7500,-205.2000,12.0600,-2.1300,-6.5200,-1.6221,-3.0445,-0.8050,-37.5625,39.3750,26.6875,17.2500,58.8750,176.0625,0
1776971768.251,7.6591,4.3551,-0.7925,-0.1583,-0.2364,-0.3480,-76.2000,0.3000,-34.3500,10.6087,-2.2290,-3.4524,0.0869,2.9050,-2.4075,-4.6500,18.3000,-203.4000,12.8400,-1.0000,-6.3100,-1.6330,-2.9671,-0.9665,-37.5625,39.3750,26.6875,19.3125,57.2500,177.9375,0
1776971768.258,7.6591,4.3551,-0.7925,-0.1583,-0.2364,-0.3480,-78.0000,0.1500,-33.0000,10.6087,-2.2290,-3.4524,0.0869,2.9050,-2.4075,-4.6500,18.3000,-203.4000,12.7300,-0.6300,-5.9100,-1.5457,-2.8820,-1.1050,-37.5625,39.3750,26.6875,21.5000,55.6875,179.7500,0
1776971768.263,7.8673,4.2282,-0.6656,-0.1135,-0.1937,-0.2729,-78.0000,0.1500,-33.0000,10.3837,-1.5562,-3.2441,-0.0773,2.9218,-2.4197,-5.8500,19.2000,-200.7000,12.7300,-0.6300,-5.9100,-1.5457,-2.8820,-1.1050,-37.5625,39.3750,26.6875,23.5625,54.1250,-178.5625,0
1776971768.271,7.9583,4.0247,-0.5148,-0.0373,-0.1775,-0.2022,-78.0000,0.1500,-33.0000,10.0892,-1.6448,-2.8706,-0.2030,2.9194,-2.3998,-7.0500,18.9000,-200.7000,12.5300,-0.4100,-5.5200,-1.3134,-2.7587,-1.1748,-37.5625,39.3750,26.6875,25.3750,52.6875,-177.1875,0
1776971768.281,7.8985,3.7613,-0.6081,0.0645,-0.1929,-0.1498,-76.2000,1.9500,-34.3500,9.5888,-1.6305,-2.9233,-0.2174,2.8727,-2.3790,-8.2500,19.8000,-199.8000,11.9900,-0.5100,-5.3100,-0.9632,-2.5929,-1.1781,-37.5625,39.3750,26.6875,25.3750,52.6875,-177.1875,0
1776971768.286,7.8985,3.7613,-0.6081,0.0645,-0.1929,-0.1498,-76.2000,1.9500,-34.3500,9.5888,-1.6305,-2.9233,-0.2174,2.8727,-2.3790,-8.2500,19.8000,-199.8000,11.9900,-0.5100,-5.3100,-0.9632,-2.5929,-1.1781,-36.3750,36.7500,31.0000,26.7500,51.3125,-176.1875,0
1776971768.291,7.7907,3.5530,-0.7542,0.2078,-0.1844,-0.1119,-77.4000,2.2500,-33.3000,9.2464,-1.7478,-2.7366,-0.1242,2.8578,-2.3153,-9.3000,20.2500,-198.0000,11.4300,-0.4900,-5.3000,-0.5531,-2.4053,-1.1214,-36.3750,36.7500,31.0000,26.7500,51.3125,-176.1875,0
1776971768.296,7.7907,3.5530,-0.7542,0.2078,-0.1844,-0.1119,-77.4000,2.2500,-33.3000,9.2464,-1.7478,-2.7366,-0.1242,2.8578,-2.3153,-9.3000,20.2500,-198.0000,11.4300,-0.4900,-5.3000,-0.5531,-2.4053,-1.1214,-36.3750,36.7500,31.0000,27.5625,50.0000,-175.5625,0
1776971768.301,7.5010,3.4860,-1.0223,0.3067,-0.1697,-0.0895,-77.4000,0.7500,-34.0500,9.0453,-1.8124,-2.2960,-0.0477,2.8272,-2.2495,-9.3000,20.2500,-198.0000,11.2500,-0.6600,-5.6100,-0.1473,-2.2242,-0.9839,-36.3750,36.7500,31.0000,27.5625,50.0000,-175.5625,0
1776971768.306,7.5010,3.4860,-1.0223,0.3067,-0.1697,-0.0895,-77.4000,0.7500,-34.0500,9.0453,-1.8124,-2.2960,-0.0477,2.8272,-2.2495,-9.3000,20.2500,-198.0000,11.2500,-0.6600,-5.6100,0.2193,-2.1108,-0.8050,-36.3750,36.7500,31.0000,27.9375,48.8125,-175.2500,0
1776971768.312,7.2401,3.4644,-0.9218,0.3296,-0.1394,-0.0546,-75.4500,2.7000,-34.3500,9.0285,-1.9537,-2.0997,-0.0266,2.8269,-2.1637,-9.6000,21.9000,-197.1000,11.5100,-1.0800,-6.3600,0.2193,-2.1108,-0.8050,-36.3750,36.7500,31.0000,27.8750,47.6250,-175.2500,0
1776971768.321,7.1826,3.2130,-0.8068,0.3238,-0.1077,-0.0059,-78.7500,0.9000,-33.4500,9.2560,-2.1979,-2.1883,-0.0336,2.7899,-2.0547,-11.2500,22.0500,-195.1500,12.0300,-2.0100,-7.6500,0.4832,-2.0671,-0.6174,-36.3750,36.7500,31.0000,27.5000,46.4375,-175.4375,0
1776971768.331,7.2856,3.3447,-0.7207,0.3240,-0.0906,0.0727,-75.4500,3.4500,-32.5500,9.5122,-2.7629,-2.0063,-0.1567,2.7041,-1.9577,-10.5000,20.2500,-194.8500,11.6000,-2.8800,-7.7200,0.6283,-2.1577,-0.4309,-36.3750,36.7500,31.0000,27.5000,46.4375,-175.4375,0
1776971768.336,7.3789,3.1053,-0.6584,0.3240,-0.0906,0.0727,-75.4500,3.4500,-32.5500,9.5122,-2.7629,-2.0063,-0.1567,2.7041,-1.9577,-10.5000,20.2500,-194.8500,11.6000,-2.8800,-7.7200,0.6283,-2.1577,-0.4309,-36.3750,36.7500,31.0000,27.1250,45.1875,-175.6875,0
1776971768.341,7.3789,3.1053,-0.6584,0.3024,-0.0991,0.1487,-75.4500,3.4500,-32.5500,10.0748,-3.1508,-1.6688,-0.2825,2.4941,-1.8532,-10.9500,21.4500,-194.2500,11.2800,-4.0200,-8.1700,0.6174,-2.2526,-0.3087,-36.8750,31.5000,31.6875,27.1250,45.1875,-175.6875,0
1776971768.346,7.4891,2.9281,-0.5578,0.3024,-0.0991,0.1487,-75.4500,3.4500,-32.5500,10.0748,-3.1508,-1.6688,-0.2825,2.4941,-1.8532,-10.9500,21.4500,-194.2500,11.2800,-4.0200,-8.1700,0.6174,-2.2526,-0.3087,-36.8750,31.5000,31.6875,18.5000,43.8750,-175.8750,0
1776971768.351,7.4891,2.9281,-0.5578,0.2366,-0.1194,0.2094,-77.2500,2.8500,-33.4500,10.3334,-3.3255,-1.5419,-0.5129,2.2471,-1.7640,-9.7500,20.2500,-192.3000,10.9100,-5.4800,-8.4400,0.3425,-2.3126,-0.2487,-36.8750,31.5000,31.6875,18.5000,43.8750,-175.8750,0
1776971768.359,7.4268,2.8108,-0.4645,0.1532,-0.1178,0.2627,-77.2500,2.8500,-33.4500,10.0245,-3.2513,-1.0798,-0.8394,2.1053,-1.7174,-9.7500,20.2500,-192.3000,10.7700,-5.9200,-8.5100,-0.0960,-2.3420,-0.2149,-36.8750,31.5000,31.6875,18.4375,42.5625,-175.7500,0
1776971768.363,7.4268,2.8108,-0.4645,0.1532,-0.1178,0.2627,-77.2500,2.8500,-33.4500,10.0245,-3.2513,-1.0798,-0.8394,2.1053,-1.7174,-9.7500,20.2500,-192.3000,10.7700,-5.9200,-8.5100,-0.0960,-2.3420,-0.2149,-36.8750,31.5000,31.6875,18.5000,41.2500,-175.4375,0
1776971768.372,7.4771,2.8874,-0.4453,0.0767,-0.0970,0.3304,-76.2000,1.5000,-33.6000,9.5577,-2.7533,-0.7207,-1.1501,2.1232,-1.7349,-7.0500,20.7000,-191.1000,10.6000,-6.1700,-8.4000,-0.6032,-2.3573,-0.1898,-36.8750,31.5000,31.6875,18.6875,39.9375,-174.8750,0
1776971768.381,7.5465,2.9544,-0.5028,0.0200,-0.1029,0.3928,-76.2000,2.2500,-34.8000,9.5193,-2.1715,-0.7422,-1.4059,2.2114,-1.8106,-4.8000,22.6500,-187.8000,10.3100,-5.7900,-7.7100,-1.0756,-2.3736,-0.1462,-36.8750,31.5000,31.6875,18.6875,39.9375,-174.8750,0
1776971768.386,7.6327,3.1939,-0.5435,-0.0346,-0.1005,0.4466,-76.2000,2.2500,-34.8000,9.9048,-1.7957,-0.8523,-1.4941,2.2287,-1.8599,-4.8000,22.6500,-187.8000,10.3100,-5.7900,-7.7100,-1.0756,-2.3736,-0.1462,-36.8750,31.5000,31.6875,18.6875,39.9375,-174.8750,0
1776971768.391,7.6327,3.1939,-0.5435,-0.0346,-0.1005,0.4466,-78.4500,2.2500,-33.6000,9.9048,-1.7957,-0.8523,-1.4941,2.2287,-1.8599,-6.3000,22.9500,-185.7000,9.8000,-5.2900,-7.0800,-1.4410,-2.4784,-0.0447,-36.0625,27.7500,34.2500,19.0000,38.5625,-174.1250,0
1776971768.396,7.7644,3.3806,-0.3735,-0.0895,-0.0861,0.4868,-78.4500,2.2500,-33.6000,10.1682,-0.9792,-0.6105,-1.5580,2.2031,-1.9209,-6.3000,22.9500,-185.7000,9.8000,-5.2900,-7.0800,-1.4410,-2.4784,-0.0447,-36.0625,27.7500,34.2500,19.0000,38.5625,-174.1250,0
1776971768.401,7.7644,3.3806,-0.3735,-0.0895,-0.0861,0.4868,-77.4000,1.5000,-33.6000,10.1682,-0.9792,-0.6105,-1.5580,2.2031,-1.9209,-6.9000,25.5000,-184.8000,9.3300,-5.0000,-6.5000,-1.6166,-2.5733,0.1244,-36.0625,27.7500,34.2500,19.4375,37.1875,-173.4375,0
1776971768.407,7.9631,3.6081,-0.1413,-0.1700,-0.0592,0.5212,-77.4000,1.5000,-33.6000,10.2568,0.1915,-0.0431,-1.6315,2.1472,-1.9236,-6.9000,25.5000,-184.8000,9.3300,-5.0000,-6.5000,-1.6526,-2.5351,0.3054,-36.0625,27.7500,34.2500,20.0000,35.8125,-172.7500,0
1776971768.412,7.9631,3.6081,-0.1413,-0.1700,-0.0592,0.5212,-76.9500,1.0500,-33.6000,10.2568,0.1915,-0.0431,-1.6315,2.1472,-1.9236,-6.9000,25.5000,-184.8000,9.3900,-4.9400,-6.3400,-1.6526,-2.5351,0.3054,-36.0625,27.7500,34.2500,20.6250,34.5000,-172.1875,0
1776971768.421,8.0804,3.6990,0.0479,-0.2406,-0.0488,0.5446,-76.8000,0.9000,-33.4500,10.8960,0.7374,-0.1724,-1.5559,2.0755,-1.9025,-6.9000,25.5000,-184.8000,9.6200,-4.6200,-6.1200,-1.6144,-2.4129,0.4854,-36.0625,27.7500,34.2500,21.3750,33.3125,-171.6875,0
1776971768.431,8.1116,3.8810,-0.0335,-0.3134,-0.0392,0.5724,-76.8000,0.9000,-33.4500,11.3461,0.9290,-0.3017,-1.4765,1.8922,-1.8162,-6.4500,33.7500,-184.5000,9.6500,-4.7300,-5.9700,-1.5283,-2.3257,0.6643,-36.0625,27.7500,34.2500,21.3750,33.3125,-171.6875,0
1776971768.436,8.0493,4.1468,-0.0359,-0.4327,-0.0317,0.5881,-76.8000,0.9000,-33.4500,11.5640,0.7566,-0.5148,-1.3837,1.8106,-1.7789,-6.4500,33.7500,-184.5000,9.6500,-4.7300,-5.9700,-1.5283,-2.3257,0.6643,-36.0625,27.7500,34.2500,22.1250,32.1250,-171.3125,0
1776971768.441,8.0493,4.1468,-0.0359,-0.4327,-0.0317,0.5881,-77.7000,2.2500,-32.5500,11.5640,0.7566,-0.5148,-1.3837,1.8106,-1.7789,-7.5000,40.0500,-185.5500,9.7200,-4.8200,-5.8900,-1.4148,-2.2329,0.8138,-30.5625,23.5625,41.8750,22.1250,32.1250,-171.3125,0
1776971768.446,8.1020,4.3048,-0.2131,-0.5939,-0.0032,0.6094,-77.7000,2.2500,-32.5500,11.4778,0.6560,-0.5602,-1.1255,1.6062,-1.6462,-7.5000,40.0500,-185.5500,9.7200,-4.8200,-5.8900,-1.4148,-2.2329,0.8138,-30.5625,23.5625,41.8750,22.1250,32.1250,-171.3125,0
1776971768.451,8.3653,4.5274,-0.7733,-0.5939,-0.0032,0.6094,-77.7000,2.2500,-32.5500,11.4778,0.6560,-0.5602,-1.1255,1.6062,-1.6462,-6.6000,43.9500,-187.2000,9.4500,-4.7600,-5.0200,-1.3614,-2.1129,0.9065,-30.5625,23.5625,41.8750,22.9375,31.0625,-171.0000,0
1776971768.458,8.3653,4.5274,-0.7733,-0.7525,0.0442,0.6363,-77.7000,2.2500,-32.5500,10.3358,1.0750,-1.1229,-1.2481,1.7459,-1.6132,-7.5000,50.2500,-189.7500,9.1200,-3.9300,-3.9500,-1.3450,-1.9984,0.9687,-30.5625,23.5625,41.8750,23.7500,30.0625,-170.6250,0
1776971768.462,8.5569,4.9129,-1.4820,-0.7762,0.1058,0.6702,-77.7000,1.5000,-32.8500,10.3358,1.0750,-1.1229,-1.2481,1.7459,-1.6132,-7.5000,50.2500,-189.7500,9.1200,-3.9300,-3.9500,-1.3450,-1.9984,0.9687,-30.5625,23.5625,41.8750,24.6250,29.1250,-170.4375,0
1776971768.471,8.5066,5.1284,-1.8148,-0.7533,0.1212,0.7173,-77.4000,1.9500,-31.8000,8.7747,0.2610,-2.3391,-1.5180,1.1482,-1.3323,-7.5000,50.2500,-189.7500,8.8000,-3.6200,-2.8700,-1.2403,-1.8839,1.1170,-30.5625,23.5625,41.8750,25.6250,28.3125,-170.3125,0
1776971768.482,8.3007,5.4468,-1.5874,-0.8122,0.1236,0.7541,-77.4000,2.2500,-31.3500,9.8904,-0.2514,-1.1779,-1.4597,1.3105,-1.2156,-7.5000,50.2500,-189.7500,8.6600,-5.3000,-2.1300,-1.0341,-1.6908,1.3450,-30.5625,23.5625,41.8750,25.6250,28.3125,-170.3125,0
1776971768.486,8.3007,5.4468,-1.5874,-0.8122,0.1236,0.7541,-77.4000,2.2500,-31.3500,12.2942,-1.2953,-0.3496,-1.0408,0.7829,-0.9097,-4.0500,67.9500,-199.2000,8.6600,-5.3000,-2.1300,-1.0341,-1.6908,1.3450,-30.5625,23.5625,41.8750,25.6250,28.3125,-170.3125,0
1776971768.492,8.4060,6.1148,-1.3096,-0.8290,0.1172,0.7930,-77.5500,0.1500,-33.7500,12.2942,-1.2953,-0.3496,-1.0408,0.7829,-0.9097,-4.0500,67.9500,-199.2000,9.1100,-5.7900,-2.1300,-0.9479,-1.4094,1.4999,-23.5000,19.0000,46.6875,26.6250,27.6875,-170.3125,0
1776971768.496,8.4060,6.1148,-1.3096,-0.8290,0.1172,0.7930,-77.5500,0.1500,-33.7500,10.9870,-0.5602,1.7382,-1.4757,0.8162,-0.6840,-0.1500,74.4000,-204.6000,9.1100,-5.7900,-2.1300,-0.9479,-1.4094,1.4999,-23.5000,19.0000,46.6875,26.6250,27.6875,-170.3125,0
1776971768.501,8.6503,6.5529,-1.1181,-0.7466,0.0877,0.8306,-77.4000,1.0500,-31.8000,10.9870,-0.5602,1.7382,-1.4757,0.8162,-0.6840,-0.1500,74.4000,-204.6000,9.8400,-5.6500,-1.9700,-1.0876,-1.0941,1.5555,-23.5000,19.0000,46.6875,27.6875,27.2500,-170.1875,0
1776971768.506,8.6503,6.5529,-1.1181,-0.7466,0.0877,0.8306,-77.4000,1.0500,-31.8000,10.6039,-0.1437,1.4222,-1.7882,0.7981,-0.4690,0.3000,79.5000,-205.8000,9.8400,-5.6500,-1.9700,-1.3123,-0.9228,1.6188,-23.5000,19.0000,46.6875,28.8125,26.8750,-169.9375,0
1776971768.512,8.6526,6.8450,-0.8260,-0.6478,0.0714,0.8540,-78.4500,0.3000,-31.0500,11.4156,-0.4381,2.0997,-1.7587,0.7397,-0.2851,0.3000,79.5000,-205.8000,10.0300,-5.2600,-1.6000,-1.3123,-0.9228,1.6188,-23.5000,19.0000,46.6875,30.0000,26.6250,-169.6875,0
1776971768.522,8.6646,6.9240,-0.6871,-0.6027,0.0882,0.8791,-78.4500,0.3000,-31.0500,11.0636,-0.4334,2.5929,-1.7701,0.4978,-0.0690,3.1500,82.8000,-211.5000,9.6300,-4.5600,0.0200,-1.3843,-0.7985,1.7104,-23.5000,19.0000,46.6875,30.0000,26.6250,-169.6875,0
1776971768.532,8.7676,6.6702,-1.0151,-0.5745,0.1623,0.8860,-78.3000,1.3500,-30.9000,11.2120,0.0024,2.8467,-1.8237,0.2340,0.1689,3.1500,82.8000,-211.5000,9.2300,-4.2200,0.9900,-1.2959,-0.6469,1.7890,-23.5000,19.0000,46.6875,31.1875,26.4375,-169.5000,0
1776971768.536,8.7676,6.6702,-1.0151,-0.5745,0.1623,0.8860,-78.3000,1.3500,-30.9000,11.2120,0.0024,2.8467,-1.8237,0.2340,0.1689,8.1000,90.4500,-216.3000,9.2300,-4.2200,0.9900,-1.2959,-0.6469,1.7890,-23.5000,19.0000,46.6875,32.3750,26.4375,-169.3750,0
1776971768.542,8.8777,6.2752,-1.9034,-0.5433,0.2204,0.8644,-78.3000,1.3500,-30.9000,11.3342,0.2035,2.2553,-2.0789,0.9958,0.3301,8.1000,90.4500,-216.3000,9.1900,-3.9000,1.7900,-1.1857,-0.3752,1.8370,-16.5625,15.0625,47.3750,32.3750,26.4375,-169.3750,0
1776971768.546,8.8777,6.2752,-1.9034,-0.5433,0.2204,0.8644,-78.3000,1.3500,-30.9000,11.3342,0.2035,2.2553,-2.0789,0.9958,0.3301,9.3000,96.7500,-217.6500,9.1900,-3.9000,1.7900,-1.1857,-0.3752,1.8370,-16.5625,15.0625,47.3750,32.3750,26.4375,-169.3750,0
1776971768.551,9.0429,5.6575,-2.7246,-0.5348,0.2180,0.8154,-78.1500,0.7500,-31.0500,10.9535,0.3472,1.2186,-2.1634,0.3938,0.5620,9.3000,96.7500,-217.6500,9.5200,-3.4800,2.3900,-1.0974,-0.0175,1.8610,-16.5625,15.0625,47.3750,33.5625,26.5625,-169.2500,0
1776971768.558,8.8992,4.9704,-2.7054,-0.5974,0.1713,0.7392,-78.1500,0.7500,-31.0500,10.9535,0.3472,1.2186,-2.1634,0.3938,0.5620,11.5500,99.3000,-217.9500,10.0000,-3.0900,2.3000,-1.0025,0.4222,1.8686,-16.5625,15.0625,47.3750,34.6875,27.0000,-169.1875,0
1776971768.563,8.8992,4.9704,-2.7054,-0.5974,0.1713,0.7392,-77.2500,0.4500,-30.9000,11.2384,0.8116,1.0271,-1.9478,-0.3128,0.7602,11.5500,99.3000,-217.9500,10.0000,-3.0900,2.3000,-1.0025,0.4222,1.8686,-16.5625,15.0625,47.3750,35.8125,27.6875,-169.1875,0
1776971768.572,8.6957,4.5059,-2.0351,-0.7674,0.1394,0.6920,-78.3000,-1.3500,-31.2000,11.4251,1.7813,1.5251,-1.7952,-1.1914,0.8767,10.3500,100.6500,-219.1500,10.6900,-2.9700,1.9000,-0.8727,0.8258,1.8937,-16.5625,15.0625,47.3750,36.9375,28.5000,-169.3125,0
1776971768.582,8.2121,4.0773,-1.4102,-0.8958,0.1114,0.7093,-78.0000,-0.9000,-29.7000,10.9104,2.3367,2.6264,-1.5218,-1.9145,1.0416,10.9500,99.4500,-218.5500,11.9700,-1.8100,0.5700,-0.7538,1.1585,1.9242,-16.5625,15.0625,47.3750,36.9375,28.5000,-169.3125,0
1776971768.587,8.2001,4.5586,-1.5179,-0.7930,0.1727,0.7789,-78.0000,-0.9000,-29.7000,10.9104,2.3367,2.6264,-1.5218,-1.9145,1.0416,10.9500,99.4500,-218.5500,11.9700,-1.8100,0.5700,-0.7538,1.1585,1.9242,-16.5625,15.0625,47.3750,36.9375,28.5000,-169.3125,0
1776971768.592,8.2001,4.5586,-1.5179,-0.7930,0.1727,0.7789,-78.9000,0.0000,-28.0500,9.3948,3.0071,3.3662,-1.0677,-2.1378,1.0016,10.9500,99.4500,-218.5500,-2.2900,-0.4000,-4.3400,-0.6283,1.2370,1.9177,-13.5625,12.5000,47.3750,38.0000,29.3750,-169.4375,0
1776971768.597,8.7005,4.9895,-1.5850,-0.5758,0.3011,0.9284,-78.9000,0.0000,-28.0500,9.3948,3.0071,3.3662,-1.0677,-2.1378,1.0016,7.9500,98.5500,-220.5000,-2.2900,-0.4000,-4.3400,-0.6283,1.2370,1.9177,-13.5625,12.5000,47.3750,38.0000,29.3750,-169.4375,0
1776971768.602,8.7005,4.9895,-1.5850,-0.5758,0.3011,0.9284,-77.2500,0.4500,-28.6500,7.5010,5.5019,2.9664,-0.2803,-1.9534,0.6915,7.9500,98.5500,-220.5000,10.2500,9.9400,-10.6000,0.3054,1.0559,2.2438,-13.5625,12.5000,47.3750,39.1875,30.1250,-170.2500,0
1776971768.607,10.1514,4.3886,-1.6161,-0.4082,0.4783,1.1229,-77.2500,0.4500,-28.6500,7.5010,5.5019,2.9664,-0.2803,-1.9534,0.6915,5.5500,101.4000,-220.6500,10.2500,9.9400,-10.6000,0.6883,1.6144,2.9987,-13.5625,12.5000,47.3750,40.6875,31.3125,-171.5625,0
1776971768.612,10.1514,4.3886,-1.6161,-0.4082,0.4783,1.1229,-77.2500,0.4500,-28.6500,6.5888,6.5266,4.4125,-0.1135,-1.3504,0.1079,5.5500,101.4000,-220.6500,-10.3700,-1.4800,-10.7000,0.6883,1.6144,2.9987,-13.5625,12.5000,47.3750,41.9375,32.4375,-172.1875,0
1776971768.622,11.6574,3.2226,-0.5291,-0.4884,0.3813,1.3225,-77.2500,-0.1500,-28.2000,10.9391,8.8202,2.2984,-0.6182,-0.5121,-0.5007,4.6500,105.3000,-220.5000,5.0400,19.7500,-14.3300,-0.1178,1.6886,2.4151,-13.5625,12.5000,47.3750,42.6875,33.4375,-172.0625,0
1776971768.632,12.7491,1.6592,-0.5052,-0.6275,0.2942,1.4973,-77.2500,-0.1500,-28.2000,14.9757,9.2392,0.1006,-0.1966,-0.0432,-0.1916,1.8000,110.2500,-221.8500,4.7800,21.2500,-0.5800,-0.9130,1.7290,1.1617,-13.5625,12.5000,47.3750,42.6875,33.4375,-172.0625,0
1776971768.637,16.0483,2.5019,-3.6129,-0.2166,0.3360,1.7930,-77.2500,-0.1500,-28.2000,14.9757,9.2392,0.1006,-0.1966,-0.0432,-0.1916,-2.8500,115.0500,-220.8000,4.7800,21.2500,-0.5800,-0.9130,1.7290,1.1617,-13.5625,12.5000,47.3750,42.6875,33.4375,-172.0625,0
1776971768.642,16.0483,2.5019,-3.6129,-0.2166,0.3360,1.7930,-78.3000,-1.3500,-28.2000,16.3500,7.9799,-0.1293,0.2006,0.2502,0.3163,-2.8500,115.0500,-220.8000,14.9800,22.3500,-9.2200,-0.2105,2.9823,0.7101,-13.8750,12.6875,46.5625,43.0000,35.1250,-172.0000,0
1776971768.647,16.8432,5.2577,-4.0510,-0.4399,0.0352,1.9164,-78.3000,-1.3500,-28.2000,16.3500,7.9799,-0.1293,0.2006,0.2502,0.3163,-2.8500,115.0500,-220.8000,14.9800,22.3500,-9.2200,-0.2105,2.9823,0.7101,-13.8750,12.6875,46.5625,43.0000,35.1250,-172.0000,0
1776971768.652,16.8432,5.2577,-4.0510,-0.4399,0.0352,1.9164,-78.0000,-1.3500,-28.2000,17.8919,3.6655,-0.0359,0.9595,0.2990,0.5910,-2.8500,115.0500,-220.8000,16.2100,1.8900,-9.7500,1.2719,1.7573,0.4091,-13.8750,12.6875,46.5625,43.0000,36.1250,-172.8125,0
1776971768.660,12.5911,6.1675,1.2282,-1.8151,-0.0666,1.5218,-78.0000,-1.3500,-28.6500,14.2048,-3.9600,-0.2203,1.6694,-0.2190,0.8918,-4.8000,139.2000,-234.9000,11.4200,-2.3100,-6.0000,1.6352,2.5558,0.6829,-13.8750,12.6875,46.5625,43.0000,37.6250,-173.8750,0
1776971768.665,10.2520,3.6655,4.5729,-2.0051,0.3272,1.1032,-77.7000,-2.2500,-27.7500,14.2048,-3.9600,-0.2203,1.6694,-0.2190,0.8918,-1.9500,154.6500,-239.1000,11.4200,-2.3100,-6.0000,1.6352,2.5558,0.6829,-13.8750,12.6875,46.5625,42.8750,38.5000,-175.1250,0
1776971768.672,9.8378,0.2777,3.9480,-2.0051,0.3272,1.1032,-76.6500,-2.2500,-26.5500,12.0237,-7.3287,-2.8323,1.1415,0.2862,1.0024,-1.9500,154.6500,-239.1000,10.5400,-7.1800,-10.5000,1.9177,1.5664,0.5727,-13.8750,12.6875,46.5625,42.8125,38.7500,-176.1875,0
1776971768.682,8.5928,-2.6408,2.6959,-1.1074,0.6528,0.9449,-77.7000,-3.9000,-25.5000,8.6646,-5.8299,-0.7183,1.9028,-0.8082,1.5551,-1.9500,155.4000,-238.0500,6.5200,-9.5000,-10.9600,1.6046,0.4178,0.4920,-13.8750,12.6875,46.5625,42.8125,38.7500,-176.1875,0
1776971768.687,8.5928,-2.6408,2.6959,-0.1420,0.5375,0.9694,-77.7000,-3.9000,-25.5000,7.8362,-3.1867,-0.1317,1.4631,-0.8466,1.3763,1.5000,153.1500,-239.5500,6.5200,-9.5000,-10.9600,1.6046,0.4178,0.4920,-13.8750,12.6875,46.5625,42.7500,39.1875,-176.4375,0
1776971768.692,7.2568,-4.6160,1.8076,-0.1420,0.5375,0.9694,-115.0500,-3.9000,-25.5000,7.8362,-3.1867,-0.1317,1.4631,-0.8466,1.3763,1.5000,153.1500,-239.5500,6.3000,-2.6600,-8.4100,0.4102,0.7712,0.0349,-16.0625,14.5000,44.6875,42.7500,39.1875,-176.4375,0
1776971768.697,7.2568,-4.6160,1.8076,0.3360,0.6872,1.0371,-76.6500,-4.2000,-25.5000,8.3486,-2.3080,3.5889,0.0413,-0.7743,1.3784,5.8500,145.6500,-234.4500,6.3000,-2.6600,-8.4100,0.4102,0.7712,0.0349,-16.0625,14.5000,44.6875,42.6875,40.0000,-176.1250,0
1776971768.702,7.0653,-4.9368,0.5243,0.4620,0.7600,1.1064,-76.6500,-4.2000,-25.5000,8.3486,-2.3080,3.5889,0.0413,-0.7743,1.3784,5.8500,145.6500,-234.4500,7.4000,1.1900,-8.0200,-0.2662,1.5108,-0.2171,-16.0625,14.5000,44.6875,42.6875,40.0000,-176.1250,0
1776971768.707,7.0653,-4.9368,0.5243,0.4620,0.7600,1.1064,-76.6500,-4.2000,-25.5000,8.2959,-3.2226,6.3207,-0.6630,-0.7973,1.2788,5.8500,145.6500,-234.4500,7.4000,1.1900,-8.0200,-0.2411,1.2992,-0.1571,-16.0625,14.5000,44.6875,42.6250,40.6875,-175.8750,0
1776971768.713,7.7452,-3.8116,-0.4429,0.0405,0.7445,1.1556,-77.4000,-4.2000,-24.3000,8.2959,-3.2226,6.3207,-0.6630,-0.7973,1.2788,7.8000,109.6500,-224.5500,7.9800,2.2500,-6.9300,-0.2411,1.2992,-0.1571,-16.0625,14.5000,44.6875,42.5625,41.0000,-175.8750,0
1776971768.722,8.7364,-2.2362,-0.8404,-0.5742,0.5460,1.2079,-77.4000,-4.2000,-24.3000,8.5281,-3.6727,6.0047,-0.5303,-0.9228,1.2820,11.4000,89.7000,-219.6000,6.9300,0.9900,-7.3000,0.0011,0.4985,-0.0469,-16.0625,14.5000,44.6875,42.6250,41.0000,-175.9375,0
1776971768.732,9.5361,-0.8547,-1.0630,-1.1746,0.2702,1.2225,-77.4000,-4.2000,-24.3000,8.5138,-4.0941,5.1164,-0.3781,-1.0461,1.3006,13.9500,76.2000,-213.4500,6.9800,0.6000,-7.2000,0.0415,-0.0022,0.0818,-16.0625,14.5000,44.6875,42.6250,41.0000,-175.9375,0
1776971768.737,9.5361,-0.8547,-1.0630,-1.1746,0.2702,1.2225,-78.4500,-5.4000,-23.2500,9.6582,-2.5618,3.0813,-0.4932,-0.9100,1.2188,13.9500,76.2000,-213.4500,6.9800,0.6000,-7.2000,0.0415,-0.0022,0.0818,-16.0625,14.5000,44.6875,42.6250,41.0000,-175.9375,0
1776971768.742,9.7971,0.3136,-0.4094,-1.6174,0.0770,1.1655,-78.4500,-5.4000,-23.2500,9.6582,-2.5618,3.0813,-0.4932,-0.9100,1.2188,16.0500,67.6500,-207.7500,6.1100,0.2400,-8.0400,-0.1036,-0.4767,0.1669,-18.2500,16.0000,42.6875,42.7500,40.7500,-175.9375,0
1776971768.747,9.7971,0.3136,-0.4094,-1.6174,0.0770,1.1655,-77.7000,-6.1500,-22.9500,9.5600,-1.5347,0.7733,-0.5497,-0.6901,1.1040,16.0500,67.6500,-207.7500,6.1100,0.2400,-8.0400,-0.1036,-0.4767,0.1669,-18.2500,16.0000,42.6875,42.7500,40.7500,-175.9375,0
1776971768.752,9.8713,0.3089,1.2186,-1.8135,0.0362,1.0496,-77.7000,-6.1500,-22.9500,9.5600,-1.5347,0.7733,-0.5497,-0.6901,1.1040,18.1500,62.5500,-205.2000,6.2900,0.2700,-8.0400,-0.0698,-0.4178,0.1538,-18.2500,16.0000,42.6875,42.8750,40.5000,-176.0000,0
1776971768.760,9.8976,0.1221,2.5450,-1.6390,0.0727,0.9214,-77.4000,-5.8500,-24.0000,10.2304,-0.4788,-0.2777,-0.7647,-0.5644,0.9105,18.1500,62.5500,-205.2000,6.4900,0.1600,-7.9200,0.0491,0.1538,0.0404,-18.2500,16.0000,42.6875,42.8750,40.6250,-176.0625,0
1776971768.765,9.8976,0.1221,2.5450,-1.6390,0.0727,0.9214,-76.9500,-4.2000,-22.5000,10.1490,0.6608,-0.1891,-0.9545,-0.3357,0.7589,18.1500,62.5500,-205.2000,6.4900,0.1600,-7.9200,0.0491,0.1538,0.0404,-18.2500,16.0000,42.6875,42.8125,40.8125,-176.1250,0
1776971768.772,9.6630,-0.1867,3.0502,-1.2894,0.2134,0.8015,-76.9500,-5.8500,-23.2500,10.1490,0.6608,-0.1891,-0.9545,-0.3357,0.7589,16.2000,58.0500,-200.8500,6.4300,0.1700,-7.8800,0.1298,0.3600,0.0120,-18.2500,16.0000,42.6875,42.7500,41.0000,-176.1875,0
1776971768.782,9.4499,0.2801,3.2417,-0.8998,0.2944,0.6869,-76.9500,-5.8500,-23.2500,8.8753,-0.3711,-0.2298,-0.9699,-0.1599,0.5596,14.2500,56.4000,-201.7500,6.3200,0.1300,-7.8000,0.2258,0.4025,0.0055,-18.2500,16.0000,42.6875,42.7500,41.0000,-176.1875,0
1776971768.787,9.4499,0.2801,3.2417,-0.8998,0.2944,0.6869,-78.3000,-5.2500,-22.3500,9.3613,-1.1564,0.1053,-0.8575,0.0965,0.3669,14.2500,56.4000,-201.7500,6.3200,0.1300,-7.8000,0.2258,0.4025,0.0055,-17.1875,16.2500,43.8750,42.7500,41.2500,-176.3125,0
1776971768.792,9.3134,0.1293,2.9113,-0.6488,0.4141,0.5844,-78.3000,-5.2500,-22.3500,9.3613,-1.1564,0.1053,-0.6659,0.0189,0.3214,10.8000,57.7500,-200.1000,6.4200,0.1700,-7.6900,0.2400,0.3894,-0.0022,-17.1875,16.2500,43.8750,42.7500,41.2500,-176.3125,0
1776971768.797,9.3230,0.1508,2.2673,-0.6488,0.4141,0.5844,-78.3000,-5.2500,-22.3500,9.6007,-1.0199,0.3543,-0.6659,0.0189,0.3214,10.8000,57.7500,-200.1000,6.4200,0.1700,-7.6900,0.2400,0.3894,-0.0022,-17.1875,16.2500,43.8750,42.6250,41.5000,-176.4375,0
1776971768.802,9.3230,0.1508,2.2673,-0.4815,0.4916,0.5295,-78.3000,-5.2500,-22.3500,9.5433,-0.9912,1.4772,-0.4053,-0.1447,0.3701,8.4000,61.6500,-201.0000,6.5200,0.2300,-7.6300,0.2476,0.4680,-0.0295,-17.1875,16.2500,43.8750,42.6250,41.5000,-176.4375,0
1776971768.807,9.2440,0.0359,1.7597,-0.4815,0.4916,0.5295,-76.6500,-4.9500,-22.9500,9.5433,-0.9912,1.4772,-0.4053,-0.1447,0.3701,8.4000,61.6500,-201.0000,6.5200,0.2300,-7.6300,0.2160,0.5138,-0.0676,-17.1875,16.2500,43.8750,42.5625,41.7500,-176.5000,0
1776971768.813,9.2440,0.0359,1.7597,-0.3467,0.5177,0.4908,-76.6500,-4.9500,-22.9500,9.3757,-1.5060,2.1572,-0.1799,-0.2979,0.4242,7.0500,63.1500,-203.1000,6.7000,0.3600,-7.4300,0.2160,0.5138,-0.0676,-17.1875,16.2500,43.8750,42.4375,42.0000,-176.5625,0
1776971768.822,9.0644,-0.6249,1.6137,-0.3070,0.5449,0.4338,-76.6500,-4.9500,-22.9500,9.1530,-2.2984,2.8611,-0.1998,-0.3760,0.4876,7.0500,63.1500,-203.1000,6.4600,0.4100,-7.3000,0.1494,0.4396,-0.0862,-17.1875,16.2500,43.8750,42.4375,42.0000,-176.5625,0
1776971768.832,9.4284,-1.2378,1.5778,-0.4434,0.5348,0.3677,-78.4500,-6.9000,-22.5000,9.2105,-3.2872,3.1125,-0.4069,-0.4525,0.5516,5.5500,67.6500,-207.1500,6.2200,0.3000,-7.4000,0.0894,0.3033,-0.0796,-17.1875,16.2500,43.8750,42.3750,42.1875,-176.5625,0
1776971768.837,9.8330,-1.8004,1.3886,-0.7368,0.4381,0.3179,-78.4500,-4.6500,-23.2500,9.2105,-3.2872,3.1125,-0.4069,-0.4525,0.5516,5.5500,67.6500,-207.1500,6.2200,0.3000,-7.4000,0.0894,0.3033,-0.0796,-17.1875,16.2500,43.8750,42.3750,42.1875,-176.5625,0
1776971768.842,9.8330,-1.8004,1.3886,-0.7368,0.4381,0.3179,-78.4500,-4.6500,-23.2500,9.5888,-3.1819,3.1316,-0.6342,-0.5201,0.6563,5.8500,67.6500,-205.6500,5.9100,0.3200,-7.3700,0.0382,0.1680,-0.0611,-18.5625,16.3750,42.6875,42.3750,42.2500,-176.5625,0
1776971768.847,10.0987,-2.0758,1.3360,-1.1178,0.2966,0.2848,-78.0000,-5.2500,-22.3500,9.5888,-3.1819,3.1316,-0.6342,-0.5201,0.6563,5.8500,67.6500,-205.6500,5.9100,0.3200,-7.3700,0.0382,0.1680,-0.0611,-18.5625,16.3750,42.6875,42.3750,42.2500,-176.5625,0
1776971768.852,10.0987,-2.0758,1.3360,-1.1178,0.2966,0.2848,-78.0000,-5.2500,-22.3500,9.7133,-2.9257,2.5331,-0.8447,-0.6230,0.7453,7.3500,68.4000,-207.7500,6.2000,0.3100,-7.6000,-0.0415,0.1484,-0.0371,-18.5625,16.3750,42.6875,42.3125,42.3750,-176.5000,0
1776971768.859,10.1754,-2.0614,1.6592,-1.5012,0.1636,0.2515,-77.5500,-6.7500,-22.3500,9.7133,-2.9257,2.5331,-0.8447,-0.6230,0.7453,9.0000,65.5500,-206.5500,6.6500,0.2800,-7.5600,-0.1047,0.2389,-0.0273,-18.5625,16.3750,42.6875,42.3750,42.5000,-176.3750,0
1776971768.864,9.8833,-1.3455,2.1572,-1.5012,0.1636,0.2515,-78.7500,-4.8000,-23.1000,9.9048,-2.9113,1.7023,-0.9979,-0.5582,0.7352,9.0000,65.5500,-206.5500,6.6500,0.2800,-7.5600,-0.1047,0.2389,-0.0273,-18.5625,16.3750,42.6875,42.3750,42.6250,-176.3125,0
1776971768.873,9.8833,-1.3455,2.1572,-1.7912,0.1439,0.2289,-78.7500,-4.8000,-23.1000,9.9886,-2.7270,0.5267,-1.1748,-0.5116,0.6829,9.3000,65.2500,-206.5500,6.6000,0.3000,-7.5200,-0.1516,0.2956,-0.0316,-18.5625,16.3750,42.6875,42.3750,42.8125,-176.1875,0
1776971768.883,9.7564,-1.2163,2.6360,-1.9332,0.1314,0.2425,-77.5500,-4.8000,-20.5500,9.7205,-2.2793,0.1532,-1.2444,-0.4306,0.5881,9.3000,65.2500,-206.5500,6.6500,0.1900,-7.5800,-0.1440,0.2945,-0.0436,-18.5625,16.3750,42.6875,42.3750,42.8125,-176.1875,0
1776971768.887,9.5098,-0.8811,2.7438,-1.9622,0.1234,0.2491,-77.5500,-4.8000,-20.5500,9.7205,-2.2793,0.1532,-1.2444,-0.4306,0.5881,9.3000,65.2500,-206.5500,6.6500,0.1900,-7.5800,-0.1440,0.2945,-0.0436,-19.0000,16.0625,42.6875,42.3125,43.0000,-176.0625,0
1776971768.893,9.5098,-0.8811,2.7438,-1.9622,0.1234,0.2491,-77.5500,-4.8000,-20.5500,9.3230,-1.6209,0.2370,-1.2500,-0.3230,0.4549,10.9500,64.6500,-205.3500,6.5000,0.0800,-7.5200,-0.1025,0.3556,-0.0698,-19.0000,16.0625,42.6875,42.3125,43.0000,-176.0625,0
1776971768.898,9.3398,-0.5914,2.5091,-1.9223,0.1007,0.2595,-78.0000,-4.8000,-20.8500,9.3230,-1.6209,0.2370,-1.2500,-0.3230,0.4549,10.9500,64.6500,-205.3500,6.5000,0.0800,-7.5200,-0.1025,0.3556,-0.0698,-19.0000,16.0625,42.6875,42.3125,43.2500,-176.0000,0
1776971768.903,9.3613,-0.2179,2.2170,-1.9223,0.1007,0.2595,-78.0000,-4.8000,-20.8500,9.2847,-1.5299,0.8619,-1.2441,-0.2001,0.3304,10.0500,65.2500,-207.6000,6.5300,0.2900,-7.4400,-0.0535,0.4396,-0.0862,-19.0000,16.0625,42.6875,42.3125,43.2500,-176.0000,0
1776971768.909,9.3613,-0.2179,2.2170,-1.8548,0.0624,0.2657,-78.0000,-4.8000,-20.8500,9.3278,-1.2689,1.0080,-1.2870,-0.1455,0.2526,8.4000,63.1500,-205.6500,6.4600,0.3800,-7.3100,-0.0338,0.4811,-0.0938,-19.0000,16.0625,42.6875,42.2500,43.5000,-175.8750,0
1776971768.914,9.4619,0.0742,1.9082,-1.8173,0.0059,0.2795,-77.5500,-4.8000,-20.8500,9.3278,-1.2689,1.0080,-1.2870,-0.1455,0.2526,8.4000,63.1500,-205.6500,6.4600,0.3800,-7.3100,-0.0338,0.4811,-0.0938,-19.0000,16.0625,42.6875,42.1875,43.7500,-175.8125,0
1776971768.922,9.3901,0.2274,1.9297,-1.8173,0.0059,0.2795,-77.5500,-4.8000,-20.8500,9.1602,-0.8739,1.4293,-1.2116,-0.2747,0.2617,8.2500,62.2500,-207.3000,6.6700,0.4300,-7.2300,-0.0273,0.4767,-0.0971,-19.0000,16.0625,42.6875,42.1250,44.0000,-175.7500,0
1776971768.932,9.0644,0.2993,2.1261,-1.8666,-0.0333,0.3056,-76.2000,-3.9000,-21.4500,9.1075,-0.9026,0.7542,-1.0006,-0.4383,0.2830,8.2500,62.2500,-207.3000,6.6500,0.4800,-7.1500,-0.0371,0.4461,-0.0905,-19.0000,16.0625,42.6875,42.1250,44.0000,-175.7500,0
1776971768.937,9.0644,0.2993,2.1261,-1.8666,-0.0333,0.3056,-77.7000,-5.4000,-21.7500,9.0429,-1.3001,1.6233,-0.8681,-0.3203,0.2785,8.2500,62.2500,-207.3000,6.6500,0.4800,-7.1500,-0.0371,0.4461,-0.0905,-19.0000,16.0625,42.6875,42.1250,44.1875,-175.6250,0
1776971768.942,9.1123,0.3280,2.4517,-1.8293,-0.0362,0.3038,-77.7000,-5.4000,-21.7500,9.0429,-1.3001,1.6233,-0.8681,-0.3203,0.2785,8.2500,62.2500,-207.3000,6.6400,0.5800,-7.1700,-0.0556,0.3862,-0.0785,-19.3750,16.3750,42.3750,42.1250,44.1875,-175.6250,0
1776971768.947,9.1123,0.3280,2.4517,-1.8293,-0.0362,0.3038,-78.7500,-3.3000,-21.9000,9.4164,-1.8435,1.1325,-0.8607,-0.3110,0.2867,8.2500,62.2500,-207.3000,6.6400,0.5800,-7.1700,-0.0556,0.3862,-0.0785,-19.3750,16.3750,42.3750,42.1250,44.1875,-175.6250,0
1776971768.952,9.0812,0.4788,2.8036,-1.7219,-0.0093,0.2918,-78.7500,-3.3000,-21.9000,9.4164,-1.8435,1.1325,-0.8607,-0.3110,0.2867,6.3000,62.7000,-209.5500,7.1300,0.8800,-6.9600,-0.0829,0.3174,-0.0458,-19.3750,16.3750,42.3750,42.0625,44.3750,-175.5625,0
1776971768.961,9.3877,0.4573,3.1101,-1.7219,-0.0093,0.2918,-77.5500,-4.5000,-21.6000,9.2943,-1.9417,0.9313,-0.8660,-0.2414,0.3112,6.9000,63.3000,-209.4000,6.6100,0.6000,-6.9700,-0.1374,0.2433,0.0164,-19.3750,16.3750,42.3750,42.1250,44.5000,-175.5000,0
1776971768.966,9.3877,0.4573,3.1101,-1.5154,0.0104,0.2958,-77.4000,-4.6500,-21.4500,9.2943,-1.9417,0.9313,-0.8660,-0.2414,0.3112,6.9000,63.3000,-209.4000,6.6100,0.6000,-6.9700,-0.1374,0.2433,0.0164,-19.3750,16.3750,42.3750,42.1875,44.5625,-175.4375,0
1776971768.973,9.4092,0.5076,3.0813,-1.2782,0.0253,0.2979,-77.4000,-4.6500,-21.4500,9.6055,-2.0399,0.4621,-0.8404,-0.3104,0.3437,7.0500,64.6500,-209.5500,7.0400,0.7500,-7.1500,-0.2182,0.1254,0.0785,-19.3750,16.3750,42.3750,42.3125,44.6250,-175.3125,0
1776971768.983,9.4284,0.4262,2.8132,-1.0459,0.0250,0.2891,-77.4000,-4.6500,-21.4500,9.6534,-1.8316,0.6105,-0.8322,-0.3952,0.3872,7.9500,64.0500,-210.1500,6.6400,0.5100,-7.0700,-0.2563,0.0469,0.0916,-19.3750,16.3750,42.3750,42.3125,44.6250,-175.3125,0
1776971768.988,9.4284,0.4262,2.8132,-1.0459,0.0250,0.2891,-77.2500,-3.6000,-21.9000,9.5481,-1.7645,0.6416,-0.7906,-0.4301,0.3813,7.9500,64.0500,-210.1500,6.6400,0.5100,-7.0700,-0.2563,0.0469,0.0916,-19.3750,16.3750,42.3750,42.3125,44.6250,-175.3125,0
1776971768.993,9.3589,0.4429,2.4636,-0.8577,0.0493,0.2896,-77.2500,-3.6000,-21.9000,9.5481,-1.7645,0.6416,-0.7906,-0.4301,0.3813,7.9500,64.0500,-210.1500,6.7200,0.4400,-6.7900,-0.2749,-0.0098,0.0916,-21.1875,15.2500,43.1875,42.4375,44.6250,-175.1875,0
1776971768.998,9.3589,0.4429,2.4636,-0.8577,0.0493,0.2896,-77.2500,-3.6000,-21.9000,9.3565,-1.3360,0.6560,-0.7560,-0.3512,0.3301,7.9500,64.0500,-210.1500,6.7200,0.4400,-6.7900,-0.2749,-0.0098,0.0916,-21.1875,15.2500,43.1875,42.4375,44.6250,-175.1875,0
1776971769.003,9.2895,0.3496,2.1883,-0.7088,0.0642,0.2806,-77.2500,-3.6000,-21.9000,9.3565,-1.3360,0.6560,-0.7560,-0.3512,0.3301,7.9500,64.0500,-210.1500,5.8800,0.6000,-7.7800,-0.3163,-0.0633,0.1462,-21.1875,15.2500,43.1875,42.5625,44.5625,-175.1250,0
1776971769.009,9.3015,0.2610,2.1261,-0.6073,0.0663,0.2787,-76.6500,-3.9000,-20.2500,9.3039,-1.1612,0.6560,-0.7099,-0.2505,0.2657,7.8000,63.9000,-208.2000,6.3800,0.5400,-7.0500,-0.1713,0.0262,0.1025,-21.1875,15.2500,43.1875,42.6875,44.6250,-175.0625,0
1776971769.014,9.3015,0.2610,2.1261,-0.6073,0.0663,0.2787,-76.6500,-3.9000,-20.2500,9.3039,-1.1612,0.6560,-0.7099,-0.2505,0.2657,7.8000,63.9000,-208.2000,6.3800,0.5400,-7.0500,-0.1713,0.0262,0.1025,-21.1875,15.2500,43.1875,42.7500,44.7500,-175.0625,0
1776971769.023,9.3326,0.1939,1.9225,-0.5617,0.0549,0.2870,-76.6500,-4.9500,-21.7500,9.3470,-0.6249,0.8092,-0.5569,-0.1687,0.2342,8.4000,63.9000,-210.0000,6.5600,0.8700,-6.9100,-0.0567,0.2040,0.0884,-21.1875,15.2500,43.1875,52.5000,44.8125,-175.1250,0
1776971769.033,9.4475,0.1532,1.7693,-0.5438,0.0434,0.2936,-76.5000,-4.0500,-21.1500,9.4978,-0.5914,0.9361,-0.3725,-0.1567,0.2417,7.8000,64.2000,-210.3000,6.5400,0.8200,-6.9500,-0.0284,0.2029,0.1178,-21.1875,15.2500,43.1875,52.5000,44.8125,-175.1250,0
1776971769.038,9.7492,0.1820,1.4964,-0.5438,0.0434,0.2936,-77.4000,-4.9500,-21.4500,9.7564,-1.4102,0.8236,-0.3365,-0.2241,0.2489,8.2500,66.0000,-211.5000,6.5400,0.8200,-6.9500,-0.0284,0.2029,0.1178,-21.1875,15.2500,43.1875,52.5000,44.9375,-175.1875,0
1776971769.043,9.7492,0.1820,1.4964,-0.5622,0.0322,0.2982,-77.4000,-4.9500,-21.4500,9.7564,-1.4102,0.8236,-0.3365,-0.2241,0.2489,8.2500,66.0000,-211.5000,6.7800,0.6500,-6.9200,-0.0513,0.1494,0.1374,-20.8750,16.1875,42.3750,52.5000,44.9375,-175.1875,0
1776971769.048,9.9599,0.3041,1.3168,-0.5622,0.0322,0.2982,-76.2000,-4.2000,-20.2500,9.9599,-2.2936,0.4549,-0.3781,-0.3155,0.2926,8.2500,66.0000,-211.5000,6.7800,0.6500,-6.9200,-0.0513,0.1494,0.1374,-20.8750,16.1875,42.3750,52.5000,45.0000,-175.1875,0
1776971769.053,9.9599,0.3041,1.3168,-0.6001,0.0053,0.3035,-76.2000,-4.2000,-20.2500,9.9599,-2.2936,0.4549,-0.3781,-0.3155,0.2926,8.2500,66.0000,-211.5000,6.9400,0.3200,-7.3100,-0.0938,0.1647,0.1451,-20.8750,16.1875,42.3750,52.5000,45.0000,-175.1875,0
1776971769.059,9.8617,0.3855,1.1636,-0.6600,-0.0149,0.3099,-78.0000,-3.6000,-21.6000,10.2232,-2.2218,0.3472,-0.4258,-0.4311,0.3445,7.9500,64.8000,-210.4500,7.0300,0.3800,-7.2000,-0.1113,0.1582,0.1178,-20.8750,16.1875,42.3750,52.5625,45.1250,-175.1875,0
1776971769.064,9.8617,0.3855,1.1636,-0.6600,-0.0149,0.3099,-78.0000,-3.6000,-21.6000,9.8593,-1.8771,0.4812,-0.5049,-0.5353,0.3770,7.9500,64.8000,-210.4500,7.0300,0.3800,-7.2000,-0.1113,0.1582,0.1178,-20.8750,16.1875,42.3750,52.6250,45.2500,-175.1875,0
1776971769.073,9.6534,0.3424,1.1875,-0.7530,-0.0240,0.2979,-78.0000,-3.6000,-21.6000,9.8593,-1.8771,0.4812,-0.5875,-0.5391,0.3762,8.8500,63.9000,-212.8500,7.0400,0.3500,-7.1800,-0.1113,0.2160,0.0851,-20.8750,16.1875,42.3750,52.6875,45.3750,-175.1250,0
1776971769.083,9.5577,0.3448,1.2977,-0.8535,-0.0357,0.2777,-77.7000,-3.9000,-20.7000,9.5433,-1.7526,0.6752,-0.6267,-0.4871,0.3603,8.7000,63.0000,-212.2500,7.1300,0.3700,-7.1400,-0.0993,0.2378,0.0665,-20.8750,16.1875,42.3750,52.6875,45.3750,-175.1250,0
1776971769.088,9.6271,0.2035,1.4317,-0.9358,-0.0546,0.2526,-77.7000,-3.9000,-20.7000,9.5433,-1.7526,0.6752,-0.6267,-0.4871,0.3603,7.8000,63.4500,-211.6500,7.1300,0.3700,-7.1400,-0.0993,0.2378,0.0665,-20.8750,16.1875,42.3750,52.6875,45.3750,-175.1250,0
1776971769.093,9.6271,0.2035,1.4317,-0.9358,-0.0546,0.2526,-77.7000,-3.9000,-20.7000,9.5433,-2.1476,0.6847,-0.6203,-0.4375,0.3437,7.8000,63.4500,-211.6500,6.9100,0.5000,-7.0700,-0.0894,0.2029,0.0545,-21.5625,16.5000,42.6875,52.8125,45.5000,-175.1250,0
1776971769.098,9.6319,-0.1077,1.6185,-0.9899,-0.0818,0.2438,-77.2500,-4.5000,-20.5500,9.5433,-2.1476,0.6847,-0.6203,-0.4375,0.3437,9.9000,63.9000,-213.1500,6.9100,0.5000,-7.0700,-0.0894,0.2029,0.0545,-21.5625,16.5000,42.6875,52.8125,45.5000,-175.1250,0
1776971769.103,9.6319,-0.1077,1.6185,-0.9899,-0.0818,0.2438,-77.2500,-4.5000,-20.5500,9.7181,-1.9848,0.5411,-0.5497,-0.4159,0.3419,9.9000,63.9000,-213.1500,6.8500,0.6200,-6.9700,-0.0687,0.1942,0.0338,-21.5625,16.5000,42.6875,52.8125,45.6250,-175.0625,0
1776971769.108,9.6271,-0.2610,1.9225,-1.0283,-0.1045,0.2457,-76.9500,-4.9500,-21.7500,9.7181,-1.9848,0.5411,-0.5497,-0.4159,0.3419,9.9000,63.9000,-213.1500,6.8500,0.6200,-6.9700,-0.0818,0.1669,0.0545,-21.5625,16.5000,42.6875,52.8750,45.6875,-175.0625,0
1776971769.114,9.6271,-0.2610,1.9225,-1.0283,-0.1045,0.2457,-76.9500,-4.9500,-21.7500,9.9240,-2.0470,0.6632,-0.5524,-0.4285,0.3341,9.9000,63.9000,-213.1500,6.4700,0.7600,-6.8900,-0.0818,0.1669,0.0545,-21.5625,16.5000,42.6875,53.0000,45.7500,-175.0625,0
1776971769.123,9.5672,-0.3400,2.1524,-1.0563,-0.1156,0.2619,-77.4000,-4.2000,-20.7000,9.9814,-2.5235,0.6369,-0.5324,-0.4732,0.3387,10.0500,63.0000,-213.0000,6.6300,0.4300,-7.1800,-0.1036,0.1462,0.0873,-21.5625,16.5000,42.6875,53.0000,45.7500,-175.0625,0
1776971769.133,9.5792,-0.3472,2.3200,-1.0435,-0.1148,0.2785,-77.7000,-2.7000,-21.4500,9.5888,-2.4373,0.5411,-0.4951,-0.5423,0.3392,9.7500,63.3000,-212.5500,7.0900,0.4700,-7.0800,-0.0851,0.2618,0.0764,-21.5625,16.5000,42.6875,53.0000,45.9375,-175.0000,0
1776971769.138,9.4978,-0.1939,2.2889,-1.0264,-0.1106,0.2931,-77.4000,-4.2000,-20.2500,9.5888,-2.4373,0.5411,-0.4951,-0.5423,0.3392,10.0500,63.7500,-213.0000,7.0900,0.4700,-7.0800,-0.0851,0.2618,0.0764,-21.5625,16.5000,42.6875,53.0625,46.1250,-175.0000,0
1776971769.143,9.4978,-0.1939,2.2889,-1.0264,-0.1106,0.2931,-77.4000,-4.2000,-20.2500,9.3541,-2.7102,-0.1413,-0.4954,-0.5891,0.3472,10.0500,63.7500,-213.0000,7.1300,0.6200,-6.9000,-0.0884,0.3392,0.0600,-20.5000,15.7500,42.0000,53.0625,46.1250,-175.0000,0
1776971769.147,9.2823,0.1245,2.1500,-0.9843,-0.1058,0.3102,-77.7000,-3.4500,-20.2500,9.3541,-2.7102,-0.1413,-0.4954,-0.5891,0.3472,10.6500,62.7000,-213.4500,7.1300,0.6200,-6.9000,-0.0884,0.3392,0.0600,-20.5000,15.7500,42.0000,53.0625,46.1250,-175.0000,0
1776971769.152,9.4906,0.2993,2.0063,-0.9843,-0.1058,0.3102,-77.7000,-3.4500,-20.2500,9.5146,-2.6887,-0.0335,-0.5868,-0.5782,0.3475,10.6500,62.7000,-213.4500,6.8700,0.5200,-7.0900,-0.0709,0.3229,0.0622,-20.5000,15.7500,42.0000,53.0625,46.2500,-175.0000,0
1776971769.157,9.4906,0.2993,2.0063,-0.9270,-0.1074,0.3453,-77.7000,-3.4500,-20.2500,9.5146,-2.6887,-0.0335,-0.5868,-0.5782,0.3475,10.5000,63.3000,-213.0000,6.8700,0.5200,-7.0900,-0.0524,0.2673,0.0785,-20.5000,15.7500,42.0000,53.0625,46.3750,-175.0000,0
1776971769.163,9.4715,0.4214,1.8986,-0.8655,-0.1170,0.3720,-77.7000,-3.4500,-20.2500,9.5074,-2.7605,-0.1676,-0.6550,-0.5588,0.3368,10.5000,63.3000,-213.0000,6.9000,0.6000,-6.9400,-0.0524,0.2673,0.0785,-20.5000,15.7500,42.0000,53.0625,46.3750,-175.0000,0
1776971769.172,9.5146,0.5938,1.9465,-0.8655,-0.1170,0.3720,-77.2500,-3.3000,-20.5500,9.7707,-2.5690,-0.4142,-0.6931,-0.5148,0.3264,10.5000,63.3000,-213.0000,7.0500,0.5900,-7.0600,-0.0327,0.2716,0.0949,-20.5000,15.7500,42.0000,53.0625,46.5000,-175.0000,0
1776971769.176,9.5146,0.5938,1.9465,-0.8015,-0.1026,0.3957,-77.2500,-3.3000,-20.5500,9.7707,-2.5690,-0.4142,-0.6931,-0.5148,0.3264,10.8000,61.5000,-213.7500,7.0500,0.5900,-7.0600,-0.0327,0.2716,0.0949,-20.5000,15.7500,42.0000,53.0625,46.6250,-175.0000,0
1776971769.184,9.5481,0.5794,1.8196,-0.7194,-0.0957,0.4175,-77.2500,-3.3000,-20.5500,9.7276,-2.2314,-0.5171,-0.7080,-0.5081,0.3016,10.6500,60.1500,-213.7500,7.0600,0.5900,-6.9900,-0.0774,0.2258,0.1134,-20.5000,15.7500,42.0000,53.0625,46.6250,-175.0000,0
1776971769.188,9.5481,0.5794,1.8196,-0.7194,-0.0957,0.4175,-77.7000,-2.2500,-20.7000,9.7276,-2.2314,-0.5171,-0.7080,-0.5081,0.3016,10.6500,60.1500,-216.0000,7.0600,0.5900,-6.9900,-0.0567,0.2225,0.1156,-21.8750,15.7500,42.3750,53.0625,46.7500,-175.0625,0
1776971769.194,9.6319,0.5698,1.6903,-0.6246,-0.0983,0.4319,-77.7000,-2.2500,-20.7000,9.7468,-1.7621,-0.4477,-0.6688,-0.4911,0.2830,10.9500,61.2000,-213.4500,6.9900,0.5500,-6.8600,-0.0567,0.2225,0.1156,-21.8750,15.7500,42.3750,53.0625,46.7500,-175.0625,0
