timestamp,thigh_acc_x,thigh_acc_y,thigh_acc_z,thigh_gyro_x,thigh_gyro_y,thigh_gyro_z,thigh_mag_x,thigh_mag_y,thigh_mag_z,shank_acc_x,shank_acc_y,shank_acc_z,shank_gyro_x,shank_gyro_y,shank_gyro_z,shank_mag_x,shank_mag_y,shank_mag_z,foot_acc_x,foot_acc_y,foot_acc_z,foot_gyro_x,foot_gyro_y,foot_gyro_z,foot_mag_x,foot_mag_y,foot_mag_z,foot_euler_x,foot_euler_y,foot_euler_z,perturbation_event
1776974256.121,9.7564,0.2322,1.1277,0.1492,-0.3613,-0.0618,-76.9500,8.1000,-8.8500,9.5600,1.9704,1.2426,0.2177,-0.0285,0.3094,-87.9000,7.8000,2.1000,-4.2500,-2.2700,-8.5600,-0.0011,0.0087,0.0033,-20.0000,3.8750,30.7500,197.9375,-25.8750,164.9375,0
1776974256.131,9.6798,0.3280,1.2163,0.1348,-0.3624,-0.0674,-76.5000,7.2000,-9.0000,9.7157,2.0542,1.2210,0.2529,-0.0506,0.3144,-90.0000,6.0000,0.0000,-4.2400,-2.2800,-8.6100,-0.0033,0.0087,0.0022,-20.0000,3.8750,30.7500,197.9375,-25.8750,164.9375,0
1776974256.140,9.7181,0.4166,1.1732,0.1308,-0.3818,-0.0706,-76.9500,5.8500,-9.6000,9.3685,2.0399,1.4844,0.3800,0.0139,0.3107,-90.0000,4.8000,0.3000,-4.2400,-2.3000,-8.5600,-0.0033,0.0120,-0.0022,-20.0000,3.8750,30.7500,197.9375,-25.8750,164.9375,0
1776974256.145,9.7636,0.4405,1.3192,0.1561,-0.3984,-0.0794,-76.9500,5.8500,-9.6000,9.3685,2.0399,1.4844,0.3800,0.0139,0.3107,-90.0000,4.8000,0.3000,-4.2400,-2.3000,-8.5600,-0.0033,0.0120,-0.0022,-20.0000,3.8750,30.7500,197.9375,-25.8750,164.9375,0
1776974256.152,9.7348,0.4669,1.1444,0.1932,-0.4325,-0.0847,-75.1500,6.1500,-9.6000,9.6606,1.9680,1.3551,0.3714,0.0325,0.3171,-89.7000,5.2500,-1.0500,-4.2200,-2.2800,-8.5700,-0.0022,0.0142,-0.0022,-20.0000,3.8750,30.7500,197.9375,-25.8750,164.9375,0
1776974256.157,9.7348,0.4669,1.1444,0.1932,-0.4325,-0.0847,-75.1500,6.1500,-9.6000,9.6606,1.9680,1.3551,0.3714,0.0325,0.3171,-89.7000,5.2500,-1.0500,-4.2200,-2.2800,-8.5700,-0.0022,0.0142,-0.0033,-20.6875,4.2500,32.3750,197.9375,-25.8750,164.9375,0
1776974256.162,9.8545,0.1891,1.1085,0.2052,-0.4533,-0.0845,-75.4500,6.6000,-11.1000,9.7013,1.8579,1.3240,0.3619,-0.0432,0.3203,-89.4000,4.9500,-1.5000,-4.2200,-2.2700,-8.5500,-0.0022,0.0142,-0.0033,-20.6875,4.2500,32.3750,197.9375,-25.8750,164.9375,0
1776974256.172,9.7827,0.1532,1.2186,0.2180,-0.4671,-0.1100,-75.4500,6.9000,-9.9000,9.5864,1.5921,1.4269,0.3174,-0.0807,0.3320,-88.8000,3.9000,-0.4500,-4.2100,-2.3200,-8.5600,-0.0033,0.0153,-0.0044,-20.6875,4.2500,32.3750,197.9375,-25.8750,164.9375,0
1776974256.181,9.7516,0.0551,1.1540,0.2049,-0.4916,-0.1103,-75.4500,6.9000,-9.9000,9.4499,1.4988,1.3360,0.3336,-0.1375,0.3368,-87.4500,5.2500,0.3000,-4.2400,-2.2500,-8.6100,-0.0044,0.0185,-0.0055,-20.6875,4.2500,32.3750,197.9375,-25.8750,164.9375,0
1776974256.190,9.7061,0.1245,1.0032,0.2049,-0.4916,-0.1103,-75.4500,6.9000,-11.1000,9.5074,1.5012,1.3312,0.3643,-0.1927,0.3520,-87.4500,5.2500,0.3000,-4.2600,-2.2400,-8.5800,-0.0022,0.0229,-0.0055,-20.6875,4.2500,32.3750,197.9375,-25.8750,164.9375,0
1776974256.195,9.7061,0.1245,1.0032,0.1844,-0.5020,-0.1148,-75.4500,6.9000,-11.1000,9.5074,1.5012,1.3312,0.3643,-0.1927,0.3520,-87.4500,5.2500,0.3000,-4.2600,-2.2400,-8.5800,-0.0022,0.0229,-0.0055,-20.6875,4.2500,32.3750,197.9375,-25.8750,164.9375,0
1776974256.202,9.7300,0.2729,1.0032,0.1599,-0.5340,-0.1242,-75.4500,6.9000,-11.1000,9.3733,1.4868,1.3264,0.3786,-0.1756,0.3685,-88.8000,3.1500,-0.7500,-4.2100,-2.2700,-8.5900,0.0000,0.0164,-0.0065,-20.6875,4.2500,32.3750,197.9375,-25.8750,164.9375,0
1776974256.207,9.7300,0.2729,1.0032,0.1599,-0.5340,-0.1242,-75.4500,6.9000,-11.1000,9.5361,1.4102,1.3120,0.3922,-0.1735,0.3864,-88.8000,3.1500,-0.7500,-4.2100,-2.2700,-8.5900,0.0076,0.0196,-0.0098,-20.6875,3.8750,30.0625,197.9375,-25.8125,164.9375,0
1776974256.212,9.6343,0.4525,0.9816,0.1468,-0.5468,-0.1322,-76.6500,8.1000,-11.8500,9.5361,1.4102,1.3120,0.3922,-0.1735,0.3864,-89.1000,3.4500,-2.2500,-4.2200,-2.3000,-8.5600,0.0076,0.0196,-0.0098,-20.6875,3.8750,30.0625,197.9375,-25.8125,164.9375,0
1776974256.222,9.6486,0.5339,0.8691,0.1625,-0.5590,-0.1322,-76.8000,7.5000,-10.8000,9.6893,1.5586,1.3575,0.4397,-0.1927,0.3866,-87.0000,2.7000,-1.2000,-4.2300,-2.2700,-8.5700,0.0076,0.0196,-0.0131,-20.6875,3.8750,30.0625,197.9375,-25.8125,164.9375,0
1776974256.231,9.8019,0.4166,0.8332,0.2030,-0.5790,-0.1420,-77.4000,6.1500,-11.4000,9.5960,1.5730,1.3958,0.4362,-0.2014,0.4000,-89.7000,2.5500,-3.1500,-4.2200,-2.3100,-8.6100,0.0065,0.0240,-0.0164,-20.6875,3.8750,30.0625,197.9375,-25.8125,164.9375,0
1776974256.238,9.7755,0.2155,1.0271,0.2030,-0.5790,-0.1420,-77.4000,6.1500,-11.4000,9.5648,1.4940,1.5179,0.3989,-0.1817,0.4186,-89.7000,2.5500,-3.1500,-4.2200,-2.2900,-8.5800,0.0055,0.0284,-0.0153,-20.6875,3.8750,30.0625,197.9375,-25.8125,164.9375,0
1776974256.243,9.7755,0.2155,1.0271,0.2593,-0.6105,-0.1572,-76.0500,6.7500,-11.5500,9.5648,1.4940,1.5179,0.3989,-0.1817,0.4186,-89.7000,2.2500,-2.1000,-4.2200,-2.2900,-8.5800,0.0055,0.0284,-0.0153,-20.6875,3.8750,30.0625,197.8750,-25.7500,164.8750,0
1776974256.252,9.8234,0.0982,1.0415,0.2915,-0.6336,-0.1636,-77.4000,6.9000,-12.9000,9.6151,1.3144,1.7238,0.3728,-0.1993,0.4167,-89.7000,2.2500,-2.1000,-4.2200,-2.2600,-8.6000,0.0131,0.0251,-0.0175,-20.6875,3.8750,30.0625,197.8750,-25.7500,164.8750,0
1776974256.257,9.7636,0.2777,1.2115,0.2915,-0.6336,-0.1636,-77.4000,6.9000,-12.9000,9.3661,1.0654,1.6759,0.3467,-0.2332,0.4303,-89.7000,2.2500,-2.1000,-4.2200,-2.2600,-8.6000,0.0131,0.0251,-0.0175,-20.6875,3.8750,30.0625,197.8750,-25.7500,164.8750,0
1776974256.262,9.7636,0.2777,1.2115,0.3360,-0.6435,-0.1721,-76.5000,7.2000,-12.7500,9.3661,1.0654,1.6759,0.3467,-0.2332,0.4303,-89.1000,-0.1500,-2.2500,-4.2200,-2.2000,-8.6500,0.0164,0.0262,-0.0175,-20.3750,4.6875,31.5625,197.8750,-25.7500,164.8750,0
1776974256.267,9.8521,0.3687,0.8691,0.3360,-0.6435,-0.1721,-76.5000,7.2000,-12.7500,9.3901,0.9744,1.6544,0.3285,-0.2510,0.4367,-89.1000,-0.1500,-2.2500,-4.2200,-2.2000,-8.6500,0.0164,0.0262,-0.0175,-20.3750,4.6875,31.5625,197.8750,-25.7500,164.8750,0
1776974256.272,9.8521,0.3687,0.8691,0.3605,-0.6843,-0.1831,-76.5000,7.2000,-12.7500,9.3901,0.9744,1.6544,0.3285,-0.2510,0.4367,-88.2000,0.7500,-4.2000,-4.2500,-2.2900,-8.6300,0.0262,0.0273,-0.0229,-20.3750,4.6875,31.5625,197.8750,-25.7500,164.8750,0
1776974256.277,9.8162,0.2849,0.5986,0.3901,-0.7232,-0.2030,-76.5000,7.2000,-12.7500,9.3494,0.8523,1.5275,0.3309,-0.2864,0.4485,-88.2000,0.7500,-4.2000,-4.2500,-2.2900,-8.6300,0.0458,0.0338,-0.0262,-20.3750,4.6875,31.5625,197.8750,-25.6875,164.8125,0
1776974256.283,9.8162,0.2849,0.5986,0.3901,-0.7232,-0.2030,-76.0500,6.7500,-12.3000,9.3494,0.8523,1.5275,0.3309,-0.2864,0.4485,-89.4000,0.9000,-3.6000,-4.2400,-2.3800,-8.6000,0.0458,0.0338,-0.0262,-20.3750,4.6875,31.5625,197.8750,-25.6875,164.8125,0
1776974256.292,9.7252,-0.0263,0.3065,0.4317,-0.7597,-0.2292,-76.0500,6.7500,-12.3000,9.1123,0.8595,1.5012,0.3579,-0.2638,0.4748,-89.2500,-1.0500,-3.1500,-4.2400,-2.4000,-8.5800,0.0567,0.0327,-0.0284,-20.3750,4.6875,31.5625,197.8750,-25.6875,164.8125,0
1776974256.300,9.7636,-0.1413,0.6321,0.4429,-0.7250,-0.2582,-75.3000,7.5000,-14.8500,9.1818,0.7590,1.3934,0.3848,-0.2531,0.5031,-89.2500,-1.0500,-3.1500,-4.2100,-2.3300,-8.6400,0.0698,0.0327,-0.0273,-20.3750,4.6875,31.5625,197.8750,-25.6875,164.7500,0
1776974256.305,9.7324,0.2945,0.9840,0.4429,-0.7250,-0.2582,-75.3000,7.5000,-14.8500,9.1578,0.6608,1.3791,0.3834,-0.2654,0.5313,-89.2500,-1.0500,-3.1500,-4.2100,-2.3300,-8.6400,0.0698,0.0327,-0.0273,-20.3750,4.6875,31.5625,197.8750,-25.6875,164.7500,0
1776974256.310,9.7324,0.2945,0.9840,0.4311,-0.7141,-0.2686,-75.3000,7.5000,-14.8500,9.1578,0.6608,1.3791,0.3834,-0.2654,0.5313,-88.8000,-2.4000,-5.1000,-4.2500,-2.1900,-8.8100,0.0894,0.0185,-0.0305,-20.3750,3.8750,32.7500,197.8750,-25.6875,164.6875,0
1776974256.314,9.9982,0.9433,0.9912,0.4311,-0.7141,-0.2686,-76.0500,6.0000,-14.8500,9.1770,0.6464,1.3384,0.4389,-0.2910,0.5676,-88.8000,-2.4000,-5.1000,-4.2500,-2.1900,-8.8100,0.0894,0.0185,-0.0305,-20.3750,3.8750,32.7500,197.8750,-25.6875,164.6875,0
1776974256.319,9.9982,0.9433,0.9912,0.3691,-0.7277,-0.2875,-75.3000,6.0000,-14.8500,9.1770,0.6464,1.3384,0.4389,-0.2910,0.5676,-89.2500,-2.2500,-6.0000,-4.3300,-2.1100,-8.8700,0.1473,0.0076,-0.0360,-20.3750,3.8750,32.7500,197.8750,-25.6250,164.6250,0
1776974256.324,10.0796,1.4868,0.6249,0.3691,-0.7277,-0.2875,-75.3000,6.4500,-14.2500,8.8945,0.5818,1.2139,0.4711,-0.2894,0.5860,-89.2500,-2.2500,-6.0000,-4.3300,-2.1100,-8.8700,0.1473,0.0076,-0.0360,-20.3750,3.8750,32.7500,197.8750,-25.6250,164.6250,0
1776974256.329,10.0796,1.4868,0.6249,0.3595,-0.7647,-0.3254,-75.3000,6.4500,-14.2500,8.8945,0.5818,1.2139,0.4711,-0.2894,0.5860,-89.2500,-2.2500,-3.9000,-4.4700,-2.3600,-8.7500,0.2225,0.0164,-0.0458,-20.3750,3.8750,32.7500,197.8750,-25.6250,164.5000,0
1776974256.334,9.9838,1.7621,-0.0670,0.3595,-0.7647,-0.3254,-75.1500,6.6000,-13.6500,8.7628,0.5938,0.9864,0.5646,-0.2992,0.5702,-89.2500,-2.2500,-3.9000,-4.4700,-2.3600,-8.7500,0.2225,0.0164,-0.0458,-20.3750,3.8750,32.7500,197.8750,-25.6250,164.3125,0
1776974256.342,9.9838,1.7621,-0.0670,0.3944,-0.8234,-0.3992,-76.0500,7.2000,-13.8000,9.6199,0.7230,0.0646,0.5777,-0.4439,0.5540,-88.8000,-2.4000,-6.4500,-4.5100,-2.4600,-8.7100,0.2716,0.0480,-0.0513,-20.3750,3.8750,32.7500,197.8750,-25.5625,164.1250,0
1776974256.352,9.3972,1.6831,-0.7207,0.3411,-0.8239,-0.4623,-74.7000,6.6000,-15.1500,8.0182,0.9290,0.2346,0.5518,-0.5044,0.5521,-88.8000,-2.4000,-6.4500,-4.6100,-2.5400,-8.7100,0.3163,0.0807,-0.0611,-20.3750,3.8750,32.7500,197.8750,-25.5625,164.1250,0
1776974256.357,9.4930,1.8387,-0.8763,0.2979,-0.8871,-0.4490,-74.7000,6.6000,-15.1500,8.0182,0.9290,0.2346,0.5518,-0.5044,0.5521,-88.8000,-2.4000,-6.4500,-4.6100,-2.5400,-8.7100,0.3163,0.0807,-0.0611,-20.6875,4.2500,32.3750,197.9375,-25.5000,163.9375,0
1776974256.362,9.4715,1.8387,-1.1253,0.2979,-0.8871,-0.4490,-74.7000,6.6000,-15.1500,8.7197,1.3623,-0.7518,0.5044,-0.1143,0.5553,-88.8000,-2.4000,-6.4500,-4.7100,-2.0300,-9.0100,0.3872,0.1222,-0.0894,-20.6875,4.2500,32.3750,197.9375,-25.5000,163.9375,0
1776974256.367,9.4715,1.8387,-1.1253,0.2459,-0.9571,-0.3248,-74.7000,6.6000,-15.1500,8.7197,1.3623,-0.7518,0.5044,-0.1143,0.5553,-88.8000,-2.4000,-6.4500,-4.7100,-2.0300,-9.0100,0.3872,0.1222,-0.0894,-20.6875,4.2500,32.3750,197.8750,-25.3750,163.6250,0
1776974256.372,8.8562,2.2505,-1.3096,0.2459,-0.9571,-0.3248,-73.8000,7.9500,-14.2500,9.3158,2.0279,-1.2330,0.4922,-0.2697,0.5526,-89.4000,-6.1500,-6.4500,-5.0900,-2.1500,-9.2200,0.4658,0.1756,-0.1342,-20.6875,4.2500,32.3750,197.8750,-25.3750,163.6250,0
1776974256.381,8.8562,2.2505,-1.3096,0.2827,-0.8660,-0.1820,-73.8000,7.9500,-14.2500,9.7731,2.8180,-1.7047,0.7035,-0.5961,0.4975,-87.6000,-4.2000,-6.1500,-5.1400,-3.1000,-8.8700,0.5498,0.2334,-0.2127,-20.6875,4.2500,32.3750,197.8750,-25.1875,163.3125,0
1776974256.386,8.8131,2.9975,-1.8842,0.2907,-0.7378,-0.0578,-73.8000,7.9500,-14.2500,9.7731,2.8180,-1.7047,0.7035,-0.5961,0.4975,-87.6000,-4.2000,-6.1500,-5.1400,-3.1000,-8.8700,0.5498,0.2334,-0.2127,-20.6875,4.2500,32.3750,197.8125,-25.0000,162.8750,0
1776974256.392,9.0956,3.5195,-2.1165,0.3006,-0.6670,0.0730,-75.3000,7.5000,-14.8500,9.7779,3.3615,-2.0231,0.8010,-0.7544,0.4197,-86.5500,-4.9500,-6.9000,-6.2500,-2.8500,-9.3100,0.6152,0.3196,-0.3392,-20.6875,4.2500,32.3750,197.6875,-24.6250,162.5000,0
1776974256.402,9.5768,3.7613,-2.5211,0.2729,-0.6086,0.1604,-74.5500,7.5000,-15.3000,10.3046,3.8116,-2.1907,0.9571,-0.7770,0.3134,-88.3500,-5.7000,-6.9000,-3.5400,-3.4300,-8.2200,0.6130,0.5356,-0.3785,-20.6875,4.2500,32.3750,197.6875,-24.6250,162.5000,0
1776974256.407,9.5768,3.7613,-2.5211,0.2729,-0.6086,0.1604,-74.5500,7.5000,-15.3000,10.3046,3.8116,-2.1907,0.9571,-0.7770,0.3134,-88.3500,-5.7000,-6.9000,-3.5400,-3.4300,-8.2200,0.6130,0.5356,-0.3785,-20.6875,4.2500,32.3750,197.5625,-24.1875,162.1250,0
1776974256.412,9.7564,3.5506,-2.5738,0.3059,-0.6089,0.2380,-73.6500,7.3500,-15.9000,10.6925,3.9672,-2.6647,1.2601,-0.6622,0.1631,-88.3500,-5.7000,-6.9000,-3.9800,-3.8100,-8.5600,0.5923,0.7079,-0.4483,-20.3750,5.0625,32.0000,197.5625,-24.1875,162.1250,0
1776974256.417,9.7564,3.5506,-2.5738,0.3059,-0.6089,0.2380,-73.6500,7.3500,-15.9000,10.6925,3.9672,-2.6647,1.2601,-0.6622,0.1631,-88.9500,-6.3000,-7.8000,-3.9800,-3.8100,-8.5600,0.5923,0.7079,-0.4483,-20.3750,5.0625,32.0000,197.4375,-23.7500,161.7500,0
1776974256.422,9.5720,3.1053,-2.2051,0.3683,-0.5612,0.3190,-74.1000,6.4500,-15.6000,11.6646,4.2617,-3.1173,1.5972,-0.6872,-0.0128,-88.9500,-6.3000,-7.8000,-4.1500,-3.2800,-8.8100,0.5269,0.6861,-0.4331,-20.3750,5.0625,32.0000,197.4375,-23.7500,161.7500,0
1776974256.428,9.5720,3.1053,-2.2051,0.3683,-0.5612,0.3190,-74.1000,6.4500,-15.6000,11.6646,4.2617,-3.1173,1.7024,-0.7674,-0.1516,-89.7000,-6.3000,-8.5500,-4.2200,-3.6600,-8.8200,0.4854,0.7287,-0.4407,-20.3750,5.0625,32.0000,197.3125,-23.2500,161.4375,0
1776974256.433,9.7875,2.5929,-2.0470,0.3597,-0.4538,0.4010,-74.1000,6.4500,-15.6000,11.5424,4.0127,-3.5889,1.7024,-0.7674,-0.1516,-89.7000,-6.3000,-8.5500,-4.2200,-3.6600,-8.8200,0.4854,0.7287,-0.4407,-20.3750,5.0625,32.0000,197.1875,-22.8125,161.1875,0
1776974256.442,10.0892,2.0590,-1.6472,0.2734,-0.3603,0.4599,-73.8000,5.5500,-17.1000,11.3820,3.5219,-3.9313,1.5484,-0.6336,-0.2009,-88.2000,-6.7500,-9.6000,-4.1400,-3.8200,-8.7900,0.4451,0.7876,-0.4549,-20.3750,5.0625,32.0000,197.0625,-22.2500,160.9375,0
1776974256.452,10.4555,1.7957,-1.1612,0.2145,-0.3504,0.5031,-73.8000,5.5500,-17.1000,11.5831,3.2609,-3.4596,1.5002,-0.3760,-0.3027,-88.5000,-7.8000,-10.2000,-3.9500,-4.0300,-8.7000,0.3949,0.8323,-0.4745,-20.3750,5.0625,32.0000,197.0625,-22.2500,160.9375,0
1776974256.457,10.4555,1.7957,-1.1612,0.2145,-0.3504,0.5031,-73.8000,5.5500,-17.1000,11.5831,3.2609,-3.4596,1.5002,-0.3760,-0.3027,-88.5000,-7.8000,-10.2000,-3.9500,-4.0300,-8.7000,0.3949,0.8323,-0.4745,-20.3750,5.0625,32.0000,197.0625,-22.2500,160.9375,0
1776974256.462,10.4866,1.8076,-0.5363,0.2065,-0.2745,0.5337,-74.8500,5.5500,-17.8500,11.4563,3.1556,-3.6176,1.2446,-0.2606,-0.4194,-88.5000,-7.8000,-10.2000,-4.3500,-4.2200,-8.5600,0.3229,0.8410,-0.4800,-20.6875,5.3750,32.0000,196.8750,-21.7500,160.6875,0
1776974256.467,10.4866,1.8076,-0.5363,0.2065,-0.2745,0.5337,-74.8500,5.5500,-17.8500,11.4563,3.1556,-3.6176,0.8372,-0.0432,-0.4956,-88.5000,-7.8000,-10.2000,-4.3500,-4.2200,-8.5600,0.3229,0.8410,-0.4800,-20.6875,5.3750,32.0000,196.8750,-21.7500,160.6875,0
1776974256.472,10.5776,2.2434,-0.3041,0.2177,-0.2281,0.5729,-73.6500,2.7000,-16.9500,11.1019,2.9066,-4.0055,0.8372,-0.0432,-0.4956,-88.5000,-7.8000,-10.2000,-6.1200,-5.2700,-9.3700,0.2182,0.8585,-0.4614,-20.6875,5.3750,32.0000,196.7500,-21.1875,160.5625,0
1776974256.480,10.7835,2.9784,-0.0335,0.1953,-0.2348,0.6283,-73.6500,2.7000,-16.9500,10.9846,2.6528,-3.9816,0.5604,0.0506,-0.5073,-88.8000,-6.9000,-7.9500,-6.0700,-5.0700,-9.6400,0.0229,0.9218,-0.3622,-20.6875,5.3750,32.0000,196.6250,-20.6250,160.5000,0
1776974256.485,10.7835,2.9784,-0.0335,0.1953,-0.2348,0.6283,-74.1000,4.5000,-18.3000,10.9846,2.6528,-3.9816,0.5604,0.0506,-0.5073,-88.8000,-6.9000,-7.9500,-6.0700,-5.0700,-9.6400,0.0229,0.9218,-0.3622,-20.6875,5.3750,32.0000,196.5000,-20.0000,160.6250,0
1776974256.493,10.8146,3.6296,-0.4621,0.2260,-0.2891,0.7021,-73.6500,4.9500,-17.4000,11.1091,2.4612,-3.7230,0.5987,0.0107,-0.4802,-87.6000,-7.9500,-8.7000,-5.0600,-5.5600,-9.0600,-0.1680,1.0341,-0.4287,-20.6875,5.3750,32.0000,196.2500,-19.3125,160.7500,0
1776974256.502,10.5034,4.7908,0.0646,0.3219,-0.2960,0.7823,-74.1000,3.3000,-17.1000,10.6111,2.1644,-3.4357,0.4477,0.0051,-0.4570,-87.0000,-7.6500,-9.7500,-5.6500,-6.9300,-7.8100,-0.3534,1.1759,-0.5345,-20.6875,5.3750,32.0000,196.2500,-19.3125,160.7500,0
1776974256.507,9.9814,5.9855,-0.2442,0.5561,-0.1487,0.8108,-74.1000,3.3000,-17.1000,10.0173,1.9225,-3.2394,0.2094,0.0392,-0.4154,-88.0500,-6.9000,-10.5000,-5.6500,-6.9300,-7.8100,-0.3534,1.1759,-0.5345,-20.6875,5.3750,32.0000,195.8125,-18.6250,160.8750,0
1776974256.512,9.9814,5.9855,-0.2442,0.5561,-0.1487,0.8108,-74.1000,4.0500,-18.3000,10.0173,1.9225,-3.2394,0.2094,0.0392,-0.4154,-88.0500,-6.9000,-10.5000,-3.4400,-13.2400,-4.7900,-0.3752,1.0581,-0.8988,-21.8750,5.3750,32.7500,195.8125,-18.6250,160.8750,0
1776974256.517,9.4547,6.6104,-1.1636,0.8964,-0.0365,0.7845,-74.1000,4.0500,-18.3000,9.9359,1.7334,-2.8012,-0.0624,-0.0112,-0.4013,-88.0500,-6.9000,-10.5000,-3.4400,-13.2400,-4.7900,-0.3752,1.0581,-0.8988,-21.8750,5.3750,32.7500,195.0000,-17.8750,160.8750,0
1776974256.522,9.4547,6.6104,-1.1636,0.8964,-0.0365,0.7845,-74.1000,4.0500,-18.3000,9.9359,1.7334,-2.8012,-0.0624,-0.0112,-0.4013,-88.0500,-6.9000,-10.5000,-3.7600,-11.0200,-5.3600,-0.3774,0.7898,-1.5828,-21.8750,5.3750,32.7500,195.0000,-17.8750,160.8750,0
1776974256.529,8.9998,7.3478,-0.6321,1.6052,-0.0101,0.8103,-74.1000,4.0500,-18.3000,9.8976,1.5227,-2.6288,-0.3232,-0.0711,-0.4167,-88.3500,-8.7000,-10.8000,-7.2600,-11.1500,-3.6800,-0.7647,0.5869,-1.8010,-21.8750,5.3750,32.7500,193.9375,-17.2500,161.0000,0
1776974256.534,8.9998,7.3478,-0.6321,1.6052,-0.0101,0.8103,-73.3500,0.9000,-16.8000,9.8976,1.5227,-2.6288,-0.3232,-0.0711,-0.4167,-88.3500,-8.7000,-10.8000,-7.2600,-11.1500,-3.6800,-0.7647,0.5869,-1.8010,-21.8750,5.3750,32.7500,192.6875,-16.7500,161.3125,0
1776974256.542,8.2241,7.4603,0.4764,2.4781,0.1713,0.8799,-73.3500,0.9000,-16.8000,10.1035,1.5275,-2.3272,-0.4759,-0.2102,-0.4453,-88.0500,-6.9000,-9.7500,-6.2500,-12.6000,-3.2000,-1.1116,0.2553,-2.1424,-21.8750,5.3750,32.7500,191.1875,-16.4375,161.9375,0
1776974256.552,7.9368,6.9935,0.6560,2.9673,0.3720,0.9601,-73.3500,-0.4500,-16.0500,9.9886,1.7837,-1.6616,-0.6161,-0.3560,-0.4924,-86.2500,-6.9000,-11.5500,-6.9300,-10.9800,-2.4300,-1.8108,-0.2378,-2.4184,-21.8750,5.3750,32.7500,191.1875,-16.4375,161.9375,0
1776974256.557,8.0302,6.5074,0.9433,3.4779,0.5588,1.0858,-73.3500,-0.4500,-16.0500,9.9814,2.5786,-1.7142,-0.3917,-0.4588,-0.5601,-88.2000,-6.3000,-9.9000,-6.9300,-10.9800,-2.4300,-1.8108,-0.2378,-2.4184,-21.8750,5.3750,32.7500,191.1875,-16.4375,161.9375,0
1776974256.562,8.0302,6.5074,0.9433,3.4779,0.5588,1.0858,-74.5500,-3.3000,-16.8000,9.9814,2.5786,-1.7142,-0.3917,-0.4588,-0.5601,-88.2000,-6.3000,-9.9000,-8.2000,-8.8800,-2.9800,-2.8220,-0.8061,-2.5362,-21.8750,3.1875,33.8750,189.5000,-16.4375,163.0625,0
1776974256.567,8.2672,5.6623,1.5419,3.9674,0.7757,1.2558,-74.5500,-3.3000,-16.8000,9.0118,3.4500,-1.8076,-0.2092,-0.5875,-0.6145,-88.2000,-6.3000,-9.9000,-8.2000,-8.8800,-2.9800,-2.8220,-0.8061,-2.5362,-21.8750,3.1875,33.8750,189.5000,-16.4375,163.0625,0
1776974256.572,8.2672,5.6623,1.5419,3.9674,0.7757,1.2558,-74.7000,-4.6500,-15.9000,9.0118,3.4500,-1.8076,-0.2092,-0.5875,-0.6145,-88.2000,-6.3000,-9.9000,-8.5800,-5.1000,-3.8300,-3.5147,-1.2337,-2.7216,-21.8750,3.1875,33.8750,187.5625,-16.6875,164.5000,0
1776974256.582,8.7269,4.4867,1.6376,4.2709,1.0118,1.4186,-74.7000,-4.6500,-15.9000,7.9057,4.4484,-2.2146,0.0933,-0.6579,-0.6957,-87.6000,-4.6500,-11.5500,-6.7400,-1.6100,-4.9900,-3.8026,-1.5381,-3.0161,-21.8750,3.1875,33.8750,185.5000,-17.0625,166.0625,0
1776974256.591,9.3302,2.7725,1.4030,4.5227,1.1474,1.5234,-73.3500,-6.0000,-14.5500,6.9073,5.7700,-2.8036,0.5287,-0.7901,-0.8535,-88.3500,-5.7000,-10.8000,-6.6600,-1.2000,-4.9600,-3.6270,-1.7715,-3.3249,-21.8750,3.1875,33.8750,183.1875,-17.6250,167.4375,0
1776974256.597,9.3901,0.6129,2.0710,4.7284,1.2497,1.5356,-74.4000,-8.1000,-14.4000,6.0094,6.8474,-3.1340,1.0184,-0.8335,-1.0325,-88.2000,-5.5500,-11.7000,-6.6600,-1.2000,-4.9600,-3.0281,-2.1162,-3.6096,-21.8750,3.1875,33.8750,180.8125,-18.3750,168.3750,0
1776974256.603,8.7149,-0.6297,3.2561,4.8430,1.2686,1.4978,-75.6000,-10.3500,-12.3000,5.9472,7.9296,-2.8659,1.5439,-0.6035,-1.1775,-88.2000,-5.5500,-11.7000,-5.6500,-3.4900,-5.2900,-3.0281,-2.1162,-3.6096,-21.8750,3.1875,33.8750,180.8125,-18.3750,168.3750,0
1776974256.608,8.7149,-0.6297,3.2561,4.8430,1.2686,1.4978,-75.6000,-10.3500,-12.3000,5.9472,7.9296,-2.8659,1.5439,-0.6035,-1.1775,-86.4000,-4.5000,-11.4000,-6.0500,-4.2400,-6.2300,-2.0508,-2.7369,-3.7339,-18.1875,-6.2500,34.3750,178.4375,-19.4375,168.7500,0
1776974256.613,8.1403,-1.5610,2.6049,4.5389,1.4040,1.4029,-75.6000,-10.3500,-12.3000,6.2944,8.5617,-1.1732,1.7171,-0.1705,-1.3102,-88.9500,-4.0500,-10.2000,-6.0500,-4.2400,-6.2300,-2.0508,-2.7369,-3.7339,-18.1875,-6.2500,34.3750,178.4375,-19.4375,168.7500,0
1776974256.618,8.1403,-1.5610,2.6049,4.5389,1.4040,1.4029,-75.6000,-10.3500,-12.3000,6.2944,8.5617,-1.1732,1.7171,-0.1705,-1.3102,-88.9500,-4.0500,-10.2000,-6.0500,-4.2400,-6.2300,-2.0508,-2.7369,-3.7339,-18.1875,-6.2500,34.3750,176.0000,-20.5000,169.0000,0
1776974256.623,7.8626,-2.2098,2.7821,4.1824,1.5865,1.2420,-75.1500,-13.9500,-9.6000,7.9009,8.0709,0.5028,1.2894,0.4074,-1.2753,-88.9500,-4.0500,-10.2000,-6.7800,-4.2200,-7.2600,-2.0508,-2.7369,-3.7339,-18.1875,-6.2500,34.3750,176.0000,-20.5000,169.0000,0
1776974256.632,8.4443,-1.9297,3.3303,3.7902,1.6971,1.0730,-75.1500,-13.9500,-9.6000,8.2097,6.6822,1.9992,1.1644,0.6928,-1.1194,-88.9500,-4.0500,-10.2000,-6.0700,-3.5000,-8.4000,-1.8610,-2.8460,-3.6837,-18.1875,-6.2500,34.3750,173.6250,-21.6875,169.1875,0
1776974256.642,9.3805,-1.7645,2.6384,3.2668,1.6771,0.9292,-75.1500,-13.9500,-9.6000,9.3925,4.1348,2.4995,1.3392,1.0030,-0.9942,-88.9500,-3.7500,-11.4000,-5.0300,-2.9100,-8.4900,-1.6908,-2.7587,-3.6216,-18.1875,-6.2500,34.3750,171.3125,-22.8125,169.1875,0
1776974256.651,10.0221,-1.6376,2.6863,2.9090,1.5628,0.7917,-74.1000,-17.4000,-6.7500,8.4348,3.0502,2.8946,1.4925,0.8354,-0.7754,-88.8000,-1.9500,-8.7000,-4.1600,-2.5400,-8.6000,-1.2239,-2.5275,-3.2845,-18.1875,-6.2500,34.3750,169.1875,-23.8750,169.0000,0
1776974256.656,10.0221,-1.6376,2.6863,2.9090,1.5628,0.7917,-76.6500,-17.1000,-3.3000,8.4348,3.0502,2.8946,1.4925,0.8354,-0.7754,-86.5500,-3.9000,-8.7000,-4.1600,-2.5400,-8.6000,-1.2239,-2.5275,-3.2845,-18.1875,-6.2500,34.3750,169.1875,-23.8750,169.0000,0
1776974256.661,10.2113,-1.1588,2.8587,2.6172,1.3835,0.6606,-76.6500,-17.1000,-3.3000,8.9711,2.7031,3.4860,2.0859,0.8503,-0.6752,-86.5500,-3.9000,-8.7000,-3.4900,-2.3100,-8.7900,-0.9381,-2.4576,-2.9747,-8.0000,-18.3750,37.0625,167.3125,-24.8750,168.6250,0
1776974256.666,10.2113,-1.1588,2.8587,2.6172,1.3835,0.6606,-75.9000,-17.5500,-3.3000,8.9711,2.7031,3.4860,2.0859,0.8503,-0.6752,-90.1500,-3.9000,-9.0000,-3.4900,-2.3100,-8.7900,-0.9381,-2.4576,-2.9747,-8.0000,-18.3750,37.0625,167.3125,-24.8750,168.6250,0
1776974256.671,9.8785,-1.1396,2.5379,2.3116,1.2859,0.5225,-75.9000,-17.5500,-3.3000,9.7851,2.1835,3.3662,2.7358,0.8577,-0.7453,-90.1500,-3.9000,-9.0000,-3.1100,-2.1700,-9.6600,-0.6207,-2.3355,-2.6104,-8.0000,-18.3750,37.0625,165.6250,-25.8750,168.1875,0
1776974256.676,9.8785,-1.1396,2.5379,2.3116,1.2859,0.5225,-74.8500,-19.3500,-2.4000,9.7851,2.1835,3.3662,2.7358,0.8577,-0.7453,-90.1500,-3.9000,-9.0000,-3.1100,-2.1700,-9.6600,-0.6207,-2.3355,-2.6104,-8.0000,-18.3750,37.0625,164.2500,-26.7500,167.6875,0
1776974256.683,9.4332,-1.2450,2.5522,2.0944,1.2113,0.3813,-75.4500,-19.9500,-1.0500,9.8569,1.6065,1.4317,2.9753,0.8801,-0.8577,-90.7500,-3.0000,-8.8500,-2.9200,-2.7900,-10.1400,-0.3523,-2.1217,-2.2395,-8.0000,-18.3750,37.0625,163.0625,-27.5000,167.1250,0
1776974256.693,9.4236,-1.1468,2.5666,1.8519,1.1189,0.2577,-75.4500,-19.9500,-1.0500,10.0844,0.8260,-0.5339,2.7555,0.9017,-0.9292,-89.7000,-3.3000,-6.0000,-2.6800,-3.1100,-10.3900,-0.2083,-1.8435,-1.8817,-8.0000,-18.3750,37.0625,163.0625,-27.5000,167.1250,0
1776974256.702,9.6295,-1.1037,2.3176,1.5231,1.0048,0.1255,-75.4500,-19.5000,-1.0500,9.6295,0.8619,-0.5148,2.5868,0.8918,-0.9377,-91.5000,-2.5500,-6.3000,-1.9900,-2.9700,-10.5600,-0.1287,-1.5250,-1.5664,-8.0000,-18.3750,37.0625,162.1250,-28.1250,166.6875,0
1776974256.707,9.6295,-1.1037,2.3176,1.5231,1.0048,0.1255,-75.4500,-19.5000,-1.0500,9.6295,0.8619,-0.5148,2.5868,0.8918,-0.9377,-91.5000,-2.5500,-6.3000,-1.9900,-2.9700,-10.5600,-0.1287,-1.5250,-1.5664,-8.0000,-18.3750,37.0625,162.1250,-28.1250,166.6875,0
1776974256.712,9.7085,-1.3264,2.2793,1.2473,0.8745,0.0157,-75.4500,-19.5000,-1.0500,9.2536,0.2825,-0.4980,2.4469,1.0043,-0.9342,-91.9500,-1.9500,-5.8500,-1.6200,-2.8200,-10.4300,-0.0349,-1.2195,-1.3046,6.1875,-22.5000,40.3750,161.3125,-28.6250,166.2500,0
1776974256.717,9.7085,-1.3264,2.2793,1.2473,0.8745,0.0157,-75.1500,-20.7000,2.5500,9.2536,0.2825,-0.4980,2.4469,1.0043,-0.9342,-91.9500,-1.9500,-5.8500,-1.6200,-2.8200,-10.4300,-0.0349,-1.2195,-1.3046,6.1875,-22.5000,40.3750,161.3125,-28.6250,166.2500,0
1776974256.722,9.8090,-0.9553,2.2984,1.0400,0.7210,-0.0679,-75.1500,-20.7000,2.5500,9.5553,-0.1389,-0.4094,2.2886,1.0088,-0.9262,-93.6000,-1.5000,-6.3000,-1.2400,-2.7000,-10.2700,0.0851,-0.9414,-1.1006,6.1875,-22.5000,40.3750,160.6250,-29.0000,165.7500,0
1776974256.728,9.8737,-0.8906,1.4317,1.0400,0.7210,-0.0679,-75.1500,-20.7000,2.5500,9.5553,-0.1389,-0.4094,2.1405,1.0499,-0.9537,-93.6000,-1.5000,-6.3000,-1.2400,-2.7000,-10.2700,0.2149,-0.7123,-0.9512,6.1875,-22.5000,40.3750,160.0625,-29.2500,165.3125,0
1776974256.734,9.8737,-0.8906,1.4317,0.7408,0.5923,-0.1572,-76.5000,-20.4000,2.7000,9.2943,-0.1891,0.0144,2.1405,1.0499,-0.9537,-93.6000,-1.5000,-6.3000,-0.2600,-3.0800,-9.8600,0.2149,-0.7123,-0.9512,6.1875,-22.5000,40.3750,159.6250,-29.4375,164.8750,0
1776974256.743,9.9216,-0.9816,1.2857,0.5678,0.4636,-0.2601,-76.5000,-20.4000,2.7000,9.9192,-0.7422,0.4142,1.9313,0.9963,-1.0040,-95.2500,-0.4500,-3.6000,-0.1500,-3.6000,-9.7900,0.3065,-0.5476,-0.8323,6.1875,-22.5000,40.3750,159.6250,-29.4375,164.8750,0
1776974256.753,9.8210,-1.0918,1.2522,0.4634,0.3403,-0.3714,-75.9000,-21.0000,5.1000,9.9886,-1.2306,0.5722,1.8165,0.8908,-1.0648,-95.4000,-0.3000,-3.1500,-0.1300,-3.8600,-9.7600,0.3600,-0.4036,-0.7505,6.1875,-22.5000,40.3750,159.2500,-29.5000,164.3750,0
1776974256.758,9.6893,-1.0582,1.2402,0.4309,0.2369,-0.4778,-76.9500,-21.0000,4.3500,9.8210,-1.0989,0.3998,1.7126,0.9276,-1.1077,-95.4000,-0.3000,-3.1500,-0.1300,-3.8600,-9.7600,0.3600,-0.4036,-0.7505,6.1875,-22.5000,40.3750,159.2500,-29.5000,164.3750,0
1776974256.763,9.6893,-1.0582,1.2402,0.4309,0.2369,-0.4778,-76.9500,-21.0000,4.3500,9.8210,-1.0989,0.3998,1.7126,0.9276,-1.1077,-95.8500,1.0500,-2.4000,-0.3700,-4.2100,-9.8100,0.3949,-0.2585,-0.7232,18.3750,-22.3750,44.1875,158.8750,-29.5625,163.9375,0
1776974256.768,9.6845,-0.8404,1.0487,0.3829,0.1338,-0.5942,-77.5500,-20.8500,4.5000,9.9383,-0.7039,0.1844,1.7227,0.9249,-1.1098,-95.8500,1.0500,-2.4000,-0.3700,-4.2100,-9.8100,0.3949,-0.2585,-0.7232,18.3750,-22.3750,44.1875,158.8750,-29.5625,163.9375,0
1776974256.773,9.6845,-0.8404,1.0487,0.3829,0.1338,-0.5942,-77.5500,-20.8500,4.5000,9.9383,-0.7039,0.1844,1.7227,0.9249,-1.1098,-96.1500,1.8000,-1.3500,-0.3200,-4.8000,-9.6200,0.4080,-0.0916,-0.7461,18.3750,-22.3750,44.1875,158.5000,-29.5000,163.5000,0
1776974256.781,9.7037,-0.6967,0.8595,0.3675,0.0416,-0.7258,-78.9000,-20.7000,5.5500,9.7396,-0.0838,-0.5124,1.5799,0.7903,-1.0661,-96.1500,1.8000,-1.3500,-0.0900,-4.9300,-9.4200,0.4058,0.0469,-0.8007,18.3750,-22.3750,44.1875,158.1250,-29.3125,163.0000,0
1776974256.786,9.9192,-0.6321,0.5531,0.4114,-0.0783,-0.8655,-77.2500,-21.3000,6.4500,9.7396,-0.0838,-0.5124,1.5799,0.7903,-1.0661,-96.1500,1.8000,-1.3500,-0.0900,-4.9300,-9.4200,0.4058,0.0469,-0.8007,18.3750,-22.3750,44.1875,157.7500,-29.1250,162.5625,0
1776974256.793,9.9192,-0.6321,0.5531,0.4114,-0.0783,-0.8655,-77.2500,-21.3000,6.4500,9.9383,0.5842,-0.9433,1.3952,0.6643,-1.0048,-96.6000,5.2500,-0.6000,-0.0200,-4.9700,-9.2700,0.4014,0.1320,-0.8792,18.3750,-22.3750,44.1875,157.2500,-28.8750,162.0625,0
1776974256.803,9.8497,-0.4788,0.5339,0.5486,-0.1684,-1.0003,-77.2500,-21.3000,6.4500,9.5457,1.0008,-1.2210,1.0237,0.6041,-0.9734,-97.0500,4.6500,-0.1500,-0.3700,-5.1000,-9.0700,0.4167,0.1854,-0.9850,18.3750,-22.3750,44.1875,157.2500,-28.8750,162.0625,0
1776974256.808,9.6965,-0.5483,0.5148,0.7405,-0.2329,-1.1175,-76.5000,-18.9000,5.7000,9.9695,1.3216,-1.4030,0.7400,0.6126,-0.9539,-97.0500,4.6500,-0.1500,-0.3700,-5.1000,-9.0700,0.4167,0.1854,-0.9850,18.3750,-22.3750,44.1875,156.7500,-28.5000,161.5000,0
1776974256.813,9.6965,-0.5483,0.5148,0.7405,-0.2329,-1.1175,-76.5000,-18.9000,5.7000,9.9695,1.3216,-1.4030,0.7400,0.6126,-0.9539,-97.9500,7.0500,0.3000,-0.6100,-5.2000,-9.0900,0.4581,0.2345,-1.1225,27.1875,-18.6875,47.3750,156.7500,-28.5000,161.5000,0
1776974256.818,9.6319,-0.3089,0.7901,0.9403,-0.2595,-1.2225,-79.0500,-19.6500,6.4500,9.7205,1.6712,-1.4748,0.5321,0.5633,-0.9209,-97.9500,7.0500,0.3000,-0.6100,-5.2000,-9.0900,0.4581,0.2345,-1.1225,27.1875,-18.6875,47.3750,156.1250,-28.1250,160.8750,0
1776974256.823,9.6319,-0.3089,0.7901,0.9403,-0.2595,-1.2225,-79.0500,-19.6500,6.4500,9.7205,1.6712,-1.4748,0.5321,0.5633,-0.9209,-97.6500,6.7500,1.0500,-0.8400,-5.3200,-9.1500,0.5160,0.2913,-1.2828,27.1875,-18.6875,47.3750,156.1250,-28.1250,160.8750,0
1776974256.828,10.1155,0.0263,0.4381,1.1119,-0.3264,-1.3187,-80.1000,-19.0500,5.5500,9.8138,2.1452,-1.2186,0.3826,0.5590,-0.8495,-97.6500,6.7500,1.0500,-0.8400,-5.3200,-9.1500,0.5716,0.3218,-1.4661,27.1875,-18.6875,47.3750,155.3750,-27.6875,160.1875,0
1776974256.834,10.4675,0.0790,0.4310,1.1119,-0.3264,-1.3187,-80.1000,-19.0500,5.5500,9.8138,2.1452,-1.2186,0.3826,0.5590,-0.8495,-97.5000,6.1500,1.2000,-0.9900,-5.2700,-9.2900,0.5716,0.3218,-1.4661,27.1875,-18.6875,47.3750,154.6250,-27.1875,159.3750,0
1776974256.843,10.6973,0.2298,0.4429,1.3105,-0.4002,-1.4133,-80.4000,-17.1000,6.9000,9.6654,2.6217,-1.1971,0.2872,0.5862,-0.8143,-97.5000,6.1500,1.2000,-1.6500,-5.4900,-9.6600,0.6207,0.3360,-1.6624,27.1875,-18.6875,47.3750,154.6250,-27.1875,159.3750,0
1776974256.853,10.6063,0.1748,0.1341,1.6782,-0.5486,-1.5439,-79.6500,-16.8000,5.8500,9.6055,3.2848,-0.7829,0.3605,0.6110,-0.8066,-98.2500,7.9500,2.2500,-2.0000,-5.6000,-9.8000,0.6338,0.3491,-1.8740,27.1875,-18.6875,47.3750,153.6875,-26.6875,158.5625,0
1776974256.858,10.6063,0.1748,0.1341,1.6782,-0.5486,-1.5439,-79.8000,-16.2000,6.4500,9.6606,3.1915,-1.1277,0.5127,0.6510,-0.8236,-98.2500,7.9500,2.2500,-2.0000,-5.6000,-9.8000,0.6338,0.3491,-1.8740,27.1875,-18.6875,47.3750,153.6875,-26.6875,158.5625,0
1776974256.863,10.4770,0.0239,-0.1700,1.8330,-0.6238,-1.5902,-79.8000,-16.2000,6.4500,9.6606,3.1915,-1.1277,0.5127,0.6510,-0.8236,-97.5000,9.4500,3.0000,-2.4700,-5.7600,-9.9200,0.6054,0.3632,-2.0802,32.3750,-10.1875,50.8750,152.6250,-26.0625,157.7500,0
1776974256.868,10.4770,0.0239,-0.1700,1.8330,-0.6238,-1.5902,-79.8000,-16.2000,6.4500,9.4571,3.1843,-1.6257,0.6003,0.7330,-0.8170,-97.5000,9.4500,3.0000,-2.4700,-5.7600,-9.9200,0.6054,0.3632,-2.0802,32.3750,-10.1875,50.8750,152.6250,-26.0625,157.7500,0
1776974256.873,10.2041,-0.2634,-0.1963,1.9732,-0.6062,-1.6110,-79.8000,-16.2000,6.4500,9.4571,3.1843,-1.6257,0.6003,0.7330,-0.8170,-98.2500,9.1500,2.5500,-3.2000,-6.0200,-9.9800,0.5127,0.3785,-2.2635,32.3750,-10.1875,50.8750,151.5000,-25.3750,156.9375,0
1776974256.881,10.2041,-0.2634,-0.1963,1.9732,-0.6062,-1.6110,-82.3500,-16.3500,7.6500,9.4140,3.2034,-2.0087,0.7474,0.7661,-0.7997,-97.9500,9.0000,1.6500,-3.3200,-5.6900,-9.9200,0.3763,0.4156,-2.4249,32.3750,-10.1875,50.8750,150.2500,-24.6250,156.1875,0
1776974256.886,10.3597,-0.4597,-0.2490,2.0795,-0.6219,-1.6246,-82.3500,-16.3500,7.6500,9.0836,3.3088,-2.1883,0.9137,0.7133,-0.7653,-97.9500,9.0000,1.6500,-3.3200,-5.6900,-9.9200,0.3763,0.4156,-2.4249,32.3750,-10.1875,50.8750,148.8750,-23.8125,155.5000,0
1776974256.893,10.3669,-0.6560,-0.3136,2.1373,-0.6281,-1.6233,-82.3500,-16.3500,7.6500,8.9184,3.3495,-2.3607,1.0738,0.6792,-0.7245,-97.9500,9.0000,1.6500,-3.5400,-5.0800,-9.8800,0.2531,0.4091,-2.5722,32.3750,-10.1875,50.8750,147.5000,-23.0000,154.8750,0
1776974256.903,10.3621,-0.6967,-0.4669,2.1623,-0.6307,-1.6193,-82.6500,-12.9000,7.6500,8.7724,3.4979,-2.5307,1.2020,0.6153,-0.6558,-98.4000,9.0000,4.2000,-3.6800,-4.1900,-9.6200,0.1909,0.4134,-2.7009,32.3750,-10.1875,50.8750,147.5000,-23.0000,154.8750,0
1776974256.908,10.3621,-0.6967,-0.4669,2.1623,-0.6307,-1.6193,-82.5000,-13.5000,7.2000,8.7724,3.4979,-2.5307,1.2020,0.6153,-0.6558,-98.4000,9.0000,4.2000,-3.6800,-4.1900,-9.6200,0.1909,0.4134,-2.7009,32.3750,-10.1875,50.8750,146.0000,-22.1250,154.2500,0
1776974256.913,10.4603,-0.6847,-0.6823,2.1490,-0.6723,-1.6041,-82.5000,-13.5000,7.2000,8.5353,3.5817,-2.4205,1.2982,0.5761,-0.5902,-97.6500,10.8000,2.8500,-3.6400,-3.9000,-9.4000,0.1593,0.3905,-2.7936,33.0625,2.7500,49.8750,146.0000,-22.1250,154.2500,0
1776974256.918,10.4603,-0.6847,-0.6823,2.1490,-0.6723,-1.6041,-83.4000,-10.0500,8.1000,8.5353,3.5817,-2.4205,1.2982,0.5761,-0.5902,-97.6500,10.8000,2.8500,-3.6400,-3.9000,-9.4000,0.1593,0.3905,-2.7936,33.0625,2.7500,49.8750,144.4375,-21.3125,153.6250,0
1776974256.923,10.3022,-0.7590,-0.7302,2.1040,-0.6819,-1.5809,-83.4000,-10.0500,8.1000,8.3869,3.6440,-2.4086,1.4011,0.5316,-0.5236,-98.2500,9.9000,4.3500,-3.6000,-3.5800,-9.1300,0.1353,0.3087,-2.8362,33.0625,2.7500,49.8750,144.4375,-21.3125,153.6250,0
1776974256.928,10.3022,-0.7590,-0.7302,2.1040,-0.6819,-1.5809,-82.9500,-7.9500,8.2500,8.3869,3.6440,-2.4086,1.4011,0.5316,-0.5236,-97.9500,9.3000,4.5000,-3.6000,-3.5800,-9.1300,0.1069,0.2105,-2.8427,33.0625,2.7500,49.8750,142.9375,-20.5000,153.0625,0
1776974256.934,10.1370,-0.5267,-0.6225,2.1035,-0.6691,-1.5394,-82.9500,-7.9500,8.2500,8.3151,3.7421,-2.1931,1.5282,0.4732,-0.4439,-97.9500,9.3000,4.5000,-3.7100,-3.2800,-8.9400,0.1069,0.2105,-2.8427,33.0625,2.7500,49.8750,141.3750,-19.7500,152.5000,0
1776974256.943,10.0245,-0.4884,-0.6871,2.0765,-0.6944,-1.4821,-83.8500,-9.3000,7.6500,8.2241,3.5099,-1.9297,1.6411,0.4546,-0.3698,-97.0500,10.2000,4.8000,-3.7200,-2.5300,-8.9000,0.0753,0.0611,-2.8165,33.0625,2.7500,49.8750,141.3750,-19.7500,152.5000,0
1776974256.953,9.9144,-0.6632,-0.7614,2.0123,-0.7869,-1.4205,-82.6500,-7.8000,7.3500,8.0517,3.4093,-1.8651,1.7477,0.3997,-0.2928,-97.0500,10.2000,4.8000,-3.8400,-2.3400,-8.8800,0.0284,-0.0545,-2.7903,33.0625,2.7500,49.8750,139.8125,-19.0625,152.0000,0
1776974256.958,9.6965,-0.7781,-0.0455,2.0123,-0.7869,-1.4205,-82.6500,-7.8000,7.3500,8.0517,3.4093,-1.8651,1.7477,0.3997,-0.2928,-97.8000,9.4500,5.8500,-3.8400,-2.3400,-8.8800,0.0284,-0.0545,-2.7903,33.0625,2.7500,49.8750,138.2500,-18.4375,151.5625,0
1776974256.963,9.6965,-0.7781,-0.0455,1.9529,-0.8577,-1.3656,-82.6500,-7.8000,7.3500,8.0325,3.3040,-1.7214,1.8711,0.3307,-0.2124,-97.8000,9.4500,5.8500,-3.9200,-2.1300,-8.9700,-0.0436,-0.1800,-2.7598,26.2500,9.8750,45.5000,138.2500,-18.4375,151.5625,0
1776974256.968,9.6295,-0.8906,-0.7230,1.9529,-0.8577,-1.3656,-85.2000,-6.4500,5.7000,8.0325,3.3040,-1.7214,1.8711,0.3307,-0.2124,-98.5500,10.6500,6.1500,-3.9200,-2.1300,-8.9700,-0.0436,-0.1800,-2.7598,26.2500,9.8750,45.5000,138.2500,-18.4375,151.5625,0
1776974256.973,9.6295,-0.8906,-0.7230,1.8045,-0.8857,-1.3198,-85.2000,-6.4500,5.7000,7.9416,3.0981,-1.4557,1.9446,0.3054,-0.1348,-98.5500,10.6500,6.1500,-4.0800,-1.2900,-9.0500,-0.1265,-0.3316,-2.6944,26.2500,9.8750,45.5000,136.7500,-17.8750,151.1875,0
1776974256.979,9.5984,-1.3551,-0.9218,1.6814,-0.8969,-1.2796,-85.2000,-6.4500,5.7000,7.9416,3.0981,-1.4557,1.9446,0.3054,-0.1348,-98.8500,10.2000,6.4500,-4.6200,-1.1800,-9.2100,-0.1680,-0.4352,-2.5645,26.2500,9.8750,45.5000,135.2500,-17.3750,150.8125,0
1776974256.984,9.5984,-1.3551,-0.9218,1.6814,-0.8969,-1.2796,-85.2000,-6.4500,5.7000,7.8410,2.8108,-1.2641,1.9878,0.2761,-0.0520,-98.8500,10.2000,6.4500,-4.6200,-1.1800,-9.2100,-0.1680,-0.4352,-2.5645,26.2500,9.8750,45.5000,133.8125,-16.9375,150.5000,0
1776974256.993,9.3589,-1.8507,-0.4118,1.6824,-0.9198,-1.2430,-83.4000,-2.2500,5.5500,7.7285,2.2865,-0.9385,1.9708,0.2681,0.0189,-98.2500,9.9000,5.8500,-5.3500,-1.2200,-9.4300,-0.1724,-0.4363,-2.4009,26.2500,9.8750,45.5000,133.8125,-16.9375,150.5000,0
1776974257.003,9.1004,-1.8100,0.2969,1.7176,-0.9228,-1.2044,-84.6000,-1.5000,5.1000,8.0804,2.0111,-1.0080,1.9894,0.2129,0.0608,-98.2500,9.9000,5.8500,-6.1900,-1.4500,-9.6800,-0.1909,-0.3349,-2.2526,26.2500,9.8750,45.5000,132.5000,-16.5000,150.2500,0
1776974257.008,8.6981,-1.8866,0.3759,1.6257,-0.8788,-1.1479,-84.4500,-2.1000,4.2000,8.0804,2.0111,-1.0080,1.9894,0.2129,0.0608,-99.1500,10.8000,6.0000,-6.1900,-1.4500,-9.6800,-0.1909,-0.3349,-2.2526,26.2500,9.8750,45.5000,132.5000,-16.5000,150.2500,0
1776974257.013,8.6981,-1.8866,0.3759,1.6257,-0.8788,-1.1479,-84.4500,-2.1000,4.2000,7.6902,1.7549,-1.1229,1.9939,0.2425,0.1018,-99.1500,10.8000,6.0000,-6.7300,-1.3200,-9.7200,-0.2149,-0.1647,-2.1358,21.1875,11.6875,45.5625,131.2500,-16.0000,150.0625,0
1776974257.018,8.7053,-1.8771,0.3615,1.5652,-0.8247,-1.0861,-84.6000,-1.0500,5.8500,7.6902,1.7549,-1.1229,1.9939,0.2425,0.1018,-99.6000,9.9000,5.4000,-6.7300,-1.3200,-9.7200,-0.2149,-0.1647,-2.1358,21.1875,11.6875,45.5625,131.2500,-16.0000,150.0625,0
1776974257.023,8.7053,-1.8771,0.3615,1.5652,-0.8247,-1.0861,-84.6000,-1.0500,5.8500,7.6399,1.4916,-1.5299,1.8948,0.3685,0.1684,-99.6000,9.9000,5.4000,-7.0500,-1.4000,-9.5100,-0.2520,0.0622,-2.0584,21.1875,11.6875,45.5625,130.1250,-15.3750,149.9375,0
1776974257.029,8.7915,-1.8076,0.1724,1.4813,-0.7413,-1.0003,-84.1500,-1.5000,3.6000,8.4252,1.5083,-1.9201,1.8599,0.4802,0.2523,-98.7000,10.0500,5.7000,-6.8100,-1.4700,-8.9700,-0.3251,0.2847,-1.9962,21.1875,11.6875,45.5625,129.0000,-14.6875,149.8750,0
1776974257.034,8.7915,-1.8076,0.1724,1.4813,-0.7413,-1.0003,-84.1500,-1.5000,3.6000,8.4252,1.5083,-1.9201,1.8599,0.4802,0.2523,-98.7000,10.0500,5.7000,-6.8100,-1.4700,-8.9700,-0.3251,0.2847,-1.9962,21.1875,11.6875,45.5625,128.0000,-13.9375,149.9375,0
1776974257.043,9.0214,-2.0566,0.1724,1.3931,-0.7005,-0.9262,-86.1000,-2.7000,2.8500,8.7915,1.4246,-2.2482,1.7845,0.4786,0.3301,-98.2500,8.7000,6.4500,-6.2100,-1.0000,-7.5900,-0.4320,0.4134,-1.9144,21.1875,11.6875,45.5625,128.0000,-13.9375,149.9375,0
1776974257.053,9.2632,-2.4301,0.3352,1.3201,-0.6789,-0.8442,-86.1000,-2.7000,2.8500,8.5976,0.9840,-2.2960,1.5548,0.4482,0.3725,-98.2500,8.7000,6.4500,-6.1500,-0.4600,-6.9900,-0.5334,0.4091,-1.8031,21.1875,11.6875,45.5625,127.0000,-13.2500,150.0625,0
1776974257.058,9.2751,-2.4157,0.3615,1.2020,-0.6781,-0.7528,-83.8500,0.3000,2.5500,8.4707,0.4046,-2.0830,1.2031,0.4501,0.3824,-98.2500,8.7000,6.4500,-6.1500,-0.4600,-6.9900,-0.5334,0.4091,-1.8031,21.1875,11.6875,45.5625,126.1250,-12.6250,150.1875,0
1776974257.063,9.2751,-2.4157,0.3615,1.2020,-0.6781,-0.7528,-83.8500,0.3000,2.5500,8.4707,0.4046,-2.0830,1.2031,0.4501,0.3824,-98.2500,8.7000,6.4500,-6.4000,0.1600,-6.5500,-0.5607,0.3065,-1.6646,16.7500,11.1875,43.2500,126.1250,-12.6250,150.1875,0
1776974257.068,9.1267,-2.3008,-0.0072,1.0062,-0.6443,-0.6646,-83.8500,0.3000,2.5500,9.3063,0.3184,-2.5738,0.8343,0.5961,0.4314,-99.3000,8.4000,7.9500,-6.4000,0.1600,-6.5500,-0.5607,0.3065,-1.6646,16.7500,11.1875,43.2500,125.2500,-12.1250,150.3125,0
1776974257.073,8.9854,-2.0159,-0.1030,1.0062,-0.6443,-0.6646,-83.8500,0.3000,2.5500,9.3063,0.3184,-2.5738,0.8343,0.5961,0.4314,-99.3000,8.4000,7.9500,-8.0300,0.8700,-6.0200,-0.5018,0.1669,-1.5152,16.7500,11.1875,43.2500,125.2500,-12.1250,150.3125,0
1776974257.080,8.9854,-2.0159,-0.1030,0.7554,-0.5590,-0.5910,-84.6000,1.5000,2.1000,8.3438,0.3472,-2.9497,0.4759,0.7045,0.5039,-98.8500,6.9000,6.9000,-8.8800,0.9000,-5.7200,-0.3851,0.0316,-1.3614,16.7500,11.1875,43.2500,124.5000,-11.7500,150.3750,0
1776974257.085,8.4755,-2.6935,0.2753,0.4514,-0.4738,-0.4852,-84.6000,1.5000,2.1000,8.3438,0.3472,-2.9497,0.4759,0.7045,0.5039,-98.8500,6.9000,6.9000,-8.8800,0.9000,-5.7200,-0.3851,0.0316,-1.3614,16.7500,11.1875,43.2500,123.8125,-11.4375,150.3750,0
1776974257.094,8.0637,-3.3327,0.9697,0.2907,-0.3195,-0.3251,-84.0000,2.4000,1.2000,8.7005,0.6919,-3.3902,0.0421,0.7413,0.5891,-99.1500,8.5500,7.8000,-10.2200,1.1000,-5.6800,-0.2400,-0.0622,-1.1890,16.7500,11.1875,43.2500,123.2500,-11.1875,150.3750,0
1776974257.104,7.5824,-3.5171,2.0303,0.1223,-0.1583,-0.1617,-83.7000,3.6000,1.9500,8.3941,1.1540,-3.4668,-0.4250,0.7893,0.6582,-99.3000,6.4500,9.0000,-12.5900,1.7800,-5.6700,-0.0676,-0.0262,-0.9959,16.7500,11.1875,43.2500,123.2500,-11.1875,150.3750,0
1776974257.108,7.5824,-3.5171,2.0303,0.1223,-0.1583,-0.1617,-83.8500,2.2500,1.3500,8.2361,1.9249,-3.5530,-0.8284,1.0264,0.6872,-99.3000,6.4500,9.0000,-12.5900,1.7800,-5.6700,-0.0676,-0.0262,-0.9959,16.7500,11.1875,43.2500,122.8125,-10.9375,150.1875,0
1776974257.114,7.2065,-2.3152,2.7653,-0.2795,0.1927,-0.0378,-83.8500,2.2500,1.3500,8.2361,1.9249,-3.5530,-0.8284,1.0264,0.6872,-99.3000,6.4500,9.0000,-13.0900,2.5500,-5.4800,0.1505,0.1484,-0.7712,14.8750,10.0625,42.5625,122.8125,-10.9375,150.1875,0
1776974257.118,7.2065,-2.3152,2.7653,-0.2795,0.1927,-0.0378,-84.4500,0.9000,1.2000,9.3948,2.8276,-3.6272,-0.9537,0.7298,0.7634,-98.7000,5.5500,8.1000,-13.0900,2.5500,-5.4800,0.1505,0.1484,-0.7712,14.8750,10.0625,42.5625,122.5000,-10.7500,150.1875,0
1776974257.123,8.7053,-1.8627,1.6257,-1.0477,0.4431,0.1007,-84.4500,0.9000,1.2000,9.3948,2.8276,-3.6272,-0.9537,0.7298,0.7634,-98.7000,5.5500,8.1000,-14.4000,-6.0400,-5.6400,-0.1276,0.0251,-0.5454,14.8750,10.0625,42.5625,122.5000,-10.7500,150.1875,0
1776974257.128,8.7053,-1.8627,1.6257,-1.0477,0.4431,0.1007,-82.9500,2.4000,2.4000,9.0501,3.0071,-3.5961,-1.1175,0.7378,0.8372,-98.8500,6.1500,9.0000,-14.4000,-6.0400,-5.6400,-1.2305,-0.9098,0.6818,14.8750,10.0625,42.5625,122.6875,-11.3750,150.9375,0
1776974257.134,8.7604,-2.8228,2.3056,-1.2958,0.3746,0.3056,-82.9500,2.4000,2.4000,9.0501,3.0071,-3.5961,-1.3129,0.6387,0.8988,-98.8500,6.1500,9.0000,-13.1400,1.2000,2.8900,-1.2305,-0.9098,0.6818,14.8750,10.0625,42.5625,123.2500,-12.5000,152.0000,0
1776974257.143,8.7317,-1.4772,3.7254,-1.1535,0.7986,0.3560,-82.9500,2.4000,2.4000,9.8282,2.7605,-2.8802,-1.3129,0.6387,0.8988,-97.8000,4.6500,7.2000,0.5800,6.8400,-4.5300,-1.7857,-1.3744,1.5686,14.8750,10.0625,42.5625,123.2500,-12.5000,152.0000,0
1776974257.153,12.7108,1.7693,-2.3870,-2.4067,0.7600,0.0823,-84.4500,0.9000,3.4500,10.5560,1.7238,-0.9888,-1.7507,0.6504,1.1636,-98.5500,3.4500,8.7000,-3.7000,-2.3600,-11.2700,-2.0759,-1.6210,1.7901,14.8750,10.0625,42.5625,123.9375,-13.7500,153.2500,0
1776974257.158,12.7108,1.7693,-2.3870,-2.4067,0.7600,0.0823,-84.7500,1.3500,4.2000,10.9607,1.0104,0.6919,-1.7507,0.6504,1.1636,-98.5500,3.4500,8.7000,-3.7000,-2.3600,-11.2700,-2.0759,-1.6210,1.7901,14.8750,10.0625,42.5625,123.9375,-13.7500,153.2500,0
1776974257.164,16.8887,6.3614,-6.3758,-3.5813,0.1431,-0.2915,-84.7500,1.3500,4.2000,12.4498,0.2969,1.3001,-1.9505,0.6198,1.2580,-98.5500,3.4500,8.7000,-1.8800,-9.9600,-13.6200,-1.7464,-1.6559,1.7541,15.1875,9.7500,39.8750,124.5625,-15.0000,154.3125,0
1776974257.168,16.8887,6.3614,-6.3758,-3.5813,0.1431,-0.2915,-84.6000,1.5000,4.3500,12.4498,0.2969,1.3001,-1.9505,0.6198,1.2580,-98.5500,3.4500,8.7000,-1.8800,-9.9600,-13.6200,-1.7464,-1.6559,1.7541,15.1875,9.7500,39.8750,124.5625,-15.0000,154.3125,0
1776974257.173,18.2941,4.8890,-7.1419,-2.7211,-0.2302,-0.2427,-84.6000,1.5000,4.3500,16.0962,0.8140,0.9313,-1.9867,0.5129,1.4544,-98.5500,3.4500,8.7000,-0.3100,6.1000,-8.6600,-1.0232,-1.6384,1.7650,15.1875,9.7500,39.8750,125.2500,-16.2500,155.0625,0
1776974257.182,14.9063,6.4979,-1.2498,-1.0237,-0.0698,0.0661,-83.4000,1.9500,4.8000,16.0962,0.8140,0.9313,-1.9867,0.5129,1.4544,-97.9500,0.7500,9.9000,-12.0700,-16.2300,-13.0600,0.2280,-2.6158,1.1246,15.1875,9.7500,39.8750,125.5625,-17.8125,154.9375,0
1776974257.186,14.9063,6.4979,-1.2498,-1.0237,-0.0698,0.0661,-83.4000,1.9500,4.8000,19.9652,3.2058,-0.0503,-1.7826,0.2438,1.5961,-97.0500,0.9000,10.5000,-12.0700,-16.2300,-13.0600,0.2280,-2.6158,1.1246,15.1875,9.7500,39.8750,126.1875,-19.7500,155.0000,0
1776974257.194,11.4682,4.4604,1.0894,0.4207,0.5694,0.5348,-83.8500,1.9500,4.8000,20.9014,7.1156,-2.1644,-0.6507,0.1252,1.3947,-97.8000,0.4500,9.3000,-26.4600,-10.1000,-17.5800,-0.0480,-3.0074,1.7562,15.1875,9.7500,39.8750,126.4375,-20.3125,155.2500,0
1776974257.204,13.3812,1.9848,-2.7438,1.2462,0.8092,0.7789,-82.9500,3.3000,5.2500,15.2008,10.6686,-3.3519,0.7402,-0.4002,0.8074,-96.4500,-0.1500,11.1000,-0.0900,2.0800,-8.5500,-0.3229,-0.8890,0.7079,15.1875,9.7500,39.8750,126.4375,-20.3125,155.2500,0
1776974257.209,13.9917,0.4693,-0.7590,1.2375,0.5025,0.7282,-82.9500,3.3000,5.2500,15.2008,10.6686,-3.3519,0.7402,-0.4002,0.8074,-96.4500,-0.1500,11.1000,-0.0900,2.0800,-8.5500,-0.3229,-0.8890,0.7079,15.1875,9.7500,39.8750,126.5625,-20.5625,155.4375,0
1776974257.214,13.9917,0.4693,-0.7590,1.2375,0.5025,0.7282,-82.9500,3.3000,5.2500,9.3518,9.4930,0.0239,0.9270,-0.5777,0.1343,-96.4500,-0.1500,11.1000,-4.5500,-1.5700,-12.1300,-0.2651,-0.3294,0.3774,18.5625,3.5000,37.8750,126.5625,-20.5625,155.4375,0
1776974257.219,10.0245,0.0311,2.7964,0.8692,0.0448,0.5785,-84.0000,0.1500,5.7000,9.3518,9.4930,0.0239,0.9270,-0.5777,0.1343,-96.4500,-0.1500,11.1000,-4.5500,-1.5700,-12.1300,-0.2651,-0.3294,0.3774,18.5625,3.5000,37.8750,126.6875,-20.9375,155.4375,0
1776974257.224,10.0245,0.0311,2.7964,0.8692,0.0448,0.5785,-84.0000,0.1500,5.7000,6.0238,5.1356,3.5913,0.3912,0.0304,-0.1258,-94.0500,-0.7500,8.8500,-7.2800,-3.1300,-11.4400,-0.0644,-0.5585,0.3229,18.5625,3.5000,37.8750,126.6875,-20.9375,155.4375,0
1776974257.229,6.5553,1.2689,1.9393,0.3720,-0.1436,0.6185,-84.0000,0.1500,5.7000,6.0238,5.1356,3.5913,0.3912,0.0304,-0.1258,-94.0500,-0.7500,8.8500,-7.2800,-3.1300,-11.4400,0.0753,-0.3698,0.1254,18.5625,3.5000,37.8750,126.7500,-21.1875,155.4375,0
1776974257.235,6.5553,1.2689,1.9393,0.3720,-0.1436,0.6185,-84.0000,0.1500,5.7000,5.5091,1.4222,3.5650,-0.3595,1.1914,0.0216,-95.2500,0.9000,11.1000,-3.8300,-1.8000,-8.4400,0.0753,-0.3698,0.1254,18.5625,3.5000,37.8750,126.7500,-21.3750,155.3125,0
1776974257.244,6.0430,1.9513,1.9393,-0.4362,0.3531,0.5750,-84.7500,-1.3500,5.2500,6.3542,-0.1652,2.8371,-0.6989,1.7725,0.2169,-93.9000,1.6500,11.8500,-4.1600,-5.3600,-7.8300,0.1429,-0.4167,0.0894,18.5625,3.5000,37.8750,126.7500,-21.6250,155.1875,0
1776974257.254,8.0086,2.5307,1.0606,-0.2699,0.5593,0.6014,-84.0000,-0.4500,5.2500,7.4053,-0.6009,2.6911,-0.7389,1.7571,0.3656,-94.3500,3.3000,13.5000,-3.7400,-4.5700,-7.7300,0.1789,-0.4069,0.0862,18.5625,3.5000,37.8750,126.7500,-21.6250,155.1875,0
1776974257.259,9.8617,3.3255,-0.7829,0.2372,0.4775,0.6185,-83.2500,-1.6500,7.9500,7.4053,-0.6009,2.6911,-0.7389,1.7571,0.3656,-94.3500,3.3000,13.5000,-3.7400,-4.5700,-7.7300,0.1789,-0.4069,0.0862,18.5625,3.5000,37.8750,126.7500,-21.6250,155.1875,0
1776974257.264,9.8617,3.3255,-0.7829,0.2372,0.4775,0.6185,-83.2500,-1.6500,7.9500,8.1187,-1.0391,2.8874,-0.5838,1.0064,0.5369,-94.3500,3.3000,13.5000,-3.9600,-4.3600,-8.1100,0.1647,-0.4789,0.1113,20.8750,1.6875,36.7500,126.8125,-21.8750,155.0625,0
1776974257.269,9.6893,2.2410,-0.7446,0.4804,0.4493,0.5894,-83.2500,-1.6500,7.9500,8.1187,-1.0391,2.8874,-0.5838,1.0064,0.5369,-94.3500,3.3000,13.5000,-3.9600,-4.3600,-8.1100,0.1647,-0.4789,0.1113,20.8750,1.6875,36.7500,126.8125,-21.8750,155.0625,0
1776974257.274,9.6893,2.2410,-0.7446,0.4804,0.4493,0.5894,-83.7000,-1.6500,7.2000,8.5593,-1.2905,2.3918,-0.3834,0.2899,0.7989,-96.6000,1.0500,13.8000,-3.8100,-4.3700,-7.9100,0.0349,-0.3371,0.1091,20.8750,1.6875,36.7500,126.8125,-22.0625,155.0625,0
1776974257.282,9.1650,0.5794,-0.2298,0.3166,0.4162,0.4927,-83.2500,-1.6500,6.4500,8.5473,-1.1013,0.5674,-0.0514,-0.0069,1.0110,-96.6000,1.0500,13.8000,-3.5400,-3.8400,-8.0800,-0.0098,-0.2760,0.1254,20.8750,1.6875,36.7500,126.8750,-22.2500,155.0625,0
1776974257.286,8.6670,-1.1301,0.0670,-0.3259,0.4738,0.4199,-83.2500,-1.6500,6.4500,8.5473,-1.1013,0.5674,-0.0514,-0.0069,1.0110,-97.0500,-0.9000,13.9500,-3.5400,-3.8400,-8.0800,-0.0098,-0.2760,0.1254,20.8750,1.6875,36.7500,126.8750,-22.4375,155.0625,0
1776974257.294,8.7293,-1.2809,-0.3041,-0.3259,0.4738,0.4199,-84.4500,-0.9000,7.2000,8.7245,-0.9768,-1.0247,0.2638,0.0469,1.0440,-98.8500,-0.9000,13.6500,-3.3500,-3.6800,-7.9200,-0.0316,-0.2716,0.1538,20.8750,1.6875,36.7500,126.9375,-22.6250,155.1250,0
1776974257.304,9.2871,0.1173,-0.4860,-0.9390,0.4754,0.4008,-84.4500,-0.9000,7.2000,9.2201,-0.2251,-1.8459,0.5955,0.2438,0.9686,-98.5500,-2.7000,13.9500,-3.0700,-3.8400,-7.7800,-0.0993,-0.2934,0.1974,20.8750,1.6875,36.7500,126.9375,-22.6250,155.1250,0
1776974257.309,9.2871,0.1173,-0.4860,-1.2804,0.5228,0.3957,-84.4500,-0.9000,7.2000,10.0748,0.7326,-1.6807,0.9230,0.4900,0.8519,-98.5500,-2.7000,13.9500,-3.0700,-3.8400,-7.7800,-0.0993,-0.2934,0.1974,20.8750,1.6875,36.7500,126.9375,-22.6250,155.1250,0
1776974257.314,9.8090,1.9489,-0.2107,-1.2804,0.5228,0.3957,-83.8500,-2.7000,8.4000,10.0748,0.7326,-1.6807,0.9230,0.4900,0.8519,-97.5000,-4.6500,12.6000,-4.0700,-3.2700,-8.5000,-0.1156,-0.3458,0.2356,22.3750,1.2500,36.3750,127.0625,-22.8750,155.2500,0
1776974257.319,9.8090,1.9489,-0.2107,-1.1109,0.6169,0.4215,-83.8500,-2.7000,8.4000,10.6805,1.4150,-1.1157,1.1946,0.6749,0.7344,-97.5000,-4.6500,12.6000,-4.0700,-3.2700,-8.5000,-0.1156,-0.3458,0.2356,22.3750,1.2500,36.3750,127.0625,-22.8750,155.2500,0
1776974257.324,10.4196,3.6224,-0.2777,-0.5609,0.6091,0.4772,-83.8500,-2.7000,8.4000,10.6805,1.4150,-1.1157,1.1946,0.6749,0.7344,-97.5000,-4.6500,12.6000,-4.7200,-3.3100,-8.7800,-0.0600,-0.3414,0.2236,22.3750,1.2500,36.3750,127.1250,-23.0625,155.2500,0
1776974257.329,10.4196,3.6224,-0.2777,-0.5609,0.6091,0.4772,-83.8500,-2.7000,8.4000,10.6422,1.7933,-0.8715,1.3067,0.7999,0.6662,-97.5000,-4.6500,12.6000,-4.7200,-3.3100,-8.7800,-0.0338,-0.2858,0.1593,22.3750,1.2500,36.3750,127.1875,-23.2500,155.3125,0
1776974257.335,10.4603,4.4724,-0.0144,0.1383,0.5372,0.5028,-82.3500,-4.2000,8.8500,10.6422,1.7933,-0.8715,1.3067,0.7999,0.6662,-96.6000,-8.5500,12.7500,-4.5900,-3.6000,-8.6900,-0.0338,-0.2858,0.1593,22.3750,1.2500,36.3750,127.1875,-23.4375,155.3125,0
1776974257.344,9.9192,4.2018,0.5124,0.7991,0.4333,0.5231,-83.8500,-4.2000,9.9000,10.5656,2.3320,-0.5219,1.4154,0.8092,0.5942,-94.8000,-9.7500,13.8000,-4.3100,-3.4500,-8.6400,-0.0622,-0.2662,0.1134,22.3750,1.2500,36.3750,127.1875,-23.4375,155.3125,0
1776974257.354,9.5002,3.0526,1.0008,1.1647,0.2926,0.5092,-84.4500,-3.3000,8.2500,8.9878,2.4804,0.3232,1.2798,0.6310,0.5092,-94.8000,-7.8000,14.2500,-4.3600,-3.4200,-8.5600,-0.0665,-0.2520,0.0829,22.3750,1.2500,36.3750,127.1875,-23.5625,155.3750,0
1776974257.359,9.5002,3.0526,1.0008,1.1647,0.2926,0.5092,-84.4500,-3.3000,8.2500,9.6007,2.2218,0.4022,0.8780,0.9822,0.4756,-94.8000,-7.8000,14.2500,-4.3600,-3.4200,-8.5600,-0.0665,-0.2520,0.0829,22.3750,1.2500,36.3750,127.1875,-23.6875,155.3750,0
1776974257.364,8.8969,1.6305,1.1013,1.1647,0.3142,0.4898,-83.8500,-4.2000,8.4000,9.6007,2.2218,0.4022,0.8780,0.9822,0.4756,-92.5500,-9.7500,13.5000,-4.2400,-3.6100,-8.3900,-0.0545,-0.2203,0.0611,22.0000,0.2500,34.7500,127.1875,-23.6875,155.3750,0
1776974257.369,8.8969,1.6305,1.1013,1.1647,0.3142,0.4898,-83.8500,-4.2000,8.4000,8.9376,1.4485,1.3958,0.4170,0.8178,0.4876,-92.5500,-9.7500,13.5000,-4.2400,-3.6100,-8.3900,-0.0545,-0.2203,0.0611,22.0000,0.2500,34.7500,127.1875,-23.8125,155.4375,0
1776974257.374,9.1219,0.3855,1.1732,0.9785,0.4450,0.4879,-83.1000,-3.0000,9.1500,8.9376,1.4485,1.3958,0.4170,0.8178,0.4876,-92.5500,-9.7500,13.5000,-4.0900,-3.7500,-8.1200,-0.0578,-0.1898,0.0436,22.0000,0.2500,34.7500,127.1875,-23.8125,155.4375,0
1776974257.380,9.1219,0.3855,1.1732,0.9785,0.4450,0.4879,-83.8500,-5.8500,9.6000,9.4882,0.8308,1.6616,0.0983,0.8713,0.5127,-92.5500,-9.7500,13.5000,-4.0000,-3.4700,-8.3000,-0.0709,-0.1582,0.0425,22.0000,0.2500,34.7500,127.1875,-23.8750,155.4375,0
1776974257.385,9.7588,-0.2777,0.9002,0.6051,0.5031,0.4735,-83.8500,-5.8500,9.6000,9.4882,0.8308,1.6616,0.0983,0.8713,0.5127,-93.3000,-9.7500,14.5500,-4.0000,-3.4700,-8.3000,-0.0709,-0.1582,0.0425,22.0000,0.2500,34.7500,127.1875,-24.0000,155.4375,0
1776974257.394,9.8881,-0.1915,1.0367,0.1364,0.5012,0.4711,-83.8500,-5.8500,9.6000,9.2009,0.3160,1.8723,-0.1284,0.8505,0.5300,-92.2500,-9.7500,15.3000,-4.1800,-3.5900,-8.3300,-0.0535,-0.1745,0.0458,22.0000,0.2500,34.7500,127.1875,-24.0000,155.4375,0
1776974257.404,9.7229,0.9218,0.9864,-0.3134,0.4572,0.4884,-82.5000,-4.5000,10.8000,9.0836,0.3065,1.9752,-0.1079,0.6811,0.5185,-92.5500,-8.5500,16.3500,-4.2700,-3.7700,-8.1400,-0.0153,-0.1604,0.0458,22.0000,0.2500,34.7500,127.1875,-24.0625,155.4375,0
1776974257.409,9.7229,0.9218,0.9864,-0.3134,0.4572,0.4884,-82.5000,-4.5000,10.8000,9.0908,0.6728,2.3942,0.0333,0.5604,0.4780,-92.5500,-8.5500,16.3500,-4.2700,-3.7700,-8.1400,-0.0153,-0.1604,0.0458,22.0000,0.2500,34.7500,127.1875,-24.0625,155.4375,0
1776974257.414,9.1913,2.4229,0.7685,-0.6041,0.4351,0.5223,-82.5000,-4.5000,10.8000,9.0908,0.6728,2.3942,0.0333,0.5604,0.4780,-92.2500,-9.3000,15.9000,-3.7800,-3.6800,-8.0600,-0.0229,-0.1320,0.0513,22.5000,1.0000,34.3750,127.1875,-24.1250,155.5000,0
1776974257.419,9.1913,2.4229,0.7685,-0.6041,0.4351,0.5223,-82.5000,-4.5000,10.8000,9.2512,1.1468,2.6456,0.2105,0.4431,0.4202,-92.2500,-9.3000,15.9000,-3.7800,-3.6800,-8.0600,-0.0229,-0.1320,0.0513,22.5000,1.0000,34.3750,127.1875,-24.1250,155.5000,0
1776974257.424,8.8825,3.2848,0.2753,-0.6608,0.4655,0.5758,-82.9500,-7.2000,9.3000,9.2512,1.1468,2.6456,0.2105,0.4431,0.4202,-92.5500,-10.5000,18.1500,-3.9500,-3.6600,-8.0600,-0.0589,-0.1418,0.0665,22.5000,1.0000,34.3750,127.2500,-24.2500,155.5000,0
1776974257.429,8.9878,3.3232,0.0814,-0.6608,0.4655,0.5758,-82.9500,-7.2000,9.3000,9.6893,1.5634,2.4876,0.2465,0.4077,0.3645,-92.5500,-10.5000,18.1500,-3.9500,-3.6600,-8.0600,-0.0905,-0.1527,0.0807,22.5000,1.0000,34.3750,127.2500,-24.3125,155.5625,0
1776974257.435,8.9878,3.3232,0.0814,-0.5702,0.5228,0.6238,-81.6000,-4.9500,9.9000,9.3565,1.7837,2.0375,0.1415,0.3824,0.3163,-92.5500,-10.5000,18.1500,-4.0600,-3.7800,-8.0900,-0.0905,-0.1527,0.0807,22.5000,1.0000,34.3750,127.2500,-24.3125,155.5625,0
1776974257.443,9.2249,3.1795,-0.3232,-0.3917,0.5303,0.6699,-82.9500,-6.7500,11.5500,9.3565,1.7837,2.0375,0.1415,0.3824,0.3163,-92.7000,-10.6500,19.0500,-3.9100,-3.6000,-8.0800,-0.1298,-0.1418,0.0927,22.5000,1.0000,34.3750,127.2500,-24.4375,155.6250,0
1776974257.448,9.3422,2.8060,-0.3089,-0.3917,0.5303,0.6699,-82.9500,-6.7500,11.5500,9.2871,2.0423,1.3958,-0.0890,0.4791,0.3035,-92.7000,-10.6500,19.0500,-3.9100,-3.6000,-8.0800,-0.1702,-0.1385,0.1102,22.5000,1.0000,34.3750,127.3125,-24.5000,155.7500,0
1776974257.455,9.3422,2.8060,-0.3089,-0.1713,0.4978,0.7021,-81.6000,-6.1500,12.1500,9.4715,2.0686,0.5626,-0.1964,0.4290,0.2920,-91.9500,-10.2000,17.5500,-4.0500,-3.5500,-8.1100,-0.1702,-0.1385,0.1102,22.5000,1.0000,34.3750,127.3125,-24.5000,155.7500,0
1776974257.460,9.3613,2.4636,-0.0048,-0.0107,0.4959,0.7293,-81.6000,-6.1500,12.1500,9.4715,2.0686,0.5626,-0.1964,0.4290,0.2920,-92.7000,-9.9000,19.0500,-4.0500,-3.5500,-8.1100,-0.2007,-0.1353,0.1233,22.7500,0.2500,35.5625,127.3125,-24.6250,155.8750,0
1776974257.465,9.3613,2.4636,-0.0048,-0.0107,0.4959,0.7293,-81.6000,-6.1500,12.1500,9.4236,2.1500,0.1987,-0.2249,0.5486,0.2523,-92.7000,-9.9000,19.0500,-4.1600,-3.4700,-8.1400,-0.2007,-0.1353,0.1233,22.7500,0.2500,35.5625,127.3125,-24.6250,155.8750,0
1776974257.470,9.3541,2.2290,0.2251,0.0871,0.5191,0.7482,-81.6000,-6.1500,12.1500,9.4236,2.1500,0.1987,-0.2249,0.5486,0.2523,-93.9000,-10.6500,19.3500,-4.1600,-3.4700,-8.1400,-0.2236,-0.1211,0.1309,22.7500,0.2500,35.5625,127.3125,-24.6875,156.0000,0
1776974257.475,9.3541,2.2290,0.2251,0.0871,0.5191,0.7482,-82.3500,-6.9000,10.6500,9.1794,2.0973,-0.2610,-0.1927,0.5340,0.2372,-93.9000,-10.6500,19.3500,-4.0100,-3.3800,-8.1200,-0.2236,-0.1211,0.1309,22.7500,0.2500,35.5625,127.3125,-24.6875,156.0000,0
1776974257.480,9.1746,2.3320,0.6009,0.1308,0.5311,0.7594,-82.3500,-6.9000,10.6500,9.1794,2.0973,-0.2610,-0.1927,0.5340,0.2372,-93.9000,-10.6500,19.3500,-4.0100,-3.3800,-8.1200,-0.2553,-0.1113,0.1353,22.7500,0.2500,35.5625,127.3750,-24.8125,156.1875,0
1776974257.485,9.1746,2.3320,0.6009,0.1308,0.5311,0.7594,-82.3500,-6.9000,10.6500,9.1674,2.4684,-0.5602,-0.2643,0.6166,0.2393,-93.9000,-10.6500,19.3500,-3.9200,-3.4100,-8.1000,-0.2553,-0.1113,0.1353,22.7500,0.2500,35.5625,127.3750,-24.8125,156.1875,0
1776974257.494,9.2033,2.2170,0.6560,0.1354,0.5393,0.7450,-81.9000,-9.0000,12.9000,8.7843,2.1308,-0.4405,-0.3008,0.6126,0.2092,-94.8000,-10.0500,20.5500,-3.8700,-3.5700,-7.8400,-0.2793,-0.1091,0.1560,22.7500,0.2500,35.5625,127.4375,-24.8750,156.3750,0
1776974257.504,9.0764,1.6257,0.7183,0.1418,0.4964,0.7173,-81.7500,-9.1500,12.3000,8.7939,1.7765,0.2370,-0.2084,0.5841,0.1857,-95.2500,-12.4500,20.7000,-3.4400,-3.6400,-7.8100,-0.3207,-0.1265,0.1811,22.7500,0.2500,35.5625,127.4375,-25.0000,156.5625,0
1776974257.509,8.8825,1.1061,1.1947,0.2254,0.4823,0.7376,-81.7500,-9.1500,12.3000,8.7939,1.7765,0.2370,-0.2084,0.5841,0.1857,-94.8000,-12.0000,21.6000,-3.4400,-3.6400,-7.8100,-0.3207,-0.1265,0.1811,22.7500,0.2500,35.5625,127.4375,-25.0000,156.5625,0
1776974257.513,8.8825,1.1061,1.1947,0.2254,0.4823,0.7376,-81.6000,-9.3000,12.9000,9.0716,1.3910,0.8715,-0.0906,0.6177,0.1577,-94.8000,-12.0000,21.6000,-4.1800,-3.6700,-7.8400,-0.3774,-0.2007,0.2334,23.1875,-0.0625,34.3750,127.5000,-25.1250,156.8125,0
1776974257.518,9.0381,0.5794,1.2258,0.2062,0.5164,0.7711,-81.6000,-9.3000,12.9000,9.0716,1.3910,0.8715,-0.0906,0.6177,0.1577,-94.2000,-11.4000,20.4000,-4.1800,-3.6700,-7.8400,-0.3774,-0.2007,0.2334,23.1875,-0.0625,34.3750,127.5000,-25.1250,156.8125,0
1776974257.523,9.0381,0.5794,1.2258,0.2062,0.5164,0.7711,-81.0000,-8.4000,12.3000,9.4739,0.4884,1.5467,0.1191,0.4274,0.1857,-94.2000,-11.4000,20.4000,-4.4600,-3.4600,-8.0900,-0.4407,-0.2323,0.2749,23.1875,-0.0625,34.3750,127.5625,-25.3125,157.1250,0
1776974257.528,9.3063,0.1437,1.0343,0.1641,0.5057,0.7967,-81.0000,-8.4000,12.3000,9.4739,0.4884,1.5467,0.1191,0.4274,0.1857,-96.6000,-12.3000,19.5000,-4.4600,-3.4600,-8.0900,-0.4407,-0.2323,0.2749,23.1875,-0.0625,34.3750,127.6875,-25.5000,157.4375,0
1776974257.535,9.4667,-0.2969,1.2761,0.1641,0.5057,0.7967,-80.4000,-9.7500,12.1500,9.1913,0.7518,3.1603,0.5782,0.3656,0.2132,-96.6000,-12.3000,19.5000,-4.6700,-3.4800,-8.1800,-0.4756,-0.1963,0.2858,23.1875,-0.0625,34.3750,127.7500,-25.6250,157.7500,0
1776974257.544,9.6510,-0.3136,1.1756,0.1876,0.4956,0.8058,-81.0000,-9.1500,12.7500,8.5353,1.4772,3.2753,0.6374,0.4024,0.2694,-96.6000,-12.3000,19.5000,-4.5800,-2.7600,-8.4700,-0.4734,-0.1385,0.2585,23.1875,-0.0625,34.3750,127.7500,-25.6250,157.7500,0
1776974257.554,9.7779,-0.3112,1.0271,0.1314,0.5193,0.7991,-81.0000,-9.1500,12.7500,9.0070,1.1109,2.5474,0.3874,0.4567,0.3016,-94.2000,-12.9000,20.7000,-4.5200,-3.0200,-8.4200,-0.4352,-0.0894,0.2203,23.1875,-0.0625,34.3750,127.8125,-25.6875,158.0000,0
1776974257.559,9.7779,-0.3112,1.0271,0.1314,0.5193,0.7991,-81.0000,-9.1500,12.7500,9.0070,1.1109,2.5474,0.3874,0.4567,0.3016,-92.5500,-13.8000,21.0000,-4.5200,-3.0200,-8.4200,-0.4352,-0.0894,0.2203,23.1875,-0.0625,34.3750,127.8125,-25.6875,158.0000,0
1776974257.564,9.7348,-0.2705,1.3024,0.2081,0.4866,0.7786,-81.1500,-10.0500,12.4500,9.2536,0.5148,2.1596,0.1887,0.4916,0.3107,-92.5500,-13.8000,21.0000,-4.6600,-3.0600,-8.4400,-0.4036,-0.0818,0.1909,23.1875,-0.5000,34.3750,127.8125,-25.7500,158.3125,0
1776974257.569,9.7348,-0.2705,1.3024,0.2081,0.4866,0.7786,-81.1500,-10.0500,12.4500,9.2536,0.5148,2.1596,0.1887,0.4916,0.3107,-94.2000,-15.4500,20.7000,-4.6600,-3.0600,-8.4400,-0.4036,-0.0818,0.1909,23.1875,-0.5000,34.3750,127.8125,-25.7500,158.3125,0
1776974257.574,9.6989,0.0048,1.8004,0.1871,0.4890,0.7602,-81.1500,-10.0500,12.4500,9.3757,0.1604,2.0231,0.0999,0.4716,0.3331,-94.2000,-15.4500,20.7000,-5.0500,-3.0500,-8.3300,-0.4200,-0.0491,0.1505,23.1875,-0.5000,34.3750,127.8750,-25.8125,158.5625,0
1776974257.581,9.6989,0.0048,1.8004,0.1871,0.4890,0.7602,-81.1500,-10.0500,12.4500,9.3518,0.1676,1.9800,0.1074,0.2942,0.3637,-93.1500,-15.4500,20.7000,-4.3200,-2.8900,-8.4200,-0.3622,0.0000,0.1145,23.1875,-0.5000,34.3750,127.8750,-25.8750,158.7500,0
1776974257.586,9.6414,0.3496,1.5850,0.1924,0.4628,0.7298,-79.5000,-11.4000,13.5000,9.3518,0.1676,1.9800,0.1074,0.2942,0.3637,-93.1500,-15.4500,20.7000,-4.3200,-2.8900,-8.4200,-0.3622,0.0000,0.1145,23.1875,-0.5000,34.3750,127.8750,-25.8750,159.0000,0
1776974257.595,9.3589,0.2370,2.0423,0.2753,0.5143,0.6880,-79.8000,-11.8500,14.5500,9.1626,0.3232,1.8627,0.1655,0.2878,0.3800,-93.1500,-15.4500,20.7000,-4.0400,-3.3000,-8.2200,-0.2978,0.0131,0.0960,23.1875,-0.5000,34.3750,127.8750,-25.8750,159.1875,0
1776974257.605,9.6558,-0.3783,2.2625,0.3072,0.5332,0.6909,-80.8500,-13.6500,15.9000,8.9759,0.4429,1.4844,0.2348,0.2899,0.3965,-93.4500,-15.1500,20.7000,-4.1300,-3.2900,-8.1700,-0.3098,-0.0022,0.1080,23.1875,-0.5000,34.3750,127.8750,-25.8750,159.1875,0
1776974257.609,9.6558,-0.3783,2.2625,0.3072,0.5332,0.6909,-80.8500,-13.6500,15.9000,8.9902,0.4357,1.3695,0.2481,0.4650,0.4279,-91.9500,-15.4500,22.5000,-4.1300,-3.2900,-8.1700,-0.3098,-0.0022,0.1080,23.1875,-0.5000,34.3750,127.9375,-25.9375,159.3750,0
1776974257.614,9.7851,-0.8380,1.9944,0.3027,0.4930,0.6720,-80.1000,-13.6500,13.6500,8.9902,0.4357,1.3695,0.2481,0.4650,0.4279,-91.9500,-15.4500,22.5000,-4.0200,-3.3500,-8.2200,-0.3414,-0.0338,0.1167,24.0000,-2.0000,34.6875,127.9375,-25.9375,159.3750,0
1776974257.619,9.7851,-0.8380,1.9944,0.3027,0.4930,0.6720,-80.1000,-13.6500,13.6500,9.0860,0.2705,1.4054,0.2403,0.4815,0.4706,-91.5000,-15.0000,21.6000,-4.0200,-3.3500,-8.2200,-0.3414,-0.0338,0.1167,24.0000,-2.0000,34.6875,127.9375,-26.0000,159.6250,0
1776974257.624,9.7636,-1.2498,1.6688,0.3086,0.4527,0.6678,-78.0000,-13.0500,15.3000,9.0860,0.2705,1.4054,0.2403,0.4815,0.4706,-91.5000,-15.0000,21.6000,-4.4300,-3.0600,-8.2800,-0.3567,-0.0349,0.1265,24.0000,-2.0000,34.6875,127.9375,-26.0000,159.6250,0
1776974257.630,9.7636,-1.2498,1.6688,0.3086,0.4527,0.6678,-78.0000,-13.0500,15.3000,9.0597,0.0479,1.5754,0.1079,0.7461,0.5233,-90.1500,-16.2000,23.2500,-4.4300,-3.0600,-8.2800,-0.3534,-0.0065,0.1254,24.0000,-2.0000,34.6875,127.9375,-26.0000,159.8125,0
1776974257.635,9.7875,-1.4724,1.3527,0.2110,0.4330,0.6382,-80.1000,-13.9500,15.1500,9.0597,0.0479,1.5754,0.1079,0.7461,0.5233,-90.1500,-16.2000,23.2500,-4.5600,-2.9300,-8.2500,-0.3534,-0.0065,0.1254,24.0000,-2.0000,34.6875,128.0000,-26.0000,160.0625,0
1776974257.645,9.8330,-1.4437,1.3168,0.1391,0.4327,0.6163,-80.1000,-13.9500,15.1500,9.7420,-0.2274,1.7741,0.1282,0.5788,0.5790,-91.9500,-16.2000,22.5000,-4.4600,-2.8400,-8.4900,-0.3480,0.0207,0.1102,24.0000,-2.0000,34.6875,128.0000,-26.0000,160.0625,0
1776974257.655,10.0078,-1.3982,1.2067,0.1002,0.4461,0.6099,-78.9000,-13.6500,13.9500,9.5792,-0.5028,2.1189,0.0560,0.6989,0.6153,-91.9500,-16.2000,22.5000,-4.5700,-2.5800,-8.6500,-0.3207,-0.0044,0.0960,24.0000,-2.0000,34.6875,128.0000,-26.0000,160.2500,0
1776974257.659,9.8521,-0.8978,1.2067,0.1002,0.4461,0.6099,-78.9000,-13.6500,13.9500,9.5600,-0.6752,2.0399,0.0240,0.6169,0.6520,-90.4500,-18.0000,23.8500,-4.5700,-2.5800,-8.6500,-0.3207,-0.0044,0.0960,24.0000,-2.0000,34.6875,128.0000,-26.0000,160.2500,0
1776974257.665,9.8521,-0.8978,1.2067,0.0717,0.4077,0.5945,-78.9000,-13.6500,13.9500,9.5600,-0.6752,2.0399,0.0240,0.6169,0.6520,-90.4500,-18.0000,23.8500,-4.4700,-2.6000,-8.7000,-0.2738,-0.0196,0.0774,23.5625,-2.2500,35.0625,128.0000,-26.0625,160.4375,0
1776974257.669,9.5002,-0.4429,1.3910,0.0717,0.4077,0.5945,-78.9000,-13.6500,13.9500,9.3015,-0.5794,2.0470,0.0338,0.6129,0.6643,-90.1500,-16.6500,24.3000,-4.4700,-2.6000,-8.7000,-0.2738,-0.0196,0.0774,23.5625,-2.2500,35.0625,128.0000,-26.0625,160.4375,0
1776974257.674,9.5002,-0.4429,1.3910,0.0917,0.4050,0.5857,-78.7500,-13.0500,15.3000,9.3015,-0.5794,2.0470,0.0338,0.6129,0.6643,-90.1500,-16.6500,24.3000,-4.5400,-2.5300,-8.6600,-0.1963,-0.0098,0.0556,23.5625,-2.2500,35.0625,128.0000,-26.0625,160.5625,0
1776974257.681,9.3589,0.1365,1.5730,0.0922,0.4255,0.5777,-78.7500,-13.0500,15.3000,9.5936,-0.2682,1.7909,0.0181,0.5804,0.6651,-89.2500,-19.0500,23.8500,-4.3200,-2.7400,-8.4400,-0.1407,-0.0131,0.0393,23.5625,-2.2500,35.0625,128.0000,-26.0625,160.6250,0
1776974257.686,9.3589,0.1365,1.5730,0.0922,0.4255,0.5777,-77.4000,-14.4000,16.9500,9.4212,0.1532,1.6927,-0.0759,0.5135,0.6571,-89.1000,-16.6500,25.0500,-4.3200,-2.7400,-8.4400,-0.1407,-0.0131,0.0393,23.5625,-2.2500,35.0625,128.0000,-26.1250,160.7500,0
1776974257.695,9.4355,0.8978,1.5802,0.1127,0.4167,0.5646,-77.7000,-14.8500,15.9000,9.4212,0.1532,1.6927,-0.0759,0.5135,0.6571,-89.1000,-16.6500,25.0500,-4.2200,-2.8900,-8.3400,-0.1178,-0.0251,0.0327,23.5625,-2.2500,35.0625,128.0000,-26.1250,160.8125,0
1776974257.705,9.5074,0.7446,2.0973,0.0701,0.4104,0.5894,-78.0000,-14.5500,16.8000,9.2680,0.6440,1.3048,-0.1897,0.5524,0.6246,-89.1000,-16.6500,25.0500,-4.2300,-2.9800,-8.2300,-0.1254,-0.0436,0.0415,23.5625,-2.2500,35.0625,128.0000,-26.1250,160.8125,0
1776974257.710,9.6486,0.7757,1.6807,-0.0565,0.3984,0.6035,-78.0000,-14.5500,16.8000,9.3374,1.0463,0.9529,-0.2931,0.5233,0.5830,-89.1000,-18.4500,24.7500,-4.2300,-2.9800,-8.2300,-0.1254,-0.0436,0.0415,23.5625,-2.2500,35.0625,128.0000,-26.1875,160.8750,0
1776974257.715,9.6486,0.7757,1.6807,-0.0565,0.3984,0.6035,-78.4500,-13.9500,16.9500,9.3374,1.0463,0.9529,-0.3930,0.5255,0.5367,-89.1000,-18.4500,24.7500,-4.0500,-3.1800,-8.0800,-0.1505,-0.0535,0.0535,23.1875,-4.5000,33.8750,128.0000,-26.1875,160.8750,0
1776974257.720,9.5936,0.8787,1.3024,-0.0994,0.3832,0.6336,-78.4500,-13.9500,16.9500,9.3063,1.3192,0.7398,-0.3930,0.5255,0.5367,-89.2500,-18.7500,25.2000,-4.0500,-3.1800,-8.0800,-0.1505,-0.0535,0.0535,23.1875,-4.5000,33.8750,128.0000,-26.1875,161.0000,0
1776974257.725,9.5936,0.8787,1.3024,-0.0994,0.3832,0.6336,-77.5500,-13.5000,16.3500,9.3422,1.6927,0.6536,-0.4341,0.5694,0.4935,-87.1500,-18.7500,26.2500,-4.0600,-3.2500,-8.1300,-0.1745,-0.0676,0.0753,23.1875,-4.5000,33.8750,128.0000,-26.1875,161.0000,0
1776974257.729,9.4954,0.8954,1.2139,-0.1783,0.4202,0.6896,-77.5500,-13.5000,16.3500,9.3422,1.6927,0.6536,-0.4341,0.5694,0.4935,-87.1500,-18.7500,26.2500,-4.0600,-3.2500,-8.1300,-0.1789,-0.0774,0.0993,23.1875,-4.5000,33.8750,128.0625,-26.2500,161.1250,0
1776974257.735,9.4954,0.8954,1.2139,-0.1783,0.4202,0.6896,-77.5500,-13.5000,16.3500,9.3733,2.2194,0.6680,-0.4226,0.5662,0.4557,-88.5000,-19.0500,25.6500,-4.3600,-2.9100,-8.2900,-0.1789,-0.0774,0.0993,23.1875,-4.5000,33.8750,128.0625,-26.3125,161.2500,0
1776974257.745,9.4595,1.6185,0.3543,-0.2654,0.4535,0.7346,-78.0000,-15.7500,17.8500,9.6247,2.4780,0.8308,-0.4122,0.5678,0.4080,-88.5000,-19.0500,25.6500,-4.0300,-3.1600,-8.2200,-0.1876,-0.0774,0.1124,23.1875,-4.5000,33.8750,128.0625,-26.3125,161.2500,0
1776974257.750,9.3374,2.0063,0.4693,-0.2771,0.4658,0.7863,-78.0000,-15.7500,17.8500,9.6247,2.4780,0.8308,-0.4122,0.5678,0.4080,-88.5000,-19.0500,25.6500,-4.0300,-3.1600,-8.2200,-0.2116,-0.0807,0.1309,23.1875,-4.5000,33.8750,128.1250,-26.3750,161.3750,0
1776974257.756,9.3589,1.9273,0.6680,-0.2771,0.4658,0.7863,-76.9500,-17.1000,16.9500,9.4691,2.6097,0.9720,-0.4056,0.5287,0.3632,-88.5000,-19.0500,25.6500,-4.3100,-2.9200,-8.3600,-0.2116,-0.0807,0.1309,23.1875,-4.5000,33.8750,128.1250,-26.3750,161.3750,0
1776974257.761,9.3589,1.9273,0.6680,-0.2313,0.5207,0.8503,-76.9500,-17.1000,16.9500,9.4691,2.6097,0.9720,-0.4056,0.5287,0.3632,-88.5000,-19.0500,25.6500,-4.3100,-2.9200,-8.3600,-0.2116,-0.0807,0.1309,23.1875,-4.1875,33.1875,128.1875,-26.4375,161.5000,0
1776974257.766,9.5433,1.8962,0.8595,-0.1703,0.5756,0.9363,-77.5500,-18.1500,17.5500,9.4858,2.6576,1.3048,-0.4495,0.5127,0.3288,-87.9000,-19.5000,26.2500,-4.2700,-2.8000,-8.4700,-0.2094,-0.0894,0.1451,23.1875,-4.1875,33.1875,128.1875,-26.4375,161.5000,0
1776974257.771,9.5433,1.8962,0.8595,-0.1703,0.5756,0.9363,-77.5500,-18.1500,17.5500,9.4858,2.6576,1.3048,-0.4495,0.5127,0.3288,-87.9000,-19.5000,26.2500,-4.2700,-2.8000,-8.4700,-0.2094,-0.0894,0.1451,23.1875,-4.1875,33.1875,128.1875,-26.5625,161.6875,0
1776974257.776,9.6079,1.9944,1.8699,-0.1420,0.5921,1.0043,-76.2000,-17.1000,17.7000,9.5792,2.8778,1.8914,-0.5415,0.4383,0.2854,-87.6000,-21.1500,27.1500,-4.2700,-2.7300,-8.4700,-0.1974,-0.0927,0.1516,23.1875,-4.1875,33.1875,128.1875,-26.5625,161.6875,0
1776974257.781,9.6079,1.9944,1.8699,-0.1420,0.5921,1.0043,-76.2000,-17.1000,17.7000,9.5792,2.8778,1.8914,-0.5415,0.4383,0.2854,-87.6000,-21.1500,27.1500,-4.2700,-2.7300,-8.4700,-0.1745,-0.1124,0.1604,23.1875,-4.1875,33.1875,128.2500,-26.6250,161.8125,0
1776974257.786,9.7109,1.9369,2.5450,-0.0722,0.5660,1.0680,-76.0500,-18.1500,18.3000,9.1985,2.8323,2.4900,-0.6675,0.2952,0.2337,-89.2500,-21.0000,27.0000,-4.3400,-2.7300,-8.5600,-0.1745,-0.1124,0.1604,23.1875,-4.1875,33.1875,128.3125,-26.6875,161.9375,0
1776974257.795,9.8162,1.3575,2.5977,-0.0440,0.5311,1.1357,-75.6000,-18.4500,19.0500,9.1650,2.4995,3.3279,-0.7727,0.2334,0.2049,-89.7000,-21.3000,27.3000,-4.5300,-2.5700,-8.5900,-0.1571,-0.1189,0.1669,23.1875,-4.1875,33.1875,128.3125,-26.6875,161.9375,0
1776974257.805,10.0102,0.0383,2.3535,-0.1167,0.5183,1.1935,-75.6000,-18.4500,19.0500,9.1770,2.1356,3.9528,-0.8194,0.2158,0.1636,-89.7000,-21.3000,27.3000,-4.4700,-2.7000,-8.5900,-0.1331,-0.1233,0.1658,23.1875,-4.1875,33.1875,128.3750,-26.8125,162.0000,0
1776974257.810,10.0102,0.0383,2.3535,-0.1167,0.5183,1.1935,-75.6000,-18.4500,19.0500,9.1770,2.1356,3.9528,-0.8194,0.2158,0.1636,-89.7000,-21.3000,27.3000,-4.4700,-2.7000,-8.5900,-0.1331,-0.1233,0.1658,23.1875,-4.1875,33.1875,128.4375,-26.8750,162.1250,0
1776974257.815,9.9647,-0.5483,2.3822,-0.2737,0.5441,1.2694,-75.4500,-18.3000,20.2500,9.5433,1.6616,4.0941,-0.7826,0.2912,0.1119,-89.4000,-22.6500,26.4000,-4.6400,-2.5800,-8.5900,-0.1134,-0.0993,0.1658,23.5625,-4.5000,33.5625,128.4375,-26.8750,162.1250,0
1776974257.820,9.9647,-0.5483,2.3822,-0.2737,0.5441,1.2694,-75.4500,-18.3000,20.2500,9.5433,1.6616,4.0941,-0.7826,0.2912,0.1119,-89.4000,-22.6500,26.4000,-4.6400,-2.5800,-8.5900,-0.1134,-0.0993,0.1658,23.5625,-4.5000,33.5625,128.5000,-26.9375,162.1875,0
1776974257.825,10.0221,-0.5914,1.7789,-0.5478,0.5526,1.3331,-75.4500,-18.3000,20.2500,9.8785,1.3001,3.9552,-0.6638,0.3285,0.0557,-90.9000,-22.2000,26.8500,-4.6600,-2.4600,-8.6400,-0.1014,-0.0578,0.1614,23.5625,-4.5000,33.5625,128.5000,-26.9375,162.1875,0
1776974257.830,10.0221,-0.5914,1.7789,-0.5478,0.5526,1.3331,-75.4500,-18.3000,20.2500,9.8785,1.3001,3.9552,-0.6638,0.3285,0.0557,-90.9000,-22.2000,26.8500,-4.6600,-2.4600,-8.6400,-0.0785,-0.0218,0.1494,23.5625,-4.5000,33.5625,128.6250,-27.0000,162.3125,0
1776974257.836,10.0987,-0.3184,1.3551,-0.7312,0.5524,1.3933,-74.4000,-21.0000,19.2000,10.0054,1.2210,3.4979,-0.4711,0.3589,-0.0072,-89.4000,-22.2000,26.8500,-4.7600,-2.3800,-8.7300,-0.0785,-0.0218,0.1494,23.5625,-4.5000,33.5625,128.6875,-27.0000,162.3750,0
1776974257.845,10.4004,-0.3017,0.5531,-0.8628,0.5929,1.4666,-73.2000,-21.4500,19.9500,10.5800,1.2378,2.6791,-0.3893,0.5833,-0.0600,-89.7000,-21.0000,27.0000,-3.9400,-2.5400,-9.2900,-0.0491,0.0109,0.1200,23.5625,-4.5000,33.5625,128.6875,-27.0000,162.3750,0
1776974257.855,10.9319,-0.2753,0.0215,-0.9505,0.6267,1.5340,-72.9000,-23.4000,19.9500,11.0923,1.5682,1.7310,-0.1743,0.3664,-0.1042,-89.7000,-21.0000,27.0000,-2.8400,-2.7600,-10.2000,0.0109,-0.0284,0.0873,23.5625,-4.5000,33.5625,128.6875,-27.0000,162.3750,0
1776974257.860,10.9319,-0.2753,0.0215,-0.9505,0.6267,1.5340,-72.9000,-23.4000,19.9500,11.0923,1.5682,1.7310,-0.0722,0.2998,-0.1580,-89.7000,-21.0000,27.0000,-2.8400,-2.7600,-10.2000,0.0109,-0.0284,0.0873,23.5625,-4.5000,33.5625,128.6875,-27.0000,162.3750,0
1776974257.865,11.0301,-0.3615,0.6752,-0.9515,0.6411,1.6145,-71.7000,-22.9500,19.2000,10.7787,1.7837,1.2977,-0.0722,0.2998,-0.1580,-89.7000,-21.0000,27.0000,-4.1300,-2.6400,-9.2600,0.1604,-0.1724,0.1429,22.7500,-4.5000,33.5625,128.8125,-27.1250,162.3125,0
1776974257.870,11.0301,-0.3615,0.6752,-0.9515,0.6411,1.6145,-71.7000,-22.9500,19.2000,11.3461,2.1213,0.8045,-0.2020,0.3800,-0.2313,-89.7000,-21.0000,27.0000,-4.1300,-2.6400,-9.2600,0.1604,-0.1724,0.1429,22.7500,-4.5000,33.5625,128.8125,-27.1250,162.3125,0
1776974257.875,11.2887,-0.3735,0.5842,-0.9180,0.6590,1.7229,-71.1000,-22.0500,20.5500,11.3461,2.1213,0.8045,-0.2020,0.3800,-0.2313,-88.3500,-21.4500,26.4000,-3.9300,-2.5600,-9.5300,0.2542,-0.3098,0.1614,22.7500,-4.5000,33.5625,128.8750,-27.3125,162.1875,0
1776974257.882,11.9040,-0.2179,0.8452,-0.8713,0.6904,1.8218,-71.1000,-22.0500,20.5500,11.2456,2.5738,0.8428,-0.2515,-0.0762,-0.3595,-88.8000,-21.4500,26.4000,-3.0300,-3.4300,-10.6500,0.3905,-0.4516,0.1691,22.7500,-4.5000,33.5625,129.0000,-27.6250,162.0000,0
1776974257.887,11.9040,-0.2179,0.8452,-0.8713,0.6904,1.8218,-70.2000,-28.0500,18.7500,11.2456,2.5738,0.8428,-0.2515,-0.0762,-0.3595,-88.8000,-22.2000,25.8000,-3.0300,-3.4300,-10.6500,0.3905,-0.4516,0.1691,22.7500,-4.5000,33.5625,129.1250,-28.0625,161.6875,0
1776974257.895,12.8018,0.4788,1.3551,-0.7871,0.7570,1.9561,-70.2000,-28.0500,18.7500,11.5951,2.9856,0.7973,-0.5494,-0.2563,-0.5145,-89.8500,-20.7000,25.0500,-3.4600,-2.2600,-10.5400,0.4538,-0.7636,0.1963,22.7500,-4.5000,33.5625,129.2500,-28.6250,161.3750,0
1776974257.905,14.0875,0.5124,0.8643,-0.7562,0.8021,2.1258,-67.3500,-27.4500,18.6000,12.3086,3.7493,0.8595,-0.9491,-0.2459,-0.7091,-88.2000,-20.5500,25.6500,-3.2900,-3.0800,-10.5900,0.4952,-1.0025,0.2160,22.7500,-4.5000,33.5625,129.2500,-28.6250,161.3750,0
1776974257.910,15.0930,0.6129,0.6919,-0.7480,0.8103,2.2972,-67.3500,-27.4500,18.6000,11.8968,4.4269,0.9026,-1.0389,-0.6342,-0.8990,-88.2000,-20.5500,25.6500,-3.2900,-3.0800,-10.5900,0.4952,-1.0025,0.2160,22.7500,-4.5000,33.5625,129.2500,-28.6250,161.3750,0
1776974257.915,15.0930,0.6129,0.6919,-0.7480,0.8103,2.2972,-67.3500,-27.4500,18.6000,11.8968,4.4269,0.9026,-1.0389,-0.6342,-0.8990,-88.2000,-20.5500,25.6500,-2.5800,-4.0700,-11.0700,0.4963,-1.3035,0.2727,23.5625,-4.5000,33.2500,129.3125,-29.3125,161.0625,0
1776974257.920,15.5120,1.1444,-0.9170,-0.7131,0.7584,2.4637,-67.3500,-27.4500,18.6000,11.8824,4.3191,0.5315,-1.0363,-0.8092,-1.0587,-88.2000,-20.5500,25.6500,-2.5800,-4.0700,-11.0700,0.4963,-1.3035,0.2727,23.5625,-4.5000,33.2500,129.3125,-29.3125,161.0625,0
1776974257.925,15.5120,1.1444,-0.9170,-0.7131,0.7584,2.4637,-66.6000,-29.5500,20.8500,11.8824,4.3191,0.5315,-1.0363,-0.8092,-1.0587,-88.9500,-20.5500,24.1500,-2.7400,-3.6700,-11.3600,0.4243,-1.7551,0.3905,23.5625,-4.5000,33.2500,129.4375,-30.3125,160.7500,0
1776974257.930,15.3444,1.8220,-3.2394,-0.8407,0.7338,2.5037,-66.6000,-29.5500,20.8500,11.6646,3.9049,0.1197,-0.6177,-1.0888,-1.1756,-88.9500,-20.5500,24.1500,-2.7400,-3.6700,-11.3600,0.3098,-2.3431,0.5901,23.5625,-4.5000,33.2500,129.6250,-31.6875,160.5000,0
1776974257.936,15.3444,1.8220,-3.2394,-0.8407,0.7338,2.5037,-65.2500,-31.6500,19.2000,11.6646,3.9049,0.1197,-0.6177,-1.0888,-1.1756,-89.2500,-20.2500,24.9000,-1.8700,-4.6500,-11.4800,0.3098,-2.3431,0.5901,23.5625,-4.5000,33.2500,129.9375,-33.3750,160.3125,0
1776974257.945,14.0348,1.1396,-5.1882,-1.1042,0.7450,2.4155,-64.5000,-33.1500,21.4500,11.5927,3.6392,1.5012,-0.0384,-0.8697,-1.2561,-89.8500,-21.9000,23.5500,-2.0800,-7.0300,-11.0800,0.2465,-2.9649,0.8781,23.5625,-4.5000,33.2500,130.3750,-35.3750,160.1875,0
1776974257.955,12.3254,0.4046,-3.3423,-1.2740,0.9268,2.2761,-63.3000,-34.8000,21.4500,12.7012,2.8228,-1.1899,0.6094,-1.1109,-1.3643,-92.2500,-18.0000,22.0500,-2.4600,-6.0000,-10.5500,0.2542,-3.4056,1.2555,23.5625,-4.5000,33.2500,130.3750,-35.3750,160.1875,0
1776974257.960,11.7220,0.7446,0.3136,-1.2063,1.1266,2.2764,-63.3000,-34.8000,20.2500,12.3038,1.4317,-3.1580,0.8148,-1.6254,-1.4482,-92.2500,-18.0000,22.0500,-2.4600,-6.0000,-10.5500,0.2542,-3.4056,1.2555,23.5625,-4.5000,33.2500,130.9375,-37.6875,160.3125,0
1776974257.965,11.7220,0.7446,0.3136,-1.2063,1.1266,2.2764,-62.2500,-35.1000,21.4500,12.3038,1.4317,-3.1580,0.8148,-1.6254,-1.4482,-92.2500,-18.0000,22.0500,-2.6900,-3.6300,-10.7500,0.0087,-3.8561,1.6428,26.8750,-4.5000,31.5625,130.9375,-37.6875,160.3125,0
1776974257.970,12.3637,0.4238,-0.9409,-1.1032,1.1109,2.3422,-62.2500,-35.1000,21.4500,11.3988,0.7877,-2.4804,0.8641,-1.8612,-1.4123,-92.2500,-18.0000,22.0500,-2.6900,-3.6300,-10.7500,0.0087,-3.8561,1.6428,26.8750,-4.5000,31.5625,131.7500,-40.3750,160.5625,0
1776974257.975,12.3637,0.4238,-0.9409,-1.1032,1.1109,2.3422,-62.2500,-35.1000,21.4500,11.3988,0.7877,-2.4804,0.8641,-1.8612,-1.4123,-91.6500,-16.2000,21.1500,-3.1300,-3.6300,-10.9300,0.0120,-4.3350,2.0922,26.8750,-4.5000,31.5625,131.7500,-40.3750,160.5625,0
1776974257.983,12.3421,0.6177,-0.3879,-0.9694,1.0304,2.3395,-60.4500,-35.7000,20.8500,10.6279,0.4286,-0.9026,0.7376,-1.9795,-1.3867,-90.6000,-16.2000,20.1000,-6.2700,-5.4700,-10.5400,0.0545,-4.7811,2.4871,26.8750,-4.5000,31.5625,170.9375,-43.3125,160.8750,0
1776974257.988,11.3605,-0.1053,0.7422,-0.8511,0.9587,2.2548,-60.4500,-35.7000,20.8500,10.5848,0.6512,-0.1341,0.6592,-2.1440,-1.4264,-90.6000,-16.2000,20.1000,-6.2700,-5.4700,-10.5400,0.0545,-4.7811,2.4871,26.8750,-4.5000,31.5625,167.4375,-46.5000,161.4375,0
1776974257.996,10.1610,-1.5850,1.3384,-0.8511,0.9587,2.2548,-57.3000,-36.0000,21.0000,10.6063,0.4405,0.5674,0.6017,-2.3904,-1.4858,-91.8000,-16.8000,21.3000,-8.5400,-6.3700,-10.4500,-0.0185,-5.1007,2.8067,26.8750,-4.5000,31.5625,164.0625,-49.8125,162.2500,0
1776974258.005,9.1818,-3.0622,1.7334,-0.4719,0.9417,2.1282,-57.3000,-36.0000,21.0000,10.6949,0.1365,1.2426,0.5393,-2.3864,-1.5508,-94.0500,-15.7500,19.2000,-10.7000,-6.0200,-10.8600,-0.0545,-5.2611,2.9736,26.8750,-4.5000,31.5625,164.0625,-49.8125,162.2500,0
1776974258.010,9.1818,-3.0622,1.7334,-0.0056,1.0408,1.9854,-57.3000,-36.0000,21.0000,10.6949,0.1365,1.2426,0.5393,-2.3864,-1.5508,-93.9000,-13.6500,18.6000,-10.7000,-6.0200,-10.8600,-0.0545,-5.2611,2.9736,26.8750,-4.5000,31.5625,164.0625,-49.8125,162.2500,0
1776974258.015,8.4707,-4.0390,3.2106,-0.0056,1.0408,1.9854,-57.3000,-36.0000,21.0000,11.2312,-0.8595,1.8387,0.3365,-1.9817,-1.5775,-93.9000,-13.6500,18.6000,-12.1700,-7.6700,-10.3500,0.0175,-5.2993,3.0041,33.2500,-6.0000,24.5625,161.0625,-53.0625,163.1250,0
1776974258.020,8.4707,-4.0390,3.2106,0.5196,1.3145,1.8319,-56.2500,-39.3000,23.1000,11.2312,-0.8595,1.8387,0.3365,-1.9817,-1.5775,-93.9000,-13.6500,18.6000,-12.1700,-7.6700,-10.3500,0.0175,-5.2993,3.0041,33.2500,-6.0000,24.5625,161.0625,-53.0625,163.1250,0
1776974258.026,8.5353,-3.9025,4.5705,0.9036,1.5889,1.6593,-56.2500,-39.3000,23.1000,12.1649,-1.8220,2.0590,0.0418,-1.6910,-1.5396,-93.9000,-13.6500,18.6000,-13.3600,-7.5400,-11.0200,0.1265,-5.1596,3.0478,33.2500,-6.0000,24.5625,158.4375,-56.3125,164.1875,0
1776974258.033,8.5353,-3.9025,4.5705,0.9036,1.5889,1.6593,-55.0500,-37.9500,22.9500,12.1649,-1.8220,2.0590,0.0418,-1.6910,-1.5396,-93.6000,-12.7500,16.3500,-12.7400,-7.8300,-10.5800,0.1713,-4.7331,3.1067,33.2500,-6.0000,24.5625,156.1250,-59.3125,165.6875,0
1776974258.037,9.1411,-5.9568,3.8355,1.0986,1.7475,1.4661,-53.4000,-39.0000,24.3000,11.7148,-2.3152,0.9768,-0.3557,-1.5886,-1.4789,-93.6000,-12.7500,16.3500,-12.7400,-7.8300,-10.5800,0.1713,-4.7331,3.1067,33.2500,-6.0000,24.5625,153.9375,-61.9375,167.7500,0
1776974258.046,8.7532,-9.0836,5.8826,1.7128,1.9276,1.1666,-53.4000,-39.0000,24.3000,13.8050,-2.4972,0.8499,-0.5060,-1.8762,-1.3630,-93.6000,-11.5500,15.6000,-6.8900,-9.0300,-9.1800,0.1014,-4.1899,3.2016,33.2500,-6.0000,24.5625,151.6250,-64.3750,170.6875,0
1776974258.056,8.2528,-6.3973,8.0421,2.9079,1.2929,0.9180,-52.9500,-39.3000,23.8500,12.6366,-2.3152,0.1939,-0.5473,-1.7571,-1.2684,-94.2000,-11.7000,15.0000,-3.2800,-8.1600,-8.8900,-0.2062,-3.7535,3.3281,33.2500,-6.0000,24.5625,151.6250,-64.3750,170.6875,0
1776974258.060,8.2528,-6.3973,8.0421,2.9079,1.2929,0.9180,-52.9500,-40.5000,25.6500,12.6366,-2.3152,0.1939,-0.5473,-1.7571,-1.2684,-95.4000,-10.0500,14.8500,-3.2800,-8.1600,-8.8900,-0.2062,-3.7535,3.3281,40.1875,-11.5000,15.8750,149.0000,-66.5625,174.6250,0
1776974258.066,7.2065,-6.4572,6.9240,2.4267,1.0525,0.7645,-52.9500,-40.5000,25.6500,12.4211,-1.4006,-0.0838,-0.6635,-1.6534,-1.2292,-95.4000,-10.0500,14.8500,-1.7600,-5.8200,-8.8100,-0.6109,-3.6161,3.4405,40.1875,-11.5000,15.8750,149.0000,-66.5625,174.6250,0
1776974258.070,7.2065,-6.4572,6.9240,2.4267,1.0525,0.7645,-51.0000,-39.6000,27.1500,12.4211,-1.4006,-0.0838,-0.6635,-1.6534,-1.2292,-95.4000,-10.0500,14.8500,-1.7600,-5.8200,-8.8100,-0.6109,-3.6161,3.4405,40.1875,-11.5000,15.8750,146.2500,-68.6875,179.3750,0
1776974258.075,5.6934,-5.7293,7.2089,1.6654,0.8577,0.5545,-51.0000,-39.6000,27.1500,11.5377,-0.7278,0.5459,-0.9209,-1.6489,-1.1954,-95.4000,-10.0500,14.8500,2.9100,-4.8600,-8.8300,-1.0363,-3.6314,3.3009,40.1875,-11.5000,15.8750,146.2500,-68.6875,179.3750,0
1776974258.083,5.1092,-6.9073,5.3343,1.1940,0.5740,0.2531,-51.0000,-39.6000,27.1500,11.0612,-0.1173,1.9154,-1.1010,-1.3158,-1.1191,-93.9000,-7.9500,12.9000,-13.1800,-9.1600,-6.7500,-1.4148,-3.1689,2.3049,40.1875,-11.5000,15.8750,143.8750,-70.4375,-176.1875,0
1776974258.088,5.1092,-6.9073,5.3343,1.1940,0.5740,0.2531,-50.1000,-38.7000,29.8500,11.0612,-0.1173,1.9154,-1.1010,-1.3158,-1.1191,-93.9000,-7.9500,12.9000,-13.1800,-9.1600,-6.7500,-1.4148,-3.1689,2.3049,40.1875,-11.5000,15.8750,142.6250,-71.3125,-173.8125,0
1776974258.096,4.0725,-6.5529,6.5864,0.8796,0.4253,-0.0663,-50.1000,-38.7000,29.8500,10.9128,0.1532,2.3296,-1.0264,-1.0477,-1.0403,-93.3000,-9.7500,11.4000,-4.5600,-7.0600,-10.2200,-0.8661,-1.6886,1.0527,40.1875,-11.5000,15.8750,142.3750,-71.3125,-173.6875,0
1776974258.106,3.6152,-6.1244,6.2130,0.5822,0.3416,-0.3541,-48.6000,-37.9500,29.8500,10.7428,0.3160,2.2984,-0.9289,-1.0011,-1.0147,-93.3000,-7.0500,11.7000,-2.1900,-6.5900,-10.1700,-0.3742,-0.0076,-0.0480,40.1875,-11.5000,15.8750,142.3750,-71.3125,-173.6875,0
1776974258.111,3.6152,-6.1244,6.2130,0.5822,0.3416,-0.3541,-50.8500,-37.0500,29.8500,10.7428,0.3160,2.2984,-0.9289,-1.0011,-1.0147,-93.3000,-6.3000,9.9000,-2.1900,-6.5900,-10.1700,-0.3742,-0.0076,-0.0480,40.1875,-11.5000,15.8750,142.6875,-70.9375,-175.0625,0
1776974258.116,4.1013,-5.4157,5.0566,0.0498,0.2204,-0.7104,-50.8500,-37.0500,29.8500,10.8793,0.1676,2.1596,-0.7341,-1.0099,-1.0323,-93.3000,-6.3000,9.9000,0.8400,-6.7900,-5.4900,-0.1909,0.7407,-0.8618,43.5625,-19.7500,5.8750,142.6875,-70.9375,-175.0625,0
1776974258.120,4.9344,-4.7501,4.1300,0.0498,0.2204,-0.7104,-50.5500,-36.9000,30.1500,10.8793,0.1676,2.1596,-0.7341,-1.0099,-1.0323,-95.1000,-6.7500,10.2000,0.8400,-6.7900,-5.4900,-0.1909,0.7407,-0.8618,43.5625,-19.7500,5.8750,143.1250,-70.3750,-176.9375,0
1776974258.126,4.9344,-4.7501,4.1300,-0.2739,-0.1031,-1.0877,-50.5500,-36.9000,30.1500,10.6303,0.4788,1.7765,-0.6241,-0.9918,-1.0349,-95.1000,-6.7500,10.2000,1.4200,-5.0100,-4.9200,-0.2771,1.0832,-1.1945,43.5625,-19.7500,5.8750,143.1250,-70.3750,-176.9375,0
1776974258.130,5.1260,-4.6711,3.5410,-0.2739,-0.1031,-1.0877,-49.5000,-37.6500,29.7000,10.6303,0.4788,1.7765,-0.6241,-0.9918,-1.0349,-95.1000,-6.7500,10.2000,1.4200,-5.0100,-4.9200,-0.4647,1.2905,-1.2774,43.5625,-19.7500,5.8750,143.4375,-69.6875,-178.6875,0
1776974258.136,5.1260,-4.6711,3.5410,-0.2577,-0.4820,-1.3891,-49.5000,-37.6500,29.7000,10.1490,0.7757,1.0989,-0.5865,-0.7064,-1.0248,-95.1000,-6.7500,10.2000,1.0300,-3.1800,-5.0900,-0.4647,1.2905,-1.2774,43.5625,-19.7500,5.8750,143.8125,-68.8750,179.5000,0
1776974258.146,4.6040,-4.3503,2.4157,-0.1106,-0.8556,-1.5772,-52.6500,-35.1000,29.8500,10.2472,1.0319,0.8188,-0.4501,-0.7035,-1.0429,-95.1000,-4.0500,10.2000,0.3100,-1.3800,-4.9900,-0.4603,1.4857,-1.3472,43.5625,-19.7500,5.8750,144.4375,-67.8750,177.6875,0
1776974258.156,3.9863,-4.8267,2.9521,-0.2244,-1.0158,-1.7637,-52.6500,-35.1000,29.8500,9.1459,1.4389,0.6201,-0.2300,-0.6734,-1.0363,-94.5000,-3.1500,9.3000,0.3500,-1.0000,-4.7900,-0.2520,1.7115,-1.4432,43.5625,-19.7500,5.8750,144.4375,-67.8750,177.6875,0
1776974258.161,3.3902,-3.9361,3.4572,-0.3818,-1.1181,-1.8956,-53.2500,-33.7500,28.9500,8.5521,1.2354,1.3144,-0.1985,-0.6747,-1.0136,-94.9500,-2.7000,11.1000,0.3500,-1.0000,-4.7900,-0.2520,1.7115,-1.4432,43.5625,-19.7500,5.8750,144.4375,-67.8750,177.6875,0
1776974258.166,3.3902,-3.9361,3.4572,-0.3818,-1.1181,-1.8956,-53.2500,-33.7500,28.9500,8.5521,1.2354,1.3144,-0.1985,-0.6747,-1.0136,-94.9500,-2.7000,11.1000,0.0900,-0.2400,-5.0300,0.0284,1.9504,-1.5490,45.8750,-20.3750,6.3750,145.3750,-66.7500,175.7500,0
1776974258.171,3.3902,-3.8762,2.7222,-0.5934,-1.2111,-2.1085,-53.2500,-33.7500,28.9500,8.6574,1.0032,1.2474,-0.2345,-0.3411,-0.9643,-94.8000,-1.5000,9.9000,0.0900,-0.2400,-5.0300,0.0284,1.9504,-1.5490,45.8750,-20.3750,6.3750,145.3750,-66.7500,175.7500,0
1776974258.176,3.3902,-3.8762,2.7222,-0.5934,-1.2111,-2.1085,-53.2500,-33.7500,28.9500,8.6574,1.0032,1.2474,-0.2345,-0.3411,-0.9643,-94.8000,-1.5000,9.9000,-0.3500,-0.2200,-5.5600,0.3207,2.1489,-1.6210,45.8750,-20.3750,6.3750,146.5625,-65.5000,173.7500,0
1776974258.183,3.7541,-3.8044,2.7485,-0.4026,-1.3622,-2.2473,-56.1000,-31.6500,28.8000,8.1259,0.6823,1.7549,-0.1684,-0.2667,-0.9390,-94.8000,-1.5000,9.9000,-2.7700,-0.4700,-6.9800,0.6316,2.3595,-1.6079,45.8750,-20.3750,6.3750,148.1250,-64.1250,171.8750,0
1776974258.187,3.7541,-3.8044,2.7485,-0.4026,-1.3622,-2.2473,-56.1000,-31.6500,28.8000,8.1259,0.6823,1.7549,-0.1684,-0.2667,-0.9390,-95.2500,0.1500,9.3000,-2.7700,-0.4700,-6.9800,0.6316,2.3595,-1.6079,45.8750,-20.3750,6.3750,150.0000,-62.5000,170.1250,0
1776974258.196,4.2880,-3.7326,2.9233,-0.2814,-1.4378,-2.3339,-57.4500,-31.8000,28.6500,7.6734,0.2969,1.7190,-0.1069,-0.2427,-0.9153,-95.2500,0.1500,9.3000,-3.7100,-1.1700,-7.5200,0.8792,2.6780,-1.6090,45.8750,-20.3750,6.3750,152.1250,-60.6250,168.5000,0
1776974258.206,4.4915,-3.5745,4.2186,-0.0794,-1.4354,-2.4882,-58.0500,-31.2000,26.5500,7.6591,-0.0742,1.7190,-0.1340,-0.2241,-0.8476,-96.0000,-0.1500,10.5000,-3.9000,-1.7200,-7.9100,0.9894,3.1252,-1.6362,45.8750,-20.3750,6.3750,152.1250,-60.6250,168.5000,0
1776974258.211,5.5952,-3.7852,4.2449,0.0187,-1.6347,-2.7142,-59.7000,-30.6000,27.1500,7.2832,-0.5291,1.6520,-0.1226,-0.0794,-0.7437,-96.4500,1.6500,10.0500,-3.9000,-1.7200,-7.9100,0.9894,3.1252,-1.6362,45.8750,-20.3750,6.3750,154.3125,-58.5000,167.1875,0
1776974258.216,5.5952,-3.7852,4.2449,0.0187,-1.6347,-2.7142,-59.7000,-30.6000,27.1500,7.2832,-0.5291,1.6520,-0.1226,-0.0794,-0.7437,-96.4500,1.6500,10.0500,-2.9600,-1.3200,-7.7800,0.9294,3.5790,-1.6395,50.0625,-17.2500,11.2500,154.3125,-58.5000,167.1875,0
1776974258.221,6.5242,-3.3830,3.0718,-0.4311,-1.8852,-2.9100,-61.5000,-30.4500,25.8000,7.2329,-0.5674,2.0375,-0.0429,0.0043,-0.6187,-97.3500,2.5500,10.2000,-2.9600,-1.3200,-7.7800,0.9294,3.5790,-1.6395,50.0625,-17.2500,11.2500,156.5625,-56.1875,166.1875,0
1776974258.226,6.5242,-3.3830,3.0718,-0.4311,-1.8852,-2.9100,-61.5000,-30.4500,25.8000,7.2329,-0.5674,2.0375,-0.0429,0.0043,-0.6187,-97.9500,2.5500,10.2000,-3.2200,-0.2000,-7.8700,0.8236,3.9270,-1.5675,50.0625,-17.2500,11.2500,156.5625,-56.1875,166.1875,0
1776974258.231,7.2305,-3.0694,2.6456,-0.7072,-2.0089,-3.1136,-61.8000,-27.0000,24.0000,7.0557,-0.4142,2.2194,0.1492,0.1106,-0.4756,-97.9500,1.8000,11.4000,-3.2200,-0.2000,-7.8700,0.8508,4.1299,-1.4410,50.0625,-17.2500,11.2500,159.0000,-53.7500,165.4375,0
1776974258.237,7.9009,-3.2681,2.7007,-0.7346,-2.1520,-3.2255,-61.8000,-27.0000,24.0000,7.0557,-0.4142,2.2194,0.1492,0.1106,-0.4756,-97.9500,1.8000,11.4000,-3.7600,0.6300,-7.9300,0.8508,4.1299,-1.4410,50.0625,-17.2500,11.2500,161.6875,-51.3125,164.7500,0
1776974258.246,8.2456,-4.1061,2.2290,-0.7346,-2.1520,-3.2255,-61.8000,-27.0000,24.0000,7.0844,-0.1460,2.1715,0.3768,0.1066,-0.3043,-97.9500,1.8000,11.4000,-3.7700,0.9100,-7.7900,1.0516,4.2521,-1.2501,50.0625,-17.2500,11.2500,161.6875,-51.3125,164.7500,0
1776974258.256,8.7819,-4.4388,2.0111,-0.2105,-2.2513,-3.2050,-63.9000,-26.4000,23.4000,7.3310,-0.0335,1.6472,0.5217,0.1322,-0.1599,-96.4500,3.1500,11.1000,-4.6900,0.2000,-8.2100,1.3581,4.2248,-0.9283,50.0625,-17.2500,11.2500,164.7500,-48.8750,164.1250,0
1776974258.261,8.7819,-4.4388,2.0111,-0.2105,-2.2513,-3.2050,-63.9000,-26.4000,23.4000,7.6112,-0.2179,1.0343,0.6035,0.1740,-0.0671,-96.4500,3.1500,11.1000,-4.6900,0.2000,-8.2100,1.3581,4.2248,-0.9283,50.0625,-17.2500,11.2500,164.7500,-48.8750,164.1250,0
1776974258.266,9.0788,-4.4939,2.8539,-0.0432,-2.2799,-3.2594,-63.9000,-26.4000,23.4000,7.6112,-0.2179,1.0343,0.6035,0.1740,-0.0671,-97.6500,2.5500,10.9500,-5.4700,-0.7800,-8.5900,1.6417,4.0873,-0.5476,49.1875,-12.5000,22.8750,168.1875,-46.6250,163.6250,0
1776974258.271,9.0788,-4.4939,2.8539,-0.0432,-2.2799,-3.2594,-68.1000,-22.5000,23.1000,7.8458,-0.5674,0.6057,0.6688,0.1756,-0.0024,-97.6500,2.5500,10.9500,-5.4700,-0.7800,-8.5900,1.6417,4.0873,-0.5476,49.1875,-12.5000,22.8750,168.1875,-46.6250,163.6250,0
1776974258.276,9.4427,-4.5562,4.1204,-0.1921,-2.3707,-3.3207,-68.1000,-22.5000,23.1000,7.8458,-0.5674,0.6057,0.6768,0.1140,0.0525,-97.0500,2.4000,12.9000,-6.0700,-1.9000,-9.2700,1.8097,3.9554,-0.2542,49.1875,-12.5000,22.8750,171.8125,-44.5000,163.1250,0
1776974258.282,9.4427,-4.5562,4.1204,-0.1921,-2.3707,-3.3207,-68.7000,-22.9500,19.2000,8.0349,-0.8021,0.0622,0.6768,0.1140,0.0525,-97.0500,2.4000,12.9000,-6.8200,-3.7900,-10.4400,1.8370,3.8681,-0.1473,49.1875,-12.5000,22.8750,175.6875,-42.4375,162.6250,0
1776974258.287,10.0533,-4.5490,4.3503,-0.5694,-2.4680,-3.3433,-68.7000,-22.9500,19.2000,8.1570,-0.8499,-0.2227,0.7075,-0.0152,0.0600,-97.0500,2.4000,12.9000,-6.8200,-3.7900,-10.4400,1.8370,3.8681,-0.1473,49.1875,-12.5000,22.8750,140.0625,-40.3750,162.1250,0
1776974258.296,10.7835,-4.5873,3.9097,-0.8950,-2.5170,-3.3249,-69.0000,-21.4500,18.7500,8.4084,-0.4860,-0.4166,0.7504,-0.1111,0.0552,-97.3500,3.3000,10.2000,-7.0700,-4.1000,-10.7600,1.7541,3.8026,-0.2193,49.1875,-12.5000,22.8750,140.4375,-38.3750,161.5000,0
1776974258.306,10.9104,-4.3790,3.0047,-1.1213,-2.3728,-3.3231,-70.5000,-19.5000,19.2000,8.3414,-0.0383,-0.5267,0.7386,-0.2150,0.0506,-98.7000,1.8000,12.0000,-7.3900,-4.1300,-10.8200,1.6461,3.7045,-0.4178,49.1875,-12.5000,22.8750,140.4375,-38.3750,161.5000,0
1776974258.311,10.9104,-4.3790,3.0047,-1.1213,-2.3728,-3.3231,-73.0500,-17.4000,16.0500,8.3414,-0.0383,-0.5267,0.7386,-0.2150,0.0506,-98.7000,1.8000,12.0000,-7.3900,-4.1300,-10.8200,1.6461,3.7045,-0.4178,49.1875,-12.5000,22.8750,140.4375,-38.3750,161.5000,0
1776974258.316,11.5784,-3.0382,2.1739,-1.0595,-2.4067,-3.2924,-73.0500,-17.4000,16.0500,8.2073,0.3400,-0.5986,0.6536,-0.2515,0.0266,-98.7000,3.0000,10.9500,-8.5900,-3.8200,-11.0400,1.6068,3.5616,-0.6763,40.3750,-5.0625,35.5625,140.6875,-36.3750,160.8750,0
1776974258.321,11.5784,-3.0382,2.1739,-1.0595,-2.4067,-3.2924,-72.9000,-17.1000,15.9000,8.2073,0.3400,-0.5986,0.6536,-0.2515,0.0266,-98.7000,3.0000,10.9500,-8.5900,-3.8200,-11.0400,1.6068,3.5616,-0.6763,40.3750,-5.0625,35.5625,140.6875,-36.3750,160.8750,0
1776974258.326,10.3501,-2.3655,1.6903,-0.9830,-2.2391,-3.2434,-72.9000,-17.1000,15.9000,8.0230,0.7302,-1.0127,0.4794,-0.3203,-0.0008,-97.0500,4.2000,10.5000,-10.0500,-3.9800,-11.3300,1.6679,3.3848,-0.9425,40.3750,-5.0625,35.5625,140.7500,-34.4375,160.0000,0
1776974258.331,10.3501,-2.3655,1.6903,-0.9830,-2.2391,-3.2434,-72.9000,-17.1000,15.9000,8.0230,0.7302,-1.0127,0.4794,-0.3203,-0.0008,-97.0500,4.2000,10.5000,-10.0500,-3.9800,-11.3300,1.7835,3.2725,-1.1890,40.3750,-5.0625,35.5625,140.6875,-32.5000,159.0625,0
1776974258.337,10.4603,-0.9864,1.8052,-0.5204,-2.2292,-3.1685,-72.9000,-17.1000,15.9000,8.2696,1.2306,-0.9601,0.3046,-0.3435,-0.0144,-97.0500,4.2000,10.5000,-9.7300,-4.5700,-11.3600,1.7835,3.2725,-1.1890,40.3750,-5.0625,35.5625,140.5000,-30.6875,158.0000,0
1776974258.346,9.5146,-0.6081,1.9752,-0.1524,-2.1296,-3.0569,-73.9500,-13.6500,11.8500,8.5641,1.8842,-1.0511,0.0498,-0.2715,-0.0642,-97.0500,4.2000,10.5000,-10.7400,-5.1200,-11.4300,1.7781,2.9987,-1.3777,40.3750,-5.0625,35.5625,140.2500,-28.7500,157.0000,0
1776974258.356,9.8114,-0.7159,1.8914,0.0490,-2.0502,-2.9673,-73.9500,-13.6500,11.8500,8.8849,2.6097,-1.2641,-0.2998,-0.1863,-0.0504,-99.1500,4.0500,10.9500,-10.0800,-4.5500,-10.9900,1.6679,3.1230,-1.5566,40.3750,-5.0625,35.5625,140.2500,-28.7500,157.0000,0
1776974258.361,10.1347,-1.2402,1.7885,0.0490,-2.0502,-2.9673,-75.3000,-10.6500,11.2500,8.8849,2.6097,-1.2641,-0.2998,-0.1863,-0.0504,-99.1500,4.0500,10.9500,-10.0800,-4.5500,-10.9900,1.6679,3.1230,-1.5566,40.3750,-5.0625,35.5625,139.8125,-26.8125,156.0625,0
1776974258.366,10.1347,-1.2402,1.7885,0.0901,-1.9209,-2.8671,-75.3000,-10.6500,11.2500,9.0166,3.2154,-1.0678,-0.5572,-0.0949,-0.0179,-97.3500,4.0500,11.4000,-9.5400,-4.0500,-10.7700,1.4868,3.0358,-1.7061,28.2500,0.0000,39.8750,139.8125,-26.8125,156.0625,0
1776974258.371,11.0492,-1.4772,1.6975,0.0642,-1.9124,-2.7622,-74.7000,-9.3000,10.3500,9.0166,3.2154,-1.0678,-0.5572,-0.0949,-0.0179,-97.3500,4.0500,11.4000,-9.5400,-4.0500,-10.7700,1.4868,3.0358,-1.7061,28.2500,0.0000,39.8750,139.3125,-24.8750,155.1875,0
1776974258.376,11.0492,-1.4772,1.6975,0.0642,-1.9124,-2.7622,-74.7000,-9.3000,10.3500,8.9495,3.6559,-0.8763,-0.8183,-0.0693,-0.0125,-98.2500,2.4000,10.8000,-9.0400,-3.5800,-10.4300,1.3515,2.9409,-1.8239,28.2500,0.0000,39.8750,139.3125,-24.8750,155.1875,0
1776974258.384,10.9918,-1.8148,1.6951,-0.1039,-1.8370,-2.6870,-75.6000,-7.2000,7.9500,9.2129,4.0151,-0.8475,-1.0432,-0.2643,-0.0213,-97.8000,4.2000,10.5000,-8.0800,-2.9100,-9.9200,1.2654,2.7816,-1.8839,28.2500,0.0000,39.8750,138.7500,-23.0625,154.3750,0
1776974258.389,10.9918,-1.8148,1.6951,-0.1039,-1.8370,-2.6870,-75.6000,-7.2000,7.9500,9.2129,4.0151,-0.8475,-1.0432,-0.2643,-0.0213,-97.8000,4.2000,10.5000,-8.0800,-2.9100,-9.9200,1.2654,2.7816,-1.8839,28.2500,0.0000,39.8750,138.1875,-21.3125,153.5625,0
1776974258.397,10.8266,-1.7190,1.6592,-0.2785,-1.8485,-2.6239,-76.0500,-5.5500,7.2000,8.1930,4.3072,-0.7159,-1.2518,-0.4413,-0.0538,-97.8000,4.2000,10.5000,-7.6500,-2.6700,-9.7100,1.2174,2.6027,-1.8522,28.2500,0.0000,39.8750,137.6250,-19.6875,152.8125,0
1776974258.406,10.7069,-1.3575,1.3862,-0.4287,-1.8786,-2.5445,-76.0500,-5.5500,7.2000,7.7835,4.6639,-0.6033,-1.5442,-0.1620,-0.0666,-96.4500,4.2000,10.8000,-7.8300,-2.2900,-9.7900,1.1836,2.3638,-1.7311,28.2500,0.0000,39.8750,137.6250,-19.6875,152.8125,0
1776974258.411,10.1347,-1.0846,1.3886,-0.6249,-1.8599,-2.4565,-77.2500,-3.3000,4.9500,7.7835,4.6639,-0.6033,-1.5956,-0.0922,-0.0743,-96.4500,4.2000,10.8000,-7.8300,-2.2900,-9.7900,1.1836,2.3638,-1.7311,28.2500,0.0000,39.8750,137.6250,-19.6875,152.8125,0
1776974258.416,10.1347,-1.0846,1.3886,-0.6249,-1.8599,-2.4565,-77.2500,-3.3000,4.9500,8.0206,5.0637,-0.8332,-1.5956,-0.0922,-0.0743,-97.3500,4.5000,10.6500,-8.6700,-1.6000,-9.9100,1.2348,2.1009,-1.5686,18.0625,5.7500,40.0000,137.1875,-18.2500,152.0625,0
1776974258.421,9.6462,-0.6776,1.1157,-0.9340,-1.7405,-2.3547,-77.2500,-3.3000,4.9500,8.0110,5.2002,-1.1205,-1.5399,-0.0248,-0.0586,-97.3500,4.5000,10.6500,-8.6700,-1.6000,-9.9100,1.2348,2.1009,-1.5686,18.0625,5.7500,40.0000,137.1875,-18.2500,152.0625,0
1776974258.426,9.6462,-0.6776,1.1157,-0.9340,-1.7405,-2.3547,-77.2500,-3.3000,4.9500,8.0110,5.2002,-1.1205,-1.5399,-0.0248,-0.0586,-97.8000,6.1500,8.7000,-8.6200,-1.6400,-9.5800,1.3886,1.9177,-1.4224,18.0625,5.7500,40.0000,136.7500,-16.9375,151.1875,0
1776974258.433,9.2991,-0.4286,0.8140,-1.1543,-1.5652,-2.2532,-75.9000,0.0000,4.0500,8.1523,5.3965,-1.5323,-1.4109,0.0418,-0.0179,-96.6000,4.5000,9.9000,-8.8000,-1.8700,-9.4100,1.5381,1.7846,-1.2806,18.0625,5.7500,40.0000,136.4375,-15.7500,150.3125,0
1776974258.438,9.1435,0.0718,0.7638,-1.1543,-1.5652,-2.2532,-75.9000,0.0000,4.0500,8.1523,5.3965,-1.5323,-1.4109,0.0418,-0.0179,-96.6000,4.5000,9.9000,-8.8000,-1.8700,-9.4100,1.5381,1.7846,-1.2806,18.0625,5.7500,40.0000,136.1875,-14.6250,149.3750,0
1776974258.446,9.1435,0.0718,0.7638,-1.3145,-1.4405,-2.1413,-76.6500,0.7500,2.5500,8.1594,5.5067,-1.7454,-1.2025,0.0749,0.0229,-96.6000,4.5000,9.9000,-9.1900,-1.9100,-9.1900,1.6406,1.6810,-1.1137,18.0625,5.7500,40.0000,136.0625,-13.5625,148.4375,0
1776974258.456,8.9687,0.6369,0.6297,-1.5489,-1.3560,-2.0398,-75.9000,2.7000,0.6000,8.2983,5.5354,-2.1332,-0.9300,0.0805,0.0450,-96.6000,4.5000,9.9000,-9.9200,-1.8800,-8.7800,1.7061,1.6352,-0.9392,18.0625,5.7500,40.0000,136.0625,-13.5625,148.4375,0
1776974258.461,8.7819,1.0343,0.2107,-1.7267,-1.2588,-1.9159,-78.3000,4.0500,1.2000,8.3055,5.5976,-2.3870,-0.6808,0.0640,0.0600,-96.6000,4.5000,9.9000,-9.9200,-1.8800,-8.7800,1.7061,1.6352,-0.9392,17.5000,5.5000,36.7500,136.0000,-12.5625,147.5000,0
1776974258.466,8.5712,1.2953,0.3496,-1.7267,-1.2588,-1.9159,-78.3000,4.0500,1.2000,8.3055,5.5976,-2.3870,-0.6808,0.0640,0.0600,-95.1000,4.8000,10.9500,-10.7200,-1.7800,-8.8600,1.7519,1.6504,-0.7876,17.5000,5.5000,36.7500,136.0000,-12.5625,147.5000,0
1776974258.471,8.5712,1.2953,0.3496,-1.6361,-1.1365,-1.7528,-76.8000,4.5000,-0.4500,8.3318,5.6575,-2.4876,-0.4682,0.0986,0.0594,-95.1000,4.8000,10.9500,-10.7200,-1.7800,-8.8600,1.7519,1.6504,-0.7876,17.5000,5.5000,36.7500,136.0000,-11.5625,146.5625,0
1776974258.476,8.1690,1.7741,0.4717,-1.6361,-1.1365,-1.7528,-76.8000,4.5000,-0.4500,8.3318,5.6575,-2.4876,-0.4682,0.0986,0.0594,-96.1500,4.8000,9.9000,-11.4300,-1.8400,-8.7200,1.7857,1.7301,-0.6698,17.5000,5.5000,36.7500,136.0000,-11.5625,146.5625,0
1776974258.485,8.1690,1.7741,0.4717,-1.5274,-0.8913,-1.5641,-76.8000,6.4500,-0.9000,8.8155,5.8730,-2.4780,-0.2774,-0.1796,0.0298,-96.9000,6.3000,9.6000,-10.3300,-1.6200,-7.3300,1.7519,1.9079,-0.5945,17.5000,5.5000,36.7500,136.1250,-10.5000,145.6250,0
1776974258.490,8.0709,2.2984,0.1484,-1.5122,-0.7314,-1.3582,-76.8000,6.4500,-0.9000,8.6670,5.9592,-2.5115,-0.1452,-0.1002,0.0005,-96.9000,6.3000,9.6000,-10.3300,-1.6200,-7.3300,1.7519,1.9079,-0.5945,17.5000,5.5000,36.7500,136.3125,-9.3750,144.8125,0
1776974258.497,8.1451,2.5786,-0.6488,-1.5295,-0.5838,-1.1450,-76.8000,6.4500,-0.9000,8.6670,5.9592,-2.5115,-0.1452,-0.1002,0.0005,-97.0500,4.9500,9.3000,-9.3100,-0.9800,-6.4300,1.6046,2.1009,-0.5116,17.5000,5.5000,36.7500,136.5625,-8.3125,144.1250,0
1776974258.507,8.2863,2.4541,-1.2977,-1.4967,-0.4847,-0.9411,-76.2000,6.6000,-2.1000,8.8945,5.8490,-2.4349,-0.0738,-0.0448,-0.0264,-97.0500,4.9500,9.3000,-8.7100,-0.2700,-5.6300,1.3854,2.1566,-0.3469,17.5000,5.5000,36.7500,136.5625,-8.3125,144.1250,0
1776974258.511,8.2863,2.4541,-1.2977,-1.4967,-0.4847,-0.9411,-76.2000,6.6000,-2.1000,9.1722,5.7341,-2.4517,-0.0293,-0.0128,-0.0733,-97.0500,4.9500,9.3000,-8.7100,-0.2700,-5.6300,1.3854,2.1566,-0.3469,17.5000,5.5000,36.7500,136.8750,-7.3750,143.5625,0
1776974258.517,8.1547,2.0901,-1.3719,-1.4160,-0.3632,-0.7224,-76.2000,6.6000,-2.1000,9.1722,5.7341,-2.4517,-0.0293,-0.0128,-0.0733,-96.4500,5.7000,9.0000,-8.6500,0.5100,-4.2600,1.1945,2.0279,-0.1222,18.0625,7.0625,38.5000,136.8750,-7.3750,143.5625,0
1776974258.521,8.1547,2.0901,-1.3719,-1.4160,-0.3632,-0.7224,-74.7000,7.3500,-2.1000,9.1842,5.4923,-2.3511,0.0155,-0.0093,-0.1159,-96.4500,5.7000,10.5000,-8.6500,0.5100,-4.2600,1.1945,2.0279,-0.1222,18.0625,7.0625,38.5000,137.3125,-6.6250,143.0625,0
1776974258.527,7.8530,1.6616,-1.2498,-1.3214,-0.1743,-0.4860,-74.7000,7.3500,-2.1000,9.1842,5.4923,-2.3511,0.0155,-0.0093,-0.1159,-96.4500,5.7000,10.5000,-8.9600,0.6500,-3.8200,1.0799,1.7791,0.1396,18.0625,7.0625,38.5000,137.3125,-6.6250,143.0625,0
1776974258.531,7.8530,1.6616,-1.2498,-1.3214,-0.1743,-0.4860,-76.9500,7.3500,-2.1000,9.1363,5.1739,-2.1045,0.0480,0.0528,-0.1316,-95.4000,5.5500,9.9000,-8.9600,0.6500,-3.8200,1.0243,1.4650,0.4025,18.0625,7.0625,38.5000,137.8750,-6.1250,142.5625,0
1776974258.537,7.7740,1.4653,-1.0367,-1.2777,0.0093,-0.2526,-76.9500,7.3500,-2.1000,9.2703,4.9560,-1.9920,0.0919,0.1396,-0.1087,-95.4000,5.5500,9.9000,-9.2100,0.6300,-3.5400,1.0243,1.4650,0.4025,18.0625,7.0625,38.5000,138.5000,-5.8125,142.0625,0
1776974258.547,8.0517,1.3599,-0.7733,-1.2686,0.1945,-0.0445,-75.9000,7.3500,-1.8000,9.2703,4.9560,-1.9920,0.2337,0.1847,-0.0978,-97.6500,5.5500,10.2000,-9.2800,0.4200,-3.3600,1.0188,1.1596,0.6600,18.0625,7.0625,38.5000,138.5000,-5.8125,142.0625,0
1776974258.557,8.3414,1.1803,-0.1820,-1.1626,0.3408,0.1394,-76.0500,7.9500,-2.4000,9.4691,4.7453,-1.9130,0.3365,0.2774,-0.0701,-97.6500,5.5500,10.2000,-8.8500,-0.4300,-3.6100,1.0265,0.8716,0.8934,18.0625,7.0625,38.5000,139.1875,-5.7500,141.5625,0
1776974258.561,8.3414,1.1803,-0.1820,-1.1626,0.3408,0.1394,-75.6000,7.5000,-0.4500,9.4691,4.7453,-1.9130,0.3365,0.2774,-0.0701,-97.6500,6.3000,9.9000,-8.8500,-0.4300,-3.6100,1.0265,0.8716,0.8934,18.0625,7.0625,38.5000,139.1875,-5.7500,141.5625,0
1776974258.566,8.6455,1.0534,0.2370,-1.0171,0.4381,0.2902,-75.6000,7.5000,-0.4500,9.3087,4.3910,-1.8675,0.3845,0.3062,-0.0490,-97.6500,6.3000,9.9000,-8.6800,-0.9600,-3.9700,1.0156,0.5923,1.0799,16.5000,11.1875,41.5000,139.9375,-5.8750,141.0625,0
1776974258.571,8.6455,1.0534,0.2370,-1.0171,0.4381,0.2902,-75.9000,8.1000,-2.1000,9.3087,4.3910,-1.8675,0.3845,0.3062,-0.0490,-96.7500,6.4500,7.9500,-8.6800,-0.9600,-3.9700,1.0156,0.5923,1.0799,16.5000,11.1875,41.5000,139.9375,-5.8750,141.0625,0
1776974258.576,8.7269,1.0199,0.5004,-0.8495,0.5007,0.4351,-75.9000,8.1000,-2.1000,8.9615,3.7182,-1.7885,0.3552,0.3587,-0.0277,-96.7500,6.4500,7.9500,-8.3200,-1.5900,-4.3100,0.9752,0.3436,1.1988,16.5000,11.1875,41.5000,140.6875,-6.1250,140.6250,0
1776974258.583,8.7891,0.7542,0.7374,-0.6488,0.5604,0.5785,-75.9000,8.1000,-2.1000,8.9615,3.7182,-1.7885,0.3552,0.3587,-0.0277,-97.0500,5.4000,10.5000,-7.8700,-2.7000,-5.0100,0.9065,0.1364,1.2599,16.5000,11.1875,41.5000,141.4375,-6.5000,140.1875,0
1776974258.588,8.7891,0.7542,0.7374,-0.6488,0.5604,0.5785,-75.9000,8.1000,-2.1000,8.8633,3.0598,-1.6113,0.2577,0.4463,0.0224,-97.0500,5.4000,10.5000,-7.8700,-2.7000,-5.0100,0.9065,0.1364,1.2599,16.5000,11.1875,41.5000,142.1875,-7.0000,139.7500,0
1776974258.597,8.9615,0.7590,1.2809,-0.4623,0.6496,0.7088,-76.0500,6.7500,0.1500,8.7676,2.4373,-1.4485,0.1474,0.5918,0.1356,-95.8500,6.7500,8.5500,-7.5300,-3.1500,-5.1700,0.8181,-0.0404,1.2588,16.5000,11.1875,41.5000,142.8125,-7.5000,139.4375,0
1776974258.607,9.3781,1.8052,2.9209,-0.2209,0.9438,0.7061,-76.0500,6.7500,0.1500,9.1315,2.4301,-1.4006,0.1423,0.7037,0.3027,-96.4500,5.4000,10.5000,1.0300,-13.3600,-10.8900,0.7221,-0.1800,1.1988,16.5000,11.1875,41.5000,142.8125,-7.5000,139.4375,0
1776974258.612,11.0899,3.5698,-0.8284,-0.3171,0.8660,0.6835,-75.6000,7.5000,0.1500,9.1315,2.4301,-1.4006,0.1423,0.7037,0.3027,-96.4500,5.4000,10.5000,1.0300,-13.3600,-10.8900,0.7221,-0.1800,1.1988,16.5000,11.1875,41.5000,143.0625,-8.0625,139.8750,0
1776974258.617,11.0899,3.5698,-0.8284,-0.3171,0.8660,0.6835,-75.6000,7.5000,0.1500,8.8681,1.9130,-1.0702,0.0424,0.5678,0.4197,-96.4500,5.4000,10.5000,-0.0200,-19.2000,-4.3400,-0.7461,-0.6600,0.7887,15.5000,10.8750,41.6875,143.0625,-8.0625,139.8750,0
1776974258.622,11.9207,4.5921,-2.8228,-0.5860,0.4591,0.4887,-75.6000,7.5000,0.1500,8.8681,1.9130,-1.0702,0.0424,0.5678,0.4197,-96.1500,4.5000,11.4000,-0.0200,-19.2000,-4.3400,-0.7461,-0.6600,0.7887,15.5000,10.8750,41.6875,143.3125,-9.2500,141.6250,0
1776974258.627,11.9207,4.5921,-2.8228,-0.5860,0.4591,0.4887,-76.0500,6.4500,0.4500,8.9112,1.4653,-0.9601,-0.0967,0.6315,0.5484,-96.1500,4.5000,11.4000,-2.7600,-2.9700,-10.9000,-3.1590,-1.7213,1.3046,15.5000,10.8750,41.6875,143.3125,-9.2500,141.6250,0
1776974258.632,10.7404,5.6264,-0.4525,-0.0373,0.2606,0.2590,-77.2500,5.5500,0.9000,8.9112,1.4653,-0.9601,-0.0967,0.6315,0.5484,-95.4000,5.2500,11.7000,-2.7600,-2.9700,-10.9000,-3.1154,-1.8031,1.0330,15.5000,10.8750,41.6875,143.3750,-10.3750,143.3125,0
1776974258.638,10.7404,5.6264,-0.4525,-0.0373,0.2606,0.2590,-77.2500,5.5500,0.9000,9.1530,1.6688,-0.8906,-0.2542,0.6414,0.6869,-95.4000,5.2500,11.7000,-2.0800,-10.7000,-7.0700,-3.1154,-1.8031,1.0330,15.5000,10.8750,41.6875,143.1875,-11.2500,144.6875,0
1776974258.647,9.2775,5.6910,-1.1468,0.6571,0.1732,0.2156,-76.2000,4.6500,1.8000,8.8585,2.0111,-0.9577,-0.4133,0.7232,0.7730,-94.2000,4.6500,10.5000,-1.2200,-9.3200,-5.1200,-2.6649,-1.6439,0.4385,15.5000,10.8750,41.6875,143.1875,-11.2500,144.6875,0
1776974258.657,8.2863,5.6719,-0.5602,1.3968,0.1452,0.2585,-76.2000,4.6500,1.8000,9.3206,2.8323,-1.4246,-0.3064,0.8601,0.8708,-93.4500,4.2000,10.5000,-3.9800,-3.8800,-7.5100,-2.8351,-1.6821,0.8268,15.5000,10.8750,41.6875,143.1875,-12.3125,146.2500,0
1776974258.662,8.4036,4.8004,-1.2929,1.8828,0.3488,0.3643,-76.2000,4.6500,1.8000,9.3206,2.8323,-1.4246,-0.3064,0.8601,0.8708,-93.4500,4.2000,10.5000,-3.9800,-3.8800,-7.5100,-2.8351,-1.6821,0.8268,15.5000,10.8750,41.6875,143.1875,-12.3125,146.2500,0
1776974258.667,8.4036,4.8004,-1.2929,1.8828,0.3488,0.3643,-75.1500,3.9000,1.8000,10.0293,4.1803,-1.8316,-0.0466,0.8873,0.9553,-93.4500,4.2000,10.5000,-4.7100,-2.8800,-8.9500,-3.0761,-1.7148,1.0690,18.3750,7.5000,41.8750,143.3125,-13.4375,147.9375,0
1776974258.672,9.9000,3.8188,-2.8419,2.1637,0.4938,0.4506,-75.1500,3.9000,1.8000,10.0293,4.1803,-1.8316,-0.0466,0.8873,0.9553,-94.0500,1.8000,12.4500,-4.7100,-2.8800,-8.9500,-3.0761,-1.7148,1.0690,18.3750,7.5000,41.8750,143.3125,-13.4375,147.9375,0
1776974258.677,9.9000,3.8188,-2.8419,2.1637,0.4938,0.4506,-75.1500,3.9000,1.8000,10.5824,5.2050,-1.9034,0.2635,0.6875,0.9785,-94.0500,1.8000,12.4500,-4.1400,-1.8300,-9.1800,-3.0958,-1.5413,1.0625,18.3750,7.5000,41.8750,143.4375,-14.4375,149.6875,0
1776974258.685,11.0875,3.3734,-2.7102,1.9252,0.5327,0.4261,-75.1500,2.2500,2.5500,11.2623,5.4947,-1.3408,0.6486,0.4716,0.9534,-94.9500,0.9000,12.1500,1.3900,-0.2500,-8.7100,-2.8907,-1.3395,0.8748,18.3750,7.5000,41.8750,143.5000,-15.3750,151.3125,0
1776974258.690,14.2096,1.2761,-8.9639,1.2729,0.3022,0.4535,-75.1500,2.2500,2.5500,11.2623,5.4947,-1.3408,0.6486,0.4716,0.9534,-93.9000,0.1500,12.1500,1.3900,-0.2500,-8.7100,-2.8907,-1.3395,0.8748,18.3750,7.5000,41.8750,143.5000,-16.1875,152.6875,0
1776974258.697,15.8161,-2.8754,-6.8378,1.2729,0.3022,0.4535,-75.1500,2.2500,2.5500,13.7834,4.2904,-0.7997,0.9931,0.4285,1.0150,-93.9000,0.1500,12.1500,0.2800,9.4400,-12.9300,-2.5504,-1.3723,0.7079,18.3750,7.5000,41.8750,143.5000,-17.2500,153.5625,0
1776974258.707,13.1226,-5.1308,-0.3400,1.5362,0.1266,0.5289,-75.6000,1.6500,3.4500,16.3955,3.4620,-0.5243,1.0992,0.2249,1.1567,-93.4500,2.4000,13.6500,-6.1900,2.9600,-14.7100,-1.5533,-1.7344,0.6698,18.3750,7.5000,41.8750,143.5000,-17.2500,153.5625,0
1776974258.712,13.1226,-5.1308,-0.3400,1.8551,0.2896,0.6904,-75.6000,1.6500,3.4500,16.1345,2.7294,-0.1772,1.1935,0.1332,1.2481,-93.1500,0.9000,13.3500,-6.1900,2.9600,-14.7100,-1.5533,-1.7344,0.6698,18.3750,7.5000,41.8750,143.6875,-18.6250,153.8750,0
1776974258.717,11.1091,-4.5107,1.4629,1.5407,0.7482,0.8082,-76.8000,2.8500,2.4000,16.1345,2.7294,-0.1772,1.1935,0.1332,1.2481,-93.1500,0.9000,13.3500,-15.7700,0.8000,-16.9200,-0.6556,-2.3246,0.9970,22.6875,0.6875,40.8750,143.6875,-18.6250,153.8750,0
1776974258.722,11.1091,-4.5107,1.4629,1.5407,0.7482,0.8082,-76.8000,2.8500,2.4000,15.0404,2.6983,-1.0295,1.4794,0.5969,1.2129,-93.1500,0.9000,13.3500,-15.7700,0.8000,-16.9200,-0.6556,-2.3246,0.9970,22.6875,0.6875,40.8750,144.3125,-20.0000,154.5625,0
1776974258.727,12.4091,-2.5259,-0.9840,0.4716,1.1061,0.7536,-75.9000,0.3000,4.0500,15.0404,2.6983,-1.0295,1.4794,0.5969,1.2129,-93.1500,0.9000,13.3500,-4.6000,-4.7700,-8.8600,-0.9468,-1.9068,1.6570,22.6875,0.6875,40.8750,144.3125,-20.0000,154.5625,0
1776974258.732,12.4091,-2.5259,-0.9840,0.4716,1.1061,0.7536,-75.9000,0.3000,4.0500,12.2679,3.5698,-2.1141,2.0398,0.5249,0.9427,-91.9500,0.4500,13.3500,-4.6000,-4.7700,-8.8600,-0.7418,-0.8345,0.9588,22.6875,0.6875,40.8750,144.6250,-20.6250,155.0625,0
1776974258.738,12.6581,-0.3519,1.3288,0.1751,1.1090,0.6328,-75.9000,-0.3000,3.3000,12.2679,3.5698,-2.1141,2.0398,0.5249,0.9427,-94.0500,0.3000,13.3500,-4.6100,-1.5200,-10.4000,-0.7418,-0.8345,0.9588,22.6875,0.6875,40.8750,144.8750,-21.2500,155.5000,0
1776974258.747,11.3437,3.0358,2.5211,0.4599,0.6755,0.5942,-75.9000,-0.3000,3.3000,9.2895,3.5721,-1.7693,1.9790,0.5431,0.6206,-94.0500,0.3000,13.0500,-7.8200,-0.3300,-12.7200,-0.6643,-0.9174,0.7614,22.6875,0.6875,40.8750,144.8750,-21.2500,155.5000,0
1776974258.757,9.0166,6.3973,3.1987,0.4471,0.3160,0.5300,-75.9000,0.3000,5.1000,7.2903,1.5419,-0.3256,1.1636,0.7877,0.4085,-92.5500,2.5500,12.7500,-3.7200,-4.7400,-8.1000,-0.3687,-0.7374,0.5083,22.6875,0.6875,40.8750,145.0625,-21.7500,155.7500,0
1776974258.762,9.0166,6.3973,3.1987,0.4471,0.3160,0.5300,-75.9000,0.3000,5.1000,6.2513,-0.6345,0.8236,0.0288,1.1871,0.2982,-92.5500,2.5500,12.7500,-3.7200,-4.7400,-8.1000,-0.3687,-0.7374,0.5083,22.6875,0.6875,40.8750,145.1250,-22.0000,155.8750,0
1776974258.767,7.2449,6.0789,3.3399,0.3864,0.1092,0.4834,-75.9000,0.3000,5.1000,6.2513,-0.6345,0.8236,0.0288,1.1871,0.2982,-92.5500,2.5500,12.7500,-3.5100,-5.1800,-7.9100,-0.1887,-0.3818,0.2869,27.0625,-4.7500,38.5000,145.1250,-22.0000,155.8750,0
1776974258.772,7.2449,6.0789,3.3399,0.3864,0.1092,0.4834,-75.9000,0.3000,5.1000,7.0485,-1.7286,1.5060,-0.9489,1.6092,0.1727,-92.5500,2.5500,12.7500,-3.5100,-5.1800,-7.9100,-0.1887,-0.3818,0.2869,27.0625,-4.7500,38.5000,145.1875,-22.2500,156.0000,0
1776974258.777,6.6702,4.5466,2.4900,0.9094,0.1063,0.5247,-75.4500,0.0000,6.1500,7.0485,-1.7286,1.5060,-0.9489,1.6092,0.1727,-92.5500,2.5500,12.7500,-3.8200,-4.5700,-7.8400,-0.2203,-0.3862,0.2542,27.0625,-4.7500,38.5000,145.1875,-22.2500,156.0000,0
1776974258.785,7.3263,2.3439,1.1612,1.0930,0.2505,0.5740,-75.4500,-0.7500,5.8500,6.8259,-2.7605,2.0566,-1.5886,1.6286,0.1580,-92.7000,0.1500,16.2000,-3.8600,-4.8100,-7.8100,-0.3065,-0.4298,0.2847,27.0625,-4.7500,38.5000,145.3125,-22.5625,156.1875,0
1776974258.790,7.3263,2.3439,1.1612,1.0930,0.2505,0.5740,-75.4500,-0.7500,5.8500,6.8666,-3.8858,2.6887,-1.8439,1.2343,0.2665,-92.5500,-0.3000,14.8500,-3.8600,-4.8100,-7.8100,-0.3065,-0.4298,0.2847,27.0625,-4.7500,38.5000,145.3750,-22.8125,156.4375,0
1776974258.797,8.4204,-0.0455,-0.4549,0.9228,0.5716,0.5630,-75.4500,0.0000,6.6000,6.8666,-3.8858,2.6887,-1.8439,1.2343,0.2665,-92.7000,-2.7000,17.2500,-4.1700,-3.9100,-7.9900,-0.4200,-0.3916,0.3120,27.0625,-4.7500,38.5000,145.4375,-23.0625,156.8125,0
1776974258.807,9.6702,-1.1923,-0.5674,0.7088,0.7053,0.4999,-75.1500,-1.0500,7.6500,7.3837,-4.2258,3.0263,-1.8090,0.6462,0.5116,-93.0000,-4.0500,16.6500,-3.5300,-3.6600,-8.1600,-0.5291,-0.2793,0.3294,27.0625,-4.7500,38.5000,145.4375,-23.0625,156.8125,0
1776974258.812,10.1251,-1.1109,-0.6776,0.7088,0.7053,0.4999,-75.1500,-1.0500,7.6500,8.2456,-3.4907,3.1508,-1.4810,0.1836,0.8143,-93.0000,-4.0500,16.6500,-3.5300,-3.6600,-8.1600,-0.5291,-0.2793,0.3294,27.0625,-4.7500,38.5000,145.4375,-23.0625,156.8125,0
1776974258.817,10.1251,-1.1109,-0.6776,0.1487,0.7392,0.4050,-74.8500,-1.6500,7.2000,8.2456,-3.4907,3.1508,-1.4810,0.1836,0.8143,-91.9500,-5.7000,16.5000,-3.8400,-3.6300,-8.1200,-0.5520,-0.3578,0.3414,28.0625,-5.3750,36.8750,145.5625,-23.3125,157.1250,0
1776974258.822,9.8904,0.1365,-0.3807,0.1487,0.7392,0.4050,-74.8500,-1.6500,7.2000,9.6582,-2.2482,1.9369,-1.0307,-0.0096,1.0347,-91.9500,-5.7000,16.5000,-3.8400,-3.6300,-8.1200,-0.5520,-0.3578,0.3414,28.0625,-5.3750,36.8750,145.5625,-23.3125,157.1250,0
1776974258.827,9.8904,0.1365,-0.3807,-0.3182,0.6957,0.3680,-76.0500,-2.4000,7.2000,9.6582,-2.2482,1.9369,-0.6422,-0.0655,1.0600,-91.9500,-5.7000,16.5000,-3.8200,-2.9600,-8.5800,-0.5061,-0.3076,0.3458,28.0625,-5.3750,36.8750,145.6250,-23.5000,157.4375,0
1776974258.832,9.7659,1.8364,-0.1221,-0.3182,0.6957,0.3680,-76.0500,-2.4000,7.2000,10.7667,-0.8715,0.7039,-0.6422,-0.0655,1.0600,-91.9500,-5.7000,16.5000,-3.8200,-2.9600,-8.5800,-0.5192,-0.3371,0.3425,28.0625,-5.3750,36.8750,145.7500,-23.7500,157.8125,0
1776974258.838,9.7659,1.8364,-0.1221,-0.5281,0.7117,0.3898,-76.0500,-2.4000,7.2000,11.0588,0.7853,-0.0646,-0.1095,0.0730,0.9025,-91.0500,-7.5000,13.5000,-4.0400,-2.9100,-8.5900,-0.5192,-0.3371,0.3425,28.0625,-5.3750,36.8750,145.8125,-24.0000,158.1250,0
1776974258.847,9.7037,3.3926,0.2035,-0.3389,0.6837,0.4431,-75.4500,-2.7000,7.3500,10.9822,2.3080,0.0718,0.4746,0.2547,0.6904,-89.8500,-7.6500,15.4500,-4.2800,-3.0200,-8.6600,-0.5192,-0.3665,0.3185,28.0625,-5.3750,36.8750,145.8125,-24.0000,158.1250,0
1776974258.857,9.8665,4.3048,0.5219,0.0861,0.6630,0.5087,-75.4500,-2.7000,7.3500,10.1394,3.3806,0.7446,0.9499,0.3994,0.5092,-90.1500,-8.4000,15.4500,-4.5100,-2.8400,-8.9800,-0.5029,-0.3916,0.2967,28.0625,-5.3750,36.8750,145.8750,-24.3125,158.4375,0
1776974258.862,9.7755,4.0390,1.4078,0.5798,0.5444,0.5577,-75.4500,-2.7000,7.3500,10.1394,3.3806,0.7446,0.9499,0.3994,0.5092,-90.1500,-8.4000,15.4500,-4.5100,-2.8400,-8.9800,-0.5029,-0.3916,0.2967,28.0625,-5.3750,36.8750,145.9375,-24.5000,158.7500,0
1776974258.867,9.7755,4.0390,1.4078,0.5798,0.5444,0.5577,-75.9000,-3.4500,8.1000,9.8402,4.0654,1.4461,1.0134,0.5039,0.3914,-89.7000,-9.3000,14.8500,-4.8700,-2.7100,-8.8500,-0.4996,-0.3294,0.2531,28.0625,-7.5625,37.3750,145.9375,-24.5000,158.7500,0
1776974258.872,9.7468,3.2250,1.7166,0.9305,0.4658,0.5780,-75.9000,-3.4500,8.1000,9.8402,4.0654,1.4461,1.0134,0.5039,0.3914,-89.7000,-9.3000,14.8500,-4.8700,-2.7100,-8.8500,-0.4996,-0.3294,0.2531,28.0625,-7.5625,37.3750,146.0000,-24.6875,159.0000,0
1776974258.877,9.7468,3.2250,1.7166,0.9305,0.4658,0.5780,-75.4500,-1.0500,9.6000,9.3518,4.1492,2.3272,0.8474,0.4338,0.2843,-89.7000,-9.3000,14.8500,-4.7600,-2.6400,-8.9700,-0.3632,-0.2542,0.2116,28.0625,-7.5625,37.3750,146.0000,-24.6875,159.0000,0
1776974258.885,9.6726,2.1979,1.9369,0.9928,0.4202,0.5628,-74.8500,-3.3000,10.0500,9.3518,4.1492,2.3272,0.8474,0.4338,0.2843,-89.7000,-9.3000,14.8500,-4.4400,-3.0800,-8.5700,-0.2716,-0.2247,0.1614,28.0625,-7.5625,37.3750,146.0000,-24.8125,159.1250,0
1776974258.890,9.4044,1.0511,1.7669,0.9928,0.4202,0.5628,-74.8500,-3.3000,10.0500,9.0214,3.7014,2.9473,0.3579,0.6227,0.2427,-87.4500,-8.2500,15.6000,-4.4400,-3.0800,-8.5700,-0.2716,-0.2247,0.1614,28.0625,-7.5625,37.3750,146.0000,-24.9375,159.3125,0
1776974258.898,9.4044,1.0511,1.7669,0.8082,0.4098,0.5103,-76.0500,-2.8500,10.0500,8.6646,2.6001,3.4309,0.0040,0.5974,0.2595,-88.3500,-7.9500,14.4000,-4.3500,-3.0900,-8.5300,-0.2291,-0.1462,0.1178,28.0625,-7.5625,37.3750,146.0625,-25.0000,159.4375,0
1776974258.908,9.4068,0.3256,1.5682,0.5598,0.4700,0.4799,-76.5000,-3.6000,8.7000,9.8378,1.9704,3.0382,0.0711,0.4783,0.3323,-86.7000,-7.8000,16.6500,-4.5100,-3.1200,-8.4700,-0.2236,-0.1080,0.0960,28.0625,-7.5625,37.3750,146.0625,-25.0000,159.4375,0
1776974258.912,9.3853,0.2131,1.4964,0.2164,0.6019,0.4786,-76.5000,-3.6000,8.7000,9.8378,1.9704,3.0382,0.0711,0.4783,0.3323,-86.7000,-7.8000,16.6500,-4.5100,-3.1200,-8.4700,-0.2236,-0.1080,0.0960,28.0625,-7.5625,37.3750,146.0625,-25.0000,159.4375,0
1776974258.917,9.3853,0.2131,1.4964,0.2164,0.6019,0.4786,-76.5000,-4.0500,10.8000,9.8138,1.7119,2.7845,0.0392,0.5742,0.3922,-88.8000,-7.9500,16.5000,-4.4300,-3.0900,-8.4500,-0.1898,-0.0382,0.0676,28.5000,-8.7500,37.0000,146.0625,-25.0625,159.5625,0
1776974258.922,9.7612,0.7254,1.0319,-0.1529,0.5982,0.4850,-76.5000,-4.0500,10.8000,9.8138,1.7119,2.7845,0.0392,0.5742,0.3922,-88.8000,-7.9500,16.5000,-4.4300,-3.0900,-8.4500,-0.1898,-0.0382,0.0676,28.5000,-8.7500,37.0000,146.0625,-25.0625,159.5625,0
1776974258.927,9.8928,1.5850,0.8739,-0.1529,0.5982,0.4850,-76.5000,-4.0500,10.8000,8.7125,1.5443,2.4110,0.0317,0.7871,0.4029,-88.8000,-7.9500,16.5000,-4.2800,-2.9500,-8.5200,-0.1898,-0.0382,0.0676,28.5000,-8.7500,37.0000,146.0625,-25.0625,159.6875,0
1776974258.932,9.8928,1.5850,0.8739,-0.4549,0.5300,0.4756,-76.5000,-4.0500,10.8000,8.7125,1.5443,2.4110,0.0317,0.7871,0.4029,-88.8000,-7.9500,16.5000,-4.2800,-2.9500,-8.5200,-0.1593,-0.0262,0.0600,28.5000,-8.7500,37.0000,146.0625,-25.1250,159.7500,0
1776974258.938,9.6630,2.5474,0.5842,-0.5838,0.4389,0.4938,-75.3000,-4.8000,9.0000,9.3901,1.3743,2.0566,0.1298,0.9699,0.3677,-88.8000,-7.9500,16.5000,-4.2000,-3.0600,-8.4600,-0.1593,-0.0262,0.0600,28.5000,-8.7500,37.0000,146.0625,-25.1250,159.7500,0
1776974258.947,9.4092,2.9377,0.6536,-0.5838,0.4389,0.4938,-75.3000,-4.8000,9.0000,9.6199,1.0558,1.8699,0.1090,0.7759,0.3190,-87.1500,-5.2500,17.7000,-4.1800,-2.9600,-8.4500,-0.1254,-0.0338,0.0567,28.5000,-8.7500,37.0000,146.0625,-25.1250,159.8750,0
1776974258.956,9.0980,3.2585,0.2466,-0.6595,0.3968,0.5252,-75.9000,-4.6500,11.4000,9.5313,1.0774,1.2857,0.1098,0.6803,0.2657,-87.6000,-5.4000,18.3000,-4.1400,-3.0100,-8.3300,-0.1331,-0.0251,0.0589,28.5000,-8.7500,37.0000,146.1250,-25.1250,159.9375,0
1776974258.961,9.0980,3.2585,0.2466,-0.6307,0.4042,0.5684,-75.9000,-4.6500,11.4000,9.5313,1.0774,1.2857,0.1098,0.6803,0.2657,-87.6000,-5.4000,18.3000,-4.1400,-3.0100,-8.3300,-0.1331,-0.0251,0.0589,28.5000,-8.7500,37.0000,146.1250,-25.1250,159.9375,0
1776974258.966,8.8969,3.1173,0.1604,-0.6307,0.4042,0.5684,-76.5000,-4.8000,10.0500,9.6438,0.4860,0.8595,0.0330,0.5588,0.2150,-88.2000,-5.5500,20.5500,-4.1800,-3.0400,-8.3600,-0.1484,-0.0065,0.0611,29.6875,-9.7500,35.3750,146.1250,-25.1875,160.0000,0
1776974258.971,8.8969,3.1173,0.1604,-0.4812,0.4495,0.6289,-76.5000,-4.8000,10.0500,9.6438,0.4860,0.8595,0.0330,0.5588,0.2150,-88.2000,-5.5500,20.5500,-4.1800,-3.0400,-8.3600,-0.1484,-0.0065,0.0611,29.6875,-9.7500,35.3750,146.1250,-25.1875,160.0000,0
1776974258.976,9.1315,2.5331,0.4884,-0.4812,0.4495,0.6289,-74.7000,-4.9500,9.6000,9.5960,0.4429,0.6033,-0.2150,0.5231,0.1759,-87.0000,-4.2000,19.3500,-4.1200,-2.9800,-8.3500,-0.1484,-0.0065,0.0611,29.6875,-9.7500,35.3750,146.1250,-25.1875,160.1250,0
1776974258.981,9.1315,2.5331,0.4884,-0.3672,0.4850,0.6611,-74.7000,-4.9500,9.6000,9.5960,0.4429,0.6033,-0.2150,0.5231,0.1759,-87.0000,-4.2000,19.3500,-4.1200,-2.9800,-8.3500,-0.1484,-0.0065,0.0611,29.6875,-9.7500,35.3750,146.1250,-25.1875,160.2500,0
1776974258.988,9.4978,2.0039,0.5411,-0.2689,0.4242,0.6795,-76.0500,-6.7500,11.5500,9.5912,0.1915,-0.1772,-0.7056,0.7437,0.1199,-87.0000,-4.2000,19.3500,-4.1300,-2.8700,-8.4100,-0.1647,-0.0022,0.0665,29.6875,-9.7500,35.3750,146.1250,-25.1875,160.2500,0
1776974258.996,9.6007,1.0630,0.8045,-0.2334,0.3885,0.6848,-74.7000,-6.1500,10.6500,9.4667,-0.6009,1.4820,-0.5153,0.8164,-0.0059,-89.2500,-3.3000,20.5500,-4.2400,-2.8200,-8.4500,-0.1713,0.0065,0.0676,29.6875,-9.7500,35.3750,146.1875,-25.1875,160.3750,0
1776974259.001,9.6007,1.0630,0.8045,-0.2334,0.3885,0.6848,-74.7000,-6.1500,10.6500,9.4667,-0.6009,1.4820,-0.5153,0.8164,-0.0059,-89.2500,-3.3000,20.5500,-4.2400,-2.8200,-8.4500,-0.1713,0.0065,0.0676,29.6875,-9.7500,35.3750,146.1875,-25.1875,160.4375,0
1776974259.008,9.3350,0.9649,0.8547,-0.2388,0.3850,0.6789,-74.7000,-6.6000,10.6500,9.7995,0.1101,2.0566,-0.4469,0.4687,0.0421,-90.7500,-3.0000,22.8000,-4.2000,-2.7700,-8.4300,-0.1713,0.0098,0.0644,29.6875,-9.7500,35.3750,146.1875,-25.1875,160.4375,0
1776974259.013,9.3350,0.9649,0.8547,-0.2388,0.3850,0.6789,-74.7000,-6.6000,10.6500,9.3589,0.2514,1.0726,-0.8050,0.3107,0.0911,-91.5000,-3.7500,22.0500,-4.2000,-2.7700,-8.4300,-0.1680,0.0142,0.0578,29.0000,-8.7500,34.6875,146.1875,-25.1875,160.5625,0
1776974259.018,9.3111,0.6225,0.8499,-0.3717,0.4647,0.6787,-74.7000,-6.6000,10.6500,9.3589,0.2514,1.0726,-0.8050,0.3107,0.0911,-91.5000,-3.7500,22.0500,-4.2400,-2.7900,-8.4400,-0.1680,0.0142,0.0578,29.0000,-8.7500,34.6875,146.1875,-25.1875,160.5625,0
1776974259.023,9.3111,0.6225,0.8499,-0.3717,0.4647,0.6787,-74.7000,-6.6000,10.6500,9.1459,0.1245,0.4764,-1.1407,0.3456,0.1005,-92.4000,-2.7000,21.4500,-4.2400,-2.7900,-8.4400,-0.1854,0.0360,0.0502,29.0000,-8.7500,34.6875,146.1875,-25.1875,160.6875,0
1776974259.028,9.3853,0.6967,1.1947,-0.5247,0.4866,0.6648,-74.7000,-6.9000,10.6500,9.1459,0.1245,0.4764,-1.1407,0.3456,0.1005,-92.4000,-2.7000,21.4500,-3.9800,-2.8000,-8.4400,-0.1854,0.0360,0.0502,29.0000,-8.7500,34.6875,146.1875,-25.1875,160.6875,0
1776974259.033,9.3853,0.6967,1.1947,-0.5247,0.4866,0.6648,-74.7000,-6.9000,10.6500,9.2153,0.1293,0.2274,-1.2742,0.4972,0.0845,-92.4000,-2.7000,21.4500,-3.9800,-2.8000,-8.4400,-0.1920,0.0382,0.0513,29.0000,-8.7500,34.6875,146.1875,-25.1875,160.8125,0
1776974259.038,9.5002,0.6991,1.3503,-0.6707,0.4362,0.6265,-74.8500,-6.7500,10.5000,9.2153,0.1293,0.2274,-1.2742,0.4972,0.0845,-92.4000,-2.7000,21.4500,-3.9400,-2.9100,-8.3800,-0.1920,0.0382,0.0513,29.0000,-8.7500,34.6875,146.1875,-25.1875,160.8125,0
1776974259.047,9.5529,0.5938,1.1133,-0.7693,0.3667,0.6110,-75.1500,-7.3500,10.6500,9.4547,0.2753,0.3304,-1.1423,0.5319,0.0322,-92.4000,-2.7000,21.4500,-4.1900,-2.9500,-8.3300,-0.1833,0.0109,0.0600,29.0000,-8.7500,34.6875,146.1875,-25.1875,160.9375,0
1776974259.052,9.5529,0.5938,1.1133,-0.7693,0.3667,0.6110,-75.1500,-7.3500,10.6500,9.4739,0.4717,0.7877,-1.0070,0.4951,0.0237,-92.4000,-2.7000,21.4500,-4.1900,-2.9500,-8.3300,-0.1920,0.0164,0.0589,29.0000,-8.7500,34.6875,146.2500,-25.1875,161.0625,0
1776974259.059,9.5792,0.7254,1.2019,-0.8903,0.3483,0.6286,-73.6500,-6.9000,10.6500,9.4739,0.4717,0.7877,-1.0070,0.4951,0.0237,-93.3000,-7.8000,21.3000,-4.1700,-2.8200,-8.3800,-0.1920,0.0164,0.0589,29.0000,-8.7500,34.6875,146.2500,-25.1875,161.0625,0
1776974259.064,9.3494,0.7302,1.3192,-0.9931,0.3773,0.6438,-73.6500,-6.9000,10.6500,9.3541,0.5938,1.3695,-0.8953,0.3365,0.0509,-92.5500,-8.5500,22.3500,-4.1700,-2.8200,-8.3800,-0.1920,0.0164,0.0589,29.6875,-10.1875,35.8750,146.2500,-25.1875,161.1875,0
