timestamp,thigh_acc_x,thigh_acc_y,thigh_acc_z,thigh_gyro_x,thigh_gyro_y,thigh_gyro_z,thigh_mag_x,thigh_mag_y,thigh_mag_z,shank_acc_x,shank_acc_y,shank_acc_z,shank_gyro_x,shank_gyro_y,shank_gyro_z,shank_mag_x,shank_mag_y,shank_mag_z,foot_acc_x,foot_acc_y,foot_acc_z,foot_gyro_x,foot_gyro_y,foot_gyro_z,foot_mag_x,foot_mag_y,foot_mag_z,foot_euler_x,foot_euler_y,foot_euler_z,perturbation_event
1776974081.461,8.7245,-0.6033,3.3782,1.6174,1.2718,1.2902,-57.0000,15.7500,-21.1500,8.6431,7.9392,-2.1428,1.1751,1.0134,0.3262,-81.4500,21.1500,-9.3000,-14.3600,1.6700,-1.5800,-0.3065,-1.2239,0.0720,-20.0625,-1.6875,38.0625,214.1875,1.9375,143.7500,0
1776974081.466,8.7245,-0.6033,3.3782,1.6174,1.2718,1.2902,-57.0000,15.7500,-21.1500,9.0166,6.5146,-0.9098,1.1066,1.0635,0.4759,-81.4500,20.7000,-10.0500,-14.3600,1.6700,-1.5800,-0.3065,-1.2239,0.0720,-20.0625,-1.6875,38.0625,213.9375,1.3125,144.5000,0
1776974081.471,10.4339,2.3870,2.2242,1.5615,1.6102,1.1445,-58.0500,15.6000,-19.5000,9.0166,6.5146,-0.9098,1.1066,1.0635,0.4759,-81.4500,20.7000,-10.0500,8.9100,-5.5000,-15.0100,-1.3723,-1.3843,-0.0731,-20.0625,-1.6875,38.0625,213.9375,1.3125,144.5000,0
1776974081.479,14.5544,4.5203,-6.5481,0.3341,1.1572,0.7101,-58.0500,15.6000,-19.5000,8.7508,4.0558,1.0606,0.6792,1.1106,0.7152,-82.8000,19.8000,-9.9000,-4.2500,-10.3600,-11.3000,-3.4023,-2.4904,0.3229,-20.0625,-1.6875,38.0625,213.6875,0.0625,146.4375,0
1776974081.484,14.5544,4.5203,-6.5481,0.3341,1.1572,0.7101,-58.0500,15.6000,-19.5000,8.6742,2.3918,2.2458,0.1463,1.0696,0.9617,-82.8000,19.8000,-9.9000,-4.2500,-10.3600,-11.3000,-3.4023,-2.4904,0.3229,-20.0625,-1.6875,38.0625,213.4375,-1.1250,147.8125,0
1776974081.491,15.7874,5.6767,-6.0501,-0.2156,0.3475,0.0208,-59.7000,12.6000,-19.8000,8.6742,2.3918,2.2458,0.1463,1.0696,0.9617,-82.8000,19.8000,-9.9000,4.7700,-8.3500,-11.5400,-2.5471,-2.4882,0.2323,-20.0625,-1.6875,38.0625,213.2500,-2.3750,148.8125,0
1776974081.501,12.2392,2.3248,-4.2210,0.3541,-0.2990,-0.2403,-59.7000,12.6000,-19.8000,9.0285,1.6017,1.7095,-0.2329,0.5585,1.0437,-82.0500,18.0000,-8.8500,2.1100,-8.9000,-4.5600,-1.8566,-2.4729,0.4091,-20.0625,-1.6875,38.0625,213.2500,-2.3750,148.8125,0
1776974081.506,7.1156,-1.9800,-1.0726,1.8772,-0.3259,0.0203,-59.7000,12.6000,-19.8000,8.1523,1.7478,0.9792,-0.0424,0.3717,1.0651,-83.2500,18.4500,-8.7000,2.1100,-8.9000,-4.5600,-1.8566,-2.4729,0.4091,-20.0625,-1.6875,38.0625,213.2500,-2.3750,148.8125,0
1776974081.511,7.1156,-1.9800,-1.0726,1.8772,-0.3259,0.0203,-58.9500,12.6000,-19.3500,8.1523,1.7478,0.9792,-0.0424,0.3717,1.0651,-83.2500,18.4500,-8.7000,-4.0100,3.1400,-7.7600,-1.9788,-2.7194,1.1530,-16.5625,-3.5000,40.3750,213.4375,-4.0000,149.9375,0
1776974081.516,7.0102,-2.0710,-6.1890,1.6355,0.3078,0.4290,-58.9500,12.6000,-19.3500,9.2081,1.7358,-0.5267,0.6366,0.6376,1.2532,-82.5000,17.7000,-8.2500,-4.0100,3.1400,-7.7600,-1.9788,-2.7194,1.1530,-16.5625,-3.5000,40.3750,213.4375,-4.0000,149.9375,0
1776974081.521,7.0102,-2.0710,-6.1890,1.6355,0.3078,0.4290,-59.4000,10.6500,-19.0500,9.2081,1.7358,-0.5267,0.6366,0.6376,1.2532,-82.5000,17.7000,-8.2500,-5.1100,2.1100,-11.2000,-1.7584,-2.9671,1.0177,-16.5625,-3.5000,40.3750,213.5000,-5.6875,150.8750,0
1776974081.527,10.8673,-0.1221,-6.5098,0.5204,1.0203,0.5713,-59.4000,10.6500,-19.0500,11.6238,1.5060,-2.1045,1.7485,0.7141,1.5687,-82.2000,16.9500,-9.3000,-4.0000,-0.9800,-11.8400,-0.9261,-2.8471,0.2443,-16.5625,-3.5000,40.3750,213.1875,-7.1875,151.3125,0
1776974081.532,10.8673,-0.1221,-6.5098,0.5204,1.0203,0.5713,-57.6000,11.7000,-19.5000,13.6805,0.6608,-3.3447,2.9071,0.6129,1.7581,-82.2000,16.9500,-9.3000,-4.0000,-0.9800,-11.8400,-0.9261,-2.8471,0.2443,-16.5625,-3.5000,40.3750,212.8125,-8.5000,151.3750,0
1776974081.541,13.7116,0.5387,-2.6288,0.0120,1.0182,0.6038,-58.6500,11.4000,-19.8000,14.1856,-0.2897,-3.5362,3.6956,0.6694,1.8016,-82.2000,16.9500,-9.3000,-1.5000,2.8200,-10.7400,-0.2607,-2.7882,-0.0371,-16.5625,-3.5000,40.3750,212.8125,-8.5000,151.3750,0
1776974081.551,15.3588,0.6393,-3.6200,-0.2014,0.5457,0.6853,-58.6500,11.4000,-19.8000,16.4530,-0.5148,-3.0957,4.0633,0.9499,1.6843,-82.2000,16.9500,-9.3000,-3.6100,6.3600,-13.1200,0.0774,-3.0412,0.3665,-16.5625,-3.5000,40.3750,212.5625,-10.0625,151.1875,0
1776974081.556,14.3317,0.4908,-2.9137,-0.6592,0.4855,0.7157,-58.6500,11.4000,-19.8000,16.4530,-0.5148,-3.0957,4.0633,0.9499,1.6843,-83.2500,12.4500,-11.8500,-3.6100,6.3600,-13.1200,0.0774,-3.0412,0.3665,-16.5625,-3.5000,40.3750,212.5625,-11.9375,150.8125,0
1776974081.561,14.3317,0.4908,-2.9137,-0.6592,0.4855,0.7157,-60.4500,8.4000,-19.3500,16.6636,-0.3711,-2.3152,3.7918,1.1751,1.4277,-83.2500,12.4500,-11.8500,-8.3300,2.5100,-15.1800,0.5160,-3.3205,0.7756,-7.8750,-10.3750,43.5000,212.5625,-11.9375,150.8125,0
1776974081.566,13.0077,0.6847,0.7614,-0.6153,0.6006,0.7615,-60.4500,8.4000,-19.3500,16.6636,-0.3711,-2.3152,3.7918,1.1751,1.4277,-81.3000,9.7500,-11.7000,-8.3300,2.5100,-15.1800,0.5160,-3.3205,0.7756,-7.8750,-10.3750,43.5000,212.5625,-11.9375,150.8125,0
1776974081.571,13.0077,0.6847,0.7614,-0.6153,0.6006,0.7615,-60.4500,8.4000,-19.3500,16.1776,-0.0718,-1.0199,2.7563,1.6593,1.1186,-81.3000,9.7500,-11.7000,-12.3700,-3.6600,-15.0400,0.6403,-2.9987,1.0679,-7.8750,-10.3750,43.5000,212.7500,-13.6250,150.3750,0
1776974081.578,12.6246,2.7126,2.8826,-0.3469,0.8945,0.8633,-60.4500,8.4000,-19.3500,16.1776,-0.0718,-1.0199,2.7563,1.6593,1.1186,-79.8000,10.0500,-12.7500,-13.9700,-15.5100,-10.0700,0.1909,-2.2897,1.2010,-7.8750,-10.3750,43.5000,213.1250,-15.0625,150.2500,0
1776974081.583,13.2711,4.8123,2.1787,0.1801,0.9278,0.9286,-61.6500,10.3500,-19.8000,14.2216,-0.2729,-0.3735,1.3403,2.2002,0.7312,-79.8000,10.0500,-12.7500,-13.9700,-15.5100,-10.0700,0.1909,-2.2897,1.2010,-7.8750,-10.3750,43.5000,213.4375,-16.0000,150.4375,0
1776974081.591,12.7012,4.2593,0.3687,0.1801,0.9278,0.9286,-60.7500,8.1000,-19.5000,11.2695,0.0527,-2.0973,0.0416,2.1999,0.3243,-80.5500,8.5500,-10.6500,-7.2400,-7.1200,-8.3200,-0.2378,-1.4126,0.9381,-7.8750,-10.3750,43.5000,213.6250,-16.6875,150.6875,0
1776974081.601,9.5888,3.4668,2.8539,0.8460,0.4647,0.8828,-61.5000,7.8000,-19.2000,8.2337,0.5866,-2.1644,-0.8535,1.3003,-0.1292,-80.5500,8.5500,-10.6500,-5.7700,0.0500,-11.4700,-0.4331,-1.0548,0.6730,-7.8750,-10.3750,43.5000,213.6250,-16.6875,150.6875,0
1776974081.606,9.5888,3.4668,2.8539,1.1242,0.1889,0.7338,-61.5000,7.8000,-19.2000,8.2337,0.5866,-2.1644,-0.8535,1.3003,-0.1292,-78.7500,9.3000,-11.4000,-5.7700,0.0500,-11.4700,-0.4331,-1.0548,0.6730,0.0000,-13.0000,44.1875,213.7500,-17.2500,150.8750,0
1776974081.611,4.7692,3.4836,3.1747,0.8372,0.6419,0.7600,-62.2500,7.8000,-18.0000,10.2017,-0.2155,-1.0606,-1.1535,-2.3070,-0.5993,-78.7500,9.3000,-11.4000,-3.9300,-4.2300,-8.3200,-0.2923,-0.7723,0.5192,0.0000,-13.0000,44.1875,213.7500,-17.2500,150.8750,0
1776974081.616,4.7692,3.4836,3.1747,0.8372,0.6419,0.7600,-62.2500,7.8000,-18.0000,10.2017,-0.2155,-1.0606,-1.1535,-2.3070,-0.5993,-77.8500,9.9000,-9.0000,-3.9300,-4.2300,-8.3200,-0.2923,-0.7723,0.5192,0.0000,-13.0000,44.1875,213.8750,-17.6250,150.9375,0
1776974081.621,6.5362,-0.1101,3.2609,0.2419,0.6265,0.7091,-60.4500,7.2000,-18.6000,2.9760,-3.1843,1.4317,-2.3888,-2.6441,-0.7173,-77.8500,9.9000,-9.0000,-2.9700,-6.1200,-7.5900,-0.1680,-0.5607,0.3905,0.0000,-13.0000,44.1875,213.8750,-17.6250,150.9375,0
1776974081.626,6.5362,-0.1101,3.2609,0.2419,0.6265,0.7091,-60.4500,7.2000,-18.6000,2.9760,-3.1843,1.4317,-2.3888,-2.6441,-0.7173,-78.9000,10.6500,-9.3000,-2.9700,-6.1200,-7.5900,-0.1658,-0.6010,0.3709,0.0000,-13.0000,44.1875,214.0000,-18.0000,151.0625,0
1776974081.632,9.1267,-2.7031,1.6568,-0.2340,0.5167,0.6787,-62.4000,6.7500,-19.3500,1.2498,-4.4748,7.0605,-2.8826,1.3550,-0.3933,-78.9000,10.6500,-9.3000,-4.2500,-5.4100,-7.8700,-0.1658,-0.6010,0.3709,0.0000,-13.0000,44.1875,214.0625,-18.3125,151.1875,0
1776974081.641,9.3996,-1.8220,-0.3400,-0.6877,0.7325,0.7341,-62.4000,6.7500,-19.3500,7.1802,-3.7445,3.6583,-2.8384,1.2995,0.1053,-78.9000,8.7000,-11.1000,-4.2000,-4.9100,-7.7900,-0.2214,-0.5061,0.3534,0.0000,-13.0000,44.1875,214.0625,-18.3125,151.1875,0
1776974081.651,9.5361,-0.4190,-1.1396,-0.9502,0.7410,0.6760,-63.1500,5.5500,-19.0500,7.4579,-3.5003,1.2043,-3.0699,0.2510,0.4722,-78.9000,8.7000,-11.1000,-3.5400,-4.5400,-7.7800,-0.2553,-0.4091,0.3556,0.0000,-13.0000,44.1875,214.1875,-18.6250,151.3750,0
1776974081.656,9.5361,-0.4190,-1.1396,-0.9502,0.7410,0.6760,-63.1500,5.5500,-19.0500,7.4579,-3.5003,1.2043,-3.0699,0.2510,0.4722,-78.9000,8.7000,-11.1000,-3.5400,-4.5400,-7.7800,-0.2553,-0.4091,0.3556,0.0000,-13.0000,44.1875,214.1875,-18.6250,151.3750,0
1776974081.661,9.8067,1.1396,-1.8627,-0.9244,0.7418,0.5897,-63.0000,6.6000,-16.6500,7.7213,-3.6727,1.3048,-3.0638,0.0759,0.7085,-78.9000,8.7000,-11.1000,-3.6300,-3.7000,-8.2500,-0.2520,-0.3709,0.3720,2.5000,-14.8750,45.3750,214.3125,-18.9375,151.5000,0
1776974081.666,9.8067,1.1396,-1.8627,-0.9244,0.7418,0.5897,-63.0000,6.6000,-16.6500,7.7213,-3.6727,1.3048,-3.0638,0.0759,0.7085,-80.7000,8.7000,-9.7500,-3.6300,-3.7000,-8.2500,-0.2520,-0.3709,0.3720,2.5000,-14.8750,45.3750,214.3125,-18.9375,151.5000,0
1776974081.671,9.5600,1.7286,-1.5802,-0.8276,0.7703,0.5332,-63.0000,4.6500,-17.4000,8.8777,-2.0327,1.9920,-2.4728,-0.1673,1.0632,-80.7000,8.7000,-9.7500,-3.9900,-3.5500,-8.5300,-0.2596,-0.3992,0.3622,2.5000,-14.8750,45.3750,214.4375,-19.1875,151.6875,0
1776974081.677,9.3494,2.5091,-0.6512,-0.8276,0.7703,0.5332,-63.0000,4.6500,-17.4000,10.1418,0.6584,1.5897,-1.8684,-0.2523,1.1588,-81.4500,6.1500,-8.2500,-3.7300,-3.8700,-8.2000,-0.2291,-0.3469,0.3229,2.5000,-14.8750,45.3750,214.5625,-19.4375,151.8750,0
1776974081.682,9.3494,2.5091,-0.6512,-0.7389,0.8021,0.4994,-63.4500,6.7500,-16.8000,10.1418,0.6584,1.5897,-1.8684,-0.2523,1.1588,-80.7000,4.9500,-9.7500,-3.7300,-3.8700,-8.2000,-0.2291,-0.3469,0.3229,2.5000,-14.8750,45.3750,214.6875,-19.6875,152.0000,0
1776974081.691,9.2536,3.2992,-0.0479,-0.5588,0.7621,0.5228,-62.4000,6.0000,-16.3500,11.0947,2.8850,0.2729,-1.3939,0.0954,1.0227,-81.3000,4.9500,-9.7500,-3.5400,-3.5700,-8.4300,-0.2236,-0.3305,0.3022,2.5000,-14.8750,45.3750,214.7500,-19.9375,152.1250,0
1776974081.701,9.3206,3.7972,0.4717,-0.1599,0.6233,0.5756,-61.8000,4.9500,-16.2000,11.0852,4.1037,-0.2801,-0.6352,0.3150,0.8553,-81.3000,4.5000,-10.2000,-4.0900,-3.6700,-8.5100,-0.2073,-0.3905,0.2847,2.5000,-14.8750,45.3750,214.7500,-19.9375,152.1250,0
1776974081.706,9.4834,3.7709,0.4621,-0.1599,0.6233,0.5756,-61.8000,4.9500,-16.2000,10.4172,5.4899,0.4501,0.1476,0.6089,0.6206,-81.3000,4.5000,-10.2000,-4.0900,-3.6700,-8.5100,-0.2073,-0.3905,0.2847,2.5000,-14.8750,45.3750,214.8125,-20.1875,152.2500,0
1776974081.711,9.4834,3.7709,0.4621,0.2931,0.5502,0.6211,-61.8000,4.9500,-16.2000,10.4172,5.4899,0.4501,0.1476,0.6089,0.6206,-81.3000,4.5000,-10.2000,-4.2900,-4.0100,-8.4100,-0.1953,-0.3545,0.2542,4.3750,-15.5625,44.6875,214.8125,-20.1875,152.2500,0
1776974081.716,9.6486,3.1891,1.0918,0.2931,0.5502,0.6211,-61.8000,4.9500,-16.2000,9.9407,5.8179,1.5131,0.6917,0.6694,0.4482,-78.1500,1.6500,-10.5000,-4.2900,-4.0100,-8.4100,-0.1953,-0.3545,0.2542,4.3750,-15.5625,44.6875,214.8750,-20.3750,152.3750,0
1776974081.721,9.6486,3.1891,1.0918,0.7322,0.5271,0.6328,-62.7000,5.5500,-17.1000,9.9407,5.8179,1.5131,0.6917,0.6694,0.4482,-78.9000,1.6500,-10.5000,-4.4500,-3.7800,-8.5600,-0.1942,-0.2967,0.2138,4.3750,-15.5625,44.6875,214.8750,-20.3750,152.3750,0
1776974081.726,9.7252,2.2482,1.3767,0.7322,0.5271,0.6328,-62.7000,5.5500,-17.1000,9.0261,5.0326,2.7629,0.8759,0.6544,0.3837,-78.9000,1.2000,-9.7500,-4.4500,-3.7800,-8.5600,-0.1898,-0.2498,0.1669,4.3750,-15.5625,44.6875,214.9375,-20.5625,152.5000,0
1776974081.732,9.7252,2.2482,1.3767,1.0016,0.5127,0.6070,-62.7000,5.5500,-17.1000,9.0261,5.0326,2.7629,0.8759,0.6544,0.3837,-81.1500,1.9500,-8.7000,-4.5400,-3.7500,-8.5900,-0.1898,-0.2498,0.1669,4.3750,-15.5625,44.6875,214.9375,-20.6875,152.5625,0
1776974081.741,9.7492,1.2234,1.4341,1.0547,0.3970,0.5244,-63.7500,3.9000,-15.1500,8.4156,4.0869,3.0358,0.5881,0.8378,0.3954,-78.0000,1.5000,-8.1000,-4.4500,-3.9600,-8.4200,-0.1516,-0.1887,0.1156,4.3750,-15.5625,44.6875,214.9375,-20.6875,152.5625,0
1776974081.751,9.6175,0.1413,1.3791,0.8644,0.4426,0.4405,-63.7500,3.9000,-15.1500,7.4867,2.8467,3.6727,0.3893,0.9843,0.4549,-78.0000,1.5000,-8.1000,-4.0700,-4.1200,-8.1000,-0.1287,-0.1320,0.0851,4.3750,-15.5625,44.6875,214.9375,-20.7500,152.6250,0
1776974081.756,9.6271,-0.2801,1.4964,0.4951,0.4397,0.4045,-65.2500,3.0000,-16.2000,8.6718,1.8507,3.7517,0.3627,1.2305,0.5502,-78.0000,1.5000,-8.1000,-4.0700,-4.1200,-8.1000,-0.1287,-0.1320,0.0851,4.3750,-15.5625,44.6875,214.9375,-20.7500,152.6250,0
1776974081.761,9.6271,-0.2801,1.4964,0.4951,0.4397,0.4045,-63.9000,3.6000,-13.8000,8.6718,1.8507,3.7517,0.3627,1.2305,0.5502,-79.6500,2.7000,-7.6500,-3.8000,-4.1100,-8.0600,-0.1342,-0.0840,0.0753,5.2500,-16.5625,44.6875,215.0000,-20.8125,152.6875,0
1776974081.766,9.6798,-0.1173,1.3503,0.0962,0.4658,0.4101,-63.9000,3.6000,-13.8000,9.0764,1.4796,3.3734,0.5529,0.9665,0.6584,-79.6500,2.7000,-7.6500,-3.8000,-4.1100,-8.0600,-0.1342,-0.0840,0.0753,5.2500,-16.5625,44.6875,215.0000,-20.8125,152.6875,0
1776974081.771,9.6798,-0.1173,1.3503,0.0962,0.4658,0.4101,-63.9000,3.6000,-13.8000,9.0764,1.4796,3.3734,0.5529,0.9665,0.6584,-80.5500,4.5000,-8.1000,-3.9100,-4.1200,-8.0700,-0.1451,-0.0840,0.0785,5.2500,-16.5625,44.6875,215.0000,-20.8750,152.8125,0
1776974081.778,9.7133,0.9050,1.0750,-0.2822,0.5036,0.4359,-64.5000,3.9000,-15.4500,9.0812,1.3575,3.2178,0.7205,0.9502,0.6888,-80.5500,4.5000,-8.1000,-4.0800,-4.0300,-8.1000,-0.1407,-0.0873,0.0764,5.2500,-16.5625,44.6875,215.0000,-20.9375,152.8750,0
1776974081.783,9.7707,2.0159,0.6895,-0.2822,0.5036,0.4359,-64.5000,3.9000,-15.4500,9.1794,1.3216,2.7821,0.8266,0.9638,0.6603,-80.7000,4.2000,-6.1500,-4.0800,-4.0300,-8.1000,-0.1407,-0.0873,0.0764,5.2500,-16.5625,44.6875,215.0000,-21.0000,153.0000,0
1776974081.791,9.7707,2.0159,0.6895,-0.4780,0.4575,0.4575,-64.5000,3.9000,-15.4500,9.1794,1.3216,2.7821,0.8266,0.9638,0.6603,-80.4000,5.4000,-7.6500,-3.9500,-4.0600,-8.0500,-0.1331,-0.0622,0.0774,5.2500,-16.5625,44.6875,215.0625,-21.0625,153.0625,0
1776974081.801,9.5481,3.0622,0.2634,-0.5124,0.4186,0.4810,-64.8000,1.5000,-13.9500,9.1889,1.3312,2.5355,0.9326,0.9134,0.6118,-79.3500,3.1500,-6.1500,-3.9300,-3.9400,-8.0600,-0.1298,-0.0524,0.0785,5.2500,-16.5625,44.6875,215.0625,-21.0625,153.0625,0
1776974081.806,9.2009,3.6200,-0.1796,-0.4125,0.4194,0.5191,-64.8000,1.5000,-13.9500,9.4260,1.1325,2.0566,0.9742,0.9332,0.5537,-79.3500,3.1500,-6.1500,-3.9300,-3.9400,-8.0600,-0.1298,-0.0524,0.0785,5.2500,-16.5625,44.6875,215.0625,-21.0625,153.0625,0
1776974081.811,9.2009,3.6200,-0.1796,-0.4125,0.4194,0.5191,-64.8000,1.5000,-13.9500,9.4260,1.1325,2.0566,0.9505,0.9225,0.5068,-79.3500,3.1500,-6.1500,-3.8400,-4.0300,-7.9700,-0.1451,-0.0393,0.0829,5.2500,-17.0000,44.6875,215.0625,-21.1250,153.1250,0
1776974081.816,9.1051,3.7685,-0.3711,-0.2180,0.4263,0.5620,-64.3500,3.3000,-13.8000,9.7037,0.7470,1.2043,0.9505,0.9225,0.5068,-79.3500,3.1500,-6.1500,-3.8400,-4.0300,-7.9700,-0.1451,-0.0393,0.0829,5.2500,-17.0000,44.6875,215.0625,-21.1250,153.1250,0
1776974081.821,8.9759,3.5745,-0.3663,-0.2180,0.4263,0.5620,-64.3500,3.3000,-13.8000,9.8569,0.5794,0.4262,0.7578,0.8108,0.4735,-80.4000,7.6500,-4.3500,-3.7800,-3.9500,-7.9700,-0.1647,-0.0415,0.0927,5.2500,-17.0000,44.6875,215.1250,-21.1875,153.2500,0
1776974081.826,8.9759,3.5745,-0.3663,0.0091,0.4405,0.6051,-63.9000,3.3000,-15.3000,9.8569,0.5794,0.4262,0.7578,0.8108,0.4735,-80.4000,7.6500,-4.3500,-3.7800,-3.9500,-7.9700,-0.2007,-0.0480,0.1134,5.2500,-17.0000,44.6875,215.1875,-21.2500,153.3750,0
1776974081.833,8.9711,3.3734,-0.2634,0.2140,0.4663,0.6411,-65.2500,2.7000,-14.4000,9.5960,0.5148,-0.0168,0.5407,0.7813,0.4122,-80.7000,5.7000,-4.0500,-3.8400,-3.8000,-8.0500,-0.2007,-0.0480,0.1134,5.2500,-17.0000,44.6875,215.1875,-21.3125,153.5625,0
1776974081.842,9.1147,2.7150,-0.1987,0.3680,0.4820,0.6694,-65.2500,2.7000,-14.4000,9.9383,0.7326,0.0407,0.4602,0.7730,0.3483,-83.5500,7.0500,-4.5000,-3.8300,-3.8300,-8.0300,-0.2345,-0.0556,0.1309,5.2500,-17.0000,44.6875,215.1875,-21.3125,153.5625,0
1776974081.848,9.1147,2.7150,-0.1987,0.3680,0.4820,0.6694,-65.1000,2.4000,-13.5000,9.9383,0.7326,0.0407,0.4602,0.7730,0.3483,-83.5500,7.0500,-4.5000,-3.7900,-3.8500,-7.9500,-0.2662,-0.0480,0.1484,5.2500,-17.0000,44.6875,215.2500,-21.4375,153.7500,0
1776974081.853,9.0980,2.2649,0.0670,0.4453,0.5002,0.6816,-65.2500,1.0500,-13.2000,9.6965,1.3312,0.2203,0.3283,0.6249,0.3000,-83.1000,7.0500,-2.4000,-3.7900,-3.8500,-7.9500,-0.2662,-0.0480,0.1484,5.2500,-17.0000,44.6875,215.2500,-21.4375,153.7500,0
1776974081.858,9.0980,2.2649,0.0670,0.4453,0.5002,0.6816,-65.2500,1.0500,-13.2000,9.6965,1.3312,0.2203,0.3283,0.6249,0.3000,-83.1000,7.0500,-2.4000,-3.7900,-3.8500,-7.9500,-0.3000,-0.0447,0.1669,5.2500,-18.0000,42.7500,215.3125,-21.5000,153.9375,0
1776974081.863,9.2560,1.7142,0.4669,0.4471,0.5188,0.6805,-65.1000,-0.1500,-13.8000,9.3877,1.4629,0.0383,0.1170,0.5654,0.3008,-83.1000,7.0500,-2.4000,-3.7500,-3.7500,-7.9800,-0.3000,-0.0447,0.1669,5.2500,-18.0000,42.7500,215.3125,-21.5000,153.9375,0
1776974081.868,9.2560,1.7142,0.4669,0.4471,0.5188,0.6805,-65.1000,-0.1500,-13.8000,9.3877,1.4629,0.0383,0.1170,0.5654,0.3008,-83.1000,7.0500,-2.4000,-3.7500,-3.7500,-7.9800,-0.3262,-0.0513,0.1920,5.2500,-18.0000,42.7500,215.3750,-21.5625,154.1250,0
1776974081.872,9.3278,1.2905,0.4812,0.3656,0.5321,0.6907,-65.1000,-0.1500,-13.8000,9.4619,1.0870,-0.0168,-0.1396,0.5460,0.2958,-86.4000,8.2500,-2.1000,-3.7500,-3.7600,-8.0000,-0.3262,-0.0513,0.1920,5.2500,-18.0000,42.7500,215.3750,-21.5625,154.1250,0
1776974081.877,9.3278,1.2905,0.4812,0.3656,0.5321,0.6907,-65.1000,-0.1500,-13.8000,9.4619,1.0870,-0.0168,-0.1396,0.5460,0.2958,-86.4000,8.2500,-2.1000,-3.7500,-3.7600,-8.0000,-0.3491,-0.0709,0.2083,5.2500,-18.0000,42.7500,215.4375,-21.6875,154.3750,0
1776974081.882,9.3182,1.1349,0.4764,0.2563,0.5598,0.6939,-65.2500,-0.1500,-13.8000,9.4523,0.8212,-0.1149,-0.3408,0.4839,0.2793,-87.3000,7.9500,-2.2500,-3.8900,-3.7500,-8.0300,-0.3491,-0.0709,0.2083,5.2500,-18.0000,42.7500,215.4375,-21.6875,154.3750,0
1776974081.891,9.0453,1.2019,0.5555,0.1444,0.6150,0.7128,-65.2500,0.3000,-12.9000,10.3980,0.5674,-0.2131,-0.4847,0.2633,0.2547,-89.4000,7.6500,-0.4500,-3.7900,-3.6900,-8.0000,-0.3676,-0.0818,0.2193,5.2500,-18.0000,42.7500,215.5000,-21.7500,154.6250,0
1776974081.896,9.0453,1.2019,0.5555,0.1444,0.6150,0.7128,-65.5500,-1.0500,-12.4500,10.3980,0.5674,-0.2131,-0.4847,0.2633,0.2547,-89.4000,7.6500,-0.4500,-3.7900,-3.6900,-8.0000,-0.3785,-0.1047,0.2345,5.2500,-18.0000,42.7500,215.6250,-21.8750,154.8750,0
1776974081.903,9.2895,1.0271,0.7829,0.0035,0.6707,0.7277,-65.4000,-0.9000,-12.4500,8.5186,0.3926,0.4334,-0.6486,0.1593,0.1631,-90.4500,5.5500,-0.3000,-3.8000,-3.6300,-8.0300,-0.3785,-0.1047,0.2345,5.2500,-18.0000,42.7500,215.6250,-21.8750,154.8750,0
1776974081.907,9.2895,1.0271,0.7829,0.0035,0.6707,0.7277,-65.4000,-0.9000,-13.5000,8.5186,0.3926,0.4334,-0.6486,0.1593,0.1631,-90.4500,5.5500,-0.3000,-3.8000,-3.6300,-8.0300,-0.3840,-0.1494,0.2520,5.6875,-17.6875,43.5625,215.6875,-22.0625,155.1250,0
1776974081.912,9.7468,0.8188,0.8332,-0.1045,0.5641,0.7184,-65.4000,-0.9000,-13.5000,9.2249,-0.0455,1.0870,-0.5833,0.5415,0.2467,-89.4000,5.7000,-0.4500,-3.9700,-3.5000,-8.1000,-0.3840,-0.1494,0.2520,5.6875,-17.6875,43.5625,215.6875,-22.0625,155.1250,0
1776974081.917,9.7468,0.8188,0.8332,-0.1045,0.5641,0.7184,-64.6500,0.4500,-13.0500,9.2249,-0.0455,1.0870,-0.5833,0.5415,0.2467,-89.4000,5.7000,-0.4500,-3.9700,-3.5000,-8.1000,-0.3774,-0.1734,0.2531,5.6875,-17.6875,43.5625,215.7500,-22.1875,155.3750,0
1776974081.922,9.5505,1.1013,0.9026,-0.1002,0.5348,0.7296,-64.6500,0.4500,-13.0500,9.4763,0.2442,2.6073,-0.2782,0.4330,0.2710,-89.4000,5.7000,-0.4500,-4.0000,-3.3700,-8.1700,-0.3774,-0.1734,0.2531,5.6875,-17.6875,43.5625,215.7500,-22.1875,155.3750,0
1776974081.927,9.2033,1.4222,0.9218,-0.1002,0.5348,0.7296,-66.3000,0.3000,-13.2000,9.4763,0.2442,2.6073,-0.2782,0.4330,0.2710,-89.4000,5.7000,-0.4500,-4.0000,-3.3700,-8.1700,-0.3872,-0.1745,0.2498,5.6875,-17.6875,43.5625,215.8125,-22.3125,155.6250,0
1776974081.933,9.2033,1.4222,0.9218,-0.0349,0.5265,0.7458,-66.3000,0.3000,-13.2000,8.8394,1.0822,2.6049,-0.4796,0.4293,0.2164,-88.2000,2.5500,-2.1000,-4.0400,-3.3500,-8.2000,-0.3872,-0.1745,0.2498,5.6875,-17.6875,43.5625,215.9375,-22.5000,155.8750,0
1776974081.942,9.2057,1.4150,1.2091,-0.0003,0.5412,0.7410,-65.5500,-0.3000,-13.6500,8.8322,1.1875,2.2482,-0.8444,0.5196,0.1969,-87.0000,1.2000,-2.2500,-4.4700,-3.4500,-8.3100,-0.4014,-0.1647,0.2454,5.6875,-17.6875,43.5625,215.9375,-22.5000,155.8750,0
1776974081.952,9.5648,1.3408,1.3001,0.0264,0.5329,0.7210,-65.5500,-0.3000,-13.6500,9.5193,1.1444,1.8148,-0.8386,0.4738,0.1919,-87.0000,1.9500,-2.2500,-4.5300,-3.5800,-8.2400,-0.4243,-0.1113,0.2247,5.6875,-17.6875,43.5625,216.0000,-22.5625,156.1250,0
1776974081.957,9.8809,1.1037,1.0439,0.0264,0.5329,0.7210,-65.8500,-1.6500,-12.3000,9.5193,1.1444,1.8148,-0.7192,0.2982,0.2318,-87.0000,1.9500,-2.2500,-4.5300,-3.5800,-8.2400,-0.4243,-0.1113,0.2247,5.6875,-17.6875,43.5625,216.0000,-22.6250,156.4375,0
1776974081.962,9.8809,1.1037,1.0439,0.1332,0.5017,0.6968,-65.8500,-1.6500,-12.3000,9.7899,1.1684,2.1691,-0.7192,0.2982,0.2318,-87.4500,-0.3000,-3.4500,-4.0100,-3.6800,-8.3400,-0.4440,-0.0175,0.1887,5.0000,-19.5000,42.7500,216.0000,-22.6250,156.4375,0
1776974081.967,9.7061,0.6009,1.2809,0.2515,0.4708,0.7043,-65.8500,-1.6500,-12.3000,10.1083,1.3384,2.4852,-0.5279,0.1311,0.2774,-87.4500,-0.3000,-3.4500,-4.0100,-3.6800,-8.3400,-0.4440,-0.0175,0.1887,5.0000,-19.5000,42.7500,216.0625,-22.6875,156.6875,0
1776974081.972,9.7061,0.6009,1.2809,0.2515,0.4708,0.7043,-65.8500,-1.6500,-12.3000,10.1083,1.3384,2.4852,-0.5279,0.1311,0.2774,-87.4500,-0.3000,-3.4500,-4.2100,-3.5600,-8.2700,-0.4440,0.0065,0.1636,5.0000,-19.5000,42.7500,216.0625,-22.6875,156.6875,0
1776974081.980,9.4739,0.0239,1.5419,0.3198,0.5873,0.7314,-66.3000,-1.9500,-13.2000,8.4946,1.5945,2.8491,-0.3296,-0.0357,0.2992,-85.5000,0.1500,-1.9500,-4.4900,-3.0700,-8.6200,-0.3938,-0.0109,0.1516,5.0000,-19.5000,42.7500,216.1250,-22.6875,156.9375,0
1776974081.985,9.9000,-0.5339,1.3048,0.3198,0.5873,0.7314,-67.5000,-1.9500,-12.4500,8.4946,1.5945,2.8491,-0.3296,-0.0357,0.2992,-85.5000,0.1500,-1.9500,-4.4900,-3.0700,-8.6200,-0.3938,-0.0109,0.1516,5.0000,-19.5000,42.7500,216.1250,-22.7500,157.1875,0
1776974081.992,9.9000,-0.5339,1.3048,0.2872,0.5196,0.7181,-67.5000,-1.9500,-12.4500,8.9807,1.6520,2.4732,-0.1980,0.4836,0.3230,-87.1500,0.0000,-2.4000,-4.4700,-3.0200,-8.5800,-0.3447,-0.0185,0.1200,5.0000,-19.5000,42.7500,216.1250,-22.7500,157.3750,0
1776974082.002,9.8450,-0.6081,1.3144,0.1839,0.4946,0.6821,-67.3500,-1.3500,-11.2500,8.9256,1.5586,2.0853,-0.0432,0.4716,0.3688,-85.6500,-0.3000,-1.6500,-4.3200,-3.0300,-8.4800,-0.2891,-0.0033,0.0851,5.0000,-19.5000,42.7500,216.1250,-22.7500,157.3750,0
1776974082.007,9.5696,-0.5291,1.3815,0.0155,0.4999,0.6568,-67.5000,-3.9000,-12.1500,8.8969,1.4916,1.8387,0.0871,0.5340,0.3994,-84.7500,-1.6500,-2.5500,-4.3200,-3.0300,-8.4800,-0.2891,-0.0033,0.0851,5.0000,-19.5000,42.7500,216.1250,-22.7500,157.3750,0
1776974082.012,9.5696,-0.5291,1.3815,0.0155,0.4999,0.6568,-67.5000,-3.9000,-12.1500,8.8969,1.4916,1.8387,0.0871,0.5340,0.3994,-84.7500,-1.6500,-2.5500,-3.9600,-3.2800,-8.1300,-0.2662,0.0033,0.0600,6.7500,-20.6875,42.8750,216.1250,-22.7500,157.5000,0
1776974082.017,9.5696,0.1532,1.3455,-0.1308,0.4927,0.6201,-67.5000,-3.9000,-12.1500,8.8945,1.2570,1.6640,0.1386,0.5697,0.4245,-85.0500,-2.7000,-1.9500,-3.9600,-3.2800,-8.1300,-0.2662,0.0033,0.0600,6.7500,-20.6875,42.8750,216.1250,-22.7500,157.5000,0
1776974082.022,9.5696,0.1532,1.3455,-0.1308,0.4927,0.6201,-67.5000,-3.9000,-12.1500,8.8945,1.2570,1.6640,0.1386,0.5697,0.4245,-85.0500,-2.7000,-1.9500,-3.7800,-3.5200,-8.1300,-0.2716,-0.0065,0.0524,6.7500,-20.6875,42.8750,216.1250,-22.8125,157.6875,0
1776974082.028,9.4212,1.0175,1.4054,-0.1148,0.4962,0.6054,-65.8500,-3.3000,-11.2500,8.9759,1.0056,1.4150,0.0983,0.4255,0.4642,-85.0500,-2.7000,-1.9500,-4.1100,-3.4400,-8.1700,-0.2978,-0.0218,0.0709,6.7500,-20.6875,42.8750,216.1250,-22.8125,157.8750,0
1776974082.033,9.3254,1.3312,1.5371,-0.1148,0.4962,0.6054,-65.8500,-3.3000,-11.2500,8.9759,1.0056,1.4150,0.0983,0.4255,0.4642,-85.0500,-2.7000,-1.9500,-4.1100,-3.4400,-8.1700,-0.2978,-0.0218,0.0709,6.7500,-20.6875,42.8750,216.1250,-22.8125,158.0625,0
1776974082.042,9.7324,0.7350,1.5227,0.0053,0.5473,0.6185,-65.8500,-3.3000,-11.2500,9.4571,0.8595,1.0582,-0.0005,0.3182,0.4978,-83.7000,-2.7000,-1.9500,-4.3000,-3.3200,-8.2800,-0.3131,-0.0185,0.0851,6.7500,-20.6875,42.8750,216.1875,-22.8750,158.2500,0
1776974082.052,10.1610,-0.1820,1.2570,0.0376,0.5417,0.6014,-68.2500,-4.2000,-11.4000,8.5736,0.5315,1.6616,-0.1519,0.4495,0.5319,-85.0500,-1.6500,-2.2500,-4.0300,-3.5700,-8.2000,-0.3207,-0.0076,0.0840,6.7500,-20.6875,42.8750,216.1875,-22.8750,158.2500,0
1776974082.057,10.1610,-0.1820,1.2570,0.0690,0.4199,0.5971,-67.5000,-2.2500,-11.8500,9.7707,0.1700,1.6448,-0.2316,0.5990,0.5476,-85.5000,-2.7000,-0.4500,-4.0300,-3.5700,-8.2000,-0.3207,-0.0076,0.0840,6.7500,-20.6875,42.8750,216.1875,-22.8750,158.4375,0
1776974082.062,9.8976,-0.9002,1.3096,0.0690,0.4199,0.5971,-67.5000,-2.2500,-11.8500,9.7707,0.1700,1.6448,-0.2316,0.5990,0.5476,-85.5000,-2.7000,-0.4500,-4.1700,-3.2400,-8.3900,-0.2956,-0.0131,0.0873,6.0625,-21.2500,42.5000,216.1875,-22.8750,158.4375,0
1776974082.067,9.8976,-0.9002,1.3096,0.0938,0.3984,0.6267,-66.6000,-3.3000,-11.2500,9.5577,0.1125,1.8962,-0.2305,0.4972,0.5553,-84.7500,-3.1500,-0.7500,-4.1700,-3.2400,-8.3900,-0.2956,-0.0131,0.0873,6.0625,-21.2500,42.5000,216.1875,-22.9375,158.5625,0
1776974082.072,9.6414,-0.6440,1.1947,0.0938,0.3984,0.6267,-66.6000,-3.3000,-11.2500,9.5577,0.1125,1.8962,-0.2305,0.4972,0.5553,-84.7500,-3.1500,-0.7500,-4.3000,-2.8600,-8.5200,-0.2454,-0.0338,0.0949,6.0625,-21.2500,42.5000,216.1875,-22.9375,158.5625,0
1776974082.080,9.6414,-0.6440,1.1947,-0.0573,0.4343,0.6326,-68.4000,-4.0500,-11.2500,9.5409,0.0622,1.8292,-0.1895,0.5201,0.5588,-84.7500,-3.1500,-0.7500,-4.1600,-3.0900,-8.4000,-0.1985,-0.0447,0.0873,6.0625,-21.2500,42.5000,216.2500,-22.9375,158.6875,0
1776974082.085,9.4284,0.4980,1.0726,-0.1913,0.4594,0.6275,-67.3500,-4.0500,-12.0000,9.4858,0.5507,1.6759,-0.1956,0.5833,0.5497,-84.7500,-3.1500,-0.7500,-4.1600,-3.0900,-8.4000,-0.1985,-0.0447,0.0873,6.0625,-21.2500,42.5000,216.2500,-23.0000,158.8125,0
1776974082.092,9.1889,1.6759,1.0511,-0.2518,0.5068,0.6363,-67.3500,-4.0500,-12.0000,9.5912,0.9816,1.1660,-0.2382,0.5047,0.5153,-84.9000,-2.5500,0.3000,-4.3300,-2.9100,-8.4400,-0.1811,-0.0556,0.0873,6.0625,-21.2500,42.5000,216.2500,-23.0625,158.9375,0
1776974082.102,8.7676,2.5809,0.8763,-0.3086,0.6153,0.6734,-67.3500,-4.5000,-11.2500,8.9567,1.6424,0.6967,-0.2169,0.0509,0.4679,-84.9000,-2.5500,1.0500,-4.2900,-2.9800,-8.4000,-0.1713,-0.0600,0.0818,6.0625,-21.2500,42.5000,216.2500,-23.0625,158.9375,0
1776974082.107,8.7676,2.5809,0.8763,-0.3086,0.6153,0.6734,-67.3500,-4.5000,-11.2500,8.9567,1.6424,0.6967,-0.2169,0.0509,0.4679,-85.5000,-3.1500,-0.7500,-4.2900,-2.9800,-8.4000,-0.1713,-0.0600,0.0818,6.0625,-21.2500,42.5000,216.2500,-23.1250,159.0625,0
1776974082.112,9.6079,2.4157,0.8332,-0.3693,0.5748,0.7186,-67.3500,-4.5000,-11.2500,9.2680,2.3655,0.2777,-0.4458,0.5399,0.4213,-85.5000,-3.1500,-0.7500,-3.9400,-3.4900,-8.0600,-0.1636,-0.0578,0.0731,5.6875,-22.0000,42.8750,216.2500,-23.1250,159.0625,0
1776974082.117,9.6079,2.4157,0.8332,-0.3693,0.5748,0.7186,-67.6500,-5.2500,-10.8000,9.2680,2.3655,0.2777,-0.4458,0.5399,0.4213,-83.7000,-3.4500,-0.7500,-3.9400,-3.4900,-8.0600,-0.1636,-0.0578,0.0731,5.6875,-22.0000,42.8750,216.3125,-23.1250,159.1250,0
1776974082.122,9.8450,2.0614,0.9864,-0.3864,0.5473,0.7584,-67.6500,-5.2500,-10.8000,9.1506,2.7438,0.2227,-0.4596,0.3773,0.3866,-83.7000,-3.4500,-0.7500,-3.7900,-3.5300,-7.9900,-0.1800,-0.0567,0.0829,5.6875,-22.0000,42.8750,216.3125,-23.1250,159.1250,0
1776974082.129,9.7229,2.0830,0.8523,-0.3864,0.5473,0.7584,-67.9500,-4.6500,-10.6500,9.1506,2.7438,0.2227,-0.4596,0.3773,0.3866,-85.3500,-4.5000,0.0000,-3.6500,-3.5900,-7.9900,-0.2116,-0.0687,0.1222,5.6875,-22.0000,42.8750,216.3125,-23.1875,159.3125,0
1776974082.134,9.7229,2.0830,0.8523,-0.3315,0.5113,0.8013,-67.9500,-4.6500,-10.6500,9.1123,2.9568,0.6776,-0.5359,0.4330,0.3643,-85.3500,-4.5000,0.0000,-3.6500,-3.5900,-7.9900,-0.2116,-0.0687,0.1222,5.6875,-22.0000,42.8750,216.3750,-23.3125,159.4375,0
1776974082.142,9.3134,1.8651,1.2641,-0.2270,0.4807,0.8535,-67.3500,-4.0500,-10.0500,8.7891,2.7390,1.6807,-0.6147,0.4570,0.3525,-85.3500,-4.5000,0.0000,-3.6100,-3.8600,-8.0200,-0.2520,-0.0894,0.1734,5.6875,-22.0000,42.8750,216.5000,-23.3750,159.6875,0
1776974082.152,8.9807,1.5586,1.1612,-0.1460,0.4991,0.9100,-69.0000,-5.8500,-10.3500,9.0285,2.4325,2.2960,-0.6824,0.4482,0.3413,-85.6500,-7.0500,1.0500,-4.4200,-2.8600,-8.4700,-0.2760,-0.1036,0.2280,5.6875,-22.0000,42.8750,216.5000,-23.3750,159.6875,0
1776974082.157,8.9807,1.5586,1.1612,-0.1460,0.4991,0.9100,-67.5000,-6.9000,-10.3500,9.0285,2.4325,2.2960,-0.6824,0.4482,0.3413,-85.0500,-4.2000,0.7500,-4.4200,-2.8600,-8.4700,-0.2760,-0.1036,0.2280,5.6875,-22.0000,42.8750,216.5625,-23.5000,159.8750,0
1776974082.162,8.9807,1.4102,1.1325,-0.1172,0.5732,0.9566,-67.5000,-6.9000,-10.3500,9.0812,2.2889,3.0023,-0.6869,0.3893,0.3227,-85.0500,-4.2000,0.7500,-4.2800,-2.8500,-8.5100,-0.2793,-0.1113,0.2422,5.2500,-22.6875,42.5000,216.5625,-23.5000,159.8750,0
1776974082.167,8.9807,1.4102,1.1325,-0.1172,0.5732,0.9566,-68.2500,-6.9000,-10.6500,9.0812,2.2889,3.0023,-0.6869,0.3893,0.3227,-86.7000,-5.2500,-0.3000,-4.2800,-2.8500,-8.5100,-0.2793,-0.1113,0.2422,5.2500,-22.6875,42.5000,216.6250,-23.6250,160.0625,0
1776974082.172,9.2512,1.3216,1.8004,-0.1074,0.6603,1.0035,-68.2500,-6.9000,-10.6500,9.1506,2.0710,3.4261,-0.6094,0.3216,0.3019,-86.7000,-5.2500,-0.3000,-4.4300,-2.8300,-8.4600,-0.2531,-0.1124,0.2280,5.2500,-22.6875,42.5000,216.6250,-23.6250,160.0625,0
1776974082.180,9.7181,1.2617,2.5618,-0.1412,0.6749,1.0722,-68.2500,-6.9000,-10.6500,9.1842,1.7502,3.7781,-0.5105,0.3432,0.2763,-85.8000,-4.2000,-0.1500,-4.2400,-2.8000,-8.6800,-0.2411,-0.1047,0.2105,5.2500,-22.6875,42.5000,216.7500,-23.6875,160.1875,0
1776974082.185,9.7181,1.2617,2.5618,-0.1412,0.6749,1.0722,-68.2500,-6.9000,-10.6500,9.1842,1.7502,3.7781,-0.5105,0.3432,0.2763,-85.8000,-4.2000,-0.1500,-4.2400,-2.8000,-8.6800,-0.2411,-0.1047,0.2105,5.2500,-22.6875,42.5000,216.8125,-23.8125,160.3750,0
1776974082.193,9.8904,0.9912,2.7198,-0.0810,0.6686,1.1077,-68.2500,-9.0000,-9.6000,8.3701,1.5443,4.2186,-0.3840,0.1167,0.2518,-85.8000,-4.2000,-0.1500,-4.2200,-2.9800,-8.5800,-0.1963,-0.1200,0.2062,5.2500,-22.6875,42.5000,216.8750,-23.8750,160.5000,0
1776974082.202,10.1251,0.1820,3.1556,-0.0408,0.5809,1.1410,-68.2500,-9.0000,-9.6000,8.7221,1.2761,4.3814,-0.3893,0.5468,0.2193,-87.0000,-6.1500,1.2000,-4.4100,-2.7100,-8.6200,-0.1505,-0.1331,0.2073,5.2500,-22.6875,42.5000,216.8750,-23.8750,160.5000,0
1776974082.207,10.2759,-0.1413,2.5786,-0.1242,0.5337,1.1988,-67.6500,-10.6500,-8.2500,8.7221,1.2761,4.3814,-0.3893,0.5468,0.2193,-87.9000,-6.0000,1.0500,-4.4100,-2.7100,-8.6200,-0.1505,-0.1331,0.2073,5.2500,-22.6875,42.5000,217.0000,-24.0000,160.5625,0
1776974082.212,10.2759,-0.1413,2.5786,-0.1242,0.5337,1.1988,-67.6500,-10.6500,-8.2500,10.1131,0.9170,3.9169,-0.3126,0.3533,0.1972,-87.9000,-6.0000,1.0500,-4.6400,-2.6300,-8.5900,-0.1276,-0.1287,0.1985,6.5000,-22.6875,41.6875,217.0000,-24.0000,160.5625,0
1776974082.217,10.2185,-0.6752,2.7246,-0.2825,0.4884,1.2359,-67.6500,-10.6500,-9.3000,10.1131,0.9170,3.9169,-0.3126,0.3533,0.1972,-87.3000,-6.9000,0.7500,-4.6400,-2.6300,-8.5900,-0.1276,-0.1287,0.1985,6.5000,-22.6875,41.6875,217.0625,-24.0625,160.6875,0
1776974082.222,10.2185,-0.6752,2.7246,-0.2825,0.4884,1.2359,-67.6500,-10.6500,-9.3000,9.8402,0.8475,3.8355,-0.2750,0.4743,0.1516,-87.3000,-6.9000,0.7500,-4.6700,-2.4100,-8.7800,-0.1014,-0.0916,0.1800,6.5000,-22.6875,41.6875,217.0625,-24.0625,160.6875,0
1776974082.227,10.0126,-0.8284,2.2721,-0.3882,0.5031,1.2971,-67.2000,-10.9500,-8.8500,9.8402,0.8475,3.8355,-0.2750,0.4743,0.1516,-86.7000,-6.3000,1.6500,-4.6700,-2.4100,-8.7800,-0.0687,-0.0502,0.1571,6.5000,-22.6875,41.6875,217.1250,-24.1250,160.7500,0
1776974082.233,10.0126,-0.8284,2.2721,-0.3882,0.5031,1.2971,-67.2000,-10.9500,-8.8500,10.0078,0.5555,3.3950,-0.2249,0.4892,0.1103,-86.7000,-6.3000,1.6500,-4.4100,-2.3900,-8.9300,-0.0687,-0.0502,0.1571,6.5000,-22.6875,41.6875,217.1875,-24.1875,160.8125,0
1776974082.242,10.1466,-0.8859,1.6352,-0.5183,0.5023,1.3528,-68.1000,-12.3000,-7.2000,9.9551,0.2658,2.9305,-0.1498,0.4836,0.0765,-86.7000,-6.3000,1.6500,-4.2400,-2.7400,-8.8800,-0.0131,-0.0458,0.1418,6.5000,-22.6875,41.6875,217.1875,-24.1875,160.8125,0
1776974082.252,10.1347,-0.9074,1.5490,-0.6206,0.5284,1.3784,-68.1000,-12.3000,-7.2000,10.1203,0.1269,2.4469,-0.1210,0.4525,0.0466,-83.2500,-7.9500,0.7500,-4.0900,-2.8200,-8.9400,0.0687,-0.0960,0.1484,6.5000,-22.6875,41.6875,217.3125,-24.2500,160.7500,0
1776974082.257,10.5560,-0.9936,0.9361,-0.6483,0.5636,1.4210,-67.9500,-12.9000,-8.1000,10.6590,0.0239,1.7334,-0.1847,0.3693,0.0296,-83.2500,-7.9500,0.7500,-4.0900,-2.8200,-8.9400,0.0687,-0.0960,0.1484,6.5000,-22.6875,41.6875,217.3125,-24.2500,160.7500,0
1776974082.262,10.5560,-0.9936,0.9361,-0.6483,0.5636,1.4210,-67.9500,-12.9000,-8.1000,10.6590,0.0239,1.7334,-0.1847,0.3693,0.0296,-85.0500,-5.7000,1.2000,-3.3000,-2.4000,-9.9300,0.1254,-0.1396,0.1331,6.0625,-24.5625,42.8750,217.3750,-24.3750,160.7500,0
1776974082.267,10.9247,-1.0942,0.5866,-0.6587,0.5814,1.4890,-67.9500,-12.9000,-8.1000,10.6087,0.2394,1.3455,-0.3371,0.2678,0.0051,-85.0500,-5.7000,1.2000,-3.3000,-2.4000,-9.9300,0.1254,-0.1396,0.1331,6.0625,-24.5625,42.8750,217.3750,-24.3750,160.7500,0
1776974082.272,10.9247,-1.0942,0.5866,-0.6587,0.5814,1.4890,-67.9500,-12.9000,-8.1000,10.6087,0.2394,1.3455,-0.3371,0.2678,0.0051,-85.5000,-8.4000,1.5000,-3.4300,-2.6200,-9.7400,0.1865,-0.2367,0.1298,6.0625,-24.5625,42.8750,217.4375,-24.5000,160.6250,0
1776974082.279,10.6949,-1.1253,1.2402,-0.6291,0.5737,1.5561,-67.6500,-12.6000,-7.9500,10.6710,0.7063,0.9457,-0.5057,0.1468,-0.0128,-85.5000,-8.4000,1.5000,-3.6500,-2.5800,-9.7400,0.3065,-0.4058,0.1505,6.0625,-24.5625,42.8750,217.5000,-24.7500,160.4375,0
1776974082.284,10.9008,-0.7781,1.1851,-0.5987,0.6118,1.5998,-67.6500,-12.6000,-7.9500,10.6710,0.7063,0.9457,-0.5057,0.1468,-0.0128,-85.9500,-9.3000,2.1000,-3.6500,-2.5800,-9.7400,0.3065,-0.4058,0.1505,6.0625,-24.5625,42.8750,217.6250,-25.0625,160.2500,0
1776974082.293,11.2958,-0.5171,1.1588,-0.5987,0.6118,1.5998,-67.2000,-14.4000,-7.3500,10.9056,1.5299,0.8691,-0.6955,-0.0322,-0.0624,-85.9500,-9.3000,2.1000,-3.4500,-2.8200,-10.0100,0.3829,-0.5378,0.1604,6.0625,-24.5625,42.8750,217.6875,-25.5000,160.0000,0
1776974082.303,11.7699,-0.5842,1.3192,-0.5993,0.6560,1.6987,-66.7500,-13.9500,-6.1500,10.7476,2.5786,1.0439,-0.8612,-0.1711,-0.1439,-84.4500,-8.7000,-0.1500,-3.6000,-2.7900,-9.8700,0.4494,-0.7483,0.1931,6.0625,-24.5625,42.8750,217.6875,-25.5000,160.0000,0
1776974082.308,11.7699,-0.5842,1.3192,-0.5993,0.6560,1.6987,-67.2000,-15.9000,-7.3500,11.0397,3.1891,1.1971,-1.0174,-0.2625,-0.2518,-84.4500,-8.7000,-0.1500,-3.6000,-2.7900,-9.8700,0.4494,-0.7483,0.1931,6.7500,-23.3750,42.5000,217.8125,-26.0000,159.6875,0
1776974082.313,12.2535,0.2945,1.0870,-0.6027,0.6835,1.7973,-67.2000,-15.9000,-7.3500,11.0397,3.1891,1.1971,-1.0174,-0.2625,-0.2518,-85.5000,-10.2000,0.1500,-3.5900,-3.0900,-9.8200,0.4811,-0.9468,0.2203,6.7500,-23.3750,42.5000,217.8125,-26.0000,159.6875,0
1776974082.318,12.2535,0.2945,1.0870,-0.6027,0.6835,1.7973,-68.2500,-15.1500,-7.3500,10.8697,3.9456,1.5514,-1.1335,-0.3536,-0.3712,-85.5000,-10.2000,0.1500,-3.5900,-3.0900,-9.8200,0.4811,-0.9468,0.2203,6.7500,-23.3750,42.5000,217.8750,-26.6875,159.3750,0
1776974082.323,12.9287,1.0056,1.2234,-0.8463,0.7152,1.9295,-68.2500,-15.1500,-7.3500,10.8697,3.9456,1.5514,-1.1335,-0.3536,-0.3712,-84.9000,-8.5500,-1.0500,-3.4200,-3.1600,-9.9500,0.4745,-1.1748,0.2585,6.7500,-23.3750,42.5000,217.8750,-26.6875,159.3750,0
1776974082.328,12.9287,1.0056,1.2234,-0.8463,0.7152,1.9295,-67.6500,-16.5000,-7.9500,11.1211,5.0613,1.8340,-1.2033,-0.5159,-0.5263,-84.9000,-8.5500,-1.0500,-3.4200,-3.1600,-9.9500,0.4440,-1.4279,0.3109,6.7500,-23.3750,42.5000,218.0000,-27.5000,159.0625,0
1776974082.333,13.6230,1.7741,0.8715,-0.9025,0.7360,2.0904,-67.6500,-16.5000,-7.9500,11.1211,5.0613,1.8340,-1.2033,-0.5159,-0.5263,-85.6500,-10.0500,0.0000,-3.2900,-3.4900,-10.1400,0.4440,-1.4279,0.3109,6.7500,-23.3750,42.5000,218.1250,-28.5000,158.7500,0
1776974082.343,14.4275,2.7246,-0.4070,-0.8455,0.6648,2.2807,-67.6500,-16.5000,-7.9500,11.1306,6.2034,2.1691,-1.2774,-0.5841,-0.7021,-85.6500,-10.0500,0.0000,-3.2300,-4.0400,-10.6100,0.4134,-1.7846,0.4342,6.7500,-23.3750,42.5000,218.1250,-28.5000,158.7500,0
1776974082.353,14.6980,3.2034,-1.9130,-0.7730,0.6763,2.4768,-66.6000,-16.9500,-7.5000,10.5058,6.8211,2.0494,-1.1101,-0.7751,-0.8540,-85.6500,-10.0500,0.0000,-3.1000,-3.0700,-10.4300,0.2913,-2.2057,0.6043,6.7500,-23.3750,42.5000,218.3125,-29.7500,158.5000,0
1776974082.357,14.6980,3.2034,-1.9130,-0.7730,0.6763,2.4768,-66.6000,-16.9500,-7.5000,10.3334,6.5625,1.3695,-0.7615,-0.9217,-1.0027,-85.6500,-10.0500,0.0000,-3.1000,-3.0700,-10.4300,0.2913,-2.2057,0.6043,6.7500,-23.3750,42.5000,218.3125,-29.7500,158.5000,0
1776974082.362,14.7674,3.4620,-3.7876,-0.7935,0.7155,2.5967,-65.8500,-19.3500,-7.2000,10.3334,6.5625,1.3695,-0.7615,-0.9217,-1.0027,-85.5000,-7.6500,-1.5000,-2.3600,-4.6700,-11.1000,0.3360,-2.5907,0.7996,8.2500,-23.0625,42.5000,218.5625,-31.2500,158.2500,0
1776974082.367,14.7674,3.4620,-3.7876,-0.7935,0.7155,2.5967,-64.8000,-19.9500,-5.8500,10.8362,6.1004,0.9840,0.1082,-1.0496,-1.1218,-85.5000,-7.6500,-1.5000,-2.3600,-4.6700,-11.1000,0.3360,-2.5907,0.7996,8.2500,-23.0625,42.5000,218.5625,-31.2500,158.2500,0
1776974082.372,13.9582,2.9185,-5.9304,-1.1069,0.7373,2.5695,-64.8000,-19.9500,-5.8500,10.8362,6.1004,0.9840,1.1263,-0.7200,-1.1604,-85.6500,-6.3000,-2.1000,-2.5400,-5.4600,-10.8600,0.3774,-3.0194,1.0581,8.2500,-23.0625,42.5000,218.8750,-33.0625,158.0000,0
1776974082.380,12.6270,1.2043,-4.1420,-1.2937,0.9254,2.4608,-62.5500,-19.9500,-5.1000,10.8194,5.4468,1.6783,1.1263,-0.7200,-1.1604,-87.1500,-7.0500,0.6000,-2.8400,-7.1200,-10.0800,0.2553,-3.5267,1.3679,8.2500,-23.0625,42.5000,219.3750,-35.1250,157.8750,0
1776974082.385,12.6270,1.2043,-4.1420,-1.2937,0.9254,2.4608,-62.5500,-19.9500,-5.1000,11.6095,4.1037,-2.4157,2.0155,-1.1660,-1.2516,-87.1500,-7.0500,0.6000,-2.8400,-7.1200,-10.0800,0.2553,-3.5267,1.3679,8.2500,-23.0625,42.5000,220.0000,-37.5625,157.8750,0
1776974082.393,11.8633,1.3144,-1.5083,-1.0451,1.1354,2.4608,-63.1500,-20.8500,-4.5000,11.3102,2.6791,-5.0374,2.3531,-1.5226,-1.4037,-87.1500,-4.8000,-1.3500,-3.3800,-6.5700,-9.9300,0.1025,-4.0033,1.8021,8.2500,-23.0625,42.5000,268.1250,-40.3750,158.1250,0
1776974082.403,12.0476,1.7980,-1.2306,-0.8479,1.2604,2.4962,-62.4000,-22.0500,-5.2500,10.3094,2.4972,-4.1922,2.3129,-1.8133,-1.3579,-87.1500,-4.8000,-1.3500,-4.3300,-5.7200,-10.2400,-0.0731,-4.4746,2.3278,8.2500,-23.0625,42.5000,268.1250,-40.3750,158.1250,0
1776974082.408,12.2104,1.8938,0.3184,-0.8479,1.2604,2.4962,-62.4000,-22.0500,-5.2500,10.3094,2.4972,-4.1922,2.3129,-1.8133,-1.3579,-87.1500,-4.8000,-1.3500,-4.3300,-5.7200,-10.2400,-0.0731,-4.4746,2.3278,12.6875,-22.6875,42.5000,263.8750,-43.5000,158.6250,0
1776974082.413,12.2104,1.8938,0.3184,-0.8380,1.2236,2.4621,-62.4000,-22.0500,-5.2500,10.2975,2.1356,-1.4820,2.5386,-2.0707,-1.2798,-87.6000,-6.1500,-3.3000,-4.9700,-5.0500,-10.5900,-0.1702,-4.9153,2.8623,12.6875,-22.6875,42.5000,263.8750,-43.5000,158.6250,0
1776974082.418,11.8250,1.5036,1.9201,-0.8380,1.2236,2.4621,-62.4000,-22.0500,-5.2500,10.2975,2.1356,-1.4820,2.5386,-2.0707,-1.2798,-87.6000,-6.1500,-3.3000,-4.9700,-5.0500,-10.5900,-0.1702,-4.9153,2.8623,12.6875,-22.6875,42.5000,263.8750,-43.5000,158.6250,0
1776974082.423,11.8250,1.5036,1.9201,-0.6398,1.0813,2.3609,-60.4500,-25.5000,-5.2500,10.2807,1.5634,-0.3663,2.0928,-2.1618,-1.3416,-86.7000,-5.2500,-5.7000,-8.9300,-5.7800,-11.1900,-0.2825,-5.3353,3.2703,12.6875,-22.6875,42.5000,259.5625,-46.8750,159.4375,0
1776974082.428,10.5991,0.5435,3.0574,-0.3360,0.9505,2.2252,-60.4500,-25.5000,-5.2500,10.2807,1.5634,-0.3663,2.0928,-2.1618,-1.3416,-86.7000,-5.2500,-5.7000,-8.9300,-5.7800,-11.1900,-0.3567,-5.6527,3.4645,12.6875,-22.6875,42.5000,255.3750,-50.5000,160.5000,0
1776974082.434,10.5991,0.5435,3.0574,-0.3360,0.9505,2.2252,-60.4500,-25.5000,-5.2500,10.6350,1.6089,0.1053,1.6166,-2.2122,-1.4706,-86.7000,-4.0500,-5.2500,-11.4600,-6.0300,-11.9000,-0.3567,-5.6527,3.4645,12.6875,-22.6875,42.5000,251.5625,-54.1250,161.7500,0
1776974082.443,9.7013,-1.2258,4.2210,0.2193,0.9329,2.0781,-61.0500,-25.8000,-3.6000,10.7236,0.6464,0.9074,1.2084,-2.1400,-1.6092,-86.4000,-4.5000,-6.7500,-11.5800,-6.8800,-11.5800,-0.4102,-5.7672,3.4797,12.6875,-22.6875,42.5000,251.5625,-54.1250,161.7500,0
1776974082.453,9.3374,-2.6719,4.1731,0.9398,1.0933,1.9550,-60.3000,-25.8000,-2.8500,11.5041,-0.6656,1.8052,0.9393,-1.8836,-1.7341,-86.4000,-4.5000,-6.7500,-14.9100,-9.5900,-12.5100,-0.6261,-5.7607,3.4732,12.6875,-22.6875,42.5000,247.8125,-57.7500,163.3750,0
1776974082.458,9.1650,-3.4141,3.7924,1.3030,1.4357,1.8447,-60.3000,-25.8000,-2.8500,11.5041,-0.6656,1.8052,0.9393,-1.8836,-1.7341,-86.4000,-4.5000,-6.7500,-14.9100,-9.5900,-12.5100,-0.6261,-5.7607,3.4732,12.6875,-22.6875,42.5000,244.1250,-61.1875,165.6875,0
1776974082.463,9.1650,-3.4141,3.7924,1.3030,1.4357,1.8447,-58.9500,-27.9000,-3.4500,12.0835,-1.3551,2.4181,0.5359,-1.8618,-1.8053,-82.8000,-4.0500,-7.3500,-13.9300,-11.2100,-11.3100,-1.0297,-5.5141,3.4405,20.7500,-22.3750,37.0625,244.1250,-61.1875,165.6875,0
1776974082.468,9.7731,-4.0175,5.0039,1.4394,1.6891,1.6441,-58.9500,-27.9000,-3.4500,12.0835,-1.3551,2.4181,0.5359,-1.8618,-1.8053,-82.8000,-4.0500,-7.3500,-13.9300,-11.2100,-11.3100,-1.0297,-5.5141,3.4405,20.7500,-22.3750,37.0625,240.2500,-64.3125,169.0625,0
1776974082.473,9.7731,-4.0175,5.0039,1.4394,1.6891,1.6441,-59.1000,-27.3000,-2.1000,13.5775,-1.8986,3.1867,-0.1250,-1.9321,-1.8138,-83.8500,-2.5500,-6.3000,-10.3200,-10.1000,-10.8200,-1.7028,-4.9927,3.4099,20.7500,-22.3750,37.0625,240.2500,-64.3125,169.0625,0
1776974082.480,10.8529,-7.4244,5.2361,1.7792,1.6499,1.4069,-59.1000,-27.3000,-2.1000,14.5520,-2.3679,3.4788,-0.4114,-1.7869,-1.6545,-83.8500,-2.2500,-8.1000,-1.0100,-7.4000,-9.0900,-2.3235,-4.5946,3.3881,20.7500,-22.3750,37.0625,236.1250,-67.1250,173.6250,0
1776974082.485,9.8186,-7.3215,8.5976,1.7792,1.6499,1.4069,-59.1000,-27.3000,-2.1000,14.5520,-2.3679,3.4788,-0.4114,-1.7869,-1.6545,-83.8500,-2.2500,-8.1000,-1.0100,-7.4000,-9.0900,-2.3235,-4.5946,3.3881,20.7500,-22.3750,37.0625,232.1250,-69.6875,179.3750,0
1776974082.493,9.8186,-7.3215,8.5976,2.8256,1.6369,0.9880,-58.0500,-29.2500,3.3000,14.3987,-2.8778,2.7054,-0.5510,-1.8298,-1.4823,-82.9500,-1.9500,-9.3000,2.6000,-7.3400,-8.2700,-2.5176,-4.3971,3.3750,20.7500,-22.3750,37.0625,228.2500,-72.0625,-173.1875,0
1776974082.503,9.7731,-6.0310,9.3039,3.5040,0.5196,0.7573,-58.0500,-29.2500,3.3000,13.4219,-2.3032,1.9273,-0.7205,-2.0342,-1.3640,-82.5000,-1.6500,-9.7500,3.2700,-5.7800,-7.8000,-2.5253,-4.4942,3.4950,20.7500,-22.3750,37.0625,228.2500,-72.0625,-173.1875,0
1776974082.508,7.0964,-6.4284,7.1467,2.4688,0.2739,0.7266,-58.0500,-29.2500,3.3000,12.2607,-1.0319,2.6360,-0.8950,-1.4607,-1.4096,-82.5000,-1.6500,-9.7500,3.2700,-5.7800,-7.8000,-2.5253,-4.4942,3.4950,20.7500,-22.3750,37.0625,224.5000,-74.3125,-163.3750,0
1776974082.513,5.0805,-8.2361,6.9935,2.4688,0.2739,0.7266,-56.8500,-30.9000,5.1000,12.2607,-1.0319,2.6360,-0.8950,-1.4607,-1.4096,-82.5000,-1.6500,-9.7500,3.0900,-2.4000,-7.3200,-2.6769,-4.8422,3.6063,27.2500,-24.8750,28.8750,224.5000,-74.3125,-163.3750,0
1776974082.518,5.0805,-8.2361,6.9935,2.2236,-0.1282,0.5454,-56.8500,-30.9000,5.1000,11.9279,0.2801,2.7557,-0.9713,-1.4309,-1.4440,-81.6000,1.0500,-11.7000,3.0900,-2.4000,-7.3200,-2.6769,-4.8422,3.6063,27.2500,-24.8750,28.8750,221.4375,-76.0625,-153.2500,0
1776974082.523,3.5602,-8.4563,8.9759,2.2236,-0.1282,0.5454,-56.5500,-31.6500,6.9000,11.9279,0.2801,2.7557,-0.9713,-1.4309,-1.4440,-81.6000,1.0500,-11.7000,-16.3600,-3.9200,-10.8400,-2.6791,-4.4375,2.6911,27.2500,-24.8750,28.8750,221.4375,-76.0625,-153.2500,0
1776974082.528,3.5602,-8.4563,8.9759,2.1980,-0.1311,0.3187,-56.5500,-31.6500,6.9000,11.2743,0.9768,2.8850,-0.8625,-0.9883,-1.4594,-81.9000,0.4500,-11.1000,-16.3600,-3.9200,-10.8400,-1.1061,-1.7748,0.7821,27.2500,-24.8750,28.8750,220.3750,-76.6875,-149.0625,0
1776974082.534,2.1572,-6.1292,9.6391,1.6323,0.0083,0.0442,-56.1000,-31.6500,6.1500,11.2743,0.9768,2.8850,-0.8625,-0.9883,-1.4594,-81.9000,0.4500,-11.1000,-8.3200,-5.1700,-15.2700,-1.1061,-1.7748,0.7821,27.2500,-24.8750,28.8750,220.8750,-76.5625,-151.8125,0
1776974082.543,2.8419,-4.7238,6.8307,0.6888,-0.0682,-0.3669,-57.9000,-30.6000,5.7000,11.7651,1.4222,2.6360,-0.7131,-0.8194,-1.5111,-81.3000,1.8000,-10.6500,-6.1000,-8.6700,-11.8300,0.1102,0.7570,-0.8923,27.2500,-24.8750,28.8750,220.8750,-76.5625,-151.8125,0
1776974082.553,4.5633,-3.9768,4.9584,-0.1327,-0.4676,-0.7687,-57.9000,-30.6000,5.7000,11.8657,1.9561,2.3104,-0.4602,-0.8223,-1.5375,-82.3500,3.0000,-9.1500,0.5500,-8.6300,-5.9000,0.4298,2.0049,-1.9559,27.2500,-24.8750,28.8750,222.1250,-76.0000,-158.0625,0
1776974082.558,4.5633,-3.9768,4.9584,-0.1327,-0.4676,-0.7687,-57.9000,-30.6000,5.7000,11.3030,2.3248,1.9848,-0.3184,-0.9121,-1.5460,-82.3500,3.0000,-9.1500,0.5500,-8.6300,-5.9000,0.4298,2.0049,-1.9559,27.2500,-24.8750,28.8750,223.4375,-75.1250,-164.7500,0
1776974082.563,5.3127,-3.6248,4.5346,-0.1332,-0.8380,-1.0600,-57.3000,-28.9500,7.3500,11.3030,2.3248,1.9848,-0.3184,-0.9121,-1.5460,-82.3500,3.0000,-9.1500,-0.0100,-7.0100,-5.1900,0.1625,2.4598,-2.4140,30.2500,-29.1875,23.3750,223.4375,-75.1250,-164.7500,0
1776974082.568,5.3127,-3.6248,4.5346,-0.1332,-0.8380,-1.0600,-57.3000,-28.9500,7.3500,9.8976,2.5139,1.5778,-0.1164,-0.9377,-1.5839,-81.6000,4.5000,-10.9500,-0.0100,-7.0100,-5.1900,0.1625,2.4598,-2.4140,30.2500,-29.1875,23.3750,224.5625,-74.0625,-170.8125,0
1776974082.573,5.1643,-3.4261,4.3910,0.1793,-1.1442,-1.2854,-57.3000,-28.9500,7.3500,9.8976,2.5139,1.5778,-0.1164,-0.9377,-1.5839,-81.6000,4.5000,-10.9500,-0.4300,-5.8300,-4.8100,-0.3098,2.5940,-2.5885,30.2500,-29.1875,23.3750,224.5625,-74.0625,-170.8125,0
1776974082.581,4.6160,-3.6631,4.0247,0.1793,-1.1442,-1.2854,-57.0000,-29.8500,6.7500,9.2057,2.7222,1.3455,0.1034,-0.5657,-1.6076,-81.3000,6.3000,-9.6000,-0.3400,-4.2800,-3.9600,-0.6883,2.7391,-2.7314,30.2500,-29.1875,23.3750,225.5000,-72.6875,-176.0625,0
1776974082.586,4.6160,-3.6631,4.0247,0.5465,-1.4072,-1.5055,-57.0000,-29.8500,6.7500,8.8370,2.7485,1.0702,0.3288,-0.4175,-1.5777,-81.3000,6.3000,-9.6000,-0.3400,-4.2800,-3.9600,-0.6883,2.7391,-2.7314,30.2500,-29.1875,23.3750,226.3750,-71.1250,179.3125,0
1776974082.594,3.6823,-2.5905,3.8810,0.8468,-1.7251,-1.7544,-58.3500,-28.5000,7.6500,8.8370,2.7485,1.0702,0.3288,-0.4175,-1.5777,-80.4000,6.9000,-10.5000,-0.3000,-3.7800,-3.8100,-0.9119,2.8951,-2.8809,30.2500,-29.1875,23.3750,227.2500,-69.3750,175.4375,0
1776974082.603,3.4022,-2.4541,1.5802,0.4986,-2.1597,-1.9542,-59.5500,-28.5000,8.1000,8.8131,2.2913,0.7661,0.4879,-0.1879,-1.5034,-82.8000,7.8000,-10.2000,-0.7400,-3.4300,-4.0600,-1.0188,3.0118,-3.0151,30.2500,-29.1875,23.3750,227.2500,-69.3750,175.4375,0
1776974082.608,3.4022,-2.4541,1.5802,0.4986,-2.1597,-1.9542,-59.5500,-28.5000,8.1000,8.6838,1.7837,0.9218,0.4311,-0.0967,-1.4290,-80.7000,8.7000,-8.7000,-0.7400,-3.4300,-4.0600,-1.0188,3.0118,-3.0151,30.2500,-29.1875,23.3750,228.3125,-67.5000,172.0625,0
1776974082.613,2.5307,-2.6791,3.2322,0.6491,-1.9444,-2.0390,-59.5500,-27.0000,5.8500,8.6838,1.7837,0.9218,0.4311,-0.0967,-1.4290,-80.7000,8.7000,-8.7000,-2.1800,-2.9300,-4.4000,-1.0134,3.1089,-3.1329,27.0625,-21.7500,28.1875,228.3125,-67.5000,172.0625,0
1776974082.618,2.5307,-2.6791,3.2322,0.6491,-1.9444,-2.0390,-59.5500,-27.0000,5.8500,8.0589,1.1468,1.7813,0.3477,-0.1703,-1.3155,-80.7000,8.7000,-8.7000,-2.1800,-2.9300,-4.4000,-1.0134,3.1089,-3.1329,27.0625,-21.7500,28.1875,229.5625,-65.4375,169.1250,0
1776974082.623,2.7797,-2.7557,3.5602,0.8295,-1.7722,-2.1517,-61.2000,-24.7500,6.4500,8.0589,1.1468,1.7813,0.3477,-0.1703,-1.3155,-80.7000,8.7000,-8.7000,-3.8900,-0.5500,-5.4800,-0.9065,3.2529,-3.2758,27.0625,-21.7500,28.1875,229.5625,-65.4375,169.1250,0
1776974082.628,4.2521,-3.6583,4.0773,0.8295,-1.7722,-2.1517,-61.2000,-24.7500,6.4500,7.5992,0.6249,2.2625,0.4740,-0.0690,-1.1703,-84.4500,12.9000,-7.9500,-3.8900,-0.5500,-5.4800,-0.6109,3.5070,-3.4579,27.0625,-21.7500,28.1875,231.2500,-63.1250,166.4375,0
1776974082.634,4.2521,-3.6583,4.0773,1.2132,-1.8431,-2.3185,-63.1500,-25.2000,5.7000,6.9695,0.4238,1.8771,0.6742,-0.0642,-1.0059,-84.4500,12.9000,-7.9500,-3.8600,-0.9100,-6.0700,-0.6109,3.5070,-3.4579,27.0625,-21.7500,28.1875,233.5000,-60.5625,164.0625,0
1776974082.643,5.4181,-3.5314,5.0135,1.4349,-2.1011,-2.4078,-63.1500,-25.2000,5.7000,6.9695,0.4238,1.8771,0.8407,-0.2038,-0.8687,-84.4500,13.2000,-6.9000,-3.7700,-0.8700,-6.0100,-0.1909,3.8463,-3.4732,27.0625,-21.7500,28.1875,233.5000,-60.5625,164.0625,0
1776974082.653,6.8474,-3.4860,4.1396,1.0882,-2.3212,-2.5373,-63.3000,-22.9500,6.6000,6.8690,0.5243,2.4421,1.0160,-0.1092,-0.7568,-85.3500,13.0500,-7.3500,-2.7700,-0.0500,-5.9300,0.1244,4.1452,-3.3390,27.0625,-21.7500,28.1875,236.1250,-57.8125,162.1250,0
1776974082.658,7.4053,-3.8140,3.8164,0.4770,-2.4896,-2.7280,-63.3000,-22.9500,6.6000,6.8690,0.5243,2.4421,1.0160,-0.1092,-0.7568,-84.7500,13.9500,-7.9500,-2.7700,-0.0500,-5.9300,0.1244,4.1452,-3.3390,27.0625,-21.7500,28.1875,236.1250,-57.8125,162.1250,0
1776974082.663,7.4053,-3.8140,3.8164,0.4770,-2.4896,-2.7280,-65.5500,-22.9500,5.5500,6.5936,0.7901,2.1572,0.9920,0.0200,-0.6448,-84.7500,13.9500,-7.9500,-2.8700,0.1900,-6.1300,0.4123,4.3371,-3.1241,24.0625,-19.1875,28.3750,239.1250,-55.0000,160.6250,0
1776974082.668,7.8721,-5.0063,4.1946,0.2542,-2.7344,-2.9441,-65.5500,-22.9500,5.5500,6.5936,0.7901,2.1572,0.9920,0.0200,-0.6448,-84.7500,13.9500,-7.9500,-2.8700,0.1900,-6.1300,0.4123,4.3371,-3.1241,24.0625,-19.1875,28.3750,239.1250,-55.0000,160.6250,0
1776974082.673,7.8721,-5.0063,4.1946,0.2542,-2.7344,-2.9441,-66.1500,-22.8000,4.9500,6.3159,0.6991,1.7478,0.9318,0.1748,-0.5633,-84.7500,13.9500,-7.9500,-3.3100,-0.2100,-6.5000,0.6840,4.3611,-2.8056,24.0625,-19.1875,28.3750,242.5000,-52.1875,159.3750,0
1776974082.679,7.7261,-5.3247,4.0414,0.0906,-2.8272,-3.1171,-66.1500,-22.8000,4.9500,6.3159,0.6991,1.7478,0.9318,0.1748,-0.5633,-87.3000,13.9500,-6.1500,-4.0500,-0.6900,-6.9600,0.9283,4.2870,-2.3540,24.0625,-19.1875,28.3750,246.0625,-49.5000,158.3750,0
1776974082.684,7.7261,-5.3247,4.0414,0.0906,-2.8272,-3.1171,-67.5000,-21.0000,5.1000,6.2010,0.7230,1.2282,1.0331,0.2593,-0.4058,-87.3000,13.9500,-6.1500,-4.0500,-0.6900,-6.9600,0.9283,4.2870,-2.3540,24.0625,-19.1875,28.3750,249.7500,-46.9375,157.7500,0
1776974082.693,7.0701,-4.6280,4.0414,0.0687,-3.0108,-3.2253,-67.5000,-19.0500,3.6000,6.3853,0.5578,0.7853,1.1977,0.3293,-0.2473,-87.6000,13.9500,-6.9000,-5.9700,-2.2200,-8.2300,1.0865,4.2193,-1.8010,24.0625,-19.1875,28.3750,249.7500,-46.9375,157.7500,0
1776974082.703,6.9001,-4.2234,3.9792,-0.0895,-3.0803,-3.2546,-69.4500,-18.0000,1.3500,6.7157,0.0599,0.2873,1.3241,0.3848,-0.1503,-87.1500,15.0000,-6.3000,-6.9200,-2.8200,-8.7100,1.1301,4.1779,-1.2555,24.0625,-19.1875,28.3750,253.5000,-44.5625,157.3750,0
1776974082.708,7.4747,-4.0677,3.7230,-0.3760,-2.9902,-3.3180,-69.4500,-18.0000,1.3500,6.7157,0.0599,0.2873,1.3241,0.3848,-0.1503,-88.5000,14.2500,-6.7500,-6.9200,-2.8200,-8.7100,1.1301,4.1779,-1.2555,24.0625,-19.1875,28.3750,257.1875,-42.2500,157.1875,0
1776974082.713,7.4747,-4.0677,3.7230,-0.3760,-2.9902,-3.3180,-69.4500,-18.0000,1.3500,6.9456,-0.3543,-0.2514,1.3363,0.4157,-0.0933,-88.5000,14.2500,-6.7500,-7.5400,-2.9200,-9.2100,1.0832,4.2030,-0.8105,30.2500,-18.0625,34.2500,257.1875,-42.2500,157.1875,0
1776974082.718,8.2217,-3.9265,3.8020,-0.5977,-2.9154,-3.3795,-69.4500,-18.0000,1.3500,6.9456,-0.3543,-0.2514,1.3363,0.4157,-0.0933,-87.9000,14.2500,-5.7000,-7.5400,-2.9200,-9.2100,1.0832,4.2030,-0.8105,30.2500,-18.0625,34.2500,260.9375,-39.9375,157.1875,0
1776974082.723,8.2217,-3.9265,3.8020,-0.5977,-2.9154,-3.3795,-69.1500,-16.2000,0.9000,7.2808,-0.6153,-0.8835,1.3267,0.3320,-0.0424,-87.9000,14.2500,-5.7000,-8.6400,-2.7900,-10.2300,1.0570,4.2444,-0.4865,30.2500,-18.0625,34.2500,260.9375,-39.9375,157.1875,0
1776974082.729,9.1818,-4.4915,4.1922,-0.7973,-2.8914,-3.4312,-69.1500,-16.2000,0.9000,7.2808,-0.6153,-0.8835,1.3267,0.3320,-0.0424,-87.9000,14.2500,-5.7000,-8.6400,-2.7900,-10.2300,1.1399,4.3033,-0.3294,30.2500,-18.0625,34.2500,211.8750,-37.6875,157.1875,0
1776974082.734,10.1778,-4.5729,4.1372,-0.7973,-2.8914,-3.4312,-69.1500,-16.2000,0.9000,7.3694,-1.0367,-0.9553,1.2028,0.2939,0.0434,-87.1500,13.5000,-6.7500,-8.7100,-3.2500,-10.4100,1.1399,4.3033,-0.3294,30.2500,-18.0625,34.2500,212.3750,-35.3750,157.0000,0
1776974082.744,10.1778,-4.5729,4.1372,-1.0190,-2.8975,-3.4739,-70.9500,-12.0000,-1.8000,7.6375,-1.0534,-1.1827,1.0805,0.2172,0.1308,-87.1500,13.5000,-6.7500,-8.7200,-3.8300,-10.4200,1.3112,4.3350,-0.3207,30.2500,-18.0625,34.2500,212.3750,-35.3750,157.0000,0
1776974082.753,11.3246,-3.1675,3.1651,-1.2428,-2.9087,-3.5144,-71.8500,-11.1000,-3.7500,7.7045,-1.0463,-0.9481,0.9086,0.0035,0.1988,-87.4500,15.3000,-5.7000,-9.2700,-5.1000,-10.6400,1.4726,4.3077,-0.3567,30.2500,-18.0625,34.2500,212.8750,-33.1250,156.7500,0
1776974082.758,11.3246,-3.1675,3.1651,-1.3006,-2.8762,-3.5354,-71.8500,-11.1000,-3.7500,7.7045,-1.0463,-0.9481,0.9086,0.0035,0.1988,-88.8000,14.4000,-5.8500,-9.2700,-5.1000,-10.6400,1.4726,4.3077,-0.3567,30.2500,-18.0625,34.2500,213.3125,-30.8750,156.3125,0
1776974082.763,10.4387,-2.8467,2.5331,-1.3006,-2.8762,-3.5354,-72.0000,-8.5500,-4.3500,7.5417,-0.9481,-0.7159,0.6390,-0.1439,0.2433,-87.9000,14.2500,-5.7000,-9.9100,-5.4200,-10.9100,1.5762,4.2172,-0.4178,35.0625,-6.5000,55.0000,213.3125,-30.8750,156.3125,0
1776974082.768,10.4387,-2.8467,2.5331,-1.2481,-2.6843,-3.5426,-72.0000,-8.5500,-4.3500,7.5417,-0.9481,-0.7159,0.6390,-0.1439,0.2433,-87.9000,14.2500,-5.7000,-9.9100,-5.4200,-10.9100,1.5762,4.2172,-0.4178,35.0625,-6.5000,55.0000,213.7500,-28.6875,155.7500,0
1776974082.773,11.2623,-1.1875,2.0806,-0.8383,-2.6771,-3.4939,-71.5500,-6.7500,-6.0000,7.4508,-0.3711,-0.5555,0.3120,-0.2702,0.2601,-87.9000,14.2500,-5.7000,-9.9900,-5.4700,-11.0000,1.6406,4.1124,-0.5258,35.0625,-6.5000,55.0000,213.7500,-28.6875,155.7500,0
1776974082.780,11.2623,-1.1875,2.0806,-0.8383,-2.6771,-3.4939,-71.5500,-6.7500,-6.0000,7.4077,0.5100,-0.5339,-0.0250,-0.3635,0.2489,-87.9000,14.2500,-5.7000,-11.5000,-6.0600,-11.8400,1.6624,3.9412,-0.7156,35.0625,-6.5000,55.0000,214.0625,-26.5000,155.1250,0
1776974082.785,10.2687,-1.0080,1.6783,-0.4738,-2.4952,-3.3694,-71.5500,-6.7500,-6.0000,7.4077,0.5100,-0.5339,-0.0250,-0.3635,0.2489,-87.9000,14.2500,-6.7500,-11.5000,-6.0600,-11.8400,1.6624,3.9412,-0.7156,35.0625,-6.5000,55.0000,214.1250,-24.4375,154.3750,0
1776974082.794,10.9726,0.0670,1.6759,-0.2265,-2.4714,-3.1869,-72.3000,-3.6000,-6.7500,7.5369,1.5874,-0.5555,-0.4927,-0.3858,0.2220,-88.2000,12.7500,-7.0500,-11.4800,-6.2700,-11.6800,1.6690,3.7110,-0.9567,35.0625,-6.5000,55.0000,214.0625,-22.2500,153.5625,0
1776974082.804,10.7093,0.0000,1.4150,-0.0618,-2.3481,-2.9974,-72.3000,-3.6000,-6.7500,7.7788,2.5307,-0.8428,-0.9779,-0.1948,0.2206,-88.0500,13.6500,-5.4000,-11.7000,-6.2600,-11.6800,1.6766,3.7099,-1.3188,35.0625,-6.5000,55.0000,214.0625,-22.2500,153.5625,0
1776974082.809,10.7093,0.0000,1.4150,-0.0618,-2.3481,-2.9974,-72.3000,-3.6000,-6.7500,8.6886,3.4046,-1.2186,-1.2769,-0.0879,0.2132,-88.0500,13.6500,-5.4000,-11.7000,-6.2600,-11.6800,1.6766,3.7099,-1.3188,35.0625,-6.5000,55.0000,214.0625,-22.2500,153.5625,0
1776974082.814,10.9702,-0.2131,1.4413,0.0826,-2.2540,-2.8213,-72.6000,0.1500,-9.3000,8.6886,3.4046,-1.2186,-1.2769,-0.0879,0.2132,-86.7000,13.5000,-5.2500,-11.5000,-5.9800,-11.4700,1.5610,3.5397,-1.7322,11.6875,11.1875,60.6875,213.7500,-20.0625,152.6875,0
1776974082.819,10.9702,-0.2131,1.4413,0.0826,-2.2540,-2.8213,-72.6000,0.1500,-9.3000,10.0317,4.7501,-2.1524,-1.4735,-0.1447,0.1988,-86.7000,13.5000,-5.2500,-11.5000,-5.9800,-11.4700,1.5610,3.5397,-1.7322,11.6875,11.1875,60.6875,213.7500,-20.0625,152.6875,0
1776974082.824,11.3270,0.6369,-0.1724,0.1772,-2.1016,-2.6518,-71.1000,1.6500,-9.0000,10.0317,4.7501,-2.1524,-1.4735,-0.1447,0.1988,-87.1500,12.0000,-7.8000,-10.3800,-5.1100,-10.7500,1.3952,3.4121,-2.1642,11.6875,11.1875,60.6875,213.1250,-17.8750,151.8750,0
1776974082.829,11.3270,0.6369,-0.1724,0.1772,-2.1016,-2.6518,-71.1000,1.6500,-9.0000,8.2528,5.6240,-1.0582,-1.7243,-0.1282,0.1972,-87.1500,12.0000,-7.8000,-10.3800,-5.1100,-10.7500,1.1399,3.1852,-2.5264,11.6875,11.1875,60.6875,212.2500,-15.6250,151.1250,0
1776974082.834,11.1139,-0.0694,1.0032,0.3016,-2.1061,-2.4810,-72.0000,1.5000,-11.8500,8.2528,5.6240,-1.0582,-1.7243,-0.1282,0.1972,-87.1500,12.0000,-7.8000,-10.1800,-4.6000,-10.5800,1.1399,3.1852,-2.5264,11.6875,11.1875,60.6875,211.1875,-13.4375,150.5000,0
1776974082.844,10.7691,-0.2753,1.0343,0.3848,-2.1098,-2.3334,-71.7000,4.2000,-11.4000,9.7372,7.0437,-1.8866,-1.4951,-0.0304,0.1657,-85.9500,15.0000,-6.3000,-10.0700,-4.1400,-10.3500,0.8879,2.9376,-2.7783,11.6875,11.1875,60.6875,210.0625,-11.3750,149.9375,0
1776974082.854,10.3621,-0.0646,0.2514,0.5249,-2.1197,-2.1669,-71.1000,6.0000,-12.3000,9.1004,8.0254,-2.7701,-1.5537,0.1308,0.2220,-85.5000,14.7000,-5.4000,-10.1000,-3.0800,-9.3700,0.6861,2.7183,-2.9049,11.6875,11.1875,60.6875,210.0625,-11.3750,149.9375,0
1776974082.859,10.3621,-0.0646,0.2514,0.5249,-2.1197,-2.1669,-71.1000,6.0000,-12.3000,8.9759,8.9974,-3.1340,-1.2388,0.1852,0.2614,-85.5000,14.7000,-5.4000,-10.1000,-3.0800,-9.3700,0.6861,2.7183,-2.9049,11.6875,11.1875,60.6875,208.8125,-9.3125,149.5625,0
1776974082.864,9.6534,-0.6704,-0.3855,0.4754,-1.9486,-2.0646,-72.4500,4.9500,-13.2000,8.9759,8.9974,-3.1340,-1.2388,0.1852,0.2614,-84.9000,14.2500,-6.0000,-10.1400,-3.2000,-8.2800,0.5345,2.5231,-2.9082,-0.2500,10.1875,50.7500,208.8125,-9.3125,149.5625,0
1776974082.869,9.2680,-0.3208,0.1652,0.4754,-1.9486,-2.0646,-72.4500,4.9500,-13.2000,9.3326,9.1530,-3.2417,-0.8799,0.1841,0.3160,-84.9000,14.2500,-6.0000,-10.1400,-3.2000,-8.2800,0.5345,2.5231,-2.9082,-0.2500,10.1875,50.7500,207.6250,-7.4375,149.1875,0
1776974082.874,9.2680,-0.3208,0.1652,0.4842,-1.8167,-1.9582,-72.4500,4.9500,-13.2000,9.3326,9.1530,-3.2417,-0.8799,0.1841,0.3160,-85.0500,14.4000,-5.1000,-10.0300,-3.2200,-7.3800,0.4123,2.3453,-2.7980,-0.2500,10.1875,50.7500,207.6250,-7.4375,149.1875,0
1776974082.882,8.5952,0.1149,-0.0886,0.1394,-1.5633,-1.8226,-72.4500,4.9500,-13.2000,8.2648,8.8945,-3.1939,-0.4620,0.2974,0.4173,-85.0500,14.4000,-5.1000,-9.9900,-1.9600,-6.9900,0.2803,2.1522,-2.5624,-0.2500,10.1875,50.7500,206.5625,-5.6875,149.0000,0
1776974082.887,8.5952,0.1149,-0.0886,0.1394,-1.5633,-1.8226,-70.0500,7.9500,-13.8000,8.9687,8.9902,-3.8188,0.1721,0.3328,0.5407,-85.0500,14.4000,-5.1000,-9.9900,-1.9600,-6.9900,0.2803,2.1522,-2.5624,-0.2500,10.1875,50.7500,205.5625,-4.1250,148.8125,0
1776974082.894,8.8945,-0.4860,-0.8475,-0.1466,-1.3025,-1.6808,-69.6000,8.7000,-16.3500,8.9687,8.9902,-3.8188,0.1721,0.3328,0.5407,-84.0000,15.1500,-6.1500,-11.4000,-0.2600,-6.5100,0.2498,1.8882,-2.2864,-0.2500,10.1875,50.7500,204.7500,-2.7500,148.5625,0
1776974082.904,8.7245,-0.9744,-0.8356,-0.1823,-1.0501,-1.4677,-70.5000,9.3000,-16.2000,8.9711,9.1219,-4.2114,0.8735,0.2345,0.6374,-85.3500,15.0000,-5.7000,-12.8700,-0.1200,-6.1800,0.4112,1.5981,-2.0191,-0.2500,10.1875,50.7500,204.7500,-2.7500,148.5625,0
1776974082.909,8.2408,-0.6704,-0.7518,-0.2278,-0.8143,-1.1996,-70.5000,9.3000,-16.2000,8.4348,8.8753,-3.8259,1.4693,0.1988,0.6475,-85.3500,15.0000,-5.7000,-12.8700,-0.1200,-6.1800,0.4112,1.5981,-2.0191,-0.2500,10.1875,50.7500,204.0000,-1.6250,148.1875,0
1776974082.914,8.2408,-0.6704,-0.7518,-0.2278,-0.8143,-1.1996,-68.7000,10.5000,-18.0000,8.4348,8.8753,-3.8259,1.4693,0.1988,0.6475,-84.0000,15.1500,-7.2000,-14.0000,0.1400,-5.6300,0.6414,1.4039,-1.7519,1.0000,11.0000,54.1875,204.0000,-1.6250,148.1875,0
1776974082.919,7.3909,-0.0048,-0.3472,-0.3984,-0.5428,-0.9161,-68.7000,10.5000,-18.0000,9.2584,8.1307,-3.6751,1.8610,-0.0131,0.6331,-84.0000,15.1500,-7.2000,-14.0000,0.1400,-5.6300,0.6414,1.4039,-1.7519,1.0000,11.0000,54.1875,203.3750,-0.5625,147.6875,0
1776974082.924,7.3909,-0.0048,-0.3472,-0.3984,-0.5428,-0.9161,-68.8500,10.6500,-16.8000,9.2584,8.1307,-3.6751,1.9460,0.2380,0.6078,-86.2500,13.9500,-5.8500,-14.4900,1.6900,-3.7500,0.8258,1.3559,-1.4628,1.0000,11.0000,54.1875,203.3750,-0.5625,147.6875,0
1776974082.929,7.2089,0.7901,-0.6823,-0.5340,-0.2475,-0.5820,-68.8500,10.6500,-16.8000,8.8490,7.5729,-3.2561,1.9460,0.2380,0.6078,-86.2500,13.9500,-5.8500,-14.4900,1.6900,-3.7500,0.9523,1.3286,-1.1236,1.0000,11.0000,54.1875,203.0000,0.3750,147.1875,0
1776974082.935,7.2089,0.7901,-0.6823,-0.5340,-0.2475,-0.5820,-69.4500,11.2500,-16.9500,8.8681,6.8929,-2.8347,2.0971,0.3230,0.5438,-88.5000,14.5500,-5.7000,-14.4200,2.8600,-2.7900,0.9523,1.3286,-1.1236,1.0000,11.0000,54.1875,202.7500,1.1250,146.5625,0
1776974082.944,7.1922,1.2306,-0.3783,-0.5796,0.0909,-0.2438,-69.4500,11.2500,-16.9500,9.1913,5.7700,-2.3535,2.1442,0.3714,0.5076,-88.5000,14.5500,-5.7000,-14.1300,3.4600,-1.8300,1.0843,1.2152,-0.7450,1.0000,11.0000,54.1875,202.6875,1.6875,145.9375,0
1776974082.954,7.4747,1.5275,0.3783,-0.4266,0.3861,0.0986,-68.4000,11.1000,-16.8000,9.0884,4.7788,-1.8771,2.0813,0.4346,0.4871,-86.7000,14.2500,-7.3500,-13.3500,2.3800,-0.9900,1.1977,0.9632,-0.3785,1.0000,11.0000,54.1875,202.6875,1.6875,145.9375,0
1776974082.959,7.6303,1.5850,1.1827,-0.1263,0.5633,0.4365,-68.4000,11.1000,-16.8000,9.0884,4.7788,-1.8771,2.0813,0.4346,0.4871,-86.7000,14.2500,-7.3500,-13.3500,2.3800,-0.9900,1.1977,0.9632,-0.3785,1.0000,11.0000,54.1875,202.6875,1.6875,145.9375,0
1776974082.964,7.6303,1.5850,1.1827,-0.1263,0.5633,0.4365,-68.4000,11.1000,-16.8000,8.7077,3.9193,-1.2450,1.7866,0.4197,0.4546,-87.0000,13.6500,-6.1500,-13.1800,1.0100,-1.1300,1.1846,0.5629,-0.0404,-4.2500,17.3750,56.1875,202.7500,2.0000,145.2500,0
1776974082.969,7.5920,1.5179,1.6712,0.2153,0.6246,0.7418,-68.4000,11.1000,-16.8000,8.7077,3.9193,-1.2450,1.7866,0.4197,0.4546,-87.0000,13.6500,-6.1500,-13.1800,1.0100,-1.1300,1.1846,0.5629,-0.0404,-4.2500,17.3750,56.1875,202.7500,2.0000,145.2500,0
1776974082.974,7.5920,1.5179,1.6712,0.2153,0.6246,0.7418,-69.7500,10.9500,-15.4500,8.1092,2.9760,-0.7350,1.3638,0.4530,0.4199,-88.8000,12.4500,-7.2000,-12.9600,-0.3200,-1.4400,0.9665,0.0654,0.2618,-4.2500,17.3750,56.1875,202.9375,1.9375,144.6875,0
1776974082.980,7.7069,1.9369,3.3136,0.4836,0.9124,0.9124,-69.7500,10.9500,-15.4500,8.1092,2.9760,-0.7350,1.3638,0.4530,0.4199,-88.0500,12.9000,-5.4000,-5.7800,-6.8200,-7.4500,0.5465,-0.4080,0.5083,-4.2500,17.3750,56.1875,203.1250,1.5625,144.3750,0
1776974082.985,9.2273,2.8228,1.0008,0.5116,1.1072,0.9939,-71.2500,11.2500,-15.9000,8.0182,2.0399,-0.1173,0.8961,0.5987,0.4245,-88.0500,12.9000,-5.4000,-5.7800,-6.8200,-7.4500,0.5465,-0.4080,0.5083,-4.2500,17.3750,56.1875,203.2500,0.7500,144.8750,0
1776974082.994,10.1873,2.8994,0.4525,0.5116,1.1072,0.9939,-70.9500,10.0500,-15.9000,8.1977,0.9984,0.7063,0.2393,0.7576,0.5036,-88.0500,12.9000,-5.4000,-0.5900,-0.8000,-7.9200,-0.8868,-1.3919,0.7134,-4.2500,17.3750,56.1875,203.7500,-0.8750,146.0000,0
1776974083.004,11.3725,4.2306,-0.6105,0.1066,0.9001,0.3925,-71.5500,9.4500,-14.2500,8.7915,0.2753,1.1588,-0.3941,1.0344,0.6670,-87.9000,11.2500,-4.2000,-3.5400,-8.1500,-11.6300,-2.0333,-2.5809,1.6068,-4.2500,17.3750,56.1875,203.7500,-0.8750,146.0000,0
1776974083.009,11.3725,4.2306,-0.6105,0.1066,0.9001,0.3925,-71.5500,9.4500,-14.2500,8.7915,0.2753,1.1588,-0.3941,1.0344,0.6670,-87.9000,11.2500,-4.2000,-3.5400,-8.1500,-11.6300,-2.0333,-2.5809,1.6068,-4.2500,17.3750,56.1875,204.0000,-2.1875,147.1875,0
1776974083.014,12.3852,3.7828,-3.9792,-0.2864,0.3285,0.0069,-71.5500,9.4500,-14.2500,9.1291,0.0407,1.2043,-0.8234,0.9427,0.7376,-88.2000,10.0500,-4.9500,-1.4500,-16.0100,-9.7000,-2.1293,-1.9995,1.1596,-7.0000,23.5000,55.2500,204.0000,-2.1875,147.1875,0
1776974083.019,12.3852,3.7828,-3.9792,-0.2864,0.3285,0.0069,-71.5500,9.4500,-14.2500,9.1291,0.0407,1.2043,-0.8234,0.9427,0.7376,-88.2000,10.0500,-4.9500,-1.4500,-16.0100,-9.7000,-2.1293,-1.9995,1.1596,-7.0000,23.5000,55.2500,204.3125,-3.3750,148.2500,0
1776974083.024,10.1849,1.9106,-1.3862,0.4037,0.0685,-0.0882,-70.2000,9.4500,-14.2500,8.8083,0.3376,0.6464,-1.1159,0.7320,0.7394,-88.0500,9.1500,-4.8000,-0.6200,-7.1300,-4.7800,-1.8708,-1.8850,1.1454,-7.0000,23.5000,55.2500,204.3125,-3.3750,148.2500,0
1776974083.029,10.1849,1.9106,-1.3862,0.4037,0.0685,-0.0882,-70.2000,8.5500,-12.9000,8.8083,0.3376,0.6464,-1.1159,0.7320,0.7394,-85.8000,10.6500,-4.8000,-0.6200,-7.1300,-4.7800,-2.1009,-1.8544,1.6886,-7.0000,23.5000,55.2500,204.9375,-4.7500,149.4375,0
1776974083.035,8.7412,-0.4190,-2.6336,0.8777,0.0727,0.1260,-70.2000,8.5500,-12.9000,8.7484,1.1181,-0.5674,-0.9992,0.6662,0.7639,-85.8000,10.6500,-4.8000,-2.0300,-2.3700,-5.5500,-2.1009,-1.8544,1.6886,-7.0000,23.5000,55.2500,205.5625,-6.2500,150.7500,0
1776974083.044,9.9742,-0.1341,-5.8682,0.3000,0.4493,0.3142,-70.5000,8.5500,-12.9000,10.0628,2.0207,-1.8818,-0.4461,0.7626,0.9457,-86.7000,9.0000,-5.2500,-2.0500,-0.5000,-6.9400,-2.3278,-2.0649,1.8053,-7.0000,23.5000,55.2500,205.5625,-6.2500,150.7500,0
1776974083.054,12.2679,1.2354,-5.5569,-0.1015,0.7482,0.3560,-70.5000,8.5500,-12.9000,11.8417,2.2458,-3.3232,0.2952,0.9777,1.1850,-86.7000,9.0000,-5.2500,-1.0300,-2.6300,-9.2700,-1.9799,-2.2449,1.1945,-7.0000,23.5000,55.2500,205.8125,-7.6875,151.8125,0
1776974083.059,12.2679,1.2354,-5.5569,-0.1015,0.7482,0.3560,-72.0000,7.8000,-13.6500,11.8417,2.2458,-3.3232,0.2952,0.9777,1.1850,-85.0500,6.1500,-4.3500,-1.0300,-2.6300,-9.2700,-1.9799,-2.2449,1.1945,-7.0000,23.5000,55.2500,205.8125,-7.6875,151.8125,0
1776974083.064,14.4873,0.9002,-6.2680,-0.0925,0.6835,0.4242,-72.0000,7.8000,-13.6500,14.9638,1.5538,-4.9081,1.3126,0.5939,1.3845,-85.0500,6.1500,-4.3500,-2.2400,1.5100,-11.5000,-1.1857,-2.5831,0.3960,-1.1875,19.8750,57.5625,205.6250,-9.0625,152.4375,0
1776974083.069,14.4873,0.9002,-6.2680,-0.0925,0.6835,0.4242,-72.4500,6.6000,-12.9000,14.9638,1.5538,-4.9081,2.1829,0.1532,1.5034,-85.9500,7.8000,-4.9500,-2.2400,1.5100,-11.5000,-1.1857,-2.5831,0.3960,-1.1875,19.8750,57.5625,205.6250,-9.0625,152.4375,0
1776974083.074,14.9183,-0.9361,-4.7070,0.1639,0.5407,0.5388,-72.4500,6.6000,-12.9000,16.5272,0.7446,-4.9728,2.1829,0.1532,1.5034,-85.9500,7.8000,-4.9500,-5.3300,7.1600,-14.8500,-0.6556,-3.0161,0.2236,-1.1875,19.8750,57.5625,205.3125,-10.5625,152.6875,0
1776974083.082,13.3309,-1.3958,0.5483,0.0322,0.8154,0.6566,-73.2000,5.8500,-12.1500,17.5830,0.7230,-4.1013,2.5969,0.1881,1.4053,-85.9500,5.5500,-6.0000,-9.3100,6.6200,-16.2800,-0.2454,-3.2834,0.7014,-1.1875,19.8750,57.5625,205.2500,-12.3750,152.6875,0
1776974083.087,13.3309,-1.3958,0.5483,0.0322,0.8154,0.6566,-71.8500,7.9500,-12.3000,17.5830,0.7230,-4.1013,2.5969,0.1881,1.4053,-85.9500,5.5500,-6.0000,-9.3100,6.6200,-16.2800,-0.2454,-3.2834,0.7014,-1.1875,19.8750,57.5625,205.5625,-14.2500,152.6875,0
1776974083.095,12.4163,0.4046,4.0606,-0.1468,1.2716,0.7064,-71.8500,7.9500,-12.3000,17.7003,1.3024,-2.5690,2.5703,0.2705,1.1463,-84.4500,4.2000,-5.4000,-18.6700,-14.8000,-13.9400,-0.0273,-3.1427,1.2937,-1.1875,19.8750,57.5625,206.1250,-16.0000,152.8750,0
1776974083.104,13.2687,2.4948,2.3511,0.1362,1.1431,0.7381,-71.5500,6.7500,-10.8000,13.9606,1.3910,-1.4461,1.8871,1.4930,0.7666,-84.4500,4.2000,-5.4000,-10.0000,-11.9900,-7.5900,-0.2738,-2.6191,1.6984,-1.1875,19.8750,57.5625,206.1250,-16.0000,152.8750,0
1776974083.109,13.5320,2.2386,0.0407,0.1362,1.1431,0.7381,-71.5500,6.7500,-10.8000,11.2695,2.0063,-1.7789,1.2684,1.3888,0.3152,-84.4500,4.9500,-6.4500,-10.0000,-11.9900,-7.5900,-0.2738,-2.6191,1.6984,-1.1875,19.8750,57.5625,206.1250,-16.0000,152.8750,0
1776974083.114,13.5320,2.2386,0.0407,0.6411,0.6880,0.7474,-71.5500,6.7500,-10.8000,11.2695,2.0063,-1.7789,1.2684,1.3888,0.3152,-84.4500,4.9500,-6.4500,-4.7900,-1.8100,-9.4900,-0.6807,-1.0690,0.9196,4.7500,18.0000,58.3750,206.4375,-16.7500,153.3125,0
1776974083.119,10.9678,3.1580,3.7828,0.6411,0.6880,0.7474,-73.9500,6.6000,-11.1000,5.6575,1.1157,1.2378,0.0592,1.0352,-0.0016,-82.5000,5.4000,-5.8500,-4.7900,-1.8100,-9.4900,-0.6807,-1.0690,0.9196,4.7500,18.0000,58.3750,206.4375,-16.7500,153.3125,0
1776974083.124,10.9678,3.1580,3.7828,0.9790,0.3211,0.6518,-73.9500,6.6000,-11.1000,5.6575,1.1157,1.2378,0.0592,1.0352,-0.0016,-82.5000,5.4000,-5.8500,-5.6700,-1.3500,-10.0100,-0.6807,-1.0690,0.9196,4.7500,18.0000,58.3750,206.7500,-17.5000,153.7500,0
1776974083.131,8.4874,3.7110,1.9225,0.8977,-0.2244,0.5724,-74.1000,5.5500,-10.5000,6.8187,-0.8188,2.6983,-1.4719,0.7445,-0.1050,-83.2500,5.4000,-5.4000,-3.9700,-5.2100,-8.3600,-0.4047,-0.7865,0.6905,4.7500,18.0000,58.3750,207.0000,-18.0625,154.0000,0
1776974083.135,8.4874,3.7110,1.9225,0.8977,-0.2244,0.5724,-72.6000,3.3000,-10.8000,6.8187,-0.8188,2.6983,-1.4719,0.7445,-0.1050,-83.2500,5.4000,-5.4000,-3.9700,-5.2100,-8.3600,-0.4047,-0.7865,0.6905,4.7500,18.0000,58.3750,207.1875,-18.5000,154.1875,0
1776974083.144,6.8833,2.0566,2.1907,0.6259,0.1151,0.6017,-72.6000,3.3000,-10.8000,6.5841,-2.7845,4.4388,-2.6905,0.9697,-0.1045,-81.6000,5.2500,-4.2000,-5.0600,-5.2700,-8.5900,-0.2531,-0.6283,0.4767,4.7500,18.0000,58.3750,207.1875,-18.5000,154.1875,0
1776974083.154,6.7469,0.2179,1.5778,0.4093,0.6534,0.7021,-72.3000,5.5500,-10.0500,8.4372,-3.8427,4.2784,-2.9420,0.6070,-0.1623,-81.6000,5.2500,-4.2000,-4.2200,-4.0800,-8.3200,-0.2269,-0.4396,0.2989,4.7500,18.0000,58.3750,207.2500,-18.7500,154.3125,0
1776974083.159,8.7029,-0.9146,1.0247,-0.1130,0.8695,0.7091,-72.6000,3.3000,-9.3000,6.3686,-4.6376,3.6871,-2.8527,-0.3645,-0.0266,-81.6000,5.2500,-4.2000,-4.2200,-4.0800,-8.3200,-0.2269,-0.4396,0.2989,4.7500,18.0000,58.3750,207.3750,-19.0000,154.5000,0
1776974083.164,8.7029,-0.9146,1.0247,-0.1130,0.8695,0.7091,-72.6000,3.3000,-9.3000,6.3686,-4.6376,3.6871,-2.8527,-0.3645,-0.0266,-81.6000,5.2500,-4.2000,-3.7800,-4.6000,-7.9400,-0.2443,-0.3338,0.2662,11.8750,16.8750,57.0625,207.3750,-19.0000,154.5000,0
1776974083.169,10.2903,-1.2737,-0.2993,-0.4423,0.6869,0.5684,-74.1000,4.8000,-9.3000,5.8802,-3.7134,4.2425,-2.4901,0.3597,0.3693,-85.3500,5.5500,-3.1500,-3.7800,-4.6000,-7.9400,-0.2443,-0.3338,0.2662,11.8750,16.8750,57.0625,207.4375,-19.2500,154.6875,0
1776974083.174,10.2903,-1.2737,-0.2993,-0.4423,0.6869,0.5684,-74.1000,4.8000,-9.3000,5.8802,-3.7134,4.2425,-2.4901,0.3597,0.3693,-85.3500,5.5500,-3.1500,-3.8800,-3.9900,-8.1900,-0.2847,-0.2967,0.2673,11.8750,16.8750,57.0625,207.4375,-19.2500,154.6875,0
1776974083.181,10.3142,-0.3041,-1.3024,-0.6456,0.6550,0.4557,-74.1000,4.8000,-9.3000,8.4396,-1.9896,3.5865,-2.0486,0.3581,0.7642,-86.5500,4.2000,-3.0000,-4.0400,-3.5600,-8.4100,-0.2738,-0.2629,0.2607,11.8750,16.8750,57.0625,207.5625,-19.4375,154.8750,0
1776974083.186,9.8282,0.6919,-1.2450,-0.6456,0.6550,0.4557,-75.1500,2.2500,-9.3000,8.7987,-0.4286,3.1627,-1.8426,0.0469,1.0821,-86.5500,4.2000,-3.0000,-4.0400,-3.5600,-8.4100,-0.2738,-0.2629,0.2607,11.8750,16.8750,57.0625,207.6250,-19.5625,155.0000,0
1776974083.195,9.8282,0.6919,-1.2450,-0.7477,0.6235,0.3789,-75.1500,2.2500,-8.8500,8.7987,-0.4286,3.1627,-1.4027,0.2374,1.0682,-85.8000,1.6500,-2.2500,-3.7400,-3.6400,-8.2600,-0.2302,-0.2323,0.2553,11.8750,16.8750,57.0625,207.6875,-19.7500,155.1250,0
1776974083.205,9.3685,1.5036,-0.8811,-0.9329,0.5662,0.3307,-74.7000,3.0000,-8.4000,10.6710,2.8347,-0.5243,-0.8194,0.0250,0.9340,-84.9000,1.5000,-1.3500,-3.5700,-3.4800,-8.2900,-0.2116,-0.2498,0.2531,11.8750,16.8750,57.0625,207.6875,-19.7500,155.1250,0
1776974083.209,9.2081,2.1668,-0.3496,-1.0000,0.5830,0.3325,-73.8000,3.6000,-7.9500,10.6710,2.8347,-0.5243,-0.8194,0.0250,0.9340,-84.9000,1.5000,-1.3500,-3.5700,-3.4800,-8.2900,-0.2116,-0.2498,0.2531,11.8750,16.8750,57.0625,207.6875,-19.7500,155.1250,0
1776974083.215,9.1578,2.8323,-0.1125,-1.0000,0.5830,0.3325,-73.8000,3.6000,-7.9500,10.4172,4.4149,-0.9098,0.0226,0.2318,0.7216,-84.9000,1.5000,-1.3500,-3.6200,-3.3900,-8.2900,-0.2127,-0.2956,0.2585,12.1875,16.5000,57.5000,207.8125,-20.0000,155.3125,0
1776974083.219,9.1578,2.8323,-0.1125,-0.9116,0.6153,0.4088,-74.4000,2.7000,-7.6500,10.4172,4.4149,-0.9098,0.0226,0.2318,0.7216,-85.0500,-0.1500,-3.0000,-3.6200,-3.3900,-8.2900,-0.2127,-0.2956,0.2585,12.1875,16.5000,57.5000,207.8125,-20.0000,155.3125,0
1776974083.224,9.2847,3.6152,0.0599,-0.9116,0.6153,0.4088,-74.4000,2.7000,-7.6500,10.3477,5.5091,-1.0965,0.6456,0.5223,0.5073,-85.0500,-0.1500,-3.0000,-4.4200,-3.4300,-8.5400,-0.2116,-0.3120,0.2443,12.1875,16.5000,57.5000,207.8750,-20.1875,155.4375,0
1776974083.233,9.2847,3.6152,0.0599,-0.6550,0.6475,0.5287,-73.9500,3.4500,-5.8500,10.3477,5.5091,-1.0965,0.6456,0.5223,0.5073,-85.6500,-0.3000,-4.2000,-4.3400,-3.2700,-8.5300,-0.2083,-0.2662,0.2105,12.1875,16.5000,57.5000,207.9375,-20.3750,155.5625,0
1776974083.238,9.6654,4.2114,0.3663,-0.2595,0.6291,0.6046,-75.3000,3.6000,-7.9500,9.9479,5.4061,-0.4142,0.9265,0.5625,0.3635,-84.9000,-3.7500,-3.4500,-4.3400,-3.2700,-8.5300,-0.2083,-0.2662,0.2105,12.1875,16.5000,57.5000,208.0000,-20.5625,155.6875,0
1776974083.245,9.9479,4.1659,0.2418,0.2481,0.5497,0.6177,-75.3000,3.6000,-7.9500,9.6582,4.8363,0.4310,0.9603,0.5593,0.3088,-82.9500,-1.9500,-1.9500,-4.3300,-3.4700,-8.5600,-0.1920,-0.2356,0.1724,12.1875,16.5000,57.5000,208.0000,-20.6875,155.8125,0
1776974083.255,9.7061,3.3806,0.2682,0.6736,0.4303,0.5897,-75.3000,3.6000,-7.9500,9.0237,3.9073,1.2761,0.7797,0.5958,0.3174,-82.9500,-1.9500,-1.9500,-4.4400,-3.4900,-8.5100,-0.1887,-0.2171,0.1407,12.1875,16.5000,57.5000,208.0000,-20.6875,155.8125,0
1776974083.260,9.7061,3.3806,0.2682,0.6736,0.4303,0.5897,-75.9000,1.9500,-5.8500,9.0237,3.9073,1.2761,0.7797,0.5958,0.3174,-82.9500,-1.9500,-1.9500,-4.4400,-3.4900,-8.5100,-0.1887,-0.2171,0.1407,13.0000,16.1875,57.0000,208.0625,-20.8125,155.8750,0
1776974083.265,9.3901,2.1787,0.4693,0.8980,0.3520,0.5529,-75.9000,1.9500,-5.8500,8.6838,2.6552,1.5969,0.5002,0.6707,0.3640,-82.9500,-1.9500,-1.9500,-4.2500,-3.5900,-8.4300,-0.1822,-0.1974,0.1091,13.0000,16.1875,57.0000,208.0625,-20.8125,155.8750,0
1776974083.270,9.3901,2.1787,0.4693,0.8980,0.3520,0.5529,-75.9000,1.9500,-5.8500,8.6838,2.6552,1.5969,0.5002,0.6707,0.3640,-82.9500,-1.9500,-1.9500,-4.2500,-3.5900,-8.4300,-0.1822,-0.1974,0.1091,13.0000,16.1875,57.0000,208.0625,-20.8125,155.8750,0
1776974083.275,9.3063,1.1109,0.2658,0.7831,0.3752,0.5340,-75.9000,1.9500,-5.8500,8.5425,1.4724,1.9130,0.3485,0.9555,0.4333,-82.9500,-1.9500,-1.9500,-4.1700,-3.4700,-8.2800,-0.1756,-0.1876,0.0905,13.0000,16.1875,57.0000,208.0625,-20.9375,156.0000,0
1776974083.283,9.2727,0.4477,0.6943,0.4988,0.4916,0.5103,-74.8500,0.9000,-6.0000,9.2488,0.9098,1.8148,0.5036,0.7911,0.4940,-83.2500,0.1500,-2.2500,-4.0600,-3.4700,-8.2000,-0.1669,-0.1811,0.0818,13.0000,16.1875,57.0000,208.0625,-21.0625,156.0625,0
1776974083.288,9.2727,0.4477,0.6943,0.4988,0.4916,0.5103,-76.0500,2.1000,-6.7500,9.2488,0.9098,1.8148,0.5036,0.7911,0.4940,-83.5500,-1.8000,-0.6000,-4.0600,-3.4700,-8.2000,-0.1669,-0.1811,0.0818,13.0000,16.1875,57.0000,208.0625,-21.1875,156.1875,0
1776974083.295,9.8354,0.1293,0.5962,-0.0498,0.5486,0.4764,-76.0500,2.1000,-6.7500,9.7468,0.7614,1.7430,0.5367,0.6720,0.5316,-84.0000,-2.4000,-1.5000,-3.4800,-3.6200,-8.0700,-0.1636,-0.1996,0.0905,13.0000,16.1875,57.0000,208.0625,-21.3125,156.2500,0
1776974083.305,10.0389,0.5818,0.7446,-0.6331,0.5606,0.4485,-74.1000,0.9000,-6.7500,9.4763,1.0247,1.4413,0.5841,0.4591,0.5129,-83.5500,0.0000,-1.6500,-3.9000,-3.5600,-8.0900,-0.1756,-0.2563,0.1156,13.0000,16.1875,57.0000,208.0625,-21.3125,156.2500,0
1776974083.310,10.0389,0.5818,0.7446,-0.6331,0.5606,0.4485,-74.8500,0.1500,-5.7000,9.4763,1.0247,1.4413,0.5841,0.4591,0.5129,-83.5500,0.0000,-1.6500,-3.9000,-3.5600,-8.0900,-0.1756,-0.2563,0.1156,13.0000,16.1875,57.0000,208.1250,-21.5000,156.3750,0
1776974083.315,9.8569,2.2266,0.6345,-1.0957,0.5225,0.4583,-74.8500,0.1500,-5.7000,9.5960,1.3264,1.0439,0.5985,0.3403,0.4362,-83.5500,0.0000,-1.6500,-3.6600,-3.6800,-8.0600,-0.1778,-0.2989,0.1451,14.5000,16.1875,56.6875,208.1250,-21.5000,156.3750,0
1776974083.320,9.8569,2.2266,0.6345,-1.0957,0.5225,0.4583,-74.8500,0.1500,-5.7000,9.5960,1.3264,1.0439,0.5985,0.3403,0.4362,-83.5500,0.0000,-1.6500,-3.6600,-3.6800,-8.0600,-0.1778,-0.2989,0.1451,14.5000,16.1875,56.6875,208.1875,-21.6875,156.5000,0
1776974083.325,8.3031,3.6607,0.1891,-1.1564,0.5367,0.5244,-74.8500,0.1500,-5.7000,7.6399,1.4557,1.0199,0.5777,0.2454,0.3214,-84.9000,0.3000,-0.3000,-4.4700,-3.9500,-7.9200,-0.2105,-0.3131,0.1996,14.5000,16.1875,56.6875,208.1875,-21.6875,156.5000,0
1776974083.330,9.3494,4.1420,-0.4334,-1.1564,0.5367,0.5244,-76.5000,0.1500,-6.4500,7.6399,1.4557,1.0199,0.2395,0.2539,0.2625,-84.9000,0.3000,-0.3000,-4.4700,-3.9500,-7.9200,-0.2498,-0.2367,0.2280,14.5000,16.1875,56.6875,208.2500,-21.8750,156.6875,0
1776974083.336,9.3494,4.1420,-0.4334,-1.0752,0.4572,0.5918,-76.5000,0.1500,-6.4500,9.6414,1.3120,1.1540,0.2395,0.2539,0.2625,-85.6500,1.0500,-1.0500,-3.9000,-3.6300,-8.0200,-0.2498,-0.2367,0.2280,14.5000,16.1875,56.6875,208.3125,-22.0625,156.8750,0
1776974083.345,9.0956,4.3646,-0.1077,-0.7626,0.4533,0.6752,-76.5000,0.1500,-6.4500,9.7995,1.2426,1.2354,-0.0426,0.6731,0.2084,-85.0500,1.9500,-0.1500,-4.2600,-3.5200,-8.1200,-0.2934,-0.2345,0.2520,14.5000,16.1875,56.6875,208.3125,-22.0625,156.8750,0
1776974083.355,9.4020,3.7685,-0.4262,-0.4618,0.4391,0.7163,-75.1500,0.3000,-5.1000,9.9886,1.1851,1.0726,-0.3461,0.6742,0.1937,-87.1500,1.8000,1.0500,-4.3900,-3.2500,-8.2800,-0.3011,-0.2073,0.2509,14.5000,16.1875,56.6875,208.3750,-22.1875,157.0625,0
1776974083.360,9.4355,2.7701,-0.2083,-0.1815,0.3976,0.7578,-75.3000,0.4500,-4.2000,10.1203,1.2282,0.6345,-0.6190,0.6051,0.1793,-87.1500,1.8000,1.0500,-4.3900,-3.2500,-8.2800,-0.3011,-0.2073,0.2509,14.5000,16.1875,56.6875,208.3750,-22.1875,157.0625,0
1776974083.365,9.4355,2.7701,-0.2083,-0.1815,0.3976,0.7578,-75.3000,0.4500,-4.2000,10.1203,1.2282,0.6345,-0.6190,0.6051,0.1793,-87.1500,1.8000,1.0500,-4.6200,-3.0200,-8.4400,-0.2825,-0.1865,0.2247,15.1875,15.0000,57.2500,208.5000,-22.3750,157.2500,0
1776974083.370,9.1866,1.7837,-0.1293,-0.0288,0.4389,0.8050,-76.0500,-1.6500,-3.7500,9.5098,1.3551,0.0263,-0.7999,0.4895,0.1695,-87.1500,1.8000,1.0500,-4.6200,-3.0200,-8.4400,-0.2825,-0.1865,0.2247,15.1875,15.0000,57.2500,208.5000,-22.3750,157.2500,0
1776974083.375,9.1866,1.7837,-0.1293,-0.0288,0.4389,0.8050,-76.0500,-1.6500,-3.7500,9.5098,1.3551,0.0263,-0.7999,0.4895,0.1695,-87.1500,1.8000,1.0500,-4.5000,-3.0600,-8.3800,-0.2411,-0.1516,0.1942,15.1875,15.0000,57.2500,208.5625,-22.5000,157.4375,0
1776974083.382,9.1554,1.3360,0.2251,0.0163,0.4959,0.8071,-73.8000,-1.3500,-3.4500,9.1051,1.3623,-0.3831,-0.8567,0.6033,0.1708,-87.1500,1.8000,1.0500,-4.4300,-3.1300,-8.3000,-0.2127,-0.1287,0.1756,15.1875,15.0000,57.2500,208.6250,-22.5625,157.5625,0
1776974083.387,9.1554,1.3360,0.2251,0.0163,0.4959,0.8071,-73.8000,-1.3500,-3.4500,9.1051,1.3623,-0.3831,-0.8567,0.6033,0.1708,-90.7500,1.8000,1.3500,-4.4300,-3.1300,-8.3000,-0.2127,-0.1287,0.1756,15.1875,15.0000,57.2500,208.6875,-22.6875,157.6875,0
1776974083.395,9.4188,1.0223,0.8595,-0.0565,0.5415,0.7666,-76.8000,-3.3000,-2.7000,9.2368,2.0111,-0.5531,-0.6920,0.7560,0.1175,-88.8000,3.1500,2.2500,-4.2000,-3.3900,-8.0300,-0.1985,-0.1353,0.1702,15.1875,15.0000,57.2500,208.7500,-22.8125,157.8125,0
1776974083.405,9.7037,0.8882,1.0989,-0.1729,0.4738,0.7256,-75.4500,-1.0500,-4.8000,9.2177,1.2426,-0.9673,-0.5151,0.4522,0.1508,-89.2500,1.0500,2.8500,-4.0900,-3.3500,-8.1200,-0.1996,-0.1429,0.1854,15.1875,15.0000,57.2500,208.7500,-22.8125,157.8125,0
1776974083.410,9.5026,0.7733,1.2881,-0.1785,0.4064,0.7261,-75.4500,-1.0500,-4.8000,9.2847,0.9218,1.1732,0.0173,0.4218,0.2262,-89.2500,1.0500,2.8500,-4.0900,-3.3500,-8.1200,-0.1996,-0.1429,0.1854,15.1875,13.5625,56.5625,208.8125,-23.0000,157.9375,0
1776974083.415,9.5026,0.7733,1.2881,-0.1785,0.4064,0.7261,-75.4500,-1.0500,-4.8000,9.2847,0.9218,1.1732,0.0173,0.4218,0.2262,-89.1000,0.4500,0.7500,-4.3900,-3.3700,-8.1100,-0.1909,-0.1527,0.1974,15.1875,13.5625,56.5625,208.8125,-23.0000,157.9375,0
1776974083.420,9.2967,0.3950,1.2689,-0.2449,0.4250,0.7552,-75.4500,-3.9000,-2.5500,8.8490,1.5467,1.7095,0.0823,0.5345,0.2521,-89.1000,0.4500,0.7500,-4.3900,-3.3700,-8.1100,-0.1909,-0.1527,0.1974,15.1875,13.5625,56.5625,208.8750,-23.1250,158.1250,0
1776974083.425,9.2967,0.3950,1.2689,-0.2449,0.4250,0.7552,-75.4500,-3.9000,-2.5500,8.8490,1.5467,1.7095,0.0823,0.5345,0.2521,-89.1000,0.4500,0.7500,-4.5500,-3.0800,-8.2500,-0.1680,-0.1440,0.1898,15.1875,13.5625,56.5625,208.8750,-23.1250,158.1250,0
1776974083.430,9.3757,0.0838,1.2210,-0.3317,0.4242,0.7546,-76.5000,-3.6000,-2.4000,8.6718,1.5993,1.2761,-0.4269,0.5076,0.2721,-89.1000,0.4500,0.7500,-4.5500,-3.0800,-8.2500,-0.1538,-0.1364,0.1778,15.1875,13.5625,56.5625,209.0000,-23.3125,158.2500,0
1776974083.436,9.4475,0.0479,1.0319,-0.3317,0.4242,0.7546,-76.5000,-3.6000,-2.4000,8.6718,1.5993,1.2761,-0.4269,0.5076,0.2721,-87.6000,-1.6500,1.5000,-4.6900,-2.9700,-8.3300,-0.1538,-0.1364,0.1778,15.1875,13.5625,56.5625,209.0625,-23.4375,158.3125,0
1776974083.445,9.4188,0.1389,0.8308,-0.3456,0.4098,0.7613,-74.7000,-3.9000,-3.3000,9.0381,0.9361,1.2905,-0.7461,0.4919,0.2864,-88.0500,-3.9000,1.9500,-4.7200,-2.7900,-8.3400,-0.1320,-0.1091,0.1484,15.1875,13.5625,56.5625,209.0625,-23.4375,158.3125,0
1776974083.455,9.5529,0.4525,1.0175,-0.3440,0.4077,0.7608,-75.4500,-3.4500,-2.5500,9.3565,0.1772,1.5993,-0.8652,0.4378,0.3003,-87.0000,-4.6500,0.7500,-4.6800,-2.9000,-8.2700,-0.1167,-0.0785,0.1167,15.1875,13.5625,56.5625,209.0625,-23.5000,158.4375,0
1776974083.460,9.5529,0.4525,1.0175,-0.2832,0.4082,0.7365,-76.5000,-4.8000,-2.7000,9.1506,-0.1365,2.7246,-0.7687,0.5820,0.3267,-87.0000,-4.6500,0.7500,-4.6800,-2.9000,-8.2700,-0.1167,-0.0785,0.1167,15.1875,13.5625,56.5625,209.1250,-23.5625,158.5000,0
1776974083.465,9.5624,0.6345,1.2522,-0.2832,0.4082,0.7365,-76.5000,-4.8000,-2.7000,9.1506,-0.1365,2.7246,-0.7687,0.5820,0.3267,-86.7000,-5.2500,2.1000,-4.4600,-3.0300,-8.2200,-0.1134,-0.0578,0.0982,15.8750,13.0625,56.8750,209.1250,-23.5625,158.5000,0
1776974083.470,9.5624,0.6345,1.2522,-0.1841,0.3741,0.7200,-74.8500,-2.8500,-2.7000,9.2440,-0.0862,3.3351,-0.4005,0.5017,0.3381,-86.7000,-5.2500,2.1000,-4.4600,-3.0300,-8.2200,-0.1134,-0.0578,0.0982,15.8750,13.0625,56.8750,209.1250,-23.5625,158.5625,0
1776974083.475,9.5888,0.5770,1.4006,-0.0957,0.3600,0.7008,-74.8500,-2.8500,-2.7000,9.2440,-0.0862,3.3351,-0.1207,0.5249,0.3504,-86.7000,-5.2500,2.1000,-4.5300,-2.8900,-8.0300,-0.1254,-0.0415,0.0884,15.8750,13.0625,56.8750,209.1250,-23.5625,158.5625,0
1776974083.480,9.5888,0.5770,1.4006,-0.0957,0.3600,0.7008,-74.8500,-2.8500,-2.7000,9.0166,0.3017,3.3471,-0.1207,0.5249,0.3504,-86.7000,-5.2500,2.1000,-4.5300,-2.8900,-8.0300,-0.1364,-0.0338,0.0818,15.8750,13.0625,56.8750,209.1875,-23.6875,158.6875,0
1776974083.486,9.6414,0.1676,1.4102,-0.0179,0.3581,0.6768,-74.8500,-2.8500,-2.7000,8.9304,0.5459,3.0095,0.0488,0.5953,0.3592,-86.7000,-5.2500,2.1000,-4.5300,-3.1200,-8.2600,-0.1364,-0.0338,0.0818,15.8750,13.0625,56.8750,209.1875,-23.6875,158.6875,0
1776974083.495,9.4786,-0.2705,1.4509,0.0424,0.3475,0.6563,-76.0500,-4.8000,-1.6500,8.8370,0.7422,2.5546,0.1404,0.5857,0.4008,-84.6000,-6.0000,1.6500,-4.5300,-2.9300,-8.2000,-0.1298,-0.0240,0.0829,15.8750,13.0625,56.8750,209.2500,-23.8125,158.8125,0
1776974083.500,9.4786,-0.2705,1.4509,0.0424,0.3475,0.6563,-76.0500,-4.8000,-1.6500,8.8370,0.7422,2.5546,0.1404,0.5857,0.4008,-84.6000,-6.0000,1.6500,-4.5300,-2.9300,-8.2000,-0.1440,-0.0153,0.0774,15.8750,13.0625,56.8750,209.2500,-23.8750,158.9375,0
1776974083.506,9.3039,-0.3879,1.5347,0.0429,0.3533,0.6536,-76.0500,-4.8000,-1.6500,8.9016,0.9577,2.2721,0.1657,0.5542,0.4381,-84.0000,-6.1500,0.7500,-4.6300,-3.0400,-8.0500,-0.1440,-0.0153,0.0774,15.8750,13.0625,56.8750,209.2500,-23.8750,158.9375,0
1776974083.511,9.3039,-0.3879,1.5347,0.0429,0.3533,0.6536,-76.0500,-6.0000,-1.9500,8.9016,0.9577,2.2721,0.1657,0.5542,0.4381,-85.6500,-6.3000,2.1000,-4.5500,-3.0100,-8.1000,-0.1625,0.0120,0.0687,15.8750,12.3750,55.7500,209.3125,-24.0000,159.0625,0
1776974083.516,9.3901,-0.3879,1.4174,0.0386,0.3440,0.6403,-76.0500,-6.0000,-1.9500,8.8777,1.0343,2.0973,0.1071,0.5955,0.4770,-85.6500,-6.3000,2.1000,-4.5500,-3.0100,-8.1000,-0.1625,0.0120,0.0687,15.8750,12.3750,55.7500,209.3125,-24.0000,159.0625,0
1776974083.521,9.3901,-0.3879,1.4174,0.0386,0.3440,0.6403,-76.2000,-5.8500,-1.8000,8.8777,1.0343,2.0973,0.1071,0.5955,0.4770,-84.0000,-7.9500,1.5000,-4.5500,-3.0100,-8.1000,-0.1898,0.0262,0.0578,15.8750,12.3750,55.7500,209.3125,-24.0625,159.1875,0
1776974083.526,9.5361,-0.3089,1.2139,0.0432,0.3589,0.6350,-76.2000,-5.8500,-1.8000,9.2584,1.0080,1.8555,0.0711,0.6470,0.5111,-84.0000,-7.9500,1.5000,-4.5700,-2.9200,-8.2100,-0.1898,0.0262,0.0578,15.8750,12.3750,55.7500,209.3125,-24.0625,159.1875,0
1776974083.531,9.5361,-0.3089,1.2139,0.0432,0.3589,0.6350,-74.8500,-4.8000,-1.9500,9.2584,1.0080,1.8555,0.0711,0.6470,0.5111,-84.0000,-7.9500,1.5000,-4.5700,-2.9200,-8.2100,-0.1974,0.0251,0.0491,15.8750,12.3750,55.7500,209.3750,-24.1250,159.3125,0
1776974083.536,9.7324,-0.3903,1.1660,0.0112,0.3664,0.6400,-74.8500,-4.8000,-1.9500,9.3206,0.8595,1.6568,0.0666,0.6779,0.5489,-84.0000,-7.9500,1.5000,-4.6500,-2.8200,-8.3000,-0.1974,0.0251,0.0491,15.8750,12.3750,55.7500,209.3750,-24.1250,159.3125,0
1776974083.545,9.9000,0.0168,0.9792,-0.0474,0.3573,0.6448,-76.6500,-6.9000,-1.3500,9.5146,0.7398,1.3336,0.1045,0.6760,0.5710,-84.0000,-7.6500,4.0500,-4.5700,-2.8600,-8.3100,-0.1898,0.0382,0.0349,15.8750,12.3750,55.7500,209.3750,-24.1875,159.4375,0
1776974083.550,9.9000,0.0168,0.9792,-0.0474,0.3573,0.6448,-76.6500,-6.9000,-1.3500,9.5146,0.7398,1.3336,0.1045,0.6760,0.5710,-84.0000,-7.6500,4.0500,-4.5700,-2.8600,-8.3100,-0.1680,0.0436,0.0240,15.8750,12.3750,55.7500,209.3750,-24.1875,159.5625,0
1776974083.556,9.7659,0.2825,0.5698,-0.0687,0.3317,0.6462,-76.6500,-6.9000,-1.3500,9.3853,0.5363,1.2426,0.1423,0.7016,0.5891,-85.8000,-7.9500,3.0000,-4.5200,-2.8400,-8.3300,-0.1680,0.0436,0.0240,15.8750,12.3750,55.7500,209.3750,-24.1875,159.5625,0
1776974083.561,9.4786,0.3448,0.9577,-0.0687,0.3317,0.6462,-75.6000,-6.7500,-1.6500,9.3853,0.5363,1.2426,0.1423,0.7016,0.5891,-83.5500,-8.5500,2.1000,-4.5200,-2.8400,-8.3300,-0.1680,0.0436,0.0240,16.2500,12.3750,57.2500,209.3750,-24.2500,159.6875,0
1776974083.566,9.4786,0.3448,0.9577,-0.0240,0.3592,0.6408,-75.6000,-6.7500,-1.6500,9.2967,0.6081,1.2785,0.1412,0.6856,0.5955,-83.5500,-8.5500,2.1000,-4.4500,-2.9400,-8.2700,-0.1560,0.0327,0.0207,16.2500,12.3750,57.2500,209.3750,-24.2500,159.6875,0
1776974083.571,9.4906,0.6871,1.0918,0.0352,0.3608,0.6539,-75.6000,-6.7500,-1.6500,9.2967,0.6081,1.2785,0.1412,0.6856,0.5955,-84.4500,-7.9500,2.2500,-4.4500,-2.9400,-8.2700,-0.1560,0.0327,0.0207,16.2500,12.3750,57.2500,209.3750,-24.2500,159.8125,0
1776974083.576,9.4906,0.6871,1.0918,0.0352,0.3608,0.6539,-75.6000,-6.7500,-1.6500,9.2823,0.6632,1.2258,0.1066,0.6536,0.5963,-84.4500,-7.9500,2.2500,-4.4300,-2.8900,-8.2800,-0.1527,0.0251,0.0207,16.2500,12.3750,57.2500,209.3750,-24.2500,159.8125,0
1776974083.581,9.4523,0.4812,0.9768,0.1186,0.3640,0.6510,-75.3000,-7.9500,-1.6500,9.2823,0.6632,1.2258,0.1066,0.6536,0.5963,-84.4500,-7.9500,2.2500,-4.4300,-2.8900,-8.2800,-0.1516,0.0229,0.0251,16.2500,12.3750,57.2500,209.4375,-24.3125,159.8750,0
1776974083.586,9.4523,0.4812,0.9768,0.1186,0.3640,0.6510,-75.3000,-7.9500,-1.6500,9.2799,0.8571,1.3216,-0.0032,0.6195,0.5939,-84.4500,-7.9500,2.2500,-4.3600,-2.9500,-8.2200,-0.1516,0.0229,0.0251,16.2500,12.3750,57.2500,209.4375,-24.3125,159.8750,0
1776974083.595,9.2464,0.2514,1.4246,0.2497,0.3754,0.6592,-75.6000,-7.5000,-1.2000,9.1123,0.8068,1.4940,-0.1396,0.5945,0.5982,-85.0500,-9.1500,3.3000,-4.5300,-2.8300,-8.2200,-0.1538,0.0076,0.0305,16.2500,12.3750,57.2500,209.4375,-24.3750,160.0000,0
1776974083.600,9.2871,0.4453,1.3791,0.2579,0.4226,0.6837,-76.2000,-9.0000,-1.3500,9.1123,0.8068,1.4940,-0.1396,0.5945,0.5982,-85.3500,-9.7500,5.7000,-4.5300,-2.8300,-8.2200,-0.1691,0.0185,0.0284,16.2500,12.3750,57.2500,209.4375,-24.3750,160.1250,0
1776974083.606,9.2871,0.4453,1.3791,0.2579,0.4226,0.6837,-76.2000,-9.0000,-1.3500,9.1530,0.9553,1.5371,-0.2441,0.5985,0.5987,-85.3500,-9.7500,5.7000,-4.5000,-2.7500,-8.2500,-0.1691,0.0185,0.0284,16.2500,12.3750,57.2500,209.4375,-24.3750,160.1250,0
1776974083.611,9.4571,0.9290,1.0702,0.2473,0.4170,0.6992,-76.5000,-8.7000,-0.1500,9.1866,1.0032,1.6113,-0.3158,0.6099,0.5945,-85.8000,-10.2000,4.3500,-4.5000,-2.7500,-8.2500,-0.1734,0.0295,0.0207,15.8750,11.2500,57.1875,209.4375,-24.4375,160.2500,0
1776974083.616,9.4571,0.9290,1.0702,0.2473,0.4170,0.6992,-76.5000,-8.7000,-0.1500,9.1866,1.0032,1.6113,-0.3158,0.6099,0.5945,-85.8000,-10.2000,4.3500,-4.4700,-2.8400,-8.2600,-0.1734,0.0295,0.0207,15.8750,11.2500,57.1875,209.4375,-24.4375,160.2500,0
1776974083.621,9.3877,1.0870,1.0032,0.2353,0.4098,0.7083,-74.7000,-10.0500,-0.3000,9.4523,1.0678,1.6041,-0.2968,0.5681,0.5710,-85.5000,-9.4500,4.3500,-4.4700,-2.8400,-8.2600,-0.1734,0.0295,0.0185,15.8750,11.2500,57.1875,209.4375,-24.4375,160.3125,0
1776974083.626,9.3877,1.0870,1.0032,0.2353,0.4098,0.7083,-74.7000,-10.0500,-0.3000,9.4523,1.0678,1.6041,-0.2968,0.5681,0.5710,-85.5000,-9.4500,4.3500,-4.4700,-2.9400,-8.2500,-0.1734,0.0295,0.0185,15.8750,11.2500,57.1875,209.4375,-24.4375,160.3125,0
1776974083.631,9.4930,0.9337,0.9697,0.1868,0.4506,0.7365,-75.6000,-10.3500,-0.9000,9.5170,1.1779,1.6592,-0.2750,0.5100,0.5415,-86.5500,-8.4000,4.0500,-4.4700,-2.9400,-8.2500,-0.1713,0.0295,0.0185,15.8750,11.2500,57.1875,209.4375,-24.4375,160.4375,0
1776974083.636,9.4930,0.9337,0.9697,0.1868,0.4506,0.7365,-75.6000,-10.3500,-0.9000,9.5170,1.1779,1.6592,-0.2750,0.5100,0.5415,-86.5500,-8.4000,4.0500,-4.3200,-2.9600,-8.3200,-0.1713,0.0295,0.0185,15.8750,11.2500,57.1875,209.4375,-24.4375,160.4375,0
1776974083.645,9.5505,0.8475,0.7518,0.0994,0.4839,0.7663,-75.6000,-10.3500,-0.9000,9.4188,1.2306,1.7813,-0.2004,0.4503,0.4972,-86.5500,-8.4000,4.0500,-4.3100,-3.0100,-8.3100,-0.1669,0.0196,0.0295,15.8750,11.2500,57.1875,209.4375,-24.5000,160.5625,0
1776974083.650,9.4212,0.8212,0.8068,0.0786,0.4855,0.8018,-75.6000,-10.3500,-0.9000,9.3733,1.3767,2.0087,-0.1303,0.4530,0.4580,-85.5000,-9.9000,6.4500,-4.3100,-3.0100,-8.3100,-0.1538,0.0087,0.0404,15.8750,11.2500,57.1875,209.4375,-24.5000,160.6250,0
1776974083.656,9.4212,0.8212,0.8068,0.0786,0.4855,0.8018,-77.7000,-10.0500,0.0000,9.3733,1.3767,2.0087,-0.1303,0.4530,0.4580,-85.5000,-9.9000,6.4500,-4.3500,-2.9400,-8.3400,-0.1538,0.0087,0.0404,15.8750,11.2500,57.1875,209.4375,-24.5000,160.6250,0
1776974083.661,9.3494,0.7422,1.0151,0.0357,0.5193,0.8380,-75.3000,-10.6500,-0.4500,9.1818,1.5275,2.1284,-0.0687,0.3933,0.4215,-87.0000,-9.4500,5.4000,-4.3500,-2.9400,-8.3400,-0.1538,0.0087,0.0404,15.8750,11.2500,57.1875,209.4375,-24.5000,160.7500,0
1776974083.666,9.3709,0.9074,1.1037,0.0357,0.5193,0.8380,-75.3000,-10.6500,-0.4500,9.1818,1.5275,2.1284,-0.0687,0.3933,0.4215,-87.0000,-9.4500,5.4000,-4.3800,-2.8500,-8.3400,-0.1440,0.0000,0.0480,16.1875,10.1875,57.5625,209.4375,-24.5000,160.7500,0
1776974083.671,9.3709,0.9074,1.1037,0.0147,0.5553,0.8708,-74.4000,-11.7000,0.6000,9.6247,1.6568,2.0183,-0.0981,0.2459,0.3920,-84.9000,-11.5500,3.9000,-4.3800,-2.8500,-8.3400,-0.1440,0.0000,0.0480,16.1875,10.1875,57.5625,209.4375,-24.5625,160.8125,0
1776974083.676,9.2727,0.9984,1.2498,0.0147,0.5553,0.8708,-74.4000,-11.7000,0.6000,9.6247,1.6568,2.0183,-0.0981,0.2459,0.3920,-84.9000,-11.5500,3.9000,-4.3300,-2.9300,-8.3100,-0.1342,-0.0044,0.0556,16.1875,10.1875,57.5625,209.4375,-24.5625,160.8125,0
1776974083.681,9.2727,0.9984,1.2498,0.0373,0.6238,0.9081,-74.4000,-11.7000,0.6000,8.9040,1.4964,2.4301,-0.1327,0.1490,0.3706,-85.5000,-10.6500,6.1500,-4.3300,-2.9300,-8.3100,-0.1244,-0.0120,0.0654,16.1875,10.1875,57.5625,209.5000,-24.5625,160.8750,0
1776974083.686,9.3925,0.3472,1.6257,0.0815,0.6323,0.9401,-74.7000,-10.0500,0.3000,8.9040,1.4964,2.4301,-0.1327,0.1490,0.3706,-85.5000,-10.6500,6.1500,-4.3200,-3.0300,-8.3100,-0.1244,-0.0120,0.0654,16.1875,10.1875,57.5625,209.5000,-24.5625,160.8750,0
1776974083.694,9.3925,0.3472,1.6257,0.0815,0.6323,0.9401,-75.6000,-12.6000,1.2000,9.5505,1.5251,2.3272,0.0112,-0.0743,0.3504,-85.5000,-10.6500,6.1500,-4.3600,-2.8800,-8.3100,-0.1145,-0.0218,0.0774,16.1875,10.1875,57.5625,209.5000,-24.6250,160.9375,0
1776974083.699,9.4308,0.0790,1.9968,0.0959,0.6728,0.9758,-75.6000,-12.6000,1.2000,9.4643,1.4078,2.6600,-0.0999,-0.1130,0.3331,-87.9000,-11.2500,4.9500,-4.3600,-2.8800,-8.3100,-0.1058,-0.0305,0.0894,16.1875,10.1875,57.5625,209.5625,-24.6875,161.0625,0
1776974083.706,9.3398,0.0910,2.1907,0.1247,0.6872,1.0019,-75.6000,-12.6000,1.6500,9.4643,1.4078,2.6600,-0.0999,-0.1130,0.3331,-87.9000,-11.2500,4.9500,-4.4200,-2.7600,-8.4000,-0.1058,-0.0305,0.0894,16.1875,10.1875,57.5625,209.5625,-24.6875,161.0625,0
1776974083.711,9.3398,0.0910,2.1907,0.1247,0.6872,1.0019,-75.6000,-12.6000,1.6500,8.5880,1.1947,3.2394,-0.0277,-0.5201,0.3195,-87.0000,-10.9500,6.4500,-4.4200,-2.7600,-8.4000,-0.1058,-0.0305,0.0894,16.1875,10.1875,57.5625,209.5625,-24.7500,161.1250,0
1776974083.716,10.1011,-0.4046,2.8156,0.0906,0.6193,1.0352,-75.6000,-12.6000,1.6500,8.5880,1.1947,3.2394,-0.0277,-0.5201,0.3195,-87.0000,-10.9500,6.4500,-4.4800,-2.6200,-8.4600,-0.0916,-0.0295,0.0916,16.1875,10.5625,56.3750,209.5625,-24.7500,161.1250,0
1776974083.721,10.1011,-0.4046,2.8156,0.0906,0.6193,1.0352,-75.6000,-12.6000,1.6500,8.9495,1.0415,3.6799,-0.2289,0.3637,0.2795,-85.6500,-11.2500,6.0000,-4.4800,-2.6200,-8.4600,-0.0916,-0.0295,0.0916,16.1875,10.5625,56.3750,209.6250,-24.8125,161.1875,0
1776974083.726,10.2137,-0.2298,2.9401,0.0386,0.5231,1.0387,-73.3500,-11.8500,1.2000,8.9495,1.0415,3.6799,-0.2289,0.3637,0.2795,-85.6500,-11.2500,6.0000,-4.4600,-2.7200,-8.3300,-0.0785,-0.0360,0.0905,16.1875,10.5625,56.3750,209.6250,-24.8125,161.1875,0
1776974083.731,10.2137,-0.2298,2.9401,0.0386,0.5231,1.0387,-73.3500,-11.8500,1.2000,9.0692,0.7709,3.7852,-0.2334,0.1378,0.2603,-87.0000,-10.9500,7.2000,-4.4600,-2.7200,-8.3300,-0.0665,-0.0349,0.0916,16.1875,10.5625,56.3750,209.6875,-24.8125,161.2500,0
1776974083.737,9.9383,0.3136,2.8132,0.1282,0.4455,1.0555,-73.3500,-11.8500,1.2000,9.2919,0.6800,3.9840,-0.1620,0.2521,0.2065,-86.2500,-11.4000,6.9000,-4.4300,-2.7900,-8.4600,-0.0665,-0.0349,0.0916,16.1875,10.5625,56.3750,209.6875,-24.8125,161.2500,0
1776974083.746,10.0365,0.1508,2.8276,0.0421,0.3962,1.1151,-74.5500,-13.0500,1.6500,9.2919,0.6800,3.9840,-0.1620,0.2521,0.2065,-86.2500,-11.4000,6.9000,-4.5200,-2.6200,-8.4400,-0.0524,-0.0316,0.0960,16.1875,10.5625,56.3750,209.7500,-24.8750,161.3125,0
1776974083.751,10.0365,0.1508,2.8276,0.0421,0.3962,1.1151,-74.5500,-13.0500,1.6500,9.3829,0.6871,4.0438,-0.1220,0.1958,0.1929,-86.2500,-11.4000,6.9000,-4.5200,-2.6200,-8.4400,-0.0425,-0.0284,0.0949,16.1875,10.5625,56.3750,209.7500,-24.9375,161.3750,0
1776974083.757,9.9862,-0.5507,2.7414,-0.0498,0.3693,1.1413,-73.8000,-14.2500,1.6500,9.6726,0.7350,3.5626,-0.0706,0.2721,0.1753,-86.2500,-11.4000,6.9000,-4.3900,-2.8300,-8.4600,-0.0425,-0.0284,0.0949,16.1875,10.5625,56.3750,209.7500,-24.9375,161.3750,0
1776974083.762,9.9862,-0.5507,2.7414,-0.0498,0.3693,1.1413,-74.1000,-15.4500,3.0000,9.6726,0.7350,3.5626,-0.0706,0.2721,0.1753,-88.2000,-13.0500,7.0500,-4.3900,-2.8300,-8.4600,-0.0273,-0.0393,0.1025,15.7500,9.7500,56.3750,209.8125,-25.0000,161.3750,0
1776974083.767,10.0054,-0.8906,1.9944,-0.1159,0.3829,1.1951,-74.1000,-15.4500,3.0000,9.8426,0.8332,2.9113,-0.0765,0.3240,0.1561,-86.7000,-10.8000,7.0500,-4.3800,-2.9400,-8.4900,-0.0273,-0.0393,0.1025,15.7500,9.7500,56.3750,209.8125,-25.0000,161.3750,0
1776974083.771,10.0054,-0.8906,1.9944,-0.1159,0.3829,1.1951,-74.1000,-15.4500,3.0000,9.8426,0.8332,2.9113,-0.0765,0.3240,0.1561,-86.7000,-10.8000,6.0000,-4.3800,-2.9400,-8.4900,0.0076,-0.0502,0.1036,15.7500,9.7500,56.3750,209.8750,-25.0625,161.4375,0
1776974083.777,10.2831,-1.0175,1.3862,-0.2782,0.4359,1.2460,-73.3500,-13.8000,2.7000,10.1778,1.1827,2.4277,-0.0160,0.2598,0.1412,-86.5500,-12.4500,5.8500,-4.2300,-2.8300,-8.7500,0.0076,-0.0502,0.1036,15.7500,9.7500,56.3750,209.8750,-25.0625,161.4375,0
1776974083.781,10.6470,-0.8021,0.7877,-0.2782,0.4359,1.2460,-73.3500,-13.8000,2.7000,10.1778,1.1827,2.4277,-0.0160,0.2598,0.1412,-86.5500,-12.4500,5.8500,-4.2300,-2.8300,-8.7500,0.0633,-0.0774,0.1058,15.7500,9.7500,56.3750,209.9375,-25.0625,161.3750,0
1776974083.787,10.6470,-0.8021,0.7877,-0.4266,0.4644,1.3105,-73.3500,-13.8000,2.7000,10.2855,1.3503,1.9656,-0.0139,0.2872,0.1244,-84.9000,-12.0000,6.3000,-3.7400,-2.5100,-9.3500,0.0633,-0.0774,0.1058,15.7500,9.7500,56.3750,210.0000,-25.1875,161.3750,0
1776974083.796,10.7236,-0.2538,0.5746,-0.4450,0.4415,1.3773,-73.2000,-16.3500,2.8500,10.4124,1.6376,1.3168,0.0176,0.2097,0.1103,-84.9000,-12.0000,6.3000,-4.2000,-2.6600,-8.9900,0.1189,-0.1680,0.1134,15.7500,9.7500,56.3750,210.0000,-25.1875,161.3750,0
1776974083.806,10.5560,0.1580,0.3974,-0.4138,0.4477,1.4458,-73.2000,-16.3500,2.8500,10.3837,1.8507,0.8236,-0.0687,0.1516,0.0874,-84.9000,-12.0000,6.3000,-4.0200,-2.4500,-9.2700,0.1800,-0.2651,0.1167,15.7500,9.7500,56.3750,210.0625,-25.3750,161.2500,0
1776974083.811,10.6015,0.2131,0.1628,-0.4138,0.4477,1.4458,-73.2000,-16.3500,2.8500,10.3837,1.8507,0.8236,-0.0687,0.1516,0.0874,-85.9500,-12.3000,6.7500,-4.0200,-2.4500,-9.2700,0.1800,-0.2651,0.1167,15.7500,9.7500,56.3750,210.0625,-25.3750,161.2500,0
1776974083.816,10.6015,0.2131,0.1628,-0.4069,0.4711,1.5122,-73.6500,-17.5500,2.8500,10.5560,2.2075,0.4764,-0.1737,0.0671,0.0565,-85.9500,-12.3000,6.7500,-3.9400,-2.5800,-9.3600,0.2585,-0.3807,0.1244,16.5625,9.7500,57.5625,210.1250,-25.5625,161.1250,0
1776974083.821,10.7021,0.0407,0.2514,-0.4069,0.4711,1.5122,-73.6500,-17.5500,2.8500,10.5560,2.2075,0.4764,-0.1737,0.0671,0.0565,-87.3000,-11.7000,6.1500,-3.9400,-2.5800,-9.3600,0.2585,-0.3807,0.1244,16.5625,9.7500,57.5625,210.1250,-25.5625,161.1250,0
1776974083.826,10.7021,0.0407,0.2514,-0.3944,0.5127,1.5863,-72.0000,-18.0000,2.5500,10.8386,2.5977,0.3687,-0.3776,0.1252,0.0256,-86.4000,-13.5000,6.0000,-3.7200,-2.7200,-9.5600,0.3196,-0.5367,0.1462,16.5625,9.7500,57.5625,210.1875,-25.8750,160.9375,0
1776974083.830,10.8960,0.0120,0.4405,-0.3880,0.5777,1.6651,-72.0000,-18.0000,2.5500,10.8386,2.5977,0.3687,-0.3776,0.1252,0.0256,-86.4000,-13.5000,6.0000,-3.7200,-2.7200,-9.5600,0.3327,-0.7210,0.1778,16.5625,9.7500,57.5625,210.3125,-26.3125,160.7500,0
1776974083.837,10.8960,0.0120,0.4405,-0.3880,0.5777,1.6651,-72.3000,-18.4500,2.7000,10.5393,2.9137,0.3926,-0.3813,-0.1279,-0.0453,-85.3500,-13.0500,5.2500,-3.7300,-2.9900,-9.6700,0.3327,-0.7210,0.1778,16.5625,9.7500,57.5625,210.3750,-26.8125,160.5000,0
1776974083.846,11.2216,0.0431,0.5914,-0.4157,0.6278,1.7563,-71.7000,-18.7500,2.8500,10.6039,3.6559,0.4262,-0.4575,-0.1961,-0.1522,-85.6500,-13.8000,4.5000,-3.7500,-3.0800,-9.6300,0.3523,-0.8825,0.2029,16.5625,9.7500,57.5625,210.3750,-26.8125,160.5000,0
1776974083.856,11.7076,0.1221,0.5531,-0.4575,0.6861,1.8524,-70.2000,-18.7500,4.0500,10.9176,4.2737,0.5195,-0.5396,-0.2995,-0.2960,-85.6500,-13.8000,4.5000,-3.6100,-3.2200,-9.8300,0.3632,-1.0701,0.2422,16.5625,9.7500,57.5625,210.4375,-27.4375,160.2500,0
1776974083.861,12.5025,1.3503,0.8164,-0.4591,0.7669,1.9907,-70.2000,-18.7500,4.0500,10.9176,4.2737,0.5195,-0.5396,-0.2995,-0.2960,-85.6500,-13.8000,4.5000,-3.6100,-3.2200,-9.8300,0.3632,-1.0701,0.2422,16.5625,9.7500,57.5625,210.4375,-27.4375,160.2500,0
1776974083.866,12.5025,1.3503,0.8164,-0.4591,0.7669,1.9907,-69.4500,-21.4500,3.6000,11.1259,4.8626,0.3496,-0.6131,-0.4130,-0.4719,-87.4500,-13.5000,4.2000,-3.3900,-3.1500,-10.2100,0.3469,-1.3199,0.3120,17.2500,10.8750,56.5000,210.5625,-28.1250,160.0000,0
1776974083.871,14.0181,2.2769,-0.2897,-0.5510,0.8308,2.1911,-69.4500,-21.4500,3.6000,11.1259,4.8626,0.3496,-0.6131,-0.4130,-0.4719,-87.4500,-13.5000,4.2000,-3.3900,-3.1500,-10.2100,0.3469,-1.3199,0.3120,17.2500,10.8750,56.5000,210.5625,-28.1250,160.0000,0
1776974083.876,14.0181,2.2769,-0.2897,-0.5510,0.8308,2.1911,-69.4500,-21.4500,3.6000,11.5736,5.8610,0.1939,-0.6430,-0.6198,-0.6755,-87.4500,-13.8000,3.4500,-3.2100,-4.0600,-10.9100,0.3556,-1.6417,0.4211,17.2500,10.8750,56.5000,210.6875,-29.0625,159.7500,0
1776974083.882,15.5192,2.6624,-0.4262,-0.7853,0.8505,2.3582,-69.4500,-21.4500,3.6000,11.1618,6.5290,-0.0503,-0.5974,-0.8966,-0.8660,-87.4500,-13.8000,3.4500,-2.2400,-3.9800,-11.1500,0.2334,-2.0900,0.6163,17.2500,10.8750,56.5000,210.8750,-30.3125,159.6250,0
1776974083.887,16.3668,3.4692,0.3783,-0.7853,0.8505,2.3582,-69.4500,-22.2000,3.3000,11.1618,6.5290,-0.0503,-0.5974,-0.8966,-0.8660,-86.4000,-13.0500,3.4500,-2.2400,-3.9800,-11.1500,0.2334,-2.0900,0.6163,17.2500,10.8750,56.5000,211.1875,-31.8125,159.4375,0
1776974083.896,16.3668,3.4692,0.3783,-0.6598,0.8489,2.5940,-68.8500,-23.5500,5.7000,10.6781,6.4332,-1.1372,-0.3110,-1.2564,-1.0584,-87.4500,-12.3000,4.9500,-1.9700,-4.2700,-11.7500,0.2771,-2.5853,0.8508,17.2500,10.8750,56.5000,211.5625,-33.6250,159.2500,0
1776974083.906,16.9557,4.4915,-2.5163,-0.4660,0.7504,2.8885,-66.7500,-25.8000,4.3500,10.1418,6.8570,-2.2936,0.4098,-1.7784,-1.2409,-87.4500,-12.3000,4.9500,-2.2300,-3.9900,-11.8800,0.3011,-3.1230,1.1377,17.2500,10.8750,56.5000,211.5625,-33.6250,159.2500,0
1776974083.911,16.4290,3.4357,-5.7437,-0.6765,0.6824,2.9585,-66.7500,-25.8000,4.3500,9.8019,7.0653,2.2338,0.8974,-1.3627,-1.4027,-87.4500,-12.3000,4.9500,-2.2300,-3.9900,-11.8800,0.3011,-3.1230,1.1377,17.2500,10.8750,56.5000,212.0625,-35.8750,159.1250,0
1776974083.916,13.3261,2.8180,-5.0781,-0.6765,0.6824,2.9585,-66.3000,-25.3500,4.3500,9.8019,7.0653,2.2338,0.8974,-1.3627,-1.4027,-89.4000,-12.4500,1.2000,-2.0300,-5.9100,-11.5400,0.2498,-3.7186,1.4454,20.1875,11.2500,53.2500,212.0625,-35.8750,159.1250,0
1776974083.921,13.3261,2.8180,-5.0781,-1.0792,0.6592,2.7901,-66.3000,-25.3500,4.3500,11.3198,5.1212,-0.5100,1.3640,-1.5020,-1.7040,-89.4000,-12.4500,1.2000,-2.0300,-5.9100,-11.5400,0.2498,-3.7186,1.4454,20.1875,11.2500,53.2500,212.7500,-38.4375,159.1250,0
1776974083.926,11.1857,2.8347,0.1724,-1.0792,0.6592,2.7901,-65.2500,-27.3000,5.8500,11.3198,5.1212,-0.5100,1.3640,-1.5020,-1.7040,-89.4000,-10.6500,2.2500,-2.3800,-7.8300,-10.5500,0.0720,-4.2891,1.8751,20.1875,11.2500,53.2500,212.7500,-38.4375,159.1250,0
1776974083.931,11.1857,2.8347,0.1724,-1.1319,1.0373,2.6169,-65.2500,-27.3000,5.8500,9.7444,2.9688,-1.4413,1.8309,-1.7960,-1.6625,-89.4000,-10.6500,2.2500,-2.3800,-7.8300,-10.5500,-0.1604,-4.8138,2.4609,20.1875,11.2500,53.2500,256.8125,-41.4375,159.5000,0
1776974083.937,11.0947,3.3662,1.3216,-0.7722,1.1535,2.5788,-63.9000,-27.9000,4.5000,9.7444,2.9688,-1.4413,1.8309,-1.7960,-1.6625,-89.4000,-9.9000,1.2000,-3.9000,-7.0900,-10.5000,-0.1604,-4.8138,2.4609,20.1875,11.2500,53.2500,252.3125,-44.7500,160.3125,0
1776974083.946,11.6095,3.0263,1.5897,-0.4922,1.0968,2.5015,-63.9000,-27.9000,4.5000,10.2208,2.4277,0.6704,3.2170,-1.8175,-1.4581,-88.9500,-9.3000,1.0500,-5.4600,-6.4200,-11.0600,-0.3949,-5.2393,3.0674,20.1875,11.2500,53.2500,252.3125,-44.7500,160.3125,0
1776974083.956,11.4347,1.6161,3.1268,-0.2979,0.8953,2.3350,-62.5500,-30.4500,5.1000,10.9176,1.8220,0.8643,3.3633,-2.0182,-1.4394,-89.1000,-9.1500,-0.7500,-8.2300,-7.3200,-11.4600,-0.6196,-5.6832,3.5234,20.1875,11.2500,53.2500,247.6250,-48.3750,161.5000,0
1776974083.961,11.4347,1.6161,3.1268,-0.2979,0.8953,2.3350,-62.5500,-30.4500,5.1000,12.0716,1.2665,0.4070,2.6817,-2.2753,-1.6166,-89.1000,-9.1500,-0.7500,-8.2300,-7.3200,-11.4600,-0.6196,-5.6832,3.5234,20.1875,11.2500,53.2500,247.6250,-48.3750,161.5000,0
1776974083.966,10.9894,-1.8962,4.2306,0.2899,0.7973,2.1794,-62.5500,-30.4500,5.1000,12.0716,1.2665,0.4070,2.6817,-2.2753,-1.6166,-89.1000,-9.1500,-0.7500,-13.3300,-7.4900,-12.1100,-0.8738,-5.9232,3.7274,28.0000,9.0625,47.3750,242.9375,-52.1250,163.1875,0
1776974083.971,10.9894,-1.8962,4.2306,0.2899,0.7973,2.1794,-62.5500,-30.4500,5.1000,12.4929,0.6823,0.4956,1.6358,-2.8690,-1.7925,-89.1000,-9.1500,-0.7500,-13.3300,-7.4900,-12.1100,-0.8738,-5.9232,3.7274,28.0000,9.0625,47.3750,242.9375,-52.1250,163.1875,0
1776974083.976,10.6566,-3.6631,5.2816,1.2710,1.0920,2.1258,-61.6500,-32.5500,4.5000,12.4929,0.6823,0.4956,1.6358,-2.8690,-1.7925,-87.0000,-8.7000,-3.6000,-13.5300,-8.9400,-11.6000,-1.0330,-5.8621,3.7230,28.0000,9.0625,47.3750,238.6250,-55.8125,165.2500,0
1776974083.983,10.6566,-3.6631,5.2816,1.2710,1.0920,2.1258,-61.6500,-32.5500,4.5000,12.2918,-0.2370,1.0822,0.6171,-2.9822,-1.9593,-87.0000,-8.7000,-3.6000,-16.0700,-11.7000,-12.3800,-1.3232,-5.6276,3.7285,28.0000,9.0625,47.3750,234.4375,-59.3125,168.0625,0
1776974083.988,10.1155,-2.2027,6.4620,1.9092,1.5106,2.0648,-58.9500,-33.0000,5.2500,12.2918,-0.2370,1.0822,0.6171,-2.9822,-1.9593,-87.4500,-7.5000,-4.9500,-16.0700,-11.7000,-12.3800,-1.3232,-5.6276,3.7285,28.0000,9.0625,47.3750,230.2500,-62.4375,171.8125,0
1776974083.996,10.3932,-1.4916,5.7700,2.2162,1.5364,1.8772,-58.3500,-35.5500,6.6000,12.8353,-0.0982,2.0135,0.4218,-2.2735,-2.1069,-88.2000,-7.0500,-4.9500,-10.3000,-9.8700,-10.8600,-1.8435,-5.0811,3.6783,28.0000,9.0625,47.3750,225.9375,-65.1875,176.6875,0
1776974084.006,10.7643,-4.0175,4.9895,2.5839,1.3046,1.6331,-57.0000,-34.5000,7.5000,14.0372,-0.2586,2.0423,-0.0416,-1.2252,-2.0526,-86.7000,-7.5000,-4.2000,-5.8800,-9.5600,-10.1300,-2.3289,-4.6066,3.6466,28.0000,9.0625,47.3750,225.9375,-65.1875,176.6875,0
1776974084.011,10.7643,-4.0175,4.9895,2.5839,1.3046,1.6331,-57.0000,-34.5000,7.5000,14.4418,-1.4485,2.6743,-0.5684,-0.9579,-1.8338,-86.7000,-7.5000,-4.2000,-5.8800,-9.5600,-10.1300,-2.3289,-4.6066,3.6466,28.0000,9.0625,47.3750,221.8125,-67.5625,-177.3125,0
1776974084.016,9.0836,-7.6662,8.2408,3.3574,1.2159,1.3022,-57.0000,-34.5000,7.5000,14.4418,-1.4485,2.6743,-0.5684,-0.9579,-1.8338,-86.7000,-7.5000,-4.2000,-1.2200,-8.6300,-8.7200,-2.5209,-4.2499,3.6085,38.2500,1.0000,34.0000,221.8125,-67.5625,-177.3125,0
1776974084.021,9.0836,-7.6662,8.2408,3.3574,1.2159,1.3022,-57.0000,-34.5000,7.5000,12.9071,-3.9217,0.8547,-1.4770,-1.6161,-1.4738,-86.7000,-7.5000,-4.2000,-1.2200,-8.6300,-8.7200,-2.5209,-4.2499,3.6085,38.2500,1.0000,34.0000,217.5625,-69.6875,-169.8125,0
1776974084.026,7.5633,-7.2736,12.2104,4.4992,0.4493,1.1109,-56.2500,-36.1500,10.0500,12.9071,-3.9217,0.8547,-1.4770,-1.6161,-1.4738,-86.7000,-5.5500,-6.7500,2.9600,-8.4100,-8.0900,-2.8154,-4.2477,3.7306,38.2500,1.0000,34.0000,217.5625,-69.6875,-169.8125,0
1776974084.031,5.7150,-6.5601,9.5050,4.4992,0.4493,1.1109,-56.2500,-36.1500,10.0500,11.8489,-3.6152,4.9368,-0.7096,-1.0992,-1.4218,-86.7000,-5.5500,-6.7500,2.9600,-8.4100,-8.0900,-3.5343,-4.6688,3.5834,38.2500,1.0000,34.0000,213.1875,-71.6875,-160.5000,0
1776974084.037,5.7150,-6.5601,9.5050,3.6926,0.1175,1.0405,-56.2500,-36.1500,10.0500,11.5879,-1.2450,4.0151,-0.6499,-0.8785,-1.6105,-86.4000,-5.2500,-7.8000,-5.0600,-6.7000,-5.0600,-3.5343,-4.6688,3.5834,38.2500,1.0000,34.0000,209.6250,-73.5625,-151.7500,0
1776974084.046,3.6536,-6.9336,7.2808,2.6881,-0.1607,0.7762,-54.7500,-36.9000,14.5500,10.7356,0.8715,2.4972,-1.0293,-0.6211,-1.7291,-87.4500,-3.0000,-7.8000,-20.2900,-6.6000,-5.7200,-3.9423,-4.5509,2.0224,38.2500,1.0000,34.0000,208.0625,-74.6875,-148.3750,0
1776974084.056,2.4780,-7.8123,7.8027,2.5762,-0.1895,0.4455,-54.6000,-37.0500,16.2000,10.5489,1.8148,1.3192,-1.0981,-0.4189,-1.7376,-87.3000,-1.6500,-6.9000,-12.8000,-6.4700,-8.3300,-2.7129,-2.3126,-0.2258,38.2500,1.0000,34.0000,208.0625,-74.6875,-148.3750,0
1776974084.061,1.3455,-6.5290,9.7300,2.4629,0.0605,0.1308,-54.6000,-37.0500,16.2000,10.5489,1.8148,1.3192,-1.0981,-0.4189,-1.7376,-87.4500,-1.5000,-7.8000,-12.8000,-6.4700,-8.3300,-2.7129,-2.3126,-0.2258,38.2500,1.0000,34.0000,208.0625,-74.6875,-148.3750,0
1776974084.066,1.3455,-6.5290,9.7300,2.4629,0.0605,0.1308,-55.3500,-34.8000,15.4500,9.6750,2.2458,1.0104,-0.9169,-0.4362,-1.6976,-87.4500,-1.5000,-7.8000,-4.6300,-7.3300,-9.3900,-1.6515,0.1473,-2.1729,38.8750,-12.8750,21.0000,208.1250,-75.2500,-151.5000,0
1776974084.071,2.5091,-5.0637,7.6974,1.8879,-0.0594,-0.1767,-55.3500,-34.8000,15.4500,9.6750,2.2458,1.0104,-0.9169,-0.4362,-1.6976,-87.4500,-1.5000,-7.8000,-4.6300,-7.3300,-9.3900,-1.6515,0.1473,-2.1729,38.8750,-12.8750,21.0000,209.1875,-75.3750,-158.6875,0
1776974084.076,2.5091,-5.0637,7.6974,1.8879,-0.0594,-0.1767,-56.1000,-37.0500,16.6500,11.1737,2.8347,1.3958,-0.6283,-0.3163,-1.6912,-87.4500,-1.5000,-7.8000,-0.6100,-7.8800,-5.7600,-1.0897,1.3624,-3.4187,38.8750,-12.8750,21.0000,209.1875,-75.3750,-158.6875,0
1776974084.085,4.2473,-4.1827,4.6040,1.2425,-0.4708,-0.4405,-55.8000,-36.0000,14.7000,11.1737,2.8347,1.3958,-0.2505,-0.4226,-1.7123,-86.2500,0.9000,-6.4500,0.7100,-6.6900,-4.1800,-0.9065,1.7442,-3.9204,38.8750,-12.8750,21.0000,210.6250,-75.0625,-167.1875,0
1776974084.089,4.8507,-3.4716,4.1851,1.2425,-0.4708,-0.4405,-55.8000,-36.0000,14.7000,10.6159,3.4309,1.2306,-0.2505,-0.4226,-1.7123,-86.2500,0.9000,-6.4500,0.7100,-6.6900,-4.1800,-0.9065,1.7442,-3.9204,38.8750,-12.8750,21.0000,212.1875,-74.3750,-175.5000,0
1776974084.097,4.8507,-3.4716,4.1851,1.0539,-0.8695,-0.6955,-56.8500,-36.0000,15.1500,10.2232,3.4213,1.0175,0.0954,-0.3539,-1.7581,-88.9500,1.8000,-7.8000,-0.6200,-4.9000,-3.1800,-0.9414,1.8206,-4.1277,38.8750,-12.8750,21.0000,213.7500,-73.3750,176.7500,0
1776974084.107,4.2329,-1.9561,3.3974,1.2873,-1.2332,-0.8905,-56.8500,-36.0000,15.1500,9.8306,3.0742,0.6991,0.2843,-0.0320,-1.7794,-87.9000,4.8000,-7.3500,-1.2700,-4.1600,-3.0800,-1.0297,1.9428,-4.2717,38.8750,-12.8750,21.0000,213.7500,-73.3750,176.7500,0
1776974084.111,3.5147,-4.0677,1.0774,1.1170,-1.3384,-1.1530,-56.8500,-36.0000,15.1500,9.8306,3.0742,0.6991,0.2843,-0.0320,-1.7794,-88.9500,5.5500,-6.3000,-1.2700,-4.1600,-3.0800,-1.0297,1.9428,-4.2717,38.8750,-12.8750,21.0000,213.7500,-73.3750,176.7500,0
1776974084.116,3.5147,-4.0677,1.0774,1.1170,-1.3384,-1.1530,-58.0500,-33.1500,15.4500,9.7947,1.9513,1.2546,0.4802,0.1340,-1.7400,-88.9500,5.5500,-6.3000,-2.0600,-3.6900,-2.5600,-1.1017,2.1053,-4.3808,36.2500,-18.2500,13.8750,215.4375,-71.9375,170.0625,0
1776974084.121,2.4277,-3.0358,5.1954,1.5346,-1.2220,-1.3550,-58.0500,-33.1500,15.4500,9.7947,1.9513,1.2546,0.4802,0.1340,-1.7400,-88.9500,5.5500,-6.3000,-2.0600,-3.6900,-2.5600,-1.1017,2.1053,-4.3808,36.2500,-18.2500,13.8750,215.4375,-71.9375,170.0625,0
1776974084.126,2.4277,-3.0358,5.1954,1.5346,-1.2220,-1.3550,-57.9000,-34.2000,15.6000,9.5193,1.5730,1.4198,0.7229,0.2164,-1.6638,-88.9500,5.5500,-6.3000,-2.3000,-3.0700,-2.5600,-1.1279,2.2678,-4.4168,36.2500,-18.2500,13.8750,217.1250,-70.1250,164.5000,0
1776974084.131,3.6009,-3.5434,3.5674,1.4639,-1.4138,-1.6054,-57.9000,-34.2000,15.6000,9.5193,1.5730,1.4198,0.7229,0.2164,-1.6638,-90.9000,9.9000,-6.4500,-2.3000,-3.0700,-2.5600,-1.0036,2.3562,-4.3088,36.2500,-18.2500,13.8750,218.9375,-68.1875,160.1250,0
1776974084.137,5.0901,-4.7190,4.5418,1.4639,-1.4138,-1.6054,-60.3000,-33.1500,15.1500,9.9407,1.1636,1.3671,0.8178,0.0506,-1.5444,-90.9000,9.9000,-6.4500,-2.6300,0.3800,-4.3200,-1.0036,2.3562,-4.3088,36.2500,-18.2500,13.8750,221.1250,-66.0625,156.5625,0
1776974084.147,5.7844,-5.1978,6.0573,1.6840,-1.6827,-1.8000,-61.9500,-31.0500,17.1000,9.7827,1.1396,1.4437,1.0115,-0.1231,-1.4059,-93.3000,12.3000,-7.0500,-3.5100,0.4700,-5.0800,-0.5705,2.4773,-4.1386,36.2500,-18.2500,13.8750,223.6875,-63.7500,153.6875,0
1776974084.157,6.3734,-5.1140,6.6655,1.7901,-1.7978,-1.8937,-62.2500,-31.6500,14.7000,9.6678,1.2474,1.8866,1.1959,-0.2116,-1.2561,-91.9500,12.9000,-4.3500,-4.0900,0.3900,-5.4800,-0.0022,2.7107,-3.9215,36.2500,-18.2500,13.8750,223.6875,-63.7500,153.6875,0
1776974084.162,6.3734,-5.1140,6.6655,1.5855,-1.8810,-1.9577,-62.2500,-31.6500,14.7000,9.6678,1.2474,1.8866,1.1959,-0.2116,-1.2561,-92.7000,13.9500,-3.3000,-4.0900,0.3900,-5.4800,-0.0022,2.7107,-3.9215,36.2500,-18.2500,13.8750,226.8125,-61.3125,151.4375,0
1776974084.167,6.7445,-5.7557,5.1116,1.0195,-2.0630,-2.0632,-63.4500,-30.3000,15.6000,8.9711,1.2186,2.2218,1.3851,-0.2380,-1.0930,-92.7000,13.9500,-3.3000,-4.4400,-0.9000,-6.3200,0.5312,3.0260,-3.6597,36.7500,-18.1875,16.0000,226.8125,-61.3125,151.4375,0
1776974084.172,6.7445,-5.7557,5.1116,1.0195,-2.0630,-2.0632,-63.4500,-30.3000,15.6000,8.9711,1.2186,2.2218,1.3851,-0.2380,-1.0930,-93.0000,14.5500,-3.1500,-4.4400,-0.9000,-6.3200,0.5312,3.0260,-3.6597,36.7500,-18.1875,16.0000,230.1875,-58.8125,149.6875,0
1776974084.177,7.0605,-6.6846,5.0350,0.6331,-2.2764,-2.2068,-63.4500,-30.3000,15.6000,8.6933,0.8859,1.9968,1.6390,-0.0629,-0.9521,-93.0000,14.5500,-3.1500,-4.4900,-2.3800,-6.1700,0.8879,3.3761,-3.3608,36.7500,-18.1875,16.0000,230.1875,-58.8125,149.6875,0
1776974084.183,7.0605,-6.6846,5.0350,0.6331,-2.2764,-2.2068,-63.4500,-30.3000,15.6000,8.5784,0.6105,1.4988,2.0017,-0.0016,-0.8215,-93.0000,14.5500,-3.1500,-4.3300,-3.2700,-6.2500,1.0003,3.6183,-3.0238,36.7500,-18.1875,16.0000,233.8125,-56.1875,148.5000,0
1776974084.188,6.9887,-7.2712,4.4724,0.2529,-2.4981,-2.2852,-64.6500,-29.5500,13.8000,8.5784,0.6105,1.4988,2.0017,-0.0016,-0.8215,-93.0000,14.5500,-3.1500,-4.3300,-3.2700,-6.2500,1.0003,3.6183,-3.0238,36.7500,-18.1875,16.0000,237.4375,-53.6250,147.6250,0
1776974084.197,6.4212,-7.3789,4.1587,-0.1945,-2.5972,-2.3425,-66.7500,-27.3000,13.6500,8.3486,0.1006,0.9577,2.2415,-0.0173,-0.7157,-94.5000,15.9000,-3.6000,-4.9100,-2.9300,-6.5300,0.9894,3.6979,-2.8176,36.7500,-18.1875,16.0000,237.4375,-53.6250,147.6250,0
1776974084.207,6.2369,-6.6439,4.3072,-0.6267,-2.6596,-2.4208,-69.1500,-27.1500,11.5500,7.7357,0.0000,0.6153,2.3832,-0.0043,-0.6097,-92.7000,16.2000,-1.9500,-5.6700,-3.2300,-6.5000,0.9937,3.7372,-2.8525,36.7500,-18.1875,16.0000,241.3125,-51.0625,146.8125,0
1776974084.212,6.2369,-6.6439,4.3072,-0.6267,-2.6596,-2.4208,-69.1500,-27.1500,11.5500,7.4699,0.0383,0.2298,2.4917,-0.0346,-0.5025,-94.2000,15.4500,-4.8000,-5.6700,-3.2300,-6.5000,0.9937,3.7372,-2.8525,36.7500,-18.1875,16.0000,241.3125,-51.0625,146.8125,0
1776974084.217,6.2058,-5.5522,4.1156,-0.9393,-2.7121,-2.5365,-70.2000,-25.8000,10.3500,7.4699,0.0383,0.2298,2.4917,-0.0346,-0.5025,-94.2000,15.4500,-4.8000,-5.8300,-3.5000,-6.6200,0.9741,3.7339,-2.9954,40.3750,-17.7500,23.8750,245.5000,-48.3750,145.9375,0
1776974084.222,6.2058,-5.5522,4.1156,-0.9393,-2.7121,-2.5365,-70.2000,-25.8000,10.3500,7.8506,-0.2274,0.2705,2.2084,0.0424,-0.4642,-96.9000,16.0500,-4.2000,-5.8300,-3.5000,-6.6200,0.9741,3.7339,-2.9954,40.3750,-17.7500,23.8750,245.5000,-48.3750,145.9375,0
1776974084.227,6.6607,-4.7166,3.5123,-1.1314,-2.7904,-2.6700,-70.9500,-26.5500,9.9000,7.8506,-0.2274,0.2705,2.2084,0.0424,-0.4642,-96.9000,16.0500,-4.2000,-5.9000,-3.6800,-6.7900,0.8770,3.6772,-3.1536,40.3750,-17.7500,23.8750,249.8125,-45.7500,145.1875,0
1776974084.232,6.6607,-4.7166,3.5123,-1.1314,-2.7904,-2.6700,-70.9500,-26.5500,9.9000,7.8841,-1.1037,-0.7422,1.8055,0.1138,-0.4687,-96.9000,16.0500,-4.2000,-5.9000,-3.6800,-6.7900,0.7069,3.5692,-3.2539,40.3750,-17.7500,23.8750,254.2500,-43.0625,144.4375,0
1776974084.238,6.9504,-3.8475,3.5003,-1.1628,-2.8546,-2.8413,-72.3000,-24.7500,7.5000,7.8841,-1.1037,-0.7422,1.8055,0.1138,-0.4687,-96.9000,16.0500,-4.2000,-6.1400,-3.2600,-6.9000,0.7069,3.5692,-3.2539,40.3750,-17.7500,23.8750,258.6250,-40.5000,143.8750,0
1776974084.247,7.4939,-2.7509,3.1963,-1.1005,-2.8709,-3.0052,-72.3000,-24.7500,7.5000,7.7069,-1.5514,-0.3376,1.3592,0.1354,-0.4780,-95.4000,16.5000,-5.2500,-6.0600,-2.6800,-7.0300,0.5083,3.4241,-3.2550,40.3750,-17.7500,23.8750,258.6250,-40.5000,143.8750,0
1776974084.257,7.8003,-1.9393,3.1532,-0.8279,-2.9236,-3.1243,-75.1500,-19.9500,2.8500,7.3430,-1.5275,-0.5435,0.8370,0.1148,-0.4650,-97.6500,16.0500,-5.2500,-6.1400,-2.2700,-7.3800,0.3436,3.2289,-3.1132,40.3750,-17.7500,23.8750,262.8750,-38.0000,143.3750,0
1776974084.262,7.8003,-1.9393,3.1532,-0.8279,-2.9236,-3.1243,-75.1500,-19.9500,2.8500,7.2113,-1.6520,-0.9577,0.1868,0.1188,-0.4682,-97.6500,15.3000,-3.9000,-6.1400,-2.2700,-7.3800,0.3436,3.2289,-3.1132,40.3750,-17.7500,23.8750,262.8750,-38.0000,143.3750,0
1776974084.267,8.0158,-1.1923,2.7414,-0.4684,-2.9817,-3.1664,-75.1500,-19.9500,2.8500,7.2113,-1.6520,-0.9577,0.1868,0.1188,-0.4682,-97.6500,15.3000,-3.9000,-6.8600,-3.0600,-8.5800,0.1865,3.0194,-2.7903,41.5625,-14.0000,39.6875,266.8125,-35.7500,143.1250,0
1776974084.271,8.2935,-1.0104,3.0095,-0.4684,-2.9817,-3.1664,-75.1500,-19.9500,2.8500,6.8761,-1.4485,-1.2474,-0.2590,0.0959,-0.4783,-99.1500,18.0000,-4.2000,-6.8600,-3.0600,-8.5800,0.1865,3.0194,-2.7903,41.5625,-14.0000,39.6875,266.8125,-35.7500,143.1250,0
1776974084.277,8.2935,-1.0104,3.0095,0.0925,-3.0172,-3.1125,-75.4500,-19.9500,2.8500,6.8761,-1.4485,-1.2474,-0.2590,0.0959,-0.4783,-99.1500,18.0000,-4.2000,-8.3500,-3.6200,-10.0000,0.0316,2.8362,-2.3300,41.5625,-14.0000,39.6875,270.3750,-33.6875,143.0000,0
1776974084.283,8.0373,-2.1572,2.8778,0.6632,-2.8674,-3.0329,-75.4500,-17.1000,1.3500,6.5027,-1.3240,-1.0295,-0.6065,0.0490,-0.4687,-99.1500,18.0000,-4.2000,-10.5200,-3.9500,-11.5900,-0.0687,2.8023,-1.8882,41.5625,-14.0000,39.6875,273.7500,-31.8125,143.1250,0
1776974084.288,8.0373,-2.1572,2.8778,0.6632,-2.8674,-3.0329,-76.5000,-14.2500,-0.4500,6.3422,-1.1588,-0.9577,-0.8415,-0.0290,-0.3909,-99.1500,18.0000,-4.2000,-10.5200,-3.9500,-11.5900,-0.0687,2.8023,-1.8882,41.5625,-14.0000,39.6875,277.3750,-29.9375,143.3750,0
1776974084.297,9.0860,-2.7485,3.5027,1.2462,-2.8376,-2.9092,-77.2500,-13.8000,-2.7000,6.3422,-1.1588,-0.9577,-0.8415,-0.0290,-0.3909,-99.1500,18.0000,-4.2000,-11.8100,-4.0400,-12.5400,-0.1080,3.0663,-1.6428,41.5625,-14.0000,39.6875,277.3750,-29.9375,143.3750,0
1776974084.307,9.4954,-3.7254,3.2561,1.2201,-2.7019,-2.8069,-77.2500,-13.8000,-2.7000,6.0478,-0.7638,-0.7326,-1.1660,-0.1247,-0.0655,-96.6000,16.5000,-3.9000,-10.3900,-3.6500,-11.7100,-0.1167,3.5790,-1.5566,41.5625,-14.0000,39.6875,185.1250,-27.8125,143.6875,0
1776974084.312,11.2240,-4.2258,2.8898,1.0155,-2.6734,-2.7145,-76.9500,-12.4500,-2.8500,6.1555,-0.4477,-0.6560,-1.1660,-0.1247,-0.0655,-96.6000,15.3000,-5.2500,-10.3900,-3.6500,-11.7100,-0.1167,3.5790,-1.5566,41.5625,-14.0000,39.6875,185.0000,-25.6250,144.0625,0
1776974084.317,11.2240,-4.2258,2.8898,1.0155,-2.6734,-2.7145,-76.9500,-12.4500,-2.8500,6.1555,-0.4477,-0.6560,-1.3059,-0.1676,0.1204,-96.6000,15.3000,-5.2500,-10.5000,-3.9600,-12.2800,-0.1407,3.9106,-1.4454,33.1875,-7.5625,56.2500,185.0000,-25.6250,144.0625,0
1776974084.322,11.6693,-5.6264,2.4972,0.7210,-2.7326,-2.6484,-76.9500,-12.4500,-2.8500,6.4691,-0.0599,-0.5794,-1.3059,-0.1676,0.1204,-96.9000,17.2500,-4.9500,-10.5000,-3.9600,-12.2800,-0.1407,3.9106,-1.4454,33.1875,-7.5625,56.2500,185.0000,-25.6250,144.0625,0
1776974084.327,11.6693,-5.6264,2.4972,0.7210,-2.7326,-2.6484,-76.9500,-12.4500,-2.8500,6.6918,0.1963,-0.4118,-1.5332,-0.1727,0.3136,-97.8000,17.4000,-3.6000,-9.1400,-4.0200,-11.4200,-0.1233,4.2782,-1.2370,33.1875,-7.5625,56.2500,185.0000,-23.2500,144.5000,0
1776974084.332,12.4451,-6.0741,2.3750,0.2758,-2.9908,-2.6284,-78.3000,-11.1000,-5.7000,6.6918,0.1963,-0.4118,-1.5332,-0.1727,0.3136,-97.8000,17.4000,-3.6000,-9.1400,-4.0200,-11.4200,-0.0949,4.3819,-0.9447,33.1875,-7.5625,56.2500,185.1875,-21.0000,145.0000,0
1776974084.338,12.4451,-6.0741,2.3750,0.2758,-2.9908,-2.6284,-78.3000,-11.1000,-5.7000,6.9336,0.8523,-0.1125,-1.7730,-0.0839,0.5375,-97.8000,17.4000,-3.6000,-9.5900,-5.5800,-11.5200,-0.0949,4.3819,-0.9447,33.1875,-7.5625,56.2500,185.5625,-18.8125,145.5000,0
1776974084.347,11.6358,-6.7397,2.2505,-0.2846,-3.1272,-2.6358,-78.3000,-11.1000,-5.7000,7.2640,1.6496,0.1149,-1.9974,0.2398,0.7362,-95.7000,16.6500,-5.8500,-9.9700,-5.9000,-11.5300,-0.2051,4.3077,-0.6490,33.1875,-7.5625,56.2500,186.0000,-16.6875,146.0000,0
1776974084.357,10.7835,-6.1794,2.8635,-0.8756,-3.0990,-2.6404,-78.0000,-7.2000,-9.0000,8.0852,2.4900,-0.0575,-2.0206,0.3368,0.9241,-96.0000,16.9500,-5.4000,-9.9100,-6.0400,-11.3000,-0.3229,4.3110,-0.4527,33.1875,-7.5625,56.2500,186.0000,-16.6875,146.0000,0
