timestamp,thigh_acc_x,thigh_acc_y,thigh_acc_z,thigh_gyro_x,thigh_gyro_y,thigh_gyro_z,thigh_mag_x,thigh_mag_y,thigh_mag_z,shank_acc_x,shank_acc_y,shank_acc_z,shank_gyro_x,shank_gyro_y,shank_gyro_z,shank_mag_x,shank_mag_y,shank_mag_z,foot_acc_x,foot_acc_y,foot_acc_z,foot_gyro_x,foot_gyro_y,foot_gyro_z,foot_mag_x,foot_mag_y,foot_mag_z,foot_euler_x,foot_euler_y,foot_euler_z,perturbation_event
1776972325.605,5.6886,7.6830,-1.6065,-0.0490,-0.0048,0.0109,-84.7500,40.0500,-20.8500,8.4204,-1.9728,-4.8818,-0.0120,0.0282,0.0128,0.3000,-3.0000,-179.8500,6.5300,0.1300,-7.3200,-0.0022,0.0011,-0.0011,-25.0625,2.8750,43.5000,309.8125,42.0000,-178.9375,0
1776972325.610,5.6886,7.6830,-1.6065,-0.0490,-0.0048,0.0109,-84.7500,40.0500,-20.8500,8.4276,-2.0375,-4.9009,-0.0141,0.0368,0.0112,1.2000,-3.9000,-181.5000,6.5300,0.1300,-7.3200,-0.0044,0.0044,-0.0022,-24.0000,2.8750,43.0625,309.8125,42.0000,-178.9375,0
1776972325.615,5.6934,7.5920,-1.6257,-0.0541,-0.0043,0.0184,-84.7500,40.0500,-20.8500,8.4276,-2.0375,-4.9009,-0.0141,0.0368,0.0112,1.2000,-3.9000,-181.5000,6.5400,0.1300,-7.3000,-0.0044,0.0044,-0.0022,-24.0000,2.8750,43.0625,309.8125,42.0000,-178.9375,0
1776972325.624,5.6862,7.6495,-1.5921,-0.0544,-0.0096,0.0125,-84.4500,38.1000,-21.6000,8.3797,-2.0782,-4.8698,-0.0091,0.0373,0.0117,-1.0500,-3.3000,-180.9000,6.5300,0.1300,-7.3400,-0.0022,0.0022,0.0011,-24.0000,2.8750,43.0625,309.8125,42.0000,-178.9375,0
1776972325.634,5.7293,7.6279,-1.5634,-0.0544,-0.0107,0.0176,-86.1000,39.0000,-21.7500,8.4276,-2.0638,-4.8985,-0.0115,0.0386,0.0157,-0.3000,-2.5500,-181.2000,6.5500,0.1200,-7.3300,-0.0044,0.0044,-0.0011,-24.0000,2.8750,43.0625,309.8125,42.0000,-178.9375,0
1776972325.643,5.6575,7.6184,-1.5395,-0.0480,-0.0080,0.0112,-84.1500,40.2000,-21.0000,8.4467,-2.0446,-4.8315,-0.0128,0.0370,0.0141,-0.3000,-2.5500,-181.2000,6.5200,0.0900,-7.3300,-0.0033,0.0044,-0.0022,-24.0000,2.8750,43.0625,309.8125,42.0000,-178.9375,0
1776972325.648,5.6575,7.6184,-1.5395,-0.0480,-0.0080,0.0112,-85.0500,39.0000,-22.9500,8.4874,-2.0997,-4.8363,-0.0112,0.0418,0.0195,-0.3000,-2.5500,-181.2000,6.5200,0.0900,-7.3300,-0.0033,0.0044,-0.0022,-24.0000,2.8750,43.0625,309.8125,42.0000,-178.9375,0
1776972325.655,5.7102,7.6758,-1.5634,-0.0517,-0.0091,0.0157,-85.0500,39.0000,-22.9500,8.4874,-2.0997,-4.8363,-0.0112,0.0418,0.0195,-0.4500,-2.4000,-181.0500,6.5300,0.1400,-7.3400,-0.0033,0.0055,-0.0033,-24.0000,2.8750,43.0625,309.8125,42.0000,-178.9375,0
1776972325.660,5.7102,7.6758,-1.5634,-0.0517,-0.0091,0.0157,-84.6000,38.2500,-21.7500,8.4683,-2.0638,-4.8028,-0.0069,0.0418,0.0187,-0.9000,-3.9000,-181.0500,6.5300,0.1400,-7.3400,-0.0033,0.0044,-0.0033,-24.2500,3.6875,43.7500,309.8125,42.0000,-178.9375,0
1776972325.665,5.6767,7.6423,-1.5155,-0.0552,-0.0101,0.0147,-84.6000,38.2500,-21.7500,8.4683,-2.0638,-4.8028,-0.0069,0.0418,0.0187,-0.9000,-3.9000,-181.0500,6.5600,0.1200,-7.3100,-0.0033,0.0044,-0.0033,-24.2500,3.6875,43.7500,309.8125,42.0000,-178.9375,0
1776972325.674,5.6575,7.6351,-1.5155,-0.0525,-0.0085,0.0107,-85.9500,38.8500,-21.9000,8.4396,-2.1165,-4.8363,-0.0141,0.0389,0.0195,-1.8000,-3.0000,-180.9000,6.5600,0.1400,-7.3000,-0.0055,0.0055,-0.0033,-24.2500,3.6875,43.7500,309.8125,42.0000,-178.9375,0
1776972325.684,5.6695,7.7333,-1.4748,-0.0488,-0.0075,0.0165,-85.9500,38.8500,-21.9000,8.4324,-2.1691,-4.7836,-0.0107,0.0437,0.0189,-0.3000,-1.5000,-180.6000,6.5400,0.1300,-7.3500,-0.0044,0.0065,-0.0011,-24.2500,3.6875,43.7500,309.8125,42.0000,-178.9375,0
1776972325.693,5.6982,7.7285,-1.4293,-0.0522,-0.0016,0.0120,-85.3500,38.7000,-21.4500,8.4180,-2.1691,-4.7788,-0.0104,0.0442,0.0141,-0.3000,-1.5000,-180.6000,6.5400,0.1400,-7.3300,-0.0033,0.0076,-0.0011,-24.2500,3.6875,43.7500,309.8125,42.0000,-178.9375,0
1776972325.698,5.6982,7.7285,-1.4293,-0.0522,-0.0016,0.0120,-85.3500,38.7000,-21.4500,8.4707,-2.2098,-4.7597,-0.0115,0.0426,0.0189,-0.3000,-1.5000,-180.6000,6.5400,0.1400,-7.3300,-0.0033,0.0076,-0.0011,-24.2500,3.6875,43.7500,309.8125,42.0000,-178.9375,0
1776972325.705,5.7557,7.6758,-1.4461,-0.0482,-0.0037,0.0176,-85.3500,38.7000,-21.4500,8.4707,-2.2098,-4.7597,-0.0115,0.0426,0.0189,-0.3000,-1.5000,-180.6000,6.5300,0.1400,-7.3100,-0.0033,0.0065,-0.0033,-24.2500,3.6875,43.7500,309.8125,42.0000,-178.9375,0
1776972325.710,5.6695,7.6830,-1.4341,-0.0421,-0.0056,0.0144,-85.8000,38.7000,-21.0000,8.5066,-2.2146,-4.8291,-0.0120,0.0325,0.0096,0.9000,-3.9000,-179.7000,6.5300,0.1400,-7.3100,-0.0011,0.0022,-0.0044,-24.2500,4.0000,43.5000,309.8125,42.0000,-178.9375,0
1776972325.715,5.6695,7.6830,-1.4341,-0.0421,-0.0056,0.0144,-85.8000,38.7000,-21.0000,8.5066,-2.2146,-4.8291,-0.0125,0.0381,0.0120,0.9000,-3.9000,-179.7000,6.5500,0.1200,-7.3400,-0.0011,0.0022,-0.0044,-24.2500,4.0000,43.5000,309.8125,42.0000,-178.9375,0
1776972325.724,5.6838,7.7261,-1.3958,-0.0362,-0.0032,0.0139,-85.5000,39.3000,-21.6000,8.4060,-2.2027,-4.7573,-0.0125,0.0381,0.0120,-0.4500,-3.1500,-180.3000,6.5500,0.1300,-7.3300,-0.0011,0.0033,0.0000,-24.2500,4.0000,43.5000,309.8125,42.0000,-178.9375,0
1776972325.734,5.6527,7.7237,-1.3815,-0.0370,-0.0035,0.0115,-84.4500,39.3000,-22.3500,8.3965,-2.1524,-4.7381,-0.0131,0.0349,0.0069,-0.3000,-2.5500,-180.9000,6.5800,0.1300,-7.3100,-0.0011,0.0000,-0.0044,-24.2500,4.0000,43.5000,309.8125,42.0000,-178.9375,0
1776972325.743,5.6264,7.6758,-1.4246,-0.0362,0.0003,0.0155,-85.3500,38.2500,-21.0000,8.4707,-2.1691,-4.7573,-0.0104,0.0338,0.0059,-0.1500,-2.7000,-181.5000,6.5400,0.1200,-7.3400,0.0011,0.0011,0.0000,-24.2500,4.0000,43.5000,309.8125,42.0000,-178.9375,0
1776972325.748,5.6743,7.7141,-1.4030,-0.0362,0.0003,0.0155,-85.0500,39.0000,-22.5000,8.4180,-2.1859,-4.7621,-0.0125,0.0336,0.0027,-0.1500,-2.7000,-181.5000,6.5400,0.1200,-7.3400,0.0011,0.0011,0.0000,-24.2500,4.0000,43.5000,309.8125,42.0000,-178.9375,0
1776972325.755,5.6743,7.7141,-1.4030,-0.0298,0.0013,0.0136,-85.0500,39.0000,-22.5000,8.4467,-2.1237,-4.7549,-0.0075,0.0333,0.0045,-0.1500,-2.7000,-181.5000,6.5600,0.1400,-7.3300,0.0011,-0.0011,-0.0022,-24.2500,4.0000,43.5000,309.8125,42.0000,-178.9375,0
1776972325.760,5.6671,7.7381,-1.4006,-0.0314,-0.0080,0.0155,-85.2000,38.8500,-21.9000,8.4467,-2.1237,-4.7549,-0.0075,0.0333,0.0045,-0.1500,-2.7000,-181.5000,6.5600,0.1400,-7.3300,0.0033,-0.0033,-0.0011,-24.6875,4.0000,43.0625,309.8125,42.0000,-178.9375,0
1776972325.765,5.6671,7.7381,-1.4006,-0.0314,-0.0080,0.0155,-85.2000,38.8500,-21.9000,8.4348,-2.0997,-4.7381,-0.0099,0.0296,0.0008,-0.1500,-2.7000,-181.5000,6.5500,0.1500,-7.3100,0.0033,-0.0033,-0.0011,-24.6875,4.0000,43.0625,309.8125,42.0000,-178.9375,0
1776972325.775,5.7174,7.7572,-1.4748,-0.0293,-0.0008,0.0131,-85.2000,38.8500,-21.9000,8.4970,-2.1428,-4.7692,-0.0069,0.0282,0.0008,0.3000,-3.7500,-180.9000,6.5500,0.1200,-7.3200,0.0011,-0.0044,-0.0022,-24.6875,4.0000,43.0625,309.8125,42.0000,-178.9375,0
1776972325.784,5.6264,7.6926,-1.4509,-0.0274,-0.0005,0.0192,-85.3500,39.0000,-21.4500,8.4635,-2.1691,-4.7357,-0.0109,0.0240,-0.0011,-1.0500,-4.5000,-180.6000,6.5500,0.1500,-7.3500,0.0033,0.0022,0.0000,-24.6875,4.0000,43.0625,309.8125,42.0000,-178.9375,0
1776972325.793,5.5809,7.7428,-1.4389,-0.0245,-0.0024,0.0189,-85.3500,39.0000,-21.4500,8.4563,-2.1428,-4.7716,-0.0083,0.0197,-0.0045,-0.3000,-3.0000,-180.6000,6.5500,0.1500,-7.3100,0.0022,-0.0022,0.0000,-24.6875,4.0000,43.0625,309.8125,42.0000,-178.9375,0
1776972325.798,5.6431,7.7548,-1.4317,-0.0165,-0.0016,0.0195,-84.7500,38.5500,-21.6000,8.4563,-2.1428,-4.7716,-0.0083,0.0197,-0.0045,-0.1500,-4.2000,-181.8000,6.5500,0.1500,-7.3100,0.0022,-0.0022,0.0000,-24.6875,4.0000,43.0625,309.8125,42.0000,-178.9375,0
1776972325.805,5.7365,7.7045,-1.4700,-0.0165,-0.0016,0.0195,-84.7500,38.5500,-21.6000,8.4491,-2.1715,-4.7932,-0.0035,0.0203,-0.0091,-0.1500,-4.2000,-181.8000,6.5700,0.1300,-7.3300,0.0044,-0.0033,0.0011,-24.6875,4.0000,43.0625,309.8125,42.0000,-178.9375,0
1776972325.810,5.7365,7.7045,-1.4700,-0.0128,0.0035,0.0160,-83.8500,38.7000,-21.7500,8.4491,-2.1715,-4.7932,-0.0035,0.0203,-0.0091,-0.1500,-4.2000,-181.8000,6.5700,0.1300,-7.3300,0.0033,-0.0022,-0.0011,-24.6875,2.8750,42.5625,309.8125,42.0000,-178.9375,0
1776972325.815,5.7269,7.6734,-1.4964,-0.0056,-0.0003,0.0197,-83.8500,38.7000,-21.7500,8.4228,-2.0949,-4.8052,-0.0085,0.0179,-0.0096,-0.1500,-4.2000,-181.8000,6.5500,0.1300,-7.3300,0.0033,-0.0022,-0.0011,-24.6875,2.8750,42.5625,309.8125,42.0000,-178.9375,0
1776972325.825,5.6838,7.6902,-1.5467,-0.0072,0.0021,0.0171,-85.2000,39.6000,-21.6000,8.4611,-2.1237,-4.8004,-0.0099,0.0123,-0.0099,-0.1500,-3.1500,-180.7500,6.5500,0.1600,-7.3200,0.0033,0.0000,0.0011,-24.6875,2.8750,42.5625,309.8125,42.0000,-178.9375,0
1776972325.834,5.6886,7.7069,-1.4916,-0.0133,0.0061,0.0165,-86.2500,38.8500,-20.8500,8.4108,-2.0830,-4.8219,-0.0083,0.0163,-0.0035,-1.2000,-2.4000,-181.0500,6.5700,0.1300,-7.3200,0.0033,-0.0033,0.0022,-24.6875,2.8750,42.5625,309.8125,42.0000,-178.9375,0
1776972325.843,5.5929,7.7213,-1.5347,-0.0133,0.0061,0.0165,-85.8000,38.7000,-21.4500,8.3486,-2.0877,-4.8435,-0.0136,0.0187,-0.0128,0.4500,-1.6500,-181.5000,6.5400,0.1500,-7.3400,0.0055,-0.0055,0.0022,-24.6875,2.8750,42.5625,309.8125,42.0000,-178.9375,0
1776972325.848,5.5929,7.7213,-1.5347,-0.0056,0.0053,0.0133,-84.1500,39.4500,-22.2000,8.3486,-2.0877,-4.8435,-0.0136,0.0187,-0.0128,-1.0500,-3.7500,-180.6000,6.5400,0.1500,-7.3400,0.0055,-0.0055,0.0022,-24.6875,2.8750,42.5625,309.8125,42.0000,-178.9375,0
1776972325.855,5.7102,7.6758,-1.5826,-0.0136,0.0019,0.0112,-84.1500,39.4500,-22.2000,8.3845,-2.0997,-4.8315,-0.0128,0.0173,-0.0107,0.4500,-2.4000,-180.3000,6.5400,0.1500,-7.3000,0.0055,-0.0044,0.0022,-24.6875,2.8750,42.5625,309.8125,42.0000,-178.9375,0
1776972325.860,5.7102,7.6758,-1.5826,-0.0136,0.0019,0.0112,-84.1500,39.4500,-22.2000,8.3845,-2.0997,-4.8315,-0.0093,0.0189,-0.0099,0.4500,-2.4000,-180.3000,6.5400,0.1500,-7.3000,0.0044,-0.0055,0.0011,-25.7500,2.5625,43.5000,309.8125,42.0000,-178.9375,0
1776972325.866,5.6671,7.6231,-1.5945,-0.0192,0.0085,0.0163,-84.1500,39.4500,-22.2000,8.4060,-2.1021,-4.8435,-0.0093,0.0189,-0.0099,0.4500,-2.4000,-180.3000,6.5600,0.1200,-7.3200,0.0044,-0.0055,0.0011,-25.7500,2.5625,43.5000,309.8125,42.0000,-178.9375,0
1776972325.875,5.6838,7.6830,-1.5443,-0.0171,0.0093,0.0237,-84.4500,38.8500,-20.8500,8.4348,-2.0901,-4.8459,-0.0091,0.0149,-0.0093,1.0500,-2.5500,-180.6000,6.5300,0.1300,-7.3100,0.0044,-0.0022,0.0022,-25.7500,2.5625,43.5000,309.8125,42.0000,-178.9375,0
1776972325.884,5.6910,7.6734,-1.5179,-0.0141,0.0072,0.0107,-84.4500,38.8500,-20.8500,8.3677,-2.0782,-4.8674,-0.0045,0.0237,-0.0120,-0.3000,-3.7500,-179.8500,6.5600,0.1200,-7.3500,0.0033,-0.0055,0.0011,-25.7500,2.5625,43.5000,309.8125,42.0000,-178.9375,0
1776972325.894,5.7078,7.6926,-1.5945,-0.0224,0.0043,0.0139,-85.0500,39.9000,-21.0000,8.3893,-2.1045,-4.8914,-0.0096,0.0237,-0.0083,-0.3000,-3.7500,-179.8500,6.5200,0.1200,-7.3400,0.0033,-0.0033,0.0022,-25.7500,2.5625,43.5000,309.8125,42.0000,-178.9375,0
1776972325.898,5.7078,7.6926,-1.5945,-0.0224,0.0043,0.0139,-85.0500,39.9000,-21.0000,8.3893,-2.1045,-4.8914,-0.0096,0.0237,-0.0083,-0.9000,-1.9500,-180.7500,6.5200,0.1200,-7.3400,0.0033,-0.0033,0.0022,-25.7500,2.5625,43.5000,309.8125,42.0000,-178.9375,0
1776972325.906,5.7030,7.6255,-1.6041,-0.0205,0.0053,0.0173,-86.1000,39.0000,-21.7500,8.4228,-2.0710,-4.8818,-0.0080,0.0290,-0.0032,-0.1500,-3.4500,-181.5000,6.5400,0.1300,-7.3000,0.0044,-0.0044,0.0011,-25.7500,2.5625,43.5000,309.8125,42.0000,-178.9375,0
1776972325.910,5.7174,7.6471,-1.5514,-0.0205,0.0053,0.0173,-85.3500,39.9000,-22.2000,8.4013,-2.0686,-4.8411,-0.0109,0.0312,-0.0043,-0.1500,-3.4500,-181.5000,6.5400,0.1300,-7.3000,0.0033,-0.0065,0.0011,-24.6875,3.6875,43.5000,309.8125,42.0000,-178.9375,0
1776972325.916,5.7174,7.6471,-1.5514,-0.0203,0.0016,0.0123,-85.3500,39.9000,-22.2000,8.4013,-2.0686,-4.8411,-0.0109,0.0312,-0.0043,-0.1500,-3.4500,-181.5000,6.5500,0.1200,-7.3300,0.0033,-0.0065,0.0011,-24.6875,3.6875,43.5000,309.8125,42.0000,-178.9375,0
1776972325.925,5.7030,7.6638,-1.6017,-0.0234,0.0035,0.0173,-86.2500,38.8500,-21.6000,8.4084,-2.0423,-4.8483,-0.0152,0.0314,-0.0056,-0.1500,-3.4500,-181.5000,6.5300,0.1100,-7.3500,0.0022,-0.0044,0.0011,-24.6875,3.6875,43.5000,309.8125,42.0000,-178.9375,0
1776972325.935,5.6790,7.6734,-1.6017,-0.0248,-0.0008,0.0139,-83.7000,39.3000,-20.5500,8.4132,-2.0518,-4.8459,-0.0131,0.0288,0.0005,-0.6000,-3.0000,-181.2000,6.5300,0.1300,-7.3100,0.0022,-0.0044,0.0000,-24.6875,3.6875,43.5000,309.8125,42.0000,-178.9375,0
1776972325.944,5.6719,7.6591,-1.5993,-0.0203,0.0056,0.0112,-84.1500,39.4500,-22.5000,8.4348,-2.0279,-4.8435,-0.0125,0.0314,-0.0032,-0.6000,-3.3000,-180.6000,6.5400,0.0900,-7.3400,-0.0022,-0.0022,0.0000,-24.6875,3.6875,43.5000,309.8125,42.0000,-178.9375,0
1776972325.949,5.6599,7.6734,-1.5730,-0.0203,0.0056,0.0112,-84.1500,39.4500,-22.5000,8.4060,-2.0231,-4.8411,-0.0093,0.0328,0.0011,-0.6000,-3.3000,-180.6000,6.5400,0.0900,-7.3400,-0.0022,-0.0022,0.0000,-24.6875,3.6875,43.5000,309.8125,42.0000,-178.9375,0
1776972325.956,5.6599,7.6734,-1.5730,-0.0229,-0.0019,0.0133,-84.1500,39.4500,-22.5000,8.4060,-2.0231,-4.8411,-0.0093,0.0328,0.0011,-0.6000,-3.3000,-181.6500,6.5600,0.1100,-7.3300,0.0000,-0.0022,-0.0011,-24.6875,3.6875,43.5000,309.8125,42.0000,-178.9375,0
1776972325.961,5.6479,7.6878,-1.5706,-0.0330,0.0032,0.0101,-85.2000,38.1000,-23.1000,8.3701,-2.0686,-4.8578,-0.0088,0.0360,0.0024,-0.6000,-3.3000,-181.6500,6.5600,0.1100,-7.3300,-0.0022,-0.0033,-0.0011,-25.0625,3.6875,43.5000,309.8125,42.0000,-178.9375,0
1776972325.966,5.6479,7.6878,-1.5706,-0.0330,0.0032,0.0101,-85.2000,38.1000,-23.1000,8.3701,-2.0686,-4.8578,-0.0088,0.0360,0.0024,1.8000,-2.5500,-180.1500,6.5400,0.1200,-7.3300,-0.0022,-0.0033,-0.0011,-25.0625,3.6875,43.5000,309.8125,42.0000,-178.9375,0
1776972325.975,5.6958,7.6662,-1.5682,-0.0336,-0.0064,0.0155,-85.2000,38.1000,-23.1000,8.4420,-2.0375,-4.8315,-0.0053,0.0368,0.0069,1.8000,-2.5500,-180.1500,6.5300,0.1300,-7.3300,0.0000,-0.0022,-0.0022,-25.0625,3.6875,43.5000,309.8125,42.0000,-178.9375,0
1776972325.985,5.7078,7.6854,-1.5538,-0.0386,-0.0059,0.0077,-86.8500,39.4500,-22.2000,8.4060,-2.0255,-4.8243,-0.0131,0.0389,0.0096,-0.1500,-3.1500,-180.0000,6.5300,0.1400,-7.3500,-0.0033,0.0022,-0.0022,-25.0625,3.6875,43.5000,309.8125,42.0000,-178.9375,0
1776972325.995,5.6790,7.7476,-1.5443,-0.0376,-0.0051,0.0096,-84.7500,39.3000,-23.4000,8.4252,-2.0686,-4.8171,-0.0099,0.0418,0.0131,0.0000,-3.3000,-181.6500,6.5300,0.1300,-7.3200,-0.0022,0.0022,-0.0011,-25.0625,3.6875,43.5000,309.8125,42.0000,-178.9375,0
1776972326.003,5.6671,7.6614,-1.5083,-0.0421,-0.0072,0.0104,-85.9500,39.6000,-22.3500,8.4611,-2.0734,-4.8698,-0.0107,0.0426,0.0061,0.1500,-3.1500,-181.5000,6.5400,0.1100,-7.3200,-0.0022,0.0022,-0.0022,-25.0625,3.6875,43.5000,309.8125,42.0000,-178.9375,0
1776972326.008,5.7078,7.7285,-1.5083,-0.0389,-0.0112,0.0112,-85.9500,39.6000,-22.3500,8.4108,-2.1117,-4.8052,-0.0152,0.0362,0.0083,0.1500,-3.1500,-181.5000,6.5400,0.1100,-7.3200,-0.0022,0.0022,-0.0022,-25.0625,3.6875,43.5000,309.8125,42.0000,-178.9375,0
1776972326.014,5.7078,7.7285,-1.5083,-0.0389,-0.0112,0.0112,-83.7000,38.8500,-20.8500,8.4108,-2.1117,-4.8052,-0.0152,0.0362,0.0083,-0.6000,-2.2500,-180.6000,6.5200,0.1400,-7.3600,-0.0044,0.0044,0.0000,-24.2500,4.0000,43.5000,309.8125,42.0000,-178.9375,0
1776972326.019,5.6790,7.7237,-1.5036,-0.0386,-0.0051,0.0101,-83.7000,38.8500,-20.8500,8.4132,-2.0638,-4.8650,-0.0149,0.0360,0.0123,-0.6000,-2.2500,-180.6000,6.5200,0.1400,-7.3600,-0.0033,0.0022,0.0000,-24.2500,4.0000,43.5000,309.8125,42.0000,-178.9375,0
1776972326.026,5.6096,7.6950,-1.5323,-0.0386,-0.0051,0.0101,-84.6000,39.9000,-22.2000,8.3797,-2.0949,-4.8387,-0.0067,0.0376,0.0091,0.3000,-2.2500,-180.6000,6.5400,0.1400,-7.3200,-0.0033,0.0022,0.0000,-24.2500,4.0000,43.5000,309.8125,42.0000,-178.9375,0
1776972326.035,5.7054,7.6998,-1.4820,-0.0426,-0.0101,0.0144,-85.8000,39.0000,-22.2000,8.4420,-2.0949,-4.7621,-0.0093,0.0394,0.0056,0.3000,-2.2500,-180.6000,6.5600,0.1300,-7.3400,-0.0033,0.0055,-0.0033,-24.2500,4.0000,43.5000,309.8125,42.0000,-178.9375,0
1776972326.045,5.6431,7.7428,-1.5155,-0.0370,-0.0032,0.0131,-85.8000,39.0000,-22.2000,8.4348,-2.1332,-4.8171,-0.0101,0.0386,0.0109,0.0000,-2.5500,-181.6500,6.5300,0.1200,-7.3200,-0.0033,0.0033,-0.0022,-24.2500,4.0000,43.5000,309.8125,42.0000,-178.9375,0
1776972326.054,5.6431,7.7428,-1.5155,-0.0370,-0.0032,0.0115,-84.6000,39.4500,-22.9500,8.4348,-2.1332,-4.8171,-0.0101,0.0386,0.0109,0.3000,-1.0500,-180.1500,6.5600,0.1400,-7.3200,0.0000,0.0055,-0.0033,-24.2500,4.0000,43.5000,309.8125,42.0000,-178.9375,0
1776972326.058,5.6814,7.7165,-1.4653,-0.0357,-0.0088,0.0088,-84.6000,39.4500,-22.9500,8.4252,-2.1045,-4.7381,-0.0125,0.0328,0.0096,0.3000,-1.0500,-180.1500,6.5600,0.1400,-7.3200,0.0000,0.0055,-0.0033,-24.2500,4.0000,43.5000,309.8125,42.0000,-178.9375,0
1776972326.065,5.6575,7.7548,-1.5299,-0.0322,-0.0056,0.0189,-84.6000,39.4500,-22.9500,8.4563,-2.1069,-4.7669,-0.0149,0.0328,0.0083,0.6000,-3.3000,-180.6000,6.5400,0.1500,-7.3400,-0.0033,0.0076,-0.0011,-24.6875,4.0000,42.2500,309.8125,42.0000,-178.9375,0
1776972326.075,5.6192,7.6950,-1.4365,-0.0317,-0.0077,0.0160,-85.9500,38.8500,-22.6500,8.4300,-2.1500,-4.7908,-0.0160,0.0314,0.0091,-0.6000,-3.0000,-179.5500,6.5500,0.1200,-7.3100,-0.0033,0.0055,-0.0022,-24.6875,4.0000,42.2500,309.8125,42.0000,-178.9375,0
1776972326.083,5.6192,7.6543,-1.4533,-0.0317,-0.0077,0.0160,-84.7500,38.8500,-20.8500,8.3845,-2.1644,-4.7142,-0.0149,0.0277,0.0040,-0.3000,-1.5000,-181.2000,6.5600,0.1200,-7.3400,-0.0033,0.0065,-0.0011,-24.6875,4.0000,42.2500,309.8125,42.0000,-178.9375,0
1776972326.088,5.6192,7.6543,-1.4533,-0.0352,-0.0037,0.0141,-84.7500,38.8500,-20.8500,8.3845,-2.1644,-4.7142,-0.0149,0.0277,0.0040,-0.3000,-1.5000,-181.2000,6.5600,0.1200,-7.3400,-0.0033,0.0065,-0.0011,-24.6875,4.0000,42.2500,309.8125,42.0000,-178.9375,0
1776972326.096,5.6862,7.7692,-1.4700,-0.0328,-0.0091,0.0157,-85.3500,38.7000,-21.7500,8.4156,-2.1548,-4.7262,-0.0096,0.0277,0.0037,-0.3000,-1.5000,-181.2000,6.5500,0.1300,-7.3500,0.0000,0.0022,-0.0011,-24.6875,4.0000,42.2500,309.8125,42.0000,-178.9375,0
1776972326.105,5.6551,7.7045,-1.4653,-0.0365,-0.0016,0.0211,-84.7500,38.8500,-22.3500,8.3917,-2.1500,-4.7692,-0.0117,0.0282,0.0035,-1.3500,-3.0000,-180.9000,6.5400,0.1500,-7.3300,-0.0022,0.0022,-0.0011,-24.6875,4.0000,42.2500,309.8125,42.0000,-178.9375,0
1776972326.110,5.6551,7.7045,-1.4653,-0.0365,-0.0016,0.0211,-85.2000,39.3000,-21.6000,8.3917,-2.1500,-4.7692,-0.0117,0.0282,0.0035,-1.5000,-1.2000,-180.7500,6.5400,0.1500,-7.3300,0.0000,0.0033,-0.0011,-24.6875,3.2500,44.2500,309.8125,42.0000,-178.9375,0
1776972326.116,5.6743,7.6710,-1.4269,-0.0344,-0.0043,0.0179,-85.2000,39.3000,-21.6000,8.4036,-2.1620,-4.7716,-0.0093,0.0280,0.0011,-1.5000,-1.2000,-180.7500,6.5600,0.1400,-7.3100,0.0000,0.0033,-0.0011,-24.6875,3.2500,44.2500,309.8125,42.0000,-178.9375,0
1776972326.125,5.6790,7.7093,-1.4341,-0.0354,-0.0045,0.0192,-85.5000,38.8500,-21.6000,8.4348,-2.1620,-4.7908,-0.0160,0.0229,0.0027,0.4500,-3.1500,-181.0500,6.5500,0.1300,-7.3300,0.0011,0.0033,0.0000,-24.6875,3.2500,44.2500,309.8125,42.0000,-178.9375,0
1776972326.135,5.6982,7.6830,-1.5299,-0.0240,0.0003,0.0168,-85.5000,38.8500,-21.6000,8.4108,-2.1428,-4.8267,-0.0120,0.0242,0.0008,-1.2000,-2.7000,-180.7500,6.5400,0.1100,-7.3800,0.0033,0.0022,0.0033,-24.6875,3.2500,44.2500,309.8125,42.0000,-178.9375,0
1776972326.144,5.7150,7.7740,-1.5107,-0.0197,0.0005,0.0165,-85.0500,39.9000,-20.7000,8.3725,-2.1763,-4.8530,-0.0141,0.0224,-0.0048,-0.6000,-3.0000,-182.7000,6.5600,0.1300,-7.3200,0.0033,0.0011,-0.0011,-24.6875,3.2500,44.2500,309.8125,42.0000,-178.9375,0
1776972326.149,5.7150,7.7740,-1.5107,-0.0197,0.0005,0.0165,-85.0500,39.9000,-20.7000,8.3725,-2.1763,-4.8530,-0.0141,0.0224,-0.0048,-0.6000,-3.0000,-182.7000,6.5600,0.1300,-7.3200,0.0033,0.0011,-0.0011,-24.6875,3.2500,44.2500,309.8125,42.0000,-178.9375,0
1776972326.156,5.7102,7.6854,-1.5443,-0.0277,0.0003,0.0187,-85.0500,39.9000,-20.7000,8.3773,-2.1021,-4.7812,-0.0104,0.0242,-0.0056,-0.6000,-3.0000,-182.7000,6.5400,0.1700,-7.3000,0.0022,0.0000,0.0033,-24.6875,3.2500,44.2500,309.8125,42.0000,-178.9375,0
1776972326.161,5.7126,7.6662,-1.5467,-0.0213,0.0000,0.0179,-84.7500,37.6500,-21.9000,8.4324,-2.1165,-4.8076,-0.0152,0.0242,-0.0024,-0.9000,-4.2000,-181.0500,6.5400,0.1700,-7.3000,0.0033,-0.0022,0.0000,-25.5000,3.6875,43.5000,309.8125,42.0000,-178.9375,0
1776972326.166,5.7126,7.6662,-1.5467,-0.0213,0.0000,0.0179,-84.7500,37.6500,-21.9000,8.4324,-2.1165,-4.8076,-0.0152,0.0242,-0.0024,-0.9000,-4.2000,-181.0500,6.5400,0.1500,-7.3100,0.0033,-0.0022,0.0000,-25.5000,3.6875,43.5000,309.8125,42.0000,-178.9375,0
1776972326.176,5.6838,7.7021,-1.4892,-0.0192,0.0032,0.0184,-85.5000,40.0500,-22.3500,8.3797,-2.1261,-4.8243,-0.0067,0.0218,-0.0035,-0.9000,-3.1500,-178.9500,6.5500,0.1200,-7.2900,0.0033,0.0000,0.0022,-25.5000,3.6875,43.5000,309.8125,42.0000,-178.9375,0
1776972326.185,5.7485,7.6878,-1.5299,-0.0187,0.0013,0.0179,-86.1000,40.2000,-22.5000,8.4180,-2.1093,-4.8100,-0.0109,0.0248,-0.0072,0.1500,-2.7000,-181.5000,6.5600,0.1400,-7.3500,0.0044,-0.0033,0.0000,-25.5000,3.6875,43.5000,309.8125,42.0000,-178.9375,0
1776972326.195,5.7341,7.6638,-1.5706,-0.0232,0.0013,0.0109,-86.1000,39.0000,-22.5000,8.3989,-2.1620,-4.8315,-0.0051,0.0253,-0.0051,0.0000,-3.3000,-180.9000,6.5600,0.1200,-7.3300,0.0033,-0.0033,0.0022,-25.5000,3.6875,43.5000,309.8125,42.0000,-178.9375,0
1776972326.201,5.7126,7.6758,-1.4892,-0.0240,0.0037,0.0152,-85.9500,38.1000,-22.3500,8.4084,-2.0877,-4.8483,-0.0080,0.0240,-0.0051,0.0000,-3.3000,-180.9000,6.5400,0.1300,-7.3300,0.0033,-0.0033,0.0011,-25.5000,3.6875,43.5000,309.8125,42.0000,-178.9375,0
1776972326.207,5.7126,7.6758,-1.4892,-0.0240,0.0037,0.0152,-85.9500,38.1000,-22.3500,8.4084,-2.0877,-4.8483,-0.0080,0.0240,-0.0051,0.0000,-3.3000,-180.9000,6.5400,0.1300,-7.3300,0.0033,-0.0033,0.0011,-25.5000,3.6875,43.5000,309.8125,42.0000,-178.9375,0
1776972326.211,5.6838,7.6710,-1.5610,-0.0155,-0.0029,0.0128,-86.1000,39.9000,-22.5000,8.3845,-2.0997,-4.8339,-0.0083,0.0229,-0.0024,0.0000,-3.3000,-180.9000,6.5500,0.1200,-7.3300,0.0033,-0.0044,0.0022,-24.6875,3.6875,42.5625,309.8125,42.0000,-178.9375,0
1776972326.216,5.6838,7.6710,-1.5610,-0.0155,-0.0029,0.0128,-86.1000,39.9000,-22.5000,8.3845,-2.0997,-4.8339,-0.0083,0.0229,-0.0024,0.0000,-3.3000,-180.9000,6.5500,0.1200,-7.3300,0.0033,-0.0044,0.0022,-24.6875,3.6875,42.5625,309.8125,42.0000,-178.9375,0
1776972326.225,5.6910,7.6567,-1.5323,-0.0184,0.0019,0.0133,-86.1000,39.9000,-22.5000,8.3725,-2.1308,-4.8818,-0.0101,0.0253,-0.0037,-0.3000,-3.3000,-179.8500,6.5400,0.1000,-7.3200,0.0033,-0.0044,0.0011,-24.6875,3.6875,42.5625,309.8125,42.0000,-178.9375,0
1776972326.235,5.7269,7.7452,-1.4748,-0.0144,0.0027,0.0128,-84.7500,38.1000,-23.1000,8.4252,-2.1237,-4.8818,-0.0115,0.0256,-0.0051,1.2000,-4.6500,-180.7500,6.5500,0.1200,-7.3300,0.0044,-0.0033,-0.0011,-24.6875,3.6875,42.5625,309.8125,42.0000,-178.9375,0
1776972326.244,5.7150,7.6423,-1.6209,-0.0205,-0.0013,0.0123,-84.7500,38.1000,-23.1000,8.3701,-2.0758,-4.8219,-0.0144,0.0293,-0.0019,0.0000,-3.0000,-180.1500,6.5400,0.1000,-7.3700,0.0033,-0.0022,0.0022,-24.6875,3.6875,42.5625,309.8125,42.0000,-178.9375,0
1776972326.249,5.7221,7.6758,-1.5682,-0.0232,-0.0011,0.0139,-84.7500,38.1000,-23.1000,8.3989,-2.0782,-4.8459,-0.0099,0.0258,-0.0051,0.1500,-3.9000,-180.7500,6.5400,0.1000,-7.3700,0.0033,-0.0022,0.0022,-24.6875,3.6875,42.5625,309.8125,42.0000,-178.9375,0
1776972326.256,5.6982,7.6974,-1.5443,-0.0232,-0.0011,0.0139,-84.7500,38.8500,-21.9000,8.3989,-2.0782,-4.8459,-0.0099,0.0258,-0.0051,0.1500,-3.9000,-180.7500,6.5300,0.1200,-7.3300,0.0033,-0.0033,0.0011,-24.6875,3.6875,42.5625,309.8125,42.0000,-178.9375,0
1776972326.261,5.6982,7.6974,-1.5443,-0.0242,-0.0005,0.0144,-84.7500,38.8500,-21.9000,8.4443,-2.0710,-4.8363,-0.0109,0.0293,-0.0024,0.1500,-3.9000,-180.7500,6.5300,0.1200,-7.3300,0.0033,-0.0065,0.0022,-24.6875,3.2500,43.0625,309.8125,42.0000,-178.9375,0
1776972326.266,5.6360,7.6782,-1.5826,-0.0301,-0.0016,0.0096,-85.5000,40.0500,-21.1500,8.4443,-2.0710,-4.8363,-0.0109,0.0325,-0.0008,0.1500,-3.9000,-180.7500,6.5400,0.1100,-7.3400,0.0033,-0.0065,0.0022,-24.6875,3.2500,43.0625,309.8125,42.0000,-178.9375,0
1776972326.276,5.7365,7.7285,-1.5299,-0.0301,-0.0016,0.0096,-85.8000,39.0000,-21.7500,8.4539,-2.1045,-4.8794,-0.0109,0.0325,-0.0008,0.9000,-3.9000,-181.0500,6.5300,0.1200,-7.3000,0.0033,-0.0065,0.0033,-24.6875,3.2500,43.0625,309.8125,42.0000,-178.9375,0
1776972326.285,5.7197,7.7093,-1.5754,-0.0298,0.0005,0.0152,-85.5000,38.1000,-22.6500,8.4204,-2.0758,-4.7908,-0.0131,0.0312,0.0011,-1.5000,-2.7000,-180.3000,6.5300,0.1400,-7.3600,0.0044,-0.0055,0.0000,-24.6875,3.2500,43.0625,309.8125,42.0000,-178.9375,0
1776972326.294,5.6407,7.7405,-1.5083,-0.0293,-0.0037,0.0165,-86.5500,40.6500,-21.0000,8.4731,-2.0853,-4.8554,-0.0104,0.0288,0.0003,-0.3000,-2.2500,-180.6000,6.5500,0.1200,-7.3100,0.0022,-0.0065,-0.0011,-24.6875,3.2500,43.0625,309.8125,42.0000,-178.9375,0
1776972326.299,5.6407,7.7405,-1.5083,-0.0277,-0.0043,0.0109,-86.5500,40.6500,-21.0000,8.3749,-2.0518,-4.8219,-0.0099,0.0378,0.0003,0.4500,-2.4000,-180.7500,6.5500,0.1200,-7.3100,0.0022,-0.0065,-0.0011,-24.6875,3.2500,43.0625,309.8125,42.0000,-178.9375,0
1776972326.306,5.6431,7.6854,-1.5467,-0.0306,-0.0040,0.0152,-86.2500,38.8500,-22.3500,8.3965,-2.0901,-4.8219,-0.0061,0.0333,0.0029,-1.8000,-2.5500,-180.1500,6.5500,0.1100,-7.3200,0.0011,-0.0033,-0.0022,-24.6875,3.2500,43.0625,309.8125,42.0000,-178.9375,0
1776972326.311,5.6431,7.6854,-1.5467,-0.0306,-0.0040,0.0152,-86.2500,38.8500,-22.3500,8.3965,-2.0901,-4.8219,-0.0061,0.0333,0.0029,-1.8000,-2.5500,-180.1500,6.5500,0.1100,-7.3200,0.0011,0.0011,0.0011,-24.0000,3.6875,43.7500,309.8125,42.0000,-178.9375,0
1776972326.317,5.6623,7.7357,-1.5203,-0.0304,-0.0021,0.0109,-86.2500,38.8500,-22.3500,8.4683,-2.1141,-4.8650,-0.0117,0.0368,0.0043,-1.8000,-2.5500,-180.1500,6.5400,0.1100,-7.3300,0.0011,0.0011,0.0011,-24.0000,3.6875,43.7500,309.8125,42.0000,-178.9375,0
1776972326.326,5.6982,7.6806,-1.6137,-0.0298,0.0011,0.0109,-85.0500,39.4500,-22.9500,8.4204,-2.0949,-4.8650,-0.0109,0.0328,0.0048,-1.8000,-2.5500,-180.1500,6.5300,0.1300,-7.3400,0.0000,-0.0022,-0.0011,-24.0000,3.6875,43.7500,309.8125,42.0000,-178.9375,0
1776972326.336,5.6647,7.7189,-1.5347,-0.0290,-0.0027,0.0123,-85.0500,39.4500,-22.9500,8.3869,-2.0973,-4.7788,-0.0115,0.0330,-0.0005,0.1500,-3.4500,-180.3000,6.5400,0.1400,-7.3500,0.0000,-0.0011,0.0000,-24.0000,3.6875,43.7500,309.8125,42.0000,-178.9375,0
1776972326.345,5.6383,7.6399,-1.5060,-0.0330,-0.0021,0.0104,-85.9500,39.3000,-22.3500,8.4204,-2.1572,-4.7908,-0.0093,0.0298,0.0075,0.4500,-4.9500,-179.2500,6.5400,0.1400,-7.3300,-0.0022,0.0011,-0.0011,-24.0000,3.6875,43.7500,309.8125,42.0000,-178.9375,0
1776972326.350,5.6383,7.6399,-1.5060,-0.0330,-0.0021,0.0104,-85.9500,39.3000,-22.3500,8.4204,-2.1572,-4.7908,-0.0093,0.0298,0.0075,-0.1500,-3.4500,-180.7500,6.5400,0.1400,-7.3300,-0.0022,0.0011,-0.0011,-24.0000,3.6875,43.7500,309.8125,42.0000,-178.9375,0
1776972326.357,5.6886,7.6662,-1.5203,-0.0357,-0.0040,0.0101,-85.0500,37.5000,-22.2000,8.4515,-2.0973,-4.8291,-0.0160,0.0320,0.0045,0.9000,-2.4000,-180.3000,6.5400,0.1300,-7.3200,0.0011,0.0000,0.0022,-24.0000,3.6875,43.7500,309.8125,42.0000,-178.9375,0
1776972326.361,5.6599,7.7117,-1.5107,-0.0357,-0.0040,0.0101,-85.0500,37.5000,-22.2000,8.4515,-2.0973,-4.8291,-0.0160,0.0320,0.0045,0.9000,-2.4000,-180.3000,6.5400,0.1300,-7.3200,0.0022,-0.0011,-0.0011,-24.6875,3.6875,42.6875,309.8125,42.0000,-178.9375,0
1776972326.367,5.6599,7.7117,-1.5107,-0.0341,-0.0083,0.0149,-85.0500,38.7000,-21.7500,8.3797,-2.0734,-4.8076,-0.0088,0.0296,0.0005,-1.0500,-2.5500,-180.9000,6.5400,0.1200,-7.3300,0.0022,-0.0011,-0.0011,-24.6875,3.6875,42.6875,309.8125,42.0000,-178.9375,0
1776972326.376,5.6240,7.6950,-1.4940,-0.0362,-0.0035,0.0176,-85.2000,40.5000,-23.1000,8.4156,-2.1045,-4.7836,-0.0085,0.0320,0.0043,-1.0500,-2.5500,-180.9000,6.5200,0.1300,-7.3100,0.0000,0.0000,0.0000,-24.6875,3.6875,42.6875,309.8125,42.0000,-178.9375,0
1776972326.386,5.7365,7.6614,-1.5562,-0.0365,-0.0045,0.0109,-83.7000,39.3000,-21.9000,8.4300,-2.1237,-4.8339,-0.0091,0.0277,0.0069,-0.1500,-3.1500,-180.3000,6.5300,0.1300,-7.3600,0.0011,-0.0022,0.0011,-24.6875,3.6875,42.6875,309.8125,42.0000,-178.9375,0
1776972326.395,5.6719,7.6423,-1.5083,-0.0296,-0.0037,0.0189,-85.8000,39.0000,-22.5000,8.3653,-2.0901,-4.8052,-0.0077,0.0280,0.0029,-0.1500,-3.1500,-180.3000,6.5500,0.1400,-7.3200,0.0011,0.0000,0.0022,-24.6875,3.6875,42.6875,309.8125,42.0000,-178.9375,0
1776972326.400,5.6719,7.6423,-1.5083,-0.0296,-0.0037,0.0189,-85.8000,39.0000,-22.5000,8.3653,-2.0901,-4.8052,-0.0077,0.0280,0.0029,0.4500,-1.6500,-181.0500,6.5500,0.1400,-7.3200,0.0011,0.0000,0.0022,-24.6875,3.6875,42.6875,309.8125,42.0000,-178.9375,0
1776972326.407,5.6838,7.7452,-1.4676,-0.0352,-0.0043,0.0157,-85.8000,39.0000,-22.5000,8.4731,-2.2122,-4.8123,-0.0139,0.0296,0.0037,-0.6000,-3.0000,-180.1500,6.5500,0.1200,-7.3100,0.0011,0.0033,0.0000,-24.6875,3.6875,42.6875,309.8125,42.0000,-178.9375,0
1776972326.411,5.6312,7.7285,-1.5203,-0.0280,0.0016,0.0173,-85.8000,39.0000,-22.5000,8.4731,-2.2122,-4.8123,-0.0099,0.0296,0.0056,-0.6000,-3.0000,-180.1500,6.5500,0.1200,-7.3100,0.0011,-0.0011,0.0000,-24.0000,2.8750,43.0625,309.8125,42.0000,-178.9375,0
1776972326.417,5.6312,7.7285,-1.5203,-0.0280,0.0016,0.0173,-85.3500,39.4500,-20.7000,8.4084,-2.1644,-4.8219,-0.0099,0.0296,0.0056,0.0000,-4.0500,-181.6500,6.5400,0.1300,-7.3200,0.0011,-0.0011,0.0000,-24.0000,2.8750,43.0625,309.8125,42.0000,-178.9375,0
1776972326.426,5.6862,7.7285,-1.4940,-0.0280,0.0003,0.0160,-85.3500,39.4500,-20.7000,8.4180,-2.1093,-4.8411,-0.0123,0.0312,0.0027,0.0000,-4.0500,-181.6500,6.5300,0.1400,-7.3200,0.0011,0.0022,0.0000,-24.0000,2.8750,43.0625,309.8125,42.0000,-178.9375,0
1776972326.436,5.6000,7.7069,-1.5490,-0.0229,-0.0101,0.0184,-84.6000,39.4500,-22.5000,8.4060,-2.1284,-4.7381,-0.0101,0.0317,0.0032,0.0000,-4.0500,-181.6500,6.5500,0.1400,-7.3200,0.0000,0.0033,0.0000,-24.0000,2.8750,43.0625,309.8125,42.0000,-178.9375,0
1776972326.445,5.5952,7.7285,-1.4700,-0.0272,-0.0016,0.0181,-85.2000,39.6000,-22.3500,8.3893,-2.1069,-4.8291,-0.0096,0.0277,0.0043,-0.9000,-2.7000,-180.7500,6.5600,0.1300,-7.3100,0.0022,0.0000,0.0000,-24.0000,2.8750,43.0625,309.8125,42.0000,-178.9375,0
1776972326.452,5.6958,7.6686,-1.4988,-0.0360,-0.0045,0.0205,-85.2000,39.6000,-22.3500,8.4252,-2.0949,-4.7884,-0.0064,0.0322,0.0053,-0.9000,-2.7000,-180.7500,6.5600,0.1400,-7.3000,0.0022,-0.0033,-0.0011,-24.0000,2.8750,43.0625,309.8125,42.0000,-178.9375,0
1776972326.457,5.6958,7.6686,-1.4988,-0.0360,-0.0045,0.0205,-84.6000,37.9500,-21.4500,8.4252,-2.0949,-4.7884,-0.0064,0.0322,0.0053,0.3000,-2.5500,-180.6000,6.5600,0.1400,-7.3000,0.0022,-0.0033,-0.0011,-24.0000,2.8750,43.0625,309.8125,42.0000,-178.9375,0
1776972326.462,5.6336,7.7093,-1.4748,-0.0333,-0.0035,0.0216,-84.6000,37.9500,-21.4500,8.4204,-2.0997,-4.8076,-0.0104,0.0328,0.0013,0.3000,-2.5500,-180.6000,6.5400,0.1300,-7.3200,0.0011,-0.0044,0.0033,-25.0625,3.6875,42.2500,309.8125,42.0000,-178.9375,0
1776972326.467,5.6336,7.7093,-1.4748,-0.0333,-0.0035,0.0216,-85.3500,38.7000,-22.2000,8.4204,-2.0997,-4.8076,-0.0104,0.0328,0.0013,-0.6000,-2.5500,-180.6000,6.5400,0.1300,-7.3200,0.0011,-0.0044,0.0033,-25.0625,3.6875,42.2500,309.8125,42.0000,-178.9375,0
1776972326.476,5.6623,7.6686,-1.4581,-0.0341,-0.0059,0.0179,-85.8000,38.2500,-22.2000,8.4443,-2.1117,-4.8243,-0.0136,0.0256,0.0051,-0.6000,-1.5000,-179.5500,6.5600,0.1200,-7.3100,0.0033,-0.0022,0.0022,-25.0625,3.6875,42.2500,309.8125,42.0000,-178.9375,0
1776972326.486,5.6719,7.6830,-1.5012,-0.0330,-0.0037,0.0189,-85.3500,38.2500,-22.9500,8.4036,-2.1141,-4.8243,-0.0099,0.0266,0.0064,-0.6000,-1.5000,-179.5500,6.5500,0.1200,-7.3500,0.0022,-0.0033,0.0011,-25.0625,3.6875,42.2500,309.8125,42.0000,-178.9375,0
1776972326.495,5.7030,7.7117,-1.5131,-0.0317,-0.0053,0.0195,-85.3500,38.2500,-22.9500,8.4683,-2.1476,-4.7980,-0.0112,0.0269,-0.0005,-1.3500,-3.0000,-179.8500,6.5300,0.1200,-7.3300,0.0044,-0.0033,0.0000,-25.0625,3.6875,42.2500,309.8125,42.0000,-178.9375,0
1776972326.500,5.6743,7.6998,-1.5179,-0.0290,0.0032,0.0200,-85.3500,38.2500,-22.9500,8.4539,-2.0877,-4.8507,-0.0077,0.0304,0.0013,-1.3500,-3.0000,-179.8500,6.5300,0.1200,-7.3300,0.0033,-0.0011,-0.0011,-25.0625,3.6875,42.2500,309.8125,42.0000,-178.9375,0
1776972326.507,5.6336,7.6998,-1.5275,-0.0269,-0.0016,0.0200,-84.1500,39.0000,-21.4500,8.4539,-2.0877,-4.8507,-0.0077,0.0304,0.0013,0.9000,-1.2000,-180.3000,6.5300,0.1300,-7.3300,0.0033,-0.0011,-0.0011,-25.0625,3.6875,42.2500,309.8125,42.0000,-178.9375,0
1776972326.512,5.6336,7.6998,-1.5275,-0.0269,-0.0016,0.0200,-84.1500,39.0000,-21.4500,8.4587,-2.0997,-4.8219,-0.0059,0.0240,0.0056,0.9000,-1.2000,-180.3000,6.5300,0.1300,-7.3300,0.0011,0.0000,0.0000,-24.0000,3.6875,43.0625,309.8125,42.0000,-178.9375,0
1776972326.517,5.6551,7.6806,-1.5060,-0.0213,-0.0008,0.0123,-84.1500,39.0000,-21.4500,8.4587,-2.0997,-4.8219,-0.0059,0.0240,0.0056,-1.0500,-1.8000,-181.6500,6.5200,0.1300,-7.3300,0.0011,0.0000,0.0000,-24.0000,3.6875,43.0625,309.8125,42.0000,-178.9375,0
1776972326.526,5.7030,7.6902,-1.5060,-0.0205,-0.0005,0.0155,-84.1500,38.7000,-21.0000,8.4467,-2.1739,-4.8794,-0.0160,0.0277,-0.0005,-1.8000,-4.0500,-180.6000,6.5300,0.1300,-7.3500,0.0011,0.0033,0.0011,-24.0000,3.6875,43.0625,309.8125,42.0000,-178.9375,0
1776972326.536,5.6144,7.7045,-1.4724,-0.0221,-0.0027,0.0147,-84.7500,38.1000,-22.3500,8.4276,-2.1524,-4.7980,-0.0069,0.0240,0.0003,-1.0500,-4.5000,-180.1500,6.5300,0.1400,-7.3600,0.0033,0.0011,0.0044,-24.0000,3.6875,43.0625,309.8125,42.0000,-178.9375,0
1776972326.546,5.6838,7.6255,-1.5275,-0.0229,-0.0037,0.0152,-85.3500,39.4500,-21.4500,8.4707,-2.1500,-4.8315,-0.0093,0.0245,0.0037,-1.0500,-4.5000,-180.1500,6.5500,0.1200,-7.3200,0.0000,0.0076,0.0022,-24.0000,3.6875,43.0625,309.8125,42.0000,-178.9375,0
1776972326.552,5.6838,7.6255,-1.5275,-0.0229,-0.0037,0.0152,-85.3500,39.4500,-21.4500,8.3821,-2.0351,-4.8530,-0.0163,0.0211,0.0048,-1.3500,-4.5000,-180.1500,6.5600,0.1100,-7.3200,0.0022,0.0065,0.0000,-24.0000,3.6875,43.0625,309.8125,42.0000,-178.9375,0
1776972326.557,5.6743,7.6926,-1.5155,-0.0304,-0.0085,0.0168,-85.9500,41.2500,-21.9000,8.3821,-2.0542,-4.8507,-0.0101,0.0221,-0.0056,-1.3500,-3.7500,-181.2000,6.5600,0.1100,-7.3200,0.0022,0.0065,0.0000,-24.0000,3.6875,43.0625,309.8125,42.0000,-178.9375,0
1776972326.562,5.6743,7.6926,-1.5155,-0.0304,-0.0085,0.0168,-85.9500,41.2500,-21.9000,8.3821,-2.0542,-4.8507,-0.0101,0.0221,-0.0056,0.1500,-3.1500,-180.0000,6.5600,0.1200,-7.3000,0.0011,0.0044,0.0011,-24.2500,4.0000,42.5625,309.8125,42.0000,-178.9375,0
1776972326.567,5.6719,7.6686,-1.4796,-0.0352,-0.0005,0.0155,-85.5000,39.6000,-21.6000,8.3773,-2.0997,-4.8459,-0.0189,0.0290,0.0013,0.1500,-3.1500,-180.0000,6.5600,0.1200,-7.3000,0.0011,0.0044,0.0011,-24.2500,4.0000,42.5625,309.8125,42.0000,-178.9375,0
1776972326.576,5.6838,7.6255,-1.4916,-0.0397,-0.0072,0.0168,-83.2500,40.5000,-22.3500,8.3606,-2.0710,-4.8554,-0.0136,0.0277,0.0003,-0.1500,-3.4500,-179.7000,6.5400,0.1200,-7.3100,0.0033,0.0022,0.0022,-24.2500,4.0000,42.5625,309.8125,42.0000,-178.9375,0
1776972326.586,5.6767,7.6543,-1.5443,-0.0301,-0.0013,0.0173,-83.2500,40.5000,-22.3500,8.3845,-2.0901,-4.8483,-0.0083,0.0282,0.0013,2.1000,-3.0000,-179.8500,6.5500,0.1200,-7.3300,0.0011,-0.0022,0.0011,-24.2500,4.0000,42.5625,309.8125,42.0000,-178.9375,0
1776972326.595,5.6862,7.6950,-1.5060,-0.0314,-0.0037,0.0123,-84.4500,38.8500,-21.9000,8.3845,-2.0901,-4.8483,-0.0045,0.0277,-0.0029,0.4500,-3.9000,-182.1000,6.5400,0.1400,-7.3300,0.0011,0.0022,0.0000,-24.2500,4.0000,42.5625,309.8125,42.0000,-178.9375,0
1776972326.600,5.6862,7.6950,-1.5060,-0.0314,-0.0037,0.0123,-84.4500,38.8500,-21.9000,8.3965,-2.1045,-4.7645,-0.0045,0.0277,-0.0029,0.4500,-3.9000,-182.1000,6.5400,0.1400,-7.3300,0.0033,-0.0033,0.0022,-24.2500,4.0000,42.5625,309.8125,42.0000,-178.9375,0
1776972326.607,5.6958,7.6567,-1.6065,-0.0288,-0.0013,0.0149,-84.4500,38.8500,-21.9000,8.4372,-2.1021,-4.8770,-0.0115,0.0314,0.0040,0.4500,-3.9000,-182.1000,6.5300,0.1400,-7.3100,0.0033,-0.0033,0.0022,-24.2500,4.0000,42.5625,309.8125,42.0000,-178.9375,0
1776972326.612,5.7293,7.6950,-1.5706,-0.0288,-0.0013,0.0149,-84.4500,38.8500,-21.9000,8.4372,-2.1021,-4.8770,-0.0115,0.0314,0.0040,-0.1500,-1.9500,-182.1000,6.5300,0.1400,-7.3100,0.0033,-0.0033,0.0000,-25.0625,4.0000,43.0625,309.8125,42.0000,-178.9375,0
1776972326.617,5.7293,7.6950,-1.5706,-0.0282,-0.0053,0.0155,-85.0500,39.9000,-20.7000,8.3797,-2.1189,-4.8435,-0.0109,0.0298,0.0011,-0.1500,-1.9500,-182.1000,6.5600,0.1100,-7.3200,0.0033,-0.0033,0.0000,-25.0625,4.0000,43.0625,309.8125,42.0000,-178.9375,0
1776972326.626,5.6886,7.6638,-1.5251,-0.0290,-0.0059,0.0141,-85.0500,40.2000,-21.7500,8.3941,-2.0949,-4.8459,-0.0080,0.0330,0.0037,-0.1500,-1.6500,-181.0500,6.5500,0.1300,-7.3500,0.0011,0.0000,0.0000,-25.0625,4.0000,43.0625,309.8125,42.0000,-178.9375,0
1776972326.636,5.6910,7.6854,-1.5850,-0.0306,-0.0027,0.0125,-84.6000,39.4500,-22.9500,8.4372,-2.1452,-4.8937,-0.0133,0.0338,-0.0005,-1.2000,-3.4500,-180.3000,6.5400,0.1200,-7.3400,-0.0011,0.0022,-0.0011,-25.0625,4.0000,43.0625,309.8125,42.0000,-178.9375,0
1776972326.645,5.6958,7.7021,-1.4844,-0.0304,-0.0032,0.0141,-84.6000,39.4500,-22.9500,8.4180,-2.1189,-4.8315,-0.0115,0.0320,0.0016,-1.2000,-3.1500,-182.1000,6.5500,0.1500,-7.3300,-0.0022,0.0000,-0.0011,-25.0625,4.0000,43.0625,309.8125,42.0000,-178.9375,0
1776972326.650,5.7150,7.6662,-1.5323,-0.0304,-0.0032,0.0141,-85.3500,38.7000,-21.0000,8.4180,-2.1189,-4.8315,-0.0115,0.0320,0.0016,0.0000,-2.5500,-180.9000,6.5500,0.1500,-7.3300,-0.0022,0.0000,-0.0011,-25.0625,4.0000,43.0625,309.8125,42.0000,-178.9375,0
1776972326.657,5.7150,7.6662,-1.5323,-0.0301,-0.0011,0.0085,-83.8500,38.7000,-21.7500,8.4156,-2.0830,-4.8363,-0.0165,0.0312,0.0008,0.0000,-2.5500,-180.9000,6.5300,0.1100,-7.3200,-0.0033,-0.0011,-0.0011,-25.0625,4.0000,43.0625,309.8125,42.0000,-178.9375,0
1776972326.662,5.6862,7.6806,-1.5586,-0.0288,-0.0027,0.0117,-83.8500,38.7000,-21.7500,8.4156,-2.0830,-4.8363,-0.0165,0.0312,0.0008,0.0000,-2.5500,-180.9000,6.5300,0.1100,-7.3200,0.0000,-0.0011,0.0011,-24.0000,3.6875,43.0625,309.8125,42.0000,-178.9375,0
1776972326.667,5.6862,7.6806,-1.5586,-0.0288,-0.0027,0.0117,-85.3500,39.0000,-21.7500,8.3653,-2.1572,-4.8171,-0.0117,0.0328,-0.0019,0.0000,-2.5500,-180.9000,6.5600,0.1100,-7.3400,0.0000,-0.0011,0.0011,-24.0000,3.6875,43.0625,309.8125,42.0000,-178.9375,0
1776972326.677,5.6671,7.6758,-1.5107,-0.0341,-0.0011,0.0088,-85.3500,39.0000,-21.7500,8.3845,-2.0590,-4.8435,-0.0083,0.0304,-0.0021,1.0500,-3.3000,-180.1500,6.5600,0.1300,-7.3100,-0.0011,0.0000,0.0000,-24.0000,3.6875,43.0625,309.8125,42.0000,-178.9375,0
1776972326.686,5.6623,7.6591,-1.4868,-0.0261,-0.0045,0.0176,-85.0500,39.4500,-21.0000,8.3414,-2.1189,-4.8818,-0.0107,0.0362,-0.0021,0.6000,-2.5500,-180.6000,6.5300,0.1400,-7.3700,-0.0011,-0.0022,-0.0011,-24.0000,3.6875,43.0625,309.8125,42.0000,-178.9375,0
1776972326.696,5.6407,7.6447,-1.5443,-0.0338,-0.0045,0.0128,-85.0500,39.4500,-21.0000,8.4060,-2.1428,-4.8291,-0.0163,0.0309,0.0027,-0.3000,-1.5000,-179.1000,6.5400,0.1300,-7.3100,-0.0022,-0.0011,-0.0011,-24.0000,3.6875,43.0625,309.8125,42.0000,-178.9375,0
1776972326.702,5.6264,7.6614,-1.5299,-0.0301,-0.0016,0.0131,-85.0500,39.4500,-21.0000,8.3318,-2.0758,-4.8315,-0.0117,0.0330,0.0003,-0.1500,-1.9500,-180.7500,6.5400,0.1300,-7.3100,-0.0022,-0.0011,-0.0011,-24.0000,3.6875,43.0625,309.8125,42.0000,-178.9375,0
1776972326.708,5.6647,7.7093,-1.4748,-0.0301,-0.0016,0.0131,-85.2000,38.1000,-22.3500,8.3318,-2.0758,-4.8315,-0.0117,0.0330,0.0003,-0.1500,-1.9500,-180.7500,6.5500,0.1300,-7.3000,-0.0022,-0.0011,-0.0011,-24.0000,3.6875,43.0625,309.8125,42.0000,-178.9375,0
1776972326.713,5.6647,7.7093,-1.4748,-0.0290,-0.0011,0.0120,-85.2000,38.1000,-22.3500,8.4467,-2.0614,-4.7669,-0.0123,0.0362,0.0043,-0.1500,-1.9500,-180.7500,6.5500,0.1200,-7.3200,-0.0011,-0.0022,0.0000,-24.6875,3.6875,42.2500,309.8125,42.0000,-178.9375,0
1776972326.718,5.6072,7.7931,-1.4916,-0.0290,-0.0011,0.0120,-86.7000,38.8500,-21.6000,8.4467,-2.0614,-4.7669,-0.0123,0.0362,0.0043,-0.1500,-1.9500,-180.7500,6.5500,0.1200,-7.3200,-0.0011,-0.0022,0.0000,-24.6875,3.6875,42.2500,309.8125,42.0000,-178.9375,0
1776972326.727,5.6527,7.7117,-1.4772,-0.0309,-0.0037,0.0144,-84.4500,40.5000,-22.3500,8.4060,-2.1093,-4.7836,-0.0069,0.0312,0.0003,-0.1500,-1.9500,-180.7500,6.5400,0.1400,-7.3400,0.0000,-0.0033,-0.0011,-24.6875,3.6875,42.2500,309.8125,42.0000,-178.9375,0
1776972326.737,5.6575,7.6902,-1.5538,-0.0242,-0.0032,0.0131,-85.2000,38.5500,-20.8500,8.4396,-2.0806,-4.7788,-0.0093,0.0288,-0.0024,0.3000,-3.3000,-179.5500,6.5400,0.1400,-7.3300,-0.0011,-0.0065,-0.0011,-24.6875,3.6875,42.2500,309.8125,42.0000,-178.9375,0
1776972326.746,5.6814,7.7596,-1.4796,-0.0269,-0.0005,0.0133,-84.1500,40.6500,-22.2000,8.4731,-2.1596,-4.8339,-0.0125,0.0322,-0.0008,-0.1500,-3.1500,-181.5000,6.5500,0.1500,-7.3300,0.0011,-0.0044,-0.0011,-24.6875,3.6875,42.2500,309.8125,42.0000,-178.9375,0
1776972326.755,5.6814,7.7596,-1.4796,-0.0277,-0.0027,0.0115,-84.1500,40.6500,-22.2000,8.4731,-2.0303,-4.8028,-0.0099,0.0312,0.0005,-1.5000,-2.4000,-179.2500,6.5300,0.1200,-7.3500,0.0022,-0.0044,0.0000,-24.6875,3.6875,42.2500,309.8125,42.0000,-178.9375,0
1776972326.759,5.6767,7.7333,-1.4772,-0.0272,-0.0056,0.0163,-85.3500,39.9000,-21.7500,8.4731,-2.0303,-4.8028,-0.0099,0.0312,0.0005,-0.9000,-0.4500,-181.5000,6.5300,0.1200,-7.3500,0.0022,-0.0044,0.0000,-24.6875,3.6875,42.2500,309.8125,42.0000,-178.9375,0
1776972326.764,5.6767,7.7333,-1.4772,-0.0272,-0.0056,0.0163,-85.3500,39.9000,-21.7500,8.4443,-2.1261,-4.7621,-0.0088,0.0285,0.0000,-0.9000,-0.4500,-181.5000,6.5300,0.1300,-7.3200,0.0000,-0.0055,0.0000,-24.2500,3.6875,43.0625,309.8125,42.0000,-178.9375,0
1776972326.769,5.6312,7.6950,-1.5083,-0.0253,-0.0029,0.0195,-85.3500,39.9000,-21.7500,8.4443,-2.1261,-4.7621,-0.0088,0.0285,0.0000,-0.9000,-0.4500,-181.5000,6.5300,0.1300,-7.3200,0.0000,-0.0055,0.0000,-24.2500,3.6875,43.0625,309.8125,42.0000,-178.9375,0
1776972326.777,5.6240,7.7572,-1.4868,-0.0280,0.0043,0.0144,-85.2000,38.8500,-20.8500,8.3725,-2.1739,-4.8052,-0.0085,0.0288,-0.0021,-0.9000,-0.4500,-181.5000,6.5300,0.1300,-7.3100,-0.0022,-0.0022,-0.0011,-24.2500,3.6875,43.0625,309.8125,42.0000,-178.9375,0
1776972326.787,5.6383,7.7500,-1.5131,-0.0218,-0.0029,0.0157,-85.2000,38.8500,-20.8500,8.4060,-2.1380,-4.8267,-0.0112,0.0266,0.0019,-0.1500,-1.9500,-181.8000,6.5300,0.1100,-7.3500,-0.0022,-0.0022,0.0000,-24.2500,3.6875,43.0625,309.8125,42.0000,-178.9375,0
1776972326.796,5.6719,7.6758,-1.5514,-0.0314,-0.0032,0.0224,-85.8000,39.9000,-20.8500,8.3558,-2.1117,-4.8028,-0.0131,0.0272,-0.0013,-0.1500,-3.9000,-181.5000,6.5600,0.1400,-7.3200,-0.0011,-0.0011,0.0011,-24.2500,3.6875,43.0625,309.8125,42.0000,-178.9375,0
1776972326.805,5.6312,7.7309,-1.4964,-0.0322,-0.0029,0.0171,-85.8000,39.9000,-22.2000,8.4204,-2.0853,-4.8028,-0.0109,0.0240,0.0000,-1.2000,-3.4500,-181.5000,6.5600,0.1200,-7.3500,-0.0011,0.0000,0.0000,-24.2500,3.6875,43.0625,309.8125,42.0000,-178.9375,0
1776972326.810,5.6312,7.7309,-1.4964,-0.0322,-0.0029,0.0171,-85.2000,37.3500,-22.3500,8.4587,-2.1284,-4.7836,-0.0093,0.0253,0.0043,-0.3000,-3.7500,-180.6000,6.5600,0.1200,-7.3500,-0.0011,0.0000,0.0000,-24.2500,3.6875,43.0625,309.8125,42.0000,-178.9375,0
1776972326.817,5.6647,7.6926,-1.5251,-0.0322,0.0005,0.0155,-85.8000,38.2500,-22.5000,8.4587,-2.1284,-4.7836,-0.0093,0.0253,0.0043,-0.3000,-3.7500,-180.6000,6.5600,0.1400,-7.3100,-0.0011,0.0033,0.0000,-25.0625,3.2500,43.5000,309.8125,42.0000,-178.9375,0
1776972326.827,5.6695,7.6902,-1.5371,-0.0306,0.0005,0.0163,-85.8000,38.2500,-22.5000,8.4396,-2.1021,-4.8818,-0.0125,0.0272,0.0005,0.6000,-3.3000,-181.2000,6.5400,0.1500,-7.3400,0.0022,0.0011,-0.0011,-25.0625,3.2500,43.5000,309.8125,42.0000,-178.9375,0
1776972326.836,5.7293,7.7237,-1.5203,-0.0357,-0.0099,0.0184,-83.8500,39.4500,-22.2000,8.4252,-2.0877,-4.8243,-0.0123,0.0237,0.0067,0.6000,-3.3000,-181.2000,6.5500,0.1300,-7.3300,-0.0011,-0.0011,0.0022,-25.0625,3.2500,43.5000,309.8125,42.0000,-178.9375,0
1776972326.840,5.7293,7.7237,-1.5203,-0.0357,-0.0099,0.0184,-85.0500,38.7000,-22.2000,8.3965,-2.1141,-4.7884,-0.0125,0.0253,0.0032,0.6000,-3.7500,-180.1500,6.5500,0.1300,-7.3300,-0.0011,-0.0011,0.0022,-25.0625,3.2500,43.5000,309.8125,42.0000,-178.9375,0
1776972326.847,5.6958,7.7093,-1.5538,-0.0304,-0.0040,0.0221,-85.2000,39.6000,-20.8500,8.3701,-2.1284,-4.8315,-0.0128,0.0218,0.0027,-0.1500,-3.1500,-181.0500,6.5400,0.1400,-7.3500,0.0000,0.0000,-0.0011,-25.0625,3.2500,43.5000,309.8125,42.0000,-178.9375,0
1776972326.857,5.7341,7.6854,-1.5826,-0.0306,-0.0021,0.0176,-85.2000,39.6000,-20.8500,8.4372,-2.1237,-4.8459,-0.0112,0.0301,0.0011,-0.1500,-1.9500,-181.0500,6.5500,0.1600,-7.3400,0.0011,0.0000,0.0011,-25.0625,3.2500,43.5000,309.8125,42.0000,-178.9375,0
1776972326.862,5.7006,7.6734,-1.5826,-0.0306,-0.0021,0.0176,-85.2000,39.6000,-20.8500,8.4372,-2.1237,-4.8459,-0.0112,0.0301,0.0011,-0.1500,-1.9500,-181.0500,6.5500,0.1600,-7.3400,-0.0011,0.0033,0.0000,-24.6875,3.6875,43.0625,309.8125,42.0000,-178.9375,0
1776972326.868,5.7006,7.6734,-1.5826,-0.0264,0.0011,0.0139,-85.5000,39.6000,-22.6500,8.4396,-2.1524,-4.8411,-0.0075,0.0282,0.0003,0.6000,-2.2500,-180.6000,6.5400,0.1300,-7.3300,-0.0011,0.0033,0.0000,-24.6875,3.6875,43.0625,309.8125,42.0000,-178.9375,0
1776972326.877,5.7126,7.7165,-1.4988,-0.0224,-0.0024,0.0179,-85.5000,39.6000,-22.6500,8.4204,-2.0518,-4.7740,-0.0101,0.0274,0.0013,-0.6000,-3.3000,-179.1000,6.5500,0.1200,-7.3100,0.0011,0.0055,0.0011,-24.6875,3.6875,43.0625,309.8125,42.0000,-178.9375,0
1776972326.887,5.7509,7.6950,-1.4868,-0.0237,-0.0029,0.0147,-85.5000,39.6000,-22.6500,8.3773,-2.1261,-4.8483,-0.0115,0.0237,0.0021,-0.6000,-3.3000,-179.1000,6.5500,0.1100,-7.3100,-0.0011,0.0000,-0.0011,-24.6875,3.6875,43.0625,309.8125,42.0000,-178.9375,0
1776972326.896,5.7245,7.6758,-1.5299,-0.0234,-0.0035,0.0144,-85.8000,39.4500,-21.7500,8.4252,-2.0973,-4.8722,-0.0099,0.0264,0.0037,-0.6000,-3.3000,-179.1000,6.5300,0.1300,-7.3000,-0.0011,0.0000,-0.0011,-24.6875,3.6875,43.0625,309.8125,42.0000,-178.9375,0
1776972326.901,5.7317,7.6495,-1.5371,-0.0320,-0.0032,0.0163,-85.3500,39.9000,-22.9500,8.4252,-2.0973,-4.8722,-0.0099,0.0264,0.0037,-0.9000,-2.7000,-179.2500,6.5300,0.1300,-7.3000,-0.0011,0.0000,-0.0011,-24.6875,3.6875,43.0625,309.8125,42.0000,-178.9375,0
1776972326.908,5.7317,7.6495,-1.5371,-0.0320,-0.0032,0.0163,-85.3500,38.7000,-22.5000,8.3701,-2.0734,-4.8530,-0.0104,0.0288,0.0029,-1.0500,-3.7500,-180.9000,6.5500,0.1300,-7.3200,-0.0011,0.0033,0.0011,-24.6875,3.6875,43.0625,309.8125,42.0000,-178.9375,0
1776972326.913,5.7197,7.6303,-1.5610,-0.0304,-0.0016,0.0147,-85.3500,38.7000,-22.5000,8.3701,-2.0734,-4.8530,-0.0104,0.0288,0.0029,-1.0500,-3.7500,-180.9000,6.5500,0.1300,-7.3200,0.0000,0.0000,-0.0011,-24.2500,4.0000,42.5625,309.8125,42.0000,-178.9375,0
1776972326.918,5.7197,7.6303,-1.5610,-0.0304,-0.0016,0.0147,-85.5000,38.7000,-22.5000,8.4060,-2.1380,-4.8530,-0.0096,0.0314,0.0037,0.6000,-3.3000,-182.4000,6.5400,0.1200,-7.3100,0.0000,0.0000,-0.0011,-24.2500,4.0000,42.5625,309.8125,42.0000,-178.9375,0
1776972326.927,5.6862,7.7069,-1.5251,-0.0322,-0.0085,0.0176,-85.5000,39.6000,-20.8500,8.4108,-2.1261,-4.8267,-0.0120,0.0330,0.0024,0.6000,-3.7500,-180.1500,6.5300,0.1400,-7.3200,0.0022,0.0011,-0.0022,-24.2500,4.0000,42.5625,309.8125,42.0000,-178.9375,0
1776972326.937,5.6336,7.6399,-1.5443,-0.0282,-0.0037,0.0133,-84.7500,38.8500,-22.3500,8.3965,-2.1691,-4.8459,-0.0112,0.0362,0.0021,0.6000,-3.7500,-180.1500,6.5700,0.1300,-7.3300,-0.0011,0.0011,-0.0033,-24.2500,4.0000,42.5625,309.8125,42.0000,-178.9375,0
1776972326.945,5.6719,7.7548,-1.5131,-0.0325,-0.0043,0.0123,-86.5500,38.2500,-22.2000,8.4180,-2.1069,-4.8243,-0.0077,0.0317,0.0024,0.6000,-3.7500,-180.1500,6.5400,0.1100,-7.3400,-0.0011,-0.0011,-0.0011,-24.2500,4.0000,42.5625,309.8125,42.0000,-178.9375,0
1776972326.950,5.7413,7.6998,-1.4844,-0.0322,0.0008,0.0085,-86.5500,38.2500,-22.2000,8.4180,-2.1069,-4.8243,-0.0077,0.0317,0.0024,0.6000,-3.7500,-180.1500,6.5400,0.1100,-7.3400,-0.0011,-0.0011,-0.0011,-24.2500,4.0000,42.5625,309.8125,42.0000,-178.9375,0
1776972326.958,5.6862,7.6854,-1.4748,-0.0322,0.0008,0.0085,-86.5500,38.2500,-22.2000,8.3941,-2.0662,-4.8578,-0.0120,0.0298,0.0019,0.4500,-2.4000,-181.0500,6.5600,0.1400,-7.3000,0.0000,0.0000,-0.0011,-24.2500,4.0000,42.5625,309.8125,42.0000,-178.9375,0
1776972326.963,5.6862,7.6854,-1.4748,-0.0304,-0.0011,0.0157,-84.7500,39.3000,-22.3500,8.3941,-2.0662,-4.8578,-0.0120,0.0298,0.0019,0.4500,-2.4000,-181.0500,6.5600,0.1400,-7.3000,-0.0011,0.0000,-0.0022,-25.0625,4.0000,42.5625,309.8125,42.0000,-178.9375,0
1776972326.968,5.6599,7.6471,-1.5371,-0.0314,-0.0013,0.0144,-84.7500,39.3000,-22.3500,8.3845,-2.0542,-4.8746,-0.0141,0.0325,0.0011,-1.0500,-3.3000,-181.2000,6.5500,0.1600,-7.3400,-0.0011,0.0000,-0.0022,-25.0625,4.0000,42.5625,309.8125,42.0000,-178.9375,0
1776972326.977,5.6982,7.7045,-1.5036,-0.0314,-0.0013,0.0144,-84.7500,39.3000,-22.3500,8.3893,-2.1548,-4.8219,-0.0155,0.0298,0.0061,-0.1500,-3.9000,-181.0500,6.5500,0.1400,-7.3100,0.0011,-0.0022,-0.0011,-25.0625,4.0000,42.5625,309.8125,42.0000,-178.9375,0
1776972326.987,5.6910,7.6830,-1.5083,-0.0277,-0.0040,0.0149,-85.9500,39.3000,-22.6500,8.4060,-2.0901,-4.8507,-0.0141,0.0338,0.0088,-0.9000,-3.1500,-180.7500,6.5400,0.1100,-7.3400,-0.0011,0.0011,-0.0011,-25.0625,4.0000,42.5625,309.8125,42.0000,-178.9375,0
1776972326.995,5.6910,7.6830,-1.5083,-0.0277,-0.0040,0.0149,-84.6000,38.2500,-22.9500,8.4539,-2.0710,-4.7980,-0.0069,0.0336,0.0021,-0.9000,-3.1500,-180.7500,6.5300,0.1400,-7.3300,-0.0011,-0.0011,-0.0011,-25.0625,4.0000,42.5625,309.8125,42.0000,-178.9375,0
1776972327.000,5.6767,7.6519,-1.5227,-0.0312,-0.0029,0.0136,-85.2000,39.6000,-22.3500,8.4539,-2.0710,-4.7980,-0.0069,0.0336,0.0021,-0.9000,-3.1500,-180.7500,6.5300,0.1400,-7.3300,-0.0011,-0.0011,-0.0011,-25.0625,4.0000,42.5625,309.8125,42.0000,-178.9375,0
1776972327.008,5.6719,7.7117,-1.5131,-0.0314,-0.0096,0.0139,-85.2000,39.6000,-22.3500,8.3917,-2.1691,-4.7740,-0.0093,0.0349,-0.0016,-1.0500,-4.0500,-181.2000,6.5500,0.1100,-7.3300,-0.0011,-0.0011,-0.0011,-25.0625,4.0000,42.5625,309.8125,42.0000,-178.9375,0
1776972327.013,5.6719,7.7117,-1.5131,-0.0314,-0.0096,0.0139,-84.4500,38.5500,-21.1500,8.3917,-2.0518,-4.8243,-0.0048,0.0349,0.0027,-1.0500,-4.0500,-181.2000,6.5500,0.1100,-7.3300,0.0000,0.0000,-0.0011,-24.6875,3.6875,42.5625,309.8125,42.0000,-178.9375,0
1776972327.018,5.6767,7.6998,-1.5155,-0.0330,-0.0051,0.0125,-84.4500,38.5500,-21.1500,8.3917,-2.0518,-4.8243,-0.0048,0.0349,0.0027,-0.4500,-1.9500,-181.0500,6.5400,0.1100,-7.3200,0.0000,0.0000,-0.0011,-24.6875,3.6875,42.5625,309.8125,42.0000,-178.9375,0
1776972327.027,5.7006,7.7141,-1.5514,-0.0354,-0.0077,0.0147,-85.5000,40.5000,-22.3500,8.4396,-2.0949,-4.8123,-0.0083,0.0368,-0.0051,-1.3500,-2.2500,-180.6000,6.5300,0.1100,-7.3300,0.0000,0.0000,-0.0022,-24.6875,3.6875,42.5625,309.8125,42.0000,-178.9375,0
1776972327.037,5.6934,7.7237,-1.4964,-0.0285,-0.0051,0.0163,-85.5000,40.5000,-22.3500,8.4180,-2.0949,-4.7908,-0.0093,0.0317,0.0027,-0.9000,-3.1500,-179.2500,6.5300,0.1400,-7.3100,0.0000,-0.0055,-0.0011,-24.6875,3.6875,42.5625,309.8125,42.0000,-178.9375,0
1776972327.046,5.6743,7.7021,-1.4724,-0.0296,-0.0067,0.0123,-85.5000,40.5000,-22.3500,8.3797,-2.1261,-4.8171,-0.0099,0.0290,0.0045,0.0000,-2.5500,-181.9500,6.5400,0.1300,-7.3200,-0.0011,-0.0022,-0.0011,-24.6875,3.6875,42.5625,309.8125,42.0000,-178.9375,0
1776972327.051,5.6743,7.7021,-1.4724,-0.0296,-0.0067,0.0123,-85.3500,39.0000,-22.5000,8.4539,-2.1644,-4.8123,-0.0123,0.0280,-0.0027,0.0000,-2.5500,-181.9500,6.5400,0.1300,-7.3200,-0.0011,-0.0022,-0.0011,-24.6875,3.6875,42.5625,309.8125,42.0000,-178.9375,0
1776972327.058,5.7030,7.7093,-1.5299,-0.0328,0.0019,0.0115,-85.3500,39.0000,-22.5000,8.4539,-2.1644,-4.8123,-0.0123,0.0280,-0.0027,0.0000,-2.5500,-181.9500,6.5500,0.1100,-7.3200,0.0022,-0.0011,0.0000,-24.6875,3.6875,42.5625,309.8125,42.0000,-178.9375,0
1776972327.063,5.6910,7.6662,-1.5299,-0.0328,0.0019,0.0115,-85.3500,39.0000,-22.5000,8.4635,-2.0973,-4.8147,-0.0099,0.0282,-0.0005,0.0000,-2.5500,-181.9500,6.5500,0.1100,-7.3200,-0.0022,0.0000,0.0011,-24.6875,3.6875,42.6875,309.8125,42.0000,-178.9375,0
1776972327.068,5.6910,7.6662,-1.5299,-0.0330,-0.0021,0.0149,-85.3500,39.0000,-22.5000,8.4635,-2.0973,-4.8147,-0.0099,0.0282,-0.0005,-0.6000,-2.2500,-180.6000,6.5400,0.1500,-7.3100,-0.0022,0.0000,0.0011,-24.6875,3.6875,42.6875,309.8125,42.0000,-178.9375,0
1776972327.077,5.6910,7.7117,-1.5538,-0.0314,0.0005,0.0203,-84.7500,38.5500,-20.8500,8.4108,-2.1261,-4.8363,-0.0088,0.0250,-0.0037,-0.3000,-4.0500,-180.1500,6.5400,0.1200,-7.3300,0.0000,0.0022,0.0000,-24.6875,3.6875,42.6875,309.8125,42.0000,-178.9375,0
1776972327.087,5.6407,7.7237,-1.4844,-0.0317,-0.0048,0.0157,-86.1000,38.2500,-21.0000,8.4443,-2.1069,-4.8052,-0.0131,0.0306,0.0005,0.0000,-3.7500,-180.6000,6.5500,0.1400,-7.3200,-0.0011,0.0000,0.0011,-24.6875,3.6875,42.6875,309.8125,42.0000,-178.9375,0
1776972327.096,5.7030,7.6830,-1.5203,-0.0349,0.0013,0.0131,-84.7500,39.3000,-21.6000,8.4156,-2.0973,-4.7788,-0.0085,0.0269,0.0029,-0.3000,-3.7500,-180.1500,6.5500,0.1500,-7.3000,0.0000,0.0011,-0.0011,-24.6875,3.6875,42.6875,309.8125,42.0000,-178.9375,0
1776972327.100,5.7030,7.6830,-1.5203,-0.0349,0.0013,0.0131,-84.1500,37.9500,-21.4500,8.3989,-2.1476,-4.8435,-0.0104,0.0293,-0.0008,-0.3000,-3.7500,-180.1500,6.5500,0.1500,-7.3000,0.0000,0.0011,-0.0011,-24.6875,3.6875,42.6875,309.8125,42.0000,-178.9375,0
1776972327.108,5.7365,7.6950,-1.4700,-0.0306,-0.0013,0.0157,-84.1500,37.9500,-21.4500,8.3869,-2.1213,-4.8315,-0.0131,0.0224,-0.0005,-0.3000,-3.7500,-180.6000,6.5400,0.1400,-7.3100,-0.0011,-0.0022,0.0011,-24.6875,3.6875,42.6875,309.8125,42.0000,-178.9375,0
1776972327.113,5.7197,7.7452,-1.4796,-0.0250,0.0019,0.0139,-85.2000,39.6000,-21.6000,8.3869,-2.1213,-4.8315,-0.0131,0.0224,-0.0005,-0.3000,-3.7500,-180.6000,6.5400,0.1400,-7.3100,0.0000,-0.0011,0.0022,-24.2500,3.2500,42.2500,309.8125,42.0000,-178.9375,0
1776972327.118,5.7197,7.7452,-1.4796,-0.0250,0.0019,0.0139,-85.2000,39.6000,-21.6000,8.3941,-2.0806,-4.9009,-0.0080,0.0240,-0.0005,-0.3000,-3.7500,-180.6000,6.5400,0.1200,-7.3200,0.0000,-0.0011,0.0022,-24.2500,3.2500,42.2500,309.8125,42.0000,-178.9375,0
1776972327.128,5.7461,7.6375,-1.5251,-0.0232,-0.0016,0.0144,-85.8000,39.4500,-21.4500,8.3893,-2.1596,-4.8076,-0.0053,0.0282,-0.0016,0.6000,-3.0000,-180.1500,6.5600,0.1300,-7.3200,0.0000,0.0022,0.0000,-24.2500,3.2500,42.2500,309.8125,42.0000,-178.9375,0
1776972327.137,5.7174,7.6471,-1.5371,-0.0293,-0.0061,0.0163,-85.8000,39.4500,-21.4500,8.3773,-2.0710,-4.8507,-0.0093,0.0277,0.0021,0.3000,-1.8000,-180.6000,6.5600,0.1400,-7.3700,-0.0011,-0.0033,0.0011,-24.2500,3.2500,42.2500,309.8125,42.0000,-178.9375,0
1776972327.146,5.6838,7.7093,-1.5299,-0.0245,0.0011,0.0139,-84.4500,40.0500,-21.9000,8.3773,-2.0710,-4.8507,-0.0093,0.0277,0.0021,-0.4500,-3.1500,-179.7000,6.5500,0.1400,-7.3400,0.0022,-0.0033,-0.0022,-24.2500,3.2500,42.2500,309.8125,42.0000,-178.9375,0
1776972327.151,5.6503,7.6519,-1.5012,-0.0282,-0.0045,0.0211,-84.4500,40.0500,-21.9000,8.4420,-2.0901,-4.7932,-0.0101,0.0304,0.0013,-0.4500,-3.1500,-179.7000,6.5500,0.1400,-7.3400,0.0022,-0.0033,-0.0022,-24.2500,3.2500,42.2500,309.8125,42.0000,-178.9375,0
1776972327.158,5.6503,7.6519,-1.5012,-0.0282,-0.0045,0.0211,-84.4500,40.0500,-21.9000,8.3869,-2.0686,-4.8195,-0.0040,0.0328,0.0024,0.4500,-3.1500,-181.5000,6.5600,0.1300,-7.3000,0.0000,-0.0033,0.0011,-24.2500,3.2500,42.2500,309.8125,42.0000,-178.9375,0
1776972327.163,5.6479,7.7237,-1.5203,-0.0325,-0.0032,0.0155,-85.5000,38.8500,-21.9000,8.3869,-2.0686,-4.8195,-0.0040,0.0328,0.0024,-1.0500,-3.0000,-180.1500,6.5600,0.1300,-7.3000,0.0000,-0.0055,0.0022,-24.0000,2.8750,43.5000,309.8125,42.0000,-178.9375,0
1776972327.169,5.7102,7.7476,-1.4796,-0.0325,-0.0032,0.0155,-85.5000,38.8500,-21.9000,8.4276,-2.1045,-4.8147,-0.0115,0.0301,0.0027,-1.0500,-3.0000,-180.1500,6.5300,0.1300,-7.3100,0.0000,-0.0055,0.0022,-24.0000,2.8750,43.5000,309.8125,42.0000,-178.9375,0
1776972327.178,5.7102,7.7476,-1.4796,-0.0376,-0.0040,0.0149,-84.6000,38.7000,-21.4500,8.4132,-2.0830,-4.8315,-0.0099,0.0264,0.0011,-1.0500,-3.0000,-180.1500,6.5600,0.1200,-7.3400,0.0000,-0.0033,0.0011,-24.0000,2.8750,43.5000,309.8125,42.0000,-178.9375,0
1776972327.187,5.6551,7.7237,-1.4557,-0.0386,-0.0064,0.0165,-84.6000,38.7000,-21.4500,8.4348,-2.0518,-4.8339,-0.0091,0.0272,0.0053,-0.1500,-3.1500,-181.0500,6.5300,0.1400,-7.3300,0.0000,-0.0065,0.0011,-24.0000,2.8750,43.5000,309.8125,42.0000,-178.9375,0
1776972327.196,5.6862,7.7381,-1.5969,-0.0269,-0.0048,0.0133,-85.3500,40.2000,-21.7500,8.4156,-2.1332,-4.8219,-0.0056,0.0237,0.0024,0.6000,-1.5000,-181.6500,6.5400,0.1400,-7.3500,0.0000,-0.0022,0.0022,-24.0000,2.8750,43.5000,309.8125,42.0000,-178.9375,0
1776972327.201,5.6671,7.7237,-1.4940,-0.0296,0.0000,0.0115,-85.9500,38.5500,-22.6500,8.4156,-2.1332,-4.8219,-0.0056,0.0237,0.0024,-0.6000,-3.0000,-180.9000,6.5400,0.1400,-7.3500,0.0000,-0.0022,0.0022,-24.0000,2.8750,43.5000,309.8125,42.0000,-178.9375,0
1776972327.208,5.6647,7.7165,-1.5467,-0.0229,0.0021,0.0099,-85.9500,38.5500,-22.6500,8.4683,-2.0710,-4.8076,-0.0061,0.0338,0.0000,-0.6000,-3.0000,-180.9000,6.5300,0.1200,-7.3400,0.0000,-0.0044,0.0000,-24.0000,2.8750,43.5000,309.8125,42.0000,-178.9375,0
1776972327.213,5.6647,7.7165,-1.5467,-0.0229,0.0021,0.0099,-83.7000,37.6500,-21.6000,8.4683,-2.0710,-4.8076,-0.0061,0.0338,0.0000,-1.2000,-2.7000,-181.8000,6.5300,0.1200,-7.3400,-0.0033,-0.0033,0.0000,-24.6875,4.0000,42.5625,309.8125,42.0000,-178.9375,0
1776972327.219,5.6767,7.7261,-1.5155,-0.0264,-0.0051,0.0176,-83.7000,37.6500,-21.6000,8.4036,-2.1284,-4.8507,-0.0072,0.0264,0.0000,-1.2000,-2.7000,-181.8000,6.5300,0.1500,-7.3200,-0.0033,-0.0033,0.0000,-24.6875,4.0000,42.5625,309.8125,42.0000,-178.9375,0
1776972327.228,5.6695,7.6471,-1.5443,-0.0280,-0.0019,0.0128,-83.7000,37.6500,-21.6000,8.3989,-2.1093,-4.8291,-0.0115,0.0232,0.0035,-1.2000,-2.7000,-181.8000,6.5400,0.1300,-7.3400,0.0000,-0.0011,0.0000,-24.6875,4.0000,42.5625,309.8125,42.0000,-178.9375,0
1776972327.238,5.6695,7.6160,-1.5275,-0.0237,-0.0043,0.0125,-84.4500,37.3500,-21.9000,8.4491,-2.1045,-4.7860,-0.0128,0.0221,0.0032,-1.2000,-2.7000,-181.8000,6.5400,0.1100,-7.3500,0.0000,0.0022,0.0000,-24.6875,4.0000,42.5625,309.8125,42.0000,-178.9375,0
1776972327.247,5.6910,7.6926,-1.4820,-0.0256,-0.0045,0.0165,-84.4500,37.3500,-21.9000,8.3629,-2.1021,-4.7716,-0.0131,0.0245,-0.0013,1.5000,-3.1500,-180.3000,6.5300,0.1100,-7.3200,0.0000,0.0022,0.0022,-24.6875,4.0000,42.5625,309.8125,42.0000,-178.9375,0
1776972327.253,5.6910,7.6926,-1.4820,-0.0256,-0.0045,0.0165,-86.1000,39.9000,-21.0000,8.3629,-2.1021,-4.7716,-0.0131,0.0245,-0.0013,-0.3000,-3.7500,-181.2000,6.5300,0.1100,-7.3200,-0.0011,0.0000,0.0011,-24.6875,4.0000,42.5625,309.8125,42.0000,-178.9375,0
1776972327.259,5.7006,7.6734,-1.5323,-0.0338,-0.0029,0.0152,-86.1000,39.9000,-21.0000,8.3989,-2.0925,-4.8243,-0.0128,0.0290,0.0005,-0.3000,-3.7500,-181.2000,6.5600,0.1200,-7.3000,-0.0011,0.0000,0.0011,-24.6875,4.0000,42.5625,309.8125,42.0000,-178.9375,0
1776972327.264,5.7006,7.6734,-1.5323,-0.0338,-0.0029,0.0152,-85.0500,39.0000,-21.0000,8.4539,-2.0877,-4.8578,-0.0136,0.0296,0.0064,0.9000,-3.9000,-180.7500,6.5700,0.1200,-7.3200,0.0022,0.0011,0.0022,-24.6875,3.6875,42.5625,309.8125,42.0000,-178.9375,0
1776972327.269,5.6312,7.6998,-1.4940,-0.0338,0.0045,0.0197,-85.0500,39.0000,-21.0000,8.4539,-2.0877,-4.8578,-0.0136,0.0296,0.0064,0.9000,-3.9000,-180.7500,6.5700,0.1200,-7.3200,0.0022,0.0011,0.0022,-24.6875,3.6875,42.5625,309.8125,42.0000,-178.9375,0
1776972327.278,5.6599,7.6495,-1.5227,-0.0362,0.0013,0.0139,-84.1500,37.9500,-21.7500,8.3725,-2.1332,-4.8291,-0.0064,0.0277,0.0016,-0.3000,-2.5500,-179.5500,6.5600,0.1300,-7.3200,0.0000,0.0011,0.0022,-24.6875,3.6875,42.5625,309.8125,42.0000,-178.9375,0
1776972327.288,5.6719,7.7572,-1.4724,-0.0328,-0.0013,0.0163,-83.7000,39.6000,-22.3500,8.3989,-2.0853,-4.8578,-0.0085,0.0277,0.0003,-0.3000,-2.5500,-179.5500,6.5500,0.1400,-7.3300,0.0011,0.0011,0.0000,-24.6875,3.6875,42.5625,309.8125,42.0000,-178.9375,0
1776972327.297,5.6862,7.7117,-1.5155,-0.0269,0.0000,0.0160,-85.5000,39.3000,-21.6000,8.4491,-2.1404,-4.8746,-0.0045,0.0336,0.0011,0.3000,-3.7500,-182.4000,6.5500,0.1300,-7.3300,0.0011,-0.0011,0.0000,-24.6875,3.6875,42.5625,309.8125,42.0000,-178.9375,0
1776972327.303,5.6862,7.7117,-1.5155,-0.0269,0.0000,0.0160,-86.5500,40.2000,-22.2000,8.3917,-2.0446,-4.7740,-0.0059,0.0280,-0.0024,0.0000,-3.3000,-180.1500,6.5500,0.1300,-7.3300,0.0022,-0.0055,0.0000,-24.6875,3.6875,42.5625,309.8125,42.0000,-178.9375,0
1776972327.309,5.7341,7.6638,-1.4796,-0.0266,-0.0003,0.0120,-86.5500,40.2000,-22.2000,8.3917,-2.0446,-4.7740,-0.0059,0.0280,-0.0024,-0.6000,-3.7500,-181.2000,6.5500,0.1400,-7.3200,0.0022,-0.0055,0.0000,-24.6875,3.6875,42.5625,309.8125,42.0000,-178.9375,0
1776972327.314,5.7174,7.7237,-1.4868,-0.0280,-0.0011,0.0141,-86.5500,40.2000,-22.2000,8.4324,-2.1213,-4.7836,-0.0083,0.0301,-0.0008,-0.6000,-3.7500,-181.2000,6.5500,0.1400,-7.3200,0.0011,-0.0055,0.0000,-24.2500,3.6875,43.0625,309.8125,42.0000,-178.9375,0
1776972327.319,5.7174,7.7237,-1.4868,-0.0280,-0.0011,0.0141,-86.5500,40.2000,-22.2000,8.4324,-2.1213,-4.7836,-0.0083,0.0301,-0.0008,0.9000,-1.9500,-180.7500,6.5400,0.1500,-7.3300,0.0011,-0.0055,0.0000,-24.2500,3.6875,43.0625,309.8125,42.0000,-178.9375,0
1776972327.328,5.6599,7.7117,-1.5012,-0.0290,0.0051,0.0112,-85.8000,38.2500,-22.5000,8.3917,-2.1332,-4.8195,-0.0131,0.0258,0.0000,-1.2000,-3.4500,-181.0500,6.5500,0.1200,-7.2900,0.0000,-0.0011,-0.0011,-24.2500,3.6875,43.0625,309.8125,42.0000,-178.9375,0
1776972327.338,5.6934,7.7261,-1.4964,-0.0264,0.0005,0.0107,-85.8000,38.2500,-22.5000,8.4013,-2.1524,-4.7860,-0.0144,0.0277,-0.0019,-1.2000,-3.4500,-181.0500,6.5500,0.1400,-7.3100,-0.0011,-0.0033,0.0011,-24.2500,3.6875,43.0625,309.8125,42.0000,-178.9375,0
1776972327.347,5.6958,7.6495,-1.5083,-0.0250,-0.0027,0.0133,-83.8500,39.0000,-21.4500,8.4779,-2.1021,-4.8483,-0.0131,0.0269,-0.0013,-1.2000,-3.4500,-181.0500,6.5300,0.0900,-7.3100,0.0000,-0.0022,-0.0011,-24.2500,3.6875,43.0625,309.8125,42.0000,-178.9375,0
1776972327.352,5.7245,7.7069,-1.4892,-0.0250,-0.0027,0.0133,-85.3500,39.0000,-21.4500,8.3989,-2.0853,-4.8028,-0.0176,0.0344,0.0027,0.0000,-2.2500,-179.5500,6.5300,0.0900,-7.3100,0.0000,-0.0011,0.0011,-24.2500,3.6875,43.0625,309.8125,42.0000,-178.9375,0
1776972327.359,5.7245,7.7069,-1.4892,-0.0288,0.0027,0.0131,-85.3500,39.0000,-21.4500,8.3989,-2.0853,-4.8028,-0.0176,0.0344,0.0027,0.0000,-2.2500,-179.8500,6.5400,0.1200,-7.3300,0.0000,-0.0011,0.0011,-24.2500,3.6875,43.0625,309.8125,42.0000,-178.9375,0
1776972327.364,5.7126,7.7261,-1.5251,-0.0322,-0.0016,0.0088,-84.6000,40.9500,-22.5000,8.4420,-2.1237,-4.8507,-0.0101,0.0322,-0.0003,0.0000,-2.2500,-179.8500,6.5400,0.1200,-7.3300,-0.0011,0.0000,0.0022,-25.0625,2.5625,41.8750,309.8125,42.0000,-178.9375,0
1776972327.369,5.7126,7.7261,-1.5251,-0.0322,-0.0016,0.0088,-84.6000,40.9500,-22.5000,8.4420,-2.1237,-4.8507,-0.0101,0.0322,-0.0003,-0.4500,-4.2000,-180.7500,6.5500,0.1400,-7.3000,-0.0011,0.0000,0.0022,-25.0625,2.5625,41.8750,309.8125,42.0000,-178.9375,0
1776972327.378,5.7126,7.6998,-1.5371,-0.0328,-0.0029,0.0104,-85.2000,38.8500,-20.8500,8.3438,-2.0901,-4.8794,-0.0133,0.0298,0.0011,0.0000,-2.5500,-179.8500,6.5700,0.1300,-7.3200,0.0000,0.0000,0.0000,-25.0625,2.5625,41.8750,309.8125,42.0000,-178.9375,0
1776972327.388,5.6862,7.6614,-1.4988,-0.0248,-0.0024,0.0133,-85.0500,39.9000,-20.2500,8.3941,-2.0566,-4.7669,-0.0053,0.0349,0.0029,0.3000,-2.5500,-180.6000,6.5400,0.1500,-7.3300,0.0011,-0.0033,0.0022,-25.0625,2.5625,41.8750,309.8125,42.0000,-178.9375,0
1776972327.396,5.7437,7.7021,-1.4940,-0.0288,-0.0069,0.0088,-84.7500,39.3000,-21.1500,8.4635,-2.1045,-4.8100,-0.0099,0.0285,0.0013,0.3000,-2.5500,-180.6000,6.5600,0.1300,-7.3400,0.0000,-0.0055,0.0000,-25.0625,2.5625,41.8750,309.8125,42.0000,-178.9375,0
1776972327.401,5.7102,7.7237,-1.5323,-0.0248,-0.0045,0.0139,-84.7500,39.3000,-21.1500,8.4156,-2.0638,-4.8147,-0.0077,0.0288,0.0000,0.3000,-2.5500,-180.6000,6.5600,0.1300,-7.3400,0.0000,-0.0055,0.0000,-25.0625,2.5625,41.8750,309.8125,42.0000,-178.9375,0
1776972327.409,5.6383,7.6998,-1.5107,-0.0248,-0.0045,0.0139,-84.7500,39.3000,-21.1500,8.3510,-2.1548,-4.7716,-0.0085,0.0293,-0.0032,-1.0500,-2.5500,-180.1500,6.5500,0.1300,-7.3300,0.0011,-0.0065,0.0011,-25.0625,2.5625,41.8750,309.8125,42.0000,-178.9375,0
1776972327.414,5.6383,7.6998,-1.5107,-0.0250,-0.0021,0.0139,-85.5000,39.3000,-21.9000,8.3510,-2.1548,-4.7716,-0.0085,0.0293,-0.0032,-1.0500,-2.5500,-180.1500,6.5500,0.1300,-7.3300,0.0000,-0.0065,0.0000,-24.2500,3.6875,42.6875,309.8125,42.0000,-178.9375,0
1776972327.419,5.6431,7.7021,-1.4605,-0.0250,-0.0021,0.0139,-85.5000,39.3000,-21.9000,8.4228,-2.1117,-4.8459,-0.0080,0.0304,-0.0019,0.4500,-1.9500,-181.5000,6.5400,0.1300,-7.3300,0.0000,-0.0065,0.0000,-24.2500,3.6875,42.6875,309.8125,42.0000,-178.9375,0
1776972327.428,5.6551,7.6710,-1.4964,-0.0266,-0.0024,0.0165,-85.5000,39.3000,-21.9000,8.3749,-2.1165,-4.8028,-0.0109,0.0306,0.0005,-0.9000,-2.4000,-181.0500,6.5300,0.1400,-7.2900,-0.0011,-0.0022,0.0011,-24.2500,3.6875,42.6875,309.8125,42.0000,-178.9375,0
1776972327.438,5.6527,7.6830,-1.5610,-0.0309,-0.0011,0.0099,-84.4500,38.5500,-21.6000,8.4515,-2.1213,-4.8411,-0.0101,0.0330,0.0021,0.0000,-4.0500,-182.7000,6.5300,0.1300,-7.3300,0.0000,-0.0055,0.0011,-24.2500,3.6875,42.6875,309.8125,42.0000,-178.9375,0
1776972327.447,5.6527,7.6830,-1.5610,-0.0330,-0.0061,0.0195,-83.4000,38.7000,-21.7500,8.4515,-2.1213,-4.8411,-0.0096,0.0301,0.0013,-0.4500,-4.2000,-180.7500,6.5400,0.1200,-7.3400,0.0022,-0.0087,0.0011,-24.2500,3.6875,42.6875,309.8125,42.0000,-178.9375,0
1776972327.451,5.6144,7.7381,-1.5227,-0.0264,-0.0016,0.0187,-83.4000,38.7000,-21.7500,8.4108,-2.1069,-4.7716,-0.0096,0.0301,0.0013,-0.4500,-4.2000,-180.7500,6.5400,0.1200,-7.3400,0.0022,-0.0087,0.0011,-24.2500,3.6875,42.6875,309.8125,42.0000,-178.9375,0
1776972327.459,5.6336,7.6758,-1.4988,-0.0229,-0.0016,0.0141,-85.2000,40.0500,-22.3500,8.4372,-2.0231,-4.8578,-0.0120,0.0296,0.0003,-0.4500,-4.2000,-180.7500,6.5300,0.1200,-7.3300,0.0000,-0.0011,-0.0011,-24.2500,3.6875,42.6875,309.8125,42.0000,-178.9375,0
1776972327.464,5.6336,7.6758,-1.4988,-0.0229,-0.0016,0.0141,-86.2500,38.1000,-21.9000,8.4372,-2.0231,-4.8578,-0.0120,0.0296,0.0003,-0.4500,-4.2000,-180.7500,6.5300,0.1200,-7.3300,-0.0022,-0.0022,0.0033,-24.0000,4.6875,42.2500,309.8125,42.0000,-178.9375,0
1776972327.469,5.6048,7.6878,-1.4916,-0.0250,-0.0005,0.0165,-86.2500,38.1000,-21.9000,8.3989,-2.1308,-4.7573,-0.0133,0.0274,0.0024,-1.3500,-3.0000,-181.6500,6.5200,0.1300,-7.3300,-0.0022,-0.0022,0.0033,-24.0000,4.6875,42.2500,309.8125,42.0000,-178.9375,0
1776972327.478,5.6695,7.7189,-1.5155,-0.0272,-0.0027,0.0144,-84.4500,37.3500,-20.5500,8.4013,-2.1237,-4.8147,-0.0125,0.0269,-0.0008,0.1500,-3.4500,-180.7500,6.5400,0.1100,-7.3300,0.0022,-0.0022,-0.0011,-24.0000,4.6875,42.2500,309.8125,42.0000,-178.9375,0
1776972327.488,5.6623,7.7428,-1.4940,-0.0250,-0.0013,0.0163,-84.7500,39.6000,-21.6000,8.4132,-2.1117,-4.8507,-0.0160,0.0314,0.0024,-0.1500,-2.7000,-179.7000,6.5200,0.1400,-7.3600,0.0000,-0.0033,0.0044,-24.0000,4.6875,42.2500,309.8125,42.0000,-178.9375,0
1776972327.497,5.6886,7.6782,-1.5323,-0.0274,-0.0061,0.0133,-84.7500,39.6000,-21.6000,8.4372,-2.1189,-4.7549,-0.0117,0.0306,0.0037,1.2000,-3.4500,-181.8000,6.5500,0.1200,-7.3100,0.0011,-0.0033,0.0011,-24.0000,4.6875,42.2500,309.8125,42.0000,-178.9375,0
1776972327.502,5.6886,7.6782,-1.5323,-0.0274,-0.0061,0.0133,-84.7500,39.6000,-21.6000,8.4372,-2.1189,-4.7549,-0.0117,0.0306,0.0037,1.2000,-3.4500,-181.8000,6.5500,0.1200,-7.3100,0.0011,-0.0033,0.0011,-24.0000,4.6875,42.2500,309.8125,42.0000,-178.9375,0
1776972327.509,5.6479,7.6998,-1.5155,-0.0309,-0.0059,0.0179,-85.8000,38.7000,-22.2000,8.4204,-2.1213,-4.8363,-0.0141,0.0306,-0.0008,1.2000,-3.4500,-181.8000,6.5400,0.1200,-7.3400,0.0011,-0.0022,0.0000,-24.0000,4.6875,42.2500,309.8125,42.0000,-178.9375,0
1776972327.514,5.6479,7.6998,-1.5155,-0.0309,-0.0059,0.0179,-85.8000,38.7000,-22.2000,8.4204,-2.1213,-4.8363,-0.0141,0.0306,-0.0008,1.2000,-3.4500,-181.8000,6.5400,0.1200,-7.3400,-0.0011,0.0011,0.0022,-24.6875,3.2500,43.5000,309.8125,42.0000,-178.9375,0
1776972327.519,5.7293,7.6926,-1.5083,-0.0226,-0.0027,0.0112,-85.8000,38.7000,-22.2000,8.3749,-2.1308,-4.7238,-0.0096,0.0269,0.0069,1.2000,-3.4500,-181.8000,6.5400,0.1300,-7.3100,-0.0011,0.0011,0.0022,-24.6875,3.2500,43.5000,309.8125,42.0000,-178.9375,0
1776972327.529,5.6767,7.7452,-1.5682,-0.0264,-0.0003,0.0131,-85.5000,38.1000,-22.3500,8.3749,-2.1237,-4.8315,-0.0160,0.0312,0.0061,-0.4500,-2.4000,-180.0000,6.5500,0.1300,-7.3300,-0.0022,-0.0011,0.0033,-24.6875,3.2500,43.5000,309.8125,42.0000,-178.9375,0
1776972327.538,5.6048,7.7165,-1.5467,-0.0245,-0.0053,0.0173,-86.2500,40.5000,-21.9000,8.4084,-2.0830,-4.8339,-0.0093,0.0322,0.0035,-0.3000,-3.7500,-180.9000,6.5400,0.1600,-7.3100,0.0022,-0.0011,0.0011,-24.6875,3.2500,43.5000,309.8125,42.0000,-178.9375,0
1776972327.547,5.7389,7.6758,-1.5012,-0.0266,0.0008,0.0131,-85.3500,40.2000,-21.7500,8.4563,-2.1237,-4.7980,-0.0107,0.0272,-0.0005,-0.3000,-2.2500,-179.1000,6.5400,0.1400,-7.3300,0.0000,-0.0022,0.0022,-24.6875,3.2500,43.5000,309.8125,42.0000,-178.9375,0
1776972327.552,5.7389,7.6758,-1.5012,-0.0266,0.0008,0.0131,-85.3500,40.2000,-21.7500,8.4563,-2.1237,-4.7980,-0.0107,0.0272,-0.0005,-0.3000,-2.2500,-179.1000,6.5400,0.1400,-7.3300,0.0000,-0.0022,0.0022,-24.6875,3.2500,43.5000,309.8125,42.0000,-178.9375,0
1776972327.559,5.7652,7.7309,-1.5586,-0.0269,0.0000,0.0173,-85.2000,39.3000,-20.8500,8.4108,-2.1141,-4.8315,-0.0080,0.0298,0.0040,-0.3000,-3.7500,-180.9000,6.5300,0.1200,-7.3300,0.0011,-0.0022,-0.0011,-24.6875,3.2500,43.5000,309.8125,42.0000,-178.9375,0
1776972327.564,5.7030,7.6734,-1.5850,-0.0277,0.0021,0.0192,-86.2500,40.5000,-21.9000,8.4300,-2.0734,-4.8219,-0.0109,0.0320,0.0032,-0.3000,-3.7500,-180.9000,6.5300,0.1200,-7.3300,0.0000,-0.0011,0.0022,-24.6875,3.6875,42.5625,309.8125,42.0000,-178.9375,0
1776972327.570,5.7030,7.6734,-1.5850,-0.0277,0.0021,0.0192,-86.2500,40.5000,-21.9000,8.4300,-2.0734,-4.8219,-0.0109,0.0320,0.0032,-0.3000,-3.7500,-180.9000,6.5500,0.1300,-7.3200,0.0000,-0.0011,0.0022,-24.6875,3.6875,42.5625,309.8125,42.0000,-178.9375,0
1776972327.579,5.6551,7.6782,-1.5131,-0.0221,0.0005,0.0168,-85.5000,38.8500,-21.6000,8.4180,-2.0877,-4.8219,-0.0072,0.0338,-0.0011,-1.2000,-1.2000,-179.7000,6.5200,0.1200,-7.3200,0.0000,0.0000,0.0011,-24.6875,3.6875,42.5625,309.8125,42.0000,-178.9375,0
1776972327.588,5.7030,7.7021,-1.5682,-0.0253,0.0011,0.0136,-85.5000,38.8500,-21.6000,8.4180,-2.1165,-4.8387,-0.0141,0.0304,0.0029,-0.3000,-3.0000,-180.1500,6.5300,0.1200,-7.3300,0.0000,0.0000,0.0011,-24.6875,3.6875,42.5625,309.8125,42.0000,-178.9375,0
1776972327.598,5.7341,7.7093,-1.5323,-0.0261,0.0027,0.0149,-85.5000,39.3000,-22.6500,8.3941,-2.1308,-4.8291,-0.0125,0.0296,0.0029,0.3000,-3.7500,-180.6000,6.5400,0.1200,-7.3700,-0.0011,0.0000,0.0011,-24.6875,3.6875,42.5625,309.8125,42.0000,-178.9375,0
1776972327.603,5.6767,7.6495,-1.5874,-0.0344,-0.0003,0.0187,-85.5000,39.3000,-22.6500,8.4132,-2.0494,-4.8363,-0.0136,0.0261,0.0035,0.3000,-3.7500,-180.6000,6.5400,0.1200,-7.3700,-0.0011,0.0000,0.0000,-24.6875,3.6875,42.5625,309.8125,42.0000,-178.9375,0
1776972327.609,5.6767,7.6495,-1.5874,-0.0344,-0.0003,0.0187,-85.5000,39.3000,-22.6500,8.4132,-2.0494,-4.8363,-0.0136,0.0261,0.0035,-0.3000,-3.7500,-180.9000,6.5200,0.1200,-7.3100,-0.0011,0.0000,0.0000,-24.6875,3.6875,42.5625,309.8125,42.0000,-178.9375,0
1776972327.614,5.6982,7.6926,-1.4988,-0.0317,-0.0059,0.0099,-85.2000,38.8500,-21.6000,8.3893,-2.1237,-4.8626,-0.0099,0.0277,0.0032,0.6000,-1.8000,-181.2000,6.5200,0.1200,-7.3100,0.0000,-0.0022,0.0000,-25.0625,3.2500,42.5625,309.8125,42.0000,-178.9375,0
1776972327.620,5.6982,7.6926,-1.4988,-0.0317,-0.0059,0.0099,-85.2000,38.8500,-21.6000,8.3893,-2.1237,-4.8626,-0.0099,0.0277,0.0032,0.6000,-1.8000,-181.2000,6.5300,0.1300,-7.3000,0.0000,-0.0022,0.0000,-25.0625,3.2500,42.5625,309.8125,42.0000,-178.9375,0
1776972327.629,5.6719,7.7189,-1.5275,-0.0280,-0.0024,0.0128,-86.1000,39.4500,-21.0000,8.4132,-2.1141,-4.8195,-0.0093,0.0328,-0.0013,0.6000,-1.8000,-181.2000,6.5300,0.1200,-7.3000,-0.0022,0.0000,-0.0011,-25.0625,3.2500,42.5625,309.8125,42.0000,-178.9375,0
1776972327.638,5.6958,7.7117,-1.5490,-0.0322,-0.0005,0.0144,-85.2000,38.8500,-22.3500,8.4324,-2.0901,-4.8363,-0.0125,0.0306,0.0005,0.1500,-3.9000,-180.3000,6.5400,0.1000,-7.3500,-0.0011,0.0044,-0.0033,-25.0625,3.2500,42.5625,309.8125,42.0000,-178.9375,0
1776972327.648,5.7174,7.7141,-1.5251,-0.0266,-0.0051,0.0115,-84.7500,40.0500,-22.3500,8.3653,-2.1644,-4.8267,-0.0112,0.0288,-0.0011,-0.3000,-4.0500,-179.8500,6.5500,0.1200,-7.3400,0.0000,0.0033,-0.0011,-25.0625,3.2500,42.5625,309.8125,42.0000,-178.9375,0
1776972327.658,5.7245,7.7213,-1.5419,-0.0277,0.0011,0.0085,-83.4000,39.4500,-21.7500,8.4443,-2.1069,-4.7788,-0.0075,0.0368,0.0000,0.4500,-2.7000,-180.0000,6.5400,0.1400,-7.3100,0.0000,0.0033,-0.0022,-25.0625,3.2500,42.5625,309.8125,42.0000,-178.9375,0
1776972327.663,5.6479,7.6950,-1.5036,-0.0280,0.0005,0.0139,-83.4000,39.4500,-21.7500,8.4252,-2.1117,-4.8195,-0.0088,0.0336,0.0043,-0.9000,-2.4000,-180.3000,6.5400,0.1400,-7.3100,0.0000,0.0033,-0.0022,-24.6875,3.2500,43.5000,309.8125,42.0000,-178.9375,0
1776972327.669,5.6695,7.6974,-1.5419,-0.0277,-0.0029,0.0109,-84.4500,40.5000,-21.6000,8.4420,-2.0877,-4.9057,-0.0059,0.0314,0.0027,-0.9000,-2.4000,-180.3000,6.5500,0.1300,-7.3100,-0.0022,0.0000,0.0011,-24.6875,3.2500,43.5000,309.8125,42.0000,-178.9375,0
1776972327.679,5.7365,7.6471,-1.4820,-0.0346,-0.0035,0.0152,-84.4500,40.5000,-21.6000,8.3845,-2.0614,-4.8076,-0.0072,0.0325,0.0035,-1.3500,-4.0500,-180.1500,6.5500,0.1400,-7.3200,-0.0011,0.0022,-0.0011,-24.6875,3.2500,43.5000,309.8125,42.0000,-178.9375,0
1776972327.688,5.6527,7.7093,-1.5299,-0.0282,-0.0016,0.0144,-84.7500,39.6000,-23.1000,8.4084,-2.0614,-4.8028,-0.0037,0.0328,0.0032,-1.3500,-4.0500,-180.1500,6.5200,0.1400,-7.3200,-0.0011,-0.0022,-0.0011,-24.6875,3.2500,43.5000,309.8125,42.0000,-178.9375,0
1776972327.697,5.6767,7.7620,-1.4844,-0.0282,-0.0016,0.0144,-84.7500,39.6000,-23.1000,8.4084,-2.0614,-4.8028,-0.0037,0.0328,0.0032,0.3000,-3.0000,-182.4000,6.5300,0.1500,-7.3400,0.0000,-0.0011,0.0000,-24.6875,3.2500,43.5000,309.8125,42.0000,-178.9375,0
1776972327.702,5.6767,7.7620,-1.4844,-0.0333,0.0011,0.0155,-84.7500,39.6000,-23.1000,8.4084,-2.1165,-4.8219,-0.0069,0.0285,-0.0029,0.0000,-2.2500,-181.2000,6.5300,0.1500,-7.3400,0.0000,-0.0011,0.0000,-24.6875,3.2500,43.5000,309.8125,42.0000,-178.9375,0
1776972327.709,5.6671,7.7548,-1.5634,-0.0389,-0.0048,0.0184,-86.5500,39.9000,-21.7500,8.3869,-2.1069,-4.7836,-0.0067,0.0320,-0.0003,0.0000,-2.2500,-181.2000,6.5200,0.1200,-7.3400,0.0000,-0.0011,0.0000,-24.6875,3.2500,43.5000,309.8125,42.0000,-178.9375,0
1776972327.714,5.6671,7.7548,-1.5634,-0.0389,-0.0048,0.0184,-86.5500,39.9000,-21.7500,8.3869,-2.1069,-4.7836,-0.0067,0.0320,-0.0003,-0.4500,-3.1500,-180.3000,6.5200,0.1200,-7.3400,0.0000,0.0011,0.0000,-24.2500,3.6875,43.7500,309.8125,42.0000,-178.9375,0
1776972327.720,5.6336,7.6782,-1.5299,-0.0317,-0.0027,0.0120,-85.0500,37.5000,-22.2000,8.4659,-2.1237,-4.8100,-0.0117,0.0274,-0.0011,-0.4500,-3.1500,-180.3000,6.5400,0.1300,-7.3100,0.0000,0.0011,0.0000,-24.2500,3.6875,43.7500,309.8125,42.0000,-178.9375,0
1776972327.729,5.7054,7.6854,-1.5323,-0.0301,-0.0029,0.0168,-85.5000,39.6000,-22.3500,8.3773,-2.1165,-4.8123,-0.0131,0.0298,0.0053,0.6000,-2.2500,-180.1500,6.5200,0.1300,-7.3100,0.0022,-0.0022,-0.0011,-24.2500,3.6875,43.7500,309.8125,42.0000,-178.9375,0
1776972327.739,5.6407,7.6591,-1.4772,-0.0288,0.0024,0.0149,-85.2000,39.6000,-23.8500,8.4156,-2.0758,-4.8602,-0.0128,0.0248,0.0043,0.6000,-2.2500,-180.1500,6.5300,0.1300,-7.3300,0.0000,0.0022,0.0000,-24.2500,3.6875,43.7500,309.8125,42.0000,-178.9375,0
1776972327.748,5.7030,7.7357,-1.4844,-0.0269,0.0011,0.0173,-85.8000,40.2000,-21.0000,8.4204,-2.0806,-4.7932,-0.0107,0.0261,0.0000,0.6000,-2.2500,-180.1500,6.5400,0.1200,-7.3600,0.0011,-0.0011,-0.0011,-24.2500,3.6875,43.7500,309.8125,42.0000,-178.9375,0
1776972327.752,5.7030,7.7357,-1.4844,-0.0269,0.0011,0.0173,-85.8000,40.2000,-21.0000,8.4204,-2.0806,-4.7932,-0.0107,0.0261,0.0000,0.1500,-3.1500,-181.0500,6.5400,0.1200,-7.3600,0.0011,-0.0011,-0.0011,-24.2500,3.6875,43.7500,309.8125,42.0000,-178.9375,0
1776972327.760,5.6647,7.7165,-1.5538,-0.0309,0.0013,0.0152,-85.2000,40.0500,-22.6500,8.4013,-2.0925,-4.8339,-0.0104,0.0309,0.0019,0.1500,-3.1500,-181.0500,6.5200,0.1300,-7.3400,0.0000,-0.0033,0.0011,-24.2500,3.6875,43.7500,309.8125,42.0000,-178.9375,0
1776972327.765,5.6695,7.6734,-1.5060,-0.0309,0.0013,0.0152,-85.2000,40.0500,-22.6500,8.4013,-2.0925,-4.8339,-0.0104,0.0309,0.0019,0.0000,-3.7500,-179.8500,6.5200,0.1300,-7.3400,-0.0011,-0.0022,0.0000,-24.2500,3.2500,42.5625,309.8125,42.0000,-178.9375,0
1776972327.770,5.6695,7.6734,-1.5060,-0.0242,0.0003,0.0149,-85.2000,40.0500,-22.6500,8.4300,-2.0925,-4.7884,-0.0088,0.0285,0.0011,0.0000,-3.7500,-179.8500,6.5500,0.1400,-7.3400,-0.0011,-0.0022,0.0000,-24.2500,3.2500,42.5625,309.8125,42.0000,-178.9375,0
1776972327.779,5.6910,7.6662,-1.5419,-0.0330,-0.0027,0.0184,-85.8000,39.4500,-22.2000,8.4108,-2.1069,-4.8267,-0.0064,0.0274,0.0008,0.9000,-2.4000,-181.8000,6.5400,0.1500,-7.3100,0.0000,0.0065,-0.0011,-24.2500,3.2500,42.5625,309.8125,42.0000,-178.9375,0
1776972327.789,5.6695,7.6519,-1.5514,-0.0264,-0.0003,0.0120,-85.8000,39.4500,-22.2000,8.3941,-2.1117,-4.8123,-0.0120,0.0298,0.0024,-0.6000,-3.3000,-180.6000,6.5300,0.1500,-7.3500,0.0000,0.0044,0.0000,-24.2500,3.2500,42.5625,309.8125,42.0000,-178.9375,0
1776972327.797,5.7293,7.7045,-1.5107,-0.0288,0.0021,0.0112,-86.2500,39.3000,-21.1500,8.3701,-2.1045,-4.8914,-0.0120,0.0293,0.0011,-0.6000,-3.3000,-180.6000,6.5600,0.1400,-7.3300,-0.0011,0.0000,0.0000,-24.2500,3.2500,42.5625,309.8125,42.0000,-178.9375,0
1776972327.802,5.7293,7.7045,-1.5107,-0.0288,0.0021,0.0112,-86.2500,39.3000,-21.1500,8.3701,-2.1045,-4.8914,-0.0120,0.0293,0.0011,0.1500,-3.1500,-180.7500,6.5600,0.1400,-7.3300,-0.0011,0.0000,0.0000,-24.2500,3.2500,42.5625,309.8125,42.0000,-178.9375,0
1776972327.810,5.7006,7.6974,-1.4940,-0.0261,0.0037,0.0221,-84.4500,37.6500,-21.6000,8.4276,-2.0877,-4.8435,-0.0136,0.0258,0.0005,37.5000,-3.1500,-180.7500,6.5500,0.1400,-7.3400,-0.0011,0.0044,0.0011,-24.2500,3.2500,42.5625,309.8125,42.0000,-178.9375,0
1776972327.815,5.6647,7.7141,-1.4605,-0.0179,0.0011,0.0157,-84.4500,37.6500,-21.6000,8.4300,-2.1213,-4.8363,-0.0125,0.0293,0.0000,-0.9000,-1.9500,-180.3000,6.5500,0.1400,-7.3400,-0.0011,0.0000,0.0000,-25.0625,3.2500,43.0625,309.8125,42.0000,-178.9375,0
1776972327.820,5.6647,7.7141,-1.4605,-0.0179,0.0011,0.0157,-84.0000,39.3000,-21.9000,8.4300,-2.1213,-4.8363,-0.0125,0.0293,0.0000,0.3000,-3.0000,-179.1000,6.5500,0.1400,-7.3100,-0.0011,0.0000,0.0000,-25.0625,3.2500,43.0625,309.8125,42.0000,-178.9375,0
1776972327.829,5.6719,7.6614,-1.5754,-0.0282,-0.0069,0.0112,-86.1000,40.2000,-21.4500,8.4300,-2.0830,-4.8459,-0.0077,0.0325,0.0016,0.9000,-3.4500,-180.7500,6.5400,0.1100,-7.3200,0.0011,-0.0011,0.0000,-25.0625,3.2500,43.0625,309.8125,42.0000,-178.9375,0
1776972327.839,5.6910,7.6303,-1.5514,-0.0282,-0.0029,0.0104,-85.0500,39.9000,-22.2000,8.4276,-2.0494,-4.8387,-0.0101,0.0314,0.0024,0.9000,-2.7000,-180.7500,6.5500,0.1200,-7.3400,0.0000,0.0022,0.0022,-25.0625,3.2500,43.0625,309.8125,42.0000,-178.9375,0
1776972327.848,5.6910,7.6519,-1.5634,-0.0320,-0.0027,0.0168,-84.7500,39.3000,-22.3500,8.4443,-2.0877,-4.8076,-0.0096,0.0264,0.0021,0.9000,-2.7000,-179.2500,6.5400,0.1400,-7.3400,-0.0011,-0.0022,0.0000,-25.0625,3.2500,43.0625,309.8125,42.0000,-178.9375,0
1776972327.853,5.6312,7.7596,-1.5395,-0.0330,-0.0072,0.0117,-84.7500,39.3000,-22.3500,8.4013,-2.0830,-4.8291,-0.0093,0.0293,-0.0011,0.9000,-2.7000,-179.2500,6.5400,0.1400,-7.3400,-0.0011,-0.0022,0.0000,-25.0625,3.2500,43.0625,309.8125,42.0000,-178.9375,0
1776972327.860,5.6312,7.7596,-1.5395,-0.0330,-0.0072,0.0117,-84.7500,39.3000,-22.3500,8.4013,-2.0830,-4.8291,-0.0093,0.0293,-0.0011,-1.0500,-3.7500,-180.6000,6.5400,0.1100,-7.3400,0.0000,-0.0022,-0.0011,-25.0625,3.2500,43.0625,309.8125,42.0000,-178.9375,0
1776972327.865,5.7078,7.7021,-1.5107,-0.0298,-0.0053,0.0141,-84.7500,39.3000,-22.3500,8.4132,-2.0446,-4.8818,-0.0107,0.0298,0.0040,-1.0500,-3.7500,-180.6000,6.5400,0.1100,-7.3400,0.0000,-0.0033,-0.0011,-24.6875,3.2500,43.5000,309.8125,42.0000,-178.9375,0
1776972327.870,5.6719,7.7309,-1.5275,-0.0298,-0.0053,0.0141,-86.1000,39.0000,-21.0000,8.4132,-2.0446,-4.8818,-0.0107,0.0298,0.0040,-0.3000,-1.5000,-180.6000,6.5500,0.1300,-7.3300,0.0000,-0.0033,-0.0011,-24.6875,3.2500,43.5000,309.8125,42.0000,-178.9375,0
1776972327.879,5.6719,7.7309,-1.5275,-0.0288,-0.0051,0.0173,-86.1000,39.0000,-21.0000,8.4276,-2.1165,-4.8387,-0.0093,0.0229,0.0011,0.3000,-2.5500,-180.1500,6.5200,0.1100,-7.3300,0.0000,-0.0033,0.0011,-24.6875,3.2500,43.5000,309.8125,42.0000,-178.9375,0
1776972327.889,5.6790,7.6758,-1.5203,-0.0269,-0.0080,0.0160,-85.2000,38.8500,-22.6500,8.5042,-2.1117,-4.8243,-0.0064,0.0242,0.0005,-0.1500,-3.1500,-181.5000,6.5500,0.1100,-7.3500,0.0011,-0.0044,-0.0022,-24.6875,3.2500,43.5000,309.8125,42.0000,-178.9375,0
1776972327.898,5.6719,7.7692,-1.5658,-0.0272,-0.0059,0.0131,-84.7500,38.8500,-21.1500,8.4755,-2.1189,-4.7908,-0.0059,0.0328,0.0035,-0.1500,-3.1500,-181.5000,6.5300,0.1300,-7.3400,-0.0011,-0.0011,0.0000,-24.6875,3.2500,43.5000,309.8125,42.0000,-178.9375,0
1776972327.902,5.6647,7.6662,-1.4988,-0.0314,-0.0011,0.0184,-84.7500,38.8500,-21.1500,8.4060,-2.1093,-4.8219,-0.0064,0.0248,0.0029,0.0000,-3.3000,-180.9000,6.5300,0.1300,-7.3400,-0.0011,-0.0011,0.0000,-24.6875,3.2500,43.5000,309.8125,42.0000,-178.9375,0
1776972327.910,5.6790,7.6878,-1.4748,-0.0266,-0.0067,0.0149,-85.2000,39.6000,-22.3500,8.4060,-2.1093,-4.8219,-0.0064,0.0248,0.0029,0.0000,-3.3000,-180.9000,6.5300,0.1600,-7.3300,-0.0022,0.0011,-0.0022,-24.6875,3.2500,43.5000,309.8125,42.0000,-178.9375,0
1776972327.915,5.6790,7.6878,-1.4748,-0.0266,-0.0067,0.0149,-85.2000,39.6000,-22.3500,8.4156,-2.1308,-4.7908,-0.0101,0.0258,0.0027,0.0000,-3.3000,-180.9000,6.5300,0.1600,-7.3300,0.0011,0.0000,0.0000,-24.6875,4.3750,42.5625,309.8125,42.0000,-178.9375,0
1776972327.920,5.6862,7.6926,-1.5179,-0.0288,-0.0021,0.0152,-86.1000,38.7000,-21.0000,8.4156,-2.1308,-4.7908,-0.0101,0.0258,0.0027,-0.6000,-3.7500,-181.6500,6.5400,0.1300,-7.3100,0.0011,0.0000,0.0000,-24.6875,4.3750,42.5625,309.8125,42.0000,-178.9375,0
1776972327.929,5.6790,7.6830,-1.5227,-0.0320,-0.0011,0.0165,-85.3500,39.4500,-21.7500,8.4013,-2.1356,-4.8459,-0.0104,0.0288,0.0059,0.9000,-3.1500,-180.7500,6.5300,0.1400,-7.3100,0.0000,0.0022,0.0000,-24.6875,4.3750,42.5625,309.8125,42.0000,-178.9375,0
1776972327.939,5.6862,7.7309,-1.5155,-0.0400,-0.0008,0.0184,-85.2000,39.6000,-21.9000,8.3749,-2.1739,-4.8171,-0.0152,0.0301,0.0059,0.6000,-3.0000,-181.9500,6.5600,0.1300,-7.3400,0.0000,0.0022,0.0011,-24.6875,4.3750,42.5625,309.8125,42.0000,-178.9375,0
1776972327.948,5.6431,7.6399,-1.5323,-0.0320,-0.0040,0.0157,-85.2000,39.6000,-21.9000,8.4372,-2.0949,-4.8507,-0.0131,0.0245,0.0043,-0.3000,-2.5500,-178.8000,6.5400,0.1400,-7.3300,0.0011,0.0044,0.0000,-24.6875,4.3750,42.5625,309.8125,42.0000,-178.9375,0
1776972327.953,5.6431,7.6399,-1.5323,-0.0320,-0.0040,0.0157,-85.2000,39.6000,-21.9000,8.3965,-2.0925,-4.7932,-0.0109,0.0248,0.0013,-0.3000,-2.5500,-178.8000,6.5400,0.1400,-7.3300,0.0011,0.0044,0.0000,-24.6875,4.3750,42.5625,309.8125,42.0000,-178.9375,0
1776972327.960,5.7197,7.7117,-1.5107,-0.0416,-0.0037,0.0139,-84.6000,39.9000,-22.5000,8.4491,-2.1069,-4.8722,-0.0125,0.0248,0.0021,-1.2000,-3.9000,-180.7500,6.5500,0.1200,-7.3100,-0.0011,0.0033,0.0011,-24.6875,4.3750,42.5625,309.8125,42.0000,-178.9375,0
1776972327.965,5.7197,7.7117,-1.5107,-0.0416,-0.0037,0.0139,-84.6000,39.9000,-22.5000,8.4491,-2.1069,-4.8722,-0.0125,0.0248,0.0021,-1.2000,-3.9000,-180.7500,6.5500,0.1200,-7.3100,-0.0022,0.0033,-0.0011,-24.2500,4.0000,42.2500,309.8125,42.0000,-178.9375,0
1776972327.970,5.6575,7.6375,-1.5227,-0.0381,0.0000,0.0125,-84.6000,39.9000,-22.5000,8.4348,-2.1500,-4.8052,-0.0107,0.0272,0.0005,-1.2000,-3.9000,-180.7500,6.5400,0.1400,-7.3300,-0.0022,0.0033,-0.0011,-24.2500,4.0000,42.2500,309.8125,42.0000,-178.9375,0
1776972327.980,5.6719,7.7045,-1.5155,-0.0354,0.0027,0.0163,-84.7500,40.0500,-21.1500,8.3965,-2.1045,-4.8626,-0.0045,0.0290,0.0005,0.0000,-2.5500,-181.6500,6.5300,0.1200,-7.3200,-0.0011,0.0033,0.0011,-24.2500,4.0000,42.2500,309.8125,42.0000,-178.9375,0
1776972327.989,5.6575,7.6710,-1.5275,-0.0298,-0.0011,0.0139,-84.6000,38.2500,-21.7500,8.4611,-2.0710,-4.8195,-0.0096,0.0317,0.0027,0.6000,-3.7500,-180.9000,6.5300,0.1300,-7.3500,0.0000,0.0022,-0.0011,-24.2500,4.0000,42.2500,309.8125,42.0000,-178.9375,0
1776972327.999,5.7485,7.6830,-1.4892,-0.0346,-0.0032,0.0117,-84.7500,40.0500,-21.1500,8.3821,-2.0925,-4.9153,-0.0059,0.0309,0.0011,-0.4500,-3.1500,-181.0500,6.5400,0.1500,-7.3200,0.0000,0.0033,-0.0011,-24.2500,4.0000,42.2500,309.8125,42.0000,-178.9375,0
1776972328.003,5.7485,7.6830,-1.4892,-0.0346,-0.0032,0.0117,-84.7500,40.0500,-21.1500,8.3821,-2.0925,-4.9153,-0.0059,0.0309,0.0011,-0.4500,-3.1500,-181.0500,6.5400,0.1500,-7.3200,0.0000,0.0044,-0.0011,-24.2500,4.0000,42.2500,309.8125,42.0000,-178.9375,0
1776972328.010,5.7102,7.6974,-1.5467,-0.0288,-0.0019,0.0155,-84.7500,40.0500,-21.6000,8.3965,-2.1548,-4.7956,-0.0080,0.0290,0.0040,0.4500,-2.4000,-181.5000,6.5500,0.1400,-7.3300,0.0000,0.0044,-0.0011,-24.2500,4.0000,42.2500,309.8125,42.0000,-178.9375,0
1776972328.015,5.7174,7.7381,-1.4772,-0.0296,-0.0013,0.0128,-84.7500,40.0500,-21.6000,8.3965,-2.1548,-4.7956,-0.0080,0.0290,0.0040,0.4500,-2.4000,-181.5000,6.5500,0.1400,-7.3300,-0.0011,0.0022,-0.0022,-24.6875,3.2500,44.5625,309.8125,42.0000,-178.9375,0
1776972328.020,5.7174,7.7381,-1.4772,-0.0296,-0.0013,0.0128,-86.1000,39.4500,-21.0000,8.3989,-2.1500,-4.8123,-0.0117,0.0280,0.0035,0.4500,-2.4000,-181.5000,6.5300,0.1300,-7.3300,-0.0011,0.0022,-0.0022,-24.6875,3.2500,44.5625,309.8125,42.0000,-178.9375,0
1776972328.030,5.6743,7.7117,-1.5012,-0.0312,-0.0013,0.0165,-86.7000,37.6500,-22.6500,8.4443,-2.1141,-4.8554,-0.0139,0.0333,0.0043,0.4500,-2.4000,-181.5000,6.5500,0.1400,-7.3300,0.0000,0.0011,-0.0022,-24.6875,3.2500,44.5625,309.8125,42.0000,-178.9375,0
1776972328.039,5.6767,7.7213,-1.4844,-0.0306,-0.0008,0.0109,-86.7000,37.6500,-22.6500,8.4276,-2.1404,-4.8363,-0.0107,0.0264,-0.0035,1.2000,-1.9500,-181.5000,6.5500,0.1300,-7.3600,-0.0011,0.0000,0.0000,-24.6875,3.2500,44.5625,309.8125,42.0000,-178.9375,0
1776972328.048,5.7102,7.6231,-1.4437,-0.0312,0.0005,0.0149,-84.4500,38.8500,-22.6500,8.4180,-2.1261,-4.8004,-0.0120,0.0272,0.0011,-0.6000,-1.8000,-179.8500,6.5500,0.1400,-7.3000,0.0000,0.0011,0.0000,-24.6875,3.2500,44.5625,309.8125,42.0000,-178.9375,0
1776972328.053,5.7102,7.7189,-1.5012,-0.0312,0.0005,0.0149,-84.4500,38.8500,-22.6500,8.4180,-2.1261,-4.8004,-0.0120,0.0272,0.0011,-0.6000,-1.8000,-179.8500,6.5500,0.1400,-7.3000,0.0000,0.0011,0.0000,-24.6875,3.2500,44.5625,309.8125,42.0000,-178.9375,0
1776972328.060,5.7102,7.7189,-1.5012,-0.0301,0.0016,0.0115,-84.4500,38.8500,-22.6500,8.4036,-2.1021,-4.8530,-0.0091,0.0298,-0.0016,-0.9000,-2.7000,-180.0000,6.5400,0.1400,-7.3100,-0.0011,0.0011,-0.0011,-24.6875,3.2500,44.5625,309.8125,42.0000,-178.9375,0
1776972328.065,5.7221,7.7045,-1.5251,-0.0261,-0.0032,0.0133,-84.4500,38.8500,-22.6500,8.4036,-2.1021,-4.8530,-0.0091,0.0298,-0.0016,-0.4500,-3.4500,-178.9500,6.5400,0.1400,-7.3100,-0.0011,0.0011,0.0022,-25.0625,3.6875,43.0625,309.8125,42.0000,-178.9375,0
1776972328.070,5.7221,7.7045,-1.5251,-0.0261,-0.0032,0.0133,-84.6000,39.9000,-23.2500,8.4036,-2.0973,-4.8507,-0.0093,0.0306,0.0000,-0.4500,-3.4500,-178.9500,6.5500,0.1200,-7.3300,-0.0011,0.0011,0.0022,-25.0625,3.6875,43.0625,309.8125,42.0000,-178.9375,0
1776972328.080,5.6695,7.6567,-1.4868,-0.0306,0.0013,0.0152,-85.8000,37.5000,-21.7500,8.3701,-2.1189,-4.8363,-0.0083,0.0312,0.0013,-0.4500,-3.4500,-178.9500,6.5500,0.1100,-7.3000,0.0000,-0.0022,0.0011,-25.0625,3.6875,43.0625,309.8125,42.0000,-178.9375,0
1776972328.090,5.6886,7.7069,-1.5179,-0.0216,-0.0005,0.0125,-84.6000,40.2000,-22.2000,8.3582,-2.1404,-4.7597,-0.0085,0.0314,0.0021,0.6000,-3.0000,-180.6000,6.5300,0.1300,-7.3100,-0.0011,-0.0011,-0.0022,-25.0625,3.6875,43.0625,309.8125,42.0000,-178.9375,0
1776972328.099,5.6551,7.6830,-1.4940,-0.0368,-0.0037,0.0163,-84.6000,40.2000,-22.2000,8.3773,-2.1500,-4.8100,-0.0139,0.0336,0.0021,0.1500,-2.4000,-181.5000,6.5400,0.1200,-7.3500,-0.0022,0.0000,0.0000,-25.0625,3.6875,43.0625,309.8125,42.0000,-178.9375,0
1776972328.103,5.6814,7.6447,-1.5060,-0.0282,-0.0029,0.0176,-85.5000,39.6000,-21.9000,8.3773,-2.1500,-4.8100,-0.0139,0.0336,0.0021,0.1500,-2.4000,-181.5000,6.5400,0.1200,-7.3500,-0.0022,0.0000,0.0000,-25.0625,3.6875,43.0625,309.8125,42.0000,-178.9375,0
1776972328.110,5.7221,7.7069,-1.5155,-0.0282,-0.0029,0.0176,-84.6000,38.2500,-21.4500,8.4443,-2.1356,-4.8267,-0.0123,0.0288,0.0024,-1.3500,-3.0000,-180.9000,6.5400,0.1200,-7.3200,0.0000,-0.0022,-0.0022,-25.0625,3.6875,43.0625,309.8125,42.0000,-178.9375,0
1776972328.115,5.7221,7.7069,-1.5155,-0.0320,0.0013,0.0093,-84.6000,38.2500,-21.4500,8.4084,-2.0853,-4.8435,-0.0109,0.0325,0.0051,-1.2000,-1.9500,-181.5000,6.5400,0.1200,-7.3200,-0.0011,-0.0022,0.0000,-25.0625,3.2500,43.7500,309.8125,42.0000,-178.9375,0
1776972328.121,5.6551,7.6878,-1.4724,-0.0373,0.0013,0.0181,-83.4000,38.2500,-20.7000,8.4084,-2.0853,-4.8435,-0.0109,0.0325,0.0051,-1.2000,-1.9500,-181.5000,6.5500,0.1300,-7.3100,-0.0011,-0.0022,0.0000,-25.0625,3.2500,43.7500,309.8125,42.0000,-178.9375,0
1776972328.130,5.6743,7.6782,-1.5443,-0.0373,0.0013,0.0181,-83.4000,38.2500,-20.7000,8.4324,-2.0566,-4.8339,-0.0117,0.0312,0.0024,0.9000,-3.9000,-180.3000,6.5500,0.1200,-7.3100,0.0011,-0.0044,-0.0011,-25.0625,3.2500,43.7500,309.8125,42.0000,-178.9375,0
1776972328.139,5.6336,7.6734,-1.4940,-0.0304,-0.0029,0.0168,-85.0500,39.0000,-21.0000,8.3965,-2.1332,-4.8028,-0.0139,0.0288,0.0005,0.9000,-3.9000,-180.3000,6.5200,0.1300,-7.3500,0.0000,-0.0044,0.0000,-25.0625,3.2500,43.7500,309.8125,42.0000,-178.9375,0
1776972328.148,5.6336,7.6734,-1.4940,-0.0285,0.0003,0.0147,-85.0500,39.0000,-21.0000,8.4755,-2.0638,-4.7764,-0.0085,0.0333,0.0011,-0.1500,-3.4500,-181.0500,6.5400,0.1300,-7.3000,-0.0022,-0.0022,0.0000,-25.0625,3.2500,43.7500,309.8125,42.0000,-178.9375,0
1776972328.153,5.6360,7.6806,-1.5275,-0.0261,0.0005,0.0144,-85.0500,39.0000,-21.0000,8.4755,-2.1141,-4.8459,-0.0064,0.0314,-0.0005,-0.1500,-3.4500,-181.0500,6.5400,0.1300,-7.3000,-0.0022,-0.0022,0.0000,-25.0625,3.2500,43.7500,309.8125,42.0000,-178.9375,0
1776972328.160,5.7030,7.6351,-1.5275,-0.0248,0.0005,0.0165,-85.5000,38.8500,-21.9000,8.4755,-2.1141,-4.8459,-0.0064,0.0314,-0.0005,-0.3000,-2.5500,-180.1500,6.5300,0.1200,-7.3200,-0.0022,-0.0011,0.0000,-25.0625,3.2500,43.7500,309.8125,42.0000,-178.9375,0
1776972328.165,5.7030,7.6351,-1.5275,-0.0248,0.0005,0.0165,-85.5000,38.8500,-21.9000,8.3869,-2.0710,-4.8147,-0.0091,0.0274,-0.0019,-0.3000,-2.5500,-179.5500,6.5300,0.1200,-7.3200,0.0011,0.0022,0.0011,-25.5000,4.0000,43.0625,309.8125,42.0000,-178.9375,0
1776972328.171,5.6455,7.7261,-1.4509,-0.0277,0.0003,0.0184,-83.7000,39.3000,-22.3500,8.3869,-2.0710,-4.8147,-0.0091,0.0274,-0.0019,-0.3000,-2.5500,-179.5500,6.5400,0.1300,-7.3000,0.0011,0.0022,0.0011,-25.5000,4.0000,43.0625,309.8125,42.0000,-178.9375,0
1776972328.180,5.6934,7.6399,-1.5371,-0.0266,-0.0053,0.0112,-84.7500,39.6000,-20.5500,8.3941,-2.1213,-4.7980,-0.0117,0.0261,0.0053,0.1500,-2.7000,-181.0500,6.5500,0.1400,-7.3100,0.0000,0.0011,-0.0022,-25.5000,4.0000,43.0625,309.8125,42.0000,-178.9375,0
1776972328.190,5.6910,7.6758,-1.5179,-0.0349,-0.0032,0.0147,-84.1500,39.0000,-22.5000,8.3965,-2.1141,-4.8171,-0.0101,0.0258,0.0021,-0.3000,-1.0500,-181.6500,6.5400,0.1100,-7.3400,-0.0011,0.0011,-0.0022,-25.5000,4.0000,43.0625,309.8125,42.0000,-178.9375,0
1776972328.198,5.6862,7.6830,-1.4557,-0.0306,0.0013,0.0163,-84.1500,39.0000,-22.5000,8.3941,-2.0446,-4.7956,-0.0117,0.0320,0.0016,-0.3000,-1.0500,-181.6500,6.5300,0.1200,-7.3600,-0.0022,0.0000,0.0000,-25.5000,4.0000,43.0625,309.8125,42.0000,-178.9375,0
1776972328.203,5.6862,7.6830,-1.4557,-0.0306,0.0013,0.0163,-85.3500,37.5000,-21.4500,8.4515,-2.1524,-4.8315,-0.0131,0.0333,0.0005,0.1500,-2.4000,-180.3000,6.5300,0.1200,-7.3600,-0.0022,0.0000,0.0000,-25.5000,4.0000,43.0625,309.8125,42.0000,-178.9375,0
1776972328.211,5.5785,7.7141,-1.4700,-0.0282,0.0003,0.0157,-85.3500,38.2500,-21.7500,8.4060,-2.1045,-4.8387,-0.0149,0.0282,0.0040,0.1500,-2.4000,-180.3000,6.5300,0.1300,-7.3300,-0.0022,0.0000,-0.0011,-25.5000,4.0000,43.0625,309.8125,42.0000,-178.9375,0
1776972328.216,5.5785,7.7141,-1.4700,-0.0282,0.0003,0.0157,-85.3500,38.2500,-21.7500,8.4060,-2.1045,-4.8387,-0.0149,0.0282,0.0040,0.3000,-2.2500,-182.4000,6.5300,0.1300,-7.3300,0.0000,0.0011,-0.0011,-24.6875,2.8750,43.0625,309.8125,42.0000,-178.9375,0
1776972328.221,5.6288,7.6854,-1.5514,-0.0309,-0.0059,0.0184,-85.3500,38.2500,-21.7500,8.4132,-2.1021,-4.7645,-0.0117,0.0280,0.0019,0.3000,-2.2500,-182.4000,6.5700,0.1500,-7.3000,0.0000,0.0011,-0.0011,-24.6875,2.8750,43.0625,309.8125,42.0000,-178.9375,0
1776972328.230,5.6982,7.6734,-1.5658,-0.0290,-0.0003,0.0181,-86.2500,38.5500,-21.1500,8.4084,-2.1045,-4.8363,-0.0107,0.0328,0.0035,-0.1500,-3.4500,-180.7500,6.5500,0.1100,-7.3200,0.0000,0.0022,0.0000,-24.6875,2.8750,43.0625,309.8125,42.0000,-178.9375,0
1776972328.240,5.6958,7.6878,-1.5275,-0.0349,-0.0011,0.0144,-86.2500,38.5500,-21.1500,8.4084,-2.1476,-4.8219,-0.0077,0.0285,-0.0013,-0.4500,-3.4500,-181.5000,6.5400,0.1300,-7.3400,-0.0011,0.0011,0.0000,-24.6875,2.8750,43.0625,309.8125,42.0000,-178.9375,0
1776972328.249,5.6575,7.6902,-1.5275,-0.0216,-0.0016,0.0181,-86.2500,38.5500,-21.1500,8.4084,-2.1476,-4.8219,-0.0077,0.0285,-0.0013,-0.4500,-3.4500,-181.5000,6.5200,0.1100,-7.3200,0.0000,-0.0033,0.0000,-24.6875,2.8750,43.0625,309.8125,42.0000,-178.9375,0
1776972328.254,5.6575,7.6902,-1.5275,-0.0216,-0.0016,0.0181,-85.3500,39.4500,-21.4500,8.4803,-2.1237,-4.8578,-0.0077,0.0314,0.0011,-0.4500,-3.4500,-181.5000,6.5200,0.1100,-7.3200,0.0000,-0.0033,0.0000,-24.6875,2.8750,43.0625,309.8125,42.0000,-178.9375,0
1776972328.261,5.7006,7.6758,-1.5778,-0.0277,-0.0013,0.0109,-83.8500,38.7000,-21.4500,8.4659,-2.1045,-4.8411,-0.0104,0.0282,-0.0016,-0.4500,-3.4500,-181.5000,6.5400,0.1100,-7.3400,-0.0022,-0.0011,-0.0022,-24.6875,2.8750,43.0625,309.8125,42.0000,-178.9375,0
1776972328.266,5.6719,7.7357,-1.5490,-0.0272,0.0005,0.0120,-83.8500,38.7000,-21.4500,8.4659,-2.1045,-4.8411,-0.0104,0.0282,-0.0016,-1.2000,-3.1500,-181.8000,6.5400,0.1100,-7.3400,0.0011,-0.0011,0.0011,-24.6875,3.2500,42.2500,309.8125,42.0000,-178.9375,0
1776972328.271,5.6719,7.7357,-1.5490,-0.0272,0.0005,0.0120,-84.7500,39.3000,-21.9000,8.4443,-2.1308,-4.7812,-0.0139,0.0304,0.0005,-1.2000,-3.1500,-181.8000,6.5400,0.1100,-7.3200,0.0011,-0.0011,0.0011,-24.6875,3.2500,42.2500,309.8125,42.0000,-178.9375,0
1776972328.280,5.6958,7.7069,-1.5347,-0.0253,-0.0067,0.0163,-84.7500,39.3000,-21.9000,8.4420,-2.1069,-4.8076,-0.0136,0.0242,0.0000,-0.3000,-3.3000,-180.6000,6.5300,0.1100,-7.3200,-0.0011,0.0000,0.0000,-24.6875,3.2500,42.2500,309.8125,42.0000,-178.9375,0
1776972328.290,5.7221,7.6591,-1.5227,-0.0309,-0.0040,0.0136,-85.8000,38.7000,-21.7500,8.4108,-2.0734,-4.8339,-0.0085,0.0325,0.0024,-0.3000,-1.5000,-181.9500,6.5400,0.1200,-7.3300,-0.0011,0.0022,-0.0011,-24.6875,3.2500,42.2500,309.8125,42.0000,-178.9375,0
1776972328.299,5.7197,7.6806,-1.5227,-0.0330,-0.0056,0.0149,-84.7500,38.1000,-21.9000,8.3869,-2.0710,-4.7956,-0.0152,0.0298,0.0067,0.0000,-4.0500,-181.2000,6.5400,0.1000,-7.3500,-0.0011,0.0011,0.0000,-24.6875,3.2500,42.2500,309.8125,42.0000,-178.9375,0
1776972328.304,5.6910,7.6854,-1.4844,-0.0325,-0.0013,0.0147,-85.5000,39.3000,-20.5500,8.3869,-2.0710,-4.7956,-0.0152,0.0298,0.0067,0.0000,-4.0500,-181.2000,6.5400,0.1000,-7.3500,-0.0011,0.0011,0.0000,-24.6875,3.2500,42.2500,309.8125,42.0000,-178.9375,0
1776972328.311,5.6910,7.6854,-1.4844,-0.0325,-0.0013,0.0147,-85.5000,39.3000,-20.5500,8.3629,-2.1428,-4.7932,-0.0096,0.0352,-0.0011,0.0000,-4.0500,-181.2000,6.5300,0.1300,-7.3300,0.0000,0.0011,0.0000,-24.6875,3.2500,42.2500,309.8125,42.0000,-178.9375,0
1776972328.316,5.6958,7.7117,-1.5179,-0.0293,-0.0029,0.0157,-85.5000,39.3000,-20.5500,8.3629,-2.1428,-4.7932,-0.0096,0.0352,-0.0011,0.6000,-3.3000,-181.6500,6.5300,0.1300,-7.3300,-0.0022,0.0033,-0.0011,-24.6875,3.6875,43.5000,309.8125,42.0000,-178.9375,0
1776972328.321,5.6958,7.7117,-1.5179,-0.0293,-0.0029,0.0157,-84.4500,38.5500,-22.3500,8.4515,-2.0925,-4.7956,-0.0125,0.0309,0.0043,-1.2000,-4.2000,-181.5000,6.5400,0.1300,-7.3000,-0.0022,0.0033,-0.0011,-24.6875,3.6875,43.5000,309.8125,42.0000,-178.9375,0
1776972328.330,5.6719,7.6950,-1.4988,-0.0309,-0.0059,0.0144,-84.4500,38.5500,-22.3500,8.4396,-2.0997,-4.8363,-0.0077,0.0312,0.0024,-0.1500,-4.2000,-181.5000,6.5500,0.1300,-7.3300,-0.0022,0.0033,-0.0011,-24.6875,3.6875,43.5000,309.8125,42.0000,-178.9375,0
1776972328.340,5.7221,7.6926,-1.5107,-0.0304,-0.0016,0.0128,-84.4500,38.5500,-22.3500,8.4252,-2.1308,-4.8147,-0.0125,0.0296,0.0043,-0.1500,-3.9000,-180.3000,6.5300,0.1400,-7.3300,-0.0011,0.0033,0.0000,-24.6875,3.6875,43.5000,309.8125,42.0000,-178.9375,0
1776972328.349,5.6886,7.7117,-1.4581,-0.0266,-0.0008,0.0107,-85.8000,39.9000,-22.2000,8.3629,-2.1500,-4.8626,-0.0067,0.0325,0.0059,-0.1500,-1.9500,-178.9500,6.5400,0.1400,-7.3200,-0.0011,0.0022,-0.0011,-24.6875,3.6875,43.5000,309.8125,42.0000,-178.9375,0
1776972328.355,5.6336,7.6878,-1.5083,-0.0306,0.0000,0.0149,-85.5000,38.5500,-21.9000,8.3629,-2.1500,-4.8626,-0.0067,0.0325,0.0059,-1.3500,-2.5500,-181.2000,6.5400,0.1400,-7.3200,-0.0011,-0.0011,0.0011,-24.6875,3.6875,43.5000,309.8125,42.0000,-178.9375,0
1776972328.361,5.6790,7.7093,-1.4796,-0.0309,0.0035,0.0115,-85.8000,39.9000,-21.0000,8.4420,-2.0399,-4.8243,-0.0080,0.0296,0.0029,-1.3500,-2.5500,-181.2000,6.5400,0.1500,-7.3100,-0.0011,-0.0011,0.0011,-24.6875,3.6875,43.5000,309.8125,42.0000,-178.9375,0
1776972328.366,5.6790,7.7093,-1.4796,-0.0309,0.0035,0.0115,-85.8000,39.9000,-21.0000,8.4420,-2.1117,-4.7692,-0.0077,0.0336,0.0040,-1.3500,-2.5500,-181.2000,6.5400,0.1500,-7.3100,0.0000,-0.0011,-0.0011,-24.2500,3.2500,43.7500,309.8125,42.0000,-178.9375,0
1776972328.371,5.6838,7.6782,-1.5323,-0.0285,-0.0013,0.0200,-83.7000,39.3000,-22.6500,8.4420,-2.1117,-4.7692,-0.0077,0.0336,0.0040,0.0000,-2.2500,-181.2000,6.5600,0.1300,-7.3200,0.0000,-0.0011,-0.0011,-24.2500,3.2500,43.7500,309.8125,42.0000,-178.9375,0
1776972328.380,5.6407,7.7213,-1.5275,-0.0352,-0.0013,0.0125,-83.7000,39.3000,-22.6500,8.4348,-2.1380,-4.8147,-0.0072,0.0322,0.0045,-1.5000,-4.6500,-181.0500,6.5400,0.1400,-7.3500,-0.0011,-0.0011,-0.0011,-24.2500,3.2500,43.7500,309.8125,42.0000,-178.9375,0
1776972328.390,5.7317,7.6878,-1.5203,-0.0336,-0.0048,0.0112,-85.8000,39.0000,-21.7500,8.4060,-2.1835,-4.8171,-0.0064,0.0285,0.0019,-0.1500,-3.4500,-181.5000,6.5400,0.1300,-7.3500,-0.0011,0.0011,0.0011,-24.2500,3.2500,43.7500,309.8125,42.0000,-178.9375,0
1776972328.399,5.6862,7.7213,-1.4317,-0.0336,-0.0048,0.0112,-85.2000,39.6000,-21.6000,8.4276,-2.1524,-4.8267,-0.0152,0.0304,0.0021,-0.1500,-3.4500,-181.5000,6.5300,0.1400,-7.3500,0.0000,-0.0044,-0.0022,-24.2500,3.2500,43.7500,309.8125,42.0000,-178.9375,0
1776972328.404,5.6862,7.7213,-1.4317,-0.0341,-0.0021,0.0173,-85.2000,39.6000,-21.6000,8.4276,-2.1524,-4.8267,-0.0152,0.0304,0.0021,-0.3000,-2.5500,-180.6000,6.5300,0.1400,-7.3500,0.0000,-0.0044,-0.0022,-24.2500,3.2500,43.7500,309.8125,42.0000,-178.9375,0
1776972328.411,5.6814,7.6902,-1.4389,-0.0301,-0.0019,0.0163,-85.2000,39.6000,-21.6000,8.4180,-2.0782,-4.8411,-0.0131,0.0322,0.0005,-1.0500,-2.2500,-179.5500,6.5300,0.1500,-7.3200,0.0000,-0.0033,0.0011,-24.2500,3.2500,43.7500,309.8125,42.0000,-178.9375,0
1776972328.416,5.6814,7.6902,-1.4389,-0.0301,-0.0019,0.0163,-85.0500,38.7000,-21.7500,8.4132,-2.1428,-4.8195,-0.0139,0.0296,0.0029,-1.0500,-2.2500,-179.5500,6.5300,0.1500,-7.3200,0.0000,0.0044,-0.0022,-24.6875,3.2500,42.5625,309.8125,42.0000,-178.9375,0
1776972328.421,5.7054,7.7309,-1.5227,-0.0269,0.0024,0.0147,-85.0500,38.7000,-21.7500,8.4132,-2.1428,-4.8195,-0.0139,0.0296,0.0029,-1.0500,-2.2500,-179.5500,6.5400,0.1200,-7.3100,0.0000,0.0044,-0.0022,-24.6875,3.2500,42.5625,309.8125,42.0000,-178.9375,0
1776972328.431,5.6862,7.7859,-1.4964,-0.0237,-0.0008,0.0168,-85.0500,38.7000,-21.7500,8.3701,-2.1620,-4.8171,-0.0160,0.0328,-0.0005,-0.6000,-3.0000,-180.9000,6.5400,0.1200,-7.3500,-0.0022,0.0033,0.0000,-24.6875,3.2500,42.5625,309.8125,42.0000,-178.9375,0
1776972328.440,5.6767,7.6184,-1.4940,-0.0179,-0.0043,0.0104,-85.0500,38.7000,-22.5000,8.4228,-2.1261,-4.8674,-0.0128,0.0282,0.0008,-1.2000,-3.1500,-180.3000,6.5400,0.1300,-7.3500,-0.0022,0.0022,0.0000,-24.6875,3.2500,42.5625,309.8125,42.0000,-178.9375,0
1776972328.449,5.7437,7.7141,-1.4796,-0.0232,0.0005,0.0117,-83.8500,37.5000,-19.9500,8.3749,-2.0925,-4.8387,-0.0080,0.0261,0.0013,0.9000,-2.7000,-181.8000,6.5600,0.1100,-7.3300,0.0000,0.0022,0.0000,-24.6875,3.2500,42.5625,309.8125,42.0000,-178.9375,0
1776972328.454,5.7437,7.7141,-1.4796,-0.0232,0.0005,0.0117,-85.9500,39.6000,-22.6500,8.3558,-2.0566,-4.8171,-0.0093,0.0256,-0.0005,0.9000,-2.7000,-181.8000,6.5600,0.1100,-7.3300,0.0000,0.0022,0.0000,-24.6875,3.2500,42.5625,309.8125,42.0000,-178.9375,0
1776972328.461,5.6838,7.6950,-1.4796,-0.0242,-0.0019,0.0147,-85.9500,39.6000,-22.6500,8.3558,-2.0566,-4.8171,-0.0093,0.0256,-0.0005,0.4500,-2.7000,-179.2500,6.5500,0.1600,-7.3400,-0.0011,0.0000,0.0000,-24.6875,3.2500,42.5625,309.8125,42.0000,-178.9375,0
1776972328.466,5.6599,7.7333,-1.4940,-0.0242,-0.0019,0.0147,-85.5000,38.5500,-23.1000,8.4204,-2.1261,-4.8052,-0.0088,0.0258,0.0016,0.4500,-2.7000,-179.2500,6.5500,0.1600,-7.3400,0.0011,-0.0022,0.0000,-24.2500,3.6875,43.0625,309.8125,42.0000,-178.9375,0
1776972328.471,5.6599,7.7333,-1.4940,-0.0293,-0.0053,0.0107,-85.5000,38.5500,-23.1000,8.4204,-2.1261,-4.8052,-0.0088,0.0258,0.0016,-0.9000,-3.9000,-180.7500,6.5400,0.1200,-7.3400,0.0011,-0.0022,0.0000,-24.2500,3.6875,43.0625,309.8125,42.0000,-178.9375,0
1776972328.481,5.7150,7.6710,-1.5036,-0.0229,-0.0019,0.0096,-85.9500,37.6500,-22.3500,8.3869,-2.1117,-4.8363,-0.0080,0.0280,0.0037,-0.9000,-3.9000,-180.7500,6.5400,0.1200,-7.3200,-0.0011,-0.0044,0.0000,-24.2500,3.6875,43.0625,309.8125,42.0000,-178.9375,0
1776972328.490,5.7006,7.7213,-1.5060,-0.0354,-0.0008,0.0144,-85.5000,38.1000,-21.6000,8.4013,-2.1213,-4.7645,-0.0107,0.0288,0.0037,-0.4500,-3.1500,-181.5000,6.5500,0.1400,-7.3200,0.0011,0.0022,0.0011,-24.2500,3.6875,43.0625,309.8125,42.0000,-178.9375,0
1776972328.499,5.6623,7.7309,-1.5179,-0.0325,0.0035,0.0152,-85.5000,38.1000,-21.6000,8.3869,-2.0973,-4.8626,-0.0093,0.0312,0.0013,1.0500,-4.5000,-180.1500,6.5300,0.1100,-7.3500,0.0000,-0.0022,-0.0011,-24.2500,3.6875,43.0625,309.8125,42.0000,-178.9375,0
1776972328.504,5.7652,7.7428,-1.5036,-0.0325,0.0035,0.0152,-85.3500,38.2500,-21.4500,8.3653,-2.1356,-4.8530,-0.0211,0.0285,0.0000,1.0500,-4.5000,-180.1500,6.5300,0.1100,-7.3500,0.0000,-0.0022,-0.0011,-24.2500,3.6875,43.0625,309.8125,42.0000,-178.9375,0
1776972328.512,5.7652,7.7428,-1.5036,-0.0234,-0.0043,0.0136,-85.3500,38.2500,-21.4500,8.4108,-2.1620,-4.8578,-0.0117,0.0274,-0.0032,0.4500,-2.7000,-180.7500,6.5600,0.1300,-7.3400,0.0000,-0.0022,0.0000,-24.2500,3.6875,43.0625,309.8125,42.0000,-178.9375,0
1776972328.516,5.6910,7.7357,-1.5083,-0.0237,0.0035,0.0128,-85.3500,38.2500,-21.4500,8.4108,-2.1620,-4.8578,-0.0117,0.0274,-0.0032,0.4500,-2.7000,-180.7500,6.5600,0.1300,-7.3400,-0.0011,-0.0022,0.0011,-25.0625,2.5625,41.5000,309.8125,42.0000,-178.9375,0
1776972328.522,5.6910,7.7357,-1.5083,-0.0237,0.0035,0.0128,-85.3500,38.2500,-21.4500,8.4036,-2.0877,-4.8507,-0.0112,0.0280,-0.0019,-0.3000,-1.8000,-179.8500,6.5400,0.1200,-7.3200,-0.0011,-0.0022,0.0011,-25.0625,2.5625,41.5000,309.8125,42.0000,-178.9375,0
1776972328.531,5.7341,7.7117,-1.5012,-0.0189,-0.0016,0.0109,-83.4000,39.9000,-22.2000,8.3941,-2.1715,-4.8650,-0.0144,0.0264,-0.0064,-0.3000,-1.8000,-179.8500,6.5200,0.1400,-7.3400,-0.0011,-0.0055,0.0000,-25.0625,2.5625,41.5000,309.8125,42.0000,-178.9375,0
1776972328.541,5.7197,7.6758,-1.5107,-0.0240,-0.0059,0.0147,-85.8000,38.7000,-22.5000,8.4060,-2.0997,-4.8530,-0.0088,0.0328,0.0061,-0.3000,-1.8000,-179.8500,6.5400,0.1400,-7.3300,0.0000,-0.0011,-0.0022,-25.0625,2.5625,41.5000,309.8125,42.0000,-178.9375,0
1776972328.550,5.6360,7.6686,-1.5060,-0.0240,-0.0061,0.0179,-85.0500,39.0000,-21.0000,8.3965,-2.0949,-4.7908,-0.0099,0.0328,0.0019,-1.0500,-3.7500,-180.9000,6.5400,0.1200,-7.3300,0.0011,-0.0022,0.0011,-25.0625,2.5625,41.5000,309.8125,42.0000,-178.9375,0
1776972328.554,5.6671,7.6519,-1.5586,-0.0266,-0.0064,0.0144,-84.1500,38.7000,-22.9500,8.3965,-2.0949,-4.7908,-0.0099,0.0328,0.0019,-1.0500,-3.7500,-180.9000,6.5400,0.1200,-7.3300,0.0011,-0.0022,0.0011,-25.0625,2.5625,41.5000,309.8125,42.0000,-178.9375,0
1776972328.561,5.6671,7.6519,-1.5586,-0.0266,-0.0064,0.0144,-84.1500,38.7000,-22.9500,8.4779,-2.0351,-4.8267,-0.0117,0.0338,0.0061,0.4500,-1.9500,-180.0000,6.5500,0.1200,-7.3100,-0.0011,-0.0033,0.0000,-25.0625,2.5625,41.5000,309.8125,42.0000,-178.9375,0
1776972328.566,5.6862,7.7165,-1.5299,-0.0386,-0.0107,0.0155,-85.5000,38.8500,-21.9000,8.4779,-2.0351,-4.8267,-0.0117,0.0338,0.0061,1.3500,-2.5500,-181.6500,6.5500,0.1200,-7.3100,0.0000,-0.0065,-0.0022,-24.6875,3.2500,42.5625,309.8125,42.0000,-178.9375,0
1776972328.572,5.6743,7.7117,-1.5395,-0.0386,-0.0107,0.0155,-85.5000,38.8500,-21.9000,8.4084,-2.0566,-4.8219,-0.0120,0.0312,0.0011,1.3500,-2.5500,-181.6500,6.5300,0.1300,-7.3200,0.0000,-0.0065,-0.0022,-24.6875,3.2500,42.5625,309.8125,42.0000,-178.9375,0
1776972328.581,5.5785,7.7812,-1.5826,-0.0357,-0.0029,0.0155,-85.9500,38.1000,-23.4000,8.4420,-2.0566,-4.7645,-0.0077,0.0304,0.0035,-1.0500,-2.5500,-179.1000,6.5400,0.1000,-7.3400,0.0011,-0.0044,-0.0011,-24.6875,3.2500,42.5625,309.8125,42.0000,-178.9375,0
1776972328.591,5.6695,7.7141,-1.5395,-0.0322,-0.0093,0.0128,-85.9500,38.1000,-23.4000,8.4707,-2.0853,-4.7669,-0.0072,0.0264,0.0024,-1.0500,-2.5500,-179.1000,6.5400,0.1100,-7.3400,0.0000,-0.0022,0.0011,-24.6875,3.2500,42.5625,309.8125,42.0000,-178.9375,0
1776972328.600,5.6695,7.7141,-1.5395,-0.0314,-0.0072,0.0200,-85.9500,38.5500,-21.9000,8.5210,-2.0949,-4.7357,-0.0059,0.0309,0.0059,0.6000,-1.8000,-180.6000,6.5300,0.1300,-7.3600,-0.0011,-0.0011,-0.0011,-24.6875,3.2500,42.5625,309.8125,42.0000,-178.9375,0
1776972328.605,5.6240,7.6878,-1.5443,-0.0266,-0.0056,0.0131,-85.9500,38.5500,-21.9000,8.5210,-2.0949,-4.7357,-0.0059,0.0309,0.0059,0.6000,-1.8000,-180.6000,6.5300,0.1300,-7.3600,-0.0011,-0.0011,-0.0011,-24.6875,3.2500,42.5625,309.8125,42.0000,-178.9375,0
1776972328.612,5.6431,7.7452,-1.5706,-0.0285,-0.0045,0.0147,-85.9500,38.5500,-21.9000,8.4874,-2.0566,-4.7381,-0.0032,0.0264,0.0045,-0.3000,-3.3000,-179.1000,6.5300,0.1300,-7.3300,-0.0011,0.0000,-0.0011,-24.6875,3.2500,42.5625,309.8125,42.0000,-178.9375,0
1776972328.617,5.6431,7.7452,-1.5706,-0.0285,-0.0045,0.0147,-85.2000,39.3000,-22.3500,8.4874,-2.0566,-4.7381,-0.0032,0.0264,0.0045,0.3000,-3.0000,-180.9000,6.5300,0.1300,-7.3300,-0.0022,0.0011,-0.0011,-24.6875,3.2500,42.5625,309.8125,42.0000,-178.9375,0
1776972328.622,5.7174,7.6686,-1.5083,-0.0269,-0.0045,0.0131,-85.2000,39.3000,-22.3500,8.4467,-2.2314,-4.7621,-0.0048,0.0242,0.0061,0.3000,-3.0000,-180.9000,6.5300,0.1300,-7.3100,-0.0022,0.0011,-0.0011,-24.6875,3.2500,42.5625,309.8125,42.0000,-178.9375,0
1776972328.631,5.6886,7.6806,-1.5778,-0.0261,-0.0043,0.0192,-85.5000,38.5500,-20.8500,8.4635,-2.1452,-4.8004,-0.0104,0.0240,0.0037,-1.3500,-4.0500,-180.6000,6.5200,0.1400,-7.3200,-0.0022,0.0055,0.0000,-24.6875,3.2500,42.5625,309.8125,42.0000,-178.9375,0
1776972328.641,5.6838,7.6710,-1.5395,-0.0346,-0.0005,0.0189,-84.0000,39.6000,-22.3500,8.4348,-2.0806,-4.7477,-0.0155,0.0200,0.0064,0.3000,-1.8000,-180.9000,6.5300,0.1400,-7.3600,-0.0011,0.0033,-0.0011,-24.6875,3.2500,42.5625,309.8125,42.0000,-178.9375,0
1776972328.651,5.6455,7.6567,-1.5514,-0.0397,-0.0043,0.0179,-85.3500,39.9000,-22.5000,8.3941,-2.0997,-4.7597,-0.0165,0.0200,0.0072,0.3000,-1.8000,-180.9000,6.5500,0.1300,-7.3200,-0.0011,0.0055,0.0011,-24.6875,3.2500,42.5625,309.8125,42.0000,-178.9375,0
1776972328.659,5.7078,7.6614,-1.5802,-0.0418,-0.0032,0.0152,-84.1500,38.7000,-22.5000,8.3941,-2.0973,-4.8100,-0.0149,0.0277,0.0035,0.0000,-2.5500,-180.1500,6.5300,0.1400,-7.3400,-0.0022,0.0076,0.0000,-24.6875,3.2500,42.5625,309.8125,42.0000,-178.9375,0
1776972328.664,5.7078,7.6614,-1.5802,-0.0418,-0.0032,0.0152,-84.1500,38.7000,-22.5000,8.3941,-2.0973,-4.8100,-0.0149,0.0277,0.0035,0.0000,-2.5500,-180.1500,6.5300,0.1400,-7.3400,-0.0022,0.0076,0.0000,-24.6875,3.2500,42.5625,309.8125,42.0000,-178.9375,0
1776972328.668,5.6982,7.6782,-1.5538,-0.0432,0.0005,0.0147,-84.6000,39.4500,-21.0000,8.3103,-2.0590,-4.8435,-0.0107,0.0224,0.0051,0.9000,-3.4500,-180.7500,6.5400,0.1200,-7.3200,-0.0011,0.0098,0.0022,-24.0000,3.6875,43.7500,309.8125,42.0000,-178.9375,0
1776972328.673,5.6982,7.6782,-1.5538,-0.0432,0.0005,0.0147,-84.6000,39.4500,-21.0000,8.3103,-2.0590,-4.8435,-0.0107,0.0224,0.0051,0.9000,-3.4500,-180.7500,6.5400,0.1200,-7.3200,-0.0011,0.0098,0.0022,-24.0000,3.6875,43.7500,309.8125,42.0000,-178.9375,0
1776972328.682,5.6910,7.6854,-1.4796,-0.0426,0.0000,0.0197,-84.6000,39.4500,-21.0000,8.4300,-2.0542,-4.9105,-0.0112,0.0296,0.0016,-1.5000,-3.1500,-180.0000,6.5400,0.1300,-7.3400,-0.0022,0.0109,0.0011,-24.0000,3.6875,43.7500,309.8125,42.0000,-178.9375,0
1776972328.691,5.7102,7.6758,-1.5538,-0.0416,-0.0067,0.0149,-85.8000,39.4500,-21.4500,8.3534,-2.1380,-4.8052,-0.0051,0.0250,0.0040,0.0000,-3.0000,-181.2000,6.5500,0.1100,-7.3300,0.0000,0.0044,-0.0011,-24.0000,3.6875,43.7500,309.8125,42.0000,-178.9375,0
1776972328.701,5.7245,7.6088,-1.5371,-0.0325,-0.0045,0.0218,-85.8000,39.4500,-21.4500,8.4467,-2.0758,-4.8698,-0.0069,0.0264,0.0032,0.6000,-3.0000,-181.6500,6.5600,0.1200,-7.3200,0.0000,0.0065,-0.0022,-24.0000,3.6875,43.7500,309.8125,42.0000,-178.9375,0
1776972328.710,5.5929,7.6734,-1.5203,-0.0320,-0.0035,0.0197,-85.2000,39.6000,-21.6000,8.4300,-2.0686,-4.8028,-0.0024,0.0320,0.0021,0.6000,-3.0000,-181.6500,6.5400,0.1300,-7.3000,0.0000,0.0000,0.0000,-24.0000,3.6875,43.7500,309.8125,42.0000,-178.9375,0
1776972328.714,5.5929,7.6734,-1.5203,-0.0320,-0.0035,0.0197,-85.2000,39.6000,-21.6000,8.4348,-2.0686,-4.7836,-0.0083,0.0266,0.0021,0.1500,-2.4000,-180.7500,6.5400,0.1300,-7.3000,0.0000,0.0000,0.0000,-24.2500,3.6875,43.5000,309.8125,42.0000,-178.9375,0
1776972328.722,5.7102,7.6830,-1.5395,-0.0376,-0.0021,0.0149,-85.3500,38.2500,-21.0000,8.4348,-2.0686,-4.7836,-0.0083,0.0266,0.0021,0.1500,-2.4000,-180.7500,6.5500,0.1100,-7.3100,-0.0011,0.0011,0.0000,-24.2500,3.6875,43.5000,309.8125,42.0000,-178.9375,0
1776972328.731,5.6790,7.6447,-1.5419,-0.0325,0.0008,0.0192,-84.4500,40.0500,-21.9000,8.4013,-2.1237,-4.8291,-0.0109,0.0282,0.0037,0.6000,-3.7500,-180.6000,6.5500,0.1300,-7.3100,0.0011,0.0022,-0.0022,-24.2500,3.6875,43.5000,309.8125,42.0000,-178.9375,0
1776972328.741,5.7006,7.6878,-1.5131,-0.0325,-0.0003,0.0224,-85.3500,39.0000,-22.2000,8.3749,-2.0949,-4.8028,-0.0141,0.0309,0.0048,1.5000,-3.9000,-181.0500,6.5500,0.1300,-7.3200,-0.0011,0.0022,0.0000,-24.2500,3.6875,43.5000,309.8125,42.0000,-178.9375,0
1776972328.749,5.7102,7.6710,-1.5467,-0.0389,-0.0003,0.0152,-83.4000,38.2500,-21.4500,8.4013,-2.1165,-4.7884,-0.0133,0.0298,0.0077,-0.1500,-2.4000,-179.7000,6.5400,0.1400,-7.3200,0.0000,0.0000,0.0011,-24.2500,3.6875,43.5000,309.8125,42.0000,-178.9375,0
1776972328.754,5.7102,7.7333,-1.4820,-0.0389,-0.0003,0.0152,-83.4000,38.2500,-21.4500,8.3821,-2.0925,-4.8147,-0.0120,0.0288,0.0008,-0.1500,-2.4000,-179.7000,6.5400,0.1400,-7.3200,0.0000,0.0000,0.0011,-24.2500,3.6875,43.5000,309.8125,42.0000,-178.9375,0
1776972328.762,5.7102,7.7333,-1.4820,-0.0410,-0.0011,0.0131,-85.3500,39.0000,-21.0000,8.3821,-2.0925,-4.8147,-0.0120,0.0288,0.0008,-0.1500,-2.4000,-179.7000,6.5200,0.1500,-7.3000,0.0000,0.0044,0.0000,-24.2500,3.6875,43.5000,309.8125,42.0000,-178.9375,0
1776972328.767,5.7126,7.6088,-1.5155,-0.0330,-0.0016,0.0147,-85.3500,39.0000,-21.0000,8.3965,-2.1380,-4.8100,-0.0131,0.0314,0.0080,-0.1500,-2.4000,-179.7000,6.5200,0.1500,-7.3000,0.0000,0.0011,-0.0011,-24.2500,4.3750,43.7500,309.8125,42.0000,-178.9375,0
1776972328.772,5.7126,7.6088,-1.5155,-0.0330,-0.0016,0.0147,-85.3500,39.0000,-21.0000,8.3965,-2.0973,-4.8554,-0.0123,0.0293,0.0043,-0.1500,-2.4000,-179.7000,6.5300,0.1400,-7.3100,0.0000,0.0011,-0.0011,-24.2500,4.3750,43.7500,309.8125,42.0000,-178.9375,0
1776972328.781,5.7341,7.6638,-1.4389,-0.0330,-0.0013,0.0157,-85.0500,40.2000,-20.7000,8.4132,-2.0853,-4.7956,-0.0107,0.0368,0.0029,-0.3000,-3.3000,-180.1500,6.5500,0.1400,-7.3400,0.0000,-0.0022,0.0000,-24.2500,4.3750,43.7500,309.8125,42.0000,-178.9375,0
1776972328.791,5.6862,7.7045,-1.4676,-0.0317,-0.0024,0.0096,-85.0500,40.2000,-20.7000,8.3773,-2.0997,-4.8171,-0.0144,0.0296,0.0013,-0.9000,-3.4500,-180.7500,6.5500,0.1500,-7.3400,-0.0022,0.0011,0.0000,-24.2500,4.3750,43.7500,309.8125,42.0000,-178.9375,0
1776972328.800,5.7174,7.7596,-1.5155,-0.0381,-0.0040,0.0123,-83.8500,37.9500,-21.7500,8.3773,-2.0997,-4.8171,-0.0144,0.0296,0.0013,1.3500,-3.7500,-181.2000,6.5400,0.1300,-7.3200,0.0000,0.0033,0.0000,-24.2500,4.3750,43.7500,309.8125,42.0000,-178.9375,0
1776972328.805,5.7030,7.6591,-1.5036,-0.0370,-0.0051,0.0112,-83.8500,37.9500,-21.7500,8.3869,-2.1069,-4.8459,-0.0101,0.0264,0.0003,0.3000,-3.7500,-180.6000,6.5400,0.1300,-7.3200,0.0000,0.0033,0.0000,-24.2500,4.3750,43.7500,309.8125,42.0000,-178.9375,0
1776972328.812,5.6982,7.6662,-1.5610,-0.0370,-0.0051,0.0112,-84.1500,38.7000,-19.5000,8.4228,-2.1093,-4.8339,-0.0109,0.0317,0.0037,0.3000,-3.7500,-180.6000,6.5400,0.1300,-7.3200,0.0000,0.0000,0.0011,-24.2500,4.3750,43.7500,309.8125,42.0000,-178.9375,0
1776972328.817,5.6982,7.6662,-1.5610,-0.0370,-0.0045,0.0109,-85.2000,39.6000,-22.6500,8.4228,-2.1093,-4.8339,-0.0109,0.0317,0.0037,0.3000,-3.7500,-180.6000,6.5400,0.1300,-7.3200,0.0011,-0.0022,0.0000,-24.6875,3.6875,42.2500,309.8125,42.0000,-178.9375,0
1776972328.822,5.6407,7.6854,-1.4988,-0.0309,-0.0032,0.0139,-85.2000,39.6000,-22.6500,8.4252,-2.1141,-4.8267,-0.0112,0.0330,-0.0021,-0.1500,-2.7000,-178.9500,6.5600,0.1100,-7.3100,0.0011,-0.0022,0.0000,-24.6875,3.6875,42.2500,309.8125,42.0000,-178.9375,0
1776972328.831,5.6503,7.6950,-1.5251,-0.0309,-0.0032,0.0139,-84.4500,36.9000,-22.3500,8.4515,-2.1165,-4.8171,-0.0072,0.0269,-0.0037,-0.1500,-2.7000,-178.9500,6.5400,0.1100,-7.3300,-0.0011,-0.0011,-0.0011,-24.6875,3.6875,42.2500,309.8125,42.0000,-178.9375,0
1776972328.841,5.7197,7.7261,-1.5060,-0.0224,-0.0040,0.0115,-85.3500,38.2500,-22.9500,8.3869,-2.1404,-4.7669,-0.0059,0.0336,-0.0005,0.1500,-1.6500,-180.3000,6.5300,0.1300,-7.3400,-0.0011,0.0011,-0.0011,-24.6875,3.6875,42.2500,309.8125,42.0000,-178.9375,0
1776972328.850,5.6623,7.7117,-1.4700,-0.0280,-0.0035,0.0136,-85.9500,39.6000,-21.9000,8.4324,-2.1069,-4.8076,-0.0080,0.0317,0.0000,0.1500,-3.4500,-180.0000,6.5400,0.1500,-7.3300,0.0000,0.0022,-0.0011,-24.6875,3.6875,42.2500,309.8125,42.0000,-178.9375,0
1776972328.855,5.6623,7.7117,-1.4700,-0.0229,0.0011,0.0165,-85.9500,39.6000,-21.9000,8.4324,-2.1069,-4.8076,-0.0080,0.0317,0.0000,0.0000,-3.3000,-180.9000,6.5400,0.1500,-7.3300,0.0000,0.0022,-0.0011,-24.6875,3.6875,42.2500,309.8125,42.0000,-178.9375,0
1776972328.862,5.6982,7.6471,-1.5299,-0.0245,-0.0021,0.0168,-85.9500,39.6000,-21.9000,8.4587,-2.1045,-4.7692,-0.0133,0.0317,-0.0011,-0.6000,-2.2500,-179.8500,6.5500,0.1600,-7.3200,0.0000,0.0022,-0.0011,-24.6875,3.6875,42.2500,309.8125,42.0000,-178.9375,0
1776972328.867,5.6982,7.6471,-1.5299,-0.0245,-0.0021,0.0168,-85.2000,39.6000,-22.3500,8.4587,-2.1045,-4.7692,-0.0133,0.0317,-0.0011,-0.6000,-2.2500,-179.8500,6.5500,0.1600,-7.3200,-0.0011,0.0011,-0.0011,-24.0000,3.6875,43.0625,309.8125,42.0000,-178.9375,0
1776972328.872,5.7006,7.6471,-1.4844,-0.0232,0.0003,0.0157,-85.2000,39.6000,-22.3500,8.4084,-2.1763,-4.8028,-0.0096,0.0248,0.0016,-0.6000,-2.2500,-179.8500,6.5800,0.1200,-7.3000,-0.0011,0.0011,-0.0011,-24.0000,3.6875,43.0625,309.8125,42.0000,-178.9375,0
1776972328.882,5.7126,7.7476,-1.5323,-0.0261,-0.0051,0.0101,-85.2000,39.6000,-22.3500,8.4013,-2.0710,-4.8052,-0.0123,0.0301,-0.0032,-1.0500,-3.3000,-180.1500,6.5300,0.1400,-7.3300,0.0011,0.0011,0.0011,-24.0000,3.6875,43.0625,309.8125,42.0000,-178.9375,0
1776972328.892,5.6814,7.6998,-1.4868,-0.0264,-0.0075,0.0165,-85.3500,39.0000,-21.0000,8.4228,-2.1524,-4.8147,-0.0120,0.0309,0.0003,0.0000,-2.5500,-182.4000,6.5500,0.1300,-7.3500,0.0000,0.0000,0.0011,-24.0000,3.6875,43.0625,309.8125,42.0000,-178.9375,0
1776972328.901,5.6671,7.7045,-1.5179,-0.0256,0.0035,0.0128,-85.5000,39.3000,-22.3500,8.5090,-2.1476,-4.8100,-0.0120,0.0344,-0.0013,0.3000,-2.5500,-180.6000,6.5400,0.1300,-7.3300,0.0000,0.0011,0.0000,-24.0000,3.6875,43.0625,309.8125,42.0000,-178.9375,0
1776972328.911,5.6814,7.6495,-1.5179,-0.0274,-0.0069,0.0131,-84.7500,38.8500,-22.3500,8.4252,-2.1380,-4.8219,-0.0059,0.0266,0.0013,-1.5000,-2.7000,-181.5000,6.5500,0.1600,-7.3200,0.0022,-0.0011,-0.0011,-24.0000,3.6875,43.0625,309.8125,42.0000,-178.9375,0
1776972328.916,5.6814,7.6495,-1.5179,-0.0274,-0.0069,0.0131,-84.7500,38.8500,-22.3500,8.4252,-2.1380,-4.8219,-0.0059,0.0266,0.0013,-1.5000,-2.7000,-181.5000,6.5500,0.1600,-7.3200,-0.0022,-0.0044,0.0000,-23.6875,3.6875,43.0625,309.8125,42.0000,-178.9375,0
1776972328.922,5.6264,7.6638,-1.5419,-0.0290,-0.0032,0.0149,-84.7500,38.1000,-21.9000,8.3845,-2.1069,-4.8387,-0.0053,0.0312,-0.0043,-0.4500,-4.2000,-179.7000,6.5500,0.1200,-7.3200,-0.0022,-0.0044,0.0000,-23.6875,3.6875,43.0625,309.8125,42.0000,-178.9375,0
1776972328.932,5.6862,7.6902,-1.5443,-0.0272,-0.0043,0.0149,-85.0500,39.4500,-21.7500,8.4324,-2.1165,-4.8483,-0.0080,0.0274,-0.0032,-0.4500,-4.2000,-179.7000,6.5500,0.1500,-7.3200,0.0022,-0.0033,0.0000,-23.6875,3.6875,43.0625,309.8125,42.0000,-178.9375,0
1776972328.942,5.6695,7.7189,-1.5467,-0.0290,-0.0027,0.0120,-85.5000,39.6000,-20.8500,8.5497,-2.1524,-4.7788,0.0000,0.0328,-0.0021,0.9000,-2.4000,-180.3000,6.5100,0.1100,-7.3500,0.0000,-0.0022,0.0011,-23.6875,3.6875,43.0625,309.8125,42.0000,-178.9375,0
1776972328.951,5.7078,7.7405,-1.5131,-0.0234,0.0045,0.0096,-85.5000,39.6000,-20.8500,8.5234,-2.1284,-4.7932,0.0005,0.0282,-0.0067,0.0000,-2.5500,-178.8000,6.5200,0.1300,-7.3400,0.0000,-0.0011,-0.0011,-23.6875,3.6875,43.0625,309.8125,42.0000,-178.9375,0
1776972328.958,5.6168,7.7333,-1.5036,-0.0208,0.0099,0.0107,-85.8000,39.4500,-21.4500,8.4707,-2.1739,-4.8123,0.0053,0.0288,-0.0104,0.0000,-2.5500,-178.8000,6.5400,0.1400,-7.3400,0.0000,0.0022,-0.0011,-23.6875,3.6875,43.0625,309.8125,42.0000,-178.9375,0
1776972328.963,5.6168,7.7333,-1.5036,-0.0208,0.0099,0.0107,-85.8000,39.4500,-21.4500,8.4707,-2.1739,-4.8123,0.0053,0.0288,-0.0104,-0.4500,-2.7000,-181.0500,6.5400,0.1400,-7.3400,0.0000,0.0022,-0.0011,-23.6875,3.6875,43.0625,309.8125,42.0000,-178.9375,0
1776972328.968,5.6383,7.6902,-1.6113,-0.0234,0.0109,0.0064,-85.8000,39.4500,-21.4500,8.4348,-2.2314,-4.7860,-0.0013,0.0309,-0.0077,-0.4500,-2.7000,-181.0500,6.5100,0.1500,-7.3400,-0.0011,0.0087,0.0022,-24.6875,3.2500,42.5625,309.8125,42.0000,-178.9375,0
1776972328.973,5.6383,7.6902,-1.6113,-0.0234,0.0109,0.0064,-85.8000,39.4500,-21.4500,8.4348,-2.2314,-4.7860,-0.0013,0.0309,-0.0077,-0.1500,-1.9500,-180.3000,6.5100,0.1500,-7.3400,-0.0011,0.0087,0.0022,-24.6875,3.2500,42.5625,309.8125,42.0000,-178.9375,0
1776972328.982,5.7150,7.6614,-1.5131,-0.0128,0.0163,0.0083,-84.0000,37.3500,-21.1500,8.4132,-2.1596,-4.7932,-0.0037,0.0285,-0.0144,-1.3500,-2.5500,-180.9000,6.5400,0.1300,-7.3100,0.0000,0.0098,0.0044,-24.6875,3.2500,42.5625,309.8125,42.0000,-178.9375,0
1776972328.992,5.6407,7.6926,-1.5586,-0.0189,0.0152,0.0032,-86.7000,38.1000,-21.6000,8.2600,-2.1428,-4.8554,-0.0144,0.0242,-0.0115,-1.3500,-2.5500,-180.9000,6.5700,0.1200,-7.3100,0.0011,0.0120,0.0065,-24.6875,3.2500,42.5625,309.8125,42.0000,-178.9375,0
