timestamp,thigh_acc_x,thigh_acc_y,thigh_acc_z,thigh_gyro_x,thigh_gyro_y,thigh_gyro_z,thigh_mag_x,thigh_mag_y,thigh_mag_z,shank_acc_x,shank_acc_y,shank_acc_z,shank_gyro_x,shank_gyro_y,shank_gyro_z,shank_mag_x,shank_mag_y,shank_mag_z,foot_acc_x,foot_acc_y,foot_acc_z,foot_gyro_x,foot_gyro_y,foot_gyro_z,foot_mag_x,foot_mag_y,foot_mag_z,foot_euler_x,foot_euler_y,foot_euler_z,perturbation_event
1776974153.835,9.5146,-0.5770,2.9377,-0.2569,-2.4379,-2.8690,-66.9000,16.2000,25.6500,7.6638,2.6504,-1.3144,-1.6577,-0.2297,0.1892,-86.7000,31.0500,27.0000,-14.3900,-6.3000,-9.8300,0.9632,3.3521,-1.8762,39.8750,37.2500,31.7500,37.1250,-24.4375,154.9375,0
1776974153.840,9.5146,-0.5770,2.9377,-0.2569,-2.4379,-2.8690,-66.9000,16.2000,25.6500,7.6303,3.6847,-1.2594,-1.8008,-0.0490,0.1737,-86.7000,31.0500,27.0000,-14.3900,-6.3000,-9.8300,0.9632,3.3521,-1.8762,39.8750,37.2500,31.7500,36.5625,-22.1875,154.3125,0
1776974153.848,10.3430,-1.2019,3.1364,-0.4109,-2.3550,-2.7219,-66.1500,20.8500,23.1000,8.7197,4.9871,-1.8124,-1.7048,-0.5545,0.1780,-87.4500,31.5000,26.2500,-12.6700,-5.2500,-9.2200,1.0057,3.5125,-1.9460,39.8750,37.2500,31.7500,36.0000,-20.0625,153.6875,0
1776974153.857,10.3022,-1.6352,2.7749,-0.5305,-2.2545,-2.5937,-65.2500,21.0000,22.2000,8.4396,5.9616,-2.5259,-1.8636,-0.2302,0.1996,-84.7500,33.1500,27.6000,-12.6000,-4.4500,-9.1700,1.0036,3.3783,-1.9264,39.8750,37.2500,31.7500,36.0000,-20.0625,153.6875,0
1776974153.862,10.2496,-1.7621,2.4900,-0.7834,-2.2846,-2.5221,-65.2500,21.0000,22.2000,8.4396,5.9616,-2.5259,-1.8636,-0.2302,0.1996,-84.7500,33.1500,27.6000,-12.6000,-4.4500,-9.1700,1.0036,3.3783,-1.9264,39.8750,37.2500,31.7500,35.5000,-17.9375,153.1250,0
1776974153.867,10.2496,-1.7621,2.4900,-0.7834,-2.2846,-2.5221,-67.3500,22.5000,21.1500,8.6646,7.1754,-2.8994,-1.6342,-0.0637,0.1911,-84.0000,31.9500,28.2000,-12.3300,-3.9600,-9.0000,1.0276,3.2921,-1.8740,22.5000,43.3750,27.7500,35.5000,-17.9375,153.1250,0
1776974153.872,9.4643,-1.9800,2.2817,-0.9425,-2.1994,-2.5002,-67.3500,22.5000,21.1500,8.6646,7.1754,-2.8994,-1.6342,-0.0637,0.1911,-84.0000,31.9500,28.2000,-12.3300,-3.9600,-9.0000,1.0276,3.2921,-1.8740,22.5000,43.3750,27.7500,35.0000,-15.9375,152.5000,0
1776974153.877,9.4643,-1.9800,2.2817,-0.9425,-2.1994,-2.5002,-66.0000,23.4000,19.9500,8.9352,8.1020,-3.2729,-1.3707,-0.2102,0.2180,-84.0000,31.9500,28.2000,-11.9800,-3.2000,-8.3100,1.0570,3.1940,-1.7704,22.5000,43.3750,27.7500,35.0000,-15.9375,152.5000,0
1776974153.884,8.7245,-1.7933,1.5514,-1.1572,-1.9617,-2.4642,-66.0000,23.4000,19.9500,8.9352,8.1020,-3.2729,-1.3707,-0.2102,0.2180,-84.4500,30.1500,28.9500,-11.5500,-2.6700,-7.6300,1.0417,3.1580,-1.5850,22.5000,43.3750,27.7500,34.6250,-13.9375,151.9375,0
1776974153.889,8.7245,-1.7933,1.5514,-1.1572,-1.9617,-2.4642,-66.0000,23.4000,19.9500,8.8466,8.7795,-3.2609,-1.0853,-0.1516,0.2694,-84.4500,30.1500,28.9500,-11.5500,-2.6700,-7.6300,1.0417,3.1580,-1.5850,22.5000,43.3750,27.7500,34.4375,-12.1250,151.3750,0
1776974153.897,8.5425,-1.1492,1.2522,-1.3169,-1.7363,-2.3982,-65.1000,25.2000,18.6000,8.7676,8.9232,-2.7557,-0.6486,0.0983,0.2758,-85.0500,30.9000,28.2000,-11.7000,-2.2100,-7.3200,1.0734,3.1230,-1.2948,22.5000,43.3750,27.7500,34.3750,-10.3750,150.8125,0
1776974153.907,8.4970,-0.6656,0.9553,-1.4410,-1.4850,-2.3046,-65.1000,25.2000,18.6000,8.3749,8.5665,-2.1332,-0.3469,0.3269,0.3080,-84.4500,30.9000,27.1500,-11.9400,-1.5600,-7.0300,1.1301,3.0336,-0.9403,22.5000,43.3750,27.7500,34.3750,-10.3750,150.8125,0
1776974153.912,8.6598,-0.0575,1.0391,-1.4424,-1.2638,-2.1583,-65.1000,25.2000,18.6000,8.3749,8.5665,-2.1332,-0.3469,0.3269,0.3080,-84.4500,30.9000,27.1500,-11.9400,-1.5600,-7.0300,1.1301,3.0336,-0.9403,22.5000,43.3750,27.7500,34.3750,-10.3750,150.8125,0
1776974153.917,8.6598,-0.0575,1.0391,-1.4424,-1.2638,-2.1583,-64.5000,26.1000,18.4500,8.2720,7.9679,-1.4676,0.0285,0.5071,0.3048,-84.4500,29.4000,29.2500,-11.8200,-0.8700,-6.5600,1.3079,2.9692,-0.6141,13.3750,45.0000,20.5625,34.5625,-8.7500,150.1875,0
1776974153.922,8.6622,0.1676,0.7949,-1.4346,-1.0360,-1.9633,-64.5000,26.1000,18.4500,8.2720,7.9679,-1.4676,0.0285,0.5071,0.3048,-84.4500,29.4000,29.2500,-11.8200,-0.8700,-6.5600,1.3079,2.9692,-0.6141,13.3750,45.0000,20.5625,34.5625,-8.7500,150.1875,0
1776974153.927,8.6191,0.3376,0.6297,-1.4346,-1.0360,-1.9633,-63.3000,25.8000,17.7000,8.2744,7.1730,-0.9313,0.4085,0.5737,0.2928,-84.4500,29.4000,29.2500,-11.6900,-1.0500,-6.2000,1.5032,2.8798,-0.3872,13.3750,45.0000,20.5625,34.8125,-7.2500,149.4375,0
1776974153.936,8.6191,0.3376,0.6297,-1.4429,-0.8050,-1.7459,-64.0500,26.1000,17.4000,8.3653,6.8450,-0.8380,0.7325,0.4964,0.2790,-83.2500,30.4500,28.2000,-11.4700,-1.1300,-5.8100,1.5904,2.7314,-0.2280,13.3750,45.0000,20.5625,35.1875,-5.9375,148.6250,0
1776974153.941,8.5521,0.9194,0.3065,-1.4109,-0.6446,-1.5015,-64.0500,26.1000,17.4000,8.3653,6.8450,-0.8380,0.7325,0.4964,0.2790,-83.2500,30.4500,28.2000,-11.4700,-1.1300,-5.8100,1.5904,2.7314,-0.2280,13.3750,45.0000,20.5625,35.5625,-4.6875,147.8125,0
1776974153.948,8.2863,1.4006,-0.1915,-1.3342,-0.5039,-1.2526,-63.9000,27.9000,18.3000,8.4300,6.7684,-1.1325,0.9987,0.4482,0.3118,-85.8000,31.6500,29.2500,-11.0400,-0.6700,-4.6500,1.5784,2.5427,-0.1374,13.3750,45.0000,20.5625,35.8750,-3.5625,147.0625,0
1776974153.958,7.9368,1.8435,-0.1197,-1.0850,-0.3472,-0.9777,-63.7500,28.5000,17.4000,8.4252,6.6343,-1.5610,1.1359,0.4293,0.3914,-84.4500,31.2000,28.2000,-11.0100,-0.5300,-4.0500,1.4693,2.3224,-0.0916,13.3750,45.0000,20.5625,35.8750,-3.5625,147.0625,0
1776974153.962,7.9368,1.8435,-0.1197,-1.0850,-0.3472,-0.9777,-63.7500,28.5000,17.4000,8.4252,6.6343,-1.5610,1.1359,0.4293,0.3914,-84.6000,31.5000,28.5000,-11.0100,-0.5300,-4.0500,1.4693,2.3224,-0.0916,10.2500,42.5000,16.5625,36.1875,-2.6250,146.3750,0
1776974153.967,7.7883,2.4134,-0.3304,-0.7703,-0.1418,-0.6875,-62.7000,28.3500,17.5500,8.4108,6.4596,-1.8603,1.1551,0.4151,0.4525,-84.6000,31.5000,28.5000,-11.0200,-0.3400,-3.7700,1.3057,1.9733,-0.0764,10.2500,42.5000,16.5625,36.1875,-2.6250,146.3750,0
1776974153.972,7.7883,2.4134,-0.3304,-0.7703,-0.1418,-0.6875,-62.7000,28.3500,17.5500,8.4108,6.4596,-1.8603,1.1551,0.4151,0.4525,-84.6000,30.7500,29.5500,-11.0200,-0.3400,-3.7700,1.3057,1.9733,-0.0764,10.2500,42.5000,16.5625,36.4375,-1.8125,145.7500,0
1776974153.977,7.7237,2.6791,-0.3807,-0.4362,0.0027,-0.3925,-62.7000,28.3500,17.5500,8.2887,6.0932,-1.7190,1.1477,0.4085,0.5089,-84.6000,30.7500,29.5500,-10.9700,-0.2000,-3.2900,1.1617,1.6821,-0.0949,10.2500,42.5000,16.5625,36.4375,-1.8125,145.7500,0
1776974153.982,7.7237,2.6791,-0.3807,-0.4362,0.0027,-0.3925,-62.7000,28.3500,17.5500,8.2887,6.0932,-1.7190,1.1477,0.4085,0.5089,-84.6000,30.7500,29.5500,-10.9700,-0.2000,-3.2900,0.9316,1.3035,-0.1265,10.2500,42.5000,16.5625,36.6250,-1.1875,145.2500,0
1776974153.988,7.5800,2.3942,-0.3807,-0.0829,0.1663,-0.0906,-64.0500,27.3000,17.7000,8.1882,5.5522,-1.3671,1.0485,0.4269,0.5404,-84.6000,30.7500,29.5500,-10.9400,-0.1600,-2.5300,0.9316,1.3035,-0.1265,10.2500,42.5000,16.5625,36.6875,-0.7500,144.8750,0
1776974153.998,7.4795,2.0231,-0.0431,0.2795,0.3837,0.2017,-62.5500,26.5500,18.0000,7.9152,4.8219,-1.1349,0.9702,0.4578,0.5793,-84.9000,32.5500,29.1000,-10.9800,-0.1200,-2.2100,0.6490,0.8858,-0.1516,10.2500,42.5000,16.5625,36.6875,-0.5000,144.6875,0
1776974154.008,7.4196,1.1061,0.6680,0.6963,0.5995,0.4820,-64.0500,28.0500,18.4500,7.9799,4.2545,-1.2905,0.9089,0.5319,0.6174,-84.7500,30.9000,28.6500,-11.1100,-0.1300,-2.1300,0.3752,0.4320,-0.1713,10.2500,42.5000,16.5625,36.6875,-0.5000,144.6875,0
1776974154.013,7.4196,1.1061,0.6680,0.6963,0.5995,0.4820,-64.0500,28.0500,18.4500,8.0230,3.8259,-1.6113,0.8751,0.6344,0.6267,-84.9000,30.7500,28.0500,-11.1100,-0.1300,-2.1300,0.3752,0.4320,-0.1713,10.2500,42.5000,16.5625,36.5625,-0.4375,144.6250,0
1776974154.018,7.5824,1.0606,2.0303,1.0150,0.9009,0.6771,-63.9000,28.6500,19.3500,8.0230,3.8259,-1.6113,0.8751,0.6344,0.6267,-84.9000,30.7500,28.0500,-11.7000,-0.4200,-2.5100,0.1069,-0.0142,-0.1789,12.5625,40.0625,13.3750,36.5625,-0.4375,144.6250,0
1776974154.022,7.5824,1.0606,2.0303,1.0150,0.9009,0.6771,-63.9000,28.6500,19.3500,8.8801,3.6512,-1.4940,0.8727,0.8569,0.7032,-85.0500,31.6500,29.2500,-11.7000,-0.4200,-2.5100,0.1069,-0.0142,-0.1789,12.5625,40.0625,13.3750,36.3125,-0.5000,144.8125,0
1776974154.028,9.2967,2.7246,1.8411,1.1711,1.2529,0.7994,-62.7000,27.4500,18.3000,8.8801,3.6512,-1.4940,0.8727,0.8569,0.7032,-85.0500,31.6500,29.2500,-4.0200,-13.0500,-7.0200,-0.3600,-0.4243,-0.3142,12.5625,40.0625,13.3750,36.3125,-0.5000,144.8125,0
1776974154.036,11.2264,3.9002,-1.5850,0.7378,1.0253,0.7080,-61.6500,26.4000,19.3500,9.1746,3.1101,-1.2785,0.8748,0.9193,0.8335,-85.0500,31.6500,29.2500,0.5600,-1.2700,-0.4000,-2.4620,-2.0344,-0.0676,12.5625,40.0625,13.3750,35.9375,-1.4375,146.1250,0
1776974154.040,11.2264,3.9002,-1.5850,0.7378,1.0253,0.7080,-61.6500,26.4000,19.3500,9.1746,3.1101,-1.2785,0.7176,1.0134,0.9851,-85.0500,31.6500,29.2500,0.5600,-1.2700,-0.4000,-2.4620,-2.0344,-0.0676,12.5625,40.0625,13.3750,35.7500,-2.8750,147.9375,0
1776974154.048,12.0333,5.6982,-0.9002,0.6046,0.8705,0.3144,-61.6500,26.4000,19.3500,10.0006,2.7605,-0.7422,0.7176,1.0134,0.9851,-84.7500,29.4000,27.6000,-1.5300,-8.6900,-11.0700,-3.2845,-2.6998,0.5520,12.5625,40.0625,13.3750,35.3750,-4.0625,149.5000,0
1776974154.058,13.8409,5.7820,-6.0837,0.1396,0.3136,-0.0802,-62.7000,25.2000,21.6000,10.5082,2.4445,-0.2969,0.3749,0.9046,1.0555,-84.9000,31.5000,27.7500,3.3600,-13.5500,-8.1400,-2.8209,-2.4991,0.1091,12.5625,40.0625,13.3750,35.3750,-4.0625,149.5000,0
1776974154.063,11.1282,3.0550,-3.7924,1.1804,0.0421,-0.0925,-62.7000,25.2000,21.6000,10.2017,2.6719,-0.8332,0.0581,0.6531,0.9910,-84.1500,30.7500,26.7000,3.3600,-13.5500,-8.1400,-2.8209,-2.4991,0.1091,12.5625,40.0625,13.3750,35.3750,-4.0625,149.5000,0
1776974154.068,11.1282,3.0550,-3.7924,1.1804,0.0421,-0.0925,-62.7000,25.2000,21.6000,10.2017,2.6719,-0.8332,0.0581,0.6531,0.9910,-84.1500,30.7500,26.7000,-1.2000,-4.5900,-7.9100,-2.4042,-2.3082,0.6469,14.0625,39.2500,14.1875,35.3125,-5.3750,150.7500,0
1776974154.073,9.2560,-0.0168,-5.3558,1.8708,0.0381,0.2553,-62.7000,25.2000,21.6000,10.5010,2.9904,-1.9968,0.0818,0.5923,0.9441,-83.7000,29.4000,27.1500,-1.2000,-4.5900,-7.9100,-2.4042,-2.3082,0.6469,14.0625,39.2500,14.1875,35.3125,-5.3750,150.7500,0
1776974154.078,9.2560,-0.0168,-5.3558,1.8708,0.0381,0.2553,-62.2500,26.1000,21.7500,10.5010,2.9904,-1.9968,0.0818,0.5923,0.9441,-83.7000,29.4000,27.1500,-4.7500,4.0100,-8.7200,-2.4260,-2.4326,1.1465,14.0625,39.2500,14.1875,35.5625,-6.8750,152.1250,0
1776974154.084,10.7260,-0.8164,-9.6822,1.2526,0.4391,0.5137,-62.2500,26.1000,21.7500,12.3589,3.4261,-3.1795,0.5193,0.6651,1.0653,-82.9500,30.1500,26.8500,-0.6300,3.8300,-10.4200,-2.0246,-2.3267,0.8018,14.0625,39.2500,14.1875,35.6250,-8.1875,153.1875,0
1776974154.089,10.7260,-0.8164,-9.6822,1.2526,0.4391,0.5137,-61.0500,24.6000,21.0000,12.3589,3.4261,-3.1795,0.5193,0.6651,1.0653,-82.9500,30.1500,26.8500,-0.6300,3.8300,-10.4200,-2.0246,-2.3267,0.8018,14.0625,39.2500,14.1875,35.4375,-9.5000,153.7500,0
1776974154.098,12.4929,-0.7518,-6.7493,0.6835,0.7442,0.5828,-62.2500,28.0500,21.0000,14.1042,3.4046,-4.5777,1.2257,0.6582,1.2209,-82.9500,30.1500,26.8500,-0.8900,0.7400,-11.0500,-1.1476,-2.4642,0.3382,14.0625,39.2500,14.1875,35.2500,-11.0625,154.0000,0
1776974154.108,13.3381,-1.0008,-5.3678,0.5383,0.7131,0.6134,-62.5500,27.0000,20.7000,15.1744,2.7126,-5.9185,2.1903,0.5076,1.1871,-83.8500,28.5000,26.7000,-3.6400,3.0300,-12.6500,-0.5836,-2.8645,0.4232,14.0625,39.2500,14.1875,35.2500,-11.0625,154.0000,0
1776974154.113,13.0532,-1.3815,-3.7302,0.2158,0.7789,0.6712,-62.5500,27.0000,20.7000,16.0771,1.6927,-5.8754,2.8639,0.5905,1.0640,-82.5000,28.2000,26.1000,-3.6400,3.0300,-12.6500,-0.5836,-2.8645,0.4232,14.0625,39.2500,14.1875,35.3750,-12.8125,154.1250,0
1776974154.118,13.0532,-1.3815,-3.7302,0.2158,0.7789,0.6712,-62.5500,27.0000,20.7000,16.0771,1.6927,-5.8754,3.1251,0.6816,0.9062,-82.5000,28.2000,26.1000,-6.8800,3.5900,-14.1500,-0.3523,-3.0587,0.9381,21.0625,34.8750,15.2500,35.3750,-12.8125,154.1250,0
1776974154.123,11.8824,-0.6345,-1.0965,-0.1487,0.9774,0.7445,-62.5500,27.0000,20.7000,15.8424,1.0702,-4.7812,3.1251,0.6816,0.9062,-81.4500,29.4000,24.0000,-6.8800,3.5900,-14.1500,-0.3523,-3.0587,0.9381,21.0625,34.8750,15.2500,35.6875,-14.6250,154.1875,0
1776974154.128,11.8824,-0.6345,-1.0965,-0.1487,0.9774,0.7445,-63.1500,24.7500,20.1000,14.8369,0.7254,-3.4548,2.8426,0.7501,0.7309,-81.4500,29.4000,24.0000,-8.4800,-2.3400,-12.8700,-0.0545,-3.0161,1.3068,21.0625,34.8750,15.2500,35.6875,-14.6250,154.1875,0
1776974154.136,11.4634,2.6743,3.1915,-0.2715,1.4149,0.7933,-63.1500,24.7500,20.1000,14.8369,0.7254,-3.4548,2.8426,0.7501,0.7309,-81.4500,30.1500,22.9500,-10.2000,-9.0300,-12.0100,0.0622,-2.7860,1.4301,21.0625,34.8750,15.2500,36.1875,-16.3750,154.1250,0
1776974154.140,11.9016,6.1794,4.4867,0.1697,1.5404,0.8652,-63.1500,24.7500,20.1000,12.4259,0.5124,-2.1596,2.0800,0.8295,0.5420,-81.4500,30.1500,22.9500,-10.2000,-9.0300,-12.0100,0.0622,-2.7860,1.4301,21.0625,34.8750,15.2500,36.6250,-17.8750,154.2500,0
1776974154.148,12.1769,7.9918,2.6767,0.1697,1.5404,0.8652,-62.5500,24.1500,20.2500,9.2823,0.0766,-1.2594,0.8199,1.7259,0.3568,-81.4500,30.1500,22.9500,-10.8800,-12.1100,-8.9400,-0.1538,-2.4151,1.3854,21.0625,34.8750,15.2500,37.0625,-19.0625,154.6875,0
1776974154.158,11.2911,6.3590,1.0558,1.0459,1.1215,0.8982,-62.4000,24.4500,21.1500,7.5465,0.0359,-0.3807,-0.3059,1.4354,0.1100,-80.4000,27.9000,23.5500,-5.4500,-2.7500,-8.8300,-0.5683,-1.6886,1.2937,21.0625,34.8750,15.2500,37.0625,-19.0625,154.6875,0
1776974154.163,11.2911,6.3590,1.0558,1.8391,0.3309,0.8551,-62.4000,24.4500,21.1500,7.5465,0.0359,-0.3807,-0.3059,1.4354,0.1100,-79.8000,29.5500,23.8500,-5.4500,-2.7500,-8.8300,-0.5683,-1.6886,1.2937,21.0625,34.8750,15.2500,37.4375,-19.9375,155.1875,0
1776974154.168,8.7149,3.5386,2.6240,1.8391,0.3309,0.8551,-63.0000,24.1500,19.5000,7.6806,-1.8818,0.2897,-1.7483,1.1095,-0.1335,-79.8000,29.5500,23.8500,-5.4900,0.4600,-11.0200,-0.7549,-1.2719,1.0472,29.6875,32.3750,12.0625,37.4375,-19.9375,155.1875,0
1776974154.173,8.7149,3.5386,2.6240,1.9950,0.0192,0.6907,-63.0000,24.1500,19.5000,7.6806,-1.8818,0.2897,-1.7483,1.1095,-0.1335,-80.5500,29.5500,24.4500,-5.4900,0.4600,-11.0200,-0.7549,-1.2719,1.0472,29.6875,32.3750,12.0625,37.4375,-19.9375,155.1875,0
1776974154.178,7.1036,0.2346,1.2498,1.7131,0.1628,0.6382,-61.8000,23.4000,20.7000,6.7708,-2.8970,4.9752,-2.3054,0.8335,-0.3331,-79.8000,29.5500,24.4500,-5.3900,-2.5600,-9.6800,-0.6469,-1.0527,0.9643,29.6875,32.3750,12.0625,37.7500,-20.6875,155.6250,0
1776974154.183,7.1036,0.2346,1.2498,1.7131,0.1628,0.6382,-61.8000,23.4000,20.7000,6.7708,-2.8970,4.9752,-2.3054,0.8335,-0.3331,-79.8000,28.5000,26.2500,-5.3900,-2.5600,-9.6800,-0.6338,-0.9261,0.8301,29.6875,32.3750,12.0625,38.0625,-21.3125,156.0625,0
1776974154.189,7.2161,-2.8898,1.1181,1.1620,0.6011,0.7067,-63.0000,22.9500,20.7000,6.6343,-3.6272,4.2066,-3.5125,0.8484,-0.1985,-78.6000,26.4000,26.1000,-4.7700,-4.2600,-8.7300,-0.6338,-0.9261,0.8301,29.6875,32.3750,12.0625,38.3125,-21.9375,156.5000,0
1776974154.198,8.4467,-4.9057,0.6823,0.4104,0.9294,0.7120,-62.7000,23.2500,21.6000,7.0006,-3.1939,3.5003,-3.6886,0.6755,0.0386,-78.6000,26.4000,26.1000,-4.6200,-2.3900,-9.0300,-0.6916,-0.8410,0.7123,29.6875,32.3750,12.0625,38.5000,-22.4375,156.9375,0
1776974154.208,10.0078,-5.0613,0.0120,-0.4386,1.0664,0.5812,-62.7000,23.2500,21.6000,7.1251,-2.2122,3.5913,-3.0465,0.4098,0.3120,-79.6500,22.9500,27.1500,-4.4800,-2.5000,-9.1000,-0.7047,-0.7505,0.6392,29.6875,32.3750,12.0625,38.5000,-22.4375,156.9375,0
1776974154.213,10.0078,-5.0613,0.0120,-0.4386,1.0664,0.5812,-62.7000,23.2500,21.6000,7.1251,-2.2122,3.5913,-3.0465,0.4098,0.3120,-79.6500,22.9500,27.1500,-4.4800,-2.5000,-9.1000,-0.7047,-0.7505,0.6392,29.6875,32.3750,12.0625,38.5000,-22.4375,156.9375,0
1776974154.218,10.9487,-3.3184,-0.0479,-1.0576,1.1213,0.4253,-63.0000,20.2500,22.5000,8.2337,-0.6680,3.0406,-2.2735,0.2563,0.6275,-78.1500,21.4500,28.6500,-4.3900,-3.0900,-8.8300,-0.6349,-0.6927,0.5760,33.5625,29.7500,7.8750,38.6250,-22.9375,157.3750,0
1776974154.223,10.9487,-3.3184,-0.0479,-1.0576,1.1213,0.4253,-63.0000,20.2500,22.5000,8.2337,-0.6680,3.0406,-2.2735,0.2563,0.6275,-78.1500,21.4500,28.6500,-4.3900,-3.0900,-8.8300,-0.6349,-0.6927,0.5760,33.5625,29.7500,7.8750,38.6250,-22.9375,157.3750,0
1776974154.228,10.9176,-0.4812,0.3065,-1.3187,1.1527,0.3637,-63.4500,20.8500,22.3500,9.2416,0.2921,1.5874,-1.5964,-0.0282,0.8849,-79.3500,19.6500,29.7000,-4.4100,-2.8500,-8.8200,-0.5138,-0.6338,0.5007,33.5625,29.7500,7.8750,38.8125,-23.3750,157.6875,0
1776974154.236,10.7332,1.8747,0.6273,-1.2556,1.0762,0.3965,-64.0500,20.8500,22.3500,10.1538,0.8452,0.2993,-0.9377,0.1964,1.0222,-79.3500,19.6500,29.7000,-4.5600,-2.5600,-9.1300,-0.4734,-0.6054,0.4429,33.5625,29.7500,7.8750,38.9375,-23.7500,158.0000,0
1776974154.241,10.7332,1.8747,0.6273,-1.2556,1.0762,0.3965,-64.0500,21.0000,23.7000,10.1538,0.8452,0.2993,-0.9377,0.1964,1.0222,-78.9000,18.1500,30.0000,-4.5600,-2.5600,-9.1300,-0.4734,-0.6054,0.4429,33.5625,29.7500,7.8750,39.0625,-24.1250,158.2500,0
1776974154.248,10.1801,3.6440,1.2785,-0.9982,0.8879,0.4565,-62.7000,19.3500,23.8500,11.1474,2.1261,-0.2131,-0.1740,0.6651,1.0040,-78.9000,18.1500,30.0000,-5.0600,-2.9400,-8.9400,-0.4211,-0.5781,0.3894,33.5625,29.7500,7.8750,39.1250,-24.4375,158.5000,0
1776974154.258,9.6367,4.6567,1.0630,-0.6448,0.7477,0.5089,-61.6500,19.3500,23.8500,11.0014,2.7725,-0.0215,0.5550,0.6763,0.8098,-79.3500,16.9500,29.2500,-4.8300,-2.9300,-8.8100,-0.3676,-0.4931,0.3207,33.5625,29.7500,7.8750,39.1250,-24.4375,158.5000,0
1776974154.263,9.6367,4.6567,1.0630,-0.6448,0.7477,0.5089,-61.6500,19.3500,23.8500,11.0014,2.7725,-0.0215,0.9585,0.6915,0.6158,-79.3500,16.9500,29.2500,-4.8300,-2.9300,-8.8100,-0.3676,-0.4931,0.3207,33.5625,29.7500,7.8750,39.1875,-24.6875,158.7500,0
1776974154.268,8.9950,5.0685,1.1947,-0.2028,0.6763,0.5694,-62.7000,20.1000,23.4000,10.1897,3.6176,0.9409,0.9585,0.6915,0.6158,-77.1000,17.4000,28.2000,-4.9000,-2.9300,-8.7400,-0.3480,-0.3840,0.2563,36.1875,27.1875,8.2500,39.1875,-24.6875,158.7500,0
1776974154.273,8.9950,5.0685,1.1947,-0.2028,0.6763,0.5694,-62.7000,20.1000,23.4000,9.1243,4.2114,1.9968,0.9942,0.6368,0.4711,-77.1000,17.4000,28.2000,-4.9000,-2.9300,-8.7400,-0.3480,-0.3840,0.2563,36.1875,27.1875,8.2500,39.2500,-24.8750,158.9375,0
1776974154.278,9.2847,4.3191,0.8619,0.3035,0.5923,0.6102,-62.7000,20.1000,23.4000,9.1243,4.2114,1.9968,0.9942,0.6368,0.4711,-78.0000,16.5000,28.8000,-4.7600,-3.0300,-8.6100,-0.3371,-0.2858,0.2062,36.1875,27.1875,8.2500,39.2500,-24.8750,158.9375,0
1776974154.283,9.2847,4.3191,0.8619,0.3035,0.5923,0.6102,-62.7000,20.1000,23.4000,9.1243,4.2114,1.9968,0.6651,0.5316,0.4277,-78.0000,16.5000,28.8000,-4.7600,-3.0300,-8.6100,-0.3272,-0.2236,0.1680,36.1875,27.1875,8.2500,39.2500,-25.0625,159.1250,0
1776974154.289,9.3398,3.1963,0.7757,0.7978,0.5033,0.6057,-63.4500,18.9000,24.1500,9.3781,3.7469,3.2633,0.6651,0.5316,0.4277,-77.7000,16.5000,29.1000,-4.7100,-3.0500,-8.4600,-0.3272,-0.2236,0.1680,36.1875,27.1875,8.2500,39.2500,-25.1875,159.3125,0
1776974154.298,9.4619,1.5993,0.8188,1.0571,0.5185,0.5574,-63.4500,18.9000,24.1500,8.7747,3.2178,4.4293,0.5958,0.7418,0.4447,-77.7000,16.5000,28.0500,-4.4500,-2.9500,-8.4700,-0.3120,-0.1702,0.1374,36.1875,27.1875,8.2500,39.2500,-25.1875,159.3125,0
1776974154.308,9.5648,0.6201,1.0534,1.1333,0.5462,0.5193,-63.3000,21.0000,24.3000,8.4324,2.4086,4.2545,0.3952,0.8937,0.5031,-77.7000,16.5000,28.0500,-4.6300,-2.8600,-8.5100,-0.3022,-0.1429,0.1134,36.1875,27.1875,8.2500,39.3125,-25.2500,159.5000,0
1776974154.313,9.6151,0.3496,1.0774,0.9561,0.6153,0.4972,-63.3000,21.0000,24.3000,8.6167,2.0925,3.4644,0.3693,0.9798,0.5364,-77.7000,16.5000,28.0500,-4.6300,-2.8600,-8.5100,-0.3022,-0.1429,0.1134,36.1875,27.1875,8.2500,39.3125,-25.2500,159.5000,0
1776974154.318,9.6151,0.3496,1.0774,0.9561,0.6153,0.4972,-63.1500,19.3500,24.6000,8.6167,2.0925,3.4644,0.3693,0.9798,0.5364,-76.9500,18.0000,28.5000,-4.5900,-2.7900,-8.5400,-0.2749,-0.1134,0.0949,36.8750,25.7500,7.1875,39.3125,-25.3125,159.6875,0
1776974154.323,9.6534,-0.1077,0.9194,0.5188,0.6784,0.4644,-63.1500,19.3500,24.6000,8.9208,2.1476,2.7940,0.3499,1.0206,0.5558,-76.9500,18.0000,28.5000,-4.5900,-2.7900,-8.5400,-0.2749,-0.1134,0.0949,36.8750,25.7500,7.1875,39.3125,-25.3125,159.6875,0
1776974154.328,9.6534,-0.1077,0.9194,0.5188,0.6784,0.4644,-64.3500,20.4000,23.8500,8.9208,2.1476,2.7940,0.3499,1.0206,0.5558,-77.1000,18.4500,29.2500,-4.5700,-2.9500,-8.3800,-0.2454,-0.0982,0.0731,36.8750,25.7500,7.1875,39.3125,-25.3750,159.8125,0
1776974154.333,9.7276,0.5195,1.1899,0.1207,0.6915,0.4498,-64.3500,20.4000,23.8500,9.2392,1.8747,2.1811,0.3978,1.0360,0.5500,-77.1000,18.4500,29.2500,-4.5700,-2.9500,-8.3800,-0.2193,-0.0807,0.0600,36.8750,25.7500,7.1875,39.3125,-25.4375,159.9375,0
1776974154.339,9.7276,0.5195,1.1899,0.1207,0.6915,0.4498,-63.7500,19.0500,24.7500,9.2392,1.8747,2.1811,0.3978,1.0360,0.5500,-77.8500,17.7000,29.7000,-4.2400,-2.9800,-8.2900,-0.2193,-0.0807,0.0600,36.8750,25.7500,7.1875,39.3125,-25.4375,159.9375,0
1776974154.348,9.6462,1.6137,0.8212,-0.3389,0.6691,0.4823,-63.7500,19.0500,24.7500,9.4451,1.5371,1.3384,0.3816,1.0784,0.5313,-77.1000,19.9500,30.0000,-4.4500,-2.9400,-8.2900,-0.2040,-0.0960,0.0600,36.8750,25.7500,7.1875,39.3125,-25.5625,160.0625,0
1776974154.357,9.5074,2.1524,0.6943,-0.6912,0.5622,0.5071,-63.7500,19.0500,24.7500,9.2751,1.2522,0.4525,0.4676,0.9038,0.5017,-77.1000,19.9500,30.0000,-4.3200,-3.0900,-8.1600,-0.1931,-0.1156,0.0709,36.8750,25.7500,7.1875,39.3125,-25.6250,160.1875,0
1776974154.362,9.2847,2.5833,1.0032,-1.0030,0.5918,0.5009,-63.4500,18.1500,24.6000,9.4188,1.1133,0.1460,0.5556,0.8415,0.4405,-77.1000,19.9500,30.0000,-4.3200,-3.0900,-8.1600,-0.1931,-0.1156,0.0709,36.8750,25.7500,7.1875,39.3125,-25.6250,160.1875,0
1776974154.367,9.2847,2.5833,1.0032,-1.0030,0.5918,0.5009,-63.4500,18.1500,24.6000,9.4188,1.1133,0.1460,0.5556,0.8415,0.4405,-76.8000,21.9000,30.7500,-4.0400,-3.1200,-8.0600,-0.1909,-0.1004,0.0785,37.2500,26.1875,6.8750,39.3125,-25.6875,160.3125,0
1776974154.372,9.3446,2.6911,0.1365,-1.1676,0.5878,0.4988,-63.4500,18.1500,24.6000,9.5074,1.0870,0.2346,0.4461,0.9507,0.3541,-76.8000,21.9000,30.7500,-4.0400,-3.1200,-8.0600,-0.1909,-0.1004,0.0785,37.2500,26.1875,6.8750,39.3125,-25.6875,160.3125,0
1776974154.377,9.3446,2.6911,0.1365,-1.1676,0.5878,0.4988,-63.4500,18.1500,24.6000,9.5074,1.0870,0.2346,0.4461,0.9507,0.3541,-79.5000,23.2500,30.9000,-3.7400,-3.1900,-8.0500,-0.2127,-0.0916,0.0960,37.2500,26.1875,6.8750,39.3125,-25.7500,160.4375,0
1776974154.381,9.3063,2.7964,-0.1413,-1.1151,0.5534,0.5492,-63.0000,18.0000,25.5000,9.8904,1.2067,-0.1245,0.0562,1.1170,0.2622,-79.5000,23.2500,30.9000,-3.7400,-3.1900,-8.0500,-0.2127,-0.0916,0.0960,37.2500,26.1875,6.8750,39.3750,-25.8125,160.6250,0
1776974154.389,8.9854,3.1580,-0.3184,-1.1151,0.5534,0.5492,-62.7000,15.7500,26.1000,9.8904,1.2067,-0.1245,-0.3016,1.2697,0.1588,-78.9000,22.2000,31.0500,-4.3900,-2.7400,-8.2900,-0.2553,-0.1385,0.1374,37.2500,26.1875,6.8750,39.3750,-25.9375,160.8125,0
1776974154.398,9.0764,2.8443,-0.2921,-0.8660,0.4959,0.6925,-64.3500,16.2000,26.1000,9.5600,0.4908,-0.2682,0.0898,0.9750,0.1071,-80.4000,23.7000,34.3500,-4.5900,-2.6200,-8.4000,-0.2771,-0.1407,0.1604,37.2500,26.1875,6.8750,39.3750,-25.9375,160.8125,0
1776974154.408,9.0668,2.8730,0.2849,-0.6145,0.5167,0.7242,-64.3500,16.2000,26.1000,9.2991,0.6800,1.3671,-0.2761,0.7845,0.1828,-80.7000,25.9500,33.9000,-4.5500,-2.5500,-8.3900,-0.2716,-0.1091,0.1560,37.2500,26.1875,6.8750,39.4375,-26.0000,161.0000,0
1776974154.413,9.0668,2.8730,0.2849,-0.3501,0.5641,0.7269,-63.0000,15.1500,26.5500,9.2991,0.6800,1.3671,-0.2761,0.7845,0.1828,-80.7000,25.9500,33.9000,-4.5500,-2.5500,-8.3900,-0.2716,-0.1091,0.1560,37.2500,26.1875,6.8750,39.4375,-26.0000,161.0000,0
1776974154.418,9.1650,2.6959,0.2514,-0.0512,0.5729,0.7194,-63.1500,15.7500,25.3500,9.2727,0.2849,0.5459,-0.7069,0.7703,0.2105,-80.7000,25.9500,33.9000,-4.4700,-2.4100,-8.4400,-0.2596,-0.0764,0.1396,38.3750,25.3750,6.1875,39.4375,-26.1250,161.1250,0
1776974154.423,9.1650,2.6959,0.2514,-0.0512,0.5729,0.7194,-63.1500,15.7500,25.3500,9.2727,0.2849,0.5459,-0.7069,0.7703,0.2105,-80.7000,25.9500,33.9000,-4.4700,-2.4100,-8.4400,-0.2596,-0.0764,0.1396,38.3750,25.3750,6.1875,39.4375,-26.1250,161.1250,0
1776974154.428,9.3278,2.2266,0.2274,0.0997,0.6142,0.7277,-63.1500,15.7500,25.3500,9.3470,0.9098,-0.0670,-0.9697,0.7623,0.2025,-85.0500,26.4000,38.2500,-4.2800,-2.5700,-8.3600,-0.2454,-0.0742,0.1287,38.3750,25.3750,6.1875,39.5000,-26.1875,161.3125,0
1776974154.436,9.3278,2.2266,0.2274,0.0997,0.6142,0.7277,-61.9500,15.7500,25.3500,9.3470,0.9098,-0.0670,-0.9697,0.7623,0.2025,-88.0500,25.6500,39.0000,-4.4100,-2.5600,-8.3400,-0.2258,-0.0840,0.1178,38.3750,25.3750,6.1875,39.5000,-26.2500,161.4375,0
1776974154.441,9.4739,1.6376,0.9218,0.1500,0.6259,0.7272,-61.9500,15.7500,25.3500,9.2799,-0.3591,-0.5962,-0.9862,0.4487,0.2574,-88.0500,25.6500,39.0000,-4.4100,-2.5600,-8.3400,-0.2258,-0.0840,0.1178,38.3750,25.3750,6.1875,39.5625,-26.3125,161.6250,0
1776974154.449,9.3757,1.1899,1.3838,0.1919,0.5748,0.7216,-62.7000,15.4500,28.2000,9.5074,0.2658,2.3631,-0.1879,0.4085,0.3147,-86.7000,23.2500,36.3000,-4.2300,-2.7400,-8.2700,-0.2193,-0.1058,0.1189,38.3750,25.3750,6.1875,39.5625,-26.3125,161.6250,0
1776974154.455,9.3757,1.1899,1.3838,0.1919,0.5748,0.7216,-62.7000,15.4500,28.2000,9.5074,0.2658,2.3631,-0.1879,0.4085,0.3147,-86.7000,22.8000,35.8500,-4.3600,-2.7000,-8.3100,-0.2149,-0.1342,0.1233,38.3750,25.3750,6.1875,39.5625,-26.3750,161.7500,0
1776974154.460,9.2225,0.4788,1.5036,0.0045,0.5726,0.7293,-63.3000,14.4000,27.0000,8.8466,1.5251,1.6137,-0.4333,0.4887,0.2020,-86.7000,22.8000,35.8500,-4.3600,-2.7000,-8.3100,-0.2149,-0.1342,0.1233,38.3750,25.3750,6.1875,39.5625,-26.3750,161.7500,0
1776974154.465,9.2225,0.4788,1.5036,0.0045,0.5726,0.7293,-63.3000,14.4000,27.0000,8.8466,1.5251,1.6137,-0.4333,0.4887,0.2020,-86.7000,22.8000,35.8500,-4.9300,-2.6300,-8.3600,-0.2127,-0.1636,0.1342,37.6875,25.7500,7.5000,39.6250,-26.5000,161.8750,0
1776974154.470,9.2033,-0.0407,1.3743,-0.1615,0.6147,0.7304,-62.5500,13.6500,25.8000,8.7795,2.0973,0.7135,-1.1034,0.5257,0.1292,-86.7000,22.8000,35.8500,-4.9300,-2.6300,-8.3600,-0.2127,-0.1636,0.1342,37.6875,25.7500,7.5000,39.6250,-26.5000,161.8750,0
1776974154.475,9.2033,-0.0407,1.3743,-0.1615,0.6147,0.7304,-62.5500,13.6500,25.8000,8.7795,2.0973,0.7135,-1.1034,0.5257,0.1292,-82.2000,19.2000,36.4500,-4.9300,-2.6300,-8.3600,-0.2302,-0.1374,0.1265,37.6875,25.7500,7.5000,39.6250,-26.6250,162.0625,0
1776974154.479,9.7564,-0.1077,1.1732,-0.3344,0.5676,0.7360,-62.7000,14.2500,27.4500,9.0525,1.7142,1.2402,-1.4509,0.6416,0.1346,-82.2000,19.2000,36.4500,-4.7100,-2.5100,-8.3000,-0.2302,-0.1374,0.1265,37.6875,25.7500,7.5000,39.6250,-26.6250,162.0625,0
1776974154.484,9.7564,-0.1077,1.1732,-0.3344,0.5676,0.7360,-62.7000,14.2500,27.4500,9.0525,1.7142,1.2402,-1.4509,0.6416,0.1346,-82.8000,18.3000,35.5500,-4.7100,-2.5100,-8.3000,-0.2291,-0.0774,0.1102,37.6875,25.7500,7.5000,39.6875,-26.6875,162.1875,0
1776974154.489,9.7851,0.2729,0.9744,-0.5052,0.5196,0.7485,-63.1500,14.2500,27.1500,9.3470,1.1779,2.1261,-1.3456,0.5425,0.1772,-82.8000,18.3000,35.5500,-4.6700,-2.3600,-8.5000,-0.2291,-0.0774,0.1102,37.6875,25.7500,7.5000,39.6875,-26.7500,162.3125,0
1776974154.499,9.3422,0.7302,1.0774,-0.6472,0.5516,0.7570,-63.1500,14.2500,27.1500,8.9591,1.2019,3.2370,-1.0842,0.5612,0.2233,-81.0000,16.5000,35.8500,-4.6900,-2.4700,-8.3900,-0.1724,-0.0873,0.0916,37.6875,25.7500,7.5000,39.6875,-26.7500,162.3125,0
1776974154.509,9.5074,1.4030,0.7111,-0.5998,0.5465,0.7666,-64.0500,12.0000,28.5000,8.9807,1.7597,3.4548,-1.0190,0.8266,0.2300,-81.1500,13.9500,36.1500,-4.4800,-2.3700,-8.4900,-0.1625,-0.0687,0.0818,37.6875,25.7500,7.5000,39.6875,-26.7500,162.4375,0
1776974154.513,9.3302,1.8124,0.8428,-0.5998,0.5465,0.7666,-64.0500,12.0000,28.5000,8.9807,1.7597,3.4548,-1.0190,0.8266,0.2300,-80.2500,14.2500,36.6000,-4.4800,-2.3700,-8.4900,-0.1625,-0.0687,0.0818,37.6875,25.7500,7.5000,39.6875,-26.7500,162.4375,0
1776974154.518,9.3302,1.8124,0.8428,-0.5167,0.5359,0.7658,-64.0500,12.0000,28.5000,9.0094,1.9632,2.9928,-0.8247,0.7029,0.2254,-80.2500,14.2500,36.6000,-4.3800,-2.4900,-8.4200,-0.1505,-0.0927,0.0742,37.6875,24.6875,6.6875,39.7500,-26.8125,162.5000,0
1776974154.523,9.2105,1.6305,1.0965,-0.5167,0.5359,0.7658,-63.1500,11.8500,28.9500,9.0094,1.9632,2.9928,-0.8247,0.7029,0.2254,-80.2500,14.2500,36.6000,-4.3800,-2.4900,-8.4200,-0.1505,-0.0927,0.0742,37.6875,24.6875,6.6875,39.7500,-26.8125,162.5000,0
1776974154.528,9.2105,1.6305,1.0965,-0.4149,0.5708,0.7730,-63.1500,11.8500,28.9500,9.0716,2.0949,2.3966,-0.7141,0.5868,0.2441,-80.2500,14.2500,36.6000,-4.5600,-2.4700,-8.3700,-0.1538,-0.0698,0.0622,37.6875,24.6875,6.6875,39.7500,-26.8750,162.6250,0
1776974154.533,9.1937,1.3216,1.4317,-0.4149,0.5708,0.7730,-63.1500,11.8500,28.9500,9.0716,2.0949,2.3966,-0.7141,0.5868,0.2441,-78.0000,12.7500,36.3000,-4.5600,-2.4700,-8.3700,-0.1429,-0.0829,0.0665,37.6875,24.6875,6.6875,39.7500,-26.9375,162.6875,0
1776974154.539,9.1937,1.3216,1.4317,-0.3331,0.6472,0.7749,-63.1500,11.8500,28.9500,8.8729,2.2841,2.1428,-0.5433,0.5084,0.2579,-78.0000,12.7500,36.3000,-4.4900,-2.4300,-8.4200,-0.1429,-0.0829,0.0665,37.6875,24.6875,6.6875,39.7500,-26.9375,162.6875,0
1776974154.548,9.1794,1.0870,1.6975,-0.2627,0.7109,0.7799,-63.4500,11.1000,28.2000,9.1435,2.2338,1.8220,-0.3885,0.2947,0.2529,-79.5000,12.0000,37.3500,-4.5200,-2.5700,-8.3700,-0.1320,-0.0840,0.0644,37.6875,24.6875,6.6875,39.7500,-27.0000,162.8125,0
1776974154.553,8.3869,0.8045,1.7358,-0.2430,0.8876,0.8127,-63.4500,10.6500,28.9500,9.1435,2.2338,1.8220,-0.1636,-0.4884,0.2710,-78.9000,12.1500,35.7000,-4.5200,-2.5700,-8.3700,-0.1254,-0.1014,0.0687,37.6875,24.6875,6.6875,39.7500,-27.0625,162.8750,0
1776974154.560,8.3869,0.8045,1.7358,-0.2430,0.8876,0.8127,-62.7000,9.9000,30.4500,10.6063,1.9393,1.1181,-0.1636,-0.4884,0.2710,-78.9000,12.1500,35.7000,-4.5700,-2.5900,-8.3000,-0.1254,-0.1014,0.0687,37.6875,24.6875,6.6875,39.7500,-27.0625,162.8750,0
1776974154.565,9.6845,-0.5411,1.8004,-0.3262,1.0371,0.8055,-62.7000,9.9000,30.4500,6.3638,1.4365,3.0478,-0.3254,0.3797,0.2864,-79.8000,12.3000,36.6000,-4.5700,-2.5900,-8.3000,-0.1298,-0.0916,0.0753,39.0625,24.6875,8.2500,39.8125,-27.1250,162.9375,0
1776974154.570,9.6845,-0.5411,1.8004,-0.3262,1.0371,0.8055,-62.7000,9.9000,30.4500,6.3638,1.4365,3.0478,-0.3254,0.3797,0.2864,-79.8000,12.3000,36.6000,-4.4100,-2.6200,-8.2700,-0.1298,-0.0916,0.0753,39.0625,24.6875,8.2500,39.8125,-27.1250,162.9375,0
1776974154.574,10.6231,-0.7135,1.6089,-0.3413,0.6973,0.7485,-62.4000,11.4000,29.7000,9.7659,0.6273,2.1045,-0.3645,0.8961,0.3019,-79.8000,12.3000,36.6000,-4.4100,-2.6200,-8.2700,-0.1418,-0.0949,0.0764,39.0625,24.6875,8.2500,39.8125,-27.1875,163.0625,0
1776974154.580,10.6231,-0.7135,1.6089,-0.3413,0.6973,0.7485,-62.4000,11.4000,29.7000,9.7659,0.6273,2.1045,-0.3645,0.8961,0.3019,-79.8000,12.3000,36.6000,-4.5000,-2.4700,-8.4200,-0.1418,-0.0949,0.0764,39.0625,24.6875,8.2500,39.8125,-27.1875,163.0625,0
1776974154.584,9.6247,-0.5243,1.4964,-0.3629,0.6358,0.7528,-62.4000,11.4000,29.7000,9.0956,0.0168,2.2122,-0.3970,0.3528,0.3400,-78.1500,11.4000,37.2000,-4.5000,-2.4700,-8.4200,-0.1320,-0.1014,0.0851,39.0625,24.6875,8.2500,39.8125,-27.2500,163.1250,0
1776974154.590,9.6247,-0.5243,1.4964,-0.3629,0.6358,0.7528,-62.4000,11.4000,29.7000,9.0956,0.0168,2.2122,-0.3970,0.3528,0.3400,-78.1500,11.4000,37.2000,-4.6500,-2.2700,-8.4700,-0.1320,-0.1014,0.0851,39.0625,24.6875,8.2500,39.8125,-27.2500,163.1250,0
1776974154.598,8.8921,-0.0192,1.5826,-0.3752,0.6622,0.7919,-62.4000,9.9000,29.7000,9.4715,-0.1173,1.9680,-0.4399,0.5569,0.3400,-79.0500,10.5000,39.1500,-4.7200,-2.1800,-8.4900,-0.1145,-0.0982,0.0840,39.0625,24.6875,8.2500,39.8750,-27.3125,163.2500,0
1776974154.608,8.6167,0.3448,1.1349,-0.4189,0.7837,0.8005,-62.4000,9.9000,29.7000,9.2177,-0.0599,1.5467,-0.4367,0.2944,0.3395,-77.5500,11.7000,37.5000,-4.8200,-2.1900,-8.4500,-0.0960,-0.0938,0.0687,39.0625,24.6875,8.2500,39.8750,-27.3750,163.3125,0
1776974154.613,9.6726,0.2370,1.8004,-0.4652,0.7650,0.7863,-62.2500,8.1000,28.5000,9.0644,0.4597,1.2641,-0.5753,0.9467,0.3107,-76.3500,11.4000,37.5000,-4.8200,-2.1900,-8.4500,-0.0960,-0.0938,0.0687,39.0625,24.6875,8.2500,39.8750,-27.3750,163.3125,0
1776974154.618,9.6726,0.2370,1.8004,-0.4652,0.7650,0.7863,-62.2500,8.1000,28.5000,9.0644,0.4597,1.2641,-0.5753,0.9467,0.3107,-76.3500,11.4000,37.5000,-4.5700,-2.3700,-8.3300,-0.0862,-0.0938,0.0578,39.5000,24.6875,6.3750,39.8750,-27.4375,163.3750,0
1776974154.623,9.8234,0.6680,1.3336,-0.5105,0.7115,0.7847,-63.1500,8.4000,30.1500,9.9862,0.8452,0.6632,-0.6315,0.6462,0.2790,-76.3500,11.4000,37.5000,-4.5700,-2.3700,-8.3300,-0.0862,-0.0938,0.0578,39.5000,24.6875,6.3750,39.8750,-27.4375,163.3750,0
1776974154.628,9.8234,0.6680,1.3336,-0.5105,0.7115,0.7847,-63.1500,8.4000,30.1500,9.9862,0.8452,0.6632,-0.6315,0.6462,0.2790,-76.3500,11.4000,37.5000,-4.5900,-2.4000,-8.4100,-0.0785,-0.0894,0.0513,39.5000,24.6875,6.3750,39.8750,-27.5000,163.3750,0
1776974154.633,9.4403,0.7183,1.8172,-0.4924,0.7693,0.8143,-61.2000,8.4000,30.4500,9.4930,1.2881,0.6512,-0.5764,0.4479,0.2502,-76.3500,11.4000,37.5000,-4.5900,-2.4000,-8.4100,-0.0785,-0.0894,0.0513,39.5000,24.6875,6.3750,39.9375,-27.5625,163.4375,0
1776974154.639,9.5672,0.6584,1.7693,-0.4722,0.7504,0.8569,-61.2000,8.4000,30.4500,9.4930,1.2881,0.6512,-0.5764,0.4479,0.2502,-76.3500,11.4000,37.5000,-4.5600,-2.3200,-8.4400,-0.0840,-0.0654,0.0458,39.5000,24.6875,6.3750,39.9375,-27.5625,163.4375,0
1776974154.646,9.5672,0.6584,1.7693,-0.4722,0.7504,0.8569,-61.8000,6.1500,31.0500,8.9759,1.3838,1.2186,-0.7059,0.4727,0.2406,-75.6000,9.4500,37.2000,-4.4900,-2.4500,-8.4200,-0.0774,-0.0578,0.0436,39.5000,24.6875,6.3750,39.9375,-27.5625,163.5000,0
1776974154.651,9.6319,0.6345,1.7190,-0.4447,0.7245,0.8823,-62.7000,5.5500,32.4000,9.3182,1.7142,1.4988,-0.7962,0.3672,0.2337,-77.1000,8.7000,39.6000,-4.4900,-2.4500,-8.4200,-0.0774,-0.0578,0.0436,39.5000,24.6875,6.3750,39.9375,-27.6250,163.5625,0
1776974154.659,8.7340,0.8284,1.8028,-0.3584,0.8628,0.9361,-62.7000,5.5500,32.4000,9.3182,1.7142,1.4988,-0.7962,0.3672,0.2337,-77.1000,8.7000,39.6000,-4.6600,-2.3200,-8.4300,-0.0687,-0.0622,0.0425,39.5000,24.6875,6.3750,39.9375,-27.6250,163.5625,0
1776974154.664,8.7340,0.8284,1.8028,-0.3584,0.8628,0.9361,-62.7000,7.9500,31.2000,8.9591,2.0399,1.9249,-0.7560,-0.3363,0.2425,-76.9500,9.3000,38.7000,-4.6600,-2.3200,-8.4300,-0.0687,-0.0622,0.0425,39.5000,24.6875,6.3750,39.9375,-27.6875,163.6250,0
1776974154.669,8.7771,0.9936,2.3750,-0.3464,0.9862,0.9830,-62.7000,7.9500,31.2000,8.9591,2.0399,1.9249,-0.9222,-0.2798,0.2510,-76.9500,9.3000,38.7000,-4.7200,-2.2400,-8.4700,-0.0480,-0.0665,0.0480,39.8750,23.8750,6.0000,39.9375,-27.6875,163.6250,0
1776974154.674,8.7771,0.9936,2.3750,-0.3464,0.9862,0.9830,-62.7000,7.9500,31.2000,8.3222,2.3607,2.5953,-0.9222,-0.2798,0.2510,-78.4500,8.5500,38.7000,-4.7200,-2.2400,-8.4700,-0.0480,-0.0665,0.0480,39.8750,23.8750,6.0000,39.9375,-27.6875,163.6250,0
1776974154.679,9.8569,0.6201,2.3511,-0.3539,0.8676,1.0024,-62.7000,7.9500,31.2000,8.1547,2.2817,3.2681,-1.1119,0.3717,0.2531,-78.4500,8.5500,38.7000,-4.5900,-2.2300,-8.4600,-0.0295,-0.0524,0.0502,39.8750,23.8750,6.0000,39.9375,-27.6875,163.6250,0
1776974154.684,9.8569,0.6201,2.3511,-0.3539,0.8676,1.0024,-59.4000,5.2500,31.6500,8.1547,2.2817,3.2681,-1.1119,0.3717,0.2531,-78.4500,8.5500,38.7000,-4.5900,-2.2300,-8.4600,-0.0218,-0.0622,0.0567,39.8750,23.8750,6.0000,40.0000,-27.7500,163.6875,0
1776974154.690,10.0293,0.1437,2.5426,-0.3003,0.8167,1.0293,-59.4000,5.2500,31.6500,8.6550,2.1380,3.6559,-1.1578,-0.0128,0.2798,-78.0000,7.5000,38.7000,-4.6200,-2.3700,-8.5400,-0.0218,-0.0622,0.0567,39.8750,23.8750,6.0000,40.0000,-27.7500,163.6875,0
1776974154.699,9.8497,0.0862,2.4588,-0.2284,0.7655,1.0845,-60.4500,4.8000,33.0000,8.8226,2.0470,4.3742,-1.0901,0.4053,0.2683,-78.0000,7.5000,39.1500,-4.5600,-2.3000,-8.6100,-0.0142,-0.0731,0.0687,39.8750,23.8750,6.0000,40.0000,-27.8125,163.6875,0
1776974154.704,9.8497,0.0862,2.4588,-0.2284,0.7655,1.0845,-59.5500,5.8500,31.8000,8.8226,2.0470,4.3742,-1.0901,0.4053,0.2683,-78.0000,7.5000,39.1500,-4.5600,-2.3000,-8.6100,0.0185,-0.0807,0.0753,39.8750,23.8750,6.0000,40.0625,-27.8750,163.6875,0
1776974154.710,9.6798,0.2873,2.2505,-0.2787,0.7314,1.1532,-59.5500,5.8500,31.8000,9.0860,1.9992,4.5466,-0.8998,0.3142,0.2542,-77.8500,8.4000,40.0500,-4.5500,-2.1900,-8.7100,0.0185,-0.0807,0.0753,39.8750,23.8750,6.0000,40.0625,-27.8750,163.6875,0
1776974154.715,9.6798,0.2873,2.2505,-0.2787,0.7314,1.1532,-60.7500,3.9000,32.5500,9.0860,1.9992,4.5466,-0.8998,0.3142,0.2542,-77.8500,8.4000,40.0500,-4.5500,-2.1900,-8.7100,0.0589,-0.1080,0.0676,39.8750,23.5000,6.3750,40.1250,-27.9375,163.6875,0
1776974154.720,9.8090,0.1221,1.9010,-0.2731,0.7296,1.1938,-60.7500,3.9000,32.5500,9.7588,1.8483,4.0223,-0.7125,0.4237,0.1980,-78.6000,7.6500,40.6500,-3.9900,-1.9100,-9.2900,0.0589,-0.1080,0.0676,39.8750,23.5000,6.3750,40.1250,-27.9375,163.6875,0
1776974154.725,9.9407,-0.3448,1.8842,-0.2731,0.7296,1.1938,-60.7500,2.7000,33.3000,9.7588,1.8483,4.0223,-0.7125,0.4237,0.1980,-78.6000,7.6500,40.6500,-3.9900,-1.9100,-9.2900,0.0949,-0.1669,0.0567,39.8750,23.5000,6.3750,40.1250,-28.0000,163.6250,0
1776974154.730,9.9407,-0.3448,1.8842,-0.3331,0.7869,1.2340,-60.7500,2.7000,33.3000,9.8593,1.5921,3.3567,-0.5569,0.3896,0.1482,-78.6000,7.6500,40.6500,-4.3800,-2.3100,-8.8400,0.0949,-0.1669,0.0567,39.8750,23.5000,6.3750,40.1875,-28.1875,163.5625,0
1776974154.739,10.0437,-0.5842,2.6719,-0.3797,0.8868,1.2806,-59.5500,2.7000,34.8000,10.1634,1.2210,2.6983,-0.4194,0.4501,0.0893,-78.6000,7.6500,40.6500,-4.4300,-2.2600,-8.8800,0.1625,-0.2629,0.0840,39.8750,23.5000,6.3750,40.2500,-28.3750,163.4375,0
1776974154.749,10.5848,-0.9529,2.5019,-0.4322,0.9046,1.3166,-59.5500,2.7000,34.8000,10.9559,0.9720,2.2769,-0.3557,0.4698,0.0490,-79.6500,6.9000,39.3000,-4.2200,-2.4600,-9.0500,0.2083,-0.3131,0.0840,39.8750,23.5000,6.3750,40.2500,-28.3750,163.4375,0
1776974154.759,11.0804,-1.0056,2.3727,-0.4298,0.8918,1.3456,-60.3000,1.0500,34.3500,10.8386,0.7015,2.0806,-0.2955,0.4892,0.0120,-77.7000,5.2500,40.5000,-4.0300,-2.6300,-9.3700,0.2553,-0.4025,0.0993,39.8750,23.5000,6.3750,40.3125,-28.5625,163.3125,0
1776974154.764,11.3485,-1.2905,1.6352,-0.4298,0.8918,1.3456,-60.3000,1.0500,34.3500,10.8386,0.7015,2.0806,-0.2955,0.4892,0.0120,-77.7000,5.2500,40.5000,-4.0300,-2.6300,-9.3700,0.2553,-0.4025,0.0993,39.8750,23.5000,6.3750,40.3125,-28.5625,163.3125,0
1776974154.769,11.3485,-1.2905,1.6352,-0.4514,0.8519,1.3704,-60.3000,1.0500,34.3500,10.9654,0.6991,1.6927,-0.2619,0.3944,-0.0024,-76.6500,6.7500,40.9500,-4.0100,-2.5800,-9.4700,0.2825,-0.5421,0.1331,40.1875,22.7500,7.1875,40.3750,-28.8750,163.1250,0
1776974154.774,11.1785,-1.2474,1.4389,-0.5255,0.8439,1.3968,-58.9500,-0.1500,35.2500,10.9654,0.6991,1.6927,-0.2619,0.3944,-0.0024,-76.6500,6.7500,40.9500,-4.0100,-2.5800,-9.4700,0.2825,-0.5421,0.1331,40.1875,22.7500,7.1875,40.3750,-28.8750,163.1250,0
1776974154.779,11.1785,-1.2474,1.4389,-0.5255,0.8439,1.3968,-58.9500,-0.1500,35.2500,11.0899,1.0487,1.1181,-0.3515,0.2880,-0.0179,-76.2000,5.2500,38.7000,-4.1900,-2.6700,-9.3900,0.3142,-0.6905,0.1593,40.1875,22.7500,7.1875,40.4375,-29.3125,162.9375,0
1776974154.784,11.1163,-1.0463,1.1732,-0.6414,0.8918,1.4466,-57.4500,-1.6500,33.7500,11.0899,1.0487,1.1181,-0.3515,0.2880,-0.0179,-76.2000,5.2500,38.7000,-4.1900,-2.6700,-9.3900,0.3829,-0.8214,0.1811,40.1875,22.7500,7.1875,40.5625,-29.7500,162.6875,0
1776974154.790,11.1163,-1.0463,1.1732,-0.6414,0.8918,1.4466,-57.4500,-1.6500,33.7500,10.9822,1.8196,0.5028,-0.5009,0.1951,-0.0626,-76.2000,5.2500,38.7000,-3.9600,-2.6500,-9.6500,0.3829,-0.8214,0.1811,40.1875,22.7500,7.1875,40.6250,-30.3125,162.4375,0
1776974154.799,11.2695,-0.3663,1.0846,-0.7754,0.9619,1.5127,-58.2000,-2.4000,35.7000,10.8026,2.8659,0.0934,-0.7168,0.0541,-0.1431,-76.6500,4.0500,38.4000,-4.0100,-2.2200,-9.6000,0.4342,-0.9861,0.2051,40.1875,22.7500,7.1875,40.6250,-30.3125,162.4375,0
1776974154.809,11.5377,0.7278,0.5555,-0.8023,1.0240,1.6092,-57.6000,-2.2500,35.5500,10.4866,4.1228,0.0287,-0.9523,-0.0648,-0.2545,-76.9500,2.2500,38.4000,-3.9800,-2.2800,-9.6600,0.4691,-1.2075,0.2520,40.1875,22.7500,7.1875,40.7500,-31.0000,162.1250,0
1776974154.814,12.0141,1.7980,0.1197,-0.8799,1.1186,1.7187,-57.6000,-2.2500,35.5500,10.4866,4.1228,0.0287,-1.1415,-0.2747,-0.4210,-76.9500,2.2500,38.4000,-3.9800,-2.2800,-9.6600,0.4691,-1.2075,0.2520,40.1875,22.7500,7.1875,40.9375,-31.8125,161.7500,0
1776974154.819,12.0141,1.7980,0.1197,-0.8799,1.1186,1.7187,-57.6000,-2.2500,35.5500,10.6446,5.1954,-0.2274,-1.1415,-0.2747,-0.4210,-77.1000,2.7000,37.8000,-3.4900,-2.6500,-10.4200,0.5585,-1.4573,0.3098,41.3750,23.5000,6.0000,40.9375,-31.8125,161.7500,0
1776974154.824,12.8617,2.7533,0.0958,-1.0112,1.2057,1.8423,-58.2000,-5.2500,35.2500,10.7667,6.2034,-0.5962,-1.2236,-0.4572,-0.6257,-77.1000,2.7000,37.8000,-3.4900,-2.6500,-10.4200,0.5585,-1.4573,0.3098,41.3750,23.5000,6.0000,40.9375,-31.8125,161.7500,0
1776974154.829,12.8617,2.7533,0.0958,-1.0112,1.2057,1.8423,-58.2000,-5.2500,35.2500,10.7667,6.2034,-0.5962,-1.2236,-0.4572,-0.6257,-77.1000,2.7000,39.0000,-3.4100,-2.1700,-10.3200,0.5541,-1.7911,0.4222,41.3750,23.5000,6.0000,41.0625,-32.8125,161.3750,0
1776974154.838,14.1090,3.5721,-0.7015,-0.9670,1.2761,2.0624,-58.2000,-5.2500,35.2500,10.7931,7.5202,-0.9457,-1.2007,-0.7522,-0.8583,-77.1000,2.7000,39.0000,-3.1900,-2.6300,-10.8500,0.6021,-2.1631,0.5607,41.3750,23.5000,6.0000,41.3125,-34.0625,161.0000,0
1776974154.842,15.5408,4.2018,-2.1691,-0.9238,1.3179,2.3438,-58.2000,-5.2500,35.2500,10.7931,7.5202,-0.9457,-1.2007,-0.7522,-0.8583,-77.1000,2.7000,39.0000,-3.1900,-2.6300,-10.8500,0.6021,-2.1631,0.5607,41.3750,23.5000,6.0000,41.6250,-35.5625,160.5000,0
1776974154.850,16.4003,4.0103,-3.4381,-0.9238,1.3179,2.3438,-56.1000,-4.9500,35.8500,10.4052,7.9128,-1.6352,-1.0046,-1.0685,-1.1074,-77.1000,2.7000,39.0000,-3.0700,-2.6900,-11.1000,0.7690,-2.6071,0.7407,41.3750,23.5000,6.0000,42.0625,-37.3750,160.0000,0
1776974154.860,16.5751,2.1093,-4.8985,-1.0272,1.3472,2.5639,-54.7500,-6.4500,35.7000,10.9535,7.7405,0.8978,-0.4183,-1.1724,-1.3320,-79.3500,4.2000,37.2000,-2.3300,-4.0400,-11.6500,0.8083,-3.0860,0.9370,41.3750,23.5000,6.0000,42.0625,-37.3750,160.0000,0
1776974154.864,16.5751,2.1093,-4.8985,-1.2191,1.3278,2.6484,-54.1500,-8.1000,37.3500,12.5839,6.4476,-1.0319,0.3571,-1.1607,-1.5172,-79.3500,4.2000,37.2000,-2.3300,-4.0400,-11.6500,0.8083,-3.0860,0.9370,41.3750,23.5000,6.0000,42.5625,-39.5000,159.4375,0
1776974154.870,15.6054,1.5203,-4.6280,-1.2191,1.3278,2.6484,-54.1500,-8.1000,37.3500,12.5839,6.4476,-1.0319,0.3571,-1.1607,-1.5172,-84.6000,4.0500,36.6000,-2.0500,-4.7900,-11.9500,0.8814,-3.6521,1.1912,42.3750,22.5000,3.6875,42.5625,-39.5000,159.4375,0
1776974154.874,15.6054,1.5203,-4.6280,-1.2191,1.4069,2.5791,-54.7500,-9.9000,37.2000,12.7156,3.9648,-3.3926,0.9430,-1.5529,-1.7150,-84.6000,4.0500,36.6000,-2.0500,-4.7900,-11.9500,0.8814,-3.6521,1.1912,42.3750,22.5000,3.6875,42.5625,-39.5000,159.4375,0
1776974154.879,14.5304,0.2346,-4.6783,-1.3960,1.5116,2.4770,-54.7500,-9.9000,37.2000,12.7156,3.9648,-3.3926,0.9430,-1.5529,-1.7150,-83.7000,5.7000,36.1500,-1.9900,-6.2000,-11.7900,0.8694,-4.2750,1.5043,42.3750,22.5000,3.6875,86.6875,-42.0000,158.8750,0
1776974154.884,14.5304,0.2346,-4.6783,-1.3960,1.5116,2.4770,-53.4000,-13.9500,37.6500,11.2408,3.5123,-0.0383,1.6851,-2.0376,-1.5729,-83.7000,5.7000,36.1500,-1.9900,-6.2000,-11.7900,0.7712,-4.9676,1.9242,42.3750,22.5000,3.6875,84.3125,-44.9375,158.5000,0
1776974154.890,13.5488,-1.5754,-2.0375,-1.5684,1.6366,2.3086,-53.4000,-13.9500,37.6500,11.2408,3.5123,-0.0383,1.6851,-2.0376,-1.5729,-83.1000,7.0500,35.8500,-4.5300,-5.5500,-11.0200,0.7712,-4.9676,1.9242,42.3750,22.5000,3.6875,81.5000,-48.3750,158.1875,0
1776974154.900,12.4618,-2.7270,1.3767,-1.4850,1.6489,2.1485,-51.9000,-13.9500,37.3500,11.0971,3.0454,1.7885,2.9401,-2.0816,-1.4794,-83.1000,7.0500,35.8500,-7.6900,-5.6500,-11.9900,0.6414,-5.6821,2.3802,42.3750,22.5000,3.6875,81.5000,-48.3750,158.1875,0
1776974154.909,11.2001,-2.9521,4.3024,-1.2646,1.7147,2.0235,-51.9000,-13.9500,37.3500,11.5784,1.3886,-0.7805,2.7576,-2.0792,-1.5343,-82.8000,7.8000,34.2000,-10.5600,-4.5700,-12.4400,0.6196,-6.2821,2.7402,42.3750,22.5000,3.6875,78.6250,-52.1875,158.0000,0
1776974154.914,11.2001,-2.9521,4.3024,-1.2646,1.7147,2.0235,-51.9000,-16.8000,35.8500,12.7515,0.0168,-1.6616,2.4235,-2.1970,-1.6121,-82.8000,7.8000,34.2000,-10.5600,-4.5700,-12.4400,0.6196,-6.2821,2.7402,42.3750,22.5000,3.6875,76.0000,-56.1875,157.6250,0
1776974154.919,10.3980,-2.8371,5.8275,-0.9976,1.7373,1.8871,-51.9000,-16.8000,35.8500,12.7515,0.0168,-1.6616,2.4235,-2.1970,-1.6121,-83.1000,7.8000,32.7000,-13.8200,-7.2600,-12.6600,0.8388,-6.7010,2.8852,45.6875,18.3750,-2.0000,76.0000,-56.1875,157.6250,0
1776974154.924,10.3980,-2.8371,5.8275,-0.9976,1.7373,1.8871,-51.0000,-16.9500,36.0000,13.8217,-0.6201,-0.2059,1.8911,-2.4056,-1.6630,-83.1000,7.8000,32.7000,-13.8200,-7.2600,-12.6600,0.8388,-6.7010,2.8852,45.6875,18.3750,-2.0000,76.0000,-56.1875,157.6250,0
1776974154.929,10.3932,-3.1651,5.6455,-0.8351,1.6902,1.7341,-51.0000,-16.9500,36.0000,13.8217,-0.6201,-0.2059,1.8911,-2.4056,-1.6630,-82.3500,8.5500,30.9000,-14.7900,-6.5800,-13.1000,1.0614,-6.7719,2.8787,45.6875,18.3750,-2.0000,73.9375,-60.2500,157.0625,0
1776974154.935,10.3932,-3.1651,5.6455,-0.8351,1.6902,1.7341,-49.6500,-18.3000,35.1000,14.3604,-1.6065,1.9992,1.1471,-2.4765,-1.6385,-82.8000,9.7500,30.1500,-14.7900,-6.5800,-13.1000,0.9588,-6.5930,2.8013,45.6875,18.3750,-2.0000,72.0625,-64.2500,156.5000,0
1776974154.940,10.5153,-3.4644,5.6000,-0.4594,1.6523,1.5969,-49.6500,-18.3000,35.1000,15.3923,-2.5977,3.6512,0.2982,-2.4363,-1.5668,-82.8000,9.7500,30.1500,-15.7600,-6.7600,-13.1900,0.9588,-6.5930,2.8013,45.6875,18.3750,-2.0000,70.3750,-67.9375,156.0625,0
1776974154.950,10.9654,-4.6495,4.5394,0.1242,1.6006,1.4650,-49.5000,-20.4000,36.4500,15.3923,-2.5977,3.6512,-0.5793,-2.2521,-1.4520,-82.8000,9.7500,30.1500,-11.4600,-7.9200,-11.3700,0.8967,-6.0716,2.6954,45.6875,18.3750,-2.0000,70.3750,-67.9375,156.0625,0
1776974154.960,10.4387,-5.5282,5.6048,0.9529,1.6249,1.2289,-48.3000,-20.8500,36.4500,14.1569,-2.7797,4.3239,-0.5732,-2.0081,-1.4053,-82.0500,8.2500,29.8500,-3.8400,-7.8300,-10.4300,0.6447,-5.5065,2.6944,45.6875,18.3750,-2.0000,68.7500,-71.3125,156.0625,0
1776974154.964,10.4387,-5.5282,5.6048,0.9529,1.6249,1.2289,-49.5000,-20.8500,37.9500,14.4179,-2.9688,4.2449,-0.5732,-2.0081,-1.4053,-82.0500,8.2500,29.8500,-3.8400,-7.8300,-10.4300,0.6447,-5.5065,2.6944,45.6875,18.3750,-2.0000,68.7500,-71.3125,156.0625,0
1776974154.969,8.6598,-4.3096,8.8226,1.4480,1.3688,0.9198,-49.5000,-20.8500,37.9500,12.9718,-3.6105,4.0151,-0.9694,-2.1320,-1.2838,-80.5500,10.5000,28.5000,0.1000,-7.8700,-8.6400,0.3316,-5.0604,2.7576,50.0625,8.8750,-13.0625,67.0000,-74.5000,156.8125,0
1776974154.974,8.6598,-4.3096,8.8226,1.4480,1.3688,0.9198,-49.5000,-20.8500,37.9500,12.9718,-3.6105,4.0151,-0.9694,-2.1320,-1.2838,-80.5500,10.5000,28.5000,0.1000,-7.8700,-8.6400,0.3316,-5.0604,2.7576,50.0625,8.8750,-13.0625,67.0000,-74.5000,156.8125,0
1776974154.979,7.3430,-3.9409,7.8793,1.4757,0.7056,0.6219,-49.5000,-20.8500,37.9500,11.8920,-3.9361,4.3766,-1.2071,-1.5894,-1.2657,-80.7000,13.2000,28.9500,3.1600,-7.9900,-7.3100,-0.0513,-4.8127,2.9551,50.0625,8.8750,-13.0625,65.0000,-77.6250,158.8750,0
1776974154.984,6.0382,-6.4380,6.6008,1.4757,0.7056,0.6219,-49.3500,-21.4500,36.9000,11.8920,-3.9361,4.3766,-1.2071,-1.5894,-1.2657,-80.7000,13.2000,28.9500,3.1600,-7.9900,-7.3100,-0.6654,-4.8193,3.2736,50.0625,8.8750,-13.0625,62.5625,-80.6875,163.8125,0
1776974154.990,6.0382,-6.4380,6.6008,1.7656,0.1911,0.3142,-49.3500,-21.4500,36.9000,11.4443,-2.6911,3.5650,-1.1008,-1.3997,-1.3265,-80.7000,10.6500,26.1000,-16.8200,-4.3600,-9.0100,-0.6654,-4.8193,3.2736,50.0625,8.8750,-13.0625,59.6250,-83.5625,179.4375,0
1776974155.000,4.5801,-7.3933,8.4707,2.1365,-0.1013,0.0663,-49.3500,-21.4500,36.9000,11.1713,-0.1053,3.0789,-1.0477,-1.4815,-1.3502,-79.0500,11.2500,26.2500,-17.0200,-5.5200,-10.5400,-1.4715,-4.5859,3.4950,50.0625,8.8750,-13.0625,57.4375,-84.9375,-178.9375,0
1776974155.010,2.7581,-7.1012,9.3494,1.8093,0.0027,-0.1785,-48.9000,-19.5000,36.6000,11.5568,1.9800,2.5929,-1.0629,-1.6550,-1.3376,-79.0500,11.2500,26.2500,-7.5600,-4.5000,-13.7400,-1.0407,-2.6016,2.7718,50.0625,8.8750,-13.0625,57.4375,-84.9375,-178.9375,0
1776974155.015,1.9249,-6.0382,7.9847,1.1570,-0.0245,-0.4674,-48.9000,-17.5500,1.2000,11.5568,1.9800,2.5929,-1.0629,-1.6550,-1.3376,-78.0000,11.5500,25.2000,-7.5600,-4.5000,-13.7400,-1.0407,-2.6016,2.7718,50.0625,8.8750,-13.0625,56.4375,-84.6250,-178.0000,0
1776974155.020,1.9249,-6.0382,7.9847,1.1570,-0.0245,-0.4674,-48.9000,-17.5500,39.6000,9.8497,2.9712,2.0638,-0.9769,-1.8082,-1.3107,-78.0000,11.5500,25.2000,-3.2000,-5.0900,-10.0000,-0.1724,0.0698,1.6013,50.7500,1.2500,-19.1875,56.4375,-84.6250,-178.0000,0
1776974155.025,2.9784,-5.0518,5.9137,0.2926,-0.3632,-0.7618,-50.2500,-18.1500,38.2500,9.8497,2.9712,2.0638,-0.9769,-1.8082,-1.3107,-77.5500,13.6500,24.3000,-3.2000,-5.0900,-10.0000,-0.1724,0.0698,1.6013,50.7500,1.2500,-19.1875,56.3750,-83.5625,-177.7500,0
1776974155.030,2.9784,-5.0518,5.9137,0.2926,-0.3632,-0.7618,-50.2500,-18.1500,38.2500,10.2544,3.5817,2.1021,-0.9164,-1.4791,-1.3315,-77.5500,13.6500,24.3000,0.5000,-5.2700,-7.1100,0.4003,1.8162,0.5770,50.7500,1.2500,-19.1875,56.3750,-83.5625,-177.7500,0
1776974155.038,4.1755,-4.1970,4.8554,-0.3792,-0.7101,-1.0792,-49.8000,-16.9500,38.5500,9.4810,4.5442,2.0207,-0.5772,-1.3709,-1.3989,-77.8500,14.7000,24.0000,1.7200,-5.1300,-5.6100,0.7876,2.7216,-0.1265,50.7500,1.2500,-19.1875,56.8750,-82.1875,-164.1250,0
1776974155.043,4.4460,-4.0510,4.3838,-0.5748,-1.1580,-1.3030,-49.8000,-16.9500,38.5500,9.4810,4.5442,2.0207,-0.5772,-1.3709,-1.3989,-77.8500,14.7000,24.0000,1.7200,-5.1300,-5.6100,0.7876,2.7216,-0.1265,50.7500,1.2500,-19.1875,57.6875,-80.5625,-169.2500,0
1776974155.050,4.4460,-4.0510,4.3838,-0.5748,-1.1580,-1.3030,-51.1500,-17.5500,35.1000,9.0621,4.8195,1.7023,-0.2467,-0.9643,-1.5143,-78.4500,13.8000,25.2000,1.1900,-4.8900,-4.8700,0.8868,3.0958,-0.5705,50.7500,1.2500,-19.1875,58.6250,-78.8750,-173.9375,0
1776974155.060,4.1132,-3.8092,4.1827,-0.4066,-1.4202,-1.4711,-50.8500,-14.8500,35.5500,8.6335,4.5107,1.6688,0.0027,-0.7501,-1.5852,-78.4500,13.8000,25.2000,0.2100,-5.5200,-3.7800,0.7789,3.2463,-0.9174,50.7500,1.2500,-19.1875,58.6250,-78.8750,-173.9375,0
1776974155.065,3.5147,-3.0382,3.9576,-0.1447,-1.6515,-1.6206,-50.8500,-14.8500,35.5500,8.6335,4.5107,1.6688,0.0027,-0.7501,-1.5852,-78.6000,16.2000,26.1000,0.2100,-5.5200,-3.7800,0.7789,3.2463,-0.9174,50.7500,1.2500,-19.1875,59.5625,-77.0000,-178.6875,0
1776974155.070,3.5147,-3.0382,3.9576,-0.1447,-1.6515,-1.6206,-50.8500,-14.8500,35.5500,8.8633,3.5889,1.4293,0.1745,-0.6139,-1.5516,-78.6000,16.2000,26.1000,0.1400,-5.8000,-3.5900,0.1614,3.4459,-1.5730,54.5000,-6.0625,-13.3750,59.5625,-77.0000,-178.6875,0
1776974155.075,3.1340,-2.5666,3.5458,-0.1572,-1.8969,-1.8274,-50.8500,-14.8500,35.5500,8.8633,3.5889,1.4293,0.1745,-0.6139,-1.5516,-80.5500,17.2500,25.6500,0.1400,-5.8000,-3.5900,0.1614,3.4459,-1.5730,54.5000,-6.0625,-13.3750,59.5625,-77.0000,-178.6875,0
1776974155.080,3.1340,-2.5666,3.5458,-0.1572,-1.8969,-1.8274,-53.4000,-14.4000,33.6000,8.1570,2.7294,1.9130,0.3419,-0.5225,-1.4480,-80.5500,17.2500,25.6500,-0.1000,-5.9000,-3.6000,0.1614,3.4459,-1.5730,54.5000,-6.0625,-13.3750,60.5625,-75.1250,177.6875,0
1776974155.085,2.6145,-1.0199,4.9129,0.0077,-2.1677,-1.9851,-53.4000,-14.4000,33.6000,8.1570,2.7294,1.9130,0.3419,-0.5225,-1.4480,-79.5000,18.3000,26.7000,-0.1000,-5.9000,-3.6000,-0.2771,3.4852,-1.9002,54.5000,-6.0625,-13.3750,61.5000,-73.1250,174.6250,0
1776974155.091,2.9736,-1.1660,2.6384,-0.2795,-2.3569,-2.0757,-54.0000,-13.0500,32.7000,7.6902,2.3631,1.9489,0.4740,-0.5095,-1.3291,-79.5000,18.3000,26.7000,-2.4800,-4.5600,-5.0400,-0.2771,3.4852,-1.9002,54.5000,-6.0625,-13.3750,62.3125,-71.0000,171.8750,0
1776974155.100,3.2968,-2.5331,2.9066,-0.2795,-2.3569,-2.0757,-57.0000,-13.8000,32.4000,7.3239,1.7526,2.2960,0.5199,-0.3722,-1.2313,-79.3500,17.7000,27.1500,-4.1300,-3.6000,-5.5300,-0.6861,3.4874,-2.2515,54.5000,-6.0625,-13.3750,62.3125,-71.0000,171.8750,0
1776974155.110,4.2880,-2.6935,4.8459,0.6616,-2.1416,-2.3880,-57.6000,-11.7000,30.3000,6.7493,1.3001,3.1795,0.5510,-0.1292,-1.0933,-81.3000,18.3000,27.0000,-3.9900,-3.6700,-5.9100,-0.9937,3.7874,-3.0467,54.5000,-6.0625,-13.3750,63.3750,-68.6875,168.8125,0
1776974155.115,4.2880,-2.6935,4.8459,0.6616,-2.1416,-2.3880,-57.6000,-11.7000,30.3000,6.5410,1.0175,3.4477,0.7104,0.0187,-0.9196,-81.3000,18.3000,27.0000,-3.9900,-3.6700,-5.9100,-0.9937,3.7874,-3.0467,54.5000,-6.0625,-13.3750,63.3750,-68.6875,168.8125,0
1776974155.120,5.5641,-2.3679,4.5514,0.9979,-2.3358,-2.4794,-57.0000,-9.4500,30.9000,6.5410,1.0175,3.4477,0.7104,0.0187,-0.9196,-81.3000,18.3000,27.0000,-4.1800,-1.7200,-6.4700,-0.9621,3.9935,-3.2878,60.1875,-5.1875,3.0000,64.7500,-66.1250,166.1875,0
1776974155.125,5.5641,-2.3679,4.5514,0.9979,-2.3358,-2.4794,-57.0000,-9.4500,30.9000,6.2034,0.6201,3.1675,0.6510,-0.0789,-0.7370,-80.7000,21.1500,27.1500,-4.1800,-1.7200,-6.4700,-0.9621,3.9935,-3.2878,60.1875,-5.1875,3.0000,64.7500,-66.1250,166.1875,0
1776974155.130,6.5673,-2.1811,3.9361,0.9337,-2.4544,-2.5604,-58.3500,-8.1000,28.5000,6.2034,0.6201,3.1675,0.6510,-0.0789,-0.7370,-80.7000,21.1500,27.1500,-4.2200,-0.9900,-6.3500,-0.7887,4.2291,-3.4208,60.1875,-5.1875,3.0000,66.3750,-63.3750,164.0625,0
1776974155.138,7.7261,-2.5163,3.9385,0.9337,-2.4544,-2.5604,-58.3500,-8.1000,28.5000,6.2082,0.5507,2.7845,0.7320,-0.0898,-0.5817,-81.6000,19.5000,26.7000,-3.9400,-0.2900,-6.3100,-0.4920,4.4255,-3.4285,60.1875,-5.1875,3.0000,68.4375,-60.4375,162.2500,0
1776974155.143,7.7261,-2.5163,3.9385,0.6952,-2.7126,-2.6092,-58.3500,-8.1000,28.5000,6.2082,0.5507,2.7845,0.7320,-0.0898,-0.5817,-81.4500,19.6500,27.6000,-3.9400,-0.2900,-6.3100,-0.4920,4.4255,-3.4285,60.1875,-5.1875,3.0000,71.0000,-57.5000,160.7500,0
1776974155.150,8.0900,-2.7246,4.3981,0.4389,-2.8573,-2.7243,-61.2000,-8.4000,27.1500,6.0094,0.4286,2.4588,0.8617,-0.0608,-0.4469,-81.4500,19.6500,27.6000,-4.0600,0.0400,-6.5100,-0.1058,4.5106,-3.2725,60.1875,-5.1875,3.0000,73.8750,-54.6250,159.5625,0
1776974155.160,8.0325,-3.4788,4.3455,0.4652,-2.9783,-2.9268,-64.0500,-6.6000,26.5500,6.0142,0.4717,2.1356,1.0142,0.0863,-0.3656,-81.4500,22.2000,27.1500,-5.6000,-1.0300,-7.4600,0.2640,4.5291,-2.9180,60.1875,-5.1875,3.0000,73.8750,-54.6250,159.5625,0
1776974155.165,8.0325,-3.4788,4.3455,0.4652,-2.9783,-2.9268,-64.0500,-6.6000,26.5500,6.0286,0.4717,1.8124,1.1810,0.2942,-0.2467,-81.4500,22.2000,27.1500,-5.6000,-1.0300,-7.4600,0.2640,4.5291,-2.9180,60.1875,-5.1875,3.0000,76.9375,-51.8125,158.8750,0
1776974155.170,7.3119,-3.4500,4.6950,0.6819,-3.2210,-3.0728,-63.7500,-5.4000,25.5000,6.0286,0.4717,1.8124,1.1810,0.2942,-0.2467,-81.4500,22.2000,27.1500,-6.6500,-1.6500,-8.1100,0.5378,4.5422,-2.3551,63.5000,4.7500,22.2500,76.9375,-51.8125,158.8750,0
1776974155.175,7.3119,-3.4500,4.6950,0.6819,-3.2210,-3.0728,-63.7500,-5.4000,25.5000,6.6463,0.2322,1.2546,1.3355,0.4522,-0.1399,-81.1500,21.1500,25.8000,-6.6500,-1.6500,-8.1100,0.5378,4.5422,-2.3551,63.5000,4.7500,22.2500,76.9375,-51.8125,158.8750,0
1776974155.180,7.1515,-3.0191,3.8810,0.8268,-3.2711,-3.1448,-62.7000,-4.5000,23.1000,6.6463,0.2322,1.2546,1.3355,0.4522,-0.1399,-81.1500,21.1500,25.8000,-7.1600,-1.9100,-8.3100,0.6840,4.5826,-1.7093,63.5000,4.7500,22.2500,80.0625,-49.0625,158.5000,0
1776974155.184,7.1515,-3.0191,3.8810,0.8268,-3.2711,-3.1448,-62.7000,-4.5000,23.1000,6.9336,-0.1173,0.9649,1.4083,0.4325,-0.0570,-80.4000,23.4000,26.1000,-7.1600,-1.9100,-8.3100,0.7494,4.5586,-1.0865,63.5000,4.7500,22.2500,83.1250,-46.5000,158.5000,0
1776974155.191,7.8506,-3.2609,3.2226,0.7584,-3.1512,-3.1912,-65.8500,-2.4000,24.1500,6.9336,-0.1173,0.9649,1.4083,0.4325,-0.0570,-80.5500,23.4000,26.1000,-7.9100,-2.4900,-8.9400,0.7494,4.5586,-1.0865,63.5000,4.7500,22.2500,86.1250,-44.0625,158.6875,0
1776974155.200,9.0549,-3.8427,3.1891,0.5630,-3.0702,-3.2460,-65.4000,-1.6500,20.8500,7.4196,-0.5315,0.4022,1.5194,0.3672,0.0077,-80.5500,22.5000,26.2500,-8.4200,-2.4300,-9.2700,0.7767,4.4789,-0.5563,63.5000,4.7500,22.2500,86.1250,-44.0625,158.6875,0
1776974155.210,10.3573,-5.5162,4.5107,0.2907,-3.1062,-3.2631,-65.4000,-1.6500,20.8500,7.6782,-0.8499,-0.0431,1.5439,0.2449,0.0640,-81.9000,23.7000,26.4000,-8.6100,-2.8300,-9.5700,0.8716,4.3731,-0.2258,63.5000,4.7500,22.2500,89.3125,-41.7500,158.9375,0
1776974155.215,11.0995,-6.3279,5.4468,0.2907,-3.1062,-3.2631,-65.4000,-1.6500,20.8500,7.7644,-1.2785,-0.4453,1.5532,0.1644,0.1212,-81.4500,23.4000,26.1000,-8.6100,-2.8300,-9.5700,0.8716,4.3731,-0.2258,63.5000,4.7500,22.2500,89.3125,-41.7500,158.9375,0
1776974155.220,11.0995,-6.3279,5.4468,-0.1202,-3.1962,-3.2695,-67.5000,1.0500,18.7500,7.7644,-1.2785,-0.4453,1.5532,0.1644,0.1212,-81.4500,23.4000,26.1000,-8.9100,-3.7600,-10.0300,1.0199,4.2793,-0.1004,54.5000,17.2500,50.3750,46.1250,-39.5625,159.0625,0
1776974155.225,11.0085,-6.1699,4.8387,-0.1202,-3.1962,-3.2695,-67.5000,1.0500,18.7500,7.8554,-1.2881,-0.6297,1.4418,0.1268,0.1940,-81.4500,23.4000,26.1000,-8.9100,-3.7600,-10.0300,1.0199,4.2793,-0.1004,54.5000,17.2500,50.3750,46.1250,-39.5625,159.0625,0
1776974155.230,11.0085,-6.1699,4.8387,-0.7605,-3.2716,-3.3108,-67.5000,1.0500,18.7500,7.8554,-1.2881,-0.6297,1.4418,0.1268,0.1940,-81.4500,23.4000,26.1000,-10.0400,-5.7600,-10.8100,1.1454,4.2226,-0.1233,54.5000,17.2500,50.3750,46.6250,-37.3125,159.0000,0
1776974155.237,10.4770,-5.3008,4.3072,-1.2132,-3.1999,-3.3790,-66.9000,2.1000,16.3500,7.9535,-1.2641,-0.5794,1.2740,0.0282,0.2526,-81.3000,24.7500,25.6500,-10.6400,-6.4700,-10.9700,1.2185,4.2041,-0.2596,54.5000,17.2500,50.3750,47.1250,-35.1250,158.8750,0
1776974155.242,10.4770,-5.3008,4.3072,-1.2132,-3.1999,-3.3790,-66.9000,2.1000,16.3500,8.1163,-0.9361,-0.4645,0.9816,-0.0456,0.3038,-82.8000,25.5000,24.4500,-10.6400,-6.4700,-10.9700,1.2185,4.2041,-0.2596,54.5000,17.2500,50.3750,47.5000,-32.8750,158.5625,0
1776974155.251,10.4028,-4.0247,3.2274,-1.5524,-3.0158,-3.4550,-66.7500,2.7000,15.9000,7.8673,-0.2849,-0.5602,0.6273,-0.1356,0.3131,-83.1000,25.8000,24.9000,-11.0700,-6.4600,-10.7900,1.2785,4.1713,-0.4756,54.5000,17.2500,50.3750,47.6875,-30.6250,158.0625,0
1776974155.260,10.0341,-2.9090,2.8850,-1.5340,-2.8757,-3.5154,-68.1000,5.5500,13.0500,7.7572,0.6871,-0.8092,0.2385,-0.1271,0.3086,-81.9000,25.6500,24.3000,-10.3200,-6.3000,-10.8800,1.3832,4.0208,-0.7189,54.5000,17.2500,50.3750,47.6875,-30.6250,158.0625,0
1776974155.265,10.4148,-1.1827,2.4660,-1.3470,-2.6926,-3.4736,-68.1000,5.5500,13.0500,7.7572,0.6871,-0.8092,0.2385,-0.1271,0.3086,-81.9000,25.6500,24.3000,-10.3200,-6.3000,-10.8800,1.3832,4.0208,-0.7189,54.5000,17.2500,50.3750,47.7500,-28.5000,157.3750,0
1776974155.270,10.4148,-1.1827,2.4660,-1.3470,-2.6926,-3.4736,-68.2500,7.3500,12.1500,7.8314,1.6592,-1.0343,-0.2121,-0.3104,0.3174,-81.9000,25.6500,24.3000,-10.9600,-5.8600,-9.5800,1.5141,3.7535,-0.9817,21.2500,22.2500,58.5000,47.7500,-28.5000,157.3750,0
1776974155.275,10.2472,-0.3400,2.2218,-0.8942,-2.6001,-3.4043,-68.2500,7.3500,12.1500,7.8314,1.6592,-1.0343,-0.2121,-0.3104,0.3174,-81.9000,25.6500,24.3000,-10.9600,-5.8600,-9.5800,1.5141,3.7535,-0.9817,21.2500,22.2500,58.5000,47.6250,-26.5000,156.5625,0
1776974155.280,10.2472,-0.3400,2.2218,-0.8942,-2.6001,-3.4043,-68.2500,8.1000,10.6500,7.8578,2.4684,-1.4964,-0.7922,-0.3307,0.3211,-82.9500,24.1500,24.0000,-12.2500,-5.9500,-10.8300,1.5882,3.3270,-1.2283,21.2500,22.2500,58.5000,47.6250,-26.5000,156.5625,0
1776974155.285,9.6271,0.2873,2.3990,-0.5287,-2.4179,-3.2428,-68.2500,8.1000,10.6500,7.8578,2.4684,-1.4964,-0.7922,-0.3307,0.3211,-82.9500,24.1500,24.0000,-12.2500,-5.9500,-10.8300,1.7115,3.3281,-1.5544,21.2500,22.2500,58.5000,47.3750,-24.5000,155.5625,0
1776974155.291,9.6271,0.2873,2.3990,-0.5287,-2.4179,-3.2428,-66.6000,8.4000,10.8000,7.8171,3.2513,-1.7957,-1.2377,-0.2022,0.2926,-81.3000,25.0500,23.4000,-12.3800,-5.5100,-10.9000,1.7115,3.3281,-1.5544,21.2500,22.2500,58.5000,46.9375,-22.5000,154.5625,0
1776974155.300,9.7755,0.3089,2.5977,-0.2523,-2.2727,-3.0880,-66.6000,8.4000,10.8000,9.8114,4.3383,-2.5522,-1.4386,-0.1228,0.3048,-81.0000,24.3000,25.2000,-12.4800,-4.9300,-10.8400,1.6886,3.1547,-1.8588,21.2500,22.2500,58.5000,46.9375,-22.5000,154.5625,0
1776974155.311,10.5943,0.5052,2.2098,-0.1796,-2.1301,-2.9007,-66.9000,12.6000,8.7000,8.3869,5.1451,-2.1691,-1.6398,-0.1761,0.2801,-81.6000,22.8000,22.8000,-12.1700,-4.4300,-10.5600,1.7213,3.0969,-2.1489,21.2500,22.2500,58.5000,46.3125,-20.3750,153.5000,0
1776974155.316,10.5943,0.5052,2.2098,-0.1151,-2.0723,-2.7166,-66.9000,12.6000,8.7000,8.3869,5.1451,-2.1691,-1.6398,-0.1761,0.2801,-81.6000,22.8000,22.8000,-12.1700,-4.4300,-10.5600,1.7213,3.0969,-2.1489,17.1875,17.0625,42.1875,45.5625,-18.3125,152.3750,0
1776974155.321,10.3046,0.5076,1.7334,-0.1151,-2.0723,-2.7166,-66.9000,13.0500,7.5000,8.5712,6.2034,-2.7773,-1.6403,0.0560,0.3163,-81.6000,22.8000,22.8000,-11.8400,-4.3400,-10.0800,1.7159,2.9976,-2.3627,17.1875,17.0625,42.1875,45.5625,-18.3125,152.3750,0
1776974155.326,10.3046,0.5076,1.7334,-0.1556,-2.0414,-2.5671,-66.9000,13.0500,7.5000,8.5712,6.2034,-2.7773,-1.6403,0.0560,0.3163,-81.6000,22.8000,22.8000,-11.8400,-4.3400,-10.0800,1.7159,2.9976,-2.3627,17.1875,17.0625,42.1875,44.6875,-16.3125,151.3125,0
1776974155.331,9.9383,0.2442,1.0511,-0.0991,-1.9228,-2.4118,-65.1000,13.8000,7.5000,9.2320,7.5776,-3.3854,-1.5090,0.1482,0.3488,-81.6000,22.8000,22.8000,-11.9900,-4.1700,-8.7800,1.6330,2.8482,-2.4773,17.1875,17.0625,42.1875,43.8125,-14.3125,150.3750,0
1776974155.340,9.2895,0.2849,1.4293,-0.0991,-1.9228,-2.4118,-66.3000,15.1500,6.9000,9.9192,8.9519,-3.7517,-1.1077,0.2089,0.4069,-79.0500,23.2500,24.1500,-12.5500,-4.3200,-8.1000,1.5108,2.7085,-2.5078,17.1875,17.0625,42.1875,43.8125,-14.3125,150.3750,0
1776974155.350,8.9663,0.4142,1.2737,0.2356,-1.4666,-2.0206,-66.0000,16.3500,6.6000,9.7755,10.0173,-3.7373,-0.6760,-0.0091,0.4791,-78.1500,22.9500,24.3000,-13.1800,-4.1700,-7.5200,1.3101,2.5667,-2.4762,17.1875,17.0625,42.1875,42.9375,-12.3750,149.5000,0
1776974155.360,8.9376,0.6273,0.9361,0.2369,-1.1495,-1.7930,-66.3000,18.0000,4.0500,9.6055,10.1610,-3.5889,-0.2129,0.0749,0.5473,-79.5000,21.3000,24.1500,-13.9400,-2.8400,-6.1000,1.0690,2.4249,-2.3998,17.1875,17.0625,42.1875,42.0000,-10.5625,148.8125,0
1776974155.365,8.9376,0.6273,0.9361,0.2369,-1.1495,-1.7930,-66.3000,18.0000,4.0500,9.6055,10.1610,-3.5889,-0.2129,0.0749,0.5473,-79.5000,21.3000,24.1500,-13.9400,-2.8400,-6.1000,1.0690,2.4249,-2.3998,17.1875,17.0625,42.1875,42.0000,-10.5625,148.8125,0
1776974155.370,9.1746,0.7446,0.3998,0.1945,-0.9110,-1.5471,-66.3000,18.0000,4.0500,9.5648,9.7181,-3.4884,0.2705,0.3413,0.5846,-79.8000,22.8000,24.9000,-14.1400,-1.7200,-5.2800,0.8748,2.2646,-2.2940,20.6875,23.5625,45.5625,41.1250,-8.8125,148.2500,0
1776974155.375,9.1746,0.7446,0.3998,0.1945,-0.9110,-1.5471,-66.3000,18.0000,4.0500,9.5648,9.7181,-3.4884,0.2705,0.3413,0.5846,-79.8000,22.8000,24.9000,-14.1400,-1.7200,-5.2800,0.8748,2.2646,-2.2940,20.6875,23.5625,45.5625,41.1250,-8.8125,148.2500,0
1776974155.380,8.9783,0.7877,0.3041,0.1809,-0.7314,-1.2460,-66.3000,18.3000,5.5500,9.2464,8.7293,-3.0526,0.8076,0.3416,0.5449,-79.8000,22.8000,24.9000,-14.4900,-0.5700,-4.2600,0.7865,2.0366,-2.1729,20.6875,23.5625,45.5625,40.3125,-7.1875,147.7500,0
1776974155.385,8.9783,0.7877,0.3041,0.1809,-0.7314,-1.2460,-66.3000,18.3000,5.5500,9.2464,8.7293,-3.0526,1.1863,0.3315,0.4285,-79.8000,22.8000,24.9000,-14.4900,-0.5700,-4.2600,0.7647,1.7224,-2.0399,20.6875,23.5625,45.5625,39.4375,-5.8125,147.3125,0
1776974155.391,8.0852,0.9984,-0.1030,0.1929,-0.5668,-0.8884,-66.3000,18.3000,5.5500,9.1195,7.5465,-2.2314,1.1863,0.3315,0.4285,-79.8000,25.5000,24.4500,-15.7800,0.9600,-1.9700,0.7647,1.7224,-2.0399,20.6875,23.5625,45.5625,38.6875,-4.6250,146.8125,0
1776974155.401,6.7900,1.0223,-0.6800,0.2651,-0.3104,-0.4986,-66.3000,19.9500,4.0500,8.9304,7.1419,-1.9154,1.4392,0.3706,0.3616,-79.3500,23.7000,23.5500,-16.7400,1.4900,-0.6200,0.7658,1.3624,-1.8795,20.6875,23.5625,45.5625,38.6875,-4.6250,146.8125,0
1776974155.410,5.7676,1.0151,-0.6536,0.3965,0.0890,-0.0989,-65.2500,19.5000,4.8000,9.0692,7.3310,-1.7885,1.5652,0.5518,0.2555,-79.6500,25.6500,23.5500,-17.4900,1.9900,0.7100,0.7559,0.9556,-1.6712,20.6875,23.5625,45.5625,37.8750,-3.6250,146.3750,0
1776974155.415,5.7676,1.0151,-0.6536,0.3965,0.0890,-0.0989,-65.2500,19.5000,4.8000,8.7149,7.5800,-1.8627,1.7016,0.6555,0.2326,-79.6500,25.6500,23.5500,-17.4900,1.9900,0.7100,0.7559,0.9556,-1.6712,20.6875,23.5625,45.5625,37.8750,-3.6250,146.3750,0
1776974155.420,5.6192,0.6440,0.3567,0.5963,0.5415,0.3003,-66.1500,20.4000,4.9500,8.7149,7.5800,-1.8627,1.7016,0.6555,0.2326,-79.0500,23.5500,24.1500,-17.8500,2.9300,1.6500,0.7723,0.4920,-1.4235,14.0625,32.0625,48.0000,37.1875,-3.0000,145.9375,0
1776974155.425,5.6192,0.6440,0.3567,0.5963,0.5415,0.3003,-66.1500,20.4000,4.9500,8.2600,7.0797,-1.9489,1.8005,0.6169,0.3027,-79.0500,23.5500,24.1500,-17.8500,2.9300,1.6500,0.7723,0.4920,-1.4235,14.0625,32.0625,48.0000,37.1875,-3.0000,145.9375,0
1776974155.430,6.7062,0.9337,2.8084,0.8777,1.1146,0.5825,-66.7500,19.5000,4.3500,8.2600,7.0797,-1.9489,1.8005,0.6169,0.3027,-79.0500,23.5500,24.1500,-10.6500,-1.6100,-3.3200,0.8094,-0.0360,-1.2468,14.0625,32.0625,48.0000,36.5000,-2.6250,145.4375,0
1776974155.438,8.8753,1.5874,1.7597,1.1618,1.3694,0.8697,-66.7500,19.5000,4.3500,7.9248,6.1866,-1.8603,1.7632,0.6411,0.3635,-79.0500,23.5500,24.1500,-15.3700,-6.1300,5.7400,-0.7439,-1.6450,-1.1465,14.0625,32.0625,48.0000,35.6250,-3.0000,145.8125,0
1776974155.442,8.8753,1.5874,1.7597,1.1618,1.3694,0.8697,-66.7500,19.5000,4.3500,7.9248,6.1866,-1.8603,1.7632,0.6411,0.3635,-79.0500,23.5500,24.1500,-15.3700,-6.1300,5.7400,-0.7439,-1.6450,-1.1465,14.0625,32.0625,48.0000,34.9375,-4.4375,146.9375,0
1776974155.451,9.4691,2.2745,1.4772,1.4357,1.1799,0.9920,-68.2500,18.0000,6.1500,7.8434,4.5681,-1.2953,1.4346,0.6587,0.4002,-80.2500,24.0000,21.6000,-6.2700,2.4900,3.3200,-2.1042,-3.1994,-0.1276,14.0625,32.0625,48.0000,34.1875,-5.9375,148.3125,0
1776974155.461,10.0963,4.4317,2.1165,1.3387,1.3126,0.6813,-68.2500,18.0000,6.1500,8.2217,2.6336,-0.1006,0.9422,0.9268,0.5905,-80.4000,25.2000,21.4500,-5.2000,-10.8700,-12.5800,-2.6834,-3.3827,-0.2356,14.0625,32.0625,48.0000,34.1875,-5.9375,148.3125,0
1776974155.466,13.4554,6.4428,-5.8107,0.1386,0.6158,0.1951,-68.2500,18.0000,6.1500,8.5832,0.8475,1.0104,0.4482,1.0794,0.7983,-80.4000,25.2000,21.4500,-5.2000,-10.8700,-12.5800,-2.6834,-3.3827,-0.2356,14.0625,32.0625,48.0000,33.5000,-7.1875,149.3750,0
1776974155.471,13.4554,6.4428,-5.8107,0.1386,0.6158,0.1951,-66.1500,19.6500,7.9500,8.5832,0.8475,1.0104,0.4482,1.0794,0.7983,-79.5000,23.5500,22.0500,2.3700,-16.0700,-11.0100,-2.1293,-2.8471,-0.3229,9.5000,37.5000,47.8750,33.5000,-7.1875,149.3750,0
1776974155.476,12.8712,3.9049,-4.6855,0.6235,0.0565,-0.1364,-66.1500,19.6500,7.9500,8.5856,0.0096,1.5179,-0.0075,0.8868,0.8106,-79.5000,23.5500,22.0500,2.3700,-16.0700,-11.0100,-2.1293,-2.8471,-0.3229,9.5000,37.5000,47.8750,33.4375,-8.6250,150.5000,0
1776974155.481,12.8712,3.9049,-4.6855,0.6235,0.0565,-0.1364,-67.6500,17.4000,6.0000,8.5856,0.0096,1.5179,-0.0075,0.8868,0.8106,-81.1500,23.4000,22.2000,0.0000,-6.9500,-7.2600,-2.1086,-2.4915,0.6938,9.5000,37.5000,47.8750,33.4375,-8.6250,150.5000,0
1776974155.486,9.4164,-1.0918,-3.7062,1.8940,-0.0498,0.0437,-67.6500,17.4000,6.0000,8.5569,0.0982,0.8404,-0.2665,0.7032,0.7807,-81.1500,23.4000,22.2000,0.0000,-6.9500,-7.2600,-2.3027,-2.5656,1.3155,9.5000,37.5000,47.8750,33.6875,-10.1875,151.7500,0
1776974155.491,9.4164,-1.0918,-3.7062,1.8940,-0.0498,0.0437,-66.9000,18.4500,7.2000,8.5569,0.0982,0.8404,-0.1074,0.7093,1.0080,-81.1500,23.4000,22.2000,-1.9200,4.3200,-6.9300,-2.3027,-2.5656,1.3155,9.5000,37.5000,47.8750,33.7500,-11.7500,152.5625,0
1776974155.501,10.3837,-3.3423,-10.0940,1.5924,0.2451,0.4048,-65.5500,16.8000,7.6500,10.6303,0.5842,-0.2969,-0.1074,0.7093,1.0080,-78.0000,22.5000,22.0500,-2.6000,5.8100,-12.5200,-1.5795,-2.7413,0.9185,9.5000,37.5000,47.8750,33.7500,-11.7500,152.5625,0
1776974155.511,13.5703,-2.8994,-8.8322,0.5772,0.8354,0.5905,-68.8500,17.7000,7.5000,14.5472,0.6416,-1.6855,1.3488,0.2126,1.7427,-78.0000,22.5000,22.0500,-2.7900,0.8300,-14.3200,-0.5487,-3.0631,0.5531,9.5000,37.5000,47.8750,33.6250,-13.4375,152.7500,0
1776974155.516,15.4737,-3.9169,-4.0175,0.6534,1.0112,0.7392,-68.8500,17.7000,7.5000,17.5471,-0.0503,-3.6990,1.3488,0.2126,1.7427,-77.8500,21.9000,21.1500,-2.7900,0.8300,-14.3200,-0.5487,-3.0631,0.5531,9.5000,37.5000,47.8750,33.6250,-13.4375,152.7500,0
1776974155.521,15.4737,-3.9169,-4.0175,0.6534,1.0112,0.7392,-68.1000,16.9500,7.5000,19.1656,-0.3663,-5.2672,2.4813,0.3022,1.7189,-77.8500,21.9000,21.1500,-6.4200,4.5400,-15.2700,-0.1920,-3.3499,1.1225,16.2500,36.6875,51.0000,33.7500,-15.3750,152.8125,0
1776974155.526,15.2128,-2.9018,2.1117,0.3400,1.3091,0.7946,-68.1000,16.9500,7.5000,19.1656,-0.3663,-5.2672,2.4813,0.3022,1.7189,-77.1000,21.1500,21.4500,-6.4200,4.5400,-15.2700,-0.1920,-3.3499,1.1225,16.2500,36.6875,51.0000,33.7500,-15.3750,152.8125,0
1776974155.531,15.2128,-2.9018,2.1117,0.3400,1.3091,0.7946,-68.1000,16.9500,7.5000,20.0131,0.5315,-4.8411,3.4334,0.6827,1.3358,-77.1000,21.1500,21.4500,-14.8900,-11.4800,-15.5800,-0.0927,-3.2878,1.5293,16.2500,36.6875,51.0000,34.1875,-17.3750,152.8125,0
1776974155.539,14.2623,-0.0024,5.0302,-0.4836,1.4989,0.6726,-68.1000,16.9500,7.5000,20.0131,0.5315,-4.8411,3.4334,0.6827,1.3358,-77.1000,21.1500,21.4500,-16.7900,-15.9300,-12.0800,-0.5520,-2.9082,1.9417,16.2500,36.6875,51.0000,34.8125,-19.3125,153.1875,0
1776974155.544,13.8241,1.5969,3.9002,-0.3946,1.5060,0.6771,-67.5000,16.8000,6.1500,17.9589,1.6089,-4.6926,3.7382,0.8969,0.7011,-77.1000,21.1500,21.4500,-16.7900,-15.9300,-12.0800,-0.5520,-2.9082,1.9417,16.2500,36.6875,51.0000,35.3750,-20.6250,153.7500,0
1776974155.551,13.1968,2.1404,1.7262,-0.3946,1.5060,0.6771,-68.4000,16.2000,8.7000,12.1147,2.2194,-3.7972,3.3217,0.6907,0.1111,-73.8000,21.1500,19.3500,-9.2500,-6.3900,-8.6000,-0.7701,-1.8664,1.4999,16.2500,36.6875,51.0000,35.7500,-21.4375,154.3125,0
1776974155.561,11.6478,3.9648,1.9034,-0.0149,0.9550,0.7589,-68.1000,15.4500,8.7000,8.0469,0.2203,-1.3096,1.6915,1.2681,-0.1431,-74.1000,21.3000,16.6500,-8.8000,0.1800,-13.1400,-0.8159,-1.1366,1.0908,16.2500,36.6875,51.0000,35.7500,-21.4375,154.3125,0
1776974155.566,11.6478,3.9648,1.9034,0.5329,0.4002,0.7605,-68.1000,15.4500,8.7000,8.0469,0.2203,-1.3096,1.6915,1.2681,-0.1431,-72.6000,21.7500,17.7000,-8.8000,0.1800,-13.1400,-0.8159,-1.1366,1.0908,16.2500,36.6875,51.0000,35.7500,-21.4375,154.3125,0
1776974155.571,9.0956,4.2018,1.1301,0.8505,-0.2832,0.7368,-66.9000,13.8000,10.0500,5.9185,-2.5091,1.3647,-0.3299,1.2918,-0.2212,-72.6000,21.7500,17.7000,-5.4800,-3.4900,-9.3200,-0.6512,-0.5727,0.6687,27.6875,35.0625,49.3750,35.9375,-21.8750,154.7500,0
1776974155.576,9.0956,4.2018,1.1301,0.8505,-0.2832,0.7368,-66.9000,13.8000,10.0500,5.9185,-2.5091,1.3647,-0.3299,1.2918,-0.2212,-73.5000,23.4000,18.6000,-5.4800,-3.4900,-9.3200,-0.6512,-0.5727,0.6687,27.6875,35.0625,49.3750,35.9375,-21.8750,154.7500,0
1776974155.581,6.7756,2.3918,0.8811,0.7957,0.1023,0.7272,-68.2500,13.6500,10.3500,5.6479,-4.2713,2.9712,-2.0161,1.2772,-0.2726,-73.5000,23.4000,18.6000,-4.1500,-5.2200,-8.7000,-0.3894,-0.6141,0.4385,27.6875,35.0625,49.3750,36.0625,-22.3125,155.0000,0
1776974155.586,6.7756,2.3918,0.8811,0.7957,0.1023,0.7272,-68.2500,13.6500,10.3500,5.6479,-4.2713,2.9712,-2.0161,1.2772,-0.2726,-73.2000,22.2000,18.3000,-4.1500,-5.2200,-8.7000,-0.2389,-0.5421,0.3371,27.6875,35.0625,49.3750,36.1875,-22.6250,155.1250,0
1776974155.592,6.8977,0.1748,1.2665,0.7328,0.4514,0.7823,-70.0500,14.2500,9.3000,5.6671,-4.7860,4.4556,-2.9681,1.4965,-0.2126,-73.2000,22.2000,18.3000,-5.0200,-3.4200,-9.1200,-0.2389,-0.5421,0.3371,27.6875,35.0625,49.3750,36.2500,-22.8750,155.3125,0
1776974155.601,8.0517,-1.4222,0.2586,0.3659,0.5622,0.7181,-70.0500,14.2500,9.3000,6.3734,-4.8243,4.4365,-3.1333,1.1690,-0.1394,-73.2000,22.2000,18.3000,-3.5300,-4.5000,-8.0800,-0.2618,-0.3152,0.2683,27.6875,35.0625,49.3750,36.2500,-22.8750,155.3125,0
1776974155.611,8.9016,-1.9728,-0.6919,-0.1327,0.7578,0.5806,-67.5000,12.4500,11.4000,5.9951,-4.5250,3.7062,-2.8999,0.5423,0.0693,-73.5000,20.4000,20.7000,-3.4300,-4.1800,-7.9300,-0.2760,-0.3480,0.2683,27.6875,35.0625,49.3750,36.3125,-23.1250,155.5000,0
1776974155.616,8.9016,-1.9728,-0.6919,-0.1327,0.7578,0.5806,-67.5000,12.4500,11.4000,5.9951,-4.5250,3.7062,-2.8999,0.5423,0.0693,-73.6500,21.0000,22.0500,-3.4300,-4.1800,-7.9300,-0.2760,-0.3480,0.2683,27.6875,35.0625,49.3750,36.4375,-23.3125,155.6875,0
1776974155.621,9.2823,-1.3575,-0.9888,-0.4628,0.9662,0.4604,-67.5000,12.4500,11.4000,6.6248,-3.4740,2.5115,-2.5314,0.2625,0.4794,-73.6500,21.0000,22.0500,-3.6900,-3.4300,-8.3300,-0.3033,-0.3414,0.2803,32.1875,33.2500,50.5000,36.4375,-23.3125,155.6875,0
1776974155.626,9.2823,-1.3575,-0.9888,-0.4628,0.9662,0.4604,-67.5000,12.4500,11.4000,6.6248,-3.4740,2.5115,-2.5314,0.2625,0.4794,-72.9000,18.3000,23.1000,-3.6900,-3.4300,-8.3300,-0.3033,-0.3414,0.2803,32.1875,33.2500,50.5000,36.5000,-23.5625,155.9375,0
1776974155.631,9.4739,0.3017,-0.9577,-0.6182,0.9971,0.4237,-68.8500,11.8500,12.7500,7.5489,-1.7909,1.5969,-2.0123,-0.1037,0.9052,-72.9000,18.3000,23.1000,-3.6000,-3.6200,-8.2500,-0.3731,-0.3436,0.2814,32.1875,33.2500,50.5000,36.5000,-23.5625,155.9375,0
1776974155.639,9.4691,2.0351,-0.1867,-0.7738,0.9510,0.4303,-68.8500,11.8500,12.7500,8.8897,0.2227,0.2873,-1.5074,-0.2403,1.1940,-75.1500,15.3000,23.8500,-3.4400,-3.4900,-8.2100,-0.3916,-0.3829,0.2902,32.1875,33.2500,50.5000,36.5625,-23.8125,156.1875,0
1776974155.644,9.4691,2.0351,-0.1867,-0.7738,0.9510,0.4303,-67.3500,11.8500,12.0000,8.8897,0.2227,0.2873,-1.5074,-0.2403,1.1940,-75.1500,15.3000,23.8500,-3.4400,-3.4900,-8.2100,-0.3916,-0.3829,0.2902,32.1875,33.2500,50.5000,36.6250,-24.1250,156.3750,0
1776974155.652,9.6295,3.1484,0.2418,-0.8695,0.8609,0.4748,-68.2500,12.4500,12.1500,10.5656,2.3942,-0.6153,-0.8103,-0.1812,1.2673,-75.1500,15.3000,23.8500,-3.5400,-3.2700,-8.2800,-0.3447,-0.3982,0.3109,32.1875,33.2500,50.5000,36.7500,-24.3750,156.5625,0
1776974155.661,9.6055,3.8116,0.6704,-0.7149,0.7472,0.5545,-68.1000,12.3000,12.7500,11.6861,4.1061,-1.0846,-0.0506,0.0168,1.1021,-75.4500,13.5000,22.8000,-4.1800,-3.6000,-8.3500,-0.3043,-0.3840,0.3207,32.1875,33.2500,50.5000,36.7500,-24.3750,156.5625,0
1776974155.666,9.7276,4.0630,0.4956,-0.7149,0.7472,0.5545,-68.1000,12.3000,12.7500,11.4826,5.4109,-0.9409,0.5073,0.3517,0.7861,-75.0000,11.4000,22.2000,-4.1800,-3.6000,-8.3500,-0.3043,-0.3840,0.3207,32.1875,33.2500,50.5000,36.7500,-24.3750,156.5625,0
1776974155.671,9.7276,4.0630,0.4956,-0.3659,0.6334,0.6177,-68.1000,12.3000,12.7500,11.4826,5.4109,-0.9409,0.5073,0.3517,0.7861,-75.0000,11.4000,22.2000,-4.2400,-3.3200,-8.5100,-0.3174,-0.3262,0.3152,34.0000,31.5000,51.5625,36.8125,-24.6250,156.8125,0
1776974155.676,9.7995,3.8020,0.3687,-0.3659,0.6334,0.6177,-68.1000,12.3000,12.7500,11.0540,6.2991,0.6608,0.9734,0.5947,0.4810,-76.0500,12.1500,22.9500,-4.2400,-3.3200,-8.5100,-0.3174,-0.3262,0.3152,34.0000,31.5000,51.5625,36.8125,-24.6250,156.8125,0
1776974155.681,9.7995,3.8020,0.3687,0.1215,0.5537,0.6230,-68.8500,11.4000,14.2500,11.0540,6.2991,0.6608,0.9734,0.5947,0.4810,-76.0500,12.1500,22.9500,-4.2900,-3.3000,-8.5300,-0.3327,-0.2705,0.2902,34.0000,31.5000,51.5625,36.9375,-24.8125,157.0000,0
1776974155.686,9.8114,2.9137,0.1413,0.1215,0.5537,0.6230,-68.8500,11.4000,14.2500,9.5936,6.1723,2.2553,1.0778,0.8164,0.2697,-75.1500,11.5500,21.3000,-4.2900,-3.3000,-8.5300,-0.3458,-0.2258,0.2705,34.0000,31.5000,51.5625,37.0000,-25.0000,157.2500,0
1776974155.692,9.8114,2.9137,0.1413,0.5420,0.5012,0.6171,-68.8500,11.4000,14.2500,9.5936,6.1723,2.2553,1.0778,0.8164,0.2697,-75.1500,11.5500,21.3000,-4.3800,-3.6500,-8.5500,-0.3458,-0.2258,0.2705,34.0000,31.5000,51.5625,37.0625,-25.1250,157.5000,0
1776974155.701,9.6702,1.9034,-0.1365,0.8463,0.4511,0.6001,-68.4000,11.4000,14.8500,9.4691,5.4899,3.1795,0.8071,0.8793,0.2076,-74.4000,12.3000,22.0500,-4.3600,-3.1800,-8.6500,-0.3534,-0.1833,0.2498,34.0000,31.5000,51.5625,37.0625,-25.1250,157.5000,0
1776974155.711,9.3733,1.1851,0.4214,0.9161,0.4876,0.5740,-68.4000,11.4000,14.8500,8.8202,4.5059,3.6871,0.4237,0.7469,0.2321,-74.4000,12.3000,22.0500,-4.4400,-3.1600,-8.6700,-0.3589,-0.1604,0.2280,34.0000,31.5000,51.5625,37.1250,-25.2500,157.7500,0
1776974155.716,9.2177,0.8308,0.6967,0.7397,0.5979,0.5665,-68.4000,10.6500,13.5000,8.0804,3.2513,3.4381,0.1199,0.7429,0.3142,-75.0000,11.4000,22.9500,-4.4400,-3.1600,-8.6700,-0.3589,-0.1604,0.2280,34.0000,31.5000,51.5625,37.1250,-25.2500,157.7500,0
1776974155.720,9.2177,0.8308,0.6967,0.7397,0.5979,0.5665,-68.4000,10.6500,13.5000,8.0804,3.2513,3.4381,0.1199,0.7429,0.3142,-75.0000,11.4000,22.9500,-4.2900,-3.2000,-8.5100,-0.3774,-0.1244,0.2040,36.8750,31.0625,50.7500,37.1875,-25.3750,158.0000,0
1776974155.725,9.3757,0.4884,0.8499,0.4746,0.6448,0.5577,-68.8500,11.1000,13.0500,8.7317,2.4708,2.3870,0.0133,0.7938,0.4277,-75.1500,13.0500,24.9000,-4.2900,-3.2000,-8.5100,-0.3774,-0.1244,0.2040,36.8750,31.0625,50.7500,37.1875,-25.3750,158.0000,0
1776974155.730,9.3757,0.4884,0.8499,0.4746,0.6448,0.5577,-68.8500,11.1000,13.0500,8.7317,2.4708,2.3870,0.0133,0.7938,0.4277,-75.1500,13.0500,24.9000,-4.3300,-3.1200,-8.4700,-0.3731,-0.1124,0.1833,36.8750,31.0625,50.7500,37.2500,-25.4375,158.2500,0
1776974155.735,9.3805,0.8452,0.8116,0.1609,0.7338,0.5809,-68.8500,10.6500,14.2500,7.5729,1.7238,2.0159,0.2470,0.5774,0.4871,-75.1500,14.2500,25.6500,-4.3300,-3.1200,-8.4700,-0.3512,-0.0862,0.1647,36.8750,31.0625,50.7500,37.3125,-25.5625,158.4375,0
1776974155.742,9.3805,0.8452,0.8116,0.1609,0.7338,0.5809,-69.1500,9.9000,14.5500,7.5729,1.7238,2.0159,0.2470,0.5774,0.4871,-75.4500,15.3000,25.9500,-4.0700,-3.3000,-8.3000,-0.3512,-0.0862,0.1647,36.8750,31.0625,50.7500,37.3125,-25.6250,158.6875,0
1776974155.751,9.3757,1.4126,0.6321,-0.1340,0.7301,0.5945,-69.1500,9.9000,14.5500,9.8138,1.3886,1.3862,0.5780,0.5228,0.5015,-75.4500,15.3000,25.9500,-4.0300,-3.3200,-8.2700,-0.3447,-0.0796,0.1625,36.8750,31.0625,50.7500,37.3125,-25.6250,158.6875,0
1776974155.761,9.7085,2.1141,0.4717,-0.3128,0.7280,0.6187,-67.6500,9.9000,13.5000,8.7412,1.2641,1.8579,0.8855,0.7461,0.4978,-75.4500,15.3000,25.9500,-4.0100,-3.2700,-8.3200,-0.3491,-0.0720,0.1658,36.8750,31.0625,50.7500,37.3750,-25.6875,158.9375,0
1776974155.766,9.6486,2.6911,0.3472,-0.3144,0.6171,0.6286,-67.6500,9.9000,13.5000,9.1626,1.5060,1.6065,0.9196,0.8452,0.5300,-76.0500,16.9500,27.6000,-4.0100,-3.2700,-8.3200,-0.3491,-0.0720,0.1658,36.8750,31.0625,50.7500,37.3750,-25.7500,159.1250,0
1776974155.771,9.6486,2.6911,0.3472,-0.3144,0.6171,0.6286,-67.6500,9.9000,13.5000,9.1626,1.5060,1.6065,0.9196,0.8452,0.5300,-76.8000,16.6500,27.6000,-4.1000,-3.1800,-8.3700,-0.3523,-0.0742,0.1658,36.8750,28.8750,49.5000,37.3750,-25.7500,159.1250,0
1776974155.776,9.5098,2.7869,0.1748,-0.2747,0.5113,0.6678,-70.0500,9.1500,14.5500,9.6199,1.6376,1.0367,0.8466,0.8138,0.5388,-76.8000,16.6500,28.2000,-4.1000,-3.1800,-8.3700,-0.3523,-0.0742,0.1658,36.8750,28.8750,49.5000,37.4375,-25.8125,159.3750,0
1776974155.781,9.5098,2.7869,0.1748,-0.2747,0.5113,0.6678,-70.0500,9.1500,14.5500,9.6199,1.6376,1.0367,0.8466,0.8138,0.5388,-76.9500,18.3000,27.7500,-4.1100,-3.0600,-8.3600,-0.3578,-0.0753,0.1636,36.8750,28.8750,49.5000,37.4375,-25.8125,159.3750,0
1776974155.786,9.2273,2.6264,0.1987,-0.2033,0.5271,0.7208,-68.7000,8.5500,15.1500,9.4667,1.4868,0.7973,0.6707,0.7967,0.4810,-76.9500,18.3000,27.7500,-4.1100,-3.0600,-8.3600,-0.3752,-0.0742,0.1604,36.8750,28.8750,49.5000,37.4375,-25.8750,159.6250,0
1776974155.792,9.1530,2.5355,-0.0599,0.0003,0.5454,0.7605,-69.1500,10.6500,16.0500,9.5960,1.4629,0.5818,0.5108,0.7738,0.4607,-76.0500,18.9000,28.2000,-4.0900,-3.0500,-8.4100,-0.3752,-0.0742,0.1604,36.8750,28.8750,49.5000,37.5000,-25.9375,159.8750,0
1776974155.801,9.0956,2.1883,0.2179,0.0003,0.5454,0.7605,-69.1500,10.6500,16.0500,9.6702,1.1468,0.9290,0.5036,0.8005,0.3874,-75.6000,16.6500,28.2000,-4.3000,-2.7200,-8.5700,-0.3862,-0.0764,0.1560,36.8750,28.8750,49.5000,37.5000,-25.9375,159.8750,0
1776974155.811,9.3398,1.9130,0.5387,0.2811,0.6115,0.7938,-69.6000,7.9500,16.0500,9.4523,0.9864,0.8691,0.5276,0.9385,0.3307,-75.6000,16.6500,28.2000,-4.2700,-2.7400,-8.5700,-0.3589,-0.0644,0.1320,36.8750,28.8750,49.5000,37.5000,-26.0000,160.0625,0
1776974155.816,9.3398,1.9130,0.5387,0.2811,0.6115,0.7938,-69.4500,9.3000,16.2000,9.4523,0.9864,0.8691,0.5276,0.9385,0.3307,-75.6000,16.6500,28.2000,-4.2700,-2.7400,-8.5700,-0.3589,-0.0644,0.1320,36.8750,28.8750,49.5000,37.5000,-26.0000,160.0625,0
1776974155.821,9.5217,1.6664,0.8068,0.3070,0.6257,0.7863,-69.4500,9.3000,16.2000,9.4619,1.0750,0.4477,0.5100,0.9244,0.3118,-77.7000,16.8000,26.2500,-4.1500,-2.7600,-8.5200,-0.3283,-0.0600,0.1124,37.6875,28.5000,51.5000,37.5000,-26.0625,160.3125,0
1776974155.826,9.5217,1.6664,0.8068,0.3070,0.6257,0.7863,-69.4500,7.8000,16.2000,9.4619,1.0750,0.4477,0.5100,0.9244,0.3118,-77.7000,16.8000,26.2500,-4.1500,-2.7600,-8.5200,-0.3283,-0.0600,0.1124,37.6875,28.5000,51.5000,37.5000,-26.0625,160.3125,0
1776974155.831,9.5744,1.5826,0.8859,0.2838,0.6275,0.7773,-69.4500,7.8000,16.2000,9.5313,1.1325,0.1604,0.2481,0.7877,0.3325,-76.6500,15.7500,27.7500,-3.9600,-3.0000,-8.3900,-0.3185,-0.0622,0.1080,37.6875,28.5000,51.5000,37.5625,-26.1250,160.5000,0
1776974155.839,9.5744,1.5826,0.8859,0.2838,0.6275,0.7773,-69.4500,7.8000,16.2000,9.5313,1.1325,0.1604,0.2481,0.7877,0.3325,-76.6500,15.7500,27.7500,-3.9000,-3.0300,-8.4000,-0.3163,-0.0622,0.1113,37.6875,28.5000,51.5000,37.5625,-26.1875,160.6875,0
1776974155.844,9.7205,0.9840,0.9888,0.2902,0.5838,0.7565,-71.1000,7.5000,16.0500,9.4164,0.8499,0.0192,0.0123,0.6126,0.3360,-75.0000,15.1500,27.1500,-3.9000,-3.0300,-8.4000,-0.3163,-0.0622,0.1113,37.6875,28.5000,51.5000,37.5625,-26.2500,160.8750,0
1776974155.852,9.6079,0.3304,1.2498,0.2705,0.5201,0.7357,-71.1000,7.5000,16.0500,9.2488,0.7063,0.1772,-0.1239,0.5329,0.3467,-76.8000,14.7000,28.2000,-4.0600,-2.8900,-8.3900,-0.3087,-0.0774,0.1276,37.6875,28.5000,51.5000,37.5625,-26.2500,160.8750,0
1776974155.859,9.4116,-0.0359,1.5060,0.2705,0.5201,0.7357,-71.1000,7.5000,16.0500,9.2488,0.7063,0.1772,-0.2001,0.6027,0.3624,-76.8000,14.7000,28.2000,-4.3300,-2.7300,-8.5100,-0.2978,-0.0927,0.1374,37.6875,28.5000,51.5000,37.6250,-26.3125,161.0625,0
1776974155.864,9.4116,-0.0359,1.5060,0.1889,0.4668,0.7349,-68.8500,8.4000,17.8500,9.1435,0.4070,0.5339,-0.2001,0.6027,0.3624,-76.8000,14.7000,28.2000,-4.3300,-2.7300,-8.5100,-0.2978,-0.0927,0.1374,37.6875,28.5000,51.5000,37.6250,-26.3125,161.0625,0
1776974155.869,9.4954,-0.2155,1.1732,0.1889,0.4668,0.7349,-68.8500,8.4000,17.8500,9.1435,0.4070,0.5339,-0.2241,0.7554,0.3619,-76.8000,14.7000,28.2000,-4.5100,-2.5600,-8.3100,-0.2705,-0.0840,0.1342,38.0000,27.0000,51.5000,37.6250,-26.3750,161.2500,0
1776974155.873,9.4954,-0.2155,1.1732,-0.0139,0.5084,0.7397,-68.8500,6.4500,16.3500,9.0525,0.1628,1.1205,-0.2241,0.7554,0.3619,-74.2500,12.9000,25.3500,-4.5100,-2.5600,-8.3100,-0.2705,-0.0840,0.1342,38.0000,27.0000,51.5000,37.6250,-26.3750,161.2500,0
1776974155.878,9.7564,0.0527,0.6105,-0.0139,0.5084,0.7397,-68.8500,6.4500,16.3500,9.0525,0.1628,1.1205,-0.2411,0.8255,0.3576,-74.2500,12.9000,25.3500,-4.3500,-2.6200,-8.5800,-0.2956,-0.1222,0.1254,38.0000,27.0000,51.5000,37.6250,-26.4375,161.4375,0
1776974155.883,9.7564,0.0527,0.6105,-0.1071,0.4533,0.7402,-68.8500,7.5000,17.1000,9.2823,0.1245,1.4892,-0.2411,0.8255,0.3576,-74.2500,12.1500,26.1000,-4.3500,-2.6200,-8.5800,-0.2956,-0.1222,0.1254,38.0000,27.0000,51.5000,37.6250,-26.4375,161.4375,0
1776974155.890,9.6869,0.1772,0.5076,-0.1721,0.4823,0.7408,-68.8500,7.5000,17.1000,9.3805,0.0239,1.8723,-0.2097,0.7722,0.3555,-75.0000,11.4000,26.8500,-4.2600,-2.5600,-8.5700,-0.2465,-0.0731,0.1124,38.0000,27.0000,51.5000,37.6875,-26.5000,161.6250,0
1776974155.895,9.6869,0.1772,0.5076,-0.1721,0.4823,0.7408,-70.2000,7.3500,17.7000,9.3805,0.0239,1.8723,-0.2097,0.7722,0.3555,-75.0000,11.4000,26.8500,-4.2600,-2.5600,-8.5700,-0.2465,-0.0731,0.1124,38.0000,27.0000,51.5000,37.6875,-26.5000,161.7500,0
1776974155.902,9.7013,0.4142,0.7183,-0.1916,0.4375,0.7341,-70.2000,7.3500,17.7000,9.4403,0.2346,2.2769,-0.1993,0.6933,0.3805,-74.1000,12.0000,26.2500,-4.2600,-2.5200,-8.5100,-0.2083,-0.0087,0.0993,38.0000,27.0000,51.5000,37.7500,-26.5625,161.8750,0
1776974155.912,9.6199,0.3831,0.7278,-0.2244,0.3968,0.7032,-70.2000,7.3500,17.7000,9.3111,0.4597,2.6983,-0.0762,0.6480,0.3968,-73.3500,9.3000,26.2500,-4.1300,-2.6800,-8.4500,-0.1854,-0.0284,0.0884,38.0000,27.0000,51.5000,37.7500,-26.5625,161.8750,0
1776974155.917,9.6702,0.3208,1.1803,-0.2244,0.3968,0.7032,-69.6000,6.4500,17.8500,9.3111,0.4597,2.6983,-0.0762,0.6480,0.3968,-73.3500,9.3000,26.2500,-4.1300,-2.6800,-8.4500,-0.1854,-0.0284,0.0884,38.0000,27.0000,51.5000,37.7500,-26.5625,162.0000,0
1776974155.922,9.6702,0.3208,1.1803,-0.1833,0.4439,0.6987,-69.6000,6.4500,17.8500,9.3996,0.7446,2.9544,0.0469,0.6920,0.4178,-73.3500,9.3000,26.2500,-4.1600,-2.6200,-8.5100,-0.2029,-0.0327,0.0905,39.0000,26.0000,51.0625,37.7500,-26.5625,162.0000,0
1776974155.927,9.8186,0.3519,1.2258,-0.1026,0.4213,0.6877,-69.6000,6.4500,17.8500,9.3996,0.7446,2.9544,0.2430,0.6435,0.4423,-73.3500,9.3000,26.2500,-4.1600,-2.6200,-8.5100,-0.2029,-0.0327,0.0905,39.0000,26.0000,51.0625,37.7500,-26.6250,162.1250,0
1776974155.932,9.8186,0.3519,1.2258,-0.1026,0.4213,0.6877,-69.6000,6.4500,17.8500,9.0884,1.1085,3.0526,0.2430,0.6435,0.4423,-72.4500,11.7000,25.8000,-4.1200,-2.6800,-8.5600,-0.1942,-0.0524,0.0927,39.0000,26.0000,51.0625,37.7500,-26.6250,162.1250,0
1776974155.937,9.7085,-0.0407,1.4557,0.0378,0.3920,0.6747,-68.7000,4.6500,17.7000,8.9830,1.3479,3.0239,0.2382,0.6251,0.4722,-72.4500,11.7000,25.8000,-4.1200,-2.6800,-8.5600,-0.1778,-0.0676,0.0993,39.0000,26.0000,51.0625,37.8125,-26.6250,162.2500,0
1776974155.943,9.7085,-0.0407,1.4557,0.0378,0.3920,0.6747,-68.7000,4.6500,17.7000,8.9830,1.3479,3.0239,0.2382,0.6251,0.4722,-72.4500,9.4500,27.1500,-4.3200,-2.6000,-8.5500,-0.1778,-0.0676,0.0993,39.0000,26.0000,51.0625,37.8125,-26.6250,162.2500,0
1776974155.951,9.4858,-0.5435,1.7286,0.0743,0.3882,0.6773,-68.4000,6.0000,18.6000,8.6814,1.5036,2.7102,0.1681,0.6262,0.5015,-70.6500,10.2000,26.1000,-4.3900,-2.4500,-8.5700,-0.1473,-0.0644,0.0993,39.0000,26.0000,51.0625,37.8125,-26.6875,162.3750,0
1776974155.956,9.4595,-0.5890,1.3575,0.0757,0.3837,0.6821,-68.8500,6.0000,18.6000,8.7364,1.4413,2.4062,0.0669,0.6534,0.5428,-70.6500,10.2000,26.1000,-4.3900,-2.4500,-8.5700,-0.1353,-0.0524,0.0884,39.0000,26.0000,51.0625,37.8750,-26.7500,162.5000,0
1776974155.963,9.4595,-0.5890,1.3575,0.0757,0.3837,0.6821,-68.8500,6.0000,18.6000,8.7364,1.4413,2.4062,0.0669,0.6534,0.5428,-72.1500,9.3000,27.7500,-4.3900,-2.5100,-8.5000,-0.1353,-0.0524,0.0884,39.0000,26.0000,51.0625,37.8750,-26.7500,162.5000,0
1776974155.967,9.3996,-0.6560,1.0271,0.0773,0.3842,0.6787,-69.4500,4.6500,19.9500,8.9376,1.1564,1.9752,-0.0288,0.7282,0.5713,-72.1500,9.3000,27.7500,-4.3900,-2.5100,-8.5000,-0.1353,-0.0524,0.0884,39.3750,25.1875,52.2500,37.8750,-26.7500,162.5625,0
1776974155.973,9.3996,-0.6560,1.0271,0.0773,0.3842,0.6787,-69.4500,4.6500,19.9500,8.9376,1.1564,1.9752,-0.0288,0.7282,0.5713,-72.1500,9.3000,27.7500,-4.4400,-2.4000,-8.4600,-0.1374,-0.0425,0.0764,39.3750,25.1875,52.2500,37.8750,-26.7500,162.5625,0
1776974155.977,9.3685,-0.5842,1.0271,0.0320,0.4090,0.6736,-70.2000,4.6500,18.0000,8.6407,0.8260,1.6281,-0.0711,0.7999,0.6051,-72.1500,9.3000,27.7500,-4.4400,-2.4000,-8.4600,-0.1374,-0.0425,0.0764,39.3750,25.1875,52.2500,37.8750,-26.8125,162.6875,0
1776974155.983,9.3685,-0.5842,1.0271,0.0320,0.4090,0.6736,-70.2000,4.6500,18.0000,8.6407,0.8260,1.6281,-0.0711,0.7999,0.6051,-72.0000,10.2000,28.6500,-4.3400,-2.4300,-8.4500,-0.1505,-0.0273,0.0665,39.3750,25.1875,52.2500,37.8750,-26.8125,162.6875,0
1776974155.987,9.5529,-0.4908,1.2785,-0.0325,0.4599,0.6776,-69.6000,4.5000,19.3500,9.5457,0.7063,1.2354,-0.0325,0.8234,0.6475,-72.0000,10.2000,28.6500,-4.3400,-2.4300,-8.4500,-0.1549,-0.0153,0.0556,39.3750,25.1875,52.2500,37.8750,-26.8125,162.8125,0
1776974155.993,9.5529,-0.4908,1.2785,-0.0325,0.4599,0.6776,-69.6000,4.5000,19.3500,9.5457,0.7063,1.2354,-0.0325,0.8234,0.6475,-73.2000,8.7000,27.9000,-4.3100,-2.4300,-8.5400,-0.1549,-0.0153,0.0556,39.3750,25.1875,52.2500,37.8750,-26.8125,162.8125,0
1776974156.002,9.9431,0.1125,1.4341,-0.0592,0.4533,0.6941,-69.6000,4.5000,19.3500,9.6486,0.5986,1.1851,0.0711,0.8098,0.6643,-72.4500,10.9500,28.2000,-4.2000,-2.5100,-8.5500,-0.1429,-0.0153,0.0491,39.3750,25.1875,52.2500,37.8750,-26.8125,162.8750,0
1776974156.007,9.9024,0.3208,1.2833,-0.0671,0.4495,0.7000,-68.2500,4.2000,18.7500,9.8402,0.5746,1.2665,0.1442,0.6781,0.6672,-72.4500,10.9500,28.2000,-4.2000,-2.5100,-8.5500,-0.1145,-0.0120,0.0491,39.3750,25.1875,52.2500,37.9375,-26.8125,163.0000,0
1776974156.013,9.3541,0.4142,1.5562,-0.0671,0.4495,0.7000,-68.2500,4.2000,18.7500,9.8402,0.5746,1.2665,0.1442,0.6781,0.6672,-71.2500,10.2000,27.6000,-4.2300,-2.5100,-8.5700,-0.1145,-0.0120,0.0491,39.3750,25.1875,52.2500,37.9375,-26.8125,163.0000,0
1776974156.018,9.3541,0.4142,1.5562,-0.0136,0.5057,0.7115,-68.4000,4.0500,21.6000,10.3070,0.5890,1.2426,0.2366,0.1252,0.6387,-71.2500,10.2000,27.6000,-4.2300,-2.5100,-8.5700,-0.1113,-0.0240,0.0524,38.5625,24.7500,52.2500,37.9375,-26.8125,163.0625,0
1776974156.023,8.7580,0.3926,1.3048,0.0357,0.7914,0.7695,-68.4000,4.0500,21.6000,10.3070,0.5890,1.2426,0.2366,0.1252,0.6387,-71.2500,10.2000,27.6000,-4.2400,-2.5100,-8.5700,-0.1113,-0.0240,0.0524,38.5625,24.7500,52.2500,37.9375,-26.8125,163.0625,0
1776974156.028,8.7580,0.3926,1.3048,0.0357,0.7914,0.7695,-70.2000,1.9500,20.2500,6.7516,0.6632,2.3703,0.2497,-0.5977,0.6123,-71.2500,10.2000,27.6000,-4.2400,-2.5100,-8.5700,-0.1004,-0.0371,0.0480,38.5625,24.7500,52.2500,37.9375,-26.8125,163.1250,0
1776974156.033,10.8457,0.1101,1.0343,-0.0839,0.4040,0.7402,-70.2000,1.9500,20.2500,6.7516,0.6632,2.3703,0.2497,-0.5977,0.6123,-71.2500,10.2000,27.6000,-4.2500,-2.4600,-8.5900,-0.1004,-0.0371,0.0480,38.5625,24.7500,52.2500,37.9375,-26.8125,163.1250,0
1776974156.038,10.8457,0.1101,1.0343,-0.0839,0.4040,0.7402,-67.2000,3.0000,19.5000,9.4164,0.9553,1.9656,0.0141,1.1386,0.5758,-72.7500,8.7000,28.2000,-4.2500,-2.4600,-8.5900,-0.0862,-0.0480,0.0382,38.5625,24.7500,52.2500,37.9375,-26.8750,163.1875,0
1776974156.043,9.9742,1.0822,0.3424,-0.1410,0.3179,0.7597,-67.2000,3.0000,19.5000,9.4164,0.9553,1.9656,-0.0456,0.5897,0.5732,-72.7500,8.7000,28.2000,-4.2500,-2.5000,-8.5500,-0.0862,-0.0480,0.0382,38.5625,24.7500,52.2500,37.9375,-26.8750,163.1875,0
1776974156.052,9.1411,1.7262,0.4094,-0.0525,0.3627,0.8250,-69.7500,2.7000,21.0000,9.7037,1.1372,1.6903,-0.0456,0.5897,0.5732,-73.2000,8.7000,30.7500,-4.2400,-2.4700,-8.5800,-0.0665,-0.0447,0.0371,38.5625,24.7500,52.2500,37.9375,-26.8750,163.2500,0
1776974156.057,9.1411,1.7262,0.4094,-0.0525,0.3627,0.8250,-70.2000,1.5000,21.0000,9.3565,1.6065,1.6065,0.0320,0.6374,0.5460,-73.3500,9.7500,29.1000,-4.2400,-2.4700,-8.5800,-0.0371,-0.0425,0.0415,38.5625,24.7500,52.2500,37.9375,-26.8750,163.2500,0
1776974156.063,8.9232,2.0279,0.0718,-0.0133,0.4375,0.8972,-70.2000,1.5000,21.0000,9.3541,2.0590,1.1181,0.0554,0.5652,0.5105,-73.3500,9.7500,29.1000,-4.2300,-2.4500,-8.6200,-0.0371,-0.0425,0.0415,38.5625,24.7500,52.2500,37.9375,-26.8750,163.2500,0
1776974156.068,8.9232,2.0279,0.0718,-0.0133,0.4375,0.8972,-70.2000,1.5000,21.0000,9.3541,2.0590,1.1181,0.0554,0.5652,0.5105,-71.8500,8.5500,30.9000,-4.3100,-2.3700,-8.5900,-0.0196,-0.0491,0.0458,39.3750,24.7500,52.5000,38.0000,-26.9375,163.3125,0
1776974156.073,8.8729,2.1213,0.3232,0.0045,0.5233,0.9619,-70.2000,1.5000,21.0000,9.7300,2.3200,0.4070,0.0293,0.5167,0.4607,-71.8500,8.5500,30.9000,-4.3100,-2.3700,-8.5900,-0.0196,-0.0491,0.0458,39.3750,24.7500,52.5000,38.0000,-26.9375,163.3125,0
1776974156.078,8.8729,2.1213,0.3232,0.0045,0.5233,0.9619,-68.4000,0.9000,21.6000,9.7300,2.3200,0.4070,0.0293,0.5167,0.4607,-71.8500,8.5500,30.9000,-4.3100,-2.3700,-8.5900,-0.0153,-0.0524,0.0447,39.3750,24.7500,52.5000,38.0000,-26.9375,163.3125,0
1776974156.083,8.9902,2.3679,0.6967,-0.0117,0.6390,1.0187,-68.4000,0.9000,21.6000,9.6822,2.7198,0.2083,0.0501,0.3163,0.3736,-71.8500,8.5500,30.9000,-4.3000,-2.3500,-8.6300,-0.0153,-0.0524,0.0447,39.3750,24.7500,52.5000,38.0000,-26.9375,163.3125,0
1776974156.088,8.9902,2.3679,0.6967,-0.0117,0.6390,1.0187,-68.4000,0.9000,21.6000,9.6822,2.7198,0.2083,0.0501,0.3163,0.3736,-72.9000,8.5500,31.6500,-4.3000,-2.3500,-8.6300,-0.0055,-0.0338,0.0425,39.3750,24.7500,52.5000,38.0000,-26.9375,163.3125,0
1776974156.093,9.3733,1.9441,0.5363,-0.0546,0.7163,1.1088,-68.4000,0.9000,21.6000,9.9503,2.8730,0.4405,-0.0075,0.1047,0.2611,-72.9000,8.5500,31.6500,-4.2800,-2.3900,-8.6300,-0.0055,-0.0338,0.0425,39.3750,24.7500,52.5000,38.0625,-26.9375,163.3750,0
1776974156.102,9.3302,1.2067,1.5012,-0.0378,0.8607,1.2001,-69.1500,0.1500,22.3500,9.1626,2.4014,1.0582,-0.0858,-0.1860,0.1615,-73.5000,7.6500,31.0500,-4.1200,-2.6500,-8.4900,0.0022,-0.0295,0.0447,39.3750,24.7500,52.5000,38.0625,-26.9375,163.3750,0
1776974156.108,10.3980,0.6416,1.7358,-0.0378,0.8607,1.2001,-69.6000,-0.4500,22.6500,9.1626,2.4014,1.0582,-0.0858,-0.1860,0.1615,-72.9000,8.2500,30.1500,-4.1400,-2.7300,-8.5600,-0.0251,-0.0251,0.0578,39.3750,24.7500,52.5000,38.0625,-26.9375,163.3750,0
1776974156.113,10.3980,0.6416,1.7358,-0.1159,0.8330,1.2465,-69.6000,-0.4500,22.6500,9.3374,2.2003,1.7980,-0.4453,0.2976,0.0618,-72.9000,8.2500,30.1500,-4.1400,-2.7300,-8.5600,-0.0251,-0.0251,0.0578,39.3750,24.7500,52.5000,38.0625,-26.9375,163.3750,0
1776974156.118,10.6925,0.1221,1.7382,-0.1159,0.8330,1.2465,-68.1000,-0.1500,23.1000,9.3374,2.2003,1.7980,-0.4453,0.2976,0.0618,-72.1500,8.5500,31.6500,-4.1400,-2.7300,-8.5600,-0.0251,-0.0251,0.0578,40.5000,25.1875,52.1875,38.0625,-26.9375,163.4375,0
1776974156.123,10.6925,0.1221,1.7382,-0.1367,0.6630,1.2806,-68.1000,-0.1500,23.1000,9.9527,1.7693,2.2194,-0.5854,0.3624,-0.0290,-72.1500,8.5500,31.6500,-3.9700,-2.6500,-8.8300,-0.0513,-0.0327,0.0720,40.5000,25.1875,52.1875,38.0625,-26.9375,163.4375,0
1776974156.128,10.0700,-0.2298,1.9992,-0.1367,0.6630,1.2806,-68.2500,-1.0500,22.9500,9.9527,1.7693,2.2194,-0.5854,0.3624,-0.0290,-72.1500,8.5500,31.6500,-3.9700,-2.6500,-8.8300,-0.0513,-0.0327,0.0720,40.5000,25.1875,52.1875,38.1250,-26.9375,163.4375,0
1776974156.133,10.0700,-0.2298,1.9992,-0.0831,0.6502,1.3496,-68.2500,-1.0500,22.9500,10.9535,1.0798,2.4684,-0.6331,0.0773,-0.1047,-72.1500,8.5500,31.6500,-4.1900,-2.4300,-8.7800,-0.0502,-0.0698,0.0753,40.5000,25.1875,52.1875,38.1250,-26.9375,163.4375,0
1776974156.138,9.5170,-0.2849,1.8292,-0.1506,0.8068,1.4261,-68.2500,-1.0500,22.9500,10.9535,1.0798,2.4684,-0.6331,0.0773,-0.1047,-72.1500,8.5500,31.6500,-4.1900,-2.4300,-8.7800,-0.0382,-0.1200,0.0567,40.5000,25.1875,52.1875,38.1250,-27.0000,163.5000,0
1776974156.143,9.5170,-0.2849,1.8292,-0.1506,0.8068,1.4261,-68.2500,-1.0500,22.9500,9.2799,0.4717,3.4093,-0.6177,-0.3166,-0.1511,-72.1500,8.5500,31.6500,-3.9600,-2.0500,-9.2700,-0.0382,-0.1200,0.0567,40.5000,25.1875,52.1875,38.1250,-27.1250,163.5000,0
1776974156.152,10.6422,-0.0958,1.3120,-0.2430,0.7157,1.4807,-67.5000,-0.7500,22.9500,9.8952,0.2155,3.3543,-0.6406,0.1982,-0.1961,-75.3000,8.7000,31.8000,-3.5100,-2.0600,-9.8200,0.0185,-0.1822,0.0513,40.5000,25.1875,52.1875,38.1250,-27.1250,163.5000,0
1776974156.162,10.6015,0.0072,0.9768,-0.3488,0.6297,1.5250,-67.5000,-0.7500,22.9500,9.7923,0.6009,2.6719,-0.4991,-0.1029,-0.2294,-75.1500,8.2500,30.1500,-4.2200,-2.5000,-9.1600,0.1680,-0.2880,0.0884,40.5000,25.1875,52.1875,38.1875,-27.3125,163.3750,0
1776974156.167,10.2208,-0.1628,0.6201,-0.3709,0.6704,1.5886,-67.9500,-2.2500,25.8000,9.7923,0.6009,2.6719,-0.4991,-0.1029,-0.2294,-74.5500,9.1500,31.5000,-4.2200,-2.5000,-9.1600,0.1680,-0.2880,0.0884,40.5000,25.1875,52.1875,38.2500,-27.5000,163.2500,0
1776974156.172,10.2208,-0.1628,0.6201,-0.3709,0.6704,1.5886,-67.9500,-2.2500,25.8000,10.3118,1.4317,2.1596,-0.3451,0.2201,-0.2923,-74.5500,9.1500,31.5000,-3.6800,-2.6200,-9.5100,0.2302,-0.3578,0.1004,40.0625,24.5000,51.3750,38.2500,-27.5000,163.2500,0
1776974156.177,10.5489,0.1389,1.3479,-0.4719,0.7815,1.7035,-67.9500,-2.7000,26.2500,10.3118,1.4317,2.1596,-0.3451,0.2201,-0.2923,-75.9000,9.3000,30.6000,-3.6800,-2.6200,-9.5100,0.2302,-0.3578,0.1004,40.0625,24.5000,51.3750,38.3125,-27.7500,163.1250,0
1776974156.182,10.5489,0.1389,1.3479,-0.4719,0.7815,1.7035,-67.9500,-2.7000,26.2500,10.2663,2.4110,1.9058,-0.3080,0.0301,-0.3653,-75.9000,9.3000,30.6000,-3.6400,-2.6900,-9.6200,0.2727,-0.4691,0.1124,40.0625,24.5000,51.3750,38.3125,-27.7500,163.1250,0
1776974156.187,11.4060,1.3096,1.5323,-0.5209,0.8756,1.8474,-67.3500,-3.3000,24.9000,10.2663,2.4110,1.9058,-0.3080,0.0301,-0.3653,-75.9000,9.3000,30.6000,-3.6400,-2.6900,-9.6200,0.3185,-0.6196,0.1549,40.0625,24.5000,51.3750,38.3750,-28.1250,162.9375,0
1776974156.193,11.4060,1.3096,1.5323,-0.5209,0.8756,1.8474,-67.3500,-3.3000,24.9000,11.1474,3.5650,1.3958,-0.2633,-0.1021,-0.4783,-75.9000,9.3000,30.6000,-3.5300,-2.6300,-9.9400,0.3185,-0.6196,0.1549,40.0625,24.5000,51.3750,38.5000,-28.5625,162.6875,0
1776974156.202,13.0771,1.5347,0.8045,-0.5889,0.9401,2.0107,-66.6000,-5.2500,24.9000,11.3270,4.7836,1.1013,-0.3062,-0.4194,-0.6006,-74.2500,8.4000,31.0500,-3.0200,-3.5900,-10.5900,0.3600,-0.8268,0.2062,40.0625,24.5000,51.3750,38.5000,-28.5625,162.6875,0
1776974156.212,14.3413,1.4389,1.0223,-0.6523,1.0320,2.1623,-66.3000,-4.2000,28.0500,11.4395,5.7461,0.8140,-0.3904,-0.5668,-0.7088,-72.9000,8.5500,31.9500,-2.8700,-3.5900,-10.6600,0.3883,-1.0723,0.2607,40.0625,24.5000,51.3750,38.6250,-29.1875,162.4375,0
1776974156.217,15.5144,1.9225,0.6488,-0.7186,1.0272,2.3670,-66.9000,-5.5500,26.7000,11.7124,6.8235,0.3807,-0.2769,-0.8601,-0.8332,-75.0000,9.1500,31.5000,-2.8700,-3.5900,-10.6600,0.3883,-1.0723,0.2607,40.0625,24.5000,51.3750,38.6250,-29.1875,162.4375,0
1776974156.222,15.5144,1.9225,0.6488,-0.7186,1.0272,2.3670,-66.9000,-5.5500,26.7000,11.7124,6.8235,0.3807,-0.2769,-0.8601,-0.8332,-75.0000,9.1500,31.5000,-2.9200,-3.9900,-11.1800,0.4025,-1.4137,0.3632,40.5000,24.5000,52.1875,38.7500,-30.0000,162.1875,0
1776974156.227,16.4745,2.6600,-0.0359,-0.7293,0.9646,2.5969,-66.9000,-5.5500,26.7000,11.6358,7.4412,-0.0551,0.0037,-1.0736,-0.9950,-76.0500,8.7000,33.3000,-2.9200,-3.9900,-11.1800,0.4025,-1.4137,0.3632,40.5000,24.5000,52.1875,38.7500,-30.0000,162.1875,0
1776974156.232,16.4745,2.6600,-0.0359,-0.7293,0.9646,2.5969,-66.9000,-5.5500,26.7000,11.6358,7.4412,-0.0551,0.0037,-1.0736,-0.9950,-76.0500,8.7000,33.3000,-2.2100,-2.7500,-12.2000,0.3807,-1.9155,0.5432,40.5000,24.5000,52.1875,39.0000,-31.1250,162.0000,0
1776974156.240,16.8169,3.3710,-2.4995,-0.6059,0.8482,2.7992,-66.3000,-9.0000,27.7500,11.7507,6.7588,-0.4980,0.4908,-1.3166,-1.1588,-76.0500,8.7000,33.3000,-2.2300,-2.9200,-11.9800,0.3742,-2.4958,0.7341,40.5000,24.5000,52.1875,39.2500,-32.5625,161.7500,0
1776974156.245,16.1944,2.6408,-6.0142,-0.6550,0.6422,2.8567,-66.3000,-9.0000,27.7500,11.7507,6.7588,-0.4980,0.4908,-1.3166,-1.1588,-77.1000,11.4000,30.7500,-2.2300,-2.9200,-11.9800,0.3742,-2.4958,0.7341,40.5000,24.5000,52.1875,39.6250,-34.3125,161.5000,0
1776974156.253,13.8720,1.6616,-6.0669,-0.6550,0.6422,2.8567,-63.4500,-8.4000,28.6500,11.7579,5.9711,1.0104,0.9622,-1.2367,-1.2886,-77.1000,11.4000,30.7500,-1.3300,-4.6200,-12.5200,0.4560,-2.9976,0.9774,40.5000,24.5000,52.1875,40.1250,-36.3750,161.3125,0
1776974156.263,11.8321,1.6424,-2.1213,-0.8998,0.6984,2.7254,-65.2500,-10.5000,29.2500,11.7483,3.8164,-1.6712,1.4346,-1.4778,-1.3741,-76.2000,12.0000,31.3500,-2.0500,-5.6000,-11.5200,0.3262,-3.5692,1.2774,40.5000,24.5000,52.1875,40.1250,-36.3750,161.3125,0
1776974156.267,11.8321,1.6424,-2.1213,-1.0696,1.0043,2.6183,-63.3000,-10.5000,29.2500,10.9511,2.4517,-2.7701,1.9311,-1.8439,-1.3267,-78.4500,15.3000,30.1500,-2.0500,-5.6000,-11.5200,0.3262,-3.5692,1.2774,40.5000,24.5000,52.1875,40.1250,-36.3750,161.3125,0
1776974156.272,11.9950,1.1253,-0.2394,-0.9912,1.0984,2.6052,-63.3000,-10.5000,29.2500,10.9511,2.4517,-2.7701,1.9311,-1.8439,-1.3267,-78.4500,15.3000,30.1500,-2.8900,-4.3700,-10.9600,0.1811,-4.1702,1.6864,43.7500,24.7500,47.7500,40.7500,-38.8750,161.3750,0
1776974156.277,11.9950,1.1253,-0.2394,-0.9912,1.0984,2.6052,-62.5500,-11.7000,30.3000,10.4507,2.4708,-1.8914,2.5149,-1.8282,-1.2966,-78.4500,14.2500,29.1000,-2.8900,-4.3700,-10.9600,0.1811,-4.1702,1.6864,43.7500,24.7500,47.7500,40.7500,-38.8750,161.3750,0
1776974156.283,13.0532,-0.0718,0.2921,-0.8362,1.0301,2.6220,-62.5500,-11.7000,30.3000,10.4507,2.4708,-1.8914,2.5149,-1.8282,-1.2966,-78.7500,15.7500,29.5500,-3.1300,-3.6200,-11.3200,0.1244,-4.6589,2.1664,43.7500,24.7500,47.7500,41.6250,-41.7500,161.5625,0
1776974156.289,13.0532,-0.0718,0.2921,-0.8362,1.0301,2.6220,-61.5000,-12.9000,29.8500,10.0006,2.5067,-0.8499,2.7057,-1.8346,-1.3049,-78.7500,15.7500,29.5500,-4.7100,-5.6600,-11.8100,0.0894,-5.1214,2.6049,43.7500,24.7500,47.7500,77.1250,-44.8750,161.9375,0
1776974156.294,12.7683,-0.7446,1.1660,-0.8351,0.9713,2.5397,-61.5000,-12.9000,29.8500,10.0006,2.5067,-0.8499,2.7057,-1.8346,-1.3049,-78.7500,15.7500,29.5500,-4.7100,-5.6600,-11.8100,0.0894,-5.1214,2.6049,43.7500,24.7500,47.7500,73.5625,-48.3125,162.6250,0
1776974156.303,11.2863,-0.8332,3.2729,-0.6400,0.7157,2.4024,-61.5000,-12.9000,29.8500,10.0844,2.4086,-0.0072,2.7363,-2.0550,-1.3856,-78.6000,18.4500,25.3500,-9.9300,-7.4500,-11.7100,-0.0764,-5.5523,2.9420,43.7500,24.7500,47.7500,69.9375,-51.8750,163.6875,0
1776974156.313,9.3087,-1.1013,4.1635,-0.2979,0.6550,2.2260,-59.1000,-12.4500,29.8500,10.9654,1.9010,0.5986,2.4333,-2.3992,-1.4549,-78.6000,18.4500,24.3000,-12.3400,-7.4100,-11.8500,-0.3436,-5.8207,3.1067,43.7500,24.7500,47.7500,69.9375,-51.8750,163.6875,0
1776974156.317,9.3087,-1.1013,4.1635,-0.2979,0.6550,2.2260,-59.1000,-12.4500,29.8500,11.2504,0.9625,1.4485,1.7166,-2.4888,-1.4869,-78.6000,18.4500,24.3000,-12.3400,-7.4100,-11.8500,-0.3436,-5.8207,3.1067,43.7500,24.7500,47.7500,66.3125,-55.4375,165.1250,0
1776974156.323,8.1714,-1.7526,4.5131,0.2846,0.7210,2.0688,-59.1000,-12.4500,29.8500,11.2504,0.9625,1.4485,1.7166,-2.4888,-1.4869,-77.7000,17.5500,24.9000,-12.3900,-7.3500,-11.3200,-0.6610,-5.8065,3.0925,52.5625,21.0625,36.5000,66.3125,-55.4375,165.1250,0
1776974156.327,8.1714,-1.7526,4.5131,0.2846,0.7210,2.0688,-58.9500,-16.2000,29.8500,11.6406,0.2753,2.0901,1.3129,-2.0422,-1.4930,-77.7000,17.5500,24.9000,-12.3900,-7.3500,-11.3200,-0.6610,-5.8065,3.0925,52.5625,21.0625,36.5000,62.7500,-58.8125,167.1250,0
1776974156.332,7.4172,-1.9585,4.7549,0.8745,0.9022,1.9388,-58.9500,-16.2000,31.2000,11.6406,0.2753,2.0901,1.3129,-2.0422,-1.4930,-79.0500,19.8000,22.8000,-13.6300,-9.1100,-11.1600,-1.0494,-5.5272,3.0641,52.5625,21.0625,36.5000,62.7500,-58.8125,167.1250,0
1776974156.340,7.7093,-2.6360,4.7046,1.3984,1.1298,1.7738,-58.9500,-15.7500,33.4500,11.9806,-0.4645,2.4301,1.1226,-1.6470,-1.4618,-79.0500,19.8000,22.8000,-9.7600,-8.8500,-9.9200,-1.5872,-5.0811,2.9856,52.5625,21.0625,36.5000,59.0625,-61.9375,169.8750,0
1776974156.345,7.7093,-2.6360,4.7046,1.3984,1.1298,1.7738,-58.9500,-15.7500,33.4500,11.5137,-0.8045,2.7653,0.4988,-1.7163,-1.3763,-79.0500,19.8000,22.8000,-9.7600,-8.8500,-9.9200,-1.5872,-5.0811,2.9856,52.5625,21.0625,36.5000,55.1875,-64.6875,173.5625,0
1776974156.353,8.8945,-4.7070,5.2505,2.0861,1.2905,1.5359,-57.9000,-15.4500,33.4500,12.0931,-1.8292,3.8044,-0.2356,-1.6521,-1.2510,-78.0000,21.3000,20.5500,-5.8400,-8.9100,-8.9600,-2.1686,-4.6317,2.9365,52.5625,21.0625,36.5000,51.1875,-67.2500,178.3125,0
1776974156.363,8.4372,-5.1236,8.0086,3.0723,1.2628,1.2388,-59.4000,-15.0000,33.4500,12.1027,-2.5522,3.4213,-0.8071,-1.4410,-1.1977,-80.4000,20.7000,21.1500,-1.8500,-8.1200,-7.7700,-2.6627,-4.3557,2.9409,52.5625,21.0625,36.5000,51.1875,-67.2500,178.3125,0
1776974156.368,8.1355,-3.4117,9.7779,3.0723,1.2628,1.2388,-57.4500,-14.2500,34.9500,12.1027,-2.5522,3.4213,-0.8071,-1.4410,-1.1977,-80.4000,20.7000,21.1500,-1.8500,-8.1200,-7.7700,-2.6627,-4.3557,2.9409,52.5625,21.0625,36.5000,51.1875,-67.2500,178.3125,0
1776974156.373,8.1355,-3.4117,9.7779,3.8117,0.3365,1.1410,-57.4500,-14.2500,34.9500,11.5353,-1.6903,2.8659,-1.0448,-1.4013,-1.1985,-78.4500,20.2500,20.2500,1.7900,-7.5200,-6.4400,-3.1689,-4.3535,3.0903,61.7500,12.0625,20.0000,46.9375,-69.6250,-175.3750,0
1776974156.378,6.1268,-3.3758,8.2504,3.8117,0.3365,1.1410,-57.4500,-14.2500,34.9500,11.5353,-1.6903,2.8659,-1.0448,-1.4013,-1.1985,-78.4500,20.2500,20.2500,1.7900,-7.5200,-6.4400,-3.1689,-4.3535,3.0903,61.7500,12.0625,20.0000,46.9375,-69.6250,-175.3750,0
1776974156.383,6.1268,-3.3758,8.2504,3.3875,-0.0655,1.0696,-57.6000,-12.9000,36.9000,11.0397,-0.7398,4.1348,-1.3334,-1.3318,-1.2670,-79.5000,21.0000,19.9500,4.1000,-6.4300,-6.2900,-3.8583,-4.6448,3.3063,61.7500,12.0625,20.0000,42.3125,-71.8750,-166.8750,0
1776974156.388,4.7453,-4.4891,6.8307,3.3875,-0.0655,1.0696,-57.6000,-12.9000,36.9000,11.0397,-0.7398,4.1348,-1.3334,-1.3318,-1.2670,-79.5000,21.0000,19.9500,4.1000,-6.4300,-6.2900,-4.5804,-4.6458,2.8874,61.7500,12.0625,20.0000,37.6250,-73.8125,-156.8125,0
1776974156.394,4.7453,-4.4891,6.8307,3.3801,-0.3328,0.8743,-57.6000,-12.9000,36.9000,10.4507,0.5411,4.4293,-1.3771,-1.2572,-1.3299,-78.9000,22.6500,21.4500,-9.2900,-3.8900,-3.3400,-4.5804,-4.6458,2.8874,61.7500,12.0625,20.0000,34.3125,-75.1250,-149.1250,0
1776974156.403,3.8403,-5.8826,7.0988,3.7827,-0.4676,0.7101,-57.9000,-10.6500,37.9500,10.0269,1.8124,4.5777,-1.2875,-0.9249,-1.4000,-78.9000,22.6500,21.4500,-8.7000,-2.9700,-12.0600,-4.1233,-3.3750,1.2981,61.7500,12.0625,20.0000,34.3125,-75.1250,-149.1250,0
1776974156.413,2.4612,-5.2218,9.7731,3.8538,-0.2244,0.5516,-56.8500,-11.2500,40.3500,9.7181,3.3662,4.4221,-0.9814,-0.6920,-1.4722,-77.2500,22.5000,22.0500,-7.3700,-3.4600,-12.5700,-2.8253,-1.0952,-0.5083,61.7500,12.0625,20.0000,32.8125,-75.8125,-147.2500,0
1776974156.418,3.0191,-3.9840,8.9232,3.1730,-0.3259,0.3608,-56.8500,-11.2500,40.3500,9.7181,3.3662,4.4221,-0.9814,-0.6920,-1.4722,-77.2500,22.5000,22.0500,-7.3700,-3.4600,-12.5700,-2.8253,-1.0952,-0.5083,61.7500,12.0625,20.0000,32.6250,-76.1250,-150.6250,0
1776974156.423,3.0191,-3.9840,8.9232,3.1730,-0.3259,0.3608,-58.0500,-9.0000,39.9000,9.5960,4.5179,4.1252,-0.4535,-0.6073,-1.5817,-78.1500,24.4500,20.4000,-4.3700,-5.5500,-9.1100,-1.7519,0.4974,-1.9853,62.5625,1.6875,5.7500,32.6250,-76.1250,-150.6250,0
1776974156.428,4.6328,-3.2657,7.2951,2.1749,-0.5849,0.0682,-58.0500,-9.0000,39.9000,9.5960,4.5179,4.1252,-0.4535,-0.6073,-1.5817,-78.1500,24.4500,20.4000,-4.3700,-5.5500,-9.1100,-1.7519,0.4974,-1.9853,62.5625,1.6875,5.7500,33.3750,-76.1875,-157.1875,0
1776974156.433,4.6328,-3.2657,7.2951,2.1749,-0.5849,0.0682,-58.2000,-7.2000,40.8000,9.5888,5.1164,3.6727,-0.2801,-0.3325,-1.6681,-79.0500,23.2500,22.0500,-0.6000,-6.4100,-6.3700,-1.1541,1.3603,-2.8732,62.5625,1.6875,5.7500,33.3750,-76.1875,-157.1875,0
1776974156.440,5.7557,-3.1125,6.4859,1.7776,-1.0413,-0.1577,-58.3500,-5.8500,39.6000,9.5265,5.5881,3.1340,0.0557,-0.3528,-1.6766,-75.6000,25.9500,24.3000,0.1000,-6.0300,-4.8400,-1.1246,1.7311,-3.2343,62.5625,1.6875,5.7500,34.2500,-75.8750,-164.6250,0
1776974156.445,5.7557,-3.2872,5.9161,1.7776,-1.0413,-0.1577,-58.3500,-5.8500,39.6000,9.5265,5.5881,3.1340,0.0557,-0.3528,-1.6766,-75.6000,25.9500,24.3000,0.1000,-6.0300,-4.8400,-1.1246,1.7311,-3.2343,62.5625,1.6875,5.7500,35.0625,-75.1875,-171.6875,0
1776974156.453,5.7557,-3.2872,5.9161,1.7557,-1.5092,-0.2952,-59.5500,-4.2000,39.9000,9.5936,5.4875,2.6576,0.3853,-0.1162,-1.5852,-75.6000,25.9500,24.3000,-0.5600,-5.5100,-4.5300,-1.4104,1.8610,-3.3259,62.5625,1.6875,5.7500,35.5625,-74.2500,-177.8125,0
1776974156.463,5.3223,-3.6488,5.5091,1.7352,-1.7725,-0.4442,-59.5500,-4.2000,39.9000,9.4882,4.9991,2.5426,0.7807,0.2102,-1.4568,-78.0000,29.2500,21.6000,-1.0100,-5.0900,-4.1900,-1.7639,2.0082,-3.3249,62.5625,1.6875,5.7500,35.5625,-74.2500,-177.8125,0
1776974156.468,4.3527,-3.0335,6.5242,1.7664,-1.9881,-0.5838,-59.5500,-4.2000,39.9000,9.4882,4.9991,2.5426,0.7807,0.2102,-1.4568,-78.0000,29.2500,21.6000,-1.0100,-5.0900,-4.1900,-1.7639,2.0082,-3.3249,62.5625,1.6875,5.7500,35.8750,-73.0000,177.0625,0
1776974156.473,4.3527,-3.0335,6.5242,1.7664,-1.9881,-0.5838,-60.3000,-2.7000,38.8500,9.6917,4.0199,2.0686,1.1109,0.3789,-1.3166,-78.4500,30.7500,22.8000,-1.7900,-3.9300,-4.5500,-2.0911,2.2242,-3.2867,62.0625,6.0000,4.1875,35.8750,-73.0000,177.0625,0
1776974156.478,3.9959,-2.2098,6.2177,1.6827,-2.3321,-0.7370,-60.3000,-2.7000,38.8500,9.6917,4.0199,2.0686,1.1109,0.3789,-1.3166,-78.4500,30.7500,22.8000,-1.7900,-3.9300,-4.5500,-2.0911,2.2242,-3.2867,62.0625,6.0000,4.1875,35.8750,-73.0000,177.0625,0
1776974156.483,3.9002,-1.8531,5.3654,1.6827,-2.3321,-0.7370,-60.3000,-2.7000,38.8500,8.5808,3.2777,1.8435,1.2686,0.2206,-1.1679,-78.9000,33.9000,25.3500,-2.6400,-3.0300,-5.0800,-2.3137,2.4904,-3.2256,62.0625,6.0000,4.1875,35.9375,-71.5000,173.1250,0
1776974156.488,3.9002,-1.8531,5.3654,1.5860,-2.5514,-0.8884,-60.3000,-2.7000,38.8500,8.5808,3.2777,1.8435,1.4197,0.2196,-1.0235,-78.9000,33.9000,25.3500,-2.6400,-3.0300,-5.0800,-2.3486,2.8176,-3.1874,62.0625,6.0000,4.1875,36.0000,-69.6875,170.1250,0
1776974156.494,3.9049,-1.6352,5.6958,1.6100,-2.6891,-1.0203,-63.3000,1.0500,37.6500,8.1977,2.1859,2.1308,1.4197,0.2196,-1.0235,-80.4000,33.1500,25.0500,-3.3700,-2.5600,-5.4500,-2.3486,2.8176,-3.1874,62.0625,6.0000,4.1875,36.1875,-67.6250,167.7500,0
1776974156.503,4.3048,-1.9154,6.2513,1.9191,-2.8058,-1.0997,-62.5500,1.5000,38.4000,7.2472,2.1404,3.9073,1.5833,0.2550,-0.9030,-80.2500,34.8000,24.4500,-4.4200,-2.8500,-6.2400,-2.1980,3.1809,-3.1612,62.0625,6.0000,4.1875,36.1875,-67.6250,167.7500,0
1776974156.513,5.0805,-2.6695,6.1914,2.0219,-2.9292,-1.1812,-64.0500,2.7000,37.3500,6.7445,2.4277,5.4372,2.4949,0.3962,-0.7426,-80.2500,34.8000,24.4500,-4.6200,-3.2600,-6.2000,-1.9559,3.5714,-3.1154,62.0625,6.0000,4.1875,36.5625,-65.3125,166.0000,0
1776974156.518,5.0805,-2.6695,6.1914,2.0219,-2.9292,-1.1812,-64.0500,2.7000,37.3500,6.8881,2.6839,4.2976,2.4200,0.5502,-0.5665,-80.2500,34.8000,24.4500,-4.6200,-3.2600,-6.2000,-1.9559,3.5714,-3.1154,62.0625,6.0000,4.1875,36.5625,-65.3125,166.0000,0
1776974156.523,5.9951,-3.6320,6.1292,1.5583,-3.0563,-1.3275,-65.5500,5.8500,34.3500,6.8881,2.6839,4.2976,2.4200,0.5502,-0.5665,-80.1000,39.9000,25.0500,-4.2500,-3.6200,-5.7300,-1.7333,4.0066,-3.0511,57.2500,19.5625,11.0000,37.1875,-62.7500,164.7500,0
1776974156.528,5.9951,-3.6320,6.1292,1.5583,-3.0563,-1.3275,-65.5500,5.8500,34.3500,7.1658,2.3176,3.2968,2.2532,0.7594,-0.4389,-80.1000,39.9000,25.0500,-4.2500,-3.6200,-5.7300,-1.7333,4.0066,-3.0511,57.2500,19.5625,11.0000,37.1875,-62.7500,164.7500,0
1776974156.533,6.5625,-4.0917,5.9352,0.8644,-3.2977,-1.5306,-65.5500,5.8500,34.3500,7.1658,2.3176,3.2968,2.2532,0.7594,-0.4389,-82.5000,39.1500,22.2000,-3.6200,-3.4600,-5.3200,-1.5697,4.3600,-2.9474,57.2500,19.5625,11.0000,38.0000,-59.9375,163.9375,0
1776974156.541,7.0342,-3.9289,5.2840,0.8644,-3.2977,-1.5306,-67.9500,6.6000,34.0500,7.1156,2.1045,3.1125,2.2084,0.8831,-0.3062,-84.1500,39.7500,24.4500,-3.2900,-3.1500,-4.9300,-1.4126,4.5302,-2.7882,57.2500,19.5625,11.0000,38.9375,-57.1250,163.4375,0
1776974156.546,7.0342,-3.9289,5.2840,0.4341,-3.4419,-1.7925,-67.9500,6.6000,34.0500,7.1156,2.1045,3.1125,2.3054,0.9686,-0.1836,-84.1500,39.7500,24.4500,-3.2900,-3.1500,-4.9300,-1.4126,4.5302,-2.7882,57.2500,19.5625,11.0000,40.0000,-54.3125,163.1875,0
1776974156.553,7.3622,-3.0263,5.0494,0.0088,-3.5178,-2.0339,-67.9500,6.6000,34.0500,7.4005,1.5802,2.7414,2.3054,0.9686,-0.1836,-81.9000,41.7000,24.7500,-3.6900,-3.6200,-5.2300,-1.1945,4.4844,-2.5100,57.2500,19.5625,11.0000,41.1250,-51.6875,163.1875,0
1776974156.563,7.1802,-2.1500,5.0589,-0.0040,-3.6348,-2.1970,-70.3500,9.4500,28.6500,7.5441,1.1636,2.1069,2.4730,1.0453,-0.0687,-81.9000,41.7000,24.7500,-4.7200,-4.3300,-5.7800,-0.9436,4.3088,-2.0737,57.2500,19.5625,11.0000,41.1250,-51.6875,163.1875,0
1776974156.568,7.1802,-2.1500,5.0589,-0.0040,-3.6348,-2.1970,-70.3500,9.4500,28.6500,7.8769,0.8787,1.3144,2.6084,1.0142,-0.0059,-83.7000,41.7000,22.9500,-4.7200,-4.3300,-5.7800,-0.9436,4.3088,-2.0737,49.0000,31.6875,22.8750,42.3125,-49.2500,163.3750,0
1776974156.573,7.4627,-1.4557,5.2696,0.1442,-3.5826,-2.3286,-71.1000,11.4000,29.4000,7.8769,0.8787,1.3144,2.6084,1.0142,-0.0059,-83.7000,41.7000,22.9500,-7.4700,-6.0700,-6.9900,-0.7178,4.1190,-1.5599,49.0000,31.6875,22.8750,42.3125,-49.2500,163.3750,0
1776974156.578,7.4627,-1.4557,5.2696,0.1442,-3.5826,-2.3286,-71.1000,11.4000,29.4000,8.2289,0.3711,0.5602,2.6654,1.0261,0.0163,-84.4500,42.4500,22.5000,-7.4700,-6.0700,-6.9900,-0.7178,4.1190,-1.5599,49.0000,31.6875,22.8750,43.4375,-46.9375,163.6875,0
1776974156.583,7.9727,-0.8547,4.7860,0.5958,-3.4446,-2.4789,-70.9500,11.2500,27.3000,8.2289,0.3711,0.5602,2.6654,1.0261,0.0163,-84.4500,42.4500,22.5000,-8.3900,-6.9900,-7.4400,-0.5498,4.0470,-1.1170,49.0000,31.6875,22.8750,43.4375,-46.9375,163.6875,0
1776974156.588,7.9727,-0.8547,4.7860,0.5958,-3.4446,-2.4789,-70.9500,11.2500,27.3000,8.7197,-0.2059,0.1556,2.7035,1.0206,-0.0083,-83.7000,43.9500,22.5000,-8.3900,-6.9900,-7.4400,-0.4472,4.0950,-0.8258,49.0000,31.6875,22.8750,44.6875,-44.6250,164.1250,0
1776974156.594,8.8370,-1.1133,4.8315,1.0821,-3.2935,-2.6268,-71.8500,13.0500,26.4000,8.7197,-0.2059,0.1556,2.7035,1.0206,-0.0083,-83.7000,43.9500,22.5000,-8.7400,-7.9900,-7.6300,-0.4472,4.0950,-0.8258,49.0000,31.6875,22.8750,13.6250,-42.3125,164.6250,0
1776974156.603,9.9623,-0.9697,4.4676,1.4128,-3.2279,-2.7022,-71.8500,13.0500,26.1000,8.8370,-0.8954,-0.3926,2.7987,1.0195,-0.0144,-84.0000,44.4000,21.4500,-8.7100,-9.4500,-7.5500,-0.4091,4.1255,-0.7090,49.0000,31.6875,22.8750,13.6250,-42.3125,164.6250,0
1776974156.613,10.8769,-1.4653,3.1723,1.2662,-3.2031,-2.6803,-72.3000,17.4000,23.8500,8.9064,-1.7741,-0.5243,2.7992,0.8993,0.0099,-85.6500,46.0500,19.5000,-9.1100,-9.4800,-7.6600,-0.3818,4.0350,-0.7636,49.0000,31.6875,22.8750,13.3750,-40.0625,165.0000,0
1776974156.618,11.2599,-2.5546,3.3591,1.2662,-3.2031,-2.6803,-72.3000,17.4000,23.8500,8.6383,-2.3343,-0.8763,2.7206,0.6757,0.0277,-85.6500,46.0500,19.5000,-9.1100,-9.4800,-7.6600,-0.3818,4.0350,-0.7636,49.0000,31.6875,22.8750,13.3750,-40.0625,165.0000,0
1776974156.623,11.2599,-2.5546,3.3591,1.1157,-3.0707,-2.6143,-72.3000,17.4000,23.8500,8.6383,-2.3343,-0.8763,2.5759,0.4767,0.0320,-85.6500,46.0500,19.5000,-9.8900,-9.3500,-7.9000,-0.2913,3.8081,-1.0210,37.2500,39.5000,32.0625,13.0000,-37.8750,165.1250,0
1776974156.628,11.7771,-3.6248,3.4884,1.1103,-2.8250,-2.5860,-72.3000,17.4000,23.8500,8.5329,-2.1787,-1.3886,2.5759,0.4767,0.0320,-85.5000,45.4500,20.1000,-9.8900,-9.3500,-7.9000,-0.2913,3.8081,-1.0210,37.2500,39.5000,32.0625,13.0000,-37.8750,165.1250,0
1776974156.633,11.7771,-3.6248,3.4884,1.1103,-2.8250,-2.5860,-72.6000,19.3500,19.8000,8.5329,-2.1787,-1.3886,2.2812,0.3227,0.0605,-85.5000,45.4500,20.1000,-10.8300,-8.8000,-8.2300,-0.0644,3.5037,-1.4475,37.2500,39.5000,32.0625,12.4375,-35.8125,164.9375,0
1776974156.641,12.1554,-3.4860,4.5514,1.3286,-2.5599,-2.6374,-73.3500,21.6000,19.8000,8.6239,-1.5083,-1.6759,2.2812,0.3227,0.0605,-85.0500,47.4000,17.5500,-11.8600,-9.7500,-8.6600,0.2956,3.2212,-1.9504,37.2500,39.5000,32.0625,11.6250,-33.7500,164.3750,0
1776974156.646,12.1554,-3.4860,4.5514,1.3286,-2.5599,-2.6374,-73.3500,21.6000,19.0500,8.6981,-0.6369,-1.7837,1.8730,0.1863,0.1079,-85.0500,47.4000,17.5500,-11.8600,-9.7500,-8.6600,0.2956,3.2212,-1.9504,37.2500,39.5000,32.0625,10.6250,-31.8125,163.5625,0
1776974156.654,11.9519,-1.6927,3.4333,1.2774,-2.6145,-2.6180,-73.0500,22.0500,17.8500,8.4707,0.3807,-1.8723,1.5164,0.1220,0.1346,-84.7500,46.9500,18.3000,-12.2400,-11.3000,-8.8300,0.5901,2.9932,-2.3671,37.2500,39.5000,32.0625,9.4375,-29.9375,162.6250,0
1776974156.664,10.9630,-1.0558,2.7485,1.0523,-2.5724,-2.6295,-71.2500,23.8500,16.9500,8.8466,1.1947,-2.3248,1.1615,0.1761,0.1479,-86.4000,46.8000,16.6500,-13.1500,-11.2200,-8.8800,0.5989,2.8023,-2.6398,37.2500,39.5000,32.0625,9.4375,-29.9375,162.6250,0
1776974156.668,9.7899,-1.0343,2.5546,1.0584,-2.4112,-2.6425,-71.2500,23.8500,16.9500,8.8466,1.1947,-2.3248,1.1615,0.1761,0.1479,-86.4000,46.8000,16.6500,-13.1500,-11.2200,-8.8800,0.5989,2.8023,-2.6398,37.2500,39.5000,32.0625,9.4375,-29.9375,162.6250,0
1776974156.673,9.7899,-1.0343,2.5546,1.0584,-2.4112,-2.6425,-71.7000,24.6000,15.4500,9.4643,2.0351,-2.9113,0.9252,0.0805,0.1228,-86.4000,46.8000,16.6500,-12.9300,-8.9100,-8.3500,0.4265,2.6529,-2.8907,23.6875,42.6875,33.5000,8.1250,-28.0000,161.8125,0
1776974156.678,9.3302,-1.1756,2.2338,1.0525,-2.1250,-2.6396,-71.7000,24.6000,15.4500,9.4643,2.0351,-2.9113,0.9252,0.0805,0.1228,-86.2500,45.4500,17.2500,-12.9300,-8.9100,-8.3500,0.4265,2.6529,-2.8907,23.6875,42.6875,33.5000,8.1250,-28.0000,161.8125,0
1776974156.683,9.3302,-1.1756,2.2338,1.0525,-2.1250,-2.6396,-70.0500,27.4500,13.8000,9.8186,2.5857,-3.7948,0.6326,-0.1332,0.1287,-86.2500,45.4500,17.2500,-12.5300,-7.6300,-8.2600,0.3458,2.5569,-3.1285,23.6875,42.6875,33.5000,6.6250,-26.1250,161.0000,0
1776974156.688,9.1985,-1.2115,2.5809,1.1143,-1.8362,-2.5908,-70.0500,27.4500,13.8000,9.8186,2.5857,-3.7948,0.6326,-0.1332,0.1287,-86.2500,46.6500,16.8000,-12.5300,-7.6300,-8.2600,0.4494,2.4904,-3.3161,23.6875,42.6875,33.5000,5.1250,-24.1875,160.1875,0
1776974156.694,9.5912,-0.9361,2.8156,1.1143,-1.8362,-2.5908,-70.0500,27.4500,13.8000,9.4954,3.1771,-3.2825,0.1612,-0.2494,0.1458,-86.2500,46.6500,16.8000,-12.2300,-6.8200,-8.3900,0.4494,2.4904,-3.3161,23.6875,42.6875,33.5000,3.5000,-22.2500,159.2500,0
1776974156.703,9.5912,-0.9361,2.8156,1.0840,-1.6931,-2.5407,-70.3500,29.1000,12.3000,9.4355,3.9289,-2.4110,-0.1404,0.0101,0.0946,-85.5000,46.2000,17.2500,-10.8000,-5.9700,-8.2600,0.6534,2.4609,-3.4459,23.6875,42.6875,33.5000,1.8750,-20.3125,158.2500,0
1776974156.713,10.0437,-1.0511,4.2880,0.7946,-1.7432,-2.5106,-70.3500,29.1000,12.3000,9.0022,4.3670,-2.4948,-0.6584,-0.0373,0.0096,-84.9000,46.0500,15.6000,-9.9800,-5.1300,-8.3100,0.8170,2.4642,-3.4852,23.6875,42.6875,33.5000,1.8750,-20.3125,158.2500,0
1776974156.718,10.0437,-1.0511,4.2880,0.7064,-1.7376,-2.4597,-70.3500,29.1000,12.3000,9.0022,4.3670,-2.4948,-0.6584,-0.0373,0.0096,-84.9000,46.0500,15.6000,-9.9800,-5.1300,-8.3100,0.8170,2.4642,-3.4852,23.6875,42.6875,33.5000,0.3125,-18.3125,157.3125,0
1776974156.723,10.2927,-0.7111,2.1955,0.7064,-1.7376,-2.4597,-69.4500,31.6500,9.1500,8.2863,4.4556,-2.9928,-1.0104,0.0421,-0.0456,-84.9000,46.0500,15.6000,-9.4200,-3.5800,-8.6700,0.9108,2.4031,-3.4285,10.6875,44.5625,31.5625,0.3125,-18.3125,157.3125,0
1776974156.728,10.2927,-0.7111,2.1955,0.2803,-1.7752,-2.3571,-69.4500,31.6500,9.1500,8.2863,4.4556,-2.9928,-1.0104,0.0421,-0.0456,-84.9000,46.0500,15.6000,-9.4200,-3.5800,-8.6700,0.9108,2.4031,-3.4285,10.6875,44.5625,31.5625,358.8750,-16.4375,156.3750,0
1776974156.733,10.1059,-1.3815,1.6759,0.2803,-1.7752,-2.3571,-67.2000,33.6000,7.3500,7.7883,4.4125,-2.8994,-1.1210,0.0602,-0.1018,-84.9000,46.0500,15.6000,-9.3100,-1.9200,-9.0200,1.0134,2.2864,-3.3009,10.6875,44.5625,31.5625,358.8750,-16.4375,156.3750,0
1776974156.743,9.7923,-1.4485,1.3862,0.0091,-1.7091,-2.2961,-67.5000,33.6000,8.1000,7.5681,4.3886,-2.4804,-1.1247,0.0674,-0.1077,-82.3500,46.0500,15.9000,-9.3600,-1.8300,-8.8500,1.2185,2.2209,-3.0838,10.6875,44.5625,31.5625,357.5000,-14.6250,155.4375,0
1776974156.751,9.7923,-1.4485,1.3862,-0.1045,-1.6238,-2.2202,-67.5000,33.6000,8.1000,7.3646,4.4412,-1.8651,-1.0640,0.1444,-0.0645,-84.4500,46.6500,17.2500,-9.0900,-2.1600,-8.3000,1.3908,2.2264,-2.7838,10.6875,44.5625,31.5625,356.3125,-12.8750,154.4375,0
1776974156.756,9.4691,-1.2522,0.8404,-0.1660,-1.5042,-2.1296,-67.2000,35.1000,9.6000,7.3646,4.4412,-1.8651,-1.0640,0.1444,-0.0645,-83.2500,46.9500,19.0500,-9.0900,-2.1600,-8.3000,1.3908,2.2264,-2.7838,10.6875,44.5625,31.5625,355.3125,-11.1875,153.5000,0
