timestamp,thigh_acc_x,thigh_acc_y,thigh_acc_z,thigh_gyro_x,thigh_gyro_y,thigh_gyro_z,thigh_mag_x,thigh_mag_y,thigh_mag_z,shank_acc_x,shank_acc_y,shank_acc_z,shank_gyro_x,shank_gyro_y,shank_gyro_z,shank_mag_x,shank_mag_y,shank_mag_z,foot_acc_x,foot_acc_y,foot_acc_z,foot_gyro_x,foot_gyro_y,foot_gyro_z,foot_mag_x,foot_mag_y,foot_mag_z,foot_euler_x,foot_euler_y,foot_euler_z,perturbation_event
1776970346.214,8.8992,-0.0383,2.8683,-1.0637,0.1767,0.0706,-88.0500,-16.3500,-0.6000,9.5265,2.1380,-0.1748,-0.4183,0.7538,0.5105,-39.4500,6.7500,32.7000,6.4300,-0.5400,-8.2100,0.0960,0.5116,0.0273,-29.8750,19.0000,18.0625,67.1250,36.5000,172.1875,0
1776970346.218,8.8346,0.1077,2.7892,-0.9561,0.1743,0.1327,-88.3500,-18.0000,-0.3000,9.5265,2.1380,-0.1748,-0.4183,0.7538,0.5105,-38.1000,6.7500,33.0000,5.8000,-1.0100,-7.7400,0.0960,0.5116,0.0273,-29.8750,19.0000,18.0625,67.1875,36.7500,172.1250,0
1776970346.223,8.8346,0.1077,2.7892,-0.9561,0.1743,0.1327,-88.3500,-18.0000,-0.3000,9.1195,2.0518,-0.3783,-0.3080,0.7304,0.4823,-38.1000,6.7500,33.0000,5.8000,-1.0100,-7.7400,0.0469,0.2847,0.0196,-29.8750,19.0000,18.0625,67.1875,36.9375,172.0625,0
1776970346.230,8.8274,0.4142,2.6983,-0.8279,0.1828,0.1591,-87.7500,-16.5000,0.1500,9.1195,2.0518,-0.3783,-0.2731,0.7037,0.4525,-37.6500,7.0500,33.4500,5.7100,-0.8700,-7.7300,0.0469,0.2847,0.0196,-29.8750,19.0000,18.0625,67.2500,37.1250,172.0625,0
1776970346.239,8.9040,0.5626,2.6193,-0.7416,0.2057,0.1657,-87.7500,-16.5000,0.1500,9.2512,1.7621,0.0527,-0.2731,0.7037,0.4525,-37.6500,7.0500,33.4500,5.8100,-0.7300,-7.8100,-0.0404,0.3491,0.0404,-29.8750,19.0000,18.0625,67.2500,37.1250,172.0625,0
1776970346.249,8.7460,1.3216,2.9018,-0.6792,0.2393,0.1793,-85.9500,-16.5000,0.4500,9.1099,1.5299,0.0359,-0.3842,0.6664,0.4383,-37.9500,5.4000,34.6500,5.8200,-0.7400,-7.7900,-0.0524,0.3447,0.0491,-29.8750,19.0000,18.0625,67.2500,37.3125,172.0625,0
1776970346.254,8.8274,1.3599,3.0239,-0.6384,0.3083,0.1703,-85.9500,-16.5000,0.4500,9.4332,1.4772,0.2490,-0.3842,0.6664,0.4383,-38.8500,5.5500,33.7500,5.8200,-0.7400,-7.7900,-0.0524,0.3447,0.0491,-29.8750,19.0000,18.0625,67.2500,37.3125,172.0625,0
1776970346.259,8.8274,1.3599,3.0239,-0.6384,0.3083,0.1703,-85.9500,-16.5000,0.4500,9.4930,1.3695,0.0383,-0.4879,0.6702,0.4485,-38.8500,5.5500,33.7500,5.8400,-0.6800,-7.8800,-0.0545,0.3327,0.0720,-31.6875,19.2500,18.1875,67.3125,37.5000,172.0000,0
1776970346.264,8.9591,1.3288,3.2298,-0.5915,0.3291,0.1775,-85.9500,-16.5000,0.4500,9.4930,1.3695,0.0383,-0.4879,0.6702,0.4485,-37.3500,4.8000,34.2000,5.8400,-0.6800,-7.8800,-0.0545,0.3327,0.0720,-31.6875,19.2500,18.1875,67.3125,37.5000,172.0000,0
1776970346.269,8.9591,1.3288,3.2298,-0.5915,0.3291,0.1775,-86.8500,-18.3000,-1.0500,9.6582,1.2210,-0.0742,-0.5367,0.6502,0.4612,-37.3500,4.8000,34.2000,5.9600,-0.6700,-7.6400,-0.0022,0.3011,0.0665,-31.6875,19.2500,18.1875,67.3750,37.6250,172.0000,0
1776970346.274,9.0692,1.2043,3.2489,-0.5404,0.3328,0.1945,-86.8500,-18.3000,-1.0500,9.6582,1.2210,-0.0742,-0.5367,0.6502,0.4612,-37.2000,4.2000,34.6500,5.9600,-0.6700,-7.6400,0.0207,0.2694,0.1014,-31.6875,19.2500,18.1875,67.4375,37.7500,171.9375,0
1776970346.280,9.0692,1.2043,3.2489,-0.5404,0.3328,0.1945,-86.5500,-16.8000,0.3000,9.6893,1.3360,-0.2586,-0.5585,0.6520,0.4618,-37.2000,4.2000,34.6500,6.0900,-0.6700,-7.6000,0.0207,0.2694,0.1014,-31.6875,19.2500,18.1875,67.4375,37.7500,171.9375,0
1776970346.289,9.1985,0.9050,3.0071,-0.4719,0.3576,0.2068,-86.2500,-16.9500,-0.1500,9.6031,1.3168,-0.4405,-0.5060,0.6430,0.4668,-37.2000,4.2000,34.6500,5.7500,-0.7800,-7.8100,0.0393,0.2782,0.1145,-31.6875,19.2500,18.1875,67.5000,37.8750,171.8750,0
1776970346.294,9.3518,0.7494,2.7916,-0.3648,0.3722,0.2110,-86.2500,-16.9500,-0.1500,9.6031,1.3168,-0.4405,-0.5060,0.6430,0.4668,-37.2000,4.2000,34.6500,5.7500,-0.7800,-7.8100,0.0654,0.2825,0.0949,-31.6875,19.2500,18.1875,67.5625,38.0625,171.8125,0
1776970346.300,9.3518,0.7494,2.7916,-0.3648,0.3722,0.2110,-86.7000,-16.5000,0.1500,9.5074,1.2306,-0.3974,-0.4463,0.6494,0.4730,-37.2000,4.2000,34.6500,6.0500,-0.7200,-7.7500,0.0654,0.2825,0.0949,-31.6875,19.2500,18.1875,67.5625,38.0625,171.8125,0
1776970346.305,9.4355,0.8021,2.4014,-0.2998,0.3744,0.2153,-86.7000,-16.5000,0.1500,9.5074,1.2306,-0.3974,-0.4463,0.6494,0.4730,-38.2500,3.9000,35.7000,6.0500,-0.7200,-7.7500,0.0884,0.2738,0.0818,-30.8750,20.0000,18.6875,67.5625,38.1875,171.7500,0
1776970346.310,9.4236,0.8380,2.0039,-0.2998,0.3744,0.2153,-87.0000,-16.5000,-0.1500,9.4858,1.2809,-0.3639,-0.3661,0.6656,0.4834,-38.2500,3.9000,35.7000,6.0700,-0.6400,-7.7600,0.0884,0.2738,0.0818,-30.8750,20.0000,18.6875,67.5625,38.1875,171.7500,0
1776970346.315,9.4236,0.8380,2.0039,-0.2515,0.3635,0.2236,-87.0000,-16.5000,-0.1500,9.4858,1.2809,-0.3639,-0.3661,0.6656,0.4834,-37.2000,5.4000,37.2000,6.0700,-0.6400,-7.7600,0.1047,0.2640,0.0687,-30.8750,20.0000,18.6875,67.5625,38.3125,171.6875,0
1776970346.320,9.4164,0.8547,1.6448,-0.2515,0.3635,0.2236,-85.8000,-17.5500,1.0500,9.4858,1.5131,-0.5124,-0.3168,0.6731,0.4890,-37.2000,5.4000,37.2000,6.0200,-0.9100,-7.6400,0.1047,0.2640,0.0687,-30.8750,20.0000,18.6875,67.5625,38.3125,171.6875,0
1776970346.325,9.4164,0.8547,1.6448,-0.2201,0.3395,0.2230,-85.8000,-17.5500,1.0500,9.4858,1.5131,-0.5124,-0.3168,0.6731,0.4890,-36.4500,3.4500,35.7000,6.0200,-0.9100,-7.6400,0.1058,0.2618,0.0687,-30.8750,20.0000,18.6875,67.6250,38.4375,171.5625,0
1776970346.331,9.4906,1.0558,1.3192,-0.2129,0.2944,0.2222,-85.8000,-17.5500,1.0500,9.4619,1.7334,-0.5411,-0.2417,0.6899,0.5028,-36.4500,3.4500,35.7000,6.1000,-0.8900,-7.6700,0.1058,0.2618,0.0687,-30.8750,20.0000,18.6875,67.6250,38.6250,171.5000,0
1776970346.340,9.4667,1.1803,1.2234,-0.2129,0.2944,0.2222,-85.8000,-16.8000,0.3000,9.3518,1.9010,-0.6680,-0.1591,0.7115,0.5169,-37.5000,3.1500,36.7500,6.1600,-0.8700,-7.6900,0.1036,0.2716,0.0567,-30.8750,20.0000,18.6875,67.6250,38.6250,171.5000,0
1776970346.346,9.4667,1.1803,1.2234,-0.2318,0.2585,0.2126,-85.8000,-16.8000,0.3000,9.3518,1.9010,-0.6680,-0.1591,0.7115,0.5169,-37.5000,3.1500,36.7500,6.1200,-0.8800,-7.6100,0.0807,0.2694,0.0578,-30.8750,20.0000,18.6875,67.6250,38.7500,171.4375,0
1776970346.351,9.4092,1.4629,1.1851,-0.2622,0.2020,0.2118,-85.8000,-16.8000,0.3000,9.1937,2.0877,-0.7446,-0.1130,0.7360,0.5263,-37.5000,3.1500,36.7500,6.1200,-0.8800,-7.6100,0.0807,0.2694,0.0578,-30.8750,20.0000,18.6875,67.6250,38.7500,171.4375,0
1776970346.356,9.4092,1.4629,1.1851,-0.2622,0.2020,0.2118,-85.8000,-16.8000,0.3000,9.1937,2.0877,-0.7446,-0.0685,0.7592,0.5494,-37.6500,3.0000,35.8500,6.0000,-0.8000,-7.6000,0.0851,0.2542,0.0491,-31.6875,19.2500,17.5000,67.6875,38.8750,171.3750,0
1776970346.360,9.3158,1.6496,1.2306,-0.3086,0.1601,0.1980,-87.4500,-17.7000,0.9000,9.2751,2.1332,-0.7207,-0.0685,0.7592,0.5494,-37.6500,3.0000,35.8500,6.0000,-0.8000,-7.6000,0.0851,0.2542,0.0491,-31.6875,19.2500,17.5000,67.6875,38.8750,171.3750,0
1776970346.365,9.3158,1.6496,1.2306,-0.3086,0.1601,0.1980,-87.4500,-17.7000,0.9000,9.2751,2.1332,-0.7207,-0.0304,0.7709,0.5540,-36.7500,2.4000,37.2000,6.0000,-0.8000,-7.6000,0.0665,0.2629,0.0415,-31.6875,19.2500,17.5000,67.6875,39.0000,171.3125,0
1776970346.370,9.2177,1.8076,1.4820,-0.3992,0.1575,0.1948,-86.1000,-18.3000,0.3000,9.4451,2.1189,-0.4980,-0.0304,0.7709,0.5540,-36.7500,2.4000,37.2000,6.1000,-0.7300,-7.5600,0.0665,0.2629,0.0415,-31.6875,19.2500,17.5000,67.6875,39.0000,171.3125,0
1776970346.375,9.2177,1.8076,1.4820,-0.3992,0.1575,0.1948,-86.1000,-18.3000,0.3000,9.6726,1.7980,-0.2298,0.0216,0.7717,0.5700,-37.3500,1.5000,36.6000,6.1000,-0.7300,-7.5600,0.0491,0.2651,0.0491,-31.6875,19.2500,17.5000,67.6875,39.1250,171.2500,0
1776970346.380,9.2201,1.8818,1.9680,-0.4855,0.1500,0.1876,-86.8500,-18.3000,1.8000,9.6726,1.7980,-0.2298,0.0216,0.7717,0.5700,-37.3500,1.5000,36.6000,5.9200,-0.9000,-7.5800,0.0491,0.2651,0.0491,-31.6875,19.2500,17.5000,67.6875,39.1250,171.2500,0
1776970346.389,9.2727,2.0830,2.2027,-0.5476,0.1415,0.1863,-85.5000,-17.4000,1.6500,9.5696,1.7813,-0.2059,0.0669,0.7834,0.5830,-36.0000,2.4000,37.5000,6.0800,-0.7600,-7.6200,0.0404,0.2923,0.0502,-31.6875,19.2500,17.5000,67.6875,39.2500,171.2500,0
1776970346.394,9.2727,2.0830,2.2027,-0.5476,0.1415,0.1863,-85.5000,-17.4000,1.6500,9.5696,1.7813,-0.2059,0.0336,0.8164,0.6150,-37.3500,1.8000,38.1000,6.0800,-0.7600,-7.6200,0.0065,0.2956,0.0382,-31.6875,19.2500,17.5000,67.7500,39.4375,171.2500,0
1776970346.401,9.2727,2.1668,2.3415,-0.5337,0.1234,0.1721,-85.0500,-18.0000,1.0500,9.3613,1.4892,0.1077,0.0336,0.8164,0.6150,-37.3500,1.8000,38.1000,6.2000,-0.8200,-7.5500,0.0065,0.2956,0.0382,-31.6875,19.2500,17.5000,67.7500,39.4375,171.2500,0
1776970346.405,9.2727,2.1668,2.3415,-0.5337,0.1234,0.1721,-85.0500,-18.0000,1.0500,9.4547,1.5586,-0.0862,0.0317,0.8644,0.6648,-37.3500,1.8000,38.1000,6.2000,-0.8200,-7.5500,0.0065,0.2956,0.0382,-31.6875,19.0000,17.0625,67.7500,39.5625,171.1875,0
1776970346.411,9.1913,2.0734,2.5666,-0.4868,0.1540,0.1655,-85.5000,-18.4500,1.9500,9.4547,1.5586,-0.0862,0.0317,0.8644,0.6648,-37.3500,1.8000,38.1000,6.2300,-0.9800,-7.5700,-0.0131,0.2738,0.0327,-31.6875,19.0000,17.0625,67.7500,39.5625,171.1875,0
1776970346.415,9.1913,2.0734,2.5666,-0.4868,0.1540,0.1655,-85.5000,-18.4500,1.9500,9.3948,1.6759,-0.0503,0.0474,0.9052,0.6984,-34.5000,1.0500,39.9000,6.2300,-0.9800,-7.5700,-0.0131,0.2738,0.0327,-31.6875,19.0000,17.0625,67.8125,39.6875,171.1875,0
1776970346.420,9.1698,1.9872,2.6384,-0.3714,0.1719,0.1753,-85.5000,-18.4500,1.9500,9.3948,1.6759,-0.0503,0.0474,0.9052,0.6984,-34.5000,1.0500,39.9000,6.2600,-1.1000,-7.5900,-0.0196,0.2411,0.0273,-31.6875,19.0000,17.0625,67.8125,39.6875,171.1875,0
1776970346.425,9.1698,1.9872,2.6384,-0.3714,0.1719,0.1753,-85.5000,-18.4500,1.9500,9.4308,1.6903,0.0814,0.0221,0.9268,0.7210,-35.1000,0.3000,39.4500,6.2600,-1.1000,-7.5900,-0.0273,0.2356,0.0120,-31.6875,19.0000,17.0625,67.8125,39.8125,171.1875,0
1776970346.431,9.2201,2.2505,2.4876,-0.3128,0.1375,0.1679,-84.7500,-17.7000,1.6500,9.4308,1.6903,0.0814,0.0221,0.9268,0.7210,-36.3000,0.7500,40.2000,6.2800,-0.9900,-7.6900,-0.0273,0.2356,0.0120,-31.6875,19.0000,17.0625,67.8125,39.9375,171.1875,0
1776970346.440,9.0381,2.1644,2.5953,-0.2809,0.1372,0.1655,-85.2000,-18.1500,0.4500,9.4475,1.6352,0.1341,-0.0109,0.9358,0.7560,-36.3000,0.7500,40.2000,6.3100,-0.9500,-7.5200,-0.0273,0.2182,0.0044,-31.6875,19.0000,17.0625,67.8125,39.9375,171.1875,0
1776970346.445,9.0453,2.0255,2.6600,-0.2809,0.1372,0.1655,-85.2000,-18.1500,0.4500,9.4571,1.7573,0.3496,0.0309,0.9582,0.7608,-34.8000,-0.3000,40.9500,6.3100,-0.9500,-7.5200,-0.0425,0.1767,0.0033,-31.6875,19.0000,17.0625,67.8125,40.0625,171.2500,0
1776970346.451,9.0453,2.0255,2.6600,-0.2361,0.1383,0.1514,-84.7500,-20.4000,0.4500,9.4571,1.7573,0.3496,0.0309,0.9582,0.7608,-34.8000,-0.3000,40.9500,6.2100,-0.8800,-7.5300,-0.0425,0.1767,0.0033,-31.6875,19.0000,17.0625,67.8125,40.0625,171.2500,0
1776970346.456,9.0836,1.7430,2.9880,-0.2110,0.1199,0.1545,-84.7500,-20.4000,0.4500,9.7037,1.3455,0.7374,0.0730,0.9558,0.7528,-34.8000,-0.3000,40.9500,6.2100,-0.8800,-7.5300,-0.0589,0.1680,-0.0033,-32.8750,19.2500,17.8750,67.8750,40.1250,171.3125,0
1776970346.461,9.0836,1.7430,2.9880,-0.2110,0.1199,0.1545,-85.2000,-18.9000,-0.1500,9.7037,1.3455,0.7374,0.0730,0.9558,0.7528,-34.8000,-0.3000,40.9500,5.7900,-0.8300,-7.6800,-0.0589,0.1680,-0.0033,-32.8750,19.2500,17.8750,67.8750,40.1250,171.3125,0
1776970346.466,9.1889,1.2043,3.0885,-0.2206,0.1263,0.1689,-85.2000,-18.9000,-0.1500,9.9240,0.9529,1.2067,0.1026,0.9369,0.7378,-34.8000,-0.3000,40.9500,5.7900,-0.8300,-7.6800,-0.0731,0.2182,-0.0076,-32.8750,19.2500,17.8750,67.8750,40.1875,171.3125,0
1776970346.471,9.1889,1.2043,3.0885,-0.2206,0.1263,0.1689,-83.7000,-18.4500,1.9500,9.9240,0.9529,1.2067,0.1026,0.9369,0.7378,-34.0500,-0.3000,41.5500,5.8500,-0.8800,-7.9000,-0.0731,0.2182,-0.0076,-32.8750,19.2500,17.8750,67.8750,40.1875,171.3125,0
1776970346.475,9.1363,0.8380,2.8898,-0.1916,0.1468,0.1836,-83.7000,-18.4500,1.9500,9.8737,0.7278,1.4796,0.1005,0.9782,0.7373,-34.0500,-0.3000,41.5500,5.8500,-0.8800,-7.9000,-0.0447,0.3382,-0.0011,-32.8750,19.2500,17.8750,67.8750,40.3750,171.3125,0
1776970346.481,9.1363,0.8380,2.8898,-0.1916,0.1468,0.1836,-85.8000,-18.3000,0.6000,9.8737,0.7278,1.4796,0.1005,0.9782,0.7373,-34.2000,-0.9000,42.4500,5.7400,-0.7500,-7.7700,-0.0447,0.3382,-0.0011,-32.8750,19.2500,17.8750,67.9375,40.6250,171.3125,0
1776970346.490,9.2081,0.4142,2.7749,-0.1748,0.1474,0.2033,-85.8000,-18.3000,0.6000,9.9910,0.2825,1.3886,0.0959,1.0483,0.7314,-33.1500,-1.2000,42.1500,6.1900,-1.1800,-7.6400,-0.0371,0.4374,0.0098,-32.8750,19.2500,17.8750,67.9375,40.6250,171.3125,0
1776970346.500,9.2440,0.3448,2.4636,-0.1943,0.1210,0.2148,-84.7500,-19.3500,1.2000,9.6726,-0.4166,1.4054,-0.0061,0.9758,0.7759,-33.1500,-1.2000,42.1500,6.5700,-1.1200,-7.5700,-0.0240,0.4832,-0.0098,-32.8750,19.2500,17.8750,67.9375,40.9375,171.3125,0
1776970346.505,9.1482,0.1987,2.2769,-0.2121,0.0839,0.2284,-84.7500,-19.3500,1.2000,9.5002,-0.5602,1.3264,-0.1428,0.9920,0.8087,-33.1500,-1.2000,42.1500,6.5700,-1.1200,-7.5700,-0.0240,0.4832,-0.0098,-32.8750,19.2500,17.8750,67.9375,40.9375,171.3125,0
1776970346.510,9.1482,0.1987,2.2769,-0.2121,0.0839,0.2284,-84.7500,-19.3500,1.2000,9.5002,-0.5602,1.3264,-0.1428,0.9920,0.8087,-33.1500,-1.2000,42.1500,6.3900,-1.0900,-7.4400,-0.0371,0.4745,-0.0316,-31.7500,20.0000,17.0625,67.9375,41.1875,171.3125,0
1776970346.515,9.0788,0.1389,2.1165,-0.2550,0.0986,0.2454,-84.7500,-19.3500,1.2000,9.6103,-0.7877,0.9720,-0.3285,0.9990,0.8489,-33.1500,-1.2000,42.1500,6.3900,-1.0900,-7.4400,-0.0371,0.4745,-0.0316,-31.7500,20.0000,17.0625,67.9375,41.1875,171.3125,0
1776970346.520,9.0788,0.1389,2.1165,-0.2550,0.0986,0.2454,-85.0500,-18.3000,1.3500,9.6103,-0.7877,0.9720,-0.3285,0.9990,0.8489,-32.5500,-3.0000,43.8000,6.2800,-1.3500,-7.5200,-0.0458,0.4385,-0.0513,-31.7500,20.0000,17.0625,67.9375,41.4375,171.3125,0
1776970346.527,9.2105,0.2921,1.9585,-0.2846,0.0650,0.2675,-85.0500,-18.3000,1.3500,9.8210,-0.6249,0.7254,-0.4655,1.0006,0.8836,-32.5500,-3.0000,43.8000,6.2600,-1.5700,-7.5100,-0.1080,0.5094,-0.0949,-31.7500,20.0000,17.0625,67.9375,41.6875,171.3750,0
1776970346.532,9.3948,0.5483,1.8292,-0.2846,0.0650,0.2675,-84.7500,-20.1000,0.4500,9.7300,0.0335,0.9290,-0.5159,1.0086,0.8961,-33.0000,-2.2500,43.0500,6.2600,-1.5700,-7.5100,-0.1080,0.5094,-0.0949,-31.7500,20.0000,17.0625,67.8750,42.0625,171.5000,0
1776970346.540,9.3948,0.5483,1.8292,-0.3131,-0.0077,0.2801,-84.6000,-18.3000,1.0500,9.9216,0.5363,0.9792,-0.5060,1.0171,0.9030,-33.3000,-3.3000,43.8000,6.3600,-1.3400,-7.4700,-0.1778,0.5803,-0.1636,-31.7500,20.0000,17.0625,67.8125,42.4375,171.7500,0
1776970346.550,9.4499,0.8164,1.9537,-0.3864,-0.1085,0.2734,-84.6000,-18.3000,1.0500,9.9192,0.6321,1.5131,-0.4178,1.0389,0.9190,-33.9000,-4.2000,43.9500,6.3200,-1.3500,-7.5500,-0.2585,0.6632,-0.2509,-31.7500,20.0000,17.0625,67.8125,42.4375,171.7500,0
1776970346.555,9.4834,1.0104,2.1069,-0.4906,-0.2188,0.2795,-84.4500,-20.1000,1.9500,9.9192,0.6321,1.5131,-0.4178,1.0389,0.9190,-33.9000,-4.2000,43.9500,6.3200,-1.3500,-7.5500,-0.2585,0.6632,-0.2509,-31.7500,20.0000,17.0625,67.8125,42.4375,171.7500,0
1776970346.560,9.4858,0.9409,2.2098,-0.4906,-0.2188,0.2795,-84.7500,-20.1000,1.2000,9.9359,0.6249,1.7837,-0.3043,1.0635,0.9185,-31.3500,-4.6500,43.2000,6.5100,-0.7700,-7.3500,-0.3556,0.7189,-0.2902,-32.5000,20.0000,14.6875,67.7500,42.8125,172.0000,0
1776970346.565,9.4858,0.9409,2.2098,-0.5971,-0.2992,0.2899,-84.7500,-20.1000,1.2000,9.9359,0.6249,1.7837,-0.3043,1.0635,0.9185,-31.3500,-4.6500,43.2000,6.5100,-0.7700,-7.3500,-0.3556,0.7189,-0.2902,-32.5000,20.0000,14.6875,67.7500,42.8125,172.0000,0
1776970346.570,9.5600,0.9098,2.4229,-0.5971,-0.2992,0.2899,-84.7500,-20.1000,1.2000,10.1323,-0.0359,1.9728,-0.2385,1.0826,0.9236,-31.3500,-4.6500,43.2000,6.6200,-0.7000,-7.3600,-0.4854,0.6970,-0.2847,-32.5000,20.0000,14.6875,67.7500,43.2500,172.3750,0
1776970346.576,9.5600,0.9098,2.4229,-0.7099,-0.3413,0.2992,-85.0500,-19.9500,0.6000,10.1323,-0.0359,1.9728,-0.2385,1.0826,0.9236,-31.3500,-4.6500,43.2000,6.6300,-0.8100,-7.4100,-0.6480,0.6938,-0.2302,-32.5000,20.0000,14.6875,67.8125,43.6250,172.8125,0
1776970346.581,9.5457,0.8667,2.4876,-0.7490,-0.3224,0.3158,-85.0500,-19.9500,0.6000,10.0437,-0.5674,1.8723,-0.2102,1.1026,0.9297,-31.3500,-4.9500,45.7500,6.6300,-0.8100,-7.4100,-0.6480,0.6938,-0.2302,-32.5000,20.0000,14.6875,67.8750,44.0625,173.3125,0
1776970346.590,9.5864,0.7949,2.4876,-0.7466,-0.2819,0.3405,-85.0500,-19.9500,0.6000,10.1658,-1.2833,1.4844,-0.3611,1.1194,0.9723,-30.7500,-5.5500,46.6500,6.6900,-0.7800,-7.4300,-0.7647,0.7690,-0.2160,-32.5000,20.0000,14.6875,67.8750,44.0625,173.3125,0
1776970346.600,9.5864,0.9026,2.2865,-0.6936,-0.2406,0.3720,-84.6000,-20.7000,-0.3000,10.4531,-1.4126,1.2833,-0.6307,1.1010,1.0064,-31.0500,-6.1500,46.3500,6.4300,-0.2500,-7.9200,-0.7396,0.8574,-0.2127,-32.5000,20.0000,14.6875,67.9375,44.5625,173.8125,0
1776970346.605,9.5864,0.9026,2.2865,-0.6936,-0.2406,0.3720,-84.6000,-20.7000,-0.3000,10.4531,-1.4126,1.2833,-0.6307,1.1010,1.0064,-31.0500,-6.1500,46.3500,6.4300,-0.2500,-7.9200,-0.7396,0.8574,-0.2127,-32.5000,20.0000,14.6875,56.4375,45.1250,174.1250,0
1776970346.610,9.5864,1.2378,1.8651,-0.6057,-0.2206,0.4010,-84.6000,-20.7000,-0.3000,10.3070,-1.0534,1.3264,-0.8569,1.0912,1.0629,-30.4500,-6.3000,46.9500,6.5600,0.4000,-7.8900,-0.5825,1.0134,-0.1473,-33.5625,19.6875,14.2500,56.4375,45.1250,174.1250,0
1776970346.615,9.5864,1.2378,1.8651,-0.6057,-0.2206,0.4010,-87.0000,-22.0500,-0.1500,10.3070,-1.0534,1.3264,-0.8569,1.0912,1.0629,-30.4500,-6.3000,46.9500,6.5600,0.4000,-7.8900,-0.5825,1.0134,-0.1473,-33.5625,19.6875,14.2500,57.0625,45.7500,174.3125,0
1776970346.620,9.4427,1.6807,1.5586,-0.5798,-0.1655,0.4191,-87.0000,-22.0500,-0.1500,10.0102,-0.3855,1.4533,-0.9896,1.0973,1.1242,-30.4500,-6.3000,46.9500,6.8300,-0.6600,-7.3300,-0.3240,1.1552,-0.0753,-33.5625,19.6875,14.2500,57.0625,45.7500,174.3125,0
1776970346.626,9.4427,1.6807,1.5586,-0.5798,-0.1655,0.4191,-85.0500,-20.7000,1.3500,10.0102,-0.3855,1.4533,-0.9896,1.0973,1.1242,-30.4500,-6.3000,46.9500,6.4700,-0.4900,-7.3300,-0.2509,1.2610,-0.0578,-33.5625,19.6875,14.2500,57.5625,46.5000,174.3750,0
1776970346.631,9.4954,1.9345,1.4461,-0.5228,-0.2627,0.4375,-85.2000,-21.3000,-0.4500,10.1299,-0.1125,1.2522,-0.9553,1.1146,1.1594,-28.6500,-6.3000,46.2000,6.4700,-0.4900,-7.3300,-0.2509,1.2610,-0.0578,-33.5625,19.6875,14.2500,57.9375,47.2500,174.4375,0
1776970346.640,9.6175,2.0925,1.1396,-0.4775,-0.3035,0.4708,-85.2000,-21.3000,-0.4500,10.1370,0.1556,1.1779,-0.7935,1.1378,1.1895,-29.8500,-9.1500,48.1500,6.5800,-0.3500,-7.5900,-0.0905,1.4159,-0.0807,-33.5625,19.6875,14.2500,57.9375,47.2500,174.4375,0
1776970346.650,9.5553,2.3918,0.6249,-0.4690,-0.3070,0.4770,-84.4500,-22.5000,-1.9500,10.1801,0.6321,0.8739,-0.6235,1.1660,1.2209,-26.8500,-10.0500,49.0500,6.2900,0.3200,-8.0700,0.1865,1.5937,-0.0698,-33.5625,19.6875,14.2500,57.8750,48.1250,174.2500,0
1776970346.655,9.5553,2.3918,0.6249,-0.4690,-0.3070,0.4770,-83.7000,-21.3000,-0.9000,10.1801,0.6321,0.8739,-0.6235,1.1660,1.2209,-26.8500,-10.0500,49.0500,6.2900,0.3200,-8.0700,0.1865,1.5937,-0.0698,-33.5625,19.6875,14.2500,57.8750,48.1250,174.2500,0
1776970346.660,9.7324,2.7916,0.0215,-0.4655,-0.3373,0.4810,-83.7000,-21.3000,-0.9000,10.9463,0.7039,-0.0503,-0.5894,1.2103,1.2718,-27.6000,-9.3000,49.0500,8.0400,-2.1300,-7.0600,0.8552,1.9788,-0.0240,-34.6875,18.5625,14.2500,57.0625,49.2500,173.6875,0
1776970346.665,9.7324,2.7916,0.0215,-0.4655,-0.3373,0.4810,-83.8500,-22.2000,-1.8000,10.9463,0.7039,-0.0503,-0.5894,1.2103,1.2718,-27.6000,-9.3000,49.0500,8.0400,-2.1300,-7.0600,0.8552,1.9788,-0.0240,-34.6875,18.5625,14.2500,57.0625,49.2500,173.6875,0
1776970346.670,10.5800,3.6990,-0.4046,-0.4442,-0.4373,0.4359,-83.8500,-22.2000,-1.8000,11.5233,0.5674,-0.1053,-0.5436,1.2478,1.3302,-26.7000,-9.9000,48.9000,4.6200,0.3200,-7.5500,0.9883,1.6864,-0.0273,-34.6875,18.5625,14.2500,56.1250,50.1875,173.0000,0
1776970346.675,10.5800,3.6990,-0.4046,-0.4442,-0.4373,0.4359,-83.8500,-22.2000,-1.8000,11.5233,0.5674,-0.1053,-0.6699,1.3137,1.4306,-26.7000,-9.9000,48.9000,4.6200,0.3200,-7.5500,0.7243,1.3057,-0.6403,-34.6875,18.5625,14.2500,55.8125,50.9375,172.9375,0
1776970346.681,10.6159,4.3551,-0.8739,-0.4828,-0.5351,0.3813,-83.8500,-22.2000,-1.8000,12.0620,0.0024,-0.9385,-0.6699,1.3137,1.4306,-26.7000,-9.9000,48.9000,7.3000,-0.7100,-6.6300,0.7243,1.3057,-0.6403,-34.6875,18.5625,14.2500,56.6250,51.7500,173.4375,0
1776970346.690,11.1067,5.3654,-1.1061,-0.4525,-0.5812,0.2952,-84.4500,-21.3000,-1.6500,12.4020,-0.1700,-1.7358,-0.8042,1.3558,1.5375,-25.3500,-11.5500,48.4500,5.4900,-1.3700,-10.2600,-0.2542,1.4366,-0.7003,-34.6875,18.5625,14.2500,56.6250,51.7500,173.4375,0
1776970346.700,11.0085,6.1986,-1.5730,-0.3997,-0.7237,0.1884,-84.4500,-21.3000,-1.6500,12.8018,1.1133,-2.0758,-1.0682,1.4144,1.6670,-23.8500,-12.7500,49.5000,5.4200,-0.0700,-7.8800,-0.2422,1.6352,-0.8585,-34.6875,18.5625,14.2500,57.5625,52.7500,174.0625,0
1776970346.705,11.0660,6.6200,-1.6257,-0.5529,-0.8695,0.0709,-84.1500,-21.9000,-3.3000,13.2974,2.2075,-2.6600,-1.4075,1.4730,1.8295,-23.8500,-12.7500,49.5000,5.4200,-0.0700,-7.8800,-0.2422,1.6352,-0.8585,-34.6875,18.5625,14.2500,57.5625,52.7500,174.0625,0
1776970346.710,11.0660,6.6200,-1.6257,-0.5529,-0.8695,0.0709,-84.1500,-21.9000,-3.3000,13.2974,2.2075,-2.6600,-1.4075,1.4730,1.8295,-23.5500,-13.8000,49.8000,7.3000,0.5700,-7.4800,-0.0982,1.7617,-0.8149,-36.1875,21.5000,10.0000,58.2500,53.7500,174.5625,0
1776970346.715,11.5855,5.8323,-2.0518,-0.7408,-1.1674,-0.0485,-85.0500,-23.8500,-4.3500,13.5296,2.4852,-3.3255,-1.5617,1.4797,2.0075,-23.5500,-13.8000,49.8000,7.3000,0.5700,-7.4800,-0.0982,1.7617,-0.8149,-36.1875,21.5000,10.0000,58.2500,53.7500,174.5625,0
1776970346.720,11.5855,5.8323,-2.0518,-0.7408,-1.1674,-0.0485,-85.0500,-23.8500,-4.3500,13.5296,2.4852,-3.3255,-1.5617,1.4797,2.0075,-23.5500,-14.2500,50.1000,6.7400,0.5000,-8.3200,0.1909,1.6013,-0.5083,-36.1875,21.5000,10.0000,58.4375,54.6250,174.7500,0
1776970346.727,12.2751,4.4341,-2.1548,-0.7877,-1.6289,-0.1644,-85.5000,-23.2500,-3.0000,13.3668,2.8323,-3.0837,-1.4730,1.5212,2.0733,-23.5500,-14.2500,50.1000,5.5100,1.9200,-10.2600,0.7559,1.9079,-0.4451,-36.1875,21.5000,10.0000,58.0000,55.7500,174.5625,0
1776970346.732,12.2751,4.4341,-2.1548,-0.7877,-1.6289,-0.1644,-85.5000,-23.2500,-3.0000,13.3668,2.8323,-3.0837,-1.4730,1.5212,2.0733,-23.5500,-14.2500,50.1000,5.5100,1.9200,-10.2600,0.7559,1.9079,-0.4451,-36.1875,21.5000,10.0000,57.3750,57.1875,174.1250,0
1776970346.741,12.3062,3.4357,-1.3048,-0.6989,-1.9777,-0.2659,-86.2500,-22.5000,-4.9500,12.9359,2.9497,-2.5690,-1.2758,1.5599,2.0587,-23.5500,-14.2500,50.1000,5.6200,1.5100,-8.3500,1.0614,2.5918,-0.4701,-36.1875,21.5000,10.0000,57.3750,57.1875,174.1250,0
1776970346.751,11.9207,2.8611,-0.8212,-0.4690,-2.0342,-0.3909,-85.9500,-22.0500,-6.0000,12.3397,2.6647,-1.7502,-1.0664,1.6355,1.9833,-21.6000,-16.9500,50.4000,7.2400,0.9700,-7.2300,0.9850,3.8943,-0.0829,-36.1875,21.5000,10.0000,56.6875,59.3125,173.2500,0
1776970346.755,11.5903,2.4972,-0.8021,-0.3360,-2.2335,-0.5401,-86.2500,-22.5000,-7.9500,11.3509,2.8587,-0.4812,-0.9489,1.6915,1.9244,-20.1000,-19.6500,51.0000,7.2400,0.9700,-7.2300,0.9850,3.8943,-0.0829,-36.1875,21.5000,10.0000,55.7500,62.3125,171.3125,0
1776970346.761,11.5903,2.4972,-0.8021,-0.3360,-2.2335,-0.5401,-86.2500,-22.5000,-7.9500,11.3509,2.8587,-0.4812,-0.9489,1.6915,1.9244,-20.1000,-19.6500,51.0000,10.9400,1.5300,-9.7600,0.9861,5.5316,0.6763,-38.3750,18.5625,9.1875,55.7500,62.3125,171.3125,0
1776970346.765,11.0995,2.4660,-0.4549,-0.2129,-2.6212,-0.6952,-86.2500,-22.5000,-7.9500,12.3876,1.4389,2.2314,-0.7975,1.8764,1.8866,-19.6500,-19.9500,51.0000,10.9400,1.5300,-9.7600,0.9861,5.5316,0.6763,-38.3750,18.5625,9.1875,54.6875,65.5000,168.3750,0
1776970346.770,11.0995,2.4660,-0.4549,-0.2129,-2.6212,-0.6952,-86.2500,-22.5000,-7.9500,12.3876,1.4389,2.2314,-0.7975,1.8764,1.8866,-19.6500,-19.9500,51.0000,12.8400,1.5100,-10.4100,1.0908,6.0334,1.0297,-38.3750,18.5625,9.1875,54.6875,65.5000,168.3750,0
1776970346.775,10.2639,2.0470,1.5562,-0.0386,-2.6276,-0.8284,-86.2500,-20.8500,-10.0500,12.6270,0.4549,3.6152,-0.6840,1.9119,1.8271,-17.8500,-21.4500,50.7000,12.8400,1.5100,-10.4100,1.3624,5.5458,1.0941,-38.3750,18.5625,9.1875,53.4375,68.3750,164.5625,0
1776970346.781,10.3070,1.2258,2.6863,-0.0386,-2.6276,-0.8284,-86.2500,-20.8500,-10.0500,12.6270,0.4549,3.6152,-0.5484,2.0669,1.7693,-17.8500,-21.4500,50.7000,14.7700,1.0800,-10.4100,1.3624,5.5458,1.0941,-38.3750,18.5625,9.1875,52.3125,70.9375,159.8750,0
1776970346.791,10.6303,-0.3400,3.0909,0.2481,-2.3835,-0.9459,-86.2500,-20.8500,-10.0500,12.1506,-0.9218,5.1356,-0.5484,2.0669,1.7693,-17.8500,-21.4500,50.7000,15.3300,0.9600,-9.8300,1.1966,5.2665,1.1148,-38.3750,18.5625,9.1875,52.3125,70.9375,159.8750,0
1776970346.801,11.2791,-1.9178,2.5283,0.4892,-1.9172,-1.0722,-86.8500,-22.6500,-12.4500,12.2104,-1.4054,6.8235,-0.2763,2.2404,1.7224,-16.6500,-21.3000,51.6000,19.7700,0.1200,-12.5500,1.0527,5.5654,1.1585,-38.3750,18.5625,9.1875,51.4375,73.5625,153.6250,0
1776970346.805,11.2791,-1.9178,2.5283,0.7032,-1.6318,-1.1631,-87.0000,-20.1000,-12.7500,11.4706,-2.5426,6.4739,-0.2763,2.2404,1.7224,-15.3000,-22.9500,53.5500,19.7700,0.1200,-12.5500,1.0527,5.5654,1.1585,-38.3750,18.5625,9.1875,51.4375,73.5625,153.6250,0
1776970346.811,11.2025,-2.7342,2.5187,0.7032,-1.6318,-1.1631,-87.0000,-20.1000,-12.7500,10.6757,-3.5745,6.7062,-0.2006,2.0915,1.6721,-15.3000,-22.9500,53.5500,19.4700,0.7000,-14.8600,0.7309,5.3702,1.0112,-39.7500,21.1875,-0.5625,50.8750,75.8125,145.9375,0
1776970346.815,11.2025,-2.7342,2.5187,0.7855,-1.4365,-1.2073,-88.2000,-18.4500,-12.7500,10.6757,-3.5745,6.7062,-0.2006,2.0915,1.6721,-14.1000,-24.3000,52.3500,19.4700,0.7000,-14.8600,0.7309,5.3702,1.0112,-39.7500,21.1875,-0.5625,50.8750,75.8125,145.9375,0
1776970346.820,11.9016,-2.9018,1.6496,0.9531,-1.5700,-1.2092,-88.2000,-18.4500,-12.7500,10.0365,-5.1188,6.5242,-0.2779,1.8810,1.6134,-14.1000,-24.3000,52.3500,15.0800,0.0300,-14.1600,0.7549,4.2684,1.0276,-39.7500,21.1875,-0.5625,50.1875,77.3750,137.5000,0
1776970346.828,11.9016,-2.9018,1.6496,0.9531,-1.5700,-1.2092,-87.0000,-18.1500,-13.5000,10.0365,-5.1188,6.5242,-0.2779,1.8810,1.6134,-14.2500,-22.6500,52.8000,8.0100,1.3000,-12.5500,0.7189,3.6248,1.0745,-39.7500,21.1875,-0.5625,49.5000,78.3125,128.3750,0
1776970346.833,11.8489,-2.8299,1.8172,0.5860,-1.1386,-1.2113,-85.9500,-16.5000,-13.8000,8.1977,-5.3630,6.8833,-0.3200,1.5282,1.4930,-14.2500,-22.6500,52.8000,8.0100,1.3000,-12.5500,0.7189,3.6248,1.0745,-39.7500,21.1875,-0.5625,48.6250,78.6250,118.6875,0
1776970346.841,12.8593,-2.1500,1.4437,0.3376,-1.0645,-1.2068,-85.9500,-16.5000,-13.8000,7.1204,-6.1052,6.5960,-0.5993,1.2609,1.3835,-13.8000,-24.0000,56.2500,3.0400,2.9700,-11.7400,0.7079,3.1710,1.3548,-39.7500,21.1875,-0.5625,47.2500,78.3125,109.9375,0
1776970346.851,12.8066,-1.5036,1.5179,0.2491,-1.0195,-1.1858,-86.5500,-15.9000,-13.2000,6.5673,-7.2640,7.0916,-0.5761,0.8354,1.1874,-13.8000,-24.0000,56.2500,-5.9100,0.6700,-11.6300,1.1334,2.4871,1.7497,-39.7500,21.1875,-0.5625,47.2500,78.3125,109.9375,0
1776970346.856,12.8066,-1.5036,1.5179,0.2491,-1.0195,-1.1858,-86.5500,-15.9000,-13.2000,6.5673,-7.2640,7.0916,-0.5761,0.8354,1.1874,-11.8500,-24.7500,53.7000,-5.9100,0.6700,-11.6300,1.1334,2.4871,1.7497,-39.7500,21.1875,-0.5625,46.0000,77.8750,101.5625,0
1776970346.861,13.1921,-0.5938,1.3144,0.1855,-0.9324,-1.1527,-86.5500,-15.9000,-13.2000,5.2313,-6.5362,7.8219,-0.3251,0.3381,0.8029,-11.8500,-24.7500,53.7000,18.4200,-4.2200,-14.6400,1.1726,2.5864,1.6101,-39.0625,25.5000,-10.0000,46.0000,77.8750,101.5625,0
1776970346.866,13.1921,-0.5938,1.3144,0.1855,-0.9324,-1.1527,-86.7000,-14.2500,-17.5500,5.2313,-6.5362,7.8219,-0.3251,0.3381,0.8029,-12.3000,-25.8000,54.1500,18.4200,-4.2200,-14.6400,1.1726,2.5864,1.6101,-39.0625,25.5000,-10.0000,45.8125,77.1875,94.8750,0
1776970346.871,12.4235,-0.1460,1.6281,0.2046,-1.0219,-1.1002,-86.7000,-14.2500,-17.5500,4.3527,-5.2122,6.1363,-0.6995,-0.0557,0.4919,-12.3000,-25.8000,54.1500,15.5900,-2.3200,-19.3700,-0.6534,2.6060,1.6352,-39.0625,25.5000,-10.0000,45.8125,77.1875,94.8750,0
1776970346.876,12.4235,-0.1460,1.6281,0.2046,-1.0219,-1.1002,-86.7000,-14.2500,-17.5500,4.3527,-5.2122,6.1363,-0.6995,-0.0557,0.4919,-10.8000,-24.0000,54.4500,15.5900,-2.3200,-19.3700,-2.3736,1.0079,2.3867,-39.0625,25.5000,-10.0000,45.8750,75.8750,93.4375,0
1776970346.882,12.3469,0.4357,2.0087,0.2081,-0.9020,-1.1415,-86.7000,-14.2500,-17.5500,5.9520,-3.6990,5.1188,-1.1602,-0.0871,0.2638,-10.8000,-24.0000,54.4500,9.0300,2.1100,-18.6900,-2.3736,1.0079,2.3867,-39.0625,25.5000,-10.0000,45.5000,74.6875,98.0000,0
1776970346.891,12.0764,0.7661,1.8172,0.3584,-0.7394,-1.2313,-86.8500,-14.4000,-17.4000,7.2496,-2.7485,5.2122,-1.4722,-0.3765,0.0946,-11.2500,-25.5000,53.7000,3.4400,4.2400,-13.9000,-1.6635,-1.9122,1.9166,-39.0625,25.5000,-10.0000,44.1875,73.3750,103.7500,0
1776970346.901,12.0476,1.0008,2.2051,0.5913,-0.5137,-1.3201,-86.7000,-12.3000,-17.8500,6.3686,-2.0375,4.6184,-1.3078,-0.7869,-0.2009,-11.2500,-25.5000,53.7000,-2.7400,4.0000,-3.9200,-0.4222,-3.2463,1.8773,-39.0625,25.5000,-10.0000,44.1875,73.3750,103.7500,0
1776970346.906,11.7962,1.0846,2.0566,0.5913,-0.5137,-1.3201,-86.1000,-13.2000,-17.4000,6.3686,-2.0375,4.6184,-1.3078,-0.7869,-0.2009,-11.2500,-25.5000,53.7000,-2.7400,4.0000,-3.9200,-0.4222,-3.2463,1.8773,-39.0625,25.5000,-10.0000,42.9375,72.0625,107.7500,0
1776970346.911,11.7962,1.0846,2.0566,0.8404,-0.3421,-1.3504,-86.1000,-13.2000,-17.4000,5.4731,-1.8771,4.3407,-0.7973,-1.0451,-0.4549,-11.2500,-25.5000,53.7000,-1.7400,3.6200,-4.0800,-0.2651,-2.7467,1.6690,-37.2500,27.0000,-15.8750,42.9375,72.0625,107.7500,0
1776970346.916,11.0277,0.9768,2.0806,0.8404,-0.3421,-1.3504,-86.1000,-12.9000,-17.4000,5.4731,-1.8771,4.3407,-0.7973,-1.0451,-0.4549,-13.8000,-25.0500,50.8500,-1.7400,3.6200,-4.0800,-0.2651,-2.7467,1.6690,-37.2500,27.0000,-15.8750,41.8125,70.9375,110.1875,0
1776970346.921,11.0277,0.9768,2.0806,1.1357,-0.2212,-1.3915,-86.1000,-12.9000,-17.4000,5.1284,-2.3822,4.3742,-0.1151,-1.2516,-0.7096,-13.8000,-25.0500,50.8500,-0.8600,3.3900,-4.7600,-0.1254,-1.9984,1.4268,-37.2500,27.0000,-15.8750,41.8125,70.9375,110.1875,0
1776970346.929,11.1259,0.3998,1.8771,1.4381,-0.2324,-1.4365,-85.8000,-10.9500,-17.4000,5.1667,-3.7182,4.3407,0.4538,-1.4773,-1.0539,-13.2000,-23.4000,51.0000,1.7400,1.7700,-6.2000,0.0120,-1.6352,1.1890,-37.2500,27.0000,-15.8750,40.8125,70.0000,111.9375,0
1776970346.934,11.1259,0.3998,1.8771,1.4381,-0.2324,-1.4365,-87.0000,-10.6500,-18.3000,5.1667,-3.7182,4.3407,0.4538,-1.4773,-1.0539,-15.1500,-24.3000,50.5500,1.7400,1.7700,-6.2000,0.0120,-1.6352,1.1890,-37.2500,27.0000,-15.8750,39.8750,69.1250,113.6250,0
1776970346.941,10.7308,-0.3017,1.8292,1.7038,-0.2350,-1.4653,-87.0000,-10.6500,-18.3000,5.0973,-5.0589,4.2832,0.8799,-1.7307,-1.4013,-15.1500,-24.3000,50.5500,2.7000,0.7900,-7.4100,0.0982,-1.6984,0.9479,-37.2500,27.0000,-15.8750,38.6875,68.2500,115.8125,0
1776970346.951,10.3908,-0.3232,1.6783,2.0427,-0.4724,-1.4743,-87.0000,-10.6500,-18.3000,5.1068,-5.5737,4.5993,0.9840,-1.9961,-1.6339,-14.8500,-23.2500,50.1000,3.4800,-0.8300,-7.4600,0.5061,-2.2515,0.7461,-37.2500,27.0000,-15.8750,38.6875,68.2500,115.8125,0
1776970346.956,10.1299,-0.3543,1.5897,2.2924,-0.4924,-1.4437,-87.4500,-9.1500,-17.1000,5.0685,-5.4348,4.4556,0.9148,-2.1125,-1.7312,-14.8500,-23.2500,50.1000,3.4800,-0.8300,-7.4600,0.5061,-2.2515,0.7461,-37.2500,27.0000,-15.8750,38.6875,68.2500,115.8125,0
1776970346.961,10.1299,-0.3543,1.5897,2.2924,-0.4924,-1.4437,-87.4500,-9.1500,-17.1000,5.0685,-5.4348,4.4556,0.9148,-2.1125,-1.7312,-14.8500,-23.2500,50.1000,4.0000,-1.1900,-7.2100,0.3043,-2.8133,0.5618,-37.8750,32.1875,-16.3750,37.5625,67.2500,118.6875,0
1776970346.966,10.0916,-0.2586,1.4461,2.4650,-0.5065,-1.3851,-87.4500,-9.1500,-17.1000,5.7581,-5.4420,4.7381,0.8045,-2.3627,-1.7896,-18.6000,-21.1500,47.8500,4.0000,-1.1900,-7.2100,0.3043,-2.8133,0.5618,-37.8750,32.1875,-16.3750,37.5625,67.2500,118.6875,0
1776970346.971,10.0916,-0.2586,1.4461,2.4650,-0.5065,-1.3851,-87.4500,-9.1500,-17.1000,5.7581,-5.4420,4.7381,0.8045,-2.3627,-1.7896,-18.6000,-21.1500,47.8500,3.6700,-0.8100,-6.7400,-0.1396,-3.2790,0.3731,-37.8750,32.1875,-16.3750,36.6875,66.1250,122.1875,0
1776970346.976,10.0269,-0.5602,1.6376,2.4725,-0.3323,-1.3113,-86.1000,-8.5500,-18.4500,6.2034,-5.1691,4.8219,0.7144,-2.5141,-1.8431,-19.9500,-19.8000,48.0000,3.6700,-0.8100,-6.7400,-0.4832,-3.4939,0.1996,-37.8750,32.1875,-16.3750,36.0000,64.9375,125.8750,0
1776970346.982,10.0269,-0.5602,1.6376,2.4725,-0.3323,-1.3113,-86.1000,-8.5500,-18.4500,6.2034,-5.1691,4.8219,0.7144,-2.5141,-1.8431,-22.0500,-19.0500,47.7000,3.9800,-0.4100,-6.3200,-0.4832,-3.4939,0.1996,-37.8750,32.1875,-16.3750,35.5000,63.8125,129.3750,0
1776970346.991,10.3046,-0.9457,1.6472,2.5463,-0.4231,-1.2580,-85.5000,-9.1500,-17.8500,6.0885,-5.3822,4.3886,0.7003,-2.6281,-1.9497,-21.6000,-17.7000,45.7500,4.8600,0.0400,-6.2400,-0.6054,-3.4808,-0.0065,-37.8750,32.1875,-16.3750,35.5000,63.8125,129.3750,0
1776970347.001,9.5648,-1.4844,1.8292,2.4491,-0.3504,-1.1938,-85.0500,-6.6000,-18.4500,6.1459,-4.6807,3.9863,0.8074,-2.6779,-2.0656,-23.7000,-16.9500,45.3000,6.9400,0.5900,-6.3000,-0.6076,-3.6434,-0.2062,-37.8750,32.1875,-16.3750,35.0625,62.5625,132.8750,0
1776970347.006,9.1818,-1.9489,1.8196,2.2886,-0.3837,-1.1370,-85.8000,-6.1500,-18.4500,6.2848,-3.7206,3.4046,1.1892,-2.7294,-2.2172,-23.7000,-16.9500,45.3000,6.9400,0.5900,-6.3000,-0.6076,-3.6434,-0.2062,-37.8750,32.1875,-16.3750,35.0625,62.5625,132.8750,0
1776970347.011,9.1818,-1.9489,1.8196,2.2886,-0.3837,-1.1370,-85.8000,-6.1500,-18.4500,6.2848,-3.7206,3.4046,1.1892,-2.7294,-2.2172,-23.7000,-16.9500,45.3000,7.5100,0.5100,-5.9800,-0.5716,-3.9619,-0.4734,-47.5625,36.8750,-11.0625,34.6875,61.1875,136.5000,0
1776970347.016,9.1099,-2.2338,1.3360,2.0941,-0.4967,-1.0922,-86.1000,-6.1500,-17.7000,6.4236,-3.5482,3.1867,1.6457,-2.8320,-2.3307,-23.7000,-16.9500,45.3000,7.5100,0.5100,-5.9800,-0.5716,-3.9619,-0.4734,-47.5625,36.8750,-11.0625,34.6875,61.1875,136.5000,0
1776970347.021,9.1099,-2.2338,1.3360,2.0941,-0.4967,-1.0922,-86.1000,-6.1500,-17.7000,6.4236,-3.5482,3.1867,1.6457,-2.8320,-2.3307,-23.7000,-14.4000,43.9500,7.9600,0.5000,-5.7700,-0.5007,-4.1702,-0.8214,-47.5625,36.8750,-11.0625,34.3125,59.7500,140.0625,0
1776970347.027,8.6526,-2.3774,0.7183,1.8711,-0.5865,-1.0443,-85.3500,-7.3500,-18.7500,7.2903,-4.1061,3.9576,2.0403,-2.9964,-2.4022,-23.7000,-14.4000,43.9500,7.8100,0.4500,-5.4100,-0.4047,-4.3306,-1.2130,-47.5625,36.8750,-11.0625,34.0625,58.3125,143.6250,0
1776970347.032,8.0828,-2.2529,0.2658,1.5569,-0.4519,-0.9798,-85.3500,-7.3500,-18.7500,7.2903,-4.1061,3.9576,2.0403,-2.9964,-2.4022,-26.2500,-13.9500,41.8500,7.8100,0.4500,-5.4100,-0.4047,-4.3306,-1.2130,-47.5625,36.8750,-11.0625,33.8750,56.8750,147.0625,0
1776970347.041,8.2480,-1.8699,0.0383,1.5569,-0.4519,-0.9798,-85.3500,-7.3500,-18.7500,8.3582,-4.8985,5.2577,2.1597,-3.2165,-2.4323,-27.0000,-12.1500,42.1500,8.2200,0.0200,-5.7300,-0.2727,-4.2411,-1.6352,-47.5625,36.8750,-11.0625,33.8750,56.8750,147.0625,0
1776970347.051,7.9152,-1.4174,-0.2083,1.1474,-0.3848,-0.9014,-86.1000,-5.4000,-18.7500,8.8945,-5.0302,5.8323,1.8634,-3.3710,-2.4152,-28.0500,-10.6500,41.1000,8.3900,-0.1300,-6.3000,-0.1560,-4.0753,-1.9275,-47.5625,36.8750,-11.0625,33.8750,55.5000,150.3125,0
1776970347.056,7.9152,-1.4174,-0.2083,1.1474,-0.3848,-0.9014,-85.2000,-5.5500,-19.0500,9.2105,-5.3965,5.3846,1.3483,-3.4368,-2.3859,-28.0500,-10.6500,41.1000,8.3900,-0.1300,-6.3000,-0.1560,-4.0753,-1.9275,-47.5625,36.8750,-11.0625,33.7500,54.0625,153.1875,0
1776970347.061,7.5705,-0.3615,-0.2131,1.0645,-0.3035,-0.8572,-85.2000,-5.5500,-19.0500,9.2105,-5.3965,5.3846,1.3483,-3.4368,-2.3859,-28.0500,-10.6500,41.1000,9.9400,-1.7200,-7.4300,0.0076,-4.0099,-2.0628,-53.7500,35.2500,10.2500,33.7500,54.0625,153.1875,0
1776970347.066,7.5705,-0.3615,-0.2131,1.0645,-0.3035,-0.8572,-84.4500,-4.8000,-20.5500,9.0190,-4.7980,4.8770,1.0981,-3.5125,-2.3776,-28.0500,-10.6500,41.1000,9.9400,-1.7200,-7.4300,0.0076,-4.0099,-2.0628,-53.7500,35.2500,10.2500,33.6875,52.5625,155.8750,0
1776970347.071,7.4747,0.2801,-0.1556,1.0621,-0.0602,-0.7837,-84.4500,-4.8000,-20.5500,9.0190,-4.7980,4.8770,1.0981,-3.5125,-2.3776,-28.9500,-6.7500,38.4000,12.1000,-2.1200,-8.2900,0.0425,-3.9390,-2.0791,-53.7500,35.2500,10.2500,33.6875,52.5625,155.8750,0
1776970347.076,7.4747,0.2801,-0.1556,1.0621,-0.0602,-0.7837,-85.5000,-4.0500,-19.0500,8.4946,-3.5506,4.3311,1.1511,-3.5250,-2.3782,-28.9500,-6.7500,38.4000,12.1000,-2.1200,-8.2900,-0.1047,-4.0088,-2.0606,-53.7500,35.2500,10.2500,33.6875,51.0000,158.3750,0
1776970347.082,7.5968,-0.2322,0.0958,1.0821,0.1234,-0.7069,-85.5000,-4.0500,-19.0500,7.9775,-2.2170,3.8116,1.4528,-3.4816,-2.3992,-29.7000,-8.2500,38.7000,13.6700,-1.6200,-8.6700,-0.1047,-4.0088,-2.0606,-53.7500,35.2500,10.2500,33.7500,49.1875,160.6875,0
1776970347.091,7.9487,-1.2019,-0.1006,1.1916,0.0695,-0.6395,-85.0500,-4.2000,-18.4500,8.3749,-1.5826,3.2705,1.9108,-3.4102,-2.4459,-29.8500,-5.7000,34.9500,14.4200,-0.3200,-8.6900,-0.2236,-4.1364,-1.9657,-53.7500,35.2500,10.2500,33.7500,49.1875,160.6875,0
1776970347.101,7.7333,-1.9034,-0.3112,1.2804,0.0608,-0.5761,-84.7500,-4.5000,-19.0500,9.5122,-1.8986,3.8906,2.4195,-3.3739,-2.5077,-30.6000,-4.9500,35.4000,14.1700,2.0200,-7.6700,-0.0742,-4.2761,-1.8795,-53.7500,35.2500,10.2500,33.5000,47.3125,162.6250,0
1776970347.106,7.7333,-1.9034,-0.3112,1.2804,0.0608,-0.5761,-84.7500,-4.5000,-19.0500,9.5122,-1.8986,3.8906,2.4195,-3.3739,-2.5077,-30.6000,-4.9500,35.4000,14.1700,2.0200,-7.6700,-0.0742,-4.2761,-1.8795,-53.7500,35.2500,10.2500,33.5000,47.3125,162.6250,0
1776970347.111,7.8721,-1.1875,-0.9888,1.3595,0.1252,-0.4711,-84.7500,-4.5000,-19.0500,10.1801,-1.9393,3.7757,2.7041,-3.3332,-2.5317,-29.1000,-4.2000,33.3000,13.8800,2.6700,-7.2400,0.2847,-4.3393,-1.8522,-41.6875,24.3750,29.5000,32.8125,45.2500,164.2500,0
1776970347.116,7.8721,-1.1875,-0.9888,1.3595,0.1252,-0.4711,-85.0500,-3.0000,-18.4500,10.1801,-1.9393,3.7757,2.7041,-3.3332,-2.5317,-29.1000,-4.2000,33.3000,13.8800,2.6700,-7.2400,0.2847,-4.3393,-1.8522,-41.6875,24.3750,29.5000,32.8125,45.2500,164.2500,0
1776970347.121,8.0852,0.1053,-1.4437,1.4866,0.2787,-0.3254,-85.0500,-3.0000,-18.4500,10.7763,-2.5474,3.7182,2.7693,-3.2810,-2.4813,-29.1000,-4.2000,33.3000,13.5200,2.8100,-6.9500,0.6752,-4.2553,-1.9210,-41.6875,24.3750,29.5000,31.6250,43.2500,165.4375,0
1776970347.127,8.5042,0.7709,-1.5395,1.4866,0.2787,-0.3254,-85.0500,-3.0000,-18.4500,10.7763,-2.5474,3.7182,2.7693,-3.2810,-2.4813,-29.1000,-4.2000,33.3000,12.9000,1.1700,-6.1800,0.9839,-4.1561,-2.0813,-41.6875,24.3750,29.5000,59.7500,41.3125,166.4375,0
1776970347.132,8.5042,0.7709,-1.5395,1.6438,0.3275,-0.2070,-85.0500,-3.0000,-18.4500,10.3669,-2.9209,3.6057,2.8184,-3.2575,-2.4331,-31.5000,0.0000,30.9000,12.9000,1.1700,-6.1800,0.9839,-4.1561,-2.0813,-41.6875,24.3750,29.5000,58.0625,39.3750,167.3125,0
1776970347.141,8.6287,0.9529,-1.7166,1.7520,0.2174,-0.1196,-84.6000,-3.9000,-18.0000,9.8928,-3.2058,3.4285,2.7648,-3.2098,-2.3915,-31.6500,0.1500,31.0500,12.5800,0.4600,-5.9600,1.1192,-4.0939,-2.2406,-41.6875,24.3750,29.5000,58.0625,39.3750,167.3125,0
1776970347.152,8.5449,1.1636,-1.6185,1.6760,0.1998,-0.0735,-84.4500,-3.6000,-17.8500,9.8426,-3.1603,3.2992,2.6556,-3.1570,-2.3206,-33.7500,1.0500,30.6000,12.2400,-0.1100,-5.8000,1.1323,-3.9335,-2.3049,-41.6875,24.3750,29.5000,56.3125,37.5625,168.0000,0
1776970347.156,8.2648,0.9194,-1.2785,1.6760,0.1998,-0.0735,-84.6000,-4.6500,-17.7000,9.8426,-3.1603,3.2992,2.6556,-3.1570,-2.3206,-33.7500,1.0500,30.6000,12.2400,-0.1100,-5.8000,1.1323,-3.9335,-2.3049,-41.6875,24.3750,29.5000,54.6875,35.7500,168.6250,0
1776970347.161,8.2648,0.9194,-1.2785,1.4770,0.2313,-0.0290,-84.6000,-4.6500,-17.7000,10.0006,-3.0287,3.0191,2.4112,-3.1157,-2.2473,-32.4000,2.7000,28.9500,11.9000,-1.8200,-6.1900,1.1148,-3.7143,-2.2798,-22.7500,19.5000,31.3750,54.6875,35.7500,168.6250,0
1776970347.166,7.8051,0.5483,-0.8906,1.2537,0.2214,0.0474,-84.0000,-3.3000,-18.3000,10.0006,-3.0287,3.0191,2.4112,-3.1157,-2.2473,-32.4000,2.7000,28.9500,11.9000,-1.8200,-6.1900,1.1148,-3.7143,-2.2798,-22.7500,19.5000,31.3750,53.1250,34.1250,169.1875,0
1776970347.171,7.8051,0.5483,-0.8906,1.2537,0.2214,0.0474,-84.0000,-3.3000,-18.3000,10.0652,-2.7438,2.6504,2.0755,-3.1054,-2.1530,-30.4500,2.2500,28.8000,11.7500,-2.3800,-6.6700,1.0101,-3.4863,-2.1489,-22.7500,19.5000,31.3750,53.1250,34.1250,169.1875,0
1776970347.176,7.5465,0.1891,-0.4788,1.0453,0.2814,0.1351,-85.5000,-3.6000,-17.8500,10.0652,-2.7438,2.6504,2.0755,-3.1054,-2.1530,-30.4500,2.2500,28.8000,11.7500,-2.3800,-6.6700,0.8814,-3.3499,-1.9919,-22.7500,19.5000,31.3750,51.7500,32.5000,169.6250,0
1776970347.182,7.5465,0.1891,-0.4788,1.0453,0.2814,0.1351,-85.5000,-3.6000,-17.8500,10.0461,-2.6288,1.9752,1.6220,-3.1075,-2.0709,-30.4500,2.2500,28.8000,11.8200,-3.0000,-7.1200,0.8814,-3.3499,-1.9919,-22.7500,19.5000,31.3750,50.5000,30.8750,170.0000,0
1776970347.192,7.5298,0.1125,-0.3112,0.8604,0.2918,0.2228,-84.6000,-4.2000,-18.0000,10.2687,-1.9034,1.1779,1.1826,-3.0563,-1.9764,-31.6500,4.6500,25.3500,12.1200,-3.6600,-7.5800,0.7309,-3.2943,-1.7824,-22.7500,19.5000,31.3750,50.5000,30.8750,170.0000,0
1776970347.202,7.7907,0.5004,-0.7207,0.6979,0.2337,0.3160,-84.6000,-4.2000,-18.0000,10.0293,-1.2617,0.6584,0.7202,-3.0012,-1.8879,-29.8500,5.4000,24.0000,12.1600,-3.5700,-7.3600,0.4701,-3.1492,-1.4519,-22.7500,19.5000,31.3750,49.4375,29.2500,170.3750,0
1776970347.206,8.2504,1.2378,-1.2258,0.5105,0.1943,0.3509,-83.4000,-3.9000,-18.4500,10.0293,-1.2617,0.6584,0.7202,-3.0012,-1.8879,-29.8500,5.4000,24.0000,12.1600,-3.5700,-7.3600,0.4701,-3.1492,-1.4519,-22.7500,19.5000,31.3750,48.7500,27.9375,170.7500,0
1776970347.212,8.2504,1.2378,-1.2258,0.5105,0.1943,0.3509,-83.4000,-3.9000,-18.4500,9.7085,-0.8787,0.3184,0.3464,-2.8621,-1.8165,-30.3000,5.7000,22.9500,12.7000,-3.5500,-7.9500,0.1647,-2.5602,-1.1039,-15.5000,19.0625,26.1875,48.7500,27.9375,170.7500,0
1776970347.216,8.6095,1.7549,-1.7502,0.4042,0.1655,0.2904,-83.4000,-3.9000,-18.4500,9.7085,-0.8787,0.3184,0.0570,-2.7446,-1.7645,-30.3000,5.7000,22.9500,12.7000,-3.5500,-7.9500,0.1647,-2.5602,-1.1039,-15.5000,19.0625,26.1875,48.1875,26.8750,171.0000,0
1776970347.222,8.6095,1.7549,-1.7502,0.4042,0.1655,0.2904,-83.4000,-3.9000,-18.4500,9.2105,-0.7278,-0.1341,0.0570,-2.7446,-1.7645,-31.2000,6.3000,23.4000,13.3400,-3.7200,-8.6300,0.0731,-2.1631,-0.7527,-15.5000,19.0625,26.1875,48.1875,26.8750,171.0000,0
1776970347.230,8.6646,1.9920,-2.2673,0.3549,0.2196,0.2345,-84.0000,-6.0000,-18.3000,9.0692,-0.3998,-0.4788,-0.1583,-2.5548,-1.7280,-31.2000,6.3000,23.4000,12.8800,-4.0700,-8.0800,0.0425,-2.2427,-0.2880,-15.5000,19.0625,26.1875,47.9375,25.6250,171.1875,0
1776970347.235,8.9519,2.1404,-2.9042,0.2904,0.2974,0.1916,-84.0000,-6.0000,-18.3000,9.0692,-0.3998,-0.4788,-0.1583,-2.5548,-1.7280,-31.2000,6.3000,23.4000,12.8800,-4.0700,-8.0800,0.0425,-2.2427,-0.2880,-15.5000,19.0625,26.1875,47.9375,24.3125,171.2500,0
1776970347.242,8.9519,2.1404,-2.9042,0.2904,0.2974,0.1916,-85.0500,-3.9000,-18.4500,9.0549,-0.3807,-0.6440,-0.3704,-2.3422,-1.6702,-31.6500,8.7000,22.5000,12.0100,-4.3800,-7.3200,-0.0218,-2.3900,0.1789,-15.5000,19.0625,26.1875,48.1875,22.9375,171.3125,0
1776970347.252,8.7245,2.3774,-3.2705,0.2212,0.3456,0.1170,-85.2000,-4.5000,-17.5500,8.8921,-0.2562,-0.9960,-0.5923,-2.1205,-1.5937,-29.8500,8.4000,19.0500,11.1100,-4.6200,-6.5600,-0.2171,-2.3867,0.5509,-15.5000,19.0625,26.1875,48.1875,22.9375,171.3125,0
1776970347.257,8.7245,2.3774,-3.2705,0.1444,0.4325,0.0450,-85.2000,-4.5000,-17.5500,9.0190,-0.6225,-1.2210,-0.8804,-1.8985,-1.5114,-30.1500,10.5000,17.4000,11.1100,-4.6200,-6.5600,-0.2171,-2.3867,0.5509,-15.5000,19.0625,26.1875,48.1875,22.9375,171.3125,0
1776970347.262,8.5042,2.3822,-3.0430,0.1444,0.4325,0.0450,-85.5000,-4.5000,-18.3000,9.0190,-0.6225,-1.2210,-0.8804,-1.8985,-1.5114,-30.1500,10.5000,17.4000,9.3900,-4.8100,-5.2100,-0.5421,-2.2602,0.8508,-14.1875,19.0000,21.2500,48.6250,21.6250,171.5000,0
1776970347.267,8.5042,2.3822,-3.0430,0.0245,0.5761,-0.0027,-85.2000,-5.5500,-18.3000,9.0740,-0.5602,0.8475,-0.8855,-1.8405,-1.4594,-31.2000,9.7500,16.3500,9.3900,-4.8100,-5.2100,-0.5421,-2.2602,0.8508,-14.1875,19.0000,21.2500,48.6250,21.6250,171.5000,0
1776970347.272,8.1044,2.2098,-2.9736,0.0245,0.5761,-0.0027,-85.2000,-5.5500,-16.3500,9.0740,-0.5602,0.8475,-0.8855,-1.8405,-1.4594,-31.2000,9.7500,16.3500,8.7000,-4.9700,-4.5800,-0.9065,-2.1195,1.0941,-14.1875,19.0000,21.2500,49.2500,20.3750,171.8125,0
1776970347.277,8.1044,2.2098,-2.9736,-0.2142,0.7258,-0.0218,-85.2000,-5.5500,-16.3500,8.2384,0.6943,-0.7925,-1.4330,-1.7424,-1.2716,-30.3000,10.6500,17.5500,8.7000,-4.9700,-4.5800,-1.2370,-1.9133,1.3035,-14.1875,19.0000,21.2500,50.0000,19.2500,172.3125,0
1776970347.282,7.9751,2.2817,-2.9640,-0.4826,0.8849,-0.0024,-83.7000,-4.8000,-16.8000,8.2384,0.6943,-0.7925,-1.4330,-1.7424,-1.2716,-30.3000,10.6500,17.5500,7.9600,-5.3700,-4.1900,-1.2370,-1.9133,1.3035,-14.1875,19.0000,21.2500,50.9375,18.1875,172.8750,0
1776970347.292,8.2432,2.7485,-2.7007,-0.7799,0.9582,0.0075,-83.7000,-4.8000,-16.8000,8.2241,0.3208,-1.8028,-1.9300,-1.5495,-1.0789,-30.3000,10.6500,17.5500,7.7000,-6.2500,-3.6800,-1.5130,-1.6952,1.5130,-14.1875,19.0000,21.2500,52.0000,17.3125,173.6250,0
1776970347.302,8.4994,3.6488,-2.4636,-1.1194,0.9569,-0.0272,-84.0000,-3.6000,-17.1000,8.0541,0.9098,-1.7095,-2.1837,-1.4674,-0.8831,-30.1500,10.8000,15.9000,8.2900,-5.8700,-2.8700,-1.8064,-1.4726,1.7508,-14.1875,19.0000,21.2500,52.0000,17.3125,173.6250,0
1776970347.307,8.4994,3.6488,-2.4636,-1.1194,0.9569,-0.0272,-84.0000,-3.6000,-17.1000,8.2528,1.8172,-1.8483,-2.4818,-1.3291,-0.6829,-29.7000,12.0000,15.3000,8.2900,-5.8700,-2.8700,-1.8064,-1.4726,1.7508,-14.1875,19.0000,21.2500,53.2500,16.5625,174.4375,0
1776970347.312,9.1842,3.3830,-2.0375,-1.4115,1.0032,0.0011,-84.0000,-3.6000,-17.1000,8.2528,1.8172,-1.8483,-2.4818,-1.3291,-0.6829,-29.7000,12.0000,15.3000,8.5800,-5.4100,-2.7300,-2.0857,-1.1530,2.0180,-13.3750,18.3750,17.7500,53.2500,16.5625,174.4375,0
1776970347.317,9.1842,3.3830,-2.0375,-1.4115,1.0032,0.0011,-84.0000,-3.6000,-17.1000,7.6519,2.0901,-1.8866,-2.6526,-1.0818,-0.5156,-28.0500,13.2000,14.4000,8.5800,-5.4100,-2.7300,-2.0857,-1.1530,2.0180,-13.3750,18.3750,17.7500,54.6875,15.9375,175.3125,0
1776970347.322,9.5170,3.6224,-2.5522,-1.6438,1.1183,0.0626,-83.1000,-3.9000,-16.9500,7.6519,2.0901,-1.8866,-2.6526,-1.0818,-0.5156,-28.0500,13.2000,14.4000,8.6400,-4.9300,-2.4100,-2.1915,-0.8934,2.2897,-13.3750,18.3750,17.7500,54.6875,15.9375,175.3125,0
1776970347.331,9.5481,3.7014,-2.7461,-1.6065,1.1040,0.0080,-83.8500,-5.4000,-15.9000,7.2903,2.6432,-2.4349,-2.8008,-0.8679,-0.3011,-28.6500,13.8000,14.5500,8.1900,-4.7200,-1.0800,-2.1293,-0.6992,2.5624,-13.3750,18.3750,17.7500,56.2500,15.4375,176.1250,0
1776970347.338,9.5481,3.7014,-2.7461,-1.6065,1.1040,0.0080,-83.1000,-5.4000,-13.9500,6.9863,2.2218,-3.3088,-2.9473,-0.5777,-0.1085,-28.6500,13.8000,14.5500,8.1900,-4.7200,-1.0800,-1.9755,-0.4494,2.8383,-13.3750,18.3750,17.7500,58.0000,15.0625,176.7500,0
1776970347.343,9.5600,3.6368,-3.0023,-1.5364,1.1850,-0.0570,-83.1000,-5.4000,-13.9500,6.9145,1.6544,-3.5578,-2.9985,-0.2774,0.0285,-28.6500,13.8000,14.5500,8.3700,-4.9200,-0.5800,-1.9755,-0.4494,2.8383,-13.3750,18.3750,17.7500,59.8750,14.9375,177.3750,0
1776970347.352,9.5960,3.3423,-3.0502,-1.4994,1.1032,-0.1186,-84.0000,-5.2500,-14.5500,7.2856,1.3240,-3.0239,-3.0435,-0.0711,0.1721,-28.6500,13.8000,14.5500,8.9100,-5.0800,-0.2600,-1.8926,-0.0644,3.1154,-13.3750,18.3750,17.7500,59.8750,14.9375,177.3750,0
1776970347.357,9.5960,3.3423,-3.0502,-1.4994,1.1032,-0.1186,-84.0000,-5.2500,-14.5500,7.2856,1.3240,-3.0239,-3.0435,-0.0711,0.1721,-26.2500,13.9500,13.6500,8.9100,-5.0800,-0.2600,-1.8926,-0.0644,3.1154,-13.3750,18.3750,17.7500,61.8750,15.0625,177.9375,0
1776970347.362,9.4499,3.1388,-2.7964,-1.5839,1.0936,-0.1383,-84.0000,-5.2500,-14.2500,7.0485,0.8547,-2.4636,-3.1581,0.1450,0.2998,-26.2500,13.9500,13.6500,9.9800,-4.5900,-0.3400,-1.9133,0.3469,3.3772,-15.2500,18.2500,18.1875,61.8750,15.0625,177.9375,0
1776970347.367,9.4499,3.1388,-2.7964,-1.5839,1.0936,-0.1383,-84.0000,-5.2500,-14.2500,7.0485,0.8547,-2.4636,-3.1581,0.1450,0.2998,-29.1000,14.4000,13.9500,9.9800,-4.5900,-0.3400,-1.9133,0.3469,3.3772,-15.2500,18.2500,18.1875,64.0000,15.3750,178.5000,0
1776970347.372,9.3063,3.1436,-2.6408,-1.7112,1.1165,-0.1330,-84.0000,-3.6000,-13.5000,7.3071,0.9146,-1.7789,-3.2559,0.3635,0.4503,-29.1000,14.4000,13.9500,10.0300,-3.7200,-0.3500,-2.0202,0.5880,3.5997,-15.2500,18.2500,18.1875,64.0000,15.3750,178.5000,0
1776970347.378,9.1889,2.9113,-2.4493,-1.8636,1.2188,-0.0879,-84.0000,-3.6000,-13.5000,7.3071,0.9146,-1.7789,-3.2559,0.3635,0.4503,-27.6000,14.2500,14.8500,9.8300,-2.5700,-0.6100,-2.1653,0.7898,3.7230,-15.2500,18.2500,18.1875,66.2500,15.7500,179.1250,0
1776970347.383,9.1889,2.9113,-2.4493,-1.8636,1.2188,-0.0879,-84.0000,-3.6000,-13.5000,7.9224,1.2498,-1.6328,-3.3159,0.6006,0.5822,-27.6000,14.2500,14.8500,9.8300,-2.5700,-0.6100,-2.1653,0.7898,3.7230,-15.2500,18.2500,18.1875,68.5000,16.3125,179.7500,0
1776970347.392,8.8322,2.2697,-2.1045,-2.1011,1.6856,-0.0021,-82.6500,-4.9500,-13.6500,8.3941,1.5155,-1.6520,-3.3001,0.7783,0.6891,-28.5000,14.4000,15.4500,9.5500,-1.2000,-0.9900,-2.2602,1.0003,3.7252,-15.2500,18.2500,18.1875,70.6875,16.9375,-179.5625,0
1776970347.402,9.0166,1.8818,-1.7693,-2.1671,1.5412,0.0762,-82.6500,-4.9500,-13.6500,8.4156,1.9010,-1.6352,-3.1419,1.0072,0.7815,-28.5000,14.4000,15.4500,9.3700,1.3400,-2.0700,-2.2067,1.2228,3.6172,-15.2500,18.2500,18.1875,70.6875,16.9375,-179.5625,0
1776970347.407,8.8873,1.9992,-0.8787,-2.2015,1.5066,0.1220,-82.6500,-4.9500,-13.6500,8.4156,1.9010,-1.6352,-3.1419,1.0072,0.7815,-30.1500,15.0000,15.9000,9.3700,1.3400,-2.0700,-2.2067,1.2228,3.6172,-15.2500,18.2500,18.1875,70.6875,16.9375,-179.5625,0
1776970347.412,8.8873,1.9992,-0.8787,-2.2015,1.5066,0.1220,-81.7500,-6.0000,-11.5500,8.2097,2.0566,-1.3144,-2.7643,1.2489,0.8657,-30.1500,15.0000,15.9000,10.0700,2.0900,-2.9200,-2.0213,1.5064,3.3958,-15.2500,20.0625,17.5000,72.7500,17.8125,-179.0000,0
1776970347.417,8.6072,2.4828,-0.8236,-2.2242,1.6401,0.1948,-81.7500,-6.0000,-11.5500,8.2097,2.0566,-1.3144,-2.7643,1.2489,0.8657,-28.0500,14.7000,14.7000,10.0700,2.0900,-2.9200,-2.0213,1.5064,3.3958,-15.2500,20.0625,17.5000,72.7500,17.8125,-179.0000,0
1776970347.422,8.6072,2.4828,-0.8236,-2.2242,1.6401,0.1948,-83.8500,-6.9000,-11.8500,7.9176,2.2649,-1.9082,-2.2076,1.4589,0.9697,-28.0500,14.7000,14.7000,10.9500,2.8500,-3.9100,-1.8108,1.7606,3.0281,-15.2500,20.0625,17.5000,74.5625,18.8125,-178.5625,0
1776970347.428,8.3342,3.1699,-0.7685,-1.7573,1.3446,0.2649,-84.0000,-7.2000,-11.2500,7.9176,2.2649,-1.9082,-2.2076,1.4589,0.9697,-27.9000,13.8000,16.6500,12.4100,5.5900,-6.5600,-1.5828,1.8195,2.5482,-15.2500,20.0625,17.5000,76.1250,19.8750,-178.1875,0
1776970347.433,8.3342,3.1699,-0.7685,-1.7573,1.3446,0.2649,-84.0000,-7.2000,-11.2500,8.2600,5.5402,1.9537,-1.1450,1.7872,0.9036,-28.8000,14.4000,18.6000,12.4100,5.5900,-6.5600,-1.5828,1.8195,2.5482,-15.2500,20.0625,17.5000,77.3125,20.8125,-177.9375,0
1776970347.442,7.9392,3.4884,0.0862,-1.0539,1.2345,0.3997,-83.2500,-6.4500,-12.3000,11.8082,7.1970,-5.2122,-1.8908,2.0478,0.8540,-28.8000,14.4000,18.6000,-2.7600,16.3700,-11.8000,-1.0843,1.6646,1.9450,-15.2500,20.0625,17.5000,78.8125,22.9375,-178.5000,0
1776970347.452,7.6423,2.9808,1.5275,-0.3238,0.9132,0.6334,-83.2500,-6.0000,-9.7500,13.3764,10.2663,-4.5298,-0.6534,1.2889,0.3387,-28.2000,13.8000,17.4000,0.6400,19.6600,-22.4500,-0.0960,3.6881,2.7936,-15.2500,20.0625,17.5000,78.8125,22.9375,-178.5000,0
1776970347.457,8.2528,2.7629,3.2968,-0.0376,0.5910,0.8354,-83.2500,-6.0000,-9.7500,13.3764,10.2663,-4.5298,-0.6534,1.2889,0.3387,-28.2000,13.8000,17.4000,0.6400,19.6600,-22.4500,-0.0960,3.6881,2.7936,-13.0000,21.1875,12.7500,79.7500,25.9375,-179.5000,0
1776970347.463,8.2528,2.7629,3.2968,-0.0376,0.5910,0.8354,-82.5000,-5.2500,-9.7500,13.2591,13.3261,-10.4004,0.2563,0.9705,-0.0440,-28.2000,13.8000,17.4000,10.6000,17.3400,-21.4700,0.9479,5.3974,1.9471,-13.0000,21.1875,12.7500,79.7500,25.9375,-179.5000,0
1776970347.467,9.7851,2.6193,2.5929,0.2622,0.4842,0.9950,-82.5000,-5.2500,-9.7500,13.2591,13.3261,-10.4004,0.2563,0.9705,-0.0440,-27.9000,13.5000,18.1500,10.6000,17.3400,-21.4700,0.9479,5.3974,1.9471,-13.0000,21.1875,12.7500,80.3125,27.3750,178.7500,0
1776970347.472,9.7851,2.6193,2.5929,0.2622,0.4842,0.9950,-82.5000,-5.2500,-9.7500,15.0260,2.7054,-9.3518,3.3505,0.3477,-0.3986,-28.0500,13.5000,18.1500,-1.7100,-8.9000,-9.0600,2.3431,2.6256,1.4977,-13.0000,21.1875,12.7500,80.3125,27.3750,178.7500,0
1776970347.481,13.1178,2.2960,2.3942,0.8996,0.6086,1.3576,-82.3500,-9.0000,-9.1500,14.8943,-2.8970,-8.2552,6.1849,0.1561,-0.6107,-28.0500,13.9500,19.0500,-5.4900,-16.2100,-6.4900,3.0107,-0.5770,0.6829,-13.0000,21.1875,12.7500,80.2500,27.0625,176.8750,0
1776970347.485,17.7123,-0.7638,4.0965,1.5122,0.6488,1.4746,-82.3500,-9.0000,-9.1500,14.8943,-2.8970,-8.2552,6.1849,0.1561,-0.6107,-28.6500,12.7500,18.1500,-5.4900,-16.2100,-6.4900,3.0107,-0.5770,0.6829,-13.0000,21.1875,12.7500,79.6250,28.0000,175.2500,0
1776970347.493,18.6460,-3.7948,4.7549,1.5122,0.6488,1.4746,-82.3500,-9.0000,-9.1500,13.1298,-3.5769,-0.7230,6.1707,0.7618,-0.4996,-27.7500,10.9500,19.0500,8.1100,-13.4100,-10.3800,3.0347,1.7181,-0.4069,-13.0000,21.1875,12.7500,79.3125,30.2500,173.6875,0
1776970347.502,17.9110,-3.1532,2.3774,1.8000,1.1655,1.4823,-81.7500,-9.4500,-10.0500,16.0483,-4.5274,1.9058,4.6825,1.4080,-0.0735,-27.7500,10.9500,19.0500,14.0700,-8.0800,-8.6000,2.7020,4.0328,-0.1069,-13.0000,21.1875,12.7500,79.3125,30.2500,173.6875,0
1776970347.507,17.9110,-3.1532,2.3774,2.1751,1.4522,1.1775,-81.7500,-9.4500,-10.0500,14.4394,-5.1906,2.0255,2.9841,1.2044,0.2348,-27.7500,10.9500,19.0500,14.0700,-8.0800,-8.6000,2.7020,4.0328,-0.1069,-13.0000,21.1875,12.7500,78.9375,31.0625,172.6250,0
1776970347.512,15.8448,-1.7358,0.8811,1.7427,1.3952,0.7176,-81.7500,-8.4000,-7.5000,14.4394,-5.1906,2.0255,2.9841,1.2044,0.2348,-27.7500,10.9500,19.0500,10.1700,-13.1500,-7.8600,1.9450,1.3930,-0.1767,-11.0000,23.2500,7.1875,78.9375,31.0625,172.6250,0
1776970347.517,15.8448,-1.7358,0.8811,1.7427,1.3952,0.7176,-81.7500,-8.4000,-7.5000,10.3573,-2.7126,0.3974,1.6385,1.4043,0.2478,-27.7500,10.9500,19.0500,10.1700,-13.1500,-7.8600,1.9450,1.3930,-0.1767,-11.0000,23.2500,7.1875,78.8750,31.2500,171.9375,0
1776970347.522,13.2184,-0.0551,-0.7302,0.3104,0.6872,0.1439,-81.1500,-9.0000,-8.1000,10.3573,-2.7126,0.3974,1.6385,1.4043,0.2478,-28.5000,10.9500,21.9000,8.5000,-12.6500,-7.7500,1.1377,0.3687,0.1407,-11.0000,23.2500,7.1875,78.8750,31.2500,171.9375,0
1776970347.530,13.2184,-0.0551,-0.7302,0.3104,0.6872,0.1439,-82.3500,-10.0500,-7.6500,8.6718,1.0630,-0.5459,1.4538,1.3691,0.3014,-28.5000,10.9500,21.9000,5.8200,4.7800,-9.1300,0.5978,0.9654,0.2258,-11.0000,23.2500,7.1875,78.9375,31.7500,171.4375,0
1776970347.535,8.4204,-0.7877,-0.0551,-1.4650,-0.0879,-0.2499,-82.3500,-10.0500,-7.6500,8.6718,1.0630,-0.5459,1.4538,1.3691,0.3014,-28.8000,9.9000,22.2000,5.8200,4.7800,-9.1300,0.5978,0.9654,0.2258,-11.0000,23.2500,7.1875,78.8750,31.8125,171.0625,0
1776970347.543,5.2553,-2.6312,1.3886,-2.5303,0.1183,-0.1966,-81.1500,-8.1000,-9.1500,8.1211,3.4788,1.4174,1.5060,1.3494,0.2566,-28.8000,8.7000,21.9000,5.3100,-1.9800,-7.9500,0.6349,0.1527,0.1014,-11.0000,23.2500,7.1875,78.7500,32.0625,170.8750,0
1776970347.553,4.9512,-4.0725,0.7374,-2.6249,0.7754,0.0165,-79.6500,-10.5000,-6.6000,8.8202,3.5530,0.3903,1.3065,1.2239,0.2835,-29.8500,9.4500,22.5000,5.2000,-4.3100,-8.1200,0.3622,0.4167,-0.1233,-11.0000,23.2500,7.1875,78.7500,32.0625,170.8750,0
1776970347.557,4.9512,-4.0725,0.7374,-2.6249,0.7754,0.0165,-79.6500,-10.5000,-6.6000,8.5162,3.7924,-0.5602,0.6265,1.0168,0.1871,-29.8500,9.4500,22.5000,5.2000,-4.3100,-8.1200,0.3622,0.4167,-0.1233,-11.0000,23.2500,7.1875,78.7500,32.0625,170.8750,0
1776970347.562,7.2760,-3.8595,-0.6393,-1.4714,0.8423,0.2358,-79.6500,-10.5000,-6.6000,8.5162,3.7924,-0.5602,0.6265,1.0168,0.1871,-29.8500,9.4500,22.5000,6.2700,-2.1000,-8.9800,-0.0338,0.7756,-0.1582,-11.6875,25.5000,1.7500,78.7500,32.5000,170.9375,0
1776970347.567,7.2760,-3.8595,-0.6393,-1.4714,0.8423,0.2358,-79.6500,-10.5000,-6.6000,7.3406,5.1260,-1.9106,-0.0410,0.9888,0.0722,-29.8500,9.4500,22.5000,6.2700,-2.1000,-8.9800,-0.0338,0.7756,-0.1582,-11.6875,25.5000,1.7500,78.7500,32.5000,170.9375,0
1776970347.572,7.3861,-2.1500,-0.4286,-0.1306,0.7285,0.3667,-82.3500,-9.7500,-8.4000,7.3406,5.1260,-1.9106,-0.0410,0.9888,0.0722,-28.8000,10.6500,22.9500,5.1300,0.3500,-7.8900,-0.1113,0.3512,-0.1091,-11.6875,25.5000,1.7500,78.6875,32.6875,171.0000,0
1776970347.577,7.3861,-2.1500,-0.4286,-0.1306,0.7285,0.3667,-82.3500,-9.7500,-8.4000,8.1906,4.6088,-1.9393,-0.6291,0.9052,0.1804,-28.8000,10.6500,22.9500,5.1300,0.3500,-7.8900,-0.2051,0.3807,-0.0589,-11.6875,25.5000,1.7500,78.6875,32.9375,171.1250,0
1776970347.583,7.3406,0.2634,1.1612,0.8950,1.3030,0.5044,-82.3500,-9.7500,-8.4000,8.1906,4.6088,-1.9393,-0.6291,0.9052,0.1804,-28.9500,9.7500,23.8500,5.2400,-0.2300,-7.9100,-0.2051,0.3807,-0.0589,-11.6875,25.5000,1.7500,78.7500,33.1875,171.2500,0
1776970347.592,8.1690,3.5698,3.9983,1.1088,0.9174,0.6249,-80.8500,-9.7500,-5.5500,8.5329,3.7900,-1.3719,-1.2111,0.8314,0.4072,-27.9000,8.2500,24.1500,3.9500,-0.4500,-7.5900,-0.2400,0.4745,0.0098,-11.6875,25.5000,1.7500,78.7500,33.1875,171.2500,0
1776970347.602,9.7803,6.3039,7.1563,0.0767,0.4932,0.5196,-80.1000,-10.0500,-6.1500,8.5521,3.0406,-0.7614,-1.5087,0.8084,0.4964,-29.8500,10.6500,25.0500,5.9900,-2.2900,-8.6700,-0.1625,0.5149,0.0840,-11.6875,25.5000,1.7500,78.8750,33.4375,171.2500,0
1776970347.607,10.6877,6.8354,8.4036,0.0767,0.4932,0.5196,-80.1000,-10.0500,-6.1500,9.2775,3.4740,-0.7374,-1.5404,0.7719,0.4983,-29.8500,10.6500,25.0500,5.9900,-2.2900,-8.6700,-0.1625,0.5149,0.0840,-11.6875,25.5000,1.7500,78.9375,33.8125,171.2500,0
1776970347.612,10.6877,6.8354,8.4036,-1.5047,0.2292,0.2856,-81.6000,-9.7500,-4.8000,9.2775,3.4740,-0.7374,-1.5404,0.7719,0.4983,-30.4500,8.5500,23.4000,5.8700,-1.6700,-8.0900,-0.0851,0.6512,0.1069,-13.2500,25.0625,1.5000,78.9375,33.8125,171.2500,0
1776970347.617,11.3006,5.5713,6.3829,-1.5047,0.2292,0.2856,-81.6000,-9.7500,-4.8000,9.9599,4.1563,-0.4310,-1.2257,0.7424,0.5263,-30.4500,8.5500,23.4000,5.8700,-1.6700,-8.0900,-0.0851,0.6512,0.1069,-13.2500,25.0625,1.5000,78.9375,33.8125,171.2500,0
1776970347.622,11.3006,5.5713,6.3829,-2.7411,-0.0149,0.0456,-82.2000,-10.6500,-5.2500,9.9599,4.1563,-0.4310,-1.2257,0.7424,0.5263,-30.4500,8.5500,23.4000,5.7500,-1.1400,-8.3500,-0.0404,0.4603,0.1658,-13.2500,25.0625,1.5000,79.0625,34.0625,171.1875,0
1776970347.630,10.4459,3.3471,4.8530,-3.2959,-0.3523,-0.1679,-81.6000,-10.5000,-5.8500,10.1730,4.4317,-0.3448,-0.7512,0.7693,0.5364,-30.3000,8.7000,26.1000,6.3800,-1.5000,-8.3100,-0.0098,0.4396,0.1429,-13.2500,25.0625,1.5000,79.1875,34.2500,171.0625,0
1776970347.635,10.4459,3.3471,4.8530,-3.2959,-0.3523,-0.1679,-81.6000,-10.5000,-5.8500,10.1107,3.9002,-0.1508,-0.4186,0.7733,0.6235,-30.3000,8.7000,26.1000,6.3800,-1.5000,-8.3100,-0.0098,0.4396,0.1429,-13.2500,25.0625,1.5000,79.2500,34.5000,171.0000,0
1776970347.643,9.9096,1.4006,3.3303,-2.9268,-0.2790,-0.2864,-81.3000,-11.1000,-6.4500,9.3206,3.0478,-0.4669,-0.2569,0.7703,0.6566,-29.5500,7.2000,23.5500,6.2300,-1.2300,-8.2000,0.0415,0.3992,0.0905,-13.2500,25.0625,1.5000,79.2500,34.6250,170.8750,0
1776970347.653,9.5337,0.0144,2.1835,-2.1440,-0.0184,-0.3736,-81.3000,-11.1000,-6.4500,9.0740,2.4972,-0.8715,-0.1793,0.7514,0.6107,-30.4500,9.3000,24.4500,5.9500,-1.1200,-8.0200,0.1102,0.2323,0.0731,-13.2500,25.0625,1.5000,79.2500,34.6250,170.8750,0
1776970347.657,9.3925,0.5962,1.8651,-1.3816,0.2278,-0.4333,-81.3000,-11.1000,-6.4500,9.0740,2.4972,-0.8715,-0.1793,0.7514,0.6107,-30.4500,9.3000,24.4500,5.9500,-1.1200,-8.0200,0.1102,0.2323,0.0731,-13.2500,25.0625,1.5000,79.2500,34.6875,170.7500,0
1776970347.663,9.3925,0.5962,1.8651,-1.3816,0.2278,-0.4333,-81.3000,-11.4000,-7.2000,9.1770,2.2482,-1.0367,-0.1628,0.7344,0.5753,-28.5000,7.6500,24.7500,5.8400,-1.0800,-8.0000,0.1625,0.1364,0.0589,-12.6875,25.3750,1.0625,79.2500,34.6875,170.7500,0
1776970347.668,9.0644,1.2761,2.1332,-0.9174,0.4085,-0.4698,-81.3000,-11.4000,-7.2000,9.1770,2.2482,-1.0367,-0.1628,0.7344,0.5753,-28.5000,7.6500,24.7500,5.8400,-1.0800,-8.0000,0.1625,0.1364,0.0589,-12.6875,25.3750,1.0625,79.3125,34.7500,170.6875,0
1776970347.673,9.0644,1.2761,2.1332,-0.9174,0.4085,-0.4698,-81.9000,-13.2000,-6.9000,9.2991,2.3703,-1.1301,-0.2196,0.7083,0.5537,-28.5000,7.6500,24.7500,5.6700,-1.1200,-7.9800,0.1593,0.1189,0.0524,-12.6875,25.3750,1.0625,79.3125,34.7500,170.6875,0
1776970347.679,8.5114,1.9848,2.4397,-0.6107,0.3992,-0.3832,-81.9000,-13.2000,-6.9000,9.2991,2.3703,-1.1301,-0.2196,0.7083,0.5537,-28.5000,7.6500,24.7500,5.3500,-0.9500,-7.9200,0.1582,0.1145,0.0524,-12.6875,25.3750,1.0625,79.3125,34.8125,170.5625,0
1776970347.684,8.5114,1.9848,2.4397,-0.6107,0.3992,-0.3832,-80.2500,-11.1000,-6.0000,9.2680,2.2146,-0.7039,-0.3014,0.7051,0.5630,-28.5000,7.6500,24.7500,5.3500,-0.9500,-7.9200,0.1582,0.1145,0.0524,-12.6875,25.3750,1.0625,79.3125,34.8750,170.4375,0
1776970347.693,7.9847,1.9704,2.1572,-0.4687,0.3621,-0.2246,-80.4000,-10.5000,-6.1500,8.8178,1.9321,-0.9577,-0.4146,0.6552,0.5676,-29.8500,7.6500,26.1000,5.3700,-0.9400,-7.8900,0.1527,0.1298,0.0491,-12.6875,25.3750,1.0625,79.3125,34.8750,170.4375,0
1776970347.703,7.5609,1.3934,1.7645,-0.4583,0.3688,-0.0043,-81.7500,-13.5000,-6.0000,8.8466,2.0638,-0.7590,-0.3794,0.6478,0.5582,-28.9500,7.8000,27.7500,5.4500,-0.9300,-7.7500,0.1625,0.1374,0.0556,-12.6875,25.3750,1.0625,79.3125,34.9375,170.3125,0
1776970347.708,8.0278,0.2849,1.4365,-0.4351,0.3333,0.1791,-81.7500,-13.5000,-6.0000,8.8466,2.0638,-0.7590,-0.3794,0.6478,0.5582,-28.9500,7.8000,27.7500,5.4500,-0.9300,-7.7500,0.1625,0.1374,0.0556,-12.6875,25.3750,1.0625,79.3125,34.9375,170.3125,0
1776970347.713,8.0278,0.2849,1.4365,-0.4351,0.3333,0.1791,-80.5500,-11.4000,-6.4500,9.0453,2.0806,-0.5291,-0.2936,0.6542,0.5537,-28.9500,7.5000,27.0000,5.6900,-1.1900,-7.9100,0.1527,0.1571,0.0742,-12.6875,26.0625,1.0625,79.3125,35.0000,170.1875,0
1776970347.718,9.0190,-0.7063,1.6807,-0.3725,0.2057,0.2830,-80.5500,-11.4000,-6.4500,9.0453,2.0806,-0.5291,-0.2936,0.6542,0.5537,-28.9500,7.5000,27.0000,5.6900,-1.1900,-7.9100,0.1527,0.1571,0.0742,-12.6875,26.0625,1.0625,79.3125,35.0000,170.1875,0
1776970347.723,9.5074,-0.5315,2.2936,-0.3725,0.2057,0.2830,-80.5500,-11.4000,-6.4500,9.2871,1.7597,-0.4908,-0.1522,0.6547,0.5343,-29.7000,7.8000,26.7000,5.6400,-1.3500,-7.9900,0.1211,0.1734,0.0840,-12.6875,26.0625,1.0625,79.3750,35.0625,170.0625,0
1776970347.727,9.5074,-0.5315,2.2936,-0.2974,0.0911,0.2870,-80.5500,-11.4000,-6.4500,9.2871,1.7597,-0.4908,-0.1522,0.6547,0.5343,-29.7000,7.8000,26.7000,5.6400,-1.3500,-7.9900,0.0818,0.2269,0.0665,-12.6875,26.0625,1.0625,79.3750,35.1875,170.0000,0
1776970347.733,9.5936,0.0599,2.8898,-0.2361,0.0269,0.2545,-81.9000,-12.4500,-5.5500,9.5600,1.6807,0.0120,0.0064,0.6392,0.5199,-29.7000,7.8000,26.7000,5.8300,-1.3100,-7.9100,0.0818,0.2269,0.0665,-12.6875,26.0625,1.0625,79.4375,35.3125,169.9375,0
1776970347.743,9.3039,1.0391,3.5291,-0.2518,0.0024,0.2097,-81.9000,-12.4500,-5.5500,9.6917,1.4246,0.1772,0.1092,0.6611,0.4999,-28.9500,6.0000,27.7500,5.6700,-1.3500,-7.8900,0.0436,0.2400,0.0545,-12.6875,26.0625,1.0625,79.4375,35.3125,169.9375,0
1776970347.753,9.0692,1.5395,3.9361,-0.3946,0.0213,0.1783,-79.3500,-12.4500,-6.6000,9.8928,1.4365,0.5052,0.1961,0.6611,0.4860,-30.1500,4.0500,27.3000,5.7800,-1.2600,-7.8200,0.0218,0.2640,0.0447,-12.6875,26.0625,1.0625,79.4375,35.5000,169.8750,0
1776970347.758,9.0692,1.5395,3.9361,-0.3946,0.0213,0.1783,-79.3500,-12.4500,-6.6000,9.8928,1.4365,0.5052,0.1961,0.6611,0.4860,-28.5000,4.9500,26.4000,5.7800,-1.2600,-7.8200,0.0218,0.2640,0.0447,-12.6875,26.0625,1.0625,79.4375,35.5000,169.8750,0
1776970347.763,9.0668,1.4533,4.0151,-0.5881,0.0826,0.1572,-79.5000,-12.6000,-6.0000,9.9479,1.4796,0.6536,0.1860,0.6358,0.4738,-28.5000,4.9500,26.4000,5.7600,-1.1600,-7.9200,0.0076,0.2629,0.0371,-12.0000,26.3750,0.0000,79.5000,35.6250,169.8750,0
1776970347.768,9.0668,1.4533,4.0151,-0.5881,0.0826,0.1572,-79.5000,-12.6000,-6.0000,9.9479,1.4796,0.6536,0.1860,0.6358,0.4738,-30.3000,4.9500,28.2000,5.7600,-1.1600,-7.9200,0.0076,0.2629,0.0371,-12.0000,26.3750,0.0000,79.5000,35.6250,169.8750,0
1776970347.773,9.1866,0.9242,3.7613,-0.6395,0.1172,0.1298,-80.4000,-13.6500,-5.8500,9.8330,1.3982,0.4549,0.1292,0.5969,0.4671,-30.3000,4.9500,28.2000,5.7900,-1.3500,-7.7900,0.0076,0.2607,0.0316,-12.0000,26.3750,0.0000,79.5000,35.7500,169.8125,0
1776970347.778,9.1866,0.9242,3.7613,-0.6395,0.1172,0.1298,-80.4000,-13.6500,-5.8500,9.8330,1.3982,0.4549,0.0448,0.5729,0.4562,-29.7000,5.5500,29.1000,5.7900,-1.3500,-7.7900,0.0098,0.2454,0.0284,-12.0000,26.3750,0.0000,79.5625,35.8750,169.8125,0
1776970347.784,9.1866,0.3400,3.1220,-0.5452,0.1308,0.1124,-81.0000,-13.0500,-7.2000,9.6654,1.3264,0.2993,0.0448,0.5729,0.4562,-29.7000,5.5500,29.1000,5.7400,-1.1200,-7.8300,0.0098,0.2454,0.0284,-12.0000,26.3750,0.0000,79.5625,35.8750,169.8125,0
1776970347.792,9.1482,0.0215,2.4157,-0.4469,0.1740,0.1045,-80.4000,-13.2000,-6.9000,9.4068,1.0678,0.0934,-0.0253,0.5407,0.4482,-29.7000,5.5500,29.1000,5.9000,-1.1800,-7.7800,0.0207,0.2465,0.0273,-12.0000,26.3750,0.0000,79.5625,36.0000,169.7500,0
1776970347.797,9.1482,0.0215,2.4157,-0.4469,0.1740,0.1045,-80.4000,-13.2000,-6.9000,9.4739,0.9361,0.3065,-0.1271,0.5113,0.4565,-28.9500,4.0500,26.7000,5.9000,-1.1800,-7.7800,0.0393,0.2356,0.0349,-12.0000,26.3750,0.0000,79.5625,36.1250,169.7500,0
1776970347.804,9.1866,-0.3926,1.6448,-0.4618,0.2020,0.1127,-80.2500,-13.0500,-6.7500,9.4739,0.9361,0.3065,-0.1271,0.5113,0.4565,-28.9500,4.0500,26.7000,5.9300,-1.2900,-7.8400,0.0393,0.2356,0.0349,-12.0000,26.3750,0.0000,79.5625,36.1250,169.7500,0
1776970347.809,9.1866,-0.3926,1.6448,-0.4618,0.2020,0.1127,-80.2500,-13.0500,-6.7500,9.6271,0.9385,0.2658,-0.2457,0.4786,0.4533,-29.5500,3.9000,30.7500,5.9300,-1.2900,-7.8400,0.0665,0.1996,0.0545,-12.0000,26.6875,-0.3750,79.6250,36.2500,169.6875,0
1776970347.814,9.1482,-0.4238,1.7238,-0.5564,0.2297,0.1167,-80.2500,-13.0500,-6.7500,9.6271,0.9385,0.2658,-0.2457,0.4786,0.4533,-29.5500,3.9000,30.7500,5.8000,-1.2900,-7.7600,0.0665,0.1996,0.0545,-12.0000,26.6875,-0.3750,79.6250,36.2500,169.6875,0
1776970347.819,9.2033,-0.6081,1.9369,-0.5564,0.2297,0.1167,-80.2500,-13.0500,-6.7500,9.7995,0.8763,0.3615,-0.3190,0.4525,0.4514,-30.3000,3.4500,28.9500,5.8000,-1.2900,-7.7600,0.0665,0.1996,0.0545,-12.0000,26.6875,-0.3750,79.6250,36.3750,169.5625,0
1776970347.824,9.2033,-0.6081,1.9369,-0.7605,0.2388,0.1290,-80.2500,-12.6000,-6.0000,9.7995,0.8763,0.3615,-0.3190,0.4525,0.4514,-30.3000,3.4500,28.9500,5.8600,-1.2600,-7.7300,0.1036,0.1898,0.0611,-12.0000,26.6875,-0.3750,79.6250,36.3750,169.5625,0
1776970347.829,9.3589,-0.6823,2.2577,-0.7605,0.2388,0.1290,-80.2500,-12.6000,-6.0000,9.8497,1.0511,0.4669,-0.3110,0.4064,0.4229,-30.1500,4.0500,30.9000,5.8600,-1.2600,-7.7300,0.1211,0.1647,0.0633,-12.0000,26.6875,-0.3750,79.6250,36.4375,169.4375,0
1776970347.834,9.3589,-0.6823,2.2577,-0.8961,0.1186,0.1503,-80.2500,-12.6000,-6.0000,9.8497,1.0511,0.4669,-0.3110,0.4064,0.4229,-30.1500,4.0500,30.9000,5.7400,-1.3600,-7.8200,0.1211,0.1647,0.0633,-12.0000,26.6875,-0.3750,79.6250,36.4375,169.4375,0
1776970347.843,9.1363,-0.9146,2.4732,-1.0568,0.0077,0.2086,-79.6500,-14.4000,-5.8500,9.9168,0.9840,0.9242,-0.3142,0.3730,0.4159,-30.1500,4.0500,30.9000,5.8900,-1.4200,-7.7400,0.1342,0.1451,0.0556,-12.0000,26.6875,-0.3750,79.6875,36.5000,169.3750,0
1776970347.848,9.2368,-1.0870,3.0502,-1.0568,0.0077,0.2086,-79.6500,-14.4000,-5.8500,9.9216,0.6967,1.1492,-0.2912,0.3507,0.4112,-30.1500,3.0000,29.8500,5.8900,-1.4200,-7.7400,0.1418,0.1582,0.0436,-12.0000,26.6875,-0.3750,79.6875,36.5625,169.2500,0
1776970347.854,9.2368,-1.0870,3.0502,-1.1517,-0.0344,0.2220,-80.4000,-13.9500,-7.3500,9.9216,0.6967,1.1492,-0.2912,0.3507,0.4112,-30.1500,3.0000,29.8500,6.0600,-1.3500,-7.6200,0.1418,0.1582,0.0436,-12.0000,26.6875,-0.3750,79.6875,36.5625,169.2500,0
1776970347.859,9.2225,-0.9625,3.4165,-1.2233,-0.0775,0.2822,-80.4000,-13.9500,-7.3500,10.0102,0.6991,1.1325,-0.3000,0.3296,0.4058,-29.1000,2.7000,28.6500,5.8100,-1.5500,-7.9000,0.1156,0.1374,0.0469,-12.5000,26.0000,0.5000,79.6875,36.6875,169.1875,0
1776970347.864,9.2225,-0.9625,3.4165,-1.2233,-0.0775,0.2822,-80.8500,-13.2000,-7.3500,10.0102,0.6991,1.1325,-0.3000,0.3296,0.4058,-29.1000,2.7000,28.6500,5.8100,-1.5500,-7.9000,0.1156,0.1374,0.0469,-12.5000,26.0000,0.5000,79.6875,36.6875,169.1875,0
1776970347.869,9.1219,-1.0846,3.6655,-1.1956,-0.0959,0.2998,-80.8500,-13.2000,-7.3500,9.9503,0.3591,1.0127,-0.3525,0.2971,0.3978,-28.6500,4.0500,29.5500,6.0100,-1.3300,-7.7400,0.1145,0.1407,0.0316,-12.5000,26.0000,0.5000,79.6875,36.7500,169.0625,0
1776970347.874,9.1219,-1.0846,3.6655,-1.1956,-0.0959,0.2998,-80.4000,-15.1500,-8.1000,9.9503,0.3591,1.0127,-0.3525,0.2971,0.3978,-28.6500,4.0500,29.5500,6.0100,-1.3300,-7.7400,0.1145,0.1407,0.0316,-12.5000,26.0000,0.5000,79.6875,36.7500,169.0625,0
1776970347.879,8.9902,-1.0678,3.7685,-1.1908,-0.0642,0.3131,-80.4000,-15.1500,-8.1000,9.9599,0.2490,1.2474,-0.4450,0.2638,0.3888,-28.8000,2.4000,29.7000,6.0100,-1.3300,-7.7400,0.0927,0.1396,0.0229,-12.5000,26.0000,0.5000,79.6875,36.8125,169.0000,0
1776970347.884,8.9902,-1.0678,3.7685,-1.1908,-0.0642,0.3131,-79.6500,-14.4000,-6.9000,9.9599,0.2490,1.2474,-0.5758,0.2395,0.4002,-28.8000,2.4000,29.7000,6.1500,-1.4000,-7.5700,0.0927,0.1396,0.0229,-12.5000,26.0000,0.5000,79.6875,36.8125,169.0000,0
1776970347.893,9.2368,-1.0439,3.6033,-1.2039,-0.0386,0.3336,-79.8000,-14.5500,-6.9000,9.9838,0.3184,1.4054,-0.5758,0.2395,0.4002,-27.9000,2.2500,29.5500,5.8900,-1.5100,-7.8900,0.0458,0.1156,0.0415,-12.5000,26.0000,0.5000,79.6875,36.8750,168.9375,0
1776970347.898,9.1147,-0.5674,3.2394,-1.2204,-0.0085,0.3288,-79.8000,-14.5500,-8.7000,9.8665,0.4621,1.1995,-0.7357,0.2332,0.3973,-27.9000,2.2500,29.5500,5.8900,-1.5100,-7.8900,0.0622,0.1113,0.0142,-12.5000,26.0000,0.5000,79.6875,36.9375,168.9375,0
1776970347.904,9.1147,-0.5674,3.2394,-1.2204,-0.0085,0.3288,-79.8000,-14.5500,-8.7000,9.6223,0.5866,1.0822,-0.7986,0.1958,0.3938,-27.9000,2.2500,29.5500,6.2400,-1.4100,-7.6900,0.0622,0.1113,0.0142,-12.5000,26.0000,0.5000,79.6875,36.9375,168.9375,0
1776970347.909,8.9830,-0.6129,2.8084,-1.2033,0.0314,0.3206,-79.8000,-14.5500,-8.7000,9.6223,0.5866,1.0822,-0.7986,0.1958,0.3938,-30.4500,1.5000,30.1500,6.2400,-1.4100,-7.6900,0.0622,0.1113,0.0142,-12.5000,26.0000,0.0625,79.6875,37.0000,168.8750,0
1776970347.914,8.9830,-0.6129,2.8084,-1.2033,0.0314,0.3206,-79.8000,-15.7500,-9.0000,9.6151,0.9361,0.9936,-0.8559,0.1692,0.3930,-30.4500,1.5000,30.1500,6.2500,-1.3000,-7.6400,0.0415,0.1091,0.0044,-12.5000,26.0000,0.0625,79.6875,37.0000,168.8750,0
1776970347.919,9.0477,-0.3041,3.0789,-1.2033,-0.0056,0.3730,-79.8000,-15.7500,-9.0000,9.6151,0.9361,0.9936,-0.8559,0.1692,0.3930,-29.1000,2.4000,31.0500,6.2500,-1.3000,-7.6400,0.0415,0.1091,0.0044,-12.5000,26.0000,0.0625,79.6875,37.0625,168.8750,0
1776970347.924,9.0477,-0.3041,3.0789,-1.2033,-0.0056,0.3730,-79.8000,-15.7500,-9.0000,9.5481,1.2210,0.7278,-0.8314,0.1375,0.3912,-29.1000,2.4000,31.0500,6.0800,-1.3900,-7.6700,0.0207,0.0796,0.0131,-12.5000,26.0000,0.0625,79.6875,37.0625,168.8750,0
1776970347.928,8.9974,-0.0527,2.8635,-1.2398,-0.0218,0.4053,-79.8000,-15.7500,-9.0000,9.5481,1.2210,0.7278,-0.8314,0.1375,0.3912,-29.1000,2.4000,30.4500,6.0800,-1.3900,-7.6700,0.0229,0.0480,0.0207,-12.5000,26.0000,0.0625,79.6875,37.0625,168.8750,0
1776970347.934,9.4403,0.3998,3.0311,-1.2398,-0.0218,0.4053,-80.1000,-15.1500,-6.1500,9.5864,1.5682,0.6632,-0.8170,0.1255,0.4104,-29.1000,2.4000,30.4500,6.1000,-1.4200,-7.6500,0.0229,0.0480,0.0207,-12.5000,26.0000,0.0625,79.6875,37.0625,168.8750,0
1776970347.943,9.4403,0.3998,3.0311,-1.2446,-0.0266,0.3762,-80.1000,-15.1500,-6.1500,9.5936,2.0087,0.6273,-0.7810,0.1151,0.4295,-29.1000,0.9000,30.4500,6.0700,-1.5500,-7.5900,0.0196,0.0349,0.0207,-12.5000,26.0000,0.0625,79.6875,37.1250,168.8125,0
1776970347.949,9.0477,0.9361,2.9784,-1.3352,-0.0917,0.4223,-79.6500,-15.9000,-8.8500,9.5936,2.0087,0.6273,-0.7810,0.1151,0.4295,-27.7500,1.9500,28.2000,6.0700,-1.5500,-7.5900,0.0218,0.0316,0.0164,-12.5000,26.0000,0.0625,79.6875,37.1250,168.8125,0
1776970347.954,9.6558,1.5467,3.5123,-1.4067,-0.1029,0.3842,-80.2500,-15.4500,-8.7000,9.6103,2.4708,0.6823,-0.7687,0.1135,0.4695,-27.7500,1.9500,28.2000,6.0100,-1.5500,-7.6700,0.0218,0.0316,0.0164,-12.5000,26.0000,0.0625,79.6875,37.1250,168.8125,0
1776970347.959,9.6558,1.5467,3.5123,-1.4067,-0.1029,0.3842,-80.2500,-15.4500,-8.7000,9.6103,2.4708,0.6823,-0.7687,0.1135,0.4695,-27.7500,1.9500,28.2000,6.0100,-1.5500,-7.6700,0.0262,0.0229,0.0098,-11.7500,25.5625,-1.0625,79.6875,37.1250,168.8125,0
1776970347.964,9.3326,2.1380,3.6847,-1.5234,-0.1015,0.3467,-79.5000,-15.0000,-8.2500,9.6462,2.8347,0.6081,-0.8047,0.1252,0.5217,-27.7500,1.9500,28.2000,6.0100,-1.4700,-7.6000,0.0262,0.0229,0.0098,-11.7500,25.5625,-1.0625,79.6875,37.1250,168.8125,0
1776970347.969,9.3326,2.1380,3.6847,-1.5234,-0.1015,0.3467,-79.5000,-15.0000,-8.2500,9.6462,2.8347,0.6081,-0.8047,0.1252,0.5217,-28.8000,1.9500,30.7500,6.0100,-1.4700,-7.6000,0.0316,0.0284,0.0109,-11.7500,25.5625,-1.0625,79.6875,37.1875,168.7500,0
1776970347.974,9.3781,2.4732,3.4955,-1.6278,-0.1061,0.3320,-79.0500,-16.2000,-7.9500,9.6750,2.7414,0.4621,-0.8231,0.1303,0.5830,-30.4500,0.3000,29.5500,5.9600,-1.4300,-7.6000,0.0316,0.0284,0.0109,-11.7500,25.5625,-1.0625,79.6875,37.1875,168.7500,0
1776970347.979,9.3781,2.4732,3.4955,-1.6278,-0.1061,0.3320,-79.0500,-16.2000,-7.9500,9.6750,2.7414,0.4621,-0.8231,0.1303,0.5830,-30.4500,0.3000,29.5500,5.9600,-1.4300,-7.6000,0.0458,0.0469,-0.0033,-11.7500,25.5625,-1.0625,79.6875,37.1875,168.7500,0
1776970347.984,9.7133,2.5929,3.3136,-1.7059,-0.1404,0.2875,-78.7500,-16.2000,-9.7500,9.7947,2.4157,-0.0503,-0.8908,0.1412,0.6568,-28.2000,1.5000,29.8500,6.0200,-1.3400,-7.5800,0.0458,0.0469,-0.0033,-11.7500,25.5625,-1.0625,79.6875,37.1875,168.7500,0
1776970347.993,9.5265,2.4445,2.9616,-1.7605,-0.1151,0.2705,-78.7500,-16.2000,-9.7500,9.7803,1.9968,-0.3567,-1.0653,0.1362,0.7354,-28.0500,37.2000,29.8500,5.9700,-1.4300,-7.6400,0.0513,0.0425,-0.0044,-11.7500,25.5625,-1.0625,79.6875,37.1875,168.6875,0
1776970348.000,9.5265,2.4445,2.9616,-1.7605,-0.1151,0.2705,-78.7500,-16.2000,-9.7500,9.7803,1.9968,-0.3567,-1.0653,0.1362,0.7354,-28.0500,-1.2000,29.7000,5.8800,-1.3500,-7.6800,0.0491,0.0305,-0.0076,-11.7500,25.5625,-1.0625,79.6875,37.2500,168.6875,0
1776970348.005,9.2584,2.1332,2.4660,-1.8173,-0.1268,0.2753,-79.8000,-17.4000,-10.5000,9.7755,1.6592,-0.7374,-1.2854,0.1311,0.8316,-28.0500,-1.2000,29.7000,5.8800,-1.3500,-7.6800,0.0491,0.0305,-0.0076,-11.7500,25.5625,-1.0625,79.6875,37.2500,168.6875,0
1776970348.009,9.2584,2.1332,2.4660,-1.8173,-0.1268,0.2753,-79.8000,-17.4000,-10.5000,9.7755,1.6592,-0.7374,-1.2854,0.1311,0.8316,-28.0500,-1.2000,29.7000,5.8700,-1.3800,-7.6000,0.0447,0.0382,-0.0142,-11.7500,25.2500,-0.2500,79.6875,37.2500,168.6875,0
1776970348.014,9.4140,1.8866,2.1500,-1.8572,-0.1529,0.2782,-79.8000,-17.4000,-10.5000,9.6486,1.7238,-0.5004,-1.4917,0.1162,0.9137,-28.0500,-0.1500,29.7000,5.8700,-1.3800,-7.6000,0.0447,0.0382,-0.0142,-11.7500,25.2500,-0.2500,79.6875,37.2500,168.6875,0
1776970348.019,9.4140,1.8866,2.1500,-1.8572,-0.1529,0.2782,-79.8000,-17.4000,-10.5000,9.6486,1.7238,-0.5004,-1.4917,0.1162,0.9137,-28.0500,-0.1500,29.7000,5.8700,-1.3800,-7.6000,0.0447,0.0382,-0.0142,-11.7500,25.2500,-0.2500,79.6875,37.2500,168.6250,0
1776970348.024,9.4427,1.7909,2.2649,-1.9529,-0.1860,0.2806,-78.4500,-16.8000,-10.6500,9.5984,2.0973,-0.8811,-1.5572,0.1143,1.0006,-27.9000,-1.0500,30.1500,5.8600,-1.3900,-7.6000,0.0382,0.0415,-0.0153,-11.7500,25.2500,-0.2500,79.6875,37.2500,168.6250,0
1776970348.029,9.4427,1.7909,2.2649,-1.9529,-0.1860,0.2806,-78.4500,-16.8000,-10.6500,9.5984,2.0973,-0.8811,-1.5572,0.1143,1.0006,-27.9000,-1.0500,30.1500,5.8600,-1.3900,-7.6000,0.0425,0.0382,-0.0131,-11.7500,25.2500,-0.2500,79.6250,37.3125,168.6250,0
1776970348.034,9.5193,1.6209,2.0423,-2.0091,-0.2851,0.2827,-81.0000,-16.8000,-10.6500,9.4643,2.7294,-0.9242,-1.4797,0.1322,1.0821,-28.0500,-1.2000,28.6500,5.8700,-1.3300,-7.7000,0.0425,0.0382,-0.0131,-11.7500,25.2500,-0.2500,79.6250,37.3125,168.6250,0
1776970348.043,9.3039,1.8723,1.9704,-2.0342,-0.3912,0.3160,-81.0000,-18.4500,-10.5000,9.5648,3.0047,-0.6752,-1.3931,0.1567,1.1511,-26.7000,-0.4500,29.7000,5.8300,-1.4400,-7.7500,0.0556,0.0273,-0.0175,-11.7500,25.2500,-0.2500,79.6250,37.3125,168.6250,0
1776970348.048,9.3039,1.8723,1.9704,-2.0342,-0.3912,0.3160,-78.9000,-17.1000,-12.4500,9.5648,3.0047,-0.6752,-1.3931,0.1567,1.1511,-26.7000,-0.4500,29.7000,5.8300,-1.4400,-7.7500,0.0513,0.0589,-0.0218,-11.7500,25.2500,-0.2500,79.6250,37.3750,168.6250,0
1776970348.054,9.3589,2.3032,1.8268,-2.0275,-0.4999,0.3472,-80.4000,-18.0000,-12.1500,9.4116,3.5171,-1.0439,-1.2316,0.1948,1.2063,-26.1000,-3.7500,30.1500,6.0300,-1.3300,-7.5700,0.0513,0.0589,-0.0218,-11.7500,25.2500,-0.2500,79.6250,37.3750,168.6250,0
1776970348.059,9.0956,2.7892,1.9034,-2.0275,-0.4999,0.3472,-80.4000,-18.0000,-12.1500,9.1961,3.4309,-0.8930,-1.2089,0.2284,1.2351,-26.1000,-3.7500,30.1500,6.0300,-1.3300,-7.5700,0.0513,0.0589,-0.0218,-12.5000,25.2500,-1.5000,79.6250,37.3750,168.6250,0
1776970348.064,9.0956,2.7892,1.9034,-1.9966,-0.5862,0.3834,-79.0500,-18.1500,-11.5500,9.1961,3.4309,-0.8930,-1.2089,0.2284,1.2351,-26.1000,-3.7500,30.1500,5.7400,-1.5000,-7.6800,0.0087,0.0916,-0.0175,-12.5000,25.2500,-1.5000,79.6250,37.3750,168.6250,0
1776970348.069,8.9208,3.0742,1.7573,-1.9966,-0.5862,0.3834,-79.0500,-18.1500,-11.5500,8.9208,2.7198,-0.8859,-1.1191,0.2718,1.2569,-26.1000,-3.7500,30.1500,5.7400,-1.5000,-7.6800,0.0087,0.0916,-0.0175,-12.5000,25.2500,-1.5000,79.5625,37.4375,168.6250,0
1776970348.074,8.9208,3.0742,1.7573,-1.9428,-0.6273,0.4042,-79.0500,-18.1500,-11.5500,8.9208,2.7198,-0.8859,-1.1191,0.2718,1.2569,-27.1500,-4.0500,28.0500,6.0800,-1.1600,-7.4300,-0.0087,0.1102,-0.0185,-12.5000,25.2500,-1.5000,79.5625,37.4375,168.6250,0
1776970348.079,8.8897,3.1915,1.7023,-1.8666,-0.6190,0.3901,-80.1000,-18.7500,-12.4500,8.5880,2.0710,-1.0870,-1.0445,0.3325,1.2923,-27.1500,-4.0500,28.0500,6.0800,-1.1600,-7.4300,-0.0185,0.1604,0.0033,-12.5000,25.2500,-1.5000,79.6250,37.5625,168.6250,0
1776970348.084,8.8897,3.1915,1.7023,-1.8666,-0.6190,0.3901,-80.1000,-18.7500,-12.4500,8.5880,2.0710,-1.0870,-1.0445,0.3325,1.2923,-26.8500,-3.3000,28.8000,6.1200,-1.1700,-7.5100,-0.0185,0.1604,0.0033,-12.5000,25.2500,-1.5000,79.6250,37.6250,168.6250,0
1776970348.094,8.7436,3.2298,1.5012,-1.7992,-0.5862,0.3765,-80.1000,-18.7500,-12.4500,8.8322,1.1468,-1.0391,-1.0954,0.4021,1.3158,-26.4000,-5.5500,29.5500,6.3200,-0.9500,-7.3300,-0.0709,0.1451,0.0622,-12.5000,25.2500,-1.5000,79.7500,37.6875,168.6250,0
1776970348.104,8.8298,3.1891,1.0199,-1.7261,-0.5529,0.3898,-78.9000,-19.0500,-15.4500,8.8992,0.6201,-1.4222,-1.2151,0.4567,1.3640,-28.5000,-4.9500,28.6500,5.8000,-1.7800,-7.5900,-0.0960,0.1244,0.1178,-12.5000,25.2500,-1.5000,79.7500,37.6875,168.6250,0
1776970348.109,8.9423,2.8443,0.5555,-1.7150,-0.4802,0.4096,-78.9000,-19.0500,-15.4500,8.8705,0.1604,-1.2450,-1.2604,0.4852,1.4056,-28.5000,-4.9500,28.6500,5.8000,-1.7800,-7.5900,-0.0960,0.1244,0.1178,-12.5000,25.2500,-1.5000,79.8750,37.7500,168.6250,0
1776970348.114,8.9423,2.8443,0.5555,-1.7150,-0.4802,0.4096,-78.9000,-19.0500,-15.4500,8.8705,0.1604,-1.2450,-1.2604,0.4852,1.4056,-26.4000,-6.0000,28.5000,5.8700,-1.6400,-7.4700,-0.1091,0.1233,0.1702,-11.5000,25.2500,-1.0625,79.8750,37.7500,168.6250,0
1776970348.118,9.0525,2.7892,0.3879,-1.6742,-0.4884,0.4367,-78.4500,-19.0500,-16.6500,9.0549,0.8571,-1.3503,-1.2636,0.5561,1.4424,-26.4000,-6.0000,28.5000,5.8700,-1.6400,-7.4700,-0.1091,0.1233,0.1702,-11.5000,25.2500,-1.0625,80.0000,37.8125,168.5625,0
1776970348.124,9.0525,2.7892,0.3879,-1.6742,-0.4884,0.4367,-78.4500,-19.0500,-16.6500,9.0549,0.8571,-1.3503,-1.2636,0.5561,1.4424,-26.4000,-6.0000,28.5000,6.0200,-1.7300,-7.3000,-0.0916,0.1669,0.1909,-11.5000,25.2500,-1.0625,80.0000,37.8125,168.5625,0
1776970348.132,9.6223,2.7414,0.7350,-1.6641,-0.4700,0.4120,-79.6500,-19.9500,-14.7000,9.7899,2.2817,-1.8794,-1.2287,0.5875,1.4602,-27.1500,-7.0500,28.0500,5.8600,-1.6100,-7.6600,-0.1494,0.1854,0.2422,-11.5000,25.2500,-1.0625,80.1875,37.8750,168.5000,0
1776970348.137,10.6183,2.8228,0.7135,-1.6641,-0.4700,0.4120,-78.9000,-18.3000,-17.4000,10.3789,4.4269,-2.2913,-1.2105,0.6328,1.5012,-27.1500,-7.0500,28.0500,5.8600,-1.6100,-7.6600,-0.1494,0.1854,0.2422,-11.5000,25.2500,-1.0625,80.3750,37.9375,168.5000,0
1776970348.144,10.6183,2.8228,0.7135,-1.6867,-0.6057,0.3208,-78.9000,-18.3000,-17.4000,10.3789,4.4269,-2.2913,-1.2105,0.6328,1.5012,-26.7000,-7.6500,26.8500,5.0200,0.8000,-9.2400,-0.1996,0.1516,0.2825,-11.5000,25.2500,-1.0625,80.5625,38.0000,168.4375,0
1776970348.154,11.1259,3.1603,0.3711,-1.5775,-0.8593,0.1106,-79.0500,-19.3500,-18.3000,10.8026,6.5290,-3.5243,-1.1269,0.7965,1.5540,-25.6500,-9.0000,28.8000,5.6500,0.7100,-8.7100,-0.1745,0.1876,0.3011,-11.5000,25.2500,-1.0625,80.5625,38.0000,168.4375,0
1776970348.159,12.7252,3.3998,-0.1748,-1.2180,-1.1008,-0.1410,-79.6500,-19.0500,-18.0000,11.5089,5.5258,-4.7525,-0.7853,0.9132,1.5103,-25.6500,-9.0000,28.8000,5.6500,0.7100,-8.7100,-0.1745,0.1876,0.3011,-11.5000,25.2500,-1.0625,80.7500,38.1875,168.3125,0
1776970348.164,12.7252,3.3998,-0.1748,-1.2180,-1.1008,-0.1410,-79.6500,-19.0500,-18.0000,11.5089,5.5258,-4.7525,-0.7853,0.9132,1.5103,-25.2000,-8.7000,30.4500,5.7100,1.8400,-9.4600,-0.0480,0.4396,0.2705,-11.5000,25.5625,-1.0625,80.7500,38.1875,168.3125,0
1776970348.169,13.8026,3.5674,0.2705,-0.7605,-1.2590,-0.2960,-78.7500,-18.4500,-19.8000,11.9040,3.4692,-4.5322,-0.3179,1.1245,1.4346,-25.2000,-8.7000,30.4500,5.7100,1.8400,-9.4600,-0.0480,0.4396,0.2705,-11.5000,25.5625,-1.0625,80.9375,38.5625,168.1250,0
1776970348.174,13.8026,3.5674,0.2705,-0.7605,-1.2590,-0.2960,-78.7500,-18.4500,-19.8000,11.9040,3.4692,-4.5322,-0.3179,1.1245,1.4346,-25.2000,-8.7000,30.4500,5.5200,1.4700,-9.9300,0.0447,0.6916,0.2858,-11.5000,25.5625,-1.0625,80.9375,38.5625,168.1250,0
1776970348.179,14.3939,3.1196,-0.7566,-0.3848,-1.4951,-0.4543,-78.7500,-18.4500,-19.8000,10.6135,1.1875,-3.6607,-0.1111,1.5199,1.3400,-25.2000,-8.7000,30.4500,5.5200,1.4700,-9.9300,0.1167,0.9370,0.4178,-11.5000,25.5625,-1.0625,81.1875,39.0000,167.7500,0
1776970348.184,14.2096,2.3822,-1.9465,-0.3848,-1.4951,-0.4543,-78.7500,-18.4500,-19.8000,10.8242,-1.0822,0.1365,-0.3451,2.0430,1.2076,-25.5000,-10.9500,30.0000,7.1400,-0.0600,-9.1900,0.1167,0.9370,0.4178,-11.5000,25.5625,-1.0625,81.7500,39.5625,167.1250,0
1776970348.194,14.0947,-0.1867,-1.9704,-0.5316,-1.4853,-0.7045,-79.5000,-18.1500,-20.5500,11.8752,-3.1244,0.6105,-0.7855,2.3502,1.0485,-24.3000,-11.5500,28.0500,6.8700,-6.4000,-7.4900,0.2007,1.2435,0.9588,-11.5000,25.5625,-1.0625,81.7500,39.5625,167.1250,0
1776970348.204,14.6908,-2.5570,-0.7901,-1.1111,-1.2859,-1.0211,-79.5000,-18.1500,-20.5500,13.8576,-5.0254,0.9170,-1.7054,2.3411,0.7802,-25.5000,-12.1500,31.0500,7.5100,0.0900,-9.3800,-0.5672,1.4279,1.7802,-11.5000,25.5625,-1.0625,82.9375,40.1250,166.5000,0
1776970348.209,14.6908,-2.5570,-0.7901,-1.8061,-1.2452,-1.2622,-80.2500,-18.1500,-22.6500,13.8576,-5.0254,0.9170,-1.7054,2.3411,0.7802,-25.5000,-12.1500,31.0500,7.5100,0.0900,-9.3800,-0.5672,1.4279,1.7802,-11.5000,25.5625,-1.0625,82.9375,40.1250,166.5000,0
1776970348.214,14.8225,-4.2856,0.2538,-2.5317,-1.2375,-1.3997,-80.2500,-18.1500,-22.6500,14.5974,-6.2465,2.3176,-2.8663,2.2692,0.5231,-25.6500,-14.2500,30.1500,8.8400,5.4700,-8.8900,-1.0832,1.9166,2.3344,-11.8750,26.3750,-1.5000,84.5625,40.8125,165.8125,0
1776970348.219,14.8225,-4.2856,0.2538,-2.5317,-1.2375,-1.3997,-80.2500,-16.9500,-25.3500,14.5974,-6.2465,2.3176,-2.8663,2.2692,0.5231,-25.6500,-14.2500,30.1500,8.8400,5.4700,-8.8900,-1.0832,1.9166,2.3344,-11.8750,26.3750,-1.5000,84.5625,40.8125,165.8125,0
1776970348.224,13.6158,-4.9416,1.1708,-3.2905,-1.4234,-1.4176,-80.2500,-16.9500,-25.3500,14.7243,-7.3047,3.2753,-4.1232,1.9899,0.3765,-24.3000,-12.3000,30.6000,7.9000,4.3600,-10.3100,-1.4661,2.4555,2.4958,-11.8750,26.3750,-1.5000,86.4375,41.8125,165.1250,0
1776970348.232,13.3309,-3.9385,1.0008,-3.2905,-1.4234,-1.4176,-79.8000,-15.0000,-25.3500,14.7243,-7.3047,3.2753,-4.1232,1.9899,0.3765,-24.3000,-12.3000,30.6000,7.8000,2.9600,-11.0000,-1.4464,2.9987,3.5430,-11.8750,26.3750,-1.5000,55.5000,42.8750,163.8125,0
1776970348.237,13.3309,-3.9385,1.0008,-3.6220,-1.8106,-1.3430,-81.0000,-14.5500,-26.1000,12.7611,-5.0925,7.0390,-5.4414,1.7539,0.2681,-24.3000,-12.3000,30.6000,7.8000,2.9600,-11.0000,-1.4464,2.9987,3.5430,-11.8750,26.3750,-1.5000,55.6875,43.7500,161.8750,0
1776970348.244,11.3030,-3.7757,0.1245,-3.4152,-1.8042,-1.2457,-81.0000,-14.5500,-26.1000,11.5712,-3.5075,7.3670,-6.5211,1.6721,0.1561,-23.4000,-13.2000,29.7000,8.4700,1.1200,-8.2700,-1.0112,2.8492,4.0241,-11.8750,26.3750,-1.5000,55.3750,44.3125,159.8125,0
1776970348.254,10.0317,-3.9887,-1.2522,-2.7832,-1.4623,-1.1847,-79.6500,-12.4500,-28.5000,10.4363,-4.9153,6.0765,-6.7951,1.4789,0.0125,-25.2000,-13.9500,29.2500,8.3300,-0.2800,-10.0700,-0.8138,2.5645,4.1408,-11.8750,26.3750,-1.5000,55.3750,44.3125,159.8125,0
1776970348.259,10.0317,-3.9887,-1.2522,-2.7832,-1.4623,-1.1847,-80.4000,-13.9500,-29.5500,10.4363,-4.9153,6.0765,-6.7951,1.4789,0.0125,-24.7500,-13.6500,26.1000,8.3300,-0.2800,-10.0700,-0.8138,2.5645,4.1408,-11.8750,26.3750,-1.5000,54.5625,44.5625,157.6875,0
1776970348.264,8.8011,-5.5737,-1.9106,-2.3779,-1.0920,-1.1610,-80.4000,-13.9500,-29.5500,8.4491,-5.2002,6.4117,-6.8713,1.3486,-0.1929,-24.7500,-13.6500,26.1000,13.3600,-1.1200,-8.3400,-0.4887,1.9395,3.9597,-10.0000,27.8750,-1.8750,54.5625,44.5625,157.6875,0
1776970348.269,8.8011,-5.5737,-1.9106,-2.3779,-1.0920,-1.1610,-80.4000,-13.9500,-29.5500,8.4491,-5.2002,6.4117,-6.8713,1.3486,-0.1929,-25.3500,-13.6500,26.1000,13.3600,-1.1200,-8.3400,-0.4887,1.9395,3.9597,-10.0000,27.8750,-1.8750,54.5625,44.5625,157.6875,0
1776970348.273,7.6471,-5.4253,-2.1189,-2.2633,-0.6590,-1.1434,-80.4000,-13.9500,-29.5500,7.2760,-4.7980,5.5809,-7.0607,1.4250,-0.3736,-25.3500,-15.7500,24.1500,8.5600,3.1100,-9.8100,-1.6788,1.6646,4.3066,-10.0000,27.8750,-1.8750,54.8750,44.4375,156.0625,0
1776970348.278,7.6471,-5.4253,-2.1189,-2.2633,-0.6590,-1.1434,-79.6500,-12.0000,-30.6000,7.2760,-4.7980,5.5809,-7.0607,1.4250,-0.3736,-25.3500,-15.7500,24.1500,8.5600,3.1100,-9.8100,-2.8689,2.7696,6.1119,-10.0000,27.8750,-1.8750,55.9375,44.4375,154.0625,0
1776970348.285,8.4874,-5.6982,-2.1620,-2.5900,-0.6811,-0.9686,-79.6500,-12.0000,-30.6000,7.0773,-5.7150,5.7365,-7.0591,1.4069,-0.5620,-25.3500,-15.7500,24.1500,8.2900,4.6100,-9.0300,-2.8689,2.7696,6.1119,-10.0000,27.8750,-1.8750,56.3125,44.0625,151.2500,0
1776970348.294,9.0573,-7.5010,-2.5307,-3.1746,-1.3843,-0.8471,-79.3500,-11.7000,-29.8500,6.1220,-5.4636,4.5610,-7.0573,1.3150,-0.5865,-25.3500,-15.7500,24.1500,16.6700,-5.4400,-10.2300,-2.7434,3.0456,7.3609,-10.0000,27.8750,-1.8750,56.3125,44.0625,151.2500,0
1776970348.304,7.2018,-8.4324,-1.3743,-4.1030,-1.0131,-0.7557,-79.8000,-10.6500,-32.4000,6.0837,-5.1715,4.0869,-7.3624,1.4306,-0.5476,-27.0000,-12.4500,21.1500,7.8700,0.8500,-5.0500,-2.2166,2.2940,7.6816,-10.0000,27.8750,-1.8750,55.5625,43.0000,148.3750,0
1776970348.309,9.0142,-8.8274,-0.3855,-4.1030,-1.0131,-0.7557,-79.6500,-8.5500,-32.1000,6.0837,-5.1715,4.0869,-7.3624,1.4306,-0.5476,-25.6500,-10.8000,19.9500,7.8700,0.8500,-5.0500,-2.2166,2.2940,7.6816,-10.0000,27.8750,-1.8750,55.5625,43.0000,148.3750,0
1776970348.314,9.0142,-8.8274,-0.3855,-4.3596,-1.4080,-0.5127,-79.6500,-8.5500,-32.1000,5.2481,-4.0223,3.9385,-7.4769,1.5319,-0.5873,-25.6500,-10.8000,19.9500,5.8700,5.2400,-0.1700,-2.9311,1.1705,6.4064,-6.0000,31.8750,-0.2500,55.5625,41.6250,146.9375,0
1776970348.319,7.8745,-7.7117,-0.4741,-4.3596,-1.4080,-0.5127,-77.7000,-8.5500,-32.5500,5.2481,-4.0223,3.9385,-7.4769,1.5319,-0.5873,-25.3500,-11.2500,18.4500,5.8700,5.2400,-0.1700,-2.9311,1.1705,6.4064,-6.0000,31.8750,-0.2500,55.5625,41.6250,146.9375,0
1776970348.324,7.8745,-7.7117,-0.4741,-4.3076,-1.4125,-0.3635,-77.7000,-8.5500,-32.5500,4.3790,-2.8180,3.6727,-6.9429,1.7315,-0.7309,-25.3500,-11.2500,18.4500,7.9500,11.3200,1.8500,-3.9793,1.4966,5.3778,-6.0000,31.8750,-0.2500,57.4375,40.6875,146.5625,0
1776970348.331,7.8506,-6.4332,-2.1787,-4.3066,-1.0171,-0.2915,-77.4000,-6.9000,-34.8000,4.3862,-1.6688,3.8188,-6.0260,1.9215,-0.8823,-26.4000,-10.0500,16.6500,9.9400,13.5600,-0.9000,-4.9775,2.2602,4.7233,-6.0000,31.8750,-0.2500,61.1875,40.3125,146.8750,0
1776970348.336,7.8506,-6.4332,-2.1787,-4.3066,-1.0171,-0.2915,-77.4000,-6.9000,-34.8000,4.3862,-1.6688,3.8188,-6.0260,1.9215,-0.8823,-26.4000,-10.0500,16.6500,9.9400,13.5600,-0.9000,-4.9775,2.2602,4.7233,-6.0000,31.8750,-0.2500,65.6250,40.2500,147.3125,0
1776970348.344,7.1515,-5.7245,-2.2098,-4.4707,-0.5721,-0.1945,-77.4000,-6.9000,-34.8000,5.1595,-0.4262,3.8858,-5.3306,2.1141,-1.0208,-26.4000,-10.0500,16.6500,9.1000,8.0800,-5.0000,-5.2338,2.6834,4.4713,-6.0000,31.8750,-0.2500,69.4375,40.3125,147.7500,0
1776970348.354,7.6016,-4.5586,-1.0127,-4.3055,-0.0658,-0.1426,-77.2500,-4.5000,-34.5000,6.2920,0.6081,3.1388,-4.5077,2.2218,-1.1879,-28.2000,-7.5000,14.5500,7.5700,4.9000,-4.7300,-4.2291,2.2504,3.3521,-6.0000,31.8750,-0.2500,69.4375,40.3125,147.7500,0
1776970348.359,7.9009,-2.7581,1.6376,-3.8994,0.2699,-0.1018,-77.2500,-4.5000,-34.5000,6.8761,0.0694,2.8132,-3.4891,2.3603,-1.3265,-30.1500,-7.5000,15.9000,7.5700,4.9000,-4.7300,-4.2291,2.2504,3.3521,-6.0000,31.8750,-0.2500,69.4375,40.3125,147.7500,0
1776970348.364,7.9009,-2.7581,1.6376,-3.8994,0.2699,-0.1018,-77.2500,-4.5000,-34.5000,6.8761,0.0694,2.8132,-3.4891,2.3603,-1.3265,-30.1500,-7.5000,15.9000,6.1400,2.6400,-4.7600,-3.8386,2.0486,2.2417,0.5000,36.6875,7.5000,73.4375,40.6250,148.5000,0
1776970348.369,8.4084,-1.2163,3.4093,-3.6052,0.4226,-0.1543,-77.7000,-3.9000,-33.6000,7.7405,-1.0247,2.7174,-2.6316,2.3595,-1.4298,-30.1500,-6.7500,16.6500,6.1400,2.6400,-4.7600,-3.8386,2.0486,2.2417,0.5000,36.6875,7.5000,73.4375,40.6250,148.5000,0
1776970348.374,8.4084,-1.2163,3.4093,-3.6052,0.4226,-0.1543,-77.7000,-3.9000,-33.6000,7.7405,-1.0247,2.7174,-2.6316,2.3595,-1.4298,-30.1500,-6.7500,16.6500,5.7200,-0.1100,-5.8300,-4.2095,2.0344,1.3614,0.5000,36.6875,7.5000,78.2500,41.1875,149.7500,0
1776970348.379,8.3270,-0.5914,4.8147,-3.6116,0.6022,-0.2401,-78.4500,-2.2500,-33.3000,8.4372,-2.3032,2.8683,-2.1189,2.2556,-1.4946,-30.6000,-5.4000,17.5500,5.7200,-0.1100,-5.8300,-4.5564,2.1653,0.6469,0.5000,36.6875,7.5000,84.0000,42.0625,151.5000,0
1776970348.385,8.3270,-0.5914,4.8147,-3.6116,0.6022,-0.2401,-78.4500,-2.2500,-33.3000,8.4372,-2.3032,2.8683,-2.1189,2.2556,-1.4946,-30.6000,-5.4000,17.5500,6.0900,-0.9400,-6.7200,-4.5564,2.1653,0.6469,0.5000,36.6875,7.5000,90.0625,43.0000,153.5000,0
1776970348.394,8.7101,-0.0982,5.0949,-3.6729,0.5654,-0.2598,-77.5500,-1.3500,-33.0000,8.5832,-3.9911,2.5594,-1.8594,2.0915,-1.4887,-32.2500,-6.3000,17.4000,5.7900,-1.8100,-7.7500,-4.6884,2.0769,0.1974,0.5000,36.6875,7.5000,90.0625,43.0000,153.5000,0
1776970348.404,8.6933,-0.0814,4.8866,-3.6212,0.4511,-0.2843,-80.2500,-1.3500,-33.4500,8.6933,-5.4037,2.3176,-1.8373,1.9857,-1.4360,-32.2500,-6.3000,17.4000,4.7800,-5.0700,-8.1200,-4.4560,1.8893,0.0764,0.5000,36.6875,7.5000,95.8750,43.9375,155.5000,0
1776970348.409,9.3206,-0.3065,4.3024,-3.4664,0.4309,-0.3301,-78.7500,-0.1500,-33.4500,8.9160,-6.8019,2.2218,-2.0374,1.9284,-1.3675,-34.0500,-4.5000,18.4500,4.7800,-5.0700,-8.1200,-4.4560,1.8893,0.0764,0.5000,36.6875,7.5000,100.9375,44.8750,157.1250,0
1776970348.414,9.3206,-0.3065,4.3024,-3.4664,0.4309,-0.3301,-78.7500,-0.1500,-33.4500,8.9160,-6.8019,2.2218,-2.0374,1.9284,-1.3675,-34.0500,-4.5000,18.4500,4.5000,-7.2200,-7.8900,-3.8397,1.8904,0.2291,-0.6875,42.2500,19.3750,100.9375,44.8750,157.1250,0
1776970348.419,10.0509,-0.7542,3.0311,-3.1722,0.4509,-0.3565,-79.0500,-0.4500,-33.0000,9.3087,-7.9057,2.2098,-2.4954,1.6995,-1.3097,-33.1500,-4.2000,18.6000,4.5000,-7.2200,-7.8900,-3.8397,1.8904,0.2291,-0.6875,42.2500,19.3750,100.9375,44.8750,157.1250,0
1776970348.424,10.2137,-1.6305,1.4246,-3.1722,0.4509,-0.3565,-79.0500,-0.4500,-33.0000,9.3087,-7.9057,2.2098,-2.4954,1.6995,-1.3097,-33.1500,-4.2000,18.6000,4.4000,-8.5100,-7.8200,-3.2158,1.8021,0.5018,-0.6875,42.2500,19.3750,105.0625,45.6875,158.2500,0
1776970348.430,10.2137,-1.6305,1.4246,-2.8701,0.5020,-0.3357,-79.0500,-0.4500,-33.0000,8.9759,-8.4491,2.0231,-3.0864,1.5783,-1.3275,-34.8000,-2.5500,18.7500,4.3300,-8.9700,-7.7100,-3.0183,1.6232,0.9163,-0.6875,42.2500,19.3750,108.6250,46.3125,159.1250,0
1776970348.435,9.9383,-1.8986,0.3184,-2.7384,0.5929,-0.1961,-79.0500,-0.4500,-33.0000,8.9759,-8.4491,2.0231,-3.6417,1.4035,-1.3179,-34.8000,-2.5500,18.7500,4.3300,-8.9700,-7.7100,-3.0183,1.6232,0.9163,-0.6875,42.2500,19.3750,111.8750,46.8125,159.7500,0
1776970348.444,10.0724,-1.3527,-0.3376,-2.7073,0.4882,-0.0277,-78.9000,0.7500,-32.8500,8.4683,-7.9775,1.5538,-3.6417,1.4035,-1.3179,-35.5500,-1.5000,18.7500,3.9900,-7.9200,-7.6800,-3.0652,1.4563,1.3657,-0.6875,42.2500,19.3750,111.8750,46.8125,159.7500,0
1776970348.454,9.7588,-0.3783,-0.1939,-2.6548,0.2241,0.1220,-78.9000,0.7500,-32.8500,8.7460,-6.7133,1.5802,-4.1896,1.2377,-1.2838,-35.5500,-1.5000,18.7500,4.5200,-6.5300,-7.7500,-3.2845,1.3624,1.8053,-0.6875,42.2500,19.3750,115.0625,47.1875,160.3125,0
1776970348.459,9.7588,-0.3783,-0.1939,-2.6548,0.2241,0.1220,-77.5500,1.3500,-33.4500,9.2416,-4.9632,0.8356,-4.5741,1.1319,-1.1967,-35.5500,-1.5000,18.7500,4.5200,-6.5300,-7.7500,-3.2845,1.3624,1.8053,-0.6875,42.2500,19.3750,117.6875,47.3125,160.4375,0
1776970348.464,10.0700,0.6512,-0.4549,-2.5863,0.0533,0.2228,-77.5500,1.3500,-33.4500,9.2416,-4.9632,0.8356,-4.6676,1.0413,-1.0629,-35.5500,-1.5000,18.7500,4.4400,-5.6500,-8.0500,-3.1994,1.1312,2.4391,-9.3750,46.5625,33.0625,117.6875,47.3125,160.4375,0
1776970348.469,10.0700,0.6512,-0.4549,-2.5863,0.0533,0.2228,-79.3500,1.9500,-34.0500,9.7971,-3.2848,0.1149,-4.6676,1.0413,-1.0629,-36.4500,0.1500,20.1000,4.4400,-5.6500,-8.0500,-3.1994,1.1312,2.4391,-9.3750,46.5625,33.0625,117.6875,47.3125,160.4375,0
1776970348.474,9.9623,1.4700,-0.2682,-2.4197,-0.0893,0.2286,-79.3500,1.9500,-34.0500,10.3166,-1.8459,-0.6704,-4.3996,0.9907,-0.9102,-36.4500,0.1500,20.1000,4.4100,-5.2600,-8.5500,-3.1994,1.1312,2.4391,-9.3750,46.5625,33.0625,120.3750,47.5000,160.6250,0
1776970348.479,9.9623,1.4700,-0.2682,-2.4197,-0.0893,0.2286,-78.9000,2.2500,-32.5500,10.3166,-1.8459,-0.6704,-4.3996,0.9907,-0.9102,-36.6000,0.3000,18.4500,4.4100,-5.2600,-8.5500,-3.1045,1.0821,2.5045,-9.3750,46.5625,33.0625,122.8125,47.5625,160.6875,0
1776970348.485,9.7348,1.7406,-0.1772,-2.1272,-0.0786,0.1745,-78.9000,2.2500,-32.5500,10.6973,-0.8595,-1.3001,-3.8435,0.9998,-0.7488,-35.8500,3.3000,18.7500,4.1800,-4.6000,-8.7500,-3.1045,1.0821,2.5045,-9.3750,46.5625,33.0625,125.3750,47.6875,160.8125,0
1776970348.494,9.8090,1.0511,-0.8475,-1.7211,-0.0322,0.1053,-79.5000,4.5000,-31.6500,10.7548,-0.5555,-1.7693,-3.1557,0.9510,-0.6491,-38.1000,3.3000,18.7500,3.9700,-3.7100,-9.0400,-3.0816,1.0341,2.3257,-9.3750,46.5625,33.0625,125.3750,47.6875,160.8125,0
1776970348.504,9.7827,0.3903,-1.6448,-1.3560,-0.0762,-0.0035,-78.4500,3.9000,-32.1000,10.2759,-0.5411,-2.3415,-2.4200,0.9206,-0.6422,-38.1000,3.3000,18.7500,3.7600,-3.2500,-9.3300,-2.7827,1.0603,1.6373,-9.3750,46.5625,33.0625,127.9375,47.9375,161.2500,0
1776970348.509,9.7827,0.3903,-1.6448,-1.3560,-0.0762,-0.0035,-79.6500,3.0000,-32.8500,10.2759,-0.5411,-2.3415,-2.4200,0.9206,-0.6422,-38.1000,3.3000,18.7500,3.7600,-3.2500,-9.3300,-2.7827,1.0603,1.6373,-9.3750,46.5625,33.0625,127.9375,47.9375,161.2500,0
1776970348.515,10.0269,-0.4980,-2.4612,-1.1215,-0.0386,-0.0626,-79.6500,3.0000,-32.8500,10.0437,-1.4676,-2.3774,-1.6784,0.9092,-0.7072,-38.1000,3.3000,18.7500,3.3000,-3.5900,-9.6300,-2.4849,1.0276,1.2839,-13.5625,46.1875,43.7500,130.3750,48.2500,161.6250,0
1776970348.519,10.0269,-0.4980,-2.4612,-1.1215,-0.0386,-0.0626,-79.6500,3.0000,-32.8500,10.0437,-1.4676,-2.3774,-1.6784,0.9092,-0.7072,-37.6500,3.3000,19.9500,3.3000,-3.5900,-9.6300,-2.4849,1.0276,1.2839,-13.5625,46.1875,43.7500,130.3750,48.2500,161.6250,0
1776970348.524,10.5105,-1.2905,-3.0813,-1.0989,-0.0027,-0.0586,-79.6500,3.0000,-32.8500,10.2568,-2.9449,-2.1835,-1.1884,0.8362,-0.7895,-37.2000,4.2000,18.6000,2.9700,-4.1900,-9.6100,-2.2362,0.9643,0.9861,-13.5625,46.1875,43.7500,132.6250,48.6250,162.1250,0
1776970348.531,10.5991,-1.4653,-3.1053,-1.2033,-0.0999,-0.0592,-79.8000,3.6000,-31.6500,10.2568,-2.9449,-2.1835,-1.1884,0.8362,-0.7895,-37.2000,4.2000,18.6000,2.6400,-4.7900,-9.6200,-2.0737,0.9152,0.7658,-13.5625,46.1875,43.7500,134.8125,48.9375,162.6250,0
1776970348.536,10.5991,-1.4653,-3.1053,-1.2033,-0.0999,-0.0592,-79.8000,3.6000,-31.6500,10.0341,-4.3742,-2.2434,-0.9316,0.7730,-0.9156,-38.1000,5.5500,20.2500,2.6400,-4.7900,-9.6200,-2.0737,0.9152,0.7658,-13.5625,46.1875,43.7500,136.9375,49.3125,163.1875,0
1776970348.545,10.5632,-1.8866,-2.9928,-1.4461,-0.1575,-0.0226,-79.8000,3.6000,-31.6500,10.1442,-5.0829,-1.7933,-0.9995,0.6776,-0.9843,-37.5000,5.7000,19.6500,2.9900,-5.6100,-10.2000,-1.9962,0.8879,0.6283,-13.5625,46.1875,43.7500,139.0000,49.6875,163.7500,0
1776970348.555,10.6111,-1.4772,-2.9736,-1.7706,-0.2062,0.0293,-79.3500,3.0000,-31.0500,10.2328,-5.3103,-1.6592,-1.2646,0.5444,-1.0126,-38.8500,5.2500,19.5000,3.0800,-6.0400,-10.5700,-1.9504,0.7919,0.5978,-13.5625,46.1875,43.7500,139.0000,49.6875,163.7500,0
1776970348.560,10.5848,-0.8906,-2.9329,-2.2457,-0.2571,0.0322,-80.5500,4.0500,-31.9500,10.2328,-5.3103,-1.6592,-1.2646,0.5444,-1.0126,-38.8500,5.2500,19.5000,3.0800,-6.0400,-10.5700,-1.9504,0.7919,0.5978,-13.5625,46.1875,43.7500,140.9375,49.8750,164.3125,0
1776970348.565,10.5848,-0.8906,-2.9329,-2.2457,-0.2571,0.0322,-80.5500,4.0500,-31.9500,10.5225,-5.1451,-1.4509,-1.5884,0.3656,-1.0184,-38.8500,5.2500,19.5000,3.3400,-6.6100,-10.7900,-1.9384,0.6130,0.6610,-19.7500,43.3750,53.7500,140.9375,49.8750,164.3125,0
1776970348.570,10.4651,-0.6800,-2.7485,-2.7483,-0.2888,0.0125,-79.6500,5.4000,-31.3500,10.5225,-5.1451,-1.4509,-1.5884,0.3656,-1.0184,-38.8500,5.2500,19.5000,3.3400,-6.6100,-10.7900,-1.9384,0.6130,0.6610,-19.7500,43.3750,53.7500,140.9375,49.8750,164.3125,0
1776970348.575,10.4651,-0.6800,-2.7485,-2.7483,-0.2888,0.0125,-79.6500,5.4000,-31.3500,10.8194,-4.5226,-1.4820,-1.8786,0.1863,-1.0147,-37.5000,7.2000,21.1500,2.4000,-6.6600,-10.9800,-1.9580,0.3829,0.7734,-19.7500,43.3750,53.7500,142.8125,50.0000,164.8125,0
1776970348.580,10.2496,-1.2737,-2.1859,-3.0182,-0.3381,0.0424,-80.1000,6.1500,-30.6000,10.8194,-4.5226,-1.4820,-1.8786,0.1863,-1.0147,-37.5000,7.2000,21.1500,2.4000,-6.6600,-10.9800,-1.9559,0.2618,0.9163,-19.7500,43.3750,53.7500,144.5625,50.0000,165.2500,0
1776970348.586,10.2496,-1.2737,-2.1859,-3.0182,-0.3381,0.0424,-80.1000,6.1500,-30.6000,10.6255,-3.7900,-1.5083,-2.1557,0.0642,-0.9966,-38.8500,7.5000,19.9500,2.0300,-6.3800,-10.9100,-1.9559,0.2618,0.9163,-19.7500,43.3750,53.7500,146.0625,49.9375,165.5625,0
1776970348.595,10.2448,-1.7885,-1.7071,-2.9231,-0.4362,0.0621,-79.8000,4.8000,-31.2000,10.4172,-3.3255,-1.5850,-2.3457,-0.0552,-0.9960,-39.0000,8.7000,18.6000,1.8700,-6.2200,-10.8900,-1.8730,0.1614,1.1126,-19.7500,43.3750,53.7500,146.0625,49.9375,165.5625,0
1776970348.605,10.4267,-1.7454,-1.5179,-2.6529,-0.5915,0.0432,-78.4500,6.9000,-31.3500,10.3717,-3.0933,-1.4820,-2.4179,-0.1668,-1.0349,-39.3000,9.9000,21.4500,1.7900,-6.1800,-10.8000,-1.7541,0.0033,1.3395,-19.7500,43.3750,53.7500,147.3125,49.7500,165.6875,0
1776970348.610,10.2687,-1.5347,-1.3336,-2.5407,-0.6603,0.0011,-78.4500,6.9000,-31.3500,10.3430,-3.0358,-1.3455,-2.4419,-0.2974,-1.1090,-39.3000,9.9000,21.4500,1.7900,-6.1800,-10.8000,-1.7541,0.0033,1.3395,-19.7500,43.3750,53.7500,148.4375,49.5000,165.6875,0
1776970348.615,10.2687,-1.5347,-1.3336,-2.5407,-0.6603,0.0011,-78.4500,6.9000,-31.3500,10.3430,-3.0358,-1.3455,-2.4419,-0.2974,-1.1090,-39.3000,9.9000,21.4500,1.6400,-5.8200,-10.8500,-1.7519,-0.0676,1.5577,-25.5000,38.5000,59.0000,148.4375,49.5000,165.6875,0
1776970348.619,9.9934,-1.3288,-1.0989,-2.5831,-0.6059,-0.0203,-78.3000,8.7000,-31.3500,10.3860,-2.9377,-1.0104,-2.5103,-0.4306,-1.2004,-39.3000,9.9000,21.4500,1.6400,-5.8200,-10.8500,-1.7519,-0.0676,1.5577,-25.5000,38.5000,59.0000,149.5000,49.1875,165.6250,0
1776970348.625,9.9934,-1.3288,-1.0989,-2.5831,-0.6059,-0.0203,-78.3000,8.7000,-30.4500,10.3860,-2.9377,-1.0104,-2.5103,-0.4306,-1.2004,-38.2500,9.9000,20.1000,1.6600,-5.4100,-10.8800,-1.8075,-0.1102,1.7682,-25.5000,38.5000,59.0000,149.5000,49.1875,165.6250,0
1776970348.634,10.2017,-1.1085,-0.7973,-2.7003,-0.6081,-0.0448,-78.3000,8.7000,-30.4500,10.2879,-2.7294,-0.7326,-2.5767,-0.5438,-1.2971,-39.7500,10.2000,19.0500,1.4400,-4.9500,-10.7300,-1.8795,-0.1713,1.9744,-25.5000,38.5000,59.0000,150.5000,48.8125,165.4375,0
1776970348.643,10.1897,-0.8595,-0.2945,-2.7936,-0.7200,-0.0650,-79.6500,6.9000,-30.6000,10.2208,-2.3487,-0.3926,-2.6724,-0.6523,-1.3971,-37.9500,12.4500,19.3500,1.1500,-4.2300,-10.2800,-1.9711,-0.1985,2.1588,-25.5000,38.5000,59.0000,151.5000,48.4375,165.2500,0
1776970348.648,10.1825,-0.5291,0.2035,-2.8789,-0.7554,-0.0991,-79.6500,6.9000,-30.6000,10.2208,-2.3487,-0.3926,-2.6724,-0.6523,-1.3971,-37.9500,12.4500,19.3500,1.1500,-4.2300,-10.2800,-1.9711,-0.1985,2.1588,-25.5000,38.5000,59.0000,152.5625,48.0000,165.0000,0
1776970348.655,10.0413,-0.1748,0.6632,-2.8789,-0.7554,-0.0991,-79.0500,7.9500,-30.9000,10.0580,-1.7837,0.1269,-2.8253,-0.7496,-1.4975,-38.8500,12.7500,18.1500,1.3100,-3.8900,-10.2200,-2.0540,-0.1854,2.3246,-25.5000,38.5000,59.0000,152.5625,48.0000,165.0000,0
1776970348.660,10.0413,-0.1748,0.6632,-2.9420,-0.7781,-0.1508,-79.0500,7.2000,-31.6500,9.9982,-1.5610,0.0431,-2.8837,-0.9228,-1.5948,-38.8500,12.7500,18.1500,1.3100,-3.8900,-10.2200,-2.0540,-0.1854,2.3246,-21.7500,34.5000,62.7500,153.6875,47.5625,164.8125,0
1776970348.665,9.7731,0.3376,0.9720,-2.9348,-0.7890,-0.1921,-79.0500,7.2000,-31.6500,9.9982,-1.5610,0.0431,-2.8837,-0.9228,-1.5948,-38.2500,13.9500,17.8500,1.8900,-3.6400,-10.4200,-2.1402,-0.1691,2.4533,-21.7500,34.5000,62.7500,153.6875,47.5625,164.8125,0
1776970348.670,9.7731,0.3376,0.9720,-2.9348,-0.7890,-0.1921,-79.0500,7.2000,-31.6500,9.6726,-1.3384,0.6057,-2.7792,-1.0904,-1.6792,-38.2500,13.9500,17.8500,1.8900,-3.6400,-10.4200,-2.1402,-0.1691,2.4533,-21.7500,34.5000,62.7500,154.8750,47.0625,164.6250,0
1776970348.675,9.5074,0.8954,1.0942,-2.8538,-0.8026,-0.2318,-79.0500,9.1500,-30.1500,9.6726,-1.3384,0.6057,-2.7792,-1.0904,-1.6792,-38.2500,13.9500,17.8500,4.1500,-3.3600,-11.5000,-2.2297,-0.1713,2.5187,-21.7500,34.5000,62.7500,154.8750,47.0625,164.6250,0
1776970348.683,9.5074,0.8954,1.0942,-2.8538,-0.8026,-0.2318,-78.9000,9.3000,-30.6000,9.4092,-1.0798,0.7638,-2.6569,-1.2015,-1.7341,-36.4500,16.6500,17.5500,5.0100,-3.2300,-11.8700,-2.3682,-0.3120,2.5100,-21.7500,34.5000,62.7500,156.1875,46.5625,164.5000,0
1776970348.688,9.3182,1.3192,1.2210,-2.7352,-0.7877,-0.2449,-78.9000,9.3000,-30.6000,9.5816,-0.8595,0.9313,-2.5820,-1.2726,-1.7730,-36.4500,16.6500,17.5500,5.0100,-3.2300,-11.8700,-2.3682,-0.3120,2.5100,-21.7500,34.5000,62.7500,157.6875,45.8750,164.6875,0
1776970348.695,9.2249,1.6305,1.2234,-2.5682,-0.7562,-0.2465,-79.6500,9.3000,-30.6000,9.5816,-0.8595,0.9313,-2.5820,-1.2726,-1.7730,-38.4000,17.2500,16.6500,5.1800,-3.0200,-11.5200,-2.5427,-0.6196,2.4195,-21.7500,34.5000,62.7500,159.5000,45.0625,165.0625,0
1776970348.705,9.0477,1.7214,1.2378,-2.3894,-0.7256,-0.2390,-79.6500,9.3000,-30.6000,9.7636,-0.7661,1.1205,-2.5572,-1.3454,-1.7992,-36.6000,17.2500,14.8500,4.9700,-2.4500,-10.9100,-2.7042,-0.9185,2.2537,-21.7500,34.5000,62.7500,159.5000,45.0625,165.0625,0
1776970348.710,9.0477,1.7214,1.2378,-2.3894,-0.7256,-0.2390,-79.6500,9.3000,-30.6000,9.8090,-0.5794,1.2857,-2.5303,-1.4149,-1.8181,-36.6000,17.2500,14.8500,4.9700,-2.4500,-10.9100,-2.7042,-0.9185,2.2537,-21.7500,34.5000,62.7500,159.5000,45.0625,165.0625,0
1776970348.715,9.0597,1.7334,1.2498,-2.2447,-0.6672,-0.2369,-80.1000,10.5000,-30.6000,9.8090,-0.5794,1.2857,-2.5303,-1.4149,-1.8181,-36.3000,20.5500,15.9000,4.4600,-1.0800,-9.6200,-2.7827,-1.1028,2.0671,-12.1875,30.0625,63.0000,161.4375,44.1250,165.6875,0
1776970348.720,9.0597,1.7334,1.2498,-2.2447,-0.6672,-0.2369,-80.1000,10.5000,-30.6000,9.6271,-0.3567,1.6041,-2.5042,-1.4623,-1.8447,-36.3000,20.5500,15.9000,4.4600,-1.0800,-9.6200,-2.7827,-1.1028,2.0671,-12.1875,30.0625,63.0000,161.4375,44.1250,165.6875,0
1776970348.725,8.8250,1.6233,1.3120,-2.1549,-0.5937,-0.2329,-80.1000,10.5000,-30.6000,9.6271,-0.3567,1.6041,-2.5042,-1.4623,-1.8447,-36.6000,18.7500,14.5500,4.2800,-0.7900,-9.1300,-2.7358,-1.1814,1.9013,-12.1875,30.0625,63.0000,191.5625,43.2500,166.3750,0
1776970348.733,8.6335,1.6735,1.4246,-2.1695,-0.4724,-0.2372,-79.5000,11.8500,-29.4000,9.3541,0.0024,1.5945,-2.5039,-1.5188,-1.8780,-36.6000,18.7500,14.5500,4.3300,-1.0300,-8.8800,-2.6038,-1.1585,1.7661,-12.1875,30.0625,63.0000,193.0000,42.4375,167.0625,0
1776970348.738,8.6335,1.6735,1.4246,-2.1695,-0.4724,-0.2372,-79.5000,11.8500,-29.4000,9.2895,0.4357,1.7861,-2.4816,-1.5628,-1.8980,-36.6000,18.7500,14.5500,4.3300,-1.0300,-8.8800,-2.6038,-1.1585,1.7661,-12.1875,30.0625,63.0000,194.4375,41.5625,167.7500,0
1776970348.745,8.5425,1.9249,1.5395,-2.1767,-0.3363,-0.2683,-78.7500,12.6000,-30.4500,9.4715,0.7661,1.9273,-2.4597,-1.6196,-1.9257,-34.9500,21.4500,13.9500,4.5100,-1.7000,-8.5300,-2.4773,-1.1661,1.6886,-12.1875,30.0625,63.0000,195.8125,40.7500,168.3750,0
1776970348.755,8.1594,2.4253,1.4365,-2.1578,-0.2883,-0.2867,-78.4500,13.9500,-30.6000,9.4715,0.8475,1.7861,-2.3363,-1.6819,-1.9406,-33.6000,24.1500,13.6500,4.8300,-2.0800,-8.3800,-2.3398,-1.1628,1.6853,-12.1875,30.0625,63.0000,195.8125,40.7500,168.3750,0
1776970348.760,8.1594,2.4253,1.4365,-2.1578,-0.2883,-0.2867,-78.4500,13.9500,-30.6000,9.4715,0.8475,1.7861,-2.3363,-1.6819,-1.9406,-33.7500,25.5000,12.4500,4.8300,-2.0800,-8.3800,-2.3398,-1.1628,1.6853,-12.1875,30.0625,63.0000,197.1875,39.9375,168.8750,0
1776970348.765,7.9296,2.7174,1.4150,-2.1290,-0.2499,-0.2715,-79.6500,13.6500,-30.3000,9.4691,0.9146,1.8627,-2.2106,-1.7432,-1.9316,-33.7500,25.5000,12.4500,5.4600,-2.4600,-8.5700,-2.1980,-1.1061,1.7453,0.8750,20.6875,60.7500,197.1875,39.9375,168.8750,0
1776970348.770,7.8626,3.0311,1.3862,-2.1290,-0.2499,-0.2715,-79.6500,13.6500,-30.3000,9.4691,0.9146,1.8627,-2.2106,-1.7432,-1.9316,-33.6000,26.4000,11.8500,5.4600,-2.4600,-8.5700,-2.1980,-1.1061,1.7453,0.8750,20.6875,60.7500,198.5625,39.1250,169.3125,0
1776970348.775,7.8626,3.0311,1.3862,-2.0683,-0.1391,-0.2558,-78.3000,13.0500,-28.9500,9.2632,0.6752,1.7286,-2.1056,-1.7933,-1.9025,-33.6000,26.4000,11.8500,6.3700,-3.8800,-8.7300,-2.0911,-1.1366,1.8817,0.8750,20.6875,60.7500,198.5625,39.1250,169.3125,0
1776970348.780,7.8410,3.4165,1.2665,-2.0683,-0.1391,-0.2558,-78.3000,13.0500,-28.9500,9.2632,0.6752,1.7286,-2.1056,-1.7933,-1.9025,-33.6000,26.4000,11.8500,6.3700,-3.8800,-8.7300,-2.0639,-1.1006,2.0049,0.8750,20.6875,60.7500,200.0625,38.3125,169.6250,0
1776970348.786,7.8410,3.4165,1.2665,-1.9705,-0.0314,-0.2345,-78.7500,15.0000,-30.1500,9.2656,0.4334,1.3958,-2.0422,-1.8063,-1.8394,-33.6000,26.4000,11.8500,7.2300,-4.5400,-8.9000,-2.0639,-1.1006,2.0049,0.8750,20.6875,60.7500,201.5625,37.5000,170.0000,0
1776970348.795,7.9224,3.6559,1.2881,-1.8540,0.0040,-0.2164,-78.7500,15.0000,-30.1500,8.9926,-0.2059,1.3527,-2.0704,-1.8082,-1.7597,-33.6000,26.4000,11.8500,7.8800,-4.9000,-8.8100,-2.1337,-1.1214,2.1053,0.8750,20.6875,60.7500,203.1875,36.6250,170.5000,0
1776970348.805,7.7692,3.6943,1.1253,-1.7485,0.0216,-0.2006,-78.7500,13.8000,-28.6500,8.9639,-0.4334,1.3168,-2.1509,-1.8141,-1.6984,-31.5000,30.0000,10.9500,8.1100,-4.9400,-8.4000,-2.3137,-1.2894,2.2057,0.8750,20.6875,60.7500,203.1875,36.6250,170.5000,0
1776970348.810,7.5417,3.3615,1.1061,-1.7368,0.3496,-0.1743,-78.7500,13.8000,-28.6500,8.9639,-0.4334,1.3168,-2.1509,-1.8141,-1.6984,-29.7000,31.8000,10.6500,8.1100,-4.9400,-8.4000,-2.3137,-1.2894,2.2057,0.8750,20.6875,60.7500,204.8750,35.6250,171.0000,0
1776970348.815,7.5417,3.3615,1.1061,-1.7368,0.3496,-0.1743,-78.7500,13.8000,-28.6500,8.9423,-0.2873,1.0534,-2.3020,-1.7642,-1.6132,-29.7000,31.8000,10.6500,7.9000,-4.4700,-7.2000,-2.4598,-1.4443,2.2984,11.5000,8.3750,53.5625,204.8750,35.6250,171.0000,0
1776970348.820,7.5872,3.1819,0.6847,-1.6174,0.4008,-0.1841,-78.7500,13.8000,-28.6500,8.9423,-0.2873,1.0534,-2.3020,-1.7642,-1.6132,-29.1000,32.4000,10.0500,7.9000,-4.4700,-7.2000,-2.4598,-1.4443,2.2984,11.5000,8.3750,53.5625,204.8750,35.6250,171.0000,0
1776970348.825,7.5872,3.1819,0.6847,-1.6174,0.4008,-0.1841,-78.4500,15.6000,-27.7500,8.8825,0.1437,0.8523,-2.4693,-1.7168,-1.5124,-29.1000,32.4000,10.0500,7.7500,-3.9900,-6.3900,-2.5384,-1.6013,2.4293,11.5000,8.3750,53.5625,206.5625,34.5625,171.5625,0
1776970348.833,7.5465,2.8730,0.8882,-1.5428,0.5689,-0.1242,-78.9000,16.3500,-27.7500,8.8657,0.6153,0.4381,-2.5823,-1.6870,-1.4352,-29.7000,32.2500,10.9500,7.9700,-3.4300,-5.4900,-2.5133,-1.7628,2.6496,11.5000,8.3750,53.5625,208.4375,33.3750,172.0625,0
1776970348.838,7.9224,3.2394,0.4405,-1.3896,0.5764,-0.0522,-78.9000,16.3500,-27.7500,8.8657,0.6153,0.4381,-2.5823,-1.6870,-1.4352,-29.7000,32.2500,10.9500,7.9700,-3.4300,-5.4900,-2.5133,-1.7628,2.6496,11.5000,8.3750,53.5625,210.4375,32.1250,172.5625,0
1776970348.846,7.9224,3.2394,0.4405,-1.3896,0.5764,-0.0522,-79.3500,13.9500,-27.0000,8.5976,0.8763,0.0838,-2.6377,-1.6355,-1.3638,-29.7000,32.2500,10.9500,4.5500,-4.3900,-5.8800,-2.5165,-1.8391,2.9529,11.5000,8.3750,53.5625,212.2500,31.1875,172.9375,0
1776970348.855,7.7357,3.7206,0.4764,-1.3725,0.6891,0.0000,-79.3500,16.8000,-27.7500,8.8011,1.8723,0.1652,-2.5897,-1.5977,-1.3161,-27.6000,34.0500,10.6500,8.5700,-3.7000,-4.1900,-2.3049,-1.3744,2.7783,11.5000,8.3750,53.5625,212.2500,31.1875,172.9375,0
1776970348.860,8.1403,4.0223,0.0359,-1.2548,0.6952,0.0370,-79.3500,16.8000,-27.7500,8.8011,1.8723,0.1652,-2.5897,-1.5977,-1.3161,-26.8500,36.0000,8.8500,8.5700,-3.7000,-4.1900,-2.3049,-1.3744,2.7783,11.5000,8.3750,53.5625,212.2500,31.1875,172.9375,0
1776970348.865,8.1403,4.0223,0.0359,-1.2548,0.6952,0.0370,-78.7500,16.9500,-27.1500,8.2456,2.3439,0.1030,-2.3236,-1.4040,-1.1442,-26.8500,36.0000,8.8500,9.6000,-3.7200,-4.9200,-2.1729,-0.5061,2.3224,16.0625,-4.3750,43.5000,213.8750,30.7500,173.3750,0
1776970348.870,8.2265,4.3838,-0.4094,-1.0970,0.6941,0.0655,-78.7500,16.9500,-27.1500,8.2456,2.3439,0.1030,-2.3236,-1.4040,-1.1442,-28.2000,38.2500,9.6000,9.6000,-3.7200,-4.9200,-2.1729,-0.5061,2.3224,16.0625,-4.3750,43.5000,213.8750,30.7500,173.3750,0
1776970348.875,8.2265,4.3838,-0.4094,-1.0970,0.6941,0.0655,-79.6500,17.1000,-26.5500,8.2672,2.7581,-0.1125,-1.9268,-1.2119,-0.9792,-28.2000,38.2500,9.6000,11.0600,-3.0000,-5.6400,-2.1729,-0.3851,2.1838,16.0625,-4.3750,43.5000,215.4375,30.3750,173.8750,0
1776970348.880,8.6598,4.8674,-0.8452,-0.8652,0.7069,0.0839,-79.6500,17.1000,-26.5500,8.2672,2.7581,-0.1125,-1.9268,-1.2119,-0.9792,-26.4000,37.0500,9.9000,11.0600,-3.0000,-5.6400,-2.1064,-0.6687,2.1293,16.0625,-4.3750,43.5000,216.8750,29.9375,174.3750,0
1776970348.886,8.8514,5.2625,-1.0582,-0.6302,0.5388,0.0767,-79.6500,17.1000,-26.5500,8.2504,2.7797,-0.4405,-1.5354,-1.0094,-0.8386,-26.4000,37.0500,9.9000,10.4000,-2.1500,-4.8400,-2.1064,-0.6687,2.1293,16.0625,-4.3750,43.5000,218.2500,29.3750,174.8750,0
1776970348.895,8.5569,5.0518,-0.9146,-0.6302,0.5388,0.0767,-80.1000,16.8000,-24.7500,8.1930,2.6767,-0.7853,-1.1477,-0.7989,-0.7112,-25.5000,38.7000,9.3000,9.5800,-1.4000,-4.0400,-1.9155,-0.7778,2.0126,16.0625,-4.3750,43.5000,218.2500,29.3750,174.8750,0
1776970348.905,8.6239,4.5298,-1.0247,-0.7658,0.7117,0.1354,-78.7500,16.5000,-25.3500,8.3725,2.4804,-1.1851,-0.7586,-0.6352,-0.5753,-25.5000,38.7000,9.3000,8.8200,-0.5600,-3.1500,-1.6482,-0.7581,1.8075,16.0625,-4.3750,43.5000,219.5000,28.8750,175.2500,0
1776970348.910,8.6239,4.5298,-1.0247,-0.7658,0.7117,0.1354,-78.7500,16.5000,-25.3500,8.1786,2.2194,-1.5802,-0.3973,-0.4903,-0.4445,-26.4000,38.5500,10.6500,8.8200,-0.5600,-3.1500,-1.6482,-0.7581,1.8075,16.0625,-4.3750,43.5000,220.5000,28.5000,175.5000,0
1776970348.915,8.7939,4.1396,-1.1923,-0.8556,0.7197,0.1569,-78.3000,17.7000,-24.9000,8.1786,2.2194,-1.5802,-0.3973,-0.4903,-0.4445,-26.4000,38.5500,10.6500,8.2600,0.8700,-2.1700,-1.3221,-0.5770,1.4748,13.8750,-12.6875,34.1875,220.5000,28.5000,175.5000,0
1776970348.920,8.7939,4.1396,-1.1923,-0.8556,0.7197,0.1569,-78.3000,17.7000,-24.9000,7.7093,2.0710,-1.6185,-0.1124,-0.3126,-0.3243,-24.3000,39.7500,8.5500,8.2600,0.8700,-2.1700,-1.3221,-0.5770,1.4748,13.8750,-12.6875,34.1875,221.1875,28.2500,175.7500,0
1776970348.925,8.9854,3.6176,-1.3360,-0.8071,0.7226,0.2073,-79.3500,17.5500,-24.0000,7.7093,2.0710,-1.6185,-0.1124,-0.3126,-0.3243,-24.3000,39.7500,8.5500,8.2900,1.5100,-2.0000,-0.9556,-0.3785,1.0472,13.8750,-12.6875,34.1875,221.1875,28.2500,175.7500,0
1776970348.932,8.9854,3.6176,-1.3360,-0.8071,0.7226,0.2073,-79.8000,16.5000,-23.4000,7.3909,2.1237,-1.7262,0.2012,-0.1039,-0.2089,-26.1000,39.7500,8.5500,8.4300,1.9700,-2.0000,-0.5301,-0.1767,0.5705,13.8750,-12.6875,34.1875,221.5625,28.1250,175.8750,0
1776970348.937,8.9304,3.5075,-1.4940,-0.5561,0.6480,0.2579,-79.8000,16.5000,-23.4000,7.3909,2.1237,-1.7262,0.2012,-0.1039,-0.2089,-24.7500,37.6500,9.7500,8.4300,1.9700,-2.0000,-0.5301,-0.1767,0.5705,13.8750,-12.6875,34.1875,221.6250,28.1250,175.8750,0
1776970348.946,8.7077,3.3782,-1.6233,-0.1703,0.5809,0.3054,-79.5000,17.4000,-23.4000,6.9001,2.4110,-1.7454,0.5542,0.1346,-0.1002,-24.7500,37.6500,9.7500,8.6600,2.6900,-3.0200,-0.0731,-0.0098,0.0731,13.8750,-12.6875,34.1875,221.3750,28.1250,175.5625,0
1776970348.956,8.4587,3.1819,-1.5467,0.2348,0.5071,0.3443,-79.5000,17.4000,-23.4000,6.9719,2.4995,-1.6927,0.8607,0.3962,0.0424,-26.1000,37.8000,8.5500,10.6800,3.6900,-1.4100,0.6981,-0.0458,-0.2313,13.8750,-12.6875,34.1875,221.3750,28.1250,175.5625,0
1776970348.961,8.4587,3.1819,-1.5467,0.2348,0.5071,0.3443,-79.5000,17.4000,-23.4000,6.9432,2.4541,-1.7837,1.2545,0.6600,0.1561,-26.1000,37.8000,8.5500,10.6800,3.6900,-1.4100,0.6981,-0.0458,-0.2313,13.8750,-12.6875,34.1875,221.3750,28.1875,174.6875,0
1776970348.966,8.3318,2.9066,-1.4102,0.5995,0.4477,0.3653,-80.4000,16.8000,-23.7000,6.9432,2.4541,-1.7837,1.2545,0.6600,0.1561,-26.1000,37.8000,8.5500,9.9400,3.1400,-1.8400,1.4879,0.2203,0.2694,11.6875,-18.5000,29.6875,221.3750,28.1875,174.6875,0
1776970348.970,8.3318,2.9066,-1.4102,0.5995,0.4477,0.3653,-80.4000,16.8000,-23.7000,8.7077,2.5426,-1.5514,1.6030,0.8868,0.3091,-26.7000,38.4000,9.3000,9.9400,3.1400,-1.8400,1.4879,0.2203,0.2694,11.6875,-18.5000,29.6875,221.3125,28.6250,173.7500,0
1776970348.976,8.4060,2.3798,-1.2210,0.8641,0.4439,0.3813,-80.4000,16.8000,-23.7000,8.7077,2.5426,-1.5514,1.6030,0.8868,0.3091,-26.7000,38.4000,9.3000,9.0400,-1.0200,-0.5000,1.4803,0.7341,0.2596,11.6875,-18.5000,29.6875,221.3125,28.6250,173.7500,0
1776970348.980,8.4060,2.3798,-1.2210,0.8641,0.4439,0.3813,-80.4000,16.8000,-23.7000,10.3262,2.1500,-2.8659,1.8463,1.0222,0.2094,-26.1000,37.8000,9.1500,9.0400,-1.0200,-0.5000,-1.0308,3.9466,-0.1233,11.6875,-18.5000,29.6875,221.5000,30.8125,174.2500,0
1776970348.986,9.4619,1.5467,-0.2921,0.9654,0.4706,0.4530,-79.3500,16.3500,-23.2500,10.3262,2.1500,-2.8659,1.8463,1.0222,0.2094,-24.3000,36.7500,7.8000,14.1400,0.8700,-21.8100,-1.0308,3.9466,-0.1233,11.6875,-18.5000,29.6875,221.5000,33.1875,173.8750,0
1776970348.996,10.9918,-0.2514,0.8882,0.7687,0.3816,0.5564,-80.5500,17.4000,-22.6500,14.7124,1.4748,-5.3558,2.0232,0.9334,-0.0320,-25.5000,36.7500,7.8000,9.1300,-4.4200,-24.0900,0.4494,4.3524,-0.1080,11.6875,-18.5000,29.6875,221.5000,33.1875,173.8750,0
1776970349.006,12.7060,-2.1069,2.2434,0.1556,0.7016,0.7592,-81.0000,16.2000,-23.8500,17.8296,-1.8292,-3.9169,2.3110,0.3480,-0.3024,-25.5000,36.4500,8.2500,11.2700,-16.3600,-18.9400,0.7876,-0.6490,0.1331,11.6875,-18.5000,29.6875,221.3750,32.8125,173.3750,0
1776970349.010,15.7060,-3.0215,2.7533,0.1556,0.7016,0.7592,-81.0000,16.2000,-23.8500,16.7211,-1.0343,-2.4876,2.2865,0.0234,-0.5415,-25.5000,36.4500,8.2500,11.2700,-16.3600,-18.9400,0.7876,-0.6490,0.1331,11.6875,-18.5000,29.6875,221.3750,32.8125,173.3750,0
1776970349.016,15.7060,-3.0215,2.7533,-0.4815,1.1594,0.9766,-80.2500,13.5000,-22.3500,16.7211,-1.0343,-2.4876,2.2865,0.0234,-0.5415,-25.5000,36.4500,8.2500,-8.3500,1.5600,0.6100,0.8181,-2.0420,0.3371,12.0625,-18.7500,27.5000,221.3750,31.6875,172.9375,0
1776970349.020,17.3244,-3.0598,0.5794,-0.4815,1.1594,0.9766,-80.2500,13.5000,-22.3500,14.1090,-0.4405,-0.2538,1.7528,0.2081,-0.4703,-25.9500,36.9000,8.7000,-8.3500,1.5600,0.6100,0.8181,-2.0420,0.3371,12.0625,-18.7500,27.5000,221.3750,31.6875,172.9375,0
1776970349.025,17.3244,-3.0598,0.5794,-0.7679,1.4341,1.0048,-80.5500,14.2500,-22.3500,9.4499,0.9194,-0.0575,1.9745,0.5875,-0.4754,-25.0500,36.9000,8.7000,6.9700,0.0100,-4.1400,0.5770,0.5323,0.3785,12.0625,-18.7500,27.5000,221.5625,31.9375,172.4375,0
1776970349.034,16.3500,-1.2785,-2.2338,-0.5151,1.4997,0.7933,-80.2500,14.5500,-21.1500,9.4499,0.9194,-0.0575,1.9745,0.5875,-0.4754,-25.0500,36.0000,7.8000,20.0700,-3.5100,-22.2200,-0.1451,3.6499,-0.1353,12.0625,-18.7500,27.5000,221.6250,33.9375,172.3750,0
1776970349.038,16.3500,-1.2785,-2.2338,-0.5151,1.4997,0.7933,-80.2500,14.5500,-21.1500,9.3494,0.9433,-2.0710,1.4568,0.7741,-0.1679,-25.3500,36.7500,6.7500,20.0700,-3.5100,-22.2200,-0.1451,3.6499,-0.1353,12.0625,-18.7500,27.5000,221.5625,33.9375,172.5000,0
1776970349.046,14.1378,-0.2083,-2.2146,-0.0576,0.9220,0.1569,-80.2500,14.5500,-21.1500,8.9543,0.8045,-2.2745,1.0989,0.8916,-0.1418,-25.5000,34.6500,6.9000,1.4000,-4.6100,-7.5500,-0.0949,-0.0360,-0.1265,12.0625,-18.7500,27.5000,221.5625,33.6875,172.3750,0
1776970349.056,12.0620,0.1173,-0.2131,-0.3664,0.5057,-0.4333,-80.5500,13.8000,-21.1500,9.2296,1.4365,-2.1045,0.9478,0.8799,-0.0759,-25.2000,36.1500,7.9500,5.7500,-2.0200,-9.2600,0.1713,-0.4298,0.0764,12.0625,-18.7500,27.5000,221.5625,33.6875,172.3750,0
1776970349.061,9.3494,-0.0886,0.9002,-0.8836,0.6289,-0.7501,-80.5500,13.8000,-21.1500,9.2296,1.4365,-2.1045,0.9478,0.8799,-0.0759,-25.2000,36.1500,7.9500,5.7500,-2.0200,-9.2600,0.1713,-0.4298,0.0764,12.0625,-18.7500,27.5000,221.5000,33.8125,172.3750,0
1776970349.066,9.3494,-0.0886,0.9002,-0.8836,0.6289,-0.7501,-80.5500,13.8000,-21.1500,8.9687,1.2163,-1.6233,0.7320,0.7735,-0.0714,-25.2000,36.1500,7.9500,5.6300,0.2800,-8.1000,0.0393,0.1494,-0.0862,12.3750,-19.3750,27.6875,221.5000,33.8125,172.3750,0
1776970349.071,6.7181,-0.9888,1.4078,-1.3600,0.5620,-0.6963,-80.5500,13.8000,-21.1500,8.9687,1.2163,-1.6233,0.7320,0.7735,-0.0714,-25.2000,36.1500,7.9500,5.6300,0.2800,-8.1000,0.0393,0.1494,-0.0862,12.3750,-19.3750,27.6875,221.4375,33.8750,172.5000,0
1776970349.076,6.7181,-0.9888,1.4078,-1.3600,0.5620,-0.6963,-79.3500,14.8500,-21.0000,8.9304,0.3184,-1.9800,0.3808,0.6662,-0.0562,-26.2500,34.9500,6.1500,5.1700,-1.2600,-7.9600,-0.1036,0.1385,-0.0971,12.3750,-19.3750,27.6875,221.4375,33.8750,172.5000,0
1776970349.082,5.5306,-1.9010,1.2139,-1.7126,0.8146,-0.4245,-79.3500,14.8500,-21.0000,8.9304,0.3184,-1.9800,0.3808,0.6662,-0.0562,-26.2500,34.9500,6.1500,4.5300,-1.3500,-7.9300,-0.1254,0.1844,-0.0458,12.3750,-19.3750,27.6875,221.5000,34.0000,172.5625,0
1776970349.087,6.8570,-1.8818,-0.4286,-1.7126,0.8146,-0.4245,-81.1500,14.4000,-18.7500,7.9703,0.6488,-2.5091,-0.0123,0.6241,-0.1764,-27.0000,35.4000,7.6500,4.5300,-1.3500,-7.9300,-0.1254,0.1844,-0.0458,12.3750,-19.3750,27.6875,221.5000,34.0625,172.5625,0
1776970349.096,6.8570,-1.8818,-0.4286,-1.7571,0.6851,-0.1540,-80.4000,14.4000,-19.5000,8.3127,1.7190,-2.5307,-0.3096,0.7173,-0.2145,-25.6500,36.0000,8.1000,4.6800,-1.6800,-7.8200,-0.0600,0.1713,0.0044,12.3750,-19.3750,27.6875,221.5000,34.1875,172.5625,0
1776970349.106,8.4372,-1.0127,-1.5155,-1.4935,0.4759,0.0128,-80.5500,15.0000,-17.5500,8.5329,2.5905,-2.0662,-0.4626,0.7250,-0.1772,-25.0500,35.5500,8.1000,5.1100,-1.2500,-7.9100,-0.0011,0.2193,0.0284,12.3750,-19.3750,27.6875,221.5000,34.1875,172.5625,0
