timestamp,thigh_acc_x,thigh_acc_y,thigh_acc_z,thigh_gyro_x,thigh_gyro_y,thigh_gyro_z,thigh_mag_x,thigh_mag_y,thigh_mag_z,shank_acc_x,shank_acc_y,shank_acc_z,shank_gyro_x,shank_gyro_y,shank_gyro_z,shank_mag_x,shank_mag_y,shank_mag_z,foot_acc_x,foot_acc_y,foot_acc_z,foot_gyro_x,foot_gyro_y,foot_gyro_z,foot_mag_x,foot_mag_y,foot_mag_z,foot_euler_x,foot_euler_y,foot_euler_z,perturbation_event
1776972020.470,9.3541,0.9673,1.0894,0.1090,-0.0107,0.2326,-95.5500,-14.8500,-18.7500,9.6869,-2.0901,-1.0918,0.0823,-0.9228,0.5369,9.9000,33.1500,-184.3500,7.0600,-0.4300,-7.8500,0.0305,0.6730,0.0742,-47.0625,35.0000,35.5625,341.6250,43.3750,-176.6875,0
1776972020.476,9.3733,0.8523,0.9864,0.0951,-0.0509,0.2393,-94.8000,-16.8000,-19.9500,9.6869,-2.0901,-1.0918,0.0823,-0.9228,0.5369,10.5000,33.3000,-184.8000,6.8900,0.5000,-6.5800,0.0305,0.6730,0.0742,-47.0625,35.0000,35.5625,341.6250,43.7500,-176.6875,0
1776972020.485,9.3781,0.7709,1.0463,0.0602,-0.0400,0.2446,-94.8000,-16.8000,-19.9500,9.4236,-2.0997,-0.4836,0.0874,-0.9625,0.5838,9.0000,31.8000,-184.8000,6.9400,0.3100,-7.0900,0.0142,0.6621,0.0458,-47.0625,35.0000,35.5625,341.6250,44.0625,-176.6875,0
1776972020.495,9.3829,0.7685,1.2498,0.0312,-0.0402,0.2289,-94.3500,-16.5000,-20.1000,9.3901,-2.0494,0.0622,0.0767,-0.9462,0.6307,8.4000,32.7000,-185.7000,7.5800,0.0400,-7.3900,-0.0011,0.5869,0.0447,-47.0625,35.0000,35.5625,341.6250,44.0625,-176.6875,0
1776972020.500,9.3829,0.7685,1.2498,0.0312,-0.0402,0.2289,-94.3500,-16.5000,-20.1000,9.5289,-2.2051,-0.1556,-0.0229,-0.9108,0.7064,8.4000,32.7000,-185.7000,7.5800,0.0400,-7.3900,-0.0011,0.5869,0.0447,-47.0625,35.0000,35.5625,341.6250,44.0625,-176.6875,0
1776972020.505,9.4332,0.8068,1.4820,0.0128,-0.0376,0.2076,-94.3500,-16.5000,-20.1000,9.5289,-2.2051,-0.1556,-0.0229,-0.9108,0.7064,8.4000,32.7000,-185.7000,6.7800,0.6000,-6.5000,0.0011,0.5869,0.0218,-47.5000,34.5625,34.5000,341.6250,44.3750,-176.6875,0
1776972020.510,9.4332,0.8068,1.4820,0.0128,-0.0376,0.2076,-94.3500,-16.5000,-20.1000,9.7085,-2.3870,-0.2729,-0.0400,-0.8881,0.7368,8.4000,32.7000,-185.7000,6.7800,0.6000,-6.5000,0.0011,0.5869,0.0218,-47.5000,34.5625,34.5000,341.6250,44.3750,-176.6875,0
1776972020.515,9.4044,1.0175,1.6209,0.0245,-0.0421,0.1863,-95.1000,-17.4000,-20.1000,9.7085,-2.3870,-0.2729,-0.0400,-0.8881,0.7368,9.1500,31.2000,-187.2000,6.3500,0.5300,-7.2700,-0.0229,0.5411,-0.0022,-47.5000,34.5625,34.5000,341.6250,44.6875,-176.6875,0
1776972020.523,9.4906,0.9625,1.6328,0.0789,-0.0466,0.1783,-95.1000,-17.4000,-20.1000,9.8713,-2.5977,-0.5076,-0.0584,-0.9009,0.7853,9.1500,31.2000,-187.2000,6.6600,0.6100,-7.0000,-0.0196,0.5563,0.0175,-47.5000,34.5625,34.5000,348.2500,45.0000,-176.6250,0
1776972020.528,9.4906,0.9625,1.6328,0.0789,-0.0466,0.1783,-94.5000,-16.8000,-21.0000,9.9359,-2.8874,-1.2785,-0.1023,-0.9417,0.8308,10.6500,31.2000,-187.2000,6.6600,0.6100,-7.0000,-0.0196,0.5563,0.0175,-47.5000,34.5625,34.5000,348.2500,45.3750,-176.6250,0
1776972020.535,9.5385,0.7949,1.7214,0.1367,-0.0338,0.1756,-95.1000,-16.5000,-19.3500,9.9359,-2.8874,-1.2785,-0.1023,-0.9417,0.8308,10.6500,30.1500,-187.8000,6.8200,0.4300,-7.0200,-0.0207,0.6294,0.0371,-47.5000,34.5625,34.5000,348.1875,45.7500,-176.6250,0
1776972020.545,9.3829,0.5195,1.7286,0.2086,-0.0179,0.1892,-95.1000,-16.9500,-19.3500,9.8833,-3.3543,-1.6520,-0.0813,-1.0152,0.8474,10.8000,30.3000,-189.4500,7.2300,0.4900,-6.9700,-0.0273,0.6392,0.0720,-47.5000,34.5625,34.5000,348.1875,45.7500,-176.6250,0
1776972020.550,9.3206,0.2586,1.8340,0.2086,-0.0179,0.1892,-95.1000,-16.9500,-19.3500,9.9192,-3.5027,-1.7526,-0.0898,-1.0584,0.8505,10.8000,30.3000,-189.4500,7.2300,0.4900,-6.9700,-0.0273,0.6392,0.0720,-47.5000,34.5625,34.5000,348.1250,46.0625,-176.6250,0
1776972020.555,9.3206,0.2586,1.8340,0.2545,0.0048,0.2134,-95.1000,-16.9500,-19.8000,9.8067,-3.8379,-1.9585,-0.1591,-1.1133,0.8263,10.8000,30.3000,-189.4500,7.2400,0.1700,-6.8700,-0.0415,0.6556,0.0720,-49.0000,34.5625,32.5000,348.1250,46.0625,-176.6250,0
1776972020.560,9.5265,0.0192,1.7693,0.2545,0.0048,0.2134,-95.1000,-16.9500,-19.8000,9.8067,-3.8379,-1.9585,-0.1591,-1.1133,0.8263,10.8000,30.3000,-189.4500,7.2400,0.1700,-6.8700,-0.0415,0.6556,0.0720,-49.0000,34.5625,32.5000,348.0625,46.4375,-176.6250,0
1776972020.565,9.5265,0.0192,1.7693,0.2729,0.0093,0.2318,-95.1000,-16.9500,-18.6000,9.9096,-3.6296,-1.9297,-0.2321,-1.1418,0.8042,10.8000,30.3000,-189.4500,7.0200,0.2000,-7.0000,-0.0273,0.6469,0.0753,-49.0000,34.5625,32.5000,348.0625,46.4375,-176.6250,0
1776972020.570,10.1347,-0.2466,1.7765,0.2729,0.0093,0.2318,-95.1000,-16.9500,-18.6000,9.9096,-3.6296,-1.9297,-0.2321,-1.1418,0.8042,10.8000,30.3000,-189.4500,7.0200,0.2000,-7.0000,-0.0556,0.6676,0.0469,-49.0000,34.5625,32.5000,348.0625,46.8125,-176.6250,0
1776972020.576,10.1347,-0.2466,1.7765,0.2030,0.0080,0.2465,-95.1000,-16.9500,-18.6000,10.5273,-3.1340,-2.1931,-0.2356,-1.1522,0.7954,14.1000,29.5500,-190.2000,7.1000,0.0300,-7.0900,-0.0556,0.6676,0.0469,-49.0000,34.5625,32.5000,348.1250,47.1875,-176.5625,0
1776972020.585,10.8816,-0.4812,1.7478,0.0679,-0.0373,0.2270,-93.9000,-18.9000,-19.0500,11.1642,-2.8252,-2.4325,-0.3192,-1.1301,0.7935,13.3500,27.3000,-190.5000,6.7300,0.0100,-6.7200,-0.0742,0.7232,-0.0033,-49.0000,34.5625,32.5000,348.1250,47.1875,-176.5625,0
1776972020.595,10.9343,-0.3831,1.5682,-0.1380,-0.1191,0.2454,-93.9000,-18.9000,-19.0500,11.3030,-2.6336,-1.8579,-0.4557,-1.1367,0.7735,14.2500,27.1500,-191.1000,7.0500,0.1600,-6.9100,-0.1047,0.7843,-0.0229,-49.0000,34.5625,32.5000,348.2500,47.6250,-176.4375,0
1776972020.600,10.9487,-0.0144,1.3838,-0.3557,-0.1998,0.2478,-93.9000,-18.9000,-19.0500,11.3030,-2.6336,-1.8579,-0.4557,-1.1367,0.7735,14.2500,27.1500,-191.1000,7.0500,0.1600,-6.9100,-0.1047,0.7843,-0.0229,-49.0000,34.5625,32.5000,348.2500,47.6250,-176.4375,0
1776972020.605,10.9487,-0.0144,1.3838,-0.3557,-0.1998,0.2478,-95.4000,-18.1500,-19.0500,11.3844,-2.2386,-1.6975,-0.5377,-1.1309,0.7847,14.1000,25.5000,-192.3000,7.1900,-0.2300,-7.1600,-0.1865,0.9054,-0.0753,-50.0000,35.0000,32.0625,348.4375,48.1250,-176.2500,0
1776972020.610,10.9176,0.4764,1.3958,-0.5364,-0.2753,0.2166,-95.4000,-18.1500,-19.0500,11.3844,-2.2386,-1.6975,-0.5377,-1.1309,0.7847,14.1000,25.5000,-192.3000,7.1900,-0.2300,-7.1600,-0.1865,0.9054,-0.0753,-50.0000,35.0000,32.0625,348.4375,48.1250,-176.2500,0
1776972020.615,10.9176,0.4764,1.3958,-0.5364,-0.2753,0.2166,-96.0000,-18.7500,-19.5000,11.3868,-2.1117,-1.5443,-0.6358,-1.1530,0.8258,14.1000,25.5000,-192.3000,7.6400,0.4200,-6.6800,-0.2356,0.9948,-0.1353,-50.0000,35.0000,32.0625,348.7500,48.6875,-176.0000,0
1776972020.620,10.5201,0.8404,1.4700,-0.6915,-0.3315,0.1705,-96.0000,-18.7500,-19.5000,11.3868,-2.1117,-1.5443,-0.6358,-1.1530,0.8258,14.1000,25.5000,-192.3000,7.6400,0.4200,-6.6800,-0.2825,1.1334,-0.1822,-50.0000,35.0000,32.0625,349.0625,49.3125,-175.6875,0
1776972020.626,10.5201,0.8404,1.4700,-0.6915,-0.3315,0.1705,-93.9000,-18.4500,-20.1000,11.3198,-2.4086,-1.0295,-0.7759,-1.2740,0.9108,14.2500,25.6500,-193.5000,7.5600,0.5000,-6.4700,-0.2825,1.1334,-0.1822,-50.0000,35.0000,32.0625,349.4375,50.0000,-175.3125,0
1776972020.635,10.3070,1.0343,1.5347,-0.8359,-0.3698,0.1124,-94.5000,-18.7500,-19.9500,11.2073,-2.3679,-0.7135,-0.7703,-1.3640,1.0118,16.6500,24.3000,-195.4500,7.9300,0.9800,-6.1300,-0.3163,1.2075,-0.1734,-50.0000,35.0000,32.0625,349.4375,50.0000,-175.3125,0
1776972020.645,10.2400,1.3503,1.7190,-0.9257,-0.4135,0.0296,-93.4500,-20.8500,-20.1000,11.4371,-2.2266,-1.0391,-0.7903,-1.4759,1.0874,14.2500,25.2000,-195.7500,7.4100,0.6600,-6.2700,-0.3458,1.3145,-0.1287,-50.0000,35.0000,32.0625,349.8125,50.6875,-175.0000,0
1776972020.650,10.1897,1.6424,1.7166,-0.9713,-0.4056,-0.0626,-93.4500,-20.8500,-20.1000,11.4371,-2.2266,-1.0391,-0.7903,-1.4759,1.0874,14.2500,25.2000,-195.7500,7.4100,0.6600,-6.2700,-0.3458,1.3145,-0.1287,-50.0000,35.2500,28.5000,350.1875,51.4375,-174.6250,0
1776972020.655,10.1897,1.6424,1.7166,-0.9713,-0.4056,-0.0626,-94.0500,-18.0000,-20.2500,11.8154,-2.4110,-1.2019,-0.9180,-1.6028,1.1463,17.2500,24.9000,-196.8000,7.3300,0.5800,-5.8500,-0.3502,1.3897,-0.1004,-50.0000,35.2500,28.5000,350.1875,51.4375,-174.6250,0
1776972020.660,10.3477,1.8531,1.4605,-0.9545,-0.4197,-0.1919,-94.0500,-18.0000,-20.2500,11.8154,-2.4110,-1.2019,-0.9180,-1.6028,1.1463,17.2500,24.9000,-196.8000,7.3300,0.5800,-5.8500,-0.3502,1.3897,-0.1004,-50.0000,35.2500,28.5000,350.5000,52.3750,-174.2500,0
1776972020.665,10.5177,1.7430,1.3551,-0.9545,-0.4197,-0.1919,-94.0500,-18.0000,-20.2500,12.1865,-2.9473,-0.7111,-1.2012,-1.7560,1.2340,18.4500,22.5000,-197.7000,6.8600,0.4400,-5.3600,-0.3316,1.6973,-0.1145,-50.0000,35.2500,28.5000,350.5000,52.3750,-174.2500,0
1776972020.670,10.5177,1.7430,1.3551,-0.8697,-0.4557,-0.3453,-94.0500,-18.0000,-20.2500,12.1865,-2.9473,-0.7111,-1.2012,-1.7560,1.2340,18.4500,22.5000,-197.7000,6.8600,0.4400,-5.3600,-0.4211,2.0366,-0.0916,-50.0000,35.2500,28.5000,350.8125,53.5000,-173.8125,0
1776972020.676,10.3573,1.5610,1.0989,-0.7208,-0.5236,-0.5148,-95.1000,-18.4500,-21.1500,12.6749,-3.1556,0.1173,-1.4642,-1.8607,1.3470,18.4500,22.5000,-197.7000,6.7500,1.0400,-6.5700,-0.4211,2.0366,-0.0916,-50.0000,35.2500,28.5000,351.4375,54.8750,-173.1875,0
1776972020.685,10.2089,1.7765,0.3783,-0.7208,-0.5236,-0.5148,-95.1000,-18.4500,-21.1500,12.6174,-2.2529,-0.2418,-1.6939,-1.8874,1.4096,20.7000,21.3000,-200.1000,7.6500,0.7900,-5.7700,-0.7919,2.4598,0.0305,-50.0000,35.2500,28.5000,351.4375,54.8750,-173.1875,0
1776972020.695,10.3070,1.5107,-0.6273,-0.6547,-0.7107,-0.8412,-92.7000,-16.5000,-22.6500,12.5839,-0.6632,-0.4501,-1.8796,-1.8154,1.3715,23.5500,20.2500,-202.9500,8.9900,-0.8000,-5.6800,-1.1639,2.6191,0.1778,-50.0000,35.2500,28.5000,352.3125,56.3125,-172.3750,0
1776972020.700,10.3070,1.5107,-0.6273,-0.6547,-0.7107,-0.8412,-92.7000,-16.5000,-22.6500,12.0189,0.6369,-0.9625,-1.9724,-1.7555,1.2564,23.5500,20.2500,-202.9500,8.9900,-0.8000,-5.6800,-1.1639,2.6191,0.1778,-50.0000,35.2500,28.5000,352.3125,56.3125,-172.3750,0
1776972020.705,9.8617,0.9409,-1.3767,-0.7029,-0.9233,-0.9675,-92.7000,-16.5000,-22.6500,12.0189,0.6369,-0.9625,-1.9724,-1.7555,1.2564,24.6000,19.5000,-203.4000,8.4900,0.2100,-7.7200,-1.4366,2.3682,0.4058,-53.3750,34.5625,26.5625,353.3125,57.6250,-171.6875,0
1776972020.710,9.8617,0.9409,-1.3767,-0.7029,-0.9233,-0.9675,-94.0500,-17.5500,-22.5000,11.0516,1.6759,-1.4557,-2.1559,-1.7965,1.2412,23.5500,22.5000,-202.6500,8.4900,0.2100,-7.7200,-1.4366,2.3682,0.4058,-53.3750,34.5625,26.5625,353.3125,57.6250,-171.6875,0
1776972020.715,9.4236,0.2107,-1.6113,-0.7738,-1.0389,-1.1253,-93.9000,-16.2000,-24.6000,11.0516,1.6759,-1.4557,-2.1559,-1.7965,1.2412,23.5500,22.5000,-202.6500,7.3200,6.5100,-7.7500,-1.3406,1.7846,0.7418,-53.3750,34.5625,26.5625,354.0625,58.6875,-171.3750,0
1776972020.722,9.4236,0.2107,-1.6113,-0.7738,-1.0389,-1.1253,-93.9000,-16.2000,-24.6000,9.6391,1.3647,-0.6704,-1.8626,-1.8138,1.2414,25.6500,24.3000,-205.8000,7.3000,1.6900,-7.4800,-0.6185,2.5864,1.1639,-53.3750,34.5625,26.5625,353.8125,60.1875,-171.7500,0
1776972020.726,8.9088,0.1604,-1.1684,-0.8124,-1.1005,-1.2806,-94.0500,-15.9000,-23.7000,9.6391,1.3647,-0.6704,-1.8626,-1.8138,1.2414,25.6500,24.3000,-205.8000,7.3000,1.6900,-7.4800,-0.6185,2.5864,1.1639,-53.3750,34.5625,26.5625,352.5625,62.0625,-173.0000,0
1776972020.736,8.4108,-0.1197,-1.5299,-1.0155,-1.1162,-1.3952,-92.5500,-14.4000,-24.3000,9.9359,0.1987,-1.5826,-1.6374,-1.6204,1.2351,25.6500,24.3000,-205.8000,8.5200,1.5800,-6.6900,0.1702,3.1601,1.6122,-53.3750,34.5625,26.5625,350.8750,64.3750,-174.8125,0
1776972020.746,7.9344,-0.1844,-1.3958,-1.2215,-1.0725,-1.4981,-92.4000,-14.4000,-24.3000,10.0485,-1.9130,-1.7478,-1.4115,-1.7480,1.2793,25.9500,29.4000,-211.0500,10.5000,0.9900,-4.2800,0.4996,4.0437,1.8271,-53.3750,34.5625,26.5625,350.8750,64.3750,-174.8125,0
1776972020.750,7.9344,-0.1844,-1.3958,-1.2215,-1.0725,-1.4981,-92.4000,-13.5000,-24.6000,9.4332,-3.0478,-2.3152,-1.3115,-1.7749,1.3464,26.4000,30.0000,-214.8000,10.5000,0.9900,-4.2800,0.4996,4.0437,1.8271,-53.3750,34.5625,26.5625,349.0625,67.0000,-177.3125,0
1776972020.756,7.7093,-0.4477,-0.8978,-1.2044,-0.9419,-1.5481,-92.4000,-13.5000,-24.6000,9.4332,-3.0478,-2.3152,-1.3115,-1.7749,1.3464,26.4000,30.0000,-214.8000,11.3600,1.1200,-5.9900,0.6600,4.5597,2.0289,-55.1875,34.2500,21.5000,349.0625,67.0000,-177.3125,0
1776972020.760,7.7093,-0.4477,-0.8978,-1.2044,-0.9419,-1.5481,-92.4000,-13.5000,-24.6000,9.4786,-3.0047,-2.8467,-1.3704,-2.0054,1.4381,29.5500,26.4000,-216.3000,11.3600,1.1200,-5.9900,0.6600,4.5597,2.0289,-55.1875,34.2500,21.5000,347.5625,69.5625,179.6875,0
1776972020.766,8.0996,-0.2442,-0.6680,-1.0821,-0.8226,-1.5910,-92.4000,-13.5000,-24.6000,9.4786,-3.0047,-2.8467,-1.3704,-2.0054,1.4381,29.5500,26.4000,-216.3000,12.0300,2.2500,-5.1600,0.3894,4.5684,2.0562,-55.1875,34.2500,21.5000,347.5625,69.5625,179.6875,0
1776972020.770,8.0996,-0.2442,-0.6680,-1.0821,-0.8226,-1.5910,-91.8000,-12.0000,-25.5000,8.4108,-3.8882,-4.3431,-1.4370,-2.1885,1.5609,31.2000,25.8000,-216.9000,12.0300,2.2500,-5.1600,-0.0131,4.6033,2.0235,-55.1875,34.2500,21.5000,346.5000,72.0625,176.1875,0
1776972020.776,8.7340,0.4477,-0.6919,-0.9145,-0.7322,-1.6787,-93.9000,-11.4000,-26.1000,8.4108,-3.8882,-4.3431,-1.4370,-2.1885,1.5609,31.2000,25.8000,-216.9000,12.8100,3.2600,-5.5000,-0.0131,4.6033,2.0235,-55.1875,34.2500,21.5000,345.5625,74.5000,171.5000,0
1776972020.786,9.2584,0.9601,-0.8739,-0.6278,-0.6422,-1.7853,-93.9000,-11.4000,-26.1000,8.2408,-5.0733,-4.7166,-1.4749,-2.2194,1.5146,30.4500,25.0500,-216.9000,13.6100,1.8700,-6.2800,-0.1102,4.6469,2.0933,-55.1875,34.2500,21.5000,344.7500,76.7500,165.2500,0
1776972020.796,10.6183,0.7781,-1.0894,-0.3315,-0.6297,-1.8650,-92.4000,-8.4000,-27.4500,7.9057,-5.7557,-6.2584,-1.5111,-2.3028,1.4325,30.4500,25.0500,-216.9000,17.2100,2.1200,-7.7800,-0.3142,4.5019,2.1009,-55.1875,34.2500,21.5000,344.7500,76.7500,165.2500,0
1776972020.800,11.6574,0.7949,-1.0175,-0.3315,-0.6297,-1.8650,-93.3000,-8.5500,-28.5000,7.7740,-6.6894,-7.5609,-1.3893,-2.2870,1.3544,32.5500,16.8000,-211.9500,17.2100,2.1200,-7.7800,-0.3142,4.5019,2.1009,-55.1875,34.2500,21.5000,344.3750,78.5000,157.6875,0
1776972020.806,11.6574,0.7949,-1.0175,-0.1620,-0.6584,-1.9052,-93.3000,-8.5500,-28.5000,7.7740,-6.6894,-7.5609,-1.3893,-2.2870,1.3544,32.5500,16.8000,-211.9500,16.5600,2.8000,-7.8600,-0.7352,4.0677,1.9591,-55.1875,38.5625,10.5000,344.3750,78.5000,157.6875,0
1776972020.810,12.6462,0.7183,-0.8021,-0.0671,-0.5998,-1.8748,-92.7000,-5.5500,-28.9500,6.6846,-6.9695,-8.4180,-1.3163,-2.1823,1.3097,31.3500,11.4000,-205.9500,16.5600,2.8000,-7.8600,-0.7352,4.0677,1.9591,-55.1875,38.5625,10.5000,344.3750,78.5000,157.6875,0
1776972020.815,12.6462,0.7183,-0.8021,-0.0671,-0.5998,-1.8748,-92.7000,-5.5500,-28.9500,6.6846,-6.9695,-8.4180,-1.3163,-2.1823,1.3097,31.3500,11.4000,-205.9500,15.4500,2.8900,-8.4500,-1.0963,3.5027,2.0224,-55.1875,38.5625,10.5000,344.1250,79.7500,148.4375,0
1776972020.823,12.5145,0.4669,-0.5698,-0.0440,-0.5662,-1.8258,-93.7500,-5.4000,-29.5500,5.8059,-6.5218,-7.6184,-1.1247,-1.8391,1.1359,28.8000,1.6500,-202.8000,9.5700,2.8200,-9.2600,-1.4170,2.8994,2.0966,-55.1875,38.5625,10.5000,344.0625,80.3750,138.3750,0
1776972020.828,12.5145,0.4669,-0.5698,-0.0440,-0.5662,-1.8258,-93.7500,-5.4000,-29.5500,4.6591,-5.6623,-7.3861,-1.1138,-1.7488,0.9585,26.4000,-9.3000,-194.8500,9.5700,2.8200,-9.2600,-1.4170,2.8994,2.0966,-55.1875,38.5625,10.5000,344.0000,80.3125,129.2500,0
1776972020.836,13.0484,0.7230,-0.4908,-0.0408,-0.2673,-1.6992,-93.7500,-5.4000,-29.5500,1.5969,-6.0262,-7.7644,-1.0592,-1.4650,0.8418,26.4000,-9.3000,-194.8500,3.2800,2.9000,-13.3400,-1.5806,2.1260,2.2111,-55.1875,38.5625,10.5000,343.6875,79.6250,122.5625,0
1776972020.846,13.0843,0.3400,0.1101,-0.1079,-0.2148,-1.5793,-91.8000,-2.2500,-29.5500,1.2809,-5.2888,-6.8690,-0.9907,-0.8218,0.5542,25.2000,-18.9000,-189.3000,5.3900,-0.2800,-13.4300,-1.4890,1.2272,2.3911,-55.1875,38.5625,10.5000,343.6875,79.6250,122.5625,0
1776972020.851,12.6174,-0.4286,0.2490,-0.1442,-0.2022,-1.5082,-91.8000,-2.2500,-29.5500,1.2809,-5.2888,-6.8690,-0.9907,-0.8218,0.5542,25.2000,-18.9000,-189.3000,5.3900,-0.2800,-13.4300,-1.4890,1.2272,2.3911,-55.1875,38.5625,10.5000,343.6875,79.6250,122.5625,0
1776972020.856,12.6174,-0.4286,0.2490,-0.1442,-0.2022,-1.5082,-91.8000,-2.2500,-29.5500,0.8164,-3.7876,-7.0318,-1.0392,-0.7999,0.4250,25.2000,-18.9000,-189.3000,19.1900,-0.2700,-15.7300,-0.8181,0.5389,2.4467,-54.0625,39.3750,3.8750,342.8750,78.5625,118.1250,0
1776972020.861,12.3589,-0.9481,0.0287,-0.1831,-0.1689,-1.4869,-92.4000,-1.3500,-30.4500,0.8164,-3.7876,-7.0318,-1.0392,-0.7999,0.4250,16.2000,-31.5000,-168.4500,19.1900,-0.2700,-15.7300,-0.8181,0.5389,2.4467,-54.0625,39.3750,3.8750,342.8750,78.5625,118.1250,0
1776972020.866,12.3589,-0.9481,0.0287,-0.1831,-0.1689,-1.4869,-92.4000,-1.3500,-30.4500,0.6297,-1.3527,-5.8203,-0.8364,-0.0983,0.2174,16.2000,-31.5000,-168.4500,6.0700,4.8300,-12.8400,-0.9087,0.1244,2.0660,-54.0625,39.3750,3.8750,342.2500,77.6250,115.8125,0
1776972020.871,12.0333,-0.8547,-0.3328,-0.2316,-0.1100,-1.4703,-92.5500,-0.3000,-29.8500,0.6297,-1.3527,-5.8203,-0.8364,-0.0983,0.2174,14.2500,-38.4000,-161.8500,6.0700,4.8300,-12.8400,-1.2337,-1.7693,1.9897,-54.0625,39.3750,3.8750,341.6875,76.1875,118.1250,0
1776972020.877,11.7340,-0.0718,-0.4669,-0.2316,-0.1100,-1.4703,-92.5500,-0.3000,-29.8500,-1.4533,-0.5914,-6.1316,-0.0434,-0.2715,0.2686,14.2500,-38.4000,-161.8500,2.1400,4.8900,-8.8200,-1.2337,-1.7693,1.9897,-54.0625,39.3750,3.8750,340.9375,74.5625,121.2500,0
1776972020.886,11.7340,-0.0718,-0.4669,-0.1841,-0.1332,-1.4456,-92.7000,-0.1500,-30.1500,-0.2658,0.1820,-5.9304,0.9030,0.8079,0.0093,14.7000,-47.7000,-157.9500,0.2900,4.6200,-6.5700,-1.0603,-2.4740,1.9046,-54.0625,39.3750,3.8750,340.9375,74.5625,121.2500,0
1776972020.896,10.7021,1.0056,-0.5291,-0.0933,0.0035,-1.4109,-93.3000,-0.7500,-31.3500,1.2737,-0.3950,-7.3334,1.1884,1.4509,-0.4722,14.7000,-53.4000,-156.9000,0.8300,4.1500,-6.1300,-0.7625,-2.5820,1.8250,-54.0625,39.3750,3.8750,340.0000,72.9375,123.9375,0
1776972020.901,10.2400,1.6855,-0.4956,0.0546,0.1879,-1.3515,-91.2000,2.8500,-30.9000,1.2737,-0.3950,-7.3334,1.1884,1.4509,-0.4722,15.3000,-57.1500,-155.4000,0.8300,4.1500,-6.1300,-0.7625,-2.5820,1.8250,-54.0625,39.3750,3.8750,339.0625,71.4375,126.1875,0
1776972020.906,9.9335,2.2745,-0.4477,0.0546,0.1879,-1.3515,-91.2000,2.8500,-30.9000,1.2186,-1.5874,-8.5736,1.4083,2.0488,-1.0059,15.3000,-57.1500,-155.4000,1.0500,4.3200,-6.1400,-0.5869,-2.4566,1.6046,-53.2500,41.5625,6.1875,339.0625,71.4375,126.1875,0
1776972020.910,9.9335,2.2745,-0.4477,0.2569,0.2753,-1.2993,-92.7000,2.1000,-28.9500,1.2186,-1.5874,-8.5736,1.4083,2.0488,-1.0059,15.3000,-57.1500,-155.4000,1.0500,4.3200,-6.1400,-0.5869,-2.4566,1.6046,-53.2500,41.5625,6.1875,339.0625,71.4375,126.1875,0
1776972020.916,9.9790,2.3152,-0.4741,0.2569,0.2753,-1.2993,-92.7000,2.1000,-28.9500,3.0789,-0.8164,-9.2177,1.6931,2.6444,-1.4141,15.3000,-57.1500,-155.4000,1.1600,4.5400,-6.0400,-0.5672,-2.3671,1.2294,-53.2500,41.5625,6.1875,338.3750,70.1250,128.3125,0
1776972020.922,9.9790,2.3152,-0.4741,0.4618,0.3515,-1.2697,-92.7000,2.1000,-28.9500,3.0789,-0.8164,-9.2177,1.6931,2.6444,-1.4141,7.3500,-48.4500,-153.0000,2.5300,4.3300,-6.5900,-0.5476,-2.3257,0.7614,-53.2500,41.5625,6.1875,337.8750,68.9375,130.5625,0
1776972020.927,9.8234,1.8172,-0.5363,0.7080,0.3869,-1.2724,-92.7000,2.1000,-28.9500,4.6136,0.3112,-6.9001,1.7347,2.6433,-1.4895,5.5500,-41.4000,-150.1500,2.5300,4.3300,-6.5900,-0.5476,-2.3257,0.7614,-53.2500,41.5625,6.1875,337.6250,68.0000,133.0000,0
1776972020.936,9.7396,1.3360,-0.8787,0.9433,0.3333,-1.2817,-91.0500,1.5000,-28.8000,5.3223,0.7254,-4.8147,1.3787,2.1562,-1.3917,2.7000,-36.9000,-150.1500,3.8800,4.0400,-7.1500,-0.5269,-2.2820,0.2400,-53.2500,41.5625,6.1875,337.6250,68.0000,133.0000,0
1776972020.946,9.6247,1.0439,-1.1229,1.1125,0.2721,-1.3118,-91.0500,1.5000,-28.8000,4.8100,0.2610,-4.0510,1.1207,1.7403,-1.4045,2.1000,-31.8000,-151.0500,4.8000,3.8600,-7.4400,-0.4647,-2.4238,-0.3022,-53.2500,41.5625,6.1875,337.6250,67.1875,135.8750,0
1776972020.951,9.6247,1.0439,-1.1229,1.1125,0.2721,-1.3118,-91.2000,6.0000,-29.4000,4.8100,0.2610,-4.0510,1.1207,1.7403,-1.4045,2.1000,-31.8000,-151.0500,4.8000,3.8600,-7.4400,-0.4647,-2.4238,-0.3022,-53.2500,41.5625,6.1875,337.6250,67.1875,135.8750,0
1776972020.956,9.4834,0.9433,-1.2354,1.1511,0.2316,-1.3744,-91.2000,6.0000,-29.4000,4.3670,-1.1899,-3.6152,1.0115,1.6148,-1.5607,2.1000,-31.8000,-151.0500,5.2500,3.3600,-7.3800,-0.4767,-2.5460,-0.8661,-51.0625,40.0625,15.2500,337.9375,66.4375,139.1875,0
1776972020.961,9.4834,0.9433,-1.2354,1.1511,0.2316,-1.3744,-92.7000,3.6000,-30.9000,4.3670,-1.1899,-3.6152,1.0115,1.6148,-1.5607,2.1000,-31.8000,-151.0500,5.2500,3.3600,-7.3800,-0.4767,-2.5460,-0.8661,-51.0625,40.0625,15.2500,337.9375,66.4375,139.1875,0
1776972020.966,9.4427,0.7973,-1.0582,1.0685,0.1911,-1.4290,-92.7000,3.6000,-30.9000,4.5825,-2.7246,-4.6902,1.1106,1.7930,-1.7730,2.1000,-31.8000,-151.0500,4.7400,1.7400,-6.2000,-0.4691,-2.6365,-1.4006,-51.0625,40.0625,15.2500,338.5000,65.8125,142.9375,0
1776972020.971,9.4427,0.7973,-1.0582,1.0685,0.1911,-1.4290,-90.9000,4.5000,-29.7000,4.5825,-2.7246,-4.6902,1.2985,1.8804,-1.9321,2.1000,-31.8000,-151.0500,4.7400,1.7400,-6.2000,-0.3709,-2.7249,-1.8315,-51.0625,40.0625,15.2500,339.2500,65.1875,146.8750,0
1776972020.977,9.3901,0.7446,-0.8475,0.9001,0.1410,-1.4482,-90.9000,4.5000,-29.7000,5.5282,-2.9449,-5.6455,1.2985,1.8804,-1.9321,1.8000,-32.5500,-149.5500,4.9600,0.5800,-6.4300,-0.3709,-2.7249,-1.8315,-51.0625,40.0625,15.2500,340.1250,64.4375,150.8750,0
1776972020.986,9.3972,0.8332,-0.7805,0.6643,0.1170,-1.4402,-92.7000,5.5500,-30.9000,5.9783,-3.3327,-5.9328,1.3619,1.9700,-2.0395,1.3500,-33.3000,-147.7500,5.7000,-0.5600,-7.0400,-0.2771,-2.7554,-2.1348,-51.0625,40.0625,15.2500,340.1250,64.4375,150.8750,0
1776972020.996,9.4140,0.8547,-0.7063,0.4325,0.0466,-1.4125,-90.6000,5.8500,-30.6000,6.3853,-3.5841,-5.8849,1.2548,2.1629,-2.1861,-0.3000,-33.3000,-146.7000,6.8600,-2.1400,-7.7900,-0.2978,-2.7173,-2.3115,-51.0625,40.0625,15.2500,341.1875,63.6875,154.8125,0
1776972021.001,9.4140,0.8547,-0.7063,0.4325,0.0466,-1.4125,-91.9500,6.7500,-30.1500,6.7612,-3.5027,-5.4492,1.0706,2.3470,-2.3334,-0.3000,-33.3000,-146.7000,6.8600,-2.1400,-7.7900,-0.2978,-2.7173,-2.3115,-51.0625,40.0625,15.2500,342.3750,62.8750,158.6250,0
1776972021.006,9.3422,0.8140,-0.6273,0.2217,-0.0381,-1.3680,-91.9500,6.7500,-30.1500,6.7612,-3.5027,-5.4492,1.0706,2.3470,-2.3334,-1.3500,-33.3000,-145.9500,7.1600,-2.4000,-7.6500,-0.4461,-2.6965,-2.3540,-51.0625,33.3750,25.5625,342.3750,62.8750,158.6250,0
1776972021.011,9.3422,0.8140,-0.6273,0.2217,-0.0381,-1.3680,-91.9500,6.7500,-30.1500,6.8259,-3.6320,-4.7908,0.8410,2.4789,-2.4576,-1.3500,-33.3000,-145.9500,7.1600,-2.4000,-7.6500,-0.4461,-2.6965,-2.3540,-51.0625,33.3750,25.5625,343.7500,61.8750,162.1875,0
1776972021.016,9.2560,0.9720,-0.6776,0.0743,-0.0725,-1.3121,-91.9500,6.7500,-30.1500,6.8259,-3.6320,-4.7908,0.8410,2.4789,-2.4576,-1.3500,-33.3000,-145.9500,7.4000,-2.4300,-7.1900,-0.6130,-2.7031,-2.2558,-51.0625,33.3750,25.5625,343.7500,61.8750,162.1875,0
1776972021.021,9.1650,1.1061,-0.8380,0.0743,-0.0725,-1.3121,-91.5000,9.0000,-30.3000,6.9336,-3.9217,-4.7357,0.5396,2.5868,-2.5119,-1.3500,-33.3000,-145.9500,7.4000,-2.4300,-7.1900,-0.7287,-2.6965,-2.0737,-51.0625,33.3750,25.5625,345.1875,60.7500,165.3750,0
1776972021.027,9.1650,1.1061,-0.8380,-0.0005,-0.1050,-1.2327,-91.5000,9.0000,-30.3000,6.9336,-3.9217,-4.7357,0.5396,2.5868,-2.5119,-6.1500,-34.8000,-144.9000,8.8400,-1.8000,-7.3600,-0.7287,-2.6965,-2.0737,-51.0625,33.3750,25.5625,346.6250,59.5625,168.1250,0
1776972021.036,9.0381,1.3312,-1.1277,-0.0125,-0.1447,-1.1405,-91.5000,9.0000,-30.3000,7.2329,-4.1659,-4.8842,0.2931,2.6215,-2.4933,-6.9000,-32.5500,-144.6000,9.8500,-1.2900,-7.8800,-0.7756,-2.6573,-1.8828,-51.0625,33.3750,25.5625,346.6250,59.5625,168.1250,0
1776972021.046,8.9328,1.6161,-1.2809,0.0008,-0.1881,-1.0496,-91.2000,9.1500,-30.1500,7.4340,-4.2689,-5.2265,0.2718,2.7075,-2.4288,-7.8000,-31.9500,-142.9500,10.7800,-0.8600,-8.2800,-0.7909,-2.6344,-1.7508,-51.0625,33.3750,25.5625,348.1250,58.3125,170.6250,0
1776972021.051,8.8466,2.1644,-1.3096,0.0139,-0.2068,-0.9449,-90.1500,9.4500,-30.4500,7.7285,-3.9217,-5.6695,0.3030,2.7462,-2.3891,-7.8000,-31.9500,-142.9500,10.7800,-0.8600,-8.2800,-0.7909,-2.6344,-1.7508,-51.0625,33.3750,25.5625,348.1250,58.3125,170.6250,0
1776972021.055,8.8466,2.1644,-1.3096,0.0139,-0.2068,-0.9449,-90.1500,9.4500,-30.4500,7.7285,-3.9217,-5.6695,0.3030,2.7462,-2.3891,-9.0000,-31.0500,-141.7500,11.4200,-0.7000,-8.5400,-0.8061,-2.6616,-1.6952,-43.3750,20.1875,32.6875,349.6250,56.9375,172.8750,0
1776972021.060,8.6694,2.9090,-1.4389,0.0139,-0.2068,-0.9449,-91.6500,10.6500,-30.9000,8.1451,-3.5985,-5.7365,0.3533,2.7800,-2.3662,-9.0000,-31.0500,-141.7500,11.4200,-0.7000,-8.5400,-0.8061,-2.6616,-1.6952,-43.3750,20.1875,32.6875,349.6250,56.9375,172.8750,0
1776972021.065,8.6694,2.9090,-1.4389,0.0781,-0.2894,-0.8796,-91.6500,10.6500,-30.9000,8.1451,-3.5985,-5.7365,0.3533,2.7800,-2.3662,-10.0500,-31.0500,-140.7000,11.8200,-0.7600,-8.2100,-0.8247,-2.7434,-1.6952,-43.3750,20.1875,32.6875,351.1875,55.5625,174.9375,0
1776972021.070,8.4276,3.2298,-0.8571,0.0064,-0.2345,-0.8100,-90.3000,10.9500,-30.6000,8.3079,-3.2896,-4.9009,0.3230,2.8285,-2.3587,-10.0500,-31.0500,-140.7000,11.8200,-0.7600,-8.2100,-0.8247,-2.7434,-1.6952,-43.3750,20.1875,32.6875,352.9375,54.0625,176.9375,0
1776972021.077,8.4276,3.2298,-0.8571,0.0064,-0.2345,-0.8100,-90.3000,10.9500,-30.6000,8.3079,-3.2896,-4.9009,0.3230,2.8285,-2.3587,-10.0500,-31.0500,-140.7000,12.0100,-0.8300,-8.1900,-0.8639,-2.8525,-1.7224,-43.3750,20.1875,32.6875,354.8125,52.4375,178.8125,0
1776972021.086,8.6311,3.2154,-0.9888,0.0016,-0.2206,-0.6925,-89.5500,11.2500,-30.6000,8.6622,-3.1987,-4.4149,0.2297,2.8722,-2.3174,-12.6000,-27.7500,-137.8500,12.3300,-0.6900,-8.0500,-0.9457,-2.8972,-1.7268,-43.3750,20.1875,32.6875,354.8125,52.4375,178.8125,0
1776972021.096,8.6335,3.3710,-1.0199,-0.0370,-0.2193,-0.5841,-90.3000,12.4500,-31.0500,8.7987,-3.0837,-4.1803,0.0887,2.8575,-2.3041,-13.0500,-25.8000,-136.8000,12.3800,0.0600,-7.8600,-1.0112,-2.9245,-1.7006,-43.3750,20.1875,32.6875,356.9375,50.8750,-179.3125,0
1776972021.101,8.5688,3.3016,-0.8739,-0.0586,-0.2142,-0.4818,-90.3000,12.4500,-31.0500,8.8322,-3.4477,-3.7589,-0.0314,2.8280,-2.2833,-13.0500,-25.8000,-136.8000,12.3800,0.0600,-7.8600,-1.0112,-2.9245,-1.7006,-43.3750,20.1875,32.6875,359.1250,49.1875,-177.6875,0
1776972021.106,8.5688,3.3016,-0.8739,-0.0586,-0.2142,-0.4818,-90.3000,12.4500,-31.0500,8.8322,-3.4477,-3.7589,-0.0314,2.8280,-2.2833,-13.8000,-25.5000,-135.3000,12.2200,0.2900,-7.7000,-1.0145,-2.9703,-1.6744,-30.1875,17.0625,31.8750,359.1250,49.1875,-177.6875,0
1776972021.111,8.4180,3.2130,-0.7470,-0.0240,-0.2052,-0.3957,-89.8500,12.0000,-30.3000,8.7556,-3.8235,-3.5626,-0.1913,2.8045,-2.2202,-13.8000,-25.5000,-135.3000,12.2200,0.2900,-7.7000,-1.0145,-2.9703,-1.6744,-30.1875,17.0625,31.8750,1.4375,47.4375,-176.2500,0
1776972021.116,8.4180,3.2130,-0.7470,-0.0240,-0.2052,-0.3957,-89.8500,12.0000,-30.3000,8.7388,-4.0151,-3.6536,-0.3325,2.7587,-2.1786,-14.2500,-24.1500,-134.7000,11.6600,0.3800,-7.3900,-0.9610,-2.9943,-1.6613,-30.1875,17.0625,31.8750,1.4375,47.4375,-176.2500,0
1776972021.122,8.3486,3.0742,-0.6656,0.0115,-0.1905,-0.2963,-89.8500,12.0000,-30.3000,8.7388,-4.0151,-3.6536,-0.3325,2.7587,-2.1786,-14.2500,-24.1500,-134.7000,11.6600,0.3800,-7.3900,-0.8694,-3.0063,-1.6668,-30.1875,17.0625,31.8750,3.7500,45.7500,-174.9375,0
1776972021.127,8.2361,2.9928,-0.5650,0.0115,-0.1905,-0.2963,-89.8500,12.0000,-30.3000,8.7843,-4.0223,-3.6224,-0.3808,2.8011,-2.1618,-14.7000,-21.9000,-131.8500,9.6400,0.3300,-6.3500,-0.8694,-3.0063,-1.6668,-30.1875,17.0625,31.8750,353.2500,44.0000,-173.7500,0
1776972021.136,8.0780,2.8659,-0.3903,0.0544,-0.1580,-0.1974,-89.4000,13.0500,-33.0000,8.5665,-3.4213,-3.2489,-0.3714,2.8541,-2.2258,-14.7000,-21.9000,-131.8500,8.7100,0.2100,-5.9500,-0.7429,-2.9660,-1.6624,-30.1875,17.0625,31.8750,352.5625,42.3750,-172.7500,0
1776972021.146,7.9368,2.7054,-0.1772,0.0677,-0.1316,-0.0882,-89.7000,13.0500,-30.9000,8.5329,-2.4804,-2.9449,-0.2942,2.9524,-2.3283,-15.7500,-19.2000,-128.7000,8.3800,0.3000,-6.0500,-0.5760,-2.8198,-1.6166,-30.1875,17.0625,31.8750,352.5625,42.3750,-172.7500,0
1776972021.151,7.9368,2.7054,-0.1772,0.0485,-0.0943,0.0282,-90.1500,12.3000,-32.4000,8.5329,-2.4804,-2.9449,-0.2942,2.9524,-2.3283,-15.7500,-19.2000,-128.7000,8.3800,0.3000,-6.0500,-0.5760,-2.8198,-1.6166,-30.1875,17.0625,31.8750,352.5625,42.3750,-172.7500,0
1776972021.156,7.7405,2.5474,-0.2466,0.0485,-0.0943,0.0282,-90.1500,12.3000,-32.4000,8.6862,-1.8435,-2.4804,-0.2244,3.0883,-2.4666,-15.9000,-18.7500,-127.0500,8.4500,0.5300,-6.3600,-0.0927,-2.3027,-1.2970,-27.6875,17.5625,29.7500,351.9375,41.0000,-172.2500,0
1776972021.161,7.7405,2.5474,-0.2466,0.0120,-0.0538,0.1511,-89.4000,14.2500,-31.9500,8.6862,-1.8435,-2.4804,-0.2244,3.0883,-2.4666,-15.9000,-18.7500,-127.0500,8.4500,0.5300,-6.3600,-0.0927,-2.3027,-1.2970,-27.6875,17.5625,29.7500,351.9375,41.0000,-172.2500,0
1776972021.166,7.4579,2.3798,-0.2682,0.0120,-0.0538,0.1511,-89.4000,14.2500,-31.9500,9.0214,-1.2522,-2.2529,-0.1322,3.1437,-2.5802,-17.5500,-16.6500,-126.6000,9.9400,0.8600,-7.9500,-0.0927,-2.3027,-1.2970,-27.6875,17.5625,29.7500,351.3125,39.6250,-171.7500,0
1776972021.170,7.4579,2.3798,-0.2682,-0.0629,-0.0136,0.2678,-90.1500,12.3000,-30.9000,9.0214,-1.2522,-2.2529,-0.1322,3.1437,-2.5802,-17.5500,-16.6500,-126.6000,9.9400,0.8600,-7.9500,0.2062,-2.1009,-1.0876,-27.6875,17.5625,29.7500,350.7500,38.3750,-171.5000,0
1776972021.177,7.0198,2.3296,-0.2370,-0.1809,0.0402,0.3800,-90.1500,12.3000,-30.9000,9.8258,-0.4429,-1.9561,0.1092,3.1778,-2.6271,-17.4000,-13.8000,-124.6500,12.1000,0.8400,-9.7100,0.2062,-2.1009,-1.0876,-27.6875,17.5625,29.7500,350.1875,37.1250,-171.5000,0
1776972021.186,6.8498,2.0255,-0.2035,-0.3179,0.0927,0.5002,-88.9500,12.3000,-31.9500,10.9870,-0.2442,-2.2410,0.3754,2.9748,-2.5511,-16.2000,-13.0500,-122.8500,14.2700,0.5300,-11.0000,0.5094,-2.1304,-0.9654,-27.6875,17.5625,29.7500,350.1875,37.1250,-171.5000,0
1776972021.196,6.8905,2.1596,-0.2705,-0.4045,0.1681,0.6278,-88.9500,12.3000,-31.9500,12.0955,-0.3136,-2.5067,0.6198,2.6686,-2.4586,-16.2000,-13.0500,-122.8500,13.8200,0.1200,-9.9200,0.4003,-2.4391,-1.1203,-27.6875,17.5625,29.7500,349.5625,35.6875,-171.4375,0
1776972021.201,6.8905,2.1596,-0.2705,-0.4045,0.1681,0.6278,-90.9000,12.3000,-31.2000,12.0955,-0.3136,-2.5067,0.6198,2.6686,-2.4586,-16.2000,-13.0500,-122.8500,13.8200,0.1200,-9.9200,0.4003,-2.4391,-1.1203,-27.6875,17.5625,29.7500,349.5625,35.6875,-171.4375,0
1776972021.206,7.1251,2.4541,-0.5626,-0.4077,0.2465,0.7474,-90.9000,12.3000,-31.2000,12.4977,-0.2562,-2.1045,0.8767,2.3475,-2.4062,-17.5500,-7.9500,-120.4500,12.5800,0.1600,-8.5400,0.2345,-2.6736,-1.2915,-32.0625,16.6875,33.6875,348.9375,34.1250,-171.1875,0
1776972021.211,7.1251,2.4541,-0.5626,-0.4077,0.2465,0.7474,-90.9000,12.3000,-31.2000,12.4977,-0.2562,-2.1045,0.8767,2.3475,-2.4062,-17.7000,-4.8000,-120.4500,12.5800,0.1600,-8.5400,0.2345,-2.6736,-1.2915,-32.0625,16.6875,33.6875,348.9375,34.1250,-171.1875,0
1776972021.216,7.5465,2.9425,-0.8164,-0.3491,0.2643,0.8396,-90.9000,12.3000,-31.2000,11.8298,0.0407,-1.3623,0.8942,1.9761,-2.3283,-17.7000,-4.8000,-120.7500,11.9000,0.3000,-7.3200,0.0949,-2.7031,-1.4257,-32.0625,16.6875,33.6875,348.2500,32.5000,-170.8750,0
1776972021.224,7.9799,3.6583,-1.1372,-0.2246,0.2443,0.8945,-90.1500,11.4000,-32.7000,10.5249,-0.4142,-1.1684,0.5468,1.8503,-2.2684,-17.5500,-1.6500,-120.9000,11.7300,0.3800,-6.4300,0.0000,-2.5787,-1.5326,-32.0625,16.6875,33.6875,347.5000,31.0000,-170.5000,0
1776972021.229,7.9799,3.6583,-1.1372,-0.2246,0.2443,0.8945,-90.1500,11.4000,-32.7000,10.5249,-0.4142,-1.1684,0.5468,1.8503,-2.2684,-17.5500,-1.6500,-120.9000,11.7300,0.3800,-6.4300,0.0000,-2.5787,-1.5326,-32.0625,16.6875,33.6875,346.6875,29.5625,-170.1250,0
1776972021.237,8.3127,4.4149,-1.2737,-0.0645,0.2049,0.9190,-88.6500,10.6500,-31.6500,9.9407,-0.0287,-1.2139,0.2635,2.1522,-2.2663,-16.8000,0.9000,-122.2500,11.9200,0.2800,-5.3500,-0.0175,-2.3715,-1.6090,-32.0625,16.6875,33.6875,345.8750,28.1875,-169.7500,0
1776972021.247,8.6119,5.3199,-1.0702,0.0799,0.1985,0.9132,-90.6000,10.0500,-31.8000,10.1610,-0.4836,-1.3120,0.3984,2.1069,-2.1120,-16.5000,3.9000,-121.2000,11.7900,0.0300,-4.7700,0.0382,-2.1904,-1.6755,-32.0625,16.6875,33.6875,345.8750,28.1875,-169.7500,0
1776972021.252,8.3917,6.2704,-0.9529,0.0799,0.1985,0.9132,-90.6000,9.7500,-31.8000,10.6710,-0.3017,-1.1037,0.2270,2.2647,-1.9287,-16.5000,3.9000,-121.2000,11.7900,0.0300,-4.7700,0.0382,-2.1904,-1.6755,-32.0625,16.6875,33.6875,345.0000,26.8750,-169.4375,0
1776972021.257,8.3917,6.2704,-0.9529,0.1897,0.1985,0.8569,-90.6000,9.7500,-31.8000,10.6710,-0.3017,-1.1037,0.2270,2.2647,-1.9287,-16.5000,3.9000,-121.2000,11.7300,-0.3200,-4.1200,0.0938,-2.0944,-1.7159,-32.5625,15.0625,41.5625,345.0000,26.8750,-169.4375,0
1776972021.261,8.6407,7.1802,-0.7638,0.1897,0.1985,0.8569,-91.2000,9.9000,-31.6500,11.3006,-0.7207,-1.0151,0.1817,2.2167,-1.6750,-15.0000,8.4000,-120.1500,11.7300,-0.3200,-4.1200,0.0938,-2.0944,-1.7159,-32.5625,15.0625,41.5625,344.1875,25.6875,-169.1250,0
1776972021.267,8.6407,7.1802,-0.7638,0.3312,0.2188,0.7893,-91.2000,9.9000,-31.6500,11.3006,-0.7207,-1.0151,0.1817,2.2167,-1.6750,-15.0000,8.4000,-120.1500,11.4500,-1.5100,-2.4000,0.1058,-1.8882,-1.6461,-32.5625,15.0625,41.5625,344.1875,25.6875,-169.1250,0
1776972021.273,8.4132,7.6543,-0.1724,0.4274,0.2289,0.7261,-90.6000,9.3000,-31.3500,11.3629,0.0982,-0.2274,0.2875,2.0254,-1.3611,-15.6000,10.8000,-123.6000,10.6600,-2.0400,-1.5300,0.0796,-1.6417,-1.5043,-32.5625,15.0625,41.5625,343.3750,24.6250,-168.8750,0
1776972021.278,8.4132,7.6543,-0.1724,0.4274,0.2289,0.7261,-90.6000,9.3000,-31.3500,11.3629,0.0982,-0.2274,0.2875,2.0254,-1.3611,-15.6000,10.8000,-123.6000,10.6600,-2.0400,-1.5300,0.0796,-1.6417,-1.5043,-32.5625,15.0625,41.5625,342.6875,23.7500,-168.6250,0
1776972021.287,8.3510,7.8482,0.2562,0.5100,0.2912,0.6747,-90.6000,9.3000,-31.3500,11.1833,0.5243,-0.0263,0.3587,1.6726,-0.9880,-16.0500,11.7000,-123.7500,11.2700,-2.6100,-0.8800,0.0545,-1.2959,-1.3984,-32.5625,15.0625,41.5625,342.6875,23.7500,-168.6250,0
1776972021.297,8.5281,7.8171,0.1700,0.6198,0.2880,0.6523,-91.6500,8.7000,-31.2000,11.7148,0.9505,0.2777,0.1636,1.4485,-0.6073,-15.0000,13.9500,-125.8500,12.1800,-3.8100,0.4900,-0.0567,-1.0112,-1.1476,-32.5625,15.0625,41.5625,342.1250,23.0625,-168.3750,0
1776972021.302,8.6574,7.7955,-0.2586,0.7024,0.2406,0.6238,-91.6500,8.7000,-31.2000,12.2248,1.0702,0.9649,-0.0021,1.0949,-0.1815,-13.2000,16.6500,-127.6500,12.1800,-3.8100,0.4900,-0.0567,-1.0112,-1.1476,-32.5625,15.0625,41.5625,342.1250,23.0625,-168.3750,0
1776972021.307,8.6574,7.7955,-0.2586,0.7024,0.2406,0.6238,-91.6500,8.7000,-31.2000,12.2248,1.0702,0.9649,-0.0021,1.0949,-0.1815,-13.2000,16.6500,-127.6500,11.9600,-4.2100,1.2000,-0.1844,-0.8912,-0.9665,-28.6875,9.5625,50.0625,341.6250,22.5000,-168.1250,0
1776972021.312,8.5258,7.7021,-0.6369,0.6837,0.1892,0.5780,-91.6500,7.5000,-30.4500,11.4706,1.0343,1.8340,-0.0935,0.5289,0.2289,-13.2000,16.6500,-127.6500,11.9600,-4.2100,1.2000,-0.1844,-0.8912,-0.9665,-28.6875,9.5625,50.0625,341.6250,22.5000,-168.1250,0
1776972021.317,8.5258,7.7021,-0.6369,0.6837,0.1892,0.5780,-91.6500,7.5000,-30.4500,11.4706,1.0343,1.8340,-0.0935,0.5289,0.2289,-13.2000,16.6500,-127.6500,12.0400,-4.6000,2.3800,-0.3731,-0.6065,-0.8912,-28.6875,9.5625,50.0625,341.2500,22.0625,-167.7500,0
1776972021.327,8.2456,7.5082,-1.1492,0.6057,0.1671,0.5009,-91.9500,6.7500,-31.2000,11.2791,0.2274,2.0877,-0.2185,0.1228,0.4674,-8.8500,25.9500,-138.3000,11.5700,-4.7700,3.6200,-0.5356,-0.4636,-0.8367,-28.6875,9.5625,50.0625,340.8125,21.6875,-167.2500,0
1776972021.336,8.2049,7.1132,-1.5993,0.5047,0.2033,0.4565,-89.8500,4.6500,-31.0500,10.7260,-0.1820,1.2402,-0.2268,-0.5359,0.7592,-3.9000,31.5000,-145.3500,8.8100,-3.9400,5.8500,-0.5629,-0.1713,-0.7865,-28.6875,9.5625,50.0625,340.5000,21.5000,-166.8125,0
1776972021.346,8.1211,6.0430,-1.7789,0.3949,0.2726,0.4370,-92.2500,5.4000,-29.2500,9.3565,0.0694,0.9433,-0.5060,-0.1966,0.9705,-0.3000,39.0000,-151.3500,8.5700,-3.3000,6.3500,-0.4232,0.3687,-0.6949,-28.6875,9.5625,50.0625,340.1250,21.6250,-166.3750,0
1776972021.351,8.1092,4.6711,-1.9872,0.2062,0.3850,0.4120,-92.2500,5.4000,-29.2500,9.2871,-0.5076,-0.3759,-0.2238,-0.5391,1.0968,3.7500,47.4000,-157.9500,8.5700,-3.3000,6.3500,-0.4232,0.3687,-0.6949,-28.6875,9.5625,50.0625,340.1250,21.6250,-166.3750,0
1776972021.355,8.1092,4.6711,-1.9872,0.2062,0.3850,0.4120,-90.1500,4.0500,-30.9000,9.2871,-0.5076,-0.3759,-0.2238,-0.5391,1.0968,3.7500,47.4000,-157.9500,8.8300,-2.2500,5.2000,-0.2945,0.9937,-0.3883,-26.2500,5.2500,51.5625,339.8750,22.1250,-166.0625,0
1776972021.360,7.8865,4.1539,-2.0039,0.0123,0.4317,0.4183,-90.1500,4.0500,-30.9000,9.7181,-1.0247,-0.3184,-0.2284,-0.2747,1.1914,3.7500,47.4000,-157.9500,8.8300,-2.2500,5.2000,-0.2945,0.9937,-0.3883,-26.2500,5.2500,51.5625,339.8750,22.1250,-166.0625,0
1776972021.365,7.8865,4.1539,-2.0039,0.0123,0.4317,0.4183,-91.0500,4.2000,-28.8000,9.7181,-1.0247,-0.3184,-0.2284,-0.2747,1.1914,3.7500,47.4000,-157.9500,9.6600,-1.4100,1.1900,-0.0262,1.5163,-0.0480,-26.2500,5.2500,51.5625,339.7500,22.9375,-166.0000,0
1776972021.370,7.7357,3.6033,-1.5706,-0.0791,0.4876,0.4511,-91.0500,4.2000,-28.8000,9.6678,-1.3767,-0.6704,-0.1359,-0.4469,1.3326,3.7500,47.4000,-157.9500,9.6600,-1.4100,1.1900,-0.0262,1.5163,-0.0480,-26.2500,5.2500,51.5625,339.7500,23.8750,-166.0000,0
1776972021.377,7.6375,2.9377,-1.3982,-0.0490,0.5596,0.5281,-91.0500,4.2000,-28.8000,9.1243,-2.9521,-0.1987,-1.8780,0.2761,1.3366,3.7500,47.4000,-157.9500,10.5300,-1.2400,-0.4300,0.1658,1.7890,0.1985,-26.2500,5.2500,51.5625,339.8125,24.9375,-166.0625,0
1776972021.387,9.1171,2.8730,-1.1923,0.1258,0.5247,0.6907,-91.6500,4.5000,-28.9500,10.0365,-1.0965,1.5371,0.0115,-0.0933,1.3163,10.3500,75.1500,-173.2500,10.5900,-1.1100,-1.6900,0.1364,1.7911,0.3927,-26.2500,5.2500,51.5625,339.8125,24.9375,-166.0625,0
1776972021.397,9.4882,2.3439,-1.3144,0.1031,0.4895,0.9054,-91.6500,4.5000,-28.9500,9.2584,2.9137,3.6488,0.5204,-0.8418,1.0365,9.6000,71.7000,-176.8500,3.5900,11.8200,-13.6800,0.9065,1.3603,0.9490,-26.2500,5.2500,51.5625,340.1250,25.7500,-166.7500,0
1776972021.402,9.4882,2.3439,-1.3144,0.1031,0.4895,0.9054,-93.1500,4.5000,-27.4500,9.2584,2.9137,3.6488,0.5204,-0.8418,1.0365,7.9500,66.3000,-180.9000,3.5900,11.8200,-13.6800,0.9065,1.3603,0.9490,-26.2500,5.2500,51.5625,340.1250,25.7500,-166.7500,0
1776972021.407,10.1131,1.7238,-0.8068,-0.0514,0.5156,1.1194,-93.1500,4.5000,-27.4500,8.3653,7.2113,4.4101,0.6070,-0.9571,0.4956,7.9500,66.3000,-180.9000,-3.1500,5.7200,-16.3500,1.9210,2.3529,1.3286,-26.3750,3.5000,52.0000,340.5000,27.1875,-168.0000,0
1776972021.412,10.1131,1.7238,-0.8068,-0.0514,0.5156,1.1194,-93.1500,4.5000,-27.4500,8.3653,7.2113,4.4101,0.6070,-0.9571,0.4956,7.8000,64.2000,-183.9000,-3.1500,5.7200,-16.3500,1.9210,2.3529,1.3286,-26.3750,3.5000,52.0000,340.5000,27.1875,-168.0000,0
1776972021.417,10.7284,0.9697,-0.8092,-0.0863,0.6051,1.3387,-91.9500,1.6500,-28.9500,9.4715,9.3709,1.7382,0.8124,-0.3059,-0.2763,7.8000,64.2000,-183.9000,-4.6400,6.4100,-29.4900,1.5981,1.9624,1.0886,-26.3750,3.5000,52.0000,340.7500,28.3750,-169.1250,0
1776972021.424,10.7284,0.9697,-0.8092,-0.0863,0.6051,1.3387,-92.2500,2.7000,-27.7500,9.4715,9.3709,1.7382,0.8124,-0.3059,-0.2763,7.8000,64.2000,-183.9000,9.4500,1.3300,-21.2000,0.8323,1.7082,-0.2160,-26.3750,3.5000,52.0000,340.4375,29.3125,-169.4375,0
1776972021.429,11.3940,0.5962,-0.6345,0.1010,0.4357,1.5031,-92.2500,2.7000,-27.7500,13.4889,10.5512,-0.1796,1.5753,0.1788,-0.5806,7.8000,64.2000,-183.9000,9.4500,1.3300,-21.2000,0.8323,1.7082,-0.2160,-26.3750,3.5000,52.0000,340.0000,30.2500,-169.2500,0
1776972021.437,11.4682,1.0702,-2.6600,0.5742,0.3762,1.5631,-92.2500,0.3000,-27.3000,13.5392,6.0238,-6.1220,-0.1919,-0.0197,-0.2062,1.5000,62.7000,-187.2000,-1.8700,-8.0200,-1.8700,0.1963,1.8642,-0.5858,-26.3750,3.5000,52.0000,339.6875,31.5000,-169.1875,0
1776972021.447,13.3716,3.5123,-5.0805,1.2236,0.1343,1.4562,-91.2000,-0.1500,-27.1500,13.0292,2.0039,-6.4620,-1.1623,-0.0826,0.0919,1.0500,59.2500,-190.5000,5.9600,-0.5500,-7.2100,0.3436,2.3289,-0.2247,-26.3750,3.5000,52.0000,339.6875,31.5000,-169.1875,0
1776972021.452,13.3716,3.5123,-5.0805,1.2236,0.1343,1.4562,-91.2000,-0.1500,-27.1500,13.0292,2.0039,-6.4620,-1.1623,-0.0826,0.0919,1.0500,59.2500,-190.5000,5.9600,-0.5500,-7.2100,0.3436,2.3289,-0.2247,-26.3750,3.5000,52.0000,339.6875,31.5000,-169.1875,0
1776972021.457,16.2997,6.0980,-5.0901,1.5199,-0.1239,1.3027,-93.3000,-0.7500,-26.5500,14.5184,3.2058,-3.9409,-0.1420,-0.2081,0.4900,-0.1500,55.6500,-196.0500,8.6400,-11.3400,-13.4300,0.7287,1.6384,-0.3414,-32.0625,6.5625,50.6875,339.3125,32.3750,-169.3750,0
1776972021.462,16.2997,6.0980,-5.0901,1.5199,-0.1239,1.3027,-93.3000,-0.7500,-26.5500,14.5184,3.2058,-3.9409,-0.1420,-0.2081,0.4900,-0.1500,55.6500,-196.0500,8.6400,-11.3400,-13.4300,0.7287,1.6384,-0.3414,-32.0625,6.5625,50.6875,339.3125,32.3750,-169.3750,0
1776972021.467,15.7562,7.4843,-2.6456,1.1786,-0.3008,1.0552,-93.3000,-0.7500,-26.5500,14.7148,5.3103,-3.5123,0.8124,-0.2004,0.5942,-0.9000,53.7000,-202.0500,25.5200,7.3000,-17.9600,0.0382,2.8416,1.1148,-32.0625,6.5625,50.6875,339.8125,34.0000,-169.6250,0
1776972021.473,12.0668,6.0813,1.1085,1.1786,-0.3008,1.0552,-91.6500,-2.4000,-25.3500,14.7148,5.3103,-3.5123,0.8124,-0.2004,0.5942,-0.9000,53.7000,-202.0500,25.5200,7.3000,-17.9600,-0.1145,2.1075,0.4712,-32.0625,6.5625,50.6875,340.0000,35.2500,-169.5625,0
1776972021.478,12.0668,6.0813,1.1085,0.4655,0.2851,0.8455,-91.6500,-2.4000,-25.3500,15.6365,5.8179,-1.3838,1.4330,0.1852,0.8841,-0.9000,53.7000,-202.0500,12.7000,13.3300,-2.9200,-0.1145,2.1075,0.4712,-32.0625,6.5625,50.6875,340.1250,35.7500,-170.1250,0
1776972021.487,9.2943,3.9576,3.8858,-0.2249,0.8577,0.7429,-91.6500,-2.4000,-25.3500,11.7316,2.8754,2.1548,1.9484,0.4112,1.0285,-2.4000,49.5000,-213.3000,2.9400,6.7900,0.1200,0.6523,0.8268,0.5760,-32.0625,6.5625,50.6875,340.3125,36.3125,-170.8750,0
1776972021.497,7.9176,2.3439,5.1763,-0.5614,1.1069,0.7394,-92.5500,-3.0000,-26.5500,8.9639,-2.1069,3.9696,2.8328,0.4906,1.1186,-2.8500,48.0000,-215.4000,11.1700,-5.9500,-12.2700,1.0199,0.9916,0.7058,-32.0625,6.5625,50.6875,340.3125,36.3125,-170.8750,0
1776972021.502,7.3334,0.3208,4.0318,-0.5614,1.1069,0.7394,-92.5500,-3.0000,-26.5500,8.9639,-2.1069,3.9696,2.8328,0.4906,1.1186,-2.8500,48.0000,-215.4000,11.1700,-5.9500,-12.2700,1.0199,0.9916,0.7058,-32.0625,6.5625,50.6875,340.5000,36.6875,-171.5000,0
1776972021.507,7.3334,0.3208,4.0318,-0.0600,1.1040,0.8279,-92.2500,-5.4000,-24.7500,8.0206,-5.8538,4.4412,3.0145,-0.3472,1.3656,-1.2000,47.4000,-217.8000,6.4300,-6.7700,-10.3300,0.7865,0.5083,0.5705,-37.8750,7.0000,48.0000,340.5000,36.6875,-171.5000,0
1776972021.512,8.0469,-2.1141,1.2857,0.7893,0.8817,0.9228,-92.2500,-5.4000,-24.7500,8.0206,-5.8538,4.4412,3.0145,-0.3472,1.3656,-1.2000,47.4000,-217.8000,6.4300,-6.7700,-10.3300,0.7865,0.5083,0.5705,-37.8750,7.0000,48.0000,340.6250,36.8750,-171.8125,0
1776972021.517,8.0469,-2.1141,1.2857,0.7893,0.8817,0.9228,-92.2500,-5.4000,-24.0000,8.4922,-7.5226,2.9090,2.5383,-1.1501,1.5338,2.8500,48.7500,-214.3500,5.2000,0.6800,-8.6100,0.2727,0.3218,0.3556,-37.8750,7.0000,48.0000,340.6250,36.8750,-171.8125,0
1776972021.525,8.7364,-3.9959,-1.3599,0.7911,0.5764,0.9286,-92.7000,-5.5500,-24.6000,8.1930,-6.8043,4.0965,1.4309,-1.9364,1.7520,7.8000,49.6500,-205.3500,5.1700,4.2500,-6.7300,0.1538,0.6403,0.2247,-37.8750,7.0000,48.0000,340.6875,37.2500,-171.9375,0
1776972021.530,8.8346,-5.3463,-3.0358,0.7911,0.5764,0.9286,-92.7000,-5.5500,-24.6000,8.1930,-6.8043,4.0965,1.4309,-1.9364,1.7520,7.8000,49.6500,-205.3500,5.1700,4.2500,-6.7300,0.1538,0.6403,0.2247,-37.8750,7.0000,48.0000,340.7500,37.5625,-172.1875,0
1776972021.538,8.8346,-5.3463,-3.0358,0.3659,0.3389,0.9667,-93.4500,-5.2500,-22.6500,6.0932,-5.9137,1.1037,-0.2454,-2.5794,1.8122,7.8000,49.6500,-205.3500,6.0200,1.3700,-7.7500,0.3283,0.5770,0.2422,-37.8750,7.0000,48.0000,340.8125,37.8750,-172.5000,0
1776972021.547,8.8825,-5.1499,-2.7557,0.0514,0.2065,1.0237,-93.9000,-6.0000,-24.9000,6.7732,-3.8475,4.4149,-1.2580,-0.7802,1.6489,16.0500,44.4000,-183.6000,5.4700,0.5900,-8.1200,0.3818,0.4734,0.2978,-37.8750,7.0000,48.0000,340.8125,37.8750,-172.5000,0
1776972021.552,8.9232,-3.6823,-1.3192,-0.3451,0.2891,0.9920,-93.9000,-6.0000,-24.9000,8.0325,-2.5762,2.5019,-1.4242,-1.1386,1.7203,16.0500,44.4000,-183.6000,5.4700,0.5900,-8.1200,0.3818,0.4734,0.2978,-37.8750,7.0000,48.0000,340.8125,37.8750,-172.5000,0
1776972021.557,8.9232,-3.6823,-1.3192,-0.3451,0.2891,0.9920,-93.9000,-6.0000,-24.9000,8.0325,-2.5762,2.5019,-1.4242,-1.1386,1.7203,17.4000,38.2500,-173.1000,5.3800,0.8800,-7.7500,0.5345,0.4756,0.3305,-39.3750,9.7500,46.7500,340.8750,38.1250,-172.9375,0
1776972021.562,8.3941,-1.4892,-0.2897,-0.7226,0.3621,0.8596,-93.9000,-6.0000,-24.9000,8.4013,-0.4525,0.4238,-1.1133,-0.5652,1.4330,17.4000,38.2500,-173.1000,5.3800,0.8800,-7.7500,0.5345,0.4756,0.3305,-39.3750,9.7500,46.7500,340.8750,38.1250,-172.9375,0
1776972021.567,8.3941,-1.4892,-0.2897,-0.7226,0.3621,0.8596,-92.7000,-8.4000,-23.8500,8.4013,-0.4525,0.4238,-1.1133,-0.5652,1.4330,17.8500,33.4500,-164.7000,5.6300,1.2700,-7.5400,0.7483,0.3447,0.3982,-39.3750,9.7500,46.7500,340.9375,38.3750,-173.5000,0
1776972021.572,8.4491,1.1157,0.5100,-0.8903,0.3214,0.7735,-92.7000,-8.4000,-23.8500,9.7444,2.2960,-2.6767,-0.9627,-0.0328,1.0776,17.8500,33.4500,-164.7000,5.6300,1.2700,-7.5400,0.8399,0.3316,0.4232,-39.3750,9.7500,46.7500,341.0000,38.5625,-174.1250,0
1776972021.578,8.6383,2.2218,1.7358,-0.8903,0.3214,0.7735,-92.7000,-8.4000,-23.8500,9.7444,2.2960,-2.6767,-0.9627,-0.0328,1.0776,17.4000,28.8000,-156.3000,6.9100,-0.3700,-8.9900,0.8399,0.3316,0.4232,-39.3750,9.7500,46.7500,341.0625,38.8125,-174.6250,0
1776972021.587,8.6383,2.2218,1.7358,-0.8932,0.3203,0.8084,-92.5500,-9.3000,-24.0000,10.1682,3.2441,-4.9033,-0.7967,0.1399,0.8399,14.7000,22.9500,-152.2500,7.2300,-1.8100,-9.2400,0.6370,0.3469,0.3774,-39.3750,9.7500,46.7500,341.0625,38.8125,-174.6250,0
1776972021.597,9.1267,2.3774,2.8419,-0.6185,0.2470,0.9252,-93.3000,-9.0000,-24.3000,10.2831,3.2250,-5.8419,-0.4434,0.1535,0.5750,14.7000,22.9500,-152.2500,6.2600,1.4400,-7.3800,0.3862,0.3665,0.2923,-39.3750,9.7500,46.7500,341.1875,39.0000,-174.9375,0
1776972021.602,9.1267,2.3774,2.8419,-0.1564,0.2078,1.0128,-93.3000,-9.0000,-24.3000,9.7516,2.2601,-4.7525,0.3539,0.3011,0.2630,14.7000,22.9500,-152.2500,6.2600,1.4400,-7.3800,0.3862,0.3665,0.2923,-39.3750,9.7500,46.7500,341.1875,39.2500,-175.3125,0
1776972021.607,9.6798,1.6759,2.3487,-0.1564,0.2078,1.0128,-93.1500,-9.4500,-23.1000,9.7516,2.2601,-4.7525,0.3539,0.3011,0.2630,8.4000,18.9000,-151.8000,6.6300,0.5200,-7.4000,0.4156,0.4734,0.2498,-41.2500,11.6875,45.5000,341.1875,39.2500,-175.3125,0
1776972021.612,9.6798,1.6759,2.3487,0.5431,0.2081,1.0003,-93.1500,-9.4500,-23.1000,10.6446,3.1843,-2.5307,1.1125,0.5899,0.0248,8.4000,18.9000,-151.8000,6.6300,0.5200,-7.4000,0.4156,0.4734,0.2498,-41.2500,11.6875,45.5000,341.1875,39.5625,-175.6250,0
1776972021.617,9.9742,0.7542,1.3982,0.5431,0.2081,1.0003,-92.5500,-10.9500,-23.2500,10.6446,3.1843,-2.5307,1.1125,0.5899,0.0248,2.7000,21.4500,-151.8000,7.3600,-0.0900,-8.1300,0.4800,0.5629,0.1822,-41.2500,11.6875,45.5000,341.1875,39.5625,-175.6250,0
1776972021.624,9.9742,0.7542,1.3982,1.1823,0.2281,0.8950,-92.2500,-10.9500,-22.2000,11.1163,2.8419,0.4501,1.4152,0.1418,0.1769,0.6000,23.5500,-155.5500,7.4700,0.0600,-8.0500,0.4222,0.6305,0.0742,-41.2500,11.6875,45.5000,341.1250,39.9375,-175.8750,0
1776972021.629,10.0365,-0.0431,1.3120,1.4978,0.2523,0.7658,-92.2500,-10.9500,-22.2000,10.8505,0.9697,2.9473,1.5836,-0.3230,0.3645,0.6000,23.5500,-155.5500,7.4700,0.0600,-8.0500,0.4222,0.6305,0.0742,-41.2500,11.6875,45.5000,341.0625,40.2500,-176.0000,0
1776972021.638,9.8928,-0.0407,2.0470,1.4607,0.2971,0.6638,-93.1500,-11.8500,-21.9000,10.8505,0.9697,2.9473,1.5836,-0.3230,0.3645,-1.0500,27.3000,-161.2500,7.0600,0.1500,-7.9100,0.2978,0.5149,-0.0240,-41.2500,11.6875,45.5000,341.0000,40.4375,-176.0625,0
1776972021.648,9.6438,-0.0215,3.0526,1.3254,0.3898,0.5865,-93.1500,-11.8500,-21.9000,10.0221,-1.7957,4.8483,1.4362,-0.4250,0.4301,-0.9000,32.4000,-170.4000,6.6900,0.3800,-7.7000,0.1985,0.3676,-0.0774,-41.2500,11.6875,45.5000,341.0000,40.4375,-176.0625,0
1776972021.653,9.6438,-0.0215,3.0526,1.3254,0.3898,0.5865,-93.1500,-11.8500,-21.9000,9.3039,-4.8722,6.0478,0.9084,-0.3395,0.5465,-0.9000,32.4000,-170.4000,6.6900,0.3800,-7.7000,0.1985,0.3676,-0.0774,-41.2500,11.6875,45.5000,340.8750,40.5625,-176.0625,0
1776972021.658,9.6702,-0.0982,3.4596,1.1919,0.5028,0.5113,-91.9500,-13.0500,-22.3500,9.3039,-4.8722,6.0478,0.3770,-0.3893,0.6984,-0.9000,32.4000,-170.4000,6.3200,0.6700,-7.4800,0.1025,0.2531,-0.0905,-42.0000,13.0625,45.0625,340.8750,40.5625,-176.0625,0
1776972021.662,9.6702,-0.0982,3.4596,1.1919,0.5028,0.5113,-91.9500,-13.0500,-22.3500,8.7269,-6.8019,6.3734,0.3770,-0.3893,0.6984,-0.9000,32.4000,-170.4000,6.3200,0.6700,-7.4800,0.1025,0.2531,-0.0905,-42.0000,13.0625,45.0625,340.8750,40.6875,-176.0625,0
1776972021.668,9.6582,-0.0383,3.2322,1.0421,0.5534,0.4277,-91.9500,-13.0500,-22.3500,8.4563,-7.9033,5.9520,-0.1524,-0.4770,0.9025,3.4500,40.9500,-177.1500,6.3000,0.5200,-7.5900,0.0807,0.1854,-0.0600,-42.0000,13.0625,45.0625,340.8750,40.6875,-176.0625,0
1776972021.672,9.6582,-0.0383,3.2322,1.0421,0.5534,0.4277,-91.9500,-13.0500,-22.3500,8.4563,-7.9033,5.9520,-0.1524,-0.4770,0.9025,3.4500,40.9500,-177.1500,6.3000,0.5200,-7.5900,0.0600,0.1047,-0.0273,-42.0000,13.0625,45.0625,340.8125,40.7500,-176.1250,0
1776972021.678,9.6271,-0.4094,2.9257,0.8322,0.5641,0.3659,-92.7000,-13.0500,-21.1500,9.2895,-6.3039,4.4724,-0.5969,-0.6499,1.1583,6.6000,40.2000,-178.6500,6.3100,0.7300,-7.3900,0.0600,0.1047,-0.0273,-42.0000,13.0625,45.0625,340.8125,40.6875,-176.1250,0
1776972021.688,9.5481,-0.7733,2.6528,0.4804,0.5569,0.3027,-92.4000,-13.8000,-20.5500,9.6223,-5.0566,3.3854,-0.9102,-0.5502,1.2263,10.5000,42.7500,-178.8000,6.3400,0.6200,-7.4600,0.0142,-0.0316,0.0164,-42.0000,13.0625,45.0625,340.8750,40.6875,-176.1250,0
1776972021.698,9.9000,-0.9242,2.2122,0.2129,0.4783,0.2726,-94.5000,-13.9500,-21.4500,10.8816,-3.2753,1.4389,-0.9827,-0.4772,1.1397,14.7000,41.4000,-176.4000,6.4000,0.4600,-7.6600,-0.0087,-0.0698,0.0524,-42.0000,13.0625,45.0625,340.8750,40.6875,-176.1250,0
1776972021.703,9.9000,-0.9242,2.2122,0.2129,0.4783,0.2726,-94.5000,-13.9500,-21.4500,10.8816,-3.2753,1.4389,-0.9827,-0.4772,1.1397,17.7000,40.5000,-173.4000,6.4000,0.4600,-7.6600,-0.0087,-0.0698,0.0524,-42.0000,13.0625,45.0625,340.8750,40.6875,-176.1250,0
1776972021.708,9.7420,-1.0774,1.6879,-0.0997,0.4522,0.2494,-93.0000,-13.9500,-22.2000,10.8386,-1.8148,-0.3807,-1.1138,-0.5308,0.9638,17.7000,40.5000,-173.4000,6.4000,0.3900,-7.6800,0.0022,0.0142,0.0633,-43.0625,12.0625,43.0625,340.8750,40.6875,-176.1875,0
1776972021.713,9.8067,-0.8021,1.2210,-0.0997,0.4522,0.2494,-93.0000,-13.9500,-22.2000,10.8386,-1.8148,-0.3807,-1.1138,-0.5308,0.9638,17.7000,40.5000,-173.4000,6.4000,0.3900,-7.6800,0.0022,0.0142,0.0633,-43.0625,12.0625,43.0625,340.9375,40.6875,-176.1875,0
1776972021.718,9.8067,-0.8021,1.2210,-0.3432,0.3251,0.2467,-93.3000,-14.4000,-20.7000,10.5369,-0.3663,-1.4844,-1.0786,-0.5121,0.7442,17.7000,40.5000,-173.4000,6.5200,0.5100,-7.4100,-0.0065,0.0425,0.0567,-43.0625,12.0625,43.0625,340.9375,40.6875,-176.1875,0
1776972021.725,9.8426,-0.7853,0.6919,-0.6033,0.1974,0.2523,-93.3000,-14.4000,-20.7000,10.5369,-0.3663,-1.4844,-1.0786,-0.5121,0.7442,19.0500,36.4500,-170.1000,6.3600,0.3500,-7.6900,0.0055,-0.0764,0.0578,-43.0625,12.0625,43.0625,340.9375,40.6875,-176.2500,0
1776972021.729,9.8426,-0.7853,0.6919,-0.6033,0.1974,0.2523,-92.4000,-15.0000,-20.5500,10.2903,0.9553,-1.7645,-0.9462,-0.4698,0.5143,19.0500,36.4500,-170.1000,6.3600,0.3500,-7.6900,0.0055,-0.0764,0.0578,-43.0625,12.0625,43.0625,340.9375,40.6875,-176.2500,0
1776972021.738,9.9000,-0.7254,0.2993,-0.8641,0.0906,0.2801,-92.4000,-15.0000,-20.5500,9.7540,1.0822,-1.4605,-0.7530,-0.4402,0.3075,17.4000,36.0000,-168.4500,6.3800,0.3400,-7.4700,0.0469,0.0829,0.0295,-43.0625,12.0625,43.0625,340.9375,40.6875,-176.2500,0
1776972021.744,9.8569,-0.9912,0.4094,-1.1143,0.0091,0.3096,-92.4000,-15.0000,-20.5500,9.7540,1.0822,-1.4605,-0.7530,-0.4402,0.3075,16.0500,34.2000,-170.7000,6.2300,0.3900,-7.6900,0.0829,0.2225,-0.0251,-43.0625,12.0625,43.0625,340.9375,40.8125,-176.3125,0
1776972021.749,9.8569,-0.9912,0.4094,-1.1143,0.0091,0.3096,-92.4000,-14.5500,-20.1000,9.5840,0.7877,-1.5012,-0.5132,-0.2899,0.0703,16.0500,34.2000,-170.7000,6.2300,0.3900,-7.6900,0.0829,0.2225,-0.0251,-43.0625,12.0625,43.0625,340.9375,40.8125,-176.3125,0
1776972021.754,9.7205,-1.0989,0.6225,-1.2361,-0.0506,0.3339,-92.4000,-14.5500,-20.1000,9.5840,0.7877,-1.5012,-0.5132,-0.2899,0.0703,13.3500,33.7500,-169.5000,6.2300,0.3900,-7.6900,0.0829,0.2225,-0.0251,-43.3750,13.5000,43.5000,340.9375,40.9375,-176.3125,0
1776972021.759,9.7205,-1.0989,0.6225,-1.2361,-0.0506,0.3339,-92.4000,-14.5500,-20.1000,9.4763,0.5914,-1.4509,-0.4069,-0.3320,-0.0389,13.3500,33.7500,-169.5000,6.4900,0.4300,-7.3200,0.0491,0.1505,-0.0055,-43.3750,13.5000,43.5000,340.9375,40.9375,-176.3125,0
1776972021.764,9.5409,-0.8571,0.9337,-1.2420,-0.0861,0.3451,-92.4000,-14.5500,-20.1000,9.4763,0.5914,-1.4509,-0.4069,-0.3320,-0.0389,9.3000,34.0500,-171.0000,6.4900,0.4300,-7.3200,0.0491,0.1505,-0.0055,-43.3750,13.5000,43.5000,340.9375,40.9375,-176.3125,0
1776972021.769,9.5409,-0.8571,0.9337,-1.2420,-0.0861,0.3451,-92.2500,-14.8500,-20.2500,8.1642,-0.2514,0.2274,-0.0554,-0.2798,0.0115,9.3000,34.0500,-171.0000,6.2800,0.4200,-7.5300,0.0196,0.0175,0.0022,-43.3750,13.5000,43.5000,340.9375,40.9375,-176.3125,0
1776972021.774,9.3230,-0.4573,1.1636,-1.1111,-0.1106,0.3453,-92.2500,-14.8500,-20.2500,8.1642,-0.2514,0.2274,-0.0554,-0.2798,0.0115,9.3000,34.0500,-171.0000,6.2800,0.4200,-7.5300,-0.0436,-0.0065,0.0000,-43.3750,13.5000,43.5000,340.9375,40.9375,-176.3125,0
1776972021.779,9.3230,-0.4573,1.1636,-1.1111,-0.1106,0.3453,-93.0000,-14.8500,-20.2500,8.5617,-1.5060,-0.6273,-0.1495,-0.3312,-0.0253,9.3000,34.0500,-171.0000,6.3400,0.4500,-7.4600,-0.0436,-0.0065,0.0000,-43.3750,13.5000,43.5000,340.9375,40.9375,-176.3125,0
1776972021.788,9.0764,-0.0862,1.5227,-0.9009,-0.0893,0.3480,-91.6500,-13.5000,-19.3500,8.7221,-2.7988,-0.4788,-0.1359,-0.2694,0.0765,4.0500,33.4500,-177.9000,6.3500,0.4200,-7.3700,-0.0905,-0.0349,-0.0011,-43.3750,13.5000,43.5000,340.9375,40.8750,-176.2500,0
1776972021.792,8.9160,0.1987,1.8411,-0.6336,-0.0426,0.3656,-91.6500,-13.5000,-19.3500,8.7221,-2.7988,-0.4788,-0.1359,-0.2694,0.0765,1.5000,36.9000,-179.2500,6.3500,0.4200,-7.3700,-0.1244,-0.0589,-0.0044,-43.3750,13.5000,43.5000,340.9375,40.8750,-176.1875,0
1776972021.799,8.9160,0.1987,1.8411,-0.6336,-0.0426,0.3656,-93.0000,-14.8500,-20.7000,8.7053,-3.3519,-0.8595,-0.1889,-0.2702,0.1833,1.5000,36.9000,-179.2500,6.2400,0.4300,-7.5400,-0.1244,-0.0589,-0.0044,-43.3750,13.5000,43.5000,340.9375,40.8750,-176.1875,0
1776972021.804,8.9926,0.2562,1.8723,-0.3472,0.0141,0.3880,-93.0000,-14.8500,-20.7000,9.1985,-2.9066,-0.9577,-0.2750,-0.3869,0.3387,0.6000,37.0500,-179.5500,6.2400,0.4300,-7.5400,-0.1353,0.1025,-0.0131,-42.6875,12.7500,43.0000,341.0000,40.9375,-176.1250,0
1776972021.809,9.1267,0.3472,1.7837,-0.3472,0.0141,0.3880,-91.9500,-14.5500,-20.8500,9.1985,-2.9066,-0.9577,-0.2750,-0.3869,0.3387,0.6000,37.0500,-179.5500,6.6200,0.5700,-7.1000,-0.1353,0.1025,-0.0131,-42.6875,12.7500,43.0000,341.0000,40.9375,-176.1250,0
1776972021.814,9.1267,0.3472,1.7837,-0.0794,0.0794,0.4274,-91.9500,-14.5500,-20.8500,9.1650,-2.3990,-0.9816,-0.3331,-0.3898,0.4567,1.0500,36.3000,-179.1000,6.6200,0.5700,-7.1000,-0.1222,-0.0524,-0.0033,-42.6875,12.7500,43.0000,341.0000,40.8750,-176.0625,0
1776972021.819,9.3661,0.1221,1.6041,-0.0794,0.0794,0.4274,-93.0000,-17.5500,-21.0000,9.1650,-2.3990,-0.9816,-0.3331,-0.3898,0.4567,1.0500,36.3000,-179.1000,6.5400,0.5800,-7.3000,-0.1222,-0.0524,-0.0033,-42.6875,12.7500,43.0000,341.0000,40.8750,-176.0625,0
1776972021.823,9.3661,0.1221,1.6041,0.1346,0.1330,0.4724,-93.0000,-17.5500,-21.0000,9.2273,-1.8220,-0.8236,-0.4021,-0.3515,0.5049,1.0500,36.3000,-179.1000,6.5400,0.5800,-7.3000,-0.1429,-0.1505,0.0131,-42.6875,12.7500,43.0000,341.0625,40.8125,-176.0000,0
1776972021.829,9.3661,0.0599,1.3575,0.2542,0.1644,0.4943,-93.0000,-17.5500,-21.0000,9.2273,-1.8220,-0.8236,-0.4021,-0.3515,0.5049,1.0500,36.3000,-179.1000,6.2400,0.5100,-7.6400,-0.1429,-0.1505,0.0131,-42.6875,12.7500,43.0000,341.0625,40.8125,-176.0000,0
1776972021.838,9.4332,0.1915,1.1420,0.2542,0.1644,0.4943,-92.4000,-16.2000,-19.8000,9.5146,-1.5131,-1.1468,-0.4128,-0.3429,0.5204,1.0500,36.3000,-179.1000,6.4400,0.5600,-7.3600,-0.1385,-0.0480,0.0044,-42.6875,12.7500,43.0000,341.0625,40.7500,-175.9375,0
1776972021.843,9.4332,0.1915,1.1420,0.3240,0.1895,0.5188,-92.4000,-16.2000,-19.8000,9.6798,-1.0965,-0.8643,-0.3898,-0.2854,0.5220,3.9000,36.0000,-179.8500,6.4400,0.5600,-7.3600,-0.1396,-0.0873,0.0065,-42.6875,12.7500,43.0000,341.1250,40.7500,-175.8125,0
1776972021.849,9.5696,0.2682,0.9960,0.3405,0.2089,0.5513,-92.4000,-16.2000,-19.8000,9.6798,-1.0965,-0.8643,-0.3898,-0.2854,0.5220,3.9000,36.0000,-179.8500,6.3300,0.5100,-7.4800,-0.1396,-0.0873,0.0065,-42.6875,12.7500,43.0000,341.1250,40.7500,-175.8125,0
1776972021.854,9.5696,0.2682,0.9960,0.3405,0.2089,0.5513,-92.4000,-16.2000,-19.8000,9.6941,-0.8715,-0.7853,-0.3549,-0.2641,0.4642,4.9500,35.2500,-179.1000,6.2800,0.5300,-7.5400,-0.0905,-0.0862,0.0065,-43.7500,13.5000,45.0000,341.1250,40.6875,-175.8125,0
1776972021.859,9.6319,0.3591,0.8691,0.3190,0.1940,0.5732,-91.2000,-16.9500,-18.6000,9.6941,-0.8715,-0.7853,-0.3549,-0.2641,0.4642,4.9500,35.2500,-179.1000,6.2800,0.5300,-7.5400,-0.0905,-0.0862,0.0065,-43.7500,13.5000,45.0000,341.1250,40.6875,-175.8125,0
1776972021.864,9.6319,0.3591,0.8691,0.3190,0.1940,0.5732,-91.2000,-16.9500,-18.6000,9.7348,-0.7159,-0.6752,-0.3451,-0.1895,0.4159,7.3500,36.4500,-178.6500,6.2800,0.5300,-7.5400,-0.0273,-0.0055,0.0011,-43.7500,13.5000,45.0000,341.1250,40.6875,-175.7500,0
1776972021.869,9.7013,0.4046,0.8404,0.2779,0.1567,0.5670,-91.8000,-17.5500,-19.9500,9.7348,-0.7159,-0.6752,-0.3451,-0.1895,0.4159,8.8500,37.6500,-178.2000,6.3400,0.5600,-7.4600,-0.0273,-0.0055,0.0011,-43.7500,13.5000,45.0000,341.1250,40.6875,-175.7500,0
1776972021.874,9.7013,0.4046,0.8404,0.2779,0.1567,0.5670,-91.8000,-17.5500,-19.9500,9.9647,-0.5746,-0.3256,-0.2987,-0.1849,0.3685,8.8500,37.6500,-178.2000,6.3400,0.5600,-7.4600,-0.0011,0.0273,-0.0011,-43.7500,13.5000,45.0000,341.1250,40.6875,-175.7500,0
1776972021.879,9.7731,0.5363,0.8667,0.2044,0.0975,0.5526,-91.9500,-17.7000,-20.1000,9.9647,-0.5746,-0.3256,-0.2987,-0.1849,0.3685,8.8500,37.6500,-178.2000,6.3100,0.5400,-7.5700,-0.0011,0.0273,-0.0011,-43.7500,13.5000,45.0000,341.1250,40.6875,-175.7500,0
1776972021.888,9.7899,0.6105,0.9194,0.1074,0.0554,0.5388,-92.7000,-17.7000,-20.1000,10.0078,-0.4166,0.2586,-0.2132,-0.2340,0.3283,8.8500,37.6500,-178.2000,6.2800,0.5400,-7.5200,-0.0055,0.0491,-0.0022,-43.7500,13.5000,45.0000,341.1250,40.6875,-175.7500,0
1776972021.893,9.7899,0.6105,0.9194,0.1074,0.0554,0.5388,-92.7000,-17.7000,-20.1000,10.1011,-0.4932,0.6752,-0.1279,-0.2654,0.3056,8.8500,37.6500,-178.2000,6.2800,0.5400,-7.5200,-0.0175,0.0873,-0.0065,-43.7500,13.5000,45.0000,341.1250,40.7500,-175.7500,0
1776972021.899,9.7731,0.8571,0.9697,0.0144,0.0205,0.5145,-91.6500,-17.7000,-19.0500,10.1011,-0.4932,0.6752,-0.1279,-0.2654,0.3056,9.6000,35.7000,-177.4500,6.3200,0.5700,-7.4900,-0.0175,0.0873,-0.0065,-43.7500,13.5000,45.0000,341.1250,40.7500,-175.7500,0
1776972021.904,9.7731,0.8571,0.9697,0.0144,0.0205,0.5145,-91.6500,-17.7000,-19.0500,10.0844,-0.6943,0.8906,-0.0608,-0.3421,0.3035,9.6000,35.7000,-177.4500,6.3200,0.5700,-7.4900,-0.0175,0.0873,-0.0065,-43.0625,13.5000,43.0000,341.1250,40.8125,-175.7500,0
1776972021.909,9.7516,1.0894,1.0391,-0.0600,-0.0032,0.4962,-91.5000,-18.0000,-21.0000,10.0844,-0.6943,0.8906,-0.0352,-0.4533,0.3139,9.1500,36.4500,-179.2500,6.2700,0.7100,-7.4100,-0.0207,0.0764,-0.0055,-43.0625,13.5000,43.0000,341.1250,40.8125,-175.7500,0
1776972021.914,9.7516,1.0894,1.0391,-0.0600,-0.0032,0.4962,-91.5000,-18.0000,-21.0000,10.1849,-1.0032,0.9768,-0.0352,-0.4533,0.3139,9.1500,36.4500,-179.2500,6.2700,0.7100,-7.4100,-0.0207,0.0764,-0.0055,-43.0625,13.5000,43.0000,341.1250,40.8125,-175.7500,0
1776972021.919,9.6869,1.2617,1.1803,-0.1255,-0.0157,0.4834,-91.5000,-18.0000,-21.0000,10.1897,-1.2043,0.9026,-0.0384,-0.5617,0.3427,10.0500,35.5500,-179.5500,6.2700,0.6700,-7.4800,-0.0240,0.0578,0.0033,-43.0625,13.5000,43.0000,341.1250,40.8125,-175.7500,0
1776972021.924,9.7229,1.3264,1.3838,-0.1255,-0.0157,0.4834,-91.5000,-18.0000,-21.0000,10.1897,-1.2043,0.9026,-0.0384,-0.5617,0.3427,10.0500,35.5500,-179.5500,6.2700,0.6700,-7.4800,-0.0273,0.0513,0.0087,-43.0625,13.5000,43.0000,341.1250,40.8125,-175.6875,0
1776972021.929,9.7229,1.3264,1.3838,-0.1652,-0.0147,0.4647,-91.0500,-19.5000,-19.2000,10.0365,-1.3671,0.7949,-0.0248,-0.5772,0.3592,9.9000,35.7000,-178.9500,6.2700,0.6800,-7.4800,-0.0273,0.0513,0.0087,-43.0625,13.5000,43.0000,341.1250,40.8750,-175.6875,0
1776972021.938,9.6247,1.2761,1.4437,-0.1604,-0.0035,0.4463,-91.0500,-19.5000,-19.2000,9.9551,-1.5419,0.6776,-0.0149,-0.5793,0.3797,9.9000,35.7000,-178.9500,6.3100,0.7200,-7.4500,-0.0316,0.0447,0.0164,-43.0625,13.5000,43.0000,341.1250,40.8750,-175.6875,0
1776972021.945,9.6079,1.2450,1.6185,-0.1450,0.0024,0.4167,-91.0500,-19.5000,-19.2000,9.9551,-1.5419,0.6776,-0.0149,-0.5793,0.3797,9.9000,35.7000,-178.9500,6.3200,0.6300,-7.4800,-0.0305,0.0316,0.0229,-43.0625,13.5000,43.0000,341.1875,40.8750,-175.6875,0
1776972021.950,9.6079,1.2450,1.6185,-0.1450,0.0024,0.4167,-91.8000,-18.7500,-20.2500,9.9144,-1.5562,0.5219,-0.0392,-0.5702,0.3981,10.6500,35.4000,-180.3000,6.3200,0.6300,-7.4800,-0.0305,0.0316,0.0229,-43.0625,13.5000,43.0000,341.1875,40.8750,-175.6875,0
1776972021.955,9.4571,1.1995,1.7310,-0.1037,0.0075,0.3829,-91.8000,-18.7500,-20.2500,9.9144,-1.5562,0.5219,-0.0392,-0.5702,0.3981,10.6500,35.4000,-180.3000,6.3100,0.6500,-7.4900,-0.0175,0.0360,0.0316,-43.0625,13.0625,43.3750,341.1875,40.8750,-175.6875,0
1776972021.960,9.4571,1.1995,1.7310,-0.1037,0.0075,0.3829,-91.5000,-20.2500,-19.2000,9.8641,-1.5299,0.5100,-0.0485,-0.5878,0.4018,9.7500,34.8000,-180.1500,6.3100,0.6500,-7.4900,-0.0175,0.0360,0.0316,-43.0625,13.0625,43.3750,341.1875,40.8750,-175.6875,0
1776972021.965,9.4978,1.1492,1.8076,-0.0626,0.0160,0.3485,-91.5000,-20.2500,-19.2000,9.8641,-1.5299,0.5100,-0.0485,-0.5878,0.4018,9.7500,34.8000,-180.1500,6.3100,0.6500,-7.4900,0.0022,0.0567,0.0349,-43.0625,13.0625,43.3750,341.1875,40.9375,-175.6875,0
1776972021.969,9.4978,1.1492,1.8076,-0.0626,0.0160,0.3485,-90.9000,-18.1500,-20.1000,10.0221,-1.4269,0.2921,-0.0056,-0.6440,0.4106,10.5000,35.5500,-179.8500,6.3500,0.6400,-7.5000,0.0022,0.0567,0.0349,-43.0625,13.0625,43.3750,341.1875,40.9375,-175.6875,0
1776972021.974,9.5361,0.9625,1.8603,-0.0168,0.0192,0.3123,-90.9000,-18.1500,-20.1000,10.0221,-1.4269,0.2921,-0.0056,-0.6440,0.4106,10.5000,35.5500,-179.8500,6.3600,0.6500,-7.4900,0.0273,0.0927,0.0316,-43.0625,13.0625,43.3750,341.1875,40.9375,-175.6875,0
1776972021.979,9.5361,0.9625,1.8603,-0.0168,0.0192,0.3123,-90.3000,-19.9500,-18.4500,9.8378,-1.5203,0.4453,-0.0088,-0.6387,0.4167,9.3000,34.8000,-181.2000,6.3600,0.6500,-7.4900,0.0273,0.0927,0.0316,-43.0625,13.0625,43.3750,341.2500,41.0000,-175.7500,0
1776972021.988,9.4547,0.9385,1.7597,0.0312,0.0245,0.2982,-91.6500,-19.6500,-19.8000,9.7683,-1.4293,0.2179,0.0405,-0.6877,0.4245,10.3500,34.9500,-181.5000,6.2900,0.6600,-7.4200,0.0480,0.1211,0.0305,-43.0625,13.0625,43.3750,341.2500,41.0000,-175.7500,0
1776972021.994,9.4308,0.8356,1.6759,0.0909,0.0240,0.2910,-91.6500,-19.6500,-19.8000,9.7683,-1.4293,0.2179,0.0405,-0.6877,0.4245,10.3500,34.9500,-181.5000,6.2900,0.6600,-7.4200,0.0742,0.1560,0.0338,-43.0625,13.0625,43.3750,341.1875,41.1250,-175.7500,0
1776972021.999,9.4308,0.8356,1.6759,0.0909,0.0240,0.2910,-92.2500,-20.7000,-18.7500,9.6893,-1.3695,0.1963,0.0706,-0.7506,0.4327,10.3500,34.9500,-181.5000,6.2000,0.7100,-7.3900,0.0742,0.1560,0.0338,-43.0625,13.0625,43.3750,341.1875,41.1250,-175.7500,0
1776972022.004,9.3494,0.6632,1.5538,0.1103,0.0221,0.2859,-92.2500,-20.7000,-18.7500,9.6893,-1.3695,0.1963,0.0706,-0.7506,0.4327,10.3500,34.9500,-181.5000,6.2000,0.7100,-7.3900,0.0927,0.2062,0.0371,-42.6875,13.0625,43.8750,341.1875,41.1875,-175.8125,0
1776972022.009,9.3494,0.6632,1.5538,0.1103,0.0221,0.2859,-92.2500,-20.7000,-18.7500,9.7444,-1.6903,0.0096,0.0608,-0.8191,0.4437,10.8000,34.0500,-181.9500,6.2500,0.5400,-7.4000,0.0927,0.2062,0.0371,-42.6875,13.0625,43.8750,341.1875,41.1875,-175.8125,0
1776972022.014,9.3374,0.6800,1.5251,0.0994,0.0165,0.2902,-92.2500,-20.7000,-18.7500,9.7444,-1.6903,0.0096,0.0608,-0.8191,0.4437,10.8000,34.0500,-181.9500,6.2500,0.5400,-7.4000,0.0938,0.2323,0.0404,-42.6875,13.0625,43.8750,341.1875,41.3125,-175.8750,0
1776972022.019,9.3374,0.6800,1.5251,0.0994,0.0165,0.2902,-91.2000,-20.1000,-20.1000,9.7492,-1.8364,-0.3352,0.1071,-0.8934,0.4562,11.5500,32.5500,-181.9500,6.3100,0.6000,-7.3400,0.0938,0.2323,0.0404,-42.6875,13.0625,43.8750,341.1875,41.3125,-175.8750,0
1776972022.024,9.4451,0.5794,1.3575,0.0552,-0.0045,0.2939,-91.2000,-20.1000,-20.1000,9.7492,-1.8364,-0.3352,0.1071,-0.8934,0.4562,11.5500,32.5500,-181.9500,6.3100,0.6000,-7.3400,0.0884,0.2214,0.0513,-42.6875,13.0625,43.8750,341.1875,41.4375,-175.9375,0
1776972022.029,9.4451,0.5794,1.3575,0.0552,-0.0045,0.2939,-91.2000,-20.1000,-20.1000,9.7085,-1.8244,-0.3352,0.1553,-0.9334,0.4514,11.8500,32.5500,-182.4000,6.3600,0.5300,-7.3800,0.0884,0.2214,0.0513,-42.6875,13.0625,43.8750,341.1875,41.4375,-175.9375,0
1776972022.038,9.4260,0.5195,1.2330,0.0141,-0.0346,0.2976,-89.8500,-20.7000,-20.7000,9.5672,-1.5658,-0.3855,0.1183,-0.9470,0.4482,11.8500,33.0000,-183.0000,5.9600,0.6500,-7.3100,0.0676,0.2094,0.0611,-42.6875,13.0625,43.8750,341.2500,41.5625,-176.0000,0
1776972022.043,9.3925,0.4310,1.1708,-0.0117,-0.0618,0.2939,-89.8500,-20.7000,-20.7000,9.5672,-1.5658,-0.3855,0.1183,-0.9470,0.4482,11.8500,33.0000,-183.0000,5.9600,0.6500,-7.3100,0.0578,0.2509,0.0785,-42.6875,13.0625,43.8750,341.2500,41.6875,-176.0625,0
1776972022.050,9.3733,0.2682,1.0175,-0.0117,-0.0618,0.2939,-90.4500,-20.1000,-18.3000,9.5481,-1.7526,-0.8212,0.1223,-0.9326,0.4295,13.0500,32.2500,-184.5000,5.8700,0.5100,-7.3000,0.0578,0.2509,0.0785,-42.6875,13.0625,43.8750,341.2500,41.6875,-176.0625,0
1776972022.054,9.3733,0.2682,1.0175,-0.0165,-0.0805,0.2904,-90.4500,-20.1000,-18.3000,9.5385,-1.8340,-0.8523,0.1410,-0.9017,0.4189,13.0500,32.2500,-184.5000,5.8300,0.5800,-7.2400,0.0589,0.3174,0.1025,-43.3750,13.5000,42.6875,341.3125,41.8125,-176.1250,0
1776972022.059,9.3063,0.2131,0.8930,-0.0253,-0.0877,0.2801,-89.1000,-20.7000,-20.2500,9.5385,-1.8340,-0.8523,0.1410,-0.9017,0.4189,13.0500,32.2500,-184.5000,5.8300,0.5800,-7.2400,0.0589,0.3174,0.1025,-43.3750,13.5000,42.6875,341.3125,41.8125,-176.1250,0
1776972022.064,9.3063,0.2131,0.8930,-0.0253,-0.0877,0.2801,-89.1000,-20.7000,-20.2500,9.5433,-1.5299,-0.9553,0.2078,-0.8761,0.4133,13.0500,32.2500,-184.5000,5.8300,0.5800,-7.2400,0.0676,0.3862,0.1353,-43.3750,13.5000,42.6875,341.3750,42.0625,-176.2500,0
1776972022.069,9.3613,0.2753,0.8140,-0.0618,-0.0935,0.2758,-90.6000,-21.9000,-19.2000,9.5433,-1.5299,-0.9553,0.2078,-0.8761,0.4133,11.8500,30.0000,-185.2500,5.9600,0.4600,-7.2500,0.0676,0.3862,0.1353,-43.3750,13.5000,42.6875,341.3750,42.0625,-176.2500,0
1776972022.078,9.4140,0.3974,0.8811,-0.0618,-0.0935,0.2758,-89.8500,-21.9000,-19.2000,9.6103,-1.7023,-0.7015,0.2316,-0.8609,0.4207,11.5500,30.0000,-185.5500,6.1800,0.3600,-7.2600,0.0829,0.4734,0.1636,-43.3750,13.5000,42.6875,341.4375,42.3125,-176.3125,0
1776972022.082,9.4140,0.3974,0.8811,-0.1306,-0.1215,0.2766,-89.8500,-21.9000,-19.2000,9.6103,-1.7023,-0.7015,0.2316,-0.8609,0.4207,11.5500,30.0000,-185.5500,6.1800,0.3600,-7.2600,0.0829,0.4734,0.1636,-43.3750,13.5000,42.6875,341.5000,42.6875,-176.4375,0
1776972022.089,9.5289,0.5363,0.9840,-0.2033,-0.1415,0.2806,-90.4500,-20.8500,-20.1000,9.7995,-1.6185,-0.9170,0.1665,-0.9049,0.4495,11.5500,29.2500,-186.6000,6.0000,0.3500,-7.1300,0.0796,0.5803,0.1636,-43.3750,13.5000,42.6875,341.5000,42.6875,-176.4375,0
1776972022.097,9.6367,0.8571,1.1732,-0.2033,-0.1415,0.2806,-90.4500,-20.8500,-20.1000,9.8785,-1.6185,-0.9409,0.1982,-0.9108,0.4780,11.5500,29.2500,-186.3000,5.8000,0.4900,-7.1100,0.0556,0.6512,0.1669,-43.3750,13.5000,42.6875,341.5625,42.9375,-176.5625,0
1776972022.102,9.6367,0.8571,1.1732,-0.2614,-0.1692,0.2851,-90.4500,-20.8500,-20.1000,9.8785,-1.6185,-0.9409,0.1982,-0.9108,0.4780,11.5500,29.2500,-186.3000,5.8000,0.4900,-7.1100,0.0556,0.6512,0.1669,-43.3750,13.5000,42.6875,341.5625,42.9375,-176.5625,0
1776972022.107,9.4068,1.1612,1.2953,-0.2614,-0.1692,0.2851,-90.4500,-20.8500,-20.1000,10.0006,-2.1404,-0.4405,0.0384,-0.9585,0.5678,11.8500,28.8000,-187.6500,7.3600,-0.9100,-8.3300,0.0458,0.7538,0.1800,-44.5625,12.7500,43.0000,341.6250,43.3750,-176.6250,0
1776972022.112,9.4068,1.1612,1.2953,-0.2971,-0.1977,0.2665,-90.3000,-21.4500,-19.5000,10.0006,-2.1404,-0.4405,0.0384,-0.9585,0.5678,11.8500,28.8000,-187.6500,7.3600,-0.9100,-8.3300,0.0458,0.7538,0.1800,-44.5625,12.7500,43.0000,341.6250,43.3750,-176.6250,0
1776972022.117,9.4140,1.4030,1.3623,-0.2971,-0.1977,0.2665,-90.3000,-21.4500,-19.5000,9.9719,-1.8723,-0.3256,-0.0378,-1.0395,0.6326,11.8500,28.8000,-187.6500,6.6800,0.0600,-6.6900,0.0305,0.9087,0.1124,-44.5625,12.7500,43.0000,341.6875,43.8750,-176.6875,0
1776972022.122,9.4140,1.4030,1.3623,-0.2928,-0.1966,0.2358,-90.3000,-21.4500,-19.5000,9.9719,-1.8723,-0.3256,-0.0378,-1.0395,0.6326,11.8500,28.8000,-187.6500,6.6800,0.0600,-6.6900,0.0305,0.9087,0.1124,-44.5625,12.7500,43.0000,341.6875,44.3750,-176.6875,0
1776972022.129,9.5696,1.4533,1.4964,-0.2582,-0.1953,0.2001,-89.8500,-21.9000,-19.5000,9.8761,-1.8292,-0.1030,-0.0448,-1.0571,0.6664,12.6000,27.7500,-188.7000,6.2600,0.8700,-7.5500,0.0284,0.8508,0.0349,-44.5625,12.7500,43.0000,348.1250,44.8750,-176.7500,0
1776972022.139,9.7133,1.5658,1.7095,-0.2204,-0.1849,0.1593,-90.3000,-21.4500,-19.5000,10.1538,-2.0494,0.4334,-0.0682,-1.0515,0.7016,12.7500,27.4500,-189.6000,7.6800,-0.0100,-7.9400,0.0654,0.9239,0.0644,-44.5625,12.7500,43.0000,348.1250,44.8750,-176.7500,0
1776972022.149,9.5577,1.8076,2.1045,-0.1988,-0.1644,0.1287,-88.6500,-19.6500,-19.8000,10.6686,-2.4541,0.4812,-0.2036,-1.0533,0.7957,15.9000,27.7500,-189.1500,6.7300,0.8600,-6.8000,0.0404,0.9905,0.0513,-44.5625,12.7500,43.0000,348.0000,45.4375,-176.7500,0
1776972022.153,9.5577,1.8076,2.1045,-0.1988,-0.1644,0.1287,-88.6500,-19.6500,-19.8000,10.7500,-3.2968,0.4621,-0.3163,-1.1900,0.8849,15.9000,27.7500,-189.1500,6.7300,0.8600,-6.8000,0.0404,0.9905,0.0513,-44.5625,12.7500,43.0000,348.0000,45.4375,-176.7500,0
1776972022.159,9.8497,1.9010,1.9537,-0.1601,-0.1540,0.0877,-88.6500,-19.6500,-19.8000,10.7500,-3.2968,0.4621,-0.3163,-1.1900,0.8849,16.6500,26.2500,-189.7500,6.7600,0.2700,-7.6000,0.0262,0.9272,0.0382,-45.5000,14.2500,40.6875,347.8750,45.9375,-176.7500,0
1776972022.163,9.8497,1.9010,1.9537,-0.1601,-0.1540,0.0877,-90.3000,-22.2000,-19.9500,10.9774,-3.3543,0.2514,-0.3629,-1.3270,0.9606,17.7000,26.2500,-190.2000,6.7600,0.2700,-7.6000,0.0262,0.9272,0.0382,-45.5000,14.2500,40.6875,347.8750,45.9375,-176.7500,0
1776972022.168,10.1251,1.7478,1.7238,-0.1751,-0.1500,0.0317,-88.9500,-22.8000,-20.1000,10.9774,-3.3543,0.2514,-0.3629,-1.3270,0.9606,17.7000,26.2500,-190.2000,6.7500,0.6000,-7.3600,-0.0087,0.9261,0.0404,-45.5000,14.2500,40.6875,347.7500,46.4375,-176.7500,0
1776972022.173,10.1251,1.7478,1.7238,-0.1751,-0.1500,0.0317,-88.9500,-22.8000,-20.1000,11.3653,-3.0191,-0.5578,-0.4247,-1.3731,1.0067,17.7000,26.2500,-190.2000,6.7500,0.6000,-7.3600,-0.0415,0.9152,0.0698,-45.5000,14.2500,40.6875,347.7500,47.0000,-176.7500,0
1776972022.180,10.1083,1.5850,1.7789,-0.2025,-0.1535,-0.0064,-89.4000,-20.8500,-20.8500,11.3653,-3.0191,-0.5578,-0.4247,-1.3731,1.0067,17.7000,26.2500,-190.2000,7.1700,1.0400,-7.1300,-0.0415,0.9152,0.0698,-45.5000,14.2500,40.6875,347.6875,47.5000,-176.7500,0
1776972022.189,10.3621,1.5850,1.7693,-0.2595,-0.1631,-0.0570,-89.4000,-20.8500,-20.8500,11.6861,-3.0981,-1.2929,-0.5937,-1.4320,1.0320,20.2500,24.0000,-192.0000,7.0100,0.6400,-7.2700,-0.0578,0.9719,0.0851,-45.5000,14.2500,40.6875,347.6875,47.5000,-176.7500,0
1776972022.199,11.5903,1.3240,1.4341,-0.3262,-0.1929,-0.1649,-88.3500,-20.8500,-20.8500,12.3924,-2.5498,-1.9178,-0.7109,-1.5122,0.9955,22.8000,25.0500,-192.6000,6.6600,-0.2700,-7.2300,-0.0262,1.0417,0.0742,-45.5000,14.2500,40.6875,347.6250,48.0625,-176.7500,0
1776972022.204,12.4882,1.0942,1.4150,-0.3922,-0.3112,-0.2851,-88.3500,-20.7000,-19.9500,13.6254,-0.5938,-2.8970,-0.6912,-1.5050,0.8956,22.5000,24.7500,-192.3000,6.6600,-0.2700,-7.2300,-0.0262,1.0417,0.0742,-45.5000,14.2500,40.6875,347.6250,48.6875,-176.6875,0
1776972022.209,12.4882,1.0942,1.4150,-0.3922,-0.3112,-0.2851,-88.3500,-20.7000,-19.9500,13.6254,-0.5938,-2.8970,-0.8204,-1.4541,0.7373,22.5000,24.7500,-192.3000,6.7000,0.0500,-7.5300,-0.0720,1.0897,0.0698,-47.0000,13.8750,38.6875,347.6250,48.6875,-176.6875,0
1776972022.214,12.6893,1.1253,1.2522,-0.4903,-0.4612,-0.3589,-88.3500,-20.7000,-19.9500,13.9366,0.1604,-3.2944,-0.8204,-1.4541,0.7373,21.1500,24.9000,-193.5000,6.7000,0.0500,-7.5300,-0.0720,1.0897,0.0698,-47.0000,13.8750,38.6875,347.7500,49.3750,-176.5625,0
1776972022.219,12.6893,1.1253,1.2522,-0.4903,-0.4612,-0.3589,-88.3500,-20.7000,-19.9500,13.9965,0.6153,-3.6392,-1.0067,-1.4586,0.6467,21.1500,24.9000,-193.5000,6.7200,0.0000,-7.5500,-0.2313,1.2686,0.0742,-47.0000,13.8750,38.6875,347.7500,49.3750,-176.5625,0
1776972022.224,12.3517,1.2953,1.1372,-0.5854,-0.6014,-0.4453,-89.7000,-22.8000,-21.1500,13.9965,0.6153,-3.6392,-1.0067,-1.4586,0.6467,21.1500,24.9000,-193.5000,6.7200,0.0000,-7.5500,-0.2563,1.4006,0.0251,-47.0000,13.8750,38.6875,347.9375,50.1875,-176.3750,0
1776972022.230,12.3517,1.2953,1.1372,-0.5854,-0.6014,-0.4453,-89.4000,-22.0500,-19.3500,13.6039,0.1269,-2.9784,-1.2899,-1.7251,0.7104,21.1500,24.9000,-193.5000,6.9800,-0.7800,-7.6400,-0.2563,1.4006,0.0251,-47.0000,13.8750,38.6875,348.2500,51.1250,-176.1250,0
1776972022.239,11.8417,1.3503,0.7781,-0.6470,-0.7027,-0.5121,-87.7500,-22.0500,-19.3500,13.0915,-0.9361,-1.9992,-1.3520,-1.8914,0.7799,21.1500,24.9000,-193.5000,7.4900,-0.9600,-6.0200,-0.3011,1.7279,-0.0644,-47.0000,13.8750,38.6875,348.2500,51.1250,-176.1250,0
1776972022.249,11.1929,1.2019,0.1389,-0.6648,-0.7999,-0.5918,-87.7500,-21.6000,-20.1000,12.4498,-1.4006,-0.9313,-1.4370,-2.0600,0.8537,20.4000,21.1500,-198.9000,7.1800,-1.6800,-5.6400,-0.3665,1.9504,-0.1134,-47.0000,13.8750,38.6875,348.6250,52.1875,-175.7500,0
1776972022.254,11.2312,0.6919,-0.3376,-0.7304,-0.8199,-0.6672,-88.9500,-22.0500,-20.1000,12.4498,-1.4006,-0.9313,-1.4370,-2.0600,0.8537,20.7000,21.7500,-201.9000,7.1800,-1.6800,-5.6400,-0.3665,1.9504,-0.1134,-47.0000,13.8750,38.6875,348.6250,52.1875,-175.7500,0
1776972022.259,11.2312,0.6919,-0.3376,-0.7304,-0.8199,-0.6672,-88.9500,-22.0500,-20.1000,11.7460,-0.6895,-0.8068,-1.4685,-2.1280,0.9451,20.7000,21.7500,-201.9000,7.8500,1.3800,-5.5200,-0.6021,2.3704,-0.1898,-49.1875,14.2500,38.0000,349.2500,53.5000,-175.1250,0
1776972022.264,11.1977,0.1053,-0.7614,-0.8055,-0.8719,-0.7136,-89.4000,-20.1000,-20.1000,11.7460,-0.6895,-0.8068,-1.4685,-2.1280,0.9451,20.1000,20.7000,-203.5500,7.8500,1.3800,-5.5200,-0.6021,2.3704,-0.1898,-49.1875,14.2500,38.0000,349.2500,53.5000,-175.1250,0
1776972022.269,11.1977,0.1053,-0.7614,-0.8055,-0.8719,-0.7136,-89.4000,-20.1000,-20.1000,11.0852,0.3974,-1.6879,-1.5492,-2.1008,0.9960,20.1000,20.7000,-203.5500,7.4500,-0.9300,-5.5900,-1.1508,2.5100,0.0076,-49.1875,14.2500,38.0000,350.3125,54.8750,-174.3125,0
1776972022.274,10.2137,-0.6177,-1.7621,-0.8162,-1.0512,-0.8087,-88.8000,-20.2500,-21.0000,11.0852,0.3974,-1.6879,-1.5492,-2.1008,0.9960,21.9000,19.2000,-205.6500,7.4500,-0.9300,-5.5900,-1.7933,2.6660,0.1833,-49.1875,14.2500,38.0000,351.8750,56.3750,-173.1875,0
1776972022.280,9.5888,-1.1971,-2.5809,-0.8162,-1.0512,-0.8087,-88.8000,-20.2500,-21.0000,10.4148,0.3735,-1.4389,-1.6723,-2.0984,1.0664,21.9000,19.2000,-205.6500,7.8500,0.6000,-8.5200,-1.7933,2.6660,0.1833,-49.1875,14.2500,38.0000,353.6250,58.1875,-172.0000,0
1776972022.289,9.0453,-1.2737,-2.3631,-0.8410,-1.1938,-0.9731,-88.8000,-20.2500,-21.0000,9.6606,0.5531,-0.7446,-1.5063,-2.0744,1.1575,21.9000,19.2000,-205.6500,9.6500,4.9700,-8.6300,-2.2744,3.2267,0.4909,-49.1875,14.2500,38.0000,353.6250,58.1875,-172.0000,0
1776972022.299,8.5808,-0.6105,-1.5538,-0.8394,-1.2217,-1.1663,-89.4000,-19.6500,-23.1000,8.6814,0.3687,-1.1732,-1.2015,-1.9684,1.1826,21.9000,19.2000,-205.6500,9.7400,9.0100,-6.1200,-1.1203,3.2649,1.2905,-49.1875,14.2500,38.0000,353.6875,60.0625,-172.1875,0
1776972022.304,8.5808,-0.6105,-1.5538,-0.6899,-1.1794,-1.3291,-89.4000,-19.6500,-23.1000,8.6814,0.3687,-1.1732,-1.2015,-1.9684,1.1826,24.7500,24.4500,-210.3000,9.7400,9.0100,-6.1200,-1.1203,3.2649,1.2905,-49.1875,14.2500,38.0000,352.5000,61.5625,-173.8125,0
1776972022.309,8.1451,-0.2586,-1.7789,-0.6899,-1.1794,-1.3291,-89.4000,-19.6500,-23.1000,9.1195,-1.1037,-1.8938,-1.0515,-1.8045,1.1914,24.7500,24.4500,-210.3000,8.9100,2.7500,-6.8800,-0.0469,2.4566,1.9733,-52.5000,13.0625,32.5000,352.5000,61.5625,-173.8125,0
1776972022.314,8.1451,-0.2586,-1.7789,-0.6893,-1.1231,-1.4517,-88.2000,-16.5000,-22.3500,9.1195,-1.1037,-1.8938,-1.0515,-1.8045,1.1914,25.2000,24.1500,-211.0500,8.9100,2.7500,-6.8800,-0.0469,2.4566,1.9733,-52.5000,13.0625,32.5000,352.5000,61.5625,-173.8125,0
1776972022.319,7.7835,-0.1269,-1.9297,-0.7005,-1.0778,-1.5228,-88.2000,-16.5000,-22.3500,9.3063,-2.4876,-2.3655,-0.9126,-1.8319,1.2574,25.2000,24.1500,-211.0500,8.9700,0.0400,-6.1200,1.0025,3.3183,2.0049,-52.5000,13.0625,32.5000,350.3125,63.5000,-176.1875,0
1776972022.325,7.7835,-0.1269,-1.9297,-0.7005,-1.0778,-1.5228,-88.6500,-16.2000,-25.3500,9.1746,-2.9113,-2.6025,-0.8351,-2.1194,1.4125,25.6500,23.5500,-211.9500,8.9700,0.0400,-6.1200,0.7505,4.2444,2.1206,-52.5000,13.0625,32.5000,348.4375,65.8750,-178.8750,0
1776972022.330,7.3789,0.2658,-1.2737,-0.5529,-0.9761,-1.5500,-89.7000,-15.7500,-26.1000,9.1746,-2.9113,-2.6025,-0.8351,-2.1194,1.4125,25.6500,23.5500,-211.9500,11.8800,2.4900,-6.9200,0.7505,4.2444,2.1206,-52.5000,13.0625,32.5000,346.8125,68.3750,177.9375,0
1776972022.339,7.5106,0.7039,-0.8188,-0.3491,-0.8236,-1.5969,-89.7000,-15.7500,-26.1000,7.7069,-3.7661,-3.7924,-0.8239,-2.2231,1.4397,28.9500,22.0500,-212.2500,13.3800,3.6600,-6.1500,0.5138,4.4484,2.1184,-52.5000,13.0625,32.5000,346.8125,68.3750,177.9375,0
1776972022.349,8.0852,1.5921,-0.7159,-0.2305,-0.7416,-1.6886,-89.1000,-14.4000,-24.7500,7.4675,-4.4293,-5.4133,-1.0693,-2.1903,1.3608,28.9500,22.0500,-212.2500,14.3300,4.0000,-7.5500,0.3240,4.3982,2.2406,-52.5000,13.0625,32.5000,345.4375,70.6875,174.0000,0
1776972022.354,8.0852,1.5921,-0.7159,-0.2305,-0.7416,-1.6886,-89.5500,-14.4000,-27.0000,7.2257,-5.3965,-6.1387,-1.0984,-2.2596,1.3137,31.3500,16.2000,-210.3000,14.3300,4.0000,-7.5500,0.3240,4.3982,2.2406,-52.5000,13.0625,32.5000,344.2500,72.7500,169.1250,0
1776972022.359,9.0190,1.5945,-0.3926,-0.0418,-0.6544,-1.7507,-89.5500,-14.4000,-27.0000,7.2257,-5.3965,-6.1387,-1.0984,-2.2596,1.3137,31.3500,16.2000,-210.3000,17.2300,5.5500,-8.8500,0.0818,4.1059,2.2984,-55.7500,15.0000,24.1875,344.2500,72.7500,169.1250,0
1776972022.364,9.0190,1.5945,-0.3926,-0.0418,-0.6544,-1.7507,-88.9500,-11.8500,-26.1000,8.2791,-6.1699,-9.2823,-0.4850,-2.2210,1.2886,33.7500,15.7500,-207.6000,17.2300,5.5500,-8.8500,0.0818,4.1059,2.2984,-55.7500,15.0000,24.1875,344.2500,72.7500,169.1250,0
1776972022.369,10.4267,0.3831,-0.4357,0.0882,-0.5740,-1.7453,-88.9500,-11.8500,-26.1000,8.2791,-6.1699,-9.2823,-0.4850,-2.2210,1.2886,33.7500,15.7500,-207.6000,18.0800,3.5500,-8.9600,-0.0720,3.4830,2.4075,-55.7500,15.0000,24.1875,343.1250,74.3125,163.1875,0
1776972022.374,10.4267,0.3831,-0.4357,0.0882,-0.5740,-1.7453,-88.9500,-11.8500,-26.1000,6.7181,-6.6679,-6.2369,-0.5860,-2.0161,1.1969,35.8500,10.8000,-205.8000,18.0800,3.5500,-8.9600,-0.0491,2.6791,2.5885,-55.7500,15.0000,24.1875,341.8750,75.2500,156.3125,0
1776972022.380,11.2073,0.6345,-0.5076,0.2140,-0.4767,-1.6936,-88.9500,-11.8500,-26.1000,6.7181,-6.6679,-6.2369,-0.5860,-2.0161,1.1969,32.8500,5.7000,-201.7500,12.7200,2.9600,-7.8700,-0.0491,2.6791,2.5885,-55.7500,15.0000,24.1875,340.6875,75.6250,149.3125,0
1776972022.390,11.8130,0.5818,-0.0024,0.2867,-0.3469,-1.6110,-88.8000,-12.0000,-25.5000,5.4085,-6.8905,-6.3518,-0.6075,-1.7531,1.0941,31.2000,-3.3000,-196.2000,9.5400,2.0800,-9.4600,-0.1069,2.1369,2.6387,-55.7500,15.0000,24.1875,340.6875,75.6250,149.3125,0
1776972022.399,11.9973,0.5052,0.4932,0.2846,-0.2883,-1.5375,-88.8000,-12.0000,-25.5000,4.1707,-6.4931,-6.4524,-0.7799,-1.7099,0.8892,31.2000,-3.3000,-196.2000,5.6700,1.7700,-13.5300,-0.3120,1.3854,2.5176,-55.7500,15.0000,24.1875,339.6250,75.5000,143.3125,0
1776972022.404,12.1147,0.8499,0.6512,0.2846,-0.2883,-1.5375,-87.6000,-10.0500,-27.7500,1.6400,-7.2640,-6.6846,-0.8271,-1.5295,0.7285,31.2000,-3.3000,-196.2000,5.6700,1.7700,-13.5300,-0.3120,1.3854,2.5176,-55.7500,15.0000,24.1875,339.6250,75.5000,143.3125,0
1776972022.409,12.1147,0.8499,0.6512,0.2995,-0.2406,-1.4528,-87.6000,-10.0500,-27.7500,1.6400,-7.2640,-6.6846,-0.8271,-1.5295,0.7285,31.2000,-3.3000,-196.2000,17.9000,1.2100,-16.6900,-0.4091,0.6512,2.3889,-57.2500,20.7500,14.7500,338.6250,74.9375,138.7500,0
1776972022.414,12.2535,0.2131,0.4908,0.2995,-0.2406,-1.4528,-89.1000,-9.0000,-27.3000,1.3336,-6.2297,-5.6934,-0.8188,-0.8458,0.2806,28.0500,-19.6500,-181.5000,17.9000,1.2100,-16.6900,-0.4091,0.6512,2.3889,-57.2500,20.7500,14.7500,338.6250,74.9375,138.7500,0
1776972022.419,12.2535,0.2131,0.4908,0.3930,-0.2254,-1.3837,-89.1000,-9.0000,-27.3000,1.3336,-6.2297,-5.6934,-0.8188,-0.8458,0.2806,23.2500,-26.2500,-181.5000,9.8300,5.4600,-15.7300,-0.2356,0.2007,2.0464,-57.2500,20.7500,14.7500,337.6875,74.2500,135.5625,0
1776972022.426,12.1242,0.0000,0.3496,0.4194,-0.1585,-1.3155,-89.5500,-7.3500,-28.0500,2.0399,-3.1675,-5.0781,-0.8031,-0.8636,0.0930,23.2500,-26.2500,-171.0000,4.4600,5.2800,-11.3100,-0.7538,-1.4606,1.7835,-57.2500,20.7500,14.7500,337.0000,72.9375,135.5000,0
1776972022.431,12.1242,0.0000,0.3496,0.4194,-0.1585,-1.3155,-89.5500,-7.3500,-28.0500,2.0399,-3.1675,-5.0781,-0.8031,-0.8636,0.0930,20.7000,-31.5000,-162.4500,4.4600,5.2800,-11.3100,-0.7538,-1.4606,1.7835,-57.2500,20.7500,14.7500,336.1875,71.5000,136.1875,0
1776972022.440,11.6286,0.7949,0.2131,0.4786,-0.0730,-1.2449,-88.3500,-8.1000,-27.7500,0.9601,-1.5778,-4.7669,-0.1498,-0.2491,-0.1156,17.4000,-36.3000,-154.5000,0.9300,4.9200,-6.3200,-0.6981,-2.0279,1.7639,-57.2500,20.7500,14.7500,336.1875,71.5000,136.1875,0
1776972022.450,10.8409,1.1947,0.4573,0.6121,0.0418,-1.1991,-88.6500,-7.9500,-27.1500,-0.3615,0.4836,-6.4955,0.6179,-0.2062,-0.2822,16.9500,-42.7500,-150.6000,0.6500,4.4700,-5.7700,-0.4025,-2.2057,1.7857,-57.2500,20.7500,14.7500,335.1250,69.9375,136.7500,0
1776972022.454,10.2065,1.8340,0.3615,0.7280,0.1692,-1.1413,-88.0500,-6.9000,-27.3000,-0.0215,0.6512,-7.2185,1.1535,0.8636,-0.5748,16.9500,-42.7500,-150.6000,0.6500,4.4700,-5.7700,-0.4025,-2.2057,1.7857,-57.2500,20.7500,14.7500,333.8750,68.3750,137.1875,0
1776972022.460,10.2065,1.8340,0.3615,0.7280,0.1692,-1.1413,-88.0500,-6.9000,-27.3000,-0.0215,0.6512,-7.2185,1.1535,0.8636,-0.5748,16.9500,-42.7500,-150.6000,1.2600,4.5100,-5.9500,-0.1767,-2.2275,1.7202,-52.1875,23.7500,12.8750,333.8750,68.3750,137.1875,0
1776972022.464,9.6750,2.1404,0.2514,0.8729,0.3059,-1.0776,-88.0500,-6.9000,-27.3000,2.5498,0.5650,-6.8235,1.5292,1.4101,-0.9563,16.9500,-42.7500,-150.6000,1.2600,4.5100,-5.9500,-0.1767,-2.2275,1.7202,-52.1875,23.7500,12.8750,332.7500,66.9375,137.8750,0
1776972022.469,9.6750,2.1404,0.2514,0.8729,0.3059,-1.0776,-88.0500,-6.9000,-27.3000,2.5498,0.5650,-6.8235,1.5292,1.4101,-0.9563,16.2000,-47.5500,-148.2000,1.7100,4.8700,-5.9200,-0.1614,-2.1893,1.4552,-52.1875,23.7500,12.8750,332.7500,66.9375,137.8750,0
1776972022.474,9.6750,2.4038,0.1365,1.0877,0.4551,-1.0285,-88.3500,-4.9500,-26.5500,3.2992,-1.6640,-5.2074,1.5066,1.7626,-1.2068,16.2000,-47.5500,-148.2000,1.7100,4.8700,-5.9200,-0.2051,-2.2198,1.0636,-52.1875,23.7500,12.8750,331.8750,65.6250,138.8125,0
1776972022.480,9.6750,2.4038,0.1365,1.0877,0.4551,-1.0285,-88.3500,-4.9500,-26.5500,4.9943,-2.4421,-4.2880,1.2508,1.7885,-1.3696,12.4500,-46.2000,-146.8500,2.4300,5.9200,-5.8300,-0.2051,-2.2198,1.0636,-52.1875,23.7500,12.8750,331.1875,64.5000,140.0625,0
1776972022.490,9.3925,1.9513,0.0982,1.3582,0.5689,-1.0011,-88.3500,-4.9500,-26.5500,5.1547,-2.9736,-3.8738,1.2063,1.3227,-1.5242,11.4000,-41.4000,-147.3000,3.5400,6.2700,-5.9000,-0.1669,-2.1588,0.5934,-52.1875,23.7500,12.8750,331.1875,64.5000,140.0625,0
1776972022.500,9.5409,1.7095,-0.0048,1.6321,0.6257,-0.9872,-88.0500,-5.8500,-24.7500,4.8794,-3.3471,-4.3144,1.3582,1.1639,-1.6563,8.4000,-38.7000,-145.0500,4.2900,6.5600,-5.8300,-0.0545,-2.2100,0.0131,-52.1875,23.7500,12.8750,330.6875,63.5000,141.6250,0
1776972022.505,9.5648,1.5897,-0.0766,1.8183,0.6704,-0.9822,-88.8000,-4.6500,-25.5000,4.8794,-3.3471,-4.3144,1.3582,1.1639,-1.6563,8.4000,-38.7000,-145.0500,4.2900,6.5600,-5.8300,-0.0545,-2.2100,0.0131,-52.1875,23.7500,12.8750,330.6875,63.5000,141.6250,0
1776972022.510,9.5648,1.5897,-0.0766,1.8183,0.6704,-0.9822,-88.8000,-4.6500,-25.5000,4.9081,-3.2370,-4.9368,1.7488,1.2910,-1.8063,8.4000,-33.1500,-146.1000,4.0400,6.0200,-5.0400,0.0916,-2.3202,-0.6676,-43.5000,25.5625,19.2500,330.4375,62.7500,143.7500,0
1776972022.515,9.3829,1.5610,0.0575,1.9004,0.7027,-0.9790,-88.8000,-6.1500,-24.0000,4.9081,-3.2370,-4.9368,1.7488,1.2910,-1.8063,8.4000,-33.1500,-146.1000,4.0400,6.0200,-5.0400,0.0916,-2.3202,-0.6676,-43.5000,25.5625,19.2500,330.4375,62.7500,143.7500,0
1776972022.520,9.2081,1.5467,0.1077,1.9004,0.7027,-0.9790,-88.8000,-6.1500,-24.0000,5.7700,-2.0494,-5.2241,2.0773,1.3861,-1.9881,8.4000,-33.1500,-146.1000,4.2600,4.9700,-4.9900,0.3371,-2.3671,-1.3810,-43.5000,25.5625,19.2500,330.5000,61.6250,148.8750,0
1776972022.530,8.9376,1.5490,0.3448,1.8847,0.7210,-0.9779,-89.5500,-5.8500,-24.0000,6.6080,-1.0678,-5.2816,2.0976,1.2548,-2.1719,7.5000,-34.0500,-143.8500,5.1800,3.7800,-5.4100,0.5705,-2.2482,-2.0202,-43.5000,25.5625,19.2500,330.5000,61.6250,148.8750,0
1776972022.540,8.8897,1.5682,0.5004,1.7914,0.7376,-1.0019,-87.0000,-5.5500,-22.3500,6.9719,-0.9768,-4.7549,2.1269,1.2364,-2.3446,8.4000,-33.4500,-142.6500,6.8600,1.6600,-5.9100,0.6763,-2.1260,-2.5395,-43.5000,25.5625,19.2500,330.8750,61.3125,151.8125,0
1776972022.549,9.0692,1.6400,0.4405,1.6806,0.7461,-1.0240,-88.8000,-5.4000,-22.2000,7.3406,-1.6831,-4.4748,2.2036,1.3464,-2.5207,7.3500,-34.6500,-143.2500,7.3100,0.9900,-5.9600,0.7254,-2.0857,-2.8722,-43.5000,25.5625,19.2500,331.4375,61.0000,155.0000,0
1776972022.554,9.0692,1.6400,0.4405,1.5807,0.7189,-1.0443,-88.8000,-5.4000,-22.2000,7.3406,-1.6831,-4.4748,2.2036,1.3464,-2.5207,7.3500,-34.6500,-143.2500,7.3100,0.9900,-5.9600,0.7254,-2.0857,-2.8722,-43.5000,25.5625,19.2500,331.4375,61.0000,155.0000,0
1776972022.558,9.3254,1.5897,0.3208,1.5807,0.7189,-1.0443,-88.8000,-5.4000,-22.2000,7.5561,-2.6049,-4.3981,2.3012,1.4277,-2.6422,6.9000,-34.8000,-142.0500,7.6900,0.4300,-6.0200,0.7767,-2.0813,-2.9878,-37.5000,22.8750,20.7500,332.0000,60.5625,158.0625,0
1776972022.563,9.3254,1.5897,0.3208,1.4911,0.6499,-1.0653,-90.3000,-3.4500,-21.0000,7.5561,-2.6049,-4.3981,2.3012,1.4277,-2.6422,6.9000,-34.8000,-142.0500,7.6900,0.4300,-6.0200,0.7767,-2.0813,-2.9878,-37.5000,22.8750,20.7500,332.0000,60.5625,158.0625,0
1776972022.568,9.4715,1.6065,0.2370,1.4911,0.6499,-1.0653,-90.3000,-3.4500,-21.0000,7.8697,-3.5291,-4.0630,2.3510,1.4333,-2.6732,4.8000,-36.1500,-141.9000,7.9000,0.1100,-5.8900,0.8498,-2.0857,-2.9289,-37.5000,22.8750,20.7500,332.5000,60.0625,161.0000,0
1776972022.573,9.4715,1.6065,0.2370,1.4464,0.5929,-1.0920,-90.3000,-3.4500,-21.0000,7.8697,-3.5291,-4.0630,2.3510,1.4333,-2.6732,4.8000,-36.1500,-141.9000,7.9000,0.1100,-5.8900,0.8498,-2.0857,-2.9289,-37.5000,22.8750,20.7500,332.8125,59.4375,163.5625,0
1776972022.580,9.4451,1.4916,0.0335,1.4029,0.5537,-1.0922,-90.3000,-3.4500,-21.0000,8.1355,-4.3958,-3.9313,2.2924,1.3947,-2.6444,4.8000,-36.1500,-141.9000,9.0800,-0.0400,-6.6200,0.9501,-2.0911,-2.7751,-37.5000,22.8750,20.7500,333.0000,58.6875,165.8750,0
1776972022.590,9.4619,1.4102,-0.0862,1.3741,0.5335,-1.0698,-88.6500,-3.3000,-20.8500,8.3893,-5.1906,-4.0893,2.2028,1.3656,-2.6119,6.1500,-36.7500,-139.6500,10.0700,0.1600,-7.3600,1.0123,-2.0780,-2.6071,-37.5000,22.8750,20.7500,333.0000,58.6875,165.8750,0
1776972022.600,9.4523,1.4581,-0.2227,1.3664,0.5263,-1.0235,-89.8500,-1.5000,-21.4500,8.6119,-5.6623,-4.2713,2.1130,1.3888,-2.6204,3.6000,-37.8000,-138.1500,10.6400,0.3900,-7.8200,1.0167,-2.1249,-2.4751,-37.5000,22.8750,20.7500,333.0625,57.8750,167.8750,0
1776972022.605,9.4523,1.4581,-0.2227,1.3664,0.5263,-1.0235,-88.9500,-1.3500,-20.1000,8.6119,-5.6623,-4.2713,2.1130,1.3888,-2.6204,3.6000,-37.8000,-138.1500,10.6400,0.3900,-7.8200,1.0167,-2.1249,-2.4751,-37.5000,22.8750,20.7500,333.1250,56.8750,169.7500,0
1776972022.610,9.5337,1.6233,-0.3112,1.3494,0.5020,-0.9518,-88.9500,-1.3500,-20.1000,8.7963,-5.7174,-4.4173,2.0374,1.4501,-2.6489,3.7500,-37.9500,-139.3500,11.0200,0.7800,-7.7500,0.9948,-2.2526,-2.3736,-34.1875,18.6875,21.5625,333.1250,56.8750,169.7500,0
1776972022.615,9.5337,1.6233,-0.3112,1.3494,0.5020,-0.9518,-88.9500,-1.6500,-21.9000,8.7963,-5.7174,-4.4173,2.0374,1.4501,-2.6489,3.7500,-37.9500,-139.3500,11.0200,0.7800,-7.7500,0.9948,-2.2526,-2.3736,-34.1875,18.6875,21.5625,333.1875,55.8125,171.4375,0
1776972022.620,9.8258,2.0255,-0.3855,1.3789,0.4764,-0.8831,-88.9500,-1.6500,-21.9000,8.8202,-5.4492,-4.4173,1.9068,1.5231,-2.6947,2.2500,-37.2000,-136.5000,11.1700,0.9700,-7.6400,0.9610,-2.3813,-2.2853,-34.1875,18.6875,21.5625,333.1875,55.8125,171.4375,0
1776972022.628,9.7707,2.0925,-0.4717,1.4173,0.4450,-0.8287,-89.1000,0.0000,-20.2500,8.7364,-5.0350,-4.2641,1.7051,1.6193,-2.7243,2.4000,-37.5000,-135.3000,11.4500,1.2700,-7.5500,0.8999,-2.4740,-2.2078,-34.1875,18.6875,21.5625,333.1875,54.6250,172.9375,0
1776972022.633,9.7707,2.0925,-0.4717,1.4173,0.4450,-0.8287,-90.1500,36.7500,-20.2500,8.7364,-5.0350,-4.2641,1.7051,1.6193,-2.7243,2.4000,-37.5000,-135.3000,11.4500,1.2700,-7.5500,0.8999,-2.4740,-2.2078,-34.1875,18.6875,21.5625,333.2500,53.3125,174.3125,0
1776972022.640,9.6271,2.2817,-0.5435,1.4530,0.4306,-0.7717,-90.1500,-1.6500,-20.5500,8.6550,-4.6902,-4.1707,1.5068,1.7229,-2.7456,2.4000,-37.5000,-135.3000,11.6900,1.9800,-7.2500,0.8312,-2.5504,-2.1402,-34.1875,18.6875,21.5625,333.3750,52.0000,175.5625,0
1776972022.650,9.5409,2.3535,-0.7398,1.4658,0.4234,-0.7115,-90.1500,-1.6500,-20.5500,8.6598,-4.2880,-4.0582,1.3646,1.8085,-2.7515,2.7000,-36.1500,-134.1000,11.5000,2.2600,-6.9300,0.7723,-2.6213,-2.0922,-34.1875,18.6875,21.5625,333.3750,52.0000,175.5625,0
1776972022.655,9.4140,2.4684,-1.0056,1.4890,0.3869,-0.6734,-89.1000,1.0500,-20.2500,8.8035,-3.9456,-3.7469,1.2375,1.8879,-2.7344,-0.4500,-36.1500,-133.6500,11.5000,2.2600,-6.9300,0.7723,-2.6213,-2.0922,-34.1875,18.6875,21.5625,333.3750,52.0000,175.5625,0
1776972022.660,9.4140,2.4684,-1.0056,1.4890,0.3869,-0.6734,-89.1000,1.0500,-20.2500,8.8035,-3.9456,-3.7469,1.2375,1.8879,-2.7344,-0.4500,-36.1500,-133.6500,11.2300,2.4600,-6.5700,0.7429,-2.6736,-2.0573,-28.0625,13.5625,18.7500,333.5000,50.5625,176.6875,0
1776972022.665,9.1387,2.2577,-1.0582,1.4733,0.3861,-0.6624,-89.1000,1.0500,-20.2500,8.7317,-3.7445,-3.6464,1.1695,1.9721,-2.6620,-2.4000,-34.0500,-132.4500,11.2300,2.4600,-6.5700,0.7429,-2.6736,-2.0573,-28.0625,13.5625,18.7500,333.5000,50.5625,176.6875,0
1776972022.670,9.1387,2.2577,-1.0582,1.4733,0.3861,-0.6624,-89.1000,1.0500,-20.2500,8.7317,-3.7445,-3.6464,1.1695,1.9721,-2.6620,-2.4000,-34.0500,-132.4500,11.0200,2.6200,-6.3600,0.7199,-2.6725,-2.0344,-28.0625,13.5625,18.7500,333.6250,49.1250,177.7500,0
1776972022.675,9.3087,2.0111,-1.2498,1.4493,0.3856,-0.6177,-90.1500,1.3500,-20.5500,8.7604,-3.3902,-3.5985,1.1008,2.0382,-2.5836,-2.1000,-34.0500,-130.6500,11.0200,2.6200,-6.3600,0.6970,-2.6344,-2.0257,-28.0625,13.5625,18.7500,333.8125,47.6875,178.6250,0
1776972022.681,9.3087,2.0111,-1.2498,1.4493,0.3856,-0.6177,-90.1500,1.3500,-20.5500,8.7604,-3.3902,-3.5985,1.1008,2.0382,-2.5836,-2.1000,-34.0500,-130.6500,10.0100,2.9100,-5.5800,0.6970,-2.6344,-2.0257,-28.0625,13.5625,18.7500,334.0000,46.3125,179.5000,0
1776972022.690,9.3637,1.9872,-1.3455,1.4040,0.3293,-0.5886,-88.9500,1.6500,-19.3500,8.7412,-3.0646,-3.4955,1.0483,2.1027,-2.5189,-2.1000,-34.0500,-130.6500,9.2100,2.9700,-5.1400,0.6883,-2.5482,-1.9984,-28.0625,13.5625,18.7500,334.0000,46.3125,179.5000,0
1776972022.700,9.1506,1.9944,-1.3240,1.3195,0.2971,-0.5380,-88.6500,1.3500,-18.6000,8.7317,-3.0023,-3.2441,1.0200,2.1773,-2.4821,-2.1000,-34.0500,-130.6500,8.9100,2.9800,-5.1200,0.7232,-2.3780,-1.9308,-28.0625,13.5625,18.7500,334.1250,45.0000,-179.7500,0
1776972022.705,8.9926,1.6400,-1.3192,1.2364,0.2707,-0.4826,-91.5000,1.9500,-19.5000,8.6311,-2.7988,-3.0406,0.9622,2.2665,-2.4349,-5.2500,-31.6500,-130.5000,8.9100,2.9800,-5.1200,0.7232,-2.3780,-1.9308,-28.0625,13.5625,18.7500,332.5000,43.8125,-179.1875,0
1776972022.710,8.9926,1.6400,-1.3192,1.2364,0.2707,-0.4826,-91.5000,1.9500,-19.5000,8.6311,-2.7988,-3.0406,0.9622,2.2665,-2.4349,-5.2500,-31.6500,-130.5000,9.9600,2.9100,-6.5600,0.7701,-2.1468,-1.8348,-27.0000,13.2500,13.5000,332.5000,43.8125,-179.1875,0
1776972022.715,8.7604,1.5443,-1.1923,1.1397,0.2590,-0.4234,-88.8000,1.9500,-19.5000,8.8849,-3.0526,-2.7677,0.9073,2.3347,-2.3779,-5.4000,-31.0500,-127.0500,9.9600,2.9100,-6.5600,0.7701,-2.1468,-1.8348,-27.0000,13.2500,13.5000,331.3750,42.6875,-178.7500,0
1776972022.720,8.7604,1.5443,-1.1923,1.1397,0.2590,-0.4234,-88.8000,1.9500,-19.5000,8.8849,-3.0526,-2.7677,0.9073,2.3347,-2.3779,-5.4000,-31.0500,-127.0500,10.6200,2.6700,-7.4000,0.7723,-1.9548,-1.7530,-27.0000,13.2500,13.5000,331.3750,42.6875,-178.7500,0
1776972022.730,8.5162,1.3216,-1.2067,1.0456,0.2289,-0.3645,-89.4000,1.3500,-17.8500,9.1770,-3.2489,-2.6815,0.8884,2.3915,-2.2868,-6.9000,-30.0000,-127.8000,11.3200,2.4600,-8.2000,0.6709,-1.8697,-1.7333,-27.0000,13.2500,13.5000,330.2500,41.6250,-178.2500,0
1776972022.737,8.4874,1.4940,-1.1133,0.9340,0.2022,-0.3027,-89.4000,1.3500,-17.8500,9.5529,-3.2082,-2.5235,0.8466,2.3995,-2.1839,-7.8000,-30.1500,-126.1500,11.3600,2.4100,-8.4900,0.4778,-1.8740,-1.7846,-27.0000,13.2500,13.5000,329.1875,40.5625,-177.6875,0
1776972022.742,8.3414,1.5730,-1.0870,0.8188,0.1812,-0.2499,-89.4000,1.3500,-17.8500,9.8234,-3.0311,-2.1907,0.8023,2.3736,-2.1080,-7.8000,-30.1500,-126.1500,11.3600,2.4100,-8.4900,0.4778,-1.8740,-1.7846,-27.0000,13.2500,13.5000,328.1250,39.4375,-177.0000,0
1776972022.751,8.2768,1.8675,-0.9170,0.8188,0.1812,-0.2499,-88.3500,1.5000,-17.7000,9.8976,-2.6456,-1.8483,0.8023,2.3446,-2.0648,-7.8000,-30.1500,-126.1500,10.8400,2.3800,-8.0200,0.2847,-1.9515,-1.8751,-27.0000,13.2500,13.5000,328.1250,39.4375,-177.0000,0
1776972022.756,8.2768,1.8675,-0.9170,0.7131,0.1836,-0.1972,-88.3500,1.5000,-17.7000,9.8976,-2.6456,-1.8483,0.8023,2.3446,-2.0648,-9.6000,-29.4000,-124.5000,10.8400,2.3800,-8.0200,0.2847,-1.9515,-1.8751,-27.0000,13.2500,13.5000,327.0625,38.2500,-176.2500,0
1776972022.761,8.2600,1.9680,-0.7638,0.6211,0.1847,-0.1516,-88.3500,1.5000,-17.7000,9.8641,-2.1189,-1.6376,0.8311,2.3033,-2.0406,-9.6000,-29.4000,-124.5000,10.4700,2.3600,-7.6400,0.1494,-1.9995,-1.9406,-35.5625,14.3750,10.5625,327.0625,38.2500,-176.2500,0
1776972022.766,8.2600,1.9680,-0.7638,0.6211,0.1847,-0.1516,-88.8000,2.2500,-18.0000,9.8641,-2.1189,-1.6376,0.8311,2.3033,-2.0406,-10.3500,-27.4500,-121.6500,10.4700,2.3600,-7.6400,0.1494,-1.9995,-1.9406,-35.5625,14.3750,10.5625,326.0000,37.0625,-175.5625,0
1776972022.771,8.2337,1.9680,-0.6656,0.5393,0.1988,-0.1212,-88.8000,2.2500,-18.0000,10.1634,-1.6664,-1.5730,0.8839,2.2596,-2.0443,-10.3500,-27.4500,-121.6500,10.3100,2.2600,-7.4000,0.1058,-1.9929,-1.9482,-35.5625,14.3750,10.5625,326.0000,37.0625,-175.5625,0
1776972022.777,8.2337,1.9680,-0.6656,0.5393,0.1988,-0.1212,-88.0500,2.7000,-17.7000,10.1634,-1.6664,-1.5730,0.8839,2.2596,-2.0443,-8.4000,-28.6500,-119.8500,10.2700,1.9500,-7.4600,0.1614,-1.9559,-1.9068,-35.5625,14.3750,10.5625,324.9375,35.9375,-174.9375,0
1776972022.782,8.1570,2.2482,-0.5962,0.4751,0.2270,-0.0863,-88.0500,2.7000,-17.7000,10.2759,-1.2665,-1.2905,0.8127,2.2425,-2.0368,-8.4000,-28.6500,-119.8500,10.2700,1.9500,-7.4600,0.1614,-1.9559,-1.9068,-35.5625,14.3750,10.5625,323.8750,34.7500,-174.4375,0
1776972022.791,8.1570,2.4900,-0.5650,0.4383,0.2473,-0.0533,-89.1000,3.9000,-18.4500,10.1131,-1.0056,-1.2689,0.6134,2.3097,-2.0326,-9.1500,-24.4500,-119.4000,10.1100,1.6600,-7.3500,0.2498,-1.9264,-1.8500,-35.5625,14.3750,10.5625,322.8750,33.6250,-174.0000,0
1776972022.801,8.2648,2.8587,-0.5626,0.4149,0.2646,-0.0157,-89.1000,2.7000,-18.4500,10.3621,-0.8045,-1.1923,0.6158,2.3473,-2.0121,-9.9000,-24.1500,-117.3000,10.1400,1.4500,-7.3000,0.3436,-1.8937,-1.7857,-35.5625,14.3750,10.5625,322.8750,33.6250,-174.0000,0
1776972022.805,8.2648,2.8587,-0.5626,0.4149,0.2646,-0.0157,-88.3500,2.2500,-18.0000,10.3621,-0.8045,-1.1923,0.6158,2.3473,-2.0121,-9.9000,-24.1500,-117.3000,10.1400,1.4500,-7.3000,0.3436,-1.8937,-1.7857,-35.5625,14.3750,10.5625,322.8750,33.6250,-174.0000,0
1776972022.811,8.2744,3.3327,-0.6991,0.4032,0.2814,0.0157,-88.3500,2.2500,-18.0000,10.7643,-0.6847,-1.2474,0.7613,2.3257,-1.9457,-9.9000,-24.1500,-117.3000,10.8900,1.1300,-7.5700,0.3949,-1.8380,-1.7344,-45.5000,13.7500,20.0625,321.9375,32.5000,-173.6875,0
1776972022.815,8.2744,3.3327,-0.6991,0.4032,0.2814,0.0157,-89.1000,4.6500,-16.6500,10.7643,-0.6847,-1.2474,0.7613,2.3257,-1.9457,-10.3500,-20.4000,-115.2000,10.8900,1.1300,-7.5700,0.3949,-1.8380,-1.7344,-45.5000,13.7500,20.0625,321.9375,32.5000,-173.6875,0
1776972022.821,8.2600,3.7062,-0.7661,0.4098,0.3019,0.0373,-89.1000,4.6500,-16.6500,10.6590,-0.3519,-1.0511,0.7245,2.3273,-1.8679,-10.3500,-20.4000,-115.2000,11.0600,1.0000,-7.5500,0.4123,-1.7671,-1.6897,-45.5000,13.7500,20.0625,320.9375,31.4375,-173.3750,0
1776972022.829,8.2887,4.0390,-0.8930,0.4026,0.3317,0.0669,-89.1000,4.6500,-16.6500,10.7715,-0.1341,-0.9984,0.7392,2.3441,-1.7906,-11.2500,-21.3000,-114.0000,11.2100,0.8700,-7.4900,0.4396,-1.7431,-1.6319,-45.5000,13.7500,20.0625,320.0625,30.3750,-173.1875,0
1776972022.834,8.2887,4.0390,-0.8930,0.4026,0.3317,0.0669,-89.1000,4.6500,-16.6500,10.7715,-0.1341,-0.9984,0.7392,2.3441,-1.7906,-12.3000,-18.3000,-112.8000,11.2100,0.8700,-7.4900,0.4396,-1.7431,-1.6319,-45.5000,13.7500,20.0625,319.1875,29.3125,-173.0000,0
1776972022.841,8.2911,4.4053,-0.8811,0.3970,0.3738,0.0885,-88.0500,2.7000,-15.9000,11.1211,-0.3472,-0.7350,0.8487,2.2660,-1.7032,-12.3000,-18.3000,-112.8000,10.8400,0.0900,-6.7900,0.4647,-1.7606,-1.5708,-45.5000,13.7500,20.0625,318.3125,28.1875,-172.8750,0
1776972022.851,8.1259,4.6831,-0.8906,0.3826,0.4269,0.1039,-88.0500,2.7000,-15.9000,11.2767,-0.8021,-0.5076,0.8276,2.0696,-1.5620,-12.4500,-16.2000,-111.9000,10.4300,-0.5700,-6.2200,0.4429,-1.7933,-1.5293,-45.5000,13.7500,20.0625,318.3125,28.1875,-172.8750,0
1776972022.856,8.1259,4.9297,-0.8595,0.3826,0.4269,0.1039,-88.8000,2.2500,-18.4500,11.2767,-0.8021,-0.5076,0.8276,2.0696,-1.5620,-14.1000,-13.0500,-112.8000,10.4300,-0.5700,-6.2200,0.4429,-1.7933,-1.5293,-45.5000,13.7500,20.0625,317.5000,27.1250,-172.6875,0
1776972022.861,8.1259,4.9297,-0.8595,0.3794,0.4871,0.1164,-88.8000,2.2500,-18.4500,10.9726,-1.0343,-0.0407,0.6038,1.9297,-1.3987,-14.1000,-13.0500,-112.8000,9.9800,-1.3400,-5.7800,0.3556,-1.7791,-1.5130,-48.0000,8.5625,38.7500,317.5000,27.1250,-172.6875,0
1776972022.866,8.3175,5.2146,-0.9290,0.3794,0.4871,0.1164,-88.9500,3.6000,-17.1000,10.9726,-1.0343,-0.0407,0.6038,1.9297,-1.3987,-14.1000,-13.0500,-112.8000,9.9800,-1.3400,-5.7800,0.3556,-1.7791,-1.5130,-48.0000,8.5625,38.7500,316.6875,26.0625,-172.3750,0
1776972022.871,8.3175,5.2146,-0.9290,0.3949,0.5217,0.1170,-88.9500,3.6000,-17.1000,10.6470,-0.9936,0.1030,0.4277,1.7456,-1.2089,-14.1000,-13.0500,-112.8000,9.5800,-1.7000,-5.3300,0.1691,-1.7148,-1.5283,-48.0000,8.5625,38.7500,316.6875,26.0625,-172.3750,0
1776972022.876,8.5138,5.5067,-0.9840,0.3949,0.5217,0.1170,-89.5500,2.7000,-17.4000,10.6470,-0.9936,0.1030,0.4277,1.7456,-1.2089,-12.4500,-10.2000,-113.7000,9.5800,-1.7000,-5.3300,-0.0360,-1.5937,-1.5064,-48.0000,8.5625,38.7500,315.8750,25.0625,-172.0625,0
1776972022.881,8.5138,5.5067,-0.9840,0.4271,0.5031,0.1090,-89.5500,2.7000,-17.4000,10.3214,-0.6895,0.0646,0.3365,1.5863,-1.0120,-11.7000,-8.4000,-113.4000,9.3500,-1.7000,-4.3100,-0.0360,-1.5937,-1.5064,-48.0000,8.5625,38.7500,315.1875,24.1875,-171.6250,0
1776972022.891,8.5473,5.7604,-1.0582,0.4938,0.4695,0.0853,-87.7500,2.1000,-16.3500,10.1945,-0.6321,0.3711,0.1519,1.5148,-0.8050,-12.1500,-6.9000,-113.7000,9.4200,-1.8600,-3.9700,-0.1909,-1.3570,-1.4050,-48.0000,8.5625,38.7500,315.1875,24.1875,-171.6250,0
1776972022.901,8.6048,5.8251,-1.0654,0.5396,0.4714,0.0541,-87.7500,2.4000,-14.8500,10.8194,-0.5555,0.2131,-0.0109,1.4797,-0.5852,-12.3000,-4.5000,-114.3000,9.2000,-2.3300,-3.6300,-0.2913,-1.2261,-1.2272,-48.0000,8.5625,38.7500,314.5625,23.4375,-171.2500,0
1776972022.906,8.6646,5.6120,-1.2186,0.5756,0.4770,0.0173,-88.2000,2.1000,-14.8500,11.3126,-0.7757,0.5722,-0.0341,1.1437,-0.3262,-12.3000,-4.5000,-114.3000,9.2000,-2.3300,-3.6300,-0.2913,-1.2261,-1.2272,-48.0000,8.5625,38.7500,314.5625,23.4375,-171.2500,0
1776972022.911,8.6646,5.6120,-1.2186,0.5756,0.4770,0.0173,-88.2000,2.1000,-16.0500,11.3126,-0.7757,0.5722,-0.0341,1.1437,-0.3262,-8.8500,-2.4000,-116.2500,8.8100,-3.1400,-3.1000,-0.3872,-1.1781,-1.0407,-37.3750,2.3750,49.8750,314.1250,22.6875,-170.8125,0
1776972022.915,8.5545,5.7317,-1.3192,0.6003,0.5095,-0.0163,-88.2000,2.1000,-16.0500,9.6367,-0.1006,1.0702,-0.2787,0.9185,-0.1298,-8.8500,-2.4000,-116.2500,8.8100,-3.1400,-3.1000,-0.3872,-1.1781,-1.0407,-37.3750,2.3750,49.8750,314.1250,22.6875,-170.8125,0
1776972022.921,8.5545,5.7317,-1.3192,0.6003,0.5095,-0.0163,-88.2000,2.1000,-16.0500,9.6367,-0.1006,1.0702,-0.2787,0.9185,-0.1298,-8.8500,-2.4000,-116.2500,8.7600,-3.1900,-2.8200,-0.5378,-1.0090,-0.8781,-37.3750,2.3750,49.8750,313.6875,22.0625,-170.3750,0
1776972022.929,8.5641,5.6910,-1.4150,0.6267,0.5319,-0.0461,-88.2000,2.8500,-15.3000,10.5177,-0.2705,0.5507,-0.5732,0.9254,0.0669,-8.8500,-2.4000,-116.2500,8.4700,-3.1000,-2.3700,-0.6959,-0.8094,-0.7145,-37.3750,2.3750,49.8750,313.4375,21.5625,-169.8125,0
1776972022.934,8.5808,5.6024,-1.5131,0.6267,0.5319,-0.0461,-88.2000,2.8500,-15.3000,10.5177,-0.2705,0.5507,-0.5732,0.9254,0.0669,-8.1000,4.9500,-119.4000,8.4700,-3.1000,-2.3700,-0.6959,-0.8094,-0.7145,-37.3750,2.3750,49.8750,313.2500,21.1250,-169.3125,0
1776972022.941,8.5808,5.6024,-1.5131,0.6147,0.5596,-0.0586,-88.2000,2.8500,-15.3000,10.0485,0.0311,0.7566,-0.7314,0.8775,0.2369,-7.5000,7.0500,-120.7500,7.9500,-3.0200,-1.5900,-0.7952,-0.6621,-0.5225,-37.3750,2.3750,49.8750,313.1875,20.8750,-168.8125,0
1776972022.951,8.5784,5.5186,-1.3048,0.5670,0.5854,-0.0671,-88.6500,3.6000,-14.8500,10.3118,-0.1844,0.5483,-0.6390,0.7477,0.3722,-4.9500,9.7500,-123.6000,7.6000,-3.0000,-1.2900,-0.8345,-0.4898,-0.3262,-37.3750,2.3750,49.8750,313.1875,20.8750,-168.8125,0
1776972022.956,8.5665,5.3151,-1.1875,0.5108,0.6043,-0.0626,-88.6500,3.6000,-14.8500,10.4986,-0.4453,0.7278,-0.6462,0.5284,0.5057,-4.9500,9.7500,-123.6000,7.6000,-3.0000,-1.2900,-0.8345,-0.4898,-0.3262,-26.3750,-1.1875,52.5000,313.1875,20.6875,-168.3125,0
1776972022.961,8.5665,5.3151,-1.1875,0.5108,0.6043,-0.0626,-87.7500,0.4500,-15.3000,10.4986,-0.4453,0.7278,-0.6462,0.5284,0.5057,-4.6500,15.3000,-126.7500,7.3900,-3.0800,-1.1800,-0.8476,-0.2618,-0.1538,-26.3750,-1.1875,52.5000,313.1875,20.6875,-168.3125,0
1776972022.966,8.4707,4.8985,-1.1827,0.4751,0.6238,-0.0666,-87.0000,4.0500,-14.5500,10.0509,-0.8212,0.6416,-0.7573,0.3190,0.6291,-4.6500,15.3000,-126.7500,7.3900,-3.0800,-1.1800,-0.8476,-0.2618,-0.1538,-26.3750,-1.1875,52.5000,313.3125,20.6875,-167.8125,0
1776972022.971,8.4707,4.8985,-1.1827,0.4751,0.6238,-0.0666,-87.0000,4.0500,-14.5500,10.0509,-0.8212,0.6416,-0.7573,0.3190,0.6291,-4.3500,20.2500,-128.8500,7.3200,-3.1600,-1.2100,-0.8661,0.0044,-0.0065,-26.3750,-1.1875,52.5000,313.3125,20.6875,-167.8125,0
1776972022.979,8.3366,4.3934,-1.2282,0.4660,0.6006,-0.0608,-89.4000,2.8500,-13.0500,9.7827,-0.7063,0.2873,-0.8591,0.1535,0.7528,-4.3500,20.2500,-128.8500,8.0800,-2.6700,-1.8900,-0.9141,0.2771,0.1462,-26.3750,-1.1875,52.5000,313.4375,20.8750,-167.3125,0
1776972022.984,8.2073,3.9816,-1.3527,0.4703,0.5716,-0.0242,-89.4000,2.8500,-13.0500,9.8665,-0.5315,-0.4717,-0.9398,0.0424,0.8687,-4.3500,20.2500,-128.8500,8.0800,-2.6700,-1.8900,-0.9141,0.2771,0.1462,-26.3750,-1.1875,52.5000,313.6875,21.1875,-166.8750,0
1776972022.991,8.2408,3.7996,-1.3168,0.4237,0.5476,0.0344,-87.6000,4.6500,-13.2000,9.8665,-0.5315,-0.4717,-0.9398,0.0424,0.8687,-0.6000,23.2500,-133.2000,8.4000,-2.2200,-2.3700,-0.9501,0.4952,0.3251,-26.3750,-1.1875,52.5000,314.0625,21.5625,-166.4375,0
1776972023.001,8.1762,3.6033,-1.2354,0.3640,0.5508,0.1061,-86.8500,2.7000,-12.9000,9.8545,-0.3112,-0.9577,-0.9491,-0.1170,0.9843,0.0000,25.0500,-135.3000,8.5000,-1.8300,-2.7500,-0.9425,0.6327,0.5312,-26.3750,-1.1875,52.5000,314.0625,21.5625,-166.4375,0
1776972023.006,8.1762,3.6033,-1.2354,0.3640,0.5508,0.1061,-86.8500,2.7000,-12.9000,9.8234,-0.1173,-1.2641,-0.9579,-0.2364,1.0461,0.0000,25.0500,-135.3000,8.5000,-1.8300,-2.7500,-0.9425,0.6327,0.5312,-26.3750,-1.1875,52.5000,314.0625,21.5625,-166.4375,0
1776972023.011,8.2313,3.4213,-0.9912,0.2718,0.5572,0.1919,-86.8500,2.7000,-12.9000,9.8234,-0.1173,-1.2641,-0.9579,-0.2364,1.0461,1.2000,28.6500,-138.0000,8.4600,-1.1500,-3.3700,-0.8999,0.7178,0.7199,-21.6875,-7.1875,51.2500,314.5000,22.0625,-166.0000,0
1776972023.016,8.2313,3.4213,-0.9912,0.2718,0.5572,0.1919,-86.8500,2.7000,-12.9000,9.7707,0.0311,-1.9728,-0.9238,-0.3323,1.0709,1.2000,28.6500,-138.0000,8.4600,-1.1500,-3.3700,-0.8999,0.7178,0.7199,-21.6875,-7.1875,51.2500,314.5000,22.0625,-166.0000,0
1776972023.021,8.1116,3.1268,-0.6847,0.1543,0.5204,0.3011,-88.3500,4.2000,-13.2000,9.7707,0.0311,-1.9728,-0.9238,-0.3323,1.0709,0.3000,29.5500,-141.3000,8.2000,-0.6500,-3.4400,-0.8530,0.7985,0.8476,-21.6875,-7.1875,51.2500,315.0000,22.6250,-165.6875,0
1776972023.031,7.9583,3.0670,-0.3065,0.0075,0.4871,0.4154,-88.3500,4.2000,-13.2000,10.5129,-0.5243,-2.5786,-0.7906,-0.6925,1.1519,-1.2000,32.4000,-143.7000,7.8400,-0.3400,-3.5300,-0.8050,0.8661,0.9032,-21.6875,-7.1875,51.2500,315.5625,23.1875,-165.3750,0
1776972023.040,7.7045,2.9018,0.0407,-0.0927,0.4978,0.5353,-87.3000,3.0000,-12.9000,9.8641,-0.0694,-3.3471,-0.8402,-0.6632,1.1085,-1.2000,32.4000,-143.7000,7.7500,0.0000,-3.6600,-0.7341,0.9501,0.9108,-21.6875,-7.1875,51.2500,316.0625,23.8125,-165.1250,0
1776972023.047,7.7045,2.9018,0.0407,-0.0927,0.4978,0.5353,-87.3000,3.0000,-12.9000,9.5193,0.4453,-2.2817,-0.4924,-0.8881,1.1706,-1.2000,32.4000,-143.7000,7.7500,0.0000,-3.6600,-0.6414,1.0647,0.8563,-21.6875,-7.1875,51.2500,316.5625,24.5000,-164.9375,0
1776972023.052,7.4005,2.7988,-0.0742,-0.1308,0.5353,0.6813,-87.3000,3.0000,-12.4500,8.9088,0.7829,-2.6504,-0.2409,-0.8015,1.1482,-1.8000,37.0500,-147.0000,8.2300,0.5700,-4.0900,-0.6414,1.0647,0.8563,-21.6875,-7.1875,51.2500,316.5625,24.5000,-164.9375,0
1776972023.057,7.4005,2.7988,-0.0742,-0.1308,0.5353,0.6813,-87.3000,1.9500,-12.9000,8.9088,0.7829,-2.6504,-0.2409,-0.8015,1.1482,-1.8000,37.0500,-147.0000,8.5300,0.8700,-4.1500,-0.5367,1.1606,0.7374,-21.2500,-9.3750,49.2500,316.9375,25.2500,-164.7500,0
1776972023.062,7.1754,2.7892,-0.4477,-0.0874,0.6049,0.8474,-87.3000,1.9500,-12.9000,8.6910,1.3336,-2.5857,-0.0149,-0.9553,1.2001,-1.5000,36.4500,-148.9500,8.5300,0.8700,-4.1500,-0.5367,1.1606,0.7374,-21.2500,-9.3750,49.2500,316.9375,25.2500,-164.7500,0
1776972023.067,7.1754,2.7892,-0.4477,-0.0874,0.6049,0.8474,-87.3000,1.9500,-12.9000,8.6910,1.3336,-2.5857,-0.0149,-0.9553,1.2001,-1.5000,36.4500,-148.9500,8.5300,0.8700,-4.1500,-0.3938,1.2239,0.5803,-21.2500,-9.3750,49.2500,317.2500,26.0000,-164.5625,0
1776972023.072,7.6279,2.4995,-0.4094,-0.0695,0.6837,1.0168,-86.5500,2.2500,-12.9000,9.3637,2.0159,-1.1851,0.2006,-0.9462,1.1892,-2.4000,36.7500,-150.3000,8.8800,1.0600,-4.2500,-0.3938,1.2239,0.5803,-21.2500,-9.3750,49.2500,317.2500,26.0000,-164.5625,0
1776972023.080,8.5234,2.8108,-0.4621,0.0429,0.6518,1.2257,-86.8500,0.7500,-11.4000,9.0621,4.5011,0.8284,0.8679,-0.8031,1.0744,-1.9500,37.6500,-151.5000,8.0700,17.9900,-14.0500,-0.2160,1.1945,0.3840,-21.2500,-9.3750,49.2500,317.3750,26.6875,-164.5000,0
1776972023.087,9.5553,2.9568,-0.2011,0.0429,0.6518,1.2257,-86.8500,0.7500,-11.4000,9.0621,4.5011,0.8284,0.8679,-0.8031,1.0744,-1.9500,37.6500,-151.5000,8.0700,17.9900,-14.0500,1.2992,1.1290,0.7418,-21.2500,-9.3750,49.2500,317.5625,27.3750,-165.3125,0
1776972023.092,9.5553,2.9568,-0.2011,0.1050,0.6797,1.3949,-86.8500,1.5000,-11.1000,9.5481,7.5346,2.7988,1.8130,-0.3062,0.6065,-1.9500,37.6500,-151.5000,-4.6800,5.0900,-7.9300,1.2992,1.1290,0.7418,-21.2500,-9.3750,49.2500,317.8125,28.5000,-167.2500,0
1776972023.102,11.8130,2.7126,-0.3304,0.1761,0.7783,1.6196,-86.8500,1.5000,-11.1000,8.2528,10.7643,2.2170,2.2295,0.4525,-0.2364,-1.9500,37.6500,-151.5000,-11.9100,3.4300,-27.4600,2.9594,1.7268,1.3515,-21.2500,-9.3750,49.2500,317.8125,28.5000,-167.2500,0
1776972023.106,12.8210,1.8004,0.7374,0.1761,0.7783,1.6196,-86.8500,1.5000,-11.1000,8.2528,10.7643,2.2170,2.2295,0.4525,-0.2364,-1.9500,37.6500,-151.5000,-11.9100,3.4300,-27.4600,2.9594,1.7268,1.3515,-21.2500,-9.3750,49.2500,317.8750,29.2500,-168.7500,0
1776972023.111,12.8210,1.8004,0.7374,0.1572,0.6289,1.7941,-87.0000,-0.4500,-9.7500,13.6469,13.4099,-1.3024,2.3843,1.2103,-1.0269,-5.7000,49.8000,-162.4500,-2.8600,-3.2500,-4.6900,2.3769,1.1519,0.9468,-23.6875,-12.0000,47.0625,317.8750,29.2500,-168.7500,0
1776972023.116,13.0316,0.4142,-1.3455,0.5646,0.5985,1.8802,-87.0000,-0.4500,-9.7500,13.6469,13.4099,-1.3024,2.3843,1.2103,-1.0269,-5.7000,49.8000,-162.4500,-2.8600,-3.2500,-4.6900,2.3769,1.1519,0.9468,-23.6875,-12.0000,47.0625,317.4375,30.0000,-169.3750,0
1776972023.121,13.0316,0.4142,-1.3455,0.5646,0.5985,1.8802,-87.0000,-0.4500,-9.7500,15.5360,7.2065,-8.0230,1.3805,1.4322,-0.6856,-4.0500,58.6500,-165.4500,-1.3500,-5.0500,-2.3200,1.4748,1.5130,-0.3545,-23.6875,-12.0000,47.0625,317.4375,30.0000,-169.3750,0
1776972023.130,15.9071,2.0399,-5.7150,1.4133,0.4663,1.9652,-86.8500,-1.5000,-11.1000,16.5176,-1.7430,-7.1371,-0.2364,0.8119,-0.0019,-4.6500,65.2500,-169.2000,5.6800,-10.7500,-6.4300,1.1290,1.7541,-0.0578,-23.6875,-12.0000,47.0625,317.1250,31.0000,-169.8750,0
1776972023.135,17.9613,6.0214,-6.2920,1.4133,0.4663,1.9652,-86.8500,-1.5000,-11.1000,16.5176,-1.7430,-7.1371,-0.2364,0.8119,-0.0019,-4.6500,65.2500,-169.2000,5.6800,-10.7500,-6.4300,1.1290,1.7541,-0.0578,-23.6875,-12.0000,47.0625,317.0625,32.4375,-171.0000,0
1776972023.142,17.9613,6.0214,-6.2920,1.6566,0.0861,1.9769,-86.5500,-3.9000,-11.4000,17.6788,-2.1883,-3.7493,-0.1668,0.5681,0.4533,-5.2500,67.6500,-174.6000,18.3000,-19.8400,-19.9100,1.9330,2.5853,0.5869,-23.6875,-12.0000,47.0625,317.5000,33.9375,-171.8125,0
1776972023.152,14.7650,7.8434,-2.6360,1.0762,0.0610,1.6622,-86.8500,-4.2000,-9.9000,15.3540,1.1133,-1.0965,1.2124,0.1524,0.8378,-5.2500,67.6500,-174.6000,15.9700,13.6300,-6.9800,0.9239,2.5155,1.2294,-23.6875,-12.0000,47.0625,317.5000,33.9375,-171.8125,0
1776972023.156,10.7835,6.3973,1.6113,0.3134,0.7048,1.3057,-86.8500,-4.2000,-9.9000,15.3540,1.1133,-1.0965,1.2124,0.1524,0.8378,-5.2500,67.6500,-174.6000,15.9700,13.6300,-6.9800,0.9239,2.5155,1.2294,-24.6875,-8.0000,46.3750,317.9375,34.8750,-171.5000,0
1776972023.161,10.7835,6.3973,1.6113,0.3134,0.7048,1.3057,-86.7000,-4.8000,-9.0000,11.0229,1.1684,0.8380,1.7936,0.6070,1.0264,-5.2500,67.6500,-174.6000,7.2200,19.4400,-0.1100,-0.9119,1.6832,0.6850,-24.6875,-8.0000,46.3750,317.9375,34.8750,-171.5000,0
1776972023.166,9.0190,3.9002,3.5075,-0.0930,0.9702,1.0885,-86.7000,-4.8000,-9.0000,11.0229,1.1684,0.8380,1.7936,0.6070,1.0264,2.4000,72.3000,-194.8500,7.2200,19.4400,-0.1100,-0.9119,1.6832,0.6850,-24.6875,-8.0000,46.3750,317.9375,35.5625,-171.4375,0
1776972023.171,9.0190,3.9002,3.5075,-0.0930,0.9702,1.0885,-85.3500,-6.1500,-8.4000,9.8186,-0.5291,4.9368,1.7413,1.1000,1.1319,2.4000,72.3000,-194.8500,9.7800,0.2800,-10.8100,-0.0196,1.1432,0.0938,-24.6875,-8.0000,46.3750,317.9375,35.5625,-171.4375,0
1776972023.176,7.9631,1.1468,4.5011,-0.3320,1.1008,0.9787,-85.3500,-6.1500,-8.4000,8.8226,-2.6073,7.3598,2.2687,0.4890,1.1647,4.3500,74.5500,-196.2000,9.7800,0.2800,-10.8100,1.1574,1.2075,0.3589,-24.6875,-8.0000,46.3750,317.9375,36.2500,-172.1250,0
1776972023.182,7.9631,1.1468,4.5011,-0.3320,1.1008,0.9787,-86.1000,-4.6500,-8.1000,8.8226,-2.6073,7.3598,2.2687,0.4890,1.1647,4.3500,74.5500,-196.2000,5.9400,-7.8100,-9.7000,1.1574,1.2075,0.3589,-24.6875,-8.0000,46.3750,317.8750,36.4375,-172.6875,0
1776972023.191,7.9631,-1.7933,2.4421,0.3440,0.9049,0.9803,-86.1000,-4.6500,-8.1000,8.0182,-2.8132,6.6702,1.6899,-0.6022,1.4272,4.6500,74.2500,-195.9000,5.3900,3.2700,-7.4100,0.8356,0.3283,0.2171,-24.6875,-8.0000,46.3750,317.8750,36.4375,-172.6875,0
1776972023.202,8.9352,-4.5514,-3.2753,0.8692,0.8250,0.9912,-86.2500,-7.2000,-7.2000,7.9080,-2.7246,5.0996,1.2734,-1.4224,1.4733,9.0000,77.5500,-193.8000,4.7300,5.2900,-5.9400,0.1047,0.1636,0.0327,-24.6875,-8.0000,46.3750,317.8750,36.5000,-172.7500,0
1776972023.206,8.9352,-4.5514,-3.2753,0.6153,0.7623,0.9585,-86.2500,-7.2000,-7.2000,8.4156,-1.9704,6.5122,0.5257,-1.5122,1.5079,9.0000,77.5500,-193.8000,4.7300,5.2900,-5.9400,0.1047,0.1636,0.0327,-24.6875,-8.0000,46.3750,317.8125,36.7500,-172.8125,0
1776972023.211,9.3829,-3.8930,-4.6376,0.6153,0.7623,0.9585,-86.2500,-7.2000,-7.2000,8.4156,-1.9704,6.5122,0.5257,-1.5122,1.5079,9.0000,77.5500,-193.8000,5.0900,0.8200,-7.5900,0.1353,0.4614,0.0142,-26.1875,-8.0000,45.0625,317.8125,36.7500,-172.8125,0
1776972023.216,9.3829,-3.8930,-4.6376,-0.1391,0.4588,0.8998,-86.2500,-7.2000,-7.2000,8.3534,-2.4804,5.9616,-0.5137,-1.5060,1.4759,16.5000,78.4500,-182.8500,5.0900,0.8200,-7.5900,0.1353,0.4614,0.0142,-26.1875,-8.0000,45.0625,317.8750,36.9375,-173.0000,0
1776972023.222,9.4403,-1.8818,-3.8283,-0.1391,0.4588,0.8998,-85.8000,-8.5500,-6.9000,8.3534,-2.4804,5.9616,-0.5137,-1.5060,1.4759,16.5000,78.4500,-182.8500,4.4600,0.9700,-7.7500,0.2389,0.3240,0.1265,-26.1875,-8.0000,45.0625,317.8750,36.9375,-173.0000,0
1776972023.231,8.9974,0.8787,-1.4988,-0.9276,0.2020,0.8362,-85.0500,-9.0000,-7.3500,8.0445,-1.6855,3.8642,-0.9001,-1.0762,1.2364,17.4000,76.8000,-179.8500,4.3300,1.6300,-7.5200,0.1353,0.3305,0.1865,-26.1875,-8.0000,45.0625,317.9375,37.1875,-173.1250,0
1776972023.236,8.9974,0.8787,-1.4988,-1.5140,0.1623,0.7408,-85.0500,-9.0000,-7.3500,9.3278,0.9888,3.6057,-0.8364,-0.4010,0.9920,17.8500,73.6500,-172.5000,4.3300,1.6300,-7.5200,0.3458,0.4778,0.2803,-26.1875,-8.0000,45.0625,318.0000,37.4375,-173.3750,0
1776972023.242,9.0118,3.0574,1.1205,-1.9537,0.1815,0.6470,-85.2000,-8.4000,-5.7000,9.3278,0.9888,3.6057,-0.8364,-0.4010,0.9920,17.8500,73.6500,-172.5000,4.7900,1.6400,-7.4300,0.3458,0.4778,0.2803,-26.1875,-8.0000,45.0625,318.0625,37.8125,-173.9375,0
1776972023.252,9.0501,3.5267,3.3950,-1.9438,0.2316,0.5966,-87.0000,-8.7000,-7.9500,9.9264,1.8531,-1.9321,-0.7642,-0.1186,0.8079,17.4000,66.3000,-169.5000,7.6800,-1.9500,-9.9300,0.7276,0.6250,0.3698,-26.1875,-8.0000,45.0625,318.0625,37.8125,-173.9375,0
1776972023.257,9.0501,3.5267,3.3950,-1.9438,0.2316,0.5966,-87.0000,-8.7000,-7.9500,10.4483,1.2019,-3.4213,-0.5319,-0.0941,0.6678,16.6500,60.7500,-169.5000,7.6800,-1.9500,-9.9300,0.7276,0.6250,0.3698,-26.1875,-8.0000,45.0625,318.0625,37.8125,-173.9375,0
1776972023.262,9.1578,2.5307,4.7333,-1.4581,0.2241,0.6118,-85.9500,-8.7000,-8.7000,10.4483,1.2019,-3.4213,-0.5319,-0.0941,0.6678,16.6500,60.7500,-169.5000,6.9700,-1.9500,-8.3800,0.4636,0.7079,0.2814,-26.1875,-7.0000,44.1875,318.0625,38.1875,-174.3125,0
1776972023.267,9.1578,2.5307,4.7333,-1.4581,0.2241,0.6118,-85.9500,-8.7000,-8.7000,10.2424,-0.3519,-3.2298,-0.2052,-0.1745,0.4996,16.6500,60.7500,-169.5000,6.9700,-1.9500,-8.3800,0.4636,0.7079,0.2814,-26.1875,-7.0000,44.1875,318.0625,38.1875,-174.3125,0
1776972023.272,8.8322,1.1612,4.7860,-0.9374,0.2177,0.6563,-84.7500,-10.3500,-7.9500,10.2424,-0.3519,-3.2298,-0.2052,-0.1745,0.4996,16.6500,60.7500,-169.5000,5.9200,0.6600,-7.8000,0.4636,0.7079,0.2814,-26.1875,-7.0000,44.1875,318.1250,38.6250,-174.6250,0
1776972023.278,8.8585,0.3615,3.6536,-0.9374,0.2177,0.6563,-84.7500,-10.3500,-7.9500,9.6798,-0.7494,-2.8132,0.4032,-0.2550,0.2992,10.3500,52.9500,-172.9500,7.0900,0.2000,-7.9000,0.2825,0.6829,0.2193,-26.1875,-7.0000,44.1875,318.1875,39.0000,-174.8750,0
1776972023.283,8.8585,0.3615,3.6536,-0.2894,0.1879,0.6915,-84.7500,-10.3500,-7.9500,9.5720,-0.6776,-1.7286,0.9196,-0.1647,0.2454,10.3500,52.9500,-172.9500,7.0900,0.2000,-7.9000,0.2825,0.6829,0.2193,-26.1875,-7.0000,44.1875,318.1875,39.5000,-175.0625,0
1776972023.292,9.0788,-0.7733,2.1093,0.3912,0.1956,0.7216,-84.6000,-10.5000,-7.3500,9.5720,-0.6776,-1.7286,0.9196,-0.1647,0.2454,5.4000,52.5000,-173.4000,6.9700,-0.0500,-7.8600,0.2694,0.8443,0.1625,-26.1875,-7.0000,44.1875,318.1250,39.8750,-175.3125,0
1776972023.302,9.5864,-1.8076,1.1803,0.7320,0.2124,0.7099,-84.6000,-10.5000,-7.3500,9.5912,-1.1133,0.3448,1.0451,-0.4474,0.4871,2.4000,52.5000,-174.4500,7.1100,0.3100,-7.6200,0.5465,0.6807,0.0229,-26.1875,-7.0000,44.1875,318.1250,39.8750,-175.3125,0
1776972023.307,9.5864,-1.8076,1.1803,0.7320,0.2124,0.7099,-84.6000,-10.5000,-7.3500,9.2703,-2.1404,2.1931,1.0451,-0.4474,0.4871,0.6000,53.2500,-174.4500,7.1100,0.3100,-7.6200,0.5465,0.6807,0.0229,-27.2500,-5.8750,43.0000,318.0000,40.1875,-175.5625,0
1776972023.312,9.6678,-2.5067,1.5538,0.7536,0.2822,0.6643,-83.4000,-10.0500,-7.6500,9.2919,-2.9449,3.4692,0.7847,-0.3792,0.6398,0.6000,53.2500,-174.4500,6.7600,0.1100,-7.7900,0.4265,0.6174,-0.0284,-27.2500,-5.8750,43.0000,318.0000,40.1875,-175.5625,0
1776972023.317,9.6678,-2.5067,1.5538,0.7536,0.2822,0.6643,-83.4000,-10.0500,-7.6500,9.2919,-2.9449,3.4692,0.7847,-0.3792,0.6398,1.3500,51.7500,-175.5000,6.7600,0.1100,-7.7900,0.4265,0.6174,-0.0284,-27.2500,-5.8750,43.0000,317.8750,40.5625,-175.7500,0
1776972023.322,9.4858,-2.1332,2.5187,0.6382,0.3901,0.6070,-84.4500,-11.1000,-9.3000,9.2273,-3.5817,4.1396,0.3701,-0.5537,0.8591,1.3500,51.7500,-175.5000,6.8900,0.3200,-7.4100,0.4265,0.6174,-0.0284,-27.2500,-5.8750,43.0000,317.8750,40.5625,-175.7500,0
1776972023.330,9.4954,-1.2067,3.1627,0.5289,0.4908,0.5399,-85.8000,-10.9500,-7.3500,9.2273,-3.5817,4.1396,0.3701,-0.5537,0.8591,1.3500,51.7500,-175.5000,6.5300,0.5700,-7.4400,0.2673,0.5203,-0.0436,-27.2500,-5.8750,43.0000,317.8125,40.8125,-175.8750,0
1776972023.335,9.4954,-1.2067,3.1627,0.5289,0.4908,0.5399,-85.8000,-10.9500,-7.3500,8.8849,-4.8219,4.0917,-0.1362,-0.5127,1.0003,5.5500,48.4500,-177.1500,6.5300,0.5700,-7.4400,0.2673,0.5203,-0.0436,-27.2500,-5.8750,43.0000,317.7500,40.9375,-175.8750,0
1776972023.342,9.4667,-0.2658,3.3639,0.4391,0.5489,0.4863,-83.8500,-12.4500,-6.9000,9.1315,-5.5665,3.4022,-0.4812,-0.6027,1.1178,5.5500,48.4500,-177.1500,6.5700,0.4300,-7.5600,0.0447,0.2062,0.0011,-27.2500,-5.8750,43.0000,317.7500,41.0625,-175.8750,0
1776972023.352,9.5672,-0.1197,3.2250,0.3496,0.5441,0.4285,-83.7000,-11.4000,-6.4500,9.4834,-5.4731,2.5043,-0.6472,-0.5641,1.0997,13.2000,45.7500,-176.7000,6.4100,0.4600,-7.4600,0.0349,0.1833,0.0240,-27.2500,-5.8750,43.0000,317.7500,41.0625,-175.8750,0
1776972023.357,9.6582,-0.2682,2.7031,0.2515,0.5540,0.3802,-83.7000,-11.4000,-6.4500,9.4834,-5.4731,2.5043,-0.6472,-0.5641,1.0997,13.2000,43.9500,-174.6000,6.4100,0.4600,-7.4600,0.0349,0.1833,0.0240,-27.2500,-5.8750,43.0000,317.7500,41.0625,-175.8750,0
