timestamp,thigh_acc_x,thigh_acc_y,thigh_acc_z,thigh_gyro_x,thigh_gyro_y,thigh_gyro_z,thigh_mag_x,thigh_mag_y,thigh_mag_z,shank_acc_x,shank_acc_y,shank_acc_z,shank_gyro_x,shank_gyro_y,shank_gyro_z,shank_mag_x,shank_mag_y,shank_mag_z,foot_acc_x,foot_acc_y,foot_acc_z,foot_gyro_x,foot_gyro_y,foot_gyro_z,foot_mag_x,foot_mag_y,foot_mag_z,foot_euler_x,foot_euler_y,foot_euler_z,perturbation_event
1776971506.764,14.2000,-4.1444,-1.0439,-3.3055,-1.5114,-2.9215,-74.8500,-31.0500,-39.0000,11.1977,-1.0487,5.1068,-1.5537,2.6700,1.3440,-14.8500,-43.0500,24.9000,29.9500,4.7700,-15.8000,-2.1271,7.9292,4.1430,-67.6875,33.3750,32.5000,315.0000,79.3125,103.5000,0
1776971506.772,14.8967,-2.5307,-0.5148,-3.5003,-1.4197,-2.9705,-74.8500,-31.0500,-39.0000,11.9231,-3.3112,3.5985,-0.7405,3.0542,1.2518,-14.8500,-45.0000,26.2500,19.4700,5.0600,-15.5700,-1.6155,5.9668,4.7975,-67.6875,33.3750,32.5000,313.8750,76.9375,87.4375,0
1776971506.777,14.8967,-2.5307,-0.5148,-3.5003,-1.4197,-2.9705,-74.8500,-31.0500,-39.0000,11.9231,-3.3112,3.5985,-0.7405,3.0542,1.2518,-10.5000,-44.5500,26.7000,19.4700,5.0600,-15.5700,-1.6155,5.9668,4.7975,-67.6875,33.3750,32.5000,312.6875,74.0000,80.8750,0
1776971506.784,14.9470,-1.3384,-0.1389,-3.4094,-1.1810,-2.8946,-76.2000,-28.9500,-37.6500,10.8433,-6.2608,1.9968,-0.0442,2.9484,0.8966,-8.2500,-45.0000,29.5500,10.3900,5.1600,-13.0700,-1.7661,4.0153,4.8575,-67.6875,33.3750,32.5000,311.4375,70.9375,78.3125,0
1776971506.794,14.1617,0.5363,-0.3663,-3.2282,-0.8431,-2.7845,-78.0000,-26.7000,-37.5000,10.0437,-9.1506,1.3503,0.1140,2.3798,0.4594,-8.2500,-45.0000,29.5500,3.4800,7.6600,-16.1100,-2.1718,3.0958,5.0462,-67.6875,33.3750,32.5000,311.4375,70.9375,78.3125,0
1776971506.799,12.5241,2.3846,-0.9625,-2.8919,-0.4796,-2.7779,-78.1500,-25.0500,-36.1500,7.2137,-11.1905,5.2864,0.1921,2.0091,0.1807,-8.2500,-45.0000,29.5500,3.4800,7.6600,-16.1100,-2.1718,3.0958,5.0462,-67.6875,33.3750,32.5000,311.4375,70.9375,78.3125,0
1776971506.804,12.5241,2.3846,-0.9625,-2.8919,-0.4796,-2.7779,-78.1500,-25.0500,-36.1500,7.2137,-11.1905,5.2864,0.1921,2.0091,0.1807,-8.2500,-45.0000,29.5500,29.9600,6.6500,-27.1500,-2.0737,2.1664,5.3014,-67.0625,43.6875,9.7500,309.8750,67.8125,77.9375,0
1776971506.809,12.1769,3.3040,-2.3990,-2.5836,-0.1506,-2.7896,-78.0000,-21.3000,-36.4500,6.2034,-12.7491,6.4404,-0.6147,1.8253,-0.0970,-8.2500,-45.0000,29.5500,29.9600,6.6500,-27.1500,-2.0737,2.1664,5.3014,-67.0625,43.6875,9.7500,309.8750,67.8125,77.9375,0
1776971506.814,12.1769,3.3040,-2.3990,-2.5836,-0.1506,-2.7896,-78.0000,-21.3000,-36.4500,6.2034,-12.7491,6.4404,-0.6147,1.8253,-0.0970,-6.1500,-44.5500,32.4000,24.2600,4.8900,-22.8300,-0.0087,4.2128,4.7473,-67.0625,43.6875,9.7500,308.0625,64.6875,74.1875,0
1776971506.823,12.1147,3.7589,-3.0981,-2.2383,0.0698,-2.7267,-77.5500,-22.0500,-35.2500,6.0669,-12.2439,6.6631,-1.0608,1.1397,-0.4293,-6.1500,-44.5500,32.4000,16.8100,9.5600,-15.8600,-1.8282,1.5784,3.0456,-67.0625,43.6875,9.7500,307.5625,62.8750,74.4375,0
1776971506.831,11.8178,4.6783,-2.8587,-1.7685,0.3539,-2.6409,-79.5000,-18.4500,-33.7500,6.1292,-8.7891,3.1173,-1.9705,0.6097,-0.8521,-4.8000,-43.6500,34.9500,10.0900,11.5000,-14.0100,-2.7358,-0.8639,1.3079,-67.0625,43.6875,9.7500,307.8125,62.2500,77.1875,0
1776971506.836,10.8409,4.2042,-1.8124,-1.7685,0.3539,-2.6409,-79.5000,-18.4500,-33.7500,6.1292,-8.7891,3.1173,-1.9705,0.6097,-0.8521,-3.7500,-42.4500,32.8500,10.0900,11.5000,-14.0100,-2.7358,-0.8639,1.3079,-67.0625,43.6875,9.7500,308.6875,62.4375,80.6250,0
1776971506.844,10.8409,4.2042,-1.8124,-1.1826,0.4109,-2.6737,-79.5000,-18.4500,-33.7500,4.1061,-5.1595,0.9601,-2.3132,0.2577,-1.2156,-2.1000,-42.3000,31.6500,1.1200,12.1000,-4.2100,-2.8122,-1.7966,-0.0196,-67.0625,43.6875,9.7500,308.6875,62.4375,80.6250,0
1776971506.849,10.2639,4.2593,-1.0080,-0.5177,0.2723,-2.7185,-79.8000,-15.7500,-33.0000,2.9161,-4.0127,0.4693,-1.6265,0.1569,-1.5964,-2.1000,-42.3000,31.6500,1.1200,12.1000,-4.2100,-2.8122,-1.7966,-0.0196,-49.0000,52.0625,8.0625,309.7500,63.1250,83.7500,0
1776971506.854,9.6079,2.3583,-1.0918,-0.5177,0.2723,-2.7185,-79.8000,-15.7500,-33.0000,2.9161,-4.0127,0.4693,-1.6265,0.1569,-1.5964,-2.1000,-42.3000,31.6500,0.6400,9.7500,-3.5500,-2.1348,-1.9657,-0.9796,-49.0000,52.0625,8.0625,309.7500,63.1250,83.7500,0
1776971506.859,9.6079,2.3583,-1.0918,0.0570,0.0783,-2.7475,-79.8000,-15.7500,-33.0000,2.2793,-4.2401,0.3950,-0.3355,0.0671,-2.0123,-2.1000,-42.3000,31.6500,0.6400,9.7500,-3.5500,-2.1348,-1.9657,-0.9796,-49.0000,52.0625,8.0625,310.9375,64.1250,86.0625,0
1776971506.864,9.4044,1.4724,-1.3096,0.0570,0.0783,-2.7475,-79.8000,-15.7500,-33.0000,2.2793,-4.2401,0.3950,-0.3355,0.0671,-2.0123,-6.3000,-41.7000,34.9500,2.0000,6.9900,-4.4900,-1.3014,-1.5730,-1.6722,-49.0000,52.0625,8.0625,310.9375,64.1250,86.0625,0
1776971506.871,9.4044,1.4724,-1.3096,0.5412,-0.0725,-2.7456,-79.3500,-12.0000,-29.8500,2.1404,-5.2313,0.6680,0.6781,-0.0626,-2.3899,-6.3000,-41.7000,34.9500,1.7000,2.7400,-5.7900,-0.7647,-1.6035,-2.3976,-49.0000,52.0625,8.0625,312.2500,65.5000,88.2500,0
1776971506.876,9.1219,0.0144,-1.1851,0.6837,-0.1775,-2.6724,-79.3500,-12.0000,-29.8500,2.1404,-5.2313,0.6680,0.6781,-0.0626,-2.3899,-5.2500,-40.2000,35.7000,1.7000,2.7400,-5.7900,-0.7647,-1.6035,-2.3976,-49.0000,52.0625,8.0625,313.8750,67.2500,90.6875,0
1776971506.884,8.8825,0.4573,-1.8890,0.7184,-0.2212,-2.6255,-79.6500,-11.2500,-29.5500,2.2242,-6.2752,1.2043,1.0922,-0.2630,-2.7216,-6.3000,-36.9000,36.7500,2.0600,0.6900,-6.3500,-0.5389,-1.6853,-3.0663,-49.0000,52.0625,8.0625,315.8125,69.1875,93.5625,0
1776971506.894,8.7125,0.8930,-2.0135,0.6856,-0.2862,-2.5122,-79.5000,-7.9500,-28.9500,2.3703,-7.8171,1.1133,1.0424,-0.3704,-2.9385,-8.2500,-37.0500,39.1500,2.8300,-1.0000,-7.2000,-0.5738,-1.7213,-3.5517,-49.0000,52.0625,8.0625,315.8125,69.1875,93.5625,0
1776971506.899,8.7125,0.8930,-2.0135,0.6856,-0.2862,-2.5122,-80.8500,-7.3500,-29.8500,2.8084,-8.4348,1.8387,0.9014,-0.5572,-3.1054,-8.2500,-37.0500,39.1500,2.8300,-1.0000,-7.2000,-0.5738,-1.7213,-3.5517,-49.0000,52.0625,8.0625,315.8125,69.1875,93.5625,0
1776971506.904,8.4228,1.1588,-1.6496,0.6179,-0.3331,-2.3832,-80.8500,-7.3500,-29.8500,2.8084,-8.4348,1.8387,0.9014,-0.5572,-3.1054,-10.5000,-35.5500,38.7000,4.9700,-3.5200,-9.3300,-0.6872,-1.8882,-3.8157,-38.5625,46.2500,12.8750,317.9375,71.1875,97.3750,0
1776971506.909,8.4228,1.1588,-1.6496,0.6179,-0.3331,-2.3832,-80.8500,-7.3500,-29.8500,2.9281,-8.3127,2.2529,0.8159,-0.6931,-3.3207,-10.5000,-35.5500,38.7000,4.9700,-3.5200,-9.3300,-0.6872,-1.8882,-3.8157,-38.5625,46.2500,12.8750,317.9375,71.1875,97.3750,0
1776971506.914,8.5904,1.5682,-1.4006,0.5375,-0.3248,-2.2284,-80.8500,-7.3500,-29.8500,2.9281,-8.3127,2.2529,0.8159,-0.6931,-3.3207,-10.5000,-35.5500,38.7000,5.9200,-5.0400,-10.4000,-0.7570,-2.2100,-3.8234,-38.5625,46.2500,12.8750,320.0625,73.0625,102.7500,0
1776971506.922,8.6431,1.6137,-1.2378,0.5375,-0.3248,-2.2284,-79.5000,-5.2500,-28.2000,3.6392,-8.1020,2.6695,0.7722,-0.8492,-3.4965,-12.4500,-32.7000,40.0500,6.3800,-7.0600,-11.5700,-0.9021,-2.7653,-3.5867,-38.5625,46.2500,12.8750,322.1250,74.5000,110.2500,0
1776971506.927,8.6431,1.6137,-1.2378,0.5364,-0.3659,-2.0749,-79.5000,-5.2500,-28.2000,3.7493,-8.2001,2.7749,0.5119,-1.1199,-3.5988,-12.4500,-32.7000,40.0500,6.3800,-7.0600,-11.5700,-0.9021,-2.7653,-3.5867,-38.5625,46.2500,12.8750,324.1250,75.3125,120.0625,0
1776971506.935,8.7245,1.5826,-0.7494,0.5175,-0.3965,-1.8985,-79.5000,-5.2500,-28.2000,3.6368,-8.4060,2.5833,0.1713,-1.3113,-3.6503,-14.8500,-33.0000,40.5000,6.6600,-8.4600,-12.0600,-1.2097,-3.3881,-3.2027,-38.5625,46.2500,12.8750,326.2500,75.3125,131.3750,0
1776971506.944,8.6024,1.1803,-0.6416,0.5705,-0.4874,-1.6691,-80.2500,-2.4000,-27.1500,3.3471,-7.3143,2.0877,-0.1687,-1.4893,-3.7065,-15.9000,-30.3000,41.2500,5.4000,-9.5500,-10.7600,-1.7737,-3.9935,-2.7980,-38.5625,46.2500,12.8750,326.2500,75.3125,131.3750,0
1776971506.949,8.6024,1.1803,-0.6416,0.5705,-0.4874,-1.6691,-80.2500,-2.4000,-27.1500,3.3471,-7.3143,2.0877,-0.1687,-1.4893,-3.7065,-15.9000,-30.3000,41.2500,5.4000,-9.5500,-10.7600,-1.7737,-3.9935,-2.7980,-35.5625,35.7500,9.6875,328.6250,74.3750,142.6875,0
1776971506.954,7.8961,1.0032,-0.3663,0.6025,-0.4338,-1.4517,-80.4000,-2.7000,-26.5500,3.4477,-6.4428,1.9441,-0.1458,-1.6409,-3.8115,-18.7500,-28.8000,40.2000,4.2500,-9.1800,-9.3700,-2.3671,-4.5215,-2.4282,-35.5625,35.7500,9.6875,328.6250,74.3750,142.6875,0
1776971506.959,7.8961,1.0032,-0.3663,0.6025,-0.4338,-1.4517,-78.4500,-1.0500,-25.5000,3.4477,-6.4428,1.9441,-0.1458,-1.6409,-3.8115,-18.7500,-28.8000,40.2000,4.2500,-9.1800,-9.3700,-2.3671,-4.5215,-2.4282,-35.5625,35.7500,9.6875,331.2500,72.6875,152.4375,0
1776971506.964,7.6950,1.0511,-0.4669,0.6238,-0.3365,-1.2124,-78.4500,-1.0500,-25.5000,3.7182,-6.2393,1.9585,0.1172,-1.7906,-3.9444,-20.4000,-27.1500,40.6500,3.7600,-8.3700,-8.3700,-2.8514,-4.8466,-2.0540,-35.5625,35.7500,9.6875,331.2500,72.6875,152.4375,0
1776971506.969,7.6950,1.0511,-0.4669,0.6238,-0.3365,-1.2124,-78.4500,-1.0500,-25.5000,3.7182,-6.2393,1.9585,0.1172,-1.7906,-3.9444,-20.4000,-27.1500,40.6500,3.7600,-8.3700,-8.3700,-3.1361,-4.9491,-1.6722,-35.5625,35.7500,9.6875,334.0000,70.5625,160.0625,0
1776971506.975,7.8602,0.8859,-0.4669,0.5931,-0.3467,-0.9814,-81.0000,-1.3500,-26.4000,4.5729,-6.5290,1.4796,0.0544,-2.1253,-4.0750,-20.4000,-27.1500,40.6500,4.0500,-6.5500,-6.8200,-3.1361,-4.9491,-1.6722,-35.5625,35.7500,9.6875,336.8750,68.1875,165.8750,0
1776971506.984,7.6686,0.6704,-0.1437,0.4602,-0.3736,-0.7775,-79.6500,0.3000,-27.7500,4.1396,-6.6942,2.2960,-0.1386,-2.1983,-4.3721,-22.8000,-22.8000,39.9000,4.1600,-6.3100,-5.9500,-3.2387,-4.8695,-1.3363,-35.5625,35.7500,9.6875,336.8750,68.1875,165.8750,0
1776971506.995,7.4101,0.3926,0.1891,0.3150,-0.4098,-0.6163,-80.2500,0.1500,-27.1500,5.7341,-7.6974,0.9002,-0.3381,-2.3784,-4.5048,-25.5000,-21.9000,39.0000,4.5700,-6.0000,-5.6100,-3.2550,-4.7080,-1.1323,-35.5625,35.7500,9.6875,339.8750,65.7500,170.3750,0
1776971507.000,7.0797,-0.0192,0.3519,0.1450,-0.4429,-0.4586,-80.2500,0.1500,-27.1500,5.7341,-7.6974,0.9002,-0.3381,-2.3784,-4.5048,-25.5000,-21.9000,39.0000,4.5700,-6.0000,-5.6100,-3.2550,-4.7080,-1.1323,-35.0625,34.5000,9.5625,343.0625,63.4375,174.1250,0
1776971507.005,7.0797,-0.0192,0.3519,0.1450,-0.4429,-0.4586,-80.2500,0.1500,-27.1500,6.1172,-6.3782,1.8316,-0.6528,-2.9127,-4.4984,-27.7500,-19.6500,37.8000,7.9300,-5.5500,-7.5000,-3.2398,-4.3895,-1.0886,-35.0625,34.5000,9.5625,343.0625,63.4375,174.1250,0
1776971507.010,6.8307,0.0670,0.3256,-0.0442,-0.4487,-0.2910,-80.1000,0.1500,-27.1500,6.1172,-6.3782,1.8316,-0.6528,-2.9127,-4.4984,-27.7500,-19.6500,37.8000,7.9300,-5.5500,-7.5000,-3.2398,-4.3895,-1.0886,-35.0625,34.5000,9.5625,346.5000,61.2500,177.5000,0
1776971507.015,6.8307,0.0670,0.3256,-0.0442,-0.4487,-0.2910,-80.1000,2.2500,-25.8000,7.3741,-4.0869,2.7318,-0.9606,-3.0478,-4.5333,-28.6500,-18.0000,38.4000,8.2500,-5.5300,-8.5600,-3.2016,-4.0939,-1.2479,-35.0625,34.5000,9.5625,346.5000,61.2500,177.5000,0
1776971507.024,6.5242,0.3519,0.2442,-0.2350,-0.4311,-0.1199,-80.1000,2.2500,-25.8000,8.6167,-4.2784,4.3670,-1.0682,-3.1333,-4.6535,-28.6500,-18.0000,38.4000,8.3400,-6.0300,-9.5500,-3.1656,-3.9335,-1.4868,-35.0625,34.5000,9.5625,350.3125,59.0625,-179.1875,0
1776971507.034,6.3710,0.9146,0.3855,-0.4852,-0.3467,0.0568,-79.6500,3.0000,-27.0000,12.2392,-5.7868,4.3814,-1.2486,-3.0462,-4.4894,-32.8500,-12.9000,34.9500,10.2100,-6.7200,-10.9600,-3.1536,-3.7666,-1.6188,-35.0625,34.5000,9.5625,354.5000,56.9375,-176.1250,0
1776971507.041,5.7772,1.7669,0.1245,-0.7296,-0.1692,0.2252,-79.6500,1.5000,-27.7500,11.9255,-5.7581,2.7725,-1.6028,-3.2050,-4.3361,-34.0500,-11.2500,31.6500,16.6000,-7.1800,-13.3400,-3.2038,-3.5594,-1.6635,-35.0625,34.5000,9.5625,359.0000,54.8750,-173.2500,0
1776971507.046,5.7772,1.7669,0.1245,-0.7296,-0.1692,0.2252,-79.6500,1.5000,-27.7500,11.9255,-5.7581,2.7725,-1.6028,-3.2050,-4.3361,-34.0500,-11.2500,31.6500,16.6000,-7.1800,-13.3400,-3.2038,-3.5594,-1.6635,-35.0625,34.5000,9.5625,359.0000,54.8750,-173.2500,0
1776971507.051,6.0980,2.3343,0.0000,-0.9513,-0.0171,0.3675,-79.6500,3.4500,-28.8000,11.2791,-4.8698,1.8196,-1.8530,-3.0326,-4.0969,-33.3000,-9.0000,30.1500,17.2200,-6.8900,-12.1300,-3.2987,-3.5986,-1.6712,-38.6875,31.6875,20.3750,3.8750,52.7500,-170.5625,0
1776971507.056,6.0980,2.3343,0.0000,-0.9513,-0.0171,0.3675,-79.6500,3.4500,-28.8000,11.2791,-4.8698,1.8196,-1.8530,-3.0326,-4.0969,-33.3000,-9.0000,30.1500,17.2200,-6.8900,-12.1300,-3.2987,-3.5986,-1.6712,-38.6875,31.6875,20.3750,3.8750,52.7500,-170.5625,0
1776971507.061,6.1627,2.8228,-0.5531,-1.2716,0.3357,0.5100,-79.5000,4.8000,-28.9500,10.7739,-1.9680,0.5674,-1.7560,-3.1016,-3.8360,-35.5500,-7.5000,29.5500,16.2400,-6.6300,-9.7900,-3.2965,-3.8703,-1.5893,-38.6875,31.6875,20.3750,9.0000,50.5000,-168.1250,0
1776971507.065,6.1627,2.8228,-0.5531,-1.2716,0.3357,0.5100,-79.5000,4.8000,-28.9500,10.7739,-1.9680,0.5674,-1.7560,-3.1016,-3.8360,-35.5500,-7.5000,29.5500,16.2400,-6.6300,-9.7900,-3.2965,-3.8703,-1.5893,-38.6875,31.6875,20.3750,9.0000,50.5000,-168.1250,0
1776971507.074,5.8993,4.0821,-1.6520,-1.4264,0.6504,0.6254,-80.5500,5.2500,-29.4000,10.5441,-1.0654,1.4150,-1.4107,-3.0182,-3.5575,-35.7000,-6.4500,27.6000,17.2800,-7.5300,-8.8000,-3.0990,-3.9346,-1.3526,-38.6875,31.6875,20.3750,14.1875,48.1875,-166.1250,0
1776971507.084,6.2968,5.6767,-2.2625,-1.4682,0.8122,0.6752,-79.8000,7.2000,-29.4000,10.4675,-1.2258,2.0758,-1.1021,-2.6526,-3.1653,-35.7000,-6.4500,27.6000,17.6400,-7.5800,-8.5900,-2.7947,-3.8266,-1.0930,-38.6875,31.6875,20.3750,19.1875,46.0000,-164.5000,0
1776971507.091,6.9360,6.7732,-1.7334,-1.3741,0.6736,0.6992,-79.8000,7.2000,-29.4000,10.7093,-1.0511,2.0853,-0.8236,-2.1365,-2.6148,-35.7000,-1.9500,25.8000,17.1900,-7.2100,-8.1700,-2.5689,-3.7241,-0.9163,-38.6875,31.6875,20.3750,24.1250,43.8750,-163.1875,0
1776971507.096,7.0773,7.5633,-1.1564,-1.1796,0.3890,0.7288,-79.8000,7.2000,-29.4000,10.7093,-1.0511,2.0853,-0.8236,-2.1365,-2.6148,-35.7000,-1.9500,25.8000,17.1900,-7.2100,-8.1700,-2.5689,-3.7241,-0.9163,-38.6875,31.6875,20.3750,24.1250,43.8750,-163.1875,0
1776971507.101,7.0773,7.5633,-1.1564,-1.1796,0.3890,0.7288,-80.5500,6.7500,-30.4500,9.2129,-0.1891,1.2210,-0.7469,-1.9764,-2.1490,-34.9500,-0.9000,24.3000,15.4500,-8.9900,-6.9800,-2.3344,-3.7154,-0.7003,-38.8750,23.6875,31.5625,351.1250,41.8125,-162.1250,0
1776971507.106,6.9623,8.2145,-0.6105,-1.0645,0.1913,0.7394,-80.5500,6.7500,-30.4500,9.2129,-0.1891,1.2210,-0.7469,-1.9764,-2.1490,-34.9500,-0.9000,24.3000,15.4500,-8.9900,-6.9800,-2.3344,-3.7154,-0.7003,-38.8750,23.6875,31.5625,351.1250,41.8125,-162.1250,0
1776971507.111,6.9623,8.2145,-0.6105,-1.0645,0.1913,0.7394,-80.5500,6.7500,-30.4500,8.9471,-0.8236,0.2274,-0.6408,-2.1506,-2.0646,-36.7500,0.4500,24.0000,15.4500,-8.9900,-6.9800,-2.0409,-3.6914,-0.3731,-38.8750,23.6875,31.5625,351.6250,39.8125,-161.3750,0
1776971507.115,6.3135,8.2193,-0.1030,-1.1301,0.3091,0.7160,-81.7500,7.9500,-29.7000,8.9471,-0.8236,0.2274,-0.6408,-2.1506,-2.0646,-36.7500,0.4500,24.0000,14.7600,-10.7600,-6.2500,-2.0409,-3.6914,-0.3731,-38.8750,23.6875,31.5625,352.3125,37.8750,-160.8750,0
1776971507.125,6.7229,7.6974,0.6273,-1.4029,0.5486,0.6995,-82.6500,7.3500,-30.6000,9.0644,-2.0853,1.4964,-0.3419,-1.9550,-1.7922,-36.3000,1.5000,22.8000,14.1500,-11.7800,-5.8500,-1.8664,-3.5997,0.0164,-38.8750,23.6875,31.5625,353.1875,36.1250,-160.4375,0
1776971507.135,6.2608,7.0844,0.8763,-1.4378,0.6209,0.7258,-81.1500,6.9000,-31.0500,9.1746,-2.7749,1.9034,-0.9705,-2.0856,-1.6092,-36.0000,2.4000,22.2000,13.9800,-11.7000,-5.6100,-1.8904,-3.5125,0.4461,-38.8750,23.6875,31.5625,353.1875,36.1250,-160.4375,0
1776971507.145,6.7540,6.4117,0.7063,-1.4218,0.7560,0.8306,-81.3000,7.9500,-30.1500,10.2807,-2.4445,1.0774,-1.4634,-2.1125,-1.6547,-36.0000,2.4000,22.2000,14.7200,-9.9000,-4.7800,-2.0497,-3.3467,0.9076,-38.8750,23.6875,31.5625,354.3750,34.5625,-160.1250,0
1776971507.149,6.7540,6.4117,0.7063,-1.4218,0.7560,0.8306,-81.3000,7.9500,-30.1500,9.1698,-0.6967,-0.6632,-1.7360,-2.1181,-1.5679,-37.2000,4.6500,19.0500,14.7200,-9.9000,-4.7800,-2.0497,-3.3467,0.9076,-38.8750,23.6875,31.5625,354.3750,34.5625,-160.1250,0
1776971507.154,6.6870,5.6216,0.2777,-1.6054,1.1205,0.9806,-81.3000,9.4500,-30.1500,9.1698,-0.6967,-0.6632,-1.7360,-2.1181,-1.5679,-37.2000,4.6500,19.0500,14.8300,-9.1500,-4.0400,-2.2231,-3.2430,1.3068,-36.1875,15.7500,46.3750,355.7500,33.1250,-159.7500,0
1776971507.159,6.6870,5.6216,0.2777,-1.6054,1.1205,0.9806,-81.3000,9.4500,-30.1500,8.5545,0.0551,-0.6009,-1.5732,-1.7413,-1.4019,-36.0000,9.1500,16.8000,14.8300,-9.1500,-4.0400,-2.2231,-3.2430,1.3068,-36.1875,15.7500,46.3750,355.7500,33.1250,-159.7500,0
1776971507.164,8.3653,5.2122,-0.3184,-1.6622,1.1386,1.1378,-81.3000,9.4500,-30.1500,8.5545,0.0551,-0.6009,-1.5732,-1.7413,-1.4019,-36.0000,9.1500,16.8000,14.5100,-8.4200,-2.7300,-2.3278,-3.1100,1.5817,-36.1875,15.7500,46.3750,357.3125,31.8125,-159.3750,0
1776971507.169,8.3653,5.2122,-0.3184,-1.6622,1.1386,1.1378,-81.3000,9.4500,-30.1500,9.4739,0.4812,-0.2849,-1.8231,-1.3035,-1.0147,-35.4000,7.2000,16.8000,14.5100,-8.4200,-2.7300,-2.3398,-2.9594,1.7017,-36.1875,15.7500,46.3750,358.8750,30.6250,-158.9375,0
1776971507.175,9.6151,5.4372,-0.8906,-1.3371,0.6507,1.2412,-81.7500,9.1500,-31.2000,9.4739,0.4812,-0.2849,-1.8231,-1.3035,-1.0147,-35.4000,7.2000,16.8000,12.7200,-6.6600,0.1500,-2.3398,-2.9594,1.7017,-36.1875,15.7500,46.3750,0.4375,29.5625,-158.5625,0
1776971507.185,9.4834,6.3422,-0.9720,-0.8985,0.1242,1.2729,-81.7500,9.1500,-31.2000,9.4499,1.1492,-1.1636,-1.9993,-0.8100,-0.5734,-34.6500,8.7000,16.5000,12.1000,-5.6200,1.2100,-2.2362,-2.6878,1.7159,-36.1875,15.7500,46.3750,1.9375,28.6875,-158.1875,0
1776971507.195,8.8394,6.8857,-0.7757,-0.7887,0.0179,1.2409,-82.5000,9.1500,-30.9000,9.1219,-0.3472,1.1205,-1.6252,-0.5289,-0.3222,-34.6500,8.7000,16.5000,12.0700,-4.5200,1.5500,-2.0082,-2.3769,1.6668,-36.1875,15.7500,46.3750,1.9375,28.6875,-158.1875,0
1776971507.200,8.8394,6.8857,-0.7757,-0.7887,0.0179,1.2409,-82.5000,9.1500,-30.9000,9.2249,2.8706,-1.2234,-1.4496,-0.4700,-0.1340,-34.6500,8.7000,16.5000,12.0700,-4.5200,1.5500,-2.0082,-2.3769,1.6668,-36.1875,15.7500,46.3750,1.9375,28.6875,-158.1875,0
1776971507.205,9.4355,7.0222,-0.4812,-0.9081,-0.0909,1.2087,-83.4000,8.5500,-29.2500,9.2249,2.8706,-1.2234,-1.4496,-0.4700,-0.1340,-34.6500,8.7000,16.5000,12.1100,-3.6300,1.6900,-1.6133,-1.9940,1.5959,-27.2500,8.0625,54.8750,3.2500,28.0000,-157.9375,0
1776971507.210,9.3877,7.5034,-0.2011,-0.9081,-0.0909,1.2087,-83.4000,8.5500,-29.2500,8.2624,2.8228,-3.1580,-1.4482,-0.4604,0.1399,-36.3000,10.0500,14.5500,12.1100,-3.6300,1.6900,-1.6133,-1.9940,1.5959,-27.2500,8.0625,54.8750,3.2500,28.0000,-157.9375,0
1776971507.215,9.3877,7.5034,-0.2011,-1.0373,-0.1695,1.2025,-83.8500,8.1000,-28.8000,7.6112,2.0997,-3.6105,-0.1737,-0.1807,0.3341,-36.3000,10.0500,14.5500,12.4900,-4.4300,1.8800,-1.1017,-1.7028,1.4933,-27.2500,8.0625,54.8750,4.3750,27.4375,-157.9375,0
1776971507.224,8.6957,7.7117,-0.4932,-0.9022,-0.1071,1.1786,-83.7000,6.7500,-28.9500,7.6112,2.0997,-3.6105,-0.1737,-0.1807,0.3341,-35.4000,9.4500,14.7000,13.0200,-3.8400,2.7200,-0.6240,-1.4454,1.2665,-27.2500,8.0625,54.8750,5.3125,26.9375,-158.0625,0
1776971507.228,8.6957,7.7117,-0.4932,-0.9022,-0.1071,1.1786,-83.7000,6.7500,-28.9500,7.7644,2.0590,-2.2984,0.2118,0.1585,0.6299,-35.5500,9.0000,15.3000,13.0200,-3.8400,2.7200,-0.6240,-1.4454,1.2665,-27.2500,8.0625,54.8750,6.0000,26.5625,-158.3125,0
1776971507.235,8.9807,7.8578,-0.7254,-0.6174,-0.0669,1.1791,-81.7500,7.5000,-27.9000,7.5417,2.1117,-2.1045,0.3898,0.4810,0.9126,-35.5500,9.0000,15.3000,12.5500,-3.5600,3.9300,-0.2498,-1.1650,1.0079,-27.2500,8.0625,54.8750,6.5625,26.3125,-158.6875,0
1776971507.245,8.8011,7.6471,-0.9984,-0.3144,-0.1362,1.2073,-84.1500,6.9000,-28.0500,7.5369,1.6113,-2.4421,0.6379,0.8111,1.1738,-35.5500,10.5000,15.3000,11.0700,-4.0200,4.8400,0.1505,-0.8399,0.8247,-27.2500,8.0625,54.8750,6.5625,26.3125,-158.6875,0
1776971507.250,9.4499,7.3023,-1.6209,0.0866,-0.1903,1.2497,-84.1500,6.9000,-28.0500,7.5369,1.6113,-2.4421,0.6379,0.8111,1.1738,-35.5500,10.5000,15.3000,11.0700,-4.0200,4.8400,0.1505,-0.8399,0.8247,-27.2500,8.0625,54.8750,6.8125,26.1875,-159.2500,0
1776971507.255,9.4499,7.3023,-1.6209,0.0866,-0.1903,1.2497,-84.1500,6.9000,-28.0500,10.6877,3.0622,-2.1284,0.7965,1.4149,1.2159,-35.5500,10.5000,15.3000,9.2100,-4.1100,5.2000,0.6414,-0.4243,0.5978,-20.0000,0.6875,59.6875,6.8125,26.1875,-159.2500,0
1776971507.260,9.6630,7.2449,-1.5969,0.2870,-0.0096,1.4146,-84.1500,6.9000,-28.0500,10.6877,3.0622,-2.1284,0.7965,1.4149,1.2159,-36.3000,9.0000,18.1500,9.2100,-4.1100,5.2000,0.6414,-0.4243,0.5978,-20.0000,0.6875,59.6875,6.7500,26.2500,-159.9375,0
1776971507.265,9.6630,7.2449,-1.5969,0.2870,-0.0096,1.4146,-83.2500,4.5000,-27.4500,12.7946,4.3072,1.2426,0.8844,1.4362,1.1591,-36.3000,9.0000,18.1500,4.9400,-3.1100,6.8000,1.1726,0.0164,0.1353,-20.0000,0.6875,59.6875,6.7500,26.2500,-159.9375,0
1776971507.270,9.6199,6.1746,-0.7973,0.1831,0.1143,1.4749,-83.2500,4.5000,-27.4500,12.7946,4.3072,1.2426,0.8844,1.4362,1.1591,-36.3000,7.5000,18.1500,4.9400,-3.1100,6.8000,1.8610,1.1563,1.1410,-20.0000,0.6875,59.6875,7.0625,27.0625,-161.1250,0
1776971507.276,9.6199,6.1746,-0.7973,0.1831,0.1143,1.4749,-83.2500,4.5000,-27.4500,14.1449,6.5050,-1.9848,0.3158,0.6728,0.7378,-35.4000,5.7000,19.3500,5.3600,6.6000,-10.6400,1.8610,1.1563,1.1410,-20.0000,0.6875,59.6875,7.6875,28.0625,-162.6875,0
1776971507.285,9.8976,4.9799,0.2849,-0.1820,0.0882,1.4421,-82.2000,3.6000,-25.3500,13.3070,5.3798,-4.1563,0.7546,0.4506,0.5854,-35.5500,5.7000,19.3500,7.6100,10.2400,-22.2600,2.0159,1.3766,1.8577,-20.0000,0.6875,59.6875,8.4375,29.0000,-164.3125,0
1776971507.295,11.0660,3.3519,1.1420,-0.4738,0.1058,1.4615,-81.9000,3.9000,-25.8000,11.9710,2.2769,-5.9472,1.3624,0.1535,0.5684,-36.0000,7.2000,18.3000,7.8200,10.4800,-12.7500,2.0595,1.0614,2.1031,-20.0000,0.6875,59.6875,8.4375,29.0000,-164.3125,0
1776971507.300,13.2711,1.3240,-0.0048,-0.5894,0.3110,1.6374,-81.9000,3.9000,-25.8000,11.9710,2.2769,-5.9472,1.3624,0.1535,0.5684,-36.0000,7.2000,18.3000,7.8200,10.4800,-12.7500,2.0595,1.0614,2.1031,-20.0000,0.6875,59.6875,8.4375,29.0000,-164.3125,0
1776971507.305,13.2711,1.3240,-0.0048,-0.5894,0.3110,1.6374,-81.9000,4.6500,-25.0500,13.5943,-5.3558,-6.9791,1.8114,-0.0925,0.5710,-36.0000,7.2000,18.3000,0.2800,5.7600,-6.1400,1.9733,1.1214,1.8522,-17.0625,2.5000,60.7500,9.1250,29.8750,-165.8750,0
1776971507.310,16.0914,-0.1125,-1.4509,-0.5284,0.1801,1.7861,-81.9000,4.6500,-25.0500,13.5943,-5.3558,-6.9791,1.8114,-0.0925,0.5710,-36.0000,7.2000,18.3000,0.2800,5.7600,-6.1400,1.9733,1.1214,1.8522,-17.0625,2.5000,60.7500,9.1250,29.8750,-165.8750,0
1776971507.315,16.0914,-0.1125,-1.4509,-0.5284,0.1801,1.7861,-82.5000,4.5000,-24.6000,15.8472,-5.7485,-1.1157,0.8497,0.6110,0.5428,-36.0000,7.2000,18.3000,2.8600,-3.0300,-3.3600,1.7410,1.5468,0.8650,-17.0625,2.5000,60.7500,9.2500,30.8125,-167.0000,0
1776971507.323,16.9342,-0.5315,-2.3774,-0.6166,0.0000,1.7944,-83.7000,2.8500,-24.1500,14.9877,-3.7900,1.5395,-0.1007,1.0445,0.6209,-36.7500,7.6500,19.3500,28.6200,-15.1800,-25.3700,2.4184,1.9188,-0.8410,-17.0625,2.5000,60.7500,8.3125,31.7500,-167.9375,0
1776971507.327,16.8839,-0.0814,-1.3671,-0.8196,-0.3088,1.5974,-83.7000,2.8500,-24.1500,14.9877,-3.7900,1.5395,-0.1007,1.0445,0.6209,-36.7500,5.7000,18.3000,28.6200,-15.1800,-25.3700,2.4184,1.9188,-0.8410,-17.0625,2.5000,60.7500,7.8750,33.1875,-168.6250,0
1776971507.335,12.5265,-0.8547,0.8188,-0.8196,-0.3088,1.5974,-83.1000,0.7500,-24.3000,14.2263,-1.4892,-0.2658,-0.1687,1.2926,0.7418,-36.3000,4.8000,20.2500,18.9400,-9.4500,-17.3400,1.6330,2.6954,-0.0185,-17.0625,2.5000,60.7500,8.0000,34.5625,-169.3750,0
1776971507.345,10.4315,-1.9273,1.9273,-1.5484,-0.3413,0.9606,-83.1000,0.7500,-24.3000,10.9080,-0.6991,0.0311,0.7131,1.4669,0.7477,-35.7000,6.1500,21.1500,10.8200,3.4000,-8.0700,1.1574,2.3246,0.7494,-17.0625,2.5000,60.7500,8.0000,34.5625,-169.3750,0
1776971507.350,10.4315,-1.9273,1.9273,-1.5484,-0.3413,0.9606,-83.1000,0.7500,-24.3000,10.9080,-0.6991,0.0311,1.2614,1.6971,0.8615,-35.7000,6.1500,21.1500,10.8200,3.4000,-8.0700,1.1574,2.3246,0.7494,-17.0625,2.5000,60.7500,7.9375,35.6250,-169.6875,0
1776971507.355,8.4539,-2.0901,1.1037,-1.5092,-0.5263,0.9747,-81.7500,-0.4500,-22.3500,9.6822,0.7949,0.9864,1.2614,1.6971,0.8615,-34.9500,4.9500,21.9000,10.9500,-4.4700,-12.1500,0.5618,1.9308,0.3240,-22.5625,9.8750,60.6875,7.9375,35.6250,-169.6875,0
1776971507.360,8.4539,-2.0901,1.1037,-1.5092,-0.5263,0.9747,-81.7500,-0.4500,-22.3500,8.9376,2.4014,2.2769,1.6779,1.4999,1.0155,-34.9500,4.9500,21.9000,10.9500,-4.4700,-12.1500,0.5618,1.9308,0.3240,-22.5625,9.8750,60.6875,7.9375,36.1250,-170.0625,0
1776971507.365,7.0198,-2.4062,-1.1420,-1.3896,-0.2518,1.1991,-80.1000,-1.9500,-21.0000,8.9376,2.4014,2.2769,1.6779,1.4999,1.0155,-34.9500,4.9500,21.9000,7.5600,-6.3200,-10.0100,0.6240,0.9327,0.1756,-22.5625,9.8750,60.6875,7.9375,36.1250,-170.0625,0
1776971507.371,7.0198,-2.4062,-1.1420,-1.3896,-0.2518,1.1991,-80.1000,-1.9500,-21.0000,9.2129,2.8778,3.2872,1.7309,1.0714,0.9337,-34.9500,4.9500,21.9000,7.5600,-6.3200,-10.0100,0.4112,0.5629,0.0502,-22.5625,9.8750,60.6875,7.8125,36.4375,-170.2500,0
1776971507.376,6.8067,-2.0973,-1.7262,-1.5740,-0.0248,1.3728,-80.4000,-3.9000,-18.7500,9.2129,2.8778,3.2872,1.7309,1.0714,0.9337,-36.7500,4.6500,24.0000,7.6600,2.6400,-8.2100,0.4112,0.5629,0.0502,-22.5625,9.8750,60.6875,7.7500,36.7500,-170.3125,0
1776971507.385,7.3981,-1.2402,-0.1077,-1.8618,0.0645,1.4416,-79.6500,-3.0000,-20.2500,8.6910,2.9209,2.0470,1.6398,0.7605,0.8263,-35.8500,4.0500,24.4500,7.7800,2.6900,-7.2500,0.1625,0.5432,-0.0415,-22.5625,9.8750,60.6875,7.6875,37.0000,-170.1875,0
1776971507.395,8.6694,-0.0024,2.0973,-2.1189,-0.1130,1.5028,-80.5500,-3.6000,-19.3500,8.6718,2.7557,0.1317,1.4552,0.5020,0.7048,-36.3000,2.5500,23.8500,7.1400,0.8900,-7.4500,0.0055,0.4778,-0.0993,-22.5625,9.8750,60.6875,7.6875,37.0000,-170.1875,0
1776971507.400,8.6694,-0.0024,2.0973,-2.1189,-0.1130,1.5028,-80.5500,-3.6000,-19.3500,8.8729,1.6735,-0.7039,1.2383,0.4205,0.7424,-36.3000,2.5500,23.8500,7.1400,0.8900,-7.4500,0.0055,0.4778,-0.0993,-22.5625,9.8750,60.6875,7.6250,37.1250,-170.0625,0
1776971507.405,9.2799,0.1700,3.5530,-2.1778,-0.4050,1.4506,-80.5500,-3.6000,-18.3000,8.8729,1.6735,-0.7039,1.2383,0.4205,0.7424,-36.7500,2.7000,25.0500,6.4600,0.0200,-7.6900,-0.1309,0.2400,-0.1025,-28.0625,12.6875,59.0000,7.6250,37.1250,-170.0625,0
1776971507.410,9.2799,0.1700,3.5530,-2.1778,-0.4050,1.4506,-80.5500,-3.6000,-18.3000,8.9711,1.0463,-0.9074,0.7869,0.5063,0.7202,-36.7500,2.7000,25.0500,6.4600,0.0200,-7.6900,-0.1309,0.2400,-0.1025,-28.0625,12.6875,59.0000,7.6250,37.1250,-169.9375,0
1776971507.415,8.2552,-0.4812,3.9121,-2.1541,-0.3781,1.3283,-80.5500,-3.6000,-18.3000,8.9711,1.0463,-0.9074,0.7869,0.5063,0.7202,-36.7500,2.7000,25.0500,4.7500,0.6100,-7.6600,-0.1854,0.0022,-0.0709,-28.0625,12.6875,59.0000,7.6250,37.1250,-169.9375,0
1776971507.425,8.7700,-0.5315,4.3527,-2.1186,-0.2646,1.1343,-81.0000,-6.0000,-18.3000,7.9966,1.4246,-0.7781,-0.0765,0.6083,0.5804,-35.8500,1.0500,26.2500,4.9400,1.1700,-7.4300,-0.1276,-0.0447,-0.0164,-28.0625,12.6875,59.0000,7.6250,37.1250,-169.8750,0
1776971507.434,9.0621,0.6488,4.4317,-2.1136,0.0080,0.9550,-81.0000,-6.0000,-18.3000,9.3589,0.8643,1.3719,-1.2849,0.8127,0.4399,-36.7500,1.6500,24.7500,5.0400,1.1400,-7.2400,0.0120,0.1276,0.0415,-28.0625,12.6875,59.0000,7.6875,37.1875,-169.8750,0
1776971507.439,9.0621,0.6488,4.4317,-2.1136,0.0080,0.9550,-81.0000,-6.0000,-18.3000,9.1698,1.9010,0.0670,-1.7104,0.9177,0.4104,-36.7500,1.6500,24.7500,5.0400,1.1400,-7.2400,0.0120,0.1276,0.0415,-28.0625,12.6875,59.0000,7.7500,37.3125,-169.9375,0
1776971507.446,9.2368,1.5323,4.0821,-2.1605,0.3997,0.7805,-79.6500,-3.9000,-19.5000,9.1698,1.9010,0.0670,-1.7104,0.9177,0.4104,-36.4500,0.9000,26.1000,5.4900,0.7000,-7.6200,0.0622,0.2062,0.1418,-28.0625,12.6875,59.0000,7.7500,37.3125,-169.9375,0
1776971507.451,9.1506,2.1069,3.0191,-2.1605,0.3997,0.7805,-79.6500,-3.9000,-19.5000,9.7971,2.0734,-0.4142,-1.9785,0.9910,0.5444,-36.4500,0.9000,26.1000,5.4900,0.7000,-7.6200,0.0676,0.1364,0.2443,-30.1875,12.2500,58.1875,7.8750,37.3750,-170.0625,0
1776971507.456,9.1506,2.1069,3.0191,-2.1799,0.5721,0.6744,-80.5500,-5.5500,-19.0500,9.7971,2.0734,-0.4142,-1.9785,0.9910,0.5444,-33.3000,3.0000,27.0000,6.0000,1.1000,-7.3800,0.0676,0.1364,0.2443,-30.1875,12.2500,58.1875,7.8750,37.3750,-170.0625,0
1776971507.461,9.0884,2.4349,1.8866,-2.1474,0.6078,0.6630,-80.5500,-5.5500,-19.0500,9.4092,3.0406,-0.0359,-1.8743,0.7290,0.4959,-33.3000,3.0000,27.0000,6.0000,1.1000,-7.3800,0.0971,0.1014,0.3011,-30.1875,12.2500,58.1875,8.0000,37.5000,-170.2500,0
1776971507.466,9.0884,2.4349,1.8866,-2.1474,0.6078,0.6630,-80.4000,-4.9500,-18.4500,9.4092,3.0406,-0.0359,-1.8743,0.7290,0.4959,-35.1000,2.2500,25.6500,6.1600,1.0500,-7.4900,0.0971,0.1014,0.3011,-30.1875,12.2500,58.1875,8.0000,37.5000,-170.2500,0
1776971507.472,8.9830,2.0686,1.0391,-2.0760,0.5590,0.6742,-80.4000,-4.9500,-18.4500,10.4459,4.1420,-1.1540,-1.4538,0.9923,0.6787,-35.1000,2.2500,25.6500,6.2700,0.9000,-7.6500,0.1189,-0.0142,0.3502,-30.1875,12.2500,58.1875,8.1875,37.5000,-170.5000,0
1776971507.477,8.9830,2.0686,1.0391,-2.0760,0.5590,0.6742,-79.8000,-5.2500,-18.3000,10.5105,2.7797,0.1676,-1.2817,0.7818,0.7767,-35.1000,2.2500,25.6500,6.2700,0.9000,-7.6500,0.1189,-0.0142,0.3502,-30.1875,12.2500,58.1875,8.3125,37.5000,-170.7500,0
1776971507.486,9.3470,1.2330,0.8092,-2.0741,0.4221,0.7000,-79.8000,-7.2000,-19.0500,8.9064,1.5562,-0.9457,-0.9785,0.5833,0.8013,-36.4500,2.7000,27.1500,5.9400,0.4100,-8.2600,0.1833,-0.0687,0.3796,-30.1875,12.2500,58.1875,8.5625,37.4375,-171.0625,0
1776971507.495,9.2584,0.0718,1.2067,-2.1735,0.2902,0.7061,-79.8000,-5.5500,-18.6000,8.9256,0.6249,0.6991,-0.8386,0.7317,0.7986,-34.8000,0.7500,26.7000,6.2300,0.0000,-9.0300,0.1909,-0.1298,0.4287,-30.1875,12.2500,58.1875,8.5625,37.4375,-171.0625,0
1776971507.500,9.5289,-0.3304,1.4581,-2.3260,0.0767,0.7061,-79.8000,-5.5500,-18.6000,8.9256,0.6249,0.6991,-0.8386,0.7317,0.7986,-34.8000,0.7500,26.7000,6.2300,0.0000,-9.0300,0.1909,-0.1298,0.4287,-30.1875,12.2500,58.1875,8.6875,37.5625,-171.3125,0
1776971507.505,9.5289,-0.3304,1.4581,-2.3260,0.0767,0.7061,-79.8000,-5.5500,-18.6000,9.3206,0.9984,0.9553,-0.8865,0.7594,0.8266,-36.0000,0.1500,26.8500,6.2900,0.0400,-8.4300,0.2203,0.0927,0.3152,-30.5625,12.6875,58.5000,8.6875,37.5625,-171.3125,0
1776971507.510,9.2895,-0.7566,2.0997,-2.4499,-0.0746,0.7442,-79.8000,-5.5500,-18.6000,9.3206,0.9984,0.9553,-0.8865,0.7594,0.8266,-36.0000,0.1500,26.8500,6.2900,0.0400,-8.4300,0.2203,0.0927,0.3152,-30.5625,12.6875,58.5000,8.7500,37.8750,-171.4375,0
1776971507.515,9.2895,-0.7566,2.0997,-2.4499,-0.0746,0.7442,-79.6500,-4.6500,-17.4000,9.4954,1.4964,1.0487,-0.9278,0.7163,0.7725,-36.7500,1.2000,27.1500,6.0900,1.0800,-7.4600,0.1745,0.5661,0.2094,-30.5625,12.6875,58.5000,8.7500,37.8750,-171.4375,0
1776971507.523,9.2225,0.1460,2.3774,-2.4920,-0.0837,0.7645,-79.6500,-4.6500,-17.4000,9.4954,1.4964,1.0487,-0.9278,0.7163,0.7725,-35.1000,1.0500,28.0500,6.1800,1.0900,-7.5100,0.1571,0.5574,0.2105,-30.5625,12.6875,58.5000,8.8125,38.1875,-171.5625,0
1776971507.528,9.4116,-0.2035,2.9928,-2.4560,-0.0496,0.7762,-79.6500,-4.6500,-17.4000,9.2632,1.2641,1.1013,-0.9334,0.6672,0.7341,-35.1000,1.0500,28.0500,6.1800,1.0900,-7.5100,0.1571,0.5574,0.2105,-30.5625,12.6875,58.5000,8.8750,38.4375,-171.7500,0
1776971507.536,9.4116,-0.2035,2.9928,-2.4560,-0.0496,0.7762,-81.7500,-5.5500,-18.3000,9.6917,0.7446,0.5914,-0.9822,0.6568,0.7237,-35.1000,1.0500,28.0500,6.1300,0.6200,-7.6900,0.1473,0.3905,0.2542,-30.5625,12.6875,58.5000,9.0000,38.6875,-171.8750,0
1776971507.546,9.2536,0.5052,3.2537,-2.3369,0.0418,0.7464,-78.7500,-5.5500,-19.3500,9.7324,0.8356,0.3783,-0.9859,0.6648,0.7088,-36.7500,-0.1500,28.2000,6.0300,0.7400,-7.7000,0.1244,0.4331,0.2378,-30.5625,12.6875,58.5000,9.0000,38.6875,-171.8750,0
1776971507.551,9.3446,0.9840,2.9257,-2.1882,0.1444,0.7104,-78.7500,-5.5500,-19.3500,9.7324,0.8356,0.3783,-0.9859,0.6648,0.7088,-36.7500,-0.1500,28.2000,6.0300,0.7400,-7.7000,0.1244,0.4331,0.2378,-30.5625,12.6875,58.5000,9.0000,38.6875,-171.8750,0
1776971507.556,9.1435,1.7717,2.6456,-2.1882,0.1444,0.7104,-80.1000,-6.6000,-19.9500,9.7205,1.3575,0.1197,-1.0941,0.6662,0.7202,-35.4000,2.4000,27.9000,6.1600,0.6400,-7.6800,0.1091,0.4832,0.2334,-30.5625,14.5000,57.6875,9.0625,39.0000,-172.0625,0
1776971507.560,9.1435,1.7717,2.6456,-2.0384,0.1839,0.6837,-80.1000,-6.6000,-19.9500,9.7205,1.3575,0.1197,-1.0941,0.6662,0.7202,-35.1000,0.7500,28.0500,6.1600,0.6400,-7.6800,0.1091,0.4832,0.2334,-30.5625,14.5000,57.6875,9.0625,39.0000,-172.0625,0
1776971507.566,9.0812,1.9465,2.4349,-2.0384,0.1839,0.6837,-82.3500,-6.6000,-18.4500,9.6414,1.9704,-0.0622,-1.2313,0.6480,0.7829,-35.1000,0.7500,28.0500,6.2300,0.5700,-7.4900,0.1145,0.4734,0.2302,-30.5625,14.5000,57.6875,9.1875,39.2500,-172.1875,0
1776971507.571,9.0812,1.9465,2.4349,-1.8919,0.1681,0.6446,-82.3500,-6.6000,-18.4500,9.6414,1.9704,-0.0622,-1.2313,0.6480,0.7829,-36.3000,-1.0500,27.7500,6.2300,0.5700,-7.4900,0.1178,0.4734,0.2280,-30.5625,14.5000,57.6875,9.2500,39.5000,-172.3125,0
1776971507.576,9.1626,2.3870,2.2434,-1.7965,0.1396,0.6171,-81.0000,-5.2500,-18.3000,9.6175,2.1117,-0.5770,-1.3097,0.7717,0.8847,-36.3000,-1.0500,27.7500,5.8400,1.0700,-7.4000,0.1178,0.4734,0.2280,-30.5625,14.5000,57.6875,9.3750,39.8125,-172.5000,0
1776971507.586,9.2033,2.6456,2.2505,-1.7408,0.0695,0.5793,-80.1000,-5.8500,-19.2000,9.5026,2.1165,-1.2234,-1.4131,0.7125,0.9435,-36.3000,-1.0500,27.7500,5.7100,1.2400,-7.2400,0.1396,0.5334,0.2531,-30.5625,14.5000,57.6875,9.5000,40.1875,-172.6875,0
1776971507.596,9.1171,2.7126,2.1931,-1.6758,-0.0117,0.5185,-80.1000,-5.8500,-19.2000,9.3470,1.9106,-1.1061,-1.4722,0.6310,0.9867,-36.3000,-1.0500,27.7500,5.9600,1.1800,-7.3400,0.1582,0.5989,0.2978,-30.5625,14.5000,57.6875,9.5000,40.1875,-172.6875,0
1776971507.600,9.1171,2.7126,2.1931,-1.6758,-0.0117,0.5185,-80.1000,-5.8500,-19.2000,9.3470,1.9106,-1.1061,-1.4722,0.6310,0.9867,-35.1000,-1.5000,29.1000,5.9600,1.1800,-7.3400,0.1582,0.5989,0.2978,-30.5625,14.5000,57.6875,9.6250,40.5625,-172.8750,0
1776971507.606,9.0118,2.7988,2.0877,-1.5292,-0.1287,0.4546,-79.6500,-5.8500,-19.2000,9.2296,1.7861,-1.1612,-1.3640,0.7083,1.0674,-35.1000,-1.5000,29.1000,6.0800,1.0300,-7.2300,0.1582,0.6621,0.3240,-30.8750,16.6875,57.6875,9.6250,40.5625,-172.8750,0
1776971507.610,9.0118,2.7988,2.0877,-1.5292,-0.1287,0.4546,-79.6500,-5.8500,-19.2000,9.2296,1.7861,-1.1612,-1.3640,0.7083,1.0674,-35.8500,0.7500,29.1000,6.0800,1.0300,-7.2300,0.1582,0.6621,0.3240,-30.8750,16.6875,57.6875,9.7500,41.0000,-173.0625,0
1776971507.615,8.9615,2.2122,2.0542,-1.3707,-0.1799,0.4170,-79.6500,-5.8500,-19.2000,9.8761,0.9912,0.4118,-1.1223,0.8436,1.1029,-35.8500,0.7500,29.1000,5.6400,1.0400,-7.2200,0.1244,0.6818,0.3502,-30.8750,16.6875,57.6875,9.7500,41.0000,-173.0625,0
1776971507.622,8.9615,2.2122,2.0542,-1.3707,-0.1799,0.4170,-81.6000,-5.4000,-18.4500,9.7995,0.8882,0.1125,-0.9451,0.6590,1.0624,-35.7000,-1.2000,30.0000,5.6000,1.0600,-7.0600,0.1134,0.7472,0.3916,-30.8750,16.6875,57.6875,9.9375,41.4375,-173.2500,0
1776971507.627,9.1794,2.2984,2.1165,-1.1967,-0.1556,0.4165,-80.5500,-5.2500,-19.3500,9.7995,0.8882,0.1125,-0.9451,0.6590,1.0624,-35.7000,-1.2000,30.0000,5.6000,1.0600,-7.0600,0.1134,0.7472,0.3916,-30.8750,16.6875,57.6875,10.1250,41.9375,-173.5000,0
1776971507.636,9.4763,2.0590,2.2362,-0.9931,-0.1178,0.4479,-80.5500,-5.2500,-19.3500,9.9647,0.8523,0.6177,-0.6947,0.7139,0.9542,-34.8000,-1.8000,29.1000,5.6400,1.0900,-6.8000,0.1058,0.8530,0.4461,-30.8750,16.6875,57.6875,10.3750,42.5000,-173.7500,0
1776971507.646,9.2416,1.9992,2.1069,-0.7943,-0.0538,0.4884,-80.1000,-5.4000,-17.4000,9.8857,-0.1341,0.7781,-0.4860,0.5926,0.9124,-34.8000,-1.8000,29.1000,7.0500,0.0500,-9.4800,0.0894,0.9643,0.5236,-30.8750,16.6875,57.6875,10.3750,42.5000,-173.7500,0
1776971507.651,9.2416,1.9992,2.1069,-0.7943,-0.0538,0.4884,-80.1000,-5.4000,-17.4000,9.1506,-1.4389,0.7973,-0.2910,0.5169,0.9033,-33.9000,-2.7000,31.0500,7.0500,0.0500,-9.4800,0.0894,0.9643,0.5236,-30.8750,16.6875,57.6875,10.3750,42.5000,-173.7500,0
1776971507.656,8.8083,1.8268,1.7909,-0.6582,-0.0203,0.5534,-80.1000,-5.4000,-17.4000,9.1506,-1.4389,0.7973,-0.2910,0.5169,0.9033,-33.9000,-2.7000,31.0500,7.3500,-1.9200,-6.6600,0.0360,1.0396,0.6109,-32.3750,17.0625,56.7500,10.6875,43.0625,-174.0625,0
1776971507.661,8.8083,1.8268,1.7909,-0.6582,-0.0203,0.5534,-79.5000,-6.4500,-18.3000,9.0644,-2.3918,1.4868,-0.5185,0.6686,0.9515,-33.9000,-1.9500,29.7000,7.3500,-1.9200,-6.6600,0.0360,1.0396,0.6109,-32.3750,17.0625,56.7500,10.6875,43.0625,-174.0625,0
1776971507.666,8.7077,1.8076,1.3144,-0.5686,-0.0663,0.6134,-79.5000,-6.4500,-18.3000,9.0644,-2.3918,1.4868,-0.5185,0.6686,0.9515,-33.9000,-1.9500,29.7000,7.5800,0.2300,-7.2900,-0.0742,1.0657,0.4581,-32.3750,17.0625,56.7500,10.9375,43.6875,-174.1875,0
1776971507.671,8.7077,1.8076,1.3144,-0.5686,-0.0663,0.6134,-79.5000,-6.4500,-18.3000,9.6534,-2.3463,1.4868,-0.6893,0.9017,1.0064,-34.0500,-1.8000,29.8500,7.5800,0.2300,-7.2900,0.0338,1.0952,0.2771,-32.3750,17.0625,56.7500,11.0625,44.3125,-174.3125,0
1776971507.677,8.7771,1.7454,1.1372,-0.4948,-0.1396,0.6861,-80.2500,-5.2500,-19.8000,9.6534,-2.3463,1.4868,-0.6893,0.9017,1.0064,-34.0500,-1.8000,29.8500,8.7300,-0.7700,-8.7700,0.0338,1.0952,0.2771,-32.3750,17.0625,56.7500,22.3125,44.8750,-174.3750,0
1776971507.686,9.1985,1.5634,1.3551,-0.4133,-0.1847,0.7839,-80.2500,-5.2500,-19.8000,10.2448,-1.5275,1.5969,-0.7266,1.0440,0.9982,-34.5000,-2.5500,29.5500,6.6600,-0.3800,-7.5500,0.0415,1.0014,0.1865,-32.3750,17.0625,56.7500,22.3125,44.8750,-174.3750,0
1776971507.696,9.2273,1.2139,1.5969,-0.2851,-0.1895,0.8689,-80.2500,-5.2500,-19.8000,9.8497,-0.8332,0.7614,-0.7887,1.1175,1.0403,-35.1000,-3.7500,31.3500,6.8900,0.7700,-7.2500,0.0185,0.9708,0.1582,-32.3750,17.0625,56.7500,22.0625,45.4375,-174.3750,0
1776971507.701,9.1435,0.9984,1.6017,-0.2851,-0.1895,0.8689,-80.1000,-5.8500,-20.7000,10.0173,-0.6943,0.8475,-0.7445,1.1271,1.0922,-35.1000,-3.7500,31.3500,6.8900,0.7700,-7.2500,0.0185,0.9708,0.1582,-32.3750,17.0625,56.7500,21.8750,46.0000,-174.4375,0
1776971507.706,9.1435,0.9984,1.6017,-0.2012,-0.0895,0.9433,-80.1000,-5.8500,-20.7000,10.0173,-0.6943,0.8475,-0.7445,1.1271,1.0922,-35.1000,-3.7500,31.3500,7.6500,0.7300,-6.8500,-0.0196,1.0603,0.1582,-35.0000,17.3750,55.1875,21.8750,46.0000,-174.4375,0
1776971507.711,9.3111,1.0606,1.5155,-0.1199,-0.0224,1.0099,-79.6500,-4.6500,-20.2500,9.7252,-0.4262,-0.0407,-0.6963,1.1138,1.1330,-34.0500,-3.7500,31.3500,7.6500,0.7300,-6.8500,-0.0196,1.0603,0.1582,-35.0000,17.3750,55.1875,21.7500,46.5625,-174.4375,0
1776971507.716,9.3111,1.0606,1.5155,-0.1199,-0.0224,1.0099,-79.6500,-4.6500,-20.2500,9.7252,-0.4262,-0.0407,-0.6963,1.1138,1.1330,-34.0500,-3.7500,31.3500,7.3200,0.0000,-6.6800,-0.0295,0.9338,0.1494,-35.0000,17.3750,55.1875,21.7500,46.5625,-174.4375,0
1776971507.724,9.7540,1.3886,1.5203,0.0133,-0.0085,1.0512,-79.8000,-5.2500,-20.5500,9.6247,0.5219,0.0192,-0.6083,1.1719,1.1453,-33.7500,-5.2500,30.9000,7.3200,-0.3300,-6.9500,-0.1298,0.7636,0.1854,-35.0000,17.3750,55.1875,21.6875,47.0000,-174.4375,0
1776971507.729,9.7276,1.8651,1.5395,0.0133,-0.0085,1.0512,-81.0000,-6.0000,-21.9000,10.3046,0.2394,-1.6137,-0.5633,1.0824,1.2073,-34.0500,-4.5000,33.0000,7.3200,-0.3300,-6.9500,-0.1298,0.7636,0.1854,-35.0000,17.3750,55.1875,21.8750,47.4375,-174.3125,0
1776971507.736,9.7276,1.8651,1.5395,0.0839,-0.0685,1.0741,-81.0000,-6.7500,-21.9000,10.3046,0.2394,-1.6137,-0.5633,1.0824,1.2073,-34.0500,-4.5000,33.0000,6.3000,-0.3300,-6.5900,-0.2422,0.7810,0.1374,-35.0000,17.3750,55.1875,22.0625,48.0000,-174.1250,0
1776971507.746,9.5984,2.9736,1.7406,0.1191,-0.1745,1.0525,-81.0000,-6.7500,-19.3500,9.5265,-0.1772,-0.8643,-0.4884,1.2289,1.3350,-32.4000,-6.1500,32.5500,8.4200,-0.8300,-6.5300,-0.2683,1.0177,-0.0164,-35.0000,17.3750,55.1875,22.0625,48.0000,-174.1250,0
1776971507.751,9.9144,3.7589,1.5323,0.0677,-0.2182,1.0011,-80.5500,-7.2000,-20.8500,10.0820,0.7542,-0.7661,-0.4900,1.3326,1.4072,-32.8500,-6.4500,33.6000,8.4200,-0.8300,-6.5300,-0.2683,1.0177,-0.0164,-35.0000,17.3750,55.1875,22.3125,48.5625,-173.8125,0
1776971507.756,9.9144,3.7589,1.5323,0.0677,-0.2182,1.0011,-80.5500,-7.2000,-20.8500,10.0820,0.7542,-0.7661,-0.4900,1.3326,1.4072,-32.8500,-6.4500,33.6000,7.8000,-0.6900,-6.5100,-0.2073,1.0821,-0.2040,-37.7500,18.8750,54.0000,22.3125,48.5625,-173.8125,0
1776971507.761,10.1682,3.7014,1.5251,0.0408,-0.1375,0.9302,-80.5500,-7.2000,-20.8500,11.0780,1.5251,-1.7980,-0.3882,1.4128,1.4005,-32.8500,-6.4500,33.6000,7.8000,-0.6900,-6.5100,-0.2073,1.0821,-0.2040,-37.7500,18.8750,54.0000,22.6250,49.1250,-173.4375,0
1776971507.766,10.1682,3.7014,1.5251,0.0408,-0.1375,0.9302,-80.5500,-7.2000,-20.8500,11.0780,1.5251,-1.7980,-0.3733,1.3662,1.4077,-32.8500,-6.4500,33.6000,7.1900,-0.4100,-6.9600,-0.2258,0.9948,-0.2705,-37.7500,18.8750,54.0000,22.6250,49.1250,-173.4375,0
1776971507.771,10.1011,3.1627,1.4988,0.0858,-0.0514,0.8378,-81.3000,-6.7500,-20.5500,11.1211,2.2098,-1.6807,-0.3733,1.3662,1.4077,-32.4000,-6.1500,34.3500,7.1900,-0.4100,-6.9600,-0.2607,1.2239,-0.2247,-37.7500,18.8750,54.0000,22.9375,49.7500,-173.0625,0
1776971507.777,9.8857,3.0239,1.5610,0.0858,-0.0514,0.8378,-81.3000,-6.7500,-20.5500,10.7260,2.7174,-1.7502,-0.3944,1.4045,1.4741,-31.5000,-7.8000,34.8000,7.0200,-0.1300,-7.0500,-0.2607,1.2239,-0.2247,-37.7500,18.8750,54.0000,23.3125,50.6875,-172.6875,0
1776971507.786,9.8019,2.8180,1.9537,0.1140,-0.0557,0.7000,-81.3000,-6.7500,-20.5500,10.8194,2.2266,-1.3910,-0.5774,1.5343,1.5793,-31.5000,-7.8000,34.8000,6.0300,-0.6600,-4.3400,-0.5400,1.6875,0.1145,-37.7500,18.8750,54.0000,23.3125,50.6875,-172.6875,0
1776971507.796,9.3948,2.0614,2.1620,0.1266,-0.1266,0.4940,-80.8500,-8.1000,-19.9500,10.7284,1.5730,-2.2841,-0.6843,1.4991,1.6774,-32.8500,-8.4000,35.4000,6.4000,0.9600,-7.4800,-0.3327,1.3003,-0.2269,-37.7500,18.8750,54.0000,23.6250,51.3750,-172.2500,0
1776971507.801,9.3948,2.0614,2.1620,0.1519,-0.2185,0.2547,-80.5500,-7.5000,-19.8000,10.7284,1.5730,-2.2841,-0.6843,1.4991,1.6774,-32.8500,-8.4000,34.3500,6.4000,0.9600,-7.4800,-0.3327,1.3003,-0.2269,-37.7500,18.8750,54.0000,23.6250,51.3750,-172.2500,0
1776971507.806,9.4236,1.5179,2.0039,0.1519,-0.2185,0.2547,-80.5500,-7.5000,-19.8000,9.7923,0.3065,-2.1524,-0.8340,1.5631,1.7104,-32.8500,-8.4000,34.3500,6.9800,1.2100,-6.1800,-0.4254,1.7726,-0.1702,-40.7500,19.1875,51.2500,24.0000,52.3750,-171.6875,0
1776971507.811,9.4236,1.5179,2.0039,0.0466,-0.3304,-0.0013,-81.9000,-8.5500,-20.2500,9.7923,0.3065,-2.1524,-0.8340,1.5631,1.7104,-32.8500,-8.4000,34.3500,6.9800,1.2100,-6.1800,-0.4254,1.7726,-0.1702,-40.7500,19.1875,51.2500,24.0000,52.3750,-171.6875,0
1776971507.816,9.6798,0.9026,1.9441,0.0466,-0.3304,-0.0013,-81.9000,-8.5500,-20.2500,9.6558,-0.4238,-2.3032,-0.9707,1.7914,1.7235,-32.8500,-8.4000,34.3500,7.0900,0.9600,-5.9400,-0.7396,2.2155,-0.0556,-40.7500,19.1875,51.2500,24.5625,53.5625,-171.0000,0
1776971507.822,9.6798,0.9026,1.9441,-0.2206,-0.4509,-0.2217,-80.5500,-7.2000,-18.6000,9.6558,-0.4238,-2.3032,-0.9707,1.7914,1.7235,-31.6500,-9.9000,36.7500,7.0900,0.9600,-5.9400,-1.1486,2.5940,0.1113,-40.7500,19.1875,51.2500,25.3750,55.0000,-170.1250,0
1776971507.827,10.3860,0.9816,2.0734,-0.6496,-0.4509,-0.3437,-80.5500,-7.2000,-18.6000,10.3334,-1.0104,-1.8268,-1.0179,2.0067,1.6057,-31.3500,-10.2000,37.2000,6.7700,1.3300,-6.1500,-1.1486,2.5940,0.1113,-40.7500,19.1875,51.2500,26.3125,56.6875,-169.1250,0
1776971507.836,11.1115,1.8962,1.5203,-0.9174,-0.4162,-0.4836,-79.6500,-7.3500,-18.0000,11.6789,-1.5060,-1.7909,-1.2678,2.1562,1.4789,-31.6500,-9.9000,36.1500,6.8700,0.5600,-6.6600,-1.4628,3.0314,0.3283,-40.7500,19.1875,51.2500,26.3125,56.6875,-169.1250,0
1776971507.846,11.4850,2.5929,0.5674,-1.0131,-0.3842,-0.6827,-79.5000,-6.7500,-19.0500,13.3237,-1.0894,-1.4724,-1.4722,2.2649,1.2764,-30.7500,-11.2500,37.6500,7.2700,1.0300,-7.0900,-1.2915,3.4830,0.5803,-40.7500,19.1875,51.2500,26.8750,58.6250,-168.3125,0
1776971507.851,11.4850,2.5929,0.5674,-1.0131,-0.3842,-0.6827,-79.5000,-6.7500,-19.0500,13.3237,-1.0894,-1.4724,-1.4722,2.2649,1.2764,-30.7500,-11.2500,37.6500,7.2700,1.0300,-7.0900,-1.2915,3.4830,0.5803,-40.7500,19.1875,51.2500,26.1250,60.6250,-168.4375,0
1776971507.856,13.1106,3.3232,0.1652,-1.1612,-0.3744,-0.9116,-79.5000,-6.7500,-19.0500,15.9119,-2.2194,-3.7062,-2.0035,2.2519,1.0997,-30.3000,-11.7000,37.8000,5.5600,7.4300,-5.8600,-0.1658,3.5059,0.9676,-43.6875,18.8750,49.2500,26.1250,60.6250,-168.4375,0
1776971507.861,13.1106,3.3232,0.1652,-1.1612,-0.3744,-0.9116,-80.4000,-7.3500,-19.9500,15.9119,-2.2194,-3.7062,-2.0035,2.2519,1.0997,-30.3000,-11.7000,37.8000,5.5600,7.4300,-5.8600,-0.1658,3.5059,0.9676,-43.6875,18.8750,49.2500,26.1250,60.6250,-168.4375,0
1776971507.866,13.3381,4.3766,-0.6632,-1.3555,-0.5391,-1.0778,-80.4000,-7.3500,-19.9500,17.4322,-4.6591,-5.7676,-2.7059,2.2303,1.0768,-30.3000,-11.7000,37.8000,5.0000,0.1900,-6.7000,-0.3458,3.8594,1.9231,-43.6875,18.8750,49.2500,25.0000,62.9375,-169.4375,0
1776971507.871,13.3381,4.3766,-0.6632,-1.3555,-0.5391,-1.0778,-80.8500,-6.6000,-18.7500,17.4322,-4.6591,-5.7676,-2.7059,2.2303,1.0768,-30.3000,-11.7000,37.8000,5.0000,0.1900,-6.7000,0.7832,6.0443,2.0551,-43.6875,18.8750,49.2500,22.7500,66.4375,-171.0625,0
1776971507.877,12.7132,4.0606,-1.4533,-1.3443,-0.8556,-1.1692,-80.8500,-6.6000,-18.7500,18.9094,-3.5817,-8.8155,-3.8837,2.2002,1.1738,-27.0000,-10.2000,39.6000,3.2100,-0.2000,-6.0900,0.7832,6.0443,2.0551,-43.6875,18.8750,49.2500,20.7500,70.8750,-172.8750,0
1776971507.886,10.8433,2.9688,-2.3655,-1.1181,-1.0629,-1.3129,-80.5500,-6.4500,-19.3500,17.9374,-1.0726,-9.3374,-5.1824,2.0467,1.6545,-28.0500,-13.6500,40.0500,12.5600,2.1200,-5.2500,0.6447,7.7296,2.0988,-43.6875,18.8750,49.2500,20.7500,70.8750,-172.8750,0
1776971507.896,9.4403,3.3519,-0.9481,-0.9332,-1.4336,-1.6345,-79.6500,-5.8500,-18.4500,15.3492,2.5474,0.8882,-6.4782,1.0882,1.7158,-27.7500,-12.9000,39.0000,16.9500,4.8100,-6.5100,0.5334,8.1572,1.5512,-43.6875,18.8750,49.2500,19.2500,75.4375,-174.3125,0
1776971507.901,9.4403,3.3519,-0.9481,-0.9332,-1.4336,-1.6345,-78.7500,-4.8000,-19.8000,15.3492,2.5474,0.8882,-6.4782,1.0882,1.7158,-27.7500,-12.9000,39.0000,16.9500,4.8100,-6.5100,0.5334,8.1572,1.5512,-43.6875,18.8750,49.2500,19.2500,75.4375,-174.3125,0
1776971507.906,7.6136,2.8323,1.7119,-0.5164,-1.4112,-2.0816,-78.7500,-4.8000,-19.8000,17.9254,7.9009,5.3463,-7.4460,0.6374,1.5196,-27.7500,-13.6500,34.9500,14.3500,5.2100,-8.8800,-0.2389,8.2161,1.3025,-51.0000,18.5000,41.3750,18.5625,80.0625,-175.6875,0
1776971507.911,8.9735,0.5387,-0.2825,-0.5164,-1.4112,-2.0816,-80.5500,-3.6000,-19.3500,17.9254,7.9009,5.3463,-6.1798,-0.0837,1.6046,-27.7500,-13.6500,34.9500,14.3500,5.2100,-8.8800,-0.2389,8.2161,1.3025,-51.0000,18.5000,41.3750,18.5625,80.0625,-175.6875,0
1776971507.916,8.9735,0.5387,-0.2825,-0.6811,-1.3400,-2.5269,-80.5500,-3.6000,-19.3500,18.7610,7.7548,0.1125,-6.1798,-0.0837,1.6046,-26.2500,-14.7000,35.7000,24.8200,4.4200,-11.0400,-1.3908,9.3277,1.6002,-51.0000,18.5000,41.3750,18.5625,85.2500,179.9375,0
1776971507.924,9.7899,-0.5866,-2.0087,-1.3067,-1.2971,-2.9814,-80.5500,-3.6000,-19.3500,18.5191,5.4827,-0.5794,-2.9116,0.1649,0.9907,-26.2500,-14.7000,35.7000,30.4600,8.2300,-11.4000,-2.1915,10.2364,2.2078,-51.0000,18.5000,41.3750,18.6250,88.4375,1.1875,0
1776971507.929,9.7899,-0.5866,-2.0087,-1.3067,-1.2971,-2.9814,-78.4500,0.0000,-18.4500,18.5191,5.4827,-0.5794,-2.9116,0.1649,0.9907,-26.2500,-14.7000,35.7000,30.4600,8.2300,-11.4000,-2.1915,10.2364,2.2078,-51.0000,18.5000,41.3750,18.0625,83.0625,27.0000,0
1776971507.937,11.8800,-1.2043,-1.2713,-1.5996,-1.1298,-3.3087,-78.4500,0.0000,-18.4500,19.3595,4.2593,2.7007,-1.2971,0.8444,0.9662,-27.6000,-15.7500,34.5000,36.0000,6.2400,-18.6800,-2.0584,9.4619,3.2976,-51.0000,18.5000,41.3750,17.4375,78.2500,28.2500,0
1776971507.947,15.4306,-0.6201,-0.4525,-1.5918,-1.1029,-3.4387,-78.4500,0.0000,-18.4500,15.5695,3.2178,1.7957,-0.5860,1.4655,1.1946,-26.8500,-16.8000,34.5000,22.2700,7.3800,-15.3200,-2.6845,7.7274,3.9826,-51.0000,18.5000,41.3750,17.4375,78.2500,28.2500,0
1776971507.951,17.7482,-0.2227,-0.3448,-1.1812,-1.1080,-3.3811,-80.1000,1.9500,-19.9500,13.8337,0.4956,1.9848,0.3509,2.0584,1.1090,-26.8500,-16.8000,34.5000,22.2700,7.3800,-15.3200,-2.6845,7.7274,3.9826,-51.0000,18.5000,41.3750,17.0625,74.5000,31.1875,0
1776971507.956,17.7482,-0.2227,-0.3448,-1.1812,-1.1080,-3.3811,-80.1000,1.9500,-19.9500,13.8337,0.4956,1.9848,0.3509,2.0584,1.1090,-26.1000,-17.5500,36.6000,14.5600,5.8900,-14.7100,-3.1743,5.6527,3.8005,-60.1875,23.5625,19.0625,17.0625,74.5000,31.1875,0
1776971507.961,16.5320,0.0575,-0.4501,-0.9060,-0.8458,-3.2831,-78.3000,3.6000,-20.5500,12.7395,-2.7533,3.8092,1.6611,2.0709,0.9792,-26.1000,-17.5500,36.6000,14.5600,5.8900,-14.7100,-3.1743,5.6527,3.8005,-60.1875,23.5625,19.0625,17.1250,71.7500,34.3750,0
1776971507.966,16.5320,0.0575,-0.4501,-0.9060,-0.8458,-3.2831,-78.3000,3.6000,-20.5500,12.7395,-2.7533,3.8092,1.6611,2.0709,0.9792,-25.9500,-16.9500,37.2000,3.8700,6.5400,-13.1800,-3.7786,3.8964,3.2103,-60.1875,23.5625,19.0625,17.1250,71.7500,34.3750,0
1776971507.973,14.2647,1.2689,-0.4070,-0.7655,-0.4122,-3.2495,-78.3000,5.5500,-20.8500,12.2799,-6.4643,4.2186,1.7421,2.2346,0.7210,-25.9500,-16.9500,37.2000,-1.0100,1.1300,5.4700,-2.8198,3.6597,4.1779,-60.1875,23.5625,19.0625,16.3125,68.6875,37.8125,0
1776971507.977,14.2647,1.2689,-0.4070,-0.7655,-0.4122,-3.2495,-78.3000,5.5500,-20.8500,12.2799,-6.4643,4.2186,1.7421,2.2346,0.7210,-25.9500,-16.9500,37.2000,-1.0100,1.1300,5.4700,-2.8198,3.6597,4.1779,-60.1875,23.5625,19.0625,14.8750,63.7500,36.6250,0
1776971507.987,12.8449,1.9752,-1.2282,-0.7125,-0.0272,-3.2487,-76.9500,6.1500,-20.7000,10.4244,-11.6526,8.3773,2.4456,2.7091,0.2286,-25.9500,-16.9500,37.2000,39.3700,11.2900,-35.4300,-0.6512,7.8158,4.4495,-60.1875,23.5625,19.0625,14.3750,61.1250,37.1875,0
1776971507.997,12.6534,2.2362,-2.2817,-0.6646,0.0877,-3.2562,-76.5000,9.1500,-20.1000,7.7452,-11.8752,7.8243,1.6750,2.5093,0.0967,-24.7500,-17.4000,43.2000,30.9700,11.0700,-26.6500,-1.4628,4.0099,2.6987,-60.1875,23.5625,19.0625,14.3750,61.1250,37.1875,0
1776971508.001,12.6749,2.4469,-3.1268,-0.5303,0.0272,-3.3159,-77.4000,9.0000,-19.2000,6.1579,-13.2160,6.2010,0.3906,2.6297,0.2369,-24.7500,-17.4000,43.2000,30.9700,11.0700,-26.6500,-1.4628,4.0099,2.6987,-60.1875,23.5625,19.0625,14.4375,60.5625,38.6875,0
1776971508.007,12.6749,2.4469,-3.1268,-0.5303,0.0272,-3.3159,-77.4000,9.0000,-19.2000,6.1579,-13.2160,6.2010,0.3906,2.6297,0.2369,-23.8500,-17.2500,45.9000,22.8400,13.6200,-18.9400,-1.6122,0.3883,1.0374,-56.5625,28.0000,2.5000,14.4375,60.5625,38.6875,0
1776971508.011,12.4355,2.7725,-2.8754,-0.1527,0.1372,-3.2722,-77.4000,9.0000,-19.2000,8.3270,-9.7013,4.6615,0.1412,1.7323,0.2702,-23.8500,-17.2500,45.9000,22.8400,13.6200,-18.9400,-1.6122,0.3883,1.0374,-56.5625,28.0000,2.5000,14.4375,60.5625,38.6875,0
1776971508.016,12.4355,2.7725,-2.8754,-0.1527,0.1372,-3.2722,-77.4000,9.0000,-19.2000,8.3270,-9.7013,4.6615,0.1412,1.7323,0.2702,-25.2000,-18.1500,46.3500,11.9300,9.6900,-14.3300,-1.4312,-1.7279,-0.2476,-56.5625,28.0000,2.5000,14.8125,61.3750,40.3750,0
1776971508.025,11.6837,2.4493,-1.1420,0.2697,0.1178,-3.2511,-75.4500,11.2500,-20.7000,7.1970,-8.1475,4.4197,-0.4972,1.2489,0.0069,-25.0500,-18.0000,45.6000,6.6400,6.6500,-9.3200,-0.7559,-3.2507,-1.0145,-56.5625,28.0000,2.5000,15.2500,63.1250,42.2500,0
1776971508.030,11.2575,1.5227,-0.4788,0.5508,0.0472,-3.2612,-75.4500,11.2500,-20.7000,5.8658,-7.5346,3.3016,-0.8140,0.5577,-0.3683,-25.0500,-18.0000,45.6000,6.6400,6.6500,-9.3200,-0.7559,-3.2507,-1.0145,-56.5625,28.0000,2.5000,15.7500,65.2500,44.0000,0
1776971508.037,11.5041,1.0582,-0.5531,0.8074,0.0043,-3.2444,-75.4500,11.2500,-20.7000,4.8147,-7.0174,2.4660,-0.8058,-0.0871,-0.7506,-25.0500,-18.0000,45.6000,1.3000,4.5600,-6.0000,-0.1833,-3.7874,-1.5599,-56.5625,28.0000,2.5000,16.3125,67.5000,45.5625,0
1776971508.047,10.4722,0.2466,-0.3352,0.8647,-0.1506,-3.2586,-74.5500,17.7000,-20.1000,3.6440,-5.8921,2.2338,-0.5756,-0.5353,-1.1191,-25.2000,-16.6500,44.2500,-1.8200,0.7600,-3.1500,0.0916,-3.7634,-1.9722,-56.5625,28.0000,2.5000,16.3125,67.5000,45.5625,0
1776971508.052,10.4722,0.2466,-0.3352,0.8647,-0.1506,-3.2586,-73.8000,18.4500,-22.3500,3.6440,-5.8921,2.2338,-0.5756,-0.5353,-1.1191,-25.9500,-16.6500,44.2500,-1.8200,0.7600,-3.1500,0.0916,-3.7634,-1.9722,-56.5625,28.0000,2.5000,16.3125,67.5000,45.5625,0
1776971508.057,10.2208,0.4166,-0.2777,0.8420,-0.1588,-3.2141,-73.8000,18.4500,-22.3500,2.2338,-6.0956,2.3272,-0.2161,-0.8593,-1.5407,-25.9500,-13.9500,45.0000,-0.7800,-0.2700,-3.7500,0.1167,-3.3216,-2.3027,-47.7500,27.2500,-2.0000,17.1875,69.6875,46.6250,0
1776971508.062,10.2208,0.4166,-0.2777,0.8420,-0.1588,-3.2141,-72.9000,19.0500,-22.2000,2.2338,-6.0956,2.3272,-0.2161,-0.8593,-1.5407,-27.0000,-13.9500,45.0000,-0.7800,-0.2700,-3.7500,0.1167,-3.3216,-2.3027,-47.7500,27.2500,-2.0000,17.1875,69.6875,46.6250,0
1776971508.067,9.9000,0.7446,-0.4166,0.6518,-0.2206,-3.1416,-72.9000,19.0500,-22.2000,1.8052,-6.7564,2.5091,0.1617,-0.9926,-2.0075,-27.0000,-13.9500,45.0000,0.1300,-0.7500,-4.2600,0.1134,-2.9082,-2.5536,-47.7500,27.2500,-2.0000,18.1875,71.8125,47.1875,0
1776971508.073,9.9000,0.7446,-0.4166,0.6518,-0.2206,-3.1416,-73.0500,21.6000,-21.9000,1.8052,-6.7564,2.5091,0.1617,-0.9926,-2.0075,-27.3000,-14.4000,43.5000,1.0700,-1.1400,-4.9700,0.2596,-2.7347,-2.6278,-47.7500,27.2500,-2.0000,19.3125,73.9375,47.4375,0
1776971508.078,9.7659,2.2482,-0.5842,0.4879,-0.3054,-3.0678,-73.0500,21.6000,-21.9000,2.4205,-7.5705,2.6887,0.4903,-1.0981,-2.4341,-27.3000,-14.4000,43.5000,1.0700,-1.1400,-4.9700,0.2596,-2.7347,-2.6278,-47.7500,27.2500,-2.0000,20.1250,76.0000,48.0000,0
1776971508.087,9.7612,1.2163,-0.6752,0.3696,-0.4157,-2.9852,-73.0500,21.6000,-21.9000,3.4644,-7.7213,2.4541,0.7389,-1.3110,-2.7744,-28.8000,-12.9000,43.5000,2.2800,-2.7000,-6.2100,0.5694,-2.8220,-2.4729,-47.7500,27.2500,-2.0000,20.6875,78.0000,49.6875,0
1776971508.097,9.3637,0.7781,-0.4764,0.2377,-0.4860,-2.8805,-70.3500,22.0500,-22.6500,3.2992,-8.1618,2.5833,0.8407,-1.5876,-3.0105,-28.8000,-12.9000,43.5000,3.0000,-4.4200,-7.3100,0.8574,-3.0674,-2.1435,-47.7500,27.2500,-2.0000,20.6875,78.0000,49.6875,0
1776971508.102,9.3637,0.7781,-0.4764,0.2377,-0.4860,-2.8805,-70.3500,22.0500,-22.6500,3.2992,-8.1618,2.5833,0.8407,-1.5876,-3.0105,-32.2500,-10.0500,40.5000,3.0000,-4.4200,-7.3100,0.8574,-3.0674,-2.1435,-47.7500,27.2500,-2.0000,21.0000,79.9375,53.9375,0
1776971508.107,9.3972,0.1676,-0.1437,0.1623,-0.5041,-2.7206,-70.3500,22.0500,-22.6500,3.3686,-8.9399,2.2194,0.6606,-1.6928,-3.1115,-32.2500,-10.0500,40.5000,3.7400,-5.9500,-8.2000,0.7887,-3.4503,-1.7530,-42.8750,17.8750,-3.2500,21.0000,79.9375,53.9375,0
1776971508.112,9.3972,0.1676,-0.1437,0.1623,-0.5041,-2.7206,-68.2500,25.3500,-24.3000,3.3686,-8.9399,2.2194,0.6606,-1.6928,-3.1115,-32.4000,-6.4500,40.3500,3.7400,-5.9500,-8.2000,0.7887,-3.4503,-1.7530,-42.8750,17.8750,-3.2500,21.3750,81.8125,63.0625,0
1776971508.117,9.3589,0.6991,-0.0862,0.3131,-0.6432,-2.5564,-68.2500,25.3500,-24.3000,3.7709,-8.8514,2.3032,0.5553,-1.8911,-3.1538,-32.4000,-6.4500,40.3500,5.4900,-7.0800,-9.7600,0.2574,-4.0001,-1.4366,-42.8750,17.8750,-3.2500,21.3750,81.8125,63.0625,0
1776971508.126,8.2600,0.5650,-0.4477,0.6840,-0.7045,-2.4285,-69.0000,26.1000,-25.8000,3.4261,-8.3869,2.8635,0.3555,-2.0784,-3.1890,-32.5500,-5.5500,38.7000,5.9900,-6.7900,-9.7900,-0.4778,-4.5793,-1.2228,-42.8750,17.8750,-3.2500,22.0625,83.2500,6.5625,0
1776971508.133,8.0014,0.8906,-0.3376,0.6840,-0.7045,-2.4285,-68.2500,27.0000,-25.8000,3.4261,-8.3869,2.8635,0.3555,-2.0784,-3.1890,-33.1500,-4.6500,37.5000,5.9900,-6.7900,-9.7900,-1.2992,-4.9982,-1.1017,-42.8750,17.8750,-3.2500,23.0625,83.7500,174.0000,0
1776971508.138,8.0014,0.8906,-0.3376,0.8436,-0.7218,-2.2348,-68.2500,27.0000,-25.8000,3.0837,-7.9104,2.7485,0.0738,-2.3321,-3.2157,-33.1500,-4.6500,37.5000,6.3400,-5.8500,-9.4900,-1.2992,-4.9982,-1.1017,-42.8750,17.8750,-3.2500,24.4375,82.8125,131.8750,0
1776971508.147,7.7069,1.2186,-0.2586,0.9310,-0.7272,-2.0310,-66.7500,27.7500,-27.0000,3.1292,-7.2544,2.5881,-0.1583,-2.6172,-3.2354,-34.2000,-3.1500,38.5500,5.7500,-3.4800,-7.7200,-1.8337,-5.4040,-1.0810,-42.8750,17.8750,-3.2500,24.4375,82.8125,131.8750,0
1776971508.152,7.2401,1.6257,-0.5914,0.9310,-0.7272,-2.0310,-66.0000,27.7500,-28.0500,3.1292,-7.2544,2.5881,-0.1583,-2.6172,-3.2354,-34.2000,-3.1500,38.5500,5.7500,-3.4800,-7.7200,-1.8337,-5.4040,-1.0810,-42.8750,17.8750,-3.2500,24.4375,82.8125,131.8750,0
1776971508.157,7.2401,1.6257,-0.5914,0.9734,-0.7914,-1.8770,-66.0000,27.7500,-28.0500,2.9616,-5.8658,2.6839,-0.2505,-2.9319,-3.3294,-34.2000,-3.1500,38.5500,5.5300,-2.6300,-6.9800,-2.0104,-5.6930,-1.1105,-54.3750,12.8750,-11.2500,26.0000,80.6875,150.1250,0
1776971508.162,6.7900,1.8435,0.0407,0.8847,-0.7477,-1.7118,-68.1000,29.8500,-29.4000,2.9616,-5.8658,2.6839,-0.2505,-2.9319,-3.3294,-37.0500,0.0000,33.7500,5.5300,-2.6300,-6.9800,-2.0104,-5.6930,-1.1105,-54.3750,12.8750,-11.2500,26.0000,80.6875,150.1250,0
1776971508.167,6.7900,1.8435,0.0407,0.8847,-0.7477,-1.7118,-68.1000,29.8500,-29.4000,2.6839,-5.3750,2.5570,-0.2457,-3.1688,-3.4653,-37.0500,0.0000,33.7500,5.6900,-2.0300,-6.7600,-1.9199,-5.8196,-1.1661,-54.3750,12.8750,-11.2500,27.6250,78.0000,161.4375,0
1776971508.172,6.4955,1.5443,0.4214,0.8082,-0.5958,-1.4560,-68.1000,29.8500,-29.4000,2.6839,-5.3750,2.5570,-0.2457,-3.1688,-3.4653,-35.1000,2.2500,32.7000,5.6900,-2.0300,-6.7600,-1.7246,-5.8556,-1.2523,-54.3750,12.8750,-11.2500,29.2500,75.0625,168.6875,0
1776971508.178,6.4955,1.5443,0.4214,0.8082,-0.5958,-1.4560,-68.1000,29.8500,-29.4000,2.5929,-5.1116,2.9832,-0.1442,-3.4275,-3.6353,-35.1000,2.2500,32.7000,6.2400,-1.7500,-6.6900,-1.7246,-5.8556,-1.2523,-54.3750,12.8750,-11.2500,30.9375,72.0000,173.7500,0
1776971508.187,6.4356,1.3288,0.3448,0.7698,-0.5119,-1.1980,-65.2500,30.9000,-29.8500,2.7054,-5.1715,3.3926,0.0448,-3.6487,-3.7646,-37.2000,2.7000,30.0000,8.4400,-0.1800,-7.1600,-1.5141,-5.8305,-1.3854,-54.3750,12.8750,-11.2500,30.9375,72.0000,173.7500,0
1776971508.197,6.1890,1.4078,0.3041,0.6976,-0.3989,-0.9326,-65.2500,30.9000,-29.8500,2.9425,-5.9017,4.3000,0.1188,-3.7870,-3.8101,-36.3000,6.0000,27.7500,9.3500,-2.1800,-9.0200,-1.2195,-5.8479,-1.5424,-54.3750,12.8750,-11.2500,32.6250,68.8125,177.5000,0
1776971508.202,6.0334,1.2977,0.2562,0.6592,-0.3064,-0.6486,-64.5000,30.0000,-32.1000,3.2872,-5.8849,4.6926,0.1034,-3.7585,-3.8054,-36.3000,6.0000,27.7500,9.3500,-2.1800,-9.0200,-1.2195,-5.8479,-1.5424,-54.3750,12.8750,-11.2500,34.6250,65.5000,-179.3125,0
1776971508.207,6.0334,1.2977,0.2562,0.6592,-0.3064,-0.6486,-64.5000,30.0000,-32.1000,3.2872,-5.8849,4.6926,0.1034,-3.7585,-3.8054,-36.3000,6.0000,27.7500,11.1200,-3.6900,-10.1800,-1.2403,-5.9516,-1.7431,-75.0000,6.7500,24.5000,34.6250,65.5000,-179.3125,0
1776971508.212,5.8658,0.9984,0.1915,0.6121,-0.2166,-0.3560,-63.4500,32.2500,-31.6500,3.9528,-4.8794,4.4412,0.1375,-3.9309,-3.7870,-35.7000,7.6500,22.9500,11.1200,-3.6900,-10.1800,-1.2403,-5.9516,-1.7431,-75.0000,6.7500,24.5000,37.3125,62.0625,-176.3750,0
1776971508.217,5.8658,0.9984,0.1915,0.6121,-0.2166,-0.3560,-63.4500,32.2500,-31.6500,3.9528,-4.8794,4.4412,0.1375,-3.9309,-3.7870,-35.7000,7.6500,22.9500,10.7600,-2.5600,-9.0700,-1.6602,-6.1316,-2.0202,-75.0000,6.7500,24.5000,37.3125,62.0625,-176.3750,0
1776971508.224,5.6599,0.8643,-0.0694,0.5540,-0.1220,-0.0658,-63.4500,30.6000,-31.2000,5.8059,-3.3782,3.5147,-0.1649,-3.5988,-3.8525,-35.7000,9.4500,20.7000,10.7700,-1.9700,-8.5200,-2.0322,-6.1719,-2.1402,-75.0000,6.7500,24.5000,40.7500,58.5625,-173.6875,0
1776971508.229,5.3079,0.8978,-0.2370,0.5540,-0.1220,-0.0658,-63.4500,30.6000,-31.2000,5.8059,-3.3782,3.5147,-0.1649,-3.5988,-3.8525,-35.7000,12.1500,18.3000,10.7700,-1.9700,-8.5200,-2.0322,-6.1719,-2.1402,-75.0000,6.7500,24.5000,44.5625,55.1250,-171.3750,0
1776971508.237,5.3079,0.8978,-0.2370,0.4823,-0.0280,0.1905,-64.0500,30.9000,-33.3000,6.6463,-4.1539,1.7214,-0.1713,-3.9615,-4.2506,-35.7000,12.1500,18.3000,11.6500,-1.2200,-7.9500,-2.1249,-6.0192,-2.1293,-75.0000,6.7500,24.5000,48.7500,51.7500,-169.3750,0
1776971508.247,4.3096,0.8523,-0.4717,0.3616,0.1748,0.4173,-64.6500,31.8000,-33.0000,8.1331,-2.9616,0.9673,0.8849,-4.0316,-4.5784,-36.0000,13.6500,16.5000,15.7500,0.6400,-9.7800,-2.0279,-5.7847,-2.1751,-75.0000,6.7500,24.5000,48.7500,51.7500,-169.3750,0
1776971508.252,3.3734,1.0391,-0.5315,0.2433,0.5084,0.6430,-66.9000,31.8000,-33.7500,9.2368,-3.0813,3.0215,0.9686,-4.5120,-4.7308,-34.8000,15.3000,13.5000,15.7500,0.6400,-9.7800,-2.0279,-5.7847,-2.1751,-75.0000,6.7500,24.5000,53.3125,48.5000,-167.5000,0
1776971508.257,1.9513,0.9888,-0.6464,0.2433,0.5084,0.6430,-66.9000,31.8000,-33.7500,9.2368,-3.0813,3.0215,0.9686,-4.5120,-4.7308,-34.8000,15.3000,13.5000,18.9600,1.7500,-11.7300,-1.9144,-5.4782,-2.3486,-53.7500,-5.6875,54.3750,53.3125,48.5000,-167.5000,0
1776971508.262,1.9513,0.9888,-0.6464,-0.1727,1.2875,0.9409,-66.9000,31.8000,-33.7500,11.4156,-2.4780,3.1532,0.9529,-4.3002,-4.5333,-34.8000,15.3000,13.5000,18.9600,1.7500,-11.7300,-1.9144,-5.4782,-2.3486,-53.7500,-5.6875,54.3750,58.1250,45.3125,-165.8125,0
1776971508.267,2.7174,0.8811,-0.9337,-0.1727,1.2875,0.9409,-66.9000,31.8000,-33.7500,11.4156,-2.4780,3.1532,0.9529,-4.3002,-4.5333,-34.8000,15.3000,13.5000,22.1900,2.5100,-13.3800,-1.6166,-5.3483,-2.6289,-53.7500,-5.6875,54.3750,58.1250,45.3125,-165.8125,0
1776971508.272,2.7174,0.8811,-0.9337,-0.7874,2.4896,1.3435,-66.3000,32.8500,-36.9000,12.6007,-1.2474,3.5267,1.0264,-3.4869,-3.8586,-31.3500,19.2000,8.7000,22.1900,2.5100,-13.3800,-1.1726,-5.5294,-2.9092,-53.7500,-5.6875,54.3750,29.8750,41.9375,-164.4375,0
1776971508.278,9.6702,3.2441,-2.0686,-0.1929,1.4330,1.7869,-66.3000,32.8500,-36.9000,12.6007,-1.2474,3.5267,1.0264,-3.4869,-3.8586,-29.5500,18.9000,7.9500,24.7000,1.9700,-14.3600,-1.1726,-5.5294,-2.9092,-53.7500,-5.6875,54.3750,28.7500,38.3125,-163.3750,0
1776971508.287,7.3143,6.4524,-2.9042,0.3629,0.4290,2.1288,-67.2000,32.8500,-36.6000,14.7124,1.4988,2.3128,1.2476,-2.7382,-2.9649,-29.5500,18.9000,7.9500,25.5800,-1.4000,-11.8200,-0.7821,-5.8828,-3.1034,-53.7500,-5.6875,54.3750,28.7500,38.3125,-163.3750,0
1776971508.297,7.1299,9.8737,-3.2705,0.8396,0.0514,2.2860,-67.9500,31.6500,-35.1000,13.6254,1.5036,4.1779,1.5484,-3.2447,-2.4067,-27.9000,21.0000,6.7500,24.7000,-3.2100,-9.4600,-0.5432,-6.1185,-3.1252,-53.7500,-5.6875,54.3750,27.5625,34.5625,-162.5625,0
1776971508.302,7.1299,9.8737,-3.2705,0.8396,0.0514,2.2860,-67.9500,31.6500,-35.1000,12.4882,-0.5818,3.7158,1.5873,-3.8648,-2.1301,-27.9000,21.0000,6.7500,24.7000,-3.2100,-9.4600,-0.5432,-6.1185,-3.1252,-53.7500,-5.6875,54.3750,27.5625,34.5625,-162.5625,0
1776971508.307,5.1236,11.2192,-3.4548,1.0504,0.3096,2.2841,-68.2500,30.0000,-36.1500,12.4882,-0.5818,3.7158,1.5873,-3.8648,-2.1301,-26.2500,20.4000,4.0500,24.6000,-4.7300,-7.5700,-0.4287,-6.0039,-2.9660,-20.2500,-16.3750,69.2500,26.4375,30.8750,-161.9375,0
1776971508.312,5.1236,11.2192,-3.4548,1.0504,0.3096,2.2841,-69.7500,30.9000,-35.5500,12.2200,-1.6999,2.9113,1.6611,-4.0646,-2.1349,-26.2500,20.4000,4.0500,24.6000,-4.7300,-7.5700,-0.4287,-6.0039,-2.9660,-20.2500,-16.3750,69.2500,26.4375,30.8750,-161.9375,0
1776971508.317,7.1826,10.6111,-2.7725,0.8993,0.7171,2.2679,-69.7500,30.9000,-35.5500,12.2200,-1.6999,2.9113,1.6100,-3.9468,-1.9036,-26.2500,20.4000,4.0500,26.0500,-4.3500,-3.9900,-0.3502,-5.7007,-2.6474,-20.2500,-16.3750,69.2500,25.5000,27.4375,-161.5625,0
1776971508.326,9.2727,9.6678,-2.0135,0.9110,0.6757,2.2090,-70.2000,28.5000,-35.5500,11.6071,-0.2346,1.2378,1.6100,-3.9468,-1.9036,-26.2500,20.4000,4.0500,26.7000,-2.5300,-1.4400,-0.2640,-5.4051,-2.1871,-20.2500,-16.3750,69.2500,24.8125,24.1875,-161.3125,0
1776971508.330,9.2727,9.6678,-2.0135,0.9110,0.6757,2.2090,-70.2000,28.5000,-35.5500,11.2288,-0.4741,-1.3408,1.3867,-3.4155,-1.7403,-22.0500,21.0000,0.0000,26.7000,-2.5300,-1.4400,-0.2640,-5.4051,-2.1871,-20.2500,-16.3750,69.2500,24.3125,21.1875,-161.3125,0
1776971508.338,9.3206,9.6630,-1.6041,0.4839,0.9068,2.0552,-70.2000,28.5000,-35.5500,10.6470,-2.7892,-2.4038,0.6070,-2.7422,-1.5002,-21.7500,20.2500,-1.0500,26.7600,-1.1600,2.0000,-0.0360,-5.1967,-1.6602,-20.2500,-16.3750,69.2500,24.0625,18.4375,-161.5625,0
1776971508.348,10.6710,9.7683,-1.0439,-0.0179,0.8897,1.7890,-72.3000,28.6500,-35.7000,8.3797,-0.4669,-2.4780,-0.0781,-1.6721,-1.0573,-21.7500,21.7500,-1.3500,26.0600,-0.3900,6.6000,0.2782,-4.7309,-1.1923,-20.2500,-16.3750,69.2500,24.0625,18.4375,-161.5625,0
1776971508.352,10.6710,9.7683,-1.0439,-0.0179,0.8897,1.7890,-72.3000,28.6500,-35.7000,8.3797,-0.4669,-2.4780,-0.0781,-1.6721,-1.0573,-21.7500,21.7500,-1.3500,26.0600,-0.3900,6.6000,0.2782,-4.7309,-1.1923,-20.2500,-16.3750,69.2500,23.6250,16.1250,-161.8750,0
1776971508.357,11.3126,10.0317,-2.4349,-0.2878,0.7016,1.3931,-72.3000,28.6500,-35.7000,5.8299,3.3615,-3.5626,-0.4676,-0.5103,-0.4996,-19.5000,21.7500,-0.6000,18.4500,-1.5900,14.3700,0.6316,-4.0033,-1.2665,14.1875,-0.1875,45.1875,23.6250,16.1250,-161.8750,0
1776971508.362,11.3126,10.0317,-2.4349,-0.2878,0.7016,1.3931,-72.3000,28.6500,-35.7000,5.8299,3.3615,-3.5626,-0.4676,-0.5103,-0.4996,-19.5000,21.7500,-0.6000,18.4500,-1.5900,14.3700,0.6316,-4.0033,-1.2665,14.1875,-0.1875,45.1875,22.7500,14.8750,-162.4375,0
1776971508.367,10.5225,10.3860,-4.2737,-0.4487,0.4514,0.8623,-73.3500,27.1500,-36.7500,3.2010,6.4955,-5.1092,-0.2753,0.3970,0.1711,-19.5000,21.7500,-0.6000,22.4700,-4.1400,17.4800,1.2610,-1.8413,-1.7071,14.1875,-0.1875,45.1875,22.7500,14.8750,-162.4375,0
1776971508.374,9.9910,10.8816,-4.4987,-0.1703,-0.0160,0.4005,-72.6000,27.9000,-36.7500,3.2010,6.4955,-5.1092,-0.2753,0.3970,0.1711,-19.5000,21.7500,-0.6000,29.0300,-7.4700,22.2300,1.3406,0.1625,-1.8391,14.1875,-0.1875,45.1875,21.6250,14.6875,-162.9375,0
1776971508.378,9.9910,10.8816,-4.4987,-0.1703,-0.0160,0.4005,-72.6000,27.9000,-36.7500,3.0550,9.4619,-1.8651,0.2140,1.3760,0.7786,-19.5000,21.7500,-0.6000,29.0300,-7.4700,22.2300,1.3406,0.1625,-1.8391,14.1875,-0.1875,45.1875,20.6875,14.5000,-162.6875,0
1776971508.388,8.8155,10.8338,-3.3471,-0.1844,-0.1119,0.0733,-72.0000,27.0000,-35.1000,5.3750,8.7556,-1.1013,0.4351,2.1181,1.2689,-19.2000,20.5500,-1.0500,17.1100,7.8900,25.9200,-0.0164,0.1931,-1.6155,14.1875,-0.1875,45.1875,20.0000,15.3125,-163.1250,0
1776971508.398,9.5050,10.2639,-1.9417,-0.5684,-0.2260,-0.1695,-72.9000,26.5500,-33.3000,7.9057,9.3877,1.2713,1.3467,2.4056,1.5892,-21.9000,18.1500,-0.7500,18.7900,3.1000,34.9700,1.1661,1.8566,-0.8530,14.1875,-0.1875,45.1875,20.0000,15.3125,-163.1250,0
1776971508.402,11.6861,8.1810,1.4078,-0.9886,-0.3195,-0.0989,-72.9000,26.5500,-33.3000,7.9057,9.3877,1.2713,1.3467,2.4056,1.5892,-21.9000,18.1500,-0.7500,18.7900,3.1000,34.9700,1.1661,1.8566,-0.8530,14.1875,-0.1875,45.1875,20.0000,15.3125,-163.1250,0
1776971508.407,11.6861,8.1810,1.4078,-0.9886,-0.3195,-0.0989,-73.0500,27.4500,-33.7500,14.6190,5.2289,-14.0588,0.7738,2.8815,1.3832,-21.6000,16.6500,1.2000,6.6300,-8.4300,18.5600,3.0870,3.5986,0.3349,10.0000,8.5625,41.0000,19.6250,17.3125,-164.6875,0
1776971508.412,14.6238,5.6024,2.6576,-1.0461,-0.2649,0.1724,-73.0500,27.4500,-33.7500,14.6190,5.2289,-14.0588,0.7738,2.8815,1.3832,-21.6000,16.6500,1.2000,6.6300,-8.4300,18.5600,3.0870,3.5986,0.3349,10.0000,8.5625,41.0000,19.6250,17.3125,-164.6875,0
1776971508.417,14.6238,5.6024,2.6576,-1.0461,-0.2649,0.1724,-72.3000,24.7500,-32.4000,20.4345,-3.0933,-17.7674,1.7960,1.4400,0.5950,-23.2500,16.8000,0.3000,4.0800,-9.2400,-39.0700,2.3278,1.7410,0.8956,10.0000,8.5625,41.0000,19.8125,18.3750,-166.0625,0
1776971508.427,13.6469,2.9688,0.1341,-0.6025,-0.1314,0.4836,-72.3000,24.7500,-32.4000,14.8991,-3.5530,-6.6679,2.8847,1.1037,0.1625,-23.2500,16.8000,0.3000,3.2700,-9.4600,-8.4400,2.1675,1.8991,-0.5094,10.0000,8.5625,41.0000,19.2500,19.3125,-167.1250,0
1776971508.437,14.6645,3.7948,-6.2153,0.3424,-0.1596,0.6757,-72.4500,24.6000,-31.8000,15.6964,-4.9033,-3.4453,2.3550,1.7237,0.4247,-21.3000,14.2500,2.1000,10.3000,-8.6400,-5.1500,1.8053,4.3524,-0.8694,10.0000,8.5625,41.0000,18.3125,21.5625,-167.7500,0
1776971508.447,14.5137,7.2401,-5.4468,0.7360,-0.1580,0.6430,-72.4500,24.6000,-31.8000,14.2407,-4.7740,-1.3192,1.1620,1.9223,1.1141,-23.4000,13.6500,2.2500,16.3400,-12.7000,-11.0600,0.6861,5.1640,-0.2040,10.0000,8.5625,41.0000,17.8125,24.3750,-167.8125,0
1776971508.452,13.5296,7.0006,-1.1109,0.8356,-0.0426,0.2236,-72.4500,24.6000,-31.8000,14.2407,-4.7740,-1.3192,1.1620,1.9223,1.1141,-23.4000,13.6500,2.2500,16.3400,-12.7000,-11.0600,0.6861,5.1640,-0.2040,10.0000,8.5625,41.0000,17.8125,24.3750,-167.8125,0
1776971508.456,13.5296,7.0006,-1.1109,0.8356,-0.0426,0.2236,-71.1000,22.0500,-31.6500,15.1673,-2.4229,7.4555,0.6550,2.2561,1.5940,-23.2500,11.5500,3.1500,25.2600,-7.7200,-19.7400,0.5694,4.4931,-0.0120,2.0000,15.5000,40.5000,17.5000,26.8125,-167.8750,0
1776971508.461,11.7986,3.1412,1.8603,0.5431,0.0274,-0.2289,-71.1000,22.0500,-31.6500,15.1673,-2.4229,7.4555,0.6550,2.2561,1.5940,-23.2500,11.5500,3.1500,25.2600,-7.7200,-19.7400,0.5694,4.4931,-0.0120,2.0000,15.5000,40.5000,17.5000,26.8125,-167.8750,0
1776971508.466,11.7986,3.1412,1.8603,0.5431,0.0274,-0.2289,-71.2500,22.2000,-30.6000,13.3429,1.5945,9.7971,0.5180,2.4749,1.7320,-24.6000,11.2500,5.2500,27.3000,10.5000,-25.2800,0.3087,3.4885,0.3840,2.0000,15.5000,40.5000,17.4375,28.7500,-167.9375,0
1776971508.471,8.6766,-4.8650,5.1044,-0.3230,0.2902,-0.3957,-71.2500,22.2000,-30.6000,13.3429,1.5945,9.7971,0.5180,2.4749,1.7320,-24.6000,11.2500,5.2500,27.3000,10.5000,-25.2800,0.3087,3.4885,0.3840,2.0000,15.5000,40.5000,17.3750,30.8125,-168.7500,0
1776971508.478,4.8985,-9.6007,4.9823,-0.3230,0.2902,-0.3957,-70.9500,22.9500,-30.3000,10.0604,3.8523,7.9416,1.1879,1.9311,1.4301,-25.6500,9.3000,6.3000,15.2400,18.0600,-3.3200,1.5272,3.6903,0.5465,2.0000,15.5000,40.5000,17.2500,32.5625,-169.4375,0
1776971508.488,5.6719,-7.7500,3.0646,-0.5641,0.4503,0.0570,-72.6000,20.8500,-28.9500,4.9273,5.1691,3.6296,2.2258,1.1471,0.9395,-25.6500,9.3000,6.3000,8.4600,-3.4600,-11.1000,1.3526,3.2027,0.4691,2.0000,15.5000,40.5000,17.2500,32.5625,-169.4375,0
1776971508.498,8.9112,-1.9393,1.8076,-0.7576,0.5105,0.7962,-71.5500,20.4000,-28.9500,4.9440,0.5076,5.5952,3.7419,0.8657,0.5263,-25.5000,6.1500,6.1500,8.5200,-6.4600,-11.1800,1.4541,2.7031,0.5836,2.0000,15.5000,40.5000,17.1875,34.1250,-170.2500,0
1776971508.503,8.9112,-1.9393,1.8076,-1.4336,0.5865,1.2918,-71.5500,20.4000,-28.9500,5.5617,-2.2027,5.1212,4.6309,0.9830,0.1748,-25.5000,6.1500,6.1500,8.5200,-6.4600,-11.1800,1.4541,2.7031,0.5836,-7.8750,23.5000,39.5625,17.1875,35.5625,-171.0000,0
1776971508.508,10.9942,2.3248,2.6767,-1.5537,0.5574,1.5735,-72.6000,20.4000,-28.9500,5.5617,-2.2027,5.1212,4.6309,0.9830,0.1748,-24.7500,5.4000,8.7000,8.1000,0.2900,-7.9500,1.2512,2.5798,0.5498,-7.8750,23.5000,39.5625,17.1875,35.5625,-171.0000,0
1776971508.513,10.9942,2.3248,2.6767,-1.5537,0.5574,1.5735,-72.6000,20.4000,-28.9500,6.6272,-5.3510,6.1603,4.2671,1.3193,0.1716,-24.7500,5.4000,8.7000,8.1000,0.2900,-7.9500,1.2512,2.5798,0.5498,-7.8750,23.5000,39.5625,17.2500,36.8125,-171.5625,0
1776971508.518,10.7236,3.9049,4.2018,-0.8633,0.6654,1.6246,-72.6000,20.4000,-28.9500,6.6272,-5.3510,6.1603,4.2671,1.3193,0.1716,-25.9500,3.9000,7.9500,11.0300,-0.9900,-10.4200,0.8727,2.1893,0.5421,-7.8750,23.5000,39.5625,17.2500,36.8125,-171.5625,0
1776971508.527,11.2240,3.7900,3.4692,0.0448,0.7125,1.5676,-72.4500,21.9000,-28.5000,11.4467,-6.1459,6.5697,3.2770,2.1554,0.2585,-26.7000,3.1500,10.8000,11.3600,-7.4300,-10.5500,0.5890,1.7170,0.4658,-7.8750,23.5000,39.5625,17.3125,37.8125,-172.0000,0
1776971508.535,11.2240,3.7900,3.4692,0.0448,0.7125,1.5676,-72.4500,21.9000,-28.5000,14.8488,-7.8721,7.1012,1.2169,2.1615,0.6323,-26.7000,3.1500,10.8000,7.3500,-1.2000,-8.7800,0.2465,1.1705,0.3327,-7.8750,23.5000,39.5625,17.4375,38.5000,-172.1875,0
1776971508.540,9.7133,2.0016,1.3192,0.7839,0.6686,1.4853,-72.4500,21.9000,-28.5000,15.8640,-8.0302,4.8387,-1.5444,2.2015,0.6896,-26.7000,3.1500,10.8000,7.3500,-1.2000,-8.7800,0.2465,1.1705,0.3327,-7.8750,23.5000,39.5625,17.5000,38.8750,-172.3125,0
1776971508.548,9.3422,0.3065,0.7805,0.9649,0.6872,1.4376,-74.8500,18.4500,-28.2000,15.8640,-8.0302,4.8387,-1.5444,2.2015,0.6896,-26.7000,3.1500,10.8000,6.4000,2.5700,-7.4400,0.1276,0.6774,0.2269,-7.8750,23.5000,39.5625,17.5000,38.8750,-172.3125,0
1776971508.553,9.3422,0.3065,0.7805,0.9649,0.6872,1.4376,-74.8500,18.4500,-28.2000,12.6079,-4.2641,1.9944,-2.9276,1.7355,0.7101,-28.5000,3.9000,12.6000,6.4000,2.5700,-7.4400,0.1276,0.6774,0.2269,-7.8750,23.5000,39.5625,17.5625,39.1250,-172.5000,0
1776971508.558,9.0621,-0.7685,0.2179,0.8873,0.7112,1.4448,-74.5500,18.1500,-28.9500,12.6079,-4.2641,1.9944,-2.9276,1.7355,0.7101,-28.5000,3.9000,12.6000,6.9400,-0.5900,-8.0600,0.1734,0.4614,0.1865,-14.1875,27.8750,36.5625,17.5625,39.1250,-172.5000,0
1776971508.563,9.0621,-0.7685,0.2179,0.8873,0.7112,1.4448,-74.5500,18.1500,-28.9500,10.6063,-5.7269,0.7805,-3.6345,1.5575,0.9033,-26.7000,4.6500,13.6500,6.9400,-0.5900,-8.0600,0.1734,0.4614,0.1865,-14.1875,27.8750,36.5625,17.5625,39.3125,-172.6875,0
1776971508.568,9.1051,-1.1516,-0.1844,0.4501,0.7043,1.4637,-73.8000,17.7000,-28.6500,10.6063,-5.7269,0.7805,-3.6345,1.5575,0.9033,-26.7000,4.6500,13.6500,6.3800,0.4200,-7.4900,0.2247,0.3502,0.1374,-14.1875,27.8750,36.5625,17.5625,39.3125,-172.6875,0
1776971508.574,9.4978,-2.2482,-0.5914,0.4501,0.7043,1.4637,-73.8000,17.7000,-28.6500,8.9926,-1.2713,-2.1715,-2.6382,0.9262,0.9657,-25.9500,4.2000,13.3500,5.9300,0.9800,-7.3600,0.3240,0.3163,0.0742,-14.1875,27.8750,36.5625,17.5625,39.5000,-172.8750,0
1776971508.579,9.4978,-2.2482,-0.5914,-0.1122,0.5431,1.5218,-74.1000,17.7000,-27.4500,8.8370,4.9225,-2.3990,-1.2127,1.1634,0.8889,-25.9500,4.2000,13.3500,5.9300,0.9800,-7.3600,0.3240,0.3163,0.0742,-14.1875,27.8750,36.5625,17.5000,39.6250,-173.0625,0
1776971508.588,9.7324,-2.2697,-0.7733,-0.6811,0.3086,1.5990,-74.1000,17.7000,-27.4500,8.8370,4.9225,-2.3990,-0.1881,0.9761,0.7288,-26.2500,4.2000,13.6500,6.1700,-0.2000,-7.6400,0.3491,0.2105,0.0742,-14.1875,27.8750,36.5625,17.5000,39.6250,-173.2500,0
1776971508.598,8.9208,-1.4509,-0.0311,-1.2025,0.2721,1.6411,-74.8500,15.7500,-28.2000,10.4244,2.6576,0.1245,0.1911,0.9769,0.7045,-26.2500,4.2000,13.6500,5.6500,-0.0900,-7.8800,0.2836,-0.0065,0.0829,-14.1875,27.8750,36.5625,17.5000,39.6250,-173.2500,0
1776971508.603,9.2632,-1.6113,0.5076,-1.2025,0.2721,1.6411,-74.8500,15.7500,-28.2000,10.4244,2.6576,0.1245,0.1911,0.9769,0.7045,-27.7500,3.9000,11.8500,5.6500,-0.0900,-7.8800,0.2836,-0.0065,0.0829,-15.5625,27.8750,34.5000,17.5000,39.6875,-173.3750,0
1776971508.608,9.2632,-1.6113,0.5076,-1.7155,0.1660,1.6771,-74.8500,15.7500,-28.2000,10.3573,0.5794,1.7406,0.5361,0.7858,0.6885,-27.7500,3.9000,11.8500,5.0900,0.4100,-8.0100,0.1200,0.1124,0.0589,-15.5625,27.8750,34.5000,17.5000,39.6875,-173.3750,0
1776971508.613,8.8155,1.5897,1.3551,-1.7155,0.1660,1.6771,-74.8500,15.7500,-28.2000,10.3573,0.5794,1.7406,0.5361,0.7858,0.6885,-27.7500,3.4500,13.3500,5.0900,0.4100,-8.0100,0.1200,0.1124,0.0589,-15.5625,27.8750,34.5000,17.5000,40.0000,-173.3125,0
1776971508.618,8.8155,1.5897,1.3551,-1.8660,0.1532,1.7501,-76.2000,15.6000,-28.5000,9.8833,-0.3089,2.1261,0.6379,0.5385,0.6720,-27.7500,3.4500,13.3500,6.0200,0.3200,-7.4000,0.0044,0.5487,0.0185,-15.5625,27.8750,34.5000,17.5000,40.0000,-173.3125,0
1776971508.626,9.1267,1.2306,1.5514,-1.9164,0.1300,1.7786,-77.7000,14.4000,-27.3000,9.8833,-0.3089,2.1261,0.6379,0.5385,0.6720,-26.7000,1.9500,14.7000,6.1700,0.4400,-7.2300,0.0295,0.7101,0.0175,-15.5625,27.8750,34.5000,17.5000,40.3750,-173.3125,0
1776971508.631,9.1267,1.2306,1.5514,-1.9164,0.1300,1.7786,-77.7000,14.4000,-27.3000,8.8011,-0.9768,1.6281,0.6861,0.3741,0.6121,-26.7000,1.9500,14.7000,6.1700,0.4400,-7.2300,0.0295,0.7101,0.0175,-15.5625,27.8750,34.5000,17.5000,40.6875,-173.3750,0
1776971508.638,8.8011,1.0750,2.0470,-2.0355,0.1919,1.7491,-77.4000,13.6500,-26.5500,9.6965,-1.8076,1.0295,0.2300,0.5121,0.5265,-27.0000,1.9500,13.9500,6.3400,0.4800,-7.3300,0.0524,0.4876,0.0873,-15.5625,27.8750,34.5000,17.5625,40.8750,-173.4375,0
1776971508.648,8.9352,1.2713,2.0111,-1.9628,0.3198,1.7083,-78.0000,16.2000,-28.2000,10.3430,-2.9688,1.2163,-0.7903,0.6022,0.4954,-26.8500,1.5000,14.5500,6.3100,0.9900,-7.1500,0.0327,0.3294,0.1604,-15.5625,27.8750,34.5000,17.5625,40.8750,-173.4375,0
1776971508.653,9.1219,1.3934,1.4389,-1.8138,0.4013,1.7088,-78.0000,16.2000,-28.2000,10.3430,-2.9688,1.2163,-0.7903,0.6022,0.4954,-26.8500,1.5000,14.5500,6.3100,0.9900,-7.1500,0.0327,0.3294,0.1604,-15.5625,27.8750,34.5000,17.6875,41.0625,-173.5000,0
1776971508.658,9.1219,1.3934,1.4389,-1.8138,0.4013,1.7088,-78.0000,13.5000,-27.1500,10.1083,-1.8603,0.1245,-1.5218,0.7466,0.4879,-26.8500,1.5000,14.5500,6.3700,0.2100,-7.4000,-0.0109,0.3218,0.2203,-16.5625,29.8750,35.2500,17.6875,41.0625,-173.5000,0
1776971508.663,9.4403,1.3264,1.1277,-1.7509,0.4181,1.6816,-78.0000,13.5000,-27.1500,10.1083,-1.8603,0.1245,-1.5218,0.7466,0.4879,-28.2000,2.2500,14.8500,6.3700,0.2100,-7.4000,-0.0109,0.3218,0.2203,-16.5625,29.8750,35.2500,17.8750,41.2500,-173.5625,0
1776971508.668,9.4403,1.3264,1.1277,-1.7509,0.4181,1.6816,-79.0500,13.5000,-27.1500,10.1634,-0.4118,-0.7039,-1.5108,0.8476,0.4748,-28.2000,2.2500,14.8500,6.6800,-0.1200,-7.6300,-0.1571,0.3240,0.2836,-16.5625,29.8750,35.2500,17.8750,41.2500,-173.5625,0
1776971508.675,9.6103,1.0080,1.3671,-1.8122,0.4247,1.6611,-79.0500,13.5000,-27.1500,10.1634,-0.4118,-0.7039,-1.5108,0.8476,0.4748,-26.7000,1.6500,14.7000,6.5100,0.0900,-7.4900,-0.3414,0.4036,0.2771,-16.5625,29.8750,35.2500,18.0625,41.5000,-173.5000,0
1776971508.679,9.6103,1.0080,1.3671,-1.8122,0.4247,1.6611,-79.0500,13.5000,-27.1500,9.9719,1.1923,-0.1963,-1.2955,0.9164,0.5300,-26.7000,1.6500,14.7000,6.5100,0.0900,-7.4900,-0.3414,0.4036,0.2771,-16.5625,29.8750,35.2500,18.3125,41.8125,-173.3125,0
1776971508.688,9.7372,1.0630,1.7406,-1.7976,0.3200,1.6257,-79.5000,12.6000,-27.4500,10.3406,2.0542,0.1413,-1.2159,1.0139,0.6808,-27.6000,1.5000,15.6000,6.5500,0.3200,-7.9200,-0.5061,0.5280,0.2651,-16.5625,29.8750,35.2500,18.5625,42.1250,-173.0625,0
1776971508.698,9.2368,1.3934,2.1141,-1.7325,0.1050,1.5801,-79.5000,12.6000,-27.4500,10.5584,2.1668,0.3639,-1.1429,0.8308,0.8575,-27.7500,1.2000,15.4500,6.9900,-0.2300,-7.7100,-0.5727,0.5749,0.2487,-16.5625,29.8750,35.2500,18.5625,42.1250,-173.0625,0
1776971508.703,8.7724,1.4150,2.1883,-1.6942,-0.0024,1.5633,-79.5000,12.6000,-27.4500,10.5584,2.1668,0.3639,-1.1429,0.8308,0.8575,-28.9500,0.3000,15.3000,6.9900,-0.2300,-7.7100,-0.5727,0.5749,0.2487,-16.5625,29.8750,35.2500,18.5625,42.1250,-173.0625,0
1776971508.708,8.7724,1.4150,2.1883,-1.6942,-0.0024,1.5633,-80.1000,12.9000,-25.8000,10.1131,1.7430,0.5052,-1.0968,0.5883,0.9678,-28.9500,0.3000,15.3000,6.9200,1.0700,-7.0000,-0.5411,0.5574,0.1909,-17.3750,29.5000,33.7500,18.8125,42.4375,-172.8125,0
1776971508.713,8.6024,2.3583,2.0638,-1.6355,-0.0778,1.5426,-80.1000,12.9000,-25.8000,10.1131,1.7430,0.5052,-1.0968,0.5883,0.9678,-28.9500,0.3000,15.3000,6.9200,1.0700,-7.0000,-0.5411,0.5574,0.1909,-17.3750,29.5000,33.7500,18.8125,42.4375,-172.8125,0
1776971508.718,8.3606,2.9544,1.9513,-1.6355,-0.0778,1.5426,-80.1000,10.0500,-27.0000,9.6247,1.2210,-0.3687,-1.1762,0.5215,0.9915,-28.9500,0.3000,15.3000,7.0800,0.7500,-7.1300,-0.4145,0.4080,0.1767,-17.3750,29.5000,33.7500,18.9375,42.6875,-172.6875,0
1776971508.727,8.3606,2.9544,1.9513,-1.5087,-0.0762,1.5196,-79.8000,10.6500,-26.4000,9.2560,0.8691,-0.7781,-1.2335,0.6241,0.9824,-29.4000,1.0500,15.3000,6.3500,0.8800,-7.3300,-0.3272,0.2825,0.2269,-17.3750,29.5000,33.7500,19.1250,42.8750,-172.5625,0
1776971508.732,8.5018,3.6919,1.9249,-1.3049,-0.0632,1.4850,-79.8000,10.6500,-26.4000,9.2560,0.8691,-0.7781,-1.2335,0.6241,0.9824,-28.0500,0.1500,16.8000,6.3500,0.8800,-7.3300,-0.3272,0.2825,0.2269,-17.3750,29.5000,33.7500,19.3750,43.0625,-172.5625,0
1776971508.739,8.5832,3.4668,1.9632,-1.0640,-0.0549,1.4146,-80.8500,11.2500,-25.8000,9.2081,1.1540,-0.8380,-1.2393,0.8426,0.9691,-28.0500,0.1500,16.8000,7.3300,0.2800,-7.7300,-0.2814,0.3109,0.2760,-17.3750,29.5000,33.7500,19.5000,43.3125,-172.5000,0
1776971508.748,8.7700,3.1915,1.6831,-0.8354,-0.0112,1.3371,-80.1000,10.9500,-26.2500,9.4475,1.3072,-1.3384,-1.2217,0.9867,0.9987,-29.5500,1.2000,15.4500,7.7600,1.0300,-6.4900,-0.2291,0.4243,0.2443,-17.3750,29.5000,33.7500,19.5000,43.3125,-172.5000,0
1776971508.753,8.7700,3.1915,1.6831,-0.8354,-0.0112,1.3371,-80.1000,10.9500,-26.2500,9.6271,1.4293,-2.0135,-1.2297,0.9907,1.0291,-28.2000,-0.7500,15.3000,7.7600,1.0300,-6.4900,-0.2291,0.4243,0.2443,-18.0625,29.5625,35.0625,19.7500,43.5000,-172.5000,0
1776971508.759,8.7604,3.2441,1.3886,-0.5532,0.0634,1.2601,-81.1500,10.0500,-26.2500,9.6271,1.4293,-2.0135,-1.2297,0.9907,1.0291,-28.2000,-0.7500,15.3000,6.5900,0.7900,-7.0900,-0.3054,0.3316,0.3436,-18.0625,29.5625,35.0625,19.7500,43.5000,-172.5000,0
1776971508.763,8.7604,3.2441,1.3886,-0.5532,0.0634,1.2601,-81.1500,10.0500,-26.2500,9.3589,0.7853,-1.2546,-1.2979,0.9675,1.0917,-28.2000,-0.7500,15.3000,6.5900,0.7900,-7.0900,-0.3054,0.3316,0.3436,-18.0625,29.5625,35.0625,20.0625,43.6250,-172.5000,0
1776971508.769,9.0261,3.2753,1.2474,-0.2324,0.0959,1.1815,-81.1500,10.0500,-26.2500,9.3589,0.7853,-1.2546,-1.2979,0.9675,1.0917,-28.2000,-0.7500,15.3000,5.7500,0.3900,-7.7400,-0.2945,0.1331,0.3676,-18.0625,29.5625,35.0625,20.0625,43.6250,-172.5000,0
1776971508.774,9.0261,3.2753,1.2474,-0.2324,0.0959,1.1815,-81.1500,10.0500,-26.2500,9.4906,1.3838,-1.2905,-1.1876,1.1005,1.0813,-28.5000,-0.1500,15.7500,6.5300,0.6600,-7.3100,-0.1614,0.3098,0.3327,-18.0625,29.5625,35.0625,20.2500,43.8125,-172.5625,0
1776971508.779,8.8969,3.5291,1.1947,0.0448,0.2164,1.1351,-81.6000,10.0500,-27.0000,9.4906,1.3838,-1.2905,-1.1876,1.1005,1.0813,-27.9000,-1.8000,16.6500,6.5300,0.6600,-7.3100,-0.1614,0.3098,0.3327,-18.0625,29.5625,35.0625,20.4375,44.1250,-172.6250,0
1776971508.788,9.1291,3.5769,1.1947,0.3195,0.2830,1.0805,-81.6000,8.1000,-25.0500,9.8114,1.1061,-0.7638,-0.9774,1.1133,1.0563,-27.9000,-1.8000,16.6500,6.9100,0.8800,-7.1000,-0.1844,0.5345,0.3305,-18.0625,29.5625,35.0625,20.4375,44.1250,-172.6250,0
1776971508.798,8.6981,3.5578,1.2905,0.5212,0.3978,1.0627,-81.9000,8.5500,-26.5500,10.0461,0.6991,-0.0934,-0.6328,1.1242,1.0184,-27.9000,0.0000,17.7000,6.7200,0.9500,-6.5400,-0.2509,0.5072,0.3262,-18.0625,29.5625,35.0625,20.6875,44.4375,-172.6250,0
1776971508.803,8.6981,3.5578,1.2905,0.5212,0.3978,1.0627,-81.9000,8.5500,-26.5500,10.3837,-0.1628,-0.1772,-0.3232,1.1215,1.0179,-27.9000,0.0000,16.6500,6.7200,0.9500,-6.5400,-0.2509,0.5072,0.3262,-18.0625,29.5625,35.0625,20.6875,44.4375,-172.6250,0
1776971508.808,8.7101,3.1053,1.1971,0.7032,0.3752,1.1058,-82.3500,8.5500,-27.7500,10.3837,-0.1628,-0.1772,-0.3232,1.1215,1.0179,-28.0500,-1.9500,17.8500,6.2300,0.5400,-7.8000,-0.2880,0.3294,0.3905,-17.6875,30.0000,35.5625,35.6250,44.6250,-172.6250,0
1776971508.813,8.7101,3.1053,1.1971,0.7032,0.3752,1.1058,-82.3500,8.5500,-27.7500,9.9024,-0.8571,-0.4142,-0.1090,1.0882,1.0696,-28.0500,-1.9500,17.8500,6.2300,0.5400,-7.8000,-0.2880,0.3294,0.3905,-17.6875,30.0000,35.5625,35.6250,44.6250,-172.6250,0
1776971508.818,8.9304,2.4995,0.7278,0.8076,0.3395,1.1751,-82.3500,9.0000,-28.8000,9.9024,-0.8571,-0.4142,-0.1090,1.0882,1.0696,-28.0500,-1.9500,17.8500,7.3400,0.8600,-6.9800,-0.2738,0.3698,0.3971,-17.6875,30.0000,35.5625,35.6875,44.8750,-172.6875,0
1776971508.825,9.2632,1.7717,0.0599,0.8215,0.2377,1.2550,-82.3500,9.0000,-28.8000,9.7923,-1.3479,-0.7326,-0.0634,1.1719,1.1343,-28.0500,-1.9500,17.8500,7.3400,0.3200,-6.7900,-0.3731,0.4418,0.4232,-17.6875,30.0000,35.5625,35.8750,45.1250,-172.6875,0
1776971508.830,9.2632,1.7717,0.0599,0.8215,0.2377,1.2550,-82.3500,7.8000,-29.8500,9.7923,-1.3479,-0.7326,-0.0634,1.1719,1.1343,-28.8000,-3.1500,19.0500,7.3400,0.3200,-6.7900,-0.3731,0.4418,0.4232,-17.6875,30.0000,35.5625,36.3125,45.3125,-172.6250,0
1776971508.838,9.2727,1.1803,-0.4788,0.6598,0.2395,1.3131,-82.3500,7.8000,-29.8500,9.9886,-1.1588,-2.2146,-0.1828,1.1692,1.1735,-29.1000,-3.4500,18.6000,6.0300,-0.2700,-7.5400,-0.5705,0.2160,0.4789,-17.6875,30.0000,35.5625,36.7500,45.5625,-172.5625,0
1776971508.848,9.1985,1.2546,-0.3543,0.4860,0.1567,1.3691,-83.1000,6.6000,-28.8000,9.4978,-1.2713,-2.0016,-0.3317,1.1301,1.2199,-29.1000,-3.9000,19.0500,6.9800,0.4800,-6.9900,-0.6010,0.3840,0.5007,-17.6875,30.0000,35.5625,36.7500,45.5625,-172.5625,0
1776971508.853,9.1435,2.2146,0.1724,0.4860,0.1567,1.3691,-83.1000,6.6000,-28.8000,9.8114,-0.5650,-2.0590,-0.3968,1.2119,1.2867,-29.1000,-3.9000,19.0500,6.9800,0.4800,-6.9900,-0.6010,0.3840,0.5007,-17.6875,30.0000,35.5625,37.1875,45.9375,-172.4375,0
1776971508.858,9.1435,2.2146,0.1724,0.3989,0.0679,1.3686,-83.1000,6.6000,-28.8000,9.8114,-0.5650,-2.0590,-0.3968,1.2119,1.2867,-28.9500,-4.0500,19.2000,7.0900,-0.4100,-7.3500,-0.5476,0.6305,0.3927,-18.0625,30.6875,35.1875,37.1875,45.9375,-172.4375,0
1776971508.863,9.5122,3.0358,1.2977,0.4317,0.0472,1.3017,-83.1000,6.6000,-28.8000,10.2208,1.0654,-1.5012,-0.2158,1.2502,1.2865,-28.9500,-4.0500,19.2000,7.0900,-0.4100,-7.3500,-0.5476,0.6305,0.3927,-18.0625,30.6875,35.1875,37.5000,46.3125,-172.2500,0
1776971508.869,9.5122,3.0358,1.2977,0.4317,0.0472,1.3017,-84.4500,4.8000,-29.7000,10.3477,2.0949,-1.9800,0.1162,1.2772,1.3225,-26.4000,-5.5500,19.9500,6.2800,-0.1100,-7.2700,-0.4189,0.7145,0.1865,-18.0625,30.6875,35.1875,37.5000,46.3125,-172.2500,0
1776971508.874,9.8306,3.2801,2.4660,0.5702,-0.0338,1.2108,-84.4500,4.8000,-29.7000,10.3477,2.0949,-1.9800,0.1162,1.2772,1.3225,-26.4000,-5.5500,19.9500,6.2800,-0.1100,-7.2700,-0.2803,0.8356,0.0142,-18.0625,30.6875,35.1875,37.6875,46.8125,-172.0000,0
1776971508.879,9.8306,3.2801,2.4660,0.5702,-0.0338,1.2108,-83.7000,4.8000,-29.4000,10.0844,2.5379,-1.6568,0.4647,1.2633,1.3739,-26.4000,-5.5500,19.9500,5.4000,-0.5800,-8.0000,-0.2803,0.8356,0.0142,-18.0625,30.6875,35.1875,37.7500,47.4375,-171.7500,0
1776971508.888,10.0341,3.7948,2.9066,0.6480,-0.0552,1.1151,-83.1000,5.4000,-27.3000,10.3860,2.0973,-1.1588,0.5718,1.3249,1.4623,-28.0500,-7.2000,21.9000,7.1100,-0.0300,-7.3800,-0.1451,1.1977,-0.1593,-18.0625,30.6875,35.1875,37.7500,47.4375,-171.7500,0
1776971508.898,9.9958,3.6966,2.9377,0.6590,-0.0426,0.9926,-82.9500,2.4000,-29.4000,10.9487,1.7526,-1.0534,0.4922,1.4024,1.5543,-27.6000,-9.3000,22.3500,7.9500,1.1600,-5.9300,-0.1658,1.4377,-0.2978,-18.0625,30.6875,35.1875,37.8750,48.1875,-171.3125,0
1776971508.903,9.7731,3.3926,2.7342,0.7210,-0.0381,0.8204,-82.9500,2.4000,-29.4000,10.9487,1.7526,-1.0534,0.4922,1.4024,1.5543,-27.6000,-9.3000,22.3500,7.9500,1.1600,-5.9300,-0.1658,1.4377,-0.2978,-18.0625,30.6875,35.1875,37.8750,48.1875,-171.3125,0
1776971508.908,9.7731,3.3926,2.7342,0.7210,-0.0381,0.8204,-83.4000,2.2500,-29.2500,11.0229,1.2905,-2.1404,0.3254,1.4181,1.6308,-26.1000,-9.0000,22.3500,7.5500,0.5000,-6.3500,-0.2105,1.5021,-0.3349,-18.1875,29.5625,35.6875,38.1250,49.0000,-170.8750,0
1776971508.913,9.5960,2.4684,2.2434,0.7850,-0.0346,0.6129,-83.4000,2.2500,-29.2500,11.0229,1.2905,-2.1404,0.3254,1.4181,1.6308,-26.1000,-9.0000,22.3500,7.5500,0.5000,-6.3500,-0.2105,1.5021,-0.3349,-18.1875,29.5625,35.6875,38.1250,49.0000,-170.8750,0
1776971508.918,9.5960,2.4684,2.2434,0.7850,-0.0346,0.6129,-82.9500,0.9000,-27.4500,10.4004,0.5507,-1.8818,0.1231,1.4810,1.6774,-26.8500,-8.5500,22.8000,6.8200,0.6500,-6.6700,-0.0960,1.3854,-0.3523,-18.1875,29.5625,35.6875,38.1875,49.6875,-170.4375,0
1776971508.925,9.6606,2.0111,2.2410,0.7045,-0.1388,0.3685,-82.9500,0.9000,-27.4500,10.4004,0.5507,-1.8818,0.1231,1.4810,1.6774,-26.8500,-8.5500,22.8000,7.1900,1.2200,-6.1800,-0.1549,1.5468,-0.3436,-18.1875,29.5625,35.6875,38.3125,50.5625,-169.9375,0
1776971508.930,9.7492,1.5227,2.3607,0.7045,-0.1388,0.3685,-82.9500,0.9000,-27.4500,10.5058,0.0838,-1.5036,-0.1673,1.6379,1.7123,-26.8500,-8.5500,22.8000,7.1900,1.2200,-6.1800,-0.1549,1.5468,-0.3436,-18.1875,29.5625,35.6875,38.6875,51.5000,-169.3125,0
1776971508.939,9.7492,1.5227,2.3607,0.4596,-0.2236,0.1244,-81.9000,-0.3000,-27.3000,11.2168,-0.7590,-2.3176,-0.4623,1.6752,1.7301,-26.8500,-8.5500,22.8000,7.2200,1.1100,-5.8900,-0.4734,1.8326,-0.2618,-18.1875,29.5625,35.6875,39.3750,52.6250,-168.4375,0
1776971508.949,11.0492,1.3910,2.4636,0.1348,-0.2044,-0.0493,-81.9000,-0.3000,-27.3000,11.4970,-2.2601,-3.2872,-0.8926,1.7155,1.7509,-26.4000,-12.3000,24.9000,6.6800,0.5700,-6.1700,-0.8748,2.1173,-0.1342,-18.1875,29.5625,35.6875,39.3750,52.6250,-168.4375,0
1776971508.954,11.0492,1.3910,2.4636,-0.1836,-0.1572,-0.1506,-81.9000,-0.3000,-27.3000,11.4970,-2.2601,-3.2872,-0.8926,1.7155,1.7509,-26.4000,-12.3000,24.9000,6.6800,0.5700,-6.1700,-0.8748,2.1173,-0.1342,-18.1875,29.5625,35.6875,39.3750,52.6250,-168.4375,0
1776971508.959,11.8441,2.4229,1.6161,-0.1836,-0.1572,-0.1506,-82.2000,-1.3500,-25.6500,12.5360,-4.3167,-4.0654,-1.6361,1.9247,1.8266,-26.2500,-12.1500,25.0500,6.2900,-2.4900,-8.0900,-1.2752,2.5176,0.0349,-20.7500,29.8750,34.5000,40.3125,54.0000,-167.3750,0
1776971508.963,11.8441,2.4229,1.6161,-0.2960,-0.3373,-0.3102,-82.2000,-1.3500,-25.6500,12.5360,-4.3167,-4.0654,-1.6361,1.9247,1.8266,-26.2500,-12.1500,25.0500,6.2900,-2.4900,-8.0900,-1.2752,2.5176,0.0349,-20.7500,29.8750,34.5000,40.3125,54.0000,-167.3750,0
1776971508.969,12.3876,2.9066,0.3424,-0.2960,-0.3373,-0.3102,-83.2500,-1.3500,-25.6500,13.8816,-6.6319,-4.5921,-2.2953,2.1935,1.8858,-25.5000,-12.4500,25.8000,8.0000,-3.8000,-6.8300,-1.5664,3.2670,0.2956,-20.7500,29.8750,34.5000,41.1875,55.8125,-166.1250,0
1776971508.974,12.3876,2.9066,0.3424,-0.5097,-0.4908,-0.5207,-83.2500,-2.4000,-25.6500,13.8816,-6.6319,-4.5921,-2.2953,2.1935,1.8858,-25.5000,-12.4500,25.8000,8.0000,-3.8000,-6.8300,-1.4672,3.6717,0.4156,-20.7500,29.8750,34.5000,41.8125,57.8125,-164.8750,0
1776971508.979,12.8760,2.6217,-1.3767,-0.7125,-0.7837,-0.7594,-82.3500,-1.0500,-25.0500,16.4242,-8.1594,-8.2432,-3.5791,2.5434,1.7307,-27.3000,-12.9000,25.3500,6.7300,2.7500,-6.6400,-1.4672,3.6717,0.4156,-20.7500,29.8750,34.5000,42.6250,59.8125,-163.5000,0
1776971508.989,11.4371,2.4588,-3.4548,-0.9601,-1.1367,-0.9260,-82.9500,-1.3500,-25.6500,18.1888,-7.4962,-9.4403,-4.4928,2.6156,1.5807,-27.3000,-12.9000,25.3500,1.3800,3.4000,-5.1800,-1.8010,3.5201,0.6010,-20.7500,29.8750,34.5000,42.6250,59.8125,-163.5000,0
1776971508.999,8.9759,3.1388,-3.1532,-1.1143,-1.5372,-1.1215,-80.8500,0.7500,-27.3000,17.6644,2.3535,-8.5617,-6.1897,1.6294,1.6534,-26.1000,-15.3000,24.9000,6.9500,5.3300,-7.0000,-1.1966,5.7901,0.8574,-20.7500,29.8750,34.5000,42.4375,63.0000,-161.9375,0
1776971509.004,8.9759,3.1388,-3.1532,-1.1143,-1.5372,-1.1215,-80.8500,0.7500,-27.3000,17.6644,2.3535,-8.5617,-6.1897,1.6294,1.6534,-26.1000,-15.3000,24.9000,6.9500,5.3300,-7.0000,-1.1966,5.7901,0.8574,-20.7500,29.8750,34.5000,41.1250,67.3125,-159.8125,0
1776971509.009,6.8259,3.4381,-1.0511,-1.0973,-1.7688,-1.4280,-80.8500,0.7500,-27.3000,15.1553,6.1244,0.3208,-7.2827,0.4322,1.6691,-25.2000,-14.7000,23.2500,11.5700,2.4700,-5.6400,-0.2727,7.8573,0.9741,-25.0625,29.5000,32.5000,41.1250,67.3125,-159.8125,0
1776971509.014,6.8259,3.4381,-1.0511,-1.0973,-1.7688,-1.4280,-80.8500,-0.3000,-28.0500,15.1553,6.1244,0.3208,-7.2150,-0.3613,1.6001,-25.2000,-14.7000,23.2500,11.5700,2.4700,-5.6400,-0.2727,7.8573,0.9741,-25.0625,29.5000,32.5000,39.6250,71.8750,-156.5625,0
1776971509.019,7.7189,2.0255,0.4070,-0.9190,-1.8024,-1.9971,-80.8500,-0.3000,-28.0500,13.2112,9.7755,3.8068,-7.2150,-0.3613,1.6001,-25.3500,-14.2500,21.0000,18.4100,3.1700,-7.9200,0.0229,8.4670,1.0505,-25.0625,29.5000,32.5000,39.6250,71.8750,-156.5625,0
1776971509.026,9.7396,-0.4046,0.0934,-0.9190,-1.8024,-1.9971,-80.8500,-0.3000,-28.0500,16.1441,10.2975,1.8651,-5.0409,-0.5678,1.5260,-24.7500,-14.7000,20.4000,17.1800,7.6500,-13.2800,-0.2749,7.4896,0.9632,-25.0625,29.5000,32.5000,38.6250,75.8750,-151.8750,0
1776971509.031,9.7396,-0.4046,0.0934,-1.1162,-1.8077,-2.5242,-81.3000,2.1000,-27.1500,16.1441,10.2975,1.8651,-5.0409,-0.5678,1.5260,-24.7500,-14.7000,20.4000,17.1800,7.6500,-13.2800,-0.2749,7.4896,0.9632,-25.0625,29.5000,32.5000,37.3125,80.2500,-143.4375,0
1776971509.039,10.4818,-1.3264,0.7518,-1.3949,-1.8170,-2.9695,-81.3000,2.1000,-27.1500,18.9453,9.7923,3.6105,-1.7150,-0.0935,0.9406,-25.6500,-14.5500,18.7500,23.2000,7.2500,-10.6900,-0.2291,8.3339,1.5435,-25.0625,29.5000,32.5000,35.3750,84.6875,-175.6250,0
1776971509.049,11.6167,-0.4214,0.5387,-1.5508,-1.4605,-3.2034,-79.3500,2.1000,-27.9000,19.0866,6.5434,0.3352,0.5273,0.3240,0.9595,-25.6500,-14.5500,18.7500,23.3300,2.6600,-6.8500,-0.0120,8.5630,2.6464,-25.0625,29.5000,32.5000,35.3750,84.6875,-175.6250,0
1776971509.054,11.6167,-0.4214,0.5387,-1.5508,-1.4605,-3.2034,-79.3500,3.4500,-27.3000,15.7227,0.9337,2.5067,1.7126,0.9193,0.9678,-25.6500,-14.5500,18.7500,23.3300,2.6600,-6.8500,-0.0120,8.5630,2.6464,-25.0625,29.5000,32.5000,33.0625,87.0625,-2.3750,0
1776971509.059,14.0468,-0.5459,0.3376,-1.2516,-1.1791,-3.1645,-79.3500,3.4500,-27.3000,15.7227,0.9337,2.5067,1.7126,0.9193,0.9678,-24.4500,-16.9500,19.6500,29.3100,6.0800,-16.1100,0.2749,8.5172,3.4438,-33.2500,30.1875,22.6875,33.0625,87.0625,-2.3750,0
1776971509.064,14.0468,-0.5459,0.3376,-1.2516,-1.1791,-3.1645,-79.0500,5.5500,-28.2000,14.7818,-1.6712,3.9935,1.9404,1.8024,1.1338,-24.4500,-16.9500,19.6500,29.3100,6.0800,-16.1100,0.2749,8.5172,3.4438,-33.2500,30.1875,22.6875,33.0625,87.0625,-2.3750,0
1776971509.069,16.9198,-0.9242,0.4118,-0.6046,-1.1135,-3.0259,-79.0500,5.5500,-28.2000,14.7818,-1.6712,3.9935,1.9404,1.8024,1.1338,-25.9500,-18.9000,18.6000,23.1700,9.2500,-16.7400,-0.2978,7.9751,3.6859,-33.2500,30.1875,22.6875,31.0625,83.9375,-0.3125,0
1776971509.075,17.6836,-0.2514,0.4453,-0.2153,-0.9257,-2.9657,-78.9000,6.1500,-27.3000,14.0468,-4.6543,4.8411,2.0672,2.1272,1.3560,-24.4500,-19.2000,22.5000,17.9000,8.6900,-18.3000,-1.6253,6.5428,2.8896,-33.2500,30.1875,22.6875,30.2500,80.1875,7.9375,0
1776971509.080,17.6836,-0.2514,0.4453,-0.2153,-0.9257,-2.9657,-78.7500,6.0000,-27.4500,14.0468,-4.6543,4.8411,2.0672,2.1272,1.3560,-24.4500,-19.2000,22.5000,17.9000,8.6900,-18.3000,-1.6253,6.5428,2.8896,-33.2500,30.1875,22.6875,30.5000,77.2500,13.1250,0
1776971509.089,16.5176,1.0343,0.4262,-0.2033,-0.5273,-2.9196,-78.7500,6.0000,-27.4500,13.8481,-6.4260,5.4492,2.3297,2.6518,1.3446,-25.9500,-19.2000,23.2500,-0.6800,-3.2000,-14.1100,-2.9932,5.0156,2.1991,-33.2500,30.1875,22.6875,31.1250,75.4375,16.8750,0
1776971509.099,14.5160,2.3679,-0.8547,-0.3379,-0.1588,-2.8887,-78.7500,6.0000,-27.4500,13.5129,-9.6941,5.0589,2.5874,3.0017,1.2033,-26.1000,-20.2500,24.1500,18.4800,-5.9600,-7.0300,-3.3510,2.8972,1.6406,-33.2500,30.1875,22.6875,31.1250,75.4375,16.8750,0
1776971509.104,13.3094,2.5283,-2.2434,-0.3938,0.0597,-2.9876,-77.5500,9.9000,-27.9000,9.9311,-11.9710,6.9216,1.8269,2.3638,1.0917,-26.1000,-20.2500,24.1500,18.4800,-5.9600,-7.0300,-3.3510,2.8972,1.6406,-33.2500,30.1875,22.6875,31.1875,72.4375,20.1250,0
1776971509.109,13.3094,2.5283,-2.2434,-0.3938,0.0597,-2.9876,-77.5500,9.9000,-27.9000,9.9311,-11.9710,6.9216,1.8269,2.3638,1.0917,-26.1000,-20.2500,24.1500,33.5800,8.1600,-31.4500,-2.9420,4.9066,2.5405,-35.2500,34.5000,8.5000,31.1875,72.4375,20.1250,0
1776971509.114,12.7036,2.2625,-3.2920,-0.4453,0.0437,-3.0987,-77.5500,9.9000,-27.9000,8.6048,-13.2711,6.2968,0.7320,1.9673,1.0240,-24.3000,-20.5500,29.1000,33.5800,8.1600,-31.4500,-2.9420,4.9066,2.5405,-35.2500,34.5000,8.5000,31.6875,70.3750,23.7500,0
1776971509.119,12.7036,2.2625,-3.2920,-0.4453,0.0437,-3.0987,-77.5500,9.9000,-27.9000,8.6048,-13.2711,6.2968,0.7320,1.9673,1.0240,-24.3000,-20.5500,29.1000,18.2000,9.3900,-20.1500,-3.9630,3.1154,2.1958,-35.2500,34.5000,8.5000,31.6875,70.3750,23.7500,0
1776971509.129,13.0867,2.1045,-3.1795,-0.2944,-0.1604,-3.2639,-76.2000,12.9000,-28.5000,7.2520,-10.5393,6.1435,0.0282,0.8753,0.8402,-24.1500,-20.4000,28.6500,8.6800,13.9700,-12.8500,-3.9575,-0.2422,1.4824,-35.2500,34.5000,8.5000,32.4375,70.1250,28.1875,0
1776971509.139,13.0125,1.7286,-3.1436,0.2054,-0.1458,-3.3183,-74.7000,13.2000,-28.5000,6.6295,-8.0756,5.6527,-0.7234,0.1186,0.4189,-23.2500,-22.5000,29.5500,4.8700,11.2700,-8.2400,-3.0729,-2.4587,1.4104,-35.2500,34.5000,8.5000,32.7500,70.8750,33.8125,0
1776971509.146,12.6965,1.3384,-1.9848,0.8156,0.0099,-3.1826,-73.9500,14.8500,-27.7500,3.8930,-7.1635,5.3343,-1.0560,-0.4106,-0.0314,-23.8500,-22.0500,27.7500,1.3400,9.5500,-5.8400,-1.4301,-3.7525,1.6908,-35.2500,34.5000,8.5000,32.1250,72.0000,40.5625,0
1776971509.151,11.1282,0.9313,-1.3072,0.8156,0.0099,-3.1826,-74.8500,16.9500,-29.7000,2.0446,-6.9121,4.8698,-1.2630,-0.6043,-0.4586,-23.8500,-22.0500,27.7500,1.3400,9.5500,-5.8400,-1.4301,-3.7525,1.6908,-35.2500,34.5000,8.5000,32.1250,72.0000,40.5625,0
1776971509.156,11.1282,0.9313,-1.3072,1.1487,0.1412,-3.0262,-74.8500,16.9500,-29.7000,2.0446,-6.9121,4.8698,-1.2630,-0.6043,-0.4586,-23.8500,-22.0500,27.7500,0.7600,5.9400,-4.1500,0.1658,-3.7405,1.8599,-37.3750,33.3750,8.1875,30.6250,72.7500,47.3750,0
1776971509.161,10.7667,1.4365,-0.7398,1.3885,0.0981,-2.8903,-73.2000,17.5500,-29.8500,1.2354,-5.8945,4.1061,-0.9166,-0.8745,-0.9896,-23.8500,-22.0500,27.7500,0.7600,5.9400,-4.1500,0.1658,-3.7405,1.8599,-37.3750,33.3750,8.1875,30.6250,72.7500,47.3750,0
1776971509.166,10.7667,1.4365,-0.7398,1.3885,0.0981,-2.8903,-73.2000,17.5500,-29.8500,1.2354,-5.8945,4.1061,-0.9166,-0.8745,-0.9896,-25.3500,-19.0500,26.7000,0.5600,4.8700,-4.1000,0.9010,-3.5747,1.8664,-37.3750,33.3750,8.1875,28.8125,73.2500,54.0625,0
1776971509.171,10.3238,0.9266,-0.1676,1.4618,0.1540,-2.6963,-72.4500,20.2500,-30.3000,2.2553,-5.2122,2.9329,-0.5097,-1.2055,-1.5058,-25.3500,-19.0500,26.7000,0.5600,4.8700,-4.1000,0.9010,-3.5747,1.8664,-37.3750,33.3750,8.1875,27.0000,73.5625,60.5625,0
1776971509.179,9.4499,0.3089,-0.1006,1.4618,0.1540,-2.6963,-72.4500,20.2500,-30.3000,0.4621,-6.0262,3.6871,-0.2840,-1.5636,-1.9172,-24.7500,-19.2000,27.9000,0.8200,3.7600,-4.4000,1.1323,-3.5452,1.5599,-37.3750,33.3750,8.1875,25.5625,73.8750,66.8750,0
1776971509.189,8.8418,0.3448,-0.0599,1.4304,0.0722,-2.5514,-72.4500,20.2500,-30.3000,0.6991,-5.8299,3.0550,-0.0080,-1.5122,-2.2700,-23.8500,-19.5000,26.7000,0.8400,2.9700,-4.3400,0.9796,-3.5037,1.0461,-37.3750,33.3750,8.1875,25.5625,73.8750,66.8750,0
1776971509.199,10.8673,-20.0754,-27.6794,1.1511,0.1037,-2.3686,-71.7000,20.2500,-31.0500,1.4222,-6.9671,2.5666,0.2028,-1.7624,-2.5732,-25.5000,-17.7000,25.3500,0.7600,2.7600,-4.1800,0.5661,-3.5048,0.3458,-37.3750,33.3750,8.1875,24.6250,74.3750,73.2500,0
1776971509.204,10.8673,-20.0754,-27.6794,-1.6201,-1.7786,-1.1788,-71.7000,20.2500,-31.0500,1.4222,-6.9671,2.5666,0.2028,-1.7624,-2.5732,-25.9500,-16.9500,24.3000,0.7600,2.7600,-4.1800,0.5661,-3.5048,0.3458,-37.3750,33.3750,8.1875,24.6250,74.3750,73.2500,0
1776971509.209,-0.3855,12.8976,2.7294,2.8210,1.0693,-1.5178,-71.7000,20.2500,-31.0500,0.3831,-7.6184,2.6336,0.4066,-2.0014,-2.7883,-25.9500,-16.9500,24.3000,1.6000,3.2000,-4.6500,0.1036,-3.4645,-0.3731,-37.7500,36.0000,15.2500,24.3125,75.0000,79.8750,0
1776971509.214,-0.3855,12.8976,2.7294,2.8210,1.0693,-1.5178,-71.8500,20.8500,-31.9500,0.3831,-7.6184,2.6336,0.4066,-2.0014,-2.7883,-25.9500,-16.9500,24.3000,1.6000,3.2000,-4.6500,0.1036,-3.4645,-0.3731,-37.7500,36.0000,15.2500,24.3125,75.0000,79.8750,0
1776971509.219,9.6079,7.5513,2.5618,1.8093,0.7352,-1.9849,-71.8500,20.8500,-31.9500,1.3144,-6.6702,2.2410,0.4085,-1.9851,-2.8551,-25.9500,-16.9500,24.3000,2.6400,3.6200,-5.0600,-0.2334,-3.4481,-1.0516,-37.7500,36.0000,15.2500,24.5625,75.8125,87.0625,0
1776971509.227,5.8658,6.6559,-10.6015,1.8093,0.7352,-1.9849,-69.7500,19.0500,-33.3000,2.1165,-6.4308,2.4732,0.2920,-2.0672,-3.0257,-27.7500,-16.2000,22.2000,4.7600,4.2400,-6.4600,-0.3251,-3.4994,-1.6166,-37.7500,36.0000,15.2500,25.1875,76.6875,95.3125,0
1776971509.232,5.8658,6.6559,-10.6015,0.4255,0.4029,-2.0283,-71.2500,19.5000,-34.0500,2.1165,-6.4308,2.4732,0.2920,-2.0672,-3.0257,-27.6000,-13.8000,22.0500,4.7600,4.2400,-6.4600,-0.3251,-3.4994,-1.6166,-37.7500,36.0000,15.2500,25.9375,77.4375,105.1875,0
1776971509.240,8.4108,2.4588,-1.9872,0.1735,-0.4034,-1.7483,-71.2500,19.5000,-34.0500,2.6432,-6.1579,2.7701,0.3784,-2.1975,-3.2322,-27.6000,-13.8000,22.0500,5.8400,3.8600,-6.7500,-0.2160,-3.7274,-2.0355,-37.7500,36.0000,15.2500,26.7500,77.8125,117.1875,0
1776971509.250,8.4970,-1.8100,1.5467,0.1719,-0.2260,-1.6835,-70.5000,19.9500,-32.8500,2.5067,-5.2864,3.5458,0.4834,-2.4440,-3.3761,-28.0500,-13.9500,22.2000,6.4900,3.3100,-7.0400,0.0131,-4.1692,-2.3366,-37.7500,36.0000,15.2500,26.7500,77.8125,117.1875,0
1776971509.254,8.4970,-1.8100,1.5467,0.1719,-0.2260,-1.6835,-69.0000,21.4500,-32.8500,2.5067,-5.2864,3.5458,0.4834,-2.4440,-3.3761,-29.4000,-12.0000,21.3000,6.4900,3.3100,-7.0400,0.0131,-4.1692,-2.3366,-45.3750,34.0000,25.5625,27.5000,77.5000,130.6875,0
1776971509.259,9.2057,-2.2314,2.4086,0.6965,-0.4676,-1.6289,-69.0000,21.4500,-32.8500,2.7988,-4.7357,3.2034,0.5185,-2.7107,-3.4979,-29.4000,-12.0000,21.3000,7.6700,1.6000,-7.8600,0.1865,-4.7222,-2.5700,-45.3750,34.0000,25.5625,27.5000,77.5000,130.6875,0
1776971509.264,9.2057,-2.2314,2.4086,0.6965,-0.4676,-1.6289,-69.4500,21.4500,-31.8000,2.7988,-4.7357,3.2034,0.5185,-2.7107,-3.4979,-29.4000,-9.7500,21.0000,7.6700,1.6000,-7.8600,0.1865,-4.7222,-2.5700,-45.3750,34.0000,25.5625,28.4375,76.4375,144.0000,0
1776971509.269,6.6966,-0.5626,0.0646,0.9217,-0.4370,-1.5423,-69.4500,21.4500,-31.8000,2.9090,-4.8435,3.2848,0.6312,-2.9663,-3.6393,-29.4000,-9.7500,21.0000,8.3300,0.8500,-8.2500,0.1767,-5.2054,-2.7805,-45.3750,34.0000,25.5625,28.4375,76.4375,144.0000,0
1776971509.274,6.6966,-0.5626,0.0646,0.9217,-0.4370,-1.5423,-69.4500,21.4500,-31.8000,2.9090,-4.8435,3.2848,0.6312,-2.9663,-3.6393,-29.4000,-9.7500,21.0000,8.3300,0.8500,-8.2500,-0.0022,-5.6407,-2.9703,-45.3750,34.0000,25.5625,29.5625,74.5625,155.6250,0
1776971509.280,6.9192,1.3024,-0.7207,0.8418,-0.0624,-1.3848,-69.4500,21.4500,-31.8000,3.2872,-4.6878,3.5769,0.9089,-3.1810,-3.7979,-29.4000,-9.7500,21.0000,9.7200,0.3200,-8.8700,-0.0022,-5.6407,-2.9703,-45.3750,34.0000,25.5625,31.1250,72.0000,165.0625,0
1776971509.289,6.7612,-0.2370,-0.9529,0.9073,0.0410,-1.2550,-68.2500,22.9500,-32.8500,2.9473,-4.7573,4.8602,1.0355,-3.3108,-3.9010,-29.4000,-8.5500,19.2000,10.2000,0.0300,-8.7400,-0.3065,-5.9756,-3.1656,-45.3750,34.0000,25.5625,31.1250,72.0000,165.0625,0
1776971509.299,6.8354,-0.5100,0.0982,0.7629,0.2457,-1.0208,-69.1500,22.5000,-33.4500,4.5753,-4.0390,5.8490,1.1762,-3.1533,-3.9775,-31.2000,-7.8000,18.1500,9.2000,-0.4200,-6.8900,-0.6043,-6.1381,-3.3499,-45.3750,34.0000,25.5625,33.1250,69.0000,172.4375,0
1776971509.304,6.7205,-1.0319,0.9266,0.7629,0.2457,-1.0208,-68.4000,22.5000,-34.2000,5.4372,-3.0430,4.1970,1.2582,-2.8138,-4.2226,-32.5500,-4.8000,16.6500,9.2000,-0.4200,-6.8900,-0.6043,-6.1381,-3.3499,-45.3750,34.0000,25.5625,33.1250,69.0000,172.4375,0
1776971509.309,6.7205,-1.0319,0.9266,0.7080,0.4498,-0.7735,-68.4000,22.5000,-34.2000,5.4372,-3.0430,4.1970,1.2582,-2.8138,-4.2226,-31.3500,-4.2000,18.3000,8.2200,-0.4200,-5.1500,-0.8454,-6.3006,-3.3881,-37.0000,22.7500,37.8750,35.5625,65.6875,178.0625,0
1776971509.314,7.2161,-0.3711,1.6568,0.7080,0.4498,-0.7735,-67.6500,23.2500,-34.2000,6.0214,-2.1955,0.6560,1.8482,-2.5961,-4.5352,-31.3500,-4.2000,18.3000,8.2200,-0.4200,-5.1500,-0.8454,-6.3006,-3.3881,-37.0000,22.7500,37.8750,35.5625,65.6875,178.0625,0
1776971509.319,7.2161,-0.3711,1.6568,0.7290,0.6078,-0.4855,-67.6500,23.2500,-34.2000,6.0214,-2.1955,0.6560,1.8482,-2.5961,-4.5352,-31.3500,-4.2000,18.3000,7.5500,-0.2900,-3.8300,-1.0134,-6.1861,-3.3369,-37.0000,22.7500,37.8750,38.3125,62.2500,-177.5625,0
1776971509.328,6.7133,-0.5698,0.7829,0.5201,0.6110,-0.1911,-69.1500,22.5000,-35.2500,8.0972,-3.2322,-3.2920,2.2791,-3.0265,-4.7835,-31.3500,-4.2000,18.3000,13.3400,1.1400,-5.4200,-1.1585,-5.6974,-3.1863,-37.0000,22.7500,37.8750,41.4375,59.0000,-174.1875,0
1776971509.332,6.7133,-0.5698,0.7829,0.5201,0.6110,-0.1911,-67.9500,23.8500,-36.1500,8.0972,-3.2322,-3.2920,2.2791,-3.0265,-4.7835,-31.3500,-4.2000,18.3000,13.3400,1.1400,-5.4200,-1.1585,-5.6974,-3.1863,-37.0000,22.7500,37.8750,44.8125,55.9375,-171.2500,0
1776971509.340,5.5809,-1.1325,-1.6352,0.1490,0.9843,0.0133,-67.9500,23.8500,-36.1500,10.4507,-5.2170,0.7829,2.2039,-3.6178,-4.8773,-31.5000,0.0000,12.4500,15.0200,1.7800,-7.5900,-1.1552,-5.0658,-3.2659,-37.0000,22.7500,37.8750,48.4375,53.0625,-168.6250,0
1776971509.350,4.4245,-0.4836,-1.7382,-0.3206,1.7925,0.2627,-67.9500,23.8500,-36.1500,12.3948,-3.9768,3.2202,2.0936,-3.8805,-4.8784,-31.2000,0.3000,11.7000,16.6900,2.4700,-10.1300,-1.0188,-4.6218,-3.5408,-37.0000,22.7500,37.8750,48.4375,53.0625,-168.6250,0
1776971509.354,3.5865,-2.1787,-1.3862,-1.1562,3.4131,0.5566,-70.5000,26.1000,-38.8500,15.6341,-4.8459,5.0781,1.8106,-3.5685,-4.2016,-31.2000,0.3000,11.7000,16.6900,2.4700,-10.1300,-1.0188,-4.6218,-3.5408,-37.0000,22.7500,37.8750,52.1875,50.3125,-166.3125,0
1776971509.360,3.5865,-2.1787,-1.3862,-1.1562,3.4131,0.5566,-70.5000,26.1000,-38.8500,15.6341,-4.8459,5.0781,1.8106,-3.5685,-4.2016,-32.5500,2.2500,11.7000,23.6800,4.4400,-15.2100,-0.8159,-4.3622,-3.6128,-39.3750,28.7500,41.7500,52.1875,50.3125,-166.3125,0
1776971509.364,12.7036,1.2019,-1.1899,-0.0829,1.4552,0.9582,-70.5000,26.1000,-38.8500,16.7786,-3.5721,0.7159,0.7269,-2.4547,-3.1491,-32.5500,2.2500,11.7000,23.6800,4.4400,-15.2100,-0.8159,-4.3622,-3.6128,-39.3750,28.7500,41.7500,52.1875,50.3125,-166.3125,0
1776971509.370,12.7036,1.2019,-1.1899,-0.0829,1.4552,0.9582,-70.5000,26.1000,-38.8500,16.7786,-3.5721,0.7159,0.7269,-2.4547,-3.1491,-31.6500,3.9000,10.0500,26.7500,5.2800,-15.3600,-0.5640,-4.3797,-3.5419,-39.3750,28.7500,41.7500,55.8750,47.4375,-164.5625,0
1776971509.374,9.7085,4.1420,-2.6576,0.4914,-0.0045,1.2609,-73.6500,26.5500,-38.4000,17.4226,-2.7485,1.4198,0.9398,-2.7534,-2.8005,-31.6500,3.9000,10.0500,26.7500,5.2800,-15.3600,-0.2825,-4.7484,-3.4601,-39.3750,28.7500,41.7500,59.6875,44.3750,-163.2500,0
1776971509.380,9.7085,4.1420,-2.6576,0.4914,-0.0045,1.2609,-73.6500,26.5500,-38.4000,17.4226,-2.7485,1.4198,0.9398,-2.7534,-2.8005,-31.6500,3.9000,10.0500,26.8600,5.9100,-13.3400,-0.2825,-4.7484,-3.4601,-39.3750,28.7500,41.7500,25.3750,41.0625,-162.3750,0
1776971509.390,10.8577,6.2130,-1.8675,0.8828,-0.6320,1.2734,-73.8000,24.7500,-39.3000,14.1689,-0.4429,-1.1253,0.8569,-3.4560,-2.6135,-31.6500,6.4500,9.0000,25.1700,5.7500,-10.8700,0.0742,-5.2622,-3.4198,-39.3750,28.7500,41.7500,23.8125,37.5625,-161.9375,0
1776971509.400,7.4316,7.3909,-2.1189,0.9257,-0.6504,1.2422,-72.6000,23.5500,-37.5000,9.0429,-0.6536,0.9433,0.8767,-3.8453,-2.6513,-29.8500,6.1500,5.8500,22.1500,1.5700,-6.1300,0.4254,-5.5392,-3.3739,-39.3750,28.7500,41.7500,23.8125,37.5625,-161.9375,0
1776971509.405,5.6958,8.1163,-1.8435,0.6952,0.0610,1.1394,-72.9000,22.6500,-38.8500,8.1475,-1.1875,1.6233,1.3853,-3.3833,-2.6636,-29.8500,6.1500,5.8500,22.1500,1.5700,-6.1300,0.4254,-5.5392,-3.3739,-39.3750,28.7500,41.7500,22.2500,34.0625,-161.6875,0
1776971509.410,5.6958,8.1163,-1.8435,0.6952,0.0610,1.1394,-72.9000,22.6500,-38.8500,8.1475,-1.1875,1.6233,1.3853,-3.3833,-2.6636,-29.4000,7.0500,5.2500,20.9100,-2.4100,-5.6800,0.6556,-5.4465,-3.4328,-43.2500,2.6875,68.6875,22.2500,34.0625,-161.6875,0
1776971509.414,6.9432,8.5521,0.9768,1.0091,0.2385,1.0096,-73.3500,23.5500,-37.9500,11.1690,0.2203,2.0231,1.6236,-2.7371,-2.3427,-29.4000,7.0500,5.2500,20.9100,-2.4100,-5.6800,0.6556,-5.4465,-3.4328,-43.2500,2.6875,68.6875,20.6250,30.7500,-161.3125,0
1776971509.420,4.8411,7.3334,0.9098,1.0091,0.2385,1.0096,-73.3500,23.5500,-37.9500,11.1690,0.2203,2.0231,1.6236,-2.7371,-2.3427,-29.8500,8.4000,4.0500,20.6700,-2.5200,-5.3400,0.5094,-5.1520,-3.5867,-43.2500,2.6875,68.6875,20.6250,30.7500,-161.3125,0
1776971509.428,4.8411,7.3334,0.9098,1.3675,0.5438,0.8756,-73.0500,23.5500,-37.9500,12.1099,0.3687,3.2537,1.5343,-2.8517,-2.1629,-28.5000,8.7000,3.6000,20.4900,-0.8900,-5.1200,0.1353,-4.9055,-3.5528,-43.2500,2.6875,68.6875,19.0625,27.5625,-160.8750,0
1776971509.433,5.2481,6.8426,0.1269,1.1463,1.0730,0.8351,-73.0500,23.5500,-37.9500,10.2999,0.8452,-1.3288,0.5745,-2.9825,-2.0821,-28.5000,8.7000,3.6000,20.4900,-0.8900,-5.1200,0.1353,-4.9055,-3.5528,-43.2500,2.6875,68.6875,17.6250,24.5000,-160.5000,0
1776971509.440,8.4108,7.9009,-1.0080,0.5740,0.7943,0.8633,-73.0500,23.5500,-37.9500,9.6055,-0.3974,-4.8890,0.5255,-2.7949,-1.8623,-28.5000,8.7000,3.6000,20.1900,-1.9300,-3.9500,0.1549,-4.6415,-3.2867,-43.2500,2.6875,68.6875,16.3125,21.7500,-160.5625,0
1776971509.450,9.4403,8.0254,-2.4828,-0.1532,0.2856,0.8772,-74.4000,21.0000,-38.8500,7.2808,-1.0822,-4.3718,0.9510,-2.1045,-1.6249,-26.7000,8.7000,1.2000,20.8700,-2.8400,-1.6600,0.6850,-4.2793,-2.9038,-43.2500,2.6875,68.6875,16.3125,21.7500,-160.5625,0
1776971509.455,9.4403,8.0254,-2.4828,-0.1532,0.2856,0.8772,-74.4000,21.0000,-38.8500,7.2808,-1.0822,-4.3718,0.9510,-2.1045,-1.6249,-26.7000,8.7000,1.2000,20.8700,-2.8400,-1.6600,0.6850,-4.2793,-2.9038,-43.2500,2.6875,68.6875,16.3125,21.7500,-160.5625,0
1776971509.460,8.8609,8.0373,-3.0861,-0.3443,-0.1180,0.8548,-74.4000,21.0000,-38.8500,6.8091,-0.1221,-2.9233,0.5641,-1.6025,-1.2193,-26.2500,9.9000,-0.1500,15.7500,-3.4800,5.7800,1.2381,-3.9204,-2.3278,-11.6875,-0.7500,57.7500,15.2500,19.2500,-161.0625,0
1776971509.465,8.8609,8.0373,-3.0861,-0.3443,-0.1180,0.8548,-75.3000,22.0500,-39.3000,6.8091,-0.1221,-2.9233,0.5641,-1.6025,-1.2193,-26.2500,9.9000,-0.1500,15.7500,-3.4800,5.7800,1.2381,-3.9204,-2.3278,-11.6875,-0.7500,57.7500,15.2500,19.2500,-161.0625,0
1776971509.470,7.3143,8.2863,-3.3160,-0.2118,-0.2156,0.8615,-75.3000,22.0500,-39.3000,4.8530,0.7518,-2.3032,-0.1391,-1.0768,-0.8178,-25.5000,9.9000,-0.1500,17.1300,-6.8900,7.7900,1.3723,-3.7699,-1.7126,-11.6875,-0.7500,57.7500,14.5000,17.0000,-161.7500,0
1776971509.476,7.3143,8.2863,-3.3160,-0.2118,-0.2156,0.8615,-75.9000,19.9500,-38.1000,4.8530,0.7518,-2.3032,-0.1391,-1.0768,-0.8178,-25.5000,9.9000,-0.1500,17.1000,-9.1600,10.1200,1.0897,-2.8885,-1.2577,-11.6875,-0.7500,57.7500,13.9375,15.2500,-162.3125,0
1776971509.481,7.2808,8.6359,-3.5243,-0.0112,-0.1367,0.8055,-75.9000,19.9500,-38.1000,4.4460,2.4924,-3.4740,-0.5870,-0.2595,-0.4247,-24.7500,10.6500,0.1500,17.1000,-9.1600,10.1200,1.0897,-2.8885,-1.2577,-11.6875,-0.7500,57.7500,13.6875,14.0000,-162.3750,0
1776971509.490,7.7644,9.5313,-3.1987,0.2513,-0.1340,0.6845,-74.5500,20.4000,-37.9500,4.4796,4.3000,-3.1508,-0.5966,0.2126,-0.0067,-25.9500,11.4000,-0.7500,16.6300,-7.7400,11.0700,0.0905,-2.0889,-0.7843,-11.6875,-0.7500,57.7500,13.6250,13.0625,-161.8750,0
1776971509.500,8.5018,9.8689,-2.1835,0.1748,-0.2952,0.4804,-74.5500,19.6500,-39.3000,4.5011,5.5258,-2.2338,-0.2931,0.6931,0.4013,-25.9500,11.4000,-0.7500,16.6300,-2.5600,11.3900,-0.9076,-1.6024,-0.4996,-11.6875,-0.7500,57.7500,13.6250,13.0625,-161.8750,0
1776971509.505,8.5018,9.8689,-2.1835,0.1748,-0.2952,0.4804,-74.1000,19.3500,-38.5500,4.5011,5.5258,-2.2338,-0.2931,0.6931,0.4013,-25.9500,11.4000,-0.7500,16.6300,-2.5600,11.3900,-0.9076,-1.6024,-0.4996,-11.6875,-0.7500,57.7500,13.6250,12.5000,-161.3750,0
1776971509.510,8.3462,9.3422,-1.2426,0.1354,-0.4557,0.2324,-74.1000,19.3500,-38.5500,5.8131,4.4819,-2.1428,0.1114,1.0701,0.7525,-25.5000,10.2000,2.5500,16.1900,-1.1900,11.4900,-0.8628,-0.9643,-0.2662,-8.0625,2.8750,56.2500,13.6250,12.5000,-161.3750,0
1776971509.515,8.3462,9.3422,-1.2426,0.1354,-0.4557,0.2324,-74.5500,17.7000,-38.2500,5.8131,4.4819,-2.1428,0.1114,1.0701,0.7525,-25.5000,10.2000,2.5500,16.1900,-1.1900,11.4900,-0.8628,-0.9643,-0.2662,-8.0625,2.8750,56.2500,13.6875,12.3125,-161.3125,0
1776971509.520,7.9751,7.8602,-0.5531,0.2992,-0.3960,0.0400,-74.5500,17.7000,-38.2500,6.3614,2.0614,-1.9249,0.6656,1.3121,1.0387,-25.6500,11.2500,1.0500,14.9600,-0.8100,11.4000,-0.1254,-0.4134,0.0436,-8.0625,2.8750,56.2500,13.6875,12.3125,-161.3125,0
1776971509.530,7.6231,8.4994,-0.5076,0.8037,-0.3277,0.0437,-74.5500,17.7000,-38.2500,8.0062,1.5754,2.1069,1.2764,1.6236,1.2111,-27.3000,9.9000,2.5500,14.2600,-2.4000,7.3400,0.6818,0.2793,0.3109,-8.0625,2.8750,56.2500,13.7500,12.5000,-161.7500,0
1776971509.540,8.1211,8.6550,-2.3320,1.0637,-0.4759,0.3533,-74.8500,17.4000,-36.0000,11.1163,0.1125,0.1532,0.7349,2.3062,1.2668,-27.7500,9.1500,3.0000,3.7700,-7.8000,4.6000,1.2414,1.0341,0.4396,-8.0625,2.8750,56.2500,13.8750,13.1250,-162.4375,0
1776971509.549,9.5624,8.0230,-1.5347,1.4629,-0.3922,0.7296,-74.4000,15.1500,-34.3500,14.1282,2.1931,-1.8268,1.0901,2.3363,0.9425,-27.7500,9.1500,3.0000,0.1200,7.7400,-12.4300,1.3264,1.7322,1.1421,-8.0625,2.8750,56.2500,14.2500,14.2500,-163.2500,0
1776971509.554,12.0859,6.3805,-2.7366,1.4629,-0.3922,0.7296,-75.1500,16.8000,-35.1000,14.1282,2.1931,-1.8268,1.0901,2.3363,0.9425,-27.7500,9.1500,3.0000,0.1200,7.7400,-12.4300,1.3264,1.7322,1.1421,-8.0625,2.8750,56.2500,14.2500,14.2500,-163.2500,0
1776971509.559,12.0859,6.3805,-2.7366,1.2033,-0.4274,1.3081,-75.1500,16.8000,-35.1000,16.0651,1.1899,-8.9759,0.2204,2.1629,0.6744,-29.1000,8.7000,4.3500,0.3000,7.4100,-20.2200,1.4977,2.6431,1.2785,-8.0625,2.5625,60.0625,14.6250,15.8125,-164.1875,0
1776971509.564,13.9510,2.2841,-1.4772,1.2033,-0.4274,1.3081,-75.1500,16.8000,-35.1000,16.0651,1.1899,-8.9759,0.2204,2.1629,0.6744,-29.1000,8.7000,4.3500,0.3000,7.4100,-20.2200,1.4977,2.6431,1.2785,-8.0625,2.5625,60.0625,14.6250,15.8125,-164.1875,0
1776971509.569,13.9510,2.2841,-1.4772,1.0501,-0.3640,1.4549,-73.6500,14.4000,-35.1000,15.8544,-2.3367,-10.7883,1.3376,1.1002,0.3837,-28.5000,7.6500,6.1500,-0.0200,-5.5200,-3.6000,1.0701,3.3499,1.6384,-8.0625,2.5625,60.0625,15.2500,17.8750,-164.8750,0
1776971509.573,14.5256,-1.3599,-1.8771,1.0501,-0.3640,1.4549,-73.6500,14.4000,-35.1000,15.8544,-2.3367,-10.7883,1.3376,1.1002,0.3837,-28.5000,7.6500,6.1500,-0.0200,-5.5200,-3.6000,1.0701,3.3499,1.6384,-8.0625,2.5625,60.0625,15.4375,19.5625,-165.6875,0
1776971509.581,14.5256,-1.3599,-1.8771,1.6883,-0.3877,1.2993,-74.4000,13.6500,-34.8000,13.1154,-2.7653,-4.9392,1.8562,0.9657,0.4549,-29.7000,7.5000,7.0500,-0.9200,2.7000,-4.1400,1.4028,2.9038,1.0287,-8.0625,2.5625,60.0625,15.0625,21.3750,-166.0000,0
1776971509.590,14.0803,-0.3855,-4.0701,2.1477,-0.5375,1.0600,-74.1000,11.1000,-33.7500,13.5703,-3.0909,-1.8244,1.0301,1.2412,0.9054,-29.8500,7.6500,6.9000,11.2800,3.4700,-10.3000,0.9338,3.4252,-0.1538,-8.0625,2.5625,60.0625,15.0625,21.3750,-166.0000,0
1776971509.600,13.5655,2.7605,-5.6431,1.6742,-0.3056,0.6710,-74.1000,11.1000,-33.7500,12.6414,-1.2689,-2.0063,0.4815,1.3113,1.1754,-29.7000,6.0000,7.0500,11.3700,-2.3000,-10.8900,0.3676,4.7822,-0.4549,-8.0625,2.5625,60.0625,14.4375,23.8750,-165.8750,0
1776971509.605,12.9957,3.1699,-3.7397,1.3568,-0.0845,0.3413,-73.3500,8.4000,-31.9500,13.1777,-0.2466,-1.4868,0.4167,1.5916,1.2561,-29.7000,6.0000,7.0500,11.3700,-2.3000,-10.8900,0.3676,4.7822,-0.4549,-8.0625,2.5625,60.0625,14.4375,23.8750,-165.8750,0
1776971509.610,12.9957,3.1699,-3.7397,1.3568,-0.0845,0.3413,-73.3500,8.4000,-31.9500,13.1777,-0.2466,-1.4868,0.4167,1.5916,1.2561,-29.7000,6.0000,7.0500,8.3800,0.9700,-11.3200,0.0633,4.7506,-0.6927,-16.5625,7.1875,60.0625,13.7500,26.3750,-165.3750,0
1776971509.615,13.2088,2.0351,-2.5067,1.5524,-0.0211,0.1178,-73.3500,8.4000,-31.9500,12.3062,1.0654,2.3487,1.3158,1.5436,1.2359,-30.7500,3.7500,9.6000,8.3800,0.9700,-11.3200,0.0633,4.7506,-0.6927,-16.5625,7.1875,60.0625,13.7500,26.3750,-165.3750,0
1776971509.620,13.2088,2.0351,-2.5067,1.5524,-0.0211,0.1178,-73.3500,8.4000,-31.9500,12.3062,1.0654,2.3487,1.3158,1.5436,1.2359,-30.7500,3.7500,9.6000,13.8200,0.0600,-15.2500,-0.1451,4.4484,-0.4461,-16.5625,7.1875,60.0625,13.1875,28.6875,-164.8750,0
1776971509.628,11.6286,-0.5938,-0.6871,1.5167,-0.1615,0.0773,-73.2000,6.1500,-31.3500,12.2942,2.6169,5.6695,2.0494,1.8309,1.1711,-31.6500,3.1500,9.7500,22.2200,7.0600,-13.7500,0.2105,4.5597,-0.2771,-16.5625,7.1875,60.0625,12.6875,31.0625,-164.5000,0
1776971509.633,8.7676,-2.2529,2.6432,0.6760,-0.2150,0.1514,-73.2000,6.1500,-31.3500,10.5608,2.3870,5.5593,2.8477,1.7579,0.9667,-31.6500,3.1500,9.7500,22.2200,7.0600,-13.7500,0.2105,4.5597,-0.2771,-16.5625,7.1875,60.0625,12.3750,33.5625,-164.8125,0
1776971509.641,7.6614,-4.6160,3.8523,0.6760,-0.2150,0.1514,-73.9500,5.4000,-29.8500,10.5608,2.3870,5.5593,2.8477,1.7579,0.9667,-30.1500,2.2500,11.4000,14.6400,6.8600,-3.6600,1.0886,4.5379,0.2716,-16.5625,7.1875,60.0625,12.2500,35.7500,-165.5625,0
1776971509.650,8.3222,-5.6312,2.4325,-0.0666,0.0962,0.2848,-73.0500,3.3000,-28.6500,8.8538,0.5842,3.9193,2.9604,1.5639,0.7456,-31.9500,1.0500,10.9500,10.2700,0.0400,-9.1200,1.6330,3.8692,0.7439,-16.5625,7.1875,60.0625,12.2500,35.7500,-165.5625,0
1776971509.655,8.3222,-5.6312,2.4325,-0.3853,0.4506,0.5375,-73.0500,3.3000,-28.6500,7.2305,-3.1196,3.8427,2.9362,1.2375,0.4631,-31.9500,-0.3000,12.4500,10.2700,0.0400,-9.1200,1.6330,3.8692,0.7439,-16.5625,7.1875,60.0625,12.3125,37.1250,-166.4375,0
1776971509.660,9.2129,-3.7565,0.7087,-0.3853,0.4506,0.5375,-73.0500,3.6000,-27.9000,7.2305,-3.1196,3.8427,2.9362,1.2375,0.4631,-31.9500,-0.3000,12.4500,8.6400,-2.8400,-9.7300,1.3243,2.3933,0.8018,-33.6875,7.0000,59.5625,12.3125,37.1250,-166.4375,0
1776971509.665,9.2129,-3.7565,0.7087,-0.6624,0.6302,0.8106,-73.2000,3.4500,-27.7500,7.8793,-4.6663,2.1620,3.1243,1.0080,0.1820,-31.9500,-0.3000,12.4500,8.6400,-2.8400,-9.7300,1.3243,2.3933,0.8018,-33.6875,7.0000,59.5625,12.4375,38.2500,-167.1875,0
1776971509.670,10.4028,-1.5826,1.0247,-0.6624,0.6302,0.8106,-73.2000,3.4500,-27.7500,7.8793,-4.6663,2.1620,3.1243,1.0080,0.1820,-31.9500,-0.3000,12.4500,8.8800,2.1100,-7.5600,1.1006,1.9362,0.7887,-33.6875,7.0000,59.5625,12.4375,38.2500,-167.1875,0
1776971509.675,10.4028,-1.5826,1.0247,-1.0608,0.8553,1.0008,-73.2000,3.4500,-27.7500,8.3653,-6.6702,3.7014,2.8959,0.7861,-0.0946,-32.8500,-1.6500,13.9500,8.8800,2.1100,-7.5600,0.9796,1.8751,0.7003,-33.6875,7.0000,59.5625,12.5000,39.3750,-167.8125,0
1776971509.681,10.9223,0.0622,2.4852,-1.0448,0.9505,1.0912,-72.9000,4.2000,-27.0000,8.3653,-6.6702,3.7014,2.8959,0.7861,-0.0946,-32.8500,-1.6500,13.9500,10.0000,0.3400,-8.6200,0.9796,1.8751,0.7003,-33.6875,7.0000,59.5625,12.6250,40.3125,-168.4375,0
1776971509.690,10.9942,1.1325,2.5594,-0.6462,0.9020,1.1034,-72.9000,4.2000,-27.0000,9.8904,-7.0246,5.2672,1.8255,1.1703,-0.0440,-34.9500,-2.4000,16.5000,10.6700,-3.0200,-10.6900,0.8149,1.6122,0.6654,-33.6875,7.0000,59.5625,12.6250,40.3125,-168.4375,0
1776971509.700,10.9271,1.9273,0.8380,-0.3216,0.7474,1.0592,-75.3000,2.8500,-27.1500,12.6677,-5.6695,4.8147,0.3400,1.6473,0.1969,-33.7500,-1.0500,17.7000,7.0800,0.6200,-7.4300,0.7418,1.2228,0.4691,-33.6875,7.0000,59.5625,12.6875,41.0000,-168.9375,0
1776971509.705,10.9271,1.9273,0.8380,-0.3216,0.7474,1.0592,-75.3000,2.8500,-27.1500,14.4299,-4.9775,3.6009,-1.5481,1.4981,0.5300,-33.6000,-0.9000,17.8500,7.0800,0.6200,-7.4300,0.7418,1.2228,0.4691,-33.6875,7.0000,59.5625,12.6875,41.0000,-168.9375,0
1776971509.710,10.2951,0.9888,-0.3903,-0.1196,0.6342,1.0541,-75.3000,2.8500,-27.1500,14.4299,-4.9775,3.6009,-1.5481,1.4981,0.5300,-33.6000,-0.9000,17.8500,5.9100,3.1200,-7.0100,0.3916,0.8127,0.2803,-43.1875,12.1875,55.7500,12.7500,41.5000,-169.2500,0
1776971509.715,10.2951,0.9888,-0.3903,-0.1196,0.6342,1.0541,-75.3000,2.8500,-27.1500,12.3182,-2.9904,0.2969,-2.9351,1.0754,0.7298,-33.6000,-0.9000,17.8500,5.9100,3.1200,-7.0100,0.3916,0.8127,0.2803,-43.1875,12.1875,55.7500,12.7500,41.5000,-169.2500,0
1776971509.720,9.8043,1.1732,-0.7326,-0.0597,0.6070,1.0451,-75.4500,2.2500,-26.5500,10.3932,-2.7749,-2.0518,-2.3649,0.6358,0.7994,-33.6000,-0.9000,17.8500,7.0800,0.2800,-7.6700,0.2760,0.6403,0.2280,-43.1875,12.1875,55.7500,12.7500,41.8750,-169.4375,0
1776971509.727,9.5720,1.5323,-0.7709,-0.0597,0.6070,1.0451,-75.4500,3.0000,-26.2500,10.3932,-2.7749,-2.0518,-2.3649,0.6358,0.7994,-33.6000,-0.9000,17.8500,6.7200,0.9400,-7.2300,0.2531,0.6032,0.2258,-43.1875,12.1875,55.7500,12.8125,42.2500,-169.6250,0
1776971509.732,9.5720,1.5323,-0.7709,-0.0360,0.4956,1.0653,-75.4500,3.0000,-26.2500,8.9783,1.4246,-1.9848,-1.5945,0.7218,0.7898,-33.6000,-0.9000,17.8500,6.7200,0.9400,-7.2300,0.2531,0.6032,0.2258,-43.1875,12.1875,55.7500,12.8750,42.4375,-169.7500,0
1776971509.740,9.5265,0.7997,-0.8715,0.0610,0.4112,1.1032,-76.0500,2.8500,-26.1000,9.1530,2.8515,-1.6664,-0.9049,0.8444,0.7933,-34.0500,1.0500,16.6500,6.8000,1.0000,-7.1900,0.1331,0.3960,0.2051,-43.1875,12.1875,55.7500,12.9375,42.5625,-169.9375,0
