timestamp,thigh_acc_x,thigh_acc_y,thigh_acc_z,thigh_gyro_x,thigh_gyro_y,thigh_gyro_z,thigh_mag_x,thigh_mag_y,thigh_mag_z,shank_acc_x,shank_acc_y,shank_acc_z,shank_gyro_x,shank_gyro_y,shank_gyro_z,shank_mag_x,shank_mag_y,shank_mag_z,foot_acc_x,foot_acc_y,foot_acc_z,foot_gyro_x,foot_gyro_y,foot_gyro_z,foot_mag_x,foot_mag_y,foot_mag_z,foot_euler_x,foot_euler_y,foot_euler_z,perturbation_event
1776973673.659,10.5656,-0.0527,1.9058,-0.2689,0.7048,1.0643,-67.3500,7.5000,26.1000,9.2249,5.0326,0.1628,0.0107,0.0195,0.5558,-95.7000,39.1500,40.6500,-3.6600,-2.8400,-9.2400,-0.0055,-0.1538,0.1156,24.1875,25.8750,25.3750,34.9375,-28.0625,163.8125,0
1776973673.664,10.5656,-0.0527,1.9058,-0.2689,0.7048,1.0643,-68.4000,5.2500,26.7000,10.1323,5.4875,-0.6919,0.0879,0.1007,0.5273,-95.2500,40.2000,40.3500,-3.9900,-2.6500,-9.2100,-0.0055,-0.1538,0.1156,24.1875,25.8750,25.3750,35.0000,-28.1875,163.8125,0
1776973673.673,10.6901,-0.4764,2.2505,-0.2188,0.7658,1.1261,-68.4000,5.2500,26.7000,10.4746,5.4157,-1.1660,0.0541,0.0706,0.4511,-95.8500,40.5000,40.5000,-4.0700,-2.7900,-9.1600,0.0513,-0.2040,0.1233,24.1875,25.8750,25.3750,35.0625,-28.3750,163.7500,0
1776973673.683,11.0253,-0.2634,1.5179,-0.2369,0.7730,1.1924,-69.0000,6.6000,25.0500,9.7971,5.0326,-1.1851,-0.0432,-0.0485,0.3563,-95.8500,40.5000,40.5000,-3.7100,-2.5300,-9.4700,0.1134,-0.3087,0.1484,24.1875,25.8750,25.3750,35.0625,-28.3750,163.7500,0
1776973673.688,11.2049,0.2346,0.9385,-0.3096,0.8543,1.2164,-69.0000,6.6000,25.0500,9.7971,5.0326,-1.1851,-0.0432,-0.0485,0.3563,-95.8500,40.5000,40.5000,-3.7100,-2.5300,-9.4700,0.1134,-0.3087,0.1484,24.1875,25.8750,25.3750,35.1250,-28.6250,163.6875,0
1776973673.693,11.2049,0.2346,0.9385,-0.3096,0.8543,1.2164,-69.0000,6.6000,25.0500,9.3637,4.4652,-1.6520,-0.0725,-0.0789,0.2156,-97.8000,39.9000,42.4500,-3.7400,-2.6700,-9.7500,0.0993,-0.4680,0.1909,24.1875,25.1875,25.8750,35.1250,-28.6250,163.6875,0
1776973673.698,11.3725,0.8212,0.2945,-0.4612,0.9246,1.2231,-69.0000,6.6000,25.0500,9.3637,4.4652,-1.6520,-0.0725,-0.0789,0.2156,-97.8000,39.9000,42.4500,-3.7400,-2.6700,-9.7500,0.0993,-0.4680,0.1909,24.1875,25.1875,25.8750,35.2500,-29.0625,163.6250,0
1776973673.703,11.3725,0.8212,0.2945,-0.4612,0.9246,1.2231,-67.3500,4.5000,26.4000,8.8825,4.0845,-2.3296,0.1676,-0.1492,0.0671,-96.0000,38.7000,42.4500,-3.7100,-2.6800,-9.7700,0.1484,-0.6490,0.2367,24.1875,25.1875,25.8750,35.2500,-29.0625,163.6250,0
1776973673.711,11.8106,1.6735,-0.6752,-0.4980,1.0235,1.2785,-65.8500,4.0500,27.1500,9.0836,4.2545,-3.5889,0.4972,-0.1966,-0.0765,-97.5000,40.9500,43.2000,-3.6400,-2.8900,-9.8400,0.2411,-0.8127,0.2902,24.1875,25.1875,25.8750,35.3750,-29.5000,163.5000,0
1776973673.716,12.9167,2.6887,-1.8483,-0.5793,1.0754,1.3883,-65.8500,4.0500,27.1500,9.0836,4.2545,-3.5889,0.4972,-0.1966,-0.0765,-97.5000,40.9500,43.2000,-3.6400,-2.8900,-9.8400,0.2411,-0.8127,0.2902,24.1875,25.1875,25.8750,35.5625,-30.1250,163.3750,0
1776973673.724,12.9167,2.6887,-1.8483,-0.5793,1.0754,1.3883,-66.6000,3.3000,27.1500,9.8976,4.9129,-4.6328,0.9324,-0.4764,-0.2526,-98.4000,40.0500,40.5000,-3.1300,-3.4200,-11.2400,0.2618,-1.0679,0.3545,24.1875,25.1875,25.8750,35.6875,-31.0000,163.3125,0
1776973673.733,14.4035,4.2401,-2.4277,-0.6789,1.1794,1.5218,-66.0000,3.0000,29.5500,9.9766,4.0079,-4.2904,1.3073,-0.7762,-0.4402,-98.7000,41.2500,41.5500,-2.5600,-3.1400,-11.8100,0.1658,-1.4704,0.4592,24.1875,25.1875,25.8750,35.6875,-31.0000,163.3125,0
1776973673.738,15.8736,3.4716,-1.4892,-0.9014,1.1863,1.6310,-66.0000,3.0000,29.5500,9.9766,4.0079,-4.2904,1.3073,-0.7762,-0.4402,-98.7000,41.2500,41.5500,-2.5600,-3.1400,-11.8100,0.1658,-1.4704,0.4592,24.1875,25.1875,25.8750,35.9375,-32.1250,163.1875,0
1776973673.743,16.4697,1.9585,-0.8595,-0.9014,1.1863,1.6310,-65.2500,2.7000,28.8000,10.8936,3.2274,-4.2210,2.0014,-0.8966,-0.6470,-98.7000,41.2500,41.5500,-2.1400,-2.9400,-12.2600,0.1560,-1.9450,0.5858,24.8750,24.7500,25.8750,35.9375,-32.1250,163.1875,0
1776973673.748,16.4697,1.9585,-0.8595,-0.8596,1.2271,1.7086,-65.2500,2.7000,28.8000,10.8936,3.2274,-4.2210,2.0014,-0.8966,-0.6470,-98.7000,41.2500,41.5500,-2.1400,-2.9400,-12.2600,0.1560,-1.9450,0.5858,24.8750,24.7500,25.8750,36.1875,-33.5625,163.0625,0
1776973673.753,17.2766,1.0032,-1.6783,-0.8596,1.2271,1.7086,-64.8000,0.7500,31.0500,11.6430,3.8235,-5.3295,2.5722,-1.2279,-0.7037,-99.4500,42.0000,40.9500,-2.1600,-2.6900,-12.3300,0.2880,-2.4849,0.7854,24.8750,24.7500,25.8750,36.1875,-33.5625,163.0625,0
1776973673.760,17.2766,1.0032,-1.6783,-0.6374,1.2223,1.8167,-64.8000,0.7500,31.0500,12.0500,4.7070,-4.8818,2.6561,-1.3992,-0.7328,-98.8500,42.1500,40.0500,-1.7400,-3.4900,-12.5100,0.5651,-3.0412,1.0472,24.8750,24.7500,25.8750,36.6875,-35.3750,162.8125,0
1776973673.765,19.1081,1.7502,-1.9225,-0.6944,1.3265,1.9063,-64.8000,0.7500,31.0500,12.0500,4.7070,-4.8818,2.6561,-1.3992,-0.7328,-98.8500,42.1500,40.0500,-1.7400,-3.4900,-12.5100,0.5651,-3.0412,1.0472,24.8750,24.7500,25.8750,37.2500,-37.5000,162.5000,0
1776973673.773,18.0427,2.0351,-1.6999,-1.0600,1.3507,1.9417,-63.1500,-1.3500,31.2000,13.0388,5.1595,-3.7278,2.5263,-1.8546,-0.9198,-99.9000,45.3000,39.1500,-1.2200,-3.8300,-12.8600,0.6567,-3.6085,1.3799,24.8750,24.7500,25.8750,38.0625,-40.0625,162.3125,0
1776973673.783,16.4625,1.6831,-0.6225,-1.4887,1.3550,1.9180,-63.1500,-1.3500,31.2000,13.0652,4.9033,-2.5666,2.0672,-2.2132,-1.1951,-100.3500,45.1500,40.3500,-0.1900,-4.0400,-13.0400,0.7396,-4.3011,1.7704,24.8750,24.7500,25.8750,38.0625,-40.0625,162.3125,0
1776973673.788,16.4625,1.6831,-0.6225,-1.4887,1.3550,1.9180,-63.1500,-1.3500,31.2000,13.2136,3.9456,-1.2809,1.9366,-2.8653,-1.4344,-100.3500,45.1500,40.3500,-0.1900,-4.0400,-13.0400,0.7396,-4.3011,1.7704,27.5000,24.3750,23.0625,75.4375,-43.1250,162.1250,0
1776973673.793,13.4267,-0.8068,1.4150,-1.6550,1.4887,1.9049,-62.5500,-4.6500,32.1000,13.2136,3.9456,-1.2809,1.9366,-2.8653,-1.4344,-100.3500,45.1500,40.3500,-1.0000,-4.2800,-12.0000,0.9032,-5.0473,2.2907,27.5000,24.3750,23.0625,75.4375,-43.1250,162.1250,0
1776973673.798,13.4267,-0.8068,1.4150,-1.6550,1.4887,1.9049,-62.5500,-4.6500,32.1000,12.9718,2.4205,0.4764,1.5772,-3.0843,-1.5252,-99.3000,45.4500,36.7500,-1.0000,-4.2800,-12.0000,0.9032,-5.0473,2.2907,27.5000,24.3750,23.0625,72.9375,-46.6250,162.0625,0
1776973673.803,10.2472,-3.6368,4.1156,-1.3755,1.6742,1.8983,-61.8000,-5.8500,32.8500,12.9718,2.4205,0.4764,1.5772,-3.0843,-1.5252,-99.3000,45.4500,36.7500,-4.8700,-3.7100,-10.7800,1.0265,-5.8109,2.8307,27.5000,24.3750,23.0625,72.9375,-46.6250,162.0625,0
1776973673.810,10.2472,-3.6368,4.1156,-1.3755,1.6742,1.8983,-61.8000,-5.8500,32.8500,12.1123,0.7326,2.4157,1.2033,-3.1109,-1.5428,-100.0500,47.4000,34.6500,-8.6200,-3.1700,-10.0500,0.9545,-6.1152,2.9703,27.5000,24.3750,23.0625,70.5000,-50.3750,162.1250,0
1776973673.815,8.0014,-5.7150,7.6303,-0.7120,1.6904,1.9822,-62.2500,-5.4000,33.3000,12.1123,0.7326,2.4157,1.2033,-3.1109,-1.5428,-100.0500,47.4000,34.6500,-8.6200,-3.1700,-10.0500,0.9545,-6.1152,2.9703,27.5000,24.3750,23.0625,68.3750,-54.1250,162.0625,0
1776973673.823,6.7253,-6.1842,8.5593,-0.2081,1.6827,2.0153,-60.3000,-8.1000,32.5500,11.2599,-0.7398,4.7980,0.7410,-2.9012,-1.5042,-99.4500,48.3000,33.4500,-15.2400,-2.8700,-9.7900,0.8770,-6.1632,2.6889,27.5000,24.3750,23.0625,68.3750,-54.1250,162.0625,0
1776973673.833,6.4763,-5.8873,9.4475,0.2614,1.4573,1.9814,-60.3000,-8.1000,32.5500,10.8026,-1.1564,5.7748,0.3651,-2.6247,-1.4226,-100.3500,45.9000,31.8000,-13.6700,-2.4500,-10.2900,0.9807,-5.7290,2.1817,27.5000,24.3750,23.0625,66.9375,-57.5000,161.8125,0
1776973673.838,6.4763,-5.8873,9.4475,0.2614,1.4573,1.9814,-60.3000,-8.1000,32.5500,10.2448,-0.0599,4.9632,0.0309,-2.1845,-1.3789,-99.9000,47.2500,31.3500,-13.6700,-2.4500,-10.2900,0.9807,-5.7290,2.1817,27.5000,24.3750,23.0625,66.9375,-57.5000,161.8125,0
1776973673.843,5.7126,-4.6304,8.6862,0.5532,1.2993,1.7912,-58.3500,-8.5500,34.3500,10.2448,-0.0599,4.9632,0.0309,-2.1845,-1.3789,-99.9000,47.2500,31.3500,-15.9400,-2.5200,-10.1800,1.2577,-5.0822,1.7213,33.3750,21.5000,14.3750,66.2500,-60.4375,161.1250,0
1776973673.848,5.7126,-4.6304,8.6862,0.5532,1.2993,1.7912,-58.3500,-8.5500,34.3500,12.1171,1.9058,2.5833,-0.6502,-1.6915,-1.4136,-99.9000,47.2500,31.3500,-15.9400,-2.5200,-10.1800,1.2577,-5.0822,1.7213,33.3750,21.5000,14.3750,66.2500,-60.4375,161.1250,0
1776973673.853,5.3319,-3.2609,8.3175,0.7754,0.9966,1.4623,-58.3500,-8.5500,34.3500,12.1171,1.9058,2.5833,-0.6502,-1.6915,-1.4136,-99.9000,47.2500,31.3500,-9.8500,-3.4200,-9.4600,1.5686,-4.4419,1.4115,33.3750,21.5000,14.3750,66.1875,-63.0625,160.1250,0
1776973673.858,5.3319,-3.2609,8.3175,0.7754,0.9966,1.4623,-58.3500,-8.5500,34.3500,13.1849,2.9521,0.4788,-1.1727,-1.3512,-1.5559,-94.5000,46.2000,29.7000,-9.8500,-3.4200,-9.4600,1.7224,-3.9084,1.1159,33.3750,21.5000,14.3750,66.4375,-65.3125,158.7500,0
1776973673.864,5.4061,-2.7964,6.8809,0.9926,0.6475,1.0938,-56.5500,-9.3000,34.8000,13.1849,2.9521,0.4788,-1.1727,-1.3512,-1.5559,-94.5000,46.2000,29.7000,-5.3300,-2.4000,-6.8100,1.7224,-3.9084,1.1159,33.3750,21.5000,14.3750,66.7500,-67.1875,157.4375,0
1776973673.874,5.7652,-3.1867,6.9145,1.2774,0.1034,0.6864,-56.8500,-8.5500,35.1000,12.7108,3.4860,0.8284,-1.3560,-1.4965,-1.5924,-96.0000,47.4000,28.6500,-0.7900,-5.2500,-5.2900,1.5010,-3.3063,0.8792,33.3750,21.5000,14.3750,66.7500,-67.1875,157.4375,0
1776973673.883,5.7006,-2.2218,4.4580,1.0112,-0.5838,0.3147,-56.7000,-7.5000,36.0000,12.1051,4.0821,1.6352,-1.4272,-1.9015,-1.4157,-94.5000,46.9500,26.4000,-2.7500,-15.6300,-19.2300,0.7461,-1.9351,0.3949,33.3750,21.5000,14.3750,66.8750,-68.2500,156.4375,0
1776973673.888,5.8802,-0.9912,1.1684,0.8226,-1.0405,-0.0541,-56.7000,-7.5000,36.0000,10.6111,4.1587,1.9489,-1.2196,-1.9795,-1.1703,-93.3000,48.0000,26.2500,-2.7500,-15.6300,-19.2300,0.7461,-1.9351,0.3949,33.3750,21.5000,14.3750,66.8750,-68.2500,156.4375,0
1776973673.893,5.8802,-0.9912,1.1684,0.8226,-1.0405,-0.0541,-56.2500,-7.2000,36.4500,10.6111,4.1587,1.9489,-1.2196,-1.9795,-1.1703,-93.3000,48.0000,26.2500,3.9700,-12.8800,-18.1300,-0.3731,0.1811,-0.5258,38.1875,18.8750,5.3750,66.8750,-68.0625,156.1250,0
1776973673.898,6.1914,-1.6664,-1.1851,1.0203,-1.4024,-0.4836,-56.2500,-7.2000,36.4500,12.5193,3.3519,1.4820,-1.1802,-2.0931,-1.0778,-93.3000,48.0000,26.2500,3.9700,-12.8800,-18.1300,-0.3731,0.1811,-0.5258,38.1875,18.8750,5.3750,66.8750,-68.0625,156.1250,0
1776973673.903,6.1914,-1.6664,-1.1851,1.0203,-1.4024,-0.4836,-56.7000,-8.7000,35.7000,12.5193,3.3519,1.4820,-1.1802,-2.0931,-1.0778,-93.3000,48.0000,26.2500,10.8500,-8.5400,-12.8600,-1.2468,1.5566,-1.3166,38.1875,18.8750,5.3750,66.8750,-66.9375,156.0000,0
1776973673.911,6.2465,-3.0622,0.8475,1.3464,-1.6403,-0.8388,-56.7000,-8.7000,35.7000,12.7946,3.7421,2.2769,-0.8143,-1.5761,-1.2910,-93.6000,49.0500,25.9500,6.5800,-6.5900,-9.7200,-1.9929,1.9024,-1.7530,38.1875,18.8750,5.3750,66.5000,-65.6250,156.0625,0
1776973673.915,6.2465,-3.0622,0.8475,1.3464,-1.6403,-0.8388,-59.1000,-4.9500,34.0500,12.2751,3.6679,2.7102,0.0520,-1.1485,-1.3696,-93.6000,49.0500,25.9500,6.5800,-6.5900,-9.7200,-1.9929,1.9024,-1.7530,38.1875,18.8750,5.3750,66.0000,-64.0000,156.4375,0
1776973673.924,5.8035,-4.6950,2.5259,1.5042,-1.9801,-1.0960,-59.1000,-4.9500,34.0500,11.2288,3.5865,2.1883,0.8037,-1.0099,-1.3867,-92.7000,51.1500,24.3000,3.9600,-0.2600,-9.3800,-2.3169,2.3027,-1.8697,38.1875,18.8750,5.3750,65.8125,-62.1250,156.8750,0
1776973673.934,5.3223,-5.1834,3.9792,1.6244,-2.3771,-1.2316,-61.0500,-4.9500,32.1000,10.9798,3.2322,0.6297,0.8543,-0.9534,-1.4381,-93.9000,51.1500,26.1000,3.4500,0.3100,-8.8900,-2.0300,2.8885,-1.9199,38.1875,18.8750,5.3750,65.8125,-62.1250,156.8750,0
1776973673.939,4.0294,-4.4197,3.2944,1.2153,-2.6404,-1.3190,-61.0500,-4.9500,32.1000,10.9798,3.2322,0.6297,0.8543,-0.9534,-1.4381,-91.0500,51.7500,25.9500,3.4500,0.3100,-8.8900,-2.0300,2.8885,-1.9199,38.1875,18.8750,5.3750,66.2500,-59.9375,157.2500,0
1776973673.944,4.0294,-4.4197,3.2944,1.2153,-2.6404,-1.3190,-60.4500,-3.3000,31.9500,9.3853,2.5666,-0.5267,0.8284,-0.9166,-1.4549,-91.0500,51.7500,25.9500,2.9400,-0.1100,-8.3100,-1.4781,3.4710,-1.9384,40.0625,17.3750,4.5625,66.2500,-59.9375,157.2500,0
1776973673.949,3.8906,-4.2234,2.3655,0.6944,-2.9186,-1.4682,-60.4500,-3.3000,31.9500,9.3853,2.5666,-0.5267,0.8284,-0.9166,-1.4549,-91.6500,51.9000,24.0000,2.9400,-0.1100,-8.3100,-1.4781,3.4710,-1.9384,40.0625,17.3750,4.5625,67.1875,-57.5000,157.6250,0
1776973673.954,3.8906,-4.2234,2.3655,0.6944,-2.9186,-1.4682,-61.2000,-1.6500,31.6500,7.5537,2.0351,-1.2450,0.6622,-0.7978,-1.4568,-91.6500,51.9000,24.0000,0.7000,-1.2400,-7.8500,-1.0734,3.9739,-1.8948,40.0625,17.3750,4.5625,67.1875,-57.5000,157.6250,0
1776973673.958,4.3910,-4.3886,2.3631,0.4231,-3.0062,-1.6859,-61.2000,-1.6500,31.6500,7.5537,2.0351,-1.2450,0.6622,-0.7978,-1.4568,-91.6500,51.9000,24.0000,0.7000,-1.2400,-7.8500,-0.8923,4.3710,-1.8162,40.0625,17.3750,4.5625,68.3750,-54.8750,158.1250,0
1776973673.964,5.2696,-4.1946,2.5379,0.4231,-3.0062,-1.6859,-64.3500,-2.4000,29.4000,6.3710,1.7957,-1.5897,0.6864,-0.6840,-1.3432,-91.6500,51.9000,24.0000,-0.3800,-1.5000,-7.7000,-0.8923,4.3710,-1.8162,40.0625,17.3750,4.5625,69.7500,-52.1250,158.6875,0
1776973673.974,5.2696,-4.1946,2.5379,0.3600,-3.0859,-1.9308,-65.4000,-0.9000,30.1500,5.3702,1.6328,-1.6807,0.8316,-0.6086,-1.0970,-90.9000,52.2000,22.9500,-1.2600,-1.3000,-7.5900,-0.8301,4.6317,-1.7137,40.0625,17.3750,4.5625,69.7500,-52.1250,158.6875,0
1776973673.984,6.4332,-4.0270,3.2753,0.3304,-3.2516,-2.1146,-66.0000,-0.7500,29.2500,4.5346,1.6735,-1.7909,0.8828,-0.5036,-0.7821,-92.2500,52.8000,22.3500,-2.9200,-1.8100,-7.7000,-0.7636,4.7527,-1.6286,40.0625,17.3750,4.5625,71.3125,-49.3750,159.1875,0
1776973673.988,6.4332,-4.0270,3.2753,0.3435,-3.4145,-2.2284,-66.0000,-0.7500,29.2500,4.5346,1.6735,-1.7909,0.8828,-0.5036,-0.7821,-91.5000,52.0500,20.5500,-2.9200,-1.8100,-7.7000,-0.7636,4.7527,-1.6286,40.0625,17.3750,4.5625,71.3125,-49.3750,159.1875,0
1776973673.994,6.4260,-3.7733,3.1651,0.3435,-3.4145,-2.2284,-66.0000,-0.7500,29.2500,3.1603,1.5490,-1.7310,0.9342,-0.4914,-0.5020,-91.5000,52.0500,20.5500,-3.8600,-2.6500,-7.8300,-0.6578,4.7931,-1.6035,37.0000,20.6875,11.5625,73.1250,-46.5625,159.6875,0
1776973673.998,6.4260,-3.7733,3.1651,0.3227,-3.5495,-2.2956,-66.0000,-0.7500,29.2500,3.1603,1.5490,-1.7310,0.9342,-0.4914,-0.5020,-92.4000,51.9000,20.1000,-3.8600,-2.6500,-7.8300,-0.6578,4.7931,-1.6035,37.0000,20.6875,11.5625,73.1250,-46.5625,159.6875,0
1776973674.003,6.5745,-3.4022,2.8706,0.3541,-3.6239,-2.3518,-69.0000,1.5000,25.8000,4.1204,1.5036,-1.8699,0.8972,-0.1716,-0.3144,-92.4000,51.9000,20.1000,-4.3900,-3.5300,-7.8200,-0.5716,4.7997,-1.6352,37.0000,20.6875,11.5625,75.3125,-43.7500,160.0625,0
1776973674.009,6.5745,-3.4022,2.8706,0.3541,-3.6239,-2.3518,-69.0000,1.5000,25.8000,4.1204,1.5036,-1.8699,0.8972,-0.1716,-0.3144,-92.4000,51.9000,20.1000,-4.3900,-3.5300,-7.8200,-0.5389,4.7669,-1.7126,37.0000,20.6875,11.5625,35.5000,-40.9375,160.3750,0
1776973674.015,7.0653,-2.7509,3.0430,0.4485,-3.6988,-2.4501,-69.0000,1.5000,25.8000,4.4101,1.5083,-1.6879,1.1847,0.0048,-0.1444,-94.2000,48.9000,17.8500,-4.7400,-4.1600,-7.7300,-0.5389,4.7669,-1.7126,37.0000,20.6875,11.5625,34.7500,-38.1875,160.5625,0
1776973674.024,7.6902,-2.0662,3.3854,0.5641,-3.7217,-2.5764,-70.5000,4.2000,22.2000,5.1212,1.0391,-1.8148,1.3518,0.1066,0.0024,-94.2000,48.9000,17.8500,-5.4600,-4.6800,-7.3000,-0.5258,4.6349,-1.8261,37.0000,20.6875,11.5625,33.9375,-35.5000,160.6875,0
1776973674.034,8.2384,-1.9130,3.4572,0.8199,-3.7595,-2.6620,-72.6000,6.0000,21.1500,5.3319,0.3807,-1.7645,1.6190,0.1697,0.1820,-93.1500,49.2000,19.0500,-5.6600,-5.1800,-7.1600,-0.4931,4.4091,-1.9689,37.0000,20.6875,11.5625,33.9375,-35.5000,160.6875,0
1776973674.039,8.2384,-1.9130,3.4572,0.8199,-3.7595,-2.6620,-72.6000,6.0000,21.1500,5.3319,0.3807,-1.7645,1.6190,0.1697,0.1820,-93.1500,49.2000,19.0500,-5.6600,-5.1800,-7.1600,-0.4931,4.4091,-1.9689,37.0000,20.6875,11.5625,33.9375,-35.5000,160.6875,0
1776973674.044,8.1403,-1.5945,2.9880,1.2830,-3.7049,-2.6814,-71.7000,6.6000,19.5000,4.5825,-0.3855,-1.7166,1.7333,0.3994,0.3557,-93.1500,51.1500,17.8500,-6.4400,-5.5500,-7.3700,-0.4560,4.0950,-2.0911,33.3750,24.3750,19.7500,33.0625,-32.9375,160.6875,0
1776973674.049,8.1403,-1.5945,2.9880,1.2830,-3.7049,-2.6814,-71.7000,6.6000,19.5000,4.5825,-0.3855,-1.7166,1.7333,0.3994,0.3557,-93.1500,51.1500,17.8500,-6.4400,-5.5500,-7.3700,-0.4560,4.0950,-2.0911,33.3750,24.3750,19.7500,33.0625,-32.9375,160.6875,0
1776973674.054,8.5258,-1.2713,3.4524,1.8922,-3.5735,-2.6564,-72.3000,8.4000,18.3000,4.9584,-1.1492,-2.0279,1.6800,0.5367,0.5513,-94.0500,49.5000,18.1500,-9.3900,-6.2500,-7.9600,-0.3872,3.7317,-2.2046,33.3750,24.3750,19.7500,32.0625,-30.6250,160.6250,0
1776973674.059,8.5258,-1.2713,3.4524,1.8922,-3.5735,-2.6564,-72.3000,8.4000,18.3000,5.2218,-1.5634,-2.3104,1.5596,0.5705,0.6182,-94.0500,49.5000,18.1500,-9.3900,-6.2500,-7.9600,-0.2738,3.4154,-2.3682,33.3750,24.3750,19.7500,31.0000,-28.3750,160.4375,0
1776973674.065,8.5569,-1.0726,3.5458,2.4269,-3.2293,-2.5162,-72.6000,10.6500,17.1000,5.2218,-1.5634,-2.3104,1.5596,0.5705,0.6182,-94.0500,49.5000,18.1500,-10.9900,-6.8700,-8.1100,-0.2738,3.4154,-2.3682,33.3750,24.3750,19.7500,29.8125,-26.2500,160.1250,0
1776973674.074,8.7221,-1.1205,4.6711,2.8477,-2.9215,-2.2625,-73.6500,12.4500,15.4500,5.4755,-1.5945,-2.0494,1.2316,0.4519,0.5750,-94.0500,49.8000,18.1500,-12.5800,-7.6100,-8.0700,-0.1724,3.1798,-2.6431,33.3750,24.3750,19.7500,28.4375,-24.0625,159.7500,0
1776973674.084,9.0956,-1.9609,5.2840,2.9191,-2.7360,-1.9065,-73.6500,12.4500,15.4500,4.7621,-1.1540,-1.6209,0.7274,0.3208,0.4567,-94.0500,47.5500,19.5000,-13.7900,-8.1200,-7.3900,-0.1876,3.0303,-3.0031,33.3750,24.3750,19.7500,28.4375,-24.0625,159.7500,0
1776973674.089,9.0956,-1.9609,5.2840,2.9191,-2.7360,-1.9065,-73.6500,12.4500,15.4500,5.1787,0.6105,-2.1691,0.2553,0.1514,0.3520,-94.0500,47.5500,19.5000,-13.7900,-8.1200,-7.3900,-0.1876,3.0303,-3.0031,33.3750,24.3750,19.7500,26.8125,-21.9375,159.4375,0
1776973674.094,8.8777,-3.3327,6.6583,2.8786,-2.5327,-1.5460,-74.8500,14.5500,12.0000,5.1787,0.6105,-2.1691,0.2553,0.1514,0.3520,-96.1500,48.7500,18.7500,-16.3400,-7.4600,-5.2200,-0.3632,2.8569,-3.3554,27.8750,28.0000,25.2500,26.8125,-21.9375,159.4375,0
1776973674.099,7.3933,-4.1084,6.7828,2.8786,-2.5327,-1.5460,-74.8500,14.5500,12.0000,4.9536,2.4014,-3.8092,-0.2334,0.0266,0.2555,-96.1500,48.7500,18.7500,-16.3400,-7.4600,-5.2200,-0.3632,2.8569,-3.3554,27.8750,28.0000,25.2500,24.9375,-19.8750,159.2500,0
1776973674.104,7.3933,-4.1084,6.7828,2.6329,-2.2660,-1.1935,-74.8500,14.5500,12.0000,4.9536,2.4014,-3.8092,-0.2334,0.0266,0.2555,-94.9500,49.2000,18.6000,-17.8700,-6.1200,-3.8100,-0.6076,2.6300,-3.6270,27.8750,28.0000,25.2500,24.9375,-19.8750,159.2500,0
1776973674.113,6.2656,-4.5753,5.1451,2.0752,-1.8780,-0.8847,-74.7000,15.6000,10.6500,4.0989,5.0709,-5.3582,-0.4767,0.0791,0.1228,-94.9500,49.2000,18.6000,-19.7800,-4.0200,-1.9600,-0.7887,2.3038,-3.7601,27.8750,28.0000,25.2500,23.0625,-17.9375,159.1875,0
1776973674.117,6.2656,-4.5753,5.1451,2.0752,-1.8780,-0.8847,-74.1000,17.4000,9.3000,4.6112,7.7405,-7.6758,-0.3437,0.3088,0.0368,-94.9500,49.2000,18.6000,-19.7800,-4.0200,-1.9600,-0.7887,2.3038,-3.7601,27.8750,28.0000,25.2500,21.1875,-16.1875,159.1250,0
1776973674.124,6.9719,-5.9161,4.5705,1.1855,-1.5148,-0.6001,-73.2000,19.0500,7.3500,4.6112,7.7405,-7.6758,-0.3437,0.3088,0.0368,-95.2500,47.4000,19.0500,-19.3400,13.6700,3.1900,-0.6545,2.0126,-3.6357,27.8750,28.0000,25.2500,19.3125,-15.4375,158.1875,0
1776973674.134,4.8483,-7.1156,9.9551,0.4906,-0.7919,-0.3949,-74.5500,17.7000,7.9500,5.0230,10.4148,-11.3126,0.1553,0.1426,-0.0989,-95.1000,47.5500,18.1500,-27.9000,-5.0700,19.9000,0.6807,0.0916,-3.4776,27.8750,28.0000,25.2500,19.3125,-15.4375,158.1875,0
1776973674.139,6.4548,-1.9106,12.4882,-0.2377,0.3421,-0.0773,-74.5500,17.7000,7.9500,6.0956,14.8369,-15.8927,0.5526,-0.1583,-0.4120,-95.1000,47.5500,18.1500,-27.9000,-5.0700,19.9000,0.6807,0.0916,-3.4776,27.8750,28.0000,25.2500,17.9375,-16.2500,156.8750,0
1776973674.144,6.4548,-1.9106,12.4882,-0.2377,0.3421,-0.0773,-75.1500,18.3000,7.6500,6.0956,14.8369,-15.8927,0.5526,-0.1583,-0.4120,-95.2500,48.9000,19.0500,-39.3000,-10.0700,31.9600,1.5239,-2.5013,-2.2231,19.0625,32.0000,30.0625,17.9375,-16.2500,156.8750,0
1776973674.149,18.4330,5.4684,1.4174,-0.4588,1.7789,0.3123,-75.1500,18.3000,7.6500,8.5114,21.8136,-21.8615,0.7778,-0.8018,-0.8228,-95.2500,48.9000,19.0500,-39.3000,-10.0700,31.9600,1.5239,-2.5013,-2.2231,19.0625,32.0000,30.0625,17.9375,-16.2500,156.8750,0
1776973674.154,18.4330,5.4684,1.4174,-0.4588,1.7789,0.3123,-75.1500,18.3000,7.6500,8.5114,21.8136,-21.8615,0.7778,-0.8018,-0.8228,-93.3000,48.7500,18.4500,-32.1600,-19.1100,-12.0700,0.1942,-3.7535,1.2261,19.0625,32.0000,30.0625,18.1875,-18.4375,156.7500,0
1776973674.161,31.8956,8.4443,-11.2049,-2.8599,2.3025,0.8244,-75.1500,18.3000,7.6500,10.9439,26.0345,-16.1944,0.6222,-1.1532,-1.1658,-93.3000,48.7500,18.4500,-39.3000,-29.8100,-29.1700,-3.2910,-7.4002,2.8383,19.0625,32.0000,30.0625,18.6250,-22.8125,158.5000,0
1776973674.166,18.5503,0.6297,-4.9177,-2.8599,2.3025,0.8244,-72.4500,17.1000,10.3500,15.7275,11.3533,-4.5442,1.2148,-0.0941,-1.0288,-93.3000,48.7500,18.4500,-39.3000,-29.8100,-29.1700,-3.2910,-7.4002,2.8383,19.0625,32.0000,30.0625,18.6250,-24.1250,159.6250,0
1776973674.174,18.5503,0.6297,-4.9177,-1.3531,1.7096,0.7064,-72.4500,17.1000,10.3500,15.7275,11.3533,-4.5442,1.2148,-0.0941,-1.0288,-93.3000,48.7500,18.4500,-10.9000,12.4100,-11.4500,-1.9973,-2.2144,0.8258,19.0625,32.0000,30.0625,18.5000,-23.0000,159.6875,0
1776973674.184,10.5297,-4.2904,-1.8459,-0.6979,1.2289,0.3773,-72.4500,17.1000,10.3500,16.9869,2.6791,1.1516,1.4794,0.5255,-0.5375,-90.6000,49.9500,15.4500,17.9100,11.9400,-0.7700,-0.0458,1.9362,-0.5498,19.0625,32.0000,30.0625,18.5000,-23.0000,159.6875,0
1776973674.189,8.8370,-0.7638,0.6991,-2.3409,0.5255,0.7189,-72.0000,16.3500,12.4500,15.6389,-3.0215,-3.4836,0.2180,-0.4399,-0.3834,-90.6000,49.9500,15.4500,17.9100,11.9400,-0.7700,-0.0458,1.9362,-0.5498,19.0625,32.0000,30.0625,18.5000,-23.3125,160.0000,0
1776973674.194,8.8370,-0.7638,0.6991,-2.3409,0.5255,0.7189,-72.0000,16.3500,12.4500,15.6389,-3.0215,-3.4836,0.2180,-0.4399,-0.3834,-90.9000,49.2000,15.4500,-5.2000,-11.7800,-8.2000,-0.5934,-0.5225,0.1538,16.0625,33.5000,27.5625,18.5000,-23.3125,160.0000,0
1776973674.199,6.1866,2.1476,-2.3272,-2.8408,0.9153,1.1330,-73.8000,15.4500,13.5000,2.2482,-7.0150,4.7501,-0.2875,-1.4346,-0.8684,-90.9000,49.2000,15.4500,-5.2000,-11.7800,-8.2000,-0.5934,-0.5225,0.1538,16.0625,33.5000,27.5625,18.6250,-23.8125,160.1250,0
1776973674.204,6.1866,2.1476,-2.3272,-2.8408,0.9153,1.1330,-73.8000,15.4500,13.5000,-0.7302,-7.2999,3.6727,1.4735,-1.2092,-1.4402,-90.7500,49.5000,13.8000,0.0000,-6.0400,-4.5400,-0.1462,-0.7876,0.4167,16.0625,33.5000,27.5625,18.6250,-23.8125,160.1250,0
1776973674.214,1.4389,2.9066,5.6120,-1.6249,0.3067,1.0946,-74.1000,14.2500,13.0500,-2.9401,-3.2370,-5.1332,0.3858,-0.1676,-1.2937,-90.4500,48.0000,12.7500,-3.0200,-3.0100,-7.5200,-0.0393,-0.9970,0.6250,16.0625,33.5000,27.5625,18.8750,-24.4375,160.1875,0
1776973674.224,5.0135,1.8555,6.0023,-0.0072,0.8071,0.5678,-72.6000,13.8000,13.8000,0.7901,1.2139,-10.9822,-1.1698,-0.1199,-1.1303,-90.4500,48.0000,12.7500,-7.3800,-3.0100,-9.5700,-0.4811,-0.9479,0.6938,16.0625,33.5000,27.5625,19.1250,-25.0625,160.5625,0
1776973674.233,8.1331,0.8212,4.5753,0.6584,0.9329,0.1583,-72.6000,13.8000,13.8000,3.6871,6.3327,-2.8323,-1.8151,-0.7085,-1.3835,-90.1500,46.2000,15.4500,-7.4700,-3.3300,-7.9800,-0.3262,-0.8279,0.6349,16.0625,33.5000,27.5625,19.3750,-25.6250,160.8125,0
1776973674.238,8.1331,0.8212,4.5753,0.7639,1.0531,0.1447,-73.3500,12.6000,15.3000,3.6871,6.3327,-2.8323,-1.8151,-0.7085,-1.3835,-90.1500,46.2000,15.4500,-7.4700,-3.3300,-7.9800,-0.3262,-0.8279,0.6349,16.0625,33.5000,27.5625,19.3750,-25.6250,160.8125,0
1776973674.243,12.3852,-1.2115,2.0135,0.7639,1.0531,0.1447,-73.3500,12.6000,15.3000,6.9097,6.8115,2.7007,-2.1690,-0.1956,-1.4842,-90.1500,43.2000,17.8500,-5.7100,-2.9400,-7.9400,-0.1909,-0.4756,0.4691,19.0625,32.6875,28.0000,19.5625,-25.9375,161.0000,0
1776973674.248,12.3852,-1.2115,2.0135,1.0341,1.4663,0.5484,-73.3500,12.6000,15.3000,6.9097,6.8115,2.7007,-2.1690,-0.1956,-1.4842,-90.1500,43.2000,17.8500,-5.7100,-2.9400,-7.9400,-0.1909,-0.4756,0.4691,19.0625,32.6875,28.0000,19.5625,-25.9375,161.0000,0
1776973674.253,13.7738,-1.7190,0.7398,1.0341,1.4663,0.5484,-73.3500,12.6000,15.3000,10.8170,6.4572,-0.9649,-1.2494,0.4301,-1.0677,-87.4500,42.7500,16.3500,-4.8500,-1.5800,-9.1600,-0.3851,-0.2509,0.3316,19.0625,32.6875,28.0000,19.6875,-26.1250,161.2500,0
1776973674.258,13.7738,-1.7190,0.7398,1.5665,1.4698,0.8295,-73.8000,14.2500,16.0500,10.8170,6.4572,-0.9649,-1.2494,0.4301,-1.0677,-87.4500,42.7500,16.3500,-4.8500,-1.5800,-9.1600,-0.3851,-0.2509,0.3316,19.0625,32.6875,28.0000,19.7500,-26.2500,161.5000,0
1776973674.265,12.9311,-2.4612,1.0199,1.6531,1.3102,0.8207,-73.8000,14.2500,16.0500,11.4922,11.9950,-3.6320,-0.5889,0.0064,-0.6283,-85.3500,43.0500,17.1000,-4.5500,-1.6900,-9.1200,-0.3174,-0.1614,0.2367,19.0625,32.6875,28.0000,19.7500,-26.3750,161.6875,0
1776973674.274,11.3844,-2.4708,2.2290,1.6449,1.1215,0.6395,-74.1000,13.8000,15.6000,11.3246,9.5026,-3.0502,-0.3619,-0.1335,-0.3573,-85.3500,43.0500,17.1000,-4.3300,-2.7000,-8.5600,-0.2411,-0.1800,0.1658,19.0625,32.6875,28.0000,19.7500,-26.3750,161.6875,0
1776973674.284,9.3661,-2.7007,2.9066,1.5167,0.8380,0.4482,-73.3500,13.8000,15.3000,10.8793,7.8697,-2.6839,0.3906,0.0485,-0.2062,-85.3500,43.0500,17.1000,-4.6100,-2.5600,-8.7100,-0.2378,-0.1364,0.1364,19.0625,32.6875,28.0000,19.8125,-26.5000,161.8125,0
1776973674.289,9.3661,-2.7007,2.9066,1.5167,0.8380,0.4482,-73.0500,13.0500,15.3000,10.8793,7.8697,-2.6839,0.3906,0.0485,-0.2062,-85.3500,43.0500,17.1000,-4.6100,-2.5600,-8.7100,-0.2378,-0.1364,0.1364,19.0625,32.6875,28.0000,19.8125,-26.5625,161.9375,0
1776973674.294,8.7340,-3.4979,3.4405,1.1639,0.8068,0.3659,-73.0500,13.0500,15.3000,9.6127,8.2480,-3.2944,1.0253,-0.1148,-0.2062,-86.4000,43.0500,16.3500,-4.2600,-2.9300,-8.2900,-0.1931,-0.1124,0.1036,20.0625,31.5625,26.8750,19.8125,-26.5625,161.9375,0
1776973674.299,8.7340,-3.4979,3.4405,1.1639,0.8068,0.3659,-73.2000,13.6500,15.4500,9.6127,8.2480,-3.2944,1.0253,-0.1148,-0.2062,-85.5000,44.7000,16.3500,-4.2600,-2.9300,-8.2900,-0.1931,-0.1124,0.1036,20.0625,31.5625,26.8750,19.8750,-26.6250,162.0625,0
1776973674.304,9.0692,-4.2210,3.6129,0.6723,0.8942,0.3344,-73.2000,13.6500,15.4500,8.4707,6.4811,-4.0510,1.2047,-0.0970,-0.2798,-85.5000,44.7000,15.4500,-4.3200,-2.8500,-8.4500,-0.1527,-0.0949,0.0785,20.0625,31.5625,26.8750,19.8750,-26.6250,162.0625,0
1776973674.312,10.2951,-3.8427,3.2633,0.0165,0.8076,0.3853,-72.3000,13.8000,16.3500,6.2417,4.0869,-2.9712,0.9944,-0.1671,-0.3123,-85.9500,43.0500,15.6000,-4.3800,-2.5600,-8.6300,-0.1680,-0.0611,0.0774,20.0625,31.5625,26.8750,19.8750,-26.6875,162.1250,0
1776973674.317,10.2951,-3.8427,3.2633,0.0165,0.8076,0.3853,-72.3000,13.8000,16.3500,6.2417,4.0869,-2.9712,0.9944,-0.1671,-0.3123,-85.9500,43.0500,15.6000,-4.3800,-2.5600,-8.6300,-0.1680,-0.0611,0.0774,20.0625,31.5625,26.8750,19.8750,-26.6875,162.2500,0
1776973674.325,10.9487,-2.7964,3.0239,-0.4831,0.6478,0.4301,-72.3000,13.8000,16.3500,5.9807,3.2777,-2.6456,0.6328,-0.0754,-0.2819,-84.7500,43.6500,16.2000,-4.1500,-2.6300,-8.4100,-0.1636,-0.0251,0.0654,20.0625,31.5625,26.8750,19.8750,-26.6875,162.3750,0
1776973674.335,10.5872,-1.7334,2.9497,-0.6651,0.5233,0.4279,-72.6000,13.8000,17.5500,6.2632,3.6416,-2.8108,0.3397,0.1604,-0.2297,-84.7500,43.6500,16.2000,-4.2900,-2.7500,-8.3700,-0.1473,-0.0011,0.0567,20.0625,31.5625,26.8750,19.8750,-26.6875,162.3750,0
1776973674.339,9.8234,-1.0894,3.2657,-0.6651,0.5233,0.4279,-71.7000,12.4500,18.4500,6.2632,3.6416,-2.8108,0.1913,0.2238,-0.2984,-82.2000,42.4500,15.0000,-4.2900,-2.7500,-8.3700,-0.1473,-0.0011,0.0567,20.0625,31.5625,26.8750,19.8750,-26.6875,162.3750,0
1776973674.344,9.8234,-1.0894,3.2657,-0.6622,0.4061,0.3920,-71.7000,12.4500,18.4500,6.7325,4.5705,-3.1771,0.1913,0.2238,-0.2984,-82.2000,42.4500,15.0000,-4.4400,-2.7100,-8.3400,-0.1560,0.0109,0.0600,20.5625,31.1875,27.5625,19.8750,-26.7500,162.4375,0
1776973674.349,9.4763,-0.8835,3.1843,-0.5446,0.3770,0.3656,-73.9500,12.4500,16.9500,8.1714,5.7102,-3.4884,-0.0213,0.3400,-0.3603,-81.6000,42.7500,14.5500,-4.4400,-2.7100,-8.3400,-0.1560,0.0109,0.0600,20.5625,31.1875,27.5625,19.8750,-26.7500,162.4375,0
1776973674.354,9.4763,-0.8835,3.1843,-0.5446,0.3770,0.3656,-73.9500,12.4500,16.9500,8.1714,5.7102,-3.4884,-0.0213,0.3400,-0.3603,-81.6000,42.7500,14.5500,-4.3800,-2.6300,-8.4500,-0.1756,0.0196,0.0502,20.5625,31.1875,27.5625,19.8750,-26.6875,162.5625,0
1776973674.359,9.5409,-0.3831,2.7246,-0.2790,0.3440,0.3437,-72.6000,15.0000,18.6000,8.4013,6.0813,-3.7948,-0.1239,0.4311,-0.3789,-81.4500,42.4500,15.4500,-4.3800,-2.6300,-8.4500,-0.1865,0.0404,0.0371,20.5625,31.1875,27.5625,19.8750,-26.6875,162.6875,0
1776973674.365,9.5409,-0.3831,2.7246,-0.2790,0.3440,0.3437,-72.6000,15.0000,18.6000,8.4013,6.0813,-3.7948,-0.1239,0.4311,-0.3789,-81.4500,42.4500,15.4500,-4.4900,-2.4800,-8.4900,-0.1865,0.0404,0.0371,20.5625,31.1875,27.5625,19.8750,-26.6875,162.6875,0
1776973674.374,9.5744,-0.1939,2.1332,-0.0741,0.3102,0.3179,-72.6000,12.6000,19.3500,8.7987,5.6743,-4.0845,-0.1156,0.3541,-0.2979,-82.0500,44.5500,15.9000,-4.4900,-2.3600,-8.5500,-0.1844,0.0589,0.0240,20.5625,31.1875,27.5625,19.8750,-26.6875,162.8125,0
1776973674.379,9.7683,-0.3304,1.5203,0.1903,0.3307,0.2742,-71.5500,12.3000,17.5500,8.7700,5.9879,-4.5250,0.0264,0.4394,-0.2422,-82.0500,44.5500,15.9000,-4.4900,-2.3600,-8.5500,-0.1680,0.0753,0.0044,20.5625,31.1875,27.5625,19.8750,-26.6250,162.8750,0
1776973674.385,9.7683,-0.3304,1.5203,0.1903,0.3307,0.2742,-71.5500,12.3000,17.5500,8.7700,5.9879,-4.5250,0.0264,0.4394,-0.2422,-82.0500,44.5500,15.9000,-4.2600,-2.6600,-8.4200,-0.1680,0.0753,0.0044,20.5625,31.1875,27.5625,19.8750,-26.6250,162.8750,0
1776973674.390,9.8354,-0.7638,1.1205,0.4506,0.3616,0.2454,-71.5500,12.3000,17.5500,7.8985,5.4253,-4.4628,0.0810,0.3840,-0.1575,-82.0500,44.5500,15.9000,-4.2600,-2.6600,-8.4200,-0.1658,0.0807,0.0000,20.1875,31.1875,27.8750,19.8750,-26.5625,163.0000,0
1776973674.395,9.8354,-0.7638,1.1205,0.4506,0.3616,0.2454,-71.5500,12.3000,17.5500,7.8985,5.4253,-4.4628,0.0810,0.3840,-0.1575,-82.0500,44.5500,15.9000,-4.2500,-2.3400,-8.6900,-0.1658,0.0807,0.0000,20.1875,31.1875,27.8750,19.8750,-26.5625,163.0000,0
1776973674.400,9.8904,-1.3815,1.4126,0.6006,0.4109,0.2305,-71.8500,11.1000,19.8000,7.8290,5.7533,-4.7621,0.0949,0.3413,-0.0671,-78.7500,44.5500,14.8500,-4.2500,-2.3400,-8.6900,-0.1484,0.0807,-0.0044,20.1875,31.1875,27.8750,19.8750,-26.5625,163.1250,0
1776973674.405,9.8904,-1.3815,1.4126,0.6006,0.4109,0.2305,-71.8500,11.1000,19.8000,7.8290,5.7533,-4.7621,0.0949,0.3413,-0.0671,-78.7500,44.5500,14.8500,-4.1600,-2.3400,-8.6800,-0.1484,0.0807,-0.0044,20.1875,31.1875,27.8750,19.8750,-26.5625,163.1250,0
1776973674.410,10.0844,-1.7502,1.5107,0.6257,0.4282,0.1974,-71.8500,11.1000,19.8000,8.0325,6.1459,-4.5729,0.1463,0.3861,-0.0184,-78.7500,43.8000,15.3000,-4.1600,-2.3400,-8.6800,-0.1200,0.0665,-0.0076,20.1875,31.1875,27.8750,19.8125,-26.5000,163.1875,0
1776973674.415,10.0844,-1.7502,1.5107,0.6257,0.4282,0.1974,-71.8500,11.1000,19.8000,8.0325,6.1459,-4.5729,0.1463,0.3861,-0.0184,-78.7500,43.8000,15.3000,-4.0000,-2.6400,-8.5000,-0.1200,0.0665,-0.0076,20.1875,31.1875,27.8750,19.8125,-26.4375,163.2500,0
1776973674.425,9.9982,-1.8651,1.9848,0.6187,0.4474,0.1447,-70.2000,12.9000,18.0000,8.3821,6.0885,-3.8140,0.0751,0.3885,0.0269,-76.6500,44.2500,16.6500,-4.1300,-2.5300,-8.5600,-0.1080,0.0578,0.0022,20.1875,31.1875,27.8750,19.8125,-26.4375,163.2500,0
1776973674.434,9.7947,-2.0734,2.2697,0.5665,0.4407,0.1007,-71.7000,11.7000,20.2500,8.6862,5.8634,-4.0534,0.2441,0.3768,0.0472,-77.7000,44.5500,14.5500,-4.1200,-2.5100,-8.5400,-0.0884,0.0305,0.0175,20.1875,31.1875,27.8750,19.8125,-26.4375,163.3125,0
1776973674.439,9.9766,-2.1763,2.5402,0.4306,0.4255,0.0730,-72.4500,12.0000,18.7500,8.3534,5.6910,-4.0342,0.4599,0.3616,0.0533,-77.7000,44.5500,14.5500,-4.1200,-2.5100,-8.5400,-0.0884,0.0305,0.0175,20.1875,31.1875,27.8750,19.8125,-26.4375,163.3125,0
1776973674.444,9.9766,-2.1763,2.5402,0.4306,0.4255,0.0730,-72.4500,12.0000,18.7500,8.3534,5.6910,-4.0342,0.4599,0.3616,0.0533,-77.7000,44.5500,14.5500,-4.1000,-2.7000,-8.4800,-0.0665,0.0229,0.0207,21.3750,31.1875,28.6875,19.8125,-26.4375,163.3750,0
1776973674.449,9.8234,-2.0782,2.3463,0.2960,0.3813,0.0546,-70.0500,13.0500,19.0500,8.4036,5.0685,-3.9025,0.3208,0.3571,0.0501,-77.5500,42.9000,13.9500,-4.1000,-2.7000,-8.4800,-0.0665,0.0229,0.0207,21.3750,31.1875,28.6875,19.8125,-26.4375,163.3750,0
1776973674.454,10.7404,-1.9656,3.1556,0.2960,0.3813,0.0546,-70.0500,13.0500,19.0500,8.4036,5.0685,-3.9025,0.3208,0.3571,0.0501,-77.5500,42.9000,13.9500,-4.2200,-2.6800,-8.4700,-0.0513,0.0087,0.0262,21.3750,31.1875,28.6875,19.8125,-26.4375,163.3750,0
1776973674.459,10.7404,-1.9656,3.1556,0.2771,0.2734,0.0413,-73.0500,12.6000,20.5500,7.9392,5.1092,-3.9528,0.2366,0.4133,0.0336,-77.1000,43.2000,15.0000,-4.2200,-2.6800,-8.4700,-0.0382,0.0087,0.0295,21.3750,31.1875,28.6875,19.8750,-26.4375,163.3750,0
1776973674.465,9.7324,-2.0973,2.3535,0.0392,0.2928,0.0381,-73.0500,12.6000,20.5500,7.5537,5.2577,-3.9983,0.1029,0.4554,0.0240,-77.1000,43.2000,15.0000,-4.3200,-2.6100,-8.4100,-0.0382,0.0087,0.0295,21.3750,31.1875,28.6875,19.8750,-26.4375,163.3750,0
1776973674.474,9.6367,-1.4700,2.2170,-0.0629,0.2622,0.0336,-70.5000,14.4000,18.7500,7.5537,5.2577,-3.9983,0.1029,0.4554,0.0240,-76.0500,43.6500,14.7000,-4.3400,-2.5100,-8.4600,-0.0415,0.0120,0.0273,21.3750,31.1875,28.6875,19.8750,-26.4375,163.4375,0
1776973674.481,9.6367,-1.4700,2.2170,-0.0629,0.2622,0.0336,-70.5000,14.4000,18.7500,7.6519,5.2601,-3.9289,0.0163,0.5020,0.0096,-78.1500,43.2000,15.7500,-4.2400,-2.4900,-8.6100,-0.0447,0.0229,0.0218,21.3750,31.1875,28.6875,19.8750,-26.3750,163.4375,0
1776973674.486,9.8186,-1.3072,2.4301,-0.0986,0.1617,0.0139,-70.5000,14.4000,18.7500,7.7500,5.1116,-3.9959,-0.1100,0.5276,-0.0187,-78.1500,43.2000,15.7500,-4.2400,-2.4900,-8.6100,-0.0447,0.0229,0.0218,21.3750,31.1875,28.6875,19.8750,-26.3750,163.4375,0
1776973674.491,9.8186,-1.3072,2.4301,-0.0986,0.1617,0.0139,-70.8000,12.6000,19.8000,7.7500,5.1116,-3.9959,-0.1100,0.5276,-0.0187,-78.1500,43.2000,15.7500,-4.2400,-2.4900,-8.6100,-0.0316,0.0142,0.0120,21.0000,31.1875,28.6875,19.8750,-26.3750,163.5000,0
1776973674.496,9.5026,-1.0223,2.6001,-0.0845,0.1980,-0.0093,-70.8000,12.6000,19.8000,7.8817,5.3127,-3.8690,-0.2358,0.5740,-0.0594,-78.1500,43.2000,15.7500,-4.2900,-2.6500,-8.3900,-0.0316,0.0142,0.0120,21.0000,31.1875,28.6875,19.8750,-26.3750,163.5000,0
1776973674.500,9.5026,-1.0223,2.6001,-0.0845,0.1980,-0.0093,-70.3500,12.6000,19.0500,7.8817,5.3127,-3.8690,-0.2358,0.5740,-0.0594,-77.2500,43.8000,15.6000,-4.2900,-2.6500,-8.3900,-0.0316,0.0142,0.0120,21.0000,31.1875,28.6875,19.8750,-26.3750,163.5000,0
1776973674.505,9.0525,-0.9481,2.5546,-0.0597,0.1652,-0.0040,-70.3500,12.6000,19.0500,7.9607,5.6503,-3.5554,-0.3371,0.5894,-0.0813,-77.2500,43.8000,15.6000,-4.2800,-2.5600,-8.5300,-0.0295,0.0044,0.0120,21.0000,31.1875,28.6875,19.8750,-26.3750,163.5000,0
1776973674.510,9.0525,-0.9481,2.5546,-0.0597,0.1652,-0.0040,-71.5500,12.6000,20.1000,7.9607,5.6503,-3.5554,-0.3371,0.5894,-0.0813,-77.2500,41.5500,15.6000,-4.2800,-2.5600,-8.5300,-0.0404,0.0185,0.0055,21.0000,31.1875,28.6875,19.8750,-26.3750,163.5000,0
1776973674.516,10.1993,-0.5986,2.6121,0.1148,0.0983,-0.0035,-71.5500,12.6000,20.1000,7.8961,5.6743,-3.2417,-0.3840,0.6257,-0.1079,-76.8000,43.2000,15.4500,-4.1800,-2.5200,-8.6300,-0.0404,0.0185,0.0055,21.0000,31.1875,28.6875,19.8750,-26.3750,163.5625,0
1776973674.525,9.7324,-0.5052,2.4086,0.1354,0.1103,-0.0053,-70.5000,13.6500,19.9500,8.1331,5.3463,-2.8419,-0.3360,0.5995,-0.1071,-76.8000,43.2000,15.4500,-4.1900,-2.5700,-8.5700,-0.0218,0.0055,0.0011,21.0000,31.1875,28.6875,19.8750,-26.3750,163.5625,0
1776973674.532,9.5672,-1.1492,2.3655,0.1354,0.1103,-0.0053,-70.8000,11.8500,20.5500,8.1331,5.3463,-2.8419,-0.3360,0.5995,-0.1071,-78.0000,44.5500,18.1500,-4.1900,-2.6200,-8.4500,-0.0098,0.0011,-0.0022,21.0000,31.1875,28.6875,19.8750,-26.3750,163.5625,0
1776973674.536,9.5672,-1.1492,2.3655,0.1593,0.1295,-0.0168,-70.8000,11.8500,20.5500,8.1259,5.3127,-3.4141,-0.3437,0.5249,-0.0741,-78.1500,45.1500,17.8500,-4.1900,-2.6200,-8.4500,-0.0098,0.0011,-0.0022,21.0000,31.1875,28.6875,19.8750,-26.3750,163.5625,0
1776973674.541,9.3278,-1.5802,2.7916,0.1593,0.1295,-0.0168,-70.9500,12.9000,19.2000,8.1259,5.3127,-3.4141,-0.3437,0.5249,-0.0741,-78.1500,45.1500,17.8500,-4.0900,-2.9000,-8.2300,-0.0033,0.0000,-0.0022,20.5625,30.8750,29.0625,19.8750,-26.3750,163.5000,0
1776973674.546,9.3278,-1.5802,2.7916,0.2398,0.1183,-0.0717,-70.9500,12.9000,19.2000,8.2049,5.2146,-3.7876,-0.3022,0.5907,-0.0632,-78.1500,45.1500,17.8500,-4.0900,-2.9000,-8.2300,-0.0033,0.0000,-0.0022,20.5625,30.8750,29.0625,19.8750,-26.3750,163.5000,0
1776973674.555,9.4355,-2.1620,2.7007,0.2787,0.1119,-0.0981,-70.9500,12.9000,19.2000,8.2648,5.4300,-3.8044,-0.3139,0.5990,-0.0498,-78.1500,45.1500,17.8500,-4.2300,-2.7100,-8.4000,-0.0229,-0.0033,0.0055,20.5625,30.8750,29.0625,19.8750,-26.3750,163.5000,0
1776973674.563,9.5170,-1.8196,2.2098,0.2657,0.0717,-0.0978,-72.4500,13.6500,19.9500,7.9847,5.7509,-4.1755,-0.2499,0.6390,-0.0370,-78.4500,43.5000,17.1000,-4.4300,-2.2800,-8.4300,-0.0393,-0.0011,0.0098,20.5625,30.8750,29.0625,19.8125,-26.3750,163.5625,0
1776973674.568,9.5170,-1.8196,2.2098,0.2657,0.0717,-0.0978,-72.4500,13.6500,19.9500,7.9847,5.7509,-4.1755,-0.2499,0.6390,-0.0370,-78.6000,44.4000,18.6000,-4.4300,-2.2800,-8.4300,-0.0393,-0.0011,0.0098,20.5625,30.8750,29.0625,19.8125,-26.3125,163.5625,0
1776973674.575,9.5361,-0.9433,1.4030,0.1817,0.0754,-0.0786,-72.4500,13.6500,19.9500,7.4579,6.2177,-4.1946,-0.2902,0.6065,-0.0317,-78.9000,44.4000,17.8500,-4.4400,-2.3000,-8.3900,-0.0404,0.0131,-0.0011,20.5625,30.8750,29.0625,19.8125,-26.3125,163.5625,0
1776973674.585,9.8497,-0.1365,1.3216,0.1346,0.0775,-0.0898,-72.0000,13.6500,19.2000,6.6439,6.3925,-3.8762,-0.2992,0.5694,-0.0349,-79.6500,45.4500,18.3000,-4.2100,-2.5000,-8.4300,-0.0611,0.0327,-0.0207,20.5625,30.8750,29.0625,19.8125,-26.3125,163.5625,0
1776973674.590,9.7468,0.0982,2.0327,0.1439,0.0773,-0.1212,-72.3000,15.0000,19.8000,6.6439,6.3925,-3.8762,-0.2992,0.5694,-0.0349,-79.6500,45.4500,18.3000,-4.2100,-2.5000,-8.4300,-0.0611,0.0327,-0.0207,20.5625,30.8750,29.0625,19.8125,-26.3125,163.6250,0
1776973674.595,9.7468,0.0982,2.0327,0.1439,0.0773,-0.1212,-72.3000,15.0000,19.8000,6.3159,6.3398,-3.6919,-0.3280,0.5726,-0.0163,-79.6500,45.4500,18.3000,-4.1300,-2.7000,-8.6000,-0.0949,0.0371,-0.0251,21.3750,29.6875,28.2500,19.8125,-26.3125,163.6250,0
1776973674.600,9.5313,-0.1413,2.5786,0.2470,0.0440,-0.1324,-71.1000,13.8000,20.1000,6.3159,6.3398,-3.6919,-0.3280,0.5726,-0.0163,-79.6500,45.4500,18.3000,-4.1300,-2.7000,-8.6000,-0.0949,0.0371,-0.0251,21.3750,29.6875,28.2500,19.7500,-26.2500,163.6875,0
1776973674.605,9.5313,-0.1413,2.5786,0.2470,0.0440,-0.1324,-71.1000,13.8000,20.1000,6.1387,6.1531,-3.3974,-0.2249,0.6259,0.0211,-80.5500,45.7500,18.7500,-4.0900,-2.7600,-8.5300,-0.0611,0.0709,-0.0251,21.3750,29.6875,28.2500,19.7500,-26.2500,163.6875,0
1776973674.610,9.4810,-0.5578,2.6240,0.3493,0.0482,-0.1082,-71.5500,14.2500,19.3500,6.1387,6.1531,-3.3974,-0.2249,0.6259,0.0211,-80.5500,45.7500,18.7500,-4.0900,-2.7600,-8.5300,-0.0305,0.0338,-0.0175,21.3750,29.6875,28.2500,19.7500,-26.1875,163.6875,0
1776973674.616,9.4810,-0.5578,2.6240,0.3493,0.0482,-0.1082,-71.5500,14.2500,19.3500,6.8833,5.7461,-3.2513,-0.2635,0.6190,0.0879,-80.5500,44.2500,21.3000,-4.1400,-2.6200,-8.5300,-0.0305,0.0338,-0.0175,21.3750,29.6875,28.2500,19.7500,-26.1875,163.6875,0
1776973674.625,9.4379,-0.9577,2.5450,0.3770,0.0578,-0.0831,-70.2000,15.1500,19.9500,6.9456,5.7676,-3.5961,-0.3118,0.6488,0.1247,-82.3500,43.5000,19.2000,-4.2500,-2.5000,-8.4800,-0.0295,0.0218,-0.0109,21.3750,29.6875,28.2500,19.7500,-26.1875,163.6875,0
1776973674.632,9.6127,-1.2929,2.3655,0.3155,0.0394,-0.0642,-71.1000,13.0500,20.1000,7.6064,5.8945,-3.6895,-0.3078,0.6622,0.1535,-82.3500,43.5000,19.2000,-4.2800,-2.4700,-8.4400,-0.0360,0.0349,-0.0109,21.3750,29.6875,28.2500,19.7500,-26.1875,163.6875,0
1776973674.637,9.7085,-1.4676,2.1572,0.3155,0.0394,-0.0642,-71.1000,13.0500,20.1000,7.6064,5.8945,-3.6895,-0.3078,0.6622,0.1535,-81.6000,45.0000,23.1000,-4.2800,-2.4700,-8.4400,-0.0360,0.0349,-0.0109,21.3750,29.6875,28.2500,19.7500,-26.1875,163.6875,0
1776973674.642,9.7085,-1.4676,2.1572,0.2598,0.0200,-0.0693,-71.1000,13.0500,20.1000,7.4939,6.1100,-3.5338,-0.2667,0.6592,0.1863,-81.6000,45.0000,23.1000,-4.2200,-2.4800,-8.5300,-0.0404,0.0415,-0.0153,21.3750,30.5000,27.8750,19.7500,-26.1250,163.7500,0
1776973674.647,9.7205,-1.4413,2.1500,0.2598,0.0200,-0.0693,-71.1000,13.0500,20.1000,7.4939,6.1100,-3.5338,-0.2667,0.6592,0.1863,-82.2000,43.2000,21.9000,-4.2200,-2.4800,-8.5300,-0.0404,0.0415,-0.0153,21.3750,30.5000,27.8750,19.7500,-26.1250,163.7500,0
1776973674.652,9.7205,-1.4413,2.1500,0.2153,0.0051,-0.0949,-71.2500,14.8500,20.2500,7.2496,5.9544,-3.5721,-0.2388,0.6158,0.2041,-82.2000,43.2000,21.9000,-4.2000,-2.4500,-8.5500,-0.0469,0.0469,-0.0175,21.3750,30.5000,27.8750,19.7500,-26.1250,163.7500,0
1776973674.657,9.6965,-1.2546,2.3296,0.2153,0.0051,-0.0949,-71.2500,14.8500,20.2500,7.2496,5.9544,-3.5721,-0.2388,0.6158,0.2041,-82.2000,43.2000,21.9000,-4.2000,-2.4500,-8.5500,-0.0469,0.0469,-0.0175,21.3750,30.5000,27.8750,19.7500,-26.1250,163.7500,0
1776973674.662,9.6965,-1.2546,2.3296,0.1993,-0.0053,-0.1071,-70.9500,14.8500,21.7500,6.9647,5.9687,-3.3016,-0.2651,0.6619,0.2659,-82.2000,43.2000,21.9000,-4.1900,-2.4000,-8.6400,-0.0404,0.0491,-0.0240,21.3750,30.5000,27.8750,19.6875,-26.0625,163.7500,0
1776973674.666,9.6175,-0.8811,2.3750,0.2145,-0.0072,-0.1098,-70.9500,14.8500,21.7500,6.9647,5.9687,-3.3016,-0.2651,0.6619,0.2659,-82.2000,44.4000,21.9000,-4.1900,-2.4000,-8.6400,-0.0404,0.0491,-0.0240,21.3750,30.5000,27.8750,19.6875,-26.0625,163.8125,0
1776973674.675,9.6223,-0.6345,2.2027,0.2145,-0.0072,-0.1098,-71.1000,14.2500,20.5500,6.7852,6.0908,-3.0047,-0.3347,0.7051,0.3320,-83.1000,42.7500,22.0500,-4.2100,-2.3500,-8.6400,-0.0273,0.0447,-0.0251,21.3750,30.5000,27.8750,19.6875,-26.0625,163.8125,0
1776973674.682,9.6223,-0.6345,2.2027,0.2350,-0.0027,-0.1167,-70.8000,13.8000,19.8000,7.3071,5.8849,-3.2058,-0.3349,0.7807,0.3976,-83.1000,42.7500,22.0500,-4.2000,-2.5100,-8.5500,-0.0076,0.0415,-0.0273,21.3750,30.5000,27.8750,19.6875,-26.0000,163.8125,0
1776973674.687,9.5361,-0.5722,2.1596,0.2507,-0.0024,-0.1308,-70.8000,13.8000,19.8000,7.3071,5.8849,-3.2058,-0.3349,0.7807,0.3976,-83.7000,43.6500,22.5000,-4.2000,-2.5100,-8.5500,-0.0076,0.0415,-0.0273,21.3750,30.5000,27.8750,19.6875,-26.0000,163.8125,0
1776973674.691,9.5361,-0.5722,2.1596,0.2507,-0.0024,-0.1308,-70.2000,14.8500,18.7500,7.5058,5.7868,-3.2992,-0.2366,0.7839,0.4482,-83.7000,43.6500,22.5000,-4.1900,-2.5900,-8.5500,0.0000,0.0545,-0.0284,21.0000,30.5000,27.8750,19.6875,-26.0000,163.8125,0
1776973674.696,9.4571,-0.8045,2.0207,0.2734,-0.0120,-0.1284,-70.2000,14.8500,18.7500,7.5058,5.7868,-3.2992,-0.2366,0.7839,0.4482,-83.8500,44.2500,22.3500,-4.1900,-2.5900,-8.5500,0.0000,0.0545,-0.0284,21.0000,30.5000,27.8750,19.6875,-26.0000,163.8125,0
1776973674.701,9.4571,-0.8045,2.0207,0.2734,-0.0120,-0.1284,-70.2000,15.6000,19.2000,7.4029,5.5450,-3.4261,-0.2577,0.8535,0.4887,-83.8500,44.2500,22.3500,-4.1900,-2.4800,-8.5900,-0.0011,0.0567,-0.0349,21.0000,30.5000,27.8750,19.6250,-25.9375,163.7500,0
1776973674.706,9.5529,-1.3551,1.9489,0.2566,-0.0168,-0.1244,-70.2000,15.6000,19.2000,7.4029,5.5450,-3.4261,-0.2577,0.8535,0.4887,-83.8500,44.2500,22.3500,-4.1900,-2.4800,-8.5900,-0.0011,0.0567,-0.0349,21.0000,30.5000,27.8750,19.6250,-25.9375,163.7500,0
1776973674.711,9.5529,-1.3551,1.9489,0.2566,-0.0168,-0.1244,-70.2000,15.6000,19.2000,7.7093,5.3774,-3.5889,-0.2670,0.8492,0.5212,-83.8500,44.2500,22.3500,-4.1900,-2.4800,-8.5900,0.0011,0.0709,-0.0382,21.0000,30.5000,27.8750,19.6250,-25.8750,163.7500,0
1776973674.716,9.5098,-1.5323,1.7980,0.2340,-0.0147,-0.1284,-70.2000,15.6000,19.2000,7.7093,5.3774,-3.5889,-0.2670,0.8492,0.5212,-84.9000,43.8000,23.4000,-4.1800,-2.4500,-8.6200,0.0011,0.0709,-0.0382,21.0000,30.5000,27.8750,19.6250,-25.8750,163.7500,0
1776973674.725,9.5002,-1.3623,1.6664,0.1847,-0.0109,-0.1255,-71.1000,14.5500,19.0500,7.5681,5.2026,-3.7254,-0.2617,0.8210,0.5375,-86.4000,45.0000,23.1000,-4.2600,-2.2800,-8.6600,0.0087,0.0720,-0.0425,21.0000,30.5000,27.8750,19.6250,-25.8750,163.7500,0
1776973674.730,9.5002,-1.3623,1.6664,0.1847,-0.0109,-0.1255,-71.1000,14.5500,19.0500,7.5274,4.9895,-3.5626,-0.2217,0.8263,0.5486,-86.4000,45.0000,23.1000,-4.2600,-2.2800,-8.6600,0.0229,0.0709,-0.0480,21.0000,30.5000,27.8750,19.6250,-25.8125,163.7500,0
1776973674.736,9.4547,-1.0726,1.4222,0.0666,0.0035,-0.1367,-71.1000,14.5500,19.0500,7.4101,5.1260,-3.6919,-0.1713,0.8524,0.5622,-85.8000,42.9000,24.0000,-4.2100,-2.2800,-8.6400,0.0229,0.0709,-0.0480,21.0000,30.5000,27.8750,19.6250,-25.8125,163.7500,0
1776973674.741,9.4547,-1.0726,1.4222,0.0666,0.0035,-0.1367,-70.9500,15.1500,20.7000,7.4101,5.1260,-3.6919,-0.1713,0.8524,0.5622,-85.8000,42.9000,24.0000,-4.2100,-2.2800,-8.6400,0.0229,0.0709,-0.0480,21.0000,30.5000,26.7500,19.5625,-25.7500,163.7500,0
1776973674.746,9.4858,-0.5938,1.0271,-0.0418,0.0330,-0.1684,-70.9500,15.1500,20.7000,7.4484,5.2265,-3.8523,-0.1607,0.8729,0.5766,-87.1500,44.5500,24.4500,-4.1400,-2.3600,-8.5400,0.0404,0.0774,-0.0633,21.0000,30.5000,26.7500,19.5625,-25.7500,163.7500,0
1776973674.751,9.4858,-0.5938,1.0271,-0.0418,0.0330,-0.1684,-69.1500,15.4500,20.1000,7.4484,5.2265,-3.8523,-0.1607,0.8729,0.5766,-87.4500,43.5000,25.2000,-4.1400,-2.3600,-8.5400,0.0404,0.0774,-0.0633,21.0000,30.5000,26.7500,19.5625,-25.6875,163.6875,0
1776973674.756,9.5744,-0.7638,0.7470,-0.0783,0.0557,-0.2017,-69.1500,15.4500,20.1000,7.1371,5.2744,-4.0294,-0.1284,0.8487,0.5945,-87.4500,43.5000,25.2000,-4.0000,-2.5800,-8.5200,0.0469,0.0796,-0.0742,21.0000,30.5000,26.7500,19.5625,-25.6875,163.6875,0
1776973674.761,9.5744,-0.7638,0.7470,-0.0783,0.0557,-0.2017,-70.3500,15.4500,20.5500,7.1371,5.2744,-4.0294,-0.1284,0.8487,0.5945,-87.4500,43.5000,25.2000,-4.0000,-2.5800,-8.5200,0.0491,0.0654,-0.0774,21.0000,30.5000,26.7500,19.5000,-25.6250,163.6250,0
1776973674.766,9.6247,-1.0678,1.1875,-0.1071,0.0853,-0.2089,-70.3500,15.4500,20.5500,6.9408,5.3582,-3.6344,-0.1695,0.8617,0.6262,-87.4500,43.5000,25.2000,-3.9700,-2.5100,-8.6100,0.0491,0.0654,-0.0774,21.0000,30.5000,26.7500,19.5000,-25.5625,163.6250,0
1776973674.775,9.8330,-0.9385,1.0750,-0.2049,0.0887,-0.1969,-71.8500,14.5500,20.5500,7.0964,5.2241,-3.5674,-0.2249,0.8287,0.6710,-88.0500,42.9000,25.8000,-3.8200,-2.4000,-8.5400,0.0556,0.0513,-0.0731,21.0000,30.5000,26.7500,19.5000,-25.5625,163.6250,0
1776973674.785,9.6462,-0.6249,1.4269,-0.2771,0.0919,-0.1876,-71.8500,14.5500,20.5500,6.8354,5.1811,-3.4477,-0.1948,0.8271,0.7019,-87.4500,40.8000,25.9500,-3.7400,-2.5000,-8.6200,0.0698,0.0295,-0.0687,21.0000,30.5000,26.7500,19.4375,-25.5625,163.5625,0
1776973674.790,9.6462,-0.6249,1.4269,-0.2771,0.0919,-0.1876,-71.8500,14.5500,20.5500,6.8354,5.1811,-3.4477,-0.1948,0.8271,0.7019,-87.4500,40.8000,25.9500,-3.7400,-2.5000,-8.6200,0.0698,0.0295,-0.0687,21.0000,30.5000,26.7500,19.4375,-25.5625,163.5000,0
1776973674.795,9.2847,-0.3065,1.5323,-0.2976,0.0853,-0.1900,-69.0000,15.9000,21.0000,6.7588,5.1475,-3.2992,-0.1780,0.8593,0.7250,-89.1000,40.9500,25.0500,-4.0900,-2.4500,-8.5000,0.0796,-0.0087,-0.0600,19.1875,31.1875,27.5000,19.4375,-25.5625,163.5000,0
1776973674.800,9.2847,0.2658,1.3431,-0.2976,0.0853,-0.1900,-69.0000,15.9000,21.0000,6.7588,5.1475,-3.2992,-0.1780,0.8593,0.7250,-89.1000,40.9500,25.0500,-4.0900,-2.4500,-8.5000,0.0796,-0.0087,-0.0600,19.1875,31.1875,27.5000,19.4375,-25.5625,163.5000,0
1776973674.805,9.2847,0.2658,1.3431,-0.3285,0.0994,-0.1780,-69.0000,15.9000,21.0000,6.9240,5.1930,-2.9688,-0.2585,0.8132,0.7245,-88.2000,42.3000,27.3000,-3.9400,-2.4200,-8.5600,0.0873,-0.0240,-0.0556,19.1875,31.1875,27.5000,19.4375,-25.5625,163.4375,0
1776973674.810,9.3039,0.7135,1.2809,-0.3285,0.0994,-0.1780,-69.0000,15.9000,21.0000,6.9240,5.1930,-2.9688,-0.2585,0.8132,0.7245,-88.2000,42.3000,27.3000,-3.9400,-2.4200,-8.5600,0.0851,-0.0229,-0.0622,19.1875,31.1875,27.5000,19.3750,-25.5625,163.3750,0
1776973674.816,9.3039,0.7135,1.2809,-0.3789,0.1284,-0.1641,-70.2000,15.9000,19.2000,6.7924,4.9249,-2.5929,-0.3235,0.7941,0.7035,-88.2000,42.3000,27.3000,-3.9800,-2.7500,-8.5500,0.0851,-0.0229,-0.0622,19.1875,31.1875,27.5000,19.3750,-25.5625,163.3750,0
1776973674.825,9.1842,0.9936,1.1325,-0.3246,0.1553,-0.1532,-69.0000,15.1500,19.5000,6.8953,4.8866,-2.7342,-0.3877,0.7677,0.6749,-89.2500,42.3000,26.2500,-4.0500,-2.7800,-8.4600,0.0982,-0.0338,-0.0589,19.1875,31.1875,27.5000,19.3750,-25.5625,163.2500,0
1776973674.830,9.1602,0.7518,1.3455,-0.2803,0.1911,-0.1319,-69.0000,15.1500,19.5000,6.8953,4.8866,-2.7342,-0.3877,0.7677,0.6749,-89.2500,42.3000,26.2500,-4.0500,-2.7800,-8.4600,0.1058,-0.0404,-0.0545,19.1875,31.1875,27.5000,19.3125,-25.5625,163.1875,0
1776973674.836,9.1602,0.7518,1.3455,-0.2803,0.1911,-0.1319,-67.9500,15.9000,19.9500,6.7947,5.1068,-2.7773,-0.4437,0.7424,0.6459,-88.8000,40.6500,29.2500,-4.0800,-2.7500,-8.4900,0.1058,-0.0404,-0.0545,19.1875,31.1875,27.5000,19.3125,-25.5625,163.1875,0
1776973674.841,9.2536,0.6560,1.4246,-0.2646,0.2068,-0.1170,-70.3500,16.9500,20.5500,6.7947,5.1068,-2.7773,-0.4437,0.7424,0.6459,-91.3500,38.7000,30.0000,-4.0800,-2.7500,-8.4900,0.1058,-0.0404,-0.0545,19.1875,32.6875,29.0625,19.3125,-25.5625,163.1250,0
1776973674.846,9.2536,0.6560,1.4246,-0.2646,0.2068,-0.1170,-70.3500,16.9500,20.5500,6.8283,5.1619,-2.6145,-0.4615,0.7727,0.6257,-91.3500,38.7000,30.0000,-3.9700,-2.8800,-8.4100,0.0840,-0.0284,-0.0480,19.1875,32.6875,29.0625,19.3125,-25.5625,163.1250,0
1776973674.851,9.4068,0.3328,1.6352,-0.2867,0.2326,-0.1002,-68.7000,16.3500,21.4500,6.8283,5.1619,-2.6145,-0.4615,0.7727,0.6257,-88.9500,39.3000,28.8000,-3.9700,-2.8800,-8.4100,0.0840,-0.0284,-0.0480,19.1875,32.6875,29.0625,19.3125,-25.5625,163.0625,0
1776973674.856,9.4068,0.3328,1.6352,-0.2867,0.2326,-0.1002,-68.7000,16.3500,21.4500,7.3215,5.2984,-2.3367,-0.4279,0.8082,0.6278,-88.9500,39.3000,28.8000,-3.8900,-2.8600,-8.3800,0.0567,-0.0458,-0.0349,19.1875,32.6875,29.0625,19.3125,-25.5625,163.0625,0
1776973674.866,9.4571,0.1101,1.9968,-0.2305,0.2697,-0.0789,-70.3500,15.0000,19.3500,7.3287,5.2265,-1.8675,-0.4690,0.7714,0.6787,-90.9000,40.2000,28.2000,-4.1100,-2.7000,-8.5100,0.0436,-0.0218,-0.0229,19.1875,32.6875,29.0625,19.3125,-25.5625,163.0625,0
1776973674.872,9.4523,0.1413,1.9489,-0.2390,0.2643,-0.0493,-70.3500,15.0000,19.3500,7.7859,5.4396,-2.1452,-0.5657,0.7893,0.6915,-90.9000,40.2000,28.2000,-4.1100,-2.6200,-8.5200,0.0316,-0.0513,-0.0087,19.1875,32.6875,29.0625,19.3125,-25.6250,163.0625,0
1776973674.877,9.4523,0.1413,1.9489,-0.2390,0.2643,-0.0493,-70.3500,15.0000,19.3500,7.7859,5.4396,-2.1452,-0.5657,0.7893,0.6915,-90.9000,40.2000,28.2000,-4.1100,-2.6200,-8.5200,0.0316,-0.0513,-0.0087,19.1875,32.6875,29.0625,19.3125,-25.6250,163.0000,0
1776973674.886,9.5074,0.3232,1.8004,-0.3142,0.2486,-0.0362,-69.4500,15.1500,20.2500,8.1235,5.2792,-1.8148,-0.5868,0.6875,0.6909,-89.8500,38.4000,31.5000,-4.0800,-2.8400,-8.4000,0.0175,-0.0600,-0.0098,19.1875,32.6875,29.0625,19.3125,-25.6250,163.0000,0
1776973674.891,9.3541,0.1125,1.7549,-0.2971,0.2459,-0.0392,-69.4500,15.1500,20.2500,8.1235,5.2792,-1.8148,-0.5484,0.6768,0.7226,-90.1500,40.6500,31.0500,-4.0800,-2.8400,-8.4000,0.0175,-0.0600,-0.0098,19.1875,32.6875,28.2500,19.2500,-25.6250,163.0000,0
1776973674.896,9.3541,0.1125,1.7549,-0.2971,0.2459,-0.0392,-69.4500,15.1500,20.2500,8.2289,5.2888,-1.4461,-0.5484,0.6768,0.7226,-90.1500,40.6500,31.0500,-4.0800,-2.7000,-8.4700,0.0098,-0.0436,-0.0033,19.1875,32.6875,28.2500,19.2500,-25.6250,163.0000,0
1776973674.901,9.4044,-0.2873,2.6193,-0.2164,0.2699,-0.0352,-69.4500,15.1500,20.2500,8.2720,5.0613,-1.6472,-0.5281,0.7072,0.7448,-90.9000,38.7000,30.7500,-4.0800,-2.7000,-8.4700,0.0098,-0.0436,-0.0033,19.1875,32.6875,28.2500,19.2500,-25.6250,163.0000,0
1776973674.906,9.5241,-0.3759,2.8467,-0.2164,0.2699,-0.0352,-68.4000,16.9500,21.1500,8.2720,5.0613,-1.6472,-0.5281,0.7072,0.7448,-90.9000,38.7000,30.7500,-4.1200,-2.7000,-8.4600,-0.0065,-0.0502,0.0055,19.1875,32.6875,28.2500,19.2500,-25.6250,163.0000,0
1776973674.911,9.5241,-0.3759,2.8467,-0.2244,0.2473,-0.0426,-68.4000,16.9500,21.1500,8.6790,5.2337,-1.1061,-0.5478,0.7541,0.7370,-91.3500,39.1500,29.7000,-4.1200,-2.7000,-8.4600,-0.0120,-0.0513,0.0098,19.1875,32.6875,28.2500,19.2500,-25.6875,163.0000,0
1776973674.916,9.7995,-0.4741,2.7557,-0.2276,0.2294,-0.0352,-69.1500,15.7500,20.8500,8.6790,5.2337,-1.1061,-0.5478,0.7541,0.7370,-91.3500,39.1500,29.7000,-4.0900,-2.7100,-8.5300,-0.0120,-0.0513,0.0098,19.1875,32.6875,28.2500,19.2500,-25.6875,163.0000,0
1776973674.926,9.7588,-0.5243,2.7797,-0.2276,0.2294,-0.0352,-69.6000,16.2000,21.1500,8.6503,5.2313,-0.7661,-0.6376,0.7221,0.7829,-91.3500,39.1500,29.7000,-4.1900,-2.5800,-8.6100,-0.0153,-0.0458,0.0109,19.1875,32.6875,28.2500,19.2500,-25.6875,163.0000,0
1776973674.932,9.7588,-0.5243,2.7797,-0.2102,0.2302,-0.0149,-69.1500,17.7000,21.1500,8.6862,5.1858,-0.5291,-0.5481,0.7584,0.7922,-90.4500,40.0500,30.1500,-4.2200,-2.5600,-8.5600,-0.0055,-0.0502,0.0142,19.1875,32.6875,28.2500,19.2500,-25.7500,163.0000,0
1776973674.937,9.7420,-0.4764,2.9688,-0.2369,0.2220,0.0080,-69.1500,17.7000,21.1500,8.6862,5.1858,-0.5291,-0.5481,0.7584,0.7922,-90.4500,40.0500,30.1500,-4.2200,-2.5600,-8.5600,-0.0055,-0.0502,0.0142,19.1875,32.6875,28.2500,19.2500,-25.7500,163.0000,0
1776973674.942,9.7420,-0.4764,2.9688,-0.2369,0.2220,0.0080,-69.1500,17.7000,21.1500,8.6407,5.3558,-0.6656,-0.4381,0.7983,0.8180,-88.8000,40.2000,31.5000,-4.2200,-2.5600,-8.5600,-0.0055,-0.0502,0.0142,19.8750,31.5625,27.8750,19.2500,-25.7500,163.0000,0
1776973674.947,9.6486,-0.3615,2.9497,-0.2761,0.1809,0.0176,-69.1500,17.7000,21.1500,8.6407,5.3558,-0.6656,-0.4381,0.7983,0.8180,-88.8000,40.2000,31.5000,-4.1900,-2.6100,-8.5300,0.0109,-0.0447,0.0098,19.8750,31.5625,27.8750,19.2500,-25.7500,163.0000,0
1776973674.951,9.6486,-0.3615,2.9497,-0.2761,0.1809,0.0176,-69.1500,17.7000,21.1500,8.7556,5.1667,0.0215,-0.4916,0.8567,0.8404,-88.2000,41.2500,30.9000,-4.1900,-2.6100,-8.5300,0.0109,-0.0447,0.0098,19.8750,31.5625,27.8750,19.2500,-25.7500,162.9375,0
1776973674.956,9.5074,-0.3232,3.2417,-0.2579,0.1551,0.0168,-68.2500,17.1000,21.7500,8.7556,5.1667,0.0215,-0.4916,0.8567,0.8404,-88.2000,41.2500,30.9000,-4.1700,-2.6500,-8.4800,0.0207,-0.0338,0.0055,19.8750,31.5625,27.8750,19.2500,-25.7500,162.9375,0
1776973674.961,9.5074,-0.3232,3.2417,-0.2579,0.1551,0.0168,-68.2500,17.1000,21.7500,8.9759,4.5657,0.2729,-0.4048,0.8916,0.8657,-88.3500,40.2000,32.8500,-4.1700,-2.6500,-8.4800,0.0229,-0.0360,0.0011,19.8750,31.5625,27.8750,19.2500,-25.7500,162.9375,0
1776973674.967,9.5241,-0.4525,3.2609,-0.1884,0.1223,0.0024,-68.2500,17.1000,21.7500,8.9759,4.5657,0.2729,-0.4048,0.8916,0.8657,-88.3500,40.2000,32.8500,-4.1500,-2.8200,-8.4300,0.0229,-0.0360,0.0011,19.8750,31.5625,27.8750,19.2500,-25.8125,162.9375,0
1776973674.976,9.5553,-0.5363,2.9640,-0.1066,0.0967,-0.0112,-69.0000,16.8000,21.7500,9.0668,4.6017,-0.1580,-0.2904,0.9707,0.8660,-88.3500,40.2000,32.8500,-4.1800,-2.7400,-8.4200,0.0196,-0.0371,0.0055,19.8750,31.5625,27.8750,19.2500,-25.8125,162.9375,0
1776973674.981,9.5553,-0.5363,2.9640,-0.1066,0.0967,-0.0112,-69.0000,16.8000,21.7500,9.0573,4.3191,-0.1796,-0.2681,0.9976,0.8777,-88.3500,40.2000,32.8500,-4.1800,-2.7400,-8.4200,0.0131,-0.0338,0.0055,19.8750,31.5625,27.8750,19.2500,-25.8125,162.9375,0
1776973674.987,9.8067,-0.7542,2.7940,-0.2105,0.0866,-0.0027,-70.8000,15.4500,22.3500,9.0573,4.3191,-0.1796,-0.2681,0.9976,0.8777,-88.3500,40.2000,32.8500,-4.1600,-2.6200,-8.5400,0.0131,-0.0338,0.0055,19.8750,31.5625,27.8750,19.2500,-25.8125,162.9375,0
1776973674.992,9.8067,-0.7542,2.7940,-0.2105,0.0866,-0.0027,-70.8000,15.4500,22.3500,8.8753,4.1539,0.0407,-0.2646,0.9617,0.9006,-87.9000,41.2500,33.0000,-4.1600,-2.6200,-8.5400,0.0175,-0.0305,0.0065,19.8750,31.8750,27.8750,19.2500,-25.8125,162.8750,0
1776973674.997,9.7755,-0.7398,2.5618,-0.2289,0.0738,0.0019,-69.1500,16.2000,22.3500,8.8753,4.1539,0.0407,-0.2646,0.9617,0.9006,-87.9000,41.2500,33.0000,-4.0700,-2.6700,-8.4700,0.0175,-0.0305,0.0065,19.8750,31.8750,27.8750,19.2500,-25.8125,162.8750,0
1776973675.001,9.7755,-0.7398,2.5618,-0.2289,0.0738,0.0019,-69.1500,16.2000,22.3500,8.8849,4.1348,-0.1341,-0.2769,0.9582,0.9052,-88.2000,42.0000,31.9500,-4.0700,-2.6700,-8.4700,0.0218,-0.0349,0.0055,19.8750,31.8750,27.8750,19.2500,-25.8125,162.8750,0
1776973675.006,9.6845,-0.6512,2.5977,-0.2028,0.0538,0.0011,-68.7000,15.6000,22.2000,8.8849,4.1348,-0.1341,-0.2769,0.9582,0.9052,-88.2000,42.0000,31.9500,-4.1400,-2.7400,-8.5200,0.0218,-0.0349,0.0055,19.8750,31.8750,27.8750,19.2500,-25.8125,162.8750,0
1776973675.011,9.4499,-0.6752,2.6671,-0.2028,0.0538,0.0011,-68.7000,15.6000,22.2000,9.1722,4.0534,-0.1053,-0.2667,0.9142,0.9153,-88.9500,42.3000,33.0000,-4.1400,-2.7400,-8.5200,0.0240,-0.0415,0.0098,19.8750,31.8750,27.8750,19.2500,-25.8750,162.8750,0
1776973675.017,9.4499,-0.6752,2.6671,-0.1868,0.0320,-0.0298,-69.0000,14.4000,21.7500,9.1722,4.0534,-0.1053,-0.2747,0.8745,0.9393,-88.9500,42.3000,33.0000,-4.1600,-2.6500,-8.5200,0.0240,-0.0415,0.0098,19.8750,31.8750,27.8750,19.2500,-25.8750,162.8750,0
1776973675.026,9.3948,-0.6273,2.4924,-0.1743,0.0378,-0.0381,-68.1000,15.4500,20.8500,9.0333,3.9217,-0.2538,-0.2747,0.8745,0.9393,-88.0500,42.9000,30.0000,-4.1600,-2.7100,-8.4900,0.0251,-0.0382,0.0120,19.8750,31.8750,27.8750,19.2500,-25.8750,162.8750,0
1776973675.031,9.3230,-0.7614,2.5857,-0.1743,0.0378,-0.0381,-68.1000,15.4500,20.8500,8.9519,4.1827,0.0263,-0.2006,0.8655,0.9411,-88.0500,42.9000,30.0000,-4.1600,-2.7100,-8.4900,0.0273,-0.0393,0.0087,19.8750,31.8750,27.8750,19.2500,-25.8750,162.8125,0
1776973675.037,9.3230,-0.7614,2.5857,-0.1998,0.0298,-0.0376,-68.1000,15.4500,20.8500,8.3677,4.5059,0.2394,-0.0749,0.5124,0.9289,-88.0500,42.9000,30.0000,-4.2400,-2.5000,-8.5200,0.0273,-0.0393,0.0087,19.8750,31.8750,27.8750,19.2500,-25.8750,162.8125,0
1776973675.042,9.7324,-0.2634,2.5115,-0.2542,0.0501,-0.0378,-68.1000,15.4500,20.8500,8.3677,4.5059,0.2394,-0.0749,0.5124,0.9289,-88.5000,42.7500,31.3500,-4.1800,-2.5800,-8.5100,0.0295,-0.0371,0.0065,18.7500,32.6875,28.6875,19.2500,-25.8750,162.8125,0
1776973675.047,9.7324,-0.2634,2.5115,-0.2542,0.0501,-0.0378,-69.6000,15.0000,21.9000,8.5784,4.5203,0.4956,-0.1788,0.9036,0.9427,-88.0500,42.1500,31.0500,-4.1800,-2.5800,-8.5100,0.0295,-0.0371,0.0065,18.7500,32.6875,28.6875,19.2500,-25.8750,162.8125,0
1776973675.052,9.7348,0.1628,3.0981,-0.2790,-0.0141,-0.0200,-69.6000,15.0000,21.9000,8.5784,4.5203,0.4956,-0.1788,0.9036,0.9427,-88.0500,42.1500,31.0500,-4.1800,-2.5800,-8.5100,0.0349,-0.0349,-0.0022,18.7500,32.6875,28.6875,19.2500,-25.9375,162.8125,0
1776973675.057,9.7348,0.1628,3.0981,-0.2790,-0.0141,-0.0200,-69.6000,15.4500,22.6500,8.9376,4.5226,0.7063,-0.1460,0.8537,0.9579,-88.5000,41.2500,31.9500,-4.1400,-2.6400,-8.5500,0.0349,-0.0349,-0.0022,18.7500,32.6875,28.6875,19.2500,-25.9375,162.8125,0
1776973675.061,9.8019,0.5004,2.9425,-0.2633,-0.0293,-0.0245,-69.6000,15.4500,22.6500,8.9376,4.5226,0.7063,-0.1460,0.8537,0.9579,-88.5000,41.2500,31.9500,-4.1400,-2.6400,-8.5500,0.0447,-0.0349,-0.0055,18.7500,32.6875,28.6875,19.2500,-25.9375,162.7500,0
1776973675.067,9.8019,0.5004,2.9425,-0.2633,-0.0293,-0.0245,-69.4500,15.1500,23.7000,8.5736,4.6807,0.8787,-0.1284,0.8207,0.9763,-91.0500,40.5000,31.3500,-4.0200,-2.9300,-8.4400,0.0447,-0.0349,-0.0055,18.7500,32.6875,28.6875,19.2500,-25.9375,162.6875,0
1776973675.076,9.6414,0.5100,3.2825,-0.1495,-0.0514,0.0019,-68.4000,15.7500,21.9000,8.7580,4.4987,0.7925,-0.1061,0.7954,0.9800,-91.0500,40.5000,31.3500,-4.1700,-2.8600,-8.4300,0.0611,-0.0458,0.0011,18.7500,32.6875,28.6875,19.2500,-25.9375,162.6875,0
1776973675.081,9.5361,0.2873,2.6336,-0.1250,-0.0797,0.0256,-68.4000,15.7500,21.9000,8.7580,4.4987,0.7925,-0.1061,0.7954,0.9800,-91.0500,40.5000,31.3500,-4.1700,-2.8600,-8.4300,0.0600,-0.0622,0.0153,18.7500,32.6875,28.6875,19.2500,-25.9375,162.6875,0
1776973675.087,9.5361,0.2873,2.6336,-0.1250,-0.0797,0.0256,-68.8500,15.4500,23.1000,8.7364,4.1515,0.7638,-0.0823,0.7336,0.9454,-91.0500,40.5000,31.3500,-4.1400,-2.8400,-8.4100,0.0600,-0.0622,0.0153,18.7500,32.6875,28.6875,19.2500,-25.9375,162.6875,0
1776973675.092,9.3278,-0.0192,2.5235,-0.1108,-0.0746,0.0450,-68.8500,15.4500,23.1000,8.7364,4.1515,0.7638,-0.0823,0.7336,0.9454,-91.0500,40.5000,31.3500,-4.1400,-2.8400,-8.4100,0.0600,-0.0622,0.0153,19.8750,33.0000,28.6875,19.2500,-26.0000,162.6250,0
1776973675.097,9.3278,-0.0192,2.5235,-0.1108,-0.0746,0.0450,-68.8500,15.7500,22.3500,8.8538,3.5267,0.7757,-0.1601,0.7136,0.9355,-89.7000,38.5500,32.4000,-4.2300,-2.8100,-8.3300,0.0556,-0.0611,0.0229,19.8750,33.0000,28.6875,19.2500,-26.0000,162.6250,0
1776973675.102,9.2368,-0.3926,2.3200,-0.1180,-0.0957,0.0629,-68.8500,15.7500,22.3500,8.8538,3.5267,0.7757,-0.1601,0.7136,0.9355,-89.7000,38.5500,32.4000,-4.2300,-2.8100,-8.3300,0.0556,-0.0611,0.0229,19.8750,33.0000,28.6875,19.3125,-26.0000,162.5625,0
1776973675.107,9.2368,-0.3926,2.3200,-0.1180,-0.0957,0.0629,-68.8500,15.7500,22.3500,9.0453,2.9592,-0.0670,-0.1463,0.7096,0.9225,-89.2500,38.2500,31.9500,-4.2200,-2.7600,-8.3900,0.0480,-0.0545,0.0273,19.8750,33.0000,28.6875,19.3125,-26.0000,162.5625,0
1776973675.112,9.2344,-0.6057,2.3104,-0.1724,-0.0919,0.0741,-68.8500,15.7500,22.3500,9.0453,2.9592,-0.0670,-0.1463,0.7096,0.9225,-89.2500,38.2500,31.9500,-4.2200,-2.7600,-8.3900,0.0251,-0.0458,0.0295,19.8750,33.0000,28.6875,19.3125,-26.0625,162.5625,0
1776973675.117,9.2344,-0.6057,2.3104,-0.1724,-0.0919,0.0741,-70.0500,16.2000,22.6500,9.1363,3.1915,-0.2274,-0.0815,0.6776,0.9254,-91.3500,39.1500,32.8500,-4.2200,-2.6500,-8.4500,0.0251,-0.0458,0.0295,19.8750,33.0000,28.6875,19.3125,-26.0625,162.5625,0
1776973675.126,9.4619,-0.3711,2.2482,-0.2563,-0.0781,0.0781,-70.0500,16.2000,22.6500,9.5984,3.2346,0.2945,-0.0266,0.2332,0.8780,-89.1000,36.1500,31.8000,-4.1500,-2.7200,-8.4000,0.0164,-0.0382,0.0262,19.8750,33.0000,28.6875,19.3125,-26.0625,162.5625,0
1776973675.134,9.7612,0.2466,2.2314,-0.3613,-0.0781,0.0466,-69.4500,14.4000,22.9500,8.7604,3.1292,0.8116,-0.2044,0.6944,0.9092,-89.1000,36.1500,31.8000,-3.8400,-2.9600,-8.5200,0.0120,-0.0371,0.0262,19.8750,33.0000,28.6875,19.3125,-26.0625,162.5625,0
1776973675.139,10.0197,0.0575,2.4229,-0.2817,-0.0949,0.0845,-69.4500,14.4000,22.9500,8.7604,3.1292,0.8116,-0.2044,0.6944,0.9092,-89.1000,36.1500,31.8000,-3.8400,-2.9600,-8.5200,0.0120,-0.0371,0.0262,19.8750,33.0000,28.6875,19.3125,-26.0625,162.5625,0
1776973675.144,10.0197,0.0575,2.4229,-0.2817,-0.0949,0.0845,-69.4500,14.4000,22.9500,9.4379,2.9473,0.5722,-0.2049,0.8090,0.9196,-89.1000,36.1500,31.8000,-4.0600,-2.8300,-8.5500,0.0425,-0.0894,0.0567,19.5000,31.7500,27.8750,19.3750,-26.1250,162.5000,0
1776973675.149,9.6438,-0.2227,2.9784,-0.1370,-0.1061,0.0823,-69.0000,15.9000,21.4500,9.4379,2.9473,0.5722,-0.2049,0.8090,0.9196,-89.7000,34.5000,31.3500,-4.0600,-2.8300,-8.5500,0.0425,-0.0894,0.0567,19.5000,31.7500,27.8750,19.3750,-26.1250,162.5000,0
1776973675.154,9.6438,-0.2227,2.9784,-0.1370,-0.1061,0.0823,-69.6000,13.8000,21.4500,9.0956,2.6671,1.0750,-0.2374,0.6984,0.9054,-89.7000,34.5000,31.3500,-4.2700,-2.7000,-8.4400,0.0425,-0.0894,0.0567,19.5000,31.7500,27.8750,19.3750,-26.1875,162.5000,0
1776973675.159,9.3972,-0.5890,2.3918,-0.1471,-0.0917,0.0970,-69.6000,13.8000,21.6000,9.0956,2.6671,1.0750,-0.2374,0.6984,0.9054,-90.9000,32.4000,32.1000,-4.2700,-2.7000,-8.4400,0.0425,-0.0894,0.0567,19.5000,31.7500,27.8750,19.3750,-26.1875,162.5000,0
1776973675.163,9.3972,-0.5890,2.3918,-0.1471,-0.0917,0.0970,-69.6000,13.8000,21.6000,9.1339,2.1500,1.0199,-0.2742,0.7578,0.8937,-90.9000,32.4000,32.1000,-4.3400,-2.6400,-8.4300,0.0469,-0.1014,0.0644,19.5000,31.7500,27.8750,19.4375,-26.2500,162.5000,0
1776973675.168,9.1554,-0.7733,1.9082,-0.1172,-0.1172,0.1023,-68.7000,14.8500,23.2500,9.1339,2.1500,1.0199,-0.2742,0.7578,0.8937,-88.3500,33.4500,31.5000,-4.3400,-2.6400,-8.4300,0.0469,-0.1014,0.0644,19.5000,31.7500,27.8750,19.4375,-26.3125,162.4375,0
1776973675.176,8.9759,-0.4166,2.2170,-0.1159,-0.0616,0.1031,-69.6000,15.4500,21.1500,8.7388,2.1332,0.9457,-0.2411,0.7282,0.8756,-89.2500,32.2500,33.0000,-4.3700,-2.5800,-8.3700,0.0458,-0.0894,0.0589,19.5000,31.7500,27.8750,19.5000,-26.3125,162.4375,0
1776973675.186,9.3302,-0.2155,1.9609,-0.1503,-0.0719,0.1074,-69.6000,13.8000,21.9000,9.2464,2.0973,1.0271,-0.2507,0.7869,0.8729,-89.2500,32.2500,33.0000,-4.3100,-2.5600,-8.3900,0.0371,-0.0774,0.0480,19.5000,31.7500,27.8750,19.5000,-26.3125,162.4375,0
1776973675.191,9.3302,-0.2155,1.9609,-0.1503,-0.0719,0.1074,-69.6000,13.8000,21.9000,9.3853,1.9441,1.7909,-0.3147,0.6891,0.8609,-89.2500,32.2500,33.0000,-4.3100,-2.5600,-8.3900,0.0371,-0.0774,0.0480,19.5000,31.7500,27.8750,19.5000,-26.3125,162.4375,0
1776973675.196,9.4068,-0.2346,2.3990,-0.1359,-0.0789,0.0965,-69.6000,13.8000,21.9000,9.3853,1.9441,1.7909,-0.3147,0.6891,0.8609,-89.2500,32.2500,33.0000,-4.2200,-2.6400,-8.5300,0.0218,-0.0480,0.0305,20.1875,32.1875,27.8750,19.5000,-26.3750,162.4375,0
1776973675.201,9.4068,-0.2346,2.3990,-0.1359,-0.0789,0.0965,-69.6000,13.8000,21.9000,9.3015,1.7023,1.5610,-0.3842,0.6387,0.8460,-89.2500,32.2500,33.0000,-4.2200,-2.6400,-8.5300,0.0218,-0.0480,0.0305,20.1875,32.1875,27.8750,19.5000,-26.3750,162.4375,0
1776973675.206,9.3374,-0.5004,3.0526,-0.0624,-0.0690,0.0786,-68.8500,15.0000,21.6000,9.3015,1.7023,1.5610,-0.3842,0.6387,0.8460,-89.1000,29.7000,33.9000,-4.2300,-2.7400,-8.4500,0.0218,-0.0480,0.0305,20.1875,32.1875,27.8750,19.5000,-26.3750,162.4375,0
1776973675.211,9.3374,-0.5004,3.0526,-0.0624,-0.0690,0.0786,-68.8500,15.0000,21.6000,9.1889,1.6783,1.7286,-0.3134,0.6422,0.8178,-89.1000,29.7000,33.9000,-4.2300,-2.7400,-8.4500,0.0153,-0.0545,0.0327,20.1875,32.1875,27.8750,19.5000,-26.4375,162.4375,0
1776973675.217,9.2847,-0.7326,2.7438,-0.0152,-0.0805,0.0781,-70.2000,15.1500,22.5000,9.1889,1.6783,1.7286,-0.3134,0.6422,0.8178,-90.0000,28.8000,33.0000,-4.3200,-2.7300,-8.3200,0.0153,-0.0545,0.0327,20.1875,32.1875,27.8750,19.5625,-26.4375,162.4375,0
1776973675.226,9.1770,-0.8452,2.4134,0.0741,-0.0765,0.0757,-70.2000,14.4000,21.7500,9.1818,1.3910,1.6472,-0.3134,0.5875,0.8151,-89.1000,28.2000,32.8500,-4.3200,-2.7300,-8.3100,-0.0033,-0.0425,0.0284,20.1875,32.1875,27.8750,19.5625,-26.4375,162.4375,0
1776973675.233,9.5289,-1.0415,1.9824,0.0919,-0.0528,0.0682,-70.2000,14.4000,21.7500,9.6582,1.4485,1.3048,-0.2342,0.5622,0.8026,-90.1500,27.4500,33.3000,-4.3700,-2.5500,-8.4400,-0.0240,-0.0185,0.0196,20.1875,32.1875,27.8750,19.5625,-26.4375,162.4375,0
1776973675.238,9.5289,-1.0415,1.9824,0.0919,-0.0528,0.0682,-70.5000,14.8500,21.4500,9.6582,1.4485,1.3048,-0.2342,0.5622,0.8026,-90.1500,27.4500,33.3000,-4.3700,-2.5500,-8.4400,-0.0240,-0.0185,0.0196,20.1875,32.1875,27.8750,19.5625,-26.4375,162.4375,0
1776973675.243,9.6462,-0.8811,2.1715,0.1082,-0.0602,0.0618,-70.5000,14.8500,21.4500,9.5193,1.5658,1.3934,-0.3339,0.6038,0.8090,-90.1500,27.4500,33.3000,-4.2700,-2.6000,-8.5100,-0.0295,-0.0076,0.0120,20.1875,31.5000,27.0625,19.5625,-26.4375,162.4375,0
1776973675.248,9.6462,-0.8811,2.1715,0.1082,-0.0602,0.0618,-70.9500,13.6500,22.2000,9.5193,1.5658,1.3934,-0.3339,0.6038,0.8090,-90.1500,27.4500,33.3000,-4.2700,-2.6000,-8.5100,-0.0295,-0.0076,0.0120,20.1875,31.5000,27.0625,19.5625,-26.4375,162.4375,0
1776973675.253,9.5648,-0.7159,2.3152,0.0725,-0.0791,0.0549,-70.9500,13.6500,22.2000,9.3422,1.6376,1.5347,-0.3810,0.5486,0.7914,-90.1500,27.4500,33.3000,-4.3000,-2.5100,-8.5400,-0.0207,-0.0022,0.0065,20.1875,31.5000,27.0625,19.5625,-26.4375,162.5000,0
1776973675.258,9.5648,-0.7159,2.3152,0.0725,-0.0791,0.0549,-69.7500,14.4000,22.2000,9.3422,1.6376,1.5347,-0.3810,0.5486,0.7914,-88.5000,25.0500,33.0000,-4.3000,-2.5100,-8.5400,-0.0207,-0.0022,0.0065,20.1875,31.5000,27.0625,19.5625,-26.4375,162.5000,0
1776973675.263,9.2225,-0.2011,2.4493,0.1077,-0.0725,0.0560,-69.7500,14.4000,22.2000,9.1626,1.7023,1.2617,-0.3706,0.5375,0.7573,-88.5000,25.0500,33.0000,-4.3600,-2.6100,-8.3900,-0.0142,-0.0022,0.0011,20.1875,31.5000,27.0625,19.5625,-26.4375,162.5000,0
1776973675.267,9.2225,-0.2011,2.4493,0.1077,-0.0725,0.0560,-69.7500,14.4000,22.2000,9.1626,1.7023,1.2617,-0.3706,0.5375,0.7573,-88.9500,25.5000,33.0000,-4.3600,-2.6100,-8.3900,-0.0142,-0.0022,0.0011,20.1875,31.5000,27.0625,19.5625,-26.4375,162.5000,0
1776973675.276,9.2656,-0.2322,2.1213,0.1236,-0.0520,0.0637,-68.7000,12.9000,21.0000,9.1315,1.8196,1.4509,-0.3512,0.6504,0.7277,-88.0500,23.4000,32.8500,-4.3200,-2.6700,-8.4100,-0.0207,0.0109,-0.0065,20.1875,31.5000,27.0625,19.5625,-26.4375,162.5000,0
1776973675.284,9.2751,0.0311,2.2003,0.1561,-0.0362,0.0719,-68.7000,12.9000,21.0000,9.4236,1.7980,1.4557,-0.3730,0.6214,0.7061,-89.7000,23.2500,33.4500,-4.2900,-2.6900,-8.4200,-0.0338,0.0153,-0.0076,20.1875,31.5000,27.0625,19.5625,-26.4375,162.5000,0
1776973675.289,9.2751,0.0311,2.2003,0.1561,-0.0362,0.0719,-68.7000,12.9000,21.0000,9.2703,1.9297,1.8459,-0.2846,0.5231,0.6912,-89.7000,23.2500,33.4500,-4.2900,-2.6900,-8.4200,-0.0338,0.0153,-0.0076,20.1875,31.5000,27.0625,19.5625,-26.4375,162.5000,0
1776973675.294,9.4739,0.1724,1.9465,0.1593,-0.0216,0.0999,-68.7000,12.9000,21.0000,9.2703,1.9297,1.8459,-0.2846,0.5231,0.6912,-89.7000,23.2500,33.4500,-4.2400,-2.6400,-8.4900,-0.0404,0.0229,-0.0142,20.1875,31.7500,27.0625,19.5000,-26.4375,162.5625,0
1776973675.299,9.4739,0.1724,1.9465,0.1593,-0.0216,0.0999,-69.6000,15.4500,20.5500,8.8825,2.2841,1.5419,-0.2044,0.5540,0.6576,-89.7000,23.2500,33.4500,-4.2400,-2.6400,-8.4900,-0.0404,0.0229,-0.0142,20.1875,31.7500,27.0625,19.5000,-26.4375,162.5625,0
1776973675.303,9.4164,0.5842,2.0446,0.1713,-0.0352,0.1164,-69.6000,15.4500,20.5500,8.8825,2.2841,1.5419,-0.2044,0.5540,0.6576,-89.1000,21.9000,34.9500,-4.2200,-2.7500,-8.3700,-0.0349,0.0262,-0.0164,20.1875,31.7500,27.0625,19.5000,-26.4375,162.5625,0
1776973675.308,9.4164,0.5842,2.0446,0.1713,-0.0352,0.1164,-70.9500,13.9500,21.7500,9.1315,2.2625,2.0518,-0.1948,0.4972,0.6049,-89.1000,21.9000,34.9500,-4.2200,-2.7500,-8.3700,-0.0349,0.0262,-0.0164,20.1875,31.7500,27.0625,19.5000,-26.4375,162.5625,0
1776973675.316,9.4116,0.5243,2.1380,0.1322,-0.0418,0.1226,-70.0500,14.2500,21.6000,9.1315,2.2625,2.0518,-0.1948,0.4972,0.6049,-88.3500,21.9000,34.6500,-4.1800,-2.9100,-8.3200,-0.0447,0.0262,-0.0109,20.1875,31.7500,27.0625,19.5000,-26.3750,162.5625,0
1776973675.321,9.3158,-0.1149,2.5283,0.2145,-0.0477,0.1095,-70.0500,14.2500,21.6000,9.3087,1.8459,1.9130,-0.1162,0.4509,0.5740,-88.3500,21.9000,34.6500,-4.1800,-2.9100,-8.3200,-0.0633,0.0196,-0.0011,20.1875,31.7500,27.0625,19.5000,-26.3750,162.6250,0
1776973675.327,9.3158,-0.1149,2.5283,0.2145,-0.0477,0.1095,-70.8000,15.4500,20.1000,9.2799,2.0303,1.2761,-0.0139,0.4807,0.5947,-89.4000,21.9000,35.4000,-4.0600,-2.9900,-8.3900,-0.0633,0.0196,-0.0011,20.1875,31.7500,27.0625,19.5000,-26.3750,162.6250,0
1776973675.336,9.3757,-0.7207,2.1811,0.2606,-0.0171,0.1340,-70.9500,12.9000,20.2500,9.2919,2.3535,1.4868,0.0695,0.5041,0.6137,-89.2500,21.3000,34.8000,-4.3400,-2.6500,-8.3800,-0.0774,0.0207,0.0076,20.1875,31.7500,27.0625,19.5000,-26.3125,162.6250,0
1776973675.341,9.6869,-0.7805,1.7980,0.2758,-0.0205,0.1649,-70.9500,12.9000,20.2500,9.2919,2.3535,1.4868,0.0695,0.5041,0.6137,-89.7000,21.3000,34.8000,-4.3400,-2.6500,-8.3800,-0.0774,0.0207,0.0076,20.1875,31.7500,27.0625,19.5000,-26.3125,162.6250,0
1776973675.346,9.6869,-0.7805,1.7980,0.2758,-0.0205,0.1649,-69.4500,15.9000,21.7500,9.0644,2.3320,1.7358,0.0669,0.4906,0.6171,-89.7000,21.3000,34.2000,-4.2500,-2.5700,-8.4800,-0.0894,0.0316,0.0055,20.1875,32.1875,28.2500,19.4375,-26.3125,162.6875,0
1776973675.351,9.5600,-0.4214,1.6065,0.1889,0.0061,0.1809,-69.4500,15.9000,21.7500,9.0644,2.3320,1.7358,0.0669,0.4906,0.6171,-89.7000,21.3000,34.2000,-4.2500,-2.5700,-8.4800,-0.0894,0.0316,0.0055,20.1875,32.1875,28.2500,19.4375,-26.3125,162.6875,0
1776973675.356,9.5600,-0.4214,1.6065,0.1889,0.0061,0.1809,-69.4500,15.9000,21.7500,9.0501,1.9034,1.8747,0.1492,0.4972,0.5926,-89.7000,21.3000,34.2000,-4.2600,-2.5100,-8.5200,-0.0807,0.0316,0.0022,20.1875,32.1875,28.2500,19.4375,-26.3125,162.7500,0
1776973675.361,9.4691,-0.2634,1.7334,0.1247,0.0139,0.1807,-69.4500,15.9000,21.7500,9.0501,1.9034,1.8747,0.1492,0.4972,0.5926,-89.7000,21.3000,34.2000,-4.2600,-2.5100,-8.5200,-0.0644,0.0262,-0.0044,20.1875,32.1875,28.2500,19.4375,-26.3125,162.7500,0
1776973675.367,9.2153,0.0024,2.1883,0.1247,0.0139,0.1807,-71.5500,13.5000,21.1500,9.2967,1.2905,1.9656,0.2427,0.4770,0.5860,-90.1500,20.4000,36.7500,-4.1700,-2.6400,-8.5600,-0.0644,0.0262,-0.0044,20.1875,32.1875,28.2500,19.4375,-26.2500,162.8125,0
1776973675.377,9.2033,0.1580,2.4780,0.1652,0.0296,0.1793,-70.8000,13.8000,21.6000,9.3111,1.3982,1.8555,0.3720,0.4509,0.6054,-89.2500,19.8000,35.2500,-4.2300,-2.6600,-8.4600,-0.0502,0.0229,-0.0022,20.1875,32.1875,28.2500,19.4375,-26.2500,162.8125,0
1776973675.387,9.4619,0.4501,2.0159,0.2193,0.0400,0.1836,-70.8000,15.0000,20.8500,9.3637,1.9273,1.8052,0.3858,0.5105,0.5966,-89.2500,19.0500,34.5000,-4.2800,-2.5700,-8.4800,-0.0458,0.0196,-0.0022,20.1875,32.1875,28.2500,19.4375,-26.2500,162.8125,0
1776973675.391,9.4619,0.4501,2.0159,0.2217,0.0216,0.2100,-70.8000,15.0000,20.8500,9.3637,1.9273,1.8052,0.3858,0.5105,0.5966,-87.6000,18.4500,35.4000,-4.2800,-2.5700,-8.4800,-0.0458,0.0196,-0.0022,20.1875,32.1875,28.2500,19.4375,-26.2500,162.8750,0
1776973675.397,9.7731,0.4717,1.8818,0.1935,0.0139,0.2308,-70.2000,14.8500,20.7000,9.5002,2.3966,1.9441,0.2270,0.5057,0.5668,-87.6000,18.4500,35.4000,-4.2700,-2.6100,-8.4200,-0.0469,0.0240,-0.0044,19.8750,32.1875,27.5000,19.4375,-26.2500,162.8750,0
1776973675.401,9.7731,0.4717,1.8818,0.1935,0.0139,0.2308,-70.2000,14.8500,20.7000,9.5002,2.3966,1.9441,0.2270,0.5057,0.5668,-87.6000,18.4500,35.4000,-4.2700,-2.6100,-8.4200,-0.0469,0.0240,-0.0044,19.8750,32.1875,27.5000,19.4375,-26.2500,162.8750,0
1776973675.407,9.7372,0.3687,1.8124,0.1359,0.0115,0.2491,-72.0000,13.2000,21.0000,9.3541,2.2936,1.5371,0.1215,0.5265,0.5348,-87.6000,18.4500,35.4000,-4.0900,-2.7700,-8.4400,-0.0480,0.0196,0.0000,19.8750,32.1875,27.5000,19.4375,-26.2500,162.8750,0
1776973675.412,9.7372,0.3687,1.8124,0.1359,0.0115,0.2491,-72.0000,13.2000,21.0000,9.3541,2.2936,1.5371,0.1215,0.5265,0.5348,-88.5000,17.5500,36.6000,-4.0900,-2.7700,-8.4400,-0.0447,0.0065,0.0087,19.8750,32.1875,27.5000,19.4375,-26.2500,162.8750,0
1776973675.417,9.6917,-0.2322,1.8555,0.0530,0.0280,0.2822,-70.3500,14.2500,21.1500,9.3996,1.6664,1.9441,0.2078,0.4311,0.4839,-88.5000,17.5500,36.6000,-4.0400,-2.8000,-8.4800,-0.0447,0.0065,0.0087,19.8750,32.1875,27.5000,19.4375,-26.2500,162.8750,0
1776973675.426,9.3230,-0.3855,2.5043,0.0677,0.0282,0.3070,-70.3500,14.2500,21.1500,9.2344,1.1181,1.5395,0.3238,0.4199,0.4639,-87.3000,17.4000,36.1500,-4.0500,-2.7500,-8.5000,-0.0404,-0.0098,0.0240,19.8750,32.1875,27.5000,19.4375,-26.1875,162.9375,0
1776973675.431,9.3230,-0.3855,2.5043,0.0677,0.0282,0.3070,-70.3500,14.2500,21.1500,9.2344,1.1181,1.5395,0.3238,0.4199,0.4639,-90.7500,18.3000,36.3000,-4.0500,-2.7500,-8.5000,-0.0404,-0.0262,0.0327,19.8750,32.1875,27.5000,19.4375,-26.2500,162.9375,0
1776973675.438,9.2368,-0.4142,2.4780,0.0520,0.0568,0.3323,-69.7500,14.4000,22.9500,8.9304,0.8691,1.6233,0.3235,0.3957,0.4479,-90.7500,18.3000,36.3000,-4.3100,-2.5600,-8.4100,-0.0404,-0.0262,0.0327,19.8750,32.1875,27.5000,19.4375,-26.2500,162.9375,0
1776973675.442,9.2368,-0.4142,2.4780,0.0520,0.0568,0.3323,-69.7500,14.4000,22.9500,9.3901,0.6081,2.0590,0.1804,0.3781,0.4482,-87.1500,17.5500,35.2500,-4.3100,-2.5600,-8.4100,-0.0404,-0.0262,0.0327,21.3750,31.7500,26.7500,19.4375,-26.2500,163.0000,0
1776973675.447,9.2177,-0.3328,2.1093,0.0485,0.0413,0.3421,-69.7500,14.4000,22.9500,9.3901,0.6081,2.0590,0.1804,0.3781,0.4482,-87.1500,17.5500,35.2500,-4.2600,-2.6200,-8.4600,-0.0469,-0.0251,0.0360,21.3750,31.7500,26.7500,19.4375,-26.2500,163.0000,0
1776973675.452,9.2177,-0.3328,2.1093,0.0485,0.0413,0.3421,-69.7500,14.4000,22.9500,9.3422,0.5578,2.1620,0.0970,0.4253,0.4684,-89.1000,16.6500,37.8000,-4.2600,-2.6200,-8.4600,-0.0469,-0.0251,0.0360,21.3750,31.7500,26.7500,19.4375,-26.2500,163.0000,0
1776973675.457,9.3015,-0.5339,2.1021,0.0509,0.0805,0.3384,-70.8000,14.5500,19.8000,9.3422,0.5578,2.1620,0.0970,0.4253,0.4684,-89.1000,16.6500,37.8000,-4.2900,-2.6400,-8.4100,-0.0535,-0.0175,0.0316,21.3750,31.7500,26.7500,19.4375,-26.2500,163.0000,0
1776973675.462,9.3015,-0.5339,2.1021,0.0509,0.0805,0.3384,-70.8000,14.5500,19.8000,9.5840,0.9649,2.0997,0.0192,0.4109,0.4772,-89.1000,16.6500,37.8000,-4.2900,-2.6400,-8.4100,-0.0633,-0.0120,0.0338,21.3750,31.7500,26.7500,19.4375,-26.2500,163.0625,0
1776973675.468,9.6391,-0.7135,1.8028,0.0376,0.0693,0.3573,-70.5000,14.4000,22.2000,9.5840,0.9649,2.0997,0.0192,0.4109,0.4772,-89.1000,16.6500,37.8000,-4.2200,-2.5400,-8.5300,-0.0633,-0.0120,0.0338,21.3750,31.7500,26.7500,19.4375,-26.2500,163.1250,0
1776973675.477,9.4954,-0.6105,1.8627,0.0211,0.0703,0.3728,-70.5000,14.4000,22.2000,9.5098,1.4748,2.3224,-0.1527,0.3595,0.4604,-87.0000,16.2000,35.7000,-4.2200,-2.4900,-8.5200,-0.0600,-0.0098,0.0305,21.3750,31.7500,26.7500,19.4375,-26.2500,163.1250,0
1776973675.484,9.5074,-0.1676,1.9297,-0.0067,0.0805,0.3941,-69.6000,13.8000,20.8500,9.2775,1.6831,2.0327,-0.2915,0.3986,0.4469,-87.1500,16.5000,36.6000,-4.2300,-2.5000,-8.5600,-0.0491,-0.0153,0.0316,21.3750,31.7500,26.7500,19.5000,-26.2500,163.1250,0
1776973675.489,9.5074,-0.1676,1.9297,-0.0067,0.0805,0.3941,-71.7000,14.8500,19.9500,9.2775,1.6831,2.0327,-0.2915,0.3986,0.4469,-87.1500,16.5000,36.6000,-4.2300,-2.5000,-8.5600,-0.0491,-0.0153,0.0316,21.3750,31.7500,26.7500,19.5000,-26.2500,163.1250,0
1776973675.494,9.5217,0.2682,2.1380,-0.0605,0.0946,0.4194,-71.7000,14.8500,19.9500,9.3063,1.7047,2.1931,-0.2923,0.3512,0.4365,-86.4000,15.0000,35.8500,-4.2200,-2.4500,-8.5500,-0.0349,-0.0229,0.0284,19.1875,31.0625,27.8750,19.5000,-26.3125,163.1875,0
1776973675.499,9.5217,0.2682,2.1380,-0.0605,0.0946,0.4194,-71.7000,14.8500,19.9500,9.3063,1.7047,2.1931,-0.2923,0.3512,0.4365,-86.5500,15.0000,35.8500,-4.2200,-2.4500,-8.5500,-0.0349,-0.0229,0.0284,19.1875,31.0625,27.8750,19.5000,-26.3125,163.1875,0
1776973675.503,9.6199,0.5004,2.2003,-0.0794,0.0879,0.4317,-71.7000,14.8500,19.9500,9.5313,1.7717,2.2266,-0.2105,0.3208,0.4050,-86.5500,14.7000,36.7500,-4.1300,-2.7000,-8.4300,-0.0207,-0.0284,0.0295,19.1875,31.0625,27.8750,19.5000,-26.3125,163.1875,0
1776973675.508,9.6199,0.5004,2.2003,-0.0794,0.0879,0.4317,-71.1000,12.3000,20.8500,9.5313,1.7717,2.2266,-0.2105,0.3208,0.4050,-86.5500,14.7000,36.7500,-4.1300,-2.7000,-8.4300,-0.0207,-0.0284,0.0295,19.1875,31.0625,27.8750,19.5000,-26.3125,163.1875,0
1776973675.513,9.6486,0.2179,1.9896,-0.0706,0.0759,0.4466,-71.1000,12.3000,20.8500,9.5720,1.8100,2.2386,-0.2292,0.3784,0.3800,-86.5500,14.7000,36.7500,-4.1100,-2.7500,-8.4100,-0.0240,-0.0404,0.0393,19.1875,31.0625,27.8750,19.5000,-26.3125,163.1875,0
1776973675.518,9.6486,0.2179,1.9896,-0.0706,0.0759,0.4466,-71.1000,12.3000,20.8500,9.5720,1.8100,2.2386,-0.2292,0.3784,0.3800,-86.5500,14.7000,36.7500,-4.1100,-2.7500,-8.4100,-0.0240,-0.0404,0.0393,19.1875,31.0625,27.8750,19.5000,-26.3750,163.1875,0
1776973675.527,9.7061,-0.4956,1.8914,-0.0962,0.0818,0.4834,-71.1000,12.3000,20.8500,9.2823,1.5323,2.2410,-0.1660,0.4005,0.3555,-86.4000,14.2500,36.6000,-4.2200,-2.5200,-8.5100,-0.0284,-0.0545,0.0458,19.1875,31.0625,27.8750,19.5000,-26.3750,163.1875,0
1776973675.533,9.6726,-0.7302,1.9273,-0.1444,0.0914,0.5247,-71.1000,11.1000,21.1500,9.3996,1.0606,1.6209,-0.1498,0.3126,0.3491,-86.4000,15.0000,37.3500,-4.1400,-2.6100,-8.5700,-0.0262,-0.0458,0.0469,19.1875,31.0625,27.8750,19.5625,-26.3750,163.2500,0
1776973675.538,9.6726,-0.7302,1.9273,-0.1444,0.0914,0.5247,-70.0500,12.3000,21.1500,9.3996,1.0606,1.6209,-0.1498,0.3126,0.3491,-86.4000,15.0000,37.3500,-4.1400,-2.6100,-8.5700,-0.0262,-0.0458,0.0469,19.1875,31.0625,27.8750,19.5625,-26.3750,163.2500,0
1776973675.543,9.3182,-0.5938,1.9968,-0.1729,0.1132,0.5537,-70.0500,12.3000,21.1500,9.3134,0.7111,1.2306,-0.1897,0.3325,0.3269,-86.5500,15.4500,36.7500,-4.2700,-2.4600,-8.5500,-0.0207,-0.0436,0.0491,19.8750,32.1875,28.2500,19.5625,-26.3750,163.2500,0
1776973675.548,9.3182,-0.5938,1.9968,-0.1729,0.1132,0.5537,-70.5000,12.4500,22.2000,9.3134,0.7111,1.2306,-0.1897,0.3325,0.3269,-87.3000,13.6500,37.5000,-4.2700,-2.4600,-8.5500,-0.0207,-0.0436,0.0491,19.8750,32.1875,28.2500,19.5625,-26.3750,163.2500,0
1776973675.553,9.2105,-0.5363,1.9776,-0.1479,0.1362,0.5782,-70.5000,12.4500,22.2000,9.2991,0.6584,1.6161,-0.1791,0.3246,0.3054,-87.3000,13.6500,37.5000,-4.2700,-2.4600,-8.5500,-0.0153,-0.0469,0.0480,19.8750,32.1875,28.2500,19.5625,-26.4375,163.2500,0
1776973675.558,9.2105,-0.5363,1.9776,-0.1479,0.1362,0.5782,-70.5000,12.4500,22.2000,9.2991,0.6584,1.6161,-0.1791,0.3246,0.3054,-86.7000,12.7500,39.4500,-4.3500,-2.4500,-8.4800,-0.0153,-0.0469,0.0480,19.8750,32.1875,28.2500,19.5625,-26.4375,163.2500,0
1776973675.563,9.1482,-0.3687,2.1069,-0.1657,0.1764,0.5804,-70.5000,11.2500,21.7500,9.4116,0.6440,1.6305,-0.2486,0.2670,0.2838,-86.7000,12.7500,39.4500,-4.3500,-2.4500,-8.4800,-0.0087,-0.0415,0.0458,19.8750,32.1875,28.2500,19.6250,-26.4375,163.3125,0
1776973675.568,9.1482,-0.3687,2.1069,-0.1657,0.1764,0.5804,-72.3000,11.1000,21.7500,9.4116,0.6440,1.6305,-0.2928,0.1924,0.2537,-86.7000,12.7500,39.4500,-4.2800,-2.5200,-8.4700,-0.0087,-0.0415,0.0458,19.8750,32.1875,28.2500,19.6250,-26.5000,163.3125,0
1776973675.577,9.5241,-0.5028,1.9225,-0.2110,0.1796,0.6038,-72.3000,11.1000,21.1500,9.4020,0.9266,1.9321,-0.2928,0.1924,0.2537,-86.7000,12.7500,39.4500,-4.2600,-2.5700,-8.4600,-0.0131,-0.0349,0.0458,19.8750,32.1875,28.2500,19.6250,-26.5000,163.3125,0
1776973675.583,9.6007,-0.7973,2.1715,-0.2169,0.1665,0.6163,-70.0500,10.6500,21.1500,9.4571,1.1109,2.2218,-0.3930,0.1801,0.2321,-87.6000,12.4500,36.7500,-4.2200,-2.5500,-8.4600,-0.0076,-0.0349,0.0491,19.8750,32.1875,28.2500,19.6250,-26.5000,163.3125,0
1776973675.588,9.5744,-1.0726,2.3439,-0.2169,0.1665,0.6163,-70.0500,10.6500,21.1500,9.2536,1.3360,2.2817,-0.4370,0.1985,0.2254,-85.5000,12.1500,38.5500,-4.2200,-2.5500,-8.4600,-0.0076,-0.0349,0.0491,19.8750,32.1875,28.2500,19.6250,-26.5000,163.3125,0
1776973675.593,9.5744,-1.0726,2.3439,-0.1945,0.1735,0.6344,-70.0500,10.6500,21.1500,9.2536,1.3360,2.2817,-0.4370,0.1985,0.2254,-85.5000,12.1500,38.5500,-4.2200,-2.6000,-8.5100,-0.0022,-0.0404,0.0545,20.1875,31.7500,26.7500,19.6875,-26.5000,163.3125,0
1776973675.598,9.5696,-0.9792,2.3918,-0.1945,0.1735,0.6344,-70.0500,10.6500,21.1500,9.1099,1.4389,2.5067,-0.4994,0.2308,0.2270,-85.9500,10.8000,38.1000,-4.2200,-2.6000,-8.5100,-0.0022,-0.0404,0.0545,20.1875,31.7500,26.7500,19.6875,-26.5000,163.3125,0
1776973675.603,9.5696,-0.9792,2.3918,-0.1996,0.1743,0.6571,-69.7500,10.9500,22.2000,9.1099,1.4389,2.5067,-0.4994,0.2308,0.2270,-85.9500,10.8000,38.1000,-4.2900,-2.4600,-8.5900,0.0044,-0.0502,0.0589,20.1875,31.7500,26.7500,19.6875,-26.5625,163.3125,0
1776973675.608,9.5409,-0.6847,2.7390,-0.2289,0.1631,0.6811,-69.7500,10.9500,22.2000,8.9423,1.2833,2.5762,-0.4191,0.3011,0.2435,-85.6500,10.5000,36.6000,-4.2900,-2.4600,-8.5900,0.0044,-0.0502,0.0589,20.1875,31.7500,26.7500,19.6875,-26.5625,163.3125,0
1776973675.613,9.5409,-0.6847,2.7390,-0.2289,0.1631,0.6811,-70.8000,10.6500,22.3500,8.9423,1.2833,2.5762,-0.4191,0.3011,0.2435,-85.6500,10.5000,36.6000,-4.2900,-2.4600,-8.5900,0.0207,-0.0425,0.0578,20.1875,31.7500,26.7500,19.7500,-26.5625,163.3125,0
1776973675.618,9.6558,-0.5986,2.7078,-0.3040,0.1524,0.6757,-70.8000,10.6500,22.3500,9.2871,1.1923,3.1029,-0.3461,0.3072,0.2614,-85.6500,10.5000,36.6000,-4.2200,-2.5200,-8.5400,0.0207,-0.0425,0.0578,20.1875,31.7500,26.7500,19.7500,-26.5625,163.3125,0
1776973675.627,9.6534,-1.1061,2.5307,-0.3040,0.1524,0.6757,-69.7500,9.7500,22.9500,9.1842,1.0439,3.1173,-0.2510,0.2846,0.2990,-85.6500,10.5000,36.6000,-4.3200,-2.6100,-8.5100,0.0295,-0.0545,0.0622,20.1875,31.7500,26.7500,19.7500,-26.6250,163.3125,0
1776973675.632,9.6534,-1.1061,2.5307,-0.2662,0.1412,0.6856,-70.9500,9.7500,22.2000,9.1842,1.0439,3.1173,-0.2510,0.2846,0.2990,-84.9000,10.8000,38.4000,-4.3200,-2.6100,-8.5100,0.0415,-0.0545,0.0665,20.1875,31.7500,26.7500,19.8125,-26.6250,163.3125,0
1776973675.638,9.7133,-1.8842,2.6647,-0.2244,0.1482,0.7021,-70.9500,9.7500,22.2000,9.2249,0.9313,2.7390,-0.1282,0.2963,0.3355,-84.7500,9.4500,36.7500,-4.1800,-2.7300,-8.5700,0.0415,-0.0545,0.0665,20.1875,31.7500,26.7500,19.8125,-26.6250,163.3125,0
1776973675.643,9.7133,-1.8842,2.6647,-0.2244,0.1482,0.7021,-70.9500,9.7500,22.2000,9.2249,0.9313,2.7390,-0.1282,0.2963,0.3355,-84.7500,9.4500,36.7500,-4.1800,-2.7300,-8.5700,0.0415,-0.0545,0.0665,19.8750,31.5000,28.2500,19.8125,-26.6875,163.3125,0
1776973675.648,9.6750,-2.1907,2.6647,-0.2494,0.1359,0.7261,-70.9500,9.7500,22.2000,9.3015,0.9122,2.8180,-0.0565,0.2809,0.3613,-85.9500,9.7500,37.3500,-4.1400,-2.7400,-8.5800,0.0305,-0.0785,0.0731,19.8750,31.5000,28.2500,19.8125,-26.6875,163.3125,0
1776973675.653,9.6750,-2.1907,2.6647,-0.2494,0.1359,0.7261,-69.1500,10.3500,21.9000,9.3015,0.9122,2.8180,-0.0565,0.2809,0.3613,-85.9500,9.7500,37.3500,-4.1400,-2.7400,-8.5800,0.0305,-0.0785,0.0731,19.8750,31.5000,28.2500,19.8750,-26.7500,163.3125,0
1776973675.658,9.6702,-2.0734,2.7916,-0.2923,0.1188,0.7333,-69.1500,10.3500,21.9000,9.5672,0.8045,3.0550,-0.0466,0.3099,0.3664,-84.4500,9.4500,39.0000,-4.1900,-2.5600,-8.6300,0.0349,-0.0774,0.0698,19.8750,31.5000,28.2500,19.8750,-26.7500,163.3125,0
1776973675.663,9.6702,-2.0734,2.7916,-0.2923,0.1188,0.7333,-69.1500,10.3500,21.9000,9.5672,0.8045,3.0550,-0.0466,0.3099,0.3664,-84.4500,9.4500,39.0000,-4.1900,-2.5600,-8.6300,0.0524,-0.0971,0.0665,19.8750,31.5000,28.2500,19.9375,-26.7500,163.3125,0
1776973675.668,9.8067,-1.8268,2.5642,-0.2689,0.1255,0.7357,-69.1500,10.3500,21.9000,9.7707,0.8882,3.4764,-0.0488,0.3493,0.3752,-85.5000,8.4000,37.2000,-4.2200,-2.4200,-8.7700,0.0524,-0.0971,0.0665,19.8750,31.5000,28.2500,19.9375,-26.8125,163.2500,0
1776973675.677,10.1347,-1.7214,2.0279,-0.2124,0.1215,0.7413,-70.5000,9.0000,19.9500,9.8402,0.9888,3.6488,-0.1108,0.4002,0.3922,-85.5000,8.4000,37.2000,-3.8100,-2.1600,-9.2000,0.0807,-0.1222,0.0654,19.8750,31.5000,28.2500,20.0000,-26.9375,163.1875,0
1776973675.687,10.0987,-1.7334,2.2266,-0.1820,0.1223,0.7618,-70.5000,9.0000,19.9500,9.6702,1.1779,3.5362,0.0514,0.4175,0.4056,-84.0000,8.7000,39.0000,-4.2500,-2.5000,-8.8200,0.1244,-0.1669,0.0709,19.8750,31.5000,28.2500,20.0000,-26.9375,163.1875,0
1776973675.692,10.0987,-1.7334,2.2266,-0.1820,0.1223,0.7618,-69.6000,6.4500,23.1000,9.6702,1.1779,3.5362,0.0514,0.4175,0.4056,-84.0000,8.7000,39.0000,-4.2500,-2.5000,-8.8200,0.1244,-0.1669,0.0709,19.8750,31.5000,28.2500,20.0625,-27.0625,163.0625,0
1776973675.697,9.9862,-1.6544,2.4684,-0.1788,0.1039,0.7725,-69.6000,6.4500,23.1000,9.5193,1.3599,3.3974,0.0642,0.4980,0.4005,-85.0500,8.4000,37.8000,-4.1100,-2.5000,-8.8600,0.1713,-0.2203,0.0753,21.0000,31.0625,28.2500,20.0625,-27.0625,163.0625,0
1776973675.702,9.9862,-1.6544,2.4684,-0.1788,0.1039,0.7725,-69.1500,6.7500,21.6000,9.5193,1.3599,3.3974,0.0642,0.4980,0.4005,-85.0500,8.4000,37.8000,-4.1100,-2.5000,-8.8600,0.1713,-0.2203,0.0753,21.0000,31.0625,28.2500,20.0625,-27.2500,163.0000,0
1776973675.707,10.0916,-1.4078,2.1979,-0.2062,0.0941,0.7970,-69.1500,6.7500,21.6000,9.8569,1.5107,3.3016,0.1447,0.4852,0.3842,-84.6000,9.0000,38.4000,-4.0800,-2.5200,-8.9500,0.1985,-0.2836,0.0829,21.0000,31.0625,28.2500,20.0625,-27.2500,163.0000,0
1776973675.715,10.2137,-1.1253,2.1308,-0.2697,0.0949,0.8202,-70.2000,6.6000,22.5000,10.1778,1.6424,3.2274,0.1759,0.5271,0.3504,-83.7000,7.9500,39.3000,-4.1100,-2.3000,-9.1400,0.2040,-0.3589,0.0764,21.0000,31.0625,28.2500,20.1250,-27.4375,162.8750,0
1776973675.720,10.2137,-1.1253,2.1308,-0.2697,0.0949,0.8202,-70.2000,6.9000,21.7500,10.1778,1.6424,3.2274,0.1759,0.5271,0.3504,-83.7000,7.9500,39.3000,-4.1100,-2.3000,-9.1400,0.2040,-0.3589,0.0764,21.0000,31.0625,28.2500,20.1875,-27.5625,162.7500,0
1776973675.728,10.4052,-0.8092,2.3559,-0.3035,0.1242,0.8561,-70.2000,6.9000,21.7500,10.0844,1.5610,2.6767,0.2518,0.4940,0.3277,-83.7000,7.9500,39.3000,-4.0100,-2.9100,-9.0000,0.2247,-0.4080,0.0851,21.0000,31.0625,28.2500,20.2500,-27.8125,162.6250,0
1776973675.738,10.8098,-0.3855,2.0087,-0.3672,0.1146,0.9212,-69.4500,4.9500,22.5000,9.9671,1.2282,2.2865,0.5220,0.3704,0.3214,-81.1500,7.6500,39.0000,-3.9800,-3.0800,-9.0800,0.2422,-0.4647,0.1124,21.0000,31.0625,28.2500,20.2500,-27.8125,162.6250,0
1776973675.742,11.2360,-0.7757,1.3910,-0.3672,0.1146,0.9212,-69.0000,5.8500,22.9500,10.7308,1.3958,1.8364,0.7155,0.1378,0.3251,-81.1500,7.6500,39.0000,-3.9800,-3.0800,-9.0800,0.2422,-0.4647,0.1124,21.0000,31.0625,28.2500,20.3125,-28.1250,162.4375,0
1776973675.747,11.2360,-0.7757,1.3910,-0.4778,0.1005,0.9926,-69.0000,5.8500,22.9500,10.7308,1.3958,1.8364,0.7155,0.1378,0.3251,-81.9000,7.9500,38.5500,-3.8200,-3.2700,-9.2400,0.2422,-0.5509,0.1440,21.3750,31.0625,27.8750,20.3125,-28.1250,162.4375,0
1776973675.752,11.1594,-1.3910,1.4293,-0.4631,0.1287,1.0493,-69.0000,5.8500,22.9500,10.8888,1.7621,1.3599,0.8881,-0.0253,0.3064,-81.9000,7.9500,38.5500,-3.8200,-3.2700,-9.2400,0.2422,-0.5509,0.1440,21.3750,31.0625,27.8750,20.3750,-28.5000,162.3125,0
1776973675.757,11.1594,-1.3910,1.4293,-0.4631,0.1287,1.0493,-69.0000,5.8500,22.9500,10.8888,1.7621,1.3599,0.8881,-0.0253,0.3064,-83.2500,7.9500,40.0500,-3.8700,-3.4100,-9.2700,0.1920,-0.6709,0.1745,21.3750,31.0625,27.8750,20.3750,-28.5000,162.3125,0
1776973675.762,11.3198,-1.3360,1.2091,-0.3960,0.1588,1.1309,-69.1500,3.6000,21.9000,11.0373,2.1859,1.1516,0.8527,-0.0384,0.2779,-83.2500,7.9500,40.0500,-3.8700,-3.4100,-9.2700,0.1298,-0.8159,0.2280,21.3750,31.0625,27.8750,20.4375,-29.0000,162.2500,0
1776973675.768,11.3198,-1.3360,1.2091,-0.3960,0.1588,1.1309,-69.1500,3.6000,21.9000,11.0373,2.1859,1.1516,0.8527,-0.0384,0.2779,-83.7000,7.6500,38.5500,-3.7000,-3.4000,-9.3800,0.1298,-0.8159,0.2280,21.3750,31.0625,27.8750,20.5625,-29.5625,162.1875,0
1776973675.777,11.3509,-0.7230,0.7590,-0.3741,0.1671,1.2084,-69.4500,3.4500,22.2000,11.1402,2.5690,1.2330,0.5566,-0.0144,0.2161,-83.1000,8.5500,38.4000,-4.0200,-2.7300,-9.6300,0.0971,-1.0003,0.2891,21.3750,31.0625,27.8750,20.5625,-29.5625,162.1875,0
1776973675.787,11.3413,-0.3136,0.3328,-0.3421,0.1919,1.2665,-68.8500,2.4000,23.8500,10.9487,2.8994,1.2881,0.4269,-0.2166,0.1204,-83.1000,8.5500,38.4000,-3.6400,-2.7800,-9.8000,0.0371,-1.2392,0.3698,21.3750,31.0625,27.8750,20.6875,-30.3125,162.1875,0
1776973675.792,11.3581,-0.3017,0.5507,-0.3219,0.2158,1.3126,-69.6000,2.4000,22.3500,10.9654,3.2465,1.6065,0.3254,-0.2206,0.0410,-83.1000,8.5500,38.4000,-3.6400,-2.7800,-9.8000,0.0371,-1.2392,0.3698,21.3750,31.0625,27.8750,20.6875,-30.3125,162.1875,0
1776973675.797,11.3581,-0.3017,0.5507,-0.3219,0.2158,1.3126,-69.6000,2.4000,22.3500,10.9654,3.2465,1.6065,0.3254,-0.2206,0.0410,-82.9500,7.6500,37.5000,-4.0300,-2.6300,-9.4000,0.0022,-1.4563,0.4440,21.3750,31.5000,25.5625,20.8125,-31.1250,162.1875,0
1776973675.802,11.4634,0.0455,0.3328,-0.2403,0.2142,1.3965,-70.2000,0.7500,23.2500,11.2264,3.6966,1.6352,0.3872,-0.3142,-0.0448,-82.9500,7.6500,37.5000,-4.0300,-2.6300,-9.4000,0.0022,-1.4563,0.4440,21.3750,31.5000,25.5625,20.8125,-31.1250,162.1875,0
1776973675.807,11.4634,0.0455,0.3328,-0.2403,0.2142,1.3965,-70.2000,0.7500,23.2500,11.2264,3.6966,1.6352,0.3872,-0.3142,-0.0448,-83.2500,7.2000,39.0000,-3.8100,-2.2200,-9.6000,0.0218,-1.6362,0.5345,21.3750,31.5000,25.5625,20.9375,-32.1250,162.1250,0
1776973675.816,11.2504,0.5315,-0.0742,-0.1927,0.2731,1.5015,-69.1500,0.9000,24.1500,10.7356,4.1994,1.3671,0.5769,-0.5017,-0.1274,-83.2500,7.2000,37.5000,-3.8500,-2.7500,-9.4500,0.1036,-1.8250,0.6294,21.3750,31.5000,25.5625,21.1875,-33.1875,162.1250,0
1776973675.821,12.2751,1.1588,-0.4645,-0.1895,0.2755,1.6593,-69.1500,0.9000,24.1500,10.5896,4.5514,0.7949,0.7107,-0.5529,-0.2073,-83.2500,7.2000,37.5000,-3.8500,-2.7500,-9.4500,0.1036,-1.8250,0.6294,21.3750,31.5000,25.5625,21.4375,-34.3750,162.0625,0
1776973675.828,12.2751,1.1588,-0.4645,-0.1895,0.2755,1.6593,-69.1500,0.9000,24.1500,10.5896,4.5514,0.7949,0.7107,-0.5529,-0.2073,-84.9000,7.0500,37.3500,-3.7300,-3.1000,-9.8200,0.1440,-2.0420,0.7461,21.3750,31.5000,25.5625,21.8125,-35.7500,162.0625,0
1776973675.838,12.1625,2.7150,-1.8459,-0.2174,0.2886,1.8018,-68.2500,-1.5000,24.0000,10.8649,4.5897,-1.1612,0.8809,-0.8505,-0.2923,-84.9000,7.0500,37.3500,-3.8100,-3.4400,-9.6000,0.1309,-2.2864,0.8792,21.3750,31.5000,25.5625,21.8125,-35.7500,162.0625,0
1776973675.843,12.1625,2.7150,-1.8459,-0.3110,0.3187,1.9140,-68.2500,-1.5000,24.0000,9.9599,3.4740,-1.2929,1.3840,-1.2993,-0.3973,-84.9000,7.0500,37.3500,-3.8100,-3.4400,-9.6000,0.1309,-2.2864,0.8792,23.1875,31.0625,25.0625,22.1875,-37.2500,162.0625,0
1776973675.848,11.9135,2.2601,-1.8196,-0.3110,0.3187,1.9140,-68.2500,-1.5000,24.0000,9.9599,3.4740,-1.2929,1.3840,-1.2993,-0.3973,-85.3500,7.8000,35.5500,-3.9700,-3.9500,-9.5000,0.0971,-2.5438,1.0385,23.1875,31.0625,25.0625,22.1875,-37.2500,162.0625,0
1776973675.853,11.9135,2.2601,-1.8196,-0.4167,0.3246,1.9574,-68.1000,-3.3000,24.9000,9.5002,3.7781,0.4693,2.0243,-1.2716,-0.3653,-85.3500,7.8000,35.5500,-3.9700,-3.9500,-9.5000,0.0971,-2.5438,1.0385,23.1875,31.0625,25.0625,22.6250,-38.9375,162.1875,0
1776973675.858,11.3365,1.3551,-1.4485,-0.4167,0.3246,1.9574,-68.1000,-3.3000,24.9000,9.5002,3.7781,0.4693,2.0243,-1.2716,-0.3653,-86.2500,7.6500,34.3500,-4.1400,-4.9100,-9.4300,0.0055,-2.7893,1.2326,23.1875,31.0625,25.0625,22.6250,-38.9375,162.1875,0
1776973675.864,11.3365,1.3551,-1.4485,-0.2982,0.3898,1.9625,-68.1000,-2.1000,23.1000,10.2161,4.4580,-0.0311,1.8130,-1.3150,-0.3509,-85.3500,10.8000,32.7000,-4.0700,-5.3000,-9.3700,-0.1549,-3.0707,1.4912,23.1875,31.0625,25.0625,23.2500,-40.8125,162.5000,0
1776973675.869,11.4539,0.7398,-0.9673,-0.1434,0.4716,1.9814,-68.1000,-2.1000,23.1000,10.7643,4.3287,-1.0439,1.7176,-1.3952,-0.4660,-85.3500,10.8000,32.7000,-4.0700,-5.3000,-9.3700,-0.1549,-3.0707,1.4912,23.1875,31.0625,25.0625,58.6250,-42.8750,163.0625,0
1776973675.878,11.4467,0.3089,-0.1101,-0.0973,0.5457,1.9966,-67.2000,-5.4000,24.7500,10.5776,3.8307,-0.9888,1.5966,-1.5303,-0.5950,-85.8000,10.6500,32.5500,-4.6100,-5.2800,-9.3700,-0.3272,-3.3925,1.7966,23.1875,31.0625,25.0625,58.6250,-42.8750,163.0625,0
1776973675.888,11.4395,-0.3041,0.5650,-0.1071,0.5710,1.9857,-68.1000,-4.8000,24.1500,10.3573,3.1268,-0.1437,1.6385,-1.7387,-0.7088,-86.4000,10.8000,33.0000,-5.3300,-4.8400,-9.4800,-0.4800,-3.7023,2.1315,23.1875,31.0625,25.0625,55.5000,-45.1875,163.8750,0
1776973675.892,11.4395,-0.3041,0.5650,-0.1071,0.5710,1.9857,-68.1000,-6.7500,24.6000,10.3573,3.1268,-0.1437,1.6385,-1.7387,-0.7088,-86.4000,10.8000,33.0000,-5.3300,-4.8400,-9.4800,-0.4800,-3.7023,2.1315,23.1875,31.0625,25.0625,55.5000,-45.1875,163.8750,0
1776973675.898,10.6997,-0.7853,1.8387,-0.0037,0.5257,1.9670,-68.1000,-6.7500,24.6000,9.8090,2.5139,0.7159,1.8357,-1.8447,-0.7818,-86.4000,10.8000,33.0000,-6.2400,-4.0800,-9.5500,-0.5661,-4.0055,2.4162,27.1875,30.3750,22.7500,52.2500,-47.6875,164.8750,0
1776973675.902,10.6997,-0.7853,1.8387,-0.0037,0.5257,1.9670,-65.5500,-8.1000,24.3000,9.8090,2.5139,0.7159,1.8357,-1.8447,-0.7818,-85.9500,12.7500,28.8000,-6.2400,-4.0800,-9.5500,-0.5661,-4.0055,2.4162,27.1875,30.3750,22.7500,52.2500,-47.6875,164.8750,0
1776973675.908,9.7372,-1.4198,3.0023,0.0434,0.4970,1.9518,-65.5500,-8.1000,24.3000,9.2368,1.6376,1.2689,1.8818,-1.7504,-0.8002,-85.9500,12.7500,28.8000,-9.1500,-3.6900,-9.9600,-0.6709,-4.2291,2.5929,27.1875,30.3750,22.7500,49.0000,-50.3125,166.1875,0
1776973675.914,9.7372,-1.4198,3.0023,0.0434,0.4970,1.9518,-65.5500,-8.1000,24.3000,9.2368,1.6376,1.2689,1.8818,-1.7504,-0.8002,-87.3000,13.6500,29.2500,-10.4600,-2.6900,-10.2700,-0.7974,-4.3895,2.6071,27.1875,30.3750,22.7500,45.8125,-53.0000,167.7500,0
1776973675.919,9.0237,-2.3367,3.8906,0.1753,0.4692,1.9276,-65.5500,-8.1000,24.3000,9.6343,1.0032,1.6592,1.8679,-1.8189,-0.8370,-87.3000,13.6500,29.2500,-10.4600,-2.6900,-10.2700,-0.7974,-4.3895,2.6071,27.1875,30.3750,22.7500,42.9375,-55.6875,169.4375,0
1776973675.928,8.5114,-3.2034,4.7405,0.5380,0.4450,1.8922,-64.3500,-9.4500,23.8500,10.0030,0.7446,1.8651,1.8642,-2.0430,-0.8932,-88.0500,12.1500,29.2500,-10.6200,-3.4500,-10.0200,-0.8018,-4.4102,2.5089,27.1875,30.3750,22.7500,40.1875,-58.3125,171.3750,0
1776973675.938,8.0589,-3.4261,5.3319,0.9014,0.5020,1.8644,-63.9000,-8.7000,26.1000,10.0892,0.5148,2.1021,1.7714,-2.0883,-0.9619,-87.0000,13.9500,26.8500,-13.1500,-5.4500,-10.6000,-0.9588,-4.3208,2.3922,27.1875,30.3750,22.7500,40.1875,-58.3125,171.3750,0
1776973675.943,8.0589,-3.4261,5.3319,0.9014,0.5020,1.8644,-63.4500,-9.1500,24.6000,10.0892,0.5148,2.1021,1.7714,-2.0883,-0.9619,-87.0000,13.9500,26.8500,-13.1500,-5.4500,-10.6000,-0.9588,-4.3208,2.3922,27.1875,30.3750,22.7500,37.4375,-60.6875,173.6250,0
1776973675.948,8.1714,-3.9241,4.5945,1.2372,0.5076,1.8165,-63.4500,-9.1500,24.6000,10.3573,0.5052,2.2218,1.7064,-2.1250,-1.0142,-87.0000,13.9500,26.8500,-12.3300,-5.2800,-10.1200,-1.2774,-4.0459,2.2329,33.5000,24.8750,17.6875,37.4375,-60.6875,173.6250,0
1776973675.953,8.1714,-3.9241,4.5945,1.2372,0.5076,1.8165,-63.1500,-11.4000,27.1500,10.3573,0.5052,2.2218,1.7064,-2.1250,-1.0142,-88.0500,14.4000,25.8000,-12.3300,-5.2800,-10.1200,-1.2774,-4.0459,2.2329,33.5000,24.8750,17.6875,34.6250,-62.8125,176.3750,0
1776973675.958,8.3582,-4.2737,4.2258,1.6462,0.4415,1.7147,-63.1500,-11.4000,27.1500,11.1570,0.5267,2.6815,1.4631,-1.9724,-1.0677,-88.0500,14.4000,25.8000,-10.0900,-5.2300,-9.6500,-1.6417,-3.6848,2.0584,33.5000,24.8750,17.6875,34.6250,-62.8125,176.3750,0
1776973675.963,8.4970,-5.2194,4.3910,1.6462,0.4415,1.7147,-62.5500,-11.7000,25.5000,11.1570,0.5267,2.6815,1.4631,-1.9724,-1.0677,-88.3500,16.9500,24.7500,-10.0900,-5.2300,-9.6500,-1.9210,-3.4590,1.9155,33.5000,24.8750,17.6875,31.7500,-64.7500,179.4375,0
1776973675.969,8.4970,-5.2194,4.3910,1.9295,0.5249,1.6089,-62.5500,-11.7000,25.5000,12.0787,-0.2322,3.1795,0.9928,-1.7749,-1.1106,-88.3500,16.9500,24.7500,-7.8500,-4.7500,-9.1300,-1.9210,-3.4590,1.9155,33.5000,24.8750,17.6875,28.9375,-66.6875,-177.0000,0
1776973675.978,8.9112,-5.7365,5.1571,2.4568,0.4631,1.5863,-62.2500,-9.3000,26.5500,12.7779,-0.3448,3.7948,0.8092,-1.7560,-1.1410,-88.5000,18.7500,24.1500,-4.8500,-3.9800,-8.3200,-2.1457,-3.4732,1.7988,33.5000,24.8750,17.6875,28.9375,-66.6875,-177.0000,0
1776973675.988,8.7077,-5.7557,6.1363,3.0124,0.4261,1.5087,-62.2500,-9.3000,26.5500,12.3301,-0.8452,4.3311,0.5902,-1.5764,-1.1359,-87.1500,17.5500,24.1500,-3.1400,-3.4100,-7.5700,-2.3824,-3.5725,1.6984,33.5000,24.8750,17.6875,26.1250,-68.5625,-173.0000,0
1776973675.993,8.4180,-5.3415,7.0509,2.8565,0.1460,1.4506,-60.4500,-11.1000,27.9000,12.3301,-0.8452,4.3311,0.5902,-1.5764,-1.1359,-87.1500,17.5500,24.1500,-3.1400,-3.4100,-7.5700,-2.3824,-3.5725,1.6984,33.5000,24.8750,17.6875,23.5000,-70.1875,-168.9375,0
1776973675.998,8.4180,-5.3415,7.0509,2.8565,0.1460,1.4506,-60.4500,-11.1000,27.9000,11.4108,-1.5036,4.3096,0.4207,-1.4013,-1.1138,-87.1500,17.5500,24.1500,0.5700,-1.6300,-6.8400,-2.5656,-3.1667,1.3101,39.0000,19.0000,12.5625,23.5000,-70.1875,-168.9375,0
1776973676.003,7.5944,-5.6096,7.4747,2.3832,-0.3190,1.3933,-60.4500,-11.1000,27.9000,11.4108,-1.5036,4.3096,0.4207,-1.4013,-1.1138,-87.1500,17.5500,24.1500,0.5700,-1.6300,-6.8400,-2.5656,-3.1667,1.3101,39.0000,19.0000,12.5625,23.5000,-70.1875,-168.9375,0
1776973676.008,7.5944,-5.6096,7.4747,2.3832,-0.3190,1.3933,-60.4500,-11.1000,27.9000,11.0708,-1.2857,3.9600,0.3139,-1.2644,-1.1061,-87.1500,17.5500,24.1500,-9.5300,-8.3600,-12.0800,-2.4304,-1.9308,0.0753,39.0000,19.0000,12.5625,21.6875,-71.1875,-166.8125,0
1776973676.016,5.9592,-5.0087,7.5202,2.3281,-0.3416,1.1993,-61.6500,-9.4500,27.9000,10.7428,-0.7853,4.1061,0.4506,-1.2577,-1.1109,-86.2500,19.2000,22.9500,-3.4900,-7.5800,-12.1000,-2.0355,-0.1222,-1.0537,39.0000,19.0000,12.5625,20.7500,-71.4375,-167.3125,0
1776973676.020,6.4811,-3.2322,6.3590,2.3281,-0.3416,1.1993,-61.6500,-9.4500,27.9000,10.7428,-0.7853,4.1061,0.4506,-1.2577,-1.1109,-84.4500,21.1500,20.4000,-3.4900,-7.5800,-12.1000,-2.0355,-0.1222,-1.0537,39.0000,19.0000,12.5625,20.1250,-71.2500,-169.3125,0
1776973676.028,6.4811,-3.2322,6.3590,2.0384,-0.6238,0.9348,-61.5000,-10.0500,27.7500,10.1155,-0.0599,4.2760,0.5505,-1.1231,-1.0765,-84.4500,21.1500,20.4000,-1.5900,-8.7000,-8.9400,-2.1413,0.7221,-1.8380,39.0000,19.0000,12.5625,19.2500,-70.8750,-171.5000,0
1776973676.038,6.7301,-1.9249,5.2385,1.3979,-1.0890,0.6129,-61.8000,-8.5500,26.2500,10.2496,0.9122,3.7948,0.5417,-1.0323,-1.0483,-84.9000,21.7500,21.0000,0.8700,-6.0200,-5.4800,-2.5525,0.9621,-2.0802,39.0000,19.0000,12.5625,19.2500,-70.8750,-171.5000,0
1776973676.043,5.8035,-2.0016,3.6344,1.0520,-1.3915,0.3563,-61.8000,-8.5500,26.2500,9.6702,1.7957,3.4453,0.5284,-1.0043,-0.9878,-85.0500,22.9500,18.3000,0.8700,-6.0200,-5.4800,-2.5525,0.9621,-2.0802,39.0000,19.0000,12.5625,19.2500,-70.8750,-171.5000,0
1776973676.048,5.8035,-2.0016,3.6344,1.0520,-1.3915,0.3563,-61.2000,-9.1500,27.1500,9.6702,1.7957,3.4453,0.5284,-1.0043,-0.9878,-85.0500,22.9500,18.3000,-0.1700,-3.8600,-5.4200,-3.0369,1.0276,-2.1217,40.3750,13.8750,8.6875,18.0000,-70.5000,-173.3750,0
1776973676.053,5.3199,-3.1436,3.5338,1.4115,-1.5902,0.1905,-61.2000,-9.1500,27.1500,8.7460,2.6911,3.2633,0.5470,-0.7941,-0.9950,-85.0500,22.9500,18.3000,-0.1700,-3.8600,-5.4200,-3.0369,1.0276,-2.1217,40.3750,13.8750,8.6875,18.0000,-70.5000,-173.3750,0
1776973676.058,5.3199,-3.1436,3.5338,1.4115,-1.5902,0.1905,-61.2000,-9.1500,27.1500,8.7460,2.6911,3.2633,0.5470,-0.7941,-0.9950,-85.0500,22.9500,18.3000,-1.0300,-2.6900,-5.4900,-3.1874,1.1508,-2.2417,40.3750,13.8750,8.6875,16.7500,-69.9375,-175.2500,0
1776973676.063,4.5657,-3.1699,4.9943,1.9729,-1.7685,0.0405,-61.2000,-9.1500,27.1500,8.3438,3.7541,2.9760,0.5836,-0.5324,-1.0120,-82.2000,23.4000,19.3500,-1.0300,-2.6900,-5.4900,-3.0303,1.3799,-2.4249,40.3750,13.8750,8.6875,15.6250,-69.3125,-177.3125,0
1776973676.069,4.3239,-2.3391,4.6495,1.9729,-1.7685,0.0405,-63.7500,-8.1000,27.0000,8.3438,3.7541,2.9760,0.5836,-0.5324,-1.0120,-82.2000,23.4000,19.3500,-1.5800,-2.0700,-5.4000,-3.0303,1.3799,-2.4249,40.3750,13.8750,8.6875,14.8125,-68.4375,-179.5000,0
1776973676.078,4.0606,-2.1452,4.5226,1.9961,-2.0089,-0.1042,-63.7500,-8.1000,27.0000,8.1451,4.6064,2.6887,0.6997,-0.2835,-1.0134,-82.9500,24.4500,19.0500,-2.3900,-1.9300,-5.2000,-2.7576,1.6417,-2.5471,40.3750,13.8750,8.6875,14.1875,-67.3125,178.3750,0
1776973676.088,3.8188,-2.5355,4.6232,1.8250,-2.2543,-0.2334,-63.9000,-6.7500,26.1000,7.9176,4.5993,2.3296,0.8159,0.0061,-1.0043,-84.0000,23.7000,18.6000,-3.2100,-1.5100,-5.2300,-2.4827,1.9166,-2.5362,40.3750,13.8750,8.6875,14.1875,-67.3125,178.3750,0
1776973676.093,3.8188,-2.5355,4.6232,1.9023,-2.2785,-0.3933,-63.9000,-6.7500,26.1000,8.3222,3.9576,1.8866,0.9398,0.2577,-1.0067,-82.3500,24.0000,17.4000,-3.2100,-1.5100,-5.2300,-2.4827,1.9166,-2.5362,40.3750,13.8750,8.6875,13.6875,-66.0625,176.5625,0
1776973676.098,4.7453,-3.0789,5.3893,2.3116,-2.3198,-0.5199,-65.2500,-4.9500,25.5000,8.3222,3.9576,1.8866,0.9398,0.2577,-1.0067,-82.3500,24.0000,17.4000,-3.5300,-1.5700,-5.3200,-2.1937,2.2198,-2.4576,39.0000,14.5625,12.0000,13.6875,-66.0625,176.5625,0
1776973676.103,4.7453,-3.0789,5.3893,2.3116,-2.3198,-0.5199,-65.2500,-4.9500,25.5000,8.1690,3.1627,1.6065,1.2180,0.3315,-0.9574,-82.3500,24.0000,17.4000,-3.5300,-1.5700,-5.3200,-2.1937,2.2198,-2.4576,39.0000,14.5625,12.0000,13.4375,-64.5625,175.0000,0
1776973676.108,5.4827,-3.0239,5.9280,2.5250,-2.4280,-0.6019,-66.0000,-4.6500,24.0000,8.1690,3.1627,1.6065,1.2180,0.3315,-0.9574,-82.3500,24.0000,17.4000,-3.5700,-2.8400,-5.4100,-1.9079,2.5602,-2.3366,39.0000,14.5625,12.0000,13.4375,-64.5625,175.0000,0
1776973676.115,5.4827,-3.0239,5.9280,2.5250,-2.4280,-0.6019,-65.5500,-4.9500,24.0000,8.2768,2.6983,1.3408,1.5628,0.4429,-0.8665,-82.8000,24.3000,17.7000,-3.6400,-3.5900,-5.4000,-1.7224,2.8798,-2.2264,39.0000,14.5625,12.0000,13.2500,-62.8125,173.8125,0
1776973676.120,6.0813,-3.2681,5.6503,2.4320,-2.5908,-0.6723,-65.5500,-4.9500,24.0000,8.2265,2.1596,0.9242,1.7525,0.3195,-0.7397,-84.4500,25.6500,16.5000,-3.6400,-3.5900,-5.4000,-1.7224,2.8798,-2.2264,39.0000,14.5625,12.0000,13.1250,-60.9375,172.8750,0
1776973676.128,6.5697,-3.9863,5.3486,2.2862,-2.7989,-0.7634,-66.3000,-3.0000,23.7000,8.2265,2.1596,0.9242,1.7525,0.3195,-0.7397,-83.7000,25.6500,16.5000,-3.6900,-4.3000,-5.2800,-1.6461,3.1427,-2.1598,39.0000,14.5625,12.0000,12.9375,-59.0000,172.1875,0
1776973676.138,6.6966,-4.6471,5.3510,2.0526,-2.9287,-0.8700,-69.0000,-3.4500,22.9500,8.0325,2.3224,1.9417,2.2663,0.4751,-0.5891,-84.0000,27.1500,15.7500,-4.0800,-5.0800,-5.1100,-1.6657,3.2965,-2.1315,39.0000,14.5625,12.0000,12.9375,-59.0000,172.1875,0
1776973676.143,6.6966,-4.6471,5.3510,2.0526,-2.9287,-0.8700,-69.0000,-3.4500,22.9500,7.9583,2.7126,2.8323,2.8501,0.6312,-0.4141,-84.0000,27.1500,15.7500,-4.0800,-5.0800,-5.1100,-1.6657,3.2965,-2.1315,39.0000,14.5625,12.0000,12.7500,-57.0000,171.6250,0
1776973676.148,7.1635,-4.7190,5.3319,1.7285,-3.0121,-0.9769,-69.0000,-3.4500,22.9500,7.9583,2.7126,2.8323,3.2178,0.6757,-0.2864,-83.5500,27.7500,16.6500,-4.7100,-5.1700,-5.1000,-1.6897,3.3445,-2.1446,34.8750,14.2500,16.0625,12.7500,-57.0000,171.6250,0
1776973676.153,7.1635,-4.7190,5.3319,1.7285,-3.0121,-0.9769,-69.0000,-3.4500,22.9500,8.1618,2.4852,2.8802,3.2178,0.6757,-0.2864,-83.5500,27.7500,16.6500,-4.7100,-5.1700,-5.1000,-1.6897,3.3445,-2.1446,34.8750,14.2500,16.0625,12.7500,-57.0000,171.6250,0
1776973676.158,7.3933,-4.5729,5.1547,1.5596,-3.1693,-1.0573,-68.7000,-2.2500,20.7000,8.2648,1.8507,2.4972,3.3918,0.7080,-0.2169,-83.5500,27.7500,16.6500,-5.2400,-5.4500,-5.1000,-1.6657,3.3227,-2.1958,34.8750,14.2500,16.0625,12.6250,-55.0000,171.1875,0
1776973676.163,7.3933,-4.5729,5.1547,1.5596,-3.1693,-1.0573,-68.7000,-2.2500,20.7000,8.2648,1.8507,2.4972,3.3918,0.7080,-0.2169,-83.5500,27.7500,16.6500,-5.2400,-5.4500,-5.1000,-1.5773,3.2387,-2.2995,34.8750,14.2500,16.0625,12.6250,-53.0000,170.6875,0
1776973676.169,7.3239,-4.2713,5.1404,1.6369,-3.2626,-1.1106,-68.7000,-2.2500,20.7000,8.5353,1.0008,2.1787,3.4728,0.7272,-0.1719,-83.1000,26.2500,14.8500,-6.2700,-5.6000,-5.4600,-1.5773,3.2387,-2.2995,34.8750,14.2500,16.0625,12.8125,-51.0625,170.1250,0
1776973676.178,7.6495,-3.4668,4.7980,1.7824,-3.2682,-1.1660,-70.2000,0.7500,18.4500,8.8226,0.2418,2.0063,3.4725,0.7797,-0.1564,-84.6000,27.7500,15.3000,-7.8500,-6.5100,-5.4800,-1.4432,3.1623,-2.4904,34.8750,14.2500,16.0625,12.8125,-51.0625,170.1250,0
1776973676.188,7.9368,-2.5474,4.8866,1.9939,-3.2532,-1.2257,-71.7000,0.7500,17.7000,9.2344,-0.4836,1.7549,3.4081,0.8239,-0.1343,-84.9000,30.7500,14.2500,-7.9700,-7.2100,-4.9900,-1.3483,3.0849,-2.7685,34.8750,14.2500,16.0625,13.3125,-49.1250,169.4375,0
1776973676.193,7.9368,-2.5474,4.8866,1.9939,-3.2532,-1.2257,-71.7000,0.7500,17.7000,9.2344,-0.4836,1.7549,3.4081,0.8239,-0.1343,-84.9000,30.7500,14.2500,-7.9700,-7.2100,-4.9900,-1.3483,3.0849,-2.7685,34.8750,14.2500,16.0625,13.3125,-49.1250,169.4375,0
1776973676.198,8.2839,-1.9225,4.8578,2.2513,-3.2594,-1.2428,-73.2000,1.9500,15.9000,9.2129,-1.1540,1.4796,3.3140,0.8511,-0.1007,-84.9000,28.0500,13.8000,-8.0500,-7.4900,-4.5400,-1.3679,2.9169,-3.0805,31.5625,14.5625,24.0000,14.0000,-47.1875,168.6875,0
1776973676.203,8.6072,-1.5754,4.5514,2.2513,-3.2594,-1.2428,-73.2000,1.9500,15.9000,9.2129,-1.1540,1.4796,3.3140,0.8511,-0.1007,-84.9000,28.0500,13.8000,-8.0500,-7.4900,-4.5400,-1.3679,2.9169,-3.0805,31.5625,14.5625,24.0000,14.0000,-47.1875,168.6875,0
1776973676.208,8.6072,-1.5754,4.5514,2.6017,-3.2282,-1.2364,-71.5500,4.0500,14.5500,9.3494,-1.3120,1.0582,3.1672,0.8964,-0.0773,-84.9000,28.0500,13.8000,-8.9300,-7.2000,-4.7000,-1.4835,2.5765,-3.3652,31.5625,14.5625,24.0000,14.6250,-45.4375,167.8750,0
1776973676.214,8.6981,-1.2881,4.6256,3.0678,-3.1192,-1.1767,-71.5500,4.0500,14.5500,9.3494,-1.3120,1.0582,3.1672,0.8964,-0.0773,-84.9000,28.0500,13.8000,-9.7900,-7.0800,-5.0200,-1.5970,2.1664,-3.6063,31.5625,14.5625,24.0000,15.1875,-43.8125,167.0625,0
1776973676.219,8.6981,-1.2881,4.6256,3.0678,-3.1192,-1.1767,-71.5500,4.0500,14.5500,9.4667,-1.2402,0.5507,2.9700,0.8311,-0.0512,-85.0500,28.2000,12.6000,-9.7900,-7.0800,-5.0200,-1.5970,2.1664,-3.6063,31.5625,14.5625,24.0000,346.6875,-42.3125,166.2500,0
1776973676.228,9.2177,-1.4174,4.9153,3.5122,-2.9767,-1.0869,-74.5500,4.5000,12.3000,9.4691,-0.9529,0.1437,2.7683,0.6627,-0.0474,-85.3500,28.5000,10.9500,-10.4600,-7.2100,-5.3400,-1.6373,1.8239,-3.8419,31.5625,14.5625,24.0000,346.6875,-42.3125,166.2500,0
1776973676.238,9.3733,-1.5347,5.2720,3.8856,-2.8765,-0.9667,-74.5500,4.5000,12.3000,9.5289,-0.6991,-0.2849,2.5482,0.6752,-0.0429,-83.2500,31.9500,11.1000,-11.5700,-8.0100,-5.9100,-1.6635,1.5926,-4.0688,31.5625,14.5625,24.0000,344.1875,-40.9375,165.4375,0
1776973676.243,9.6486,-1.8220,5.3750,4.1302,-2.7984,-0.8580,-74.5500,4.5000,12.3000,9.5289,-0.6991,-0.2849,2.5482,0.6752,-0.0429,-83.2500,31.9500,11.1000,-11.5700,-8.0100,-5.9100,-1.6635,1.5926,-4.0688,31.5625,14.5625,24.0000,341.5000,-39.5625,164.6250,0
1776973676.248,9.6486,-1.8220,5.3750,4.1302,-2.7984,-0.8580,-73.9500,6.1500,9.9000,9.5074,-0.3496,-0.9385,2.4027,0.6265,-0.0418,-84.9000,30.0000,9.1500,-11.8600,-8.3500,-6.0600,-1.7366,1.4475,-4.2739,29.6875,14.2500,30.1875,341.5000,-39.5625,164.6250,0
1776973676.253,9.7947,-2.1691,5.4109,4.2807,-2.6987,-0.7613,-73.9500,6.1500,9.9000,9.5074,-0.3496,-0.9385,2.4027,0.6265,-0.0418,-84.9000,30.0000,9.1500,-11.8600,-8.3500,-6.0600,-1.7366,1.4475,-4.2739,29.6875,14.2500,30.1875,338.7500,-38.1250,163.9375,0
1776973676.258,9.7947,-2.1691,5.4109,4.2807,-2.6987,-0.7613,-73.8000,6.0000,8.7000,9.5672,0.1676,-1.4557,2.3723,0.6235,-0.0298,-83.7000,29.7000,9.7500,-12.0100,-8.4800,-6.1800,-1.8795,1.3406,-4.4560,29.6875,14.2500,30.1875,338.7500,-38.1250,163.9375,0
1776973676.263,10.0628,-2.6719,5.3223,4.3774,-2.6001,-0.6931,-73.8000,6.0000,8.7000,9.5672,0.1676,-1.4557,2.3723,0.6235,-0.0298,-83.7000,29.7000,9.7500,-12.0100,-8.4800,-6.1800,-2.0573,1.2566,-4.6273,29.6875,14.2500,30.1875,335.8750,-36.7500,163.3125,0
1776973676.269,10.0628,-2.6719,5.3223,4.3774,-2.6001,-0.6931,-75.6000,6.7500,7.9500,9.7013,0.8595,-1.8244,2.3960,0.6291,-0.0261,-83.7000,29.7000,9.7500,-12.1000,-8.5600,-6.2400,-2.0573,1.2566,-4.6273,29.6875,14.2500,30.1875,332.9375,-35.3750,162.8750,0
1776973676.278,10.3525,-3.0646,5.3774,4.4502,-2.5085,-0.6382,-74.4000,8.1000,6.9000,9.7492,1.5562,-1.9058,2.4347,0.6491,-0.0048,-84.9000,28.5000,8.5500,-11.7200,-8.4200,-6.0200,-2.2155,1.1999,-4.7702,29.6875,14.2500,30.1875,332.9375,-35.3750,162.8750,0
1776973676.289,10.2879,-3.0382,5.2241,4.4092,-2.4664,-0.5782,-74.8500,7.9500,4.9500,9.7492,2.1596,-1.9178,2.4280,0.6768,0.0248,-85.9500,27.0000,7.8000,-11.5500,-8.0800,-5.9700,-2.3267,1.1585,-4.8891,29.6875,14.2500,30.1875,329.8750,-33.9375,162.5000,0
1776973676.293,10.2472,-3.0837,4.7669,4.2477,-2.4187,-0.5481,-74.8500,7.9500,4.9500,9.7492,2.1596,-1.9178,2.3726,0.6912,0.0727,-85.9500,27.0000,7.8000,-11.5500,-8.0800,-5.9700,-2.3267,1.1585,-4.8891,29.6875,14.2500,30.1875,326.8125,-32.5000,162.1875,0
1776973676.298,10.2472,-3.0837,4.7669,4.2477,-2.4187,-0.5481,-76.6500,9.0000,2.8500,9.6822,2.4708,-1.9441,2.3726,0.6912,0.0727,-85.9500,29.5500,8.1000,-11.3000,-7.7100,-5.8600,-2.3453,1.0952,-4.9731,24.6875,15.5625,35.0625,326.8125,-32.5000,162.1875,0
1776973676.303,10.0963,-3.2825,4.4388,4.0380,-2.3665,-0.5460,-76.6500,9.0000,2.8500,9.7109,2.7294,-1.9345,2.3574,0.6757,0.1271,-85.9500,29.5500,8.1000,-11.3000,-7.7100,-5.8600,-2.3453,1.0952,-4.9731,24.6875,15.5625,35.0625,326.8125,-32.5000,162.1875,0
1776973676.308,10.0963,-3.2825,4.4388,4.0380,-2.3665,-0.5460,-76.6500,9.0000,2.8500,9.7109,2.7294,-1.9345,2.3574,0.6757,0.1271,-84.9000,30.0000,6.7500,-10.7200,-7.3900,-5.5300,-2.2722,1.0319,-5.0200,24.6875,15.5625,35.0625,323.7500,-31.1250,161.9375,0
1776973676.316,10.0580,-3.3710,4.1396,3.8221,-2.2828,-0.5500,-76.9500,10.9500,0.0000,9.5337,2.8635,-1.6735,2.4483,0.6214,0.1935,-84.9000,30.0000,6.7500,-10.3500,-7.1900,-5.3900,-2.1533,0.9523,-5.0178,24.6875,15.5625,35.0625,320.7500,-29.7500,161.6250,0
1776973676.321,9.8019,-3.2657,3.8786,3.5999,-2.2055,-0.5662,-76.9500,10.9500,0.0000,9.5337,2.8635,-1.6735,2.4483,0.6214,0.1935,-84.9000,30.0000,6.7500,-10.3500,-7.1900,-5.3900,-2.1533,0.9523,-5.0178,24.6875,15.5625,35.0625,317.7500,-28.4375,161.3750,0
1776973676.329,9.6079,-3.0742,3.5291,3.3977,-2.0941,-0.5891,-75.9000,10.5000,-1.3500,9.6367,2.6839,-1.5395,2.5548,0.6526,0.2289,-84.4500,29.7000,7.2000,-10.0700,-6.8600,-5.3300,-1.9929,0.8639,-4.9491,24.6875,15.5625,35.0625,314.8750,-27.1875,161.1250,0
1776973676.339,9.4260,-2.7940,3.1699,3.2181,-1.9889,-0.6318,-77.7000,9.7500,-1.0500,9.6893,2.4924,-1.0989,2.7677,0.6411,0.2462,-85.0500,28.6500,4.3500,-9.8100,-6.5800,-5.2500,-1.7835,0.7701,-4.8400,24.6875,15.5625,35.0625,314.8750,-27.1875,161.1250,0
1776973676.344,9.4260,-2.7940,3.1699,3.2181,-1.9889,-0.6318,-77.7000,9.7500,-1.0500,9.6031,2.2290,-0.6632,3.0158,0.6054,0.2603,-85.0500,28.6500,4.3500,-9.8100,-6.5800,-5.2500,-1.7835,0.7701,-4.8400,24.6875,15.5625,35.0625,312.1250,-25.9375,160.7500,0
1776973676.349,9.4475,-2.5211,3.0837,3.0470,-1.8650,-0.6662,-77.4000,11.7000,-3.3000,9.6031,2.2290,-0.6632,3.0158,0.6054,0.2603,-84.6000,29.2500,5.7000,-9.5700,-6.2700,-5.3500,-1.5228,0.6763,-4.7146,21.0625,15.0625,40.2500,312.1250,-25.9375,160.7500,0
1776973676.354,9.4475,-2.5211,3.0837,3.0470,-1.8650,-0.6662,-77.4000,11.7000,-3.3000,9.4978,2.0183,-0.2969,3.2498,0.5710,0.2902,-84.6000,29.2500,5.7000,-9.5700,-6.2700,-5.3500,-1.5228,0.6763,-4.7146,21.0625,15.0625,40.2500,312.1250,-25.9375,160.7500,0
1776973676.359,9.5289,-2.3391,2.8156,2.8631,-1.7480,-0.7029,-75.6000,11.1000,-4.9500,9.4978,2.0183,-0.2969,3.2498,0.5710,0.2902,-85.0500,28.9500,5.8500,-9.3100,-6.2900,-5.3400,-1.2457,0.6021,-4.5760,21.0625,15.0625,40.2500,309.5000,-24.8125,160.3750,0
1776973676.365,9.5289,-2.3391,2.8156,2.8631,-1.7480,-0.7029,-75.6000,11.1000,-4.9500,9.6055,1.8124,-0.2370,3.3484,0.5713,0.3152,-84.7500,28.2000,4.8000,-9.0200,-6.3200,-5.3200,-0.9992,0.5269,-4.4200,21.0625,15.0625,40.2500,306.9375,-23.6875,159.9375,0
1776973676.370,9.7348,-2.2122,2.8036,2.6782,-1.6108,-0.7072,-76.0500,12.3000,-5.2500,9.6055,1.8124,-0.2370,3.3484,0.5713,0.3152,-84.7500,28.2000,4.8000,-9.0200,-6.3200,-5.3200,-0.9992,0.5269,-4.4200,21.0625,15.0625,40.2500,304.5625,-22.6250,159.5000,0
1776973676.379,9.7827,-1.9513,2.7629,2.5271,-1.4781,-0.7128,-76.0500,12.3000,-5.2500,9.6654,1.6400,-0.3160,3.3481,0.4549,0.3144,-84.7500,28.2000,4.8000,-8.9300,-6.1700,-5.6600,-0.8018,0.4451,-4.2368,21.0625,15.0625,40.2500,302.3125,-21.6250,159.0000,0
1776973676.389,9.8162,-1.5131,2.8395,2.3875,-1.3696,-0.7072,-75.9000,12.4500,-8.1000,9.7516,1.3958,-0.3352,3.2631,0.3997,0.2864,-86.5500,27.1500,2.5500,-8.8800,-6.1000,-5.7500,-0.6229,0.3687,-4.0546,21.0625,15.0625,40.2500,302.3125,-21.6250,159.0000,0
1776973676.394,9.8162,-1.5131,2.8395,2.3875,-1.3696,-0.7072,-75.9000,12.4500,-8.1000,9.9048,1.2378,-0.1772,3.1605,0.4295,0.2547,-86.5500,27.1500,2.5500,-8.8800,-6.1000,-5.7500,-0.6229,0.3687,-4.0546,21.0625,15.0625,40.2500,300.1250,-20.6875,158.5000,0
1776973676.399,9.7947,-1.1253,2.5714,2.2276,-1.2899,-0.6869,-75.9000,12.4500,-8.1000,9.9048,1.2378,-0.1772,3.1605,0.4295,0.2547,-86.2500,26.4000,2.5500,-8.6800,-6.0900,-5.7200,-0.4581,0.3120,-3.8779,18.2500,17.3750,46.6875,300.1250,-20.6875,158.5000,0
1776973676.404,9.7947,-1.1253,2.5714,2.2276,-1.2899,-0.6869,-75.9000,12.4500,-8.1000,10.2017,1.0846,-0.1365,3.0281,0.4245,0.1783,-84.7500,27.1500,1.2000,-8.6800,-6.0900,-5.7200,-0.4581,0.3120,-3.8779,18.2500,17.3750,46.6875,298.0625,-19.8125,158.0000,0
1776973676.409,9.6845,-0.7326,2.5426,2.1200,-1.1943,-0.6446,-75.3000,13.0500,-9.0000,10.2017,1.0846,-0.1365,3.0281,0.4245,0.1783,-84.7500,27.1500,1.2000,-8.3000,-5.9400,-5.5900,-0.3502,0.2607,-3.6979,18.2500,17.3750,46.6875,298.0625,-19.8125,158.0000,0
1776973676.417,9.6822,-0.5483,2.4421,2.0121,-1.0730,-0.5982,-76.6500,13.2000,-9.9000,9.9910,0.9984,-0.3208,2.8658,0.3659,0.0911,-85.0500,24.1500,0.4500,-8.3800,-5.9600,-5.5300,-0.2858,0.1887,-3.5103,18.2500,17.3750,46.6875,296.1250,-19.0000,157.5625,0
1776973676.422,9.6822,-0.5483,2.4421,2.0121,-1.0730,-0.5982,-76.6500,13.2000,-9.9000,9.9359,0.9481,-0.7207,2.6049,0.4418,-0.0109,-85.0500,24.1500,0.4500,-8.3800,-5.9600,-5.5300,-0.2858,0.1887,-3.5103,18.2500,17.3750,46.6875,294.2500,-18.1875,157.1250,0
1776973676.429,9.4379,-0.2203,2.7653,2.0419,-0.9571,-0.5327,-75.9000,13.2000,-12.1500,9.8186,1.1444,-1.0606,2.4189,0.4133,-0.0877,-85.0500,24.1500,0.4500,-8.3000,-6.1200,-5.3000,-0.2563,0.1102,-3.3358,18.2500,17.3750,46.6875,292.4375,-17.5000,156.7500,0
1776973676.439,9.3182,0.1006,2.5522,2.1288,-0.8476,-0.4498,-78.0000,12.3000,-11.5500,9.5505,1.6735,-1.3791,2.3188,0.3560,-0.1743,-86.5500,24.9000,-1.5000,-8.2300,-6.1300,-5.1000,-0.2323,0.0065,-3.1907,18.2500,17.3750,46.6875,292.4375,-17.5000,156.7500,0
1776973676.444,9.3470,0.3112,2.2529,2.1368,-0.7520,-0.3528,-78.0000,12.3000,-11.5500,9.5505,1.6735,-1.3791,2.3188,0.3560,-0.1743,-86.4000,25.0500,-1.6500,-8.2300,-6.1300,-5.1000,-0.2323,0.0065,-3.1907,18.2500,17.3750,46.6875,292.4375,-17.5000,156.7500,0
1776973676.449,9.3470,0.3112,2.2529,2.1368,-0.7520,-0.3528,-75.6000,13.0500,-13.8000,9.2177,2.1596,-1.3767,2.2071,0.2689,-0.2771,-86.4000,25.0500,-1.6500,-8.0200,-6.7800,-4.3000,-0.1876,-0.1156,-3.1318,12.6875,20.2500,52.1875,290.6875,-16.8750,156.3125,0
1776973676.454,9.0453,0.1700,2.6097,2.3113,-0.6305,-0.2838,-75.6000,13.0500,-13.8000,9.2177,2.1596,-1.3767,2.2071,0.2689,-0.2771,-85.9500,24.7500,-1.6500,-8.0200,-6.7800,-4.3000,-0.1876,-0.1156,-3.1318,12.6875,20.2500,52.1875,290.6875,-16.8750,156.3125,0
1776973676.459,9.0453,0.1700,2.6097,2.3113,-0.6305,-0.2838,-77.2500,13.5000,-13.5000,8.9687,2.1117,-1.5562,2.0283,0.3155,-0.3405,-85.9500,24.7500,-1.6500,-7.4900,-7.2800,-3.5300,-0.1473,-0.2814,-3.1645,12.6875,20.2500,52.1875,288.8750,-16.3125,155.8750,0
1776973676.464,9.0190,0.1341,2.9257,2.4858,-0.5084,-0.2166,-77.2500,13.5000,-13.5000,8.9687,2.1117,-1.5562,2.0283,0.3155,-0.3405,-86.5500,24.9000,-1.9500,-7.4900,-7.2800,-3.5300,-0.1353,-0.5432,-3.2496,12.6875,20.2500,52.1875,287.0000,-15.8750,155.5000,0
1776973676.470,9.0190,0.1341,2.9257,2.4858,-0.5084,-0.2166,-77.2500,13.5000,-13.5000,8.6311,2.5953,-1.4796,1.9225,0.4064,-0.3477,-86.5500,24.9000,-1.9500,-7.0500,-7.4000,-2.9600,-0.1353,-0.5432,-3.2496,12.6875,20.2500,52.1875,285.0000,-15.5000,154.9375,0
1776973676.479,8.8035,0.4525,3.0742,2.6113,-0.3714,-0.1506,-76.2000,11.7000,-13.6500,8.9783,2.8587,-1.2354,1.9169,0.5375,-0.3357,-85.6500,26.2500,-2.8500,-7.2100,-7.7400,-2.4500,-0.0731,-0.8967,-3.4154,12.6875,20.2500,52.1875,285.0000,-15.5000,154.9375,0
1776973676.489,8.4372,0.8188,3.2561,2.7944,-0.2531,-0.1007,-76.0500,11.4000,-16.0500,8.8322,2.8683,-0.7350,1.9401,0.6683,-0.3810,-85.6500,26.2500,-2.8500,-7.5600,-7.8500,-2.4800,0.0415,-1.2643,-3.6379,12.6875,20.2500,52.1875,282.8125,-15.3125,154.3750,0
1776973676.494,8.2025,0.8068,3.5674,3.0161,-0.1394,-0.0914,-76.0500,11.4000,-16.0500,8.8322,2.8683,-0.7350,1.9401,0.6683,-0.3810,-85.8000,23.7000,-3.3000,-7.5600,-7.8500,-2.4800,0.0415,-1.2643,-3.6379,12.6875,20.2500,52.1875,282.8125,-15.3125,154.3750,0
1776973676.499,8.2025,0.8068,3.5674,3.0161,-0.1394,-0.0914,-75.4500,12.9000,-15.1500,8.4036,3.0454,-0.2179,1.8519,0.8103,-0.4485,-85.8000,23.7000,-3.3000,-7.9400,-8.3000,-2.6600,0.1702,-1.5817,-3.8506,6.7500,23.0000,56.5000,280.5000,-15.1250,153.6250,0
1776973676.504,7.8410,0.3352,3.9720,3.2524,0.0088,-0.0885,-75.4500,12.9000,-15.1500,8.4036,3.0454,-0.2179,1.8519,0.8103,-0.4485,-85.9500,24.3000,-3.9000,-7.9400,-8.3000,-2.6600,0.1702,-1.5817,-3.8506,6.7500,23.0000,56.5000,280.5000,-15.1250,153.6250,0
