timestamp,thigh_acc_x,thigh_acc_y,thigh_acc_z,thigh_gyro_x,thigh_gyro_y,thigh_gyro_z,thigh_mag_x,thigh_mag_y,thigh_mag_z,shank_acc_x,shank_acc_y,shank_acc_z,shank_gyro_x,shank_gyro_y,shank_gyro_z,shank_mag_x,shank_mag_y,shank_mag_z,foot_acc_x,foot_acc_y,foot_acc_z,foot_gyro_x,foot_gyro_y,foot_gyro_z,foot_mag_x,foot_mag_y,foot_mag_z,foot_euler_x,foot_euler_y,foot_euler_z,perturbation_event
1776971051.288,9.3446,-0.6105,1.5083,0.7970,0.5817,0.7149,-85.0500,-5.4000,-18.7500,9.8976,-0.5267,0.5483,0.3994,-0.2220,0.2814,-31.9500,7.5000,16.3500,6.6500,-1.3900,-7.2500,0.0480,-0.0338,0.0098,-27.6875,-4.0625,30.2500,96.8750,40.3125,170.9375,0
1776971051.297,9.5624,0.0168,1.8004,0.5268,0.5564,0.7416,-84.1500,-6.9000,-19.2000,10.0317,-0.4310,0.4334,0.3762,-0.2598,0.2806,-31.9500,7.5000,16.3500,6.6400,-1.4000,-7.3100,0.0469,-0.0469,0.0185,-27.6875,-4.0625,30.2500,96.8750,40.3125,170.9375,0
1776971051.303,9.5624,0.0168,1.8004,0.3491,0.4386,0.7815,-84.1500,-6.9000,-19.2000,10.0317,-0.4310,0.4334,0.3762,-0.2598,0.2806,-31.9500,7.5000,16.3500,6.5600,-1.3000,-7.3500,0.0611,-0.0524,0.0120,-27.6875,-4.0625,30.2500,96.8750,40.3125,170.9375,0
1776971051.308,9.3948,0.5435,2.2003,0.2076,0.4735,0.8316,-83.8500,-5.4000,-20.2500,10.0078,-0.4429,0.2394,0.3483,-0.2902,0.2920,-32.2500,9.0000,17.7000,6.5600,-1.3000,-7.3500,0.0611,-0.0524,0.0120,-27.6875,-4.0625,30.2500,96.8750,40.3125,170.9375,0
1776971051.313,9.3948,0.5435,2.2003,0.2076,0.4735,0.8316,-83.8500,-5.4000,-20.2500,10.0078,-0.4429,0.2394,0.3483,-0.2902,0.2920,-32.2500,9.0000,17.7000,6.5400,-1.3400,-7.3100,0.0676,-0.0862,0.0207,-27.2500,-3.7500,29.1875,96.8750,40.2500,170.8750,0
1776971051.318,9.3613,1.0822,2.2075,0.1908,0.4983,0.8625,-84.0000,-6.7500,-19.3500,9.9479,-0.4334,0.1604,0.3126,-0.3144,0.3099,-32.8500,6.4500,17.8500,6.5400,-1.3400,-7.3100,0.0676,-0.0862,0.0207,-27.2500,-3.7500,29.1875,96.8750,40.2500,170.8750,0
1776971051.323,9.3613,1.0822,2.2075,0.1908,0.4983,0.8625,-84.0000,-6.7500,-19.3500,9.9479,-0.4334,0.1604,0.3126,-0.3144,0.3099,-32.8500,6.4500,17.8500,6.5400,-1.3400,-7.3100,0.0600,-0.0785,0.0229,-27.2500,-3.7500,29.1875,96.8750,40.2500,170.8125,0
1776971051.328,9.2656,1.2737,2.0159,0.1940,0.5191,0.8841,-84.0000,-6.7500,-19.3500,9.8402,-0.2753,0.1197,0.2979,-0.3208,0.3376,-32.8500,7.6500,16.5000,6.6100,-1.3200,-7.3000,0.0600,-0.0785,0.0229,-27.2500,-3.7500,29.1875,96.8750,40.2500,170.8125,0
1776971051.333,9.2656,1.2737,2.0159,0.1940,0.5191,0.8841,-84.0000,-6.7500,-19.3500,9.8402,-0.2753,0.1197,0.2979,-0.3208,0.3376,-32.8500,7.6500,16.5000,6.6100,-1.3200,-7.3000,0.0502,-0.0720,0.0207,-27.2500,-3.7500,29.1875,96.8750,40.1875,170.7500,0
1776971051.338,9.4068,1.3455,1.8292,0.1402,0.5260,0.8940,-84.0000,-6.7500,-20.1000,9.8426,0.0646,0.0503,0.2840,-0.3344,0.3736,-32.2500,7.0500,17.4000,6.6100,-1.3900,-7.3000,0.0502,-0.0720,0.0207,-27.2500,-3.7500,29.1875,96.8750,40.1875,170.7500,0
1776971051.347,9.3709,1.4269,1.7310,0.0600,0.4810,0.8703,-83.1000,-7.8000,-18.7500,9.7875,0.2993,-0.1413,0.2942,-0.3475,0.4032,-32.2500,7.0500,17.4000,6.5600,-1.3400,-7.3700,0.0535,-0.0873,0.0175,-27.2500,-3.7500,29.1875,96.8750,40.1875,170.7500,0
1776971051.352,9.3709,1.4269,1.7310,0.0600,0.4810,0.8703,-83.1000,-7.8000,-18.7500,9.7875,0.2993,-0.1413,0.2942,-0.3475,0.4032,-32.2500,7.0500,17.4000,6.5600,-1.3400,-7.3700,0.0491,-0.0796,0.0044,-27.2500,-3.7500,29.1875,96.8125,40.1250,170.6875,0
1776971051.358,9.3422,1.5203,1.7358,0.0037,0.4271,0.8617,-85.8000,-8.1000,-19.2000,9.9503,0.3328,-0.1437,0.3440,-0.3571,0.4293,-30.4500,7.8000,15.9000,6.6200,-1.2800,-7.3400,0.0491,-0.0796,0.0044,-27.2500,-3.7500,29.1875,96.8125,40.1250,170.6875,0
1776971051.363,9.3422,1.5203,1.7358,0.0037,0.4271,0.8617,-85.8000,-8.1000,-19.2000,9.7013,0.4022,-0.3783,0.3523,-0.3691,0.4543,-30.7500,6.7500,17.1000,6.6100,-1.2500,-7.3100,0.0436,-0.0829,0.0022,-27.0000,-4.0625,30.3750,96.8125,40.0625,170.6875,0
1776971051.368,9.4403,1.5490,1.7957,0.0056,0.3469,0.8655,-83.2500,-8.7000,-18.3000,9.7013,0.4022,-0.3783,0.3523,-0.3691,0.4543,-30.7500,6.7500,17.1000,6.6100,-1.2500,-7.3100,0.0436,-0.0829,0.0022,-27.0000,-4.0625,30.3750,96.8125,40.0625,170.6875,0
1776971051.373,9.4403,1.5490,1.7957,0.0056,0.3469,0.8655,-83.2500,-8.7000,-18.3000,9.6798,0.0934,-0.7302,0.3536,-0.3597,0.4930,-33.0000,5.2500,16.6500,6.6100,-1.2500,-7.3100,0.0415,-0.0894,0.0044,-27.0000,-4.0625,30.3750,96.8125,40.0625,170.6250,0
1776971051.378,9.4858,1.5874,1.7382,0.1196,0.2214,0.8713,-83.1000,-9.3000,-18.7500,9.6798,0.0934,-0.7302,0.3536,-0.3597,0.4930,-33.0000,5.2500,16.6500,6.6100,-1.3200,-7.3300,0.0415,-0.0894,0.0044,-27.0000,-4.0625,30.3750,96.8125,40.0625,170.6250,0
1776971051.383,9.4858,1.5874,1.7382,0.1196,0.2214,0.8713,-83.1000,-9.3000,-18.7500,9.6103,0.0263,-0.9601,0.3349,-0.3400,0.5401,-31.6500,5.7000,14.7000,6.6100,-1.3200,-7.3300,0.0436,-0.1124,0.0076,-27.0000,-4.0625,30.3750,96.8125,40.0000,170.6250,0
1776971051.388,9.3111,1.3144,1.7047,0.1375,0.2542,0.8934,-84.6000,-9.3000,-17.4000,9.6103,0.0263,-0.9601,0.3349,-0.3400,0.5401,-31.6500,5.7000,14.7000,6.5100,-1.3300,-7.3200,0.0436,-0.1124,0.0076,-27.0000,-4.0625,30.3750,96.8125,40.0000,170.6250,0
1776971051.397,9.4786,1.4700,1.4341,0.2507,0.1719,0.9265,-84.6000,-9.3000,-17.4000,9.7755,0.4980,-1.1732,0.2958,-0.3224,0.5950,-32.8500,7.2000,14.4000,6.5500,-1.3000,-7.3400,0.0404,-0.1320,0.0109,-27.0000,-4.0625,30.3750,96.8125,39.9375,170.6250,0
1776971051.402,9.4786,1.4700,1.4341,0.2507,0.1719,0.9265,-84.6000,-9.3000,-17.4000,9.8402,0.8715,-1.4485,0.2758,-0.3128,0.6475,-32.8500,7.2000,14.4000,6.5500,-1.3000,-7.3400,0.0316,-0.1233,0.0142,-27.0000,-4.0625,30.3750,96.8125,39.8750,170.5625,0
1776971051.408,9.7133,1.6640,1.2163,0.3661,0.0861,0.9569,-83.1000,-10.5000,-18.7500,9.8402,0.8715,-1.4485,0.2758,-0.3128,0.6475,-32.8500,7.2000,14.4000,6.5600,-1.4300,-7.3700,0.0316,-0.1233,0.0142,-27.0000,-4.0625,30.3750,96.8125,39.8750,170.5625,0
1776971051.413,10.0916,2.0375,0.9290,0.4311,-0.0280,0.9467,-83.1000,-10.5000,-18.7500,10.0772,1.5730,-1.6999,0.2814,-0.2862,0.7208,-31.5000,4.8000,15.3000,6.5600,-1.4300,-7.3700,0.0316,-0.1233,0.0142,-27.6875,-4.5000,31.5000,96.8125,39.8125,170.5625,0
1776971051.418,10.0916,2.0375,0.9290,0.4311,-0.0280,0.9467,-83.1000,-10.5000,-18.7500,10.0772,1.5730,-1.6999,0.2814,-0.2862,0.7208,-31.5000,4.8000,15.3000,6.5800,-1.2800,-7.3900,0.0305,-0.1374,0.0142,-27.6875,-4.5000,31.5000,96.8125,39.8125,170.5625,0
1776971051.423,10.5919,2.2745,0.6416,0.4538,-0.1516,0.9009,-83.1000,-10.5000,-18.7500,10.3142,1.7166,-2.2577,0.2593,-0.2574,0.7946,-31.6500,5.7000,15.4500,6.5800,-1.2800,-7.3900,0.0305,-0.1374,0.0142,-27.6875,-4.5000,31.5000,96.7500,39.7500,170.5625,0
1776971051.428,10.5919,2.2745,0.6416,0.4538,-0.1516,0.9009,-82.3500,-9.0000,-18.0000,10.3142,1.7166,-2.2577,0.2593,-0.2574,0.7946,-31.6500,5.7000,15.4500,6.4700,-1.3400,-7.5400,0.0327,-0.1374,0.0033,-27.6875,-4.5000,31.5000,96.7500,39.7500,170.5625,0
1776971051.433,10.9032,2.4493,0.2921,0.5060,-0.2910,0.8383,-82.3500,-9.0000,-18.0000,10.4962,1.3791,-3.1196,0.1956,-0.2172,0.8825,-30.6000,5.7000,15.4500,6.4700,-1.3400,-7.5400,0.0393,-0.1789,0.0011,-27.6875,-4.5000,31.5000,96.7500,39.6250,170.5000,0
1776971051.438,10.9032,2.4493,0.2921,0.5060,-0.2910,0.8383,-82.6500,-12.0000,-16.9500,10.4962,1.3791,-3.1196,0.1956,-0.2172,0.8825,-30.6000,5.7000,15.4500,6.5500,-1.3300,-7.6300,0.0393,-0.1789,0.0011,-27.6875,-4.5000,31.5000,96.7500,39.5000,170.5000,0
1776971051.447,11.0014,2.4708,-0.1389,0.5524,-0.4045,0.7426,-82.5000,-11.1000,-17.1000,10.0724,1.0678,-3.4812,0.0597,-0.1761,0.9870,-31.5000,5.2500,14.8500,6.4000,-1.0100,-7.9300,0.0371,-0.2334,0.0011,-27.6875,-4.5000,31.5000,96.7500,39.5000,170.5000,0
1776971051.457,11.0684,2.2889,-0.8045,0.6299,-0.4871,0.6358,-81.1500,-11.7000,-19.2000,9.8162,0.6991,-3.9002,-0.1833,-0.1242,1.1088,-30.1500,4.0500,15.3000,6.3900,-0.9500,-7.5400,0.0654,-0.3174,-0.0120,-27.6875,-4.5000,31.5000,96.6875,39.3750,170.5000,0
1776971051.462,11.1330,1.9321,-1.5826,0.7288,-0.5865,0.5399,-81.1500,-11.7000,-19.2000,9.5529,0.4310,-4.6136,-0.4471,-0.0474,1.2073,-30.1500,4.0500,15.3000,6.3900,-0.9500,-7.5400,0.0654,-0.3174,-0.0120,-27.6875,-4.5000,31.5000,96.6875,39.3750,170.5000,0
1776971051.467,11.1330,1.9321,-1.5826,0.7288,-0.5865,0.5399,-82.5000,-12.3000,-18.6000,9.5529,0.4310,-4.6136,-0.4471,-0.0474,1.2073,-30.1500,4.0500,15.3000,6.3500,-1.3400,-7.6000,0.1047,-0.3676,0.0153,-26.5625,-4.5000,29.8750,96.6875,39.1250,170.5000,0
1776971051.472,11.3222,1.6305,-2.2865,0.8090,-0.7410,0.4562,-82.5000,-12.3000,-18.6000,9.7516,0.0335,-5.0757,-0.6696,0.0309,1.2921,-31.0500,3.4500,15.4500,6.3500,-1.3400,-7.6000,0.1047,-0.3676,0.0153,-26.5625,-4.5000,29.8750,96.6875,39.1250,170.5000,0
1776971051.477,11.3222,1.6305,-2.2865,0.8090,-0.7410,0.4562,-82.3500,-11.2500,-19.2000,9.7516,0.0335,-5.0757,-0.6696,0.0309,1.2921,-31.0500,3.4500,15.4500,5.9600,-1.3600,-7.8300,0.1254,-0.4374,0.0164,-26.5625,-4.5000,29.8750,96.6250,38.9375,170.4375,0
1776971051.482,11.5329,1.1516,-2.8946,0.7954,-0.9590,0.3890,-82.3500,-11.2500,-19.2000,10.0868,0.3328,-4.4532,-0.8364,0.1100,1.3704,-29.1000,3.1500,15.4500,5.9600,-1.3600,-7.8300,0.2073,-0.5552,-0.0229,-26.5625,-4.5000,29.8750,96.5625,38.6250,170.3750,0
1776971051.488,11.5329,1.1516,-2.8946,0.7954,-0.9590,0.3890,-82.3500,-11.2500,-19.2000,10.0868,0.3328,-4.4532,-0.8364,0.1100,1.3704,-29.1000,3.1500,15.4500,5.7800,-2.4200,-7.7600,0.2073,-0.5552,-0.0229,-26.5625,-4.5000,29.8750,96.5000,38.3125,170.3125,0
1776971051.497,11.5855,1.0271,-3.2250,0.7144,-1.2244,0.3280,-81.1500,-12.9000,-18.7500,10.3166,1.0008,-4.7812,-1.0030,0.2289,1.4381,-30.1500,1.8000,14.2500,6.0700,-1.1500,-7.8800,0.2411,-0.5738,-0.0404,-26.5625,-4.5000,29.8750,96.5000,38.3125,170.3125,0
1776971051.507,11.3749,1.0175,-3.3639,0.5953,-1.4858,0.2539,-81.1500,-12.9000,-18.7500,10.1155,1.5897,-4.3287,-0.9840,0.3086,1.4538,-28.8000,3.1500,13.9500,6.5500,-0.6000,-8.1800,0.1211,-0.4385,-0.0131,-26.5625,-4.5000,29.8750,96.4375,38.0625,170.2500,0
1776971051.512,11.2815,1.0271,-3.1627,0.5193,-1.6745,0.1998,-81.1500,-12.9000,-18.7500,10.2256,1.7741,-3.5099,-0.7783,0.3778,1.4605,-28.8000,3.1500,13.9500,6.5500,-0.6000,-8.1800,0.1211,-0.4385,-0.0131,-26.5625,-4.5000,29.8750,96.4375,37.8750,170.2500,0
1776971051.517,10.8170,1.1372,-2.6025,0.5193,-1.6745,0.1998,-81.3000,-11.4000,-18.7500,10.2256,1.7741,-3.5099,-0.7783,0.3778,1.4605,-28.8000,3.1500,13.9500,5.9400,0.7800,-9.2700,0.0840,-0.3807,0.0338,-27.2500,-3.7500,31.8750,96.4375,37.8750,170.2500,0
1776971051.522,10.8170,1.1372,-2.6025,0.4530,-1.7232,0.1644,-81.3000,-11.4000,-21.9000,10.6063,2.0494,-2.8156,-0.5926,0.4842,1.4671,-28.0500,2.4000,14.4000,5.9400,0.7800,-9.2700,0.0840,-0.3807,0.0338,-27.2500,-3.7500,31.8750,96.4375,37.7500,170.1250,0
1776971051.527,10.8912,1.3336,-2.1500,0.4530,-1.7232,0.1644,-81.3000,-11.4000,-21.9000,10.5752,2.0518,-2.2122,-0.4093,0.5436,1.4194,-28.0500,2.4000,14.4000,6.5500,1.2100,-9.1400,0.1724,-0.1800,0.1353,-27.2500,-3.7500,31.8750,96.4375,37.7500,170.1250,0
1776971051.534,10.8912,1.3336,-2.1500,0.5721,-1.8530,0.1199,-81.1500,-12.4500,-21.7500,10.5752,2.0518,-2.2122,-0.4093,0.5436,1.4194,-30.1500,0.3000,14.2500,7.4600,3.6700,-10.1300,0.4614,0.4985,0.3163,-27.2500,-3.7500,31.8750,96.5625,38.0000,169.6875,0
1776971051.539,10.6255,1.3120,-1.4006,0.6603,-1.8623,0.0855,-81.0000,-13.0500,-21.9000,10.7811,2.0614,-2.0087,-0.1815,0.6187,1.3627,-30.1500,0.3000,14.2500,7.4600,3.6700,-10.1300,0.4614,0.4985,0.3163,-27.2500,-3.7500,31.8750,96.6250,38.1250,168.8125,0
1776971051.548,10.3094,1.3695,-0.7853,0.7240,-1.7853,0.0711,-81.0000,-13.0500,-21.9000,10.4579,1.8723,-1.0463,0.0069,0.6467,1.3225,-29.1000,0.4500,16.2000,7.9800,-0.6600,-5.3500,1.0821,0.3938,0.4472,-27.2500,-3.7500,31.8750,96.6250,38.1250,168.8125,0
1776971051.558,10.3166,1.8411,-0.4166,0.8050,-1.7970,0.0413,-80.4000,-13.6500,-21.7500,10.1251,1.5419,-0.3711,0.2590,0.7107,1.2729,-28.2000,-0.3000,15.3000,10.4700,-0.7000,-10.1400,2.1195,-0.7439,0.1309,-27.2500,-3.7500,31.8750,96.2500,37.7500,167.6875,0
1776971051.562,10.3166,1.8411,-0.4166,0.8050,-1.7970,0.0413,-80.4000,-13.6500,-21.7500,10.1251,1.5419,-0.3711,0.2590,0.7107,1.2729,-28.5000,0.1500,17.2500,10.4700,-0.7000,-10.1400,2.1195,-0.7439,0.1309,-27.2500,-3.7500,31.8750,96.5625,37.1875,166.0000,0
1776971051.568,9.8761,2.2290,-0.0670,0.8636,-1.7682,-0.0322,-80.4000,-13.6500,-21.7500,10.5010,1.0080,0.3280,0.4818,0.7253,1.2843,-28.5000,0.1500,17.2500,8.0200,2.7700,-10.6000,2.1948,-0.7210,1.3417,-26.1875,-3.7500,31.0625,96.5625,37.1875,166.0000,0
1776971051.573,9.8761,2.2290,-0.0670,0.8636,-1.7682,-0.0322,-78.9000,-12.9000,-23.7000,10.5010,1.0080,0.3280,0.4818,0.7253,1.2843,-28.5000,0.1500,17.2500,8.0200,2.7700,-10.6000,2.1948,-0.7210,1.3417,-26.1875,-3.7500,31.0625,96.8125,36.5625,164.3125,0
1776971051.578,9.5265,2.4062,0.1748,0.9491,-1.5681,-0.0951,-78.9000,-12.9000,-23.7000,10.2161,0.4956,0.8787,0.7970,0.7229,1.2231,-28.5000,0.1500,17.2500,8.9300,3.0500,-9.4500,2.1948,-0.7210,1.3417,-26.1875,-3.7500,31.0625,96.8125,36.5625,164.3125,0
1776971051.584,9.5265,2.4062,0.1748,0.9491,-1.5681,-0.0951,-78.9000,-12.9000,-23.7000,10.2161,0.4956,0.8787,0.7970,0.7229,1.2231,-27.0000,-2.4000,18.6000,9.4500,3.5700,-9.9200,2.8787,0.4625,1.7868,-26.1875,-3.7500,31.0625,97.3125,36.5625,161.9375,0
1776971051.589,9.5984,2.5474,0.5195,1.0104,-1.3702,-0.1420,-79.6500,-13.2000,-24.3000,10.4914,0.4070,1.5754,1.0651,0.6813,1.2076,-27.9000,-2.4000,18.6000,9.4500,3.5700,-9.9200,2.8787,0.4625,1.7868,-26.1875,-3.7500,31.0625,97.7500,36.1250,158.7500,0
1776971051.598,9.8162,2.4541,0.8859,1.0296,-1.1975,-0.1743,-79.6500,-13.2000,-24.3000,10.5943,0.2155,2.2889,1.3438,0.6752,1.1908,-27.9000,-1.5000,17.1000,8.4400,3.4600,-9.1000,4.1888,0.0076,2.1991,-26.1875,-3.7500,31.0625,98.0625,35.6875,155.2500,0
1776971051.608,9.9886,2.3343,1.2330,1.0690,-1.0709,-0.2388,-79.6500,-13.2000,-24.3000,10.6590,-0.3950,2.5211,1.6651,0.6371,1.1719,-27.6000,-1.5000,16.6500,8.0700,2.6300,-8.4900,4.8956,-0.0164,2.1718,-26.1875,-3.7500,31.0625,98.0625,35.6875,155.2500,0
1776971051.613,9.9886,2.3343,1.2330,1.0690,-1.0709,-0.2388,-79.0500,-12.6000,-24.1500,10.6590,-0.3950,2.5211,1.6651,0.6371,1.1719,-27.1500,-3.0000,17.4000,8.0700,2.6300,-8.4900,4.8956,-0.0164,2.1718,-26.1875,-3.7500,31.0625,98.1875,35.2500,151.6875,0
1776971051.618,10.1131,2.0255,1.7573,1.1202,-0.9737,-0.3251,-79.0500,-12.6000,-24.1500,10.1993,-0.5650,2.8994,1.9284,0.6153,1.1836,-27.1500,-3.0000,17.4000,4.9900,1.9000,-7.8700,5.1280,0.1647,1.9482,-25.8750,0.5625,32.2500,98.1875,35.2500,151.6875,0
1776971051.623,10.1131,2.0255,1.7573,1.1202,-0.9737,-0.3251,-76.6500,-12.9000,-24.0000,10.1993,-0.5650,2.8994,1.9284,0.6153,1.1836,-27.0000,-4.2000,19.0500,4.9900,1.9000,-7.8700,5.1280,0.1647,1.9482,-25.8750,0.5625,32.2500,24.6875,35.2500,148.2500,0
1776971051.628,10.1873,1.6209,2.2936,1.1133,-0.8711,-0.4271,-76.6500,-12.9000,-24.0000,10.0485,-0.9194,3.2298,2.2103,0.6755,1.2500,-27.0000,-4.2000,19.0500,7.8500,4.3300,-6.5400,5.2403,0.6949,1.2261,-25.8750,0.5625,32.2500,24.6875,35.2500,148.2500,0
1776971051.635,10.2568,1.4150,2.8132,1.1708,-0.7376,-0.5036,-78.4500,-12.4500,-24.3000,10.4124,-0.1125,4.5873,2.7232,0.6723,1.3488,-27.0000,-4.2000,19.0500,13.3800,5.3400,-8.6100,5.1127,0.8432,-0.5683,-25.8750,0.5625,32.2500,20.5000,35.8125,145.3750,0
1776971051.640,10.2568,1.4150,2.8132,1.1708,-0.7376,-0.5036,-78.0000,-13.5000,-26.1000,10.4124,-0.1125,4.5873,2.7232,0.6723,1.3488,-26.2500,-4.6500,20.7000,13.3800,5.3400,-8.6100,5.1127,0.8432,-0.5683,-25.8750,0.5625,32.2500,18.0000,36.6250,143.9375,0
1776971051.648,10.2328,1.7382,2.9664,1.2854,-0.6643,-0.6097,-78.0000,-13.5000,-26.1000,10.5608,0.5986,5.4348,2.9940,0.6406,1.3949,-25.2000,-4.6500,21.4500,16.4100,1.0900,-11.3600,4.0808,0.0196,-2.5176,-25.8750,0.5625,32.2500,16.2500,37.3125,143.7500,0
1776971051.658,10.0844,2.0949,3.5745,1.3249,-0.5806,-0.7506,-78.0000,-13.5000,-26.1000,10.7571,1.4150,5.2433,3.0838,0.5782,1.4043,-24.1500,-5.7000,21.4500,11.2900,5.8000,-8.4000,3.1121,-1.1748,-3.6586,-25.8750,0.5625,32.2500,16.2500,37.3125,143.7500,0
1776971051.663,9.5888,2.2960,4.4365,1.2998,-0.4066,-0.8652,-76.6500,-13.6500,-24.7500,10.2879,1.6831,5.1547,3.3961,0.4130,1.3089,-24.1500,-5.7000,21.4500,11.2900,5.8000,-8.4000,3.1121,-1.1748,-3.6586,-25.8750,0.5625,32.2500,14.5000,38.0000,143.8750,0
1776971051.668,9.5888,2.2960,4.4365,1.2998,-0.4066,-0.8652,-76.6500,-13.6500,-24.7500,10.2879,1.6831,5.1547,3.3961,0.4130,1.3089,-25.9500,-6.9000,22.5000,6.3100,6.9800,-6.1100,3.1438,-1.5708,-4.1855,-25.0625,10.8750,28.0000,14.5000,38.0000,143.8750,0
1776971051.673,9.4188,2.4708,5.0350,1.4083,-0.1895,-0.9470,-76.6500,-13.6500,-24.7500,9.3589,1.9896,5.1475,3.9708,0.2425,1.1239,-25.9500,-6.9000,22.5000,6.3100,6.9800,-6.1100,3.1438,-1.5708,-4.1855,-25.0625,10.8750,28.0000,12.6250,38.8750,143.7500,0
1776971051.678,9.4188,2.4708,5.0350,1.4083,-0.1895,-0.9470,-76.6500,-13.6500,-24.7500,9.3589,1.9896,5.1475,3.9708,0.2425,1.1239,-25.9500,-6.9000,22.5000,7.1700,3.0100,-5.6700,3.6510,-1.2752,-4.4179,-25.0625,10.8750,28.0000,12.6250,38.8750,143.7500,0
1776971051.683,9.5433,2.3583,4.7453,1.7056,-0.0125,-1.0003,-76.8000,-12.3000,-25.6500,8.5641,1.8124,5.2409,4.6245,0.0576,0.9443,-25.9500,-6.9000,22.5000,7.1700,3.0100,-5.6700,3.9913,-1.2599,-4.4822,-25.0625,10.8750,28.0000,10.5625,39.7500,143.5000,0
1776971051.689,9.5433,2.3583,4.7453,1.7056,-0.0125,-1.0003,-76.8000,-12.3000,-25.6500,8.5641,1.8124,5.2409,4.6245,0.0576,0.9443,-23.7000,-7.9500,22.9500,7.5400,0.5600,-6.3400,3.9913,-1.2599,-4.4822,-25.0625,10.8750,28.0000,8.5000,40.6250,143.3750,0
1776971051.698,9.5098,2.3631,4.2186,2.1160,0.0858,-1.0563,-77.2500,-11.8500,-24.6000,8.5569,1.4198,5.1811,5.1163,-0.1026,0.7951,-23.5500,-9.0000,24.1500,7.1600,-1.5100,-6.5100,3.9488,-1.3526,-4.4833,-25.0625,10.8750,28.0000,8.5000,40.6250,143.3750,0
1776971051.708,9.0764,2.4732,3.9816,2.4666,0.2076,-1.1181,-76.5000,-11.8500,-24.6000,8.3270,1.0606,4.8315,5.4398,-0.2308,0.6710,-22.8000,-7.5000,25.9500,6.3900,-2.5900,-6.4500,3.6248,-1.4323,-4.4397,-25.0625,10.8750,28.0000,6.6875,41.4375,143.5000,0
1776971051.713,8.9256,2.6169,4.0725,2.7448,0.3952,-1.1804,-76.8000,-11.4000,-24.9000,8.3342,0.0168,4.6663,5.5118,-0.3091,0.5971,-22.8000,-7.5000,25.9500,6.3900,-2.5900,-6.4500,3.6248,-1.4323,-4.4397,-25.0625,10.8750,28.0000,6.6875,41.4375,143.5000,0
1776971051.718,8.9256,2.6169,4.0725,2.7448,0.3952,-1.1804,-76.8000,-11.4000,-24.9000,8.3342,0.0168,4.6663,5.5118,-0.3091,0.5971,-22.6500,-8.7000,25.3500,5.8800,-2.3100,-5.9000,3.2627,-1.3483,-4.3055,-25.1875,11.0625,24.0625,5.2500,42.2500,143.8125,0
1776971051.723,9.1219,2.4325,3.7972,3.0502,0.5849,-1.2052,-76.8000,-10.3500,-22.3500,8.6239,-1.0391,5.1068,5.5773,-0.4125,0.5319,-22.6500,-8.7000,25.3500,5.8800,-2.3100,-5.9000,3.2627,-1.3483,-4.3055,-25.1875,11.0625,24.0625,5.2500,42.2500,143.8125,0
1776971051.728,9.1219,2.4325,3.7972,3.0502,0.5849,-1.2052,-76.8000,-10.3500,-22.3500,8.6239,-1.0391,5.1068,5.5773,-0.4125,0.5319,-23.4000,-9.1500,27.9000,6.3500,-2.1500,-5.9800,3.0947,-1.2785,-4.0797,-25.1875,11.0625,24.0625,3.8750,43.0000,144.1875,0
1776971051.734,9.4451,2.0638,3.0311,3.4432,0.6243,-1.2343,-76.6500,-11.2500,-22.2000,8.9040,-1.9513,5.2936,5.4766,-0.4983,0.5239,-23.4000,-9.1500,27.9000,6.5100,-2.1400,-6.3500,3.0609,-1.3166,-3.8135,-25.1875,11.0625,24.0625,2.3750,43.6875,144.5000,0
1776971051.739,9.7947,1.6472,2.4517,3.4432,0.6243,-1.2343,-76.6500,-11.2500,-22.2000,8.9040,-1.9513,5.2936,5.4766,-0.4983,0.5239,-23.4000,-9.1500,27.9000,6.5100,-2.1400,-6.3500,3.0609,-1.3166,-3.8135,-25.1875,11.0625,24.0625,0.6875,44.1875,144.8125,0
1776971051.748,10.0317,1.2905,2.1596,3.7539,0.5473,-1.2830,-76.6500,-11.2500,-22.2000,9.1650,-2.8659,5.1284,5.1787,-0.5913,0.5431,-20.7000,-7.5000,29.5500,6.4600,-1.9400,-6.8400,3.0609,-1.3995,-3.5517,-25.1875,11.0625,24.0625,0.6875,44.1875,144.8125,0
1776971051.758,10.2041,0.5626,2.0566,3.8941,0.4583,-1.3352,-76.5000,-10.3500,-23.1000,9.2488,-3.4500,5.0326,4.6849,-0.7069,0.5622,-19.5000,-7.8000,30.1500,6.2700,-1.8300,-6.8700,3.0478,-1.4901,-3.3390,-25.1875,11.0625,24.0625,358.8750,44.5625,145.0625,0
1776971051.763,10.2041,0.5626,2.0566,3.9234,0.4255,-1.3843,-76.5000,-10.3500,-23.1000,9.3302,-3.7062,4.8411,4.1560,-0.8383,0.5692,-19.5000,-7.8000,30.1500,6.2700,-1.8300,-6.8700,3.0478,-1.4901,-3.3390,-25.1875,11.0625,24.0625,357.0000,44.8750,145.3125,0
1776971051.768,10.5584,0.0527,1.9178,3.9234,0.4255,-1.3843,-76.5000,-10.3500,-23.1000,9.3302,-3.7062,4.8411,4.1560,-0.8383,0.5692,-20.7000,-8.2500,31.3500,6.3900,-1.6900,-7.0400,2.9834,-1.5610,-3.1689,-23.7500,8.3750,19.8750,357.0000,44.8750,145.3125,0
1776971051.773,10.5584,0.0527,1.9178,3.9623,0.4018,-1.4088,-78.1500,-9.0000,-21.4500,9.1985,-3.6009,4.6735,3.6900,-0.9670,0.5375,-20.7000,-8.2500,31.3500,6.3900,-1.6900,-7.0400,2.9834,-1.5610,-3.1689,-23.7500,8.3750,19.8750,357.0000,44.8750,145.3125,0
1776971051.778,10.7476,-0.0790,1.8268,4.0169,0.3523,-1.4186,-78.1500,-9.0000,-21.4500,9.1985,-3.6009,4.6735,3.6900,-0.9670,0.5375,-21.3000,-7.8000,32.4000,6.6300,-1.2300,-7.4600,2.8700,-1.6450,-3.0260,-23.7500,8.3750,19.8750,355.1250,45.0625,145.6250,0
1776971051.783,10.7476,-0.0790,1.8268,4.0169,0.3523,-1.4186,-76.9500,-9.7500,-21.7500,9.1602,-3.3878,4.5083,3.3318,-1.0605,0.4855,-21.3000,-7.8000,32.4000,6.6300,-1.2300,-7.4600,2.7303,-1.7530,-2.9082,-23.7500,8.3750,19.8750,353.2500,45.1250,146.0000,0
1776971051.789,10.8625,0.0144,1.8268,4.1216,0.2902,-1.3933,-76.9500,-9.7500,-21.7500,8.9807,-2.9329,4.3431,3.1256,-1.1546,0.3968,-21.3000,-7.8000,32.4000,6.6200,-0.9900,-7.3600,2.7303,-1.7530,-2.9082,-23.7500,8.3750,19.8750,351.3750,45.1250,146.4375,0
1776971051.798,10.7739,0.1149,1.7837,4.1392,0.2563,-1.3590,-76.8000,-9.1500,-20.8500,8.9399,-2.5618,4.4245,3.0752,-1.2367,0.2737,-21.3000,-7.8000,32.4000,6.4600,-0.7000,-7.1500,2.5831,-1.8468,-2.7991,-23.7500,8.3750,19.8750,351.3750,45.1250,146.4375,0
1776971051.808,10.9630,0.1006,1.4868,4.1134,0.2300,-1.3342,-76.6500,-7.8000,-21.7500,9.0357,-2.2601,4.3814,3.1205,-1.3326,0.1484,-21.0000,-8.2500,31.9500,6.4900,-0.4800,-7.1400,2.4173,-1.9057,-2.6987,-23.7500,8.3750,19.8750,349.5625,45.0625,146.9375,0
1776971051.813,10.9630,0.1006,1.4868,4.1134,0.2300,-1.3342,-76.9500,-8.1000,-22.5000,9.0357,-2.2601,4.3814,3.1205,-1.3326,0.1484,-21.0000,-8.2500,31.9500,6.4900,-0.4800,-7.1400,2.4173,-1.9057,-2.6987,-23.7500,8.3750,19.8750,349.5625,45.0625,146.9375,0
1776971051.818,11.0253,0.0503,1.2330,4.0633,0.2060,-1.3193,-76.9500,-8.1000,-22.5000,9.2727,-2.1668,4.3072,3.1912,-1.4173,0.0336,-20.2500,-8.5500,32.7000,6.7500,0.0500,-7.2100,2.2373,-1.9591,-2.6191,-22.2500,7.1875,17.6875,347.8125,44.9375,147.5000,0
1776971051.823,11.0253,0.0503,1.2330,4.0633,0.2060,-1.3193,-76.0500,-7.5000,-20.8500,9.2727,-2.1668,4.3072,3.1912,-1.4173,0.0336,-20.2500,-8.5500,32.7000,6.7500,0.0500,-7.2100,2.2373,-1.9591,-2.6191,-22.2500,7.1875,17.6875,347.8125,44.9375,147.5000,0
1776971051.828,11.2887,-0.2131,1.1013,3.9746,0.1735,-1.3003,-76.0500,-7.5000,-20.8500,9.5122,-2.2242,4.2210,3.2756,-1.5140,-0.0959,-19.9500,-9.3000,31.9500,6.8500,0.4100,-7.2600,2.0584,-2.0082,-2.5689,-22.2500,7.1875,17.6875,346.1875,44.7500,148.1875,0
1776971051.833,11.2887,-0.2131,1.1013,3.9746,0.1735,-1.3003,-76.0500,-7.5000,-20.8500,9.5122,-2.2242,4.2210,3.2756,-1.5140,-0.0959,-19.9500,-9.3000,31.9500,6.8500,0.4100,-7.2600,1.8948,-2.0442,-2.5569,-22.2500,7.1875,17.6875,344.6250,44.5625,148.8750,0
1776971051.839,11.3701,-0.4166,1.0630,3.8357,0.1447,-1.2881,-76.0500,-7.5000,-20.8500,9.6007,-2.3032,4.0055,3.3454,-1.6182,-0.1966,-21.1500,-9.4500,31.8000,6.9800,0.7300,-7.3300,1.8948,-2.0442,-2.5569,-22.2500,7.1875,17.6875,343.1875,44.3125,149.6875,0
1776971051.848,11.3054,-0.5267,0.8475,3.6465,0.1370,-1.2993,-76.0500,-7.9500,-20.1000,9.6965,-2.5163,3.8571,3.3700,-1.7046,-0.2939,-21.1500,-9.4500,31.8000,7.3300,1.2900,-7.5700,1.7639,-2.0759,-2.5798,-22.2500,7.1875,17.6875,343.1875,44.3125,149.6875,0
1776971051.858,11.1235,-0.5483,0.6440,3.4560,0.1391,-1.3043,-76.0500,-7.9500,-20.1000,9.7300,-2.8874,3.6152,3.3414,-1.7571,-0.3693,-22.5000,-8.2500,31.3500,7.4400,1.4400,-7.6800,1.6952,-2.1086,-2.6420,-22.2500,7.1875,17.6875,341.8125,44.0000,150.5625,0
1776971051.863,11.0133,-0.5650,0.4022,3.4560,0.1391,-1.3043,-76.5000,-6.7500,-22.6500,9.7300,-2.8874,3.6152,3.3414,-1.7571,-0.3693,-22.5000,-8.2500,31.3500,7.4400,1.4400,-7.6800,1.6952,-2.1086,-2.6420,-22.2500,7.1875,17.6875,341.8125,44.0000,150.5625,0
1776971051.868,11.0133,-0.5650,0.4022,3.3183,0.1236,-1.2894,-76.5000,-6.7500,-22.6500,9.7803,-3.0742,3.4093,3.2823,-1.8186,-0.4477,-21.3000,-8.2500,31.6500,7.6900,1.4800,-7.8400,1.6755,-2.1566,-2.7162,-19.6875,7.6875,15.7500,340.4375,43.6875,151.4375,0
1776971051.873,10.8338,-0.7566,0.1437,3.3183,0.1236,-1.2894,-74.8500,-7.2000,-20.8500,9.7803,-3.0742,3.4093,3.2823,-1.8186,-0.4477,-21.3000,-8.2500,31.6500,7.6900,1.4800,-7.8400,1.6755,-2.1566,-2.7162,-19.6875,7.6875,15.7500,340.4375,43.6875,151.4375,0
1776971051.878,10.8338,-0.7566,0.1437,3.2247,0.0922,-1.2772,-74.8500,-7.2000,-20.8500,9.8186,-3.3184,3.1292,3.1904,-1.8783,-0.5268,-22.5000,-7.8000,30.9000,8.1400,0.7100,-8.3500,1.6690,-2.2133,-2.7816,-19.6875,7.6875,15.7500,339.0625,43.3125,152.3750,0
1776971051.883,10.8769,-0.8930,0.2035,3.2247,0.0922,-1.2772,-75.6000,-7.2000,-20.8500,9.8186,-3.3184,3.1292,3.1904,-1.8783,-0.5268,-22.5000,-7.8000,30.9000,8.1400,0.7100,-8.3500,1.6210,-2.2766,-2.8449,-19.6875,7.6875,15.7500,337.6875,42.9375,153.3125,0
1776971051.889,10.8769,-0.8930,0.2035,3.1269,0.0437,-1.2748,-75.6000,-7.2000,-20.8500,9.8713,-3.4740,2.8850,3.1030,-1.9169,-0.6179,-21.6000,-7.2000,30.7500,8.1900,0.2800,-8.5100,1.6210,-2.2766,-2.8449,-19.6875,7.6875,15.7500,336.3750,42.4375,154.3750,0
1776971051.898,10.8529,-1.0989,0.1341,3.0174,-0.0392,-1.2646,-75.1500,-6.9000,-21.0000,9.8497,-3.5195,2.8467,3.0180,-1.9606,-0.6947,-22.5000,-8.2500,29.5500,8.3200,-0.0600,-8.7000,1.5086,-2.3551,-2.8962,-19.6875,7.6875,15.7500,336.3750,42.4375,154.3750,0
1776971051.908,10.8146,-1.1899,0.1030,2.9239,-0.1434,-1.2500,-75.3000,-6.0000,-21.9000,10.0341,-3.4141,2.8802,2.9607,-2.0368,-0.7746,-22.5000,-8.2500,29.5500,8.4400,-0.2200,-8.8800,1.3843,-2.4489,-2.9125,-19.6875,7.6875,15.7500,335.1875,41.9375,155.4375,0
1776971051.913,10.7141,-1.3503,-0.0311,2.8312,-0.2369,-1.2209,-75.1500,-5.8500,-22.2000,10.0341,-3.4141,2.8802,2.9607,-2.0368,-0.7746,-22.5000,-8.2500,29.5500,8.4400,-0.2200,-8.8800,1.3843,-2.4489,-2.9125,-19.6875,7.6875,15.7500,333.9375,41.2500,156.5625,0
1776971051.918,10.7141,-1.3503,-0.0311,2.8312,-0.2369,-1.2209,-75.1500,-5.8500,-22.2000,9.8737,-3.4620,2.9521,2.8466,-2.0824,-0.8689,-23.4000,-8.7000,28.2000,8.2000,-0.5600,-8.7600,1.2490,-2.5351,-2.8842,-18.2500,10.2500,9.6875,333.9375,41.2500,156.5625,0
1776971051.923,10.5848,-1.3886,-0.1341,2.7267,-0.3003,-1.1858,-75.1500,-5.8500,-22.2000,9.8737,-3.4620,2.9521,2.8466,-2.0824,-0.8689,-22.9500,-9.1500,28.2000,8.2000,-0.5600,-8.7600,1.2490,-2.5351,-2.8842,-18.2500,10.2500,9.6875,333.9375,41.2500,156.5625,0
1776971051.928,10.5848,-1.3886,-0.1341,2.7267,-0.3003,-1.1858,-75.1500,-5.8500,-22.2000,9.9599,-3.5961,2.8874,2.7454,-2.1354,-0.9529,-22.9500,-9.1500,27.9000,7.9400,-0.5600,-8.6700,1.1257,-2.5984,-2.8285,-18.2500,10.2500,9.6875,332.8125,40.5625,157.6875,0
1776971051.936,10.3884,-1.3024,-0.0575,2.6060,-0.3464,-1.1354,-76.5000,-7.2000,-23.1000,9.8976,-3.7206,2.8659,2.6779,-2.2122,-1.0437,-22.9500,-9.4500,28.2000,7.7500,-0.5300,-8.6200,1.0134,-2.6256,-2.7478,-18.2500,10.2500,9.6875,18.5625,39.7500,158.7500,0
1776971051.940,10.0700,-1.2354,-0.1987,2.6060,-0.3464,-1.1354,-76.5000,-7.2000,-23.1000,9.8976,-3.7206,2.8659,2.6779,-2.2122,-1.0437,-22.9500,-9.4500,28.2000,7.7500,-0.5300,-8.6200,1.0134,-2.6256,-2.7478,-18.2500,10.2500,9.6875,16.6875,38.9375,159.8125,0
1776971051.949,10.0700,-1.2354,-0.1987,2.4773,-0.3754,-1.0733,-77.4000,-5.8500,-22.2000,9.7779,-3.8810,2.6983,2.5796,-2.2910,-1.1423,-22.8000,-9.0000,27.3000,7.6000,-0.3600,-8.5300,0.9108,-2.6300,-2.6671,-18.2500,10.2500,9.6875,14.8750,38.0625,160.8125,0
1776971051.959,9.7133,-1.1732,-0.1604,2.3630,-0.3877,-0.9982,-77.2500,-7.2000,-23.8500,9.5457,-3.8283,2.7629,2.4736,-2.3657,-1.2351,-22.8000,-9.0000,27.3000,7.3900,-0.2900,-8.3700,0.8105,-2.6278,-2.5885,-18.2500,10.2500,9.6875,14.8750,38.0625,160.8125,0
1776971051.964,9.5624,-1.3288,-0.2562,2.2399,-0.3848,-0.9041,-74.4000,-5.8500,-23.7000,9.4667,-3.7804,2.5690,2.3513,-2.4213,-1.3286,-22.8000,-9.0000,27.3000,7.3900,-0.2900,-8.3700,0.8105,-2.6278,-2.5885,-18.2500,10.2500,9.6875,14.8750,38.0625,160.8125,0
1776971051.969,9.5624,-1.3288,-0.2562,2.2399,-0.3848,-0.9041,-74.4000,-5.8500,-23.7000,9.4667,-3.7804,2.5690,2.3513,-2.4213,-1.3286,-22.8000,-9.0000,27.3000,7.2500,-0.1300,-8.1700,0.7069,-2.6104,-2.5307,-29.7500,22.5625,10.1875,13.1250,37.1250,161.8125,0
1776971051.973,9.3039,-1.3096,-0.4046,2.1440,-0.3576,-0.8092,-76.9500,-8.1000,-23.2500,9.2392,-3.8427,2.4301,2.2026,-2.4893,-1.4186,-26.1000,-9.7500,23.8500,7.2500,-0.1300,-8.1700,0.7069,-2.6104,-2.5307,-29.7500,22.5625,10.1875,13.1250,37.1250,161.8125,0
1776971051.979,9.0692,-1.2977,-0.5387,2.1440,-0.3576,-0.8092,-76.9500,-8.1000,-23.2500,9.2392,-3.8427,2.4301,2.2026,-2.4893,-1.4186,-26.1000,-9.7500,23.8500,7.1800,0.0100,-8.0300,0.6250,-2.5580,-2.4871,-29.7500,22.5625,10.1875,11.4375,36.1875,162.7500,0
1776971051.979,9.0692,-1.2977,-0.5387,2.1440,-0.3576,-0.8092,-76.9500,-8.1000,-23.2500,9.2392,-3.8427,2.4301,2.2026,-2.4893,-1.4186,-26.1000,-9.7500,23.8500,7.1800,0.0100,-8.0300,0.6250,-2.5580,-2.4871,-29.7500,22.5625,10.1875,11.4375,36.1875,162.7500,0
1776971051.983,9.0692,-1.2977,-0.5387,2.0723,-0.3397,-0.7173,-75.4500,-6.1500,-23.7000,9.0453,-3.5123,2.4636,2.0859,-2.5562,-1.5191,-26.2500,-9.9000,21.9000,7.1800,0.0100,-8.0300,0.5760,-2.5067,-2.4555,-29.7500,22.5625,10.1875,9.7500,35.2500,163.6875,0
1776971051.989,8.6431,-1.2761,-0.7278,2.0147,-0.3158,-0.6166,-75.4500,-6.1500,-23.7000,9.0453,-3.5123,2.4636,2.0859,-2.5562,-1.5191,-26.2500,-9.9000,21.9000,7.5300,0.2100,-8.1100,0.5760,-2.5067,-2.4555,-29.7500,22.5625,10.1875,8.1875,34.3125,164.5625,0
1776971051.999,8.4180,-1.1803,-0.9266,2.0147,-0.3158,-0.6166,-75.4500,-6.1500,-23.7000,8.6790,-3.4500,2.6647,2.0550,-2.6127,-1.6265,-25.6500,-10.5000,21.3000,8.1600,0.2200,-8.6200,0.5356,-2.4664,-2.4140,-29.7500,22.5625,10.1875,8.1875,34.3125,164.5625,0
1776971052.009,9.3565,-0.8571,-1.1851,1.9937,-0.3675,-0.3909,-74.7000,-5.8500,-22.9500,9.0142,-2.9808,2.5498,2.0355,-2.6324,-1.7139,-24.7500,-10.6500,20.4000,8.7300,0.1900,-8.9600,0.4941,-2.4740,-2.3769,-29.7500,22.5625,10.1875,6.6250,33.3125,165.3750,0
1776971052.013,9.3565,-0.8571,-1.1851,1.9937,-0.3675,-0.3909,-74.7000,-5.8500,-22.9500,9.0692,-3.0694,2.9880,2.0901,-2.7291,-1.7880,-24.7500,-10.6500,20.4000,8.7300,0.1900,-8.9600,0.4941,-2.4740,-2.3769,-29.7500,22.5625,10.1875,5.0625,32.2500,166.1250,0
1776971052.019,7.8673,-0.8787,-0.9912,1.8242,-0.1490,-0.3043,-74.7000,-5.8500,-22.9500,9.0692,-3.0694,2.9880,2.0901,-2.7291,-1.7880,-24.7500,-10.6500,20.4000,9.1300,0.2300,-8.9700,0.4778,-2.5373,-2.3300,-38.8750,39.6875,28.5625,5.0625,32.2500,166.1250,0
1776971052.023,7.8673,-0.8787,-0.9912,1.8242,-0.1490,-0.3043,-74.8500,-9.1500,-24.6000,9.6007,-2.3104,2.0949,1.9926,-2.7035,-1.8085,-26.4000,-12.0000,18.4500,9.1300,0.2300,-8.9700,0.4778,-2.5373,-2.3300,-38.8750,39.6875,28.5625,3.5625,31.1875,166.8125,0
1776971052.029,8.3486,-0.6201,-1.1253,1.7158,-0.1857,-0.2395,-74.8500,-9.1500,-24.6000,9.6007,-2.3104,2.0949,1.9926,-2.7035,-1.8085,-26.4000,-12.0000,18.4500,9.2500,0.3100,-8.6200,0.4734,-2.5929,-2.3115,-38.8750,39.6875,28.5625,3.5625,31.1875,166.8125,0
1776971052.037,7.8602,-0.3759,-0.8619,1.7158,-0.1857,-0.2395,-73.8000,-7.5000,-25.6500,9.5337,-2.1524,2.0925,2.0113,-2.7057,-1.8008,-25.5000,-11.7000,16.8000,9.1700,0.2800,-8.1000,0.4701,-2.6027,-2.3420,-38.8750,39.6875,28.5625,2.0625,30.0625,167.5000,0
1776971052.042,7.8602,-0.3759,-0.8619,1.5226,0.0733,-0.1711,-73.8000,-7.5000,-25.6500,9.3637,-1.9585,2.3559,2.1690,-2.7216,-1.8085,-25.6500,-12.3000,15.3000,9.1700,0.2800,-8.1000,0.4701,-2.6027,-2.3420,-38.8750,39.6875,28.5625,0.5000,28.9375,168.1875,0
1776971052.049,8.1307,0.1844,-0.8595,1.6020,0.1079,-0.1191,-76.2000,-9.7500,-24.0000,9.3637,-1.9585,2.3559,2.1690,-2.7216,-1.8085,-25.6500,-12.3000,15.3000,8.7000,-0.9500,-6.7000,0.4538,-2.5471,-2.4206,-38.8750,39.6875,28.5625,358.8750,27.8750,168.8750,0
1776971052.059,7.8889,0.5555,-0.5483,1.6795,0.1447,-0.1045,-75.1500,-8.1000,-24.3000,9.3182,-2.3320,2.4708,2.2679,-2.7552,-1.7632,-27.7500,-11.4000,16.5000,8.3200,-1.7200,-6.1700,0.3883,-2.4315,-2.5525,-38.8750,39.6875,28.5625,358.8750,27.8750,168.8750,0
1776971052.064,7.8889,0.5555,-0.5483,1.6795,0.1447,-0.1045,-74.8500,-9.9000,-24.1500,9.8067,-2.5762,2.4325,2.2183,-2.6849,-1.6771,-26.7000,-12.4500,14.4000,8.3200,-1.7200,-6.1700,0.3883,-2.4315,-2.5525,-38.8750,39.6875,28.5625,357.2500,26.9375,169.5625,0
1776971052.069,7.7500,0.3567,-0.1556,1.6968,0.2049,-0.0874,-74.8500,-9.9000,-24.1500,9.8067,-2.5762,2.4325,2.1104,-2.7014,-1.5543,-26.7000,-12.4500,14.4000,8.1000,-1.9300,-5.5000,0.2705,-2.2395,-2.7009,-40.5625,54.5000,50.7500,357.2500,26.9375,169.5625,0
1776971052.074,7.7500,0.3567,-0.1556,1.6968,0.2049,-0.0874,-74.7000,-10.9500,-25.0500,9.7085,-2.9856,1.9417,2.1104,-2.7014,-1.5543,-26.7000,-12.4500,14.4000,8.1000,-1.9300,-5.5000,0.2705,-2.2395,-2.7009,-40.5625,54.5000,50.7500,355.5625,26.1250,170.3750,0
1776971052.079,7.7141,0.2107,-0.3136,1.6486,0.3720,-0.0163,-74.7000,-10.9500,-25.0500,9.4020,-3.1268,1.5850,2.0496,-2.6692,-1.4365,-26.7000,-12.4500,14.4000,8.7500,-2.1000,-5.0300,0.1865,-2.0071,-2.8067,-40.5625,54.5000,50.7500,355.5625,26.1250,170.3750,0
1776971052.085,7.8219,0.3089,-0.7805,1.6486,0.3720,-0.0163,-74.7000,-10.9500,-25.0500,9.4020,-3.1268,1.5850,2.0496,-2.6692,-1.4365,-27.0000,-13.9500,12.1500,11.0300,-1.5700,-4.8100,0.1614,-1.7333,-2.8602,-40.5625,54.5000,50.7500,353.8750,25.4375,171.1250,0
1776971052.090,7.8219,0.3089,-0.7805,1.6894,0.5012,0.0727,-74.7000,-10.9500,-25.0500,8.6646,-3.2322,1.1396,1.9420,-2.5698,-1.3563,-27.0000,-13.9500,12.1500,11.0300,-1.5700,-4.8100,0.1614,-1.7333,-2.8602,-40.5625,54.5000,50.7500,352.1875,24.8125,171.7500,0
1776971052.099,7.9535,0.4046,-1.2019,1.5836,0.6235,0.1927,-76.2000,-11.2500,-24.0000,8.1714,-2.7940,0.5890,1.6979,-2.3979,-1.3102,-28.8000,-15.9000,11.8500,12.1100,-1.4500,-3.9900,0.2858,-1.6286,-2.8416,-40.5625,54.5000,50.7500,352.1875,24.8125,171.7500,0
1776971052.109,8.3007,0.6057,-1.9249,1.4117,0.6744,0.3277,-76.2000,-11.2500,-24.0000,7.7261,-2.2410,0.1939,1.4525,-2.1927,-1.2700,-27.0000,-17.4000,11.5500,13.6100,-1.2600,-3.8600,0.4778,-1.6002,-2.7653,-40.5625,54.5000,50.7500,350.5625,24.1250,172.1875,0
1776971052.114,8.5353,1.0080,-2.9449,1.4117,0.6744,0.3277,-74.8500,-11.1000,-23.4000,7.7261,-2.2410,0.1939,1.4525,-2.1927,-1.2700,-27.3000,-14.4000,11.8500,13.6100,-1.2600,-3.8600,0.4778,-1.6002,-2.7653,-40.5625,54.5000,50.7500,350.5625,24.1250,172.1875,0
1776971052.119,8.5353,1.0080,-2.9449,1.3398,0.6584,0.4391,-74.8500,-11.1000,-23.4000,7.8386,-1.1708,0.7661,1.3118,-1.8426,-1.2281,-27.3000,-14.4000,11.8500,17.0700,-1.3500,-3.1400,0.7079,-1.6341,-2.6354,-37.1875,55.8750,67.1875,348.9375,23.4375,172.5000,0
1776971052.124,8.5497,1.6640,-3.9480,1.3741,0.6403,0.5145,-74.7000,-13.9500,-25.5000,7.8386,-1.1708,0.7661,1.3118,-1.8426,-1.2281,-27.3000,-14.4000,11.8500,17.0700,-1.3500,-3.1400,0.7079,-1.6341,-2.6354,-37.1875,55.8750,67.1875,348.9375,23.4375,172.5000,0
1776971052.129,8.5497,1.6640,-3.9480,1.3741,0.6403,0.5145,-74.7000,-13.9500,-25.5000,7.6255,-0.4190,1.1109,1.3542,-1.4173,-1.1223,-27.3000,-14.4000,11.8500,18.3100,-1.3500,-2.8800,0.8836,-1.5359,-2.4631,-37.1875,55.8750,67.1875,347.4375,22.7500,172.6250,0
1776971052.136,8.5281,2.3774,-4.5466,1.4149,0.7242,0.5383,-74.8500,-13.0500,-25.3500,7.6255,-0.4190,1.1109,1.3542,-1.4173,-1.1223,-27.3000,-14.4000,11.8500,18.8900,-1.7300,-2.2000,1.0428,-1.4770,-2.2318,-37.1875,55.8750,67.1875,346.0625,22.0625,172.6250,0
1776971052.141,8.5281,2.3774,-4.5466,1.4149,0.7242,0.5383,-74.8500,-13.0500,-25.3500,7.2664,0.3208,1.4533,1.5500,-1.0019,-0.9761,-29.5500,-17.4000,10.8000,18.8900,-1.7300,-2.2000,1.0428,-1.4770,-2.2318,-37.1875,55.8750,67.1875,344.7500,21.3750,172.4375,0
1776971052.149,8.3199,2.2505,-4.4460,1.3363,0.8236,0.4836,-74.5500,-13.5000,-23.1000,6.7397,0.4214,0.8523,1.7877,-0.5343,-0.8218,-27.9000,-18.3000,11.4000,17.4600,-3.8500,-0.1900,1.1639,-1.5664,-1.9624,-37.1875,55.8750,67.1875,343.6250,20.5000,172.1875,0
1776971052.159,7.8554,1.5754,-3.7014,1.0128,0.9329,0.4112,-74.5500,-14.5500,-22.6500,6.7971,0.1077,0.8619,2.0464,-0.1679,-0.6957,-29.5500,-19.6500,12.6000,16.1400,-4.6500,1.3000,1.2163,-1.7813,-1.7006,-37.1875,55.8750,67.1875,343.6250,20.5000,172.1875,0
1776971052.164,7.4651,1.0558,-2.7150,0.5055,1.0304,0.3904,-74.5500,-16.5000,-21.9000,6.7971,0.1077,0.8619,2.0464,-0.1679,-0.6957,-29.5500,-19.6500,12.6000,16.1400,-4.6500,1.3000,1.2163,-1.7813,-1.7006,-37.1875,55.8750,67.1875,342.6250,19.6250,171.8750,0
1776971052.169,7.4651,1.0558,-2.7150,0.5055,1.0304,0.3904,-74.5500,-16.5000,-21.9000,7.2616,-0.6153,1.0918,2.1821,0.1191,-0.5673,-29.7000,-18.7500,13.0500,14.1600,-5.0800,2.8800,1.1541,-1.8522,-1.4573,-26.3750,47.5000,71.5625,342.6250,19.6250,171.8750,0
1776971052.174,7.3717,0.7207,-1.7334,-0.0141,1.1074,0.3986,-74.5500,-16.5000,-21.9000,7.2616,-0.6153,1.0918,2.1821,0.1191,-0.5673,-29.7000,-18.7500,13.0500,14.1600,-5.0800,2.8800,1.1541,-1.8522,-1.4573,-26.3750,47.5000,71.5625,341.8125,18.8750,171.5625,0
1776971052.179,7.3717,0.7207,-1.7334,-0.0141,1.1074,0.3986,-74.5500,-16.5000,-21.9000,8.0062,-1.8771,-0.2753,1.8903,0.3557,-0.4293,-29.7000,-18.7500,13.0500,12.3400,-4.9900,4.3500,1.0385,-1.5512,-1.2305,-26.3750,47.5000,71.5625,341.8125,18.8750,171.5625,0
1776971052.186,7.9942,0.2370,-1.4892,-0.4578,1.1866,0.4820,-75.1500,-16.3500,-21.4500,8.4180,-3.9576,0.2538,1.7464,0.5678,-0.3552,-29.7000,-18.7500,13.0500,13.2500,-11.2900,6.5000,0.8105,-0.8967,-1.0428,-26.3750,47.5000,71.5625,341.1250,18.4375,171.3750,0
1776971052.190,9.0764,-0.0958,-1.4557,-0.4578,1.1866,0.4820,-75.1500,-16.3500,-21.4500,8.4180,-3.9576,0.2538,1.7464,0.5678,-0.3552,-31.2000,-21.3000,14.2500,13.2500,-11.2900,6.5000,0.8105,-0.8967,-1.0428,-26.3750,47.5000,71.5625,340.3125,18.3750,171.3750,0
1776971052.199,9.0764,-0.0958,-1.4557,-0.5958,1.1546,0.5974,-73.9500,-17.5500,-23.7000,9.5864,-2.4948,0.8643,1.0333,0.8895,-0.2430,-31.5000,-21.3000,14.8500,9.4900,-3.5000,8.1000,0.4309,-0.3894,-1.3821,-26.3750,47.5000,71.5625,339.6250,18.5000,171.5000,0
1776971052.209,12.0045,-0.6105,-0.3998,-0.3709,1.1591,0.6989,-73.9500,-18.0000,-21.4500,12.2248,-1.4916,-1.7837,-0.6813,1.0536,-0.1290,-32.2500,-21.3000,15.6000,7.2100,1.1900,11.0800,0.1985,0.1440,-1.1770,-26.3750,47.5000,71.5625,339.6250,18.5000,171.5000,0
1776971052.214,12.0045,-0.6105,-0.3998,-0.3523,1.1935,0.8191,-73.9500,-18.0000,-21.4500,18.5527,-0.4238,-5.2529,-1.5503,0.8404,-0.2928,-32.2500,-21.3000,15.6000,7.2100,1.1900,11.0800,0.1985,0.1440,-1.1770,-26.3750,47.5000,71.5625,339.6250,18.5000,171.5000,0
1776971052.219,17.1568,-1.5131,0.8978,-0.3523,1.1935,0.8191,-73.9500,-19.0500,-22.9500,18.5527,-0.4238,-5.2529,-1.5503,0.8404,-0.2928,-31.9500,-20.2500,15.3000,6.5300,-4.5700,-23.2500,1.9330,1.5915,0.8061,-18.8750,47.7500,69.1875,340.0000,19.3125,170.1875,0
1776971052.224,17.1568,-1.5131,0.8978,-0.7775,1.2558,1.0192,-74.4000,-19.0500,-20.2500,21.3874,1.9082,-1.7741,-0.7831,0.4578,-0.6094,-31.9500,-20.2500,15.3000,6.5300,-4.5700,-23.2500,1.9330,1.5915,0.8061,-18.8750,47.7500,69.1875,340.0000,19.3125,170.1875,0
1776971052.229,21.9524,0.8930,-0.9266,-0.7775,1.2558,1.0192,-74.4000,-19.0500,-20.2500,21.3874,1.9082,-1.7741,-0.7831,0.4578,-0.6094,-32.8500,-21.1500,16.5000,17.3500,-7.8200,-29.6800,2.6180,4.1266,1.8762,-18.8750,47.7500,69.1875,340.9375,21.3750,168.2500,0
1776971052.239,20.0969,2.1979,-1.8459,-0.7064,1.1780,1.0424,-72.4500,-21.4500,-22.2000,17.2287,2.1261,0.3352,0.7789,0.8351,-0.7248,-32.8500,-21.1500,16.5000,17.5600,-5.4400,-11.2000,0.8530,4.8095,0.9141,-18.8750,47.7500,69.1875,341.6250,23.8750,167.3125,0
1776971052.248,14.3317,1.4030,0.8882,-0.2928,0.7477,0.5502,-72.4500,-21.4500,-22.2000,14.2958,-2.0973,-0.3831,1.1072,0.8553,-0.4501,-33.1500,-19.6500,16.5000,14.0900,-5.4100,-16.4100,0.2793,1.0407,0.3262,-18.8750,47.7500,69.1875,341.8750,24.3750,167.0000,0
1776971052.254,14.3317,1.4030,0.8882,-0.2542,0.9662,-0.0802,-72.4500,-21.4500,-22.2000,9.7851,-4.3838,-0.3184,0.8410,0.9531,-0.4130,-33.1500,-19.6500,16.5000,14.0900,-5.4100,-16.4100,0.3262,-0.4385,0.3272,-18.8750,47.7500,69.1875,341.9375,24.1250,166.7500,0
1776971052.260,9.0980,-0.9361,3.2202,-0.5033,1.3563,-0.3128,-73.6500,-21.4500,-22.2000,9.7851,-4.3838,-0.3184,0.8410,0.9531,-0.4130,-34.5000,-20.2500,18.4500,11.7500,-7.5800,-13.2500,0.3262,-0.4385,0.3272,-18.8750,47.7500,69.1875,341.9375,24.1250,166.7500,0
1776971052.265,9.0980,-0.9361,3.2202,-0.5033,1.3563,-0.3128,-73.6500,-21.4500,-22.2000,9.5816,-3.9983,-1.4437,-0.1364,1.0024,-0.2393,-34.5000,-20.2500,18.4500,11.7500,-7.5800,-13.2500,-0.0447,-0.5160,-0.0196,-20.5625,48.5625,65.8750,341.9375,23.8750,166.8125,0
1776971052.270,7.8961,-2.3056,3.0789,-1.0523,1.7717,-0.2020,-73.6500,-21.4500,-22.2000,9.5816,-3.9983,-1.4437,-0.1364,1.0024,-0.2393,-34.8000,-19.8000,18.1500,3.2200,-4.1800,-7.1600,-0.0447,-0.5160,-0.0196,-20.5625,48.5625,65.8750,341.9375,23.8750,166.8125,0
1776971052.275,7.8961,-2.3056,3.0789,-1.0523,1.7717,-0.2020,-72.4500,-23.4000,-19.5000,8.4156,-1.7430,-1.1708,-1.0139,0.8130,-0.0679,-34.8000,-19.8000,18.1500,3.2200,-4.1800,-7.1600,-0.2094,-0.4320,-0.0065,-20.5625,48.5625,65.8750,341.9375,23.6250,167.0000,0
1776971052.280,8.5928,-1.4341,1.4198,-1.6537,1.9713,0.0203,-72.4500,-23.4000,-19.5000,8.4156,-1.7430,-1.1708,-1.0139,0.8130,-0.0679,-33.7500,-21.0000,17.7000,2.3800,-0.2400,-8.7100,-0.2094,-0.4320,-0.0065,-20.5625,48.5625,65.8750,341.9375,23.6250,167.0000,0
1776971052.288,7.8243,0.1077,1.2402,-1.7088,1.4791,0.2731,-72.0000,-22.9500,-18.7500,8.0302,-0.4381,-0.4932,-1.5625,0.8503,0.0354,-33.7500,-21.0000,17.7000,4.6500,-0.7400,-8.1900,-0.3251,0.3022,-0.2476,-20.5625,48.5625,65.8750,341.8750,23.8125,167.1875,0
1776971052.293,7.8243,0.1077,1.2402,-1.7088,1.4791,0.2731,-72.0000,-22.9500,-18.7500,8.7388,0.8068,-2.1955,-1.6214,0.8021,0.1029,-33.7500,-21.0000,17.7000,4.6500,-0.7400,-8.1900,-0.3349,0.4309,-0.2498,-20.5625,48.5625,65.8750,341.7500,24.0625,167.4375,0
1776971052.300,7.3957,0.2705,1.4964,-1.4176,1.2321,0.4698,-72.6000,-24.4500,-18.6000,8.7388,0.8068,-2.1955,-1.6214,0.8021,0.1029,-33.7500,-21.0000,17.7000,5.1100,-0.2100,-9.2700,-0.3349,0.4309,-0.2498,-20.5625,48.5625,65.8750,341.6875,24.1250,167.6250,0
1776971052.310,7.5034,0.0144,1.2785,-0.8569,1.0544,0.6179,-72.6000,-23.2500,-19.0500,8.8274,2.5426,-3.8188,-1.0664,0.7658,0.0488,-35.1000,-20.5500,17.4000,4.9900,-0.8100,-8.6200,-0.2716,0.0785,-0.2422,-20.5625,48.5625,65.8750,341.6875,24.1250,167.6250,0
1776971052.314,7.5034,0.0144,1.2785,-0.8569,1.0544,0.6179,-72.6000,-23.2500,-19.0500,7.9895,4.2186,-3.8020,-0.0778,0.7837,-0.1697,-35.1000,-20.5500,17.4000,4.9900,-0.8100,-8.6200,-0.2716,0.0785,-0.2422,-20.5625,48.5625,65.8750,341.6875,24.1250,167.6250,0
1776971052.319,8.0661,0.7111,0.6776,-0.1809,0.9481,0.7237,-70.9500,-23.8500,-18.4500,7.9895,4.2186,-3.8020,-0.0778,0.7837,-0.1697,-35.1000,-21.7500,18.4500,4.3800,-2.3300,-8.4800,-0.2443,-0.0480,-0.2258,-23.0000,49.3750,66.0625,341.5625,24.1250,167.8125,0
1776971052.324,8.2049,0.8236,0.2346,-0.1809,0.9481,0.7237,-70.9500,-23.8500,-18.4500,8.2073,3.2705,-2.9377,0.7104,0.8298,-0.3675,-35.1000,-21.7500,18.4500,4.3800,-2.3300,-8.4800,-0.2443,-0.0480,-0.2258,-23.0000,49.3750,66.0625,341.5625,24.1250,167.8125,0
1776971052.329,8.2049,0.8236,0.2346,0.5209,0.8756,0.7280,-70.5000,-25.0500,-17.4000,8.2073,3.2705,-2.9377,0.7104,0.8298,-0.3675,-35.4000,-22.2000,18.6000,4.2100,-1.2500,-8.2500,-0.3447,0.2029,-0.2618,-23.0000,49.3750,66.0625,341.5000,24.3125,168.0625,0
1776971052.339,8.0230,2.0638,0.0455,0.9281,0.9539,0.6443,-70.5000,-25.0500,-17.4000,8.3821,1.4293,-2.1620,0.9598,0.8396,-0.4538,-36.6000,-21.0000,17.7000,3.9800,-0.1100,-8.1200,-0.4287,0.3316,-0.2563,-23.0000,49.3750,66.0625,341.4375,24.5000,168.3750,0
1776971052.348,7.9727,2.1883,0.4166,1.2340,1.0938,0.5225,-70.2000,-25.8000,-17.7000,8.2815,0.2634,-1.8794,0.9497,0.7975,-0.4820,-36.6000,-21.0000,17.7000,3.5200,-0.6900,-7.6200,-0.3872,0.2236,-0.1745,-23.0000,49.3750,66.0625,341.3750,24.6250,168.6250,0
1776971052.353,8.9950,1.1540,1.1851,1.2340,1.0938,0.5225,-70.2000,-25.8000,-17.7000,8.6598,0.4860,-2.0327,0.9206,0.7949,-0.5025,-36.6000,-21.0000,17.7000,3.5200,-0.6900,-7.6200,-0.3872,0.2236,-0.1745,-23.0000,49.3750,66.0625,341.3750,24.7500,168.7500,0
1776971052.360,8.9950,1.1540,1.1851,1.2854,1.1700,0.4978,-70.2000,-25.8000,-17.7000,9.6678,0.9194,-1.4533,0.9062,0.7834,-0.5073,-37.3500,-22.0500,21.3000,3.8800,-1.5300,-7.7200,-0.2662,0.2269,-0.1004,-23.0000,49.3750,66.0625,341.3750,24.7500,168.7500,0
1776971052.365,9.9407,0.5914,2.1356,1.1780,1.0920,0.5167,-70.2000,-25.8000,-17.7000,9.6678,0.9194,-1.4533,0.9062,0.7834,-0.5073,-37.3500,-22.0500,21.3000,3.8800,-1.5300,-7.7200,-0.1865,0.5945,-0.1418,-23.8750,48.2500,67.2500,341.3125,25.1250,168.8750,0
1776971052.370,9.9407,0.5914,2.1356,1.1780,1.0920,0.5167,-69.4500,-28.0500,-15.9000,10.0533,1.6712,-1.3431,0.8924,0.7663,-0.4642,-35.8500,-21.3000,19.5000,4.4800,-1.4800,-8.1800,-0.1865,0.5945,-0.1418,-23.8750,48.2500,67.2500,341.3125,25.1250,168.8750,0
1776971052.375,10.0269,1.0175,2.1859,1.2361,0.9414,0.5534,-69.4500,-28.0500,-15.9000,10.0533,1.6712,-1.3431,0.8924,0.7663,-0.4642,-35.8500,-21.3000,19.5000,4.4800,-1.4800,-8.1800,-0.1865,0.5945,-0.1418,-23.8750,48.2500,67.2500,341.3125,25.5625,168.9375,0
1776971052.380,10.0269,1.0175,2.1859,1.2361,0.9414,0.5534,-69.4500,-27.0000,-15.1500,9.9862,2.6360,-2.0877,0.9611,0.7610,-0.4088,-37.3500,-22.8000,21.0000,5.1500,-1.5300,-8.7600,-0.1298,0.8116,-0.1800,-23.8750,48.2500,67.2500,341.3125,25.5625,168.9375,0
1776971052.388,10.4028,2.0494,2.2913,1.0744,0.9414,0.5662,-68.4000,-29.5500,-15.3000,9.9862,2.6360,-2.0877,0.9611,0.7610,-0.4088,-37.9500,-22.9500,22.5000,4.9600,-1.2100,-8.7000,-0.0753,0.6065,-0.1560,-23.8750,48.2500,67.2500,341.2500,25.9375,169.0000,0
1776971052.392,10.5369,2.4708,2.2482,1.0744,0.9414,0.5662,-68.4000,-29.5500,-15.3000,9.7085,3.3615,-1.9489,1.1679,0.7234,-0.3611,-37.9500,-22.9500,22.5000,4.9600,-1.2100,-8.7000,-0.0753,0.6065,-0.1560,-23.8750,48.2500,67.2500,341.1875,26.1250,169.0000,0
1776971052.400,10.5369,2.4708,2.2482,0.9790,0.8183,0.4919,-68.2500,-28.9500,-15.4500,9.4643,3.3399,-1.6041,1.2143,0.6971,-0.3019,-37.3500,-23.5500,23.4000,4.8900,-1.4800,-8.3400,-0.0196,0.3491,-0.1113,-23.8750,48.2500,67.2500,341.1875,26.3125,169.0625,0
1776971052.410,10.4339,2.3367,1.8627,0.8412,0.8306,0.3701,-68.4000,-29.8500,-13.0500,9.4523,2.7869,-1.4150,1.1045,0.6872,-0.2364,-37.3500,-23.5500,23.4000,4.7400,-1.3500,-8.5800,-0.0033,0.3207,-0.1134,-23.8750,48.2500,67.2500,341.1875,26.3125,169.0625,0
1776971052.415,10.4004,2.0279,1.3527,0.7293,0.8164,0.2478,-68.4000,-29.8500,-13.0500,9.4523,2.7869,-1.4150,1.1045,0.6872,-0.2364,-0.7500,-23.5500,23.4000,4.7400,-1.3500,-8.5800,-0.0033,0.3207,-0.1134,-23.8750,48.2500,67.2500,341.1250,26.5000,169.0625,0
1776971052.420,10.4004,2.0279,1.3527,0.7293,0.8164,0.2478,-68.7000,-29.2500,-12.1500,9.7252,2.5738,-1.8220,0.7866,0.7200,-0.1444,-39.1500,-22.5000,24.9000,5.0300,-2.1200,-8.7100,-0.0393,0.3807,-0.1353,-26.0625,46.5625,66.0625,341.1250,26.5000,169.0625,0
1776971052.424,10.3956,2.1117,0.9529,0.5084,0.7512,0.1703,-68.7000,-29.2500,-12.1500,9.7252,2.5738,-1.8220,0.7866,0.7200,-0.1444,-37.9500,-23.7000,25.0500,5.0300,-2.1200,-8.7100,-0.0393,0.3807,-0.1353,-26.0625,46.5625,66.0625,341.0625,26.7500,169.1250,0
1776971052.430,10.3956,2.1117,0.9529,0.5084,0.7512,0.1703,-68.7000,-29.2500,-12.1500,9.7085,2.0877,-2.0111,0.3192,0.7578,-0.0442,-37.9500,-23.7000,25.0500,5.1700,-1.6000,-8.6600,-0.0535,0.3392,-0.1254,-26.0625,46.5625,66.0625,341.0625,26.7500,169.1250,0
1776971052.438,10.1586,2.5115,0.6536,0.2691,0.7240,0.1018,-68.2500,-30.9000,-11.8500,9.3996,1.9537,-1.7382,-0.2054,0.7687,0.0413,-38.2500,-23.4000,27.9000,5.0300,-0.8400,-8.3200,-0.0513,0.2585,-0.0796,-26.0625,46.5625,66.0625,341.0625,26.8750,169.1875,0
1776971052.443,9.9599,2.2960,0.9002,0.0176,0.7352,0.0344,-68.2500,-30.9000,-11.8500,9.3996,1.9537,-1.7382,-0.2054,0.7687,0.0413,-38.2500,-23.4000,27.9000,5.0300,-0.8400,-8.3200,-0.0513,0.2585,-0.0796,-26.0625,46.5625,66.0625,341.0625,27.0000,169.1875,0
1776971052.450,9.6726,2.2649,1.1444,0.0176,0.7352,0.0344,-67.2000,-30.4500,-11.4000,9.2368,1.9728,-1.8723,-0.6742,0.7767,0.1114,-37.9500,-23.7000,25.3500,4.6900,-1.1400,-8.2100,-0.0251,0.2062,-0.0360,-26.0625,46.5625,66.0625,341.0625,27.1250,169.1875,0
1776971052.460,9.6845,1.9728,0.9433,-0.6318,0.6590,0.0147,-68.4000,-31.0500,-11.5500,9.2536,2.0542,-1.9225,-0.9601,0.7946,0.1964,-37.9500,-23.7000,25.3500,4.7700,-1.3200,-8.3200,-0.0022,0.2280,-0.0175,-26.0625,46.5625,66.0625,341.0625,27.1250,169.1875,0
1776971052.465,9.6845,1.9728,0.9433,-0.6318,0.6590,0.0147,-68.4000,-31.0500,-11.5500,9.2536,2.0542,-1.9225,-0.9601,0.7946,0.1964,-37.6500,-23.5500,27.0000,4.7700,-1.3200,-8.3200,-0.0022,0.2280,-0.0175,-26.0625,46.5625,66.0625,341.0625,27.1250,169.1875,0
1776971052.470,9.6678,1.5945,0.9936,-0.9193,0.5854,0.0269,-67.9500,-29.7000,-11.4000,9.5984,2.2865,-1.8387,-1.0429,0.8130,0.2633,-37.6500,-23.5500,27.0000,4.8600,-1.4200,-8.2900,0.0240,0.2509,0.0131,-27.5625,45.5625,66.0625,341.0625,27.2500,169.1250,0
1776971052.475,9.6678,1.5945,0.9936,-0.9193,0.5854,0.0269,-67.9500,-29.7000,-11.4000,9.5984,2.2865,-1.8387,-1.0429,0.8130,0.2633,-39.7500,-24.9000,28.6500,4.8600,-1.4200,-8.2900,0.0240,0.2509,0.0131,-27.5625,45.5625,66.0625,341.0625,27.2500,169.1250,0
1776971052.480,9.4260,0.9505,1.0654,-1.1090,0.5255,0.0394,-67.5000,-32.4000,-9.9000,9.4379,2.4397,-1.8172,-0.9681,0.8186,0.2803,-39.7500,-24.9000,28.6500,4.9200,-1.3000,-8.2900,0.0305,0.3000,0.0218,-27.5625,45.5625,66.0625,341.0625,27.4375,169.1250,0
1776971052.485,9.4260,0.9505,1.0654,-1.1090,0.5255,0.0394,-67.5000,-32.4000,-9.9000,9.5026,2.5091,-1.5921,-0.7733,0.8167,0.2928,-38.5500,-24.4500,26.1000,4.9200,-1.3000,-8.2900,0.0055,0.3458,0.0120,-27.5625,45.5625,66.0625,341.1250,27.6250,169.0625,0
1776971052.491,9.5241,0.6464,1.0439,-1.1245,0.4580,0.0362,-66.6000,-31.5000,-10.5000,9.5026,2.5091,-1.5921,-0.7733,0.8167,0.2928,-38.5500,-24.4500,26.1000,5.0100,-1.5500,-8.3700,0.0055,0.3458,0.0120,-27.5625,45.5625,66.0625,341.1250,27.6250,169.0625,0
1776971052.500,9.5289,0.5195,1.2761,-1.0312,0.3741,0.0354,-66.6000,-31.5000,-10.5000,9.4954,2.3032,-1.5203,-0.5473,0.8130,0.3096,-38.5500,-22.9500,26.1000,5.0400,-1.6000,-8.3300,-0.0305,0.4069,-0.0076,-27.5625,45.5625,66.0625,341.1250,27.8750,169.0625,0
1776971052.504,9.5289,0.5195,1.2761,-1.0312,0.3741,0.0354,-66.6000,-31.5000,-10.5000,9.3565,1.8100,-1.4006,-0.3872,0.8042,0.3134,-38.5500,-23.7000,28.2000,5.0400,-1.6000,-8.3300,-0.0774,0.4592,-0.0153,-27.5625,45.5625,66.0625,341.1250,28.1250,169.1250,0
1776971052.511,9.3733,0.5124,1.6975,-0.8820,0.3288,0.0173,-66.7500,-30.4500,-9.9000,9.3565,1.8100,-1.4006,-0.3872,0.8042,0.3134,-38.5500,-23.7000,28.2000,4.9900,-1.4100,-8.1900,-0.0774,0.4592,-0.0153,-27.5625,45.5625,66.0625,341.1250,28.1250,169.1250,0
1776971052.516,9.3733,0.5124,1.6975,-0.8820,0.3288,0.0173,-66.7500,-30.4500,-9.9000,9.3422,1.5802,-0.9697,-0.2185,0.7893,0.3190,-38.5500,-23.7000,28.2000,4.9900,-1.4100,-8.1900,-0.0774,0.4592,-0.0153,-28.0000,45.5000,66.5000,341.1875,28.4375,169.1250,0
1776971052.521,9.0668,0.5674,2.2003,-0.7210,0.3419,-0.0107,-66.7500,-30.4500,-9.9000,9.3422,1.5802,-0.9697,-0.2185,0.7893,0.3190,-38.5500,-23.7000,28.2000,4.8900,-1.3000,-8.1000,-0.1058,0.4854,0.0000,-28.0000,45.5000,66.5000,341.1875,28.4375,169.1250,0
1776971052.525,9.0668,0.5674,2.2003,-0.7210,0.3419,-0.0107,-66.7500,-30.4500,-9.9000,9.2608,1.2354,-0.3831,-0.1119,0.7671,0.3011,-39.0000,-22.6500,28.9500,4.8900,-1.3000,-8.1000,-0.1058,0.4854,0.0000,-28.0000,45.5000,66.5000,341.1875,28.7500,169.1875,0
1776971052.531,9.0453,0.4238,2.7054,-0.5910,0.3512,-0.0437,-67.9500,-29.7000,-8.4000,9.2608,1.2354,-0.3831,-0.1119,0.7671,0.3011,-39.0000,-22.6500,28.9500,5.2100,-1.4000,-8.1300,-0.1254,0.5280,0.0120,-28.0000,45.5000,66.5000,341.1875,28.7500,169.1875,0
1776971052.535,9.0453,0.4238,2.7054,-0.5910,0.3512,-0.0437,-67.9500,-29.7000,-8.4000,9.3661,1.0032,0.2107,-0.0866,0.7546,0.2899,-37.0500,-25.8000,29.5500,5.2100,-1.4000,-8.1300,-0.1571,0.6109,-0.0098,-28.0000,45.5000,66.5000,341.2500,29.1250,169.2500,0
1776971052.541,8.9136,0.2370,3.0933,-0.5247,0.3403,-0.0520,-68.8500,-31.0500,-10.0500,9.3661,1.0032,0.2107,-0.0866,0.7546,0.2899,-37.0500,-25.8000,29.5500,5.2300,-1.2700,-8.1400,-0.1571,0.6109,-0.0098,-28.0000,45.5000,66.5000,341.2500,29.1250,169.2500,0
1776971052.550,8.9064,0.1844,3.2298,-0.4778,0.3222,-0.0501,-68.2500,-28.9500,-8.4000,9.5098,0.8140,0.3496,-0.1524,0.7424,0.2907,-37.2000,-24.9000,30.0000,5.1400,-1.4000,-8.1700,-0.1778,0.6523,-0.0207,-28.0000,45.5000,66.5000,341.3125,29.5000,169.3750,0
1776971052.560,8.8155,0.2346,3.4213,-0.4269,0.3123,-0.0333,-66.9000,-29.8500,-8.7000,9.6630,0.5028,0.6416,-0.2332,0.7213,0.2878,-37.9500,-23.7000,30.4500,5.6600,-1.4200,-8.3100,-0.1920,0.6829,-0.0240,-28.0000,45.5000,66.5000,341.3750,29.8750,169.4375,0
1776971052.564,8.9040,0.2634,3.4812,-0.4269,0.3123,-0.0333,-66.9000,-29.8500,-8.7000,9.9719,0.3926,0.6297,-0.3328,0.6925,0.3048,-37.5000,-25.6500,30.7500,5.6600,-1.4200,-8.3100,-0.1920,0.6829,-0.0240,-28.0000,45.5000,66.5000,341.3750,29.8750,169.4375,0
1776971052.570,8.9040,0.2634,3.4812,-0.3802,0.3280,-0.0088,-68.8500,-29.8500,-8.2500,9.9719,0.3926,0.6297,-0.3328,0.6925,0.3048,-37.5000,-25.6500,30.7500,5.6700,-1.2800,-8.2600,-0.1887,0.6709,-0.0207,-28.5625,44.2500,64.7500,341.3750,30.2500,169.5000,0
1776971052.574,9.0094,0.2610,3.2825,-0.3802,0.3280,-0.0088,-68.8500,-29.8500,-8.2500,9.7396,0.4022,0.7757,-0.4279,0.6755,0.3256,-37.5000,-25.6500,30.7500,5.6700,-1.2800,-8.2600,-0.1887,0.6709,-0.0207,-28.5625,44.2500,64.7500,341.3750,30.2500,169.5000,0
1776971052.579,9.0094,0.2610,3.2825,-0.3437,0.3477,0.0237,-69.0000,-30.9000,-9.9000,9.7396,0.4022,0.7757,-0.4279,0.6755,0.3256,-37.5000,-25.6500,30.7500,5.7700,-1.2100,-8.2000,-0.1734,0.6240,-0.0087,-28.5625,44.2500,64.7500,341.4375,30.5625,169.5625,0
1776971052.584,9.0261,0.2993,2.9951,-0.3437,0.3477,0.0237,-69.0000,-30.9000,-9.9000,9.9024,0.4429,0.6369,-0.4810,0.6624,0.3238,-36.7500,-25.2000,31.5000,5.7700,-1.2100,-8.2000,-0.1396,0.5803,-0.0131,-28.5625,44.2500,64.7500,341.5000,30.8750,169.6250,0
1776971052.591,9.0261,0.2993,2.9951,-0.3059,0.3637,0.0504,-69.0000,-30.9000,-9.9000,9.9024,0.4429,0.6369,-0.4810,0.6624,0.3238,-36.7500,-25.2000,31.5000,5.9100,-1.1300,-8.1000,-0.1396,0.5803,-0.0131,-28.5625,44.2500,64.7500,341.5000,31.1875,169.6250,0
1776971052.600,9.0405,0.0910,2.6624,-0.2926,0.3976,0.0853,-68.1000,-28.6500,-8.2500,9.7971,0.3639,0.3376,-0.5002,0.6435,0.3267,-35.8500,-24.0000,30.6000,5.8000,-1.2900,-8.2600,-0.1178,0.5127,-0.0109,-28.5625,44.2500,64.7500,341.5625,31.4375,169.6250,0
1776971052.610,9.1339,-0.0479,2.2098,-0.2825,0.4229,0.1114,-68.1000,-28.6500,-8.2500,9.6414,0.4453,0.1030,-0.4634,0.6227,0.3043,-36.7500,-25.2000,30.7500,5.8100,-1.2900,-8.1300,-0.0676,0.4527,0.0044,-28.5625,44.2500,64.7500,341.5625,31.4375,169.6250,0
1776971052.615,9.1171,-0.0958,1.8340,-0.2878,0.4463,0.1346,-68.1000,-28.6500,-8.2500,9.5960,0.3903,0.0479,-0.4101,0.6033,0.2785,-37.2000,-24.1500,31.5000,5.8100,-1.2900,-8.1300,-0.0676,0.4527,0.0044,-28.5625,44.2500,64.7500,341.6250,31.6875,169.6250,0
1776971052.620,9.1171,-0.0958,1.8340,-0.2878,0.4463,0.1346,-68.4000,-29.8500,-7.9500,9.5960,0.3903,0.0479,-0.3621,0.5929,0.2494,-37.2000,-24.1500,31.5000,5.7200,-1.3700,-8.0000,-0.0196,0.4211,0.0196,-31.1875,44.5625,64.3750,341.6250,31.6875,169.6250,0
1776971052.625,9.2129,0.0000,1.5323,-0.3166,0.4143,0.1692,-68.4000,-29.8500,-7.9500,9.6367,0.5291,-0.0575,-0.3621,0.5929,0.2494,-37.2000,-24.1500,31.5000,5.7200,-1.3700,-8.0000,-0.0196,0.4211,0.0196,-31.1875,44.5625,64.3750,341.6250,31.8750,169.6250,0
1776971052.630,9.2129,0.0000,1.5323,-0.3166,0.4143,0.1692,-69.7500,-29.7000,-6.9000,9.6869,0.6440,-0.1652,-0.3264,0.5796,0.2427,-37.2000,-24.1500,31.5000,5.7300,-1.3000,-8.0700,-0.0153,0.4222,0.0316,-31.1875,44.5625,64.3750,341.6250,31.8750,169.6250,0
1776971052.635,9.2392,0.3352,1.3264,-0.3472,0.3840,0.1940,-69.7500,-29.7000,-6.9000,9.6869,0.6440,-0.1652,-0.3264,0.5796,0.2427,-36.0000,-24.9000,32.8500,5.7300,-1.3000,-8.0700,-0.0262,0.4592,0.0284,-31.1875,44.5625,64.3750,341.6875,32.1875,169.5625,0
1776971052.641,9.2392,0.3352,1.3264,-0.3472,0.3840,0.1940,-66.7500,-28.9500,-8.8500,9.8210,0.9098,-0.2801,-0.2454,0.5881,0.2398,-36.0000,-24.4500,32.1000,5.6900,-1.2700,-7.9200,-0.0262,0.4592,0.0284,-31.1875,44.5625,64.3750,341.6875,32.1875,169.5625,0
1776971052.650,9.2799,0.4788,1.4222,-0.3917,0.3712,0.2129,-67.3500,-29.1000,-8.7000,9.8545,1.1037,-0.3352,-0.1524,0.5801,0.2457,-36.0000,-24.4500,32.1000,5.6200,-1.1500,-7.8900,-0.0393,0.4865,0.0218,-31.1875,44.5625,64.3750,341.6875,32.5000,169.6250,0
1776971052.655,9.4308,0.6273,1.4844,-0.4151,0.3810,0.2358,-67.3500,-29.1000,-8.7000,9.8545,1.1037,-0.3352,-0.1524,0.5801,0.2457,-37.0500,-23.5500,33.0000,5.6200,-1.1500,-7.8900,-0.0447,0.5236,0.0196,-31.1875,44.5625,64.3750,341.7500,32.8125,169.6250,0
1776971052.661,9.4188,0.8739,1.5850,-0.4151,0.3810,0.2358,-69.0000,-30.0000,-8.8500,9.7229,1.1708,-0.4142,-0.0493,0.5812,0.2526,-36.4500,-25.2000,32.8500,5.5700,-1.2000,-7.8900,-0.0447,0.5236,0.0196,-31.1875,44.5625,64.3750,341.7500,32.8125,169.6250,0
1776971052.666,9.4188,0.8739,1.5850,-0.4207,0.3904,0.2510,-69.0000,-30.0000,-8.8500,9.7229,1.1708,-0.4142,-0.0493,0.5812,0.2526,-36.4500,-25.2000,32.8500,5.8700,-1.3300,-7.9600,-0.0295,0.5356,0.0229,-32.2500,45.6875,64.3750,341.7500,33.1250,169.5625,0
1776971052.671,9.5505,1.2929,1.6664,-0.4207,0.3904,0.2510,-68.7000,-29.2500,-8.1000,9.5672,1.1468,-0.4453,0.0101,0.5891,0.2635,-36.4500,-24.9000,32.1000,5.8700,-1.3300,-7.9600,-0.0295,0.5356,0.0229,-32.2500,45.6875,64.3750,341.7500,33.1250,169.5625,0
1776971052.676,9.5505,1.2929,1.6664,-0.4207,0.3813,0.2614,-68.7000,-29.2500,-8.1000,9.5672,1.1468,-0.4453,0.0101,0.5891,0.2635,-36.4500,-24.9000,32.1000,5.8700,-1.3300,-7.9600,-0.0251,0.5476,0.0109,-32.2500,45.6875,64.3750,341.8125,33.4375,169.5625,0
1776971052.681,9.4499,1.6305,1.7406,-0.4149,0.3818,0.2598,-68.7000,-29.2500,-8.1000,9.5217,1.3120,-0.3926,0.0280,0.6102,0.2923,-36.4500,-24.9000,32.1000,6.0300,-1.2700,-7.9300,-0.0251,0.5476,0.0109,-32.2500,45.6875,64.3750,341.8125,33.4375,169.5625,0
1776971052.686,9.4499,1.6305,1.7406,-0.4149,0.3818,0.2598,-68.7000,-29.2500,-8.1000,9.5217,1.3120,-0.3926,0.0280,0.6102,0.2923,-36.4500,-24.9000,32.1000,6.0300,-1.2700,-7.9300,-0.0295,0.5258,0.0033,-32.2500,45.6875,64.3750,341.8125,33.7500,169.5625,0
1776971052.692,9.3829,1.9082,1.7909,-0.3978,0.3890,0.2651,-68.2500,-28.5000,-8.8500,9.6750,1.5251,-0.5555,0.0181,0.6400,0.3174,-34.9500,-24.9000,33.9000,6.0100,-1.1100,-7.8100,-0.0295,0.5258,0.0033,-32.2500,45.6875,64.3750,341.8750,34.0000,169.5625,0
1776971052.700,9.3685,2.1117,1.8699,-0.3675,0.4050,0.2614,-68.2500,-28.5000,-8.8500,9.5864,1.5060,-0.5674,0.0029,0.6534,0.3453,-37.0500,-24.0000,33.7500,6.0300,-1.2800,-7.8600,-0.0273,0.4701,-0.0055,-32.2500,45.6875,64.3750,341.8750,34.2500,169.5000,0
1776971052.710,9.4691,2.1452,1.9465,-0.3192,0.4221,0.2625,-69.6000,-27.9000,-9.7500,9.6630,1.7095,-0.6416,-0.0549,0.6811,0.3864,-34.8000,-25.0500,34.8000,6.0100,-1.2000,-7.8700,-0.0251,0.4516,0.0011,-32.2500,45.6875,64.3750,341.8750,34.2500,169.5000,0
1776971052.715,9.4691,2.1452,1.9465,-0.3192,0.4221,0.2625,-69.6000,-27.9000,-9.7500,9.6630,1.7095,-0.6416,-0.0549,0.6811,0.3864,-34.8000,-25.0500,34.8000,6.0100,-1.2000,-7.8700,-0.0251,0.4516,0.0011,-32.2500,45.6875,64.3750,341.8750,34.5000,169.5000,0
1776971052.720,9.4786,2.0853,1.9896,-0.2718,0.4306,0.2617,-69.0000,-28.5000,-9.1500,9.7037,1.7980,-0.6393,-0.0394,0.6848,0.4018,-35.8500,-24.3000,34.2000,5.9000,-1.1100,-7.7400,-0.0131,0.4701,-0.0218,-33.3750,45.5625,63.1875,341.8750,34.5000,169.5000,0
1776971052.725,9.4786,2.0853,1.9896,-0.2718,0.4306,0.2617,-69.0000,-28.5000,-9.1500,9.7037,1.7980,-0.6393,-0.0394,0.6848,0.4018,-35.8500,-24.3000,34.2000,5.9000,-1.1100,-7.7400,-0.0131,0.4701,-0.0218,-33.3750,45.5625,63.1875,341.8750,34.7500,169.5000,0
1776971052.730,9.4739,2.0758,1.9441,-0.2204,0.4322,0.2510,-68.8500,-27.9000,-7.5000,9.5074,1.7765,-0.5267,0.0043,0.6933,0.4080,-35.8500,-24.3000,34.2000,5.8700,-1.1700,-7.7600,-0.0022,0.4800,-0.0251,-33.3750,45.5625,63.1875,341.8750,34.7500,169.5000,0
1776971052.735,9.4739,2.0758,1.9441,-0.2204,0.4322,0.2510,-68.8500,-27.9000,-7.5000,9.5074,1.7765,-0.5267,0.0043,0.6933,0.4080,-35.8500,-24.3000,34.2000,5.8700,-1.1700,-7.7600,-0.0055,0.5029,-0.0229,-33.3750,45.5625,63.1875,341.8750,35.0625,169.5000,0
1776971052.741,9.4667,1.9944,1.9225,-0.1796,0.4218,0.2475,-67.5000,-28.9500,-8.1000,9.4930,1.5323,-0.5626,-0.0229,0.7330,0.4269,-35.8500,-24.3000,34.2000,5.9700,-1.1100,-7.7300,-0.0055,0.5029,-0.0229,-33.3750,45.5625,63.1875,341.8750,35.0625,169.5000,0
1776971052.750,9.3757,1.8220,1.8244,-0.1338,0.4173,0.2321,-67.5000,-28.9500,-8.1000,9.3158,1.4246,-0.7374,-0.0157,0.7666,0.4639,-34.5000,-24.0000,35.2500,6.1200,-1.0800,-7.6800,-0.0065,0.5378,-0.0305,-33.3750,45.5625,63.1875,341.8750,35.3750,169.5000,0
1776971052.755,9.3757,1.8220,1.8244,-0.1338,0.4173,0.2321,-67.5000,-28.9500,-8.1000,9.3158,1.4246,-0.7374,-0.0157,0.7666,0.4639,-34.5000,-24.0000,35.2500,6.1200,-1.0800,-7.6800,-0.0098,0.5640,-0.0371,-33.3750,45.5625,63.1875,341.8750,35.7500,169.5000,0
1776971052.761,9.4763,1.6017,1.6161,-0.0925,0.4189,0.2132,-70.3500,-26.7000,-9.0000,9.4164,1.1851,-0.6201,-0.0240,0.8199,0.4914,-34.8000,-25.8000,37.3500,6.2300,-1.1700,-7.7300,-0.0098,0.5640,-0.0371,-33.3750,45.5625,63.1875,341.8750,35.7500,169.5000,0
1776971052.766,9.4547,1.3934,1.4820,-0.0925,0.4189,0.2132,-70.3500,-26.7000,-9.0000,9.3805,0.8978,-0.7709,-0.0501,0.8567,0.5265,-34.8000,-25.8000,37.3500,6.2300,-1.1700,-7.7300,-0.0109,0.5770,-0.0415,-34.7500,45.5625,62.2500,341.8750,36.0625,169.5000,0
1776971052.771,9.4547,1.3934,1.4820,-0.0506,0.4013,0.2041,-70.3500,-26.7000,-9.0000,9.3805,0.8978,-0.7709,-0.0501,0.8567,0.5265,-34.2000,-25.9500,36.7500,6.3700,-1.0400,-7.6000,-0.0109,0.5770,-0.0415,-34.7500,45.5625,62.2500,341.8750,36.0625,169.5000,0
1776971052.776,9.3853,1.1827,1.0918,-0.0506,0.4013,0.2041,-70.3500,-26.7000,-9.0000,9.2320,1.0056,-0.6919,-0.0997,0.9017,0.5665,-34.2000,-25.9500,36.7500,6.3700,-1.0400,-7.6000,-0.0185,0.5618,-0.0425,-34.7500,45.5625,62.2500,341.8750,36.3750,169.5000,0
1776971052.781,9.3853,1.1827,1.0918,-0.0408,0.3781,0.1863,-70.0500,-27.4500,-9.7500,9.2320,1.0056,-0.6919,-0.0997,0.9017,0.5665,-33.9000,-24.9000,36.1500,6.2700,-1.0300,-7.6400,-0.0185,0.5618,-0.0425,-34.7500,45.5625,62.2500,341.8750,36.3750,169.5000,0
1776971052.789,9.3254,1.2953,0.8739,-0.0725,0.3360,0.1631,-70.0500,-27.4500,-9.7500,9.2105,1.1660,-0.5267,-0.1396,0.9657,0.6129,-33.9000,-24.9000,36.1500,6.5900,-1.0800,-7.5600,-0.0164,0.5301,-0.0425,-34.7500,45.5625,62.2500,341.8750,36.6875,169.4375,0
1776971052.794,9.3254,1.2953,0.8739,-0.0725,0.3360,0.1631,-69.4500,-27.3000,-9.9000,9.2105,1.1660,-0.5267,-0.1836,1.0259,0.6563,-33.9000,-24.9000,36.1500,6.5900,-1.0800,-7.5600,-0.0164,0.5301,-0.0425,-34.7500,45.5625,62.2500,341.8750,36.9375,169.4375,0
1776971052.801,9.2727,1.1516,0.9337,-0.1639,0.2846,0.1482,-71.5500,-27.1500,-9.3000,9.4834,0.9170,-0.6536,-0.1836,1.0259,0.6563,-33.0000,-25.5000,36.6000,6.4100,-1.2600,-7.5100,-0.0109,0.4952,-0.0545,-34.7500,45.5625,62.2500,341.8750,37.1875,169.4375,0
1776971052.811,9.5529,1.1396,1.0654,-0.2641,0.2337,0.1279,-70.9500,-27.0000,-9.6000,9.5433,1.0846,-0.5148,-0.1703,1.0435,0.6718,-32.2500,-25.8000,38.1000,6.1200,-1.1600,-7.6100,-0.0076,0.4527,-0.0556,-34.7500,45.5625,62.2500,341.8750,37.1875,169.4375,0
1776971052.816,9.7300,1.1109,1.1181,-0.3866,0.1900,0.0983,-70.9500,-27.0000,-9.6000,9.8090,0.8595,-0.0646,-0.1721,1.0706,0.6654,-32.2500,-25.8000,38.1000,6.1200,-1.1600,-7.6100,-0.0076,0.4527,-0.0556,-34.7500,45.5625,62.2500,341.8750,37.4375,169.4375,0
1776971052.821,9.7300,1.1109,1.1181,-0.3866,0.1900,0.0983,-69.7500,-26.5500,-12.4500,9.8090,0.8595,-0.0646,-0.1721,1.0706,0.6654,-32.2500,-26.2500,38.7000,6.2700,-1.0200,-7.5500,-0.0076,0.4745,-0.0545,-36.8750,45.5625,60.7500,341.8750,37.4375,169.4375,0
1776971052.825,9.7923,0.8188,1.5251,-0.5630,0.1439,0.0730,-69.7500,-26.5500,-12.4500,10.0437,0.1963,0.2418,-0.2038,1.0808,0.6715,-32.2500,-26.2500,38.7000,6.2700,-1.0200,-7.5500,-0.0076,0.4745,-0.0545,-36.8750,45.5625,60.7500,341.8750,37.7500,169.4375,0
1776971052.831,9.7923,0.8188,1.5251,-0.5630,0.1439,0.0730,-70.8000,-27.1500,-10.5000,10.0437,0.1963,0.2418,-0.2038,1.0808,0.6715,-31.5000,-25.5000,39.1500,6.0300,-1.1400,-7.5800,-0.0295,0.5421,-0.0393,-36.8750,45.5625,60.7500,341.8750,37.7500,169.4375,0
1776971052.835,9.6486,0.4405,1.8028,-0.7141,0.1282,0.0693,-70.8000,-27.1500,-10.5000,10.0652,-0.1700,0.6680,-0.2649,1.1008,0.6872,-31.5000,-25.5000,39.1500,6.0300,-1.1400,-7.5800,-0.0469,0.5792,-0.0185,-36.8750,45.5625,60.7500,341.8750,38.1250,169.4375,0
1776971052.841,9.6486,0.4405,1.8028,-0.7141,0.1282,0.0693,-70.8000,-27.1500,-10.5000,10.0652,-0.1700,0.6680,-0.2649,1.1008,0.6872,-32.1000,-25.9500,40.3500,6.1900,-1.2500,-7.6800,-0.0469,0.5792,-0.0185,-36.8750,45.5625,60.7500,341.8750,38.1250,169.4375,0
1776971052.850,9.7731,-0.0575,1.9920,-0.8332,0.0357,0.0855,-73.0500,-28.3500,-13.5000,10.2232,-0.2634,0.8954,-0.3720,1.1429,0.7075,-32.1000,-25.9500,40.3500,6.4200,-1.3700,-7.6400,-0.0622,0.6141,0.0098,-36.8750,45.5625,60.7500,341.9375,38.4375,169.4375,0
1776971052.855,9.8067,-0.0646,2.0925,-0.8372,0.0517,0.1063,-73.0500,-28.3500,-13.5000,10.4339,-0.1532,1.1061,-0.4703,1.1359,0.7027,-32.1000,-25.9500,40.3500,6.4200,-1.3700,-7.6400,-0.0622,0.6480,0.0447,-36.8750,45.5625,60.7500,342.0000,38.8125,169.4375,0
1776971052.861,9.8067,-0.0646,2.0925,-0.8372,0.0517,0.1063,-73.0500,-28.3500,-13.5000,10.4339,-0.1532,1.1061,-0.4703,1.1359,0.7027,-31.9500,-26.5500,40.2000,6.3100,-0.6700,-7.8900,-0.0622,0.6480,0.0447,-36.8750,45.5625,60.7500,342.0000,38.8125,169.4375,0
1776971052.866,10.1083,0.1748,1.8411,-0.8015,0.0266,0.1282,-73.0500,-28.3500,-13.5000,10.4196,-0.9337,0.3472,-0.5582,1.1431,0.7163,-31.9500,-26.5500,40.2000,6.3100,-0.6700,-7.8900,-0.0676,0.6610,0.0818,-38.3750,45.0625,60.3750,342.0625,39.1250,169.3750,0
1776971052.871,10.1083,0.1748,1.8411,-0.8015,0.0266,0.1282,-71.8500,-28.3500,-12.7500,10.4196,-0.9337,0.3472,-0.5582,1.1431,0.7163,-29.5500,-26.7000,39.3000,6.1500,-1.3700,-7.4900,-0.0676,0.6610,0.0818,-38.3750,45.0625,60.3750,342.0625,39.1250,169.3750,0
1776971052.876,10.2208,0.3519,1.7789,-0.7373,0.0242,0.1471,-71.8500,-28.3500,-12.7500,10.4004,-1.8483,-0.0527,-0.6478,1.1413,0.7839,-30.1500,-26.5500,40.9500,6.1500,-1.3700,-7.4900,-0.0633,0.5705,0.0545,-38.3750,45.0625,60.3750,342.1250,39.4375,169.3750,0
1776971052.881,10.2208,0.3519,1.7789,-0.7373,0.0242,0.1471,-71.5500,-27.9000,-13.5000,10.4004,-1.8483,-0.0527,-0.8146,1.1985,0.8577,-30.1500,-26.5500,40.9500,5.7700,-2.0100,-7.6100,-0.0633,0.5705,0.0545,-38.3750,45.0625,60.3750,342.1250,39.4375,169.3750,0
1776971052.886,10.1394,0.6943,1.5227,-0.6627,0.0685,0.1463,-71.5500,-27.9000,-13.5000,10.4363,-1.2546,0.3519,-0.8146,1.1985,0.8577,-29.4000,-26.2500,39.1500,5.7700,-2.0100,-7.6100,-0.1440,0.4952,0.0458,-38.3750,45.0625,60.3750,342.2500,39.6875,169.3750,0
1776971052.892,9.9144,1.0774,1.3384,-0.6627,0.0685,0.1463,-72.0000,-27.7500,-13.6500,10.2615,-0.5938,0.5986,-0.9166,1.2367,0.9118,-29.4000,-26.2500,39.1500,6.7100,-1.7600,-7.4300,-0.1440,0.4952,0.0458,-38.3750,45.0625,60.3750,342.3125,39.9375,169.4375,0
1776971052.901,9.6127,1.2402,1.3862,-0.6230,0.0469,0.1577,-72.6000,-27.4500,-13.6500,9.9192,-0.0335,0.3807,-0.8450,1.2521,0.9329,-29.4000,-26.2500,39.1500,7.0100,-1.9900,-7.4400,-0.2116,0.4363,-0.0044,-38.3750,45.0625,60.3750,342.3125,39.9375,169.4375,0
1776971052.911,9.6079,1.5802,1.2761,-0.6419,-0.0085,0.1684,-72.6000,-28.3500,-16.0500,9.7707,0.4310,0.5698,-0.7730,1.3035,0.9134,-29.4000,-26.2500,39.1500,7.2500,-1.3200,-7.2800,-0.3087,0.2989,-0.0382,-38.3750,45.0625,60.3750,342.3125,40.1250,169.6250,0
1776971052.916,9.6079,1.5802,1.2761,-0.6414,-0.0509,0.1788,-72.6000,-28.3500,-16.0500,9.7707,0.4310,0.5698,-0.7730,1.3035,0.9134,-29.4000,-26.2500,39.1500,7.2500,-1.3200,-7.2800,-0.3087,0.2989,-0.0382,-38.3750,45.0625,60.3750,342.3125,40.1250,169.6250,0
1776971052.921,9.8330,1.9609,1.1684,-0.6414,-0.0509,0.1788,-72.6000,-28.3500,-16.0500,9.9695,0.6057,1.1779,-0.7045,1.3368,0.9233,-30.3000,-28.2000,41.1000,7.2200,-1.7700,-7.0900,-0.4091,0.2836,-0.2203,-39.1875,45.5000,59.1875,342.3125,40.3125,169.9375,0
1776971052.926,9.8330,1.9609,1.1684,-0.6995,-0.1095,0.1865,-73.8000,-28.3500,-17.5500,9.9695,0.6057,1.1779,-0.7045,1.3368,0.9233,-29.1000,-28.6500,39.0000,7.2200,-1.7700,-7.0900,-0.4091,0.2836,-0.2203,-39.1875,45.5000,59.1875,342.3125,40.3125,169.9375,0
1776971052.931,9.5241,2.0710,1.2929,-0.8052,-0.1844,0.2012,-73.8000,-28.3500,-17.5500,10.2615,0.0359,0.9290,-0.6797,1.3627,0.9787,-29.1000,-28.6500,39.0000,5.9500,-1.3400,-7.5900,-0.4941,0.2683,-0.3142,-39.1875,45.5000,59.1875,342.2500,40.4375,170.3125,0
1776971052.938,9.5241,2.0710,1.2929,-0.8052,-0.1844,0.2012,-73.8000,-28.3500,-17.5500,10.2615,0.0359,0.9290,-0.6797,1.3627,0.9787,-27.3000,-28.9500,40.6500,6.6500,-2.2700,-7.5400,-0.5236,0.3643,-0.3142,-39.1875,45.5000,59.1875,342.1875,40.6875,170.7500,0
1776971052.943,9.7229,2.0662,1.4006,-0.8055,-0.1825,0.2113,-73.6500,-28.9500,-19.5000,10.6757,-0.7853,1.0606,-0.7139,1.3795,1.0387,-27.3000,-28.9500,40.6500,6.6500,-2.2700,-7.5400,-0.5236,0.3643,-0.3142,-39.1875,45.5000,59.1875,342.1250,41.1250,171.1875,0
1776971052.951,10.1370,2.2721,1.1779,-0.7112,-0.1817,0.2134,-73.6500,-28.9500,-19.5000,11.2049,-1.1923,0.4310,-0.9118,1.4304,1.1165,-28.8000,-28.9500,40.6500,5.5000,-0.3700,-8.4500,-0.5803,0.7036,-0.4243,-39.1875,45.5000,59.1875,341.9375,41.6250,171.7500,0
1776971052.961,10.6470,2.2936,0.5962,-0.6294,-0.2164,0.2086,-75.3000,-30.6000,-19.5000,11.7579,-1.6640,-0.1293,-1.1479,1.4629,1.2025,-28.8000,-28.9500,40.6500,6.6700,-2.1000,-7.5000,-0.5890,0.8628,-0.5694,-39.1875,45.5000,59.1875,341.9375,41.6250,171.7500,0
1776971052.966,10.6470,2.2936,0.5962,-0.6294,-0.2164,0.2086,-75.3000,-30.6000,-19.8000,11.7579,-1.6640,-0.1293,-1.1479,1.4629,1.2025,-27.7500,-30.1500,42.1500,6.6700,-2.1000,-7.5000,-0.5890,0.8628,-0.5694,-39.1875,45.5000,59.1875,341.9375,41.6250,171.7500,0
1776971052.971,11.0923,2.5379,-0.2586,-0.4922,-0.2630,0.1873,-75.3000,-30.6000,-19.8000,12.0787,-1.7645,-1.0199,-1.5012,1.5100,1.3171,-27.7500,-30.1500,42.1500,6.2200,0.0400,-7.1800,-0.5934,0.9239,-0.7079,-40.1875,44.3750,59.1875,341.6875,42.1875,172.3750,0
1776971052.976,11.0923,2.5379,-0.2586,-0.4922,-0.2630,0.1873,-75.4500,-31.6500,-21.0000,12.0787,-1.7645,-1.0199,-1.5012,1.5100,1.3171,-26.7000,-29.7000,43.9500,6.2200,0.0400,-7.1800,-0.5934,0.9239,-0.7079,-40.1875,44.3750,59.1875,341.6875,42.1875,172.3750,0
1776971052.981,11.2599,3.1292,-0.9840,-0.3888,-0.3451,0.1316,-75.4500,-31.6500,-21.0000,12.5073,-1.5395,-1.3671,-1.8186,1.5431,1.4565,-26.7000,-29.7000,43.9500,5.2900,-0.8000,-8.9500,-0.6436,0.8738,-0.7559,-40.1875,44.3750,59.1875,341.4375,42.7500,173.0625,0
1776971052.986,11.2599,3.1292,-0.9840,-0.3888,-0.3451,0.1316,-74.8500,-33.0000,-22.3500,12.5073,-1.5395,-1.3671,-1.8186,1.5431,1.4565,-25.5000,-30.1500,41.4000,5.2900,-0.8000,-8.9500,-0.7919,1.4737,-0.7723,-40.1875,44.3750,59.1875,341.2500,43.5625,173.8125,0
1776971052.992,11.5808,3.6919,-1.6137,-0.4828,-0.5476,0.0504,-75.4500,-34.0500,-22.2000,12.9167,0.0335,-1.8747,-2.1357,1.5884,1.6124,-25.5000,-30.1500,41.4000,5.2400,1.5500,-7.9600,-0.7919,1.4737,-0.7723,-40.1875,44.3750,59.1875,330.1250,44.8125,174.5000,0
1776971053.001,12.0357,3.1412,-2.3750,-0.6923,-0.8676,-0.0341,-75.4500,-34.0500,-22.2000,13.1633,1.2067,-3.1388,-2.2940,1.6238,1.7408,-25.2000,-30.4500,42.9000,5.3100,1.5600,-8.7600,-0.8159,2.1435,-0.7178,-40.1875,44.3750,59.1875,330.1250,44.8125,174.5000,0
1776971053.011,11.9471,2.3152,-2.0303,-0.7618,-1.2478,-0.0546,-75.6000,-34.9500,-23.4000,12.5169,1.2330,-3.7733,-2.1496,1.6617,1.8095,-24.6000,-31.8000,41.2500,2.6600,2.7900,-10.6500,-0.3033,2.8340,-0.6938,-40.1875,44.3750,59.1875,331.2500,46.4375,174.9375,0
1776971053.016,11.9471,2.3152,-2.0303,-0.7618,-1.2478,-0.0546,-75.9000,-36.3000,-24.3000,12.5169,1.2330,-3.7733,-2.1496,1.6617,1.8095,-24.6000,-31.8000,41.2500,2.6600,2.7900,-10.6500,-0.3033,2.8340,-0.6938,-40.1875,44.3750,59.1875,331.5000,48.5000,175.1250,0
1776971053.021,11.4970,2.0255,-1.7286,-0.7280,-1.4418,-0.0437,-75.9000,-36.3000,-24.3000,11.6262,0.8068,-2.9113,-1.9129,1.7115,1.8322,-24.6000,-31.8000,41.2500,7.4200,-3.9300,-3.5500,0.6207,3.7012,-1.2075,-43.0625,41.7500,58.6875,331.5000,48.5000,175.1250,0
1776971053.026,11.0852,1.6568,-2.2075,-0.7280,-1.4418,-0.0437,-75.9000,-36.3000,-24.3000,11.6262,0.8068,-2.9113,-1.9129,1.7115,1.8322,-24.1500,-34.2000,39.6000,7.4200,-3.9300,-3.5500,0.6207,3.7012,-1.2075,-43.0625,41.7500,58.6875,331.8125,51.2500,175.4375,0
1776971053.031,11.0852,1.6568,-2.2075,-0.6664,-1.5668,-0.0408,-75.9000,-36.3000,-24.3000,10.2879,0.8452,-2.1045,-1.5162,1.7840,1.8061,-24.1500,-34.2000,39.6000,13.9800,-5.8700,-11.6000,0.8421,4.8073,-1.6362,-43.0625,41.7500,58.6875,331.8125,51.2500,175.4375,0
1776971053.037,10.8625,0.9840,-2.1452,-0.6275,-1.7027,-0.0922,-77.5500,-38.5500,-26.4000,10.4339,0.3472,-0.8356,-1.2271,1.8562,1.7949,-23.4000,-33.9000,40.3500,5.7100,2.8000,-5.2000,-0.1887,4.7658,-0.2018,-43.0625,41.7500,58.6875,332.5000,53.8750,175.4375,0
1776971053.042,10.8625,0.9840,-2.1452,-0.6275,-1.7027,-0.0922,-114.3000,-38.5500,-26.4000,10.4339,0.3472,-0.8356,-1.2271,1.8562,1.7949,-23.4000,-33.9000,40.3500,5.7100,2.8000,-5.2000,-0.1887,4.7658,-0.2018,-43.0625,41.7500,58.6875,332.6875,56.3750,175.0000,0
1776971053.051,10.6446,0.7661,-1.0750,-0.7269,-1.9025,-0.1969,-75.9000,-39.4500,-27.0000,10.3693,0.6057,0.1796,-1.0528,1.9065,1.7043,-21.9000,-35.7000,39.0000,9.0900,1.1800,-8.4200,-0.0829,4.4746,0.2389,-43.0625,41.7500,58.6875,332.6875,56.3750,175.0000,0
1776971053.061,9.8497,0.5602,0.2562,-0.7602,-2.0214,-0.3160,-76.8000,-40.0500,-27.1500,10.8816,0.3903,1.4509,-0.8508,1.9151,1.6308,-22.2000,-36.1500,41.1000,9.9200,0.7000,-7.7500,0.1233,4.7615,0.3774,-43.0625,41.7500,58.6875,332.6250,58.9375,174.1875,0
1776971053.066,9.5648,0.3615,1.3671,-0.6736,-2.0443,-0.4485,-77.2500,-41.2500,-28.2000,10.7404,0.1508,2.8012,-0.7791,1.9207,1.5823,-22.2000,-36.1500,41.1000,9.9200,0.7000,-7.7500,0.1233,4.7615,0.3774,-43.0625,41.7500,58.6875,332.6250,58.9375,174.1875,0
1776971053.071,9.5648,0.3615,1.3671,-0.6736,-2.0443,-0.4485,-77.2500,-41.2500,-28.2000,10.7404,0.1508,2.8012,-0.7791,1.9207,1.5823,-22.2000,-36.1500,41.1000,13.1300,0.1400,-8.3400,0.3851,4.6884,0.5465,-53.0000,40.3750,47.2500,332.2500,61.5000,173.0000,0
1776971053.076,9.3039,0.1628,2.6097,-0.5761,-2.0294,-0.5836,-76.2000,-43.3500,-27.0000,10.5512,-0.4022,3.9672,-0.7032,2.0491,1.5250,-22.2000,-36.1500,41.1000,13.1300,0.1400,-8.3400,0.3851,4.6884,0.5465,-53.0000,40.3750,47.2500,332.2500,61.5000,173.0000,0
1776971053.081,9.3039,0.1628,2.6097,-0.5761,-2.0294,-0.5836,-76.2000,-43.3500,-27.0000,10.5512,-0.4022,3.9672,-0.7032,2.0491,1.5250,-22.2000,-36.1500,41.1000,14.1200,1.1900,-10.1800,0.3643,5.0713,0.5803,-53.0000,40.3750,47.2500,331.9375,64.2500,171.3750,0
1776971053.086,10.4627,-0.3879,3.6105,-0.5558,-1.9518,-0.7957,-76.8000,-44.4000,-28.6500,10.8314,-1.4533,5.2337,-0.5532,2.1629,1.5044,-20.2500,-39.3000,42.0000,14.1200,1.1900,-10.1800,0.5607,4.8051,0.7527,-53.0000,40.3750,47.2500,331.3125,66.8125,169.1875,0
1776971053.092,10.4627,-0.3879,3.6105,-0.5558,-1.9518,-0.7957,-76.8000,-44.4000,-28.6500,10.8314,-1.4533,5.2337,-0.5532,2.1629,1.5044,-20.2500,-39.3000,42.0000,12.4900,0.8600,-7.0800,0.5607,4.8051,0.7527,-53.0000,40.3750,47.2500,330.3125,69.0000,166.1875,0
1776971053.101,11.0636,-0.9433,3.8235,-0.5372,-1.9811,-0.9667,-76.8000,-44.4000,-28.6500,10.2137,-2.3655,6.7804,-0.4642,2.1304,1.5242,-20.2500,-40.8000,40.5000,17.8200,-1.1700,-10.7200,0.9457,4.2052,0.9403,-53.0000,40.3750,47.2500,329.8750,71.4375,162.7500,0
1776971053.111,10.4004,-1.2234,3.9121,-0.3160,-1.7826,-1.1226,-76.8000,-44.4000,-27.1500,9.8833,-2.7653,7.1658,-0.3893,2.1607,1.5300,-18.3000,-42.1500,41.1000,18.0900,-1.5300,-13.5000,0.5160,4.7822,0.8094,-53.0000,40.3750,47.2500,329.8750,71.4375,162.7500,0
1776971053.116,10.3477,-1.3360,3.1915,-0.2148,-1.5465,-1.2196,-76.8000,-44.4000,-27.1500,9.8497,-3.7469,6.9264,-0.3949,1.9945,1.5348,-19.2000,-42.7500,42.0000,18.0900,-1.5300,-13.5000,0.5160,4.7822,0.8094,-53.0000,40.3750,47.2500,330.0000,73.6250,159.2500,0
1776971053.121,10.3477,-1.3360,3.1915,-0.2148,-1.5465,-1.2196,-76.8000,-44.4000,-27.1500,9.8497,-3.7469,6.9264,-0.3949,1.9945,1.5348,-19.2000,-42.7500,42.0000,15.0900,-0.6900,-11.7500,-0.1953,4.4419,0.6272,-58.2500,41.7500,31.1875,330.0000,73.6250,159.2500,0
1776971053.126,11.3557,-0.7661,2.9688,-0.1705,-1.3789,-1.2955,-80.8500,-45.3000,-25.5000,9.2584,-4.1875,7.1132,-0.3816,1.8663,1.4722,-19.2000,-42.7500,42.0000,15.0900,-0.6900,-11.7500,-0.1953,4.4419,0.6272,-58.2500,41.7500,31.1875,330.2500,75.1875,155.9375,0
1776971053.131,12.0907,-0.4046,2.8276,-0.1705,-1.3789,-1.2955,-80.8500,-45.3000,-25.5000,9.2584,-4.1875,7.1132,-0.3816,1.8663,1.4722,-19.2000,-42.7500,42.0000,11.0600,0.0600,-10.4300,-0.5225,3.2899,0.5912,-58.2500,41.7500,31.1875,330.2500,75.1875,155.9375,0
1776971053.139,12.0907,-0.4046,2.8276,0.0663,-1.1802,-1.3733,-80.5500,-44.4000,-26.7000,8.6742,-4.7573,7.6423,-0.3056,1.6590,1.3760,-15.0000,-46.6500,44.2500,8.2900,0.4900,-9.4800,-0.7625,2.6485,0.7418,-58.2500,41.7500,31.1875,330.5625,76.3125,152.3750,0
1776971053.144,12.6294,-0.3855,2.7246,0.3752,-1.0709,-1.3880,-81.1500,-45.7500,-26.5500,7.5369,-4.6807,6.5242,-0.3064,1.3403,1.2473,-13.8000,-47.2500,44.4000,8.2900,0.4900,-9.4800,-0.7625,2.6485,0.7418,-58.2500,41.7500,31.1875,330.6250,77.0625,148.0000,0
1776971053.152,12.4714,-0.7829,2.6671,0.4823,-1.0818,-1.3539,-81.1500,-45.7500,-26.5500,7.5369,-4.6807,6.5242,-0.3064,1.3403,1.2473,-12.6000,-46.8000,45.9000,2.9000,0.2400,-9.6100,-0.7985,2.1009,1.1454,-58.2500,41.7500,31.1875,330.3750,77.1875,142.8750,0
1776971053.162,11.6813,-0.6680,2.5379,0.4205,-1.0698,-1.3134,-83.4000,-45.0000,-24.3000,7.6207,-6.0430,6.8163,-0.4178,0.9627,1.1570,-11.7000,-49.6500,46.3500,10.7000,-3.1300,-10.2300,-0.8421,1.4901,1.7846,-58.2500,41.7500,31.1875,330.3750,77.1875,142.8750,0
1776971053.167,11.6813,-0.6680,2.5379,0.4205,-1.0698,-1.3134,-82.5000,-43.9500,-24.1500,5.4923,-5.4444,7.1826,-0.1676,0.5529,0.9220,-11.7000,-49.6500,46.3500,10.7000,-3.1300,-10.2300,-0.8421,1.4901,1.7846,-58.2500,41.7500,31.1875,329.7500,77.0000,136.9375,0
1776971053.172,11.5903,-0.3136,2.1859,0.4874,-1.0187,-1.2686,-82.5000,-43.9500,-24.1500,5.4923,-5.4444,7.1826,-0.3262,0.3813,0.6336,-10.0500,-47.5500,46.2000,14.4600,1.2500,-16.7200,-0.7123,1.5043,2.1424,-56.5625,44.5625,13.0000,329.7500,77.0000,136.9375,0
1776971053.176,11.5903,-0.3136,2.1859,0.4874,-1.0187,-1.2686,-84.1500,-43.3500,-22.5000,4.5442,-3.9816,5.8849,-0.3262,0.3813,0.6336,-10.0500,-47.5500,46.2000,14.4600,1.2500,-16.7200,-0.7123,1.5043,2.1424,-56.5625,44.5625,13.0000,329.8125,77.0000,131.0000,0
1776971053.181,11.6382,0.2993,1.8579,0.6563,-1.0035,-1.2409,-84.1500,-43.3500,-22.5000,5.2888,-3.5530,5.6048,-0.5433,0.1780,0.3115,-10.0500,-47.5500,46.2000,10.2600,3.1600,-19.3400,-1.4857,1.9417,2.0093,-56.5625,44.5625,13.0000,329.8125,77.0000,131.0000,0
1776971053.186,11.6382,0.2993,1.8579,0.6563,-1.0035,-1.2409,-84.1500,-43.3500,-22.5000,5.2888,-3.5530,5.6048,-0.5433,0.1780,0.3115,-10.0500,-47.5500,46.2000,10.2600,3.1600,-19.3400,-1.4257,0.5149,2.0104,-56.5625,44.5625,13.0000,329.6250,76.3125,127.8750,0
1776971053.192,11.3844,1.0918,1.8244,0.7693,-0.9563,-1.2537,-84.1500,-43.3500,-22.5000,7.1060,-3.1675,5.1356,-0.7085,-0.2022,0.0253,-7.3500,-49.6500,47.1000,5.3600,5.3800,-12.3300,-1.4257,0.5149,2.0104,-56.5625,44.5625,13.0000,328.1875,74.7500,127.8125,0
1776971053.201,11.0660,1.6281,2.3032,0.8577,-0.8815,-1.2817,-86.1000,-42.1500,-21.0000,7.3143,-3.0502,4.8315,-0.6955,-0.7117,-0.1964,-6.6000,-49.2000,46.3500,0.6600,2.0100,-7.2500,-0.0404,-1.7082,2.2624,-56.5625,44.5625,13.0000,325.6875,72.5625,128.9375,0
1776971053.212,11.0109,2.2218,3.0574,1.0768,-0.7703,-1.3075,-86.1000,-42.1500,-21.0000,6.8953,-2.8084,4.7956,-0.4636,-1.0693,-0.4271,-6.1500,-49.0500,45.9000,-1.1600,0.5500,-5.0900,1.0287,-3.1318,2.5242,-56.5625,44.5625,13.0000,325.6875,72.5625,128.9375,0
1776971053.217,11.0109,2.2218,3.0574,1.0768,-0.7703,-1.3075,-84.7500,-40.0500,-19.3500,6.8953,-2.8084,4.7956,-0.4636,-1.0693,-0.4271,-6.1500,-49.0500,45.9000,-1.1600,0.5500,-5.0900,1.0287,-3.1318,2.5242,-56.5625,44.5625,13.0000,325.6875,72.5625,128.9375,0
1776971053.222,11.0732,2.0375,3.1843,1.4717,-0.7125,-1.2958,-84.7500,-40.0500,-19.3500,6.6080,-3.2274,4.9895,-0.2729,-1.3483,-0.5974,-5.7000,-47.5500,47.2500,-0.9700,0.3800,-4.5200,1.0079,-2.6780,2.3442,-50.0000,50.8750,3.0000,323.2500,70.6250,129.3750,0
1776971053.226,11.0732,2.0375,3.1843,1.4717,-0.7125,-1.2958,-86.1000,-36.7500,-16.9500,6.6080,-3.2274,4.9895,-0.2729,-1.3483,-0.5974,-5.7000,-47.5500,47.2500,-0.9700,0.3800,-4.5200,1.0079,-2.6780,2.3442,-50.0000,50.8750,3.0000,323.2500,70.6250,129.3750,0
1776971053.232,11.1067,1.6999,2.7964,1.9073,-0.7181,-1.2793,-86.1000,-36.7500,-16.9500,6.5601,-4.1324,5.1667,-0.0770,-1.6241,-0.7560,-5.7000,-47.5500,47.2500,-0.5200,1.1100,-4.9200,0.6567,-2.0442,1.9679,-50.0000,50.8750,3.0000,321.3750,69.0625,129.5000,0
1776971053.239,10.7548,1.4389,2.2913,2.2535,-0.7549,-1.2622,-86.5500,-37.9500,-16.6500,6.5601,-4.1324,5.1667,-0.0770,-1.6241,-0.7560,-5.7000,-47.5500,47.2500,0.8500,1.6500,-6.3100,0.1931,-1.5653,1.4290,-50.0000,50.8750,3.0000,320.1250,67.8750,129.8125,0
1776971053.243,10.7548,1.4389,2.2913,2.2535,-0.7549,-1.2622,-86.5500,-37.9500,-16.6500,6.0262,-4.5107,4.5203,0.1271,-1.8287,-0.9518,-5.7000,-47.5500,47.2500,0.8500,1.6500,-6.3100,0.1931,-1.5653,1.4290,-50.0000,50.8750,3.0000,319.2500,66.8750,130.6250,0
1776971053.252,10.3813,0.9194,1.7454,2.4525,-0.7600,-1.2534,-85.8000,-35.5500,-15.4500,5.8897,-3.4477,3.6607,0.5396,-1.9593,-1.0970,-8.4000,-46.2000,47.1000,2.9200,2.1800,-7.6500,-0.1342,-1.6057,1.0287,-50.0000,50.8750,3.0000,318.5625,65.8125,132.1250,0
1776971053.262,9.9455,0.3639,1.2426,2.6092,-0.7570,-1.2414,-85.5000,-34.2000,-13.5000,6.4284,-2.3080,3.4333,1.1807,-2.0283,-1.1088,-8.4000,-45.4500,47.1000,5.5100,3.1900,-8.1000,-0.1800,-2.0769,0.7047,-50.0000,50.8750,3.0000,318.5625,65.8125,132.1250,0
1776971053.267,9.7564,0.1197,0.9601,2.6934,-0.7424,-1.2276,-86.8500,-32.4000,-9.9000,6.4284,-2.3080,3.4333,1.1807,-2.0283,-1.1088,-8.4000,-45.4500,47.1000,5.5100,3.1900,-8.1000,-0.1800,-2.0769,0.7047,-45.1875,56.0625,1.5625,317.8125,64.6875,134.2500,0
1776971053.272,9.7564,0.1197,0.9601,2.6934,-0.7424,-1.2276,-86.8500,-32.4000,-9.9000,7.0294,-2.5115,4.0247,1.7555,-2.1048,-1.0981,-9.0000,-45.3000,49.0500,5.7500,3.0600,-7.6800,-0.0567,-2.6060,0.2487,-45.1875,56.0625,1.5625,317.8125,64.6875,134.2500,0
1776971053.277,9.5744,0.1245,0.9385,2.6942,-0.6736,-1.2092,-86.8500,-32.4000,-9.9000,7.0294,-2.5115,4.0247,1.7555,-2.1048,-1.0981,-9.0000,-45.3000,49.0500,5.7500,3.0600,-7.6800,-0.0567,-2.6060,0.2487,-45.1875,56.0625,1.5625,317.0625,63.5625,136.8125,0
1776971053.282,9.5744,0.1245,0.9385,2.6942,-0.6736,-1.2092,-86.8500,-32.4000,-9.9000,7.6878,-3.1963,4.2545,2.0891,-2.2601,-1.1330,-9.6000,-42.4500,50.4000,5.3000,2.5600,-7.0000,0.1571,-3.1405,-0.1909,-45.1875,56.0625,1.5625,317.0625,63.5625,136.8125,0
1776971053.287,9.4595,0.1724,1.0391,2.6076,-0.5982,-1.1780,-88.0500,-28.9500,-10.3500,7.6878,-3.1963,4.2545,2.0891,-2.2601,-1.1330,-9.6000,-42.4500,50.4000,5.3000,2.5600,-7.0000,0.3054,-3.4350,-0.6829,-45.1875,56.0625,1.5625,316.3125,62.3750,139.6875,0
1776971053.293,9.4595,0.1724,1.0391,2.6076,-0.5982,-1.1780,-88.0500,-28.9500,-10.3500,7.7093,-3.8379,4.2329,2.1602,-2.4949,-1.1868,-9.6000,-42.4500,50.4000,5.4500,2.0100,-6.3200,0.3054,-3.4350,-0.6829,-45.1875,56.0625,1.5625,315.7500,61.2500,142.6875,0
1776971053.302,9.3278,0.3041,0.9936,2.4826,-0.5494,-1.1503,-87.4500,-28.6500,-7.9500,7.9152,-4.2066,4.6304,2.1901,-2.7137,-1.2252,-10.6500,-39.9000,52.0500,5.7500,1.3100,-6.1500,0.4069,-3.5288,-1.1836,-45.1875,56.0625,1.5625,315.7500,61.2500,142.6875,0
1776971053.312,9.0692,0.4094,0.9026,2.3715,-0.5505,-1.1215,-86.5500,-27.0000,-7.3500,8.0565,-4.5921,4.6471,2.1661,-2.8996,-1.2572,-13.8000,-37.0500,54.4500,6.5800,0.5700,-6.2800,0.4843,-3.5048,-1.6602,-45.1875,56.0625,1.5625,315.3750,60.2500,145.8125,0
1776971053.316,8.8729,0.4310,0.6081,2.2940,-0.5612,-1.0728,-87.4500,-24.7500,-7.9500,8.0565,-4.5921,4.6471,2.1661,-2.8996,-1.2572,-13.8000,-37.0500,54.4500,6.5800,0.5700,-6.2800,0.4843,-3.5048,-1.6602,-45.1875,56.0625,1.5625,315.3750,60.2500,145.8125,0
1776971053.321,8.8729,0.4310,0.6081,2.2940,-0.5612,-1.0728,-87.4500,-24.7500,-7.9500,8.6048,-4.4843,4.7453,2.0193,-3.0403,-1.2343,-13.8000,-36.7500,55.2000,7.5100,0.1300,-6.5600,0.5367,-3.4514,-2.0889,-52.5000,60.3750,6.3750,315.1875,59.2500,148.9375,0
1776971053.326,8.6933,0.5578,0.1915,2.2772,-0.5804,-1.0435,-88.0500,-24.6000,-7.6500,8.6048,-4.4843,4.7453,1.8399,-3.1523,-1.1527,-13.8000,-36.7500,55.2000,7.5100,0.1300,-6.5600,0.5367,-3.4514,-2.0889,-52.5000,60.3750,6.3750,315.1875,59.2500,148.9375,0
1776971053.331,8.6933,0.5578,0.1915,2.2772,-0.5804,-1.0435,-88.0500,-24.6000,-7.6500,8.8657,-4.1970,4.6902,1.8399,-3.1523,-1.1527,-15.6000,-34.5000,55.5000,8.4800,-0.4000,-6.7200,0.6087,-3.4459,-2.4140,-52.5000,60.3750,6.3750,315.1250,58.2500,152.0625,0
1776971053.337,8.9184,0.7087,0.0287,2.3928,-0.7402,-1.0179,-88.9500,-22.5000,-6.0000,8.9902,-3.9528,4.8459,1.6862,-3.2357,-1.0619,-15.6000,-34.5000,55.5000,8.4800,-0.4000,-6.7200,0.7145,-3.4252,-2.6169,-52.5000,60.3750,6.3750,315.0625,57.1875,155.0625,0
1776971053.343,8.9184,0.7087,0.0287,2.3928,-0.7402,-1.0179,-88.9500,-22.5000,-6.0000,8.9902,-3.9528,4.8459,1.6862,-3.2357,-1.0619,-16.5000,-31.9500,54.9000,9.3700,-0.5100,-7.1300,0.7145,-3.4252,-2.6169,-52.5000,60.3750,6.3750,314.9375,56.0625,157.8750,0
1776971053.352,8.4898,0.3615,-0.3089,2.1996,-0.5105,-0.9990,-88.9500,-22.5000,-6.0000,8.7077,-3.4740,4.7692,1.6331,-3.3111,-1.0277,-16.5000,-31.9500,54.9000,10.3500,-0.4800,-7.5300,0.8181,-3.3761,-2.6987,-52.5000,60.3750,6.3750,314.9375,56.0625,157.8750,0
1776971053.362,8.9136,0.3184,-0.3831,2.0606,-0.5963,-0.9721,-88.8000,-18.7500,-6.6000,8.7795,-2.9161,4.6064,1.6518,-3.3660,-1.0674,-17.8500,-27.9000,58.2000,11.5300,-0.5800,-8.0800,0.9218,-3.3827,-2.6616,-52.5000,60.3750,6.3750,314.7500,54.8125,160.3125,0
1776971053.367,8.9567,0.4429,-0.4669,2.0254,-0.5668,-0.9683,-88.8000,-18.7500,-6.6000,9.1794,-2.6983,4.5250,1.7174,-3.3817,-1.0864,-17.8500,-27.9000,58.2000,11.5300,-0.5800,-8.0800,0.9218,-3.3827,-2.6616,-52.5000,60.3750,6.3750,314.7500,54.8125,160.3125,0
1776971053.372,9.0621,0.5962,-0.4190,2.0254,-0.5668,-0.9683,-88.8000,-18.7500,-6.6000,9.1794,-2.6983,4.5250,1.7174,-3.3817,-1.0864,-19.0500,-25.9500,56.4000,11.7100,-0.7100,-8.0600,1.0123,-3.4252,-2.5504,-59.0000,49.5000,19.6875,314.3125,53.5000,162.4375,0
1776971053.376,9.0621,0.5962,-0.4190,1.9966,-0.4938,-0.9555,-88.6500,-18.1500,-5.2500,9.4834,-2.6480,4.5179,1.8357,-3.4142,-1.1061,-19.0500,-25.9500,56.4000,11.7100,-0.7100,-8.0600,1.0123,-3.4252,-2.5504,-59.0000,49.5000,19.6875,314.3125,53.5000,162.4375,0
1776971053.382,9.0980,0.7494,-0.4118,1.9966,-0.4938,-0.9555,-88.6500,-18.1500,-5.2500,9.4834,-2.6480,4.5179,1.8357,-3.4142,-1.1061,-20.4000,-25.9500,55.3500,11.9300,-0.5400,-8.1200,1.0668,-3.4808,-2.4347,-59.0000,49.5000,19.6875,313.7500,52.0000,164.3125,0
1776971053.386,9.0980,0.7494,-0.4118,1.9945,-0.5676,-0.9270,-88.6500,-15.4500,-5.7000,9.8282,-2.6336,4.2617,1.9569,-3.4051,-1.0930,-20.4000,-25.9500,55.3500,11.9300,-0.5400,-8.1200,1.0832,-3.5016,-2.3169,-59.0000,49.5000,19.6875,313.0625,50.4375,165.8750,0
1776971053.393,8.9280,0.8523,-0.4310,1.9604,-0.6201,-0.8735,-88.6500,-15.4500,-5.7000,9.8282,-2.6336,4.2617,1.9569,-3.4051,-1.0930,-22.2000,-24.1500,56.4000,12.4200,0.4200,-8.2900,1.0832,-3.5016,-2.3169,-59.0000,49.5000,19.6875,312.2500,48.8750,167.1875,0
1776971053.402,8.9663,0.8978,-0.7733,1.8993,-0.6600,-0.8268,-89.4000,-14.5500,-5.2500,10.1945,-3.2609,3.8188,1.9822,-3.3763,-1.0818,-22.2000,-24.1500,56.4000,11.5600,0.6000,-7.1100,1.1050,-3.4994,-2.2024,-59.0000,49.5000,19.6875,311.2500,47.1875,168.2500,0
1776971053.412,8.9711,1.1947,-1.2426,1.8642,-0.6765,-0.7794,-87.4500,-13.0500,-5.2500,10.2544,-3.5913,3.6799,1.9953,-3.3723,-1.0917,-24.1500,-20.7000,55.6500,11.2700,0.8300,-6.3700,1.1497,-3.5136,-2.1108,-59.0000,49.5000,19.6875,311.2500,47.1875,168.2500,0
1776971053.417,8.9711,1.1947,-1.2426,1.8642,-0.6765,-0.7794,-89.8500,-10.5000,-6.1500,10.4004,-3.2322,3.8666,2.0097,-3.3340,-1.0648,-24.3000,-19.0500,55.2000,11.2700,0.8300,-6.3700,1.1497,-3.5136,-2.1108,-59.0000,49.5000,19.6875,310.2500,45.6250,169.1875,0
1776971053.422,9.0333,1.5203,-1.5610,1.9428,-0.6531,-0.7261,-89.8500,-10.5000,-6.1500,10.4004,-3.2322,3.8666,2.0097,-3.3340,-1.0648,-24.3000,-19.0500,55.2000,12.1600,1.4600,-6.6600,1.1421,-3.3598,-2.0878,-52.2500,33.0000,27.5625,310.2500,45.6250,169.1875,0
1776971053.427,9.0333,1.5203,-1.5610,1.9428,-0.6531,-0.7261,-90.3000,-11.2500,-5.8500,10.4339,-2.9353,4.0534,1.9939,-3.2674,-1.0032,-26.8500,-16.5000,54.1500,12.1600,1.4600,-6.6600,1.1421,-3.3598,-2.0878,-52.2500,33.0000,27.5625,309.1875,44.1250,170.0000,0
1776971053.432,9.1243,1.8028,-1.8196,2.1106,-0.6608,-0.6752,-90.3000,-11.2500,-5.8500,10.4339,-2.9353,4.0534,1.9939,-3.2674,-1.0032,-26.8500,-16.5000,54.1500,13.0700,2.9400,-7.0400,1.1552,-3.1067,-2.1020,-52.2500,33.0000,27.5625,309.1875,44.1250,170.0000,0
1776971053.440,9.0621,1.9082,-1.9345,2.2684,-0.6496,-0.6323,-90.3000,-11.2500,-5.8500,10.2639,-2.9018,4.1132,2.1106,-3.2325,-0.9483,-26.7000,-15.9000,52.8000,13.4900,3.3200,-7.1000,1.2610,-2.9256,-2.1129,-52.2500,33.0000,27.5625,327.8125,42.6875,170.6875,0
1776971053.445,9.0621,1.9082,-1.9345,2.2684,-0.6496,-0.6323,-90.3000,-11.2500,-5.8500,9.6223,-2.6217,4.1396,2.3409,-3.1472,-0.9606,-26.7000,-15.9000,52.8000,13.4900,3.3200,-7.1000,1.2610,-2.9256,-2.1129,-52.2500,33.0000,27.5625,326.1875,41.3125,171.1875,0
1776971053.452,9.3278,2.2314,-2.1213,2.4165,-0.6043,-0.5868,-87.6000,-7.8000,-6.1500,9.9599,-2.3080,4.1204,2.5431,-3.0502,-0.9076,-27.3000,-13.9500,53.5500,13.3900,3.8500,-6.4700,1.4323,-2.8667,-2.1675,-52.2500,33.0000,27.5625,324.4375,39.9375,171.5625,0
1776971053.462,9.1913,2.4086,-1.9106,2.4813,-0.5521,-0.5734,-87.6000,-7.8000,-6.1500,9.2608,-1.9465,3.2010,2.7510,-2.9527,-0.8551,-27.3000,-13.9500,53.5500,12.6600,5.0100,-5.0400,1.6024,-2.8482,-2.2864,-52.2500,33.0000,27.5625,324.4375,39.9375,171.5625,0
1776971053.467,9.1913,2.4086,-1.9106,2.4813,-0.5521,-0.5734,-89.4000,-6.7500,-7.9500,9.2608,-1.9465,3.2010,2.7510,-2.9527,-0.8551,-29.1000,-10.6500,51.4500,12.6600,5.0100,-5.0400,1.6024,-2.8482,-2.2864,-52.2500,33.0000,27.5625,324.4375,39.9375,171.5625,0
1776971053.472,8.7867,2.4062,-1.6903,2.4896,-0.4064,-0.5636,-89.4000,-6.7500,-7.9500,8.5425,-1.6592,3.1939,2.9812,-2.8903,-0.7935,-29.1000,-10.6500,51.4500,12.4600,5.3800,-4.2500,1.7693,-2.7631,-2.4936,-41.3750,19.6875,27.7500,322.6250,38.6250,171.8750,0
1776971053.477,8.7867,2.4062,-1.6903,2.4896,-0.4064,-0.5636,-89.7000,-6.0000,-7.9500,8.5425,-1.6592,3.1939,2.9812,-2.8903,-0.7935,-31.0500,-9.1500,51.7500,12.4600,5.3800,-4.2500,1.7693,-2.7631,-2.4936,-41.3750,19.6875,27.7500,322.6250,38.6250,171.8750,0
1776971053.482,8.4300,1.9537,-1.5467,2.5103,-0.2089,-0.4868,-89.7000,-6.0000,-7.9500,7.7620,-1.7526,3.9456,3.2058,-2.7997,-0.7242,-31.0500,-9.1500,51.7500,13.2300,5.2200,-4.8800,1.8860,-2.5176,-2.7991,-41.3750,19.6875,27.7500,320.6250,37.4375,172.1875,0
1776971053.487,8.2217,1.4844,-1.3791,2.5103,-0.2089,-0.4868,-90.1500,-6.7500,-7.5000,7.7620,-1.7526,3.9456,3.2058,-2.7997,-0.7242,-32.2500,-8.2500,49.8000,13.2300,5.2200,-4.8800,1.8904,-2.2995,-3.1907,-41.3750,19.6875,27.7500,318.4375,36.4375,172.6250,0
1776971053.493,8.2217,1.4844,-1.3791,2.5343,-0.0520,-0.4032,-90.1500,-6.7500,-7.5000,7.5465,-1.6759,4.2306,3.3873,-2.6601,-0.6592,-32.2500,-8.2500,49.8000,15.7900,5.1100,-5.9700,1.8904,-2.2995,-3.1907,-41.3750,19.6875,27.7500,316.0625,35.5000,173.1875,0
1776971053.502,8.2145,1.3144,-1.0918,2.5263,0.0400,-0.3184,-89.1000,-4.9500,-7.3500,7.8171,-1.2953,4.5586,3.5517,-2.5578,-0.6193,-30.7500,-5.5500,50.1000,15.7900,5.7900,-5.8800,1.7639,-2.1642,-3.6477,-41.3750,19.6875,27.7500,313.4375,34.5000,173.9375,0
1776971053.512,8.0661,1.4174,-1.1420,2.5551,0.1569,-0.2505,-88.3500,-4.2000,-6.1500,7.7500,-0.9984,4.3239,3.6359,-2.4344,-0.5918,-33.9000,-4.6500,50.4000,14.5900,6.0600,-4.7000,1.7137,-2.2362,-4.0797,-41.3750,19.6875,27.7500,313.4375,34.5000,173.9375,0
1776971053.517,7.6638,1.3958,-0.8882,2.6417,0.2579,-0.2337,-89.5500,-4.9500,-6.6000,7.7500,-0.9984,4.3239,3.6359,-2.4344,-0.5918,-33.9000,-4.6500,50.4000,14.5900,6.0600,-4.7000,1.7137,-2.2362,-4.0797,-41.3750,19.6875,27.7500,310.6250,33.3750,174.5000,0
1776971053.522,7.6638,1.3958,-0.8882,2.6417,0.2579,-0.2337,-89.5500,-4.9500,-6.6000,7.6950,-0.6440,4.3646,3.7137,-2.3342,-0.5502,-33.9000,-4.6500,50.4000,13.4400,5.5700,-3.4800,1.9580,-2.4991,-4.3121,-36.0625,8.6875,21.1875,310.6250,33.3750,174.5000,0
1776971053.527,6.8714,1.7406,-0.3663,2.6534,0.3962,-0.2065,-89.5500,-4.9500,-6.6000,7.6950,-0.6440,4.3646,3.7137,-2.3342,-0.5502,-33.6000,-1.9500,47.5500,13.4400,5.5700,-3.4800,1.9580,-2.4991,-4.3121,-36.0625,8.6875,21.1875,307.7500,32.1250,174.8750,0
1776971053.532,6.8714,1.7406,-0.3663,2.6534,0.3962,-0.2065,-89.5500,-4.9500,-6.6000,7.5130,-0.1796,4.3024,3.7915,-2.2663,-0.5009,-33.6000,-1.9500,47.5500,12.1200,3.3400,-2.0900,2.3507,-2.6114,-4.3448,-36.0625,8.6875,21.1875,307.7500,32.1250,174.8750,0
1776971053.539,6.1100,1.7621,0.1125,2.6004,0.6765,-0.1124,-88.0500,-1.0500,-5.8500,7.2209,-0.1820,3.8283,3.8928,-2.1783,-0.4293,-34.2000,-0.9000,47.8500,12.2600,2.3400,-2.2800,2.6584,-2.4653,-4.2630,-36.0625,8.6875,21.1875,304.9375,31.0000,174.8750,0
1776971053.544,6.1100,1.7621,0.1125,2.6004,0.6765,-0.1124,-88.0500,-1.0500,-5.8500,7.2209,-0.1820,3.8283,3.8928,-2.1783,-0.4293,-34.2000,-0.9000,47.8500,12.2600,2.3400,-2.2800,2.6584,-2.4653,-4.2630,-36.0625,8.6875,21.1875,302.1875,30.0000,174.7500,0
1776971053.552,5.4612,1.4868,0.3926,2.5610,0.9792,0.0195,-87.7500,-2.1000,-6.7500,6.8953,-0.4453,3.5195,3.9229,-2.0307,-0.3730,-35.1000,-1.8000,46.9500,12.1300,1.8800,-2.2500,2.7685,-2.2384,-4.0961,-36.0625,8.6875,21.1875,299.6250,29.0000,174.5000,0
1776971053.562,5.8514,1.0439,0.0814,2.6508,1.0520,0.1204,-88.0500,-2.7000,-6.1500,6.8714,-0.9720,3.2753,3.9229,-1.8402,-0.3339,-34.6500,1.6500,47.5500,11.5200,2.3500,-1.5700,2.7674,-2.1424,-3.8386,-36.0625,8.6875,21.1875,299.6250,29.0000,174.5000,0
1776971053.567,6.1818,0.6201,-0.2897,2.7174,1.1005,0.1415,-88.6500,-2.1000,-5.2500,6.8714,-0.9720,3.2753,3.9229,-1.8402,-0.3339,-34.6500,1.6500,47.5500,11.5200,2.3500,-1.5700,2.7674,-2.1424,-3.8386,-36.0625,8.6875,21.1875,299.6250,29.0000,174.5000,0
1776971053.572,6.1818,0.6201,-0.2897,2.7174,1.1005,0.1415,-88.6500,-2.1000,-5.2500,6.9671,-1.5538,3.1556,3.8653,-1.6252,-0.3214,-34.6500,1.6500,47.5500,11.3700,2.7900,-1.3300,2.7751,-2.0562,-3.5245,-37.1875,-1.7500,23.3750,297.1875,28.0625,174.0625,0
1776971053.577,6.6846,0.4501,-0.6776,2.6766,1.1183,0.1543,-87.4500,-0.9000,-5.7000,6.9671,-1.5538,3.1556,3.8653,-1.6252,-0.3214,-35.5500,3.0000,46.6500,11.3700,2.7900,-1.3300,2.7751,-2.0562,-3.5245,-37.1875,-1.7500,23.3750,297.1875,28.0625,174.0625,0
1776971053.582,6.6846,0.4501,-0.6776,2.6766,1.1183,0.1543,-87.4500,-0.9000,-5.7000,7.0126,-2.0494,2.8611,3.7355,-1.4306,-0.3341,-35.5500,3.0000,46.6500,11.4000,3.1600,-1.3900,2.8013,-1.9253,-3.1678,-37.1875,-1.7500,23.3750,295.0000,27.1875,173.5000,0
1776971053.587,7.1658,0.1508,-1.4413,2.6422,1.1114,0.1503,-87.4500,-0.9000,-5.7000,7.0126,-2.0494,2.8611,3.7355,-1.4306,-0.3341,-35.1000,4.0500,45.6000,11.4000,3.1600,-1.3900,2.7773,-1.7748,-2.8274,-37.1875,-1.7500,23.3750,293.0000,26.3750,172.8125,0
1776971053.593,1.3288,1.2258,-3.9816,2.6422,1.1114,0.1503,-88.9500,-2.4000,-6.4500,6.8283,-2.3128,2.9329,3.5477,-1.2268,-0.3922,-35.1000,4.0500,45.6000,11.4300,3.5500,-1.4200,2.7773,-1.7748,-2.8274,-37.1875,-1.7500,23.3750,291.1875,25.6250,172.0625,0
1776971053.602,7.0270,3.3064,1.1277,2.8725,2.1218,-0.1284,-88.9500,-2.4000,-6.4500,6.8259,-2.2505,2.8778,3.2679,-0.9952,-0.4711,-36.0000,3.4500,45.0000,10.5300,4.8100,-0.7600,2.6594,-1.6919,-2.5504,-37.1875,-1.7500,23.3750,291.1875,25.6250,172.0625,0
1776971053.612,9.3518,0.7614,-2.0782,1.2470,2.5786,0.2601,-87.4500,-0.9000,-3.4500,7.1682,-2.1644,3.7158,3.0185,-0.7429,-0.5684,-35.5500,6.0000,43.3500,9.7300,5.3100,-0.6000,2.4576,-1.5795,-2.3704,-37.1875,-1.7500,23.3750,289.5000,24.9375,171.3750,0
1776971053.617,9.3518,0.7614,-2.0782,0.9355,2.3923,0.3880,-87.4500,-0.9000,-3.4500,7.3478,-1.2785,3.4788,2.7755,-0.5649,-0.6651,-35.4000,5.7000,43.5000,9.7300,5.3100,-0.6000,2.4576,-1.5795,-2.3704,-37.1875,-1.7500,23.3750,289.5000,24.9375,171.3750,0
1776971053.622,11.6933,-2.3798,-1.7861,0.9355,2.3923,0.3880,-87.4500,-0.9000,-3.4500,7.3478,-1.2785,3.4788,2.7755,-0.5649,-0.6651,-35.4000,5.7000,43.5000,10.0200,6.0000,0.2100,2.2046,-1.3941,-2.3529,-36.0000,-8.0000,28.6875,287.8750,24.3750,170.8125,0
1776971053.627,11.6933,-2.3798,-1.7861,1.3603,1.7040,0.5540,-87.4500,-0.9000,-3.4500,7.4819,-0.6800,3.2801,2.6582,-0.3893,-0.7746,-35.4000,5.7000,43.5000,10.0200,6.0000,0.2100,2.2046,-1.3941,-2.3529,-36.0000,-8.0000,28.6875,287.8750,24.3750,170.8125,0
1776971053.632,9.1674,-2.6336,-1.4317,2.2878,1.6902,0.5287,-86.7000,-1.3500,-2.4000,7.4819,-0.6800,3.2801,2.6582,-0.3893,-0.7746,-35.4000,5.7000,43.5000,9.6300,6.9500,-0.8200,1.7911,-1.0777,-2.3431,-36.0000,-8.0000,28.6875,286.3125,24.0000,170.4375,0
1776971053.638,9.1674,-2.6336,-1.4317,2.2878,1.6902,0.5287,-86.8500,-0.3000,-1.3500,7.7261,-0.6416,3.4117,2.6460,-0.2475,-0.8753,-37.2000,8.4000,44.7000,9.5300,7.3000,-1.1600,1.3984,-0.8901,-2.3780,-36.0000,-8.0000,28.6875,284.8125,23.7500,170.2500,0
1776971053.643,9.6079,-1.7573,-0.6393,2.3859,1.9212,0.6430,-86.8500,-0.3000,-1.3500,7.7261,-0.6416,3.4117,2.6460,-0.2475,-0.8753,-36.3000,8.2500,45.1500,9.5300,7.3000,-1.1600,1.3984,-0.8901,-2.3780,-36.0000,-8.0000,28.6875,283.2500,23.6250,170.3125,0
1776971053.653,9.9838,-1.4174,-0.0910,2.4925,1.8588,0.6824,-88.0500,0.3000,-1.0500,8.4180,-0.9313,-0.2227,2.3361,-0.0783,-0.9931,-36.3000,8.2500,45.1500,9.4900,7.4700,-1.5700,1.0319,-0.6349,-2.5416,-36.0000,-8.0000,28.6875,283.2500,23.6250,170.3125,0
1776971053.663,10.2592,-1.3455,-0.3687,2.5516,2.0784,0.6917,-86.8500,-0.7500,-0.6000,10.7212,-3.1364,-1.0439,2.3521,-0.0141,-1.0147,-36.4500,10.6500,42.9000,9.6400,2.9800,3.1100,0.7429,-0.4472,-2.7020,-36.0000,-8.0000,28.6875,281.6250,23.6250,170.5625,0
1776971053.667,10.2592,-1.3455,-0.3687,2.5516,2.0784,0.6917,-86.8500,-0.7500,-0.6000,12.2918,-2.1237,-4.9321,1.8111,0.0304,-0.8612,-36.4500,10.6500,42.9000,9.6400,2.9800,3.1100,0.7429,-0.4472,-2.7020,-36.0000,-8.0000,28.6875,279.7500,23.8125,171.3750,0
1776971053.673,12.3637,-1.0534,-0.9529,2.5127,1.8644,0.5569,-86.8500,0.0000,-0.3000,12.2918,-2.1237,-4.9321,1.8111,0.0304,-0.8612,-35.4000,10.9500,42.4500,2.2600,17.2800,5.4400,0.0633,-0.2640,-3.3227,-34.1875,-10.7500,31.1875,279.7500,23.8125,171.3750,0
1776971053.677,12.3637,-1.0534,-0.9529,2.5127,1.8644,0.5569,-86.8500,0.0000,-0.3000,18.2199,0.0958,-11.1713,0.4583,0.3693,-0.4775,-35.4000,10.9500,42.4500,2.2600,17.2800,5.4400,0.0633,-0.2640,-3.3227,-34.1875,-10.7500,31.1875,277.2500,24.4375,172.6875,0
1776971053.682,17.3508,1.8292,-7.3526,3.0403,1.3086,0.2292,-86.2500,-0.9000,2.4000,18.2199,0.0958,-11.1713,0.4583,0.3693,-0.4775,-35.4000,10.9500,42.4500,2.1200,18.4400,1.0400,-0.3731,0.5498,-4.7168,-34.1875,-10.7500,31.1875,277.2500,24.4375,172.6875,0
1776971053.687,17.3508,1.8292,-7.3526,3.0403,1.3086,0.2292,-86.2500,-0.9000,2.4000,24.3395,-5.5545,-9.1435,1.3049,0.2454,-0.4375,-35.4000,10.9500,42.4500,2.1200,18.4400,1.0400,3.2845,2.8296,-3.8190,-34.1875,-10.7500,31.1875,274.8125,26.3125,171.8125,0
1776971053.693,23.8582,7.7045,-16.5200,3.1115,0.2934,-0.6318,-86.2500,-0.9000,2.4000,24.3395,-5.5545,-9.1435,1.3049,0.2454,-0.4375,-37.9500,11.4000,43.2000,19.6700,-1.3300,-2.7500,3.2845,2.8296,-3.8190,-34.1875,-10.7500,31.1875,275.7500,29.6250,170.2500,0
1776971053.703,20.0083,2.1093,-12.1147,2.5695,-0.0077,-1.5847,-87.0000,1.3500,1.2000,19.9341,-9.3709,-3.4907,2.8757,0.4565,-0.5188,-36.0000,11.7000,42.4500,21.8600,-27.2800,-20.8700,1.3897,6.3890,1.6166,-34.1875,-10.7500,31.1875,276.3125,30.9375,169.1250,0
1776971053.713,12.0787,-7.9272,-5.1571,2.3814,1.7890,-1.5079,-87.0000,1.3500,1.2000,14.3796,-7.4627,0.4645,2.9199,1.0360,-0.2619,-37.0500,12.3000,45.1500,3.5500,4.2400,-7.2600,1.1956,2.5591,1.0799,-34.1875,-10.7500,31.1875,276.3125,30.9375,169.1250,0
1776971053.718,10.2735,-9.4020,-0.5052,2.3814,1.7890,-1.5079,-87.0000,1.3500,1.2000,6.9863,-7.0342,-0.8523,0.9529,0.8950,-0.1809,-37.0500,12.3000,45.1500,3.5500,4.2400,-7.2600,1.1956,2.5591,1.0799,-34.1875,-10.7500,31.1875,276.3125,30.9375,169.1250,0
1776971053.723,10.2735,-9.4020,-0.5052,0.8196,2.1027,-1.1525,-84.7500,3.3000,3.0000,6.9863,-7.0342,-0.8523,-0.3709,0.9870,-0.3275,-35.1000,13.8000,44.4000,10.1000,20.9500,-8.2200,0.9141,-1.0537,1.2272,-32.2500,-15.7500,29.5625,276.8125,30.2500,168.2500,0
1776971053.728,10.5680,-7.1730,-0.0215,0.8196,2.1027,-1.1525,-84.7500,3.3000,3.0000,5.1882,-6.9671,-0.8021,-0.3709,0.9870,-0.3275,-35.1000,13.8000,44.4000,10.1000,20.9500,-8.2200,0.9141,-1.0537,1.2272,-32.2500,-15.7500,29.5625,276.8125,30.2500,168.2500,0
1776971053.733,10.5680,-7.1730,-0.0215,-1.0653,0.9262,-0.6358,-85.9500,5.5500,3.0000,3.7158,-4.6687,-0.5124,0.1756,0.9430,-0.4338,-35.1000,13.8000,44.4000,0.1900,-4.0400,1.8100,1.6024,-1.2795,1.0941,-32.2500,-15.7500,29.5625,277.0625,29.3750,167.1250,0
1776971053.741,8.3342,-4.4293,3.3495,-2.3691,0.2300,-0.0879,-86.1000,4.6500,3.6000,3.7158,-4.6687,-0.5124,0.1756,0.9430,-0.4338,-35.1000,13.8000,44.4000,1.9400,-34.6800,-29.4700,0.5694,0.1342,0.6981,-32.2500,-15.7500,29.5625,277.3750,29.3750,166.5625,0
1776971053.746,8.3342,-4.4293,3.3495,-2.3691,0.2300,-0.0879,-86.1000,4.6500,3.6000,8.7963,-2.0039,0.0239,0.6006,0.6845,-0.4948,-35.7000,14.7000,45.3000,1.9400,-34.6800,-29.4700,0.5694,0.1342,0.6981,-32.2500,-15.7500,29.5625,277.2500,30.4375,166.1875,0
1776971053.753,8.4803,-1.1756,3.1484,-2.2020,0.1500,0.0594,-85.9500,4.5000,3.4500,10.2615,-0.2466,1.2785,0.2044,0.3677,-0.4927,-35.4000,13.6500,46.0500,8.7800,0.8800,-5.8100,0.5781,1.8980,-0.2793,-32.2500,-15.7500,29.5625,277.5000,31.0625,165.8125,0
1776971053.763,8.2624,2.3391,0.5938,-1.1567,0.3381,-0.0890,-85.2000,3.6000,1.6500,11.0014,0.5052,2.1476,0.0344,0.2278,-0.5521,-34.5000,13.8000,46.6500,3.1100,-1.9100,-11.3900,0.3262,1.1923,0.4047,-32.2500,-15.7500,29.5625,277.5000,31.0625,165.8125,0
1776971053.768,8.5688,3.1987,1.1372,-0.3970,0.4207,-0.2902,-85.2000,3.6000,1.6500,11.0014,0.5052,2.1476,0.0344,0.2278,-0.5521,-34.5000,13.8000,46.6500,3.1100,-1.9100,-11.3900,0.3262,1.1923,0.4047,-32.2500,-15.7500,29.5625,278.0000,31.0625,165.5000,0
1776971053.773,8.5688,3.1987,1.1372,-0.3970,0.4207,-0.2902,-84.1500,4.9500,3.3000,11.5233,0.2634,1.2785,0.3344,0.4684,-0.5425,-36.6000,14.2500,45.9000,5.9000,-3.9100,-7.5700,-0.0447,0.3033,0.8399,-35.5625,-12.0000,26.6875,278.0000,31.0625,165.5000,0
1776971053.778,8.3103,1.5347,3.0765,0.1303,0.5987,-0.3160,-84.1500,4.9500,3.3000,11.5233,0.2634,1.2785,0.3344,0.4684,-0.5425,-36.6000,14.2500,45.9000,5.9000,-3.9100,-7.5700,-0.0447,0.3033,0.8399,-35.5625,-12.0000,26.6875,278.1875,31.4375,165.5000,0
1776971053.783,8.3103,1.5347,3.0765,0.1303,0.5987,-0.3160,-84.1500,4.9500,3.3000,10.9702,-0.5698,0.8787,0.5316,0.4453,-0.5159,-35.4000,15.1500,44.2500,5.7900,-0.5100,-8.2900,-0.1614,0.7069,0.2542,-35.5625,-12.0000,26.6875,278.1875,31.4375,165.5000,0
1776971053.788,7.9990,1.8124,4.1156,0.6984,0.8282,-0.1631,-84.1500,4.9500,3.3000,10.9702,-0.5698,0.8787,0.5316,0.4453,-0.5159,-35.4000,15.1500,44.2500,5.7900,-0.5100,-8.2900,-0.7330,1.3363,0.1331,-35.5625,-12.0000,26.6875,278.5000,32.1250,165.7500,0
1776971053.794,7.9990,1.8124,4.1156,0.6984,0.8282,-0.1631,-83.4000,4.2000,3.6000,9.7636,-2.0231,0.4022,0.3627,0.4924,-0.5391,-35.4000,15.1500,44.2500,6.2700,0.2300,-9.3300,-0.7330,1.3363,0.1331,-35.5625,-12.0000,26.6875,278.6875,32.9375,165.8750,0
1776971053.803,8.6886,2.3894,3.0502,1.0067,0.9134,0.0024,-83.4000,4.2000,3.6000,9.6462,-2.1835,0.2155,0.1247,0.4461,-0.4799,-33.7500,16.5000,44.8500,6.9800,-1.1500,-7.8600,-0.5487,1.4464,-0.0055,-35.5625,-12.0000,26.6875,278.8125,33.2500,166.0000,0
1776971053.813,9.3996,2.4876,1.6041,1.0051,0.9102,0.0648,-84.6000,5.4000,5.5500,9.5912,-1.6807,-0.0311,-0.1092,0.3691,-0.4125,-35.5500,15.7500,46.6500,5.6800,-1.5100,-8.2500,-0.2793,0.6621,0.0480,-35.5625,-12.0000,26.6875,278.8125,33.2500,166.0000,0
1776971053.818,9.9407,2.5402,0.5842,0.9721,0.9606,0.0749,-84.6000,5.4000,5.5500,9.5912,-1.6807,-0.0311,-0.1092,0.3691,-0.4125,-35.5500,15.7500,46.6500,5.6800,-1.5100,-8.2500,-0.2793,0.6621,0.0480,-35.5625,-12.0000,26.6875,278.9375,33.5625,166.1250,0
1776971053.823,9.9790,2.5091,-0.0455,0.9721,0.9606,0.0749,-83.1000,5.8500,4.0500,9.9000,-0.4094,-0.1269,-0.3094,0.2483,-0.3797,-34.9500,16.6500,46.0500,5.1000,-1.7400,-7.9100,-0.3818,0.5989,0.0578,-36.5000,-11.8750,25.5625,278.9375,33.5625,166.1250,0
1776971053.828,9.9790,2.5091,-0.0455,1.0568,0.9867,0.1495,-83.1000,5.8500,4.0500,9.9000,-0.4094,-0.1269,-0.3094,0.2483,-0.3797,-34.9500,16.6500,46.0500,5.1000,-1.7400,-7.9100,-0.3818,0.5989,0.0578,-36.5000,-11.8750,25.5625,279.0625,33.8750,166.2500,0
1776971053.833,9.9383,2.5857,-0.1053,1.0568,0.9867,0.1495,-82.9500,5.2500,5.2500,9.8019,0.2682,-0.5219,-0.2902,0.1793,-0.3704,-34.8000,16.5000,46.6500,6.1100,-1.2700,-8.2500,-0.3818,0.5989,0.0578,-36.5000,-11.8750,25.5625,279.0625,33.8750,166.2500,0
1776971053.842,9.7947,3.0287,0.0048,1.2049,0.9766,0.1969,-84.0000,4.8000,7.2000,9.3254,0.8930,-1.8914,0.0029,0.2116,-0.4074,-35.5500,16.5000,47.2500,6.2600,-1.2900,-8.0800,-0.2225,0.4909,0.0284,-36.5000,-11.8750,25.5625,279.1250,34.1250,166.3125,0
1776971053.852,9.7947,3.0287,0.0048,1.2830,0.9483,0.2222,-83.8500,5.4000,6.1500,9.2488,2.3320,-1.9968,0.4498,0.3000,-0.4543,-35.5500,16.5000,47.2500,5.9500,-1.3400,-7.8000,-0.1385,0.3294,0.0425,-36.5000,-11.8750,25.5625,279.1875,34.3125,166.3750,0
1776971053.857,9.4355,3.7948,-0.2322,1.2700,0.8817,0.2252,-83.8500,5.4000,6.1500,9.2488,2.3320,-1.9968,0.4498,0.3000,-0.4543,-35.5500,16.5000,47.2500,5.9500,-1.3400,-7.8000,-0.1385,0.3294,0.0425,-36.5000,-11.8750,25.5625,279.2500,34.5000,166.3750,0
1776971053.864,9.1482,4.2401,-0.2801,1.1684,0.8793,0.1692,-85.3500,5.4000,7.3500,9.8186,2.6049,-1.7621,0.8348,0.4218,-0.4175,-33.9000,16.2000,46.8000,6.1900,-1.4500,-8.0000,-0.1200,0.2989,0.0251,-36.5000,-11.8750,25.5625,279.2500,34.5000,166.3750,0
1776971053.869,9.1482,4.2401,-0.2801,1.1684,0.8793,0.1692,-85.3500,5.4000,7.3500,9.8545,2.0446,-1.6448,1.1466,0.4005,-0.3754,-33.9000,16.2000,46.8000,6.1900,-1.4500,-8.0000,-0.1200,0.2989,0.0251,-36.5000,-11.8750,25.5625,279.3125,34.6875,166.4375,0
1776971053.874,8.9328,4.5059,-0.2394,1.2007,0.9108,0.1042,-85.3500,5.4000,7.3500,9.8545,2.0446,-1.6448,1.1466,0.4005,-0.3754,-34.9500,17.7000,46.3500,5.7800,-1.3300,-8.0600,-0.1331,0.3403,-0.0087,-38.0625,-12.5625,23.3750,279.3125,34.6875,166.4375,0
1776971053.878,8.9328,4.5059,-0.2394,1.2007,0.9108,0.1042,-85.3500,5.4000,7.3500,9.5170,1.5299,-1.5347,1.2886,0.4181,-0.3464,-34.9500,17.7000,46.3500,5.7800,-1.3300,-8.0600,-0.1331,0.3403,-0.0087,-38.0625,-12.5625,23.3750,279.3125,34.6875,166.4375,0
1776971053.883,8.9735,4.0510,0.1389,1.3291,0.9441,0.0719,-82.5000,8.4000,7.2000,9.5170,1.5299,-1.5347,1.2886,0.4181,-0.3464,-34.5000,17.2500,47.7000,5.7400,-1.2300,-7.9200,-0.1200,0.3752,-0.0469,-38.0625,-12.5625,23.3750,279.3125,34.8750,166.5000,0
1776971053.888,8.9735,4.0510,0.1389,1.3291,0.9441,0.0719,-82.5000,8.4000,7.2000,9.4978,0.2251,-1.3838,1.2894,0.4522,-0.2798,-34.5000,17.2500,47.7000,5.7400,-1.2300,-7.9200,-0.1080,0.4112,-0.0545,-38.0625,-12.5625,23.3750,279.3125,35.1250,166.6250,0
1776971053.894,9.1818,3.1867,0.2825,1.5623,0.8865,0.0637,-82.9500,6.4500,6.0000,9.4978,0.2251,-1.3838,1.2894,0.4522,-0.2798,-35.1000,16.8000,48.0000,5.9000,-1.1700,-7.9200,-0.1080,0.4112,-0.0545,-38.0625,-12.5625,23.3750,279.3125,35.3125,166.6250,0
1776971053.903,9.1075,2.3224,0.1556,1.7296,0.8847,0.0584,-82.9500,6.7500,7.9500,9.7899,-0.6680,-1.1468,1.1495,0.4636,-0.2427,-35.1000,16.8000,48.0000,5.7100,-1.2400,-7.7100,-0.0654,0.3458,-0.0447,-38.0625,-12.5625,23.3750,279.3125,35.3125,166.6250,0
1776971053.913,9.4882,1.6927,-0.0048,1.7616,0.8513,0.0922,-82.2000,6.7500,7.2000,9.9240,-1.3024,-0.8954,0.8641,0.4287,-0.1998,-34.9500,19.2000,47.1000,5.4500,-1.2400,-7.8700,-0.0469,0.3611,-0.0273,-38.0625,-12.5625,23.3750,279.3125,35.5000,166.6250,0
1776971053.918,9.4882,1.6927,-0.0048,1.7616,0.8513,0.0922,-82.2000,6.7500,7.2000,9.7923,-1.2354,-0.9385,0.4740,0.4151,-0.1572,-34.9500,19.2000,47.1000,5.4500,-1.2400,-7.8700,-0.0469,0.3611,-0.0273,-38.0625,-12.5625,23.3750,279.3750,35.7500,166.6250,0
1776971053.923,9.3781,1.4485,-0.3496,1.6745,0.8439,0.1388,-82.9500,8.4000,7.5000,9.7923,-1.2354,-0.9385,0.4740,0.4151,-0.1572,-35.1000,19.8000,48.0000,5.8800,-1.2800,-7.8700,-0.0360,0.4222,-0.0338,-38.5625,-12.1875,22.0625,279.3750,35.7500,166.6250,0
1776971053.928,9.3781,1.4485,-0.3496,1.6745,0.8439,0.1388,-82.9500,8.4000,7.5000,9.7995,-0.7398,-0.8835,0.1990,0.4277,-0.1066,-34.6500,18.9000,46.3500,5.8800,-1.2800,-7.8700,-0.0360,0.4222,-0.0338,-38.5625,-12.1875,22.0625,279.3750,36.0000,166.6250,0
1776971053.933,9.6367,1.2737,-0.5171,1.5972,0.7645,0.1636,-82.5000,8.7000,7.2000,9.7995,-0.7398,-0.8835,0.1990,0.4277,-0.1066,-34.6500,18.9000,46.3500,6.1400,-1.2600,-7.7900,-0.0338,0.4123,-0.0305,-38.5625,-12.1875,22.0625,279.3750,36.0000,166.6250,0
1776971053.938,9.6367,1.2737,-0.5171,1.5972,0.7645,0.1636,-82.5000,8.7000,7.2000,9.7564,-0.4022,-0.9697,0.0847,0.4365,-0.0946,-34.9500,19.6500,47.1000,6.1400,-1.2600,-7.7900,-0.0185,0.3687,-0.0218,-38.5625,-12.1875,22.0625,279.3750,36.1875,166.6875,0
1776971053.944,9.7037,1.2570,-0.4717,1.5231,0.6654,0.1801,-82.5000,8.7000,7.2000,9.7564,-0.4022,-0.9697,0.0847,0.4365,-0.0946,-34.9500,19.6500,47.1000,6.2100,-1.1500,-7.7900,-0.0185,0.3687,-0.0218,-38.5625,-12.1875,22.0625,279.3750,36.3750,166.6250,0
1776971053.953,9.6869,1.2450,0.0694,1.3981,0.7117,0.2025,-82.2000,8.4000,7.2000,9.9982,-0.0838,-0.7302,0.1719,0.4125,-0.1444,-34.5000,19.8000,48.4500,6.1400,-1.2400,-7.6900,-0.0044,0.2869,-0.0011,-38.5625,-12.1875,22.0625,279.3750,36.3750,166.6250,0
1776971053.963,9.9479,1.2019,0.4190,1.3683,0.7450,0.2158,-82.2000,8.4000,7.2000,9.7420,0.7230,-0.8595,0.3429,0.3637,-0.1476,-34.5000,19.8000,48.4500,5.7600,-1.4400,-7.8000,-0.0153,0.2345,0.0087,-38.5625,-12.1875,22.0625,279.3750,36.5000,166.6250,0
1776971053.968,10.0676,1.1468,0.5938,1.3683,0.7450,0.2158,-82.2000,8.4000,7.2000,9.9120,0.1676,-0.4238,0.5468,0.3848,-0.1023,-35.4000,20.7000,48.6000,5.7600,-1.4400,-7.8000,-0.0153,0.2345,0.0087,-38.5625,-12.1875,22.0625,279.3750,36.5000,166.6250,0
1776971053.973,10.0676,1.1468,0.5938,1.4093,0.6984,0.2214,-82.3500,8.5500,8.4000,9.9120,0.1676,-0.4238,0.5468,0.3848,-0.1023,-35.4000,20.7000,48.6000,5.8300,-1.5600,-7.8200,-0.0404,0.2967,-0.0055,-37.8750,-12.1875,20.5000,279.4375,36.6250,166.6250,0
1776971053.978,9.9551,1.1013,0.9385,1.3979,0.7328,0.2172,-82.3500,8.5500,8.4000,10.0533,-0.3065,-0.2155,0.6384,0.3821,-0.0879,-34.0500,21.3000,48.0000,5.8300,-1.5600,-7.8200,-0.0404,0.2967,-0.0055,-37.8750,-12.1875,20.5000,279.4375,36.6250,166.6250,0
1776971053.983,9.9551,1.1013,0.9385,1.3979,0.7328,0.2172,-82.3500,9.3000,9.9000,10.0533,-0.3065,-0.2155,0.6384,0.3821,-0.0879,-34.0500,21.3000,48.0000,6.2000,-1.4000,-7.6900,-0.0873,0.3905,-0.0196,-37.8750,-12.1875,20.5000,279.4375,36.8750,166.6875,0
1776971053.988,9.7683,1.3264,1.1372,1.4392,0.7264,0.2515,-82.3500,9.3000,9.9000,10.0126,-0.4788,-0.0120,0.6797,0.3656,-0.0602,-34.2000,19.9500,48.6000,6.2000,-1.4000,-7.6900,-0.1156,0.3556,-0.0131,-37.8750,-12.1875,20.5000,279.4375,37.0625,166.7500,0
1776971053.994,9.7683,1.3264,1.1372,1.4392,0.7264,0.2515,-80.4000,9.7500,8.4000,9.8354,-0.6776,0.1437,0.6169,0.3275,-0.0333,-34.2000,19.9500,48.6000,6.2800,-1.4700,-7.7400,-0.1156,0.3556,-0.0131,-37.8750,-12.1875,20.5000,279.4375,37.0625,166.7500,0
1776971054.003,9.9216,1.2665,1.4054,1.3952,0.7541,0.3246,-82.5000,10.6500,7.9500,9.8354,-0.6776,0.1437,0.6169,0.3275,-0.0333,-34.2000,19.9500,48.1500,6.1700,-1.4700,-7.7400,-0.1200,0.3338,-0.0218,-37.8750,-12.1875,20.5000,279.5000,37.2500,166.8125,0
1776971054.012,9.8641,1.2546,1.6496,1.4642,0.7312,0.3885,-81.0000,9.9000,8.2500,9.9958,0.0192,-0.2035,0.5915,0.3275,-0.0229,-34.2000,19.9500,48.1500,6.2200,-1.3200,-7.6100,-0.1080,0.3480,-0.0316,-37.8750,-12.1875,20.5000,279.5000,37.4375,166.8750,0
1776971054.017,9.9000,1.1253,1.7047,1.4605,0.6350,0.4149,-81.0000,9.9000,8.2500,9.9671,-0.2682,-0.0024,0.5724,0.3363,-0.0163,-34.2000,19.9500,48.1500,6.2200,-1.3200,-7.6100,-0.1080,0.3480,-0.0316,-37.8750,-12.1875,20.5000,279.5000,37.4375,166.8750,0
1776971054.022,9.9000,1.1253,1.7047,1.4605,0.6350,0.4149,-80.2500,11.4000,8.7000,9.9671,-0.2682,-0.0024,0.5724,0.3363,-0.0163,-34.2000,19.9500,48.1500,6.2100,-1.2300,-7.6200,-0.1069,0.3196,-0.0109,-39.0625,-12.1875,20.3750,279.5625,37.6250,166.8750,0
1776971054.026,9.2799,1.0846,2.0494,1.4935,0.6310,0.3669,-80.2500,11.4000,8.7000,10.0293,-0.7087,0.3855,0.6243,0.3078,-0.0234,-33.7500,21.0000,48.1500,6.2100,-1.2300,-7.6200,-0.1069,0.3196,-0.0109,-39.0625,-12.1875,20.3750,279.5625,37.6250,166.8750,0
1776971054.031,9.2799,1.0846,2.0494,1.4935,0.6310,0.3669,-80.2500,11.4000,8.7000,10.0293,-0.7087,0.3855,0.6243,0.3078,-0.0234,-33.7500,21.0000,48.7500,6.3200,-1.3300,-7.6700,-0.0884,0.3131,-0.0098,-39.0625,-12.1875,20.3750,279.5625,37.8125,166.8750,0
1776971054.036,9.4284,0.6847,2.1284,1.4610,0.7877,0.3584,-80.2500,11.4000,8.7000,9.9311,-0.9457,0.4741,0.6305,0.2659,-0.0429,-32.5500,21.7500,49.0500,6.3200,-1.3300,-7.6700,-0.0884,0.3131,-0.0098,-39.0625,-12.1875,20.3750,279.5625,37.9375,166.9375,0
1776971054.044,9.4284,0.6847,2.1284,1.4610,0.7877,0.3584,-82.2000,10.3500,8.2500,10.1682,-1.3958,0.7207,0.6310,0.2425,-0.0426,-32.5500,21.7500,49.0500,6.3400,-1.3600,-7.6900,-0.0796,0.2956,-0.0055,-39.0625,-12.1875,20.3750,279.5625,37.9375,166.9375,0
1776971054.050,9.1889,0.3998,2.3990,1.5212,0.7394,0.3749,-82.2000,10.3500,8.2500,10.1682,-1.3958,0.7207,0.6310,0.2425,-0.0426,-33.1500,21.1500,48.1500,6.1600,-1.3900,-7.4900,-0.0818,0.2814,0.0033,-39.0625,-12.1875,20.3750,279.6250,38.1250,167.0000,0
1776971054.055,9.1315,0.5914,2.6791,1.3163,0.9379,0.4322,-82.2000,10.3500,8.2500,10.0724,-1.5275,0.3424,0.5665,0.1903,-0.0453,-33.1500,21.1500,48.1500,6.1600,-1.3900,-7.4900,-0.0818,0.2814,0.0033,-39.0625,-12.1875,20.3750,279.6250,38.3125,167.0625,0
1776971054.064,9.5505,0.7757,2.3296,1.3163,0.9379,0.4322,-80.4000,10.5000,8.8500,9.9695,-1.3527,0.5866,0.5545,0.1708,-0.0520,-34.8000,22.0500,49.5000,6.3400,-1.4100,-7.5300,-0.0753,0.2803,-0.0098,-39.0625,-12.1875,20.3750,279.6250,38.3125,167.0625,0
1776971054.069,9.5505,0.7757,2.3296,1.4442,0.8748,0.4565,-80.4000,10.5000,8.8500,9.9695,-1.3527,0.5866,0.5545,0.1708,-0.0520,-34.8000,22.0500,49.5000,6.3400,-1.4100,-7.5300,-0.0753,0.2803,-0.0098,-39.0625,-12.1875,20.3750,279.6250,38.3125,167.0625,0
1776971054.073,9.0908,0.7925,2.5163,1.4442,0.8748,0.4565,-80.8500,11.7000,9.6000,9.8833,-0.7422,0.4980,0.5145,0.1466,-0.0437,-34.8000,22.0500,49.5000,6.4400,-1.2400,-7.5300,-0.0611,0.2673,-0.0185,-39.0625,-12.5625,19.5000,279.6250,38.4375,167.1250,0
1776971054.078,9.0908,0.7925,2.5163,1.5423,0.9872,0.4823,-80.8500,11.7000,9.6000,9.8833,-0.7422,0.4980,0.5145,0.1466,-0.0437,-33.1500,20.7000,47.8500,6.4400,-1.2400,-7.5300,-0.0611,0.2673,-0.0185,-39.0625,-12.5625,19.5000,279.6250,38.4375,167.1250,0
1776971054.083,9.4858,1.0965,2.5450,1.5423,0.9872,0.4823,-78.9000,11.2500,8.4000,9.9359,-0.4381,0.5171,0.5537,0.1468,-0.0541,-33.1500,20.7000,47.8500,6.4400,-1.4800,-7.5600,-0.0447,0.1974,-0.0175,-39.0625,-12.5625,19.5000,279.6250,38.5625,167.1250,0
1776971054.088,9.4858,1.0965,2.5450,1.7158,1.0142,0.5351,-78.9000,11.2500,8.4000,9.9359,-0.4381,0.5171,0.5537,0.1468,-0.0541,-33.3000,22.5000,48.0000,6.4400,-1.4800,-7.5600,-0.0164,0.1385,-0.0327,-39.0625,-12.5625,19.5000,279.6250,38.6875,167.1875,0
1776971054.094,9.3589,0.6680,2.8611,1.6811,1.0800,0.5753,-80.8500,11.2500,10.6500,10.0437,0.0934,0.4262,0.6219,0.1143,-0.0687,-33.3000,22.5000,48.0000,6.4000,-1.3300,-7.6200,-0.0164,0.1385,-0.0327,-39.0625,-12.5625,19.5000,279.6250,38.6875,167.1875,0
1776971054.103,9.9120,0.8188,2.6743,1.8282,0.8966,0.5846,-79.5000,11.4000,10.0500,10.1418,0.0120,0.2274,0.7269,0.0893,-0.0783,-33.7500,22.0500,48.4500,6.2800,-1.1500,-7.5800,-0.0076,0.1254,-0.0273,-39.0625,-12.5625,19.5000,279.6250,38.7500,167.2500,0
1776971054.108,9.9120,0.8188,2.6743,1.8282,0.8966,0.5846,-79.5000,11.4000,10.0500,10.1418,0.0120,0.2274,0.7269,0.0893,-0.0783,-32.8500,21.9000,47.1000,6.2800,-1.1500,-7.5800,-0.0011,0.1200,-0.0316,-39.0625,-12.5625,19.5000,279.5625,38.8125,167.3125,0
1776971054.114,9.3302,0.6847,2.8491,1.7802,0.9377,0.5950,-79.8000,10.3500,9.3000,10.1825,-0.2562,0.1006,0.8106,0.0650,-0.0626,-33.9000,22.6500,48.1500,6.4200,-1.0600,-7.5700,-0.0011,0.1200,-0.0316,-39.0625,-12.5625,19.5000,279.5625,38.8125,167.3125,0
1776971054.119,9.3302,0.6847,2.8491,1.7802,0.9377,0.5950,-79.8000,10.3500,9.3000,10.1825,-0.2562,0.1006,0.8106,0.0650,-0.0626,-33.9000,22.6500,48.1500,6.4200,-1.0600,-7.5700,-0.0011,0.1200,-0.0316,-38.7500,-12.5000,19.7500,279.5000,38.9375,167.3125,0
1776971054.124,9.9359,0.8308,2.3918,1.8623,0.8516,0.5921,-79.8000,10.3500,9.3000,10.2879,-0.5267,-0.0718,0.8324,0.0418,-0.0197,-33.9000,22.6500,48.1500,6.3900,-1.1800,-7.4400,0.0316,0.1014,-0.0665,-38.7500,-12.5000,19.7500,279.5000,38.9375,167.3125,0
1776971054.129,9.9359,0.8308,2.3918,1.8623,0.8516,0.5921,-79.8000,10.3500,9.3000,10.2879,-0.5267,-0.0718,0.8324,0.0418,-0.0197,-33.9000,22.6500,48.1500,6.3900,-1.1800,-7.4400,0.0316,0.1014,-0.0665,-38.7500,-12.5000,19.7500,279.4375,38.9375,167.3750,0
1776971054.134,9.3446,0.8595,2.3511,1.8591,0.9020,0.6105,-80.4000,13.2000,11.1000,9.7516,-0.8835,-0.2346,0.7797,0.0053,0.0333,-33.9000,22.6500,48.1500,6.4200,-1.4000,-7.5400,0.0371,0.0654,-0.0818,-38.7500,-12.5000,19.7500,279.4375,38.9375,167.3750,0
1776971054.139,9.3446,0.8595,2.3511,1.8591,0.9020,0.6105,-80.4000,13.2000,11.1000,9.7516,-0.8835,-0.2346,0.7797,0.0053,0.0333,-33.7500,22.5000,46.9500,6.4200,-1.4000,-7.5400,0.0676,0.0338,-0.1134,-38.7500,-12.5000,19.7500,279.3750,39.0000,167.4375,0
1776971054.144,9.5385,0.8643,2.0446,1.8167,0.9659,0.6416,-80.1000,11.2500,8.8500,9.5936,-0.8811,-1.0558,0.7139,-0.0013,0.0520,-33.1500,23.4000,47.8500,6.2700,-1.4400,-7.5900,0.0676,0.0338,-0.1134,-38.7500,-12.5000,19.7500,279.3750,39.0000,167.4375,0
1776971054.153,9.7995,0.5483,1.5921,1.7989,0.9340,0.6925,-79.8000,13.8000,10.0500,9.4930,-0.0359,-1.3240,0.7544,-0.0019,0.0650,-33.1500,23.4000,47.8500,6.4000,-1.4200,-7.5600,0.1124,0.0087,-0.1658,-38.7500,-12.5000,19.7500,279.2500,39.0000,167.4375,0
1776971054.158,9.7995,0.5483,1.5921,1.7989,0.9340,0.6925,-79.8000,13.8000,10.0500,9.4930,-0.0359,-1.3240,0.8727,0.0189,0.1023,-33.3000,24.3000,46.6500,6.4000,-1.4200,-7.5600,0.1429,-0.0240,-0.2040,-38.7500,-12.5000,19.7500,279.1250,39.0625,167.5000,0
1776971054.164,9.9359,0.4717,1.0606,1.8738,0.8031,0.7234,-78.3000,13.0500,9.3000,9.7875,0.6536,-1.3360,0.8727,0.0189,0.1023,-34.5000,23.2500,48.0000,6.3300,-1.2900,-7.5500,0.1429,-0.0240,-0.2040,-38.7500,-12.5000,19.7500,279.1250,39.0625,167.5000,0
