timestamp,thigh_acc_x,thigh_acc_y,thigh_acc_z,thigh_gyro_x,thigh_gyro_y,thigh_gyro_z,thigh_mag_x,thigh_mag_y,thigh_mag_z,shank_acc_x,shank_acc_y,shank_acc_z,shank_gyro_x,shank_gyro_y,shank_gyro_z,shank_mag_x,shank_mag_y,shank_mag_z,foot_acc_x,foot_acc_y,foot_acc_z,foot_gyro_x,foot_gyro_y,foot_gyro_z,foot_mag_x,foot_mag_y,foot_mag_z,foot_euler_x,foot_euler_y,foot_euler_z,perturbation_event
1776971150.800,9.8162,0.6440,0.2562,-0.4066,-0.0141,-0.2084,-91.9500,14.5500,-19.0500,9.8737,-0.4310,-0.4190,0.2374,0.1961,-0.0813,-35.5500,28.5000,14.2500,5.0600,-1.5500,-8.2600,-0.0338,0.1669,-0.0011,0.7500,2.7500,49.1875,150.4375,31.1250,168.3750,0
1776971150.805,9.8162,0.6440,0.2562,-0.4066,-0.0141,-0.2084,-91.9500,14.5500,-19.0500,9.8737,-0.4310,-0.4190,0.2374,0.1961,-0.0813,-35.7000,29.4000,14.4000,5.3200,-1.5900,-8.1500,-0.0229,0.1833,-0.0033,1.7500,3.1875,49.1875,150.4375,31.2500,168.3750,0
1776971150.810,9.4523,0.2083,1.0487,-0.5977,0.0091,-0.1839,-91.8000,14.8500,-18.0000,9.8641,-0.5507,-0.1652,0.1231,0.2348,-0.0490,-35.7000,29.4000,14.4000,5.3200,-1.5900,-8.1500,-0.0229,0.1833,-0.0033,1.7500,3.1875,49.1875,150.4375,31.2500,168.3750,0
1776971150.815,9.4523,0.2083,1.0487,-0.5977,0.0091,-0.1839,-91.8000,14.8500,-18.0000,9.8641,-0.5507,-0.1652,0.1231,0.2348,-0.0490,-35.8500,29.2500,13.8000,5.3400,-1.7000,-8.1600,0.0011,0.1309,0.0000,1.7500,3.1875,49.1875,150.4375,31.3125,168.3750,0
1776971150.820,9.2392,-0.2466,1.5730,-0.7040,0.0192,-0.1599,-91.8000,14.8500,-18.0000,9.8833,-0.5986,-0.1269,0.0232,0.2587,-0.0354,-35.8500,29.2500,13.8000,5.3400,-1.7000,-8.1600,0.0131,0.1134,-0.0033,1.7500,3.1875,49.1875,150.4375,31.3750,168.3750,0
1776971150.827,9.2392,-0.2466,1.5730,-0.7040,0.0192,-0.1599,-93.0000,13.9500,-16.6500,9.7947,-0.3855,-0.0335,-0.0400,0.2611,-0.0357,-36.3000,30.3000,15.6000,5.3700,-1.6800,-8.1600,0.0131,0.1134,-0.0033,1.7500,3.1875,49.1875,150.4375,31.4375,168.3125,0
1776971150.836,9.3087,-0.4956,2.0542,-0.7184,0.0163,-0.1287,-93.0000,13.9500,-16.6500,9.7444,-0.1173,-0.0455,-0.0402,0.2411,-0.0386,-36.3000,30.3000,15.6000,5.3800,-1.6800,-8.1500,0.0240,0.1036,-0.0065,1.7500,3.1875,49.1875,150.4375,31.5000,168.3125,0
1776971150.846,9.1985,-0.6081,2.3894,-0.6504,0.0005,-0.0874,-91.5000,15.1500,-17.7000,9.6391,0.0000,-0.0958,-0.0211,0.2270,-0.0466,-36.7500,28.2000,15.0000,5.3800,-1.6300,-8.1100,0.0349,0.0709,-0.0011,1.7500,3.1875,49.1875,150.4375,31.5000,168.3125,0
1776971150.851,9.1482,-0.6369,2.8132,-0.5143,0.0147,-0.0616,-90.4500,15.0000,-17.8500,9.6391,0.0000,-0.0958,-0.0211,0.2270,-0.0466,-36.7500,28.2000,15.0000,5.3800,-1.6300,-8.1100,0.0349,0.0709,-0.0011,1.7500,3.1875,49.1875,150.4375,31.5000,168.3125,0
1776971150.856,9.1842,-0.5578,2.9712,-0.5143,0.0147,-0.0616,-90.4500,15.0000,-17.8500,9.6750,-0.0982,0.0096,0.0032,0.2126,-0.0496,-35.8500,31.0500,14.8500,5.3500,-1.6500,-8.1100,0.0349,0.0415,0.0022,0.6875,3.1875,50.5000,150.4375,31.5000,168.3125,0
1776971150.861,9.1842,-0.5578,2.9712,-0.3680,0.0418,-0.0346,-91.0500,15.9000,-18.7500,9.6750,-0.0982,0.0096,0.0032,0.2126,-0.0496,-35.8500,31.0500,14.8500,5.3500,-1.6500,-8.1100,0.0349,0.0415,0.0022,0.6875,3.1875,50.5000,150.4375,31.5000,168.3125,0
1776971150.866,9.1937,-0.3400,2.9928,-0.3680,0.0418,-0.0346,-91.0500,15.9000,-18.7500,9.7971,-0.0790,0.1891,0.0120,0.1876,-0.0477,-34.9500,30.1500,15.4500,5.3300,-1.6100,-8.1100,0.0218,0.0578,-0.0011,0.6875,3.1875,50.5000,150.4375,31.5625,168.2500,0
1776971150.871,9.1937,-0.3400,2.9928,-0.1809,0.0277,-0.0195,-91.8000,14.4000,-16.9500,9.7971,-0.0790,0.1891,0.0120,0.1876,-0.0477,-34.9500,30.1500,15.4500,5.3300,-1.6100,-8.1100,0.0087,0.0654,-0.0022,0.6875,3.1875,50.5000,150.4375,31.5625,168.2500,0
1776971150.877,9.1985,-0.0934,2.9712,-0.0216,0.0557,-0.0104,-91.2000,14.5500,-16.0500,9.8857,-0.2562,0.2729,0.0208,0.1636,-0.0549,-36.3000,28.8000,15.6000,5.2900,-1.6300,-8.0700,0.0087,0.0654,-0.0022,0.6875,3.1875,50.5000,150.4375,31.6250,168.2500,0
1776971150.886,9.2201,0.1365,2.8204,0.1079,0.0978,0.0013,-91.2000,14.5500,-16.0500,9.9431,-0.2251,0.2490,0.0373,0.1367,-0.0613,-34.9500,29.4000,15.4500,5.2700,-1.6300,-8.1100,0.0033,0.0785,-0.0022,0.6875,3.1875,50.5000,150.4375,31.6250,168.2500,0
1776971150.891,9.2201,0.1365,2.8204,0.1079,0.0978,0.0013,-91.2000,14.5500,-16.0500,9.9431,-0.2251,0.2490,0.0373,0.1367,-0.0613,-34.9500,29.4000,15.4500,5.2700,-1.6300,-8.1100,-0.0076,0.0949,-0.0022,0.6875,3.1875,50.5000,150.4375,31.6875,168.2500,0
1776971150.897,9.2129,0.2083,2.7461,0.2006,0.1466,0.0163,-91.8000,13.9500,-16.6500,9.9240,-0.1987,0.3424,0.0778,0.1204,-0.0626,-34.9500,29.4000,15.4500,5.2800,-1.6100,-8.0700,-0.0076,0.0949,-0.0022,0.6875,3.1875,50.5000,150.4375,31.6875,168.2500,0
1776971150.902,9.2129,0.2083,2.7461,0.2006,0.1466,0.0163,-91.8000,13.9500,-16.6500,9.9240,-0.1987,0.3424,0.0778,0.1204,-0.0626,-34.9500,29.4000,15.4500,5.2800,-1.6100,-8.0700,-0.0164,0.1069,-0.0044,0.6875,3.8750,48.8750,150.4375,31.7500,168.2500,0
1776971150.907,9.1698,0.2873,2.7533,0.2713,0.1998,0.0293,-91.8000,13.9500,-16.6500,10.0580,-0.1820,0.4477,0.1367,0.0925,-0.0805,-37.0500,28.5000,15.9000,5.2800,-1.6100,-8.0800,-0.0164,0.1069,-0.0044,0.6875,3.8750,48.8750,150.4375,31.7500,168.2500,0
1776971150.912,9.1698,0.2873,2.7533,0.2713,0.1998,0.0293,-91.8000,13.9500,-16.6500,10.0580,-0.1820,0.4477,0.1367,0.0925,-0.0805,-37.0500,28.5000,15.9000,5.2800,-1.6100,-8.0800,-0.0251,0.1178,-0.0022,0.6875,3.8750,48.8750,150.4375,31.8125,168.2500,0
1776971150.917,9.1985,0.2801,2.7940,0.3054,0.2523,0.0565,-91.9500,15.0000,-17.8500,10.0102,-0.1652,0.5100,0.1769,0.0570,-0.0903,-36.4500,28.9500,14.7000,5.2000,-1.6100,-8.0000,-0.0251,0.1178,-0.0022,0.6875,3.8750,48.8750,150.4375,31.8125,168.2500,0
1776971150.922,9.1985,0.2801,2.7940,0.3054,0.2523,0.0565,-91.9500,15.0000,-17.8500,10.0102,-0.1652,0.5100,0.1769,0.0570,-0.0903,-35.7000,28.9500,14.7000,5.2000,-1.6100,-8.0000,-0.0327,0.1462,-0.0055,0.6875,3.8750,48.8750,150.5000,31.8750,168.3125,0
1776971150.927,9.2416,0.2083,2.7916,0.3232,0.2840,0.0759,-91.9500,15.0000,-17.8500,9.8737,-0.1796,0.2753,0.2545,0.0357,-0.0959,-35.7000,30.4500,15.0000,5.0700,-1.5700,-8.0600,-0.0327,0.1462,-0.0055,0.6875,3.8750,48.8750,150.5000,31.8750,168.3125,0
1776971150.936,9.3302,0.1101,2.8036,0.3523,0.2974,0.0879,-92.5500,14.4000,-16.2000,9.8426,-0.0503,0.1915,0.3293,0.0208,-0.1050,-35.4000,29.4000,15.0000,5.4000,-1.5800,-8.1500,-0.0436,0.1844,-0.0065,0.6875,3.8750,48.8750,150.5000,32.0000,168.3125,0
1776971150.941,9.3302,0.1101,2.8036,0.3523,0.2974,0.0879,-91.8000,14.8500,-16.2000,9.8426,-0.0503,0.1915,0.3293,0.0208,-0.1050,-35.4000,29.4000,15.0000,5.4000,-1.5800,-8.1500,-0.0371,0.1658,-0.0087,0.6875,3.8750,48.8750,150.5000,32.1250,168.3125,0
1776971150.947,9.4355,-0.0503,2.6336,0.3960,0.3115,0.1023,-91.8000,14.8500,-16.2000,9.7492,-0.1556,0.0144,0.3397,0.0168,-0.0997,-34.6500,29.7000,17.2500,5.5700,-1.6000,-7.9000,-0.0371,0.1658,-0.0087,0.6875,3.8750,48.8750,150.5000,32.1250,168.3125,0
1776971150.952,9.5481,-0.1245,2.3128,0.3960,0.3115,0.1023,-91.8000,13.6500,-18.0000,9.7252,-0.1125,-0.4046,0.3110,0.0184,-0.1015,-34.6500,29.7000,17.2500,5.5600,-1.6500,-8.1200,-0.0207,0.1134,-0.0022,0.2500,2.7500,50.5000,150.5000,32.1875,168.3125,0
1776971150.957,9.5481,-0.1245,2.3128,0.4351,0.3046,0.1047,-92.5500,14.8500,-17.7000,9.7252,-0.1125,-0.4046,0.3110,0.0184,-0.1015,-34.6500,29.7000,17.2500,5.5600,-1.6500,-8.1200,-0.0207,0.1134,-0.0022,0.2500,2.7500,50.5000,150.5000,32.1875,168.3125,0
1776971150.962,9.6007,-0.1341,1.9800,0.4351,0.3046,0.1047,-92.5500,14.8500,-17.7000,9.7037,-0.1915,-0.6225,0.2872,0.0274,-0.0975,-34.2000,31.2000,13.6500,5.5600,-1.6500,-8.1200,-0.0076,0.0720,0.0022,0.2500,2.7500,50.5000,150.5000,32.1875,168.3125,0
1776971150.967,9.6007,-0.1341,1.9800,0.4578,0.2878,0.0935,-92.5500,14.8500,-17.7000,9.7037,-0.1915,-0.6225,0.2872,0.0274,-0.0975,-34.2000,31.2000,13.6500,5.5900,-1.6900,-8.1100,-0.0076,0.0720,0.0022,0.2500,2.7500,50.5000,150.5000,32.1875,168.3125,0
1776971150.975,9.6295,-0.2011,1.7454,0.4828,0.2521,0.0783,-92.2500,15.1500,-15.4500,9.6822,0.0072,-0.7350,0.2489,0.0211,-0.0866,-36.0000,28.9500,15.7500,5.4800,-1.6600,-8.0700,0.0033,0.0513,0.0000,0.2500,2.7500,50.5000,150.5000,32.2500,168.3125,0
1776971150.982,9.8258,-0.2777,1.4820,0.4450,0.2457,0.0530,-92.2500,15.1500,-15.4500,9.6510,0.1844,-0.9074,0.2281,0.0373,-0.0914,-36.7500,28.6500,15.0000,5.4800,-1.6600,-8.0700,0.0185,0.0284,-0.0011,0.2500,2.7500,50.5000,150.5000,32.2500,168.3125,0
1776971150.987,9.8258,-0.2777,1.4820,0.4450,0.2457,0.0530,-92.2500,15.1500,-15.4500,9.6510,0.1844,-0.9074,0.2281,0.0373,-0.0914,-36.7500,28.6500,15.0000,5.3900,-1.6100,-8.0500,0.0185,0.0284,-0.0011,0.2500,2.7500,50.5000,150.5000,32.2500,168.3125,0
1776971150.996,9.7731,-0.4405,1.2953,0.3976,0.1919,0.0373,-91.8000,13.6500,-17.4000,9.8258,0.2322,-0.8428,0.2036,0.0402,-0.0826,-35.8500,29.2500,15.3000,5.3600,-1.5900,-8.0700,0.0229,0.0251,0.0022,0.2500,2.7500,50.5000,150.5000,32.2500,168.2500,0
1776971151.001,9.8904,-0.5459,1.1971,0.3152,0.1684,0.0147,-91.8000,13.6500,-17.4000,9.8114,0.0982,-0.7566,0.1825,0.0416,-0.0786,-35.8500,29.2500,15.3000,5.3600,-1.5900,-8.0700,0.0229,0.0251,0.0022,0.2500,2.7500,50.5000,150.5000,32.2500,168.2500,0
1776971151.006,9.8904,-0.5459,1.1971,0.3152,0.1684,0.0147,-91.8000,13.6500,-17.4000,9.8114,0.0982,-0.7566,0.1825,0.0416,-0.0786,-35.8500,29.2500,15.3000,5.3600,-1.5900,-8.0500,0.0284,0.0404,0.0011,0.6875,3.5000,49.6875,150.5000,32.3125,168.2500,0
1776971151.011,9.7755,-0.5674,1.2522,0.2078,0.1450,-0.0059,-91.5000,13.2000,-16.9500,9.8545,0.0239,-0.6512,0.1679,0.0440,-0.0730,-34.8000,30.7500,13.8000,5.3600,-1.5900,-8.0500,0.0284,0.0404,0.0011,0.6875,3.5000,49.6875,150.5000,32.3125,168.2500,0
1776971151.016,9.7755,-0.5674,1.2522,0.2078,0.1450,-0.0059,-91.5000,13.2000,-16.9500,9.8545,0.0239,-0.6512,0.1679,0.0440,-0.0730,-34.8000,30.7500,13.8000,5.3100,-1.6000,-8.0400,0.0273,0.0633,0.0022,0.6875,3.5000,49.6875,150.5000,32.3125,168.2500,0
1776971151.021,9.7899,-0.6800,1.3408,0.0925,0.1194,-0.0229,-91.9500,14.5500,-16.0500,9.8234,-0.1915,-0.5650,0.1380,0.0397,-0.0722,-35.7000,29.4000,12.9000,5.3100,-1.6000,-8.0400,0.0196,0.0753,0.0022,0.6875,3.5000,49.6875,150.5000,32.3750,168.2500,0
1776971151.027,9.7899,-0.6800,1.3408,0.0925,0.1194,-0.0229,-91.9500,14.5500,-16.0500,9.8234,-0.1915,-0.5650,0.1380,0.0397,-0.0722,-35.7000,29.4000,12.9000,5.3600,-1.6800,-8.1200,0.0196,0.0753,0.0022,0.6875,3.5000,49.6875,150.5000,32.3750,168.2500,0
1776971151.036,9.7085,-0.8045,1.5969,-0.0221,0.1037,-0.0338,-91.8000,13.6500,-15.9000,9.8809,-0.3256,-0.3041,0.0765,0.0461,-0.0642,-35.1000,30.0000,15.3000,5.3800,-1.6600,-8.0800,0.0087,0.1036,-0.0033,0.6875,3.5000,49.6875,150.5000,32.4375,168.2500,0
1776971151.041,9.9695,-0.7183,1.6640,-0.0911,0.0525,-0.0381,-92.4000,14.5500,-16.8000,10.0126,-0.3041,-0.3496,0.0208,0.0277,-0.0695,-35.1000,30.7500,15.9000,5.3800,-1.6600,-8.0800,0.0033,0.1167,-0.0087,0.6875,3.5000,49.6875,150.5000,32.5000,168.1875,0
1776971151.047,9.9695,-0.7183,1.6640,-0.0911,0.0525,-0.0381,-92.4000,14.5500,-16.8000,10.0126,-0.3041,-0.3496,0.0208,0.0277,-0.0695,-35.1000,30.7500,15.9000,5.1700,-1.6800,-8.0200,0.0033,0.1167,-0.0087,0.6875,3.5000,49.6875,150.5000,32.5000,168.1875,0
1776971151.052,9.6007,-0.6464,2.0351,-0.1948,0.0909,-0.0309,-93.1500,13.8000,-16.0500,9.6654,-0.2442,-0.2729,-0.0133,0.0120,-0.0751,-37.0500,30.0000,16.6500,5.4100,-1.7900,-8.1800,-0.0142,0.1287,-0.0033,0.2500,3.8750,48.8750,150.5625,32.5625,168.1875,0
1776971151.057,9.6007,-0.6464,2.0351,-0.1948,0.0909,-0.0309,-93.1500,13.8000,-16.0500,9.6654,-0.2442,-0.2729,-0.0133,0.0120,-0.0751,-37.0500,30.0000,16.6500,5.4100,-1.7900,-8.1800,-0.0142,0.1287,-0.0033,0.2500,3.8750,48.8750,150.5625,32.5625,168.1875,0
1776971151.062,9.5074,-0.5148,2.2362,-0.1927,0.0685,-0.0266,-92.5500,15.1500,-15.9000,9.6726,-0.2538,-0.0958,-0.0533,0.0413,-0.0717,-37.0500,30.0000,16.6500,5.4100,-1.7900,-8.1800,-0.0273,0.1494,-0.0109,0.2500,3.8750,48.8750,150.5625,32.6875,168.1875,0
1776971151.067,9.5074,-0.5148,2.2362,-0.1927,0.0685,-0.0266,-92.5500,15.1500,-15.9000,9.6726,-0.2538,-0.0958,-0.0533,0.0413,-0.0717,-37.0500,30.0000,16.6500,5.6800,-1.6600,-7.9900,-0.0273,0.1494,-0.0109,0.2500,3.8750,48.8750,150.5625,32.6875,168.1875,0
1776971151.071,9.4260,-0.2729,2.3008,-0.1516,0.0799,-0.0181,-92.5500,15.1500,-15.9000,9.8186,-0.1149,-0.1197,-0.0879,0.0461,-0.0640,-35.7000,29.7000,16.2000,5.6800,-1.6600,-7.9900,-0.0316,0.1254,-0.0065,0.2500,3.8750,48.8750,150.5625,32.7500,168.2500,0
1776971151.077,9.2632,-0.0503,2.3798,-0.1516,0.0799,-0.0181,-92.5500,15.1500,-15.9000,9.8186,-0.1149,-0.1197,-0.0943,0.0453,-0.0645,-35.7000,29.7000,16.2000,5.6300,-1.6900,-8.0500,-0.0316,0.1254,-0.0065,0.2500,3.8750,48.8750,150.5625,32.8125,168.2500,0
1776971151.086,9.3805,0.1413,2.3511,-0.1370,0.1282,-0.0163,-91.2000,16.2000,-16.8000,9.7133,0.0383,-0.3496,-0.0943,0.0453,-0.0645,-35.1000,29.5500,15.3000,5.5600,-1.6600,-8.0400,-0.0251,0.0851,-0.0044,0.2500,3.8750,48.8750,150.5625,32.8125,168.2500,0
1776971151.096,9.4068,0.2682,2.2936,-0.0677,0.0895,-0.0176,-91.2000,14.2500,-16.8000,9.6103,0.1101,-0.4118,-0.0671,0.0493,-0.0674,-35.8500,30.7500,15.3000,5.6200,-1.5900,-8.0100,-0.0284,0.0829,-0.0055,0.2500,3.8750,48.8750,150.5625,32.8125,168.2500,0
1776971151.101,9.4068,0.2682,2.2936,-0.0008,0.0837,-0.0101,-92.2500,14.8500,-15.1500,9.7133,0.2394,-0.4405,-0.0261,0.0565,-0.0671,-36.3000,30.3000,14.5500,5.6200,-1.5900,-8.0100,-0.0284,0.0829,-0.0055,0.2500,3.8750,48.8750,150.5625,32.8125,168.2500,0
1776971151.106,9.4954,0.4501,2.2075,0.0573,0.0823,0.0024,-92.2500,14.8500,-15.1500,9.7276,0.2682,-0.5315,0.0232,0.0573,-0.0719,-36.3000,30.3000,14.5500,5.6400,-1.5900,-8.0100,-0.0251,0.0676,-0.0044,-0.0625,2.7500,48.8750,150.5625,32.8750,168.2500,0
1776971151.111,9.4954,0.4501,2.2075,0.0573,0.0823,0.0024,-92.2500,13.6500,-16.2000,9.7276,0.2682,-0.5315,0.0232,0.0573,-0.0719,-35.5500,30.3000,15.9000,5.6400,-1.5900,-8.0100,-0.0251,0.0676,-0.0044,-0.0625,2.7500,48.8750,150.5625,32.8750,168.2500,0
1776971151.116,9.4954,0.5531,2.1715,0.1021,0.0879,0.0035,-92.2500,13.6500,-16.2000,9.7133,0.2729,-0.5650,0.0695,0.0597,-0.0743,-35.5500,30.3000,15.9000,5.5600,-1.6100,-8.0100,-0.0218,0.0458,0.0000,-0.0625,2.7500,48.8750,150.5625,32.8750,168.2500,0
1776971151.122,9.4954,0.5531,2.1715,0.1021,0.0879,0.0035,-90.4500,13.8000,-15.6000,9.7133,0.2729,-0.5650,0.0695,0.0597,-0.0743,-35.5500,30.3000,15.9000,5.5600,-1.6100,-8.0100,-0.0218,0.0425,-0.0011,-0.0625,2.7500,48.8750,150.5625,32.9375,168.2500,0
1776971151.127,9.6247,0.6009,2.0470,0.1423,0.0973,0.0125,-90.4500,13.8000,-15.6000,9.7157,0.2873,-0.5555,0.1037,0.0661,-0.0677,-35.5500,30.3000,15.9000,5.5200,-1.6000,-8.0200,-0.0218,0.0425,-0.0011,-0.0625,2.7500,48.8750,150.5625,32.9375,168.2500,0
1776971151.136,9.5457,0.5195,2.0279,0.1713,0.0994,0.0128,-92.2500,14.4000,-16.2000,9.8545,0.2921,-0.4764,0.1402,0.0685,-0.0733,-36.3000,29.2500,14.8500,5.5500,-1.5800,-8.0100,-0.0218,0.0469,-0.0011,-0.0625,2.7500,48.8750,150.5625,32.9375,168.3125,0
1776971151.143,9.5457,0.5195,2.0279,0.1713,0.0994,0.0128,-92.2500,14.4000,-16.2000,9.8545,0.2921,-0.4764,0.1402,0.0685,-0.0733,-34.0500,30.0000,15.3000,5.3800,-1.5800,-7.9700,-0.0142,0.0447,-0.0011,-0.0625,2.7500,48.8750,150.5625,33.0000,168.3125,0
1776971151.148,9.5313,0.4190,1.9776,0.1793,0.1223,0.0128,-92.2500,14.4000,-16.2000,9.9527,0.2921,-0.5770,0.1649,0.0522,-0.0706,-35.4000,29.7000,15.3000,5.3800,-1.5800,-7.9700,-0.0142,0.0447,-0.0011,-0.0625,2.7500,48.8750,150.5625,33.0000,168.3125,0
1776971151.152,9.5313,0.4190,1.9776,0.1793,0.1223,0.0128,-91.6500,14.2500,-15.3000,9.9527,0.2921,-0.5770,0.1649,0.0522,-0.0706,-35.4000,29.7000,14.4000,5.3800,-1.5800,-7.9700,-0.0087,0.0567,-0.0044,0.2500,3.5000,50.5000,150.6250,33.0000,168.3125,0
1776971151.157,9.6295,0.4094,2.0135,0.1748,0.1447,0.0195,-91.6500,14.2500,-15.3000,9.7899,0.2682,-0.4573,0.1884,0.0546,-0.0703,-36.0000,31.2000,14.4000,5.3100,-1.5800,-8.0000,-0.0087,0.0567,-0.0044,0.2500,3.5000,50.5000,150.6250,33.0000,168.3125,0
1776971151.162,9.6295,0.4094,2.0135,0.1748,0.1447,0.0195,-91.6500,14.2500,-15.3000,9.7899,0.2682,-0.4573,0.1884,0.0546,-0.0703,-36.0000,31.2000,15.0000,5.3100,-1.5800,-8.0000,-0.0120,0.0884,-0.0044,0.2500,3.5000,50.5000,150.6250,33.0625,168.3125,0
1776971151.167,9.6103,0.2897,2.0351,0.1868,0.1436,0.0258,-91.6500,14.2500,-15.3000,9.7181,0.2107,-0.5148,0.2009,0.0640,-0.0626,-36.0000,31.2000,15.0000,5.4300,-1.5600,-7.9800,-0.0120,0.0884,-0.0044,0.2500,3.5000,50.5000,150.6250,33.0625,168.3125,0
1776971151.172,9.6103,0.2897,2.0351,0.1868,0.1436,0.0258,-93.3000,13.6500,-16.2000,9.7181,0.2107,-0.5148,0.2009,0.0640,-0.0626,-36.0000,31.2000,15.0000,5.4300,-1.5600,-7.9800,-0.0131,0.1069,-0.0065,0.2500,3.5000,50.5000,150.6250,33.1250,168.3125,0
1776971151.178,9.6941,0.1939,2.0303,0.2041,0.1466,0.0163,-93.3000,13.6500,-16.2000,9.7971,0.0742,-0.5267,0.1937,0.0655,-0.0570,-36.0000,31.2000,15.0000,5.5600,-1.5900,-7.9700,-0.0131,0.1069,-0.0065,0.2500,3.5000,50.5000,150.6250,33.1250,168.3125,0
1776971151.186,9.5457,0.0622,2.0111,0.2166,0.1580,0.0077,-91.6500,14.5500,-16.0500,9.7324,0.0838,-0.4669,0.1599,0.0642,-0.0536,-36.0000,31.2000,15.0000,5.5900,-1.6000,-8.0300,-0.0098,0.0960,-0.0055,0.2500,3.5000,50.5000,150.6250,33.1875,168.3125,0
1776971151.192,9.6175,-0.0694,1.9944,0.2166,0.1580,0.0077,-92.2500,13.9500,-15.1500,9.7324,0.0838,-0.4669,0.1599,0.0642,-0.0536,-35.8500,30.7500,14.8500,5.5900,-1.6000,-8.0300,-0.0033,0.0927,-0.0033,0.2500,3.5000,50.5000,150.6250,33.2500,168.3125,0
1776971151.198,9.6175,-0.0694,1.9944,0.1966,0.1479,0.0048,-92.2500,13.9500,-15.1500,9.7851,0.0359,-0.4860,0.1476,0.0842,-0.0509,-36.6000,30.3000,15.3000,5.6100,-1.6200,-7.9900,-0.0033,0.0927,-0.0033,0.2500,3.5000,50.5000,150.6250,33.2500,168.3125,0
1776971151.203,9.5002,-0.1341,1.9680,0.1743,0.1447,-0.0008,-91.8000,14.4000,-16.9500,9.7851,0.0359,-0.4860,0.1476,0.0842,-0.0509,-36.6000,30.3000,15.3000,5.6200,-1.6700,-8.0000,-0.0022,0.0829,-0.0033,-0.0625,2.7500,49.2500,150.6250,33.3125,168.2500,0
1776971151.208,9.5002,-0.1341,1.9680,0.1743,0.1447,-0.0008,-91.8000,14.4000,-16.9500,9.7971,0.0239,-0.3017,0.1045,0.0751,-0.0424,-35.4000,30.1500,14.4000,5.6200,-1.6700,-8.0000,-0.0022,0.0829,-0.0033,-0.0625,2.7500,49.2500,150.6250,33.3125,168.2500,0
1776971151.212,9.4188,-0.1652,2.0255,0.1314,0.1255,0.0005,-91.2000,14.5500,-15.3000,9.7971,0.0239,-0.3017,0.1045,0.0751,-0.0424,-35.4000,30.1500,14.4000,5.4800,-1.6600,-7.9700,0.0033,0.0676,-0.0055,-0.0625,2.7500,49.2500,150.6250,33.3125,168.2500,0
1776971151.217,9.4188,-0.1652,2.0255,0.1314,0.1255,0.0005,-91.2000,14.5500,-15.3000,9.8521,0.1006,-0.2801,0.0466,0.0834,-0.0325,-37.0500,29.2500,14.5500,5.4800,-1.6600,-7.9700,0.0033,0.0676,-0.0055,-0.0625,2.7500,49.2500,150.6250,33.3125,168.2500,0
1776971151.222,9.5792,-0.1508,1.9656,0.0815,0.1372,0.0003,-91.0500,14.8500,-15.4500,9.8521,0.1006,-0.2801,0.0466,0.0834,-0.0325,-37.0500,29.2500,14.5500,5.4800,-1.6600,-7.9700,-0.0033,0.0873,-0.0065,-0.0625,2.7500,49.2500,150.6250,33.3750,168.2500,0
1776971151.227,9.5792,-0.1508,1.9656,0.0815,0.1372,0.0003,-91.0500,14.8500,-15.4500,9.8545,0.1341,-0.3280,-0.0147,0.0797,-0.0250,-37.0500,29.2500,14.5500,5.5700,-1.6500,-7.9900,-0.0033,0.0873,-0.0065,-0.0625,2.7500,49.2500,150.6250,33.3750,168.2500,0
1776971151.236,9.4571,-0.1269,2.1141,0.0285,0.1575,0.0021,-91.0500,14.8500,-15.4500,9.7779,0.1245,-0.2993,-0.0424,0.0890,-0.0264,-34.8000,29.5500,14.5500,5.5500,-1.5800,-7.9700,-0.0120,0.1004,-0.0055,-0.0625,2.7500,49.2500,150.6250,33.4375,168.2500,0
1776971151.241,9.6079,-0.0694,2.1859,0.0216,0.1132,0.0029,-94.0500,15.1500,-16.2000,9.7779,0.1245,-0.2993,-0.0424,0.0890,-0.0264,-34.8000,29.5500,14.8500,5.5500,-1.5800,-7.9700,-0.0185,0.0960,-0.0011,-0.0625,2.7500,49.2500,150.6250,33.5000,168.2500,0
1776971151.248,9.6079,-0.0694,2.1859,0.0216,0.1132,0.0029,-94.0500,15.1500,-16.2000,9.7444,0.1796,-0.2993,-0.0642,0.0879,-0.0189,-35.5500,30.0000,14.5500,5.6700,-1.5600,-7.9600,-0.0185,0.0960,-0.0011,-0.0625,2.7500,49.2500,150.6250,33.5000,168.2500,0
1776971151.252,9.4643,0.0718,2.3822,-0.0064,0.1442,-0.0003,-94.0500,15.1500,-16.2000,9.8210,0.1532,-0.3328,-0.0530,0.0930,-0.0197,-35.5500,30.0000,14.5500,5.6700,-1.5600,-7.9600,-0.0185,0.0960,-0.0011,-1.2500,3.5000,49.6875,150.6250,33.5625,168.2500,0
1776971151.258,9.4643,0.0718,2.3822,-0.0064,0.1442,-0.0003,-94.0500,15.1500,-16.2000,9.8210,0.1532,-0.3328,-0.0530,0.0930,-0.0197,-34.9500,30.1500,14.7000,5.6700,-1.5400,-7.9500,-0.0185,0.0862,-0.0033,-1.2500,3.5000,49.6875,150.6250,33.5625,168.2500,0
1776971151.262,9.4715,0.0838,2.5019,-0.0032,0.1314,0.0075,-92.4000,13.5000,-16.0500,9.7612,0.1772,-0.2921,-0.0272,0.0909,-0.0133,-34.9500,30.1500,14.7000,5.6700,-1.5400,-7.9500,-0.0185,0.0862,-0.0033,-1.2500,3.5000,49.6875,150.6250,33.6250,168.3125,0
1776971151.268,9.4715,0.0838,2.5019,-0.0032,0.1314,0.0075,-92.4000,13.5000,-16.0500,9.7612,0.1772,-0.2921,-0.0272,0.0909,-0.0133,-35.7000,30.9000,14.4000,5.6300,-1.5800,-7.9500,-0.0207,0.0774,-0.0022,-1.2500,3.5000,49.6875,150.6250,33.6250,168.3125,0
1776971151.272,9.8593,0.2394,2.4038,0.0733,-0.0101,0.0155,-92.5500,14.8500,-15.1500,9.7133,0.1221,-0.2394,-0.0296,0.0781,-0.0083,-35.7000,30.9000,14.4000,5.6300,-1.5800,-7.9500,-0.0229,0.0764,-0.0033,-1.2500,3.5000,49.6875,150.6875,33.6875,168.3125,0
1776971151.278,9.8593,0.2394,2.4038,0.0733,-0.0101,0.0155,-92.5500,14.8500,-15.1500,9.7133,0.1221,-0.2394,-0.0296,0.0781,-0.0083,-35.5500,31.5000,15.3000,5.6600,-1.6100,-7.9600,-0.0229,0.0764,-0.0033,-1.2500,3.5000,49.6875,150.6875,33.6875,168.3125,0
1776971151.287,9.5984,0.1652,2.4445,0.0346,0.1242,0.0149,-90.4500,14.5500,-14.8500,9.7803,0.2921,-0.4980,-0.0101,0.0967,-0.0117,-35.5500,31.5000,15.3000,5.6600,-1.6300,-7.9200,-0.0251,0.0753,-0.0065,-1.2500,3.5000,49.6875,150.6875,33.6875,168.3125,0
1776971151.291,9.4403,0.2442,2.4445,0.0661,0.0911,0.0293,-91.0500,15.1500,-16.9500,9.8282,0.2442,-0.2849,0.0368,0.1005,-0.0072,-35.5500,31.5000,15.3000,5.6600,-1.6300,-7.9200,-0.0240,0.0720,-0.0065,-1.2500,3.5000,49.6875,150.6875,33.7500,168.3125,0
1776971151.298,9.4475,0.3160,2.4301,0.0661,0.0911,0.0293,-91.0500,15.1500,-16.9500,9.8282,0.2442,-0.2849,0.0368,0.1005,-0.0072,-35.4000,30.1500,13.9500,5.6700,-1.5400,-7.9300,-0.0240,0.0720,-0.0065,-1.2500,3.5000,49.6875,150.6875,33.7500,168.3125,0
1776971151.303,9.4475,0.3160,2.4301,0.0943,0.1026,0.0322,-91.0500,15.1500,-15.1500,9.7181,0.4022,-0.1915,0.0544,0.0981,-0.0093,-35.4000,30.1500,13.9500,5.6700,-1.5400,-7.9300,-0.0229,0.0622,-0.0022,-1.1875,2.7500,49.6875,150.6875,33.8125,168.3125,0
1776971151.308,9.4499,0.3903,2.5307,0.0943,0.1026,0.0322,-91.0500,15.1500,-15.1500,9.7181,0.4022,-0.1915,0.0544,0.0981,-0.0093,-36.7500,30.4500,14.7000,5.7000,-1.5500,-7.9200,-0.0229,0.0622,-0.0022,-1.1875,2.7500,49.6875,150.6875,33.8125,168.3125,0
1776971151.313,9.4499,0.3903,2.5307,0.1391,0.1140,0.0389,-91.5000,14.8500,-16.2000,9.7731,0.3160,-0.3232,0.0834,0.1018,-0.0117,-36.7500,30.4500,14.7000,5.7000,-1.5500,-7.9200,-0.0153,0.0567,-0.0087,-1.1875,2.7500,49.6875,150.6875,33.8125,168.3125,0
1776971151.318,9.4619,0.4190,2.5474,0.1769,0.1167,0.0402,-91.5000,14.8500,-16.2000,9.7731,0.3160,-0.3232,0.0834,0.1018,-0.0117,-34.5000,30.0000,14.5500,5.7000,-1.5000,-7.9100,-0.0153,0.0567,-0.0087,-1.1875,2.7500,49.6875,150.6875,33.8125,168.3125,0
1776971151.323,9.4619,0.4190,2.5474,0.1769,0.1167,0.0402,-91.5000,14.8500,-16.2000,9.7731,0.3711,-0.2873,0.1172,0.1031,-0.0107,-34.5000,30.0000,14.5500,5.7000,-1.5000,-7.9100,-0.0055,0.0327,-0.0011,-1.1875,2.7500,49.6875,150.6875,33.8750,168.3125,0
1776971151.328,9.4212,0.3926,2.5498,0.2116,0.1122,0.0426,-91.5000,14.8500,-16.2000,9.7731,0.3711,-0.2873,0.1172,0.1031,-0.0107,-35.7000,30.1500,15.0000,5.6900,-1.5300,-7.9700,-0.0055,0.0327,-0.0011,-1.1875,2.7500,49.6875,150.6875,33.8750,168.3125,0
1776971151.337,9.1650,0.2610,2.7557,0.2297,0.1055,0.0397,-90.9000,13.5000,-14.5500,9.8114,0.3663,-0.3208,0.1460,0.1031,-0.0064,-35.7000,30.1500,15.0000,5.7000,-1.5600,-7.9300,0.0000,0.0327,-0.0044,-1.1875,2.7500,49.6875,150.6875,33.8750,168.3125,0
1776971151.343,9.1650,0.2610,2.7557,0.2297,0.1055,0.0397,-90.9000,13.5000,-14.5500,9.7851,0.2179,-0.2274,0.1567,0.0957,-0.0045,-35.7000,30.1500,15.0000,5.6400,-1.5800,-7.9400,0.0055,0.0273,-0.0033,-1.1875,2.7500,49.6875,150.6875,33.9375,168.3125,0
1776971151.348,9.5146,0.3160,2.4660,0.2486,0.1236,0.0368,-90.9000,13.5000,-14.5500,9.7851,0.2083,-0.2777,0.1663,0.1005,-0.0032,-35.7000,30.1500,15.0000,5.6400,-1.5800,-7.9400,0.0055,0.0273,-0.0033,-1.1875,2.7500,49.6875,150.6875,33.9375,168.3125,0
1776971151.353,9.5146,0.3160,2.4660,0.2486,0.1236,0.0368,-90.3000,13.6500,-15.9000,9.7851,0.2083,-0.2777,0.1663,0.1005,-0.0032,-35.7000,30.1500,15.0000,5.6500,-1.5800,-7.9000,0.0087,0.0229,-0.0011,-1.5625,3.5000,49.6875,150.6875,33.9375,168.3125,0
1776971151.358,9.4284,0.2107,2.4756,0.2595,0.1420,0.0330,-90.3000,13.6500,-15.9000,9.8761,0.1532,-0.1820,0.1556,0.1023,0.0059,-36.0000,30.9000,15.7500,5.6500,-1.5800,-7.9000,0.0087,0.0229,-0.0011,-1.5625,3.5000,49.6875,150.6875,33.9375,168.3125,0
1776971151.363,9.4284,0.2107,2.4756,0.2595,0.1420,0.0330,-91.6500,15.0000,-15.6000,9.8761,0.1532,-0.1820,0.1556,0.1023,0.0059,-36.0000,30.9000,15.7500,5.6500,-1.5800,-7.9000,0.0120,0.0185,-0.0033,-1.5625,3.5000,49.6875,150.6875,33.9375,168.3125,0
1776971151.368,9.3661,0.0862,2.4517,0.2513,0.1649,0.0402,-91.6500,15.0000,-15.6000,9.8474,0.1748,-0.2035,0.1306,0.0959,-0.0011,-36.4500,29.7000,15.4500,5.6600,-1.5800,-7.8900,0.0120,0.0185,-0.0033,-1.5625,3.5000,49.6875,150.6875,33.9375,168.3125,0
1776971151.373,9.3661,0.0862,2.4517,0.2513,0.1649,0.0402,-93.0000,14.8500,-15.4500,9.8474,0.1748,-0.2035,0.1306,0.0959,-0.0011,-36.4500,29.7000,15.4500,5.6600,-1.5800,-7.8900,0.0164,0.0175,-0.0011,-1.5625,3.5000,49.6875,150.6875,33.9375,168.3125,0
1776971151.378,9.4475,0.0287,2.4732,0.2505,0.1522,0.0381,-93.0000,14.8500,-15.4500,9.8067,0.2658,-0.1772,0.1282,0.1015,0.0069,-34.9500,30.1500,15.4500,5.6400,-1.5700,-7.9700,0.0164,0.0175,-0.0011,-1.5625,3.5000,49.6875,150.6875,34.0000,168.3125,0
1776971151.387,9.5744,0.0215,2.3774,0.2766,0.0938,0.0320,-91.6500,15.0000,-16.3500,9.8019,0.1724,-0.2203,0.1332,0.1005,0.0053,-35.7000,30.1500,15.7500,5.6700,-1.5700,-7.9300,0.0185,0.0142,-0.0033,-1.5625,3.5000,49.6875,150.6875,34.0000,168.3125,0
1776971151.393,9.5744,0.0215,2.3774,0.2766,0.0938,0.0320,-92.2500,15.9000,-15.4500,9.8019,0.1724,-0.2203,0.1332,0.1005,0.0053,-35.7000,30.1500,15.7500,5.7100,-1.5200,-7.9200,0.0185,0.0011,0.0033,-1.5625,3.5000,49.6875,150.6875,34.0000,168.3125,0
1776971151.398,9.4667,-0.0790,2.4732,0.2515,0.1418,0.0280,-92.2500,15.9000,-15.4500,9.8067,0.1317,-0.1796,0.1391,0.1058,0.0064,-35.7000,30.1500,15.7500,5.7100,-1.5200,-7.9200,0.0185,0.0011,0.0033,-1.5625,3.5000,49.6875,150.6875,34.0000,168.3125,0
1776971151.403,9.0860,-0.1987,2.5833,0.2515,0.1418,0.0280,-90.1500,14.2500,-15.6000,9.8067,0.1317,-0.1796,0.1391,0.1058,0.0064,-35.7000,30.1500,15.7500,5.6900,-1.5900,-7.9500,0.0142,-0.0076,0.0055,-0.3750,2.7500,48.5000,150.6875,34.0000,168.3125,0
1776971151.408,9.0860,-0.1987,2.5833,0.2761,0.0762,0.0293,-90.1500,14.2500,-15.6000,9.8450,0.0694,-0.1317,0.1215,0.1007,0.0115,-34.6500,30.4500,16.2000,5.6900,-1.5900,-7.9500,0.0142,-0.0076,0.0055,-0.3750,2.7500,48.5000,150.6875,34.0000,168.3125,0
1776971151.417,9.3015,-0.2227,2.4277,0.2356,0.1372,0.0261,-90.1500,14.2500,-15.6000,9.6869,0.0910,-0.2394,0.1247,0.1031,-0.0029,-35.7000,29.7000,15.4500,5.6900,-1.5900,-7.9400,0.0142,0.0065,0.0011,-0.3750,2.7500,48.5000,150.6875,34.0000,168.3125,0
1776971151.425,9.4284,-0.2274,2.4205,0.2470,0.0847,0.0229,-91.0500,13.2000,-14.7000,9.6869,0.0910,-0.2394,0.1247,0.1031,-0.0029,-35.7000,30.4500,15.7500,5.7000,-1.6000,-7.9100,0.0185,-0.0076,0.0033,-0.3750,2.7500,48.5000,150.6250,34.0000,168.3125,0
1776971151.430,9.4284,-0.2274,2.4205,0.2470,0.0847,0.0229,-91.0500,13.2000,-14.7000,9.7372,0.1269,-0.1437,0.1487,0.1124,0.0027,-35.7000,30.4500,15.7500,5.7000,-1.6000,-7.9100,0.0185,-0.0076,0.0033,-0.3750,2.7500,48.5000,150.6250,34.0000,168.3125,0
1776971151.438,9.3446,-0.2251,2.4397,0.2393,0.0839,0.0290,-91.0500,13.2000,-14.7000,9.7827,0.0646,-0.0814,0.1490,0.1042,-0.0048,-36.0000,30.9000,14.7000,5.6800,-1.5700,-7.9100,0.0185,-0.0305,0.0055,-0.3750,2.7500,48.5000,150.6250,34.0000,168.3125,0
1776971151.446,9.3972,-0.2418,2.4828,0.2374,0.0741,0.0309,-91.8000,14.4000,-13.9500,9.8474,0.0814,-0.0670,0.1671,0.1058,-0.0067,-36.0000,30.1500,15.7500,5.6700,-1.6000,-7.9300,0.0153,-0.0273,0.0055,-0.3750,2.7500,48.5000,150.6250,34.0000,168.2500,0
1776971151.451,9.3972,-0.2418,2.4828,0.2374,0.0741,0.0309,-91.8000,14.4000,-13.9500,9.8474,0.0814,-0.0670,0.1671,0.1058,-0.0067,-36.0000,30.1500,15.7500,5.6700,-1.6000,-7.9300,0.0153,-0.0273,0.0055,-0.3750,2.7500,48.5000,150.6250,34.0000,168.2500,0
1776971151.457,9.3853,-0.2083,2.5786,0.2385,0.0703,0.0402,-91.2000,14.5500,-15.6000,9.8138,0.0431,-0.0670,0.1791,0.1015,-0.0061,-36.0000,30.1500,15.7500,5.6700,-1.5900,-7.9100,0.0164,-0.0196,0.0011,-1.5625,3.1875,48.5000,150.6250,34.0000,168.2500,0
1776971151.465,9.4044,-0.2035,2.5833,0.2478,0.0573,0.0453,-91.8000,14.8500,-14.4000,9.8019,0.0168,-0.0814,0.1863,0.0986,-0.0093,-35.8500,30.3000,16.3500,5.7100,-1.5600,-7.9300,0.0164,-0.0284,0.0044,-1.5625,3.1875,48.5000,150.6250,34.0000,168.2500,0
1776971151.470,9.4020,-0.2011,2.7246,0.2478,0.0573,0.0453,-91.8000,14.8500,-14.4000,9.8019,0.0168,-0.0814,0.1863,0.0986,-0.0093,-35.8500,30.3000,16.3500,5.7100,-1.5600,-7.9300,0.0164,-0.0284,0.0044,-1.5625,3.1875,48.5000,150.6250,33.9375,168.2500,0
1776971151.478,9.4020,-0.2011,2.7246,0.2555,0.0405,0.0520,-91.9500,15.7500,-15.3000,9.7588,0.0144,-0.0694,0.1873,0.0954,-0.0112,-34.0500,30.7500,15.3000,5.7000,-1.5800,-7.9000,0.0153,-0.0458,0.0055,-1.5625,3.1875,48.5000,150.6250,33.9375,168.2500,0
1776971151.487,9.4547,-0.1796,2.7845,0.2534,0.0309,0.0517,-91.8000,15.6000,-14.4000,9.8545,0.0527,-0.0431,0.1897,0.0981,-0.0123,-36.4500,28.9500,16.5000,5.6900,-1.6000,-7.9400,0.0207,-0.0589,0.0065,-1.5625,3.1875,48.5000,150.6250,33.9375,168.2500,0
1776971151.491,9.4499,-0.1077,2.7892,0.2475,0.0144,0.0528,-91.8000,15.6000,-14.4000,9.8545,0.0527,-0.0431,0.1897,0.0981,-0.0123,-36.4500,28.9500,16.5000,5.6900,-1.6000,-7.9400,0.0218,-0.0633,0.0055,-1.5625,3.1875,48.5000,150.6250,33.8750,168.2500,0
1776971151.498,9.4499,-0.1077,2.7892,0.2475,0.0144,0.0528,-90.9000,15.0000,-15.3000,9.7707,0.1389,-0.0934,0.1889,0.0909,-0.0139,-37.0500,30.7500,14.5500,5.6700,-1.5800,-7.9200,0.0218,-0.0633,0.0055,-1.5625,3.1875,48.5000,150.6250,33.8750,168.2500,0
1776971151.503,9.4212,-0.0766,2.7198,0.2441,0.0048,0.0544,-90.9000,15.0000,-15.3000,9.9024,0.0838,0.0048,0.1964,0.0842,-0.0069,-36.6000,30.0000,15.6000,5.6700,-1.5800,-7.9200,0.0218,-0.0633,0.0055,-1.1875,3.5000,49.2500,150.6250,33.8750,168.2500,0
1776971151.508,9.4212,-0.0766,2.7198,0.2441,0.0048,0.0544,-90.9000,15.0000,-15.3000,9.9024,0.0838,0.0048,0.1964,0.0842,-0.0069,-36.6000,30.0000,15.6000,5.6500,-1.5900,-7.9000,0.0229,-0.0731,0.0065,-1.1875,3.5000,49.2500,150.6250,33.8750,168.2500,0
1776971151.513,9.3733,-0.0575,2.6911,0.2356,0.0085,0.0474,-91.6500,14.5500,-15.3000,9.9695,0.1867,0.0479,0.2052,0.0589,-0.0139,-36.6000,30.0000,15.6000,5.6500,-1.5900,-7.9000,0.0229,-0.0731,0.0065,-1.1875,3.5000,49.2500,150.5625,33.8125,168.2500,0
1776971151.518,9.3733,-0.0575,2.6911,0.2356,0.0085,0.0474,-91.6500,14.5500,-15.3000,9.9695,0.1867,0.0479,0.2052,0.0589,-0.0139,-36.6000,30.0000,15.6000,5.5300,-1.6300,-7.9300,0.0273,-0.0796,0.0098,-1.1875,3.5000,49.2500,150.5625,33.8125,168.2500,0
1776971151.523,9.4188,-0.0742,2.6719,0.2300,0.0155,0.0450,-91.6500,13.8000,-14.8500,9.8857,0.1173,-0.0048,0.2156,0.0469,-0.0189,-35.4000,30.4500,16.2000,5.5300,-1.6300,-7.9300,0.0284,-0.0774,0.0065,-1.1875,3.5000,49.2500,150.5625,33.8125,168.2500,0
1776971151.528,9.4212,-0.0359,2.5786,0.2300,0.0155,0.0450,-91.6500,13.8000,-14.8500,9.8857,0.1173,-0.0048,0.2156,0.0469,-0.0189,-35.4000,30.4500,16.2000,5.4600,-1.6100,-8.0000,0.0284,-0.0774,0.0065,-1.1875,3.5000,49.2500,150.5625,33.7500,168.2500,0
1776971151.537,9.4212,-0.0359,2.5786,0.2300,0.0245,0.0442,-91.8000,13.9500,-16.9500,9.8402,0.0072,0.1173,0.1972,0.0493,-0.0205,-34.9500,29.7000,15.7500,5.5500,-1.6400,-7.9900,0.0218,-0.0469,0.0055,-1.1875,3.5000,49.2500,150.5625,33.7500,168.2500,0
1776971151.544,9.4475,-0.0838,2.6073,0.2284,0.0376,0.0493,-91.5000,14.8500,-15.1500,9.8569,0.0072,0.0455,0.1479,0.0434,-0.0115,-36.0000,29.4000,15.0000,5.6300,-1.6500,-7.9200,0.0185,-0.0371,0.0033,-1.1875,3.5000,49.2500,150.5625,33.7500,168.1875,0
1776971151.549,9.3972,-0.0838,2.5642,0.2198,0.0466,0.0394,-91.5000,14.8500,-15.1500,9.8569,0.0072,0.0455,0.1479,0.0434,-0.0115,-36.0000,29.4000,15.0000,5.6300,-1.6500,-7.9200,0.0185,-0.0371,0.0033,-1.1875,3.5000,49.2500,150.5625,33.7500,168.1875,0
1776971151.553,9.3972,-0.0838,2.5642,0.2198,0.0466,0.0394,-90.9000,15.0000,-16.0500,9.8306,-0.0407,-0.0287,0.1138,0.0469,-0.0147,-35.4000,28.6500,16.2000,5.6300,-1.6500,-7.9200,0.0196,-0.0425,0.0065,-0.3750,3.8750,51.2500,150.5625,33.7500,168.1875,0
1776971151.558,9.3996,-0.0144,2.5570,0.2046,0.0536,0.0346,-90.9000,15.0000,-16.0500,9.8306,-0.0407,-0.0287,0.1138,0.0469,-0.0147,-35.4000,28.6500,16.2000,5.5900,-1.6700,-7.9300,0.0196,-0.0425,0.0065,-0.3750,3.8750,51.2500,150.5625,33.7500,168.1875,0
1776971151.563,9.3996,-0.0144,2.5570,0.2046,0.0536,0.0346,-90.3000,15.6000,-15.4500,9.7899,0.0215,-0.0862,0.0869,0.0469,-0.0117,-35.4000,28.6500,16.2000,5.5900,-1.6700,-7.9300,0.0218,-0.0458,0.0055,-0.3750,3.8750,51.2500,150.5625,33.6875,168.1875,0
1776971151.568,9.4523,-0.1269,2.5163,0.1887,0.0450,0.0352,-90.3000,15.6000,-15.4500,9.7899,0.0215,-0.0862,0.0869,0.0469,-0.0117,-35.4000,28.6500,16.2000,5.6100,-1.6600,-7.9700,0.0218,-0.0458,0.0055,-0.3750,3.8750,51.2500,150.5625,33.6875,168.1875,0
1776971151.573,9.4523,-0.1269,2.5163,0.1887,0.0450,0.0352,-90.3000,15.6000,-15.4500,9.7971,0.0982,-0.1077,0.0709,0.0464,-0.0088,-35.4000,28.6500,15.0000,5.6100,-1.6600,-7.9700,0.0175,-0.0415,0.0044,-0.3750,3.8750,51.2500,150.5625,33.6875,168.1875,0
1776971151.578,9.3948,-0.0575,2.4876,0.1767,0.0346,0.0290,-90.3000,15.6000,-15.4500,9.7971,0.0982,-0.1077,0.0709,0.0464,-0.0088,-35.4000,28.6500,15.0000,5.6400,-1.6200,-7.9600,0.0175,-0.0415,0.0044,-0.3750,3.8750,51.2500,150.5625,33.6875,168.1875,0
1776971151.588,9.4308,-0.1077,2.4660,0.1585,0.0306,0.0296,-92.5500,12.9000,-17.4000,9.8043,0.1197,-0.1460,0.0687,0.0418,-0.0077,-35.5500,30.7500,15.6000,5.5900,-1.6300,-7.9400,0.0196,-0.0469,0.0044,-0.3750,3.8750,51.2500,150.5625,33.6875,168.1875,0
1776971151.594,9.4308,-0.1077,2.4660,0.1585,0.0306,0.0296,-92.5500,12.9000,-17.4000,9.8138,0.1939,-0.1820,0.0677,0.0413,-0.0136,-35.1000,30.0000,15.3000,5.5900,-1.6300,-7.9600,0.0196,-0.0502,0.0055,-0.3750,3.8750,51.2500,150.5625,33.6250,168.1875,0
1776971151.599,9.4906,-0.1173,2.4972,0.1503,0.0274,0.0253,-92.5500,12.9000,-17.4000,9.8138,0.1939,-0.1820,0.0677,0.0413,-0.0136,-35.1000,30.0000,15.3000,5.5900,-1.6300,-7.9600,0.0196,-0.0502,0.0055,-0.3750,3.8750,51.2500,150.5625,33.6250,168.1875,0
1776971151.604,9.4906,-0.1173,2.4972,0.1503,0.0274,0.0253,-92.2500,14.4000,-14.4000,9.7636,0.1341,-0.1604,0.0706,0.0416,-0.0123,-34.8000,30.0000,15.9000,5.6000,-1.6400,-7.9600,0.0185,-0.0436,0.0044,-1.2500,3.8750,49.2500,150.5625,33.6250,168.1875,0
1776971151.608,9.5146,-0.1317,2.5067,0.1434,0.0163,0.0242,-92.2500,14.4000,-14.4000,9.7636,0.1341,-0.1604,0.0706,0.0416,-0.0123,-34.8000,30.0000,15.9000,5.6000,-1.6400,-7.9600,0.0185,-0.0436,0.0044,-1.2500,3.8750,49.2500,150.5625,33.6250,168.1875,0
1776971151.614,9.5146,-0.1317,2.5067,0.1434,0.0163,0.0242,-91.8000,15.1500,-14.4000,9.7779,0.1245,-0.1173,0.0693,0.0429,-0.0184,-36.0000,30.4500,14.7000,5.5800,-1.6300,-7.9500,0.0131,-0.0469,0.0065,-1.2500,3.8750,49.2500,150.5000,33.6250,168.1875,0
1776971151.618,9.4667,-0.0742,2.5355,0.1271,0.0040,0.0240,-91.8000,15.1500,-14.7000,9.7779,0.1245,-0.1173,0.0693,0.0429,-0.0184,-36.0000,30.4500,14.7000,5.5800,-1.6300,-7.9500,0.0131,-0.0469,0.0065,-1.2500,3.8750,49.2500,150.5000,33.6250,168.1875,0
1776971151.623,9.4667,-0.0742,2.5355,0.1271,0.0040,0.0240,-91.9500,14.5500,-16.3500,9.7659,0.0862,-0.0958,0.0693,0.0370,-0.0149,-36.0000,30.4500,14.7000,5.5800,-1.6300,-7.9500,0.0120,-0.0425,0.0033,-1.2500,3.8750,49.2500,150.5000,33.5625,168.1875,0
1776971151.629,9.4595,-0.0096,2.5259,0.1124,0.0000,0.0181,-91.9500,14.5500,-16.3500,9.7827,0.0934,-0.0742,0.0597,0.0365,-0.0144,-36.0000,30.4500,14.7000,5.6000,-1.6600,-7.9800,0.0120,-0.0425,0.0033,-1.2500,3.8750,49.2500,150.5000,33.5625,168.1875,0
1776971151.638,9.4427,-0.0215,2.5019,0.0941,-0.0075,0.0144,-91.6500,15.0000,-16.8000,9.7827,0.0934,-0.0742,0.0597,0.0365,-0.0144,-37.0500,29.5500,16.3500,5.5800,-1.6300,-7.9400,0.0131,-0.0436,0.0044,-1.2500,3.8750,49.2500,150.5000,33.5625,168.1875,0
1776971151.644,9.4691,-0.0814,2.5522,0.0941,-0.0075,0.0144,-91.8000,12.9000,-15.9000,9.7588,0.0886,-0.1293,0.0464,0.0360,-0.0157,-36.6000,30.0000,14.5500,5.5800,-1.6400,-7.9600,0.0109,-0.0458,0.0033,-1.2500,3.8750,49.2500,150.5000,33.5625,168.1875,0
1776971151.649,9.4691,-0.0814,2.5522,0.0791,-0.0037,0.0168,-91.8000,12.9000,-15.9000,9.7755,0.1030,-0.0790,0.0384,0.0330,-0.0117,-36.6000,30.0000,14.5500,5.5800,-1.6400,-7.9600,0.0109,-0.0458,0.0033,-1.2500,3.8750,49.2500,150.5000,33.5625,168.1875,0
1776971151.654,9.3709,0.0000,2.5666,0.0791,-0.0037,0.0168,-91.8000,12.9000,-15.9000,9.7755,0.1030,-0.0790,0.0384,0.0330,-0.0117,-35.8500,29.5500,16.3500,5.5800,-1.6400,-7.9600,0.0109,-0.0458,0.0033,-1.2500,4.2500,48.8750,150.5000,33.5000,168.1875,0
1776971151.659,9.3709,0.0000,2.5666,0.0645,-0.0096,0.0136,-93.3000,14.8500,-15.4500,9.7803,0.1389,-0.0718,0.0216,0.0405,-0.0077,-36.4500,31.2000,16.3500,5.6000,-1.6500,-7.9700,0.0098,-0.0480,0.0055,-1.2500,4.2500,48.8750,150.5000,33.5000,168.1875,0
1776971151.663,9.4116,0.0144,2.5498,0.0645,-0.0096,0.0136,-93.3000,14.8500,-15.4500,9.7803,0.1389,-0.0718,0.0216,0.0405,-0.0077,-36.4500,31.2000,15.7500,5.6000,-1.6500,-7.9700,0.0098,-0.0480,0.0055,-1.2500,4.2500,48.8750,150.5000,33.5000,168.1875,0
1776971151.668,9.4116,0.0144,2.5498,0.0663,-0.0088,0.0109,-93.3000,14.8500,-15.4500,9.7899,0.1341,-0.0407,0.0141,0.0410,-0.0133,-36.4500,31.2000,14.4000,5.6000,-1.6600,-7.9700,0.0087,-0.0480,0.0044,-1.2500,4.2500,48.8750,150.5000,33.5000,168.1875,0
1776971151.673,9.3925,-0.0072,2.5355,0.0541,-0.0184,0.0123,-93.3000,14.8500,-15.4500,9.7899,0.1341,-0.0407,0.0141,0.0410,-0.0133,-36.4500,31.2000,14.4000,5.6000,-1.6600,-7.9700,0.0109,-0.0535,0.0044,-1.2500,4.2500,48.8750,150.5000,33.5000,168.1875,0
1776971151.679,9.3925,-0.0072,2.5355,0.0541,-0.0184,0.0123,-93.0000,13.2000,-15.9000,9.7013,0.1077,-0.0862,0.0075,0.0410,-0.0179,-36.4500,31.2000,14.4000,5.6000,-1.6500,-7.9800,0.0109,-0.0535,0.0044,-1.2500,4.2500,48.8750,150.5000,33.4375,168.1875,0
1776971151.688,9.4427,0.0718,2.5355,0.0533,-0.0147,0.0123,-93.0000,13.2000,-15.9000,9.7971,0.0694,-0.0910,-0.0016,0.0418,-0.0112,-36.4500,31.2000,14.4000,5.5700,-1.6500,-7.9600,0.0131,-0.0545,0.0033,-1.2500,4.2500,48.8750,150.5000,33.4375,168.1875,0
1776971151.693,9.3565,0.1101,2.4900,0.0461,-0.0152,0.0144,-93.0000,13.2000,-15.9000,9.7971,0.0694,-0.0910,-0.0016,0.0418,-0.0112,-36.6000,30.0000,13.8000,5.5700,-1.6500,-7.9600,0.0142,-0.0556,0.0033,-1.2500,4.2500,48.8750,150.5000,33.4375,168.1875,0
1776971151.699,9.3565,0.1101,2.4900,0.0461,-0.0152,0.0144,-92.7000,14.2500,-16.0500,9.8043,0.1245,-0.0694,0.0019,0.0458,-0.0144,-36.4500,28.9500,15.7500,5.5900,-1.6500,-7.9800,0.0142,-0.0556,0.0033,-1.2500,4.2500,48.8750,150.5000,33.4375,168.1875,0
1776971151.704,9.3877,0.1269,2.4828,0.0378,-0.0192,0.0141,-92.7000,14.2500,-16.0500,9.8043,0.1245,-0.0694,0.0019,0.0458,-0.0144,-36.4500,28.9500,15.7500,5.5900,-1.6500,-7.9800,0.0142,-0.0556,0.0033,-0.0625,3.5000,49.2500,150.5000,33.4375,168.1875,0
1776971151.709,9.3877,0.1269,2.4828,0.0378,-0.0192,0.0141,-92.2500,12.9000,-15.9000,9.8881,0.2394,-0.0215,-0.0059,0.0333,-0.0059,-34.8000,30.3000,13.8000,5.5700,-1.6400,-7.9700,0.0142,-0.0589,0.0065,-0.0625,3.5000,49.2500,150.5000,33.4375,168.1875,0
1776971151.713,9.4212,0.1556,2.4588,0.0293,-0.0101,0.0157,-92.2500,12.9000,-15.9000,9.8881,0.2394,-0.0215,-0.0059,0.0333,-0.0059,-34.8000,30.3000,13.8000,5.5700,-1.6400,-7.9700,0.0142,-0.0589,0.0065,-0.0625,3.5000,49.2500,150.5000,33.3750,168.1875,0
1776971151.719,9.4212,0.1556,2.4588,0.0293,-0.0101,0.0157,-91.8000,14.8500,-15.9000,9.8450,0.1963,-0.1437,0.0067,0.0293,-0.0085,-34.2000,29.4000,14.7000,5.5300,-1.6300,-7.9700,0.0164,-0.0589,0.0022,-0.0625,3.5000,49.2500,150.5000,33.3750,168.1875,0
1776971151.723,9.4044,0.1532,2.4876,0.0290,-0.0075,0.0149,-91.8000,14.8500,-15.9000,9.8450,0.1963,-0.1437,0.0067,0.0293,-0.0085,-34.2000,29.4000,14.7000,5.5300,-1.6300,-7.9700,0.0175,-0.0535,0.0044,-0.0625,3.5000,49.2500,150.4375,33.3750,168.1250,0
1776971151.729,9.4044,0.1532,2.4876,0.0290,-0.0075,0.0149,-89.8500,14.8500,-14.4000,9.7707,0.1796,-0.0790,0.0035,0.0309,-0.0064,-34.2000,29.4000,14.7000,5.5000,-1.6000,-7.9700,0.0175,-0.0535,0.0044,-0.0625,3.5000,49.2500,150.4375,33.3125,168.1250,0
1776971151.738,9.4164,0.1915,2.4804,0.0253,-0.0109,0.0184,-91.6500,14.5500,-16.0500,9.7971,0.1891,-0.1197,0.0008,0.0338,-0.0067,-34.2000,29.4000,14.7000,5.5800,-1.7700,-8.0200,0.0153,-0.0480,0.0011,-0.0625,3.5000,49.2500,150.4375,33.3125,168.1250,0
1776971151.745,9.4834,0.1867,2.4181,0.0253,-0.0043,0.0149,-92.5500,14.5500,-16.0500,9.7971,0.1891,-0.1197,-0.0104,0.0320,-0.0016,-34.2000,29.4000,14.7000,5.5100,-1.6600,-7.9900,0.0142,-0.0502,0.0022,-0.0625,3.5000,49.2500,150.4375,33.3125,168.1250,0
1776971151.749,9.5122,0.2514,2.4684,0.0253,-0.0043,0.0149,-92.5500,14.4000,-16.2000,9.8282,0.1676,-0.1652,-0.0104,0.0320,-0.0016,-35.7000,30.1500,15.0000,5.5100,-1.6600,-7.9900,0.0142,-0.0502,0.0022,-0.0625,3.5000,49.2500,150.4375,33.3125,168.1250,0
1776971151.754,9.5122,0.2514,2.4684,0.0163,-0.0061,0.0141,-92.5500,14.4000,-16.2000,9.8282,0.1676,-0.1652,-0.0067,0.0386,-0.0053,-35.7000,30.1500,15.0000,5.5300,-1.6400,-7.9600,0.0120,-0.0458,0.0033,-1.6875,4.2500,49.2500,150.4375,33.3125,168.1250,0
1776971151.759,9.4954,0.1987,2.3631,0.0163,-0.0061,0.0141,-92.5500,14.4000,-16.2000,9.7252,0.1652,-0.2083,-0.0067,0.0386,-0.0053,-35.5500,30.0000,13.5000,5.5300,-1.6400,-7.9600,0.0120,-0.0458,0.0033,-1.6875,4.2500,49.2500,150.4375,33.3125,168.1250,0
1776971151.764,9.4954,0.1987,2.3631,0.0152,-0.0053,0.0168,-92.5500,14.4000,-16.2000,9.7252,0.1652,-0.2083,-0.0061,0.0370,0.0021,-35.5500,30.0000,13.5000,5.5300,-1.6400,-7.9600,0.0098,-0.0425,0.0033,-1.6875,4.2500,49.2500,150.4375,33.2500,168.1250,0
1776971151.769,9.5457,0.1676,2.3176,0.0152,-0.0053,0.0168,-91.8000,13.2000,-15.1500,9.9024,0.1867,-0.2921,-0.0061,0.0370,0.0021,-34.8000,28.5000,14.5500,5.5300,-1.6200,-8.0200,0.0098,-0.0425,0.0033,-1.6875,4.2500,49.2500,150.4375,33.2500,168.1250,0
1776971151.774,9.5457,0.1676,2.3176,0.0024,-0.0107,0.0141,-91.8000,13.2000,-15.1500,9.7923,0.2011,-0.2849,-0.0101,0.0400,-0.0013,-34.8000,28.5000,14.5500,5.5300,-1.6200,-8.0200,0.0065,-0.0480,0.0022,-1.6875,4.2500,49.2500,150.4375,33.2500,168.1250,0
1776971151.779,9.5265,0.1149,2.3894,-0.0029,-0.0109,0.0109,-91.8000,13.2000,-15.1500,9.7923,0.2011,-0.2849,-0.0101,0.0400,-0.0013,-35.1000,30.7500,15.9000,5.5400,-1.6800,-7.9700,0.0065,-0.0480,0.0022,-1.6875,4.2500,49.2500,150.4375,33.2500,168.1250,0
1776971151.788,9.5337,0.1437,2.3296,-0.0029,-0.0109,0.0109,-91.2000,14.2500,-16.3500,9.8114,0.2059,-0.3208,-0.0085,0.0464,-0.0029,-35.1000,30.7500,15.9000,5.5400,-1.6300,-8.0000,0.0153,-0.0404,0.0033,-1.6875,4.2500,49.2500,150.4375,33.2500,168.1250,0
1776971151.793,9.5337,0.1437,2.3296,-0.0104,-0.0211,0.0040,-91.2000,14.2500,-16.3500,9.8114,0.2059,-0.3208,-0.0083,0.0464,0.0059,-35.1000,30.7500,15.9000,5.5400,-1.6300,-8.0000,0.0109,-0.0382,0.0011,-1.6875,4.2500,49.2500,150.4375,33.1875,168.1250,0
1776971151.799,9.5313,0.1891,2.3200,-0.0107,-0.0277,0.0061,-91.6500,13.8000,-16.8000,9.7779,0.2705,-0.2562,-0.0083,0.0464,0.0059,-34.8000,31.8000,15.6000,5.5000,-1.6700,-7.9700,0.0109,-0.0382,0.0011,-1.6875,4.2500,49.2500,150.4375,33.1875,168.1250,0
1776971151.804,9.5313,0.1891,2.3200,-0.0107,-0.0277,0.0061,-91.6500,13.8000,-16.8000,9.7564,0.2514,-0.2298,-0.0080,0.0501,0.0043,-34.8000,31.8000,15.6000,5.5400,-1.6500,-7.9800,0.0076,-0.0327,0.0033,-0.3750,3.1875,49.2500,150.4375,33.1875,168.1250,0
1776971151.809,9.5600,0.1269,2.3128,-0.0229,-0.0336,0.0011,-92.5500,13.6500,-16.9500,9.7564,0.2514,-0.2298,-0.0080,0.0501,0.0043,-34.9500,31.2000,15.7500,5.5400,-1.6500,-7.9800,0.0076,-0.0327,0.0033,-0.3750,3.1875,49.2500,150.4375,33.1875,168.1250,0
1776971151.814,9.5600,0.1269,2.3128,-0.0229,-0.0336,0.0011,-92.5500,13.6500,-16.9500,9.7779,0.2586,-0.2945,-0.0027,0.0560,0.0043,-34.9500,31.2000,15.7500,5.5400,-1.6500,-7.9800,0.0087,-0.0295,0.0000,-0.3750,3.1875,49.2500,150.4375,33.1875,168.1250,0
1776971151.819,9.5146,0.1197,2.2649,-0.0349,-0.0445,-0.0019,-92.2500,15.1500,-16.9500,9.7779,0.2586,-0.2945,-0.0027,0.0560,0.0043,-35.5500,30.7500,15.3000,5.5300,-1.6500,-7.9800,0.0087,-0.0295,0.0000,-0.3750,3.1875,49.2500,150.4375,33.1875,168.1250,0
1776971151.824,9.5146,0.1197,2.2649,-0.0349,-0.0445,-0.0019,-92.2500,15.1500,-16.9500,9.8090,0.2227,-0.2131,-0.0056,0.0549,0.0029,-35.5500,30.7500,15.3000,5.5300,-1.6500,-7.9800,0.0065,-0.0251,0.0022,-0.3750,3.1875,49.2500,150.4375,33.1875,168.1250,0
1776971151.829,9.5193,0.1437,2.3248,-0.0480,-0.0482,-0.0091,-91.6500,12.6000,-16.8000,9.8090,0.2227,-0.2131,-0.0056,0.0549,0.0029,-36.6000,29.5500,15.3000,5.5300,-1.6600,-8.0100,0.0065,-0.0251,0.0022,-0.3750,3.1875,49.2500,150.4375,33.1875,168.1250,0
1776971151.838,9.5361,0.0742,2.3415,-0.0554,-0.0528,-0.0075,-92.5500,13.9500,-15.9000,9.8258,0.2035,-0.2203,-0.0107,0.0586,0.0077,-34.5000,29.5500,15.6000,5.5200,-1.6400,-8.0100,0.0065,-0.0229,0.0011,-0.3750,3.1875,49.2500,150.4375,33.1875,168.1250,0
1776971151.844,9.5361,0.0742,2.3415,-0.0554,-0.0528,-0.0075,-92.5500,13.9500,-15.9000,9.7588,0.1389,-0.1891,-0.0101,0.0578,0.0096,-34.5000,29.5500,15.6000,5.5100,-1.6600,-7.9800,0.0065,-0.0251,0.0000,-0.3750,3.1875,49.2500,150.4375,33.1875,168.1250,0
1776971151.849,9.5648,0.0646,2.3727,-0.0693,-0.0538,-0.0099,-92.5500,13.9500,-15.9000,9.7588,0.1389,-0.1891,-0.0101,0.0578,0.0096,-34.5000,29.5500,15.6000,5.5100,-1.6600,-7.9800,0.0065,-0.0251,0.0000,-0.3750,3.1875,49.2500,150.4375,33.1875,168.1250,0
1776971151.854,9.5648,0.0646,2.3727,-0.0693,-0.0538,-0.0099,-92.5500,13.9500,-15.9000,9.7707,0.1317,-0.1963,-0.0245,0.0674,0.0123,-34.5000,29.5500,15.6000,5.5100,-1.6600,-7.9800,0.0065,-0.0251,0.0000,-0.3750,3.5000,50.5000,150.4375,33.1250,168.1875,0
1776971151.859,9.5098,0.0335,2.3798,-0.0797,-0.0592,-0.0176,-91.5000,14.4000,-16.2000,9.7707,0.1317,-0.1963,-0.0245,0.0674,0.0123,-35.4000,29.7000,15.7500,5.5300,-1.6700,-8.0100,0.0087,-0.0229,0.0011,-0.3750,3.5000,50.5000,150.4375,33.1250,168.1875,0
1776971151.864,9.5098,0.0335,2.3798,-0.0797,-0.0592,-0.0176,-91.5000,14.4000,-16.2000,9.7659,0.1053,-0.1269,-0.0304,0.0695,0.0085,-35.4000,29.7000,15.7500,5.5300,-1.6700,-8.0100,0.0087,-0.0229,0.0011,-0.3750,3.5000,50.5000,150.4375,33.1250,168.1875,0
1776971151.869,9.5002,0.0311,2.4373,-0.0914,-0.0624,-0.0197,-90.9000,13.5000,-15.6000,9.7659,0.1053,-0.1269,-0.0304,0.0695,0.0085,-35.8500,30.0000,14.5500,5.5000,-1.6700,-8.0200,0.0065,-0.0262,0.0022,-0.3750,3.5000,50.5000,150.4375,33.1250,168.1875,0
1776971151.874,9.4547,0.0742,2.4086,-0.0914,-0.0624,-0.0197,-90.9000,13.5000,-15.6000,9.7875,0.1389,-0.1197,-0.0376,0.0695,0.0131,-35.8500,30.0000,14.5500,5.5000,-1.6700,-8.0200,0.0076,-0.0218,0.0000,-0.3750,3.5000,50.5000,150.4375,33.1250,168.1875,0
1776971151.879,9.4547,0.0742,2.4086,-0.0890,-0.0687,-0.0200,-91.6500,14.2500,-16.3500,9.7875,0.1389,-0.1197,-0.0376,0.0695,0.0131,-34.0500,29.5500,15.3000,5.5300,-1.6800,-8.0000,0.0076,-0.0218,0.0000,-0.3750,3.5000,50.5000,150.4375,33.1250,168.1875,0
1776971151.888,9.5122,0.0407,2.4062,-0.0919,-0.0757,-0.0208,-92.7000,15.7500,-16.3500,9.7875,0.1006,-0.0886,-0.0490,0.0653,0.0051,-36.0000,30.4500,14.7000,5.5000,-1.6800,-8.0000,0.0087,-0.0262,-0.0011,-0.3750,3.5000,50.5000,150.4375,33.1250,168.1875,0
1776971151.894,9.4499,-0.0168,2.3727,-0.0919,-0.0757,-0.0208,-92.7000,15.7500,-16.3500,9.7229,0.1772,-0.1317,-0.0469,0.0759,0.0059,-36.0000,30.4500,14.7000,5.5000,-1.6800,-8.0000,0.0098,-0.0240,0.0011,-0.3750,3.5000,50.5000,150.4375,33.1250,168.1875,0
1776971151.899,9.4499,-0.0168,2.3727,-0.0794,-0.0781,-0.0264,-91.9500,14.5500,-15.6000,9.7229,0.1772,-0.1317,-0.0442,0.0749,0.0088,-36.0000,30.4500,14.7000,5.5200,-1.6700,-8.0100,0.0098,-0.0240,0.0011,-0.3750,3.5000,50.5000,150.4375,33.1250,168.1875,0
1776971151.904,9.4858,0.0311,2.4229,-0.0818,-0.0759,-0.0269,-91.9500,14.5500,-15.6000,9.7827,0.1580,-0.1604,-0.0442,0.0749,0.0088,-36.0000,30.4500,14.7000,5.5200,-1.6700,-8.0100,0.0076,-0.0240,0.0022,-0.0625,2.3750,48.8750,150.4375,33.1250,168.1875,0
1776971151.910,9.4858,0.0311,2.4229,-0.0818,-0.0759,-0.0269,-92.5500,14.8500,-15.9000,9.7923,0.1269,-0.0958,-0.0314,0.0719,0.0035,-36.0000,30.4500,14.7000,5.5100,-1.6600,-7.9900,0.0076,-0.0240,0.0022,-0.0625,2.3750,48.8750,150.4375,33.1250,168.1875,0
1776971151.915,9.4739,0.0311,2.4373,-0.0733,-0.0762,-0.0264,-92.5500,14.8500,-15.9000,9.7923,0.1269,-0.0958,-0.0314,0.0719,0.0035,-34.6500,30.4500,15.4500,5.5200,-1.6600,-8.0000,0.0065,-0.0207,0.0022,-0.0625,2.3750,48.8750,150.4375,33.1250,168.1875,0
1776971151.920,9.4739,0.0311,2.4373,-0.0733,-0.0762,-0.0264,-92.5500,14.8500,-15.9000,9.7971,0.1317,-0.0982,-0.0250,0.0642,0.0032,-34.6500,30.4500,15.4500,5.5200,-1.6600,-8.0000,0.0065,-0.0207,0.0022,-0.0625,2.3750,48.8750,150.4375,33.1250,168.1875,0
1776971151.924,9.3733,0.1077,2.4612,-0.0799,-0.0671,-0.0208,-92.5500,14.8500,-15.9000,9.7971,0.1317,-0.0982,-0.0250,0.0642,0.0032,-36.4500,28.6500,15.0000,5.5100,-1.6600,-8.0100,0.0087,-0.0229,0.0000,-0.0625,2.3750,48.8750,150.4375,33.0625,168.1875,0
1776971151.929,9.3733,0.1077,2.4612,-0.0799,-0.0671,-0.0208,-92.4000,15.0000,-15.6000,9.8785,0.1556,-0.0311,-0.0253,0.0663,-0.0005,-36.4500,28.6500,15.0000,5.5100,-1.6600,-8.0100,0.0087,-0.0229,0.0000,-0.0625,2.3750,48.8750,150.4375,33.0625,168.1875,0
1776971151.938,9.3996,0.0527,2.5259,-0.0650,-0.0791,-0.0253,-92.4000,15.0000,-15.6000,9.8785,0.0910,-0.0335,-0.0171,0.0648,-0.0024,-35.7000,30.4500,16.2000,5.4800,-1.6800,-8.0000,0.0065,-0.0207,0.0000,-0.0625,2.3750,48.8750,150.4375,33.0625,168.1875,0
1776971151.948,9.4379,0.1532,2.5307,-0.0594,-0.0775,-0.0290,-91.8000,14.8500,-16.9500,9.8785,0.0910,-0.0335,-0.0171,0.0648,-0.0024,-35.7000,28.9500,15.0000,5.5200,-1.6600,-7.9800,0.0076,-0.0175,0.0011,-0.0625,2.3750,48.8750,150.4375,33.0625,168.1875,0
1776971151.952,9.4212,0.1796,2.5546,-0.0480,-0.0671,-0.0232,-91.8000,14.8500,-16.9500,9.7803,0.1053,0.0096,-0.0096,0.0568,-0.0005,-35.7000,28.9500,15.0000,5.5200,-1.6600,-7.9800,0.0055,-0.0164,-0.0011,0.2500,2.7500,49.2500,150.4375,33.0625,168.1875,0
1776971151.959,9.4212,0.1796,2.5546,-0.0480,-0.0671,-0.0232,-90.9000,15.0000,-15.6000,9.8282,0.0934,0.0335,-0.0123,0.0610,-0.0032,-35.7000,28.9500,15.0000,5.5200,-1.6600,-7.9900,0.0055,-0.0164,-0.0011,0.2500,2.7500,49.2500,150.4375,33.0625,168.1875,0
1776971151.968,9.3972,0.1987,2.4995,-0.0426,-0.0645,-0.0280,-90.6000,14.8500,-14.7000,9.8114,0.1508,0.0575,-0.0091,0.0536,-0.0053,-34.6500,29.7000,15.7500,5.4800,-1.6700,-7.9800,0.0055,-0.0153,0.0000,0.2500,2.7500,49.2500,150.4375,33.0625,168.1875,0
1776971151.973,9.3518,0.1772,2.5355,-0.0325,-0.0645,-0.0309,-90.6000,14.8500,-14.7000,9.8114,0.1508,0.0575,-0.0091,0.0536,-0.0053,-34.6500,29.7000,15.7500,5.4800,-1.6700,-7.9800,0.0022,-0.0120,0.0011,0.2500,2.7500,49.2500,150.3750,33.0625,168.1875,0
1776971151.979,9.3518,0.1772,2.5355,-0.0325,-0.0645,-0.0309,-92.5500,13.9500,-16.6500,9.8090,0.0934,0.0407,-0.0011,0.0522,-0.0083,-36.0000,29.4000,15.0000,5.5000,-1.6800,-8.0100,0.0022,-0.0120,0.0011,0.2500,2.7500,49.2500,150.3750,33.0625,168.1875,0
1776971151.988,9.3446,0.1460,2.5235,-0.0282,-0.0541,-0.0277,-91.5000,14.4000,-15.1500,9.7851,0.1341,0.0814,0.0019,0.0458,-0.0035,-36.3000,30.0000,15.6000,5.5000,-1.6600,-7.9900,0.0044,-0.0153,-0.0011,0.2500,2.7500,49.2500,150.3750,33.0625,168.1875,0
1776971151.994,9.3134,0.1077,2.5043,-0.0269,-0.0418,-0.0205,-91.5000,14.4000,-15.1500,9.7851,0.1341,0.0814,0.0019,0.0458,-0.0035,-35.7000,30.1500,16.2000,5.5000,-1.6600,-7.9900,0.0033,-0.0098,0.0022,0.2500,2.7500,49.2500,150.3750,33.0625,168.1875,0
1776971152.000,9.2991,0.0120,2.4828,-0.0269,-0.0418,-0.0205,-92.2500,15.1500,-16.2000,9.7636,0.1532,0.1317,0.0080,0.0464,-0.0096,-35.7000,30.1500,16.2000,5.5100,-1.6600,-8.0000,0.0033,-0.0098,0.0022,0.2500,2.7500,49.2500,150.3750,33.0625,168.1875,0
1776971152.004,9.2991,0.0120,2.4828,-0.0261,-0.0405,-0.0218,-92.2500,15.1500,-16.2000,9.7636,0.1532,0.1317,0.0080,0.0464,-0.0096,-34.6500,30.4500,14.4000,5.5000,-1.6400,-8.0100,0.0033,-0.0109,0.0022,-0.0625,3.8750,50.5000,150.3750,33.0625,168.1875,0
1776971152.009,9.3326,-0.0287,2.5115,-0.0237,-0.0306,-0.0120,-92.2500,15.1500,-16.2000,9.7707,0.1197,0.1939,0.0048,0.0394,-0.0107,-34.6500,30.4500,14.4000,5.5000,-1.6400,-8.0100,0.0033,-0.0109,0.0022,-0.0625,3.8750,50.5000,150.3750,33.0625,168.1875,0
1776971152.019,9.3015,-0.0239,2.5139,-0.0237,-0.0306,-0.0120,-92.2500,14.8500,-16.2000,9.7779,0.0814,0.1772,0.0112,0.0360,-0.0168,-34.6500,30.4500,14.4000,5.5000,-1.6700,-8.0200,0.0055,-0.0131,0.0000,-0.0625,3.8750,50.5000,150.3750,33.0625,168.1875,0
1776971152.027,9.3015,-0.0239,2.5139,-0.0192,-0.0264,-0.0107,-92.2500,14.8500,-16.2000,9.7995,-0.0048,0.1389,0.0051,0.0264,-0.0187,-35.7000,29.7000,14.7000,5.4800,-1.6800,-8.0000,0.0044,-0.0153,0.0000,-0.0625,3.8750,50.5000,150.3750,33.0625,168.1875,0
1776971152.032,9.3661,-0.0694,2.5259,-0.0197,-0.0155,-0.0061,-92.2500,14.8500,-16.2000,9.7995,-0.0048,0.1389,0.0051,0.0264,-0.0187,-35.7000,29.7000,14.7000,5.4800,-1.6800,-8.0000,0.0044,-0.0153,0.0000,-0.0625,3.8750,50.5000,150.3750,33.0625,168.1875,0
1776971152.039,9.3972,-0.0718,2.5235,-0.0101,-0.0072,-0.0051,-90.6000,14.8500,-16.9500,9.8402,0.0311,0.0694,-0.0013,0.0240,-0.0136,-35.1000,28.8000,14.5500,5.4800,-1.6700,-8.0400,0.0022,-0.0153,0.0022,-0.0625,3.8750,50.5000,150.3750,33.0625,168.1875,0
1776971152.047,9.4379,-0.0646,2.5402,-0.0101,-0.0072,-0.0051,-90.6000,14.8500,-16.9500,9.8090,0.0263,0.0479,-0.0088,0.0213,-0.0176,-34.9500,30.4500,15.0000,5.5000,-1.6700,-8.0200,0.0044,-0.0164,0.0011,-0.0625,3.8750,50.5000,150.3750,33.0625,168.1875,0
1776971152.052,9.4379,-0.0646,2.5402,-0.0144,-0.0051,-0.0045,-91.0500,14.4000,-16.2000,9.8090,0.0263,0.0479,-0.0088,0.0213,-0.0176,-35.8500,29.5500,15.0000,5.5000,-1.6700,-8.0200,0.0044,-0.0164,0.0011,-0.0625,3.8750,50.5000,150.3750,33.0625,168.1875,0
1776971152.058,9.4116,0.0096,2.5163,-0.0187,-0.0045,0.0005,-91.8000,15.1500,-16.2000,9.7947,0.0718,0.0311,-0.0211,0.0168,-0.0245,-35.8500,29.5500,14.8500,5.4700,-1.7000,-8.0200,0.0044,-0.0153,0.0011,0.2500,3.5000,49.2500,150.3750,33.0625,168.1875,0
1776971152.063,9.4116,0.0096,2.5163,-0.0187,-0.0045,0.0005,-91.8000,15.1500,-16.2000,9.7947,0.0718,0.0311,-0.0211,0.0168,-0.0245,-36.4500,30.9000,15.4500,5.4700,-1.7000,-8.0200,0.0055,-0.0185,-0.0011,0.2500,3.5000,49.2500,150.3750,33.0625,168.1875,0
1776971152.069,9.4523,0.0431,2.3798,-0.0187,-0.0027,-0.0035,-91.2000,15.0000,-16.8000,9.7923,0.1077,-0.0239,-0.0317,0.0165,-0.0261,-36.4500,30.9000,15.4500,5.4900,-1.7200,-8.0100,0.0055,-0.0185,-0.0011,0.2500,3.5000,49.2500,150.3750,33.0625,168.1875,0
1776971152.079,9.4092,0.1604,2.3942,-0.0077,-0.0051,-0.0085,-91.6500,14.2500,-16.0500,9.7995,0.2705,-0.0718,-0.0370,0.0093,-0.0211,-36.4500,30.9000,15.4500,5.5100,-1.6600,-8.0500,0.0022,-0.0153,-0.0011,0.2500,3.5000,49.2500,150.3750,33.0625,168.1875,0
1776971152.085,9.4092,0.1604,2.3942,-0.0077,-0.0051,-0.0085,-91.6500,14.2500,-16.0500,9.7300,0.2346,-0.0503,-0.0261,0.0096,-0.0232,-35.1000,30.0000,16.3500,5.5000,-1.6700,-8.0200,0.0022,-0.0175,-0.0011,0.2500,3.5000,49.2500,150.3750,33.0000,168.1875,0
1776971152.090,9.4236,0.2155,2.4014,0.0048,-0.0016,-0.0051,-92.5500,14.8500,-16.6500,9.7300,0.2346,-0.0503,-0.0261,0.0096,-0.0232,-35.1000,30.0000,16.3500,5.5000,-1.6700,-8.0200,0.0022,-0.0175,-0.0011,0.2500,3.5000,49.2500,150.3750,33.0000,168.1875,0
1776971152.099,9.4667,0.2466,2.3750,0.0075,-0.0035,-0.0075,-92.5500,14.8500,-16.6500,9.7755,0.2322,-0.0790,-0.0173,0.0093,-0.0282,-35.7000,30.1500,15.7500,5.5100,-1.6200,-7.9800,0.0022,-0.0153,-0.0022,0.2500,3.5000,49.2500,150.3750,33.0000,168.1875,0
1776971152.104,9.4667,0.2466,2.3750,0.0075,-0.0035,-0.0075,-92.5500,14.8500,-16.6500,9.8090,0.2155,-0.0575,-0.0040,0.0123,-0.0218,-37.6500,29.5500,16.3500,5.5100,-1.6200,-7.9800,0.0022,-0.0175,-0.0011,-0.0625,2.7500,49.2500,150.3750,33.0000,168.1875,0
1776971152.110,9.5170,0.3041,2.3774,0.0168,0.0027,-0.0077,-91.8000,13.9500,-16.6500,9.8090,0.2155,-0.0575,-0.0040,0.0123,-0.0218,-37.6500,29.5500,16.3500,5.5100,-1.6300,-8.0000,0.0022,-0.0175,-0.0011,-0.0625,2.7500,49.2500,150.3750,33.0000,168.1875,0
1776971152.119,9.4571,0.2466,2.3415,0.0139,0.0035,-0.0059,-91.8000,13.9500,-16.6500,9.7923,0.1748,-0.0670,0.0069,0.0165,-0.0266,-34.9500,30.4500,15.4500,5.5000,-1.6700,-8.0100,0.0022,-0.0196,0.0011,-0.0625,2.7500,49.2500,150.3750,33.0000,168.1875,0
1776971152.127,9.4882,0.1844,2.3008,0.0064,-0.0035,-0.0077,-91.8000,13.9500,-16.6500,9.7540,0.1580,-0.1101,0.0075,0.0123,-0.0240,-34.9500,30.4500,15.4500,5.5000,-1.6600,-8.0400,0.0000,-0.0185,-0.0022,-0.0625,2.7500,49.2500,150.3750,33.0000,168.1875,0
1776971152.132,9.4882,0.1844,2.3008,0.0064,-0.0035,-0.0077,-90.9000,15.0000,-15.3000,9.7803,0.1101,-0.1125,0.0040,0.0112,-0.0277,-36.0000,29.4000,16.2000,5.5000,-1.6600,-8.0400,0.0000,-0.0185,-0.0022,-0.0625,2.7500,49.2500,150.3750,33.0000,168.1875,0
1776971152.139,9.5217,0.1460,2.3320,0.0011,-0.0109,-0.0048,-91.0500,14.4000,-15.9000,9.7803,0.1101,-0.1125,0.0040,0.0112,-0.0277,-36.0000,29.4000,16.2000,5.4900,-1.6500,-8.0000,0.0033,-0.0185,0.0000,-0.0625,2.7500,49.2500,150.3750,33.0000,168.1875,0
1776971152.146,9.5026,0.0958,2.2434,-0.0016,-0.0131,-0.0048,-91.0500,14.4000,-15.9000,9.7300,0.1820,-0.1101,0.0053,0.0139,-0.0261,-34.8000,28.8000,14.2500,5.4800,-1.6800,-8.0200,0.0000,-0.0131,-0.0011,-0.0625,2.7500,49.2500,150.3750,33.0000,168.1875,0
1776971152.151,9.5026,0.0958,2.2434,-0.0016,-0.0131,-0.0048,-91.6500,15.0000,-15.3000,9.8282,0.2610,-0.1341,0.0125,0.0133,-0.0288,-36.6000,30.3000,15.6000,5.4800,-1.6800,-8.0200,0.0000,-0.0131,-0.0011,-0.0625,2.7500,49.2500,150.3750,33.0000,168.1875,0
1776971152.156,9.5289,0.1149,2.2817,-0.0064,-0.0152,-0.0104,-91.6500,15.0000,-15.3000,9.8282,0.2610,-0.1341,0.0125,0.0133,-0.0288,-36.6000,30.3000,15.6000,5.5000,-1.6800,-8.0100,-0.0011,-0.0131,-0.0022,-0.3750,3.1875,50.8750,150.3750,33.0000,168.1875,0
1776971152.161,9.5289,0.1149,2.2817,-0.0064,-0.0152,-0.0104,-91.9500,13.5000,-16.0500,9.7755,0.2897,-0.1197,0.0117,0.0179,-0.0253,-34.9500,30.9000,16.8000,5.5000,-1.6800,-8.0100,-0.0011,-0.0131,-0.0022,-0.3750,3.1875,50.8750,150.3750,33.0000,168.1875,0
1776971152.169,9.4954,0.1437,2.3104,-0.0027,-0.0208,-0.0112,-91.2000,14.2500,-16.8000,9.7755,0.2897,-0.1197,0.0117,0.0179,-0.0253,-34.9500,30.9000,16.8000,5.5000,-1.6700,-8.0000,0.0011,-0.0109,-0.0022,-0.3750,3.1875,50.8750,150.3750,33.0000,168.1875,0
1776971152.179,9.4930,0.0838,2.3248,-0.0003,-0.0290,-0.0160,-91.2000,14.2500,-16.8000,9.8138,0.1652,-0.1125,0.0157,0.0157,-0.0211,-34.9500,30.4500,15.4500,5.4900,-1.6600,-8.0000,0.0022,-0.0109,-0.0022,-0.3750,3.1875,50.8750,150.3750,33.0000,168.1875,0
1776971152.185,9.4739,0.1293,2.4517,-0.0085,-0.0264,-0.0141,-90.6000,13.9500,-15.9000,9.7779,0.1580,-0.0048,0.0120,0.0171,-0.0312,-34.9500,30.4500,15.4500,5.4900,-1.6600,-8.0000,0.0000,-0.0120,-0.0011,-0.3750,3.1875,50.8750,150.3750,33.0000,168.1875,0
1776971152.190,9.4739,0.1293,2.4517,-0.0085,-0.0264,-0.0141,-90.6000,13.9500,-15.9000,9.8234,0.1389,-0.0575,0.0072,0.0173,-0.0306,-37.0500,30.3000,15.6000,5.4900,-1.6600,-8.0400,0.0000,-0.0120,-0.0011,-0.3750,3.1875,50.8750,150.3750,33.0000,168.1875,0
1776971152.199,9.3853,0.1484,2.4181,-0.0160,-0.0288,-0.0165,-91.8000,15.6000,-16.6500,9.7516,0.1772,0.0048,-0.0040,0.0117,-0.0264,-35.5500,30.3000,15.6000,5.4700,-1.6600,-7.9900,0.0011,-0.0098,-0.0011,-0.3750,3.1875,50.8750,150.3750,33.0000,168.1875,0
1776971152.204,9.4355,0.1772,2.3942,-0.0232,-0.0253,-0.0149,-91.8000,15.6000,-16.6500,9.7516,0.1772,0.0048,-0.0040,0.0117,-0.0264,-35.5500,30.3000,16.3500,5.4700,-1.6600,-7.9900,0.0022,-0.0109,-0.0011,0.2500,3.8750,49.6875,150.3750,33.0000,168.1875,0
1776971152.210,9.4355,0.1772,2.3942,-0.0232,-0.0253,-0.0149,-91.6500,14.2500,-16.8000,9.7588,0.1628,-0.0120,-0.0128,0.0155,-0.0248,-35.4000,28.9500,14.7000,5.4800,-1.6500,-8.0100,0.0022,-0.0109,-0.0011,0.2500,3.8750,49.6875,150.3750,33.0000,168.1875,0
1776971152.219,9.3948,0.1437,2.4157,-0.0290,-0.0232,-0.0195,-91.6500,14.2500,-16.8000,9.7995,0.1508,-0.0431,-0.0192,0.0099,-0.0293,-35.1000,31.0500,15.3000,5.4800,-1.6700,-8.0100,0.0022,-0.0120,-0.0022,0.2500,3.8750,49.6875,150.3750,33.0000,168.1875,0
1776971152.226,9.3757,0.0718,2.4038,-0.0341,-0.0237,-0.0125,-91.5000,14.4000,-16.2000,9.7995,0.1508,-0.0431,-0.0192,0.0099,-0.0293,-35.1000,31.0500,15.3000,5.5000,-1.6900,-8.0300,-0.0011,-0.0076,0.0000,0.2500,3.8750,49.6875,150.3750,33.0000,168.1875,0
1776971152.231,9.4571,0.1173,2.4277,-0.0338,-0.0211,-0.0163,-92.2500,15.9000,-15.9000,9.8019,0.1221,0.0192,-0.0261,0.0069,-0.0282,-34.5000,31.0500,15.9000,5.5000,-1.6900,-8.0300,-0.0011,-0.0076,0.0000,0.2500,3.8750,49.6875,150.3750,33.0000,168.1875,0
1776971152.239,9.4643,0.1269,2.3990,-0.0338,-0.0211,-0.0163,-91.2000,15.0000,-17.5500,9.7779,0.1006,0.0455,-0.0290,0.0019,-0.0234,-34.5000,31.0500,15.9000,5.4900,-1.6900,-8.0300,0.0033,-0.0131,-0.0022,0.2500,3.8750,49.6875,150.3750,33.0000,168.1875,0
1776971152.249,9.4140,0.1365,2.3990,-0.0376,-0.0165,-0.0115,-91.2000,15.0000,-17.5500,9.7827,0.1676,-0.0144,-0.0370,0.0045,-0.0256,-36.0000,29.7000,16.2000,5.4700,-1.7100,-8.0400,0.0011,-0.0131,0.0000,0.2500,3.8750,49.6875,150.3750,33.0000,168.1875,0
1776971152.254,9.4140,0.1365,2.3990,-0.0402,-0.0083,-0.0125,-92.4000,15.7500,-16.8000,9.7827,0.1676,-0.0144,-0.0370,0.0045,-0.0256,-36.0000,29.7000,16.2000,5.4700,-1.7100,-8.0400,0.0022,-0.0131,0.0000,-0.3750,3.5000,49.2500,150.3750,33.0000,168.1875,0
1776971152.260,9.3948,0.1844,2.3727,-0.0416,-0.0104,-0.0067,-92.4000,15.7500,-16.8000,9.8138,0.1987,-0.0311,-0.0389,-0.0019,-0.0301,-35.5500,31.0500,15.6000,5.5000,-1.6700,-8.0100,0.0022,-0.0131,0.0000,-0.3750,3.5000,49.2500,150.3750,33.0000,168.1875,0
1776971152.269,9.4212,0.2298,2.4110,-0.0328,-0.0115,-0.0040,-92.4000,15.7500,-16.8000,9.7971,0.2634,-0.0096,-0.0397,0.0003,-0.0314,-34.8000,30.7500,15.6000,5.5000,-1.6600,-8.0300,0.0011,-0.0153,0.0000,-0.3750,3.5000,49.2500,150.3750,33.0000,168.1875,0
1776971152.274,9.4212,0.2298,2.4110,-0.0328,-0.0115,-0.0040,-91.9500,14.5500,-16.0500,9.7971,0.2634,-0.0096,-0.0397,0.0003,-0.0314,-34.8000,30.7500,15.6000,5.5000,-1.6600,-8.0300,0.0011,-0.0120,-0.0022,-0.3750,3.5000,49.2500,150.3750,33.0000,168.1875,0
1776971152.280,9.4499,0.2298,2.4038,-0.0280,-0.0059,-0.0021,-91.9500,14.5500,-16.0500,9.7540,0.2562,-0.0263,-0.0306,-0.0011,-0.0309,-35.7000,31.2000,15.0000,5.4900,-1.6500,-8.0500,0.0011,-0.0120,-0.0022,-0.3750,3.5000,49.2500,150.3750,33.0000,168.1875,0
1776971152.289,9.4451,0.2466,2.3990,-0.0224,0.0008,-0.0080,-91.9500,14.5500,-16.0500,9.7707,0.1532,-0.0144,-0.0205,-0.0059,-0.0277,-35.7000,31.2000,15.0000,5.4800,-1.6600,-8.0400,0.0000,-0.0153,-0.0022,-0.3750,3.5000,49.2500,150.3750,33.0000,168.1875,0
1776971152.296,9.4451,0.2466,2.3990,-0.0224,0.0008,-0.0080,-90.1500,15.0000,-15.6000,9.7707,0.1532,-0.0144,-0.0205,-0.0059,-0.0277,-35.7000,31.2000,15.0000,5.4500,-1.7000,-8.0300,0.0011,-0.0164,-0.0011,-0.3750,3.5000,49.2500,150.3750,32.9375,168.1875,0
1776971152.301,9.3589,0.2298,2.3272,-0.0272,0.0035,-0.0037,-91.5000,14.4000,-14.7000,9.7229,0.1077,-0.0431,-0.0240,-0.0053,-0.0288,-35.7000,31.2000,15.0000,5.4500,-1.7000,-8.0300,0.0011,-0.0164,-0.0011,-0.3750,3.5000,49.2500,150.3750,32.9375,168.1875,0
1776971152.305,9.3589,0.2298,2.3272,-0.0272,0.0035,-0.0037,-91.5000,14.4000,-14.7000,9.7229,0.1077,-0.0431,-0.0536,-0.0072,-0.0274,-35.7000,31.2000,15.0000,5.4700,-1.7300,-8.0200,-0.0011,-0.0120,0.0011,0.2500,3.5000,49.2500,150.3750,32.9375,168.1875,0
1776971152.310,9.3877,0.1724,2.2529,-0.0333,0.0123,-0.0037,-90.4500,15.7500,-15.3000,9.8043,0.1341,-0.0694,-0.0536,-0.0072,-0.0274,-34.9500,30.9000,15.4500,5.4700,-1.7300,-8.0200,-0.0011,-0.0120,0.0011,0.2500,3.5000,49.2500,150.3750,32.9375,168.1875,0
1776971152.320,9.4116,0.2059,2.2338,-0.0469,0.0181,0.0027,-90.4500,15.7500,-15.3000,9.7707,0.2849,-0.1053,-0.0799,-0.0088,-0.0256,-34.9500,29.4000,16.2000,5.4800,-1.6600,-8.0500,-0.0011,-0.0044,-0.0022,0.2500,3.5000,49.2500,150.3750,32.9375,168.1875,0
1776971152.329,9.4547,0.2346,2.3080,-0.0413,0.0179,0.0061,-92.5500,15.6000,-16.2000,9.7612,0.3184,-0.1676,-0.0845,-0.0067,-0.0242,-35.7000,31.2000,15.7500,5.5100,-1.6500,-8.0300,-0.0022,0.0011,-0.0033,0.2500,3.5000,49.2500,150.3750,32.9375,168.1875,0
1776971152.334,9.4547,0.2346,2.3080,-0.0413,0.0179,0.0061,-92.5500,14.4000,-17.4000,9.7612,0.3184,-0.1676,-0.0845,-0.0067,-0.0242,-35.7000,31.2000,15.7500,5.5100,-1.6500,-8.0300,-0.0033,0.0011,-0.0033,0.2500,3.5000,49.2500,150.3750,33.0000,168.1875,0
1776971152.340,9.4667,0.3496,2.2889,-0.0368,0.0189,0.0005,-92.5500,14.4000,-17.4000,9.7588,0.3663,-0.1772,-0.0773,-0.0059,-0.0245,-35.8500,30.3000,15.3000,5.5000,-1.6500,-8.0200,-0.0033,0.0011,-0.0033,0.2500,3.5000,49.2500,150.3750,33.0000,168.1875,0
1776971152.350,9.5313,0.3448,2.3104,-0.0328,0.0234,0.0029,-91.6500,15.4500,-16.8000,9.7564,0.2993,-0.2107,-0.0666,0.0021,-0.0266,-35.8500,30.3000,15.3000,5.5000,-1.6600,-8.0200,0.0000,-0.0098,-0.0022,0.2500,3.5000,49.2500,150.3750,33.0000,168.1875,0
1776971152.354,9.5217,0.3663,2.3104,-0.0328,0.0234,0.0029,-91.6500,15.4500,-16.8000,9.7875,0.2705,-0.2729,-0.0557,-0.0029,-0.0229,-35.8500,30.3000,15.3000,5.5000,-1.6600,-8.0200,0.0000,-0.0131,0.0000,0.6875,3.1875,48.8750,150.3750,33.0000,168.1875,0
1776971152.360,9.5217,0.3663,2.3104,-0.0370,0.0232,0.0011,-91.6500,15.4500,-16.8000,9.7875,0.2705,-0.2729,-0.0557,-0.0029,-0.0229,-35.5500,30.3000,15.6000,5.4800,-1.6300,-8.0200,0.0000,-0.0131,0.0000,0.6875,3.1875,48.8750,150.3750,32.9375,168.1875,0
1776971152.369,9.5553,0.3304,2.1979,-0.0274,0.0117,-0.0027,-91.6500,14.2500,-17.1000,9.7636,0.2825,-0.3400,-0.0456,0.0013,-0.0192,-35.7000,28.9500,15.4500,5.4500,-1.6600,-8.0000,0.0022,-0.0142,0.0000,0.6875,3.1875,48.8750,150.3750,32.9375,168.1875,0
1776971152.374,9.5122,0.3256,2.2051,-0.0274,0.0117,-0.0027,-91.6500,14.2500,-17.1000,9.7492,0.2634,-0.3256,-0.0408,0.0139,-0.0203,-35.7000,28.9500,15.4500,5.4500,-1.6600,-8.0000,-0.0033,-0.0131,-0.0011,0.6875,3.1875,48.8750,150.3750,32.9375,168.1875,0
1776971152.380,9.5122,0.3256,2.2051,-0.0181,0.0077,0.0000,-91.6500,14.2500,-17.1000,9.7492,0.2634,-0.3256,-0.0408,0.0139,-0.0203,-35.8500,30.3000,15.6000,5.4800,-1.6800,-8.0400,-0.0033,-0.0131,-0.0011,0.6875,3.1875,48.8750,150.3750,32.9375,168.1875,0
1776971152.389,9.5577,0.3496,2.1596,-0.0152,0.0008,0.0024,-91.5000,14.8500,-16.6500,9.7540,0.2825,-0.3304,-0.0346,0.0147,-0.0226,-34.0500,30.3000,14.5500,5.4700,-1.6400,-8.0200,0.0000,-0.0076,0.0000,0.6875,3.1875,48.8750,150.3750,32.9375,168.1875,0
1776971152.394,9.5313,0.3974,2.1021,-0.0155,0.0061,0.0024,-92.5500,13.9500,-16.2000,9.6965,0.4214,-0.3352,-0.0141,0.0160,-0.0171,-34.0500,30.3000,14.5500,5.4700,-1.6400,-8.0200,0.0000,-0.0098,-0.0011,0.6875,3.1875,48.8750,150.3750,33.0000,168.1875,0
1776971152.400,9.5313,0.3974,2.1021,-0.0155,0.0061,0.0024,-92.5500,13.9500,-16.2000,9.6965,0.4214,-0.3352,-0.0141,0.0160,-0.0171,-36.6000,31.0500,14.8500,5.4900,-1.6700,-8.0100,0.0000,-0.0098,-0.0011,0.6875,3.1875,48.8750,150.3750,33.0000,168.1875,0
1776971152.405,9.5193,0.3208,2.1404,-0.0064,0.0003,0.0045,-91.6500,15.0000,-17.1000,9.7588,0.4118,-0.3304,0.0053,0.0163,-0.0192,-36.6000,31.0500,14.8500,5.4900,-1.6700,-8.0100,0.0011,-0.0098,-0.0011,-0.3750,3.8750,49.6875,150.3750,33.0000,168.1875,0
1776971152.410,9.5193,0.3208,2.1404,-0.0064,0.0003,0.0045,-91.6500,15.0000,-17.1000,9.7588,0.4118,-0.3304,0.0053,0.0163,-0.0192,-36.6000,31.0500,14.8500,5.4800,-1.6600,-8.0200,0.0011,-0.0098,-0.0011,-0.3750,3.8750,49.6875,150.3750,33.0000,168.1875,0
1776971152.420,9.5122,0.3711,2.1189,-0.0040,-0.0045,-0.0027,-90.6000,14.4000,-17.4000,9.7923,0.3328,-0.3328,0.0274,0.0309,-0.0221,-35.1000,29.5500,13.8000,5.4900,-1.6500,-8.0200,0.0022,-0.0076,-0.0033,-0.3750,3.8750,49.6875,150.3750,33.0000,168.1875,0
1776971152.427,9.5600,0.3208,2.1476,-0.0032,-0.0035,-0.0029,-92.7000,15.7500,-16.0500,9.7779,0.3615,-0.2634,0.0245,0.0312,-0.0181,-36.3000,29.5500,14.5500,5.4700,-1.6400,-8.0400,0.0022,-0.0055,-0.0022,-0.3750,3.8750,49.6875,150.3750,33.0000,168.1875,0
1776971152.432,9.5289,0.3208,2.1787,-0.0032,-0.0035,-0.0029,-91.8000,15.1500,-16.6500,9.7947,0.2801,-0.2921,0.0277,0.0365,-0.0216,-36.3000,29.5500,14.5500,5.4700,-1.6400,-8.0400,0.0022,-0.0055,-0.0022,-0.3750,3.8750,49.6875,150.3750,33.0000,168.1875,0
1776971152.440,9.5289,0.3208,2.1787,0.0005,-0.0040,-0.0056,-91.8000,15.1500,-16.6500,9.7947,0.2801,-0.2921,0.0277,0.0365,-0.0216,-36.3000,30.3000,15.3000,5.4800,-1.6500,-8.0300,0.0011,-0.0022,-0.0022,-0.3750,3.8750,49.6875,150.3750,33.0000,168.1875,0
1776971152.449,9.4810,0.2442,2.2386,-0.0125,0.0011,-0.0075,-91.8000,15.1500,-16.6500,9.7995,0.2658,-0.2729,0.0179,0.0386,-0.0224,-36.0000,29.7000,13.9500,5.4800,-1.6300,-7.9900,0.0011,-0.0011,-0.0033,-0.3750,3.8750,49.6875,150.3750,33.0000,168.1875,0
1776971152.453,9.5193,0.3160,2.2122,-0.0157,-0.0013,-0.0144,-91.2000,16.2000,-17.5500,9.7971,0.3759,-0.2011,0.0128,0.0437,-0.0157,-36.0000,29.7000,13.9500,5.4800,-1.6300,-7.9900,0.0011,-0.0011,-0.0011,-0.0625,3.5000,48.8750,150.3750,33.0000,168.1875,0
1776971152.460,9.4954,0.2586,2.2601,-0.0157,-0.0013,-0.0144,-91.2000,16.2000,-17.5500,9.7971,0.3759,-0.2011,0.0128,0.0437,-0.0157,-36.0000,29.7000,13.9500,5.4900,-1.6800,-8.0200,0.0011,-0.0011,-0.0011,-0.0625,3.5000,48.8750,150.3750,33.0000,168.1875,0
1776971152.469,9.4954,0.2586,2.2601,-0.0205,-0.0027,-0.0091,-91.2000,16.2000,-17.5500,9.7492,0.3496,-0.1700,0.0117,0.0469,-0.0192,-36.0000,29.7000,13.9500,5.4800,-1.6700,-8.0300,0.0033,-0.0044,-0.0011,-0.0625,3.5000,48.8750,150.3750,33.0000,168.1875,0
1776971152.476,9.5146,0.3567,2.2865,-0.0264,-0.0096,-0.0128,-89.7000,15.0000,-15.6000,9.8354,0.3424,-0.1891,0.0099,0.0408,-0.0099,-35.4000,30.1500,16.2000,5.4900,-1.6800,-8.0300,0.0011,-0.0033,0.0011,-0.0625,3.5000,48.8750,150.3750,33.0000,168.1875,0
1776971152.481,9.4212,0.2969,2.3990,-0.0282,-0.0155,-0.0152,-89.7000,15.0000,-15.6000,9.8138,0.3328,-0.1197,0.0120,0.0456,-0.0080,-35.4000,30.1500,16.2000,5.4900,-1.6800,-8.0300,0.0011,-0.0033,0.0011,-0.0625,3.5000,48.8750,150.3750,33.0000,168.1875,0
1776971152.490,9.4092,0.2658,2.3727,-0.0298,-0.0152,-0.0104,-90.3000,13.9500,-16.2000,9.7851,0.2873,-0.1125,0.0123,0.0501,-0.0101,-33.9000,30.9000,16.2000,5.5000,-1.6600,-8.0300,0.0033,-0.0011,0.0000,-0.0625,3.5000,48.8750,150.3750,33.0000,168.1875,0
1776971152.497,9.4092,0.2658,2.3727,-0.0298,-0.0152,-0.0104,-91.9500,15.4500,-15.3000,9.7851,0.2873,-0.1125,0.0123,0.0501,-0.0101,-34.6500,31.6500,14.7000,5.4800,-1.6800,-7.9900,0.0011,-0.0055,-0.0011,-0.0625,3.5000,48.8750,150.3750,33.0000,168.1875,0
1776971152.502,9.5074,0.2897,2.4229,-0.0338,-0.0240,-0.0085,-91.6500,16.2000,-16.8000,9.8019,0.2586,-0.1053,0.0147,0.0418,-0.0099,-34.6500,31.6500,14.7000,5.4800,-1.6800,-7.9900,0.0011,-0.0055,-0.0011,-0.0625,3.5000,48.8750,150.3750,33.0000,168.1875,0
1776971152.507,9.5074,0.2897,2.4229,-0.0338,-0.0240,-0.0085,-91.6500,16.2000,-16.8000,9.8019,0.2586,-0.1053,0.0147,0.0418,-0.0099,-36.0000,29.7000,15.4500,5.5000,-1.6600,-8.0000,0.0033,-0.0044,0.0011,-0.3750,3.8750,48.5000,150.3750,33.0000,168.1875,0
1776971152.512,9.4691,0.2538,2.4565,-0.0312,-0.0211,-0.0080,-90.9000,15.4500,-17.1000,9.7396,0.2729,-0.0359,0.0069,0.0437,-0.0085,-36.0000,29.7000,15.4500,5.5000,-1.6600,-8.0000,0.0033,-0.0044,0.0011,-0.3750,3.8750,48.5000,150.3750,33.0000,168.1875,0
1776971152.520,9.4954,0.2011,2.4612,-0.0272,-0.0320,-0.0088,-90.9000,15.4500,-17.1000,9.7851,0.2682,-0.1389,0.0035,0.0434,-0.0061,-36.0000,29.7000,15.4500,5.4900,-1.6500,-8.0000,0.0033,-0.0033,0.0011,-0.3750,3.8750,48.5000,150.3750,33.0000,168.1875,0
1776971152.530,9.4547,0.2394,2.3918,-0.0285,-0.0274,-0.0091,-90.6000,13.9500,-15.1500,9.8450,0.2705,-0.0527,0.0085,0.0456,-0.0149,-36.0000,29.7000,16.5000,5.4700,-1.6700,-8.0500,0.0022,-0.0076,0.0011,-0.3750,3.8750,48.5000,150.3750,33.0000,168.1875,0
1776971152.538,9.4547,0.1676,2.3703,-0.0282,-0.0266,-0.0093,-90.6000,13.9500,-15.1500,9.8019,0.2370,-0.0479,0.0051,0.0370,-0.0072,-35.4000,30.1500,16.5000,5.4900,-1.6900,-8.0200,0.0022,-0.0087,0.0000,-0.3750,3.8750,48.5000,150.3750,33.0000,168.1875,0
1776971152.543,9.4547,0.1676,2.3703,-0.0282,-0.0266,-0.0093,-91.8000,15.1500,-15.4500,9.8019,0.2370,-0.0479,0.0051,0.0370,-0.0072,-35.4000,30.1500,16.5000,5.4900,-1.6900,-8.0200,0.0022,-0.0087,0.0000,-0.3750,3.8750,48.5000,150.3750,33.0000,168.1875,0
1776971152.551,9.4882,0.2131,2.3367,-0.0277,-0.0354,-0.0115,-91.8000,15.1500,-15.4500,9.7755,0.2801,-0.1269,0.0021,0.0426,-0.0107,-34.8000,29.5500,16.6500,5.4600,-1.6700,-8.0100,0.0022,-0.0065,0.0011,-0.3750,3.8750,48.5000,150.3750,33.0000,168.1875,0
1776971152.555,9.4882,0.2131,2.3367,-0.0277,-0.0354,-0.0115,-91.8000,15.1500,-15.4500,9.7755,0.2801,-0.1269,0.0021,0.0426,-0.0107,-35.4000,30.4500,15.0000,5.4600,-1.6700,-8.0100,0.0022,-0.0076,0.0033,0.2500,4.2500,48.5000,150.3750,33.0000,168.1875,0
1776971152.561,9.4643,0.1700,2.3272,-0.0232,-0.0195,-0.0147,-91.8000,15.1500,-15.4500,9.7252,0.2801,-0.1556,0.0021,0.0402,-0.0101,-35.4000,30.4500,15.0000,5.5000,-1.6600,-7.9900,0.0022,-0.0076,0.0033,0.2500,4.2500,48.5000,150.3750,33.0000,168.1875,0
1776971152.570,9.4595,0.2610,2.3559,-0.0218,-0.0264,-0.0096,-91.8000,13.9500,-17.7000,9.7636,0.2945,-0.1077,0.0029,0.0437,-0.0072,-35.4000,30.9000,15.7500,5.5000,-1.6900,-8.0300,0.0000,-0.0065,0.0000,0.2500,4.2500,48.5000,150.3750,33.0000,168.1875,0
1776971152.580,9.8617,0.1748,2.3846,-0.0157,-0.0005,-0.0141,-92.5500,14.8500,-15.4500,9.7923,0.2658,-0.1269,0.0016,0.0394,-0.0128,-35.4000,30.9000,15.7500,5.4600,-1.6900,-8.0600,0.0011,-0.0065,0.0011,0.2500,4.2500,48.5000,150.3750,33.0000,168.1875,0
1776971152.587,9.4332,0.2634,2.3200,-0.0211,-0.0274,-0.0165,-91.0500,15.1500,-16.2000,9.8067,0.2490,-0.1484,0.0120,0.0394,-0.0123,-34.9500,29.4000,15.7500,5.4900,-1.6800,-8.0300,0.0011,-0.0098,0.0000,0.2500,4.2500,48.5000,150.3750,33.0000,168.1875,0
1776971152.592,9.4332,0.2634,2.3200,-0.0211,-0.0274,-0.0165,-91.0500,15.1500,-16.2000,9.8067,0.2490,-0.1484,0.0120,0.0394,-0.0123,-34.9500,29.4000,15.7500,5.4900,-1.6800,-8.0300,0.0011,-0.0098,0.0000,0.2500,4.2500,48.5000,150.3750,33.0000,168.1875,0
1776971152.600,9.5193,0.1772,2.3008,-0.0282,-0.0208,-0.0168,-91.5000,15.1500,-16.2000,9.7731,0.1915,-0.2035,0.0037,0.0421,-0.0120,-34.6500,31.2000,14.4000,5.4700,-1.6800,-8.0200,0.0011,-0.0065,-0.0011,0.2500,4.2500,48.5000,150.3750,33.0000,168.1875,0
1776971152.605,9.4763,0.1341,2.3152,-0.0248,-0.0234,-0.0152,-91.0500,15.9000,-16.9500,9.7731,0.1915,-0.2035,0.0037,0.0421,-0.0120,-34.5000,30.7500,14.8500,5.4700,-1.6800,-8.0200,-0.0011,-0.0076,-0.0022,-0.3750,3.1875,50.0625,150.3750,33.0000,168.1875,0
1776971152.611,9.4763,0.1341,2.3152,-0.0248,-0.0234,-0.0152,-91.0500,15.9000,-16.9500,9.7133,0.2083,-0.1748,-0.0051,0.0424,-0.0133,-34.5000,30.7500,14.8500,5.4800,-1.6900,-8.0300,-0.0011,-0.0076,-0.0022,-0.3750,3.1875,50.0625,150.3750,33.0000,168.1875,0
1776971152.620,9.4739,0.1628,2.2649,-0.0280,-0.0266,-0.0237,-91.5000,14.8500,-15.9000,9.8138,0.2370,-0.1532,-0.0075,0.0440,-0.0179,-35.7000,30.1500,15.7500,5.4900,-1.6500,-8.0000,0.0000,-0.0033,0.0011,-0.3750,3.1875,50.0625,150.3750,33.0000,168.1875,0
1776971152.630,9.5337,0.1508,2.3391,-0.0269,-0.0256,-0.0240,-91.5000,14.8500,-15.9000,9.7468,0.2610,-0.1460,0.0005,0.0405,-0.0173,-36.0000,29.7000,15.4500,5.4700,-1.6600,-8.0300,0.0000,-0.0044,-0.0011,-0.3750,3.1875,50.0625,150.3750,33.0000,168.1875,0
1776971152.638,9.6127,0.0120,2.3798,-0.0232,-0.0264,-0.0253,-91.2000,15.0000,-16.8000,9.7636,0.1987,-0.0742,0.0043,0.0416,-0.0195,-36.0000,29.7000,15.4500,5.4800,-1.6800,-8.0300,-0.0011,-0.0120,0.0000,-0.3750,3.1875,50.0625,150.3750,33.0000,168.1875,0
1776971152.643,9.4020,0.0982,2.3152,-0.0232,-0.0264,-0.0253,-91.2000,15.0000,-16.8000,9.7636,0.1987,-0.0742,0.0043,0.0416,-0.0195,-35.5500,30.3000,14.5500,5.4800,-1.6800,-8.0300,-0.0011,-0.0120,0.0000,-0.3750,3.1875,50.0625,150.3750,33.0000,168.1875,0
1776971152.651,9.4020,0.0982,2.3152,-0.0245,-0.0325,-0.0250,-91.8000,14.4000,-17.7000,9.7372,0.2227,-0.0527,-0.0061,0.0405,-0.0197,-35.5500,30.3000,14.5500,5.4700,-1.6400,-8.0100,-0.0011,-0.0098,0.0000,-0.3750,3.1875,50.0625,150.3750,33.0000,168.1875,0
1776971152.655,9.3925,-0.0024,2.3367,-0.0282,-0.0232,-0.0306,-92.4000,16.2000,-14.8500,9.7995,0.2298,0.0000,-0.0128,0.0392,-0.0216,-34.9500,31.9500,16.2000,5.4700,-1.6400,-8.0100,-0.0022,-0.0087,0.0000,-0.0625,3.1875,50.0625,150.3750,33.0000,168.1875,0
1776971152.661,9.3925,-0.0024,2.3367,-0.0282,-0.0232,-0.0306,-92.4000,16.2000,-14.8500,9.7995,0.2298,0.0000,-0.0128,0.0392,-0.0216,-36.0000,30.4500,15.7500,5.4600,-1.6800,-8.0000,-0.0022,-0.0087,0.0000,-0.0625,3.1875,50.0625,150.3750,33.0000,168.1875,0
1776971152.670,9.3996,0.0814,2.3272,-0.0400,-0.0256,-0.0258,-91.5000,15.1500,-16.6500,9.7444,0.1580,0.0383,-0.0237,0.0410,-0.0296,-36.0000,30.4500,15.7500,5.4900,-1.6700,-8.0200,0.0000,-0.0087,-0.0022,-0.0625,3.1875,50.0625,150.3750,33.0000,168.1875,0
1776971152.680,9.4188,0.0144,2.3727,-0.0394,-0.0237,-0.0285,-92.7000,15.4500,-16.3500,9.7947,0.1796,0.0503,-0.0237,0.0274,-0.0250,-36.3000,30.3000,15.3000,5.5000,-1.6800,-8.0300,-0.0011,-0.0065,-0.0022,-0.0625,3.1875,50.0625,150.3750,33.0000,168.1875,0
1776971152.688,9.3781,0.0910,2.4038,-0.0432,-0.0211,-0.0258,-91.0500,14.4000,-15.9000,9.8138,0.1867,0.1006,-0.0370,0.0277,-0.0336,-36.3000,30.3000,15.3000,5.4900,-1.6800,-8.0200,-0.0033,-0.0109,-0.0033,-0.0625,3.1875,50.0625,150.3750,33.0000,168.1875,0
1776971152.693,9.3948,0.1101,2.3703,-0.0514,-0.0160,-0.0253,-91.0500,14.4000,-15.9000,9.7779,0.1796,-0.0311,-0.0384,0.0304,-0.0325,-36.3000,30.3000,15.3000,5.4900,-1.6800,-8.0200,-0.0033,-0.0109,-0.0033,-0.0625,3.1875,50.0625,150.3750,33.0000,168.1875,0
1776971152.701,9.3877,0.1580,2.3966,-0.0514,-0.0160,-0.0253,-91.0500,14.4000,-15.9000,9.7779,0.1796,-0.0311,-0.0384,0.0304,-0.0325,-35.1000,30.7500,14.8500,5.5000,-1.6900,-8.0100,-0.0022,-0.0131,-0.0011,-0.0625,3.1875,50.0625,150.3750,33.0000,168.1875,0
1776971152.706,9.3877,0.1580,2.3966,-0.0501,-0.0077,-0.0328,-90.3000,15.1500,-16.2000,9.8545,0.2322,0.0503,-0.0458,0.0192,-0.0365,-35.1000,30.7500,14.8500,5.5000,-1.6900,-8.0100,-0.0022,-0.0142,-0.0022,0.2500,3.8750,49.2500,150.3750,33.0000,168.1875,0
1776971152.711,9.4212,0.2107,2.3655,-0.0501,-0.0037,-0.0237,-90.3000,15.1500,-16.2000,9.8545,0.2322,0.0503,-0.0458,0.0192,-0.0365,-34.2000,30.4500,15.4500,5.4800,-1.6700,-8.0200,-0.0022,-0.0142,-0.0022,0.2500,3.8750,49.2500,150.3750,33.0000,168.1875,0
1776971152.720,9.3661,0.2227,2.2913,-0.0466,-0.0011,-0.0322,-90.3000,15.1500,-16.2000,9.7707,0.2370,-0.0527,-0.0477,0.0285,-0.0381,-35.4000,30.1500,15.0000,5.4800,-1.6900,-8.0400,-0.0044,-0.0131,-0.0033,0.2500,3.8750,49.2500,150.3750,33.0000,168.1875,0
1776971152.729,9.4403,0.2873,2.3080,-0.0466,-0.0011,-0.0322,-91.0500,14.8500,-16.6500,9.7659,0.2514,-0.0335,-0.0386,0.0266,-0.0389,-36.0000,30.1500,15.0000,5.4800,-1.6600,-8.0500,-0.0033,-0.0131,-0.0033,0.2500,3.8750,49.2500,150.3750,33.0000,168.1875,0
1776971152.734,9.4403,0.2873,2.3080,-0.0357,0.0059,-0.0285,-91.5000,15.9000,-15.4500,9.7851,0.3041,-0.0910,-0.0365,0.0232,-0.0453,-36.0000,30.9000,14.7000,5.4800,-1.6600,-8.0500,-0.0044,-0.0120,-0.0033,0.2500,3.8750,49.2500,150.3750,32.9375,168.2500,0
1776971152.741,9.3972,0.3041,2.2266,-0.0338,0.0085,-0.0277,-91.5000,15.9000,-15.4500,9.7803,0.2682,-0.1796,-0.0269,0.0216,-0.0472,-36.0000,30.9000,14.7000,5.4600,-1.6600,-8.0000,-0.0044,-0.0120,-0.0033,0.2500,3.8750,49.2500,150.3750,32.9375,168.2500,0
1776971152.751,9.4020,0.2873,2.2865,-0.0216,0.0120,-0.0298,-91.0500,14.4000,-15.9000,9.7372,0.3208,-0.1030,-0.0171,0.0245,-0.0456,-34.8000,30.0000,14.8500,5.4900,-1.6500,-8.0200,-0.0044,-0.0120,-0.0022,0.2500,3.8750,49.2500,150.3750,32.9375,168.2500,0
1776971152.756,9.4020,0.2873,2.2865,-0.0216,0.0120,-0.0298,-91.6500,16.2000,-15.6000,9.7372,0.3208,-0.1030,-0.0171,0.0245,-0.0456,-34.8000,30.0000,14.8500,5.4900,-1.6500,-8.0200,-0.0033,-0.0098,-0.0033,0.2500,3.5000,48.8750,150.3750,32.9375,168.2500,0
1776971152.761,9.4355,0.2394,2.2505,-0.0203,0.0051,-0.0346,-91.6500,16.2000,-15.6000,9.7420,0.3232,-0.1197,-0.0139,0.0213,-0.0477,-34.9500,30.4500,16.2000,5.4600,-1.6700,-8.0300,-0.0033,-0.0098,-0.0033,0.2500,3.5000,48.8750,150.3750,32.9375,168.2500,0
1776971152.771,9.4715,0.2658,2.2338,-0.0187,0.0125,-0.0288,-92.2500,16.3500,-15.9000,9.8641,0.3735,-0.2011,-0.0184,0.0216,-0.0466,-36.4500,30.1500,14.7000,5.4800,-1.6600,-8.0100,-0.0044,-0.0076,-0.0044,0.2500,3.5000,48.8750,150.3750,32.9375,168.2500,0
1776971152.780,9.4715,0.2658,2.2242,-0.0352,0.0133,-0.0261,-92.4000,15.0000,-16.8000,9.8067,0.3663,-0.0646,-0.0213,0.0221,-0.0448,-34.6500,30.4500,14.7000,5.4700,-1.6500,-8.0600,-0.0033,-0.0033,-0.0044,0.2500,3.5000,48.8750,150.3750,32.9375,168.2500,0
1776971152.789,9.4739,0.2921,2.2362,-0.0336,0.0155,-0.0288,-92.4000,15.0000,-16.8000,9.8067,0.3663,-0.0646,-0.0213,0.0221,-0.0448,-34.8000,29.5500,15.3000,5.4700,-1.6700,-8.0200,-0.0055,-0.0055,-0.0022,0.2500,3.5000,48.8750,150.3750,32.9375,168.2500,0
1776971152.794,9.4739,0.2921,2.2362,-0.0336,0.0155,-0.0288,-92.4000,15.0000,-16.8000,9.8210,0.3160,-0.1149,-0.0256,0.0216,-0.0437,-34.8000,29.5500,15.3000,5.4700,-1.6700,-8.0200,-0.0055,-0.0055,-0.0022,0.2500,3.5000,48.8750,150.3750,32.9375,168.2500,0
1776971152.801,9.4499,0.3328,2.2505,-0.0368,0.0176,-0.0357,-89.7000,15.7500,-16.0500,9.8641,0.4022,-0.1197,-0.0288,0.0272,-0.0520,-34.8000,29.5500,15.3000,5.4100,-1.6400,-8.0100,-0.0022,-0.0022,-0.0033,0.2500,3.5000,48.8750,150.3750,32.9375,168.2500,0
1776971152.806,9.4930,0.3041,2.2529,-0.0368,0.0176,-0.0357,-89.7000,15.7500,-16.0500,9.8641,0.4022,-0.1197,-0.0288,0.0272,-0.0520,-34.8000,29.5500,15.3000,5.4100,-1.6400,-8.0100,-0.0022,-0.0044,-0.0022,-0.0625,3.5000,48.5000,150.3750,32.9375,168.2500,0
1776971152.811,9.4930,0.3041,2.2529,-0.0466,0.0211,-0.0370,-89.7000,15.7500,-16.0500,9.8282,0.3687,-0.0503,-0.0349,0.0232,-0.0466,-35.4000,31.2000,14.7000,5.4500,-1.6400,-7.9900,-0.0022,-0.0044,-0.0022,-0.0625,3.5000,48.5000,150.3750,32.9375,168.2500,0
1776971152.821,9.4571,0.3496,2.2601,-0.0685,0.0195,-0.0400,-91.9500,15.0000,-17.8500,9.8689,0.4022,-0.0622,-0.0445,0.0149,-0.0432,-35.5500,29.2500,16.6500,5.4400,-1.6800,-8.0200,-0.0022,0.0044,-0.0022,-0.0625,3.5000,48.5000,150.3750,32.9375,168.2500,0
1776971152.830,9.4499,0.2945,2.3894,-0.0767,0.0349,-0.0354,-91.6500,14.5500,-17.1000,9.8641,0.3328,-0.1413,-0.0376,0.0035,-0.0424,-34.6500,30.9000,15.4500,5.3300,-1.6100,-8.0200,-0.0033,0.0087,-0.0011,-0.0625,3.5000,48.5000,150.3750,32.9375,168.2500,0
1776971152.838,9.4116,0.1867,2.4565,-0.0829,0.0322,-0.0424,-91.5000,15.9000,-14.7000,9.7755,0.2801,-0.0694,-0.0242,0.0075,-0.0453,-34.0500,30.7500,15.9000,5.4300,-1.6400,-8.0300,-0.0033,0.0153,-0.0011,-0.0625,3.5000,48.5000,150.3750,32.9375,168.2500,0
1776971152.843,9.4116,0.1867,2.4565,-0.0829,0.0322,-0.0424,-91.5000,15.9000,-14.7000,9.7755,0.2801,-0.0694,-0.0242,0.0075,-0.0453,-34.0500,30.7500,15.9000,5.4300,-1.6400,-8.0300,-0.0033,0.0153,-0.0011,-0.0625,3.5000,48.5000,150.3750,33.0000,168.1875,0
1776971152.851,9.3398,0.1963,2.5450,-0.0677,0.0344,-0.0376,-90.4500,15.0000,-15.6000,9.6869,0.2490,-0.0814,-0.0360,0.0149,-0.0544,-34.0500,30.7500,15.9000,5.5500,-1.6400,-8.0300,-0.0044,0.0371,-0.0011,-0.0625,3.5000,48.5000,150.3750,33.0000,168.1875,0
1776971152.856,9.3374,0.1676,2.5594,-0.0354,0.0370,-0.0376,-90.9000,15.0000,-15.6000,9.6869,0.2490,-0.0814,-0.0360,0.0149,-0.0544,-34.0500,30.7500,15.9000,5.5500,-1.6400,-8.0300,-0.0044,0.0371,-0.0011,-0.0625,3.5000,48.5000,150.3750,33.0000,168.1875,0
1776971152.861,9.3374,0.1676,2.5594,-0.0354,0.0370,-0.0376,-90.9000,15.0000,-15.6000,9.8378,0.3400,-0.1796,-0.0810,0.0075,-0.0621,-34.0500,30.7500,15.9000,5.5200,-1.6700,-8.0500,-0.0076,0.0404,-0.0011,-0.3750,3.5000,49.2500,150.3750,33.0000,168.1875,0
1776971152.866,9.3398,0.1293,2.5426,-0.0053,0.0413,-0.0338,-91.5000,15.9000,-16.2000,9.8378,0.3400,-0.1796,-0.0810,0.0075,-0.0621,-34.0500,30.7500,15.9000,5.5200,-1.6700,-8.0500,-0.0076,0.0404,-0.0011,-0.3750,3.5000,49.2500,150.3750,33.0000,168.1875,0
1776971152.871,9.3398,0.1293,2.5426,-0.0053,0.0413,-0.0338,-91.5000,15.9000,-16.2000,9.8067,0.3112,-0.6680,-0.2108,0.0096,-0.0887,-34.9500,31.2000,15.7500,5.5700,-1.6600,-8.0500,-0.0033,0.0207,0.0011,-0.3750,3.5000,49.2500,150.3750,33.0000,168.1875,0
1776971152.878,9.4691,0.1293,2.5283,0.0325,0.0317,-0.0250,-91.5000,15.9000,-16.2000,9.9288,0.4501,-0.6488,-0.3696,-0.0203,-0.1140,-34.9500,30.4500,15.7500,5.6200,-1.6500,-8.0800,-0.0055,0.0153,0.0000,-0.3750,3.5000,49.2500,150.3750,33.0000,168.1875,0
1776971152.883,9.5888,0.1030,2.4565,0.0325,0.0317,-0.0250,-91.5000,15.9000,-16.2000,9.9288,0.4501,-0.6488,-0.3696,-0.0203,-0.1140,-34.9500,30.4500,15.7500,5.6200,-1.6500,-8.0800,-0.0055,0.0153,0.0000,-0.3750,3.5000,49.2500,150.3750,33.0000,168.1875,0
1776971152.891,9.5888,0.1030,2.4565,0.0783,0.0261,-0.0264,-90.9000,15.0000,-16.3500,9.5840,0.5578,-0.5171,-0.4383,-0.0501,-0.1252,-35.5500,30.0000,16.6500,5.9300,-1.6900,-8.2300,-0.0142,0.0065,-0.0022,-0.3750,3.5000,49.2500,150.3750,33.0000,168.2500,0
1776971152.901,9.7875,0.1245,2.2553,0.1426,0.0013,-0.0237,-90.9000,15.0000,-16.3500,9.3733,0.4477,-0.4118,-0.2830,0.0040,-0.1015,-35.5500,31.0500,16.3500,6.0300,-1.7200,-8.2000,-0.0196,-0.0229,-0.0011,-0.3750,3.5000,49.2500,150.3750,33.0000,168.2500,0
1776971152.906,9.9240,0.2131,2.1021,0.2377,-0.0589,-0.0362,-92.4000,16.2000,-16.0500,9.7803,0.2801,-0.5411,-0.1990,0.0306,-0.0927,-35.5500,31.0500,16.3500,6.0300,-1.7200,-8.2000,-0.0196,-0.0229,-0.0011,-0.3750,3.5000,49.2500,150.3750,32.9375,168.2500,0
1776971152.911,9.9240,0.2131,2.1021,0.2377,-0.0589,-0.0362,-92.4000,16.2000,-16.0500,9.7803,0.2801,-0.5411,-0.1990,0.0306,-0.0927,-35.5500,31.0500,16.3500,5.5600,-1.7800,-8.0400,-0.0273,-0.1211,0.0033,0.6875,3.8750,49.2500,150.3750,32.9375,168.2500,0
1776971152.916,9.9431,0.3184,2.0087,0.3062,-0.0818,-0.0573,-91.5000,16.2000,-16.0500,9.8761,0.3687,-0.5531,-0.1564,0.0322,-0.1055,-35.5500,31.0500,16.3500,5.5600,-1.7800,-8.0400,-0.0273,-0.1211,0.0033,0.6875,3.8750,49.2500,150.3750,32.8125,168.3125,0
1776971152.921,9.9431,0.3184,2.0087,0.3062,-0.0818,-0.0573,-91.5000,16.3500,-16.2000,9.8761,0.3687,-0.5531,-0.1564,0.0322,-0.1055,-35.5500,30.7500,15.3000,5.4300,-1.6800,-8.1300,-0.0382,-0.2465,0.0000,0.6875,3.8750,49.2500,150.3750,32.8125,168.3125,0
1776971152.926,9.9359,0.2658,1.9465,0.3246,-0.0773,-0.0757,-91.0500,15.9000,-15.4500,9.8833,0.4166,-0.6009,-0.0719,0.0554,-0.0973,-35.5500,30.7500,15.3000,5.4300,-1.6800,-8.1300,-0.0338,-0.2574,-0.0131,0.6875,3.8750,49.2500,150.3125,32.6875,168.3125,0
1776971152.932,9.8689,0.3543,1.8387,0.3208,-0.0930,-0.1031,-91.0500,15.9000,-15.4500,9.8833,0.4166,-0.6009,-0.0719,0.0554,-0.0973,-34.9500,31.6500,15.4500,5.1500,-1.6100,-8.0500,-0.0338,-0.2574,-0.0131,0.6875,3.8750,49.2500,150.3125,32.5625,168.3750,0
1776971152.941,9.6774,0.3448,1.8483,0.3208,-0.0930,-0.1031,-91.9500,15.7500,-17.1000,9.6606,0.2562,-0.5722,-0.0453,0.0578,-0.0917,-35.1000,31.0500,16.3500,5.1900,-1.6900,-8.0500,-0.0513,-0.2073,-0.0251,0.6875,3.8750,49.2500,150.3125,32.5625,168.3750,0
1776971152.951,9.5744,0.2370,1.8555,0.2718,-0.0885,-0.1561,-90.9000,16.2000,-16.3500,9.6031,0.3184,-0.5076,-0.1130,0.0823,-0.0957,-35.5500,31.0500,15.9000,5.3400,-1.6000,-7.9900,-0.0556,-0.1298,-0.0382,0.6875,3.8750,49.2500,150.3125,32.5000,168.4375,0
1776971152.956,9.5744,0.2370,1.8555,0.2718,-0.0885,-0.1561,-90.9000,16.2000,-16.3500,9.5433,0.2538,-0.2753,-0.1215,0.0877,-0.1021,-34.6500,31.6500,16.2000,5.3400,-1.6000,-7.9900,-0.0556,-0.1298,-0.0382,0.6875,3.8750,49.2500,150.3125,32.5000,168.4375,0
1776971152.961,9.5170,0.2203,1.7909,0.2430,-0.0895,-0.1703,-91.8000,15.9000,-16.9500,9.5433,0.2538,-0.2753,-0.1215,0.0877,-0.1021,-34.6500,31.6500,16.2000,5.6800,-1.7000,-8.1500,-0.0425,-0.1014,-0.0273,-0.0625,3.1875,50.0625,150.3125,32.4375,168.5000,0
1776971152.966,9.5170,0.2203,1.7909,0.2430,-0.0895,-0.1703,-91.8000,15.9000,-16.9500,9.5385,0.3304,-0.3136,-0.0970,0.1106,-0.1130,-34.6500,31.6500,16.2000,5.6800,-1.7000,-8.1500,-0.0425,-0.1014,-0.0273,-0.0625,3.1875,50.0625,150.3125,32.4375,168.5000,0
1776971152.971,9.4236,0.2442,1.7837,0.2289,-0.0898,-0.1769,-91.8000,15.9000,-16.9500,9.5385,0.3304,-0.3136,-0.0970,0.1106,-0.1130,-34.6500,31.6500,16.2000,5.5600,-1.6100,-8.0700,-0.0425,-0.1014,-0.0273,-0.0625,3.1875,50.0625,150.2500,32.3750,168.5000,0
1776971152.976,9.4236,0.2442,1.7837,0.2289,-0.0898,-0.1769,-91.8000,15.9000,-16.9500,9.7157,0.2131,-0.1987,-0.0272,0.1250,-0.1226,-34.6500,31.6500,16.2000,5.5600,-1.6100,-8.0700,-0.0371,-0.1265,-0.0327,-0.0625,3.1875,50.0625,150.2500,32.3125,168.5625,0
1776971152.982,9.3398,0.1844,1.7238,0.2236,-0.0919,-0.1828,-91.2000,16.9500,-17.1000,9.7157,0.2131,-0.1987,-0.0272,0.1250,-0.1226,-37.0500,31.5000,16.6500,5.4300,-1.5500,-8.0900,-0.0371,-0.1265,-0.0327,-0.0625,3.1875,50.0625,150.2500,32.3125,168.5625,0
1776971152.991,9.2847,0.1030,1.7454,0.1676,-0.0906,-0.1769,-91.2000,16.9500,-17.1000,9.7612,0.2083,-0.0718,0.0461,0.1338,-0.1324,-35.1000,31.0500,15.9000,5.3100,-1.5500,-8.0300,-0.0273,-0.1462,-0.0295,-0.0625,3.1875,50.0625,150.2500,32.2500,168.6250,0
1776971152.996,9.2847,0.1030,1.7454,0.1676,-0.0906,-0.1769,-91.2000,16.9500,-17.1000,9.8689,0.2729,0.1245,0.1074,0.1226,-0.1404,-34.9500,31.9500,16.8000,5.3100,-1.5500,-8.0300,-0.0153,-0.1538,-0.0262,-0.0625,3.1875,50.0625,150.1875,32.1875,168.6250,0
1776971153.002,9.1315,-0.0287,1.8531,0.0818,-0.0877,-0.1519,-91.5000,16.3500,-18.0000,9.8689,0.2729,0.1245,0.1074,0.1226,-0.1404,-34.9500,31.9500,16.8000,5.1500,-1.6100,-8.0000,-0.0153,-0.1538,-0.0262,-0.0625,3.1875,50.0625,150.1875,32.1875,168.6250,0
1776971153.007,9.1315,-0.0287,1.8531,0.0818,-0.0877,-0.1519,-90.9000,16.9500,-16.0500,9.7827,0.2059,0.3280,0.1652,0.1116,-0.1500,-34.8000,32.2500,17.1000,5.1500,-1.6100,-8.0000,0.0011,-0.1025,-0.0175,0.6875,3.1875,49.6875,150.1875,32.1250,168.6250,0
1776971153.012,9.2991,-0.1101,1.9513,-0.0386,-0.0775,-0.1420,-90.9000,16.9500,-16.0500,9.7276,0.2466,0.2849,0.2244,0.1119,-0.1585,-34.8000,32.2500,17.1000,5.1800,-1.6900,-8.0500,0.0011,-0.1025,-0.0175,0.6875,3.1875,49.6875,150.1875,32.1250,168.6250,0
1776971153.017,9.2991,-0.1101,1.9513,-0.0386,-0.0775,-0.1420,-90.3000,15.9000,-16.2000,9.7276,0.2466,0.2849,0.2244,0.1119,-0.1585,-35.5500,31.0500,16.6500,5.1800,-1.6900,-8.0500,0.0033,-0.0589,-0.0153,0.6875,3.1875,49.6875,150.1875,32.1250,168.6250,0
1776971153.022,9.1363,-0.0263,2.0063,-0.1338,-0.0714,-0.1266,-90.3000,15.9000,-16.2000,9.9192,0.3759,0.3663,0.2390,0.1039,-0.1601,-35.5500,31.0500,16.6500,5.2000,-1.6400,-8.0100,0.0033,-0.0589,-0.0153,0.6875,3.1875,49.6875,150.1875,32.0625,168.6875,0
1776971153.031,9.2296,-0.0215,2.2458,-0.2025,-0.0751,-0.1231,-91.0500,17.1000,-17.7000,9.9192,0.3759,0.3663,0.2049,0.0919,-0.1708,-35.5500,31.0500,16.6500,5.3200,-1.5800,-8.0900,0.0065,-0.0469,-0.0109,0.6875,3.1875,49.6875,150.1875,32.0625,168.6875,0
1776971153.041,9.3302,0.0766,2.2362,-0.2467,-0.0669,-0.1148,-91.5000,16.3500,-16.9500,9.8186,0.5770,0.2298,0.1314,0.1092,-0.1716,-34.6500,33.4500,17.5500,5.4800,-1.7500,-8.2100,0.0109,-0.0567,-0.0087,0.6875,3.1875,49.6875,150.1875,32.0625,168.6875,0
1776971153.051,9.4284,0.3448,2.3200,-0.2348,-0.0514,-0.1039,-90.1500,17.4000,-16.0500,9.6367,0.4094,-0.0215,0.0911,0.1210,-0.1623,-34.8000,32.2500,17.1000,5.7200,-1.8300,-8.3500,-0.0098,-0.0764,-0.0218,0.6875,3.1875,49.6875,150.1875,32.0000,168.6875,0
1776971153.056,9.4786,0.6967,2.1979,-0.2348,-0.0514,-0.1039,-90.1500,17.4000,-16.0500,9.6367,0.4094,-0.0215,0.0911,0.1210,-0.1623,-34.5000,31.8000,16.3500,5.7200,-1.8300,-8.3500,-0.0098,-0.0764,-0.0218,0.6875,3.1875,49.6875,150.1250,31.9375,168.7500,0
1776971153.061,9.4786,0.6967,2.1979,-0.1719,-0.0344,-0.0943,-90.1500,17.4000,-16.0500,9.7827,0.1939,-0.0215,0.0477,0.1466,-0.1583,-34.5000,31.8000,16.3500,5.7600,-1.5800,-8.2200,-0.0425,-0.1298,-0.0491,0.5625,3.1875,49.6875,150.1250,31.9375,168.7500,0
1776971153.066,9.6007,0.9218,2.0830,-0.1719,-0.0344,-0.0943,-90.1500,17.4000,-16.0500,9.7827,0.1939,-0.0215,0.0477,0.1466,-0.1583,-35.1000,32.2500,15.6000,5.7600,-1.5800,-8.2200,-0.0425,-0.1298,-0.0491,0.5625,3.1875,49.6875,150.1250,31.8125,168.8125,0
1776971153.071,9.6007,0.9218,2.0830,-0.1188,-0.0131,-0.1047,-92.2500,17.1000,-16.2000,9.8234,0.2203,-0.1293,0.0301,0.1543,-0.1628,-35.1000,32.2500,15.6000,5.5000,-1.5700,-8.1400,-0.0600,-0.2258,-0.0524,0.5625,3.1875,49.6875,150.1250,31.8125,168.8125,0
1776971153.078,9.4308,1.0439,1.9154,-0.1002,0.0117,-0.1130,-91.0500,17.1000,-17.4000,9.8234,0.2203,-0.1293,0.0301,0.1543,-0.1628,-35.1000,32.2500,15.6000,5.2000,-1.5500,-8.1100,-0.0535,-0.2651,-0.0545,0.5625,3.1875,49.6875,150.0625,31.6875,168.8750,0
1776971153.082,9.4308,1.0439,1.9154,-0.1002,0.0117,-0.1130,-91.0500,17.1000,-17.4000,9.6702,0.3926,-0.1125,-0.0093,0.1607,-0.1660,-35.1000,32.2500,15.6000,5.2000,-1.5500,-8.1100,-0.0535,-0.2651,-0.0545,0.5625,3.1875,49.6875,150.0625,31.5625,168.9375,0
1776971153.091,9.4092,1.0199,1.9130,-0.1140,0.0381,-0.1090,-91.8000,17.1000,-16.6500,9.6630,0.6416,-0.1820,-0.0093,0.1617,-0.1711,-35.1000,32.2500,15.6000,5.0400,-1.5600,-8.0800,-0.0513,-0.2280,-0.0535,0.5625,3.1875,49.6875,150.0000,31.5000,169.0000,0
1776971153.101,9.3829,1.0127,1.9680,-0.1031,0.0586,-0.0879,-90.6000,17.1000,-17.7000,9.6271,0.8691,-0.5004,-0.0117,0.1719,-0.1823,-33.0000,31.0500,17.4000,5.0800,-1.6300,-8.0700,-0.0524,-0.1811,-0.0491,0.5625,3.1875,49.6875,150.0000,31.5000,169.0000,0
1776971153.106,9.4643,0.9673,2.0303,-0.0677,0.0648,-0.0717,-90.6000,17.1000,-17.7000,9.6271,0.8691,-0.5004,-0.0117,0.1719,-0.1823,-33.9000,32.4000,17.2500,5.0800,-1.6300,-8.0700,-0.0524,-0.1811,-0.0491,0.5625,3.1875,49.6875,150.0000,31.5000,169.0000,0
1776971153.111,9.4643,0.9673,2.0303,-0.0677,0.0648,-0.0717,-91.0500,18.7500,-15.9000,9.5481,0.9194,-0.5339,0.0560,0.1836,-0.1940,-33.9000,32.4000,17.2500,5.2600,-1.5800,-8.2000,-0.0567,-0.1396,-0.0502,0.6875,2.7500,50.0625,150.0000,31.3750,169.0625,0
1776971153.116,9.5409,0.7805,1.9968,0.0328,0.0482,-0.0485,-91.0500,18.7500,-15.9000,9.5481,0.9194,-0.5339,0.0560,0.1836,-0.1940,-36.4500,31.9500,16.2000,5.2600,-1.5800,-8.2000,-0.0567,-0.1396,-0.0502,0.6875,2.7500,50.0625,150.0000,31.3750,169.0625,0
1776971153.121,9.5409,0.7805,1.9968,0.0328,0.0482,-0.0485,-89.8500,18.0000,-16.9500,9.5098,0.5842,-0.5124,0.2020,0.2006,-0.2028,-36.4500,31.9500,16.2000,5.6000,-1.5800,-8.3500,-0.0796,-0.1385,-0.0578,0.6875,2.7500,50.0625,149.9375,31.3125,169.1250,0
1776971153.126,9.5074,0.6680,1.9585,0.1607,0.0333,-0.0400,-89.8500,18.0000,-16.9500,9.5098,0.5842,-0.5124,0.2020,0.2006,-0.2028,-35.7000,33.4500,16.8000,5.6000,-1.5800,-8.3500,-0.1069,-0.1713,-0.0785,0.6875,2.7500,50.0625,149.9375,31.2500,169.1875,0
1776971153.132,9.5074,0.6680,1.9585,0.1607,0.0333,-0.0400,-89.8500,18.0000,-16.9500,9.6367,0.0455,-0.2562,0.3528,0.2126,-0.2204,-35.7000,33.4500,16.8000,5.3100,-1.1700,-8.2600,-0.1069,-0.1713,-0.0785,0.6875,2.7500,50.0625,149.8750,31.1875,169.3125,0
1776971153.141,9.3518,0.5195,1.8914,0.2638,0.0669,-0.0304,-90.9000,16.5000,-16.3500,9.7564,-0.2897,-0.0766,0.4005,0.2065,-0.2457,-35.7000,33.4500,16.8000,4.8200,-0.4300,-8.1500,-0.0731,-0.1713,-0.0993,0.6875,2.7500,50.0625,149.8750,31.1875,169.3125,0
1776971153.151,9.0142,0.1293,1.9824,0.2875,0.1343,-0.0099,-90.9000,16.5000,-16.3500,9.6055,-0.3519,0.5219,0.4191,0.1935,-0.2558,-34.9500,32.7000,18.3000,4.9600,-2.1100,-7.3900,-0.0774,-0.2247,-0.0971,0.6875,2.7500,50.0625,149.8125,31.0625,169.3750,0
1776971153.156,8.6838,-0.3591,2.0542,0.3432,0.1974,0.0109,-90.9000,16.5000,-16.3500,9.6055,-0.3519,0.5219,0.4191,0.1935,-0.2558,-35.1000,31.5000,16.3500,4.9600,-2.1100,-7.3900,-0.0774,-0.2247,-0.0971,0.6875,2.7500,50.0625,149.7500,31.0000,169.4375,0
1776971153.161,8.7676,-0.4238,2.4181,0.3432,0.1974,0.0109,-90.9000,16.9500,-16.0500,9.5936,0.3615,0.8739,0.3738,0.1743,-0.2814,-35.1000,31.5000,16.3500,4.9800,-1.7300,-8.2600,-0.0622,-0.1473,-0.0982,1.6875,3.8750,50.0625,149.7500,31.0000,169.4375,0
1776971153.166,8.7676,-0.4238,2.4181,0.4301,0.2790,0.0554,-90.9000,16.9500,-16.0500,9.5936,0.3615,0.8739,0.3738,0.1743,-0.2814,-35.1000,33.7500,17.1000,4.9800,-1.7300,-8.2600,-0.0622,-0.1473,-0.0982,1.6875,3.8750,50.0625,149.6875,30.9375,169.5625,0
1776971153.171,8.8969,-0.0479,3.0382,0.4301,0.2790,0.0554,-91.2000,17.4000,-16.0500,9.7731,0.8595,1.0056,0.4410,0.1564,-0.3126,-35.1000,33.7500,17.1000,5.1700,-1.4000,-8.0500,-0.0764,-0.0545,-0.1189,1.6875,3.8750,50.0625,149.6875,30.9375,169.5625,0
1776971153.179,8.8969,-0.0479,3.0382,0.5164,0.3435,0.1013,-92.2500,17.5500,-17.4000,9.9288,1.0319,1.0894,0.6041,0.1087,-0.3357,-35.7000,33.1500,18.6000,5.3900,-1.5900,-8.3100,-0.0676,-0.0993,-0.1047,1.6875,3.8750,50.0625,149.6250,30.9375,169.6250,0
1776971153.184,9.0884,0.2418,3.6679,0.6350,0.3722,0.1228,-92.2500,17.5500,-17.4000,9.9288,1.0319,1.0894,0.6041,0.1087,-0.3357,-35.7000,33.4500,16.5000,5.3900,-1.5900,-8.3100,-0.0676,-0.0993,-0.1047,1.6875,3.8750,50.0625,149.6250,30.8750,169.6875,0
1776971153.192,9.3230,0.7111,4.2904,0.7133,0.3864,0.1292,-91.8000,18.0000,-16.6500,9.9886,1.1636,1.1947,0.7706,0.0538,-0.3536,-35.7000,33.4500,16.5000,5.3600,-1.5300,-8.2800,-0.0654,-0.1342,-0.1004,1.6875,3.8750,50.0625,149.5625,30.7500,169.7500,0
1776971153.202,9.6031,1.1995,4.5083,0.8255,0.3789,0.1092,-89.7000,17.4000,-17.5500,10.1155,1.2450,1.0391,0.7967,0.0093,-0.3667,-35.1000,33.4500,16.5000,5.1100,-1.8300,-8.3600,-0.0589,-0.1767,-0.1014,1.6875,3.8750,50.0625,149.5625,30.7500,169.7500,0
1776971153.207,9.6031,1.1995,4.5083,0.8255,0.3789,0.1092,-89.7000,17.4000,-17.5500,10.0844,1.4174,0.8021,0.7578,-0.0101,-0.3472,-35.1000,33.0000,16.6500,5.1100,-1.8300,-8.3600,-0.0589,-0.1767,-0.1014,1.6875,3.8750,50.0625,149.5000,30.6875,169.8750,0
1776971153.212,9.8186,1.6281,4.2234,0.9198,0.2936,0.0818,-90.6000,17.1000,-17.4000,10.0844,1.4174,0.8021,0.7578,-0.0101,-0.3472,-35.5500,32.5500,15.9000,5.2300,-1.9100,-8.4200,-0.0578,-0.1909,-0.1025,0.1875,3.1875,50.0625,149.5000,30.6875,169.8750,0
1776971153.216,9.8186,1.6281,4.2234,0.9198,0.2936,0.0818,-90.6000,17.1000,-17.4000,9.9695,1.5778,0.5698,0.6736,-0.0285,-0.3048,-35.5500,32.5500,15.9000,5.2300,-1.9100,-8.4200,-0.0578,-0.1909,-0.1025,0.1875,3.1875,50.0625,149.4375,30.6250,169.9375,0
1776971153.222,9.7731,1.7406,3.7589,0.9643,0.2590,0.0418,-90.6000,17.1000,-17.4000,9.9695,1.5778,0.5698,0.6736,-0.0285,-0.3048,-34.5000,31.8000,17.7000,5.2000,-1.5400,-8.3600,-0.0785,-0.1549,-0.1134,0.1875,3.1875,50.0625,149.4375,30.6250,169.9375,0
1776971153.226,9.7731,1.7406,3.7589,0.9643,0.2590,0.0418,-90.6000,17.1000,-17.4000,9.9168,1.5060,0.3280,0.5129,-0.0349,-0.2627,-34.5000,31.8000,17.7000,5.2000,-1.5400,-8.3600,-0.0971,-0.1396,-0.1113,0.1875,3.1875,50.0625,149.3750,30.5625,170.0625,0
1776971153.233,9.8952,1.5850,2.7988,0.8679,0.2427,-0.0125,-92.4000,17.4000,-18.6000,9.9168,1.5060,0.3280,0.5129,-0.0349,-0.2627,-34.2000,32.7000,16.2000,5.0500,-1.7100,-8.3500,-0.0971,-0.1396,-0.1113,0.1875,3.1875,50.0625,149.3750,30.5625,170.0625,0
1776971153.241,9.7683,1.7047,1.6999,0.5809,0.2174,-0.0562,-92.4000,17.4000,-18.6000,9.5361,1.3096,-0.0335,0.3011,-0.0301,-0.2233,-34.5000,33.0000,15.6000,5.0000,-1.7300,-8.3200,-0.0818,-0.1429,-0.0960,0.1875,3.1875,50.0625,149.3125,30.5000,170.1250,0
1776971153.246,9.7683,1.7047,1.6999,0.5809,0.2174,-0.0562,-92.4000,17.4000,-18.6000,9.3589,1.1564,-0.5124,0.0288,-0.0080,-0.1935,-34.5000,33.0000,15.6000,5.0000,-1.7300,-8.3200,-0.0687,-0.1254,-0.0818,0.1875,3.1875,50.0625,149.3125,30.4375,170.1875,0
1776971153.252,9.6702,1.4174,0.7685,0.2332,0.2078,-0.1069,-91.6500,17.7000,-16.8000,9.3589,1.1564,-0.5124,0.0288,-0.0080,-0.1935,-34.5000,33.0000,15.6000,5.0200,-1.7100,-8.2800,-0.0687,-0.1254,-0.0818,0.1875,3.1875,50.0625,149.3125,30.4375,170.1875,0
1776971153.257,9.6343,1.0056,-0.0335,0.2332,0.2078,-0.1069,-91.6500,17.7000,-16.8000,9.6031,1.4341,-0.7638,-0.2883,0.0357,-0.1553,-34.5000,33.0000,15.6000,5.0200,-1.7100,-8.2800,-0.0611,-0.1025,-0.0545,1.7500,2.7500,50.5000,149.2500,30.3750,170.1875,0
1776971153.262,9.6343,1.0056,-0.0335,-0.1522,0.1935,-0.1476,-91.2000,16.9500,-17.8500,9.6031,1.4341,-0.7638,-0.2883,0.0357,-0.1553,-33.7500,34.5000,14.2500,4.9000,-1.3800,-8.1300,-0.0611,-0.1025,-0.0545,1.7500,2.7500,50.5000,149.2500,30.3750,170.1875,0
1776971153.267,9.8713,0.3136,-0.5291,-0.1522,0.1935,-0.1476,-91.2000,16.9500,-17.8500,9.6271,1.8579,-1.0487,-0.5316,0.0791,-0.1204,-33.7500,34.5000,14.2500,4.9000,-1.3800,-8.1300,-0.0382,-0.1047,-0.0273,1.7500,2.7500,50.5000,149.2500,30.3125,170.2500,0
1776971153.272,9.8713,0.3136,-0.5291,-0.5036,0.1463,-0.1756,-91.6500,18.9000,-16.8000,9.6271,1.8579,-1.0487,-0.5316,0.0791,-0.1204,-33.9000,33.9000,16.8000,4.8600,-1.3900,-8.1900,-0.0382,-0.1047,-0.0273,1.7500,2.7500,50.5000,149.2500,30.3125,170.2500,0
1776971153.277,10.1466,0.3567,-0.4022,-0.5036,0.1463,-0.1756,-91.6500,18.9000,-16.8000,9.7923,2.2841,-1.3551,-0.6238,0.1178,-0.0813,-33.9000,33.9000,16.8000,4.8600,-1.3900,-8.1900,-0.0185,-0.0796,-0.0087,1.7500,2.7500,50.5000,149.2500,30.2500,170.2500,0
1776971153.283,10.1466,0.3567,-0.4022,-0.7879,0.0573,-0.1889,-90.4500,16.2000,-16.3500,9.8330,2.5067,-1.6616,-0.6339,0.1471,-0.0290,-33.9000,33.9000,14.4000,4.8800,-1.5300,-8.2900,-0.0185,-0.0796,-0.0087,1.7500,2.7500,50.5000,149.2500,30.2500,170.2500,0
1776971153.292,10.3621,0.5914,-0.1700,-0.9872,-0.0597,-0.2049,-91.5000,17.1000,-16.2000,9.8330,2.5067,-1.6616,-0.6339,0.1471,-0.0290,-34.5000,34.8000,16.6500,4.8900,-1.4900,-8.2700,-0.0109,-0.0338,-0.0011,1.7500,2.7500,50.5000,149.2500,30.2500,170.2500,0
1776971153.297,10.3597,0.8619,0.1077,-1.1266,-0.1615,-0.2441,-91.5000,17.1000,-16.2000,9.6510,2.3894,-1.7861,-0.6110,0.1788,0.0016,-34.5000,34.8000,16.6500,4.8900,-1.4900,-8.2700,-0.0109,-0.0076,0.0055,1.7500,2.7500,50.5000,149.2500,30.2500,170.2500,0
1776971153.303,10.3597,0.8619,0.1077,-1.1266,-0.1615,-0.2441,-91.0500,18.7500,-17.4000,9.4379,1.9680,-1.6472,-0.5907,0.2212,0.0298,-34.5000,34.8000,16.6500,4.8200,-1.4700,-8.3100,-0.0109,-0.0076,0.0055,1.7500,2.7500,50.5000,149.2500,30.2500,170.2500,0
1776971153.307,10.2280,0.9912,0.4621,-1.2164,-0.2254,-0.2899,-91.0500,18.7500,-17.4000,9.4379,1.9680,-1.6472,-0.5907,0.2212,0.0298,-34.5000,34.8000,16.6500,4.8200,-1.4700,-8.3100,-0.0109,-0.0076,0.0055,1.7500,2.7500,50.5000,149.2500,30.2500,170.2500,0
1776971153.312,10.2280,0.9912,0.4621,-1.2164,-0.2254,-0.2899,-91.0500,18.7500,-17.4000,9.4236,1.6376,-1.3264,-0.6102,0.2561,0.0541,-34.5000,34.0500,16.6500,4.8800,-1.4800,-8.3100,-0.0153,0.0382,0.0011,1.6875,2.7500,49.6875,149.2500,30.2500,170.2500,0
1776971153.317,9.9790,1.4820,0.8763,-1.2452,-0.2425,-0.3248,-91.0500,18.7500,-17.4000,9.4236,1.6376,-1.3264,-0.6102,0.2561,0.0541,-34.5000,34.0500,16.6500,4.8800,-1.4800,-8.3100,-0.0153,0.0382,0.0011,1.6875,2.7500,49.6875,149.2500,30.3125,170.3125,0
1776971153.322,9.9790,1.4820,0.8763,-1.2452,-0.2425,-0.3248,-91.8000,18.3000,-15.9000,9.4308,1.5155,-0.9529,-0.6480,0.2955,0.0677,-36.3000,32.2500,16.6500,4.9000,-1.5300,-8.2800,-0.0327,0.0905,-0.0011,1.6875,2.7500,49.6875,149.2500,30.3125,170.3125,0
1776971153.327,9.4978,1.7310,1.2067,-1.2268,-0.2113,-0.3344,-91.8000,18.3000,-15.9000,9.4308,1.5155,-0.9529,-0.6480,0.2955,0.0677,-36.3000,32.2500,16.6500,4.9000,-1.5300,-8.2800,-0.0447,0.1320,-0.0022,1.6875,2.7500,49.6875,149.3125,30.3750,170.3125,0
1776971153.333,9.4978,1.7310,1.2067,-1.2268,-0.2113,-0.3344,-91.8000,18.3000,-15.9000,9.5050,1.4605,-0.3903,-0.6885,0.3317,0.0847,-34.6500,34.6500,15.7500,4.9600,-1.5300,-8.3100,-0.0447,0.1320,-0.0022,1.6875,2.7500,49.6875,149.3125,30.3750,170.3125,0
1776971153.342,9.4451,2.0016,1.8962,-1.1652,-0.2046,-0.3384,-91.2000,18.4500,-16.8000,9.6055,1.5754,-0.0024,-0.6925,0.3656,0.0986,-34.5000,35.2500,18.4500,5.0500,-1.4900,-8.2600,-0.0491,0.1636,-0.0055,1.6875,2.7500,49.6875,149.3125,30.5000,170.3125,0
1776971153.346,9.1866,2.0997,2.4469,-1.0781,-0.1767,-0.3312,-91.2000,18.4500,-16.8000,9.6055,1.5754,-0.0024,-0.6925,0.3656,0.0986,-34.5000,35.2500,18.4500,5.0500,-1.4900,-8.2600,-0.0469,0.1854,-0.0055,1.6875,2.7500,49.6875,149.3125,30.5625,170.3125,0
1776971153.353,9.1866,2.0997,2.4469,-1.0781,-0.1767,-0.3312,-90.3000,17.5500,-15.9000,9.5984,1.4700,0.2753,-0.6467,0.3762,0.1116,-33.7500,34.0500,15.9000,5.0800,-1.4100,-8.2300,-0.0469,0.1854,-0.0055,1.6875,2.7500,49.6875,149.3125,30.5625,170.3125,0
1776971153.358,8.9040,2.1739,3.0454,-0.9870,-0.1623,-0.3014,-90.3000,17.5500,-15.9000,9.5984,1.4700,0.2753,-0.6467,0.3762,0.1116,-33.7500,34.0500,15.9000,5.0800,-1.4100,-8.2300,-0.0273,0.1756,-0.0011,2.0625,2.3750,50.0625,149.3125,30.6875,170.3125,0
1776971153.363,8.9040,2.1739,3.0454,-0.9870,-0.1623,-0.3014,-89.8500,17.1000,-16.6500,9.5888,1.3695,0.4980,-0.5756,0.3741,0.1156,-33.7500,34.0500,15.9000,5.1400,-1.3900,-8.2000,-0.0273,0.1756,-0.0011,2.0625,2.3750,50.0625,149.3125,30.6875,170.3125,0
1776971153.368,8.8155,2.1141,3.3088,-0.8820,-0.1255,-0.2638,-89.8500,17.1000,-16.6500,9.5888,1.3695,0.4980,-0.5756,0.3741,0.1156,-33.7500,34.0500,15.9000,5.1400,-1.3900,-8.2000,-0.0087,0.1745,0.0120,2.0625,2.3750,50.0625,149.3125,30.7500,170.3125,0
1776971153.373,8.7963,2.0016,3.3902,-0.8820,-0.1255,-0.2638,-91.2000,18.9000,-15.3000,9.6391,1.2689,0.6321,-0.5177,0.3720,0.1031,-34.5000,34.0500,18.7500,5.2100,-1.3700,-8.2500,-0.0087,0.1745,0.0120,2.0625,2.3750,50.0625,149.3125,30.7500,170.3125,0
1776971153.378,8.7963,2.0016,3.3902,-0.7416,-0.0743,-0.2110,-91.2000,18.9000,-15.3000,9.6391,1.2689,0.6321,-0.5177,0.3720,0.1031,-34.5000,34.0500,18.7500,5.2100,-1.3700,-8.2500,-0.0022,0.1778,0.0142,2.0625,2.3750,50.0625,149.3750,30.8750,170.3125,0
1776971153.383,8.7963,1.8699,3.2034,-0.7416,-0.0743,-0.2110,-92.2500,18.0000,-15.1500,9.6127,0.9816,0.7302,-0.4098,0.3579,0.0949,-34.5000,32.5500,18.1500,5.2500,-1.3000,-8.2200,-0.0022,0.1778,0.0142,2.0625,2.3750,50.0625,149.3750,30.8750,170.3125,0
1776971153.392,8.7556,1.5131,2.9808,-0.5713,-0.0136,-0.1609,-90.3000,19.0500,-14.4000,9.5577,0.8045,0.8045,-0.3443,0.3659,0.0871,-35.5500,34.5000,20.5500,5.3400,-1.4400,-8.3100,-0.0109,0.1756,0.0065,2.0625,2.3750,50.0625,149.3750,31.0000,170.3125,0
1776971153.397,8.7556,1.5131,2.9808,-0.3909,0.0493,-0.1186,-90.3000,19.0500,-14.4000,9.5577,0.8045,0.8045,-0.3443,0.3659,0.0871,-35.5500,34.5000,20.5500,5.3400,-1.4400,-8.3100,-0.0175,0.1593,-0.0011,2.0625,2.3750,50.0625,149.3750,31.0625,170.3125,0
1776971153.403,8.8035,1.2186,2.7749,-0.2593,0.1090,-0.0829,-90.3000,19.0500,-14.4000,9.7037,0.7470,0.8356,-0.2984,0.3563,0.0778,-36.3000,35.5500,19.5000,5.3600,-1.5800,-8.3000,-0.0175,0.1593,-0.0011,2.0625,2.3750,50.0625,149.3750,31.0625,170.3125,0
1776971153.408,8.8035,1.2186,2.7749,-0.2593,0.1090,-0.0829,-90.3000,19.0500,-14.4000,9.7037,0.7470,0.8356,-0.2984,0.3563,0.0778,-34.5000,34.5000,18.4500,5.3400,-1.4700,-8.2600,-0.0153,0.1233,-0.0055,1.2500,1.3750,50.8750,149.3750,31.1250,170.3125,0
1776971153.413,8.8585,0.8571,2.5881,-0.1751,0.1522,-0.0528,-90.1500,18.9000,-14.2500,9.6654,0.8284,0.9481,-0.2566,0.3456,0.0658,-34.5000,34.5000,18.4500,5.3400,-1.4700,-8.2600,-0.0153,0.1233,-0.0055,1.2500,1.3750,50.8750,149.3750,31.1250,170.3125,0
1776971153.418,8.8585,0.8571,2.5881,-0.1751,0.1522,-0.0528,-90.1500,18.9000,-14.2500,9.6654,0.8284,0.9481,-0.2566,0.3456,0.0658,-34.5000,34.5000,18.4500,5.3400,-1.4700,-8.2600,-0.0131,0.1004,-0.0022,1.2500,1.3750,50.8750,149.3750,31.1875,170.3125,0
1776971153.423,8.9328,0.6632,2.5546,-0.1242,0.1980,-0.0288,-90.1500,18.9000,-14.2500,9.6941,0.8978,0.9673,-0.1889,0.3357,0.0557,-34.5000,34.5000,18.4500,5.3500,-1.4700,-8.2500,-0.0131,0.1004,-0.0022,1.2500,1.3750,50.8750,149.3750,31.2500,170.3125,0
1776971153.432,8.9184,0.4693,2.5019,-0.1092,0.2204,-0.0080,-89.7000,18.1500,-15.3000,9.8354,0.7853,1.0008,-0.1005,0.3216,0.0464,-34.8000,32.5500,19.2000,5.2600,-1.3800,-8.1400,-0.0055,0.0851,-0.0022,1.2500,1.3750,50.8750,149.3750,31.2500,170.3125,0
1776971153.438,8.9184,0.4693,2.5019,-0.1092,0.2204,-0.0080,-89.7000,18.1500,-15.3000,9.7995,0.5938,1.0367,-0.0474,0.3067,0.0365,-34.9500,33.9000,20.1000,5.2600,-1.3800,-8.1400,0.0033,0.0764,0.0022,1.2500,1.3750,50.8750,149.3750,31.3125,170.3125,0
1776971153.443,8.9687,0.2921,2.4708,-0.1484,0.2521,0.0176,-89.4000,20.1000,-13.5000,9.7995,0.5938,1.0367,-0.0474,0.3067,0.0365,-34.9500,33.9000,20.1000,5.2800,-1.3400,-8.1400,0.0033,0.0764,0.0022,1.2500,1.3750,50.8750,149.3750,31.3750,170.3125,0
1776971153.452,9.0692,0.1173,2.4876,-0.1988,0.2707,0.0400,-90.9000,17.7000,-14.2500,9.8545,0.4980,1.0367,-0.0474,0.2982,0.0365,-33.9000,33.9000,19.3500,5.2300,-1.3700,-8.1000,0.0055,0.0818,0.0011,1.2500,1.3750,50.8750,149.3750,31.3750,170.3125,0
1776971153.457,9.0692,0.1173,2.4876,-0.1988,0.2707,0.0400,-90.9000,17.7000,-14.2500,9.8474,0.4597,1.0582,-0.0853,0.2955,0.0328,-32.5500,34.5000,20.2500,5.2300,-1.3700,-8.1000,0.0055,0.0818,0.0011,1.2500,1.3750,50.8750,149.3750,31.4375,170.2500,0
1776971153.462,9.1171,0.0862,2.4421,-0.2593,0.2864,0.0589,-91.0500,19.0500,-13.9500,9.8474,0.4597,1.0582,-0.0853,0.2955,0.0328,-32.5500,34.5000,20.2500,5.3300,-1.5300,-8.2000,0.0044,0.0927,-0.0011,1.6875,2.3750,50.0625,149.3750,31.4375,170.2500,0
1776971153.467,9.1171,0.0862,2.4421,-0.2593,0.2864,0.0589,-91.0500,19.0500,-13.9500,9.7612,0.5626,0.8763,-0.1676,0.2883,0.0373,-32.5500,34.5000,20.2500,5.3300,-1.5300,-8.2000,0.0044,0.0927,-0.0011,1.6875,2.3750,50.0625,149.3750,31.4375,170.2500,0
1776971153.472,9.1602,0.2586,2.2697,-0.3275,0.3011,0.0730,-90.3000,17.5500,-12.1500,9.7612,0.5626,0.8763,-0.1676,0.2883,0.0373,-32.5500,34.5000,20.2500,5.2500,-1.5400,-8.1400,-0.0011,0.0949,-0.0044,1.6875,2.3750,50.0625,149.4375,31.5000,170.2500,0
1776971153.477,9.1602,0.2586,2.2697,-0.3275,0.3011,0.0730,-90.3000,17.5500,-12.1500,9.8330,0.7781,0.7398,-0.2457,0.2902,0.0352,-32.5500,34.5000,20.2500,5.2500,-1.5400,-8.1400,-0.0011,0.1004,-0.0065,1.6875,2.3750,50.0625,149.4375,31.5625,170.2500,0
1776971153.483,9.2608,0.4693,2.1069,-0.3944,0.3285,0.0903,-90.1500,19.3500,-13.8000,9.8330,0.7781,0.7398,-0.2457,0.2902,0.0352,-32.5500,34.5000,20.2500,5.2700,-1.4700,-8.1300,-0.0011,0.1004,-0.0065,1.6875,2.3750,50.0625,149.4375,31.5625,170.2500,0
1776971153.492,9.4044,0.7422,2.0279,-0.4325,0.3435,0.0933,-90.1500,19.3500,-13.8000,9.6917,0.8811,0.4764,-0.2928,0.2886,0.0402,-35.8500,34.5000,20.2500,5.2500,-1.4900,-8.1600,-0.0033,0.0971,-0.0065,1.6875,2.3750,50.0625,149.4375,31.6250,170.2500,0
1776971153.497,9.4044,0.7422,2.0279,-0.4325,0.3435,0.0933,-90.1500,19.3500,-13.8000,9.5720,1.0487,0.1772,-0.3403,0.3019,0.0498,-35.1000,34.8000,20.2500,5.2500,-1.4900,-8.1600,-0.0098,0.0873,-0.0033,1.6875,2.3750,50.0625,149.4375,31.6875,170.2500,0
1776971153.503,9.4691,1.0822,1.9321,-0.4714,0.3389,0.0946,-90.4500,19.6500,-13.8000,9.5720,1.0487,0.1772,-0.3403,0.3019,0.0498,-35.1000,34.8000,20.2500,5.3000,-1.6200,-8.1700,-0.0098,0.0873,-0.0033,1.6875,2.3750,50.0625,149.4375,31.6875,170.2500,0
1776971153.508,9.5050,1.2857,1.7693,-0.4714,0.3389,0.0946,-90.4500,19.6500,-13.8000,9.5481,1.2737,0.0622,-0.3880,0.3224,0.0626,-35.8500,33.7500,20.5500,5.3000,-1.6200,-8.1700,-0.0131,0.1047,-0.0022,1.2500,2.3750,49.6875,149.4375,31.7500,170.2500,0
1776971153.513,9.5050,1.2857,1.7693,-0.4900,0.3291,0.0850,-90.4500,19.6500,-13.8000,9.5481,1.2737,0.0622,-0.3880,0.3224,0.0626,-35.8500,33.7500,20.5500,5.3200,-1.5200,-8.1700,-0.0131,0.1047,-0.0022,1.2500,2.3750,49.6875,149.4375,31.7500,170.2500,0
1776971153.518,9.5696,1.5538,1.5610,-0.5012,0.3256,0.0746,-90.4500,19.6500,-13.8000,9.4595,1.4605,-0.1796,-0.4170,0.3632,0.0695,-35.1000,33.7500,19.9500,5.3200,-1.5200,-8.1700,-0.0207,0.1254,-0.0011,1.2500,2.3750,49.6875,149.4375,31.8125,170.2500,0
1776971153.523,9.5696,1.5538,1.5610,-0.5012,0.3256,0.0746,-89.8500,18.7500,-13.2000,9.4595,1.4605,-0.1796,-0.4170,0.3632,0.0695,-35.1000,33.7500,19.9500,5.3100,-1.4800,-8.0900,-0.0207,0.1254,-0.0011,1.2500,2.3750,49.6875,149.4375,31.8125,170.2500,0
1776971153.528,9.5648,1.7454,1.4389,-0.5135,0.3115,0.0594,-89.8500,18.7500,-13.2000,9.5313,1.5778,-0.3280,-0.4061,0.3802,0.0839,-35.1000,33.7500,19.9500,5.3100,-1.4800,-8.0900,-0.0207,0.1429,0.0065,1.2500,2.3750,49.6875,149.4375,31.8750,170.2500,0
1776971153.533,9.5648,1.7454,1.4389,-0.5135,0.3115,0.0594,-89.8500,19.5000,-12.9000,9.5313,1.5778,-0.3280,-0.4061,0.3802,0.0839,-35.1000,33.7500,19.9500,5.1400,-1.3200,-8.0600,-0.0207,0.1429,0.0065,1.2500,2.3750,49.6875,149.4375,31.8750,170.2500,0
1776971153.542,9.5768,1.8555,1.3719,-0.5009,0.2931,0.0440,-90.9000,18.9000,-12.0000,9.4020,1.8004,-0.3184,-0.3429,0.4077,0.1021,-34.9500,34.6500,21.1500,5.1600,-1.2900,-7.9700,-0.0153,0.1887,0.0109,1.2500,2.3750,49.6875,149.4375,32.0000,170.2500,0
1776971153.547,9.5289,1.7430,1.3743,-0.4914,0.2710,0.0453,-90.9000,18.9000,-12.0000,9.4403,1.7909,-0.2203,-0.2859,0.4325,0.1207,-36.3000,36.0000,21.3000,5.1600,-1.2900,-7.9700,-0.0055,0.2313,0.0196,1.2500,2.3750,49.6875,149.5000,32.1250,170.1875,0
1776971153.553,9.5289,1.7430,1.3743,-0.4914,0.2710,0.0453,-90.3000,18.7500,-11.8500,9.4403,1.7909,-0.2203,-0.2052,0.4580,0.1383,-36.3000,36.0000,21.3000,5.1400,-1.3300,-7.9900,-0.0055,0.2313,0.0196,1.2500,2.3750,49.6875,149.5000,32.1250,170.1875,0
1776971153.558,9.5481,1.7406,1.3623,-0.4802,0.2483,0.0400,-90.3000,18.7500,-11.8500,9.3829,1.7214,-0.2011,-0.2052,0.4580,0.1383,-34.8000,34.0500,20.5500,5.1400,-1.3300,-7.9900,-0.0055,0.2313,0.0196,1.0000,2.0625,49.2500,149.5000,32.2500,170.1875,0
1776971153.563,9.5481,1.7406,1.3623,-0.4802,0.2483,0.0400,-90.3000,18.7500,-11.8500,9.3829,1.7214,-0.2011,-0.1681,0.5020,0.1561,-34.8000,34.0500,20.5500,5.2500,-1.5200,-8.0300,0.0022,0.2847,0.0196,1.0000,2.0625,49.2500,149.5000,32.2500,170.1875,0
1776971153.568,9.6510,1.8100,1.3791,-0.4980,0.2697,0.0269,-90.3000,18.7500,-11.8500,9.4595,1.5467,-0.1796,-0.1681,0.5020,0.1561,-34.6500,34.2000,23.2500,5.2500,-1.5200,-8.0300,0.0022,0.2847,0.0196,1.0000,2.0625,49.2500,149.5625,32.4375,170.1875,0
1776971153.573,9.6510,1.8100,1.3791,-0.4980,0.2697,0.0269,-91.5000,17.1000,-11.1000,9.5217,1.4820,-0.1317,-0.1897,0.5420,0.1777,-34.6500,34.2000,23.2500,5.2200,-1.4000,-7.9900,-0.0055,0.3414,0.0229,1.0000,2.0625,49.2500,149.5625,32.4375,170.1875,0
1776971153.578,9.5457,1.8292,1.4676,-0.5140,0.2446,0.0195,-91.5000,17.1000,-11.1000,9.5217,1.4820,-0.1317,-0.1897,0.5420,0.1777,-34.6500,34.2000,21.9000,5.2200,-1.4000,-7.9900,-0.0065,0.3992,0.0164,1.0000,2.0625,49.2500,149.5625,32.6875,170.1250,0
1776971153.583,9.5457,1.8292,1.4676,-0.5140,0.2446,0.0195,-91.5000,17.1000,-11.1000,9.4595,1.4892,-0.0694,-0.2220,0.5836,0.2006,-34.6500,34.2000,21.9000,5.2100,-1.3100,-7.9800,-0.0065,0.3992,0.0164,1.0000,2.0625,49.2500,149.5625,32.6875,170.1250,0
1776971153.592,9.5768,1.7837,1.5490,-0.5508,0.2571,0.0072,-90.1500,18.4500,-11.2500,9.4020,1.4820,-0.0886,-0.2515,0.6323,0.2201,-34.6500,34.2000,21.9000,5.2300,-1.2700,-7.9400,-0.0011,0.4647,0.0185,1.0000,2.0625,49.2500,149.5625,32.9375,170.0625,0
1776971153.597,9.3996,1.7214,1.6209,-0.5782,0.2475,-0.0072,-90.1500,18.4500,-11.2500,9.4020,1.4820,-0.0886,-0.2515,0.6323,0.2201,-35.7000,34.2000,23.5500,5.2300,-1.2700,-7.9400,0.0011,0.5171,0.0164,1.0000,2.0625,49.2500,149.6250,33.1875,170.0625,0
1776971153.603,9.4308,1.5179,1.6185,-0.5782,0.2475,-0.0072,-88.0500,18.0000,-10.6500,9.4164,1.3791,-0.1628,-0.3078,0.6622,0.2380,-35.7000,34.2000,23.5500,5.2900,-1.2300,-7.9000,0.0011,0.5171,0.0164,1.0000,2.0625,49.2500,149.6250,33.1875,170.0625,0
1776971153.608,9.4308,1.5179,1.6185,-0.6065,0.2294,-0.0035,-88.0500,18.0000,-10.6500,9.4164,1.3791,-0.1628,-0.3078,0.6622,0.2380,-35.8500,34.0500,22.3500,5.2900,-1.2300,-7.9000,0.0011,0.5171,0.0164,1.0000,2.7500,50.5000,149.6250,33.5000,170.0000,0
1776971153.613,9.6199,1.3431,1.5467,-0.6065,0.2294,-0.0035,-88.6500,18.4500,-9.3000,9.5888,1.1803,-0.1245,-0.3800,0.6821,0.2491,-35.8500,34.0500,22.3500,5.2200,-1.2300,-7.7900,-0.0011,0.5716,0.0120,1.0000,2.7500,50.5000,149.6250,33.5000,170.0000,0
1776971153.618,9.6199,1.3431,1.5467,-0.6507,0.2435,-0.0120,-88.6500,18.4500,-9.3000,9.5888,1.1803,-0.1245,-0.3800,0.6821,0.2491,-35.7000,33.9000,23.2500,5.2200,-1.2300,-7.7900,-0.0011,0.5716,0.0120,1.0000,2.7500,50.5000,149.6875,33.8750,170.0000,0
1776971153.623,9.6989,1.1995,1.4389,-0.6507,0.2435,-0.0120,-90.4500,16.9500,-10.0500,9.7492,1.1732,-0.3783,-0.4402,0.7186,0.2659,-35.7000,33.9000,23.2500,5.0000,-1.2700,-7.7200,-0.0044,0.6523,0.0087,1.0000,2.7500,50.5000,149.6875,33.8750,170.0000,0
1776971153.628,9.6989,1.1995,1.4389,-0.6797,0.1998,-0.0184,-90.4500,16.9500,-10.0500,9.7492,1.1732,-0.3783,-0.4402,0.7186,0.2659,-35.4000,33.4500,24.7500,5.0000,-1.2700,-7.7200,-0.0305,0.7614,0.0098,1.0000,2.7500,50.5000,149.7500,34.2500,169.9375,0
1776971153.633,9.7085,1.1181,1.2594,-0.7032,0.1599,-0.0256,-89.7000,17.7000,-9.7500,9.9359,1.2354,-0.3472,-0.5169,0.7402,0.2950,-38.1000,34.0500,24.7500,5.1600,-1.5200,-7.8600,-0.0305,0.7614,0.0098,1.0000,2.7500,50.5000,149.7500,34.7500,169.9375,0
1776971153.643,9.6678,1.0463,1.2689,-0.7464,0.1391,-0.0301,-90.6000,17.5500,-9.9000,9.8569,1.3910,-0.2658,-0.5580,0.7400,0.3030,-38.1000,34.0500,24.4500,4.6900,-1.2700,-7.5100,-0.0676,0.8978,-0.0262,1.0000,2.7500,50.5000,149.7500,34.7500,169.9375,0
1776971153.653,9.6893,1.1109,1.3001,-0.7807,0.1122,-0.0392,-90.6000,17.5500,-9.9000,9.7205,1.6376,0.3735,-0.4159,0.7637,0.3262,-38.1000,34.0500,24.4500,4.9300,-1.2700,-7.8500,-0.1156,1.0625,-0.0404,1.0000,2.7500,50.5000,149.8125,35.3750,169.9375,0
1776971153.657,9.6893,1.1109,1.3001,-0.7807,0.1122,-0.0392,-90.6000,17.5500,-9.9000,9.7205,1.6376,0.3735,-0.4159,0.7637,0.3262,-37.0500,32.5500,24.4500,4.9300,-1.2700,-7.8500,-0.1156,1.0625,-0.0404,1.0000,2.7500,50.5000,149.8125,35.3750,169.9375,0
1776971153.662,9.7276,1.1875,1.2522,-0.7973,0.0370,-0.0482,-90.6000,17.5500,-9.9000,9.2009,1.3144,0.5411,-0.3792,0.8154,0.3459,-37.0500,32.5500,24.4500,5.6000,-1.2700,-7.9600,-0.1636,1.2381,-0.0415,-1.2500,2.3750,48.8750,149.8750,36.0000,169.9375,0
1776971153.667,9.7276,1.1875,1.2522,-0.7973,0.0370,-0.0482,-89.4000,18.4500,-9.3000,9.2009,1.3144,0.5411,-0.3792,0.8154,0.3459,-35.7000,32.7000,26.8500,5.6000,-1.2700,-7.9600,-0.1636,1.2381,-0.0415,-1.2500,2.3750,48.8750,149.8750,36.0000,169.9375,0
1776971153.672,9.6247,1.2857,1.5826,-0.8140,-0.0008,-0.0674,-89.4000,18.4500,-9.3000,9.5457,0.6800,0.2777,-0.4930,0.8972,0.3829,-35.7000,32.7000,26.8500,6.3600,-1.5500,-7.8700,-0.1942,1.2326,-0.0676,-1.2500,2.3750,48.8750,149.9375,36.6875,170.0000,0
1776971153.677,9.6247,1.2857,1.5826,-0.8140,-0.0008,-0.0674,-89.4000,18.4500,-9.3000,9.5457,0.6800,0.2777,-0.4930,0.8972,0.3829,-36.0000,32.4000,26.8500,6.3600,-1.5500,-7.8700,-0.1942,1.2326,-0.0676,-1.2500,2.3750,48.8750,149.9375,37.3125,170.0625,0
1776971153.683,9.6175,1.1205,1.7047,-0.8966,0.0157,-0.0706,-91.2000,18.4500,-7.5000,9.9144,0.6129,0.1724,-0.5380,0.9350,0.3952,-35.7000,32.7000,26.4000,6.1400,-1.4100,-7.6700,-0.1789,1.0788,-0.0589,-1.2500,2.3750,48.8750,150.0000,37.8125,170.1250,0
1776971153.693,9.7085,1.1037,1.5395,-0.9089,-0.0469,-0.0703,-91.2000,18.4500,-7.5000,9.5505,0.8930,0.2179,-0.5923,0.9377,0.4018,-35.7000,32.7000,26.4000,5.9400,-1.4900,-7.6900,-0.1593,0.9774,-0.0654,-1.2500,2.3750,48.8750,150.0000,37.8125,170.1250,0
1776971153.703,9.4786,1.1540,1.3910,-0.8663,-0.0847,-0.0839,-89.5500,17.5500,-7.3500,9.2703,1.2378,0.6297,-0.6843,0.9942,0.4210,-35.7000,32.7000,26.4000,6.3800,-1.2100,-7.7700,-0.1724,0.9981,-0.0622,-1.2500,2.3750,48.8750,150.0625,38.3750,170.1250,0
1776971153.708,9.4786,1.1540,1.3910,-0.8663,-0.0847,-0.0839,-89.5500,17.5500,-7.3500,9.2703,1.2378,0.6297,-0.6843,0.9942,0.4210,-37.2000,31.9500,27.6000,6.3800,-1.2100,-7.7700,-0.1724,0.9981,-0.0622,-1.2500,2.3750,48.8750,150.0625,38.9375,170.1875,0
