timestamp,thigh_acc_x,thigh_acc_y,thigh_acc_z,thigh_gyro_x,thigh_gyro_y,thigh_gyro_z,thigh_mag_x,thigh_mag_y,thigh_mag_z,shank_acc_x,shank_acc_y,shank_acc_z,shank_gyro_x,shank_gyro_y,shank_gyro_z,shank_mag_x,shank_mag_y,shank_mag_z,foot_acc_x,foot_acc_y,foot_acc_z,foot_gyro_x,foot_gyro_y,foot_gyro_z,foot_mag_x,foot_mag_y,foot_mag_z,foot_euler_x,foot_euler_y,foot_euler_z,perturbation_event
1776973299.955,9.6702,-1.6041,1.7669,-0.1823,0.0674,0.4338,-85.3500,3.4500,-10.6500,9.5864,1.6927,1.1540,-0.1013,0.1375,0.3147,-106.9500,-0.4500,7.2000,-4.6200,-2.1200,-8.4600,-0.0578,-0.0654,0.0818,12.6875,10.7500,37.0625,269.9375,-28.5000,164.6875,0
1776973299.960,9.7516,-1.3791,1.8483,-0.1801,0.0594,0.4490,-85.3500,3.4500,-10.6500,9.5696,1.7023,1.1444,-0.0562,0.1663,0.3256,-106.5000,-1.2000,6.4500,-4.6200,-2.1200,-8.4600,-0.0480,-0.0644,0.0753,12.6875,10.7500,37.0625,269.9375,-28.5000,164.7500,0
1776973299.966,9.6247,-1.1396,1.7190,-0.1801,0.0594,0.4490,-86.1000,2.7000,-11.4000,9.5696,1.7023,1.1444,-0.0562,0.1663,0.3256,-106.5000,-1.2000,6.4500,-4.4900,-2.1100,-8.5100,-0.0480,-0.0644,0.0753,12.6875,10.7500,37.0625,270.0000,-28.5625,164.8125,0
1776973299.974,9.6247,-1.1396,1.7190,-0.1929,0.0578,0.4546,-84.6000,4.2000,-11.4000,9.5361,1.6328,1.0942,-0.0799,0.1490,0.3408,-105.6000,-1.8000,7.3500,-4.5400,-2.2300,-8.4900,-0.0316,-0.0764,0.0742,12.6875,10.7500,37.0625,270.0000,-28.5625,164.8125,0
1776973299.979,9.5457,-1.1109,2.0279,-0.1228,0.0589,0.4575,-84.6000,4.2000,-11.4000,9.5098,1.6041,1.1732,-0.0485,0.1426,0.3624,-105.6000,-1.8000,7.3500,-4.5400,-2.2300,-8.4900,-0.0185,-0.0873,0.0731,12.6875,10.7500,37.0625,270.0000,-28.6250,164.8125,0
1776973299.985,9.6606,-0.9673,1.9369,-0.0432,0.0608,0.4754,-86.5500,3.9000,-11.1000,9.5098,1.6041,1.1732,-0.0485,0.1426,0.3624,-105.6000,-1.8000,7.3500,-4.6200,-2.1000,-8.4500,-0.0185,-0.0873,0.0731,12.6875,10.7500,37.0625,270.0000,-28.6250,164.8125,0
1776973299.990,9.6606,-0.9673,1.9369,-0.0432,0.0608,0.4754,-86.5500,3.9000,-11.1000,9.5409,1.8483,1.3455,0.0008,0.1319,0.3741,-107.8500,-0.7500,7.0500,-4.6200,-2.1000,-8.4500,-0.0065,-0.0807,0.0665,11.8750,11.5000,36.7500,270.3750,-28.6250,164.8125,0
1776973299.995,9.5313,-0.9194,1.6424,-0.0125,0.0653,0.4943,-85.5000,2.4000,-10.5000,9.5409,1.8483,1.3455,0.0008,0.1319,0.3741,-107.8500,-0.7500,7.0500,-4.6400,-2.0500,-8.4300,-0.0065,-0.0807,0.0665,11.8750,11.5000,36.7500,270.3750,-28.6250,164.8125,0
1776973300.000,9.5313,-0.9194,1.6424,-0.0125,0.0653,0.4943,-85.5000,2.4000,-10.5000,9.4355,2.0255,1.3527,0.0285,0.1442,0.3832,-106.2000,-0.9000,9.0000,-4.6400,-2.0500,-8.4300,0.0076,-0.0796,0.0589,11.8750,11.5000,36.7500,270.3750,-28.6875,164.8750,0
1776973300.005,9.4547,-0.7925,1.9465,0.0208,0.0624,0.5201,-85.5000,2.4000,-10.5000,9.4355,2.0255,1.3527,0.0285,0.1442,0.3832,-106.2000,-0.9000,9.0000,-4.6400,-2.0500,-8.5100,0.0076,-0.0796,0.0589,11.8750,11.5000,36.7500,270.3750,-28.6875,164.8750,0
1776973300.010,9.4547,-0.7925,1.9465,0.0208,0.0624,0.5201,-85.5000,2.4000,-10.5000,8.9902,1.5323,0.9194,0.0509,0.1940,0.3917,-106.5000,-1.6500,8.2500,-4.6400,-2.0500,-8.5100,0.0229,-0.0829,0.0502,11.8750,11.5000,36.7500,270.4375,-28.7500,164.8750,0
1776973300.016,9.5289,-1.0271,1.8483,0.0067,0.0509,0.5391,-85.2000,2.8500,-10.0500,8.9902,1.5323,0.9194,0.0509,0.1940,0.3917,-106.2000,-1.2000,8.7000,-4.6300,-2.0800,-8.4600,0.0229,-0.0829,0.0502,11.8750,11.5000,36.7500,270.4375,-28.7500,164.8750,0
1776973300.025,9.2584,-1.4030,2.2697,-0.0402,0.0384,0.5484,-85.2000,2.8500,-10.0500,9.5696,1.3312,1.0511,-0.1745,0.2340,0.4104,-106.2000,-1.2000,8.7000,-4.5900,-2.1900,-8.4300,0.0251,-0.0774,0.0436,11.8750,11.5000,36.7500,270.4375,-28.7500,164.8750,0
1776973300.030,9.2584,-1.4030,2.2697,-0.0402,0.0384,0.5484,-85.2000,2.8500,-10.0500,8.9591,1.2617,1.2522,0.2830,0.1423,0.4181,-106.2000,-1.2000,8.7000,-4.5900,-2.1900,-8.4300,0.0251,-0.0698,0.0480,11.8750,11.5000,36.7500,270.5000,-28.8125,164.8750,0
1776973300.036,9.2775,-1.8699,2.3583,-0.0434,0.0709,0.5710,-85.8000,2.2500,-9.6000,9.2823,0.7781,1.6592,0.2340,0.1815,0.4290,-106.2000,-1.2000,8.7000,-4.7100,-2.1600,-8.2600,0.0251,-0.0698,0.0480,11.8750,11.5000,36.7500,270.5000,-28.8125,164.8750,0
1776973300.041,9.2775,-1.8699,2.3583,-0.0434,0.0709,0.5710,-85.8000,2.2500,-9.6000,9.2823,0.7781,1.6592,0.2340,0.1815,0.4290,-106.2000,-1.2000,8.7000,-4.7100,-2.1600,-8.2600,0.0098,-0.0524,0.0480,11.8750,10.7500,37.0625,270.6875,-28.8750,164.8750,0
1776973300.046,9.6223,-2.0279,2.3487,-0.0946,0.0426,0.5769,-86.1000,3.0000,-10.3500,9.5289,0.3807,1.7502,-0.0597,0.1855,0.4746,-105.1500,-2.7000,7.9500,-4.6300,-2.1800,-8.3000,0.0098,-0.0524,0.0480,11.8750,10.7500,37.0625,270.6875,-28.8750,164.8750,0
1776973300.050,9.6223,-2.0279,2.3487,-0.0946,0.0426,0.5769,-86.1000,3.0000,-10.3500,9.5289,0.3807,1.7502,-0.0597,0.1855,0.4746,-105.1500,-2.7000,7.9500,-4.6300,-2.1800,-8.3000,0.0098,-0.0524,0.0480,11.8750,10.7500,37.0625,270.6875,-28.8750,164.8750,0
1776973300.056,9.4260,-2.0806,2.5857,-0.1172,0.0362,0.5633,-85.2000,2.1000,-10.5000,9.5816,0.4908,2.2410,0.0616,0.1895,0.5367,-103.6500,-2.4000,8.2500,-4.5800,-2.1100,-8.3700,-0.0033,-0.0393,0.0447,11.8750,10.7500,37.0625,270.6875,-28.8750,164.8750,0
1776973300.060,9.4260,-2.0806,2.5857,-0.1172,0.0362,0.5633,-85.2000,2.1000,-10.5000,9.5816,0.4908,2.2410,0.0616,0.1895,0.5367,-103.6500,-2.4000,8.2500,-4.5800,-2.1100,-8.3700,-0.0087,-0.0404,0.0491,11.8750,10.7500,37.0625,270.7500,-28.8750,164.9375,0
1776973300.066,9.5864,-2.3391,2.5402,-0.0501,0.0096,0.5537,-86.1000,2.7000,-11.8500,9.5217,0.5483,2.1907,0.1604,0.2451,0.5886,-104.2500,-3.3000,9.1500,-4.6100,-2.1500,-8.3900,-0.0087,-0.0404,0.0491,11.8750,10.7500,37.0625,270.7500,-28.8750,164.9375,0
1776973300.075,9.6582,-2.5379,2.7461,-0.0525,-0.0354,0.5284,-84.7500,2.1000,-10.8000,9.7803,0.5794,2.1045,0.1021,0.2425,0.6582,-104.2500,-3.3000,7.8000,-4.6300,-2.1400,-8.4000,-0.0087,-0.0404,0.0458,11.8750,10.7500,37.0625,270.7500,-28.9375,164.9375,0
1776973300.079,9.6582,-2.5379,2.7461,-0.0525,-0.0354,0.5284,-84.7500,2.1000,-10.8000,9.7803,0.5794,2.1045,0.1021,0.2425,0.6582,-104.2500,-3.3000,7.8000,-4.6300,-2.1400,-8.4000,-0.0033,-0.0415,0.0447,11.8750,10.7500,37.0625,270.7500,-28.9375,164.9375,0
1776973300.086,9.7468,-2.8252,2.3655,-0.0640,-0.0520,0.5175,-85.5000,1.3500,-11.2500,9.7013,0.6081,2.1548,0.0965,0.2939,0.7072,-104.2500,-3.3000,7.8000,-4.6600,-2.1100,-8.3800,-0.0033,-0.0415,0.0447,11.8750,10.7500,37.0625,270.7500,-28.9375,164.9375,0
1776973300.091,9.7923,-2.7150,2.1548,-0.0640,-0.0520,0.5175,-85.5000,1.3500,-11.2500,9.7013,0.6081,2.1548,0.0965,0.2939,0.7072,-104.2500,-3.3000,7.8000,-4.6300,-2.0700,-8.4200,0.0076,-0.0469,0.0415,12.6875,10.7500,36.3750,271.0000,-29.0000,164.9375,0
1776973300.096,9.7923,-2.7150,2.1548,-0.0858,-0.0746,0.5164,-85.5000,1.3500,-11.2500,9.4834,0.6800,2.2122,0.3214,0.3107,0.7536,-103.3500,-4.6500,6.9000,-4.6300,-2.0700,-8.4200,0.0076,-0.0469,0.0415,12.6875,10.7500,36.3750,271.0000,-29.0000,164.9375,0
1776973300.101,9.8497,-2.1548,1.8364,-0.1039,-0.1023,0.5079,-85.5000,1.3500,-11.2500,9.4834,0.6800,2.2122,0.3214,0.3107,0.7536,-103.3500,-4.6500,6.9000,-4.6300,-2.0700,-8.4200,0.0251,-0.0524,0.0393,12.6875,10.7500,36.3750,271.0625,-29.0000,164.9375,0
1776973300.106,9.8497,-2.1548,1.8364,-0.1039,-0.1023,0.5079,-84.6000,1.0500,-10.3500,9.6822,0.7805,1.8411,0.3507,0.3206,0.7893,-102.7500,-3.3000,8.5500,-4.6200,-2.0500,-8.4300,0.0251,-0.0524,0.0393,12.6875,10.7500,36.3750,271.0625,-29.0000,164.9375,0
1776973300.110,9.9168,-1.3048,1.6281,-0.1175,-0.1279,0.5036,-84.6000,1.0500,-10.3500,9.6822,0.7805,1.8411,0.3507,0.3206,0.7893,-102.7500,-3.3000,8.5500,-4.6200,-2.0500,-8.4300,0.0415,-0.0600,0.0371,12.6875,10.7500,36.3750,271.0625,-29.0000,164.9375,0
1776973300.116,9.9168,-1.3048,1.6281,-0.1175,-0.1279,0.5036,-85.5000,-0.9000,-10.8000,9.7300,0.9074,1.7142,0.3832,0.3099,0.8052,-102.6000,-6.9000,8.7000,-4.5400,-1.9600,-8.5400,0.0415,-0.0600,0.0371,12.6875,10.7500,36.3750,271.0625,-29.0000,164.9375,0
1776973300.125,9.9216,-0.9673,1.8962,-0.1303,-0.1428,0.5180,-85.5000,-0.1500,-10.0500,9.7252,1.0630,1.5802,0.4154,0.3019,0.7991,-102.7500,-5.5500,8.8500,-4.5300,-1.9000,-8.6000,0.0633,-0.0829,0.0338,12.6875,10.7500,36.3750,271.0625,-29.0625,164.9375,0
1776973300.130,9.8306,-0.7278,1.5419,-0.1103,-0.1266,0.5348,-85.5000,-0.1500,-10.0500,9.7252,1.0630,1.5802,0.4154,0.3019,0.7991,-102.7500,-5.5500,8.8500,-4.5300,-1.9000,-8.6000,0.0807,-0.1091,0.0327,12.6875,10.7500,36.3750,271.1250,-29.0625,164.9375,0
1776973300.136,9.8306,-0.7278,1.5419,-0.1103,-0.1266,0.5348,-83.8500,0.0000,-10.6500,9.9790,1.2737,1.3838,0.3890,0.2766,0.7909,-102.7500,-5.5500,8.8500,-4.5100,-2.1100,-8.5100,0.0807,-0.1091,0.0327,12.6875,10.7500,36.3750,271.1250,-29.0625,164.9375,0
1776973300.141,10.0987,-0.7685,1.4533,-0.1535,-0.1015,0.5761,-83.8500,0.0000,-10.6500,9.9790,1.2737,1.3838,0.3890,0.2766,0.7909,-102.7500,-5.5500,8.8500,-4.5100,-2.1100,-8.5100,0.0807,-0.1091,0.0327,13.0625,11.5000,37.5000,271.3750,-29.1250,164.9375,0
1776973300.146,10.0987,-0.7685,1.4533,-0.1535,-0.1015,0.5761,-84.7500,-0.9000,-11.5500,10.0700,1.6616,1.1612,0.3595,0.2686,0.7594,-102.7500,-5.5500,8.8500,-4.4900,-2.1900,-8.5500,0.0654,-0.1178,0.0185,13.0625,11.5000,37.5000,271.3750,-29.1250,164.9375,0
1776973300.151,10.4962,-0.7949,0.9074,-0.1849,-0.0714,0.6214,-84.7500,-0.9000,-11.5500,10.0700,1.6616,1.1612,0.3595,0.2686,0.7594,-102.7500,-5.5500,8.8500,-4.4900,-2.1900,-8.5500,0.0654,-0.1178,0.0185,13.0625,11.5000,37.5000,271.3750,-29.1875,164.9375,0
1776973300.156,10.4962,-0.7949,0.9074,-0.1849,-0.0714,0.6214,-84.6000,0.3000,-11.4000,10.4124,1.7406,0.8212,0.3246,0.2601,0.7237,-102.9000,-7.9500,9.0000,-4.4500,-1.9900,-8.7400,0.0360,-0.1309,0.0087,13.0625,11.5000,37.5000,271.3750,-29.1875,164.9375,0
1776973300.161,10.5105,-0.4621,0.5363,-0.2238,-0.0749,0.6896,-84.6000,0.3000,-11.4000,10.4124,1.7406,0.8212,0.3246,0.2601,0.7237,-102.9000,-7.9500,9.0000,-4.4500,-1.9900,-8.7400,0.0840,-0.1789,0.0371,13.0625,11.5000,37.5000,271.4375,-29.2500,164.8750,0
1776973300.166,10.5105,-0.4621,0.5363,-0.2238,-0.0749,0.6896,-84.6000,0.3000,-11.4000,10.3813,1.8435,0.4669,0.2894,0.2403,0.6984,-103.5000,-7.5000,8.8500,-4.0000,-2.1600,-9.1800,0.0840,-0.1789,0.0371,13.0625,11.5000,37.5000,271.4375,-29.3750,164.8125,0
1776973300.175,10.4483,-0.3208,1.0247,-0.3200,-0.0640,0.7440,-84.6000,-1.9500,-11.4000,10.4291,2.0614,0.2825,0.2635,0.2284,0.6542,-102.7500,-9.0000,9.9000,-4.2200,-2.2700,-8.6700,0.1211,-0.2454,0.0611,13.0625,11.5000,37.5000,271.4375,-29.3750,164.8125,0
1776973300.185,10.2208,-0.1077,0.8571,-0.2683,-0.0416,0.7978,-84.6000,-1.9500,-11.4000,10.4196,2.2003,0.4046,0.2364,0.2419,0.6121,-103.6500,-8.7000,8.7000,-4.3100,-2.2800,-8.8000,0.0698,-0.3185,0.0774,13.0625,11.5000,37.5000,271.5000,-29.5625,164.7500,0
1776973300.190,10.4196,-0.1149,0.9649,-0.2942,-0.0123,0.8463,-84.6000,-1.9500,-11.4000,10.4196,2.2003,0.4046,0.2364,0.2419,0.6121,-103.6500,-8.7000,8.7000,-4.3100,-2.2800,-8.8000,0.0698,-0.3185,0.0774,13.0625,11.5000,37.5000,271.7500,-29.8125,164.6875,0
1776973300.195,10.4196,-0.1149,0.9649,-0.2942,-0.0123,0.8463,-84.6000,-1.9500,-10.6500,10.3382,2.2027,0.3400,0.2326,0.2593,0.5692,-103.6500,-8.7000,8.7000,-4.3400,-2.2600,-8.9300,0.0535,-0.3949,0.0949,12.6875,11.1875,36.7500,271.7500,-29.8125,164.6875,0
1776973300.200,10.8457,-0.6129,1.1372,-0.2886,0.0045,0.9132,-84.6000,-1.9500,-10.6500,10.3382,2.2027,0.3400,0.2308,0.2582,0.5500,-103.6500,-8.7000,8.7000,-4.3400,-2.2600,-8.9300,0.0535,-0.3949,0.0949,12.6875,11.1875,36.7500,271.8125,-30.0625,164.6875,0
1776973300.205,10.8457,-0.6129,1.1372,-0.2886,0.0045,0.9132,-83.4000,-1.5000,-9.9000,10.5441,2.2841,0.3065,0.2308,0.2582,0.5500,-104.5500,-9.3000,8.8500,-4.3500,-2.3500,-9.0700,0.0458,-0.4385,0.1091,12.6875,11.1875,36.7500,271.8125,-30.0625,164.6875,0
1776973300.210,10.8864,-0.6297,0.7733,-0.2819,-0.0320,0.9872,-83.4000,-1.5000,-9.9000,10.7595,2.4828,0.2011,0.2126,0.2132,0.5348,-104.5500,-9.3000,8.8500,-4.3500,-2.3500,-9.0700,0.0295,-0.4789,0.1189,12.6875,11.1875,36.7500,271.8750,-30.3125,164.6875,0
1776973300.216,11.0660,-0.5124,0.6177,-0.2835,-0.0216,1.0762,-84.1500,-3.0000,-9.9000,10.7595,2.4828,0.2011,0.2126,0.2132,0.5348,-103.9500,-10.6500,8.2500,-4.1300,-2.3500,-9.3500,0.0295,-0.4789,0.1189,12.6875,11.1875,36.7500,271.8750,-30.6875,164.6250,0
1776973300.225,11.2504,-0.3974,0.0694,-0.2835,-0.0216,1.0762,-84.4500,-4.5000,-10.5000,10.5441,2.3008,0.3663,0.0197,0.1002,0.5175,-104.5500,-9.3000,8.5500,-4.1800,-2.1400,-9.4100,0.0316,-0.5912,0.1494,12.6875,11.1875,36.7500,271.8750,-30.6875,164.6250,0
1776973300.235,11.1378,-0.1628,0.0694,-0.1609,-0.0067,1.2377,-83.2500,-5.5500,-10.5000,10.8793,2.6049,0.2921,0.0488,0.0426,0.5065,-104.7000,-10.2000,9.3000,-3.9900,-2.4300,-9.6800,0.0535,-0.7352,0.1778,12.6875,11.1875,36.7500,271.9375,-31.1250,164.6250,0
1776973300.240,11.1378,-0.1628,0.0694,-0.1609,-0.0067,1.2377,-83.2500,-5.5500,-10.5000,11.0445,2.7246,0.4693,0.2497,0.0514,0.4565,-104.7000,-10.2000,9.3000,-3.9900,-2.4300,-9.6800,0.0535,-0.7352,0.1778,12.6875,11.1875,36.7500,272.1250,-31.6250,164.5625,0
1776973300.245,11.4084,0.0575,0.3208,-0.1196,0.0256,1.3038,-83.2500,-4.8000,-10.5000,11.0445,2.7246,0.4693,0.2497,0.0514,0.4565,-104.7000,-10.2000,9.3000,-4.0900,-2.4300,-9.5800,0.0480,-0.9119,0.2138,13.0625,10.5000,36.3750,272.1250,-31.6250,164.5625,0
1776973300.250,11.4084,0.0575,0.3208,-0.1196,0.0256,1.3038,-83.2500,-4.8000,-10.5000,11.4299,2.8252,0.0527,0.2414,-0.0506,0.4165,-104.7000,-10.2000,9.3000,-4.0900,-2.4300,-9.5800,0.0480,-0.9119,0.2138,13.0625,10.5000,36.3750,272.2500,-32.2500,164.5625,0
1776973300.255,11.3964,0.3711,-0.4310,0.0258,0.0517,1.3651,-83.2500,-4.8000,-10.5000,11.4299,2.8252,0.0527,0.2414,-0.0506,0.4165,-104.7000,-10.2000,9.3000,-4.0600,-2.7900,-9.7200,-0.0087,-1.1072,0.2651,13.0625,10.5000,36.3750,272.2500,-32.2500,164.5625,0
1776973300.260,11.3964,0.3711,-0.4310,0.0258,0.0517,1.3651,-83.2500,-4.8000,-10.5000,10.7835,2.7198,-0.0599,0.1687,-0.1684,0.3805,-104.7000,-10.2000,9.3000,-4.0600,-2.7900,-9.7200,-0.0796,-1.3832,0.3512,13.0625,10.5000,36.3750,272.3125,-33.0625,164.5625,0
1776973300.266,11.4874,0.6105,-0.6033,0.0925,0.0874,1.4634,-84.4500,-6.4500,-10.0500,10.7835,2.7198,-0.0599,0.1687,-0.1684,0.3805,-103.8000,-11.5500,9.6000,-3.9400,-2.9200,-9.7700,-0.0796,-1.3832,0.3512,13.0625,10.5000,36.3750,272.4375,-34.0000,164.6250,0
1776973300.275,11.4730,1.0726,-0.7877,0.1860,0.1194,1.5799,-82.6500,-7.3500,-8.8500,11.3006,3.2633,-0.3496,-0.0253,-0.1292,0.3067,-103.3500,-11.7000,10.0500,-4.3700,-2.5200,-9.3100,-0.1047,-1.6428,0.4352,13.0625,10.5000,36.3750,272.4375,-34.0000,164.6250,0
1776973300.285,11.8130,1.9082,-1.1301,0.2550,0.1460,1.7285,-83.1000,-7.3500,-9.9000,10.6662,4.0294,-0.5315,0.4626,-0.2840,0.2377,-103.3500,-11.7000,10.5000,-4.2500,-2.3800,-9.4400,-0.0633,-1.8664,0.5138,13.0625,10.5000,36.3750,272.5625,-35.0625,164.6875,0
1776973300.290,11.8130,1.9082,-1.1301,0.2550,0.1460,1.7285,-83.1000,-7.3500,-9.9000,10.6734,4.6017,-1.1516,0.6142,-0.4421,0.1444,-103.3500,-11.7000,10.5000,-4.2500,-2.3800,-9.4400,-0.0633,-1.8664,0.5138,13.0625,10.5000,36.3750,272.5625,-35.0625,164.6875,0
1776973300.295,12.3996,2.3679,-1.4653,0.2902,0.1911,1.8780,-83.2500,-8.4000,-10.0500,10.6734,4.6017,-1.1516,0.6142,-0.4421,0.1444,-103.9500,-12.9000,10.0500,-4.5100,-2.8000,-9.8300,-0.0491,-2.0922,0.6141,15.2500,11.1875,36.0000,273.0000,-36.2500,164.7500,0
1776973300.300,12.3996,2.3679,-1.4653,0.2902,0.1911,1.8780,-83.2500,-8.4000,-10.0500,10.5153,5.0518,-1.9345,0.5444,-0.5915,0.0187,-103.9500,-12.9000,10.0500,-4.5100,-2.8000,-9.8300,-0.0491,-2.0922,0.6141,15.2500,11.1875,36.0000,273.0000,-36.2500,164.7500,0
1776973300.305,13.0292,2.3559,-1.9106,0.3701,0.2590,2.0448,-83.8500,-9.3000,-8.4000,10.5153,5.0518,-1.9345,0.5444,-0.5915,0.0187,-103.9500,-12.9000,10.0500,-3.6700,-3.5000,-10.1000,-0.0251,-2.3257,0.7527,15.2500,11.1875,36.0000,273.2500,-37.6250,164.8125,0
1776973300.310,13.0292,2.3559,-1.9106,0.3701,0.2590,2.0448,-83.8500,-9.3000,-8.4000,10.4675,5.6216,-2.4828,0.8612,-0.7075,-0.1268,-103.9500,-12.9000,10.0500,-3.6700,-3.5000,-10.1000,-0.0567,-2.6529,0.9152,15.2500,11.1875,36.0000,273.5625,-39.1875,164.8750,0
1776973300.316,13.8648,2.7509,-2.3918,0.4104,0.3325,2.2188,-83.4000,-11.7000,-8.8500,10.4387,6.3590,-3.0694,1.1668,-0.8711,-0.2787,-103.5000,-11.5500,8.5500,-3.8600,-3.7200,-9.8500,-0.0567,-2.6529,0.9152,15.2500,11.1875,36.0000,274.0000,-40.9375,165.1250,0
1776973300.325,14.8033,2.8036,-2.3391,0.3315,0.4026,2.3547,-83.4000,-11.7000,-8.8500,10.4387,6.3590,-3.0694,1.1668,-0.8711,-0.2787,-103.8000,-13.5000,7.8000,-3.6100,-4.7200,-9.7800,-0.1102,-2.9921,1.1574,15.2500,11.1875,36.0000,274.0000,-40.9375,165.1250,0
1776973300.335,15.4689,3.0526,-2.0470,0.2697,0.4317,2.4816,-81.6000,-11.7000,-8.8500,10.5129,6.6679,-3.7182,1.5585,-1.1495,-0.6177,-106.0500,-12.7500,5.7000,-3.9900,-5.9500,-10.4000,-0.2509,-3.4296,1.4813,15.2500,11.1875,36.0000,274.5625,-43.0000,165.5625,0
1776973300.340,16.1417,3.0023,-1.4341,0.2697,0.4317,2.4816,-81.6000,-13.2000,-8.8500,10.4914,6.9240,-2.8323,1.5585,-1.1495,-0.6177,-103.6500,-12.9000,6.4500,-3.9900,-5.9500,-10.4000,-0.2509,-3.4296,1.4813,15.2500,11.1875,36.0000,301.6250,-45.3125,166.2500,0
1776973300.346,16.1417,3.0023,-1.4341,0.1303,0.4644,2.5738,-81.6000,-13.2000,-8.8500,10.0389,6.3805,-2.4636,1.7544,-1.2095,-0.8146,-103.6500,-12.9000,6.4500,-4.4900,-6.4400,-10.7300,-0.4342,-3.8583,1.8588,19.2500,10.5000,34.3750,301.6250,-45.3125,166.2500,0
1776973300.351,16.2614,3.0191,0.1508,0.0746,0.4783,2.6606,-81.6000,-13.2000,-8.8500,10.0389,6.3805,-2.4636,1.7544,-1.2095,-0.8146,-102.9000,-12.9000,5.8500,-4.4900,-6.4400,-10.7300,-0.4342,-3.8583,1.8588,19.2500,10.5000,34.3750,298.4375,-47.9375,167.3750,0
1776973300.356,16.2614,3.0191,0.1508,0.0746,0.4783,2.6606,-79.5000,-15.0000,-8.2500,9.8354,5.9711,-2.1883,1.9851,-1.3595,-0.9739,-102.9000,-12.9000,5.8500,-5.2400,-6.3100,-10.9100,-0.6796,-4.3241,2.3093,19.2500,10.5000,34.3750,298.4375,-47.9375,167.3750,0
1776973300.361,14.7866,3.5913,0.2346,-0.0080,0.4650,2.7328,-79.5000,-15.0000,-8.2500,9.8354,5.9711,-2.1883,1.9851,-1.3595,-0.9739,-102.9000,-12.9000,5.8500,-5.2400,-6.3100,-10.9100,-0.9338,-4.7942,2.7707,19.2500,10.5000,34.3750,294.8125,-50.8750,169.0000,0
1776973300.366,14.7866,3.5913,0.2346,-0.0080,0.4650,2.7328,-81.3000,-16.9500,-6.7500,10.3262,5.0877,-1.3168,2.0736,-1.3931,-1.1522,-102.9000,-12.9000,5.8500,-6.4700,-6.3000,-11.5000,-0.9338,-4.7942,2.7707,19.2500,10.5000,34.3750,290.9375,-54.0000,171.3125,0
1776973300.376,13.3357,3.7900,2.6983,-0.1943,0.4269,2.7614,-78.7500,-16.9500,-7.9500,11.1330,3.7876,-0.3232,2.2071,-1.5135,-1.3182,-102.3000,-12.0000,4.9500,-11.5300,-6.0400,-13.3100,-1.2457,-5.2098,3.1678,19.2500,10.5000,34.3750,290.9375,-54.0000,171.3125,0
1776973300.386,12.6653,2.6695,4.4796,-0.2188,0.3635,2.7701,-78.7500,-16.9500,-7.9500,11.7747,2.8946,0.6345,1.9891,-1.8040,-1.4605,-101.8500,-13.2000,3.6000,-12.6600,-4.4000,-13.7100,-1.6624,-5.4694,3.3216,19.2500,10.5000,34.3750,286.8750,-57.2500,174.3750,0
1776973300.390,12.2463,1.5395,5.5737,-0.0320,0.3368,2.6420,-78.7500,-18.9000,-7.9500,11.7747,2.8946,0.6345,1.9891,-1.8040,-1.4605,-101.2500,-11.2500,2.1000,-12.6600,-4.4000,-13.7100,-1.6624,-5.4694,3.3216,19.2500,10.5000,34.3750,283.0000,-60.4375,178.1250,0
1776973300.396,12.2463,1.5395,5.5737,-0.0320,0.3368,2.6420,-78.7500,-18.9000,-7.9500,12.3613,2.2098,1.6688,1.6577,-1.9521,-1.5671,-101.2500,-11.2500,2.1000,-12.6500,-6.6200,-13.5200,-1.8817,-5.5076,3.3183,26.5625,9.0000,31.3750,283.0000,-60.4375,178.1250,0
1776973300.400,11.4563,0.1508,5.9089,0.5804,0.3027,2.5253,-78.7500,-18.9000,-7.9500,12.3613,2.2098,1.6688,1.6577,-1.9521,-1.5671,-99.6000,-10.6500,0.4500,-12.6500,-6.6200,-13.5200,-1.8817,-5.5076,3.3183,26.5625,9.0000,31.3750,279.1250,-63.3750,-177.1250,0
1776973300.405,11.4563,0.1508,5.9089,0.5804,0.3027,2.5253,-78.7500,-18.9000,-7.9500,13.7379,1.1205,2.3343,1.3296,-1.9713,-1.8093,-99.6000,-10.6500,0.4500,-16.1300,-11.0300,-13.2000,-2.1697,-5.4192,3.3216,26.5625,9.0000,31.3750,279.1250,-63.3750,-177.1250,0
1776973300.412,11.3820,-0.8116,5.6024,1.7403,0.4850,2.3766,-77.4000,-21.0000,-7.3500,13.7379,1.1205,2.3343,1.3296,-1.9713,-1.8093,-99.6000,-10.6500,0.4500,-14.0500,-8.3000,-14.1100,-2.5656,-5.1084,3.0914,26.5625,9.0000,31.3750,275.3750,-66.0625,-171.4375,0
1776973300.417,10.9870,-2.1332,5.8347,1.7403,0.4850,2.3766,-77.4000,-21.0000,-7.3500,15.3636,-0.5315,3.1819,0.6001,-1.8058,-1.9660,-99.6000,-10.6500,0.4500,-14.0500,-8.3000,-14.1100,-2.5656,-5.1084,3.0914,26.5625,9.0000,31.3750,271.8750,-68.1250,-165.0000,0
1776973300.426,10.9870,-2.1332,5.8347,2.5945,0.3914,2.1389,-77.4000,-21.0000,-7.3500,15.0069,-1.0511,3.6823,-0.1721,-1.5468,-1.9987,-99.1500,-9.7500,-1.0500,-11.5100,-11.0100,-12.7300,-2.7173,-4.4866,2.9278,26.5625,9.0000,31.3750,268.1875,-69.6875,-157.3750,0
1776973300.436,8.7867,-3.6440,7.4101,3.4379,0.0981,1.8583,-76.5000,-23.5500,-4.9500,13.1777,-0.6847,3.6990,-0.8985,-1.2769,-1.9241,-99.3000,-7.9500,-0.4500,1.6400,-11.3700,-8.2200,-3.0391,-3.9455,3.0020,26.5625,9.0000,31.3750,268.1875,-69.6875,-157.3750,0
1776973300.440,7.6351,-5.6575,7.1299,3.7974,0.1740,1.7014,-76.5000,-23.2500,-4.9500,13.1777,-0.6847,3.6990,-0.8985,-1.2769,-1.9241,-97.5000,-9.1500,-1.9500,1.6400,-11.3700,-8.2200,-3.0391,-3.9455,3.0020,26.5625,9.0000,31.3750,268.1875,-69.6875,-157.3750,0
1776973300.446,8.0613,-6.5721,7.4795,3.7974,0.1740,1.7014,-76.5000,-23.2500,-4.9500,12.1721,-0.4214,3.7373,-1.3387,-0.8639,-1.9215,-97.5000,-9.1500,-1.9500,-6.7100,-6.2000,-1.9000,-3.8365,-3.9248,3.1176,36.1875,0.5000,25.0625,264.0625,-70.8125,-148.1875,0
1776973300.450,8.0613,-6.5721,7.4795,3.7625,-0.0253,1.7821,-75.4500,-23.4000,-3.3000,12.1721,-0.4214,3.7373,-1.3387,-0.8639,-1.9215,-96.7500,-6.9000,-1.9500,-6.7100,-6.2000,-1.9000,-3.8365,-3.9248,3.1176,36.1875,0.5000,25.0625,264.0625,-70.8125,-148.1875,0
1776973300.455,6.1363,-7.0677,9.2871,3.7625,-0.0253,1.7821,-75.4500,-23.4000,-3.3000,11.0445,-0.2634,3.5578,-1.2279,-0.7826,-1.9084,-96.7500,-6.9000,-1.9500,-29.8600,-7.6900,-6.8800,-4.5280,-3.8212,1.7410,36.1875,0.5000,25.0625,260.4375,-72.0000,-139.6250,0
1776973300.460,6.1363,-7.0677,9.2871,4.1523,0.1569,1.8090,-74.7000,-25.0500,-1.8000,11.0445,-0.2634,3.5578,-1.2279,-0.7826,-1.9084,-97.3500,-6.0000,-1.3500,-29.8600,-7.6900,-6.8800,-3.5856,-1.2937,-0.3360,36.1875,0.5000,25.0625,258.3750,-72.6250,-136.5625,0
1776973300.466,6.5649,-5.5474,7.7931,4.1131,0.2310,1.5916,-74.7000,-25.0500,-1.8000,10.7571,0.4980,3.7781,-0.9971,-0.7202,-1.8751,-97.3500,-6.0000,-1.3500,-19.4100,-9.9600,-12.9900,-3.5856,-1.2937,-0.3360,36.1875,0.5000,25.0625,257.1250,-72.9375,-138.6875,0
1776973300.476,8.1475,-4.3144,6.3231,3.2085,0.0799,1.3195,-74.5500,-25.5000,-0.9000,10.5872,1.4461,3.0335,-0.6065,-0.7155,-1.8082,-97.3500,-6.0000,-1.3500,-10.3800,-12.5800,-8.1200,-3.2343,1.0374,-1.9940,36.1875,0.5000,25.0625,255.8750,-73.0000,-142.6875,0
1776973300.486,8.2073,-3.3902,5.8897,2.3137,-0.1801,1.1005,-74.1000,-25.9500,-0.9000,9.9192,3.1268,3.2082,-0.1466,-0.6214,-1.7861,-96.4500,-1.9500,-1.5000,-6.0200,-9.7400,-4.9700,-3.5692,2.0540,-2.6005,36.1875,0.5000,25.0625,255.8750,-73.0000,-142.6875,0
1776973300.491,8.2073,-3.3902,5.8897,2.3137,-0.1801,1.1005,-74.1000,-25.9500,-0.9000,10.8984,5.2912,3.0622,0.6987,-0.6387,-1.8426,-96.9000,-0.7500,-0.6000,-6.0200,-9.7400,-4.9700,-3.5692,2.0540,-2.6005,40.1875,-7.7500,18.8750,254.1250,-72.7500,-146.6250,0
1776973300.496,7.3837,-4.1539,5.2648,1.8095,-0.2473,0.9116,-74.1000,-25.9500,-0.9000,10.8984,5.2912,3.0622,0.6987,-0.6387,-1.8426,-96.9000,-0.7500,-0.6000,-3.9300,-4.3000,-3.6100,-3.9870,2.3409,-2.4904,40.1875,-7.7500,18.8750,254.1250,-72.7500,-146.6250,0
1776973300.501,7.3837,-4.1539,5.2648,1.8095,-0.2473,0.9116,-74.5500,-25.9500,1.2000,11.3557,6.5793,3.0861,1.3406,-0.7999,-1.9100,-99.3000,1.2000,0.4500,-3.9300,-4.3000,-3.6100,-3.9870,2.3409,-2.4904,40.1875,-7.7500,18.8750,252.4375,-72.3125,-150.0000,0
1776973300.506,7.1299,-4.5921,6.2944,1.8114,-0.4090,0.7101,-74.5500,-25.9500,1.2000,11.3557,6.5793,3.0861,1.3406,-0.7999,-1.9100,-99.3000,1.2000,0.4500,-3.6700,2.3700,-3.6700,-3.8354,2.3104,-2.2602,40.1875,-7.7500,18.8750,252.4375,-72.3125,-150.0000,0
1776973300.512,7.1299,-4.5921,6.2944,1.8114,-0.4090,0.7101,-74.5500,-25.9500,1.2000,11.3437,6.6607,2.4493,1.9803,-0.9686,-1.9606,-98.8500,2.4000,-0.1500,-3.6900,3.4000,-3.7900,-3.0783,2.2438,-2.0486,40.1875,-7.7500,18.8750,251.0625,-71.7500,-153.1875,0
1776973300.517,6.8043,-5.7030,6.4715,1.7166,-0.6137,0.4818,-73.3500,-26.7000,2.4000,11.3437,6.6607,2.4493,1.9803,-0.9686,-1.9606,-98.8500,2.4000,-0.1500,-3.6900,3.4000,-3.7900,-3.0783,2.2438,-2.0486,40.1875,-7.7500,18.8750,250.2500,-71.0000,-156.2500,0
1776973300.526,6.5170,-6.5314,6.6224,1.5071,-0.8058,0.2635,-73.3500,-26.7000,2.4000,10.5967,5.1451,0.5267,2.2737,-0.9406,-1.9668,-98.8500,2.4000,-0.1500,-3.3600,2.6400,-3.7500,-2.1053,2.2569,-1.7573,40.1875,-7.7500,18.8750,249.7500,-70.1250,-158.8750,0
1776973300.536,6.1746,-6.4548,6.4691,1.0379,-0.9848,0.1290,-71.8500,-26.7000,3.4500,11.3988,5.1547,1.3599,2.9338,-0.7645,-2.0328,-105.4500,4.9500,2.5500,-3.4900,0.9200,-3.9200,-1.3341,2.2929,-1.3450,40.1875,-7.7500,18.8750,249.7500,-70.1250,-158.8750,0
1776973300.541,6.1746,-6.4548,6.4691,1.0379,-0.9848,0.1290,-73.8000,-25.9500,3.0000,11.0038,3.9385,0.0958,3.4408,-0.8402,-2.0915,-106.3500,6.7500,4.9500,-3.4900,0.9200,-3.9200,-1.3341,2.2929,-1.3450,40.1875,-7.7500,18.8750,249.7500,-70.1250,-158.8750,0
1776973300.546,5.8299,-6.3518,6.4787,0.6765,-1.0645,0.0448,-73.8000,-25.9500,3.0000,11.0038,3.9385,0.0958,3.4408,-0.8402,-2.0915,-106.3500,6.7500,4.9500,-5.3400,-1.4700,-4.6500,-0.9828,2.3791,-0.8585,40.0000,-8.0625,22.0625,249.2500,-69.0625,-160.7500,0
1776973300.551,5.8299,-6.3518,6.4787,0.6765,-1.0645,0.0448,-73.2000,-28.9500,2.1000,11.5568,0.8380,-1.0702,3.5160,-0.7837,-2.0451,-109.8000,8.4000,7.2000,-5.3400,-1.4700,-4.6500,-0.9828,2.3791,-0.8585,40.0000,-8.0625,22.0625,249.2500,-69.0625,-160.7500,0
1776973300.556,5.6312,-6.6631,6.6702,0.3579,-1.1559,-0.0083,-73.2000,-28.9500,2.1000,11.5568,0.8380,-1.0702,3.5160,-0.7837,-2.0451,-109.8000,8.4000,7.2000,-6.1500,-1.8100,-4.9800,-0.9425,2.5733,-0.4734,40.0000,-8.0625,22.0625,248.5000,-67.8125,-162.0000,0
1776973300.561,5.6312,-6.6631,6.6702,0.3579,-1.1559,-0.0083,-73.2000,-28.9500,2.1000,9.6199,2.7222,2.2889,3.2988,-0.9012,-1.9540,-113.8500,12.4500,10.0500,-6.1500,-1.8100,-4.9800,-1.0057,2.8863,-0.2825,40.0000,-8.0625,22.0625,247.5625,-66.3125,-162.9375,0
1776973300.567,5.5330,-7.0078,6.7038,0.1053,-1.2737,-0.0448,-73.2000,-28.9500,2.1000,9.6199,2.7222,2.2889,3.2988,-0.9012,-1.9540,-114.7500,15.7500,10.9500,-6.3900,-1.9600,-5.1500,-1.0057,2.8863,-0.2825,40.0000,-8.0625,22.0625,246.4375,-64.6250,-163.8125,0
1776973300.576,5.4899,-7.0533,6.2513,-0.2747,-1.3872,-0.0967,-73.3500,-26.7000,0.4500,9.3087,3.4931,2.5331,3.6393,-0.7482,-1.7808,-114.7500,15.7500,10.9500,-5.5500,-2.3100,-4.3100,-1.0581,3.2354,-0.2803,40.0000,-8.0625,22.0625,245.3750,-62.8125,-164.6875,0
1776973300.586,5.4588,-6.5793,5.7533,-0.6526,-1.5298,-0.1290,-73.3500,-26.7000,0.4500,9.2727,3.2226,1.9058,3.2743,-0.5766,-1.7075,-114.7500,15.7500,10.9500,-5.2200,-2.3000,-3.7300,-1.0843,3.4841,-0.4145,40.0000,-8.0625,22.0625,245.3750,-62.8125,-164.6875,0
1776973300.591,5.3582,-5.7317,5.2218,-0.9358,-1.6811,-0.1990,-74.1000,-27.1500,0.9000,9.4068,2.8467,1.5490,3.2373,-0.5777,-1.6630,-118.3500,19.8000,13.8000,-5.2200,-2.3000,-3.7300,-1.0843,3.4841,-0.4145,40.0000,-8.0625,22.0625,245.3750,-62.8125,-164.6875,0
1776973300.596,5.3582,-5.7317,5.2218,-0.9358,-1.6811,-0.1990,-74.1000,-27.1500,0.9000,9.4068,2.8467,1.5490,3.2373,-0.5777,-1.6630,-118.3500,19.8000,13.8000,-4.9600,-2.2700,-2.9800,-1.1017,3.5921,-0.6087,36.0625,-8.1875,27.2500,244.2500,-61.0000,-165.6875,0
1776973300.600,5.0494,-4.7645,5.1092,-1.0632,-1.8463,-0.3309,-73.6500,-27.7500,-1.3500,9.7755,2.5379,1.0822,3.0281,-0.5899,-1.6182,-118.6500,21.0000,14.2500,-4.9600,-2.2700,-2.9800,-1.1017,3.5921,-0.6087,36.0625,-8.1875,27.2500,244.2500,-61.0000,-165.6875,0
1776973300.606,5.0494,-4.7645,5.1092,-1.0632,-1.8463,-0.3309,-73.6500,-27.7500,-1.3500,9.7755,2.5379,1.0822,3.0281,-0.5899,-1.6182,-121.5000,21.4500,14.7000,-4.5400,-1.8600,-2.3200,-1.1050,3.5965,-0.8312,36.0625,-8.1875,27.2500,243.2500,-59.1875,-166.6875,0
1776973300.610,4.5011,-3.6990,5.0470,-0.9761,-1.9462,-0.4724,-74.4000,-28.0500,-0.6000,9.2632,3.0047,1.1947,2.8495,-0.6752,-1.5319,-121.5000,21.4500,14.7000,-4.5400,-1.8600,-2.3200,-1.0221,3.4765,-1.0625,36.0625,-8.1875,27.2500,242.3750,-57.4375,-167.6875,0
1776973300.617,4.5011,-3.6990,5.0470,-0.9761,-1.9462,-0.4724,-74.4000,-28.0500,-0.6000,9.0166,1.3743,0.4118,2.7208,-0.6688,-1.5055,-119.4000,21.3000,13.8000,-4.9400,-1.5600,-2.4700,-1.0221,3.4765,-1.0625,36.0625,-8.1875,27.2500,241.8125,-55.7500,-168.8750,0
1776973300.626,4.3862,-2.8252,4.9153,-0.6344,-2.0107,-0.6265,-73.0500,-26.7000,-2.7000,8.6981,0.2083,0.0575,2.4075,-0.7101,-1.4813,-119.4000,21.3000,13.8000,-5.3200,-1.7300,-2.7300,-0.8443,3.3325,-1.2861,36.0625,-8.1875,27.2500,241.8125,-55.7500,-168.8750,0
1776973300.636,4.2713,-1.7119,4.7788,-0.0757,-2.0491,-0.8164,-75.1500,-26.5500,-4.3500,8.3701,-0.6393,-0.2538,2.1384,-0.6968,-1.5047,-119.1000,19.0500,10.6500,-5.7000,-2.2000,-3.1500,-0.6578,3.2474,-1.4519,36.0625,-8.1875,27.2500,241.5000,-54.1250,-170.1250,0
1776973300.641,4.3886,-0.8715,4.2353,0.3928,-2.0555,-1.0237,-74.8500,-25.9500,-4.2000,8.3701,-0.6393,-0.2538,2.1384,-0.6968,-1.5047,-119.1000,19.0500,10.6500,-5.7000,-2.2000,-3.1500,-0.6578,3.2474,-1.4519,36.0625,-8.1875,27.2500,241.5000,-54.1250,-170.1250,0
1776973300.646,4.3886,-0.8715,4.2353,0.3928,-2.0555,-1.0237,-74.8500,-25.9500,-4.2000,8.0086,-1.3096,-0.7829,1.8402,-0.6318,-1.5567,-118.3500,19.5000,12.4500,-5.2700,-2.7900,-3.1700,-0.5749,3.2441,-1.5446,31.5625,-10.1875,32.3750,241.3125,-52.5000,-171.3125,0
1776973300.651,4.5945,-0.8475,3.9720,0.9188,-2.0523,-1.2412,-74.8500,-25.9500,-4.2000,8.0086,-1.3096,-0.7829,1.8402,-0.6318,-1.5567,-118.3500,19.5000,12.4500,-5.2700,-2.7900,-3.1700,-0.5749,3.2441,-1.5446,31.5625,-10.1875,32.3750,241.3125,-52.5000,-171.3125,0
1776973300.656,4.5945,-0.8475,3.9720,0.9188,-2.0523,-1.2412,-74.8500,-25.9500,-4.2000,7.6926,-0.8499,-1.0295,1.5886,-0.5660,-1.6113,-118.9500,19.6500,11.5500,-5.0300,-2.5400,-3.3400,-0.6010,3.2332,-1.5555,31.5625,-10.1875,32.3750,241.0625,-50.8125,-172.3750,0
1776973300.661,4.8100,-1.6735,3.8499,1.4024,-2.0384,-1.4136,-76.6500,-26.5500,-5.8500,7.6926,-0.8499,-1.0295,1.5886,-0.5660,-1.6113,-118.9500,19.6500,11.5500,-5.0300,-2.5400,-3.3400,-0.6141,3.1481,-1.5195,31.5625,-10.1875,32.3750,240.8125,-49.1875,-173.3125,0
1776973300.667,5.0901,-2.9497,4.0127,1.4024,-2.0384,-1.4136,-76.6500,-26.5500,-5.8500,7.4675,-0.0263,-1.2474,1.3566,-0.4226,-1.6305,-117.4500,20.4000,9.7500,-5.1100,-2.1100,-3.5800,-0.6141,3.1481,-1.5195,31.5625,-10.1875,32.3750,240.6250,-47.6250,-174.1250,0
1776973300.676,5.4971,-4.0725,4.2018,1.7488,-2.0286,-1.5191,-76.8000,-26.7000,-6.7500,7.6543,0.4501,-1.2785,1.2340,-0.3714,-1.6473,-117.3000,20.2500,10.9500,-5.7400,-2.4700,-4.5000,-0.5323,3.0609,-1.4933,31.5625,-10.1875,32.3750,240.6250,-47.6250,-174.1250,0
1776973300.686,5.8371,-4.7501,4.2329,1.9681,-2.0195,-1.5471,-76.8000,-25.2000,-5.7000,7.0437,0.3472,-1.5562,1.0912,-0.3629,-1.6108,-117.3000,20.2500,10.9500,-5.7800,-3.2800,-4.6200,-0.3742,3.0205,-1.5381,31.5625,-10.1875,32.3750,240.6875,-46.0000,-175.0000,0
1776973300.691,5.8371,-4.7501,4.2329,1.9718,-2.0456,-1.5543,-76.9500,-23.8500,-5.5500,7.0437,0.3472,-1.5562,1.0912,-0.3629,-1.6108,-117.3000,20.2500,10.9500,-5.7800,-3.2800,-4.6200,-0.3742,3.0205,-1.5381,31.5625,-10.1875,32.3750,240.6875,-46.0000,-175.0000,0
1776973300.696,5.8730,-4.9943,3.7661,1.9718,-2.0456,-1.5543,-76.9500,-23.8500,-5.5500,7.0629,0.7254,-1.1253,1.0768,-0.2705,-1.5434,-117.1500,19.9500,10.0500,-5.3900,-3.9500,-4.4900,-0.2793,3.0358,-1.6712,26.0625,-10.7500,36.0000,249.1875,-44.4375,-175.9375,0
1776973300.701,5.8730,-4.9943,3.7661,1.7834,-2.0765,-1.5591,-76.6500,-24.1500,-6.6000,7.0629,0.7254,-1.1253,1.0768,-0.2705,-1.5434,-117.1500,19.9500,10.0500,-5.3900,-3.9500,-4.4900,-0.2793,3.0358,-1.6712,26.0625,-10.7500,36.0000,249.1875,-44.4375,-175.9375,0
1776973300.706,5.8442,-5.0877,3.5985,1.6294,-2.1093,-1.5668,-76.6500,-24.1500,-6.6000,6.5553,1.1420,-1.1875,0.9785,-0.1535,-1.4957,-117.1500,19.9500,9.0000,-4.8100,-3.8900,-4.3500,-0.2836,3.0085,-1.8610,26.0625,-10.7500,36.0000,248.0000,-42.8125,-176.8750,0
1776973300.712,5.8442,-5.0877,3.5985,1.6294,-2.1093,-1.5668,-78.3000,-23.5500,-6.7500,6.5553,1.1420,-1.1875,0.9022,-0.1668,-1.4509,-117.1500,19.9500,9.0000,-5.1600,-3.6700,-4.5800,-0.2705,2.9060,-2.0759,26.0625,-10.7500,36.0000,246.7500,-41.2500,-177.8125,0
1776973300.717,5.3702,-4.7238,3.5458,1.5023,-2.1514,-1.5940,-78.3000,-23.5500,-6.7500,6.9192,1.5586,-1.1229,0.9022,-0.1668,-1.4509,-115.5000,20.2500,9.6000,-5.1600,-3.6700,-4.5800,-0.2705,2.9060,-2.0759,26.0625,-10.7500,36.0000,245.4375,-39.7500,-178.8750,0
1776973300.726,5.2098,-3.9073,3.5075,1.4368,-2.1781,-1.6481,-78.3000,-23.5500,-6.7500,6.8019,1.7765,-1.1923,0.7799,-0.1394,-1.3965,-116.5500,21.7500,9.6000,-5.1700,-4.0100,-4.6300,-0.1571,2.8013,-2.3431,26.0625,-10.7500,36.0000,245.4375,-39.7500,-178.8750,0
1776973300.736,5.2648,-3.1196,3.2298,1.4594,-2.1965,-1.7445,-78.1500,-21.9000,-8.8500,6.6942,1.7741,-1.1349,0.6723,-0.0983,-1.3249,-116.5500,21.7500,9.6000,-4.7500,-4.6000,-4.4900,-0.0338,2.7293,-2.6387,26.0625,-10.7500,36.0000,243.9375,-38.2500,179.8750,0
1776973300.741,5.2648,-3.1196,3.2298,1.4594,-2.1965,-1.7445,-78.1500,-21.9000,-8.8500,6.6942,1.7741,-1.1349,0.6723,-0.0983,-1.3249,-116.5500,21.7500,9.6000,-4.7500,-4.6000,-4.4900,-0.0338,2.7293,-2.6387,26.0625,-10.7500,36.0000,242.3125,-36.7500,178.6250,0
1776973300.746,5.0949,-2.4493,3.1220,1.6198,-2.2191,-1.8594,-78.1500,-21.9000,-8.8500,6.6224,1.7597,-1.2761,0.6139,-0.0544,-1.2404,-116.2500,22.8000,9.9000,-4.1500,-5.0200,-4.4100,0.0131,2.6136,-2.9332,21.6875,-11.0625,40.0000,242.3125,-36.7500,178.6250,0
1776973300.751,5.0949,-2.4493,3.1220,1.6198,-2.2191,-1.8594,-80.5500,-22.8000,-9.7500,6.6224,1.7597,-1.2761,0.5883,0.0253,-1.1453,-116.2500,22.8000,9.9000,-4.1500,-5.0200,-4.4100,0.0131,2.6136,-2.9332,21.6875,-11.0625,40.0000,240.5625,-35.3750,177.3750,0
1776973300.756,5.0494,-1.8507,3.0646,1.8090,-2.2244,-1.9982,-80.5500,-22.8000,-9.7500,6.1316,1.5897,-1.3120,0.5883,0.0253,-1.1453,-116.4000,20.7000,7.9500,-3.9300,-4.8200,-4.3700,0.0065,2.4544,-3.1972,21.6875,-11.0625,40.0000,240.5625,-35.3750,177.3750,0
1776973300.761,5.0494,-1.8507,3.0646,1.8090,-2.2244,-1.9982,-80.5500,-19.6500,-9.0000,6.1316,1.5897,-1.3120,0.5710,0.1671,-1.0365,-116.4000,20.7000,7.9500,-3.9300,-4.8200,-4.3700,0.0196,2.3027,-3.4099,21.6875,-11.0625,40.0000,238.7500,-34.0000,176.1250,0
1776973300.767,5.1020,-1.7885,3.0861,2.0693,-2.2665,-2.1738,-80.5500,-19.6500,-9.0000,5.9520,1.4365,-1.6185,0.5710,0.1671,-1.0365,-115.2000,21.4500,9.3000,-3.5800,-4.6100,-4.4400,0.0196,2.3027,-3.4099,21.6875,-11.0625,40.0000,236.8125,-32.6250,174.8750,0
1776973300.776,5.0949,-1.9345,3.0837,2.2897,-2.3004,-2.3454,-80.8500,-18.3000,-10.6500,5.6982,1.2330,-1.8148,0.5649,0.2403,-0.9241,-113.4000,22.9500,8.7000,-3.3800,-4.3400,-4.8100,0.0709,2.1511,-3.5605,21.6875,-11.0625,40.0000,236.8125,-32.6250,174.8750,0
1776973300.786,5.3534,-2.5115,3.1484,2.4437,-2.3052,-2.5077,-82.6500,-19.0500,-9.1500,5.8012,1.0080,-1.9585,0.6214,0.3621,-0.8021,-117.1500,22.2000,9.3000,-3.2600,-4.2200,-5.0700,0.1407,2.0235,-3.6357,21.6875,-11.0625,40.0000,234.8750,-31.3125,173.5625,0
1776973300.791,5.6527,-3.2370,3.2561,2.4437,-2.3052,-2.5077,-82.6500,-18.7500,-11.4000,5.4372,0.7374,-1.9776,0.5590,0.3802,-0.6715,-117.1500,22.2000,9.3000,-3.2600,-4.2200,-5.0700,0.1407,2.0235,-3.6357,21.6875,-11.0625,40.0000,232.9375,-30.0000,172.3750,0
1776973300.796,5.6527,-3.2370,3.2561,2.5210,-2.3670,-2.6574,-82.6500,-18.7500,-11.4000,5.4372,0.7374,-1.9776,0.5590,0.3802,-0.6715,-117.1500,22.2000,9.3000,-3.3500,-3.8500,-5.6000,0.2171,1.9319,-3.6401,17.2500,-10.2500,41.3750,232.9375,-30.0000,172.3750,0
1776973300.801,5.7940,-3.9049,3.3303,2.5210,-2.3670,-2.6574,-83.4000,-17.1000,-12.4500,5.3295,0.7518,-1.9656,0.5865,0.4357,-0.5340,-117.1500,22.2000,9.3000,-3.3500,-3.8500,-5.6000,0.2171,1.9319,-3.6401,17.2500,-10.2500,41.3750,231.0625,-28.6875,171.1250,0
1776973300.806,5.7940,-3.9049,3.3303,2.5130,-2.4149,-2.7531,-83.4000,-17.1000,-12.4500,5.3295,0.7518,-1.9656,0.5865,0.4357,-0.5340,-115.8000,22.8000,9.6000,-4.0400,-3.3200,-7.1000,0.3262,1.8773,-3.5801,17.2500,-10.2500,41.3750,231.0625,-28.6875,171.1250,0
1776973300.814,6.1172,-4.7477,3.3016,2.4213,-2.4472,-2.8205,-83.4000,-17.1000,-12.4500,5.3463,0.6416,-2.1189,0.5007,0.5321,-0.3802,-115.2000,22.6500,9.0000,-4.5900,-3.4800,-7.9800,0.4865,1.8991,-3.4830,17.2500,-10.2500,41.3750,229.3125,-27.3125,169.9375,0
1776973300.819,6.1172,-4.7477,3.3016,2.4213,-2.4472,-2.8205,-83.4000,-17.1000,-12.4500,5.3463,0.6416,-2.1189,0.4293,0.5740,-0.2281,-115.2000,22.6500,9.0000,-4.5900,-3.4800,-7.9800,0.4865,1.8991,-3.4830,17.2500,-10.2500,41.3750,227.6250,-25.8750,168.8125,0
1776973300.827,6.5505,-5.3008,3.3926,2.1823,-2.4794,-2.8650,-84.4500,-14.5500,-12.7500,5.3463,0.6584,-2.2027,0.4293,0.5740,-0.2281,-115.6500,22.2000,10.8000,-4.9700,-3.5300,-8.6800,0.6512,2.0377,-3.3510,17.2500,-10.2500,41.3750,226.0625,-24.3125,167.6875,0
1776973300.837,7.3023,-5.8682,3.0957,1.7611,-2.5242,-2.9066,-84.0000,-13.5000,-13.5000,5.4085,0.5555,-2.0973,0.3579,0.6139,-0.0616,-115.9500,22.6500,9.3000,-4.9800,-3.3700,-9.1200,0.7756,2.2580,-3.2005,17.2500,-10.2500,41.3750,226.0625,-24.3125,167.6875,0
1776973300.842,7.9942,-6.1411,3.1292,1.2545,-2.5996,-2.9340,-85.5000,-15.0000,-13.5000,5.2792,0.5483,-1.8148,0.2880,0.6843,0.0917,-115.9500,22.6500,9.3000,-4.9800,-3.3700,-9.1200,0.7756,2.2580,-3.2005,17.2500,-10.2500,41.3750,224.6250,-22.5625,166.6250,0
1776973300.847,7.9942,-6.1411,3.1292,1.2545,-2.5996,-2.9340,-85.5000,-15.0000,-13.5000,5.2792,0.5483,-1.8148,0.2880,0.6843,0.0917,-115.9500,22.6500,9.3000,-4.6800,-2.1500,-9.7600,0.8792,2.4816,-3.0161,14.8750,-9.8750,44.5625,224.6250,-22.5625,166.6250,0
1776973300.851,8.3079,-6.2632,2.8754,0.6515,-2.6628,-2.9572,-83.7000,-12.3000,-14.2500,5.4684,0.4573,-1.9249,0.1716,0.7317,0.2414,-115.9500,22.6500,9.3000,-4.6800,-2.1500,-9.7600,0.8792,2.4816,-3.0161,14.8750,-9.8750,44.5625,224.6250,-22.5625,166.6250,0
1776973300.857,8.3079,-6.2632,2.8754,0.6515,-2.6628,-2.9572,-83.7000,-12.3000,-14.2500,5.4684,0.4573,-1.9249,0.1716,0.7317,0.2414,-117.1500,21.9000,9.7500,-4.6600,-1.5900,-10.1500,1.0287,2.6584,-2.7827,14.8750,-9.8750,44.5625,223.3750,-20.7500,165.5625,0
1776973300.862,8.7771,-6.0454,2.6432,0.1053,-2.7262,-2.9796,-85.3500,-10.9500,-17.4000,5.4324,0.5339,-1.7095,0.1135,0.7613,0.3757,-118.3500,22.0500,9.9000,-4.6600,-1.5900,-10.1500,1.2119,2.7925,-2.4936,14.8750,-9.8750,44.5625,222.3125,-18.9375,164.5625,0
1776973300.867,8.7771,-6.0454,2.6432,0.1053,-2.7262,-2.9796,-85.3500,-10.9500,-17.4000,5.4324,0.5339,-1.7095,0.0714,1.0709,0.5180,-118.3500,22.0500,9.9000,-4.8500,-1.6800,-10.6300,1.2119,2.7925,-2.4936,14.8750,-9.8750,44.5625,221.4375,-17.0625,163.5625,0
1776973300.877,8.9687,-5.6216,2.3918,-0.4349,-2.7797,-3.0369,-85.5000,-10.3500,-18.6000,4.5035,0.1365,-1.7549,0.0714,1.0709,0.5180,-118.5000,21.9000,10.0500,-5.2400,-2.7700,-11.3000,1.3450,2.9114,-2.1740,14.8750,-9.8750,44.5625,221.4375,-17.0625,163.5625,0
1776973300.887,9.2440,-4.8387,2.1691,-0.8828,-2.7627,-3.1104,-85.5000,-10.3500,-18.6000,5.7796,0.1484,-1.9585,-0.1620,0.9529,0.8234,-119.2500,21.4500,11.5500,-5.5800,-2.7600,-11.7000,1.3679,3.0052,-1.8380,14.8750,-9.8750,44.5625,220.7500,-15.1250,162.6875,0
1776973300.891,9.2632,-3.5937,2.0207,-1.2449,-2.7179,-3.1765,-84.4500,-6.7500,-20.8500,6.2369,0.1221,-2.3439,-0.1620,0.9529,0.8234,-118.9500,22.6500,11.5500,-5.5800,-2.7600,-11.7000,1.3679,3.0052,-1.8380,14.8750,-9.8750,44.5625,220.7500,-15.1250,162.6875,0
1776973300.896,9.2632,-3.5937,2.0207,-1.2449,-2.7179,-3.1765,-84.4500,-6.7500,-20.8500,6.3734,0.1317,-2.5211,-0.2947,1.0581,0.9856,-118.9500,22.6500,11.5500,-5.7600,-2.5600,-11.8600,1.3701,3.0456,-1.5272,12.5000,-9.0625,47.8750,220.3125,-13.3125,161.8750,0
1776973300.901,9.8282,-2.6121,1.5850,-1.5942,-2.5882,-3.2476,-84.4500,-6.7500,-20.8500,6.3734,0.1317,-2.5211,-0.2947,1.0581,0.9856,-118.9500,22.6500,11.5500,-5.7600,-2.5600,-11.8600,1.3701,3.0456,-1.5272,12.5000,-9.0625,47.8750,220.3125,-13.3125,161.8750,0
1776973300.906,9.8282,-2.6121,1.5850,-1.5942,-2.5882,-3.2476,-84.4500,-6.7500,-20.8500,7.1180,0.3974,-2.9544,-0.2960,1.2396,1.1527,-118.9500,22.6500,11.5500,-5.6700,-2.4900,-11.8200,1.4475,3.0358,-1.2490,12.5000,-9.0625,47.8750,219.9375,-11.4375,161.0000,0
1776973300.913,10.4675,-2.2889,1.0319,-1.7197,-2.4384,-3.3268,-84.0000,-5.2500,-23.4000,7.1180,0.3974,-2.9544,-0.2960,1.2396,1.1527,-119.8500,21.7500,11.7000,-6.5400,-3.3500,-12.0700,1.6024,2.9420,-0.9785,12.5000,-9.0625,47.8750,219.7500,-9.7500,160.1250,0
1776973300.918,10.5512,-1.8052,1.1803,-1.4352,-2.2092,-3.3460,-84.0000,-5.2500,-23.4000,7.6088,0.9098,-3.2896,-0.3190,1.2156,1.3190,-119.8500,21.7500,11.7000,-6.5400,-3.3500,-12.0700,1.6024,2.9420,-0.9785,12.5000,-9.0625,47.8750,219.7500,-8.1250,159.1875,0
1776973300.927,10.3717,-0.8739,0.7590,-1.1455,-2.0272,-3.3092,-84.7500,-0.9000,-26.1000,7.8578,1.5371,-3.6775,-0.2571,1.1922,1.4264,-119.2500,20.4000,12.9000,-7.8600,-4.9600,-12.4000,1.7606,2.8045,-0.7210,12.5000,-9.0625,47.8750,219.8125,-6.6250,158.1875,0
1776973300.937,10.5632,-0.0359,0.9313,-0.9196,-1.8791,-3.2431,-84.0000,0.4500,-27.9000,8.3797,2.4277,-4.0127,-0.2489,1.3544,1.4741,-121.5000,19.9500,12.1500,-9.0900,-6.2900,-12.5100,1.8184,2.7543,-0.5203,12.5000,-9.0625,47.8750,219.8125,-6.6250,158.1875,0
1776973300.942,10.5632,-0.0359,0.9313,-0.9196,-1.8791,-3.2431,-82.6500,2.7000,-27.7500,8.3797,2.4277,-4.0127,-0.2489,1.3544,1.4741,-121.9500,20.5500,12.7500,-9.0900,-6.2900,-12.5100,1.8184,2.7543,-0.5203,12.5000,-9.0625,47.8750,219.9375,-5.1250,157.2500,0
1776973300.947,10.8098,0.5842,0.9912,-0.8092,-1.7328,-3.1083,-82.6500,2.7000,-27.7500,9.7492,3.8188,-4.4173,-0.1847,1.4629,1.5489,-121.9500,20.5500,12.7500,-10.2300,-6.7400,-11.5500,1.7671,2.7914,-0.4243,7.5000,-6.5000,53.3750,219.9375,-5.1250,157.2500,0
1776973300.952,10.8098,0.5842,0.9912,-0.8092,-1.7328,-3.1083,-82.6500,2.7000,-27.7500,9.7492,3.8188,-4.4173,-0.1847,1.4629,1.5489,-121.9500,20.5500,12.7500,-10.2300,-6.7400,-11.5500,1.7671,2.7914,-0.4243,7.5000,-6.5000,53.3750,220.0000,-3.5625,156.3750,0
1776973300.957,11.2504,0.7087,1.0199,-0.6707,-1.5460,-2.9018,-82.6500,2.7000,-27.7500,10.4196,5.3965,-5.3367,0.0131,1.4794,1.6113,-121.9500,20.5500,12.7500,-10.3400,-5.7800,-10.6000,1.6821,2.7893,-0.4701,7.5000,-6.5000,53.3750,220.0000,-3.5625,156.3750,0
1776973300.961,11.2504,0.7087,1.0199,-0.6707,-1.5460,-2.9018,-82.6500,2.7000,-27.7500,10.4196,5.3965,-5.3367,0.0131,1.4794,1.6113,-121.8000,22.2000,15.0000,-10.3400,-5.7800,-10.6000,1.6581,2.6267,-0.6360,7.5000,-6.5000,53.3750,220.0000,-2.1250,155.4375,0
1776973300.967,11.2144,0.8452,1.0295,-0.3698,-1.3688,-2.6143,-83.1000,3.4500,-29.2500,11.0636,7.0006,-5.6000,0.2595,1.3518,1.5660,-121.8000,22.2000,15.0000,-10.6300,-4.6000,-9.6900,1.6581,2.6267,-0.6360,7.5000,-6.5000,53.3750,219.8125,-0.7500,154.5000,0
1776973300.977,10.8290,0.8571,0.8308,-0.0123,-1.1991,-2.2572,-83.1000,3.4500,-29.2500,11.7819,8.0110,-5.2744,0.3190,1.1415,1.4837,-122.7000,21.7500,14.5500,-12.3400,-2.5900,-8.0600,1.7191,2.3202,-0.8476,7.5000,-6.5000,53.3750,219.5000,0.4375,153.5000,0
1776973300.987,10.3525,0.4046,0.6584,0.2822,-0.9214,-1.8874,-84.6000,9.0000,-30.3000,12.0740,9.0860,-4.5849,0.1178,1.0144,1.3696,-124.3500,22.2000,16.2000,-13.4700,-2.1000,-7.0500,1.8217,1.9340,-1.0701,7.5000,-6.5000,53.3750,219.5000,0.4375,153.5000,0
1776973300.992,10.3525,0.4046,0.6584,0.2822,-0.9214,-1.8874,-84.6000,9.0000,-30.3000,12.0740,9.0860,-4.5849,0.1178,1.0144,1.3696,-122.1000,25.6500,15.7500,-13.4700,-2.1000,-7.0500,1.8217,1.9340,-1.0701,7.5000,-6.5000,53.3750,219.5000,0.4375,153.5000,0
1776973300.997,9.5768,0.0742,2.0638,0.5692,-0.6230,-1.4863,-84.1500,7.8000,-31.3500,12.1194,9.7492,-4.1492,-0.2438,1.1085,1.1437,-122.1000,25.6500,15.7500,-14.2200,-1.9000,-5.7100,1.8697,1.5086,-1.3046,1.5000,-1.8750,56.2500,218.9375,1.5000,152.4375,0
1776973301.002,9.5768,0.0742,2.0638,0.5692,-0.6230,-1.4863,-84.1500,7.8000,-31.3500,12.1194,9.7492,-4.1492,-0.2438,1.1085,1.1437,-123.1500,27.3000,14.2500,-14.2200,-1.9000,-5.7100,1.8697,1.5086,-1.3046,1.5000,-1.8750,56.2500,218.9375,1.5000,152.4375,0
1776973301.007,10.1897,0.8906,1.7286,0.2721,-0.2065,-1.1383,-83.7000,9.4500,-30.4500,11.6119,10.1801,-3.6224,-0.5993,1.0003,0.9348,-123.1500,27.3000,14.2500,-14.7100,-1.1900,-4.3600,1.7541,0.9916,-1.4824,1.5000,-1.8750,56.2500,218.2500,2.3750,151.5000,0
1776973301.015,11.6358,0.4693,0.2849,0.0858,-0.1588,-0.6795,-82.3500,8.5500,-31.0500,11.4251,10.5608,-3.5769,-0.7144,1.1762,0.7869,-123.1500,27.3000,14.2500,-18.7300,-7.6200,1.4700,1.3537,0.3185,-1.6493,1.5000,-1.8750,56.2500,217.3750,2.9375,150.8125,0
1776973301.020,11.6358,0.4693,0.2849,0.0858,-0.1588,-0.6795,-82.3500,8.5500,-31.0500,11.4251,10.5608,-3.5769,-0.7144,1.1762,0.7869,-120.7500,30.4500,12.9000,-18.7300,-7.6200,1.4700,1.3537,0.3185,-1.6493,1.5000,-1.8750,56.2500,216.1875,2.5000,151.0625,0
1776973301.027,8.4324,1.0630,3.2130,0.5697,0.3608,0.0613,-82.5000,9.4500,-31.9500,10.9367,10.2759,-4.0606,-0.6022,1.2444,0.6829,-120.7500,30.4500,12.9000,-23.5700,-2.1800,6.4900,-0.3676,-1.8490,-1.6624,1.5000,-1.8750,56.2500,214.9375,1.2500,152.0625,0
1776973301.037,11.1570,4.8890,-0.6201,0.6395,1.1111,0.6254,-82.9500,7.5000,-30.1500,13.0819,10.2161,-3.5674,-0.3099,1.6252,0.7663,-118.2000,30.9000,13.6500,-28.3500,5.3300,6.4100,-1.6777,-3.3227,-1.3974,1.5000,-1.8750,56.2500,214.9375,1.2500,152.0625,0
1776973301.042,19.0291,6.6439,-13.7643,-0.2300,0.5907,0.4642,-82.9500,7.5000,-30.1500,15.7155,8.9352,-2.8443,-0.4519,2.0219,1.1048,-118.5000,30.1500,13.3500,-28.3500,5.3300,6.4100,-1.6777,-3.3227,-1.3974,-1.8750,3.3750,59.2500,213.6875,-0.3125,153.1875,0
1776973301.047,19.0291,6.6439,-13.7643,-0.2300,0.5907,0.4642,-82.9500,7.5000,-30.1500,15.7155,8.9352,-2.8443,-0.4519,2.0219,1.1048,-118.5000,30.1500,13.3500,-2.2200,4.2500,-14.6000,-2.0355,-3.9870,-1.2599,-1.8750,3.3750,59.2500,213.6875,-0.3125,153.1875,0
1776973301.052,17.8105,6.1196,-16.4937,0.3792,-0.0791,0.0693,-82.9500,7.5000,-30.1500,15.2008,8.1187,-3.7948,-0.7693,1.6371,1.3390,-118.9500,30.1500,12.9000,-2.2200,4.2500,-14.6000,-2.0355,-3.9870,-1.2599,-1.8750,3.3750,59.2500,212.5000,-2.3125,154.0625,0
1776973301.057,17.8105,6.1196,-16.4937,0.3792,-0.0791,0.0693,-82.6500,6.9000,-27.7500,15.2008,8.1187,-3.7948,-0.7693,1.6371,1.3390,-118.9500,30.1500,12.9000,0.1200,-7.3000,-21.6200,-1.6264,-4.5269,-1.0919,-1.8750,3.3750,59.2500,212.5000,-2.3125,154.0625,0
1776973301.062,8.1475,-0.5842,-9.7755,2.1341,0.4549,-0.0085,-82.6500,6.9000,-27.7500,14.1497,7.9200,-4.3144,-0.5785,0.9737,1.2614,-118.9500,30.1500,12.9000,0.1200,-7.3000,-21.6200,-0.8792,-4.5237,-0.3392,-1.8750,3.3750,59.2500,211.7500,-4.5000,154.4375,0
1776973301.068,8.1475,-0.5842,-9.7755,2.1341,0.4549,-0.0085,-82.6500,6.9000,-27.7500,14.1497,7.9200,-4.3144,-0.5785,0.9737,1.2614,-118.9500,30.1500,12.9000,-9.9000,-0.2700,-14.8700,-0.8792,-4.5237,-0.3392,-1.8750,3.3750,59.2500,211.5625,-6.6875,154.9375,0
1776973301.077,10.6949,-6.7229,-11.6334,1.9289,0.8692,0.3762,-82.3500,6.6000,-29.8500,15.1912,7.5250,-4.4317,0.3435,0.9150,1.3315,-117.6000,30.3000,10.2000,-6.2100,12.3200,-15.8800,-0.9218,-4.1255,0.6981,-1.8750,3.3750,59.2500,211.5625,-6.6875,154.9375,0
1776973301.087,14.7531,-7.0773,-10.3597,0.7682,0.8583,0.6483,-83.8500,6.9000,-28.0500,16.5056,6.4189,-5.2553,1.3688,0.8876,1.5820,-119.4000,27.3000,11.4000,-6.9300,5.7500,-18.9400,-0.4167,-3.9335,0.9370,-1.8750,3.3750,59.2500,211.6250,-8.8750,155.0625,0
1776973301.092,12.6869,-3.6033,-3.0071,0.6515,1.1450,0.7741,-83.8500,6.9000,-28.0500,16.9988,4.6256,-5.9520,2.4728,0.7152,1.6691,-117.7500,30.1500,10.5000,-6.9300,5.7500,-18.9400,-0.4167,-3.9335,0.9370,-1.8750,3.3750,59.2500,211.8125,-11.1875,154.8125,0
1776973301.097,12.6869,-3.6033,-3.0071,0.6515,1.1450,0.7741,-84.1500,6.1500,-28.0500,16.9988,4.6256,-5.9520,2.4728,0.7152,1.6691,-118.3500,26.5500,9.1500,-12.2700,1.1200,-17.3300,0.3360,-3.9783,1.2741,8.0625,3.3750,62.1875,211.8125,-11.1875,154.8125,0
1776973301.102,12.6414,2.3080,1.6041,0.3984,1.4402,0.9142,-84.1500,6.1500,-28.0500,15.7012,2.1596,-5.6240,3.3771,0.2297,1.5255,-118.3500,26.5500,9.1500,-12.2700,1.1200,-17.3300,0.3360,-3.9783,1.2741,8.0625,3.3750,62.1875,212.3125,-13.3750,154.5000,0
1776973301.107,12.6414,2.3080,1.6041,0.3984,1.4402,0.9142,-84.4500,4.8000,-27.9000,15.7012,2.1596,-5.6240,3.3771,0.2297,1.5255,-118.0500,28.0500,8.5500,-10.7700,-4.0700,-14.4400,0.5836,-3.5986,1.6188,8.0625,3.3750,62.1875,212.3125,-13.3750,154.5000,0
1776973301.115,12.2607,7.1730,5.3008,0.3477,1.6390,0.9758,-84.4500,4.8000,-27.9000,14.3054,0.3687,-4.2401,3.9031,-0.3485,1.1706,-118.0500,28.0500,8.5500,-9.8600,-12.9400,-10.7300,0.6000,-3.0958,1.5053,8.0625,3.3750,62.1875,212.8125,-15.3125,154.1875,0
1776973301.120,10.8864,9.7851,5.6623,0.8343,1.6537,0.9355,-84.4500,4.8000,-27.9000,11.1426,-0.9888,-2.0590,3.4448,-0.6550,0.6787,-118.0500,28.0500,8.5500,-9.8600,-12.9400,-10.7300,0.6000,-3.0958,1.5053,8.0625,3.3750,62.1875,213.3125,-17.1250,154.0625,0
1776973301.127,10.0963,8.8298,2.6504,0.8343,1.6537,0.9355,-85.3500,4.2000,-25.0500,11.1426,-0.9888,-2.0590,3.4448,-0.6550,0.6787,-120.6000,27.0000,3.9000,-13.6900,-15.2900,-10.6400,0.2138,-2.9627,1.4508,8.0625,3.3750,62.1875,213.8125,-18.7500,154.3125,0
1776973301.137,10.1514,3.7828,1.0774,1.7224,1.4011,0.8372,-85.3500,4.2000,-25.0500,9.2296,-2.5498,-0.2131,2.0475,0.0019,0.2433,-121.9500,25.8000,5.2500,-10.5300,-9.4500,-8.8000,-0.3589,-2.5209,1.5708,8.0625,3.3750,62.1875,213.8125,-18.7500,154.3125,0
1776973301.142,10.1514,3.7828,1.0774,2.4909,1.2065,0.7461,-85.3500,4.2000,-25.0500,7.9344,-4.2425,2.6145,0.3725,-0.3893,-0.1721,-121.9500,25.8000,5.2500,-10.5300,-9.4500,-8.8000,-0.3589,-2.5209,1.5708,8.0625,3.3750,62.1875,213.8125,-18.7500,154.3125,0
1776973301.147,10.2065,-2.0830,1.6209,2.4909,1.2065,0.7461,-86.5500,1.9500,-24.0000,7.9344,-4.2425,2.6145,0.3725,-0.3893,-0.1721,-123.4500,21.3000,4.2000,-6.6000,-1.9600,-10.2500,-0.8268,-1.8151,1.3352,22.0000,3.3750,61.5000,214.2500,-20.0000,154.8750,0
1776973301.152,10.2065,-2.0830,1.6209,2.5151,1.1181,0.7592,-86.5500,1.9500,-24.0000,5.3989,-6.1028,6.6726,-1.7347,0.2262,-0.2915,-123.4500,21.3000,4.2000,-6.6000,-1.9600,-10.2500,-0.8268,-1.8151,1.3352,22.0000,3.3750,61.5000,214.2500,-20.0000,154.8750,0
1776973301.157,9.8641,-6.6702,1.7573,2.5151,1.1181,0.7592,-86.1000,1.9500,-24.0000,5.3989,-6.1028,6.6726,-1.7347,0.2262,-0.2915,-123.4500,18.3000,6.7500,-5.3900,-2.4600,-9.7700,-0.9479,-1.4072,1.1236,22.0000,3.3750,61.5000,214.6250,-20.9375,155.5000,0
1776973301.163,9.8641,-6.6702,1.7573,1.8754,1.1956,0.7608,-86.1000,1.9500,-24.0000,5.5809,-7.5992,8.0373,-2.9543,0.6856,-0.0887,-123.4500,18.3000,6.7500,-5.2500,-2.3000,-10.2300,-0.8858,-1.1606,0.9239,22.0000,3.3750,61.5000,214.8750,-21.7500,156.0625,0
1776973301.168,10.8146,-9.3158,2.0949,0.7538,1.2753,0.7735,-86.2500,0.9000,-23.4000,5.9113,-7.5274,7.2927,-2.2452,0.7139,0.2950,-123.4500,18.3000,6.7500,-5.2500,-2.3000,-10.2300,-0.8858,-1.1606,0.9239,22.0000,3.3750,61.5000,215.0625,-22.5000,156.5000,0
1776973301.177,11.0373,-7.8578,1.6496,-0.4682,1.2516,0.7160,-86.5500,0.7500,-22.2000,5.9855,-5.9376,4.4269,-1.2257,1.1868,0.6582,-123.4500,18.3000,6.7500,-6.1000,-1.0700,-10.6200,-0.7538,-1.0919,0.7210,22.0000,3.3750,61.5000,215.1875,-23.0625,156.8750,0
1776973301.187,10.5393,-4.3335,1.8364,-1.4328,1.1687,0.5588,-87.3000,-0.7500,-21.7500,7.7285,-4.6328,2.1548,-0.1540,1.4917,0.8735,-116.7000,0.9000,7.6500,-5.4400,-3.1600,-9.5000,-0.5585,-0.8967,0.5291,22.0000,3.3750,61.5000,215.1875,-23.0625,156.8750,0
1776973301.192,10.5393,-4.3335,1.8364,-1.4328,1.1687,0.5588,-87.3000,-0.7500,-21.7500,7.7285,-4.6328,2.1548,-0.1540,1.4917,0.8735,-116.7000,0.9000,7.6500,-5.4400,-3.1600,-9.5000,-0.5585,-0.8967,0.5291,22.0000,3.3750,61.5000,215.3125,-23.4375,157.0625,0
1776973301.197,9.8569,-0.8811,1.9321,-1.8703,1.0536,0.4535,-87.4500,-0.1500,-20.1000,7.9368,-3.7326,1.1396,0.4844,1.3606,1.0373,-112.6500,-2.4000,9.0000,-4.9600,-3.3900,-9.1100,-0.2891,-0.6185,0.3687,29.5625,0.5000,62.0000,215.3125,-23.4375,157.0625,0
1776973301.202,9.8569,-0.8811,1.9321,-1.8703,1.0536,0.4535,-87.4500,-0.1500,-20.1000,7.9368,-3.7326,1.1396,0.4844,1.3606,1.0373,-112.6500,-2.4000,9.0000,-4.9600,-3.3900,-9.1100,-0.2891,-0.6185,0.3687,29.5625,0.5000,62.0000,215.3125,-23.4375,157.0625,0
1776973301.207,9.7061,2.3774,1.7741,-1.9172,0.9462,0.5188,-87.4500,-0.1500,-20.1000,8.0445,-2.9616,0.4094,0.5702,1.3925,1.1708,-109.9500,-6.0000,7.3500,-4.5500,-2.8400,-8.9600,-0.1756,-0.3883,0.2596,29.5625,0.5000,62.0000,215.3750,-23.6875,157.1250,0
1776973301.215,9.7803,4.5825,1.5514,-1.6478,0.8780,0.6731,-87.7500,-1.6500,-20.1000,8.0445,-2.9616,0.4094,0.5702,1.3925,1.1708,-105.7500,-8.4000,6.1500,-4.4000,-3.4500,-8.5800,-0.1320,-0.2771,0.2007,29.5625,0.5000,62.0000,215.4375,-23.8750,157.2500,0
1776973301.220,9.7803,4.5825,1.5514,-1.6478,0.8780,0.6731,-87.7500,-1.6500,-20.1000,9.8904,-1.6783,0.2466,0.4402,1.4189,1.2644,-105.7500,-8.4000,6.1500,-4.4000,-3.4500,-8.5800,-0.1320,-0.2771,0.2007,29.5625,0.5000,62.0000,215.5000,-24.0625,157.3125,0
1776973301.228,9.5505,5.2888,0.7518,-1.0581,0.8388,0.7576,-87.0000,-1.3500,-20.8500,10.3214,0.4214,0.8092,0.1700,1.0496,1.2073,-105.7500,-8.4000,6.1500,-4.5600,-3.3900,-8.5800,-0.1134,-0.2334,0.1593,29.5625,0.5000,62.0000,215.5625,-24.1875,157.3750,0
1776973301.237,9.6941,5.3582,-0.0168,-0.4114,0.7925,0.7186,-88.3500,0.0000,-19.9500,11.6119,2.3750,0.4142,-0.3107,0.9150,1.1471,-101.4000,-10.2000,6.4500,-4.4400,-3.3600,-8.5200,-0.1124,-0.1974,0.1211,29.5625,0.5000,62.0000,215.5625,-24.1875,157.3750,0
1776973301.242,9.6941,5.3582,-0.0168,-0.4114,0.7925,0.7186,-88.3500,0.0000,-19.9500,11.6119,2.3750,0.4142,-0.3107,0.9150,1.1471,-101.4000,-10.2000,6.4500,-4.4400,-3.3600,-8.5200,-0.1124,-0.1974,0.1211,30.8750,-1.8750,60.3750,215.5625,-24.2500,157.5000,0
1776973301.248,9.7037,3.6272,-0.6081,0.1183,0.7405,0.6520,-88.9500,0.1500,-19.8000,11.4874,4.7908,0.7781,-0.3834,0.7815,0.9334,-100.3500,-13.2000,4.0500,-4.1400,-3.1200,-8.4700,-0.1287,-0.1538,0.0905,30.8750,-1.8750,60.3750,215.5625,-24.2500,157.5000,0
1776973301.252,9.7037,3.6272,-0.6081,0.1183,0.7405,0.6520,-88.9500,0.1500,-19.8000,11.4874,4.7908,0.7781,-0.3834,0.7815,0.9334,-100.3500,-13.2000,4.0500,-4.1400,-3.1200,-8.4700,-0.1287,-0.1538,0.0905,30.8750,-1.8750,60.3750,215.5625,-24.3125,157.5625,0
1776973301.257,9.3589,1.7813,-1.0080,0.4655,0.7205,0.6430,-87.7500,-1.6500,-17.1000,11.4132,5.6982,0.8739,-0.8577,0.6872,0.6800,-99.9000,-13.8000,5.7000,-4.0100,-2.9400,-8.5200,-0.1527,-0.1200,0.0665,30.8750,-1.8750,60.3750,215.5625,-24.3125,157.5625,0
1776973301.263,9.2009,0.8643,-1.6735,0.5521,0.7456,0.6877,-87.7500,-1.6500,-17.1000,11.4132,5.6982,0.8739,-0.8577,0.6872,0.6800,-99.9000,-13.8000,5.7000,-3.9700,-2.7200,-8.5600,-0.1702,-0.0949,0.0524,30.8750,-1.8750,60.3750,215.5625,-24.3750,157.6875,0
1776973301.268,9.2009,0.8643,-1.6735,0.5521,0.7456,0.6877,-89.5500,-1.0500,-19.2000,9.6367,5.8251,0.9194,-1.2462,0.6635,0.5047,-101.4000,-13.2000,5.1000,-3.9700,-2.7200,-8.5600,-0.1702,-0.0949,0.0524,30.8750,-1.8750,60.3750,215.5625,-24.4375,157.7500,0
1776973301.277,9.0333,0.9002,-1.7310,0.4471,0.7794,0.7200,-89.5500,-1.0500,-19.2000,9.0812,5.6024,0.1173,-1.3278,0.6827,0.4615,-101.4000,-13.2000,5.1000,-3.9300,-2.7200,-8.5400,-0.1647,-0.0742,0.0436,30.8750,-1.8750,60.3750,215.5625,-24.4375,157.7500,0
1776973301.287,8.8801,1.4413,-1.4892,0.1748,0.8047,0.7328,-88.3500,-3.0000,-15.9000,8.8969,5.1092,-0.9290,-1.3238,0.6760,0.4852,-101.4000,-13.2000,5.1000,-3.7400,-2.7100,-8.5000,-0.1353,-0.0316,0.0338,30.8750,-1.8750,60.3750,215.5625,-24.5000,157.8125,0
1776973301.292,8.7484,1.8651,-1.0702,-0.1444,0.8394,0.7578,-88.3500,-3.0000,-15.9000,8.8969,5.1092,-0.9290,-1.3238,0.6760,0.4852,-101.4000,-13.2000,5.1000,-3.7400,-2.7100,-8.5000,-0.1353,-0.0316,0.0338,30.8750,-1.8750,60.3750,215.5625,-24.5000,157.8125,0
1776973301.297,8.7484,1.8651,-1.0702,-0.1444,0.8394,0.7578,-88.3500,-3.0000,-15.9000,8.4755,4.4341,-1.3096,-1.1727,0.7442,0.5329,-102.0000,-10.5000,8.1000,-3.6800,-2.9000,-8.4000,-0.1178,-0.0262,0.0349,32.2500,-1.8750,60.3750,215.5625,-24.5000,157.9375,0
1776973301.302,8.7101,2.2314,-0.8930,-0.4914,0.8455,0.7802,-88.3500,-3.0000,-15.9000,8.4755,4.4341,-1.3096,-1.1727,0.7442,0.5329,-102.0000,-10.5000,8.1000,-3.6800,-2.9000,-8.4000,-0.1178,-0.0262,0.0349,32.2500,-1.8750,60.3750,215.5625,-24.5000,157.9375,0
1776973301.307,8.7101,2.2314,-0.8930,-0.4914,0.8455,0.7802,-89.4000,-2.8500,-16.3500,8.7245,3.9528,-1.3408,-0.8972,0.7930,0.5375,-102.7500,-10.8000,9.1500,-3.6000,-3.0300,-8.2800,-0.1124,-0.0720,0.0447,32.2500,-1.8750,60.3750,215.5625,-24.5625,158.0000,0
1776973301.315,8.6143,2.8347,-0.5770,-0.7101,0.9443,0.8204,-89.4000,-2.8500,-16.3500,8.5952,3.4261,-0.8882,-0.7309,0.9547,0.5225,-103.5000,-10.0500,10.9500,-3.4300,-3.2900,-8.0800,-0.1156,-0.1189,0.0633,32.2500,-1.8750,60.3750,215.5625,-24.6250,158.0625,0
1776973301.320,8.7987,2.9664,-0.4262,-0.7101,0.9443,0.8204,-87.7500,-4.0500,-16.8000,8.5952,3.4261,-0.8882,-0.7309,0.9547,0.5225,-103.5000,-10.0500,10.9500,-3.4300,-3.2900,-8.0800,-0.1156,-0.1189,0.0633,32.2500,-1.8750,60.3750,215.6250,-24.7500,158.1250,0
1776973301.328,8.7987,2.9664,-0.4262,-0.8537,0.9870,0.8911,-89.7000,-3.6000,-15.6000,8.7005,2.9544,-0.5100,-0.4879,0.8764,0.4972,-105.6000,-8.5500,11.7000,-3.5800,-3.3000,-8.0600,-0.1396,-0.1778,0.0971,32.2500,-1.8750,60.3750,215.6250,-24.8750,158.2500,0
1776973301.338,8.8753,3.1196,-0.0479,-0.8076,1.0206,0.9731,-89.5500,-4.6500,-15.1500,8.6910,1.6041,-0.6488,-0.3960,0.9459,0.4335,-105.6000,-8.5500,11.7000,-3.7300,-3.1700,-8.1500,-0.1844,-0.2389,0.1353,32.2500,-1.8750,60.3750,215.6250,-24.8750,158.2500,0
1776973301.343,9.4092,2.8443,0.1101,-0.7045,1.0195,1.0384,-89.5500,-4.6500,-15.1500,9.3158,1.2594,-1.9273,-0.8314,1.4000,0.3829,-105.6000,-8.5500,11.7000,-3.7300,-3.1700,-8.1500,-0.1844,-0.2389,0.1353,32.1875,-2.6875,60.8750,215.6875,-25.0625,158.3750,0
1776973301.348,9.4092,2.8443,0.1101,-0.7045,1.0195,1.0384,-89.5500,-4.6500,-14.7000,9.3158,1.2594,-1.9273,-0.8314,1.4000,0.3829,-111.3000,-9.9000,16.8000,-3.8000,-3.3300,-8.0600,-0.2236,-0.2705,0.1658,32.1875,-2.6875,60.8750,215.6875,-25.0625,158.3750,0
1776973301.352,9.5170,2.6552,-0.1101,-0.5830,0.9510,1.0531,-89.5500,-4.6500,-14.7000,9.7683,0.4764,4.1061,0.7338,1.0110,-0.0083,-111.3000,-9.9000,16.8000,-3.8000,-3.3300,-8.0600,-0.2236,-0.2705,0.1658,32.1875,-2.6875,60.8750,215.6875,-25.2500,158.5625,0
1776973301.358,9.5170,2.6552,-0.1101,-0.5830,0.9510,1.0531,-89.8500,-6.1500,-13.9500,9.7683,0.4764,4.1061,0.7338,1.0110,-0.0083,-116.4000,-11.7000,21.4500,-3.6600,-3.0600,-8.0700,-0.2520,-0.2825,0.1865,32.1875,-2.6875,60.8750,215.6875,-25.2500,158.5625,0
1776973301.362,9.0381,2.0686,-0.3089,-0.4170,0.9334,1.0557,-89.8500,-6.1500,-13.9500,9.8497,-0.2418,0.2729,0.4258,0.5740,0.1287,-116.4000,-11.7000,21.4500,-3.6600,-3.0600,-8.0700,-0.2847,-0.2891,0.2073,32.1875,-2.6875,60.8750,215.7500,-25.4375,158.6875,0
1776973301.368,8.8562,1.7813,-0.0622,-0.4170,0.9334,1.0557,-89.8500,-6.1500,-13.9500,9.8497,-0.2418,0.2729,0.4258,0.5740,0.1287,-121.6500,-14.2500,22.8000,-3.7600,-3.0700,-8.1400,-0.2847,-0.2891,0.2073,32.1875,-2.6875,60.8750,215.8125,-25.6250,158.9375,0
1776973301.378,9.2751,1.4078,0.2634,-0.1956,0.9753,1.0800,-90.9000,-6.7500,-14.8500,8.3653,3.3471,6.8905,1.3592,0.0959,0.2726,-124.3500,-17.4000,23.5500,-4.2500,-2.9000,-8.3200,-0.3033,-0.3218,0.2291,32.1875,-2.6875,60.8750,215.8125,-25.6250,158.9375,0
1776973301.388,9.1746,1.1779,0.6847,0.0250,0.9971,1.1008,-89.8500,-5.8500,-13.6500,8.3582,4.6543,1.9010,0.5145,1.2697,0.3461,-124.0500,-16.6500,23.5500,-4.7700,-3.3200,-8.4600,-0.3065,-0.3425,0.2389,32.1875,-2.6875,60.8750,215.8750,-25.8750,159.1250,0
1776973301.392,9.1746,1.1779,0.6847,0.1772,0.9838,1.1263,-89.8500,-5.8500,-13.6500,9.3733,1.9704,-2.0734,-0.9555,1.2071,0.3861,-124.0500,-16.6500,23.5500,-4.7700,-3.3200,-8.4600,-0.3065,-0.3425,0.2389,32.1875,-2.6875,60.8750,215.8750,-25.8750,159.1250,0
1776973301.398,9.1291,0.1844,0.9313,0.2201,0.9987,1.1202,-89.7000,-7.9500,-13.0500,9.3733,1.9704,-2.0734,-0.9555,1.2071,0.3861,-124.0500,-16.6500,23.5500,-4.9700,-3.4500,-8.4300,-0.3196,-0.3382,0.2465,33.5625,-3.7500,59.6875,215.9375,-26.0625,159.3125,0
1776973301.402,9.1291,0.1844,0.9313,0.2201,0.9987,1.1202,-89.7000,-7.9500,-13.0500,8.7317,-0.1149,-1.0175,-1.1703,0.6129,0.5127,-119.8500,-16.5000,21.0000,-4.9700,-3.4500,-8.4300,-0.3196,-0.3382,0.2465,33.5625,-3.7500,59.6875,216.0000,-26.2500,159.5625,0
1776973301.407,9.4882,-0.2131,1.5514,0.1607,1.0120,1.1189,-89.4000,-7.9500,-12.7500,8.7317,-0.1149,-1.0175,-1.1703,0.6129,0.5127,-119.8500,-16.5000,21.0000,-4.3800,-2.4000,-8.3900,-0.3491,-0.2760,0.2433,33.5625,-3.7500,59.6875,216.0000,-26.2500,159.5625,0
1776973301.415,9.4882,-0.2131,1.5514,0.1607,1.0120,1.1189,-89.4000,-7.9500,-12.7500,8.8849,0.0335,0.0287,-0.8828,0.7128,0.5145,-118.5000,-16.9500,19.3500,-4.2000,-2.9800,-8.2900,-0.3523,-0.2443,0.2127,33.5625,-3.7500,59.6875,216.0625,-26.4375,159.7500,0
1776973301.420,9.6845,-0.3807,1.4317,0.0234,1.0192,1.1287,-90.4500,-9.4500,-12.0000,8.9759,0.2394,0.0096,-0.8260,0.6291,0.4996,-118.5000,-16.9500,19.3500,-4.2000,-2.9800,-8.2900,-0.3523,-0.2443,0.2127,33.5625,-3.7500,59.6875,216.0625,-26.6250,160.0000,0
1776973301.428,10.0102,-0.3926,1.1492,-0.1836,0.9992,1.1365,-89.1000,-6.9000,-12.1500,8.9759,0.2394,0.0096,-0.8260,0.6291,0.4996,-115.8000,-16.8000,19.9500,-3.9500,-2.8700,-8.1800,-0.3491,-0.2389,0.2073,33.5625,-3.7500,59.6875,216.1250,-26.7500,160.2500,0
1776973301.438,9.9455,-0.2610,0.7973,-0.4538,0.9667,1.1210,-89.1000,-6.9000,-12.1500,8.9304,0.3543,-0.3424,-0.6869,0.8442,0.4895,-115.2000,-16.9500,19.6500,-3.7100,-3.1300,-8.0800,-0.3491,-0.2454,0.2182,33.5625,-3.7500,59.6875,216.1250,-26.7500,160.2500,0
1776973301.443,9.9455,-0.2610,0.7973,-0.4538,0.9667,1.1210,-89.1000,-6.9000,-12.1500,9.4116,0.5578,-0.4717,-0.6869,0.8442,0.4895,-115.2000,-16.9500,19.6500,-3.7100,-3.1300,-8.0800,-0.3491,-0.2454,0.2182,33.5625,-3.7500,59.6875,216.1250,-26.7500,160.2500,0
1776973301.447,9.6558,0.4310,0.3328,-0.4197,0.9731,1.1399,-88.9500,-9.9000,-11.2500,9.4116,0.5578,-0.4717,-0.6869,0.8442,0.4895,-115.2000,-16.9500,19.6500,-3.7500,-3.2200,-8.2800,-0.3622,-0.2869,0.2585,34.5000,-5.6875,59.7500,216.1875,-27.0000,160.5000,0
1776973301.452,9.6558,0.4310,0.3328,-0.4197,0.9731,1.1399,-88.9500,-9.9000,-11.2500,9.3015,0.5267,0.0958,-0.7581,0.9571,0.4943,-114.0000,-20.2500,19.9500,-3.7500,-3.2200,-8.2800,-0.3622,-0.2869,0.2585,34.5000,-5.6875,59.7500,216.1875,-27.0000,160.5000,0
1776973301.457,9.5864,0.2586,0.5483,-0.3619,1.0024,1.1836,-88.9500,-9.9000,-11.2500,9.3015,0.5267,0.0958,-0.7581,0.9571,0.4943,-114.0000,-20.2500,19.9500,-4.7400,-2.2100,-8.7300,-0.3742,-0.3545,0.3229,34.5000,-5.6875,59.7500,216.3125,-27.2500,160.7500,0
1776973301.462,9.5864,0.2586,0.5483,-0.3619,1.0024,1.1836,-88.9500,-9.9000,-11.2500,9.0956,0.4908,0.3376,-0.7565,0.9089,0.5031,-112.0500,-20.7000,19.3500,-4.7400,-2.2100,-8.7300,-0.3567,-0.3589,0.3600,34.5000,-5.6875,59.7500,216.4375,-27.5000,161.0000,0
1776973301.468,9.3613,0.2801,0.1197,-0.2769,1.0008,1.1860,-88.6500,-10.3500,-11.2500,8.4036,0.7446,0.5124,-0.7474,0.8143,0.5105,-112.0500,-20.7000,19.3500,-4.7200,-2.1700,-8.7900,-0.3567,-0.3589,0.3600,34.5000,-5.6875,59.7500,216.5625,-27.6875,161.2500,0
1776973301.478,9.2225,0.4525,0.0527,-0.2100,1.0245,1.1714,-88.8000,-11.7000,-9.6000,8.1379,0.9912,0.7350,-0.7293,0.8132,0.5236,-111.3000,-21.9000,20.7000,-4.7500,-2.1900,-8.6900,-0.3033,-0.3272,0.3338,34.5000,-5.6875,59.7500,216.5625,-27.6875,161.2500,0
1776973301.488,9.2464,0.3615,0.5387,-0.1428,1.0168,1.1514,-88.8000,-12.0000,-8.1000,8.5473,1.3743,0.8308,-0.7101,0.8402,0.5481,-110.7000,-22.0500,21.3000,-4.6500,-2.3000,-8.6600,-0.2673,-0.2913,0.3109,34.5000,-5.6875,59.7500,216.6250,-27.9375,161.4375,0
1776973301.493,9.5050,0.5435,0.9697,-0.1428,1.0168,1.1514,-88.8000,-12.0000,-8.1000,8.5473,1.3743,0.8308,-0.7101,0.8402,0.5481,-108.7500,-23.7000,20.4000,-4.6500,-2.3000,-8.6600,-0.2673,-0.2913,0.3109,34.5000,-5.6875,59.7500,216.7500,-28.1250,161.6250,0
1776973301.498,9.5050,0.5435,0.9697,-0.0954,1.0317,1.1466,-88.6500,-11.8500,-7.5000,9.3805,1.5323,0.8739,-0.7549,0.9220,0.5745,-108.7500,-23.7000,20.4000,-4.4000,-2.3800,-8.5400,-0.2454,-0.2716,0.3011,34.8750,-6.3750,59.0000,216.7500,-28.1250,161.6250,0
1776973301.503,9.7755,0.2227,1.4916,-0.0954,1.0317,1.1466,-88.6500,-11.8500,-7.5000,9.3805,1.5323,0.8739,-0.7549,0.9220,0.5745,-108.7500,-23.7000,20.4000,-4.4000,-2.3800,-8.5400,-0.2454,-0.2716,0.3011,34.8750,-6.3750,59.0000,216.8750,-28.3125,161.8125,0
1776973301.508,9.7755,0.2227,1.4916,-0.1095,1.0187,1.1383,-88.6500,-11.8500,-7.5000,9.6175,1.5107,0.9816,-0.7341,0.9209,0.5788,-108.7500,-23.7000,20.4000,-4.2200,-2.6900,-8.5000,-0.2083,-0.2618,0.2934,34.8750,-6.3750,59.0000,216.8750,-28.3125,161.8125,0
1776973301.515,9.9359,-0.8021,1.5299,-0.1569,1.0754,1.1711,-88.6500,-11.8500,-7.5000,9.6175,1.5107,0.9816,-0.7341,0.9209,0.5788,-107.4000,-25.0500,22.3500,-4.7600,-2.1900,-8.7300,-0.1865,-0.2716,0.3087,34.8750,-6.3750,59.0000,217.0000,-28.5000,161.9375,0
1776973301.519,9.9359,-0.8021,1.5299,-0.1569,1.0754,1.1711,-87.7500,-13.8000,-7.2000,9.8617,1.2594,1.2019,-0.8172,0.9510,0.5660,-107.4000,-25.0500,22.3500,-4.7600,-2.1900,-8.7300,-0.1865,-0.2716,0.3087,34.8750,-6.3750,59.0000,217.1250,-28.6875,162.1875,0
1776973301.528,10.2232,-1.2019,1.5107,-0.2822,1.1002,1.2297,-87.7500,-13.8000,-7.2000,9.3446,0.9290,1.2450,-0.8644,0.8364,0.5660,-108.1500,-25.5000,21.3000,-4.9500,-2.1600,-8.6600,-0.1593,-0.2803,0.3109,34.8750,-6.3750,59.0000,217.1250,-28.6875,162.1875,0
1776973301.538,10.2041,-0.9888,0.9529,-0.4914,1.1162,1.2598,-87.4500,-14.5500,-6.4500,9.4786,0.8284,1.0942,-0.8431,0.8580,0.5865,-110.2500,-25.6500,22.9500,-5.0000,-1.9600,-8.7400,-0.1374,-0.2411,0.2803,34.8750,-6.3750,59.0000,217.2500,-28.8750,162.3125,0
1776973301.543,10.3908,-0.8978,1.2019,-0.6270,1.1327,1.3006,-87.4500,-14.5500,-6.4500,9.4786,0.8284,1.0942,-0.8431,0.8580,0.5865,-108.9000,-26.5500,23.1000,-5.0000,-1.9600,-8.7400,-0.1374,-0.2411,0.2803,34.8750,-6.3750,59.0000,217.3125,-29.0000,162.4375,0
1776973301.548,10.3908,-0.8978,1.2019,-0.6270,1.1327,1.3006,-88.8000,-15.6000,-6.6000,9.3565,0.8835,0.7350,-0.8250,0.9385,0.6158,-108.9000,-26.5500,23.1000,-4.7000,-2.0400,-8.9300,-0.1233,-0.2051,0.2411,35.5625,-6.6875,59.3750,217.3125,-29.0000,162.4375,0
1776973301.553,10.5249,-0.4453,0.7566,-0.7418,1.1229,1.3606,-88.8000,-15.6000,-6.6000,9.3565,0.8835,0.7350,-0.8250,0.9385,0.6158,-108.9000,-26.5500,23.1000,-4.7000,-2.0400,-8.9300,-0.1233,-0.2051,0.2411,35.5625,-6.6875,59.3750,217.4375,-29.1250,162.5000,0
1776973301.558,10.5249,-0.4453,0.7566,-0.7418,1.1229,1.3606,-88.6500,-15.0000,-5.7000,10.0102,1.0032,0.3089,-0.8060,0.9571,0.6688,-108.9000,-26.5500,23.1000,-4.4900,-1.7000,-9.4200,-0.1167,-0.1953,0.1963,35.5625,-6.6875,59.3750,217.4375,-29.1250,162.5000,0
1776973301.563,11.2480,-0.3017,0.2466,-0.8013,1.1231,1.4349,-88.6500,-15.0000,-5.7000,10.0102,1.0032,0.3089,-0.8060,0.9571,0.6688,-109.2000,-27.0000,23.1000,-4.4900,-1.7000,-9.4200,-0.0524,-0.2313,0.1745,35.5625,-6.6875,59.3750,217.5000,-29.3125,162.5625,0
1776973301.569,11.2480,-0.3017,0.2466,-0.8013,1.1231,1.4349,-88.6500,-17.4000,-4.9500,10.8098,1.1971,0.2538,-0.8732,0.8609,0.7053,-109.2000,-27.0000,23.1000,-3.7200,-1.7900,-9.9000,-0.0524,-0.2313,0.1745,35.5625,-6.6875,59.3750,217.5625,-29.5000,162.5625,0
1776973301.578,11.1426,-0.0790,-0.9577,-0.8199,1.1119,1.5220,-87.7500,-17.4000,-4.9500,10.5872,1.4365,0.6464,-0.8194,0.7554,0.6904,-109.9500,-27.3000,24.4500,-3.2400,-1.4300,-10.5200,0.0404,-0.3262,0.1582,35.5625,-6.6875,59.3750,217.5625,-29.5000,162.5625,0
1776973301.588,10.3765,0.9577,-0.2562,-0.5361,1.1834,1.5833,-86.8500,-17.5500,-2.8500,10.4627,1.6927,0.8739,-0.7906,0.5921,0.6299,-109.0500,-27.4500,24.3000,-3.7700,-2.3900,-9.7700,0.0611,-0.5160,0.1560,35.5625,-6.6875,59.3750,217.6250,-29.8125,162.5625,0
1776973301.593,10.3789,0.5674,-0.9002,-0.5742,1.2337,1.6534,-86.8500,-17.5500,-2.8500,10.6781,2.5833,0.5411,-0.7405,0.4293,0.5686,-110.5500,-29.7000,26.1000,-3.7700,-2.3900,-9.7700,0.0611,-0.5160,0.1560,35.5625,-6.6875,59.3750,217.6250,-29.8125,162.5625,0
1776973301.598,10.3789,0.5674,-0.9002,-0.5742,1.2337,1.6534,-86.8500,-17.5500,-2.8500,10.6781,2.5833,0.5411,-0.7405,0.4293,0.5686,-110.5500,-29.7000,26.1000,-4.0400,-1.9800,-9.9500,-0.0262,-0.6578,0.1756,35.5000,-8.1875,59.0000,217.6250,-30.1875,162.5625,0
1776973301.603,10.6853,0.2322,0.4860,-0.5319,1.2574,1.7160,-86.8500,-17.5500,-2.8500,10.6087,3.5985,0.4238,-0.6976,0.3293,0.4895,-110.2500,-30.1500,25.8000,-4.0400,-1.9800,-9.9500,-0.0262,-0.6578,0.1756,35.5000,-8.1875,59.0000,217.6250,-30.1875,162.5625,0
1776973301.608,10.6853,0.2322,0.4860,-0.5319,1.2574,1.7160,-86.8500,-17.5500,-2.8500,10.6087,3.5985,0.4238,-0.6976,0.3293,0.4895,-110.2500,-30.1500,25.8000,-3.5600,-1.8500,-10.3600,0.0338,-0.7450,0.1822,35.5000,-8.1875,59.0000,217.6875,-30.6250,162.5000,0
1776973301.615,11.3342,0.4046,0.7973,-0.4210,1.2737,1.8237,-87.0000,-20.4000,-3.4500,11.1618,3.9409,0.5507,-0.8386,0.2649,0.3834,-110.2500,-30.1500,25.8000,-3.4500,-1.8400,-10.6000,0.1462,-0.9523,0.2116,35.5000,-8.1875,59.0000,217.7500,-31.1250,162.3750,0
1776973301.620,11.8944,0.5315,0.8739,-0.4120,1.2974,1.9540,-87.0000,-20.4000,-3.4500,11.1618,3.9409,0.5507,-0.8386,0.2649,0.3834,-108.9000,-31.0500,24.4500,-3.4500,-1.8400,-10.6000,0.1462,-0.9523,0.2116,35.5000,-8.1875,59.0000,217.8750,-31.8750,162.1875,0
1776973301.628,12.6797,0.7925,0.6752,-0.3515,1.3723,2.0563,-85.8000,-22.2000,-1.3500,10.8721,3.6655,1.1349,-1.0403,0.2489,0.2617,-110.8500,-30.1500,26.1000,-3.3500,-2.2800,-10.5900,0.2607,-1.2610,0.2585,35.5000,-8.1875,59.0000,217.9375,-32.7500,162.0000,0
1776973301.638,13.4410,1.6879,0.5914,-0.5023,1.4109,2.1184,-85.8000,-22.2000,-1.3500,12.3182,3.7613,1.3958,-1.1327,0.1322,0.1191,-109.2000,-31.0500,24.4500,-3.4400,-3.0000,-10.7100,0.2607,-1.6199,0.3087,35.5000,-8.1875,59.0000,217.9375,-32.7500,162.0000,0
1776973301.643,13.4410,1.6879,0.5914,-0.5023,1.4109,2.1184,-84.1500,-23.4000,-1.0500,13.0915,4.4628,1.3048,-0.9601,-0.0224,-0.0477,-109.2000,-31.0500,24.4500,-3.4400,-3.0000,-10.7100,0.2607,-1.6199,0.3087,35.5000,-8.1875,59.0000,218.0625,-33.9375,161.8125,0
1776973301.648,14.1066,1.8651,-1.0989,-0.6134,1.4658,2.2330,-84.1500,-25.0500,-1.0500,13.0915,4.4628,1.3048,-0.9601,-0.0224,-0.0477,-109.9500,-31.5000,23.8500,-3.0600,-3.7000,-10.7000,0.2007,-2.0486,0.4112,37.6875,-7.5000,58.1875,218.0625,-33.9375,161.8125,0
1776973301.653,14.1066,1.8651,-1.0989,-0.6134,1.4658,2.2330,-84.1500,-25.0500,-1.0500,13.2232,5.3702,0.7422,-0.6997,-0.0242,-0.2545,-109.9500,-31.5000,23.8500,-3.0600,-3.7000,-10.7000,0.2007,-2.0486,0.4112,37.6875,-7.5000,58.1875,218.1875,-35.3125,161.5625,0
1776973301.658,15.2678,1.4054,-3.4405,-0.8058,1.5314,2.3742,-84.1500,-25.0500,-1.0500,13.2232,5.3702,0.7422,-0.6997,-0.0242,-0.2545,-109.9500,-31.5000,23.8500,-3.4400,-3.2500,-11.1900,0.2520,-2.5165,0.5978,37.6875,-7.5000,58.1875,218.1875,-35.3125,161.5625,0
1776973301.663,15.2678,1.4054,-3.4405,-0.8058,1.5314,2.3742,-82.9500,-25.9500,1.6500,13.0292,6.4596,-0.5219,-0.3461,-0.1807,-0.4461,-109.9500,-31.5000,23.8500,-3.4400,-3.2500,-11.1900,0.3196,-2.9572,0.7930,37.6875,-7.5000,58.1875,218.5000,-37.0625,161.3125,0
1776973301.669,16.5056,1.2689,-4.1851,-1.0714,1.5796,2.5508,-82.9500,-25.9500,1.6500,13.0292,6.4596,-0.5219,-0.3461,-0.1807,-0.4461,-110.4000,-30.0000,22.8000,-1.9200,-3.1800,-11.0600,0.3196,-2.9572,0.7930,37.6875,-7.5000,58.1875,218.8750,-39.0000,161.0000,0
1776973301.678,17.3987,3.7302,-5.1188,-1.1620,1.6156,2.7997,-82.9500,-25.9500,1.6500,12.3397,7.9679,-2.7390,0.0112,-0.2926,-0.6422,-112.5000,-31.5000,24.1500,-1.8700,-3.9500,-11.5700,0.5138,-3.4045,1.0494,37.6875,-7.5000,58.1875,218.8750,-39.0000,161.0000,0
1776973301.688,19.2949,5.3798,-7.4819,-1.4115,1.6571,3.0371,-81.7500,-27.9000,-0.1500,11.2887,9.4643,-4.9752,0.3222,-0.5931,-0.8404,-113.2500,-32.5500,23.4000,-1.0800,-2.2100,-12.5700,0.5138,-4.1201,1.3941,37.6875,-7.5000,58.1875,219.4375,-41.4375,160.6875,0
1776973301.693,19.2949,5.3798,-7.4819,-1.4115,1.6571,3.0371,-81.7500,-27.9000,-0.1500,11.0780,9.3182,-6.2034,0.6971,-0.9654,-1.0557,-113.2500,-32.5500,23.4000,-1.0800,-2.2100,-12.5700,0.5138,-4.1201,1.3941,37.6875,-7.5000,58.1875,219.4375,-41.4375,160.6875,0
1776973301.698,20.9636,5.8945,-7.9296,-1.4029,1.6800,3.1991,-81.7500,-27.9000,-0.1500,11.0780,9.3182,-6.2034,0.6971,-0.9654,-1.0557,-114.0000,-33.0000,23.8500,-0.5200,-3.3700,-13.0800,0.5345,-4.8411,1.7693,42.1875,-6.6875,53.8750,258.0000,-44.3125,160.4375,0
1776973301.702,20.9636,5.8945,-7.9296,-1.4029,1.6800,3.1991,-80.5500,-30.3000,0.9000,11.1235,10.1323,-3.4740,1.3536,-0.8351,-1.3579,-114.0000,-33.0000,23.8500,-0.5200,-3.3700,-13.0800,0.5345,-4.8411,1.7693,42.1875,-6.6875,53.8750,258.0000,-44.3125,160.4375,0
1776973301.707,20.1041,5.4133,-6.5218,-1.2351,1.6896,3.1746,-80.5500,-30.3000,0.9000,11.1235,10.1323,-3.4740,1.3536,-0.8351,-1.3579,-115.9500,-32.7000,24.0000,-0.6400,-4.9600,-13.5200,0.5781,-5.6690,2.2275,42.1875,-6.6875,53.8750,255.2500,-47.6875,160.1875,0
1776973301.712,20.1041,5.4133,-6.5218,-1.2351,1.6896,3.1746,-77.7000,-31.9500,3.3000,11.8633,7.1228,-6.7014,1.4160,-1.6286,-1.5370,-115.9500,-32.7000,24.0000,-0.6400,-4.9600,-13.5200,0.5596,-6.5875,2.7598,42.1875,-6.6875,53.8750,252.3125,-51.6250,160.1250,0
1776973301.719,17.1688,5.5881,-4.6232,-1.0048,1.7038,3.0670,-77.5500,-33.7500,1.6500,10.6901,6.4284,-2.0279,2.2231,-2.1181,-1.7264,-115.9500,-32.7000,24.0000,-5.2200,-5.7800,-14.6200,0.5596,-6.5875,2.7598,42.1875,-6.6875,53.8750,249.0000,-56.2500,160.3125,0
1776973301.728,14.4897,3.1484,-0.2107,-0.9212,1.5783,2.9308,-77.5500,-33.7500,1.6500,12.5504,4.3718,-3.9528,1.5039,-2.0875,-1.7944,-116.2500,-32.5500,20.5500,-12.0300,-4.7200,-15.7000,0.4363,-7.6500,3.3052,42.1875,-6.6875,53.8750,249.0000,-56.2500,160.3125,0
1776973301.738,13.5272,-0.8188,3.2896,-0.2654,1.5681,2.7566,-74.8500,-35.4000,2.4000,14.4131,1.9393,-1.7406,1.1386,-2.2721,-1.9217,-115.0500,-32.5500,20.5500,-17.3800,-4.9500,-17.1200,0.3622,-8.7441,3.5452,42.1875,-6.6875,53.8750,245.7500,-61.4375,160.5000,0
1776973301.743,13.3956,-1.5874,6.4955,-0.2654,1.5681,2.7566,-74.7000,-35.1000,1.8000,14.4131,1.9393,-1.7406,1.1386,-2.2721,-1.9217,-115.0500,-32.5500,20.5500,-17.3800,-4.9500,-17.1200,0.3622,-8.7441,3.5452,42.1875,-6.6875,53.8750,243.1250,-66.9375,160.0000,0
1776973301.748,13.3956,-1.5874,6.4955,0.3163,1.6531,2.5999,-74.7000,-35.1000,1.8000,16.0603,-1.1732,1.9824,1.2934,-2.5618,-1.9857,-114.7500,-31.0500,16.3500,-19.3500,-7.1800,-17.3100,0.5094,-9.3713,3.1874,52.7500,-7.8750,42.8750,243.1250,-66.9375,160.0000,0
1776973301.753,12.6725,-0.5243,7.6806,0.5081,1.6699,2.4344,-73.0500,-36.4500,1.9500,16.0603,-1.1732,1.9824,1.2934,-2.5618,-1.9857,-114.7500,-31.0500,16.3500,-19.3500,-7.1800,-17.3100,0.5094,-9.3713,3.1874,52.7500,-7.8750,42.8750,243.1250,-66.9375,160.0000,0
1776973301.758,12.6725,-0.5243,7.6806,0.5081,1.6699,2.4344,-73.0500,-36.4500,1.9500,16.7427,-3.8571,5.1811,1.3478,-2.5468,-2.1008,-113.8500,-27.4500,15.7500,-19.4600,-7.2900,-19.1500,0.5094,-9.3713,3.1874,52.7500,-7.8750,42.8750,240.8125,-72.4375,159.3125,0
1776973301.763,13.0245,-1.6807,4.6807,0.4226,1.6739,2.2751,-73.0500,-36.4500,1.9500,16.7427,-3.8571,5.1811,1.3478,-2.5468,-2.1008,-113.8500,-27.4500,15.7500,-19.4600,-7.2900,-19.1500,0.6861,-8.8826,2.9987,52.7500,-7.8750,42.8750,239.0000,-77.6250,158.0625,0
1776973301.769,13.0245,-1.6807,4.6807,0.4226,1.6739,2.2751,-73.0500,-36.4500,1.9500,16.6660,-5.3079,7.0150,0.8545,-2.4131,-2.1575,-113.8500,-27.4500,15.7500,-12.4700,-8.2000,-18.1000,0.6861,-8.8826,2.9987,52.7500,-7.8750,42.8750,237.6250,-81.8750,157.5000,0
1776973301.779,13.1681,-3.2058,3.6248,0.6137,1.5863,2.0824,-70.8000,-38.5500,4.5000,16.3093,-4.4652,7.2999,0.1689,-1.9870,-2.0941,-109.8000,-24.9000,11.5500,-7.6900,-8.9600,-17.3100,0.7756,-7.1733,2.8820,52.7500,-7.8750,42.8750,237.6250,-81.8750,157.5000,0
1776973301.789,12.0668,-6.3039,3.8930,1.1620,1.5665,1.7147,-70.3500,-36.9000,6.0000,16.1968,-2.8515,5.6838,-0.5588,-1.6577,-1.9089,-110.4000,-21.7500,9.9000,3.7600,-7.7200,-11.0900,0.7352,-6.7435,3.0598,52.7500,-7.8750,42.8750,236.1875,-86.0000,178.5625,0
1776973301.793,12.3230,-8.0541,8.6838,2.0598,1.2942,1.1335,-68.7000,-39.9000,7.3500,16.1968,-2.8515,5.6838,-0.5588,-1.6577,-1.9089,-110.4000,-21.7500,9.9000,3.7600,-7.7200,-11.0900,0.7352,-6.7435,3.0598,52.7500,-7.8750,42.8750,234.6875,-89.5000,-0.4375,0
1776973301.799,12.3230,-8.0541,8.6838,2.0598,1.2942,1.1335,-68.7000,-39.9000,7.3500,14.6310,-1.4054,4.4963,-1.0272,-1.5580,-1.8122,-104.5500,-18.7500,8.5500,-2.1500,4.9500,-11.4500,0.8050,-6.7435,3.4852,62.2500,-12.1875,18.1875,234.6875,-89.5000,-0.4375,0
1776973301.804,10.5129,-9.4164,11.6143,2.2018,0.6246,0.9467,-66.7500,-39.0000,8.1000,14.6310,-1.4054,4.4963,-1.0272,-1.5580,-1.8122,-104.5500,-18.7500,8.5500,-2.1500,4.9500,-11.4500,0.8050,-6.7435,3.4852,62.2500,-12.1875,18.1875,233.4375,-86.1875,-2.4375,0
1776973301.809,10.5129,-9.4164,11.6143,2.2018,0.6246,0.9467,-66.7500,-39.0000,8.1000,14.3269,-0.3998,4.0654,-0.8724,-1.4381,-1.7917,-103.8000,-17.2500,6.3000,-30.2300,-5.9000,-11.3800,1.1814,-5.1542,3.5681,62.2500,-12.1875,18.1875,233.4375,-86.1875,-2.4375,0
1776973301.818,7.7907,-8.1762,13.0939,1.7730,0.4535,0.9934,-68.4000,-40.0500,9.3000,13.6781,0.4860,3.2250,-0.5860,-1.6238,-1.8447,-102.9000,-13.9500,4.3500,-9.5200,-14.5600,-17.8200,1.9962,-1.1596,2.4162,62.2500,-12.1875,18.1875,233.1875,-84.7500,-3.8750,0
1776973301.828,4.9752,-5.0973,11.5855,1.6910,0.2161,0.8130,-67.5000,-39.4500,9.9000,12.8497,1.9680,3.0646,-0.4274,-1.9215,-1.9156,-102.9000,-13.9500,4.3500,-10.1700,-17.3000,-16.5200,1.5304,1.5457,1.0799,62.2500,-12.1875,18.1875,233.3125,-84.8125,-4.5000,0
1776973301.836,5.5282,-1.8651,9.3637,0.8671,-0.4932,0.2888,-67.5000,-39.4500,9.9000,11.7005,3.8331,3.0526,-0.5476,-2.1141,-1.9646,-100.9500,-9.0000,3.1500,-5.4500,-16.1600,-12.8500,0.5181,3.1220,0.2989,62.2500,-12.1875,18.1875,233.3125,-85.1875,-4.6875,0
1776973301.841,5.1571,-0.9266,5.9496,-0.2944,-1.0216,-0.2204,-67.5000,-37.5000,8.4000,11.7005,3.8331,3.0526,-0.5476,-2.1141,-1.9646,-100.9500,-9.0000,3.1500,-5.4500,-16.1600,-12.8500,0.5181,3.1220,0.2989,62.2500,-12.1875,18.1875,233.3125,-85.1875,-4.6875,0
1776973301.846,5.1571,-0.9266,5.9496,-0.2944,-1.0216,-0.2204,-67.5000,-37.5000,8.4000,10.4411,4.3048,2.0399,-0.8159,-2.0832,-1.9180,-101.2500,-7.8000,1.3500,0.2500,-10.4500,-6.6900,-0.5923,3.8332,-0.0175,57.5000,-18.0625,0.5625,232.8125,-85.1250,-175.2500,0
1776973301.851,4.3718,-1.1420,4.5418,-0.9800,-1.2753,-0.5873,-67.5000,-37.5000,8.4000,10.4411,4.3048,2.0399,-0.8159,-2.0832,-1.9180,-101.2500,-7.8000,1.3500,0.2500,-10.4500,-6.6900,-0.5923,3.8332,-0.0175,57.5000,-18.0625,0.5625,232.8125,-85.1250,-175.2500,0
1776973301.855,4.3718,-1.1420,4.5418,-0.9800,-1.2753,-0.5873,-67.5000,-37.5000,8.4000,9.4954,5.1308,3.4931,-0.6107,-1.4514,-1.9327,-102.1500,-6.9000,0.7500,0.6000,-7.4200,-4.9200,-1.3515,4.0012,-0.2345,57.5000,-18.0625,0.5625,231.9375,-84.1875,-175.3750,0
1776973301.860,3.6775,-1.2019,4.5011,-0.8372,-1.4685,-0.8402,-67.5000,-37.5000,8.4000,9.4954,5.1308,3.4931,-0.6107,-1.4514,-1.9327,-102.1500,-6.9000,0.7500,0.6000,-7.4200,-4.9200,-1.3515,4.0012,-0.2345,57.5000,-18.0625,0.5625,231.0625,-82.8125,-142.1250,0
1776973301.869,3.1723,-1.2210,5.0350,-0.2582,-1.6164,-1.0904,-69.4500,-37.9500,6.9000,8.8538,5.2672,3.8786,0.0983,-0.9126,-2.1226,-102.7500,-4.8000,0.0000,1.1700,-5.2700,-3.7700,-1.6417,4.0906,-0.4996,57.5000,-18.0625,0.5625,230.3125,-81.1250,-152.6875,0
1776973301.879,2.9640,-1.5730,5.4564,0.3096,-1.8191,-1.4258,-69.6000,-38.1000,6.0000,9.1291,5.4324,3.9097,0.7821,-0.6123,-2.2934,-102.7500,-4.8000,0.0000,1.6800,-4.1600,-2.8900,-1.5959,4.1190,-0.8149,57.5000,-18.0625,0.5625,230.3125,-81.1250,-152.6875,0
1776973301.889,2.8371,-1.7430,5.7174,0.6382,-2.1621,-1.7333,-69.1500,-35.7000,6.4500,9.2488,4.7238,2.8587,0.9747,-0.4530,-2.4541,-103.0500,-2.2500,2.4000,1.7500,-3.6000,-2.2500,-1.3952,3.9968,-1.1181,57.5000,-18.0625,0.5625,229.8750,-79.3125,-160.3750,0
1776973301.894,2.8371,-1.7430,5.7174,0.6382,-2.1621,-1.7333,-70.8000,-36.9000,4.9500,9.2871,3.6129,2.4828,1.0781,-0.3882,-2.4728,-103.0500,-2.2500,2.4000,1.7500,-3.6000,-2.2500,-1.3952,3.9968,-1.1181,57.5000,-18.0625,0.5625,229.8750,-79.3125,-160.3750,0
1776973301.899,2.5139,-2.1931,5.7868,0.8324,-2.4664,-1.9710,-70.8000,-36.9000,4.9500,9.2871,3.6129,2.4828,1.0781,-0.3882,-2.4728,-106.3500,-1.5000,3.4500,1.1400,-3.6500,-2.5100,-1.1388,3.8801,-1.4083,52.0000,-18.5625,8.0000,229.7500,-77.5000,-166.4375,0
1776973301.904,2.5139,-2.1931,5.7868,0.8324,-2.4664,-1.9710,-71.8500,-35.4000,3.7500,8.2887,1.9249,2.3296,0.9662,-0.2403,-2.3475,-105.6000,-0.7500,5.2500,1.1400,-3.6500,-2.5100,-1.1388,3.8801,-1.4083,52.0000,-18.5625,8.0000,229.7500,-77.5000,-166.4375,0
1776973301.909,2.7892,-2.3415,6.2824,0.9699,-2.7739,-2.0989,-71.8500,-35.4000,3.7500,8.2887,1.9249,2.3296,0.9662,-0.2403,-2.3475,-105.6000,-0.7500,5.2500,0.2600,-3.9400,-3.0800,-0.8694,3.8648,-1.7311,52.0000,-18.5625,8.0000,230.0000,-75.5625,-171.5625,0
1776973301.916,2.7940,-2.4181,6.4955,0.9699,-2.7739,-2.0989,-71.8500,-33.4500,4.9500,8.3965,1.1133,2.3918,1.0752,-0.2142,-2.2148,-108.1500,0.7500,7.0500,-1.6800,-5.4400,-4.2300,-0.6447,3.9423,-2.0966,52.0000,-18.5625,8.0000,230.5625,-73.5000,-176.2500,0
1776973301.921,2.7940,-2.4181,6.4955,1.0706,-3.0084,-2.1410,-71.8500,-33.4500,4.9500,8.3965,1.1133,2.3918,1.0752,-0.2142,-2.2148,-108.1500,0.7500,7.0500,-1.6800,-5.4400,-4.2300,-0.6447,3.9423,-2.0966,52.0000,-18.5625,8.0000,231.5625,-71.2500,179.4375,0
1776973301.929,3.1340,-2.6791,6.6391,1.1812,-3.1874,-2.2484,-71.8500,-33.4500,4.9500,7.9464,0.5507,1.7861,1.2513,-0.4506,-2.0558,-109.6500,3.3000,8.5500,-2.6700,-6.4300,-4.7500,-0.5116,4.0928,-2.4871,52.0000,-18.5625,8.0000,232.8125,-68.8125,175.5625,0
1776973301.939,3.2920,-2.7509,6.3710,1.3462,-3.4113,-2.3614,-75.6000,-32.5500,2.4000,6.9815,1.1875,3.6368,1.6145,-0.5343,-1.8125,-109.6500,3.3000,8.5500,-3.7200,-7.5000,-5.3300,-0.5269,4.2979,-2.8983,52.0000,-18.5625,8.0000,232.8125,-68.8125,175.5625,0
1776973301.944,3.2920,-2.7509,6.3710,1.3462,-3.4113,-2.3614,-75.1500,-32.4000,2.5500,6.0501,1.1277,3.5075,1.9628,-0.3661,-1.6113,-108.7500,3.4500,9.7500,-3.7200,-7.5000,-5.3300,-0.5269,4.2979,-2.8983,52.0000,-18.5625,8.0000,234.2500,-66.1250,172.1250,0
1776973301.949,3.2585,-2.4229,5.4875,1.3507,-3.6047,-2.4714,-75.1500,-32.4000,2.5500,6.0501,1.1277,3.5075,1.9628,-0.3661,-1.6113,-108.7500,3.4500,9.7500,-4.7100,-8.2300,-5.7000,-0.7025,4.5520,-3.3478,46.7500,-18.3750,15.5625,234.2500,-66.1250,172.1250,0
1776973301.954,3.4405,-2.3583,4.2976,1.3507,-3.6047,-2.4714,-77.5500,-30.3000,0.9000,5.8562,1.2091,3.5171,2.2266,-0.1647,-1.4709,-109.8000,2.7000,8.7000,-4.7100,-8.2300,-5.7000,-0.7025,4.5520,-3.3478,46.7500,-18.3750,15.5625,235.8125,-63.1250,169.2500,0
1776973301.959,3.4405,-2.3583,4.2976,1.4144,-3.6444,-2.6015,-77.5500,-30.3000,0.9000,5.8562,1.2091,3.5171,2.2266,-0.1647,-1.4709,-109.8000,2.7000,8.7000,-6.0200,-8.3100,-5.6900,-0.9839,4.8007,-3.7808,46.7500,-18.3750,15.5625,235.8125,-63.1250,169.2500,0
1776973301.964,3.9361,-2.4349,4.0749,1.4144,-3.6444,-2.6015,-77.2500,-29.8500,1.2000,5.6312,1.0965,3.4812,2.3803,-0.0733,-1.2931,-109.8000,1.2000,8.7000,-6.0200,-8.3100,-5.6900,-1.2665,5.0058,-4.1168,46.7500,-18.3750,15.5625,237.4375,-59.9375,166.8750,0
1776973301.970,3.9361,-2.4349,4.0749,1.4842,-3.6956,-2.7584,-77.2500,-29.8500,1.2000,5.6312,1.0965,3.4812,2.3803,-0.0733,-1.2931,-109.8000,1.2000,8.7000,-6.1500,-7.9700,-5.5100,-1.2665,5.0058,-4.1168,46.7500,-18.3750,15.5625,239.1875,-56.6250,165.0625,0
1776973301.979,4.5945,-3.2058,4.2545,1.4165,-3.7617,-2.8927,-79.6500,-25.8000,-2.5500,5.5043,0.9337,3.4477,2.7374,-0.1210,-1.0648,-110.5500,0.4500,9.3000,-6.4200,-7.4800,-5.2700,-1.4759,5.1313,-4.3033,46.7500,-18.3750,15.5625,239.1875,-56.6250,165.0625,0
1776973301.989,5.3367,-3.5817,5.3008,1.4583,-3.8472,-3.0569,-81.9000,-28.5000,-1.8000,4.8674,0.6632,3.1340,2.8834,-0.1218,-0.8212,-110.5500,0.4500,9.3000,-7.0100,-5.9200,-5.7500,-1.5446,5.1902,-4.3404,46.7500,-18.3750,15.5625,241.0000,-53.1875,163.6875,0
1776973301.994,5.7868,-3.5817,5.1356,1.4077,-3.9855,-3.2242,-81.9000,-28.5000,-1.8000,4.9536,-0.3591,2.9425,2.9751,-0.0035,-0.6281,-113.7000,-0.3000,8.8500,-7.0100,-5.9200,-5.7500,-1.5446,5.1902,-4.3404,46.7500,-18.3750,15.5625,241.0000,-53.1875,163.6875,0
1776973301.999,5.7868,-3.5817,5.1356,1.4077,-3.9855,-3.2242,-81.9000,-28.5000,-1.8000,4.9536,-0.3591,2.9425,3.0606,0.1359,-0.4620,-113.7000,-0.3000,8.8500,-7.2800,-5.1000,-6.2700,-1.4094,5.1814,-4.3022,44.0000,-17.1875,25.1875,243.1250,-49.7500,162.6250,0
1776973302.004,6.3063,-3.6823,4.9608,1.4019,-4.0990,-3.4166,-83.8500,-24.6000,-2.8500,5.3750,-0.7087,2.8276,3.0606,0.1359,-0.4620,-114.6000,-1.9500,9.3000,-7.2800,-5.1000,-6.2700,-1.4094,5.1814,-4.3022,44.0000,-17.1875,25.1875,243.1250,-49.7500,162.6250,0
1776973302.009,6.3063,-3.6823,4.9608,1.4019,-4.0990,-3.4166,-83.8500,-24.6000,-2.8500,5.3750,-0.7087,2.8276,2.7603,0.3379,-0.3230,-114.6000,-1.9500,9.3000,-7.6000,-5.0200,-6.7700,-1.0886,5.1793,-4.2237,44.0000,-17.1875,25.1875,245.8750,-46.3125,161.7500,0
1776973302.014,6.8450,-3.5051,4.9392,1.4583,-4.2144,-3.5911,-83.8500,-24.6000,-2.8500,5.3917,-1.3527,2.6193,2.7603,0.3379,-0.3230,-115.9500,-1.9500,11.1000,-7.6000,-5.0200,-6.7700,-0.6872,5.1760,-4.0939,44.0000,-17.1875,25.1875,249.3125,-42.8750,160.9375,0
1776973302.020,6.8450,-3.5051,4.9392,1.4583,-4.2144,-3.5911,-83.8500,-24.6000,-2.8500,5.4468,-2.2913,2.5618,2.5066,0.4796,-0.2006,-115.9500,-1.9500,11.1000,-8.0800,-5.7400,-7.6500,-0.6872,5.1760,-4.0939,44.0000,-17.1875,25.1875,208.7500,-39.4375,160.1250,0
1776973302.029,7.4484,-3.5817,5.0805,1.5993,-4.2911,-3.7680,-86.5500,-18.7500,-8.1000,6.3087,-3.3591,2.3774,2.2487,0.6371,-0.0759,-116.8500,-3.3000,12.0000,-8.3000,-6.3300,-8.1700,-0.2967,5.1411,-3.9499,44.0000,-17.1875,25.1875,208.7500,-39.4375,160.1250,0
1776973302.039,8.5425,-3.8499,4.9177,1.6936,-4.3513,-3.8629,-85.8000,-18.0000,-9.6000,6.7205,-4.4987,2.2793,1.8130,0.7237,0.0360,-118.5000,-3.4500,10.5000,-8.6000,-6.9700,-8.8200,0.0360,5.0538,-3.8005,44.0000,-17.1875,25.1875,207.1250,-36.0625,159.3125,0
1776973302.044,9.7803,-4.6256,5.0709,1.5876,-4.3828,-3.8688,-87.4500,-17.4000,-10.8000,6.7205,-4.4987,2.2793,1.8130,0.7237,0.0360,-118.5000,-3.4500,10.5000,-8.6000,-6.9700,-8.8200,0.0360,5.0538,-3.8005,44.0000,-17.1875,25.1875,205.5625,-32.8125,158.5000,0
1776973302.049,9.7803,-4.6256,5.0709,1.5876,-4.3828,-3.8688,-87.4500,-17.4000,-10.8000,6.8809,-5.2002,2.3296,1.5306,0.7189,0.1553,-118.5000,-3.4500,10.5000,-8.9700,-7.6200,-9.5500,0.2836,4.9066,-3.6586,44.0625,-12.6875,39.0000,205.5625,-32.8125,158.5000,0
1776973302.054,10.8433,-5.2457,5.3415,1.2764,-4.4243,-3.8792,-87.0000,-15.4500,-12.0000,6.8809,-5.2002,2.3296,1.5306,0.7189,0.1553,-116.7000,-3.9000,13.9500,-8.9700,-7.6200,-9.5500,0.2836,4.9066,-3.6586,44.0625,-12.6875,39.0000,205.5625,-32.8125,158.5000,0
1776973302.059,10.8433,-5.2457,5.3415,1.2764,-4.4243,-3.8792,-87.0000,-15.4500,-12.0000,6.5697,-5.7054,2.4373,1.2121,0.6230,0.2390,-116.7000,-3.9000,13.9500,-10.5500,-8.7700,-11.6700,0.4767,4.7211,-3.5256,44.0625,-12.6875,39.0000,204.1875,-29.6875,157.7500,0
1776973302.064,11.9830,-6.3398,5.2888,0.8743,-4.4403,-3.9663,-87.0000,-15.4500,-12.0000,6.5697,-5.7054,2.4373,1.2121,0.6230,0.2390,-118.6500,-5.5500,13.0500,-10.5500,-8.7700,-11.6700,0.6687,4.5760,-3.4208,44.0625,-12.6875,39.0000,202.8750,-26.6250,156.9375,0
1776973302.070,12.7635,-7.4915,5.5330,0.6105,-4.4132,-4.0516,-87.0000,-15.4500,-12.0000,5.9616,-6.2704,1.7645,0.8476,0.6422,0.3059,-118.6500,-5.5500,13.0500,-12.0500,-9.4500,-12.9000,0.6687,4.5760,-3.4208,44.0625,-12.6875,39.0000,201.5625,-23.5625,156.1250,0
1776973302.079,12.8305,-6.8259,6.7325,0.6105,-4.4132,-4.0516,-88.2000,-11.1000,-14.8500,6.1148,-5.6383,0.8499,0.4919,0.7698,0.4892,-118.3500,-7.0500,14.2500,-14.1700,-10.2900,-14.1800,0.8978,4.5444,-3.3827,44.0625,-12.6875,39.0000,200.3125,-20.3750,155.1875,0
1776973302.089,12.3373,-4.6017,5.8227,0.1868,-4.2384,-4.0156,-88.2000,-11.1000,-14.8500,6.3686,-4.2329,-0.1532,0.1943,0.9289,0.8132,-117.7500,-5.7000,14.7000,-19.1100,-12.2000,-15.2600,1.1246,4.7048,-3.4699,44.0625,-12.6875,39.0000,200.3125,-20.3750,155.1875,0
1776973302.094,12.3373,-4.6017,5.8227,0.1868,-4.2384,-4.0156,-89.1000,-5.4000,-21.7500,6.3686,-4.2329,-0.1532,0.1943,0.9289,0.8132,-117.7500,-5.7000,14.7000,-19.1100,-12.2000,-15.2600,1.1246,4.7048,-3.4699,44.0625,-12.6875,39.0000,199.0000,-17.0000,154.3125,0
1776973302.099,12.1721,-2.9449,3.4620,-0.2289,-3.9751,-3.9103,-89.1000,-5.4000,-21.7500,6.5960,-2.2003,-0.9529,0.0005,0.9880,1.0816,-117.7500,-5.7000,14.7000,-20.9900,-12.8900,-14.5400,1.2097,4.9611,-3.7143,32.0000,-2.7500,53.5625,199.0000,-17.0000,154.3125,0
1776973302.104,12.1721,-2.9449,3.4620,-0.2289,-3.9751,-3.9103,-87.3000,-3.9000,-21.7500,6.5960,-2.2003,-0.9529,0.0005,0.9880,1.0816,-116.4000,-7.2000,12.9000,-20.9900,-12.8900,-14.5400,1.2097,4.9611,-3.7143,32.0000,-2.7500,53.5625,197.5000,-13.4375,153.5000,0
1776973302.109,12.4882,-2.0183,2.3774,-0.4327,-3.6151,-3.8125,-87.3000,-3.9000,-21.7500,7.3622,0.4549,-1.7885,-0.0791,0.7863,1.2873,-116.4000,-7.2000,12.9000,-22.3300,-13.6500,-12.7000,1.1006,5.1607,-3.9881,32.0000,-2.7500,53.5625,197.5000,-13.4375,153.5000,0
1776973302.119,11.3389,-2.0638,1.5945,-0.5676,-3.2191,-3.6988,-86.7000,-2.1000,-23.1000,8.4132,3.0670,-4.0510,0.4341,0.9958,1.4605,-115.2000,-9.1500,13.9500,-24.2200,-13.0800,-7.6400,0.7221,5.1684,-4.0982,32.0000,-2.7500,53.5625,195.9375,-9.8750,152.9375,0
1776973302.126,11.3389,-2.0638,1.5945,-0.5676,-3.2191,-3.6988,-86.5500,0.3000,-26.2500,11.1618,5.4995,-8.2528,1.1173,0.6246,1.5961,-113.8500,-8.4000,13.3500,-25.0500,-11.1000,-4.9100,0.2138,4.9436,-3.9663,32.0000,-2.7500,53.5625,194.4375,-6.4375,152.7500,0
1776973302.131,10.4675,-2.5043,2.4038,-0.4714,-2.6084,-3.5378,-86.5500,0.3000,-26.2500,11.1618,5.4995,-8.2528,1.1173,0.6246,1.5961,-114.1500,-10.2000,12.1500,-25.0500,-11.1000,-4.9100,0.2138,4.9436,-3.9663,32.0000,-2.7500,53.5625,193.0000,-3.2500,152.7500,0
1776973302.140,9.7372,-3.2274,3.7828,-0.3405,-2.0451,-3.2165,-85.8000,2.2500,-25.8000,13.3453,9.2320,-14.2718,2.4730,0.0224,1.6164,-114.9000,-8.7000,10.5000,-25.2300,-7.8600,-2.2400,-0.1331,4.5815,-3.6248,32.0000,-2.7500,53.5625,193.0000,-3.2500,152.7500,0
1776973302.144,9.7372,-3.2274,3.7828,-0.3405,-2.0451,-3.2165,-84.6000,4.2000,-29.5500,15.9478,14.3676,-15.9933,4.0201,0.0741,1.2732,-114.9000,-8.7000,10.5000,-25.2300,-7.8600,-2.2400,-0.1331,4.5815,-3.6248,32.0000,-2.7500,53.5625,191.8125,-0.4375,152.7500,0
1776973302.150,8.7771,-3.9504,5.8275,-0.2350,-1.5481,-2.8058,-84.6000,4.2000,-29.5500,15.9478,14.3676,-15.9933,4.0201,0.0741,1.2732,-114.9000,-8.7000,10.5000,-25.1600,-3.8200,0.2700,-0.0502,4.0939,-3.1634,13.7500,7.2500,50.5000,191.8125,-0.4375,152.7500,0
1776973302.154,8.7771,-3.9504,5.8275,-0.2350,-1.5481,-2.8058,-84.6000,4.2000,-29.5500,17.0371,15.4570,-13.4578,3.5821,0.2164,0.7890,-114.9000,-8.7000,10.5000,-25.1600,-3.8200,0.2700,-0.0502,4.0939,-3.1634,13.7500,7.2500,50.5000,191.8125,-0.4375,152.7500,0
1776973302.159,6.7086,-3.1508,6.1507,-0.4898,-0.9942,-2.2964,-84.6000,4.2000,-29.5500,17.0371,15.4570,-13.4578,3.5821,0.2164,0.7890,-118.0500,-5.2500,10.6500,-26.3400,3.5700,3.5500,0.6349,3.5354,-2.6245,13.7500,7.2500,50.5000,190.8125,1.9375,152.4375,0
1776973302.165,5.6862,-0.5076,4.7190,-0.4898,-0.9942,-2.2964,-82.5000,6.7500,-28.6500,12.5169,14.1569,-6.4428,1.9870,0.6235,0.2705,-118.0500,-5.2500,10.6500,-28.3900,7.2900,4.8300,1.7759,2.9485,-2.1042,13.7500,7.2500,50.5000,190.0625,3.8750,151.4375,0
1776973302.170,5.6862,-0.5076,4.7190,-1.0200,-0.2990,-1.5473,-82.5000,6.7500,-28.6500,12.5169,14.1569,-6.4428,1.9870,0.6235,0.2705,-119.1000,-0.7500,10.2000,-28.3900,7.2900,4.8300,1.7759,2.9485,-2.1042,13.7500,7.2500,50.5000,189.3125,5.5625,149.7500,0
1776973302.180,5.1499,0.8882,3.3399,-1.2897,0.3469,-0.6464,-82.5000,6.7500,-28.6500,13.7260,12.3804,-6.1435,0.9148,0.9086,-0.1871,-115.9500,3.4500,10.5000,-30.3900,9.3500,6.2100,3.1001,2.3911,-1.7682,13.7500,7.2500,50.5000,188.6250,6.8750,147.5000,0
1776973302.190,4.8626,0.9625,4.3718,-0.8785,1.0416,0.2281,-85.0500,7.3500,-29.2500,9.5409,9.3805,-6.8043,-0.0679,0.7749,-0.6286,-114.9000,5.7000,10.8000,-32.8200,3.3800,8.1900,4.0481,1.7911,-1.6101,13.7500,7.2500,50.5000,188.6250,6.8750,147.5000,0
1776973302.194,8.9759,2.9042,6.7540,-0.8785,1.0416,0.2281,-84.0000,6.7500,-27.4500,8.3677,7.1587,-3.8020,-0.3824,0.2835,-0.5662,-114.9000,5.7000,10.8000,-32.8200,3.3800,8.1900,4.0481,1.7911,-1.6101,1.2500,9.7500,46.0625,187.8125,7.7500,145.4375,0
1776973302.200,8.9759,2.9042,6.7540,-0.1583,1.6577,0.7626,-84.0000,6.7500,-27.4500,8.3677,7.1587,-3.8020,-0.3824,0.2835,-0.5662,-114.9000,5.7000,10.8000,-26.4400,-5.2500,6.6800,3.8768,1.0472,-1.4083,1.2500,9.7500,46.0625,187.8125,7.7500,145.4375,0
1776973302.204,10.5512,3.9049,0.9768,-0.1583,1.6577,0.7626,-83.2500,6.4500,-26.4000,7.5130,4.8914,-1.0295,-0.6454,0.0733,-0.4988,-114.9000,5.7000,10.8000,-26.4400,-5.2500,6.6800,3.8768,1.0472,-1.4083,1.2500,9.7500,46.0625,186.8750,7.6250,145.2500,0
1776973302.210,10.5512,3.9049,0.9768,0.3381,1.6617,1.2367,-83.2500,6.4500,-26.4000,7.5130,4.8914,-1.0295,-0.6454,0.0733,-0.4988,-111.6000,9.4500,11.1000,-24.7500,-21.0000,7.5200,0.5269,-1.2632,-1.3232,1.2500,9.7500,46.0625,186.8750,7.6250,145.2500,0
1776973302.218,10.2089,6.3949,2.0662,0.9209,2.3068,1.3368,-83.4000,5.8500,-24.0000,7.3933,4.8195,2.7414,-0.9963,0.7426,-0.7274,-111.6000,9.4500,11.1000,-0.9000,9.8400,-5.5400,-2.6987,-4.5542,0.2858,1.2500,9.7500,46.0625,186.3750,5.4375,146.8750,0
1776973302.223,20.2214,9.1937,-10.1849,0.9209,2.3068,1.3368,-83.4000,5.8500,-24.0000,11.0325,2.6552,5.2720,-2.1035,1.1175,-0.4692,-112.6500,8.4000,11.1000,-0.9000,9.8400,-5.5400,-2.6987,-4.5542,0.2858,1.2500,9.7500,46.0625,185.8125,3.1875,149.1875,0
1776973302.230,20.2214,9.1937,-10.1849,-0.1420,1.1239,0.6174,-83.4000,5.8500,-24.0000,11.0325,2.6552,5.2720,-2.1035,1.1175,-0.4692,-111.3000,8.7000,12.9000,-1.6300,-18.9400,-17.9100,-3.9499,-4.6208,0.1909,1.2500,9.7500,46.0625,185.7500,1.5000,150.7500,0
1776973302.240,15.2271,10.1203,-11.6167,0.6150,0.9262,0.2132,-83.1000,2.7000,-21.7500,10.4555,-0.2274,4.9632,-2.8258,0.7205,-0.2864,-112.5000,9.0000,12.0000,5.2500,-18.5100,-10.3000,-2.8045,-3.1580,0.6469,1.2500,9.7500,46.0625,185.7500,1.5000,150.7500,0
1776973302.245,9.4212,-2.2960,-5.1332,3.8006,1.0235,0.4306,-83.1000,2.7000,-21.7500,9.8450,0.4788,1.4174,-2.3718,0.7560,-0.2569,-112.5000,9.0000,12.0000,5.2500,-18.5100,-10.3000,-2.8045,-3.1580,0.6469,1.2500,9.7500,46.0625,186.3125,-0.6250,152.5000,0
1776973302.250,9.4212,-2.2960,-5.1332,3.8006,1.0235,0.4306,-83.1000,2.7000,-21.7500,9.8450,0.4788,1.4174,-2.3718,0.7560,-0.2569,-109.5000,8.7000,11.5500,-4.1700,9.8300,-5.6000,-3.1820,-3.4874,1.8708,-2.5000,15.6875,43.7500,186.3125,-0.6250,152.5000,0
1776973302.255,14.4753,-8.4970,-16.3644,3.5074,1.2175,1.0696,-84.0000,3.3000,-22.3500,12.6605,3.4477,-1.2953,-0.4181,1.2220,0.1820,-109.5000,8.7000,11.5500,-4.1700,9.8300,-5.6000,-3.1820,-3.4874,1.8708,-2.5000,15.6875,43.7500,186.4375,-3.1875,153.8750,0
1776973302.260,14.4753,-8.4970,-16.3644,3.5074,1.2175,1.0696,-84.0000,3.3000,-22.3500,12.6605,3.4477,-1.2953,-0.4181,1.2220,0.1820,-109.5000,8.7000,11.5500,-7.5300,12.7800,-19.4400,-2.4904,-4.4004,1.3919,-2.5000,15.6875,43.7500,186.4375,-3.1875,153.8750,0
1776973302.264,17.0036,-10.9247,-10.1682,2.4816,1.2622,1.3832,-84.0000,3.3000,-22.3500,17.5663,6.7493,-4.6543,1.6363,1.7866,0.8420,-109.5000,8.7000,11.5500,-7.5300,12.7800,-19.4400,-0.7199,-4.6044,0.8738,-2.5000,15.6875,43.7500,186.3750,-5.6875,154.2500,0
1776973302.270,17.0036,-10.9247,-10.1682,2.4816,1.2622,1.3832,-84.1500,3.0000,-21.4500,19.9724,8.9256,-8.9519,3.7289,1.3899,1.0856,-106.8000,10.0500,10.2000,-10.4400,7.8300,-22.6100,-0.7199,-4.6044,0.8738,-2.5000,15.6875,43.7500,186.6875,-8.1875,154.2500,0
1776973302.280,14.0252,-14.2048,-4.9656,1.8663,1.6625,1.7437,-83.2500,1.3500,-21.1500,19.9724,8.9256,-8.9519,5.1081,-0.3293,0.5076,-106.5000,11.4000,7.9500,-14.9300,11.2400,-21.8000,-0.0938,-4.2215,1.6068,-2.5000,15.6875,43.7500,187.2500,-10.4375,154.1875,0
1776973302.290,14.3604,-9.6175,2.3655,0.0493,2.0643,1.9612,-84.4500,0.9000,-19.3500,15.6485,8.4731,-11.4610,2.8980,-1.4615,-0.1817,-107.1000,14.2500,5.2500,-14.9800,-9.9100,-15.9900,0.1669,-3.6576,1.8130,-2.5000,15.6875,43.7500,187.2500,-10.4375,154.1875,0
1776973302.294,12.2368,-3.3040,9.3087,-1.3075,2.1306,1.8175,-84.6000,38.1000,-19.3500,15.6485,8.4731,-11.4610,2.8980,-1.4615,-0.1817,-107.1000,14.2500,5.2500,-14.9800,-9.9100,-15.9900,0.1669,-3.6576,1.8130,-2.5000,15.6875,43.7500,187.2500,-10.4375,154.1875,0
1776973302.300,12.2368,-3.3040,9.3087,-1.3075,2.1306,1.8175,-84.6000,-0.3000,-17.4000,5.7221,-1.8747,-1.7358,1.2433,-1.0528,-0.4082,-105.3000,19.8000,2.8500,-15.8100,-16.7200,-12.8700,0.0818,-3.1034,1.5806,6.0625,6.8750,41.5625,187.7500,-12.3750,154.1250,0
1776973302.304,10.7739,2.8659,8.0110,-1.5394,1.9913,1.7499,-84.6000,-0.3000,-17.4000,5.7221,-1.8747,-1.7358,1.2433,-1.0528,-0.4082,-105.3000,19.8000,2.8500,-15.8100,-16.7200,-12.8700,0.0818,-3.1034,1.5806,6.0625,6.8750,41.5625,187.7500,-12.3750,154.1250,0
1776973302.309,8.8801,7.5896,2.4636,-1.5394,1.9913,1.7499,-85.8000,-1.9500,-15.4500,2.4349,-8.3941,5.7030,0.4559,0.7703,-0.2753,-105.3000,19.8000,2.8500,-8.6100,-9.9100,-8.6000,-0.2443,-2.4129,1.2872,6.0625,6.8750,41.5625,188.1250,-13.8750,154.3125,0
1776973302.317,8.8801,7.5896,2.4636,-0.9707,1.6896,1.6273,-85.8000,-1.9500,-15.4500,2.4349,-8.3941,5.7030,0.4559,0.7703,-0.2753,-108.7500,35.4000,4.0500,-5.0200,-5.1200,-8.4800,-0.5378,-2.0311,1.1159,6.0625,6.8750,41.5625,188.4375,-15.1875,154.6250,0
1776973302.322,6.1651,8.7197,2.2122,0.5646,1.4983,1.3797,-85.8000,-1.9500,-15.4500,7.6878,-10.4962,18.5215,1.7816,-0.0677,-0.0464,-108.7500,35.4000,4.0500,-5.0200,-5.1200,-8.4800,-0.5378,-2.0311,1.1159,6.0625,6.8750,41.5625,188.8750,-16.3125,155.0625,0
1776973302.330,5.8299,3.9935,5.2625,1.8474,1.4434,1.0992,-83.7000,-4.0500,-14.5500,1.8196,-8.1092,10.7452,0.2960,0.1514,-0.0112,-111.4500,41.2500,4.9500,-2.8400,-6.5800,-6.0700,-0.7276,-1.7715,1.1846,6.0625,6.8750,41.5625,189.2500,-17.5000,155.6250,0
1776973302.340,6.6463,-1.6544,7.5824,1.4450,1.5505,1.0222,-83.7000,-4.0500,-14.5500,2.9832,-10.0604,3.0742,0.0933,1.1426,0.5303,-112.5000,39.0000,6.3000,-4.5600,-4.6600,-7.4500,-0.9065,-1.7617,1.2163,6.0625,6.8750,41.5625,189.2500,-17.5000,155.6250,0
1776973302.345,6.6463,-1.6544,7.5824,1.4450,1.5505,1.0222,-83.7000,-4.0500,-14.5500,2.9832,-10.0604,3.0742,0.0933,1.1426,0.5303,-112.5000,39.0000,6.3000,-4.5600,-4.6600,-7.4500,-0.9065,-1.7617,1.2163,6.0625,6.8750,41.5625,189.6250,-18.6250,156.3125,0
1776973302.350,10.5752,-7.1946,2.5019,0.4700,1.4773,1.1455,-84.4500,-4.5000,-14.2500,4.1899,-5.4181,2.2745,-0.2182,1.4088,0.8868,-115.8000,36.7500,10.6500,-6.1900,-2.2600,-9.1500,-1.0996,-1.6417,1.1825,13.6875,5.8750,37.7500,189.6250,-18.6250,156.3125,0
1776973302.355,10.5752,-7.1946,2.5019,0.4700,1.4773,1.1455,-84.4500,-4.5000,-14.2500,4.1899,-5.4181,2.2745,-0.2182,1.4088,0.8868,-115.8000,36.7500,10.6500,-6.1900,-2.2600,-9.1500,-1.0996,-1.6417,1.1825,13.6875,5.8750,37.7500,189.9375,-19.5000,157.0000,0
1776973302.360,12.6988,-10.5919,0.5794,-0.5415,1.2689,1.3555,-84.6000,-4.9500,-12.4500,8.1259,0.8930,0.9409,-1.0232,1.6944,0.9286,-116.4000,26.7000,12.6000,-5.0700,-3.8400,-8.8100,-1.0472,-1.3941,1.0232,13.6875,5.8750,37.7500,189.9375,-19.5000,157.0000,0
1776973302.365,12.6988,-10.5919,0.5794,-0.5415,1.2689,1.3555,-84.6000,-4.9500,-12.4500,8.1259,0.8930,0.9409,-1.0232,1.6944,0.9286,-116.4000,26.7000,12.6000,-5.0700,-3.8400,-8.8100,-0.8978,-1.2272,0.8770,13.6875,5.8750,37.7500,190.1875,-20.3750,157.5625,0
1776973302.371,12.2009,-8.5258,1.6496,-1.0954,1.0272,1.5044,-83.8500,-4.2000,-11.8500,13.9055,4.4053,1.7047,-1.8911,1.4589,0.9505,-116.4000,26.7000,12.6000,-4.1000,-2.4900,-8.9100,-0.8978,-1.2272,0.8770,13.6875,5.8750,37.7500,190.4375,-21.1250,158.0625,0
1776973302.380,11.1450,-5.4827,2.2553,-1.4181,0.9856,1.4149,-83.8500,-4.9500,-12.4500,14.4203,5.6144,1.8771,-1.4285,0.7408,0.8639,-114.6000,12.4500,15.7500,-4.8000,-1.6600,-9.5000,-0.8323,-1.1901,0.8225,13.6875,5.8750,37.7500,190.4375,-21.1250,158.0625,0
1776973302.390,11.7771,-3.4285,1.2737,-1.8087,0.8713,1.2721,-83.8500,-4.9500,-12.4500,11.2336,4.7884,0.5770,-0.4482,0.6371,0.8079,-111.4500,7.8000,15.6000,-6.5400,-3.8400,-8.1300,-0.7909,-1.0243,0.7854,13.6875,5.8750,37.7500,190.6875,-21.8125,158.5625,0
1776973302.395,11.7771,-3.4285,1.2737,-1.8087,0.8713,1.2721,-83.8500,-4.9500,-12.4500,11.2336,4.7884,0.5770,-0.4482,0.6371,0.8079,-111.4500,7.8000,15.6000,-6.5400,-3.8400,-8.1300,-0.7909,-1.0243,0.7854,13.6875,5.8750,37.7500,190.6875,-21.8125,158.5625,0
1776973302.400,11.3318,-0.6512,1.4605,-1.7048,0.7141,1.2036,-83.8500,-7.3500,-11.4000,10.8338,2.0638,-0.0407,0.0394,0.8777,0.8513,-110.7000,5.5500,14.8500,-4.9900,-0.9800,-10.0500,-0.7101,-0.5770,0.6610,16.2500,2.2500,36.7500,190.8750,-22.2500,159.0625,0
1776973302.405,11.3318,-0.6512,1.4605,-1.7048,0.7141,1.2036,-83.8500,-7.3500,-11.4000,10.8338,2.0638,-0.0407,0.0394,0.8777,0.8513,-109.9500,5.2500,14.2500,-4.9900,-0.9800,-10.0500,-0.7101,-0.5770,0.6610,16.2500,2.2500,36.7500,190.8750,-22.2500,159.0625,0
1776973302.410,9.9814,2.4014,0.7470,-1.1354,0.6475,1.1085,-83.8500,-7.3500,-11.4000,10.5560,-0.7278,0.3112,0.0989,0.8575,0.9699,-109.9500,5.2500,14.2500,-5.7400,-2.0700,-9.1900,-0.5072,-0.4811,0.5454,16.2500,2.2500,36.7500,191.1250,-22.6250,159.4375,0
1776973302.418,9.3901,4.0223,-0.1149,-0.1074,0.6776,0.9393,-82.6500,-8.1000,-10.6500,9.8617,-1.2641,0.7470,-0.1106,0.8362,1.0890,-109.9500,5.2500,14.2500,-4.6300,-2.9700,-8.5300,-0.2782,-0.3872,0.4440,16.2500,2.2500,36.7500,191.2500,-22.8750,159.6250,0
1776973302.423,9.3901,4.0223,-0.1149,-0.1074,0.6776,0.9393,-82.6500,-8.1000,-10.6500,9.8617,-1.2641,0.7470,-0.1106,0.8362,1.0890,-109.9500,5.2500,14.2500,-4.6300,-2.9700,-8.5300,-0.2782,-0.3872,0.4440,16.2500,2.2500,36.7500,191.4375,-23.1250,159.8125,0
1776973302.430,9.1913,2.8156,1.0582,0.9022,0.7317,0.7613,-83.1000,-8.5500,-11.1000,9.5696,-0.9649,0.5866,-0.3272,0.9486,1.1676,-109.9500,5.2500,14.2500,-4.9800,-2.5600,-8.6100,-0.2334,-0.3131,0.3785,16.2500,2.2500,36.7500,191.5625,-23.3125,160.0000,0
1776973302.440,9.4140,0.6129,1.4222,1.4328,0.7687,0.6598,-85.0500,-8.5500,-10.6500,9.3901,0.3496,0.3879,-0.3970,1.0299,1.2180,-104.2500,3.0000,11.4000,-4.7900,-2.6700,-8.4600,-0.2694,-0.2913,0.3109,16.2500,2.2500,36.7500,191.5625,-23.3125,160.0000,0
1776973302.445,9.5960,-1.4844,1.4509,1.6438,0.8050,0.6715,-85.0500,-8.5500,-10.6500,9.0860,2.0566,0.5842,-0.2649,1.1695,1.2438,-102.9000,1.2000,13.3500,-4.7900,-2.6700,-8.4600,-0.2694,-0.2913,0.3109,16.2500,2.2500,36.7500,191.5625,-23.3125,160.0000,0
1776973302.450,9.5960,-1.4844,1.4509,1.6438,0.8050,0.6715,-85.2000,-9.1500,-10.0500,9.0860,2.0566,0.5842,-0.2649,1.1695,1.2438,-102.9000,1.2000,13.3500,-4.9100,-2.4700,-8.5400,-0.2618,-0.2749,0.2596,17.0000,0.0625,36.5000,191.6250,-23.5625,160.1875,0
1776973302.455,10.3046,-3.2753,1.4557,1.4192,0.7938,0.7341,-85.2000,-9.1500,-10.0500,9.3541,2.8874,1.0008,-0.2745,1.1447,1.2497,-102.3000,2.2500,14.8500,-4.9100,-2.4700,-8.5400,-0.2618,-0.2749,0.2596,17.0000,0.0625,36.5000,191.6250,-23.5625,160.1875,0
1776973302.460,10.3046,-3.2753,1.4557,1.4192,0.7938,0.7341,-84.6000,-10.5000,-8.8500,9.3541,2.8874,1.0008,-0.2745,1.1447,1.2497,-102.3000,2.2500,14.8500,-4.8400,-2.6400,-8.3100,-0.2007,-0.2531,0.2182,17.0000,0.0625,36.5000,191.6875,-23.6875,160.3750,0
1776973302.465,10.8912,-4.6878,1.7286,0.7546,0.6869,0.7402,-84.6000,-10.5000,-8.8500,9.3374,3.1460,0.9337,0.1455,1.1119,1.2756,-101.1000,1.9500,14.7000,-4.8400,-2.6400,-8.3100,-0.1702,-0.2247,0.1876,17.0000,0.0625,36.5000,191.7500,-23.8750,160.5000,0
1776973302.471,10.8912,-4.6878,1.7286,0.7546,0.6869,0.7402,-83.7000,-7.5000,-9.7500,9.3374,3.1460,0.9337,0.1455,1.1119,1.2756,-101.1000,1.9500,14.7000,-4.6000,-3.0200,-8.1800,-0.1702,-0.2247,0.1876,17.0000,0.0625,36.5000,191.8125,-24.0000,160.5625,0
1776973302.480,10.2256,-4.3024,1.5850,0.0125,0.5529,0.7317,-83.7000,-7.5000,-9.7500,8.9352,2.8706,1.2977,0.3200,1.0531,1.2841,-101.1000,1.9500,14.7000,-4.5800,-3.1000,-8.2000,-0.1549,-0.1931,0.1800,17.0000,0.0625,36.5000,191.8125,-24.0000,160.5625,0
1776973302.490,9.6031,-2.7797,0.9936,-0.5662,0.4775,0.7573,-82.3500,-8.1000,-8.8500,9.0190,2.1117,1.4676,0.3288,0.9795,1.3153,-102.1500,-0.1500,15.7500,-4.8000,-2.7300,-8.1900,-0.1374,-0.1527,0.1691,17.0000,0.0625,36.5000,191.8750,-24.1250,160.6875,0
1776973302.495,9.4906,-0.5243,0.6776,-0.6853,0.5207,0.7597,-82.3500,-8.1000,-8.8500,8.8729,1.5754,1.3743,0.4604,1.0472,1.3097,-103.9500,-1.2000,17.5500,-4.8000,-2.7300,-8.1900,-0.1374,-0.1527,0.1691,17.0000,0.0625,36.5000,191.9375,-24.1875,160.7500,0
1776973302.500,9.4906,-0.5243,0.6776,-0.6853,0.5207,0.7597,-83.1000,-9.3000,-8.1000,8.8729,1.5754,1.3743,0.4604,1.0472,1.3097,-103.9500,-1.2000,17.5500,-4.7500,-2.8100,-8.2100,-0.1254,-0.1309,0.1462,17.7500,-0.5625,34.8750,191.9375,-24.1875,160.7500,0
1776973302.505,9.6917,1.1827,0.3998,-0.7160,0.6006,0.7773,-83.1000,-9.3000,-8.1000,8.6814,0.9577,0.9481,0.5910,1.1237,1.3094,-103.8000,-2.5500,20.5500,-4.7500,-2.8100,-8.2100,-0.1254,-0.1309,0.1462,17.7500,-0.5625,34.8750,192.0000,-24.3125,160.8750,0
1776973302.510,9.6917,1.1827,0.3998,-0.7160,0.6006,0.7773,-83.2500,-11.1000,-9.7500,8.6814,0.9577,0.9481,0.5910,1.1237,1.3094,-103.8000,-2.5500,20.5500,-4.8100,-2.6700,-8.2200,-0.1178,-0.1167,0.1320,17.7500,-0.5625,34.8750,192.0000,-24.3125,160.8750,0
1776973302.517,10.0413,1.4676,0.2442,-0.5129,0.6299,0.8122,-83.2500,-11.1000,-9.7500,9.5577,0.7183,0.3950,0.6981,1.0006,1.3206,-105.4500,-6.4500,20.7000,-4.7800,-2.5600,-8.3300,-0.1080,-0.1200,0.1233,17.7500,-0.5625,34.8750,192.0625,-24.3750,160.9375,0
1776973302.522,9.5672,2.2625,0.1700,-0.1535,0.6808,0.7882,-85.2000,-11.1000,-9.0000,9.9072,0.8380,0.2011,0.6781,0.9033,1.2761,-105.4500,-6.4500,20.7000,-4.7800,-2.5600,-8.3300,-0.1080,-0.1200,0.1233,17.7500,-0.5625,34.8750,192.0625,-24.4375,161.0000,0
1776973302.530,9.7396,1.4293,0.2179,-0.1535,0.6808,0.7882,-83.2500,-10.6500,-9.0000,9.9072,0.8380,0.2011,0.6781,0.9033,1.2761,-105.4500,-6.4500,20.7000,-4.7500,-2.5800,-8.3000,-0.0971,-0.1418,0.1102,17.7500,-0.5625,34.8750,192.1250,-24.5625,161.0625,0
1776973302.540,9.6558,0.4477,0.3735,0.1823,0.7144,0.8026,-82.9500,-10.3500,-8.7000,9.6175,1.2498,0.0694,0.5319,0.8396,1.2129,-105.4500,-6.4500,20.7000,-4.7600,-2.5600,-8.3300,-0.0960,-0.1625,0.1069,17.7500,-0.5625,34.8750,192.1250,-24.5625,161.0625,0
1776973302.545,9.6558,0.4477,0.3735,0.3246,0.7264,0.8271,-82.9500,-10.3500,-8.7000,9.1578,1.6592,-0.1867,0.3331,0.8577,1.1381,-108.7500,-12.9000,24.0000,-4.7600,-2.5600,-8.3300,-0.0960,-0.1625,0.1069,17.7500,-0.5625,34.8750,192.1875,-24.7500,161.1875,0
1776973302.550,9.8067,-0.3543,0.3998,0.2595,0.7157,0.8633,-82.9500,-10.3500,-8.7000,9.1578,1.6592,-0.1867,0.1114,0.8316,1.0549,-108.7500,-12.9000,24.0000,-4.6100,-2.5400,-8.3500,-0.0927,-0.1658,0.1069,18.6875,-1.6875,34.8750,192.1875,-24.7500,161.1875,0
1776973302.555,9.8067,-0.3543,0.3998,0.2595,0.7157,0.8633,-82.9500,-10.3500,-8.7000,8.8873,2.1572,-0.4573,0.1114,0.8316,1.0549,-108.9000,-16.8000,22.8000,-4.6100,-2.5400,-8.3500,-0.0927,-0.1658,0.1069,18.6875,-1.6875,34.8750,192.1875,-24.7500,161.1875,0
1776973302.560,9.7205,-0.5028,0.5100,0.1788,0.6368,0.9028,-84.0000,-12.6000,-7.5000,8.7005,2.2769,-0.5435,-0.0019,0.8767,0.9689,-108.9000,-16.8000,22.8000,-4.7700,-2.6200,-8.1800,-0.0622,-0.1691,0.1091,18.6875,-1.6875,34.8750,192.2500,-24.9375,161.2500,0
1776973302.565,9.7205,-0.5028,0.5100,0.1788,0.6368,0.9028,-84.0000,-12.6000,-7.5000,8.7005,2.2769,-0.5435,-0.0019,0.8767,0.9689,-108.9000,-19.5000,22.3500,-4.7700,-2.6200,-8.1800,-0.0469,-0.1778,0.1080,18.6875,-1.6875,34.8750,192.2500,-25.1250,161.3125,0
1776973302.571,9.6151,-0.1508,0.4788,0.0386,0.6137,0.9257,-84.0000,-12.6000,-7.5000,8.8178,2.3176,-0.5602,-0.0181,0.8639,0.8871,-108.9000,-19.5000,22.3500,-4.6500,-2.6000,-8.2400,-0.0469,-0.1778,0.1080,18.6875,-1.6875,34.8750,192.2500,-25.1250,161.3125,0
1776973302.580,9.5529,0.3256,0.4046,-0.0826,0.5939,0.9494,-82.5000,-13.0500,-8.2500,8.9064,2.3703,-0.8116,0.1223,0.9577,0.8095,-109.0500,-22.9500,21.1500,-4.5300,-2.8600,-8.2000,-0.0371,-0.1756,0.1102,18.6875,-1.6875,34.8750,192.3125,-25.2500,161.3750,0
1776973302.585,9.5529,0.3256,0.4046,-0.0826,0.5939,0.9494,-82.5000,-13.0500,-8.2500,8.9064,2.3703,-0.8116,0.1223,0.9577,0.8095,-109.0500,-22.9500,21.1500,-4.5300,-2.8600,-8.2000,-0.0600,-0.1920,0.1244,18.6875,-1.6875,34.8750,192.3750,-25.4375,161.3750,0
1776973302.591,9.6367,0.3496,0.5219,-0.1399,0.6209,0.9697,-81.1500,-14.8500,-8.8500,8.5593,2.3439,0.3280,0.3176,0.8607,0.7901,-109.0500,-22.9500,21.1500,-4.7300,-2.8000,-8.1600,-0.0600,-0.1920,0.1244,18.6875,-1.6875,34.8750,192.3750,-25.4375,161.3750,0
1776973302.596,9.6367,0.3496,0.5219,-0.1399,0.6209,0.9697,-81.1500,-14.8500,-8.8500,8.5593,2.3439,0.3280,0.3176,0.8607,0.7901,-108.1500,-25.0500,21.0000,-4.7300,-2.8000,-8.1600,-0.0851,-0.2214,0.1407,19.0000,-1.0000,33.7500,192.4375,-25.6250,161.4375,0
1776973302.601,9.8569,0.3208,0.2227,-0.1167,0.6614,1.0283,-81.6000,-13.6500,-6.9000,8.7795,2.7509,-0.2993,0.0152,1.2185,0.6923,-108.1500,-25.0500,21.0000,-4.8100,-2.6700,-8.0800,-0.0851,-0.2214,0.1407,19.0000,-1.0000,33.7500,192.4375,-25.6250,161.4375,0
1776973302.606,9.8569,0.3208,0.2227,-0.1167,0.6614,1.0283,-81.6000,-13.6500,-6.9000,8.7795,2.7509,-0.2993,0.0152,1.2185,0.6923,-106.8000,-25.0500,20.2500,-4.8100,-2.6700,-8.0800,-0.0949,-0.2291,0.1429,19.0000,-1.0000,33.7500,192.5000,-25.8125,161.5625,0
1776973302.611,9.9144,0.1293,0.1173,-0.1575,0.6749,1.0813,-81.3000,-15.4500,-5.2500,8.8250,1.9154,-0.7278,-0.4378,1.0182,0.7360,-106.8000,-25.0500,20.2500,-4.6800,-2.5800,-8.2200,-0.0949,-0.2291,0.1429,19.0000,-1.0000,33.7500,192.5000,-25.8125,161.5625,0
1776973302.616,9.9144,0.1293,0.1173,-0.1575,0.6749,1.0813,-81.3000,-15.4500,-5.2500,8.8250,1.9154,-0.7278,-0.4378,1.0182,0.7360,-105.7500,-25.9500,21.1500,-4.6800,-2.5800,-8.2200,-0.1134,-0.2542,0.1418,19.0000,-1.0000,33.7500,192.5625,-26.0000,161.6250,0
1776973302.621,9.5936,0.3376,0.3519,-0.1988,0.7168,1.1146,-82.2000,-14.2500,-5.2500,8.6167,1.1732,0.7374,-0.4423,0.9566,0.7416,-104.5500,-25.8000,22.0500,-4.6100,-2.5800,-8.3000,-0.1134,-0.2542,0.1418,19.0000,-1.0000,33.7500,192.5625,-26.1875,161.6875,0
1776973302.630,9.4786,0.2514,0.5028,-0.1164,0.7530,1.1764,-82.3500,-15.1500,-6.1500,9.3925,0.7733,1.7382,-0.2124,0.8553,0.7413,-104.5500,-25.8000,22.0500,-4.7200,-2.3100,-8.3600,-0.1429,-0.2847,0.1473,19.0000,-1.0000,33.7500,192.5625,-26.1875,161.6875,0
1776973302.640,9.7229,0.1484,0.9313,-0.0296,0.7389,1.2052,-82.3500,-15.1500,-6.1500,9.5409,0.4094,2.0016,-0.0949,0.7626,0.7586,-104.5500,-25.8000,22.0500,-4.7700,-2.3900,-8.3100,-0.1658,-0.3152,0.1462,19.0000,-1.0000,33.7500,192.6250,-26.3750,161.8125,0
1776973302.645,9.7229,0.1484,0.9313,-0.0296,0.7389,1.2052,-82.3500,-15.1500,-6.1500,9.5409,0.4094,2.0016,-0.0949,0.7626,0.7586,-104.5500,-25.8000,22.0500,-4.7700,-2.3900,-8.3100,-0.1658,-0.3152,0.1462,19.0000,-1.0000,33.7500,192.6250,-26.3750,161.8125,0
1776973302.650,9.9216,-0.7542,1.4102,0.0653,0.7341,1.2052,-80.5500,-16.2000,-3.7500,9.6606,0.1508,1.3072,-0.1716,0.8604,0.7893,-104.5500,-25.8000,22.0500,-4.7800,-2.4400,-8.5100,-0.1756,-0.3360,0.1505,20.0625,-1.0625,34.1875,192.6250,-26.5625,161.9375,0
1776973302.655,9.9216,-0.7542,1.4102,0.0653,0.7341,1.2052,-80.5500,-16.2000,-3.7500,9.6606,0.1508,1.3072,-0.1716,0.8604,0.7893,-99.9000,-26.5500,23.1000,-4.7800,-2.4400,-8.5100,-0.1756,-0.3360,0.1505,20.0625,-1.0625,34.1875,192.6250,-26.5625,161.9375,0
1776973302.660,10.2065,-1.7933,1.2570,0.1295,0.7021,1.2244,-79.5000,-17.4000,-4.9500,9.7827,-0.0024,1.0487,-0.3235,0.8647,0.8348,-99.9000,-26.5500,23.1000,-4.7300,-2.5100,-8.6400,-0.1418,-0.3534,0.1505,20.0625,-1.0625,34.1875,192.6875,-26.7500,162.0000,0
1776973302.665,10.2089,-2.2266,1.1612,0.1295,0.7021,1.2244,-79.5000,-17.4000,-4.9500,9.7827,-0.0024,1.0487,-0.3235,0.8647,0.8348,-100.2000,-26.2500,25.2000,-4.7300,-2.5100,-8.6400,-0.1069,-0.3818,0.1516,20.0625,-1.0625,34.1875,192.6875,-27.0000,162.0625,0
1776973302.671,10.2089,-2.2266,1.1612,0.0205,0.6907,1.2385,-79.6500,-16.8000,-4.8000,9.6965,0.1508,1.3767,-0.4770,0.8314,0.8716,-100.3500,-28.9500,23.5500,-4.6800,-2.4300,-8.6700,-0.1069,-0.3818,0.1516,20.0625,-1.0625,34.1875,192.7500,-27.2500,162.1250,0
1776973302.681,10.2615,-2.1620,1.1564,-0.0418,0.6592,1.2377,-79.3500,-17.5500,-4.3500,9.3709,0.3926,1.7526,-0.6134,0.8276,0.9190,-100.3500,-26.7000,24.7500,-4.6800,-2.3000,-8.6800,-0.0884,-0.4189,0.1429,20.0625,-1.0625,34.1875,192.7500,-27.2500,162.1250,0
1776973302.690,10.0413,-1.0511,1.2570,-0.1511,0.5969,1.2510,-77.5500,-18.9000,-3.7500,9.4906,0.7590,1.9609,-0.6752,0.8228,0.9550,-100.3500,-26.7000,24.7500,-4.7600,-2.3400,-8.6000,-0.0709,-0.4669,0.1440,20.0625,-1.0625,34.1875,192.7500,-27.5000,162.1875,0
1776973302.695,9.9431,-0.0646,0.7901,-0.1250,0.5985,1.2841,-77.5500,-18.9000,-3.7500,9.4906,0.7590,1.9609,-0.6752,0.8228,0.9550,-100.3500,-26.7000,24.7500,-4.7600,-2.3400,-8.6000,-0.0709,-0.4669,0.1440,20.0625,-1.0625,34.1875,192.7500,-27.5000,162.1875,0
1776973302.700,9.9431,-0.0646,0.7901,-0.1250,0.5985,1.2841,-77.4000,-19.0500,-4.3500,9.5672,1.1253,1.6161,-0.6243,0.8639,0.9598,-97.8000,-27.4500,26.4000,-4.6700,-2.3100,-8.7500,-0.0589,-0.5334,0.1527,19.8750,-2.1875,34.5625,192.8125,-27.8125,162.1875,0
1776973302.705,9.8857,0.9433,0.4453,-0.0608,0.6249,1.3592,-77.4000,-19.0500,-4.3500,9.5672,1.1253,1.6161,-0.4988,0.8633,0.9377,-97.8000,-27.4500,26.4000,-4.6700,-2.3100,-8.7500,-0.0589,-0.5334,0.1527,19.8750,-2.1875,34.5625,192.8125,-27.8125,162.1875,0
1776973302.710,9.8857,0.9433,0.4453,-0.0608,0.6249,1.3592,-77.4000,-19.0500,-4.3500,9.4451,1.5060,0.9577,-0.4988,0.8633,0.9377,-97.5000,-28.2000,27.1500,-4.6100,-2.4600,-8.8200,-0.0709,-0.6229,0.1614,19.8750,-2.1875,34.5625,192.8125,-28.1875,162.2500,0
1776973302.715,10.5058,1.0894,0.0766,-0.0866,0.6360,1.4424,-77.4000,-19.0500,-4.3500,9.8785,2.0758,-0.1604,-0.3176,0.8111,0.8998,-97.5000,-28.2000,27.1500,-4.6100,-2.4600,-8.8200,-0.0742,-0.7538,0.1833,19.8750,-2.1875,34.5625,192.8750,-28.5625,162.3125,0
1776973302.721,10.5058,1.0894,0.0766,-0.0866,0.6360,1.4424,-78.0000,-18.9000,-3.7500,9.8785,2.0758,-0.1604,-0.3176,0.8111,0.8998,-96.6000,-29.2500,26.2500,-4.6300,-2.5600,-8.7900,-0.0742,-0.7538,0.1833,19.8750,-2.1875,34.5625,192.9375,-29.0625,162.3125,0
1776973302.731,10.9080,1.1085,-0.1891,-0.0629,0.6920,1.5303,-78.0000,-18.9000,-3.7500,10.4483,2.7294,-1.4461,-0.1378,0.8391,0.8442,-96.9000,-29.5500,27.0000,-4.3600,-2.8700,-9.2900,-0.0993,-0.9043,0.2236,19.8750,-2.1875,34.5625,192.9375,-29.7500,162.4375,0
1776973302.741,11.4467,1.1732,-0.4405,-0.0003,0.7240,1.6217,-76.5000,-22.8000,-2.4000,10.8793,3.5674,-2.2841,0.1074,0.7605,0.7885,-95.7000,-28.9500,29.2500,-4.2600,-2.8400,-9.4100,-0.1484,-1.1192,0.3033,19.8750,-2.1875,34.5625,192.9375,-29.7500,162.4375,0
1776973302.746,11.5353,0.8906,-1.3982,0.0432,0.7962,1.7341,-76.5000,-22.8000,-2.4000,10.8697,4.2880,-2.3272,0.1905,0.6963,0.7304,-95.7000,-28.9500,29.2500,-4.2600,-2.8400,-9.4100,-0.1484,-1.1192,0.3033,19.8750,-2.1875,34.5625,193.0625,-30.5000,162.5000,0
1776973302.751,11.5353,0.8906,-1.3982,0.0432,0.7962,1.7341,-76.8000,-22.5000,-1.2000,10.8697,4.2880,-2.3272,0.1905,0.6963,0.7304,-95.7000,-28.9500,29.2500,-4.3800,-2.6800,-9.4700,-0.1931,-1.3624,0.4123,20.8750,-2.8750,33.0000,193.0625,-30.5000,162.5000,0
1776973302.755,11.5496,0.8332,-1.9058,0.1252,0.8407,1.8564,-76.8000,-22.5000,-1.2000,10.5058,4.7094,-1.9225,0.0813,0.5750,0.6499,-95.7000,-28.9500,29.2500,-4.3800,-2.6800,-9.4700,-0.1931,-1.3624,0.4123,20.8750,-2.8750,33.0000,193.1875,-31.4375,162.6250,0
1776973302.761,11.5496,0.8332,-1.9058,0.1252,0.8407,1.8564,-74.8500,-22.5000,-1.2000,10.5058,4.7094,-1.9225,0.0813,0.5750,0.6499,-96.0000,-30.4500,27.1500,-4.3600,-2.2300,-9.7600,-0.1647,-1.6177,0.5007,20.8750,-2.8750,33.0000,193.1875,-31.4375,162.6250,0
1776973302.765,11.5041,1.5706,-1.5682,0.1964,0.8577,2.0057,-74.8500,-22.5000,-1.2000,10.6518,5.4253,-1.4246,-0.2132,0.4618,0.5284,-96.0000,-30.4500,27.1500,-4.3600,-2.2300,-9.7600,-0.1189,-1.8882,0.6000,20.8750,-2.8750,33.0000,193.3750,-32.5625,162.6875,0
1776973302.771,11.8226,2.8515,-1.3695,0.2944,0.8489,2.1954,-75.1500,-24.6000,0.3000,10.6518,5.4253,-1.4246,-0.2132,0.4618,0.5284,-97.0500,-31.2000,30.4500,-4.1100,-1.4200,-10.0200,-0.1189,-1.8882,0.6000,20.8750,-2.8750,33.0000,193.5625,-33.8125,162.6875,0
1776973302.781,12.5959,3.6799,-0.9840,0.2944,0.8489,2.1954,-75.1500,-24.6000,0.3000,11.1354,6.2393,-0.9313,-0.3728,0.2726,0.3541,-96.4500,-31.2000,29.7000,-3.9200,-1.0600,-9.7900,0.0262,-2.1817,0.6981,20.8750,-2.8750,33.0000,193.5625,-33.8125,162.6875,0
1776973302.791,13.9031,4.6400,-0.5483,0.5164,0.8950,2.5791,-72.6000,-26.4000,0.4500,11.2144,6.7516,-0.5938,-0.5335,0.0165,0.1460,-97.8000,-31.6500,30.4500,-3.7400,-2.3000,-10.1400,0.1680,-2.5536,0.8018,20.8750,-2.8750,33.0000,193.8750,-35.3125,162.5625,0
1776973302.796,13.9031,4.6400,-0.5483,0.5164,0.8950,2.5791,-72.6000,-26.4000,0.4500,12.0165,6.8331,-0.6129,-0.5191,-0.3056,-0.0989,-97.8000,-31.6500,30.4500,-3.7400,-2.3000,-10.1400,0.1680,-2.5536,0.8018,20.8750,-2.8750,33.0000,193.8750,-35.3125,162.5625,0
1776973302.801,15.4282,5.1380,-3.1843,0.3858,1.0003,2.7928,-72.6000,-26.4000,0.4500,12.0165,6.8331,-0.6129,-0.5191,-0.3056,-0.0989,-97.8000,-31.6500,30.4500,-3.2800,-3.3600,-10.4800,0.2236,-2.9332,0.9545,22.7500,-2.5625,32.5625,194.1875,-37.0000,162.4375,0
1776973302.806,15.4282,5.1380,-3.1843,0.3858,1.0003,2.7928,-72.6000,-26.4000,0.4500,12.7324,7.2209,-0.8882,-0.1471,-0.3890,-0.4109,-97.8000,-31.6500,30.4500,-3.2800,-3.3600,-10.4800,0.2236,-2.9332,0.9545,22.7500,-2.5625,32.5625,194.6875,-39.0000,162.3750,0
1776973302.811,17.3244,4.4819,-4.5298,0.0173,1.1189,2.9396,-70.8000,-27.9000,1.6500,12.7324,7.2209,-0.8882,-0.1471,-0.3890,-0.4109,-101.7000,-34.5000,30.1500,-2.8700,-5.0400,-10.6800,0.2793,-3.3892,1.1912,22.7500,-2.5625,32.5625,194.6875,-39.0000,162.3750,0
1776973302.819,18.8065,6.0047,-3.9337,0.0173,1.1189,2.9396,-70.8000,-27.9000,1.6500,11.3557,8.2504,-3.1029,0.3238,-0.4620,-0.6678,-101.4000,-33.9000,28.6500,-2.5500,-6.8200,-10.7200,0.2673,-3.9554,1.5664,22.7500,-2.5625,32.5625,195.3125,-41.3750,162.3125,0
1776973302.824,18.8065,6.0047,-3.9337,-0.3235,1.1658,3.1634,-68.7000,-28.9500,1.8000,11.0684,9.7372,-4.8411,0.7845,-0.6251,-0.8793,-101.4000,-33.9000,28.6500,-2.5500,-6.8200,-10.7200,0.2673,-3.9554,1.5664,22.7500,-2.5625,32.5625,230.3125,-44.1875,162.5625,0
1776973302.831,19.9652,8.3175,-4.4388,-0.7181,1.1319,3.4659,-67.5000,-29.7000,1.8000,10.2520,9.2153,-2.7677,0.7898,-1.4360,-1.0677,-103.3500,-33.1500,30.0000,-2.1400,-6.8800,-11.7900,0.1407,-4.6197,2.1118,22.7500,-2.5625,32.5625,226.8750,-47.5000,163.2500,0
1776973302.841,19.9365,9.0668,-4.5059,-0.7242,1.1215,3.6460,-66.9000,-31.5000,1.2000,8.5904,11.0445,0.8380,1.7144,-1.2367,-1.4027,-103.9500,-33.4500,29.7000,-2.8200,-7.0200,-12.7300,-0.0491,-5.3996,2.7783,22.7500,-2.5625,32.5625,226.8750,-47.5000,163.2500,0
1776973302.846,19.9365,9.0668,-4.5059,-0.7242,1.1215,3.6460,-66.9000,-31.5000,1.2000,8.5904,11.0445,0.8380,1.7144,-1.2367,-1.4027,-103.9500,-33.4500,29.7000,-2.8200,-7.0200,-12.7300,-0.0491,-5.3996,2.7783,22.7500,-2.5625,32.5625,226.8750,-47.5000,163.2500,0
1776973302.851,18.0355,8.8035,-3.2034,-0.4143,1.1820,3.6103,-64.6500,-32.2500,3.0000,10.8745,9.0644,-0.3304,1.9585,-0.9699,-1.7688,-104.2500,-32.2500,28.0500,-5.0100,-7.5000,-13.6100,-0.3894,-6.2995,3.4645,26.7500,-4.3750,28.6875,222.8750,-51.3750,164.4375,0
