timestamp,thigh_acc_x,thigh_acc_y,thigh_acc_z,thigh_gyro_x,thigh_gyro_y,thigh_gyro_z,thigh_mag_x,thigh_mag_y,thigh_mag_z,shank_acc_x,shank_acc_y,shank_acc_z,shank_gyro_x,shank_gyro_y,shank_gyro_z,shank_mag_x,shank_mag_y,shank_mag_z,foot_acc_x,foot_acc_y,foot_acc_z,foot_gyro_x,foot_gyro_y,foot_gyro_z,foot_mag_x,foot_mag_y,foot_mag_z,foot_euler_x,foot_euler_y,foot_euler_z,perturbation_event
1776971685.546,9.2680,2.8994,-0.9912,-0.0866,-0.0112,-0.0309,-95.4000,28.3500,-27.1500,9.5146,-1.5969,-1.7933,-0.0320,0.0541,-0.0309,149.5500,1128.7500,-1024.2000,6.9200,0.3900,-7.0200,0.0065,-0.0131,0.0000,-49.0000,-10.5625,54.1875,59.1250,44.5000,-176.5000,0
1776971685.551,9.1794,2.8802,-0.9098,-0.0735,-0.0131,-0.0296,-95.4000,28.3500,-27.1500,9.5146,-1.5969,-1.7933,-0.0320,0.0541,-0.0309,149.5500,1128.7500,-1024.2000,6.9200,0.3900,-7.0200,0.0065,-0.0131,0.0000,-49.0000,-10.5625,54.1875,59.1250,44.5000,-176.5000,0
1776971685.560,9.1387,2.8539,-0.8978,-0.0735,-0.0131,-0.0296,-95.8500,27.9000,-27.4500,9.4834,-1.6352,-1.8100,-0.0107,0.0498,-0.0317,149.5500,1128.7500,-1024.2000,6.8900,0.3900,-7.0300,0.0087,-0.0207,0.0000,-49.0000,-10.5625,54.1875,59.1250,44.5000,-176.5000,0
1776971685.566,9.1387,2.8539,-0.8978,-0.0517,-0.0120,-0.0354,-96.7500,27.3000,-26.5500,9.4978,-1.6352,-1.8052,0.0016,0.0501,-0.0301,147.9000,1129.9500,-1024.6500,6.9200,0.3900,-7.0200,0.0065,-0.0273,0.0000,-49.0000,-10.5625,54.1875,59.1250,44.5000,-176.5000,0
1776971685.571,9.1866,2.7797,-0.9481,-0.0432,-0.0107,-0.0394,-96.7500,27.3000,-26.5500,9.4978,-1.6352,-1.8052,0.0016,0.0501,-0.0301,147.9000,1129.9500,-1024.6500,6.9200,0.3900,-7.0200,0.0065,-0.0273,0.0000,-49.0000,-10.5625,54.1875,59.1250,44.5000,-176.5000,0
1776971685.576,9.1866,2.7797,-0.9481,-0.0432,-0.0107,-0.0394,-96.6000,28.3500,-26.7000,9.4571,-1.6592,-1.8220,-0.0008,0.0514,-0.0309,151.3500,1129.8000,-1024.8000,6.9200,0.4000,-7.0000,0.0065,-0.0327,0.0033,-48.5625,-9.5000,53.8750,59.1250,44.5000,-176.5000,0
1776971685.581,9.2249,2.7246,-0.9505,-0.0378,-0.0115,-0.0437,-96.6000,28.3500,-26.7000,9.4571,-1.6592,-1.8220,-0.0008,0.0514,-0.0309,151.3500,1129.8000,-1024.8000,6.9200,0.4000,-7.0000,0.0065,-0.0327,0.0033,-48.5625,-9.5000,53.8750,59.1250,44.5000,-176.5000,0
1776971685.585,9.2249,2.7246,-0.9505,-0.0378,-0.0115,-0.0437,-95.8500,27.4500,-27.4500,9.5577,-1.6568,-1.8316,-0.0099,0.0562,-0.0338,147.6000,1130.4000,-1023.6000,6.9200,0.4000,-7.0000,0.0076,-0.0436,0.0044,-48.5625,-9.5000,53.8750,59.1250,44.4375,-176.5000,0
1776971685.590,9.1842,2.7940,-0.8308,-0.0397,-0.0221,-0.0381,-95.8500,27.4500,-27.4500,9.5577,-1.6568,-1.8316,-0.0099,0.0562,-0.0338,147.6000,1130.4000,-1023.6000,6.9200,0.3900,-7.0200,0.0076,-0.0436,0.0044,-48.5625,-9.5000,53.8750,59.1250,44.4375,-176.5000,0
1776971685.595,9.1842,2.7940,-0.8308,-0.0397,-0.0221,-0.0381,-95.8500,27.4500,-27.4500,9.5792,-1.6328,-1.8004,-0.0205,0.0610,-0.0328,149.1000,1131.1500,-1023.6000,6.9200,0.3900,-7.0200,0.0055,-0.0458,0.0033,-48.5625,-9.5000,53.8750,59.1250,44.4375,-176.5000,0
1776971685.601,9.2392,2.8204,-0.9218,-0.0578,-0.0266,-0.0434,-95.8500,27.4500,-27.4500,9.5792,-1.6328,-1.8004,-0.0205,0.0610,-0.0328,149.1000,1131.1500,-1023.6000,6.8700,0.3700,-7.0200,0.0055,-0.0458,0.0033,-48.5625,-9.5000,53.8750,59.1250,44.3750,-176.5000,0
1776971685.610,9.1889,2.8060,-0.9673,-0.0751,-0.0360,-0.0453,-95.4000,29.1000,-27.1500,9.5409,-1.6544,-1.7023,-0.0325,0.0674,-0.0333,149.1000,1131.1500,-1023.6000,6.8600,0.3700,-7.0300,0.0044,-0.0524,0.0065,-48.5625,-9.5000,53.8750,59.1250,44.3750,-176.5000,0
1776971685.616,9.1889,2.8060,-0.9673,-0.0751,-0.0360,-0.0453,-95.4000,29.1000,-27.1500,9.6055,-1.6759,-1.6999,-0.0445,0.0757,-0.0400,149.1000,1131.1500,-1023.6000,6.8600,0.3600,-7.0300,0.0065,-0.0502,0.0076,-48.5625,-9.5000,53.8750,59.1250,44.3750,-176.5000,0
1776971685.621,9.2081,2.8228,-0.9098,-0.0858,-0.0400,-0.0424,-95.4000,29.1000,-27.1500,9.5816,-1.6185,-1.7262,-0.0554,0.0687,-0.0440,149.1000,1131.1500,-1023.6000,6.8600,0.3600,-7.0300,0.0065,-0.0502,0.0076,-48.5625,-9.5000,53.8750,59.1250,44.3750,-176.5000,0
1776971685.626,9.2081,2.8228,-0.9098,-0.0858,-0.0400,-0.0424,-96.9000,28.3500,-26.7000,9.5816,-1.6185,-1.7262,-0.0554,0.0687,-0.0440,150.4500,1130.4000,-1024.3500,6.8500,0.4000,-7.0200,0.0065,-0.0458,0.0055,-49.0000,-9.8750,55.0000,59.1250,44.3750,-176.5000,0
1776971685.631,9.2296,2.9090,-0.8571,-0.0954,-0.0410,-0.0450,-96.9000,28.3500,-26.7000,9.6175,-1.5993,-1.7142,-0.0600,0.0642,-0.0450,150.4500,1130.4000,-1024.3500,6.8500,0.4000,-7.0200,0.0065,-0.0458,0.0055,-49.0000,-9.8750,55.0000,59.1250,44.3750,-176.5000,0
1776971685.636,9.2296,2.9090,-0.8571,-0.0954,-0.0410,-0.0450,-96.7500,28.5000,-27.0000,9.6175,-1.5993,-1.7142,-0.0600,0.0642,-0.0450,149.2500,1131.0000,-1024.5000,6.8700,0.3800,-7.0500,0.0055,-0.0480,0.0055,-49.0000,-9.8750,55.0000,59.1250,44.3125,-176.5000,0
1776971685.641,9.1818,2.9760,-0.8930,-0.1045,-0.0368,-0.0472,-96.7500,28.5000,-27.0000,9.6367,-1.5107,-1.6783,-0.0573,0.0589,-0.0464,149.2500,1131.0000,-1024.5000,6.8700,0.3800,-7.0500,0.0055,-0.0480,0.0055,-49.0000,-9.8750,55.0000,59.1250,44.3125,-176.5000,0
1776971685.645,9.1818,2.9760,-0.8930,-0.1045,-0.0368,-0.0472,-97.2000,28.5000,-27.0000,9.6367,-1.5107,-1.6783,-0.0573,0.0589,-0.0464,150.0000,1130.2500,-1024.8000,6.8700,0.3800,-7.0500,0.0055,-0.0458,0.0044,-49.0000,-9.8750,55.0000,59.1250,44.3125,-176.5000,0
1776971685.651,9.1794,3.0167,-0.9840,-0.1071,-0.0341,-0.0437,-97.2000,28.5000,-27.0000,9.5888,-1.5682,-1.6951,-0.0501,0.0560,-0.0392,150.0000,1130.2500,-1024.8000,6.8700,0.3900,-7.0600,0.0055,-0.0458,0.0044,-49.0000,-9.8750,55.0000,59.1250,44.2500,-176.5000,0
1776971685.660,9.1889,3.0095,-0.9098,-0.1124,-0.0322,-0.0480,-95.5500,27.3000,-27.0000,9.6247,-1.5443,-1.7478,-0.0418,0.0528,-0.0429,149.1000,1130.4000,-1024.3500,6.8600,0.3900,-7.0500,0.0055,-0.0524,0.0087,-49.0000,-9.8750,55.0000,59.1250,44.2500,-176.5000,0
1776971685.664,9.1889,3.0095,-0.9098,-0.1124,-0.0322,-0.0480,-96.0000,28.9500,-27.7500,9.6247,-1.5443,-1.7478,-0.0418,0.0528,-0.0429,149.1000,1130.4000,-1024.3500,6.8600,0.3900,-7.0500,0.0044,-0.0567,0.0120,-49.0000,-9.8750,55.0000,59.1875,44.2500,-176.5000,0
1776971685.671,9.1842,3.0119,-0.9481,-0.1119,-0.0248,-0.0490,-96.0000,28.9500,-27.7500,9.5577,-1.5897,-1.7262,-0.0456,0.0520,-0.0413,149.1000,1130.4000,-1024.3500,6.8600,0.3700,-7.0600,0.0044,-0.0567,0.0120,-49.0000,-9.8750,55.0000,59.1875,44.2500,-176.5000,0
1776971685.676,9.1506,2.9904,-0.9457,-0.1069,-0.0304,-0.0466,-96.3000,29.2500,-28.0500,9.5577,-1.5897,-1.7262,-0.0456,0.0520,-0.0413,149.1000,1130.4000,-1024.3500,6.8600,0.3700,-7.0600,0.0044,-0.0567,0.0120,-49.3750,-9.8750,54.1875,59.1875,44.1875,-176.5000,0
1776971685.681,9.1506,2.9904,-0.9457,-0.1069,-0.0304,-0.0466,-96.3000,29.2500,-28.0500,9.6175,-1.5610,-1.6520,-0.0474,0.0466,-0.0480,149.1000,1130.4000,-1024.3500,6.8500,0.3600,-7.0500,0.0011,-0.0545,0.0087,-49.3750,-9.8750,54.1875,59.1875,44.1875,-176.5000,0
1776971685.686,9.1291,3.0406,-0.9577,-0.0983,-0.0365,-0.0488,-96.3000,29.2500,-28.0500,9.6175,-1.5610,-1.6520,-0.0474,0.0466,-0.0480,149.4000,1131.1500,-1024.3500,6.8500,0.3600,-7.0500,0.0011,-0.0545,0.0087,-49.3750,-9.8750,54.1875,59.1875,44.1875,-176.5000,0
1776971685.691,9.1291,3.0406,-0.9577,-0.0983,-0.0365,-0.0488,-96.3000,29.2500,-28.0500,9.5193,-1.5012,-1.6879,-0.0341,0.0509,-0.0458,149.4000,1131.1500,-1024.3500,6.8300,0.3600,-7.0400,0.0022,-0.0545,0.0076,-49.3750,-9.8750,54.1875,59.1875,44.1875,-176.5000,0
1776971685.696,9.2033,3.0311,-0.9720,-0.0941,-0.0378,-0.0456,-94.6500,27.1500,-27.4500,9.5193,-1.5012,-1.6879,-0.0341,0.0509,-0.0458,149.5500,1131.0000,-1023.1500,6.8300,0.3600,-7.0400,0.0000,-0.0535,0.0065,-49.3750,-9.8750,54.1875,59.1875,44.1250,-176.5625,0
1776971685.701,9.2033,3.0311,-0.9720,-0.0941,-0.0378,-0.0456,-94.6500,27.1500,-27.4500,9.5792,-1.4126,-1.6281,-0.0234,0.0530,-0.0520,149.5500,1131.0000,-1023.1500,6.7600,0.3600,-7.1000,0.0000,-0.0535,0.0065,-49.3750,-9.8750,54.1875,59.1875,44.1250,-176.5625,0
1776971685.710,9.2009,3.0765,-0.9744,-0.1002,-0.0226,-0.0474,-94.6500,27.1500,-27.4500,9.6965,-1.3886,-1.6305,-0.0248,0.0490,-0.0576,149.4000,1130.4000,-1023.9000,6.8100,0.3800,-7.0700,0.0000,-0.0491,0.0065,-49.3750,-9.8750,54.1875,59.1875,44.1250,-176.5625,0
1776971685.717,9.1913,3.1340,-0.9768,-0.1053,-0.0240,-0.0530,-95.4000,27.4500,-29.4000,9.6965,-1.3886,-1.6305,-0.0248,0.0490,-0.0576,148.6500,1130.4000,-1024.6500,6.8100,0.3800,-7.0700,0.0000,-0.0382,0.0065,-49.3750,-9.8750,54.1875,59.1875,44.0625,-176.5625,0
1776971685.722,9.1913,3.1340,-0.9768,-0.1053,-0.0240,-0.0530,-95.4000,27.4500,-29.4000,9.6151,-1.5131,-1.7142,-0.0189,0.0469,-0.0530,148.6500,1130.4000,-1024.6500,6.8100,0.3800,-7.0700,0.0000,-0.0382,0.0065,-49.3750,-9.8750,54.1875,59.1875,44.0625,-176.5625,0
1776971685.727,9.1866,3.1340,-0.9218,-0.0973,-0.0245,-0.0522,-95.8500,29.5500,-28.9500,9.6151,-1.5131,-1.7142,-0.0189,0.0469,-0.0530,148.6500,1130.4000,-1024.6500,6.8100,0.3600,-7.1000,0.0011,-0.0327,0.0055,-48.2500,-10.1875,53.8750,59.1875,44.0625,-176.5625,0
1776971685.732,9.1866,3.1340,-0.9218,-0.0973,-0.0245,-0.0522,-95.8500,29.5500,-28.9500,9.6822,-1.5419,-1.6664,-0.0067,0.0421,-0.0496,148.6500,1130.4000,-1024.6500,6.8100,0.3600,-7.1000,0.0011,-0.0327,0.0055,-48.2500,-10.1875,53.8750,59.1875,44.0625,-176.5625,0
1776971685.736,9.2105,3.1819,-0.9074,-0.0845,-0.0226,-0.0565,-97.2000,28.0500,-26.5500,9.6822,-1.5419,-1.6664,-0.0067,0.0421,-0.0496,148.3500,1130.7000,-1024.3500,6.8100,0.3600,-7.1000,0.0000,-0.0295,0.0055,-48.2500,-10.1875,53.8750,59.1875,44.0625,-176.5625,0
1776971685.741,9.2105,3.1819,-0.9074,-0.0845,-0.0226,-0.0565,-97.2000,28.0500,-26.5500,9.6055,-1.5419,-1.7023,-0.0163,0.0448,-0.0512,148.3500,1130.7000,-1024.3500,6.8000,0.3700,-7.1000,0.0000,-0.0295,0.0055,-48.2500,-10.1875,53.8750,59.1875,44.0625,-176.5625,0
1776971685.746,9.1985,3.1867,-0.9720,-0.0786,-0.0181,-0.0520,-96.7500,29.2500,-27.7500,9.6055,-1.5419,-1.7023,-0.0163,0.0448,-0.0512,150.0000,1129.8000,-1025.2500,6.8200,0.3800,-7.0700,0.0011,-0.0273,0.0055,-48.2500,-10.1875,53.8750,59.1875,44.0625,-176.5625,0
1776971685.751,9.1985,3.1867,-0.9720,-0.0786,-0.0181,-0.0520,-96.7500,29.2500,-27.7500,9.6031,-1.5395,-1.6759,-0.0234,0.0405,-0.0546,150.0000,1129.8000,-1025.2500,6.8200,0.3800,-7.0700,0.0011,-0.0273,0.0055,-48.2500,-10.1875,53.8750,59.1875,44.0000,-176.5625,0
1776971685.760,9.1051,3.2322,-0.9194,-0.0703,-0.0160,-0.0552,-95.4000,28.6500,-28.2000,9.5936,-1.5107,-1.6999,-0.0392,0.0349,-0.0562,147.6000,1131.9000,-1023.3000,6.8200,0.3600,-7.0800,0.0011,-0.0240,0.0022,-48.2500,-10.1875,53.8750,59.1875,44.0000,-176.5625,0
1776971685.769,9.0860,3.1388,-0.9481,-0.0565,-0.0149,-0.0485,-96.9000,28.6500,-28.6500,9.5577,-1.4892,-1.6328,-0.0485,0.0378,-0.0557,149.2500,1130.5500,-1024.8000,6.8200,0.3700,-7.0800,0.0011,-0.0185,0.0033,-48.2500,-10.1875,53.8750,59.1875,44.0000,-176.5625,0
1776971685.773,9.1075,3.1939,-0.9936,-0.0392,-0.0224,-0.0477,-96.9000,28.6500,-28.6500,9.5577,-1.4892,-1.6328,-0.0485,0.0378,-0.0557,148.6500,1130.4000,-1024.3500,6.8200,0.3700,-7.0800,0.0011,-0.0185,0.0033,-49.0000,-9.5000,55.0000,59.1875,44.0000,-176.5625,0
1776971685.781,9.1315,3.1173,-1.0175,-0.0392,-0.0224,-0.0477,-96.9000,28.6500,-28.6500,9.5289,-1.4269,-1.7095,-0.0576,0.0306,-0.0594,148.6500,1130.4000,-1024.3500,6.7900,0.3700,-7.0700,0.0011,-0.0218,0.0022,-49.0000,-9.5000,55.0000,59.1875,44.0000,-176.5625,0
1776971685.790,9.1315,3.1173,-1.0175,-0.0192,-0.0234,-0.0501,-96.9000,29.1000,-26.4000,9.6055,-1.4389,-1.6735,-0.0520,0.0346,-0.0648,148.6500,1130.4000,-1024.3500,6.7400,0.3500,-7.0500,0.0000,-0.0196,0.0011,-49.0000,-9.5000,55.0000,59.1875,44.0000,-176.5625,0
1776971685.794,9.1506,3.1747,-0.9936,-0.0056,-0.0250,-0.0506,-96.9000,29.1000,-26.4000,9.6055,-1.4389,-1.6735,-0.0520,0.0346,-0.0648,149.8500,1131.4500,-1024.3500,6.7400,0.3500,-7.0500,0.0011,-0.0109,-0.0011,-49.0000,-9.5000,55.0000,59.1875,44.0000,-176.5625,0
1776971685.801,9.1195,3.1987,-0.9697,0.0072,-0.0216,-0.0509,-96.9000,29.1000,-26.4000,9.6462,-1.4198,-1.6448,-0.0365,0.0389,-0.0666,149.8500,1131.4500,-1024.3500,6.7800,0.3800,-7.0900,0.0011,-0.0109,-0.0011,-49.0000,-9.5000,55.0000,59.1875,44.0000,-176.5625,0
1776971685.810,9.0357,3.2848,-0.8882,0.0029,-0.0173,-0.0397,-95.8500,29.1000,-26.7000,9.6941,-1.4413,-1.5897,-0.0229,0.0298,-0.0613,149.1000,1130.7000,-1025.1000,6.8300,0.3900,-7.0600,0.0022,-0.0033,0.0011,-49.0000,-9.5000,55.0000,59.1875,44.0000,-176.5625,0
1776971685.820,9.0381,3.2825,-0.7997,0.0032,-0.0282,-0.0381,-96.0000,28.9500,-27.7500,9.6295,-1.3934,-1.6233,-0.0123,0.0264,-0.0616,150.0000,1133.2500,-1024.5000,6.8400,0.3600,-7.0800,0.0011,0.0000,0.0011,-49.0000,-9.5000,55.0000,59.1875,44.0000,-176.5625,0
1776971685.825,9.0381,3.2825,-0.7997,0.0032,-0.0282,-0.0381,-96.0000,28.9500,-27.7500,9.5026,-1.4317,-1.6257,-0.0045,0.0165,-0.0600,149.5500,1131.0000,-1024.2000,6.8400,0.3600,-7.0800,0.0033,0.0022,-0.0011,-48.2500,-9.0625,53.8750,59.1875,44.0000,-176.5625,0
1776971685.831,8.9663,3.3423,-0.7877,0.0165,-0.0317,-0.0373,-96.9000,29.1000,-27.1500,9.5026,-1.4317,-1.6257,-0.0045,0.0165,-0.0600,149.4000,1129.9500,-1024.6500,6.8400,0.3700,-7.0400,0.0033,0.0022,-0.0011,-48.2500,-9.0625,53.8750,59.1875,44.0000,-176.5625,0
1776971685.840,8.9016,3.3351,-0.6919,0.0402,-0.0365,-0.0341,-96.6000,29.1000,-27.4500,9.5074,-1.3431,-1.5993,-0.0008,0.0069,-0.0565,149.4000,1129.9500,-1024.6500,6.8700,0.3800,-7.0600,0.0065,-0.0022,-0.0033,-48.2500,-9.0625,53.8750,59.1875,44.0000,-176.5625,0
1776971685.850,8.9184,3.3447,-0.6656,0.0573,-0.0424,-0.0389,-95.5500,27.7500,-28.0500,9.5768,-1.3623,-1.4724,0.0141,0.0093,-0.0594,149.4000,1129.9500,-1024.6500,6.8400,0.3700,-7.0700,0.0044,-0.0065,-0.0022,-48.2500,-9.0625,53.8750,59.1875,44.0000,-176.5625,0
1776971685.860,8.9184,3.3447,-0.6943,0.0778,-0.0482,-0.0349,-96.3000,30.4500,-28.5000,9.6558,-1.3264,-1.3527,0.0338,0.0112,-0.0512,148.8000,1130.5500,-1023.1500,6.8100,0.3800,-7.0800,0.0098,-0.0131,-0.0011,-48.2500,-9.0625,53.8750,59.1875,44.0000,-176.5625,0
1776971685.868,8.8969,3.3806,-0.5986,0.0885,-0.0501,-0.0330,-96.3000,30.4500,-28.5000,9.7229,-1.3767,-1.3144,0.0394,0.0045,-0.0560,149.2500,1131.7500,-1024.5000,6.8200,0.3700,-7.0700,0.0098,-0.0164,-0.0033,-48.2500,-9.0625,53.8750,59.1875,43.9375,-176.5625,0
1776971685.873,8.8969,3.3806,-0.5986,0.0885,-0.0501,-0.0330,-96.3000,30.4500,-28.5000,9.7468,-1.3695,-1.2761,0.0501,-0.0200,-0.0520,149.5500,1130.2500,-1023.1500,6.8200,0.3700,-7.0700,0.0098,-0.0164,-0.0033,-48.2500,-9.0625,53.8750,59.1875,43.9375,-176.5625,0
1776971685.879,8.9376,3.4860,-0.6033,0.1005,-0.0408,-0.0314,-94.5000,29.2500,-28.8000,9.7468,-1.3695,-1.2761,0.0501,-0.0200,-0.0520,149.1000,1132.2000,-1023.9000,6.8100,0.3800,-7.0800,0.0120,-0.0153,-0.0055,-48.2500,-9.8750,55.3750,59.1875,43.9375,-176.5625,0
1776971685.885,8.9376,3.4860,-0.6033,0.1005,-0.0408,-0.0314,-94.5000,29.2500,-28.8000,9.7731,-1.4629,-1.2067,0.0613,-0.0392,-0.0517,149.1000,1132.2000,-1023.9000,6.8100,0.3800,-7.0800,0.0131,-0.0142,-0.0065,-48.2500,-9.8750,55.3750,59.1875,43.9375,-176.5625,0
1776971685.891,8.9591,3.5075,-0.5914,0.1162,-0.0317,-0.0330,-94.5000,29.2500,-28.8000,9.7731,-1.4629,-1.2067,0.0613,-0.0392,-0.0517,149.5500,1133.2500,-1024.2000,6.7800,0.3800,-7.0900,0.0131,-0.0142,-0.0065,-48.2500,-9.8750,55.3750,59.1875,43.9375,-176.5625,0
1776971685.900,8.9687,3.6057,-0.4860,0.1428,-0.0282,-0.0288,-95.1000,29.5500,-29.4000,9.8545,-1.4964,-1.0606,0.0741,-0.0557,-0.0610,149.5500,1133.2500,-1024.2000,6.7500,0.3700,-7.1200,0.0120,-0.0076,-0.0055,-48.2500,-9.8750,55.3750,59.1875,43.9375,-176.5625,0
1776971685.909,8.9328,3.7158,-0.4788,0.1668,-0.0218,-0.0290,-94.6500,28.6500,-28.2000,9.8067,-1.5419,-1.1971,0.0663,-0.0802,-0.0666,149.5500,1133.2500,-1024.2000,6.7500,0.3600,-7.1200,0.0120,0.0022,-0.0033,-48.2500,-9.8750,55.3750,59.1875,43.9375,-176.5625,0
1776971685.914,8.9328,3.7158,-0.4788,0.1668,-0.0218,-0.0290,-94.6500,28.6500,-28.2000,9.8282,-1.6400,-1.2163,0.0767,-0.1092,-0.0823,148.6500,1132.6500,-1023.3000,6.7500,0.3600,-7.1200,0.0120,0.0022,-0.0033,-48.2500,-9.8750,55.3750,59.1875,43.9375,-176.5625,0
1776971685.921,8.9495,3.8427,-0.3974,0.1921,-0.0104,-0.0269,-95.1000,29.5500,-29.4000,9.7827,-1.6328,-1.1803,0.0813,-0.1316,-0.0885,150.7500,1133.2500,-1023.4500,6.7300,0.3600,-7.0800,0.0120,0.0098,-0.0065,-48.2500,-9.8750,55.3750,59.1875,43.9375,-176.5625,0
1776971685.926,8.9064,3.7828,-0.3089,0.2233,0.0109,-0.0256,-95.1000,29.5500,-29.4000,9.7827,-1.6328,-1.1803,0.0813,-0.1316,-0.0885,150.7500,1133.2500,-1023.4500,6.7300,0.3600,-7.0800,0.0120,0.0153,-0.0065,-47.5000,-9.5000,55.0000,59.1250,43.9375,-176.5625,0
1776971685.931,8.9064,3.7828,-0.3089,0.2233,0.0109,-0.0256,-95.4000,29.5500,-27.4500,9.8067,-1.5778,-1.1803,0.0794,-0.1540,-0.1018,149.8500,1133.7000,-1022.5500,6.7800,0.3800,-7.1000,0.0120,0.0153,-0.0065,-47.5000,-9.5000,55.0000,59.1250,44.0000,-176.6250,0
1776971685.940,8.9471,3.7757,-0.3543,0.2577,0.0248,-0.0218,-95.5500,28.9500,-28.5000,9.8306,-1.6185,-1.1779,0.0703,-0.1828,-0.1069,149.1000,1133.4000,-1023.3000,6.7900,0.3900,-7.1100,0.0131,0.0218,-0.0055,-47.5000,-9.5000,55.0000,59.1250,44.0000,-176.6250,0
1776971685.949,9.0118,3.7613,-0.3232,0.3062,0.0418,-0.0301,-96.3000,29.7000,-28.0500,9.8306,-1.6185,-1.1779,0.0703,-0.1828,-0.1069,149.2500,1133.5500,-1023.4500,6.7900,0.3900,-7.1300,0.0087,0.0284,-0.0055,-47.5000,-9.5000,55.0000,59.1250,44.0000,-176.6250,0
1776971685.954,8.9519,3.7781,-0.2466,0.3062,0.0418,-0.0301,-96.3000,29.7000,-28.0500,9.8378,-1.6831,-1.1612,0.0722,-0.1972,-0.1260,149.2500,1133.5500,-1023.4500,6.7900,0.3900,-7.1300,0.0087,0.0284,-0.0055,-47.5000,-9.5000,55.0000,59.1250,44.0000,-176.6250,0
1776971685.961,8.9519,3.7781,-0.2466,0.3531,0.0581,-0.0288,-96.3000,29.7000,-28.0500,10.0173,-1.6424,-1.4365,0.1367,-0.1980,-0.1468,149.2500,1133.5500,-1023.4500,6.7600,0.3600,-7.1300,0.0098,0.0327,-0.0022,-47.5000,-9.5000,55.0000,59.1250,44.0000,-176.6250,0
1776971685.971,8.9926,3.8499,-0.2370,0.3872,0.0765,-0.0322,-94.6500,29.5500,-28.9500,9.9599,-1.4700,-1.2522,0.2443,-0.1908,-0.1564,146.7000,1135.0500,-1024.2000,6.6700,0.2300,-7.1800,0.0120,0.0425,-0.0011,-47.5000,-9.5000,55.0000,59.1250,44.0000,-176.6250,0
1776971685.976,8.9974,3.8595,-0.2490,0.4319,0.1026,-0.0296,-94.6500,29.5500,-28.9500,9.9599,-1.4700,-1.2522,0.2443,-0.1908,-0.1564,146.7000,1135.0500,-1024.2000,6.6700,0.2300,-7.1800,0.0120,0.0425,-0.0011,-47.5000,-9.5000,55.0000,59.1250,44.0000,-176.6250,0
1776971685.981,8.9974,3.8595,-0.2490,0.4319,0.1026,-0.0296,-94.6500,29.5500,-28.9500,10.0245,-0.9266,-1.0870,0.3427,-0.1727,-0.1660,146.1000,1135.6500,-1025.4000,6.6800,0.3700,-7.2000,0.0120,0.0589,-0.0098,-48.2500,-9.8750,54.1875,59.1250,44.0625,-176.6250,0
1776971685.985,9.0333,3.9648,-0.2370,0.4831,0.1287,-0.0341,-94.6500,29.5500,-28.9500,10.0245,-0.9266,-1.0870,0.3427,-0.1727,-0.1660,146.1000,1135.6500,-1025.4000,6.6800,0.3700,-7.2000,0.0120,0.0589,-0.0098,-48.2500,-9.8750,54.1875,59.1250,44.0625,-176.6250,0
1776971685.991,9.0333,3.9648,-0.2370,0.4831,0.1287,-0.0341,-95.1000,28.6500,-28.2000,10.1059,-0.6991,-1.0080,0.3738,-0.1892,-0.1759,146.7000,1136.2500,-1024.2000,6.6900,0.5100,-7.1900,0.0175,0.0796,-0.0142,-48.2500,-9.8750,54.1875,59.1250,44.1250,-176.6250,0
1776971685.995,9.0812,3.9002,-0.2466,0.5300,0.1503,-0.0349,-95.1000,28.6500,-28.2000,10.1059,-0.6991,-1.0080,0.3738,-0.1892,-0.1759,146.7000,1136.2500,-1024.2000,6.6900,0.5100,-7.1900,0.0240,0.0960,-0.0076,-48.2500,-9.8750,54.1875,59.1250,44.1875,-176.6250,0
1776971686.001,9.0884,3.8642,-0.2873,0.5300,0.1503,-0.0349,-95.8500,28.6500,-28.2000,10.0269,-1.0678,-1.1995,0.3714,-0.2617,-0.1735,144.9000,1137.3000,-1023.7500,6.8400,0.5500,-7.0700,0.0240,0.0960,-0.0076,-48.2500,-9.8750,54.1875,59.1250,44.1875,-176.6250,0
1776971686.011,9.0764,3.7445,-0.2251,0.5668,0.1660,-0.0458,-95.2500,28.5000,-29.2500,9.7300,-1.6448,-1.5227,0.4000,-0.3557,-0.1743,145.0500,1137.1500,-1023.9000,6.8100,0.4200,-7.1400,0.0185,0.1069,-0.0022,-48.2500,-9.8750,54.1875,59.1250,44.1875,-176.6250,0
1776971686.019,9.0764,3.7445,-0.2251,0.6094,0.1839,-0.0485,-95.5500,28.0500,-28.5000,9.5529,-2.0063,-1.6281,0.4940,-0.3978,-0.1873,145.0500,1137.1500,-1023.9000,6.8500,0.4000,-7.0700,0.0142,0.1036,0.0044,-48.2500,-9.8750,54.1875,59.1250,44.2500,-176.6250,0
1776971686.024,9.0668,3.6847,-0.3304,0.6632,0.1887,-0.0480,-95.5500,28.0500,-28.5000,9.5529,-2.0063,-1.6281,0.4940,-0.3978,-0.1873,145.0500,1137.1500,-1023.9000,6.8500,0.4000,-7.0700,0.0142,0.1036,0.0044,-48.2500,-9.8750,54.1875,59.1250,44.2500,-176.6250,0
1776971686.029,9.0668,3.6847,-0.3304,0.6632,0.1887,-0.0480,-96.0000,28.9500,-29.8500,9.5888,-2.1093,-1.7119,0.5068,-0.4085,-0.2190,147.0000,1139.5500,-1024.5000,6.8500,0.3300,-7.0900,0.0164,0.1156,0.0098,-48.2500,-9.0625,55.0000,59.1250,44.3125,-176.6250,0
1776971686.033,8.9950,3.4716,-0.3783,0.7139,0.1911,-0.0501,-96.0000,28.9500,-29.8500,9.5888,-2.1093,-1.7119,0.5068,-0.4085,-0.2190,147.0000,1139.5500,-1024.5000,6.8500,0.3300,-7.0900,0.0164,0.1156,0.0098,-48.2500,-9.0625,55.0000,59.1250,44.3125,-176.6250,0
1776971686.038,8.9950,3.4716,-0.3783,0.7139,0.1911,-0.0501,-96.3000,29.7000,-29.5500,9.5241,-1.9465,-1.8699,0.4612,-0.4543,-0.2478,146.5500,1137.9000,-1024.3500,6.8900,0.3600,-7.0900,0.0218,0.1036,0.0065,-48.2500,-9.0625,55.0000,59.1250,44.3750,-176.6250,0
1776971686.043,8.9974,3.3184,-0.4405,0.7541,0.1921,-0.0445,-96.3000,29.7000,-29.5500,9.5241,-1.9465,-1.8699,0.4612,-0.4543,-0.2478,146.5500,1137.9000,-1024.3500,6.8900,0.3600,-7.0900,0.0218,0.1036,0.0065,-48.2500,-9.0625,55.0000,59.1250,44.3750,-176.6250,0
1776971686.051,8.9663,3.2322,-0.5387,0.7909,0.2012,-0.0234,-96.3000,29.7000,-29.5500,9.4427,-1.7573,-2.0231,0.3962,-0.4636,-0.2643,145.8000,1136.7000,-1025.1000,6.9100,0.3600,-7.0700,0.0207,0.0905,0.0044,-48.2500,-9.0625,55.0000,59.1250,44.4375,-176.6250,0
1776971686.058,8.9663,3.2322,-0.5387,0.7909,0.2012,-0.0234,-96.3000,29.7000,-29.5500,9.2512,-1.7358,-2.1883,0.3325,-0.4498,-0.2888,145.9500,1136.2500,-1026.3000,6.9500,0.4700,-6.9900,0.0251,0.1091,-0.0022,-48.2500,-9.0625,55.0000,59.0625,44.5000,-176.6875,0
1776971686.063,9.0836,3.1556,-0.7135,0.8087,0.2017,-0.0064,-95.1000,28.6500,-28.2000,9.2512,-1.7358,-2.1883,0.3325,-0.4498,-0.2888,145.9500,1136.2500,-1026.3000,6.9500,0.4700,-6.9900,0.0251,0.1091,-0.0022,-48.2500,-9.0625,55.0000,59.0625,44.5625,-176.6875,0
1776971686.071,9.0836,3.0406,-0.8308,0.8194,0.2062,0.0208,-95.1000,28.6500,-28.2000,9.1411,-1.6688,-2.2625,0.2856,-0.4221,-0.3118,145.9500,1135.0500,-1026.3000,7.0500,0.7700,-6.8300,0.0404,0.0949,-0.0055,-48.2500,-9.0625,55.0000,59.0625,44.5625,-176.6875,0
1776971686.076,9.0836,3.0406,-0.8308,0.8194,0.2062,0.0208,-95.1000,28.6500,-28.2000,8.9950,-1.5802,-2.3439,0.2699,-0.3984,-0.3102,145.9500,1135.0500,-1026.3000,7.0500,0.7700,-6.8300,0.0404,0.0949,-0.0055,-48.5625,-9.5000,53.8750,59.0625,44.6250,-176.6875,0
1776971686.081,9.0908,3.0670,-0.9720,0.8316,0.2089,0.0434,-94.8000,27.0000,-29.8500,8.9950,-1.5802,-2.3439,0.2699,-0.3984,-0.3102,145.9500,1135.0500,-1026.3000,6.9700,0.4200,-6.9700,0.0633,0.0720,-0.0011,-48.5625,-9.5000,53.8750,59.0625,44.6250,-176.6875,0
1776971686.086,9.0908,3.0670,-0.9720,0.8316,0.2089,0.0434,-94.8000,27.0000,-29.8500,9.1243,-1.4916,-2.4588,0.2822,-0.3624,-0.2992,145.9500,1135.0500,-1026.3000,6.9700,0.4200,-6.9700,0.0633,0.0720,-0.0011,-48.5625,-9.5000,53.8750,59.0625,44.6250,-176.6875,0
1776971686.091,9.0261,2.9951,-1.0295,0.8511,0.2190,0.0719,-94.6500,28.3500,-29.4000,9.1243,-1.4916,-2.4588,0.2822,-0.3624,-0.2992,144.3000,1134.4500,-1027.9500,7.0200,0.4900,-7.0200,0.0589,0.0589,0.0142,-48.5625,-9.5000,53.8750,59.0625,44.6250,-176.7500,0
1776971686.096,9.0261,2.9951,-1.0295,0.8511,0.2190,0.0719,-94.6500,28.3500,-29.4000,9.2009,-1.3431,-2.5546,0.3136,-0.3443,-0.2966,145.3500,1134.9000,-1027.2000,7.0200,0.4900,-7.0200,0.1004,0.0502,0.0153,-48.5625,-9.5000,53.8750,59.0625,44.6875,-176.8125,0
1776971686.102,8.9639,2.9377,-1.1061,0.8783,0.2340,0.1055,-95.2500,27.7500,-28.8000,9.2009,-1.3431,-2.5546,0.3136,-0.3443,-0.2966,145.3500,1134.9000,-1027.2000,6.9500,0.4800,-6.9200,0.1004,0.0502,0.0153,-48.5625,-9.5000,53.8750,59.0625,44.6875,-176.8125,0
1776971686.111,9.0716,2.7892,-1.2067,0.8961,0.2403,0.1308,-96.0000,27.3000,-29.8500,9.3015,-1.0798,-2.5618,0.3480,-0.3299,-0.3043,143.4000,1136.5500,-1028.4000,7.0000,0.8700,-7.3000,0.1254,0.0185,0.0295,-48.5625,-9.5000,53.8750,59.0000,44.6875,-176.8750,0
1776971686.115,9.0716,2.7892,-1.2067,0.8961,0.2403,0.1308,-96.0000,27.3000,-29.8500,9.3757,-0.7661,-2.7509,0.3914,-0.3405,-0.3251,143.8500,1136.5500,-1027.3500,7.0000,0.8700,-7.3000,0.1974,-0.0011,0.0218,-48.5625,-9.5000,53.8750,59.0000,44.6875,-176.9375,0
1776971686.122,9.0812,2.7581,-1.2809,0.9214,0.2507,0.1391,-96.0000,27.7500,-28.8000,9.3757,-0.7661,-2.7509,0.3914,-0.3405,-0.3251,143.8500,1136.5500,-1027.3500,7.0900,0.8200,-7.1600,0.1974,-0.0011,0.0218,-48.5625,-9.5000,53.8750,59.0000,44.6875,-176.9375,0
1776971686.127,9.1243,2.6217,-1.3647,0.9214,0.2507,0.1391,-96.0000,27.7500,-28.8000,9.4020,-0.5435,-2.8754,0.4612,-0.3504,-0.3429,142.6500,1137.3000,-1030.2000,7.0900,0.8200,-7.1600,0.1974,-0.0011,0.0218,-49.0000,-9.5000,53.8750,58.9375,44.6250,-177.1250,0
1776971686.132,9.1243,2.6217,-1.3647,0.9358,0.2579,0.1527,-95.1000,27.1500,-31.2000,9.4020,-0.5435,-2.8754,0.4612,-0.3504,-0.3429,142.6500,1137.3000,-1030.2000,6.8600,0.3900,-7.0800,0.2967,-0.0371,0.0109,-49.0000,-9.5000,53.8750,58.9375,44.6250,-177.1250,0
1776971686.137,9.1554,2.5402,-1.4317,0.9358,0.2579,0.1527,-95.1000,27.1500,-31.2000,9.4379,-0.4908,-2.8994,0.5332,-0.3784,-0.3413,142.6500,1137.3000,-1030.2000,6.8600,0.3900,-7.0800,0.2967,-0.0371,0.0109,-49.0000,-9.5000,53.8750,58.8125,44.6250,-177.3125,0
1776971686.142,9.1554,2.5402,-1.4317,0.9286,0.2582,0.1535,-95.1000,27.1500,-31.2000,9.4379,-0.4908,-2.8994,0.5332,-0.3784,-0.3413,142.6500,1137.3000,-1030.2000,7.0300,0.4800,-7.0700,0.3611,-0.0513,0.0044,-49.0000,-9.5000,53.8750,58.8125,44.6250,-177.3125,0
1776971686.147,9.2847,2.4780,-1.4509,0.9132,0.2587,0.1460,-95.1000,27.1500,-31.2000,9.4523,-0.4956,-2.8132,0.6238,-0.3848,-0.3232,141.0000,1137.4500,-1027.9500,7.0300,0.4800,-7.0700,0.4156,-0.0589,-0.0011,-49.0000,-9.5000,53.8750,58.7500,44.5625,-177.5625,0
1776971686.152,9.2847,2.4780,-1.4509,0.9132,0.2587,0.1460,-94.3500,25.5000,-30.1500,9.4523,-0.4956,-2.8132,0.6238,-0.3848,-0.3232,141.0000,1137.4500,-1027.9500,7.0200,0.5600,-7.1600,0.4156,-0.0589,-0.0011,-49.0000,-9.5000,53.8750,58.7500,44.5625,-177.5625,0
1776971686.161,9.3661,2.3894,-1.4700,0.8895,0.2561,0.1372,-94.3500,25.5000,-30.1500,9.3589,-0.4381,-2.7557,0.7171,-0.3728,-0.3096,141.9000,1136.5500,-1029.4500,6.8600,0.6000,-7.1900,0.4800,-0.1036,-0.0055,-49.0000,-9.5000,53.8750,58.6250,44.5000,-177.7500,0
1776971686.165,9.3757,2.2122,-1.6017,0.8628,0.2611,0.1287,-94.3500,25.5000,-30.1500,9.4715,-0.2682,-2.7749,0.7957,-0.3621,-0.3078,139.8000,1137.3000,-1029.4500,6.8600,0.6000,-7.1900,0.5367,-0.1516,-0.0076,-49.0000,-9.5000,53.8750,58.5000,44.4375,-178.0625,0
1776971686.172,9.3757,2.2122,-1.6017,0.8628,0.2611,0.1287,-95.5500,26.1000,-29.2500,9.4715,-0.2682,-2.7749,0.7957,-0.3621,-0.3078,139.8000,1137.3000,-1029.4500,6.9600,0.5400,-7.3100,0.5367,-0.1516,-0.0076,-49.0000,-9.5000,53.8750,58.5000,44.4375,-178.0625,0
1776971686.177,9.4355,2.0806,-1.6113,0.8234,0.2721,0.1159,-95.5500,26.1000,-29.2500,9.5553,-0.2849,-2.8611,0.8351,-0.3528,-0.2955,141.3000,1136.2500,-1030.9500,6.9600,0.5400,-7.3100,0.6469,-0.1811,-0.0164,-49.3750,-9.5000,52.6875,58.3125,44.3125,-178.3750,0
1776971686.182,9.4355,2.0806,-1.6113,0.8234,0.2721,0.1159,-96.0000,26.1000,-29.5500,9.5553,-0.2849,-2.8611,0.8351,-0.3528,-0.2955,141.3000,1136.2500,-1030.9500,6.9600,0.4800,-7.3500,0.6469,-0.1811,-0.0164,-49.3750,-9.5000,52.6875,58.3125,44.3125,-178.3750,0
1776971686.186,9.5098,1.9393,-1.6688,0.7895,0.2825,0.1053,-96.0000,26.1000,-29.5500,9.6606,-0.3232,-2.9664,0.8937,-0.3560,-0.3043,141.3000,1136.2500,-1030.9500,6.9600,0.4800,-7.3500,0.6469,-0.1811,-0.0164,-49.3750,-9.5000,52.6875,58.1250,44.2500,-178.7500,0
1776971686.191,9.5098,1.9393,-1.6688,0.7895,0.2825,0.1053,-94.6500,25.9500,-30.4500,9.6606,-0.3232,-2.9664,0.8937,-0.3560,-0.3043,141.3000,1136.2500,-1030.9500,6.8900,0.6700,-7.1900,0.7527,-0.1745,0.0044,-49.3750,-9.5000,52.6875,58.1250,44.2500,-178.7500,0
1776971686.196,9.5600,1.7933,-1.8986,0.7386,0.2968,0.0954,-94.6500,25.9500,-30.4500,9.5577,-0.2897,-3.1220,0.9742,-0.3523,-0.2992,141.3000,1136.2500,-1030.9500,6.8900,0.6700,-7.1900,0.8498,-0.1724,-0.0109,-49.3750,-9.5000,52.6875,57.9375,44.1250,-179.1875,0
1776971686.202,9.5600,1.7933,-1.8986,0.7386,0.2968,0.0954,-96.0000,25.3500,-30.3000,9.3326,-0.2298,-3.1340,1.0491,-0.3448,-0.2904,141.3000,1136.2500,-1030.9500,6.6300,0.6200,-7.4200,0.8498,-0.1724,-0.0109,-49.3750,-9.5000,52.6875,57.9375,44.1250,-179.1875,0
1776971686.211,9.5768,1.7238,-2.0135,0.6920,0.2974,0.0999,-96.3000,24.1500,-29.2500,9.3326,-0.2298,-3.1340,1.0968,-0.3419,-0.2803,141.3000,1136.5500,-1031.7000,6.8200,0.5100,-7.3900,0.9479,-0.2051,-0.0207,-49.3750,-9.5000,52.6875,57.6875,44.0000,-179.6250,0
1776971686.215,9.5385,1.6927,-2.0686,0.6518,0.2944,0.0978,-96.3000,24.1500,-29.2500,9.4068,-0.1484,-3.2920,1.0968,-0.3419,-0.2803,139.2000,1136.4000,-1033.2000,6.8200,0.5100,-7.3900,1.0450,-0.1876,-0.0458,-49.3750,-9.5000,52.6875,57.4375,43.8750,179.7500,0
1776971686.222,9.5385,1.6927,-2.0686,0.6518,0.2944,0.0978,-95.2500,24.6000,-28.8000,9.4427,-0.1556,-3.3495,1.0986,-0.3365,-0.2659,139.2000,1136.4000,-1033.2000,6.7800,0.1400,-7.2400,1.0450,-0.1876,-0.0458,-49.3750,-9.5000,52.6875,57.4375,43.8750,179.7500,0
1776971686.227,9.4906,1.6975,-2.1955,0.6153,0.2745,0.0951,-95.2500,24.6000,-28.8000,9.4427,-0.1556,-3.3495,1.0986,-0.3365,-0.2659,141.0000,1134.4500,-1033.9500,6.6900,-0.0500,-7.1800,1.1541,-0.1865,-0.0524,-48.5625,-7.2500,55.0000,57.1250,43.7500,179.1875,0
1776971686.232,9.6462,1.8100,-2.2984,0.6153,0.2745,0.0951,-95.2500,24.6000,-28.8000,9.4308,-0.4956,-3.4907,1.0672,-0.3317,-0.2473,141.0000,1134.4500,-1033.9500,6.6900,-0.0500,-7.1800,1.1541,-0.1865,-0.0524,-48.5625,-7.2500,55.0000,57.1250,43.7500,179.1875,0
1776971686.237,9.6462,1.8100,-2.2984,0.5694,0.2425,0.0901,-95.2500,24.6000,-28.8000,9.4308,-0.4956,-3.4907,1.0672,-0.3317,-0.2473,141.4500,1133.7000,-1033.6500,6.6900,-0.0500,-7.1800,1.2086,-0.1745,-0.0753,-48.5625,-7.2500,55.0000,56.8125,43.6875,178.5000,0
1776971686.242,9.6989,1.8914,-2.4110,0.5694,0.2425,0.0901,-96.0000,23.4000,-28.5000,9.3877,-0.9577,-3.4764,1.0485,-0.3059,-0.2350,141.4500,1133.7000,-1033.6500,6.4500,-0.7800,-7.0000,1.2086,-0.1745,-0.0753,-48.5625,-7.2500,55.0000,56.8125,43.6875,178.5000,0
1776971686.250,9.6989,1.8914,-2.4110,0.5383,0.2030,0.0778,-96.0000,23.4000,-28.5000,9.3589,-1.2737,-3.5219,1.0024,-0.2710,-0.2196,141.4500,1133.7000,-1033.6500,6.4700,-1.1000,-6.9300,1.1956,-0.1473,-0.0873,-48.5625,-7.2500,55.0000,56.5000,43.5625,177.9375,0
1776971686.255,9.7947,1.9297,-2.4828,0.5057,0.1716,0.0687,-96.0000,23.4000,-28.5000,9.3589,-1.2737,-3.5219,1.0024,-0.2710,-0.2196,141.4500,1133.7000,-1033.6500,6.4700,-1.1000,-6.9300,1.1956,-0.1473,-0.0873,-48.5625,-7.2500,55.0000,56.1875,43.5000,177.3750,0
1776971686.262,9.8976,1.9656,-2.5331,0.4666,0.1418,0.0573,-96.7500,25.0500,-31.0500,9.3685,-1.3479,-3.4429,0.8719,-0.2502,-0.2174,141.4500,1133.7000,-1033.6500,6.3900,-1.2100,-6.8100,1.1246,-0.1069,-0.1036,-48.5625,-7.2500,55.0000,55.8750,43.5000,176.8750,0
1776971686.271,9.9647,1.8962,-2.5929,0.4109,0.1079,0.0437,-96.3000,24.1500,-29.8500,9.2488,-1.4150,-3.5745,0.7216,-0.2284,-0.2089,145.8000,1126.2000,-1030.8000,6.5600,-1.3300,-6.8400,1.0134,-0.0436,-0.1276,-48.5625,-7.2500,55.0000,55.8750,43.5000,176.8750,0
1776971686.276,9.9647,1.8962,-2.5929,0.4109,0.1079,0.0437,-96.3000,24.1500,-29.8500,9.2488,-1.4150,-3.5745,0.7216,-0.2284,-0.2089,148.3500,1122.1500,-1027.9500,6.5600,-1.3300,-6.8400,1.0134,-0.0436,-0.1276,-48.5625,-7.2500,55.0000,55.8750,43.5000,176.8750,0
1776971686.281,9.8114,1.8411,-2.5259,0.3475,0.0701,0.0304,-95.2500,23.8500,-29.8500,9.1051,-1.4605,-3.6440,0.5716,-0.2065,-0.1815,148.3500,1122.1500,-1027.9500,6.6900,-1.1700,-6.8600,0.8781,0.0218,-0.1560,-47.5000,-4.6875,55.0000,55.6250,43.5000,176.4375,0
1776971686.286,9.8114,1.8411,-2.5259,0.3475,0.0701,0.0304,-95.2500,23.8500,-29.8500,9.1051,-1.4605,-3.6440,0.5716,-0.2065,-0.1815,149.8500,1118.7000,-1027.5000,6.6900,-1.1700,-6.8600,0.8781,0.0218,-0.1560,-47.5000,-4.6875,55.0000,55.6250,43.5000,176.4375,0
1776971686.291,9.8019,1.8292,-2.4852,0.2694,0.0378,0.0245,-95.4000,24.4500,-29.7000,8.9399,-1.3791,-3.6919,0.4349,-0.1673,-0.1719,149.8500,1118.7000,-1027.5000,6.7500,-1.0700,-6.8900,0.7570,0.0535,-0.1767,-47.5000,-4.6875,55.0000,55.3750,43.5625,176.1250,0
1776971686.299,9.6941,1.7334,-2.5019,0.2694,0.0378,0.0245,-95.4000,24.4500,-29.7000,8.8466,-1.2402,-3.6464,0.3126,-0.1077,-0.1548,151.0500,1115.5500,-1028.8500,6.7700,-1.0700,-6.8800,0.6676,0.0611,-0.1898,-47.5000,-4.6875,55.0000,55.1250,43.6250,175.8750,0
1776971686.304,9.6941,1.7334,-2.5019,0.1815,-0.0072,0.0200,-95.5500,24.6000,-30.3000,8.8466,-1.2402,-3.6464,0.3126,-0.1077,-0.1548,151.0500,1115.5500,-1028.8500,6.7700,-1.0700,-6.8800,0.6676,0.0611,-0.1898,-47.5000,-4.6875,55.0000,54.8750,43.6250,175.6250,0
1776971686.312,9.6750,1.7430,-2.5019,0.0935,-0.0450,0.0173,-96.1500,24.7500,-30.4500,8.8418,-1.2282,-3.6200,0.1788,-0.0232,-0.1354,151.0500,1115.5500,-1028.8500,6.8300,-1.0100,-6.8300,0.5934,0.0524,-0.1996,-47.5000,-4.6875,55.0000,54.6250,43.6875,175.4375,0
1776971686.321,9.5481,1.7071,-2.4110,-0.0024,-0.0810,0.0221,-96.1500,24.7500,-30.4500,8.7987,-1.2498,-3.6392,0.0722,0.0621,-0.1037,151.9500,1110.9000,-1027.5000,6.8100,-1.0300,-6.7900,0.5214,0.0611,-0.1985,-47.5000,-4.6875,55.0000,54.6250,43.6875,175.4375,0
1776971686.326,9.5481,1.7071,-2.4110,-0.0024,-0.0810,0.0221,-96.1500,24.7500,-30.4500,8.7987,-1.2498,-3.6392,0.0722,0.0621,-0.1037,149.5500,1111.8000,-1028.4000,6.8100,-1.0300,-6.7900,0.5214,0.0611,-0.1985,-47.5000,-2.8750,55.0000,54.4375,43.7500,175.3125,0
1776971686.331,9.4834,1.8316,-2.4038,-0.0850,-0.1151,0.0277,-96.6000,23.2500,-30.1500,8.7724,-1.1971,-3.5051,0.0011,0.1242,-0.0610,150.7500,1112.5500,-1028.1000,6.8700,-1.1400,-6.7300,0.4374,0.0644,-0.1942,-47.5000,-2.8750,55.0000,54.4375,43.7500,175.3125,0
1776971686.336,9.4834,1.8316,-2.4038,-0.0850,-0.1151,0.0277,-96.6000,23.2500,-30.1500,8.7724,-1.1971,-3.5051,0.0011,0.1242,-0.0610,150.7500,1112.5500,-1028.1000,6.8700,-1.1400,-6.7300,0.4374,0.0644,-0.1942,-47.5000,-2.8750,55.0000,54.2500,43.8125,175.1250,0
1776971686.341,9.4475,1.8723,-2.3008,-0.1487,-0.1420,0.0314,-96.6000,23.2500,-30.1500,8.8777,-1.2665,-3.2633,-0.0650,0.1631,-0.0301,151.9500,1111.6500,-1027.9500,6.8800,-1.1000,-6.6800,0.3360,0.0720,-0.1854,-47.5000,-2.8750,55.0000,54.2500,43.8125,175.1250,0
1776971686.346,9.4475,1.8723,-2.3008,-0.1487,-0.1420,0.0314,-96.6000,23.2500,-30.1500,8.8777,-1.2665,-3.2633,-0.1396,0.1937,-0.0093,151.9500,1111.6500,-1027.9500,6.8800,-1.1000,-6.6800,0.2193,0.0774,-0.1713,-47.5000,-2.8750,55.0000,54.1250,43.8750,175.0000,0
1776971686.352,9.3158,1.8771,-2.1404,-0.2150,-0.1679,0.0312,-94.8000,22.9500,-29.8500,8.8969,-1.3575,-3.2250,-0.1396,0.1937,-0.0093,152.1000,1111.5000,-1027.0500,6.8600,-1.0800,-6.7100,0.2193,0.0774,-0.1713,-47.5000,-2.8750,55.0000,54.1250,43.8750,175.0000,0
1776971686.361,9.2727,1.9656,-2.0087,-0.2595,-0.1996,0.0346,-95.1000,22.8000,-31.2000,8.8633,-1.5419,-3.1412,-0.1951,0.2156,0.0075,152.1000,1111.5000,-1027.0500,6.8900,-1.0600,-6.6700,0.0949,0.0720,-0.1560,-47.5000,-2.8750,55.0000,54.0625,43.9375,175.0000,0
1776971686.366,9.2727,1.9656,-2.0087,-0.2595,-0.1996,0.0346,-95.1000,22.8000,-31.2000,8.9854,-1.5850,-3.0335,-0.2574,0.2329,0.0226,152.1000,1111.5000,-1027.0500,6.8900,-1.0600,-6.6700,-0.0164,0.0644,-0.1407,-47.5000,-2.8750,55.0000,54.0000,44.0000,175.0000,0
1776971686.372,9.2488,1.9800,-1.8675,-0.3131,-0.2078,0.0378,-95.8500,23.2500,-30.4500,8.9854,-1.5850,-3.0335,-0.2574,0.2329,0.0226,152.2500,1113.4500,-1026.4500,6.9000,-1.0100,-6.7100,-0.0164,0.0644,-0.1407,-47.5000,-2.8750,55.0000,54.0000,44.0000,175.0000,0
1776971686.377,9.2608,2.0925,-1.6999,-0.3533,-0.2150,0.0304,-95.8500,23.2500,-30.4500,9.0405,-1.5945,-2.9042,-0.3445,0.2515,0.0301,152.2500,1113.4500,-1026.4500,6.9000,-1.0100,-6.7100,-0.0164,0.0644,-0.1407,-46.7500,-1.7500,55.3750,54.0000,44.0625,175.1250,0
1776971686.382,9.2608,2.0925,-1.6999,-0.3533,-0.2150,0.0304,-96.0000,24.6000,-31.0500,9.0405,-1.5945,-2.9042,-0.3445,0.2515,0.0301,152.5500,1113.0000,-1027.6500,6.9200,-0.8500,-6.7800,-0.1265,0.0513,-0.1276,-46.7500,-1.7500,55.3750,54.0000,44.0625,175.1250,0
1776971686.387,9.2680,2.1380,-1.5993,-0.4021,-0.2180,0.0341,-96.0000,24.6000,-31.0500,9.1387,-1.5562,-2.9090,-0.4250,0.2726,0.0314,152.5500,1113.0000,-1027.6500,6.9200,-0.8500,-6.7800,-0.1265,0.0513,-0.1276,-46.7500,-1.7500,55.3750,54.0000,44.1250,175.2500,0
1776971686.392,9.2680,2.1380,-1.5993,-0.4021,-0.2180,0.0341,-95.2500,23.8500,-31.0500,9.1387,-1.5562,-2.9090,-0.4250,0.2726,0.0314,153.9000,1114.8000,-1027.3500,6.9300,-0.7300,-6.8100,-0.2203,0.0469,-0.1113,-46.7500,-1.7500,55.3750,54.0000,44.1250,175.2500,0
1776971686.397,9.2177,2.2242,-1.5083,-0.4343,-0.2209,0.0314,-95.2500,23.8500,-31.0500,9.1913,-1.3862,-2.8419,-0.4788,0.2888,0.0242,153.9000,1114.8000,-1027.3500,6.9300,-0.7300,-6.8100,-0.2858,0.0218,-0.0993,-46.7500,-1.7500,55.3750,54.0000,44.1250,175.4375,0
1776971686.402,9.2177,2.2242,-1.5083,-0.4343,-0.2209,0.0314,-96.1500,24.7500,-29.7000,9.1913,-1.3862,-2.8419,-0.4788,0.2888,0.0242,151.6500,1115.4000,-1026.7500,6.8600,-0.7900,-6.8900,-0.2858,0.0218,-0.0993,-46.7500,-1.7500,55.3750,54.0000,44.1250,175.6875,0
1776971686.411,9.1770,2.2218,-1.3791,-0.4538,-0.2145,0.0349,-96.1500,24.7500,-29.7000,9.1913,-1.1133,-2.8108,-0.4988,0.2912,0.0152,150.9000,1115.4000,-1025.4000,6.8900,-0.6500,-6.9500,-0.3327,-0.0196,-0.0873,-46.7500,-1.7500,55.3750,54.0000,44.1250,175.6875,0
1776971686.421,9.2105,2.3703,-1.2881,-0.4711,-0.2124,0.0421,-95.1000,26.4000,-30.9000,9.2057,-0.9337,-2.8036,-0.5009,0.2982,0.0037,150.9000,1115.4000,-1025.4000,6.8900,-0.4700,-7.0100,-0.3622,-0.0436,-0.0894,-46.7500,-1.7500,55.3750,54.0625,44.0625,175.9375,0
1776971686.427,9.1889,2.4684,-1.1444,-0.4663,-0.2004,0.0554,-95.1000,26.4000,-30.9000,9.2440,-0.7207,-2.8563,-0.4738,0.2966,0.0056,150.9000,1115.4000,-1025.4000,6.8900,-0.4700,-7.0100,-0.3622,-0.0436,-0.0894,-48.2500,-2.5000,55.7500,54.0625,44.0625,176.1875,0
1776971686.432,9.1889,2.4684,-1.1444,-0.4663,-0.2004,0.0554,-95.1000,26.4000,-30.9000,9.2440,-0.7207,-2.8563,-0.4738,0.2966,0.0056,149.5500,1116.0000,-1026.6000,6.9400,-0.3100,-7.0600,-0.3742,-0.0654,-0.0982,-48.2500,-2.5000,55.7500,54.0625,44.0625,176.1875,0
1776971686.437,9.2344,2.5714,-1.1181,-0.4580,-0.1916,0.0594,-95.1000,26.4000,-30.9000,9.3134,-0.6800,-2.8180,-0.4106,0.2963,0.0000,149.5500,1116.0000,-1026.6000,6.9400,-0.3100,-7.0600,-0.3742,-0.0654,-0.0982,-48.2500,-2.5000,55.7500,54.0625,44.0000,176.5000,0
1776971686.442,9.2344,2.5714,-1.1181,-0.4580,-0.1916,0.0594,-94.3500,24.0000,-30.1500,9.3134,-0.6800,-2.8180,-0.4106,0.2963,0.0000,150.1500,1116.1500,-1027.2000,6.8800,-0.2400,-7.1000,-0.3611,-0.0862,-0.1025,-48.2500,-2.5000,55.7500,54.0625,44.0000,176.5000,0
1776971686.448,9.1794,2.5857,-1.0223,-0.4341,-0.1761,0.0762,-94.3500,24.0000,-30.1500,9.2680,-0.6201,-2.8419,-0.3400,0.2894,0.0035,150.1500,1116.1500,-1027.2000,6.8300,-0.2600,-7.1100,-0.3305,-0.1145,-0.1058,-48.2500,-2.5000,55.7500,54.1250,43.9375,176.7500,0
1776971686.453,9.1363,2.6600,-1.0726,-0.4341,-0.1761,0.0762,-94.8000,24.6000,-31.8000,9.2584,-0.6752,-2.8323,-0.2585,0.2782,-0.0045,150.7500,1116.7500,-1026.6000,6.8300,-0.2600,-7.1100,-0.3305,-0.1145,-0.1058,-48.2500,-2.5000,55.7500,54.1250,43.8750,176.9375,0
1776971686.462,9.1363,2.6600,-1.0726,-0.3917,-0.1561,0.0863,-95.5500,24.1500,-30.3000,9.2584,-0.6752,-2.8323,-0.2585,0.2782,-0.0045,149.4000,1116.9000,-1026.7500,6.8500,-0.2900,-7.0700,-0.3065,-0.1342,-0.1134,-48.2500,-2.5000,55.7500,54.1250,43.8750,176.9375,0
1776971686.472,9.0285,2.7605,-1.0463,-0.3667,-0.1308,0.1071,-95.5500,24.1500,-30.3000,9.3063,-0.7111,-2.8347,-0.1857,0.2619,-0.0019,148.2000,1117.0500,-1026.6000,6.7500,-0.3800,-7.0900,-0.2782,-0.1385,-0.1200,-48.2500,-2.5000,55.7500,54.1250,43.8125,177.1875,0
1776971686.477,9.0501,2.8276,-1.1277,-0.3174,-0.1095,0.1274,-96.7500,24.1500,-31.0500,9.2895,-0.7877,-2.7414,-0.1202,0.2409,-0.0152,148.2000,1117.0500,-1026.6000,6.7500,-0.3800,-7.0900,-0.2782,-0.1385,-0.1200,-48.2500,-2.5000,55.7500,54.1250,43.8125,177.1875,0
1776971686.482,9.0597,2.8204,-1.1899,-0.3174,-0.1095,0.1274,-96.3000,25.0500,-30.6000,9.3087,-0.9242,-2.7318,-0.0834,0.2220,-0.0280,148.2000,1117.0500,-1026.6000,6.7300,-0.3500,-7.1000,-0.2760,-0.1625,-0.1385,-48.2500,-2.8750,56.8750,54.0625,43.7500,177.4375,0
1776971686.486,9.0597,2.8204,-1.1899,-0.2670,-0.0901,0.1463,-96.3000,25.0500,-30.6000,9.3087,-0.9242,-2.7318,-0.0834,0.2220,-0.0280,148.2000,1117.0500,-1026.6000,6.7300,-0.3500,-7.1000,-0.2760,-0.1625,-0.1385,-48.2500,-2.8750,56.8750,54.0625,43.7500,177.4375,0
1776971686.492,9.1267,2.7054,-1.1684,-0.2670,-0.0901,0.1463,-96.3000,25.0500,-30.6000,9.3661,-0.9697,-2.7150,-0.0592,0.2153,-0.0381,150.4500,1118.4000,-1027.2000,6.7100,-0.3200,-7.1300,-0.2771,-0.1800,-0.1593,-48.2500,-2.8750,56.8750,54.0625,43.6250,177.6250,0
1776971686.496,9.1267,2.7054,-1.1684,-0.2393,-0.0805,0.1615,-95.8500,25.2000,-31.2000,9.3661,-0.9697,-2.7150,-0.0592,0.2153,-0.0381,150.4500,1118.4000,-1027.2000,6.7100,-0.3200,-7.1300,-0.2629,-0.1931,-0.1865,-48.2500,-2.8750,56.8750,54.0000,43.5000,177.8750,0
1776971686.502,9.1602,2.6719,-1.2426,-0.2153,-0.0775,0.1649,-95.8500,25.2000,-31.2000,9.3470,-1.0989,-2.7461,-0.0554,0.2108,-0.0488,149.8500,1117.2000,-1027.2000,6.7100,-0.2800,-7.1700,-0.2629,-0.1931,-0.1865,-48.2500,-2.8750,56.8750,54.0000,43.5000,177.8750,0
1776971686.511,9.2129,2.6959,-1.3336,-0.2153,-0.0775,0.1649,-95.8500,25.2000,-31.2000,9.3326,-1.0942,-2.6887,-0.0703,0.2022,-0.0525,150.4500,1117.6500,-1026.7500,6.7400,-0.2400,-7.1600,-0.2454,-0.2062,-0.2073,-48.2500,-2.8750,56.8750,53.9375,43.4375,178.1250,0
1776971686.516,9.2129,2.6959,-1.3336,-0.2153,-0.0709,0.1737,-95.8500,24.7500,-30.4500,9.3326,-1.0942,-2.6887,-0.0703,0.2022,-0.0525,150.4500,1117.6500,-1026.7500,6.7400,-0.2400,-7.1600,-0.2313,-0.2073,-0.2269,-48.2500,-2.8750,56.8750,53.8750,43.3125,178.3750,0
1776971686.523,9.2344,2.5833,-1.3862,-0.2244,-0.0637,0.1817,-95.8500,24.7500,-30.4500,9.3015,-1.0127,-2.6312,-0.0863,0.2198,-0.0602,149.5500,1117.8000,-1026.6000,6.7700,-0.2200,-7.1300,-0.2313,-0.2073,-0.2269,-48.2500,-2.8750,56.8750,53.8750,43.3125,178.3750,0
1776971686.527,9.2344,2.5833,-1.3862,-0.2244,-0.0637,0.1817,-95.8500,24.7500,-30.4500,9.3015,-1.0127,-2.6312,-0.0863,0.2198,-0.0602,150.3000,1116.7500,-1027.3500,6.7700,-0.2200,-7.1300,-0.2302,-0.2094,-0.2465,-47.0625,-4.6875,54.8750,53.8125,43.1875,178.6250,0
1776971686.532,9.2967,2.5043,-1.4389,-0.2427,-0.0597,0.1977,-95.8500,24.4500,-31.2000,9.2847,-0.9792,-2.5714,-0.1079,0.2286,-0.0490,150.3000,1116.7500,-1027.3500,6.8100,-0.1500,-7.1600,-0.2302,-0.2094,-0.2465,-47.0625,-4.6875,54.8750,53.8125,43.1875,178.6250,0
1776971686.537,9.2967,2.5043,-1.4389,-0.2427,-0.0597,0.1977,-95.8500,24.4500,-31.2000,9.2847,-0.9792,-2.5714,-0.1079,0.2286,-0.0490,150.3000,1116.7500,-1027.3500,6.8100,-0.1500,-7.1600,-0.2313,-0.2127,-0.2574,-47.0625,-4.6875,54.8750,53.6875,43.0625,178.9375,0
1776971686.542,9.2847,2.4229,-1.5347,-0.2494,-0.0616,0.2054,-95.8500,24.4500,-31.2000,9.3134,-0.9649,-2.5211,-0.1311,0.2366,-0.0408,150.3000,1116.7500,-1027.3500,6.8500,-0.0700,-7.1600,-0.2313,-0.2127,-0.2574,-47.0625,-4.6875,54.8750,53.6875,43.0625,178.9375,0
1776971686.547,9.2847,2.4229,-1.5347,-0.2494,-0.0616,0.2054,-95.8500,24.0000,-30.1500,9.3134,-0.9649,-2.5211,-0.1311,0.2366,-0.0408,150.3000,1116.7500,-1027.3500,6.8500,-0.0700,-7.1600,-0.2280,-0.2214,-0.2607,-47.0625,-4.6875,54.8750,53.5625,42.9375,179.1875,0
1776971686.553,9.2967,2.4493,-1.5251,-0.2694,-0.0661,0.2166,-96.9000,24.0000,-30.9000,9.2727,-0.8763,-2.5331,-0.1628,0.2446,-0.0338,151.8000,1117.0500,-1027.6500,6.8100,-0.0200,-7.2100,-0.2280,-0.2214,-0.2607,-47.0625,-4.6875,54.8750,53.5625,42.9375,179.1875,0
1776971686.562,9.3015,2.4181,-1.6281,-0.2721,-0.0807,0.2204,-96.9000,24.0000,-30.9000,9.3134,-0.9290,-2.4828,-0.2012,0.2569,-0.0325,151.2000,1117.2000,-1026.1500,6.8000,0.0000,-7.2300,-0.2193,-0.2400,-0.2585,-47.0625,-4.6875,54.8750,53.5000,42.8125,179.4375,0
1776971686.571,9.3015,2.4373,-1.6352,-0.2899,-0.0885,0.2300,-96.1500,23.5500,-28.9500,9.3709,-0.8859,-2.3942,-0.2169,0.2750,-0.0205,151.2000,1117.9500,-1025.7000,6.8100,0.2100,-7.2100,-0.2160,-0.2563,-0.2531,-47.0625,-4.6875,54.8750,53.3750,42.6875,179.6875,0
1776971686.576,9.3015,2.4373,-1.6352,-0.2899,-0.0885,0.2300,-95.8500,23.2500,-31.6500,9.3709,-0.8859,-2.3942,-0.2169,0.2750,-0.0205,151.2000,1117.9500,-1025.7000,6.8100,0.2100,-7.2100,-0.2160,-0.2563,-0.2531,-47.0625,-4.6875,54.8750,53.3750,42.6875,179.6875,0
1776971686.580,9.3518,2.4229,-1.5850,-0.3075,-0.0981,0.2353,-95.8500,23.2500,-31.6500,9.3948,-0.9050,-2.4086,-0.2260,0.2984,-0.0205,152.1000,1117.0500,-1026.6000,6.7300,0.0200,-7.1700,-0.1920,-0.1516,-0.1844,-47.0625,-5.3750,57.2500,53.3125,42.6250,179.8750,0
1776971686.585,9.3518,2.4229,-1.5850,-0.3075,-0.0981,0.2353,-94.8000,24.1500,-31.3500,9.3948,-0.9050,-2.4086,-0.2260,0.2984,-0.0205,152.1000,1117.0500,-1026.6000,6.7300,0.0200,-7.1700,-0.1920,-0.1516,-0.1844,-47.0625,-5.3750,57.2500,53.3125,42.6250,179.8750,0
1776971686.590,9.3541,2.4780,-1.5730,-0.3416,-0.1074,0.2372,-94.8000,24.1500,-31.3500,9.5122,-0.9266,-2.3607,-0.2310,0.3192,-0.0173,151.2000,1118.4000,-1026.1500,6.7100,0.0600,-7.2700,-0.1920,-0.1516,-0.1844,-47.0625,-5.3750,57.2500,53.3125,42.5000,-179.8125,0
1776971686.595,9.3541,2.4780,-1.5730,-0.3416,-0.1074,0.2372,-94.8000,24.1500,-31.3500,9.5122,-0.9266,-2.3607,-0.2310,0.3192,-0.0173,151.2000,1118.4000,-1026.1500,6.7100,0.0600,-7.2700,-0.1920,-0.1516,-0.1844,-47.0625,-5.3750,57.2500,53.2500,42.4375,-179.6250,0
1776971686.602,9.3541,2.4469,-1.5754,-0.3685,-0.1183,0.2401,-94.8000,24.1500,-31.3500,9.6367,-0.8547,-2.2841,-0.2486,0.3192,-0.0093,151.2000,1118.4000,-1026.1500,6.6100,0.0000,-7.3000,-0.1931,-0.1647,-0.1647,-47.0625,-5.3750,57.2500,53.2500,42.4375,-179.6250,0
1776971686.610,9.4020,2.4948,-1.5586,-0.3989,-0.1164,0.2441,-96.3000,24.6000,-30.6000,9.7755,-0.8188,-2.1596,-0.2561,0.3331,-0.0040,151.0500,1117.5000,-1024.8000,6.6700,0.2200,-7.3700,-0.2073,-0.1527,-0.1429,-47.0625,-5.3750,57.2500,53.1875,42.3125,-179.4375,0
1776971686.615,9.4020,2.4948,-1.5586,-0.3989,-0.1164,0.2441,-96.3000,24.6000,-30.6000,9.7755,-0.8188,-2.1596,-0.2561,0.3331,-0.0040,151.0500,1117.5000,-1024.8000,6.6700,0.2200,-7.3700,-0.2073,-0.1527,-0.1429,-47.0625,-5.3750,57.2500,53.1250,42.1875,-179.3125,0
1776971686.622,9.3685,2.4349,-1.5203,-0.4293,-0.1239,0.2446,-96.3000,24.6000,-30.6000,9.6774,-0.8404,-2.0423,-0.2518,0.3448,-0.0024,153.0000,1118.4000,-1026.1500,6.6300,0.2700,-7.3400,-0.1844,-0.2476,-0.1516,-47.0625,-5.3750,57.2500,53.1250,42.1875,-179.3125,0
1776971686.627,9.3565,2.4181,-1.4844,-0.4572,-0.1268,0.2403,-96.1500,23.2500,-30.4500,9.6941,-0.7853,-1.9728,-0.2462,0.3544,0.0011,149.8500,1119.4500,-1023.6000,6.6300,0.2700,-7.3400,-0.1844,-0.2476,-0.1516,-46.3750,-6.8750,57.2500,53.1250,42.0625,-179.1250,0
1776971686.633,9.3565,2.4181,-1.4844,-0.4572,-0.1268,0.2403,-96.1500,23.2500,-30.4500,9.6941,-0.7853,-1.9728,-0.2462,0.3544,0.0011,149.8500,1119.4500,-1023.6000,6.6000,0.1700,-7.3800,-0.1669,-0.2509,-0.1298,-46.3750,-6.8750,57.2500,53.1250,42.0625,-179.1250,0
1776971686.637,9.3925,2.5259,-1.3719,-0.4770,-0.1234,0.2332,-94.8000,21.4500,-31.3500,9.7252,-0.8571,-1.8004,-0.2414,0.3645,0.0072,150.1500,1119.4500,-1023.6000,6.6000,0.1700,-7.3800,-0.1669,-0.2509,-0.1298,-46.3750,-6.8750,57.2500,53.1250,41.9375,-179.0000,0
1776971686.642,9.3925,2.5259,-1.3719,-0.4770,-0.1234,0.2332,-94.8000,21.4500,-31.3500,9.7252,-0.8571,-1.8004,-0.2414,0.3645,0.0072,150.1500,1119.4500,-1023.6000,6.6100,0.1500,-7.4200,-0.1669,-0.2160,-0.0938,-46.3750,-6.8750,57.2500,53.1250,41.9375,-179.0000,0
1776971686.647,9.3446,2.6049,-1.4102,-0.4882,-0.1308,0.2193,-96.6000,23.5500,-30.9000,9.7468,-0.8930,-1.6592,-0.2569,0.3600,0.0131,150.9000,1120.2000,-1023.9000,6.6100,0.1500,-7.4200,-0.1734,-0.2182,-0.0545,-46.3750,-6.8750,57.2500,53.1250,41.8125,-178.8750,0
1776971686.653,9.3446,2.6049,-1.4102,-0.4882,-0.1308,0.2193,-96.6000,23.5500,-30.9000,9.7468,-0.8930,-1.6592,-0.2569,0.3600,0.0131,150.9000,1120.2000,-1023.9000,6.6500,0.1200,-7.4400,-0.1734,-0.2182,-0.0545,-46.3750,-6.8750,57.2500,53.1250,41.8125,-178.8750,0
1776971686.662,9.3039,2.6647,-1.3551,-0.4962,-0.1295,0.2076,-96.9000,22.5000,-29.7000,9.7851,-0.9194,-1.5610,-0.2817,0.3616,0.0264,150.9000,1120.2000,-1023.9000,6.5900,0.3200,-7.4000,-0.1734,-0.2465,-0.0109,-46.3750,-6.8750,57.2500,53.1250,41.6875,-178.7500,0
1776971686.671,9.3134,2.7150,-1.3336,-0.4962,-0.1247,0.1884,-96.0000,23.8500,-31.3500,9.8138,-0.9433,-1.3815,-0.3118,0.3603,0.0405,150.9000,1120.2000,-1023.3000,6.6200,0.6800,-7.5000,-0.1505,-0.2694,0.0153,-46.3750,-6.8750,57.2500,53.1875,41.5000,-178.6875,0
1776971686.676,9.2057,2.8228,-1.2713,-0.4895,-0.1207,0.1753,-96.3000,22.2000,-31.0500,9.8234,-0.8715,-1.3192,-0.3387,0.3613,0.0392,151.9500,1119.1500,-1021.5000,6.6200,0.6800,-7.5000,-0.1505,-0.2694,0.0153,-46.3750,-6.8750,57.2500,53.1875,41.5000,-178.6875,0
1776971686.681,9.2057,2.8228,-1.2713,-0.4895,-0.1207,0.1753,-96.3000,22.2000,-31.0500,9.8234,-0.8715,-1.3192,-0.3387,0.3613,0.0392,151.9500,1119.1500,-1021.5000,6.4900,0.5100,-7.5200,-0.0949,-0.3152,0.0240,-44.5625,-8.0000,56.5000,53.1875,41.3750,-178.6250,0
1776971686.685,9.1243,2.8491,-1.2402,-0.4826,-0.1095,0.1567,-96.3000,22.2000,-31.0500,9.8617,-0.6919,-1.3216,-0.3491,0.3525,0.0288,152.8500,1121.5500,-1021.6500,6.4900,0.5100,-7.5200,-0.0949,-0.3152,0.0240,-44.5625,-8.0000,56.5000,53.1875,41.3750,-178.6250,0
1776971686.690,9.1243,2.8491,-1.2402,-0.4826,-0.1095,0.1567,-96.3000,22.2000,-31.0500,9.8617,-0.6919,-1.3216,-0.3491,0.3525,0.0288,152.8500,1121.5500,-1021.6500,6.4100,0.3200,-7.5200,-0.0458,-0.3229,0.0175,-44.5625,-8.0000,56.5000,53.2500,41.1875,-178.6250,0
1776971686.695,8.9591,2.9066,-1.1636,-0.4756,-0.0855,0.1439,-96.7500,23.4000,-30.6000,9.8857,-0.5076,-1.3719,-0.3352,0.3328,0.0165,152.1000,1122.7500,-1021.6500,6.4100,0.3200,-7.5200,-0.0458,-0.3229,0.0175,-44.5625,-8.0000,56.5000,53.2500,41.0000,-178.6250,0
1776971686.703,8.9208,2.8898,-1.1205,-0.4756,-0.0855,0.1439,-96.7500,23.4000,-30.6000,9.8857,-0.5076,-1.3719,-0.3352,0.3328,0.0165,152.1000,1122.7500,-1021.6500,6.2500,0.2000,-7.5200,-0.0284,-0.3054,0.0153,-44.5625,-8.0000,56.5000,53.2500,40.8750,-178.6250,0
1776971686.712,8.9208,2.8898,-1.1205,-0.4586,-0.0600,0.1292,-96.7500,23.4000,-30.6000,9.8713,-0.4597,-1.3815,-0.3003,0.3107,0.0045,151.6500,1121.7000,-1022.2500,6.2300,0.1800,-7.5100,-0.0273,-0.2782,0.0142,-44.5625,-8.0000,56.5000,53.2500,40.8750,-178.6250,0
1776971686.722,8.8921,3.0023,-1.0008,-0.4306,-0.0432,0.1220,-96.7500,23.4000,-30.6000,9.8713,-0.4190,-1.3671,-0.2555,0.2769,0.0053,151.6500,1121.7000,-1022.2500,6.2700,0.2400,-7.4800,-0.0240,-0.2531,0.0131,-44.5625,-8.0000,56.5000,53.3125,40.6875,-178.6250,0
1776971686.727,8.8921,3.0023,-1.0008,-0.3973,-0.0333,0.1122,-95.8500,22.5000,-30.9000,9.7995,-0.4070,-1.4126,-0.1980,0.2417,0.0064,151.2000,1125.4500,-1022.5500,6.2700,0.2400,-7.4800,-0.0240,-0.2531,0.0131,-44.5625,-8.0000,56.5000,53.3125,40.6875,-178.6250,0
1776971686.732,8.9423,3.0598,-0.9912,-0.3973,-0.0333,0.1122,-95.8500,22.5000,-30.9000,9.7995,-0.4070,-1.4126,-0.1980,0.2417,0.0064,151.2000,1125.4500,-1022.5500,6.2900,0.2200,-7.4800,-0.0207,-0.2367,0.0153,-44.1875,-7.6875,58.0625,53.3125,40.5625,-178.6250,0
1776971686.737,8.9423,3.0598,-0.9912,-0.3560,-0.0216,0.0946,-96.0000,23.4000,-30.6000,9.8378,-0.3759,-1.3024,-0.1239,0.2206,0.0104,150.3000,1127.5500,-1021.9500,6.2900,0.2200,-7.4800,-0.0207,-0.2367,0.0153,-44.1875,-7.6875,58.0625,53.3125,40.5625,-178.6250,0
1776971686.742,9.1028,3.0765,-1.0415,-0.3560,-0.0216,0.0946,-96.0000,23.4000,-30.6000,9.8378,-0.3759,-1.3024,-0.1239,0.2206,0.0104,150.3000,1127.5500,-1021.9500,6.1200,0.1500,-7.5000,-0.0175,-0.2280,0.0229,-44.1875,-7.6875,58.0625,53.3125,40.4375,-178.6250,0
1776971686.747,9.1028,3.0765,-1.0415,-0.3096,-0.0197,0.0866,-97.2000,23.8500,-30.3000,9.9264,-0.2682,-1.1732,-0.0810,0.2028,0.0160,150.1500,1126.6500,-1023.9000,6.1200,0.1500,-7.5000,-0.0229,-0.2105,0.0338,-44.1875,-7.6875,58.0625,53.3125,40.3125,-178.6250,0
1776971686.753,9.2009,3.0885,-1.0104,-0.2627,-0.0229,0.0741,-97.2000,23.8500,-30.3000,10.0269,-0.3256,-1.2594,-0.0576,0.1703,0.0218,150.1500,1126.6500,-1023.9000,6.0400,0.1900,-7.6000,-0.0229,-0.2105,0.0338,-44.1875,-7.6875,58.0625,53.3125,40.3125,-178.6250,0
1776971686.762,9.1913,3.1220,-1.0511,-0.2209,-0.0117,0.0600,-94.5000,23.4000,-29.5500,10.0269,-0.3256,-1.2594,-0.0576,0.1703,0.0218,150.7500,1127.2500,-1023.7500,6.0200,0.2500,-7.5900,-0.0196,-0.1800,0.0415,-44.1875,-7.6875,58.0625,53.3750,40.1875,-178.6250,0
1776971686.767,9.1913,3.1220,-1.0511,-0.2209,-0.0117,0.0600,-95.5500,22.2000,-30.6000,10.1035,-0.3472,-1.2929,-0.0538,0.1540,0.0261,150.7500,1127.2500,-1023.7500,6.0200,0.2500,-7.5900,-0.0175,-0.1440,0.0425,-44.1875,-7.6875,58.0625,53.3750,40.1250,-178.6250,0
1776971686.774,9.2368,3.1388,-1.1157,-0.1841,0.0000,0.0541,-95.5500,22.2000,-30.6000,10.1370,-0.4262,-1.2785,-0.0565,0.1362,0.0200,150.7500,1127.2500,-1023.7500,6.0200,0.1400,-7.6200,-0.0175,-0.1440,0.0425,-44.1875,-7.6875,58.0625,53.3750,40.1250,-178.6250,0
1776971686.778,9.2368,3.1388,-1.1157,-0.1841,0.0000,0.0541,-95.5500,22.2000,-30.6000,10.1370,-0.4262,-1.2785,-0.0565,0.1362,0.0200,150.7500,1127.2500,-1023.7500,5.9900,0.1100,-7.6600,-0.0153,-0.1036,0.0338,-44.2500,-8.0000,58.5000,53.4375,40.0625,-178.6875,0
1776971686.783,9.2680,3.2657,-1.1229,-0.1442,0.0115,0.0408,-95.5500,22.2000,-30.6000,10.1466,-0.4238,-1.3001,-0.0568,0.1162,0.0184,151.6500,1127.7000,-1023.7500,5.9900,0.1100,-7.6600,-0.0153,-0.1036,0.0338,-44.2500,-8.0000,58.5000,53.4375,40.0625,-178.6875,0
1776971686.788,9.2680,3.2657,-1.1229,-0.1442,0.0115,0.0408,-96.3000,22.2000,-30.6000,10.1466,-0.4238,-1.3001,-0.0568,0.1162,0.0184,151.6500,1127.7000,-1022.5500,6.0200,0.1700,-7.6700,-0.0153,-0.0513,0.0273,-44.2500,-8.0000,58.5000,53.4375,40.0000,-178.6875,0
1776971686.793,9.2512,3.2705,-0.9960,-0.1021,0.0157,0.0234,-96.3000,22.2000,-30.6000,10.0509,-0.3519,-1.2210,-0.0557,0.0975,0.0232,150.7500,1127.2500,-1023.4500,6.0200,0.1700,-7.6700,-0.0153,-0.0513,0.0273,-44.2500,-8.0000,58.5000,53.4375,40.0000,-178.6875,0
1776971686.798,9.2512,3.2705,-0.9960,-0.1021,0.0157,0.0234,-96.3000,22.2000,-30.6000,10.0509,-0.3519,-1.2210,-0.0557,0.0975,0.0232,150.7500,1127.2500,-1023.4500,6.0200,0.1700,-7.6700,-0.0109,-0.0087,0.0185,-44.2500,-8.0000,58.5000,53.4375,40.0000,-178.6875,0
1776971686.803,9.2201,3.3112,-1.1181,-0.0653,0.0187,0.0085,-96.3000,22.2000,-30.6000,10.0533,-0.3017,-1.0989,-0.0461,0.0853,0.0232,150.0000,1127.2500,-1022.7000,6.0600,0.1700,-7.6200,-0.0109,-0.0087,0.0185,-44.2500,-8.0000,58.5000,53.4375,40.0000,-178.6875,0
1776971686.812,9.2177,3.2753,-1.0175,-0.0213,0.0176,-0.0107,-96.1500,24.0000,-30.9000,10.0149,-0.2610,-1.1851,-0.0365,0.0658,0.0277,149.4000,1126.2000,-1023.3000,6.0500,0.0900,-7.6600,-0.0065,0.0273,0.0098,-44.2500,-8.0000,58.5000,53.4375,40.0000,-178.6875,0
1776971686.820,9.2033,3.1867,-1.0558,0.0139,0.0197,-0.0344,-96.7500,23.8500,-29.5500,10.0149,-0.2610,-1.1851,-0.0365,0.0658,0.0277,149.4000,1126.2000,-1023.3000,6.1000,0.1700,-7.6500,-0.0044,0.0633,0.0022,-44.2500,-8.0000,58.5000,53.4375,40.0000,-178.6875,0
1776971686.825,9.2033,3.1867,-1.0558,0.0139,0.0197,-0.0344,-95.8500,23.2500,-29.5500,9.9862,-0.3017,-1.2737,-0.0179,0.0378,0.0354,149.4000,1126.2000,-1023.3000,6.1000,0.1700,-7.6500,-0.0044,0.0633,0.0022,-44.2500,-8.0000,58.5000,53.4375,40.0000,-178.6875,0
1776971686.830,9.1913,3.1436,-1.0582,0.0413,0.0141,-0.0570,-95.8500,23.2500,-31.2000,9.9862,-0.3017,-1.2737,0.0136,0.0152,0.0456,149.4000,1126.2000,-1023.3000,6.1800,0.2400,-7.6100,-0.0011,0.0927,-0.0011,-43.5000,-8.3750,58.3750,53.4375,40.0625,-178.6875,0
1776971686.835,9.1913,3.1436,-1.0582,0.0413,0.0141,-0.0570,-95.8500,23.2500,-31.2000,10.0030,-0.3998,-1.1923,0.0136,0.0152,0.0456,149.4000,1126.2000,-1023.3000,6.1800,0.2400,-7.6100,-0.0011,0.0927,-0.0011,-43.5000,-8.3750,58.3750,53.4375,40.0625,-178.6875,0
1776971686.840,9.1267,3.0406,-1.0654,0.0640,0.0165,-0.0741,-96.6000,22.8000,-30.4500,9.8881,-0.5219,-1.2474,0.0440,0.0003,0.0597,149.4000,1126.2000,-1023.3000,6.1800,0.2200,-7.5500,-0.0022,0.1124,0.0044,-43.5000,-8.3750,58.3750,53.4375,40.0625,-178.6875,0
1776971686.844,9.1267,3.0406,-1.0654,0.0640,0.0165,-0.0741,-96.6000,22.8000,-30.4500,9.8881,-0.5219,-1.2474,0.0440,0.0003,0.0597,150.9000,1126.2000,-1021.8000,6.1800,0.2200,-7.5500,-0.0022,0.1124,0.0044,-43.5000,-8.3750,58.3750,53.4375,40.0625,-178.6875,0
1776971686.849,9.1889,2.9712,-1.0199,0.0821,0.0165,-0.0839,-97.2000,22.6500,-30.6000,9.9288,-0.5746,-1.1756,0.0498,-0.0226,0.0576,150.9000,1126.2000,-1021.8000,6.1500,0.2200,-7.6100,-0.0065,0.1309,0.0076,-43.5000,-8.3750,58.3750,53.4375,40.1250,-178.6875,0
1776971686.854,9.1889,2.9712,-1.0199,0.0821,0.0165,-0.0839,-97.2000,22.6500,-30.6000,9.9288,-0.5746,-1.1756,0.0498,-0.0226,0.0576,151.0500,1127.2500,-1024.2000,6.1500,0.2200,-7.6100,-0.0065,0.1309,0.0076,-43.5000,-8.3750,58.3750,53.4375,40.2500,-178.6875,0
1776971686.863,9.2464,2.8874,-1.0439,0.0887,0.0133,-0.0965,-95.1000,22.8000,-29.4000,9.9838,-0.6440,-1.2091,0.0418,-0.0410,0.0541,149.8500,1125.4500,-1022.5500,6.0500,0.1600,-7.5600,-0.0076,0.1593,0.0153,-43.5000,-8.3750,58.3750,53.4375,40.2500,-178.6875,0
1776971686.869,9.2488,2.9592,-1.0319,0.0874,0.0112,-0.1138,-95.1000,22.8000,-29.4000,10.0963,-0.6440,-1.2665,0.0232,-0.0530,0.0450,149.8500,1125.4500,-1022.5500,6.0800,0.1500,-7.6100,-0.0109,0.1953,0.0175,-43.5000,-8.3750,58.3750,53.4375,40.3125,-178.6875,0
1776971686.874,9.2488,2.9592,-1.0319,0.0874,0.0112,-0.1138,-95.1000,22.8000,-29.4000,10.0963,-0.6440,-1.2665,0.0232,-0.0530,0.0450,151.0500,1126.8000,-1023.1500,6.0800,0.1500,-7.6100,-0.0109,0.1953,0.0175,-43.5000,-8.3750,58.3750,53.4375,40.3125,-178.6875,0
1776971686.878,9.2680,2.9377,-1.0391,0.0794,0.0083,-0.1210,-96.7500,22.9500,-29.2500,10.0868,-0.6105,-1.3408,-0.0024,-0.0818,0.0456,151.0500,1126.8000,-1023.1500,6.0800,0.1500,-7.6100,-0.0109,0.1953,0.0175,-43.5000,-6.8750,59.2500,53.5000,40.4375,-178.6875,0
1776971686.883,9.2680,2.9377,-1.0391,0.0794,0.0083,-0.1210,-96.7500,22.9500,-29.2500,10.0868,-0.6105,-1.3408,-0.0024,-0.0818,0.0456,151.0500,1126.8000,-1023.1500,6.2400,0.1700,-7.5900,-0.0153,0.2247,0.0153,-43.5000,-6.8750,59.2500,53.5000,40.4375,-178.6875,0
1776971686.888,9.2799,2.9856,-1.0918,0.0679,0.0080,-0.1340,-96.7500,22.9500,-29.2500,10.0341,-0.5722,-1.4389,-0.0224,-0.1005,0.0464,151.0500,1126.8000,-1023.1500,6.2400,0.1700,-7.5900,-0.0153,0.2247,0.0153,-43.5000,-6.8750,59.2500,53.5000,40.5625,-178.6250,0
1776971686.893,9.2799,2.9856,-1.0918,0.0679,0.0080,-0.1340,-96.7500,22.9500,-29.2500,10.0341,-0.5722,-1.4389,-0.0224,-0.1005,0.0464,150.1500,1127.4000,-1023.6000,6.2900,0.1500,-7.5700,-0.0164,0.2465,0.0044,-43.5000,-6.8750,59.2500,53.5000,40.5625,-178.6250,0
1776971686.898,9.2895,2.9928,-1.0080,0.0693,0.0048,-0.1420,-95.8500,24.0000,-30.4500,9.9120,-0.7087,-1.4868,-0.0312,-0.1266,0.0506,150.1500,1127.4000,-1023.6000,6.2900,0.1500,-7.5700,-0.0229,0.2618,-0.0065,-43.5000,-6.8750,59.2500,53.5000,40.6875,-178.6250,0
1776971686.903,9.2895,2.9928,-1.0080,0.0693,0.0048,-0.1420,-95.8500,24.0000,-30.4500,9.9120,-0.7087,-1.4868,-0.0312,-0.1266,0.0506,148.6500,1128.4500,-1023.6000,6.3800,0.0900,-7.5800,-0.0229,0.2618,-0.0065,-43.5000,-6.8750,59.2500,53.5000,40.8750,-178.6250,0
1776971686.912,9.2895,2.9161,-1.0463,0.0634,0.0013,-0.1426,-96.9000,23.2500,-30.9000,9.8114,-0.7159,-1.5993,-0.0234,-0.1346,0.0498,148.8000,1127.5500,-1022.7000,6.4200,0.1800,-7.5400,-0.0295,0.2651,-0.0196,-43.5000,-6.8750,59.2500,53.5000,40.8750,-178.6250,0
1776971686.922,9.2823,2.9066,-0.9816,0.0741,0.0027,-0.1463,-96.7500,22.9500,-29.8500,9.7396,-0.7829,-1.6616,-0.0115,-0.1434,0.0568,148.8000,1128.0000,-1023.4500,6.4800,0.2000,-7.4600,-0.0349,0.2683,-0.0229,-43.5000,-6.8750,59.2500,53.4375,41.0000,-178.5625,0
1776971686.927,9.2512,2.8563,-1.0918,0.0818,0.0021,-0.1487,-96.7500,24.6000,-30.3000,9.7013,-0.9002,-1.7454,-0.0051,-0.1564,0.0624,148.8000,1128.0000,-1023.4500,6.4800,0.2000,-7.4600,-0.0349,0.2683,-0.0229,-43.5000,-6.8750,59.2500,53.4375,41.1250,-178.5625,0
1776971686.933,9.2512,2.8563,-1.0918,0.0818,0.0021,-0.1487,-96.7500,24.6000,-30.3000,9.7013,-0.9002,-1.7454,-0.0051,-0.1564,0.0624,150.7500,1128.0000,-1023.7500,6.4300,0.1500,-7.4300,-0.0404,0.2662,-0.0251,-44.2500,-7.6875,57.6875,53.4375,41.1250,-178.5625,0
1776971686.937,9.1961,2.7509,-1.0534,0.1031,-0.0019,-0.1522,-95.5500,21.9000,-29.8500,9.5481,-0.9050,-1.7813,0.0005,-0.1585,0.0677,150.7500,1128.0000,-1023.7500,6.4300,0.1500,-7.4300,-0.0404,0.2662,-0.0251,-44.2500,-7.6875,57.6875,53.4375,41.3125,-178.5000,0
1776971686.943,9.1961,2.7509,-1.0534,0.1031,-0.0019,-0.1522,-95.5500,21.9000,-29.8500,9.5481,-0.9050,-1.7813,0.0005,-0.1585,0.0677,150.7500,1128.0000,-1023.7500,6.5000,0.2400,-7.4100,-0.0469,0.2618,-0.0240,-44.2500,-7.6875,57.6875,53.4375,41.3125,-178.5000,0
1776971686.947,9.1698,2.7342,-1.1133,0.1212,-0.0059,-0.1458,-96.3000,22.9500,-30.6000,9.5170,-0.9960,-1.8699,-0.0099,-0.1591,0.0552,150.7500,1128.0000,-1023.7500,6.5000,0.2400,-7.4100,-0.0502,0.2629,-0.0273,-44.2500,-7.6875,57.6875,53.4375,41.4375,-178.4375,0
1776971686.953,9.1698,2.5833,-1.0894,0.1271,0.0008,-0.1474,-96.3000,22.9500,-30.6000,9.5170,-0.9960,-1.8699,-0.0099,-0.1591,0.0552,148.8000,1125.7500,-1024.8000,6.5400,0.2300,-7.3700,-0.0502,0.2629,-0.0273,-44.2500,-7.6875,57.6875,53.4375,41.4375,-178.4375,0
1776971686.962,9.2009,2.6073,-1.1756,0.1271,0.0008,-0.1474,-96.3000,22.9500,-30.6000,9.4930,-1.0846,-1.9513,-0.0173,-0.1665,0.0538,148.3500,1125.4500,-1024.3500,6.5700,0.2400,-7.3500,-0.0513,0.2531,-0.0240,-44.2500,-7.6875,57.6875,53.4375,41.5625,-178.3750,0
1776971686.967,9.2009,2.6073,-1.1756,0.1343,-0.0040,-0.1420,-96.1500,24.0000,-30.1500,9.4260,-1.0894,-1.9489,-0.0197,-0.1607,0.0554,148.3500,1125.4500,-1024.3500,6.5700,0.2400,-7.3500,-0.0491,0.2400,-0.0218,-44.2500,-7.6875,57.6875,53.4375,41.6875,-178.3750,0
1776971686.974,9.2368,2.5570,-1.2474,0.1244,0.0029,-0.1332,-96.1500,24.0000,-30.1500,9.4260,-1.0894,-1.9489,-0.0197,-0.1607,0.0554,148.5000,1125.3000,-1024.2000,6.6100,0.2700,-7.3100,-0.0491,0.2400,-0.0218,-44.2500,-7.6875,57.6875,53.4375,41.6875,-178.3750,0
1776971686.978,9.2368,2.5570,-1.2474,0.1244,0.0029,-0.1332,-96.1500,24.0000,-30.1500,9.4547,-1.1205,-2.0590,-0.0272,-0.1641,0.0512,148.5000,1125.3000,-1024.2000,6.6100,0.2700,-7.3100,-0.0491,0.2400,-0.0218,-44.8750,-8.3750,57.2500,53.4375,41.8125,-178.3125,0
1776971686.983,9.2512,2.3990,-1.2498,0.1167,0.0053,-0.1204,-96.1500,24.0000,-30.1500,9.4547,-1.1205,-2.0590,-0.0272,-0.1641,0.0512,151.0500,1124.5500,-1024.5000,6.6600,0.2900,-7.2900,-0.0469,0.2269,-0.0175,-44.8750,-8.3750,57.2500,53.4375,41.8125,-178.3125,0
1776971686.988,9.2512,2.3990,-1.2498,0.1167,0.0053,-0.1204,-95.5500,24.1500,-29.8500,9.3972,-1.1612,-2.1452,-0.0211,-0.1556,0.0525,151.0500,1124.5500,-1024.5000,6.6600,0.2900,-7.2900,-0.0469,0.2269,-0.0175,-44.8750,-8.3750,57.2500,53.4375,41.9375,-178.3125,0
1776971686.993,9.3565,2.4277,-1.2330,0.0978,0.0141,-0.1050,-95.5500,24.1500,-29.8500,9.3972,-1.1612,-2.1452,-0.0211,-0.1556,0.0525,150.1500,1125.4500,-1024.6500,6.6900,0.3000,-7.2500,-0.0436,0.2116,-0.0087,-44.8750,-8.3750,57.2500,53.4375,41.9375,-178.3125,0
1776971686.998,9.3565,2.4277,-1.2330,0.0978,0.0141,-0.1050,-96.9000,24.0000,-30.9000,9.3925,-1.1827,-2.2529,-0.0216,-0.1556,0.0474,150.1500,1125.4500,-1024.6500,6.6900,0.3000,-7.2500,-0.0425,0.1985,-0.0022,-44.8750,-8.3750,57.2500,53.4375,42.0625,-178.2500,0
1776971687.004,9.3661,2.3439,-1.2785,0.0901,0.0296,-0.0858,-96.9000,24.0000,-30.9000,9.3925,-1.1827,-2.2529,-0.0216,-0.1556,0.0474,150.1500,1125.4500,-1024.6500,6.7100,0.3000,-7.2900,-0.0425,0.1985,-0.0022,-44.8750,-8.3750,57.2500,53.4375,42.0625,-178.2500,0
1776971687.012,9.3087,2.3367,-1.3240,0.0871,0.0456,-0.0632,-96.6000,24.7500,-29.7000,9.3158,-1.1684,-2.2649,-0.0253,-0.1372,0.0458,148.5000,1124.2500,-1025.5500,6.7100,0.2900,-7.2600,-0.0382,0.1789,0.0087,-44.8750,-8.3750,57.2500,53.4375,42.1875,-178.2500,0
1776971687.017,9.3087,2.3367,-1.3240,0.0871,0.0456,-0.0632,-95.5500,23.4000,-31.8000,9.2943,-1.1468,-2.3080,-0.0157,-0.1274,0.0381,148.5000,1124.2500,-1025.5500,6.7100,0.2900,-7.2600,-0.0349,0.1658,0.0164,-44.8750,-8.3750,57.2500,53.5000,42.2500,-178.2500,0
1776971687.024,9.2847,2.3870,-1.3575,0.0938,0.0576,-0.0474,-95.5500,23.4000,-31.8000,9.2464,-1.1301,-2.3894,-0.0032,-0.1164,0.0304,150.1500,1125.9000,-1024.6500,6.7200,0.2600,-7.2400,-0.0349,0.1658,0.0164,-44.8750,-8.3750,57.2500,53.5000,42.2500,-178.2500,0
1776971687.028,9.2847,2.3870,-1.3575,0.0938,0.0576,-0.0474,-96.3000,25.3500,-30.3000,9.2464,-1.1301,-2.3894,-0.0032,-0.1164,0.0304,150.1500,1125.9000,-1024.6500,6.7200,0.2600,-7.2400,-0.0316,0.1484,0.0229,-45.6875,-8.3750,56.5000,53.5000,42.3125,-178.1875,0
1776971687.034,9.3111,2.3942,-1.3719,0.1226,0.0637,-0.0240,-96.3000,25.3500,-30.3000,9.2584,-1.0846,-2.4157,0.0064,-0.1172,0.0264,148.6500,1125.9000,-1026.1500,6.7300,0.2800,-7.2100,-0.0316,0.1484,0.0229,-45.6875,-8.3750,56.5000,53.5000,42.3125,-178.1875,0
1776971687.038,9.3111,2.3942,-1.3719,0.1226,0.0637,-0.0240,-96.3000,25.3500,-30.3000,9.2584,-1.0846,-2.4157,0.0064,-0.1172,0.0264,150.1500,1125.4500,-1025.4000,6.7300,0.2800,-7.2100,-0.0251,0.1309,0.0295,-45.6875,-8.3750,56.5000,53.5000,42.4375,-178.1875,0
1776971687.043,9.3158,2.3750,-1.4772,0.1431,0.0655,-0.0125,-96.3000,25.3500,-30.3000,9.2536,-1.1444,-2.4708,0.0101,-0.1085,0.0272,150.1500,1125.4500,-1025.4000,6.7900,0.1900,-7.1700,-0.0251,0.1309,0.0295,-45.6875,-8.3750,56.5000,53.5000,42.4375,-178.1875,0
1776971687.048,9.3925,2.3727,-1.4174,0.1431,0.0655,-0.0125,-96.3000,25.3500,-30.3000,9.2536,-1.1444,-2.4708,0.0101,-0.1085,0.0272,149.1000,1126.2000,-1026.1500,6.7900,0.1900,-7.1700,-0.0218,0.1014,0.0382,-45.6875,-8.3750,56.5000,53.5625,42.5000,-178.2500,0
1776971687.054,9.3925,2.3727,-1.4174,0.1735,0.0663,0.0035,-96.3000,25.3500,-30.3000,9.2464,-1.0894,-2.5163,0.0155,-0.0949,0.0224,149.1000,1126.2000,-1026.1500,6.7500,0.2600,-7.2200,-0.0218,0.1014,0.0382,-45.6875,-8.3750,56.5000,53.5625,42.5000,-178.2500,0
1776971687.063,9.2895,2.3008,-1.3647,0.1911,0.0602,0.0104,-96.0000,24.1500,-29.8500,9.1722,-1.2163,-2.4876,0.0163,-0.0674,0.0266,149.1000,1126.2000,-1026.1500,6.7500,0.3500,-7.2100,-0.0207,0.0840,0.0502,-45.6875,-8.3750,56.5000,53.5625,42.5000,-178.2500,0
1776971687.069,9.2751,2.1644,-1.4509,0.1969,0.0568,0.0211,-96.0000,24.1500,-29.8500,9.1722,-1.2163,-2.4876,0.0163,-0.0674,0.0266,149.1000,1124.4000,-1027.5000,6.7300,0.2200,-7.1700,-0.0142,0.0622,0.0535,-45.6875,-8.3750,56.5000,53.6250,42.5625,-178.2500,0
1776971687.074,9.2751,2.1644,-1.4509,0.1969,0.0568,0.0211,-96.0000,24.1500,-29.8500,9.2512,-1.2186,-2.6336,0.0072,-0.0536,0.0226,149.1000,1124.4000,-1027.5000,6.7300,0.2200,-7.1700,-0.0142,0.0622,0.0535,-45.6875,-8.3750,56.5000,53.6250,42.5625,-178.2500,0
1776971687.079,9.3374,2.0710,-1.4892,0.1916,0.0570,0.0368,-96.0000,24.1500,-30.6000,9.2512,-1.2186,-2.6336,0.0072,-0.0536,0.0226,149.4000,1123.9500,-1027.2000,6.7700,-0.1600,-7.3600,-0.0524,0.0425,0.0545,-44.8750,-8.0000,57.3750,53.6250,42.5625,-178.2500,0
1776971687.084,9.3374,2.0710,-1.4892,0.1916,0.0570,0.0368,-96.0000,24.1500,-30.6000,9.2249,-1.1971,-2.6456,-0.0101,-0.0330,0.0213,149.4000,1123.9500,-1027.2000,6.7700,-0.1600,-7.3600,-0.0524,0.0425,0.0545,-44.8750,-8.0000,57.3750,53.6250,42.5625,-178.2500,0
1776971687.088,9.3326,2.0782,-1.4485,0.1724,0.0517,0.0472,-94.8000,23.4000,-30.6000,9.2249,-1.1971,-2.6456,-0.0101,-0.0330,0.0213,149.4000,1123.6500,-1025.4000,6.7700,-0.1600,-7.3600,-0.0807,0.0284,0.0665,-44.8750,-8.0000,57.3750,53.6875,42.6250,-178.2500,0
1776971687.094,9.3326,2.0782,-1.4485,0.1724,0.0517,0.0472,-94.8000,23.4000,-30.6000,9.2488,-1.0750,-2.4469,-0.0253,-0.0123,0.0168,149.4000,1123.6500,-1025.4000,6.7300,0.8600,-7.1300,-0.0807,0.0284,0.0665,-44.8750,-8.0000,57.3750,53.6875,42.6250,-178.2500,0
1776971687.098,9.3134,2.0446,-1.4341,0.1511,0.0461,0.0552,-95.8500,22.8000,-29.7000,9.2488,-1.0750,-2.4469,-0.0253,-0.0123,0.0168,150.3000,1122.7500,-1024.8000,6.7300,0.8600,-7.1300,-0.0415,0.0065,0.0611,-44.8750,-8.0000,57.3750,53.7500,42.6250,-178.2500,0
1776971687.104,9.3134,2.0446,-1.4341,0.1511,0.0461,0.0552,-95.8500,22.8000,-29.7000,9.3063,-0.9673,-2.5426,-0.0573,0.0040,0.0008,150.3000,1122.7500,-1024.8000,6.7200,0.4000,-7.3000,-0.0415,0.0065,0.0611,-44.8750,-8.0000,57.3750,53.7500,42.6250,-178.2500,0
1776971687.113,9.3182,2.1308,-1.4581,0.1295,0.0434,0.0669,-96.1500,24.4500,-30.4500,9.4619,-0.8619,-2.7126,-0.0719,0.0045,-0.0101,148.6500,1123.6500,-1024.3500,6.6100,0.0400,-7.2300,-0.0240,-0.0076,0.0535,-44.8750,-8.0000,57.3750,53.7500,42.6250,-178.2500,0
1776971687.117,9.2512,2.1859,-1.4581,0.1127,0.0437,0.0773,-96.1500,24.4500,-30.4500,9.4619,-0.8619,-2.7126,-0.0719,0.0045,-0.0101,148.6500,1123.6500,-1024.3500,6.6100,0.0400,-7.2300,-0.0273,-0.0065,0.0393,-44.8750,-8.0000,57.3750,53.8125,42.6250,-178.2500,0
1776971687.124,9.2512,2.1859,-1.4581,0.1127,0.0437,0.0773,-95.8500,23.5500,-30.1500,9.4954,-0.7398,-2.5139,-0.0600,0.0093,-0.0069,148.6500,1123.6500,-1024.3500,6.6000,0.2900,-7.2300,-0.0273,-0.0065,0.0393,-44.8750,-8.0000,57.3750,53.8125,42.6250,-178.2500,0
1776971687.129,9.3254,2.1572,-1.5275,0.0965,0.0384,0.0850,-97.2000,23.8500,-29.8500,9.4954,-0.7398,-2.5139,-0.0600,0.0093,-0.0069,149.1000,1124.4000,-1026.1500,6.5600,0.2000,-7.3000,-0.0131,-0.0087,0.0218,-46.0625,-8.3750,57.2500,53.8125,42.6250,-178.2500,0
1776971687.134,9.3254,2.1572,-1.5275,0.0965,0.0384,0.0850,-97.2000,23.8500,-29.8500,9.5170,-0.6273,-2.4181,-0.0258,0.0085,-0.0088,149.1000,1124.4000,-1026.1500,6.5600,0.2000,-7.3000,-0.0131,-0.0087,0.0218,-46.0625,-8.3750,57.2500,53.8125,42.6250,-178.2500,0
1776971687.143,9.3302,2.2410,-1.5586,0.0930,0.0389,0.0911,-97.2000,23.8500,-29.8500,9.5241,-0.4693,-2.4157,0.0077,0.0043,-0.0107,149.4000,1121.7000,-1027.2000,6.6100,0.1900,-7.2600,-0.0044,-0.0087,0.0044,-46.0625,-8.3750,57.2500,53.8125,42.6250,-178.2500,0
1776971687.150,9.3134,2.3487,-1.5203,0.0805,0.0325,0.0893,-96.0000,24.6000,-31.0500,9.5864,-0.5818,-2.4014,0.0450,-0.0008,-0.0075,147.9000,1123.6500,-1025.7000,6.5900,0.1800,-7.2800,0.0022,-0.0022,-0.0120,-46.0625,-8.3750,57.2500,53.8125,42.6250,-178.2500,0
1776971687.155,9.3422,2.3559,-1.5179,0.0805,0.0325,0.0893,-96.0000,24.6000,-31.0500,9.5864,-0.5818,-2.4014,0.0450,-0.0008,-0.0075,147.9000,1123.6500,-1025.7000,6.5900,0.1800,-7.2800,0.0022,-0.0022,-0.0120,-46.0625,-8.3750,57.2500,53.8125,42.6250,-178.2500,0
1776971687.163,9.3422,2.3559,-1.5179,0.0719,0.0248,0.0946,-96.0000,24.6000,-31.0500,9.6175,-0.6009,-2.2458,0.0781,0.0011,-0.0019,150.0000,1123.5000,-1027.3500,6.6100,0.1900,-7.2800,0.0065,-0.0022,-0.0240,-46.0625,-8.3750,57.2500,53.8125,42.6250,-178.2500,0
1776971687.172,9.3158,2.4636,-1.5610,0.0682,0.0266,0.0863,-96.6000,24.0000,-31.2000,9.5600,-0.7374,-2.2075,0.0898,0.0035,0.0163,149.5500,1121.5500,-1025.2500,6.6500,0.2500,-7.2500,0.0044,-0.0055,-0.0251,-46.0625,-8.3750,57.2500,53.7500,42.6250,-178.1875,0
1776971687.176,9.2560,2.5139,-1.5227,0.0669,0.0248,0.0751,-96.6000,24.0000,-31.2000,9.5600,-0.7374,-2.2075,0.0898,0.0035,0.0163,149.5500,1121.5500,-1025.2500,6.6500,0.2500,-7.2500,0.0044,-0.0055,-0.0251,-46.3750,-8.0000,56.8750,53.7500,42.6250,-178.1875,0
1776971687.183,9.2344,2.5307,-1.4676,0.0669,0.0248,0.0751,-96.6000,23.5500,-30.1500,9.6055,-0.8978,-2.0542,0.0879,0.0101,0.0256,149.5500,1121.5500,-1025.2500,6.6400,0.2300,-7.2600,0.0044,-0.0098,-0.0218,-46.3750,-8.0000,56.8750,53.7500,42.6250,-178.1875,0
1776971687.192,9.2344,2.5307,-1.4676,0.0640,0.0221,0.0757,-97.5000,22.6500,-29.5500,9.5984,-1.0199,-2.1811,0.0717,0.0133,0.0248,150.0000,1122.0000,-1026.0000,6.6000,0.2300,-7.2900,0.0011,-0.0109,-0.0218,-46.3750,-8.0000,56.8750,53.7500,42.6250,-178.1875,0
1776971687.197,9.3039,2.4732,-1.3695,0.0592,0.0155,0.0613,-97.5000,22.6500,-29.5500,9.5984,-1.0199,-2.1811,0.0717,0.0133,0.0248,147.7500,1122.0000,-1027.0500,6.6000,0.2300,-7.2900,0.0011,-0.0109,-0.0218,-46.3750,-8.0000,56.8750,53.7500,42.6250,-178.1875,0
1776971687.204,9.3494,2.5067,-1.3240,0.0504,0.0056,0.0557,-96.6000,23.2500,-31.2000,9.6917,-1.0870,-2.0710,0.0658,0.0128,0.0264,147.7500,1122.0000,-1027.0500,6.5500,0.2200,-7.3000,0.0033,-0.0065,-0.0185,-46.3750,-8.0000,56.8750,53.7500,42.6250,-178.1875,0
1776971687.213,9.3805,2.6073,-1.3360,0.0450,-0.0005,0.0410,-95.8500,24.0000,-31.2000,9.7492,-1.0391,-1.8076,0.0349,0.0354,0.0213,150.1500,1124.7000,-1026.4500,6.4300,0.1700,-7.3600,0.0033,0.0120,-0.0153,-46.3750,-8.0000,56.8750,53.7500,42.6250,-178.1875,0
1776971687.219,9.3805,2.6073,-1.3360,0.0450,-0.0005,0.0410,-96.7500,23.4000,-30.6000,9.8761,-0.9290,-1.7430,-0.0163,0.0402,0.0099,149.5500,1125.0000,-1026.6000,6.4300,0.1700,-7.3600,0.0022,0.0382,-0.0153,-46.3750,-8.0000,56.8750,53.7500,42.6250,-178.1875,0
1776971687.224,9.3733,2.6552,-1.3671,0.0333,-0.0029,0.0258,-96.7500,23.4000,-30.6000,9.8761,-0.9290,-1.7430,-0.0163,0.0402,0.0099,149.5500,1125.0000,-1026.6000,6.4800,0.2700,-7.3500,0.0022,0.0382,-0.0153,-46.3750,-8.0000,56.8750,53.7500,42.6250,-178.1875,0
1776971687.229,9.3733,2.6552,-1.3671,0.0333,-0.0029,0.0258,-96.7500,23.4000,-30.6000,9.8857,-0.8212,-1.8459,-0.0610,0.0354,0.0053,149.2500,1124.5500,-1027.0500,6.4800,0.2700,-7.3500,0.0022,0.0382,-0.0153,-46.0625,-8.0000,55.6875,53.6875,42.6250,-178.1875,0
1776971687.234,9.4236,2.7294,-1.3575,0.0245,-0.0021,0.0139,-96.7500,23.4000,-30.6000,9.8857,-0.8212,-1.8459,-0.0610,0.0354,0.0053,149.2500,1124.5500,-1027.0500,6.6000,0.2300,-7.2800,0.0022,0.0633,-0.0164,-46.0625,-8.0000,55.6875,53.6875,42.6250,-178.1875,0
1776971687.239,9.4236,2.7294,-1.3575,0.0245,-0.0021,0.0139,-96.7500,23.4000,-31.0500,9.8138,-0.7326,-1.8842,-0.0741,0.0189,0.0048,149.2500,1124.5500,-1027.0500,6.6000,0.2300,-7.2800,0.0022,0.0633,-0.0164,-46.0625,-8.0000,55.6875,53.6875,42.6875,-178.1250,0
1776971687.244,9.3805,2.7246,-1.3120,0.0179,0.0024,0.0024,-96.7500,23.4000,-31.0500,9.8138,-0.7326,-1.8842,-0.0741,0.0189,0.0048,149.2500,1124.5500,-1027.0500,6.5900,0.2700,-7.3100,0.0000,0.0753,-0.0164,-46.0625,-8.0000,55.6875,53.6875,42.6875,-178.1250,0
1776971687.249,9.3805,2.7246,-1.3120,0.0179,0.0024,0.0024,-96.7500,23.4000,-31.0500,9.8162,-0.6919,-1.9225,-0.0608,0.0011,0.0035,149.2500,1122.3000,-1026.3000,6.5900,0.2700,-7.3100,-0.0033,0.0840,-0.0164,-46.0625,-8.0000,55.6875,53.6875,42.7500,-178.1250,0
1776971687.254,9.3015,2.7773,-1.3024,0.0234,0.0008,-0.0061,-96.7500,23.4000,-31.0500,9.8162,-0.6919,-1.9225,-0.0608,0.0011,0.0035,149.2500,1122.3000,-1026.3000,6.6000,0.2900,-7.3000,-0.0033,0.0840,-0.0164,-46.0625,-8.0000,55.6875,53.6875,42.7500,-178.1250,0
1776971687.263,9.2991,2.7294,-1.2905,0.0328,0.0021,-0.0165,-95.8500,24.0000,-31.6500,9.7731,-0.6680,-1.9489,-0.0309,-0.0093,0.0131,146.7000,1123.5000,-1028.4000,6.5800,0.2600,-7.2900,-0.0076,0.0927,-0.0109,-46.0625,-8.0000,55.6875,53.6875,42.7500,-178.1250,0
1776971687.268,9.2991,2.7294,-1.2905,0.0328,0.0021,-0.0165,-95.8500,24.0000,-31.6500,9.7659,-0.6536,-2.0973,-0.0032,-0.0266,0.0221,146.7000,1123.8000,-1027.3500,6.5800,0.2600,-7.2900,-0.0098,0.1047,-0.0055,-46.0625,-8.0000,55.6875,53.6875,42.8125,-178.1250,0
1776971687.274,9.2991,2.7246,-1.3072,0.0362,0.0048,-0.0208,-97.5000,22.9500,-30.6000,9.7659,-0.6536,-2.0973,-0.0032,-0.0266,0.0221,148.2000,1123.8000,-1027.6500,6.6200,0.2500,-7.2900,-0.0098,0.1047,-0.0055,-46.0625,-8.0000,55.6875,53.6875,42.8125,-178.1250,0
1776971687.279,9.2967,2.7318,-1.2833,0.0362,0.0048,-0.0208,-97.2000,22.2000,-30.3000,9.6750,-0.6680,-2.0710,0.0192,-0.0373,0.0272,148.2000,1123.8000,-1027.6500,6.6200,0.2500,-7.2900,-0.0120,0.1091,-0.0065,-46.7500,-7.6875,56.8750,53.6875,42.8750,-178.1250,0
1776971687.284,9.2967,2.7318,-1.2833,0.0474,0.0043,-0.0250,-97.2000,22.2000,-30.3000,9.6750,-0.6680,-2.0710,0.0192,-0.0373,0.0272,148.2000,1124.2500,-1027.0500,6.6300,0.2500,-7.2900,-0.0120,0.1091,-0.0065,-46.7500,-7.6875,56.8750,53.6875,42.8750,-178.1250,0
1776971687.289,9.3063,2.6624,-1.3096,0.0474,0.0043,-0.0250,-97.2000,22.2000,-30.3000,9.6486,-0.7590,-2.1500,0.0328,-0.0386,0.0197,148.2000,1124.2500,-1027.0500,6.6300,0.2500,-7.2900,-0.0164,0.1134,-0.0065,-46.7500,-7.6875,56.8750,53.6875,42.9375,-178.1250,0
1776971687.294,9.3063,2.6624,-1.3096,0.0517,0.0008,-0.0314,-96.7500,22.6500,-30.3000,9.6486,-0.7590,-2.1500,0.0381,-0.0453,0.0240,148.2000,1124.2500,-1027.0500,6.6500,0.2300,-7.2500,-0.0164,0.1134,-0.0065,-46.7500,-7.6875,56.8750,53.6875,42.9375,-178.1250,0
1776971687.299,9.2871,2.6049,-1.3527,0.0517,0.0008,-0.0314,-96.7500,22.6500,-30.3000,9.6630,-0.8452,-2.1739,0.0381,-0.0453,0.0240,148.2000,1124.2500,-1027.0500,6.6500,0.2300,-7.2500,-0.0175,0.1254,-0.0109,-46.7500,-7.6875,56.8750,53.6875,43.0000,-178.0625,0
1776971687.304,9.2871,2.6049,-1.3527,0.0538,0.0005,-0.0333,-97.3500,23.5500,-30.4500,9.5361,-0.9768,-2.2601,0.0349,-0.0504,0.0229,148.6500,1122.9000,-1026.4500,6.6500,0.1900,-7.2500,-0.0175,0.1254,-0.0109,-46.7500,-7.6875,56.8750,53.6875,43.0000,-178.0625,0
1776971687.313,9.2727,2.5474,-1.3838,0.0600,0.0024,-0.0338,-97.5000,22.6500,-30.3000,9.5361,-0.9768,-2.2601,0.0349,-0.0504,0.0229,148.6500,1122.9000,-1026.4500,6.6500,0.2400,-7.1900,-0.0207,0.1265,-0.0120,-46.7500,-7.6875,56.8750,53.6875,43.0625,-178.0625,0
1776971687.318,9.2727,2.3894,-1.3695,0.0600,0.0024,-0.0338,-97.5000,22.6500,-30.3000,9.4763,-0.9361,-2.3080,0.0338,-0.0453,0.0189,148.3500,1123.6500,-1027.2000,6.6500,0.2400,-7.1900,-0.0218,0.1265,-0.0142,-46.7500,-7.6875,56.8750,53.6875,43.1250,-178.0625,0
1776971687.324,9.2727,2.3894,-1.3695,0.0549,-0.0013,-0.0330,-97.5000,22.6500,-30.3000,9.4619,-1.0199,-2.2170,0.0173,-0.0258,0.0157,149.4000,1122.4500,-1027.2000,6.6200,0.1900,-7.1900,-0.0218,0.1265,-0.0142,-46.7500,-7.6875,56.8750,53.6875,43.1250,-178.0625,0
1776971687.329,9.3230,2.3391,-1.3671,0.0408,-0.0013,-0.0381,-97.5000,22.6500,-30.3000,9.4619,-1.0199,-2.2170,0.0173,-0.0258,0.0157,149.4000,1122.4500,-1027.2000,6.6600,0.2400,-7.2000,-0.0240,0.1374,-0.0131,-46.0625,-8.0000,56.0625,53.6875,43.2500,-178.0000,0
1776971687.334,9.3230,2.3391,-1.3671,0.0408,-0.0013,-0.0381,-96.0000,23.8500,-30.6000,9.5026,-1.0678,-2.2529,-0.0059,-0.0173,0.0187,148.5000,1123.0500,-1028.8500,6.6600,0.2400,-7.2000,-0.0240,0.1374,-0.0131,-46.0625,-8.0000,56.0625,53.6875,43.2500,-178.0000,0
1776971687.339,9.3398,2.2721,-1.4198,0.0203,-0.0037,-0.0360,-96.0000,23.8500,-30.6000,9.5026,-1.0678,-2.2529,-0.0059,-0.0173,0.0187,148.5000,1123.0500,-1028.8500,6.6600,0.2400,-7.2000,-0.0251,0.1484,-0.0120,-46.0625,-8.0000,56.0625,53.6875,43.3125,-178.0000,0
1776971687.344,9.3398,2.2721,-1.4198,0.0203,-0.0037,-0.0360,-96.0000,23.8500,-30.6000,9.5744,-1.0151,-2.3607,-0.0357,-0.0109,0.0173,148.5000,1124.2500,-1027.3500,6.6900,0.2600,-7.2000,-0.0251,0.1484,-0.0120,-46.0625,-8.0000,56.0625,53.6875,43.3125,-178.0000,0
1776971687.349,9.3709,2.3128,-1.4533,-0.0187,-0.0091,-0.0410,-96.0000,23.8500,-30.6000,9.5744,-1.0151,-2.3607,-0.0357,-0.0109,0.0173,148.5000,1124.2500,-1027.3500,6.6900,0.2600,-7.2000,-0.0251,0.1494,-0.0164,-46.0625,-8.0000,56.0625,53.6875,43.3750,-178.0000,0
1776971687.354,9.3709,2.3128,-1.4533,-0.0187,-0.0091,-0.0410,-97.6500,24.0000,-31.9500,9.4858,-1.0127,-2.3535,-0.0594,-0.0139,0.0211,148.5000,1124.2500,-1027.3500,6.7600,0.2500,-7.1800,-0.0251,0.1494,-0.0164,-46.0625,-8.0000,56.0625,53.6875,43.3750,-178.0000,0
1776971687.363,9.2560,2.2960,-1.4413,-0.0402,-0.0104,-0.0349,-98.2500,22.9500,-31.0500,9.4379,-1.0343,-2.3200,-0.0610,-0.0160,0.0195,149.2500,1122.7500,-1028.4000,6.7900,0.2500,-7.1600,-0.0207,0.1462,-0.0153,-46.0625,-8.0000,56.0625,53.6875,43.4375,-177.9375,0
1776971687.368,9.2225,2.3511,-1.5179,-0.0613,-0.0045,-0.0338,-98.2500,22.9500,-31.0500,9.4379,-1.0343,-2.3200,-0.0610,-0.0160,0.0195,149.2500,1122.7500,-1028.4000,6.7900,0.2500,-7.1600,-0.0218,0.1407,-0.0175,-46.0625,-8.0000,56.0625,53.6875,43.5625,-177.9375,0
1776971687.374,9.2225,2.3511,-1.5179,-0.0613,-0.0045,-0.0338,-96.1500,23.2500,-30.4500,9.3637,-1.0487,-2.3296,-0.0554,-0.0059,0.0277,147.9000,1122.1500,-1026.7500,6.8200,0.2700,-7.1100,-0.0218,0.1407,-0.0175,-46.0625,-8.0000,56.0625,53.6875,43.5625,-177.9375,0
1776971687.379,9.2033,2.3966,-1.4461,-0.0690,-0.0091,-0.0328,-96.1500,23.2500,-30.4500,9.3637,-1.0487,-2.3296,-0.0554,-0.0059,0.0277,147.9000,1122.1500,-1026.7500,6.8200,0.2700,-7.1100,-0.0218,0.1407,-0.0175,-46.3750,-8.0000,56.0625,53.6875,43.6250,-177.9375,0
1776971687.384,9.2033,2.3966,-1.4461,-0.0690,-0.0091,-0.0328,-97.2000,23.4000,-31.0500,9.3518,-1.0223,-2.3822,-0.0554,-0.0128,0.0338,146.1000,1122.4500,-1026.7500,6.8300,0.2800,-7.1000,-0.0196,0.1287,-0.0120,-46.3750,-8.0000,56.0625,53.6875,43.6250,-177.9375,0
1776971687.389,9.1794,2.3798,-1.4485,-0.0719,-0.0109,-0.0309,-97.2000,23.4000,-31.0500,9.3518,-1.0223,-2.3822,-0.0554,-0.0128,0.0338,146.1000,1122.4500,-1026.7500,6.8300,0.2800,-7.1000,-0.0196,0.1287,-0.0120,-46.3750,-8.0000,56.0625,53.6250,43.6875,-177.8750,0
1776971687.394,9.1794,2.3798,-1.4485,-0.0719,-0.0109,-0.0309,-96.3000,22.2000,-29.5500,9.3302,-1.0271,-2.3966,-0.0453,-0.0123,0.0376,149.2500,1122.3000,-1027.6500,6.8400,0.2400,-7.0600,-0.0207,0.1178,-0.0120,-46.3750,-8.0000,56.0625,53.6250,43.6875,-177.8750,0
1776971687.399,9.2177,2.4134,-1.3934,-0.0600,-0.0157,-0.0288,-96.3000,22.2000,-29.5500,9.3302,-1.0271,-2.3966,-0.0453,-0.0123,0.0376,149.2500,1122.3000,-1027.6500,6.8400,0.2400,-7.0600,-0.0185,0.0993,-0.0087,-46.3750,-8.0000,56.0625,53.6875,43.7500,-177.8750,0
1776971687.404,9.2033,2.3487,-1.3862,-0.0600,-0.0157,-0.0288,-97.5000,24.1500,-30.6000,9.3254,-1.0534,-2.3559,-0.0418,-0.0080,0.0344,149.2500,1122.3000,-1027.6500,6.8500,0.2400,-7.0600,-0.0185,0.0993,-0.0087,-46.3750,-8.0000,56.0625,53.6875,43.7500,-177.8750,0
1776971687.413,9.2033,2.3487,-1.3862,-0.0501,-0.0123,-0.0264,-97.5000,24.1500,-30.6000,9.3182,-1.1277,-2.3080,-0.0370,-0.0011,0.0405,149.2500,1122.3000,-1027.6500,6.8700,0.2700,-7.0600,-0.0273,0.0905,-0.0044,-46.3750,-8.0000,56.0625,53.6875,43.8125,-177.8750,0
1776971687.418,9.2081,2.3774,-1.4198,-0.0328,-0.0125,-0.0274,-97.5000,24.1500,-30.6000,9.3182,-1.1277,-2.3080,-0.0370,-0.0011,0.0405,149.2500,1122.3000,-1027.6500,6.8700,0.2700,-7.0600,-0.0371,0.0764,0.0033,-46.3750,-8.0000,56.0625,53.6875,43.8125,-177.8125,0
1776971687.425,9.2368,2.3176,-1.4246,-0.0237,-0.0045,-0.0304,-96.1500,23.5500,-30.1500,9.3925,-1.1732,-2.3032,-0.0384,0.0093,0.0434,148.6500,1122.4500,-1027.5000,6.8800,0.4000,-7.0500,-0.0371,0.0764,0.0033,-46.3750,-8.0000,56.0625,53.6875,43.8125,-177.8125,0
1776971687.430,9.2368,2.3176,-1.4246,-0.0237,-0.0045,-0.0304,-96.1500,23.5500,-30.1500,9.3326,-1.0726,-2.3679,-0.0400,0.0197,0.0400,148.6500,1122.4500,-1027.5000,6.8800,0.4000,-7.0500,-0.0284,0.0589,0.0109,-47.5000,-9.0625,55.2500,53.6875,43.8750,-177.8125,0
1776971687.434,9.2512,2.2793,-1.4054,-0.0258,-0.0008,-0.0221,-96.1500,23.5500,-30.1500,9.3326,-1.0726,-2.3679,-0.0400,0.0197,0.0400,148.3500,1122.4500,-1026.7500,6.8300,0.3000,-7.0600,-0.0284,0.0589,0.0109,-47.5000,-9.0625,55.2500,53.6875,43.8750,-177.8125,0
1776971687.439,9.2512,2.2793,-1.4054,-0.0258,-0.0008,-0.0221,-96.1500,23.5500,-30.1500,9.4020,-1.0487,-2.3703,-0.0544,0.0099,0.0325,148.3500,1122.4500,-1026.7500,6.8300,0.3000,-7.0600,-0.0284,0.0589,0.0109,-47.5000,-9.0625,55.2500,53.6875,43.8750,-177.8125,0
1776971687.444,9.2273,2.3152,-1.3336,-0.0266,-0.0013,-0.0261,-96.1500,23.5500,-30.9000,9.4020,-1.0487,-2.3703,-0.0544,0.0099,0.0325,149.4000,1122.4500,-1027.9500,6.8100,0.2200,-7.0700,-0.0240,0.0480,0.0164,-47.5000,-9.0625,55.2500,53.6875,43.8750,-177.8125,0
1776971687.449,9.2273,2.3152,-1.3336,-0.0266,-0.0013,-0.0261,-96.1500,23.5500,-30.9000,9.4882,-0.9553,-2.3104,-0.0637,0.0109,0.0330,149.4000,1122.4500,-1027.9500,6.8100,0.2200,-7.0700,-0.0207,0.0404,0.0175,-47.5000,-9.0625,55.2500,53.6875,43.9375,-177.8125,0
1776971687.454,9.2584,2.2984,-1.3001,-0.0248,0.0024,-0.0277,-95.4000,22.8000,-30.4500,9.4882,-0.9553,-2.3104,-0.0637,0.0109,0.0330,148.2000,1123.5000,-1028.4000,6.8200,0.2900,-7.0900,-0.0207,0.0404,0.0175,-47.5000,-9.0625,55.2500,53.7500,43.9375,-177.8125,0
1776971687.464,9.2584,2.2601,-1.2617,-0.0402,0.0005,-0.0242,-95.8500,24.7500,-31.2000,9.5122,-0.9457,-2.2625,-0.0592,0.0101,0.0280,148.2000,1123.5000,-1028.4000,6.8000,0.2400,-7.0800,-0.0175,0.0371,0.0164,-47.5000,-9.0625,55.2500,53.7500,43.9375,-177.8125,0
1776971687.472,9.3063,2.3607,-1.3288,-0.0402,0.0005,-0.0242,-96.3000,24.6000,-30.3000,9.4739,-0.8356,-2.2386,-0.0450,0.0149,0.0298,148.2000,1123.5000,-1028.4000,6.8000,0.2400,-7.0900,-0.0142,0.0295,0.0142,-47.5000,-9.0625,55.2500,53.7500,43.9375,-177.8125,0
1776971687.477,9.3063,2.3607,-1.3288,-0.0482,-0.0083,-0.0256,-96.3000,24.6000,-30.3000,9.4739,-0.8356,-2.2386,-0.0450,0.0149,0.0298,148.2000,1123.5000,-1028.4000,6.8000,0.2400,-7.0900,-0.0142,0.0295,0.0142,-47.5000,-9.0625,55.2500,53.7500,43.9375,-177.8125,0
1776971687.482,9.3374,2.4134,-1.3599,-0.0482,-0.0083,-0.0256,-96.3000,24.1500,-31.0500,9.4834,-0.8667,-2.3008,-0.0357,0.0115,0.0304,147.7500,1122.7500,-1028.1000,6.8100,0.2600,-7.1000,-0.0120,0.0284,0.0109,-48.2500,-7.6875,55.2500,53.7500,43.9375,-177.8125,0
1776971687.486,9.3374,2.4134,-1.3599,-0.0605,-0.0099,-0.0304,-96.3000,24.1500,-31.0500,9.4834,-0.8667,-2.3008,-0.0357,0.0115,0.0304,147.7500,1122.7500,-1028.1000,6.8100,0.2600,-7.1000,-0.0120,0.0284,0.0109,-48.2500,-7.6875,55.2500,53.7500,43.9375,-177.8125,0
1776971687.491,9.2871,2.4157,-1.3072,-0.0605,-0.0099,-0.0304,-97.3500,24.0000,-30.1500,9.5529,-0.9625,-2.3272,-0.0245,0.0131,0.0362,148.3500,1123.9500,-1027.9500,6.8000,0.2800,-7.1000,-0.0098,0.0262,0.0065,-48.2500,-7.6875,55.2500,53.7500,44.0000,-177.8125,0
1776971687.496,9.2871,2.4157,-1.3072,-0.0743,-0.0157,-0.0354,-97.3500,24.0000,-30.1500,9.5529,-0.9625,-2.3272,-0.0245,0.0131,0.0362,148.3500,1123.9500,-1027.9500,6.8000,0.2800,-7.1000,-0.0098,0.0262,0.0065,-48.2500,-7.6875,55.2500,53.7500,44.0000,-177.8125,0
1776971687.504,9.3326,2.4636,-1.2905,-0.0714,-0.0141,-0.0336,-97.3500,24.0000,-30.1500,9.4858,-0.9625,-2.3583,-0.0141,0.0144,0.0301,148.8000,1123.8000,-1028.4000,6.7800,0.2600,-7.1200,-0.0076,0.0251,0.0044,-48.2500,-7.6875,55.2500,53.7500,44.0000,-177.8125,0
1776971687.513,9.3039,2.5379,-1.2737,-0.0762,-0.0147,-0.0360,-95.8500,24.4500,-30.1500,9.5313,-0.9816,-2.3391,-0.0141,0.0184,0.0304,149.2500,1122.3000,-1027.3500,6.7900,0.2900,-7.1200,-0.0087,0.0207,0.0022,-48.2500,-7.6875,55.2500,53.7500,44.0000,-177.8125,0
1776971687.518,9.3039,2.5379,-1.2737,-0.0762,-0.0147,-0.0360,-95.8500,24.4500,-30.1500,9.5361,-1.0918,-2.3463,-0.0104,0.0165,0.0312,149.2500,1122.3000,-1027.3500,6.7900,0.2900,-7.1200,-0.0076,0.0229,0.0011,-48.2500,-7.6875,55.2500,53.7500,44.0000,-177.8125,0
1776971687.525,9.2895,2.5786,-1.2665,-0.0895,-0.0096,-0.0368,-95.8500,24.4500,-30.1500,9.5361,-1.0918,-2.3463,-0.0104,0.0165,0.0312,149.2500,1122.3000,-1027.3500,6.8000,0.2600,-7.0800,-0.0076,0.0229,0.0011,-48.2500,-7.6875,55.2500,53.7500,44.0000,-177.8125,0
1776971687.529,9.2847,2.5905,-1.3216,-0.0895,-0.0096,-0.0368,-95.8500,24.4500,-30.1500,9.5074,-1.0870,-2.3439,-0.0213,0.0160,0.0266,149.2500,1122.3000,-1027.3500,6.8000,0.2600,-7.0800,-0.0055,0.0218,0.0000,-48.2500,-8.6875,56.0625,53.7500,44.0000,-177.8125,0
1776971687.535,9.2847,2.5905,-1.3216,-0.0871,-0.0096,-0.0352,-97.2000,23.8500,-31.0500,9.5074,-1.0870,-2.3439,-0.0213,0.0160,0.0266,147.9000,1122.9000,-1028.2500,6.8000,0.2600,-7.0800,-0.0055,0.0218,0.0000,-48.2500,-8.6875,56.0625,53.7500,44.0000,-177.8125,0
1776971687.543,9.2608,2.5881,-1.3264,-0.0815,-0.0048,-0.0336,-96.9000,25.2000,-31.9500,9.5002,-1.0989,-2.2146,-0.0250,0.0226,0.0189,149.4000,1122.4500,-1027.5000,6.7900,0.2200,-7.0500,-0.0044,0.0251,0.0011,-48.2500,-8.6875,56.0625,53.7500,44.0625,-177.8125,0
1776971687.551,9.2536,2.6145,-1.2737,-0.0805,-0.0051,-0.0304,-96.9000,25.2000,-31.9500,9.5361,-1.0774,-2.1644,-0.0352,0.0312,0.0195,148.8000,1123.0500,-1028.4000,6.7800,0.2700,-7.1300,-0.0055,0.0262,-0.0033,-48.2500,-8.6875,56.0625,53.7500,44.0625,-177.8125,0
1776971687.556,9.2536,2.6145,-1.2737,-0.0805,-0.0051,-0.0304,-96.9000,25.2000,-30.9000,9.5792,-1.0415,-2.2386,-0.0365,0.0264,0.0141,148.8000,1123.0500,-1028.4000,6.7800,0.2700,-7.1300,-0.0055,0.0262,-0.0033,-48.2500,-8.6875,56.0625,53.7500,44.0625,-177.8125,0
1776971687.564,9.2799,2.5977,-1.2809,-0.0653,-0.0083,-0.0314,-97.2000,25.0500,-31.0500,9.5792,-1.0415,-2.2386,-0.0365,0.0264,0.0141,148.8000,1123.0500,-1027.6500,6.8200,0.2600,-7.1000,-0.0033,0.0316,-0.0033,-48.2500,-8.6875,56.0625,53.7500,44.0625,-177.8125,0
1776971687.571,9.2823,2.6097,-1.3288,-0.0554,-0.0101,-0.0402,-97.2000,25.0500,-31.0500,9.5840,-1.0199,-2.2458,-0.0389,0.0184,0.0133,148.2000,1123.8000,-1028.4000,6.8300,0.2600,-7.0700,-0.0033,0.0338,-0.0055,-48.2500,-8.6875,56.0625,53.7500,44.0625,-177.8125,0
1776971687.575,9.2823,2.6097,-1.3288,-0.0554,-0.0101,-0.0402,-95.5500,24.1500,-31.0500,9.5361,-0.9385,-2.2817,-0.0408,0.0133,0.0128,148.2000,1123.8000,-1028.4000,6.8300,0.2600,-7.0700,-0.0033,0.0338,-0.0055,-48.2500,-8.6875,56.0625,53.7500,44.0625,-177.8125,0
1776971687.580,9.3254,2.6049,-1.3503,-0.0557,-0.0136,-0.0322,-95.5500,24.1500,-31.0500,9.5361,-0.9385,-2.2817,-0.0408,0.0133,0.0128,148.2000,1123.8000,-1028.4000,6.8300,0.3000,-7.0900,-0.0033,0.0284,-0.0033,-47.0625,-8.3750,54.8750,53.7500,44.1250,-177.8125,0
1776971687.585,9.3254,2.6049,-1.3503,-0.0557,-0.0136,-0.0322,-96.0000,24.1500,-31.3500,9.5361,-1.0439,-2.3008,-0.0437,0.0088,0.0109,148.2000,1123.8000,-1028.4000,6.8300,0.3000,-7.0900,-0.0033,0.0284,-0.0033,-47.0625,-8.3750,54.8750,53.7500,44.1250,-177.8125,0
1776971687.590,9.3254,2.6360,-1.3671,-0.0586,-0.0051,-0.0349,-96.0000,24.1500,-31.3500,9.5361,-1.0439,-2.3008,-0.0437,0.0088,0.0109,147.6000,1121.7000,-1028.2500,6.8300,0.3000,-7.0900,-0.0033,0.0284,-0.0033,-47.0625,-8.3750,54.8750,53.7500,44.1250,-177.8125,0
1776971687.595,9.3254,2.6360,-1.3671,-0.0586,-0.0051,-0.0349,-96.0000,24.1500,-31.3500,9.5409,-1.0151,-2.3679,-0.0365,0.0096,0.0139,147.6000,1121.7000,-1028.2500,6.8300,0.2800,-7.0700,-0.0033,0.0284,-0.0033,-47.0625,-8.3750,54.8750,53.7500,44.1250,-177.8125,0
1776971687.600,9.2895,2.5690,-1.2881,-0.0658,-0.0091,-0.0336,-96.0000,24.1500,-31.3500,9.5409,-1.0151,-2.3679,-0.0365,0.0096,0.0139,147.4500,1122.3000,-1028.1000,6.8300,0.2800,-7.0700,-0.0022,0.0284,0.0044,-47.0625,-8.3750,54.8750,53.7500,44.1250,-177.8125,0
1776971687.605,9.2895,2.5690,-1.2881,-0.0658,-0.0091,-0.0336,-96.7500,23.4000,-31.3500,9.4930,-1.0654,-2.3894,-0.0357,0.0139,0.0125,147.4500,1122.3000,-1028.1000,6.8500,0.2800,-7.1100,-0.0022,0.0284,0.0044,-47.0625,-8.3750,54.8750,53.7500,44.1250,-177.8125,0
1776971687.614,9.2727,2.5594,-1.3408,-0.0655,-0.0093,-0.0349,-96.7500,23.4000,-31.3500,9.3709,-1.0415,-2.4086,-0.0392,0.0157,0.0109,148.8000,1122.3000,-1028.4000,6.8500,0.2500,-7.0600,0.0000,0.0164,0.0076,-47.0625,-8.3750,54.8750,53.7500,44.1250,-177.8125,0
1776971687.622,9.2560,2.5426,-1.2641,-0.0661,-0.0112,-0.0250,-96.0000,22.6500,-31.3500,9.3709,-1.0415,-2.4086,-0.0392,0.0157,0.0109,148.6500,1122.9000,-1028.5500,6.8400,0.2100,-7.0500,0.0000,0.0142,0.0087,-47.0625,-8.3750,54.8750,53.7500,44.1250,-177.8125,0
1776971687.627,9.2727,2.5139,-1.2617,-0.0709,-0.0136,-0.0197,-96.0000,22.6500,-30.3000,9.3877,-0.9936,-2.3798,-0.0333,0.0187,0.0069,148.6500,1122.9000,-1028.5500,6.8400,0.2100,-7.0500,0.0000,0.0142,0.0087,-47.0625,-8.3750,54.8750,53.7500,44.1250,-177.8125,0
1776971687.632,9.2727,2.5139,-1.2617,-0.0709,-0.0136,-0.0197,-96.0000,22.6500,-30.3000,9.3877,-0.9936,-2.3798,-0.0333,0.0187,0.0069,148.8000,1121.2500,-1028.8500,6.8400,0.2200,-7.0700,-0.0011,0.0098,0.0098,-48.5625,-8.3750,55.2500,53.7500,44.1250,-177.8125,0
1776971687.637,9.2632,2.5881,-1.3240,-0.0695,-0.0187,-0.0115,-96.3000,24.1500,-31.8000,9.4595,-1.0247,-2.4062,-0.0298,0.0213,0.0029,148.8000,1121.2500,-1028.8500,6.8400,0.2200,-7.0700,-0.0011,0.0098,0.0098,-48.5625,-8.3750,55.2500,53.7500,44.1250,-177.8125,0
1776971687.644,9.3350,2.5881,-1.3168,-0.0695,-0.0187,-0.0115,-95.5500,25.0500,-31.0500,9.4810,-1.0558,-2.4229,-0.0309,0.0293,0.0104,148.8000,1121.2500,-1028.8500,6.8400,0.2500,-7.0400,-0.0044,0.0076,0.0076,-48.5625,-8.3750,55.2500,53.7500,44.1250,-177.8125,0
1776971687.654,9.3565,2.5522,-1.3455,-0.0663,-0.0269,-0.0141,-97.9500,24.1500,-31.3500,9.4978,-1.0798,-2.4517,-0.0266,0.0346,0.0115,147.6000,1123.6500,-1028.2500,6.8500,0.3000,-7.1000,-0.0055,0.0044,0.0065,-48.5625,-8.3750,55.2500,53.7500,44.1250,-177.8125,0
1776971687.661,9.3565,2.5522,-1.3455,-0.0648,-0.0309,-0.0016,-97.9500,24.1500,-31.3500,9.4978,-1.0798,-2.4517,-0.0266,0.0346,0.0115,150.1500,1123.6500,-1027.9500,6.8500,0.2900,-7.0700,-0.0044,0.0011,0.0076,-48.5625,-8.3750,55.2500,53.7500,44.1250,-177.8125,0
1776971687.666,9.3302,2.5259,-1.3216,-0.0650,-0.0226,0.0021,-96.6000,24.7500,-30.4500,9.4619,-1.1444,-2.4373,-0.0306,0.0445,0.0096,150.1500,1123.6500,-1027.9500,6.8500,0.2900,-7.0700,-0.0044,0.0011,0.0076,-48.5625,-8.3750,55.2500,53.7500,44.1250,-177.8125,0
1776971687.674,9.4236,2.6600,-1.3575,-0.0725,-0.0200,0.0096,-96.1500,24.0000,-31.9500,9.4523,-1.1660,-2.4612,-0.0320,0.0466,0.0053,148.2000,1122.3000,-1028.1000,6.8400,0.2600,-7.0700,-0.0044,-0.0033,0.0087,-48.5625,-8.3750,55.2500,53.7500,44.1250,-177.8125,0
1776971687.679,9.4236,2.6600,-1.3575,-0.0725,-0.0200,0.0096,-96.1500,24.0000,-31.9500,9.4523,-1.1660,-2.4612,-0.0320,0.0466,0.0053,149.1000,1122.9000,-1027.9500,6.8400,0.2600,-7.0700,-0.0065,-0.0076,0.0087,-47.5000,-8.0000,55.2500,53.7500,44.1250,-177.8125,0
1776971687.685,9.3613,2.5498,-1.3240,-0.0749,-0.0101,0.0179,-96.1500,24.0000,-31.9500,9.4379,-1.1277,-2.4014,-0.0354,0.0456,-0.0027,149.1000,1122.9000,-1027.9500,6.8600,0.2600,-7.0700,-0.0065,-0.0076,0.0087,-47.5000,-8.0000,55.2500,53.7500,44.1250,-177.8125,0
1776971687.694,9.2536,2.5786,-1.3910,-0.0695,-0.0059,0.0285,-96.6000,23.2500,-30.9000,9.4595,-1.0894,-2.4445,-0.0304,0.0509,-0.0029,148.2000,1122.3000,-1028.1000,6.8700,0.2600,-7.0500,-0.0065,-0.0109,0.0109,-47.5000,-8.0000,55.2500,53.7500,44.1250,-177.8125,0
1776971687.701,9.2536,2.5786,-1.3910,-0.0695,-0.0059,0.0285,-96.6000,23.2500,-30.9000,9.3661,-1.0032,-2.3966,-0.0410,0.0480,-0.0101,148.2000,1122.3000,-1028.1000,6.8600,0.2500,-7.0700,-0.0065,-0.0207,0.0142,-47.5000,-8.0000,55.2500,53.7500,44.1250,-177.8125,0
1776971687.705,9.2871,2.5642,-1.3431,-0.0655,-0.0088,0.0389,-96.6000,23.2500,-30.9000,9.3661,-1.0032,-2.3966,-0.0410,0.0480,-0.0101,148.2000,1122.3000,-1028.1000,6.8600,0.2500,-7.0700,-0.0065,-0.0207,0.0142,-47.5000,-8.0000,55.2500,53.7500,44.1250,-177.8125,0
1776971687.714,9.2201,2.5666,-1.3934,-0.0648,-0.0077,0.0432,-95.8500,24.4500,-29.4000,9.3901,-1.0463,-2.3559,-0.0360,0.0613,-0.0096,147.6000,1122.4500,-1027.2000,6.8500,0.2600,-7.0900,-0.0076,-0.0251,0.0131,-47.5000,-8.0000,55.2500,53.7500,44.1250,-177.8125,0
1776971687.722,9.2081,2.5690,-1.4006,-0.0626,-0.0104,0.0493,-95.8500,24.4500,-29.4000,9.4188,-0.9529,-2.3559,-0.0304,0.0640,-0.0088,146.8500,1122.1500,-1028.5500,6.8300,0.2800,-7.0800,-0.0044,-0.0360,0.0109,-47.5000,-8.0000,55.2500,53.7500,44.1250,-177.8125,0
1776971687.727,9.2081,2.5690,-1.4006,-0.0626,-0.0104,0.0493,-97.2000,24.6000,-30.6000,9.4188,-0.9529,-2.3559,-0.0304,0.0640,-0.0088,147.3000,1122.1500,-1028.2500,6.8300,0.2800,-7.0800,-0.0044,-0.0360,0.0109,-47.5000,-8.0000,55.2500,53.7500,44.1250,-177.8125,0
1776971687.732,9.2584,2.5067,-1.4964,-0.0679,-0.0117,0.0472,-97.2000,24.6000,-30.6000,9.5217,-0.9912,-2.3535,-0.0330,0.0693,-0.0128,147.3000,1122.1500,-1028.2500,6.8300,0.2900,-7.0900,-0.0022,-0.0447,0.0109,-47.8750,-8.3750,55.6875,53.7500,44.0625,-177.8125,0
1776971687.737,9.2584,2.5067,-1.4964,-0.0679,-0.0117,0.0472,-96.7500,23.8500,-29.5500,9.5217,-0.9912,-2.3535,-0.0330,0.0693,-0.0128,147.7500,1122.0000,-1027.6500,6.8300,0.2900,-7.0900,-0.0022,-0.0447,0.0109,-47.8750,-8.3750,55.6875,53.7500,44.0625,-177.8125,0
1776971687.742,9.2153,2.4876,-1.4485,-0.0773,-0.0133,0.0480,-96.7500,23.8500,-29.5500,9.4786,-0.9888,-2.4038,-0.0320,0.0714,-0.0075,147.7500,1122.0000,-1027.6500,6.8400,0.2700,-7.0600,0.0000,-0.0469,0.0109,-47.8750,-8.3750,55.6875,53.7500,44.0625,-177.8750,0
1776971687.747,9.2153,2.4876,-1.4485,-0.0773,-0.0133,0.0480,-96.0000,24.6000,-31.3500,9.4786,-0.9888,-2.4038,-0.0320,0.0714,-0.0075,149.1000,1122.1500,-1028.2500,6.8400,0.2700,-7.0600,0.0000,-0.0469,0.0109,-47.8750,-8.3750,55.6875,53.7500,44.0625,-177.8750,0
1776971687.754,9.2057,2.5235,-1.4054,-0.0810,-0.0064,0.0490,-96.1500,24.7500,-30.4500,9.5170,-0.9625,-2.3679,-0.0301,0.0727,-0.0080,149.1000,1122.1500,-1028.2500,6.8100,0.2400,-7.1000,-0.0022,-0.0524,0.0098,-47.8750,-8.3750,55.6875,53.7500,44.0000,-177.8750,0
1776971687.759,9.1770,2.5498,-1.4269,-0.0810,-0.0064,0.0490,-96.1500,24.7500,-30.4500,9.5122,-0.9050,-2.2697,-0.0213,0.0786,-0.0035,149.1000,1122.1500,-1028.2500,6.8100,0.2400,-7.1000,0.0044,-0.0589,0.0087,-47.8750,-8.3750,55.6875,53.8125,44.0000,-177.8750,0
1776971687.765,9.1770,2.5498,-1.4269,-0.0871,-0.0163,0.0461,-95.1000,24.4500,-31.2000,9.5122,-0.9050,-2.2697,-0.0213,0.0786,-0.0035,149.1000,1122.1500,-1028.2500,6.8100,0.2400,-7.0900,0.0044,-0.0589,0.0087,-47.8750,-8.3750,55.6875,53.8125,44.0000,-177.8750,0
1776971687.774,9.2320,2.5450,-1.3695,-0.0919,-0.0184,0.0485,-95.1000,24.4500,-31.2000,9.4691,-0.9002,-2.2936,-0.0261,0.0727,-0.0051,148.3500,1121.4000,-1029.3000,6.8200,0.2400,-7.0800,0.0022,-0.0578,0.0076,-47.8750,-8.3750,55.6875,53.8125,43.9375,-177.8750,0
1776971687.779,9.2201,2.6312,-1.4365,-0.0919,-0.0184,0.0485,-95.1000,24.4500,-31.2000,9.5193,-0.8787,-2.2721,-0.0282,0.0762,-0.0043,147.3000,1121.7000,-1029.0000,6.8200,0.2400,-7.0800,0.0022,-0.0578,0.0076,-47.8750,-8.3750,55.6875,53.8125,43.9375,-177.8750,0
1776971687.784,9.2201,2.6312,-1.4365,-0.0909,-0.0221,0.0448,-97.3500,25.5000,-30.9000,9.5193,-0.8787,-2.2721,-0.0282,0.0762,-0.0043,147.3000,1121.7000,-1029.0000,6.7600,0.2200,-7.1000,0.0044,-0.0644,0.0022,-47.8750,-8.0000,54.5625,53.8125,43.9375,-177.8750,0
1776971687.789,9.2105,2.6432,-1.4150,-0.0909,-0.0221,0.0448,-97.3500,25.5000,-30.9000,9.5816,-0.8978,-2.2362,-0.0253,0.0738,-0.0016,147.3000,1123.9500,-1028.2500,6.7600,0.2200,-7.1000,0.0044,-0.0644,0.0022,-47.8750,-8.0000,54.5625,53.8125,43.8750,-177.8750,0
1776971687.794,9.2105,2.6432,-1.4150,-0.0962,-0.0240,0.0402,-97.3500,25.5000,-30.9000,9.5816,-0.8978,-2.2362,-0.0253,0.0738,-0.0016,147.3000,1123.9500,-1028.2500,6.7500,0.2400,-7.1300,0.0055,-0.0622,0.0011,-47.8750,-8.0000,54.5625,53.8125,43.8750,-177.8750,0
1776971687.799,9.2703,2.6217,-1.3695,-0.0949,-0.0282,0.0386,-97.3500,25.5000,-30.9000,9.6630,-0.8332,-2.1955,-0.0288,0.0754,-0.0021,147.6000,1123.9500,-1028.5500,6.7500,0.2400,-7.1300,0.0044,-0.0611,-0.0022,-47.8750,-8.0000,54.5625,53.8125,43.8750,-177.8750,0
1776971687.805,9.2703,2.6217,-1.3695,-0.0949,-0.0282,0.0386,-96.1500,25.5000,-30.4500,9.6630,-0.8332,-2.1955,-0.0288,0.0754,-0.0021,147.3000,1120.9500,-1028.2500,6.7400,0.2200,-7.1300,0.0044,-0.0611,-0.0022,-47.8750,-8.0000,54.5625,53.8125,43.8750,-177.8750,0
1776971687.814,9.3518,2.6887,-1.3623,-0.0986,-0.0277,0.0277,-96.1500,25.5000,-30.4500,9.6678,-0.8499,-2.1524,-0.0373,0.0773,-0.0037,147.3000,1120.9500,-1028.2500,6.7400,0.2100,-7.1500,0.0033,-0.0535,-0.0065,-47.8750,-8.0000,54.5625,53.8125,43.8125,-177.8750,0
1776971687.819,9.3015,2.6671,-1.3408,-0.0967,-0.0256,0.0293,-96.9000,24.7500,-31.2000,9.6989,-0.9218,-2.0949,-0.0458,0.0751,-0.0019,147.3000,1120.9500,-1028.2500,6.7400,0.2100,-7.1500,0.0000,-0.0436,-0.0076,-47.8750,-8.0000,54.5625,53.8125,43.8125,-177.8750,0
1776971687.825,9.3015,2.6671,-1.3408,-0.0967,-0.0256,0.0293,-97.3500,25.5000,-31.2000,9.6989,-0.9218,-2.0949,-0.0458,0.0751,-0.0019,147.4500,1123.0500,-1028.8500,6.7300,0.2600,-7.1700,0.0000,-0.0436,-0.0076,-47.8750,-8.0000,54.5625,53.8125,43.8125,-177.8750,0
1776971687.830,9.3685,2.6863,-1.4078,-0.1005,-0.0226,0.0306,-97.3500,25.5000,-31.2000,9.7420,-0.8906,-2.1189,-0.0456,0.0719,-0.0045,147.4500,1123.0500,-1028.8500,6.7300,0.2600,-7.1700,-0.0022,-0.0338,-0.0055,-47.5000,-8.6875,54.8750,53.8125,43.7500,-177.8750,0
1776971687.835,9.3685,2.6863,-1.4078,-0.1005,-0.0226,0.0306,-96.9000,24.0000,-31.6500,9.7420,-0.8906,-2.1189,-0.0456,0.0719,-0.0045,146.7000,1123.8000,-1027.0500,6.7300,0.2600,-7.1600,-0.0022,-0.0338,-0.0055,-47.5000,-8.6875,54.8750,53.8125,43.7500,-177.8750,0
1776971687.840,9.3111,2.7533,-1.3551,-0.1058,-0.0261,0.0203,-96.9000,24.0000,-31.6500,9.6917,-0.8667,-2.1596,-0.0402,0.0629,-0.0019,146.7000,1123.8000,-1027.0500,6.7300,0.2600,-7.1600,-0.0022,-0.0338,-0.0055,-47.5000,-8.6875,54.8750,53.8125,43.7500,-177.8750,0
1776971687.845,9.3111,2.7533,-1.3551,-0.1058,-0.0261,0.0203,-96.3000,23.8500,-31.0500,9.6917,-0.8667,-2.1596,-0.0402,0.0629,-0.0019,148.8000,1123.0500,-1028.4000,6.7200,0.2700,-7.1400,-0.0011,-0.0229,-0.0076,-47.5000,-8.6875,54.8750,53.8125,43.7500,-177.8750,0
1776971687.850,9.2823,2.7318,-1.3934,-0.1047,-0.0253,0.0120,-96.3000,23.8500,-31.0500,9.6438,-0.8619,-2.1117,-0.0389,0.0530,-0.0011,148.8000,1123.0500,-1028.4000,6.7200,0.2700,-7.1400,-0.0022,-0.0164,-0.0065,-47.5000,-8.6875,54.8750,53.8125,43.7500,-177.8750,0
1776971687.855,9.2703,2.7222,-1.3695,-0.1047,-0.0253,0.0120,-95.5500,24.6000,-31.0500,9.6414,-0.8739,-2.1332,-0.0312,0.0514,-0.0024,148.5000,1122.3000,-1027.0500,6.7300,0.2400,-7.1800,-0.0022,-0.0164,-0.0065,-47.5000,-8.6875,54.8750,53.8125,43.7500,-177.8750,0
1776971687.864,9.2703,2.7222,-1.3695,-0.0975,-0.0261,0.0096,-95.5500,24.6000,-31.0500,9.6414,-0.8739,-2.1332,-0.0312,0.0514,-0.0024,147.7500,1122.3000,-1027.6500,6.7300,0.2700,-7.1700,-0.0055,-0.0044,-0.0055,-47.5000,-8.6875,54.8750,53.8125,43.7500,-177.8750,0
1776971687.872,9.2680,2.6983,-1.3336,-0.0970,-0.0221,0.0048,-95.5500,24.6000,-31.0500,9.5792,-0.9122,-2.1548,-0.0269,0.0490,0.0040,147.7500,1122.3000,-1027.6500,6.7500,0.2600,-7.1600,-0.0044,0.0044,-0.0065,-47.5000,-8.6875,54.8750,53.8125,43.7500,-177.8750,0
1776971687.877,9.2033,2.6959,-1.3288,-0.0959,-0.0253,0.0061,-96.3000,25.3500,-31.3500,9.5912,-0.9098,-2.1763,-0.0280,0.0525,0.0000,147.7500,1122.3000,-1027.6500,6.7500,0.2600,-7.1600,-0.0044,0.0044,-0.0065,-47.5000,-8.6875,54.8750,53.8125,43.7500,-177.8750,0
1776971687.882,9.2033,2.6959,-1.3288,-0.0959,-0.0253,0.0061,-96.3000,25.3500,-31.3500,9.5912,-0.9098,-2.1763,-0.0280,0.0525,0.0000,147.7500,1122.3000,-1027.6500,6.7700,0.2700,-7.1300,-0.0044,0.0055,-0.0055,-47.5000,-7.6875,55.6875,53.8125,43.7500,-177.8750,0
1776971687.887,9.2344,2.6815,-1.3791,-0.0943,-0.0218,0.0069,-96.3000,25.3500,-31.3500,9.5553,-0.9242,-2.1955,-0.0256,0.0485,0.0005,148.6500,1122.9000,-1027.2000,6.7700,0.2700,-7.1300,-0.0044,0.0055,-0.0055,-47.5000,-7.6875,55.6875,53.8125,43.7500,-177.8750,0
1776971687.895,9.2273,2.6600,-1.3072,-0.0943,-0.0218,0.0069,-96.1500,26.4000,-29.4000,9.5289,-0.9864,-2.2290,-0.0288,0.0456,0.0059,147.6000,1122.1500,-1027.5000,6.7700,0.2400,-7.1200,-0.0065,0.0055,-0.0076,-47.5000,-7.6875,55.6875,53.8125,43.7500,-177.8750,0
1776971687.904,9.2751,2.6145,-1.3671,-0.0837,-0.0274,-0.0011,-96.1500,26.4000,-29.4000,9.4715,-1.0032,-2.1811,-0.0264,0.0501,0.0011,147.7500,1123.0500,-1026.6000,6.7900,0.2600,-7.1300,-0.0055,0.0055,-0.0076,-47.5000,-7.6875,55.6875,53.8125,43.7500,-177.8750,0
1776971687.912,9.2751,2.6145,-1.3671,-0.0869,-0.0304,-0.0016,-96.1500,24.4500,-31.6500,9.4715,-1.0032,-2.1811,-0.0264,0.0501,0.0011,147.7500,1123.0500,-1026.6000,6.7600,0.2500,-7.1600,-0.0055,0.0065,-0.0076,-47.5000,-7.6875,55.6875,53.8125,43.7500,-177.8750,0
1776971687.917,9.1722,2.5786,-1.3910,-0.0869,-0.0352,0.0000,-94.6500,26.4000,-31.2000,9.5457,-1.0558,-2.1739,-0.0282,0.0501,0.0045,148.3500,1121.4000,-1029.3000,6.7600,0.2500,-7.1600,-0.0055,0.0065,-0.0076,-47.5000,-7.6875,55.6875,53.8125,43.7500,-177.8750,0
1776971687.925,9.1961,2.6073,-1.2761,-0.0909,-0.0272,0.0027,-94.6500,26.4000,-31.2000,9.5002,-1.0127,-2.2458,-0.0392,0.0522,0.0067,148.3500,1121.4000,-1029.3000,6.8000,0.2500,-7.1200,-0.0065,0.0131,-0.0087,-47.5000,-7.6875,55.6875,53.8125,43.7500,-177.8750,0
1776971687.930,9.1961,2.6073,-1.2761,-0.0909,-0.0272,0.0027,-96.9000,25.2000,-30.4500,9.5002,-1.0127,-2.2458,-0.0392,0.0522,0.0067,148.3500,1121.4000,-1029.3000,6.8000,0.2500,-7.1200,-0.0065,0.0087,-0.0087,-47.8750,-7.6875,55.2500,53.8125,43.7500,-177.8750,0
1776971687.935,9.2440,2.5642,-1.3144,-0.0919,-0.0261,0.0056,-95.2500,25.3500,-31.8000,9.4188,-1.0271,-2.1691,-0.0381,0.0504,-0.0008,148.3500,1121.4000,-1029.3000,6.7800,0.2500,-7.1000,-0.0065,0.0087,-0.0087,-47.8750,-7.6875,55.2500,53.8125,43.7500,-177.8750,0
1776971687.945,9.2368,2.6169,-1.2857,-0.0815,-0.0216,0.0067,-95.2500,25.3500,-31.8000,9.4954,-1.0439,-2.1883,-0.0349,0.0493,-0.0037,147.0000,1123.0500,-1027.6500,6.8000,0.2500,-7.0900,-0.0055,0.0065,-0.0087,-47.8750,-7.6875,55.2500,53.8125,43.7500,-177.8750,0
1776971687.954,9.2368,2.5809,-1.2953,-0.0711,-0.0293,0.0093,-95.2500,24.6000,-31.3500,9.4786,-0.9888,-2.2697,-0.0301,0.0405,-0.0027,147.3000,1123.2000,-1027.5000,6.8000,0.2800,-7.1200,-0.0033,0.0022,-0.0098,-47.8750,-7.6875,55.2500,53.8125,43.7500,-177.8750,0
1776971687.964,9.2656,2.6312,-1.2186,-0.0637,-0.0288,0.0131,-95.2500,24.6000,-31.3500,9.4523,-1.0319,-2.2721,-0.0237,0.0437,0.0005,148.6500,1120.9500,-1027.2000,6.8100,0.3000,-7.0800,-0.0033,-0.0076,-0.0065,-47.8750,-7.6875,55.2500,53.8125,43.7500,-177.8750,0
1776971687.973,9.2703,2.5953,-1.2186,-0.0557,-0.0341,0.0192,-96.6000,24.0000,-30.1500,9.4236,-1.0678,-2.3080,-0.0189,0.0466,-0.0043,146.1000,1122.9000,-1026.7500,6.8300,0.2900,-7.0900,0.0011,-0.0142,-0.0055,-47.8750,-7.6875,55.2500,53.8125,43.7500,-177.8750,0
1776971687.978,9.2703,2.5953,-1.2186,-0.0557,-0.0341,0.0192,-96.6000,24.0000,-30.1500,9.4236,-1.0678,-2.3080,-0.0189,0.0466,-0.0043,146.1000,1122.9000,-1026.7500,6.8300,0.2900,-7.0900,0.0011,-0.0142,-0.0055,-47.8750,-7.6875,55.2500,53.8125,43.7500,-177.8750,0
1776971687.983,9.2656,2.5474,-1.1851,-0.0464,-0.0234,0.0346,-96.6000,24.0000,-30.1500,9.3901,-1.0846,-2.2338,-0.0187,0.0424,-0.0085,146.1000,1122.9000,-1026.7500,6.8300,0.3000,-7.1000,0.0000,-0.0262,-0.0044,-47.5000,-8.0000,56.0625,53.8125,43.7500,-177.8750,0
1776971687.988,9.2656,2.5474,-1.1851,-0.0464,-0.0234,0.0346,-95.5500,25.0500,-31.8000,9.3901,-1.0846,-2.2338,-0.0187,0.0424,-0.0085,146.1000,1122.9000,-1026.7500,6.8300,0.3000,-7.1000,0.0000,-0.0262,-0.0044,-47.5000,-8.0000,56.0625,53.8125,43.7500,-177.8750,0
1776971687.993,9.2153,2.5283,-1.2330,-0.0365,-0.0250,0.0322,-95.5500,25.0500,-31.8000,9.4044,-1.0798,-2.3391,-0.0229,0.0429,-0.0032,146.1000,1122.9000,-1026.7500,6.8500,0.2700,-7.0800,0.0000,-0.0327,-0.0022,-47.5000,-8.0000,56.0625,53.8125,43.6875,-177.8750,0
1776971687.997,9.2153,2.5283,-1.2330,-0.0365,-0.0250,0.0322,-95.4000,24.7500,-30.9000,9.4044,-1.0798,-2.3391,-0.0229,0.0429,-0.0032,146.1000,1122.9000,-1026.7500,6.8500,0.2700,-7.0800,0.0000,-0.0327,-0.0022,-47.5000,-8.0000,56.0625,53.8125,43.6875,-177.8750,0
1776971688.005,9.1985,2.5570,-1.2067,-0.0336,-0.0152,0.0378,-95.4000,24.7500,-30.9000,9.3182,-1.0702,-2.2601,-0.0216,0.0368,-0.0104,148.3500,1121.7000,-1027.9500,6.8400,0.2700,-7.1200,0.0055,-0.0436,0.0011,-47.5000,-8.0000,56.0625,53.8125,43.6250,-177.8750,0
1776971688.015,9.1028,2.6073,-1.2258,-0.0205,-0.0112,0.0453,-95.8500,24.7500,-30.4500,9.3350,-1.1037,-2.2194,-0.0197,0.0464,-0.0085,148.2000,1122.7500,-1026.6000,6.8700,0.2700,-7.1300,0.0076,-0.0600,0.0011,-47.5000,-8.0000,56.0625,53.8125,43.6250,-177.8750,0
1776971688.023,9.1530,2.5570,-1.2139,-0.0029,-0.0048,0.0461,-95.8500,24.7500,-30.9000,9.3709,-1.0726,-2.2098,-0.0141,0.0509,-0.0125,147.3000,1122.4500,-1027.5000,6.8400,0.3100,-7.0800,0.0098,-0.0742,0.0055,-47.5000,-8.0000,56.0625,53.8125,43.6250,-177.8750,0
1776971688.028,9.1530,2.5570,-1.2139,-0.0029,-0.0048,0.0461,-96.0000,25.3500,-31.3500,9.3709,-1.0726,-2.2098,-0.0141,0.0509,-0.0125,147.3000,1122.4500,-1027.5000,6.8400,0.3100,-7.0800,0.0098,-0.0742,0.0055,-47.5000,-8.0000,56.0625,53.8125,43.6250,-177.8750,0
1776971688.032,9.1099,2.6145,-1.2498,0.0107,-0.0016,0.0533,-96.0000,25.3500,-31.3500,9.3350,-1.1277,-2.2194,-0.0144,0.0549,-0.0080,147.4500,1123.0500,-1027.6500,6.8400,0.2700,-7.0900,0.0131,-0.0916,0.0087,-47.5000,-8.0000,55.6875,53.8125,43.5625,-177.8750,0
1776971688.037,9.1099,2.6145,-1.2498,0.0107,-0.0016,0.0533,-95.4000,25.9500,-31.9500,9.3350,-1.1277,-2.2194,-0.0144,0.0549,-0.0080,147.4500,1123.0500,-1027.6500,6.8400,0.2700,-7.0900,0.0131,-0.0916,0.0087,-47.5000,-8.0000,55.6875,53.8125,43.5625,-177.8750,0
1776971688.042,9.1099,2.5522,-1.2330,0.0208,0.0003,0.0509,-95.4000,25.9500,-31.9500,9.3661,-1.0726,-2.2505,-0.0083,0.0549,-0.0045,147.4500,1123.0500,-1027.6500,6.8500,0.3100,-7.0900,0.0164,-0.1047,0.0087,-47.5000,-8.0000,55.6875,53.8125,43.5000,-177.8750,0
1776971688.047,9.1099,2.5522,-1.2330,0.0208,0.0003,0.0509,-95.4000,25.9500,-31.9500,9.3661,-1.0726,-2.2505,-0.0083,0.0549,-0.0045,147.4500,1123.0500,-1027.6500,6.8500,0.3100,-7.0900,0.0164,-0.1047,0.0087,-47.5000,-8.0000,55.6875,53.8125,43.5000,-177.8750,0
1776971688.054,9.1243,2.4900,-1.2929,0.0301,0.0147,0.0584,-95.4000,25.9500,-31.9500,9.3877,-1.1923,-2.1835,-0.0048,0.0530,-0.0080,148.6500,1121.4000,-1027.9500,6.8300,0.2700,-7.1200,0.0207,-0.1254,0.0153,-47.5000,-8.0000,55.6875,53.8125,43.4375,-177.9375,0
1776971688.061,9.1411,2.4684,-1.3958,0.0296,0.0173,0.0581,-96.7500,23.8500,-30.3000,9.3470,-1.2186,-2.1787,-0.0109,0.0472,-0.0051,148.3500,1122.4500,-1028.2500,6.8100,0.2900,-7.1500,0.0229,-0.1385,0.0164,-47.5000,-8.0000,55.6875,53.8125,43.3750,-177.9375,0
1776971688.066,9.1411,2.4684,-1.3958,0.0296,0.0173,0.0581,-96.7500,23.8500,-30.3000,9.3470,-1.2186,-2.1787,-0.0109,0.0472,-0.0051,148.3500,1122.4500,-1028.2500,6.8100,0.2900,-7.1500,0.0229,-0.1385,0.0164,-47.5000,-8.0000,55.6875,53.8125,43.2500,-177.9375,0
1776971688.075,9.1123,2.4900,-1.3671,0.0208,0.0306,0.0629,-96.7500,23.8500,-30.3000,9.4188,-1.1349,-2.1955,-0.0101,0.0440,-0.0048,147.7500,1120.8000,-1027.0500,6.8100,0.3000,-7.1400,0.0240,-0.1549,0.0207,-47.5000,-8.0000,55.6875,53.8125,43.2500,-177.9375,0
1776971688.080,9.1339,2.3918,-1.4006,-0.0027,0.0261,0.0658,-95.1000,23.5500,-30.9000,9.4523,-1.0989,-2.1308,-0.0088,0.0456,-0.0016,149.1000,1122.1500,-1027.5000,6.8100,0.3000,-7.1400,0.0240,-0.1549,0.0207,-46.7500,-8.3750,56.5000,53.8125,43.1875,-178.0000,0
1776971688.085,9.1339,2.3918,-1.4006,-0.0027,0.0261,0.0658,-95.1000,23.5500,-30.9000,9.4523,-1.0989,-2.1308,-0.0088,0.0456,-0.0016,149.1000,1122.1500,-1027.5000,6.7800,0.2700,-7.1400,0.0284,-0.1724,0.0273,-46.7500,-8.3750,56.5000,53.8125,43.1875,-178.0000,0
1776971688.090,9.1363,2.3703,-1.3982,-0.0277,0.0320,0.0552,-96.1500,24.4500,-31.9500,9.4643,-1.0630,-2.1691,-0.0200,0.0506,-0.0067,148.3500,1122.4500,-1027.9500,6.7800,0.2700,-7.1400,0.0284,-0.1724,0.0273,-46.7500,-8.3750,56.5000,53.8125,43.0625,-178.0000,0
1776971688.095,9.1363,2.3703,-1.3982,-0.0277,0.0320,0.0552,-96.1500,24.4500,-31.9500,9.4643,-1.0630,-2.1691,-0.0200,0.0506,-0.0067,148.3500,1122.4500,-1027.9500,6.7600,0.2700,-7.1800,0.0316,-0.1876,0.0316,-46.7500,-8.3750,56.5000,53.8125,43.0625,-178.0000,0
1776971688.100,9.2320,2.3990,-1.4389,-0.0469,0.0266,0.0637,-95.1000,23.5500,-31.6500,9.4906,-1.0726,-2.1835,-0.0277,0.0485,-0.0107,148.3500,1122.4500,-1027.9500,6.7600,0.2700,-7.1800,0.0349,-0.2007,0.0371,-46.7500,-8.3750,56.5000,53.8125,42.9375,-178.0625,0
1776971688.106,9.2895,2.4181,-1.4485,-0.0469,0.0266,0.0637,-95.1000,23.5500,-31.6500,9.4906,-1.0726,-2.1835,-0.0277,0.0485,-0.0107,148.3500,1122.4500,-1027.9500,6.7300,0.2600,-7.2000,0.0349,-0.2007,0.0371,-46.7500,-8.3750,56.5000,53.8750,42.8125,-178.1250,0
1776971688.115,9.2967,2.3966,-1.4605,-0.0522,0.0290,0.0637,-95.1000,24.7500,-30.4500,9.5098,-0.9984,-2.1668,-0.0386,0.0469,-0.0021,147.7500,1122.7500,-1028.8500,6.7200,0.2500,-7.2200,0.0338,-0.2083,0.0415,-46.7500,-8.3750,56.5000,53.8750,42.8125,-178.1250,0
1776971688.123,9.2967,2.3966,-1.4605,-0.0701,0.0285,0.0621,-96.7500,26.1000,-31.8000,9.5409,-1.0295,-2.2290,-0.0421,0.0541,-0.0080,148.3500,1122.1500,-1028.2500,6.6600,0.2200,-7.2600,0.0371,-0.2203,0.0458,-46.7500,-8.3750,56.5000,53.8750,42.7500,-178.1875,0
1776971688.128,9.3494,2.4924,-1.4341,-0.0762,0.0330,0.0608,-96.3000,25.0500,-29.5500,9.5624,-0.9122,-2.2290,-0.0512,0.0536,-0.0035,148.3500,1122.1500,-1028.2500,6.6600,0.2200,-7.2600,0.0371,-0.2203,0.0458,-46.7500,-8.3750,56.5000,53.8750,42.7500,-178.1875,0
1776971688.133,9.3494,2.4924,-1.4341,-0.0762,0.0330,0.0608,-96.3000,25.0500,-29.5500,9.5624,-0.9122,-2.2290,-0.0512,0.0536,-0.0035,148.2000,1122.0000,-1027.6500,6.6200,0.2300,-7.2700,0.0360,-0.2225,0.0480,-46.7500,-8.0000,56.0625,53.8750,42.6250,-178.1875,0
1776971688.138,9.3302,2.5019,-1.4892,-0.0903,0.0314,0.0602,-96.3000,25.0500,-29.5500,9.6319,-0.8954,-2.2505,-0.0621,0.0586,-0.0037,148.2000,1122.0000,-1027.6500,6.6200,0.2300,-7.2700,0.0360,-0.2225,0.0480,-46.7500,-8.0000,56.0625,53.8750,42.6250,-178.1875,0
1776971688.142,9.3302,2.5019,-1.4892,-0.0903,0.0314,0.0602,-96.3000,25.0500,-29.5500,9.6319,-0.8954,-2.2505,-0.0621,0.0586,-0.0037,149.2500,1122.3000,-1028.4000,6.6000,0.1600,-7.2800,0.0327,-0.2203,0.0502,-46.7500,-8.0000,56.0625,53.9375,42.5000,-178.2500,0
1776971688.147,9.3494,2.5043,-1.5802,-0.1050,0.0352,0.0608,-95.5500,24.6000,-30.3000,9.5984,-0.7973,-2.2913,-0.0711,0.0655,-0.0139,149.2500,1122.3000,-1028.4000,6.6000,0.1600,-7.2800,0.0327,-0.2203,0.0502,-46.7500,-8.0000,56.0625,53.9375,42.5000,-178.2500,0
1776971688.154,9.2991,2.5522,-1.5251,-0.1050,0.0352,0.0608,-95.5500,24.6000,-30.3000,9.5984,-0.7973,-2.2913,-0.0711,0.0655,-0.0139,149.5500,1121.5500,-1027.6500,6.5400,0.1900,-7.3600,0.0305,-0.2182,0.0502,-46.7500,-8.0000,56.0625,53.9375,42.3750,-178.3125,0
1776971688.159,9.2991,2.5522,-1.5251,-0.1186,0.0360,0.0581,-95.5500,24.6000,-30.3000,9.6510,-0.7901,-2.2505,-0.0671,0.0655,-0.0096,149.5500,1121.5500,-1027.6500,6.5400,0.1900,-7.3600,0.0295,-0.2138,0.0469,-46.7500,-8.0000,56.0625,53.9375,42.2500,-178.3750,0
1776971688.166,9.2512,2.4732,-1.6113,-0.1255,0.0434,0.0618,-95.5500,24.6000,-30.3000,9.6606,-0.6895,-2.2769,-0.0600,0.0693,-0.0096,149.5500,1121.5500,-1027.6500,6.5200,0.1400,-7.3400,0.0295,-0.2138,0.0469,-46.7500,-8.0000,56.0625,54.0000,42.1250,-178.3750,0
1776971688.175,9.3206,2.5522,-1.5826,-0.1282,0.0512,0.0562,-96.6000,24.4500,-30.4500,9.6247,-0.6704,-2.2769,-0.0474,0.0709,0.0021,148.3500,1122.4500,-1028.2500,6.5100,0.0800,-7.3300,0.0240,-0.2105,0.0458,-46.7500,-8.0000,56.0625,54.0000,42.1250,-178.3750,0
1776971688.180,9.3206,2.5522,-1.5826,-0.1282,0.0512,0.0562,-96.3000,24.6000,-29.8500,9.6247,-0.6704,-2.2769,-0.0474,0.0709,0.0021,148.6500,1121.7000,-1027.2000,6.5100,0.0800,-7.3300,0.0240,-0.2105,0.0458,-46.7500,-8.0000,56.0625,54.0000,42.0000,-178.4375,0
1776971688.185,9.3278,2.5139,-1.5107,-0.1327,0.0498,0.0602,-96.3000,24.6000,-29.8500,9.6726,-0.6608,-2.2625,-0.0282,0.0709,0.0072,148.6500,1121.7000,-1027.2000,6.4800,0.0500,-7.3800,0.0185,-0.2018,0.0458,-45.6875,-8.0000,57.6875,54.0000,42.0000,-178.4375,0
1776971688.190,9.3278,2.5139,-1.5107,-0.1327,0.0498,0.0602,-97.6500,23.2500,-30.4500,9.6726,-0.6608,-2.2625,-0.0282,0.0709,0.0072,148.2000,1122.7500,-1027.3500,6.4800,0.0500,-7.3800,0.0185,-0.2018,0.0458,-45.6875,-8.0000,57.6875,54.0625,41.8750,-178.4375,0
1776971688.195,9.3494,2.5211,-1.5921,-0.1314,0.0464,0.0504,-97.6500,23.2500,-30.4500,9.6774,-0.6632,-2.1955,-0.0144,0.0765,0.0115,148.2000,1122.7500,-1027.3500,6.4700,0.2300,-7.3600,0.0087,-0.1920,0.0513,-45.6875,-8.0000,57.6875,54.0625,41.8750,-178.4375,0
1776971688.200,9.3494,2.5211,-1.5921,-0.1314,0.0464,0.0504,-96.6000,25.5000,-30.1500,9.6774,-0.6632,-2.1955,-0.0144,0.0765,0.0115,149.2500,1122.3000,-1028.1000,6.4700,0.2300,-7.3600,0.0022,-0.1887,0.0502,-45.6875,-8.0000,57.6875,54.0625,41.8125,-178.5000,0
1776971688.206,9.3398,2.5283,-1.5706,-0.1394,0.0397,0.0520,-96.6000,25.5000,-30.1500,9.6917,-0.7039,-2.1476,-0.0048,0.0749,0.0131,149.2500,1122.3000,-1028.1000,6.4400,0.2800,-7.4100,0.0022,-0.1887,0.0502,-45.6875,-8.0000,57.6875,54.0625,41.6875,-178.5000,0
1776971688.215,9.3948,2.6217,-1.5419,-0.1548,0.0378,0.0509,-95.5500,25.0500,-29.8500,9.7252,-0.6345,-2.1811,0.0021,0.0757,0.0123,149.2500,1123.0500,-1026.6000,6.4100,0.1400,-7.4200,0.0055,-0.1724,0.0393,-45.6875,-8.0000,57.6875,54.0625,41.6875,-178.5000,0
1776971688.223,9.4068,2.6504,-1.6328,-0.1522,0.0490,0.0517,-96.1500,23.2500,-30.1500,9.7779,-0.6273,-2.2122,0.0123,0.0682,0.0128,149.2500,1123.0500,-1026.6000,6.3700,0.1900,-7.4200,0.0065,-0.1582,0.0305,-45.6875,-8.0000,57.6875,54.1250,41.6250,-178.5000,0
1776971688.228,9.4068,2.6504,-1.6328,-0.1522,0.0490,0.0517,-96.1500,23.2500,-30.1500,9.7779,-0.6273,-2.2122,0.0123,0.0682,0.0128,148.2000,1123.5000,-1028.1000,6.3700,0.1900,-7.4200,0.0065,-0.1582,0.0305,-45.6875,-8.0000,57.6875,54.1250,41.6250,-178.5000,0
1776971688.233,9.3422,2.7294,-1.5538,-0.1484,0.0504,0.0458,-96.1500,23.2500,-30.1500,9.8114,-0.6177,-2.2673,0.0192,0.0655,0.0141,148.2000,1123.5000,-1028.1000,6.3800,0.1700,-7.4200,0.0033,-0.1385,0.0218,-46.0625,-8.0000,57.6875,54.1250,41.5625,-178.5625,0
1776971688.238,9.3422,2.7294,-1.5538,-0.1484,0.0504,0.0458,-96.0000,23.8500,-30.1500,9.8114,-0.6177,-2.2673,0.0192,0.0655,0.0141,149.2500,1123.5000,-1027.6500,6.3800,0.1700,-7.4200,0.0033,-0.1385,0.0218,-46.0625,-8.0000,57.6875,54.1250,41.5625,-178.5625,0
1776971688.243,9.3350,2.6887,-1.5299,-0.1423,0.0621,0.0434,-96.0000,23.8500,-30.3000,9.7564,-0.6105,-2.2338,0.0280,0.0613,0.0125,149.2500,1123.5000,-1027.6500,6.3600,0.1800,-7.4400,0.0033,-0.1178,0.0076,-46.0625,-8.0000,57.6875,54.1250,41.5000,-178.5625,0
1776971688.248,9.3350,2.6887,-1.5299,-0.1423,0.0621,0.0434,-96.0000,23.8500,-30.3000,9.7564,-0.6105,-2.2338,0.0280,0.0613,0.0125,148.6500,1122.1500,-1027.9500,6.3600,0.1800,-7.4400,0.0033,-0.1178,0.0076,-46.0625,-8.0000,57.6875,54.1250,41.4375,-178.5625,0
1776971688.255,9.2201,2.7102,-1.5036,-0.1247,0.0749,0.0448,-96.0000,23.8500,-30.3000,9.7276,-0.5818,-2.1763,0.0325,0.0501,0.0141,148.6500,1122.1500,-1027.9500,6.3100,0.0800,-7.4800,0.0044,-0.1014,0.0000,-46.0625,-8.0000,57.6875,54.1250,41.4375,-178.5625,0
1776971688.263,9.1818,2.7749,-1.4317,-0.1042,0.0834,0.0378,-97.2000,23.8500,-31.0500,9.7612,-0.5507,-2.0614,0.0554,0.0504,0.0117,149.5500,1121.5500,-1027.0500,6.3200,0.0800,-7.4900,0.0044,-0.0829,-0.0087,-46.0625,-8.0000,57.6875,54.1250,41.3750,-178.5625,0
1776971688.268,9.1818,2.7749,-1.4317,-0.1042,0.0834,0.0378,-97.2000,23.8500,-31.0500,9.7612,-0.5507,-2.0614,0.0554,0.0504,0.0117,147.9000,1120.9500,-1028.5500,6.3200,0.0800,-7.4900,0.0044,-0.0829,-0.0087,-46.0625,-8.0000,57.6875,54.1250,41.3125,-178.5000,0
1776971688.276,9.1315,2.7701,-1.3791,-0.0858,0.0839,0.0312,-96.9000,24.0000,-30.1500,9.7468,-0.4908,-2.0327,0.0869,0.0480,0.0160,147.9000,1120.9500,-1028.5500,6.3100,0.0900,-7.4400,0.0033,-0.0589,-0.0196,-46.0625,-8.0000,57.6875,54.1250,41.3125,-178.5000,0
1776971688.281,9.1435,2.8299,-1.3264,-0.0789,0.0794,0.0195,-96.1500,23.2500,-30.1500,9.8090,-0.4429,-2.1117,0.1178,0.0373,0.0168,147.9000,1120.9500,-1028.5500,6.3100,0.0900,-7.4400,0.0033,-0.0589,-0.0196,-44.2500,-7.6875,57.6875,54.0625,41.3125,-178.5000,0
1776971688.286,9.1435,2.8299,-1.3264,-0.0789,0.0794,0.0195,-96.1500,23.2500,-30.1500,9.8090,-0.4429,-2.1117,0.1178,0.0373,0.0168,147.9000,1120.9500,-1028.5500,6.3400,0.2400,-7.4500,0.0055,-0.0447,-0.0436,-44.2500,-7.6875,57.6875,54.0625,41.3125,-178.5000,0
1776971688.291,9.2536,2.8204,-1.2977,-0.0608,0.0847,0.0107,-97.5000,22.9500,-30.3000,9.8545,-0.5794,-2.0087,0.1490,0.0173,0.0213,147.4500,1123.0500,-1027.6500,6.3400,0.2400,-7.4500,0.0055,-0.0447,-0.0436,-44.2500,-7.6875,57.6875,54.0625,41.3125,-178.5000,0
1776971688.296,9.2536,2.8204,-1.2977,-0.0608,0.0847,0.0107,-97.5000,22.9500,-30.3000,9.8545,-0.5794,-2.0087,0.1490,0.0173,0.0213,149.2500,1123.0500,-1026.6000,6.4100,0.3000,-7.4000,0.0076,-0.0229,-0.0578,-44.2500,-7.6875,57.6875,54.0625,41.3125,-178.5000,0
