timestamp,thigh_acc_x,thigh_acc_y,thigh_acc_z,thigh_gyro_x,thigh_gyro_y,thigh_gyro_z,thigh_mag_x,thigh_mag_y,thigh_mag_z,shank_acc_x,shank_acc_y,shank_acc_z,shank_gyro_x,shank_gyro_y,shank_gyro_z,shank_mag_x,shank_mag_y,shank_mag_z,foot_acc_x,foot_acc_y,foot_acc_z,foot_gyro_x,foot_gyro_y,foot_gyro_z,foot_mag_x,foot_mag_y,foot_mag_z,foot_euler_x,foot_euler_y,foot_euler_z,perturbation_event
1776972561.890,9.2703,-0.4453,0.7135,1.2132,0.5388,0.5081,-84.7500,18.9000,-7.2000,9.4786,-3.8690,2.6384,0.7298,-0.3629,0.6600,16.2000,46.8000,-120.0000,5.6100,1.3100,-8.3600,0.3109,0.2553,-0.0785,-29.7500,-18.3750,58.7500,116.5625,33.8125,-172.1875,0
1776972561.898,9.2249,-0.0838,1.3695,0.7557,0.5436,0.4407,-84.6000,18.7500,-5.8500,8.6383,-3.9433,3.3854,0.2888,-0.4183,0.7695,16.0500,46.9500,-119.1000,4.9700,1.1000,-8.0600,0.0524,-0.0665,0.0240,-29.7500,-18.3750,58.7500,116.6250,33.7500,-172.1875,0
1776972561.908,9.5433,0.0766,1.9752,0.3461,0.5590,0.3507,-84.6000,18.7500,-5.8500,9.1937,-4.6352,3.7709,0.0067,-0.4658,0.8820,16.0500,46.9500,-119.1000,3.5800,1.0700,-8.2000,-0.0687,-0.1833,0.0894,-29.7500,-18.3750,58.7500,116.6250,33.7500,-172.1875,0
1776972561.913,9.5433,0.0766,1.9752,0.3461,0.5590,0.3507,-84.6000,18.7500,-5.8500,9.1937,-4.6352,3.7709,0.0067,-0.4658,0.8820,20.7000,45.3000,-121.3500,3.5800,1.0700,-8.2000,-0.0687,-0.1833,0.0894,-29.7500,-18.3750,58.7500,116.6875,33.8750,-172.1250,0
1776972561.918,10.2663,-0.5052,2.2745,0.0645,0.5220,0.2547,-85.0500,19.9500,-5.5500,9.5912,-4.1707,2.3152,-0.0333,-0.4375,0.9201,20.7000,45.3000,-121.3500,6.3100,1.0100,-8.3500,-0.1527,0.2640,0.1113,-30.1875,-16.8750,60.0000,116.6875,33.8750,-172.1250,0
1776972561.923,10.2663,-0.5052,2.2745,0.0645,0.5220,0.2547,-85.0500,19.9500,-5.5500,9.5912,-4.1707,2.3152,-0.0333,-0.4375,0.9201,23.8500,45.7500,-120.3000,6.3100,1.0100,-8.3500,-0.1527,0.2640,0.1113,-30.1875,-16.8750,60.0000,116.8125,33.7500,-172.1250,0
1776972561.928,10.2424,-0.8859,2.3104,-0.1426,0.4655,0.2129,-85.0500,19.9500,-5.5500,10.5632,-3.3088,0.5555,0.0056,-0.3938,0.8588,23.8500,45.7500,-120.3000,5.6600,0.8200,-8.6100,-0.1451,-0.2771,0.1942,-30.1875,-16.8750,60.0000,116.8125,33.7500,-172.1250,0
1776972561.932,10.2424,-0.8859,2.3104,-0.1426,0.4655,0.2129,-85.0500,19.9500,-5.5500,10.5632,-3.3088,0.5555,-0.3182,-0.4538,0.8167,22.9500,45.9000,-121.2000,5.6600,0.8200,-8.6100,-0.2073,-0.2760,0.1800,-30.1875,-16.8750,60.0000,117.0000,33.6250,-172.0625,0
1776972561.938,10.2472,-1.3599,2.2817,-0.2827,0.3866,0.2049,-85.2000,17.7000,-6.7500,10.7691,-3.0694,-0.4142,-0.3182,-0.4538,0.8167,22.9500,45.9000,-121.2000,4.7400,0.7600,-8.5700,-0.2073,-0.2760,0.1800,-30.1875,-16.8750,60.0000,117.0625,33.6875,-172.0625,0
1776972561.948,10.5129,-1.7669,1.8842,-0.4615,0.2782,0.2204,-84.0000,18.4500,-5.2500,10.2903,-3.1412,-0.3376,-0.5268,-0.4828,0.7139,23.4000,46.2000,-119.4000,5.4400,0.7500,-8.6200,-0.1233,0.0676,0.1374,-30.1875,-16.8750,60.0000,117.0625,33.6875,-172.0625,0
1776972561.958,10.5105,-1.6735,1.4341,-0.6781,0.1764,0.2622,-85.2000,16.5000,-5.7000,10.0485,-2.5235,-0.2993,-0.5838,-0.3728,0.6118,23.4000,46.2000,-119.4000,5.1800,0.7600,-8.5800,-0.0502,0.0982,0.1145,-30.1875,-16.8750,60.0000,117.1250,33.7500,-172.0625,0
1776972561.963,9.8737,-1.0391,0.9625,-0.6781,0.1764,0.2622,-85.2000,16.5000,-5.7000,9.9120,-2.1284,0.1748,-0.5660,-0.2899,0.4988,23.4000,46.2000,-119.4000,5.1800,0.7600,-8.5800,-0.0502,0.0982,0.1145,-30.1875,-16.8750,60.0000,117.1250,33.7500,-172.0625,0
1776972561.968,9.8737,-1.0391,0.9625,-0.9166,0.1191,0.3011,-84.4500,18.1500,-5.7000,9.9120,-2.1284,0.1748,-0.5660,-0.2899,0.4988,23.4000,46.2000,-119.4000,5.1600,0.8000,-8.5000,-0.0022,0.1614,0.0840,-30.1875,-16.1875,59.5625,117.1875,33.8125,-172.1250,0
1776972561.973,9.5457,-0.3998,0.9361,-0.9166,0.1191,0.3011,-84.4500,18.1500,-5.7000,9.7324,-1.9034,0.2945,-0.5750,-0.2702,0.4205,23.7000,45.9000,-120.9000,5.1600,0.8000,-8.5000,-0.0022,0.1614,0.0840,-30.1875,-16.1875,59.5625,117.1875,33.8125,-172.1250,0
1776972561.978,9.5457,-0.3998,0.9361,-1.1666,0.0536,0.3232,-85.9500,17.7000,-5.2500,9.7324,-1.9034,0.2945,-0.5750,-0.2702,0.4205,23.7000,45.9000,-120.9000,5.0800,1.0200,-8.3700,0.0305,0.2105,0.0611,-30.1875,-16.1875,59.5625,117.1875,33.9375,-172.1250,0
1776972561.984,9.4427,-0.0527,1.2354,-1.3720,0.0226,0.3222,-85.9500,17.7000,-5.2500,9.2512,-1.8316,0.8236,-0.5939,-0.2689,0.3600,18.7500,45.7500,-121.0500,5.2700,1.1800,-8.1200,-0.0033,0.2465,0.0447,-30.1875,-16.1875,59.5625,117.2500,34.0625,-172.1250,0
1776972561.989,9.4427,-0.0527,1.2354,-1.3720,0.0226,0.3222,-85.3500,15.6000,-6.1500,9.2512,-1.8316,0.8236,-0.5939,-0.2689,0.3600,18.7500,45.7500,-121.0500,5.2700,1.1800,-8.1200,-0.0033,0.2465,0.0447,-30.1875,-16.1875,59.5625,117.2500,34.1875,-172.1250,0
1776972561.998,9.2751,0.2394,1.5203,-1.4922,-0.0091,0.2995,-85.3500,15.6000,-6.1500,9.2895,-1.8962,0.5028,-0.6110,-0.3022,0.3621,20.2500,45.3000,-120.0000,5.0200,1.1700,-8.3000,-0.0295,0.1505,0.0545,-30.1875,-16.1875,59.5625,117.2500,34.1875,-172.1250,0
1776972562.008,9.1698,0.4573,1.7693,-1.5196,-0.0386,0.2633,-85.5000,16.2000,-4.2000,8.9783,-1.7142,0.2059,-0.5489,-0.4010,0.3762,16.9500,44.2500,-120.3000,5.2600,1.1700,-8.1100,-0.0829,0.1963,0.0535,-30.1875,-16.1875,59.5625,117.3125,34.2500,-172.0625,0
1776972562.013,9.2680,0.4956,2.0111,-1.4298,-0.0344,0.2350,-85.5000,16.2000,-4.2000,9.0309,-1.6089,0.0814,-0.5255,-0.3909,0.4069,16.9500,44.2500,-120.3000,5.2600,1.1700,-8.1100,-0.0829,0.1963,0.0535,-30.1875,-16.1875,59.5625,117.3750,34.3750,-172.0625,0
1776972562.018,9.2680,0.4956,2.0111,-1.4298,-0.0344,0.2350,-85.5000,16.2000,-4.2000,9.0309,-1.6089,0.0814,-0.5255,-0.3909,0.4069,16.9500,44.2500,-120.3000,5.1400,1.2700,-8.1700,-0.1374,0.1276,0.0654,-31.1875,-16.8750,59.0625,117.3750,34.3750,-172.0625,0
1776972562.022,9.3996,0.5339,2.2003,-1.2649,-0.0085,0.2241,-85.5000,16.2000,-4.2000,9.2967,-1.2857,-0.1508,-0.4943,-0.4533,0.4596,16.9500,44.2500,-120.3000,5.1400,1.2700,-8.1700,-0.1374,0.1276,0.0654,-31.1875,-16.8750,59.0625,117.3750,34.3750,-172.0625,0
1776972562.028,9.3996,0.5339,2.2003,-1.2649,-0.0085,0.2241,-85.5000,16.5000,-4.2000,9.2967,-1.2857,-0.1508,-0.4943,-0.4533,0.4596,16.9500,44.2500,-120.3000,5.1600,1.2300,-8.1900,-0.1331,0.0796,0.0807,-31.1875,-16.8750,59.0625,117.4375,34.3750,-172.0000,0
1776972562.032,9.5385,0.7230,2.1739,-1.0110,0.0109,0.2097,-85.5000,16.5000,-4.2000,9.4236,-1.2330,-0.4908,-0.4546,-0.3485,0.4767,16.6500,42.0000,-122.1000,5.1600,1.2300,-8.1900,-0.1102,0.1080,0.0840,-31.1875,-16.8750,59.0625,117.5000,34.5000,-171.9375,0
1776972562.039,9.5385,0.7230,2.1739,-1.0110,0.0109,0.2097,-86.5500,17.1000,-4.0500,9.4236,-1.2330,-0.4908,-0.4546,-0.3485,0.4767,16.6500,42.0000,-122.1000,5.1500,1.2100,-8.2800,-0.1102,0.1080,0.0840,-31.1875,-16.8750,59.0625,117.5000,34.5000,-171.9375,0
1776972562.048,9.4810,0.9266,2.0949,-0.7440,0.0216,0.1927,-87.0000,16.9500,-4.2000,9.5768,-1.1827,-0.4477,-0.3248,-0.3770,0.4863,16.0500,43.6500,-123.0000,5.1500,1.1000,-8.2300,-0.0840,0.1647,0.0807,-31.1875,-16.8750,59.0625,117.5000,34.5000,-171.9375,0
1776972562.053,9.4164,1.1540,1.8268,-0.4922,0.0285,0.1759,-87.0000,16.9500,-4.2000,9.5146,-1.2019,-0.3280,-0.2939,-0.4122,0.5071,15.9000,41.2500,-122.5500,5.1500,1.1000,-8.2300,-0.0600,0.2225,0.0764,-31.1875,-16.8750,59.0625,117.5625,34.6250,-171.9375,0
1776972562.059,9.2943,1.1899,1.7119,-0.4922,0.0285,0.1759,-85.3500,17.1000,-2.8500,9.3637,-1.4700,-0.1293,-0.2747,-0.4503,0.5089,16.8000,40.6500,-121.6500,5.1400,1.1500,-8.2300,-0.0600,0.2225,0.0764,-31.1875,-16.8750,59.0625,117.5625,34.6250,-171.9375,0
1776972562.064,9.2943,1.1899,1.7119,-0.2715,0.0325,0.1577,-85.3500,17.1000,-2.8500,9.3637,-1.4700,-0.1293,-0.2747,-0.4503,0.5089,16.8000,40.6500,-121.6500,5.1400,1.1500,-8.2300,0.0295,0.3131,0.0785,-31.1875,-16.8750,58.2500,117.6250,34.7500,-171.9375,0
1776972562.069,9.3709,1.2330,1.5036,-0.2715,0.0325,0.1577,-84.7500,16.2000,-3.0000,9.3302,-1.6520,-0.3280,-0.1857,-0.4959,0.5009,16.8000,40.6500,-121.6500,5.1400,1.0700,-8.1200,0.0295,0.3131,0.0785,-31.1875,-16.8750,58.2500,117.6250,34.7500,-171.9375,0
1776972562.074,9.3709,1.2330,1.5036,-0.1124,0.0421,0.1362,-84.7500,16.2000,-3.0000,9.3302,-1.6520,-0.3280,-0.1857,-0.4959,0.5009,16.8000,40.6500,-121.6500,5.1400,1.0700,-8.1200,0.1178,0.3807,0.0502,-31.1875,-16.8750,58.2500,117.5625,34.9375,-172.0000,0
1776972562.079,9.4355,1.2282,1.4269,0.0157,0.0666,0.1287,-85.9500,16.2000,-3.0000,9.4667,-1.3024,-0.3663,-0.0711,-0.5079,0.4980,16.2000,39.7500,-123.1500,5.2200,0.6100,-8.4400,0.1178,0.3807,0.0502,-31.1875,-16.8750,58.2500,117.5625,34.9375,-172.0000,0
1776972562.085,9.4355,1.2282,1.4269,0.0157,0.0666,0.1287,-85.9500,16.2000,-3.0000,9.4667,-1.3024,-0.3663,-0.0711,-0.5079,0.4980,16.2000,39.7500,-123.1500,5.0100,1.0600,-8.0100,0.1505,0.4538,0.0011,-31.1875,-16.8750,58.2500,117.5625,35.1875,-172.0625,0
1776972562.090,9.3637,1.1205,1.3815,0.0927,0.0826,0.1138,-85.9500,16.2000,-3.0000,9.5433,-1.4557,-0.2083,-0.0458,-0.5303,0.4834,17.2500,39.4500,-123.7500,5.0100,1.0600,-8.0100,0.1505,0.4538,0.0011,-31.1875,-16.8750,58.2500,117.5625,35.4375,-172.0625,0
1776972562.098,9.3158,0.9385,1.2115,0.1383,0.0927,0.1231,-85.3500,16.3500,-4.0500,9.4475,-1.6281,-0.0622,0.0195,-0.5372,0.4924,16.6500,41.2500,-122.5500,5.3800,1.1700,-8.1400,0.0458,0.4178,0.0316,-31.1875,-16.8750,58.2500,117.5625,35.4375,-172.0625,0
1776972562.104,9.3158,0.9385,1.2115,0.1383,0.0927,0.1231,-85.3500,16.3500,-4.0500,9.4475,-1.6281,-0.0622,0.0195,-0.5372,0.4924,16.6500,41.2500,-122.5500,5.5600,1.1900,-8.1000,0.0218,0.3916,0.0349,-31.1875,-16.8750,58.2500,117.5625,35.6250,-172.0625,0
1776972562.109,9.3350,0.9457,1.1372,0.1487,0.0895,0.1188,-85.3500,16.3500,-4.0500,9.4619,-1.7717,-0.0575,0.1100,-0.5212,0.4930,15.6000,40.0500,-123.9000,5.5600,1.1900,-8.1000,0.0218,0.3916,0.0349,-31.1875,-16.8750,58.2500,117.5625,35.6250,-172.0625,0
1776972562.114,9.3350,0.9457,1.1372,0.1487,0.0895,0.1188,-85.3500,16.3500,-4.0500,9.4619,-1.7717,-0.0575,0.1100,-0.5212,0.4930,15.6000,40.0500,-123.9000,5.5600,1.1900,-8.1000,0.0218,0.3916,0.0349,-31.5000,-16.1875,58.6875,117.5625,35.7500,-172.0625,0
1776972562.119,9.4763,1.0199,1.1396,0.1367,0.0855,0.1178,-85.8000,15.6000,-3.6000,9.6822,-1.7214,0.0742,0.1383,-0.5572,0.5009,17.7000,40.0500,-124.6500,5.4700,1.1100,-8.1000,-0.0131,0.3174,0.0447,-31.5000,-16.1875,58.6875,117.5625,35.7500,-172.0625,0
1776972562.124,9.4763,1.0199,1.1396,0.1367,0.0855,0.1178,-85.8000,15.6000,-3.6000,9.6822,-1.7214,0.0742,0.1383,-0.5572,0.5009,17.7000,40.0500,-124.6500,5.4700,1.1100,-8.1000,-0.0131,0.3174,0.0447,-31.5000,-16.1875,58.6875,117.5625,35.9375,-172.0625,0
1776972562.129,9.4619,0.9290,1.1708,0.1266,0.0757,0.1090,-84.1500,16.3500,-3.3000,9.7013,-1.9561,0.0311,0.0903,-0.5820,0.5228,17.7000,40.0500,-124.6500,5.5500,1.1200,-8.0600,-0.0240,0.2858,0.0567,-31.5000,-16.1875,58.6875,117.5625,35.9375,-172.0625,0
1776972562.134,9.4619,0.9290,1.1708,0.1266,0.0757,0.1090,-84.1500,16.3500,-3.3000,9.7013,-1.9561,0.0311,0.0903,-0.5820,0.5228,17.7000,40.0500,-124.6500,5.5500,1.1200,-8.0600,-0.0076,0.2607,0.0611,-31.5000,-16.1875,58.6875,117.6250,36.0625,-172.0625,0
1776972562.139,9.5433,0.9792,1.2450,0.1111,0.0717,0.0951,-86.2500,17.4000,-3.0000,9.7420,-2.1213,-0.0479,0.0757,-0.6099,0.5353,16.2000,39.0000,-125.7000,5.5500,1.1000,-8.1300,-0.0076,0.2607,0.0611,-31.5000,-16.1875,58.6875,117.6250,36.2500,-172.1250,0
1776972562.148,9.5457,0.9433,1.2833,0.0807,0.0674,0.0789,-85.3500,17.4000,-3.0000,9.8450,-2.5019,-0.1915,0.0003,-0.6003,0.5596,17.5500,37.9500,-125.5500,5.2800,1.0100,-8.0400,0.0175,0.2705,0.0349,-31.5000,-16.1875,58.6875,117.6250,36.2500,-172.1250,0
1776972562.158,9.6750,0.8667,1.3695,0.0285,0.0658,0.0648,-86.1000,15.6000,-4.0500,9.8067,-2.9018,-0.3998,-0.0504,-0.5849,0.5809,16.5000,38.7000,-123.7500,5.2500,1.0600,-8.1800,0.0076,0.2782,0.0284,-31.5000,-16.1875,58.6875,117.6250,36.3750,-172.0625,0
1776972562.163,9.6750,0.8667,1.3695,0.0285,0.0658,0.0648,-86.1000,15.6000,-4.0500,9.8067,-2.9018,-0.3998,-0.0504,-0.5849,0.5809,16.5000,38.7000,-123.7500,5.2500,1.0600,-8.1800,0.0076,0.2782,0.0284,-31.5000,-16.1875,58.6875,117.6250,36.4375,-172.1250,0
1776972562.168,9.7779,0.6273,1.5610,-0.0493,0.0629,0.0711,-86.1000,15.6000,-4.0500,9.7540,-3.1723,-0.7015,-0.0163,-0.6014,0.5883,16.9500,37.5000,-125.4000,5.3900,1.0500,-8.2000,-0.0109,0.2858,0.0338,-32.5625,-16.8750,57.8750,117.6250,36.4375,-172.1250,0
1776972562.173,9.7779,0.6273,1.5610,-0.0493,0.0629,0.0711,-85.9500,15.0000,-3.4500,9.7540,-3.1723,-0.7015,-0.0163,-0.6014,0.5883,16.9500,37.5000,-125.4000,5.3900,1.0500,-8.2000,-0.0109,0.2858,0.0338,-32.5625,-16.8750,57.8750,117.6250,36.6250,-172.0625,0
1776972562.178,9.6917,0.4764,1.7071,-0.1450,0.0605,0.0813,-85.9500,15.0000,-3.4500,9.8976,-3.4740,-0.6991,-0.0594,-0.6382,0.6163,18.4500,38.2500,-126.4500,5.6500,1.2300,-8.2000,0.0142,0.3294,0.0229,-32.5625,-16.8750,57.8750,117.6250,36.6250,-172.0625,0
1776972562.183,9.6917,0.4764,1.7071,-0.1450,0.0605,0.0813,-85.9500,15.0000,-3.4500,9.8976,-3.4740,-0.6991,-0.0594,-0.6382,0.6163,18.4500,38.2500,-126.4500,5.6500,1.2300,-8.2000,0.0284,0.3425,0.0251,-32.5625,-16.8750,57.8750,117.6250,36.7500,-172.0625,0
1776972562.189,9.8928,0.2298,1.8411,-0.2164,0.0544,0.1026,-86.5500,14.8500,-2.5500,9.7420,-3.8188,-0.6393,-0.1151,-0.6843,0.6355,18.4500,38.2500,-126.4500,5.6500,1.2900,-8.1500,0.0284,0.3425,0.0251,-32.5625,-16.8750,57.8750,117.6250,36.7500,-172.0625,0
1776972562.198,9.9072,0.0838,1.9178,-0.2683,0.0530,0.1228,-86.5500,14.8500,-2.5500,9.5193,-3.9289,-0.5794,-0.1719,-0.6731,0.6390,17.8500,36.4500,-125.5500,5.4700,1.2900,-8.0900,0.0458,0.2978,0.0371,-32.5625,-16.8750,57.8750,117.6250,36.8750,-172.1250,0
1776972562.202,9.7875,-0.0311,2.0782,-0.2683,0.0530,0.1228,-86.5500,14.8500,-2.5500,9.5193,-3.9289,-0.5794,-0.1719,-0.6731,0.6390,17.8500,36.4500,-125.5500,5.4700,1.2900,-8.0900,0.0600,0.2923,0.0611,-32.5625,-16.8750,57.8750,117.6250,36.9375,-172.1250,0
1776972562.209,9.7875,-0.0311,2.0782,-0.3160,0.0557,0.1548,-85.5000,15.7500,-3.4500,9.4020,-4.0151,-0.4214,-0.2502,-0.6654,0.6392,18.3000,37.6500,-127.3500,5.3600,1.2100,-8.2300,0.0600,0.2923,0.0611,-32.5625,-16.8750,57.8750,117.6250,36.9375,-172.1250,0
1776972562.214,9.6941,0.0622,2.0734,-0.3552,0.0522,0.1748,-85.5000,15.7500,-3.4500,9.4906,-3.7996,-0.7877,-0.3411,-0.6251,0.6307,18.3000,37.6500,-127.3500,5.3600,1.2100,-8.2300,0.0884,0.3185,0.0731,-33.6875,-17.2500,58.6875,117.6250,37.0625,-172.1875,0
1776972562.219,9.6941,0.0622,2.0734,-0.3552,0.0522,0.1748,-86.1000,16.8000,-3.4500,9.4906,-3.7996,-0.7877,-0.3411,-0.6251,0.6307,18.6000,36.4500,-128.4000,5.6800,0.8900,-7.9300,0.0884,0.3185,0.0731,-33.6875,-17.2500,58.6875,117.6250,37.0625,-172.1875,0
1776972562.224,9.7324,0.1532,1.9154,-0.3960,0.0402,0.1919,-86.1000,16.8000,-3.3000,9.5122,-3.3423,-1.1612,-0.3691,-0.5899,0.6107,18.6000,36.4500,-128.4000,5.6800,0.8900,-7.9300,0.1025,0.2847,0.0676,-33.6875,-17.2500,58.6875,117.6250,37.2500,-172.2500,0
1776972562.229,9.7324,0.1532,1.9154,-0.3960,0.0402,0.1919,-86.1000,15.6000,-2.8500,9.5122,-3.3423,-1.1612,-0.3691,-0.5899,0.6107,17.8500,35.4000,-126.6000,5.9100,1.0800,-8.1200,0.1025,0.2847,0.0676,-33.6875,-17.2500,58.6875,117.6250,37.2500,-172.2500,0
1776972562.234,9.8593,0.1077,1.6975,-0.4149,0.0128,0.2038,-86.1000,15.6000,-2.8500,9.5457,-2.9544,-1.4533,-0.4045,-0.5478,0.5542,17.8500,35.4000,-126.6000,5.9100,1.0800,-8.1200,0.0949,0.2825,0.0600,-33.6875,-17.2500,58.6875,117.6250,37.3750,-172.3125,0
1776972562.239,9.8593,0.1077,1.6975,-0.4149,0.0128,0.2038,-88.2000,15.4500,-3.4500,9.5457,-2.9544,-1.4533,-0.4045,-0.5478,0.5542,18.4500,34.8000,-127.5000,5.6500,1.1300,-7.9800,0.0949,0.2825,0.0600,-33.6875,-17.2500,58.6875,117.6250,37.3750,-172.3125,0
1776972562.248,9.8737,0.2586,1.6137,-0.3717,-0.0184,0.2161,-88.2000,15.4500,-3.4500,9.5289,-2.7605,-1.6807,-0.4098,-0.5180,0.4807,18.4500,34.8000,-127.5000,5.5400,1.1900,-8.0100,0.1200,0.2825,0.0513,-33.6875,-17.2500,58.6875,117.6250,37.5000,-172.3750,0
1776972562.253,9.7420,0.3735,1.4796,-0.2891,-0.0416,0.2225,-84.7500,16.5000,-1.9500,9.5433,-2.8970,-2.1213,-0.4133,-0.4724,0.4397,18.4500,34.8000,-127.5000,5.5400,1.1900,-8.0100,0.1254,0.3643,0.0513,-33.6875,-17.2500,58.6875,117.6250,37.6250,-172.4375,0
1776972562.259,9.7420,0.3735,1.4796,-0.2891,-0.0416,0.2225,-86.2500,15.0000,-2.7000,9.5433,-2.8970,-2.1213,-0.4133,-0.4724,0.4397,17.7000,36.0000,-128.5500,5.4400,0.9900,-7.9700,0.1254,0.3643,0.0513,-33.6875,-17.2500,58.6875,117.6250,37.6250,-172.4375,0
1776972562.264,9.6845,0.6129,1.3838,-0.2017,-0.0520,0.2262,-86.2500,15.0000,-2.7000,9.5553,-2.6791,-2.4876,-0.3419,-0.5303,0.4341,17.7000,36.0000,-128.5500,5.4400,0.9900,-7.9700,0.1254,0.3643,0.0513,-35.1875,-15.8750,57.8750,117.6250,37.8125,-172.5625,0
1776972562.269,9.6845,0.6129,1.3838,-0.2017,-0.0520,0.2262,-86.2500,15.0000,-2.7000,9.5553,-2.6791,-2.4876,-0.3419,-0.5303,0.4341,16.6500,36.3000,-128.5500,5.4500,0.7500,-7.9700,0.1451,0.4527,0.0447,-35.1875,-15.8750,57.8750,117.6250,37.8125,-172.5625,0
1776972562.274,9.7588,0.5602,1.1396,-0.1218,-0.0674,0.2417,-86.2500,15.0000,-2.7000,9.7588,-2.1739,-2.9928,-0.2715,-0.5798,0.4178,16.6500,36.3000,-128.5500,5.4500,0.7500,-7.9700,0.1451,0.4527,0.0447,-35.1875,-15.8750,57.8750,117.5625,38.0625,-172.6250,0
1776972562.279,9.7588,0.5602,1.1396,-0.1218,-0.0674,0.2417,-86.2500,15.0000,-2.7000,9.7588,-2.1739,-2.9928,-0.2715,-0.5798,0.4178,16.2000,33.7500,-128.5500,5.6200,0.4100,-8.2000,0.1756,0.5301,0.0273,-35.1875,-15.8750,57.8750,117.5625,38.0625,-172.6250,0
1776972562.284,9.7324,0.7087,1.0391,-0.0546,-0.0831,0.2851,-86.5500,15.6000,-1.3500,9.4140,-2.0183,-2.9257,-0.2374,-0.5939,0.3861,15.7500,34.6500,-129.4500,5.9800,0.7100,-7.8400,0.0949,0.6785,0.0218,-35.1875,-15.8750,57.8750,117.5625,38.4375,-172.6250,0
1776972562.289,9.6965,0.6393,1.0511,-0.0546,-0.0831,0.2851,-86.5500,15.6000,-1.3500,9.4140,-2.0183,-2.9257,-0.2374,-0.5939,0.3861,15.7500,34.6500,-129.4500,5.9800,0.7100,-7.8400,0.0949,0.6785,0.0218,-35.1875,-15.8750,57.8750,117.5000,38.8125,-172.6250,0
1776972562.299,9.5146,0.7015,1.1396,0.0056,-0.0778,0.3459,-86.5500,15.6000,-1.3500,9.2368,-2.0614,-2.6121,-0.2174,-0.5929,0.3736,15.6000,34.0500,-129.6000,5.8900,0.4200,-8.0100,0.0240,0.6774,-0.0196,-35.1875,-15.8750,57.8750,117.5000,38.8125,-172.6250,0
1776972562.308,9.2656,0.7063,1.1037,0.0453,-0.0730,0.4096,-86.2500,14.5500,-3.4500,8.8945,-2.3320,-2.3798,-0.1844,-0.6099,0.3853,15.6000,34.0500,-129.6000,5.9200,0.6500,-7.8500,-0.0142,0.6861,-0.0687,-35.1875,-15.8750,57.8750,117.4375,39.1875,-172.5625,0
1776972562.313,9.2656,0.7063,1.1037,0.0794,-0.0741,0.4724,-87.0000,14.5500,-1.9500,8.7771,-2.7485,-1.8818,-0.1218,-0.6241,0.4141,15.6000,34.0500,-129.6000,5.9200,0.6500,-7.8500,-0.0142,0.6861,-0.0687,-35.1875,-15.8750,57.8750,117.3750,39.6250,-172.4375,0
1776972562.318,9.1147,0.5722,1.1851,0.0794,-0.0741,0.4724,-87.0000,14.5500,-1.9500,8.7771,-2.7485,-1.8818,-0.1218,-0.6241,0.4141,14.1000,35.2500,-129.9000,6.2300,0.7800,-7.6700,0.0011,0.7516,-0.1254,-36.2500,-16.8750,57.5625,117.3750,39.6250,-172.4375,0
1776972562.323,9.1147,0.5722,1.1851,0.1159,-0.0666,0.5065,-87.4500,14.2500,-1.9500,8.7317,-3.2250,-1.5490,-0.1106,-0.6518,0.4778,14.1000,35.2500,-129.9000,6.2300,0.7800,-7.6700,0.0011,0.7516,-0.1254,-36.2500,-16.8750,57.5625,117.3750,39.6250,-172.4375,0
1776972562.328,8.9352,0.4764,1.2450,0.1159,-0.0666,0.5065,-87.4500,14.2500,-1.9500,8.7317,-3.2250,-1.5490,-0.1106,-0.6518,0.4778,12.7500,33.9000,-130.8000,6.3800,0.8100,-7.6400,-0.0491,0.7178,-0.1527,-36.2500,-16.8750,57.5625,117.2500,40.0000,-172.3125,0
1776972562.333,8.9352,0.4764,1.2450,0.1569,-0.0522,0.5108,-87.0000,15.4500,-3.0000,8.6407,-3.5721,-1.3384,-0.0925,-0.6752,0.5436,12.7500,33.9000,-130.8000,6.3800,0.8100,-7.6400,-0.0840,0.6654,-0.1658,-36.2500,-16.8750,57.5625,117.1250,40.3750,-172.1250,0
1776972562.339,8.8945,0.5148,1.3360,0.2062,-0.0306,0.5081,-87.0000,15.4500,-3.0000,8.7101,-3.5698,-1.1492,-0.1167,-0.6781,0.6054,14.7000,33.4500,-131.2500,6.4400,0.7800,-7.5600,-0.0840,0.6654,-0.1658,-36.2500,-16.8750,57.5625,117.0625,40.6875,-171.9375,0
1776972562.349,8.9471,0.5124,1.3431,0.2382,-0.0051,0.4871,-88.2000,13.8000,-3.0000,8.9112,-3.2968,-0.9098,-0.1503,-0.6797,0.6587,15.1500,32.5500,-133.2000,6.4400,1.1500,-7.4100,-0.0829,0.6305,-0.1844,-36.2500,-16.8750,57.5625,116.9375,41.0000,-171.8125,0
1776972562.359,9.0621,0.6512,1.3695,0.2563,-0.0072,0.4498,-88.2000,13.0500,-1.9500,9.2344,-3.1532,-0.9864,-0.1927,-0.6526,0.6829,15.9000,33.0000,-132.1500,6.2700,1.0400,-7.4800,-0.0840,0.5781,-0.1800,-36.2500,-16.8750,57.5625,116.9375,41.0000,-171.8125,0
1776972562.364,9.0621,0.6512,1.3695,0.2563,-0.0072,0.4498,-88.2000,13.0500,-1.9500,9.2344,-3.1532,-0.9864,-0.1927,-0.6526,0.6829,15.9000,33.0000,-132.1500,6.2700,1.0400,-7.4800,-0.0840,0.5781,-0.1800,-36.2500,-16.8750,57.5625,116.8125,41.3125,-171.6250,0
1776972562.369,9.1075,0.7135,1.2378,0.2270,-0.0109,0.4010,-88.2000,13.0500,-1.9500,9.5385,-2.9832,-0.9960,-0.2388,-0.6534,0.6877,15.9000,33.0000,-132.1500,6.3200,0.8500,-7.1700,-0.0665,0.5651,-0.1756,-37.0000,-16.1875,56.7500,116.8125,41.3125,-171.6250,0
1776972562.374,9.1075,0.7135,1.2378,0.2270,-0.0109,0.4010,-87.6000,13.2000,-2.8500,9.5385,-2.9832,-0.9960,-0.2388,-0.6534,0.6877,16.6500,31.5000,-133.2000,6.3200,0.8500,-7.1700,-0.0665,0.5651,-0.1756,-37.0000,-16.1875,56.7500,116.8125,41.3125,-171.6250,0
1776972562.379,9.2632,0.9313,1.0534,0.1799,-0.0368,0.3568,-87.6000,13.2000,-2.8500,9.7037,-2.9329,-1.2641,-0.2822,-0.6872,0.6979,16.6500,31.5000,-133.2000,6.1100,0.9200,-7.7500,-0.0262,0.5749,-0.1963,-37.0000,-16.1875,56.7500,116.6875,41.5625,-171.5000,0
1776972562.386,9.4715,1.0319,0.9409,0.1799,-0.0368,0.3568,-87.6000,13.2000,-2.8500,9.7037,-2.9329,-1.2641,-0.2822,-0.6872,0.6979,18.7500,32.2500,-132.1500,6.1500,0.9200,-7.5200,-0.0382,0.6338,-0.1876,-37.0000,-16.1875,56.7500,116.6250,41.9375,-171.3125,0
1776972562.391,9.4715,1.0319,0.9409,0.1183,-0.0621,0.3190,-88.2000,11.8500,-2.7000,10.0485,-2.8491,-1.4126,-0.3536,-0.7440,0.7059,18.7500,32.2500,-132.1500,6.1500,0.9200,-7.5200,-0.0382,0.6338,-0.1876,-37.0000,-16.1875,56.7500,116.5000,42.1875,-171.1875,0
1776972562.399,9.6103,1.1085,0.9122,0.0608,-0.0925,0.2830,-88.2000,11.8500,-2.7000,10.0963,-2.9066,-1.7262,-0.3800,-0.8359,0.7147,18.6000,31.9500,-133.6500,6.2400,0.8300,-7.5700,-0.0251,0.6741,-0.1789,-37.0000,-16.1875,56.7500,116.5000,42.1875,-171.1875,0
1776972562.405,9.5624,0.9816,0.9026,0.0608,-0.0925,0.2830,-86.5500,13.9500,-4.8000,10.0963,-2.9066,-1.7262,-0.3800,-0.8359,0.7147,17.5500,31.6500,-133.0500,6.0500,0.9900,-7.3100,-0.0131,0.7156,-0.1702,-37.0000,-16.1875,56.7500,116.3750,42.5000,-171.0625,0
1776972562.410,9.5624,0.9816,0.9026,-0.0053,-0.1122,0.2811,-86.5500,13.9500,-4.8000,9.9048,-3.0358,-1.6448,-0.3928,-0.9225,0.7400,17.5500,31.6500,-133.0500,6.0500,0.9900,-7.3100,-0.0131,0.7156,-0.1702,-37.0000,-16.1875,56.7500,116.3750,42.5000,-171.0625,0
1776972562.415,9.5792,1.1085,0.9601,-0.0863,-0.1151,0.2769,-88.3500,13.6500,-3.3000,9.9048,-3.0358,-1.6448,-0.3928,-0.9225,0.7400,17.5500,31.6500,-133.0500,6.0500,0.9900,-7.3100,-0.0502,0.8519,-0.1516,-39.1875,-16.8750,56.3750,116.2500,42.9375,-170.9375,0
1776972562.420,9.5792,1.1085,0.9601,-0.0863,-0.1151,0.2769,-88.3500,13.6500,-3.3000,9.6845,-3.1340,-1.5610,-0.4120,-0.9928,0.7573,17.5500,31.6500,-133.0500,6.4600,1.1300,-7.3400,-0.0502,0.8519,-0.1516,-39.1875,-16.8750,56.3750,116.2500,42.9375,-170.9375,0
1776972562.425,9.5481,1.0654,1.1492,-0.1836,-0.1146,0.2723,-87.3000,12.0000,-3.3000,9.6845,-3.1340,-1.5610,-0.4120,-0.9928,0.7573,17.5500,31.6500,-133.0500,6.4600,1.1300,-7.3400,-0.0818,0.9141,-0.1102,-39.1875,-16.8750,56.3750,116.1875,43.3750,-170.7500,0
1776972562.430,9.5481,1.0654,1.1492,-0.1836,-0.1146,0.2723,-87.3000,12.0000,-3.3000,9.6941,-3.1532,-1.4724,-0.4335,-1.0315,0.7687,17.5500,31.6500,-133.0500,6.4000,1.2100,-7.2300,-0.0818,0.9141,-0.1102,-39.1875,-16.8750,56.3750,116.1875,43.3750,-170.7500,0
1776972562.434,9.6319,1.0463,1.3001,-0.2713,-0.1180,0.2531,-87.0000,12.6000,-3.7500,9.6941,-3.1532,-1.4724,-0.4335,-1.0315,0.7687,17.5500,30.1500,-134.7000,6.4000,1.2100,-7.2300,-0.1593,0.9436,-0.0622,-39.1875,-16.8750,56.3750,116.1250,43.8750,-170.5625,0
1776972562.440,9.6319,1.0463,1.3001,-0.2713,-0.1180,0.2531,-87.0000,12.6000,-3.7500,9.9120,-3.5650,-1.2522,-0.4655,-1.0541,0.8074,17.5500,30.1500,-134.7000,6.3400,1.1400,-7.4100,-0.1593,0.9436,-0.0622,-39.1875,-16.8750,56.3750,116.1250,43.8750,-170.5625,0
1776972562.449,9.8234,1.0654,1.6185,-0.3323,-0.1191,0.2116,-86.5500,12.0000,-4.0500,10.1514,-3.7661,-0.9577,-0.4940,-1.0826,0.8761,18.1500,29.5500,-137.1000,6.3500,1.1900,-7.3300,-0.2989,1.0483,0.0273,-39.1875,-16.8750,56.3750,135.6250,44.3750,-170.3125,0
1776972562.453,10.1275,1.1899,1.6185,-0.3696,-0.1098,0.1439,-86.5500,12.0000,-4.0500,10.1514,-3.7661,-0.9577,-0.4940,-1.0826,0.8761,18.7500,28.8000,-136.3500,6.3500,1.1900,-7.3300,-0.4298,1.1519,0.1102,-39.1875,-16.8750,56.3750,135.8125,44.9375,-170.0625,0
1776972562.460,10.1275,1.1899,1.6185,-0.3696,-0.1098,0.1439,-86.5500,12.0000,-4.0500,10.8194,-3.3950,-1.0271,-0.4988,-1.0853,0.9473,18.7500,28.8000,-136.3500,6.2100,1.0100,-7.3200,-0.4298,1.1519,0.1102,-39.1875,-16.8750,56.3750,135.8125,44.9375,-170.0625,0
1776972562.465,10.3813,1.4772,1.6065,-0.4024,-0.1029,0.0866,-88.2000,11.8500,-4.2000,11.3318,-3.1268,-0.9266,-0.5790,-1.0952,1.0008,19.0500,27.9000,-136.5000,6.3300,1.1700,-7.3400,-0.5400,1.3384,0.1745,-40.6875,-17.2500,54.3750,136.1250,45.6250,-169.7500,0
1776972562.470,10.3813,1.4772,1.6065,-0.4024,-0.1029,0.0866,-88.2000,11.8500,-4.2000,11.3318,-3.1268,-0.9266,-0.5790,-1.0952,1.0008,19.0500,27.9000,-136.5000,6.3300,1.1700,-7.3400,-0.5400,1.3384,0.1745,-40.6875,-17.2500,54.3750,136.1250,45.6250,-169.7500,0
1776972562.475,10.3980,1.8028,1.6233,-0.3922,-0.1045,0.0141,-88.2000,11.8500,-4.2000,11.9279,-3.1196,-0.4381,-0.7075,-1.1125,1.0704,19.0500,27.9000,-136.5000,6.3300,1.1700,-7.3400,-0.6752,1.5435,0.2291,-40.6875,-17.2500,54.3750,136.5625,46.4375,-169.3750,0
1776972562.480,10.3980,1.8028,1.6233,-0.3922,-0.1045,0.0141,-88.2000,11.8500,-4.2000,11.9279,-3.1196,-0.4381,-0.7075,-1.1125,1.0704,19.0500,27.9000,-136.5000,6.3300,1.2400,-7.1400,-0.6752,1.5435,0.2291,-40.6875,-17.2500,54.3750,136.5625,46.4375,-169.3750,0
1776972562.485,10.3286,2.1691,1.8675,-0.3560,-0.1063,-0.0818,-88.2000,13.0500,-2.7000,12.1937,-2.7318,0.0551,-0.8039,-1.1679,1.1279,19.0500,27.9000,-136.5000,6.3300,1.2400,-7.1400,-0.8432,1.8075,0.3251,-40.6875,-17.2500,54.3750,137.0000,47.4375,-168.8750,0
1776972562.490,10.3286,2.1691,1.8675,-0.3560,-0.1063,-0.0818,-88.2000,13.0500,-2.7000,12.1937,-2.7318,0.0551,-0.8039,-1.1679,1.1279,19.0500,27.9000,-136.5000,6.1900,1.4200,-7.3100,-0.8432,1.8075,0.3251,-40.6875,-17.2500,54.3750,137.5000,48.6250,-168.3750,0
1776972562.499,10.1778,2.6839,1.9944,-0.2840,-0.1234,-0.2001,-86.8500,12.4500,-3.3000,12.6581,-2.1955,-0.1652,-0.9054,-1.2907,1.1815,21.6000,25.6500,-139.8000,6.2900,1.2400,-7.1500,-0.9730,2.1151,0.4407,-40.6875,-17.2500,54.3750,137.5000,48.6250,-168.3750,0
1776972562.506,10.3597,2.9568,1.8794,-0.2094,-0.1511,-0.3262,-89.5500,13.9500,-2.8500,12.7419,-1.6664,0.0694,-1.0275,-1.4552,1.2143,21.1500,24.1500,-140.1000,6.2400,1.1500,-7.1600,-0.9468,2.4118,0.5040,-40.6875,-17.2500,54.3750,137.8125,50.0000,-167.8125,0
1776972562.511,10.4770,3.1268,1.4102,-0.1274,-0.2427,-0.4703,-89.5500,13.9500,-2.8500,12.7419,-1.6664,0.0694,-1.0275,-1.4552,1.2143,23.4000,23.4000,-140.8500,6.2400,1.1500,-7.1600,-0.9468,2.4118,0.5040,-40.6875,-17.2500,54.3750,137.8125,50.0000,-167.8125,0
1776972562.516,10.4770,3.1268,1.4102,-0.1274,-0.2427,-0.4703,-88.2000,13.0500,-3.7500,12.8233,-0.7350,-0.0838,-1.1018,-1.5719,1.2199,23.4000,23.4000,-140.8500,6.8900,1.5500,-7.2700,-0.9065,2.6769,0.5596,-44.3750,-16.1875,52.7500,138.0000,51.5000,-167.3125,0
1776972562.521,10.3334,2.9353,0.5650,-0.0703,-0.3691,-0.6187,-88.2000,13.0500,-3.7500,12.8233,-0.7350,-0.0838,-1.1018,-1.5719,1.2199,23.7000,22.2000,-141.9000,6.8900,1.5500,-7.2700,-0.9065,2.6769,0.5596,-44.3750,-16.1875,52.7500,138.0000,51.5000,-167.3125,0
1776972562.526,10.3334,2.9353,0.5650,-0.0703,-0.3691,-0.6187,-88.2000,13.5000,-3.4500,12.5696,-0.1724,-0.4764,-1.2263,-1.6657,1.2311,23.7000,22.2000,-141.9000,6.4000,1.8100,-6.4300,-0.8334,2.7434,0.6665,-44.3750,-16.1875,52.7500,138.0000,53.0625,-166.8750,0
1776972562.531,9.9288,2.3990,-0.4573,-0.0738,-0.5356,-0.7424,-88.2000,13.5000,-3.4500,12.5696,-0.1724,-0.4764,-1.2263,-1.6657,1.2311,23.7000,22.2000,-141.9000,6.4000,1.8100,-6.4300,-0.8334,2.7434,0.6665,-44.3750,-16.1875,52.7500,138.0000,53.0625,-166.8750,0
1776972562.539,9.1842,1.8076,-0.9529,-0.0738,-0.5356,-0.7424,-87.3000,15.1500,-2.1000,11.7819,0.2394,-1.0487,-1.3358,-1.7000,1.2188,23.7000,22.2000,-141.9000,5.5100,1.9100,-5.7100,-0.6567,2.9823,0.8116,-44.3750,-16.1875,52.7500,137.7500,54.8125,-166.5625,0
1776972562.549,8.6862,1.1061,-1.2498,-0.1210,-0.6971,-0.8759,-87.3000,15.1500,-2.1000,11.4994,0.1580,-1.6879,-1.4581,-1.7888,1.2041,25.2000,22.2000,-144.7500,7.4100,0.4300,-6.6700,-0.4560,3.7917,0.8116,-44.3750,-16.1875,52.7500,137.1250,56.9375,-166.2500,0
1776972562.557,8.6862,1.1061,-1.2498,-0.2102,-0.8346,-1.0222,-87.6000,13.6500,-4.3500,10.2352,-0.5866,-1.6137,-1.4805,-1.9193,1.2188,25.2000,20.4000,-145.8000,9.4400,2.1600,-6.1700,-0.3502,4.0012,0.8181,-44.3750,-16.1875,52.7500,136.4375,59.1875,-165.9375,0
1776972562.562,8.3390,0.5124,-1.4054,-0.4389,-0.9832,-1.1850,-87.6000,13.6500,-4.3500,9.2991,-1.4964,-0.7973,-1.3616,-1.9215,1.2548,25.5000,18.9000,-147.3000,9.4400,2.1600,-6.1700,-0.3502,4.0012,0.8181,-44.3750,-16.1875,52.7500,136.4375,59.1875,-165.9375,0
1776972562.567,8.3390,0.5124,-1.4054,-0.4389,-0.9832,-1.1850,-87.6000,13.6500,-4.3500,9.2991,-1.4964,-0.7973,-1.3616,-1.9215,1.2548,25.5000,18.9000,-147.3000,10.1400,4.5500,-6.5700,-0.3131,3.9848,1.0701,-50.5000,-17.2500,46.5625,135.6250,61.5000,-165.8125,0
1776972562.572,7.7117,-0.2131,-0.9433,-0.7253,-1.1149,-1.3670,-87.6000,13.6500,-4.3500,8.6407,-1.2689,-1.0582,-1.2071,-1.8783,1.3502,23.2500,20.5500,-149.2500,10.1400,4.5500,-6.5700,-0.3131,3.9848,1.0701,-50.5000,-17.2500,46.5625,135.6250,61.5000,-165.8125,0
1776972562.577,7.7117,-0.2131,-0.9433,-0.7253,-1.1149,-1.3670,-87.7500,15.0000,-6.0000,8.6407,-1.2689,-1.0582,-1.2071,-1.8783,1.3502,23.2500,20.5500,-149.2500,10.7400,5.0400,-9.8800,0.3382,4.0906,1.4595,-50.5000,-17.2500,46.5625,134.0625,63.8750,-166.5000,0
1776972562.582,7.3837,-0.5100,-0.5818,-0.9689,-1.1237,-1.5327,-87.7500,15.0000,-6.0000,9.0142,-1.6400,-2.0399,-1.1103,-1.7917,1.4384,24.3000,17.5500,-149.8500,10.7400,5.0400,-9.8800,0.3382,4.0906,1.4595,-50.5000,-17.2500,46.5625,132.0625,66.0625,-167.8750,0
1776972562.590,7.2999,-0.6273,-0.4286,-1.1314,-1.0986,-1.6659,-87.6000,16.3500,-5.8500,9.0142,-1.6400,-2.0399,-1.1103,-1.7917,1.4384,24.3000,17.5500,-149.8500,10.3200,1.4700,-6.4300,0.9098,3.6128,1.5915,-50.5000,-17.2500,46.5625,130.2500,68.3750,-169.4375,0
1776972562.599,7.4508,-0.5650,-0.3328,-1.2590,-1.0773,-1.7563,-86.7000,16.5000,-5.7000,9.1985,-2.6552,-3.2298,-1.0941,-1.9121,1.5505,22.6500,15.9000,-149.8500,10.4900,2.0300,-5.0600,0.7199,3.9226,1.7061,-50.5000,-17.2500,46.5625,130.2500,68.3750,-169.4375,0
1776972562.609,8.1499,-0.4549,-0.2155,-1.2697,-1.0525,-1.8389,-87.6000,16.8000,-6.9000,9.2512,-3.5458,-3.5291,-1.0736,-1.9931,1.6899,23.4000,15.1500,-153.3000,12.8700,2.4800,-6.6300,0.5247,4.2204,1.6962,-50.5000,-17.2500,46.5625,128.6875,70.8125,-171.1875,0
1776972562.614,8.1499,-0.4549,-0.2155,-1.2697,-1.0525,-1.8389,-86.8500,18.7500,-5.8500,8.9902,-4.8698,-3.8523,-1.1815,-1.8303,1.7389,23.4000,15.1500,-153.3000,12.8700,2.4800,-6.6300,0.5247,4.2204,1.6962,-50.5000,-17.2500,46.5625,128.6875,70.8125,-171.1875,0
1776972562.619,9.1435,-0.6512,-0.3352,-1.1956,-0.9958,-1.8847,-86.8500,18.7500,-5.8500,8.9902,-4.8698,-3.8523,-1.1815,-1.8303,1.7389,23.8500,12.0000,-152.1000,13.0000,2.0700,-6.5300,0.1713,4.3568,1.6592,-59.2500,-15.5000,38.2500,127.5000,73.3750,-173.1250,0
1776972562.624,9.1435,-0.6512,-0.3352,-1.1956,-0.9958,-1.8847,-85.5000,20.1000,-5.7000,8.6838,-5.7988,-5.3056,-1.3702,-1.9870,1.7107,23.8500,12.0000,-152.1000,13.0000,2.0700,-6.5300,0.1713,4.3568,1.6592,-59.2500,-15.5000,38.2500,127.5000,73.3750,-173.1250,0
1776972562.629,10.4387,-1.0487,-0.4334,-1.1490,-0.9662,-1.9351,-85.5000,20.1000,-5.7000,8.6838,-5.7988,-5.3056,-1.5226,-2.1861,1.6710,24.1500,7.6500,-150.4500,14.4200,3.0700,-6.9400,-0.1353,4.3470,1.6821,-59.2500,-15.5000,38.2500,126.5625,75.8125,-175.5625,0
1776972562.634,10.4387,-1.0487,-0.4334,-1.1490,-0.9662,-1.9351,-85.5000,20.1000,-5.7000,7.7883,-6.9312,-7.0509,-1.5226,-2.1861,1.6710,24.1500,7.6500,-150.4500,14.4200,3.0700,-6.9400,-0.3240,4.5149,1.6526,-59.2500,-15.5000,38.2500,125.8750,78.3750,-178.8750,0
1776972562.640,11.9183,-1.2091,0.0000,-1.2628,-0.9105,-1.9817,-85.5000,20.1000,-5.7000,7.5633,-8.3534,-7.7764,-1.6326,-2.2407,1.6238,24.6000,-1.5000,-150.6000,18.2200,3.0100,-9.7100,-0.3240,4.5149,1.6526,-59.2500,-15.5000,38.2500,125.6250,80.7500,176.9375,0
1776972562.649,13.1035,-0.6369,-0.2011,-1.4200,-0.9281,-2.0225,-85.5000,20.4000,-5.7000,6.6176,-8.7915,-7.9200,-1.5945,-2.1717,1.5423,24.6000,-1.5000,-150.6000,17.0200,2.8700,-10.2500,-0.8716,4.2401,1.4661,-59.2500,-15.5000,38.2500,125.6250,80.7500,176.9375,0
1776972562.659,13.4674,-0.0575,-0.4046,-1.4978,-0.8847,-2.0371,-85.5000,20.4000,-5.7000,6.4045,-8.5976,-7.6662,-1.6177,-1.7661,1.3587,21.3000,-21.7500,-142.8000,14.5500,2.9900,-10.0000,-1.3570,3.4994,1.3483,-59.2500,-15.5000,38.2500,125.8125,82.5625,171.2500,0
1776972562.664,13.5536,0.7326,-0.3567,-1.4978,-0.8847,-2.0371,-85.3500,25.0500,-6.1500,6.4045,-8.5976,-7.6662,-1.6177,-1.7661,1.3587,21.3000,-21.7500,-142.8000,14.5500,2.9900,-10.0000,-1.3570,3.4994,1.3483,-59.2500,-15.5000,38.2500,126.1875,83.8750,178.2500,0
1776972562.669,13.5536,0.7326,-0.3567,-1.5673,-0.8319,-2.0137,-85.3500,25.0500,-6.1500,5.5761,-6.7133,-8.4204,-1.6939,-1.5799,1.1642,20.1000,-31.6500,-136.2000,11.5400,2.7500,-9.7000,-1.6908,2.6834,1.3068,-68.0000,-10.6875,28.5625,126.1875,83.8750,178.2500,0
1776972562.674,13.4865,0.3759,-0.1772,-1.5673,-0.8319,-2.0137,-83.7000,24.7500,-7.9500,5.5761,-6.7133,-8.4204,-1.6939,-1.5799,1.1642,20.1000,-31.6500,-136.2000,11.5400,2.7500,-9.7000,-1.6908,2.6834,1.3068,-68.0000,-10.6875,28.5625,126.5625,84.7500,177.5625,0
1776972562.679,13.4865,0.3759,-0.1772,-1.5902,-0.6949,-1.9636,-83.7000,24.7500,-7.9500,2.4780,-6.7086,-8.2624,-1.7922,-1.2529,1.1319,15.3000,-42.1500,-131.2500,7.1500,0.6400,-12.6000,-1.8828,2.2602,1.4475,-68.0000,-10.6875,28.5625,126.5625,84.7500,177.5625,0
1776972562.686,13.9247,0.7590,-0.7278,-1.6028,-0.5425,-1.8866,-84.6000,25.0500,-6.1500,2.4780,-6.7086,-8.2624,-1.7922,-1.2529,1.1319,15.3000,-42.1500,-131.2500,4.2600,-2.7200,-15.0300,-2.0649,1.7530,1.9886,-68.0000,-10.6875,28.5625,126.7500,84.8750,176.5000,0
1776972562.691,13.9247,0.7590,-0.7278,-1.6028,-0.5425,-1.8866,-84.6000,25.0500,-6.1500,1.6903,-5.8131,-7.7764,-1.8229,-1.2257,0.9707,11.5500,-50.2500,-121.3500,4.2600,-2.7200,-15.0300,-2.0649,1.7530,1.9886,-68.0000,-10.6875,28.5625,126.4375,83.8750,175.0625,0
1776972562.700,13.5895,0.9433,-1.0558,-1.4914,-0.5995,-1.8687,-83.1000,27.7500,-5.5500,-0.2682,-4.3934,-7.7141,-1.5932,-0.9747,0.7941,9.6000,-56.4000,-116.5500,13.4500,-2.9600,-12.4300,-2.0846,0.3992,2.7402,-68.0000,-10.6875,28.5625,125.8750,82.3125,121.8125,0
1776972562.710,12.8880,0.8978,-1.3910,-1.3638,-0.6297,-1.8985,-81.6000,25.8000,-6.1500,-2.7270,-4.2377,-7.8171,-1.2694,-1.1250,0.7370,9.6000,-56.4000,-116.5500,14.0400,3.0800,-19.4600,-1.8544,-0.6338,3.0041,-68.0000,-10.6875,28.5625,125.8750,82.3125,121.8125,0
1776972562.714,12.8569,1.2570,-1.0750,-1.2428,-0.4442,-1.9121,-81.9000,27.0000,-6.6000,-2.7270,-4.2377,-7.8171,-1.2694,-1.1250,0.7370,9.6000,-56.4000,-116.5500,14.0400,3.0800,-19.4600,-1.8544,-0.6338,3.0041,-68.0000,-10.6875,28.5625,125.3125,80.1875,125.2500,0
1776972562.719,12.8569,1.2570,-1.0750,-1.2428,-0.4442,-1.9121,-81.9000,27.0000,-6.6000,-4.0151,-3.5769,-8.0493,-0.8505,-0.2539,0.5646,9.0000,-68.2500,-110.4000,2.2600,5.5000,-9.8700,-2.0857,-2.6594,2.8645,-67.8750,-9.5625,19.0625,125.3125,80.1875,125.2500,0
1776972562.724,13.1873,0.9840,-1.5371,-0.9585,-0.3277,-1.8319,-81.9000,27.0000,-6.6000,-4.0151,-3.5769,-8.0493,-0.8505,-0.2539,0.5646,9.0000,-68.2500,-110.4000,2.2600,5.5000,-9.8700,-2.0857,-2.6594,2.8645,-67.8750,-9.5625,19.0625,125.3125,80.1875,125.2500,0
1776972562.729,13.1873,0.9840,-1.5371,-0.9585,-0.3277,-1.8319,-81.9000,27.0000,-6.6000,-3.4237,-2.9736,-7.8865,0.1284,0.4738,0.2217,10.9500,-73.6500,-108.7500,-0.9800,5.7500,-5.9000,-1.7541,-3.8790,2.6420,-67.8750,-9.5625,19.0625,124.5625,77.6875,130.3125,0
1776972562.734,13.2160,0.6584,-2.2697,-0.5470,-0.3187,-1.7086,-80.4000,29.2500,-5.8500,-3.4237,-2.9736,-7.8865,0.1284,0.4738,0.2217,10.9500,-73.6500,-108.7500,-0.9800,5.7500,-5.9000,-1.1890,-3.9172,2.4326,-67.8750,-9.5625,19.0625,123.5000,75.2500,133.9375,0
1776972562.740,13.2160,0.6584,-2.2697,-0.5470,-0.3187,-1.7086,-80.4000,29.2500,-5.8500,-2.3128,-1.1779,-8.1834,1.1730,1.5050,-0.2952,12.6000,-77.2500,-106.0500,-1.9100,4.5000,-4.0700,-1.1890,-3.9172,2.4326,-67.8750,-9.5625,19.0625,122.3750,73.0000,136.2500,0
1776972562.750,11.8872,1.7789,-1.6257,-0.3040,-0.0091,-1.6342,-80.4000,29.2500,-5.8500,-0.3184,-0.5698,-10.8936,1.6609,2.3734,-0.9686,9.3000,-75.0000,-105.4500,-0.7400,1.5300,-3.8800,-0.7669,-3.5310,2.1675,-67.8750,-9.5625,19.0625,122.3750,73.0000,136.2500,0
1776972562.759,11.3342,1.8196,-1.8028,0.0754,0.1212,-1.5828,-79.0500,32.2500,-6.4500,1.0894,1.2713,-11.9495,1.5900,3.3286,-1.5457,7.9500,-70.5000,-105.0000,-0.2400,0.7300,-3.6700,-0.7658,-3.1689,1.7770,-67.8750,-9.5625,19.0625,121.4375,71.0625,138.1250,0
1776972562.764,11.3772,2.5977,-2.0949,0.3973,0.0669,-1.4911,-78.0000,32.2500,-6.0000,1.0894,1.2713,-11.9495,1.5900,3.3286,-1.5457,7.9500,-70.5000,-105.0000,-0.2400,0.7300,-3.6700,-0.7658,-3.1689,1.7770,-67.8750,-9.5625,19.0625,121.4375,71.0625,138.1250,0
1776972562.769,11.2264,2.8802,-2.4397,0.3973,0.0669,-1.4911,-78.0000,32.2500,-6.0000,4.4412,1.6783,-10.8433,0.8236,4.5051,-1.7997,7.9500,-70.5000,-105.0000,0.3600,0.6800,-3.8100,-1.1334,-2.9212,1.3308,-60.5625,-5.7500,26.5000,121.0000,69.3125,140.1250,0
1776972562.774,11.2264,2.8802,-2.4397,0.5606,-0.0560,-1.4277,-78.3000,33.4500,-5.7000,5.5569,1.2306,-6.8929,-0.1804,4.1949,-1.6872,7.9500,-70.5000,-105.0000,0.3600,0.6800,-3.8100,-1.1334,-2.9212,1.3308,-60.5625,-5.7500,26.5000,121.0000,69.3125,140.1250,0
1776972562.779,10.4387,2.6887,-2.5259,0.5606,-0.0560,-1.4277,-78.3000,33.4500,-5.7000,5.5569,1.2306,-6.8929,-0.1804,4.1949,-1.6872,-0.1500,-55.2000,-96.6000,1.7700,0.7900,-4.4300,-1.5904,-2.6998,0.8901,-60.5625,-5.7500,26.5000,121.1875,67.8750,142.4375,0
1776972562.785,10.4387,2.6887,-2.5259,0.5356,-0.1492,-1.4032,-77.7000,34.0500,-5.5500,5.1356,-0.3280,-5.9544,-0.7821,3.1805,-1.4962,-0.1500,-55.2000,-96.6000,1.7700,0.7900,-4.4300,-1.9384,-2.5504,0.4680,-60.5625,-5.7500,26.5000,121.8750,66.5625,145.0000,0
1776972562.790,9.6295,2.0111,-2.6863,0.4509,-0.2353,-1.3819,-77.7000,34.0500,-5.5500,5.1356,-0.3280,-5.9544,-0.7821,3.1805,-1.4962,-3.9000,-51.3000,-97.2000,5.1800,0.2000,-6.7100,-1.9384,-2.5504,0.4680,-60.5625,-5.7500,26.5000,122.9375,65.2500,148.0000,0
1776972562.800,9.4020,1.0247,-3.0502,0.4026,-0.3603,-1.3518,-78.1500,34.0500,-6.1500,3.7804,-2.2577,-5.8083,-0.8932,2.6803,-1.3376,-6.4500,-46.8000,-97.2000,5.3600,-0.5600,-6.3800,-2.1217,-2.7903,0.0665,-60.5625,-5.7500,26.5000,122.9375,65.2500,148.0000,0
1776972562.809,9.1051,0.6105,-3.0191,0.3499,-0.5097,-1.3059,-76.2000,36.3000,-7.6500,3.4955,-2.7533,-6.4308,-0.6494,2.6510,-1.1876,-6.9000,-45.7500,-95.7000,4.9600,-1.8300,-5.8200,-2.2700,-3.0718,-0.2771,-60.5625,-5.7500,26.5000,124.3125,63.8750,151.3750,0
1776972562.814,9.1051,0.6105,-3.0191,0.3499,-0.5097,-1.3059,-76.2000,36.3000,-7.6500,4.0127,-2.4086,-8.0661,-0.3744,2.4794,-1.0152,-6.9000,-45.7500,-95.7000,4.9600,-1.8300,-5.8200,-2.2700,-3.0718,-0.2771,-60.5625,-5.7500,26.5000,126.0000,62.5000,154.6875,0
1776972562.819,8.7460,0.4812,-2.9353,0.2907,-0.6662,-1.2534,-76.2000,36.3000,-7.6500,4.0127,-2.4086,-8.0661,-0.3744,2.4794,-1.0152,-6.9000,-45.7500,-95.7000,5.2700,-4.5500,-6.3800,-2.3540,-3.0707,-0.5334,-49.0625,-7.3750,32.5000,126.0000,62.5000,154.6875,0
1776972562.824,8.7460,0.4812,-2.9353,0.2907,-0.6662,-1.2534,-76.2000,36.3000,-7.6500,5.0278,-2.4900,-7.3861,-0.4154,2.4392,-0.9494,-6.9000,-45.7500,-95.7000,5.2700,-4.5500,-6.3800,-2.3540,-3.0707,-0.5334,-49.0625,-7.3750,32.5000,126.0000,62.5000,154.6875,0
1776972562.829,8.4443,0.5938,-2.6193,0.2182,-0.7911,-1.2087,-76.6500,35.5500,-7.3500,5.0278,-2.4900,-7.3861,-0.4154,2.4392,-0.9494,-6.9000,-45.7500,-95.7000,6.1500,-5.8600,-6.9600,-2.5187,-3.1809,-0.6883,-49.0625,-7.3750,32.5000,127.9375,61.0000,158.0625,0
1776972562.834,8.4443,0.5938,-2.6193,0.2182,-0.7911,-1.2087,-76.6500,35.5500,-7.3500,6.0047,-3.1436,-6.7157,-0.8876,2.3257,-0.9739,-6.9000,-45.7500,-95.7000,6.1500,-5.8600,-6.9600,-2.6518,-2.8329,-0.7483,-49.0625,-7.3750,32.5000,130.2500,59.6875,161.1875,0
1776972562.841,8.4204,1.0487,-2.0470,0.1223,-0.8423,-1.1588,-76.6500,35.5500,-7.3500,6.0047,-3.1436,-6.7157,-0.8876,2.3257,-0.9739,-6.4500,-44.2500,-93.3000,7.0900,-6.8500,-7.5600,-2.6518,-2.8329,-0.7483,-49.0625,-7.3750,32.5000,132.6250,58.3750,164.0000,0
1776972562.850,8.5162,1.4533,-1.3743,0.0437,-0.8175,-1.1093,-75.3000,36.9000,-10.0500,6.2824,-3.5482,-6.5745,-1.2303,2.4749,-1.0437,-5.4000,-46.5000,-91.2000,7.6700,-7.4400,-7.0100,-2.6409,-2.6889,-0.6850,-49.0625,-7.3750,32.5000,132.6250,58.3750,164.0000,0
1776972562.860,8.5976,1.8771,-1.0032,-0.0285,-0.7791,-1.0749,-74.1000,38.5500,-8.7000,6.3566,-3.3495,-6.6535,-1.2268,2.7598,-1.1501,-5.4000,-46.8000,-92.2500,8.1300,-6.9400,-6.8600,-2.5384,-2.6278,-0.4691,-49.0625,-7.3750,32.5000,134.9375,57.0625,166.3750,0
1776972562.865,8.5976,1.8771,-1.0032,-0.0285,-0.7791,-1.0749,-75.3000,38.5500,-9.3000,6.5314,-2.9281,-6.6631,-1.2020,2.9516,-1.2582,-6.3000,-45.4500,-88.8000,8.1300,-6.9400,-6.8600,-2.5384,-2.6278,-0.4691,-49.0625,-7.3750,32.5000,134.9375,57.0625,166.3750,0
1776972562.870,8.4659,2.4517,-0.7135,-0.1122,-0.7365,-1.0203,-75.3000,38.5500,-9.3000,6.5314,-2.9281,-6.6631,-1.2020,2.9516,-1.2582,-6.3000,-45.4500,-88.8000,8.5800,-6.0400,-6.7700,-2.3453,-2.5307,-0.1713,-37.5625,-10.5625,30.0000,137.0625,55.6875,168.3125,0
1776972562.875,8.4659,2.4517,-0.7135,-0.1122,-0.7365,-1.0203,-75.3000,38.5500,-9.3000,6.6248,-1.9968,-6.4596,-1.2356,3.0494,-1.3046,-6.3000,-45.4500,-88.8000,8.5800,-6.0400,-6.7700,-2.3453,-2.5307,-0.1713,-37.5625,-10.5625,30.0000,137.0625,55.6875,168.3125,0
1776972562.880,8.4587,2.7438,-0.7853,-0.2454,-0.6800,-0.9531,-74.7000,38.7000,-9.9000,6.6248,-1.9968,-6.4596,-1.2356,3.0494,-1.3046,-6.3000,-45.4500,-88.8000,9.2300,-4.8000,-7.1200,-2.1086,-2.4096,0.0545,-37.5625,-10.5625,30.0000,138.8750,54.3750,169.8125,0
1776972562.886,8.4659,2.7246,-0.6847,-0.3992,-0.6784,-0.8844,-75.1500,38.2500,-9.1500,7.1826,-1.4222,-6.7397,-1.3073,2.8304,-1.2857,-6.3000,-45.4500,-88.8000,9.5100,-2.0700,-7.2600,-1.8424,-2.4096,0.1014,-37.5625,-10.5625,30.0000,140.5000,53.0625,171.0625,0
1776972562.891,8.4659,2.7246,-0.6847,-0.3992,-0.6784,-0.8844,-75.1500,38.2500,-9.1500,7.4244,-0.6105,-6.8354,-1.1754,2.6953,-1.2756,-6.3000,-45.4500,-88.8000,9.5100,-2.0700,-7.2600,-1.8424,-2.4096,0.1014,-37.5625,-10.5625,30.0000,141.8750,51.6875,172.1875,0
1776972562.900,8.6000,2.7461,-0.5339,-0.5857,-0.6949,-0.7706,-73.3500,39.6000,-10.0500,7.1587,-0.3831,-7.9679,-0.8639,2.5551,-1.3003,-9.6000,-42.1500,-87.0000,8.9800,-1.0300,-6.9900,-1.5293,-2.4947,-0.0578,-37.5625,-10.5625,30.0000,141.8750,51.6875,172.1875,0
1776972562.910,8.7149,2.6432,-0.2610,-0.7514,-0.7354,-0.6225,-73.3500,39.6000,-10.0500,6.7995,-0.6416,-7.7117,-0.8074,2.4594,-1.4461,-8.8500,-41.7000,-85.6500,8.4300,-0.5700,-6.8400,-1.1716,-2.5515,-0.3523,-37.5625,-10.5625,30.0000,143.1250,50.3125,173.3125,0
1776972562.915,8.7269,3.2154,-0.0239,-0.8740,-0.7317,-0.4551,-73.3500,39.6000,-10.0500,6.7995,-0.6416,-7.7117,-0.8074,2.4594,-1.4461,-7.9500,-41.2500,-84.0000,8.4300,-0.5700,-6.8400,-1.1716,-2.5515,-0.3523,-37.5625,-10.5625,30.0000,144.2500,48.9375,174.3750,0
1776972562.920,8.7269,3.2154,-0.0239,-0.8740,-0.7317,-0.4551,-73.6500,39.0000,-10.3500,6.8690,-2.2290,-6.1962,-0.3880,2.3824,-1.4810,-7.9500,-41.2500,-84.0000,7.0600,-2.2000,-6.2100,-0.8367,-2.5591,-0.7047,-33.5625,-13.2500,31.2500,144.2500,48.9375,174.3750,0
1776972562.924,8.5042,3.4141,-0.1939,-0.7834,-0.6691,-0.3056,-73.6500,39.0000,-10.3500,6.8690,-2.2290,-6.1962,-0.3880,2.3824,-1.4810,-9.3000,-40.5000,-82.6500,7.0600,-2.2000,-6.2100,-0.8367,-2.5591,-0.7047,-33.5625,-13.2500,31.2500,144.2500,48.9375,174.3750,0
1776972562.930,8.5042,3.4141,-0.1939,-0.7834,-0.6691,-0.3056,-73.6500,39.0000,-10.3500,6.3351,-2.9832,-5.8059,-0.2241,2.2537,-1.5569,-9.3000,-40.5000,-82.6500,7.1000,-3.5000,-6.0500,-0.5781,-2.2667,-1.0156,-33.5625,-13.2500,31.2500,145.3125,47.7500,175.5000,0
1776972562.934,8.1882,3.3662,-0.5555,-0.6584,-0.5732,-0.1820,-73.6500,39.0000,-10.3500,6.3351,-2.9832,-5.8059,-0.2241,2.2537,-1.5569,-9.3000,-40.5000,-82.6500,7.1000,-3.5000,-6.0500,-0.4505,-2.0660,-1.1770,-33.5625,-13.2500,31.2500,146.3750,46.6250,176.5000,0
1776972562.941,8.1882,3.3662,-0.5555,-0.6584,-0.5732,-0.1820,-72.4500,39.4500,-10.3500,5.6240,-3.4069,-5.1451,-0.2305,2.1698,-1.6180,-9.3000,-40.5000,-82.6500,6.9800,-4.2600,-5.7100,-0.4505,-2.0660,-1.1770,-33.5625,-13.2500,31.2500,147.4375,45.6250,177.5000,0
1776972562.950,7.9033,3.4836,-0.6656,-0.4794,-0.4636,-0.0751,-73.3500,38.5500,-9.7500,6.0382,-4.4867,-5.1906,-0.3227,2.1645,-1.6542,-9.7500,-40.5000,-82.2000,7.1200,-4.8100,-5.5800,-0.4320,-1.8860,-1.1541,-33.5625,-13.2500,31.2500,147.4375,45.6250,177.5000,0
1776972562.960,7.5824,3.5434,-0.6321,-0.2140,-0.3533,0.0253,-73.9500,39.4500,-8.8500,5.9209,-4.8794,-5.4372,-0.5564,2.0384,-1.7379,-8.8500,-40.9500,-79.9500,7.8800,-4.6800,-5.5500,-0.4745,-1.6952,-0.9916,-33.5625,-13.2500,31.2500,151.8750,44.6875,178.3125,0
1776972562.965,7.4005,3.7326,-0.3879,0.0256,-0.2302,0.1543,-73.9500,39.4500,-8.8500,5.9209,-4.8794,-5.4372,-0.5564,2.0384,-1.7379,-8.1000,-38.7000,-79.2000,7.8800,-4.6800,-5.5500,-0.4745,-1.6952,-0.9916,-33.5625,-13.2500,31.2500,151.5625,43.8125,179.0625,0
1776972562.970,7.4005,3.7326,-0.3879,0.0256,-0.2302,0.1543,-73.0500,40.8000,-10.5000,5.6695,-5.1930,-5.5402,-0.6757,2.1200,-1.7813,-8.1000,-38.7000,-79.2000,8.1100,-4.4200,-5.1500,-0.4974,-1.5806,-0.7581,-27.2500,-12.0625,31.1875,151.5625,43.8125,179.0625,0
1776972562.975,7.2472,3.7493,-0.2753,0.1673,-0.1585,0.2982,-73.0500,40.8000,-10.5000,5.6695,-5.1930,-5.5402,-0.6757,2.1200,-1.7813,-7.8000,-39.4500,-79.5000,8.1100,-4.4200,-5.1500,-0.4974,-1.5806,-0.7581,-27.2500,-12.0625,31.1875,151.3750,43.0625,179.5625,0
1776972562.980,7.2472,3.7493,-0.2753,0.1673,-0.1585,0.2982,-73.0500,40.8000,-11.5500,5.4971,-4.7860,-5.5569,-0.6800,2.2793,-1.8423,-7.8000,-39.4500,-79.5000,8.8400,-3.9500,-5.1500,-0.4974,-1.4246,-0.5203,-27.2500,-12.0625,31.1875,151.3750,43.0625,179.5625,0
1776972562.988,7.0485,3.5147,-0.1221,0.2902,-0.1199,0.4450,-74.1000,40.0500,-10.5000,6.0286,-3.8283,-5.9089,-0.6249,2.4277,-1.8916,-9.3000,-38.5500,-77.5500,12.9400,-2.2900,-7.6300,-0.5116,-1.2414,-0.3709,-27.2500,-12.0625,31.1875,151.2500,42.3750,-179.8750,0
1776972562.993,6.8857,3.1556,-0.0575,0.4159,-0.0954,0.5931,-74.1000,40.0500,-10.5000,6.0286,-3.8283,-5.9089,-0.6249,2.4277,-1.8916,-9.3000,-38.5500,-77.5500,12.9400,-2.2900,-7.6300,-0.5116,-1.2414,-0.3709,-27.2500,-12.0625,31.1875,151.1875,41.5625,-179.3750,0
1776972563.001,6.7684,3.1484,-0.1341,0.4159,-0.0954,0.5931,-74.1000,40.0500,-10.5000,6.8139,-3.0287,-6.7349,-0.6627,2.4616,-1.8826,-9.3000,-38.5500,-77.5500,14.0400,-1.0200,-8.2800,-0.5792,-1.4050,-0.4058,-27.2500,-12.0625,31.1875,150.9375,40.6250,-178.7500,0
1776972563.010,6.7205,3.0191,-0.1963,0.5558,-0.0663,0.7477,-75.9000,39.4500,-10.3500,8.0780,-2.3607,-6.7564,-0.5638,2.3446,-1.8426,-8.4000,-36.1500,-74.5500,13.7200,0.0600,-7.8000,-0.5989,-1.7224,-0.5967,-27.2500,-12.0625,31.1875,150.9375,40.6250,-178.7500,0
1776972563.015,6.7205,3.0191,-0.1963,0.6622,-0.0522,0.9118,-75.9000,39.4500,-10.3500,8.0780,-2.3607,-6.7564,-0.5638,2.3446,-1.8426,-9.9000,-36.9000,-75.6000,13.7200,0.0600,-7.8000,-0.5989,-1.7224,-0.5967,-27.2500,-12.0625,31.1875,150.9375,40.6250,-178.7500,0
1776972563.020,6.7995,2.9808,-0.3065,0.6893,-0.0013,1.0690,-75.9000,39.4500,-10.3500,8.2097,-1.7310,-6.1220,-0.2156,2.3502,-1.7944,-9.9000,-36.9000,-75.6000,11.5300,0.3300,-5.1500,-0.4843,-2.1424,-0.8247,-26.5000,-9.7500,27.0625,150.6250,39.4375,-178.1250,0
1776972563.025,6.7995,2.9808,-0.3065,0.6893,-0.0013,1.0690,-75.9000,39.4500,-10.3500,8.2097,-1.7310,-6.1220,-0.2156,2.3502,-1.7944,-9.3000,-33.3000,-72.9000,11.5300,0.3300,-5.1500,-0.4843,-2.1424,-0.8247,-26.5000,-9.7500,27.0625,150.6250,39.4375,-178.1250,0
1776972563.030,7.1060,3.0670,-0.6009,0.6853,0.0493,1.2215,-74.4000,38.7000,-10.6500,8.2049,-0.7015,-5.3774,0.1871,2.0627,-1.7328,-9.3000,-33.3000,-72.9000,10.9600,0.1000,-4.1700,-0.2738,-2.3093,-1.0352,-26.5000,-9.7500,27.0625,150.1250,38.1250,-177.5625,0
1776972563.035,7.1060,3.0670,-0.6009,0.6853,0.0493,1.2215,-74.4000,38.7000,-10.6500,8.2049,-0.7015,-5.3774,0.5215,1.8383,-1.6760,-9.9000,-32.4000,-71.7000,10.9600,0.1000,-4.1700,-0.1254,-2.3027,-1.2283,-26.5000,-9.7500,27.0625,149.5000,36.8125,-177.0000,0
1776972563.041,7.2664,3.0335,-0.7494,0.5790,0.1250,1.3749,-75.3000,39.3000,-12.0000,8.0685,-0.8164,-5.4372,0.5215,1.8383,-1.6760,-9.7500,-30.3000,-70.8000,10.4700,-0.1000,-3.0700,-0.1254,-2.3027,-1.2283,-26.5000,-9.7500,27.0625,148.7500,35.5625,-176.5000,0
1776972563.050,7.2664,3.0287,-0.9026,0.4069,0.2433,1.5348,-76.0500,38.8500,-11.5500,8.3175,-0.9266,-4.7812,0.9196,1.7368,-1.6846,-9.7500,-30.3000,-70.8000,10.6100,-0.2000,-3.0400,0.0338,-2.1053,-1.4104,-26.5000,-9.7500,27.0625,147.8750,34.4375,-176.0000,0
1776972563.060,7.2520,2.9090,-0.8882,0.2014,0.3595,1.6774,-76.6500,37.0500,-11.1000,8.4420,-1.5323,-4.2904,1.2838,1.8191,-1.6731,-9.7500,-30.3000,-70.8000,10.6500,-0.1900,-2.0200,0.1702,-1.9722,-1.5730,-26.5000,-9.7500,27.0625,147.8750,34.4375,-176.0000,0
1776972563.065,7.2520,2.9090,-0.8882,0.2014,0.3595,1.6774,-76.6500,37.0500,-11.1000,8.9854,-1.8220,-3.0502,1.5791,1.6212,-1.6177,-11.8500,-24.7500,-70.5000,10.6500,-0.1900,-2.0200,0.1702,-1.9722,-1.5730,-26.5000,-9.7500,27.0625,146.8750,33.3750,-175.5625,0
1776972563.070,7.0797,2.7940,-0.9625,0.0453,0.4575,1.7872,-76.6500,37.5000,-11.4000,8.9854,-1.8220,-3.0502,1.5791,1.6212,-1.6177,-11.8500,-24.7500,-70.5000,10.9300,-0.0200,-1.7500,0.2051,-1.7551,-1.7115,-30.5625,-8.1875,30.3750,146.8750,33.3750,-175.5625,0
1776972563.075,7.0797,2.7940,-0.9625,0.0453,0.4575,1.7872,-76.6500,37.5000,-11.4000,9.9216,-2.4397,-3.2968,1.7387,1.4994,-1.5098,-10.0500,-22.0500,-70.5000,10.9300,-0.0200,-1.7500,0.2051,-1.7551,-1.7115,-30.5625,-8.1875,30.3750,145.8750,32.5000,-175.1250,0
1776972563.080,7.1850,2.8467,-1.0367,-0.0197,0.5385,1.8903,-76.6500,36.3000,-11.4000,9.9216,-2.4397,-3.2968,1.7387,1.4994,-1.5098,-10.0500,-20.5500,-69.4500,10.8900,0.5200,-2.0500,0.2891,-1.4573,-1.7824,-30.5625,-8.1875,30.3750,145.8750,32.5000,-175.1250,0
1776972563.088,7.5082,2.4277,-1.0319,-0.0384,0.5934,1.9891,-76.6500,36.3000,-11.4000,10.5153,-2.5139,-2.8754,1.9132,1.2532,-1.3851,-10.0500,-20.5500,-69.4500,11.2500,0.3900,-0.5100,0.4505,-1.3374,-1.8490,-30.5625,-8.1875,30.3750,144.8125,31.6875,-174.7500,0
1776972563.093,7.5082,2.4277,-1.0319,-0.0384,0.5934,1.9891,-76.6500,36.3000,-11.4000,10.5153,-2.5139,-2.8754,1.9132,1.2532,-1.3851,-10.3500,-17.7000,-68.1000,11.2500,0.3900,-0.5100,0.4505,-1.3374,-1.8490,-30.5625,-8.1875,30.3750,143.7500,31.0625,-174.5000,0
1776972563.101,7.7333,3.1364,-2.1141,0.0637,0.6667,2.0568,-78.7500,34.2000,-10.5000,12.3158,-2.4804,-2.0375,2.0590,1.1223,-1.2249,-9.7500,-17.2500,-69.0000,11.8400,-0.5200,-0.9300,0.5781,-0.9425,-1.8391,-30.5625,-8.1875,30.3750,142.6250,30.7500,-174.1875,0
1776972563.110,8.6335,4.3000,-2.8659,0.2846,0.6752,2.0598,-78.7500,34.2000,-10.5000,14.1042,-2.0255,-2.6264,2.1080,0.9294,-1.0190,-9.7500,-17.2500,-69.0000,18.5800,0.8700,-1.5200,0.5640,-0.4134,-1.8980,-30.5625,-8.1875,30.3750,142.6250,30.7500,-174.1875,0
1776972563.115,10.6039,6.0310,-3.1963,0.2846,0.6752,2.0598,-78.7500,34.2000,-10.5000,17.6836,-0.3783,-1.1325,2.1450,0.6323,-0.6081,-9.7500,-17.2500,-69.0000,18.5800,0.8700,-1.5200,0.5640,-0.4134,-1.8980,-30.5625,-8.1875,30.3750,142.6250,30.7500,-174.1875,0
1776972563.120,10.6039,6.0310,-3.1963,0.6259,0.6025,2.0078,-80.1000,31.9500,-9.1500,17.6836,-0.3783,-1.1325,2.1450,0.6323,-0.6081,-7.8000,-13.2000,-67.5000,19.2400,-12.0200,7.7400,0.7614,1.1530,-1.6657,-30.2500,-11.5000,37.0000,141.5625,31.3125,-174.0000,0
1776972563.125,13.3237,8.4994,-3.6176,0.6259,0.6025,2.0078,-80.1000,31.9500,-9.1500,20.1161,-0.5531,-0.1772,2.5325,0.0282,0.0120,-7.8000,-13.2000,-67.5000,19.2400,-12.0200,7.7400,0.7614,1.1530,-1.6657,-30.2500,-11.5000,37.0000,141.5625,31.3125,-174.0000,0
1776972563.130,13.3237,8.4994,-3.6176,1.0280,0.4557,1.8500,-80.8500,32.8500,-10.3500,20.1161,-0.5531,-0.1772,2.5325,0.0282,0.0120,-6.9000,-11.5500,-68.4000,32.0200,-18.0300,-13.5100,2.4151,1.9700,-0.5607,-30.2500,-11.5000,37.0000,140.8125,32.3125,-175.1250,0
1776972563.136,15.2175,10.0245,-3.0047,1.1029,0.3349,1.5511,-80.8500,32.8500,-10.3500,18.6844,-3.3639,0.4573,2.6223,-0.6542,0.6811,-6.9000,-11.5500,-68.4000,32.0200,-18.0300,-13.5100,2.2155,2.6027,-0.6403,-30.2500,-11.5000,37.0000,140.0000,33.7500,-176.0000,0
1776972563.141,15.2175,10.0245,-3.0047,1.1029,0.3349,1.5511,-81.1500,30.9000,-9.9000,18.6844,-3.3639,0.4573,2.6223,-0.6542,0.6811,-3.9000,-8.5500,-69.7500,24.3600,-12.9100,-16.3000,2.2155,2.6027,-0.6403,-30.2500,-11.5000,37.0000,139.7500,33.1250,-175.9375,0
1776972563.151,14.8010,8.9399,-1.6520,0.8092,0.4652,1.1850,-80.4000,29.7000,-10.3500,13.2735,-5.8490,-0.0886,1.4093,-0.8516,1.1143,-4.0500,-7.2000,-70.9500,7.2500,-2.2500,-9.0000,0.1407,-1.1443,-0.4952,-30.2500,-11.5000,37.0000,139.7500,33.1250,-175.9375,0
1776972563.161,14.2072,5.9927,0.7159,0.7834,0.6134,0.9659,-82.6500,28.0500,-9.9000,10.5752,-3.6823,-0.8667,-0.0261,-0.8729,1.1940,-1.5000,-7.6500,-69.9000,-4.1700,6.1000,-8.5700,-1.0396,-2.3987,-0.3218,-30.2500,-11.5000,37.0000,139.8125,31.7500,-175.3125,0
1776972563.165,10.5800,2.4924,0.8882,0.9537,0.7266,0.9100,-82.6500,28.0500,-9.9000,7.2592,1.0104,-0.6752,-0.0024,-1.1242,0.8066,-1.5000,-7.6500,-69.9000,-4.1700,6.1000,-8.5700,-1.0396,-2.3987,-0.3218,-30.2500,-11.5000,37.0000,139.9375,30.6875,-174.8125,0
1776972563.170,10.5800,2.4924,0.8882,0.9537,0.7266,0.9100,-82.3500,28.5000,-8.8500,7.2592,1.0104,-0.6752,1.4690,-0.3714,0.0506,-1.5000,-7.6500,-69.9000,-2.6200,13.0700,-4.9100,-1.0156,-1.9733,-0.0905,-31.5625,-13.7500,38.2500,139.9375,30.6875,-174.8125,0
1776972563.175,8.4108,0.9146,0.8260,0.8223,0.9705,0.9358,-82.3500,28.5000,-8.8500,6.7924,4.6495,0.5483,1.4690,-0.3714,0.0506,-1.5000,-7.6500,-69.9000,-2.6200,13.0700,-4.9100,-1.0156,-1.9733,-0.0905,-31.5625,-13.7500,38.2500,140.1875,30.2500,-174.7500,0
1776972563.181,8.4108,0.9146,0.8260,0.8223,0.9705,0.9358,-82.3500,28.5000,-8.8500,10.5848,4.3263,5.4564,1.0509,1.4120,-0.2361,-2.1000,-3.0000,-68.4000,3.7500,5.0800,-5.3000,-0.2574,-0.7854,0.3240,-31.5625,-13.7500,38.2500,140.1875,30.2500,-174.7500,0
1776972563.190,7.7405,0.4166,0.6081,0.5971,0.9630,1.0344,-82.3500,28.5000,-8.8500,10.8481,1.1037,2.9066,-1.0616,1.2790,0.0624,-4.5000,0.1500,-68.5500,5.0100,-3.8100,-9.5800,0.4287,0.3632,0.2203,-31.5625,-13.7500,38.2500,140.2500,30.4375,-175.0625,0
1776972563.200,7.3430,0.2394,-0.5004,0.3917,0.7869,1.0760,-82.3500,28.5000,-8.8500,10.6973,-0.8236,-3.0358,-1.8612,0.9238,0.2547,-4.9500,-1.5000,-67.2000,2.6300,2.0000,-7.5600,0.2476,-0.0098,0.1996,-31.5625,-13.7500,38.2500,140.3125,30.4375,-175.2500,0
1776972563.208,7.2712,0.8356,-2.3870,0.1599,0.6654,1.0059,-82.3500,28.5000,-8.8500,10.6973,-0.8236,-3.0358,-1.8612,0.9238,0.2547,-4.8000,-2.7000,-69.1500,1.8500,4.6100,-6.8600,0.0022,-0.1614,0.2334,-31.5625,-13.7500,38.2500,140.4375,30.3750,-175.3750,0
1776972563.213,7.7141,1.3240,-3.7972,-0.0187,0.5572,0.8833,-85.0500,27.7500,-7.6500,8.6311,0.3304,-3.0885,-0.0666,0.5814,0.1170,-4.8000,-2.7000,-69.1500,1.8500,4.6100,-6.8600,0.0022,-0.1614,0.2334,-31.5625,-13.7500,38.2500,140.4375,30.3750,-175.3750,0
1776972563.217,7.7141,1.3240,-3.7972,-0.0187,0.5572,0.8833,-85.0500,27.7500,-7.6500,8.6311,0.3304,-3.0885,-0.0666,0.5814,0.1170,-7.2000,0.0000,-70.0500,6.2000,-0.0300,-9.1400,0.0829,0.1734,0.3229,-30.2500,-14.5000,38.5000,140.5625,30.5000,-175.5000,0
1776972563.222,8.5521,1.2977,-4.3239,-0.1412,0.5020,0.8138,-84.0000,27.1500,-9.0000,8.9423,1.4533,-1.1803,1.8532,0.7775,-0.0890,-7.2000,0.0000,-70.0500,6.2000,-0.0300,-9.1400,0.0829,0.1734,0.3229,-30.2500,-14.5000,38.5000,140.5625,30.5000,-175.5000,0
1776972563.227,8.5521,1.2977,-4.3239,-0.1412,0.5020,0.8138,-84.0000,27.1500,-9.0000,8.9423,1.4533,-1.1803,1.8532,0.7775,-0.0890,-7.2000,0.0000,-70.0500,6.5300,0.0100,-8.6400,0.2945,0.7799,0.4123,-30.2500,-14.5000,38.5000,140.7500,30.9375,-175.8125,0
1776972563.232,9.2560,0.8308,-3.4285,-0.2470,0.4714,0.8162,-84.6000,25.8000,-8.1000,10.4339,1.4437,-0.9505,1.6902,0.6547,-0.0184,-7.2000,0.0000,-70.0500,6.5300,0.0100,-8.6400,0.2945,0.7799,0.4123,-30.2500,-14.5000,38.5000,140.9375,31.3750,-176.1250,0
1776972563.241,9.7803,0.1604,-1.5227,-0.2470,0.4714,0.8162,-84.1500,25.8000,-7.6500,10.6710,-0.3615,-1.9609,0.6813,0.3195,0.1679,-8.2500,6.7500,-74.4000,6.0600,-0.0400,-8.6600,0.3676,0.7123,0.3992,-30.2500,-14.5000,38.5000,141.0000,31.7500,-176.3750,0
1776972563.251,9.9862,-0.3089,0.2011,-0.3046,0.4583,0.8402,-84.1500,24.6000,-6.6000,10.0844,-2.1596,-3.2777,0.2284,0.1156,0.2038,-7.9500,8.2500,-74.4000,5.9900,-0.2300,-8.8100,0.4025,0.7330,0.2651,-30.2500,-14.5000,38.5000,141.0000,31.7500,-176.3750,0
1776972563.261,9.9503,-0.6249,1.2091,-0.0221,0.5217,0.8929,-83.8500,24.1500,-7.6500,9.4212,-2.5211,-3.2992,0.3064,-0.1069,0.2318,-8.8500,7.6500,-76.6500,5.9000,-0.3700,-8.9000,0.3512,0.4887,0.2127,-30.2500,-14.5000,38.5000,141.0625,32.0625,-176.6875,0
1776972563.265,9.9503,-0.6249,1.2091,-0.0221,0.5217,0.8929,-83.8500,24.1500,-7.6500,9.4212,-2.5211,-3.2992,0.3064,-0.1069,0.2318,-8.8500,7.6500,-76.6500,5.9000,-0.3700,-8.9000,0.3512,0.4887,0.2127,-30.2500,-14.5000,38.5000,141.0625,32.0625,-176.6875,0
1776972563.271,9.7205,-0.6608,1.3623,0.1607,0.5814,0.9324,-83.8500,24.1500,-7.6500,8.8131,-2.5283,-2.7270,0.4405,-0.1178,0.2936,-7.0500,6.1500,-75.6000,6.0100,-0.7400,-8.9600,0.2171,0.1145,0.2236,-30.5000,-14.5000,38.0000,141.1250,32.1250,-176.8750,0
1776972563.275,9.7205,-0.6608,1.3623,0.1607,0.5814,0.9324,-83.8500,24.1500,-7.6500,8.8131,-2.5283,-2.7270,0.4405,-0.1178,0.2936,-7.0500,6.1500,-75.6000,6.0100,-0.7400,-8.9600,0.2171,0.1145,0.2236,-30.5000,-14.5000,38.0000,141.1250,32.1250,-176.8750,0
1776972563.281,9.3685,-0.4764,1.3719,0.2078,0.6315,0.9808,-85.2000,23.5500,-7.5000,8.1044,-1.6735,-2.4588,0.3307,0.0685,0.3259,-7.0500,6.1500,-75.6000,5.2100,0.2700,-8.4900,-0.0120,-0.0676,0.1505,-30.5000,-14.5000,38.0000,141.1875,32.0625,-176.8750,0
1776972563.289,9.0501,-0.2227,1.2330,0.2078,0.6315,0.9808,-85.2000,23.5500,-7.5000,8.6383,-0.7805,-3.6440,0.3437,0.0354,0.3211,-7.0500,6.1500,-75.6000,5.2000,0.4300,-8.3200,-0.1887,-0.1058,0.0720,-30.5000,-14.5000,38.0000,141.3125,32.0625,-176.8125,0
1776972563.294,9.0501,-0.2227,1.2330,0.2220,0.6278,1.0222,-85.2000,23.5500,-7.5000,8.6383,-0.7805,-3.6440,0.3437,0.0354,0.3211,-7.0500,6.1500,-75.6000,5.2000,0.4300,-8.3200,-0.1887,-0.1058,0.0720,-30.5000,-14.5000,38.0000,141.3125,32.0000,-176.7500,0
1776972563.301,9.0261,0.3950,0.7925,0.2417,0.5609,1.0576,-85.9500,23.2500,-5.2500,8.8705,-0.4669,-2.3152,0.5963,0.2832,0.2689,-10.8000,2.2500,-73.3500,4.9500,0.4800,-8.3000,-0.1396,-0.0240,0.0393,-30.5000,-14.5000,38.0000,141.3750,32.0625,-176.7500,0
1776972563.311,9.1028,0.8212,0.3352,0.2425,0.4855,1.0949,-85.0500,22.6500,-6.1500,9.3494,-0.8954,-1.0965,0.5196,0.3539,0.2798,-9.3000,0.3000,-71.5500,5.0300,0.4200,-8.4500,-0.0251,0.0207,0.0415,-30.5000,-14.5000,38.0000,141.3750,32.0625,-176.7500,0
1776972563.316,9.1028,0.8212,0.3352,0.2425,0.4855,1.0949,-85.0500,22.6500,-6.1500,9.8569,-1.0630,-0.6440,0.4263,0.4210,0.2862,-9.1500,0.9000,-71.5500,5.0300,0.4200,-8.4500,-0.0251,0.0207,0.0415,-30.5000,-14.5000,38.0000,141.3750,32.0625,-176.7500,0
1776972563.321,9.2368,0.7925,0.1197,0.2497,0.4647,1.1381,-86.7000,22.8000,-6.4500,9.8569,-1.0630,-0.6440,0.4263,0.4210,0.2862,-9.1500,0.9000,-72.4500,5.0500,0.3000,-8.4900,-0.0164,0.0916,0.0316,-31.1875,-13.7500,37.8750,141.3750,32.0625,-176.7500,0
1776972563.326,9.2368,0.7925,0.1197,0.2497,0.4647,1.1381,-86.7000,22.8000,-6.4500,10.1251,-0.9649,0.2658,0.4106,0.5510,0.2699,-8.1000,1.2000,-71.4000,5.0500,0.3000,-8.4900,-0.0164,0.0916,0.0316,-31.1875,-13.7500,37.8750,141.3750,32.1875,-176.7500,0
1776972563.331,9.5385,0.7853,-0.2155,0.3118,0.4647,1.1548,-86.2500,20.4000,-4.9500,10.1251,-0.9649,0.2658,0.4106,0.5510,0.2699,-8.1000,1.2000,-71.4000,5.5600,0.4500,-8.3600,0.0229,0.2334,-0.0142,-31.1875,-13.7500,37.8750,141.3750,32.1875,-176.7500,0
1776972563.336,9.5385,0.7853,-0.2155,0.3118,0.4647,1.1548,-86.2500,20.4000,-4.9500,10.7380,0.2753,1.1612,0.3557,0.5033,0.3200,-8.1000,1.2000,-71.4000,5.5600,0.4500,-8.3600,0.0665,0.2629,-0.0578,-31.1875,-13.7500,37.8750,141.3125,32.3750,-176.7500,0
1776972563.342,9.6055,0.8715,-0.6488,0.3776,0.4546,1.0973,-85.9500,21.3000,-4.5000,10.7380,0.2753,1.1612,0.3557,0.5033,0.3200,-8.1000,1.2000,-71.4000,5.6100,0.4900,-8.4000,0.0665,0.2629,-0.0578,-31.1875,-13.7500,37.8750,141.2500,32.5000,-176.8125,0
1776972563.351,9.6031,1.3240,-0.8763,0.4466,0.4860,0.9465,-86.5500,20.7000,-4.0500,10.3956,1.4174,2.1332,0.3437,0.2923,0.4122,-8.1000,1.2000,-71.4000,5.6000,0.3700,-8.3400,0.0665,0.2258,-0.0796,-31.1875,-13.7500,37.8750,141.2500,32.5000,-176.8125,0
1776972563.361,9.6582,1.4700,-0.6943,0.5367,0.4943,0.7520,-86.5500,20.7000,-4.0500,10.2185,1.6568,3.0957,0.2228,0.1498,0.4748,-7.5000,2.2500,-73.3500,5.1600,0.2200,-8.1700,0.0600,0.1702,-0.0982,-31.1875,-13.7500,37.8750,141.1875,32.5625,-176.7500,0
1776972563.366,9.8665,1.6161,-0.2825,0.5367,0.4943,0.7520,-86.5500,20.7000,-4.0500,10.3190,1.9034,3.2298,-0.0322,0.0083,0.5604,-5.2500,4.6500,-73.5000,5.1600,0.2200,-8.1700,0.0600,0.1702,-0.0982,-31.1875,-13.7500,37.8750,141.1875,32.5625,-176.7500,0
1776972563.371,9.8665,1.6161,-0.2825,0.5601,0.4668,0.5276,-86.5500,20.2500,-5.1000,10.3190,1.9034,3.2298,-0.0322,0.0083,0.5604,-5.2500,4.6500,-73.5000,4.7800,0.2600,-8.2300,0.0524,0.1047,-0.1036,-32.2500,-13.0000,38.3750,141.1250,32.6250,-176.7500,0
1776972563.376,10.1873,1.5586,0.2538,0.4852,0.4618,0.3267,-86.5500,20.2500,-5.1000,9.8881,1.3384,2.1069,-0.1175,-0.2217,0.6243,-4.9500,6.3000,-75.1500,4.7800,0.2600,-8.2300,0.0524,0.1047,-0.1036,-32.2500,-13.0000,38.3750,141.1250,32.6250,-176.7500,0
1776972563.381,10.1873,1.5586,0.2538,0.4852,0.4618,0.3267,-86.5500,20.2500,-5.1000,9.8881,1.3384,2.1069,-0.1175,-0.2217,0.6243,-4.9500,6.3000,-75.1500,4.6600,0.5200,-8.2100,0.0044,-0.0131,-0.0894,-32.2500,-13.0000,38.3750,141.0625,32.6250,-176.7500,0
1776972563.388,10.5728,1.5514,1.0175,0.3190,0.4501,0.2028,-86.5500,20.2500,-5.1000,10.4100,1.5012,1.4868,0.0589,-0.1412,0.6142,-3.4500,9.4500,-77.1000,4.0800,1.1700,-8.3500,-0.0371,-0.0109,-0.0785,-32.2500,-13.0000,38.3750,141.0625,32.6250,-176.6875,0
1776972563.393,10.5728,1.5514,1.0175,0.3190,0.4501,0.2028,-88.2000,17.7000,-3.0000,10.8577,0.5722,0.7087,0.2241,0.1407,0.5164,-3.4500,9.4500,-77.1000,4.0800,1.1700,-8.3500,-0.0371,-0.0109,-0.0785,-32.2500,-13.0000,38.3750,141.0000,32.6250,-176.6250,0
1776972563.401,10.4938,1.3336,1.5467,0.1537,0.4301,0.1482,-87.6000,19.5000,-4.3500,10.8577,0.5722,0.7087,0.2241,0.1407,0.5164,-3.4500,9.4500,-77.1000,4.0600,1.3400,-8.2100,-0.0480,0.0109,-0.0382,-32.2500,-13.0000,38.3750,141.0625,32.6875,-176.6250,0
1776972563.411,10.0628,1.1396,1.8962,-0.0072,0.4194,0.1455,-87.0000,19.6500,-4.9500,10.9678,-0.9673,-0.3591,0.2593,0.1095,0.3914,-3.6000,18.0000,-79.8000,4.1800,1.1300,-8.5600,-0.0709,0.1625,0.0251,-32.2500,-13.0000,38.3750,141.0625,32.6875,-176.6250,0
1776972563.416,9.8952,0.9026,1.7071,-0.1620,0.3533,0.1748,-87.0000,19.6500,-4.9500,10.3525,-3.4596,-0.2969,0.1575,0.1346,0.3360,-2.4000,20.2500,-79.8000,4.1800,1.1300,-8.5600,-0.0709,0.1625,0.0251,-32.2500,-13.0000,38.3750,141.0625,32.6875,-176.6250,0
1776972563.421,9.8952,0.9026,1.7071,-0.1620,0.3533,0.1748,-88.2000,18.4500,-4.5000,10.3525,-3.4596,-0.2969,0.1575,0.1346,0.3360,-2.4000,20.2500,-79.8000,4.9600,0.7400,-8.4900,-0.0709,0.3305,0.0851,-32.8750,-12.6875,37.8750,141.1250,32.8750,-176.6250,0
1776972563.426,9.8857,0.3089,1.1660,-0.2377,0.2441,0.2078,-88.2000,18.4500,-4.5000,10.0413,-4.2976,-1.1564,0.0224,-0.0749,0.3984,-2.7000,21.4500,-79.5000,4.9600,0.7400,-8.4900,-0.0709,0.3305,0.0851,-32.8750,-12.6875,37.8750,141.1250,32.8750,-176.6250,0
1776972563.431,9.8857,0.3089,1.1660,-0.2377,0.2441,0.2078,-85.9500,18.1500,-4.9500,10.0413,-4.2976,-1.1564,0.0224,-0.0749,0.3984,-2.7000,21.4500,-79.5000,5.6100,0.3800,-8.3500,-0.0305,0.5149,0.0993,-32.8750,-12.6875,37.8750,141.1250,33.1875,-176.6250,0
1776972563.436,9.7588,-0.3352,0.5171,-0.2137,0.1943,0.2574,-85.9500,18.1500,-4.9500,9.5122,-3.9409,-1.0080,0.1106,-0.2268,0.4570,-2.2500,19.2000,-79.9500,5.6100,0.3800,-8.3500,0.0175,0.6021,0.0807,-32.8750,-12.6875,37.8750,141.1875,33.5000,-176.6250,0
1776972563.442,9.7181,-0.8835,0.3448,-0.2137,0.1943,0.2574,-86.2500,19.3500,-4.2000,10.1107,-2.1117,-0.5219,0.2148,-0.0725,0.3741,-2.2500,19.2000,-79.9500,6.1900,0.1500,-8.6300,0.0175,0.6021,0.0807,-32.8750,-12.6875,37.8750,141.1875,33.8125,-176.6250,0
1776972563.451,9.7181,-0.8835,0.3448,-0.2022,0.1951,0.3019,-86.2500,19.3500,-4.2000,10.1466,-0.8140,0.2705,-0.0029,-0.0645,0.3040,-1.9500,15.9000,-79.5000,5.8500,0.4200,-8.1500,0.0207,0.5825,0.0316,-32.8750,-12.6875,37.8750,141.1875,34.0625,-176.6250,0
1776972563.461,9.7540,-1.5802,1.6137,-0.2270,0.2132,0.3200,-85.9500,19.3500,-3.4500,9.5768,-0.9864,0.2538,-0.0898,-0.0895,0.2681,-1.9500,15.9000,-79.5000,5.6600,0.7800,-8.2600,-0.0076,0.4571,-0.0087,-32.8750,-12.6875,37.8750,141.1875,34.0625,-176.6250,0
1776972563.466,9.7540,-1.5802,1.6137,-0.1948,0.2521,0.2955,-85.9500,19.3500,-3.4500,9.5768,-0.9864,0.2538,-0.0898,-0.0895,0.2681,-2.4000,10.0500,-79.8000,5.6600,0.7800,-8.2600,-0.0076,0.4571,-0.0087,-32.8750,-12.6875,37.8750,141.1875,34.3125,-176.6250,0
1776972563.471,9.7540,-1.3982,2.0782,-0.1948,0.2521,0.2955,-85.9500,19.3500,-3.4500,9.2440,-1.4389,-0.0383,0.0181,-0.0909,0.2465,-2.4000,10.0500,-79.8000,5.7800,0.7200,-8.1300,-0.0142,0.3512,-0.0131,-32.5000,-13.0000,37.5000,141.1875,34.3125,-176.6250,0
1776972563.476,9.7540,-1.3982,2.0782,-0.1556,0.2627,0.2358,-85.9500,19.3500,-3.4500,9.2440,-1.4389,-0.0383,0.0181,-0.0909,0.2465,-4.0500,9.9000,-79.9500,5.7800,0.7200,-8.1300,-0.0142,0.3512,-0.0131,-32.5000,-13.0000,37.5000,141.1875,34.4375,-176.6250,0
1776972563.481,9.6319,-0.8619,2.2769,-0.1556,0.2627,0.2358,-87.3000,19.9500,-3.3000,9.0070,-1.5562,0.0287,0.1029,-0.0373,0.2238,-4.0500,9.9000,-79.9500,5.7600,0.5200,-8.0800,-0.0033,0.2651,0.0087,-32.5000,-13.0000,37.5000,141.1875,34.4375,-176.6250,0
1776972563.491,9.6798,-0.3783,2.3511,-0.0557,0.2238,0.1077,-89.1000,18.3000,-2.8500,9.1746,-1.5203,-0.4525,0.0464,0.0293,0.2225,-2.7000,9.1500,-79.5000,5.2300,0.6000,-8.3000,-0.0044,0.0447,0.0360,-32.5000,-13.0000,37.5000,141.1875,34.5000,-176.6250,0
1776972563.501,9.4978,-0.0934,2.2745,0.0341,0.1903,0.0842,-87.6000,18.7500,-3.3000,9.2656,-1.3240,-0.8404,-0.0157,0.0562,0.2313,-4.3500,10.0500,-80.1000,5.5100,0.5700,-8.1500,0.0175,0.0295,0.0404,-32.5000,-13.0000,37.5000,141.1875,34.5000,-176.6250,0
1776972563.506,9.4978,-0.0934,2.2745,0.0341,0.1903,0.0842,-87.6000,18.7500,-3.3000,9.2656,-1.3240,-0.8404,-0.0157,0.0562,0.2313,-5.4000,10.5000,-79.8000,5.5100,0.5700,-8.1500,0.0251,0.2269,0.0240,-32.5000,-13.0000,37.5000,141.1875,34.6250,-176.6875,0
1776972563.512,9.4475,0.1053,2.2649,0.1335,0.1759,0.0733,-88.2000,18.1500,-4.5000,9.3757,-1.3695,-0.9529,-0.0141,0.0147,0.2406,-5.4000,10.5000,-79.8000,5.7300,0.4900,-8.1300,0.0251,0.2269,0.0240,-32.5000,-13.0000,37.5000,141.1875,34.6250,-176.6875,0
1776972563.517,9.4475,0.1053,2.2649,0.1335,0.1759,0.0733,-88.2000,18.1500,-4.5000,9.3757,-1.3695,-0.9529,-0.0141,0.0147,0.2406,-5.4000,10.5000,-79.8000,5.7300,0.4900,-8.1300,0.0251,0.2269,0.0240,-34.2500,-13.0000,37.0625,141.1875,34.7500,-176.6875,0
1776972563.522,9.4403,0.0503,2.0877,0.2483,0.1628,0.0746,-88.0500,18.7500,-4.0500,9.4643,-1.3001,-1.0918,0.0469,-0.0805,0.2422,-5.4000,10.5000,-79.8000,5.6600,0.4700,-8.0900,0.0284,0.2236,0.0229,-34.2500,-13.0000,37.0625,141.1875,34.7500,-176.6875,0
1776972563.527,9.4403,0.0503,2.0877,0.2483,0.1628,0.0746,-88.0500,18.7500,-4.0500,9.4643,-1.3001,-1.0918,0.0469,-0.0805,0.2422,-3.4500,10.6500,-79.2000,5.6600,0.4700,-8.0900,0.0284,0.2236,0.0229,-34.2500,-13.0000,37.0625,141.2500,34.8125,-176.6875,0
1776972563.532,9.3709,0.0144,1.7023,0.3384,0.1436,0.0893,-89.4000,18.1500,-1.9500,9.4284,-1.5012,-1.3479,0.1138,-0.1220,0.2233,-4.3500,10.0500,-79.2000,5.4700,0.5300,-8.1400,0.0251,0.1887,0.0196,-34.2500,-13.0000,37.0625,141.2500,34.8125,-176.6875,0
1776972563.537,9.3709,0.0144,1.7023,0.3384,0.1436,0.0893,-89.4000,18.1500,-1.9500,9.4284,-1.5012,-1.3479,0.1138,-0.1220,0.2233,-4.3500,10.0500,-78.3000,5.4700,0.5300,-8.1400,0.0131,0.1898,0.0185,-34.2500,-13.0000,37.0625,141.2500,34.9375,-176.6875,0
1776972563.542,9.3374,-0.0718,1.2641,0.4343,0.1468,0.1106,-89.4000,18.1500,-1.9500,9.4763,-1.8818,-1.6328,0.1721,-0.1276,0.1807,-4.3500,9.7500,-79.3500,5.5600,0.4800,-8.0300,0.0131,0.1898,0.0185,-34.2500,-13.0000,37.0625,141.2500,34.9375,-176.6875,0
1776972563.551,9.4260,-0.1891,0.9912,0.5409,0.1535,0.1428,-88.2000,20.1000,-1.9500,9.5648,-1.8938,-1.5778,0.2340,-0.1087,0.1228,-4.3500,9.7500,-79.3500,5.3700,0.4300,-8.0700,0.0371,0.1811,0.0185,-34.2500,-13.0000,37.0625,141.2500,35.0625,-176.7500,0
1776972563.556,9.4260,-0.1891,0.9912,0.5409,0.1535,0.1428,-88.2000,20.1000,-2.7000,9.5648,-1.8938,-1.5778,0.2340,-0.1087,0.1228,-4.3500,10.8000,-79.0500,5.3700,0.4300,-8.0700,0.0589,0.1418,0.0196,-34.2500,-13.0000,37.0625,141.2500,35.1250,-176.7500,0
1776972563.562,9.5457,-0.3017,0.7781,0.6376,0.1756,0.1713,-88.2000,20.1000,-2.7000,9.7588,-2.3918,-1.1277,0.2276,0.0173,0.0743,-3.9000,10.0500,-77.5500,5.6600,0.5100,-8.0900,0.0589,0.1418,0.0196,-34.2500,-13.0000,37.0625,141.2500,35.1250,-176.7500,0
1776972563.567,9.5864,-0.7494,0.7278,0.6376,0.1756,0.1713,-88.2000,20.1000,-2.7000,9.7588,-2.3918,-1.1277,0.2446,-0.0445,0.0677,-3.9000,10.0500,-77.5500,5.6600,0.5100,-8.0900,0.0589,0.1418,0.0196,-34.0000,-13.0000,37.3750,141.2500,35.1875,-176.8125,0
1776972563.572,9.5864,-0.7494,0.7278,0.6995,0.1887,0.1897,-88.6500,19.3500,-3.4500,9.4715,-2.4205,-1.0870,0.2446,-0.0445,0.0677,-3.9000,10.0500,-77.5500,5.7500,0.3900,-8.1100,0.0524,0.1527,0.0207,-34.0000,-13.0000,37.3750,141.2500,35.1875,-176.8125,0
1776972563.577,9.7061,-1.0032,0.6871,0.6995,0.1887,0.1897,-88.6500,19.3500,-3.4500,9.2656,-1.9656,-0.8452,0.1839,-0.0203,0.0621,-3.9000,10.0500,-77.5500,5.7500,0.3900,-8.1100,0.0524,0.1527,0.0207,-34.0000,-13.0000,37.3750,141.2500,35.2500,-176.8125,0
1776972563.582,9.7061,-1.0032,0.6871,0.7208,0.2068,0.1977,-88.2000,18.1500,-2.4000,9.2656,-1.9656,-0.8452,0.1839,-0.0203,0.0621,-4.5000,10.2000,-79.2000,5.7100,0.3200,-8.0800,0.0404,0.1538,0.0120,-34.0000,-13.0000,37.3750,141.2500,35.2500,-176.8125,0
1776972563.587,9.7971,-0.9577,0.5507,0.6963,0.2196,0.1852,-88.2000,18.1500,-2.4000,9.5217,-1.6328,-0.2586,0.0895,0.0269,0.0727,-4.5000,10.2000,-79.2000,5.7100,0.3200,-8.0800,0.0262,0.1244,-0.0011,-34.0000,-13.0000,37.3750,141.1875,35.3750,-176.8125,0
1776972563.592,9.7971,-0.9577,0.5507,0.6963,0.2196,0.1852,-88.8000,16.8000,-3.3000,9.5217,-1.6328,-0.2586,0.0895,0.0269,0.0727,-4.3500,12.0000,-79.8000,5.6500,0.4500,-8.1200,0.0262,0.1244,-0.0011,-34.0000,-13.0000,37.3750,141.1875,35.3750,-176.8125,0
1776972563.601,9.8593,-0.8523,0.6393,0.6275,0.2046,0.1668,-88.8000,16.8000,-3.3000,9.6247,-1.4605,-0.1724,0.0362,0.0722,0.0759,-4.3500,7.5000,-79.8000,5.7100,0.4500,-8.0800,0.0087,0.0916,-0.0109,-34.0000,-13.0000,37.3750,141.1875,35.3750,-176.8125,0
1776972563.607,9.9623,-0.7566,0.6871,0.5057,0.1743,0.1423,-87.0000,18.1500,-3.7500,9.7252,-1.3695,-0.1987,-0.0264,0.0624,0.0997,-4.3500,7.5000,-79.8000,5.6800,0.4700,-8.0700,0.0011,0.0578,-0.0109,-34.0000,-13.0000,37.3750,141.1875,35.4375,-176.8125,0
1776972563.613,9.9623,-0.7566,0.6871,0.5057,0.1743,0.1423,-86.7000,18.4500,-2.4000,9.7252,-1.3695,-0.1987,-0.0264,0.0624,0.0997,-5.2500,10.9500,-78.9000,5.6800,0.4700,-8.0700,0.0011,0.0578,-0.0109,-34.0000,-13.0000,37.3750,141.1875,35.4375,-176.8125,0
1776972563.617,10.0844,-0.6321,0.7422,0.3549,0.1394,0.1178,-86.7000,18.4500,-2.4000,9.8114,-1.3240,-0.2131,-0.0442,0.0349,0.1223,-5.2500,10.9500,-78.9000,5.6500,0.5100,-8.0600,-0.0164,0.0098,-0.0109,-34.2500,-13.3750,37.7500,141.1875,35.4375,-176.8125,0
1776972563.622,10.0844,-0.6321,0.7422,0.3549,0.1394,0.1178,-88.9500,18.4500,-2.7000,9.8114,-1.3240,-0.2131,-0.0442,0.0349,0.1223,-4.9500,11.5500,-78.6000,5.6500,0.5100,-8.0600,-0.0164,0.0098,-0.0109,-34.2500,-13.3750,37.7500,141.1875,35.3750,-176.8125,0
1776972563.631,10.2376,-0.4621,0.8164,0.1820,0.1053,0.0901,-88.9500,18.4500,-2.7000,9.9958,-1.1779,-0.1532,-0.0866,0.0120,0.1458,-4.9500,11.5500,-78.6000,5.4800,0.4600,-8.1500,-0.0153,-0.0404,-0.0033,-34.2500,-13.3750,37.7500,141.1875,35.3750,-176.8125,0
1776972563.638,10.2280,-0.2035,0.7590,0.0104,0.0663,0.0661,-88.9500,18.4500,-2.7000,10.0269,-1.1875,-0.2897,-0.0829,0.0187,0.1511,-4.9500,11.5500,-78.6000,5.4100,0.4700,-8.1500,-0.0087,-0.0393,-0.0011,-34.2500,-13.3750,37.7500,141.1875,35.3750,-176.8125,0
1776972563.643,10.2280,-0.2035,0.7590,0.0104,0.0663,0.0661,-88.0500,19.0500,-3.6000,10.0269,-1.1875,-0.2897,-0.0829,0.0187,0.1511,-4.9500,10.8000,-79.0500,5.4100,0.4700,-8.1500,-0.0087,-0.0393,-0.0011,-34.2500,-13.3750,37.7500,141.1875,35.3750,-176.8125,0
1776972563.652,10.1323,0.0934,0.6776,-0.1420,0.0437,0.0400,-88.0500,19.0500,-3.6000,10.0796,-1.2474,-0.2969,-0.0605,0.0208,0.1375,-5.7000,11.5500,-79.3500,5.3500,0.5300,-8.1700,-0.0098,0.0022,-0.0022,-34.2500,-13.3750,37.7500,141.1875,35.3750,-176.8125,0
1776972563.662,9.9479,0.3950,0.6177,-0.2699,0.0424,0.0293,-88.0500,19.0500,-3.6000,10.0796,-1.3910,-0.4214,-0.0983,0.0101,0.1335,-6.4500,10.5000,-79.8000,5.4100,0.5300,-8.1300,-0.0076,0.0316,0.0022,-34.2500,-13.3750,37.7500,141.1875,35.3750,-176.8125,0
1776972563.667,9.8904,0.4645,0.6823,-0.3587,0.0458,0.0285,-88.3500,18.0000,-2.1000,9.9431,-1.5969,-0.4764,-0.0965,-0.0165,0.1210,-6.4500,10.5000,-79.8000,5.4100,0.5300,-8.1300,-0.0076,0.0316,0.0022,-34.2500,-13.3750,37.7500,141.1875,35.4375,-176.8125,0
1776972563.672,9.8904,0.4645,0.6823,-0.3587,0.0458,0.0285,-88.3500,18.0000,-2.1000,9.9431,-1.5969,-0.4764,-0.0965,-0.0165,0.1210,-4.5000,9.9000,-77.7000,5.4400,0.5100,-8.1200,-0.0098,0.0731,0.0120,-33.2500,-13.0000,37.0625,141.1875,35.4375,-176.8125,0
1776972563.677,9.8138,0.5387,0.7398,-0.4000,0.0554,0.0389,-88.6500,18.1500,-3.0000,9.8306,-1.6017,-0.4310,-0.1231,-0.0408,0.1188,-4.5000,9.9000,-77.7000,5.4400,0.5100,-8.1200,-0.0098,0.0731,0.0120,-33.2500,-13.0000,37.0625,141.1875,35.4375,-176.8125,0
1776972563.682,9.8138,0.5387,0.7398,-0.4000,0.0554,0.0389,-88.6500,18.1500,-3.0000,9.8306,-1.6017,-0.4310,-0.1231,-0.0408,0.1188,-4.5000,9.9000,-77.7000,5.5800,0.5100,-8.1200,-0.0098,0.0731,0.0120,-33.2500,-13.0000,37.0625,141.1875,35.4375,-176.8125,0
1776972563.686,9.7612,0.4118,0.8691,-0.4069,0.0552,0.0437,-88.2000,17.4000,-3.7500,9.6606,-1.5538,-0.4741,-0.1380,-0.0501,0.1218,-4.5000,9.9000,-77.7000,5.5800,0.5100,-8.1200,-0.0076,0.0644,0.0175,-33.2500,-13.0000,37.0625,141.1875,35.5000,-176.8125,0
1776972563.692,9.6726,0.2801,1.0678,-0.4069,0.0552,0.0437,-88.2000,17.4000,-3.7500,9.6606,-1.5538,-0.4741,-0.1380,-0.0501,0.1218,-4.5000,9.9000,-77.7000,5.6300,0.4900,-8.0900,-0.0076,0.0644,0.0175,-33.2500,-13.0000,37.0625,141.2500,35.5000,-176.8125,0
1776972563.702,9.7252,0.1652,1.1013,-0.3717,0.0490,0.0418,-87.4500,18.1500,-2.4000,9.6750,-1.4150,-0.5722,-0.1274,-0.0349,0.1164,-3.7500,10.2000,-78.1500,5.6300,0.4900,-8.1000,-0.0065,0.0502,0.0196,-33.2500,-13.0000,37.0625,141.2500,35.5000,-176.8125,0
1776972563.710,9.7252,0.1652,1.1013,-0.3059,0.0498,0.0274,-89.1000,16.8000,-2.5500,9.6750,-1.2785,-0.6009,-0.1255,-0.0195,0.1114,-5.2500,9.9000,-78.1500,5.6300,0.4800,-8.0500,-0.0098,0.0196,0.0153,-33.2500,-13.0000,37.0625,141.2500,35.5000,-176.8125,0
1776972563.715,9.7636,0.1006,1.2881,-0.2414,0.0530,0.0141,-88.3500,18.3000,-3.6000,9.7324,-1.2163,-0.6249,-0.1314,-0.0341,0.1204,-5.2500,9.9000,-78.1500,5.6300,0.4800,-8.0500,-0.0098,0.0196,0.0153,-33.2500,-13.0000,37.0625,141.2500,35.5000,-176.8125,0
1776972563.720,9.7636,0.1006,1.2881,-0.2414,0.0530,0.0141,-88.3500,18.3000,-3.6000,9.7324,-1.2163,-0.6249,-0.1314,-0.0341,0.1204,-4.9500,10.5000,-79.8000,5.5800,0.4700,-8.0900,-0.0076,0.0033,0.0175,-34.2500,-13.3750,36.5625,141.2500,35.5000,-176.8125,0
1776972563.725,9.7516,0.0958,1.4700,-0.1958,0.0509,0.0027,-88.3500,18.3000,-3.6000,9.7061,-1.2713,-0.5531,-0.1151,-0.0496,0.1252,-4.9500,10.5000,-79.8000,5.5800,0.4700,-8.0900,-0.0076,0.0033,0.0175,-34.2500,-13.3750,36.5625,141.2500,35.5000,-176.8125,0
1776972563.732,9.6726,0.0479,1.4916,-0.1460,0.0402,-0.0069,-88.3500,18.3000,-3.6000,9.6462,-1.4269,-0.5770,-0.0957,-0.0629,0.1218,-5.4000,10.5000,-79.3500,5.5300,0.4800,-8.1100,-0.0065,0.0098,0.0153,-34.2500,-13.3750,36.5625,141.2500,35.5000,-176.8125,0
1776972563.741,9.6295,0.0239,1.5395,-0.1087,0.0397,-0.0011,-87.7500,18.1500,-2.7000,9.4930,-1.6089,-0.7518,-0.0738,-0.0791,0.1199,-5.4000,10.5000,-79.3500,5.5500,0.4900,-8.1100,0.0033,0.0196,0.0142,-34.2500,-13.3750,36.5625,141.2500,35.5000,-176.8125,0
1776972563.748,9.6295,0.0239,1.5395,-0.1087,0.0397,-0.0011,-87.7500,18.1500,-2.7000,9.4930,-1.6089,-0.7518,-0.0738,-0.0791,0.1199,-5.4000,10.5000,-79.3500,5.5500,0.4900,-8.1100,0.0120,0.0316,0.0153,-34.2500,-13.3750,36.5625,141.2500,35.5000,-176.8125,0
1776972563.753,9.5050,-0.0886,1.4892,-0.0693,0.0381,0.0187,-87.0000,18.1500,-2.7000,9.3757,-1.7549,-0.9074,-0.0655,-0.0885,0.0949,-5.5500,10.2000,-77.7000,5.6000,0.5000,-8.0500,0.0120,0.0316,0.0153,-34.2500,-13.3750,36.5625,141.2500,35.5000,-176.8750,0
1776972563.762,9.5074,-0.1245,1.4222,-0.0370,0.0384,0.0269,-87.0000,18.1500,-2.7000,9.3781,-2.0758,-1.0439,-0.1077,-0.1263,0.0709,-3.9000,9.3000,-80.4000,5.5400,0.4500,-8.0800,0.0131,0.0218,0.0175,-34.2500,-13.3750,36.5625,141.2500,35.5000,-176.8750,0
1776972563.767,9.5074,-0.1245,1.4222,-0.0370,0.0384,0.0269,-88.3500,18.7500,-2.8500,9.3781,-2.0758,-1.0439,-0.1077,-0.1263,0.0709,-3.9000,9.3000,-80.4000,5.5400,0.4500,-8.0800,0.0131,0.0218,0.0175,-34.2500,-13.3750,36.5625,141.2500,35.5000,-176.8750,0
1776972563.772,9.5313,-0.2825,1.3575,-0.0117,0.0312,0.0506,-88.3500,18.7500,-2.8500,9.4308,-2.3607,-1.4796,-0.1346,-0.0978,0.0645,-3.7500,8.7000,-80.2500,5.5500,0.3400,-8.0400,0.0142,0.0273,0.0153,-33.6875,-13.3750,36.6875,141.2500,35.5000,-176.8750,0
1776972563.777,9.5313,-0.2825,1.3575,-0.0117,0.0312,0.0506,-89.1000,18.0000,-2.1000,9.4308,-2.3607,-1.4796,-0.1346,-0.0978,0.0645,-3.7500,8.7000,-80.2500,5.5500,0.3400,-8.0400,0.0142,0.0273,0.0153,-33.6875,-13.3750,36.6875,141.2500,35.5625,-176.8750,0
1776972563.782,9.5744,-0.4908,1.3120,0.0088,0.0240,0.0789,-89.1000,18.0000,-2.1000,9.4116,-2.2505,-1.4006,-0.0839,-0.0517,0.0333,-4.6500,9.7500,-79.8000,5.6700,0.6800,-7.9800,0.0349,0.0262,0.0022,-33.6875,-13.3750,36.6875,141.2500,35.5625,-176.8750,0
1776972563.787,9.5744,-0.4908,1.3120,0.0088,0.0240,0.0789,-90.1500,19.6500,-2.4000,9.4116,-2.2505,-1.4006,-0.0839,-0.0517,0.0333,-4.6500,9.7500,-79.8000,5.6700,0.6800,-7.9800,0.0055,-0.0109,0.0087,-33.6875,-13.3750,36.6875,141.2500,35.5625,-176.8750,0
1776972563.793,9.6726,-0.5555,1.2330,-0.0032,-0.0019,0.1034,-90.1500,19.6500,-2.4000,9.5337,-1.8387,-1.2091,-0.1271,-0.0274,0.0112,-5.5500,10.2000,-80.2500,5.7200,0.4000,-8.0700,0.0055,-0.0109,0.0087,-33.6875,-13.3750,36.6875,141.2500,35.5625,-176.8750,0
1776972563.802,9.6510,-0.5698,1.1827,-0.0232,-0.0221,0.1308,-88.2000,17.7000,-2.7000,9.4212,-1.5706,-0.9361,-0.1210,0.0131,-0.0011,-5.5500,10.2000,-80.2500,5.7200,0.4300,-8.0600,0.0044,-0.0142,-0.0044,-33.6875,-13.3750,36.6875,141.2500,35.5000,-176.8750,0
1776972563.807,9.6510,-0.5698,1.1827,-0.0232,-0.0221,0.1308,-87.6000,18.7500,-2.8500,9.4212,-1.5706,-0.9361,-0.1210,0.0131,-0.0011,-5.5500,10.2000,-80.2500,5.7200,0.4300,-8.0600,0.0076,-0.0491,-0.0109,-33.6875,-13.3750,36.6875,141.2500,35.5000,-176.8750,0
1776972563.813,9.6822,-0.5626,1.1708,-0.0453,-0.0410,0.1577,-87.6000,18.7500,-2.8500,9.5553,-1.4605,-0.7733,-0.1231,0.0338,-0.0112,-5.4000,10.0500,-79.8000,5.7400,0.4600,-8.0600,0.0076,-0.0491,-0.0109,-33.6875,-13.3750,36.6875,141.2500,35.5000,-176.8750,0
1776972563.818,9.7444,-0.4405,1.0295,-0.0536,-0.0536,0.1703,-87.6000,18.7500,-2.8500,9.5553,-1.4605,-0.7733,-0.1231,0.0338,-0.0112,-5.7000,9.3000,-79.0500,5.7400,0.4600,-8.0600,0.0153,-0.0742,-0.0153,-33.8750,-13.3750,36.2500,141.2500,35.4375,-176.8750,0
1776972563.823,9.7444,-0.4405,1.0295,-0.0536,-0.0536,0.1703,-87.6000,18.7500,-2.8500,9.6127,-1.3551,-0.7135,-0.0951,0.0274,0.0000,-5.7000,9.3000,-79.0500,5.7000,0.4600,-8.0900,0.0153,-0.0742,-0.0153,-33.8750,-13.3750,36.2500,141.2500,35.4375,-176.8750,0
1776972563.828,9.6630,-0.2753,0.9577,-0.0613,-0.0509,0.1727,-89.7000,17.7000,-1.9500,9.6127,-1.3551,-0.7135,-0.0951,0.0274,0.0000,-4.3500,10.8000,-79.3500,5.7000,0.4600,-8.0900,0.0185,-0.1080,-0.0175,-33.8750,-13.3750,36.2500,141.2500,35.3750,-176.8750,0
1776972563.833,9.6630,-0.2753,0.9577,-0.0613,-0.0509,0.1727,-89.7000,17.7000,-1.9500,9.6582,-1.3312,-0.6177,-0.0983,-0.0035,0.0195,-4.3500,10.8000,-79.3500,5.7900,0.5300,-8.1100,0.0185,-0.1080,-0.0175,-33.8750,-13.3750,36.2500,141.2500,35.3750,-176.8750,0
1776972563.838,9.5768,-0.0479,0.9098,-0.0725,-0.0384,0.1761,-89.7000,17.7000,-1.9500,9.6582,-1.3312,-0.6177,-0.0983,-0.0035,0.0195,-4.0500,10.2000,-79.9500,5.7900,0.5300,-8.1100,0.0196,-0.1473,-0.0218,-33.8750,-13.3750,36.2500,141.2500,35.3125,-176.8750,0
1776972563.843,9.5768,-0.0479,0.9098,-0.0725,-0.0384,0.1761,-89.7000,17.7000,-1.9500,9.5577,-1.4748,-0.7925,-0.1346,-0.0408,0.0386,-4.0500,10.2000,-79.9500,5.7800,0.4700,-8.1300,0.0196,-0.1473,-0.0218,-33.8750,-13.3750,36.2500,141.2500,35.3125,-176.8750,0
1776972563.852,9.5600,0.2418,0.8284,-0.0866,-0.0248,0.1665,-88.6500,18.1500,-2.7000,9.5936,-1.5443,-0.8045,-0.1130,-0.0618,0.0397,-4.5000,10.2000,-80.2500,5.8300,0.4500,-8.1100,0.0142,-0.1669,-0.0295,-33.8750,-13.3750,36.2500,141.1875,35.1875,-176.8750,0
1776972563.857,9.5720,0.4525,0.9984,-0.0965,-0.0197,0.1612,-89.1000,16.3500,-2.5500,9.5936,-1.5443,-0.8045,-0.1130,-0.0618,0.0397,-4.5000,10.2000,-80.2500,5.8300,0.4500,-8.1100,0.0098,-0.2182,-0.0404,-33.8750,-13.3750,36.2500,141.1875,35.1250,-176.8750,0
1776972563.863,9.5720,0.4525,0.9984,-0.0965,-0.0197,0.1612,-89.1000,16.3500,-2.5500,9.6702,-1.4150,-0.9170,-0.1351,-0.0775,0.0365,-4.5000,10.2000,-80.2500,5.7200,0.4400,-8.0500,0.0098,-0.2182,-0.0404,-33.8750,-13.3750,36.2500,141.1875,35.1250,-176.8750,0
1776972563.868,9.6247,0.5243,1.0750,-0.0943,-0.0144,0.1548,-87.6000,17.1000,-2.8500,9.7851,-1.4605,-0.7350,-0.1452,-0.0786,0.0218,-4.0500,8.7000,-79.9500,5.7200,0.4400,-8.0500,0.0098,-0.2182,-0.0404,-34.1875,-13.3750,37.0625,141.1875,34.9375,-176.8750,0
1776972563.873,9.6247,0.5243,1.0750,-0.0943,-0.0144,0.1548,-87.6000,17.1000,-2.8500,9.7851,-1.4605,-0.7350,-0.1452,-0.0786,0.0218,-4.0500,8.7000,-79.9500,5.4900,0.4700,-8.2100,0.0022,-0.2640,-0.0447,-34.1875,-13.3750,37.0625,141.1875,34.9375,-176.8750,0
1776972563.878,9.7779,0.3998,1.1540,-0.0778,-0.0213,0.1532,-89.4000,17.7000,-3.4500,9.8881,-1.6400,-0.9218,-0.1284,-0.0618,0.0029,-4.6500,9.7500,-79.8000,5.4900,0.4700,-8.2100,0.0022,-0.2640,-0.0447,-34.1875,-13.3750,37.0625,141.1250,34.8125,-176.8750,0
1776972563.883,9.7779,0.3998,1.1540,-0.0778,-0.0213,0.1532,-89.4000,17.7000,-3.4500,9.8881,-1.6400,-0.9218,-0.1284,-0.0618,0.0029,-4.6500,9.7500,-79.8000,5.5500,0.4600,-8.1900,0.0011,-0.2683,-0.0535,-34.1875,-13.3750,37.0625,141.1250,34.8125,-176.8750,0
1776972563.888,9.8713,0.3400,1.0942,-0.0498,-0.0357,0.1452,-89.1000,18.3000,-2.5500,9.9862,-1.4653,-0.7518,-0.0762,-0.0530,0.0011,-4.9500,8.5500,-79.3500,5.5500,0.4600,-8.1900,-0.0120,-0.2978,-0.0535,-34.1875,-13.3750,37.0625,141.1250,34.6250,-176.8125,0
1776972563.893,9.8713,0.3400,1.0942,-0.0498,-0.0357,0.1452,-89.1000,18.3000,-2.5500,9.9862,-1.4653,-0.7518,-0.0762,-0.0530,0.0011,-4.9500,8.5500,-79.3500,5.5200,0.5200,-8.1500,-0.0120,-0.2978,-0.0535,-34.1875,-13.3750,37.0625,141.1250,34.4375,-176.8125,0
1776972563.902,10.0245,0.1796,0.9625,-0.0147,-0.0269,0.1402,-89.1000,17.5500,-2.1000,10.0054,-1.2546,-0.4932,-0.0592,-0.0408,-0.0021,-4.0500,7.9500,-79.5000,5.4500,0.5800,-8.2500,-0.0164,-0.3196,-0.0469,-34.1875,-13.3750,37.0625,141.1250,34.4375,-176.8125,0
1776972563.912,10.1059,-0.1101,0.8188,0.0144,-0.0221,0.1263,-89.1000,17.5500,-2.1000,9.9551,-1.1109,-0.4669,-0.0773,-0.0488,0.0011,-3.7500,9.9000,-78.9000,5.3800,0.5500,-8.2400,-0.0098,-0.3043,-0.0447,-34.1875,-13.3750,37.0625,141.0625,34.2500,-176.8125,0
1776972563.917,10.0868,-0.2634,0.7159,0.0293,-0.0237,0.1140,-88.8000,17.5500,-3.6000,9.8593,-1.1037,-0.5004,-0.1018,-0.0573,0.0056,-3.7500,9.9000,-78.9000,5.3800,0.5500,-8.2400,-0.0098,-0.3043,-0.0447,-34.1875,-13.3750,37.0625,141.0625,34.1250,-176.7500,0
1776972563.922,9.9886,-0.5195,0.6321,0.0293,-0.0237,0.1140,-88.8000,17.5500,-3.6000,9.8593,-1.1037,-0.5004,-0.1018,-0.0573,0.0056,-3.7500,9.9000,-78.9000,5.3200,0.5000,-8.2200,-0.0076,-0.2978,-0.0502,-34.5625,-13.0000,37.3750,141.0625,34.1250,-176.7500,0
1776972563.927,9.9886,-0.5195,0.6321,0.0258,-0.0173,0.1029,-88.8000,17.5500,-3.6000,9.7444,-1.0702,-0.6393,-0.1292,-0.0853,0.0101,-4.8000,8.4000,-79.5000,5.3200,0.5000,-8.2200,-0.0076,-0.2978,-0.0502,-34.5625,-13.0000,37.3750,141.0625,33.9375,-176.7500,0
1776972563.932,9.9383,-0.6393,0.6129,0.0258,-0.0173,0.1029,-88.8000,17.5500,-3.6000,9.7444,-1.0702,-0.6393,-0.1292,-0.0853,0.0101,-4.8000,8.4000,-79.5000,5.3600,0.5100,-8.2400,-0.0087,-0.2967,-0.0480,-34.5625,-13.0000,37.3750,141.0625,33.9375,-176.7500,0
1776972563.937,9.9383,-0.6393,0.6129,0.0099,-0.0211,0.0909,-88.6500,16.9500,-2.7000,9.7181,-1.1013,-0.8930,-0.1319,-0.1114,0.0176,-4.3500,9.0000,-79.8000,5.3600,0.5100,-8.2400,0.0109,-0.2880,-0.0425,-34.5625,-13.0000,37.3750,141.0000,33.7500,-176.7500,0
1776972563.943,9.7779,-0.4932,0.6464,-0.0139,-0.0306,0.0847,-88.6500,16.9500,-2.7000,9.7181,-1.1013,-0.8930,-0.1319,-0.1114,0.0176,-4.3500,9.0000,-79.8000,5.3100,0.5500,-8.2400,0.0109,-0.2880,-0.0425,-34.5625,-13.0000,37.3750,141.0000,33.7500,-176.7500,0
1776972563.952,9.6367,-0.3472,0.7159,-0.0139,-0.0306,0.0847,-88.8000,17.1000,-3.6000,9.6223,-1.2378,-1.0032,-0.1172,-0.1268,0.0234,-4.8000,9.1500,-79.9500,5.2200,0.5000,-8.2700,0.0164,-0.2967,-0.0382,-34.5625,-13.0000,37.3750,141.0000,33.6250,-176.7500,0
1776972563.957,9.6367,-0.3472,0.7159,-0.0477,-0.0458,0.0826,-89.5500,17.1000,-2.8500,9.6295,-1.4916,-1.1061,-0.1010,-0.1354,0.0306,-3.7500,7.9500,-80.5500,5.2200,0.5000,-8.2700,0.0262,-0.2705,-0.0415,-34.5625,-13.0000,37.3750,140.9375,33.4375,-176.7500,0
1776972563.963,9.6845,-0.1389,0.9313,-0.1186,-0.0751,0.0893,-89.5500,17.1000,-2.8500,9.6295,-1.4916,-1.1061,-0.1010,-0.1354,0.0306,-3.7500,7.9500,-80.5500,5.2900,0.4100,-8.3100,0.0262,-0.2705,-0.0415,-34.5625,-13.0000,37.3750,140.9375,33.4375,-176.7500,0
1776972563.968,9.6845,-0.1389,0.9313,-0.1186,-0.0751,0.0893,-88.8000,16.3500,-2.8500,9.6343,-1.7119,-0.9888,-0.1085,-0.1471,0.0456,-4.3500,9.0000,-81.1500,5.2500,0.3800,-8.2900,0.0284,-0.2618,-0.0480,-33.5625,-12.6875,36.6875,140.9375,33.3125,-176.7500,0
1776972563.973,9.6965,-0.0311,0.9553,-0.1700,-0.1023,0.0935,-88.8000,16.3500,-2.8500,9.6343,-1.7119,-0.9888,-0.1085,-0.1471,0.0456,-4.3500,9.0000,-81.1500,5.2500,0.3800,-8.2900,0.0284,-0.2618,-0.0480,-33.5625,-12.6875,36.6875,140.9375,33.3125,-176.7500,0
1776972563.978,9.6965,-0.0311,0.9553,-0.1700,-0.1023,0.0935,-88.0500,17.1000,-3.3000,9.7037,-1.8316,-0.9337,-0.0863,-0.1556,0.0586,-4.3500,9.0000,-81.1500,5.2500,0.3800,-8.2900,0.0284,-0.2618,-0.0480,-33.5625,-12.6875,36.6875,140.8750,33.1250,-176.7500,0
1776972563.983,9.6630,0.1221,0.9936,-0.1903,-0.1244,0.1039,-88.0500,17.1000,-3.3000,9.7037,-1.8316,-0.9337,-0.0802,-0.1340,0.0610,-4.3500,9.0000,-81.1500,5.3900,0.3100,-8.3800,0.0305,-0.2520,-0.0600,-33.5625,-12.6875,36.6875,140.8750,33.1250,-176.7500,0
1776972563.988,9.6630,0.1221,0.9936,-0.1903,-0.1244,0.1039,-88.0500,16.3500,-5.1000,9.6582,-1.7214,-0.8739,-0.0802,-0.1340,0.0610,-4.5000,9.9000,-81.0000,5.3900,0.3100,-8.3800,0.0229,-0.2836,-0.0687,-33.5625,-12.6875,36.6875,140.8750,33.0000,-176.7500,0
1776972563.993,9.6893,0.3160,0.9673,-0.1716,-0.1308,0.1196,-88.0500,16.3500,-5.1000,9.6223,-1.5538,-0.8021,-0.0997,-0.1226,0.0640,-4.5000,9.9000,-81.0000,5.2600,0.4200,-8.2300,0.0229,-0.2836,-0.0687,-33.5625,-12.6875,36.6875,140.8750,33.0000,-176.7500,0
1776972564.002,9.6295,0.5267,0.9457,-0.1394,-0.1388,0.1364,-88.0500,16.3500,-5.1000,9.6223,-1.5538,-0.8021,-0.0997,-0.1226,0.0640,-4.9500,9.3000,-81.1500,5.0700,0.4800,-8.2900,0.0251,-0.3033,-0.0644,-33.5625,-12.6875,36.6875,140.8125,32.8125,-176.7500,0
1776972564.007,9.6295,0.5267,0.9457,-0.1394,-0.1388,0.1364,-89.1000,17.1000,-4.3500,9.7540,-1.3886,-0.7590,-0.1069,-0.0821,0.0434,-2.8500,7.8000,-81.1500,5.0700,0.4800,-8.2900,0.0273,-0.2902,-0.0676,-33.5625,-12.6875,36.6875,140.8125,32.6250,-176.7500,0
1776972564.013,9.7133,0.7063,0.9649,-0.0637,-0.1308,0.1436,-89.1000,17.1000,-4.3500,9.8665,-1.1684,-0.7805,-0.0770,-0.0648,0.0242,-4.3500,7.8000,-81.1500,5.1000,0.7500,-8.1700,0.0273,-0.2902,-0.0676,-33.5625,-12.6875,36.6875,140.8125,32.6250,-176.7500,0
1776972564.018,9.7133,0.7063,0.9649,-0.0637,-0.1308,0.1436,-89.1000,17.1000,-4.3500,9.8665,-1.1684,-0.7805,-0.0770,-0.0648,0.0242,-4.3500,7.8000,-81.1500,5.1000,0.7500,-8.1700,0.0273,-0.2902,-0.0676,-32.7500,-13.3750,38.2500,140.7500,32.5000,-176.7500,0
1776972564.023,9.7372,0.8930,0.9146,0.0386,-0.1119,0.1436,-89.1000,17.1000,-4.3500,9.9695,-1.0965,-0.1628,0.0256,0.0640,0.0277,-3.0000,7.6500,-82.3500,4.9800,0.4700,-8.3900,0.0458,-0.2673,-0.0622,-32.7500,-13.3750,38.2500,140.7500,32.5000,-176.7500,0
1776972564.028,9.7372,0.8930,0.9146,0.0386,-0.1119,0.1436,-89.8500,17.1000,-4.3500,9.9695,-1.0965,-0.1628,0.0256,0.0640,0.0277,-3.0000,7.6500,-82.3500,4.9800,0.4700,-8.3900,0.0458,-0.2673,-0.0622,-32.7500,-13.3750,38.2500,140.6875,32.3750,-176.7500,0
1776972564.033,9.7636,1.0247,1.0104,0.1514,-0.0879,0.1375,-89.8500,17.1000,-4.3500,9.9288,-0.8332,-0.5986,-0.0221,-0.0658,0.0032,-3.0000,7.6500,-82.3500,4.9200,0.6200,-8.5200,0.0262,-0.2673,-0.0567,-32.7500,-13.3750,38.2500,140.6875,32.3750,-176.7500,0
1776972564.039,9.6774,1.1061,0.9242,0.2643,-0.0592,0.1303,-89.8500,16.8000,-2.8500,9.9288,-0.8332,-0.5986,-0.0221,-0.0658,0.0032,-3.0000,7.6500,-82.3500,4.9400,0.4700,-8.3100,0.0295,-0.2083,-0.0600,-32.7500,-13.3750,38.2500,140.6875,32.2500,-176.7500,0
1776972564.044,9.6774,1.1061,0.9242,0.2643,-0.0592,0.1303,-89.8500,16.8000,-2.8500,9.8976,-0.9074,-0.4645,-0.0213,-0.1458,0.0067,-2.8500,7.0500,-80.8500,4.9400,0.4700,-8.3100,0.0295,-0.2083,-0.0600,-32.7500,-13.3750,38.2500,140.6250,32.1250,-176.7500,0
1776972564.053,9.6151,1.0199,1.0367,0.3560,-0.0378,0.1119,-88.3500,17.5500,-3.6000,9.9048,-1.1133,-0.3735,-0.0141,-0.2062,0.0149,-3.1500,7.0500,-80.8500,5.0100,0.3400,-8.5000,0.0207,-0.1680,-0.0545,-32.7500,-13.3750,38.2500,140.6250,32.1250,-176.7500,0
1776972564.059,9.6678,0.7877,1.0511,0.4117,-0.0272,0.0927,-88.6500,16.5000,-3.0000,9.9048,-1.1133,-0.3735,-0.0141,-0.2062,0.0149,-3.1500,7.0500,-80.4000,4.9200,0.6000,-8.3100,0.0131,-0.1374,-0.0600,-32.7500,-13.3750,38.2500,140.6250,32.0625,-176.7500,0
1776972564.064,9.6678,0.7877,1.0511,0.4117,-0.0272,0.0927,-88.6500,16.5000,-3.0000,9.7085,-1.3216,-0.4453,0.0123,-0.2507,0.0203,-3.0000,7.6500,-81.7500,4.9200,0.6000,-8.3100,0.0131,-0.1374,-0.0600,-32.7500,-13.3750,38.2500,140.6250,32.0625,-176.7500,0
1776972564.069,9.6343,0.5555,0.9984,0.4663,-0.0149,0.0823,-89.5500,17.1000,-4.0500,9.7085,-1.3216,-0.4453,0.0123,-0.2507,0.0203,-3.0000,7.6500,-81.7500,4.9200,0.6000,-8.3100,0.0065,-0.1276,-0.0502,-32.0625,-12.6875,38.2500,140.5625,31.9375,-176.7500,0
1776972564.073,9.6343,0.5555,0.9984,0.4663,-0.0149,0.0823,-89.5500,17.1000,-4.0500,9.6941,-1.3479,-0.5363,0.0568,-0.2659,0.0200,-3.9000,9.0000,-80.4000,4.9000,0.6300,-8.2900,0.0065,-0.1276,-0.0502,-32.0625,-12.6875,38.2500,140.5625,31.9375,-176.7500,0
1776972564.078,9.6055,0.3041,0.8954,0.4852,-0.0131,0.0658,-90.1500,17.7000,-3.0000,9.6941,-1.3479,-0.5363,0.0568,-0.2659,0.0200,-3.9000,9.0000,-80.4000,4.9000,0.6300,-8.2900,0.0142,-0.1113,-0.0371,-32.0625,-12.6875,38.2500,140.5625,31.8750,-176.6875,0
1776972564.083,9.6055,0.3041,0.8954,0.4852,-0.0131,0.0658,-90.1500,17.7000,-3.0000,9.7444,-1.5012,-0.7183,0.0727,-0.2747,0.0285,-3.9000,9.0000,-80.4000,4.9400,0.6200,-8.3100,0.0142,-0.1113,-0.0371,-32.0625,-12.6875,38.2500,140.5625,31.8750,-176.6875,0
1776972564.088,9.6822,0.0862,0.7733,0.4911,-0.0213,0.0541,-90.1500,17.7000,-3.0000,9.7444,-1.5012,-0.7183,0.0727,-0.2747,0.0285,-3.9000,9.0000,-80.4000,4.9400,0.6200,-8.3100,0.0218,-0.1156,-0.0229,-32.0625,-12.6875,38.2500,140.5625,31.8125,-176.6875,0
1776972564.093,9.6822,0.0862,0.7733,0.4911,-0.0213,0.0541,-90.1500,17.7000,-3.0000,9.6582,-1.6568,-0.9385,0.0642,-0.2803,0.0250,-3.9000,9.0000,-80.4000,4.9300,0.5700,-8.3300,0.0218,-0.1156,-0.0229,-32.0625,-12.6875,38.2500,140.5625,31.8125,-176.6875,0
1776972564.102,9.7157,-0.1556,0.5938,0.4634,-0.0269,0.0466,-89.7000,17.4000,-5.2500,9.5720,-1.6400,-1.1779,0.0392,-0.2840,0.0282,-5.4000,9.0000,-81.1500,4.8700,0.5200,-8.3400,0.0240,-0.1145,-0.0065,-32.0625,-12.6875,38.2500,140.5625,31.7500,-176.7500,0
1776972564.107,9.7492,-0.4142,0.5195,0.4295,-0.0309,0.0424,-89.7000,17.4000,-5.2500,9.5720,-1.6400,-1.1779,0.0392,-0.2840,0.0282,-5.4000,9.0000,-81.1500,4.8700,0.5200,-8.3400,0.0229,-0.0840,0.0022,-32.0625,-12.6875,38.2500,140.5625,31.6875,-176.7500,0
1776972564.113,9.7492,-0.4142,0.5195,0.4295,-0.0309,0.0424,-89.7000,17.4000,-5.2500,9.6127,-1.5036,-1.3288,0.0322,-0.2633,0.0115,-3.6000,8.5500,-82.2000,4.9400,0.4800,-8.3500,0.0229,-0.0840,0.0022,-32.0625,-12.6875,38.2500,140.5625,31.6875,-176.7500,0
1776972564.118,9.7707,-0.4980,0.5363,0.3810,-0.0445,0.0456,-89.1000,15.9000,-5.1000,9.6127,-1.5036,-1.3288,0.0336,-0.2353,0.0008,-3.6000,8.5500,-82.2000,4.9400,0.4800,-8.3500,0.0240,-0.0578,0.0065,-30.5625,-13.7500,38.2500,140.5625,31.6250,-176.7500,0
1776972564.123,9.7707,-0.4980,0.5363,0.3810,-0.0445,0.0456,-89.1000,15.9000,-5.1000,9.6175,-1.4676,-1.5586,0.0336,-0.2353,0.0008,-4.3500,8.5500,-80.4000,4.9800,0.4900,-8.3700,0.0240,-0.0578,0.0065,-30.5625,-13.7500,38.2500,140.5625,31.6250,-176.7500,0
1776972564.128,9.7851,-0.6536,0.6129,0.3214,-0.0504,0.0594,-89.4000,15.4500,-4.2000,9.5744,-1.4389,-1.6496,0.0320,-0.2022,-0.0184,-4.3500,8.5500,-80.4000,4.9800,0.4900,-8.3700,0.0295,-0.0436,0.0055,-30.5625,-13.7500,38.2500,140.5625,31.6250,-176.7500,0
1776972564.133,9.7851,-0.6536,0.6129,0.3214,-0.0504,0.0594,-89.4000,15.4500,-4.2000,9.5744,-1.4389,-1.6496,0.0320,-0.2022,-0.0184,-3.7500,6.9000,-81.7500,4.9800,0.4400,-8.4000,0.0295,-0.0436,0.0055,-30.5625,-13.7500,38.2500,140.5625,31.6250,-176.7500,0
1776972564.138,9.7348,-0.6321,0.7614,0.2702,-0.0629,0.0749,-91.2000,16.2000,-4.2000,9.5217,-1.5395,-1.6640,0.0370,-0.1793,-0.0197,-3.7500,6.9000,-81.7500,4.9800,0.4400,-8.4000,0.0349,-0.0305,0.0044,-30.5625,-13.7500,38.2500,140.5000,31.5625,-176.8125,0
1776972564.144,9.7013,-0.7661,0.8475,0.2702,-0.0629,0.0749,-91.2000,16.2000,-4.2000,9.5217,-1.5395,-1.6640,0.0370,-0.1793,-0.0197,-3.7500,6.9000,-81.7500,4.9400,0.4600,-8.3600,0.0349,-0.0305,0.0044,-30.5625,-13.7500,38.2500,140.5000,31.5625,-176.8125,0
1776972564.153,9.6750,-0.7590,0.9481,0.2427,-0.0751,0.0869,-89.8500,16.8000,-4.8000,9.5217,-1.6472,-1.5490,0.0773,-0.1737,-0.0304,-3.7500,6.9000,-81.7500,4.9000,0.5100,-8.3500,0.0360,-0.0196,0.0065,-30.5625,-13.7500,38.2500,140.5000,31.5625,-176.8125,0
1776972564.159,9.6750,-0.7590,0.9481,0.2222,-0.0767,0.1082,-89.5500,16.8000,-4.8000,9.4786,-1.6951,-1.5179,0.1519,-0.1604,-0.0432,-3.7500,6.9000,-81.7500,4.7400,0.4800,-8.2800,0.0360,-0.0065,0.0131,-30.5625,-13.7500,38.2500,140.5000,31.5625,-176.8125,0
1776972564.164,9.7348,-0.6919,1.0774,0.2041,-0.0815,0.1228,-89.5500,16.8000,-4.8000,9.4786,-1.6951,-1.5179,0.1519,-0.1604,-0.0432,-3.4500,9.1500,-82.8000,4.7400,0.4800,-8.2800,0.0360,-0.0065,0.0131,-30.5625,-13.7500,38.2500,140.5000,31.5625,-176.8125,0
1776972564.169,9.7348,-0.6919,1.0774,0.2041,-0.0815,0.1228,-87.7500,16.2000,-5.7000,9.6055,-1.8196,-1.2785,0.1511,-0.1479,-0.0365,-3.4500,9.1500,-82.8000,4.8000,0.5300,-8.3200,0.0338,0.0164,0.0240,-31.2500,-13.7500,37.7500,140.5000,31.5625,-176.8750,0
1776972564.174,9.7659,-0.8619,1.0702,0.1943,-0.0847,0.1276,-87.7500,16.2000,-5.7000,9.6055,-1.8196,-1.2785,0.1511,-0.1479,-0.0365,-5.5500,9.9000,-82.0500,4.8000,0.5300,-8.3200,0.0338,0.0164,0.0240,-31.2500,-13.7500,37.7500,140.5000,31.5625,-176.8750,0
1776972564.178,9.7659,-0.8619,1.0702,0.1943,-0.0847,0.1276,-87.7500,16.2000,-5.7000,9.6726,-2.0542,-1.2306,0.0885,-0.1508,-0.0301,-5.5500,9.9000,-82.0500,4.8000,0.5300,-8.3200,0.0295,0.0425,0.0371,-31.2500,-13.7500,37.7500,140.5625,31.5625,-176.8750,0
1776972564.184,9.7468,-0.8835,0.9361,0.1889,-0.0791,0.1226,-87.7500,16.2000,-5.7000,9.6726,-2.0542,-1.2306,0.0885,-0.1508,-0.0301,-4.5000,9.4500,-82.3500,5.1000,0.4700,-8.4300,0.0295,0.0425,0.0371,-31.2500,-13.7500,37.7500,140.5625,31.5625,-176.8750,0
1776972564.188,9.7468,-0.8835,0.9361,0.1889,-0.0791,0.1226,-88.3500,16.3500,-5.8500,9.6367,-2.1883,-1.2330,0.0613,-0.1641,-0.0341,-4.5000,9.4500,-82.3500,5.1000,0.4700,-8.4300,0.0262,0.0436,0.0316,-31.2500,-13.7500,37.7500,140.5625,31.5625,-176.8750,0
1776972564.194,9.2799,-1.3862,1.0247,0.1753,-0.0783,0.1045,-88.3500,16.3500,-5.8500,9.6367,-2.1883,-1.2330,0.0613,-0.1641,-0.0341,-2.8500,7.8000,-83.7000,5.1200,0.3900,-8.4600,0.0262,0.0436,0.0316,-31.2500,-13.7500,37.7500,140.5625,31.6250,-176.9375,0
1776972564.203,10.3166,-1.0918,0.5531,0.1561,-0.0203,0.0957,-88.3500,16.3500,-5.8500,9.5122,-2.1644,-1.2282,0.0213,-0.1564,-0.0416,-2.8500,7.8000,-83.7000,5.0800,0.4300,-8.4400,0.0153,0.0262,0.0262,-31.2500,-13.7500,37.7500,140.5625,31.6250,-176.9375,0
1776972564.210,10.3166,-1.0918,0.5531,0.1561,-0.0203,0.0957,-89.5500,16.3500,-5.1000,9.5074,-2.2841,-1.4006,-0.0218,-0.1370,-0.0554,-2.8500,7.8000,-83.7000,5.0900,0.4200,-8.4600,0.0098,0.0207,0.0229,-31.2500,-13.7500,37.7500,140.5625,31.6250,-176.9375,0
1776972564.214,10.3525,-1.3455,0.5938,0.1559,-0.0392,0.0671,-89.5500,16.3500,-5.1000,9.5074,-2.2841,-1.4006,-0.0218,-0.1370,-0.0554,-3.7500,9.4500,-83.4000,5.0900,0.4200,-8.4600,0.0098,0.0207,0.0229,-31.2500,-13.7500,37.7500,140.5625,31.6250,-176.9375,0
1776972564.219,10.3525,-1.3455,0.5938,0.1559,-0.0392,0.0671,-90.9000,15.0000,-4.9500,9.4595,-2.4134,-1.4964,-0.1348,-0.1412,-0.0584,-3.7500,9.4500,-83.4000,5.0700,0.3800,-8.4200,0.0164,0.0207,0.0218,-31.6875,-13.3750,37.7500,140.5625,31.6250,-176.9375,0
1776972564.224,8.7317,-2.4493,0.3998,0.1948,0.0229,0.0421,-90.9000,15.0000,-4.9500,9.4595,-2.4134,-1.4964,-0.1348,-0.1412,-0.0584,-3.1500,8.2500,-83.7000,5.0700,0.3800,-8.4200,0.0164,0.0207,0.0218,-31.6875,-13.3750,37.7500,140.6250,31.6250,-176.9375,0
1776972564.233,10.0245,-2.5618,0.2897,0.2401,0.0528,0.0141,-89.5500,15.9000,-4.8000,9.4092,-2.6767,-1.6592,-0.2361,-0.1244,-0.0536,-4.8000,9.1500,-84.1500,5.1000,0.4200,-8.4100,0.0229,0.0033,0.0185,-31.6875,-13.3750,37.7500,140.6250,31.6250,-176.9375,0
1776972564.241,11.1690,-1.4844,2.3774,-0.2100,-0.4533,-0.0333,-88.6500,16.2000,-4.9500,9.3829,-2.7461,-1.8771,-0.2907,-0.1005,-0.0733,-4.5000,8.4000,-81.7500,5.0900,0.3900,-8.4700,0.0218,-0.0011,0.0142,-31.6875,-13.3750,37.7500,140.6250,31.6250,-177.0000,0
1776972564.246,11.1690,-1.4844,2.3774,-0.2100,-0.4533,-0.0333,-88.6500,16.2000,-4.9500,9.4284,-2.4038,-1.9034,-0.3568,-0.0802,-0.0850,-4.5000,8.4000,-81.7500,5.0900,0.3900,-8.4700,0.0218,-0.0011,0.0142,-31.6875,-13.3750,37.7500,140.6250,31.6250,-177.0000,0
1776972564.253,9.2967,-0.7398,0.3903,-0.6654,-0.3208,-0.0099,-89.5500,16.8000,-5.1000,9.4284,-2.4038,-1.9034,-0.3568,-0.0802,-0.0850,-5.4000,7.5000,-83.2500,5.0700,0.3700,-8.4500,0.0175,-0.0022,0.0098,-31.6875,-13.3750,37.7500,140.6250,31.6250,-177.0000,0
1776972564.261,9.4116,-2.4828,-1.7621,-0.7826,0.2526,-0.0019,-89.7000,16.2000,-5.7000,9.4739,-2.0877,-1.9728,-0.4301,-0.0469,-0.0741,-5.4000,7.5000,-83.2500,5.1000,0.4000,-8.4300,0.0055,-0.0175,0.0055,-31.6875,-13.3750,37.7500,140.6250,31.6250,-177.0000,0
1776972564.266,9.4116,-2.4828,-1.7621,-0.7826,0.2526,-0.0019,-89.7000,16.2000,-5.7000,9.5840,-1.6999,-1.9489,-0.5121,-0.0181,-0.0789,-5.4000,7.5000,-83.2500,5.1000,0.4000,-8.4300,0.0055,-0.0175,0.0055,-31.6875,-13.3750,37.7500,140.6250,31.6250,-177.0000,0
1776972564.271,10.2424,-2.2051,-0.5746,-0.7397,0.0133,0.0051,-89.7000,16.2000,-5.7000,9.5840,-1.6999,-1.9489,-0.5121,-0.0181,-0.0789,-5.2500,5.7000,-82.3500,5.0700,0.3100,-8.4900,-0.0011,-0.0349,0.0011,-31.0000,-12.6875,39.0000,140.6250,31.5625,-177.0000,0
1776972564.276,10.2424,-2.2051,-0.5746,-0.7397,0.0133,0.0051,-89.7000,16.2000,-5.7000,9.5193,-1.5203,-1.9776,-0.5167,0.0013,-0.0917,-5.2500,5.7000,-82.3500,5.0700,0.3100,-8.4900,-0.0011,-0.0349,0.0011,-31.0000,-12.6875,39.0000,140.6250,31.5625,-177.0000,0
1776972564.281,10.1969,-2.1093,0.2993,-0.6736,-0.2894,-0.0376,-89.5500,16.3500,-5.5500,9.5193,-1.5203,-1.9776,-0.5167,0.0013,-0.0917,-4.9500,7.0500,-83.2500,5.1100,0.4800,-8.4300,-0.0196,-0.0425,-0.0087,-31.0000,-12.6875,39.0000,140.6250,31.5625,-177.0000,0
1776972564.286,10.1969,-2.1093,0.2993,-0.6736,-0.2894,-0.0376,-89.5500,16.3500,-5.5500,9.2656,-1.5371,-1.7765,-0.4911,0.0304,-0.0986,-4.9500,7.0500,-83.2500,5.1100,0.4800,-8.4300,-0.0196,-0.0425,-0.0087,-31.0000,-12.6875,39.0000,140.6250,31.5000,-177.0000,0
1776972564.293,9.6343,-1.7382,1.0080,-0.8343,-0.2702,-0.0645,-89.5500,16.3500,-5.5500,9.3972,-1.5227,-1.8723,-0.4983,0.0663,-0.0930,-4.6500,7.0500,-81.4500,5.0700,0.4800,-8.4300,-0.0196,-0.0469,-0.0164,-31.0000,-12.6875,39.0000,140.6250,31.5000,-177.0000,0
1776972564.300,9.9527,-1.3384,1.1325,-1.0568,-0.2116,-0.0405,-89.4000,15.7500,-5.7000,9.3972,-1.5227,-1.8723,-0.4983,0.0663,-0.0930,-4.8000,4.9500,-82.3500,5.0800,0.4100,-8.4300,-0.0164,-0.0611,-0.0196,-31.0000,-12.6875,39.0000,140.5625,31.5000,-176.9375,0
1776972564.305,9.9527,-1.3384,1.1325,-1.0568,-0.2116,-0.0405,-89.4000,15.7500,-5.7000,9.6319,-1.5586,-1.9920,-0.5449,0.0687,-0.0693,-4.8000,4.9500,-82.3500,5.0800,0.4100,-8.4300,-0.0164,-0.0611,-0.0196,-31.0000,-12.6875,39.0000,140.5625,31.4375,-176.9375,0
1776972564.313,9.7588,-0.9888,0.6847,-1.1274,-0.1540,-0.0096,-88.9500,16.5000,-4.9500,9.6199,-1.4772,-1.8914,-0.5825,0.0634,-0.0522,-5.4000,8.2500,-81.9000,5.0300,0.4100,-8.4300,-0.0196,-0.0676,-0.0240,-31.0000,-12.6875,39.0000,140.5625,31.4375,-176.9375,0
1776972564.318,9.6510,-0.5028,0.5219,-1.0307,-0.2086,0.0088,-90.9000,15.7500,-5.7000,9.6199,-1.4772,-1.8914,-0.5825,0.0634,-0.0522,-5.4000,8.2500,-81.9000,5.0300,0.4100,-8.4300,-0.0196,-0.0676,-0.0240,-31.0000,-12.6875,39.0000,140.5625,31.4375,-176.9375,0
1776972564.323,9.6510,-0.5028,0.5219,-1.0307,-0.2086,0.0088,-90.9000,15.7500,-5.7000,9.4858,-1.4437,-1.5371,-0.5961,0.0474,-0.0450,-5.4000,8.2500,-81.9000,5.0200,0.3800,-8.4000,-0.0196,-0.0611,-0.0305,-31.2500,-12.6875,37.7500,140.5625,31.4375,-176.9375,0
1776972564.328,9.4068,-0.0048,0.5267,-0.8897,-0.2529,0.0075,-90.9000,15.7500,-5.7000,9.4858,-1.4437,-1.5371,-0.5961,0.0474,-0.0450,-6.3000,6.4500,-82.3500,5.0200,0.3800,-8.4000,-0.0196,-0.0611,-0.0305,-31.2500,-12.6875,37.7500,140.5625,31.3750,-176.8750,0
1776972564.333,9.4068,-0.0048,0.5267,-0.8897,-0.2529,0.0075,-89.8500,16.3500,-3.6000,9.3254,-1.3958,-1.4653,-0.5620,0.0568,-0.0461,-6.3000,6.4500,-82.3500,5.0100,0.4400,-8.4300,-0.0284,-0.0654,-0.0338,-31.2500,-12.6875,37.7500,140.5625,31.3750,-176.8750,0
1776972564.338,9.2632,0.1796,0.4262,-0.8210,-0.2150,-0.0115,-91.2000,16.2000,-4.5000,9.3254,-1.3958,-1.4653,-0.5620,0.0568,-0.0461,-4.6500,6.0000,-82.6500,5.0100,0.4400,-8.4300,-0.0371,-0.0687,-0.0371,-31.2500,-12.6875,37.7500,140.5625,31.3125,-176.8750,0
1776972564.344,9.2632,0.1796,0.4262,-0.8210,-0.2150,-0.0115,-91.2000,16.2000,-4.5000,9.4260,-1.2594,-1.3096,-0.5351,0.0983,-0.0592,-4.6500,6.0000,-82.6500,4.9800,0.5100,-8.3700,-0.0371,-0.0687,-0.0371,-31.2500,-12.6875,37.7500,140.5625,31.3125,-176.8750,0
1776972564.353,9.1578,0.2203,0.6632,-0.8018,-0.1804,-0.0392,-90.1500,15.4500,-5.2500,9.4140,-0.9768,-1.2234,-0.5436,0.1082,-0.0661,-2.8500,7.0500,-82.9500,4.9000,0.5200,-8.4100,-0.0295,-0.0862,-0.0327,-31.2500,-12.6875,37.7500,140.5000,31.2500,-176.8125,0
1776972564.358,9.2799,0.4381,0.7326,-0.7565,-0.1572,-0.0546,-90.1500,15.4500,-5.2500,9.4140,-0.9768,-1.2234,-0.5436,0.1082,-0.0661,-3.6000,6.0000,-81.1500,4.9000,0.5200,-8.4100,-0.0175,-0.0654,-0.0262,-31.2500,-12.6875,37.7500,140.5000,31.2500,-176.8125,0
1776972564.364,9.2799,0.4381,0.7326,-0.7565,-0.1572,-0.0546,-90.1500,15.4500,-5.2500,9.7109,-0.8116,-1.2833,-0.5119,0.1013,-0.0767,-3.6000,6.0000,-81.1500,4.9900,0.5000,-8.3500,-0.0175,-0.0654,-0.0262,-31.2500,-12.6875,37.7500,140.5000,31.2500,-176.8125,0
1776972564.369,9.5553,0.7638,0.5986,-0.6973,-0.1452,-0.0520,-87.6000,17.1000,-5.1000,9.7109,-0.8116,-1.2833,-0.5119,0.1013,-0.0767,-4.9500,5.5500,-82.9500,4.9900,0.5000,-8.3500,-0.0120,-0.0676,-0.0218,-31.0000,-13.0000,38.2500,140.5000,31.1875,-176.8125,0
1776972564.374,9.8713,1.0415,0.5004,-0.6973,-0.1452,-0.0520,-87.6000,17.1000,-5.1000,9.8976,-0.5171,-1.3599,-0.4517,0.0925,-0.0925,-4.9500,5.5500,-82.9500,4.9300,0.5500,-8.4000,-0.0120,-0.0676,-0.0218,-31.0000,-13.0000,38.2500,140.5000,31.1875,-176.8125,0
1776972564.379,9.8713,1.0415,0.5004,-0.6129,-0.1537,-0.0679,-87.6000,17.1000,-5.1000,9.8976,-0.5171,-1.3599,-0.4517,0.0925,-0.0925,-4.9500,5.5500,-82.9500,4.9300,0.5500,-8.4000,-0.0120,-0.0676,-0.0218,-31.0000,-13.0000,38.2500,140.5000,31.1875,-176.8125,0
1776972564.384,9.8809,1.1396,0.4908,-0.6129,-0.1537,-0.0679,-87.6000,17.1000,-5.1000,10.0509,-0.5124,-1.5490,-0.3720,0.1100,-0.0965,-4.9500,5.5500,-82.9500,4.9400,0.5300,-8.4000,-0.0120,-0.0545,-0.0196,-31.0000,-13.0000,38.2500,140.5000,31.1875,-176.8125,0
1776972564.389,9.8809,1.1396,0.4908,-0.5335,-0.1684,-0.0608,-89.4000,16.2000,-4.5000,10.0509,-0.5124,-1.5490,-0.3720,0.1100,-0.0965,-4.5000,6.1500,-82.0500,4.9400,0.5300,-8.4000,-0.0131,-0.0382,-0.0153,-31.0000,-13.0000,38.2500,140.5000,31.1250,-176.7500,0
1776972564.394,9.8306,1.1827,0.3663,-0.4602,-0.1599,-0.0453,-89.4000,16.2000,-4.5000,9.9599,-0.3687,-1.4964,-0.2817,0.0642,-0.1095,-4.5000,6.1500,-82.0500,4.9100,0.5000,-8.4300,-0.0131,-0.0382,-0.0153,-31.0000,-13.0000,38.2500,140.5000,31.1250,-176.7500,0
1776972564.403,9.8234,1.1325,0.3974,-0.4602,-0.1599,-0.0453,-89.1000,15.6000,-5.8500,9.9359,-0.2634,-1.2426,-0.2185,0.0187,-0.1175,-6.1500,7.0500,-83.2500,4.5800,0.6200,-8.3100,-0.0109,-0.0360,-0.0065,-31.0000,-13.0000,38.2500,140.5000,31.1250,-176.7500,0
1776972564.409,9.8234,1.1325,0.3974,-0.3651,-0.1679,-0.0157,-89.7000,15.6000,-5.8500,9.9359,-0.2634,-1.2426,-0.2038,-0.0266,-0.1066,-5.4000,7.8000,-82.6500,4.5800,0.6200,-8.3100,-0.0011,-0.0153,0.0109,-31.0000,-13.0000,38.2500,140.5000,31.0625,-176.7500,0
1776972564.414,9.9599,1.1732,0.3855,-0.2747,-0.1636,0.0000,-89.7000,16.9500,-4.9500,9.8928,-0.2442,-0.9505,-0.2038,-0.0266,-0.1066,-5.4000,7.8000,-82.6500,4.8400,0.6000,-8.4400,-0.0011,-0.0153,0.0109,-31.0000,-13.0000,38.2500,140.5000,31.0625,-176.7500,0
1776972564.419,9.9599,1.1732,0.3855,-0.2747,-0.1636,0.0000,-89.4000,15.0000,-5.2500,10.0126,-0.1748,-0.9960,-0.1455,-0.0528,-0.0949,-4.0500,6.4500,-81.7500,5.0000,0.4700,-8.3900,0.0044,0.0436,0.0175,-30.5625,-13.3750,39.3750,140.5000,31.1250,-176.7500,0
1776972564.424,9.9719,1.1660,0.3112,-0.2086,-0.1516,0.0077,-89.4000,15.0000,-5.2500,10.0126,-0.1748,-0.9960,-0.1455,-0.0528,-0.0949,-4.0500,6.4500,-81.7500,5.0000,0.4700,-8.3900,0.0044,0.0436,0.0175,-30.5625,-13.3750,39.3750,140.5000,31.1250,-176.7500,0
1776972564.429,9.9719,1.1660,0.3112,-0.2086,-0.1516,0.0077,-91.0500,15.9000,-5.5500,9.9790,-0.1413,-1.0678,-0.1010,-0.0735,-0.0754,-4.0500,7.2000,-82.3500,4.9700,0.5800,-8.4300,0.0033,0.0338,0.0196,-30.5625,-13.3750,39.3750,140.5000,31.1250,-176.7500,0
1776972564.434,9.8306,1.1851,0.4118,-0.1559,-0.1354,0.0221,-91.0500,15.9000,-5.5500,9.9790,-0.1413,-1.0678,-0.1010,-0.0735,-0.0754,-4.0500,7.2000,-82.3500,4.9700,0.5800,-8.4300,0.0033,0.0338,0.0196,-30.5625,-13.3750,39.3750,140.5000,31.1250,-176.7500,0
1776972564.439,9.8306,1.1851,0.4118,-0.1559,-0.1354,0.0221,-91.0500,15.9000,-5.5500,9.8833,-0.2083,-1.2019,-0.0147,-0.0813,-0.0661,-4.0500,7.2000,-82.3500,4.9700,0.5800,-8.4300,0.0000,0.0305,0.0218,-30.5625,-13.3750,39.3750,140.5000,31.1250,-176.7500,0
1776972564.444,9.8258,1.1732,0.3112,-0.0685,-0.1234,0.0373,-90.1500,17.4000,-4.9500,9.8833,-0.2083,-1.2019,-0.0147,-0.0813,-0.0661,-4.0500,7.2000,-82.3500,5.0000,0.5400,-8.4900,0.0000,0.0305,0.0218,-30.5625,-13.3750,39.3750,140.5625,31.1875,-176.7500,0
1776972564.453,9.5553,1.0319,0.3208,0.0477,-0.1207,0.0485,-90.1500,17.4000,-4.9500,9.9096,-0.4142,-1.2115,0.0306,-0.1130,-0.0570,-5.5500,6.9000,-82.8000,5.0200,0.5000,-8.4400,-0.0022,0.0600,0.0196,-30.5625,-13.3750,39.3750,140.5625,31.1875,-176.7500,0
1776972564.460,9.5553,1.0319,0.3208,0.0477,-0.1207,0.0485,-90.3000,15.1500,-4.8000,9.7923,-0.5914,-1.2953,0.0498,-0.1623,-0.0469,-4.0500,7.2000,-82.0500,4.9200,0.5200,-8.3900,0.0065,0.0458,0.0229,-30.5625,-13.3750,39.3750,140.5625,31.1875,-176.7500,0
1776972564.465,9.4882,0.7901,0.3663,0.1466,-0.1061,0.0480,-90.3000,15.1500,-4.8000,9.7923,-0.5914,-1.2953,0.0498,-0.1623,-0.0469,-4.0500,7.2000,-82.0500,4.9200,0.5200,-8.3900,0.0065,0.0458,0.0229,-30.5625,-13.3750,39.3750,140.5625,31.1875,-176.7500,0
1776972564.470,9.4882,0.7901,0.3663,0.1466,-0.1061,0.0480,-90.3000,15.1500,-4.8000,9.6678,-0.6608,-1.4341,0.1348,-0.1689,-0.0530,-5.4000,5.5500,-82.2000,4.8500,0.5700,-8.3800,0.0076,0.0415,0.0273,-30.5625,-13.0000,37.7500,140.5625,31.1875,-176.7500,0
1776972564.475,9.7252,0.7302,0.2777,0.2238,-0.1045,0.0434,-90.3000,15.1500,-4.8000,9.6678,-0.6608,-1.4341,0.1348,-0.1689,-0.0530,-5.4000,5.5500,-82.2000,4.8500,0.5700,-8.3800,0.0076,0.0415,0.0273,-30.5625,-13.0000,37.7500,140.5625,31.1875,-176.7500,0
1776972564.479,9.7109,0.6153,0.2059,0.2238,-0.1045,0.0434,-90.1500,15.1500,-4.8000,9.7420,-0.7230,-1.4844,0.1974,-0.1660,-0.0658,-4.9500,6.0000,-83.7000,4.8700,0.5500,-8.4000,0.0153,0.0458,0.0371,-30.5625,-13.0000,37.7500,140.5625,31.2500,-176.8125,0
1776972564.484,9.7109,0.6153,0.2059,0.3088,-0.0866,0.0378,-90.1500,15.4500,-5.2500,9.7420,-0.7230,-1.4844,0.1974,-0.1660,-0.0658,-4.9500,6.0000,-83.7000,4.8700,0.5500,-8.4000,0.0153,0.0458,0.0371,-30.5625,-13.0000,37.7500,140.5625,31.2500,-176.8125,0
1776972564.489,9.5241,0.3089,0.2634,0.3088,-0.0866,0.0378,-90.1500,15.4500,-5.2500,9.8138,-0.7973,-1.4437,0.2350,-0.1410,-0.0733,-4.9500,6.0000,-83.7000,4.8700,0.5500,-8.4000,0.0240,0.0818,0.0404,-30.5625,-13.0000,37.7500,140.5625,31.2500,-176.8125,0
1776972564.494,9.5241,0.3089,0.2634,0.3640,-0.0751,0.0346,-89.5500,15.1500,-4.8000,9.8138,-0.7973,-1.4437,0.2350,-0.1410,-0.0733,-4.9500,6.0000,-83.7000,4.9600,0.5500,-8.3800,0.0240,0.0818,0.0404,-30.5625,-13.0000,37.7500,140.5625,31.2500,-176.8125,0
1776972564.503,9.6678,0.1389,0.3352,0.3912,-0.0594,0.0362,-90.3000,15.9000,-5.1000,9.7133,-0.9313,-1.4198,0.2467,-0.1799,-0.0781,-4.9500,6.0000,-83.7000,4.9100,0.5600,-8.4600,0.0284,0.0622,0.0535,-30.5625,-13.0000,37.7500,140.6250,31.3125,-176.8750,0
1776972564.508,9.6678,0.1389,0.3352,0.3912,-0.0594,0.0362,-90.3000,15.9000,-5.1000,9.6127,-1.1468,-1.3288,0.2286,-0.2038,-0.0682,-4.9500,7.8000,-83.7000,4.9100,0.5600,-8.4600,0.0229,0.1004,0.0633,-30.5625,-13.0000,37.7500,140.6250,31.3750,-176.8750,0
1776972564.515,9.7731,-0.0742,0.4310,0.4373,-0.0501,0.0224,-89.1000,17.1000,-5.8500,9.6127,-1.1468,-1.3288,0.2286,-0.2038,-0.0682,-4.6500,8.5500,-82.9500,5.1000,0.4200,-8.5000,0.0229,0.1004,0.0633,-30.5625,-13.0000,37.7500,140.6250,31.3750,-176.8750,0
1776972564.519,9.6798,-0.2394,0.4334,0.4743,-0.0509,0.0277,-89.1000,17.1000,-5.8500,9.6558,-1.3312,-1.5730,0.2081,-0.2052,-0.0554,-4.6500,8.5500,-82.9500,5.1000,0.4200,-8.5000,0.0229,0.1004,0.0633,-29.8750,-13.3750,37.8750,140.6875,31.4375,-176.8750,0
1776972564.524,9.6798,-0.2394,0.4334,0.4743,-0.0509,0.0277,-89.8500,14.8500,-5.1000,9.6558,-1.3312,-1.5730,0.2081,-0.2052,-0.0554,-5.5500,7.2000,-84.1500,5.2000,0.3200,-8.5900,0.0185,0.1189,0.0513,-29.8750,-13.3750,37.8750,140.6875,31.4375,-176.8750,0
1776972564.529,9.7372,-0.6153,0.4070,0.4570,-0.0546,0.0266,-89.8500,14.8500,-5.1000,9.5912,-1.4413,-1.6376,0.2044,-0.2222,-0.0525,-5.5500,7.2000,-84.1500,5.2000,0.3200,-8.5900,0.0185,0.1189,0.0513,-29.8750,-13.3750,37.8750,140.6875,31.4375,-176.9375,0
1776972564.534,9.7372,-0.6153,0.4070,0.4570,-0.0546,0.0266,-90.3000,15.9000,-4.8000,9.5912,-1.4413,-1.6376,0.2204,-0.2062,-0.0626,-5.8500,7.2000,-84.1500,4.9700,0.4900,-8.4200,0.0142,0.0894,0.0393,-29.8750,-13.3750,37.8750,140.6875,31.4375,-176.9375,0
1776972564.539,9.9288,-0.5195,0.3280,0.4322,-0.0613,0.0317,-90.3000,15.9000,-4.8000,9.5098,-1.3647,-1.6376,0.2204,-0.2062,-0.0626,-5.8500,7.2000,-84.1500,4.9700,0.4900,-8.4200,0.0164,0.0731,0.0393,-29.8750,-13.3750,37.8750,140.6875,31.5000,-176.9375,0
1776972564.544,9.9288,-0.5195,0.3280,0.4322,-0.0613,0.0317,-90.3000,15.9000,-4.8000,9.6869,-1.3384,-1.6807,0.2041,-0.1756,-0.0735,-5.8500,7.2000,-84.1500,4.9300,0.4800,-8.4300,0.0164,0.0731,0.0393,-29.8750,-13.3750,37.8750,140.6875,31.5000,-176.9375,0
1776972564.553,9.7612,-0.9050,0.2442,0.4154,-0.0560,0.0195,-90.1500,16.5000,-6.0000,9.6869,-1.3384,-1.6807,0.2041,-0.1756,-0.0735,-5.8500,7.2000,-84.1500,4.9600,0.5800,-8.4400,0.0185,0.0884,0.0447,-29.8750,-13.3750,37.8750,140.7500,31.5625,-176.9375,0
1776972564.558,9.9982,-0.7757,0.3065,0.3544,-0.0762,0.0306,-90.1500,16.5000,-6.0000,9.6510,-1.2234,-1.7071,0.2156,-0.1511,-0.0909,-5.8500,7.2000,-84.1500,4.9600,0.5800,-8.4400,0.0262,0.1058,0.0491,-29.8750,-13.3750,37.8750,140.7500,31.5625,-177.0000,0
1776972564.564,9.9982,-0.7757,0.3065,0.3544,-0.0762,0.0306,-90.1500,16.5000,-6.0000,9.6391,-1.1253,-1.8675,0.2316,-0.1103,-0.0999,-5.2500,7.9500,-83.8500,4.9100,0.4800,-8.3700,0.0262,0.1058,0.0491,-29.8750,-13.3750,37.8750,140.7500,31.5625,-177.0000,0
1776972564.569,9.9431,-0.8475,0.2274,0.3107,-0.0922,0.0381,-90.1500,16.5000,-6.0000,9.6391,-1.1253,-1.8675,0.2316,-0.1103,-0.0999,-5.2500,7.9500,-83.8500,4.9100,0.4800,-8.3700,0.0284,0.1189,0.0600,-31.2500,-13.0000,37.8750,140.7500,31.6250,-177.0000,0
1776972564.574,9.9431,-0.8475,0.2274,0.3107,-0.0922,0.0381,-89.7000,16.2000,-6.0000,9.6917,-1.0798,-1.4988,0.2110,-0.1061,-0.1058,-5.7000,8.2500,-84.0000,4.7600,0.5300,-8.3900,0.0284,0.1189,0.0600,-31.2500,-13.0000,37.8750,140.7500,31.6250,-177.0000,0
1776972564.579,9.9623,-0.8787,0.1867,0.2124,-0.1258,0.0322,-89.7000,16.2000,-6.0000,9.6917,-1.0798,-1.4988,0.2110,-0.1061,-0.1058,-5.7000,8.2500,-84.0000,4.7600,0.5300,-8.3900,0.0240,0.1647,0.0709,-31.2500,-13.0000,37.8750,140.8125,31.6875,-177.0625,0
1776972564.584,9.9623,-0.8787,0.1867,0.2124,-0.1258,0.0322,-90.3000,14.4000,-6.6000,9.6965,-0.9242,-1.6472,0.1980,-0.1170,-0.1026,-5.5500,7.6500,-83.1000,4.8700,0.5100,-8.3700,0.0240,0.1647,0.0709,-31.2500,-13.0000,37.8750,140.8125,31.6875,-177.0625,0
1776972564.589,9.8785,-0.7518,0.0168,0.1372,-0.1319,0.0322,-90.3000,14.4000,-6.6000,9.6965,-0.9242,-1.6472,0.1980,-0.1170,-0.1026,-5.5500,7.6500,-83.1000,4.8700,0.5100,-8.3700,0.0229,0.2094,0.0796,-31.2500,-13.0000,37.8750,140.8125,31.8125,-177.0625,0
1776972564.595,9.8785,-0.7518,0.0168,0.1372,-0.1319,0.0322,-89.8500,15.1500,-6.6000,9.6750,-0.9649,-1.9297,0.1753,-0.1191,-0.1026,-6.9000,8.2500,-84.0000,4.9700,0.4700,-8.4500,0.0229,0.2094,0.0796,-31.2500,-13.0000,37.8750,140.8125,31.8125,-177.0625,0
1776972564.603,9.9240,-0.6991,-0.1053,0.0954,-0.1364,0.0290,-88.0500,15.6000,-6.6000,9.6798,-1.0654,-1.8459,0.1833,-0.1354,-0.1034,-6.9000,8.2500,-84.0000,5.0900,0.4300,-8.3600,0.0262,0.2258,0.0829,-31.2500,-13.0000,37.8750,140.8750,31.9375,-177.1250,0
1776972564.608,9.7851,-0.6009,-0.1077,0.0565,-0.1516,0.0232,-88.0500,15.6000,-6.6000,9.6798,-1.0654,-1.8459,0.1833,-0.1354,-0.1034,-6.9000,8.2500,-84.0000,5.0900,0.4300,-8.3600,0.0273,0.2007,0.0960,-31.2500,-13.0000,37.8750,140.9375,32.0625,-177.1875,0
1776972564.615,9.7683,-0.4908,-0.1437,0.0565,-0.1516,0.0232,-88.9500,15.0000,-6.0000,9.6295,-1.1277,-1.8172,0.1652,-0.1370,-0.0914,-6.1500,9.0000,-84.7500,5.0900,0.4700,-8.3900,0.0273,0.2007,0.0960,-31.2500,-13.0000,37.8750,140.9375,32.0625,-177.1875,0
1776972564.620,9.7683,-0.4908,-0.1437,0.0496,-0.1471,0.0139,-88.9500,15.0000,-6.0000,9.6295,-1.1277,-1.8172,0.1652,-0.1370,-0.0914,-6.1500,9.0000,-84.7500,5.3000,0.3200,-8.5100,0.0338,0.2007,0.0938,-32.3750,-13.0000,39.0625,141.0000,32.1250,-177.1875,0
1776972564.625,9.6774,-0.4932,-0.1676,0.0466,-0.1458,0.0016,-89.4000,15.4500,-7.9500,9.4571,-1.1540,-2.0063,0.1540,-0.1196,-0.0799,-7.2000,9.0000,-83.7000,5.3000,0.3200,-8.5100,0.0338,0.2007,0.0938,-32.3750,-13.0000,39.0625,141.0000,32.1250,-177.1875,0
1776972564.629,9.6774,-0.4932,-0.1676,0.0466,-0.1458,0.0016,-89.4000,15.4500,-7.9500,9.4571,-1.1540,-2.0063,0.1540,-0.1196,-0.0799,-7.2000,9.0000,-83.7000,5.3000,0.3200,-8.5100,0.0393,0.2160,0.0720,-32.3750,-13.0000,39.0625,141.0000,32.2500,-177.2500,0
1776972564.634,9.7803,-0.4908,-0.2634,0.0501,-0.1295,-0.0051,-89.4000,15.4500,-7.9500,9.5648,-1.2234,-2.0183,0.1508,-0.1135,-0.0738,-6.4500,8.5500,-85.8000,5.3000,0.1500,-8.3900,0.0393,0.2160,0.0720,-32.3750,-13.0000,39.0625,141.0000,32.2500,-177.2500,0
1776972564.642,9.7803,-0.4908,-0.2634,0.0501,-0.1295,-0.0051,-90.3000,16.8000,-6.1500,9.4475,-1.2809,-2.1237,0.1466,-0.1228,-0.0778,-7.0500,8.4000,-83.8500,5.2700,0.3500,-8.3600,0.0393,0.1909,0.0600,-32.3750,-13.0000,39.0625,141.0000,32.3750,-177.3125,0
1776972564.647,9.6414,-0.5578,-0.1724,0.0573,-0.1274,-0.0104,-90.3000,16.8000,-6.1500,9.4475,-1.2809,-2.1237,0.1466,-0.1228,-0.0778,-7.0500,8.4000,-83.8500,5.2700,0.3500,-8.3600,0.0393,0.1909,0.0600,-32.3750,-13.0000,39.0625,141.0625,32.5000,-177.3125,0
1776972564.654,9.6534,-0.6656,-0.1844,0.0576,-0.1132,-0.0195,-90.3000,16.8000,-6.1500,9.4308,-1.0726,-2.0830,0.1444,-0.0938,-0.0797,-5.2500,7.9500,-83.1000,5.2700,0.4100,-8.2900,0.0338,0.1604,0.0567,-32.3750,-13.0000,39.0625,141.0625,32.5625,-177.3750,0
1776972564.664,9.6917,-0.8045,-0.2035,0.0789,-0.1098,-0.0224,-89.5500,17.1000,-5.5500,9.4547,-1.0534,-2.0016,0.1258,-0.0879,-0.0813,-5.2500,7.9500,-83.1000,5.2500,0.4200,-8.2900,0.0360,0.1364,0.0545,-32.3750,-13.0000,39.0625,141.0625,32.5625,-177.3750,0
1776972564.669,9.6917,-0.8045,-0.2035,0.0789,-0.1098,-0.0224,-89.5500,17.1000,-5.5500,9.4547,-1.0534,-2.0016,0.1258,-0.0879,-0.0813,-5.2500,7.9500,-83.1000,5.2500,0.4200,-8.2900,0.0360,0.1364,0.0545,-32.3750,-13.0000,39.0625,141.1250,32.6250,-177.3750,0
1776972564.674,9.6295,-0.7278,-0.1532,0.0983,-0.0922,-0.0221,-89.8500,15.6000,-7.6500,9.4164,-0.9649,-2.1452,0.1151,-0.0791,-0.0786,-6.4500,8.5500,-84.3000,5.3200,0.3600,-8.2900,0.0295,0.1396,0.0491,-31.6875,-12.6875,39.8750,141.1250,32.6250,-177.3750,0
1776972564.679,9.6295,-0.7278,-0.1532,0.0983,-0.0922,-0.0221,-89.8500,15.6000,-7.6500,9.4164,-0.9649,-2.1452,0.1151,-0.0791,-0.0786,-6.4500,8.5500,-84.3000,5.3200,0.3600,-8.2900,0.0295,0.1396,0.0491,-31.6875,-12.6875,39.8750,141.1250,32.6250,-177.3750,0
1776972564.684,9.6271,-0.7877,-0.1939,0.1234,-0.0741,-0.0256,-89.8500,15.9000,-8.4000,9.3398,-1.0080,-2.2673,0.1162,-0.0901,-0.0770,-6.9000,9.3000,-84.7500,5.3500,0.3900,-8.3000,0.0360,0.1320,0.0447,-31.6875,-12.6875,39.8750,141.1250,32.6875,-177.4375,0
1776972564.689,9.6271,-0.7877,-0.1939,0.1234,-0.0741,-0.0256,-89.8500,15.9000,-8.4000,9.3398,-1.0080,-2.2673,0.1162,-0.0901,-0.0770,-6.9000,9.3000,-84.7500,5.3500,0.3900,-8.3000,0.0349,0.0971,0.0393,-31.6875,-12.6875,39.8750,141.1250,32.7500,-177.4375,0
