timestamp,thigh_acc_x,thigh_acc_y,thigh_acc_z,thigh_gyro_x,thigh_gyro_y,thigh_gyro_z,thigh_mag_x,thigh_mag_y,thigh_mag_z,shank_acc_x,shank_acc_y,shank_acc_z,shank_gyro_x,shank_gyro_y,shank_gyro_z,shank_mag_x,shank_mag_y,shank_mag_z,foot_acc_x,foot_acc_y,foot_acc_z,foot_gyro_x,foot_gyro_y,foot_gyro_z,foot_mag_x,foot_mag_y,foot_mag_z,foot_euler_x,foot_euler_y,foot_euler_z,perturbation_event
1776971245.976,9.9766,1.9465,0.9912,-0.3056,0.0144,0.3091,-83.7000,-17.7000,7.2000,10.3765,0.7685,0.9098,-0.4794,1.5378,0.8535,-28.2000,-2.5500,50.5500,7.5900,-2.0900,-7.1900,-0.2323,0.5258,0.0044,-21.5625,21.5625,25.1875,326.6250,43.9375,169.9375,0
1776971245.981,9.9766,1.9465,0.9912,-0.3712,-0.0554,0.3107,-85.0500,-18.3000,5.5500,10.3765,0.7685,0.9098,-0.4794,1.5378,0.8535,-28.2000,-2.5500,50.5500,6.1100,-1.9800,-7.3100,-0.1778,0.4811,-0.1734,-21.5625,21.5625,25.1875,306.6250,44.2500,170.0625,0
1776971245.987,10.0221,1.9704,0.8595,-0.4783,-0.0970,0.2934,-84.4500,-18.1500,7.2000,10.6087,0.5986,1.2737,-0.5321,1.5815,0.8847,-28.9500,-3.7500,52.6500,6.6100,-2.2600,-7.1100,-0.1920,0.4800,-0.3251,-21.5625,21.5625,25.1875,307.1875,44.5625,170.3125,0
1776971245.992,10.0221,1.9704,0.8595,-0.4783,-0.0970,0.2934,-84.4500,-18.1500,7.2000,10.6087,0.5986,1.2737,-0.5321,1.5815,0.8847,-28.9500,-3.7500,52.6500,6.6100,-2.2600,-7.1100,-0.1920,0.4800,-0.3251,-21.5625,21.5625,25.1875,307.9375,44.8125,170.6875,0
1776971246.001,10.2807,1.9034,0.4812,-0.6305,-0.0163,0.2723,-84.4500,-18.1500,7.2000,10.7978,-0.2203,1.2641,-0.6334,1.6198,0.9398,-28.9500,-3.7500,52.6500,6.3300,-2.0200,-6.8600,-0.2705,0.4680,-0.5007,-21.5625,21.5625,25.1875,307.9375,44.8125,170.6875,0
1776971246.011,10.3262,2.2242,0.6129,-0.6243,-0.1705,0.2467,-83.8500,-19.5000,4.8000,11.2456,-0.9529,1.2737,-0.8108,1.6606,0.9838,-27.6000,-4.5000,53.7000,7.1500,-1.2600,-7.4900,-0.4265,0.4222,-0.5967,-21.5625,21.5625,25.1875,308.8750,45.1250,171.2500,0
1776971246.016,11.0516,2.4445,0.1939,-0.6480,-0.2137,0.2198,-83.8500,-19.5000,4.8000,11.9471,-0.8021,0.5411,-1.0693,1.6968,1.0488,-27.0000,-4.6500,54.6000,7.1500,-1.2600,-7.4900,-0.4265,0.4222,-0.5967,-21.5625,21.5625,25.1875,310.0625,45.4375,171.8125,0
1776971246.021,11.0516,2.4445,0.1939,-0.6480,-0.2137,0.2198,-83.1000,-18.3000,6.1500,11.9471,-0.8021,0.5411,-1.0693,1.6968,1.0488,-27.0000,-4.6500,54.6000,5.4700,-1.3000,-8.5800,-0.5552,0.5160,-0.6109,-23.0625,21.1875,24.7500,310.0625,45.4375,171.8125,0
1776971246.026,11.4682,2.7270,-0.6273,-0.5958,-0.2721,0.2036,-83.1000,-18.3000,6.1500,12.6079,-0.5962,-0.3543,-1.3869,1.7243,1.1335,-26.1000,-4.8000,54.7500,5.4700,-1.3000,-8.5800,-0.5552,0.5160,-0.6109,-23.0625,21.1875,24.7500,311.2500,46.0000,172.4375,0
1776971246.031,11.4682,2.7270,-0.6273,-0.5958,-0.2721,0.2036,-84.1500,-19.9500,6.6000,12.6079,-0.5962,-0.3543,-1.3869,1.7243,1.1335,-25.9500,-6.1500,53.5500,5.4300,0.6300,-8.8700,-0.5432,0.8803,-0.6665,-23.0625,21.1875,24.7500,311.2500,46.0000,172.4375,0
1776971246.036,11.5209,3.2561,-0.9697,-0.4319,-0.3579,0.1732,-84.1500,-19.9500,6.6000,13.0484,-0.3136,-1.0151,-1.6630,1.7525,1.2438,-25.9500,-6.1500,53.5500,5.4300,0.6300,-8.8700,-0.4669,1.4977,-0.7374,-23.0625,21.1875,24.7500,312.5000,46.8750,173.0000,0
1776971246.042,11.5209,3.2561,-0.9697,-0.4319,-0.3579,0.1732,-85.0500,-17.5500,4.8000,13.3094,0.4381,-1.4605,-1.8727,1.8090,1.4067,-25.2000,-6.4500,53.2500,4.8900,0.7600,-9.3800,-0.4669,1.4977,-0.7374,-23.0625,21.1875,24.7500,313.2500,48.2500,173.3125,0
1776971246.051,11.8106,4.0390,-1.6903,-0.3696,-0.5196,0.1236,-83.2500,-20.1000,4.2000,13.3094,0.4381,-1.4605,-1.9761,1.8325,1.5327,-25.2000,-6.4500,53.2500,3.6600,2.3500,-9.2000,-0.0305,2.4184,-0.7439,-23.0625,21.1875,24.7500,313.2500,48.2500,173.3125,0
1776971246.061,11.9926,4.1587,-1.9848,-0.4852,-0.8508,0.0807,-85.0500,-19.0500,3.3000,12.1123,1.6759,-2.7653,-1.8429,1.9049,1.5993,-24.1500,-9.1500,55.3500,3.3000,5.0900,-5.2000,0.2793,3.0336,-0.5018,-23.0625,21.1875,24.7500,313.5625,49.9375,173.2500,0
1776971246.066,12.5360,2.4804,-2.4588,-0.3906,-1.3315,0.0661,-85.0500,-19.0500,3.3000,12.1123,1.6759,-2.7653,-1.8429,1.9049,1.5993,-24.1500,-9.1500,55.3500,3.3000,5.0900,-5.2000,0.2793,3.0336,-0.5018,-23.0625,21.1875,24.7500,313.5625,49.9375,173.2500,0
1776971246.071,12.5360,2.4804,-2.4588,-0.3906,-1.3315,0.0661,-85.0500,-19.0500,3.3000,10.7859,1.9201,-1.6400,-1.5295,2.0177,1.6209,-23.2500,-9.3000,54.1500,4.6800,0.9300,-9.1800,0.5127,3.6597,-0.9054,-23.5000,20.3750,25.1875,313.8750,52.0000,173.3125,0
1776971246.076,12.1937,1.3408,-1.5562,-0.0469,-1.8202,0.0943,-85.0500,-19.0500,3.3000,10.7859,1.9201,-1.6400,-1.5295,2.0177,1.6209,-23.2500,-9.3000,54.1500,4.6800,0.9300,-9.1800,0.5127,3.6597,-0.9054,-23.5000,20.3750,25.1875,313.8750,52.0000,173.3125,0
1776971246.081,11.1833,1.0798,-0.8978,-0.0469,-1.8202,0.0943,-84.7500,-19.3500,3.7500,10.1203,2.2170,-0.7661,-1.1349,2.0853,1.5679,-20.1000,-11.4000,54.9000,12.1900,-3.4400,-6.5800,0.4396,4.0208,-1.7759,-23.5000,20.3750,25.1875,314.7500,54.3750,174.0000,0
1776971246.088,11.1833,1.0798,-0.8978,0.0986,-2.0792,0.0823,-84.7500,-19.3500,3.7500,10.1203,2.2170,-0.7661,-1.1349,2.0853,1.5679,-20.1000,-11.4000,54.9000,7.6000,1.8100,-7.3700,0.6469,4.8618,-0.5825,-23.5000,20.3750,25.1875,314.7500,57.0625,173.7500,0
1776971246.092,10.2472,0.9649,-0.7494,0.2289,-2.2543,0.0115,-84.7500,-19.3500,3.7500,9.8282,2.0303,0.2969,-0.8271,2.1130,1.4695,-20.8500,-12.4500,55.6500,7.6000,1.8100,-7.3700,0.6469,4.8618,-0.5825,-23.5000,20.3750,25.1875,314.1875,59.6875,172.3125,0
1776971246.101,9.1387,1.2617,0.2322,0.2619,-2.4912,-0.0986,-85.9500,-18.9000,0.4500,9.9862,2.1332,1.3838,-0.6371,2.1242,1.3587,-20.7000,-11.2500,57.0000,9.7800,1.0100,-7.8300,0.5552,4.8738,0.6654,-23.5000,20.3750,25.1875,314.1875,59.6875,172.3125,0
1776971246.111,8.1283,1.3767,1.7214,0.2241,-2.4240,-0.2028,-85.0500,-19.0500,1.0500,10.5058,1.7885,2.9856,-0.5002,2.1658,1.2998,-20.7000,-11.2500,57.0000,10.3400,0.4200,-8.1600,0.9163,5.1684,0.9414,-23.5000,20.3750,25.1875,313.2500,62.4375,170.0625,0
1776971246.116,8.1283,1.3767,1.7214,0.2241,-2.4240,-0.2028,-85.0500,-19.0500,1.0500,10.5058,1.7885,2.9856,-0.5002,2.1658,1.2998,-20.7000,-11.2500,57.0000,10.3400,0.4200,-8.1600,0.9163,5.1684,0.9414,-23.5000,20.3750,25.1875,312.0000,65.1875,166.9375,0
1776971246.121,8.6167,1.4676,2.5714,0.1617,-2.2034,-0.3467,-87.0000,-18.9000,-1.6500,10.7452,1.1325,4.2880,-0.3709,2.2271,1.2737,-17.8500,-12.9000,57.7500,12.6200,-0.3700,-8.0200,1.2130,5.2229,1.1356,-27.5000,19.5625,18.5000,312.0000,65.1875,166.9375,0
1776971246.126,8.6167,1.4676,2.5714,0.1617,-2.2034,-0.3467,-87.0000,-18.9000,-1.6500,10.7452,1.1325,4.2880,-0.3709,2.2271,1.2737,-17.8500,-12.9000,57.7500,12.6200,-0.3700,-8.0200,1.2130,5.2229,1.1356,-27.5000,19.5625,18.5000,310.6875,67.6875,163.0625,0
1776971246.131,9.3877,0.9912,3.4093,0.0408,-2.1168,-0.5025,-85.9500,-17.7000,-0.9000,10.0293,0.7278,5.3893,-0.3893,2.3222,1.2718,-16.9500,-14.5500,58.3500,13.1700,0.1300,-7.8700,1.3188,4.9884,1.2065,-27.5000,19.5625,18.5000,310.6875,67.6875,163.0625,0
1776971246.136,9.3877,0.9912,3.4093,0.0408,-2.1168,-0.5025,-85.9500,-17.7000,-0.9000,10.0293,0.7278,5.3893,-0.3893,2.3222,1.2718,-16.9500,-14.5500,58.3500,13.1700,0.1300,-7.8700,1.2425,4.8160,1.2392,-27.5000,19.5625,18.5000,309.5000,69.9375,158.4375,0
1776971246.142,9.7133,0.3160,3.8930,0.0437,-2.0206,-0.6928,-86.1000,-18.0000,-2.5500,10.8314,-0.0144,6.9001,-0.3339,2.3566,1.3398,-15.7500,-12.9000,58.5000,14.6000,-0.6800,-9.6100,1.2425,4.8160,1.2392,-27.5000,19.5625,18.5000,308.4375,72.0625,152.7500,0
1776971246.151,9.8426,-1.2378,3.8307,0.0965,-1.8714,-0.8471,-87.0000,-16.9500,-3.7500,10.3238,-0.0455,7.5920,-0.1503,2.3369,1.3566,-15.3000,-15.1500,59.5500,19.2600,0.1900,-12.8400,1.1268,4.7909,1.2948,-27.5000,19.5625,18.5000,308.4375,72.0625,152.7500,0
1776971246.161,10.6350,-1.8220,3.3303,0.1298,-1.7139,-0.9494,-87.0000,-16.9500,-3.7500,10.1514,-1.7478,8.2911,-0.1250,2.2012,1.3885,-15.3000,-15.1500,59.5500,17.4400,-0.0800,-13.0700,0.9861,4.7887,1.2152,-27.5000,19.5625,18.5000,307.6250,74.0000,145.8125,0
1776971246.166,10.6350,-1.8220,3.3303,0.1298,-1.7139,-0.9494,-87.0000,-16.9500,-3.7500,10.1514,-1.7478,8.2911,-0.1250,2.2012,1.3885,-15.3000,-15.1500,59.5500,17.4400,-0.0800,-13.0700,0.9861,4.7887,1.2152,-27.5000,19.5625,18.5000,306.6875,75.3125,138.2500,0
1776971246.171,11.7196,-1.2234,3.2034,0.1772,-1.5593,-1.0365,-88.6500,-16.5000,-6.0000,9.2488,-2.4277,7.8913,-0.0016,2.0515,1.3467,-15.3000,-15.1500,59.5500,14.3800,0.6800,-12.1000,0.9098,3.9793,1.3046,-30.5000,22.1875,7.5000,306.6875,75.3125,138.2500,0
1776971246.176,11.7196,-1.2234,3.2034,0.1772,-1.5593,-1.0365,-88.6500,-16.5000,-6.0000,9.2488,-2.4277,7.8913,-0.0016,2.0515,1.3467,-15.3000,-15.1500,59.5500,14.3800,0.6800,-12.1000,0.9098,3.9793,1.3046,-30.5000,22.1875,7.5000,306.6875,75.3125,138.2500,0
1776971246.181,12.5911,-0.2825,3.2346,0.2838,-1.4581,-1.1218,-88.6500,-16.5000,-6.0000,8.9639,-3.4285,7.7835,0.0400,1.8788,1.2812,-10.3500,-15.9000,61.8000,5.8300,1.7100,-10.4300,1.1596,2.8503,1.4355,-30.5000,22.1875,7.5000,305.5000,75.8750,131.0000,0
1776971246.188,13.2974,0.0311,3.5027,0.3757,-1.3888,-1.1780,-88.6500,-16.5000,-6.0000,7.4555,-4.0869,7.2784,0.0341,1.5207,1.1295,-10.3500,-15.9000,61.8000,-1.9400,0.6900,-10.5300,1.5479,2.0028,1.6864,-30.5000,22.1875,7.5000,303.8125,75.8125,124.3750,0
1776971246.193,13.2974,0.0311,3.5027,0.3757,-1.3888,-1.1780,-88.0500,-13.9500,-7.6500,7.4555,-4.0869,7.2784,0.0341,1.5207,1.1295,-10.3500,-15.9000,62.1000,-1.9400,0.6900,-10.5300,1.5479,2.0028,1.6864,-30.5000,22.1875,7.5000,301.6250,75.1875,118.3750,0
1776971246.202,13.2232,-0.0838,3.4237,0.5028,-1.3344,-1.1866,-88.0500,-14.4000,-8.1000,7.1635,-5.5282,8.5712,0.2321,1.1890,0.9542,-10.9500,-15.1500,62.1000,1.8500,-4.4700,-10.5300,1.9362,1.3734,2.1598,-30.5000,22.1875,7.5000,301.6250,75.1875,118.3750,0
1776971246.211,12.9359,-0.6440,3.1292,0.6483,-1.2596,-1.1437,-88.8000,-14.8500,-9.9000,5.8634,-4.1827,8.2480,0.1311,0.8279,0.7453,-11.4000,-15.4500,62.8500,15.8100,-7.4500,-12.8100,1.9373,1.9242,2.3322,-30.5000,22.1875,7.5000,299.4375,74.4375,111.6875,0
1776971246.216,12.9311,-0.7781,2.9616,0.6483,-1.2596,-1.1437,-88.8000,-14.8500,-9.9000,5.9687,-3.8547,6.2944,-0.4812,0.5311,0.5532,-11.4000,-15.4500,62.8500,15.8100,-7.4500,-12.8100,1.9373,1.9242,2.3322,-30.5000,22.1875,7.5000,299.4375,74.4375,111.6875,0
1776971246.221,12.9311,-0.7781,2.9616,0.8316,-1.2255,-1.1197,-88.3500,-13.9500,-11.1000,5.9687,-3.8547,6.2944,-0.4812,0.5311,0.5532,-11.4000,-15.4500,62.8500,8.9300,-0.2100,-19.5100,0.4549,3.4285,1.6330,-29.8750,25.8750,0.0000,298.8125,74.1875,104.0000,0
1776971246.226,12.4115,-0.4214,2.8635,0.9912,-1.2279,-1.1335,-88.3500,-13.9500,-11.1000,7.0916,-3.2992,5.6216,-0.9054,0.0727,0.3027,-11.4000,-15.4500,62.8500,8.9300,-0.2100,-19.5100,0.4549,3.4285,1.6330,-29.8750,25.8750,0.0000,298.8125,74.1875,104.0000,0
1776971246.231,12.4115,-0.4214,2.8635,0.9912,-1.2279,-1.1335,-87.7500,-11.4000,-11.2500,7.0916,-3.2992,5.6216,-0.9054,0.0727,0.3027,-11.2500,-16.8000,62.2500,4.6400,2.5500,-13.2000,-0.8759,1.7857,1.6864,-29.8750,25.8750,0.0000,298.6250,73.5000,100.4375,0
1776971246.236,11.9566,0.2801,2.7007,1.1197,-1.1892,-1.1652,-87.7500,-11.4000,-11.2500,7.2856,-2.6959,5.0709,-1.0698,-0.3808,0.0874,-11.2500,-16.8000,62.2500,4.6400,2.5500,-13.2000,-0.3752,-1.5533,2.2373,-29.8750,25.8750,0.0000,297.3750,72.1250,102.5625,0
1776971246.242,11.9566,0.2801,2.7007,1.1197,-1.1892,-1.1652,-88.3500,-11.7000,-11.4000,7.2856,-2.6959,5.0709,-1.0698,-0.3808,0.0874,-10.0500,-18.0000,61.9500,0.8600,3.1700,-8.1000,-0.3752,-1.5533,2.2373,-29.8750,25.8750,0.0000,295.4375,70.4375,105.8750,0
1776971246.252,11.7388,0.8475,2.5211,1.2351,-1.0901,-1.1791,-88.3500,-11.7000,-11.4000,6.6679,-2.5929,5.4660,-0.9539,-0.8647,-0.0805,-10.8000,-17.5500,61.2000,0.2500,2.8500,-5.7300,0.1876,-2.7565,2.3835,-29.8750,25.8750,0.0000,295.4375,70.4375,105.8750,0
1776971246.262,11.3868,1.0127,2.3846,1.3025,-1.0584,-1.1532,-90.4500,-10.3500,-12.0000,5.8826,-2.3224,5.5545,-0.7775,-1.1357,-0.1990,-11.8500,-16.0500,61.5000,1.1000,2.8300,-6.9700,0.1549,-1.9166,1.9711,-29.8750,25.8750,0.0000,293.8125,69.0625,107.6875,0
1776971246.266,11.1642,0.9768,2.3200,1.3267,-1.0491,-1.1226,-90.4500,-10.3500,-12.0000,5.7269,-2.8994,5.5881,-0.6480,-1.4264,-0.3549,-11.8500,-16.0500,61.5000,1.1000,2.8300,-6.9700,0.1549,-1.9166,1.9711,-29.8750,25.8750,0.0000,292.9375,68.2500,109.3750,0
1776971246.272,11.1642,0.9768,2.3200,1.3267,-1.0491,-1.1226,-90.4500,-10.3500,-12.0000,5.7269,-2.8994,5.5881,-0.6480,-1.4264,-0.3549,-12.3000,-16.8000,59.4000,1.4400,2.7400,-7.4100,-0.1287,-1.5686,1.1028,-27.1875,30.3750,-5.0000,292.9375,68.2500,109.3750,0
1776971246.276,10.7907,0.6369,2.0638,1.3824,-0.9798,-1.0890,-90.4500,-10.3500,-12.0000,5.3558,-2.7677,5.6551,-0.4314,-1.7810,-0.6009,-12.3000,-16.8000,59.4000,1.4400,2.7400,-7.4100,-0.1287,-1.5686,1.1028,-27.1875,30.3750,-5.0000,292.0625,67.3750,110.9375,0
1776971246.281,10.7907,0.6369,2.0638,1.3824,-0.9798,-1.0890,-88.0500,-9.3000,-12.1500,5.3558,-2.7677,5.6551,-0.4314,-1.7810,-0.6009,-12.3000,-16.8000,59.4000,2.3700,3.3600,-6.9700,-0.1287,-1.5686,1.1028,-27.1875,30.3750,-5.0000,292.0625,67.3750,110.9375,0
1776971246.287,10.5249,0.2514,1.9225,1.5159,-0.9006,-1.0712,-88.0500,-9.3000,-12.1500,5.1020,-2.7342,5.8059,-0.1226,-1.9907,-0.8111,-14.7000,-16.9500,57.7500,2.3700,3.3600,-6.9700,-0.0545,-2.2209,0.7821,-27.1875,30.3750,-5.0000,291.1250,66.5000,113.2500,0
1776971246.293,10.0078,0.1173,1.7789,1.5159,-0.9006,-1.0712,-88.8000,-9.3000,-11.8500,5.1020,-2.7342,5.8059,-0.1226,-1.9907,-0.8111,-14.7000,-16.9500,57.7500,3.3000,2.2300,-7.7400,-0.0545,-2.2209,0.7821,-27.1875,30.3750,-5.0000,290.6875,65.8750,116.4375,0
1776971246.302,10.0078,0.1173,1.7789,1.6414,-0.8665,-1.0288,-88.6500,-8.7000,-13.0500,5.1068,-2.8515,5.2553,0.3214,-2.1354,-0.9489,-14.2500,-17.4000,57.1500,4.3900,1.5800,-8.4200,-0.2716,-2.6333,-0.0076,-27.1875,30.3750,-5.0000,290.6875,65.8750,116.4375,0
1776971246.312,9.6055,-0.1077,1.4557,1.7797,-0.8330,-0.9814,-89.7000,-8.4000,-12.0000,5.4564,-2.5211,4.6615,0.7786,-2.2292,-1.0568,-16.2000,-16.5000,57.3000,5.6000,1.3600,-8.6300,-0.2716,-2.6333,-0.0076,-27.1875,30.3750,-5.0000,290.1875,65.1875,119.4375,0
1776971246.317,9.6055,-0.1077,1.4557,1.8882,-0.8460,-0.9305,-89.7000,-8.4000,-12.0000,6.5769,-2.5259,4.2808,1.1431,-2.2990,-1.1306,-18.6000,-15.4500,58.9500,5.6000,1.3600,-8.6300,-0.2716,-2.6333,-0.0076,-27.1875,30.3750,-5.0000,290.1875,65.1875,119.4375,0
1776971246.321,9.5385,-0.2538,1.4820,1.8882,-0.8460,-0.9305,-88.8000,-6.9000,-13.6500,6.5769,-2.5259,4.2808,1.1431,-2.2990,-1.1306,-18.6000,-15.4500,58.9500,5.1100,0.7000,-6.2200,-0.4701,-3.5147,-0.5890,-26.3750,33.7500,-6.1875,289.9375,64.4375,123.5625,0
1776971246.326,9.5385,-0.2538,1.4820,2.0203,-0.8290,-0.8855,-88.8000,-6.9000,-13.6500,6.8474,-2.7749,4.0414,1.6574,-2.4650,-1.2175,-19.6500,-14.7000,56.1000,5.1100,0.7000,-6.2200,-0.4701,-3.5147,-0.5890,-26.3750,33.7500,-6.1875,289.9375,64.4375,123.5625,0
1776971246.331,9.5385,-0.8691,1.3120,2.0203,-0.8290,-0.8855,-89.7000,-6.0000,-14.2500,6.8474,-2.7749,4.0414,1.6574,-2.4650,-1.2175,-19.6500,-14.7000,56.1000,4.4500,0.1900,-5.0600,-0.5421,-3.7819,-0.8476,-26.3750,33.7500,-6.1875,289.7500,63.6250,127.9375,0
1776971246.336,9.5385,-0.8691,1.3120,2.1365,-0.8537,-0.8497,-89.7000,-6.0000,-14.2500,6.8091,-3.6440,4.0151,2.1269,-2.6572,-1.3691,-19.6500,-14.7000,56.1000,4.4500,0.1900,-5.0600,-0.6392,-3.6870,-1.1606,-26.3750,33.7500,-6.1875,289.8125,62.7500,132.2500,0
1776971246.343,9.3446,-1.4916,0.8404,2.1850,-0.9094,-0.7639,-89.7000,-6.0000,-14.2500,7.1323,-4.1468,4.1396,2.4448,-2.7704,-1.4805,-19.6500,-14.7000,56.1000,4.6000,-0.3300,-4.3400,-0.6392,-3.6870,-1.1606,-26.3750,33.7500,-6.1875,290.2500,62.0000,136.3750,0
1776971246.352,9.0836,-1.8244,0.4334,2.2271,-0.9478,-0.6571,-88.3500,-5.8500,-13.6500,7.8219,-4.9799,4.8746,2.4845,-2.9055,-1.5023,-21.6000,-11.4000,56.7000,6.3700,-1.0300,-5.1200,-0.7210,-3.4874,-1.4923,-26.3750,33.7500,-6.1875,290.2500,62.0000,136.3750,0
1776971246.362,8.9711,-1.7238,0.1053,2.2745,-0.9771,-0.5566,-90.3000,-4.6500,-14.7000,8.8298,-5.5306,5.4899,2.1618,-3.0662,-1.4669,-22.8000,-10.5000,55.8000,7.3700,-1.2500,-5.8700,-0.7069,-3.3554,-1.7813,-26.3750,33.7500,-6.1875,290.8750,61.2500,140.4375,0
1776971246.367,8.9711,-1.7238,0.1053,2.2745,-0.9771,-0.5566,-90.3000,-4.6500,-14.7000,8.8298,-5.5306,5.4899,2.1618,-3.0662,-1.4669,-24.3000,-10.8000,54.1500,7.3700,-1.2500,-5.8700,-0.7069,-3.3554,-1.7813,-26.3750,33.7500,-6.1875,291.5000,60.4375,144.3125,0
1776971246.372,9.1028,-1.4293,-0.1628,2.2567,-0.9934,-0.4874,-89.5500,-5.4000,-14.7000,9.3541,-5.7676,6.2153,1.4458,-3.2436,-1.3752,-24.3000,-10.8000,54.1500,7.8200,-1.5900,-6.5200,-0.5934,-3.3369,-1.9482,-33.6875,37.8750,-3.6875,291.5000,60.4375,144.3125,0
1776971246.377,9.1028,-1.4293,-0.1628,2.2567,-0.9934,-0.4874,-89.5500,-5.4000,-14.7000,9.3541,-5.7676,6.2153,1.4458,-3.2436,-1.3752,-25.5000,-8.7000,53.8500,7.8200,-1.5900,-6.5200,-0.5934,-3.3369,-1.9482,-33.6875,37.8750,-3.6875,292.0625,59.5625,147.9375,0
1776971246.382,8.9352,-1.0918,-0.2107,2.1154,-1.0523,-0.4623,-88.3500,-5.8500,-15.1500,9.8881,-4.6831,6.1890,0.8942,-3.4307,-1.3507,-25.5000,-8.7000,53.8500,8.0200,-2.0500,-6.7600,-0.4102,-3.3314,-1.9548,-33.6875,37.8750,-3.6875,292.0625,59.5625,147.9375,0
1776971246.390,8.8921,-0.6943,-0.0694,1.8727,-1.0331,-0.4429,-88.3500,-5.8500,-15.1500,8.2672,-4.3622,5.7581,0.4455,-3.3692,-1.4128,-25.5000,-8.7000,53.8500,9.7600,-3.8300,-7.7900,-0.3218,-3.2670,-1.8293,-33.6875,37.8750,-3.6875,292.5000,58.5000,151.0625,0
1776971246.395,8.8921,-0.6943,-0.0694,1.8727,-1.0331,-0.4429,-89.1000,-4.9500,-13.6500,8.2672,-4.3622,5.7581,0.4455,-3.3692,-1.4128,-25.5000,-8.7000,53.8500,9.7600,-3.8300,-7.7900,-0.3218,-3.2670,-1.8293,-33.6875,37.8750,-3.6875,292.9375,57.3125,153.9375,0
1776971246.402,8.5880,-0.5435,-0.2825,1.6475,-1.0011,-0.4207,-86.8500,-4.2000,-16.2000,8.6910,-3.0646,5.2289,0.3206,-3.3358,-1.4154,-25.5000,-8.7000,53.8500,11.1200,-4.5100,-8.3900,-0.4025,-3.2659,-1.6635,-33.6875,37.8750,-3.6875,293.4375,55.9375,156.5625,0
1776971246.412,8.4252,-0.6776,-0.5507,1.5226,-0.9430,-0.3984,-86.8500,-4.2000,-16.2000,8.8107,-2.4612,5.1284,0.4061,-3.3580,-1.4802,-28.2000,-6.0000,48.7500,11.7700,-4.3700,-8.8100,-0.5574,-3.3772,-1.4563,-33.6875,37.8750,-3.6875,293.4375,55.9375,156.5625,0
1776971246.417,8.4252,-0.6776,-0.5507,1.5226,-0.9430,-0.3984,-86.8500,-4.2000,-16.2000,8.8107,-2.4612,5.1284,0.4061,-3.3580,-1.4802,-29.8500,-5.4000,48.1500,11.7700,-4.3700,-8.8100,-0.5574,-3.3772,-1.4563,-33.6875,37.8750,-3.6875,293.8125,54.3750,158.8750,0
1776971246.422,8.4420,-0.8356,-0.7230,1.3851,-0.9310,-0.3523,-89.4000,-4.5000,-15.3000,9.2584,-2.1811,5.3367,0.4999,-3.3231,-1.5375,-29.8500,-5.4000,48.1500,11.8000,-3.5400,-8.0400,-0.6556,-3.5070,-1.2337,-48.5000,40.5000,13.0000,293.8125,54.3750,158.8750,0
1776971246.427,8.4108,-1.0487,-0.7494,1.3851,-0.9310,-0.3523,-89.4000,-4.5000,-15.3000,9.2584,-2.1811,5.3367,0.4999,-3.3231,-1.5375,-31.3500,-4.6500,45.7500,11.8000,-3.5400,-8.0400,-0.6556,-3.5070,-1.2337,-48.5000,40.5000,13.0000,294.3750,52.8125,160.9375,0
1776971246.432,8.4108,-1.0487,-0.7494,1.1722,-0.8711,-0.3352,-89.4000,-4.5000,-15.3000,9.6702,-2.1596,5.8442,0.6864,-3.3417,-1.5998,-31.3500,-4.6500,45.7500,12.0900,-3.0100,-8.0600,-0.8236,-3.4667,-1.0156,-48.5000,40.5000,13.0000,294.3750,52.8125,160.9375,0
1776971246.437,8.5162,-1.1301,-0.9218,1.1722,-0.8711,-0.3352,-89.4000,-4.5000,-15.3000,9.6702,-2.1596,5.8442,0.6864,-3.3417,-1.5998,-31.9500,-3.7500,46.2000,12.0900,-3.0100,-8.0600,-0.9283,-3.3968,-0.8530,-48.5000,40.5000,13.0000,294.9375,51.1250,162.8125,0
1776971246.443,8.5162,-1.1301,-0.9218,0.9662,-0.8300,-0.3392,-87.7500,-4.0500,-17.5500,9.3925,-2.2458,5.9400,0.9014,-3.3524,-1.6641,-31.9500,-3.7500,46.2000,12.5800,-2.4900,-8.5100,-0.9283,-3.3968,-0.8530,-48.5000,40.5000,13.0000,295.5625,49.4375,164.5000,0
1776971246.452,8.5784,-0.7542,-1.2570,0.7826,-0.7250,-0.3464,-88.2000,-3.6000,-17.8500,9.1722,-2.2170,5.6240,1.0363,-3.3310,-1.6598,-31.9500,-3.7500,46.2000,12.8600,-1.6600,-8.9200,-0.9577,-3.4438,-0.7592,-48.5000,40.5000,13.0000,295.5625,49.4375,164.5000,0
1776971246.462,9.7229,0.0958,-1.5850,0.7458,-0.7045,-0.3349,-88.3500,-3.9000,-18.0000,8.7891,-2.1380,5.0182,1.1095,-3.3193,-1.6129,-33.7500,-0.3000,41.2500,12.7200,-1.2200,-8.7000,-0.9741,-3.5376,-0.7494,-48.5000,40.5000,13.0000,296.1875,47.6250,166.0000,0
1776971246.467,7.6974,0.1939,-0.8308,0.4940,-0.5742,-0.3317,-88.3500,-3.9000,-18.0000,8.7891,-2.1380,5.0182,1.1095,-3.3193,-1.6129,-32.2500,-0.7500,40.2000,12.7200,-1.2200,-8.7000,-0.9741,-3.5376,-0.7494,-48.5000,40.5000,13.0000,296.1875,47.6250,166.0000,0
1776971246.472,7.6974,0.1939,-0.8308,0.4940,-0.5742,-0.3317,-87.7500,-4.5000,-19.8000,8.5305,-2.0279,4.6256,1.0664,-3.3039,-1.5713,-32.2500,-0.7500,40.2000,12.3100,-0.6300,-8.2000,-0.9719,-3.5877,-0.8301,-44.3750,29.5625,37.7500,296.8750,45.8125,167.5000,0
1776971246.477,7.3789,-0.1341,-0.4262,0.1708,-0.2313,-0.3216,-87.7500,-4.5000,-19.8000,8.5305,-2.0279,4.6256,1.0664,-3.3039,-1.5713,-33.7500,1.0500,38.1000,12.3100,-0.6300,-8.2000,-0.9719,-3.5877,-0.8301,-44.3750,29.5625,37.7500,296.8750,45.8125,167.5000,0
1776971246.482,7.3789,-0.1341,-0.4262,0.1708,-0.2313,-0.3216,-87.4500,-4.0500,-18.6000,8.2193,-1.8148,4.6998,0.9854,-3.2690,-1.5252,-33.7500,1.0500,38.1000,11.8400,-0.2100,-7.5100,-0.8814,-3.6008,-0.9457,-44.3750,29.5625,37.7500,297.5625,43.9375,168.9375,0
1776971246.489,7.8123,-0.2586,-0.5052,-0.0117,-0.1354,-0.2590,-87.4500,-4.0500,-18.6000,8.3222,-1.4078,4.5466,0.8777,-3.2828,-1.4703,-33.1500,2.7000,38.2500,10.9300,0.0100,-6.5800,-0.6807,-3.5648,-1.0417,-44.3750,29.5625,37.7500,319.4375,42.1250,170.1875,0
1776971246.494,7.5776,-0.0814,-0.5578,-0.0117,-0.1354,-0.2590,-88.3500,-3.4500,-17.7000,8.3222,-1.4078,4.5466,0.8777,-3.2828,-1.4703,-33.6000,3.1500,35.4000,10.9300,0.0100,-6.5800,-0.6807,-3.5648,-1.0417,-44.3750,29.5625,37.7500,318.8125,40.2500,171.1875,0
1776971246.502,7.5776,-0.0814,-0.5578,-0.0930,-0.0410,-0.2100,-88.3500,-3.4500,-17.7000,8.5138,-1.0056,4.4221,0.8199,-3.3308,-1.4711,-33.6000,3.1500,35.4000,10.2900,-0.0500,-6.1900,-0.4363,-3.5343,-1.0701,-44.3750,29.5625,37.7500,318.1250,38.4375,172.0000,0
1776971246.512,7.2185,0.5243,-0.5291,-0.0751,0.1879,-0.1815,-87.6000,-1.9500,-18.4500,8.7388,-0.5818,4.2689,0.8394,-3.3945,-1.5055,-33.6000,3.1500,35.4000,9.8600,-0.2600,-5.9100,-0.1647,-3.4743,-1.0090,-44.3750,29.5625,37.7500,318.1250,38.4375,172.0000,0
1776971246.517,7.2137,1.1181,-0.2969,-0.0104,0.4562,-0.1455,-87.6000,-1.9500,-18.4500,8.8538,-0.4788,4.0606,0.9936,-3.4526,-1.5633,-33.0000,2.5500,31.9500,9.8600,-0.2600,-5.9100,-0.1647,-3.4743,-1.0090,-44.3750,29.5625,37.7500,317.5000,36.7500,172.5625,0
1776971246.522,7.2137,1.1181,-0.2969,-0.0104,0.4562,-0.1455,-87.6000,-1.9500,-18.4500,8.8538,-0.4788,4.0606,0.9936,-3.4526,-1.5633,-33.0000,2.5500,31.9500,9.2800,-1.4200,-5.9900,0.0098,-3.2496,-0.9207,-22.5625,16.7500,43.1875,317.5000,36.7500,172.5625,0
1776971246.527,7.1443,1.3503,-0.0694,0.1116,0.6134,-0.1087,-87.6000,-1.9500,-18.4500,9.2560,-0.6776,3.4836,1.1716,-3.4813,-1.6006,-34.5000,3.3000,31.6500,9.2800,-1.4200,-5.9900,0.0098,-3.2496,-0.9207,-22.5625,16.7500,43.1875,316.9375,35.1875,173.0000,0
1776971246.532,7.1443,1.3503,-0.0694,0.1116,0.6134,-0.1087,-88.0500,-3.9000,-18.4500,9.2560,-0.6776,3.4836,1.1716,-3.4813,-1.6006,-34.5000,3.3000,31.6500,9.2800,-2.1200,-6.4900,0.0469,-2.9354,-0.8268,-22.5625,16.7500,43.1875,316.9375,35.1875,173.0000,0
1776971246.537,7.0318,1.2977,0.2298,0.2060,0.7429,-0.0719,-88.0500,-3.9000,-18.4500,9.2608,-0.9050,3.0095,1.3195,-3.4720,-1.6036,-33.9000,4.6500,28.9500,9.2800,-2.1200,-6.4900,-0.0022,-2.7969,-0.6796,-22.5625,16.7500,43.1875,316.5000,33.6875,173.3750,0
1776971246.543,7.0174,0.9002,0.1604,0.2060,0.7429,-0.0719,-87.3000,-3.4500,-18.4500,9.2608,-0.9050,3.0095,1.3195,-3.4720,-1.6036,-33.9000,4.9500,28.6500,9.3000,-2.6100,-6.8400,-0.0022,-2.7969,-0.6796,-22.5625,16.7500,43.1875,316.1250,32.1875,173.8125,0
1776971246.552,6.9887,0.7638,-0.0575,0.2558,0.7906,-0.0456,-87.7500,-2.8500,-18.6000,9.6343,-1.2115,2.2338,1.2729,-3.4685,-1.5476,-32.4000,4.9500,27.6000,9.6800,-2.9900,-7.0600,-0.1385,-2.7271,-0.5934,-22.5625,16.7500,43.1875,316.1250,32.1875,173.8125,0
1776971246.562,7.0533,0.7566,-0.3807,0.2273,0.8663,-0.0021,-87.7500,-2.8500,-18.6000,9.5289,-1.5083,1.5802,1.1575,-3.3982,-1.4727,-32.4000,4.9500,27.6000,10.2100,-2.9300,-7.1600,-0.3196,-2.6453,-0.5640,-22.5625,16.7500,43.1875,315.8125,30.8125,174.2500,0
1776971246.567,7.0533,0.7566,-0.3807,0.1804,0.8652,0.0695,-87.6000,-3.4500,-16.9500,9.4667,-1.4820,1.1205,0.8926,-3.3071,-1.3699,-32.4000,4.9500,27.6000,10.2100,-2.9300,-7.1600,-0.3196,-2.6453,-0.5640,-22.5625,16.7500,43.1875,315.8125,30.8125,174.2500,0
1776971246.572,7.5465,1.0894,-0.7853,0.1335,0.8127,0.1287,-88.2000,-4.0500,-17.5500,9.4667,-1.4820,1.1205,0.8926,-3.3071,-1.3699,-33.6000,5.4000,24.0000,10.8700,-2.9800,-7.5300,-0.4494,-2.6213,-0.5291,-7.1875,13.1875,36.7500,315.5000,29.3750,174.7500,0
1776971246.577,7.5465,1.0894,-0.7853,0.1335,0.8127,0.1287,-88.2000,-4.0500,-17.5500,9.1482,-1.3144,0.4573,0.4636,-3.2223,-1.2963,-33.6000,5.4000,24.0000,10.8700,-2.9800,-7.5300,-0.4494,-2.6213,-0.5291,-7.1875,13.1875,36.7500,315.5000,29.3750,174.7500,0
1776971246.582,8.0278,1.3431,-1.3096,0.1306,0.7189,0.1719,-88.2000,-4.0500,-17.5500,9.1482,-1.3144,0.4573,0.4636,-3.2223,-1.2963,-32.1000,7.9500,23.2500,11.6000,-2.9200,-7.5300,-0.5585,-2.7576,-0.4080,-7.1875,13.1875,36.7500,315.3125,27.8750,175.2500,0
1776971246.591,8.2839,1.5347,-1.9680,0.1306,0.7189,0.1719,-88.6500,-2.8500,-16.3500,8.6718,-1.0032,0.2274,0.0429,-3.0627,-1.2684,-32.1000,7.9500,23.2500,13.2700,-2.6000,-7.3200,-0.6774,-2.8100,-0.2705,-7.1875,13.1875,36.7500,315.1875,26.3125,175.7500,0
1776971246.595,8.2839,1.5347,-1.9680,0.1916,0.6054,0.1905,-88.6500,-2.8500,-16.3500,8.8490,0.0192,0.2634,-0.2294,-2.8011,-1.2801,-32.1000,8.7000,21.4500,13.2700,-2.6000,-7.3200,-0.6774,-2.8100,-0.2705,-7.1875,13.1875,36.7500,315.0625,25.0000,176.3125,0
1776971246.603,8.6981,1.8028,-2.7629,0.3184,0.6025,0.2137,-85.8000,-3.0000,-15.9000,7.8530,0.6776,-0.1628,-0.2499,-2.5247,-1.2164,-33.0000,10.5000,20.5500,13.2700,-2.5500,-6.9100,-0.7330,-2.3813,-0.3283,-7.1875,13.1875,36.7500,314.9375,24.0000,176.8750,0
1776971246.613,8.8466,2.1620,-3.5961,0.4519,0.6003,0.1974,-85.8000,-3.0000,-15.9000,7.8745,0.9337,-0.7039,-0.2273,-2.2159,-1.1450,-33.0000,10.5000,20.5500,13.7900,-2.7700,-7.3500,-0.8279,-1.8337,-0.3742,-7.1875,13.1875,36.7500,314.9375,24.0000,176.8750,0
1776971246.617,8.8466,2.1620,-3.5961,0.4519,0.6003,0.1974,-85.8000,-3.0000,-15.9000,7.8745,0.9337,-0.7039,-0.2273,-2.2159,-1.1450,-33.0000,10.5000,20.5500,13.7900,-2.7700,-7.3500,-0.8279,-1.8337,-0.3742,-7.1875,13.1875,36.7500,314.8750,22.9375,177.4375,0
1776971246.622,8.3246,2.5642,-4.0462,0.5287,0.5753,0.1580,-85.8000,-3.0000,-15.9000,8.3797,0.8164,-0.9313,-0.1282,-1.9084,-1.1114,-33.0000,10.5000,20.5500,12.6400,-3.5200,-5.6200,-0.8236,-1.9777,-0.2149,-4.3750,13.7500,30.5000,314.8750,22.9375,177.4375,0
1776971246.627,8.3246,2.5642,-4.0462,0.5287,0.5753,0.1580,-88.0500,-3.0000,-15.1500,8.3797,0.8164,-0.9313,-0.1282,-1.9084,-1.1114,-33.0000,10.5000,20.5500,12.6400,-3.5200,-5.6200,-0.8236,-1.9777,-0.2149,-4.3750,13.7500,30.5000,314.8750,21.6875,177.9375,0
1776971246.632,8.4060,2.9640,-4.9728,0.4647,0.5950,0.1498,-88.0500,-3.0000,-15.1500,8.5545,0.6249,-0.0311,0.1522,-1.6691,-1.0469,-32.5500,10.0500,17.1000,11.8200,-3.7200,-4.4100,-0.8519,-2.2133,-0.0720,-4.3750,13.7500,30.5000,314.8750,21.6875,177.9375,0
1776971246.639,8.7819,2.7869,-5.6551,0.4647,0.5950,0.1498,-87.6000,-2.2500,-16.6500,8.5545,0.6249,-0.0311,0.1522,-1.6691,-1.0469,-32.5500,10.0500,17.1000,10.8400,-3.6100,-2.9500,-0.9697,-2.1588,-0.0382,-4.3750,13.7500,30.5000,314.9375,20.5000,178.5000,0
1776971246.644,8.7819,2.7869,-5.6551,0.3909,0.7815,0.0301,-88.2000,-4.8000,-15.6000,7.8099,0.7350,-1.3527,0.0610,-1.4719,-0.8868,-31.6500,10.9500,17.8500,10.8400,-3.6100,-2.9500,-0.9697,-2.1588,-0.0382,-4.3750,13.7500,30.5000,315.0000,19.5000,179.1250,0
1776971246.653,8.5114,3.1005,-5.5809,0.2513,1.0608,0.0285,-88.2000,-4.8000,-15.6000,7.5872,-0.2658,-2.3607,-0.1332,-1.1141,-0.7253,-31.6500,10.2000,17.2500,10.2700,-3.6800,-1.1900,-1.0897,-1.7748,-0.0982,-4.3750,13.7500,30.5000,315.0625,18.6875,179.7500,0
1776971246.663,8.8969,3.0047,-4.8052,0.0863,1.1679,-0.0037,-87.3000,-3.4500,-15.4500,6.8929,-0.0263,-2.3152,-0.1271,-0.8164,-0.6185,-29.1000,10.6500,15.0000,10.8300,-3.3700,-0.6400,-1.1257,-1.4519,-0.1069,-4.3750,13.7500,30.5000,315.0625,18.6875,179.7500,0
1776971246.667,9.6941,2.8611,-4.4963,0.0863,1.1679,-0.0037,-88.0500,-5.8500,-14.7000,6.8929,-0.0263,-2.3152,-0.1271,-0.8164,-0.6185,-29.1000,10.6500,15.0000,10.8300,-3.3700,-0.6400,-1.1257,-1.4519,-0.1069,-4.3750,13.7500,30.5000,315.0625,18.6875,179.7500,0
1776971246.673,9.6941,2.8611,-4.4963,-0.1085,1.2348,-0.0224,-88.0500,-5.8500,-14.7000,6.6343,0.7781,-2.1715,-0.2044,-0.4069,-0.5124,-29.1000,10.6500,15.0000,10.6600,-2.8300,0.7400,-1.0265,-1.2097,-0.0273,-2.8750,14.0000,28.3750,315.1250,18.0625,-179.5625,0
1776971246.677,9.4188,2.6815,-4.5466,-0.1085,1.2348,-0.0224,-86.1000,-5.4000,-15.1500,6.6343,0.7781,-2.1715,-0.2044,-0.4069,-0.5124,-29.1000,10.6500,15.0000,10.6600,-2.8300,0.7400,-1.0265,-1.2097,-0.0273,-2.8750,14.0000,28.3750,315.1250,18.0625,-179.5625,0
1776971246.683,9.4188,2.6815,-4.5466,-0.0480,1.3121,0.0309,-86.1000,-5.4000,-15.1500,6.6391,1.3048,-2.4086,-0.3467,0.0245,-0.3565,-30.7500,10.0500,16.6500,11.2700,-2.9500,0.7500,-0.8454,-0.9043,0.0611,-2.8750,14.0000,28.3750,315.2500,17.5625,-179.1250,0
1776971246.692,9.6917,2.6121,-4.6471,0.0962,1.3848,0.0213,-86.1000,-5.4000,-15.1500,6.1818,1.7837,-2.5307,-0.2793,0.4482,-0.2124,-30.1500,10.0500,15.6000,11.1900,-3.0400,2.5500,-0.6480,-0.6349,0.1036,-2.8750,14.0000,28.3750,315.3125,17.1875,-178.8125,0
1776971246.702,9.4571,2.6624,-4.6974,0.2782,1.2798,-0.0344,-87.4500,-3.3000,-14.2500,5.9879,1.7142,-2.5618,-0.0544,0.8873,-0.0586,-29.5500,11.7000,16.2000,11.6800,-2.9700,2.8500,-0.5160,-0.2454,0.0687,-2.8750,14.0000,28.3750,315.4375,17.0625,-178.5000,0
1776971246.710,9.2344,2.8419,-4.7429,0.4887,1.3496,-0.0304,-87.4500,-3.3000,-14.2500,6.0573,1.6113,-1.2210,0.3198,1.3464,0.0234,-30.1500,10.0500,15.6000,12.3100,-2.9000,2.5700,-0.4549,0.1614,0.0000,-2.8750,14.0000,28.3750,315.4375,17.1250,-178.2500,0
1776971246.715,9.2344,2.8419,-4.7429,0.4887,1.3496,-0.0304,-86.7000,-3.3000,-12.3000,6.0573,1.6113,-1.2210,0.3198,1.3464,0.0234,-30.1500,10.0500,15.6000,12.3100,-2.9000,2.5700,-0.4549,0.1614,0.0000,-2.8750,14.0000,28.3750,315.4375,17.1250,-178.2500,0
1776971246.720,9.0932,2.1979,-3.8307,0.5340,1.3837,0.0461,-86.7000,-3.3000,-12.3000,9.6893,2.4397,-3.5937,-0.1775,1.5926,0.0325,-29.5500,10.2000,17.8500,5.7900,6.3400,4.0200,-0.3502,0.4429,-0.0524,-3.0000,14.1875,29.5000,315.4375,17.3750,-178.0625,0
1776971246.725,9.1913,0.8835,-2.0949,0.5340,1.3837,0.0461,-87.3000,-3.4500,-10.3500,9.6893,2.4397,-3.5937,-0.1775,1.5926,0.0325,-29.5500,10.2000,17.8500,5.7900,6.3400,4.0200,-0.3502,0.4429,-0.0524,-3.0000,14.1875,29.5000,315.4375,17.3750,-178.0625,0
1776971246.730,9.1913,0.8835,-2.0949,0.1623,1.3206,0.1148,-87.3000,-3.4500,-10.3500,13.5632,1.6544,-3.1651,-0.2678,1.5239,-0.0834,-29.5500,10.2000,17.8500,0.1200,11.5800,-3.9500,1.8620,1.3101,0.6785,-3.0000,14.1875,29.5000,315.6875,18.1250,-179.1875,0
1776971246.734,9.3470,1.1277,-0.6105,0.1623,1.3206,0.1148,-85.3500,-3.9000,-11.1000,13.5632,1.6544,-3.1651,-0.2678,1.5239,-0.0834,-29.5500,10.2000,17.8500,0.1200,11.5800,-3.9500,1.8620,1.3101,0.6785,-3.0000,14.1875,29.5000,315.6250,19.2500,179.2500,0
1776971246.743,9.3470,1.1277,-0.6105,-0.2731,1.3278,0.2326,-85.3500,-3.9000,-11.1000,13.1897,3.2370,-7.4795,-0.3032,1.0208,-0.2561,-31.2000,11.5500,17.4000,-0.9800,-2.6600,-6.5500,2.4915,1.9831,0.4025,-3.0000,14.1875,29.5000,315.6250,20.5625,178.2500,0
1776971246.753,9.7396,0.7733,0.5100,-0.5273,1.4261,0.3429,-85.5000,-5.2500,-11.2500,15.7993,-2.9616,-8.8155,0.3259,0.5625,-0.2995,-29.7000,11.2500,19.9500,2.7100,-3.8600,-19.7600,1.7519,2.4162,0.2160,-3.0000,14.1875,29.5000,315.0625,21.6875,177.6250,0
1776971246.763,12.0333,-1.0080,1.0606,-0.6019,1.5799,0.5007,-85.8000,-4.2000,-11.4000,13.0628,-4.0294,-8.9591,2.2044,0.0208,-0.3176,-30.6000,10.9500,19.0500,0.7700,-9.2100,-10.7800,1.4290,2.0257,-0.7549,-3.0000,14.1875,29.5000,315.0625,21.6875,177.6250,0
1776971246.767,13.7092,-2.4948,1.2522,-0.3437,1.2721,0.6451,-85.3500,-4.9500,-9.9000,10.4866,-4.8602,-6.2082,1.9481,0.3267,-0.1519,-30.6000,10.9500,19.0500,0.7700,-9.2100,-10.7800,1.4290,2.0257,-0.7549,-3.0000,14.1875,29.5000,314.4375,22.5625,177.1875,0
1776971246.773,13.7092,-2.4948,1.2522,-0.3437,1.2721,0.6451,-85.3500,-4.9500,-9.9000,10.4866,-4.8602,-6.2082,1.9481,0.3267,-0.1519,-30.3000,10.6500,20.1000,-1.1800,-12.5100,-3.6500,1.1203,1.4933,-0.9905,-1.5625,15.1875,25.5000,314.4375,22.5625,177.1875,0
1776971246.777,14.8608,-2.8443,-0.0311,0.6968,1.4621,0.7895,-85.3500,-4.9500,-9.9000,13.1777,-3.4572,-4.1108,1.2156,0.7943,-0.1050,-30.3000,10.6500,20.1000,-1.1800,-12.5100,-3.6500,1.1203,1.4933,-0.9905,-1.5625,15.1875,25.5000,314.4375,22.5625,177.1875,0
1776971246.782,17.0970,-1.4916,-1.1564,0.6968,1.4621,0.7895,-85.3500,-4.9500,-9.9000,13.1777,-3.4572,-4.1108,1.2156,0.7943,-0.1050,-29.7000,9.3000,18.7500,1.8300,-9.3100,-10.8700,1.2566,2.1140,-0.7799,-1.5625,15.1875,25.5000,313.8750,23.7500,176.6250,0
1776971246.791,17.0970,-1.4916,-1.1564,1.9161,1.4698,0.9920,-85.9500,-5.5500,-9.3000,16.3380,2.9784,-1.4844,0.2779,1.0603,-0.1703,-29.7000,9.3000,18.7500,22.8500,-4.4900,-16.6200,2.3726,2.1478,-0.3120,-1.5625,15.1875,25.5000,313.4375,24.9375,175.3750,0
1776971246.795,17.1497,-0.8667,-2.2745,2.1551,1.4706,0.9417,-85.9500,-5.5500,-9.3000,16.3380,2.9784,-1.4844,0.2779,1.0603,-0.1703,-29.7000,9.3000,18.7500,22.8500,-4.4900,-16.6200,2.3726,2.1478,-0.3120,-1.5625,15.1875,25.5000,314.2500,26.9375,174.1250,0
1776971246.803,17.2095,1.4724,-4.7764,1.8895,1.2921,0.6539,-85.9500,-5.5500,-9.3000,14.6549,6.5936,0.0910,0.4567,1.6233,-0.3190,-29.4000,10.5000,19.9500,22.4100,3.2700,-18.3100,1.2905,3.7208,1.6155,-1.5625,15.1875,25.5000,314.1875,27.3750,173.3750,0
1776971246.813,14.2742,2.6528,-4.8435,0.9617,0.9246,0.2883,-85.2000,-7.9500,-7.2000,11.9758,4.8674,-0.6608,1.3627,1.4986,-0.0786,-29.4000,11.2500,21.6000,12.3600,11.0100,-7.5900,1.2654,0.8127,0.1309,-1.5625,15.1875,25.5000,314.1875,27.3750,173.3750,0
1776971246.818,14.2742,2.6528,-4.8435,0.9617,0.9246,0.2883,-84.1500,-5.8500,-7.6500,8.0373,3.5578,-0.0646,2.7291,1.3603,0.0863,-29.1000,10.2000,22.5000,12.3600,11.0100,-7.5900,1.2654,0.8127,0.1309,-1.5625,15.1875,25.5000,314.1875,27.3750,173.3750,0
1776971246.823,9.5241,0.8045,-1.4341,0.0245,0.6654,-0.1103,-84.1500,-5.8500,-7.6500,8.0373,3.5578,-0.0646,2.7291,1.3603,0.0863,-29.1000,10.2000,22.5000,2.2600,-12.8700,-11.5600,1.3155,-0.8061,0.8454,-1.2500,17.5625,22.6875,314.4375,26.8750,172.4375,0
1776971246.828,9.5241,0.8045,-1.4341,0.0245,0.6654,-0.1103,-84.1500,-5.4000,-6.9000,7.0485,1.7382,0.5148,3.5229,1.2396,0.0608,-29.4000,10.5000,23.8500,2.2600,-12.8700,-11.5600,1.3155,-0.8061,0.8454,-1.2500,17.5625,22.6875,314.4375,26.8750,172.4375,0
1776971246.833,7.3167,-1.2019,3.4429,-0.8423,0.6254,-0.4181,-84.1500,-5.4000,-6.9000,7.0485,1.7382,0.5148,3.5229,1.2396,0.0608,-29.4000,10.5000,23.8500,0.1500,-15.3200,-6.8700,0.6174,-0.1898,0.2116,-1.2500,17.5625,22.6875,314.5000,26.7500,172.0625,0
1776971246.838,7.3167,-1.2019,3.4429,-0.8423,0.6254,-0.4181,-84.0000,-6.4500,-6.7500,8.7747,-0.3400,-0.2562,3.2802,1.2129,0.0195,-29.4000,10.0500,24.1500,0.1500,-15.3200,-6.8700,0.1069,1.0330,0.3294,-1.2500,17.5625,22.6875,314.6875,27.2500,171.8750,0
1776971246.844,6.3566,-1.7382,8.2911,-1.8183,0.9254,-0.4434,-84.0000,-6.4500,-6.7500,8.7747,-0.3400,-0.2562,3.2802,1.2129,0.0195,-29.4000,10.0500,24.1500,3.7200,-1.7800,-7.7600,0.1069,1.0330,0.3294,-1.2500,17.5625,22.6875,314.8750,28.0625,171.8125,0
1776971246.853,7.3789,-1.2019,7.9703,-2.0107,1.1269,-0.3150,-84.0000,-4.8000,-6.0000,9.4379,-1.3791,-0.6943,2.0422,1.1743,-0.0821,-29.4000,10.0500,24.1500,5.1000,2.8100,-9.7400,-0.1222,1.4846,0.1691,-1.2500,17.5625,22.6875,314.8750,28.7500,171.7500,0
1776971246.863,6.8594,0.5315,4.7309,-1.5108,1.1365,-0.2062,-84.1500,-4.6500,-6.9000,8.6431,-1.1851,-2.0638,0.6408,1.0754,-0.1737,-30.1500,9.3000,25.2000,4.8900,-0.6900,-8.7300,0.0469,1.1748,-0.0153,-1.2500,17.5625,22.6875,314.8750,28.7500,171.7500,0
1776971246.868,6.8594,0.5315,4.7309,-1.5108,1.1365,-0.2062,-84.1500,-4.6500,-6.9000,8.2528,-0.8068,-1.8316,-0.4106,0.9864,-0.2582,-29.5500,10.2000,24.7500,4.8900,-0.6900,-8.7300,0.0469,1.1748,-0.0153,-1.2500,17.5625,22.6875,314.8750,29.2500,171.4375,0
1776971246.873,5.4971,0.8140,2.8515,-0.8111,1.0323,-0.0536,-84.1500,-4.6500,-6.9000,8.2528,-0.8068,-1.8316,-0.4106,0.9864,-0.2582,-29.5500,10.2000,24.7500,4.2900,-2.0500,-8.8500,0.4581,0.9021,0.0633,-0.3750,19.6875,19.2500,314.8750,29.2500,171.4375,0
1776971246.878,5.4971,0.8140,2.8515,-0.8111,1.0323,-0.0536,-83.8500,-5.8500,-5.5500,8.4252,-0.1604,-1.1420,-1.1596,0.9995,-0.2337,-29.4000,10.0500,24.9000,4.2900,-2.0500,-8.8500,0.4581,0.9021,0.0633,-0.3750,19.6875,19.2500,314.8750,29.5625,171.0000,0
1776971246.883,5.5976,-0.5243,2.9305,-0.3027,1.2225,0.0727,-83.8500,-5.8500,-5.5500,8.4252,-0.1604,-1.1420,-1.1596,0.9995,-0.2337,-29.4000,10.0500,24.9000,4.3400,-2.5700,-8.7900,0.6883,0.6578,0.1102,-0.3750,19.6875,19.2500,314.8750,29.5625,171.0000,0
1776971246.891,7.0653,0.1437,1.1277,-0.2801,1.2068,0.2241,-81.9000,-5.4000,-5.8500,9.6606,0.1484,-0.5698,-1.5950,1.0533,-0.1228,-28.8000,10.2000,23.5500,5.0200,-2.0600,-8.4600,0.5520,0.4854,0.1865,-0.3750,19.6875,19.2500,314.9375,29.8125,170.5625,0
1776971246.896,7.0653,0.1437,1.1277,-0.2801,1.2068,0.2241,-84.1500,-5.8500,-4.3500,10.0748,0.6009,-0.5842,-1.7653,1.0315,-0.0666,-28.8000,10.2000,23.5500,5.0200,-2.0600,-8.4600,0.5520,0.4854,0.1865,-0.3750,19.6875,19.2500,315.0000,30.1875,170.3125,0
1776971246.903,8.4204,1.0247,0.0934,-0.7357,1.2561,0.3525,-84.1500,-5.8500,-4.3500,10.1562,1.0822,-0.7877,-1.7043,0.9273,-0.0874,-28.8000,10.2000,23.5500,4.6100,-2.5400,-8.5900,0.3316,0.6392,0.1298,-0.3750,19.6875,19.2500,315.0000,30.5625,170.1250,0
1776971246.913,9.6678,1.2282,0.8452,-1.2015,1.2017,0.3954,-83.4000,-6.9000,-4.3500,9.7157,2.3990,-1.2689,-1.4067,0.9193,-0.1034,-30.1500,9.3000,27.3000,4.9300,-1.6800,-8.2800,0.2258,0.8039,0.0665,-0.3750,19.6875,19.2500,315.0000,30.5625,170.1250,0
1776971246.918,10.4651,1.1779,1.9992,-1.2814,0.9537,0.4234,-82.9500,-7.2000,-5.2500,9.7157,2.3990,-1.2689,-1.4067,0.9193,-0.1034,-30.1500,11.5500,25.9500,4.9300,-1.6800,-8.2800,0.2258,0.8039,0.0665,-0.3750,19.6875,19.2500,315.0000,30.5625,170.1250,0
1776971246.923,10.4651,1.1779,1.9992,-1.2814,0.9537,0.4234,-82.9500,-7.2000,-5.2500,9.5912,3.3950,-1.8531,-0.7512,0.9028,-0.0717,-30.1500,11.5500,25.9500,5.4400,-1.8900,-8.6300,0.1963,0.7123,0.0535,-1.1875,19.7500,19.0625,315.0625,31.0000,169.9375,0
1776971246.928,10.2999,1.6735,3.1939,-0.9649,0.6438,0.4463,-82.3500,-6.6000,-5.1000,9.5912,3.3950,-1.8531,-0.7512,0.9028,-0.0717,-30.7500,10.5000,27.3000,5.4400,-1.8900,-8.6300,0.1963,0.7123,0.0535,-1.1875,19.7500,19.0625,315.0625,31.0000,169.9375,0
1776971246.933,10.2999,1.6735,3.1939,-0.9649,0.6438,0.4463,-82.3500,-6.6000,-5.1000,9.2320,3.6631,-2.4565,0.0392,0.9065,-0.0019,-30.7500,10.5000,27.3000,5.0500,-2.3200,-8.4900,0.1527,0.5858,0.0175,-1.1875,19.7500,19.0625,315.0625,31.3125,169.8125,0
1776971246.938,10.9343,2.6983,3.7062,-0.4335,0.4655,0.4463,-82.3500,-6.6000,-5.1000,9.2320,3.6631,-2.4565,0.0392,0.9065,-0.0019,-30.1500,9.0000,28.0500,5.0500,-2.3200,-8.4900,0.0131,0.6981,-0.0153,-1.1875,19.7500,19.0625,315.0625,31.6875,169.8125,0
1776971246.944,10.9343,2.6983,3.7062,-0.4335,0.4655,0.4463,-82.3500,-6.6000,-5.1000,9.0501,3.5410,-2.6432,0.6510,0.8993,0.0456,-30.1500,9.0000,28.0500,5.0900,-1.8400,-8.4200,0.0131,0.6981,-0.0153,-1.1875,19.7500,19.0625,315.1250,32.1250,169.8750,0
1776971246.953,10.7069,4.1037,3.2872,0.0330,0.4197,0.4471,-83.1000,-7.3500,-4.3500,9.3541,4.0055,-2.3487,1.1213,0.8985,0.0418,-29.1000,10.6500,28.6500,5.0600,-2.0000,-8.3500,-0.2062,0.8476,-0.0709,-1.1875,19.7500,19.0625,315.1250,32.1250,169.8750,0
1776971246.963,10.2352,4.1683,2.6169,0.3552,0.5510,0.3565,-83.1000,-7.3500,-4.3500,9.1051,4.2976,-2.0231,1.4890,0.9118,0.0218,-29.1000,10.6500,28.6500,4.6200,-1.8500,-8.3800,-0.3862,0.9872,-0.0720,-1.1875,19.7500,19.0625,315.1875,32.6875,170.0625,0
1776971246.968,10.0580,3.8499,2.3104,0.4956,0.6161,0.2222,-82.9500,-8.4000,-3.0000,9.1051,4.2976,-2.0231,1.4890,0.9118,0.0218,-30.3000,10.2000,28.9500,4.6200,-1.8500,-8.3800,-0.3862,0.9872,-0.0720,-1.1875,19.7500,19.0625,315.2500,33.3125,170.2500,0
1776971246.973,10.0580,3.8499,2.3104,0.4956,0.6161,0.2222,-82.9500,-8.4000,-3.0000,9.0501,3.6943,-2.1476,1.6036,0.9430,0.0181,-30.3000,10.2000,28.9500,4.9000,-1.5100,-8.1000,-0.4734,1.1006,-0.0480,-0.0625,19.5000,17.2500,315.2500,33.3125,170.2500,0
1776971246.978,9.3709,3.4141,1.9656,0.5780,0.5321,0.1522,-81.7500,-7.2000,-3.4500,9.0501,3.6943,-2.1476,1.6036,0.9430,0.0181,-30.4500,10.5000,29.5500,4.9000,-1.5100,-8.1000,-0.4734,1.1006,-0.0480,-0.0625,19.5000,17.2500,315.3750,33.8750,170.4375,0
1776971246.983,9.3709,3.4141,1.9656,0.5780,0.5321,0.1522,-81.7500,-7.2000,-3.4500,9.1698,2.8228,-1.5993,1.4570,0.9870,-0.0109,-30.4500,10.5000,29.5500,4.9000,-1.5400,-9.5100,-0.4134,1.0352,-0.0491,-0.0625,19.5000,17.2500,315.3750,33.8750,170.4375,0
1776971246.990,9.2967,2.2673,1.5586,0.6217,0.5825,0.0674,-81.9000,-7.8000,-3.6000,9.3254,1.4269,-0.9529,1.0032,0.9816,-0.0250,-29.7000,10.5000,29.1000,5.1400,-1.2900,-8.3100,-0.2345,0.6458,0.0327,-0.0625,19.5000,17.2500,315.4375,34.2500,170.5625,0
1776971246.995,9.2895,1.0295,1.7023,0.4698,0.7277,0.0211,-81.9000,-7.8000,-3.6000,9.3254,1.4269,-0.9529,1.0032,0.9816,-0.0250,-30.1500,11.2500,28.0500,5.1400,-1.2900,-8.3100,-0.2345,0.6458,0.0327,-0.0625,19.5000,17.2500,315.5000,34.5000,170.5625,0
1776971247.003,9.3470,0.2442,1.8459,0.4698,0.7277,0.0211,-81.7500,-7.9500,-1.6500,9.5912,0.3376,-0.5746,0.2238,0.9355,0.0181,-30.1500,11.2500,28.0500,5.3000,-1.3000,-8.2900,-0.1080,0.5061,0.0622,-0.0625,19.5000,17.2500,315.5625,34.8125,170.5000,0
1776971247.013,9.6630,-0.1341,1.9273,0.1212,0.8130,-0.0277,-82.3500,-6.9000,-3.3000,9.9383,-0.3112,-0.4621,-0.6462,0.8977,0.0815,-31.0500,9.4500,29.2500,5.0700,-1.4400,-8.2600,-0.0229,0.5825,0.0338,-0.0625,19.5000,17.2500,315.5625,34.8125,170.5000,0
1776971247.018,9.6630,-0.1341,1.9273,-0.4186,0.9118,-0.0973,-82.3500,-7.8000,-1.3500,9.9383,-0.3112,-0.4621,-0.6462,0.8977,0.0815,-31.0500,9.4500,29.2500,5.0700,-1.4400,-8.2600,-0.0229,0.5825,0.0338,-0.0625,19.5000,17.2500,315.6250,35.1875,170.5000,0
1776971247.023,9.8138,-0.3232,2.0231,-0.4186,0.9118,-0.0973,-82.3500,-7.8000,-1.3500,10.1275,0.0311,-0.6249,-1.2700,0.9190,0.1759,-31.0500,9.4500,29.2500,5.6500,-1.7200,-8.1600,-0.0327,0.6752,0.0142,-1.8750,20.2500,19.1875,315.6250,35.1875,170.5000,0
1776971247.028,9.8138,-0.3232,2.0231,-0.9571,0.8335,-0.1386,-82.3500,-7.8000,-1.3500,10.1275,0.0311,-0.6249,-1.4703,0.9177,0.2478,-29.7000,10.5000,29.8500,5.6500,-1.7200,-8.1600,-0.0327,0.6752,0.0142,-1.8750,20.2500,19.1875,315.6250,35.5625,170.4375,0
1776971247.033,9.8641,-0.4429,1.9537,-1.3832,0.6622,-0.1556,-82.3500,-7.8000,-1.3500,10.3166,0.7949,-0.9313,-1.4703,0.9177,0.2478,-29.7000,10.5000,29.8500,5.7500,-1.5700,-8.0800,0.0240,0.6621,0.0131,-1.8750,20.2500,19.1875,315.6250,35.5625,170.4375,0
1776971247.038,9.8641,-0.4429,1.9537,-1.3832,0.6622,-0.1556,-81.1500,-7.8000,-1.0500,9.9144,1.7190,-1.2881,-1.3640,0.8942,0.2966,-28.9500,9.0000,30.1500,5.7500,-1.5700,-8.0800,0.0829,0.5181,0.0218,-1.8750,20.2500,19.1875,315.6875,35.8125,170.3125,0
1776971247.044,9.4763,-0.5387,1.6951,-1.5010,0.4437,-0.1450,-81.1500,-7.8000,-1.0500,9.9144,1.7190,-1.2881,-1.3640,0.8942,0.2966,-28.6500,10.5000,31.6500,6.0800,-2.3000,-8.7300,0.0829,0.5181,0.0218,-1.8750,20.2500,19.1875,315.6250,36.0625,170.2500,0
1776971247.053,9.4475,-0.8667,1.3479,-1.4088,0.2321,-0.1162,-81.1500,-7.8000,-1.0500,9.8521,2.5426,-1.5299,-1.0158,0.8641,0.3056,-30.1500,9.3000,32.4000,5.9000,-2.6300,-8.0200,0.1156,0.4287,-0.0185,-1.8750,20.2500,19.1875,315.6250,36.0625,170.2500,0
1776971247.063,9.2320,-0.8930,1.4269,-1.1277,0.0474,-0.0490,-81.3000,-6.7500,-1.6500,9.0118,3.1532,-1.3958,-0.4890,0.8386,0.2769,-29.4000,9.3000,31.9500,5.2600,-1.4600,-7.9200,0.0829,0.4385,0.0076,-1.8750,20.2500,19.1875,315.6250,36.3125,170.1875,0
1776971247.068,9.2320,-0.8930,1.4269,-1.1277,0.0474,-0.0490,-81.1500,-9.0000,-0.3000,8.9663,3.1915,-1.0223,0.0770,0.8378,0.2409,-29.4000,9.3000,31.9500,5.2600,-1.4600,-7.9200,0.0829,0.4385,0.0076,-1.8750,20.2500,19.1875,315.6250,36.3125,170.1875,0
1776971247.073,9.0549,-0.6201,1.7142,-0.7978,-0.0610,-0.0149,-81.1500,-9.0000,-0.3000,8.9663,3.1915,-1.0223,0.0770,0.8378,0.2409,-29.4000,9.3000,31.9500,4.8300,-1.5000,-8.2700,0.0513,0.4058,0.0011,-0.8750,20.0000,18.0625,315.6875,36.5000,170.1250,0
1776971247.078,9.0549,-0.6201,1.7142,-0.7978,-0.0610,-0.0149,-80.5500,-9.1500,-1.6500,9.4978,2.6863,-0.3879,0.4325,0.8279,0.2172,-29.4000,9.3000,31.9500,4.8300,-1.5000,-8.2700,0.0513,0.4058,0.0011,-0.8750,20.0000,18.0625,315.6875,36.5000,170.1250,0
1776971247.083,9.0094,0.0527,2.0973,-0.5337,-0.0973,-0.0008,-80.5500,-9.1500,-1.6500,9.4978,2.6863,-0.3879,0.4325,0.8279,0.2172,-28.9500,12.0000,31.9500,5.5300,-1.9800,-7.9700,-0.0240,0.4898,-0.0567,-0.8750,20.0000,18.0625,315.6250,36.8125,170.1250,0
1776971247.091,8.4946,0.8835,3.1771,-0.5337,-0.0973,-0.0008,-80.8500,-9.3000,-2.1000,9.4451,1.8627,0.1173,0.5697,0.8066,0.1865,-28.9500,12.0000,31.9500,5.5700,-1.7500,-8.0200,-0.0818,0.5934,-0.0938,-0.8750,20.0000,18.0625,315.6250,37.1250,170.1250,0
1776971247.096,8.4946,0.8835,3.1771,-0.4748,0.0586,0.0242,-80.8500,-9.3000,-2.1000,9.4451,1.8627,0.1173,0.5697,0.8066,0.1865,-29.4000,9.0000,31.3500,5.5700,-1.7500,-8.0200,-0.0818,0.5934,-0.0938,-0.8750,20.0000,18.0625,315.6250,37.5000,170.2500,0
1776971247.104,9.0309,1.4126,3.8116,-0.3706,0.0834,0.0005,-81.1500,-11.2500,-0.6000,9.7468,0.9074,0.5028,0.4879,0.7837,0.1767,-28.5000,8.4000,30.7500,5.4900,-1.6900,-7.9500,-0.1320,0.6174,-0.1124,-0.8750,20.0000,18.0625,315.6250,37.8750,170.3125,0
1776971247.113,8.8825,1.6855,4.5250,-0.4183,0.2028,-0.0338,-80.2500,-9.4500,-0.4500,9.5002,0.5938,1.0271,0.1825,0.7605,0.1732,-28.5000,9.1500,32.5500,5.7300,-1.5300,-7.9100,-0.1734,0.7058,-0.1189,-0.8750,20.0000,18.0625,315.6250,37.8750,170.3125,0
1776971247.118,8.8825,1.6855,4.5250,-0.4183,0.2028,-0.0338,-80.2500,-9.4500,-0.4500,9.6989,0.5028,1.1229,-0.1380,0.7418,0.1873,-28.5000,9.1500,32.5500,5.7300,-1.5300,-7.9100,-0.1734,0.7058,-0.1189,-0.8750,20.0000,18.0625,315.6250,38.2500,170.4375,0
1776971247.123,8.8992,1.8340,4.7166,-0.5391,0.2766,-0.0509,-80.2500,-9.4500,-0.4500,9.6989,0.5028,1.1229,-0.1380,0.7418,0.1873,-28.5000,9.1500,32.5500,6.2500,-1.2500,-7.7500,-0.1734,0.7199,-0.1331,-1.6875,20.2500,17.6875,315.6250,38.2500,170.4375,0
1776971247.128,8.8992,1.5036,4.7046,-0.5391,0.2766,-0.0509,-80.1000,-9.7500,-1.3500,9.6462,0.6201,1.2665,-0.3565,0.7120,0.2094,-28.5000,9.1500,32.5500,6.2500,-1.2500,-7.7500,-0.1734,0.7199,-0.1331,-1.6875,20.2500,17.6875,315.6250,38.6250,170.5000,0
1776971247.133,8.8992,1.5036,4.7046,-0.6875,0.2582,-0.0549,-80.1000,-9.7500,-1.3500,9.6462,0.6201,1.2665,-0.3565,0.7120,0.2094,-28.5000,9.1500,32.5500,6.1300,-1.5700,-7.7500,-0.1516,0.5825,-0.1004,-1.6875,20.2500,17.6875,315.6250,38.6250,170.5000,0
1776971247.138,8.8514,1.1660,4.3000,-0.6875,0.2582,-0.0549,-80.1000,-9.7500,-1.3500,9.7396,0.9529,1.1253,-0.5425,0.6888,0.2278,-28.5000,9.1500,32.5500,6.1300,-1.5700,-7.7500,-0.0971,0.4538,-0.0818,-1.6875,20.2500,17.6875,315.6250,38.8750,170.5625,0
1776971247.144,8.8514,1.1660,4.3000,-0.7592,0.2699,-0.0298,-80.1000,-9.7500,-1.3500,9.7396,0.9529,1.1253,-0.6129,0.6579,0.2385,-26.2500,7.9500,33.9000,6.0100,-1.5600,-7.7900,-0.0971,0.4538,-0.0818,-1.6875,20.2500,17.6875,315.6250,39.1250,170.6250,0
1776971247.154,8.8274,0.6081,3.8044,-0.7330,0.2729,-0.0088,-78.9000,-10.5000,-0.3000,9.6702,1.2498,1.0534,-0.6129,0.6579,0.2385,-28.5000,9.4500,33.9000,6.1300,-1.4100,-7.7800,-0.0905,0.4331,-0.0622,-1.6875,20.2500,17.6875,315.6250,39.1250,170.6250,0
1776971247.163,8.7149,0.3567,3.3471,-0.6241,0.2891,0.0221,-79.3500,-9.7500,-1.0500,9.5433,1.4293,0.9218,-0.4588,0.6110,0.2382,-27.9000,8.5500,33.0000,6.2600,-1.3000,-7.7200,-0.0851,0.4200,-0.0447,-1.6875,20.2500,17.6875,315.6250,39.3125,170.6250,0
1776971247.168,8.6479,0.0383,3.0574,-0.5268,0.2958,0.0429,-78.9000,-9.0000,-0.6000,9.4116,1.4844,0.9194,-0.4588,0.6110,0.2382,-27.9000,8.5500,33.0000,6.2600,-1.3000,-7.7200,-0.0851,0.4200,-0.0447,-1.6875,20.2500,17.6875,315.6250,39.3125,170.6250,0
1776971247.173,8.6479,0.0383,3.0574,-0.5268,0.2958,0.0429,-78.9000,-9.0000,-0.6000,9.2656,1.4006,0.8475,-0.3365,0.5758,0.2214,-29.1000,8.4000,34.6500,6.2800,-1.2800,-7.6000,-0.0720,0.3960,-0.0240,-2.0625,19.5625,17.6875,315.6250,39.5625,170.6875,0
1776971247.178,8.6287,-0.2490,2.9018,-0.4543,0.2974,0.0565,-79.6500,-9.7500,0.0000,9.2656,1.4006,0.8475,-0.3365,0.5758,0.2214,-29.1000,8.4000,34.6500,6.2800,-1.2800,-7.6000,-0.0720,0.3960,-0.0240,-2.0625,19.5625,17.6875,315.6250,39.5625,170.6875,0
1776971247.183,8.6287,-0.2490,2.9018,-0.4543,0.2974,0.0565,-79.6500,-9.7500,0.0000,9.4547,1.0726,0.9290,-0.2361,0.5694,0.1919,-29.1000,8.4000,34.6500,6.2400,-1.2400,-7.6400,-0.0633,0.3142,-0.0065,-2.0625,19.5625,17.6875,315.6250,39.7500,170.6875,0
1776971247.188,8.7245,-0.6393,2.6887,-0.4557,0.2912,0.0711,-79.3500,-10.0500,-0.6000,9.4547,1.0726,0.9290,-0.2361,0.5694,0.1919,-29.1000,8.4000,34.6500,6.2400,-1.2400,-7.6400,-0.0393,0.2454,-0.0044,-2.0625,19.5625,17.6875,315.6875,39.8750,170.6875,0
1776971247.194,8.7245,-0.6393,2.6887,-0.4557,0.2912,0.0711,-79.3500,-10.0500,-0.6000,9.6893,0.7614,1.1396,-0.1839,0.5183,0.1868,-28.5000,8.4000,34.6500,6.1300,-1.4600,-7.6400,-0.0393,0.2454,-0.0044,-2.0625,19.5625,17.6875,315.6875,39.8750,170.6875,0
1776971247.203,8.8538,-0.9218,2.6695,-0.5561,0.2840,0.0901,-79.6500,-10.5000,-0.6000,9.6510,0.6009,1.0247,-0.3512,0.5116,0.1567,-28.0500,6.9000,35.7000,6.1000,-1.6200,-7.6800,-0.0175,0.2029,-0.0011,-2.0625,19.5625,17.6875,315.6875,39.9375,170.6250,0
1776971247.213,8.9519,-0.9457,2.4660,-0.7205,0.2795,0.1186,-79.6500,-10.5000,-0.6000,9.9910,0.6967,0.7829,-0.5942,0.5041,0.1676,-29.1000,7.2000,36.1500,6.0100,-1.7600,-7.7100,-0.0011,0.2018,-0.0076,-2.0625,19.5625,17.6875,315.6875,40.0625,170.6250,0
1776971247.218,9.1482,-0.5555,2.3104,-0.8732,0.2467,0.1375,-79.6500,-10.5000,-0.6000,9.9910,0.6967,0.7829,-0.5942,0.5041,0.1676,-29.1000,7.2000,36.1500,6.0100,-1.7600,-7.7100,-0.0011,0.2018,-0.0076,-2.0625,19.5625,17.6875,315.6875,40.0625,170.6250,0
1776971247.223,9.1482,-0.5555,2.3104,-0.8732,0.2467,0.1375,-79.0500,-11.4000,-0.1500,9.7181,0.8188,0.5890,-0.7874,0.4887,0.2137,-27.1500,8.2500,34.8000,6.3400,-1.5600,-7.7200,0.0011,0.2247,-0.0076,-1.3750,19.5625,16.5000,315.6875,40.1875,170.6250,0
1776971247.227,9.2416,-0.2155,2.2482,-0.9848,0.2390,0.1311,-79.0500,-11.4000,-0.1500,9.7181,0.8188,0.5890,-0.7874,0.4887,0.2137,-27.1500,8.2500,34.8000,6.3400,-1.5600,-7.7200,0.0011,0.2247,-0.0076,-1.3750,19.5625,16.5000,315.6875,40.1875,170.6250,0
1776971247.232,9.2416,-0.2155,2.2482,-0.9848,0.2390,0.1311,-79.0500,-11.4000,-0.1500,9.2871,1.0702,0.4717,-0.8260,0.4900,0.2473,-28.6500,8.2500,35.2500,6.4300,-1.5100,-7.6100,-0.0131,0.2062,0.0065,-1.3750,19.5625,16.5000,315.7500,40.3125,170.6250,0
1776971247.237,9.0884,0.1915,2.2290,-1.1437,0.3475,0.1066,-79.0500,-11.4000,-0.1500,9.2871,1.0702,0.4717,-0.8260,0.4900,0.2473,-28.6500,8.2500,35.2500,6.4300,-1.5100,-7.6100,-0.0131,0.2062,0.0065,-1.3750,19.5625,16.5000,315.7500,40.3750,170.5625,0
1776971247.244,9.0908,0.6752,2.1500,-1.1437,0.3475,0.1066,-79.5000,-11.4000,0.9000,9.1411,1.4198,0.6009,-0.8793,0.5148,0.2755,-28.6500,8.2500,35.2500,6.4200,-1.5700,-7.6100,-0.0098,0.1156,0.0382,-1.3750,19.5625,16.5000,315.7500,40.3750,170.5625,0
1776971247.254,9.1889,1.1109,1.9178,-1.1703,0.2049,0.0903,-79.5000,-13.8000,0.9000,9.3350,1.4748,0.2035,-0.9571,0.5228,0.2942,-27.3000,7.9500,35.4000,6.3500,-1.6500,-7.5300,0.0262,0.0327,0.0415,-1.3750,19.5625,16.5000,315.8125,40.3750,170.5000,0
1776971247.264,9.4954,1.4509,1.8579,-1.3070,0.1889,0.1194,-78.7500,-11.4000,-0.4500,9.8857,1.6041,-0.1748,-1.0658,0.5257,0.3083,-28.0500,6.9000,36.1500,5.9800,-1.5400,-7.4400,0.0393,-0.0098,0.0524,-1.3750,19.5625,16.5000,315.8125,40.3750,170.5000,0
1776971247.269,9.4954,1.4509,1.8579,-1.3070,0.1889,0.1194,-78.7500,-11.4000,-0.4500,9.8857,1.6041,-0.1748,-1.0658,0.5257,0.3083,-28.0500,6.9000,36.1500,5.9800,-1.5400,-7.4400,0.0393,-0.0098,0.0524,-1.3750,19.5625,16.5000,315.8125,40.3750,170.5000,0
1776971247.274,9.5888,1.7837,1.9010,-1.2729,0.1865,0.1532,-78.9000,-11.7000,-1.0500,10.0317,1.5754,-0.5842,-1.1253,0.5116,0.3206,-27.1500,6.7500,37.0500,5.7200,-1.3300,-7.6800,0.0491,-0.0240,0.0600,-0.6875,20.0000,16.5000,315.8125,40.3125,170.4375,0
1776971247.279,9.5888,1.7837,1.9010,-1.2729,0.1865,0.1532,-78.1500,-11.7000,-1.0500,10.0317,1.5754,-0.5842,-1.1253,0.5116,0.3206,-27.1500,6.7500,37.0500,5.7200,-1.3300,-7.6800,0.0491,-0.0240,0.0600,-0.6875,20.0000,16.5000,315.8125,40.3125,170.4375,0
1776971247.284,9.5265,2.0423,1.7573,-1.1820,0.2374,0.1676,-78.1500,-11.7000,-1.3500,9.6965,1.9058,-0.8356,-1.0848,0.5324,0.3624,-25.9500,7.2000,36.4500,5.7000,-1.2200,-7.6300,0.0425,0.0698,0.0458,-0.6875,20.0000,16.5000,315.8125,40.3750,170.3750,0
1776971247.292,9.7947,2.6719,1.3575,-1.1820,0.2374,0.1676,-79.3500,-12.0000,0.0000,9.3853,2.2314,-1.0247,-0.9888,0.5833,0.4149,-27.9000,6.0000,36.6000,5.8600,-1.6100,-7.5900,0.0218,0.1647,0.0382,-0.6875,20.0000,16.5000,315.8750,40.4375,170.3750,0
1776971247.296,9.7947,2.6719,1.3575,-1.0496,0.1916,0.1788,-79.3500,-12.0000,0.0000,9.3853,2.2314,-1.0247,-0.9888,0.5833,0.4149,-27.9000,6.0000,36.6000,5.8600,-1.6100,-7.5900,0.0218,0.1647,0.0382,-0.6875,20.0000,16.5000,315.8750,40.5625,170.3125,0
1776971247.304,9.7181,3.2130,1.0032,-0.9763,0.1599,0.1839,-79.3500,-12.0000,0.0000,9.1985,2.7773,-1.3024,-0.8559,0.6424,0.4586,-27.9000,6.0000,36.6000,5.9800,-1.4700,-7.5800,0.0120,0.2171,0.0305,-0.6875,20.0000,16.5000,315.8750,40.6875,170.3125,0
1776971247.314,9.7540,3.5362,0.6608,-0.9012,0.1487,0.1708,-77.5500,-12.3000,-0.4500,9.1339,3.1388,-1.4653,-0.6584,0.7109,0.4839,-27.9000,4.8000,35.8500,6.0700,-1.3600,-7.5600,-0.0065,0.2553,0.0262,-0.6875,20.0000,16.5000,315.8750,40.6875,170.3125,0
1776971247.319,9.7540,3.5362,0.6608,-0.9012,0.1487,0.1708,-77.5500,-12.3000,-0.4500,9.0237,3.0287,-1.7717,-0.4735,0.7751,0.5201,-25.5000,6.9000,36.4500,6.0700,-1.3600,-7.5600,-0.0065,0.2553,0.0262,-0.6875,20.0000,16.5000,315.9375,40.8750,170.2500,0
1776971247.324,9.6582,3.8403,0.6081,-0.7951,0.1306,0.1529,-77.5500,-12.3000,-0.4500,9.0237,3.0287,-1.7717,-0.4735,0.7751,0.5201,-25.5000,6.9000,36.4500,6.0600,-1.4200,-7.5500,-0.0262,0.2662,0.0415,-1.0625,19.1875,17.5625,315.9375,40.8750,170.2500,0
1776971247.329,9.6582,3.8403,0.6081,-0.7951,0.1306,0.1529,-77.5500,-12.3000,-0.4500,9.0046,2.9544,-1.8627,-0.3856,0.8479,0.5620,-25.3500,4.8000,36.6000,6.0600,-1.4200,-7.5500,-0.0262,0.2662,0.0415,-1.0625,19.1875,17.5625,316.0000,40.9375,170.1875,0
1776971247.334,9.7157,4.1013,0.4022,-0.6792,0.1207,0.1332,-78.7500,-13.0500,-1.6500,9.0046,2.9544,-1.8627,-0.3856,0.8479,0.5620,-25.3500,4.8000,36.6000,5.9500,-1.3800,-7.5500,-0.0371,0.3098,0.0382,-1.0625,19.1875,17.5625,316.0000,40.9375,170.1875,0
1776971247.339,9.7157,4.1013,0.4022,-0.6792,0.1207,0.1332,-78.7500,-13.0500,-1.6500,9.2249,2.8299,-1.9680,-0.3403,0.9273,0.6142,-26.2500,4.6500,37.8000,5.9500,-1.3800,-7.5500,-0.0513,0.3883,0.0262,-1.0625,19.1875,17.5625,316.0625,41.1250,170.1875,0
1776971247.345,9.8043,4.0725,0.3376,-0.5907,0.1058,0.1106,-78.4500,-13.9500,0.0000,9.2249,2.8299,-1.9680,-0.3403,0.9273,0.6142,-26.2500,4.6500,37.8000,6.0000,-1.3600,-7.5600,-0.0513,0.3883,0.0262,-1.0625,19.1875,17.5625,316.0625,41.1250,170.1875,0
1776971247.353,9.8569,3.9935,0.3591,-0.5478,0.0815,0.0901,-78.3000,-14.2500,-1.2000,9.4355,2.6001,-1.8507,-0.2896,1.0048,0.6616,-26.2500,4.6500,37.8000,5.8500,-1.2000,-7.6000,-0.0774,0.4614,0.0382,-1.0625,19.1875,17.5625,316.1250,41.3125,170.1875,0
1776971247.364,9.9096,3.8259,0.4142,-0.5257,0.0586,0.0621,-79.0500,-14.5500,-0.9000,9.8713,2.8683,-1.6113,-0.1793,1.0421,0.6904,-26.2500,4.6500,37.8000,5.7100,-0.9900,-7.6400,-0.0894,0.5269,0.0415,-1.0625,19.1875,17.5625,316.1875,41.5625,170.1875,0
1776971247.368,9.9814,3.3495,0.9361,-0.5257,0.0586,0.0621,-79.0500,-14.5500,-0.9000,10.3477,2.3990,-0.5267,-0.0818,1.0661,0.6939,-25.6500,4.0500,38.7000,5.7100,-0.9900,-7.6400,-0.0894,0.5269,0.0415,-1.0625,19.1875,17.5625,316.1875,41.5625,170.1875,0
1776971247.374,9.9814,3.3495,0.9361,-0.5926,0.0581,0.0522,-79.8000,-14.2500,0.1500,10.3477,2.3990,-0.5267,-0.0818,1.0661,0.6939,-25.6500,4.0500,38.7000,5.4800,-0.8500,-7.7500,-0.0698,0.6021,0.0131,-2.2500,19.1875,16.7500,316.1875,41.8750,170.1250,0
1776971247.378,10.0030,2.8395,1.0965,-0.5926,0.0581,0.0522,-79.8000,-14.2500,0.1500,10.0341,2.0997,-0.2322,-0.0093,1.0970,0.6803,-26.4000,3.7500,39.4500,5.4800,-0.8500,-7.7500,-0.0698,0.6021,0.0131,-2.2500,19.1875,16.7500,316.1875,41.8750,170.1250,0
1776971247.383,10.0030,2.8395,1.0965,-0.6422,0.0298,0.0309,-77.7000,-15.6000,-0.6000,10.0341,2.0997,-0.2322,-0.0093,1.0970,0.6803,-26.4000,3.7500,39.4500,5.4400,-1.0500,-7.8200,-0.0589,0.7047,0.0447,-2.2500,19.1875,16.7500,316.3125,42.2500,170.1250,0
1776971247.390,9.7947,2.2194,1.6161,-0.6523,0.0266,0.0269,-77.7000,-15.6000,-0.6000,10.2807,1.5467,0.3735,0.0983,1.1679,0.6872,-26.1000,3.0000,39.4500,6.0700,-1.3700,-7.5200,-0.0567,0.7799,0.0742,-2.2500,19.1875,16.7500,316.3750,42.6875,170.0000,0
1776971247.395,9.7947,2.2194,1.6161,-0.6523,0.0266,0.0269,-77.7000,-15.6000,-0.6000,10.2807,1.5467,0.3735,0.0983,1.1679,0.6872,-26.1000,3.0000,39.4500,6.0700,-1.3700,-7.5200,-0.0567,0.7799,0.0742,-2.2500,19.1875,16.7500,316.4375,43.1250,169.9375,0
1776971247.404,9.8306,1.3575,2.1021,-0.7141,0.0887,0.0629,-77.7000,-14.8500,-1.3500,10.5752,0.2993,1.0463,0.2395,1.1820,0.6888,-25.2000,1.9500,39.0000,6.0900,-1.8200,-7.6800,-0.0360,0.7789,0.0720,-2.2500,19.1875,16.7500,316.5000,43.5000,169.8125,0
1776971247.414,9.9742,0.4621,2.0662,-0.7408,0.1263,0.1247,-77.5500,-16.2000,-0.1500,10.3262,-1.0223,1.1851,0.1652,1.2111,0.6901,-25.2000,1.9500,39.0000,6.4800,-2.4600,-7.5600,-0.0087,0.7134,0.0894,-2.2500,19.1875,16.7500,316.5000,43.5000,169.8125,0
1776971247.419,9.8569,-0.1101,1.8268,-0.7373,0.1863,0.1892,-77.5500,-16.2000,-0.1500,10.2831,-1.8124,0.9553,-0.0530,1.2625,0.7099,-25.9500,0.9000,40.3500,6.4800,-2.4600,-7.5600,-0.0087,0.7134,0.0894,-2.2500,19.1875,16.7500,316.6250,43.8750,169.6875,0
1776971247.424,9.8569,-0.1101,1.8268,-0.7373,0.1863,0.1892,-78.9000,-15.6000,-1.8000,10.2831,-1.8124,0.9553,-0.0530,1.2625,0.7099,-25.9500,0.9000,40.3500,6.7400,-2.5800,-7.5700,0.0011,0.7450,0.1134,-2.0000,20.2500,16.7500,316.6250,43.8750,169.6875,0
1776971247.429,10.0940,-0.3496,1.5897,-0.7650,0.1961,0.2641,-78.9000,-15.6000,-1.8000,10.6686,-2.6240,1.0080,-0.4058,1.2926,0.7597,-24.7500,-0.9000,40.0500,6.7400,-2.5800,-7.5700,0.0011,0.7450,0.1134,-2.0000,20.2500,16.7500,295.6875,44.3125,169.5000,0
1776971247.434,10.0940,-0.3496,1.5897,-0.7650,0.1961,0.2641,-77.7000,-15.6000,-2.5500,10.6686,-2.6240,1.0080,-0.4058,1.2926,0.7597,-24.7500,-0.9000,40.0500,6.5700,-1.3600,-7.3800,0.0349,0.8279,0.1418,-2.0000,20.2500,16.7500,295.6875,44.3125,169.5000,0
1776971247.439,10.3382,-0.5818,1.1013,-0.7967,0.1807,0.3283,-77.7000,-15.6000,-2.5500,11.0301,-2.7390,0.9266,-0.8098,1.3030,0.8362,-25.2000,1.2000,42.1500,6.5700,-1.3600,-7.3800,0.0055,0.6905,0.0600,-2.0000,20.2500,16.7500,295.8750,44.6875,169.4375,0
1776971247.445,10.3382,-0.5818,1.1013,-0.7967,0.1807,0.3283,-78.3000,-15.0000,-1.2000,11.0756,-2.2218,0.4357,-1.0123,1.2804,0.8767,-25.2000,1.2000,42.1500,6.4500,-1.3300,-7.1500,0.0055,0.6905,0.0600,-2.0000,20.2500,16.7500,295.9375,44.9375,169.3750,0
1776971247.454,10.5441,-0.4764,0.7183,-0.7685,0.1543,0.3941,-78.7500,-16.5000,-1.2000,10.4579,-0.4597,0.6009,-1.0405,1.3057,0.8950,-24.7500,1.9500,41.8500,6.1400,-3.7000,-7.6000,-0.0262,0.3905,0.0567,-2.0000,20.2500,16.7500,295.9375,44.9375,169.3750,0
1776971247.464,10.2448,-0.2394,0.1221,-0.6614,0.1434,0.4477,-78.7500,-16.5000,-1.2000,10.0556,0.7398,0.3280,-0.8439,1.3435,0.9116,-24.3000,0.0000,41.5500,7.0100,-1.5500,-7.2500,0.0142,0.3545,0.0218,-2.0000,20.2500,16.7500,296.0000,45.1250,169.3125,0
1776971247.469,10.1203,0.1532,-0.3136,-0.5492,0.0981,0.4967,-78.7500,-16.5000,-1.2000,10.0556,0.7398,0.3280,-0.8439,1.3435,0.9116,-24.3000,0.0000,41.5500,7.0100,-1.5500,-7.2500,0.0142,0.3545,0.0218,-2.0000,20.2500,16.7500,296.1250,45.2500,169.3125,0
1776971247.474,10.1203,0.1532,-0.3136,-0.5492,0.0981,0.4967,-77.5500,-16.9500,-2.4000,9.6965,1.0942,0.1963,-0.5452,1.4035,0.9425,-24.3000,0.0000,41.5500,6.2100,-1.2400,-7.6500,-0.0360,0.3152,-0.0044,-2.0000,19.1875,17.1875,296.1250,45.2500,169.3125,0
1776971247.479,9.7851,0.7709,-0.3208,-0.4695,0.0061,0.5068,-77.5500,-16.9500,-2.4000,9.6965,1.0942,0.1963,-0.5452,1.4035,0.9425,-23.8500,-1.5000,42.0000,6.2100,-1.2400,-7.6500,-0.0360,0.3152,-0.0044,-2.0000,19.1875,17.1875,296.1250,45.2500,169.3125,0
1776971247.484,9.3733,1.2737,-0.2418,-0.4695,0.0061,0.5068,-77.5500,-16.9500,-2.4000,9.4355,1.0367,0.4788,-0.2630,1.4690,0.9593,-23.8500,-1.5000,42.0000,6.8000,-2.3400,-7.2400,-0.0218,0.2454,-0.1822,-2.0000,19.1875,17.1875,296.3125,45.4375,169.3750,0
1776971247.490,9.3733,1.2737,-0.2418,-0.4557,-0.0328,0.5002,-77.5500,-16.9500,-2.4000,9.4355,1.0367,0.4788,-0.2630,1.4690,0.9593,-23.8500,-1.5000,42.7500,6.5300,-1.0000,-7.8100,-0.1091,0.1963,-0.3371,-2.0000,19.1875,17.1875,296.6875,45.5625,169.6250,0
1776971247.495,9.1698,1.9225,-0.1437,-0.4788,-0.0418,0.4698,-78.3000,-18.1500,-1.2000,9.3853,1.0271,0.9002,-0.1378,1.5178,0.9643,-21.0000,-2.2500,43.0500,6.5300,-1.0000,-7.8100,-0.1091,0.1963,-0.3371,-2.0000,19.1875,17.1875,297.3125,45.8125,169.9375,0
1776971247.504,9.0812,2.3104,0.1389,-0.5502,-0.0549,0.4439,-78.4500,-17.1000,-1.8000,9.6055,0.9529,1.1420,-0.1585,1.5636,0.9681,-21.0000,-2.2500,43.0500,5.8100,-1.0000,-7.1900,-0.2836,0.3523,-0.3665,-2.0000,19.1875,17.1875,297.3125,45.8125,169.9375,0
1776971247.514,9.3829,2.6863,0.7829,-0.6688,-0.0877,0.4351,-77.5500,-17.7000,-2.7000,10.5153,0.8811,1.3048,-0.2601,1.5961,1.0059,-22.2000,0.1500,45.0000,6.6800,-0.3200,-7.5400,-0.4178,0.6327,-0.3545,-2.0000,19.1875,17.1875,298.1875,46.1875,170.3125,0
1776971247.519,9.3829,2.6863,0.7829,-0.6688,-0.0877,0.4351,-77.5500,-17.7000,-2.7000,10.5153,0.8811,1.3048,-0.2601,1.5961,1.0059,-21.3000,-4.5000,45.6000,6.6800,-0.3200,-7.5400,-0.4178,0.6327,-0.3545,-2.0000,19.1875,17.1875,298.1875,46.1875,170.3125,0
1776971247.524,10.2544,2.8730,1.4246,-0.7560,-0.1180,0.3978,-78.3000,-18.9000,-1.9500,11.4946,-0.1844,0.3496,-0.4189,1.6462,1.0496,-21.3000,-4.5000,45.6000,6.0100,-0.7600,-7.9400,-0.4647,0.7898,-0.3589,-2.2500,20.0000,16.0000,299.1250,46.6250,170.6875,0
1776971247.529,10.2544,2.8730,1.4246,-0.7560,-0.1180,0.3978,-78.3000,-18.9000,-1.9500,11.4946,-0.1844,0.3496,-0.4189,1.6462,1.0496,-21.3000,-4.5000,45.6000,6.0100,-0.7600,-7.9400,-0.4647,0.7898,-0.3589,-2.2500,20.0000,16.0000,299.1250,46.6250,170.6875,0
1776971247.534,10.9607,3.0167,1.7358,-0.7328,-0.1402,0.3717,-77.5500,-19.6500,-2.7000,11.6143,-1.4748,0.2490,-0.5017,1.6766,1.0651,-21.3000,-4.5000,45.6000,4.8700,-0.2200,-9.0500,-0.2596,1.0996,-0.4331,-2.2500,20.0000,16.0000,299.8750,47.2500,171.0000,0
1776971247.539,10.9607,3.0167,1.7358,-0.7328,-0.1402,0.3717,-77.5500,-19.6500,-2.7000,11.6143,-1.4748,0.2490,-0.5017,1.6766,1.0651,-20.2500,-3.7500,47.7000,4.8700,-0.2200,-9.0500,0.3043,1.8915,-0.6141,-2.2500,20.0000,16.0000,300.1875,48.3750,171.0000,0
1776971247.545,11.0277,3.4261,1.4078,-0.5239,-0.1316,0.3536,-76.2000,-20.2500,-3.3000,11.3964,-0.4908,0.4597,-0.7562,1.7648,1.1093,-21.1500,-4.6500,46.0500,2.7300,1.5700,-7.9500,0.3043,1.8915,-0.6141,-2.2500,20.0000,16.0000,300.3125,49.6875,171.1875,0
1776971247.554,11.1953,3.9097,0.7518,-0.3291,-0.1993,0.3587,-76.2000,-20.2500,-3.3000,11.6646,0.1221,0.1628,-1.0134,1.8008,1.2007,-19.3500,-5.7000,46.3500,3.4900,1.7500,-7.2800,0.7745,2.1500,-1.3046,-2.2500,20.0000,16.0000,300.3125,49.6875,171.1875,0
1776971247.564,11.8274,3.9840,0.5435,-0.2025,-0.2825,0.3333,-76.8000,-20.8500,-3.7500,12.4283,-0.7781,-0.5986,-1.0858,1.8255,1.3169,-19.5000,-6.7500,48.0000,6.3100,-3.1400,-4.7200,0.7232,2.2253,-1.5097,-2.2500,20.0000,16.0000,300.6250,51.0000,171.5625,0
1776971247.569,11.8274,3.9840,0.5435,-0.2025,-0.2825,0.3333,-76.8000,-20.8500,-3.7500,12.4283,-0.7781,-0.5986,-1.0858,1.8255,1.3169,-19.5000,-6.7500,48.0000,6.3100,-3.1400,-4.7200,0.7232,2.2253,-1.5097,-2.2500,20.0000,16.0000,301.3125,52.3750,171.7500,0
1776971247.574,11.8489,3.5865,0.5890,-0.0626,-0.4239,0.3251,-76.8000,-20.8500,-3.7500,13.0771,-1.5850,-0.2682,-1.0509,1.8410,1.4016,-19.5000,-6.7500,48.0000,10.7200,-5.1300,-8.2200,-0.0796,2.4358,-0.5345,-2.2500,19.5625,14.5000,301.3125,52.3750,171.7500,0
1776971247.579,11.8489,3.5865,0.5890,-0.0626,-0.4239,0.3251,-76.8000,-20.8500,-3.7500,13.0771,-1.5850,-0.2682,-1.0509,1.8410,1.4016,-19.5000,-6.7500,48.0000,10.7200,-5.1300,-8.2200,-0.0796,2.4358,-0.5345,-2.2500,19.5625,14.5000,301.5625,54.1250,170.7500,0
1776971247.584,11.8968,3.0742,-0.0503,0.1553,-0.4309,0.3110,-77.7000,-20.2500,-4.8000,13.0723,-1.4317,-0.5650,-1.0805,1.8700,1.4336,-19.5000,-6.7500,48.0000,7.8200,-0.0300,-6.6900,-0.4331,3.3554,1.1781,-2.2500,19.5625,14.5000,301.5625,54.1250,170.7500,0
1776971247.591,11.7843,2.7988,-0.4573,0.6582,-0.4453,0.2902,-77.7000,-20.2500,-4.8000,12.6031,-0.8116,-2.0375,-1.2939,1.9233,1.4504,-19.5000,-6.7500,48.0000,6.3900,-1.3400,-6.3600,0.0338,4.8215,0.3371,-2.2500,19.5625,14.5000,301.9375,56.7500,169.8125,0
1776971247.596,11.7843,2.7988,-0.4573,0.6582,-0.4453,0.2902,-76.8000,-22.0500,-6.4500,12.6031,-0.8116,-2.0375,-1.2939,1.9233,1.4504,-17.4000,-8.5500,48.0000,6.3900,-1.3400,-6.3600,0.0338,4.8215,0.3371,-2.2500,19.5625,14.5000,302.1875,59.5625,168.6875,0
1776971247.605,11.0014,3.2537,-2.3128,0.8708,-0.6518,0.2854,-77.4000,-20.2500,-6.6000,12.3062,-0.1676,-2.2290,-1.6020,1.9604,1.4655,-16.6500,-8.2500,48.4500,8.0200,-0.1600,-6.8100,0.2291,5.2643,0.1462,-2.2500,19.5625,14.5000,302.0000,62.5000,166.6250,0
1776971247.614,11.4850,1.2043,-4.4101,0.7719,-1.6009,0.3102,-78.3000,-21.3000,-6.0000,11.1378,1.2713,-2.0806,-1.9745,1.9436,1.5183,-15.3000,-11.7000,47.5500,7.4800,1.1400,-8.5500,0.5541,5.5043,0.5781,-2.2500,19.5625,14.5000,302.0000,62.5000,166.6250,0
1776971247.619,10.7931,0.2466,-2.2505,1.0000,-1.9737,0.3011,-78.3000,-21.3000,-6.0000,9.7252,2.8108,-0.5650,-2.0664,1.9961,1.5263,-15.3000,-11.7000,47.5500,7.4800,1.1400,-8.5500,0.5541,5.5043,0.5781,-2.2500,19.5625,14.5000,302.0000,62.5000,166.6250,0
1776971247.624,10.7931,0.2466,-2.2505,1.0000,-1.9737,0.3011,-77.2500,-22.5000,-6.7500,9.7252,2.8108,-0.5650,-2.0664,1.9961,1.5263,-15.0000,-12.4500,48.9000,9.9400,1.1200,-7.5500,1.2555,5.4138,0.8661,-2.7500,18.5000,13.5000,301.0000,65.2500,163.3750,0
1776971247.629,10.3477,0.5171,-0.8835,0.8172,-2.2671,0.0925,-77.2500,-22.5000,-6.7500,8.6191,3.6248,1.8603,-1.7174,1.9883,1.4778,-15.0000,-12.4500,48.9000,9.9400,1.1200,-7.5500,1.2555,5.4138,0.8661,-2.7500,18.5000,13.5000,301.0000,65.2500,163.3750,0
1776971247.634,10.3477,0.5171,-0.8835,0.8172,-2.2671,0.0925,-77.7000,-22.6500,-8.4000,8.6191,3.6248,1.8603,-1.7174,1.9883,1.4778,-15.0000,-12.4500,48.9000,11.4500,0.3900,-7.3600,1.7530,5.0407,1.0810,-2.7500,18.5000,13.5000,299.5625,67.7500,159.0000,0
1776971247.640,8.6574,1.1061,0.3232,0.3824,-2.4165,-0.0693,-77.7000,-22.6500,-8.4000,8.7628,3.3471,3.6248,-1.2433,2.0566,1.3883,-15.0000,-12.4500,48.9000,11.4500,0.3900,-7.3600,1.7726,4.7244,1.2665,-2.7500,18.5000,13.5000,298.0000,69.8125,153.6875,0
1776971247.645,8.6574,1.1061,0.3232,0.3824,-2.4165,-0.0693,-77.7000,-22.6500,-8.4000,8.7628,3.3471,3.6248,-1.2433,2.0566,1.3883,-13.5000,-15.1500,48.9000,14.5500,-1.0800,-6.8600,1.7726,4.7244,1.2665,-2.7500,18.5000,13.5000,296.7500,71.7500,147.3125,0
1776971247.654,8.4132,1.4341,2.0207,0.0701,-2.4539,-0.2449,-78.1500,-20.7000,-9.9000,9.8330,2.7222,4.6136,-0.7834,2.0704,1.3379,-13.8000,-15.3000,48.7500,14.3500,-1.7500,-7.5200,1.6068,4.7135,1.2806,-2.7500,18.5000,13.5000,296.7500,71.7500,147.3125,0
1776971247.664,8.4707,1.0487,4.1108,-0.0370,-2.2322,-0.4290,-78.1500,-20.7000,-9.9000,11.0492,2.4900,5.6336,-0.4698,2.1317,1.3139,-14.4000,-17.2500,49.5000,16.9400,-0.8700,-7.6300,1.3974,4.4059,1.3166,-2.7500,18.5000,13.5000,295.5625,73.3125,140.0000,0
1776971247.669,9.1937,-0.2203,5.1691,0.0802,-2.0089,-0.5961,-78.1500,-20.7000,-9.9000,10.8745,2.0399,5.9544,-0.3267,2.1781,1.2939,-14.4000,-17.2500,49.5000,16.9400,-0.8700,-7.6300,1.3974,4.4059,1.3166,-2.7500,18.5000,13.5000,294.5625,74.5000,131.5625,0
1776971247.674,9.1937,-0.2203,5.1691,0.0802,-2.0089,-0.5961,-79.3500,-21.4500,-11.8500,10.8745,2.0399,5.9544,-0.3267,2.1781,1.2939,-13.2000,-17.7000,49.9500,18.5500,-0.2900,-12.2200,1.1399,4.3306,1.4639,-2.7500,18.3750,6.8750,294.5625,74.5000,131.5625,0
1776971247.679,9.5816,-1.4533,5.3486,0.2531,-1.9007,-0.7738,-79.3500,-21.4500,-11.8500,10.9463,0.8811,6.0813,-0.2046,2.1138,1.3323,-13.2000,-17.7000,49.9500,18.5500,-0.2900,-12.2200,1.1399,4.3306,1.4639,-2.7500,18.3750,6.8750,293.6875,75.2500,122.1875,0
1776971247.684,9.5816,-1.4533,5.3486,0.2531,-1.9007,-0.7738,-78.4500,-23.4000,-13.6500,10.9463,0.8811,6.0813,-0.2046,2.1138,1.3323,-12.1500,-18.4500,51.4500,16.9600,-0.2700,-12.7700,1.1366,4.2739,1.4115,-2.7500,18.3750,6.8750,293.6875,75.2500,122.1875,0
1776971247.691,10.4291,-1.8986,4.9273,0.3152,-1.7176,-0.9659,-78.4500,-23.4000,-13.6500,10.7212,-0.8906,6.9480,-0.0362,1.9913,1.3137,-12.1500,-18.4500,51.4500,15.4400,-0.2700,-13.0400,1.1716,3.2310,1.5762,-2.7500,18.3750,6.8750,292.5000,75.3125,113.8750,0
1776971247.696,11.3485,-1.3551,4.2425,0.3152,-1.7176,-0.9659,-78.3000,-22.5000,-13.8000,9.8689,-1.9944,7.4196,0.1724,1.8626,1.2518,-12.1500,-18.4500,51.4500,15.4400,-0.2700,-13.0400,1.1716,3.2310,1.5762,-2.7500,18.3750,6.8750,291.2500,74.9375,107.4375,0
1776971247.705,12.2080,-0.3496,3.6943,0.3238,-1.5383,-1.1245,-79.5000,-23.2500,-13.5000,9.8689,-1.9944,7.4196,0.1724,1.8626,1.2518,-10.8000,-21.3000,52.9500,8.9900,0.1800,-11.1700,1.1836,2.3257,1.6373,-2.7500,18.3750,6.8750,291.2500,74.9375,107.4375,0
1776971247.714,12.9478,0.0000,3.3519,0.3898,-1.4077,-1.2790,-81.3000,-22.8000,-14.8500,8.7867,-2.9616,7.3215,0.2622,1.6300,1.2148,-10.8000,-20.5500,53.7000,3.9400,1.1700,-9.6400,1.3112,1.5675,1.8391,-2.7500,18.3750,6.8750,289.7500,74.1875,102.6875,0
1776971247.719,12.9478,0.0000,3.3519,0.6134,-1.3515,-1.3558,-81.3000,-22.8000,-14.8500,8.1235,-4.2353,7.1994,0.2238,1.3979,1.1207,-10.8000,-20.5500,53.7000,3.9400,1.1700,-9.6400,1.3112,1.5675,1.8391,-2.7500,18.3750,6.8750,289.7500,74.1875,102.6875,0
1776971247.724,12.9024,-0.2993,2.9018,0.6134,-1.3515,-1.3558,-80.2500,-22.5000,-15.6000,8.1235,-4.2353,7.1994,0.2238,1.3979,1.1207,-9.6000,-24.1500,52.5000,-3.1000,-3.8900,-12.5200,1.5577,1.1094,2.2144,-3.5000,19.0625,1.1875,287.8125,73.1250,99.0000,0
1776971247.729,12.9024,-0.2993,2.9018,0.8937,-1.3384,-1.3507,-80.2500,-22.5000,-15.6000,7.0677,-5.2529,8.7819,0.6408,1.0323,0.9827,-9.6000,-24.1500,52.5000,-3.1000,-3.8900,-12.5200,1.5577,1.1094,2.2144,-3.5000,19.0625,1.1875,287.8125,73.1250,99.0000,0
1776971247.734,12.8617,-0.7542,2.5211,0.8937,-1.3384,-1.3507,-80.2500,-22.5000,-15.6000,7.0677,-5.2529,8.7819,0.2888,0.7285,0.8103,-9.6000,-23.7000,54.6000,15.6100,-5.2100,-19.7000,1.3286,1.8239,2.3529,-3.5000,19.0625,1.1875,286.0625,71.9375,94.5625,0
1776971247.739,12.8617,-0.7542,2.5211,1.1061,-1.3019,-1.2961,-80.2500,-22.5000,-15.6000,6.2920,-4.2665,7.8386,0.2888,0.7285,0.8103,-9.6000,-23.7000,54.6000,15.6100,-5.2100,-19.7000,-0.3251,3.2779,1.6875,-3.5000,19.0625,1.1875,285.8750,71.0625,89.2500,0
1776971247.745,12.7850,-0.8475,2.3750,1.2225,-1.2668,-1.2316,-81.0000,-21.6000,-16.3500,6.0166,-4.3934,6.6248,-0.2108,0.4663,0.6078,-8.7000,-23.5500,55.8000,11.2000,-0.7900,-21.8800,-0.3251,3.2779,1.6875,-3.5000,19.0625,1.1875,285.8750,70.0625,87.6250,0
1776971247.755,12.5336,-0.5507,2.5498,1.2548,-1.2790,-1.2097,-81.0000,-21.6000,-16.3500,7.4675,-4.2832,5.2577,-0.7877,0.1244,0.3848,-8.7000,-23.5500,55.8000,8.3000,1.5200,-18.6400,-1.2370,1.4999,1.7519,-3.5000,19.0625,1.1875,285.8750,70.0625,87.6250,0
1776971247.765,12.1649,0.2705,2.7533,1.2492,-1.2686,-1.2105,-82.6500,-19.9500,-16.6500,7.7021,-3.0335,5.3654,-1.1828,-0.3336,0.1919,-10.0500,-24.7500,54.4500,3.1300,4.7600,-8.2400,-0.6447,-1.5904,2.4784,-3.5000,19.0625,1.1875,284.5000,68.6875,90.3750,0
1776971247.770,12.1649,0.2705,2.7533,1.2492,-1.2686,-1.2105,-82.6500,-19.9500,-16.6500,7.7021,-3.0335,5.3654,-1.1828,-0.3336,0.1919,-10.0500,-24.7500,54.4500,3.1300,4.7600,-8.2400,-0.6447,-1.5904,2.4784,-3.5000,19.0625,1.1875,282.5000,67.1875,94.1875,0
1776971247.775,11.9040,0.8188,2.8611,1.3507,-1.1940,-1.2316,-83.1000,-20.2500,-15.9000,7.1778,-2.1739,5.6958,-1.2271,-0.8556,-0.0040,-9.6000,-25.6500,53.8500,1.5400,4.7800,-6.8700,-0.0993,-2.8318,2.5853,-6.0625,21.1875,-9.0625,282.5000,67.1875,94.1875,0
1776971247.779,11.9040,0.8188,2.8611,1.3507,-1.1940,-1.2316,-83.1000,-20.2500,-15.9000,7.1778,-2.1739,5.6958,-1.2271,-0.8556,-0.0040,-9.6000,-25.6500,53.8500,1.5400,4.7800,-6.8700,-0.0993,-2.8318,2.5853,-6.0625,21.1875,-9.0625,280.8750,65.9375,97.0625,0
1776971247.785,11.7675,1.2953,2.8922,1.5455,-1.1234,-1.2308,-82.2000,-18.1500,-17.1000,6.2321,-1.4509,5.5138,-1.0443,-1.1954,-0.1410,-11.4000,-26.4000,52.8000,1.1100,5.2200,-6.1100,-0.1200,-2.4304,2.0453,-6.0625,21.1875,-9.0625,280.8750,65.9375,97.0625,0
1776971247.792,11.5927,1.4437,3.0598,1.6848,-1.1138,-1.2340,-82.2000,-18.1500,-17.1000,6.2321,-1.4509,5.5138,-0.6302,-1.4599,-0.3110,-10.3500,-26.7000,52.0500,0.8900,5.4200,-6.0500,-0.2040,-1.8533,1.3799,-6.0625,21.1875,-9.0625,279.8125,65.0000,99.1875,0
1776971247.797,11.5927,1.4437,3.0598,1.6848,-1.1138,-1.2340,-83.1000,-19.5000,-15.4500,5.8754,-1.5610,5.7006,-0.6302,-1.4599,-0.3110,-10.3500,-26.7000,52.0500,0.8900,5.4200,-6.0500,-0.2040,-1.8533,1.3799,-6.0625,21.1875,-9.0625,279.0000,64.3750,101.1250,0
1776971247.805,10.8242,1.1157,3.0885,1.7992,-1.0515,-1.2057,-83.4000,-19.0500,-16.6500,5.4803,-1.6328,5.5378,-0.0927,-1.7142,-0.5361,-10.3500,-26.7000,52.0500,3.0600,4.5900,-7.1900,-0.2040,-1.7246,0.8421,-6.0625,21.1875,-9.0625,278.3750,63.9375,103.5000,0
1776971247.815,10.6638,0.6249,2.8730,2.0001,-0.9481,-1.1844,-83.4000,-18.0000,-17.7000,5.5306,-1.7621,5.8442,0.3877,-1.9332,-0.7690,-12.1500,-28.6500,51.4500,4.1800,4.2800,-7.7200,-0.2422,-2.0715,0.3567,-6.0625,21.1875,-9.0625,278.3750,63.9375,103.5000,0
1776971247.820,10.6638,0.6249,2.8730,2.0001,-0.9481,-1.1844,-83.4000,-18.0000,-17.7000,5.5306,-1.7621,5.8442,0.3877,-1.9332,-0.7690,-13.9500,-28.2000,50.4000,4.1800,4.2800,-7.7200,-0.2422,-2.0715,0.3567,-6.0625,21.1875,-9.0625,277.8125,63.6250,106.5000,0
1776971247.825,10.3406,0.3998,2.6025,2.1994,-0.8609,-1.1767,-83.4000,-18.0000,-17.7000,5.9759,-1.9920,5.8826,0.8106,-2.1530,-0.9478,-13.9500,-28.2000,50.4000,4.7100,3.5800,-8.1800,-0.1014,-2.6649,-0.0927,-16.8750,30.1875,-17.1875,277.8125,63.6250,106.5000,0
1776971247.830,10.3166,0.1532,2.2338,2.1994,-0.8609,-1.1767,-83.4000,-18.0000,-17.7000,5.9759,-1.9920,5.8826,0.8106,-2.1530,-0.9478,-14.8500,-28.5000,50.5500,4.7100,3.5800,-8.1800,-0.1014,-2.6649,-0.0927,-16.8750,30.1875,-17.1875,277.2500,63.3750,110.0625,0
1776971247.835,10.3166,0.1532,2.2338,2.3659,-0.8143,-1.1823,-83.8500,-18.0000,-16.2000,6.4212,-2.0877,5.5881,1.1674,-2.4128,-1.1000,-14.8500,-28.5000,50.5500,4.8300,1.9500,-7.9700,-0.0087,-3.2169,-0.5552,-16.8750,30.1875,-17.1875,277.2500,63.3750,110.0625,0
1776971247.840,10.2951,-0.0814,2.3559,2.3659,-0.8143,-1.1823,-83.8500,-18.0000,-16.2000,6.4212,-2.0877,5.5881,1.1674,-2.4128,-1.1000,-15.3000,-28.2000,49.9500,4.8300,1.9500,-7.9700,-0.0938,-3.5725,-0.9239,-16.8750,30.1875,-17.1875,276.8125,63.0625,114.1875,0
1776971247.846,10.2951,-0.0814,2.3559,2.4752,-0.7914,-1.1738,-83.8500,-18.0000,-16.2000,6.3853,-2.3032,5.2984,1.5679,-2.6273,-1.2327,-15.3000,-28.2000,49.9500,4.6500,1.1500,-7.3500,-0.0938,-3.5725,-0.9239,-16.8750,30.1875,-17.1875,276.5625,62.7500,118.5625,0
1776971247.855,10.1323,-0.7470,2.4373,2.5306,-0.7978,-1.1423,-84.7500,-16.5000,-14.8500,6.2034,-2.7126,5.0039,2.0792,-2.7797,-1.3712,-17.7000,-27.0000,50.1000,4.7400,0.3500,-6.6700,-0.2618,-3.8135,-1.1901,-16.8750,30.1875,-17.1875,276.5625,62.7500,118.5625,0
1776971247.865,9.7396,-1.4988,2.4134,2.5173,-0.7735,-1.0749,-83.7000,-16.2000,-15.6000,6.0885,-3.4524,5.1763,2.5759,-2.8980,-1.4829,-17.7000,-27.0000,50.1000,6.2000,-0.4400,-6.1400,-0.4581,-3.9357,-1.3974,-16.8750,30.1875,-17.1875,276.5000,62.2500,123.1875,0
1776971247.870,9.4260,-2.1715,2.1883,2.4552,-0.7930,-0.9910,-83.7000,-16.2000,-15.6000,6.0885,-3.4524,5.1763,3.0105,-3.0126,-1.5809,-20.7000,-25.8000,51.9000,6.2000,-0.4400,-6.1400,-0.4581,-3.9357,-1.3974,-16.8750,30.1875,-17.1875,276.5000,62.2500,123.1875,0
1776971247.875,9.4260,-2.1715,2.1883,2.4552,-0.7930,-0.9910,-84.1500,-16.3500,-14.7000,6.2321,-3.8978,4.5921,3.0105,-3.0126,-1.5809,-20.7000,-25.8000,51.9000,7.1200,-0.5300,-6.2400,-0.6578,-3.9892,-1.6090,-39.5000,43.3750,-16.7500,276.6875,61.6875,127.9375,0
1776971247.880,9.1171,-2.8323,1.8148,2.3931,-0.8412,-0.9017,-84.1500,-16.3500,-14.7000,7.0988,-4.2784,4.5514,3.1509,-3.1685,-1.6390,-22.0500,-25.8000,52.3500,7.1200,-0.5300,-6.2400,-0.6578,-3.9892,-1.6090,-39.5000,43.3750,-16.7500,276.6875,61.6875,127.9375,0
1776971247.885,9.1171,-2.8323,1.8148,2.3931,-0.8412,-0.9017,-85.0500,-15.1500,-15.4500,7.0988,-4.2784,4.5514,3.1509,-3.1685,-1.6390,-22.0500,-25.8000,52.3500,7.3600,-0.5100,-5.9300,-0.7690,-4.0535,-1.8533,-39.5000,43.3750,-16.7500,277.0625,61.0625,132.7500,0
1776971247.890,8.7101,-2.7869,1.4557,2.3249,-0.8761,-0.8106,-85.0500,-15.1500,-15.4500,7.9104,-4.8914,5.0589,3.1147,-3.3977,-1.6574,-22.6500,-23.7000,53.8500,7.3600,-0.5100,-5.9300,-0.7494,-4.1582,-2.1118,-39.5000,43.3750,-16.7500,277.5625,60.2500,137.5000,0
1776971247.896,8.7101,-2.7869,1.4557,2.3249,-0.8761,-0.8106,-85.5000,-15.7500,-15.6000,7.9104,-4.8914,5.0589,3.1147,-3.3977,-1.6574,-22.6500,-23.7000,53.8500,6.8900,-0.5900,-5.3500,-0.7494,-4.1582,-2.1118,-39.5000,43.3750,-16.7500,278.1250,59.3125,142.1250,0
1776971247.905,8.4563,-2.6743,1.2594,2.2308,-0.8865,-0.7250,-86.7000,-14.5500,-14.8500,9.0214,-6.0573,6.3231,2.7187,-3.6135,-1.5900,-23.7000,-22.6500,52.5000,7.8200,-1.2700,-6.2300,-0.6327,-4.1342,-2.3627,-39.5000,43.3750,-16.7500,278.1250,59.3125,142.1250,0
1776971247.915,8.1762,-2.1476,0.9625,2.0909,-0.9148,-0.6648,-86.7000,-14.5500,-14.8500,8.6981,-6.0861,6.3901,1.9068,-3.7808,-1.4661,-26.8500,-20.2500,52.6500,8.7600,-1.8900,-7.2800,-0.5116,-3.9630,-2.5580,-39.5000,43.3750,-16.7500,278.8750,58.3750,146.4375,0
1776971247.920,8.2121,-1.9034,0.7207,1.9585,-0.8881,-0.5897,-86.7000,-14.5500,-14.8500,9.4571,-5.7389,6.2537,1.0784,-3.8991,-1.3651,-26.8500,-20.2500,52.6500,8.7600,-1.8900,-7.2800,-0.5116,-3.9630,-2.5580,-39.5000,43.3750,-16.7500,278.8750,58.3750,146.4375,0
1776971247.925,8.2121,-1.9034,0.7207,1.9585,-0.8881,-0.5897,-86.1000,-14.5500,-14.8500,9.4571,-5.7389,6.2537,1.0784,-3.8991,-1.3651,-26.8500,-20.2500,52.6500,9.8200,-2.4500,-8.0200,-0.4483,-3.8528,-2.6965,-64.3750,55.5000,10.0625,279.6250,57.3125,150.5000,0
1776971247.930,7.8985,-1.5179,0.3591,1.8290,-0.8127,-0.5558,-86.1000,-15.9000,-16.6500,8.9687,-4.3335,5.4875,0.5718,-3.8970,-1.3989,-29.7000,-18.7500,49.8000,9.8200,-2.4500,-8.0200,-0.4483,-3.8528,-2.6965,-64.3750,55.5000,10.0625,279.6250,57.3125,150.5000,0
1776971247.935,7.8985,-1.5179,0.3591,1.8290,-0.8127,-0.5558,-86.1000,-15.9000,-16.6500,8.9687,-4.3335,5.4875,0.5718,-3.8970,-1.3989,-29.7000,-18.7500,49.8000,12.0700,-3.1600,-8.9400,-0.4712,-3.8146,-2.7478,-64.3750,55.5000,10.0625,280.5625,56.1250,154.3125,0
1776971247.940,8.1451,-1.3599,-0.1006,1.7552,-0.7216,-0.5316,-86.5500,-14.4000,-15.9000,9.0573,-3.0358,5.0853,0.4218,-3.8666,-1.4389,-29.8500,-19.6500,48.6000,12.0700,-3.1600,-8.9400,-0.5607,-3.8354,-2.6682,-64.3750,55.5000,10.0625,281.5625,54.8125,157.8750,0
1776971247.946,8.1187,-1.4174,-0.0168,1.7552,-0.7216,-0.5316,-86.2500,-14.2500,-15.6000,9.0573,-3.0358,5.0853,0.4218,-3.8666,-1.4389,-29.8500,-19.6500,48.6000,12.5900,-3.3300,-9.2900,-0.5607,-3.8354,-2.6682,-64.3750,55.5000,10.0625,282.5625,53.2500,161.0625,0
1776971247.955,7.9487,-1.5682,-0.1484,1.6355,-0.7442,-0.5113,-86.2500,-14.2500,-15.6000,9.1889,-1.9106,4.9847,0.5689,-3.8429,-1.5388,-30.6000,-17.7000,45.7500,13.0600,-3.4500,-9.2800,-0.5945,-3.9314,-2.5111,-64.3750,55.5000,10.0625,282.5625,53.2500,161.0625,0
1776971247.965,7.9487,-1.6113,-0.4477,1.3622,-0.6177,-0.4759,-87.0000,-14.2500,-16.8000,9.4475,-1.4102,5.0973,0.9425,-3.7992,-1.6441,-32.8500,-17.7000,45.3000,13.6200,-3.0300,-9.4700,-0.6196,-4.0579,-2.2853,-64.3750,55.5000,10.0625,283.5000,51.5000,163.8750,0
1776971247.970,7.9487,-1.6113,-0.4477,1.3622,-0.6177,-0.4759,-87.0000,-14.2500,-16.8000,9.9072,-1.6640,5.4420,1.3560,-3.7800,-1.7205,-33.7500,-18.3000,44.8500,13.6200,-3.0300,-9.4700,-0.6196,-4.0579,-2.2853,-64.3750,55.5000,10.0625,283.5000,51.5000,163.8750,0
1776971247.975,8.0541,-1.2881,-0.8332,1.2414,-0.4668,-0.4173,-87.0000,-14.2500,-16.8000,9.9072,-1.6640,5.4420,1.3560,-3.7800,-1.7205,-33.7500,-18.3000,44.8500,13.9700,-2.6300,-9.8700,-0.7996,-3.9772,-2.0377,-59.3750,47.0625,46.6875,284.5625,49.6250,166.3125,0
1776971247.980,8.0541,-1.2881,-0.8332,1.2414,-0.4668,-0.4173,-86.1000,-13.6500,-16.6500,9.8234,-2.2577,5.3774,1.6630,-3.7896,-1.7589,-33.7500,-18.3000,44.8500,13.9700,-2.6300,-9.8700,-0.7996,-3.9772,-2.0377,-59.3750,47.0625,46.6875,284.5625,49.6250,166.3125,0
1776971247.985,8.5760,-0.7254,-1.0534,1.1591,-0.4098,-0.3381,-86.1000,-13.6500,-16.6500,9.8234,-2.2577,5.3774,1.6630,-3.7896,-1.7589,-33.7500,-18.3000,44.8500,14.0500,-2.2500,-10.0300,-0.9043,-3.8888,-1.8315,-59.3750,47.0625,46.6875,285.7500,47.7500,168.5000,0
1776971247.990,8.5760,-0.7254,-1.0534,1.1591,-0.4098,-0.3381,-86.1000,-13.6500,-16.6500,9.5193,-2.6719,4.9464,1.7714,-3.8379,-1.7555,-37.0500,-15.0000,42.3000,14.0500,-2.2500,-10.0300,-0.9043,-3.9499,-1.6635,-59.3750,47.0625,46.6875,287.0000,45.7500,170.3750,0
1776971247.996,8.3175,-0.5842,-0.8571,1.0192,-0.3970,-0.2731,-87.0000,-13.5000,-15.3000,9.1602,-3.0023,4.4436,1.7083,-3.8107,-1.7264,-37.0500,-15.0000,42.3000,13.8600,-1.7800,-9.8300,-0.9043,-3.9499,-1.6635,-59.3750,47.0625,46.6875,304.5625,43.6875,172.0625,0
1776971248.005,8.1379,-0.7302,-0.8571,0.7570,-0.3299,-0.2230,-87.0000,-13.5000,-15.3000,9.2680,-3.0430,4.1827,1.5068,-3.7838,-1.6715,-37.0500,-13.5000,40.9500,12.6000,-0.7400,-8.5300,-0.8596,-4.0404,-1.5752,-59.3750,47.0625,46.6875,304.5625,43.6875,172.0625,0
1776971248.015,7.9296,-0.8643,-0.9290,0.3627,-0.1559,-0.1703,-87.0000,-13.5000,-15.3000,9.7995,-2.6911,4.0247,1.1866,-3.8109,-1.6014,-39.1500,-12.3000,40.5000,11.5700,-0.4800,-7.6400,-0.7821,-4.0557,-1.5599,-59.3750,47.0625,46.6875,303.7500,41.5625,173.5000,0
1776971248.020,7.9296,-0.8643,-0.9290,0.3627,-0.1559,-0.1703,-85.3500,-12.9000,-16.2000,9.7995,-2.6911,4.0247,1.1866,-3.8109,-1.6014,-37.5000,-11.7000,37.5000,11.5700,-0.4800,-7.6400,-0.7821,-4.0557,-1.5599,-59.3750,47.0625,46.6875,302.9375,39.5000,174.8125,0
1776971248.025,7.9368,-0.6943,-1.1085,0.0394,0.0168,-0.0997,-85.3500,-12.9000,-16.2000,10.0604,-2.1117,3.8954,0.8881,-3.8946,-1.5692,-37.5000,-11.7000,37.5000,10.5400,-0.1800,-7.5500,-0.6545,-3.9368,-1.5795,-40.5625,36.0000,44.3750,302.9375,39.5000,174.8125,0
1776971248.030,7.9368,-0.6943,-1.1085,0.0394,0.0168,-0.0997,-87.0000,-13.5000,-14.8500,10.0604,-2.1117,3.8954,0.8881,-3.8946,-1.5692,-37.5000,-11.7000,37.5000,10.5400,-0.1800,-7.5500,-0.6545,-3.9368,-1.5795,-40.5625,36.0000,44.3750,302.0625,37.5000,175.8750,0
1776971248.035,7.7428,-0.3400,-1.1205,-0.1919,0.1769,-0.0264,-87.0000,-13.5000,-14.8500,9.6103,-1.3671,3.4117,0.6616,-3.9780,-1.5905,-37.5000,-11.7000,37.5000,9.8000,-0.9200,-7.5200,-0.4134,-3.7612,-1.5915,-40.5625,36.0000,44.3750,302.0625,37.5000,175.8750,0
1776971248.040,7.7428,-0.3400,-1.1205,-0.1919,0.1769,-0.0264,-86.1000,-12.0000,-14.7000,9.6103,-1.3671,3.4117,0.6616,-3.9780,-1.5905,-40.6500,-10.8000,34.2000,9.8000,-0.9200,-7.5200,-0.4974,-3.6794,-1.4879,-40.5625,36.0000,44.3750,301.2500,35.5000,176.8750,0
1776971248.046,7.5058,-0.1772,-0.9864,-0.3147,0.3826,0.0397,-86.1000,-12.0000,-14.7000,10.1562,-0.5195,2.6911,0.5265,-4.0481,-1.6041,-42.6000,-9.4500,33.9000,9.8600,-1.1200,-7.8200,-0.4974,-3.6794,-1.4879,-40.5625,36.0000,44.3750,300.5000,33.6875,177.5625,0
1776971248.055,7.4723,-0.0646,-0.7638,-0.3445,0.5926,0.0842,-87.6000,-12.0000,-15.9000,10.0940,0.1173,1.8148,0.4975,-4.0755,-1.6502,-42.6000,-9.4500,33.9000,10.0200,-1.6600,-8.0700,-0.2291,-3.3739,-1.3504,-40.5625,36.0000,44.3750,300.5000,33.6875,177.5625,0
1776971248.065,7.4939,0.1748,-0.4860,-0.2497,0.7029,0.1087,-87.0000,-12.3000,-15.3000,10.3501,0.5555,1.2378,0.5891,-4.0390,-1.6763,-42.6000,-8.4000,29.2500,12.3700,-2.8500,-10.1500,-0.1233,-3.1198,-1.1377,-40.5625,36.0000,44.3750,299.8750,31.9375,178.0625,0
1776971248.070,7.7381,0.5890,-0.4525,-0.2497,0.7029,0.1087,-87.0000,-12.6000,-16.8000,10.3501,0.5555,1.2378,0.5891,-4.0390,-1.6763,-42.6000,-8.4000,29.2500,12.3700,-2.8500,-10.1500,-0.1233,-3.1198,-1.1377,-40.5625,36.0000,44.3750,299.8750,31.9375,178.0625,0
1776971248.075,7.7381,0.5890,-0.4525,-0.0975,0.7237,0.1364,-87.0000,-12.6000,-16.8000,10.8362,0.9074,0.9098,0.7687,-3.9727,-1.6859,-41.7000,-6.0000,28.8000,13.4800,-2.8600,-11.0700,-0.0654,-2.9180,-0.9130,-47.5000,33.8750,44.5000,299.3750,30.3750,178.4375,0
1776971248.080,8.1211,0.9218,-0.6153,-0.0975,0.7237,0.1364,-87.0000,-12.6000,-16.8000,10.8362,0.9074,0.9098,0.7687,-3.9727,-1.6859,-41.7000,-6.0000,28.8000,13.4800,-2.8600,-11.0700,-0.0654,-2.9180,-0.9130,-47.5000,33.8750,44.5000,299.3750,30.3750,178.4375,0
1776971248.085,8.1211,0.9218,-0.6153,0.0935,0.6307,0.1404,-87.0000,-12.6000,-16.8000,10.5512,0.3065,0.2394,0.8996,-3.8618,-1.5799,-41.7000,-6.0000,28.8000,13.7100,-2.9300,-11.2200,0.0098,-2.9452,-0.6480,-47.5000,33.8750,44.5000,299.0000,28.7500,178.6875,0
1776971248.093,8.4755,1.7717,-1.2570,0.2673,0.5153,0.1098,-87.3000,-13.2000,-14.4000,10.5321,-0.7590,0.5052,1.0605,-3.6711,-1.5316,-41.7000,-6.0000,28.8000,13.9100,-3.1100,-11.0800,0.1189,-3.1274,-0.3491,-47.5000,33.8750,44.5000,298.7500,27.0000,178.7500,0
1776971248.098,8.4755,1.7717,-1.2570,0.2673,0.5153,0.1098,-87.3000,-13.2000,-14.4000,10.5321,-0.7590,0.5052,1.0605,-3.6711,-1.5316,-41.7000,-6.0000,24.4500,13.9100,-3.1100,-11.0800,0.1189,-3.1274,-0.3491,-47.5000,33.8750,44.5000,298.6875,25.1875,178.6875,0
1776971248.106,8.7891,2.5786,-2.0399,0.4016,0.3738,0.0354,-87.3000,-13.2000,-14.4000,9.9096,-0.3998,-0.3759,0.9785,-3.5024,-1.4330,-42.3000,-4.2000,21.4500,12.3300,-4.1900,-8.9100,0.2062,-3.3172,-0.0753,-47.5000,33.8750,44.5000,298.6875,23.3750,178.5625,0
1776971248.116,8.9232,3.1196,-2.9712,0.4868,0.3328,-0.0674,-87.3000,-13.9500,-16.6500,9.0070,-1.6185,-1.5083,0.4407,-3.2692,-1.3118,-41.8500,-3.4500,22.2000,11.6500,-4.8300,-8.0900,0.1593,-3.2190,0.0665,-47.5000,33.8750,44.5000,298.6875,23.3750,178.5625,0
1776971248.120,9.0644,3.5243,-3.9121,0.4895,0.3043,-0.1764,-88.6500,-13.0500,-13.5000,9.0070,-1.6185,-1.5083,0.4407,-3.2692,-1.3118,-41.8500,-3.4500,22.2000,11.6500,-4.8300,-8.0900,0.1593,-3.2190,0.0665,-47.5000,33.8750,44.5000,298.7500,21.6875,178.5625,0
1776971248.125,9.0644,3.5243,-3.9121,0.4895,0.3043,-0.1764,-88.6500,-13.0500,-13.5000,7.7093,-1.9992,-1.8172,0.0442,-3.0358,-1.2196,-42.4500,-3.7500,19.9500,11.5000,-5.8400,-7.0500,-0.0687,-3.0347,0.2083,-42.6875,30.2500,59.3750,298.7500,21.6875,178.5625,0
1776971248.130,9.1506,3.5865,-5.0398,0.3880,0.2478,-0.2214,-88.6500,-13.5000,-13.8000,7.7093,-1.9992,-1.8172,0.0442,-3.0358,-1.2196,-42.4500,-3.7500,19.9500,11.5000,-5.8400,-7.0500,-0.0687,-3.0347,0.2083,-42.6875,30.2500,59.3750,298.7500,21.6875,178.5625,0
1776971248.135,9.1506,3.5865,-5.0398,0.3880,0.2478,-0.2214,-88.6500,-13.5000,-13.8000,7.0030,-1.5203,-1.9201,-0.5513,-2.7059,-1.1151,-43.5000,-1.8000,15.9000,11.4400,-6.6600,-5.4500,-0.4298,-2.8351,0.3338,-42.6875,30.2500,59.3750,299.0000,20.1250,178.7500,0
1776971248.141,9.2847,3.5171,-6.1746,0.1322,0.3179,-0.2678,-88.6500,-13.0500,-14.2500,6.5122,-0.5507,-2.3367,-1.2921,-2.3643,-0.9723,-43.5000,-1.8000,15.9000,11.4400,-6.6600,-5.4500,-0.8858,-2.6093,0.5323,-42.6875,30.2500,59.3750,299.3125,18.6875,179.1875,0
1776971248.146,9.2847,3.5171,-6.1746,0.1322,0.3179,-0.2678,-88.6500,-13.0500,-14.2500,6.5122,-0.5507,-2.3367,-1.2921,-2.3643,-0.9723,-43.5000,-1.8000,15.9000,11.1200,-7.0300,-4.2400,-0.8858,-2.6093,0.5323,-42.6875,30.2500,59.3750,299.8750,17.2500,179.7500,0
1776971248.156,9.0309,3.5841,-7.2664,-0.1250,0.3842,-0.3304,-88.2000,-12.6000,-13.5000,5.5905,0.3998,-4.0965,-2.0563,-1.9809,-0.7634,-40.6500,0.0000,15.6000,10.7700,-7.3300,-2.8600,-1.2872,-2.5056,0.8192,-42.6875,30.2500,59.3750,300.6875,15.9375,-179.5000,0
1776971248.166,8.5904,3.9289,-8.2337,-0.2715,0.4245,-0.3544,-88.6500,-13.5000,-12.3000,4.0701,1.4748,-6.4212,-2.7006,-1.4997,-0.4927,-42.0000,0.0000,12.0000,10.6300,-7.9500,-1.0400,-1.5643,-2.4206,1.1574,-42.6875,30.2500,59.3750,300.6875,15.9375,-179.5000,0
1776971248.171,9.3111,4.9057,-9.6558,-0.2454,0.5836,-0.3826,-88.6500,-13.5000,-12.3000,2.7078,2.1404,-8.2648,-2.9937,-0.8540,-0.2300,-42.0000,0.0000,12.0000,10.6300,-7.9500,-1.0400,-1.5643,-2.4206,1.1574,-27.5625,27.0000,60.5625,301.6875,14.6875,-178.7500,0
1776971248.176,10.5249,5.3271,-10.5800,-0.2454,0.5836,-0.3826,-88.6500,-13.5000,-12.3000,2.7078,2.1404,-8.2648,-2.9937,-0.8540,-0.2300,-41.8500,0.4500,13.3500,11.8100,-8.6800,4.2000,-1.8108,-2.2253,1.5228,-27.5625,27.0000,60.5625,301.6875,14.6875,-178.7500,0
1776971248.181,10.5249,5.3271,-10.5800,-0.0221,0.5905,-0.4080,-88.6500,-12.3000,-13.0500,2.9736,2.4086,-6.9145,-2.7099,-0.1162,-0.0458,-41.8500,0.4500,13.3500,11.8100,-8.6800,4.2000,-1.8108,-2.2253,1.5228,-27.5625,27.0000,60.5625,302.8750,13.7500,-177.8750,0
1776971248.186,10.5919,5.0973,-9.4212,-0.0221,0.5905,-0.4080,-88.6500,-12.3000,-13.0500,2.9736,2.4086,-6.9145,-2.7099,-0.1162,-0.0458,-42.7500,0.3000,12.0000,12.2300,-8.1300,7.1100,-2.0780,-1.8250,1.8457,-27.5625,27.0000,60.5625,302.8750,13.7500,-177.8750,0
1776971248.195,9.9575,3.0718,-7.0940,0.4013,0.3352,-0.4692,-88.6500,-12.3000,-13.0500,4.7908,2.2625,-4.0007,-2.1085,0.4453,0.0525,-41.1000,1.6500,12.6000,11.1800,-6.4900,9.1300,-2.2318,-1.3145,2.1009,-27.5625,27.0000,60.5625,304.1875,13.0625,-176.9375,0
1776971248.205,9.5529,1.4365,-4.7932,0.2630,0.3307,-0.4719,-88.3500,-12.9000,-12.1500,8.5617,1.8794,-1.7023,-1.7685,0.8106,0.1396,-41.1000,1.6500,12.6000,6.8000,-3.1900,8.8100,-1.9831,-0.7254,2.3726,-27.5625,27.0000,60.5625,305.6250,12.7500,-176.1250,0
1776971248.214,8.6095,0.4549,-3.0670,-0.1090,0.3651,-0.3760,-89.4000,-12.6000,-11.5500,8.6838,0.9409,-1.2282,-1.3947,0.9971,0.1178,-41.7000,3.0000,12.7500,6.1000,-2.9800,6.5300,-1.2490,0.1265,2.7293,-27.5625,27.0000,60.5625,307.1875,12.8750,-175.7500,0
1776971248.219,8.6095,0.4549,-3.0670,-0.7099,0.6904,-0.2657,-90.4500,-11.4000,-11.5500,8.5018,-0.1700,-0.8428,-1.2436,1.0171,0.2030,-41.7000,3.0000,12.7500,6.1000,-2.9800,6.5300,-1.2490,0.1265,2.7293,-27.5625,27.0000,60.5625,307.1875,12.8750,-175.7500,0
1776971248.224,8.5162,-0.0934,-2.0375,-0.7099,0.6904,-0.2657,-90.4500,-11.4000,-11.5500,8.5018,-0.1700,-0.8428,-1.2436,1.0171,0.2030,-42.3000,1.9500,13.6500,7.3700,-3.6000,3.0500,-0.4461,1.2654,3.0631,-18.5000,20.8750,59.8750,308.9375,13.7500,-175.9375,0
1776971248.229,8.5162,-0.0934,-2.0375,-1.1687,0.8607,-0.1871,-89.1000,-11.2500,-10.3500,8.1499,-0.8188,-0.6776,-1.1711,1.1517,0.3022,-42.3000,1.9500,13.6500,7.3700,-3.6000,3.0500,-0.4461,1.2654,3.0631,-18.5000,20.8750,59.8750,308.9375,13.7500,-175.9375,0
1776971248.234,7.8171,-0.9601,-1.2785,-1.1687,0.8607,-0.1871,-89.1000,-11.2500,-10.3500,8.1499,-0.8188,-0.6776,-1.1711,1.1517,0.3022,-42.3000,1.2000,14.4000,9.9900,-4.1600,-2.2700,0.0087,2.1991,3.2550,-18.5000,20.8750,59.8750,310.6875,15.0625,-176.3750,0
1776971248.239,7.8171,-0.9601,-1.2785,-1.5809,1.0861,-0.1274,-90.3000,-12.0000,-10.3500,7.9248,-0.8930,0.2514,-1.2252,1.3089,0.3880,-42.3000,1.2000,14.4000,9.9900,-4.1600,-2.2700,0.0087,2.1991,3.2550,-18.5000,20.8750,59.8750,312.4375,16.6875,-176.8750,0
1776971248.246,7.8099,-0.7254,-0.7494,-1.5306,1.2670,-0.0802,-90.3000,-12.0000,-10.3500,7.9248,-0.8930,0.2514,-1.2252,1.3089,0.3880,-42.4500,2.2500,14.8500,11.1400,-3.5400,-4.7100,0.0851,2.7085,3.2856,-18.5000,20.8750,59.8750,314.1875,18.3125,-177.4375,0
1776971248.256,6.9887,-0.0958,-0.2083,-1.1519,1.4445,0.0400,-89.7000,-11.8500,-9.7500,7.9703,-0.7278,1.2378,-1.1615,1.5436,0.4916,-42.4500,2.2500,14.8500,12.4400,-3.2700,-6.2700,-0.0513,2.7653,3.2136,-18.5000,20.8750,59.8750,314.1875,18.3125,-177.4375,0
1776971248.266,6.9647,-0.1245,0.3160,-0.7789,1.5505,0.2017,-89.7000,-11.8500,-9.7500,8.1187,-0.4741,1.3647,-1.0451,1.7664,0.6033,-43.5000,2.5500,16.3500,13.3400,-2.1800,-7.9000,-0.2978,2.6584,3.0041,-18.5000,20.8750,59.8750,315.8750,19.8125,-177.8125,0
1776971248.271,6.9647,-0.1245,0.3160,-0.7789,1.5505,0.2017,-87.7500,-12.3000,-9.3000,8.6646,-0.1532,1.2617,-0.9398,1.9526,0.6840,-43.5000,2.5500,16.3500,13.3400,-2.1800,-7.9000,-0.2978,2.6584,3.0041,-18.5000,20.8750,59.8750,317.3750,21.1875,-178.0625,0
1776971248.276,6.8833,-0.3879,0.8523,-0.5140,1.4514,0.2739,-87.7500,-12.3000,-9.3000,8.6646,-0.1532,1.2617,-0.9398,1.9526,0.6840,-43.5000,1.0500,17.1000,12.6100,0.6200,-8.0700,-0.4843,2.3758,2.6987,-16.5625,19.8750,58.0000,317.3750,21.1875,-178.0625,0
1776971248.281,6.8833,-0.3879,0.8523,-0.5140,1.4514,0.2739,-87.7500,-12.3000,-9.3000,8.9830,0.0479,0.5962,-0.8079,2.0627,0.7194,-43.5000,1.0500,17.1000,12.6100,0.6200,-8.0700,-0.4843,2.3758,2.6987,-16.5625,19.8750,58.0000,317.3750,21.1875,-178.0625,0
1776971248.286,6.7493,-0.3687,1.7430,-0.3459,1.4578,0.3413,-87.7500,-12.3000,-9.3000,13.3740,3.6919,-2.1308,-1.2041,2.0110,0.6675,-42.9000,2.4000,18.6000,11.3600,1.8100,-6.7400,-0.4189,1.7126,2.3126,-16.5625,19.8750,58.0000,318.6875,22.1875,-178.3125,0
1776971248.294,6.6583,-0.0742,2.4972,-0.1346,1.4096,0.4362,-88.8000,-11.7000,-6.6000,13.3740,3.6919,-2.1308,-1.2041,2.0110,0.6675,-43.2000,0.3000,20.2500,1.6400,3.2800,-5.1400,-0.1254,1.1454,1.8130,-16.5625,19.8750,58.0000,319.6875,22.8125,-178.6875,0
1776971248.299,6.6583,-0.0742,2.4972,-0.1346,1.4096,0.4362,-89.5500,-10.9500,-8.4000,15.1290,4.3096,-2.9281,-1.4067,1.7115,0.2867,-43.2000,0.3000,20.2500,1.6400,3.2800,-5.1400,-0.1254,1.1454,1.8130,-16.5625,19.8750,58.0000,320.6875,23.6875,-179.3125,0
1776971248.306,7.7524,-0.2155,3.5362,-0.0520,1.4914,0.5444,-89.5500,-10.9500,-8.4000,19.1752,4.4388,-10.8745,-1.7853,0.4612,0.0410,-42.7500,1.5000,21.0000,-13.5900,7.8100,-14.8600,0.4134,1.4497,1.8162,-16.5625,19.8750,58.0000,321.4375,25.3750,178.8125,0
1776971248.316,9.6367,-1.1492,4.2497,-0.1239,1.5332,0.6757,-89.5500,-13.9500,-5.8500,17.8919,-1.0870,-8.7460,0.9278,-0.3384,-0.4175,-42.7500,1.5000,21.0000,0.0900,4.5700,-30.9000,2.3017,3.1187,1.8828,-16.5625,19.8750,58.0000,321.4375,25.3750,178.8125,0
1776971248.321,13.1968,-2.2003,4.8483,-0.2795,1.7357,1.0120,-88.3500,-13.6500,-5.8500,17.8919,-1.0870,-8.7460,0.9278,-0.3384,-0.4175,-43.2000,0.7500,20.2500,0.0900,4.5700,-30.9000,2.3017,3.1187,1.8828,-16.5625,19.8750,58.0000,322.1250,27.4375,177.4375,0
1776971248.326,13.1968,-2.2003,4.8483,-0.2795,1.7357,1.0120,-88.3500,-13.6500,-5.8500,13.7523,2.0063,-3.5698,3.0899,-0.4487,-0.5279,-43.2000,0.7500,20.2500,7.6800,6.9600,-23.2800,1.6548,3.7437,1.6144,-19.1875,20.0000,57.1875,322.1250,27.4375,177.4375,0
1776971248.331,17.9110,-2.6911,4.6950,-0.3373,1.6715,1.4226,-88.2000,-15.0000,-3.7500,13.7523,2.0063,-3.5698,3.0899,-0.4487,-0.5279,-43.3500,1.9500,20.1000,7.6800,6.9600,-23.2800,1.6548,3.7437,1.6144,-19.1875,20.0000,57.1875,321.8750,29.4375,176.0625,0
1776971248.336,17.9110,-2.6911,4.6950,-0.3373,1.6715,1.4226,-88.2000,-15.0000,-3.7500,14.4921,0.8619,2.1404,3.3524,0.4559,-0.5915,-43.3500,1.9500,20.1000,9.7900,-3.5400,-7.8400,2.4031,3.6237,-0.0065,-19.1875,20.0000,57.1875,321.8750,29.4375,176.0625,0
1776971248.341,20.6428,-2.3846,3.6057,0.5324,1.7448,1.5087,-88.0500,-14.4000,-4.3500,14.4921,0.8619,2.1404,3.3524,0.4559,-0.5915,-42.9000,2.4000,21.9000,9.7900,-3.5400,-7.8400,2.8558,2.0006,0.8868,-19.1875,20.0000,57.1875,322.0000,30.5000,174.1250,0
1776971248.347,20.6428,-2.3846,3.6057,0.5324,1.7448,1.5087,-88.0500,-14.4000,-4.3500,15.8305,-2.8802,-0.9481,3.3465,1.0251,-0.7565,-42.9000,2.4000,21.9000,17.7900,-25.3800,-17.1500,2.8558,2.0006,0.8868,-19.1875,20.0000,57.1875,322.3125,32.0625,172.2500,0
1776971248.356,22.0985,1.3743,0.9888,2.4965,2.0701,1.0784,-88.0500,-14.4000,-4.3500,15.8688,-3.1340,-1.4988,2.6207,1.0786,-0.3725,-42.6000,3.1500,21.1500,17.5200,-6.6400,-12.8300,2.4718,2.9234,1.1650,-19.1875,20.0000,57.1875,322.3125,32.0625,172.2500,0
1776971248.366,20.6404,1.6376,-0.4405,3.1267,1.7805,0.2771,-87.3000,-15.6000,-2.1000,9.2584,-2.1931,-1.9728,1.9745,1.3550,-0.1705,-45.4500,1.6500,20.7000,10.7000,-4.7600,-10.3900,1.3090,1.3210,-0.1102,-19.1875,20.0000,57.1875,322.1250,32.7500,171.5000,0
1776971248.371,13.7738,0.9385,-1.8292,1.7760,1.8591,-0.3384,-87.3000,-15.6000,-2.1000,9.2584,-2.1931,-1.9728,1.9745,1.3550,-0.1705,-45.4500,1.6500,20.7000,10.7000,-4.7600,-10.3900,1.3090,1.3210,-0.1102,-19.1875,20.0000,57.1875,322.1250,32.7500,171.5000,0
1776971248.376,13.7738,0.9385,-1.8292,1.7760,1.8591,-0.3384,-87.3000,-15.6000,-2.1000,7.8266,-0.4645,-1.8890,1.4194,1.3907,0.0799,-45.4500,1.6500,20.7000,7.2000,-5.5100,-9.7000,0.7156,-0.1767,-0.2585,-22.5000,23.0000,52.5625,321.8125,32.6875,171.1875,0
1776971248.381,8.5186,0.6033,-2.7509,0.0032,1.6934,-0.6001,-88.0500,-13.9500,-1.0500,7.8266,-0.4645,-1.8890,1.4194,1.3907,0.0799,-44.2500,2.2500,24.4500,7.2000,-5.5100,-9.7000,0.7156,-0.1767,-0.2585,-22.5000,23.0000,52.5625,321.8125,32.6875,171.1875,0
1776971248.386,8.5186,0.6033,-2.7509,0.0032,1.6934,-0.6001,-88.0500,-13.9500,-1.0500,7.1611,1.4820,-1.6305,0.9697,1.3270,0.2787,-44.2500,2.2500,24.4500,5.4400,-2.4800,-8.3000,0.3720,0.3818,-0.3687,-22.5000,23.0000,52.5625,321.5625,32.9375,171.1250,0
1776971248.394,5.5162,0.6153,-0.5219,-1.4778,1.7293,-0.4916,-87.4500,-14.5500,-0.1500,8.1116,2.7078,-2.8611,0.7418,1.2628,0.2926,-43.9500,1.8000,26.2500,4.3800,-3.0100,-8.1900,0.3589,-0.1811,-0.3218,-22.5000,23.0000,52.5625,321.3125,32.8750,171.0625,0
1776971248.399,5.2361,0.6776,1.7789,-2.1677,1.3672,-0.3379,-87.3000,-13.9500,-0.1500,8.1116,2.7078,-2.8611,0.7418,1.2628,0.2926,-43.9500,1.8000,26.2500,4.3800,-3.0100,-8.1900,0.3589,-0.1811,-0.3218,-22.5000,23.0000,52.5625,321.1250,32.7500,170.8750,0
1776971248.406,6.7109,-0.3567,3.3040,-2.1677,1.3672,-0.3379,-87.3000,-13.9500,1.0500,7.7069,4.2162,-4.7262,0.8623,1.1413,0.0221,-44.1000,1.2000,27.1500,4.1700,-0.4100,-7.7200,0.4603,-0.2378,-0.2683,-22.5000,23.0000,52.5625,320.9375,32.8125,170.8750,0
1776971248.416,8.3318,-0.7661,2.4301,-2.2465,1.0818,-0.2318,-86.1000,-15.9000,1.3500,6.5457,5.8179,-4.6926,1.3376,1.1261,-0.3741,-44.1000,1.2000,26.8500,4.2500,-1.3500,-8.0700,0.2258,0.0502,-0.2487,-22.5000,23.0000,52.5625,320.9375,32.8125,170.8750,0
1776971248.421,8.3318,-0.7661,2.4301,-1.3254,0.5329,-0.0312,-86.8500,-15.1500,1.8000,7.4819,4.8052,-3.0215,1.5457,1.1623,-0.5023,-44.1000,1.2000,26.8500,4.2500,-1.3500,-8.0700,0.2258,0.0502,-0.2487,-22.5000,23.0000,52.5625,320.8125,33.0625,170.8750,0
1776971248.426,7.0246,-0.1413,0.8835,-1.3254,0.5329,-0.0312,-86.8500,-15.1500,1.8000,7.4819,4.8052,-3.0215,1.5457,1.1623,-0.5023,-44.1000,1.2000,26.8500,4.5500,-1.3700,-8.1400,-0.0087,0.4069,-0.2313,-24.0000,25.3750,51.3750,320.8125,33.0625,170.8750,0
1776971248.431,7.0246,-0.1413,0.8835,-0.0887,0.4746,0.0139,-85.8000,-15.1500,1.8000,8.7149,2.0135,-1.5490,1.1532,1.1186,-0.3933,-44.1000,1.2000,26.8500,4.5500,-1.3700,-8.1400,-0.0087,0.4069,-0.2313,-24.0000,25.3750,51.3750,320.7500,33.5000,171.0000,0
1776971248.436,6.0071,-0.2179,1.1037,0.7197,0.7906,-0.0051,-85.8000,-15.1500,1.8000,8.7149,2.0135,-1.5490,1.1532,1.1186,-0.3933,-44.1000,1.2000,26.8500,4.8900,-0.9400,-8.7300,-0.1244,0.7810,-0.2029,-24.0000,25.3750,51.3750,320.7500,33.5000,171.0000,0
1776971248.443,6.0071,-0.2179,1.1037,0.7197,0.7906,-0.0051,-85.8000,-15.1500,1.8000,9.3494,-0.0814,-0.3567,0.5502,1.1373,-0.2987,-43.6500,0.9000,30.4500,4.8100,-1.9500,-7.8700,-0.1200,0.7156,-0.1102,-24.0000,25.3750,51.3750,320.7500,33.8750,171.0625,0
1776971248.448,7.0102,0.5411,1.5682,0.8239,0.9888,0.0248,-85.8000,-15.1500,1.8000,9.3494,-0.0814,-0.3567,0.5502,1.1373,-0.2987,-43.6500,0.9000,30.4500,4.8100,-1.9500,-7.8700,-0.1200,0.7156,-0.1102,-24.0000,25.3750,51.3750,320.7500,34.1875,171.1250,0
1776971248.456,8.8442,1.7789,1.7119,0.2920,1.0698,0.1140,-85.3500,-15.9000,3.6000,10.1801,-0.5315,0.6632,-0.2574,1.1234,-0.2318,-45.0000,0.7500,30.6000,5.5200,-2.1900,-8.3300,-0.0971,0.5563,-0.0273,-24.0000,25.3750,51.3750,320.8125,34.6250,171.1250,0
1776971248.466,10.4291,1.8890,2.8371,-0.4855,1.0461,0.0565,-85.3500,-15.9000,3.6000,10.6518,0.2682,0.9409,-0.9822,1.1042,-0.1612,-44.5500,2.5500,30.6000,5.6200,-2.1300,-8.4700,-0.1178,0.7625,0.0000,-24.0000,25.3750,51.3750,320.8125,34.6250,171.1250,0
1776971248.471,10.4291,1.8890,2.8371,-0.4855,1.0461,0.0565,-85.9500,-15.4500,4.2000,10.4483,1.9609,0.2442,-1.2713,1.0469,-0.1034,-43.5000,2.2500,31.3500,5.6200,-2.1300,-8.4700,-0.1178,0.7625,0.0000,-24.0000,25.3750,51.3750,320.8125,34.6250,171.1250,0
1776971248.476,10.6829,1.4964,4.4628,-1.2979,0.7256,-0.0914,-85.9500,-15.4500,4.2000,10.4483,1.9609,0.2442,-1.2713,1.0469,-0.1034,-43.5000,2.2500,31.3500,6.1800,-1.7900,-8.8300,-0.0764,0.8487,-0.0338,-24.5625,26.5625,50.5625,320.8125,35.1250,171.1250,0
1776971248.481,10.6829,1.4964,4.4628,-1.2979,0.7256,-0.0914,-85.0500,-13.9500,3.6000,10.0102,3.1891,-0.6847,-1.0488,0.9819,-0.0461,-43.5000,2.2500,31.3500,6.1800,-1.7900,-8.8300,-0.0764,0.8487,-0.0338,-24.5625,26.5625,50.5625,320.8125,35.1250,171.1250,0
1776971248.486,9.8497,1.0606,5.4947,-1.6952,0.3872,-0.1953,-85.0500,-13.9500,3.6000,10.0102,3.1891,-0.6847,-1.0488,0.9819,-0.0461,-43.5000,2.2500,31.3500,6.0300,-2.0300,-8.2200,-0.0425,0.6829,-0.0131,-24.5625,26.5625,50.5625,320.8750,35.5000,171.1250,0
1776971248.496,9.5912,1.2833,5.8826,-1.6233,0.1615,-0.2046,-84.7500,-16.5000,3.7500,9.2344,3.4261,-0.7422,-0.6422,0.9220,-0.0072,-45.0000,1.0500,31.9500,5.5400,-1.9800,-8.2500,0.0207,0.3294,-0.0055,-24.5625,26.5625,50.5625,320.8750,35.6250,171.0625,0
1776971248.505,9.2895,3.0071,5.5833,-1.3648,0.1428,-0.1924,-85.9500,-17.7000,3.7500,9.0237,3.5721,-0.8643,-0.2814,0.8687,0.0128,-45.0000,2.2500,31.9500,5.5300,-1.4900,-8.2100,0.0404,0.2738,-0.0218,-24.5625,26.5625,50.5625,320.8750,35.8125,171.0625,0
1776971248.510,9.2895,3.0071,5.5833,-1.3648,0.1428,-0.1924,-85.9500,-17.7000,3.7500,8.8059,3.2609,-1.1779,0.0075,0.8324,-0.0072,-44.2500,2.5500,33.0000,5.5300,-1.4900,-8.2100,0.0404,0.2738,-0.0218,-24.5625,26.5625,50.5625,320.8750,36.0000,171.0000,0
1776971248.517,9.3685,4.6088,4.3670,-1.1682,0.2611,-0.2193,-85.5000,-16.5000,3.0000,8.8059,3.2609,-1.1779,0.0075,0.8324,-0.0072,-44.8500,1.6500,32.5500,5.5100,-1.4500,-8.0500,0.0382,0.2967,-0.0371,-24.5625,26.5625,50.5625,320.8750,36.0000,171.0000,0
1776971248.522,9.2943,4.9249,3.3471,-1.1682,0.2611,-0.2193,-84.0000,-16.5000,2.7000,9.1889,3.1843,-1.4940,0.2670,0.8223,-0.0437,-44.8500,1.6500,32.5500,5.5100,-1.4500,-8.0500,0.0338,0.2520,-0.0502,-26.0625,26.0000,50.5625,320.8125,36.1250,171.0000,0
1776971248.527,9.2943,4.9249,3.3471,-1.0722,0.4173,-0.3160,-84.0000,-16.5000,2.7000,9.1889,3.1843,-1.4940,0.2670,0.8223,-0.0437,-45.1500,1.9500,32.8500,5.2000,-1.3400,-8.0300,0.0338,0.2520,-0.0502,-26.0625,26.0000,50.5625,320.8125,36.1250,171.0000,0
1776971248.532,8.9663,3.6727,2.5881,-1.0722,0.4173,-0.3160,-84.0000,-16.5000,2.7000,9.1028,3.0933,-1.6352,0.3659,0.8220,-0.0642,-45.1500,1.9500,32.8500,5.2000,-1.3400,-8.0300,0.0316,0.2793,-0.0611,-26.0625,26.0000,50.5625,320.8125,36.2500,171.0000,0
1776971248.537,8.9663,3.6727,2.5881,-0.9766,0.5057,-0.3842,-84.0000,-16.5000,2.7000,9.1028,3.0933,-1.6352,0.3659,0.8220,-0.0642,-45.1500,1.9500,32.8500,5.3100,-1.3700,-8.0500,0.0316,0.2793,-0.0611,-26.0625,26.0000,50.5625,320.8125,36.2500,171.0000,0
1776971248.542,8.7053,2.0375,1.9130,-0.8588,0.5183,-0.4048,-83.7000,-16.5000,3.4500,9.2967,2.6887,-1.5826,0.3296,0.8228,-0.0437,-45.1500,1.9500,32.8500,5.2200,-1.3400,-7.9100,0.0273,0.3000,-0.0393,-26.0625,26.0000,50.5625,320.8125,36.4375,171.0000,0
1776971248.547,8.7053,2.0375,1.9130,-0.8588,0.5183,-0.4048,-83.7000,-16.5000,3.4500,9.3254,1.9058,-1.0798,0.1516,0.8415,-0.0234,-44.5500,3.7500,34.2000,5.2200,-1.3400,-7.9100,0.0273,0.3000,-0.0393,-26.0625,26.0000,50.5625,320.7500,36.6250,170.9375,0
1776971248.556,8.5736,0.6416,1.3024,-0.6736,0.5428,-0.3659,-83.7000,-16.9500,3.4500,9.3254,1.9058,-1.0798,-0.2316,0.8159,-0.0104,-44.5500,3.7500,34.2000,5.1800,-1.2900,-7.9400,0.0480,0.3022,-0.0251,-26.0625,26.0000,50.5625,320.7500,36.6250,170.9375,0
1776971248.566,9.3206,-0.6680,1.2761,-0.5407,0.5782,-0.3467,-85.0500,-15.9000,5.1000,9.5002,0.8452,-0.4764,-0.6350,0.7938,0.0035,-42.9000,1.9500,35.7000,5.4100,-1.4800,-8.0100,0.0676,0.3294,-0.0109,-26.0625,26.0000,50.5625,320.7500,36.8125,170.8750,0
1776971248.571,9.4403,-1.2737,1.8531,-0.4423,0.5121,-0.3099,-83.8500,-16.8000,5.5500,9.5002,0.8452,-0.4764,-0.6350,0.7938,0.0035,-42.9000,1.9500,35.7000,5.4100,-1.4800,-8.0100,0.0676,0.3294,-0.0109,-26.0625,26.0000,50.5625,320.7500,37.0000,170.8125,0
1776971248.576,9.4403,-1.2737,1.8531,-0.4423,0.5121,-0.3099,-83.8500,-16.8000,5.5500,9.7324,1.0511,-0.3903,-0.9121,0.7719,0.0200,-45.0000,2.5500,35.8500,5.7300,-2.0900,-8.2400,0.0774,0.3545,-0.0098,-26.7500,26.0625,50.1875,320.7500,37.0000,170.8125,0
1776971248.576,9.4403,-1.2737,1.8531,-0.4423,0.5121,-0.3099,-83.8500,-16.8000,5.5500,9.7324,1.0511,-0.3903,-0.9121,0.7719,0.0200,-45.0000,2.5500,35.8500,5.7300,-2.0900,-8.2400,0.0774,0.3545,-0.0098,-26.7500,26.0625,50.1875,320.7500,37.0000,170.8125,0
1776971248.581,9.5600,-0.9792,2.1668,-0.5089,0.4517,-0.2848,-84.0000,-15.0000,6.0000,9.7324,1.0511,-0.3903,-0.9121,0.7719,0.0200,-45.0000,2.5500,35.8500,5.7300,-2.0900,-8.2400,0.0774,0.3545,-0.0098,-26.7500,26.0625,50.1875,320.7500,37.1875,170.8125,0
1776971248.587,9.5600,-0.9792,2.1668,-0.5089,0.4517,-0.2848,-84.0000,-15.0000,6.0000,9.9742,1.5443,0.0646,-1.0613,0.7384,0.0386,-43.9500,1.5000,36.6000,5.5900,-1.7000,-8.0300,0.0502,0.3687,-0.0240,-26.7500,26.0625,50.1875,320.7500,37.1875,170.8125,0
1776971248.595,9.3374,-0.3112,2.8323,-0.6877,0.3472,-0.3094,-84.6000,-17.5500,5.1000,9.9742,1.5443,0.0646,-1.0613,0.7384,0.0386,-43.9500,1.5000,36.6000,5.5300,-1.5000,-8.0400,0.0164,0.4058,-0.0469,-26.7500,26.0625,50.1875,320.7500,37.4375,170.7500,0
1776971248.599,9.0501,0.3400,3.3686,-0.9619,0.2422,-0.3616,-84.6000,-17.5500,5.1000,9.7707,1.8052,0.2562,-1.0781,0.6920,0.0589,-43.9500,1.5000,36.6000,5.5300,-1.5000,-8.0400,0.0164,0.4058,-0.0469,-26.7500,26.0625,50.1875,320.7500,37.6250,170.7500,0
1776971248.607,9.0501,0.3400,3.3686,-0.9619,0.2422,-0.3616,-84.6000,-17.5500,5.1000,9.6750,2.0494,0.3543,-1.0078,0.6547,0.0719,-44.2500,2.5500,36.3000,5.8000,-1.5500,-7.9300,-0.0196,0.4156,-0.0469,-26.7500,26.0625,50.1875,320.7500,37.8750,170.8125,0
1776971248.617,8.6167,0.2873,3.8666,-1.3163,0.1362,-0.4389,-84.7500,-16.5000,4.2000,9.4451,2.0806,0.2274,-0.9190,0.6137,0.0528,-44.2500,3.3000,37.3500,5.6900,-1.5400,-7.9000,-0.0425,0.3982,-0.0447,-26.7500,26.0625,50.1875,320.7500,37.8750,170.8125,0
1776971248.622,8.9304,0.2873,3.6009,-1.5394,0.1588,-0.4935,-84.7500,-16.5000,4.2000,9.4451,2.0806,0.2274,-0.9190,0.6137,0.0528,-44.2500,3.3000,37.3500,5.6900,-1.5400,-7.9000,-0.0425,0.3982,-0.0447,-26.7500,26.0625,50.1875,320.7500,37.8750,170.8125,0
1776971248.627,8.9304,0.2873,3.6009,-1.5394,0.1588,-0.4935,-84.7500,-16.5000,4.2000,9.5146,2.4229,0.1963,-0.8274,0.5750,0.0408,-42.7500,0.3000,37.3500,5.7400,-1.6200,-7.9100,-0.0698,0.3643,-0.0665,-27.5000,26.0625,49.0000,320.7500,38.0625,170.8125,0
1776971248.631,8.7532,0.1149,3.5267,-1.6148,0.0794,-0.5012,-83.4000,-16.8000,4.3500,9.5146,2.4229,0.1963,-0.8274,0.5750,0.0408,-42.7500,0.3000,37.3500,5.7400,-1.6200,-7.9100,-0.0698,0.3643,-0.0665,-27.5000,26.0625,49.0000,320.7500,38.0625,170.8125,0
1776971248.636,8.7532,0.1149,3.5267,-1.6148,0.0794,-0.5012,-83.4000,-16.8000,4.3500,9.5481,2.4086,0.1221,-0.7258,0.5569,0.0195,-44.1000,0.9000,36.7500,5.7800,-1.4000,-7.8700,-0.0698,0.3643,-0.0665,-27.5000,26.0625,49.0000,320.7500,38.2500,170.8125,0
1776971248.641,8.6072,0.3400,3.2848,-1.5847,0.0184,-0.4636,-83.4000,-16.8000,4.3500,9.5481,2.4086,0.1221,-0.7258,0.5569,0.0195,-44.1000,0.9000,36.7500,5.7800,-1.4000,-7.8700,-0.1036,0.3916,-0.0698,-27.5000,26.0625,49.0000,320.7500,38.4375,170.8750,0
1776971248.647,8.7532,0.5267,3.2513,-1.5535,0.0024,-0.4445,-84.4500,-18.9000,5.7000,9.4451,2.1021,0.2131,-0.7277,0.5191,0.0024,-44.2500,1.0500,37.3500,5.8500,-1.3400,-7.8600,-0.1036,0.3916,-0.0698,-27.5000,26.0625,49.0000,320.7500,38.4375,170.8750,0
1776971248.656,8.6886,0.9074,3.0239,-1.5535,0.0024,-0.4445,-83.1000,-16.8000,4.3500,9.5313,1.7861,0.1939,-0.8172,0.4978,0.0112,-44.2500,1.0500,37.3500,5.8100,-1.4000,-7.8300,-0.1320,0.4058,-0.0709,-27.5000,26.0625,49.0000,320.7500,38.6250,170.9375,0
1776971248.661,8.6886,0.9074,3.0239,-1.5852,-0.0322,-0.4154,-83.1000,-16.8000,4.3500,9.5313,1.7861,0.1939,-0.8172,0.4978,0.0112,-44.2500,1.0500,37.3500,5.8100,-1.4000,-7.8300,-0.1440,0.4080,-0.0731,-27.5000,26.0625,49.0000,320.7500,38.8125,171.0000,0
1776971248.667,8.7867,1.4796,3.1340,-1.6665,-0.0424,-0.3933,-85.2000,-18.4500,4.9500,9.6103,1.7549,0.1197,-0.9481,0.4700,0.0200,-44.2500,2.2500,37.0500,5.8200,-1.3800,-7.8400,-0.1440,0.4080,-0.0731,-27.5000,26.0625,49.0000,320.7500,38.8125,171.0000,0
1776971248.672,8.7867,1.4796,3.1340,-1.6665,-0.0424,-0.3933,-84.7500,-18.4500,3.4500,9.6103,1.7549,0.1197,-0.9481,0.4700,0.0200,-44.2500,2.2500,37.0500,5.8200,-1.3800,-7.8400,-0.1440,0.4080,-0.0731,-28.1875,25.6875,49.2500,320.8125,39.0000,171.0625,0
1776971248.677,9.0692,1.7741,3.2777,-1.7312,-0.0226,-0.3725,-84.7500,-18.4500,3.4500,9.5217,2.0758,0.1077,-1.0493,0.4514,0.0336,-43.9500,0.0000,38.7000,5.7600,-1.3800,-7.8400,-0.1625,0.4385,-0.0578,-28.1875,25.6875,49.2500,320.8125,39.0000,171.0625,0
1776971248.682,9.0692,1.7741,3.2777,-1.7312,-0.0226,-0.3725,-84.1500,-19.5000,6.1500,9.5217,2.0758,0.1077,-1.0917,0.4399,0.0405,-43.9500,0.0000,38.7000,5.7600,-1.3800,-7.8400,-0.1625,0.4385,-0.0578,-28.1875,25.6875,49.2500,320.8125,39.1875,171.1250,0
1776971248.687,9.4020,2.0255,3.3279,-1.7368,0.0333,-0.3712,-84.1500,-19.5000,6.1500,9.4020,2.3918,0.0718,-1.0917,0.4399,0.0405,-43.6500,1.6500,37.8000,5.9200,-1.3400,-7.7700,-0.1625,0.4385,-0.0578,-28.1875,25.6875,49.2500,320.8125,39.1875,171.1250,0
1776971248.692,9.4020,2.0255,3.3279,-1.7368,0.0333,-0.3712,-84.1500,-19.5000,6.1500,9.6199,2.4541,0.0359,-1.0685,0.4455,0.0514,-43.6500,1.6500,37.8000,5.9200,-1.3400,-7.7700,-0.1604,0.4712,-0.0535,-28.1875,25.6875,49.2500,320.8125,39.4375,171.1875,0
1776971248.697,9.1482,2.1787,3.6655,-1.7059,-0.0115,-0.3717,-84.1500,-19.5000,6.1500,9.6199,2.4541,0.0359,-1.0685,0.4455,0.0514,-42.3000,1.6500,37.2000,6.1000,-1.2600,-7.7700,-0.1604,0.4712,-0.0535,-28.1875,25.6875,49.2500,320.8125,39.4375,171.1875,0
1776971248.706,9.2727,2.0638,3.7278,-1.6939,0.0320,-0.3813,-82.9500,-20.8500,3.7500,9.5672,2.3320,-0.0311,-0.9968,0.4399,0.0640,-42.3000,1.6500,37.2000,6.0800,-1.3100,-7.7200,-0.1527,0.4276,-0.0404,-28.1875,25.6875,49.2500,320.8750,39.6250,171.2500,0
1776971248.716,9.2847,1.9369,3.4572,-1.6529,0.0123,-0.3904,-82.9500,-20.8500,3.7500,9.4930,2.1907,-0.0718,-0.9292,0.4421,0.0514,-42.7500,-0.3000,38.1000,6.0700,-1.3600,-7.6800,-0.1396,0.3807,-0.0284,-28.1875,25.6875,49.2500,320.8750,39.8125,171.3125,0
1776971248.721,9.2847,1.9369,3.4572,-1.6529,0.0123,-0.3904,-82.9500,-20.8500,3.7500,9.3374,2.0614,-0.0072,-0.8953,0.4399,0.0456,-42.7500,-0.3000,38.1000,6.0700,-1.3600,-7.6800,-0.1396,0.3807,-0.0284,-28.1875,25.6875,49.2500,320.8750,39.8125,171.3125,0
1776971248.726,9.3326,1.7262,2.9712,-1.6339,0.0242,-0.3952,-84.0000,-20.8500,4.5000,9.3374,2.0614,-0.0072,-0.8953,0.4399,0.0456,-42.6000,-0.4500,38.5500,6.1000,-1.3500,-7.7500,-0.1287,0.3654,-0.0109,-29.5625,25.3750,47.2500,320.9375,40.0625,171.3750,0
1776971248.731,9.3326,1.7262,2.9712,-1.6339,0.0242,-0.3952,-84.0000,-20.8500,4.5000,9.6103,2.0399,-0.0024,-0.9366,0.4415,0.0533,-42.6000,-0.4500,38.5500,6.1000,-1.3500,-7.7500,-0.1287,0.3654,-0.0109,-29.5625,25.3750,47.2500,320.9375,40.0625,171.3750,0
1776971248.736,9.1291,1.6281,2.5450,-1.6070,-0.0141,-0.3752,-85.5000,-20.1000,3.4500,9.6103,2.0399,-0.0024,-0.9366,0.4415,0.0533,-43.5000,0.0000,38.1000,6.1700,-1.3000,-7.6300,-0.1113,0.3371,0.0033,-29.5625,25.3750,47.2500,320.9375,40.2500,171.4375,0
1776971248.741,9.1291,1.6281,2.5450,-1.6070,-0.0141,-0.3752,-85.5000,-20.1000,3.4500,9.6031,1.9848,-0.0694,-0.9774,0.4463,0.0671,-43.5000,0.0000,38.1000,6.1700,-1.3000,-7.6300,-0.0884,0.2782,0.0284,-29.5625,25.3750,47.2500,321.0000,40.3750,171.4375,0
1776971248.748,9.3015,1.4605,2.1835,-1.6177,0.0232,-0.3714,-84.6000,-21.0000,3.6000,9.6031,1.9848,-0.0694,-0.9774,0.4463,0.0671,-42.0000,-0.7500,38.1000,6.2800,-1.3500,-7.7300,-0.0884,0.2782,0.0284,-29.5625,25.3750,47.2500,321.0000,40.3750,171.4375,0
1776971248.756,9.1506,1.2881,2.0207,-1.6166,0.0397,-0.3608,-85.3500,-21.4500,4.8000,9.5816,2.1045,-0.1197,-1.0301,0.4572,0.0762,-40.6500,-0.7500,39.1500,6.2000,-1.2400,-7.6800,-0.0687,0.2465,0.0502,-29.5625,25.3750,47.2500,321.0625,40.4375,171.4375,0
1776971248.761,9.1506,1.2881,2.0207,-1.6166,0.0397,-0.3608,-85.3500,-21.4500,4.8000,9.4571,2.1045,-0.2682,-1.0885,0.4692,0.0893,-40.6500,-0.7500,39.1500,6.2000,-1.2400,-7.6800,-0.0556,0.2062,0.0578,-29.5625,25.3750,47.2500,321.1250,40.5625,171.3750,0
1776971248.768,9.2775,1.2043,1.8172,-1.6409,0.0549,-0.3648,-84.7500,-21.3000,1.9500,9.4571,2.1045,-0.2682,-1.0885,0.4692,0.0893,-40.6500,-0.7500,39.1500,6.1700,-1.2900,-7.5500,-0.0556,0.2062,0.0578,-29.5625,25.3750,47.2500,321.1250,40.5625,171.3750,0
1776971248.772,9.1506,1.2713,1.8076,-1.6848,0.0925,-0.3597,-84.7500,-21.3000,1.9500,9.4332,2.1883,-0.2274,-1.1346,0.4751,0.0973,-40.6500,-0.7500,39.1500,6.1700,-1.2900,-7.5500,-0.0556,0.2062,0.0578,-30.0000,24.0000,47.2500,321.1875,40.6250,171.3750,0
1776971248.778,9.1506,1.2713,1.8076,-1.6848,0.0925,-0.3597,-84.0000,-22.5000,2.7000,9.4332,2.1883,-0.2274,-1.1346,0.4751,0.0973,-42.9000,-0.4500,39.0000,6.0500,-1.3200,-7.6000,-0.0382,0.1974,0.0458,-30.0000,24.0000,47.2500,321.1875,40.6250,171.3750,0
1776971248.782,9.1602,1.4820,1.9106,-1.7195,0.0405,-0.3387,-84.0000,-22.5000,2.7000,9.4164,2.4110,-0.1796,-1.1722,0.4948,0.0994,-42.9000,-0.4500,39.0000,6.0500,-1.3200,-7.6000,-0.0382,0.1974,0.0458,-30.0000,24.0000,47.2500,321.1875,40.6875,171.3125,0
1776971248.788,9.1602,1.4820,1.9106,-1.7195,0.0405,-0.3387,-84.0000,-22.5000,2.7000,9.4164,2.4110,-0.1796,-1.1722,0.4948,0.0994,-42.9000,1.9500,39.0000,6.2600,-1.1900,-7.6400,-0.0295,0.2018,0.0262,-30.0000,24.0000,47.2500,321.1875,40.6875,171.3125,0
1776971248.792,9.3254,1.6400,2.1237,-1.7738,0.0104,-0.3272,-84.0000,-22.5000,2.7000,9.4523,2.5019,-0.0814,-1.1610,0.4996,0.1212,-42.6000,0.4500,39.6000,6.2600,-1.1900,-7.6400,-0.0305,0.2029,0.0273,-30.0000,24.0000,47.2500,321.2500,40.8125,171.3125,0
1776971248.798,9.3254,1.6400,2.1237,-1.7738,0.0104,-0.3272,-84.4500,-21.3000,1.9500,9.4523,2.5019,-0.0814,-1.1610,0.4996,0.1212,-42.6000,0.4500,39.6000,6.1500,-1.2000,-7.5800,-0.0305,0.2029,0.0273,-30.0000,24.0000,47.2500,321.2500,40.8125,171.3125,0
1776971248.806,9.1770,2.0758,2.3008,-1.8234,-0.0413,-0.3096,-84.4500,-21.3000,1.9500,9.3901,2.7150,-0.1963,-1.1178,0.5356,0.1308,-42.9000,-0.9000,38.2500,6.4300,-1.1500,-7.4900,-0.0273,0.2094,0.0087,-30.0000,24.0000,47.2500,321.2500,40.8750,171.3125,0
1776971248.811,9.3087,2.2482,2.4995,-1.8703,-0.0338,-0.3147,-84.4500,-21.3000,1.9500,9.4667,2.7007,-0.2705,-1.0648,0.5465,0.1452,-42.9000,-0.9000,38.2500,6.4300,-1.1500,-7.4900,-0.0316,0.1800,0.0273,-30.0000,24.0000,47.2500,321.3125,40.9375,171.3125,0
1776971248.818,9.3087,2.2482,2.4995,-1.8703,-0.0338,-0.3147,-84.4500,-22.8000,1.6500,9.5026,2.7222,-0.1987,-1.0003,0.5742,0.1668,-40.8000,0.4500,40.0500,6.0200,-1.1500,-7.6000,-0.0316,0.1800,0.0273,-30.0000,24.0000,47.2500,321.3125,40.9375,171.3125,0
1776971248.823,9.3613,2.5091,2.4588,-1.8826,-0.0381,-0.2835,-84.4500,-22.8000,1.6500,9.5026,2.7222,-0.1987,-1.0003,0.5742,0.1668,-40.8000,0.4500,40.0500,6.0200,-1.1500,-7.6000,-0.0284,0.1898,0.0044,-30.3750,24.2500,49.2500,321.3125,41.0625,171.3125,0
1776971248.828,9.3613,2.5091,2.4588,-1.8826,-0.0381,-0.2835,-85.2000,-23.5500,1.6500,9.4595,2.6743,-0.3328,-0.9537,0.6179,0.1887,-40.8000,0.4500,40.0500,6.2500,-1.1200,-7.6600,-0.0284,0.1898,0.0044,-30.3750,24.2500,49.2500,321.3125,41.0625,171.3125,0
1776971248.833,9.4044,2.6863,2.4205,-1.8285,-0.0477,-0.2854,-85.2000,-23.5500,1.6500,9.4595,2.6743,-0.3328,-0.9537,0.6179,0.1887,-40.6500,-1.0500,38.7000,6.2500,-1.1200,-7.6600,-0.0295,0.2018,-0.0055,-30.3750,24.2500,49.2500,321.3125,41.1250,171.3125,0
1776971248.838,9.4044,2.6863,2.4205,-1.8285,-0.0477,-0.2854,-84.0000,-23.5500,2.4000,9.5433,2.4924,-0.3448,-0.9228,0.6435,0.1964,-40.6500,-1.0500,38.7000,6.2600,-1.0600,-7.5300,-0.0295,0.2018,-0.0055,-30.3750,24.2500,49.2500,321.3125,41.1250,171.3125,0
1776971248.843,9.3685,2.4852,2.3607,-1.8050,-0.0240,-0.2875,-84.0000,-23.5500,2.4000,9.5433,2.4924,-0.3448,-0.9228,0.6435,0.1964,-41.8500,-0.9000,40.6500,6.2600,-1.0600,-7.5300,-0.0371,0.1953,0.0011,-30.3750,24.2500,49.2500,321.3125,41.1875,171.3125,0
1776971248.848,9.1650,2.7581,2.1500,-1.8050,-0.0240,-0.2875,-85.0500,-22.9500,0.3000,9.4260,2.3607,-0.1604,-0.9116,0.6744,0.2094,-41.8500,-0.9000,40.6500,6.1900,-1.1600,-7.6300,-0.0371,0.1953,0.0011,-30.3750,24.2500,49.2500,321.3125,41.1875,171.3125,0
1776971248.857,9.1650,2.7581,2.1500,-1.7144,-0.0285,-0.2718,-84.1500,-23.8500,1.0500,9.3613,2.0087,-0.1820,-0.9161,0.7040,0.2158,-40.9500,-2.2500,39.9000,6.1800,-1.1100,-7.6000,-0.0404,0.1974,0.0076,-30.3750,24.2500,49.2500,321.3750,41.2500,171.3125,0
1776971248.862,9.0477,2.7007,1.9776,-1.5969,0.0107,-0.2454,-84.1500,-23.8500,1.0500,9.3613,2.0087,-0.1820,-0.9161,0.7040,0.2158,-42.0000,-1.5000,39.9000,6.1800,-1.1100,-7.6000,-0.0469,0.2073,0.0109,-30.3750,24.2500,49.2500,321.3750,41.3750,171.3125,0
1776971248.868,9.0357,2.8515,1.9680,-1.5969,0.0107,-0.2454,-84.6000,-24.6000,1.0500,9.3063,1.9201,-0.1532,-0.9595,0.7432,0.2225,-42.0000,-1.5000,39.9000,6.1800,-1.1200,-7.5200,-0.0469,0.2073,0.0109,-30.3750,24.2500,49.2500,321.3750,41.3750,171.3125,0
1776971248.873,9.0357,2.8515,1.9680,-1.4687,0.0440,-0.2350,-84.6000,-24.6000,1.0500,9.3063,1.9201,-0.1532,-0.9595,0.7432,0.2225,-41.7000,-2.2500,40.5000,6.2700,-1.1300,-7.5300,-0.0545,0.2193,0.0175,-31.8750,24.0000,48.5000,321.3750,41.4375,171.3750,0
1776971248.878,8.9735,2.9233,1.9201,-1.3608,0.0781,-0.2068,-84.6000,-24.6000,1.0500,9.3230,1.9273,-0.2011,-0.9872,0.7831,0.2350,-41.7000,-2.2500,40.5000,6.2700,-1.1300,-7.5300,-0.0545,0.2193,0.0175,-31.8750,24.0000,48.5000,321.3750,41.4375,171.3750,0
1776971248.883,8.9735,2.9233,1.9201,-1.3608,0.0781,-0.2068,-84.6000,-24.6000,1.0500,9.3230,1.9273,-0.2011,-0.9872,0.7831,0.2350,-41.7000,-2.2500,40.5000,6.2700,-1.1300,-7.5300,-0.0600,0.2116,0.0273,-31.8750,24.0000,48.5000,321.4375,41.5000,171.3750,0
1776971248.888,8.9711,2.8060,1.8531,-1.2902,0.1042,-0.1708,-85.0500,-23.8500,0.3000,9.3877,2.1284,-0.0335,-0.9563,0.8119,0.2313,-41.7000,-2.2500,40.5000,6.0800,-1.1100,-7.5700,-0.0600,0.2116,0.0273,-31.8750,24.0000,48.5000,321.4375,41.5000,171.3750,0
1776971248.893,8.9711,2.8060,1.8531,-1.2902,0.1042,-0.1708,-85.0500,-23.8500,0.3000,9.3877,2.1284,-0.0335,-0.9563,0.8119,0.2313,-40.6500,-3.0000,42.3000,6.0800,-1.1100,-7.5700,-0.0480,0.2291,0.0327,-31.8750,24.0000,48.5000,321.5000,41.5625,171.3750,0
