timestamp,thigh_acc_x,thigh_acc_y,thigh_acc_z,thigh_gyro_x,thigh_gyro_y,thigh_gyro_z,thigh_mag_x,thigh_mag_y,thigh_mag_z,shank_acc_x,shank_acc_y,shank_acc_z,shank_gyro_x,shank_gyro_y,shank_gyro_z,shank_mag_x,shank_mag_y,shank_mag_z,foot_acc_x,foot_acc_y,foot_acc_z,foot_gyro_x,foot_gyro_y,foot_gyro_z,foot_mag_x,foot_mag_y,foot_mag_z,foot_euler_x,foot_euler_y,foot_euler_z,perturbation_event
1776973761.152,9.7923,-4.3359,3.4524,0.4786,1.5836,1.2207,-76.5000,-6.4500,26.7000,12.9407,-2.6360,4.1396,-0.6520,-2.2322,-1.6984,-65.2500,9.3000,14.5500,-0.9000,-5.9300,-10.2900,1.1846,-4.8422,2.5733,47.0625,33.1875,35.2500,338.0625,-80.0625,157.6250,0
1776973761.161,8.9830,-4.7908,4.0223,0.6755,1.5412,0.8945,-76.5000,-6.4500,26.7000,12.5432,-3.0023,4.6807,-1.1122,-1.9031,-1.6321,-65.2500,9.3000,14.5500,0.8800,-4.9400,-8.2900,1.0636,-4.5804,2.6834,47.0625,33.1875,35.2500,338.0625,-80.0625,157.6250,0
1776973761.171,8.9256,-6.1651,5.7269,0.8607,1.2180,0.5993,-73.9500,-6.6000,27.0000,11.5305,-2.8946,4.9752,-1.2079,-1.5396,-1.5617,-63.7500,8.7000,12.9000,2.4300,-1.6200,-7.7500,0.9665,-4.5804,2.8013,47.0625,33.1875,35.2500,337.0000,-82.9375,160.8125,0
1776973761.176,7.9176,-6.7780,7.8817,1.1002,0.8292,0.4954,-73.9500,-6.6000,27.0000,10.5704,-1.7334,4.7381,-0.8775,-1.4282,-1.5583,-63.7500,8.7000,12.9000,2.4300,-1.6200,-7.7500,0.9665,-4.5804,2.8013,47.0625,33.1875,35.2500,337.0000,-82.9375,160.8125,0
1776973761.181,7.9176,-6.7780,7.8817,1.1002,0.8292,0.4954,-73.2000,-7.8000,27.3000,10.5704,-1.7334,4.7381,-0.8775,-1.4282,-1.5583,-63.7500,8.7000,12.9000,-14.3400,-0.0600,-9.2900,0.9163,-4.6317,3.0652,55.5000,30.1875,20.7500,335.7500,-85.8750,179.3125,0
1776973761.186,6.6990,-7.8650,9.0237,0.9944,0.5231,0.4205,-73.2000,-7.8000,27.3000,10.0556,-0.9313,3.8235,-0.8583,-1.3582,-1.5404,-63.7500,8.7000,12.9000,-14.3400,-0.0600,-9.2900,0.9163,-4.6317,3.0652,55.5000,30.1875,20.7500,335.7500,-85.8750,179.3125,0
1776973761.191,6.6990,-7.8650,9.0237,0.9944,0.5231,0.4205,-74.5500,-6.7500,27.4500,10.0556,-0.9313,3.8235,-0.8583,-1.3582,-1.5404,-64.0500,8.7000,12.9000,-11.3500,-7.4100,-11.0100,1.1705,-3.6346,2.9747,55.5000,30.1875,20.7500,334.8125,-87.7500,-179.0000,0
1776973761.197,4.7357,-7.2065,10.0173,0.9406,0.2630,0.2222,-72.0000,-6.9000,27.7500,10.1945,-0.7853,1.2043,-1.2223,-1.3131,-1.4338,-64.0500,8.7000,10.8000,-5.8100,-9.6600,-12.2800,1.7835,-0.8923,2.0246,55.5000,30.1875,20.7500,334.6875,-87.3750,-177.9375,0
1776973761.202,4.4460,-5.0422,8.0924,0.3757,-0.0216,-0.0453,-72.0000,-6.9000,27.7500,10.1945,-0.7853,1.2043,-1.2223,-1.3131,-1.4338,-63.1500,11.5500,10.9500,-5.8100,-9.6600,-12.2800,1.7835,-0.8923,2.0246,55.5000,30.1875,20.7500,335.1250,-86.5000,-177.3750,0
1776973761.211,4.3694,-3.3255,6.2201,0.3757,-0.0216,-0.0453,-74.5500,-6.4500,26.7000,11.2839,-0.4477,0.7422,-1.0786,-1.3560,-1.4759,-63.0000,10.2000,11.1000,-5.0900,-9.8900,-10.9300,1.7868,1.2097,1.0374,55.5000,30.1875,20.7500,335.1250,-86.5000,-177.3750,0
1776973761.221,4.5203,-2.7725,4.9057,-0.6107,-0.3802,-0.4247,-74.1000,-6.0000,26.4000,11.1187,0.8428,1.9034,-0.7139,-1.4448,-1.5695,-62.1000,10.0500,9.1500,-0.2800,-7.9000,-6.8000,1.3461,2.3507,0.3469,55.5000,30.1875,20.7500,335.6875,-85.4375,-177.1875,0
1776973761.226,4.5203,-2.7725,4.9057,-1.2550,-0.4810,-0.8148,-74.1000,-6.0000,26.4000,10.2544,2.7701,2.4780,-0.2702,-1.2041,-1.6089,-62.1000,10.0500,9.1500,-0.2800,-7.9000,-6.8000,1.3461,2.3507,0.3469,55.5000,30.1875,20.7500,335.6875,-85.4375,-177.1875,0
1776973761.231,4.1180,-2.7485,4.3622,-1.2550,-0.4810,-0.8148,-74.1000,-6.0000,26.4000,10.2544,2.7701,2.4780,-0.2702,-1.2041,-1.6089,-61.6500,10.8000,10.6500,0.3400,-6.7400,-5.4100,0.8127,2.8678,-0.1124,57.8750,24.1875,11.0000,336.1250,-84.1250,-177.3125,0
1776973761.235,4.1180,-2.7485,4.3622,-1.1895,-0.6901,-1.0563,-74.1000,-6.0000,26.4000,10.1514,3.5410,2.0016,-0.0152,-1.0960,-1.6270,-61.6500,10.8000,10.6500,0.3400,-6.7400,-5.4100,0.8127,2.8678,-0.1124,57.8750,24.1875,11.0000,336.1250,-84.1250,-177.3125,0
1776973761.241,3.8930,-2.8012,3.5506,-0.8527,-0.9603,-1.2388,-72.9000,-4.2000,24.7500,10.1514,3.5410,2.0016,-0.0152,-1.0960,-1.6270,-61.6500,10.8000,10.6500,0.5700,-5.9700,-4.5900,0.2923,3.0947,-0.4800,57.8750,24.1875,11.0000,336.5000,-82.6250,-161.0625,0
1776973761.245,3.8930,-2.8012,3.5506,-0.8527,-0.9603,-1.2388,-72.9000,-4.2000,24.7500,9.8378,3.5291,1.2833,0.1428,-0.8729,-1.6800,-61.6500,10.8000,10.6500,0.5700,-5.9700,-4.5900,-0.1353,3.2518,-0.8563,57.8750,24.1875,11.0000,336.8125,-81.0000,-167.5625,0
1776973761.252,3.6966,-3.1412,4.1635,-0.4847,-1.2705,-1.4248,-72.9000,-4.2000,24.7500,9.8378,3.5291,1.2833,0.1428,-0.8729,-1.6800,-59.1000,10.5000,9.9000,0.8000,-5.1600,-3.5500,-0.1353,3.2518,-0.8563,57.8750,24.1875,11.0000,337.1250,-79.3125,-173.0000,0
1776973761.261,3.1603,-2.6791,4.2306,-0.0874,-1.5687,-1.6539,-73.0500,-2.4000,21.1500,9.7276,3.1987,0.8140,0.0115,-0.5436,-1.7616,-58.9500,10.2000,10.0500,0.6100,-4.6700,-3.2500,-0.4800,3.3369,-1.2305,57.8750,24.1875,11.0000,337.1250,-79.3125,-173.0000,0
1776973761.271,2.9640,-2.1620,3.4620,0.0328,-1.7968,-1.8943,-74.4000,-1.9500,21.7500,10.2304,3.1603,1.9130,0.3701,-0.6054,-1.7672,-57.4500,9.9000,9.7500,0.0900,-4.0500,-3.3800,-0.7712,3.3150,-1.5850,57.8750,24.1875,11.0000,337.4375,-77.5625,-177.6250,0
1776973761.276,2.9640,-2.1620,3.4620,0.0328,-1.7968,-1.8943,-74.4000,-1.9500,21.7500,10.0868,2.8012,1.9273,0.5041,-0.3693,-1.7664,-57.4500,9.9000,9.7500,0.0900,-4.0500,-3.3800,-0.7712,3.3150,-1.5850,57.8750,24.1875,11.0000,337.8125,-75.7500,178.3125,0
1776973761.281,3.0550,-2.6983,2.8443,0.0821,-2.0656,-2.0299,-75.4500,-2.7000,19.5000,10.0868,2.8012,1.9273,0.4690,-0.4186,-1.7072,-58.3500,10.5000,11.4000,-0.9000,-3.3100,-3.9200,-0.9654,3.2594,-1.9330,54.0000,24.5625,17.1875,337.8125,-75.7500,178.3125,0
1776973761.286,3.0550,-2.6983,2.8443,0.0821,-2.0656,-2.0299,-75.4500,-2.7000,19.5000,9.6893,2.3391,1.9872,0.4690,-0.4186,-1.7072,-58.3500,10.5000,11.4000,-0.9000,-3.3100,-3.9200,-0.9654,3.2594,-1.9330,54.0000,24.5625,17.1875,338.4375,-73.8750,174.5625,0
1776973761.291,3.1460,-3.4907,2.8683,0.3802,-1.9145,-2.1647,-73.9500,-0.3000,19.2000,9.1482,2.0470,2.4924,0.6869,-0.1876,-1.6129,-58.3500,10.5000,11.4000,-3.8000,-2.3000,-4.9700,-0.9785,3.2714,-2.3049,54.0000,24.5625,17.1875,338.4375,-73.8750,174.5625,0
1776973761.299,4.0414,-3.6224,4.2665,0.8295,-1.9103,-2.3100,-73.9500,-0.3000,19.2000,9.1482,2.0470,2.4924,0.6869,-0.1876,-1.6129,-55.6500,11.4000,11.8500,-4.2000,-2.7400,-5.4700,-0.8399,3.3914,-2.7064,54.0000,24.5625,17.1875,339.3750,-71.8125,170.9375,0
1776973761.304,4.0414,-3.6224,4.2665,0.8295,-1.9103,-2.3100,-73.9500,-0.3000,19.2000,8.5305,1.7406,2.3032,0.8450,-0.0999,-1.4909,-55.6500,11.4000,11.8500,-4.2000,-2.7400,-5.4700,-0.8399,3.3914,-2.7064,54.0000,24.5625,17.1875,340.7500,-69.5000,167.6250,0
1776973761.311,5.0206,-3.5195,3.9193,1.1141,-2.0328,-2.4816,-74.5500,2.4000,15.3000,7.7788,1.5586,2.0111,0.9630,-0.0967,-1.3422,-55.8000,11.2500,12.0000,-4.6100,-2.5200,-5.7700,-0.6349,3.6205,-3.0347,54.0000,24.5625,17.1875,342.4375,-67.0000,164.8750,0
1776973761.321,5.9711,-3.1939,3.8355,1.3110,-2.1941,-2.6313,-74.5500,2.4000,15.3000,7.4699,1.0894,2.0423,1.0421,-0.1593,-1.2007,-55.8000,10.5000,12.0000,-4.5400,-2.3500,-6.2400,-0.4778,3.8757,-3.2049,54.0000,24.5625,17.1875,342.4375,-67.0000,164.8750,0
1776973761.326,5.9711,-3.1939,3.8355,1.3110,-2.1941,-2.6313,-74.5500,2.4000,15.3000,7.4699,1.0894,2.0423,1.0421,-0.1593,-1.2007,-55.8000,10.5000,12.0000,-4.5400,-2.3500,-6.2400,-0.4778,3.8757,-3.2049,54.0000,24.5625,17.1875,342.4375,-67.0000,164.8750,0
1776973761.331,6.7229,-3.1580,4.1827,1.4258,-2.2812,-2.7584,-76.0500,6.7500,14.5500,7.2233,0.5698,1.6807,1.2372,-0.0759,-1.0632,-55.5000,12.3000,10.6500,-5.0100,-2.4400,-6.5400,-0.3207,4.0917,-3.2790,52.0000,26.5625,26.5625,344.4375,-64.3125,162.5625,0
1776973761.336,7.4843,-3.4788,3.9959,1.4258,-2.2812,-2.7584,-76.0500,6.7500,14.5500,7.2233,0.5698,1.6807,1.2372,-0.0759,-1.0632,-55.5000,12.3000,10.6500,-5.0100,-2.4400,-6.5400,-0.3207,4.0917,-3.2790,52.0000,26.5625,26.5625,344.4375,-64.3125,162.5625,0
1776973761.341,7.4843,-3.4788,3.9959,1.2822,-2.3950,-2.9122,-76.6500,8.5500,12.4500,7.0844,0.4573,1.5706,1.4368,-0.0168,-0.9084,-55.2000,12.7500,12.0000,-5.4300,-2.5900,-6.9200,-0.1909,4.2444,-3.2638,52.0000,26.5625,26.5625,346.6875,-61.5000,160.7500,0
1776973761.346,7.9224,-4.0893,3.5410,1.2822,-2.3950,-2.9122,-76.6500,8.5500,12.4500,7.0844,0.4573,1.5706,1.4368,-0.0168,-0.9084,-55.2000,12.7500,12.0000,-5.4300,-2.5900,-6.9200,-0.0949,4.3655,-3.1536,52.0000,26.5625,26.5625,349.1250,-58.6250,159.3750,0
1776973761.352,7.9224,-4.0893,3.5410,1.0531,-2.5556,-3.0510,-76.2000,9.0000,11.8500,6.9360,0.2705,1.5227,1.7464,0.1569,-0.7757,-55.2000,12.7500,12.0000,-6.8600,-2.3100,-7.7600,-0.0949,4.3655,-3.1536,52.0000,26.5625,26.5625,351.7500,-55.6875,158.3750,0
1776973761.361,7.9918,-4.1587,3.6679,0.8074,-2.6867,-3.2133,-76.2000,10.5000,10.3500,6.9935,-0.0646,1.5012,1.8666,0.1780,-0.6552,-54.4500,12.3000,12.0000,-6.9100,-1.9600,-7.7100,0.0055,4.5019,-2.9660,52.0000,26.5625,26.5625,354.6250,-52.7500,157.7500,0
1776973761.371,8.6287,-4.4173,3.3567,0.6118,-2.7888,-3.3723,-75.3000,11.4000,8.7000,7.1084,-0.5291,1.1779,1.9502,0.2246,-0.5361,-53.7000,12.7500,10.6500,-6.6700,-1.3800,-7.6100,0.1505,4.6851,-2.7009,52.0000,26.5625,26.5625,354.6250,-52.7500,157.7500,0
1776973761.376,9.0549,-5.0518,3.0789,0.6137,-2.9268,-3.4336,-75.3000,11.4000,8.7000,7.1084,-0.5291,1.1779,1.9502,0.2246,-0.5361,-53.7000,12.7500,10.6500,-6.6700,-1.3800,-7.6100,0.1505,4.6851,-2.7009,47.0625,36.2500,45.7500,357.8125,-49.8125,157.3125,0
1776973761.381,9.0549,-5.0518,3.0789,0.6137,-2.9268,-3.4336,-75.6000,15.0000,7.2000,6.6631,-0.6440,1.0151,1.8967,0.1284,-0.3821,-54.4500,10.0500,8.1000,-6.7000,-1.0300,-7.9300,0.3556,4.7833,-2.3616,47.0625,36.2500,45.7500,357.8125,-49.8125,157.3125,0
1776973761.386,9.5505,-4.8602,2.1763,0.7338,-2.9199,-3.3747,-75.6000,15.0000,7.2000,6.6631,-0.6440,1.0151,1.8967,0.1284,-0.3821,-54.4500,10.0500,8.1000,-6.7000,-1.0300,-7.9300,0.3556,4.7833,-2.3616,47.0625,36.2500,45.7500,357.8125,-49.8125,157.3125,0
1776973761.391,9.5505,-4.8602,2.1763,0.7338,-2.9199,-3.3747,-75.6000,15.0000,7.2000,7.4723,-0.8978,0.3926,1.8775,0.1053,-0.2713,-53.1000,10.2000,9.0000,-7.5900,-2.0500,-8.6500,0.6218,4.7178,-1.9482,47.0625,36.2500,45.7500,1.3125,-46.9375,156.9375,0
1776973761.399,10.1969,-5.0111,2.3080,0.5550,-2.9282,-3.3313,-73.8000,16.9500,4.5000,7.3454,-1.2881,-0.1149,1.8157,-0.0365,-0.1812,-53.1000,10.2000,9.0000,-8.0400,-2.7700,-8.9800,0.8672,4.5128,-1.4977,47.0625,36.2500,45.7500,5.0000,-44.3125,156.6875,0
1776973761.404,10.3932,-5.5761,3.1173,0.0645,-3.0118,-3.3849,-73.8000,16.9500,4.5000,7.3454,-1.2881,-0.1149,1.8157,-0.0365,-0.1812,-53.1000,10.2000,9.0000,-8.0400,-2.7700,-8.9800,0.8672,4.5128,-1.4977,47.0625,36.2500,45.7500,8.8125,-41.9375,156.5000,0
1776973761.412,10.3932,-5.5761,3.1173,0.0645,-3.0118,-3.3849,-72.3000,18.4500,2.7000,7.5106,-1.3671,-0.6560,1.5609,-0.1887,-0.1122,-52.0500,9.1500,7.2000,-8.6700,-3.6200,-9.6900,0.9905,4.2531,-1.1017,47.0625,36.2500,45.7500,12.6875,-39.6875,156.3125,0
1776973761.421,8.2504,-6.3446,4.3910,-0.5652,-2.8096,-3.4582,-70.5000,18.7500,2.5500,7.4340,-1.6424,-1.1301,1.3752,-0.2100,-0.0919,-53.4000,8.5500,7.0500,-10.5800,-4.6400,-11.6000,1.0276,4.0143,-0.8388,47.0625,36.2500,45.7500,12.6875,-39.6875,156.3125,0
1776973761.426,9.7923,-5.8203,4.8315,-1.0893,-2.7955,-3.4579,-70.5000,18.7500,2.5500,7.4340,-1.6424,-1.1301,1.0219,-0.3168,-0.0538,-53.4000,8.5500,7.0500,-10.5800,-4.6400,-11.6000,1.0276,4.0143,-0.8388,47.0625,36.2500,45.7500,321.3750,-37.5000,156.1250,0
1776973761.431,9.7923,-5.8203,4.8315,-1.0893,-2.7955,-3.4579,-70.9500,21.4500,2.5500,7.1778,-1.2737,-1.4222,1.0219,-0.3168,-0.0538,-50.5500,7.6500,7.6500,-11.0900,-4.8500,-12.0500,1.0974,3.9674,-0.7985,13.0000,43.8750,63.0625,321.3750,-37.5000,156.1250,0
1776973761.436,10.6039,-4.8698,4.3838,-1.5039,-2.8493,-3.4848,-70.9500,21.4500,2.5500,6.7205,-0.6536,-1.5323,0.6448,-0.3115,0.0274,-51.0000,6.9000,6.4500,-11.0900,-4.8500,-12.0500,1.0974,3.9674,-0.7985,13.0000,43.8750,63.0625,321.5625,-35.3125,155.8750,0
1776973761.441,10.3549,-3.9002,3.2202,-1.5039,-2.8493,-3.4848,-70.2000,22.9500,-0.6000,6.7205,-0.6536,-1.5323,0.6448,-0.3115,0.0274,-51.0000,6.9000,6.4500,-11.0100,-4.7500,-11.9300,1.0974,3.9674,-0.7985,13.0000,43.8750,63.0625,321.5625,-35.3125,155.8750,0
1776973761.446,10.3549,-3.9002,3.2202,-1.6342,-2.7089,-3.5333,-70.2000,22.9500,-0.6000,6.8977,-0.3065,-1.7502,0.2388,-0.2643,0.0655,-51.0000,6.9000,6.4500,-11.0100,-4.7500,-11.9300,1.2152,4.1081,-0.8912,13.0000,43.8750,63.0625,321.7500,-33.0625,155.5000,0
1776973761.452,10.3621,-2.6767,2.3032,-1.4623,-2.6732,-3.5903,-68.4000,22.8000,0.4500,6.8977,-0.3065,-1.7502,0.2388,-0.2643,0.0655,-51.0000,6.9000,6.4500,-10.4500,-4.7400,-10.8600,1.2152,4.1081,-0.8912,13.0000,43.8750,63.0625,321.9375,-30.6875,155.0625,0
1776973761.461,9.1530,-1.8842,2.3655,-1.4623,-2.6732,-3.5903,-68.4000,22.8000,0.4500,7.1084,-0.0048,-1.7358,-0.1420,-0.2982,0.1140,-51.0000,6.9000,6.4500,-10.9700,-5.3700,-9.8700,1.3941,4.2095,-0.9425,13.0000,43.8750,63.0625,321.9375,-30.6875,155.0625,0
1776973761.471,8.5281,-1.2857,2.5139,-0.9244,-2.3883,-3.6553,-65.2500,25.0500,-0.6000,7.1491,0.4621,-1.5897,-0.5812,-0.3523,0.1687,-52.9500,7.0500,4.5000,-9.2500,-5.8200,-10.5000,1.5621,4.2510,-0.9239,13.0000,43.8750,63.0625,322.1250,-28.3750,154.5000,0
1776973761.476,8.5281,-1.2857,2.5139,-0.9244,-2.3883,-3.6553,-65.2500,25.0500,-0.6000,7.3382,0.7781,-1.3479,-0.9894,-0.3408,0.1972,-51.4500,5.5500,6.3000,-9.2500,-5.8200,-10.5000,1.5621,4.2510,-0.9239,13.0000,43.8750,63.0625,322.1250,-28.3750,154.5000,0
1776973761.481,9.6702,-1.2689,3.2513,-0.8489,-2.4424,-3.6058,-65.2500,25.0500,-0.6000,7.3382,0.7781,-1.3479,-0.9894,-0.3408,0.1972,-51.4500,5.5500,6.3000,-12.4000,-5.6300,-11.5700,1.6864,4.0383,-1.0123,-17.3750,38.3750,37.6875,322.3125,-26.0625,153.8125,0
1776973761.486,9.6702,-1.2689,3.2513,-0.8489,-2.4424,-3.6058,-65.2500,25.0500,-0.6000,7.5058,1.1109,-1.2450,-1.3507,-0.1775,0.2028,-53.7000,7.0500,7.0500,-12.4000,-5.6300,-11.5700,1.6864,4.0383,-1.0123,-17.3750,38.3750,37.6875,322.3125,-26.0625,153.8125,0
1776973761.491,10.1873,-1.6209,3.0574,-0.9121,-2.4051,-3.5088,-63.0000,26.1000,-2.5500,7.5058,1.1109,-1.2450,-1.3507,-0.1775,0.2028,-53.7000,7.0500,7.0500,-10.6900,-5.1700,-11.1200,1.8391,4.2324,-1.2708,-17.3750,38.3750,37.6875,322.3750,-23.6875,153.0000,0
1776973761.499,10.1873,-1.6209,3.0574,-0.9121,-2.4051,-3.5088,-63.0000,26.1000,-2.5500,7.7189,1.7957,-1.0534,-1.6518,-0.1647,0.2137,-53.7000,9.0000,8.1000,-10.2600,-4.9400,-11.0600,1.8860,4.1081,-1.4901,-17.3750,38.3750,37.6875,322.2500,-21.2500,152.0625,0
1776973761.503,10.5752,-1.5754,2.8850,-1.0821,-2.2428,-3.4030,-62.5500,26.5500,-1.3500,7.7189,1.7957,-1.0534,-1.9369,-0.0717,0.2846,-53.7000,9.0000,8.1000,-10.2600,-4.9400,-11.0600,1.8860,4.1081,-1.4901,-17.3750,38.3750,37.6875,322.1250,-18.8750,151.0625,0
1776973761.512,10.8386,-1.2091,2.9712,-1.2052,-2.1938,-3.2988,-61.2000,29.1000,-3.0000,7.6878,2.2793,-0.8787,-1.9369,-0.0717,0.2846,-53.7000,9.0000,8.1000,-10.1000,-4.6700,-11.0900,1.9340,4.0295,-1.6450,-17.3750,38.3750,37.6875,321.8750,-16.5000,150.1250,0
1776973761.522,10.6374,-0.7949,2.3511,-1.3390,-2.1850,-3.2037,-60.3000,30.4500,-2.5500,7.9272,3.2777,-1.1588,-2.0062,-0.1372,0.3176,-54.3000,10.9500,10.5000,-10.2100,-3.9100,-10.9400,1.9002,3.9335,-1.7159,-17.3750,38.3750,37.6875,321.8750,-16.5000,150.1250,0
1776973761.526,10.6374,-0.7949,2.3511,-1.3390,-2.1850,-3.2037,-60.3000,30.4500,-2.5500,8.1594,4.5298,-1.3240,-2.0051,-0.0914,0.3075,-54.7500,10.5000,10.6500,-10.2100,-3.9100,-10.9400,1.9002,3.9335,-1.7159,-17.3750,38.3750,37.6875,321.6250,-14.1875,149.1250,0
1776973761.532,10.2161,-0.4166,2.0925,-1.3678,-2.1783,-3.1205,-60.3000,30.4500,-2.5500,8.1594,4.5298,-1.3240,-2.0051,-0.0914,0.3075,-54.7500,10.5000,10.6500,-10.6200,-3.4300,-10.7200,1.8555,3.8081,-1.6973,-8.0625,31.5000,18.5000,321.6250,-14.1875,149.1250,0
1776973761.536,10.2161,-0.4166,2.0925,-1.3678,-2.1783,-3.1205,-60.3000,30.4500,-2.5500,8.4635,5.9759,-1.8914,-1.9265,0.0365,0.2713,-55.6500,13.9500,9.7500,-10.6200,-3.4300,-10.7200,1.8555,3.8081,-1.6973,-8.0625,31.5000,18.5000,321.4375,-12.0000,148.1875,0
1776973761.541,9.8665,-0.0838,1.7454,-1.3022,-2.0552,-2.9825,-58.6500,31.0500,-2.7000,8.4635,5.9759,-1.8914,-1.9265,0.0365,0.2713,-55.6500,13.9500,9.7500,-10.9200,-2.8000,-10.3300,1.8173,3.7023,-1.6133,-8.0625,31.5000,18.5000,321.4375,-12.0000,148.1875,0
1776973761.546,9.8665,-0.0838,1.7454,-1.3022,-2.0552,-2.9825,-58.6500,31.0500,-2.7000,8.4970,7.3526,-2.1955,-1.6241,0.0818,0.2502,-54.4500,11.5500,11.7000,-10.9200,-2.8000,-10.3300,1.7781,3.5856,-1.4813,-8.0625,31.5000,18.5000,321.3125,-9.8750,147.3125,0
1776973761.552,9.5385,0.0790,1.2306,-1.2505,-1.9025,-2.7837,-58.6500,31.0500,-2.7000,9.0932,8.4108,-2.2841,-1.5457,0.1839,0.2526,-54.4500,11.5500,11.7000,-11.2000,-2.1800,-9.7700,1.7781,3.5856,-1.4813,-8.0625,31.5000,18.5000,321.2500,-7.8750,146.3750,0
1776973761.562,9.3541,0.1556,1.0247,-1.1780,-1.7171,-2.5426,-56.8500,34.8000,-4.8000,9.0932,8.4108,-2.2841,-1.6225,0.1258,0.2686,-54.4500,11.5500,11.7000,-11.8600,-1.1100,-8.1200,1.7388,3.4339,-1.3003,-8.0625,31.5000,18.5000,321.2500,-6.0625,145.5000,0
1776973761.572,9.1004,0.2825,0.6752,-1.1564,-1.4909,-2.2559,-57.0000,34.5000,-5.7000,9.4499,8.5281,-1.7358,-1.4661,0.2968,0.2718,-56.1000,11.4000,15.7500,-12.4600,-0.5300,-7.0800,1.7039,3.2310,-1.0930,-8.0625,31.5000,18.5000,321.2500,-6.0625,145.5000,0
1776973761.576,9.0166,0.1365,0.7470,-1.1564,-1.4909,-2.2559,-57.0000,34.5000,-5.7000,9.4499,8.5281,-1.7358,-1.4661,0.2968,0.2718,-54.7500,13.0500,14.5500,-12.4600,-0.5300,-7.0800,1.7039,3.2310,-1.0930,-8.0625,31.5000,18.5000,321.3125,-4.4375,144.6250,0
1776973761.582,9.0166,0.1365,0.7470,-1.2377,-1.2676,-1.9444,-56.5500,35.5500,-4.8000,9.8785,8.5377,-1.6903,-1.1221,0.3174,0.3992,-54.7500,13.0500,14.5500,-13.1000,0.0400,-6.0400,1.6450,2.9518,-0.8650,-1.2500,31.5000,21.1875,321.3125,-4.4375,144.6250,0
1776973761.586,8.5545,-0.3017,0.9002,-1.2484,-0.9952,-1.5668,-56.5500,35.5500,-4.8000,9.8785,8.5377,-1.6903,-1.1221,0.3174,0.3992,-54.7500,11.2500,17.4000,-13.1000,0.0400,-6.0400,1.6450,2.9518,-0.8650,-1.2500,31.5000,21.1875,321.4375,-3.0625,143.8125,0
1776973761.592,8.5545,-0.3017,0.9002,-1.2484,-0.9952,-1.5668,-56.1000,36.3000,-4.8000,9.8904,8.6622,-1.5826,-0.7554,0.2745,0.3629,-54.7500,11.2500,17.4000,-15.5600,1.5600,-4.5200,1.5653,2.6060,-0.6327,-1.2500,31.5000,21.1875,321.4375,-3.0625,143.8125,0
1776973761.601,7.7716,-0.5387,0.7973,-1.2079,-0.6893,-1.1237,-55.0500,35.1000,-4.8000,9.1435,8.8633,-1.8986,-0.4429,0.3048,0.2374,-55.6500,10.9500,17.8500,-17.0800,2.4900,-3.5000,1.4672,2.2700,-0.4200,-1.2500,31.5000,21.1875,321.6250,-1.9375,143.0625,0
1776973761.609,6.7325,-0.6776,0.3735,-1.1596,-0.3040,-0.6185,-55.0500,35.1000,-4.8000,9.1435,8.8633,-1.8986,-0.4429,0.3048,0.2374,-56.2500,10.0500,18.1500,-18.0400,3.3600,-2.0900,1.3199,1.9428,-0.2073,-1.2500,31.5000,21.1875,321.9375,-1.0000,142.3125,0
1776973761.614,6.2345,-0.4956,0.3903,-1.1596,-0.3040,-0.6185,-55.9500,34.9500,-4.9500,9.5816,9.3254,-2.4349,-0.0653,0.3968,0.1143,-56.2500,10.0500,18.1500,-18.0400,3.3600,-2.0900,1.3199,1.9428,-0.2073,-1.2500,31.5000,21.1875,322.2500,-0.3125,141.6875,0
1776973761.622,6.2345,-0.4956,0.3903,-1.0651,0.1130,-0.0855,-55.9500,34.9500,-4.9500,9.9240,9.6295,-3.5626,0.2928,0.3453,0.2057,-56.2500,10.0500,18.1500,-19.2400,4.8800,0.4900,1.1323,1.5326,0.0425,-1.2500,31.5000,21.1875,322.2500,-0.3125,141.6875,0
1776973761.627,6.3446,-0.0646,1.0463,-0.9334,0.5092,0.4229,-55.9500,34.9500,-4.9500,9.9240,9.6295,-3.5626,0.2928,0.3453,0.2057,-56.4000,10.6500,21.1500,-19.2400,4.8800,0.4900,1.1323,1.5326,0.0425,-1.2500,31.5000,21.1875,322.6250,0.0000,141.1875,0
1776973761.632,6.3446,-0.0646,1.0463,-0.9334,0.5092,0.4229,-55.9500,36.1500,-4.2000,9.2105,10.1801,-4.0414,0.5899,0.3720,0.2814,-56.4000,10.6500,21.1500,-19.3700,5.1500,1.0600,0.9348,0.9774,0.3371,-2.6875,35.0625,24.5000,322.6250,0.0000,141.1875,0
1776973761.637,6.6942,-0.4046,1.4437,-0.6752,0.8364,0.8593,-55.9500,36.1500,-4.2000,9.2105,10.1801,-4.0414,0.5899,0.3720,0.2814,-56.4000,9.4500,20.7000,-19.3700,5.1500,1.0600,0.9348,0.9774,0.3371,-2.6875,35.0625,24.5000,322.6250,0.0000,141.1875,0
1776973761.642,6.6942,-0.4046,1.4437,-0.6752,0.8364,0.8593,-56.1000,36.0000,-4.0500,8.9902,8.9735,-3.3782,0.8319,0.3357,0.3371,-56.4000,9.4500,20.7000,-19.0000,4.5900,1.0100,0.7134,0.3174,0.6327,-2.6875,35.0625,24.5000,323.0000,-0.1250,140.7500,0
1776973761.649,7.8697,0.4070,3.5482,-0.1234,1.2132,1.1423,-56.1000,36.0000,-4.0500,8.9902,8.9735,-3.3782,0.8226,0.3579,0.4796,-56.2500,10.0500,22.0500,-18.3300,3.0100,0.3500,0.0436,-0.3502,0.6981,-2.6875,35.0625,24.5000,323.3750,-0.5000,140.7500,0
1776973761.654,11.3701,4.1468,1.2953,0.1801,1.2958,1.1855,-56.5500,32.4000,-2.5500,9.0094,7.1132,-1.9369,0.8226,0.3579,0.4796,-56.5500,8.5500,21.3000,-18.3300,3.0100,0.3500,0.0436,-0.3502,0.6981,-2.6875,35.0625,24.5000,323.3750,-1.7500,142.5625,0
1776973761.662,11.3701,4.1468,1.2953,0.1801,1.2958,1.1855,-56.5500,34.0500,-0.3000,7.8506,5.0781,-0.1197,0.5071,1.5071,0.6648,-56.5500,8.5500,21.3000,2.6400,-3.8400,-7.3600,-3.3227,-2.1413,0.8781,-2.6875,35.0625,24.5000,323.6875,-3.4375,144.8125,0
1776973761.672,13.6996,7.3741,-4.0773,-0.3997,0.8191,0.9174,-55.8000,31.6500,-0.6000,9.8689,3.4477,0.6153,-0.0935,1.0920,0.8617,-56.5500,8.5500,21.3000,-4.4300,-1.5000,-12.7400,-4.0044,-2.6671,1.5392,-2.6875,35.0625,24.5000,323.6875,-3.4375,144.8125,0
1776973761.677,13.1921,9.4954,-6.1028,-0.5260,0.3930,0.2910,-55.8000,31.6500,-0.6000,9.8689,3.4477,0.6153,-0.0935,1.0920,0.8617,-56.1000,8.7000,20.7000,-4.4300,-1.5000,-12.7400,-4.0044,-2.6671,1.5392,-2.6875,35.0625,24.5000,323.8125,-4.6875,146.5000,0
1776973761.682,9.9910,7.3646,-4.4963,-0.5260,0.3930,0.2910,-55.8000,31.9500,0.6000,8.3175,2.4493,1.4150,-0.5529,0.6987,0.9310,-56.1000,8.7000,20.7000,1.3800,-13.7700,-11.2200,-3.1143,-2.1108,0.9174,-3.5625,36.5000,23.3750,323.8125,-4.6875,146.5000,0
1776973761.687,9.9910,7.3646,-4.4963,0.8410,0.1154,-0.0341,-55.8000,31.9500,0.6000,8.3175,2.4493,1.4150,-0.5529,0.6987,0.9310,-56.4000,6.9000,21.4500,1.3800,-13.7700,-11.2200,-3.1143,-2.1108,0.9174,-3.5625,36.5000,23.3750,324.3750,-6.1250,148.1250,0
1776973761.692,7.3382,1.5323,-4.1851,0.8410,0.1154,-0.0341,-55.8000,31.9500,0.6000,8.0780,2.1476,0.7446,-0.7674,0.5143,0.9459,-56.4000,6.9000,21.4500,0.3200,-0.4800,-4.1900,-2.9038,-1.9537,1.7791,-3.5625,36.5000,23.3750,324.3750,-6.1250,148.1250,0
1776973761.700,7.3382,1.5323,-4.1851,1.9764,0.3555,0.2049,-55.8000,31.9500,0.6000,9.1387,3.1364,-0.6943,-0.1063,0.6672,1.1642,-59.1000,8.2500,21.6000,-3.4200,6.5600,-8.1600,-3.1678,-2.3824,2.0977,-3.5625,36.5000,23.3750,325.0625,-7.8750,149.9375,0
1776973761.705,11.0181,-0.5794,-7.1204,2.3046,0.5180,0.5780,-55.3500,33.1500,0.0000,9.1387,3.1364,-0.6943,-0.1063,0.6672,1.1642,-58.6500,9.1500,20.7000,-3.4200,6.5600,-8.1600,-3.1678,-2.3824,2.0977,-3.5625,36.5000,23.3750,325.2500,-9.3750,151.1250,0
1776973761.712,14.1737,1.3168,-6.2584,1.5577,0.2934,0.7461,-55.3500,33.1500,0.0000,12.0835,3.1651,-2.3798,1.1359,0.8817,1.5716,-59.7000,10.2000,22.9500,-3.9500,4.2700,-11.3000,-2.1195,-2.4424,1.1443,-3.5625,36.5000,23.3750,325.1250,-10.6875,151.6250,0
1776973761.722,13.0005,0.8571,-4.8794,0.8583,0.8292,0.8479,-57.0000,31.5000,-0.1500,14.6717,2.4229,-4.0247,2.2676,0.6920,1.8687,-59.7000,10.2000,22.9500,-1.1400,0.8300,-10.9400,-1.0505,-2.4402,0.5061,-3.5625,36.5000,23.3750,325.1250,-10.6875,151.6250,0
1776973761.727,13.0005,0.8571,-4.8794,0.8583,0.8292,0.8479,-57.0000,31.5000,-0.1500,17.1712,1.5347,-4.3814,3.5061,0.7213,1.8868,-59.7000,10.2000,22.9500,-1.1400,0.8300,-10.9400,-1.0505,-2.4402,0.5061,-3.5625,36.5000,23.3750,325.1250,-10.6875,151.6250,0
1776973761.732,14.5448,-0.8356,-2.7940,0.9006,0.6566,0.9395,-57.0000,31.5000,-0.1500,17.1712,1.5347,-4.3814,3.5061,0.7213,1.8868,-59.5500,11.2500,22.3500,-3.7100,7.6300,-14.0900,-0.7614,-2.8198,0.9207,0.7500,34.2500,27.1875,325.1875,-12.3125,152.0000,0
1776973761.737,14.5448,-0.8356,-2.7940,0.9006,0.6566,0.9395,-57.9000,30.6000,-0.1500,18.3731,1.3599,-4.0031,4.0875,0.4157,1.6811,-59.5500,11.2500,22.3500,-3.7100,7.6300,-14.0900,-0.7614,-2.8198,0.9207,0.7500,34.2500,27.1875,325.1875,-12.3125,152.0000,0
1776973761.742,13.8122,-2.3583,-0.0024,0.7312,0.8535,1.0280,-57.6000,30.4500,-2.1000,18.3731,1.3599,-4.0031,4.0875,0.4157,1.6811,-60.3000,9.0000,21.6000,-7.5800,5.7500,-15.8800,-0.4941,-3.1132,1.4595,0.7500,34.2500,27.1875,325.5625,-14.1875,152.2500,0
1776973761.747,13.8122,-2.3583,-0.0024,0.7312,0.8535,1.0280,-57.6000,30.4500,-2.1000,17.1257,1.1995,-3.0742,3.8205,0.1583,1.2668,-60.3000,9.0000,21.6000,-7.5800,5.7500,-15.8800,-0.3033,-2.9191,1.7486,0.7500,34.2500,27.1875,326.1250,-16.0625,152.4375,0
1776973761.753,12.7539,-0.3376,3.7445,0.6427,1.2116,1.0539,-58.0500,30.4500,-1.3500,17.1257,1.1995,-3.0742,3.8205,0.1583,1.2668,-58.2000,7.6500,21.9000,-9.8800,-1.6800,-14.3200,-0.3033,-2.9191,1.7486,0.7500,34.2500,27.1875,326.7500,-17.8125,152.7500,0
1776973761.762,11.9159,3.8499,4.3048,0.8948,1.3800,1.0312,-58.0500,30.4500,-1.3500,13.9965,0.7470,-1.4820,2.9711,0.1300,0.7488,-57.9000,4.6500,21.4500,-14.6400,-19.1300,-10.8800,-0.4887,-2.5667,1.7748,0.7500,34.2500,27.1875,327.1875,-19.0625,153.3125,0
1776973761.772,11.7244,5.0757,1.4174,1.5215,1.1194,1.0280,-58.0500,30.4500,-1.3500,10.3597,-0.0024,-0.9888,1.6776,0.8242,0.2854,-57.9000,4.6500,21.4500,-8.6100,-9.0600,-8.3000,-0.8138,-1.7879,1.4301,0.7500,34.2500,27.1875,327.1875,-19.0625,153.3125,0
1776973761.777,11.7244,5.0757,1.4174,1.5215,1.1194,1.0280,-58.2000,30.6000,-0.9000,5.2026,-1.1133,0.0646,0.1767,0.7560,0.0557,-57.9000,4.6500,21.4500,-8.6100,-9.0600,-8.3000,-0.8138,-1.7879,1.4301,0.7500,34.2500,27.1875,327.1875,-19.0625,153.3125,0
1776973761.782,10.2879,4.1803,1.7980,1.8570,0.8298,0.9875,-58.2000,30.6000,-0.9000,5.2026,-1.1133,0.0646,0.1767,0.7560,0.0557,-55.2000,-2.5500,23.4000,-5.4500,1.0700,-10.9000,-0.8923,-1.4792,1.1432,7.5625,32.0625,28.5000,327.5625,-20.0625,153.8750,0
1776973761.787,10.2879,4.1803,1.7980,1.8570,0.8298,0.9875,-58.2000,30.6000,-0.9000,6.5697,-3.2082,-1.3886,-1.8684,0.5745,0.1700,-55.2000,-2.5500,23.4000,-5.4500,1.0700,-10.9000,-0.8923,-1.4792,1.1432,7.5625,32.0625,28.5000,327.5625,-20.0625,153.8750,0
1776973761.792,8.3342,0.7829,3.1053,1.4285,0.6683,0.8362,-58.2000,30.6000,-0.9000,6.5697,-3.2082,-1.3886,-1.8684,0.5745,0.1700,-55.8000,-3.7500,23.8500,-4.3900,-4.1900,-8.4000,-0.7614,-1.1737,1.0461,7.5625,32.0625,28.5000,327.9375,-20.8750,154.3750,0
1776973761.801,8.1092,-2.8084,3.3160,1.0267,0.7906,0.7733,-58.9500,27.9000,-2.4000,6.8091,-5.8179,3.9121,-2.2508,0.6078,0.0192,-56.1000,-2.7000,22.9500,-4.2900,-4.8800,-8.2800,-0.8628,-1.0450,0.8923,7.5625,32.0625,28.5000,328.1875,-21.6250,154.9375,0
1776973761.806,8.1092,-2.8084,3.3160,1.0267,0.7906,0.7733,-61.5000,28.5000,-0.3000,7.4172,-6.1938,7.1874,-1.5655,1.5932,-0.3016,-56.1000,-2.7000,22.9500,-4.2900,-4.8800,-8.2800,-0.8628,-1.0450,0.8923,7.5625,32.0625,28.5000,328.4375,-22.3125,155.5000,0
1776973761.813,8.7700,-3.8571,3.3471,0.5241,0.9361,0.8252,-60.7500,27.7500,-1.3500,7.4172,-6.1938,7.1874,-1.5655,1.5932,-0.3016,-59.8500,-2.2500,22.3500,-4.9900,-2.6000,-9.2500,-0.8388,-0.9556,0.7789,7.5625,32.0625,28.5000,328.6250,-22.8750,155.9375,0
1776973761.822,10.4938,-3.0263,2.4325,-0.0314,0.8601,0.7741,-60.7500,27.7500,-1.3500,5.9280,-4.1946,4.6687,-1.2113,1.5532,0.0011,-60.4500,0.9000,20.4000,-5.1900,-4.0700,-8.9700,-0.7483,-0.8127,0.6861,7.5625,32.0625,28.5000,328.6250,-22.8750,155.9375,0
1776973761.827,9.6486,-1.5754,1.5490,-0.3922,0.8298,0.6550,-59.7000,27.4500,-0.9000,6.4428,-2.6887,3.2585,-1.5167,1.1461,0.4647,-60.4500,0.9000,20.4000,-5.1900,-4.0700,-8.9700,-0.7483,-0.8127,0.6861,7.5625,32.0625,28.5000,328.8125,-23.3125,156.3750,0
1776973761.832,9.6486,-1.5754,1.5490,-0.3922,0.8298,0.6550,-59.7000,27.4500,-0.9000,6.4428,-2.6887,3.2585,-1.5167,1.1461,0.4647,-60.4500,0.9000,20.4000,-5.1200,-3.5000,-9.1700,-0.6698,-0.6785,0.5749,12.6875,30.0000,27.6875,328.8125,-23.3125,156.3750,0
1776973761.837,10.2592,0.1963,1.2641,-0.3709,0.8601,0.5801,-60.7500,26.1000,0.6000,8.2073,-2.1117,1.9537,-1.7746,1.0701,0.7213,-60.4500,0.9000,20.4000,-5.1200,-3.5000,-9.1700,-0.6698,-0.6785,0.5749,12.6875,30.0000,27.6875,328.9375,-23.6875,156.7500,0
1776973761.842,10.2592,0.1963,1.2641,-0.3709,0.8601,0.5801,-60.7500,26.1000,0.6000,8.2073,-2.1117,1.9537,-1.6899,0.8122,0.9643,-63.3000,9.4500,20.1000,-5.0600,-2.4200,-9.6300,-0.5814,-0.5389,0.4669,12.6875,30.0000,27.6875,328.9375,-23.6875,156.7500,0
1776973761.849,10.7907,1.4892,1.3096,-0.3094,0.7309,0.5971,-61.2000,27.1500,-0.4500,9.0309,-2.5881,1.1827,-1.6899,0.8122,0.9643,-63.3000,9.4500,20.1000,-5.0200,-2.8500,-9.3600,-0.4701,-0.4451,0.3643,12.6875,30.0000,27.6875,329.0000,-24.0000,157.0625,0
1776973761.854,10.7907,1.4892,1.3096,-0.3094,0.7309,0.5971,-61.2000,27.1500,-0.4500,10.4627,-3.0119,0.7302,-1.1940,0.5740,1.1125,-64.3500,12.1500,19.6500,-5.0200,-2.8500,-9.3600,-0.4701,-0.4451,0.3643,12.6875,30.0000,27.6875,329.0625,-24.2500,157.3125,0
1776973761.862,10.2687,2.1835,1.8723,-0.2582,0.6057,0.6102,-61.2000,27.1500,-0.4500,11.1402,-1.6520,1.5993,-0.4983,0.2627,1.1450,-66.1500,12.9000,18.6000,-4.9300,-2.9600,-8.8600,-0.4363,-0.3862,0.2727,12.6875,30.0000,27.6875,329.1250,-24.4375,157.5625,0
1776973761.872,9.6893,2.9329,1.8771,-0.1935,0.5548,0.6211,-61.2000,26.4000,1.6500,10.9319,0.9529,3.4620,0.2534,0.2142,0.9297,-67.5000,15.0000,18.4500,-4.5700,-2.9800,-8.8800,-0.3316,-0.2291,0.2051,12.6875,30.0000,27.6875,329.1250,-24.4375,157.5625,0
1776973761.877,9.3206,3.2848,1.3264,-0.0336,0.5119,0.6358,-62.7000,26.7000,-0.1500,10.9319,0.9529,3.4620,0.2534,0.2142,0.9297,-67.5000,15.0000,18.4500,-4.5700,-2.9800,-8.8800,-0.3316,-0.2291,0.2051,12.6875,30.0000,27.6875,329.1250,-24.4375,157.5625,0
1776973761.882,9.3206,3.2848,1.3264,-0.0336,0.5119,0.6358,-62.7000,26.7000,-0.1500,10.1203,3.0885,4.7860,0.2206,0.5494,0.6432,-67.5000,15.0000,18.4500,-4.4800,-3.2600,-8.6400,-0.2694,-0.1636,0.1625,16.0000,28.1875,27.2500,329.1875,-24.5625,157.6875,0
1776973761.887,9.4547,3.0981,0.8739,0.2286,0.4903,0.6592,-61.5000,27.7500,-0.6000,10.1203,3.0885,4.7860,0.2206,0.5494,0.6432,-67.5000,15.0000,18.4500,-4.4800,-3.2600,-8.6400,-0.2694,-0.1636,0.1625,16.0000,28.1875,27.2500,329.1875,-24.5625,157.6875,0
1776973761.892,9.4547,3.0981,0.8739,0.2286,0.4903,0.6592,-61.5000,27.7500,-0.6000,9.2799,4.0342,5.4013,0.0309,0.6797,0.5159,-67.3500,16.2000,15.0000,-4.4000,-3.1500,-8.6100,-0.2083,-0.1636,0.1320,16.0000,28.1875,27.2500,329.1875,-24.6875,157.8750,0
1776973761.901,9.3805,2.4014,0.6536,0.4557,0.4695,0.6619,-62.2500,27.0000,2.1000,8.7939,4.4891,4.7836,-0.3227,0.5718,0.4453,-67.8000,13.8000,15.6000,-4.1400,-3.2300,-8.4900,-0.2029,-0.0818,0.0993,16.0000,28.1875,27.2500,329.1875,-24.7500,158.0000,0
1776973761.905,9.2225,1.7957,0.7494,0.4836,0.5071,0.6360,-62.5500,27.3000,1.8000,8.7939,4.4891,4.7836,-0.3227,0.5718,0.4453,-67.8000,13.8000,15.6000,-4.1400,-3.2300,-8.4900,-0.2029,-0.0818,0.0993,16.0000,28.1875,27.2500,329.2500,-24.8125,158.0625,0
1776973761.913,9.5002,1.4844,0.9553,0.4836,0.5071,0.6360,-62.5500,27.3000,1.8000,8.9519,4.3934,3.5985,-0.7757,0.6763,0.4114,-68.7000,15.9000,17.5500,-4.0600,-3.3200,-8.3800,-0.1876,-0.0578,0.0829,16.0000,28.1875,27.2500,329.2500,-24.8125,158.1875,0
1776973761.923,9.2560,1.3623,0.7590,0.0045,0.4916,0.6217,-62.7000,25.5000,1.6500,8.7771,4.1946,2.4421,-1.0480,0.8013,0.4223,-68.1000,16.9500,17.5500,-4.0300,-3.2900,-8.3200,-0.1756,-0.0513,0.0818,16.0000,28.1875,27.2500,329.2500,-24.8125,158.1875,0
1776973761.927,9.2560,1.3623,0.7590,0.0045,0.4916,0.6217,-62.7000,25.5000,1.6500,8.7771,4.1946,2.4421,-1.0480,0.8013,0.4223,-68.1000,16.9500,17.5500,-4.0300,-3.2900,-8.3200,-0.1756,-0.0513,0.0818,16.2500,27.8750,28.0625,329.2500,-24.8750,158.3125,0
1776973761.933,9.0668,1.5107,0.5076,-0.4056,0.5345,0.6464,-62.7000,25.5000,1.6500,8.9304,3.6895,1.6281,-1.0190,0.9206,0.4599,-68.1000,16.9500,17.5500,-3.9800,-3.4200,-8.2000,-0.1724,-0.0491,0.0807,16.2500,27.8750,28.0625,329.2500,-24.8750,158.3125,0
1776973761.938,9.0668,1.5107,0.5076,-0.4056,0.5345,0.6464,-63.4500,25.5000,1.6500,8.9304,3.6895,1.6281,-1.0190,0.9206,0.4599,-68.1000,16.9500,17.5500,-3.9800,-3.4200,-8.2000,-0.1724,-0.0491,0.0807,16.2500,27.8750,28.0625,329.3125,-24.9375,158.4375,0
1776973761.943,8.9663,2.0710,0.1604,-0.7229,0.5817,0.6891,-63.4500,25.5000,1.6500,9.2560,3.2178,0.7853,-0.7933,1.0405,0.4919,-68.1000,16.9500,17.5500,-3.9100,-3.3900,-8.1800,-0.1898,-0.0480,0.0851,16.2500,27.8750,28.0625,329.3125,-24.9375,158.4375,0
1776973761.949,8.9663,2.0710,0.1604,-0.7229,0.5817,0.6891,-63.4500,25.5000,1.6500,9.3039,2.1500,-0.0239,-0.5641,1.1024,0.4794,-70.3500,19.8000,23.4000,-3.8400,-3.3500,-8.1600,-0.2040,-0.0567,0.0938,16.2500,27.8750,28.0625,329.3125,-24.9375,158.5625,0
1776973761.954,9.0501,2.8132,-0.2131,-0.9041,0.6110,0.7288,-62.7000,24.7500,1.9500,9.3039,2.1500,-0.0239,-0.5641,1.1024,0.4794,-70.3500,19.8000,23.4000,-3.8400,-3.3500,-8.1600,-0.2040,-0.0567,0.0938,16.2500,27.8750,28.0625,329.3125,-25.0000,158.6875,0
1776973761.963,8.9567,3.2825,-0.2011,-0.9270,0.5670,0.7863,-62.7000,24.7500,1.9500,9.2105,1.9704,-2.3176,-0.8082,1.1658,0.5031,-71.5500,19.5000,25.6500,-3.8500,-3.2800,-8.1700,-0.2214,-0.0698,0.1091,16.2500,27.8750,28.0625,329.3750,-25.0625,158.8750,0
1776973761.973,9.0932,3.3710,-0.1987,-0.8964,0.5809,0.7917,-63.9000,23.5500,3.0000,9.4786,0.1341,-1.1995,-0.6739,1.4109,0.3022,-71.8500,20.5500,28.5000,-3.7600,-3.2900,-8.1400,-0.2487,-0.0753,0.1189,16.2500,27.8750,28.0625,329.3750,-25.0625,158.8750,0
1776973761.977,9.0932,3.3710,-0.1987,-0.8964,0.5809,0.7917,-65.1000,23.5500,3.0000,9.4786,0.1341,-1.1995,0.1239,0.9292,0.2617,-71.8500,21.7500,29.5500,-3.7600,-3.2900,-8.1400,-0.2487,-0.0753,0.1189,16.2500,27.8750,28.0625,329.3750,-25.1250,159.0625,0
1776973761.983,9.2656,3.4500,-0.2418,-0.7717,0.5806,0.8084,-65.1000,23.5500,3.0000,9.6750,1.3479,2.2625,0.1239,0.9292,0.2617,-71.8500,21.7500,29.5500,-3.8200,-3.2800,-8.1500,-0.2825,-0.1014,0.1385,16.2500,27.6875,27.7500,329.3750,-25.1250,159.0625,0
1776973761.987,9.2656,3.4500,-0.2418,-0.7717,0.5806,0.8084,-62.5500,24.6000,3.3000,9.4260,2.1165,2.8898,0.1956,0.7213,0.2542,-71.8500,21.7500,29.5500,-3.8200,-3.2800,-8.1500,-0.2825,-0.1014,0.1385,16.2500,27.6875,27.7500,329.4375,-25.2500,159.2500,0
1776973761.993,9.2368,3.2226,0.1293,-0.5582,0.5846,0.8348,-62.5500,24.6000,3.3000,9.4260,2.1165,2.8898,0.1956,0.7213,0.2542,-71.8500,21.7500,29.5500,-3.8900,-3.2300,-8.2100,-0.3174,-0.1244,0.1527,16.2500,27.6875,27.7500,329.4375,-25.2500,159.2500,0
1776973761.997,9.2368,3.2226,0.1293,-0.5582,0.5846,0.8348,-64.0500,24.1500,4.3500,8.9160,1.8723,2.2913,0.0091,0.5825,0.2033,-70.0500,18.7500,35.5500,-3.8900,-3.2300,-8.2100,-0.3414,-0.1342,0.1625,16.2500,27.6875,27.7500,329.4375,-25.3125,159.4375,0
1776973762.003,9.0884,2.6336,0.5722,-0.3757,0.6009,0.8519,-64.0500,24.1500,4.3500,8.9160,1.8723,2.2913,0.0091,0.5825,0.2033,-70.0500,18.7500,35.5500,-3.7800,-3.2500,-8.0600,-0.3414,-0.1342,0.1625,16.2500,27.6875,27.7500,329.4375,-25.3125,159.4375,0
1776973762.012,9.1315,2.0542,0.8164,-0.2150,0.5891,0.8468,-64.3500,24.4500,4.2000,8.7508,1.4102,1.4174,-0.3469,0.5180,0.2252,-70.6500,15.4500,34.9500,-3.8400,-3.1300,-8.1800,-0.3458,-0.1604,0.1789,16.2500,27.6875,27.7500,329.5000,-25.3750,159.6250,0
1776973762.022,9.1411,1.3048,1.2953,-0.0813,0.6262,0.8623,-64.3500,24.4500,4.2000,9.3350,1.0942,1.5347,-0.6347,0.4951,0.2529,-66.4500,13.8000,37.0500,-5.0600,-3.3300,-8.6600,-0.3414,-0.1909,0.1887,16.2500,27.6875,27.7500,329.5000,-25.5625,159.8750,0
1776973762.027,9.1411,1.3048,1.2953,-0.0813,0.6262,0.8623,-65.1000,22.5000,3.7500,9.1698,0.1389,1.5538,-0.9041,0.5257,0.1727,-67.6500,12.1500,38.2500,-5.0600,-3.3300,-8.6600,-0.3414,-0.1909,0.1887,16.2500,27.6875,27.7500,329.5000,-25.5625,159.8750,0
1776973762.032,9.1698,0.8811,1.5275,0.0413,0.6909,0.8844,-65.1000,22.5000,3.7500,9.1698,0.1389,1.5538,-0.9041,0.5257,0.1727,-67.6500,12.1500,38.2500,-4.8500,-2.7600,-8.4700,-0.3360,-0.1342,0.1713,16.2500,26.8750,28.1875,329.5625,-25.6250,160.0625,0
1776973762.037,9.4619,0.7326,1.5897,0.0413,0.6909,0.8844,-65.5500,23.4000,2.8500,9.1482,-0.0359,1.6759,-0.9124,0.4994,0.1212,-67.6500,12.1500,38.2500,-4.8500,-2.7600,-8.4700,-0.3360,-0.1342,0.1713,16.2500,26.8750,28.1875,329.5625,-25.6250,160.0625,0
1776973762.042,9.4619,0.7326,1.5897,0.1029,0.7296,0.8884,-65.5500,23.4000,2.8500,9.1482,-0.0359,1.6759,-0.9124,0.4994,0.1212,-67.6500,12.1500,38.2500,-4.1100,-2.7100,-8.4600,-0.3120,-0.0447,0.1134,16.2500,26.8750,28.1875,329.5625,-25.6875,160.2500,0
1776973762.047,9.6941,0.2993,2.1883,0.1029,0.7296,0.8884,-65.1000,22.8000,4.9500,8.9687,1.1947,1.4772,-1.0888,0.4525,0.2132,-64.9500,9.0000,34.5000,-4.1100,-2.7100,-8.4600,-0.2956,-0.0436,0.0971,16.2500,26.8750,28.1875,329.5625,-25.7500,160.4375,0
1776973762.053,9.6941,0.2993,2.1883,-0.0810,0.7408,0.8921,-65.1000,22.8000,4.9500,8.9687,1.1947,1.4772,-1.0888,0.4525,0.2132,-64.9500,9.0000,34.5000,-4.3800,-2.9700,-8.4800,-0.2956,-0.0436,0.0971,16.2500,26.8750,28.1875,329.5625,-25.7500,160.6250,0
1776973762.063,9.8737,-0.1484,1.9656,-0.3485,0.6944,0.8711,-65.4000,21.6000,3.7500,9.0166,1.5060,0.6919,-1.3249,0.6662,0.3099,-66.1500,8.7000,34.3500,-3.8200,-3.1200,-8.1400,-0.2825,-0.0316,0.0862,16.2500,26.8750,28.1875,329.5625,-25.7500,160.6250,0
1776973762.073,9.6199,-0.3089,1.3168,-0.4541,0.6211,0.8386,-64.8000,21.9000,4.0500,8.8370,1.3455,0.4166,-1.2172,0.7650,0.3507,-66.9000,6.4500,33.9000,-3.6300,-3.4500,-8.0700,-0.2814,-0.0295,0.0971,16.2500,26.8750,28.1875,329.6250,-25.8125,160.8125,0
1776973762.078,9.3901,-0.4166,1.2617,-0.4596,0.6579,0.8604,-67.2000,21.4500,4.3500,8.9735,1.0223,1.1229,-1.0477,0.8106,0.3760,-65.7000,7.5000,32.4000,-3.6300,-3.4500,-8.0700,-0.2814,-0.0295,0.0971,17.3750,25.7500,27.3750,329.6250,-25.8750,161.0000,0
1776973762.083,9.3901,-0.4166,1.2617,-0.4596,0.6579,0.8604,-67.2000,21.4500,4.3500,8.9735,1.0223,1.1229,-1.0477,0.8106,0.3760,-65.7000,7.5000,32.4000,-4.2300,-3.0700,-8.2600,-0.3065,-0.0807,0.1320,17.3750,25.7500,27.3750,329.6250,-25.8750,161.0000,0
1776973762.088,9.6774,-0.1844,1.1803,-0.5412,0.6275,0.8759,-67.2000,21.4500,4.3500,8.9447,0.6488,1.9680,-0.8756,0.7754,0.3984,-66.9000,8.4000,31.8000,-4.2300,-3.0700,-8.2600,-0.3065,-0.0807,0.1320,17.3750,25.7500,27.3750,329.6250,-25.9375,161.1875,0
1776973762.093,9.6774,-0.1844,1.1803,-0.5412,0.6275,0.8759,-67.2000,21.4500,4.3500,8.9447,0.6488,1.9680,-0.8756,0.7754,0.3984,-66.9000,8.4000,31.8000,-4.3900,-2.7200,-8.4900,-0.3218,-0.0796,0.1287,17.3750,25.7500,27.3750,329.6250,-25.9375,161.1875,0
1776973762.102,9.6534,0.5674,1.0391,-0.6368,0.5886,0.8612,-68.4000,20.8500,4.2000,9.0333,0.4549,2.5738,-0.7085,0.6912,0.4343,-66.9000,8.4000,31.8000,-4.2900,-2.8000,-8.4600,-0.3022,-0.0633,0.1080,17.3750,25.7500,27.3750,329.6875,-26.0000,161.4375,0
1776973762.112,9.3925,1.2785,0.7542,-0.5572,0.5878,0.8450,-68.4000,20.8500,4.2000,8.9830,0.6369,2.8252,-0.5817,0.6174,0.4477,-66.0000,7.8000,31.3500,-4.3600,-2.6500,-8.6000,-0.2749,-0.0589,0.0971,17.3750,25.7500,27.3750,329.6875,-26.0000,161.5625,0
1776973762.122,9.4044,1.8747,0.7661,-0.3640,0.6003,0.8263,-67.3500,18.1500,6.0000,8.8945,0.6081,3.1125,-0.5473,0.5156,0.4652,-66.4500,6.7500,31.6500,-4.3300,-2.5400,-8.5700,-0.2400,-0.0644,0.0807,17.3750,25.7500,27.3750,329.6875,-26.0625,161.7500,0
1776973762.126,9.4403,1.8579,1.0223,-0.1980,0.5886,0.8212,-67.9500,18.0000,6.6000,8.8633,0.6943,3.2130,-0.5617,0.4612,0.4914,-68.2500,7.0500,31.3500,-4.3300,-2.5400,-8.5700,-0.2400,-0.0644,0.0807,17.3750,25.7500,27.3750,329.6875,-26.0625,161.7500,0
1776973762.131,9.4403,1.8579,1.0223,-0.1980,0.5886,0.8212,-67.9500,18.0000,6.6000,8.8633,0.6943,3.2130,-0.5617,0.4612,0.4914,-68.2500,7.0500,31.3500,-4.0800,-2.8700,-8.3700,-0.2160,-0.0633,0.0731,17.3750,25.7500,27.8750,329.6875,-26.1250,161.8750,0
1776973762.136,9.1578,1.5634,1.4892,-0.0501,0.5910,0.8079,-67.6500,18.1500,6.0000,8.7532,1.0104,2.8635,-0.5825,0.4868,0.5095,-67.2000,6.0000,31.9500,-4.0800,-2.8700,-8.3700,-0.2160,-0.0633,0.0731,17.3750,25.7500,27.8750,329.6875,-26.1250,161.8750,0
1776973762.141,9.1578,1.5634,1.4892,-0.0501,0.5910,0.8079,-67.6500,18.1500,6.0000,8.7532,1.0104,2.8635,-0.5825,0.4868,0.5095,-67.2000,6.0000,31.9500,-4.1000,-2.8900,-8.3400,-0.1942,-0.0687,0.0807,17.3750,25.7500,27.8750,329.6875,-26.1875,162.0000,0
1776973762.146,9.3925,0.9194,1.8148,-0.0053,0.6014,0.8098,-67.6500,18.1500,6.0000,8.8657,1.3719,2.3679,-0.5809,0.5329,0.5143,-67.2000,6.0000,31.9500,-4.1000,-2.8900,-8.3400,-0.1942,-0.0687,0.0807,17.3750,25.7500,27.8750,329.7500,-26.1875,162.1250,0
1776973762.153,9.4523,0.2634,2.0806,-0.0053,0.6014,0.8098,-67.9500,18.7500,6.6000,9.1961,1.7693,1.7765,-0.5974,0.6262,0.5161,-67.2000,6.0000,31.9500,-4.0800,-3.0700,-8.2600,-0.2203,-0.0698,0.0993,17.3750,25.7500,27.8750,329.7500,-26.1875,162.1250,0
1776973762.161,9.4523,0.2634,2.0806,-0.0799,0.5766,0.8047,-67.9500,18.7500,6.6000,9.1961,1.7693,1.7765,-0.6070,0.6515,0.5175,-67.2000,5.2500,32.4000,-4.2600,-2.8700,-8.3700,-0.2127,-0.0927,0.1222,17.3750,25.7500,27.8750,329.7500,-26.2500,162.2500,0
1776973762.166,9.2967,-0.0287,1.5275,-0.1764,0.6267,0.8370,-67.9500,18.7500,6.6000,9.2416,1.8794,1.3455,-0.6070,0.6515,0.5175,-66.4500,5.5500,32.7000,-4.2600,-2.8700,-8.3700,-0.2127,-0.0927,0.1222,17.3750,25.7500,27.8750,329.8125,-26.3750,162.3750,0
1776973762.173,9.7468,0.6201,1.0774,-0.3643,0.6742,0.8817,-67.6500,18.1500,7.2000,9.4284,2.1404,1.0511,-0.6190,0.6456,0.5116,-66.4500,5.5500,32.7000,-4.3300,-2.7200,-8.4700,-0.2149,-0.0982,0.1320,17.3750,25.7500,27.8750,329.8125,-26.3750,162.3750,0
1776973762.178,9.7468,0.6201,1.0774,-0.3643,0.6742,0.8817,-67.6500,18.1500,7.2000,9.4284,2.1404,1.0511,-0.6190,0.6456,0.5116,-66.6000,4.9500,32.8500,-4.3300,-2.7200,-8.4700,-0.2149,-0.0982,0.1320,17.3750,25.7500,27.8750,329.8125,-26.4375,162.5000,0
1776973762.183,9.3302,1.9178,0.3328,-0.5500,0.6648,0.9097,-67.6500,18.1500,7.2000,9.4547,2.5211,0.7805,-0.5971,0.5548,0.4628,-66.6000,4.9500,32.8500,-4.3200,-2.7700,-8.3700,-0.2116,-0.0916,0.1276,17.3750,25.3750,27.0625,329.8125,-26.4375,162.5000,0
1776973762.188,9.3302,1.9178,0.3328,-0.5500,0.6648,0.9097,-69.1500,17.7000,7.9500,9.4547,2.5211,0.7805,-0.5971,0.5548,0.4628,-67.3500,4.2000,31.8000,-4.3200,-2.7700,-8.3700,-0.2116,-0.0916,0.1276,17.3750,25.3750,27.0625,329.8125,-26.4375,162.5000,0
1776973762.193,9.0501,2.8683,-0.1269,-0.6043,0.7181,0.9534,-69.1500,17.7000,7.9500,9.1674,2.8778,0.7518,-0.6011,0.5774,0.3914,-67.6500,2.7000,36.7500,-4.0300,-2.9400,-8.4200,-0.2040,-0.0916,0.1320,17.3750,25.3750,27.0625,329.8750,-26.5000,162.6250,0
1776973762.198,9.0501,2.8683,-0.1269,-0.6043,0.7181,0.9534,-69.1500,17.7000,8.7000,9.1674,2.8778,0.7518,-0.6011,0.5774,0.3914,-67.6500,2.7000,36.7500,-4.0300,-2.9400,-8.4200,-0.2094,-0.1004,0.1527,17.3750,25.3750,27.0625,329.8750,-26.5000,162.7500,0
1776973762.204,9.1530,3.1987,0.0575,-0.5868,0.7512,1.0152,-69.1500,17.7000,8.7000,9.2656,3.3279,0.3567,-0.5556,0.5431,0.3200,-67.6500,2.7000,36.7500,-4.0800,-2.8800,-8.4100,-0.2094,-0.1004,0.1527,17.3750,25.3750,27.0625,329.8750,-26.5000,162.7500,0
1776973762.213,9.2440,3.0454,0.2394,-0.6131,0.7933,1.1159,-68.8500,16.9500,8.7000,9.2703,3.6895,0.0503,-0.6265,0.5121,0.2555,-67.6500,2.7000,36.7500,-4.0800,-2.8100,-8.4300,-0.1996,-0.1178,0.1680,17.3750,25.3750,27.0625,329.9375,-26.6250,162.8750,0
1776973762.218,9.2440,3.0454,0.2394,-0.6131,0.7933,1.1159,-69.4500,15.6000,8.4000,9.2703,3.6895,0.0503,-0.6265,0.5121,0.2555,-68.4000,2.7000,34.6500,-4.0800,-2.8100,-8.4300,-0.1931,-0.1396,0.1800,17.3750,25.3750,27.0625,330.0000,-26.6875,163.0625,0
1776973762.224,9.2536,2.4373,0.7230,-0.5319,0.8455,1.2167,-69.4500,15.6000,8.4000,8.8370,3.7876,0.6177,-0.6177,0.4863,0.1820,-68.4000,3.1500,36.1500,-4.1100,-2.7400,-8.6400,-0.1931,-0.1396,0.1800,17.3750,25.3750,27.0625,330.0000,-26.6875,163.0625,0
1776973762.229,9.2536,2.4373,0.7230,-0.5319,0.8455,1.2167,-69.4500,15.9000,10.3500,8.8370,3.7876,0.6177,-0.6177,0.4863,0.1820,-68.4000,3.1500,36.1500,-4.1100,-2.7400,-8.6400,-0.1800,-0.1713,0.1767,17.7500,25.7500,28.6875,330.0625,-26.8125,163.1875,0
1776973762.234,9.7755,1.6209,1.1301,-0.6187,0.8649,1.3065,-69.4500,15.9000,10.3500,8.8202,3.6009,1.2378,-0.8132,0.4431,0.1146,-67.8000,0.7500,36.6000,-4.7500,-1.7900,-8.9100,-0.1800,-0.1713,0.1767,17.7500,25.7500,28.6875,330.0625,-26.8125,163.1875,0
1776973762.239,9.7755,1.6209,1.1301,-0.6187,0.8649,1.3065,-70.0500,15.4500,9.3000,8.8202,3.6009,1.2378,-1.0448,0.3571,0.0679,-67.8000,0.7500,36.6000,-4.7500,-1.7900,-8.9100,-0.1800,-0.1713,0.1767,17.7500,25.7500,28.6875,330.1250,-26.8750,163.3125,0
1776973762.244,9.6845,1.0846,1.3216,-0.5937,0.8945,1.3680,-70.0500,15.4500,9.3000,9.1411,3.4788,2.1141,-1.0448,0.3571,0.0679,-65.8500,0.1500,37.2000,-4.3400,-2.5400,-8.7200,-0.1767,-0.1527,0.1385,17.7500,25.7500,28.6875,330.1250,-26.8750,163.3125,0
1776973762.253,9.9814,0.7063,2.2362,-0.5590,0.9334,1.4178,-70.0500,15.4500,9.3000,8.7269,2.9975,3.1364,-1.2705,0.2835,0.0336,-65.8500,0.1500,37.2000,-4.2600,-2.6900,-8.6800,-0.1516,-0.1222,0.1156,17.7500,25.7500,28.6875,330.1250,-27.0000,163.3750,0
1776973762.262,10.0413,0.4166,2.4349,-0.4972,0.9486,1.4909,-69.4500,12.9000,11.4000,8.8011,2.4541,3.3662,-1.5407,0.2433,0.0429,-65.8500,0.1500,37.2000,-4.2300,-2.3100,-9.1100,-0.1134,-0.0829,0.1178,17.7500,25.7500,28.6875,330.1875,-27.0625,163.5000,0
1776973762.270,10.2759,0.0814,2.3774,-0.4663,0.9633,1.5692,-69.4500,11.2500,11.4000,8.8202,1.9225,3.6751,-1.6822,0.0767,0.1058,-67.3500,2.4000,36.7500,-4.4300,-2.2600,-9.1000,-0.0480,-0.1047,0.1331,17.7500,25.7500,28.6875,330.2500,-27.1250,163.5625,0
1776973762.274,10.2759,0.0814,2.3774,-0.4663,0.9633,1.5692,-69.4500,11.2500,11.4000,8.8202,1.9225,3.6751,-1.6822,0.0767,0.1058,-66.7500,3.0000,37.3500,-4.4300,-2.2600,-9.1000,-0.0480,-0.1047,0.1331,17.7500,25.7500,28.6875,330.2500,-27.1250,163.5625,0
1776973762.279,10.2879,0.0144,2.4493,-0.5393,0.9363,1.6252,-70.2000,12.0000,12.1500,9.3565,1.3671,4.2569,-1.5751,0.0072,0.1348,-66.7500,3.0000,37.3500,-4.0900,-2.5300,-9.1400,0.0469,-0.1309,0.1298,18.1875,25.3750,27.8750,330.3125,-27.1875,163.5625,0
1776973762.284,10.2879,0.0144,2.4493,-0.5393,0.9363,1.6252,-70.2000,12.0000,12.1500,9.3565,1.3671,4.2569,-1.5751,0.0072,0.1348,-66.9000,1.6500,36.1500,-4.0900,-2.5300,-9.1400,0.0469,-0.1309,0.1298,18.1875,25.3750,27.8750,330.3125,-27.1875,163.5625,0
1776973762.289,10.6877,-0.9218,1.9920,-0.6765,0.9507,1.6577,-70.5000,10.5000,11.8500,9.8090,1.1277,4.7453,-1.2812,0.0240,0.1399,-66.9000,1.6500,36.1500,-3.7700,-2.3900,-9.4500,0.1036,-0.2062,0.1298,18.1875,25.3750,27.8750,330.3750,-27.3125,163.5000,0
1776973762.294,10.6877,-0.9218,1.9920,-0.6765,0.9507,1.6577,-70.5000,10.5000,11.8500,9.8090,1.1277,4.7453,-1.2812,0.0240,0.1399,-68.1000,3.1500,34.3500,-3.7700,-2.3900,-9.4500,0.1036,-0.2062,0.1298,18.1875,25.3750,27.8750,330.4375,-27.5000,163.4375,0
1776973762.303,11.3772,-1.5658,1.5371,-0.7504,0.9641,1.7208,-71.1000,9.4500,12.3000,10.6111,1.2234,4.3838,-0.9297,0.1452,0.0965,-68.1000,3.1500,35.7000,-2.3400,-2.8900,-10.9100,0.1625,-0.2913,0.0938,18.1875,25.3750,27.8750,330.5000,-27.8125,163.2500,0
1776973762.313,11.7053,-1.1540,1.5203,-0.8180,0.9694,1.7682,-72.6000,8.4000,14.5500,11.3701,1.3168,3.5985,-0.6019,0.2862,0.0394,-68.1000,3.1500,35.7000,-4.1100,-2.0900,-9.9000,0.2585,-0.5356,0.1320,18.1875,25.3750,27.8750,330.5000,-27.8125,163.2500,0
1776973762.323,12.0524,-0.9792,0.7422,-0.9289,0.9947,1.7821,-72.6000,8.4000,14.5500,11.8992,1.5850,2.6193,-0.2803,0.3435,0.0008,-67.3500,5.7000,34.9500,-3.1900,-2.7800,-10.2800,0.3316,-0.7527,0.1767,18.1875,25.3750,27.8750,330.5625,-28.2500,163.0625,0
1776973762.328,12.2368,-1.6712,0.1724,-0.8998,1.0232,1.8106,-71.5500,5.5500,14.2500,11.8848,1.7526,1.6712,-0.1170,0.3456,-0.0061,-67.3500,5.7000,34.9500,-3.1900,-2.7800,-10.2800,0.3316,-0.7527,0.1767,18.1875,25.3750,27.8750,330.6875,-28.8125,162.8125,0
1776973762.333,12.2368,-1.6712,0.1724,-0.8998,1.0232,1.8106,-71.5500,5.5500,14.2500,11.8848,1.7526,1.6712,-0.1170,0.3456,-0.0061,-66.9000,4.9500,33.9000,-3.2000,-3.5800,-10.4600,0.3949,-1.0199,0.2509,19.1875,24.6875,29.8750,330.6875,-28.8125,162.8125,0
1776973762.338,12.4451,-1.7741,-0.3256,-0.8692,1.0778,1.8583,-71.5500,5.5500,14.2500,11.9734,2.2745,0.7087,-0.0791,0.2617,-0.0165,-66.9000,4.9500,33.9000,-3.2000,-3.5800,-10.4600,0.3949,-1.0199,0.2509,19.1875,24.6875,29.8750,330.6875,-28.8125,162.8125,0
1776973762.343,12.4451,-1.7741,-0.3256,-0.8692,1.0778,1.8583,-71.5500,5.5500,14.2500,11.9734,2.2745,0.7087,-0.0791,0.2617,-0.0165,-68.5500,5.5500,34.8000,-2.9900,-3.2700,-10.4400,0.3916,-1.3581,0.3447,19.1875,24.6875,29.8750,330.8750,-29.6250,162.5625,0
1776973762.349,12.6127,-0.9457,0.0335,-0.9707,1.1016,1.9297,-70.8000,5.5500,14.8500,11.8561,2.6983,-0.0622,-0.2774,0.1724,-0.0970,-68.5500,5.5500,34.8000,-2.9900,-3.2700,-10.4400,0.3872,-1.7355,0.4352,19.1875,24.6875,29.8750,331.0000,-30.5625,162.3125,0
1776973762.354,12.7922,0.7997,-0.0431,-0.9707,1.1016,1.9297,-70.8000,5.5500,14.8500,11.8561,2.6983,-0.0622,-0.2774,0.1724,-0.0970,-67.6500,6.4500,35.7000,-3.2700,-2.7100,-10.5700,0.3872,-1.7355,0.4352,19.1875,24.6875,29.8750,331.2500,-31.8125,162.1250,0
1776973762.363,12.7922,0.7997,-0.0431,-1.0067,1.0981,2.0150,-72.6000,3.6000,15.3000,12.2703,3.5650,-0.7015,-0.5135,-0.1045,-0.2942,-67.6500,6.4500,35.7000,-2.7300,-1.8700,-11.1100,0.3589,-2.1708,0.5825,19.1875,24.6875,29.8750,331.5000,-33.3750,161.8125,0
1776973762.373,15.0859,2.9018,-1.3168,-0.9622,1.1714,2.1448,-71.7000,2.7000,16.2000,11.9135,4.5514,-1.0798,-0.7685,-0.5097,-0.5305,-67.2000,3.0000,34.5000,-3.0500,-2.0000,-10.9500,0.3992,-2.6256,0.7494,19.1875,24.6875,29.8750,331.5000,-33.3750,161.8125,0
1776973762.378,15.0859,2.9018,-1.3168,-1.0245,1.2468,2.2926,-71.7000,2.7000,16.2000,11.7196,5.5929,-1.8076,-0.9678,-0.8657,-0.7554,-67.2000,3.0000,34.5000,-3.0500,-2.0000,-10.9500,0.3992,-2.6256,0.7494,19.1875,24.6875,29.8750,331.8750,-35.1250,161.4375,0
1776973762.383,16.5439,3.8188,-2.1883,-1.0245,1.2468,2.2926,-72.0000,2.2500,17.7000,11.7196,5.5929,-1.8076,-0.9678,-0.8657,-0.7554,-68.5500,3.3000,35.5500,-2.4100,-3.6000,-11.2100,0.6545,-3.0838,0.9577,19.5625,24.6875,27.5000,331.8750,-35.1250,161.4375,0
1776973762.388,16.5439,3.8188,-2.1883,-1.0866,1.3041,2.4560,-72.0000,2.2500,17.7000,12.0476,6.4596,-1.9225,-0.7797,-1.2521,-0.9737,-68.5500,3.3000,35.5500,-2.4100,-3.6000,-11.2100,0.6545,-3.0838,0.9577,19.5625,24.6875,27.5000,331.8750,-35.1250,161.4375,0
1776973762.393,18.1050,4.2377,-3.2537,-1.0866,1.3041,2.4560,-72.0000,2.2500,17.7000,12.0476,6.4596,-1.9225,-0.7797,-1.2521,-0.9737,-66.1500,1.9500,33.9000,-1.9600,-4.3800,-11.7800,0.6512,-3.5321,1.2315,19.5625,24.6875,27.5000,332.4375,-37.1875,161.1250,0
1776973762.400,18.1050,4.2377,-3.2537,-1.1453,1.3177,2.6622,-70.8000,-1.3500,17.8500,11.5831,7.3717,-2.5786,-0.1604,-2.1011,-1.1247,-66.1500,1.9500,33.9000,-1.5100,-5.4100,-11.9900,0.6076,-4.0841,1.5577,19.5625,24.6875,27.5000,333.0625,-39.6250,160.8125,0
1776973762.404,17.8272,3.2657,-4.4915,-1.3107,1.3510,2.7291,-70.8000,-1.3500,17.8500,10.4435,7.1467,2.0446,0.8255,-1.8724,-1.2348,-66.9000,-1.9500,34.3500,-1.5100,-5.4100,-11.9900,0.6076,-4.0841,1.5577,19.5625,24.6875,27.5000,13.5000,-42.4375,160.6875,0
1776973762.413,16.5990,2.2769,-4.5466,-1.4008,1.4575,2.5799,-70.8000,-1.3500,17.8500,11.2144,5.9711,1.1708,1.8290,-1.8937,-1.3931,-66.9000,-1.9500,34.3500,-1.5200,-6.6800,-11.7700,0.5443,-4.7004,1.9897,19.5625,24.6875,27.5000,10.3750,-45.7500,160.8125,0
1776973762.423,14.4729,1.3240,-2.8994,-1.6625,1.4730,2.3811,-69.1500,-4.0500,19.3500,12.5217,4.3958,-0.9912,2.1258,-2.2068,-1.5918,-66.9000,-1.9500,34.3500,-2.2800,-7.7500,-11.2100,0.3611,-5.3909,2.5591,19.5625,24.6875,27.5000,10.3750,-45.7500,160.8125,0
1776973762.428,14.4729,1.3240,-2.8994,-1.6625,1.4730,2.3811,-69.1500,-4.0500,19.3500,12.5217,4.3958,-0.9912,2.1258,-2.2068,-1.5918,-66.9000,-1.9500,34.3500,-2.2800,-7.7500,-11.2100,0.3611,-5.3909,2.5591,19.5625,24.6875,27.5000,10.3750,-45.7500,160.8125,0
1776973762.433,12.4115,0.2227,-0.2538,-1.7581,1.5308,2.2002,-72.0000,-4.6500,18.7500,12.0907,2.4948,-2.2098,2.3009,-2.3886,-1.7331,-66.7500,-0.3000,30.1500,-6.5500,-6.9900,-11.9400,0.1113,-6.0967,3.2179,23.6875,24.0000,24.7500,6.6875,-49.5000,161.4375,0
1776973762.438,12.4115,0.2227,-0.2538,-1.7581,1.5308,2.2002,-72.0000,-4.6500,18.7500,12.0907,2.4948,-2.2098,2.3009,-2.3886,-1.7331,-66.7500,-0.3000,30.1500,-6.5500,-6.9900,-11.9400,0.1113,-6.0967,3.2179,23.6875,24.0000,24.7500,6.6875,-49.5000,161.4375,0
1776973762.443,11.0947,-0.7925,2.4517,-1.6931,1.5681,2.0574,-70.2000,-5.8500,19.5000,12.5241,0.6369,-1.9656,1.9305,-2.1639,-1.8644,-66.6000,0.9000,28.9500,-10.2100,-5.6000,-12.6100,-0.0098,-6.7032,3.7132,23.6875,24.0000,24.7500,2.8750,-53.6875,162.4375,0
1776973762.450,11.0947,-0.7925,2.4517,-1.6931,1.5681,2.0574,-69.7500,-6.9000,18.4500,12.5241,0.6369,-1.9656,1.9305,-2.1639,-1.8644,-65.8500,3.1500,28.6500,-14.6400,-5.6600,-13.8100,0.2803,-7.0882,3.8561,23.6875,24.0000,24.7500,359.6250,-58.0625,163.6250,0
1776973762.454,10.4363,-2.2458,4.3191,-1.2870,1.6515,1.9454,-69.7500,-6.9000,18.4500,13.1154,-0.9050,-1.4509,1.3102,-2.2098,-1.9452,-65.8500,3.1500,28.6500,-14.6400,-5.6600,-13.8100,0.2803,-7.0882,3.8561,23.6875,24.0000,24.7500,357.0625,-62.4375,164.9375,0
1776973762.463,10.3884,-3.0598,5.2577,-0.7490,1.7006,1.8871,-69.4500,-8.5500,20.2500,13.7260,-2.4181,-0.3543,0.6174,-2.4091,-1.9841,-66.4500,6.3000,26.7000,-16.8600,-5.7800,-13.6900,0.6109,-7.0719,3.7383,23.6875,24.0000,24.7500,355.2500,-66.5625,166.3750,0
1776973762.474,10.8481,-3.5506,4.5705,-0.3243,1.7088,1.9049,-69.6000,-9.4500,21.1500,14.0492,-3.8379,1.5874,0.0882,-2.6556,-2.0185,-66.4500,6.3000,26.7000,-17.8600,-6.7700,-14.3500,0.9032,-6.7861,3.4525,23.6875,24.0000,24.7500,355.2500,-66.5625,166.3750,0
1776973762.478,10.8481,-3.5506,4.5705,-0.3243,1.7088,1.9049,-69.6000,-9.4500,21.1500,14.0492,-3.8379,1.5874,0.0882,-2.6556,-2.0185,-66.4500,6.3000,26.7000,-17.8600,-6.7700,-14.3500,0.9032,-6.7861,3.4525,23.6875,24.0000,24.7500,354.0625,-70.1875,168.1875,0
1776973762.483,10.8194,-5.7628,3.0789,-0.1074,1.8663,1.8554,-69.6000,-9.4500,21.1500,14.3676,-4.8650,3.2729,-0.4876,-2.6326,-1.9955,-66.1500,7.6500,19.6500,-13.2800,-9.0200,-13.3200,1.1988,-6.0628,3.1776,32.8750,20.6875,16.5000,354.0625,-70.1875,168.1875,0
1776973762.488,10.8194,-5.7628,3.0789,-0.1074,1.8663,1.8554,-69.6000,-9.4500,21.1500,14.3676,-4.8650,3.2729,-0.4876,-2.6326,-1.9955,-66.1500,7.6500,19.6500,-13.2800,-9.0200,-13.3200,1.1988,-6.0628,3.1776,32.8750,20.6875,16.5000,352.8750,-73.4375,171.1875,0
1776973762.493,11.2575,-7.8051,4.6950,0.4354,1.9700,1.5463,-68.2500,-9.7500,22.2000,14.9446,-5.1308,4.1444,-1.2449,-2.2918,-1.9025,-68.1000,9.1500,19.3500,-8.0900,-9.1800,-12.6500,1.0657,-5.3134,3.1132,32.8750,20.6875,16.5000,352.8750,-73.4375,171.1875,0
1776973762.502,10.4698,-8.1283,6.9456,1.1935,1.9633,1.0403,-69.6000,-11.1000,23.1000,15.2080,-5.2792,4.4939,-1.2620,-1.9907,-1.7581,-66.6000,11.4000,15.7500,4.5800,-8.6700,-9.2100,0.7538,-4.8193,3.2987,32.8750,20.6875,16.5000,351.5000,-76.2500,176.4375,0
1776973762.507,10.4698,-8.1283,6.9456,1.1935,1.9633,1.0403,-69.6000,-11.1000,23.1000,15.2080,-5.2792,4.4939,-1.2620,-1.9907,-1.7581,-66.6000,11.4000,15.7500,4.5800,-8.6700,-9.2100,0.7538,-4.8193,3.2987,32.8750,20.6875,16.5000,349.6250,-78.8750,-174.2500,0
1776973762.514,8.9112,-5.5881,7.6998,1.5695,1.5849,0.6368,-69.7500,-12.0000,24.7500,13.6110,-4.7740,3.5721,-1.2923,-2.1043,-1.6094,-65.8500,9.9000,13.9500,6.1700,-5.8600,-7.3900,0.2487,-4.7680,3.6477,32.8750,20.6875,16.5000,347.3125,-81.0625,-158.4375,0
1776973762.524,7.6662,-6.3231,6.0621,0.8103,0.8657,0.4479,-68.8500,-11.4000,23.8500,11.5496,-3.3758,3.5003,-1.3622,-2.2263,-1.5668,-65.8500,9.9000,13.9500,-12.7200,-4.9300,-10.4400,-0.4516,-4.9240,3.8703,32.8750,20.6875,16.5000,347.3125,-81.0625,-158.4375,0
1776973762.529,4.6902,-8.2313,7.3382,0.8612,0.6518,0.2252,-68.8500,-11.4000,23.8500,11.5496,-3.3758,3.5003,-1.3622,-2.2263,-1.5668,-66.0000,14.2500,9.9000,-12.7200,-4.9300,-10.4400,-0.4516,-4.9240,3.8703,32.8750,20.6875,16.5000,345.6875,-81.8750,-141.8750,0
1776973762.534,4.6902,-8.2313,7.3382,0.8612,0.6518,0.2252,-67.3500,-10.3500,23.1000,10.2927,-1.2977,3.2106,-1.3659,-1.6566,-1.6126,-66.0000,14.2500,9.9000,-12.9700,-5.6400,-11.2600,-0.1462,-3.4961,3.1001,40.1875,14.0000,7.8750,345.6875,-81.8750,-141.8750,0
1776973762.539,3.4907,-8.2528,7.6878,0.6957,0.4501,-0.0298,-67.3500,-10.3500,23.1000,10.2927,-1.2977,3.2106,-1.6915,-1.2793,-1.5753,-63.1500,12.3000,8.5500,-12.9700,-5.6400,-11.2600,-0.1462,-3.4961,3.1001,40.1875,14.0000,7.8750,345.2500,-81.6250,-135.2500,0
1776973762.544,3.4907,-8.2528,7.6878,0.6957,0.4501,-0.0298,-69.0000,-9.0000,23.2500,10.3669,-0.2682,1.9297,-1.6915,-1.2793,-1.5753,-63.1500,12.3000,8.5500,-7.1500,-8.0100,-11.2200,0.7909,-0.8410,1.7115,40.1875,14.0000,7.8750,345.2500,-81.6250,-135.2500,0
1776973762.549,2.1835,-5.8562,7.0054,-0.0525,0.2417,-0.3765,-69.0000,-9.0000,23.2500,11.0588,0.4597,0.1245,-2.0145,-1.7355,-1.5186,-65.7000,13.5000,6.7500,-7.1500,-8.0100,-11.2200,1.1988,1.2872,0.3807,40.1875,14.0000,7.8750,345.6875,-80.9375,-138.1250,0
1776973762.554,2.1835,-5.8562,7.0054,-0.0525,0.2417,-0.3765,-69.0000,-9.0000,23.2500,11.0588,0.4597,0.1245,-2.0145,-1.7355,-1.5186,-65.7000,13.5000,6.7500,-3.2100,-9.8100,-10.2100,1.1988,1.2872,0.3807,40.1875,14.0000,7.8750,346.3750,-80.0625,-144.3750,0
1776973762.564,1.8316,-4.4724,4.8961,-1.0722,0.0408,-0.7754,-69.4500,-8.5500,24.3000,10.3022,-1.0798,-0.0718,-1.9020,-2.0344,-1.5095,-65.1000,12.1500,7.9500,1.5400,-7.6800,-5.4800,1.0254,2.3082,-0.3371,40.1875,14.0000,7.8750,346.3750,-80.0625,-144.3750,0
1776973762.574,2.6600,-3.6559,3.4572,-1.6816,-0.1772,-1.1461,-69.4500,-8.5500,24.3000,8.3007,0.9218,1.0175,-1.6038,-1.8021,-1.5878,-64.8000,13.6500,6.9000,2.5700,-5.5200,-3.8400,0.6883,2.5602,-0.6949,40.1875,14.0000,7.8750,347.0625,-79.0625,-150.6875,0
1776973762.578,2.7102,-3.6081,3.0933,-1.7576,-0.3469,-1.5031,-69.4500,-8.5500,24.3000,8.1187,2.4277,0.9481,-1.5551,-1.5815,-1.6073,-64.8000,13.6500,6.9000,2.5700,-5.5200,-3.8400,0.6883,2.5602,-0.6949,40.1875,14.0000,7.8750,347.0625,-79.0625,-150.6875,0
1776973762.583,2.7102,-3.6081,3.0933,-1.7576,-0.3469,-1.5031,-69.7500,-8.1000,25.0500,8.1187,2.4277,0.9481,-1.5551,-1.5815,-1.6073,-64.8000,13.6500,6.9000,2.5000,-3.7700,-3.0300,0.4276,2.5035,-0.8879,46.6875,9.2500,5.5625,347.6875,-78.0625,-156.1875,0
1776973762.588,2.5690,-3.5195,3.1723,-1.4234,-0.4751,-1.7672,-69.7500,-8.1000,25.0500,8.0206,3.4046,0.6440,-1.5399,-1.3272,-1.5905,-63.1500,14.5500,7.8000,2.5000,-3.7700,-3.0300,0.4276,2.5035,-0.8879,46.6875,9.2500,5.5625,347.6875,-78.0625,-156.1875,0
1776973762.593,2.5690,-3.5195,3.1723,-1.4234,-0.4751,-1.7672,-69.7500,-7.8000,22.5000,8.0206,3.4046,0.6440,-1.5399,-1.3272,-1.5905,-63.1500,14.5500,7.8000,2.0500,-2.8200,-3.0000,0.3829,2.4816,-1.0788,46.6875,9.2500,5.5625,348.3750,-77.0000,-161.1875,0
1776973762.600,2.5642,-3.3423,3.1771,-0.9262,-0.7157,-2.0182,-69.7500,-7.8000,22.5000,8.1882,3.8618,0.3903,-1.1770,-1.0051,-1.5958,-60.9000,15.7500,9.6000,0.8900,-2.6100,-3.1800,0.5094,2.5209,-1.3025,46.6875,9.2500,5.5625,349.3750,-75.8125,-165.9375,0
1776973762.605,1.8675,-3.2178,3.4548,-0.4101,-0.9641,-2.2897,-69.4500,-6.6000,22.2000,8.1882,3.8618,0.3903,-1.1770,-1.0051,-1.5958,-60.9000,15.7500,9.6000,0.8900,-2.6100,-3.1800,0.5094,2.5209,-1.3025,46.6875,9.2500,5.5625,350.6250,-74.5625,-170.6250,0
1776973762.614,1.6352,-2.9473,1.9465,-0.4101,-0.9641,-2.2897,-70.9500,-4.6500,22.5000,8.6095,3.4357,0.5291,-0.7829,-0.7067,-1.6705,-62.2500,14.7000,9.3000,0.7500,-2.9700,-3.2500,0.6676,2.6125,-1.5424,46.6875,9.2500,5.5625,352.0625,-73.2500,-175.1250,0
1776973762.624,1.6568,-3.0981,3.1436,-0.1804,-1.1764,-2.5511,-70.9500,-4.6500,22.5000,9.5050,3.4189,1.6065,-0.4290,-0.4162,-1.6513,-60.4500,16.2000,10.0500,0.4200,-3.1500,-3.5500,0.7559,2.7020,-1.7802,46.6875,9.2500,5.5625,352.0625,-73.2500,-175.1250,0
1776973762.629,1.6568,-3.0981,3.1436,-0.0077,-1.3781,-2.8080,-70.9500,-4.6500,22.5000,9.2751,3.1077,2.2242,-0.1657,-0.4858,-1.5362,-60.4500,16.2000,10.0500,0.4200,-3.1500,-3.5500,0.7559,2.7020,-1.7802,46.6875,9.2500,5.5625,353.7500,-71.7500,-179.3750,0
1776973762.634,1.6783,-2.8611,3.7278,0.1399,-1.4333,-3.0054,-72.0000,-3.0000,21.7500,9.2751,3.1077,2.2242,-0.1657,-0.4858,-1.5362,-60.4500,16.2000,10.0500,-1.0500,-3.4300,-4.9200,0.7756,2.7882,-2.0355,48.1875,15.1875,18.5625,353.7500,-71.7500,-179.3750,0
1776973762.639,1.6783,-2.8611,3.7278,0.1399,-1.4333,-3.0054,-72.0000,-3.0000,21.7500,8.9352,2.4325,2.0470,0.0528,-0.3285,-1.3648,-60.3000,18.0000,12.0000,-1.0500,-3.4300,-4.9200,0.7756,2.7882,-2.0355,48.1875,15.1875,18.5625,355.6250,-70.1250,176.5625,0
1776973762.644,2.9664,-2.6863,2.9904,-0.0179,-1.5242,-3.1592,-72.0000,-3.0000,21.7500,8.9352,2.4325,2.0470,0.0528,-0.3285,-1.3648,-60.3000,18.0000,12.0000,-1.9100,-3.1300,-5.9700,0.7505,2.8951,-2.3267,48.1875,15.1875,18.5625,355.6250,-70.1250,176.5625,0
1776973762.649,2.9664,-2.6863,2.9904,-0.0179,-1.5242,-3.1592,-72.0000,-3.0000,21.7500,8.6431,2.2386,2.0063,0.2856,-0.3142,-1.2140,-59.2500,17.4000,11.5500,-1.9100,-3.1300,-5.9700,0.7658,3.0685,-2.6136,48.1875,15.1875,18.5625,357.8125,-68.2500,172.7500,0
1776973762.655,3.6775,-3.4381,2.4062,0.0512,-1.6006,-3.2572,-73.6500,1.0500,17.7000,7.9607,1.8459,1.8196,0.4628,-0.2414,-1.0829,-59.2500,17.4000,11.5500,-3.2200,-2.8000,-6.9600,0.7658,3.0685,-2.6136,48.1875,15.1875,18.5625,0.2500,-66.1875,169.1875,0
1776973762.664,4.7716,-3.8762,2.0542,0.3046,-1.4344,-3.4168,-75.1500,1.5000,17.7000,7.9607,1.8459,1.8196,0.4628,-0.2414,-1.0829,-59.7000,20.7000,12.6000,-4.6100,-2.1100,-7.8800,0.8018,3.3728,-2.8972,48.1875,15.1875,18.5625,3.0625,-63.7500,166.0625,0
1776973762.674,6.4787,-3.9121,2.6264,0.5255,-1.5487,-3.5448,-75.1500,3.9000,16.6500,7.4939,1.2282,2.0686,0.5987,-0.1697,-0.7757,-59.5500,18.7500,12.7500,-4.2400,-1.7800,-8.0400,0.8563,3.7405,-3.1198,48.1875,15.1875,18.5625,3.0625,-63.7500,166.0625,0
1776973762.679,6.4787,-3.9121,2.6264,0.5255,-1.5487,-3.5448,-75.1500,3.9000,16.6500,6.9911,0.5483,1.5993,0.5987,-0.1697,-0.7757,-60.0000,19.2000,12.9000,-4.2400,-1.7800,-8.0400,0.8563,3.7405,-3.1198,48.1875,15.1875,18.5625,6.1250,-61.1250,163.4375,0
1776973762.684,7.6471,-3.7565,2.4708,0.5796,-1.8279,-3.6271,-74.5500,6.4500,16.3500,6.5793,0.0383,1.4317,0.8503,-0.2121,-0.6646,-60.0000,19.2000,12.9000,-4.1400,-1.0700,-8.2500,0.9098,4.0448,-3.1798,41.1875,27.1875,28.6875,6.1250,-61.1250,163.4375,0
1776973762.689,7.6471,-3.7565,2.4708,0.5796,-1.8279,-3.6271,-74.5500,6.4500,16.3500,6.5793,0.0383,1.4317,0.8503,-0.2121,-0.6646,-60.0000,19.2000,12.9000,-4.1400,-1.0700,-8.2500,0.9098,4.0448,-3.1798,41.1875,27.1875,28.6875,6.1250,-61.1250,163.4375,0
1776973762.694,7.9416,-3.9049,2.4660,0.5209,-2.0264,-3.7209,-73.8000,7.2000,14.8500,5.9616,-0.0096,1.4341,1.1882,-0.2124,-0.5556,-60.0000,19.2000,12.9000,-4.3900,-0.4100,-8.5800,0.9927,4.2215,-3.1001,41.1875,27.1875,28.6875,9.4375,-58.3750,161.2500,0
1776973762.702,8.0373,-4.3790,2.4038,0.4114,-2.1618,-3.8296,-73.8000,8.7000,14.8500,5.9616,-0.0096,1.4341,1.1882,-0.2124,-0.5556,-59.2500,20.7000,12.1500,-5.5500,-0.0200,-9.3900,1.1552,4.3426,-2.9245,41.1875,27.1875,28.6875,13.0625,-55.5625,159.5000,0
1776973762.707,8.0373,-4.3790,2.4038,0.4114,-2.1618,-3.8296,-73.8000,8.7000,14.8500,5.9328,-0.0982,1.4126,1.4573,-0.1370,-0.4319,-59.1000,20.5500,12.7500,-5.5500,-0.0200,-9.3900,1.1552,4.3426,-2.9245,41.1875,27.1875,28.6875,17.0000,-52.7500,158.1250,0
1776973762.714,7.8650,-4.9440,2.5666,0.3725,-2.3108,-3.9700,-73.8000,8.7000,14.8500,5.6216,-0.5052,1.3719,1.6068,0.0991,-0.2825,-59.1000,20.5500,12.7500,-6.3200,-0.5700,-9.8000,1.3439,4.4539,-2.6573,41.1875,27.1875,28.6875,21.2500,-49.8750,157.0000,0
1776973762.724,7.8817,-4.9608,2.8108,0.1226,-2.4277,-4.1211,-74.4000,12.9000,12.9000,5.8083,-0.9697,1.3336,1.6411,0.2721,-0.1061,-60.3000,20.2500,12.4500,-6.8200,-1.0800,-9.9700,1.4857,4.6109,-2.3333,41.1875,27.1875,28.6875,21.2500,-49.8750,157.0000,0
1776973762.729,8.6742,-4.8530,2.7988,0.1226,-2.4277,-4.1211,-74.4000,12.9000,12.9000,5.8083,-0.9697,1.3336,1.6411,0.2721,-0.1061,-59.2500,20.7000,11.5500,-6.8200,-1.0800,-9.9700,1.4857,4.6109,-2.3333,41.1875,27.1875,28.6875,21.2500,-49.8750,157.0000,0
1776973762.734,8.6742,-4.8530,2.7988,-0.1508,-2.5359,-4.2120,-73.8000,16.5000,11.2500,6.3518,-1.6376,1.1013,1.5910,0.4191,0.0533,-59.2500,20.7000,11.5500,-6.4600,-0.9000,-9.8900,1.5523,4.7647,-1.9777,23.2500,37.5625,32.8750,25.8125,-47.0000,156.1875,0
1776973762.739,9.4595,-4.7262,2.5786,-0.1508,-2.5359,-4.2120,-73.8000,16.5000,11.2500,6.3518,-1.6376,1.1013,1.5910,0.4191,0.0533,-59.2500,20.7000,11.5500,-6.4600,-0.9000,-9.8900,1.5523,4.7647,-1.9777,23.2500,37.5625,32.8750,25.8125,-47.0000,156.1875,0
1776973762.744,9.4595,-4.7262,2.5786,-0.2462,-2.6628,-4.2903,-73.9500,18.0000,8.4000,6.1723,-1.9968,0.9409,1.3752,0.5660,0.1767,-59.2500,20.7000,11.5500,-6.5900,-1.0400,-10.2100,1.6352,4.7833,-1.6188,23.2500,37.5625,32.8750,30.5625,-44.2500,155.5625,0
1776973762.749,9.7683,-4.4077,2.4972,-0.2462,-2.6628,-4.2903,-73.9500,18.0000,8.4000,6.1723,-1.9968,0.9409,1.3752,0.5660,0.1767,-58.0500,18.3000,11.4000,-6.5900,-1.0400,-10.2100,1.7726,4.6666,-1.2588,23.2500,37.5625,32.8750,35.6250,-41.6250,155.0000,0
1776973762.755,9.7683,-4.4077,2.4972,-0.2286,-2.7017,-4.2884,-74.1000,18.4500,7.9500,6.2704,-2.4373,0.6273,1.2188,0.5529,0.3120,-58.0500,17.2500,10.6500,-6.7800,-1.1300,-10.5800,1.7726,4.6666,-1.2588,23.2500,37.5625,32.8750,41.0000,-39.1250,154.3750,0
1776973762.764,13.2878,-4.1994,3.1891,-0.4612,-3.0635,-4.2453,-73.3500,18.9000,8.2500,6.8426,-2.5019,0.0982,0.9084,0.5415,0.3882,-57.0000,17.5500,10.6500,-8.1500,-1.6600,-12.0000,1.9809,4.4397,-0.9250,23.2500,37.5625,32.8750,345.6875,-36.8750,153.6250,0
1776973762.774,10.9583,-5.0230,3.4117,-1.0397,-2.7909,-4.2386,-73.8000,22.5000,7.5000,7.0174,-2.2984,-0.1437,0.5548,0.4482,0.4279,-57.3000,16.0500,9.1500,-10.1200,-2.7300,-13.4600,2.2777,4.1855,-0.7221,23.2500,37.5625,32.8750,345.6875,-36.8750,153.6250,0
1776973762.779,11.2791,-6.1268,4.6663,-1.3126,-2.7246,-4.2439,-73.8000,22.5000,7.5000,7.0174,-2.2984,-0.1437,0.5548,0.4482,0.4279,-57.3000,16.0500,9.1500,-10.1200,-2.7300,-13.4600,2.2777,4.1855,-0.7221,23.2500,37.5625,32.8750,346.2500,-34.6875,152.6875,0
1776973762.784,11.2791,-6.1268,4.6663,-1.3126,-2.7246,-4.2439,-73.8000,22.5000,7.5000,7.1826,-1.8172,-0.4094,0.1519,0.3344,0.4706,-57.3000,16.0500,9.1500,-12.0200,-3.7900,-14.5300,2.5384,4.0677,-0.6861,11.8750,37.7500,31.0000,346.2500,-34.6875,152.6875,0
1776973762.789,11.4132,-5.5234,5.3151,-1.5945,-2.6428,-4.2357,-73.8000,22.5000,7.5000,7.1826,-1.8172,-0.4094,0.1519,0.3344,0.4706,-57.3000,16.0500,9.1500,-12.0200,-3.7900,-14.5300,2.5384,4.0677,-0.6861,11.8750,37.7500,31.0000,346.8125,-32.4375,151.6875,0
1776973762.794,11.4132,-5.5234,5.3151,-1.5945,-2.6428,-4.2357,-73.3500,25.5000,6.4500,7.6902,-1.4317,-0.5698,-0.1985,0.1348,0.5380,-57.3000,16.0500,9.1500,-12.0300,-4.5800,-14.5200,2.6584,4.2270,-0.7810,11.8750,37.7500,31.0000,346.8125,-32.4375,151.6875,0
1776973762.800,11.8944,-3.5530,4.6591,-1.9476,-2.6766,-4.1917,-73.3500,25.5000,6.4500,7.6591,-0.6225,-0.4525,-0.5782,-0.1175,0.6579,-57.3000,16.0500,9.1500,-10.4900,-4.8000,-14.2900,2.6333,4.4626,-0.8563,11.8750,37.7500,31.0000,347.3750,-30.0625,150.7500,0
1776973762.805,11.8944,-3.5530,4.6591,-1.9476,-2.6766,-4.1917,-73.3500,25.5000,6.4500,7.6591,-0.6225,-0.4525,-0.5782,-0.1175,0.6579,-57.9000,14.7000,10.0500,-10.4900,-4.8000,-14.2900,2.6333,4.4626,-0.8563,11.8750,37.7500,31.0000,347.8750,-27.6250,149.8125,0
1776973762.814,11.9950,-1.9369,3.0885,-2.1360,-2.8098,-4.1560,-70.9500,27.3000,5.1000,8.1403,0.2849,-0.2921,-1.0672,-0.3211,0.7418,-58.3500,17.5500,10.6500,-11.7300,-4.7500,-14.7400,2.5220,4.5379,-0.8498,11.8750,37.7500,31.0000,348.3750,-25.2500,148.8750,0
1776973762.824,11.3605,-1.3096,2.4134,-1.9433,-2.6446,-4.1651,-69.4500,30.0000,4.3500,7.7644,1.3001,-0.3472,-1.7054,-0.5145,0.7538,-59.5500,15.3000,12.0000,-11.0100,-4.2700,-14.1900,2.4206,4.4571,-0.8454,11.8750,37.7500,31.0000,348.3750,-25.2500,148.8750,0
1776973762.829,11.4658,-0.2777,3.1316,-1.7283,-2.5724,-4.0806,-69.4500,30.0000,4.3500,7.6136,2.1452,-0.3543,-2.1027,-0.5761,0.7168,-59.5500,15.3000,12.0000,-11.0100,-4.2700,-14.1900,2.4206,4.4571,-0.8454,11.8750,37.7500,31.0000,348.3750,-25.2500,148.8750,0
1776973762.834,11.4658,-0.2777,3.1316,-1.7283,-2.5724,-4.0806,-67.9500,31.9500,2.8500,7.6136,2.1452,-0.3543,-2.1027,-0.5761,0.7168,-60.7500,16.9500,12.9000,-13.1400,-3.8500,-14.7900,2.3486,4.0524,-0.8628,6.2500,34.0625,28.3750,348.8125,-23.0625,147.9375,0
1776973762.839,11.7076,0.6967,3.0550,-1.7480,-2.7001,-3.8890,-67.9500,31.9500,2.8500,7.8961,3.3830,-0.5243,-2.3819,-0.4202,0.6856,-60.7500,16.9500,12.9000,-13.1400,-3.8500,-14.7900,2.3486,4.0524,-0.8628,6.2500,34.0625,28.3750,348.8125,-23.0625,147.9375,0
1776973762.844,11.9016,1.1540,2.7605,-1.7480,-2.7001,-3.8890,-66.3000,32.4000,1.8000,7.8961,3.3830,-0.5243,-2.3819,-0.4202,0.6856,-60.7500,16.9500,12.9000,-13.0700,-3.0200,-14.4100,2.3442,4.4419,-1.0701,6.2500,34.0625,28.3750,349.1875,-20.6875,146.9375,0
1776973762.850,11.9016,1.1540,2.7605,-1.8053,-2.6708,-3.6492,-66.3000,32.4000,1.8000,8.2983,4.7309,-0.7422,-2.4437,-0.1799,0.6366,-60.7500,16.9500,12.9000,-13.1500,-2.2900,-13.8700,2.3180,4.2750,-1.2730,6.2500,34.0625,28.3750,349.4375,-18.3125,145.9375,0
1776973762.855,11.8728,1.2594,2.3535,-1.6134,-2.5274,-3.3625,-66.9000,34.2000,1.6500,8.2983,4.7309,-0.7422,-2.4437,-0.1799,0.6366,-60.3000,19.0500,15.3000,-13.1500,-2.2900,-13.8700,2.3180,4.2750,-1.2730,6.2500,34.0625,28.3750,349.5000,-15.9375,144.8750,0
1776973762.864,11.6550,1.2809,1.5658,-1.4173,-2.3662,-3.0323,-66.1500,35.4000,1.6500,8.6574,6.5122,-1.0080,-2.3121,0.0141,0.5047,-62.1000,18.7500,17.1000,-13.4400,-1.1500,-12.1500,2.2689,4.1626,-1.4595,6.2500,34.0625,28.3750,349.5000,-13.6875,143.8125,0
1776973762.874,11.4275,1.2474,0.9792,-1.2183,-2.2330,-2.6809,-66.1500,35.4000,1.6500,8.3342,9.4284,-0.8140,-1.9228,-0.4626,0.3040,-61.6500,17.5500,17.4000,-14.1700,-0.4600,-11.3400,2.0977,3.9706,-1.5828,6.2500,34.0625,28.3750,349.5000,-13.6875,143.8125,0
1776973762.879,11.4275,1.2474,0.9792,-1.2183,-2.2330,-2.6809,-66.1500,35.4000,1.6500,9.2201,11.8728,-1.3144,-2.2436,0.3120,0.2220,-61.6500,17.5500,17.4000,-14.1700,-0.4600,-11.3400,2.0977,3.9706,-1.5828,6.2500,34.0625,28.3750,349.5000,-13.6875,143.8125,0
1776973762.884,10.5010,1.2546,0.4262,-0.9753,-2.0704,-2.2849,-64.6500,37.3500,1.2000,9.2201,11.8728,-1.3144,-2.2436,0.3120,0.2220,-64.9500,18.3000,19.5000,-14.8900,0.0700,-10.3800,1.8871,3.7394,-1.6395,9.5625,35.8750,32.5000,349.3750,-11.4375,142.8750,0
1776973762.889,10.5010,1.2546,0.4262,-0.9753,-2.0704,-2.2849,-64.6500,37.3500,1.2000,10.5512,13.0987,-1.7765,-2.1823,0.3094,0.0815,-64.9500,18.3000,19.5000,-14.8900,0.0700,-10.3800,1.8871,3.7394,-1.6395,9.5625,35.8750,32.5000,349.3750,-11.4375,142.8750,0
1776973762.894,9.2344,1.4174,0.3639,-0.6475,-1.8538,-1.8762,-63.3000,37.9500,0.6000,10.5512,13.0987,-1.7765,-2.1823,0.3094,0.0815,-64.9500,18.3000,19.5000,-15.7900,0.6600,-9.3700,1.6330,3.5507,-1.6395,9.5625,35.8750,32.5000,349.2500,-9.3125,142.0625,0
1776973762.904,6.5912,1.9752,-1.4868,-0.2801,-1.6073,-1.3717,-63.3000,40.2000,0.3000,10.5800,12.5528,-2.3607,-2.2780,0.6352,0.0149,-64.9500,18.3000,19.5000,-16.8100,2.1600,-6.1300,1.3090,3.3707,-1.5730,9.5625,35.8750,32.5000,349.0625,-7.3125,141.4375,0
1776973762.911,4.4412,-1.7933,-5.1930,-0.2801,-1.6073,-1.3717,-63.3000,40.2000,0.3000,10.8840,11.2791,-3.6009,-2.1032,0.8234,0.1514,-64.9500,18.3000,19.5000,-17.5600,2.7000,-2.4600,0.9207,3.1503,-1.4388,9.5625,35.8750,32.5000,348.9375,-5.4375,141.0000,0
1776973762.916,4.4412,-1.7933,-5.1930,-0.6851,-1.0275,-0.9334,-62.5500,38.7000,0.3000,10.6231,11.8034,-4.5921,-1.5362,0.6387,0.1420,-61.2000,17.4000,25.3500,-17.5600,2.7000,-2.4600,0.9207,3.1503,-1.4388,9.5625,35.8750,32.5000,348.8750,-3.8125,140.8125,0
1776973762.925,1.7765,-0.9481,-1.8172,-0.6123,-0.3019,-0.4596,-64.3500,40.5000,0.1500,10.6231,11.8034,-4.5921,-1.5362,0.6387,0.1420,-64.3500,17.4000,27.1500,-19.1900,-0.9400,3.0000,0.3971,2.8994,-1.1857,9.5625,35.8750,32.5000,348.8750,-3.8125,140.8125,0
1776973762.930,1.7765,-0.9481,-1.8172,-0.6123,-0.3019,-0.4596,-64.3500,40.5000,0.1500,11.9686,12.1961,-6.9360,-0.2164,0.7434,0.0394,-64.3500,17.4000,27.1500,-19.1900,-0.9400,3.0000,0.3971,2.8994,-1.1857,1.1875,47.1875,34.5625,349.0000,-2.5625,141.0000,0
1776973762.935,3.6679,0.3089,-0.6057,-1.3611,0.5002,0.0541,-63.1500,40.5000,0.1500,11.9686,12.1961,-6.9360,-0.2164,0.7434,0.0394,-63.1500,16.0500,29.5500,-23.0100,12.5400,5.1900,-0.3512,2.4533,-0.5574,1.1875,47.1875,34.5625,349.0000,-2.5625,141.0000,0
1776973762.940,3.6679,0.3089,-0.6057,-1.3611,0.5002,0.0541,-63.1500,40.5000,0.1500,12.3996,14.5400,-9.2249,1.2582,0.3246,0.0951,-63.1500,16.0500,29.5500,-23.0100,12.5400,5.1900,-0.3512,2.4533,-0.5574,1.1875,47.1875,34.5625,349.5625,-1.8750,141.1875,0
1776973762.945,6.6128,0.1580,-0.2059,-1.4027,0.9108,0.6299,-63.1500,40.5000,0.1500,12.3996,14.5400,-9.2249,1.2582,0.3246,0.0951,-62.2500,15.9000,30.0000,-21.0900,17.2400,4.1200,-0.2673,1.8511,0.3774,1.1875,47.1875,34.5625,349.5625,-1.8750,141.1875,0
1776973762.952,8.6095,-1.4030,1.8651,-0.4980,1.2031,1.0363,-63.1500,40.5000,0.1500,10.7093,14.1880,-8.0685,1.9897,-0.2388,0.1487,-62.2500,15.9000,30.0000,-18.1800,11.9600,3.5200,1.1912,1.1345,0.9261,1.1875,47.1875,34.5625,350.3125,-1.7500,140.5625,0
1776973762.957,8.6095,-1.4030,1.8651,-0.4980,1.2031,1.0363,-65.5500,39.4500,1.8000,8.5617,10.0580,-5.4899,2.0408,-0.3717,0.1178,-62.2500,15.9000,30.0000,-18.1800,11.9600,3.5200,1.1912,1.1345,0.9261,1.1875,47.1875,34.5625,351.0625,-2.0000,139.3125,0
1776973762.965,10.2999,0.9026,5.5785,0.3267,1.4477,1.2185,-65.5500,39.4500,1.8000,7.8937,6.1052,-2.5618,1.2084,1.2883,0.1151,-61.5000,13.6500,30.4500,-16.1500,3.2400,1.5700,2.2875,0.3382,1.1705,1.1875,47.1875,34.5625,351.3750,-2.6875,139.1875,0
1776973762.975,12.8401,6.6702,-0.3567,0.2995,1.0531,1.2926,-66.0000,37.5000,4.3500,9.5505,2.0949,0.9170,0.9862,0.0234,0.2217,-60.6000,11.2500,30.6000,-0.8700,-9.6700,-4.9400,0.1974,-0.9348,0.8367,1.1875,47.1875,34.5625,351.3750,-2.6875,139.1875,0
1776973762.979,12.5863,9.1530,-0.3903,-0.2494,0.6947,0.8817,-66.0000,37.5000,4.3500,9.5505,2.0949,0.9170,0.9862,0.0234,0.2217,-60.6000,11.2500,30.6000,-0.8700,-9.6700,-4.9400,0.1974,-0.9348,0.8367,1.1875,47.1875,34.5625,351.3750,-2.6875,139.1875,0
1776973762.985,12.5863,9.1530,-0.3903,-0.2494,0.6947,0.8817,-66.0000,37.5000,4.3500,6.5003,0.1532,2.8611,0.2966,1.1018,0.4930,-59.8500,10.0500,28.0500,-4.0000,0.0700,-13.6400,-3.8288,-2.6136,2.1598,-4.6875,49.7500,35.1875,351.9375,-4.5625,141.3125,0
1776973762.989,11.5041,8.6550,-3.1125,-0.1332,0.4271,0.2697,-65.4000,36.9000,4.9500,6.5003,0.1532,2.8611,0.2966,1.1018,0.4930,-59.8500,10.0500,28.0500,-4.0000,0.0700,-13.6400,-3.8288,-2.6136,2.1598,-4.6875,49.7500,35.1875,351.9375,-4.5625,141.3125,0
1776973762.994,11.5041,8.6550,-3.1125,-0.1332,0.4271,0.2697,-64.5000,37.0500,6.1500,7.2544,0.1197,2.7821,-0.1692,1.1634,0.6438,-61.2000,9.9000,31.0500,-1.1300,-11.0100,-10.9200,-3.8430,-2.6976,1.9471,-4.6875,49.7500,35.1875,352.3750,-6.4375,143.4375,0
1776973763.004,8.8418,4.8195,-0.3328,1.6907,0.1183,0.0099,-64.5000,37.0500,6.1500,6.9001,0.7661,2.7174,-0.2710,0.8823,0.8274,-61.2000,9.9000,31.0500,-3.0800,-5.3600,-4.8900,-3.1601,-2.0900,1.4421,-4.6875,49.7500,35.1875,352.6875,-7.8125,145.1875,0
1776973763.011,7.6567,-0.6369,-1.9369,2.6782,0.4767,0.2710,-64.3500,36.1500,4.5000,6.9001,0.7661,2.7174,-0.2710,0.8823,0.8274,-62.1000,15.0000,28.5000,-6.5200,6.0000,-8.1300,-3.5561,-1.8217,2.4849,-4.6875,49.7500,35.1875,353.6250,-9.4375,147.2500,0
1776973763.016,7.6567,-0.6369,-1.9369,2.6782,0.4767,0.2710,-64.3500,36.1500,4.5000,8.3175,0.9361,1.8292,0.1151,1.1109,1.2161,-62.1000,15.0000,28.5000,-6.5200,6.0000,-8.1300,-3.5561,-1.8217,2.4849,-4.6875,49.7500,35.1875,354.3125,-10.8125,149.3125,0
1776973763.025,12.1338,0.0934,-4.2306,2.0680,0.6267,0.6083,-64.8000,36.1500,4.5000,12.5648,0.6560,0.5004,0.6632,0.8775,1.7595,-63.1500,13.8000,27.3000,-4.2900,3.1000,-8.7000,-3.5496,-1.6821,2.0235,-4.6875,49.7500,35.1875,354.3125,-10.8125,149.3125,0
1776973763.030,15.9502,0.1508,-8.9352,0.3834,0.5116,0.8005,-64.8000,37.0500,3.3000,12.5648,0.6560,0.5004,0.6632,0.8775,1.7595,-63.1500,16.0500,28.8000,-4.2900,3.1000,-8.7000,-3.5496,-1.6821,2.0235,1.7500,49.1875,39.5000,354.3750,-11.8125,150.7500,0
1776973763.035,15.9502,0.1508,-8.9352,0.3834,0.5116,0.8005,-64.8000,37.0500,3.3000,15.3444,-0.1748,0.0120,1.4437,0.5910,2.1637,-63.1500,16.0500,28.8000,5.3400,2.0200,-10.9700,-2.6322,-1.6133,0.8945,1.7500,49.1875,39.5000,354.3750,-11.8125,150.7500,0
1776973763.040,17.5088,-2.9736,-5.9807,0.4104,0.5281,0.9041,-64.8000,37.0500,3.3000,15.3444,-0.1748,0.0120,1.4437,0.5910,2.1637,-64.6500,18.7500,28.8000,5.3400,2.0200,-10.9700,-2.6322,-1.6133,0.8945,1.7500,49.1875,39.5000,354.3125,-13.1250,151.6875,0
1776973763.045,17.5088,-2.9736,-5.9807,0.4104,0.5281,0.9041,-64.8000,37.0500,3.3000,18.4808,-0.8739,-1.2330,2.2074,0.7560,2.1197,-64.6500,18.7500,28.8000,-4.9100,6.7200,-15.1000,-1.7159,-2.2962,0.6283,1.7500,49.1875,39.5000,354.3125,-13.1250,151.6875,0
1776973763.051,15.2678,-4.1803,1.4724,1.0325,0.8452,0.9819,-65.8500,36.4500,4.2000,18.4808,-0.8739,-1.2330,2.2074,0.7560,2.1197,-66.6000,18.9000,29.2500,-15.1800,6.1600,-18.2200,-0.8868,-3.2507,1.1421,1.7500,49.1875,39.5000,354.4375,-15.0000,152.0625,0
1776973763.056,14.5807,-1.4653,1.8076,1.0325,0.8452,0.9819,-66.9000,36.4500,3.4500,22.1392,-0.4693,-2.9856,2.5143,0.6859,1.9380,-66.6000,18.9000,29.2500,-15.1800,6.1600,-18.2200,-0.8868,-3.2507,1.1421,1.7500,49.1875,39.5000,354.9375,-17.0000,152.6250,0
1776973763.065,14.5807,-1.4653,1.8076,0.2888,1.1445,1.0965,-66.9000,36.4500,3.4500,20.1855,1.4198,-3.6176,2.8626,0.3118,1.4743,-66.6000,18.9000,29.2500,-17.7500,-5.0100,-17.8600,-0.8825,-3.0521,1.7999,1.7500,49.1875,39.5000,355.5625,-18.5625,153.3125,0
1776973763.075,11.4371,0.4429,2.1237,0.1636,1.1652,1.0624,-67.6500,36.1500,3.7500,14.6765,3.8595,-3.3662,2.9423,0.3664,0.6137,-66.4500,18.3000,26.7000,-6.1200,-4.9300,-9.7300,-1.1606,-2.3507,1.8380,1.7500,49.1875,39.5000,355.5625,-18.5625,153.3125,0
1776973763.080,11.4371,0.4429,2.1237,0.8127,1.0669,1.0309,-67.6500,37.3500,4.5000,14.6765,3.8595,-3.3662,2.9423,0.3664,0.6137,-65.1000,16.9500,28.6500,-6.1200,-4.9300,-9.7300,-1.1606,-2.3507,1.8380,1.7500,49.1875,39.5000,355.8750,-19.8750,153.9375,0
1776973763.085,9.4140,3.4453,1.7478,0.8127,1.0669,1.0309,-67.6500,37.3500,4.5000,8.5210,3.1867,-1.0534,1.8335,1.2753,-0.0754,-65.1000,16.9500,28.6500,-8.7400,2.5300,-13.4000,-1.0025,-1.9755,1.2163,8.1875,45.0000,43.1875,355.8750,-19.8750,153.9375,0
1776973763.090,9.4140,3.4453,1.7478,0.9371,0.9030,1.0658,-66.9000,34.9500,3.4500,8.5210,3.1867,-1.0534,1.8335,1.2753,-0.0754,-62.5500,13.6500,29.7000,-8.7400,2.5300,-13.4000,-1.0025,-1.9755,1.2163,8.1875,45.0000,43.1875,356.1875,-20.6875,154.4375,0
1776973763.095,7.9942,3.8403,3.3591,0.9371,0.9030,1.0658,-66.9000,34.9500,3.4500,7.0533,0.4166,0.1556,-0.0080,1.2758,-0.3736,-62.5500,13.6500,29.7000,-7.3300,-0.4300,-11.4300,-0.7483,-1.2305,0.9490,8.1875,45.0000,43.1875,356.1875,-20.6875,154.4375,0
1776973763.103,7.9942,3.8403,3.3591,0.7256,0.7266,0.9113,-67.3500,34.9500,4.9500,3.8355,-2.8778,2.2936,-1.9225,2.1109,-0.4639,-60.7500,10.2000,31.0500,-4.0400,-5.4400,-8.0800,-0.4843,-0.8105,0.6829,8.1875,45.0000,43.1875,356.4375,-21.3125,154.7500,0
1776973763.108,7.7883,1.1612,4.4388,0.5135,0.6390,0.8468,-67.3500,34.9500,4.9500,3.8355,-2.8778,2.2936,-1.9225,2.1109,-0.4639,-60.7500,10.2000,31.0500,-4.0400,-5.4400,-8.0800,-0.4843,-0.8105,0.6829,8.1875,45.0000,43.1875,356.5625,-21.7500,155.0625,0
1776973763.115,7.3670,-0.5195,3.3686,0.4133,0.6358,0.8724,-67.3500,34.9500,4.9500,6.8307,-4.3694,0.0455,-3.3739,2.1418,-0.2260,-60.7500,10.2000,31.0500,-3.8100,-2.7900,-8.4400,-0.4625,-0.7090,0.5356,8.1875,45.0000,43.1875,356.6875,-22.2500,155.3750,0
1776973763.125,8.9232,-1.0750,1.8387,0.1106,0.7288,0.8026,-68.4000,33.0000,4.5000,6.0693,-9.2344,2.3774,-2.9276,0.8567,-0.2713,-59.2500,5.4000,33.9000,-4.4400,-3.8700,-8.2600,-0.5400,-0.7516,0.5192,8.1875,45.0000,43.1875,356.6875,-22.2500,155.3750,0
1776973763.130,8.9232,-1.0750,1.8387,0.1106,0.7288,0.8026,-69.6000,34.2000,4.2000,5.5210,-8.0134,7.1898,-0.9758,1.5988,0.0701,-60.9000,6.7500,33.4500,-4.4400,-3.8700,-8.2600,-0.5400,-0.7516,0.5192,8.1875,45.0000,43.1875,356.6875,-22.2500,155.3750,0
1776973763.135,9.6726,-0.9553,1.3144,-0.0195,0.6544,0.6635,-69.6000,34.2000,4.2000,5.5210,-8.0134,7.1898,-0.9758,1.5988,0.0701,-60.9000,6.7500,33.4500,-4.3600,-3.9400,-8.3300,-0.4407,-0.6360,0.5105,17.5000,43.7500,43.8750,356.8750,-22.6875,155.6875,0
1776973763.140,9.6726,-0.9553,1.3144,-0.0195,0.6544,0.6635,-68.1000,33.0000,5.7000,5.7341,-3.5506,4.9823,-0.5428,1.6097,0.6939,-63.3000,10.6500,32.5500,-4.3600,-3.9400,-8.3300,-0.4407,-0.6360,0.5105,17.5000,43.7500,43.8750,356.8750,-22.6875,155.6875,0
1776973763.145,9.8474,-0.1101,0.8212,-0.1775,0.6952,0.5782,-68.1000,33.0000,5.7000,5.7341,-3.5506,4.9823,-0.5428,1.6097,0.6939,-63.3000,10.6500,32.5500,-4.2900,-2.9900,-8.9000,-0.4963,-0.4843,0.4658,17.5000,43.7500,43.8750,357.0000,-23.0625,156.0000,0
1776973763.150,9.8474,-0.1101,0.8212,-0.1775,0.6952,0.5782,-69.4500,34.0500,5.5500,8.1977,-2.0303,1.9369,-1.4679,0.7011,0.9233,-65.7000,16.5000,30.9000,-4.2900,-2.9900,-8.9000,-0.5476,-0.4331,0.4222,17.5000,43.7500,43.8750,357.1250,-23.3750,156.3750,0
1776973763.156,10.0078,1.1995,0.9984,-0.3792,0.7045,0.5556,-69.4500,34.0500,5.5500,8.1977,-2.0303,1.9369,-1.4679,0.7011,0.9233,-65.7000,16.5000,30.9000,-4.5200,-3.2200,-9.0100,-0.5476,-0.4331,0.4222,17.5000,43.7500,43.8750,357.2500,-23.6875,156.6875,0
1776973763.165,9.9886,1.8651,1.6688,-0.5556,0.6422,0.5500,-70.0500,32.5500,4.9500,9.3087,-2.2889,-1.0774,-2.5658,0.0629,1.0059,-67.2000,17.2500,30.1500,-4.6900,-3.2000,-8.8300,-0.5323,-0.4342,0.3709,17.5000,43.7500,43.8750,357.2500,-23.6875,156.6875,0
1776973763.175,9.6917,2.5067,1.8890,-0.5785,0.5684,0.5772,-70.0500,33.0000,7.5000,10.8362,-2.8012,-0.5291,-2.2990,-0.4074,1.1072,-67.2000,17.2500,30.1500,-4.3800,-3.1700,-8.6300,-0.4658,-0.3883,0.2967,17.5000,43.7500,43.8750,357.3125,-23.9375,157.0000,0
1776973763.180,9.6917,2.5067,1.8890,-0.5785,0.5684,0.5772,-70.0500,33.0000,7.5000,11.6358,-1.5969,1.2809,-1.4765,-0.4080,1.0469,-70.2000,20.4000,29.2500,-4.3800,-3.1700,-8.6300,-0.4658,-0.3883,0.2967,17.5000,43.7500,43.8750,357.3750,-24.1875,157.1875,0
1776973763.185,9.5409,3.0215,1.5993,-0.4093,0.4834,0.6009,-70.0500,33.0000,7.5000,11.6358,-1.5969,1.2809,-1.4765,-0.4080,1.0469,-70.2000,20.4000,29.2500,-4.5100,-3.3200,-8.5000,-0.3785,-0.3229,0.2487,19.1875,42.3750,44.5625,357.3750,-24.1875,157.1875,0
1776973763.190,9.5409,3.0215,1.5993,-0.4093,0.4834,0.6009,-70.5000,32.4000,6.9000,11.8082,1.6735,3.8738,-0.4602,-0.1881,0.7890,-70.2000,21.1500,26.8500,-4.5100,-3.3200,-8.5000,-0.3785,-0.3229,0.2487,19.1875,42.3750,44.5625,357.4375,-24.3125,157.4375,0
1776973763.195,9.6175,3.1460,1.3168,-0.1279,0.4860,0.6219,-70.5000,32.4000,6.9000,11.8082,1.6735,3.8738,-0.4602,-0.1881,0.7890,-70.2000,21.1500,26.8500,-4.4500,-3.4500,-8.5100,-0.3131,-0.2247,0.2127,19.1875,42.3750,44.5625,357.4375,-24.3125,157.4375,0
1776973763.202,10.1586,2.5905,1.2186,0.0938,0.4759,0.6440,-70.5000,32.4000,6.9000,9.8593,3.8595,5.9735,-0.1484,0.3464,0.4565,-70.8000,21.0000,24.9000,-4.4500,-3.0900,-8.6200,-0.2705,-0.2127,0.1778,19.1875,42.3750,44.5625,357.4375,-24.4375,157.5625,0
1776973763.207,10.1586,2.5905,1.2186,0.0938,0.4759,0.6440,-70.8000,30.3000,8.2500,9.3350,5.2433,7.2401,-0.5558,0.5388,0.2356,-71.5500,20.5500,26.2500,-4.4500,-3.0900,-8.6200,-0.2705,-0.2127,0.1778,19.1875,42.3750,44.5625,357.5000,-24.6250,157.6875,0
1776973763.215,9.8713,2.0255,1.5131,0.1271,0.4543,0.6395,-70.8000,30.3000,8.2500,9.3350,5.2433,7.2401,-0.5558,0.5388,0.2356,-71.5500,20.5500,26.2500,-4.4000,-3.1100,-8.5600,-0.2094,-0.2149,0.1429,19.1875,42.3750,44.5625,357.5000,-24.7500,157.8125,0
1776973763.225,9.5600,1.2546,1.8124,0.0003,0.4189,0.5907,-70.9500,31.2000,8.4000,8.9878,5.1667,6.3877,-0.9638,0.5820,0.1391,-71.5500,20.5500,26.2500,-4.1500,-3.1300,-8.4500,-0.1527,-0.1822,0.1134,19.1875,42.3750,44.5625,357.5000,-24.7500,157.8125,0
1776973763.230,9.2344,0.9744,1.9034,-0.2995,0.4186,0.5684,-71.1000,31.5000,8.7000,8.5281,4.6136,5.1667,-1.4085,0.7392,0.1460,-71.1000,20.5500,26.7000,-4.1500,-3.1300,-8.4500,-0.1527,-0.1822,0.1134,19.1875,42.3750,44.5625,357.5000,-24.7500,157.8125,0
1776973763.235,9.2344,0.9744,1.9034,-0.2995,0.4186,0.5684,-71.1000,31.5000,8.7000,8.5281,4.6136,5.1667,-1.4402,0.8095,0.2012,-71.1000,20.5500,26.7000,-4.2500,-3.3000,-8.3400,-0.1091,-0.1647,0.0960,20.0000,41.2500,44.5625,357.5625,-24.8125,157.8750,0
1776973763.240,9.1554,1.2043,1.4557,-0.6707,0.4130,0.5886,-71.1000,32.2500,8.2500,8.5593,4.2425,3.5027,-1.4402,0.8095,0.2012,-72.6000,20.5500,27.0000,-4.2500,-3.3000,-8.3400,-0.1091,-0.1647,0.0960,20.0000,41.2500,44.5625,357.5625,-24.8125,157.8750,0
1776973763.245,9.1554,1.2043,1.4557,-0.6707,0.4130,0.5886,-71.1000,32.2500,8.2500,8.7867,4.1970,2.1739,-1.3166,0.9033,0.3091,-72.6000,20.5500,27.0000,-4.1700,-3.6700,-8.0300,-0.0840,-0.1451,0.0884,20.0000,41.2500,44.5625,357.5625,-24.9375,157.9375,0
1776973763.250,9.2943,2.2960,0.8978,-0.8849,0.4541,0.6283,-71.7000,31.2000,10.6500,8.7867,4.1970,2.1739,-1.3166,0.9033,0.3091,-72.0000,22.2000,29.2500,-4.1700,-3.6700,-8.0300,-0.0927,-0.1222,0.0905,20.0000,41.2500,44.5625,357.5625,-25.0000,158.0000,0
1776973763.256,9.2943,2.2960,0.8978,-0.8849,0.4541,0.6283,-71.7000,31.2000,10.6500,8.9399,3.9600,1.1277,-1.0792,0.9142,0.3864,-72.7500,23.7000,31.8000,-4.1100,-3.6700,-8.0500,-0.0927,-0.1222,0.0905,20.0000,41.2500,44.5625,357.6250,-25.0625,158.0625,0
1776973763.265,9.2129,3.4644,0.5459,-0.9635,0.4676,0.6654,-71.7000,29.7000,9.1500,9.0956,2.4469,0.1844,-0.8356,0.9276,0.4151,-72.7500,23.7000,31.8000,-4.1000,-3.4600,-8.1600,-0.1167,-0.1134,0.0982,20.0000,41.2500,44.5625,357.6250,-25.1875,158.1875,0
1776973763.275,8.9495,4.1132,-0.0335,-0.9697,0.4463,0.7083,-71.7000,29.7000,9.1500,9.1099,2.4277,-1.9393,-0.8559,0.9038,0.4743,-72.7500,23.7000,31.8000,-4.0700,-3.6000,-8.0500,-0.1385,-0.0960,0.1091,20.0000,41.2500,44.5625,357.6250,-25.1875,158.1875,0
1776973763.280,8.7987,4.2737,-0.1748,-0.7797,0.4767,0.7221,-71.8500,29.5500,10.8000,9.1099,2.4277,-1.9393,-0.8559,0.9038,0.4743,-72.7500,23.7000,31.8000,-4.0700,-3.6000,-8.0500,-0.1385,-0.0960,0.1091,20.0000,41.2500,44.5625,357.6250,-25.1875,158.1875,0
1776973763.285,8.7987,4.2737,-0.1748,-0.7797,0.4767,0.7221,-71.8500,29.5500,10.8000,9.7659,0.3711,-1.8866,-0.7514,1.2183,0.2697,-72.7500,23.7000,31.8000,-4.1200,-3.5300,-8.0700,-0.1625,-0.0960,0.1244,20.6875,41.0000,44.5000,357.6875,-25.2500,158.3125,0
1776973763.290,9.0621,4.3048,-0.3519,-0.5814,0.4938,0.7349,-73.6500,28.9500,11.1000,9.7659,0.3711,-1.8866,-0.7514,1.2183,0.2697,-74.7000,25.5000,39.1500,-4.1200,-3.5300,-8.0700,-0.1625,-0.0960,0.1244,20.6875,41.0000,44.5000,357.6875,-25.2500,158.3125,0
1776973763.295,9.0621,4.3048,-0.3519,-0.5814,0.4938,0.7349,-73.6500,28.9500,11.1000,9.7803,1.5251,2.2984,0.3160,0.7560,0.2166,-74.7000,25.5000,39.1500,-3.9700,-3.3500,-8.1200,-0.1789,-0.1025,0.1396,20.6875,41.0000,44.5000,357.7500,-25.3125,158.4375,0
1776973763.300,8.9926,3.9409,-0.1844,-0.3078,0.4951,0.7733,-72.0000,29.2500,10.3500,9.7803,1.5251,2.2984,0.3160,0.7560,0.2166,-75.0000,27.1500,40.0500,-3.9700,-3.3500,-8.1200,-0.1942,-0.1167,0.1549,20.6875,41.0000,44.5000,357.7500,-25.4375,158.5625,0
1776973763.306,8.8538,3.2010,0.5171,-0.3078,0.4951,0.7733,-72.0000,29.2500,10.3500,9.5864,2.8539,3.0502,0.3858,0.5209,0.2569,-73.5000,26.4000,42.9000,-4.3900,-3.3000,-8.3200,-0.1942,-0.1167,0.1549,20.6875,41.0000,44.5000,357.7500,-25.4375,158.5625,0
1776973763.314,8.8538,3.2010,0.5171,-0.1551,0.5433,0.8258,-72.0000,28.0500,11.8500,9.1004,2.8539,2.3320,0.1647,0.4410,0.2214,-73.5000,26.4000,42.9000,-4.3500,-3.2100,-8.2500,-0.2149,-0.1342,0.1713,20.6875,41.0000,44.5000,357.8125,-25.5000,158.6875,0
1776973763.320,9.2057,2.0782,1.0056,-0.1231,0.5705,0.8513,-71.8500,28.6500,11.5500,9.1004,2.8539,2.3320,0.1647,0.4410,0.2214,-71.8500,25.5000,45.6000,-4.3500,-3.2100,-8.2500,-0.2094,-0.1233,0.1614,20.6875,41.0000,44.5000,357.8750,-25.6250,158.8125,0
1776973763.326,9.2871,1.3168,1.2450,-0.1431,0.5814,0.8559,-71.8500,28.6500,11.5500,9.0908,2.4421,1.4772,-0.2230,0.4402,0.1647,-71.8500,25.5000,45.6000,-4.2200,-3.2300,-8.2100,-0.2094,-0.1233,0.1614,20.6875,41.0000,44.5000,357.8750,-25.6250,158.8125,0
1776973763.331,9.2871,1.3168,1.2450,-0.1431,0.5814,0.8559,-72.9000,27.3000,11.4000,9.0908,2.4421,1.4772,-0.2230,0.4402,0.1647,-71.8500,25.5000,45.6000,-4.2200,-3.2300,-8.2100,-0.2094,-0.1233,0.1614,21.7500,40.2500,44.5000,357.9375,-25.6875,159.0000,0
1776973763.336,9.3637,1.2378,1.5850,-0.1700,0.5966,0.8521,-72.9000,27.3000,11.4000,9.1171,1.7837,1.1468,-0.6574,0.4242,0.1228,-71.1000,21.0000,49.8000,-4.1700,-3.2100,-8.2300,-0.2160,-0.1233,0.1658,21.7500,40.2500,44.5000,357.9375,-25.6875,159.0000,0
1776973763.341,9.3637,1.2378,1.5850,-0.1700,0.5966,0.8521,-72.9000,27.3000,11.4000,9.1171,1.7837,1.1468,-0.6574,0.4242,0.1228,-71.1000,21.0000,49.8000,-4.1700,-3.2100,-8.2300,-0.2160,-0.1233,0.1658,21.7500,40.2500,44.5000,358.0000,-25.8125,159.1250,0
1776973763.346,9.4260,0.8571,1.4940,-0.2920,0.5817,0.8148,-72.9000,27.3000,11.4000,9.1626,0.6967,1.4198,-0.8591,0.4818,0.0514,-70.0500,17.5500,49.8000,-4.1300,-3.2400,-8.0900,-0.2291,-0.1353,0.1713,21.7500,40.2500,44.5000,358.0000,-25.8125,159.1250,0
1776973763.351,9.4260,0.8571,1.4940,-0.2920,0.5817,0.8148,-73.6500,26.1000,11.1000,9.1626,0.6967,1.4198,-0.8591,0.4818,0.0514,-70.0500,17.5500,49.8000,-4.1300,-3.2400,-8.0900,-0.2313,-0.1429,0.1767,21.7500,40.2500,44.5000,358.0625,-25.9375,159.2500,0
1776973763.356,9.1937,0.7230,1.7645,-0.3930,0.5836,0.8050,-73.6500,26.1000,11.1000,8.8202,-0.0527,1.6305,-0.8607,0.5446,-0.0205,-68.5500,13.8000,50.1000,-3.9500,-3.5300,-8.0500,-0.2313,-0.1429,0.1767,21.7500,40.2500,44.5000,358.0625,-25.9375,159.2500,0
1776973763.365,9.4451,0.5435,1.8316,-0.5031,0.6006,0.8215,-73.6500,26.1000,11.1000,9.2320,0.5674,2.1476,-1.0144,0.5899,0.0091,-68.4000,12.9000,47.8500,-4.3100,-3.2500,-8.1400,-0.2662,-0.1614,0.1887,21.7500,40.2500,44.5000,358.0625,-26.0000,159.4375,0
1776973763.370,9.4451,0.5435,1.8316,-0.5031,0.6006,0.8215,-74.1000,26.7000,13.0500,9.2320,0.5674,2.1476,-1.0144,0.5899,0.0091,-68.4000,12.9000,47.8500,-4.3100,-3.2500,-8.1400,-0.2542,-0.1571,0.1909,21.7500,40.2500,44.5000,358.1250,-26.1250,159.6250,0
1776973763.376,9.4475,0.5411,1.3671,-0.6310,0.5614,0.8268,-74.1000,26.7000,13.0500,8.9040,1.5778,1.3001,-1.3270,0.6137,0.0893,-68.4000,12.9000,47.8500,-4.2900,-3.3200,-8.1700,-0.2542,-0.1571,0.1909,21.7500,40.2500,44.5000,358.1250,-26.1250,159.6250,0
1776973763.381,9.4475,0.5411,1.3671,-0.6310,0.5614,0.8268,-74.8500,26.4000,11.2500,8.9735,1.4246,0.7422,-1.4682,0.6555,0.1564,-68.4000,12.9000,47.8500,-4.2900,-3.3200,-8.1700,-0.2596,-0.1713,0.1909,22.1875,39.5625,44.7500,358.1875,-26.2500,159.7500,0
1776973763.386,9.3925,0.7997,1.0367,-0.6107,0.5580,0.8466,-74.8500,26.4000,11.2500,8.9735,1.4246,0.7422,-1.4682,0.6555,0.1564,-66.0000,14.2500,47.2500,-4.4800,-2.8700,-8.3200,-0.2596,-0.1713,0.1909,22.1875,39.5625,44.7500,358.1875,-26.2500,159.7500,0
1776973763.391,9.3925,0.7997,1.0367,-0.6107,0.5580,0.8466,-74.1000,25.5000,12.7500,9.0405,0.9194,0.7614,-1.4402,0.6230,0.1767,-66.0000,14.2500,47.2500,-4.4800,-2.8700,-8.3200,-0.2367,-0.1636,0.1833,22.1875,39.5625,44.7500,358.2500,-26.3750,159.9375,0
1776973763.396,9.2727,1.0056,1.1492,-0.5057,0.5764,0.8521,-74.1000,25.5000,12.7500,9.0405,0.9194,0.7614,-1.4402,0.6230,0.1767,-67.5000,12.0000,46.9500,-4.5700,-3.0400,-8.3100,-0.2367,-0.1636,0.1833,22.1875,39.5625,44.7500,358.2500,-26.3750,159.9375,0
1776973763.403,9.3182,0.9122,1.0942,-0.5177,0.5646,0.8497,-73.9500,25.0500,13.6500,8.7364,0.2298,1.7095,-1.2574,0.5220,0.2110,-67.5000,12.0000,46.9500,-4.6000,-2.9500,-8.3000,-0.2193,-0.1418,0.1538,22.1875,39.5625,44.7500,358.3125,-26.5000,160.0625,0
1776973763.407,9.3182,0.9122,1.0942,-0.5177,0.5646,0.8497,-73.9500,25.0500,13.6500,8.7364,0.2298,1.7095,-1.2574,0.5220,0.2110,-68.7000,13.9500,45.3000,-4.6000,-2.9500,-8.3000,-0.2193,-0.1418,0.1538,22.1875,39.5625,44.7500,358.3125,-26.5625,160.1875,0
1776973763.416,9.1650,0.9409,1.0439,-0.5012,0.5502,0.8601,-73.9500,25.0500,13.6500,8.9783,0.4334,2.3655,-1.0645,0.4517,0.2574,-68.2500,13.5000,44.8500,-4.6000,-2.7600,-8.3800,-0.1702,-0.1145,0.1189,22.1875,39.5625,44.7500,358.3750,-26.6250,160.3125,0
1776973763.425,9.2680,0.8045,1.1301,-0.4149,0.5987,0.8476,-74.5500,24.0000,14.2500,9.0333,0.6488,2.5259,-0.9811,0.3643,0.2793,-66.6000,13.2000,43.9500,-4.4500,-2.8600,-8.3500,-0.1516,-0.1058,0.1025,22.1875,39.5625,44.7500,358.3750,-26.6250,160.3125,0
1776973763.430,9.3877,1.3144,1.5778,-0.4149,0.5987,0.8476,-74.5500,24.0000,14.2500,8.9830,1.1229,2.5786,-0.9507,0.3384,0.2737,-66.6000,13.2000,43.9500,-4.4500,-2.8600,-8.3500,-0.1516,-0.1058,0.1025,22.1875,39.5625,44.7500,358.3750,-26.6250,160.3125,0
1776973763.435,9.3877,1.3144,1.5778,-0.3645,0.5652,0.8236,-74.5500,24.0000,14.2500,8.9830,1.1229,2.5786,-0.9507,0.3384,0.2737,-66.6000,13.2000,43.9500,-4.5200,-2.8000,-8.3300,-0.1320,-0.0971,0.0840,23.1875,38.7500,43.6875,358.3750,-26.6875,160.3750,0
1776973763.440,9.3541,1.0511,1.9489,-0.3645,0.5652,0.8236,-75.9000,23.8500,13.9500,9.0740,1.3216,2.8563,-0.9515,0.3208,0.2822,-66.6000,13.2000,43.9500,-4.5200,-2.8000,-8.3300,-0.1320,-0.0971,0.0840,23.1875,38.7500,43.6875,358.3750,-26.6875,160.3750,0
1776973763.445,9.3541,1.0511,1.9489,-0.3688,0.6089,0.7898,-75.9000,23.8500,13.9500,9.0740,1.3216,2.8563,-0.9515,0.3208,0.2822,-69.0000,11.2500,44.1000,-4.2500,-3.1500,-8.2700,-0.1265,-0.0949,0.0764,23.1875,38.7500,43.6875,358.3750,-26.7500,160.5000,0
1776973763.450,9.6941,0.6153,2.2529,-0.3512,0.6190,0.7791,-75.3000,22.0500,14.8500,8.8729,1.2713,3.0071,-1.0110,0.3227,0.2891,-69.0000,11.2500,44.1000,-4.2500,-3.1500,-8.2700,-0.1178,-0.1025,0.0742,23.1875,38.7500,43.6875,358.3750,-26.8125,160.5625,0
1776973763.456,9.6941,0.6153,2.2529,-0.3512,0.6190,0.7791,-75.3000,22.0500,14.8500,8.8729,1.2713,3.0071,-1.0110,0.3227,0.2891,-68.2500,10.0500,43.8000,-4.2900,-3.2000,-8.1800,-0.1178,-0.1025,0.0742,23.1875,38.7500,43.6875,358.4375,-26.9375,160.6250,0
1776973763.465,9.5313,-0.2514,2.4876,-0.3842,0.5985,0.7568,-75.6000,22.5000,15.6000,8.8490,1.0918,3.0119,-1.0616,0.3685,0.2995,-68.2500,12.0000,43.3500,-4.2000,-3.2600,-8.1900,-0.0971,-0.1167,0.0818,23.1875,38.7500,43.6875,358.4375,-27.0000,160.6875,0
1776973763.476,9.5505,-0.8691,2.3463,-0.4338,0.6145,0.7647,-76.5000,22.8000,15.6000,8.6215,0.9529,2.5977,-1.0248,0.3632,0.3246,-67.5000,10.0500,44.4000,-4.5800,-2.9200,-8.2500,-0.1036,-0.1298,0.0960,23.1875,38.7500,43.6875,358.4375,-27.0000,160.6875,0
1776973763.480,9.5026,-0.7829,1.8268,-0.5550,0.5790,0.7695,-76.2000,21.0000,15.4500,8.5545,0.7494,2.3128,-1.0312,0.5340,0.3568,-67.5000,10.0500,44.4000,-4.5800,-2.9200,-8.2500,-0.1036,-0.1298,0.0960,23.1875,38.7500,43.6875,358.5000,-27.0625,160.7500,0
1776973763.486,9.5026,-0.7829,1.8268,-0.5550,0.5790,0.7695,-76.2000,21.0000,15.4500,8.5545,0.7494,2.3128,-1.0312,0.5340,0.3568,-67.5000,10.0500,44.4000,-4.6400,-2.8400,-8.2700,-0.1036,-0.1331,0.0993,24.0000,39.1875,46.0000,358.5000,-27.0625,160.7500,0
1776973763.490,9.1889,-0.1963,1.6735,-0.6254,0.5812,0.7557,-75.3000,20.4000,16.3500,8.6742,0.4381,1.9489,-1.0062,0.5524,0.3837,-67.5000,10.0500,44.4000,-4.6400,-2.8400,-8.2700,-0.1036,-0.1331,0.0993,24.0000,39.1875,46.0000,358.5000,-27.1875,160.8125,0
1776973763.495,9.1889,-0.1963,1.6735,-0.6254,0.5812,0.7557,-75.3000,20.4000,16.3500,8.6742,0.4381,1.9489,-1.0062,0.5524,0.3837,-69.7500,7.8000,45.1500,-4.6300,-2.7900,-8.2800,-0.1047,-0.1244,0.0938,24.0000,39.1875,46.0000,358.5000,-27.1875,160.8125,0
1776973763.500,9.0166,0.5483,1.3743,-0.6305,0.5950,0.7418,-75.3000,20.4000,16.3500,8.9567,0.3903,1.7166,-0.9633,0.5772,0.4082,-69.7500,7.8000,45.1500,-4.6300,-2.7900,-8.2800,-0.0982,-0.1124,0.0818,24.0000,39.1875,46.0000,358.5625,-27.2500,160.8750,0
1776973763.506,9.0166,0.5483,1.3743,-0.6305,0.5950,0.7418,-75.3000,20.4000,16.3500,9.0740,0.5339,1.6783,-0.8932,0.5734,0.4026,-69.1500,9.1500,45.7500,-4.6100,-2.8000,-8.2500,-0.0982,-0.1124,0.0818,24.0000,39.1875,46.0000,358.5625,-27.3125,160.9375,0
1776973763.516,8.9016,1.0726,1.3934,-0.5868,0.6299,0.7424,-77.4000,20.7000,16.2000,9.0740,0.5339,1.6783,-0.8625,0.5955,0.3861,-68.5500,9.7500,46.6500,-4.5100,-2.7900,-8.3100,-0.0938,-0.0916,0.0687,24.0000,39.1875,46.0000,358.5625,-27.3125,160.9375,0
1776973763.526,9.0884,1.1588,1.3791,-0.5249,0.6654,0.7584,-75.4500,19.0500,17.4000,9.5361,1.5275,1.5706,-0.8492,0.5265,0.3501,-67.5000,8.5500,47.2500,-4.5300,-2.8800,-8.2600,-0.0796,-0.0753,0.0633,24.0000,39.1875,46.0000,358.5625,-27.3750,161.0000,0
1776973763.531,9.4236,1.2139,1.3695,-0.5233,0.6965,0.7887,-76.2000,19.5000,18.0000,9.5361,1.5275,1.5706,-0.8492,0.5265,0.3501,-67.5000,8.5500,47.2500,-4.5300,-2.8800,-8.2600,-0.0796,-0.0753,0.0633,24.0000,39.1875,46.0000,358.5625,-27.4375,161.0625,0
1776973763.536,9.4236,1.2139,1.3695,-0.5233,0.6965,0.7887,-76.2000,19.5000,18.0000,9.6271,1.9944,1.5562,-0.8612,0.4149,0.2944,-68.7000,8.4000,48.1500,-4.4600,-2.9100,-8.1900,-0.0644,-0.0676,0.0611,23.1875,38.7500,45.1875,358.5625,-27.4375,161.0625,0
1776973763.540,9.6151,1.2210,1.5107,-0.5641,0.7242,0.7930,-77.5500,17.4000,18.3000,9.6271,1.9944,1.5562,-0.8612,0.4149,0.2944,-68.7000,8.4000,48.1500,-4.4600,-2.9100,-8.1900,-0.0644,-0.0676,0.0611,23.1875,38.7500,45.1875,358.6250,-27.4375,161.0625,0
1776973763.546,9.6271,0.5794,2.2649,-0.5641,0.7242,0.7930,-77.5500,17.4000,18.3000,9.4140,2.2817,1.5921,-0.8964,0.2912,0.2526,-68.7000,8.4000,48.1500,-4.2100,-3.4700,-8.0700,-0.0415,-0.0774,0.0654,23.1875,38.7500,45.1875,358.6250,-27.4375,161.0625,0
1776973763.550,9.6271,0.5794,2.2649,-0.5788,0.7693,0.7927,-76.0500,17.7000,19.0500,9.4140,2.2817,1.5921,-0.8964,0.2912,0.2526,-68.7000,8.4000,48.1500,-4.2100,-3.4700,-8.0700,-0.0524,-0.0807,0.0753,23.1875,38.7500,45.1875,358.6250,-27.5000,161.1250,0
1776973763.556,10.0269,-0.2777,2.7318,-0.7064,0.7877,0.8532,-76.0500,17.7000,19.0500,9.1889,2.3774,1.7095,-1.0219,0.2856,0.2388,-68.4000,6.9000,48.1500,-4.2300,-3.3600,-8.2400,-0.0524,-0.0807,0.0753,23.1875,38.7500,45.1875,358.6875,-27.5625,161.1875,0
1776973763.566,10.1227,-0.2682,2.2482,-0.7416,0.7893,0.9273,-75.9000,17.5500,19.9500,8.9208,2.3296,2.1332,-1.2265,0.3299,0.2462,-68.5500,6.7500,48.0000,-4.6200,-2.8100,-8.3400,-0.0829,-0.0698,0.0851,23.1875,38.7500,45.1875,358.6875,-27.6250,161.2500,0
1776973763.576,9.9790,0.1628,2.4134,-0.7053,0.8140,0.9832,-75.9000,17.5500,19.9500,8.7939,2.0758,2.9497,-1.3752,0.3280,0.2827,-67.3500,4.2000,49.9500,-4.9600,-2.5300,-8.6100,-0.0796,-0.0600,0.0894,23.1875,38.7500,45.1875,358.6875,-27.6250,161.2500,0
1776973763.580,9.9790,0.1628,2.4134,-0.7053,0.8140,0.9832,-75.6000,16.5000,20.5500,8.7939,2.0758,2.9497,-1.3752,0.3280,0.2827,-68.1000,4.6500,49.9500,-4.9600,-2.5300,-8.6100,-0.0796,-0.0600,0.0894,23.1875,38.7500,45.1875,358.6875,-27.6250,161.2500,0
1776973763.586,10.0413,0.5986,2.1380,-0.6933,0.8103,1.0309,-75.6000,16.5000,20.5500,8.8178,1.8675,3.5793,-1.3965,0.3142,0.3395,-68.1000,4.6500,49.9500,-4.6000,-2.5300,-8.6100,-0.0447,-0.0720,0.0829,24.2500,38.7500,44.3750,358.7500,-27.6875,161.3125,0
1776973763.590,10.0413,0.5986,2.1380,-0.6933,0.8103,1.0309,-75.6000,16.5000,20.5500,8.8178,1.8675,3.5793,-1.3965,0.3142,0.3395,-68.1000,4.6500,49.9500,-4.6000,-2.5300,-8.6100,-0.0447,-0.0720,0.0829,24.2500,38.7500,44.3750,358.7500,-27.6875,161.3125,0
1776973763.595,10.1107,0.6608,1.7502,-0.5846,0.8140,1.0792,-75.6000,16.5000,20.5500,9.1171,1.7047,3.9648,-1.3478,0.2806,0.4018,-68.1000,4.6500,49.9500,-4.4500,-2.6900,-8.5800,0.0142,-0.0513,0.0611,24.2500,38.7500,44.3750,358.7500,-27.6875,161.3125,0
1776973763.604,10.4363,0.3232,1.9417,-0.5846,0.8140,1.0792,-75.1500,14.8500,20.2500,9.4355,1.8076,3.8786,-1.2343,0.2068,0.4434,-69.0000,4.5000,50.8500,-3.8300,-2.3300,-9.3600,0.0785,-0.0938,0.0764,24.2500,38.7500,44.3750,358.8125,-27.7500,161.2500,0
1776973763.608,10.4363,0.3232,1.9417,-0.5489,0.8103,1.1362,-75.1500,14.8500,20.2500,9.4355,1.8076,3.8786,-1.2343,0.2068,0.4434,-69.0000,4.5000,50.8500,-3.8300,-2.3300,-9.3600,0.0785,-0.0938,0.0764,24.2500,38.7500,44.3750,358.8750,-27.8750,161.1875,0
1776973763.616,10.2352,0.0958,1.9632,-0.4922,0.8013,1.1748,-76.0500,14.5500,21.9000,9.5648,2.0853,3.8810,-1.1450,0.1868,0.4607,-67.3500,3.4500,50.7000,-4.2400,-2.7900,-8.8000,0.1691,-0.1680,0.1156,24.2500,38.7500,44.3750,358.9375,-28.0625,161.0625,0
1776973763.626,10.5632,-0.1724,2.6312,-0.4341,0.8383,1.2228,-74.8500,13.8000,21.1500,9.8881,2.3176,3.6943,-1.0461,0.2254,0.4423,-68.2500,3.3000,51.6000,-4.0800,-2.8300,-8.9900,0.2160,-0.3098,0.1200,24.2500,38.7500,44.3750,358.9375,-28.0625,161.0625,0
1776973763.631,10.5632,-0.1724,2.6312,-0.4341,0.8383,1.2228,-74.8500,13.8000,21.1500,9.8881,2.3176,3.6943,-1.0461,0.2254,0.4423,-67.2000,4.5000,51.9000,-4.0800,-2.8300,-8.9900,0.2553,-0.4123,0.1058,25.0000,38.3750,45.5625,359.0000,-28.3125,160.9375,0
1776973763.636,10.9223,0.2801,2.7366,-0.3429,0.8343,1.2766,-75.3000,13.8000,23.4000,10.2999,2.2697,3.4524,-0.9737,0.3032,0.3864,-67.2000,4.5000,51.9000,-4.2600,-2.6200,-8.9600,0.2553,-0.4123,0.1058,25.0000,38.3750,45.5625,359.0000,-28.3125,160.9375,0
1776973763.641,10.9223,0.2801,2.7366,-0.3429,0.8343,1.2766,-75.3000,13.8000,23.4000,10.2999,2.2697,3.4524,-0.9009,0.3299,0.3019,-67.8000,3.7500,49.5000,-4.2600,-2.6200,-8.9600,0.3174,-0.5225,0.0949,25.0000,38.3750,45.5625,359.0625,-28.6250,160.7500,0
1776973763.646,11.2168,0.0407,1.9728,-0.4922,0.8487,1.3302,-75.3000,13.8000,23.4000,10.9104,1.7837,3.2753,-0.9009,0.3299,0.3019,-67.8000,3.7500,49.5000,-4.1200,-2.2900,-9.4500,0.3174,-0.5225,0.0949,25.0000,38.3750,45.5625,359.0625,-28.6250,160.7500,0
1776973763.655,11.1474,-0.3184,1.8028,-0.5569,0.8548,1.3270,-76.6500,12.4500,23.7000,11.4730,1.2713,3.0718,-0.7330,0.3653,0.2009,-67.8000,3.7500,49.5000,-3.7700,-3.4100,-9.5500,0.4025,-0.6523,0.1025,25.0000,38.3750,45.5625,359.1250,-28.9375,160.4375,0
1776973763.661,11.0277,-0.6177,0.8739,-0.5569,0.8548,1.3270,-76.6500,12.4500,23.7000,11.3557,1.0415,2.5355,-0.5140,0.3304,0.1290,-69.0000,4.0500,50.5500,-3.7700,-3.4100,-9.5500,0.4680,-0.8323,0.1287,25.0000,38.3750,45.5625,359.1875,-29.4375,160.1875,0
1776973763.667,11.0277,-0.6177,0.8739,-0.6598,0.9222,1.3398,-76.6500,12.4500,23.7000,11.3557,1.0415,2.5355,-0.5140,0.3304,0.1290,-69.0000,4.0500,50.5500,-3.7800,-3.5200,-9.5600,0.4680,-0.8323,0.1287,25.0000,38.3750,45.5625,359.2500,-30.0000,159.8125,0
1776973763.676,10.9990,-0.4405,0.8212,-0.7829,0.9774,1.3784,-75.9000,10.9500,24.0000,10.8242,1.4772,1.8292,-0.4314,0.3347,0.0592,-67.3500,3.4500,52.0500,-3.8700,-3.2200,-9.2800,0.4592,-1.0221,0.1625,25.0000,38.3750,45.5625,359.2500,-30.0000,159.8125,0
1776973763.681,10.9391,0.3160,0.7638,-0.9086,1.0051,1.4533,-75.9000,10.9500,24.0000,10.6614,2.2434,1.2186,-0.4586,0.3022,-0.0304,-69.1500,4.6500,49.9500,-3.8700,-3.2200,-9.2800,0.4592,-1.0221,0.1625,25.0000,38.3750,45.5625,359.3750,-30.6250,159.5000,0
1776973763.686,10.9391,0.3160,0.7638,-0.9086,1.0051,1.4533,-73.9500,10.0500,25.0500,10.6614,2.2434,1.2186,-0.4586,0.3022,-0.0304,-69.1500,4.6500,49.9500,-3.9900,-2.7400,-9.4200,0.4952,-1.2108,0.2160,25.3750,38.0625,44.0000,359.3750,-30.6250,159.5000,0
1776973763.691,10.9966,1.0750,0.4214,-0.9385,1.0320,1.5434,-73.9500,10.0500,25.0500,10.4675,2.6983,1.0319,-0.5854,0.2361,-0.1655,-68.2500,3.7500,51.9000,-3.9900,-2.7400,-9.4200,0.4952,-1.2108,0.2160,25.3750,38.0625,44.0000,359.4375,-31.4375,159.0625,0
1776973763.696,10.9966,1.0750,0.4214,-0.9385,1.0320,1.5434,-74.8500,9.1500,25.3500,10.4675,2.6983,1.0319,-0.5854,0.2361,-0.1655,-68.2500,3.7500,51.9000,-3.8400,-2.7100,-9.5100,0.5880,-1.3864,0.2662,25.3750,38.0625,44.0000,359.4375,-31.4375,159.0625,0
1776973763.705,11.3318,1.6233,0.1604,-0.8847,1.0864,1.6281,-76.9500,8.1000,28.0500,10.8864,3.4716,0.6440,-0.7376,0.1884,-0.3163,-68.2500,3.7500,51.9000,-3.8900,-2.5100,-9.6000,0.6872,-1.6122,0.3163,25.3750,38.0625,44.0000,359.6250,-32.3125,158.6250,0
1776973763.712,12.1171,1.9824,-0.2298,-0.8644,1.1234,1.7131,-76.2000,6.6000,27.0000,11.5041,4.3622,0.1460,-0.7549,-0.0147,-0.4922,-67.3500,3.1500,51.7500,-3.8900,-2.5100,-9.6000,0.7756,-1.9079,0.3905,25.3750,38.0625,44.0000,359.7500,-33.3750,158.0625,0
1776973763.717,12.1171,1.9824,-0.2298,-0.8644,1.1234,1.7131,-76.2000,6.6000,27.0000,11.5041,4.3622,0.1460,-0.7549,-0.0147,-0.4922,-67.3500,3.1500,51.7500,-3.3200,-2.5700,-10.1800,0.7756,-1.9079,0.3905,25.3750,38.0625,44.0000,0.0000,-34.6250,157.4375,0
1776973763.726,13.0125,1.6089,-0.2777,-0.9049,1.1509,1.8170,-73.9500,6.1500,27.7500,11.4970,5.2337,0.0982,-0.7682,-0.2212,-0.6856,-67.2000,0.7500,50.5500,-3.0900,-3.5400,-10.1600,0.8399,-2.2395,0.5247,25.3750,38.0625,44.0000,0.0000,-34.6250,157.4375,0
1776973763.731,14.0228,1.5419,-0.3903,-0.8497,1.2113,1.9670,-73.9500,6.1500,27.7500,12.0333,6.0430,0.4932,-0.7762,-0.4839,-0.9054,-67.6500,0.9000,50.7000,-3.0900,-3.5400,-10.1600,0.8399,-2.2395,0.5247,25.3750,38.0625,44.0000,0.0000,-34.6250,157.4375,0
1776973763.736,14.0228,1.5419,-0.3903,-0.8497,1.2113,1.9670,-73.9500,6.1500,27.7500,12.0333,6.0430,0.4932,-0.7762,-0.4839,-0.9054,-67.6500,0.9000,50.7000,-3.4100,-3.0500,-10.0800,0.9261,-2.6365,0.7156,27.5625,40.2500,42.3750,0.3125,-36.1250,156.8125,0
1776973763.741,15.2582,1.1684,-1.5969,-0.9180,1.2692,2.1791,-73.9500,6.1500,27.7500,11.6023,6.3614,0.5866,-0.8452,-1.0030,-1.0896,-65.7000,-2.2500,51.9000,-3.4100,-3.0500,-10.0800,0.9261,-2.6365,0.7156,27.5625,40.2500,42.3750,0.3125,-36.1250,156.8125,0
1776973763.746,15.2582,1.1684,-1.5969,-0.9180,1.2692,2.1791,-73.9500,2.2500,29.5500,11.6023,6.3614,0.5866,-0.8452,-1.0030,-1.0896,-65.7000,-2.2500,51.9000,-3.0100,-3.3300,-10.9100,0.9785,-3.0729,0.8967,27.5625,40.2500,42.3750,0.6250,-37.8750,156.0625,0
1776973763.751,16.6493,0.6967,-2.8659,-1.1111,1.3091,2.3286,-73.9500,2.2500,29.5500,11.4419,5.3989,0.5674,-0.6427,-1.5090,-1.1924,-65.7000,-2.2500,51.9000,-3.0100,-3.3300,-10.9100,1.0374,-3.5267,1.0712,27.5625,40.2500,42.3750,54.0625,-39.9375,155.3125,0
1776973763.757,17.2861,0.0575,-3.8834,-1.1111,1.3091,2.3286,-73.9500,2.2500,29.5500,11.4419,5.3989,0.5674,-0.6427,-1.5090,-1.1924,-65.7000,-2.2500,51.9000,-2.6400,-3.7000,-11.0600,1.0374,-3.5267,1.0712,27.5625,40.2500,42.3750,52.3125,-42.2500,154.4375,0
1776973763.766,17.2861,0.0575,-3.8834,-1.3725,1.3875,2.3798,-73.2000,0.3000,29.2500,11.5688,4.5155,1.4174,0.6523,-1.7842,-1.2809,-65.7000,-2.2500,51.9000,-2.4800,-4.5000,-11.3100,1.0625,-4.0579,1.2730,27.5625,40.2500,42.3750,52.3125,-42.2500,154.4375,0
1776973763.776,13.7499,-1.7334,-2.6959,-1.7032,1.5497,2.3236,-71.5500,-1.3500,29.7000,10.8457,4.7285,1.9537,1.3955,-1.5567,-1.3715,-66.4500,-2.2500,49.8000,-4.5700,-6.8800,-11.0100,1.1203,-4.6949,1.5403,27.5625,40.2500,42.3750,50.3125,-45.0000,153.4375,0
1776973763.781,13.7499,-1.7334,-2.6959,-1.9873,1.5894,2.1405,-71.5500,-1.3500,29.7000,11.4227,3.4572,-1.6616,1.8743,-1.8008,-1.4869,-66.7500,-2.5500,48.4500,-4.5700,-6.8800,-11.0100,1.1203,-4.6949,1.5403,27.5625,40.2500,42.3750,48.0000,-48.1250,152.3750,0
1776973763.786,10.9295,-1.7310,0.7853,-1.9873,1.5894,2.1405,-72.4500,-1.9500,29.8500,11.4227,3.4572,-1.6616,1.8743,-1.8008,-1.4869,-66.7500,-2.5500,48.4500,-6.8300,-6.1500,-10.3900,1.0952,-5.3974,1.8610,33.5000,41.0000,36.0625,48.0000,-48.1250,152.3750,0
1776973763.791,10.9295,-1.7310,0.7853,-1.9785,1.6156,1.9958,-72.4500,-1.9500,29.8500,11.9064,1.3791,-3.0694,1.9676,-2.1970,-1.6497,-68.1000,0.4500,47.1000,-6.8300,-6.1500,-10.3900,1.0952,-5.3974,1.8610,33.5000,41.0000,36.0625,45.4375,-51.6250,151.1875,0
1776973763.796,9.5720,-0.9984,3.6105,-1.9785,1.6156,1.9958,-73.2000,-4.2000,30.3000,11.9064,1.3791,-3.0694,1.9676,-2.1970,-1.6497,-68.1000,0.4500,47.1000,-10.2700,-4.6900,-10.3300,1.0374,-6.0530,2.1773,33.5000,41.0000,36.0625,45.4375,-51.6250,151.1875,0
1776973763.802,9.5720,-0.9984,3.6105,-1.7845,1.6729,1.9569,-73.2000,-4.2000,30.3000,12.0380,-0.7302,-2.6911,1.7038,-2.4200,-1.6968,-68.2500,0.7500,45.9000,-13.5900,-4.4000,-10.9900,1.2021,-6.5221,2.3180,33.5000,41.0000,36.0625,43.0625,-55.4375,149.6250,0
1776973763.807,9.6103,-0.4477,4.7956,-1.5378,1.6955,1.9068,-73.2000,-4.2000,30.3000,12.2775,-2.1380,-1.5634,0.9169,-2.4640,-1.6870,-68.2500,0.7500,45.9000,-13.5900,-4.4000,-10.9900,1.2021,-6.5221,2.3180,33.5000,41.0000,36.0625,41.3125,-59.1875,147.4375,0
1776973763.816,10.4052,-0.7087,5.1523,-1.1977,1.7424,1.8207,-68.7000,-7.3500,32.5500,12.9957,-2.7773,0.2083,0.0301,-2.4810,-1.7131,-68.2500,0.7500,45.9000,-15.3800,-5.8900,-11.4100,1.6024,-6.5581,2.2853,33.5000,41.0000,36.0625,41.3125,-59.1875,147.4375,0
1776973763.826,11.5927,-1.0199,4.6855,-0.6968,1.7400,1.7269,-68.7000,-7.3500,32.5500,13.2088,-3.1388,2.0758,-0.5921,-2.5975,-1.7371,-67.6500,3.9000,40.3500,-15.8000,-7.5600,-12.6600,2.0453,-6.2974,2.1686,33.5000,41.0000,36.0625,40.1875,-62.7500,144.6250,0
1776973763.831,11.5927,-1.0199,4.6855,-0.6968,1.7400,1.7269,-68.7000,-7.3500,32.5500,13.2088,-3.1388,2.0758,-0.5921,-2.5975,-1.7371,-70.0500,4.5000,39.9000,-15.8000,-7.5600,-12.6600,2.0453,-6.2974,2.1686,33.5000,41.0000,36.0625,40.1875,-62.7500,144.6250,0
1776973763.836,11.7364,-1.7597,3.8307,-0.1322,1.6148,1.6278,-67.5000,-9.3000,34.0500,13.0388,-3.4620,3.6895,-1.1447,-2.5045,-1.7213,-66.9000,4.2000,34.6500,-12.3500,-7.7900,-11.1000,2.3311,-5.3800,2.2057,43.0000,39.1875,22.6875,39.5625,-65.8750,141.6250,0
1776973763.841,11.7364,-1.7597,3.8307,-0.1322,1.6148,1.6278,-67.5000,-9.3000,34.0500,13.0388,-3.4620,3.6895,-1.1447,-2.5045,-1.7213,-66.9000,4.2000,34.6500,-12.3500,-7.7900,-11.1000,2.3311,-5.3800,2.2057,43.0000,39.1875,22.6875,39.0000,-68.9375,137.9375,0
1776973763.846,11.2049,-2.8347,3.9720,0.4818,1.5327,1.4621,-66.9000,-9.4500,34.2000,12.7132,-3.4453,4.4987,-1.4549,-2.2996,-1.6760,-67.3500,4.2000,34.9500,-6.9700,-7.3700,-10.8500,2.3311,-5.3800,2.2057,43.0000,39.1875,22.6875,39.0000,-68.9375,137.9375,0
1776973763.851,11.2049,-2.8347,3.9720,0.4818,1.5327,1.4621,-66.9000,-9.4500,34.2000,12.7132,-3.4453,4.4987,-1.4549,-2.2996,-1.6760,-67.3500,4.2000,34.9500,-6.9700,-7.3700,-10.8500,2.2526,-5.0636,2.3616,43.0000,39.1875,22.6875,38.3750,-71.8750,133.8125,0
1776973763.857,9.2991,-3.3279,4.8626,0.9942,1.7120,1.2100,-65.8500,-10.6500,34.9500,12.3325,-2.8970,4.7956,-1.4615,-2.0518,-1.6265,-67.3500,4.2000,34.9500,-3.1600,-6.9500,-10.1600,2.2526,-5.0636,2.3616,43.0000,39.1875,22.6875,37.8125,-74.6250,129.1875,0
1776973763.866,8.3653,-3.7397,6.5457,1.1370,1.6462,0.9523,-65.1000,-9.1500,34.9500,11.4467,-2.5642,4.3503,-1.4131,-1.9332,-1.5463,-69.4500,5.7000,30.4500,-0.8800,-6.0100,-8.9500,2.3115,-4.6786,2.5405,43.0000,39.1875,22.6875,37.8125,-74.6250,129.1875,0
1776973763.876,7.4723,-5.7197,5.8754,1.1898,1.3443,0.7245,-64.8000,-9.3000,36.6000,10.9702,-1.5969,3.6368,-1.2846,-1.9566,-1.4477,-70.6500,7.2000,29.2500,-5.2200,-2.4700,-8.8000,2.1271,-4.1997,3.0751,43.0000,39.1875,22.6875,36.9375,-77.4375,124.6250,0
1776973763.881,7.4723,-5.7197,5.8754,1.1898,1.3443,0.7245,-64.8000,-9.3000,36.6000,10.9702,-1.5969,3.6368,-1.2846,-1.9566,-1.4477,-70.6500,7.2000,29.2500,-5.2200,-2.4700,-8.8000,2.1271,-4.1997,3.0751,43.0000,39.1875,22.6875,36.9375,-77.4375,124.6250,0
1776973763.886,6.3877,-8.0756,8.0565,1.6467,0.9478,0.5612,-64.8000,-8.1000,35.8500,10.2855,-0.2753,2.7509,-1.0408,-1.8730,-1.3592,-70.6500,5.7000,27.9000,-18.6100,-9.8400,-11.8600,1.6439,-3.6259,3.2299,48.5625,34.7500,7.0000,35.7500,-80.0000,120.0000,0
1776973763.891,6.3877,-8.0756,8.0565,1.6467,0.9478,0.5612,-64.8000,-8.1000,35.8500,10.2855,-0.2753,2.7509,-1.0408,-1.8730,-1.3592,-70.6500,5.7000,27.9000,-18.6100,-9.8400,-11.8600,1.6439,-3.6259,3.2299,48.5625,34.7500,7.0000,35.7500,-80.0000,120.0000,0
1776973763.896,4.9201,-8.2696,9.5170,1.5937,0.8202,0.3411,-64.8000,-8.1000,35.8500,10.6398,0.2418,1.4844,-0.8876,-1.8964,-1.2534,-68.4000,8.7000,27.6000,-12.8700,-11.5800,-11.7600,1.3963,-1.6242,2.6453,48.5625,34.7500,7.0000,35.0000,-81.7500,118.8750,0
1776973763.904,4.4149,-7.5465,8.1163,0.8804,0.6001,0.0176,-64.5000,-7.3500,36.9000,10.6973,0.7278,0.9673,-0.9934,-1.8197,-1.2532,-68.4000,8.7000,27.6000,-9.6500,-10.6500,-10.1600,1.0177,0.5825,1.7977,48.5625,34.7500,7.0000,34.6250,-82.4375,124.0625,0
1776973763.909,4.4149,-7.5465,8.1163,0.8804,0.6001,0.0176,-64.5000,-7.3500,36.9000,10.6973,0.7278,0.9673,-0.9934,-1.8197,-1.2532,-70.6500,8.4000,27.9000,-9.6500,-10.6500,-10.1600,1.0177,0.5825,1.7977,48.5625,34.7500,7.0000,34.5000,-82.1250,133.3750,0
1776973763.917,4.2569,-5.8969,6.6104,0.1074,0.1524,-0.3344,-64.5000,-6.6000,37.6500,10.4794,1.9321,1.3575,-0.9422,-1.6936,-1.2830,-70.6500,8.4000,27.9000,-2.3600,-7.8300,-9.2700,0.5683,2.1588,1.0625,48.5625,34.7500,7.0000,34.5000,-81.1250,142.2500,0
1776973763.926,3.7900,-4.6088,4.5250,-0.6123,-0.1050,-0.6646,-63.1500,-7.9500,37.5000,10.1993,3.5626,1.7071,-0.6462,-1.3712,-1.3659,-70.6500,7.9500,26.8500,-0.9700,-5.9700,-8.0700,0.2454,2.9267,0.5629,48.5625,34.7500,7.0000,34.5000,-81.1250,142.2500,0
1776973763.931,4.1827,-4.1324,2.7557,-1.2295,-0.3211,-0.9643,-63.1500,-7.9500,37.5000,10.1993,3.5626,1.7071,-0.1908,-1.2843,-1.4735,-70.6500,7.9500,26.8500,-0.9700,-5.9700,-8.0700,0.2454,2.9267,0.5629,50.7500,27.7500,-4.1875,34.6875,-79.6875,148.6875,0
1776973763.936,4.1827,-4.1324,2.7557,-1.2295,-0.3211,-0.9643,-64.0500,-7.8000,37.6500,9.9479,4.0438,1.6927,-0.1908,-1.2843,-1.4735,-68.4000,10.2000,26.8500,0.4400,-4.8300,-6.3900,0.1320,3.2038,0.1909,50.7500,27.7500,-4.1875,34.6875,-79.6875,148.6875,0
1776973763.941,4.2210,-3.6895,3.5937,-1.3161,-0.5641,-1.2127,-64.0500,-7.8000,37.6500,9.9479,4.0438,1.6927,-0.0394,-0.9960,-1.5335,-68.4000,10.2000,26.8500,0.4400,-4.8300,-6.3900,0.1320,3.2038,0.1909,50.7500,27.7500,-4.1875,35.0000,-78.1250,152.8125,0
1776973763.946,4.2210,-3.6895,3.5937,-1.3161,-0.5641,-1.2127,-64.3500,-5.5500,36.0000,9.5624,3.8188,1.7933,-0.0394,-0.9960,-1.5335,-70.2000,10.2000,27.9000,1.9200,-3.2900,-3.4300,0.0676,3.2365,-0.1156,50.7500,27.7500,-4.1875,35.0000,-78.1250,152.8125,0
1776973763.952,4.1061,-3.1268,3.4955,-1.3323,-0.8164,-1.3622,-64.3500,-5.5500,36.0000,9.4427,3.6512,2.1572,0.1234,-0.8194,-1.5673,-70.2000,10.2000,27.9000,1.9200,-3.2900,-3.4300,-0.0109,3.1492,-0.3971,50.7500,27.7500,-4.1875,35.4375,-76.4375,155.3750,0
1776973763.957,4.1061,-3.1268,3.4955,-1.3323,-0.8164,-1.3622,-64.8000,-6.6000,36.6000,9.4427,3.6512,2.1572,0.1234,-0.8194,-1.5673,-69.3000,10.0500,29.5500,1.7500,-2.9600,-3.0200,-0.0109,3.1492,-0.3971,50.7500,27.7500,-4.1875,35.9375,-74.7500,156.8125,0
1776973763.966,3.9073,-2.8132,3.5961,-1.2785,-1.1085,-1.4762,-64.8000,-6.6000,36.6000,9.7181,2.8323,2.1548,0.4239,-0.7186,-1.5772,-69.3000,10.0500,29.5500,1.2900,-2.7200,-3.0800,-0.0884,3.0129,-0.6338,50.7500,27.7500,-4.1875,36.5000,-73.1250,157.5000,0
1776973763.976,3.8020,-2.8132,3.3806,-1.2167,-1.4160,-1.6238,-66.9000,-6.7500,34.9500,10.1514,2.3391,2.4301,0.5556,-0.7250,-1.5303,-67.3500,9.4500,30.7500,-0.2800,-2.9300,-3.9300,-0.1647,2.8907,-0.8770,50.7500,27.7500,-4.1875,36.5000,-73.1250,157.5000,0
1776973763.981,3.4907,-3.1963,3.4357,-1.0123,-1.5934,-1.7757,-66.9000,-6.7500,34.9500,9.9479,1.9058,2.7414,0.6299,-0.7120,-1.4570,-67.3500,9.4500,30.7500,-0.2800,-2.9300,-3.9300,-0.1647,2.8907,-0.8770,50.7500,27.7500,-4.1875,36.5000,-73.1250,157.5000,0
1776973763.986,3.4907,-3.1963,3.4357,-1.0123,-1.5934,-1.7757,-66.9000,-6.7500,34.9500,9.9479,1.9058,2.7414,0.6299,-0.7120,-1.4570,-67.5000,11.5500,31.3500,-1.4600,-3.1800,-4.5100,-0.2825,2.8482,-1.1574,50.5000,27.0000,3.8750,37.1875,-71.3750,157.6875,0
1776973763.991,3.5841,-3.4788,3.9792,-0.7123,-1.6752,-1.9366,-66.9000,-6.7500,34.9500,9.2727,1.3503,2.4636,0.6027,-0.8631,-1.3771,-67.5000,11.5500,31.3500,-1.4600,-3.1800,-4.5100,-0.2825,2.8482,-1.1574,50.5000,27.0000,3.8750,37.1875,-71.3750,157.6875,0
1776973763.996,3.5841,-3.4788,3.9792,-0.7123,-1.6752,-1.9366,-66.7500,-4.6500,32.5500,9.2727,1.3503,2.4636,0.6027,-0.8631,-1.3771,-65.5500,12.4500,31.8000,-2.5700,-3.5300,-5.1700,-0.4189,2.9463,-1.4432,50.5000,27.0000,3.8750,38.0000,-69.5625,157.5625,0
1776973764.004,3.9241,-3.6583,4.0677,-0.3920,-1.7813,-2.0851,-66.7500,-4.6500,32.5500,8.4108,1.2306,2.2027,0.5921,-0.8063,-1.2812,-67.2000,12.0000,30.6000,-3.3500,-3.5700,-5.8100,-0.5552,3.1841,-1.7028,50.5000,27.0000,3.8750,38.8750,-67.6250,157.3750,0
1776973764.009,4.3503,-3.6703,4.0773,-0.1199,-1.8730,-2.2250,-67.6500,-4.5000,30.4500,7.7907,0.8571,2.0734,0.5684,-0.8426,-1.1572,-67.2000,12.0000,30.6000,-3.3500,-3.5700,-5.8100,-0.5552,3.1841,-1.7028,50.5000,27.0000,3.8750,39.8750,-65.4375,157.1875,0
1776973764.017,4.7381,-3.5362,3.7852,-0.1199,-1.8730,-2.2250,-70.0500,-2.8500,31.6500,7.7907,0.8571,2.0734,0.5684,-0.8426,-1.1572,-67.2000,12.0000,30.6000,-3.9600,-2.8400,-6.2800,-0.6425,3.4699,-1.9144,50.5000,27.0000,3.8750,41.1250,-63.0625,157.0000,0
1776973764.027,5.5162,-3.3639,3.9576,-0.0405,-1.9364,-2.3763,-69.7500,-3.4500,30.3000,7.5968,0.6632,1.8483,0.5415,-0.6712,-1.0315,-67.2000,12.0000,30.6000,-3.8800,-2.1000,-6.2500,-0.6218,3.7579,-2.0617,50.5000,27.0000,3.8750,41.1250,-63.0625,157.0000,0
1776973764.031,5.5162,-3.3639,3.9576,-0.0237,-2.0003,-2.5311,-69.7500,-3.4500,30.3000,7.1539,0.6991,1.9369,0.6129,-0.6131,-0.9497,-67.2000,12.0000,30.6000,-3.8800,-2.1000,-6.2500,-0.6218,3.7579,-2.0617,50.5000,27.0000,3.8750,41.1250,-63.0625,157.0000,0
1776973764.037,6.2393,-3.2394,3.9576,-0.0624,-2.1101,-2.6529,-69.7500,-3.4500,30.3000,7.1539,0.6991,1.9369,0.6129,-0.6131,-0.9497,-65.7000,14.2500,29.8500,-3.7600,-1.3800,-6.2800,-0.4625,3.9728,-2.1206,46.0625,29.3750,12.3750,42.6250,-60.5625,156.8750,0
1776973764.041,6.2393,-3.2394,3.9576,-0.0624,-2.1101,-2.6529,-69.7500,-3.4500,30.3000,6.7660,0.7159,1.8914,0.8649,-0.3962,-0.8591,-65.7000,14.2500,29.8500,-3.7600,-1.3800,-6.2800,-0.4625,3.9728,-2.1206,46.0625,29.3750,12.3750,42.6250,-60.5625,156.8750,0
1776973764.047,6.6750,-3.3064,3.9887,-0.0837,-2.1949,-2.7987,-70.9500,0.0000,29.5500,6.7660,0.7159,1.8914,0.8649,-0.3962,-0.8591,-66.0000,15.3000,30.1500,-4.4700,-0.9400,-6.7900,-0.1898,4.1168,-2.1086,46.0625,29.3750,12.3750,44.4375,-58.0000,156.6875,0
1776973764.051,6.6750,-3.3064,3.9887,-0.0837,-2.1949,-2.7987,-70.9500,0.0000,29.5500,6.8235,0.5148,1.4724,1.1269,-0.2721,-0.7434,-66.0000,15.3000,30.1500,-4.4700,-0.9400,-6.7900,0.1134,4.2313,-2.0213,46.0625,29.3750,12.3750,46.7500,-55.3750,156.4375,0
1776973764.057,6.8091,-3.7038,4.1252,0.0794,-2.3377,-2.9444,-70.9500,0.0000,29.5500,6.8235,0.5148,1.4724,1.2958,-0.1367,-0.6400,-65.2500,15.0000,31.3500,-5.1800,-1.5200,-7.2300,0.1134,4.2313,-2.0213,46.0625,29.3750,12.3750,49.3125,-52.7500,156.3125,0
1776973764.067,6.6367,-3.4405,4.2856,0.0725,-2.4600,-3.1240,-73.2000,3.4500,26.5500,6.9264,0.2298,1.2019,1.2958,-0.1367,-0.6400,-64.0500,14.4000,28.9500,-6.0000,-2.2900,-7.5800,0.3262,4.3840,-1.8697,46.0625,29.3750,12.3750,49.3125,-52.7500,156.3125,0
1776973764.076,7.0533,-2.7509,3.9337,0.0069,-2.5714,-3.3255,-74.4000,3.0000,27.0000,7.1922,-0.2370,1.0942,1.3336,-0.0975,-0.3730,-64.0500,14.4000,28.9500,-6.2400,-3.2500,-7.8800,0.4069,4.5695,-1.6744,46.0625,29.3750,12.3750,52.1250,-50.0625,156.3125,0
1776973764.081,7.0533,-2.7509,3.9337,0.0069,-2.5714,-3.3255,-74.4000,3.0000,27.0000,7.3095,-0.4549,1.1325,1.3336,-0.0975,-0.3730,-64.0500,14.4000,28.9500,-6.2400,-3.2500,-7.8800,0.4069,4.5695,-1.6744,46.0625,29.3750,12.3750,55.1250,-47.3750,156.4375,0
1776973764.086,7.8721,-2.2266,3.7278,0.0445,-2.6958,-3.5365,-75.3000,4.8000,24.6000,7.3095,-0.4549,1.1325,1.2388,-0.0629,-0.2502,-65.7000,16.0500,29.5500,-6.2300,-3.1800,-7.8900,0.4069,4.7091,-1.4421,36.8750,33.3750,21.0000,55.1250,-47.3750,156.4375,0
1776973764.091,7.8721,-2.2266,3.7278,0.0445,-2.6958,-3.5365,-75.3000,4.8000,24.6000,7.3550,-0.6201,1.3120,1.2388,-0.0629,-0.2502,-65.7000,16.0500,29.5500,-6.2300,-3.1800,-7.8900,0.4069,4.7091,-1.4421,36.8750,33.3750,21.0000,55.1250,-47.3750,156.4375,0
