timestamp,thigh_acc_x,thigh_acc_y,thigh_acc_z,thigh_gyro_x,thigh_gyro_y,thigh_gyro_z,thigh_mag_x,thigh_mag_y,thigh_mag_z,shank_acc_x,shank_acc_y,shank_acc_z,shank_gyro_x,shank_gyro_y,shank_gyro_z,shank_mag_x,shank_mag_y,shank_mag_z,foot_acc_x,foot_acc_y,foot_acc_z,foot_gyro_x,foot_gyro_y,foot_gyro_z,foot_mag_x,foot_mag_y,foot_mag_z,foot_euler_x,foot_euler_y,foot_euler_z,perturbation_event
48.889,0.8021,-9.0285,-4.1300,-0.0080,0.0189,0.0053,-54.0000,-25.5000,-36.4500,-9.7899,-0.3208,-0.7949,-0.0008,0.0322,0.0035,53.7000,30.0000,7.0500,-9.8100,-0.8400,0.5800,-0.0022,0.0011,0.0000,9.2500,-3.0625,1.5625,0.5625,-83.8125,5.0000,0
48.895,0.8021,-9.0285,-4.1300,-0.0035,-0.0024,0.0056,-52.6500,-25.0500,-36.6000,-9.7899,-0.3208,-0.7949,-0.0075,0.0328,-0.0043,53.7000,30.0000,7.0500,-9.7700,-0.8200,0.5600,-0.0022,0.0011,0.0000,9.2500,-3.0625,1.5625,0.5625,-83.8125,5.0000,0
48.905,0.7542,-9.0980,-4.1539,-0.0229,0.0075,0.0051,-53.2500,-25.2000,-36.0000,-9.7971,-0.3831,-0.7709,-0.0149,0.0344,-0.0021,54.3000,30.1500,6.1500,-9.7100,-0.8400,0.6300,-0.0022,0.0120,0.0000,9.2500,-3.0625,1.5625,0.5625,-83.8125,5.0000,0
48.914,0.8619,-9.0573,-4.1037,-0.0357,-0.0037,0.0187,-53.4000,-25.3500,-34.3500,-9.8162,-0.3831,-0.8045,-0.0037,0.0370,-0.0027,54.3000,30.1500,6.1500,-9.8100,-0.8600,0.5500,-0.0022,0.0022,-0.0033,9.2500,-3.0625,1.5625,0.5625,-83.8125,5.0000,0
48.924,0.7614,-9.0812,-4.1276,-0.0445,-0.0115,0.0187,-53.1000,-24.6000,-36.9000,-9.8067,-0.3735,-0.7183,-0.0160,0.0312,-0.0024,53.5500,31.6500,6.9000,-9.7400,-0.8000,0.6000,0.0000,-0.0022,-0.0044,9.2500,-3.0625,1.5625,0.5625,-83.8125,5.0000,0
48.933,0.6584,-8.8490,-4.1444,-0.0719,-0.0320,0.0384,-53.7000,-25.2000,-36.7500,-9.8210,-0.4525,-0.8212,-0.0064,0.0301,-0.0008,53.4000,30.7500,6.3000,-9.7800,-0.8100,0.5700,0.0011,0.0022,0.0000,9.2500,-3.0625,1.5625,0.5625,-83.8125,5.0000,0
48.938,0.6369,-9.1482,-4.2593,-0.0719,-0.0320,0.0384,-53.7000,-25.2000,-36.7500,-9.7468,-0.4118,-0.7614,-0.0064,0.0301,-0.0008,52.3500,30.4500,6.9000,-9.7800,-0.8100,0.5700,0.0011,0.0022,0.0000,9.2500,-3.0625,-0.2500,0.5625,-83.8125,5.0000,0
48.945,0.7374,-8.7915,-4.2066,-0.0501,0.0104,0.0272,-53.7000,-24.7500,-36.0000,-9.7636,-0.3304,-0.8356,-0.0285,0.0163,0.0123,52.3500,30.4500,6.9000,-9.8000,-0.8300,0.6100,0.0022,-0.0033,0.0033,9.2500,-3.0625,-0.2500,0.5625,-83.8125,5.0000,0
48.955,0.6009,-8.9711,-4.1851,-0.0224,-0.0125,0.0072,-53.7000,-25.9500,-36.4500,-9.8689,-0.3017,-0.7446,0.0064,0.0123,0.0091,52.6500,31.5000,5.7000,-9.7300,-0.8900,0.5400,0.0044,-0.0098,0.0055,9.2500,-3.0625,-0.2500,0.5625,-83.8125,5.0000,0
48.965,0.6225,-9.1889,-4.2689,-0.0125,0.0048,-0.0171,-54.1500,-26.5500,-36.6000,-9.7659,-0.3639,-0.7446,-0.0117,0.0211,0.0045,54.3000,30.4500,6.1500,-9.7300,-0.7300,0.5900,0.0044,-0.0065,0.0065,9.2500,-3.0625,-0.2500,0.5625,-83.8125,5.0000,0
48.974,0.9744,-8.8945,-4.0582,0.0075,0.0594,-0.0264,-54.1500,-26.5500,-36.6000,-9.7851,-0.3400,-0.8619,-0.0293,0.0298,0.0027,54.3000,30.4500,6.1500,-9.7300,-0.8800,0.5600,0.0000,0.0011,0.0000,9.2500,-3.0625,-0.2500,0.5625,-83.8125,5.0000,0
48.983,0.8021,-9.1937,-4.1563,-0.0091,-0.0165,0.0104,-54.1500,-25.8000,-36.1500,-9.8258,-0.2993,-0.7230,0.0093,0.0474,-0.0115,52.9500,30.3000,7.0500,-9.7600,-0.8500,0.5600,-0.0033,0.0000,-0.0011,9.2500,-3.0625,-0.2500,0.5625,-83.8125,5.0000,0
48.988,0.8021,-9.1937,-4.1563,-0.0269,0.0077,0.0338,-54.1500,-25.8000,-36.1500,-9.8258,-0.2993,-0.7230,-0.0064,0.0565,-0.0203,53.7000,30.7500,6.3000,-9.7600,-0.8500,0.5600,-0.0033,0.0000,-0.0011,9.2500,-3.7500,0.3750,0.5625,-83.8125,5.0000,0
48.995,0.8068,-9.0190,-4.1037,-0.0269,0.0077,0.0338,-54.1500,-25.8000,-36.1500,-9.7181,-0.4070,-0.8499,-0.0064,0.0565,-0.0203,53.7000,30.7500,6.3000,-9.7900,-0.8300,0.6000,-0.0044,0.0044,-0.0044,9.2500,-3.7500,0.3750,0.5625,-83.8125,5.0000,0
49.005,0.7542,-8.9974,-4.1492,-0.0424,-0.0147,0.0333,-54.0000,-25.2000,-37.2000,-9.8450,-0.3735,-0.8045,-0.0029,0.0349,-0.0008,54.0000,30.0000,5.7000,-9.7400,-0.8100,0.5600,-0.0033,0.0109,-0.0022,9.2500,-3.7500,0.3750,0.5625,-83.8125,5.0000,0
49.015,0.7973,-8.9783,-4.2210,-0.0544,-0.0187,0.0168,-55.0500,-25.3500,-36.6000,-9.8019,-0.3879,-0.7757,-0.0248,0.0250,0.0091,53.1000,29.7000,6.4500,-9.7800,-0.8100,0.5600,-0.0055,0.0011,-0.0011,9.2500,-3.7500,0.3750,0.5625,-83.8125,5.0000,0
49.024,0.7350,-8.9232,-4.2210,-0.0392,-0.0112,0.0176,-54.6000,-25.3500,-36.1500,-9.8258,-0.3160,-0.8236,-0.0043,0.0069,0.0120,52.3500,31.2000,7.2000,-9.7600,-0.8500,0.5600,0.0033,-0.0011,0.0022,9.2500,-3.7500,0.3750,0.5625,-83.8125,5.0000,0
49.033,0.7326,-8.9687,-4.1635,-0.0075,0.0109,0.0067,-54.6000,-25.3500,-36.1500,-9.8641,-0.3328,-0.7709,-0.0056,0.0107,0.0107,52.3500,31.2000,7.2000,-9.7300,-0.8100,0.5900,0.0033,-0.0044,0.0033,9.2500,-3.7500,0.3750,0.5625,-83.8125,5.0000,0
49.038,0.7326,-8.9687,-4.1635,-0.0043,0.0296,0.0104,-53.2500,-25.9500,-36.7500,-9.8641,-0.3328,-0.7709,-0.0173,0.0226,0.0061,52.3500,31.2000,7.2000,-9.7300,-0.8100,0.5900,0.0033,-0.0044,0.0033,8.8750,-3.7500,0.3750,0.5625,-83.8125,5.0000,0
49.045,0.8571,-8.9687,-4.1228,-0.0043,0.0296,0.0104,-53.8500,-26.1000,-35.1000,-9.8090,-0.2921,-0.7302,-0.0032,0.0485,-0.0104,52.3500,31.2000,7.2000,-9.7500,-0.8400,0.5900,-0.0033,0.0022,-0.0044,8.8750,-3.7500,0.3750,0.5625,-83.8125,5.0000,0
49.055,0.7925,-9.0764,-4.1348,-0.0168,0.0091,0.0184,-53.7000,-25.2000,-36.4500,-9.8665,-0.3591,-0.7733,-0.0067,0.0600,-0.0149,53.4000,31.0500,7.0500,-9.7600,-0.8200,0.6200,-0.0033,0.0022,-0.0044,8.8750,-3.7500,0.3750,0.5625,-83.8125,5.0000,0
49.065,0.8045,-8.9471,-4.1061,-0.0290,0.0032,0.0280,-53.7000,-25.2000,-36.4500,-9.7252,-0.3448,-0.8619,-0.0123,0.0464,-0.0059,54.6000,30.7500,7.8000,-9.8000,-0.8300,0.5400,-0.0044,0.0055,-0.0033,8.8750,-3.7500,0.3750,0.5625,-83.8125,5.0000,0
49.075,0.6656,-8.9471,-4.0701,-0.0096,-0.0306,-0.0077,-53.1000,-25.8000,-36.1500,-9.8306,-0.4166,-0.8068,0.0013,0.0187,0.0075,53.1000,30.9000,6.9000,-9.7500,-0.8500,0.5600,-0.0011,0.0044,0.0022,8.8750,-3.7500,0.3750,0.5625,-83.8125,5.0000,0
49.084,0.6105,-9.3398,-4.0390,-0.0096,-0.0306,-0.0077,-53.1000,-25.8000,-36.1500,-9.7061,-0.3711,-0.7590,0.0013,0.0187,0.0075,53.1000,30.9000,6.9000,-9.6900,-0.8100,0.6200,-0.0022,0.0076,0.0011,8.8750,-3.7500,0.3750,0.5625,-83.8125,5.0000,0
49.088,0.6105,-9.3398,-4.0390,0.0053,0.1066,0.0019,-53.1000,-25.8000,-36.1500,-9.7061,-0.3711,-0.7590,-0.0136,0.0005,0.0163,54.0000,31.5000,6.3000,-9.6900,-0.8100,0.6200,-0.0022,0.0076,0.0011,9.2500,-3.0625,0.3750,0.5625,-83.8125,5.0000,0
49.096,0.8523,-9.0237,-4.3551,0.0080,-0.0091,-0.0410,-53.4000,-26.5500,-36.9000,-9.8282,-0.3496,-0.8356,-0.0200,0.0107,0.0184,54.0000,31.5000,6.3000,-9.7800,-0.8300,0.5500,-0.0033,-0.0076,0.0076,9.2500,-3.0625,0.3750,0.5625,-83.8125,5.0000,0
49.105,0.6369,-9.2823,-4.1779,0.0248,-0.0397,-0.0514,-53.4000,-25.8000,-36.9000,-9.8282,-0.3160,-0.7254,-0.0037,0.0075,0.0168,52.3500,28.9500,6.1500,-9.7900,-0.8700,0.6200,-0.0131,0.0022,0.0011,9.2500,-3.0625,0.3750,0.5625,-83.8125,5.0000,0
49.113,0.8236,-8.9759,-4.0677,-0.0440,-0.0093,-0.0341,-53.4000,-25.8000,-36.9000,-9.7827,-0.4022,-0.7207,-0.0226,0.0165,0.0128,52.3500,28.9500,6.1500,-9.7600,-0.8600,0.5500,-0.0109,0.0196,-0.0065,9.2500,-3.0625,0.3750,0.5625,-83.8125,5.0000,0
49.118,0.8811,-9.3134,-3.8834,-0.0440,-0.0093,-0.0341,-52.9500,-24.4500,-36.4500,-9.7827,-0.4022,-0.7207,-0.0226,0.0165,0.0128,52.2000,30.0000,6.7500,-9.7600,-0.8600,0.5500,-0.0109,0.0196,-0.0065,9.2500,-3.0625,0.3750,0.5625,-83.8125,5.0000,0
49.125,0.8811,-9.3134,-3.8834,-0.0618,-0.0080,0.0045,-53.8500,-25.8000,-35.8500,-9.7612,-0.3352,-0.7973,0.0032,0.0434,0.0000,52.8000,31.6500,6.9000,-9.7100,-0.7800,0.5700,-0.0076,0.0109,-0.0065,9.2500,-3.0625,0.3750,0.5625,-83.8125,5.0000,0
49.135,1.1708,-8.9687,-4.2306,-0.0650,0.0163,0.1143,-52.5000,-25.5000,-37.9500,-9.7779,-0.3519,-0.7183,-0.0059,0.0839,-0.0285,54.0000,31.0500,6.3000,-9.7900,-0.8400,0.6000,0.0044,-0.0175,0.0022,9.2500,-3.0625,0.3750,0.5625,-83.8125,5.0000,0
49.140,0.5387,-9.1004,-4.0270,-0.0650,0.0163,0.1143,-52.5000,-25.5000,-37.9500,-9.8043,-0.3974,-0.7470,-0.0059,0.0839,-0.0285,54.0000,31.0500,6.3000,-9.7900,-0.8400,0.6000,0.0120,-0.0164,0.0098,8.5625,-3.0625,0.8750,0.5625,-83.8125,5.0000,0
49.146,0.5387,-9.1004,-4.0270,-0.0671,-0.0847,0.0314,-54.4500,-25.5000,-36.4500,-9.8043,-0.3974,-0.7470,-0.0176,0.0767,-0.0179,54.6000,31.2000,6.4500,-9.7200,-0.8000,0.6100,0.0120,-0.0164,0.0098,8.5625,-3.0625,0.8750,0.5625,-83.8125,5.0000,0
49.155,0.5770,-8.8585,-4.1348,-0.0456,0.0312,-0.0091,-54.4500,-25.5000,-36.4500,-9.8114,-0.4262,-0.8284,-0.0016,0.0344,-0.0011,54.6000,31.2000,6.4500,-9.7200,-0.8100,0.6100,0.0076,-0.0076,0.0055,8.5625,-3.0625,0.8750,0.5625,-83.8125,5.0000,0
49.165,0.6057,-8.9136,-4.3814,0.0216,0.0240,-0.0557,-52.6500,-25.5000,-36.4500,-9.8258,-0.3998,-0.9266,-0.0085,-0.0264,0.0304,52.3500,31.2000,8.2500,-9.8000,-0.7900,0.5700,0.0087,-0.0196,0.0065,8.5625,-3.0625,0.8750,0.5625,-83.8125,5.0000,0
49.175,0.8356,-8.7317,-4.0749,0.0208,-0.0269,-0.0386,-52.6500,-25.3500,-37.6500,-9.8521,-0.3639,-0.7661,-0.0272,-0.0389,0.0440,54.3000,30.9000,6.9000,-9.8200,-0.8700,0.5500,-0.0033,0.0055,-0.0022,8.5625,-3.0625,0.8750,0.5625,-83.8125,5.0000,0
49.182,0.8116,-9.1602,-4.1396,0.0250,0.0301,-0.0043,-52.6500,-25.3500,-37.6500,-9.7516,-0.3112,-0.7470,-0.0059,0.0205,0.0083,54.3000,30.9000,6.9000,-9.7000,-0.7900,0.6000,-0.0076,0.0109,-0.0055,8.5625,-3.0625,0.8750,0.5625,-83.8125,5.0000,0
49.187,0.6464,-9.1267,-4.0893,0.0250,0.0301,-0.0043,-54.1500,-24.6000,-37.6500,-9.8474,-0.3041,-0.7207,-0.0059,0.0205,0.0083,52.9500,30.7500,6.3000,-9.7000,-0.7900,0.6000,-0.0076,0.0109,-0.0055,8.5625,-3.0625,0.8750,0.5625,-83.8125,5.0000,0
49.192,0.6464,-9.1267,-4.0893,-0.0048,-0.0043,-0.0426,-54.1500,-24.6000,-37.6500,-9.8474,-0.3041,-0.7207,-0.0061,0.0754,-0.0232,52.9500,30.7500,6.3000,-9.8000,-0.8500,0.6000,-0.0098,0.0033,-0.0098,8.8750,-2.2500,0.3750,0.5625,-83.8125,5.0000,0
49.196,0.9720,-9.1147,-4.1611,-0.0048,-0.0043,-0.0426,-54.1500,-24.6000,-37.6500,-9.8067,-0.3567,-0.7781,-0.0061,0.0754,-0.0232,53.4000,31.5000,6.0000,-9.8000,-0.8500,0.6000,-0.0098,0.0033,-0.0098,8.8750,-2.2500,0.3750,0.5625,-83.8125,5.0000,0
49.205,0.8380,-9.0237,-3.8786,-0.0261,-0.0117,0.0216,-52.9500,-25.9500,-37.5000,-9.8067,-0.3567,-0.7781,0.0133,0.1010,-0.0381,53.5500,30.4500,6.9000,-9.8700,-0.8600,0.5400,-0.0044,0.0131,-0.0098,8.8750,-2.2500,0.3750,0.5625,-83.8125,5.0000,0
49.215,0.7973,-9.1291,-3.9552,-0.0719,-0.0040,0.0725,-52.9500,-25.9500,-37.5000,-9.7923,-0.3926,-0.7374,-0.0160,0.0909,-0.0309,53.5500,30.4500,6.9000,-9.7200,-0.8100,0.5400,0.0011,0.0044,0.0033,8.8750,-2.2500,0.3750,0.5625,-83.8125,5.0000,0
49.223,0.7973,-9.1291,-3.9552,-0.1023,-0.0346,0.0533,-54.0000,-25.5000,-36.4500,-9.7803,-0.4238,-0.9146,-0.0075,0.0157,0.0072,53.5500,30.4500,6.9000,-9.8500,-0.8600,0.5800,0.0044,-0.0207,0.0011,8.8750,-2.2500,0.3750,0.5625,-83.8125,5.0000,0
49.228,0.6608,-9.1578,-4.3838,-0.1023,-0.0346,0.0533,-54.1500,-24.6000,-36.1500,-9.7755,-0.3735,-0.8428,-0.0075,0.0157,0.0072,53.5500,30.4500,6.9000,-9.8500,-0.8600,0.5800,0.0044,-0.0207,0.0011,8.8750,-2.2500,0.3750,0.5625,-83.8125,5.0000,0
49.236,0.7422,-8.8609,-4.2832,-0.0506,-0.0053,0.0045,-52.9500,-25.5000,-37.5000,-9.7659,-0.3711,-0.7973,-0.0229,-0.0218,0.0365,53.5500,31.2000,6.9000,-9.8000,-0.8300,0.5700,0.0076,-0.0087,0.0087,8.8750,-2.2500,0.3750,0.5625,-83.8125,5.0000,0
49.241,0.7422,-8.8609,-4.2832,-0.0128,0.0250,0.0019,-52.9500,-25.5000,-37.5000,-9.7659,-0.3711,-0.7973,-0.0173,-0.0589,0.0549,53.5500,31.2000,6.9000,-9.8000,-0.8300,0.5700,0.0076,-0.0087,0.0109,8.5625,-3.0625,0.3750,0.5625,-83.8125,4.9375,0
49.246,0.6704,-8.7508,-4.2138,-0.0128,0.0250,0.0019,-53.7000,-26.4000,-36.4500,-9.8426,-0.3136,-0.6967,-0.0173,-0.0589,0.0549,53.1000,32.7000,7.6500,-9.7000,-0.8000,0.6000,0.0076,-0.0087,0.0109,8.5625,-3.0625,0.3750,0.5625,-83.8125,4.9375,0
49.255,0.8140,-9.0166,-4.1324,0.0216,-0.0101,-0.0338,-53.7000,-26.4000,-36.4500,-9.8019,-0.2514,-0.6057,-0.0163,-0.0290,0.0370,52.9500,30.7500,6.3000,-9.8000,-0.8300,0.5700,-0.0011,-0.0131,-0.0022,8.5625,-3.0625,0.3750,0.5625,-83.8125,4.9375,0
49.265,0.9697,-9.1028,-4.1084,0.0336,0.0373,-0.0165,-53.2500,-25.5000,-36.4500,-9.7971,-0.2682,-0.7111,-0.0080,0.0482,-0.0069,53.8500,30.9000,6.9000,-9.8200,-0.8800,0.5600,-0.0055,0.0065,-0.0076,8.5625,-3.0625,0.3750,0.5625,-83.8125,4.9375,0
49.272,0.8499,-9.1411,-4.0127,0.0147,0.0117,0.0242,-53.2500,-25.5000,-36.4500,-9.7971,-0.2682,-0.7111,0.0128,0.1063,-0.0490,53.8500,30.9000,6.9000,-9.7600,-0.8100,0.5800,-0.0087,0.0175,-0.0098,8.5625,-3.0625,0.3750,0.5625,-83.8125,4.9375,0
49.276,0.8499,-9.1411,-4.0127,-0.0400,-0.0128,0.0493,-53.1000,-24.6000,-37.6500,-9.8354,-0.3448,-0.7350,0.0128,0.1063,-0.0490,53.8500,30.9000,6.9000,-9.7600,-0.8100,0.5800,-0.0087,0.0175,-0.0098,8.5625,-3.0625,0.3750,0.5625,-83.8125,4.9375,0
49.286,0.8021,-9.0908,-4.0342,-0.0400,-0.0128,0.0493,-53.1000,-24.6000,-37.6500,-9.7995,-0.4693,-0.8547,-0.0019,0.1300,-0.0560,53.8500,30.9000,6.9000,-9.8100,-0.8600,0.5600,-0.0055,0.0065,-0.0055,8.5625,-3.0625,0.3750,0.5625,-83.8125,4.9375,0
49.290,0.8021,-9.0908,-4.0342,-0.0850,-0.0213,0.0400,-53.1000,-24.6000,-37.6500,-9.7995,-0.4693,-0.8547,-0.0061,0.0799,-0.0288,53.8500,30.9000,6.9000,-9.8100,-0.8600,0.5600,0.0022,-0.0033,0.0011,9.6875,-3.0625,0.8750,0.5625,-83.8125,4.9375,0
49.296,0.7039,-9.0668,-4.2114,-0.0778,-0.0075,0.0123,-52.3500,-24.6000,-36.1500,-9.8138,-0.4286,-0.9361,-0.0061,0.0799,-0.0288,54.0000,30.3000,6.7500,-9.8100,-0.8700,0.5700,0.0022,-0.0033,0.0011,9.6875,-3.0625,0.8750,0.5625,-83.8125,4.9375,0
49.305,0.7542,-8.9447,-4.2808,-0.0301,0.0088,-0.0045,-52.3500,-24.6000,-36.1500,-9.8019,-0.4022,-0.8643,-0.0171,-0.0064,0.0242,52.8000,30.9000,7.2000,-9.7200,-0.8000,0.6000,0.0065,-0.0087,0.0087,9.6875,-3.0625,0.8750,0.5625,-83.8125,4.9375,0
49.315,0.7781,-8.8035,-4.2904,0.0115,-0.0165,-0.0155,-54.0000,-24.7500,-35.7000,-9.7971,-0.3735,-0.7015,-0.0211,-0.0642,0.0610,53.5500,30.4500,4.3500,-9.7700,-0.8100,0.5700,0.0033,-0.0098,0.0109,9.6875,-3.0625,0.8750,0.5625,-83.8125,4.9375,0
49.325,0.7973,-8.9950,-4.1946,0.0208,0.0557,-0.0085,-54.0000,-25.2000,-37.2000,-9.8497,-0.2849,-0.6800,-0.0274,-0.0594,0.0589,52.8000,29.7000,6.1500,-9.7800,-0.8400,0.5900,0.0000,-0.0065,0.0022,9.6875,-3.0625,0.8750,0.5625,-83.8125,4.9375,0
49.330,0.9194,-9.0501,-4.0630,0.0208,0.0557,-0.0085,-54.4500,-26.7000,-36.7500,-9.8497,-0.2849,-0.6800,-0.0096,0.0125,0.0120,53.1000,30.4500,4.0500,-9.7800,-0.8400,0.5900,-0.0065,0.0098,-0.0065,9.6875,-3.0625,0.8750,0.5625,-83.8125,4.9375,0
49.336,0.9194,-9.0501,-4.0630,-0.0064,0.0021,0.0176,-53.4000,-25.3500,-37.6500,-9.8426,-0.2777,-0.6823,0.0024,0.0898,-0.0325,53.1000,30.4500,4.0500,-9.7700,-0.8300,0.5800,-0.0065,0.0098,-0.0065,9.6875,-3.0625,0.8750,0.5625,-83.8125,4.9375,0
49.341,0.9122,-9.0788,-4.0821,-0.0064,0.0021,0.0176,-53.4000,-25.3500,-37.6500,-9.8162,-0.3543,-0.7015,0.0024,0.0898,-0.0325,53.1000,30.4500,4.0500,-9.7700,-0.8300,0.5800,-0.0076,0.0109,-0.0087,8.8750,-3.3750,-0.2500,0.5625,-83.8125,4.9375,0
49.346,0.9122,-9.0788,-4.0821,-0.0456,-0.0221,0.0352,-53.4000,-25.3500,-37.6500,-9.8162,-0.3543,-0.7015,0.0005,0.1287,-0.0554,53.1000,30.4500,4.0500,-9.7300,-0.8300,0.5800,-0.0076,0.0109,-0.0087,8.8750,-3.3750,-0.2500,0.5625,-83.8125,4.9375,0
49.356,0.8260,-9.1530,-4.0821,-0.0658,-0.0133,0.0301,-53.7000,-24.4500,-36.4500,-9.7636,-0.3591,-0.9074,-0.0027,0.0935,-0.0378,53.8500,29.7000,5.1000,-9.7900,-0.8800,0.5600,-0.0022,0.0011,-0.0044,8.8750,-3.3750,-0.2500,0.5625,-83.8125,4.9375,0
49.365,0.7614,-8.9687,-4.1396,-0.0568,-0.0085,0.0061,-53.7000,-24.4500,-36.4500,-9.7612,-0.4621,-0.8906,-0.0128,0.0117,0.0072,54.3000,29.7000,8.2500,-9.7500,-0.8300,0.5600,0.0033,-0.0011,0.0011,8.8750,-3.3750,-0.2500,0.5625,-83.8125,4.9375,0
49.375,0.7494,-8.9399,-4.2737,-0.0139,0.0043,0.0045,-53.1000,-25.0500,-35.8500,-9.7444,-0.3472,-0.8284,-0.0176,-0.0405,0.0416,53.4000,31.8000,6.0000,-9.7200,-0.8200,0.5900,0.0033,-0.0098,0.0065,8.8750,-3.3750,-0.2500,0.5625,-83.8125,4.9375,0
49.383,0.8164,-8.8945,-4.1994,0.0032,0.0037,-0.0003,-53.1000,-25.0500,-35.8500,-9.8019,-0.3831,-0.7925,-0.0176,-0.0405,0.0416,54.3000,31.2000,5.4000,-9.7800,-0.8200,0.5800,0.0044,-0.0120,0.0044,8.8750,-3.3750,-0.2500,0.5625,-83.8125,4.9375,0
49.388,0.8116,-9.0501,-4.0965,0.0032,0.0037,-0.0003,-53.8500,-25.8000,-35.8500,-9.8019,-0.3831,-0.7925,-0.0211,-0.0458,0.0453,54.3000,31.2000,5.4000,-9.7800,-0.8200,0.5800,0.0044,-0.0120,0.0044,8.8750,-3.3750,-0.2500,0.5625,-83.8125,4.9375,0
49.395,0.8116,-9.0501,-4.0965,0.0029,0.0216,0.0069,-53.8500,-25.8000,-35.8500,-9.8330,-0.2873,-0.7087,-0.0144,0.0088,0.0144,53.4000,30.3000,6.0000,-9.7700,-0.8300,0.6000,-0.0033,0.0022,-0.0044,9.6875,-3.3750,0.0625,0.5625,-83.8125,4.9375,0
49.405,0.8140,-9.0429,-4.0654,-0.0242,-0.0088,0.0099,-53.7000,-25.9500,-36.7500,-9.8090,-0.2610,-0.6656,-0.0056,0.0703,-0.0205,53.4000,30.3000,6.0000,-9.7500,-0.8200,0.5700,-0.0044,0.0065,-0.0044,9.6875,-3.3750,0.0625,0.5625,-83.8125,4.9375,0
49.412,0.8356,-9.0668,-4.1324,-0.0496,-0.0075,0.0280,-53.8500,-25.0500,-36.1500,-9.8330,-0.3519,-0.7590,-0.0056,0.0703,-0.0205,52.6500,31.0500,5.2500,-9.7900,-0.8500,0.5600,-0.0044,0.0011,-0.0033,9.6875,-3.3750,0.0625,0.5625,-83.8125,4.9375,0
49.417,0.7422,-9.0357,-4.1468,-0.0496,-0.0075,0.0280,-52.2000,-25.0500,-36.1500,-9.8330,-0.3519,-0.7590,-0.0011,0.0903,-0.0346,52.6500,31.0500,5.2500,-9.7900,-0.8500,0.5600,-0.0044,0.0011,-0.0033,9.6875,-3.3750,0.0625,0.5625,-83.8125,4.9375,0
49.426,0.7326,-8.9663,-4.1970,-0.0514,-0.0107,0.0192,-52.2000,-25.5000,-36.7500,-9.7588,-0.4094,-0.8212,-0.0035,0.0687,-0.0221,52.6500,30.7500,6.3000,-9.7900,-0.8400,0.5800,0.0000,0.0000,0.0000,9.6875,-3.3750,0.0625,0.5625,-83.8125,4.9375,0
49.436,0.7446,-8.9519,-4.1970,-0.0328,0.0048,0.0136,-53.1000,-24.6000,-38.4000,-9.7588,-0.3615,-0.8140,-0.0101,0.0269,0.0048,53.4000,30.3000,7.3500,-9.7500,-0.8200,0.6000,0.0033,-0.0022,0.0033,9.6875,-3.3750,0.0625,0.5625,-83.8125,4.9375,0
49.441,0.7446,-8.9519,-4.1970,-0.0141,0.0027,0.0003,-54.4500,-24.4500,-37.2000,-9.7516,-0.4262,-0.7973,-0.0101,0.0269,0.0048,53.5500,29.4000,7.2000,-9.7500,-0.8200,0.6000,0.0022,-0.0044,0.0022,8.8750,-3.0625,0.0625,0.5625,-83.8125,4.9375,0
49.447,0.7709,-8.9639,-4.1659,-0.0141,0.0027,0.0003,-54.4500,-24.4500,-37.2000,-9.7516,-0.4262,-0.7973,-0.0139,-0.0133,0.0280,53.5500,29.4000,7.2000,-9.7500,-0.8300,0.5900,0.0022,-0.0044,0.0022,8.8750,-3.0625,0.0625,0.5625,-83.8125,4.9375,0
49.456,0.7973,-9.0573,-4.1515,-0.0088,0.0109,-0.0016,-53.4000,-26.5500,-35.5500,-9.7588,-0.3926,-0.7278,-0.0187,-0.0072,0.0240,52.8000,29.7000,5.8500,-9.7700,-0.8400,0.5700,0.0000,0.0000,-0.0011,8.8750,-3.0625,0.0625,0.5625,-83.8125,4.9375,0
49.466,0.7805,-9.0812,-4.0701,-0.0200,0.0075,0.0064,-52.3500,-26.5500,-37.6500,-9.7899,-0.3256,-0.7470,-0.0093,0.0160,-0.0013,52.8000,29.7000,5.8500,-9.7500,-0.8400,0.5700,-0.0022,0.0044,-0.0011,8.8750,-3.0625,0.0625,0.5625,-83.8125,4.9375,0
49.475,0.7685,-9.0644,-4.1611,-0.0309,-0.0061,0.0136,-52.3500,-26.5500,-37.6500,-9.7683,-0.3328,-0.7326,-0.0059,0.0493,-0.0123,52.8000,29.7000,5.8500,-9.7500,-0.8300,0.5600,-0.0044,0.0000,-0.0022,8.8750,-3.0625,0.0625,0.5625,-83.8125,4.9375,0
49.484,0.7638,-9.0166,-4.2042,-0.0368,-0.0104,0.0258,-53.7000,-25.5000,-36.7500,-9.8067,-0.3567,-0.7518,-0.0107,0.0578,-0.0141,53.8500,31.2000,6.9000,-9.7600,-0.8500,0.5800,-0.0011,-0.0011,0.0011,8.8750,-3.0625,0.0625,0.5625,-83.8125,4.9375,0
49.489,0.7638,-9.0166,-4.2042,-0.0405,-0.0085,0.0179,-53.7000,-25.5000,-36.7500,-9.8282,-0.3352,-0.7949,-0.0107,0.0578,-0.0141,51.7500,30.4500,6.1500,-9.7600,-0.8500,0.5800,-0.0011,-0.0011,0.0011,8.8750,-3.3750,0.8750,0.5625,-83.8125,4.9375,0
49.496,0.8116,-8.9807,-4.1563,-0.0405,-0.0085,0.0179,-53.7000,-25.5000,-36.7500,-9.8426,-0.3831,-0.8021,-0.0104,0.0488,-0.0077,51.7500,30.4500,6.1500,-9.7800,-0.8300,0.5600,0.0011,-0.0033,0.0011,8.8750,-3.3750,0.8750,0.5625,-83.8125,4.9375,0
49.506,0.7470,-9.0357,-4.1970,-0.0280,-0.0027,0.0099,-52.5000,-25.9500,-36.7500,-9.8090,-0.4094,-0.8308,-0.0091,0.0248,0.0048,53.4000,31.0500,7.3500,-9.7700,-0.8400,0.5900,0.0011,-0.0022,0.0022,8.8750,-3.3750,0.8750,0.5625,-83.8125,4.9375,0
49.516,0.7470,-9.0333,-4.1444,-0.0152,0.0037,0.0037,-54.6000,-26.1000,-37.3500,-9.7827,-0.3879,-0.7829,-0.0107,0.0123,0.0075,54.0000,30.3000,6.3000,-9.7600,-0.8200,0.5600,0.0022,-0.0011,0.0000,8.8750,-3.3750,0.8750,0.5625,-83.8125,4.9375,0
49.525,0.8116,-9.0261,-4.1468,-0.0155,0.0048,0.0016,-54.0000,-26.4000,-36.4500,-9.8090,-0.3424,-0.7709,-0.0107,0.0179,0.0112,52.3500,30.1500,5.1000,-9.7700,-0.8500,0.6100,-0.0022,0.0033,-0.0022,8.8750,-3.3750,0.8750,0.5625,-83.8125,4.9375,0
49.532,0.7805,-9.0405,-4.1061,-0.0203,-0.0021,0.0128,-54.0000,-25.2000,-37.2000,-9.8090,-0.3424,-0.7709,-0.0157,0.0258,-0.0008,52.3500,30.1500,5.1000,-9.7700,-0.8500,0.6100,-0.0022,-0.0022,-0.0011,8.8750,-3.3750,0.8750,0.5625,-83.8125,4.9375,0
49.537,0.7805,-9.0405,-4.1061,-0.0320,-0.0056,0.0107,-54.0000,-25.2000,-37.2000,-9.8114,-0.3903,-0.7350,-0.0157,0.0258,-0.0008,52.9500,29.2500,6.7500,-9.7700,-0.8200,0.5800,-0.0022,-0.0022,-0.0011,8.8750,-3.3750,0.8750,0.5625,-83.8125,4.9375,0
49.542,0.8643,-9.0261,-4.1803,-0.0320,-0.0056,0.0107,-52.9500,-25.9500,-37.2000,-9.8114,-0.3903,-0.7350,-0.0099,0.0389,-0.0045,52.9500,29.2500,6.7500,-9.7700,-0.8400,0.6100,-0.0044,0.0011,-0.0011,9.2500,-3.3750,0.0625,0.5625,-83.8125,4.9375,0
49.547,0.8643,-9.0261,-4.1803,-0.0405,-0.0117,0.0218,-52.9500,-25.9500,-37.2000,-9.7899,-0.3903,-0.7925,-0.0099,0.0389,-0.0045,52.8000,30.4500,6.9000,-9.7700,-0.8400,0.6100,-0.0044,0.0011,-0.0011,9.2500,-3.3750,0.0625,0.5625,-83.8125,4.9375,0
49.556,0.7614,-9.0405,-4.1396,-0.0362,-0.0019,0.0117,-53.2500,-25.9500,-36.0000,-9.7707,-0.4070,-0.7925,-0.0061,0.0437,-0.0043,53.1000,30.9000,6.1500,-9.7500,-0.8400,0.5700,0.0011,-0.0022,0.0000,9.2500,-3.3750,0.0625,0.5625,-83.8125,4.9375,0
49.567,0.7254,-9.0046,-4.1420,-0.0240,0.0011,0.0083,-53.2500,-25.9500,-36.0000,-9.8569,-0.3735,-0.8164,-0.0083,0.0301,0.0035,52.9500,31.5000,7.3500,-9.7700,-0.8300,0.5700,0.0011,-0.0033,0.0022,9.2500,-3.3750,0.0625,0.5625,-83.8125,4.9375,0
49.576,0.7614,-8.9878,-4.1587,-0.0155,0.0133,0.0040,-54.4500,-25.2000,-36.7500,-9.7947,-0.3639,-0.6919,-0.0067,0.0250,0.0069,54.4500,30.7500,6.7500,-9.7500,-0.8400,0.5900,0.0011,-0.0011,0.0011,9.2500,-3.3750,0.0625,0.5625,-83.8125,4.9375,0
49.586,0.8140,-9.0237,-4.1108,-0.0147,0.0059,0.0091,-54.4500,-25.2000,-36.7500,-9.8186,-0.3424,-0.7638,-0.0088,0.0192,0.0035,54.4500,30.7500,6.7500,-9.7700,-0.8300,0.5800,0.0000,-0.0044,0.0000,9.2500,-3.3750,0.0625,0.5625,-83.8125,4.9375,0
49.591,0.8308,-9.1171,-4.1994,-0.0147,0.0059,0.0091,-53.7000,-25.9500,-36.0000,-9.8186,-0.3424,-0.7638,-0.0125,0.0296,0.0043,54.4500,30.7500,6.7500,-9.7700,-0.8300,0.5800,-0.0033,0.0033,-0.0022,8.8750,-3.3750,0.3750,0.5625,-83.8125,4.9375,0
49.597,0.8308,-9.1171,-4.1994,-0.0216,-0.0008,0.0123,-53.7000,-25.9500,-36.0000,-9.7659,-0.3208,-0.7494,-0.0075,0.0424,-0.0051,54.9000,30.4500,6.9000,-9.7800,-0.8200,0.5700,-0.0033,0.0033,-0.0022,8.8750,-3.3750,0.3750,0.5625,-83.8125,4.9375,0
49.606,0.8212,-9.0261,-4.1228,-0.0362,0.0008,0.0171,-55.2000,-26.4000,-36.7500,-9.8234,-0.3041,-0.8140,-0.0104,0.0389,-0.0067,53.4000,31.0500,7.8000,-9.7700,-0.8300,0.5700,-0.0011,0.0033,-0.0022,8.8750,-3.3750,0.3750,0.5625,-83.8125,4.9375,0
49.616,0.7757,-9.0022,-4.1372,-0.0314,-0.0027,0.0131,-53.7000,-25.5000,-36.4500,-9.7659,-0.3831,-0.7781,-0.0117,0.0266,0.0005,53.5500,30.4500,5.8500,-9.7700,-0.8400,0.5600,-0.0011,0.0000,-0.0011,8.8750,-3.3750,0.3750,0.5625,-83.8125,4.9375,0
49.626,0.7638,-9.0525,-4.1492,-0.0269,-0.0016,0.0107,-52.5000,-26.7000,-37.9500,-9.8114,-0.3448,-0.7925,-0.0088,0.0197,0.0043,51.9000,31.0500,6.3000,-9.7800,-0.8400,0.5900,0.0000,-0.0011,0.0011,8.8750,-3.3750,0.3750,0.5625,-83.8125,4.9375,0
49.635,0.7590,-9.0309,-4.1515,-0.0221,0.0005,0.0125,-54.1500,-24.6000,-36.9000,-9.7468,-0.3089,-0.7566,-0.0080,0.0216,0.0067,54.0000,28.8000,5.7000,-9.7500,-0.8300,0.5800,0.0000,0.0011,0.0011,8.8750,-3.3750,0.3750,0.5625,-83.8125,4.9375,0
49.640,0.7685,-8.9759,-4.1635,-0.0221,0.0005,0.0125,-53.8500,-25.3500,-36.6000,-9.7468,-0.3089,-0.7566,-0.0080,0.0216,0.0067,54.0000,28.8000,5.7000,-9.7500,-0.8300,0.5800,0.0000,0.0011,0.0011,9.6875,-3.3750,-0.2500,0.5625,-83.8125,4.9375,0
49.647,0.7614,-9.0525,-4.1084,-0.0195,0.0013,0.0072,-53.8500,-25.3500,-36.6000,-9.8067,-0.3663,-0.7733,-0.0104,0.0280,0.0040,54.0000,28.8000,5.7000,-9.7600,-0.8300,0.5900,0.0011,0.0000,-0.0011,9.6875,-3.3750,-0.2500,0.5625,-83.8125,4.9375,0
49.656,0.8260,-9.0788,-4.1731,-0.0184,0.0069,0.0093,-53.8500,-25.3500,-36.6000,-9.7803,-0.3519,-0.7949,-0.0064,0.0402,-0.0045,54.0000,28.8000,5.7000,-9.7600,-0.8300,0.5600,-0.0033,0.0000,-0.0011,9.6875,-3.3750,-0.2500,0.5625,-83.8125,4.9375,0
49.666,0.7638,-9.0812,-4.1611,-0.0285,-0.0072,0.0125,-52.9500,-24.7500,-36.0000,-9.8330,-0.3711,-0.7829,-0.0096,0.0424,-0.0032,52.3500,30.1500,6.1500,-9.7800,-0.8100,0.5700,0.0000,-0.0011,-0.0022,9.6875,-3.3750,-0.2500,0.5625,-83.8125,4.9375,0
49.676,0.7997,-9.0740,-4.1587,-0.0338,-0.0091,0.0157,-52.9500,-24.7500,-36.0000,-9.8282,-0.3759,-0.7853,-0.0144,0.0349,-0.0013,52.8000,30.4500,6.4500,-9.7800,-0.8400,0.5800,-0.0022,0.0000,-0.0022,9.6875,-3.3750,-0.2500,0.5625,-83.8125,4.9375,0
49.684,0.7997,-9.0740,-4.1587,-0.0333,-0.0035,0.0149,-53.2500,-25.9500,-37.5000,-9.8306,-0.3089,-0.8068,-0.0085,0.0232,0.0045,53.8500,30.1500,6.1500,-9.7400,-0.8300,0.5700,0.0011,-0.0033,0.0000,9.6875,-3.3750,-0.2500,0.5625,-83.8125,4.9375,0
49.689,0.7781,-9.0166,-4.1827,-0.0333,-0.0035,0.0149,-53.2500,-25.9500,-37.5000,-9.7995,-0.3711,-0.7925,-0.0085,0.0232,0.0045,53.8500,30.1500,6.1500,-9.7400,-0.8300,0.5700,0.0011,-0.0033,0.0000,9.6875,-3.3750,-0.2500,0.5625,-83.8125,4.9375,0
49.697,0.7685,-8.9807,-4.1707,-0.0272,0.0013,0.0101,-53.2500,-25.9500,-37.5000,-9.7995,-0.3711,-0.7925,-0.0064,0.0248,0.0091,54.0000,31.0500,5.7000,-9.7700,-0.8400,0.5700,0.0000,-0.0011,0.0000,9.2500,-4.1875,0.3750,0.5625,-83.8125,4.9375,0
49.706,0.8356,-9.0333,-4.1563,-0.0221,0.0027,0.0067,-53.7000,-25.5000,-37.5000,-9.8090,-0.3615,-0.7542,-0.0072,0.0240,0.0075,54.7500,31.0500,7.0500,-9.7600,-0.8300,0.5600,0.0000,-0.0044,0.0000,9.2500,-4.1875,0.3750,0.5625,-83.8125,4.9375,0
49.716,0.7973,-9.0357,-4.1372,-0.0200,0.0048,0.0075,-52.9500,-25.5000,-36.7500,-9.8306,-0.4070,-0.7374,-0.0075,0.0328,-0.0013,54.7500,31.0500,7.0500,-9.7400,-0.8400,0.5600,0.0000,-0.0033,-0.0011,9.2500,-4.1875,0.3750,0.5625,-83.8125,4.9375,0
49.726,0.8643,-9.0261,-4.1659,-0.0232,0.0035,0.0096,-53.7000,-25.9500,-36.7500,-9.7923,-0.3974,-0.8045,-0.0083,0.0440,-0.0024,54.0000,31.8000,6.7500,-9.7800,-0.8300,0.5600,0.0000,0.0011,0.0000,9.2500,-4.1875,0.3750,0.5625,-83.8125,4.9375,0
49.735,0.7374,-9.0644,-4.1180,-0.0333,0.0037,0.0157,-53.8500,-25.0500,-37.3500,-9.7588,-0.2945,-0.7805,-0.0067,0.0384,-0.0011,53.5500,29.7000,6.9000,-9.7600,-0.8400,0.5700,-0.0022,0.0011,-0.0033,9.2500,-4.1875,0.3750,0.5625,-83.8125,4.9375,0
49.740,0.7374,-9.0644,-4.1180,-0.0298,-0.0091,0.0152,-55.2000,-25.2000,-36.4500,-9.8090,-0.3328,-0.7638,-0.0067,0.0384,-0.0011,53.5500,29.7000,6.9000,-9.7600,-0.8400,0.5700,-0.0022,0.0011,-0.0033,8.8750,-3.0625,0.3750,0.5625,-83.8125,4.9375,0
49.747,0.7350,-9.0860,-4.1707,-0.0298,-0.0091,0.0152,-55.2000,-25.2000,-36.4500,-9.8090,-0.3328,-0.7638,-0.0120,0.0360,0.0000,53.1000,31.9500,7.6500,-9.7600,-0.8300,0.5700,-0.0022,-0.0011,0.0011,8.8750,-3.0625,0.3750,0.5625,-83.8125,4.9375,0
49.756,0.8332,-9.0237,-4.1515,-0.0285,0.0005,0.0085,-54.4500,-25.2000,-35.2500,-9.7971,-0.3256,-0.7757,-0.0133,0.0258,0.0088,53.4000,30.7500,7.0500,-9.7400,-0.8200,0.5600,0.0011,0.0000,-0.0011,8.8750,-3.0625,0.3750,0.5625,-83.8125,4.9375,0
49.766,0.7542,-9.0261,-4.1659,-0.0205,0.0035,0.0101,-54.4500,-25.2000,-35.2500,-9.8641,-0.3950,-0.7661,-0.0115,0.0181,0.0072,54.3000,30.1500,6.9000,-9.7600,-0.8500,0.5600,0.0022,-0.0011,-0.0011,8.8750,-3.0625,0.3750,0.5625,-83.8125,4.9375,0
49.776,0.8284,-9.0214,-4.1755,-0.0226,-0.0032,0.0096,-52.2000,-26.4000,-36.4500,-9.7612,-0.3543,-0.6967,-0.0085,0.0226,0.0067,54.3000,30.1500,6.9000,-9.7800,-0.8400,0.5500,-0.0011,0.0011,0.0000,8.8750,-3.0625,0.3750,0.5625,-83.8125,4.9375,0
49.785,0.8140,-9.0285,-4.1204,-0.0226,-0.0032,0.0096,-52.2000,-26.4000,-36.4500,-9.7612,-0.3543,-0.6967,-0.0099,0.0352,-0.0019,52.9500,30.0000,7.0500,-9.7600,-0.8200,0.5600,0.0011,-0.0033,-0.0011,8.8750,-3.0625,0.3750,0.5625,-83.8125,4.9375,0
49.790,0.8140,-9.0285,-4.1204,-0.0242,0.0016,0.0136,-52.2000,-26.4000,-36.4500,-9.8090,-0.3663,-0.8045,-0.0155,0.0424,-0.0091,52.9500,30.0000,7.0500,-9.7600,-0.8200,0.5600,0.0011,-0.0033,-0.0011,9.2500,-3.0625,0.8750,0.5625,-83.8125,4.9375,0
49.797,0.7973,-9.0261,-4.1396,-0.0258,-0.0005,0.0155,-53.4000,-25.0500,-36.9000,-9.8043,-0.3472,-0.7446,-0.0155,0.0424,-0.0091,53.4000,30.3000,6.7500,-9.7700,-0.8500,0.5900,0.0000,0.0000,0.0000,9.2500,-3.0625,0.8750,0.5625,-83.8125,4.9375,0
49.807,0.7518,-9.0166,-4.1851,-0.0290,0.0053,0.0139,-54.0000,-24.4500,-36.7500,-9.7731,-0.3663,-0.7853,-0.0093,0.0354,-0.0029,53.7000,31.0500,6.7500,-9.7700,-0.8300,0.5900,0.0000,0.0022,0.0000,9.2500,-3.0625,0.8750,0.5625,-83.8125,4.9375,0
49.816,0.7661,-9.0405,-4.2042,-0.0266,0.0003,0.0072,-53.4000,-26.1000,-36.9000,-9.8043,-0.3400,-0.8116,-0.0112,0.0269,0.0045,53.1000,30.1500,7.2000,-9.7500,-0.8300,0.5700,0.0011,0.0022,-0.0011,9.2500,-3.0625,0.8750,0.5625,-83.8125,4.9375,0
49.826,0.7853,-9.0477,-4.2042,-0.0258,0.0040,0.0123,-55.0500,-25.8000,-37.6500,-9.7588,-0.4381,-0.7709,-0.0096,0.0179,0.0101,54.9000,30.4500,6.9000,-9.7600,-0.8300,0.6000,-0.0011,-0.0022,0.0000,9.2500,-3.0625,0.8750,0.5625,-83.8125,4.9375,0
49.837,0.7111,-9.0860,-4.1324,-0.0189,0.0011,0.0059,-53.7000,-25.5000,-36.4500,-9.7875,-0.3017,-0.8499,-0.0117,0.0173,0.0083,54.9000,30.4500,6.9000,-9.7700,-0.8400,0.5600,0.0000,-0.0055,-0.0011,9.2500,-3.0625,0.8750,0.5625,-83.8125,4.9375,0
49.841,0.7709,-9.0118,-4.1922,-0.0189,0.0011,0.0059,-53.1000,-26.5500,-37.3500,-9.7875,-0.3017,-0.8499,-0.0099,0.0285,0.0013,54.9000,30.4500,6.9000,-9.7700,-0.8400,0.5600,-0.0011,0.0022,-0.0011,9.2500,-4.1875,0.3750,0.5625,-83.8125,4.9375,0
49.847,0.7709,-9.0118,-4.1922,-0.0229,0.0037,0.0099,-53.1000,-26.5500,-37.3500,-9.7971,-0.2969,-0.7757,-0.0099,0.0285,0.0013,54.9000,30.4500,6.9000,-9.7800,-0.8400,0.5600,-0.0011,0.0022,-0.0011,9.2500,-4.1875,0.3750,0.5625,-83.8125,4.9375,0
49.857,0.7805,-9.0237,-4.1659,-0.0218,-0.0013,0.0099,-53.1000,-26.5500,-37.3500,-9.8354,-0.3112,-0.7805,-0.0104,0.0362,-0.0067,53.1000,30.4500,6.1500,-9.7500,-0.8200,0.5700,-0.0011,0.0011,-0.0011,9.2500,-4.1875,0.3750,0.5625,-83.8125,4.9375,0
49.867,0.7518,-9.0118,-4.1611,-0.0317,-0.0056,0.0125,-52.5000,-26.7000,-36.0000,-9.8114,-0.3735,-0.7685,-0.0083,0.0421,-0.0064,52.6500,29.5500,7.3500,-9.7500,-0.8200,0.5600,0.0011,-0.0033,-0.0022,9.2500,-4.1875,0.3750,0.5625,-83.8125,4.9375,0
49.876,0.7901,-8.9639,-4.1515,-0.0234,0.0013,0.0173,-52.5000,-26.7000,-36.0000,-9.7995,-0.3591,-0.7877,-0.0083,0.0320,0.0011,52.0500,30.9000,5.4000,-9.7600,-0.8200,0.5900,0.0011,-0.0022,-0.0022,9.2500,-4.1875,0.3750,0.5625,-83.8125,4.9375,0
49.885,0.7638,-8.9759,-4.1132,-0.0322,-0.0021,0.0152,-53.4000,-25.3500,-36.9000,-9.7851,-0.3448,-0.7374,-0.0123,0.0216,0.0032,52.6500,31.0500,5.7000,-9.7800,-0.8300,0.5700,0.0011,-0.0033,0.0011,9.2500,-4.1875,0.3750,0.5625,-83.8125,4.9375,0
49.890,0.7302,-9.0477,-4.1635,-0.0322,-0.0021,0.0152,-53.4000,-25.3500,-36.9000,-9.7851,-0.3448,-0.7374,-0.0067,0.0211,0.0088,52.9500,31.5000,6.7500,-9.7800,-0.8300,0.5700,0.0011,-0.0033,0.0011,8.8750,-3.7500,0.8750,0.5625,-83.8125,4.9375,0
49.897,0.7350,-9.0094,-4.1611,-0.0296,0.0011,0.0083,-54.4500,-26.4000,-36.4500,-9.7779,-0.3472,-0.7590,-0.0101,0.0293,0.0043,52.9500,31.5000,6.7500,-9.7800,-0.8300,0.5600,0.0011,-0.0011,-0.0022,8.8750,-3.7500,0.8750,0.5625,-83.8125,4.9375,0
49.907,0.8236,-9.0166,-4.1875,-0.0266,-0.0005,0.0123,-53.1000,-26.1000,-35.5500,-9.8210,-0.3376,-0.7350,-0.0083,0.0346,0.0019,52.9500,31.5000,6.7500,-9.7800,-0.8500,0.5900,-0.0022,0.0011,0.0000,8.8750,-3.7500,0.8750,0.5625,-83.8125,4.9375,0
49.917,0.7805,-9.0261,-4.1659,-0.0242,-0.0051,0.0093,-54.7500,-25.2000,-36.7500,-9.8234,-0.3615,-0.7614,-0.0093,0.0426,-0.0037,53.7000,31.5000,8.1000,-9.7500,-0.8300,0.5700,-0.0011,-0.0011,0.0000,8.8750,-3.7500,0.8750,0.5625,-83.8125,4.9375,0
49.926,0.8045,-9.0166,-4.1515,-0.0245,0.0003,0.0112,-52.3500,-25.3500,-36.1500,-9.7755,-0.3280,-0.7159,-0.0075,0.0322,0.0019,53.7000,29.5500,7.0500,-9.7700,-0.8500,0.5600,-0.0022,0.0000,-0.0011,8.8750,-3.7500,0.8750,0.5625,-83.8125,4.9375,0
49.934,0.7805,-8.9711,-4.1922,-0.0293,0.0027,0.0149,-53.8500,-25.8000,-36.6000,-9.7899,-0.3639,-0.7901,-0.0075,0.0322,0.0019,53.1000,30.9000,5.8500,-9.7800,-0.8300,0.5900,-0.0022,0.0011,0.0000,8.8750,-3.7500,0.8750,0.5625,-83.8125,4.9375,0
49.939,0.7805,-8.9711,-4.1922,-0.0280,0.0032,0.0112,-53.8500,-25.8000,-36.6000,-9.7899,-0.3639,-0.7901,-0.0059,0.0272,0.0013,53.8500,30.4500,6.4500,-9.7800,-0.8300,0.5900,-0.0022,0.0011,0.0000,8.8750,-3.7500,0.8750,0.5625,-83.8125,4.9375,0
49.944,0.7757,-8.9639,-4.1300,-0.0280,0.0032,0.0112,-52.9500,-25.9500,-37.5000,-9.7995,-0.3400,-0.7901,-0.0059,0.0272,0.0013,53.8500,30.4500,6.4500,-9.7800,-0.8600,0.5800,0.0000,0.0022,0.0000,9.6875,-3.3750,-0.2500,0.5625,-83.8125,4.9375,0
49.949,0.7757,-8.9639,-4.1300,-0.0269,0.0043,0.0101,-52.9500,-25.9500,-37.5000,-9.7995,-0.3400,-0.7901,-0.0075,0.0248,0.0048,54.4500,30.3000,6.0000,-9.7800,-0.8600,0.5800,0.0000,0.0022,0.0000,9.6875,-3.3750,-0.2500,0.5625,-83.8125,4.9375,0
49.957,0.8332,-9.0070,-4.2042,-0.0269,0.0043,0.0101,-54.0000,-24.7500,-35.7000,-9.8043,-0.3089,-0.7997,-0.0072,0.0229,0.0043,54.4500,30.3000,6.0000,-9.7600,-0.8300,0.5600,0.0011,-0.0022,0.0000,9.6875,-3.3750,-0.2500,0.5625,-83.8125,4.9375,0
49.967,0.7685,-9.0261,-4.2018,-0.0266,0.0035,0.0091,-54.0000,-24.7500,-35.7000,-9.8162,-0.3424,-0.7829,-0.0120,0.0248,0.0005,54.4500,30.3000,6.0000,-9.7700,-0.8200,0.5600,0.0011,-0.0022,0.0011,9.6875,-3.3750,-0.2500,0.5625,-83.8125,4.9375,0
49.977,0.8140,-9.0405,-4.1539,-0.0290,0.0037,0.0133,-54.1500,-26.1000,-36.1500,-9.8067,-0.3615,-0.7661,-0.0059,0.0378,-0.0040,53.5500,30.4500,6.1500,-9.7800,-0.8100,0.5600,-0.0011,0.0011,-0.0011,9.6875,-3.3750,-0.2500,0.5625,-83.8125,4.9375,0
49.987,0.7973,-9.0381,-4.1707,-0.0277,-0.0021,0.0168,-54.1500,-26.1000,-36.1500,-9.8210,-0.3735,-0.8045,-0.0075,0.0357,-0.0027,52.6500,30.0000,6.0000,-9.7900,-0.8300,0.6200,-0.0011,0.0033,-0.0011,9.6875,-3.3750,-0.2500,0.5625,-83.8125,4.9375,0
49.992,0.7973,-9.0381,-4.1707,-0.0330,-0.0048,0.0133,-54.1500,-26.1000,-36.1500,-9.8330,-0.3903,-0.7590,-0.0075,0.0357,-0.0027,54.4500,30.7500,7.0500,-9.7900,-0.8300,0.6200,-0.0011,0.0011,0.0000,9.2500,-3.7500,0.0625,0.5625,-83.8125,4.9375,0
49.998,0.8021,-9.0166,-4.1827,-0.0288,-0.0011,0.0096,-52.3500,-25.8000,-37.3500,-9.8330,-0.3903,-0.7590,-0.0093,0.0362,0.0024,53.5500,30.9000,6.9000,-9.7800,-0.8400,0.5900,-0.0011,0.0011,0.0000,9.2500,-3.7500,0.0625,0.5625,-83.8125,4.9375,0
50.007,0.7757,-9.0381,-4.2066,-0.0245,-0.0011,0.0112,-53.2500,-25.5000,-36.4500,-9.8067,-0.4094,-0.8212,-0.0069,0.0309,0.0037,54.3000,30.1500,6.4500,-9.7700,-0.8300,0.5700,-0.0022,0.0022,0.0011,9.2500,-3.7500,0.0625,0.5625,-83.8125,4.9375,0
50.017,0.7566,-9.0573,-4.1468,-0.0277,0.0019,0.0075,-54.0000,-24.7500,-34.9500,-9.8138,-0.3663,-0.7685,-0.0117,0.0248,0.0059,54.3000,30.1500,6.4500,-9.7400,-0.8300,0.5700,0.0022,-0.0044,-0.0022,9.2500,-3.7500,0.0625,0.5625,-83.8125,4.9375,0
50.027,0.7614,-9.0764,-4.1180,-0.0221,-0.0027,0.0077,-53.2500,-25.5000,-36.0000,-9.7971,-0.3472,-0.7925,-0.0085,0.0256,0.0043,54.3000,30.1500,6.4500,-9.7800,-0.8200,0.5500,-0.0011,-0.0011,-0.0022,9.2500,-3.7500,0.0625,0.5625,-83.8125,4.9375,0
50.036,0.7326,-9.0692,-4.1515,-0.0240,0.0008,0.0093,-52.3500,-26.5500,-37.6500,-9.7492,-0.3424,-0.7566,-0.0109,0.0306,-0.0008,54.3000,30.1500,6.4500,-9.7500,-0.8400,0.5700,-0.0011,-0.0011,-0.0011,9.2500,-3.7500,0.0625,0.5625,-83.8125,4.9375,0
50.041,0.7805,-9.0573,-4.1515,-0.0240,0.0008,0.0093,-52.3500,-26.5500,-37.6500,-9.8402,-0.2993,-0.7901,-0.0109,0.0306,-0.0008,53.7000,31.0500,7.3500,-9.7500,-0.8400,0.5700,-0.0011,-0.0011,-0.0011,9.2500,-3.7500,0.0625,0.5625,-83.8125,4.9375,0
50.047,0.7805,-9.0573,-4.1515,-0.0282,0.0061,0.0112,-54.0000,-26.4000,-36.0000,-9.8282,-0.3591,-0.7422,-0.0101,0.0330,-0.0013,54.0000,30.7500,6.7500,-9.7500,-0.8400,0.5700,0.0000,-0.0033,-0.0044,9.2500,-4.1875,0.3750,0.5625,-83.8125,4.9375,0
50.057,0.8021,-9.0166,-4.1659,-0.0245,-0.0029,0.0117,-54.0000,-26.4000,-36.0000,-9.7923,-0.4238,-0.7590,-0.0131,0.0450,0.0013,53.8500,31.9500,5.4000,-9.7800,-0.8400,0.5600,0.0000,-0.0055,0.0000,9.2500,-4.1875,0.3750,0.5625,-83.8125,4.9375,0
50.067,0.7877,-8.9902,-4.1827,-0.0264,-0.0053,0.0077,-53.1000,-25.3500,-38.1000,-9.8210,-0.3352,-0.8428,-0.0093,0.0362,0.0029,54.0000,31.0500,6.0000,-9.7700,-0.8400,0.5600,-0.0011,0.0000,0.0000,9.2500,-4.1875,0.3750,0.5625,-83.8125,4.9375,0
50.077,0.8523,-9.0261,-4.1563,-0.0245,-0.0011,0.0109,-53.1000,-25.3500,-38.1000,-9.7612,-0.3879,-0.7925,-0.0128,0.0250,0.0021,53.4000,29.5500,7.3500,-9.7500,-0.8300,0.5900,0.0000,0.0011,0.0011,9.2500,-4.1875,0.3750,0.5625,-83.8125,4.9375,0
50.087,0.7949,-9.0980,-4.1420,-0.0282,0.0005,0.0056,-52.9500,-25.2000,-36.4500,-9.7779,-0.3974,-0.7925,-0.0085,0.0266,0.0013,53.4000,29.5500,7.3500,-9.7600,-0.8100,0.5600,0.0000,-0.0011,0.0011,9.2500,-4.1875,0.3750,0.5625,-83.8125,4.9375,0
50.091,0.7781,-9.0525,-4.1659,-0.0282,0.0005,0.0056,-52.9500,-25.2000,-36.4500,-9.7779,-0.3974,-0.7925,-0.0120,0.0288,0.0021,53.4000,29.5500,7.3500,-9.7600,-0.8100,0.5600,-0.0011,0.0011,-0.0011,9.6875,-3.3750,0.3750,0.5625,-83.8125,4.9375,0
50.098,0.7733,-9.0740,-4.1539,-0.0216,-0.0029,0.0083,-53.8500,-25.8000,-37.6500,-9.8186,-0.4262,-0.7685,-0.0120,0.0288,0.0021,53.5500,31.2000,7.2000,-9.7600,-0.8300,0.6000,-0.0011,0.0011,-0.0011,9.6875,-3.3750,0.3750,0.5625,-83.8125,4.9375,0
50.107,0.7733,-9.0668,-4.2282,-0.0216,0.0003,0.0093,-55.0500,-25.3500,-37.3500,-9.8162,-0.3472,-0.7566,-0.0088,0.0274,-0.0016,54.3000,30.9000,6.9000,-9.7600,-0.7900,0.5600,-0.0011,0.0022,0.0011,9.6875,-3.3750,0.3750,0.5625,-83.8125,4.9375,0
50.117,0.7853,-8.9783,-4.1755,-0.0266,0.0013,0.0131,-54.1500,-24.6000,-36.6000,-9.8114,-0.3472,-0.8045,-0.0117,0.0370,-0.0056,54.3000,30.4500,6.4500,-9.7700,-0.8200,0.5500,0.0000,-0.0033,0.0000,9.6875,-3.3750,0.3750,0.5625,-83.8125,4.9375,0
50.127,0.7877,-9.0477,-4.1108,-0.0232,-0.0064,0.0109,-54.6000,-24.6000,-36.6000,-9.8090,-0.3496,-0.7853,-0.0112,0.0400,0.0027,54.6000,30.9000,6.1500,-9.7800,-0.8300,0.5700,-0.0022,-0.0011,0.0033,9.6875,-3.3750,0.3750,0.5625,-83.8125,4.9375,0
50.136,0.7877,-9.0477,-4.1108,-0.0229,-0.0024,0.0139,-54.0000,-25.9500,-36.7500,-9.8378,-0.3496,-0.7781,-0.0117,0.0309,0.0013,52.6500,31.5000,7.0500,-9.7600,-0.8200,0.5800,0.0000,0.0022,0.0000,9.6875,-3.3750,0.3750,0.5625,-83.8125,4.9375,0
50.141,0.7614,-8.9998,-4.1444,-0.0229,-0.0024,0.0139,-54.0000,-25.9500,-36.7500,-9.8378,-0.3496,-0.7781,-0.0115,0.0272,-0.0005,52.6500,31.5000,7.0500,-9.7600,-0.8200,0.5800,0.0000,0.0022,0.0000,9.6875,-3.3750,0.3750,0.5625,-83.8125,4.9375,0
50.147,0.7638,-9.0309,-4.1683,-0.0232,0.0032,0.0099,-54.0000,-25.9500,-36.7500,-9.7707,-0.3783,-0.7949,-0.0115,0.0272,-0.0005,52.6500,31.5000,7.0500,-9.7500,-0.8100,0.5800,-0.0033,0.0000,-0.0011,8.5625,-3.3750,0.3750,0.5625,-83.8125,4.9375,0
50.157,0.7973,-9.0166,-4.1875,-0.0242,-0.0011,0.0123,-53.2500,-25.2000,-35.7000,-9.8306,-0.3543,-0.7614,-0.0051,0.0322,0.0008,52.9500,31.5000,6.3000,-9.7600,-0.8200,0.5800,-0.0011,0.0011,0.0022,8.5625,-3.3750,0.3750,0.5625,-83.8125,4.9375,0
50.167,0.7063,-9.0214,-4.1156,-0.0301,0.0024,0.0099,-53.2500,-25.2000,-35.7000,-9.8904,-0.3400,-0.7590,-0.0077,0.0344,-0.0045,53.5500,31.6500,6.4500,-9.7600,-0.8300,0.5700,-0.0011,0.0000,0.0022,8.5625,-3.3750,0.3750,0.5625,-83.8125,4.9375,0
50.177,0.7853,-9.0692,-4.1324,-0.0248,-0.0032,0.0131,-54.1500,-25.3500,-37.3500,-9.8138,-0.3519,-0.7446,-0.0077,0.0344,-0.0045,54.4500,31.0500,6.0000,-9.7800,-0.8600,0.5800,-0.0011,0.0011,0.0000,8.5625,-3.3750,0.3750,0.5625,-83.8125,4.9375,0
50.183,0.7853,-9.0692,-4.1324,-0.0328,-0.0003,0.0104,-54.1500,-25.3500,-37.3500,-9.8186,-0.3615,-0.7590,-0.0085,0.0296,0.0013,54.4500,31.0500,6.0000,-9.7800,-0.8600,0.5800,0.0000,0.0000,0.0033,8.5625,-3.3750,0.3750,0.5625,-83.8125,4.9375,0
50.188,0.8092,-9.0285,-4.1707,-0.0328,-0.0003,0.0104,-54.1500,-25.3500,-37.3500,-9.8186,-0.3615,-0.7590,-0.0072,0.0301,0.0008,54.0000,31.5000,6.7500,-9.7400,-0.8400,0.5800,0.0000,0.0000,0.0033,8.5625,-3.3750,0.3750,0.5625,-83.8125,4.9375,0
50.193,0.8092,-9.0285,-4.1707,-0.0240,-0.0027,0.0152,-54.1500,-25.3500,-37.3500,-9.7348,-0.3831,-0.7805,-0.0072,0.0301,0.0008,53.4000,30.3000,6.0000,-9.7600,-0.8400,0.5900,-0.0011,0.0000,0.0011,8.8750,-3.3750,-0.2500,0.5625,-83.8125,4.9375,0
50.198,0.7709,-8.9878,-4.1539,-0.0240,-0.0027,0.0152,-53.1000,-25.0500,-36.9000,-9.7348,-0.3831,-0.7805,-0.0091,0.0312,0.0091,53.4000,30.3000,6.0000,-9.7600,-0.8400,0.5900,-0.0011,0.0000,0.0011,8.8750,-3.3750,-0.2500,0.5625,-83.8125,4.9375,0
50.208,0.7350,-8.9974,-4.1587,-0.0234,0.0027,0.0072,-53.1000,-25.8000,-36.9000,-9.8186,-0.3783,-0.7590,-0.0141,0.0250,0.0032,53.4000,30.3000,6.0000,-9.7700,-0.8300,0.5800,0.0000,0.0011,0.0000,8.8750,-3.3750,-0.2500,0.5625,-83.8125,4.9375,0
50.217,0.7877,-8.9926,-4.1492,-0.0240,0.0008,0.0099,-53.8500,-24.1500,-36.1500,-9.8210,-0.3376,-0.7661,-0.0093,0.0245,0.0013,53.4000,30.3000,6.0000,-9.7700,-0.8200,0.5900,0.0011,0.0000,0.0000,8.8750,-3.3750,-0.2500,0.5625,-83.8125,4.9375,0
50.227,0.7805,-9.1123,-4.1899,-0.0234,-0.0029,0.0101,-52.5000,-25.5000,-37.2000,-9.8186,-0.3615,-0.7805,-0.0093,0.0314,0.0013,53.5500,29.7000,7.2000,-9.7500,-0.8100,0.5900,-0.0011,0.0000,0.0000,8.8750,-3.3750,-0.2500,0.5625,-83.8125,4.9375,0
50.237,0.8116,-9.0573,-4.1396,-0.0221,-0.0011,0.0131,-55.0500,-25.3500,-36.1500,-9.8282,-0.3567,-0.7829,-0.0096,0.0312,0.0005,54.4500,31.5000,6.3000,-9.7700,-0.8500,0.5900,0.0000,0.0011,0.0000,8.8750,-3.3750,-0.2500,0.5625,-83.8125,4.9375,0
50.242,0.7374,-8.9783,-4.1444,-0.0229,0.0016,0.0152,-55.0500,-25.3500,-36.1500,-9.8067,-0.3639,-0.7757,-0.0096,0.0312,0.0005,54.4500,31.5000,6.3000,-9.7700,-0.8500,0.5900,-0.0011,0.0022,0.0022,9.2500,-4.1875,-1.0625,0.5625,-83.8125,4.9375,0
50.248,0.7374,-8.9783,-4.1444,-0.0261,0.0005,0.0141,-53.1000,-25.0500,-38.4000,-9.8067,-0.3639,-0.7757,-0.0077,0.0301,-0.0016,53.7000,29.5500,5.2500,-9.7600,-0.8300,0.5800,-0.0011,0.0022,0.0022,9.2500,-4.1875,-1.0625,0.5625,-83.8125,4.9375,0
50.258,0.7781,-9.0573,-4.1180,-0.0261,0.0045,0.0128,-53.1000,-25.0500,-38.4000,-9.7731,-0.4238,-0.7446,-0.0085,0.0293,-0.0016,53.5500,30.4500,6.9000,-9.7600,-0.8400,0.5800,-0.0011,-0.0011,0.0000,9.2500,-4.1875,-1.0625,0.5625,-83.8125,4.9375,0
50.267,0.7877,-8.9854,-4.1635,-0.0269,0.0011,0.0075,-54.0000,-25.9500,-37.2000,-9.8210,-0.3256,-0.7542,-0.0120,0.0264,0.0045,55.3500,30.4500,6.4500,-9.7700,-0.8300,0.5500,-0.0022,0.0011,0.0011,9.2500,-4.1875,-1.0625,0.5625,-83.8125,4.9375,0
50.277,0.7661,-8.9974,-4.1970,-0.0266,-0.0003,0.0123,-54.0000,-25.9500,-37.2000,-9.7827,-0.4118,-0.7230,-0.0131,0.0293,0.0043,55.3500,30.4500,6.4500,-9.7700,-0.8200,0.5900,-0.0022,0.0022,0.0022,9.2500,-4.1875,-1.0625,0.5625,-83.8125,4.9375,0
50.287,0.7638,-8.9974,-4.1755,-0.0301,0.0021,0.0125,-53.8500,-26.5500,-36.9000,-9.8186,-0.3591,-0.7638,-0.0107,0.0301,-0.0003,53.4000,31.0500,6.0000,-9.7500,-0.8300,0.5700,-0.0011,0.0022,0.0022,9.2500,-4.1875,-1.0625,0.5625,-83.8125,4.9375,0
50.292,0.7685,-8.9735,-4.1420,-0.0301,0.0021,0.0125,-53.8500,-26.5500,-36.9000,-9.7181,-0.3711,-0.7877,-0.0107,0.0301,-0.0003,54.0000,30.0000,7.0500,-9.7500,-0.8300,0.5700,0.0011,0.0000,0.0011,8.8750,-2.6875,-0.2500,0.5625,-83.8125,4.9375,0
50.298,0.7685,-8.9735,-4.1420,-0.0264,0.0005,0.0093,-54.1500,-24.6000,-36.6000,-9.8090,-0.3400,-0.7733,-0.0099,0.0258,0.0061,54.0000,30.0000,7.0500,-9.7500,-0.8300,0.5500,0.0011,0.0000,0.0011,8.8750,-2.6875,-0.2500,0.5625,-83.8125,4.9375,0
50.308,0.8404,-8.9352,-4.1635,-0.0280,0.0029,0.0101,-53.4000,-26.5500,-36.6000,-9.8090,-0.3400,-0.7733,-0.0091,0.0272,0.0053,53.8500,31.6500,6.1500,-9.7700,-0.8400,0.5800,0.0000,0.0022,0.0011,8.8750,-2.6875,-0.2500,0.5625,-83.8125,4.9375,0
50.318,0.7997,-9.0549,-4.1827,-0.0269,-0.0008,0.0112,-53.2500,-25.5000,-37.2000,-9.7923,-0.3567,-0.8092,-0.0077,0.0274,0.0021,52.6500,31.0500,6.7500,-9.7700,-0.8300,0.5700,0.0000,0.0000,0.0000,8.8750,-2.6875,-0.2500,0.5625,-83.8125,4.9375,0
50.327,0.7949,-9.0046,-4.1587,-0.0261,0.0043,0.0107,-53.2500,-25.2000,-34.9500,-9.8019,-0.3639,-0.8452,-0.0096,0.0346,0.0000,53.4000,31.5000,6.0000,-9.7700,-0.8300,0.5600,0.0011,0.0011,0.0000,8.8750,-2.6875,-0.2500,0.5625,-83.8125,4.9375,0
50.337,0.8140,-9.0118,-4.1061,-0.0245,0.0021,0.0099,-54.0000,-24.7500,-37.9500,-9.8019,-0.3639,-0.8452,-0.0080,0.0301,-0.0005,53.4000,31.5000,6.0000,-9.7600,-0.8200,0.5900,0.0011,0.0033,0.0000,8.8750,-2.6875,-0.2500,0.5625,-83.8125,4.9375,0
50.341,0.7087,-9.0405,-4.1468,-0.0245,0.0021,0.0099,-54.0000,-24.7500,-37.9500,-9.8067,-0.3376,-0.8140,-0.0088,0.0264,0.0011,53.4000,29.5500,6.0000,-9.7600,-0.8200,0.5900,0.0011,0.0033,0.0000,10.0625,-4.1875,0.8750,0.5625,-83.8125,4.9375,0
50.348,0.7350,-9.0357,-4.1994,-0.0264,0.0021,0.0109,-54.0000,-24.7500,-37.9500,-9.8043,-0.3376,-0.7901,-0.0088,0.0264,0.0011,53.4000,29.5500,6.0000,-9.7500,-0.8100,0.5800,0.0000,0.0011,0.0000,10.0625,-4.1875,0.8750,0.5625,-83.8125,4.9375,0
50.358,0.8356,-8.9711,-4.1492,-0.0272,-0.0067,0.0141,-54.4500,-25.2000,-36.7500,-9.7372,-0.4046,-0.7949,-0.0131,0.0312,-0.0016,53.8500,29.4000,7.9500,-9.7600,-0.8200,0.5600,0.0011,0.0011,0.0011,10.0625,-4.1875,0.8750,0.5625,-83.8125,4.9375,0
50.368,0.7470,-9.0046,-4.0989,-0.0248,-0.0053,0.0115,-54.4500,-25.2000,-36.7500,-9.7755,-0.3926,-0.8021,-0.0059,0.0261,0.0045,52.9500,30.7500,6.3000,-9.7600,-0.8300,0.5500,0.0000,0.0022,0.0011,10.0625,-4.1875,0.8750,0.5625,-83.8125,4.9375,0
50.377,0.7685,-9.0166,-4.1875,-0.0234,-0.0037,0.0165,-53.4000,-25.3500,-36.9000,-9.7612,-0.3591,-0.8260,-0.0112,0.0309,0.0024,52.3500,30.4500,6.4500,-9.7600,-0.8100,0.5900,-0.0022,-0.0011,0.0000,10.0625,-4.1875,0.8750,0.5625,-83.8125,4.9375,0
50.386,0.7829,-9.0070,-4.0965,-0.0277,0.0021,0.0139,-53.4000,-25.3500,-36.9000,-9.8210,-0.3950,-0.7901,-0.0075,0.0309,0.0037,52.9500,30.3000,5.7000,-9.7500,-0.8300,0.5800,0.0011,0.0000,0.0022,10.0625,-4.1875,0.8750,0.5625,-83.8125,4.9375,0
50.391,0.7829,-9.0070,-4.0965,-0.0234,-0.0011,0.0144,-53.4000,-25.3500,-36.9000,-9.8210,-0.3950,-0.7901,-0.0085,0.0317,-0.0029,52.9500,30.3000,5.7000,-9.7500,-0.8300,0.5800,0.0011,0.0000,0.0022,10.0625,-4.1875,0.8750,0.5625,-83.8125,4.9375,0
50.398,0.7781,-9.0477,-4.1539,-0.0234,-0.0011,0.0144,-53.4000,-25.8000,-36.1500,-9.7875,-0.3663,-0.7542,-0.0085,0.0317,-0.0029,52.9500,30.3000,5.7000,-9.7600,-0.8300,0.5800,0.0000,0.0000,0.0000,8.5625,-3.0625,0.0625,0.5625,-83.8125,4.9375,0
50.408,0.7542,-9.0214,-4.1851,-0.0264,0.0029,0.0107,-52.9500,-26.4000,-35.2500,-9.8090,-0.3543,-0.7350,-0.0093,0.0320,0.0024,52.9500,30.3000,5.7000,-9.7700,-0.8500,0.6000,-0.0011,-0.0011,0.0022,8.5625,-3.0625,0.0625,0.5625,-83.8125,4.9375,0
50.417,0.7614,-9.0333,-4.1899,-0.0261,-0.0008,0.0075,-52.9500,-25.5000,-36.0000,-9.8043,-0.3998,-0.7733,-0.0152,0.0288,0.0024,53.1000,31.6500,6.9000,-9.7700,-0.8100,0.5600,-0.0011,-0.0011,0.0000,8.5625,-3.0625,0.0625,0.5625,-83.8125,4.9375,0
50.427,0.7494,-9.0166,-4.1659,-0.0203,-0.0040,0.0109,-54.7500,-25.5000,-37.9500,-9.7923,-0.3663,-0.8092,-0.0083,0.0317,0.0003,54.0000,31.8000,7.3500,-9.7800,-0.8200,0.6000,-0.0022,0.0011,0.0000,8.5625,-3.0625,0.0625,0.5625,-83.8125,4.9375,0
50.432,0.7494,-9.0166,-4.1659,-0.0226,0.0045,0.0093,-54.7500,-25.5000,-37.9500,-9.7923,-0.3663,-0.8092,-0.0077,0.0312,0.0013,53.5500,31.2000,5.8500,-9.7800,-0.8200,0.6000,-0.0022,0.0011,0.0000,8.5625,-3.0625,0.0625,0.5625,-83.8125,4.9375,0
50.439,0.7470,-9.0237,-4.2282,-0.0226,0.0045,0.0093,-53.1000,-24.6000,-36.1500,-9.7923,-0.3735,-0.7422,-0.0051,0.0280,0.0013,54.4500,31.0500,7.0500,-9.7600,-0.8100,0.5600,0.0000,-0.0011,0.0000,8.5625,-3.0625,0.0625,0.5625,-83.8125,4.9375,0
50.443,0.7733,-9.0309,-4.1492,-0.0226,-0.0051,0.0123,-53.1000,-24.6000,-36.1500,-9.8043,-0.3855,-0.7542,-0.0051,0.0280,0.0013,54.4500,31.0500,7.0500,-9.7600,-0.8100,0.5600,0.0000,0.0011,0.0011,9.6875,-3.3750,0.0625,0.5625,-83.8125,4.9375,0
50.449,0.7733,-9.0309,-4.1492,-0.0256,0.0048,0.0107,-54.4500,-25.9500,-37.9500,-9.8043,-0.3855,-0.7542,-0.0075,0.0282,0.0024,53.7000,30.7500,5.7000,-9.7700,-0.8500,0.5800,0.0000,0.0011,0.0011,9.6875,-3.3750,0.0625,0.5625,-83.8125,4.9375,0
50.458,0.7781,-9.0333,-4.2066,-0.0282,0.0005,0.0128,-54.4500,-25.9500,-37.9500,-9.7731,-0.3591,-0.7901,-0.0096,0.0341,0.0059,53.7000,30.7500,5.7000,-9.7500,-0.8200,0.5600,0.0000,0.0022,0.0011,9.6875,-3.3750,0.0625,0.5625,-83.8125,4.9375,0
50.468,0.7638,-9.0118,-4.1539,-0.0237,-0.0005,0.0085,-53.8500,-26.5500,-36.6000,-9.8090,-0.3304,-0.7733,-0.0088,0.0301,0.0027,53.7000,30.7500,5.7000,-9.7700,-0.8400,0.5500,0.0000,0.0022,0.0011,9.6875,-3.3750,0.0625,0.5625,-83.8125,4.9375,0
50.477,0.8045,-9.0118,-4.1276,-0.0253,0.0077,0.0104,-53.8500,-26.5500,-36.6000,-9.8497,-0.3376,-0.7302,-0.0107,0.0282,0.0005,53.5500,30.9000,7.6500,-9.7700,-0.8300,0.5700,0.0000,-0.0033,0.0000,9.6875,-3.3750,0.0625,0.5625,-83.8125,4.9375,0
50.485,0.8356,-9.0046,-4.1468,-0.0253,0.0077,0.0104,-53.8500,-26.5500,-36.6000,-9.7540,-0.3926,-0.8092,-0.0107,0.0282,0.0005,52.3500,30.4500,6.4500,-9.7600,-0.8300,0.5700,-0.0011,0.0044,0.0011,9.6875,-3.3750,0.0625,0.5625,-83.8125,4.9375,0
50.490,0.8356,-9.0046,-4.1468,-0.0216,-0.0005,0.0112,-53.2500,-26.4000,-36.4500,-9.7540,-0.3926,-0.8092,-0.0096,0.0330,-0.0021,52.2000,30.7500,6.3000,-9.7600,-0.8300,0.5700,-0.0011,0.0044,0.0011,9.6875,-3.3750,0.0625,0.5625,-83.8125,4.9375,0
50.495,0.7925,-9.0190,-4.1899,-0.0216,-0.0005,0.0112,-53.2500,-26.4000,-36.4500,-9.7683,-0.3567,-0.7805,-0.0096,0.0330,-0.0021,52.2000,30.7500,6.3000,-9.7800,-0.8500,0.6000,-0.0011,0.0033,0.0011,9.2500,-3.3750,0.0625,0.5625,-83.8125,4.9375,0
50.499,0.7925,-9.0190,-4.1899,-0.0277,-0.0003,0.0125,-54.1500,-24.6000,-37.3500,-9.7683,-0.3567,-0.7805,-0.0112,0.0301,0.0043,52.0500,30.9000,6.9000,-9.7800,-0.8500,0.6000,-0.0011,0.0033,0.0011,9.2500,-3.3750,0.0625,0.5625,-83.8125,4.9375,0
50.508,0.8212,-9.0333,-4.1635,-0.0250,0.0008,0.0181,-54.4500,-25.2000,-36.0000,-9.7803,-0.3855,-0.7398,-0.0096,0.0314,0.0029,52.6500,32.2500,6.0000,-9.7800,-0.8500,0.5900,-0.0011,-0.0011,0.0000,9.2500,-3.3750,0.0625,0.5625,-83.8125,4.9375,0
50.518,0.7757,-9.0525,-4.1683,-0.0304,0.0035,0.0115,-54.1500,-24.6000,-35.5500,-9.8426,-0.3519,-0.7470,-0.0072,0.0304,0.0021,52.6500,32.2500,6.0000,-9.7800,-0.8300,0.5900,0.0000,0.0000,0.0000,9.2500,-3.3750,0.0625,0.5625,-83.8125,4.9375,0
50.528,0.7829,-9.0621,-4.0989,-0.0234,0.0000,0.0107,-54.6000,-27.0000,-36.1500,-9.8043,-0.3639,-0.7805,-0.0085,0.0309,-0.0003,54.0000,29.2500,6.7500,-9.7500,-0.8400,0.5700,0.0000,0.0022,0.0000,9.2500,-3.3750,0.0625,0.5625,-83.8125,4.9375,0
50.538,0.7781,-9.0740,-4.1444,-0.0234,-0.0032,0.0120,-53.1000,-26.1000,-36.6000,-9.8426,-0.3448,-0.7877,-0.0101,0.0312,-0.0029,53.7000,31.8000,6.7500,-9.7800,-0.8400,0.5900,0.0000,-0.0011,0.0022,9.2500,-3.3750,0.0625,0.5625,-83.8125,4.9375,0
50.543,0.7422,-9.0190,-4.1922,-0.0234,-0.0032,0.0120,-53.1000,-26.1000,-36.6000,-9.8282,-0.3472,-0.7159,-0.0101,0.0312,-0.0029,53.7000,31.8000,6.7500,-9.7800,-0.8400,0.5900,-0.0022,-0.0022,0.0011,7.8750,-3.7500,-0.2500,0.5625,-83.8125,4.9375,0
50.549,0.7422,-9.0190,-4.1922,-0.0293,-0.0032,0.0131,-53.1000,-26.1000,-36.6000,-9.8282,-0.3472,-0.7159,-0.0107,0.0341,0.0037,53.1000,31.9500,6.9000,-9.7600,-0.8400,0.5800,-0.0022,-0.0022,0.0011,7.8750,-3.7500,-0.2500,0.5625,-83.8125,4.9375,0
50.558,0.7829,-9.0429,-4.1061,-0.0248,0.0024,0.0115,-53.8500,-25.3500,-36.1500,-9.7803,-0.3879,-0.7398,-0.0088,0.0285,-0.0043,54.7500,31.0500,7.3500,-9.7600,-0.8300,0.5900,0.0000,0.0033,-0.0011,7.8750,-3.7500,-0.2500,0.5625,-83.8125,4.9375,0
50.568,0.8021,-9.0405,-4.1468,-0.0237,-0.0016,0.0160,-53.8500,-25.3500,-36.1500,-9.7324,-0.3615,-0.7733,-0.0104,0.0317,-0.0021,53.4000,30.7500,6.7500,-9.7600,-0.8100,0.5800,0.0000,0.0011,0.0011,7.8750,-3.7500,-0.2500,0.5625,-83.8125,4.9375,0
50.578,0.8045,-9.0046,-4.1827,-0.0312,-0.0019,0.0120,-53.7000,-24.4500,-37.9500,-9.7995,-0.3448,-0.8475,-0.0104,0.0256,0.0016,53.4000,30.7500,6.7500,-9.7800,-0.8400,0.5900,0.0000,0.0011,0.0022,7.8750,-3.7500,-0.2500,0.5625,-83.8125,4.9375,0
50.587,0.8045,-9.0046,-4.1827,-0.0269,0.0035,0.0104,-53.7000,-24.4500,-37.9500,-9.8258,-0.3448,-0.7278,-0.0099,0.0266,0.0027,53.7000,30.7500,6.7500,-9.7700,-0.8200,0.5600,0.0000,0.0022,0.0000,7.8750,-3.7500,-0.2500,0.5625,-83.8125,4.9375,0
50.592,0.7709,-8.9878,-4.1587,-0.0269,0.0035,0.0104,-53.1000,-25.3500,-36.6000,-9.7229,-0.3448,-0.7685,-0.0099,0.0266,0.0027,53.7000,30.7500,6.7500,-9.7700,-0.8200,0.5600,-0.0022,0.0011,-0.0011,8.5625,-3.0625,-0.6875,0.5625,-83.8125,4.9375,0
50.599,0.7614,-9.0525,-4.1587,-0.0248,-0.0024,0.0141,-52.5000,-25.9500,-36.7500,-9.8474,-0.3184,-0.8140,-0.0096,0.0282,-0.0021,52.3500,30.1500,6.9000,-9.7600,-0.8400,0.5700,-0.0022,0.0011,-0.0011,8.5625,-3.0625,-0.6875,0.5625,-83.8125,4.9375,0
50.608,0.7949,-9.0381,-4.1444,-0.0242,-0.0005,0.0152,-53.8500,-25.3500,-36.1500,-9.8474,-0.3903,-0.7733,-0.0085,0.0296,0.0011,53.1000,30.9000,7.2000,-9.7800,-0.8400,0.5600,0.0011,-0.0033,0.0000,8.5625,-3.0625,-0.6875,0.5625,-83.8125,4.9375,0
50.618,0.7446,-9.0285,-4.2138,-0.0277,0.0024,0.0099,-52.9500,-25.5000,-36.7500,-9.7779,-0.3328,-0.7446,-0.0080,0.0272,0.0021,54.6000,30.1500,6.4500,-9.7600,-0.8300,0.5600,0.0000,-0.0011,-0.0011,8.5625,-3.0625,-0.6875,0.5625,-83.8125,4.9375,0
50.628,0.7446,-9.0692,-4.1515,-0.0240,0.0027,0.0107,-52.3500,-26.5500,-36.9000,-9.8019,-0.4262,-0.7230,-0.0109,0.0312,-0.0016,53.1000,31.9500,6.4500,-9.7700,-0.8400,0.5700,-0.0011,0.0000,-0.0011,8.5625,-3.0625,-0.6875,0.5625,-83.8125,4.9375,0
50.637,0.8260,-9.0070,-4.1635,-0.0189,-0.0021,0.0133,-52.3500,-26.5500,-36.9000,-9.8019,-0.4262,-0.7230,-0.0072,0.0328,0.0021,53.1000,31.9500,6.4500,-9.7700,-0.8400,0.5800,-0.0011,0.0000,0.0000,8.5625,-3.0625,-0.6875,0.5625,-83.8125,4.9375,0
50.642,0.8260,-9.0070,-4.1635,-0.0264,-0.0013,0.0157,-55.2000,-23.5500,-37.2000,-9.8354,-0.3376,-0.8188,-0.0080,0.0288,-0.0005,53.1000,31.9500,6.4500,-9.7700,-0.8400,0.5800,-0.0011,0.0000,0.0000,8.5625,-3.0625,-0.6875,0.5625,-83.8125,4.9375,0
50.648,0.7566,-8.9998,-4.1300,-0.0264,-0.0013,0.0157,-54.1500,-25.0500,-35.8500,-9.7971,-0.2873,-0.7709,-0.0080,0.0288,-0.0005,53.1000,31.9500,6.4500,-9.7600,-0.8100,0.6000,-0.0011,0.0044,0.0000,9.2500,-3.3750,0.3750,0.5625,-83.8125,4.9375,0
50.658,0.8045,-9.0333,-4.1276,-0.0232,-0.0029,0.0107,-54.1500,-25.0500,-35.8500,-9.8067,-0.3543,-0.7781,-0.0123,0.0301,-0.0011,54.0000,31.0500,6.7500,-9.7700,-0.8400,0.5700,0.0011,0.0022,-0.0022,9.2500,-3.3750,0.3750,0.5625,-83.8125,4.9375,0
50.667,0.7542,-8.9854,-4.1324,-0.0250,0.0005,0.0136,-54.1500,-25.0500,-35.8500,-9.7947,-0.4142,-0.7350,-0.0123,0.0320,-0.0005,52.6500,30.7500,7.8000,-9.7800,-0.8400,0.5700,0.0011,0.0000,-0.0022,9.2500,-3.3750,0.3750,0.5625,-83.8125,4.9375,0
50.673,0.7542,-8.9854,-4.1324,-0.0258,0.0003,0.0109,-53.4000,-25.3500,-36.9000,-9.7947,-0.4142,-0.7350,-0.0072,0.0269,0.0008,52.6500,30.7500,7.8000,-9.7800,-0.8400,0.5700,-0.0011,-0.0022,0.0011,9.2500,-3.3750,0.3750,0.5625,-83.8125,4.9375,0
50.679,0.7278,-9.0285,-4.1851,-0.0258,-0.0021,0.0048,-53.4000,-25.3500,-36.9000,-9.7995,-0.3639,-0.7470,-0.0072,0.0269,0.0008,53.1000,31.2000,5.1000,-9.7500,-0.8300,0.5600,-0.0011,-0.0022,0.0011,9.2500,-3.3750,0.3750,0.5625,-83.8125,4.9375,0
50.689,0.8308,-9.0166,-4.1300,-0.0234,-0.0013,0.0096,-54.0000,-25.2000,-38.2500,-9.7995,-0.3807,-0.7422,-0.0096,0.0360,0.0019,52.3500,30.4500,7.2000,-9.7500,-0.8200,0.5600,0.0000,0.0000,0.0011,9.2500,-3.3750,0.3750,0.5625,-83.8125,4.9375,0
50.694,0.7661,-9.0357,-4.1468,-0.0234,-0.0013,0.0096,-54.0000,-25.2000,-38.2500,-9.7995,-0.3807,-0.7422,-0.0085,0.0338,0.0035,52.9500,31.0500,8.1000,-9.7500,-0.8200,0.5600,0.0000,0.0000,-0.0033,10.0625,-3.7500,0.0625,0.5625,-83.8125,4.9375,0
50.699,0.7661,-9.0357,-4.1468,-0.0250,-0.0037,0.0109,-53.1000,-25.8000,-37.3500,-9.7923,-0.3424,-0.7805,-0.0075,0.0288,0.0021,52.9500,31.0500,8.1000,-9.7600,-0.8400,0.5900,0.0000,0.0000,-0.0033,10.0625,-3.7500,0.0625,0.5625,-83.8125,4.9375,0
50.709,0.7614,-9.0381,-4.1156,-0.0282,0.0024,0.0107,-53.2500,-25.2000,-35.7000,-9.8545,-0.3735,-0.7470,-0.0080,0.0293,0.0027,52.9500,31.0500,8.1000,-9.7700,-0.8200,0.5800,0.0000,-0.0022,0.0011,10.0625,-3.7500,0.0625,0.5625,-83.8125,4.9375,0
50.718,0.7398,-9.0429,-4.1492,-0.0248,-0.0021,0.0096,-53.2500,-25.2000,-35.7000,-9.8090,-0.4118,-0.7590,-0.0093,0.0314,-0.0035,52.3500,31.6500,7.6500,-9.7600,-0.8400,0.5700,-0.0011,-0.0022,0.0000,10.0625,-3.7500,0.0625,0.5625,-83.8125,4.9375,0
50.728,0.8356,-9.0118,-4.1946,-0.0221,-0.0027,0.0091,-53.2500,-25.8000,-36.6000,-9.7899,-0.3160,-0.7494,-0.0141,0.0306,-0.0024,53.4000,31.8000,7.3500,-9.7700,-0.8400,0.5900,-0.0011,-0.0033,0.0000,10.0625,-3.7500,0.0625,0.5625,-83.8125,4.9375,0
50.737,0.7805,-8.9759,-4.1108,-0.0274,-0.0024,0.0091,-53.2500,-26.7000,-37.2000,-9.7923,-0.3950,-0.7781,-0.0141,0.0306,-0.0024,53.1000,31.2000,6.9000,-9.7700,-0.8200,0.5600,-0.0011,0.0022,0.0000,10.0625,-3.7500,0.0625,0.5625,-83.8125,4.9375,0
50.742,0.7781,-9.0285,-4.1587,-0.0274,-0.0024,0.0091,-54.4500,-25.5000,-37.5000,-9.7923,-0.3950,-0.7781,-0.0029,0.0336,0.0056,53.1000,31.2000,6.9000,-9.7700,-0.8200,0.5600,-0.0011,0.0022,0.0000,10.0625,-3.7500,0.0625,0.5625,-83.8125,4.9375,0
50.749,0.7781,-9.0285,-4.1587,-0.0211,-0.0005,0.0091,-54.4500,-25.5000,-37.5000,-9.8282,-0.3567,-0.8140,-0.0107,0.0274,0.0037,54.3000,31.2000,6.9000,-9.7600,-0.8200,0.5600,-0.0011,-0.0011,-0.0022,9.2500,-3.3750,0.8750,0.5625,-83.8125,4.9375,0
50.759,0.7685,-8.9974,-4.1779,-0.0298,-0.0013,0.0149,-54.4500,-25.5000,-37.5000,-9.8138,-0.4310,-0.7709,-0.0096,0.0298,0.0035,53.5500,29.7000,6.9000,-9.7600,-0.8300,0.6100,-0.0011,-0.0033,0.0011,9.2500,-3.3750,0.8750,0.5625,-83.8125,4.9375,0
50.768,0.7853,-9.0453,-4.1300,-0.0277,0.0013,0.0115,-53.4000,-25.8000,-35.8500,-9.7827,-0.3711,-0.7781,-0.0080,0.0309,0.0045,53.5500,29.7000,6.9000,-9.7700,-0.8200,0.5800,-0.0011,-0.0033,0.0000,9.2500,-3.3750,0.8750,0.5625,-83.8125,4.9375,0
50.778,0.7614,-9.0070,-4.1611,-0.0269,-0.0029,0.0069,-53.4000,-25.8000,-35.8500,-9.7564,-0.3759,-0.7757,-0.0125,0.0306,0.0019,53.7000,30.0000,5.7000,-9.7700,-0.8200,0.5700,0.0000,-0.0011,0.0000,9.2500,-3.3750,0.8750,0.5625,-83.8125,4.9375,0
50.788,0.8212,-9.0525,-4.1492,-0.0280,0.0011,0.0093,-52.6500,-25.3500,-36.9000,-9.7803,-0.3519,-0.8021,-0.0069,0.0253,0.0061,53.5500,31.9500,7.2000,-9.7700,-0.8400,0.5900,-0.0011,0.0000,-0.0022,9.2500,-3.3750,0.8750,0.5625,-83.8125,4.9375,0
50.793,0.7997,-9.0573,-4.1420,-0.0280,0.0011,0.0093,-53.1000,-25.8000,-36.9000,-9.7947,-0.3567,-0.7877,-0.0069,0.0253,0.0061,55.3500,30.9000,6.1500,-9.7700,-0.8400,0.5900,-0.0011,0.0022,0.0000,8.8750,-3.3750,-0.2500,0.5625,-83.8125,4.9375,0
50.799,0.7997,-8.9950,-4.2090,-0.0245,-0.0029,0.0077,-53.8500,-26.1000,-36.1500,-9.7947,-0.3567,-0.7877,-0.0091,0.0322,-0.0016,55.3500,30.9000,6.1500,-9.7500,-0.8600,0.5600,-0.0011,0.0022,0.0000,8.8750,-3.3750,-0.2500,0.5625,-83.8125,4.9375,0
50.809,0.7135,-9.0573,-4.1922,-0.0282,0.0005,0.0107,-53.8500,-26.1000,-36.1500,-9.8665,-0.3256,-0.7494,-0.0112,0.0274,0.0011,53.1000,31.2000,5.4000,-9.7800,-0.8400,0.6000,0.0000,0.0000,-0.0011,8.8750,-3.3750,-0.2500,0.5625,-83.8125,4.9375,0
50.819,0.7494,-9.0046,-4.1899,-0.0261,0.0024,0.0141,-53.4000,-24.1500,-35.8500,-9.8067,-0.3711,-0.7638,-0.0117,0.0320,-0.0024,53.4000,31.8000,6.3000,-9.7600,-0.8500,0.5700,0.0000,0.0000,0.0000,8.8750,-3.3750,-0.2500,0.5625,-83.8125,4.9375,0
50.828,0.7590,-9.0333,-4.1324,-0.0245,-0.0053,0.0075,-54.4500,-26.7000,-36.7500,-9.7995,-0.3472,-0.7709,-0.0091,0.0304,-0.0011,53.4000,31.8000,6.3000,-9.7700,-0.8300,0.5600,0.0000,-0.0044,-0.0011,8.8750,-3.3750,-0.2500,0.5625,-83.8125,4.9375,0
50.837,0.7590,-9.0333,-4.1324,-0.0269,0.0005,0.0048,-52.9500,-25.2000,-39.0000,-9.7923,-0.3543,-0.8116,-0.0075,0.0277,0.0003,53.4000,31.8000,6.3000,-9.7600,-0.8300,0.5900,0.0000,-0.0065,0.0000,8.8750,-3.3750,-0.2500,0.5625,-83.8125,4.9375,0
50.842,0.7949,-9.0166,-4.1563,-0.0269,0.0005,0.0048,-54.0000,-25.2000,-36.7500,-9.7995,-0.3304,-0.7829,-0.0075,0.0277,0.0003,52.9500,30.3000,6.7500,-9.7600,-0.8300,0.5900,0.0000,-0.0065,0.0000,8.8750,-3.3750,-0.2500,0.5625,-83.8125,4.9375,0
50.849,0.7733,-8.9902,-4.1252,-0.0330,-0.0035,0.0163,-54.0000,-25.2000,-36.7500,-9.7995,-0.3304,-0.7829,-0.0077,0.0296,0.0040,52.9500,30.3000,6.7500,-9.7500,-0.8400,0.5600,0.0000,-0.0011,-0.0011,8.8750,-3.0625,-0.6875,0.5625,-83.8125,4.9375,0
50.859,0.7709,-8.9950,-4.1659,-0.0288,0.0011,0.0093,-53.8500,-26.1000,-36.1500,-9.7995,-0.3759,-0.7877,-0.0101,0.0322,0.0024,53.4000,31.8000,7.8000,-9.7500,-0.8000,0.5700,-0.0011,0.0000,0.0000,8.8750,-3.0625,-0.6875,0.5625,-83.8125,4.9375,0
50.868,0.7614,-9.0692,-4.1396,-0.0253,0.0003,0.0099,-53.8500,-26.1000,-36.1500,-9.7899,-0.3759,-0.8404,-0.0099,0.0293,0.0005,53.8500,30.9000,6.1500,-9.7700,-0.8300,0.5600,0.0000,0.0000,-0.0022,8.8750,-3.0625,-0.6875,0.5625,-83.8125,4.9375,0
50.878,0.8116,-9.0357,-4.1420,-0.0261,-0.0029,0.0109,-52.6500,-25.3500,-35.8500,-9.8043,-0.3783,-0.7302,-0.0064,0.0349,0.0000,52.6500,31.5000,6.7500,-9.7700,-0.8400,0.5800,-0.0011,-0.0011,0.0000,8.8750,-3.0625,-0.6875,0.5625,-83.8125,4.9375,0
50.883,0.8116,-9.0357,-4.1420,-0.0237,-0.0045,0.0096,-52.6500,-25.3500,-35.8500,-9.7971,-0.3519,-0.7805,-0.0080,0.0336,0.0019,52.8000,29.4000,6.1500,-9.7700,-0.8400,0.5800,-0.0011,-0.0011,-0.0022,8.8750,-3.0625,-0.6875,0.5625,-83.8125,4.9375,0
50.890,0.7207,-9.0309,-4.1396,-0.0237,-0.0045,0.0096,-52.6500,-25.3500,-35.8500,-9.7971,-0.3448,-0.8092,-0.0080,0.0336,0.0019,52.8000,29.4000,6.1500,-9.7700,-0.8200,0.5900,-0.0011,-0.0011,-0.0022,8.8750,-3.0625,-0.6875,0.5625,-83.8125,4.9375,0
50.894,0.7207,-9.0309,-4.1396,-0.0256,0.0011,0.0045,-53.8500,-25.3500,-35.8500,-9.7971,-0.3448,-0.8092,-0.0088,0.0293,0.0005,52.8000,29.4000,6.1500,-9.7700,-0.8200,0.5900,-0.0011,-0.0022,0.0011,10.3750,-4.5000,0.0625,0.5625,-83.8125,4.9375,0
50.900,0.7925,-9.0118,-4.1755,-0.0256,0.0011,0.0045,-53.8500,-25.3500,-35.8500,-9.8426,-0.3496,-0.7805,-0.0088,0.0293,0.0005,51.1500,30.3000,6.3000,-9.7700,-0.8300,0.5600,-0.0011,-0.0022,0.0011,10.3750,-4.5000,0.0625,0.5625,-83.8125,4.9375,0
50.909,0.8116,-8.9950,-4.1803,-0.0256,0.0032,0.0123,-54.4500,-24.7500,-36.4500,-9.8545,-0.3519,-0.7661,-0.0099,0.0301,-0.0048,51.1500,30.3000,6.3000,-9.7600,-0.8600,0.5600,0.0000,-0.0011,0.0000,10.3750,-4.5000,0.0625,0.5625,-83.8125,4.9375,0
50.919,0.7805,-9.0046,-4.2138,-0.0330,0.0045,0.0112,-54.7500,-24.4500,-37.5000,-9.7923,-0.3160,-0.7757,-0.0115,0.0269,0.0059,52.8000,31.2000,5.8500,-9.7600,-0.8200,0.5600,-0.0011,-0.0011,0.0000,10.3750,-4.5000,0.0625,0.5625,-83.8125,4.9375,0
50.929,0.8643,-9.0333,-4.1444,-0.0280,0.0000,0.0141,-52.9500,-25.2000,-36.0000,-9.7755,-0.4142,-0.7925,-0.0075,0.0296,0.0040,53.8500,30.4500,7.6500,-9.7600,-0.8300,0.5600,-0.0022,-0.0022,0.0000,10.3750,-4.5000,0.0625,0.5625,-83.8125,4.9375,0
50.938,0.8308,-9.0405,-4.1444,-0.0285,-0.0032,0.0096,-53.8500,-25.0500,-37.3500,-9.8067,-0.2921,-0.7877,-0.0075,0.0306,0.0027,54.6000,30.4500,5.8500,-9.7600,-0.8300,0.5900,0.0011,0.0000,-0.0011,10.3750,-4.5000,0.0625,0.5625,-83.8125,4.9375,0
50.942,0.8308,-9.0405,-4.1444,-0.0277,0.0048,0.0120,-53.8500,-25.3500,-36.1500,-9.8067,-0.2921,-0.7877,-0.0123,0.0365,-0.0008,54.0000,31.0500,7.3500,-9.7600,-0.8300,0.5900,0.0011,0.0000,-0.0011,9.2500,-3.3750,0.0625,0.5625,-83.8125,4.9375,0
50.949,0.8212,-9.0166,-4.1779,-0.0266,-0.0035,0.0072,-53.8500,-25.3500,-36.1500,-9.7827,-0.3711,-0.8021,-0.0123,0.0365,-0.0008,54.0000,31.0500,7.3500,-9.7500,-0.8300,0.5700,0.0000,-0.0011,0.0022,9.2500,-3.3750,0.0625,0.5625,-83.8125,4.9375,0
50.959,0.7805,-9.0237,-4.1683,-0.0296,-0.0024,0.0133,-53.8500,-25.3500,-36.1500,-9.8019,-0.3567,-0.7398,-0.0051,0.0296,-0.0056,52.9500,31.0500,6.7500,-9.7800,-0.8600,0.5900,-0.0011,-0.0011,0.0000,9.2500,-3.3750,0.0625,0.5625,-83.8125,4.9375,0
50.969,0.8068,-9.0740,-4.2353,-0.0256,-0.0021,0.0077,-52.6500,-24.6000,-36.9000,-9.7971,-0.3424,-0.7877,-0.0128,0.0274,0.0021,51.7500,31.6500,6.1500,-9.7600,-0.8600,0.5800,-0.0011,-0.0033,-0.0011,9.2500,-3.3750,0.0625,0.5625,-83.8125,4.9375,0
50.979,0.7781,-9.0094,-4.1946,-0.0269,-0.0019,0.0176,-52.6500,-24.6000,-36.9000,-9.8114,-0.3256,-0.7805,-0.0115,0.0256,0.0040,53.5500,30.9000,6.9000,-9.7600,-0.8300,0.5700,0.0000,0.0011,0.0011,9.2500,-3.3750,0.0625,0.5625,-83.8125,4.9375,0
50.989,0.7901,-8.9184,-4.1970,-0.0280,0.0013,0.0131,-53.7000,-25.2000,-36.7500,-9.8234,-0.3376,-0.7973,-0.0075,0.0272,0.0019,53.4000,30.3000,6.7500,-9.7500,-0.8300,0.5700,-0.0011,0.0000,-0.0011,9.2500,-3.3750,0.0625,0.5625,-83.8125,4.9375,0
50.994,0.8332,-9.0214,-4.1659,-0.0280,0.0013,0.0131,-54.6000,-26.1000,-37.3500,-9.8234,-0.3376,-0.7973,-0.0083,0.0298,-0.0005,53.4000,30.3000,6.7500,-9.7500,-0.8300,0.5700,0.0011,0.0011,-0.0011,8.8750,-3.7500,0.8750,0.5625,-83.8125,4.9375,0
51.000,0.8332,-9.0214,-4.1659,-0.0272,-0.0043,0.0107,-54.6000,-26.1000,-37.3500,-9.7827,-0.3232,-0.7877,-0.0085,0.0285,0.0027,52.6500,31.8000,6.3000,-9.7500,-0.8500,0.5900,0.0011,0.0011,-0.0011,8.8750,-3.7500,0.8750,0.5625,-83.8125,4.9375,0
51.009,0.7566,-9.0142,-4.1515,-0.0253,-0.0003,0.0112,-54.1500,-25.3500,-36.9000,-9.7899,-0.3567,-0.7661,-0.0043,0.0328,0.0021,52.6500,31.8000,6.3000,-9.7600,-0.8300,0.5900,-0.0011,0.0011,-0.0011,8.8750,-3.7500,0.8750,0.5625,-83.8125,4.9375,0
51.019,0.8116,-9.0237,-4.1444,-0.0229,0.0011,0.0173,-53.4000,-26.1000,-36.9000,-9.7899,-0.3615,-0.7733,-0.0072,0.0261,-0.0003,52.6500,31.8000,6.3000,-9.7600,-0.8300,0.5700,0.0000,0.0022,0.0000,8.8750,-3.7500,0.8750,0.5625,-83.8125,4.9375,0
51.029,0.8092,-9.0333,-4.1276,-0.0290,-0.0016,0.0107,-54.0000,-24.0000,-36.7500,-9.8593,-0.3448,-0.8667,-0.0061,0.0314,0.0008,54.4500,30.3000,6.3000,-9.7600,-0.8500,0.5700,-0.0011,-0.0011,0.0000,8.8750,-3.7500,0.8750,0.5625,-83.8125,4.9375,0
51.038,0.8188,-9.0214,-4.1252,-0.0253,-0.0053,0.0072,-53.1000,-25.3500,-36.9000,-9.8138,-0.3400,-0.7733,-0.0043,0.0320,0.0048,53.4000,31.8000,7.8000,-9.7600,-0.8300,0.5600,-0.0022,-0.0011,-0.0011,8.8750,-3.7500,0.8750,0.5625,-83.8125,4.9375,0
51.043,0.8164,-9.0022,-4.1492,-0.0253,-0.0053,0.0072,-51.9000,-26.5500,-35.5500,-9.8641,-0.3519,-0.7614,-0.0043,0.0320,0.0048,53.4000,31.8000,7.8000,-9.7600,-0.8300,0.5600,-0.0011,0.0000,-0.0011,9.2500,-3.3750,1.1875,0.5625,-83.8125,4.9375,0
51.050,0.7135,-9.0357,-4.1659,-0.0304,-0.0016,0.0128,-51.9000,-26.5500,-35.5500,-9.8641,-0.3519,-0.7614,-0.0080,0.0288,-0.0005,54.4500,31.8000,6.7500,-9.7600,-0.8200,0.6000,-0.0011,0.0000,-0.0011,9.2500,-3.3750,1.1875,0.5625,-83.8125,4.9375,0
51.059,0.7685,-9.0214,-4.1372,-0.0266,0.0011,0.0115,-54.1500,-24.1500,-37.6500,-9.7564,-0.3232,-0.7685,-0.0128,0.0328,0.0045,53.4000,31.0500,6.3000,-9.7700,-0.8200,0.6000,0.0000,0.0000,0.0000,9.2500,-3.3750,1.1875,0.5625,-83.8125,4.9375,0
51.069,0.7542,-9.0285,-4.1468,-0.0240,-0.0011,0.0099,-54.1500,-24.1500,-37.6500,-9.7755,-0.3496,-0.7757,-0.0125,0.0269,0.0029,54.4500,30.0000,7.0500,-9.7500,-0.8300,0.5600,-0.0011,0.0033,0.0000,9.2500,-3.3750,1.1875,0.5625,-83.8125,4.9375,0
51.079,0.7326,-9.0237,-4.2138,-0.0221,0.0003,0.0123,-52.5000,-26.4000,-37.5000,-9.7827,-0.3041,-0.8380,-0.0120,0.0277,0.0048,54.4500,30.0000,7.0500,-9.7700,-0.8200,0.5600,0.0011,0.0000,0.0000,9.2500,-3.3750,1.1875,0.5625,-83.8125,4.9375,0
51.088,0.7853,-9.0477,-4.1946,-0.0250,-0.0035,0.0107,-52.5000,-26.4000,-37.5000,-9.8569,-0.3089,-0.8140,-0.0096,0.0272,0.0021,52.3500,29.7000,6.4500,-9.7900,-0.8200,0.5700,0.0000,-0.0033,-0.0011,9.2500,-3.3750,1.1875,0.5625,-83.8125,4.9375,0
51.093,0.7853,-9.0477,-4.1946,-0.0301,-0.0059,0.0144,-53.2500,-25.5000,-36.4500,-9.8306,-0.3304,-0.7638,-0.0096,0.0272,0.0021,52.3500,29.7000,6.4500,-9.7900,-0.8200,0.5700,0.0000,-0.0033,-0.0011,8.5625,-3.0625,0.0625,0.5625,-83.8125,4.9375,0
51.100,0.7877,-9.0788,-4.1587,-0.0301,-0.0059,0.0144,-53.2500,-25.5000,-36.4500,-9.8306,-0.3304,-0.7638,-0.0147,0.0290,0.0035,53.7000,29.5500,6.3000,-9.7600,-0.8300,0.6000,-0.0011,-0.0011,-0.0011,8.5625,-3.0625,0.0625,0.5625,-83.8125,4.9375,0
51.109,0.8404,-9.0022,-4.1731,-0.0306,0.0037,0.0120,-54.0000,-26.7000,-36.7500,-9.7779,-0.3615,-0.7374,-0.0109,0.0282,0.0005,52.9500,30.3000,7.8000,-9.7700,-0.8500,0.5900,0.0000,0.0000,-0.0011,8.5625,-3.0625,0.0625,0.5625,-83.8125,4.9375,0
51.119,0.7805,-9.0190,-4.1300,-0.0277,-0.0011,0.0104,-53.4000,-25.8000,-37.3500,-9.7636,-0.3208,-0.7853,-0.0141,0.0272,0.0016,54.9000,30.4500,7.6500,-9.7500,-0.8400,0.5600,0.0022,-0.0011,-0.0022,8.5625,-3.0625,0.0625,0.5625,-83.8125,4.9375,0
51.129,0.7757,-9.0525,-4.1348,-0.0234,0.0029,0.0141,-53.7000,-25.5000,-36.7500,-9.8378,-0.3041,-0.8164,-0.0077,0.0309,-0.0013,53.7000,30.3000,4.2000,-9.7700,-0.8500,0.5600,0.0000,0.0022,0.0000,8.5625,-3.0625,0.0625,0.5625,-83.8125,4.9375,0
51.139,0.7638,-9.0190,-4.1372,-0.0221,0.0000,0.0136,-52.2000,-24.7500,-36.7500,-9.7300,-0.3807,-0.7685,-0.0053,0.0312,0.0045,53.7000,30.3000,4.2000,-9.7500,-0.8300,0.5600,-0.0011,0.0022,-0.0022,8.5625,-3.0625,0.0625,0.5625,-83.8125,4.9375,0
51.144,0.7638,-9.0190,-4.1372,-0.0245,0.0008,0.0088,-54.0000,-26.7000,-37.5000,-9.7899,-0.3759,-0.7685,-0.0117,0.0322,0.0011,53.7000,30.3000,4.2000,-9.7500,-0.8300,0.5600,-0.0011,0.0011,0.0000,8.8750,-3.3750,-0.6875,0.5625,-83.8125,4.9375,0
51.150,0.7661,-9.0118,-4.1132,-0.0184,-0.0027,0.0128,-54.0000,-26.7000,-37.5000,-9.7707,-0.4046,-0.7542,-0.0117,0.0322,0.0011,54.0000,31.5000,7.0500,-9.7600,-0.8300,0.5700,-0.0011,0.0011,0.0000,8.8750,-3.3750,-0.6875,0.5625,-83.8125,4.9375,0
51.160,0.7733,-9.0309,-4.1156,-0.0261,-0.0011,0.0093,-54.0000,-26.7000,-37.5000,-9.7995,-0.3759,-0.7566,-0.0083,0.0298,-0.0011,53.1000,31.6500,6.1500,-9.7900,-0.8200,0.5600,0.0000,0.0022,0.0000,8.8750,-3.3750,-0.6875,0.5625,-83.8125,4.9375,0
51.170,0.7661,-9.0525,-4.1539,-0.0317,-0.0024,0.0120,-54.0000,-25.9500,-37.2000,-9.8067,-0.3160,-0.8332,-0.0120,0.0320,0.0013,52.8000,31.6500,6.9000,-9.7400,-0.8100,0.5500,0.0000,0.0000,0.0000,8.8750,-3.3750,-0.6875,0.5625,-83.8125,4.9375,0
51.179,0.7757,-9.0405,-4.1659,-0.0253,-0.0005,0.0072,-54.0000,-25.9500,-37.2000,-9.7947,-0.3472,-0.7805,-0.0067,0.0338,-0.0005,53.7000,31.0500,7.8000,-9.7500,-0.8300,0.5700,0.0000,-0.0011,-0.0022,8.8750,-3.3750,-0.6875,0.5625,-83.8125,4.9375,0
51.190,0.8188,-9.0381,-4.1970,-0.0266,-0.0003,0.0088,-53.7000,-25.9500,-36.7500,-9.7851,-0.3783,-0.7997,-0.0101,0.0349,0.0011,53.4000,31.8000,7.3500,-9.7500,-0.8200,0.5600,0.0000,0.0000,0.0011,8.8750,-3.3750,-0.6875,0.5625,-83.8125,4.9375,0
51.195,0.7949,-9.0477,-4.1994,-0.0266,-0.0003,0.0088,-53.8500,-25.3500,-35.8500,-9.7851,-0.3783,-0.7997,-0.0069,0.0298,0.0027,53.4000,31.8000,7.3500,-9.7500,-0.8200,0.5600,0.0000,0.0022,-0.0011,9.6875,-4.1875,-0.2500,0.5625,-83.8125,4.9375,0
51.200,0.7949,-9.0477,-4.1994,-0.0266,0.0027,0.0099,-53.8500,-25.3500,-35.8500,-9.7851,-0.2993,-0.7470,-0.0069,0.0298,0.0027,53.4000,31.8000,7.3500,-9.7800,-0.8300,0.5800,0.0000,0.0022,-0.0011,9.6875,-4.1875,-0.2500,0.5625,-83.8125,4.9375,0
51.210,0.7709,-9.0597,-4.1563,-0.0280,0.0003,0.0107,-52.9500,-27.4500,-36.7500,-9.7731,-0.3855,-0.7470,-0.0091,0.0320,0.0008,53.4000,31.8000,7.3500,-9.7800,-0.8400,0.5900,0.0000,-0.0011,0.0000,9.6875,-4.1875,-0.2500,0.5625,-83.8125,4.9375,0
51.219,0.8236,-9.0142,-4.1635,-0.0256,-0.0011,0.0125,-53.7000,-25.5000,-36.4500,-9.7995,-0.3280,-0.8092,-0.0083,0.0338,-0.0056,53.8500,30.9000,7.6500,-9.7800,-0.8400,0.5700,0.0011,-0.0044,0.0000,9.6875,-4.1875,-0.2500,0.5625,-83.8125,4.9375,0
51.229,0.8260,-9.0405,-4.1994,-0.0237,0.0005,0.0120,-53.1000,-25.3500,-37.6500,-9.8162,-0.3232,-0.8021,-0.0117,0.0296,-0.0024,53.5500,31.2000,6.4500,-9.7800,-0.8400,0.5800,0.0011,-0.0011,0.0000,9.6875,-4.1875,-0.2500,0.5625,-83.8125,4.9375,0
51.238,0.7805,-9.0836,-4.1659,-0.0245,0.0019,0.0104,-53.1000,-24.6000,-38.1000,-9.7923,-0.3208,-0.7709,-0.0109,0.0253,0.0024,53.1000,29.7000,7.2000,-9.7700,-0.8300,0.6000,0.0000,-0.0022,-0.0011,9.6875,-4.1875,-0.2500,0.5625,-83.8125,4.9375,0
51.243,0.7326,-8.9950,-4.1468,-0.0245,0.0019,0.0104,-55.0500,-25.3500,-36.9000,-9.7923,-0.3208,-0.7709,-0.0075,0.0250,-0.0027,52.8000,30.9000,7.2000,-9.7700,-0.8300,0.6000,0.0000,-0.0022,-0.0011,8.8750,-4.1875,2.0000,0.5625,-83.8125,4.9375,0
51.250,0.7326,-8.9950,-4.1468,-0.0237,0.0005,0.0104,-55.0500,-25.3500,-36.9000,-9.7875,-0.3280,-0.7781,-0.0075,0.0309,0.0011,52.8000,30.9000,7.2000,-9.7600,-0.8300,0.5900,0.0011,-0.0033,0.0000,8.8750,-4.1875,2.0000,0.5625,-83.8125,4.9375,0
51.260,0.7781,-9.0573,-4.1563,-0.0213,-0.0056,0.0096,-52.9500,-25.9500,-36.7500,-9.7659,-0.3496,-0.8140,-0.0075,0.0309,0.0011,54.6000,31.6500,6.9000,-9.7600,-0.8500,0.5700,0.0011,0.0011,-0.0011,8.8750,-4.1875,2.0000,0.5625,-83.8125,4.9375,0
51.270,0.7781,-8.9711,-4.2186,-0.0266,0.0024,0.0091,-52.9500,-25.9500,-36.7500,-9.8354,-0.3759,-0.7518,-0.0056,0.0317,0.0029,54.6000,31.6500,6.9000,-9.7600,-0.8300,0.5600,0.0011,0.0000,-0.0011,8.8750,-4.1875,2.0000,0.5625,-83.8125,4.9375,0
51.279,0.8404,-9.0285,-4.1611,-0.0261,0.0000,0.0128,-55.0500,-24.1500,-36.6000,-9.8402,-0.3496,-0.7757,-0.0077,0.0322,0.0011,54.3000,30.4500,6.4500,-9.7600,-0.8200,0.5600,-0.0011,-0.0011,0.0011,8.8750,-4.1875,2.0000,0.5625,-83.8125,4.9375,0
51.288,0.8404,-9.0285,-4.1611,-0.0269,-0.0064,0.0197,-55.0500,-24.1500,-36.6000,-9.8210,-0.3615,-0.7638,-0.0077,0.0322,0.0011,54.6000,29.4000,6.9000,-9.7600,-0.8400,0.5700,0.0000,0.0011,0.0000,8.8750,-4.1875,2.0000,0.5625,-83.8125,4.9375,0
51.293,0.7925,-9.0453,-4.1970,-0.0269,-0.0064,0.0197,-55.0500,-24.1500,-36.6000,-9.8210,-0.3615,-0.7638,-0.0120,0.0280,-0.0008,53.8500,30.9000,7.6500,-9.7600,-0.8400,0.5700,0.0000,0.0011,0.0000,9.2500,-3.3750,-1.0625,0.5625,-83.8125,4.9375,0
51.300,0.8045,-9.0668,-4.2234,-0.0197,0.0019,0.0117,-53.4000,-25.3500,-37.3500,-9.8402,-0.3567,-0.7685,-0.0115,0.0290,0.0032,53.8500,30.9000,7.6500,-9.7600,-0.8300,0.5700,-0.0011,0.0000,0.0022,9.2500,-3.3750,-1.0625,0.5625,-83.8125,4.9375,0
51.310,0.7709,-8.9998,-4.1683,-0.0229,0.0005,0.0088,-53.8500,-25.8000,-37.3500,-9.8306,-0.3089,-0.7781,-0.0032,0.0288,-0.0029,53.5500,31.6500,6.9000,-9.7500,-0.8300,0.5800,-0.0011,0.0022,-0.0033,9.2500,-3.3750,-1.0625,0.5625,-83.8125,4.9375,0
51.320,0.7446,-9.0477,-4.1707,-0.0237,0.0037,0.0155,-54.1500,-25.3500,-38.4000,-9.8067,-0.3879,-0.7757,-0.0067,0.0282,-0.0043,52.6500,30.3000,7.3500,-9.7500,-0.8400,0.5600,0.0011,0.0011,0.0000,9.2500,-3.3750,-1.0625,0.5625,-83.8125,4.9375,0
51.329,0.8452,-9.0261,-4.1468,-0.0274,0.0008,0.0099,-53.2500,-25.2000,-36.4500,-9.8114,-0.3280,-0.7278,-0.0091,0.0317,0.0024,52.6500,30.3000,7.3500,-9.7700,-0.8500,0.5900,-0.0033,0.0011,0.0011,9.2500,-3.3750,-1.0625,0.5625,-83.8125,4.9375,0
51.339,0.7925,-9.0405,-4.2353,-0.0274,-0.0008,0.0107,-53.2500,-25.5000,-36.7500,-9.7875,-0.3879,-0.7542,-0.0099,0.0285,0.0019,53.7000,31.0500,5.7000,-9.7800,-0.8400,0.5700,-0.0011,0.0022,-0.0022,9.2500,-3.3750,-1.0625,0.5625,-83.8125,4.9375,0
51.343,0.7925,-9.0405,-4.2353,-0.0336,0.0027,0.0125,-53.2500,-25.5000,-36.7500,-9.8234,-0.3950,-0.7709,-0.0099,0.0285,0.0019,54.4500,29.5500,6.7500,-9.7800,-0.8400,0.5700,-0.0011,0.0022,-0.0022,9.2500,-3.3750,-1.0625,0.5625,-83.8125,4.9375,0
51.350,0.7350,-9.0285,-4.0989,-0.0336,0.0027,0.0125,-52.6500,-26.5500,-36.6000,-9.8234,-0.3950,-0.7709,-0.0109,0.0285,0.0013,54.4500,29.5500,6.7500,-9.7700,-0.8500,0.6200,0.0011,0.0000,0.0011,9.2500,-3.3750,0.8750,0.5625,-83.8125,4.9375,0
51.360,0.7566,-9.0214,-4.1899,-0.0237,0.0016,0.0107,-52.6500,-26.5500,-36.6000,-9.8258,-0.3304,-0.8260,-0.0152,0.0269,0.0069,52.8000,30.9000,6.9000,-9.7400,-0.8200,0.5900,0.0011,0.0000,0.0011,9.2500,-3.3750,0.8750,0.5625,-83.8125,4.9375,0
51.370,0.7326,-9.0788,-4.1611,-0.0256,-0.0043,0.0171,-54.4500,-25.5000,-37.2000,-9.8210,-0.3783,-0.7374,-0.0088,0.0328,0.0000,54.7500,30.0000,6.7500,-9.7700,-0.8400,0.5700,0.0022,0.0011,-0.0011,9.2500,-3.3750,0.8750,0.5625,-83.8125,4.9375,0
51.379,0.7422,-8.9711,-4.1420,-0.0285,0.0029,0.0123,-54.4500,-25.5000,-37.2000,-9.8545,-0.3639,-0.7685,-0.0077,0.0325,0.0000,53.1000,30.4500,6.9000,-9.7500,-0.8300,0.5700,0.0000,-0.0011,0.0011,9.2500,-3.3750,0.8750,0.5625,-83.8125,4.9375,0
51.384,0.7422,-8.9711,-4.1420,-0.0242,-0.0008,0.0133,-54.4500,-25.5000,-37.2000,-9.7995,-0.3903,-0.7326,-0.0077,0.0325,0.0000,53.1000,30.4500,6.9000,-9.7500,-0.8300,0.5700,0.0000,-0.0011,0.0011,9.2500,-3.3750,0.8750,0.5625,-83.8125,4.9375,0
51.391,0.7853,-9.0525,-4.1515,-0.0211,0.0027,0.0149,-54.0000,-25.2000,-36.0000,-9.7995,-0.3903,-0.7326,-0.0133,0.0304,-0.0035,53.1000,30.4500,6.9000,-9.7600,-0.8400,0.5800,0.0000,-0.0022,-0.0011,9.2500,-3.3750,0.8750,0.5625,-83.8125,4.9375,0
51.396,0.7638,-9.0070,-4.1922,-0.0211,0.0027,0.0149,-54.1500,-26.1000,-35.8500,-9.8330,-0.3496,-0.7829,-0.0109,0.0250,0.0029,53.1000,30.4500,6.9000,-9.7600,-0.8400,0.5800,0.0011,-0.0022,-0.0011,8.8750,-3.3750,0.0625,0.5625,-83.8125,4.9375,0
51.401,0.7638,-9.0070,-4.1922,-0.0288,-0.0035,0.0099,-54.1500,-26.1000,-35.8500,-9.8737,-0.3974,-0.8045,-0.0109,0.0250,0.0029,52.9500,30.0000,7.3500,-9.7800,-0.8200,0.5700,0.0011,-0.0022,-0.0011,8.8750,-3.3750,0.0625,0.5625,-83.8125,4.9375,0
51.410,0.7997,-9.0980,-4.0773,-0.0288,0.0019,0.0096,-54.0000,-25.5000,-36.0000,-9.8737,-0.3974,-0.8045,-0.0053,0.0245,0.0040,53.8500,30.4500,6.1500,-9.7700,-0.8200,0.5900,0.0000,0.0011,-0.0011,8.8750,-3.3750,0.0625,0.5625,-83.8125,4.9375,0
51.420,0.8164,-9.0070,-4.2234,-0.0226,0.0008,0.0123,-54.4500,-25.9500,-36.7500,-9.8450,-0.3472,-0.7638,-0.0059,0.0277,0.0000,52.0500,29.4000,7.2000,-9.7600,-0.8100,0.5800,0.0000,-0.0011,0.0011,8.8750,-3.3750,0.0625,0.5625,-83.8125,4.9375,0
51.430,0.7997,-9.0190,-4.0989,-0.0272,0.0021,0.0160,-54.1500,-25.0500,-35.5500,-9.7492,-0.3639,-0.7877,-0.0149,0.0312,-0.0005,54.9000,31.6500,7.6500,-9.7500,-0.8200,0.5600,0.0011,-0.0033,0.0000,8.8750,-3.3750,0.0625,0.5625,-83.8125,4.9375,0
51.439,0.7638,-9.0501,-4.2018,-0.0258,-0.0011,0.0165,-54.1500,-24.6000,-37.3500,-9.7492,-0.3639,-0.7877,-0.0099,0.0280,0.0051,53.4000,30.3000,7.0500,-9.7700,-0.8400,0.5900,0.0011,0.0000,-0.0022,8.8750,-3.3750,0.0625,0.5625,-83.8125,4.9375,0
51.444,0.8212,-9.0237,-4.2018,-0.0258,-0.0011,0.0165,-54.1500,-24.6000,-37.3500,-9.8114,-0.3855,-0.7733,-0.0109,0.0333,0.0035,53.4000,30.3000,7.0500,-9.7700,-0.8400,0.5900,0.0011,0.0000,-0.0022,8.8750,-3.7500,-1.0625,0.5625,-83.8125,4.9375,0
51.451,0.8212,-9.0237,-4.2018,-0.0256,0.0008,0.0131,-54.1500,-24.6000,-37.3500,-9.8067,-0.3065,-0.7877,-0.0109,0.0333,0.0035,53.4000,30.3000,7.0500,-9.7800,-0.8300,0.5900,0.0022,0.0011,-0.0022,8.8750,-3.7500,-1.0625,0.5625,-83.8125,4.9375,0
51.460,0.7518,-8.9615,-4.1420,-0.0221,-0.0016,0.0128,-53.4000,-25.3500,-36.9000,-9.7731,-0.3496,-0.7925,-0.0112,0.0317,-0.0024,53.5500,30.9000,5.4000,-9.7400,-0.8200,0.5900,0.0011,-0.0022,-0.0011,8.8750,-3.7500,-1.0625,0.5625,-83.8125,4.9375,0
51.470,0.7542,-8.9854,-4.1827,-0.0264,0.0021,0.0125,-53.4000,-25.3500,-36.9000,-9.8426,-0.3232,-0.7614,-0.0051,0.0322,-0.0011,52.8000,30.9000,6.9000,-9.7900,-0.8400,0.5700,0.0011,0.0000,-0.0011,8.8750,-3.7500,-1.0625,0.5625,-83.8125,4.9375,0
51.480,0.7781,-9.0046,-4.1515,-0.0277,0.0024,0.0171,-54.6000,-24.6000,-36.9000,-9.7779,-0.3639,-0.7614,-0.0096,0.0253,0.0059,53.8500,31.2000,6.4500,-9.7600,-0.8300,0.5700,-0.0011,-0.0022,-0.0011,8.8750,-3.7500,-1.0625,0.5625,-83.8125,4.9375,0
51.489,0.7566,-9.0190,-4.1180,-0.0208,-0.0008,0.0099,-54.6000,-24.6000,-36.9000,-9.7851,-0.3855,-0.7805,-0.0101,0.0285,0.0043,52.0500,31.6500,8.2500,-9.7600,-0.8200,0.5800,0.0022,0.0011,0.0011,8.8750,-3.7500,-1.0625,0.5625,-83.8125,4.9375,0
51.494,0.8045,-9.0214,-4.1132,-0.0208,-0.0008,0.0099,-54.6000,-24.6000,-36.9000,-9.7851,-0.3855,-0.7805,-0.0120,0.0301,-0.0067,52.0500,31.6500,8.2500,-9.7600,-0.8200,0.5800,0.0022,0.0011,0.0011,9.2500,-3.7500,0.8750,0.5625,-83.8125,4.9375,0
51.501,0.7901,-9.0405,-4.2090,-0.0232,0.0024,0.0128,-53.7000,-25.2000,-36.7500,-9.8067,-0.3855,-0.7877,-0.0120,0.0301,-0.0067,53.1000,31.6500,5.4000,-9.7600,-0.8200,0.5900,0.0000,-0.0011,-0.0022,9.2500,-3.7500,0.8750,0.5625,-83.8125,4.9375,0
51.510,0.7661,-8.9878,-4.1851,-0.0272,-0.0048,0.0128,-54.0000,-25.9500,-36.4500,-9.7947,-0.3807,-0.7781,-0.0123,0.0272,0.0051,53.1000,31.6500,5.4000,-9.7700,-0.8300,0.5600,0.0000,0.0000,-0.0011,9.2500,-3.7500,0.8750,0.5625,-83.8125,4.9375,0
51.520,0.7805,-9.0573,-4.1707,-0.0229,0.0040,0.0136,-53.8500,-25.0500,-36.6000,-9.7899,-0.3639,-0.7781,-0.0035,0.0365,0.0005,52.3500,29.4000,7.6500,-9.7700,-0.8300,0.5700,0.0011,0.0033,-0.0022,9.2500,-3.7500,0.8750,0.5625,-83.8125,4.9375,0
51.530,0.8236,-9.0214,-4.1899,-0.0250,0.0045,0.0125,-53.2500,-25.5000,-37.2000,-9.8067,-0.3543,-0.8021,-0.0091,0.0312,0.0011,52.9500,31.0500,6.3000,-9.7700,-0.8100,0.5700,0.0022,0.0000,0.0011,9.2500,-3.7500,0.8750,0.5625,-83.8125,4.9375,0
51.539,0.7949,-9.0477,-4.1683,-0.0282,-0.0024,0.0101,-54.4500,-24.4500,-36.0000,-9.8186,-0.3472,-0.7733,-0.0139,0.0272,0.0021,51.9000,30.3000,6.3000,-9.7700,-0.8400,0.6000,0.0000,-0.0011,0.0000,9.2500,-3.7500,0.8750,0.5625,-83.8125,4.9375,0
51.544,0.7949,-9.0477,-4.1683,-0.0293,-0.0019,0.0120,-54.4500,-24.4500,-36.0000,-9.8186,-0.3472,-0.7733,-0.0056,0.0314,-0.0029,51.9000,30.3000,6.3000,-9.7700,-0.8400,0.6000,0.0000,-0.0011,0.0000,9.2500,-3.7500,0.8750,0.5625,-83.8125,4.9375,0
51.550,0.7877,-9.0381,-4.1420,-0.0293,-0.0019,0.0120,-54.4500,-24.4500,-37.2000,-9.8521,-0.3831,-0.7829,-0.0083,0.0277,0.0013,53.4000,30.3000,6.0000,-9.7500,-0.8300,0.6000,0.0011,0.0000,0.0011,8.8750,-3.7500,0.3750,0.5625,-83.8125,4.9375,0
51.560,0.7566,-9.0477,-4.1132,-0.0234,-0.0013,0.0101,-54.4500,-24.4500,-37.2000,-9.8354,-0.3232,-0.7470,-0.0109,0.0288,0.0088,53.4000,31.5000,7.8000,-9.7500,-0.8500,0.5500,0.0011,-0.0011,0.0011,8.8750,-3.7500,0.3750,0.5625,-83.8125,4.9375,0
51.570,0.7829,-9.0501,-4.1587,-0.0269,0.0061,0.0096,-53.8500,-24.6000,-36.1500,-9.7372,-0.3112,-0.8284,-0.0061,0.0296,0.0032,53.4000,31.5000,7.8000,-9.7600,-0.8500,0.5600,0.0000,-0.0011,0.0000,8.8750,-3.7500,0.3750,0.5625,-83.8125,4.9375,0
51.580,0.8116,-9.0405,-4.0845,-0.0285,0.0011,0.0096,-53.8500,-24.6000,-36.1500,-9.8545,-0.3711,-0.7829,-0.0101,0.0288,-0.0019,53.4000,31.5000,7.8000,-9.7700,-0.8300,0.5900,0.0011,0.0011,-0.0011,8.8750,-3.7500,0.3750,0.5625,-83.8125,4.9375,0
51.585,0.8116,-9.0405,-4.0845,-0.0264,0.0053,0.0139,-53.8500,-24.6000,-36.1500,-9.8785,-0.3519,-0.7973,-0.0101,0.0288,-0.0019,53.4000,31.5000,7.8000,-9.7700,-0.8300,0.5900,0.0000,-0.0011,-0.0011,8.8750,-3.7500,0.3750,0.5625,-83.8125,4.9375,0
51.592,0.7518,-8.9830,-4.1994,-0.0274,0.0021,0.0099,-54.1500,-25.8000,-37.3500,-9.8785,-0.3519,-0.7973,-0.0123,0.0290,0.0032,52.8000,31.2000,6.1500,-9.7600,-0.8100,0.5600,0.0000,-0.0011,-0.0011,8.8750,-3.7500,0.3750,0.5625,-83.8125,4.9375,0
51.596,0.8284,-9.0381,-4.1420,-0.0274,0.0021,0.0099,-53.4000,-24.6000,-37.6500,-9.7899,-0.3639,-0.8021,-0.0123,0.0290,0.0032,52.9500,30.7500,6.7500,-9.7500,-0.8400,0.5900,0.0000,0.0033,0.0000,9.6875,-3.3750,0.3750,0.5625,-83.8125,4.9375,0
51.602,0.8284,-9.0381,-4.1420,-0.0304,0.0032,0.0123,-53.4000,-24.6000,-37.6500,-9.7899,-0.3639,-0.8021,-0.0099,0.0352,-0.0019,52.9500,30.7500,6.7500,-9.7500,-0.8400,0.5900,0.0000,0.0033,0.0000,9.6875,-3.3750,0.3750,0.5625,-83.8125,4.9375,0
51.611,0.7901,-9.0309,-4.1803,-0.0304,0.0032,0.0123,-54.4500,-26.4000,-36.7500,-9.7683,-0.3304,-0.7590,-0.0120,0.0269,0.0043,53.1000,30.1500,7.9500,-9.7700,-0.8400,0.5700,-0.0011,0.0000,-0.0022,9.6875,-3.3750,0.3750,0.5625,-83.8125,4.9375,0
51.620,0.8116,-8.9615,-4.1827,-0.0274,0.0013,0.0109,-54.1500,-26.5500,-36.1500,-9.7588,-0.3615,-0.7590,-0.0061,0.0280,-0.0019,52.3500,30.9000,6.9000,-9.7500,-0.8200,0.5700,0.0000,0.0011,0.0000,9.6875,-3.3750,0.3750,0.5625,-83.8125,4.9375,0
51.630,0.8308,-9.0573,-4.1731,-0.0237,-0.0043,0.0144,-53.7000,-25.2000,-36.0000,-9.8138,-0.3280,-0.8045,-0.0123,0.0264,0.0040,53.5500,30.4500,7.9500,-9.7600,-0.8300,0.5900,0.0022,-0.0022,0.0000,9.6875,-3.3750,0.3750,0.5625,-83.8125,4.9375,0
51.639,0.7614,-9.0381,-4.1539,-0.0237,-0.0043,0.0144,-53.8500,-27.0000,-36.1500,-9.7540,-0.3089,-0.7159,-0.0131,0.0250,0.0024,53.5500,30.4500,7.9500,-9.7600,-0.8300,0.5700,-0.0033,0.0000,0.0000,9.6875,-3.3750,0.3750,0.5625,-83.8125,4.9375,0
51.644,0.7614,-9.0381,-4.1539,-0.0266,0.0019,0.0123,-53.8500,-27.0000,-36.1500,-9.7827,-0.3424,-0.7398,-0.0131,0.0250,0.0024,53.5500,30.4500,7.9500,-9.7600,-0.8300,0.5700,-0.0033,0.0000,0.0000,9.6875,-3.3750,0.3750,0.5625,-83.8125,4.9375,0
51.651,0.7925,-9.0022,-4.1635,-0.0250,0.0005,0.0144,-53.8500,-27.0000,-36.1500,-9.7827,-0.3424,-0.7398,-0.0123,0.0304,0.0019,54.0000,30.7500,6.7500,-9.7700,-0.8200,0.6000,-0.0011,0.0000,-0.0011,8.8750,-3.7500,0.8750,0.5625,-83.8125,4.9375,0
51.661,0.7446,-9.0644,-4.1731,-0.0280,-0.0021,0.0085,-53.1000,-25.3500,-36.6000,-9.8378,-0.3448,-0.8380,-0.0101,0.0330,-0.0056,53.5500,30.1500,6.4500,-9.7500,-0.8100,0.5700,0.0011,0.0011,-0.0011,8.8750,-3.7500,0.8750,0.5625,-83.8125,4.9375,0
51.670,0.7805,-8.9950,-4.1922,-0.0298,0.0029,0.0152,-53.1000,-25.3500,-36.6000,-9.8234,-0.2897,-0.7925,-0.0115,0.0330,0.0008,54.4500,30.7500,6.3000,-9.7900,-0.8500,0.5500,0.0000,-0.0011,0.0000,8.8750,-3.7500,0.8750,0.5625,-83.8125,4.9375,0
51.679,0.8308,-9.0070,-4.1635,-0.0248,-0.0005,0.0123,-55.0500,-25.3500,-36.9000,-9.7707,-0.3256,-0.7709,-0.0125,0.0304,-0.0040,52.0500,30.9000,6.4500,-9.7700,-0.8400,0.5700,-0.0011,-0.0022,0.0011,8.8750,-3.7500,0.8750,0.5625,-83.8125,4.9375,0
51.684,0.7302,-9.0094,-4.1707,-0.0248,-0.0005,0.0123,-55.0500,-25.3500,-36.9000,-9.7779,-0.3136,-0.7805,-0.0125,0.0304,-0.0040,53.8500,31.2000,7.2000,-9.7700,-0.8400,0.5700,-0.0011,-0.0022,0.0011,8.8750,-3.7500,0.8750,0.5625,-83.8125,4.9375,0
51.691,0.7302,-9.0094,-4.1707,-0.0264,0.0003,0.0109,-55.3500,-26.1000,-35.8500,-9.7803,-0.3232,-0.7853,-0.0104,0.0301,-0.0021,53.8500,31.2000,7.2000,-9.7700,-0.8500,0.5600,-0.0011,0.0022,0.0000,8.8750,-3.7500,0.8750,0.5625,-83.8125,4.9375,0
51.696,0.8045,-9.0597,-4.1228,-0.0264,0.0003,0.0109,-55.3500,-26.1000,-35.8500,-9.7803,-0.3232,-0.7853,-0.0075,0.0277,0.0024,53.8500,31.2000,7.2000,-9.7700,-0.8500,0.5600,0.0000,0.0000,-0.0022,9.6875,-3.0625,1.1875,0.5625,-83.8125,4.9375,0
51.702,0.8045,-9.0597,-4.1228,-0.0229,-0.0027,0.0112,-53.1000,-25.0500,-36.1500,-9.8043,-0.3424,-0.7685,-0.0075,0.0277,0.0024,53.8500,31.2000,7.2000,-9.7800,-0.8200,0.5800,0.0000,0.0000,-0.0022,9.6875,-3.0625,1.1875,0.5625,-83.8125,4.9375,0
51.711,0.7949,-9.0333,-4.1731,-0.0325,0.0029,0.0104,-53.7000,-24.4500,-36.7500,-9.7659,-0.2921,-0.7853,-0.0027,0.0304,0.0013,53.1000,30.1500,5.4000,-9.7500,-0.8600,0.5700,-0.0011,0.0011,-0.0011,9.6875,-3.0625,1.1875,0.5625,-83.8125,4.9375,0
51.721,0.7757,-9.0118,-4.1396,-0.0269,-0.0027,0.0109,-54.4500,-26.7000,-36.7500,-9.7683,-0.3783,-0.7997,-0.0117,0.0317,0.0043,53.7000,30.3000,6.7500,-9.7900,-0.8200,0.5500,-0.0011,0.0022,-0.0022,9.6875,-3.0625,1.1875,0.5625,-83.8125,4.9375,0
51.730,0.7207,-9.0812,-4.1492,-0.0250,-0.0003,0.0147,-53.8500,-24.6000,-35.8500,-9.7923,-0.3400,-0.7925,-0.0101,0.0349,0.0024,53.5500,32.4000,6.1500,-9.7500,-0.8200,0.5700,0.0000,0.0000,0.0000,9.6875,-3.0625,1.1875,0.5625,-83.8125,4.9375,0
51.740,0.7733,-8.9998,-4.1396,-0.0285,0.0040,0.0128,-52.9500,-25.5000,-37.5000,-9.8090,-0.3639,-0.7997,-0.0061,0.0306,0.0056,53.7000,30.3000,6.3000,-9.7700,-0.8300,0.5900,0.0011,0.0011,0.0000,9.6875,-3.0625,1.1875,0.5625,-83.8125,4.9375,0
51.744,0.8308,-8.9783,-4.1611,-0.0285,0.0040,0.0128,-52.9500,-25.5000,-37.5000,-9.8090,-0.3639,-0.7997,-0.0139,0.0293,0.0008,53.5500,30.1500,5.8500,-9.7700,-0.8300,0.5900,0.0011,0.0011,0.0000,9.6875,-3.3750,0.0625,0.5625,-83.8125,4.9375,0
51.751,0.8021,-9.0261,-4.1084,-0.0248,-0.0048,0.0141,-53.7000,-25.9500,-36.4500,-9.7659,-0.3184,-0.8068,-0.0139,0.0293,0.0008,53.5500,30.1500,5.8500,-9.7700,-0.8300,0.5800,-0.0033,-0.0011,-0.0011,9.6875,-3.3750,0.0625,0.5625,-83.8125,4.9375,0
51.761,0.7853,-8.9830,-4.1324,-0.0285,0.0040,0.0099,-53.7000,-25.9500,-36.4500,-9.8210,-0.4334,-0.7997,-0.0064,0.0317,0.0021,53.5500,30.1500,5.8500,-9.7700,-0.8300,0.5900,-0.0011,0.0011,0.0011,9.6875,-3.3750,0.0625,0.5625,-83.8125,4.9375,0
51.771,0.7566,-9.0621,-4.1515,-0.0320,0.0005,0.0075,-51.9000,-25.3500,-35.8500,-9.8713,-0.3759,-0.7853,-0.0112,0.0309,0.0000,53.5500,30.1500,5.8500,-9.7500,-0.8300,0.5700,-0.0022,0.0033,0.0011,9.6875,-3.3750,0.0625,0.5625,-83.8125,4.9375,0
51.781,0.7709,-9.0764,-4.1420,-0.0277,-0.0048,0.0083,-51.9000,-25.3500,-35.8500,-9.7851,-0.3735,-0.7638,-0.0136,0.0338,0.0032,53.7000,30.7500,6.7500,-9.7600,-0.8000,0.5900,0.0000,-0.0011,0.0000,9.6875,-3.3750,0.0625,0.5625,-83.8125,4.9375,0
51.790,0.7901,-8.9926,-4.1659,-0.0258,-0.0048,0.0141,-54.0000,-25.5000,-34.5000,-9.7588,-0.3232,-0.7853,-0.0075,0.0317,0.0037,52.8000,29.4000,5.4000,-9.7700,-0.8300,0.5800,0.0000,-0.0022,0.0000,9.6875,-3.3750,0.0625,0.5625,-83.8125,4.9375,0
51.794,0.7901,-8.9926,-4.1659,-0.0269,-0.0064,0.0123,-54.0000,-25.5000,-34.5000,-9.7588,-0.3232,-0.7853,-0.0069,0.0338,0.0008,53.5500,30.9000,6.9000,-9.7700,-0.8300,0.5800,0.0000,-0.0022,0.0000,8.8750,-3.0625,-0.6875,0.5625,-83.8125,4.9375,0
51.801,0.7614,-8.9735,-4.1707,-0.0269,-0.0064,0.0123,-53.1000,-25.8000,-36.9000,-9.8234,-0.3136,-0.8212,-0.0069,0.0338,0.0008,53.5500,30.9000,6.9000,-9.7700,-0.8500,0.5700,-0.0011,0.0011,0.0000,8.8750,-3.0625,-0.6875,0.5625,-83.8125,4.9375,0
51.811,0.7829,-9.0118,-4.1324,-0.0203,-0.0053,0.0131,-53.7000,-24.4500,-37.5000,-9.8330,-0.3567,-0.7638,-0.0112,0.0274,0.0021,54.3000,30.4500,6.1500,-9.7500,-0.8200,0.5600,-0.0011,0.0033,0.0000,8.8750,-3.0625,-0.6875,0.5625,-83.8125,4.9375,0
51.821,0.8045,-9.0094,-4.1851,-0.0240,-0.0013,0.0109,-54.0000,-24.0000,-37.9500,-9.7564,-0.3591,-0.7302,-0.0075,0.0306,0.0016,54.3000,30.4500,6.1500,-9.7300,-0.8200,0.5600,0.0000,0.0000,0.0000,8.8750,-3.0625,-0.6875,0.5625,-83.8125,4.9375,0
51.831,0.8021,-9.0309,-4.1348,-0.0258,0.0000,0.0120,-54.4500,-26.7000,-37.9500,-9.8114,-0.3711,-0.8188,-0.0085,0.0312,0.0003,54.3000,30.4500,6.1500,-9.7500,-0.8300,0.5900,-0.0011,0.0000,-0.0011,8.8750,-3.0625,-0.6875,0.5625,-83.8125,4.9375,0
51.840,0.8116,-9.0261,-4.0917,-0.0269,0.0011,0.0091,-54.0000,-23.5500,-39.0000,-9.7947,-0.3735,-0.7685,-0.0085,0.0312,0.0003,53.5500,30.4500,6.1500,-9.7500,-0.8200,0.5600,-0.0011,0.0011,-0.0011,8.8750,-3.0625,-0.6875,0.5625,-83.8125,4.9375,0
51.845,0.8116,-9.0261,-4.0917,-0.0192,0.0000,0.0125,-54.0000,-23.5500,-39.0000,-9.7947,-0.3735,-0.7685,-0.0128,0.0285,0.0048,53.5500,30.4500,6.4500,-9.7500,-0.8200,0.5600,-0.0011,0.0011,-0.0011,10.3750,-3.3750,0.3750,0.5625,-83.8125,4.9375,0
51.852,0.8356,-8.9974,-4.1132,-0.0320,-0.0003,0.0107,-54.0000,-23.5500,-39.0000,-9.7899,-0.3687,-0.7350,-0.0120,0.0229,0.0043,52.9500,30.7500,6.7500,-9.7500,-0.8600,0.5600,-0.0011,0.0000,-0.0011,10.3750,-3.3750,0.3750,0.5625,-83.8125,4.9375,0
51.861,0.7685,-8.9304,-4.1611,-0.0309,0.0021,0.0096,-54.7500,-24.4500,-36.7500,-9.8043,-0.3567,-0.7614,-0.0085,0.0304,0.0032,53.5500,30.9000,7.2000,-9.7700,-0.8300,0.5900,0.0011,-0.0044,0.0000,10.3750,-3.3750,0.3750,0.5625,-83.8125,4.9375,0
51.871,0.7877,-9.0261,-4.1755,-0.0290,0.0032,0.0091,-54.7500,-24.4500,-36.7500,-9.8545,-0.3687,-0.8116,-0.0104,0.0346,0.0011,52.9500,30.7500,7.0500,-9.7300,-0.8400,0.5700,0.0000,0.0000,0.0000,10.3750,-3.3750,0.3750,0.5625,-83.8125,4.9375,0
51.881,0.7566,-8.9878,-4.1659,-0.0282,0.0008,0.0109,-52.9500,-26.4000,-37.5000,-9.7995,-0.3807,-0.7805,-0.0048,0.0325,0.0027,52.9500,30.7500,7.0500,-9.7400,-0.8400,0.5700,-0.0011,0.0033,0.0011,10.3750,-3.3750,0.3750,0.5625,-83.8125,4.9375,0
51.889,0.7997,-9.0597,-4.1611,-0.0282,0.0008,0.0109,-54.4500,-24.7500,-36.0000,-9.8545,-0.3304,-0.7973,-0.0091,0.0296,-0.0003,52.9500,30.7500,7.0500,-9.7700,-0.8300,0.5900,0.0011,-0.0011,0.0000,10.3750,-3.3750,0.3750,0.5625,-83.8125,4.9375,0
51.894,0.7997,-9.0597,-4.1611,-0.0266,-0.0024,0.0112,-54.4500,-24.7500,-36.0000,-9.8545,-0.3304,-0.7973,-0.0091,0.0296,-0.0003,53.8500,31.6500,5.8500,-9.7700,-0.8300,0.5900,0.0011,-0.0011,0.0000,10.3750,-3.3750,0.3750,0.5625,-83.8125,4.9375,0
51.901,0.7733,-9.0094,-4.1300,-0.0272,-0.0032,0.0075,-53.1000,-24.6000,-36.6000,-9.7779,-0.3376,-0.7973,-0.0109,0.0312,-0.0005,52.0500,30.4500,6.1500,-9.7700,-0.8300,0.5800,-0.0011,0.0011,-0.0011,9.2500,-3.3750,0.0625,0.5625,-83.8125,4.9375,0
51.911,0.8068,-9.0094,-4.1539,-0.0205,-0.0011,0.0107,-53.1000,-25.3500,-37.3500,-9.8138,-0.3759,-0.7829,-0.0117,0.0336,0.0027,54.4500,29.5500,6.0000,-9.7700,-0.8300,0.5700,-0.0011,0.0033,0.0000,9.2500,-3.3750,0.0625,0.5625,-83.8125,4.9375,0
51.921,0.8116,-9.0166,-4.1563,-0.0288,0.0096,0.0141,-55.0500,-25.3500,-36.9000,-9.8282,-0.3783,-0.7949,-0.0088,0.0266,0.0008,55.5000,31.0500,6.7500,-9.7400,-0.8200,0.5500,0.0000,0.0000,0.0000,9.2500,-3.3750,0.0625,0.5625,-83.8125,4.9375,0
51.931,0.7949,-9.0118,-4.1755,-0.0245,-0.0005,0.0104,-54.1500,-25.0500,-36.1500,-9.8426,-0.3735,-0.7446,-0.0101,0.0274,0.0019,52.6500,30.3000,7.3500,-9.7600,-0.8500,0.5700,-0.0011,0.0022,0.0000,9.2500,-3.3750,0.0625,0.5625,-83.8125,4.9375,0
51.940,0.8021,-9.0429,-4.2282,-0.0266,0.0037,0.0109,-55.0500,-25.8000,-37.3500,-9.7971,-0.3759,-0.8068,-0.0085,0.0325,0.0016,52.6500,30.3000,7.3500,-9.7700,-0.8400,0.5700,-0.0011,0.0022,-0.0011,9.2500,-3.3750,0.0625,0.5625,-83.8125,4.9375,0
51.945,0.7566,-9.0070,-4.2138,-0.0266,0.0037,0.0109,-55.0500,-25.8000,-37.3500,-9.8067,-0.3711,-0.7638,-0.0085,0.0325,0.0016,52.6500,30.3000,7.3500,-9.7700,-0.8400,0.5700,-0.0011,0.0022,-0.0011,10.0625,-3.3750,0.0625,0.5625,-83.8125,4.9375,0
51.952,0.8212,-8.9735,-4.1492,-0.0234,-0.0003,0.0083,-52.9500,-25.9500,-37.5000,-9.8067,-0.3711,-0.7638,-0.0120,0.0264,0.0019,54.4500,30.3000,7.8000,-9.7600,-0.8500,0.6000,-0.0011,0.0044,-0.0022,10.0625,-3.3750,0.0625,0.5625,-83.8125,4.9375,0
51.961,0.7566,-9.0166,-4.1372,-0.0269,-0.0043,0.0096,-52.9500,-25.9500,-37.5000,-9.8043,-0.3017,-0.7973,-0.0099,0.0314,0.0005,53.4000,30.7500,7.0500,-9.7800,-0.8500,0.5700,-0.0011,-0.0022,-0.0011,10.0625,-3.3750,0.0625,0.5625,-83.8125,4.9375,0
51.971,0.8021,-9.0118,-4.1132,-0.0264,-0.0040,0.0165,-53.7000,-26.4000,-36.4500,-9.8234,-0.3136,-0.7661,-0.0093,0.0274,0.0005,53.5500,31.2000,5.8500,-9.7700,-0.8400,0.5900,-0.0022,0.0022,-0.0011,10.0625,-3.3750,0.0625,0.5625,-83.8125,4.9375,0
51.981,0.7661,-9.0142,-4.1396,-0.0224,-0.0016,0.0091,-53.7000,-26.4000,-36.4500,-9.8497,-0.3472,-0.7949,-0.0091,0.0290,-0.0011,52.2000,30.0000,8.1000,-9.7400,-0.8300,0.5700,0.0000,0.0022,0.0000,10.0625,-3.3750,0.0625,0.5625,-83.8125,4.9375,0
51.990,0.7661,-9.0142,-4.1396,-0.0272,-0.0024,0.0136,-53.4000,-25.8000,-36.6000,-9.7971,-0.3591,-0.8212,-0.0059,0.0264,0.0019,53.7000,31.5000,7.3500,-9.7500,-0.8300,0.5600,0.0000,0.0033,-0.0011,10.0625,-3.3750,0.0625,0.5625,-83.8125,4.9375,0
51.995,0.7925,-9.0142,-4.1156,-0.0272,-0.0024,0.0136,-53.4000,-25.8000,-36.6000,-9.8019,-0.3879,-0.7757,-0.0059,0.0264,0.0019,53.7000,31.5000,7.3500,-9.7500,-0.8300,0.5600,0.0000,0.0033,-0.0011,9.2500,-3.0625,0.0625,0.5625,-83.8125,4.9375,0
52.002,0.8045,-9.0429,-4.2090,-0.0250,-0.0005,0.0109,-53.1000,-25.0500,-36.9000,-9.8114,-0.3400,-0.7757,-0.0051,0.0285,0.0019,53.7000,31.5000,7.3500,-9.7700,-0.8300,0.5800,0.0011,-0.0011,-0.0011,9.2500,-3.0625,0.0625,0.5625,-83.8125,4.9375,0
52.011,0.7422,-9.0549,-4.1204,-0.0266,0.0016,0.0144,-54.1500,-25.8000,-36.1500,-9.8043,-0.3448,-0.7470,-0.0083,0.0293,0.0019,53.7000,31.5000,7.3500,-9.7600,-0.8500,0.5700,0.0000,0.0022,-0.0011,9.2500,-3.0625,0.0625,0.5625,-83.8125,4.9375,0
52.021,0.7853,-9.0214,-4.1683,-0.0272,0.0045,0.0123,-55.0500,-24.6000,-36.1500,-9.7324,-0.3496,-0.7494,-0.0064,0.0253,0.0024,54.3000,30.9000,5.8500,-9.7700,-0.8200,0.5700,-0.0011,0.0000,0.0011,9.2500,-3.0625,0.0625,0.5625,-83.8125,4.9375,0
52.031,0.7757,-8.9759,-4.1372,-0.0277,-0.0027,0.0099,-54.4500,-25.9500,-36.7500,-9.7923,-0.3543,-0.7230,-0.0096,0.0354,0.0013,53.1000,30.9000,5.8500,-9.7600,-0.8500,0.5600,0.0000,0.0000,-0.0011,9.2500,-3.0625,0.0625,0.5625,-83.8125,4.9375,0
52.039,0.8260,-9.0285,-4.1851,-0.0218,0.0021,0.0149,-54.4500,-25.9500,-36.7500,-9.8090,-0.3663,-0.7207,-0.0083,0.0344,0.0035,53.5500,31.9500,6.9000,-9.7500,-0.8300,0.5800,-0.0022,0.0000,-0.0011,9.2500,-3.0625,0.0625,0.5625,-83.8125,4.9375,0
52.044,0.8260,-9.0285,-4.1851,-0.0213,-0.0024,0.0083,-53.2500,-23.5500,-37.2000,-9.8090,-0.3663,-0.7207,-0.0080,0.0346,-0.0011,53.5500,31.9500,6.9000,-9.7500,-0.8300,0.5800,-0.0022,0.0000,-0.0011,9.2500,-3.0625,0.0625,0.5625,-83.8125,4.9375,0
52.049,0.7733,-9.0190,-4.1611,-0.0213,-0.0024,0.0083,-53.2500,-23.5500,-37.2000,-9.7229,-0.3950,-0.7661,-0.0080,0.0346,-0.0011,53.4000,31.0500,6.3000,-9.7700,-0.8300,0.5700,0.0000,0.0044,-0.0011,9.2500,-3.3750,-0.2500,0.5625,-83.8125,4.9375,0
52.054,0.7733,-9.0190,-4.1611,-0.0309,0.0027,0.0152,-53.2500,-23.5500,-37.2000,-9.7229,-0.3950,-0.7661,-0.0093,0.0282,-0.0013,53.4000,31.0500,6.3000,-9.7700,-0.8300,0.5700,0.0000,0.0044,-0.0011,9.2500,-3.3750,-0.2500,0.5625,-83.8125,4.9375,0
52.062,0.8212,-8.9328,-4.1515,-0.0309,0.0027,0.0152,-54.0000,-24.7500,-36.7500,-9.8210,-0.3926,-0.7901,-0.0093,0.0282,-0.0013,52.8000,31.6500,7.6500,-9.7500,-0.8300,0.5900,-0.0033,0.0011,0.0000,9.2500,-3.3750,-0.2500,0.5625,-83.8125,4.9375,0
52.072,0.7661,-9.0046,-4.1348,-0.0261,0.0027,0.0101,-54.0000,-24.7500,-36.7500,-9.8330,-0.4118,-0.7494,-0.0029,0.0309,0.0043,52.8000,31.6500,7.6500,-9.7600,-0.8200,0.5600,-0.0011,0.0011,-0.0011,9.2500,-3.3750,-0.2500,0.5625,-83.8125,4.9375,0
52.081,0.7949,-9.0309,-4.1539,-0.0282,-0.0032,0.0069,-55.2000,-24.7500,-37.5000,-9.7636,-0.3591,-0.8236,-0.0131,0.0330,0.0029,53.5500,30.9000,7.2000,-9.7800,-0.8500,0.5800,0.0000,0.0022,0.0011,9.2500,-3.3750,-0.2500,0.5625,-83.8125,4.9375,0
52.091,0.8021,-9.0525,-4.1396,-0.0290,0.0035,0.0096,-53.1000,-25.3500,-36.6000,-9.8234,-0.3567,-0.7997,-0.0123,0.0312,0.0027,53.5500,31.9500,5.4000,-9.7700,-0.8100,0.5800,0.0000,0.0000,-0.0033,9.2500,-3.3750,-0.2500,0.5625,-83.8125,4.9375,0
52.096,0.7925,-8.9807,-4.2090,-0.0290,0.0035,0.0096,-53.1000,-25.3500,-36.6000,-9.8234,-0.3567,-0.7997,-0.0120,0.0296,-0.0011,53.5500,31.9500,5.4000,-9.7700,-0.8100,0.5800,0.0000,-0.0055,0.0000,9.2500,-3.0625,0.0625,0.5625,-83.8125,4.9375,0
52.102,0.7925,-8.9807,-4.2090,-0.0288,0.0029,0.0131,-52.6500,-26.1000,-38.1000,-9.7612,-0.3639,-0.7685,-0.0115,0.0346,0.0019,53.4000,30.7500,8.1000,-9.7600,-0.8100,0.5700,0.0000,-0.0055,0.0000,9.2500,-3.0625,0.0625,0.5625,-83.8125,4.9375,0
52.112,0.7733,-9.0261,-4.1539,-0.0280,0.0053,0.0080,-53.2500,-24.7500,-36.7500,-9.8306,-0.3519,-0.7661,-0.0091,0.0360,-0.0005,53.4000,30.3000,6.3000,-9.7600,-0.8400,0.5700,0.0000,-0.0011,0.0011,9.2500,-3.0625,0.0625,0.5625,-83.8125,4.9375,0
52.122,0.7973,-9.0549,-4.1803,-0.0266,0.0011,0.0125,-53.2500,-25.5000,-37.2000,-9.7923,-0.2873,-0.7685,-0.0067,0.0293,0.0005,53.1000,30.9000,7.6500,-9.7600,-0.8400,0.5700,-0.0011,-0.0022,0.0000,9.2500,-3.0625,0.0625,0.5625,-83.8125,4.9375,0
52.131,0.7853,-8.9902,-4.1922,-0.0261,-0.0029,0.0141,-54.4500,-25.5000,-37.2000,-9.8282,-0.3735,-0.7757,-0.0085,0.0296,-0.0016,53.1000,30.9000,7.6500,-9.7900,-0.8400,0.5700,0.0011,0.0000,0.0011,9.2500,-3.0625,0.0625,0.5625,-83.8125,4.9375,0
52.141,0.7494,-8.9615,-4.0965,-0.0258,0.0011,0.0112,-54.4500,-26.4000,-36.7500,-9.7803,-0.3759,-0.7422,-0.0091,0.0272,0.0008,53.5500,31.6500,7.9500,-9.7700,-0.8600,0.5800,0.0000,0.0011,0.0022,9.2500,-3.0625,0.0625,0.5625,-83.8125,4.9375,0
52.146,0.7470,-9.0070,-4.1779,-0.0258,0.0011,0.0112,-54.4500,-26.4000,-36.7500,-9.7923,-0.3974,-0.7685,-0.0091,0.0272,0.0008,53.5500,30.1500,6.9000,-9.7700,-0.8600,0.5800,0.0000,0.0000,0.0011,9.2500,-4.1875,1.1875,0.5625,-83.8125,4.9375,0
52.152,0.7470,-9.0070,-4.1779,-0.0288,-0.0016,0.0072,-54.4500,-25.9500,-36.7500,-9.7923,-0.3974,-0.7685,-0.0112,0.0306,0.0003,53.5500,30.1500,6.9000,-9.7600,-0.8200,0.6000,0.0000,0.0000,0.0011,9.2500,-4.1875,1.1875,0.5625,-83.8125,4.9375,0
52.162,0.7398,-8.9878,-4.1204,-0.0250,-0.0005,0.0107,-54.4500,-25.9500,-36.7500,-9.7516,-0.3280,-0.7829,-0.0061,0.0285,0.0032,53.7000,33.0000,6.7500,-9.7600,-0.8500,0.5600,0.0000,-0.0011,0.0000,9.2500,-4.1875,1.1875,0.5625,-83.8125,4.9375,0
52.171,0.7709,-9.0142,-4.1755,-0.0296,-0.0024,0.0157,-53.7000,-25.5000,-35.7000,-9.8569,-0.4118,-0.7853,-0.0101,0.0330,-0.0024,54.9000,30.4500,7.6500,-9.7700,-0.8500,0.5700,0.0011,-0.0033,0.0011,9.2500,-4.1875,1.1875,0.5625,-83.8125,4.9375,0
52.181,0.7973,-9.0836,-4.1372,-0.0258,0.0064,0.0099,-53.7000,-25.5000,-35.7000,-9.7636,-0.3663,-0.7446,-0.0091,0.0314,0.0000,52.6500,31.0500,6.3000,-9.7700,-0.8300,0.5700,0.0011,-0.0022,0.0011,9.2500,-4.1875,1.1875,0.5625,-83.8125,4.9375,0
52.191,0.7590,-9.0381,-4.1180,-0.0242,0.0016,0.0115,-53.7000,-25.5000,-35.7000,-9.8043,-0.3112,-0.7614,-0.0077,0.0317,-0.0024,52.6500,31.0500,6.3000,-9.7800,-0.8200,0.6000,-0.0011,0.0000,0.0011,9.2500,-4.1875,1.1875,0.5625,-83.8125,4.9375,0
52.195,0.7781,-8.9974,-4.1468,-0.0242,0.0016,0.0115,-52.9500,-24.0000,-35.7000,-9.7971,-0.3400,-0.7159,-0.0077,0.0317,-0.0024,52.6500,31.0500,6.3000,-9.7800,-0.8200,0.6000,-0.0011,0.0000,0.0011,9.2500,-3.0625,0.8750,0.5625,-83.8125,4.9375,0
52.202,0.8284,-9.0214,-4.1539,-0.0192,0.0019,0.0115,-53.1000,-24.6000,-36.6000,-9.7971,-0.3400,-0.7159,-0.0059,0.0322,0.0016,52.6500,31.0500,6.3000,-9.7600,-0.8300,0.5800,0.0000,0.0000,0.0000,9.2500,-3.0625,0.8750,0.5625,-83.8125,4.9375,0
52.212,0.8068,-8.9902,-4.1827,-0.0266,0.0003,0.0165,-54.6000,-25.3500,-36.9000,-9.8019,-0.3687,-0.7111,-0.0112,0.0277,-0.0013,53.5500,30.4500,7.2000,-9.7700,-0.8500,0.5700,0.0011,-0.0022,0.0011,9.2500,-3.0625,0.8750,0.5625,-83.8125,4.9375,0
52.222,0.8045,-8.9950,-4.1420,-0.0274,-0.0016,0.0117,-55.2000,-25.2000,-37.5000,-9.8090,-0.3376,-0.8164,-0.0104,0.0304,-0.0008,53.7000,30.3000,7.8000,-9.7600,-0.8300,0.5700,0.0000,-0.0011,0.0011,9.2500,-3.0625,0.8750,0.5625,-83.8125,4.9375,0
52.232,0.7973,-9.0070,-4.1252,-0.0234,0.0000,0.0083,-53.4000,-25.3500,-35.8500,-9.7707,-0.3280,-0.7925,-0.0061,0.0357,-0.0011,53.1000,31.6500,7.2000,-9.7600,-0.8500,0.5800,0.0022,0.0000,0.0022,9.2500,-3.0625,0.8750,0.5625,-83.8125,4.9375,0
52.242,0.7973,-8.9950,-4.1611,-0.0261,0.0024,0.0117,-54.1500,-25.8000,-37.3500,-9.7779,-0.3328,-0.8140,-0.0075,0.0301,-0.0027,52.9500,31.5000,7.8000,-9.7600,-0.8500,0.5800,0.0011,-0.0011,0.0000,9.2500,-3.0625,0.8750,0.5625,-83.8125,4.9375,0
52.247,0.7973,-8.9950,-4.1611,-0.0240,0.0027,0.0125,-54.1500,-25.8000,-37.3500,-9.8282,-0.3280,-0.7685,-0.0104,0.0288,0.0019,52.8000,31.2000,7.6500,-9.7600,-0.8500,0.5800,-0.0022,0.0011,0.0000,10.0625,-2.6875,-0.2500,0.5625,-83.8125,4.9375,0
52.253,0.8092,-9.0501,-4.1252,-0.0240,0.0027,0.0125,-54.1500,-25.8000,-37.3500,-9.7444,-0.3639,-0.8236,-0.0104,0.0288,0.0019,52.8000,31.2000,7.6500,-9.7600,-0.8300,0.5900,-0.0022,0.0011,0.0000,10.0625,-2.6875,-0.2500,0.5625,-83.8125,4.9375,0
52.262,0.8212,-9.0405,-4.1468,-0.0269,-0.0016,0.0096,-54.4500,-24.7500,-37.5000,-9.7947,-0.3974,-0.8236,-0.0037,0.0336,0.0024,52.8000,31.2000,7.6500,-9.7500,-0.8200,0.5700,0.0011,0.0011,0.0011,10.0625,-2.6875,-0.2500,0.5625,-83.8125,4.9375,0
52.272,0.8164,-8.9998,-4.1587,-0.0256,-0.0016,0.0083,-54.4500,-24.7500,-37.5000,-9.7755,-0.3519,-0.7661,-0.0112,0.0314,0.0019,53.4000,30.7500,7.0500,-9.7700,-0.8300,0.5700,0.0011,0.0000,0.0000,10.0625,-2.6875,-0.2500,0.5625,-83.8125,4.9375,0
52.281,0.7949,-9.0022,-4.1013,-0.0248,-0.0011,0.0112,-54.4500,-24.7500,-37.5000,-9.7755,-0.3519,-0.7661,-0.0123,0.0314,-0.0003,52.3500,31.2000,6.4500,-9.7600,-0.8200,0.5700,0.0011,-0.0022,0.0000,10.0625,-2.6875,-0.2500,0.5625,-83.8125,4.9375,0
52.285,0.7949,-9.0022,-4.1013,-0.0232,0.0035,0.0141,-53.7000,-24.7500,-36.7500,-9.7995,-0.2729,-0.8116,-0.0064,0.0333,-0.0027,53.4000,31.5000,8.1000,-9.7600,-0.8200,0.5700,0.0011,-0.0022,0.0000,10.0625,-2.6875,-0.2500,0.5625,-83.8125,4.9375,0
52.293,0.7901,-9.0046,-4.1515,-0.0232,0.0035,0.0141,-54.6000,-24.6000,-36.9000,-9.7827,-0.3974,-0.7685,-0.0064,0.0333,-0.0027,53.7000,31.5000,7.3500,-9.7300,-0.8400,0.5700,0.0000,0.0022,0.0000,10.0625,-2.6875,-0.2500,0.5625,-83.8125,4.9375,0
52.298,0.7614,-9.0477,-4.1707,-0.0232,0.0045,0.0123,-54.6000,-24.6000,-36.9000,-9.7827,-0.3974,-0.7685,-0.0120,0.0272,0.0048,53.7000,31.5000,7.3500,-9.7300,-0.8400,0.5700,-0.0011,-0.0022,0.0000,8.8750,-3.0625,-0.2500,0.5625,-83.8125,4.9375,0
52.303,0.7614,-9.0477,-4.1707,-0.0250,0.0005,0.0085,-53.8500,-25.8000,-36.9000,-9.7995,-0.3400,-0.7829,-0.0120,0.0272,0.0048,53.4000,30.0000,6.0000,-9.7500,-0.8300,0.5800,-0.0011,-0.0022,0.0000,8.8750,-3.0625,-0.2500,0.5625,-83.8125,4.9375,0
52.312,0.7661,-9.0357,-4.1994,-0.0245,-0.0019,0.0112,-53.8500,-25.8000,-36.9000,-9.7803,-0.3256,-0.7446,-0.0117,0.0301,0.0029,53.4000,30.0000,6.0000,-9.7700,-0.8400,0.5800,0.0022,-0.0022,-0.0011,8.8750,-3.0625,-0.2500,0.5625,-83.8125,4.9375,0
52.322,0.7638,-9.0692,-4.1683,-0.0245,-0.0008,0.0099,-53.8500,-24.1500,-36.6000,-9.7707,-0.3543,-0.7901,-0.0115,0.0296,0.0075,53.4000,30.0000,6.0000,-9.7700,-0.8200,0.5500,0.0000,-0.0011,0.0022,8.8750,-3.0625,-0.2500,0.5625,-83.8125,4.9375,0
52.332,0.7733,-9.0046,-4.1731,-0.0272,-0.0013,0.0021,-54.4500,-26.4000,-37.2000,-9.7995,-0.3352,-0.7853,-0.0085,0.0290,-0.0013,52.2000,30.0000,7.8000,-9.7800,-0.8100,0.5600,0.0011,-0.0033,0.0011,8.8750,-3.0625,-0.2500,0.5625,-83.8125,4.9375,0
52.341,0.7733,-9.0597,-4.2018,-0.0272,-0.0013,0.0021,-54.0000,-25.5000,-38.2500,-9.8186,-0.3328,-0.7518,-0.0123,0.0338,-0.0016,55.2000,32.2500,7.8000,-9.7600,-0.8500,0.5700,-0.0022,-0.0011,0.0011,8.8750,-3.0625,-0.2500,0.5625,-83.8125,4.9375,0
52.345,0.7733,-9.0597,-4.2018,-0.0253,0.0027,0.0088,-54.0000,-25.5000,-38.2500,-9.8186,-0.3328,-0.7518,-0.0107,0.0266,0.0029,55.3500,29.4000,6.1500,-9.7600,-0.8500,0.5700,-0.0022,-0.0011,0.0011,8.8750,-3.0625,-0.2500,0.5625,-83.8125,4.9375,0
52.352,0.7302,-8.9783,-4.1180,-0.0218,0.0000,0.0104,-54.0000,-25.5000,-38.2500,-9.8186,-0.3543,-0.7901,-0.0107,0.0266,0.0029,54.0000,30.7500,7.0500,-9.7500,-0.8400,0.5700,-0.0011,-0.0033,0.0011,9.2500,-3.0625,-0.2500,0.5625,-83.8125,4.9375,0
52.362,0.8021,-9.0166,-4.0917,-0.0272,0.0037,0.0120,-53.4000,-25.3500,-36.6000,-9.7923,-0.3879,-0.7494,-0.0115,0.0274,-0.0008,51.9000,30.3000,6.7500,-9.7700,-0.8400,0.5900,0.0000,0.0044,0.0000,9.2500,-3.0625,-0.2500,0.5625,-83.8125,4.9375,0
52.371,0.8164,-9.0261,-4.1875,-0.0301,-0.0016,0.0112,-53.4000,-25.3500,-36.6000,-9.8210,-0.3208,-0.7757,-0.0131,0.0317,0.0051,51.9000,30.3000,6.7500,-9.7700,-0.8400,0.5600,-0.0011,-0.0011,0.0000,9.2500,-3.0625,-0.2500,0.5625,-83.8125,4.9375,0
52.376,0.7494,-9.1004,-4.1827,-0.0301,-0.0016,0.0112,-53.7000,-25.5000,-37.5000,-9.8210,-0.3208,-0.7757,-0.0096,0.0245,0.0043,51.9000,30.3000,6.7500,-9.7700,-0.8400,0.5600,0.0011,-0.0044,0.0011,9.2500,-3.0625,-0.2500,0.5625,-83.8125,4.9375,0
52.383,0.7494,-9.1004,-4.1827,-0.0301,0.0013,0.0107,-53.7000,-25.5000,-37.5000,-9.8019,-0.3615,-0.7494,-0.0064,0.0314,0.0000,51.9000,30.3000,6.7500,-9.7500,-0.8200,0.5600,0.0011,-0.0044,0.0011,9.2500,-3.0625,-0.2500,0.5625,-83.8125,4.9375,0
52.393,0.7949,-9.0190,-4.1659,-0.0285,0.0027,0.0093,-53.7000,-25.5000,-37.5000,-9.7851,-0.3567,-0.7973,-0.0067,0.0320,0.0013,53.7000,30.7500,8.1000,-9.7800,-0.8300,0.5700,0.0000,-0.0022,0.0011,9.2500,-3.0625,-0.2500,0.5625,-83.8125,4.9375,0
52.397,0.7901,-9.0118,-4.1683,-0.0285,0.0027,0.0093,-53.8500,-24.6000,-36.6000,-9.8234,-0.3759,-0.7614,-0.0067,0.0320,0.0013,53.7000,30.7500,8.1000,-9.7800,-0.8300,0.5700,0.0011,0.0000,0.0022,8.8750,-3.3750,-1.0625,0.5625,-83.8125,4.9375,0
52.403,0.7901,-9.0118,-4.1683,-0.0298,0.0032,0.0104,-53.8500,-24.6000,-36.6000,-9.8234,-0.3759,-0.7614,-0.0043,0.0373,-0.0029,54.9000,31.6500,5.8500,-9.7700,-0.8500,0.5800,0.0011,0.0000,0.0022,8.8750,-3.3750,-1.0625,0.5625,-83.8125,4.9375,0
52.412,0.8068,-9.0070,-4.1803,-0.0282,-0.0013,0.0069,-53.2500,-24.7500,-36.7500,-9.8043,-0.3472,-0.8212,-0.0141,0.0336,0.0019,51.7500,30.4500,6.9000,-9.7600,-0.8100,0.5600,-0.0022,0.0000,0.0022,8.8750,-3.3750,-1.0625,0.5625,-83.8125,4.9375,0
52.422,0.7542,-8.9807,-4.1875,-0.0205,-0.0019,0.0133,-54.4500,-25.5000,-37.5000,-9.8569,-0.3065,-0.7997,-0.0072,0.0330,0.0029,53.4000,30.3000,6.0000,-9.7700,-0.8100,0.5600,0.0011,-0.0033,0.0033,8.8750,-3.3750,-1.0625,0.5625,-83.8125,4.9375,0
52.432,0.8188,-9.0621,-4.1420,-0.0264,-0.0021,0.0125,-53.7000,-24.4500,-36.4500,-9.8545,-0.3496,-0.7829,-0.0093,0.0317,-0.0061,53.4000,30.3000,7.8000,-9.7400,-0.8300,0.5700,0.0000,-0.0022,0.0011,8.8750,-3.3750,-1.0625,0.5625,-83.8125,4.9375,0
52.442,0.8188,-9.0621,-4.1420,-0.0256,-0.0024,0.0131,-54.7500,-25.5000,-36.4500,-9.8354,-0.3783,-0.7326,-0.0093,0.0314,0.0024,53.4000,30.3000,7.8000,-9.7600,-0.8200,0.5900,0.0011,-0.0022,0.0011,8.8750,-3.3750,-1.0625,0.5625,-83.8125,4.9375,0
52.446,0.7781,-9.0429,-4.1659,-0.0256,-0.0024,0.0131,-55.0500,-26.1000,-36.9000,-9.7971,-0.4142,-0.7446,-0.0093,0.0314,0.0024,53.4000,30.3000,7.8000,-9.7600,-0.8200,0.5900,0.0011,0.0011,0.0011,8.8750,-3.7500,0.8750,0.5625,-83.8125,4.9375,0
52.453,0.7853,-8.9950,-4.1707,-0.0253,0.0040,0.0144,-55.0500,-26.1000,-36.9000,-9.7971,-0.4142,-0.7446,-0.0032,0.0285,0.0024,52.3500,30.9000,7.9500,-9.7600,-0.8300,0.5800,0.0011,0.0011,0.0011,8.8750,-3.7500,0.8750,0.5625,-83.8125,4.9375,0
52.462,0.7805,-9.0070,-4.2138,-0.0226,0.0005,0.0128,-55.0500,-26.1000,-36.9000,-9.8090,-0.3639,-0.7494,-0.0085,0.0309,-0.0019,51.4500,31.0500,7.0500,-9.7700,-0.8100,0.6200,0.0011,0.0022,0.0011,8.8750,-3.7500,0.8750,0.5625,-83.8125,4.9375,0
52.472,0.7973,-9.0237,-4.1659,-0.0253,0.0035,0.0091,-53.8500,-25.8000,-37.6500,-9.8665,-0.3136,-0.8164,-0.0067,0.0240,-0.0005,51.7500,30.4500,7.2000,-9.7500,-0.8200,0.5400,0.0000,0.0000,0.0022,8.8750,-3.7500,0.8750,0.5625,-83.8125,4.9375,0
52.481,0.8404,-9.0884,-4.1946,-0.0237,0.0000,0.0160,-53.8500,-25.8000,-37.6500,-9.7971,-0.3472,-0.7925,-0.0061,0.0389,0.0008,53.4000,30.0000,8.1000,-9.7600,-0.8200,0.5800,0.0011,-0.0033,-0.0011,8.8750,-3.7500,0.8750,0.5625,-83.8125,4.9375,0
52.486,0.8404,-9.0884,-4.1946,-0.0232,0.0013,0.0085,-54.0000,-25.9500,-36.4500,-9.8138,-0.3567,-0.7901,-0.0061,0.0389,0.0008,53.4000,30.0000,8.1000,-9.7600,-0.8200,0.5800,0.0011,-0.0033,-0.0011,8.8750,-3.7500,0.8750,0.5625,-83.8125,4.9375,0
52.493,0.8787,-9.0118,-4.1132,-0.0232,0.0013,0.0085,-54.0000,-25.9500,-36.4500,-9.8138,-0.3567,-0.7901,-0.0131,0.0325,-0.0013,53.4000,30.3000,6.0000,-9.7700,-0.8200,0.5900,0.0011,0.0000,0.0011,8.8750,-3.7500,0.8750,0.5625,-83.8125,4.9375,0
52.498,0.8787,-9.0118,-4.1132,-0.0288,0.0005,0.0085,-53.4000,-24.6000,-36.1500,-9.7995,-0.3663,-0.7781,-0.0101,0.0248,0.0061,53.4000,30.3000,6.0000,-9.7700,-0.8200,0.5900,0.0011,-0.0033,0.0000,9.2500,-3.0625,-0.2500,0.5625,-83.8125,4.9375,0
52.503,0.8212,-9.0333,-4.1803,-0.0288,0.0005,0.0085,-53.4000,-24.6000,-36.1500,-9.7492,-0.3328,-0.8164,-0.0101,0.0248,0.0061,53.4000,30.3000,6.0000,-9.7700,-0.8300,0.5700,0.0011,-0.0033,0.0000,9.2500,-3.0625,-0.2500,0.5625,-83.8125,4.9375,0
52.513,0.7877,-8.9711,-4.1492,-0.0280,-0.0037,0.0091,-55.0500,-25.8000,-36.9000,-9.7492,-0.3328,-0.8164,-0.0093,0.0298,0.0061,53.4000,30.0000,7.0500,-9.7700,-0.8400,0.5700,0.0011,-0.0022,0.0000,9.2500,-3.0625,-0.2500,0.5625,-83.8125,4.9375,0
52.523,0.7278,-9.0453,-4.1659,-0.0211,0.0035,0.0123,-52.6500,-23.8500,-36.1500,-9.8019,-0.3232,-0.8356,-0.0099,0.0298,0.0037,52.9500,30.0000,8.1000,-9.7700,-0.8500,0.5700,0.0000,-0.0022,0.0022,9.2500,-3.0625,-0.2500,0.5625,-83.8125,4.9375,0
52.533,0.7733,-9.0453,-4.1587,-0.0216,-0.0024,0.0093,-54.0000,-24.7500,-36.0000,-9.7947,-0.4166,-0.7733,-0.0093,0.0298,0.0016,54.7500,30.7500,7.8000,-9.7600,-0.8400,0.5700,0.0011,0.0000,-0.0022,9.2500,-3.0625,-0.2500,0.5625,-83.8125,4.9375,0
52.542,0.7997,-9.0692,-4.1803,-0.0224,0.0027,0.0064,-53.7000,-25.5000,-37.9500,-9.8067,-0.3567,-0.8212,-0.0051,0.0352,-0.0048,53.8500,30.4500,6.9000,-9.7700,-0.8300,0.5700,0.0000,0.0022,0.0011,9.2500,-3.0625,-0.2500,0.5625,-83.8125,4.9375,0
52.547,0.8236,-9.0285,-4.1539,-0.0272,0.0013,0.0125,-53.7000,-25.5000,-37.9500,-9.8067,-0.3567,-0.8212,-0.0059,0.0293,0.0021,53.8500,30.4500,6.9000,-9.7700,-0.8300,0.5700,0.0011,0.0022,0.0011,8.8750,-3.0625,-0.6875,0.5625,-83.8125,4.9375,0
52.553,0.8236,-9.0285,-4.1539,-0.0248,-0.0005,0.0168,-53.7000,-25.5000,-37.9500,-9.7923,-0.3879,-0.7638,-0.0059,0.0293,0.0021,53.7000,31.0500,6.0000,-9.7700,-0.8500,0.5700,0.0011,0.0022,0.0011,8.8750,-3.0625,-0.6875,0.5625,-83.8125,4.9375,0
52.563,0.7757,-9.0501,-4.1611,-0.0282,-0.0011,0.0128,-53.2500,-25.5000,-37.5000,-9.7659,-0.3855,-0.8021,-0.0080,0.0330,-0.0029,53.7000,31.0500,6.0000,-9.7600,-0.8500,0.5700,0.0011,-0.0033,0.0000,8.8750,-3.0625,-0.6875,0.5625,-83.8125,4.9375,0
52.573,0.7925,-9.0214,-4.1635,-0.0213,-0.0024,0.0091,-53.2500,-25.5000,-37.5000,-9.7683,-0.3328,-0.8116,-0.0104,0.0314,0.0027,53.7000,31.0500,6.0000,-9.7600,-0.8400,0.5600,0.0000,-0.0022,0.0011,8.8750,-3.0625,-0.6875,0.5625,-83.8125,4.9375,0
52.582,0.7614,-9.0357,-4.1539,-0.0229,0.0027,0.0109,-52.9500,-24.0000,-37.2000,-9.8019,-0.3424,-0.7877,-0.0112,0.0301,0.0085,53.4000,30.7500,6.3000,-9.7700,-0.8300,0.5900,0.0011,-0.0022,0.0022,8.8750,-3.0625,-0.6875,0.5625,-83.8125,4.9375,0
52.591,0.7494,-8.9926,-4.1468,-0.0304,0.0032,0.0104,-52.9500,-24.0000,-37.2000,-9.8019,-0.3783,-0.8380,-0.0093,0.0285,-0.0005,54.4500,28.8000,6.7500,-9.7600,-0.8000,0.6000,0.0000,0.0000,0.0011,8.8750,-3.0625,-0.6875,0.5625,-83.8125,4.9375,0
52.596,0.7757,-9.0549,-4.0941,-0.0304,0.0032,0.0104,-52.5000,-25.9500,-36.7500,-9.8019,-0.3783,-0.8380,-0.0085,0.0269,0.0035,54.4500,28.8000,6.7500,-9.7600,-0.8000,0.6000,0.0000,0.0000,0.0011,9.2500,-3.0625,0.0625,0.5625,-83.8125,4.9375,0
52.603,0.7757,-9.0549,-4.0941,-0.0213,-0.0029,0.0157,-52.5000,-25.9500,-36.7500,-9.8043,-0.3543,-0.7350,-0.0085,0.0269,0.0035,53.1000,30.9000,7.2000,-9.7600,-0.8400,0.5900,0.0022,-0.0011,0.0011,9.2500,-3.0625,0.0625,0.5625,-83.8125,4.9375,0
52.613,0.7374,-9.0309,-4.1970,-0.0269,-0.0005,0.0088,-53.7000,-26.7000,-37.9500,-9.8402,-0.3400,-0.7949,-0.0056,0.0354,0.0037,52.8000,28.9500,7.2000,-9.7500,-0.8300,0.5400,-0.0022,-0.0022,0.0011,9.2500,-3.0625,0.0625,0.5625,-83.8125,4.9375,0
52.623,0.7805,-9.0668,-4.1779,-0.0320,0.0040,0.0093,-52.9500,-24.0000,-35.7000,-9.7827,-0.3543,-0.7566,-0.0080,0.0352,0.0013,53.8500,30.1500,6.9000,-9.7500,-0.8500,0.5800,-0.0011,0.0000,-0.0011,9.2500,-3.0625,0.0625,0.5625,-83.8125,4.9375,0
52.632,0.7853,-9.0381,-4.1372,-0.0211,-0.0053,0.0149,-54.6000,-25.0500,-37.3500,-9.8186,-0.3328,-0.7805,-0.0093,0.0344,0.0011,53.8500,30.1500,6.9000,-9.7900,-0.8300,0.5700,-0.0022,0.0022,-0.0011,9.2500,-3.0625,0.0625,0.5625,-83.8125,4.9375,0
52.642,0.7398,-8.9687,-4.1731,-0.0282,0.0005,0.0152,-52.6500,-25.0500,-36.9000,-9.8378,-0.3639,-0.8643,-0.0101,0.0320,0.0024,53.1000,30.9000,6.1500,-9.7700,-0.8300,0.5700,0.0000,-0.0022,-0.0011,9.2500,-3.0625,0.0625,0.5625,-83.8125,4.9375,0
52.647,0.8116,-9.0190,-4.1707,-0.0282,0.0005,0.0152,-53.2500,-25.9500,-37.2000,-9.8378,-0.3639,-0.8643,-0.0147,0.0280,0.0027,52.6500,31.0500,7.8000,-9.7700,-0.8300,0.5700,-0.0011,0.0000,0.0000,9.2500,-3.3750,-0.2500,0.5625,-83.8125,4.9375,0
52.654,0.7853,-9.0261,-4.1659,-0.0266,-0.0013,0.0093,-53.2500,-25.9500,-37.2000,-9.9216,-0.3280,-0.7853,-0.0117,0.0282,0.0019,52.6500,31.0500,7.8000,-9.7600,-0.8200,0.5900,-0.0011,0.0000,0.0000,9.2500,-3.3750,-0.2500,0.5625,-83.8125,4.9375,0
52.663,0.7949,-8.9807,-4.1587,-0.0232,0.0008,0.0157,-53.2500,-25.9500,-37.2000,-9.8258,-0.3950,-0.7542,-0.0112,0.0306,0.0037,54.3000,30.1500,7.6500,-9.7600,-0.8300,0.5500,0.0011,0.0000,-0.0033,9.2500,-3.3750,-0.2500,0.5625,-83.8125,4.9375,0
52.673,0.8140,-9.0405,-4.1444,-0.0224,0.0008,0.0107,-52.2000,-26.7000,-38.2500,-9.7516,-0.3615,-0.7901,-0.0088,0.0250,-0.0005,52.9500,29.5500,6.0000,-9.7600,-0.8400,0.5900,0.0011,-0.0011,-0.0011,9.2500,-3.3750,-0.2500,0.5625,-83.8125,4.9375,0
52.682,0.7781,-9.0477,-4.1970,-0.0213,0.0008,0.0096,-52.2000,-26.7000,-38.2500,-9.8090,-0.3400,-0.7733,-0.0043,0.0333,0.0016,53.5500,30.9000,7.9500,-9.7700,-0.8300,0.5500,0.0000,-0.0022,0.0000,9.2500,-3.3750,-0.2500,0.5625,-83.8125,4.9375,0
52.692,0.7302,-9.0357,-4.1324,-0.0253,-0.0024,0.0099,-52.6500,-25.3500,-36.6000,-9.7827,-0.3328,-0.7997,-0.0115,0.0328,-0.0029,53.5500,30.9000,7.9500,-9.7700,-0.8300,0.5900,-0.0011,0.0022,0.0011,9.2500,-3.3750,-0.2500,0.5625,-83.8125,4.9375,0
52.696,0.7302,-9.0357,-4.1324,-0.0280,-0.0019,0.0120,-52.6500,-26.1000,-36.1500,-9.7827,-0.3328,-0.7997,-0.0115,0.0328,-0.0029,53.5500,28.9500,6.4500,-9.7700,-0.8300,0.5900,-0.0011,0.0022,0.0011,8.2500,-3.3750,0.0625,0.5625,-83.8125,4.9375,0
52.704,0.8092,-9.0214,-4.2066,-0.0280,-0.0019,0.0120,-52.6500,-26.1000,-36.1500,-9.7372,-0.3855,-0.7853,-0.0099,0.0346,-0.0008,53.5500,28.9500,6.4500,-9.7700,-0.8500,0.5800,0.0011,0.0033,0.0000,8.2500,-3.3750,0.0625,0.5625,-83.8125,4.9375,0
52.713,0.7925,-9.0094,-4.1492,-0.0293,0.0064,0.0128,-52.9500,-25.5000,-36.7500,-9.8426,-0.3256,-0.7470,-0.0075,0.0304,0.0040,53.7000,31.8000,7.3500,-9.7700,-0.8300,0.5900,0.0000,-0.0033,0.0000,8.2500,-3.3750,0.0625,0.5625,-83.8125,4.9375,0
52.723,0.7398,-9.0190,-4.1324,-0.0306,-0.0016,0.0115,-53.8500,-25.8000,-36.6000,-9.8210,-0.3974,-0.7374,-0.0093,0.0266,0.0035,52.8000,30.9000,6.1500,-9.7600,-0.8400,0.5500,-0.0011,-0.0011,-0.0022,8.2500,-3.3750,0.0625,0.5625,-83.8125,4.9375,0
52.733,0.8164,-9.0549,-4.2066,-0.0280,0.0024,0.0123,-54.4500,-25.5000,-36.0000,-9.8043,-0.3831,-0.7446,-0.0123,0.0250,0.0003,53.7000,31.5000,7.0500,-9.7800,-0.8000,0.5900,-0.0011,0.0011,-0.0022,8.2500,-3.3750,0.0625,0.5625,-83.8125,4.9375,0
52.742,0.8140,-8.9998,-4.1492,-0.0229,-0.0005,0.0165,-53.2500,-25.9500,-36.0000,-9.8067,-0.3639,-0.8212,-0.0085,0.0346,0.0005,52.6500,30.3000,7.3500,-9.7500,-0.8300,0.5700,-0.0011,-0.0011,0.0011,8.2500,-3.3750,0.0625,0.5625,-83.8125,4.9375,0
52.747,0.8140,-8.9998,-4.1492,-0.0274,0.0045,0.0155,-53.2500,-25.9500,-36.0000,-9.7612,-0.3855,-0.7326,-0.0085,0.0346,0.0005,52.6500,30.3000,7.3500,-9.7500,-0.8300,0.5700,-0.0011,-0.0011,0.0011,9.2500,-3.7500,1.1875,0.5625,-83.8125,4.9375,0
52.754,0.8092,-8.9998,-4.1420,-0.0274,0.0045,0.0155,-53.2500,-25.9500,-36.0000,-9.7612,-0.3855,-0.7326,-0.0061,0.0338,0.0032,52.6500,30.3000,7.3500,-9.7600,-0.8300,0.5800,0.0000,0.0000,0.0000,9.2500,-3.7500,1.1875,0.5625,-83.8125,4.9375,0
52.763,0.7398,-9.0357,-4.1922,-0.0322,-0.0029,0.0088,-53.4000,-27.0000,-38.1000,-9.8019,-0.3543,-0.8332,-0.0053,0.0293,0.0005,52.6500,30.3000,7.3500,-9.7600,-0.8200,0.5700,-0.0011,0.0022,0.0011,9.2500,-3.7500,1.1875,0.5625,-83.8125,4.9375,0
52.773,0.7901,-9.0668,-4.1492,-0.0261,-0.0011,0.0125,-53.4000,-27.0000,-38.1000,-9.8043,-0.3496,-0.8068,-0.0088,0.0258,-0.0016,52.9500,30.0000,7.0500,-9.7700,-0.8200,0.5400,-0.0011,-0.0011,-0.0011,9.2500,-3.7500,1.1875,0.5625,-83.8125,4.9375,0
52.782,0.7925,-9.0333,-4.1587,-0.0200,-0.0021,0.0117,-53.8500,-25.3500,-36.6000,-9.8641,-0.3926,-0.8140,-0.0083,0.0253,0.0013,52.2000,30.3000,5.7000,-9.7600,-0.8500,0.5500,-0.0011,0.0033,-0.0011,9.2500,-3.7500,1.1875,0.5625,-83.8125,4.9375,0
52.789,0.7829,-9.0549,-4.1899,-0.0237,0.0000,0.0131,-53.8500,-25.3500,-36.6000,-9.7827,-0.3280,-0.8068,-0.0096,0.0298,0.0032,53.5500,30.9000,7.9500,-9.7600,-0.8500,0.5500,0.0011,0.0011,0.0011,9.2500,-3.7500,1.1875,0.5625,-83.8125,4.9375,0
52.795,0.7829,-9.0549,-4.1899,-0.0282,0.0021,0.0109,-53.8500,-25.3500,-36.6000,-9.8378,-0.3591,-0.7709,-0.0096,0.0298,0.0032,53.4000,31.5000,6.0000,-9.7600,-0.8300,0.5700,0.0011,0.0011,0.0011,9.2500,-3.7500,1.1875,0.5625,-83.8125,4.9375,0
52.800,0.7781,-9.0836,-4.1180,-0.0282,0.0021,0.0109,-53.4000,-26.5500,-37.3500,-9.8378,-0.3591,-0.7709,-0.0091,0.0312,0.0024,53.4000,31.5000,6.0000,-9.7500,-0.8200,0.6000,-0.0022,-0.0033,0.0000,8.5625,-3.3750,0.0625,0.5625,-83.8125,4.9375,0
52.805,0.7781,-9.0836,-4.1180,-0.0211,0.0013,0.0112,-53.4000,-26.5500,-37.3500,-9.7995,-0.3256,-0.7446,-0.0091,0.0312,0.0024,53.4000,31.5000,6.0000,-9.7500,-0.8200,0.6000,-0.0022,-0.0033,0.0000,8.5625,-3.3750,0.0625,0.5625,-83.8125,4.9375,0
52.813,0.8284,-8.9902,-4.1587,-0.0282,0.0045,0.0109,-54.6000,-25.8000,-36.1500,-9.8330,-0.3256,-0.7638,-0.0056,0.0322,0.0000,53.4000,31.5000,6.0000,-9.7700,-0.8200,0.5700,-0.0022,-0.0011,-0.0011,8.5625,-3.3750,0.0625,0.5625,-83.8125,4.9375,0
52.823,0.8212,-8.9807,-4.1635,-0.0280,-0.0021,0.0045,-52.6500,-25.3500,-36.6000,-9.8402,-0.3615,-0.7877,-0.0085,0.0322,-0.0043,53.8500,30.4500,6.1500,-9.7600,-0.8400,0.5600,0.0000,0.0000,-0.0011,8.5625,-3.3750,0.0625,0.5625,-83.8125,4.9375,0
