timestamp,thigh_acc_x,thigh_acc_y,thigh_acc_z,thigh_gyro_x,thigh_gyro_y,thigh_gyro_z,thigh_mag_x,thigh_mag_y,thigh_mag_z,shank_acc_x,shank_acc_y,shank_acc_z,shank_gyro_x,shank_gyro_y,shank_gyro_z,shank_mag_x,shank_mag_y,shank_mag_z,foot_acc_x,foot_acc_y,foot_acc_z,foot_gyro_x,foot_gyro_y,foot_gyro_z,foot_mag_x,foot_mag_y,foot_mag_z,foot_euler_x,foot_euler_y,foot_euler_z,perturbation_event
1776973833.248,9.6007,-2.1691,2.0758,1.9556,-0.5068,-0.5516,-69.6000,14.2500,-4.9500,9.5720,3.0287,-0.6440,1.3030,0.9507,0.4104,-58.8000,12.0000,28.8000,-5.9600,-5.6100,-6.9500,0.8967,-0.6687,-3.1623,-2.0000,20.3750,37.5000,255.7500,-7.2500,147.3750,0
1776973833.253,9.8857,-1.6927,2.5235,1.8495,-0.3605,-0.5588,-69.6000,14.2500,-4.9500,10.0580,3.2226,-0.5435,1.4202,0.9619,0.4191,-58.8000,12.0000,28.8000,-5.9600,-5.6100,-6.9500,0.8967,-0.6687,-3.1623,-2.0000,20.3750,37.5000,253.9375,-6.7500,146.6875,0
1776973833.260,11.3150,-2.6264,-0.7063,1.5793,-0.3086,-0.4431,-69.1500,14.2500,-6.7500,9.9479,3.4333,-1.2713,1.6038,0.9038,0.3850,-58.9500,12.1500,27.9000,-5.3300,-10.1100,-7.4400,0.9512,-0.8170,-3.0990,-2.0000,20.3750,37.5000,252.1250,-6.6875,146.1250,0
1776973833.270,9.9024,-3.6655,3.7589,1.9905,-0.1356,-0.1796,-69.7500,14.8500,-7.3500,9.8282,3.8259,-2.1284,1.8604,0.8463,0.3293,-58.6500,12.9000,29.7000,-6.8700,-2.0900,-0.9400,0.6381,-1.7431,-2.7227,-2.0000,20.3750,37.5000,252.1250,-6.6875,146.1250,0
1776973833.275,9.9024,-3.6655,3.7589,1.9905,-0.1356,-0.1796,-69.7500,14.8500,-7.3500,9.8282,3.8259,-2.1284,1.8604,0.8463,0.3293,-58.6500,12.9000,29.7000,-6.8700,-2.0900,-0.9400,0.6381,-1.7431,-2.7227,-2.0000,20.3750,37.5000,250.3750,-7.1250,145.6875,0
1776973833.280,8.7580,-4.2210,2.5379,1.8668,0.0922,0.0962,-70.3500,14.2500,-7.5000,9.7588,4.2928,-2.7270,2.0736,0.8034,0.2587,-58.6500,12.9000,29.7000,-11.5800,-2.6900,-2.8500,0.3109,-2.6322,-2.4238,-4.7500,21.1875,35.0625,250.3750,-7.1250,145.6875,0
1776973833.285,8.7580,-4.2210,2.5379,1.8668,0.0922,0.0962,-70.3500,14.2500,-7.5000,9.7588,4.2928,-2.7270,2.0736,0.8034,0.2587,-58.6500,12.9000,29.7000,-11.5800,-2.6900,-2.8500,0.3109,-2.6322,-2.4238,-4.7500,21.1875,35.0625,248.5625,-7.8750,145.3125,0
1776973833.290,8.3677,-3.8882,3.2801,1.9132,0.2907,0.3443,-69.4500,13.6500,-7.6500,9.7492,4.5394,-2.8730,2.2268,0.8191,0.1919,-58.6500,12.9000,29.7000,-12.7900,-4.4500,-5.4000,0.2302,-3.1678,-2.2351,-4.7500,21.1875,35.0625,248.5625,-7.8750,145.3125,0
1776973833.295,8.3677,-3.8882,3.2801,1.9132,0.2907,0.3443,-69.4500,13.6500,-7.6500,9.7492,4.5394,-2.8730,2.2268,0.8191,0.1919,-59.8500,9.7500,31.9500,-12.7900,-4.4500,-5.4000,0.1385,-3.4688,-2.2657,-4.7500,21.1875,35.0625,246.7500,-8.7500,144.8750,0
1776973833.301,8.5377,-2.8252,2.7749,1.8282,0.4876,0.5159,-70.3500,13.8000,-8.7000,9.4499,4.8052,-2.2529,2.3025,0.7842,0.1545,-59.8500,9.7500,31.9500,-11.6000,-4.4600,-6.6600,0.1385,-3.4688,-2.2657,-4.7500,21.1875,35.0625,244.6875,-9.5625,144.5625,0
1776973833.310,9.6702,-1.4126,1.2306,1.7003,0.5441,0.5129,-69.4500,11.7000,-6.6000,9.5672,4.4843,-0.8811,2.1733,0.8005,0.1807,-59.1000,9.0000,32.4000,-7.8500,-4.4500,-8.3200,-0.0611,-3.5321,-2.5045,-4.7500,21.1875,35.0625,244.6875,-9.5625,144.5625,0
1776973833.320,10.4483,-0.3567,0.3304,1.7171,0.4229,0.3632,-69.4500,11.7000,-6.6000,9.2895,3.4860,0.4190,1.9041,0.9686,0.2806,-59.5500,8.5500,32.4000,-4.9500,-5.5500,-8.8000,-0.2171,-3.4525,-2.7576,-4.7500,21.1875,35.0625,242.5625,-10.2500,144.2500,0
1776973833.325,10.4483,-0.3567,0.3304,1.7171,0.4229,0.3632,-69.4500,11.7000,-6.6000,9.2895,3.4860,0.4190,1.9041,0.9686,0.2806,-59.8500,5.5500,32.4000,-4.9500,-5.5500,-8.8000,-0.2171,-3.4525,-2.7576,-4.7500,21.1875,35.0625,242.5625,-10.2500,144.2500,0
1776973833.330,10.3741,0.4717,0.3783,1.8578,0.1311,0.1178,-71.2500,12.4500,-6.1500,9.2249,2.3870,1.2785,1.6177,1.1868,0.4026,-59.8500,5.5500,32.4000,0.1500,-4.6700,-6.6400,-0.3447,-3.3772,-2.6944,-5.7500,21.7500,35.0625,240.4375,-10.8750,144.0625,0
1776973833.335,10.3741,0.4717,0.3783,1.8578,0.1311,0.1178,-71.2500,12.4500,-6.1500,9.2249,2.3870,1.2785,1.6177,1.1868,0.4026,-59.8500,5.5500,32.4000,0.1500,-4.6700,-6.6400,-0.3447,-3.3772,-2.6944,-5.7500,21.7500,35.0625,240.4375,-10.8750,144.0625,0
1776973833.340,9.7229,0.1772,-0.3089,2.0973,-0.1010,-0.0834,-69.6000,11.4000,-6.7500,9.2009,2.1021,1.7717,1.4418,1.3430,0.4719,-59.8500,5.5500,32.4000,0.9000,-4.0000,-6.3100,-0.5792,-3.4481,-2.2689,-5.7500,21.7500,35.0625,238.5625,-11.6875,143.9375,0
1776973833.347,9.0621,-0.6776,0.1580,2.3222,-0.2241,-0.1980,-69.1500,11.8500,-7.2000,9.1866,2.0758,2.1524,1.0949,1.4781,0.4620,-60.7500,5.7000,34.6500,-0.3900,-3.1400,-7.4000,-0.7832,-3.5725,-1.6777,-5.7500,21.7500,35.0625,236.9375,-12.7500,143.9375,0
1776973833.352,9.0621,-0.6776,0.1580,2.3222,-0.2241,-0.1980,-69.1500,11.8500,-7.2000,9.1866,2.0758,2.1524,1.0949,1.4781,0.4620,-62.7000,7.0500,32.4000,-0.3900,-3.1400,-7.4000,-0.7832,-3.5725,-1.6777,-5.7500,21.7500,35.0625,235.6250,-13.9375,144.1250,0
1776973833.360,9.0309,-1.5634,0.4477,2.2380,-0.1956,-0.2489,-69.0000,10.9500,-8.4000,9.4643,1.5443,1.9776,0.8620,1.4754,0.5252,-62.7000,7.0500,32.4000,-2.6500,-3.4500,-7.8400,-1.0297,-3.5201,-1.1126,-5.7500,21.7500,35.0625,234.6250,-15.3125,144.6250,0
1776973833.370,9.5122,-3.6536,0.8045,1.8775,-0.0368,-0.2537,-70.9500,10.5000,-8.4000,9.8785,1.3216,0.4788,0.7032,1.4141,0.5833,-62.2500,6.9000,32.5500,-6.4900,1.3600,-9.0200,-1.4890,-3.3423,-0.4821,-5.7500,21.7500,35.0625,234.6250,-15.3125,144.6250,0
1776973833.375,9.6534,-4.9991,1.3934,1.4075,0.0096,-0.2886,-70.9500,10.5000,-8.4000,10.0054,0.8116,-1.5179,0.7560,1.4378,0.7312,-63.0000,7.2000,32.8500,-6.4900,1.3600,-9.0200,-1.4890,-3.3423,-0.4821,-2.7500,21.6875,34.2500,234.1875,-16.6250,145.5000,0
1776973833.380,9.6534,-4.9991,1.3934,1.4075,0.0096,-0.2886,-69.6000,11.8500,-7.9500,10.0054,0.8116,-1.5179,0.7560,1.4378,0.7312,-63.0000,7.2000,32.8500,-10.6700,-4.0800,-18.3600,-1.9766,-2.7151,0.2836,-2.7500,21.6875,34.2500,234.1875,-16.6250,145.5000,0
1776973833.385,9.4260,-6.1172,1.8699,0.6587,0.1092,-0.4226,-69.6000,11.8500,-7.9500,10.2328,0.4190,-3.3471,1.1538,1.3965,0.7514,-63.0000,7.2000,32.8500,-10.6700,-4.0800,-18.3600,-1.9766,-2.7151,0.2836,-2.7500,21.6875,34.2500,234.6250,-17.6875,147.1250,0
1776973833.390,9.4260,-6.1172,1.8699,0.6587,0.1092,-0.4226,-69.6000,11.8500,-7.9500,10.2328,0.4190,-3.3471,1.1538,1.3965,0.7514,-63.0000,7.2000,32.8500,-4.5900,-8.3700,-8.1700,-2.6769,-1.2086,1.5632,-2.7500,21.6875,34.2500,234.6250,-17.6875,147.1250,0
1776973833.395,8.7795,-6.3638,2.5211,0.0131,0.2729,-0.5337,-69.6000,11.8500,-7.9500,10.2113,-0.0599,-4.2066,1.5871,1.2167,0.6707,-63.4500,9.7500,27.0000,-4.5900,-8.3700,-8.1700,-2.7096,-0.4571,1.6853,-2.7500,21.6875,34.2500,235.1875,-18.3750,148.8125,0
1776973833.401,8.7795,-6.3638,2.5211,0.0131,0.2729,-0.5337,-70.0500,10.6500,-8.2500,10.2113,-0.0599,-4.2066,1.5871,1.2167,0.6707,-64.8000,11.4000,27.1500,-0.9700,-6.8200,-4.4700,-2.7096,-0.4571,1.6853,-2.7500,21.6875,34.2500,235.8750,-19.1875,150.5625,0
1776973833.410,9.2584,-4.5681,1.5921,-0.8775,0.4501,-0.5311,-70.0500,10.6500,-8.2500,9.3948,-0.4334,-2.2362,1.8375,0.7517,0.6214,-64.8000,11.4000,27.1500,2.0900,-6.9800,-4.3600,-2.7522,-0.6021,1.8882,-2.7500,21.6875,34.2500,236.6875,-20.3125,152.4375,0
1776973833.420,12.3876,-1.6520,-2.7677,-1.9073,0.3890,-0.4471,-70.2000,11.7000,-8.8500,10.0102,-0.7398,-1.9058,1.7027,0.5785,0.6765,-67.2000,10.5000,24.1500,-0.7800,-6.0800,-5.8100,-2.7925,-1.1323,2.2264,-2.7500,21.6875,34.2500,236.6875,-20.3125,152.4375,0
1776973833.425,16.1249,-0.8667,-5.6336,-1.8756,0.2651,-0.1388,-70.2000,11.7000,-8.8500,11.4132,-0.3519,-2.0997,1.3987,0.6312,0.7464,-67.2000,10.5000,24.1500,-0.7800,-6.0800,-5.8100,-2.7925,-1.1323,2.2264,-2.7500,21.6875,34.2500,237.4375,-21.8750,153.8125,0
1776973833.430,16.1249,-0.8667,-5.6336,-1.8756,0.2651,-0.1388,-70.0500,12.6000,-7.9500,11.4132,-0.3519,-2.0997,1.3987,0.6312,0.7464,-65.7000,9.7500,24.4500,-10.9400,6.2500,-15.6400,-2.0802,-1.9973,2.1893,1.5625,18.1875,37.5625,237.4375,-21.8750,153.8125,0
1776973833.435,15.3492,-2.9066,-3.0598,-1.3422,0.2212,0.0187,-70.0500,12.6000,-7.9500,11.7005,0.9888,-1.2857,0.4005,0.4442,0.7392,-65.7000,9.7500,24.4500,-10.9400,6.2500,-15.6400,-2.0802,-1.9973,2.1893,1.5625,18.1875,37.5625,237.7500,-23.2500,154.6250,0
1776973833.440,15.3492,-2.9066,-3.0598,-1.3422,0.2212,0.0187,-70.2000,12.4500,-9.1500,11.7005,0.9888,-1.2857,0.4005,0.4442,0.7392,-65.7000,9.7500,24.4500,-15.7900,3.8500,-18.0000,-1.3984,-2.1468,1.3864,1.5625,18.1875,37.5625,237.7500,-23.2500,154.6250,0
1776973833.448,11.4634,-1.1732,-0.8571,-0.9494,-0.1729,0.1263,-69.6000,14.2500,-9.3000,10.3262,1.5012,-0.6416,-0.3989,0.6853,0.7893,-65.7000,9.7500,24.4500,-8.6700,-2.3500,-11.2900,-0.4363,-0.6981,0.5411,1.5625,18.1875,37.5625,237.9375,-23.7500,154.9375,0
1776973833.453,7.5226,1.8028,-1.4293,-0.7554,-0.0778,0.0472,-69.6000,14.2500,-9.3000,10.5824,1.5083,-2.9928,-0.4455,0.9595,0.7594,-65.2500,5.5500,21.0000,-8.6700,-2.3500,-11.2900,-0.4363,-0.6981,0.5411,1.5625,18.1875,37.5625,238.0625,-24.0000,155.0625,0
1776973833.461,7.2760,3.4333,0.9936,-0.7554,-0.0778,0.0472,-69.6000,14.2500,-9.3000,10.5824,1.5083,-2.9928,-0.4455,0.9595,0.7594,-66.4500,4.0500,21.3000,-1.7000,-4.6800,-7.8600,-0.1767,-0.3960,0.3152,1.5625,18.1875,37.5625,238.1875,-24.5625,155.3125,0
1776973833.470,8.4443,3.3591,-0.1245,-0.3675,0.2699,-0.0693,-69.0000,12.0000,-8.1000,10.2783,1.4557,-4.4460,-0.2705,0.3461,0.7360,-66.1500,1.6500,20.1000,-6.9900,-2.4100,-10.7200,-0.3905,-0.7821,0.5563,1.5625,18.1875,37.5625,238.1875,-24.5625,155.3125,0
1776973833.475,8.4443,3.3591,-0.1245,0.2753,0.8503,-0.1641,-69.0000,12.0000,-8.1000,10.7835,1.6448,0.1652,0.7522,0.4658,0.6416,-66.1500,1.6500,20.1000,-6.9900,-2.4100,-10.7200,-0.3905,-0.7821,0.5563,1.5625,18.1875,37.5625,238.1875,-24.5625,155.3125,0
1776973833.480,9.8545,1.6281,2.6791,0.2753,0.8503,-0.1641,-69.0000,12.0000,-8.1000,10.7835,1.6448,0.1652,0.7522,0.4658,0.6416,-66.7500,3.3000,19.2000,-8.6700,-1.9500,-9.8900,-0.3392,-0.5858,0.4789,6.5000,13.7500,37.1875,238.3750,-24.9375,155.5625,0
1776973833.485,9.8545,1.6281,2.6791,0.9539,0.7509,-0.2300,-69.0000,12.0000,-8.1000,9.7205,2.2889,2.1237,0.7386,0.2422,0.7194,-66.7500,3.3000,19.2000,-8.6700,-1.9500,-9.8900,-0.3392,-0.5858,0.4789,6.5000,13.7500,37.1875,238.3750,-24.9375,155.5625,0
1776973833.490,10.7763,0.2969,3.0478,1.1618,0.4541,-0.0962,-70.2000,13.2000,-7.6500,9.7205,2.2889,2.1237,0.7386,0.2422,0.7194,-66.7500,3.3000,19.2000,-4.3000,-4.2800,-7.8500,-0.1429,-0.3534,0.2073,6.5000,13.7500,37.1875,238.4375,-25.1875,155.6875,0
1776973833.495,10.7763,0.2969,3.0478,1.1618,0.4541,-0.0962,-70.2000,13.2000,-7.6500,8.7269,3.3136,2.4948,0.0797,0.3408,0.6518,-66.7500,3.3000,19.2000,-4.3000,-4.2800,-7.8500,-0.1331,-0.1276,0.1625,6.5000,13.7500,37.1875,238.5000,-25.3125,155.7500,0
1776973833.501,10.9942,0.0072,2.0399,1.3366,0.2177,0.0392,-70.0500,14.2500,-8.7000,8.7460,3.6919,2.8228,-0.2598,0.6563,0.6177,-68.7000,4.6500,18.3000,-4.2800,-3.1300,-8.3600,-0.1331,-0.1276,0.1625,6.5000,13.7500,37.1875,238.5625,-25.4375,155.8125,0
1776973833.510,10.1730,-1.1109,2.0782,1.3272,-0.0512,-0.0043,-70.0500,13.8000,-6.7500,8.7460,3.6919,2.8228,-0.2276,0.9414,0.5812,-68.7000,6.1500,17.8500,-4.3900,-3.6300,-7.8700,-0.0218,-0.1745,0.1604,6.5000,13.7500,37.1875,238.5625,-25.4375,155.8125,0
1776973833.520,9.1363,-2.8730,2.5139,1.0789,-0.1018,-0.0576,-69.6000,13.5000,-9.0000,8.4467,3.0742,2.0949,-0.2403,1.0749,0.5889,-71.7000,7.2000,18.6000,-4.3200,-3.8700,-7.6300,-0.0447,-0.2760,0.1625,6.5000,13.7500,37.1875,238.6250,-25.5625,155.8125,0
1776973833.525,9.1363,-2.8730,2.5139,1.0789,-0.1018,-0.0576,-69.6000,13.5000,-9.0000,8.4467,3.0742,2.0949,-0.2403,1.0749,0.5889,-71.7000,7.2000,18.6000,-4.3200,-3.8700,-7.6300,-0.0447,-0.2760,0.1625,6.5000,13.7500,37.1875,238.6250,-25.7500,155.8750,0
1776973833.530,8.5162,-2.9640,2.1787,0.3147,-0.0533,-0.1090,-70.9500,12.9000,-8.4000,8.6359,2.6073,1.8435,-0.0671,0.6403,0.7386,-70.9500,10.9500,17.8500,-4.3900,-3.6300,-7.8700,-0.1102,-0.2454,0.1604,7.1875,14.0000,38.7500,238.6250,-25.7500,155.8750,0
1776973833.535,8.5162,-2.9640,2.1787,0.3147,-0.0533,-0.1090,-70.9500,12.9000,-8.4000,8.6359,2.6073,1.8435,-0.0671,0.6403,0.7386,-70.9500,10.9500,17.8500,-4.3900,-3.6300,-7.8700,-0.1102,-0.2454,0.1604,7.1875,14.0000,38.7500,238.6875,-25.8750,156.0000,0
1776973833.540,8.3510,-1.2617,0.9840,-0.2595,0.1375,-0.1380,-71.1000,13.5000,-7.2000,8.6886,2.6935,2.7581,0.6430,0.4533,0.8258,-70.9500,10.9500,17.8500,-4.4500,-3.8700,-7.6600,-0.1854,-0.1745,0.1658,7.1875,14.0000,38.7500,238.6875,-25.8750,156.0000,0
1776973833.547,8.3510,-1.2617,0.9840,-0.2595,0.1375,-0.1380,-71.1000,13.5000,-7.2000,8.6886,2.6935,2.7581,0.6430,0.4533,0.8258,-70.9500,10.9500,17.8500,-4.4900,-3.6600,-7.7500,-0.2553,-0.1549,0.1745,7.1875,14.0000,38.7500,238.7500,-26.0000,156.1875,0
1776973833.552,9.3278,1.0534,-0.0838,-0.5164,0.3224,-0.1095,-71.1000,13.5000,-7.2000,9.3398,2.9999,2.6025,1.1831,0.4583,0.8516,-70.9500,10.9500,17.8500,-4.4900,-3.6600,-7.7500,-0.2553,-0.1549,0.1745,7.1875,14.0000,38.7500,238.8125,-26.1250,156.3750,0
1776973833.561,10.0221,2.5953,-0.9888,-0.2454,0.3120,-0.0584,-72.3000,13.0500,-6.7500,9.5577,3.3447,2.0423,1.5535,0.4628,0.8300,-72.1500,11.2500,17.7000,-4.2800,-3.3300,-8.2100,-0.2814,-0.1494,0.1865,7.1875,14.0000,38.7500,238.8125,-26.2500,156.5625,0
1776973833.571,9.8617,2.4110,-0.2466,0.1607,0.2734,-0.0195,-70.3500,13.5000,-7.2000,9.7348,2.7294,1.1109,1.8604,0.5348,0.7623,-72.0000,12.1500,17.8500,-4.8700,-2.7500,-8.4200,-0.2531,-0.1549,0.1920,7.1875,14.0000,38.7500,238.8125,-26.2500,156.5625,0
1776973833.575,9.8617,2.4110,-0.2466,0.1607,0.2734,-0.0195,-70.3500,13.5000,-7.2000,9.7348,2.7294,1.1109,1.8604,0.5348,0.7623,-72.0000,12.1500,17.8500,-4.8700,-2.7500,-8.4200,-0.2531,-0.1549,0.1920,7.1875,14.0000,38.7500,239.3125,-26.3125,156.6875,0
1776973833.581,9.6510,1.9393,0.2753,0.5729,0.1743,0.0040,-70.8000,12.6000,-6.4500,9.9096,2.3655,0.1293,2.0094,0.5420,0.6736,-74.2500,13.2000,17.8500,-4.8400,-2.7300,-8.4200,-0.1898,-0.1200,0.1614,8.2500,12.5000,38.7500,239.3125,-26.3125,156.6875,0
1776973833.585,9.6414,1.9130,0.1508,0.5729,0.1743,0.0040,-70.8000,12.6000,-6.4500,9.9096,2.3655,0.1293,2.0094,0.5420,0.6736,-74.2500,13.2000,17.8500,-4.8400,-2.7300,-8.4200,-0.1898,-0.1200,0.1614,8.2500,12.5000,38.7500,239.3125,-26.3125,156.6875,0
1776973833.590,9.6414,1.9130,0.1508,0.7847,0.2057,0.0123,-71.7000,13.2000,-6.6000,9.8210,1.9800,-0.1269,2.0728,0.6403,0.5923,-74.4000,13.0500,18.7500,-4.5600,-2.8100,-8.4000,-0.1505,-0.0862,0.1287,8.2500,12.5000,38.7500,239.3125,-26.3750,156.8125,0
1776973833.595,9.8976,1.6496,1.3288,0.7847,0.2057,0.0123,-71.7000,13.2000,-6.6000,9.8210,1.9800,-0.1269,2.0728,0.6403,0.5923,-74.4000,13.0500,18.7500,-4.5600,-2.8100,-8.4000,-0.1778,-0.0785,0.1058,8.2500,12.5000,38.7500,239.3750,-26.4375,156.9375,0
1776973833.601,9.8976,1.6496,1.3288,0.8487,0.2686,0.0314,-70.2000,12.9000,-7.6500,9.8641,2.0686,-0.1389,2.0510,0.7061,0.5175,-74.4000,13.0500,18.7500,-4.6000,-3.0900,-8.3300,-0.1778,-0.0785,0.1058,8.2500,12.5000,38.7500,239.3750,-26.5000,157.0625,0
1776973833.611,10.3070,1.0127,1.1205,0.8825,0.2896,0.0485,-69.6000,11.4000,-6.0000,9.7300,2.2075,-0.0886,1.9545,0.7621,0.4674,-73.8000,12.4500,17.5500,-4.5300,-3.3400,-8.1900,-0.2116,-0.0436,0.0905,8.2500,12.5000,38.7500,239.3750,-26.5000,157.0625,0
1776973833.620,10.5010,0.5219,0.7733,0.8471,0.2830,0.0861,-69.6000,11.4000,-6.0000,9.8234,1.8818,0.5746,1.7147,0.8079,0.4367,-73.5000,13.9500,18.6000,-4.2000,-3.4000,-8.1100,-0.2116,-0.0295,0.0862,8.2500,12.5000,38.7500,239.3750,-26.5625,157.1875,0
1776973833.625,10.3884,-0.4549,1.0223,0.6632,0.2667,0.1212,-69.6000,11.4000,-6.0000,9.8234,1.8818,0.5746,1.7147,0.8079,0.4367,-73.5000,13.9500,18.6000,-4.2000,-3.4000,-8.1100,-0.2116,-0.0295,0.0862,8.2500,12.5000,38.7500,239.3750,-26.5625,157.1875,0
1776973833.630,10.3884,-0.4549,1.0223,0.6632,0.2667,0.1212,-70.8000,13.5000,-6.7500,10.0461,1.2857,1.2761,1.4642,0.8298,0.4221,-72.1500,14.2500,19.2000,-4.4200,-3.0800,-8.3500,-0.1909,-0.0611,0.1025,8.6875,11.6875,38.0625,239.8125,-26.6250,157.3125,0
1776973833.635,10.1131,-1.0008,1.0630,0.4892,0.2481,0.1314,-70.8000,13.5000,-6.7500,10.0461,1.2857,1.2761,1.4642,0.8298,0.4221,-72.1500,14.2500,19.2000,-4.4200,-3.0800,-8.3500,-0.1909,-0.0611,0.1025,8.6875,11.6875,38.0625,239.8125,-26.6250,157.3125,0
1776973833.640,10.1131,-1.0008,1.0630,0.4892,0.2481,0.1314,-70.8000,13.5000,-6.7500,9.8761,0.6752,1.5443,1.2297,0.8692,0.3845,-72.1500,10.5000,19.2000,-4.3800,-3.1100,-8.3500,-0.1527,-0.0916,0.1047,8.6875,11.6875,38.0625,239.8125,-26.6875,157.4375,0
1776973833.645,9.7755,-0.8308,1.7980,0.3160,0.2803,0.1474,-70.8000,13.5000,-6.7500,9.8761,0.6752,1.5443,1.2297,0.8692,0.3845,-72.1500,10.5000,19.2000,-4.3800,-3.1100,-8.3500,-0.1145,-0.1145,0.1036,8.6875,11.6875,38.0625,239.8750,-26.7500,157.5000,0
1776973833.651,9.7755,-0.8308,1.7980,0.3160,0.2803,0.1474,-70.2000,13.2000,-6.9000,10.1562,0.3472,1.4198,0.9755,0.9539,0.3387,-72.1500,10.5000,19.2000,-4.5300,-3.0300,-8.3500,-0.1145,-0.1145,0.1036,8.6875,11.6875,38.0625,239.8750,-26.8125,157.5625,0
1776973833.661,10.0413,-0.2658,1.2713,0.1711,0.3395,0.1780,-71.1000,12.6000,-7.2000,10.3453,0.1460,1.5634,0.7344,1.0419,0.2955,-72.0000,8.4000,21.1500,-4.5700,-2.8900,-8.3200,-0.0905,-0.1287,0.0949,8.6875,11.6875,38.0625,239.8750,-26.8125,157.5625,0
1776973833.671,10.5656,-0.0527,1.4246,0.0682,0.3544,0.1721,-71.8500,11.4000,-7.2000,10.2999,0.2897,1.8675,0.6102,1.0285,0.2795,-72.7500,3.4500,19.6500,-4.4000,-2.9800,-8.3800,-0.0524,-0.1342,0.0884,8.6875,11.6875,38.0625,239.8750,-26.9375,157.5625,0
1776973833.676,10.6805,-0.1820,1.8962,0.0040,0.2859,0.1564,-71.8500,11.4000,-7.2000,9.9719,0.5363,2.2098,0.5593,1.0256,0.2771,-72.7500,3.4500,19.6500,-4.4000,-2.9800,-8.3800,-0.0524,-0.1342,0.0884,8.6875,11.6875,38.0625,240.5000,-27.0000,157.6250,0
1776973833.681,10.6805,-0.1820,1.8962,0.0040,0.2859,0.1564,-70.8000,11.8500,-6.7500,9.9719,0.5363,2.2098,0.5593,1.0256,0.2771,-73.2000,2.7000,17.5500,-4.3600,-3.1600,-8.3300,-0.0273,-0.1549,0.0960,8.0000,12.0625,37.0000,240.5000,-27.0000,157.6250,0
1776973833.686,10.5297,-0.3879,1.4102,-0.0016,0.1721,0.1777,-70.8000,11.8500,-6.7500,9.5146,0.3543,1.0558,0.4042,0.7754,0.2681,-72.0000,2.7000,17.5500,-4.3600,-3.1600,-8.3300,-0.0273,-0.1549,0.0960,8.0000,12.0625,37.0000,240.5000,-27.1250,157.6250,0
1776973833.691,10.5297,-0.3879,1.4102,-0.0016,0.1721,0.1777,-70.8000,11.8500,-6.7500,9.5146,0.3543,1.0558,0.4042,0.7754,0.2681,-72.0000,-0.9000,16.2000,-4.5800,-3.0100,-8.4000,0.0011,-0.1745,0.0993,8.0000,12.0625,37.0000,240.5000,-27.1250,157.6250,0
1776973833.696,10.1370,-0.6728,1.1971,-0.0610,0.1463,0.2166,-70.8000,11.8500,-6.7500,9.5936,0.0072,3.3208,0.6784,0.6459,0.3168,-71.7000,-3.1500,14.4000,-4.5800,-3.0100,-8.4000,0.0218,-0.1844,0.0927,8.0000,12.0625,37.0000,240.5625,-27.2500,157.6875,0
1776973833.701,9.8593,-0.8763,0.3519,-0.0610,0.1463,0.2166,-71.8500,11.8500,-5.7000,9.5936,0.0072,3.3208,0.6784,0.6459,0.3168,-71.7000,-3.1500,14.4000,-4.7400,-2.9600,-8.2400,0.0218,-0.1844,0.0927,8.0000,12.0625,37.0000,240.5625,-27.2500,157.6875,0
1776973833.710,9.5265,-0.4788,0.7374,-0.1450,0.1439,0.2313,-71.8500,11.8500,-5.7000,9.8043,0.7829,3.9672,0.9619,0.6475,0.2787,-71.7000,-3.1500,14.4000,-4.7500,-2.9700,-8.1600,0.0185,-0.1745,0.0807,8.0000,12.0625,37.0000,240.6250,-27.3750,157.6875,0
1776973833.715,9.5265,-0.4788,0.7374,-0.1482,0.1948,0.2100,-71.8500,11.8500,-5.7000,9.7540,0.9337,2.3822,0.5713,0.5694,0.2742,-71.7000,-3.1500,14.4000,-4.7500,-2.9700,-8.1600,0.0033,-0.1527,0.0698,8.0000,12.0625,37.0000,240.6250,-27.4375,157.6875,0
1776973833.722,9.4427,0.0407,0.8284,-0.1220,0.2273,0.1948,-73.0500,11.4000,-5.7000,9.7540,0.9337,2.3822,0.5713,0.5694,0.2742,-72.0000,-3.4500,10.0500,-4.6600,-3.0400,-8.1900,0.0033,-0.1527,0.0698,8.0000,12.0625,37.0000,240.6250,-27.4375,157.6875,0
1776973833.726,9.4427,0.0407,0.8284,-0.1220,0.2273,0.1948,-73.0500,11.4000,-5.7000,9.6295,1.0654,1.2737,0.0655,0.5518,0.2931,-71.1000,-4.8000,7.8000,-4.6600,-3.0400,-8.1900,0.0033,-0.1527,0.0698,8.6875,11.5625,37.3750,241.1250,-27.5625,157.7500,0
1776973833.731,9.3757,0.3424,1.0989,-0.0759,0.2545,0.2044,-72.4500,10.9500,-5.1000,9.6295,1.0654,1.2737,0.0655,0.5518,0.2931,-71.1000,-4.8000,7.8000,-4.7400,-2.7700,-8.2200,-0.0022,-0.1364,0.0622,8.6875,11.5625,37.3750,241.1250,-27.5625,157.7500,0
1776973833.736,9.3757,0.3424,1.0989,-0.0759,0.2545,0.2044,-72.4500,10.9500,-5.1000,9.2656,0.9194,0.6369,0.0139,0.4221,0.2958,-70.6500,-4.6500,8.7000,-4.7400,-2.7700,-8.2200,-0.0022,-0.1364,0.0622,8.6875,11.5625,37.3750,241.1875,-27.6250,157.8125,0
1776973833.741,9.4092,0.0814,1.6927,-0.0485,0.2827,0.2057,-72.0000,10.9500,-5.8500,9.2656,0.9194,0.6369,0.0139,0.4221,0.2958,-70.6500,-4.6500,8.7000,-4.7300,-2.7700,-8.1900,0.0273,-0.1200,0.0633,8.6875,11.5625,37.3750,241.1875,-27.6250,157.8125,0
1776973833.746,9.4092,0.0814,1.6927,-0.0485,0.2827,0.2057,-72.0000,10.9500,-5.8500,9.1291,0.8499,0.5674,0.0258,0.3459,0.2896,-70.8000,-6.7500,7.0500,-4.7300,-2.7700,-8.1900,0.0491,-0.1178,0.0567,8.6875,11.5625,37.3750,241.1875,-27.7500,157.8125,0
1776973833.752,9.5409,-0.0168,1.3024,-0.0568,0.2497,0.2161,-71.8500,10.3500,-5.7000,9.1291,0.8499,0.5674,0.0258,0.3459,0.2896,-70.8000,-6.7500,7.0500,-4.6900,-2.7400,-8.2000,0.0491,-0.1178,0.0567,8.6875,11.5625,37.3750,241.1875,-27.7500,157.8125,0
1776973833.761,9.3374,-0.2203,1.1588,-0.0488,0.2214,0.2217,-70.8000,10.6500,-5.2500,9.1818,0.9912,0.7901,0.0842,0.2830,0.3115,-70.8000,-6.7500,7.0500,-4.8000,-3.0100,-7.9800,0.0709,-0.1254,0.0535,8.6875,11.5625,37.3750,241.2500,-27.8125,157.8125,0
1776973833.765,9.3374,-0.2203,1.1588,-0.0488,0.2214,0.2217,-70.8000,10.6500,-5.2500,8.8921,1.1492,1.2139,0.2228,0.2641,0.2982,-71.2500,-7.2000,6.4500,-4.8000,-3.0100,-7.9800,0.0818,-0.1298,0.0545,8.6875,11.5625,37.3750,241.2500,-27.8750,157.8125,0
1776973833.772,8.9950,-0.1939,1.1229,-0.0091,0.2185,0.2214,-71.8500,10.6500,-6.0000,8.8418,0.9768,1.2977,0.3733,0.3925,0.2819,-71.2500,-7.2000,6.4500,-4.7700,-3.0600,-7.9100,0.0818,-0.1298,0.0545,8.6875,11.5625,37.3750,241.2500,-27.8750,157.8125,0
1776973833.777,8.9950,-0.1939,1.1229,-0.0091,0.2185,0.2214,-71.8500,10.6500,-6.0000,8.8418,0.9768,1.2977,0.3733,0.3925,0.2819,-71.8500,-5.2500,6.0000,-4.7700,-3.0600,-7.9100,0.0676,-0.1069,0.0502,9.0000,11.5625,37.7500,241.7500,-28.0000,157.7500,0
1776973833.782,8.9376,0.1556,1.2450,0.0706,0.2451,0.2356,-71.8500,10.6500,-6.0000,8.9878,0.9002,1.2833,0.4266,0.4202,0.2817,-71.8500,-5.2500,6.0000,-4.7900,-2.9500,-7.9100,0.0676,-0.1069,0.0502,9.0000,11.5625,37.7500,241.7500,-28.0000,157.7500,0
1776973833.787,8.9376,0.1556,1.2450,0.0706,0.2451,0.2356,-71.8500,10.6500,-6.0000,8.9878,0.9002,1.2833,0.4266,0.4202,0.2817,-72.1500,-6.7500,4.5000,-4.7900,-2.9500,-7.9100,0.0535,-0.0851,0.0447,9.0000,11.5625,37.7500,241.8125,-28.0625,157.7500,0
1776973833.792,9.0932,0.6823,0.9385,0.2081,0.2603,0.2614,-72.0000,10.5000,-4.3500,8.8346,0.8284,1.2282,0.5337,0.3893,0.2755,-72.1500,-6.7500,4.5000,-4.8500,-2.7500,-7.9500,0.0535,-0.0851,0.0447,9.0000,11.5625,37.7500,241.8125,-28.0625,157.7500,0
1776973833.797,9.0932,0.6823,0.9385,0.2081,0.2603,0.2614,-72.0000,10.5000,-4.3500,8.8346,0.8284,1.2282,0.5337,0.3893,0.2755,-70.2000,-5.7000,6.1500,-4.8500,-2.7500,-7.9500,0.0480,-0.0807,0.0327,9.0000,11.5625,37.7500,241.8125,-28.1250,157.7500,0
1776973833.802,9.0644,1.1181,1.2522,0.2939,0.2515,0.3024,-72.6000,11.8500,-4.9500,8.8825,0.9002,1.7693,0.6773,0.2742,0.2923,-70.2000,-5.7000,6.1500,-4.7600,-2.7900,-8.0500,0.0480,-0.0807,0.0327,9.0000,11.5625,37.7500,241.8125,-28.1875,157.7500,0
1776973833.811,9.0764,0.9912,1.7597,0.2521,0.2622,0.3166,-72.9000,10.9500,-5.8500,9.1004,0.8523,2.4038,0.7853,0.2134,0.3056,-72.4500,-6.1500,5.8500,-4.7900,-2.9500,-7.8700,0.0415,-0.0927,0.0229,9.0000,11.5625,37.7500,241.8125,-28.1875,157.7500,0
1776973833.816,9.0764,0.9912,1.7597,0.2521,0.2622,0.3166,-72.9000,10.9500,-5.8500,9.1004,0.8523,2.4038,0.7853,0.2134,0.3056,-72.4500,-6.1500,5.8500,-4.7900,-2.9500,-7.8700,0.0295,-0.0927,0.0153,9.0000,11.5625,37.7500,241.8125,-28.2500,157.7500,0
1776973833.822,9.3470,0.2251,2.1308,0.1721,0.2587,0.3091,-71.7000,10.0500,-4.8000,9.6007,1.0558,2.8371,0.8290,0.1508,0.3059,-72.4500,-6.1500,5.8500,-4.6800,-3.1100,-7.8800,0.0295,-0.0927,0.0153,9.0000,11.5625,37.7500,241.8125,-28.2500,157.7500,0
1776973833.827,9.6007,-1.0798,2.4541,0.1756,0.2489,0.3211,-71.7000,10.0500,-4.8000,9.6007,1.0558,2.8371,0.8290,0.1508,0.3059,-72.4500,-4.6500,6.1500,-4.7700,-3.3300,-7.7500,0.0000,-0.0665,0.0251,9.5000,11.1875,38.1875,242.1875,-28.3125,157.7500,0
1776973833.832,9.6007,-1.0798,2.4541,0.1756,0.2489,0.3211,-72.6000,9.1500,-4.9500,9.0525,0.9792,3.0837,0.7192,0.1511,0.2827,-72.4500,-4.6500,6.1500,-4.7700,-3.3300,-7.7500,0.0000,-0.0665,0.0251,9.5000,11.1875,38.1875,242.1875,-28.3125,157.7500,0
1776973833.837,9.7588,-1.8890,2.3104,0.1178,0.2201,0.3259,-72.6000,9.1500,-4.9500,9.0525,0.9792,3.0837,0.7192,0.1511,0.2827,-73.6500,-6.7500,8.1000,-4.7700,-3.3300,-7.7500,0.0000,-0.0665,0.0251,9.5000,11.1875,38.1875,242.2500,-28.3125,157.8125,0
1776973833.842,9.7588,-1.8890,2.3104,0.1178,0.2201,0.3259,-73.8000,10.3500,-5.2500,8.9495,0.6488,3.0143,0.5273,0.3256,0.2542,-73.6500,-6.7500,8.1000,-4.8000,-3.1700,-7.8000,-0.0305,-0.0295,0.0349,9.5000,11.1875,38.1875,242.2500,-28.3125,157.8125,0
1776973833.847,9.6151,-2.1811,1.9704,0.0442,0.1788,0.3139,-73.8000,10.3500,-5.2500,8.9495,0.6488,3.0143,0.5273,0.3256,0.2542,-72.6000,-6.0000,7.0500,-4.8000,-3.1700,-7.8000,-0.0720,0.0022,0.0404,9.5000,11.1875,38.1875,242.2500,-28.3125,157.8125,0
1776973833.852,9.6151,-2.1811,1.9704,0.0442,0.1788,0.3139,-73.8000,10.3500,-5.2500,9.0381,0.1245,3.2585,0.3949,0.3925,0.2582,-72.6000,-6.0000,7.0500,-4.8500,-2.9900,-7.8900,-0.0720,0.0022,0.0404,9.5000,11.1875,38.1875,242.2500,-28.3125,157.8750,0
1776973833.861,9.2560,-1.8220,2.1356,0.0437,0.1783,0.2707,-73.8000,10.3500,-5.2500,9.3087,0.1748,3.1843,0.3107,0.4418,0.3054,-72.4500,-4.9500,7.2000,-4.8200,-2.8500,-7.9500,-0.0960,0.0251,0.0316,9.5000,11.1875,38.1875,242.2500,-28.3125,158.0000,0
1776973833.871,9.2033,-1.0582,2.1620,0.0661,0.1871,0.2449,-72.6000,10.3500,-4.9500,9.5960,0.3448,3.0765,0.3472,0.4660,0.3459,-72.4500,-4.9500,7.2000,-4.8300,-2.7300,-8.0500,-0.1080,0.0458,0.0175,9.5000,11.1875,38.1875,242.2500,-28.3125,158.0000,0
1776973833.876,9.5241,-0.7446,2.0470,0.0863,0.1993,0.2433,-72.6000,10.3500,-4.9500,9.5960,0.3448,3.0765,0.3472,0.4660,0.3459,-72.6000,-7.5000,8.1000,-4.8300,-2.7300,-8.0500,-0.1080,0.0458,0.0175,9.5000,11.1875,38.1875,242.6250,-28.2500,158.0625,0
1776973833.881,9.5241,-0.7446,2.0470,0.0863,0.1993,0.2433,-72.6000,10.3500,-4.9500,9.2751,0.4812,3.0885,0.4714,0.4266,0.3616,-72.6000,-7.5000,8.1000,-4.8100,-2.8400,-8.0500,-0.1069,0.0545,0.0000,9.0625,11.1875,37.3750,242.6250,-28.2500,158.0625,0
1776973833.886,9.5960,-0.2849,1.9561,0.1108,0.1577,0.2388,-73.3500,9.4500,-5.7000,9.2751,0.4812,3.0885,0.4714,0.4266,0.3616,-72.0000,-5.4000,8.2500,-4.8100,-2.8400,-8.0500,-0.1069,0.0545,0.0000,9.0625,11.1875,37.3750,242.6250,-28.2500,158.1250,0
1776973833.891,9.5960,-0.2849,1.9561,0.1108,0.1577,0.2388,-73.3500,9.4500,-5.7000,9.0142,0.7949,3.0622,0.6262,0.4509,0.3637,-72.0000,-5.4000,8.2500,-4.7700,-2.9400,-8.0400,-0.1025,0.0589,-0.0076,9.0625,11.1875,37.3750,242.6250,-28.2500,158.1250,0
1776973833.896,9.5720,-0.2298,1.8986,0.1031,0.1090,0.2324,-72.3000,9.1500,-4.2000,9.0142,0.7949,3.0622,0.6262,0.4509,0.3637,-73.8000,-9.1500,8.2500,-4.7700,-2.9400,-8.0400,-0.1134,0.0633,-0.0109,9.0625,11.1875,37.3750,242.6250,-28.1875,158.1875,0
1776973833.902,9.5720,-0.2298,1.8986,0.1031,0.1090,0.2324,-72.9000,10.0500,-5.1000,8.9232,1.0870,2.5019,0.3864,0.7967,0.3773,-73.2000,-7.9500,7.6500,-4.7400,-3.0300,-8.0000,-0.1134,0.0633,-0.0109,9.0625,11.1875,37.3750,242.6250,-28.1875,158.1875,0
1776973833.911,9.4786,-0.1365,1.9345,0.0975,0.1090,0.2515,-72.9000,10.0500,-5.1000,9.2656,1.2330,1.9489,0.4191,0.5438,0.3717,-73.2000,-7.9500,7.6500,-4.7000,-3.0200,-7.9800,-0.1265,0.0840,-0.0142,9.0625,11.1875,37.3750,242.6250,-28.1875,158.2500,0
1776973833.916,9.7085,0.0407,1.7909,0.0981,0.1351,0.2753,-71.7000,8.5500,-4.0500,9.2656,1.2330,1.9489,0.4191,0.5438,0.3717,-73.2000,-7.9500,7.6500,-4.7000,-3.0200,-7.9800,-0.1385,0.0873,-0.0185,9.0625,11.1875,37.3750,242.5625,-28.1250,158.3125,0
1776973833.922,10.1323,-0.0862,1.4054,0.0981,0.1351,0.2753,-72.9000,9.0000,-5.5500,9.4427,1.0367,1.8340,0.4924,0.3139,0.3746,-73.2000,-7.9500,7.6500,-4.6600,-2.9900,-8.0200,-0.1385,0.0873,-0.0185,9.0625,11.1875,37.3750,242.5625,-28.1250,158.3125,0
1776973833.927,10.1323,-0.0862,1.4054,0.0794,0.1194,0.2758,-72.9000,9.0000,-5.5500,9.7085,0.9744,2.1332,0.4410,0.3219,0.3941,-73.2000,-7.9500,7.6500,-4.6600,-2.9900,-8.0200,-0.1385,0.0873,-0.0185,9.0625,12.0000,37.7500,243.0625,-28.0625,158.4375,0
1776973833.932,10.3142,-0.3328,1.4557,0.0794,0.1194,0.2758,-72.9000,9.0000,-5.5500,9.7085,0.9744,2.1332,0.4410,0.3219,0.3941,-73.5000,-9.1500,7.2000,-4.6100,-3.0000,-8.1400,-0.1494,0.0927,-0.0142,9.0625,12.0000,37.7500,243.0625,-28.0625,158.4375,0
1776973833.937,10.3142,-0.3328,1.4557,0.1572,0.1242,0.2766,-73.3500,8.7000,-4.5000,10.0724,0.9744,2.3176,0.4375,0.3144,0.4130,-73.5000,-9.1500,7.2000,-4.6100,-3.0000,-8.1400,-0.1494,0.0927,-0.0142,9.0625,12.0000,37.7500,243.0625,-28.0000,158.5625,0
1776973833.942,10.4866,-0.1413,0.6943,0.2923,0.1021,0.2923,-73.3500,8.7000,-4.5000,10.0724,0.9744,2.3176,0.4375,0.3144,0.4130,-72.9000,-8.2500,6.7500,-4.5200,-2.9500,-8.2100,-0.1484,0.0905,-0.0098,9.0625,12.0000,37.7500,243.0625,-28.0000,158.5625,0
1776973833.947,10.4866,-0.1413,0.6943,0.2923,0.1021,0.2923,-73.3500,8.7000,-4.5000,10.1490,1.0056,2.3343,0.4706,0.2779,0.4365,-72.9000,-8.2500,6.7500,-4.5200,-2.9500,-8.2100,-0.1353,0.0753,0.0022,9.0625,12.0000,37.7500,243.0625,-28.0000,158.6250,0
1776973833.952,10.2113,-0.1413,1.3886,0.2459,0.1079,0.3216,-72.9000,8.7000,-4.5000,10.1490,1.0056,2.3343,0.4706,0.2779,0.4365,-72.4500,-8.4000,8.7000,-4.5400,-2.8800,-8.3100,-0.1353,0.0753,0.0022,9.0625,12.0000,37.7500,243.0625,-27.9375,158.6875,0
1776973833.961,9.8904,-0.2107,0.7302,0.2896,0.0504,0.3224,-72.9000,9.7500,-5.5500,10.2089,1.0080,2.3918,0.1050,0.6025,0.4684,-73.8000,-9.4500,8.2500,-4.5900,-2.7200,-8.3700,-0.1025,0.0447,0.0076,9.0625,12.0000,37.7500,243.0625,-27.9375,158.7500,0
1776973833.971,9.5553,-0.4238,1.1564,0.3328,0.1034,0.3464,-73.3500,9.4500,-6.4500,9.6462,0.8930,2.1668,0.4567,0.2100,0.4578,-73.8000,-9.4500,8.2500,-4.5700,-2.9200,-8.3200,-0.0556,0.0142,0.0153,9.0625,12.0000,37.7500,243.0625,-27.9375,158.7500,0
1776973833.976,9.5553,-0.4238,1.1564,0.3328,0.1034,0.3464,-73.3500,7.5000,-4.9500,9.8090,0.6369,2.1213,0.4671,0.3187,0.4322,-73.8000,-9.4500,8.2500,-4.5700,-2.9200,-8.3200,-0.0196,-0.0055,0.0196,9.8750,11.5625,36.5625,243.5000,-27.9375,158.7500,0
1776973833.982,9.5624,-0.4860,1.7837,0.2697,0.1359,0.3701,-73.3500,7.5000,-4.9500,9.8090,0.6369,2.1213,0.4671,0.3187,0.4322,-72.9000,-9.0000,8.1000,-4.5900,-2.8200,-8.3000,-0.0196,-0.0055,0.0196,9.8750,11.5625,36.5625,243.5000,-27.9375,158.7500,0
1776973833.991,9.6606,-0.6225,1.7502,0.2020,0.1202,0.3973,-72.4500,8.5500,-5.8500,9.5744,0.3903,2.0016,0.5343,0.3579,0.3970,-74.2500,-9.4500,9.7500,-4.6100,-2.7900,-8.2700,0.0120,-0.0349,0.0284,9.8750,11.5625,36.5625,243.5000,-28.0000,158.7500,0
1776973833.996,9.6606,-0.6225,1.7502,0.2020,0.1202,0.3973,-72.6000,7.9500,-6.4500,9.2009,0.3065,2.1213,0.6062,0.2779,0.3914,-74.2500,-9.4500,9.7500,-4.6100,-2.7900,-8.2700,0.0207,-0.0545,0.0371,9.8750,11.5625,36.5625,243.5625,-28.0000,158.8125,0
1776973834.002,9.5409,-0.9050,1.8723,0.1572,0.0933,0.3981,-72.6000,7.9500,-6.4500,9.2009,0.3065,2.1213,0.6062,0.2779,0.3914,-73.5000,-9.1500,7.9500,-4.6800,-2.8900,-8.1700,0.0207,-0.0545,0.0371,9.8750,11.5625,36.5625,243.5625,-28.0000,158.8125,0
1776973834.011,9.3685,-0.8140,1.9752,0.1274,0.0855,0.3992,-73.6500,7.3500,-3.6000,9.0405,0.3926,2.1811,0.6297,0.2955,0.4002,-74.2500,-9.9000,8.7000,-4.6900,-2.9600,-8.0700,0.0295,-0.0600,0.0393,9.8750,11.5625,36.5625,243.5625,-28.0625,158.8125,0
1776973834.016,9.3685,-0.8140,1.9752,0.1274,0.0855,0.3992,-73.6500,7.3500,-3.6000,9.2416,0.3735,2.1141,0.5676,0.2353,0.4229,-74.2500,-9.9000,8.7000,-4.6900,-2.9600,-8.0700,0.0273,-0.0567,0.0371,9.8750,11.5625,36.5625,243.6250,-28.0625,158.8125,0
1776973834.022,9.5002,0.0646,1.3719,0.1657,0.1100,0.4314,-73.6500,7.3500,-3.6000,9.2416,0.3735,2.1141,0.5676,0.2353,0.4229,-74.2500,-9.9000,8.7000,-4.7000,-2.9500,-8.0200,0.0273,-0.0567,0.0371,9.8750,11.5625,36.5625,243.6250,-28.0625,158.8125,0
1776973834.027,9.5002,0.0646,1.3719,0.1657,0.1100,0.4314,-71.8500,7.5000,-6.0000,9.6438,0.6129,2.1141,0.4117,0.2435,0.4450,-74.2500,-9.9000,8.7000,-4.7000,-2.9500,-8.0200,0.0175,-0.0524,0.0349,9.5000,11.5625,38.8750,244.0625,-28.1250,158.8125,0
1776973834.032,9.7851,0.9433,1.5586,0.1447,0.1284,0.4724,-71.8500,7.5000,-6.0000,9.6438,0.6129,2.1141,0.4117,0.2435,0.4450,-72.9000,-10.5000,8.5500,-4.6700,-2.6600,-8.1600,0.0175,-0.0524,0.0349,9.5000,11.5625,38.8750,244.0625,-28.1250,158.8125,0
1776973834.037,9.8952,0.8859,1.5682,0.1447,0.1284,0.4724,-71.8500,7.5000,-6.0000,9.8378,0.7590,2.2625,0.3208,0.1383,0.4509,-72.9000,-10.5000,8.5500,-4.6700,-2.6600,-8.1600,0.0175,-0.0524,0.0349,9.5000,11.5625,38.8750,244.0625,-28.1875,158.8125,0
1776973834.042,9.8952,0.8859,1.5682,0.1977,0.0767,0.4930,-71.8500,7.5000,-6.0000,9.8378,0.7590,2.2625,0.3208,0.1383,0.4509,-73.6500,-12.0000,8.8500,-4.6200,-2.8000,-8.2300,0.0055,-0.0589,0.0349,9.5000,11.5625,38.8750,244.0625,-28.1875,158.8125,0
1776973834.047,9.8545,0.0766,2.1093,0.1977,0.0767,0.4930,-73.2000,6.6000,-5.1000,9.9551,0.8906,2.4948,0.2017,0.0605,0.4423,-73.6500,-12.0000,8.8500,-4.6200,-2.8000,-8.2300,0.0000,-0.0807,0.0404,9.5000,11.5625,38.8750,244.1250,-28.1875,158.8750,0
1776973834.052,9.8545,0.0766,2.1093,0.2470,0.1031,0.5305,-73.2000,6.6000,-5.1000,10.0940,0.8691,2.7174,0.1039,-0.0120,0.3946,-73.6500,-11.2500,8.8500,-4.5500,-3.0200,-8.2600,0.0000,-0.0807,0.0404,9.5000,11.5625,38.8750,244.1250,-28.1875,158.8750,0
1776973834.061,10.2232,-0.6919,1.8699,0.1809,0.1114,0.5580,-73.0500,6.0000,-3.7500,10.0940,0.8691,2.7174,0.1039,-0.0120,0.3946,-72.9000,-11.2500,10.6500,-4.5300,-2.9900,-8.2900,0.0065,-0.0884,0.0436,9.5000,11.5625,38.8750,244.1250,-28.2500,158.8750,0
1776973834.066,10.3046,-1.2091,1.9824,0.1809,0.1114,0.5580,-73.2000,6.1500,-4.8000,10.0054,0.8380,2.7725,0.0477,-0.0861,0.3440,-72.9000,-11.2500,10.6500,-4.5300,-2.9900,-8.2900,0.0076,-0.1014,0.0502,9.5000,11.5625,38.8750,244.1250,-28.3125,158.8750,0
1776973834.072,10.3046,-1.2091,1.9824,0.1058,0.1002,0.5881,-73.2000,6.1500,-4.8000,9.9000,0.8212,2.8395,0.0498,-0.0962,0.2936,-73.2000,-10.6500,9.0000,-4.5700,-2.9900,-8.2600,0.0076,-0.1014,0.0502,9.5000,11.5625,38.8750,244.1250,-28.3125,158.8750,0
1776973834.077,10.3214,-1.0965,1.7717,0.0965,0.0738,0.6105,-73.0500,5.5500,-4.2000,9.9000,0.8212,2.8395,0.0498,-0.0962,0.2936,-73.2000,-10.6500,9.0000,-4.5700,-2.9900,-8.2600,0.0120,-0.1244,0.0502,10.2500,11.5625,37.0000,244.5625,-28.3750,158.8750,0
1776973834.082,10.3214,-1.0965,1.7717,0.0965,0.0738,0.6105,-73.0500,5.5500,-4.2000,9.9192,0.8835,2.9808,0.0597,-0.0901,0.2702,-73.2000,-10.6500,9.0000,-4.6800,-2.9000,-8.2100,0.0120,-0.1244,0.0502,10.2500,11.5625,37.0000,244.5625,-28.3750,158.8750,0
1776973834.090,10.0413,-0.7685,1.6520,0.0517,0.0322,0.6225,-73.0500,5.5500,-4.2000,9.9192,0.8835,2.9808,0.0597,-0.0901,0.2702,-73.5000,-12.1500,9.0000,-4.6200,-2.6900,-8.3400,0.0240,-0.1407,0.0502,10.2500,11.5625,37.0000,244.5625,-28.4375,158.9375,0
1776973834.095,9.8138,-0.9505,1.7621,0.0517,0.0322,0.6225,-72.0000,6.1500,-3.6000,10.1873,0.7973,2.7414,-0.1596,0.0653,0.2787,-73.5000,-12.1500,9.0000,-4.6200,-2.6900,-8.3400,0.0240,-0.1407,0.0502,10.2500,11.5625,37.0000,244.6250,-28.5625,158.9375,0
1776973834.102,9.8138,-0.9505,1.7621,0.0600,0.0179,0.6179,-72.0000,6.1500,-3.6000,9.6989,0.9290,2.7414,-0.1436,0.0112,0.2934,-74.7000,-11.5500,8.8500,-4.6200,-2.7900,-8.3400,0.0436,-0.1756,0.0545,10.2500,11.5625,37.0000,244.6250,-28.5625,158.9375,0
1776973834.110,9.7276,-1.4916,1.9489,0.0464,0.0381,0.6416,-72.0000,6.1500,-3.6000,9.6989,0.9290,2.7414,-0.0546,0.0365,0.2928,-75.0000,-11.4000,9.3000,-4.6700,-2.8400,-8.3400,0.0731,-0.2225,0.0589,10.2500,11.5625,37.0000,244.6250,-28.6875,158.8750,0
1776973834.115,9.9838,-1.4772,2.1189,-0.0354,0.0440,0.6608,-72.9000,5.4000,-3.6000,9.6893,1.0008,2.5714,-0.0546,0.0365,0.2928,-75.0000,-11.4000,9.3000,-4.6700,-2.8400,-8.3400,0.0731,-0.2225,0.0589,10.2500,11.5625,37.0000,244.6875,-28.8125,158.8750,0
1776973834.122,9.9838,-1.4772,2.1189,-0.0354,0.0440,0.6608,-72.9000,5.4000,-3.6000,9.6151,0.9601,2.4828,-0.1506,0.0645,0.2923,-76.0500,-12.4500,8.7000,-4.7100,-2.7900,-8.2000,0.1091,-0.2520,0.0556,10.2500,11.5625,37.0000,244.6875,-28.8125,158.8750,0
1776973834.127,10.1825,-1.1684,2.3224,-0.0834,0.0163,0.6656,-73.8000,4.0500,-5.2500,9.6151,0.9601,2.4828,-0.1506,0.0645,0.2923,-76.0500,-12.4500,8.7000,-4.7100,-2.7900,-8.2000,0.1091,-0.2520,0.0556,11.0000,10.5000,37.0000,244.9375,-28.9375,158.8125,0
1776973834.132,10.1825,-1.1684,2.3224,-0.0834,0.0163,0.6656,-73.8000,4.0500,-5.2500,9.5744,0.7111,2.5666,-0.0693,0.1207,0.2907,-76.0500,-12.4500,8.7000,-4.7200,-2.7300,-8.3500,0.1265,-0.2738,0.0600,11.0000,10.5000,37.0000,244.9375,-28.9375,158.8125,0
1776973834.137,10.0916,-1.4676,2.0183,-0.0914,-0.0442,0.6776,-73.6500,4.2000,-3.3000,9.5744,0.7111,2.5666,-0.0693,0.1207,0.2907,-76.0500,-12.4500,8.7000,-4.7200,-2.7300,-8.3500,0.1265,-0.2738,0.0600,11.0000,10.5000,37.0000,244.9375,-29.1250,158.7500,0
1776973834.142,10.0916,-1.4676,2.0183,-0.0914,-0.0442,0.6776,-73.6500,4.2000,-3.3000,9.5912,0.4717,2.5139,-0.0962,0.1005,0.2910,-73.2000,-11.4000,9.3000,-4.7400,-2.9600,-8.2500,0.1407,-0.2956,0.0622,11.0000,10.5000,37.0000,244.9375,-29.1250,158.7500,0
1776973834.147,9.7157,-1.4557,1.9513,-0.0706,-0.0512,0.6726,-74.4000,3.4500,-4.3500,9.5912,0.4717,2.5139,-0.0962,0.1005,0.2910,-73.2000,-11.4000,9.3000,-4.7400,-2.9600,-8.2500,0.1538,-0.3240,0.0633,11.0000,10.5000,37.0000,245.0000,-29.2500,158.6250,0
1776973834.153,9.4954,-1.3264,1.5682,-0.0706,-0.0512,0.6726,-74.4000,3.4500,-4.3500,9.5840,0.2011,2.5618,-0.0706,0.0885,0.3086,-73.3500,-12.3000,10.2000,-4.7800,-3.1500,-8.1200,0.1538,-0.3240,0.0633,11.0000,10.5000,37.0000,245.0000,-29.2500,158.6250,0
1776973834.161,9.4954,-1.3264,1.5682,-0.0741,-0.0389,0.6752,-73.0500,2.8500,-4.2000,9.5744,0.2083,2.3296,-0.0043,0.0309,0.3211,-75.1500,-11.2500,9.6000,-4.8600,-2.9500,-8.1500,0.1593,-0.3305,0.0644,11.0000,10.5000,37.0000,245.0000,-29.4375,158.5625,0
1776973834.166,9.5241,-1.3623,1.6209,-0.1095,-0.0269,0.6995,-72.9000,3.4500,-3.3000,9.5744,0.2083,2.3296,-0.0043,0.0309,0.3211,-75.1500,-11.2500,9.6000,-4.8600,-2.9500,-8.1500,0.1680,-0.3414,0.0654,11.0000,10.5000,37.0000,245.0625,-29.6250,158.4375,0
1776973834.173,9.4044,-1.4964,1.1396,-0.1252,-0.0320,0.7125,-72.9000,3.4500,-3.3000,9.1889,0.1724,2.2865,0.0360,0.0402,0.3317,-72.4500,-10.9500,8.7000,-4.8400,-2.7900,-8.1500,0.1680,-0.3414,0.0654,11.0000,10.5000,37.0000,245.0625,-29.6250,158.4375,0
1776973834.177,9.4044,-1.4964,1.1396,-0.1252,-0.0320,0.7125,-72.9000,3.4500,-3.3000,9.1889,0.1724,2.2865,0.0360,0.0402,0.3317,-74.5500,-10.9500,8.7000,-4.8400,-2.7900,-8.1500,0.1669,-0.3534,0.0611,10.2500,11.1875,37.7500,245.4375,-29.8125,158.3750,0
1776973834.182,9.1291,-1.3551,1.3048,-0.1386,-0.0109,0.7131,-72.9000,3.4500,-3.3000,9.0429,0.1197,2.0710,0.0117,0.0935,0.3451,-74.5500,-10.9500,8.7000,-4.8200,-2.9700,-8.0200,0.1669,-0.3534,0.0611,10.2500,11.1875,37.7500,245.4375,-29.8125,158.3750,0
1776973834.191,9.1291,-1.3551,1.3048,-0.1386,-0.0109,0.7131,-72.4500,3.0000,-4.8000,9.1698,0.0599,2.0470,0.0645,-0.0320,0.3589,-74.5500,-10.9500,8.7000,-4.9500,-3.1100,-7.8400,0.1625,-0.3731,0.0567,10.2500,11.1875,37.7500,245.4375,-30.0000,158.2500,0
1776973834.195,9.3254,-0.9912,1.6017,-0.1215,0.0392,0.7216,-72.3000,1.6500,-4.2000,9.1698,0.0599,2.0470,0.0645,-0.0320,0.3589,-74.5500,-10.9500,8.7000,-4.9500,-3.1100,-7.8400,0.1625,-0.3731,0.0567,10.2500,11.1875,37.7500,245.5000,-30.2500,158.1875,0
1776973834.202,10.0748,-0.4932,1.2426,-0.1108,0.0624,0.7882,-72.3000,1.6500,-4.2000,9.8761,0.4022,1.7238,0.1119,-0.0674,0.3539,-73.6500,-10.5000,8.5500,-4.9200,-2.6500,-8.0900,0.1647,-0.3687,0.0578,10.2500,11.1875,37.7500,245.5000,-30.2500,158.1875,0
1776973834.210,10.0748,-0.4932,1.2426,-0.1108,0.0624,0.7882,-73.2000,2.2500,-3.3000,10.5536,0.7302,1.4389,0.1348,-0.1162,0.3400,-75.4500,-12.3000,8.5500,-4.8400,-2.7700,-8.3000,0.1571,-0.3632,0.0567,10.2500,11.1875,37.7500,245.5000,-30.4375,158.0625,0
1776973834.215,10.5943,-0.5363,0.8667,-0.0701,0.0314,0.8306,-73.2000,2.2500,-3.3000,10.5536,0.7302,1.4389,0.1348,-0.1162,0.3400,-75.4500,-12.3000,8.5500,-4.8400,-2.7700,-8.3000,0.1571,-0.3632,0.0567,10.2500,11.1875,37.7500,245.5000,-30.6250,158.0000,0
1776973834.222,10.6805,-0.4980,0.7614,-0.0525,0.0384,0.8599,-72.4500,1.5000,-4.0500,10.7212,0.8763,1.3096,0.1966,-0.1130,0.2992,-73.8000,-12.1500,8.7000,-4.8000,-3.0700,-8.2800,0.1745,-0.3818,0.0556,10.2500,11.1875,37.7500,245.5000,-30.6250,158.0000,0
1776973834.227,10.6805,-0.4980,0.7614,-0.0525,0.0384,0.8599,-72.9000,1.9500,-2.8500,11.1833,0.9792,1.0511,0.1543,-0.0778,0.2411,-75.1500,-12.0000,9.1500,-4.8000,-3.0700,-8.2800,0.1745,-0.3818,0.0556,11.2500,11.1875,37.3750,245.8750,-30.8125,157.8750,0
1776973834.232,10.7284,-0.3807,0.4381,-0.1394,0.0552,0.9169,-72.9000,1.9500,-2.8500,11.1833,0.9792,1.0511,0.1543,-0.0778,0.2411,-75.1500,-12.0000,9.1500,-4.6400,-3.2600,-8.5400,0.2040,-0.4254,0.0644,11.2500,11.1875,37.3750,245.8750,-30.8125,157.8750,0
1776973834.237,10.7284,-0.3807,0.4381,-0.1394,0.0552,0.9169,-72.4500,1.0500,-4.3500,11.1067,0.9625,0.8739,0.1487,-0.1061,0.1498,-75.1500,-12.0000,9.1500,-4.6400,-3.2600,-8.5400,0.2040,-0.4254,0.0644,11.2500,11.1875,37.3750,245.8750,-31.1250,157.6875,0
1776973834.242,10.8074,-0.4764,-0.1413,-0.2475,0.0970,0.9907,-72.4500,1.0500,-4.3500,11.1067,0.9625,0.8739,0.1487,-0.1061,0.1498,-75.1500,-12.0000,9.1500,-4.6200,-3.0900,-8.6800,0.2378,-0.4963,0.0774,11.2500,11.1875,37.3750,245.8750,-31.1250,157.6875,0
1776973834.247,10.8074,-0.4764,-0.1413,-0.2475,0.0970,0.9907,-72.4500,1.0500,-4.3500,11.0253,1.1492,0.1820,0.0746,-0.1495,0.0618,-74.7000,-12.3000,8.5500,-4.6200,-3.0900,-8.6800,0.2923,-0.5880,0.0982,11.2500,11.1875,37.3750,245.9375,-31.4375,157.5000,0
1776973834.253,10.7715,-0.1341,-1.1205,-0.3411,0.0986,1.0616,-72.4500,1.0500,-4.3500,11.0253,1.1492,0.1820,0.0746,-0.1495,0.0618,-74.7000,-12.3000,8.5500,-4.6500,-3.1800,-8.6400,0.2923,-0.5880,0.0982,11.2500,11.1875,37.3750,246.0000,-31.8125,157.2500,0
1776973834.262,10.3094,0.4334,-1.9225,-0.4026,0.1559,1.1370,-73.2000,-0.3000,-2.8500,10.3908,1.3240,-0.1437,0.2017,-0.2579,-0.0258,-73.6500,-12.0000,7.3500,-4.6100,-3.4000,-8.5600,0.3316,-0.6938,0.1222,11.2500,11.1875,37.3750,246.0000,-31.8125,157.2500,0
1776973834.272,10.0413,0.9026,-2.1213,-0.4343,0.2401,1.2369,-73.2000,-0.3000,-2.8500,10.0772,1.5897,-0.8595,0.2483,-0.2968,-0.0927,-73.8000,-13.9500,5.4000,-4.5900,-2.8100,-8.5300,0.3458,-0.8116,0.1658,11.2500,11.1875,37.3750,246.0625,-32.2500,157.0000,0
1776973834.277,10.0413,0.9026,-2.1213,-0.4343,0.2401,1.2369,-71.7000,-1.0500,-3.6000,10.2711,2.1668,-1.6328,0.3094,-0.4999,-0.1823,-74.4000,-14.2500,8.1000,-4.5900,-2.8100,-8.5300,0.3458,-0.8116,0.1658,11.2500,11.1875,37.3750,246.0625,-32.2500,157.0000,0
1776973834.282,10.1227,1.3503,-2.0949,-0.4994,0.3443,1.3691,-71.7000,-1.0500,-3.6000,10.2711,2.1668,-1.6328,0.3094,-0.4999,-0.1823,-74.4000,-14.2500,8.1000,-4.5400,-2.4400,-8.6800,0.3927,-0.9490,0.2094,12.7500,12.0000,36.1875,246.5000,-32.8125,156.6875,0
1776973834.287,10.1227,1.3503,-2.0949,-0.4994,0.3443,1.3691,-72.6000,-2.1000,-2.7000,10.0509,2.6695,-2.6911,0.3714,-0.7895,-0.3115,-74.4000,-14.2500,8.1000,-4.5400,-2.4400,-8.6800,0.3927,-0.9490,0.2094,12.7500,12.0000,36.1875,246.5000,-32.8125,156.6875,0
1776973834.292,10.4770,1.6041,-1.9513,-0.5055,0.4415,1.5415,-72.6000,-2.1000,-2.7000,10.0509,2.6695,-2.6911,0.3714,-0.7895,-0.3115,-74.4000,-14.2500,8.1000,-4.7500,-2.4700,-8.7100,0.4320,-1.1094,0.2520,12.7500,12.0000,36.1875,246.5625,-33.4375,156.3750,0
1776973834.297,11.0205,1.8459,-1.6927,-0.5055,0.4415,1.5415,-72.6000,-3.6000,-1.6500,9.9264,3.2441,-2.4325,0.8314,-1.0070,-0.3930,-74.4000,-14.2500,8.1000,-4.7500,-2.4700,-8.7100,0.4494,-1.2643,0.2913,12.7500,12.0000,36.1875,246.6875,-34.1250,156.0625,0
1776973834.303,11.0205,1.8459,-1.6927,-0.4314,0.5665,1.6811,-72.6000,-3.6000,-1.6500,9.9264,3.2441,-2.4325,0.8314,-1.0070,-0.3930,-74.4000,-14.2500,8.1000,-4.4600,-3.2500,-8.7200,0.4494,-1.2643,0.2913,12.7500,12.0000,36.1875,246.8125,-34.9375,155.6875,0
1776973834.312,11.6574,2.4660,-1.9704,-0.3405,0.6704,1.8469,-73.3500,-4.0500,-2.7000,9.6103,3.9959,-2.4277,1.3017,-1.3272,-0.4565,-73.3500,-16.5000,3.4500,-4.4000,-4.0800,-8.8000,0.4374,-1.4257,0.3534,12.7500,12.0000,36.1875,246.8125,-34.9375,155.6875,0
1776973834.322,12.5313,2.2697,-2.2290,-0.4434,0.7677,1.9676,-73.3500,-4.0500,-2.7000,9.4116,4.5729,-2.9880,1.5404,-1.6369,-0.5367,-73.5000,-14.4000,4.3500,-4.2500,-4.0900,-8.8900,0.4298,-1.6352,0.4472,12.7500,12.0000,36.1875,246.9375,-35.8750,155.3750,0
1776973834.327,13.2471,2.1476,-1.9537,-0.6147,0.8276,2.0342,-72.3000,-5.2500,-1.2000,9.3206,5.0781,-3.6320,1.5612,-1.9585,-0.6539,-73.8000,-15.4500,3.3000,-4.2500,-4.0900,-8.8900,0.4298,-1.6352,0.4472,12.7500,12.0000,36.1875,247.5000,-36.9375,155.0000,0
1776973834.332,13.2471,2.1476,-1.9537,-0.6147,0.8276,2.0342,-72.3000,-5.2500,-1.2000,9.3206,5.0781,-3.6320,1.5612,-1.9585,-0.6539,-73.8000,-15.4500,3.3000,-3.7900,-5.5900,-9.3300,0.4309,-1.8893,0.5727,14.2500,12.6875,35.3750,247.5000,-36.9375,155.0000,0
1776973834.337,13.6134,2.1332,-0.5507,-0.6312,0.8639,2.0677,-72.3000,-5.2500,-1.2000,9.4284,5.3367,-4.5729,1.2468,-2.1333,-0.7853,-72.9000,-15.0000,0.0000,-3.7900,-5.5900,-9.3300,0.4309,-1.8893,0.5727,14.2500,12.6875,35.3750,247.7500,-38.2500,154.6875,0
1776973834.342,13.6134,2.1332,-0.5507,-0.6312,0.8639,2.0677,-72.3000,-5.2500,-1.2000,9.4284,5.3367,-4.5729,1.2468,-2.1333,-0.7853,-72.9000,-15.0000,0.0000,-4.0500,-5.8600,-9.6200,0.3818,-2.2351,0.7625,14.2500,12.6875,35.3750,247.7500,-38.2500,154.6875,0
1776973834.347,13.5081,1.9848,0.4501,-0.6142,0.8569,2.0827,-72.9000,-7.8000,-1.8000,10.2735,4.8052,-4.4532,0.8090,-2.5703,-1.0152,-72.9000,-15.0000,0.0000,-4.0500,-5.8600,-9.6200,0.3076,-2.6605,1.0505,14.2500,12.6875,35.3750,302.7500,-39.8125,154.4375,0
1776973834.353,13.5081,1.9848,0.4501,-0.6142,0.8569,2.0827,-72.9000,-7.8000,-1.8000,10.4627,4.2665,-3.2274,0.2505,-2.7406,-1.3827,-72.9000,-15.0000,0.0000,-4.2200,-5.9000,-9.7000,0.3076,-2.6605,1.0505,14.2500,12.6875,35.3750,300.5000,-41.6875,154.2500,0
1776973834.362,13.3764,1.6257,2.2529,-0.2683,0.7147,2.0885,-70.9500,-6.9000,-0.6000,10.2759,3.1532,-1.2330,-0.0061,-2.6249,-1.5442,-72.9000,-14.2500,-0.3000,-5.3200,-6.3300,-9.6100,0.2182,-3.0641,1.3668,14.2500,12.6875,35.3750,300.5000,-41.6875,154.2500,0
1776973834.372,12.9095,2.5690,3.5506,0.1871,0.5108,2.1011,-71.2500,-10.5000,0.3000,11.0899,1.2689,1.1253,-0.4812,-2.5039,-1.4224,-71.7000,-13.6500,-3.0000,-7.8500,-5.5600,-10.7400,0.0131,-3.3848,1.5981,14.2500,12.6875,35.3750,297.8125,-43.7500,154.2500,0
1776973834.377,12.1769,2.8778,3.6990,0.4309,0.3773,2.1181,-71.5500,-10.3500,1.6500,11.0899,1.2689,1.1253,-0.4812,-2.5039,-1.4224,-72.4500,-12.1500,-3.3000,-7.8500,-5.5600,-10.7400,0.0131,-3.3848,1.5981,14.2500,12.6875,35.3750,297.8125,-43.7500,154.2500,0
1776973834.382,12.1769,2.8778,3.6990,0.4309,0.3773,2.1181,-71.5500,-10.3500,1.6500,12.4810,0.1149,2.6528,-0.8045,-2.5309,-1.3691,-72.4500,-12.1500,-3.3000,-10.9300,-8.0700,-11.2300,-0.1222,-3.6357,1.7682,18.2500,13.0625,33.7500,295.0000,-46.0000,154.3125,0
1776973834.387,10.7284,2.1380,5.4300,0.6150,0.4112,2.1615,-70.5000,-11.7000,1.3500,12.4810,0.1149,2.6528,-0.8045,-2.5309,-1.3691,-71.5500,-13.5000,-3.1500,-10.9300,-8.0700,-11.2300,-0.1222,-3.6357,1.7682,18.2500,13.0625,33.7500,295.0000,-46.0000,154.3125,0
1776973834.392,10.7284,2.1380,5.4300,0.6150,0.4112,2.1615,-70.5000,-11.7000,1.3500,12.4091,1.0367,3.5721,-1.1639,-2.2993,-1.4306,-71.5500,-13.5000,-3.1500,-13.3900,-8.0600,-11.3500,-0.2923,-3.7001,1.9537,18.2500,13.0625,33.7500,292.0625,-48.3125,154.5625,0
1776973834.397,10.0796,-0.0886,6.9216,1.4186,0.5020,2.1282,-70.5000,-11.7000,1.3500,12.4091,1.0367,3.5721,-1.1639,-2.2993,-1.4306,-71.5500,-13.5000,-3.1500,-13.3900,-8.0600,-11.3500,-0.5738,-3.4677,2.0464,18.2500,13.0625,33.7500,289.0625,-50.5625,155.1875,0
1776973834.403,9.7396,-2.4541,7.2832,1.4186,0.5020,2.1282,-69.4500,-12.9000,1.0500,12.5552,1.9872,3.7685,-1.4538,-2.0936,-1.5303,-71.5500,-13.5000,-3.1500,-13.8300,-8.6100,-11.5000,-0.5738,-3.4677,2.0464,18.2500,13.0625,33.7500,286.0000,-52.5625,156.1250,0
1776973834.412,9.3925,-4.3335,7.8673,2.3369,0.4900,2.1189,-69.4500,-12.9000,1.0500,11.9327,2.9760,3.4931,-1.5567,-1.5044,-1.6681,-71.1000,-8.5500,-7.3500,-14.5300,-10.9600,-12.5500,-0.9010,-3.0685,2.0988,18.2500,13.0625,33.7500,286.0000,-52.5625,156.1250,0
1776973834.422,9.2416,-6.3686,7.5537,2.9993,0.6797,2.0976,-68.8500,-15.7500,2.7000,11.6813,2.8946,3.2394,-1.6129,-0.9931,-1.8434,-70.8000,-8.5500,-5.2500,-10.4500,-11.1900,-10.3600,-1.3330,-2.5733,2.0377,18.2500,13.0625,33.7500,282.8125,-54.3125,157.5000,0
1776973834.427,9.2416,-6.3686,7.5537,2.9993,0.6797,2.0976,-68.8500,-15.7500,2.7000,11.6813,2.8946,3.2394,-1.6129,-0.9931,-1.8434,-70.2000,-7.2000,-7.2000,-10.4500,-11.1900,-10.3600,-1.3330,-2.5733,2.0377,18.2500,13.0625,33.7500,282.8125,-54.3125,157.5000,0
1776973834.432,9.4403,-7.8362,7.3670,3.0854,0.7735,2.1456,-69.0000,-15.6000,4.8000,11.7531,2.7845,2.6600,-1.5561,-0.5574,-1.9422,-70.2000,-7.2000,-7.2000,-6.6300,-11.9900,-5.4000,-2.0213,-2.2471,2.0202,25.2500,12.0000,31.0625,279.1875,-55.8750,159.4375,0
1776973834.437,9.4403,-7.8362,7.3670,3.0854,0.7735,2.1456,-67.5000,-15.6000,4.8000,11.7531,2.7845,2.6600,-1.5561,-0.5574,-1.9422,-70.2000,-5.4000,-5.8500,-6.6300,-11.9900,-5.4000,-2.0213,-2.2471,2.0202,25.2500,12.0000,31.0625,279.1875,-55.8750,159.4375,0
1776973834.442,9.0285,-7.9679,8.8466,2.9188,0.9782,2.1663,-67.5000,-17.5500,5.1000,11.7867,2.9760,2.4924,-1.2838,-0.5212,-1.9841,-70.2000,-5.4000,-5.8500,-18.9600,-10.5300,-6.6900,-2.9791,-2.3475,1.6679,25.2500,12.0000,31.0625,274.8750,-57.4375,161.8125,0
1776973834.447,9.0285,-7.9679,8.8466,2.9188,0.9782,2.1663,-67.5000,-17.5500,5.1000,11.7867,2.9760,2.4924,-1.2838,-0.5212,-1.9841,-70.9500,-4.2000,-6.4500,-18.9600,-10.5300,-6.6900,-3.7110,-2.3213,0.5629,25.2500,12.0000,31.0625,270.6250,-58.7500,163.6875,0
1776973834.453,9.0022,-7.4819,7.2903,2.5095,0.9657,2.1061,-69.1500,-18.1500,5.2500,10.9056,3.1340,2.6480,-0.8151,-0.4277,-1.8668,-70.9500,-4.2000,-6.4500,-15.2200,-9.8500,-8.8200,-3.7110,-2.3213,0.5629,25.2500,12.0000,31.0625,267.2500,-59.3750,165.0000,0
1776973834.462,8.8059,-6.2920,6.4548,2.0158,0.9172,1.9705,-68.2500,-17.5500,7.6500,11.3270,3.1603,2.5833,-0.1228,-0.3954,-1.7544,-70.9500,-4.2000,-6.4500,-10.0700,-6.2600,-6.1100,-3.6543,-1.2763,-0.4778,25.2500,12.0000,31.0625,267.2500,-59.3750,165.0000,0
1776973834.472,7.9344,-6.0501,6.7301,1.6587,0.8220,1.8229,-67.6500,-20.4000,8.7000,9.8019,3.8810,3.7565,0.5260,-0.3741,-1.7118,-69.1500,-2.4000,-3.3000,-7.2400,-4.2000,-5.3000,-3.2670,-0.6501,-1.0603,25.2500,12.0000,31.0625,264.6875,-59.5625,165.6875,0
1776973834.477,7.9344,-6.0501,6.7301,1.6587,0.8220,1.8229,-67.6500,-20.4000,8.7000,9.8019,3.8810,3.7565,0.5260,-0.3741,-1.7118,-67.8000,-1.0500,-2.4000,-7.2400,-4.2000,-5.3000,-3.2670,-0.6501,-1.0603,25.2500,12.0000,31.0625,262.6250,-59.6875,166.0625,0
1776973834.482,6.9264,-5.6455,7.5968,1.5180,0.7378,1.6651,-67.6500,-20.4000,8.7000,10.0748,4.1348,3.5530,1.1242,-0.0440,-1.7147,-67.8000,-1.0500,-2.4000,-7.4000,-3.3500,-5.4500,-2.7849,-0.4920,-1.1137,31.5000,6.0625,31.5000,262.6250,-59.6875,166.0625,0
1776973834.487,6.9264,-5.6455,7.5968,1.5180,0.7378,1.6651,-67.6500,-20.4000,8.7000,10.0748,4.1348,3.5530,1.3376,-0.1354,-1.7168,-67.8000,-0.7500,-2.1000,-7.4000,-3.3500,-5.4500,-2.7849,-0.4920,-1.1137,31.5000,6.0625,31.5000,261.1250,-59.7500,166.2500,0
1776973834.492,6.0023,-5.4420,7.2664,1.3134,0.6193,1.5082,-66.0000,-20.7000,9.6000,10.0987,3.5937,0.7853,1.3376,-0.1354,-1.7168,-68.1000,-1.2000,1.9500,-7.3500,-3.4600,-5.4700,-2.2144,-0.3709,-1.0788,31.5000,6.0625,31.5000,261.1250,-59.7500,166.2500,0
1776973834.497,6.0023,-5.4420,7.2664,1.3134,0.6193,1.5082,-66.0000,-20.7000,9.6000,10.1227,3.6536,0.8380,1.6132,-0.0245,-1.7059,-68.1000,-1.2000,1.9500,-7.3500,-3.4600,-5.4700,-1.6842,-0.1145,-1.0352,31.5000,6.0625,31.5000,260.0625,-59.6250,166.1875,0
1776973834.503,5.2050,-5.3846,7.1898,1.1034,0.5945,1.3752,-66.0000,-20.7000,9.6000,10.1227,3.6536,0.8380,1.6132,-0.0245,-1.7059,-68.1000,-1.2000,1.9500,-6.8800,-4.5500,-5.1500,-1.6842,-0.1145,-1.0352,31.5000,6.0625,31.5000,259.3750,-59.3750,166.1250,0
1776973834.512,5.0518,-4.5657,7.1012,0.8228,0.5257,1.1983,-66.1500,-23.2500,10.5000,10.4291,3.4740,0.5411,1.9788,-0.0461,-1.6606,-66.6000,0.1500,5.8500,-5.6000,-4.7600,-4.2700,-1.3690,0.2302,-0.9817,31.5000,6.0625,31.5000,259.3750,-59.3750,166.1250,0
1776973834.522,5.2146,-4.4556,6.2632,0.6350,0.4719,1.0360,-64.8000,-22.2000,10.6500,10.6231,3.2848,1.1540,2.6111,-0.1767,-1.6025,-66.4500,-0.7500,6.7500,-4.3700,-4.7100,-3.4400,-1.3145,0.5476,-0.9141,31.5000,6.0625,31.5000,258.6875,-59.0000,166.1250,0
1776973834.527,5.2074,-4.5729,6.4907,0.6350,0.4719,1.0360,-64.8000,-22.2000,10.6500,10.5967,3.1316,1.8603,3.0835,-0.1892,-1.5170,-66.4500,-0.7500,6.7500,-4.3700,-4.7100,-3.4400,-1.3145,0.5476,-0.9141,31.5000,6.0625,31.5000,257.8750,-58.5000,166.3750,0
1776973834.532,5.2074,-4.5729,6.4907,0.6616,0.3760,0.9084,-65.1000,-23.5500,10.0500,10.5967,3.1316,1.8603,3.0835,-0.1892,-1.5170,-64.6500,-1.8000,7.8000,-3.9100,-3.8900,-3.3300,-1.4094,0.7298,-0.7898,34.0000,1.7500,31.5000,257.8750,-58.5000,166.3750,0
1776973834.537,4.6807,-4.2473,6.5769,0.6616,0.3760,0.9084,-65.1000,-23.5500,10.0500,10.0796,2.9521,2.0734,3.1704,-0.2297,-1.3904,-64.6500,-1.8000,7.8000,-3.9100,-3.8900,-3.3300,-1.4094,0.7298,-0.7898,34.0000,1.7500,31.5000,257.8750,-58.5000,166.3750,0
1776973834.542,4.6807,-4.2473,6.5769,0.7280,0.2425,0.8071,-64.6500,-23.5500,10.8000,10.0796,2.9521,2.0734,3.1704,-0.2297,-1.3904,-63.0000,-4.6500,10.5000,-3.5300,-3.5000,-3.4100,-1.4988,0.8585,-0.6861,34.0000,1.7500,31.5000,256.9375,-57.9375,166.7500,0
1776973834.548,4.2377,-3.9456,5.9089,0.7762,0.0536,0.7051,-64.6500,-23.5500,10.8000,9.3039,2.9377,1.9058,3.0102,-0.3027,-1.1980,-63.0000,-4.6500,10.5000,-3.4600,-2.7300,-3.4600,-1.5021,1.0047,-0.6687,34.0000,1.7500,31.5000,256.0000,-57.3125,167.2500,0
1776973834.553,4.2377,-3.9456,5.9089,0.7762,0.0536,0.7051,-64.6500,-23.5500,10.8000,9.3039,2.9377,1.9058,3.0102,-0.3027,-1.1980,-63.0000,-4.6500,10.5000,-3.4600,-2.7300,-3.4600,-1.5021,1.0047,-0.6687,34.0000,1.7500,31.5000,255.1875,-56.5625,167.6250,0
1776973834.563,3.7637,-3.5769,5.5545,0.7893,-0.1021,0.5545,-63.1500,-23.2500,12.3000,8.6814,3.2250,2.2673,2.9878,-0.0863,-1.0906,-63.0000,-4.6500,10.5000,-2.5400,-2.3300,-2.7400,-1.3788,1.1923,-0.7472,34.0000,1.7500,31.5000,255.1875,-56.5625,167.6250,0
1776973834.573,3.6057,-4.1252,4.8578,0.7957,-0.2174,0.3635,-63.1500,-23.2500,12.3000,9.5050,1.9992,1.9872,2.7006,0.0163,-1.0757,-58.8000,-10.5000,10.6500,-1.0100,-2.2500,-1.8200,-1.1988,1.3712,-0.8738,34.0000,1.7500,31.5000,254.6875,-55.7500,167.8125,0
1776973834.577,3.3136,-4.1563,5.0015,0.8900,-0.3448,0.1695,-63.1500,-23.2500,12.3000,9.7133,0.4381,1.0989,2.3457,0.2904,-1.0682,-58.8000,-10.5000,10.6500,-1.0100,-2.2500,-1.8200,-1.1988,1.3712,-0.8738,34.0000,1.7500,31.5000,254.6875,-55.7500,167.8125,0
1776973834.582,3.3136,-4.1563,5.0015,0.8900,-0.3448,0.1695,-65.5500,-24.6000,12.1500,9.7133,0.4381,1.0989,2.3457,0.2904,-1.0682,-58.0500,-11.5500,9.1500,-0.6700,-2.0700,-1.7500,-1.0287,1.4399,-0.9697,33.1875,0.0000,35.1875,254.3750,-54.8125,167.8750,0
1776973834.587,3.2705,-4.3383,4.5681,0.8868,-0.5281,-0.0506,-65.5500,-24.6000,12.1500,10.0892,0.4621,0.5435,2.0896,0.3930,-1.0627,-58.0500,-11.5500,9.1500,-0.6700,-2.0700,-1.7500,-1.0287,1.4399,-0.9697,33.1875,0.0000,35.1875,254.3750,-54.8125,167.8750,0
1776973834.592,3.2705,-4.3383,4.5681,0.8868,-0.5281,-0.0506,-62.2500,-23.8500,12.4500,10.0892,0.4621,0.5435,2.0896,0.3930,-1.0627,-57.7500,-12.0000,10.6500,-0.3800,-2.0800,-1.7500,-0.8858,1.4573,-1.0723,33.1875,0.0000,35.1875,254.2500,-53.9375,167.7500,0
1776973834.597,3.3806,-4.5322,4.1611,0.9478,-0.6861,-0.2409,-62.2500,-23.8500,12.4500,10.5728,-0.0718,-0.0311,2.0771,0.2161,-1.0813,-57.7500,-12.0000,10.6500,-0.3800,-2.0800,-1.7500,-0.7625,1.4628,-1.1956,33.1875,0.0000,35.1875,254.3750,-53.0000,167.5625,0
1776973834.603,3.3806,-4.5322,4.1611,0.9478,-0.6861,-0.2409,-64.8000,-23.8500,11.8500,10.5728,-0.0718,-0.0311,1.8730,0.0946,-1.1466,-57.9000,-10.6500,9.7500,-0.9800,-2.1300,-2.4700,-0.7625,1.4628,-1.1956,33.1875,0.0000,35.1875,254.6875,-52.0000,167.1875,0
1776973834.613,3.4453,-4.0007,3.9911,1.0256,-0.8029,-0.4072,-64.5000,-22.6500,11.8500,10.2879,-0.4453,-0.0838,1.8730,0.0946,-1.1466,-57.9000,-10.6500,9.7500,-0.8700,-2.2600,-2.5500,-0.6229,1.4955,-1.3581,33.1875,0.0000,35.1875,254.6875,-52.0000,167.1875,0
1776973834.623,3.8595,-3.8690,3.3016,1.0693,-0.9462,-0.5617,-66.1500,-21.6000,12.3000,10.3525,-0.7925,-0.1101,1.5084,-0.3096,-1.2700,-58.8000,-10.0500,7.8000,-0.6400,-2.3300,-2.6600,-0.5203,1.5697,-1.5490,33.1875,0.0000,35.1875,255.3125,-50.9375,166.6250,0
1776973834.628,4.2737,-3.5171,3.4285,1.1572,-1.1032,-0.6947,-66.1500,-21.6000,12.3000,9.5026,-0.3831,0.2011,1.5084,-0.3096,-1.2700,-58.8000,-10.0500,7.8000,-0.6400,-2.3300,-2.6600,-0.5203,1.5697,-1.5490,33.1875,0.0000,35.1875,256.1250,-49.8750,166.0000,0
1776973834.633,4.2090,-3.8403,3.4333,1.1572,-1.1032,-0.6947,-65.1000,-21.6000,12.0000,9.5026,-0.3831,0.2011,1.4554,-0.4727,-1.2955,-60.4500,-9.9000,8.7000,-0.7500,-2.3700,-2.7500,-0.4374,1.6068,-1.7235,30.7500,-0.5625,38.3750,256.1250,-49.8750,166.0000,0
1776973834.638,4.2090,-3.8403,3.4333,1.3118,-1.1956,-0.8132,-65.1000,-21.6000,12.0000,8.7101,-0.5004,0.0934,1.4554,-0.4727,-1.2955,-60.4500,-9.9000,8.7000,-0.7500,-2.3700,-2.7500,-0.4374,1.6068,-1.7235,30.7500,-0.5625,38.3750,257.1250,-48.7500,165.3125,0
1776973834.643,4.1324,-3.9863,3.4836,1.3118,-1.1956,-0.8132,-65.1000,-21.6000,12.0000,8.0206,-0.4812,-0.0335,1.3408,-0.2345,-1.2894,-58.3500,-10.5000,6.3000,-1.0700,-2.3900,-3.2100,-0.3807,1.6013,-1.8795,30.7500,-0.5625,38.3750,257.1250,-48.7500,165.3125,0
1776973834.649,4.1324,-3.9863,3.4836,1.4602,-1.2937,-0.9563,-65.5500,-21.6000,12.0000,8.0206,-0.4812,-0.0335,1.3408,-0.2345,-1.2894,-58.3500,-10.5000,6.3000,-1.5100,-2.4200,-3.6400,-0.3185,1.5970,-2.0399,30.7500,-0.5625,38.3750,258.3125,-47.6250,164.5000,0
1776973834.654,3.8666,-3.8307,3.2657,1.5972,-1.3965,-1.0597,-65.5500,-21.9000,12.4500,7.6016,-0.5818,-0.2322,1.3033,-0.0930,-1.2878,-60.4500,-10.6500,6.9000,-1.5100,-2.4200,-3.6400,-0.3185,1.5970,-2.0399,30.7500,-0.5625,38.3750,259.7500,-46.3750,163.6250,0
1776973834.663,3.7110,-3.6607,3.4022,1.7885,-1.4568,-1.1764,-65.2500,-21.0000,11.8500,7.2664,-0.0694,-0.1077,1.2327,0.1295,-1.2484,-60.4500,-10.6500,6.9000,-1.8600,-2.5800,-4.0600,-0.2422,1.6373,-2.2351,30.7500,-0.5625,38.3750,261.5000,-45.0625,162.6875,0
1776973834.673,3.9313,-3.2848,3.4812,1.9694,-1.5226,-1.3145,-67.6500,-18.9000,12.7500,6.9719,0.3328,-0.0048,1.0800,0.2737,-1.1532,-59.1000,-9.3000,6.7500,-2.2900,-2.8700,-4.2400,-0.1614,1.7257,-2.4456,30.7500,-0.5625,38.3750,261.5000,-45.0625,162.6875,0
1776973834.678,3.9313,-3.2848,3.4812,1.9694,-1.5226,-1.3145,-67.6500,-18.9000,12.7500,6.9719,0.3328,-0.0048,1.0800,0.2737,-1.1532,-59.1000,-9.3000,6.7500,-2.2900,-2.8700,-4.2400,-0.1614,1.7257,-2.4456,30.7500,-0.5625,38.3750,263.5625,-43.6875,161.6875,0
1776973834.683,4.4293,-2.9999,3.3519,2.1583,-1.6214,-1.4677,-67.6500,-18.1500,12.3000,7.4579,0.3615,-0.2035,0.8431,0.4234,-1.1037,-58.3500,-10.5000,6.7500,-1.8900,-2.8000,-3.9000,-0.1102,1.8555,-2.6518,27.8750,0.5000,39.5625,263.5625,-43.6875,161.6875,0
1776973834.688,4.4293,-2.9999,3.3519,2.1583,-1.6214,-1.4677,-67.6500,-18.1500,12.3000,7.4579,0.3615,-0.2035,0.8431,0.4234,-1.1037,-58.3500,-10.5000,6.7500,-1.8900,-2.8000,-3.9000,-0.1102,1.8555,-2.6518,27.8750,0.5000,39.5625,265.8125,-42.1250,160.6875,0
1776973834.693,4.5322,-3.5027,3.5171,2.3454,-1.7094,-1.6038,-67.3500,-18.9000,13.0500,7.9344,0.3400,-0.4238,0.6227,0.5689,-1.0501,-58.8000,-10.5000,6.0000,-1.5400,-2.7600,-3.6800,-0.1080,1.9504,-2.8154,27.8750,0.5000,39.5625,265.8125,-42.1250,160.6875,0
1776973834.698,4.5322,-3.5027,3.5171,2.3454,-1.7094,-1.6038,-67.3500,-18.9000,13.0500,7.9344,0.3400,-0.4238,0.6227,0.5689,-1.0501,-58.8000,-10.5000,6.0000,-1.5400,-2.7600,-3.6800,-0.1113,1.9264,-2.9082,27.8750,0.5000,39.5625,224.2500,-40.5625,159.7500,0
1776973834.704,4.8076,-4.0510,4.3886,2.5394,-1.8298,-1.7299,-67.6500,-17.4000,11.5500,7.6519,0.2179,-0.6081,0.5159,0.3925,-0.9657,-58.6500,-9.4500,5.1000,-2.3600,-2.8800,-4.4600,-0.1113,1.9264,-2.9082,27.8750,0.5000,39.5625,222.7500,-39.0000,158.8125,0
1776973834.713,5.0039,-4.3263,4.6639,2.5482,-1.9196,-1.8178,-67.6500,-17.4000,11.5500,7.6878,0.3591,-0.8188,0.4173,0.4626,-0.8194,-58.8000,-9.3000,6.7500,-2.3800,-2.9600,-4.7200,-0.0742,1.8817,-2.9965,27.8750,0.5000,39.5625,222.7500,-39.0000,158.8125,0
1776973834.723,5.2912,-4.6663,4.7333,2.4070,-2.0262,-1.8778,-70.5000,-16.8000,12.4500,7.5992,0.7087,-1.2905,0.2872,0.5228,-0.6606,-58.8000,-9.3000,6.7500,-2.2900,-2.9400,-4.8500,-0.0142,1.8980,-3.1023,27.8750,0.5000,39.5625,221.1875,-37.3750,157.8750,0
1776973834.728,5.2912,-4.6663,4.7333,2.4070,-2.0262,-1.8778,-70.5000,-16.8000,12.4500,7.5992,0.7087,-1.2905,0.2872,0.5228,-0.6606,-58.8000,-9.3000,6.7500,-2.2900,-2.9400,-4.8500,-0.0142,1.8980,-3.1023,27.8750,0.5000,39.5625,221.1875,-37.3750,157.8750,0
1776973834.733,5.7581,-5.2529,4.9344,2.2516,-2.1197,-1.9649,-70.5000,-16.8000,12.4500,8.0900,0.8404,-1.7669,0.0152,0.8647,-0.5177,-58.6500,-7.9500,6.4500,-2.4100,-2.8200,-5.1300,0.0502,1.9308,-3.1776,24.2500,3.0625,41.0625,219.6250,-35.7500,156.9375,0
1776973834.738,5.7581,-5.2529,4.9344,2.2516,-2.1197,-1.9649,-70.5000,-16.8000,12.4500,8.0900,0.8404,-1.7669,0.0152,0.8647,-0.5177,-58.6500,-7.9500,6.4500,-2.4100,-2.8200,-5.1300,0.0502,1.9308,-3.1776,24.2500,3.0625,41.0625,219.6250,-35.7500,156.9375,0
1776973834.743,5.4779,-5.3510,5.0398,2.0270,-2.1853,-2.0534,-70.3500,-11.8500,10.0500,8.1810,1.1325,-1.6735,-0.2086,1.1783,-0.3635,-58.9500,-8.7000,5.8500,-3.4300,-2.8600,-6.1900,0.1265,1.9482,-3.1841,24.2500,3.0625,41.0625,218.1250,-34.0625,156.0000,0
1776973834.749,6.5003,-6.5553,4.6687,1.7752,-2.3331,-2.1735,-70.3500,-11.8500,10.0500,8.0756,1.0534,-1.8651,-0.1769,0.7104,-0.2681,-59.1000,-7.0500,6.3000,-4.0400,-3.0000,-6.7900,0.1996,1.9984,-3.0958,24.2500,3.0625,41.0625,216.6250,-32.3125,155.1875,0
1776973834.754,6.5003,-6.5553,4.6687,1.7752,-2.3331,-2.1735,-70.0500,-12.3000,9.7500,8.0756,1.0534,-1.8651,-0.1769,0.7104,-0.2681,-59.1000,-7.0500,6.3000,-4.0400,-3.0000,-6.7900,0.1996,1.9984,-3.0958,24.2500,3.0625,41.0625,215.3125,-30.5625,154.4375,0
1776973834.763,6.3446,-7.0485,4.8339,1.3267,-2.2916,-2.2700,-72.3000,-9.1500,8.7000,7.9631,0.8164,-1.1756,-0.4746,1.0720,-0.1663,-60.3000,-7.5000,6.0000,-4.5000,-3.0100,-7.2500,0.2476,2.1118,-2.9169,24.2500,3.0625,41.0625,214.1250,-28.8125,153.8750,0
1776973834.773,7.0749,-7.4053,4.7956,0.8705,-2.4760,-2.3763,-71.8500,-9.4500,7.5000,8.9687,0.9026,-1.3958,-0.5630,1.0341,-0.0490,-60.3000,-7.5000,6.0000,-4.6500,-2.5100,-7.6500,0.2825,2.2646,-2.6573,24.2500,3.0625,41.0625,214.1250,-28.8125,153.8750,0
1776973834.778,7.2329,-7.0413,5.0542,0.3016,-2.4448,-2.4501,-71.8500,-9.4500,7.5000,7.5322,0.7877,-0.3639,-0.5923,0.9068,0.0903,-60.0000,-4.9500,6.9000,-4.6500,-2.5100,-7.6500,0.2825,2.2646,-2.6573,18.2500,7.5000,42.2500,213.1875,-27.0000,153.3750,0
1776973834.783,7.2329,-7.0413,5.0542,0.3016,-2.4448,-2.4501,-71.8500,-9.4500,7.5000,7.5322,0.7877,-0.3639,-0.5923,0.9068,0.0903,-60.0000,-4.9500,6.9000,-4.5100,-2.4000,-7.8100,0.3403,2.4238,-2.3158,18.2500,7.5000,42.2500,213.1875,-27.0000,153.3750,0
1776973834.788,7.2856,-6.6559,4.7357,-0.1740,-2.5026,-2.5636,-71.8500,-9.4500,7.5000,8.0780,0.9792,-0.2586,-0.5345,0.7863,0.2403,-60.6000,-5.2500,7.8000,-4.5100,-2.4000,-7.8100,0.3403,2.4238,-2.3158,18.2500,7.5000,42.2500,212.5000,-25.3125,153.0000,0
1776973834.793,7.2856,-6.6559,4.7357,-0.1740,-2.5026,-2.5636,-74.1000,-6.7500,6.4500,8.0780,0.9792,-0.2586,-0.5345,0.7863,0.2403,-60.6000,-5.2500,7.8000,-4.5200,-2.6300,-8.1400,0.4396,2.5613,-1.8915,18.2500,7.5000,42.2500,212.5000,-25.3125,153.0000,0
1776973834.798,7.1778,-6.1890,4.8578,-0.6821,-2.4749,-2.6969,-74.1000,-6.7500,6.4500,7.9009,0.8164,-0.0910,-0.4293,0.7882,0.4125,-60.0000,-5.4000,8.7000,-4.5200,-2.6300,-8.1400,0.5421,2.6704,-1.4192,18.2500,7.5000,42.2500,212.1250,-23.6250,152.6875,0
1776973834.804,7.1778,-6.1890,4.8578,-0.6821,-2.4749,-2.6969,-74.1000,-6.7500,6.4500,7.9009,0.8164,-0.0910,-0.4293,0.7882,0.4125,-60.0000,-5.4000,8.7000,-4.7000,-3.2100,-8.8500,0.5421,2.6704,-1.4192,18.2500,7.5000,42.2500,212.0625,-22.0000,152.4375,0
1776973834.813,7.3646,-5.6503,4.4029,-1.1724,-2.4320,-2.8432,-73.0500,-4.5000,3.0000,7.9942,0.3136,-0.0742,-0.2553,0.5590,0.5500,-63.9000,-6.3000,8.5500,-4.4500,-3.1800,-8.7300,0.5978,2.7751,-0.9741,18.2500,7.5000,42.2500,212.0625,-22.0000,152.4375,0
1776973834.823,7.5920,-5.0781,4.0318,-1.5183,-2.3286,-2.9751,-74.5500,-3.3000,1.2000,7.5824,0.1317,-0.0263,-0.1010,0.5998,0.6691,-63.9000,-6.3000,8.5500,-4.4600,-3.0800,-8.7100,0.5945,2.8405,-0.5498,18.2500,7.5000,42.2500,212.1875,-20.4375,152.2500,0
1776973834.828,7.8985,-4.9249,3.9768,-1.6870,-2.2817,-3.0886,-74.5500,-3.3000,1.2000,7.8961,-0.1844,0.0527,-0.0322,0.5902,0.8191,-63.9000,-6.3000,8.5500,-4.4600,-3.0800,-8.7100,0.5945,2.8405,-0.5498,18.2500,7.5000,42.2500,212.1875,-20.4375,152.2500,0
1776973834.833,7.8985,-4.9249,3.9768,-1.6870,-2.2817,-3.0886,-73.9500,-0.3000,0.0000,7.8961,-0.1844,0.0527,-0.0322,0.5902,0.8191,-63.9000,-6.3000,8.5500,-4.4900,-3.0500,-8.7100,0.5749,2.8209,-0.0905,12.0625,11.1875,43.0625,212.5625,-19.0625,152.1875,0
1776973834.838,7.9775,-4.9823,3.6583,-1.7328,-2.2036,-3.1946,-73.9500,-0.3000,0.0000,7.4843,-0.0120,-0.2945,0.0144,0.6789,0.9172,-63.9000,-5.2500,8.8500,-4.4900,-3.0500,-8.7100,0.5749,2.8209,-0.0905,12.0625,11.1875,43.0625,212.5625,-19.0625,152.1875,0
1776973834.843,7.9775,-4.9823,3.6583,-1.7328,-2.2036,-3.1946,-73.9500,1.0500,-2.8500,7.4843,-0.0120,-0.2945,0.0144,0.6789,0.9172,-63.9000,-5.2500,8.8500,-5.2200,-3.0600,-9.3800,0.5432,2.7238,0.4189,12.0625,11.1875,43.0625,213.1875,-17.8125,152.1875,0
1776973834.850,7.8458,-4.5921,3.8355,-1.8290,-2.1877,-3.2285,-73.9500,1.0500,-2.8500,7.5106,-0.1939,-0.3376,-0.0634,0.8127,1.0459,-65.2500,-3.7500,9.9000,-5.1900,-3.2500,-9.4400,0.5421,2.6016,0.9250,12.0625,11.1875,43.0625,214.1250,-16.7500,152.2500,0
1776973834.855,8.1427,-4.7022,3.4979,-2.0097,-2.0944,-3.2455,-76.5000,2.1000,-3.0000,7.8195,-0.3831,-0.2849,-0.0935,0.7989,1.1679,-65.2500,-3.7500,9.9000,-5.1900,-3.2500,-9.4400,0.5421,2.6016,0.9250,12.0625,11.1875,43.0625,215.2500,-15.8750,152.3125,0
1776973834.863,8.4180,-4.2042,3.7661,-2.0097,-2.0944,-3.2455,-73.2000,4.6500,-2.8500,7.8195,-0.3831,-0.2849,-0.0935,0.7989,1.1679,-64.9500,-3.3000,9.6000,-4.8900,-3.6400,-9.5600,0.6174,2.4925,1.3177,12.0625,11.1875,43.0625,216.4375,-15.1875,152.2500,0
1776973834.873,9.2033,-4.1204,4.9512,-2.4384,-1.9827,-3.2242,-73.2000,4.6500,-2.8500,8.1283,-0.6752,-0.2921,-0.4655,0.8577,1.3219,-66.4500,-5.5500,10.6500,-7.3600,-3.9400,-11.0000,0.7559,2.3093,1.5413,12.0625,11.1875,43.0625,216.4375,-15.1875,152.2500,0
1776973834.878,9.2033,-4.1204,4.9512,-2.7979,-1.7568,-3.2522,-73.2000,4.6500,-2.8500,8.5688,-0.4549,-0.3687,-0.6912,0.8268,1.4634,-66.4500,-5.5500,10.6500,-7.3600,-3.9400,-11.0000,0.7559,2.3093,1.5413,12.0625,11.1875,43.0625,216.4375,-15.1875,152.2500,0
1776973834.883,10.3573,-3.4405,4.9057,-2.7979,-1.7568,-3.2522,-74.1000,7.9500,-3.7500,8.5688,-0.4549,-0.3687,-0.6912,0.8268,1.4634,-66.4500,-5.5500,10.6500,-6.8300,-4.8800,-12.6200,0.9970,2.1653,1.5850,6.2500,14.0625,42.0625,217.6875,-14.5000,152.0625,0
1776973834.888,10.3573,-3.4405,4.9057,-2.7579,-1.7176,-3.2652,-74.1000,7.9500,-3.7500,9.0740,0.1652,-0.1604,-0.9888,0.6861,1.5471,-65.2500,-3.3000,8.8500,-6.8300,-4.8800,-12.6200,0.9970,2.1653,1.5850,6.2500,14.0625,42.0625,217.6875,-14.5000,152.0625,0
1776973834.893,10.9463,-1.6257,3.9528,-2.7323,-1.5266,-3.1427,-74.5500,9.4500,-6.0000,9.0740,0.1652,-0.1604,-0.9888,0.6861,1.5471,-65.2500,-3.3000,8.8500,-8.8700,-4.8300,-13.5200,1.0505,2.0126,1.4857,6.2500,14.0625,42.0625,218.8750,-13.9375,151.8125,0
1776973834.899,10.9463,-1.6257,3.9528,-2.7323,-1.5266,-3.1427,-74.5500,9.4500,-6.0000,9.1554,0.7638,-0.0790,-1.2324,0.4871,1.5503,-66.6000,-2.7000,9.3000,-8.8700,-4.8300,-13.5200,1.1497,2.0453,1.3515,6.2500,14.0625,42.0625,220.0000,-13.2500,151.4375,0
1776973834.904,11.8752,-0.6512,2.6624,-2.5274,-1.4528,-2.9170,-73.0500,11.1000,-7.2000,9.5600,1.7885,-0.4214,-1.4666,0.3930,1.5300,-66.6000,-2.7000,9.3000,-9.7700,-1.9300,-13.5300,1.1497,2.0453,1.3515,6.2500,14.0625,42.0625,221.0625,-12.5625,151.0625,0
1776973834.914,12.0979,-0.5555,2.2410,-2.0638,-1.4421,-2.6148,-74.1000,11.8500,-7.2000,9.7061,3.1556,-0.7398,-1.6347,0.3235,1.5295,-68.7000,-0.9000,9.7500,-10.2200,-0.3100,-12.8300,1.1323,2.1260,1.2425,6.2500,14.0625,42.0625,222.0625,-11.8750,150.6875,0
1776973834.923,11.7005,-0.7446,2.6360,-1.6566,-1.3592,-2.3028,-73.2000,15.1500,-6.6000,10.3573,4.3958,-0.5076,-1.7355,0.2462,1.5167,-69.3000,-1.8000,10.9500,-10.6100,0.7600,-12.0200,1.2043,2.0977,1.1825,6.2500,14.0625,42.0625,222.0625,-11.8750,150.6875,0
1776973834.928,11.7005,-0.7446,2.6360,-1.6566,-1.3592,-2.3028,-73.2000,15.1500,-6.6000,10.3573,4.3958,-0.5076,-1.7355,0.2462,1.5167,-69.3000,-1.8000,10.9500,-10.6100,0.7600,-12.0200,1.2043,2.0977,1.1825,6.2500,14.0625,42.0625,223.0625,-11.2500,150.1250,0
1776973834.933,11.4826,-0.5578,2.8491,-1.4346,-1.2673,-1.9508,-71.5500,16.2000,-7.2000,11.2911,6.0621,-0.5028,-1.8151,0.3477,1.4682,-69.3000,-1.8000,10.9500,-10.4500,1.7200,-10.9700,1.3646,1.8991,1.1279,2.1875,15.5625,40.8750,223.0625,-11.2500,150.1250,0
1776973834.938,11.4826,-0.5578,2.8491,-1.4346,-1.2673,-1.9508,-71.5500,16.2000,-7.2000,11.2911,6.0621,-0.5028,-1.8151,0.3477,1.4682,-69.9000,-0.9000,11.5500,-10.4500,1.7200,-10.9700,1.3646,1.8991,1.1279,2.1875,15.5625,40.8750,224.0000,-10.8125,149.4375,0
1776973834.943,12.0644,1.8914,4.1779,-1.1935,-1.2297,-1.4882,-71.5500,16.2000,-7.2000,11.6669,7.5106,0.0168,-1.4778,-0.1386,1.3105,-69.9000,-0.9000,11.5500,-5.5900,-9.4800,-12.3100,1.5457,1.6101,1.0559,2.1875,15.5625,40.8750,224.0000,-10.8125,149.4375,0
1776973834.952,11.9231,1.0798,-1.3623,-1.5354,-1.1727,-1.1064,-71.5500,16.2000,-7.2000,11.6669,7.5106,0.0168,-1.5516,0.1998,1.0802,-70.8000,0.7500,10.9500,-8.0700,3.5400,-3.2800,0.8519,0.7690,0.8770,2.1875,15.5625,40.8750,224.6250,-10.6875,149.1250,0
1776973834.957,11.9231,1.0798,-1.3623,-1.5354,-1.1727,-1.1064,-71.8500,18.1500,-9.0000,11.2312,8.9519,-0.8308,-1.5516,0.1998,1.0802,-71.7000,0.1500,15.4500,-8.0700,3.5400,-3.2800,0.8519,0.7690,0.8770,2.1875,15.5625,40.8750,225.2500,-11.5000,149.7500,0
1776973834.964,10.7069,1.0630,0.7805,-0.6520,-1.1431,-0.6885,-70.0500,17.7000,-8.2500,11.0588,9.4451,-0.8428,-1.5087,0.2758,0.9478,-71.7000,0.1500,15.4500,-15.8000,6.8700,-5.1800,-0.9981,-0.9588,1.4355,2.1875,15.5625,40.8750,225.5625,-12.7500,150.3750,0
1776973834.974,9.5768,0.7542,0.7422,-0.1783,-0.9430,-0.2753,-69.6000,19.3500,-9.0000,10.7404,9.4308,-0.9768,-1.2780,0.1471,0.9222,-72.1500,0.0000,14.5500,-16.0800,5.6800,-4.4400,-1.1486,-1.7682,1.2479,2.1875,15.5625,40.8750,225.5625,-12.7500,150.3750,0
1776973834.978,9.5768,0.7542,0.7422,-0.1783,-0.9430,-0.2753,-69.6000,19.3500,-9.0000,10.7404,9.4308,-0.9768,-1.2780,0.1471,0.9222,-73.6500,-0.3000,15.3000,-16.0800,5.6800,-4.4400,-1.1486,-1.7682,1.2479,2.1875,15.5625,40.8750,225.8125,-14.0000,150.8750,0
1776973834.984,8.2145,2.4181,1.2809,0.2883,-0.6936,0.1127,-70.0500,18.1500,-10.0500,10.7476,9.3589,-0.4812,-1.1532,0.4842,0.7504,-73.6500,-0.3000,15.3000,-15.1900,4.5800,-3.4100,-0.9316,-2.0889,1.0407,-1.7500,18.8750,38.5000,225.8125,-14.0000,150.8750,0
1776973834.988,7.7716,3.1388,-0.3280,0.2883,-0.6936,0.1127,-70.0500,18.1500,-10.0500,10.7476,9.3589,-0.4812,-1.1532,0.4842,0.7504,-73.6500,-0.3000,15.3000,-15.1900,4.5800,-3.4100,-0.9316,-2.0889,1.0407,-1.7500,18.8750,38.5000,225.8125,-14.0000,150.8750,0
1776973834.993,7.7716,3.1388,-0.3280,0.4860,-0.3877,0.1966,-69.7500,16.8000,-8.4000,11.2264,8.6335,0.1269,-0.8743,0.9534,0.6899,-73.6500,-0.3000,15.3000,-5.7100,3.7200,-7.5400,-1.0014,-2.6038,0.9665,-1.7500,18.8750,38.5000,225.8750,-15.5625,151.3750,0
1776973834.998,7.7716,3.1388,-0.3280,0.4860,-0.3877,0.1966,-69.7500,16.8000,-8.4000,11.2264,8.6335,0.1269,-0.8743,0.9534,0.6899,-72.9000,-0.7500,18.1500,-5.7100,3.7200,-7.5400,-1.2774,-2.6736,1.1410,-1.7500,18.8750,38.5000,226.0625,-17.1250,152.0625,0
1776973835.004,8.2576,5.5665,0.8164,0.5825,0.2465,-0.1471,-69.6000,18.4500,-8.2500,11.2360,7.6519,-0.7111,-0.4058,0.9254,0.7040,-72.9000,-0.3000,17.1000,-9.1300,-6.9100,-11.6900,-1.2774,-2.6736,1.1410,-1.7500,18.8750,38.5000,226.1875,-18.6875,152.8750,0
1776973835.014,10.5824,12.1913,0.8811,-0.3432,0.4743,-0.5473,-69.6000,18.4500,-8.2500,9.1171,7.8578,-2.0159,-0.0248,0.8031,0.6235,-74.4000,-0.3000,16.3500,-18.6700,-24.8200,-14.2900,-1.5904,-2.5798,1.0930,-1.7500,18.8750,38.5000,226.8750,-20.0625,154.6250,0
1776973835.024,14.0683,13.3189,-0.9601,-0.0735,0.6539,-0.4032,-69.6000,16.9500,-7.2000,12.0859,9.3709,-3.2154,0.0725,1.5559,0.6371,-74.7000,0.3000,17.7000,-10.4200,-4.4300,-9.3700,-2.6584,-1.6995,2.1522,-1.7500,18.8750,38.5000,226.8750,-20.0625,154.6250,0
1776973835.029,18.6891,6.8690,-8.1068,1.9244,0.1500,0.2193,-69.6000,16.9500,-7.2000,12.0859,9.3709,-3.2154,0.0725,1.5559,0.6371,-74.7000,0.3000,17.7000,-10.4200,-4.4300,-9.3700,-2.6584,-1.6995,2.1522,-1.7500,18.8750,38.5000,226.8750,-20.0625,154.6250,0
1776973835.034,18.6891,6.8690,-8.1068,1.9244,0.1500,0.2193,-69.6000,16.9500,-7.2000,15.2894,9.6534,-2.2290,-0.2236,1.2156,1.0264,-74.7000,0.3000,17.7000,-1.5300,13.7700,-11.9400,-2.6736,-0.3567,1.5664,3.6875,17.0625,40.0625,227.4375,-20.6250,156.3750,0
1776973835.039,17.7769,-0.8906,-7.3095,2.9412,-0.7400,0.3677,-69.6000,16.9500,-7.2000,15.2894,9.6534,-2.2290,-0.6384,1.0685,1.2494,-74.7000,0.3000,17.7000,-1.5300,13.7700,-11.9400,-2.6736,-0.3567,1.5664,3.6875,17.0625,40.0625,227.6875,-20.9375,157.3750,0
1776973835.044,17.7769,-0.8906,-7.3095,2.9412,-0.7400,0.3677,-69.6000,18.1500,-7.9500,13.3118,5.9520,-1.6161,-0.6384,1.0685,1.2494,-73.2000,-0.4500,19.3500,-3.8300,0.0900,-12.8800,-1.5904,-0.3502,0.7767,3.6875,17.0625,40.0625,227.8750,-21.4375,158.0625,0
1776973835.053,12.6749,-2.1596,-0.6871,2.9631,-0.7171,0.3627,-69.6000,18.1500,-7.9500,13.7619,2.0590,-1.9704,-0.5540,0.9617,1.1064,-73.8000,-1.9500,19.3500,-5.2500,-6.7600,-9.0000,-1.0679,-0.5989,0.7330,3.6875,17.0625,40.0625,227.8750,-21.4375,158.0625,0
1776973835.063,8.4803,-2.6935,-0.6225,2.4339,-0.3022,0.4402,-69.4500,16.3500,-8.4000,13.3166,0.9864,-2.1500,0.1010,1.1072,0.8223,-74.4000,-2.2500,19.9500,-5.8300,-3.2900,-9.4800,-0.6687,-0.8323,0.6174,3.6875,17.0625,40.0625,228.0625,-22.0000,158.5000,0
1776973835.071,7.2496,-3.8595,-0.9433,1.2910,0.3304,0.3957,-70.8000,18.1500,-7.9500,12.2224,1.6688,-2.4948,1.1746,0.8764,0.7240,-74.4000,-2.2500,19.9500,-6.3600,1.4200,-11.9200,-0.5334,-0.9316,0.5018,3.6875,17.0625,40.0625,228.1875,-22.5625,158.8125,0
1776973835.076,8.3534,-3.7972,-0.1245,-0.1484,0.8892,0.3427,-70.8000,14.5500,-10.0500,12.2224,1.6688,-2.4948,1.1746,0.8764,0.7240,-74.5500,-3.4500,20.7000,-6.3600,1.4200,-11.9200,-0.5334,-0.9316,0.5018,3.6875,17.0625,40.0625,228.1875,-22.5625,158.8125,0
1776973835.081,8.3534,-3.7972,-0.1245,-0.1484,0.8892,0.3427,-70.8000,14.5500,-10.0500,10.2903,2.1644,-2.1811,2.0675,0.4463,0.6009,-74.5500,-3.4500,20.7000,-4.5400,-3.6600,-8.8900,-0.2989,-0.6458,0.3000,5.3750,13.0625,40.3750,228.2500,-22.9375,159.0000,0
1776973835.086,9.7947,-0.7302,0.9242,-1.4373,0.9635,0.2729,-70.8000,14.5500,-10.0500,10.2903,2.1644,-2.1811,2.0675,0.4463,0.6009,-73.8000,-4.2000,19.6500,-4.5400,-3.6600,-8.8900,-0.2989,-0.6458,0.3000,5.3750,13.0625,40.3750,228.2500,-22.9375,159.0000,0
1776973835.090,9.7947,-0.7302,0.9242,-1.4373,0.9635,0.2729,-70.8000,14.5500,-10.0500,8.4132,1.7190,-1.7430,2.3593,0.4226,0.3906,-73.8000,-4.2000,19.6500,-3.7300,-4.6200,-7.8600,-0.0535,-0.3251,0.0916,5.3750,13.0625,40.3750,228.2500,-23.1250,159.0000,0
1776973835.095,10.5273,3.6703,0.2586,-1.9031,0.9513,0.1823,-71.8500,15.0000,-10.0500,8.4132,1.7190,-1.7430,2.3593,0.4226,0.3906,-73.8000,-4.2000,19.6500,-3.7300,-4.6200,-7.8600,-0.0535,-0.3251,0.0916,5.3750,13.0625,40.3750,228.3125,-23.3125,159.0000,0
1776973835.104,9.9862,7.4915,-0.8021,-1.9031,0.9513,0.1823,-71.8500,15.0000,-10.0500,7.9775,1.1157,-1.5179,1.9505,1.0459,0.2534,-73.3500,-8.2500,18.1500,-3.7900,-3.0400,-8.3800,-0.0305,-0.2520,0.0676,5.3750,13.0625,40.3750,228.3125,-23.4375,159.0625,0
1776973835.114,8.6407,9.1626,-1.4269,-1.3355,0.7698,0.3307,-71.8500,15.0000,-10.0500,9.2464,0.5148,-1.5299,1.3137,0.8124,0.1836,-72.6000,-9.0000,18.4500,-3.6700,-4.2900,-7.5200,-0.0491,-0.2891,0.0905,5.3750,13.0625,40.3750,228.3125,-23.4375,159.0625,0
1776973835.124,6.4739,8.7077,-0.6009,0.7927,0.0799,0.4978,-70.9500,16.3500,-7.6500,9.5433,-0.5100,-0.8643,0.4692,1.2713,0.1359,-72.9000,-9.7500,15.9000,-3.8700,-4.3300,-7.5000,-0.0665,-0.4058,0.1254,5.3750,13.0625,40.3750,228.3125,-23.6875,159.0625,0
1776973835.128,6.4739,8.7077,-0.6009,0.7927,0.0799,0.4978,-69.7500,16.8000,-8.4000,7.9033,-1.5921,0.3352,-0.1476,0.7663,0.1156,-72.9000,-9.7500,15.9000,-3.8700,-4.3300,-7.5000,-0.0665,-0.4058,0.1254,5.3750,13.0625,40.3750,228.3125,-23.6875,159.0625,0
1776973835.133,5.9807,4.4604,0.7901,1.0507,0.2822,0.4359,-69.7500,16.8000,-8.4000,7.9033,-1.5921,0.3352,-0.1476,0.7663,0.1156,-72.7500,-9.1500,16.5000,-3.8100,-3.8200,-7.6700,-0.1462,-0.4472,0.1636,6.8750,12.7500,39.7500,228.3750,-23.9375,159.1250,0
1776973835.138,5.9807,4.4604,0.7901,1.0507,0.2822,0.4359,-70.3500,17.7000,-8.2500,7.9966,-1.5227,1.4174,-0.3262,0.7650,0.1745,-72.7500,-9.1500,16.5000,-3.8100,-3.8200,-7.6700,-0.1462,-0.4472,0.1636,6.8750,12.7500,39.7500,228.3750,-23.9375,159.1250,0
1776973835.143,7.5944,0.7302,-0.1915,1.0291,0.7232,0.4199,-70.3500,17.7000,-8.2500,7.9966,-1.5227,1.4174,-0.3262,0.7650,0.1745,-72.7500,-9.1500,16.5000,-3.5900,-3.5300,-7.6600,-0.2476,-0.3894,0.1974,6.8750,12.7500,39.7500,228.3750,-24.1875,159.3125,0
1776973835.149,7.5944,0.7302,-0.1915,1.0291,0.7232,0.4199,-70.9500,15.1500,-7.3500,8.1954,-0.3304,1.6759,-0.1719,0.6784,0.2513,-72.7500,-9.1500,16.5000,-3.5900,-3.5300,-7.6600,-0.3371,-0.3403,0.2345,6.8750,12.7500,39.7500,228.4375,-24.4375,159.5000,0
1776973835.155,9.3350,-1.1205,0.4693,0.9073,1.0272,0.4253,-72.6000,14.5500,-7.5000,8.1954,-0.3304,1.6759,-0.1719,0.6784,0.2513,-75.4500,-8.5500,14.2500,-3.5500,-3.7600,-7.9300,-0.3371,-0.3403,0.2345,6.8750,12.7500,39.7500,228.5000,-24.6250,159.8125,0
1776973835.164,10.8553,-2.1021,0.3496,0.6768,0.6246,0.4820,-72.6000,14.5500,-7.5000,8.9854,0.3400,1.4341,-0.0051,0.4746,0.3621,-75.4500,-6.3000,10.2000,-6.4000,-2.9100,-8.8200,-0.4320,-0.3545,0.2825,6.8750,12.7500,39.7500,228.5000,-24.6250,159.8125,0
1776973835.174,10.7452,-1.7717,0.1915,0.4253,0.6611,0.4397,-71.8500,14.5500,-7.2000,10.3238,0.3496,0.7494,0.1588,0.2081,0.4199,-76.0500,-7.2000,12.1500,-4.4800,-2.8500,-8.6700,-0.4636,-0.2738,0.2749,6.8750,12.7500,39.7500,228.5625,-24.8750,160.0625,0
1776973835.179,10.7452,-1.7717,0.1915,0.4253,0.6611,0.4397,-71.8500,14.5500,-7.2000,9.9958,0.0838,0.8859,0.1855,-0.1196,0.4940,-76.0500,-7.2000,12.1500,-4.4800,-2.8500,-8.6700,-0.4636,-0.2738,0.2749,6.8750,12.7500,39.7500,228.5625,-24.8750,160.0625,0
1776973835.184,10.2328,-0.3304,1.2785,0.2390,0.7168,0.3738,-71.8500,14.5500,-7.2000,9.9958,0.0838,0.8859,0.1082,0.1868,0.5303,-76.9500,-6.0000,12.0000,-4.7100,-2.2600,-8.8500,-0.3600,-0.1156,0.1942,8.0000,12.2500,39.0000,228.6250,-24.9375,160.3125,0
1776973835.189,10.2328,-0.3304,1.2785,0.2390,0.7168,0.3738,-71.8500,12.3000,-6.7500,9.9455,-0.0599,1.6233,0.1082,0.1868,0.5303,-76.9500,-6.0000,12.0000,-4.7100,-2.2600,-8.8500,-0.3600,-0.1156,0.1942,8.0000,12.2500,39.0000,228.6250,-24.9375,160.3125,0
1776973835.194,9.9599,0.7542,2.3248,0.2254,0.8266,0.2771,-71.8500,12.3000,-6.7500,9.9790,-0.3687,1.8459,-0.1010,0.4541,0.5271,-76.9500,-6.0000,12.0000,-4.7700,-2.0100,-8.9100,-0.3600,-0.1156,0.1942,8.0000,12.2500,39.0000,228.6875,-25.0625,160.5625,0
1776973835.199,9.9599,0.7542,2.3248,0.2254,0.8266,0.2771,-72.6000,14.5500,-7.2000,9.9790,-0.3687,1.8459,-0.1010,0.4541,0.5271,-76.9500,-6.0000,12.0000,-4.7700,-2.0100,-8.9100,-0.2869,-0.1440,0.1385,8.0000,12.2500,39.0000,228.7500,-25.1250,160.7500,0
1776973835.205,10.2975,2.1859,2.3990,0.3277,0.7293,0.2646,-71.7000,14.4000,-7.2000,10.5417,-0.0287,2.5642,-0.3459,0.3842,0.4796,-76.9500,-6.0000,12.0000,-4.5700,-2.2900,-8.7400,-0.2869,-0.1440,0.1385,8.0000,12.2500,39.0000,228.7500,-25.2500,160.8125,0
1776973835.214,10.3286,2.5618,2.8922,0.3520,0.6059,0.2659,-71.7000,14.4000,-6.6000,9.9383,0.4884,3.0909,-0.4399,0.1982,0.3909,-77.7000,-7.0500,8.5500,-4.5100,-2.6400,-8.7200,-0.1724,-0.1931,0.0796,8.0000,12.2500,39.0000,228.7500,-25.2500,160.8125,0
1776973835.224,9.9527,1.8244,3.8283,0.4466,0.3331,0.2721,-71.7000,13.6500,-7.3500,9.1842,1.0199,3.5961,-0.3952,0.1964,0.2886,-77.2500,-8.2500,7.0500,-4.6700,-2.5300,-8.5500,-0.1385,-0.2236,0.0698,8.0000,12.2500,39.0000,228.7500,-25.3750,160.9375,0
1776973835.229,9.6654,1.0846,3.0454,0.4466,0.3331,0.2721,-73.0500,13.8000,-5.7000,9.1842,1.0199,3.5961,-0.3952,0.1964,0.2886,-77.2500,-8.2500,7.0500,-4.6700,-2.5300,-8.5500,-0.1385,-0.2236,0.0698,8.0000,12.2500,39.0000,228.7500,-25.5000,161.0000,0
1776973835.234,9.6654,1.0846,3.0454,0.3006,0.1820,0.2486,-73.0500,13.8000,-5.7000,8.6431,1.1708,4.0462,-0.3317,0.3917,0.2204,-76.6500,-8.5500,8.1000,-4.2800,-2.8700,-8.4800,-0.1244,-0.1996,0.0600,9.0625,12.2500,41.2500,228.7500,-25.5000,161.0000,0
1776973835.239,9.6367,-0.2490,2.7725,0.0749,0.2289,0.2388,-73.2000,13.6500,-5.8500,8.6431,1.1708,4.0462,-0.3317,0.3917,0.2204,-76.6500,-8.5500,8.1000,-4.2800,-2.8700,-8.4800,-0.1244,-0.1996,0.0600,9.0625,12.2500,41.2500,228.7500,-25.6250,161.0625,0
1776973835.244,9.6367,-0.2490,2.7725,0.0749,0.2289,0.2388,-73.2000,13.6500,-5.8500,8.9471,1.1636,4.4293,-0.2864,0.5979,0.1929,-75.6000,-8.7000,8.7000,-4.7200,-2.9600,-8.3000,-0.1331,-0.1658,0.0644,9.0625,12.2500,41.2500,228.7500,-25.6250,161.0625,0
1776973835.250,9.9407,-0.7661,1.9130,-0.1791,0.1863,0.2579,-73.2000,13.6500,-5.8500,8.9471,1.1636,4.4293,-0.2864,0.5979,0.1929,-75.6000,-8.7000,8.7000,-4.6100,-2.7300,-8.4300,-0.1538,-0.1036,0.0600,9.0625,12.2500,41.2500,228.7500,-25.6875,161.1250,0
1776973835.255,9.9407,-0.7661,1.9130,-0.1791,0.1863,0.2579,-73.2000,13.6500,-5.8500,9.6438,1.1372,4.8028,-0.1005,0.7016,0.2153,-75.6000,-8.7000,8.7000,-4.6100,-2.7300,-8.4300,-0.1538,-0.1036,0.0600,9.0625,12.2500,41.2500,228.7500,-25.6875,161.2500,0
1776973835.264,9.6486,0.5028,1.4820,-0.4570,0.2113,0.2419,-71.7000,12.4500,-5.5500,9.8545,1.2306,4.7166,0.0759,0.6091,0.2494,-78.1500,-7.9500,10.8000,-4.6200,-2.5000,-8.5000,-0.1571,-0.0524,0.0545,9.0625,12.2500,41.2500,228.7500,-25.6875,161.2500,0
1776973835.274,9.4523,2.2913,1.2234,-0.5710,0.2984,0.2654,-71.7000,12.4500,-5.5500,9.7276,1.5706,4.0749,0.2819,0.4610,0.2598,-77.8500,-5.7000,13.3500,-4.5100,-2.4200,-8.6100,-0.1342,-0.0338,0.0393,9.0625,12.2500,41.2500,228.7500,-25.7500,161.3125,0
1776973835.279,9.5984,3.3878,1.2857,-0.4549,0.3488,0.2771,-73.6500,13.2000,-4.3500,9.7276,1.5706,4.0749,0.2819,0.4610,0.2598,-77.8500,-5.7000,13.3500,-4.5100,-2.4200,-8.6100,-0.1342,-0.0338,0.0393,9.0625,12.2500,41.2500,228.7500,-25.7500,161.3125,0
1776973835.284,9.5984,3.3878,1.2857,-0.4549,0.3488,0.2771,-73.6500,13.2000,-4.3500,9.4691,1.4030,3.4453,0.3376,0.4202,0.2292,-78.1500,-4.9500,13.6500,-4.5200,-2.4500,-8.6300,-0.0938,-0.0316,0.0295,9.5000,11.5000,40.0625,228.7500,-25.7500,161.3750,0
1776973835.289,9.7803,3.2106,1.9417,-0.2478,0.3062,0.3115,-72.3000,12.6000,-4.9500,9.4691,1.4030,3.4453,0.3376,0.4202,0.2292,-78.1500,-4.9500,13.6500,-4.5200,-2.4500,-8.6300,-0.0938,-0.0316,0.0295,9.5000,11.5000,40.0625,228.7500,-25.7500,161.3750,0
1776973835.294,9.7803,3.2106,1.9417,-0.2478,0.3062,0.3115,-72.3000,12.6000,-4.9500,9.5409,1.4150,2.6647,0.2611,0.4141,0.1793,-77.5500,-3.4500,14.7000,-4.5500,-2.4300,-8.6000,-0.0513,-0.0393,0.0218,9.5000,11.5000,40.0625,228.7500,-25.7500,161.4375,0
1776973835.299,9.8138,2.5762,1.9297,-0.1463,0.1871,0.3232,-73.2000,12.4500,-4.8000,9.5409,1.4150,2.6647,0.2611,0.4141,0.1793,-77.5500,-3.4500,14.7000,-4.5500,-2.4300,-8.6000,-0.0295,-0.0415,0.0196,9.5000,11.5000,40.0625,228.7500,-25.8125,161.4375,0
1776973835.305,9.8138,2.5762,1.9297,-0.1463,0.1871,0.3232,-73.2000,12.4500,-4.8000,9.5217,1.3096,2.1620,0.2220,0.3363,0.1026,-77.5500,-3.4500,14.7000,-4.4100,-2.6400,-8.4900,-0.0295,-0.0415,0.0196,9.5000,11.5000,40.0625,228.7500,-25.8125,161.4375,0
1776973835.314,9.5217,1.7238,1.6400,-0.2438,0.1490,0.3549,-72.3000,13.5000,-5.2500,9.2871,1.3886,1.6017,0.0773,0.3126,0.0549,-78.6000,-3.1500,18.3000,-4.4100,-2.7800,-8.3800,-0.0229,-0.0545,0.0240,9.5000,11.5000,40.0625,228.7500,-25.8125,161.4375,0
1776973835.321,9.4140,1.1157,1.7071,-0.3552,0.1729,0.3952,-72.3000,13.5000,-5.2500,9.2751,1.7023,1.3886,-0.1186,0.3762,0.0059,-80.5500,-3.0000,19.2000,-4.4600,-2.7400,-8.3200,-0.0207,-0.0578,0.0262,9.5000,11.5000,40.0625,228.7500,-25.8750,161.4375,0
1776973835.326,9.6798,0.8859,1.7071,-0.5734,0.1761,0.3968,-72.3000,13.5000,-5.2500,9.2751,1.7023,1.3886,-0.1186,0.3762,0.0059,-80.5500,-3.0000,19.2000,-4.4600,-2.7400,-8.3200,-0.0207,-0.0578,0.0262,9.5000,11.5000,40.0625,228.7500,-25.8750,161.4375,0
1776973835.330,9.6798,0.8859,1.7071,-0.5734,0.1761,0.3968,-73.9500,11.7000,-4.8000,9.5553,1.7549,1.3408,-0.1974,0.4072,-0.0163,-78.0000,-3.3000,19.9500,-4.4200,-2.7500,-8.3100,-0.0295,-0.0556,0.0262,8.6875,11.8750,41.5625,228.7500,-25.9375,161.5000,0
1776973835.335,9.6822,1.0965,1.4461,-0.6710,0.1660,0.3941,-73.9500,11.7000,-4.8000,9.5553,1.7549,1.3408,-0.1974,0.4072,-0.0163,-78.0000,-3.3000,19.9500,-4.4200,-2.7500,-8.3100,-0.0295,-0.0556,0.0262,8.6875,11.8750,41.5625,228.7500,-25.9375,161.5000,0
1776973835.340,9.6822,1.0965,1.4461,-0.6710,0.1660,0.3941,-73.9500,11.7000,-4.8000,9.5840,1.2857,1.3671,-0.3355,0.3930,-0.0461,-77.7000,-4.5000,20.5500,-4.4200,-2.7500,-8.3100,-0.0404,-0.0513,0.0327,8.6875,11.8750,41.5625,228.8125,-25.9375,161.5000,0
1776973835.345,9.5672,1.4317,1.1684,-0.6763,0.1804,0.4016,-73.9500,11.7000,-4.8000,9.5840,1.2857,1.3671,-0.3355,0.3930,-0.0461,-77.7000,-4.5000,20.5500,-4.4900,-2.6500,-8.3100,-0.0404,-0.0513,0.0327,8.6875,11.8750,41.5625,228.8125,-25.9375,161.5000,0
1776973835.350,9.5672,1.4317,1.1684,-0.6763,0.1804,0.4016,-74.1000,13.0500,-4.9500,9.2823,0.6823,1.7382,-0.4642,0.3214,-0.0488,-77.7000,-6.0000,19.5000,-4.4900,-2.6500,-8.3100,-0.0436,-0.0447,0.0262,8.6875,11.8750,41.5625,228.8125,-26.0000,161.5625,0
1776973835.355,9.4906,1.9465,0.7398,-0.6632,0.1745,0.3914,-74.1000,13.0500,-4.9500,9.2823,0.6823,1.7382,-0.4642,0.3214,-0.0488,-77.7000,-6.0000,19.5000,-4.4500,-2.6100,-8.2800,-0.0436,-0.0447,0.0262,8.6875,11.8750,41.5625,228.8125,-26.0000,161.5625,0
1776973835.364,9.2320,1.8124,0.8380,-0.5931,0.1721,0.3981,-75.4500,12.4500,-4.0500,9.4355,0.4405,1.8938,-0.5617,0.3451,-0.0520,-77.7000,-6.0000,19.5000,-4.3100,-2.5900,-8.3400,-0.0393,-0.0436,0.0185,8.6875,11.8750,41.5625,228.8125,-26.0000,161.5625,0
1776973835.369,9.2320,1.8124,0.8380,-0.5931,0.1721,0.3981,-73.0500,11.4000,-5.7000,9.7444,0.7063,1.2234,-0.6702,0.2880,-0.0544,-77.1000,-9.4500,19.3500,-4.3100,-2.5900,-8.3400,-0.0360,-0.0491,0.0131,8.6875,11.8750,41.5625,228.8125,-26.0625,161.6250,0
1776973835.375,9.0477,1.5155,0.9529,-0.4970,0.1833,0.3962,-73.0500,11.4000,-5.7000,9.7444,0.7063,1.2234,-0.6702,0.2880,-0.0544,-77.1000,-9.4500,19.3500,-4.5000,-2.6000,-8.3000,-0.0360,-0.0491,0.0131,8.6875,11.8750,41.5625,228.8125,-26.0625,161.6250,0
1776973835.380,9.0477,1.5155,0.9529,-0.4970,0.1833,0.3962,-71.7000,11.2500,-5.5500,9.5696,0.7159,0.9313,-0.7541,0.1998,-0.0701,-77.5500,-9.4500,17.5500,-4.5000,-2.6000,-8.3000,-0.0371,-0.0415,0.0065,8.6875,10.7500,38.8750,229.6875,-26.0625,161.6250,0
1776973835.385,9.1722,1.1875,1.2546,-0.4900,0.2132,0.4146,-71.7000,11.2500,-5.5500,9.5696,0.7159,0.9313,-0.7541,0.1998,-0.0701,-77.5500,-9.4500,17.5500,-4.4800,-2.5800,-8.2900,-0.0371,-0.0415,0.0065,8.6875,10.7500,38.8750,229.6875,-26.0625,161.6250,0
1776973835.390,9.1722,1.1875,1.2546,-0.4900,0.2132,0.4146,-73.3500,12.3000,-3.7500,9.3901,0.7398,0.9146,-0.8164,0.2675,-0.0759,-76.8000,-8.7000,16.5000,-4.4800,-2.6100,-8.2500,-0.0447,-0.0251,0.0011,8.6875,10.7500,38.8750,229.6875,-26.1250,161.6250,0
1776973835.395,9.3972,0.7709,1.2426,-0.5247,0.2094,0.4199,-73.3500,12.3000,-3.7500,9.3901,0.7398,0.9146,-0.8164,0.2675,-0.0759,-76.8000,-8.7000,16.5000,-4.4800,-2.6100,-8.2500,-0.0447,-0.0251,0.0011,8.6875,10.7500,38.8750,229.6875,-26.1250,161.6250,0
1776973835.400,9.3972,0.7709,1.2426,-0.5247,0.2094,0.4199,-73.0500,12.3000,-4.9500,9.3494,0.7661,0.9409,-0.8074,0.2284,-0.0791,-76.6500,-9.0000,15.6000,-4.4800,-2.6100,-8.2500,-0.0524,-0.0065,-0.0055,8.6875,10.7500,38.8750,229.6875,-26.1250,161.6875,0
1776973835.405,9.4691,0.6752,1.4868,-0.5132,0.2302,0.4133,-73.0500,12.3000,-4.9500,9.3494,0.7661,0.9409,-0.8074,0.2284,-0.0791,-76.6500,-9.0000,15.6000,-4.4500,-2.6400,-8.2900,-0.0524,-0.0065,-0.0055,8.6875,10.7500,38.8750,229.6875,-26.1250,161.6875,0
1776973835.414,9.7468,0.8595,1.5203,-0.5095,0.2241,0.3938,-73.0500,12.3000,-4.9500,9.4140,0.7757,1.1301,-0.8132,0.1703,-0.0594,-76.6500,-9.0000,15.6000,-4.3500,-2.6600,-8.2200,-0.0535,-0.0055,-0.0055,8.6875,10.7500,38.8750,229.6875,-26.1250,161.6875,0
1776973835.424,9.9216,0.6345,1.2546,-0.5316,0.2260,0.3946,-74.1000,12.3000,-4.5000,9.6007,0.5626,1.3455,-0.8833,-0.0013,0.0013,-75.4500,-9.0000,13.0500,-4.2700,-2.6600,-8.3600,-0.0436,-0.0196,-0.0022,8.6875,10.7500,38.8750,229.6875,-26.1250,161.7500,0
1776973835.429,9.9216,0.6345,1.2546,-0.5316,0.2260,0.3946,-74.1000,11.4000,-4.2000,9.6678,0.4764,1.8292,-0.8972,-0.0616,0.0282,-78.0000,-10.0500,12.7500,-4.2700,-2.6600,-8.3600,-0.0436,-0.0196,-0.0022,8.6875,10.7500,38.8750,230.5000,-26.1250,161.7500,0
1776973835.434,9.7564,0.4860,1.0439,-0.4639,0.1908,0.4013,-74.1000,11.4000,-4.2000,9.6678,0.4764,1.8292,-0.8972,-0.0616,0.0282,-78.0000,-10.0500,12.7500,-4.4500,-2.6300,-8.3000,-0.0229,-0.0425,0.0000,9.0625,10.5000,40.3750,230.5000,-26.1250,161.7500,0
1776973835.439,9.7564,0.4860,1.0439,-0.4639,0.1908,0.4013,-74.5500,9.4500,-3.4500,9.4188,0.5555,2.2625,-0.9166,-0.0989,0.0554,-77.1000,-9.9000,12.6000,-4.4500,-2.6300,-8.3000,-0.0229,-0.0425,0.0000,9.0625,10.5000,40.3750,230.5000,-26.1875,161.7500,0
1776973835.444,9.5912,0.1891,1.2186,-0.5955,0.2132,0.4080,-74.5500,9.4500,-3.4500,9.4188,0.5555,2.2625,-0.9166,-0.0989,0.0554,-77.1000,-9.9000,12.6000,-4.5700,-2.5200,-8.3100,-0.0240,-0.0393,0.0044,9.0625,10.5000,40.3750,230.5000,-26.1875,161.7500,0
1776973835.449,9.5912,0.1891,1.2186,-0.5955,0.2132,0.4080,-73.9500,10.0500,-2.8500,9.3829,0.7494,2.4421,-0.8777,0.0679,0.0743,-75.6000,-8.7000,11.5500,-4.5700,-2.5200,-8.3100,-0.0327,-0.0011,0.0011,9.0625,10.5000,40.3750,230.5000,-26.1875,161.8125,0
1776973835.455,9.5193,0.2562,1.5060,-0.5905,0.1980,0.3832,-73.9500,10.0500,-2.8500,9.4092,0.7183,2.5690,-0.9883,0.1183,0.1074,-75.6000,-8.7000,11.5500,-4.4200,-2.6100,-8.3900,-0.0327,-0.0011,0.0011,9.0625,10.5000,40.3750,230.5000,-26.1875,161.8125,0
1776973835.464,9.4763,0.4717,1.7071,-0.5199,0.1812,0.3869,-74.7000,11.2500,-1.3500,9.4092,0.7183,2.5690,-0.9721,0.0269,0.1279,-76.0500,-10.6500,10.8000,-4.5200,-2.5900,-8.3000,-0.0185,-0.0131,0.0044,9.0625,10.5000,40.3750,230.5000,-26.1875,161.8125,0
1776973835.471,9.4619,0.7638,1.6999,-0.4687,0.1719,0.3848,-73.8000,9.9000,-3.0000,9.2536,0.9625,2.7366,-0.9721,0.0269,0.1279,-76.0500,-10.6500,10.8000,-4.5500,-2.5200,-8.3000,-0.0338,-0.0153,0.0033,9.0625,10.5000,40.3750,230.5000,-26.1875,161.8125,0
1776973835.476,9.4619,0.7638,1.6999,-0.4687,0.1719,0.3848,-73.8000,9.9000,-3.0000,9.1219,1.2067,2.4277,-0.9361,-0.0349,0.1609,-76.0500,-10.6500,10.8000,-4.5500,-2.5200,-8.3000,-0.0338,-0.0153,0.0033,9.0625,10.5000,40.3750,230.5000,-26.1875,161.8125,0
1776973835.481,9.4882,0.9098,1.5203,-0.4317,0.1721,0.3898,-73.8000,9.9000,-3.0000,9.1219,1.2067,2.4277,-0.9361,-0.0349,0.1609,-76.9500,-9.0000,13.0500,-4.5600,-2.6000,-8.3300,-0.0273,-0.0087,0.0055,9.0625,10.7500,40.7500,231.3750,-26.2500,161.8750,0
1776973835.485,9.4882,0.9098,1.5203,-0.4317,0.1721,0.3898,-73.8000,9.9000,-3.0000,9.0405,1.3168,2.0853,-0.9286,-0.0376,0.2054,-76.9500,-9.0000,13.0500,-4.5600,-2.6000,-8.3300,-0.0273,-0.0087,0.0055,9.0625,10.7500,40.7500,231.3750,-26.2500,161.8750,0
1776973835.490,9.4236,0.7518,1.4892,-0.3464,0.1474,0.3949,-72.6000,10.3500,-3.0000,9.0405,1.3168,2.0853,-0.9286,-0.0376,0.2054,-77.2500,-9.7500,14.2500,-4.6200,-2.6800,-8.2300,-0.0240,-0.0087,0.0022,9.0625,10.7500,40.7500,231.3750,-26.2500,161.8750,0
1776973835.495,9.4236,0.7518,1.4892,-0.3464,0.1474,0.3949,-72.6000,10.3500,-3.0000,9.0118,1.5251,1.6400,-0.9121,0.0208,0.2268,-78.4500,-9.7500,14.2500,-4.6200,-2.6800,-8.2300,-0.0240,-0.0087,0.0022,9.0625,10.7500,40.7500,231.3750,-26.2500,161.8750,0
1776973835.500,9.2440,0.5052,1.1612,-0.2979,0.1577,0.4010,-72.6000,10.3500,-3.0000,9.0118,1.5251,1.6400,-0.9121,0.0208,0.2268,-78.4500,-10.5000,13.8000,-4.6200,-2.6800,-8.2300,-0.0295,0.0044,0.0022,9.0625,10.7500,40.7500,231.3750,-26.2500,161.8750,0
1776973835.505,9.2440,0.5052,1.1612,-0.2979,0.1577,0.4010,-72.6000,10.3500,-3.0000,9.8641,1.6568,1.2115,-0.8513,0.1516,0.2486,-78.6000,-9.1500,12.9000,-4.6000,-2.6100,-8.2800,-0.0295,0.0044,0.0022,9.0625,10.7500,40.7500,231.3750,-26.2500,161.9375,0
1776973835.514,9.3230,0.2658,1.1636,-0.3019,0.2230,0.4186,-74.1000,9.1500,-4.2000,9.3613,1.8052,1.3647,-0.6683,0.0520,0.2435,-78.6000,-9.1500,12.9000,-4.4800,-2.6700,-8.3000,-0.0393,0.0218,-0.0011,9.0625,10.7500,40.7500,231.3750,-26.2500,161.9375,0
1776973835.521,9.6127,0.4166,1.1349,-0.3352,0.2665,0.4114,-73.8000,9.1500,-1.6500,9.3613,1.8052,1.3647,-0.6683,0.0520,0.2435,-78.6000,-9.1500,12.9000,-4.4600,-2.6800,-8.3200,-0.0567,0.0360,-0.0065,9.0625,10.7500,40.7500,231.3750,-26.2500,161.9375,0
1776973835.526,9.6127,0.4166,1.1349,-0.3352,0.2665,0.4114,-73.8000,9.1500,-1.6500,9.8928,1.9273,1.2306,-0.5804,0.3595,0.2422,-77.7000,-9.3000,14.8500,-4.4600,-2.6800,-8.3200,-0.0567,0.0360,-0.0065,9.0625,10.7500,40.7500,231.3750,-26.2500,161.9375,0
1776973835.531,9.7516,0.6943,1.2091,-0.2886,0.2705,0.3914,-73.0500,8.4000,-3.0000,9.8928,1.9273,1.2306,-0.5804,0.3595,0.2422,-77.7000,-9.3000,14.8500,-4.4600,-2.6800,-8.3200,-0.0567,0.0360,-0.0065,9.5000,10.5000,40.3750,232.1875,-26.2500,162.0000,0
1776973835.535,9.7516,0.6943,1.2091,-0.2886,0.2705,0.3914,-73.0500,8.4000,-3.0000,9.3805,2.0159,1.4006,-0.4077,0.1820,0.2358,-77.2500,-9.0000,14.8500,-4.4600,-2.6800,-8.3400,-0.0600,0.0273,-0.0044,9.5000,10.5000,40.3750,232.1875,-26.2500,162.0000,0
1776973835.540,9.7899,0.6656,1.5227,-0.2230,0.2942,0.3978,-73.0500,9.1500,-3.0000,9.3805,2.0159,1.4006,-0.4077,0.1820,0.2358,-77.2500,-9.0000,14.8500,-4.4600,-2.6800,-8.3400,-0.0600,0.0273,-0.0044,9.5000,10.5000,40.3750,232.1875,-26.2500,162.0000,0
1776973835.545,9.7612,0.5459,1.1133,-0.2230,0.2942,0.3978,-73.0500,9.1500,-3.0000,9.3111,2.0925,1.5921,-0.3230,0.2883,0.2172,-77.5500,-10.2000,15.7500,-4.4200,-2.6000,-8.4000,-0.0545,0.0185,-0.0011,9.5000,10.5000,40.3750,232.1875,-26.2500,162.0000,0
1776973835.550,9.7612,0.5459,1.1133,-0.1972,0.2753,0.4010,-73.0500,9.1500,-3.0000,9.3111,2.0925,1.5921,-0.3230,0.2883,0.2172,-77.5500,-10.2000,15.7500,-4.4200,-2.6000,-8.4000,-0.0425,0.0000,0.0000,9.5000,10.5000,40.3750,232.1875,-26.2500,162.0625,0
1776973835.555,9.4571,0.3639,1.5395,-0.1972,0.2753,0.4010,-73.0500,9.1500,-3.0000,9.3948,2.0016,1.5371,-0.2550,0.3555,0.1974,-77.7000,-9.7500,15.3000,-4.4600,-2.6200,-8.4100,-0.0425,0.0000,0.0000,9.5000,10.5000,40.3750,232.1250,-26.2500,162.0625,0
1776973835.565,9.2296,0.4836,1.6568,-0.1689,0.2577,0.3896,-74.1000,9.4500,-3.0000,9.3470,1.8052,1.5897,-0.2052,0.4159,0.1839,-77.7000,-9.7500,15.3000,-4.4500,-2.6000,-8.3800,-0.0393,-0.0055,0.0044,9.5000,10.5000,40.3750,232.1250,-26.2500,162.0625,0
1776973835.572,9.2296,0.4836,1.6568,-0.2089,0.2819,0.4032,-74.1000,9.4500,-3.0000,8.6335,1.5131,1.8723,-0.1871,0.5510,0.1751,-77.7000,-9.7500,15.3000,-4.5200,-2.5500,-8.3600,-0.0382,-0.0087,0.0033,9.5000,10.5000,40.3750,232.1250,-26.2500,162.1250,0
1776973835.577,9.2656,0.7422,1.7166,-0.2276,0.2931,0.4040,-74.1000,9.4500,-3.0000,8.6335,1.5131,1.8723,-0.1871,0.5510,0.1751,-77.7000,-9.7500,15.3000,-4.5200,-2.5500,-8.3600,-0.0382,-0.0087,0.0033,9.5000,10.5000,40.3750,232.1250,-26.2500,162.1250,0
1776973835.582,9.2656,0.7422,1.7166,-0.2276,0.2931,0.4040,-74.8500,8.7000,-3.0000,9.4930,1.2546,1.7214,-0.1095,0.3824,0.1799,-77.7000,-9.7500,15.3000,-4.4600,-2.6600,-8.3400,-0.0425,-0.0076,0.0033,9.8750,10.0625,40.3750,232.8125,-26.2500,162.1250,0
1776973835.587,9.5840,0.8021,1.5443,-0.2670,0.2958,0.4101,-74.8500,8.7000,-3.0000,9.4930,1.2546,1.7214,-0.1095,0.3824,0.1799,-77.1000,-9.1500,15.0000,-4.4600,-2.6600,-8.3400,-0.0425,-0.0076,0.0033,9.8750,10.0625,40.3750,232.8125,-26.2500,162.1250,0
1776973835.591,9.5840,0.8021,1.5443,-0.2670,0.2958,0.4101,-73.8000,7.5000,-2.4000,9.2703,0.9122,1.9465,-0.0751,0.3437,0.1905,-77.1000,-9.1500,15.0000,-4.4300,-2.7100,-8.3300,-0.0371,-0.0120,0.0044,9.8750,10.0625,40.3750,232.8125,-26.2500,162.1250,0
1776973835.596,9.6941,0.3280,1.7071,-0.2777,0.2867,0.4040,-73.8000,7.5000,-2.4000,9.2703,0.9122,1.9465,-0.0751,0.3437,0.1905,-77.5500,-10.2000,15.0000,-4.4300,-2.7100,-8.3300,-0.0371,-0.0120,0.0044,9.8750,10.0625,40.3750,232.8125,-26.2500,162.1250,0
1776973835.601,9.6941,0.3280,1.7071,-0.2777,0.2867,0.4040,-72.9000,7.8000,-0.6000,10.0963,0.7805,1.8579,-0.1476,0.5329,0.2054,-77.5500,-10.2000,15.0000,-4.4500,-2.6700,-8.3300,-0.0218,0.0000,0.0076,9.8750,10.0625,40.3750,232.8125,-26.2500,162.1875,0
1776973835.606,9.6989,0.2442,1.6759,-0.3499,0.3094,0.4181,-72.9000,7.8000,-0.6000,10.0963,0.7805,1.8579,-0.1476,0.5329,0.2054,-77.2500,-8.5500,14.5500,-4.4500,-2.6700,-8.3300,-0.0218,0.0000,0.0076,9.8750,10.0625,40.3750,232.8125,-26.2500,162.1875,0
1776973835.615,9.7372,0.1724,1.5155,-0.3640,0.2918,0.4423,-73.6500,9.0000,-1.0500,9.4164,0.7278,2.2745,-0.1039,0.2955,0.2124,-76.9500,-9.7500,16.6500,-4.4100,-2.6300,-8.3800,-0.0185,-0.0033,0.0109,9.8750,10.0625,40.3750,232.8125,-26.2500,162.1875,0
1776973835.622,9.7372,0.1724,1.5155,-0.3640,0.2918,0.4423,-73.8000,7.9500,-1.9500,9.3565,0.6297,2.3391,-0.1937,0.2737,0.2246,-76.9500,-9.7500,16.6500,-4.4600,-2.6100,-8.3100,-0.0131,-0.0098,0.0153,9.8750,10.0625,40.3750,232.8125,-26.2500,162.1875,0
1776973835.627,9.5960,0.2849,2.2170,-0.3317,0.2952,0.4466,-73.8000,7.9500,-1.9500,9.3565,0.6297,2.3391,-0.1937,0.2737,0.2246,-76.9500,-9.7500,16.6500,-4.4600,-2.6100,-8.3100,-0.0131,-0.0098,0.0153,9.8750,10.0625,40.3750,232.8125,-26.2500,162.1875,0
1776973835.632,9.6941,0.4573,2.0446,-0.3317,0.2952,0.4466,-74.4000,7.8000,-1.8000,9.4332,0.6129,2.5881,-0.3070,0.3030,0.2326,-76.9500,-9.7500,16.6500,-4.4400,-2.6400,-8.3200,-0.0120,-0.0076,0.0175,9.5000,11.1875,40.7500,233.7500,-26.2500,162.1875,0
1776973835.637,9.6941,0.4573,2.0446,-0.2896,0.3171,0.4485,-74.4000,7.8000,-1.8000,9.4332,0.6129,2.5881,-0.3070,0.3030,0.2326,-76.9500,-11.2500,14.8500,-4.4400,-2.6400,-8.3200,-0.0120,-0.0076,0.0175,9.5000,11.1875,40.7500,233.7500,-26.2500,162.1875,0
1776973835.645,9.8689,0.2825,1.8771,-0.2060,0.2982,0.4580,-74.4000,7.8000,-1.8000,9.5313,0.5100,2.6695,-0.4080,0.3200,0.2409,-76.2000,-10.0500,16.6500,-4.4500,-2.5700,-8.4000,-0.0142,-0.0131,0.0207,9.5000,11.1875,40.7500,233.7500,-26.2500,162.1875,0
1776973835.655,9.5768,-0.1006,1.8435,-0.2145,0.2566,0.4772,-74.1000,6.4500,-1.9500,9.3613,0.5052,2.5163,-0.5175,0.3331,0.2545,-77.2500,-10.5000,17.7000,-4.4800,-2.5200,-8.3700,-0.0076,-0.0175,0.0229,9.5000,11.1875,40.7500,233.7500,-26.3125,162.1875,0
1776973835.661,9.2656,0.0383,1.5299,-0.2145,0.2566,0.4772,-74.8500,6.4500,-0.1500,9.4379,0.5387,2.2314,-0.6273,0.3688,0.2705,-77.2500,-10.5000,17.7000,-4.4600,-2.5600,-8.3800,-0.0033,-0.0218,0.0262,9.5000,11.1875,40.7500,233.7500,-26.3125,162.2500,0
1776973835.666,9.2656,0.0383,1.5299,-0.2566,0.2649,0.4847,-74.8500,6.4500,-0.1500,9.4379,0.5387,2.2314,-0.6273,0.3688,0.2705,-78.0000,-10.0500,17.1000,-4.4600,-2.5600,-8.3800,-0.0033,-0.0218,0.0262,9.5000,11.1875,40.7500,233.7500,-26.3125,162.2500,0
1776973835.675,9.2057,0.4381,1.5299,-0.3262,0.3128,0.5095,-75.4500,6.1500,-0.6000,9.4403,0.7614,1.8316,-0.6835,0.3635,0.2814,-78.0000,-10.0500,17.1000,-4.5300,-2.5800,-8.3400,0.0033,-0.0218,0.0251,9.5000,11.1875,40.7500,233.7500,-26.3125,162.2500,0
1776973835.680,9.3733,0.8021,1.8818,-0.3262,0.3128,0.5095,-74.1000,5.5500,-0.6000,9.4308,0.9481,1.5993,-0.6664,0.3307,0.2702,-78.0000,-10.0500,17.1000,-4.5300,-2.5800,-8.3400,0.0033,-0.0218,0.0251,9.5000,11.1875,40.7500,234.5000,-26.3750,162.2500,0
1776973835.685,9.3733,0.8021,1.8818,-0.3869,0.3667,0.5260,-74.1000,5.5500,-0.1500,9.4308,0.9481,1.5993,-0.6664,0.3307,0.2702,-76.9500,-10.8000,18.1500,-4.4700,-2.5500,-8.3600,0.0044,-0.0175,0.0251,9.8750,10.5000,39.6875,234.5000,-26.3750,162.2500,0
1776973835.690,9.7755,1.0104,1.8723,-0.3869,0.3667,0.5260,-73.8000,5.5500,0.4500,9.5624,1.1708,1.5969,-0.6627,0.2649,0.2491,-76.9500,-10.8000,18.1500,-4.4700,-2.5500,-8.3600,0.0044,-0.0175,0.0251,9.8750,10.5000,39.6875,234.5000,-26.3750,162.2500,0
1776973835.695,9.7755,1.0104,1.8723,-0.3789,0.3832,0.5415,-73.8000,5.5500,0.4500,9.5624,1.1708,1.5969,-0.6627,0.2649,0.2491,-76.8000,-13.6500,18.3000,-4.4100,-2.6700,-8.3300,-0.0011,-0.0218,0.0284,9.8750,10.5000,39.6875,234.5000,-26.3750,162.2500,0
1776973835.700,10.1035,0.2658,2.0423,-0.3789,0.3832,0.5415,-73.8000,5.5500,0.4500,9.5960,1.3360,1.8771,-0.6899,0.1927,0.2332,-76.8000,-13.6500,18.3000,-4.4100,-2.6700,-8.3300,0.0011,-0.0207,0.0295,9.8750,10.5000,39.6875,234.5625,-26.3750,162.2500,0
1776973835.706,10.1035,0.2658,2.0423,-0.3035,0.3357,0.5521,-74.5500,5.5500,-0.4500,9.5960,1.3360,1.8771,-0.6899,0.1927,0.2332,-77.5500,-11.4000,18.3000,-4.4100,-2.7000,-8.4500,0.0011,-0.0207,0.0295,9.8750,10.5000,39.6875,234.5625,-26.3750,162.2500,0
1776973835.715,9.9264,-0.4190,1.9249,-0.2521,0.3003,0.5734,-74.5500,5.5500,-0.4500,9.5122,1.1133,2.3056,-0.7674,0.1769,0.2121,-77.5500,-11.7000,19.0500,-4.4500,-2.6100,-8.4600,0.0196,-0.0175,0.0371,9.8750,10.5000,39.6875,234.5625,-26.3750,162.2500,0
1776973835.720,9.6151,-0.5555,1.3144,-0.2393,0.2998,0.5979,-73.8000,7.5000,-0.4500,9.3948,0.8547,2.7102,-0.8029,0.1681,0.2076,-77.5500,-11.7000,19.0500,-4.4500,-2.6100,-8.4600,0.0404,-0.0371,0.0393,9.8750,10.5000,39.6875,234.5625,-26.4375,162.2500,0
1776973835.726,9.6151,-0.5555,1.3144,-0.2393,0.2998,0.5979,-73.8000,7.5000,-0.4500,9.4403,0.6560,2.8323,-0.7837,0.1601,0.1990,-76.9500,-12.3000,17.4000,-4.5000,-2.5200,-8.4200,0.0404,-0.0371,0.0393,9.8750,10.5000,39.6875,234.5625,-26.4375,162.2500,0
1776973835.731,9.2823,-0.0958,1.5060,-0.2793,0.3254,0.6035,-73.8000,7.5000,-0.4500,9.4403,0.6560,2.8323,-0.7837,0.1601,0.1990,-76.9500,-12.3000,17.4000,-4.4700,-2.4300,-8.4800,0.0611,-0.0436,0.0404,8.6875,10.7500,40.0625,235.5000,-26.4375,162.2500,0
1776973835.736,9.2823,-0.0958,1.5060,-0.2793,0.3254,0.6035,-73.8000,7.5000,-0.4500,9.5313,0.6177,2.6983,-0.7131,0.1383,0.1895,-76.9500,-12.3000,17.4000,-4.4700,-2.4300,-8.4800,0.0611,-0.0436,0.0404,8.6875,10.7500,40.0625,235.5000,-26.4375,162.2500,0
1776973835.741,9.1698,0.1700,1.6257,-0.2675,0.3621,0.6041,-74.1000,4.5000,0.4500,9.5313,0.6177,2.6983,-0.7131,0.1383,0.1895,-76.9500,-12.3000,17.4000,-4.4700,-2.4300,-8.4800,0.0731,-0.0676,0.0404,8.6875,10.7500,40.0625,235.5000,-26.5000,162.1875,0
1776973835.746,9.1698,0.1700,1.6257,-0.2675,0.3621,0.6041,-74.1000,4.5000,0.4500,9.5600,0.7230,2.4086,-0.6054,0.1106,0.1772,-76.8000,-12.4500,18.6000,-4.4500,-2.4900,-8.4600,0.0731,-0.0676,0.0404,8.6875,10.7500,40.0625,235.5000,-26.5000,162.1875,0
1776973835.751,9.3925,0.1197,2.1811,-0.2427,0.4205,0.6185,-74.1000,4.5000,0.4500,9.5600,0.7230,2.4086,-0.6054,0.1106,0.1772,-76.8000,-12.4500,18.6000,-4.4500,-2.4900,-8.4600,0.0840,-0.0840,0.0393,8.6875,10.7500,40.0625,235.5625,-26.5625,162.1875,0
1776973835.756,9.3925,0.1197,2.1811,-0.2427,0.4205,0.6185,-74.4000,3.9000,0.3000,9.8545,0.9529,2.1715,-0.5561,0.1895,0.1620,-76.2000,-11.2500,19.5000,-4.4500,-2.5200,-8.4500,0.0840,-0.0840,0.0393,8.6875,10.7500,40.0625,235.5625,-26.5625,162.1875,0
1776973835.765,9.9479,0.0814,2.3104,-0.2483,0.4450,0.6275,-73.3500,4.8000,0.9000,9.6103,0.8428,2.3391,-0.5124,0.1085,0.1466,-78.0000,-11.5500,18.4500,-4.4200,-2.6100,-8.4500,0.0916,-0.0949,0.0360,8.6875,10.7500,40.0625,235.5625,-26.6250,162.1250,0
1776973835.770,10.3358,-0.3041,2.2482,-0.2284,0.3906,0.6523,-73.3500,4.8000,0.9000,9.6103,0.8428,2.3391,-0.5124,0.1085,0.1466,-78.0000,-11.5500,18.4500,-4.4200,-2.6100,-8.4500,0.0938,-0.1178,0.0338,8.6875,10.7500,40.0625,235.5625,-26.6875,162.0625,0
1776973835.776,10.1730,-1.0080,2.0638,-0.2284,0.3906,0.6523,-73.6500,3.0000,2.5500,9.6606,0.6656,2.5881,-0.5446,0.0749,0.1391,-77.8500,-11.4000,18.3000,-4.3000,-2.6800,-8.5500,0.0938,-0.1178,0.0338,8.6875,10.7500,40.0625,235.5625,-26.6875,162.0625,0
1776973835.781,10.1730,-1.0080,2.0638,-0.2395,0.3304,0.6784,-73.6500,3.0000,2.5500,9.6606,0.6656,2.5881,-0.5446,0.0749,0.1391,-77.8500,-11.4000,18.3000,-4.3000,-2.6800,-8.5500,0.0938,-0.1178,0.0338,9.8750,11.1875,41.1875,236.3750,-26.8125,162.0000,0
1776973835.786,9.5600,-0.7781,2.2697,-0.2395,0.3304,0.6784,-73.6500,3.0000,2.5500,9.4858,0.6009,2.8946,-0.6150,0.1434,0.1268,-77.8500,-11.4000,18.3000,-4.4800,-2.6000,-8.5100,0.1374,-0.1745,0.0469,9.8750,11.1875,41.1875,236.3750,-26.8125,162.0000,0
1776973835.791,9.5600,-0.7781,2.2697,-0.2830,0.3168,0.6893,-73.6500,3.0000,2.5500,9.4858,0.6009,2.8946,-0.6150,0.1434,0.1268,-77.8500,-11.4000,18.3000,-4.4800,-2.6000,-8.5100,0.1374,-0.1745,0.0469,9.8750,11.1875,41.1875,236.4375,-26.9375,161.8750,0
1776973835.796,9.4044,-0.6393,2.4636,-0.2830,0.3168,0.6893,-73.6500,3.4500,2.1000,9.5050,0.6225,2.9257,-0.6281,0.1681,0.1095,-78.1500,-11.7000,19.0500,-4.4900,-2.6100,-8.4300,0.1767,-0.2203,0.0545,9.8750,11.1875,41.1875,236.4375,-26.9375,161.8750,0
1776973835.801,9.4044,-0.6393,2.4636,-0.3544,0.3786,0.7027,-73.6500,3.4500,2.1000,9.5050,0.6225,2.9257,-0.6281,0.1681,0.1095,-77.7000,-12.3000,19.2000,-4.4900,-2.6100,-8.4300,0.1953,-0.2356,0.0545,9.8750,11.1875,41.1875,236.5000,-27.0625,161.8125,0
1776973835.806,9.7683,-0.1820,2.8539,-0.3770,0.4258,0.6995,-73.6500,3.4500,2.1000,9.6343,0.6440,3.0311,-0.6155,0.1652,0.0914,-77.7000,-12.3000,19.2000,-4.4200,-2.5000,-8.5800,0.1953,-0.2356,0.0545,9.8750,11.1875,41.1875,236.5000,-27.0625,161.8125,0
1776973835.815,10.1873,-0.4046,2.8826,-0.3770,0.4258,0.6995,-72.9000,3.4500,1.3500,9.7707,0.4693,3.0981,-0.6033,0.1370,0.0837,-77.2500,-12.0000,18.1500,-4.4100,-2.7000,-8.5500,0.2094,-0.2629,0.0502,9.8750,11.1875,41.1875,236.5000,-27.1875,161.6875,0
1776973835.820,10.1873,-0.4046,2.8826,-0.3235,0.3864,0.7120,-72.9000,3.4500,1.3500,9.7707,0.4693,3.0981,-0.6033,0.1370,0.0837,-77.2500,-12.0000,18.1500,-4.4100,-2.7000,-8.5500,0.2258,-0.2902,0.0524,9.8750,11.1875,41.1875,236.5625,-27.3125,161.5625,0
1776973835.826,10.2185,-0.8284,3.1963,-0.2537,0.3709,0.7288,-74.4000,2.2500,1.3500,9.6798,0.2873,3.2226,-0.5891,0.1231,0.0869,-78.7500,-11.2500,19.5000,-4.4600,-2.8400,-8.4900,0.2258,-0.2902,0.0524,9.8750,11.1875,41.1875,236.5625,-27.3125,161.5625,0
1776973835.831,10.2185,-0.8284,3.1963,-0.2537,0.3709,0.7288,-74.4000,2.2500,1.3500,9.6798,0.2873,3.2226,-0.5891,0.1231,0.0869,-78.7500,-11.2500,19.5000,-4.4600,-2.8400,-8.4900,0.2596,-0.3054,0.0589,10.1875,10.7500,40.8750,237.3125,-27.5000,161.3750,0
1776973835.836,10.2855,-1.0654,2.5235,-0.3048,0.3187,0.7509,-73.8000,2.8500,3.0000,9.7468,0.2825,3.3303,-0.5556,0.1079,0.0951,-78.7500,-11.2500,19.5000,-4.4000,-2.8200,-8.5500,0.2596,-0.3054,0.0589,10.1875,10.7500,40.8750,237.3125,-27.5000,161.3750,0
1776973835.841,10.2855,-1.0654,2.5235,-0.3048,0.3187,0.7509,-73.8000,2.8500,3.0000,9.7468,0.2825,3.3303,-0.5556,0.1079,0.0951,-78.7500,-11.2500,19.5000,-4.4000,-2.8200,-8.5500,0.2989,-0.3425,0.0676,10.1875,10.7500,40.8750,237.3125,-27.6875,161.1875,0
1776973835.846,10.0987,-0.9912,2.6671,-0.3296,0.3240,0.7560,-75.3000,2.4000,2.7000,9.8617,0.3328,3.5123,-0.5127,0.1092,0.0973,-78.7500,-11.2500,19.5000,-4.4500,-2.6200,-8.6500,0.2989,-0.3425,0.0676,10.1875,10.7500,40.8750,237.3125,-27.6875,161.1875,0
1776973835.851,10.0987,-0.9912,2.6671,-0.3296,0.3240,0.7560,-75.3000,2.4000,2.7000,9.8617,0.3328,3.5123,-0.5127,0.1092,0.0973,-79.5000,-11.5500,20.2500,-4.4500,-2.6200,-8.6500,0.3163,-0.4058,0.0796,10.1875,10.7500,40.8750,237.3750,-27.9375,161.0000,0
1776973835.856,9.9335,-0.3591,2.6049,-0.3195,0.3003,0.7634,-73.9500,1.0500,2.8500,9.9742,0.6081,3.6368,-0.4399,0.1130,0.0882,-79.5000,-11.5500,20.2500,-4.3200,-3.1900,-8.7200,0.3163,-0.4058,0.0796,10.1875,10.7500,40.8750,237.4375,-28.1875,160.8125,0
1776973835.865,9.9982,-0.1317,2.3008,-0.2864,0.3142,0.7850,-73.6500,-0.3000,2.1000,10.0868,0.8667,3.5793,-0.3408,0.0858,0.0701,-78.6000,-11.4000,19.3500,-4.5200,-2.4800,-8.6900,0.2934,-0.5083,0.0894,10.1875,10.7500,40.8750,237.4375,-28.1875,160.8125,0
1776973835.875,10.0556,-0.4166,2.1668,-0.2819,0.3230,0.8207,-73.6500,-0.3000,2.1000,10.0197,1.1372,3.4357,-0.2598,0.0565,0.0426,-78.0000,-11.5500,20.5500,-4.5500,-2.6400,-8.6300,0.3523,-0.5520,0.0938,10.1875,10.7500,40.8750,237.5000,-28.5000,160.6250,0
1776973835.880,10.0556,-0.4166,2.1668,-0.2819,0.3230,0.8207,-73.6500,-0.3000,2.1000,10.0197,1.1372,3.4357,-0.1980,0.0450,0.0115,-78.7500,-11.2500,20.5500,-4.5500,-2.6400,-8.6300,0.3523,-0.5520,0.0938,10.1875,10.7500,40.8750,237.5000,-28.5000,160.6250,0
1776973835.885,10.1370,-0.6345,2.0758,-0.2678,0.3312,0.8577,-72.6000,0.1500,3.7500,10.1035,1.2905,3.1843,-0.1980,0.0450,0.0115,-78.7500,-11.2500,20.5500,-4.4800,-2.9200,-8.5400,0.3774,-0.5705,0.0905,10.1875,11.8750,40.0625,238.3750,-28.8125,160.3750,0
1776973835.890,10.1370,-0.6345,2.0758,-0.2678,0.3312,0.8577,-72.6000,0.1500,3.7500,9.6630,1.4796,3.0526,-0.1724,0.0930,-0.0192,-78.7500,-11.2500,20.5500,-4.4800,-2.9200,-8.5400,0.3774,-0.5705,0.0905,10.1875,11.8750,40.0625,238.3750,-28.8125,160.3750,0
1776973835.895,10.1610,-0.7805,1.9872,-0.2848,0.3371,0.8823,-73.0500,-0.4500,3.4500,9.6630,1.4796,3.0526,-0.1724,0.0930,-0.0192,-78.7500,-11.2500,20.5500,-4.4500,-2.9600,-8.6000,0.4069,-0.6283,0.1080,10.1875,11.8750,40.0625,238.4375,-29.0625,160.1250,0
1776973835.900,10.1610,-0.7805,1.9872,-0.2848,0.3371,0.8823,-73.0500,-0.4500,3.4500,10.2472,1.5658,2.6983,-0.0453,-0.0181,-0.0538,-78.7500,-11.5500,21.0000,-4.4500,-2.9600,-8.6000,0.4069,-0.6283,0.1080,10.1875,11.8750,40.0625,238.5000,-29.4375,159.9375,0
1776973835.906,10.2352,-1.0175,1.7765,-0.3190,0.3616,0.9212,-73.3500,-0.1500,4.9500,10.2472,1.5658,2.6983,-0.0453,-0.0181,-0.0538,-78.7500,-11.5500,21.0000,-4.4700,-2.9500,-8.6700,0.4112,-0.7101,0.1440,10.1875,11.8750,40.0625,238.5000,-29.4375,159.9375,0
1776973835.912,10.1873,-1.2785,1.6496,-0.3608,0.3770,0.9483,-73.3500,-0.1500,4.9500,10.1179,1.4772,2.6695,-0.1066,0.0986,-0.0933,-77.5500,-10.6500,19.0500,-4.5800,-2.8600,-8.4800,0.4232,-0.8138,0.1713,10.1875,11.8750,40.0625,238.5625,-29.8750,159.6875,0
1776973835.917,10.1873,-1.2785,1.6496,-0.3608,0.3770,0.9483,-72.9000,-0.3000,4.3500,10.1179,1.4772,2.6695,-0.1066,0.0986,-0.0933,-77.5500,-10.6500,19.0500,-4.5800,-2.8600,-8.4800,0.4232,-0.8138,0.1713,10.1875,11.8750,40.0625,238.6875,-30.3125,159.4375,0
1776973835.926,10.1227,-1.2306,1.4078,-0.4114,0.4040,0.9699,-73.6500,-1.9500,3.3000,9.9814,1.5155,2.3559,0.0147,-0.0067,-0.1394,-78.4500,-12.3000,20.5500,-4.5600,-2.9400,-8.5200,0.4265,-0.9283,0.2040,10.1875,11.8750,40.0625,238.6875,-30.3125,159.4375,0
1776973835.931,10.1754,-1.2115,1.3862,-0.4114,0.4040,0.9699,-73.6500,-1.9500,3.3000,10.2065,1.4293,2.0566,0.0309,0.0107,-0.1807,-78.1500,-11.7000,19.3500,-4.5600,-2.9400,-8.5200,0.4265,-0.9283,0.2040,10.8750,11.8750,39.1875,239.5000,-30.8750,159.1250,0
1776973835.936,10.1754,-1.2115,1.3862,-0.4612,0.4295,1.0008,-74.5500,-2.4000,4.9500,10.2065,1.4293,2.0566,0.0309,0.0107,-0.1807,-78.1500,-11.7000,19.3500,-4.4700,-3.3600,-8.7800,0.4287,-1.0876,0.2574,10.8750,11.8750,39.1875,239.5000,-30.8750,159.1250,0
1776973835.940,10.2544,-1.1253,1.1157,-0.4826,0.4338,1.0150,-74.5500,-2.4000,4.9500,10.1634,1.3144,1.8148,0.1005,-0.0346,-0.2094,-78.1500,-11.7000,19.3500,-4.4700,-3.3600,-8.7800,0.4287,-1.0876,0.2574,10.8750,11.8750,39.1875,239.6250,-31.4375,158.9375,0
1776973835.946,10.2544,-1.1253,1.1157,-0.4826,0.4338,1.0150,-74.5500,-2.4000,4.9500,10.1634,1.3144,1.8148,0.1005,-0.0346,-0.2094,-78.1500,-11.7000,19.3500,-4.5900,-2.4400,-8.6800,0.3611,-1.2130,0.3022,10.8750,11.8750,39.1875,239.6250,-31.4375,158.9375,0
1776973835.950,10.1394,-1.3695,1.2713,-0.4439,0.4325,1.0456,-74.5500,-2.4000,4.9500,9.9479,1.1779,1.6568,0.1266,-0.0794,-0.2217,-79.0500,-12.3000,17.4000,-4.5900,-2.4400,-8.6800,0.4123,-1.2872,0.3578,10.8750,11.8750,39.1875,239.7500,-32.1250,158.7500,0
1776973835.956,10.1394,-1.3695,1.2713,-0.4439,0.4325,1.0456,-71.8500,-4.0500,5.7000,9.9479,1.1779,1.6568,0.1266,-0.0794,-0.2217,-79.0500,-12.3000,17.4000,-4.5600,-2.6400,-8.3600,0.4123,-1.2872,0.3578,10.8750,11.8750,39.1875,239.9375,-32.9375,158.4375,0
1776973835.966,9.9527,-1.5945,1.3384,-0.4202,0.4357,1.0845,-71.8500,-4.0500,5.7000,9.8067,1.1899,1.4940,0.1069,-0.0805,-0.2297,-77.8500,-11.4000,17.2500,-4.8900,-2.5400,-8.2900,0.4571,-1.3995,0.4134,10.8750,11.8750,39.1875,239.9375,-32.9375,158.4375,0
1776973835.976,9.7396,-1.7286,1.4844,-0.4282,0.4450,1.1162,-73.9500,-4.9500,4.0500,9.7252,1.2258,1.3264,0.0658,-0.1223,-0.2321,-78.0000,-13.0500,17.4000,-5.0300,-2.6500,-8.1800,0.4832,-1.5021,0.4581,10.8750,11.8750,39.1875,240.1250,-33.8125,158.1250,0
1776973835.980,9.7252,-1.9273,1.6568,-0.4165,0.4652,1.1535,-73.9500,-4.9500,4.0500,9.5337,1.4581,1.1349,-0.0005,-0.1873,-0.2545,-78.7500,-13.5000,17.4000,-5.0300,-2.6500,-8.1800,0.4832,-1.5021,0.4581,10.8750,11.8750,39.1875,240.1250,-33.8125,158.1250,0
1776973835.985,9.7252,-1.9273,1.6568,-0.4165,0.4652,1.1535,-73.6500,-4.9500,5.8500,9.5337,1.4581,1.1349,-0.0005,-0.1873,-0.2545,-78.7500,-13.5000,17.4000,-5.1100,-2.6400,-8.0100,0.4767,-1.5643,0.5083,13.8750,13.3750,38.8750,241.0625,-34.6875,157.8125,0
1776973835.990,9.6869,-1.5299,1.6616,-0.3797,0.4738,1.1898,-73.6500,-4.9500,5.8500,9.5888,1.6712,0.8571,-0.0898,-0.2737,-0.2952,-76.9500,-13.5000,17.4000,-5.1100,-2.6400,-8.0100,0.4767,-1.5643,0.5083,13.8750,13.3750,38.8750,241.0625,-34.6875,157.8125,0
1776973835.995,9.6869,-1.5299,1.6616,-0.3797,0.4738,1.1898,-72.9000,-5.8500,6.1500,9.5888,1.6712,0.8571,-0.0898,-0.2737,-0.2952,-76.9500,-13.5000,17.4000,-5.3600,-2.4600,-7.8700,0.5007,-1.6384,0.5367,13.8750,13.3750,38.8750,241.2500,-35.6875,157.5000,0
1776973836.000,9.9503,-1.0750,1.2761,-0.4415,0.5105,1.2508,-72.9000,-5.8500,6.1500,9.3565,2.0303,0.6536,-0.2153,-0.4477,-0.3451,-76.9500,-13.5000,17.4000,-5.3600,-2.4600,-7.8700,0.5443,-1.7279,0.5618,13.8750,13.3750,38.8750,241.5000,-36.6875,157.1250,0
1776973836.006,9.9503,-1.0750,1.2761,-0.4415,0.5105,1.2508,-72.6000,-5.2500,5.2500,9.1650,2.1955,0.2011,-0.2481,-0.6723,-0.4072,-76.9500,-13.5000,17.4000,-5.5100,-2.5000,-7.8300,0.5443,-1.7279,0.5618,13.8750,13.3750,38.8750,241.7500,-37.7500,156.6875,0
1776973836.015,10.2639,-0.6345,1.1325,-0.5489,0.5377,1.3227,-70.5000,-5.8500,6.6000,9.1650,2.1955,0.2011,-0.2481,-0.6723,-0.4072,-78.1500,-14.4000,14.7000,-5.3900,-2.6100,-7.9500,0.6032,-1.8479,0.5934,13.8750,13.3750,38.8750,242.0625,-38.8750,156.2500,0
1776973836.026,10.5393,0.1867,0.6273,-0.6534,0.5116,1.4208,-71.8500,-7.5000,7.2000,8.5281,2.4828,-0.8619,-0.0248,-1.3030,-0.5337,-77.2500,-14.5500,15.3000,-5.4200,-2.9000,-7.8900,0.6120,-1.9809,0.6305,13.8750,13.3750,38.8750,242.0625,-38.8750,156.2500,0
1776973836.031,10.6326,0.9361,-0.1987,-0.7480,0.5452,1.5439,-71.8500,-7.5000,7.2000,8.5281,2.4828,-0.8619,-0.0248,-1.3030,-0.5337,-78.0000,-12.7500,14.5500,-5.4200,-2.9000,-7.8900,0.6120,-1.9809,0.6305,13.8750,13.3750,38.8750,242.0625,-38.8750,156.2500,0
1776973836.036,10.7308,1.0008,-1.1061,-0.7480,0.5452,1.5439,-71.8500,-7.5000,7.2000,8.3749,2.6288,-0.7015,0.4716,-1.5607,-0.6334,-78.0000,-12.7500,14.5500,-5.3900,-2.9900,-7.9200,0.6370,-2.1588,0.6807,16.3750,13.0000,38.0625,294.6875,-40.1250,155.8125,0
1776973836.041,10.7308,1.0008,-1.1061,-0.9014,0.5947,1.6553,-71.8500,-7.5000,7.2000,8.3749,2.6288,-0.7015,0.4716,-1.5607,-0.6334,-78.4500,-15.0000,14.5500,-5.3900,-2.9900,-7.9200,0.6370,-2.1588,0.6807,16.3750,13.0000,38.0625,294.6875,-40.1250,155.8125,0
1776973836.046,10.3980,0.3041,-1.5467,-0.9014,0.5947,1.6553,-72.4500,-8.1000,7.3500,8.3582,3.5985,-0.4453,0.6398,-1.4573,-0.7725,-78.4500,-15.0000,14.5500,-5.3100,-3.4500,-7.8900,0.6534,-2.3442,0.7505,16.3750,13.0000,38.0625,293.6875,-41.5000,155.3125,0
1776973836.050,10.3980,0.3041,-1.5467,-1.0277,0.6563,1.7064,-72.4500,-8.1000,7.3500,8.3582,3.5985,-0.4453,0.6398,-1.4573,-0.7725,-78.4500,-15.0000,14.5500,-5.3100,-3.4500,-7.8900,0.5945,-2.5962,0.8596,16.3750,13.0000,38.0625,292.5625,-43.0000,154.8125,0
1776973836.056,9.7683,0.0527,-1.2833,-0.9915,0.7432,1.6920,-70.8000,-11.1000,7.5000,8.5736,3.0526,-1.4700,0.6566,-1.6017,-0.9188,-77.8500,-11.7000,13.6500,-5.6100,-4.3900,-7.8700,0.5945,-2.5962,0.8596,16.3750,13.0000,38.0625,291.1250,-44.6875,154.3750,0
1776973836.066,9.5265,-0.0982,-0.9984,-0.9302,0.8556,1.6830,-70.5000,-11.2500,8.4000,9.0860,2.3607,-1.4102,0.7909,-1.6132,-0.9438,-77.8500,-11.7000,13.6500,-5.7800,-4.5100,-7.7600,0.5138,-2.8460,1.0232,16.3750,13.0000,38.0625,291.1250,-44.6875,154.3750,0
1776973836.076,9.8545,-0.4286,-0.0862,-0.8495,0.9433,1.6702,-70.8000,-12.3000,8.7000,9.1387,2.1883,-0.7422,1.1223,-1.6611,-0.9385,-77.2500,-13.5000,13.8000,-6.1100,-4.1300,-7.8700,0.4320,-3.0696,1.2021,16.3750,13.0000,38.0625,289.5625,-46.5000,154.0000,0
1776973836.080,9.8545,-0.4286,-0.0862,-0.8495,0.9433,1.6702,-70.8000,-12.3000,8.7000,9.1387,2.1883,-0.7422,1.1223,-1.6611,-0.9385,-77.1000,-13.9500,10.5000,-6.1100,-4.1300,-7.8700,0.4320,-3.0696,1.2021,16.3750,13.0000,38.0625,287.8125,-48.5000,153.6250,0
1776973836.086,10.4052,-0.4405,0.9864,-0.6603,0.9968,1.6974,-70.2000,-13.9500,9.1500,9.5505,2.3822,-0.3400,1.3057,-1.6134,-0.9766,-76.9500,-13.0500,11.7000,-7.3800,-3.5800,-8.2900,0.3763,-3.3172,1.3592,19.6875,13.3750,34.8750,287.8125,-48.5000,153.6250,0
1776973836.090,10.4052,-0.4405,0.9864,-0.6603,0.9968,1.6974,-70.2000,-13.9500,9.1500,9.5505,2.3822,-0.3400,1.3057,-1.6134,-0.9766,-76.9500,-13.0500,11.7000,-7.3800,-3.5800,-8.2900,0.3763,-3.3172,1.3592,19.6875,13.3750,34.8750,286.0000,-50.6250,153.2500,0
1776973836.095,10.9319,-0.3974,1.8172,-0.4317,1.0142,1.7192,-70.2000,-14.8500,8.8500,9.7540,2.4756,-0.1987,1.5047,-1.7874,-1.0523,-76.3500,-12.9000,10.5000,-7.8500,-3.3200,-8.5500,0.3523,-3.5507,1.4454,19.6875,13.3750,34.8750,286.0000,-50.6250,153.2500,0
1776973836.100,10.9319,-0.3974,1.8172,-0.4317,1.0142,1.7192,-70.2000,-14.8500,8.8500,9.7540,2.4756,-0.1987,1.5047,-1.7874,-1.0523,-76.3500,-12.9000,10.5000,-7.8500,-3.3200,-8.5500,0.3480,-3.7743,1.4933,19.6875,13.3750,34.8750,284.1875,-52.8125,152.7500,0
1776973836.106,11.1187,0.1341,3.0071,-0.2654,0.9963,1.6968,-70.2000,-14.8500,8.8500,10.2639,2.3703,0.0982,1.5076,-1.8215,-1.1175,-76.3500,-12.9000,10.5000,-8.8800,-3.4300,-8.5800,0.3480,-3.7743,1.4933,19.6875,13.3750,34.8750,282.4375,-55.1875,152.2500,0
1776973836.116,11.1498,-0.0072,3.7996,-0.1551,0.9545,1.5561,-68.4000,-15.0000,9.0000,10.7524,2.0423,0.6584,1.5199,-1.8732,-1.1754,-76.8000,-11.7000,9.0000,-10.7300,-4.4500,-8.3900,0.3687,-3.9543,1.5326,19.6875,13.3750,34.8750,282.4375,-55.1875,152.2500,0
1776973836.126,11.0253,0.0862,4.9560,0.2300,1.0008,1.3763,-68.4000,-15.0000,9.0000,10.8529,1.4820,1.1756,1.4064,-1.8165,-1.2324,-76.3500,-10.9500,7.6500,-11.8000,-4.9200,-8.5200,0.3872,-4.0263,1.5708,19.6875,13.3750,34.8750,280.7500,-57.5625,151.5625,0
