timestamp,thigh_acc_x,thigh_acc_y,thigh_acc_z,thigh_gyro_x,thigh_gyro_y,thigh_gyro_z,thigh_mag_x,thigh_mag_y,thigh_mag_z,shank_acc_x,shank_acc_y,shank_acc_z,shank_gyro_x,shank_gyro_y,shank_gyro_z,shank_mag_x,shank_mag_y,shank_mag_z,foot_acc_x,foot_acc_y,foot_acc_z,foot_gyro_x,foot_gyro_y,foot_gyro_z,foot_mag_x,foot_mag_y,foot_mag_z,foot_euler_x,foot_euler_y,foot_euler_z,perturbation_event
1776971582.784,10.2831,1.5083,3.8571,-2.8759,0.3901,0.3432,-88.8000,-9.7500,-9.9000,9.0716,3.5027,-0.5076,0.2843,0.7898,-0.0061,-39.1500,7.5000,41.5500,6.3900,1.0400,-7.5800,0.1298,0.2934,0.2269,-23.7500,10.6875,30.7500,320.0625,38.1250,-174.5625,0
1776971582.793,10.6901,1.0942,6.2345,-2.4296,0.1892,0.2838,-90.9000,-8.7000,-11.2500,9.6486,2.2769,1.0630,0.0994,0.9204,0.1127,-40.5000,7.5000,40.5000,6.6000,0.4000,-7.9600,0.1527,0.0774,0.3316,-23.7500,10.6875,30.7500,320.1875,38.1875,-174.8125,0
1776971582.803,9.3685,0.1030,6.6702,-1.8269,-0.0035,0.2782,-89.7000,-9.4500,-12.0000,10.7260,1.3431,2.0231,-0.1268,1.4986,0.3176,-40.5000,6.4500,42.4500,6.7700,0.1500,-8.0600,0.0960,-0.0611,0.3796,-23.7500,10.6875,30.7500,320.3750,38.1875,-175.0000,0
1776971582.807,9.3685,0.1030,6.6702,-1.8269,-0.0035,0.2782,-89.8500,-10.9500,-10.6500,11.2336,1.4413,2.0590,-0.4271,1.4410,0.4090,-40.5000,6.4500,42.4500,6.7700,0.1500,-8.0600,0.0960,-0.0611,0.3796,-23.7500,10.6875,30.7500,320.3750,38.1875,-175.0000,0
1776971582.812,8.6814,-0.6560,5.5809,-1.4839,0.0903,0.3272,-89.8500,-10.9500,-10.6500,11.2336,1.4413,2.0590,-0.4271,1.4410,0.4090,-40.5000,6.4500,42.4500,6.8900,0.1100,-7.8800,0.0993,0.1702,0.2880,-24.1875,10.7500,32.0000,320.5625,38.2500,-175.1875,0
1776971582.817,8.6814,-0.6560,5.5809,-1.4839,0.0903,0.3272,-90.6000,-10.0500,-11.1000,9.8976,2.4253,1.0582,-0.4586,1.2750,0.2982,-37.3500,5.2500,43.3500,6.8900,0.1100,-7.8800,0.0993,0.1702,0.2880,-24.1875,10.7500,32.0000,320.5625,38.2500,-175.1875,0
1776971582.822,8.8633,-0.7230,3.9241,-1.0557,0.1050,0.4167,-90.6000,-10.0500,-11.1000,9.8976,2.4253,1.0582,-0.4586,1.2750,0.2982,-37.3500,5.2500,43.3500,6.7700,0.2100,-8.0800,0.1102,0.4058,0.1593,-24.1875,10.7500,32.0000,320.6250,38.5000,-175.3125,0
1776971582.827,8.8633,-0.7230,3.9241,-1.0557,0.1050,0.4167,-88.9500,-11.1000,-12.0000,9.9335,3.6440,0.2394,-0.4024,1.0882,0.3280,-39.4500,5.2500,45.1500,6.7700,0.2100,-8.0800,0.1102,0.4058,0.1593,-24.1875,10.7500,32.0000,320.6250,38.7500,-175.3750,0
1776971582.834,9.0573,-1.4916,2.5019,-0.6073,0.1514,0.4924,-88.9500,-11.1000,-12.0000,9.5648,3.9193,-0.4717,-0.2771,0.8756,0.3640,-37.3500,6.0000,46.2000,6.8700,0.4700,-7.5700,0.1113,0.4712,0.0807,-24.1875,10.7500,32.0000,320.5625,39.0000,-175.5625,0
1776971582.844,9.3661,-2.4277,1.8723,-0.4215,0.2300,0.5335,-87.7500,-11.8500,-10.8000,8.8538,4.4005,-0.8428,-0.1825,0.5337,0.3168,-37.5000,5.7000,44.2500,6.4700,0.7300,-7.6000,0.2574,0.3894,0.0327,-24.1875,10.7500,32.0000,320.5625,39.0000,-175.5625,0
1776971582.854,9.3757,-2.1931,2.4948,-0.4525,0.3800,0.5433,-87.7500,-11.8500,-10.8000,9.0812,4.0654,-0.6632,-0.0600,0.3549,0.2454,-38.1000,4.5000,45.9000,6.3100,0.7100,-7.5400,0.3545,0.2313,0.0153,-24.1875,10.7500,32.0000,320.5000,39.1250,-175.7500,0
1776971582.859,9.8330,-2.2027,2.9808,-0.5670,0.4652,0.4943,-89.5500,-12.4500,-10.3500,9.0812,4.0654,-0.6632,-0.0600,0.3549,0.2454,-38.1000,4.5000,45.9000,6.3100,0.7100,-7.5400,0.3545,0.2313,0.0153,-24.1875,10.7500,32.0000,320.5000,39.1250,-175.7500,0
1776971582.864,9.8330,-2.2027,2.9808,-0.5670,0.4652,0.4943,-89.5500,-12.4500,-10.3500,9.2129,4.1132,-0.5483,-0.0093,0.2763,0.2105,-38.1000,4.5000,45.9000,6.3000,0.7000,-7.5200,0.2640,0.1844,0.0011,-24.5625,11.1875,31.1875,320.4375,39.2500,-175.8750,0
1776971582.869,9.7229,-0.5531,3.4069,-0.6480,0.5089,0.4439,-89.5500,-12.4500,-10.3500,9.2129,4.1132,-0.5483,-0.0093,0.2763,0.2105,-38.1000,4.5000,45.9000,6.3000,0.7000,-7.5200,0.2640,0.1844,0.0011,-24.5625,11.1875,31.1875,320.4375,39.2500,-175.8750,0
1776971582.874,9.7229,-0.5531,3.4069,-0.6480,0.5089,0.4439,-89.5500,-12.4500,-10.3500,9.1123,3.7469,-0.3017,-0.0256,0.3035,0.2065,-37.9500,4.6500,45.7500,6.4200,0.5600,-7.6100,0.1604,0.1484,-0.0033,-24.5625,11.1875,31.1875,320.4375,39.3125,-175.9375,0
1776971582.882,9.4475,0.7614,3.4836,-0.6606,0.4663,0.3973,-89.7000,-13.0500,-10.5000,9.1123,3.7469,-0.3017,-0.0256,0.3035,0.2065,-37.9500,4.6500,45.7500,6.4500,0.6100,-7.5300,0.1200,0.1156,0.0044,-24.5625,11.1875,31.1875,320.3750,39.3750,-176.0000,0
1776971582.887,9.3518,1.8723,3.0358,-0.6606,0.4663,0.3973,-89.5500,-12.0000,-10.6500,9.1746,3.5362,0.1532,-0.2236,0.3493,0.2388,-38.2500,4.9500,45.7500,6.4500,0.6100,-7.5300,0.1200,0.1156,0.0044,-24.5625,11.1875,31.1875,320.3750,39.4375,-176.0625,0
1776971582.894,9.3518,1.8723,3.0358,-0.5476,0.4072,0.3477,-89.5500,-12.0000,-10.6500,8.8298,3.0478,0.2610,-0.5710,0.4277,0.3003,-38.1000,4.8000,45.9000,6.4800,0.5400,-7.5600,0.1025,0.0927,0.0087,-24.5625,11.1875,31.1875,320.3750,39.4375,-176.0625,0
1776971582.901,9.2919,1.8555,2.4588,-0.3816,0.3488,0.2657,-89.7000,-12.3000,-10.5000,8.8298,3.0478,0.2610,-0.8306,0.5620,0.3600,-38.1000,4.8000,45.9000,6.4300,0.4700,-7.6000,0.0687,0.0698,0.0109,-24.5625,11.1875,31.1875,320.3750,39.4375,-176.1250,0
1776971582.906,9.3374,1.4844,1.9178,-0.3816,0.3488,0.2657,-89.7000,-12.3000,-10.5000,9.1099,2.6240,-0.0718,-0.8306,0.5620,0.3600,-39.3000,4.9500,47.5500,6.4300,0.4700,-7.6000,0.0687,0.0698,0.0109,-24.5625,11.1875,31.1875,320.3750,39.4375,-176.1250,0
1776971582.911,9.3374,1.4844,1.9178,-0.2164,0.2710,0.1793,-90.4500,-15.7500,-10.8000,9.1099,2.6240,-0.0718,-0.9081,0.6297,0.3728,-39.3000,4.9500,47.5500,6.2800,0.5400,-7.5900,0.0284,0.0578,0.0055,-25.2500,12.0000,30.0000,320.3750,39.5000,-176.1250,0
1776971582.916,9.2751,0.3136,1.6520,-0.2164,0.2710,0.1793,-90.4500,-15.7500,-10.8000,9.1626,2.3248,-0.6369,-0.9081,0.6297,0.3728,-38.2500,4.6500,46.3500,6.2800,0.5400,-7.5900,0.0284,0.0578,0.0055,-25.2500,12.0000,30.0000,320.3750,39.5000,-176.1250,0
1776971582.921,9.2751,0.3136,1.6520,-0.1228,0.2670,0.1162,-89.1000,-14.4000,-11.1000,9.1626,2.3248,-0.6369,-0.7986,0.5937,0.3432,-38.2500,4.6500,46.3500,6.3000,0.5200,-7.5500,0.0164,0.0611,-0.0065,-25.2500,12.0000,30.0000,320.3750,39.5625,-176.1250,0
1776971582.926,9.3134,-0.4764,1.3910,-0.1228,0.2670,0.1162,-89.1000,-14.4000,-11.1000,9.3182,2.6073,-0.7422,-0.7986,0.5937,0.3432,-38.2500,4.6500,46.3500,6.3000,0.5200,-7.5500,0.0164,0.0611,-0.0065,-25.2500,12.0000,30.0000,320.3750,39.5625,-176.1250,0
1776971582.930,9.3134,-0.4764,1.3910,-0.1820,0.2987,0.1007,-88.8000,-15.1500,-8.8500,9.3182,2.6073,-0.7422,-0.5590,0.4903,0.3080,-38.2500,4.6500,46.3500,6.2300,0.5400,-7.5600,0.0164,0.0665,-0.0022,-25.2500,12.0000,30.0000,320.3750,39.5625,-176.1250,0
1776971582.935,9.5098,-1.1851,1.1708,-0.1820,0.2987,0.1007,-88.8000,-15.1500,-8.8500,9.5744,2.6647,-0.6919,-0.5590,0.4903,0.3080,-37.9500,4.9500,46.0500,6.2300,0.5400,-7.5600,0.0164,0.0665,-0.0022,-25.2500,12.0000,30.0000,320.3125,39.6250,-176.1875,0
1776971582.944,9.4810,-1.6424,1.0678,-0.3280,0.2801,0.1242,-88.8000,-15.1500,-8.8500,9.6295,2.4110,-0.4334,-0.3339,0.3826,0.2769,-37.5000,2.7000,48.1500,6.2300,0.5600,-7.5100,0.0229,0.0502,-0.0065,-25.2500,12.0000,30.0000,320.3125,39.6250,-176.1875,0
1776971582.952,9.4810,-1.6424,1.0678,-0.5865,0.2931,0.1623,-89.8500,-13.6500,-9.9000,9.3111,2.2984,-0.0455,-0.2190,0.3182,0.2289,-39.1500,3.3000,47.7000,6.2000,0.5500,-7.5300,0.0491,0.0447,-0.0044,-25.2500,12.0000,30.0000,320.3125,39.6250,-176.1875,0
1776971582.957,9.4954,-1.4198,1.2091,-0.8865,0.2419,0.1783,-89.8500,-13.6500,-9.9000,9.3111,2.2984,-0.0455,-0.2190,0.3182,0.2289,-39.1500,3.3000,47.7000,6.2000,0.5500,-7.5300,0.0491,0.0447,-0.0044,-25.2500,12.0000,30.0000,320.3125,39.6250,-176.1875,0
1776971582.962,9.4954,-1.4198,1.2091,-0.8865,0.2419,0.1783,-89.4000,-13.8000,-10.0500,9.2512,2.2553,0.4238,-0.1553,0.3280,0.2001,-37.2000,3.4500,47.8500,6.3300,0.5600,-7.5000,0.1167,0.0698,-0.0196,-24.5625,11.5625,29.5625,320.3125,39.6875,-176.2500,0
1776971582.966,9.6965,-1.4341,1.6400,-1.1575,0.1724,0.1871,-89.4000,-13.8000,-10.0500,9.2512,2.2553,0.4238,-0.1553,0.3280,0.2001,-37.2000,3.4500,47.8500,6.3300,0.5600,-7.5000,0.1167,0.0698,-0.0196,-24.5625,11.5625,29.5625,320.3125,39.6875,-176.2500,0
1776971582.971,9.6965,-1.4341,1.6400,-1.1575,0.1724,0.1871,-88.8000,-13.9500,-8.8500,9.3350,2.3056,0.6608,-0.2073,0.3800,0.1958,-38.4000,3.0000,47.7000,6.3600,0.5100,-7.5000,0.1167,0.0698,-0.0196,-24.5625,11.5625,29.5625,320.2500,39.6875,-176.3125,0
1776971582.976,9.5624,-1.3623,1.9537,-1.4109,0.1116,0.1823,-88.8000,-13.9500,-8.8500,9.3350,2.3056,0.6608,-0.2073,0.3800,0.1958,-38.4000,3.0000,47.7000,6.3600,0.5100,-7.5000,0.1167,0.0698,-0.0196,-24.5625,11.5625,29.5625,320.2500,39.6875,-176.3125,0
1776971582.981,9.5624,-1.3623,1.9537,-1.4109,0.1116,0.1823,-88.8000,-14.8500,-9.1500,9.3087,2.3272,0.7494,-0.3243,0.4239,0.2076,-38.4000,3.0000,47.7000,6.2500,0.4300,-7.5600,0.1364,0.0807,-0.0109,-24.5625,11.5625,29.5625,320.2500,39.7500,-176.3750,0
1776971582.986,9.5265,-1.2833,2.3367,-1.5689,0.0616,0.1663,-88.8000,-14.8500,-9.1500,9.3087,2.3272,0.7494,-0.3243,0.4239,0.2076,-38.4000,3.0000,47.7000,6.2500,0.4300,-7.5600,0.1364,0.0807,-0.0109,-24.5625,11.5625,29.5625,320.1875,39.8125,-176.4375,0
1776971582.994,9.4164,-1.1157,2.6767,-1.6174,0.0104,0.1476,-88.2000,-15.0000,-10.0500,9.5074,2.0662,0.5890,-0.4567,0.4373,0.2268,-37.5000,3.4500,48.6000,6.4200,0.4100,-7.5500,0.1691,0.1102,-0.0284,-24.5625,11.5625,29.5625,320.1875,39.8125,-176.4375,0
1776971583.000,9.4164,-1.1157,2.6767,-1.6174,0.0104,0.1476,-89.5500,-14.4000,-9.1500,9.4882,2.2290,0.5076,-0.6592,0.4106,0.2507,-37.0500,3.7500,50.1000,6.1100,0.4200,-7.4300,0.2978,0.2542,-0.0971,-24.5625,11.5625,29.5625,320.0625,39.9375,-176.5625,0
1776971583.005,9.2799,-0.7183,2.9640,-1.5934,-0.0019,0.1247,-89.5500,-14.4000,-9.1500,9.4882,2.2290,0.5076,-0.6592,0.4106,0.2507,-37.0500,3.7500,50.1000,6.1100,0.4200,-7.4300,0.2978,0.2542,-0.0971,-24.5625,11.5625,29.5625,320.0625,39.9375,-176.5625,0
1776971583.010,9.2799,-0.7183,2.9640,-1.5934,-0.0019,0.1247,-89.5500,-14.4000,-9.1500,9.5170,2.3320,0.3567,-0.8668,0.3776,0.2686,-38.1000,1.8000,48.0000,6.1100,0.4200,-7.4300,0.3425,0.3534,-0.0960,-25.2500,11.1875,31.1875,319.9375,40.1250,-176.6875,0
1776971583.015,9.4212,-0.4310,3.1939,-1.4970,0.0021,0.1159,-89.5500,-14.4000,-9.1500,9.5170,2.3320,0.3567,-0.8668,0.3776,0.2686,-38.1000,1.8000,48.0000,6.3800,0.4200,-7.2900,0.3425,0.3534,-0.0960,-25.2500,11.1875,31.1875,319.9375,40.1250,-176.6875,0
1776971583.020,9.4212,-0.4310,3.1939,-1.4970,0.0021,0.1159,-88.2000,-15.0000,-9.0000,9.7061,2.2003,0.2179,-0.9769,0.2417,0.2566,-37.5000,3.1500,48.6000,6.3800,0.4200,-7.2900,0.4200,0.4200,-0.1418,-25.2500,11.1875,31.1875,319.7500,40.3750,-176.8125,0
1776971583.025,9.3063,0.0551,3.2441,-1.3464,0.0378,0.1116,-88.2000,-15.0000,-9.0000,9.7061,2.2003,0.2179,-0.9769,0.2417,0.2566,-37.5000,3.1500,48.6000,6.0700,0.5400,-7.5400,0.4200,0.4200,-0.1418,-25.2500,11.1875,31.1875,319.7500,40.3750,-176.8125,0
1776971583.030,9.3063,0.0551,3.2441,-1.3464,0.0378,0.1116,-88.2000,-15.0000,-9.0000,9.5265,2.4565,0.0982,-1.0760,0.1415,0.2593,-38.1000,2.2500,48.7500,6.0700,0.5400,-7.5400,0.3916,0.4800,-0.1309,-25.2500,11.1875,31.1875,319.6250,40.6250,-177.0000,0
1776971583.035,9.2799,0.3735,2.9951,-1.1540,0.1090,0.1114,-88.2000,-15.0000,-9.0000,9.5265,2.4565,0.0982,-1.0760,0.1415,0.2593,-38.1000,2.2500,48.7500,6.2600,0.5700,-7.2800,0.3916,0.4800,-0.1309,-25.2500,11.1875,31.1875,319.6250,40.6250,-177.0000,0
1776971583.044,9.5074,0.5387,2.5786,-0.9894,0.1471,0.0983,-89.7000,-14.2500,-12.0000,9.3111,2.7390,-0.2155,-1.0973,0.0586,0.2494,-38.1000,2.2500,48.7500,6.4900,0.4600,-7.4100,0.3480,0.5040,-0.1058,-25.2500,11.1875,31.1875,319.4375,40.8750,-177.1250,0
1776971583.049,9.5074,0.5387,2.5786,-0.9894,0.1471,0.0983,-90.3000,-15.6000,-10.3500,9.1602,2.2960,-0.4238,-1.0195,0.0967,0.2888,-38.1000,2.2500,48.7500,6.4900,0.4600,-7.4100,0.2771,0.5018,-0.0742,-25.2500,11.1875,31.1875,319.3750,41.1875,-177.1875,0
1776971583.055,9.6319,0.6823,1.9848,-0.8823,0.1180,0.0906,-90.3000,-15.6000,-10.3500,9.1602,2.2960,-0.4238,-1.0195,0.0967,0.2888,-38.2500,1.9500,48.1500,6.4700,0.4300,-7.3100,0.2771,0.5018,-0.0742,-25.2500,11.1875,31.1875,319.3750,41.1875,-177.1875,0
1776971583.060,9.5936,0.7039,1.6831,-0.8823,0.1180,0.0906,-87.7500,-16.2000,-10.8000,9.4643,2.2266,-0.2825,-0.9454,0.1921,0.2976,-39.1500,3.3000,48.4500,6.5900,0.3700,-7.3500,0.2378,0.4287,-0.0404,-26.3750,12.0625,30.0000,319.2500,41.4375,-177.3125,0
1776971583.065,9.5936,0.7039,1.6831,-0.8703,0.0727,0.0962,-87.7500,-16.2000,-10.8000,9.4643,2.2266,-0.2825,-0.9454,0.1921,0.2976,-39.1500,3.3000,48.4500,6.5900,0.3700,-7.3500,0.2378,0.4287,-0.0404,-26.3750,12.0625,30.0000,319.2500,41.4375,-177.3125,0
1776971583.070,9.6175,0.5938,1.3120,-0.9406,0.0485,0.1231,-88.6500,-15.7500,-11.2500,9.3996,2.5043,-0.1460,-0.8721,0.2774,0.2915,-37.3500,0.7500,48.7500,6.5900,0.3700,-7.3500,0.2193,0.3480,-0.0316,-26.3750,12.0625,30.0000,319.1875,41.6250,-177.3750,0
1776971583.075,9.6175,0.5938,1.3120,-0.9406,0.0485,0.1231,-88.6500,-15.7500,-11.2500,9.3996,2.5043,-0.1460,-0.8721,0.2774,0.2915,-37.3500,0.7500,48.7500,6.6600,0.3400,-7.2600,0.2193,0.3480,-0.0316,-26.3750,12.0625,30.0000,319.1250,41.7500,-177.5000,0
1776971583.084,9.7276,0.5411,1.1947,-1.0469,0.0171,0.1426,-88.2000,-16.2000,-10.0500,9.3901,2.5402,-0.1820,-0.8116,0.3480,0.2995,-37.6500,1.8000,48.7500,6.5900,0.3200,-7.3800,0.1942,0.2989,-0.0284,-26.3750,12.0625,30.0000,319.1250,41.7500,-177.5000,0
1776971583.094,9.6223,0.5531,1.2354,-1.1690,0.0000,0.1543,-88.9500,-15.0000,-10.5000,9.4810,2.5379,-0.2682,-0.7181,0.3872,0.3088,-37.6500,1.8000,48.7500,6.6500,0.3200,-7.2600,0.1571,0.2553,-0.0175,-26.3750,12.0625,30.0000,319.1250,41.9375,-177.5625,0
1776971583.099,9.5241,0.5722,1.4389,-1.2644,0.0040,0.1452,-88.9500,-15.0000,-10.5000,9.3613,2.5522,-0.1796,-0.6478,0.4021,0.3115,-37.6500,1.8000,48.7500,6.6500,0.3200,-7.2600,0.1276,0.2105,-0.0142,-26.3750,12.0625,30.0000,319.0625,42.0000,-177.6250,0
1776971583.105,9.5241,0.5722,1.4389,-1.2644,0.0040,0.1452,-88.9500,-15.0000,-10.5000,9.3829,2.6456,-0.1197,-0.6195,0.4287,0.3038,-37.6500,1.8000,48.7500,6.6000,0.3500,-7.2900,0.1276,0.2105,-0.0142,-26.3750,12.0625,30.0000,319.0625,42.0000,-177.6250,0
1776971583.110,9.4116,0.6153,1.7262,-1.2809,0.0195,0.1332,-91.0500,-15.9000,-10.6500,9.3829,2.6456,-0.1197,-0.6195,0.4287,0.3038,-37.5000,1.2000,48.9000,6.6000,0.3500,-7.2900,0.0916,0.2116,-0.0131,-26.0000,12.5000,29.2500,319.0625,42.1250,-177.6875,0
1776971583.115,9.4116,0.6153,1.7262,-1.2809,0.0195,0.1332,-91.0500,-15.9000,-10.6500,9.2895,2.7150,0.0096,-0.5569,0.4048,0.2934,-37.5000,1.2000,48.9000,6.4800,0.4100,-7.2700,0.0916,0.2116,-0.0131,-26.0000,12.5000,29.2500,319.0625,42.1250,-177.6875,0
1776971583.120,9.3230,0.6225,2.0566,-1.2444,0.0354,0.1183,-91.0500,-15.9000,-10.6500,9.2895,2.7150,0.0096,-0.5569,0.4048,0.2934,-37.3500,0.7500,48.7500,6.4800,0.4100,-7.2700,0.0916,0.2116,-0.0131,-26.0000,12.5000,29.2500,319.0000,42.2500,-177.6875,0
1776971583.125,9.3230,0.6225,2.0566,-1.2444,0.0354,0.1183,-91.0500,-15.9000,-10.6500,9.1674,2.6264,0.1676,-0.5191,0.3994,0.2848,-37.3500,0.7500,48.7500,6.4600,0.4000,-7.2400,0.0654,0.2313,-0.0087,-26.0000,12.5000,29.2500,319.0000,42.2500,-177.6875,0
1776971583.130,9.3613,0.4860,2.4421,-1.1967,0.0405,0.1090,-88.9500,-14.5500,-12.0000,9.1674,2.6264,0.1676,-0.5191,0.3994,0.2848,-37.0500,-0.3000,49.8000,6.4600,0.4000,-7.2400,0.0382,0.2433,0.0065,-26.0000,12.5000,29.2500,319.0000,42.3750,-177.6875,0
1776971583.135,9.3613,0.4860,2.4421,-1.1967,0.0405,0.1090,-88.9500,-14.5500,-12.0000,9.3972,2.6911,0.4956,-0.4970,0.4072,0.3014,-37.0500,-0.3000,49.8000,6.5000,0.3900,-7.2300,0.0382,0.2433,0.0065,-26.0000,12.5000,29.2500,319.0000,42.3750,-177.6875,0
1776971583.144,9.2967,0.5291,2.6815,-1.1178,0.0568,0.1085,-89.5500,-15.9000,-12.9000,9.4068,2.6767,0.6153,-0.5287,0.3912,0.3022,-37.2000,-0.9000,49.2000,6.6300,0.3300,-7.2400,0.0196,0.2433,0.0185,-26.0000,12.5000,29.2500,319.0000,42.5625,-177.7500,0
1776971583.149,9.3948,0.5770,2.8730,-1.0288,0.0823,0.1111,-88.2000,-15.7500,-13.5000,9.4068,2.6767,0.6153,-0.5287,0.3912,0.3022,-37.2000,-0.9000,49.2000,6.6300,0.3300,-7.2400,-0.0022,0.2574,0.0229,-26.0000,12.5000,29.2500,319.0000,42.6875,-177.7500,0
1776971583.155,9.4308,0.6680,2.8491,-1.0288,0.0823,0.1111,-88.2000,-15.7500,-13.5000,9.5313,2.6360,0.5555,-0.6022,0.4024,0.3293,-37.2000,-0.9000,49.2000,6.6900,0.4000,-7.1900,-0.0022,0.2574,0.0229,-26.0000,12.5000,29.2500,319.0000,42.6875,-177.7500,0
1776971583.160,9.4308,0.6680,2.8491,-0.9622,0.0797,0.1351,-89.1000,-15.1500,-12.1500,9.5313,2.6360,0.5555,-0.6022,0.4024,0.3293,-37.2000,-0.9000,49.2000,6.6900,0.4000,-7.1900,-0.0196,0.2662,0.0262,-27.0625,12.5000,28.3750,319.0000,42.8125,-177.6875,0
1776971583.165,9.4739,0.7374,2.6552,-0.9622,0.0797,0.1351,-89.1000,-15.1500,-12.1500,9.4954,2.5163,0.3711,-0.6710,0.4271,0.3589,-37.2000,-0.9000,49.2000,6.7500,0.4200,-7.1400,-0.0196,0.2662,0.0262,-27.0625,12.5000,28.3750,319.0000,42.8125,-177.6875,0
1776971583.170,9.4739,0.7374,2.6552,-0.9185,0.0533,0.1466,-89.1000,-15.1500,-12.1500,9.4954,2.5163,0.3711,-0.6710,0.4271,0.3589,-38.8500,1.5000,49.5000,6.7500,0.4200,-7.1400,-0.0371,0.2716,0.0360,-27.0625,12.5000,28.3750,319.0625,43.0000,-177.6875,0
1776971583.175,9.4164,0.7159,2.4134,-0.9185,0.0533,0.1466,-89.1000,-15.1500,-12.1500,9.3877,2.4014,0.1460,-0.7522,0.4423,0.3946,-38.8500,1.5000,49.5000,6.7200,0.3900,-7.1500,-0.0371,0.2716,0.0360,-27.0625,12.5000,28.3750,319.0625,43.0000,-177.6875,0
1776971583.180,9.4164,0.7159,2.4134,-0.8911,0.0312,0.1522,-90.3000,-16.3500,-12.1500,9.3877,2.4014,0.1460,-0.7522,0.4423,0.3946,-37.6500,-1.8000,50.1000,6.7200,0.3900,-7.1500,-0.0502,0.2738,0.0393,-27.0625,12.5000,28.3750,319.0625,43.1250,-177.6875,0
1776971583.185,9.4236,0.8021,2.1835,-0.8801,0.0120,0.1519,-90.3000,-16.3500,-12.1500,9.2895,2.3008,-0.1221,-0.8031,0.4602,0.4269,-37.6500,-1.8000,50.1000,6.7400,0.3900,-7.1400,-0.0502,0.2738,0.0393,-27.0625,12.5000,28.3750,319.0625,43.1250,-177.6875,0
1776971583.194,9.4092,0.8739,2.0446,-0.8801,0.0120,0.1519,-90.3000,-16.3500,-12.1500,9.1387,2.3559,-0.1987,-0.8092,0.4714,0.4517,-36.6000,-2.2500,51.3000,6.8100,0.3700,-7.1500,-0.0644,0.2771,0.0458,-27.0625,12.5000,28.3750,319.1250,43.3125,-177.6875,0
1776971583.199,9.4092,0.8739,2.0446,-0.8735,0.0189,0.1300,-89.5500,-15.1500,-12.4500,9.1387,2.3559,-0.1987,-0.8092,0.4714,0.4517,-38.4000,-1.8000,51.6000,6.8100,0.3700,-7.1500,-0.0742,0.2596,0.0458,-27.0625,12.5000,28.3750,319.1875,43.4375,-177.6250,0
1776971583.205,9.3709,0.9936,1.9178,-0.8479,0.0338,0.1031,-89.5500,-15.1500,-12.4500,8.9854,2.5139,-0.2682,-0.7815,0.5020,0.4748,-38.4000,-1.8000,51.6000,6.8500,0.3100,-7.1700,-0.0742,0.2596,0.0458,-27.0625,12.5000,28.3750,319.1875,43.4375,-177.6250,0
1776971583.210,9.3709,0.9936,1.9178,-0.8479,0.0338,0.1031,-89.1000,-14.8500,-12.9000,8.9854,2.5139,-0.2682,-0.7815,0.5020,0.4748,-38.4000,-1.8000,51.6000,6.8500,0.3100,-7.1700,-0.0742,0.2596,0.0458,-27.5000,12.0625,28.7500,319.1875,43.5625,-177.6250,0
1776971583.215,9.3087,1.1468,1.7502,-0.8274,0.0560,0.0549,-89.1000,-14.8500,-12.9000,8.8011,2.7294,-0.4860,-0.7568,0.5598,0.4962,-38.4000,-1.8000,51.6000,6.8600,0.3300,-7.1100,-0.0916,0.2302,0.0469,-27.5000,12.0625,28.7500,319.1875,43.5625,-177.6250,0
1776971583.220,9.3087,1.1468,1.7502,-0.8274,0.0560,0.0549,-89.4000,-14.5500,-14.2500,8.8011,2.7294,-0.4860,-0.7568,0.5598,0.4962,-36.6000,-0.7500,50.5500,6.8600,0.3300,-7.1100,-0.0916,0.2302,0.0469,-27.5000,12.0625,28.7500,319.2500,43.6875,-177.5625,0
1776971583.225,9.1578,1.3527,1.7717,-0.7951,0.0717,0.0104,-89.4000,-14.5500,-14.2500,8.7604,3.1364,-0.6345,-0.7061,0.6089,0.5127,-36.6000,-0.7500,50.5500,6.8400,0.3600,-7.0600,-0.0905,0.2193,0.0447,-27.5000,12.0625,28.7500,319.2500,43.6875,-177.5625,0
1776971583.230,9.1578,1.3527,1.7717,-0.7951,0.0717,0.0104,-89.1000,-15.9000,-13.9500,8.5952,3.5506,-0.8763,-0.6406,0.6446,0.5225,-37.0500,-2.5500,51.6000,6.8200,0.4000,-7.0700,-0.0916,0.2116,0.0491,-27.5000,12.0625,28.7500,319.3125,43.8125,-177.5625,0
1776971583.236,9.1075,1.6161,1.8004,-0.7735,0.0741,-0.0394,-89.1000,-15.9000,-13.9500,8.5952,3.5506,-0.8763,-0.6406,0.6446,0.5225,-37.0500,-2.5500,51.6000,6.8200,0.4000,-7.0700,-0.0916,0.2116,0.0491,-27.5000,12.0625,28.7500,319.3125,43.8125,-177.5625,0
1776971583.244,9.1315,1.8292,2.0087,-0.7501,0.0669,-0.0655,-88.9500,-16.5000,-14.5500,8.8969,3.9313,-0.9960,-0.5545,0.6387,0.5175,-37.2000,-1.2000,51.4500,6.4100,0.4800,-6.9500,-0.0851,0.2116,0.0567,-27.5000,12.0625,28.7500,319.3125,43.9375,-177.5000,0
1776971583.254,9.1339,1.8794,2.3056,-0.6965,0.0325,-0.0829,-89.1000,-15.1500,-14.4000,9.2632,3.5865,-0.0407,-0.4104,0.6883,0.5180,-35.8500,-3.3000,52.3500,6.0300,0.5300,-7.0400,-0.0796,0.2476,0.0807,-27.5000,12.0625,28.7500,319.3750,44.0625,-177.5000,0
1776971583.259,9.1339,1.8794,2.3056,-0.6965,0.0325,-0.0829,-89.1000,-15.1500,-14.4000,9.2632,3.5865,-0.0407,-0.2798,0.7266,0.5431,-38.1000,-4.5000,51.6000,6.0300,0.5300,-7.0400,-0.0796,0.2476,0.0807,-27.5000,12.0625,28.7500,319.3750,44.0625,-177.5000,0
1776971583.264,9.2320,1.7262,2.5594,-0.6395,0.0269,-0.0970,-89.1000,-15.1500,-14.4000,9.2009,3.3255,0.0000,-0.2798,0.7266,0.5431,-38.1000,-4.5000,51.6000,6.0700,0.4900,-7.0900,-0.0731,0.3382,0.1091,-28.5625,12.0625,28.0625,319.5000,44.2500,-177.5000,0
1776971583.269,9.2320,1.7262,2.5594,-0.6395,0.0269,-0.0970,-89.1000,-15.1500,-14.4000,9.4140,2.6025,0.2658,-0.2262,0.8444,0.5596,-38.1000,-4.5000,51.6000,6.0700,0.4900,-7.0900,-0.0731,0.3382,0.1091,-28.5625,12.0625,28.0625,319.5000,44.2500,-177.5000,0
1776971583.274,9.2751,1.6855,2.6193,-0.5649,0.0565,-0.0930,-89.1000,-15.1500,-15.1500,9.4140,2.6025,0.2658,-0.2262,0.8444,0.5596,-38.1000,-4.5000,51.6000,6.1100,0.7500,-6.9700,-0.0764,0.4811,0.1364,-28.5625,12.0625,28.0625,319.5625,44.5000,-177.5625,0
1776971583.281,9.2440,1.5826,2.5211,-0.5649,0.0565,-0.0930,-89.1000,-15.1500,-15.1500,9.4523,2.3583,0.4669,-0.1815,0.9054,0.5534,-37.0500,-3.3000,51.9000,6.1400,0.7200,-7.1700,-0.0971,0.5901,0.1833,-28.5625,12.0625,28.0625,319.6875,44.8750,-177.5625,0
1776971583.286,9.2440,1.5826,2.5211,-0.4722,0.1085,-0.0941,-89.1000,-15.1500,-15.1500,9.4523,2.3583,0.4669,-0.1815,0.9054,0.5534,-35.1000,-4.0500,52.6500,6.1400,0.7200,-7.1700,-0.0971,0.5901,0.1833,-28.5625,12.0625,28.0625,324.4375,45.2500,-177.6250,0
1776971583.295,9.1051,1.5083,2.5259,-0.4135,0.1412,-0.1074,-88.6500,-14.5500,-15.3000,9.1267,2.3128,0.5698,-0.1953,0.9321,0.5798,-34.9500,-3.4500,53.2500,6.9800,0.3000,-7.0600,-0.1167,0.7123,0.2400,-28.5625,12.0625,28.0625,324.4375,45.2500,-177.6250,0
1776971583.305,9.0764,1.5754,2.5953,-0.4072,0.1343,-0.1354,-87.7500,-14.5500,-13.8000,9.0453,2.1428,0.4525,-0.3190,1.0067,0.6659,-36.0000,-3.9000,54.6000,8.4000,-0.6700,-7.2000,-0.0622,0.7232,0.1865,-28.5625,12.0625,28.0625,324.3750,45.6250,-177.6875,0
1776971583.310,9.0549,1.5778,2.4924,-0.4072,0.1343,-0.1354,-87.7500,-14.5500,-13.8000,9.2416,2.1739,0.0407,-0.5393,1.0419,0.7171,-36.0000,-3.9000,54.6000,8.4000,-0.6700,-7.2000,-0.0622,0.7232,0.1865,-28.5625,12.0625,28.0625,324.3750,45.6250,-177.6875,0
1776971583.315,9.0549,1.5778,2.4924,-0.4154,0.1180,-0.1676,-88.9500,-14.5500,-16.0500,9.2416,2.1739,0.0407,-0.5393,1.0419,0.7171,-35.4000,-5.7000,54.9000,6.8600,0.4900,-6.9400,-0.0524,0.6360,0.1069,-28.1875,11.6875,26.8750,324.3750,46.0000,-177.6875,0
1776971583.320,8.9471,1.5227,2.5259,-0.4463,0.0634,-0.2089,-88.9500,-14.5500,-16.0500,9.4068,2.4684,0.2059,-0.6797,1.1040,0.7232,-35.4000,-5.7000,54.9000,6.8600,0.4900,-6.9400,-0.0524,0.6360,0.1069,-28.1875,11.6875,26.8750,324.3750,46.0000,-177.6875,0
1776971583.325,8.9471,1.5227,2.5259,-0.4463,0.0634,-0.2089,-88.3500,-13.6500,-13.6500,9.4068,2.4684,0.2059,-0.6797,1.1040,0.7232,-35.4000,-5.7000,54.9000,6.5900,0.4100,-7.1500,-0.0415,0.6185,0.1058,-28.1875,11.6875,26.8750,324.3750,46.3750,-177.7500,0
1776971583.330,9.2536,1.2498,2.5762,-0.5305,0.0922,-0.2467,-88.3500,-13.6500,-13.6500,9.5074,2.5331,0.3759,-0.6294,1.1242,0.7178,-35.4000,-5.7000,54.9000,6.5900,0.4100,-7.1500,-0.0382,0.7101,0.1309,-28.1875,11.6875,26.8750,324.3125,46.7500,-177.7500,0
1776971583.335,9.2536,1.2498,2.5762,-0.5305,0.0922,-0.2467,-89.4000,-15.0000,-15.6000,9.5074,2.5331,0.3759,-0.6294,1.1242,0.7178,-35.8500,-6.0000,55.2000,6.4300,0.6500,-7.1500,-0.0382,0.7101,0.1309,-28.1875,11.6875,26.8750,324.2500,47.1875,-177.8125,0
1776971583.345,9.1698,1.0965,2.5402,-0.6043,0.1346,-0.2819,-89.7000,-14.2500,-14.8500,9.6678,1.8244,0.7278,-0.5486,1.0981,0.7107,-34.9500,-6.9000,55.6500,7.0100,0.3200,-7.0800,-0.0458,0.8247,0.1473,-28.1875,11.6875,26.8750,324.2500,47.1875,-177.8125,0
1776971583.355,9.1435,0.9290,2.5522,-0.6448,0.1343,-0.3024,-89.7000,-14.2500,-14.8500,9.6103,1.3862,1.2546,-0.4954,1.1413,0.7115,-34.5000,-6.0000,56.2500,7.4400,0.5900,-6.6700,-0.0469,0.9032,0.1484,-28.1875,11.6875,26.8750,324.1875,47.6875,-177.8750,0
1776971583.360,9.1961,0.7470,2.5762,-0.6739,0.0965,-0.3094,-89.7000,-14.2500,-14.8500,9.4882,0.9720,1.4509,-0.4956,1.1778,0.7224,-34.5000,-6.0000,56.2500,7.4400,0.5900,-6.6700,-0.0469,0.9032,0.1484,-28.1875,11.6875,26.8750,324.1250,48.1875,-177.8750,0
1776971583.365,9.1961,0.7470,2.5762,-0.6739,0.0965,-0.3094,-89.1000,-13.9500,-16.2000,9.4882,0.9720,1.4509,-0.4956,1.1778,0.7224,-33.9000,-6.9000,55.6500,7.5500,0.3300,-6.7000,-0.0545,0.8716,0.1484,-28.1875,12.5000,26.5000,324.1250,48.1875,-177.8750,0
1776971583.370,9.3972,0.3998,2.4014,-0.7147,0.0306,-0.3128,-89.1000,-13.9500,-16.2000,9.6295,0.5674,1.8842,-0.5662,1.2545,0.7517,-33.9000,-6.9000,55.6500,7.5500,0.3300,-6.7000,-0.0545,0.8716,0.1484,-28.1875,12.5000,26.5000,324.0625,48.6250,-177.9375,0
1776971583.375,9.3972,0.3998,2.4014,-0.7147,0.0306,-0.3128,-88.2000,-14.5500,-15.6000,9.6295,0.5674,1.8842,-0.5662,1.2545,0.7517,-33.7500,-7.5000,56.5500,7.4500,0.5400,-6.6400,-0.0513,0.8029,0.1538,-28.1875,12.5000,26.5000,324.0625,48.6250,-177.9375,0
1776971583.381,9.3757,0.0311,2.0016,-0.8204,-0.0341,-0.3107,-90.1500,-12.3000,-15.3000,9.5529,0.1508,1.5467,-0.6768,1.2921,0.7805,-33.7500,-7.5000,56.5500,7.3600,0.2300,-6.8000,-0.0447,0.7647,0.1505,-28.1875,12.5000,26.5000,324.0000,49.0625,-178.0000,0
1776971583.386,9.6223,-0.2227,1.6975,-0.8204,-0.0341,-0.3107,-90.1500,-12.3000,-15.3000,9.7492,-0.2801,1.8435,-0.7560,1.3781,0.7754,-33.7500,-7.5000,56.5500,7.3600,0.2300,-6.8000,-0.0447,0.7647,0.1505,-28.1875,12.5000,26.5000,323.9375,49.5000,-178.0625,0
1776971583.395,9.6223,-0.2227,1.6975,-0.9534,-0.1055,-0.3182,-89.5500,-13.6500,-16.6500,10.1849,-0.8954,1.4246,-0.9172,1.3664,0.7789,-32.5500,-8.5500,58.0500,8.2300,-0.9200,-6.9000,-0.0251,0.8039,0.1374,-28.1875,12.5000,26.5000,323.9375,49.5000,-178.0625,0
1776971583.405,10.1059,-0.1939,1.4892,-1.1074,-0.1306,-0.3563,-88.2000,-13.5000,-16.3500,10.8098,-1.0582,1.3527,-1.0235,1.3987,0.7669,-33.1500,-7.9500,58.9500,7.8500,-0.4100,-6.3700,-0.0262,0.8149,0.0676,-28.1875,12.5000,26.5000,323.8750,50.0000,-178.0625,0
1776971583.410,10.0341,-0.0383,1.2713,-1.2372,-0.2057,-0.3754,-88.2000,-13.5000,-16.3500,10.8098,-1.0582,1.3527,-1.0235,1.3987,0.7669,-33.1500,-7.9500,58.9500,7.8500,-0.4100,-6.3700,-0.0262,0.8149,0.0676,-28.1875,12.5000,26.5000,323.8750,50.0000,-178.0625,0
1776971583.415,10.0916,0.3735,1.2498,-1.2372,-0.2057,-0.3754,-89.8500,-12.9000,-16.2000,10.7141,-0.8116,1.7573,-1.1229,1.4019,0.7765,-32.8500,-9.4500,59.5500,7.2400,-0.0400,-6.8100,-0.0327,0.8432,0.0131,-29.6875,13.5000,24.8750,323.8750,50.4375,-178.0625,0
1776971583.420,10.0916,0.3735,1.2498,-1.3270,-0.3062,-0.3648,-89.8500,-12.9000,-16.2000,10.7141,-0.8116,1.7573,-1.1229,1.4019,0.7765,-32.8500,-9.4500,59.5500,7.2400,-0.0400,-6.8100,-0.0327,0.8432,0.0131,-29.6875,13.5000,24.8750,323.8750,50.4375,-178.0625,0
1776971583.425,9.9264,0.9984,1.2809,-1.3270,-0.3062,-0.3648,-89.8500,-12.9000,-16.2000,10.4842,0.0311,2.0351,-1.1101,1.3688,0.7765,-31.9500,-9.7500,59.8500,7.4100,-0.2100,-6.5500,-0.0513,1.0428,-0.0829,-29.6875,13.5000,24.8750,324.0000,51.0000,-177.9375,0
1776971583.430,9.9264,0.9984,1.2809,-1.3784,-0.3640,-0.3517,-89.8500,-12.9000,-16.2000,10.4842,0.0311,2.0351,-1.1101,1.3688,0.7765,-31.9500,-9.7500,59.8500,7.4100,-0.2100,-6.5500,-0.1462,1.1956,-0.1069,-29.6875,13.5000,24.8750,324.1875,51.6875,-177.7500,0
1776971583.436,9.7731,1.5299,1.4054,-1.4237,-0.3565,-0.3339,-89.8500,-12.0000,-16.2000,10.2017,0.1460,1.8986,-1.0690,1.3387,0.7474,-30.6000,-10.9500,60.3000,7.5100,-0.3000,-6.5500,-0.1462,1.1956,-0.1069,-29.6875,13.5000,24.8750,324.4375,52.3750,-177.5000,0
1776971583.445,9.7276,1.6831,1.4126,-1.4048,-0.3616,-0.3216,-89.8500,-12.0000,-16.2000,10.1921,0.0814,2.1572,-1.0651,1.3470,0.7424,-30.6000,-10.9500,60.3000,7.6100,-0.0400,-6.1400,-0.2214,1.2610,-0.1276,-29.6875,13.5000,24.8750,324.4375,52.3750,-177.5000,0
1776971583.455,9.8306,1.7190,1.7765,-1.2870,-0.3778,-0.3325,-89.7000,-12.3000,-17.8500,10.1634,0.4214,2.7222,-1.0986,1.3952,0.7565,-30.3000,-12.1500,61.3500,7.8100,0.1200,-5.8300,-0.2313,1.3068,-0.1778,-29.6875,13.5000,24.8750,324.7500,53.1250,-177.1875,0
1776971583.460,9.8306,1.7190,1.7765,-1.2870,-0.3778,-0.3325,-89.7000,-12.3000,-17.8500,10.1634,0.4214,2.7222,-1.0986,1.3952,0.7565,-30.3000,-12.1500,61.3500,7.8100,0.1200,-5.8300,-0.2313,1.3068,-0.1778,-29.6875,13.5000,24.8750,324.7500,53.1250,-177.1875,0
1776971583.465,9.7875,1.4676,1.6712,-1.1820,-0.3970,-0.3709,-89.8500,-10.5000,-18.0000,10.4555,0.6800,2.3367,-1.1498,1.3907,0.7202,-31.0500,-13.9500,59.2500,7.9000,0.9100,-5.2300,-0.2923,1.4748,-0.1778,-31.5000,12.5000,24.0625,325.1250,53.9375,-176.8125,0
1776971583.470,9.7875,1.4676,1.6712,-1.1820,-0.3970,-0.3709,-89.8500,-10.5000,-18.0000,10.4555,0.6800,2.3367,-1.1498,1.3907,0.7202,-31.0500,-13.9500,59.2500,7.9000,0.9100,-5.2300,-0.2923,1.4748,-0.1778,-31.5000,12.5000,24.0625,325.1250,53.9375,-176.8125,0
1776971583.475,10.2352,1.5083,1.8866,-1.1463,-0.2718,-0.4213,-90.4500,-11.4000,-18.6000,10.9367,0.2897,2.5163,-1.2340,1.3789,0.6512,-28.9500,-11.2500,60.1500,7.7700,0.4100,-5.6900,-0.4581,1.5882,-0.0764,-31.5000,12.5000,24.0625,325.5625,54.8125,-176.4375,0
1776971583.480,10.2352,1.5083,1.8866,-1.1463,-0.2718,-0.4213,-90.4500,-11.4000,-18.6000,10.9367,0.2897,2.5163,-1.2340,1.3789,0.6512,-28.9500,-11.2500,60.1500,7.7700,0.4100,-5.6900,-0.8061,1.6559,0.0665,-31.5000,12.5000,24.0625,326.3125,55.6875,-175.9375,0
1776971583.486,10.5680,1.6616,1.9944,-1.1109,-0.2308,-0.4959,-89.5500,-12.9000,-18.0000,11.4323,0.0886,2.0207,-1.4024,1.4176,0.6102,-29.5500,-13.2000,62.4000,7.4500,0.5400,-6.1100,-0.8061,1.6559,0.0665,-31.5000,12.5000,24.0625,327.4375,56.7500,-175.3125,0
1776971583.495,10.9200,1.9106,1.9920,-1.0701,-0.2787,-0.5971,-89.4000,-11.4000,-18.6000,12.0644,-0.6895,1.2977,-1.6731,1.4605,0.5748,-29.5500,-13.2000,62.4000,7.1800,-0.1100,-5.3400,-1.2774,1.8533,0.2029,-31.5000,12.5000,24.0625,327.4375,56.7500,-175.3125,0
1776971583.505,10.8793,1.9201,1.6328,-1.0229,-0.4397,-0.6933,-89.5500,-11.2500,-18.4500,12.5935,-1.7861,0.6393,-2.0209,1.5665,0.5689,-29.5500,-13.2000,62.4000,7.1100,-0.3300,-4.9600,-1.8948,2.2831,0.2978,-31.5000,12.5000,24.0625,329.0625,58.0000,-174.3125,0
1776971583.510,10.8793,1.9201,1.6328,-1.0229,-0.4397,-0.6933,-89.5500,-11.2500,-18.4500,12.5935,-1.7861,0.6393,-2.0209,1.5665,0.5689,-29.5500,-13.2000,62.4000,7.1100,-0.3300,-4.9600,-1.8948,2.2831,0.2978,-31.5000,12.5000,24.0625,331.1875,59.6875,-173.0000,0
1776971583.515,10.8002,1.9632,0.9601,-0.8934,-0.6960,-0.8151,-89.5500,-11.2500,-18.4500,13.0364,-2.8898,-0.9888,-2.5551,1.7664,0.6190,-28.8000,-15.4500,62.4000,8.7800,0.0800,-6.7000,-2.6594,2.9900,0.4756,-32.2500,12.0625,21.3750,331.1875,59.6875,-173.0000,0
1776971583.520,10.8002,1.9632,0.9601,-0.8934,-0.6960,-0.8151,-89.5500,-11.2500,-18.4500,13.0364,-2.8898,-0.9888,-2.5551,1.7664,0.6190,-28.8000,-15.4500,62.4000,8.7800,0.0800,-6.7000,-2.6594,2.9900,0.4756,-32.2500,12.0625,21.3750,333.0625,61.6250,-171.8125,0
1776971583.525,10.6303,1.8962,-0.1939,-0.8247,-1.1013,-0.9563,-90.3000,-10.5000,-19.9500,12.8952,-4.0294,-4.5203,-3.0912,2.1098,0.7293,-28.9500,-16.0500,64.0500,8.2800,2.3200,-5.6400,-2.7107,3.3750,0.7810,-32.2500,12.0625,21.3750,333.0625,61.6250,-171.8125,0
1776971583.530,9.9671,1.5730,-1.3767,-0.8247,-1.1013,-0.9563,-90.3000,-10.5000,-19.9500,12.8952,-4.0294,-4.5203,-4.1075,1.9244,0.7413,-28.9500,-16.0500,64.0500,8.2800,2.3200,-5.6400,-1.8860,3.3467,1.3145,-32.2500,12.0625,21.3750,333.8125,63.5625,-171.6875,0
1776971583.536,9.9671,1.5730,-1.3767,-1.0243,-1.5306,-1.1487,-90.3000,-10.5000,-19.9500,13.2423,-5.1116,-1.7071,-4.1075,1.9244,0.7413,-25.9500,-17.4000,63.4500,8.6900,3.3700,-6.8000,-1.8860,3.3467,1.3145,-32.2500,12.0625,21.3750,334.0625,65.6250,-172.2500,0
1776971583.545,9.4739,1.0127,-1.8004,-1.3494,-1.9132,-1.3949,-89.5500,-10.0500,-19.2000,13.0412,-2.0494,0.1628,-4.8627,1.6214,0.7989,-26.7000,-16.6500,63.1500,7.5900,3.4500,-5.9200,-1.6897,3.5157,1.7944,-32.2500,12.0625,21.3750,334.0625,65.6250,-172.2500,0
1776971583.555,8.7676,0.0024,-1.7190,-1.7142,-1.9995,-1.6140,-89.5500,-10.5000,-19.9500,11.9566,1.3360,0.4836,-5.1579,1.3323,0.6867,-26.7000,-16.6500,63.1500,8.0700,0.6100,-6.1400,-1.5904,3.9270,1.9515,-32.2500,12.0625,21.3750,334.1250,67.9375,-173.1875,0
1776971583.560,8.6622,-1.3503,-1.3862,-2.0414,-1.9012,-1.7893,-89.5500,-10.5000,-19.9500,10.1610,2.9401,1.8579,-4.7425,0.8950,0.3251,-26.7000,-16.6500,63.1500,8.0700,0.6100,-6.1400,-1.5904,3.9270,1.9515,-32.2500,12.0625,21.3750,334.1250,67.9375,-173.1875,0
1776971583.565,8.6622,-1.3503,-1.3862,-2.0414,-1.9012,-1.7893,-88.2000,-9.1500,-19.0500,10.1610,2.9401,1.8579,-4.7425,0.8950,0.3251,-26.7000,-16.6500,63.1500,10.4200,2.1300,-7.9300,-1.3483,4.6797,1.9286,-35.1875,13.0625,17.3750,334.0000,70.6250,-174.5625,0
1776971583.570,8.6000,-1.8771,-0.7638,-2.3385,-1.7709,-1.9958,-88.2000,-9.1500,-19.0500,10.0293,2.6552,3.5291,-4.1667,0.6518,-0.0602,-25.3500,-21.3000,61.5000,10.4200,2.1300,-7.9300,-1.3483,4.6797,1.9286,-35.1875,13.0625,17.3750,334.0000,70.6250,-174.5625,0
1776971583.575,8.6000,-1.8771,-0.7638,-2.3385,-1.7709,-1.9958,-90.1500,-8.4000,-21.1500,10.0293,2.6552,3.5291,-4.1667,0.6518,-0.0602,-25.3500,-21.3000,61.5000,13.2800,3.0700,-6.2500,-0.9141,5.3265,1.8402,-35.1875,13.0625,17.3750,333.5625,73.6250,-176.5000,0
1776971583.583,8.3486,-2.0806,-0.8092,-2.5079,-1.7088,-2.1698,-88.9500,-5.2500,-21.6000,10.3286,2.0087,5.1116,-3.3588,0.5324,-0.3749,-26.7000,-20.4000,60.3000,14.0200,2.1500,-5.2400,-1.0396,5.2393,1.7355,-35.1875,13.0625,17.3750,333.3125,76.5625,-179.1250,0
1776971583.588,9.6343,-2.3798,-0.5052,-2.5079,-1.7088,-2.1698,-88.9500,-5.2500,-21.6000,10.3286,2.0087,5.1116,-3.3588,0.5324,-0.3749,-26.7000,-20.4000,60.3000,14.0200,2.1500,-5.2400,-1.0396,5.2393,1.7355,-35.1875,13.0625,17.3750,333.0625,79.3750,176.3750,0
1776971583.596,9.6343,-2.3798,-0.5052,-2.6985,-1.5881,-2.2950,-87.7500,-4.0500,-24.6000,10.3621,0.3879,6.1100,-2.7326,0.4751,-0.5614,-25.0500,-22.0500,60.1500,14.4900,3.5000,-4.8700,-1.0625,5.0724,1.8031,-35.1875,13.0625,17.3750,332.8750,82.0000,168.5625,0
1776971583.606,11.2288,-2.3367,-0.4214,-2.7515,-1.5402,-2.3523,-87.7500,-4.0500,-24.6000,10.3142,-0.7997,7.2089,-2.2569,0.4743,-0.5998,-26.8500,-21.7500,58.3500,14.5200,2.1300,-5.9000,-1.1476,5.0102,1.8533,-35.1875,13.0625,17.3750,332.8750,82.0000,168.5625,0
1776971583.610,12.4977,-0.8284,-0.9290,-2.7248,-1.1943,-2.3209,-87.7500,-4.0500,-24.6000,10.3837,-2.1284,7.9559,-1.9316,0.7887,-0.5921,-26.8500,-21.7500,58.3500,14.5200,2.1300,-5.9000,-1.1476,5.0102,1.8533,-37.0625,15.2500,10.3750,332.9375,84.1875,177.5625,0
1776971583.615,12.4977,-0.8284,-0.9290,-2.7248,-1.1943,-2.3209,-87.7500,-2.1000,-25.3500,10.3837,-2.1284,7.9559,-1.9316,0.7887,-0.5921,-26.8500,-21.7500,58.3500,17.6600,1.9900,-7.2100,-1.5293,4.7080,1.7333,-37.0625,15.2500,10.3750,332.9375,84.1875,177.5625,0
1776971583.620,13.6637,0.0742,-0.5363,-2.7067,-1.0525,-2.2330,-87.7500,-2.1000,-25.3500,10.8840,-3.7781,7.6950,-1.4890,1.4218,-0.2971,-27.0000,-23.4000,58.9500,17.6600,1.9900,-7.2100,-1.5293,4.7080,1.7333,-37.0625,15.2500,10.3750,333.5000,85.5000,176.7500,0
1776971583.625,13.6637,0.0742,-0.5363,-2.7067,-1.0525,-2.2330,-89.1000,-0.3000,-24.0000,10.8840,-3.7781,7.6950,-1.4890,1.4218,-0.2971,-27.0000,-23.4000,58.9500,16.7800,3.2000,-6.8300,-2.1686,4.0153,1.5719,-37.0625,15.2500,10.3750,333.5000,85.5000,176.7500,0
1776971583.630,13.7738,1.1229,-0.3639,-2.6862,-1.0051,-2.1408,-89.1000,-0.3000,-24.0000,9.7659,-3.0311,6.7277,-1.7203,1.6387,-0.5273,-26.1000,-24.0000,57.6000,16.7800,3.2000,-6.8300,-2.8580,3.4274,1.5228,-37.0625,15.2500,10.3750,334.3750,85.7500,176.0000,0
1776971583.636,13.5344,1.0127,-0.2586,-2.6862,-1.0051,-2.1408,-87.4500,0.1500,-26.7000,9.7659,-3.0311,6.7277,-1.7203,1.6387,-0.5273,-26.1000,-24.0000,57.6000,15.3800,2.2500,-8.4600,-2.8580,3.4274,1.5228,-37.0625,15.2500,10.3750,335.5625,85.1250,4.8125,0
1776971583.645,12.6558,0.3807,-0.3208,-2.6196,-1.0938,-2.0627,-86.8500,1.9500,-25.8000,10.0293,-3.8978,6.7277,-1.9841,2.0227,-0.4823,-26.2500,-22.9500,58.2000,13.4300,1.0000,-7.7500,-3.4001,2.7500,1.5490,-37.0625,15.2500,10.3750,336.8125,84.1250,5.7500,0
1776971583.656,11.6023,1.1612,-0.7709,-2.5034,-1.0765,-1.9612,-88.0500,4.6500,-26.5500,8.5066,-5.0709,6.1507,-2.1525,2.1482,-0.4178,-26.7000,-23.7000,59.2500,6.5300,1.7200,-7.7200,-3.8037,1.9450,1.6832,-37.0625,15.2500,10.3750,336.8125,84.1250,5.7500,0
1776971583.660,11.6023,1.1612,-0.7709,-2.3718,-0.9302,-1.8575,-88.0500,4.6500,-26.5500,7.3095,-4.6184,4.8626,-2.2060,2.0294,-0.3885,-28.0500,-23.7000,60.3000,6.5300,1.7200,-7.7200,-3.8037,1.9450,1.6832,-37.0625,15.2500,10.3750,337.7500,82.8750,79.0625,0
1776971583.665,10.9894,0.8356,-1.3743,-2.1933,-0.7218,-1.8178,-88.0500,4.9500,-26.2500,7.3095,-4.6184,4.8626,-1.9809,1.6038,-0.5875,-28.0500,-23.7000,60.3000,4.2500,-0.4500,-14.1800,-3.7186,1.0679,2.0682,-37.5000,17.5000,3.0000,337.7500,82.8750,79.0625,0
1776971583.670,10.9894,0.8356,-1.3743,-2.1933,-0.7218,-1.8178,-88.0500,4.9500,-26.2500,6.9767,-5.8419,5.5929,-1.9809,1.6038,-0.5875,-28.0500,-23.7000,60.3000,4.2500,-0.4500,-14.1800,-3.7186,1.0679,2.0682,-37.5000,17.5000,3.0000,337.7500,82.8750,79.0625,0
1776971583.675,10.9918,0.6584,-1.5203,-1.9529,-0.5673,-1.8127,-88.0500,4.9500,-26.2500,4.8459,-4.5370,5.6216,-1.7736,1.2337,-0.8367,-28.0500,-23.7000,60.3000,17.9600,-4.9000,-12.1600,-3.1841,0.5541,2.5558,-37.5000,17.5000,3.0000,338.0625,81.4375,80.5000,0
1776971583.684,11.6215,-0.1580,-1.5706,-1.9529,-0.5673,-1.8127,-86.5500,6.6000,-26.2500,4.8459,-4.5370,5.6216,-1.7736,1.2337,-0.8367,-25.2000,-24.9000,59.5500,8.6800,5.6900,-13.2000,-3.4187,-0.4331,2.3802,-37.5000,17.5000,3.0000,338.5625,80.1250,84.8750,0
1776971583.689,11.6215,-0.1580,-1.5706,-1.7403,-0.6265,-1.8050,-86.5500,6.6000,-26.2500,5.2505,-3.3662,4.1803,-2.2343,1.1314,-0.9411,-25.0500,-25.5000,60.9000,8.6800,5.6900,-13.2000,-3.4187,-0.4331,2.3802,-37.5000,17.5000,3.0000,338.6875,78.8125,93.5625,0
1776971583.696,11.2623,0.2059,-1.2785,-1.6150,-0.7109,-1.7882,-86.5500,6.6000,-26.2500,6.6248,-2.9616,2.7581,-2.3289,0.5159,-1.2484,-25.0500,-25.5000,60.9000,3.5800,5.5800,-8.2600,-3.0729,-2.3049,2.3616,-37.5000,17.5000,3.0000,338.3750,77.3750,101.1875,0
1776971583.706,10.8122,0.8619,-1.4533,-1.4333,-0.5995,-1.7360,-85.5000,9.1500,-26.7000,6.1124,-3.4261,2.2721,-2.0091,-0.2542,-1.5815,-26.2500,-24.9000,58.9500,0.3100,6.1400,-5.3500,-2.3180,-2.7227,2.3027,-37.5000,17.5000,3.0000,338.3750,77.3750,101.1875,0
1776971583.711,10.8122,0.8619,-1.4533,-1.4333,-0.5995,-1.7360,-85.5000,9.1500,-26.7000,6.1124,-3.4261,2.2721,-2.0091,-0.2542,-1.5815,-25.5000,-23.7000,58.5000,0.3100,6.1400,-5.3500,-2.3180,-2.7227,2.3027,-37.5000,17.5000,3.0000,338.3750,77.3750,101.1875,0
1776971583.716,10.3046,1.2785,-1.6328,-1.2047,-0.4482,-1.6750,-85.0500,8.5500,-25.0500,6.4428,-3.4237,2.3703,-1.4146,-0.7605,-1.8029,-25.5000,-23.7000,58.5000,0.2000,3.1900,-4.3000,-1.7366,-2.4598,2.1108,-35.3750,23.3750,3.3750,337.8750,75.9375,106.5625,0
1776971583.721,10.3046,1.2785,-1.6328,-1.2047,-0.4482,-1.6750,-85.0500,8.5500,-25.0500,6.4428,-3.4237,2.3703,-1.4146,-0.7605,-1.8029,-27.3000,-25.2000,58.5000,0.2000,3.1900,-4.3000,-1.7366,-2.4598,2.1108,-35.3750,23.3750,3.3750,337.8750,75.9375,106.5625,0
1776971583.726,9.9479,1.9992,-1.5251,-1.0078,-0.2009,-1.5902,-84.6000,10.5000,-25.5000,6.1699,-3.4165,2.3320,-1.0640,-1.1389,-1.9606,-27.3000,-25.2000,58.5000,0.3100,2.3400,-4.7400,-1.4366,-2.4249,1.6635,-35.3750,23.3750,3.3750,337.4375,74.6250,111.0625,0
1776971583.731,9.9479,1.9992,-1.5251,-1.0078,-0.2009,-1.5902,-84.6000,10.5000,-25.5000,6.1699,-3.4165,2.3320,-1.0640,-1.1389,-1.9606,-27.3000,-25.2000,58.5000,0.1400,1.7400,-4.9000,-1.4890,-2.3944,0.9599,-35.3750,23.3750,3.3750,337.4375,73.5625,115.4375,0
1776971583.737,10.0892,2.5809,-1.4485,-0.8021,-0.0682,-1.4858,-84.0000,11.4000,-25.6500,5.8131,-4.0127,3.0574,-0.9081,-1.3254,-2.1091,-27.3000,-25.2000,58.5000,0.1400,1.7400,-4.9000,-1.4890,-2.3944,0.9599,-35.3750,23.3750,3.3750,338.0000,72.8750,120.0625,0
1776971583.746,10.1466,3.0119,-1.6113,-0.5713,-0.0418,-1.3683,-85.3500,13.6500,-26.5500,5.5522,-4.4221,3.0095,-0.6915,-1.3648,-2.2300,-28.0500,-24.4500,56.4000,0.2600,1.3200,-5.5200,-1.7431,-2.3376,0.2094,-35.3750,23.3750,3.3750,338.0000,72.8750,120.0625,0
1776971583.756,10.1083,2.8419,-1.7166,-0.3078,-0.0802,-1.2508,-84.0000,12.6000,-26.1000,5.6934,-5.1787,2.5067,-0.5084,-1.3531,-2.3923,-30.3000,-23.4000,54.6000,2.1300,0.3700,-7.1000,-1.9624,-2.2875,-0.4451,-35.3750,23.3750,3.3750,339.1250,72.3750,125.0000,0
1776971583.761,9.7109,2.2194,-1.6568,-0.3078,-0.0802,-1.2508,-84.0000,12.6000,-26.1000,5.6934,-5.1787,2.5067,-0.5084,-1.3531,-2.3923,-30.6000,-23.7000,55.3500,2.1300,0.3700,-7.1000,-1.9624,-2.2875,-0.4451,-35.3750,23.3750,3.3750,340.5625,72.0000,130.3750,0
1776971583.766,9.7109,2.2194,-1.6568,-0.0941,-0.0626,-1.1519,-84.0000,12.6000,-26.1000,5.9233,-5.6790,2.0016,-0.3925,-1.2702,-2.5263,-30.6000,-23.7000,55.3500,3.3800,-0.6500,-8.1400,-2.0988,-2.3409,-0.9163,-31.7500,27.2500,8.7500,340.5625,72.0000,130.3750,0
1776971583.771,9.3374,1.8579,-1.4581,-0.0941,-0.0626,-1.1519,-84.0000,12.6000,-26.1000,5.9233,-5.6790,2.0016,-0.3925,-1.2702,-2.5263,-31.5000,-22.0500,55.2000,3.3800,-0.6500,-8.1400,-2.0988,-2.3409,-0.9163,-31.7500,27.2500,8.7500,342.3125,71.5625,136.0625,0
1776971583.776,9.3374,1.8579,-1.4581,0.0136,-0.0765,-1.0451,-84.1500,13.6500,-25.8000,6.1076,-5.3439,1.8866,-0.2166,-1.3347,-2.6012,-31.6500,-20.4000,52.5000,4.5400,-2.1000,-9.0800,-2.2384,-2.5155,-1.1934,-31.7500,27.2500,8.7500,342.3125,71.5625,136.0625,0
1776971583.784,8.9998,1.6616,-1.2330,0.0211,-0.1071,-0.9310,-84.1500,13.6500,-25.8000,6.9504,-5.3965,0.6297,-0.0085,-1.5860,-2.6350,-31.6500,-20.4000,52.5000,5.4000,-5.3800,-8.4700,-2.4871,-2.8002,-1.3330,-31.7500,27.2500,8.7500,344.3750,70.8125,142.0625,0
1776971583.789,8.9998,1.6616,-1.2330,0.0211,-0.1071,-0.9310,-84.1500,15.9000,-25.8000,6.9504,-5.3965,0.6297,-0.0085,-1.5860,-2.6350,-31.6500,-20.4000,52.5000,5.4000,-5.3800,-8.4700,-2.4871,-2.8002,-1.3330,-31.7500,27.2500,8.7500,346.6875,69.8750,148.1875,0
1776971583.796,8.7053,1.2450,-1.2234,-0.0322,-0.1098,-0.8348,-84.0000,16.2000,-28.2000,7.3478,-5.2002,0.8260,0.1601,-2.0227,-2.7304,-32.2500,-18.0000,51.6000,4.5200,-6.2400,-7.4000,-2.8122,-3.1296,-1.3777,-31.7500,27.2500,8.7500,349.3125,68.6250,153.8750,0
1776971583.806,8.2432,0.6608,-1.1372,-0.1543,-0.0701,-0.7442,-83.7000,15.7500,-28.9500,8.0325,-4.8076,0.8092,0.3299,-2.2044,-2.7995,-35.1000,-17.5500,51.6000,3.7700,-6.4600,-6.4200,-3.0652,-3.2845,-1.3188,-31.7500,27.2500,8.7500,349.3125,68.6250,153.8750,0
1776971583.811,7.9464,0.5914,-0.9553,-0.3749,0.0309,-0.6755,-83.7000,15.7500,-28.9500,9.3565,-5.3151,1.9249,0.2430,-2.5996,-2.7539,-35.1000,-17.5500,51.6000,3.7700,-6.4600,-6.4200,-3.0652,-3.2845,-1.3188,-31.7500,27.2500,8.7500,349.3125,68.6250,153.8750,0
1776971583.816,7.9464,0.5914,-0.9553,-0.3749,0.0309,-0.6755,-83.7000,17.7000,-29.7000,9.3565,-5.3151,1.9249,0.2430,-2.5996,-2.7539,-33.7500,-16.8000,48.4500,4.1000,-7.1300,-6.7100,-3.1590,-3.2092,-1.1465,-28.1875,28.7500,13.7500,352.0000,67.2500,158.8750,0
1776971583.821,8.0158,0.7542,-0.8068,-0.6227,-0.0163,-0.6089,-83.7000,17.7000,-29.7000,10.0796,-5.3079,2.7294,-0.0855,-3.0627,-2.6612,-33.7500,-16.8000,48.4500,4.1000,-7.1300,-6.7100,-3.1590,-3.2092,-1.1465,-28.1875,28.7500,13.7500,352.0000,67.2500,158.8750,0
1776971583.826,8.0158,0.7542,-0.8068,-0.6227,-0.0163,-0.6089,-84.1500,19.0500,-29.8500,10.0796,-5.3079,2.7294,-0.0855,-3.0627,-2.6612,-35.4000,-16.2000,48.6000,4.9300,-7.3700,-7.6700,-3.1820,-3.0369,-0.9305,-28.1875,28.7500,13.7500,354.7500,65.8125,163.0000,0
1776971583.831,9.7109,0.7661,-0.2586,-0.6422,-0.5177,-0.5569,-84.1500,19.0500,-29.8500,10.5105,-4.7692,3.6847,-0.8801,-3.1200,-2.4139,-35.4000,-16.2000,48.6000,4.9300,-7.3700,-7.6700,-3.1874,-2.9060,-0.7418,-28.1875,28.7500,13.7500,357.5625,64.3750,166.5625,0
1776971583.837,9.7109,0.7661,-0.2586,-0.6422,-0.5177,-0.5569,-84.1500,19.0500,-29.8500,10.5105,-4.7692,3.6847,-0.8801,-3.1200,-2.4139,-36.7500,-13.6500,46.3500,5.5900,-7.4700,-8.2900,-3.1874,-2.9060,-0.7418,-28.1875,28.7500,13.7500,0.4375,62.9375,169.5625,0
1776971583.846,9.0118,0.7159,-0.0862,-0.7368,-0.6443,-0.5305,-82.5000,20.8500,-30.4500,10.8457,-4.6615,3.6727,-1.7696,-3.1179,-2.2559,-36.7500,-13.6500,46.3500,6.3400,-7.1400,-8.6900,-3.1678,-2.7969,-0.5770,-28.1875,28.7500,13.7500,0.4375,62.9375,169.5625,0
1776971583.856,8.6670,1.3479,-0.0742,-0.8199,-0.7448,-0.5121,-82.5000,20.8500,-30.4500,9.9288,-4.0677,3.4237,-2.3840,-3.1824,-2.1767,-36.7500,-12.9000,42.9000,9.9300,-6.2800,-10.4700,-3.0990,-2.6834,-0.4309,-28.1875,28.7500,13.7500,3.2500,61.5000,172.1875,0
1776971583.861,8.1139,1.5778,0.2490,-1.0368,-0.7448,-0.5049,-82.5000,20.8500,-30.4500,9.4355,-3.1173,2.6959,-2.5897,-3.0800,-2.1221,-36.7500,-12.9000,42.9000,9.9300,-6.2800,-10.4700,-3.0990,-2.6834,-0.4309,-28.1875,28.7500,13.7500,6.1875,60.0000,174.5000,0
1776971583.866,8.1139,1.5778,0.2490,-1.0368,-0.7448,-0.5049,-81.6000,19.9500,-29.8500,9.4355,-3.1173,2.6959,-2.5897,-3.0800,-2.1221,-38.8500,-13.5000,42.3000,11.3900,-5.8600,-11.0100,-3.0456,-2.7194,-0.3371,-24.6875,29.6875,18.3750,6.1875,60.0000,174.5000,0
1776971583.871,7.9655,1.8292,0.3112,-1.2241,-0.7309,-0.4490,-81.6000,19.9500,-29.8500,9.7013,-1.9034,2.0327,-2.4197,-3.0638,-2.1224,-38.8500,-13.5000,42.3000,11.3900,-5.8600,-11.0100,-3.0456,-2.7194,-0.3371,-24.6875,29.6875,18.3750,9.1875,58.4375,176.6875,0
1776971583.876,7.8219,2.3248,0.2179,-1.2241,-0.7309,-0.4490,-81.9000,20.2500,-29.8500,9.7013,-1.9034,2.0327,-2.4197,-3.0638,-2.1224,-37.2000,-10.6500,39.3000,11.8200,-5.5600,-10.7700,-3.0292,-2.8929,-0.3251,-24.6875,29.6875,18.3750,9.1875,58.4375,176.6875,0
1776971583.883,7.8219,2.3248,0.2179,-1.3835,-0.5697,-0.3978,-81.9000,20.2500,-30.3000,9.9766,-0.4788,1.6831,-1.9292,-3.0291,-2.2076,-37.2000,-10.6500,39.3000,12.1900,-4.3300,-10.0500,-2.9791,-3.0358,-0.3491,-24.6875,29.6875,18.3750,12.3125,56.7500,178.7500,0
1776971583.888,7.7045,2.9305,-0.0120,-1.4618,-0.4056,-0.3595,-82.5000,22.0500,-30.4500,10.6446,0.1580,1.4437,-1.3803,-2.9047,-2.3273,-38.4000,-9.0000,37.6500,12.1900,-4.3300,-10.0500,-2.9791,-3.0358,-0.3491,-24.6875,29.6875,18.3750,15.4375,55.0000,-179.3125,0
1776971583.896,7.7165,3.5889,-0.1077,-1.4967,-0.3022,-0.3160,-81.9000,22.9500,-31.8000,10.6446,0.1580,1.4437,-1.3803,-2.9047,-2.3273,-38.2500,-7.9500,36.7500,12.6200,-3.5700,-10.1000,-2.8209,-3.1350,-0.3578,-24.6875,29.6875,18.3750,18.5000,53.1875,-177.6250,0
1776971583.906,7.7117,4.4388,0.4094,-1.5998,-0.4439,-0.2697,-83.4000,21.0000,-31.0500,10.9415,0.4860,0.9673,-0.7789,-2.8645,-2.3931,-38.2500,-7.9500,36.7500,12.8500,-3.0100,-10.1100,-2.5667,-3.2343,-0.3785,-24.6875,29.6875,18.3750,18.5000,53.1875,-177.6250,0
1776971583.911,7.7117,4.4388,0.4094,-1.5998,-0.4439,-0.2697,-83.4000,21.0000,-31.0500,11.1809,-0.3136,1.2474,-0.2547,-2.8925,-2.3694,-38.2500,-7.9500,36.7500,12.8500,-3.0100,-10.1100,-2.5667,-3.2343,-0.3785,-24.6875,29.6875,18.3750,18.5000,53.1875,-177.6250,0
1776971583.916,7.9464,4.2401,1.4629,-1.6598,-0.5737,-0.2358,-83.2500,23.5500,-31.2000,11.1809,-0.3136,1.2474,-0.2547,-2.8925,-2.3694,-38.4000,-8.2500,33.0000,12.6900,-2.4700,-9.9800,-2.2809,-3.3532,-0.4571,-24.7500,31.6875,25.6875,21.4375,51.3125,-176.1875,0
1776971583.921,7.9464,4.2401,1.4629,-1.6598,-0.5737,-0.2358,-83.2500,23.5500,-31.2000,10.8888,-0.4046,1.4485,0.0634,-2.9527,-2.2753,-38.4000,-8.2500,33.0000,12.6900,-2.4700,-9.9800,-2.2809,-3.3532,-0.4571,-24.7500,31.6875,25.6875,21.4375,51.3125,-176.1875,0
1776971583.926,8.8226,4.8507,0.3998,-1.4743,-0.3821,-0.1689,-83.2500,23.5500,-31.2000,10.8888,-0.4046,1.4485,0.0634,-2.9527,-2.2753,-38.8500,-7.8000,33.7500,11.6100,-1.7700,-9.2500,-2.0060,-3.4568,-0.5967,-24.7500,31.6875,25.6875,24.4375,49.3750,-174.8750,0
1776971583.931,8.8226,4.8507,0.3998,-1.4743,-0.3821,-0.1689,-83.2500,23.5500,-31.2000,10.7595,-0.5866,1.3503,0.2414,-2.9876,-2.1138,-38.8500,-7.8000,33.7500,11.6100,-1.7700,-9.2500,-1.7562,-3.4939,-0.8007,-24.7500,31.6875,25.6875,27.3750,47.4375,-173.6250,0
1776971583.937,8.1690,4.1204,1.5107,-1.3523,-0.5143,-0.1356,-82.6500,25.0500,-31.8000,10.8816,-0.5770,0.8715,0.2595,-2.9164,-1.9700,-36.7500,-4.9500,31.5000,11.1400,-1.5400,-9.1100,-1.7562,-3.4939,-0.8007,-24.7500,31.6875,25.6875,30.3125,45.5000,-172.4375,0
1776971583.946,8.3055,4.1539,1.5060,-1.1080,-0.5375,-0.0053,-82.6500,25.0500,-31.8000,10.8816,-0.5770,0.8715,0.1689,-2.9068,-1.8362,-37.0500,-6.0000,30.1500,10.8700,-1.0800,-9.1700,-1.4813,-3.4198,-1.0341,-24.7500,31.6875,25.6875,30.3125,45.5000,-172.4375,0
1776971583.956,8.5425,4.6448,0.8811,-0.8505,-0.4407,0.1543,-83.1000,26.1000,-31.8000,10.7404,-0.2107,-0.1748,0.2643,-2.8626,-1.7645,-37.0500,-6.0000,30.1500,9.6900,-1.1200,-8.2600,-1.1770,-3.3892,-1.2195,-24.7500,31.6875,25.6875,15.3125,43.5000,-171.3750,0
1776971583.961,8.5425,4.6448,0.8811,-0.8505,-0.4407,0.1543,-83.1000,26.1000,-31.8000,10.7404,-0.2107,-0.1748,0.2643,-2.8626,-1.7645,-37.0500,-6.0000,30.1500,9.6900,-1.1200,-8.2600,-1.1770,-3.3892,-1.2195,-24.7500,31.6875,25.6875,14.8750,41.5625,-170.4375,0
1776971583.966,7.9679,4.9560,0.4070,-0.6819,-0.3552,0.2553,-83.1000,26.1000,-31.8000,10.5321,0.1508,-0.3519,0.3773,-2.8408,-1.6752,-37.0500,-6.0000,30.1500,9.0300,-1.0800,-7.9900,-0.8934,-3.3139,-1.3734,-24.1875,29.5000,35.5000,14.8750,41.5625,-170.4375,0
1776971583.971,7.9679,4.9560,0.4070,-0.6819,-0.3552,0.2553,-83.4000,25.0500,-31.0500,10.5321,0.1508,-0.3519,0.3773,-2.8408,-1.6752,-37.0500,-6.0000,30.1500,9.0300,-1.0800,-7.9900,-0.8934,-3.3139,-1.3734,-24.1875,29.5000,35.5000,14.3125,39.7500,-169.6875,0
1776971583.976,7.9464,5.3103,-0.1772,-0.3664,-0.2766,0.3022,-83.4000,25.0500,-31.0500,10.6374,0.3448,-0.5363,0.4463,-2.8005,-1.5855,-37.9500,-1.2000,26.1000,8.6400,-0.9500,-7.5500,-0.5912,-3.0751,-1.4563,-24.1875,29.5000,35.5000,14.3125,39.7500,-169.6875,0
1776971583.982,8.2624,4.9919,-0.2322,-0.3664,-0.2766,0.3022,-83.1000,25.0500,-32.5500,10.6374,0.3448,-0.5363,0.4463,-2.8005,-1.5855,-37.9500,-1.2000,26.1000,8.6400,-0.9500,-7.5500,-0.2902,-2.8034,-1.4606,-24.1875,29.5000,35.5000,13.6875,38.0625,-169.1250,0
1776971583.987,8.2624,4.9919,-0.2322,-0.1540,-0.2848,0.3283,-83.8500,21.9000,-30.6000,10.4555,0.9912,-0.4477,0.6193,-2.7280,-1.5580,-36.6000,-1.8000,23.8500,10.1200,-0.3300,-8.3900,-0.2902,-2.8034,-1.4606,-24.1875,29.5000,35.5000,13.0000,36.5625,-168.7500,0
1776971583.996,8.7556,5.2098,-0.8547,0.0842,-0.1660,0.3488,-83.8500,21.9000,-30.6000,11.0133,1.7023,-1.3120,0.8458,-2.8016,-1.5354,-37.3500,-0.7500,22.8000,10.4400,-0.1400,-8.5000,0.0644,-2.5711,-1.3963,-24.1875,29.5000,35.5000,12.3750,35.0625,-168.7500,0
1776971584.006,8.7676,5.3774,-0.9313,0.2049,-0.1684,0.3400,-83.8500,21.9000,-30.6000,10.8625,2.5833,-1.8459,1.1141,-2.8360,-1.5338,-36.4500,-0.4500,20.7000,10.6600,-0.3500,-8.6000,0.4516,-2.4478,-1.2315,-24.1875,29.5000,35.5000,12.3750,35.0625,-168.7500,0
1776971584.011,8.1283,4.7549,-0.4022,0.2049,-0.1684,0.3400,-82.6500,24.1500,-31.8000,10.8625,2.5833,-1.8459,1.1141,-2.8360,-1.5338,-36.4500,-0.4500,20.7000,10.6600,-0.3500,-8.6000,0.4516,-2.4478,-1.2315,-24.1875,29.5000,35.5000,11.7500,33.6875,-168.9375,0
1776971584.016,8.1283,4.7549,-0.4022,0.2662,-0.2220,0.3424,-82.6500,24.1500,-31.8000,9.8713,3.1675,-2.0901,1.3328,-2.5623,-1.4623,-36.4500,-0.4500,20.7000,10.9100,-0.7100,-8.6900,0.7887,-2.3835,-1.0712,-22.6875,25.1875,40.5000,11.7500,33.6875,-168.9375,0
1776971584.021,7.9248,4.7333,-0.0311,0.2169,-0.4234,0.3597,-82.6500,24.1500,-31.8000,9.8713,3.1675,-2.0901,1.3328,-2.5623,-1.4623,-36.4500,-0.4500,20.7000,10.9100,-0.7100,-8.6900,0.7887,-2.3835,-1.0712,-22.6875,25.1875,40.5000,11.1875,32.3125,-169.3125,0
1776971584.026,7.9248,4.7333,-0.0311,0.2169,-0.4234,0.3597,-82.6500,24.1500,-31.8000,11.2073,1.8723,-1.3743,1.5902,-2.6580,-1.3851,-36.4500,-0.4500,20.7000,11.1800,-1.5000,-8.3900,1.0123,-2.3257,-0.9577,-22.6875,25.1875,40.5000,11.1875,32.3125,-169.3125,0
1776971584.033,8.2720,4.6519,0.1389,0.1268,-0.4114,0.3698,-82.5000,22.8000,-32.4000,11.2073,1.8723,-1.3743,1.3614,-2.3401,-1.2524,-32.8500,1.2000,19.0500,10.9900,-2.0600,-8.0400,1.0952,-2.2515,-0.8705,-22.6875,25.1875,40.5000,10.6250,31.0000,-169.7500,0
1776971584.038,8.2720,4.6519,0.1389,0.1268,-0.4114,0.3698,-82.6500,22.2000,-31.8000,9.8354,0.7733,-1.9010,1.3614,-2.3401,-1.2524,-32.8500,1.2000,19.0500,10.9900,-2.0600,-8.0400,1.0952,-2.2515,-0.8705,-22.6875,25.1875,40.5000,10.1250,29.7500,-170.2500,0
1776971584.046,8.3606,5.0326,0.2610,0.0949,-0.4868,0.3800,-82.6500,22.2000,-31.8000,9.7396,1.6999,-2.0255,1.4165,-2.3411,-1.1322,-35.4000,1.9500,18.3000,10.6000,-2.5800,-7.4500,1.0679,-2.1631,-0.8192,-22.6875,25.1875,40.5000,9.6250,28.5625,-170.6250,0
1776971584.056,7.9535,5.2146,0.3759,0.0671,-0.5297,0.4053,-81.3000,22.0500,-30.9000,9.4308,1.1516,-1.6448,1.3891,-2.1741,-1.0349,-35.4000,1.2000,16.8000,9.6800,-2.9300,-6.3200,0.9436,-2.0431,-0.7865,-22.6875,25.1875,40.5000,9.6250,28.5625,-170.6250,0
1776971584.061,8.2696,5.2553,0.2777,0.1154,-0.5708,0.3930,-81.7500,22.0500,-32.4000,9.4308,1.1516,-1.6448,1.3891,-2.1741,-1.0349,-32.8500,2.4000,16.8000,9.6800,-2.9300,-6.3200,0.9436,-2.0431,-0.7865,-22.6875,25.1875,40.5000,9.6250,28.5625,-170.6250,0
1776971584.066,8.2696,5.2553,0.2777,0.1154,-0.5708,0.3930,-81.7500,22.0500,-32.4000,9.6941,0.2179,-1.5323,1.1162,-1.9396,-0.8436,-32.8500,2.4000,16.8000,9.1400,-2.9200,-5.6400,0.7669,-1.9090,-0.7461,-19.7500,23.1875,44.7500,9.1875,27.4375,-170.9375,0
1776971584.071,8.5545,5.4755,0.0192,0.2225,-0.7493,0.3730,-81.6000,20.7000,-31.3500,9.6941,0.2179,-1.5323,1.1162,-1.9396,-0.8436,-32.8500,2.4000,16.8000,9.1400,-2.9200,-5.6400,0.7669,-1.9090,-0.7461,-19.7500,23.1875,44.7500,9.1875,27.4375,-170.9375,0
1776971584.076,8.5545,5.4755,0.0192,0.2225,-0.7493,0.3730,-81.6000,20.7000,-31.3500,8.6814,0.5890,-2.7461,0.8495,-1.8911,-0.7472,-32.8500,2.4000,16.8000,8.5200,-2.8000,-4.9800,0.5945,-1.7290,-0.6850,-19.7500,23.1875,44.7500,8.8125,26.4375,-171.1250,0
1776971584.086,8.0373,5.5450,-0.3687,0.2252,-0.6883,0.3142,-80.8500,22.6500,-31.0500,8.1475,0.5100,-2.2314,0.6115,-1.7046,-0.6475,-32.5500,1.5000,15.3000,8.4200,-2.9400,-3.9600,0.4745,-1.4781,-0.5749,-19.7500,23.1875,44.7500,8.5000,25.5625,-171.3125,0
1776971584.096,7.9703,5.6455,-0.5842,0.1932,-0.6265,0.2310,-80.8500,22.6500,-31.0500,7.3334,0.5363,-1.9058,0.1380,-1.5593,-0.5279,-31.6500,2.7000,14.4000,8.6700,-3.3500,-3.7300,0.3894,-1.2435,-0.3829,-19.7500,23.1875,44.7500,8.2500,24.8125,-171.4375,0
1776971584.103,8.0349,5.7796,-0.8212,0.1463,-0.5830,0.1671,-82.2000,21.3000,-33.0000,7.3933,1.0223,-1.7573,-0.2433,-1.4536,-0.3541,-29.8500,1.6500,15.4500,9.3100,-3.9600,-3.9700,0.3142,-1.0832,-0.1091,-19.7500,23.1875,44.7500,8.1875,24.2500,-171.6250,0
1776971584.108,7.7189,5.7365,-0.9242,0.0562,-0.5084,0.1092,-82.2000,21.3000,-33.0000,7.3933,1.0223,-1.7573,-0.2433,-1.4536,-0.3541,-29.8500,1.6500,15.4500,9.3100,-3.9600,-3.9700,0.3142,-1.0832,-0.1091,-19.7500,23.1875,44.7500,8.1875,24.2500,-171.6250,0
1776971584.112,7.7189,5.7365,-0.9242,0.0562,-0.5084,0.1092,-82.2000,21.3000,-33.0000,7.1395,1.5179,-1.4676,-0.6105,-1.2881,-0.1884,-32.1000,1.6500,13.3500,9.3100,-3.9600,-3.9700,0.1604,-0.9981,0.1876,-16.7500,21.2500,45.6875,8.3125,23.6875,-171.8125,0
1776971584.117,7.9535,5.7150,-0.9026,-0.0211,-0.4274,0.0757,-82.2000,21.3000,-33.0000,7.1395,1.5179,-1.4676,-0.6105,-1.2881,-0.1884,-32.1000,1.6500,13.3500,9.7000,-4.2400,-4.1000,0.1604,-0.9981,0.1876,-16.7500,21.2500,45.6875,8.3125,23.6875,-171.8125,0
1776971584.122,7.9535,5.7150,-0.9026,-0.0211,-0.4274,0.0757,-81.9000,20.2500,-31.0500,7.2065,1.3958,-1.6161,-1.0131,-1.1282,-0.0525,-30.4500,3.0000,12.4500,9.7000,-4.2400,-4.1000,-0.0873,-1.0014,0.5171,-16.7500,21.2500,45.6875,8.6875,23.1875,-171.9375,0
1776971584.127,7.8410,5.5833,-1.0487,-0.1114,-0.3416,0.0584,-81.9000,20.2500,-31.0500,7.2065,1.3958,-1.6161,-1.0131,-1.1282,-0.0525,-30.4500,3.0000,12.4500,9.2100,-4.8900,-3.4200,-0.0873,-1.0014,0.5171,-16.7500,21.2500,45.6875,8.6875,23.1875,-171.9375,0
1776971584.136,7.7309,5.3295,-1.0558,-0.2062,-0.2435,0.0421,-82.3500,21.4500,-33.3000,6.8929,1.9992,-1.8483,-1.2247,-1.0269,0.0333,-30.4500,3.0000,12.4500,8.7400,-5.0000,-2.8400,-0.3752,-0.9817,0.8421,-16.7500,21.2500,45.6875,9.1875,22.7500,-171.9375,0
1776971584.146,7.7692,4.9775,-1.1827,-0.3136,-0.1569,0.0413,-81.9000,21.4500,-31.3500,6.7828,2.4397,-2.2075,-1.3992,-0.8476,0.0962,-30.4500,3.0000,9.9000,8.0200,-4.9300,-2.0400,-0.6654,-0.9218,1.1737,-16.7500,21.2500,45.6875,9.9375,22.3125,-171.8750,0
1776971584.156,7.8578,4.7645,-1.2594,-0.4383,-0.1271,0.0440,-82.3500,21.4500,-32.8500,6.9576,1.8747,-1.6424,-1.5756,-0.6520,0.1748,-29.8500,4.6500,11.8500,7.2300,-4.5400,-0.8200,-0.8901,-0.7756,1.5326,-16.7500,21.2500,45.6875,10.9375,22.0000,-171.7500,0
1776971584.161,7.8578,4.7645,-1.2594,-0.4383,-0.1271,0.0440,-81.6000,20.2500,-31.3500,6.9073,1.9249,-1.6400,-1.7768,-0.5137,0.2411,-29.5500,5.7000,11.1000,7.2300,-4.5400,-0.8200,-0.8901,-0.7756,1.5326,-16.7500,21.2500,45.6875,10.9375,22.0000,-171.7500,0
1776971584.165,7.8578,4.4867,-1.3719,-0.5910,-0.0632,0.0437,-81.6000,20.2500,-31.3500,6.9073,1.9249,-1.6400,-1.7768,-0.5137,0.2411,-29.5500,5.7000,11.1000,7.2100,-4.2100,-0.6100,-1.0516,-0.5520,1.9100,-12.5000,21.6875,47.3750,12.1250,21.8750,-171.6250,0
1776971584.170,7.8578,4.4867,-1.3719,-0.5910,-0.0632,0.0437,-80.8500,21.0000,-33.3000,7.1443,1.4150,-1.2857,-1.9958,-0.3160,0.2958,-29.4000,4.8000,12.4500,7.2100,-4.2100,-0.6100,-1.0516,-0.5520,1.9100,-12.5000,21.6875,47.3750,12.1250,21.8750,-171.6250,0
1776971584.175,7.9775,4.3096,-1.4629,-0.7274,0.0083,0.0589,-80.8500,21.0000,-33.3000,7.1443,1.4150,-1.2857,-1.9958,-0.3160,0.2958,-29.4000,4.8000,12.4500,7.3600,-3.8500,-0.6700,-1.2054,-0.3033,2.2722,-12.5000,21.6875,47.3750,13.5625,21.8750,-171.4375,0
1776971584.180,7.9775,4.3096,-1.4629,-0.7274,0.0083,0.0589,-80.8500,21.0000,-33.3000,7.5753,1.0343,-1.1660,-2.2487,-0.1551,0.3816,-29.4000,5.5500,9.9000,7.3600,-3.8500,-0.6700,-1.2054,-0.3033,2.2722,-12.5000,21.6875,47.3750,15.1250,22.0625,-171.2500,0
1776971584.187,7.8530,4.2449,-1.4413,-0.8407,0.0794,0.0794,-80.8500,21.0000,-33.3000,7.5753,1.0343,-1.1660,-2.2487,-0.1551,0.3816,-29.4000,5.5500,9.9000,8.0000,-2.8500,-0.9800,-1.3635,-0.0436,2.5896,-12.5000,21.6875,47.3750,16.8750,22.3750,-171.0625,0
1776971584.196,7.8051,4.1683,-1.2282,-0.9337,0.1228,0.1191,-81.1500,21.9000,-31.8000,7.7093,0.5866,-0.6297,-2.5077,-0.0418,0.4607,-29.4000,5.5500,9.9000,8.4100,-2.3000,-1.1500,-1.5217,0.1778,2.8547,-12.5000,21.6875,47.3750,18.7500,22.8750,-170.8125,0
1776971584.207,7.8051,3.9840,-1.1636,-0.9803,0.1700,0.1639,-81.0000,22.5000,-31.2000,8.0302,1.1564,0.0622,-2.7949,0.0600,0.5297,-29.5500,5.7000,10.8000,8.7500,-1.6100,-1.4000,-1.6592,0.3512,3.0587,-12.5000,21.6875,47.3750,18.7500,22.8750,-170.8125,0
1776971584.211,7.8051,3.9840,-1.1636,-0.9803,0.1700,0.1639,-80.4000,21.9000,-33.3000,7.6734,1.2617,-0.2107,-3.0459,0.1362,0.6643,-28.6500,7.5000,11.7000,8.7500,-1.6100,-1.4000,-1.6592,0.3512,3.0587,-12.5000,21.6875,47.3750,20.6875,23.4375,-170.5625,0
1776971584.217,7.8386,3.6775,-1.0271,-1.0080,0.2316,0.2164,-80.4000,21.9000,-33.3000,7.6734,1.2617,-0.2107,-3.0459,0.1362,0.6643,-28.6500,7.5000,11.7000,8.9900,-1.1400,-1.5300,-1.8075,0.5040,3.2147,-10.7500,20.5625,47.2500,20.6875,23.4375,-170.5625,0
1776971584.221,7.8386,3.6775,-1.0271,-1.0080,0.2316,0.2164,-82.3500,22.9500,-32.1000,7.9416,1.1995,0.1197,-3.1323,0.3064,0.7370,-28.2000,7.8000,11.7000,8.9900,-1.1400,-1.5300,-1.8075,0.5040,3.2147,-10.7500,20.5625,47.2500,22.7500,24.0625,-170.3125,0
1776971584.227,7.9368,3.6152,-0.9170,-0.9987,0.2417,0.2891,-82.3500,22.9500,-32.1000,8.1475,1.7526,0.5387,-3.1120,0.3885,0.8132,-28.2000,7.8000,11.7000,9.7600,0.0500,-2.2800,-1.9046,0.6261,3.3434,-10.7500,20.5625,47.2500,22.7500,24.0625,-170.3125,0
1776971584.232,7.5944,3.7038,-0.7901,-0.9987,0.2417,0.2891,-82.5000,23.2500,-33.7500,8.1475,1.7526,0.5387,-3.1120,0.3885,0.8132,-30.7500,8.5500,12.0000,9.7600,0.0500,-2.2800,-1.9384,0.6970,3.4459,-10.7500,20.5625,47.2500,24.8750,24.7500,-170.0625,0
1776971584.238,7.5944,3.7038,-0.7901,-0.9761,0.2731,0.3712,-82.5000,23.2500,-33.7500,8.2361,1.6712,0.0599,-3.1341,0.5060,0.8684,-30.1500,9.0000,12.4500,9.8400,0.5500,-2.5100,-1.9384,0.6970,3.4459,-10.7500,20.5625,47.2500,27.0000,25.5000,-169.8125,0
1776971584.247,8.0780,3.5889,-0.7661,-0.8974,0.2340,0.4644,-83.1000,21.9000,-31.8000,8.5569,2.1237,0.3304,-3.0395,0.6547,0.9073,-30.1500,9.0000,12.4500,9.6300,0.9800,-2.4900,-1.9439,0.7341,3.5147,-10.7500,20.5625,47.2500,29.1875,26.3125,-169.6250,0
1776971584.257,7.5992,3.6727,-0.6991,-0.8479,0.2545,0.5822,-83.1000,21.9000,-31.8000,8.2121,2.5594,0.1796,-2.9108,0.6912,0.9571,-30.1500,9.0000,12.4500,9.2000,2.1000,-2.2200,-1.9297,0.7756,3.4874,-10.7500,20.5625,47.2500,29.1875,26.3125,-169.6250,0
1776971584.262,7.5896,3.6057,-0.6704,-0.7072,0.3088,0.7139,-82.9500,22.5000,-31.6500,8.2121,2.5594,0.1796,-2.9108,0.6912,0.9571,-30.7500,9.3000,13.5000,9.2000,2.1000,-2.2200,-1.9297,0.7756,3.4874,-10.7500,20.5625,47.2500,31.2500,27.0625,-169.4375,0
1776971584.267,7.5896,3.6057,-0.6704,-0.7072,0.3088,0.7139,-82.9500,22.5000,-31.6500,8.2648,2.9521,0.2658,-2.6452,0.8274,1.0288,-30.7500,9.3000,13.5000,9.1300,2.7100,-2.0500,-1.8915,0.8607,3.3456,-8.1875,18.6875,48.0000,31.2500,27.0625,-169.4375,0
1776971584.272,7.5202,3.5817,-0.7661,-0.5502,0.3096,0.8452,-82.9500,22.5000,-31.6500,8.2648,2.9521,0.2658,-2.6452,0.8274,1.0288,-29.4000,9.7500,12.7500,9.1300,2.7100,-2.0500,-1.8915,0.8607,3.3456,-8.1875,18.6875,48.0000,33.1875,27.9375,-169.3125,0
1776971584.277,7.5202,3.5817,-0.7661,-0.5502,0.3096,0.8452,-82.9500,22.5000,-31.6500,8.3821,3.3543,0.3352,-2.3118,0.9625,1.1045,-31.3500,9.1500,12.6000,9.1900,3.3100,-2.0700,-1.8010,0.9948,3.1056,-8.1875,18.6875,48.0000,33.1875,27.9375,-169.3125,0
1776971584.285,7.5609,3.6727,-0.2538,-0.5263,0.3158,1.0147,-83.8500,22.6500,-33.3000,8.2217,3.2274,0.1149,-1.8626,1.1306,1.1791,-31.3500,9.1500,12.6000,9.8500,4.2500,-2.3600,-1.6068,1.1432,2.7871,-8.1875,18.6875,48.0000,34.8750,28.8750,-169.1875,0
1776971584.290,7.5729,4.1084,-0.2442,-0.5263,0.3158,1.0147,-84.6000,20.2500,-33.3000,8.2217,3.2274,0.1149,-1.8626,1.1306,1.1791,-31.0500,10.6500,13.6500,9.8500,4.2500,-2.3600,-1.6068,1.1432,2.7871,-8.1875,18.6875,48.0000,36.3125,29.8125,-169.1250,0
1776971584.297,7.5729,4.1084,-0.2442,-0.4810,0.3136,1.1914,-84.6000,20.2500,-32.1000,7.8961,2.8587,-0.2442,-1.3680,1.3526,1.2585,-30.6000,9.1500,13.6500,10.8000,4.8000,-2.7600,-1.2708,1.2730,2.3976,-8.1875,18.6875,48.0000,37.4375,30.7500,-169.1875,0
1776971584.307,8.0278,4.6376,-0.4142,-0.3818,0.1599,1.3225,-85.5000,20.4000,-32.7000,7.6279,2.6049,-0.5124,-0.8087,1.6161,1.3363,-30.6000,9.1500,13.6500,11.7800,5.0400,-3.0200,-0.8159,1.3668,1.9450,-8.1875,18.6875,48.0000,37.4375,30.7500,-169.1875,0
1776971584.312,7.0150,4.3574,-0.5483,-0.4434,0.3749,1.4104,-83.4000,21.0000,-31.0500,7.6279,2.6049,-0.5124,-0.8087,1.6161,1.3363,-30.6000,9.1500,13.6500,11.7800,5.0400,-3.0200,-0.8159,1.3668,1.9450,-8.1875,18.6875,48.0000,37.4375,30.7500,-169.1875,0
1776971584.317,7.0150,4.3574,-0.5483,-0.4434,0.3749,1.4104,-83.4000,21.0000,-31.0500,11.2264,7.0198,-0.0479,-0.4301,1.7536,1.2646,-31.2000,9.7500,15.9000,12.8100,4.7900,-3.6800,-0.2978,1.3581,1.4181,-7.5625,17.1875,47.6875,38.2500,31.6250,-169.4375,0
1776971584.322,8.8992,4.1970,-0.4094,-0.4394,0.5838,1.6025,-84.1500,20.7000,-31.0500,11.2264,7.0198,-0.0479,-0.4301,1.7536,1.2646,-31.2000,9.7500,15.9000,12.8100,4.7900,-3.6800,-0.2978,1.3581,1.4181,-7.5625,17.1875,47.6875,38.2500,31.6250,-169.4375,0
1776971584.327,8.8992,4.1970,-0.4094,-0.4394,0.5838,1.6025,-84.1500,20.7000,-31.0500,15.3205,12.1793,-9.9264,-2.0949,1.4989,0.9086,-31.9500,8.5500,15.3000,1.0600,18.0700,-33.6200,0.2814,1.0188,1.0221,-7.5625,17.1875,47.6875,38.6875,32.3125,-169.8750,0
1776971584.332,13.4339,4.3096,0.1508,-0.5670,1.0080,1.9907,-85.5000,19.6500,-31.2000,15.3205,12.1793,-9.9264,-2.0949,1.4989,0.9086,-31.9500,8.5500,15.3000,1.0600,18.0700,-33.6200,1.7071,-0.7898,0.9272,-7.5625,17.1875,47.6875,39.0000,31.9375,-171.1875,0
1776971584.338,15.1912,3.2226,3.7852,-0.5670,1.0080,1.9907,-85.5000,19.6500,-31.2000,21.6699,14.7698,-15.2199,-3.1594,-0.2971,-0.2262,-32.8500,9.9000,16.5000,-17.6900,15.0400,-31.7100,1.7071,-0.7898,0.9272,-7.5625,17.1875,47.6875,39.5000,31.5000,-172.0625,0
1776971584.347,16.2016,0.8547,5.5067,-1.1815,0.8620,2.2473,-85.5000,19.6500,-31.2000,11.4060,7.9033,-10.0149,-0.4730,-1.1898,-1.1183,-33.3000,11.2500,14.5500,15.8400,23.2200,-37.5900,0.8759,-0.9807,1.0647,-7.5625,17.1875,47.6875,39.4375,32.5000,-171.8125,0
1776971584.357,15.2152,0.4788,-1.5586,-1.0776,0.1524,2.2228,-86.1000,18.3000,-31.0500,11.5855,1.1636,7.2520,5.3394,0.2952,-1.2508,-33.3000,11.2500,14.5500,5.0700,2.8800,5.7000,-0.3512,1.8533,-0.0218,-7.5625,17.1875,47.6875,39.4375,32.5000,-171.8125,0
1776971584.362,15.2152,0.4788,-1.5586,0.2537,-0.7608,2.3641,-86.2500,16.9500,-28.9500,11.5855,1.1636,7.2520,4.3276,1.2545,-0.4927,-33.3000,11.2500,14.5500,5.0700,2.8800,5.7000,-0.3512,1.8533,-0.0218,-7.5625,17.1875,47.6875,39.5000,34.6875,-172.2500,0
1776971584.367,12.6462,4.7764,-5.1404,0.6472,-0.0160,2.2306,-86.2500,16.9500,-28.9500,12.0093,5.1523,-5.7652,4.3276,1.2545,-0.4927,-33.3000,11.2500,14.5500,14.1900,-5.8400,-9.1600,0.7854,3.8724,0.5454,-8.2500,18.5625,48.2500,39.5000,34.6875,-172.2500,0
1776971584.372,12.6462,4.7764,-5.1404,0.6472,-0.0160,2.2306,-87.6000,14.8500,-29.5500,10.9750,-1.4365,-2.6073,4.4984,0.8847,-0.2292,-33.3000,11.2500,14.5500,14.1900,-5.8400,-9.1600,0.7854,3.8724,0.5454,-8.2500,18.5625,48.2500,39.5000,36.1875,-173.1250,0
1776971584.377,11.5257,6.0932,-0.2921,-0.3142,0.7176,1.7008,-87.6000,14.8500,-29.5500,10.9750,-1.4365,-2.6073,4.4984,0.8847,-0.2292,-32.1000,8.4000,18.3000,17.5000,-14.3700,-16.9600,1.4126,2.6409,0.6109,-8.2500,18.5625,48.2500,39.5000,36.1875,-173.1250,0
1776971584.385,9.7109,3.7278,1.6352,-0.3142,0.7176,1.7008,-87.3000,13.6500,-28.5000,14.1713,-2.8347,-1.0942,3.3537,0.5782,-0.1335,-34.0500,6.7500,17.1000,12.8200,-15.5000,-10.4900,0.4320,1.2752,0.2749,-8.2500,18.5625,48.2500,39.5000,36.8750,-173.3750,0
1776971584.390,9.7109,3.7278,1.6352,0.2782,1.0722,1.3907,-87.3000,13.6500,-28.5000,14.1713,-2.8347,-1.0942,3.3537,0.5782,-0.1335,-34.0500,6.7500,17.1000,12.8200,-15.5000,-10.4900,0.4320,1.2752,0.2749,-8.2500,18.5625,48.2500,39.5625,37.0000,-173.1250,0
1776971584.397,12.2368,1.5443,-0.1580,0.9987,0.6571,1.1810,-87.0000,12.6000,-28.6500,9.8330,0.5171,-4.3622,1.0821,0.1719,0.0056,-33.0000,6.3000,17.1000,5.6600,5.6400,-7.2000,-0.4669,0.1516,-0.0295,-8.2500,18.5625,48.2500,39.6250,37.0000,-172.6875,0
1776971584.407,8.9256,-1.3024,1.0463,0.7085,0.4061,1.0267,-87.3000,11.2500,-27.7500,7.4101,3.8906,-0.8164,-0.5497,0.4072,0.2198,-33.1500,6.1500,16.8000,5.9800,1.9500,-8.4800,-0.6600,0.0164,-0.1265,-8.2500,18.5625,48.2500,39.6250,37.0000,-172.6875,0
1776971584.412,8.9256,-1.3024,1.0463,0.7085,0.4061,1.0267,-87.3000,11.2500,-27.7500,2.8778,6.6942,-3.1580,-1.0147,1.1437,0.4834,-33.1500,6.1500,16.8000,5.9800,1.9500,-8.4800,-0.6600,0.0164,-0.1265,-8.2500,18.5625,48.2500,39.6250,37.0000,-172.6875,0
1776971584.417,7.8314,-2.4134,1.1133,0.3880,0.4149,0.9337,-87.3000,11.2500,-27.7500,2.8778,6.6942,-3.1580,-1.0147,1.1437,0.4834,-33.1500,6.1500,16.8000,7.1400,-0.1000,-8.0900,-0.5890,0.6632,-0.0720,-10.5625,21.8750,47.5000,39.6875,37.3125,-172.3125,0
1776971584.422,7.8314,-2.4134,1.1133,0.3880,0.4149,0.9337,-87.6000,10.5000,-26.2500,6.2106,6.0501,-5.3415,-1.2177,1.7571,0.6323,-33.1500,6.1500,16.8000,7.1400,-0.1000,-8.0900,-0.5890,0.6632,-0.0720,-10.5625,21.8750,47.5000,39.6875,37.3125,-172.3125,0
1776971584.427,9.6103,-2.4732,-0.6393,0.4125,0.4189,0.8079,-87.6000,10.5000,-26.2500,6.2106,6.0501,-5.3415,-1.2177,1.7571,0.6323,-33.1500,6.1500,16.8000,5.4200,2.4300,-6.6100,-0.6818,0.4581,-0.0327,-10.5625,21.8750,47.5000,39.8125,37.5625,-171.8750,0
1776971584.432,9.6103,-2.4732,-0.6393,0.4125,0.4189,0.8079,-87.6000,10.5000,-26.2500,7.5417,6.0597,-5.2984,-0.1756,1.2660,0.4056,-33.1500,6.1500,16.8000,5.4200,2.4300,-6.6100,-0.6512,-0.1974,0.0600,-10.5625,21.8750,47.5000,39.9375,37.5000,-171.5625,0
1776971584.438,8.4779,-1.3192,-2.7007,-0.0370,0.4149,0.6480,-87.6000,10.5000,-26.2500,7.5417,6.0597,-5.2984,-0.1756,1.2660,0.4056,-33.0000,6.0000,18.4500,5.4300,1.9600,-7.3500,-0.6512,-0.1974,0.0600,-10.5625,21.8750,47.5000,40.1250,37.3125,-171.5625,0
1776971584.447,8.7604,0.2945,-3.3184,-0.9246,0.4802,0.5041,-88.8000,8.1000,-24.7500,8.8107,4.1108,-3.9600,0.0600,1.1466,0.3110,-34.2000,7.6500,19.6500,4.7800,1.1900,-7.7400,-0.2203,-0.3709,0.2302,-10.5625,21.8750,47.5000,40.1250,37.3125,-171.5625,0
1776971584.457,9.2488,0.7542,-2.0782,-1.8906,0.5742,0.4586,-88.3500,8.1000,-25.8000,8.8801,2.7557,-2.6193,0.1476,0.8244,0.2356,-33.6000,7.2000,19.3500,5.4800,0.7200,-7.9300,0.2323,0.0905,0.3283,-10.5625,21.8750,47.5000,40.2500,37.3750,-171.8125,0
1776971584.462,9.6750,0.3974,0.3328,-1.8906,0.5742,0.4586,-88.9500,9.4500,-26.4000,8.1020,2.4397,-0.6177,0.1575,0.7613,0.1172,-33.6000,7.2000,19.3500,5.4800,0.7200,-7.9300,0.2323,0.0905,0.3283,-10.5625,21.8750,47.5000,40.3750,37.6250,-172.1875,0
1776971584.467,9.6750,0.3974,0.3328,-2.4853,0.6520,0.4445,-88.9500,9.4500,-26.4000,8.1020,2.4397,-0.6177,0.1575,0.7613,0.1172,-34.2000,4.9500,18.3000,7.6900,0.1800,-8.7000,0.4440,0.4538,0.3240,-12.0625,20.3750,47.7500,40.3750,37.6250,-172.1875,0
1776971584.472,9.1746,-0.1580,2.6528,-2.4853,0.6520,0.4445,-88.9500,9.4500,-24.6000,9.6630,1.9201,0.4142,0.1591,0.9084,0.1428,-34.2000,4.9500,18.3000,7.6900,0.1800,-8.7000,0.4440,0.4538,0.3240,-12.0625,20.3750,47.7500,40.4375,37.8125,-172.5000,0
1776971584.477,9.1746,-0.1580,2.6528,-2.5836,0.4975,0.4469,-88.9500,9.4500,-24.6000,9.6630,1.9201,0.4142,0.1591,0.9084,0.1428,-34.2000,4.9500,18.3000,7.5700,-0.3100,-7.8500,0.3949,0.3043,0.3152,-12.0625,20.3750,47.7500,40.4375,37.8125,-172.5000,0
1776971584.485,9.3254,-0.5507,3.7110,-2.3659,0.3200,0.4596,-88.3500,9.0000,-25.0500,10.5058,1.3479,1.3934,-0.0682,1.2505,0.1948,-36.3000,6.3000,21.6000,5.9300,0.2500,-8.0800,0.1494,-0.0055,0.3152,-12.0625,20.3750,47.7500,40.5625,37.8750,-172.7500,0
1776971584.490,9.3254,-0.5507,3.7110,-2.3659,0.3200,0.4596,-88.3500,9.0000,-25.0500,10.5010,0.9864,1.2498,-0.3784,1.2265,0.2411,-36.3000,6.3000,21.6000,5.9300,0.2500,-8.0800,0.1494,-0.0055,0.3152,-12.0625,20.3750,47.7500,40.6875,38.0000,-172.9375,0
1776971584.498,8.7556,-0.8787,3.7733,-2.1141,0.2278,0.5004,-88.0500,10.9500,-25.0500,9.8569,1.8890,0.6105,-0.3613,1.1535,0.2430,-33.7500,7.0500,21.3000,6.9100,0.3800,-7.8400,0.2171,0.2094,0.2149,-12.0625,20.3750,47.7500,40.6875,38.2500,-173.1250,0
1776971584.507,8.5904,-1.1349,3.0909,-1.9111,0.1506,0.5905,-88.0500,10.9500,-25.0500,9.4954,2.9975,0.4070,-0.1524,1.0381,0.1937,-34.6500,5.7000,22.2000,6.8000,0.5300,-7.9000,0.2531,0.3971,0.1473,-12.0625,20.3750,47.7500,40.6875,38.2500,-173.1250,0
1776971584.512,8.9136,-1.3431,2.6576,-1.7483,0.1223,0.6891,-88.9500,10.3500,-23.1000,9.4954,2.9975,0.4070,-0.1524,1.0381,0.1937,-34.6500,5.7000,22.2000,6.8000,0.5300,-7.9000,0.2531,0.3971,0.1473,-12.0625,20.3750,47.7500,40.6875,38.2500,-173.1250,0
1776971584.517,8.9136,-1.3431,2.6576,-1.7483,0.1223,0.6891,-88.9500,10.3500,-23.1000,9.7324,3.1699,0.1437,0.0093,0.8021,0.1607,-35.5500,5.5500,22.0500,6.7300,0.8100,-7.6300,0.2880,0.3611,0.1004,-11.5000,21.5000,47.0000,40.6875,38.4375,-173.3125,0
1776971584.522,9.0094,-1.4916,2.3679,-1.4506,0.2470,0.7213,-88.9500,10.3500,-23.1000,9.7324,3.1699,0.1437,0.0093,0.8021,0.1607,-35.4000,6.4500,22.9500,6.7300,0.8100,-7.6300,0.2880,0.3611,0.1004,-11.5000,21.5000,47.0000,40.6875,38.4375,-173.3125,0
1776971584.527,9.0094,-1.4916,2.3679,-1.4506,0.2470,0.7213,-88.9500,10.3500,-23.1000,9.2608,3.3255,-0.3567,0.0813,0.6059,0.1207,-35.4000,6.4500,22.9500,6.5800,0.7800,-7.5800,0.2858,0.3262,0.0622,-11.5000,21.5000,47.0000,40.6250,38.6250,-173.5000,0
1776971584.532,9.5361,-1.6257,2.8108,-1.3387,0.2678,0.7312,-90.3000,9.0000,-24.0000,9.2608,3.3255,-0.3567,0.0813,0.6059,0.1207,-35.4000,6.4500,22.9500,6.5800,0.7800,-7.5800,0.2465,0.2945,0.0316,-11.5000,21.5000,47.0000,40.6250,38.7500,-173.6250,0
1776971584.538,9.5361,-1.6257,2.8108,-1.3387,0.2678,0.7312,-90.3000,9.0000,-24.0000,9.1506,3.3662,-0.7326,0.0807,0.5385,0.1228,-35.4000,6.4500,22.9500,6.6300,0.6400,-7.5900,0.2465,0.2945,0.0316,-11.5000,21.5000,47.0000,40.5625,38.8750,-173.6875,0
1776971584.547,9.7779,-1.5874,3.1364,-0.9505,0.4029,0.6648,-89.7000,9.9000,-23.8500,9.2177,3.5841,-0.4812,0.0133,0.5321,0.1529,-35.8500,6.7500,22.8000,6.3800,0.6800,-7.5800,0.1800,0.2051,0.0000,-11.5000,21.5000,47.0000,40.5625,38.9375,-173.7500,0
1776971584.557,9.2919,0.1796,4.4796,-0.7647,0.3246,0.6374,-89.8500,7.8000,-23.7000,9.3470,3.6583,-0.2729,-0.2356,0.5478,0.2238,-35.7000,6.4500,22.9500,6.1600,0.7100,-7.6900,0.1080,0.1134,-0.0098,-11.5000,21.5000,47.0000,40.5625,38.9375,-173.7500,0
1776971584.562,9.3063,0.4094,3.9552,-0.3840,0.4018,0.5183,-89.7000,7.8000,-23.7000,9.3470,3.6583,-0.2729,-0.2356,0.5478,0.2238,-36.4500,5.7000,22.9500,6.1600,0.7100,-7.6900,0.1080,0.1134,-0.0098,-11.5000,21.5000,47.0000,40.5000,39.0000,-173.8125,0
1776971584.567,9.3063,0.4094,3.9552,-0.3840,0.4018,0.5183,-89.7000,8.7000,-22.6500,8.7891,3.9409,-0.0503,-0.4175,0.5271,0.2401,-36.4500,5.7000,22.9500,6.2700,0.7900,-7.5900,0.0840,0.1080,0.0000,-11.7500,21.7500,46.5625,40.5000,39.0000,-173.8125,0
1776971584.572,8.9256,1.4676,3.7158,-0.0242,0.5955,0.4530,-89.7000,8.4000,-22.6500,8.7891,3.9409,-0.0503,-0.4175,0.5271,0.2401,-36.3000,5.2500,23.8500,6.2700,0.7900,-7.5900,0.0840,0.1080,0.0000,-11.7500,21.7500,46.5625,40.5000,39.0625,-173.8125,0
1776971584.577,9.5577,1.3384,3.1939,-0.0242,0.5955,0.4530,-89.7000,8.4000,-22.6500,8.9280,3.3974,0.0072,-0.7218,0.5319,0.2358,-36.3000,5.2500,23.8500,6.3100,0.8800,-7.5300,0.0818,0.1211,0.0087,-11.7500,21.7500,46.5625,40.5000,39.0625,-173.8125,0
1776971584.585,9.5577,1.3384,3.1939,-0.0469,0.5622,0.3896,-88.9500,9.1500,-23.4000,9.3901,3.1244,-0.2466,-0.9726,0.5119,0.2801,-37.3500,6.3000,23.4000,6.3200,0.8800,-7.5700,0.0720,0.1145,0.0196,-11.7500,21.7500,46.5625,40.5000,39.1250,-173.8750,0
1776971584.590,9.4619,0.9218,2.1284,-0.0272,0.6049,0.3091,-88.9500,9.1500,-23.4000,9.3901,3.1244,-0.2466,-0.9726,0.5119,0.2801,-37.3500,6.3000,23.4000,6.3200,0.8800,-7.5700,0.0720,0.1145,0.0196,-11.7500,21.7500,46.5625,40.5000,39.1875,-173.9375,0
1776971584.598,9.6965,0.2538,1.5251,-0.1300,0.5668,0.2510,-88.9500,9.1500,-23.4000,9.4643,2.8539,-0.6895,-1.1490,0.5079,0.3248,-37.3500,6.3000,23.4000,6.4200,0.6900,-7.5500,0.0654,0.1287,0.0229,-11.7500,21.7500,46.5625,40.5000,39.1875,-173.9375,0
1776971584.604,9.6965,0.2538,1.5251,-0.1300,0.5668,0.2510,-91.8000,7.3500,-20.7000,9.5840,2.5379,-1.1516,-1.1911,0.5239,0.3685,-36.0000,5.7000,25.0500,6.3300,0.7300,-7.6000,0.0611,0.0949,0.0196,-11.7500,21.7500,46.5625,40.5000,39.2500,-173.9375,0
1776971584.609,9.7779,-0.7111,1.3216,-0.3411,0.4578,0.2086,-91.8000,7.3500,-20.7000,9.5840,2.5379,-1.1516,-1.1911,0.5239,0.3685,-36.0000,5.7000,25.0500,6.3300,0.7300,-7.6000,0.0611,0.0949,0.0196,-11.7500,21.7500,46.5625,40.5000,39.2500,-173.9375,0
1776971584.614,9.7779,-0.7111,1.3216,-0.3411,0.4578,0.2086,-90.4500,8.4000,-21.9000,9.5170,2.6025,-1.0511,-1.1093,0.4951,0.3906,-36.0000,3.9000,24.0000,6.3000,0.7100,-7.5600,0.0611,0.0753,0.0098,-11.7500,22.7500,46.1875,40.5000,39.3125,-174.0000,0
1776971584.619,9.8474,-1.0774,1.2186,-0.6352,0.3645,0.1940,-90.4500,8.4000,-21.9000,9.5170,2.6025,-1.0511,-1.1093,0.4951,0.3906,-36.0000,3.9000,24.0000,6.3000,0.7100,-7.5600,0.0611,0.0753,0.0098,-11.7500,22.7500,46.1875,40.5000,39.3125,-174.0000,0
1776971584.624,9.8474,-1.0774,1.2186,-0.6352,0.3645,0.1940,-90.4500,5.5500,-20.1000,9.3565,2.8036,-1.0032,-1.0389,0.4551,0.3794,-36.0000,4.9500,26.1000,6.1800,0.6300,-7.6100,0.0513,0.0502,0.0098,-11.7500,22.7500,46.1875,40.4375,39.3750,-174.0000,0
1776971584.629,9.7971,-1.0080,1.1851,-0.9454,0.3328,0.1857,-90.4500,5.5500,-20.1000,9.3565,2.8036,-1.0032,-1.0389,0.4551,0.3794,-36.0000,4.9500,26.1000,6.1800,0.6300,-7.6100,0.0513,0.0502,0.0098,-11.7500,22.7500,46.1875,40.4375,39.3750,-174.0000,0
1776971584.634,9.7971,-1.0080,1.1851,-0.9454,0.3328,0.1857,-89.8500,8.1000,-21.0000,9.2775,2.9281,-0.6105,-0.9070,0.4647,0.3592,-36.4500,6.9000,26.4000,6.1500,0.5600,-7.6100,0.0709,0.0709,-0.0011,-11.7500,22.7500,46.1875,40.4375,39.3750,-174.0625,0
1776971584.638,9.7133,-1.0726,1.2546,-1.2526,0.2630,0.1828,-89.8500,8.1000,-21.0000,9.2775,2.9281,-0.6105,-0.9070,0.4647,0.3592,-36.4500,6.9000,26.4000,6.1500,0.5600,-7.6100,0.0709,0.0709,-0.0011,-11.7500,22.7500,46.1875,40.3750,39.4375,-174.1250,0
1776971584.648,9.5720,-1.0391,1.4509,-1.5391,0.1793,0.1775,-90.4500,6.0000,-21.6000,9.1051,3.2298,-0.1341,-0.7328,0.5007,0.3437,-35.5500,5.2500,25.2000,6.3000,0.5900,-7.6200,0.1287,0.1342,-0.0196,-11.7500,22.7500,46.1875,40.3750,39.4375,-174.1250,0
1776971584.654,9.5720,-1.0391,1.4509,-1.5391,0.1793,0.1775,-91.8000,7.8000,-20.2500,9.1818,3.0454,-0.1149,-0.6038,0.5145,0.3232,-35.5500,5.2500,25.2000,6.2400,0.7700,-7.4400,0.1516,0.1702,-0.0251,-11.7500,22.7500,46.1875,40.3750,39.5625,-174.1875,0
1776971584.659,9.5193,-1.0415,1.7813,-1.7698,0.1500,0.1769,-91.8000,7.8000,-20.2500,9.1818,3.0454,-0.1149,-0.6038,0.5145,0.3232,-35.5500,5.2500,25.2000,6.2400,0.7700,-7.4400,0.1516,0.1702,-0.0251,-11.7500,22.7500,46.1875,40.3750,39.5625,-174.1875,0
1776971584.664,9.3996,-1.0511,2.3104,-1.7698,0.1500,0.1769,-91.8000,7.8000,-20.2500,9.1482,2.8204,0.2897,-0.5556,0.5207,0.3096,-37.6500,4.8000,26.2500,6.2400,0.7700,-7.4400,0.1516,0.1702,-0.0251,-11.8750,21.7500,45.6875,40.3125,39.6250,-174.2500,0
1776971584.668,9.3996,-1.0511,2.3104,-1.8895,0.1092,0.1719,-91.8000,7.8000,-20.2500,9.1482,2.8204,0.2897,-0.5556,0.5207,0.3096,-37.6500,4.8000,26.2500,6.0900,0.7300,-7.4600,0.1429,0.1484,-0.0349,-11.8750,21.7500,45.6875,40.3125,39.6250,-174.2500,0
1776971584.673,9.2632,-0.9409,2.7916,-1.8895,0.1092,0.1719,-91.2000,7.5000,-20.2500,9.2296,2.6217,0.5650,-0.5761,0.5015,0.3096,-37.2000,4.6500,24.3000,6.0900,0.7300,-7.4600,0.1429,0.1484,-0.0349,-11.8750,21.7500,45.6875,40.2500,39.6875,-174.3125,0
1776971584.678,9.2632,-0.9409,2.7916,-1.8945,0.0759,0.1671,-91.2000,7.5000,-19.3500,9.2296,2.6217,0.5650,-0.5761,0.5015,0.3096,-37.2000,4.6500,24.3000,6.0800,0.6900,-7.4800,0.1505,0.1658,-0.0404,-11.8750,21.7500,45.6875,40.2500,39.6875,-174.3125,0
1776971584.683,9.2153,-0.8811,3.1747,-1.8945,0.0759,0.1671,-91.2000,7.5000,-19.3500,9.3134,2.4014,0.3687,-0.7274,0.4935,0.3123,-36.7500,6.1500,27.6000,6.0800,0.6900,-7.4800,0.1800,0.2323,-0.0502,-11.8750,21.7500,45.6875,40.1875,39.8125,-174.3750,0
1776971584.688,9.2153,-0.8811,3.1747,-1.8079,0.0799,0.1564,-91.2000,7.5000,-19.3500,9.3134,2.4014,0.3687,-0.7274,0.4935,0.3123,-36.7500,6.1500,27.6000,6.0800,0.6000,-7.3800,0.1800,0.2323,-0.0502,-11.8750,21.7500,45.6875,40.1875,39.8125,-174.3750,0
1776971584.697,9.1937,-0.4812,3.3447,-1.6729,0.0877,0.1575,-92.2500,7.8000,-19.5000,9.3661,2.5259,0.7135,-0.8724,0.4799,0.3163,-37.0500,6.0000,26.7000,6.0800,0.7800,-7.4100,0.2509,0.3305,-0.0687,-11.8750,21.7500,45.6875,40.0625,40.0000,-174.5000,0
1776971584.702,9.2201,-0.0120,3.4596,-1.6729,0.0877,0.1575,-92.2500,7.8000,-19.5000,9.3948,2.6695,0.5267,-0.9771,0.4229,0.3166,-38.4000,5.5500,28.0500,6.0800,0.7800,-7.4100,0.2585,0.4309,-0.0458,-11.8750,21.7500,45.6875,40.0000,40.2500,-174.5625,0
1776971584.708,9.2201,-0.0120,3.4596,-1.5071,0.1050,0.1652,-89.7000,7.2000,-19.0500,9.3948,2.6695,0.5267,-0.9771,0.4229,0.3166,-38.4000,5.5500,28.0500,6.6100,0.7700,-7.2500,0.2585,0.4309,-0.0458,-11.8750,21.7500,45.6875,40.0000,40.2500,-174.5625,0
1776971584.713,9.1650,0.1604,3.3639,-1.3067,0.1442,0.1759,-90.4500,7.2000,-19.0500,9.6055,2.8108,0.6871,-1.0301,0.3352,0.3136,-38.4000,5.5500,28.0500,6.6100,0.7700,-7.2500,0.2585,0.4309,-0.0458,-11.8750,22.7500,45.6875,39.8750,40.5625,-174.6875,0
1776971584.718,9.1650,0.1604,3.3639,-1.3067,0.1442,0.1759,-90.4500,7.9500,-17.5500,9.6055,2.8108,0.6871,-1.0301,0.3352,0.3136,-38.4000,5.5500,28.0500,6.4200,0.7800,-7.1800,0.3054,0.5334,-0.0731,-11.8750,22.7500,45.6875,39.8750,40.5625,-174.6875,0
1776971584.723,9.2488,0.2107,3.1484,-1.1021,0.1519,0.1791,-90.4500,7.9500,-17.5500,9.5529,2.8826,0.4860,-1.0477,0.2518,0.3024,-36.7500,4.9500,26.8500,6.4200,0.7800,-7.1800,0.3054,0.5334,-0.0731,-11.8750,22.7500,45.6875,39.6875,40.8750,-174.8125,0
1776971584.728,9.2488,0.2107,3.1484,-1.1021,0.1519,0.1791,-91.8000,8.1000,-18.0000,9.5529,2.8826,0.4860,-1.0477,0.2518,0.3024,-36.7500,4.9500,26.8500,6.3600,0.7500,-7.3500,0.3491,0.5890,-0.1429,-11.8750,22.7500,45.6875,39.6875,40.8750,-174.8125,0
1776971584.733,9.1985,0.3639,2.8802,-0.9294,0.1375,0.1812,-91.8000,8.1000,-18.0000,8.9543,2.3679,0.0982,-0.9800,0.2193,0.3280,-36.7500,4.6500,28.6500,6.3600,0.7500,-7.3500,0.2716,0.6152,-0.0982,-11.8750,22.7500,45.6875,39.5625,41.1875,-174.8750,0
1776971584.739,9.1985,0.3639,2.8802,-0.9294,0.1375,0.1812,-92.4000,7.5000,-18.3000,8.9543,2.3679,0.0982,-0.9800,0.2193,0.3280,-37.3500,6.3000,28.5000,6.4600,0.6500,-7.2400,0.2716,0.6152,-0.0982,-11.8750,22.7500,45.6875,39.5000,41.5000,-174.9375,0
1776971584.748,9.3015,0.5363,2.3703,-0.8084,0.1199,0.1817,-91.2000,6.0000,-19.0500,9.4164,2.3703,0.1772,-0.8924,0.2806,0.3296,-37.3500,6.3000,28.5000,6.7000,0.5800,-7.2200,0.2083,0.6120,-0.0556,-11.8750,22.7500,45.6875,39.5000,41.5000,-174.9375,0
1776971584.758,9.4739,0.4190,2.0758,-0.7314,0.1218,0.1974,-91.2000,6.0000,-19.0500,9.4595,2.5019,0.0718,-0.8263,0.3336,0.3022,-37.3500,6.0000,28.5000,6.8800,0.5900,-7.1600,0.1963,0.5651,-0.0502,-11.8750,22.7500,45.6875,39.4375,41.8125,-175.0000,0
1776971584.763,9.6175,0.3328,1.8962,-0.7056,0.0949,0.2153,-91.2000,6.0000,-19.0500,9.5553,2.6719,0.0144,-0.7112,0.3661,0.2968,-37.3500,6.0000,28.5000,6.8800,0.5900,-7.1600,0.1963,0.5651,-0.0502,-11.8750,22.7500,45.6875,39.4375,41.8125,-175.0000,0
1776971584.768,9.6175,0.3328,1.8962,-0.7056,0.0949,0.2153,-89.5500,5.8500,-19.9500,9.5553,2.6719,0.0144,-0.7112,0.3661,0.2968,-37.3500,6.0000,28.5000,6.6400,0.5500,-7.1700,0.2062,0.5127,-0.0524,-14.0625,23.1875,45.6875,39.3125,42.1250,-175.0625,0
1776971584.773,9.6343,0.1628,1.7310,-0.7378,0.0544,0.2286,-89.5500,5.8500,-19.9500,9.5098,2.4828,-0.1030,-0.6198,0.3720,0.3118,-37.3500,6.0000,28.5000,6.6400,0.5500,-7.1700,0.2062,0.5127,-0.0524,-14.0625,23.1875,45.6875,39.3125,42.1250,-175.0625,0
1776971584.778,9.6343,0.1628,1.7310,-0.7378,0.0544,0.2286,-89.5500,5.8500,-19.9500,9.5098,2.4828,-0.1030,-0.5396,0.3877,0.3152,-37.3500,6.0000,28.5000,6.6500,0.5300,-7.1800,0.1844,0.4592,-0.0436,-14.0625,23.1875,45.6875,39.2500,42.3750,-175.1250,0
1776971584.786,9.5481,0.2203,1.6712,-0.8178,0.0466,0.2254,-91.5000,6.1500,-18.4500,9.4164,2.3343,0.0335,-0.5396,0.3877,0.3152,-37.0500,6.0000,27.7500,6.6600,0.6400,-7.1700,0.1374,0.4003,-0.0131,-14.0625,23.1875,45.6875,39.1875,42.6250,-175.1875,0
1776971584.791,9.5170,0.1389,1.7549,-0.8916,0.0413,0.2198,-91.5000,6.1500,-18.4500,9.3134,2.2841,0.0503,-0.4823,0.4053,0.3224,-37.2000,5.4000,28.6500,6.6600,0.6400,-7.1700,0.1374,0.4003,-0.0131,-14.0625,23.1875,45.6875,39.1875,42.8125,-175.1875,0
1776971584.798,9.4308,0.2346,1.8818,-0.8916,0.0413,0.2198,-90.1500,7.5000,-16.8000,9.2919,2.4660,0.2777,-0.4570,0.4202,0.3216,-37.0500,6.0000,29.1000,6.8600,0.5400,-7.0700,0.1047,0.3654,0.0033,-14.0625,23.1875,45.6875,39.1875,42.8125,-175.1875,0
1776971584.806,9.4308,0.2346,1.8818,-0.9753,0.0434,0.2182,-90.9000,5.5500,-16.3500,9.2919,2.4660,0.2777,-0.4570,0.4202,0.3216,-37.0500,6.0000,29.1000,6.8000,0.5800,-7.1200,0.0818,0.3567,0.0098,-14.0625,23.1875,45.6875,39.1875,43.0000,-175.2500,0
1776971584.811,9.4092,0.4238,2.0853,-1.0112,0.0528,0.2057,-90.9000,5.5500,-16.3500,9.3350,2.5402,0.3687,-0.4706,0.4173,0.3368,-36.6000,6.0000,27.0000,6.8000,0.5800,-7.1200,0.0818,0.3567,0.0098,-14.0625,23.1875,45.6875,39.1875,43.0000,-175.2500,0
1776971584.816,9.4092,0.4238,2.0853,-1.0112,0.0528,0.2057,-90.4500,7.9500,-17.8500,9.3350,2.5402,0.3687,-0.4706,0.4173,0.3368,-36.6000,6.0000,27.0000,6.7800,0.5700,-7.2000,0.0785,0.3262,0.0065,-14.5000,24.2500,44.1875,38.6250,43.1875,-175.2500,0
1776971584.820,9.3470,0.9864,2.3343,-1.0016,0.0554,0.2100,-90.4500,7.9500,-17.8500,9.3087,2.5642,0.3759,-0.4714,0.4138,0.3429,-36.6000,6.0000,27.0000,6.7800,0.5700,-7.2000,0.0785,0.3262,0.0065,-14.5000,24.2500,44.1875,38.6250,43.3750,-175.3125,0
1776971584.828,9.4882,0.0383,2.7031,-0.9673,0.0557,0.2014,-90.4500,7.9500,-17.8500,9.3637,2.5666,0.4214,-0.5060,0.4293,0.3698,-36.6000,6.0000,27.0000,6.8600,0.5300,-7.0700,0.0404,0.3011,0.0240,-14.5000,24.2500,44.1875,38.6250,43.3750,-175.3125,0
1776971584.835,9.4882,0.0383,2.7031,-0.9673,0.0557,0.2014,-92.5500,6.6000,-17.4000,9.3637,2.5666,0.4214,-0.5060,0.4293,0.3698,-36.6000,6.0000,27.0000,6.8500,0.5100,-7.1000,0.0098,0.2803,0.0415,-14.5000,24.2500,44.1875,38.6250,43.5000,-175.3125,0
1776971584.840,9.4355,0.1245,2.6552,-0.9363,0.0482,0.2126,-92.5500,6.6000,-17.4000,9.4403,2.5139,0.3519,-0.5313,0.4572,0.3989,-36.7500,5.4000,29.7000,6.8500,0.5100,-7.1000,0.0098,0.2803,0.0415,-14.5000,24.2500,44.1875,38.6875,43.6250,-175.3125,0
1776971584.848,9.4978,0.1724,2.8228,-0.8980,0.0232,0.2102,-92.5500,6.6000,-17.4000,9.4284,2.5402,0.3136,-0.5660,0.4639,0.4173,-36.6000,4.5000,30.1500,6.8100,0.5600,-7.0800,-0.0185,0.2738,0.0436,-14.5000,24.2500,44.1875,38.6875,43.6250,-175.3125,0
1776971584.855,9.4978,0.1724,2.8228,-0.8980,0.0232,0.2102,-92.2500,6.1500,-16.6500,9.4284,2.5402,0.3136,-0.5660,0.4639,0.4173,-36.6000,4.5000,30.1500,6.8400,0.5400,-7.0500,-0.0349,0.2880,0.0415,-14.5000,24.2500,44.1875,38.6875,43.8125,-175.3125,0
1776971584.860,9.3781,0.4525,2.8922,-0.8553,0.0221,0.2108,-92.2500,6.1500,-16.6500,9.3853,2.6576,0.4980,-0.5732,0.4644,0.4450,-37.3500,4.8000,30.1500,6.8400,0.5400,-7.0500,-0.0349,0.2880,0.0415,-14.5000,24.2500,44.1875,38.6875,43.8125,-175.3125,0
1776971584.865,9.3781,0.4525,2.8922,-0.8553,0.0221,0.2108,-92.2500,6.1500,-16.6500,9.3853,2.6576,0.4980,-0.5732,0.4644,0.4450,-37.3500,4.8000,30.1500,6.9700,0.5400,-6.9700,-0.0491,0.3043,0.0491,-15.5625,24.5625,44.1875,38.2500,44.0000,-175.2500,0
1776971584.869,9.2703,0.5626,2.8012,-0.8266,0.0242,0.2062,-92.2500,6.6000,-16.9500,9.2727,2.8084,0.3639,-0.5937,0.4788,0.4719,-37.9500,1.9500,28.6500,6.9700,0.5400,-6.9700,-0.0491,0.3043,0.0491,-15.5625,24.5625,44.1875,38.2500,44.0000,-175.2500,0
1776971584.874,9.2703,0.5626,2.8012,-0.8266,0.0242,0.2062,-92.2500,6.6000,-16.9500,9.2727,2.8084,0.3639,-0.5937,0.4788,0.4719,-37.9500,1.9500,28.6500,6.9800,0.5400,-7.0400,-0.0676,0.2825,0.0589,-15.5625,24.5625,44.1875,38.3125,44.1250,-175.2500,0
1776971584.879,9.3087,0.7685,2.6408,-0.7975,0.0176,0.2052,-89.8500,6.1500,-16.9500,9.2799,2.6695,0.2059,-0.6161,0.5036,0.4887,-37.9500,1.9500,28.6500,6.9800,0.5400,-7.0400,-0.0676,0.2825,0.0589,-15.5625,24.5625,44.1875,38.3125,44.1250,-175.2500,0
1776971584.884,9.3087,0.7685,2.6408,-0.7975,0.0176,0.2052,-89.8500,6.1500,-16.9500,9.2799,2.6695,0.2059,-0.6161,0.5036,0.4887,-37.9500,1.9500,28.6500,7.0900,0.4200,-7.1300,-0.0818,0.2498,0.0611,-15.5625,24.5625,44.1875,38.3750,44.3125,-175.2500,0
1776971584.889,9.3182,0.9074,2.5594,-0.7770,0.0125,0.1940,-90.9000,6.0000,-16.8000,9.1411,2.6240,0.1245,-0.6414,0.5404,0.5124,-37.9500,1.9500,28.6500,7.0900,0.4200,-7.1300,-0.0818,0.2498,0.0611,-15.5625,24.5625,44.1875,38.3750,44.3125,-175.2500,0
1776971584.898,9.4355,0.8643,2.3679,-0.7541,0.0234,0.1876,-92.4000,6.4500,-16.8000,9.1770,2.6743,0.0455,-0.6664,0.5702,0.5380,-38.1000,5.2500,32.4000,6.8200,0.6400,-6.9600,-0.0971,0.2214,0.0524,-15.5625,24.5625,44.1875,38.4375,44.4375,-175.1875,0
1776971584.903,9.4355,0.8643,2.3679,-0.7541,0.0234,0.1876,-92.4000,6.4500,-16.8000,9.1770,2.6743,0.0455,-0.6664,0.5702,0.5380,-38.1000,5.2500,32.4000,6.8200,0.6400,-6.9600,-0.1036,0.2116,0.0480,-15.5625,24.5625,44.1875,38.4375,44.5625,-175.1875,0
1776971584.909,9.4116,1.0271,2.3080,-0.7458,0.0378,0.1671,-91.2000,7.5000,-15.3000,9.2105,2.6815,-0.1700,-0.7040,0.6070,0.5716,-37.6500,2.2500,31.9500,6.8700,0.5400,-6.9600,-0.1036,0.2116,0.0480,-15.5625,24.5625,44.1875,38.4375,44.5625,-175.1875,0
1776971584.914,9.3733,1.0942,2.2027,-0.7458,0.0378,0.1671,-91.2000,7.5000,-15.3000,9.1171,2.8850,-0.2586,-0.7005,0.6552,0.5998,-37.6500,2.2500,31.9500,6.8700,0.5400,-6.9600,-0.1025,0.2105,0.0458,-15.8750,24.2500,44.1875,38.1875,44.6250,-175.1250,0
1776971584.919,9.3733,1.0942,2.2027,-0.7365,0.0344,0.1402,-91.2000,7.5000,-15.3000,9.1171,2.8850,-0.2586,-0.7005,0.6552,0.5998,-36.3000,3.3000,32.4000,6.7300,0.5700,-7.0400,-0.1025,0.2105,0.0458,-15.8750,24.2500,44.1875,38.1875,44.6250,-175.1250,0
1776971584.926,9.3087,1.3527,2.1883,-0.7429,0.0320,0.1079,-92.4000,6.0000,-16.8000,8.8633,2.9521,-0.2538,-0.6765,0.7163,0.6334,-38.1000,2.2500,31.3500,6.8100,0.5900,-6.9600,-0.1004,0.2094,0.0556,-15.8750,24.2500,44.1875,48.0000,44.7500,-175.0625,0
1776971584.931,9.3087,1.3527,2.1883,-0.7429,0.0320,0.1079,-92.4000,6.0000,-16.8000,8.8633,2.9521,-0.2538,-0.6765,0.7163,0.6334,-38.1000,2.2500,31.3500,6.8100,0.5900,-6.9600,-0.1004,0.2094,0.0556,-15.8750,24.2500,44.1875,48.1250,44.8750,-175.0625,0
1776971584.939,9.1985,1.7262,2.2075,-0.7586,0.0405,0.0725,-92.4000,6.0000,-16.8000,8.9184,3.0071,-0.4573,-0.6694,0.7799,0.6595,-38.1000,2.2500,31.3500,6.7300,0.6000,-6.9700,-0.1102,0.2182,0.0753,-15.8750,24.2500,44.1875,48.1250,44.8750,-175.0625,0
1776971584.947,8.9447,2.0470,2.3511,-0.7775,0.0392,0.0410,-91.6500,6.7500,-17.1000,8.6503,2.8539,-0.4262,-0.6478,0.8210,0.7016,-38.4000,2.5500,32.7000,6.7600,0.6600,-6.9500,-0.1102,0.2313,0.0894,-15.8750,24.2500,44.1875,48.1875,45.0000,-175.0000,0
1776971584.952,8.7173,2.2865,2.4924,-0.7775,0.0392,0.0410,-91.6500,6.7500,-17.1000,8.6503,2.8539,-0.4262,-0.6478,0.8210,0.7016,-38.4000,2.5500,32.7000,6.7600,0.6600,-6.9500,-0.1102,0.2313,0.0894,-15.8750,24.2500,44.1875,48.2500,45.1875,-175.0000,0
1776971584.959,8.7173,2.2865,2.4924,-0.7786,0.0336,0.0083,-90.1500,6.4500,-16.8000,8.3294,2.7533,-0.3352,-0.6115,0.9094,0.7687,-37.2000,2.4000,32.8500,7.3800,0.3700,-7.0900,-0.1124,0.2662,0.0993,-15.8750,24.2500,44.1875,48.2500,45.1875,-175.0000,0
1776971584.964,8.6000,2.4900,2.5594,-0.7349,0.0237,-0.0187,-90.1500,6.4500,-16.8000,8.4851,2.5091,-0.2777,-0.5987,0.9846,0.8263,-37.2000,2.4000,32.8500,7.3800,0.3700,-7.0900,-0.1124,0.2662,0.0993,-15.8750,24.2500,44.1875,47.9375,45.3125,-175.0000,0
1776971584.969,8.6000,2.4900,2.5594,-0.7349,0.0237,-0.0187,-91.8000,7.3500,-16.9500,8.4851,2.5091,-0.2777,-0.5987,0.9846,0.8263,-38.1000,1.5000,33.4500,7.2700,0.5000,-6.7900,-0.1233,0.2880,0.0916,-17.0625,24.2500,44.5625,47.9375,45.3125,-175.0000,0
1776971584.974,8.3199,2.5833,2.5498,-0.6496,0.0517,-0.0464,-91.8000,7.3500,-16.9500,8.5018,3.0550,-0.5076,-0.6003,1.0421,0.8604,-38.1000,1.5000,33.4500,7.2700,0.5000,-6.7900,-0.1233,0.2880,0.0916,-17.0625,24.2500,44.5625,48.0625,45.4375,-174.9375,0
1776971584.979,8.3199,2.5833,2.5498,-0.6496,0.0517,-0.0464,-91.8000,6.9000,-19.2000,8.5018,3.0550,-0.5076,-0.6003,1.0421,0.8604,-37.2000,1.2000,34.6500,6.9500,0.4900,-6.8300,-0.1364,0.2323,0.0753,-17.0625,24.2500,44.5625,48.0625,45.4375,-174.9375,0
1776971584.983,8.8178,2.6576,2.7150,-0.4823,0.0799,-0.0762,-91.8000,6.9000,-19.2000,9.1075,3.1220,0.0982,-0.4722,1.1018,0.8735,-37.2000,1.2000,34.6500,6.9500,0.4900,-6.8300,-0.1342,0.1767,0.0774,-17.0625,24.2500,44.5625,48.1875,45.5625,-174.8750,0
1776971584.989,8.8178,2.6576,2.7150,-0.4823,0.0799,-0.0762,-90.4500,7.9500,-15.3000,9.1075,3.1220,0.0982,-0.4722,1.1018,0.8735,-37.9500,1.2000,33.9000,6.8900,0.6700,-6.8900,-0.1342,0.1767,0.0774,-17.0625,24.2500,44.5625,48.3125,45.6875,-174.8750,0
1776971584.998,8.9136,2.4277,2.7150,-0.2936,0.1103,-0.0895,-91.0500,6.9000,-15.9000,9.5840,2.6217,0.4621,-0.2934,1.1450,0.8569,-37.9500,1.2000,33.9000,6.1300,0.4700,-7.2200,-0.1342,0.2334,0.0764,-17.0625,24.2500,44.5625,48.3125,45.6875,-174.8750,0
1776971585.008,9.2057,1.9489,2.6360,-0.0717,0.1255,-0.0826,-91.0500,6.9000,-15.9000,9.8354,2.1332,0.9122,-0.0879,1.1527,0.8255,-37.0500,-0.3000,35.2500,6.2800,0.8500,-6.9300,-0.1309,0.2956,0.0818,-17.0625,24.2500,44.5625,48.3750,45.8750,-174.8125,0
1776971585.013,9.4044,1.4748,2.4684,0.0813,0.1708,-0.0608,-91.0500,6.9000,-15.9000,10.1370,1.5874,1.7837,0.1050,1.1794,0.7879,-37.0500,-0.3000,35.2500,6.2800,0.8500,-6.9300,-0.1309,0.2956,0.0818,-17.0625,24.2500,44.5625,48.0625,46.1250,-174.7500,0
1776971585.018,9.4044,1.4748,2.4684,0.0813,0.1708,-0.0608,-91.2000,6.0000,-16.8000,10.1370,1.5874,1.7837,0.1050,1.1794,0.7879,-39.3000,-0.9000,35.4000,6.4500,0.8900,-6.8800,-0.1331,0.4538,0.0927,-17.3750,23.8750,43.2500,48.0625,46.1250,-174.7500,0
1776971585.023,9.3805,0.9290,2.3176,0.1751,0.1434,-0.0064,-91.2000,6.0000,-16.8000,9.9024,0.6105,2.1404,0.2041,1.2028,0.7877,-39.3000,-0.9000,35.4000,6.4500,0.8900,-6.8800,-0.1331,0.4538,0.0927,-17.3750,23.8750,43.2500,48.0625,46.4375,-174.7500,0
1776971585.028,9.3805,0.9290,2.3176,0.1751,0.1434,-0.0064,-91.0500,6.6000,-18.0000,9.9024,0.6105,2.1404,0.2041,1.2028,0.7877,-38.5500,-0.4500,37.2000,7.2500,0.3100,-7.1800,-0.1473,0.5934,0.1505,-17.3750,23.8750,43.2500,48.0625,46.4375,-174.7500,0
1776971585.033,9.3685,0.2993,2.3655,0.1764,0.0616,0.0578,-91.0500,6.6000,-18.0000,10.0580,0.0239,2.6336,0.1575,1.2335,0.8098,-38.5500,-0.4500,37.2000,7.2500,0.3100,-7.1800,-0.1767,0.6360,0.1887,-17.3750,23.8750,43.2500,48.1250,46.8125,-174.7500,0
1776971585.039,9.5122,-0.3663,2.2098,0.1764,0.0616,0.0578,-91.8000,7.8000,-18.4500,10.0580,0.0239,2.6336,-0.0469,1.2156,0.8370,-37.6500,-0.7500,36.6000,7.2100,1.3400,-6.1900,-0.1767,0.6360,0.1887,-17.3750,23.8750,43.2500,48.1875,47.2500,-174.6875,0
1776971585.048,9.7731,-0.9529,2.0207,0.1005,-0.0021,0.1356,-90.4500,6.7500,-16.8000,10.2017,-0.5698,3.4884,-0.0469,1.2156,0.8370,-38.2500,-2.4000,37.8000,7.1800,0.6600,-6.9400,-0.1724,0.7429,0.1484,-17.3750,23.8750,43.2500,48.1875,47.2500,-174.6875,0
1776971585.058,10.3717,-1.3791,1.9058,0.0445,-0.0573,0.2156,-93.0000,9.0000,-18.0000,10.1083,-0.7877,2.9928,-0.3957,1.1791,0.8804,-38.2500,-2.4000,37.8000,7.1800,0.5400,-6.9600,-0.1942,0.6850,0.2062,-17.3750,23.8750,43.2500,48.2500,47.6250,-174.6250,0
1776971585.063,10.3717,-1.3791,1.9058,-0.0613,-0.0501,0.2777,-93.0000,9.0000,-18.0000,10.5441,-2.1763,1.8627,-0.3957,1.1791,0.8804,-39.0000,-2.4000,39.6000,7.1800,0.5400,-6.9600,-0.1942,0.6850,0.2062,-17.3750,23.8750,43.2500,48.2500,47.6250,-174.6250,0
1776971585.068,10.5489,-1.4820,1.4581,-0.0613,-0.0501,0.2777,-92.2500,6.6000,-16.9500,10.9774,-2.7964,1.7597,-0.5990,1.1674,0.9510,-39.0000,-2.4000,39.6000,7.6600,-0.6200,-6.8700,-0.2651,0.6698,0.2520,-17.3750,23.8750,44.5625,48.2500,48.0000,-174.6250,0
1776971585.073,10.5489,-1.4820,1.4581,-0.1431,-0.1404,0.3264,-92.2500,6.6000,-16.9500,10.9774,-2.7964,1.7597,-0.5990,1.1674,0.9510,-38.5500,-1.9500,40.0500,7.6600,-0.6200,-6.8700,-0.2651,0.6698,0.2520,-17.3750,23.8750,44.5625,48.2500,48.0000,-174.6250,0
1776971585.078,10.5752,-1.0894,1.2378,-0.2483,-0.2705,0.3605,-92.2500,6.6000,-16.9500,11.1354,-1.0582,2.0830,-0.7168,1.2087,0.9769,-38.5500,-1.9500,40.0500,5.9700,-1.0700,-7.6800,-0.2956,0.7614,0.2171,-17.3750,23.8750,44.5625,48.3750,48.4375,-174.5625,0
1776971585.083,10.5752,-1.0894,1.2378,-0.2483,-0.2705,0.3605,-92.2500,6.6000,-16.9500,11.1354,-1.0582,2.0830,-0.7168,1.2087,0.9769,-38.5500,-1.9500,41.1000,5.9700,-1.0700,-7.6800,-0.2694,0.8923,0.0698,-17.3750,23.8750,44.5625,48.6250,48.9375,-174.3750,0
1776971585.089,10.3453,-0.5004,1.3312,-0.3491,-0.2571,0.3611,-92.5500,5.4000,-18.4500,10.5393,0.3376,1.4629,-0.7165,1.1295,0.9355,-38.5500,-1.9500,41.1000,7.2600,-0.1000,-7.1000,-0.2694,0.8923,0.0698,-17.3750,23.8750,44.5625,48.7500,49.6250,-174.1250,0
1776971585.098,10.1610,0.0958,1.3455,-0.4226,-0.2068,0.3363,-92.5500,5.4000,-18.4500,10.3262,0.6752,1.2594,-0.5817,1.1095,0.8996,-37.9500,-3.1500,41.4000,7.8800,-0.1200,-6.5800,-0.2160,1.2675,-0.0916,-17.3750,23.8750,44.5625,48.7500,49.6250,-174.1250,0
1776971585.108,10.1849,0.4429,1.1756,-0.4874,-0.2577,0.3211,-92.5500,7.8000,-16.2000,10.1490,1.1037,1.2905,-0.4815,1.0834,0.8980,-37.5000,-4.6500,41.1000,8.0700,0.3700,-6.4200,-0.2574,1.4192,-0.1691,-17.3750,23.8750,44.5625,49.0625,50.3750,-173.7500,0
1776971585.113,10.1849,0.4429,1.1756,-0.4874,-0.2577,0.3211,-92.5500,7.8000,-16.2000,10.1490,1.1037,1.2905,-0.4815,1.0834,0.8980,-37.5000,-4.6500,41.1000,8.0700,0.3700,-6.4200,-0.2574,1.4192,-0.1691,-17.3750,23.8750,44.5625,49.0625,50.3750,-173.7500,0
1776971585.118,9.8521,0.8978,1.4317,-0.5814,-0.2430,0.3102,-91.5000,6.1500,-18.7500,10.0652,1.0175,3.0287,-0.4559,1.2028,0.9478,-37.5000,-4.6500,41.1000,7.8300,0.5000,-6.1200,-0.2356,1.4955,-0.2313,-19.5625,23.8750,42.5000,48.8125,51.1875,-173.3750,0
1776971585.123,9.8521,0.8978,1.4317,-0.5814,-0.2430,0.3102,-91.5000,6.1500,-18.7500,10.0652,1.0175,3.0287,-0.4559,1.2028,0.9478,-37.2000,-4.2000,42.9000,7.8300,0.5000,-6.1200,-0.2356,1.4955,-0.2313,-19.5625,23.8750,42.5000,48.8125,51.1875,-173.3750,0
1776971585.128,9.5553,1.3455,1.8340,-0.6520,-0.2587,0.3184,-92.7000,6.0000,-17.1000,9.8162,1.3144,2.1596,-0.6185,1.1962,0.9284,-37.2000,-4.2000,42.9000,7.8300,0.7800,-5.7500,-0.1876,1.5250,-0.2225,-19.5625,23.8750,42.5000,49.0000,52.0625,-173.0000,0
1776971585.133,9.5553,1.3455,1.8340,-0.6520,-0.2587,0.3184,-92.7000,6.0000,-17.1000,9.8162,1.3144,2.1596,-0.6185,1.1962,0.9284,-37.3500,-6.0000,43.0500,7.8300,0.7800,-5.7500,-0.1909,1.6112,-0.1844,-19.5625,23.8750,42.5000,49.1250,52.9375,-172.6250,0
1776971585.139,9.4020,2.0614,2.1404,-0.7232,-0.2409,0.3312,-91.8000,7.3500,-19.9500,9.8282,0.8691,1.9154,-0.7685,1.2287,0.9387,-37.3500,-6.0000,43.0500,7.5700,0.9700,-5.5000,-0.1909,1.6112,-0.1844,-19.5625,23.8750,42.5000,49.2500,53.8750,-172.1875,0
1776971585.149,9.4858,2.4469,2.2051,-0.7850,-0.2222,0.3027,-91.6500,7.9500,-17.1000,10.5153,0.2538,1.9537,-0.9638,1.2654,0.9569,-38.1000,-4.8000,44.1000,7.5000,1.2200,-5.1700,-0.1854,1.7344,-0.1974,-19.5625,23.8750,42.5000,49.2500,53.8750,-172.1875,0
1776971585.158,10.1299,2.4684,1.9561,-0.8210,-0.2078,0.2329,-91.6500,6.4500,-19.0500,11.2456,-0.1844,1.2594,-1.2319,1.2905,0.9761,-37.5000,-4.6500,44.2500,7.2500,0.9300,-5.3000,-0.3676,1.9864,-0.1571,-19.5625,23.8750,42.5000,49.5000,54.9375,-171.6250,0
1776971585.163,10.3238,2.3774,1.6616,-0.8210,-0.2078,0.2329,-91.6500,6.4500,-19.0500,11.2456,-0.1844,1.2594,-1.2319,1.2905,0.9761,-36.6000,-6.3000,44.8500,7.2500,0.9300,-5.3000,-0.3676,1.9864,-0.1571,-19.5625,23.8750,42.5000,49.5000,54.9375,-171.6250,0
1776971585.168,10.3238,2.3774,1.6616,-0.8545,-0.2625,0.1620,-91.6500,6.4500,-19.0500,11.5089,-1.2641,0.3855,-1.4941,1.3587,1.0022,-36.6000,-6.3000,44.8500,7.8700,1.0700,-5.3500,-0.6120,2.2329,-0.0709,-22.5625,22.7500,41.2500,49.6250,56.1250,-171.0000,0
1776971585.173,10.5919,2.4469,1.8603,-0.8545,-0.2625,0.1620,-91.6500,6.4500,-19.0500,11.5089,-1.2641,0.3855,-1.4941,1.3587,1.0022,-36.6000,-6.3000,44.8500,7.8700,1.0700,-5.3500,-0.6120,2.2329,-0.0709,-22.5625,22.7500,41.2500,49.6250,56.1250,-171.0000,0
1776971585.178,10.5919,2.4469,1.8603,-0.8724,-0.3744,0.0866,-94.0500,4.9500,-17.4000,12.2200,-1.1085,0.3926,-1.6808,1.4341,1.0605,-36.6000,-6.3000,44.8500,8.3600,1.2600,-5.2200,-0.9676,2.3933,0.0796,-22.5625,22.7500,41.2500,50.3125,57.4375,-170.1875,0
1776971585.183,10.5393,2.8108,2.3535,-0.8724,-0.3744,0.0866,-94.0500,4.9500,-17.4000,12.2200,-1.1085,0.3926,-1.6808,1.4341,1.0605,-37.2000,-5.4000,45.0000,8.3600,1.2600,-5.2200,-1.2697,2.3518,0.2291,-22.5625,22.7500,41.2500,51.1250,58.7500,-169.3125,0
1776971585.189,10.5393,2.8108,2.3535,-0.8964,-0.4639,-0.0171,-94.0500,4.9500,-17.4000,12.4642,-0.1700,-0.3926,-1.9361,1.3539,1.1239,-37.2000,-5.4000,45.0000,8.1300,1.5400,-5.8300,-1.2697,2.3518,0.2291,-22.5625,22.7500,41.2500,51.8750,59.9375,-168.6250,0
1776971585.199,10.6997,3.1388,2.6504,-0.9822,-0.5228,-0.1604,-92.7000,6.0000,-19.3500,13.0173,-0.1963,-1.1588,-2.1186,1.2678,1.1612,-37.5000,-6.9000,45.7500,8.6200,-0.6100,-5.4600,-1.2632,2.0268,0.4483,-22.5625,22.7500,41.2500,51.8750,59.9375,-168.6250,0
1776971585.209,11.0971,2.7270,2.5522,-1.0419,-0.6520,-0.3419,-92.5500,6.9000,-19.3500,13.6829,0.1460,-2.2122,-2.2156,1.2713,1.2321,-37.3500,-9.0000,47.2500,6.9200,2.0000,-6.1400,-1.3646,1.6919,0.6927,-22.5625,22.7500,41.2500,52.6250,60.9375,-168.2500,0
1776971585.213,12.1123,2.1404,2.2386,-1.0232,-1.0325,-0.5681,-92.5500,6.9000,-18.0000,13.4602,0.8140,-2.5786,-2.3387,1.1828,1.2414,-38.1000,-7.8000,47.7000,6.9200,2.0000,-6.1400,-1.3646,1.6919,0.6927,-22.5625,22.7500,41.2500,52.6250,60.9375,-168.2500,0
1776971585.218,12.1123,2.1404,2.2386,-1.0232,-1.0325,-0.5681,-93.7500,4.9500,-18.7500,13.4602,0.8140,-2.5786,-2.3387,1.1828,1.2414,-38.1000,-7.8000,47.7000,7.1600,-0.6500,-8.6100,-1.3788,1.7224,0.6970,-26.1875,22.7500,39.5000,52.8750,61.9375,-167.8125,0
1776971585.223,10.6183,1.2306,0.8787,-1.0627,-1.1567,-0.8076,-93.7500,4.9500,-18.7500,13.1944,1.8747,-2.5618,-2.6207,1.1037,1.2193,-35.8500,-9.0000,47.2500,7.1600,-0.6500,-8.6100,-1.3788,1.7224,0.6970,-26.1875,22.7500,39.5000,52.8750,61.9375,-167.8125,0
1776971585.228,10.6183,1.2306,0.8787,-1.0627,-1.1567,-0.8076,-93.7500,4.9500,-18.7500,13.1944,1.8747,-2.5618,-2.6207,1.1037,1.2193,-35.8500,-9.0000,47.2500,6.3600,0.1700,-8.2700,-1.3919,2.5711,0.7832,-26.1875,22.7500,39.5000,53.4375,63.4375,-167.2500,0
1776971585.233,10.0628,1.1253,0.3711,-0.9401,-1.4565,-1.0674,-91.6500,7.2000,-17.5500,11.7100,3.2417,-2.0542,-2.9007,0.9068,1.1618,-35.8500,-9.0000,47.2500,6.3600,0.1700,-8.2700,-0.6229,4.0579,0.6949,-26.1875,22.7500,39.5000,53.2500,65.6875,-166.6250,0
1776971585.239,10.0628,1.1253,0.3711,-0.9401,-1.4565,-1.0674,-91.6500,7.2000,-17.5500,11.7100,3.2417,-2.0542,-2.9007,0.9068,1.1618,-35.8500,-9.0000,47.2500,9.6400,5.2600,-6.2800,-0.6229,4.0579,0.6949,-26.1875,22.7500,39.5000,52.3750,68.7500,-165.7500,0
1776971585.249,10.0485,1.0798,0.4741,-0.8271,-1.5575,-1.2934,-91.6500,7.2000,-17.5500,10.5704,3.7469,-0.0048,-2.7411,0.8820,1.0736,-37.5000,-10.9500,47.1000,13.0400,3.2600,-6.1300,0.0545,5.4640,0.6294,-26.1875,22.7500,39.5000,52.3750,68.7500,-165.7500,0
1776971585.259,9.3278,0.5076,0.0790,-0.8431,-1.5370,-1.5231,-93.0000,7.3500,-18.7500,10.7739,4.3431,1.2354,-2.2052,0.8250,0.9324,-37.2000,-9.4500,46.3500,12.4900,2.7700,-5.7700,0.4156,6.0116,0.9087,-26.1875,22.7500,39.5000,51.1250,72.0625,-165.0000,0
1776971585.264,8.7891,-0.3855,-0.0455,-0.9340,-1.3957,-1.7816,-93.0000,7.3500,-18.7500,10.8314,4.7046,2.3870,-1.7120,0.6715,0.7703,-37.3500,-10.5000,46.9500,12.4900,2.7700,-5.7700,0.4156,6.0116,0.9087,-26.1875,22.7500,39.5000,49.9375,75.3125,-164.0000,0
1776971585.269,8.7891,-0.3855,-0.0455,-0.9340,-1.3957,-1.7816,-93.0000,7.3500,-18.7500,10.8314,4.7046,2.3870,-1.7120,0.6715,0.7703,-35.7000,-11.4000,46.0500,16.2600,2.8900,-7.7800,0.4920,5.8512,0.9283,-30.2500,20.5625,36.3750,49.9375,75.3125,-164.0000,0
1776971585.274,8.6431,-1.1564,0.3879,-1.0411,-1.2196,-1.9465,-92.2500,7.8000,-20.2500,11.1666,3.1891,3.9049,-1.1842,0.5577,0.5883,-35.7000,-11.4000,46.0500,16.2600,2.8900,-7.7800,0.4920,5.8512,0.9283,-30.2500,20.5625,36.3750,48.8125,78.6250,-163.0000,0
1776971585.279,8.5210,-2.0279,0.4669,-1.0411,-1.2196,-1.9465,-92.2500,7.8000,-20.2500,11.1666,3.1891,3.9049,-1.1842,0.5577,0.5883,-35.7000,-11.4000,46.0500,13.6100,1.4200,-3.6800,0.2683,5.8239,1.2359,-30.2500,20.5625,36.3750,48.8125,78.6250,-163.0000,0
1776971585.285,8.5210,-2.0279,0.4669,-1.0222,-1.0834,-2.0400,-90.9000,9.9000,-19.8000,11.9112,1.8938,4.5777,-0.9092,0.7853,0.4903,-35.7000,-11.4000,46.0500,15.3700,2.7100,-5.0900,0.0851,5.5829,1.5926,-30.2500,20.5625,36.3750,47.6875,81.8750,-162.6250,0
1776971585.290,9.2368,-1.9010,0.5674,-0.9483,-1.0387,-2.0840,-90.4500,9.4500,-21.1500,11.9112,1.8938,4.5777,-0.9092,0.7853,0.4903,-35.7000,-11.4000,46.0500,15.3700,2.7100,-5.0900,0.0851,5.5829,1.5926,-30.2500,20.5625,36.3750,46.8125,85.1250,-178.4375,0
1776971585.299,10.1059,-1.7142,0.4310,-0.8676,-0.9816,-2.1298,-90.4500,9.4500,-21.1500,12.7922,0.9146,6.2489,-0.8106,0.8516,0.3698,-38.4000,-11.5500,48.4500,20.7700,1.5300,-9.8500,-0.2062,5.7170,1.6232,-30.2500,20.5625,36.3750,46.4375,88.2500,-179.2500,0
1776971585.309,10.6542,-0.8356,-0.0144,-0.7061,-0.9164,-2.1434,-90.6000,11.7000,-20.7000,11.4946,-1.7909,6.3973,-0.9265,1.3142,0.3384,-39.1500,-12.7500,49.5000,17.9700,3.7500,-9.9500,-0.9381,5.4422,1.4639,-30.2500,20.5625,36.3750,46.4375,88.2500,-179.2500,0
1776971585.314,10.6542,-0.8356,-0.0144,-0.7061,-0.9164,-2.1434,-91.6500,12.6000,-20.8500,11.2192,-2.3679,5.9927,-0.9499,1.9764,0.5212,-39.1500,-12.7500,49.5000,17.9700,3.7500,-9.9500,-0.9381,5.4422,1.4639,-30.2500,20.5625,36.3750,46.4375,88.2500,-179.2500,0
1776971585.319,12.1482,-0.5722,-0.0527,-0.5375,-0.8455,-2.1381,-91.6500,12.6000,-20.8500,11.2192,-2.3679,5.9927,-0.9499,1.9764,0.5212,-37.3500,-13.0500,49.5000,15.6300,2.4600,-9.3900,-1.7781,4.4080,1.2108,-38.0000,22.6875,26.5625,46.7500,89.0625,-0.0625,0
1776971585.324,12.1482,-0.5722,-0.0527,-0.5375,-0.8455,-2.1381,-90.1500,15.0000,-21.1500,11.2073,-2.1284,6.0741,-1.0997,2.0153,0.6182,-37.3500,-13.0500,49.5000,15.6300,2.4600,-9.3900,-1.7781,4.4080,1.2108,-38.0000,22.6875,26.5625,46.7500,89.0625,-0.0625,0
1776971585.329,13.3477,0.9625,0.0766,-0.3704,-0.7965,-2.0776,-90.1500,15.0000,-21.1500,11.2073,-2.1284,6.0741,-1.0997,2.0153,0.6182,-37.2000,-11.7000,49.9500,13.8200,1.2700,-9.9800,-2.8253,3.7066,0.6567,-38.0000,22.6875,26.5625,47.9375,87.0000,0.3125,0
1776971585.335,13.3477,0.9625,0.0766,-0.3704,-0.7965,-2.0776,-90.1500,15.0000,-21.1500,10.4531,-3.5410,5.6312,-0.9254,2.1176,0.7496,-37.2000,-11.7000,49.9500,5.6100,1.7900,-10.3300,-3.7732,3.1416,0.5912,-38.0000,22.6875,26.5625,49.5625,85.2500,0.7500,0
1776971585.340,12.5815,1.9441,-0.8859,-0.1250,-0.7408,-2.0438,-87.4500,16.9500,-20.8500,9.1099,-3.3375,4.7669,-1.1466,1.5028,0.6805,-37.2000,-11.7000,49.9500,5.6100,1.7900,-10.3300,-3.7732,3.1416,0.5912,-38.0000,22.6875,26.5625,51.1250,84.1875,1.5625,0
1776971585.349,11.7100,2.2458,-1.0415,-0.0250,-0.5276,-1.9774,-87.4500,16.9500,-20.8500,7.8482,-3.7397,6.6990,-0.8175,1.4930,0.4042,-37.2000,-11.7000,49.9500,2.3500,-1.0800,-11.7400,-4.1735,1.7028,1.0101,-38.0000,22.6875,26.5625,52.1250,83.5625,2.5625,0
1776971585.359,11.5209,2.5498,-0.9194,0.2441,-0.6262,-1.9934,-87.4500,16.9500,-20.8500,6.9025,-3.4189,5.5282,-0.7077,1.2758,0.2334,-37.0500,-14.2500,51.9000,25.9300,2.4300,-17.3600,-3.5125,0.6818,1.4454,-38.0000,22.6875,26.5625,52.1250,83.5625,2.5625,0
1776971585.364,11.5209,2.5498,-0.9194,0.2441,-0.6262,-1.9934,-87.4500,17.7000,-20.8500,6.9025,-3.4189,5.5282,-0.7077,1.2758,0.2334,-37.0500,-14.2500,51.9000,25.9300,2.4300,-17.3600,-3.5125,0.6818,1.4454,-42.0625,22.0000,17.8750,53.2500,83.0625,29.1875,0
1776971585.369,11.7531,0.7949,-1.0343,0.4431,-0.5721,-2.0304,-87.4500,17.7000,-20.8500,5.3750,-2.1117,5.2529,-1.1175,1.2428,0.0040,-37.0500,-12.7500,54.4500,15.5900,13.4500,-15.5700,-3.4121,0.4047,1.0810,-42.0625,22.0000,17.8750,53.2500,83.0625,29.1875,0
1776971585.374,11.7531,0.7949,-1.0343,0.4431,-0.5721,-2.0304,-87.0000,18.9000,-21.1500,5.3750,-2.1117,5.2529,-1.1175,1.2428,0.0040,-37.0500,-12.7500,54.4500,15.5900,13.4500,-15.5700,-3.4121,0.4047,1.0810,-42.0625,22.0000,17.8750,54.3125,82.5625,34.1875,0
1776971585.379,11.8465,-0.5148,-0.7183,0.6456,-0.4290,-2.0360,-87.0000,18.9000,-21.1500,7.3646,-0.1317,3.9863,-1.2460,1.4152,-0.2188,-35.5500,-14.2500,54.7500,7.8000,10.3400,-10.9400,-3.4121,0.4047,1.0810,-42.0625,22.0000,17.8750,54.3125,82.5625,34.1875,0
1776971585.388,11.9471,-0.7590,-0.0144,0.8210,-0.3778,-2.0209,-85.5000,19.6500,-21.6000,7.1204,-0.9673,3.8547,-1.2606,0.5860,-0.4932,-35.5500,-14.5500,53.7000,3.4600,7.4300,-8.4300,-1.5992,-2.3758,1.7050,-42.0625,22.0000,17.8750,54.1250,82.9375,47.6250,0
1776971585.393,11.9471,-0.7590,-0.0144,0.8210,-0.3778,-2.0209,-85.9500,18.9000,-20.8500,7.1204,-0.9673,3.8547,-1.2606,0.5860,-0.4932,-35.5500,-14.5500,53.7000,3.4600,7.4300,-8.4300,0.5618,-3.5561,2.0355,-42.0625,22.0000,17.8750,52.5000,83.0625,66.0000,0
1776971585.400,11.4778,-1.1947,0.2682,0.8575,-0.2891,-2.0059,-85.9500,18.9000,-20.8500,7.1275,-1.3551,2.7533,-0.7901,-0.0834,-0.7778,-35.5500,-14.5500,53.7000,0.0800,2.9100,-4.9400,0.5618,-3.5561,2.0355,-42.0625,22.0000,17.8750,50.9375,82.6250,82.5000,0
1776971585.409,11.1498,-1.1229,0.5171,0.8026,-0.1876,-1.9987,-86.2500,21.6000,-21.6000,7.2592,-2.0016,2.9521,-0.2454,-1.1282,-0.9116,-37.0500,-13.0500,54.4500,-0.2100,1.3900,-4.6100,0.6065,-3.4088,1.8686,-42.0625,22.0000,17.8750,50.9375,82.6250,82.5000,0
1776971585.414,10.6614,-0.4477,0.3711,0.7320,-0.0365,-1.9340,-83.4000,21.0000,-21.4500,7.2592,-2.0016,2.9521,-0.2454,-1.1282,-0.9116,-37.0500,-13.0500,54.4500,-0.2100,1.3900,-4.6100,0.6065,-3.4088,1.8686,-42.0625,22.0000,17.8750,49.6875,81.7500,95.8750,0
1776971585.419,10.6614,-0.4477,0.3711,0.7320,-0.0365,-1.9340,-83.4000,21.0000,-21.4500,5.9256,-2.0375,4.3455,0.1711,-1.6760,-1.0573,-36.3000,-12.7500,53.7000,-0.2900,0.9000,-4.4700,0.2651,-3.2932,1.5239,-41.0625,19.7500,19.5000,49.6875,81.7500,95.8750,0
1776971585.424,10.4387,1.4030,0.0527,0.7061,0.0698,-1.8461,-83.4000,21.0000,-21.4500,5.9256,-2.0375,4.3455,0.1711,-1.6760,-1.0573,-36.3000,-12.7500,53.7000,-0.2900,0.9000,-4.4700,0.2651,-3.2932,1.5239,-41.0625,19.7500,19.5000,48.9375,80.8750,106.1875,0
1776971585.429,10.4387,1.4030,0.0527,0.7061,0.0698,-1.8461,-83.4000,21.0000,-21.4500,5.7245,-1.6113,5.1595,0.3128,-1.8215,-1.1583,-35.8500,-11.5500,53.4000,-0.2700,1.6300,-4.2700,-0.2280,-3.0598,1.0952,-41.0625,19.7500,19.5000,48.9375,80.8750,106.1875,0
1776971585.434,10.6829,2.2529,-0.4453,0.7314,0.1966,-1.7885,-82.9500,22.8000,-21.1500,5.7245,-1.6113,5.1595,0.3128,-1.8215,-1.1583,-35.8500,-11.5500,53.4000,-0.2700,1.6300,-4.2700,-0.5552,-2.9551,0.6272,-41.0625,19.7500,19.5000,48.6250,79.9375,114.8750,0
1776971585.440,10.6829,2.2529,-0.4453,0.7314,0.1966,-1.7885,-82.9500,22.8000,-21.1500,5.5952,-4.0007,4.8219,0.5396,-1.6630,-1.3771,-39.0000,-12.4500,53.2500,2.0100,4.3300,-5.3600,-0.5552,-2.9551,0.6272,-41.0625,19.7500,19.5000,48.5625,79.0625,122.9375,0
1776971585.449,10.7380,2.4469,-0.4070,0.8071,0.2425,-1.7557,-83.2500,24.4500,-21.6000,5.6455,-3.6559,3.8307,0.9827,-1.4906,-1.5500,-38.1000,-10.5000,52.3500,3.6500,5.0000,-6.0900,-0.5127,-3.0543,0.1407,-41.0625,19.7500,19.5000,48.5625,79.0625,122.9375,0
1776971585.459,10.4579,1.9178,-0.2897,0.8290,0.3051,-1.7174,-81.6000,25.3500,-22.9500,6.4332,-3.3639,2.9090,1.3800,-1.5545,-1.6745,-38.1000,-10.5000,52.3500,4.3000,4.9700,-5.8800,-0.2836,-3.2529,-0.3709,-41.0625,19.7500,19.5000,48.6250,78.1250,130.8750,0
1776971585.464,10.1921,1.2929,-0.1484,0.8111,0.3448,-1.6859,-81.7500,25.9500,-21.1500,6.4332,-3.3639,2.9090,1.3800,-1.5545,-1.6745,-38.1000,-10.5000,52.3500,4.3000,4.9700,-5.8800,-0.2836,-3.2529,-0.3709,-41.0625,19.7500,19.5000,48.6250,78.1250,130.8750,0
1776971585.469,10.1921,1.2929,-0.1484,0.8111,0.3448,-1.6859,-81.7500,25.9500,-21.1500,7.1658,-3.2705,2.8156,1.8226,-1.9486,-1.7842,-38.4000,-7.8000,50.8500,3.6600,2.9000,-4.9400,-0.0785,-3.4448,-0.8890,-35.5625,22.2500,21.3750,48.8750,77.1250,138.7500,0
1776971585.474,9.8809,0.6345,0.0575,0.7186,0.3712,-1.6454,-82.3500,26.1000,-23.2500,7.1658,-3.2705,2.8156,1.8226,-1.9486,-1.7842,-38.4000,-7.8000,50.8500,3.6600,2.9000,-4.9400,-0.0785,-3.4448,-0.8890,-35.5625,22.2500,21.3750,48.8750,77.1250,138.7500,0
1776971585.479,9.8809,0.6345,0.0575,0.7186,0.3712,-1.6454,-82.3500,26.1000,-23.2500,7.8314,-3.4022,2.7581,2.2711,-2.3739,-1.8578,-38.8500,-6.3000,48.4500,3.9300,1.9500,-4.9600,-0.0120,-3.5027,-1.4115,-35.5625,22.2500,21.3750,49.3125,76.0625,146.3125,0
1776971585.486,9.6462,0.3376,0.3065,0.5979,0.3936,-1.5836,-80.4000,27.3000,-23.2500,7.8961,-3.8188,4.2138,2.2188,-2.7216,-1.8724,-39.1500,-6.7500,47.2500,4.5400,1.2700,-5.2100,-0.0535,-3.4667,-1.9155,-35.5625,22.2500,21.3750,50.1250,74.9375,153.6250,0
1776971585.491,9.4164,0.2107,0.1413,0.5979,0.3936,-1.5836,-80.4000,27.3000,-23.2500,7.8961,-3.8188,4.2138,2.2188,-2.7216,-1.8724,-39.1500,-6.7500,47.2500,4.5400,1.2700,-5.2100,-0.0535,-3.4667,-1.9155,-35.5625,22.2500,21.3750,51.2500,73.6875,160.6250,0
1776971585.499,9.1674,0.4214,0.1556,0.4719,0.3981,-1.4994,-80.4000,27.3000,-23.2500,8.6574,-4.0223,4.7621,1.9873,-2.9354,-1.7861,-39.0000,-6.4500,47.1000,5.2600,-0.0500,-5.4300,-0.1724,-3.3794,-2.3322,-35.5625,22.2500,21.3750,52.6875,72.3750,166.9375,0
1776971585.509,9.3134,0.8236,0.1987,0.3925,0.4143,-1.3925,-79.6500,30.4500,-24.0000,8.9232,-4.4125,5.3534,1.6161,-2.9865,-1.6006,-38.5500,-4.9500,45.7500,6.4400,-0.4300,-5.9700,-0.2847,-3.2190,-2.5885,-35.5625,22.2500,21.3750,52.6875,72.3750,166.9375,0
1776971585.514,9.3134,0.8236,0.1987,0.4389,0.3123,-1.2835,-79.6500,30.4500,-24.0000,9.2344,-4.0462,4.8459,1.2750,-3.0182,-1.3944,-38.5500,-4.9500,45.7500,6.4400,-0.4300,-5.9700,-0.2847,-3.2190,-2.5885,-35.5625,22.2500,21.3750,54.3125,70.9375,172.4375,0
1776971585.519,9.1219,1.2282,0.1604,0.4389,0.3123,-1.2835,-79.6500,30.4500,-24.0000,9.2344,-4.0462,4.8459,1.2750,-3.0182,-1.3944,-38.5500,-4.9500,45.7500,7.5200,-0.5200,-6.3200,-0.3174,-3.0740,-2.6693,-30.5625,18.1875,26.2500,54.3125,70.9375,172.4375,0
1776971585.524,9.1219,1.2282,0.1604,0.4900,0.2241,-1.1599,-81.1500,30.4500,-25.5000,9.0166,-3.2729,4.8507,1.0595,-3.1810,-1.2814,-38.5500,-4.9500,45.7500,7.5200,-0.5200,-6.3200,-0.3174,-3.0740,-2.6693,-30.5625,18.1875,26.2500,55.8125,69.4375,177.0000,0
1776971585.529,9.0214,1.3048,0.1604,0.6182,0.1684,-1.0544,-81.1500,30.4500,-25.5000,9.0166,-3.2729,4.8507,1.0595,-3.1810,-1.2814,-40.0500,-3.4500,42.9000,8.4100,-0.6600,-6.7100,-0.2411,-3.0238,-2.5962,-30.5625,18.1875,26.2500,55.8125,69.4375,177.0000,0
1776971585.534,9.0214,1.3048,0.1604,0.6182,0.1684,-1.0544,-80.4000,31.9500,-26.2500,8.3917,-2.5139,4.6615,1.0325,-3.2802,-1.2825,-40.2000,-3.4500,42.9000,8.4100,-0.6600,-6.7100,-0.1025,-3.0685,-2.4282,-30.5625,18.1875,26.2500,57.2500,67.7500,-179.3750,0
1776971585.540,8.7364,1.1708,0.1413,0.7061,0.1727,-0.9467,-80.4000,31.9500,-26.2500,8.3917,-2.5139,4.6615,1.0325,-3.2802,-1.2825,-40.2000,-4.0500,40.9500,10.2800,-0.8500,-7.3600,-0.1025,-3.0685,-2.4282,-30.5625,18.1875,26.2500,58.5625,65.9375,-176.6250,0
1776971585.549,8.2504,1.3862,-0.2011,0.7754,0.1753,-0.8495,-81.0000,31.5000,-25.6500,8.3318,-1.9632,4.7046,1.1879,-3.3462,-1.3483,-40.2000,-1.5000,39.4500,11.2500,-0.6000,-7.6900,0.0000,-3.1623,-2.2340,-30.5625,18.1875,26.2500,58.5625,65.9375,-176.6250,0
1776971585.559,7.3287,1.6616,-0.2682,0.7594,0.2715,-0.7799,-80.1000,31.9500,-24.0000,8.3390,-1.2665,4.3191,1.3211,-3.3897,-1.4650,-39.7500,-2.4000,39.0000,12.0300,-0.1100,-7.9200,0.0535,-3.3096,-2.0409,-30.5625,18.1875,26.2500,59.7500,64.0625,-174.5000,0
1776971585.564,7.3287,1.6616,-0.2682,0.7594,0.2715,-0.7799,-80.8500,34.3500,-27.0000,8.8250,-0.9792,4.1563,1.4629,-3.4198,-1.6491,-40.9500,-0.7500,37.3500,12.0300,-0.1100,-7.9200,0.0535,-3.3096,-2.0409,-30.5625,18.1875,26.2500,59.7500,64.0625,-174.5000,0
1776971585.569,6.7708,2.2745,0.3974,0.6230,0.3397,-0.6472,-80.8500,34.3500,-27.0000,8.8250,-0.9792,4.1563,1.4629,-3.4198,-1.6491,-40.9500,-0.7500,37.3500,13.8900,1.2300,-8.7600,0.0982,-3.4819,-1.8904,-26.1875,14.1875,27.7500,60.8750,62.0000,-172.9375,0
1776971585.574,6.7708,2.2745,0.3974,0.6230,0.3397,-0.6472,-81.1500,34.0500,-28.5000,9.4332,-1.1827,4.1803,1.6369,-3.3673,-1.7706,-40.9500,-0.7500,37.3500,13.8900,1.2300,-8.7600,0.0982,-3.4819,-1.8904,-26.1875,14.1875,27.7500,60.8750,62.0000,-172.9375,0
1776971585.579,8.0373,2.3080,-0.0431,0.7282,0.3003,-0.5044,-81.1500,34.0500,-28.5000,9.4332,-1.1827,4.1803,1.6369,-3.3673,-1.7706,-40.9500,-0.7500,37.3500,14.3200,1.9500,-8.6700,0.1342,-3.7066,-1.8271,-26.1875,14.1875,27.7500,62.0000,59.8125,-171.6875,0
1776971585.587,8.2887,2.3056,0.2993,0.7282,0.3003,-0.5044,-81.1500,34.0500,-28.5000,10.0173,-1.4892,4.0342,1.7512,-3.2818,-1.8154,-39.9000,0.0000,34.5000,14.1100,2.3800,-8.3200,0.1767,-3.9379,-1.8620,-26.1875,14.1875,27.7500,63.1875,57.5000,-170.6875,0
1776971585.591,8.2887,2.3056,0.2993,0.7501,0.1812,-0.3728,-81.1500,34.0500,-28.5000,10.3525,-1.6927,3.9504,1.8346,-3.2935,-1.8024,-39.9000,0.0000,34.5000,14.1100,2.3800,-8.3200,0.1767,-3.9379,-1.8620,-26.1875,14.1875,27.7500,64.5625,55.1250,-169.7500,0
1776971585.600,8.2648,2.0949,0.0934,0.8154,0.1247,-0.2777,-80.1000,36.0000,-29.5500,10.3525,-1.6927,3.9504,1.8346,-3.2935,-1.8024,-40.0500,-0.9000,32.5500,13.5600,3.0700,-7.8500,0.2269,-4.0939,-1.9504,-26.1875,14.1875,27.7500,65.9375,52.6250,-169.0000,0
1776971585.609,8.3007,1.6592,0.1269,0.8476,0.0677,-0.1708,-80.2500,36.1500,-30.1500,10.1969,-1.9800,4.1372,1.8242,-3.3334,-1.7722,-39.1500,2.2500,31.6500,13.1900,3.4300,-7.6600,0.3011,-4.1855,-2.0551,-26.1875,14.1875,27.7500,65.9375,52.6250,-169.0000,0
1776971585.614,8.3007,1.6592,0.1269,0.8476,0.0677,-0.1708,-81.3000,34.5000,-31.2000,10.1179,-2.0135,4.1420,1.6561,-3.4336,-1.7040,-39.1500,1.8000,31.3500,13.1900,3.4300,-7.6600,0.3011,-4.1855,-2.0551,-26.1875,14.1875,27.7500,67.4375,50.0625,-168.3125,0
1776971585.619,8.2887,1.5826,0.1125,0.9134,0.0895,-0.0650,-81.3000,34.5000,-31.2000,10.0963,-1.4437,4.1635,1.4855,-3.4813,-1.6862,-39.1500,1.8000,31.3500,12.9200,3.7000,-7.6400,0.4047,-4.2270,-2.1522,-21.3750,10.5625,31.3750,67.4375,50.0625,-168.3125,0
1776971585.624,8.0900,1.3168,0.0646,0.9134,0.0895,-0.0650,-80.5500,34.9500,-30.9000,10.0963,-1.4437,4.1635,1.4855,-3.4813,-1.6862,-38.1000,4.0500,28.8000,12.9200,3.7000,-7.6400,0.4047,-4.2270,-2.1522,-21.3750,10.5625,31.3750,69.0000,47.5000,-167.7500,0
1776971585.629,8.0900,1.3168,0.0646,0.9497,0.1506,0.0397,-80.5500,34.9500,-30.9000,9.9216,-0.5842,3.3758,1.3379,-3.5290,-1.7245,-38.1000,4.0500,28.8000,12.6200,3.8500,-7.6700,0.4952,-4.2455,-2.2307,-21.3750,10.5625,31.3750,69.0000,47.5000,-167.7500,0
1776971585.634,8.1858,1.0127,-0.2634,0.9497,0.1506,0.0397,-79.3500,34.8000,-32.5500,9.9216,-0.5842,3.3758,1.3379,-3.5290,-1.7245,-38.1000,4.0500,28.8000,12.6200,3.8500,-7.6700,0.5585,-4.2117,-2.2864,-21.3750,10.5625,31.3750,70.6250,44.9375,-167.3125,0
1776971585.640,8.1858,1.0127,-0.2634,1.0970,0.2987,0.1553,-79.3500,34.8000,-32.5500,9.7013,0.1149,2.8204,1.3432,-3.5176,-1.7949,-38.1000,4.0500,28.8000,11.5900,4.2600,-7.3100,0.5585,-4.2117,-2.2864,-21.3750,10.5625,31.3750,44.6875,42.4375,-166.9375,0
1776971585.649,7.9344,0.8356,-0.1939,1.0531,0.3555,0.3019,-81.7500,35.4000,-31.6500,10.2927,0.3903,2.3128,1.4549,-3.4861,-1.8706,-37.5000,3.4500,25.3500,10.7500,4.5500,-6.4900,0.6174,-4.1015,-2.3366,-21.3750,10.5625,31.3750,43.4375,40.0625,-166.6250,0
1776971585.660,8.2193,0.7135,-0.1460,0.9529,0.3656,0.4455,-81.7500,35.4000,-31.6500,10.6470,0.8140,1.8962,1.5910,-3.6585,-1.9801,-37.6500,5.2500,25.6500,9.5900,4.6700,-5.6300,0.6785,-3.8419,-2.3507,-21.3750,10.5625,31.3750,43.4375,40.0625,-166.6250,0
1776971585.664,8.1283,0.8356,-0.5076,0.8788,0.3123,0.5641,-80.8500,34.3500,-30.6000,10.6470,0.8140,1.8962,1.5910,-3.6585,-1.9801,-34.6500,4.2000,22.2000,9.5900,4.6700,-5.6300,0.6785,-3.8419,-2.3507,-21.3750,10.5625,31.3750,43.4375,40.0625,-166.6250,0
1776971585.670,8.1283,0.8356,-0.5076,0.8788,0.3123,0.5641,-80.8500,34.3500,-30.6000,11.0109,1.4341,1.0271,1.6784,-3.7246,-2.0741,-34.6500,4.2000,22.2000,8.7900,5.6700,-4.8500,0.8312,-3.4045,-2.2929,-17.2500,4.5625,33.5000,42.1875,37.9375,-166.4375,0
1776971585.674,8.1116,1.1253,-0.9002,0.8119,0.2577,0.6747,-80.8500,34.3500,-30.6000,11.0109,1.4341,1.0271,1.6784,-3.7246,-2.0741,-33.7500,6.7500,22.0500,8.7900,5.6700,-4.8500,0.8312,-3.4045,-2.2929,-17.2500,4.5625,33.5000,42.1875,37.9375,-166.4375,0
