timestamp,thigh_acc_x,thigh_acc_y,thigh_acc_z,thigh_gyro_x,thigh_gyro_y,thigh_gyro_z,thigh_mag_x,thigh_mag_y,thigh_mag_z,shank_acc_x,shank_acc_y,shank_acc_z,shank_gyro_x,shank_gyro_y,shank_gyro_z,shank_mag_x,shank_mag_y,shank_mag_z,foot_acc_x,foot_acc_y,foot_acc_z,foot_gyro_x,foot_gyro_y,foot_gyro_z,foot_mag_x,foot_mag_y,foot_mag_z,foot_euler_x,foot_euler_y,foot_euler_z,perturbation_event
1776973480.947,9.1291,1.2857,0.3735,-2.5029,0.0437,-0.2294,-84.1500,-6.9000,-11.1000,8.1858,0.9577,-0.4717,-2.2953,0.0213,0.3661,-96.6000,22.8000,-0.3000,-2.4700,-5.2100,-9.0700,0.7745,0.9130,2.6682,35.0625,-2.0000,41.0000,141.1875,-20.0000,158.4375,0
1776973480.954,8.6694,0.8571,0.5291,-2.4661,-0.0240,-0.3019,-84.4500,-7.5000,-11.5500,8.2887,0.7278,-0.2658,-2.4283,0.1740,0.3437,-97.0500,19.2000,-1.5000,-1.8500,-4.2500,-8.6500,0.7167,1.0483,2.7194,35.0625,-2.0000,41.0000,142.8750,-20.0000,158.6875,0
1776973480.959,8.6694,0.8571,0.5291,-2.4661,-0.0240,-0.3019,-84.4500,-7.5000,-11.5500,8.0685,0.5291,-0.1796,-2.4701,0.3200,0.3483,-97.0500,19.2000,-1.5000,-1.8500,-4.2500,-8.6500,0.7167,1.0483,2.7194,35.0625,-2.0000,41.0000,144.6250,-19.9375,158.8125,0
1776973480.967,8.4396,0.5674,0.6345,-2.4776,-0.0815,-0.3656,-83.8500,-7.3500,-11.4000,8.0685,0.5291,-0.1796,-2.6303,0.4197,0.3752,-97.0500,18.4500,1.2000,-1.8600,-3.8600,-8.3300,0.7690,1.1606,2.7413,35.0625,-2.0000,41.0000,146.3125,-19.8125,158.9375,0
1776973480.977,8.2408,0.2538,0.6129,-2.5889,-0.1314,-0.4122,-83.8500,-7.3500,-11.4000,7.5729,0.9266,-0.3041,-2.7448,0.4922,0.3821,-97.0500,18.4500,1.2000,-1.8000,-3.7600,-7.9400,0.9087,1.2588,2.7162,35.0625,-2.0000,41.0000,146.3125,-19.8125,158.9375,0
1776973480.982,8.1283,0.0407,0.7829,-2.6985,-0.2134,-0.4596,-85.8000,-4.2000,-12.9000,7.5729,0.9266,-0.3041,-2.7448,0.4922,0.3821,-96.7500,15.4500,0.1500,-1.8000,-3.7600,-7.9400,0.9087,1.2588,2.7162,35.0625,-2.0000,41.0000,148.0625,-19.6875,158.9375,0
1776973480.987,8.1283,0.0407,0.7829,-2.6985,-0.2134,-0.4596,-85.8000,-4.2000,-12.9000,7.3215,1.2570,-0.6153,-3.0763,0.6659,0.4032,-96.7500,15.4500,0.1500,-1.8500,-3.9800,-7.1000,1.0516,1.3232,2.6747,32.5000,-4.5000,41.0000,148.0625,-19.6875,158.9375,0
1776973480.992,8.0996,0.0239,0.9290,-2.8202,-0.2521,-0.4895,-85.8000,-4.2000,-12.9000,7.3215,1.2570,-0.6153,-3.0763,0.6659,0.4032,-97.3500,14.5500,0.6000,-1.8500,-3.9800,-7.1000,1.0516,1.3232,2.6747,32.5000,-4.5000,41.0000,149.7500,-19.5000,158.8750,0
1776973480.997,8.0996,0.0239,0.9290,-2.8202,-0.2521,-0.4895,-85.8000,-4.2000,-12.9000,7.3670,1.9201,-0.5315,-3.2967,0.7538,0.4636,-97.3500,14.5500,0.6000,-2.1100,-3.5900,-6.9300,1.1432,1.3363,2.6376,32.5000,-4.5000,41.0000,149.7500,-19.5000,158.8750,0
1776973481.005,8.1547,0.1939,1.0032,-2.9180,-0.2753,-0.4916,-84.1500,-4.6500,-12.4500,7.3670,1.9201,-0.5315,-3.2967,0.7538,0.4636,-95.4000,11.5500,0.3000,-2.6100,-3.1600,-6.8400,1.2414,1.3264,2.5940,32.5000,-4.5000,41.0000,151.4375,-19.3750,158.7500,0
1776973481.010,8.2624,0.6009,0.9505,-2.9812,-0.2878,-0.4748,-84.1500,-4.6500,-12.4500,7.2042,2.4780,-0.7111,-3.3915,0.8100,0.5161,-96.7500,11.7000,1.2000,-2.6100,-3.1600,-6.8400,1.2414,1.3264,2.5940,32.5000,-4.5000,41.0000,153.1250,-19.1875,158.5625,0
1776973481.018,8.4946,1.0151,1.0343,-2.9812,-0.2878,-0.4748,-86.1000,-3.9000,-14.4000,7.9152,3.3950,-0.4357,-3.3684,0.8135,0.5790,-96.7500,11.7000,1.2000,-3.3800,-2.9800,-6.4000,1.3712,1.3003,2.5275,32.5000,-4.5000,41.0000,154.7500,-19.0625,158.2500,0
1776973481.028,8.8394,1.4269,0.9720,-3.0009,-0.2872,-0.4506,-84.4500,-2.8500,-14.5500,7.9655,3.9696,-0.3089,-3.2426,0.8031,0.6558,-96.6000,10.5000,2.1000,-3.6600,-2.9500,-6.2900,1.4683,1.2512,2.4555,32.5000,-4.5000,41.0000,154.7500,-19.0625,158.2500,0
1776973481.033,8.8394,1.4269,0.9720,-2.9639,-0.2769,-0.4066,-84.1500,-3.9000,-14.4000,7.9655,3.9696,-0.3089,-3.2426,0.8031,0.6558,-96.6000,10.5000,2.1000,-3.6600,-2.9500,-6.2900,1.4683,1.2512,2.4555,32.5000,-4.5000,41.0000,156.3750,-18.9375,157.9375,0
1776973481.038,9.3948,2.0135,0.8978,-2.8376,-0.2729,-0.3459,-84.1500,-3.9000,-14.4000,8.0086,4.6591,-0.3448,-3.1749,0.8817,0.7168,-96.6000,10.5000,2.1000,-4.0800,-2.9700,-6.2900,1.5086,1.1683,2.4020,28.8750,-6.3750,43.0000,156.3750,-18.9375,157.9375,0
1776973481.043,9.3948,2.0135,0.8978,-2.8376,-0.2729,-0.3459,-83.8500,-1.0500,-16.2000,8.0086,4.6591,-0.3448,-3.1749,0.8817,0.7168,-96.7500,7.9500,1.2000,-4.0800,-2.9700,-6.2900,1.5086,1.1683,2.4020,28.8750,-6.3750,43.0000,157.8750,-18.8750,157.5625,0
1776973481.048,11.2168,2.7270,0.7709,-2.6540,-0.3043,-0.2478,-83.8500,-1.0500,-16.2000,9.0692,5.2385,-0.6752,-2.8706,1.0722,0.7589,-96.7500,7.9500,1.2000,-4.5600,-2.7300,-6.2500,1.5217,1.0450,2.3507,28.8750,-6.3750,43.0000,157.8750,-18.8750,157.5625,0
1776973481.054,11.2168,2.7270,0.7709,-2.6540,-0.3043,-0.2478,-82.9500,-0.9000,-16.3500,9.0692,5.2385,-0.6752,-2.8706,1.0722,0.7589,-96.0000,3.9000,2.5500,-7.2300,-17.9000,-12.0500,1.6188,0.6872,1.8850,28.8750,-6.3750,43.0000,159.1875,-18.9375,157.0625,0
1776973481.058,12.7515,6.1866,0.0239,-2.3068,-0.2110,-0.0818,-82.9500,-0.9000,-16.3500,10.9104,5.7006,-0.9074,-2.5023,1.1770,0.8729,-94.8000,5.5500,2.1000,-7.2300,-17.9000,-12.0500,1.6188,0.6872,1.8850,28.8750,-6.3750,43.0000,159.8750,-19.3125,157.1875,0
1776973481.068,13.1394,10.4100,0.0622,-2.2375,0.0767,-0.0176,-82.9500,-0.9000,-16.3500,12.6510,6.5817,-1.3695,-2.1504,1.2281,1.0269,-95.8500,5.5500,2.1000,-7.7100,-12.9300,-7.8300,0.1789,-0.1560,1.2555,28.8750,-6.3750,43.0000,160.0000,-19.3125,157.4375,0
1776973481.078,13.5201,11.5161,-1.4365,-1.5047,0.1695,-0.0735,-84.7500,-1.6500,-16.3500,14.0707,7.9703,-2.3176,-1.7014,1.2614,1.1474,-95.8500,3.7500,2.4000,-3.9900,-19.1400,-5.1000,-0.3643,0.0764,0.3065,28.8750,-6.3750,43.0000,160.0000,-19.3125,157.4375,0
1776973481.083,13.5201,11.5161,-1.4365,-1.5047,0.1695,-0.0735,-84.7500,-1.6500,-16.3500,14.0707,7.9703,-2.3176,-1.7014,1.2614,1.1474,-95.8500,3.7500,2.4000,-3.9900,-19.1400,-5.1000,-0.3643,0.0764,0.3065,28.8750,-6.3750,43.0000,160.0000,-19.3125,157.4375,0
1776973481.088,12.5983,9.7396,-2.4852,0.1921,0.0341,-0.0874,-84.7500,-1.6500,-16.3500,13.9606,9.7636,-3.6057,-1.3059,1.2001,1.1631,-95.8500,3.7500,2.4000,-0.8100,-2.4200,-8.0000,-0.4505,-0.0098,0.0447,24.7500,-7.1875,44.1875,160.0000,-19.3125,157.6875,0
1776973481.093,12.5983,9.7396,-2.4852,0.1921,0.0341,-0.0874,-84.0000,-1.3500,-17.1000,13.9606,9.7636,-3.6057,-1.3059,1.2001,1.1631,-94.5000,3.4500,3.0000,-0.8100,-2.4200,-8.0000,-0.4505,-0.0098,0.0447,24.7500,-7.1875,44.1875,160.0000,-19.3125,157.6875,0
1776973481.098,10.5512,6.0741,-3.0239,1.7962,0.0445,0.0013,-84.0000,-1.3500,-17.1000,12.5408,10.8840,-4.4317,-0.8881,0.8748,1.0749,-94.2000,0.9000,1.9500,-5.3200,1.3700,-12.1200,-0.6316,-0.4123,0.4254,24.7500,-7.1875,44.1875,160.1250,-19.6250,158.1250,0
1776973481.107,8.2911,3.0239,-2.4445,2.4571,0.2571,0.0749,-84.1500,-0.3000,-16.6500,10.9966,10.5536,-3.4931,-0.5281,0.3834,0.9281,-94.3500,2.5500,3.4500,-6.9900,-1.1500,-11.1100,-0.4952,-0.5443,0.3829,24.7500,-7.1875,44.1875,160.2500,-20.0000,158.3750,0
1776973481.117,7.1802,0.9840,-2.4924,2.3547,0.4104,0.1508,-85.3500,-1.9500,-16.2000,9.8282,8.8107,-1.8723,0.0184,-0.0083,0.6989,-95.2500,2.7000,3.3000,-3.7700,-4.7800,-7.7500,-0.3229,-0.2029,0.1625,24.7500,-7.1875,44.1875,160.2500,-20.1250,158.6250,0
1776973481.127,7.8027,-0.4046,-2.9401,1.9153,0.4191,0.1833,-84.4500,-0.9000,-16.8000,8.8298,6.5553,-0.8068,0.4173,0.2081,0.5454,-95.2500,0.9000,3.6000,-3.2100,-3.3400,-8.5500,-0.3698,-0.0218,0.0960,24.7500,-7.1875,44.1875,160.3125,-20.1250,158.8125,0
1776973481.132,7.8027,-0.4046,-2.9401,1.9153,0.4191,0.1833,-84.4500,-0.9000,-16.8000,8.8298,6.5553,-0.8068,0.8367,0.7088,0.4863,-95.2500,0.9000,3.6000,-3.2100,-3.3400,-8.5500,-0.3698,-0.0218,0.0960,24.7500,-7.1875,44.1875,160.3125,-20.1250,158.8125,0
1776973481.136,8.8322,-1.7526,-3.3136,1.3928,0.3608,0.2236,-84.4500,-0.9000,-16.8000,8.7293,5.5306,-0.3615,0.8367,0.7088,0.4863,-95.2500,0.9000,3.6000,-3.0400,-2.1000,-8.9000,-0.3600,-0.0175,0.1145,24.5000,-8.6875,44.5625,160.3125,-20.1875,159.0625,0
1776973481.141,8.8322,-1.7526,-3.3136,1.3928,0.3608,0.2236,-84.4500,-0.9000,-16.8000,8.7293,5.5306,-0.3615,1.3083,1.0195,0.4088,-95.2500,0.9000,3.6000,-3.0400,-2.1000,-8.9000,-0.3600,-0.0175,0.1145,24.5000,-8.6875,44.5625,160.3125,-20.1875,159.0625,0
1776973481.146,9.0118,-2.2649,-2.7126,0.9430,0.4493,0.2273,-85.0500,-2.2500,-15.1500,9.3039,4.9009,-0.4070,1.3083,1.0195,0.4088,-95.2500,0.9000,3.6000,-3.1700,-1.8700,-8.7900,-0.3000,-0.1200,0.1276,24.5000,-8.6875,44.5625,160.3125,-20.2500,159.2500,0
1776973481.151,9.0118,-2.2649,-2.7126,0.9430,0.4493,0.2273,-85.0500,-2.2500,-15.1500,9.3039,4.9009,-0.4070,1.6603,0.8604,0.3341,-97.3500,1.5000,4.5000,-3.1700,-1.8700,-8.7900,-0.3000,-0.1200,0.1276,24.5000,-8.6875,44.5625,160.3750,-20.4375,159.3750,0
1776973481.158,9.2632,-1.5251,-2.2386,0.6249,0.5484,0.1596,-85.0500,-2.2500,-15.1500,9.1435,3.8499,-0.6440,1.6603,0.8604,0.3341,-97.9500,0.7500,3.9000,-3.4100,-2.4500,-8.7600,-0.2662,-0.2422,0.1200,24.5000,-8.6875,44.5625,160.3750,-20.6250,159.5000,0
1776973481.168,9.5888,0.2993,-1.3144,0.5031,0.5769,0.0797,-85.5000,-2.8500,-14.5500,8.8178,2.2362,-1.0032,1.8130,0.5718,0.3869,-99.1500,0.7500,6.0000,-3.3500,-2.6100,-8.7000,-0.2323,-0.3392,0.1134,24.5000,-8.6875,44.5625,160.3750,-20.6250,159.5000,0
1776973481.178,9.5672,2.4636,-0.0335,0.3914,0.5865,0.0762,-85.5000,-1.3500,-14.5500,8.0972,0.5028,-1.3695,1.6507,0.3347,0.5545,-99.9000,0.0000,5.7000,-3.4500,-2.8100,-8.6600,-0.1844,-0.4658,0.1134,24.5000,-8.6875,44.5625,160.3750,-20.8750,159.6250,0
1776973481.183,9.4499,3.7493,1.2713,0.3160,0.5742,0.1218,-85.0500,-2.7000,-16.2000,8.2552,-0.9050,-1.5275,1.4578,0.1455,0.7714,-99.9000,0.0000,5.7000,-3.4500,-2.8100,-8.6600,-0.1844,-0.4658,0.1134,24.5000,-8.6875,44.5625,160.3750,-21.1875,159.6875,0
1776973481.188,9.4499,3.7493,1.2713,0.3160,0.5742,0.1218,-85.0500,-2.7000,-16.2000,8.2552,-0.9050,-1.5275,1.4578,0.1455,0.7714,-99.9000,0.0000,5.7000,-4.1700,-3.7000,-8.3400,-0.1418,-0.5541,0.1113,25.1875,-9.7500,44.2500,160.3750,-21.1875,159.6875,0
1776973481.193,9.5457,3.9002,1.9130,0.2918,0.5420,0.1735,-84.6000,-3.9000,-15.1500,8.7412,-1.6328,-1.0415,1.3009,0.1140,0.8623,-99.9000,0.0000,5.7000,-4.1700,-3.7000,-8.3400,-0.1418,-0.5541,0.1113,25.1875,-9.7500,44.2500,160.3750,-21.5000,159.6875,0
1776973481.198,9.5457,3.9002,1.9130,0.2918,0.5420,0.1735,-84.6000,-3.9000,-15.1500,8.7412,-1.6328,-1.0415,1.3009,0.1140,0.8623,-100.5000,-2.2500,6.3000,-4.0300,-4.0300,-8.0800,-0.1364,-0.5247,0.1047,25.1875,-9.7500,44.2500,160.3750,-21.5000,159.6875,0
1776973481.205,9.4332,2.9281,1.8459,0.3035,0.4986,0.1756,-84.1500,-3.9000,-13.6500,9.3134,-2.2529,-0.3136,1.0123,0.1252,0.8066,-100.5000,-2.2500,6.3000,-3.8300,-4.0100,-7.9300,-0.1996,-0.4385,0.1047,25.1875,-9.7500,44.2500,160.3750,-21.7500,159.8125,0
1776973481.209,9.4332,2.9281,1.8459,0.3035,0.4986,0.1756,-84.1500,-3.9000,-13.6500,9.6295,-2.9904,0.1532,0.6638,0.2100,0.6739,-102.0000,-4.0500,4.9500,-3.8300,-4.0100,-7.9300,-0.1996,-0.4385,0.1047,25.1875,-9.7500,44.2500,160.3750,-21.9375,160.0000,0
1776973481.218,9.0597,1.0343,1.1301,0.2707,0.5841,0.1633,-86.2500,-3.6000,-13.8000,9.6295,-2.9904,0.1532,0.6638,0.2100,0.6739,-100.2000,-5.5500,7.0500,-4.1900,-3.7700,-8.1000,-0.2836,-0.3720,0.1265,25.1875,-9.7500,44.2500,160.3750,-22.1875,160.1875,0
1776973481.228,9.6462,-0.2801,0.7207,0.1274,0.6003,0.1831,-86.2500,-3.6000,-13.8000,10.1251,-3.0765,0.9098,0.3349,0.3616,0.5484,-101.1000,-5.7000,5.8500,-4.2400,-3.3600,-8.3100,-0.3414,-0.3272,0.1527,25.1875,-9.7500,44.2500,160.3750,-22.1875,160.1875,0
1776973481.233,10.2999,-1.1061,0.1652,-0.1761,0.5681,0.1780,-85.9500,-3.3000,-12.3000,10.8409,-2.8922,1.1181,0.0029,0.3573,0.4218,-101.1000,-5.7000,5.8500,-4.2400,-3.3600,-8.3100,-0.3414,-0.3272,0.1527,25.1875,-9.7500,44.2500,160.3750,-22.1875,160.1875,0
1776973481.238,10.2999,-1.1061,0.1652,-0.1761,0.5681,0.1780,-85.9500,-3.3000,-12.3000,10.8409,-2.8922,1.1181,-0.3171,0.6011,0.2635,-98.2500,-6.1500,6.4500,-4.2200,-2.8500,-8.6000,-0.3752,-0.2738,0.1549,26.7500,-9.7500,44.5625,160.3750,-22.3125,160.3750,0
1776973481.243,10.5608,-1.1516,-0.5124,-0.4788,0.4839,0.1740,-85.9500,-3.3000,-12.3000,10.3837,-2.4924,1.1468,-0.3171,0.6011,0.2635,-98.2500,-6.1500,6.4500,-4.2200,-2.8500,-8.6000,-0.3752,-0.2738,0.1549,26.7500,-9.7500,44.5625,160.3750,-22.3125,160.3750,0
1776973481.248,10.5608,-1.1516,-0.5124,-0.4788,0.4839,0.1740,-85.9500,-3.3000,-12.3000,10.1394,-2.1021,0.5914,-0.6787,0.6358,0.1244,-98.2500,-6.1500,6.4500,-4.1800,-2.7200,-8.7500,-0.3502,-0.2313,0.1440,26.7500,-9.7500,44.5625,160.3750,-22.5000,160.6250,0
1776973481.254,10.0868,-0.9481,-0.7733,-0.6765,0.4458,0.1743,-85.3500,-2.7000,-12.4500,10.1394,-2.1021,0.5914,-0.6787,0.6358,0.1244,-98.2500,-6.1500,6.4500,-5.0000,-2.5000,-9.0700,-0.3011,-0.2138,0.1298,26.7500,-9.7500,44.5625,160.4375,-22.6250,160.7500,0
1776973481.259,9.7061,-0.2155,-0.5028,-0.7357,0.4599,0.1847,-85.3500,-2.7000,-12.4500,10.0485,-1.8531,0.2251,-1.0744,0.6099,0.0376,-98.5500,-8.7000,5.1000,-5.0000,-2.5000,-9.0700,-0.3011,-0.2138,0.1298,26.7500,-9.7500,44.5625,160.4375,-22.6875,160.9375,0
1776973481.268,9.7157,1.1157,-0.5387,-0.7357,0.4599,0.1847,-85.5000,-2.4000,-12.7500,9.8497,-1.5945,-0.3783,-1.3627,0.5380,0.0061,-97.5000,-8.7000,5.4000,-4.2200,-2.1400,-8.7700,-0.2367,-0.1582,0.0971,26.7500,-9.7500,44.5625,160.4375,-22.7500,161.0000,0
1776973481.278,9.4332,2.2434,-0.3926,-0.5233,0.4679,0.1817,-84.4500,-2.4000,-13.5000,10.2352,-1.1157,-0.8619,-1.6017,0.5476,0.0400,-96.1500,-9.0000,6.3000,-4.1100,-2.5000,-8.7500,-0.1745,-0.1004,0.0578,26.7500,-9.7500,44.5625,160.4375,-22.7500,161.0000,0
1776973481.283,9.4332,2.2434,-0.3926,-0.5233,0.4679,0.1817,-84.4500,-2.4000,-13.5000,10.2352,-1.1157,-0.8619,-1.6017,0.5476,0.0400,-96.1500,-9.0000,6.3000,-4.1100,-2.5000,-8.7500,-0.1745,-0.1004,0.0578,26.7500,-9.7500,44.5625,160.4375,-22.8125,161.1250,0
1776973481.288,9.2991,2.6791,-0.2394,-0.2348,0.5017,0.1817,-85.9500,-2.1000,-12.0000,10.5273,-0.3400,-1.1133,-1.7453,0.4162,0.0746,-96.9000,-9.3000,4.2000,-4.1400,-2.8200,-8.5300,-0.1516,-0.1091,0.0404,26.7500,-11.5625,42.5625,160.4375,-22.8125,161.1250,0
1776973481.293,9.2991,2.6791,-0.2394,-0.2348,0.5017,0.1817,-85.9500,-2.1000,-12.0000,10.5273,-0.3400,-1.1133,-1.7453,0.4162,0.0746,-96.9000,-9.3000,4.2000,-4.1400,-2.8200,-8.5300,-0.1516,-0.1091,0.0404,26.7500,-11.5625,42.5625,160.4375,-22.8125,161.1250,0
1776973481.298,9.3661,2.4421,0.2586,0.1391,0.5268,0.1753,-85.9500,-2.1000,-12.0000,9.9048,0.3448,-1.4629,-1.9524,0.2185,0.1127,-96.9000,-9.3000,4.2000,-4.1200,-2.9500,-8.4600,-0.1396,-0.1036,0.0349,26.7500,-11.5625,42.5625,160.4375,-22.8750,161.1875,0
1776973481.307,9.4763,1.7358,0.9050,0.3312,0.5494,0.1665,-85.3500,-2.2500,-12.1500,9.5146,1.0630,-0.4453,-2.1170,0.0797,0.1708,-96.4500,-10.6500,5.1000,-4.0800,-2.9800,-8.4200,-0.1353,-0.0818,0.0295,26.7500,-11.5625,42.5625,160.4375,-22.9375,161.2500,0
1776973481.312,9.4763,1.7358,0.9050,0.3312,0.5494,0.1665,-85.3500,-2.2500,-12.1500,9.5146,1.0630,-0.4453,-2.1170,0.0797,0.1708,-96.4500,-10.6500,5.1000,-4.0800,-2.9800,-8.4200,-0.1331,-0.0774,0.0349,26.7500,-11.5625,42.5625,160.4375,-23.0000,161.3125,0
1776973481.319,9.8713,0.6105,1.3264,0.2028,0.4908,0.1420,-85.3500,-2.2500,-12.1500,10.0820,1.4629,0.3280,-2.1067,-0.0274,0.2246,-95.7000,-9.1500,4.0500,-4.0900,-2.9300,-8.4100,-0.1331,-0.0774,0.0349,26.7500,-11.5625,42.5625,160.4375,-23.0625,161.4375,0
1776973481.328,9.8809,-0.6153,1.5969,0.0687,0.4375,0.1282,-84.7500,-2.8500,-11.2500,9.3853,1.7119,0.9170,-1.9145,-0.0991,0.2236,-96.1500,-11.2500,4.2000,-3.8800,-3.1500,-8.3600,-0.1418,-0.0698,0.0436,26.7500,-11.5625,42.5625,160.4375,-23.0625,161.4375,0
1776973481.333,9.8809,-0.6153,1.5969,0.0687,0.4375,0.1282,-84.7500,-2.8500,-11.2500,9.3853,1.7119,0.9170,-1.9145,-0.0991,0.2236,-96.6000,-11.2500,4.2000,-3.8800,-3.1500,-8.3600,-0.1418,-0.0698,0.0436,26.7500,-11.5625,42.5625,160.4375,-23.1250,161.5000,0
1776973481.338,10.0365,-1.1325,1.7980,-0.0693,0.4522,0.1452,-86.5500,-2.7000,-11.4000,9.1243,1.9082,1.4796,-1.5977,-0.0426,0.2025,-96.6000,-12.0000,5.2500,-4.1200,-2.7700,-8.5300,-0.1614,-0.0971,0.0731,27.5000,-12.0000,41.8750,160.4375,-23.1250,161.5000,0
1776973481.343,10.0365,-1.1325,1.7980,-0.0693,0.4522,0.1452,-86.5500,-2.7000,-11.4000,9.1243,1.9082,1.4796,-1.5977,-0.0426,0.2025,-97.0500,-10.9500,5.4000,-4.1200,-2.7700,-8.5300,-0.1614,-0.0971,0.0731,27.5000,-12.0000,41.8750,160.4375,-23.1875,161.6250,0
1776973481.348,10.2687,-0.6081,1.7406,-0.3000,0.4181,0.1660,-86.2500,-3.6000,-10.0500,9.0429,2.0877,2.4349,-1.4011,0.0751,0.2185,-97.0500,-10.9500,5.4000,-4.3300,-2.6000,-8.5600,-0.1451,-0.1047,0.0753,27.5000,-12.0000,41.8750,160.4375,-23.1875,161.6250,0
1776973481.353,10.2687,-0.6081,1.7406,-0.3000,0.4181,0.1660,-86.2500,-3.6000,-10.0500,9.0429,2.0877,2.4349,-1.4011,0.0751,0.2185,-97.0500,-10.9500,5.4000,-4.3300,-2.6000,-8.5600,-0.1091,-0.0818,0.0622,27.5000,-12.0000,41.8750,160.5000,-23.2500,161.6875,0
1776973481.359,9.9742,0.4573,1.6688,-0.5081,0.3733,0.1692,-86.1000,-4.6500,-11.1000,9.0644,2.4732,3.5291,-1.1032,0.1631,0.2422,-97.0500,-10.9500,5.4000,-4.2700,-2.6100,-8.6600,-0.1091,-0.0818,0.0622,27.5000,-12.0000,41.8750,160.5000,-23.3125,161.7500,0
1776973481.368,9.8976,1.2234,1.4317,-0.4714,0.3784,0.1623,-84.6000,-3.0000,-10.6500,8.9735,2.5786,4.4388,-0.8082,0.4170,0.2438,-97.0500,-12.1500,5.1000,-4.3000,-2.6600,-8.6300,-0.0687,-0.0589,0.0447,27.5000,-12.0000,41.8750,160.5000,-23.3125,161.7500,0
1776973481.378,9.8450,1.7765,1.5203,-0.3115,0.3680,0.1716,-86.2500,-3.3000,-10.0500,9.0812,2.5187,4.8195,-0.5585,0.5332,0.2324,-97.0500,-10.2000,3.3000,-4.2700,-2.7200,-8.6100,-0.0393,-0.0513,0.0273,27.5000,-12.0000,41.8750,160.5000,-23.3125,161.7500,0
1776973481.383,9.7348,2.0183,1.4748,-0.3115,0.3680,0.1716,-86.2500,-3.3000,-10.0500,9.0812,2.5187,4.8195,-0.2332,0.6909,0.2078,-98.8500,-10.2000,5.4000,-4.2700,-2.7200,-8.6100,-0.0393,-0.0513,0.0273,27.5000,-12.0000,41.8750,160.5000,-23.3125,161.7500,0
1776973481.388,9.7348,2.0183,1.4748,-0.1924,0.3299,0.1836,-86.2500,-3.3000,-10.0500,9.3158,2.5211,4.8866,-0.2332,0.6909,0.2078,-98.8500,-10.2000,5.4000,-4.2000,-2.7900,-8.5100,-0.0218,-0.0305,0.0153,27.5000,-11.5625,42.5625,160.5000,-23.3750,161.7500,0
1776973481.393,9.6438,2.1883,1.3120,-0.1924,0.3299,0.1836,-86.2500,-3.3000,-10.0500,9.5648,2.1979,4.3096,0.0360,0.7088,0.1823,-98.2500,-12.1500,6.4500,-4.2000,-2.7900,-8.5100,-0.0218,-0.0305,0.0153,27.5000,-11.5625,42.5625,160.5000,-23.3750,161.7500,0
1776973481.398,9.6438,2.1883,1.3120,-0.0472,0.3142,0.2025,-86.2500,-5.2500,-10.5000,9.5648,2.1979,4.3096,0.0360,0.7088,0.1823,-98.2500,-12.1500,6.4500,-4.1500,-2.8400,-8.4700,-0.0109,-0.0218,0.0076,27.5000,-11.5625,42.5625,160.5000,-23.3750,161.7500,0
1776973481.403,9.8043,2.1117,1.2330,0.0719,0.2974,0.2262,-86.2500,-5.2500,-10.5000,9.7109,2.1165,3.3591,0.0698,0.6014,0.1745,-98.2500,-12.1500,6.4500,-4.1500,-2.8400,-8.4700,-0.0164,-0.0131,0.0044,27.5000,-11.5625,42.5625,160.5000,-23.3750,161.7500,0
1776973481.409,9.8043,2.1117,1.2330,0.0719,0.2974,0.2262,-86.2500,-5.2500,-10.5000,9.7109,2.1165,3.3591,0.0698,0.6014,0.1745,-98.2500,-12.1500,6.4500,-4.1700,-2.8500,-8.5000,-0.0164,-0.0131,0.0044,27.5000,-11.5625,42.5625,160.5000,-23.4375,161.8125,0
1776973481.418,9.7109,1.7430,1.2091,0.0648,0.2785,0.2590,-84.7500,-2.4000,-10.8000,9.4691,1.9154,2.5283,0.1215,0.5526,0.1735,-97.5000,-9.4500,8.7000,-4.1300,-2.8800,-8.4500,-0.0262,-0.0120,0.0055,27.5000,-11.5625,42.5625,160.5000,-23.4375,161.8125,0
1776973481.427,9.5457,1.1851,1.0965,0.0029,0.2659,0.2771,-85.8000,-3.4500,-10.3500,9.5720,1.5897,1.6017,0.1204,0.5337,0.1647,-99.1500,-10.0500,9.1500,-4.0900,-2.9600,-8.3700,-0.0327,-0.0153,0.0098,27.5000,-11.5625,42.5625,160.5000,-23.4375,161.8125,0
1776973481.432,9.6319,0.6105,0.8930,0.0029,0.2659,0.2771,-85.8000,-3.4500,-10.3500,9.5720,1.5897,1.6017,0.0104,0.5404,0.1561,-99.1500,-10.0500,9.1500,-4.0900,-2.9600,-8.3700,-0.0327,-0.0153,0.0098,27.5000,-11.5625,42.5625,160.5000,-23.4375,161.8125,0
1776973481.436,9.6319,0.6105,0.8930,-0.0890,0.2761,0.2907,-84.0000,-4.8000,-10.5000,9.7085,1.0080,0.8260,0.0104,0.5404,0.1561,-98.7000,-11.2500,9.1500,-4.0700,-2.8400,-8.3900,-0.0513,-0.0218,0.0207,27.8750,-12.0000,41.8750,160.4375,-23.4375,161.8125,0
1776973481.441,9.6247,0.5315,0.7590,-0.2960,0.2689,0.3206,-84.0000,-4.8000,-10.5000,9.7085,1.0080,0.8260,-0.0493,0.5521,0.1394,-98.7000,-11.2500,9.1500,-4.0700,-2.8400,-8.3900,-0.0513,-0.0218,0.0207,27.8750,-12.0000,41.8750,160.4375,-23.4375,161.8125,0
1776973481.446,9.6247,0.5315,0.7590,-0.2960,0.2689,0.3206,-84.7500,-3.6000,-10.5000,9.8665,0.7614,0.2370,-0.0493,0.5521,0.1394,-100.5000,-9.7500,9.9000,-4.1100,-2.8100,-8.3800,-0.0545,-0.0218,0.0262,27.8750,-12.0000,41.8750,160.4375,-23.5000,161.8750,0
1776973481.451,9.6343,0.9816,0.6608,-0.4826,0.2585,0.3549,-84.7500,-3.6000,-10.5000,9.8665,0.7614,0.2370,-0.1122,0.5737,0.0930,-100.5000,-9.7500,9.9000,-4.1100,-2.8100,-8.3800,-0.0545,-0.0218,0.0262,27.8750,-12.0000,41.8750,160.4375,-23.5000,161.8750,0
1776973481.456,9.6343,0.9816,0.6608,-0.4826,0.2585,0.3549,-84.7500,-3.6000,-10.5000,9.8976,0.5339,-0.2155,-0.1122,0.5737,0.0930,-99.3000,-9.1500,11.1000,-4.1000,-2.7600,-8.4400,-0.0524,-0.0240,0.0305,27.8750,-12.0000,41.8750,160.4375,-23.5000,161.8750,0
1776973481.461,9.4284,1.5874,0.4812,-0.5446,0.2649,0.3720,-84.7500,-3.6000,-10.5000,9.8976,0.5339,-0.2155,-0.2185,0.5271,0.0578,-99.3000,-9.1500,11.1000,-4.1000,-2.7600,-8.4400,-0.0524,-0.0240,0.0305,27.8750,-12.0000,41.8750,160.4375,-23.5625,161.9375,0
1776973481.469,9.4284,1.5874,0.4812,-0.5446,0.2649,0.3720,-85.2000,-3.6000,-10.0500,9.8090,0.4693,-0.5076,-0.2185,0.5271,0.0578,-99.3000,-9.1500,11.1000,-4.0800,-2.8400,-8.3900,-0.0502,-0.0240,0.0327,27.8750,-12.0000,41.8750,160.4375,-23.5625,161.9375,0
1776973481.477,9.3685,1.9728,0.3543,-0.5817,0.2438,0.3821,-85.2000,-3.6000,-10.0500,9.8617,0.3208,-0.5842,-0.3760,0.4948,0.0232,-101.2500,-10.8000,11.7000,-4.0000,-2.9200,-8.3200,-0.0578,-0.0284,0.0371,27.8750,-12.0000,41.8750,160.5000,-23.5625,161.9375,0
1776973481.481,9.3565,1.7023,0.2155,-0.5156,0.2694,0.3978,-85.2000,-3.6000,-10.0500,9.7947,0.2562,-0.4214,-0.5649,0.3970,0.0021,-101.8500,-9.4500,11.1000,-4.0000,-2.9200,-8.3200,-0.0578,-0.0284,0.0371,27.8750,-12.0000,41.8750,160.5000,-23.5625,161.9375,0
1776973481.486,9.3565,1.7023,0.2155,-0.5156,0.2694,0.3978,-85.0500,-4.9500,-8.8500,9.7947,0.2562,-0.4214,-0.5649,0.3970,0.0021,-101.8500,-9.4500,11.1000,-4.0400,-2.8700,-8.3200,-0.0742,-0.0349,0.0556,28.1875,-13.0625,41.8750,160.5000,-23.6250,162.0000,0
1776973481.491,9.6175,1.3192,0.4190,-0.4818,0.2731,0.4202,-85.0500,-4.9500,-8.8500,9.7947,0.3232,-0.1963,-0.7112,0.4207,-0.0123,-99.3000,-12.1500,12.1500,-4.0400,-2.8700,-8.3200,-0.0742,-0.0349,0.0556,28.1875,-13.0625,41.8750,160.5000,-23.6250,162.0000,0
1776973481.496,9.6175,1.3192,0.4190,-0.4818,0.2731,0.4202,-85.5000,-5.5500,-8.7000,9.7947,0.3232,-0.1963,-0.7112,0.4207,-0.0123,-99.3000,-12.1500,12.1500,-4.0300,-2.8500,-8.3800,-0.1014,-0.0393,0.0731,28.1875,-13.0625,41.8750,160.5000,-23.6250,162.0625,0
1776973481.501,9.4427,0.9457,0.5986,-0.3930,0.2987,0.4386,-85.5000,-5.5500,-8.7000,9.7636,0.2442,-0.0814,-0.8098,0.3371,-0.0051,-99.9000,-10.8000,10.6500,-4.0300,-2.8500,-8.3800,-0.1014,-0.0393,0.0731,28.1875,-13.0625,41.8750,160.5000,-23.6250,162.0625,0
1776973481.506,9.4427,0.9457,0.5986,-0.3930,0.2987,0.4386,-86.5500,-6.1500,-9.1500,9.7636,0.2442,-0.0814,-0.8098,0.3371,-0.0051,-99.9000,-10.8000,10.6500,-4.1200,-2.6900,-8.4400,-0.1222,-0.0447,0.0873,28.1875,-13.0625,41.8750,160.5000,-23.6875,162.1250,0
1776973481.511,9.5696,0.4764,0.7685,-0.3176,0.3144,0.4514,-86.5500,-6.1500,-9.1500,9.7636,0.3065,0.0958,-0.8631,0.3096,-0.0059,-99.9000,-10.8000,10.6500,-4.1200,-2.6900,-8.4400,-0.1222,-0.0447,0.0873,28.1875,-13.0625,41.8750,160.5625,-23.7500,162.2500,0
1776973481.519,9.5217,0.3184,0.8547,-0.2769,0.3280,0.4684,-85.0500,-6.1500,-9.1500,9.5050,0.1676,0.5339,-0.8985,0.2137,-0.0080,-99.9000,-10.8000,10.6500,-4.2400,-2.6300,-8.5200,-0.1265,-0.0491,0.0960,28.1875,-13.0625,41.8750,160.5625,-23.7500,162.2500,0
1776973481.525,9.5217,0.3184,0.8547,-0.2769,0.3280,0.4684,-84.4500,-7.5000,-8.2500,9.5050,0.1676,0.5339,-0.8985,0.2137,-0.0080,-99.9000,-10.8000,10.6500,-4.2900,-2.5300,-8.5400,-0.1222,-0.0469,0.0894,28.1875,-13.0625,41.8750,160.6250,-23.8125,162.3125,0
1776973481.530,9.4643,0.2035,0.8475,-0.3070,0.3371,0.4775,-84.4500,-7.5000,-8.2500,9.3182,0.1245,0.7757,-0.9726,0.2324,-0.0032,-98.5500,-10.8000,10.6500,-4.2900,-2.5300,-8.5400,-0.1222,-0.0469,0.0894,28.1875,-13.0625,41.8750,160.6250,-23.8125,162.3125,0
1776973481.535,9.4643,0.2035,0.8475,-0.3070,0.3371,0.4775,-84.4500,-7.5000,-8.2500,9.3182,0.1245,0.7757,-0.9726,0.2324,-0.0032,-98.5500,-12.9000,11.8500,-4.2600,-2.5600,-8.5100,-0.1113,-0.0415,0.0807,26.7500,-13.0625,41.0625,160.6250,-23.8125,162.3750,0
1776973481.540,9.4643,0.0144,0.9768,-0.3416,0.3501,0.4890,-85.8000,-5.4000,-8.1000,9.4116,0.1053,1.0702,-1.0651,0.2872,0.0008,-98.7000,-12.0000,10.2000,-4.2600,-2.5600,-8.5100,-0.1113,-0.0415,0.0807,26.7500,-13.0625,41.0625,160.6250,-23.8125,162.3750,0
1776973481.545,9.4643,0.0144,0.9768,-0.3416,0.3501,0.4890,-85.8000,-5.4000,-8.1000,9.4116,0.1053,1.0702,-1.0651,0.2872,0.0008,-98.7000,-12.0000,10.2000,-4.2600,-2.6000,-8.4500,-0.1004,-0.0371,0.0709,26.7500,-13.0625,41.0625,160.6250,-23.8750,162.4375,0
1776973481.550,9.5170,-0.0862,1.0247,-0.3698,0.3496,0.4791,-85.8000,-5.4000,-8.1000,9.5672,0.0790,1.3072,-1.1229,0.2627,0.0093,-98.4000,-14.2500,10.6500,-4.2600,-2.6000,-8.4500,-0.1004,-0.0371,0.0709,26.7500,-13.0625,41.0625,160.6250,-23.8750,162.4375,0
1776973481.555,9.5170,-0.0862,1.0247,-0.3698,0.3496,0.4791,-85.8000,-5.4000,-8.1000,9.5672,0.0790,1.3072,-1.1229,0.2627,0.0093,-98.4000,-14.2500,10.6500,-4.1700,-2.6400,-8.4600,-0.1014,-0.0295,0.0676,26.7500,-13.0625,41.0625,160.6875,-23.8750,162.5625,0
1776973481.560,9.5481,0.0694,1.1277,-0.3864,0.3659,0.4788,-84.7500,-8.7000,-7.9500,9.5193,0.1748,1.5897,-1.1008,0.2313,0.0144,-98.7000,-13.0500,10.9500,-4.1700,-2.6400,-8.4600,-0.1014,-0.0295,0.0676,26.7500,-13.0625,41.0625,160.6875,-23.9375,162.6250,0
1776973481.569,9.6917,0.2251,1.1756,-0.4133,0.3786,0.4834,-84.7500,-8.7000,-7.9500,9.4188,0.2921,1.9082,-1.0104,0.2443,0.0136,-98.7000,-13.0500,10.9500,-4.1800,-2.6200,-8.4800,-0.1004,-0.0305,0.0644,26.7500,-13.0625,41.0625,160.6875,-23.9375,162.6250,0
1776973481.573,9.6917,0.2251,1.1756,-0.4133,0.3786,0.4834,-84.7500,-8.7000,-7.9500,9.4188,0.2921,1.9082,-1.0104,0.2443,0.0136,-98.7000,-13.0500,10.9500,-4.1800,-2.6200,-8.4800,-0.0993,-0.0393,0.0654,26.7500,-13.0625,41.0625,160.7500,-23.9375,162.6875,0
1776973481.580,9.7899,0.1556,1.5658,-0.4221,0.3794,0.4887,-85.3500,-8.5500,-8.1000,9.5984,0.4118,2.0016,-0.9246,0.1935,0.0242,-97.6500,-12.7500,10.6500,-4.1800,-2.6300,-8.4200,-0.0993,-0.0393,0.0654,26.7500,-13.0625,41.0625,160.7500,-23.9375,162.6875,0
1776973481.584,9.7899,0.1556,1.5658,-0.4221,0.3794,0.4887,-85.3500,-8.5500,-8.1000,9.5984,0.4118,2.0016,-0.9246,0.1935,0.0242,-97.6500,-12.7500,10.6500,-4.1800,-2.6300,-8.4200,-0.0993,-0.0393,0.0654,27.0625,-13.5000,42.2500,160.8125,-24.0000,162.7500,0
1776973481.589,9.7013,-0.1053,1.4653,-0.4469,0.3480,0.4866,-85.5000,-9.4500,-7.9500,9.2177,0.7183,2.2051,-0.8148,0.1852,0.0301,-96.4500,-14.7000,9.3000,-4.0900,-2.7400,-8.4300,-0.0971,-0.0404,0.0687,27.0625,-13.5000,42.2500,160.8125,-24.0000,162.7500,0
1776973481.594,9.6414,-0.4501,1.4676,-0.4469,0.3480,0.4866,-85.5000,-9.4500,-7.9500,9.2177,0.7183,2.2051,-0.8148,0.1852,0.0301,-96.4500,-14.7000,9.3000,-4.0900,-2.7400,-8.4300,-0.0971,-0.0404,0.0687,27.0625,-13.5000,42.2500,160.8125,-24.0625,162.8125,0
1776973481.599,9.6414,-0.4501,1.4676,-0.4215,0.3400,0.4727,-83.1000,-6.9000,-6.9000,9.4188,0.8715,2.2410,-0.7887,0.2308,0.0392,-96.6000,-13.5000,8.8500,-4.1300,-2.7100,-8.4100,-0.1004,-0.0458,0.0774,27.0625,-13.5000,42.2500,160.8125,-24.0625,162.8125,0
1776973481.604,9.5577,-0.6871,1.3072,-0.4215,0.3400,0.4727,-83.1000,-6.9000,-6.9000,9.4188,0.8715,2.2410,-0.7887,0.2308,0.0392,-96.6000,-13.5000,8.8500,-4.1300,-2.7100,-8.4100,-0.1036,-0.0502,0.0862,27.0625,-13.5000,42.2500,160.8750,-24.1250,162.8750,0
1776973481.610,9.5577,-0.6871,1.3072,-0.4482,0.3496,0.4804,-85.2000,-9.1500,-7.5000,9.2512,0.7063,2.2003,-0.8060,0.2547,0.0709,-97.9500,-13.0500,8.5500,-4.1800,-2.6300,-8.4500,-0.1036,-0.0502,0.0862,27.0625,-13.5000,42.2500,160.8750,-24.1250,162.8750,0
1776973481.619,9.5816,-0.5100,1.4940,-0.4330,0.3589,0.4804,-85.2000,-9.1500,-7.5000,9.5960,0.7159,1.9656,-0.7975,0.2214,0.0970,-97.9500,-13.0500,8.5500,-4.2500,-2.5400,-8.5100,-0.1047,-0.0545,0.0894,27.0625,-13.5000,42.2500,160.8750,-24.1250,162.9375,0
1776973481.624,9.5720,-0.2610,1.5179,-0.4330,0.3589,0.4804,-85.2000,-9.1500,-7.5000,9.5960,0.7159,1.9656,-0.7975,0.2214,0.0970,-97.9500,-13.0500,8.5500,-4.2500,-2.5400,-8.5100,-0.1014,-0.0567,0.0862,27.0625,-13.5000,42.2500,160.9375,-24.1875,163.0625,0
1776973481.630,9.5720,-0.2610,1.5179,-0.4090,0.3565,0.4815,-84.7500,-8.7000,-7.5000,9.3948,0.7111,1.7621,-0.7925,0.2481,0.1348,-97.9500,-13.0500,8.5500,-4.3100,-2.4300,-8.5600,-0.1014,-0.0567,0.0862,27.0625,-13.5000,42.2500,160.9375,-24.1875,163.0625,0
1776973481.635,9.5026,-0.0024,1.1899,-0.3877,0.3722,0.4940,-84.7500,-8.7000,-7.5000,9.3948,0.7111,1.7621,-0.7706,0.2268,0.1631,-97.9500,-13.0500,8.5500,-4.3100,-2.4300,-8.5600,-0.0905,-0.0556,0.0731,27.8750,-14.1875,41.5000,160.9375,-24.2500,163.1250,0
1776973481.640,9.5026,-0.0024,1.1899,-0.3877,0.3722,0.4940,-84.7500,-8.7000,-7.5000,9.4355,0.7566,1.5634,-0.7706,0.2268,0.1631,-97.3500,-13.8000,11.4000,-4.3200,-2.4300,-8.5500,-0.0905,-0.0556,0.0731,27.8750,-14.1875,41.5000,160.9375,-24.2500,163.1250,0
1776973481.644,9.4739,0.1676,0.9457,-0.3656,0.3880,0.5004,-84.7500,-8.7000,-7.5000,9.3901,0.8523,1.4341,-0.7218,0.2284,0.1791,-97.3500,-13.8000,11.4000,-4.3200,-2.4300,-8.5500,-0.0709,-0.0545,0.0654,27.8750,-14.1875,41.5000,161.0000,-24.3125,163.1875,0
1776973481.650,9.4739,0.1676,0.9457,-0.3656,0.3880,0.5004,-85.0500,-9.3000,-6.6000,9.3901,0.8523,1.4341,-0.7218,0.2284,0.1791,-97.5000,-12.9000,10.8000,-4.3100,-2.5400,-8.5200,-0.0709,-0.0545,0.0654,27.8750,-14.1875,41.5000,161.0000,-24.3125,163.1875,0
1776973481.654,9.5768,0.0455,1.4030,-0.3277,0.3917,0.5081,-85.0500,-9.3000,-6.6000,9.5050,1.0726,1.3216,-0.6710,0.2635,0.1953,-97.5000,-12.9000,10.8000,-4.3100,-2.5400,-8.5200,-0.0578,-0.0556,0.0611,27.8750,-14.1875,41.5000,161.0000,-24.3750,163.1875,0
1776973481.660,9.5768,0.0455,1.4030,-0.3277,0.3917,0.5081,-85.8000,-8.5500,-8.1000,9.5050,1.0726,1.3216,-0.6710,0.2635,0.1953,-96.6000,-13.8000,10.2000,-4.1700,-2.5800,-8.4400,-0.0578,-0.0556,0.0611,27.8750,-14.1875,41.5000,161.0000,-24.3750,163.1875,0
1776973481.669,9.9359,-0.1460,1.3048,-0.3794,0.3738,0.4959,-84.4500,-9.4500,-7.2000,9.7803,1.1899,1.2139,-0.6297,0.2891,0.1881,-96.6000,-13.5000,9.9000,-4.0500,-2.7100,-8.3700,-0.0556,-0.0535,0.0578,27.8750,-14.1875,41.5000,161.0000,-24.3750,163.2500,0
1776973481.679,9.7683,-0.3903,1.0894,-0.4263,0.3850,0.4900,-85.2000,-10.3500,-7.5000,9.8138,1.1588,1.1277,-0.6081,0.3040,0.1857,-96.6000,-13.5000,9.9000,-3.9500,-2.8900,-8.3700,-0.0524,-0.0600,0.0665,27.8750,-14.1875,41.5000,161.0625,-24.4375,163.3125,0
1776973481.684,10.0724,-0.8499,1.5275,-0.4026,0.3989,0.5071,-85.2000,-10.3500,-7.5000,9.6750,1.1564,1.0774,-0.6283,0.2920,0.1927,-96.6000,-13.5000,9.9000,-3.9500,-2.8900,-8.3700,-0.0524,-0.0600,0.0665,27.8750,-14.1875,41.5000,161.0625,-24.4375,163.3125,0
1776973481.689,10.0724,-0.8499,1.5275,-0.4026,0.3989,0.5071,-84.6000,-11.2500,-6.9000,9.6750,1.1564,1.0774,-0.6283,0.2920,0.1927,-96.7500,-13.9500,10.0500,-4.2300,-2.4400,-8.5500,-0.0502,-0.0796,0.0862,27.5000,-14.1875,41.8750,161.1250,-24.5000,163.3125,0
1776973481.694,9.9288,-1.0080,1.5299,-0.4338,0.3970,0.5292,-84.6000,-11.2500,-6.9000,9.6726,1.0798,1.1444,-0.6797,0.3373,0.2001,-96.7500,-13.9500,10.0500,-4.2300,-2.4400,-8.5500,-0.0502,-0.0796,0.0862,27.5000,-14.1875,41.8750,161.1250,-24.5000,163.3125,0
1776973481.699,9.9288,-1.0080,1.5299,-0.4338,0.3970,0.5292,-85.8000,-10.9500,-6.6000,9.6726,1.0798,1.1444,-0.6797,0.3373,0.2001,-96.9000,-13.0500,12.0000,-4.3100,-2.3200,-8.6400,-0.0469,-0.0938,0.0960,27.5000,-14.1875,41.8750,161.1250,-24.5625,163.3750,0
1776973481.703,9.6941,-0.9888,1.5395,-0.4431,0.4133,0.5348,-85.8000,-10.9500,-6.6000,9.6127,0.8859,1.2258,-0.7229,0.3709,0.2308,-96.9000,-13.0500,12.0000,-4.3100,-2.3200,-8.6400,-0.0251,-0.0993,0.0916,27.5000,-14.1875,41.8750,161.1875,-24.6250,163.4375,0
1776973481.710,9.7707,-1.0223,1.8100,-0.4431,0.4133,0.5348,-85.8000,-10.9500,-6.6000,9.6127,0.8859,1.2258,-0.7229,0.3709,0.2308,-96.7500,-14.7000,10.5000,-4.4100,-2.2500,-8.6600,-0.0251,-0.0993,0.0916,27.5000,-14.1875,41.8750,161.2500,-24.6875,163.4375,0
1776973481.719,9.7755,-1.1205,1.6568,-0.5167,0.4064,0.5311,-84.1500,-12.0000,-7.3500,9.6486,0.7087,1.1947,-0.7546,0.3866,0.2606,-97.3500,-14.2500,10.9500,-4.4400,-2.0900,-8.6800,0.0022,-0.1036,0.0829,27.5000,-14.1875,41.8750,161.2500,-24.6875,163.4375,0
1776973481.729,9.6678,-1.0558,1.7789,-0.5249,0.4122,0.5300,-83.8500,-11.2500,-6.1500,9.4786,0.4597,1.2115,-0.7594,0.4040,0.2923,-97.3500,-14.2500,10.9500,-4.3600,-2.3900,-8.5900,0.0218,-0.0971,0.0633,27.5000,-14.1875,41.8750,161.2500,-24.7500,163.4375,0
1776973481.734,9.6678,-1.0558,1.7789,-0.5239,0.4223,0.5460,-83.8500,-11.2500,-6.1500,9.4858,0.2969,1.1540,-0.7424,0.4293,0.3304,-97.3500,-14.2500,10.9500,-4.3600,-2.3900,-8.5900,0.0218,-0.0971,0.0633,27.5000,-14.1875,41.8750,161.2500,-24.8125,163.3750,0
1776973481.739,9.5792,-0.4022,1.5730,-0.5239,0.4223,0.5460,-84.1500,-10.9500,-6.9000,9.4858,0.2969,1.1540,-0.7424,0.4293,0.3304,-97.3500,-14.2500,10.9500,-4.3600,-2.4200,-8.5600,0.0338,-0.0949,0.0600,28.5625,-13.7500,41.5000,161.2500,-24.8125,163.3750,0
1776973481.744,9.5792,-0.4022,1.5730,-0.5164,0.4333,0.5446,-84.1500,-10.9500,-6.9000,9.5002,0.2777,1.1420,-0.7565,0.4485,0.3571,-97.3500,-14.2500,10.9500,-4.3600,-2.4200,-8.5600,0.0338,-0.0949,0.0600,28.5625,-13.7500,41.5000,161.2500,-24.8750,163.3750,0
1776973481.749,9.4882,0.0407,1.3192,-0.5217,0.4405,0.5545,-83.2500,-12.3000,-6.4500,9.5002,0.2777,1.1420,-0.7565,0.4485,0.3571,-96.6000,-14.5500,10.9500,-4.3500,-2.4700,-8.5100,0.0469,-0.0971,0.0622,28.5625,-13.7500,41.5000,161.2500,-24.8750,163.3750,0
1776973481.754,9.4882,0.0407,1.3192,-0.5217,0.4405,0.5545,-83.2500,-12.3000,-6.4500,9.4619,0.4453,1.2234,-0.6840,0.3770,0.3653,-96.6000,-14.5500,10.9500,-4.3500,-2.4700,-8.5100,0.0556,-0.0993,0.0633,28.5625,-13.7500,41.5000,161.3125,-24.9375,163.3750,0
1776973481.760,9.6845,0.1891,1.3527,-0.5332,0.4551,0.5806,-84.6000,-12.4500,-5.8500,9.4619,0.4453,1.2234,-0.6840,0.3770,0.3653,-96.9000,-14.2500,11.7000,-4.3300,-2.5000,-8.5500,0.0556,-0.0993,0.0633,28.5625,-13.7500,41.5000,161.3125,-24.9375,163.3750,0
1776973481.768,9.6127,0.2993,1.1612,-0.5329,0.4655,0.6009,-83.2500,-13.0500,-5.2500,9.6774,0.7518,1.2354,-0.6161,0.3632,0.3568,-96.7500,-14.4000,12.1500,-4.3300,-2.5700,-8.5200,0.0676,-0.1036,0.0687,28.5625,-13.7500,41.5000,161.3750,-25.0625,163.3125,0
1776973481.773,9.6127,0.2993,1.1612,-0.5329,0.4655,0.6009,-83.2500,-13.0500,-5.2500,9.6055,1.1732,1.4246,-0.5582,0.3451,0.3312,-96.7500,-14.4000,12.1500,-4.3300,-2.5700,-8.5200,0.0742,-0.1004,0.0698,28.5625,-13.7500,41.5000,161.3750,-25.1250,163.3125,0
1776973481.780,9.7037,0.1652,1.6161,-0.5670,0.4922,0.6360,-83.2500,-13.0500,-5.2500,9.5289,1.5107,1.5251,-0.5388,0.3179,0.3088,-96.6000,-15.7500,10.9500,-4.2400,-2.7000,-8.5000,0.0742,-0.1004,0.0698,28.5625,-13.7500,41.5000,161.3750,-25.1250,163.3125,0
1776973481.785,9.7037,0.1652,1.6161,-0.5670,0.4922,0.6360,-83.2500,-13.0500,-5.2500,9.5289,1.5107,1.5251,-0.5388,0.3179,0.3088,-96.6000,-15.7500,10.9500,-4.2400,-2.7000,-8.5000,0.0742,-0.1004,0.0698,28.5625,-13.7500,41.5000,161.4375,-25.1875,163.2500,0
1776973481.790,9.8234,-0.0622,1.6664,-0.4791,0.5129,0.6704,-84.1500,-11.7000,-6.1500,9.5433,1.7741,1.7813,-0.5702,0.3040,0.2851,-96.6000,-15.7500,10.9500,-4.2100,-2.6700,-8.5200,0.0753,-0.1102,0.0753,27.8750,-13.7500,41.8750,161.4375,-25.1875,163.2500,0
1776973481.795,9.8234,-0.0622,1.6664,-0.4791,0.5129,0.6704,-84.1500,-11.7000,-6.1500,9.5433,1.7741,1.7813,-0.5702,0.3040,0.2851,-96.6000,-15.7500,10.9500,-4.2100,-2.6700,-8.5200,0.0753,-0.1102,0.0753,27.8750,-13.7500,41.8750,161.5000,-25.2500,163.2500,0
1776973481.800,9.9168,-0.0527,1.8196,-0.3866,0.5249,0.7043,-84.1500,-11.7000,-6.1500,9.5026,1.8938,1.9752,-0.6667,0.3179,0.2814,-96.0000,-15.9000,12.1500,-4.3200,-2.4500,-8.6200,0.0654,-0.1244,0.0785,27.8750,-13.7500,41.8750,161.5000,-25.2500,163.2500,0
1776973481.805,9.9168,-0.0527,1.8196,-0.3866,0.5249,0.7043,-84.1500,-11.7000,-6.1500,9.5026,1.8938,1.9752,-0.6667,0.3179,0.2814,-96.0000,-15.9000,12.1500,-4.3200,-2.4500,-8.6200,0.0654,-0.1418,0.0840,27.8750,-13.7500,41.8750,161.5625,-25.3750,163.2500,0
1776973481.810,9.7755,0.2011,1.7717,-0.3768,0.5169,0.7458,-83.1000,-13.2000,-5.5500,9.4643,1.9345,2.1500,-0.7309,0.2625,0.2867,-95.4000,-15.0000,12.4500,-4.3800,-2.3300,-8.7000,0.0654,-0.1418,0.0840,27.8750,-13.7500,41.8750,161.5625,-25.3750,163.2500,0
1776973481.819,10.0580,-0.1700,1.4964,-0.3421,0.5249,0.7882,-83.7000,-14.5500,-4.5000,10.2352,1.8627,2.0806,-0.7554,0.3746,0.2806,-96.1500,-16.0500,13.0500,-4.5400,-2.3900,-8.5700,0.1025,-0.1680,0.1004,27.8750,-13.7500,41.8750,161.5625,-25.4375,163.1875,0
1776973481.829,10.0940,-0.6249,1.1325,-0.3507,0.5012,0.8388,-82.6500,-15.9000,-3.6000,9.6822,1.7310,2.2745,-0.7059,0.2108,0.2710,-95.1000,-15.3000,12.7500,-3.5900,-2.0000,-9.5300,0.1516,-0.1898,0.1178,27.8750,-13.7500,41.8750,161.6875,-25.5625,163.1250,0
1776973481.834,10.0940,-0.6249,1.1325,-0.3507,0.5012,0.8388,-82.6500,-15.9000,-3.6000,9.6822,1.7310,2.2745,-0.7059,0.2108,0.2710,-95.1000,-15.3000,12.7500,-3.5900,-2.0000,-9.5300,0.1516,-0.1898,0.1178,27.8750,-13.7500,41.8750,161.6875,-25.7500,163.0625,0
1776973481.839,9.7492,-0.7614,1.3001,-0.2822,0.5612,0.8961,-83.2500,-16.5000,-4.9500,9.8210,1.4150,2.3439,-0.6011,0.3019,0.2470,-95.7000,-16.9500,13.9500,-4.5700,-2.5300,-8.5000,0.1451,-0.2574,0.0905,28.1875,-13.5000,40.2500,161.6875,-25.7500,163.0625,0
1776973481.844,9.9407,-0.5555,1.6257,-0.2822,0.5612,0.8961,-83.2500,-16.5000,-4.9500,9.8210,1.4150,2.3439,-0.6011,0.3019,0.2470,-95.7000,-16.9500,13.9500,-4.5700,-2.5300,-8.5000,0.1451,-0.2574,0.0905,28.1875,-13.5000,40.2500,161.6875,-25.7500,163.0625,0
1776973481.849,9.9407,-0.5555,1.6257,-0.2390,0.5718,0.9017,-82.6500,-16.3500,-6.1500,10.1370,0.9649,2.2146,-0.4844,0.2553,0.2204,-95.7000,-16.9500,13.9500,-4.0800,-2.4900,-8.8400,0.1767,-0.3283,0.0884,28.1875,-13.5000,40.2500,161.7500,-25.9375,162.9375,0
1776973481.854,10.1442,-0.8763,1.5826,-0.2390,0.5718,0.9017,-82.6500,-16.3500,-6.1500,10.1370,0.9649,2.2146,-0.4844,0.2553,0.2204,-95.7000,-16.9500,13.9500,-4.0800,-2.4900,-8.8400,0.1953,-0.3720,0.0949,28.1875,-13.5000,40.2500,161.7500,-26.1250,162.8125,0
1776973481.860,10.1442,-0.8763,1.5826,-0.2358,0.5990,0.9294,-81.7500,-17.4000,-4.2000,10.1610,0.8236,2.0686,-0.3936,0.2880,0.1844,-95.8500,-17.2500,12.7500,-4.1000,-2.3800,-9.1000,0.1953,-0.3720,0.0949,28.1875,-13.5000,40.2500,161.8125,-26.3750,162.6875,0
1776973481.869,10.4028,-0.7638,1.5083,-0.2230,0.6118,0.9577,-81.7500,-17.4000,-4.2000,10.6925,0.5866,1.7166,-0.3746,0.2753,0.1338,-96.4500,-16.9500,12.9000,-4.0000,-2.7600,-9.0500,0.2291,-0.4538,0.1102,28.1875,-13.5000,40.2500,161.8125,-26.3750,162.6875,0
1776973481.879,10.2663,-0.7518,1.4533,-0.3003,0.6246,0.9824,-80.5500,-16.9500,-2.4000,10.6925,0.6488,1.3384,-0.3541,0.2691,0.0690,-96.0000,-17.4000,13.6500,-4.1300,-2.7700,-8.9200,0.2422,-0.5760,0.1331,28.1875,-13.5000,40.2500,161.8750,-26.7500,162.5625,0
1776973481.884,10.1634,-0.5986,1.3312,-0.3323,0.6520,1.0229,-80.5500,-16.9500,-2.4000,10.6925,0.6488,1.3384,-0.3541,0.2691,0.0690,-96.1500,-18.0000,13.5000,-4.1300,-2.7700,-8.9200,0.2422,-0.5760,0.1331,28.1875,-13.5000,40.2500,161.8750,-26.7500,162.5625,0
1776973481.889,10.1634,-0.5986,1.3312,-0.3323,0.6520,1.0229,-82.6500,-18.7500,-2.4000,10.5105,0.6680,0.9888,-0.3355,0.2310,-0.0072,-96.1500,-18.0000,13.5000,-4.1100,-2.9200,-8.9400,0.2793,-0.6556,0.1560,28.5625,-13.5000,41.8750,161.9375,-27.0625,162.3750,0
1776973481.894,10.1825,-0.2801,1.0942,-0.3539,0.6811,1.0744,-82.6500,-18.7500,-3.3000,10.5105,0.6680,0.9888,-0.3355,0.2310,-0.0072,-96.1500,-18.0000,13.5000,-4.1100,-2.9200,-8.9400,0.2793,-0.6556,0.1560,28.5625,-13.5000,41.8750,161.9375,-27.0625,162.3750,0
1776973481.899,10.1825,-0.2801,1.0942,-0.3539,0.6811,1.0744,-81.7500,-18.9000,-2.4000,10.5177,0.8571,0.5722,-0.3848,0.1756,-0.0640,-96.1500,-18.0000,13.5000,-4.1200,-2.9500,-9.0400,0.2989,-0.7309,0.1745,28.5625,-13.5000,41.8750,162.0625,-27.5000,162.1875,0
1776973481.904,10.3477,0.1317,0.9433,-0.3176,0.7013,1.1199,-81.7500,-18.9000,-2.4000,10.5177,0.8571,0.5722,-0.3848,0.1756,-0.0640,-95.4000,-18.0000,12.4500,-4.1200,-2.9500,-9.0400,0.2793,-0.8388,0.2029,28.5625,-13.5000,41.8750,162.1250,-28.0000,162.0000,0
1776973481.910,10.3477,0.1317,0.9433,-0.3176,0.7013,1.1199,-80.5500,-20.1000,-4.2000,10.3573,0.9720,0.3160,-0.5057,0.2353,-0.1212,-95.4000,-18.0000,12.4500,-4.0400,-2.8800,-9.1100,0.2793,-0.8388,0.2029,28.5625,-13.5000,41.8750,162.1875,-28.5625,161.8750,0
1776973481.920,10.5249,0.4621,1.0008,-0.2372,0.7229,1.1783,-81.6000,-19.0500,-2.8500,11.0756,1.4150,0.1413,-0.5478,0.0570,-0.1756,-97.0500,-17.4000,11.5500,-4.1100,-2.8600,-9.0900,0.2367,-0.9927,0.2476,28.5625,-13.5000,41.8750,162.3125,-29.2500,161.7500,0
1776973481.930,11.1929,0.6345,0.4286,-0.1250,0.7634,1.2335,-80.4000,-19.9500,-2.1000,11.1737,1.9968,0.1269,-0.6131,0.0301,-0.2545,-95.7000,-18.4500,12.6000,-3.9100,-3.0600,-9.7000,0.1931,-1.1803,0.3022,28.5625,-13.5000,41.8750,162.3125,-29.2500,161.7500,0
1776973481.935,11.3749,0.1556,0.3903,-0.0440,0.8271,1.2921,-80.4000,-19.9500,-2.1000,11.1737,1.9968,0.1269,-0.7525,-0.0813,-0.3373,-96.4500,-18.4500,13.3500,-3.9100,-3.0600,-9.7000,0.1931,-1.1803,0.3022,28.5625,-13.5000,41.8750,162.3125,-29.2500,161.7500,0
1776973481.940,11.3749,0.1556,0.3903,-0.0440,0.8271,1.2921,-80.4000,-19.9500,-2.1000,11.2216,2.3918,0.1580,-0.7525,-0.0813,-0.3373,-96.4500,-18.4500,13.3500,-4.0800,-3.0000,-9.4800,0.1364,-1.3821,0.3785,30.0625,-13.5000,41.0625,162.4375,-30.0000,161.6250,0
1776973481.945,11.5808,-0.0742,0.0742,0.0187,0.8969,1.3499,-80.4000,-19.9500,-2.1000,10.9056,2.8730,0.3304,-0.7264,-0.1031,-0.4335,-94.5000,-16.9500,11.5500,-4.0800,-3.0000,-9.4800,0.1364,-1.3821,0.3785,30.0625,-13.5000,41.0625,162.4375,-30.0000,161.6250,0
1776973481.950,11.8250,-0.2442,-0.0096,0.0187,0.8969,1.3499,-78.4500,-21.4500,-1.0500,10.9056,2.8730,0.3304,-0.7264,-0.1031,-0.4335,-94.5000,-16.9500,11.5500,-4.1000,-3.1600,-9.5100,0.1025,-1.5970,0.4625,30.0625,-13.5000,41.0625,162.5625,-30.9375,161.5625,0
1776973481.954,11.8250,-0.2442,-0.0096,-0.0053,0.9601,1.4053,-78.4500,-21.4500,-1.0500,11.4299,3.2154,0.2969,-0.6944,-0.2273,-0.5436,-94.5000,-16.9500,11.5500,-4.1000,-3.1600,-9.5100,0.1429,-1.7933,0.5738,30.0625,-13.5000,41.0625,162.7500,-32.0000,161.5000,0
1776973481.960,11.9016,-0.6704,-0.5195,-0.0922,1.0136,1.4490,-78.4500,-21.4500,-1.0500,11.4299,3.2154,0.2969,-0.6944,-0.2273,-0.5436,-94.5000,-16.9500,11.5500,-3.9800,-2.7500,-9.8100,0.1429,-1.7933,0.5738,30.0625,-13.5000,41.0625,163.0000,-33.1875,161.3750,0
1776973481.970,11.9997,-1.0463,-0.6871,-0.1721,1.0834,1.4890,-78.7500,-22.5000,-1.0500,11.5424,3.1939,0.3232,-0.6662,-0.3709,-0.6771,-96.7500,-16.6500,11.8500,-3.7600,-3.5200,-9.7300,0.2214,-1.9984,0.6992,30.0625,-13.5000,41.0625,163.0000,-33.1875,161.3750,0
1776973481.980,12.1817,-1.5897,-0.8021,-0.2891,1.1498,1.5191,-78.7500,-22.5000,0.1500,11.4060,3.0526,0.0910,-0.6222,-0.4306,-0.8194,-98.4000,-17.2500,10.9500,-3.9800,-3.4400,-9.6000,0.2596,-2.2078,0.8563,30.0625,-13.5000,41.0625,163.3750,-34.5000,161.2500,0
1776973481.985,12.1817,-1.5897,-0.8021,-0.2891,1.1498,1.5191,-78.4500,-22.9500,0.3000,11.7053,3.0598,-0.4022,-0.5260,-0.5566,-0.9422,-97.9500,-16.8000,9.6000,-3.9800,-3.4400,-9.6000,0.2596,-2.2078,0.8563,30.0625,-13.5000,41.0625,163.7500,-35.9375,161.1875,0
1776973481.990,12.5384,-1.9848,-0.4741,-0.4349,1.2137,1.5428,-78.0000,-24.7500,0.3000,11.7053,3.0598,-0.4022,-0.5260,-0.5566,-0.9422,-97.9500,-16.8000,9.6000,-4.0000,-3.6900,-9.5600,0.2225,-2.4696,1.0221,31.8750,-13.5000,39.0625,163.7500,-35.9375,161.1875,0
1776973481.995,12.5384,-1.9848,-0.4741,-0.4349,1.2137,1.5428,-78.0000,-24.7500,1.2000,11.2623,2.7677,-1.1301,-0.3722,-0.7887,-1.0371,-100.0500,-16.2000,10.0500,-4.0000,-3.6900,-9.5600,0.2225,-2.4696,1.0221,31.8750,-13.5000,39.0625,164.2500,-37.6250,161.1875,0
1776973482.000,12.8353,-1.4222,-0.9840,-0.5812,1.2620,1.5980,-78.0000,-24.7500,1.2000,11.2623,2.7677,-1.1301,-0.3722,-0.7887,-1.0371,-100.0500,-16.2000,10.0500,-4.1200,-3.2000,-9.5300,0.2007,-2.7456,1.2228,31.8750,-13.5000,39.0625,164.2500,-37.6250,161.1875,0
1776973482.005,12.8353,-1.4222,-0.9840,-0.5812,1.2620,1.5980,-76.9500,-24.6000,1.0500,10.4339,2.6360,-2.1548,-0.2033,-1.0389,-1.0984,-100.0500,-16.2000,10.0500,-4.1200,-3.2000,-9.5300,0.1942,-3.0543,1.4279,31.8750,-13.5000,39.0625,164.8125,-39.5000,161.2500,0
1776973482.010,13.3453,-1.3695,-1.8938,-0.8759,1.3057,1.6465,-77.7000,-27.0000,-0.6000,10.4339,2.6360,-2.1548,-0.2033,-1.0389,-1.0984,-100.0500,-16.2000,10.0500,-4.5500,-3.0500,-9.6600,0.1942,-3.0543,1.4279,31.8750,-13.5000,39.0625,165.5000,-41.5625,161.3750,0
1776973482.020,13.2375,-1.4724,-1.1349,-1.1229,1.3432,1.6441,-77.7000,-27.0000,-0.6000,9.8354,2.4565,-1.0582,0.1439,-1.1263,-1.1503,-100.2000,-14.2500,8.8500,-4.5700,-3.6900,-9.6800,0.2334,-3.3728,1.6395,31.8750,-13.5000,39.0625,165.5000,-41.5625,161.3750,0
1776973482.030,12.2392,-1.6472,-0.3687,-1.2875,1.3915,1.6228,-76.5000,-28.3500,0.1500,9.7827,2.1907,-0.2370,0.4445,-1.1253,-1.2825,-100.9500,-16.0500,7.8000,-6.4400,-4.3300,-9.9200,0.2378,-3.7306,1.8217,31.8750,-13.5000,39.0625,202.8125,-43.8125,161.5000,0
1776973482.035,12.2392,-1.6472,-0.3687,-1.2875,1.3915,1.6228,-76.5000,-28.3500,0.1500,9.8258,1.2139,-1.8579,0.4298,-1.3360,-1.3544,-102.7500,-15.3000,6.7500,-6.4400,-4.3300,-9.9200,0.2378,-3.7306,1.8217,31.8750,-13.5000,39.0625,200.4375,-46.3750,161.6875,0
1776973482.040,11.3820,-1.6041,1.2210,-1.3043,1.4469,1.6129,-76.5000,-28.3500,0.1500,9.8258,1.2139,-1.8579,0.4298,-1.3360,-1.3544,-102.7500,-15.3000,6.7500,-7.2400,-3.6100,-9.6100,0.2476,-4.1321,2.0159,36.0000,-13.7500,34.7500,200.4375,-46.3750,161.6875,0
1776973482.045,11.3820,-1.6041,1.2210,-1.3043,1.4469,1.6129,-75.3000,-29.8500,2.4000,9.4643,0.5507,-1.4365,0.6222,-1.4674,-1.3702,-98.8500,-13.2000,6.4500,-7.2400,-3.6100,-9.6100,0.2476,-4.1321,2.0159,36.0000,-13.7500,34.7500,200.4375,-46.3750,161.6875,0
1776973482.050,11.0061,-1.1157,2.1596,-1.2846,1.5455,1.6300,-75.3000,-29.8500,2.4000,9.4643,0.5507,-1.4365,0.6222,-1.4674,-1.3702,-98.8500,-13.2000,6.4500,-9.5400,-2.7800,-10.3100,0.3392,-4.4909,2.1751,36.0000,-13.7500,34.7500,198.1875,-49.0625,161.9375,0
1776973482.055,11.0061,-1.1157,2.1596,-1.2846,1.5455,1.6300,-74.4000,-29.7000,2.1000,10.2328,0.2514,-1.1564,0.5468,-1.5303,-1.3851,-103.5000,-11.5500,4.9500,-9.5400,-2.7800,-10.3100,0.6458,-4.7877,2.2177,36.0000,-13.7500,34.7500,196.3125,-52.0000,162.0000,0
1776973482.061,11.0181,-0.7446,2.1811,-1.2596,1.5569,1.6438,-73.6500,-29.7000,2.5500,10.9990,0.1604,-0.9505,0.1324,-1.7717,-1.4186,-103.5000,-11.5500,4.9500,-10.1400,-2.9600,-10.4000,0.6458,-4.7877,2.2177,36.0000,-13.7500,34.7500,195.0625,-54.9375,161.7500,0
1776973482.070,10.5297,-0.9242,3.0167,-1.1221,1.6044,1.5769,-73.6500,-29.7000,2.5500,10.9990,0.1604,-0.9505,-0.1370,-1.8194,-1.4850,-103.5000,-11.5500,4.9500,-10.4600,-3.6500,-10.0800,1.0974,-4.9393,2.1631,36.0000,-13.7500,34.7500,195.0625,-54.9375,161.7500,0
1776973482.080,9.7396,-1.7957,4.0701,-0.9318,1.6433,1.4946,-73.2000,-30.4500,1.8000,11.3389,-0.1676,-0.0551,-0.2638,-1.7874,-1.5362,-101.8500,-12.9000,2.5500,-11.8200,-4.2100,-10.1300,1.5173,-4.9764,2.1184,36.0000,-13.7500,34.7500,194.3750,-57.9375,161.3125,0
1776973482.085,9.0956,-2.9473,4.3934,-0.9318,1.6433,1.4946,-73.0500,-30.6000,3.0000,11.2575,-0.7925,0.9577,-0.2638,-1.7874,-1.5362,-99.9000,-12.0000,2.8500,-11.8200,-4.2100,-10.1300,1.5173,-4.9764,2.1184,36.0000,-13.7500,34.7500,194.3750,-57.9375,161.3125,0
1776973482.090,9.0956,-2.9473,4.3934,-0.6590,1.6667,1.4093,-73.0500,-30.6000,3.0000,11.2958,-1.2210,1.7765,-0.3309,-1.6739,-1.5516,-99.9000,-12.0000,2.8500,-12.2400,-4.4400,-10.3300,1.8795,-4.8738,2.0715,42.1875,-16.0000,29.6875,194.0625,-60.8750,160.6250,0
1776973482.095,8.8514,-4.3455,4.2138,-0.6590,1.6667,1.4093,-72.4500,-31.6500,3.6000,11.2958,-1.2210,1.7765,-0.3309,-1.6739,-1.5516,-100.2000,-10.5000,2.1000,-12.2400,-4.4400,-10.3300,1.8795,-4.8738,2.0715,42.1875,-16.0000,29.6875,194.0625,-60.8750,160.6250,0
1776973482.100,8.8514,-4.3455,4.2138,-0.5841,1.7224,1.2849,-72.4500,-31.6500,3.6000,11.2025,-1.8914,1.8172,-0.5468,-1.5140,-1.5148,-100.2000,-10.5000,2.1000,-8.9800,-4.5100,-8.7500,2.1369,-4.5586,2.1108,42.1875,-16.0000,29.6875,194.0625,-63.6875,159.8750,0
1776973482.105,8.5042,-6.2848,4.1994,-0.5351,1.7243,1.1421,-72.4500,-31.6500,3.6000,11.2025,-1.8914,1.8172,-0.5468,-1.5140,-1.5148,-101.4000,-9.9000,0.4500,-8.9800,-4.5100,-8.7500,2.2602,-4.2641,2.1980,42.1875,-16.0000,29.6875,194.1250,-66.3125,159.3125,0
1776973482.111,8.5042,-6.2848,4.1994,-0.5351,1.7243,1.1421,-72.4500,-31.6500,3.6000,11.1929,-1.9776,2.2338,-0.8649,-1.3139,-1.4583,-101.4000,-9.9000,0.4500,-7.4000,-4.3800,-8.4900,2.2602,-4.2641,2.1980,42.1875,-16.0000,29.6875,194.3125,-68.8125,159.0000,0
1776973482.120,8.1307,-7.2592,4.9536,-0.3882,1.7296,0.9739,-71.7000,-34.8000,4.3500,11.3868,-1.9776,2.9497,-1.1783,-1.0802,-1.4189,-101.4000,-9.9000,0.4500,-5.3000,-4.2800,-7.8600,2.4500,-3.9728,2.3507,42.1875,-16.0000,29.6875,194.3125,-68.8125,159.0000,0
1776973482.130,7.4172,-6.9767,5.5881,-0.3515,1.5473,0.7682,-71.7000,-34.8000,4.3500,11.0445,-1.8052,2.9521,-1.3414,-0.8639,-1.4003,-101.1000,-9.9000,0.7500,-3.2900,-3.6600,-6.1100,2.6682,-3.7176,2.5405,42.1875,-16.0000,29.6875,194.6250,-71.2500,159.1250,0
1776973482.135,6.4835,-6.4236,5.3486,-0.5644,1.3582,0.5436,-70.8000,-34.2000,3.7500,11.0445,-1.8052,2.9521,-1.3414,-0.8639,-1.4003,-101.4000,-8.7000,-1.2000,-3.2900,-3.6600,-6.1100,2.6682,-3.7176,2.5405,42.1875,-16.0000,29.6875,194.8125,-73.6875,159.8750,0
1776973482.140,6.4835,-6.4236,5.3486,-0.5644,1.3582,0.5436,-70.8000,-34.2000,3.7500,11.2288,-1.6879,2.4181,-1.4639,-0.9129,-1.3515,-100.8000,-7.2000,-0.7500,-0.7800,-3.6400,-4.3000,2.7489,-3.6292,2.7303,45.7500,-17.3750,21.0625,194.8125,-73.6875,159.8750,0
1776973482.145,6.4931,-6.6679,5.8562,-0.6757,1.0848,0.3216,-70.8000,-34.9500,4.9500,11.2288,-1.6879,2.4181,-1.4639,-0.9129,-1.3515,-100.8000,-7.2000,-0.7500,-0.7800,-3.6400,-4.3000,2.7489,-3.6292,2.7303,45.7500,-17.3750,21.0625,194.8125,-73.6875,159.8750,0
1776973482.150,6.4931,-6.6679,5.8562,-0.6757,1.0848,0.3216,-70.8000,-34.9500,4.9500,11.1522,-0.9409,2.1596,-1.3494,-0.9792,-1.3416,-100.9500,-6.7500,-1.3500,-5.0800,-1.7300,-5.6800,2.6147,-3.5114,2.9114,45.7500,-17.3750,21.0625,194.8125,-76.0625,161.6875,0
1776973482.155,5.1978,-6.6391,7.4891,-0.3898,0.7576,0.1575,-69.6000,-34.2000,5.7000,11.1522,-0.9409,2.1596,-1.3494,-0.9792,-1.3416,-100.9500,-6.7500,-1.3500,-5.0800,-1.7300,-5.6800,2.3660,-2.6289,2.7653,45.7500,-17.3750,21.0625,194.8125,-77.8750,164.9375,0
1776973482.161,5.1978,-6.6391,7.4891,-0.3898,0.7576,0.1575,-69.6000,-34.2000,5.7000,10.6997,-0.3304,1.6496,-1.1474,-1.0288,-1.2979,-102.7500,-5.2500,-3.1500,-9.0300,-10.6600,-12.4600,2.3660,-2.6289,2.7653,45.7500,-17.3750,21.0625,195.3125,-78.3125,168.6250,0
1776973482.170,4.3790,-5.1643,8.4084,-0.3075,0.6987,-0.0277,-69.7500,-33.1500,4.3500,10.7691,0.6823,1.0918,-0.9702,-0.9196,-1.2857,-102.7500,-5.2500,-3.1500,-5.8700,-11.2900,-11.5800,2.3595,-0.3033,2.0137,45.7500,-17.3750,21.0625,195.3125,-78.3125,168.6250,0
1776973482.180,5.2265,-1.8675,3.4668,-0.6137,0.3230,-0.3651,-70.5000,-34.0500,5.1000,10.8074,1.5850,1.1851,-0.8583,-0.9537,-1.2966,-101.8500,-2.4000,-1.9500,-2.9700,-12.1600,-8.1700,1.9068,1.4454,1.1606,45.7500,-17.3750,21.0625,196.0000,-77.6250,171.1875,0
1776973482.185,5.2265,-1.8675,3.4668,-1.2153,-0.0589,-0.8058,-69.6000,-34.2000,3.7500,10.8074,1.5850,1.1851,-0.8583,-0.9537,-1.2966,-101.8500,-2.4000,-1.9500,-2.9700,-12.1600,-8.1700,1.9068,1.4454,1.1606,45.7500,-17.3750,21.0625,196.3750,-76.4375,172.8750,0
1776973482.190,5.1643,-1.6664,2.6264,-1.2153,-0.0589,-0.8058,-69.6000,-34.2000,3.7500,10.4148,2.4110,1.0702,-0.8735,-0.9305,-1.3099,-101.7000,-1.5000,0.0000,0.3500,-10.9300,-5.9400,1.0319,2.2558,0.6240,48.2500,-20.3750,17.5625,196.3750,-76.4375,172.8750,0
1776973482.195,5.1643,-1.6664,2.6264,-1.4906,-0.3150,-1.1692,-69.6000,-34.2000,3.7500,10.4148,2.4110,1.0702,-0.8735,-0.9305,-1.3099,-101.7000,-1.5000,0.0000,0.3500,-10.9300,-5.9400,1.0319,2.2558,0.6240,48.2500,-20.3750,17.5625,196.2500,-75.0625,174.2500,0
1776973482.200,5.2074,-2.3343,2.4612,-1.4906,-0.3150,-1.1692,-69.6000,-34.2000,3.7500,9.9383,2.9449,0.9313,-0.7280,-0.8412,-1.2918,-103.8000,0.0000,-3.1500,-0.1500,-5.8800,-5.4900,0.0425,2.4969,0.3622,48.2500,-20.3750,17.5625,196.2500,-75.0625,174.2500,0
1776973482.207,5.2074,-2.3343,2.4612,-1.1991,-0.4636,-1.4349,-70.9500,-33.1500,3.6000,9.8809,2.2721,0.5004,-0.6811,-0.6829,-1.2201,-103.8000,0.0000,-3.1500,-0.2800,-4.0800,-5.3500,-0.6381,2.4904,0.0818,48.2500,-20.3750,17.5625,195.8125,-73.6875,175.2500,0
1776973482.212,5.2601,-3.0885,2.0375,-0.7879,-0.5870,-1.6137,-70.9500,-33.1500,3.6000,9.8809,2.2721,0.5004,-0.6811,-0.6829,-1.2201,-102.6000,0.9000,-1.9500,-0.2800,-4.0800,-5.3500,-0.6381,2.4904,0.0818,48.2500,-20.3750,17.5625,195.4375,-72.3125,175.3750,0
1776973482.220,5.6790,-3.9002,2.3679,-0.4698,-0.6336,-1.7232,-71.8500,-32.5500,2.7000,9.7659,2.2003,0.6608,-0.7568,-0.9758,-1.0914,-102.6000,0.9000,-1.9500,0.1700,-3.1100,-4.9800,-0.8138,2.5187,-0.3818,48.2500,-20.3750,17.5625,195.4375,-72.3125,175.3750,0
1776973482.230,6.2968,-3.1963,3.1843,-0.1596,-0.8228,-1.7680,-72.4500,-31.9500,1.3500,9.3541,3.4668,3.0981,0.1908,-0.7389,-1.0936,-103.8000,1.8000,-1.6500,0.8000,-2.1400,-4.5700,-0.6665,2.5351,-0.9119,48.2500,-20.3750,17.5625,195.5000,-70.8750,174.5625,0
1776973482.235,6.2968,-3.1963,3.1843,-0.1596,-0.8228,-1.7680,-72.6000,-33.4500,2.7000,9.0477,3.6847,2.1787,0.3656,-0.5780,-1.0856,-103.8000,1.8000,-1.6500,0.8000,-2.1400,-4.5700,-0.6665,2.5351,-0.9119,48.2500,-20.3750,17.5625,195.5000,-70.8750,174.5625,0
1776973482.240,6.5960,-2.6911,2.2625,-0.2555,-0.9678,-1.8556,-72.6000,-33.4500,2.7000,9.0477,3.6847,2.1787,0.3656,-0.5780,-1.0856,-104.2500,3.7500,-1.3500,0.5700,-1.5900,-4.6500,-0.4069,2.4882,-1.3963,47.3750,-21.0625,22.7500,196.0625,-69.3750,173.0625,0
1776973482.245,6.5960,-2.6911,2.2625,-0.2555,-0.9678,-1.8556,-73.9500,-30.9000,0.6000,8.7029,3.4213,1.6520,0.4620,-0.5481,-1.0496,-104.2500,3.7500,-1.3500,0.5700,-1.5900,-4.6500,-0.4069,2.4882,-1.3963,47.3750,-21.0625,22.7500,196.0625,-69.3750,173.0625,0
1776973482.250,6.5481,-2.3463,1.7597,-0.1879,-1.1418,-1.9748,-73.9500,-30.9000,0.6000,8.7029,3.4213,1.6520,0.4620,-0.5481,-1.0496,-104.2500,4.5000,-1.0500,-0.2100,-1.4300,-5.1800,-0.1200,2.3736,-1.7682,47.3750,-21.0625,22.7500,197.0000,-67.9375,171.1250,0
1776973482.255,6.5481,-2.3463,1.7597,-0.1879,-1.1418,-1.9748,-75.9000,-31.2000,0.6000,8.5497,4.0079,1.5347,0.6568,-0.4692,-0.9952,-104.2500,4.5000,-1.0500,-0.2100,-1.4300,-5.1800,0.1767,2.2646,-2.0049,47.3750,-21.0625,22.7500,198.4375,-66.5000,168.9375,0
1776973482.261,6.4356,-2.4301,1.7142,0.0477,-1.3201,-2.0923,-75.9000,-31.2000,0.6000,8.5497,4.0079,1.5347,0.6568,-0.4692,-0.9952,-104.7000,2.7000,-1.2000,-1.2800,-1.5500,-5.8700,0.1767,2.2646,-2.0049,47.3750,-21.0625,22.7500,200.1250,-65.0625,166.6875,0
1776973482.270,6.3686,-2.8323,2.3966,0.3312,-1.3885,-2.2106,-75.9000,-31.2000,0.6000,8.3989,3.2896,0.9720,0.9947,-0.3874,-0.9609,-104.7000,3.4500,-2.2500,-3.3000,-1.8200,-7.2600,0.4178,2.2187,-2.1544,47.3750,-21.0625,22.7500,200.1250,-65.0625,166.6875,0
1776973482.280,6.7924,-3.1651,2.7725,0.5654,-1.4850,-2.3545,-77.2500,-28.3500,0.4500,8.0325,2.8922,0.3519,1.1975,-0.4519,-0.8785,-104.7000,3.4500,-2.2500,-4.1200,-2.0900,-7.8800,0.5694,2.2733,-2.2471,47.3750,-21.0625,22.7500,202.1250,-63.5625,164.5000,0
1776973482.285,6.7924,-3.1651,2.7725,0.5654,-1.4850,-2.3545,-77.2500,-28.3500,0.4500,7.7021,2.4062,0.0000,1.2833,-0.5614,-0.7791,-104.7000,3.4500,-2.2500,-4.1200,-2.0900,-7.8800,0.5694,2.2733,-2.2471,47.3750,-21.0625,22.7500,204.2500,-61.8750,162.5625,0
1776973482.290,7.1635,-3.4213,2.6791,0.7011,-1.6542,-2.5191,-77.2500,-28.3500,0.4500,7.7021,2.4062,0.0000,1.2833,-0.5614,-0.7791,-104.7000,3.9000,-4.3500,-4.5600,-2.3000,-8.3900,0.6283,2.4216,-2.2787,48.2500,-18.5625,28.7500,204.2500,-61.8750,162.5625,0
1776973482.295,7.1635,-3.4213,2.6791,0.7011,-1.6542,-2.5191,-79.5000,-27.1500,-0.4500,7.5968,1.8771,-0.2155,1.3366,-0.4975,-0.6688,-104.7000,3.9000,-4.3500,-4.5600,-2.3000,-8.3900,0.6283,2.4216,-2.2787,48.2500,-18.5625,28.7500,206.4375,-60.1250,160.9375,0
1776973482.300,7.4795,-3.3782,2.4708,0.7480,-1.7392,-2.6340,-79.5000,-27.1500,-0.4500,7.5968,1.8771,-0.2155,1.3366,-0.4975,-0.6688,-105.6000,5.5500,-2.8500,-5.3100,-2.0900,-9.1800,0.5912,2.6387,-2.2209,48.2500,-18.5625,28.7500,206.4375,-60.1250,160.9375,0
1776973482.307,8.1834,-3.4716,2.0590,0.7101,-1.8301,-2.7019,-81.1500,-25.0500,-0.3000,7.5010,1.6520,-0.1580,1.2865,-0.5601,-0.5574,-105.1500,5.5500,-2.8500,-5.6800,-1.7700,-9.5200,0.5160,2.8765,-2.0977,48.2500,-18.5625,28.7500,208.5625,-58.2500,159.6875,0
1776973482.312,8.1834,-3.4716,2.0590,0.7101,-1.8301,-2.7019,-81.1500,-25.0500,-0.3000,7.5010,1.6520,-0.1580,1.2865,-0.5601,-0.5574,-105.1500,4.6500,-4.8000,-5.6800,-1.7700,-9.5200,0.5160,2.8765,-2.0977,48.2500,-18.5625,28.7500,210.7500,-56.1875,158.8125,0
1776973482.321,8.8897,-3.9528,2.2242,0.6616,-1.9249,-2.7246,-82.2000,-24.4500,-0.9000,7.4029,1.5586,-0.5459,1.3344,-0.4612,-0.4900,-104.8500,4.8000,-4.2000,-5.9400,-1.4400,-9.6800,0.4429,3.1361,-1.9395,48.2500,-18.5625,28.7500,210.7500,-56.1875,158.8125,0
1776973482.331,9.2847,-4.3311,2.2817,0.5494,-2.0478,-2.7408,-82.9500,-23.2500,-0.4500,7.7357,1.4174,-0.3639,1.3752,-0.4258,-0.4415,-104.8500,4.8000,-4.2000,-5.9400,-1.0000,-9.7100,0.4461,3.4012,-1.7737,48.2500,-18.5625,28.7500,213.0000,-54.1250,158.2500,0
1776973482.335,9.4140,-4.5203,2.1596,0.3890,-2.1653,-2.7536,-83.8500,-21.4500,-2.5500,7.6710,1.3192,-0.5722,1.5266,-0.3914,-0.3810,-104.8500,4.8000,-4.2000,-5.9400,-1.0000,-9.7100,0.4461,3.4012,-1.7737,48.2500,-18.5625,28.7500,215.5000,-51.8750,157.8750,0
1776973482.341,9.4140,-4.5203,2.1596,0.3890,-2.1653,-2.7536,-83.8500,-21.4500,-2.5500,7.6710,1.3192,-0.5722,1.5266,-0.3914,-0.3810,-106.3500,3.7500,-4.5000,-5.8000,-1.3200,-9.7000,0.5367,3.6237,-1.6352,49.1875,-10.8750,36.2500,215.5000,-51.8750,157.8750,0
1776973482.345,9.4499,-4.4867,1.8316,0.2081,-2.2799,-2.7611,-84.4500,-20.8500,-3.7500,7.6782,0.7997,-0.7063,1.3707,-0.3637,-0.3104,-106.3500,3.7500,-4.5000,-5.8000,-1.3200,-9.7000,0.5367,3.6237,-1.6352,49.1875,-10.8750,36.2500,218.2500,-49.6250,157.5000,0
1776973482.350,9.4499,-4.4867,1.8316,0.2081,-2.2799,-2.7611,-84.4500,-20.8500,-3.7500,7.6782,0.7997,-0.7063,1.3683,-0.2094,-0.2814,-106.2000,2.4000,-4.3500,-5.7800,-1.9500,-9.7100,0.6752,3.7699,-1.5457,49.1875,-10.8750,36.2500,218.2500,-49.6250,157.5000,0
1776973482.355,9.5960,-4.2018,1.8052,0.0669,-2.3659,-2.7600,-84.4500,-20.8500,-3.7500,7.5130,0.6129,-0.8164,1.3683,-0.2094,-0.2814,-106.2000,2.4000,-4.3500,-5.7800,-1.9500,-9.7100,0.7767,3.8157,-1.5032,49.1875,-10.8750,36.2500,221.3125,-47.3750,157.0625,0
1776973482.361,9.5960,-4.2018,1.8052,0.0669,-2.3659,-2.7600,-84.4500,-20.8500,-3.7500,7.6854,0.2274,-1.2115,1.1330,-0.2606,-0.2531,-106.2000,4.2000,-3.6000,-5.9000,-2.5700,-9.7900,0.7767,3.8157,-1.5032,49.1875,-10.8750,36.2500,224.5625,-45.1250,156.6875,0
1776973482.371,9.7396,-3.9504,1.7071,-0.0869,-2.4459,-2.7512,-85.8000,-18.3000,-6.6000,7.5369,-0.0766,-1.1875,0.9611,-0.3152,-0.2380,-106.8000,3.0000,-5.7000,-6.2000,-3.2600,-10.1200,0.7974,3.7721,-1.5043,49.1875,-10.8750,36.2500,228.0000,-42.8750,156.3125,0
1776973482.381,10.1203,-3.5099,1.7286,-0.1921,-2.5250,-2.7579,-87.6000,-16.3500,-6.9000,7.6184,-0.0886,-1.3120,0.6949,-0.2177,-0.2340,-107.8500,3.0000,-6.7500,-6.3000,-3.5600,-10.2900,0.7549,3.6826,-1.5599,49.1875,-10.8750,36.2500,228.0000,-42.8750,156.3125,0
1776973482.386,10.3932,-3.1747,1.7238,-0.2745,-2.5927,-2.7723,-88.3500,-13.6500,-7.6500,7.6184,-0.0886,-1.3120,0.6949,-0.2177,-0.2340,-107.8500,3.0000,-6.7500,-6.3000,-3.5600,-10.2900,0.7549,3.6826,-1.5599,49.1875,-10.8750,36.2500,228.0000,-42.8750,156.3125,0
1776973482.391,10.3932,-3.1747,1.7238,-0.2745,-2.5927,-2.7723,-88.3500,-13.6500,-7.6500,7.6112,0.2514,-1.2258,0.4572,-0.1124,-0.2385,-107.8500,3.0000,-6.7500,-6.5100,-3.8300,-10.5400,0.5661,3.4078,-1.7879,45.3750,-0.6875,43.7500,231.4375,-40.7500,155.8750,0
1776973482.396,10.4794,-2.6336,1.7717,-0.3206,-2.6382,-2.7803,-88.0500,-13.6500,-9.1500,7.6112,0.2514,-1.2258,0.4572,-0.1124,-0.2385,-106.3500,2.5500,-5.7000,-6.5100,-3.8300,-10.5400,0.5661,3.4078,-1.7879,45.3750,-0.6875,43.7500,231.4375,-40.7500,155.8750,0
1776973482.401,10.4794,-2.6336,1.7717,-0.3206,-2.6382,-2.7803,-88.0500,-13.6500,-9.1500,7.5753,0.4836,-1.2833,0.1484,-0.1212,-0.2633,-106.3500,2.5500,-5.7000,-6.9200,-4.2900,-10.8200,0.5661,3.4078,-1.7879,45.3750,-0.6875,43.7500,180.2500,-38.6250,155.4375,0
1776973482.407,10.5058,-2.1261,1.6089,-0.3456,-2.6569,-2.8027,-88.9500,-13.0500,-11.2500,7.5753,0.4836,-1.2833,0.1484,-0.1212,-0.2633,-106.8000,3.0000,-3.9000,-7.2700,-4.2300,-11.1000,0.4374,3.2583,-1.8959,45.3750,-0.6875,43.7500,179.6875,-36.5625,155.0625,0
1776973482.412,10.5417,-1.5730,1.5538,-0.3208,-2.6854,-2.8069,-88.9500,-13.0500,-11.2500,5.6120,0.3591,-1.5155,-0.1039,-0.0733,-0.2702,-106.8000,3.0000,-3.9000,-7.2700,-4.2300,-11.1000,0.4374,3.2583,-1.8959,45.3750,-0.6875,43.7500,178.9375,-34.5625,154.6875,0
1776973482.421,10.5943,-1.2115,1.4126,-0.3208,-2.6854,-2.8069,-88.9500,-11.8500,-11.2500,8.1738,0.9098,-1.0989,-0.2300,-0.0637,-0.2494,-105.7500,3.1500,-5.8500,-7.7000,-4.0600,-11.3700,0.2553,3.0194,-1.9766,45.3750,-0.6875,43.7500,178.2500,-32.6250,154.3750,0
1776973482.431,10.6207,-0.9385,1.4150,-0.1543,-2.6404,-2.7979,-88.9500,-11.8500,-11.2500,7.5322,1.0175,-1.2929,-0.4466,-0.3568,-0.2286,-106.2000,3.1500,-4.8000,-8.3200,-3.8500,-11.7100,0.2705,2.9801,-1.9362,45.3750,-0.6875,43.7500,178.2500,-32.6250,154.3750,0
1776973482.436,10.6207,-0.9385,1.4150,-0.1543,-2.6404,-2.7979,-89.7000,-7.9500,-17.1000,7.5322,1.0175,-1.2929,-0.4466,-0.3568,-0.2286,-106.2000,3.1500,-4.8000,-8.3200,-3.8500,-11.7100,0.2705,2.9801,-1.9362,45.3750,-0.6875,43.7500,177.6250,-30.6875,154.0625,0
1776973482.441,10.9319,-0.9266,1.1995,-0.1175,-2.5908,-2.7731,-89.7000,-7.9500,-17.1000,7.5441,1.2426,-1.4006,-0.7280,-0.0938,-0.1684,-106.2000,3.1500,-4.8000,-8.5500,-3.8100,-11.8200,0.3382,2.9834,-1.8490,34.0000,9.7500,48.1875,177.6250,-30.6875,154.0625,0
1776973482.446,10.9319,-0.9266,1.1995,-0.1175,-2.5908,-2.7731,-89.7000,-7.9500,-17.1000,7.5441,1.2426,-1.4006,-0.7280,-0.0938,-0.1684,-106.8000,4.0500,-4.9500,-8.5500,-3.8100,-11.8200,0.3382,2.9834,-1.8490,34.0000,9.7500,48.1875,177.1250,-28.7500,153.7500,0
1776973482.451,10.9846,-1.2043,1.0104,-0.0786,-2.5596,-2.7430,-89.7000,-7.9500,-17.1000,7.3167,1.6305,-1.2474,-0.9052,-0.0245,-0.1079,-106.8000,4.0500,-4.9500,-8.7500,-3.9100,-11.8200,0.4396,2.9998,-1.7224,34.0000,9.7500,48.1875,177.1250,-28.7500,153.7500,0
1776973482.458,10.9846,-1.2043,1.0104,-0.0786,-2.5596,-2.7430,-88.8000,-4.2000,-17.7000,7.8530,2.0327,-1.5060,-1.1114,0.0653,-0.0312,-105.4500,2.7000,-6.4500,-8.9900,-4.0100,-11.8500,0.5432,3.0391,-1.5850,34.0000,9.7500,48.1875,176.6875,-26.8750,153.4375,0
1776973482.462,11.1522,-1.4150,0.7374,-0.0568,-2.5058,-2.7070,-88.8000,-4.2000,-17.7000,7.8530,2.0327,-1.5060,-1.1114,0.0653,-0.0312,-105.4500,2.7000,-6.4500,-8.9900,-4.0100,-11.8500,0.5432,3.0391,-1.5850,34.0000,9.7500,48.1875,176.3125,-25.0000,153.1250,0
1776973482.471,11.1426,-1.5826,0.4908,-0.1159,-2.4515,-2.6566,-90.4500,-3.3000,-20.1000,8.1020,2.8036,-1.6640,-1.2654,-0.0376,0.0384,-105.3000,5.5500,-4.5000,-9.3200,-4.3800,-11.5900,0.6185,3.0816,-1.4519,34.0000,9.7500,48.1875,176.0625,-23.1250,152.8125,0
1776973482.481,10.9774,-1.5826,0.3735,-0.2185,-2.3856,-2.6025,-90.4500,-0.9000,-20.8500,7.9966,3.4165,-1.9609,-1.3997,-0.0536,0.0906,-105.6000,4.8000,-5.2500,-9.3600,-4.4100,-11.3800,0.6589,3.1209,-1.3395,34.0000,9.7500,48.1875,176.0625,-23.1250,152.8125,0
1776973482.486,10.9774,-1.5826,0.3735,-0.2185,-2.3856,-2.6025,-89.8500,0.0000,-21.7500,7.9966,3.4165,-1.9609,-1.3262,0.0072,0.1071,-103.6500,4.2000,-5.8500,-9.3600,-4.4100,-11.3800,0.6589,3.1209,-1.3395,34.0000,9.7500,48.1875,175.8750,-21.2500,152.5000,0
1776973482.491,10.8290,-1.5874,0.4429,-0.3712,-2.3486,-2.5407,-89.8500,0.0000,-21.7500,8.1523,4.2617,-2.1739,-1.3262,0.0072,0.1071,-103.6500,4.2000,-5.8500,-9.2700,-4.4300,-11.1500,0.6730,3.1318,-1.2632,20.8750,12.3750,46.1875,175.8750,-21.2500,152.5000,0
1776973482.496,10.8290,-1.5874,0.4429,-0.3712,-2.3486,-2.5407,-90.6000,1.0500,-22.2000,8.0541,5.2864,-2.3966,-1.2161,-0.0277,0.1236,-103.6500,4.2000,-5.8500,-9.2700,-4.4300,-11.1500,0.6730,3.1318,-1.2632,20.8750,12.3750,46.1875,175.6250,-19.3750,152.1875,0
1776973482.501,10.6063,-1.5203,0.3855,-0.4263,-2.3086,-2.4802,-90.6000,1.0500,-22.2000,8.0541,5.2864,-2.3966,-1.2161,-0.0277,0.1236,-103.6500,4.2000,-5.8500,-9.2500,-4.5800,-10.6300,0.6600,3.1209,-1.2217,20.8750,12.3750,46.1875,175.6250,-19.3750,152.1875,0
1776973482.509,10.1754,-1.3695,0.4429,-0.5252,-2.2870,-2.4019,-88.6500,2.4000,-24.6000,8.0349,6.1268,-2.8180,-1.0666,-0.0522,0.1164,-102.9000,6.4500,-5.1000,-9.3600,-4.6500,-10.2300,0.6218,3.1001,-1.2174,20.8750,12.3750,46.1875,175.4375,-17.5625,151.9375,0
1776973482.514,10.1754,-1.3695,0.4429,-0.5252,-2.2870,-2.4019,-88.6500,2.4000,-24.6000,8.0349,6.1268,-2.8180,-1.0666,-0.0522,0.1164,-103.5000,7.0500,-4.9500,-9.3600,-4.6500,-10.2300,0.6218,3.1001,-1.2174,20.8750,12.3750,46.1875,175.2500,-15.6875,151.6875,0
1776973482.522,9.4044,-0.6943,0.3711,-0.5161,-2.2220,-2.3049,-88.6500,2.4000,-24.6000,8.3629,6.7421,-3.0574,-0.8676,0.0200,0.1092,-103.5000,7.0500,-4.9500,-9.2700,-4.5900,-9.6700,0.5672,3.0892,-1.2326,20.8750,12.3750,46.1875,175.0000,-13.8750,151.4375,0
1776973482.531,9.0884,0.0359,-0.4884,-0.5939,-2.1043,-2.2100,-87.4500,3.6000,-27.1500,8.5305,7.3741,-3.3567,-0.5697,0.0037,0.1745,-103.6500,7.9500,-6.1500,-8.7600,-4.0000,-8.4000,0.5269,3.0500,-1.2643,20.8750,12.3750,46.1875,175.0000,-13.8750,151.4375,0
1776973482.536,9.1363,0.8404,-0.7685,-0.5939,-2.1043,-2.2100,-87.7500,6.4500,-26.4000,8.5162,7.7189,-3.4261,-0.2385,0.0831,0.2324,-103.6500,7.2000,-5.4000,-8.7600,-4.0000,-8.4000,0.5269,3.0500,-1.2643,20.8750,12.3750,46.1875,175.0000,-13.8750,151.4375,0
1776973482.541,9.1363,0.8404,-0.7685,-0.5425,-1.9582,-2.1037,-87.7500,6.4500,-26.4000,8.5162,7.7189,-3.4261,-0.2385,0.0831,0.2324,-103.6500,7.2000,-5.4000,-8.7300,-3.8400,-7.8000,0.5149,2.9398,-1.2905,12.5625,8.0000,47.2500,174.7500,-12.1250,151.1875,0
1776973482.546,9.0477,1.8004,-1.0319,-0.3512,-1.8229,-1.9902,-86.2500,6.4500,-28.9500,8.5018,7.5705,-3.5291,0.0938,0.1130,0.2694,-103.6500,7.2000,-5.4000,-8.7300,-3.8400,-7.8000,0.5149,2.9398,-1.2905,12.5625,8.0000,47.2500,174.7500,-12.1250,151.1875,0
1776973482.551,9.0477,1.8004,-1.0319,-0.3512,-1.8229,-1.9902,-86.2500,6.4500,-28.9500,8.5018,7.5705,-3.5291,0.0938,0.1130,0.2694,-103.6500,7.2000,-5.4000,-8.6800,-3.6100,-7.1500,0.5192,2.7620,-1.3025,12.5625,8.0000,47.2500,174.4375,-10.4375,150.9375,0
1776973482.556,8.7628,2.6671,-1.1971,-0.0818,-1.6510,-1.8530,-85.9500,8.4000,-29.4000,8.0732,7.3909,-3.4716,0.4101,0.1031,0.2702,-104.2500,6.7500,-6.3000,-8.6800,-3.6100,-7.1500,0.5083,2.5285,-1.3210,12.5625,8.0000,47.2500,174.0625,-8.8750,150.6250,0
1776973482.562,8.7628,2.6671,-1.1971,-0.0818,-1.6510,-1.8530,-85.9500,8.4000,-29.4000,8.0732,7.3909,-3.4716,0.4101,0.1031,0.2702,-104.2500,6.7500,-6.3000,-8.7500,-3.4700,-6.5300,0.5083,2.5285,-1.3210,12.5625,8.0000,47.2500,173.6875,-7.3750,150.3750,0
1776973482.571,8.3246,2.7869,-1.4102,0.3102,-1.4645,-1.6851,-87.0000,9.9000,-31.6500,7.8075,7.1826,-3.3040,0.6744,0.0861,0.2809,-103.5000,8.5500,-4.9500,-8.6800,-3.3400,-5.5100,0.4461,2.2286,-1.3723,12.5625,8.0000,47.2500,173.6875,-7.3750,150.3750,0
1776973482.581,8.0613,2.5474,-1.8364,0.7029,-1.2452,-1.4837,-84.6000,9.7500,-31.3500,7.7524,7.0461,-3.1723,0.9046,0.1988,0.2939,-103.6500,7.9500,-5.4000,-9.0900,-3.3900,-5.0700,0.3076,1.8828,-1.4530,12.5625,8.0000,47.2500,173.1250,-6.0625,150.1875,0
1776973482.586,7.8913,2.1668,-1.8483,0.9707,-0.9872,-1.2633,-84.6000,9.7500,-31.3500,8.0445,6.9456,-3.2010,1.2156,0.3563,0.3259,-102.7500,6.3000,-4.5000,-9.0900,-3.3900,-5.0700,0.3076,1.8828,-1.4530,12.5625,8.0000,47.2500,172.5000,-4.9375,150.1250,0
1776973482.591,7.8913,2.1668,-1.8483,0.9707,-0.9872,-1.2633,-84.6000,9.7500,-31.3500,8.0445,6.9456,-3.2010,1.2156,0.3563,0.3259,-102.7500,6.3000,-4.5000,-9.6500,-3.3000,-4.5800,0.1047,1.5348,-1.5206,6.5625,7.3750,51.3750,172.5000,-4.9375,150.1250,0
1776973482.596,7.6375,1.5419,-1.7573,1.1410,-0.7413,-1.0219,-84.7500,10.3500,-32.4000,8.6670,6.9480,-3.4812,1.4842,0.4301,0.3797,-103.6500,7.2000,-5.1000,-9.6500,-3.3000,-4.5800,0.1047,1.5348,-1.5206,6.5625,7.3750,51.3750,171.8750,-3.9375,150.1250,0
1776973482.601,7.6375,1.5419,-1.7573,1.1410,-0.7413,-1.0219,-84.7500,10.3500,-32.4000,8.6670,6.9480,-3.4812,1.4842,0.4301,0.3797,-103.6500,7.2000,-5.1000,-11.0500,-1.9300,-3.6000,-0.0982,1.2261,-1.5359,6.5625,7.3750,51.3750,171.8750,-3.9375,150.1250,0
1776973482.609,7.3885,0.9960,-1.3958,1.2055,-0.4711,-0.7560,-84.7500,10.3500,-32.4000,9.2919,7.2951,-4.0414,1.7736,0.3733,0.4381,-103.6500,7.2000,-5.1000,-11.7900,-0.9300,-3.0800,-0.1963,0.9839,-1.5032,6.5625,7.3750,51.3750,171.1875,-3.0000,150.1875,0
1776973482.614,7.1754,0.2897,-0.4788,1.2393,-0.2116,-0.4740,-84.7500,10.3500,-32.4000,10.6422,7.4819,-3.8499,2.0123,0.2934,0.4594,-104.5500,5.5500,-4.9500,-11.7900,-0.9300,-3.0800,-0.1963,0.9839,-1.5032,6.5625,7.3750,51.3750,170.5000,-2.2500,150.3125,0
1776973482.622,7.1754,0.2897,-0.4788,1.2393,-0.2116,-0.4740,-85.9500,11.4000,-32.7000,12.3972,7.4172,-3.0718,1.9057,0.6267,0.5612,-103.8000,6.0000,-2.8500,-12.2400,-0.0500,-2.5400,-0.1734,0.7876,-1.4334,6.5625,7.3750,51.3750,169.8125,-1.6250,150.3125,0
1776973482.631,7.2760,-0.2753,0.5531,1.2561,0.0504,-0.1860,-85.5000,10.6500,-33.0000,11.3964,6.2130,-2.4157,2.2495,0.1769,0.6121,-104.4000,4.6500,-3.6000,-12.1300,0.9700,-1.4000,-0.0982,0.5672,-1.3254,6.5625,7.3750,51.3750,169.8125,-1.6250,150.3125,0
1776973482.636,7.9440,-0.0862,1.8076,1.1338,0.2995,0.0719,-84.7500,9.4500,-31.9500,11.3964,6.2130,-2.4157,2.2495,0.1769,0.6121,-104.4000,4.6500,-3.6000,-12.1300,0.9700,-1.4000,-0.0982,0.5672,-1.3254,6.5625,7.3750,51.3750,169.8125,-1.6250,150.3125,0
1776973482.641,9.4930,0.7326,2.5259,1.1338,0.2995,0.0719,-84.7500,9.4500,-31.9500,11.8250,5.9927,-3.1891,2.8032,0.7005,0.4818,-103.9500,4.2000,-4.8000,-11.4600,0.7100,-1.4500,-0.0665,0.2673,-1.1890,2.8750,7.0625,53.8750,169.1875,-1.1875,150.3750,0
1776973482.646,9.4930,0.7326,2.5259,1.1183,0.5598,0.2070,-84.7500,9.4500,-31.9500,11.8250,5.9927,-3.1891,2.8032,0.7005,0.4818,-103.9500,4.2000,-4.8000,-11.4600,0.7100,-1.4500,-0.0665,0.2673,-1.1890,2.8750,7.0625,53.8750,169.1875,-1.1875,150.3750,0
1776973482.651,8.1211,0.4693,2.4876,1.1183,0.5598,0.2070,-83.7000,9.9000,-32.4000,10.8984,5.5617,-2.8611,3.0417,0.1791,0.3136,-103.9500,4.2000,-4.8000,-12.0900,-1.1300,-2.0600,-0.4036,-0.5607,-0.9152,2.8750,7.0625,53.8750,168.6250,-1.1875,150.5625,0
1776973482.656,8.1211,0.4693,2.4876,0.9102,0.5817,0.4479,-85.2000,8.7000,-32.4000,10.8984,5.5617,-2.8611,3.0417,0.1791,0.3136,-103.9500,4.2000,-4.8000,-12.0900,-1.1300,-2.0600,-0.6370,-1.8610,-0.2531,2.8750,7.0625,53.8750,168.1875,-2.0000,150.8750,0
1776973482.662,6.5122,-0.9601,5.2385,1.1040,1.1053,0.8399,-85.2000,8.7000,-30.4500,9.0381,4.0510,-1.8340,2.7352,-0.0149,0.0943,-104.8500,4.0500,-4.5000,-13.1900,0.9600,2.0400,-0.6370,-1.8610,-0.2531,2.8750,7.0625,53.8750,167.8750,-3.2500,151.1875,0
1776973482.671,8.6431,0.5100,5.1499,1.0461,1.4714,1.1021,-85.2000,7.9500,-30.9000,8.6526,2.4972,-0.6249,2.0166,0.3048,0.1212,-105.6000,4.8000,-4.2000,-19.6400,3.3400,2.3900,-0.5760,-2.4958,0.0545,2.8750,7.0625,53.8750,167.8750,-3.2500,151.1875,0
1776973482.681,13.0628,2.8898,-1.5706,0.2201,1.3352,1.0112,-85.2000,7.9500,-30.9000,10.6734,1.6831,0.0383,1.3539,0.8140,0.2574,-105.1500,1.6500,-4.8000,-4.7300,2.4000,1.0000,-0.3611,-2.7074,0.3262,2.8750,7.0625,53.8750,167.6250,-4.6250,151.3750,0
1776973482.686,13.0628,2.8898,-1.5706,0.2201,1.3352,1.0112,-85.2000,7.9500,-30.9000,10.6734,1.6831,0.0383,1.3539,0.8140,0.2574,-105.1500,1.6500,-4.8000,-4.7300,2.4000,1.0000,-0.3611,-2.7074,0.3262,2.8750,7.0625,53.8750,167.6250,-4.6250,151.3750,0
1776973482.691,17.0443,2.6121,-8.7747,-0.6960,0.5356,0.6568,-85.3500,5.8500,-28.0500,11.9973,0.6153,0.1604,0.4711,0.9662,0.3688,-104.5500,3.3000,-3.4500,-0.3400,-4.6100,-9.2900,-0.6196,-3.0663,0.6010,2.0625,6.3750,55.3750,167.5625,-6.3125,151.6250,0
1776973482.696,17.0443,2.6121,-8.7747,-0.6960,0.5356,0.6568,-85.3500,5.8500,-28.0500,11.9973,0.6153,0.1604,0.4711,0.9662,0.3688,-104.5500,3.3000,-3.4500,-0.3400,-4.6100,-9.2900,-0.6196,-3.0663,0.6010,2.0625,6.3750,55.3750,167.5625,-6.3125,151.6250,0
1776973482.701,12.7970,1.2594,-4.9919,0.2340,0.6257,0.4684,-84.6000,5.8500,-26.5500,12.0524,-0.9577,0.2155,-0.3317,0.7927,0.1532,-104.7000,2.7000,-4.3500,-6.9600,-11.2500,-12.8900,-0.5978,-2.9529,0.9981,2.0625,6.3750,55.3750,167.6875,-8.0000,151.9375,0
1776973482.708,12.7970,1.2594,-4.9919,0.2340,0.6257,0.4684,-85.8000,5.4000,-29.2500,12.0524,-0.9577,0.2155,-0.3317,0.7927,0.1532,-104.7000,2.7000,-4.3500,-6.0900,-0.6100,-8.0200,-0.7625,-2.3147,1.2752,2.0625,6.3750,55.3750,168.0000,-9.5000,152.3750,0
1776973482.712,10.3406,-1.3671,-6.4332,0.5756,0.9894,0.5868,-85.8000,5.4000,-29.2500,12.4403,-2.3583,-1.1013,-0.6923,0.4533,-0.0442,-104.7000,2.7000,-4.3500,-6.0900,-0.6100,-8.0200,-0.7625,-2.3147,1.2752,2.0625,6.3750,55.3750,168.2500,-10.9375,152.6875,0
1776973482.722,13.6206,-3.5626,-9.0214,0.1665,0.9990,0.7650,-86.5500,6.1500,-28.0500,13.9893,-2.2242,-2.7174,-0.7573,0.6211,-0.1234,-102.1500,3.1500,-4.8000,-0.9500,1.1900,-8.5400,-0.6512,-2.3627,1.0941,2.0625,6.3750,55.3750,168.2500,-10.9375,152.6875,0
1776973482.732,13.9175,-3.3519,-4.4341,0.3043,1.2060,0.9145,-87.0000,4.0500,-28.2000,16.0196,-1.2570,-6.2704,-0.5201,0.6387,0.0237,-102.1500,5.7000,-5.8500,-10.1400,-2.3300,-15.2500,-0.1822,-3.1525,1.0101,2.0625,6.3750,55.3750,168.3750,-12.7500,152.7500,0
1776973482.736,13.9175,-3.3519,-4.4341,0.3043,1.2060,0.9145,-87.0000,4.0500,-28.2000,16.0196,-1.2570,-6.2704,-0.5201,0.6387,0.0237,-102.1500,5.7000,-5.8500,-10.1400,-2.3300,-15.2500,-0.1822,-3.1525,1.0101,2.0625,6.3750,55.3750,168.6250,-14.5625,152.7500,0
1776973482.742,13.2088,-3.0909,-2.9568,0.2060,1.4109,1.0864,-86.8500,4.2000,-27.3000,16.2471,-0.1413,-10.2807,0.5420,0.4269,0.2182,-100.3500,5.4000,-7.2000,-12.4700,-0.6200,-15.6000,-0.0840,-3.1601,1.1683,10.8750,3.6875,56.5000,168.6250,-14.5625,152.7500,0
1776973482.746,13.2088,-3.0909,-2.9568,0.2060,1.4109,1.0864,-86.8500,4.2000,-27.3000,16.2471,-0.1413,-10.2807,0.5420,0.4269,0.2182,-100.3500,5.4000,-7.2000,-12.4700,-0.6200,-15.6000,-0.0840,-3.1601,1.1683,10.8750,3.6875,56.5000,169.0000,-16.1250,152.8125,0
1776973482.752,12.8401,-2.5833,1.5131,-0.2489,1.5266,1.1367,-86.8500,4.2000,-27.3000,14.1976,0.8643,-12.8090,1.7296,-0.2822,0.2230,-98.7000,5.2500,-8.1000,-10.0000,-1.8800,-14.6900,-0.1724,-2.5318,1.2686,10.8750,3.6875,56.5000,169.0000,-16.1250,152.8125,0
1776973482.756,12.8401,-2.5833,1.5131,-0.2489,1.5266,1.1367,-86.8500,4.2000,-27.3000,14.1976,0.8643,-12.8090,1.7296,-0.2822,0.2230,-98.7000,5.2500,-8.1000,-10.0000,-1.8800,-14.6900,-0.2629,-2.1293,1.2359,10.8750,3.6875,56.5000,169.3750,-17.5000,153.0000,0
1776973482.762,11.4132,-0.9170,4.3048,-0.7671,1.6073,1.1338,-87.4500,2.8500,-26.1000,9.7468,2.5714,-10.3214,1.1197,-0.9878,-0.2182,-98.7000,5.2500,-8.1000,-10.4700,-6.9000,-13.8700,-0.2629,-2.1293,1.2359,10.8750,3.6875,56.5000,169.6875,-18.5625,153.2500,0
1776973482.772,10.0868,1.8890,3.3232,-0.9745,1.4946,1.1437,-87.4500,2.8500,-26.1000,3.3136,-1.1349,1.5778,-0.4197,-0.5822,0.1148,-97.6500,6.0000,-9.1500,-6.2200,-5.1100,-9.1700,-0.4189,-1.6057,1.0657,10.8750,3.6875,56.5000,169.9375,-19.3750,153.5000,0
1776973482.782,9.3925,3.1412,1.6496,-0.7496,1.3246,1.1365,-88.0500,3.0000,-25.0500,6.7086,-4.1300,9.5385,-0.3014,0.5084,0.1943,-98.7000,6.7500,-9.9000,-5.2000,-2.2900,-10.0600,-0.3883,-1.2621,0.8050,10.8750,3.6875,56.5000,169.9375,-19.3750,153.5000,0
1776973482.787,8.2839,3.4405,1.4557,-0.2185,1.1834,1.0507,-88.0500,3.0000,-25.0500,7.0964,-2.8204,10.1418,-0.9348,1.1540,-0.1857,-98.7000,6.7500,-9.9000,-5.2000,-2.2900,-10.0600,-0.3883,-1.2621,0.8050,10.8750,3.6875,56.5000,169.9375,-19.3750,153.5000,0
1776973482.792,8.2839,3.4405,1.4557,-0.2185,1.1834,1.0507,-87.7500,2.1000,-23.1000,7.0964,-2.8204,10.1418,-0.9348,1.1540,-0.1857,-98.4000,7.5000,-6.7500,-5.3500,-4.4500,-8.9300,-0.2945,-1.0690,0.6992,18.2500,1.0625,54.8750,170.1875,-20.1250,153.6875,0
1776973482.797,7.6902,2.7198,1.8914,0.1911,1.0557,0.8988,-87.7500,2.1000,-23.1000,6.1507,-3.5602,8.9328,-2.2271,0.9822,-0.0869,-98.4000,7.5000,-6.7500,-5.3500,-4.4500,-8.9300,-0.2945,-1.0690,0.6992,18.2500,1.0625,54.8750,170.1875,-20.1250,153.6875,0
1776973482.802,7.6902,2.7198,1.8914,0.1911,1.0557,0.8988,-88.6500,1.3500,-21.9000,6.1507,-3.5602,8.9328,-2.2271,0.9822,-0.0869,-99.1500,5.5500,-7.3500,-3.5500,-5.0000,-7.7600,-0.3109,-0.9261,0.6305,18.2500,1.0625,54.8750,170.3750,-20.7500,153.9375,0
1776973482.810,8.1810,0.1939,3.2896,0.3925,1.0253,0.7746,-88.2000,-0.1500,-21.1500,6.0789,-4.4125,5.7772,-2.8098,0.6968,0.0703,-98.2500,6.9000,-7.2000,-4.7300,-2.9700,-8.8800,-0.3731,-0.9828,0.5956,18.2500,1.0625,54.8750,170.5625,-21.3750,154.1250,0
1776973482.815,9.9000,-1.8459,2.7677,0.2801,1.0222,0.7981,-88.2000,-0.1500,-21.1500,6.9839,-1.8483,2.6791,-2.5282,0.3989,0.3680,-98.2500,6.9000,-7.2000,-4.7300,-2.9700,-8.8800,-0.3731,-0.9828,0.5956,18.2500,1.0625,54.8750,170.6875,-21.9375,154.3750,0
1776973482.822,9.9000,-1.8459,2.7677,0.2801,1.0222,0.7981,-89.7000,1.3500,-21.1500,6.9839,-1.8483,2.6791,-2.5282,0.3989,0.3680,-98.2500,6.9000,-7.2000,-5.1400,-3.7700,-8.8100,-0.3534,-0.8759,0.5443,18.2500,1.0625,54.8750,170.8750,-22.3750,154.5625,0
1776973482.832,11.1498,-2.7270,1.7693,-0.0104,0.9769,0.8383,-88.8000,0.0000,-21.0000,8.4611,3.2346,2.6647,-2.0382,0.6025,0.6656,-97.8000,4.2000,-6.4500,-4.4900,-4.2100,-8.4600,-0.2989,-0.6894,0.4560,18.2500,1.0625,54.8750,170.8750,-22.3750,154.5625,0
1776973482.837,11.3629,-2.9233,1.3240,-0.2646,0.9118,0.8191,-88.8000,0.0000,-21.0000,10.7619,7.2113,2.2984,-1.8346,0.5785,0.8079,-97.8000,4.2000,-6.4500,-4.4900,-4.2100,-8.4600,-0.2989,-0.6894,0.4560,22.5000,-1.3750,54.5000,171.0000,-22.7500,154.7500,0
1776973482.842,11.3629,-2.9233,1.3240,-0.2646,0.9118,0.8191,-88.8000,0.0000,-21.0000,10.7619,7.2113,2.2984,-1.8346,0.5785,0.8079,-98.5500,4.2000,-5.1000,-4.4400,-3.3100,-8.8700,-0.3065,-0.5269,0.3960,22.5000,-1.3750,54.5000,171.0000,-22.7500,154.7500,0
1776973482.847,10.4914,-2.3176,1.6831,-0.5308,0.8324,0.7773,-88.8000,0.0000,-21.0000,11.1594,8.7245,1.4246,-1.2553,0.3770,0.8487,-98.5500,4.2000,-5.1000,-4.4400,-3.3100,-8.8700,-0.3065,-0.5269,0.3960,22.5000,-1.3750,54.5000,171.0625,-23.0625,154.9375,0
1776973482.852,10.4914,-2.3176,1.6831,-0.5308,0.8324,0.7773,-89.5500,-0.7500,-21.0000,11.1594,8.7245,1.4246,-1.2553,0.3770,0.8487,-97.9500,4.5000,-4.5000,-4.6200,-3.5000,-8.8600,-0.2847,-0.4363,0.3480,22.5000,-1.3750,54.5000,171.0625,-23.0625,154.9375,0
1776973482.858,9.9838,-1.4222,1.3455,-0.8599,0.8279,0.7562,-89.5500,-0.7500,-21.0000,10.5680,7.2472,0.8882,-0.2675,0.3720,0.8015,-98.8500,4.9500,-5.8500,-4.6300,-3.8400,-8.6500,-0.2138,-0.3534,0.2902,22.5000,-1.3750,54.5000,171.1875,-23.3125,155.1250,0
1776973482.863,10.0509,-0.6584,1.0295,-1.1021,0.8346,0.7743,-88.6500,-0.9000,-19.8000,9.7181,4.3718,0.5602,0.5971,0.4983,0.7613,-98.8500,4.9500,-5.8500,-4.6300,-3.8400,-8.6500,-0.2138,-0.3534,0.2902,22.5000,-1.3750,54.5000,171.2500,-23.5000,155.1875,0
1776973482.872,10.0509,0.4717,0.4597,-1.1021,0.8346,0.7743,-89.8500,-0.7500,-19.5000,9.7181,4.3718,0.5602,0.5971,0.4983,0.7613,-98.8500,4.9500,-5.8500,-4.3500,-3.1600,-8.8000,-0.1516,-0.2760,0.2302,22.5000,-1.3750,54.5000,171.3125,-23.6250,155.3125,0
1776973482.882,9.7492,1.1684,0.2729,-1.2055,0.8138,0.7951,-89.1000,-0.7500,-19.5000,9.4619,1.6424,0.2322,0.9806,0.7157,0.7522,-99.9000,6.3000,-4.9500,-4.1400,-3.1900,-8.7300,-0.1058,-0.2018,0.1822,22.5000,-1.3750,54.5000,171.3125,-23.6250,155.3125,0
1776973482.887,9.7492,1.1684,0.2729,-1.1618,0.7762,0.7666,-89.1000,-0.7500,-19.5000,9.6606,0.3711,0.1724,0.9896,0.6683,0.7461,-99.9000,6.3000,-4.9500,-4.1400,-3.1900,-8.7300,-0.1058,-0.2018,0.1822,22.5000,-1.3750,54.5000,171.3750,-23.7500,155.3125,0
1776973482.892,9.6774,1.7957,0.1628,-1.1618,0.7762,0.7666,-88.3500,-1.0500,-17.7000,9.6606,0.3711,0.1724,0.9896,0.6683,0.7461,-102.1500,9.4500,-4.8000,-4.2700,-3.2900,-8.7200,-0.0785,-0.1734,0.1418,24.3750,-3.2500,52.8750,171.3750,-23.7500,155.3125,0
1776973482.897,9.6774,1.7957,0.1628,-0.9065,0.7394,0.7067,-88.3500,-1.0500,-17.7000,9.0980,0.2274,0.2490,0.8644,0.6419,0.7320,-102.1500,9.4500,-4.8000,-4.2700,-3.2900,-8.7200,-0.0785,-0.1734,0.1418,24.3750,-3.2500,52.8750,171.3750,-23.8125,155.3750,0
1776973482.902,9.5409,2.1739,-0.1820,-0.6496,0.6779,0.6323,-91.2000,-2.4000,-18.6000,9.0980,0.2274,0.2490,0.6915,0.6760,0.7317,-103.8000,11.2500,-4.9500,-3.4300,-3.6300,-8.1200,-0.0676,-0.1407,0.1047,24.3750,-3.2500,52.8750,171.3750,-23.8125,155.3750,0
1776973482.909,9.5409,2.1739,-0.1820,-0.6496,0.6779,0.6323,-91.2000,-2.4000,-18.6000,8.6072,0.3783,0.2634,0.6915,0.6760,0.7317,-103.8000,13.0500,-5.7000,-3.1800,-3.6600,-7.9800,-0.0665,-0.1593,0.1091,24.3750,-3.2500,52.8750,171.4375,-23.9375,155.4375,0
1776973482.914,9.3948,2.3296,-0.6393,-0.2443,0.6360,0.5713,-91.2000,-2.4000,-18.6000,8.5736,-0.0311,-0.2993,0.4522,0.7472,0.7373,-103.8000,13.0500,-5.7000,-3.1800,-3.6600,-7.9800,-0.0665,-0.1593,0.1091,24.3750,-3.2500,52.8750,171.4375,-24.1250,155.5000,0
1776973482.922,9.5217,1.9872,-0.2610,0.2180,0.6291,0.5431,-89.1000,-2.2500,-16.9500,9.2871,0.9050,-0.2227,0.2340,0.9329,0.7293,-103.5000,15.0000,-4.2000,-3.6500,-3.5300,-8.2100,-0.0905,-0.2487,0.1364,24.3750,-3.2500,52.8750,171.5000,-24.3125,155.5625,0
1776973482.932,9.8138,1.3455,0.2610,0.3786,0.6118,0.5372,-89.1000,-2.2500,-16.9500,9.1913,1.9776,0.8380,0.5817,0.7530,0.7349,-103.5000,15.0000,-4.2000,-3.9600,-3.5200,-8.3100,-0.0873,-0.2956,0.1418,24.3750,-3.2500,52.8750,171.5000,-24.3125,155.5625,0
1776973482.937,9.8138,1.3455,0.2610,0.3786,0.6118,0.5372,-89.1000,-2.2500,-16.9500,9.1913,1.9776,0.8380,0.5817,0.7530,0.7349,-105.4500,16.6500,-5.1000,-3.9600,-3.5200,-8.3100,-0.0873,-0.2956,0.1418,24.3750,-3.2500,52.8750,171.5000,-24.3125,155.5625,0
1776973482.942,9.5816,0.4214,0.7853,0.3136,0.6209,0.5404,-89.4000,-3.3000,-18.6000,8.9232,2.7270,0.5842,0.4903,0.7234,0.7565,-105.4500,16.6500,-5.1000,-3.7300,-3.6100,-8.1000,-0.0807,-0.2891,0.1385,24.6875,-3.2500,52.8750,171.5625,-24.4375,155.5625,0
1776973482.947,9.5816,0.4214,0.7853,0.3136,0.6209,0.5404,-89.4000,-3.3000,-18.6000,8.9232,2.7270,0.5842,0.4903,0.7234,0.7565,-107.1000,16.8000,-3.4500,-3.7300,-3.6100,-8.1000,-0.0807,-0.2891,0.1385,24.6875,-3.2500,52.8750,171.5625,-24.4375,155.5625,0
1776973482.952,9.5792,-0.3328,1.1516,0.1159,0.6222,0.5646,-90.1500,-4.5000,-16.0500,9.2153,2.5163,0.9649,0.4261,0.6696,0.7392,-107.1000,16.8000,-3.4500,-3.7900,-3.8300,-8.0300,-0.0938,-0.3109,0.1473,24.6875,-3.2500,52.8750,171.5625,-24.6250,155.6250,0
1776973482.957,9.5792,-0.3328,1.1516,0.1159,0.6222,0.5646,-90.1500,-4.5000,-16.0500,9.2153,2.5163,0.9649,0.4261,0.6696,0.7392,-108.3000,19.2000,-2.2500,-3.7900,-3.8300,-8.0300,-0.0993,-0.3294,0.1560,24.6875,-3.2500,52.8750,171.6250,-24.8750,155.6875,0
1776973482.963,10.0317,-0.4812,1.2977,-0.1519,0.5860,0.5929,-90.9000,-3.3000,-16.0500,9.1219,1.5371,0.5986,0.2475,0.7101,0.7088,-108.3000,19.2000,-2.2500,-4.0200,-3.5600,-8.1400,-0.0993,-0.3294,0.1560,24.6875,-3.2500,52.8750,171.6875,-25.0625,155.7500,0
1776973482.972,9.5265,-0.3783,1.0750,-0.3331,0.5561,0.6041,-90.1500,-5.2500,-15.3000,8.9280,0.5028,0.9194,0.0576,0.7064,0.6957,-110.2500,18.9000,-2.5500,-4.1600,-4.4000,-7.7100,-0.1025,-0.3098,0.1887,24.6875,-3.2500,52.8750,171.6875,-25.0625,155.7500,0
1776973482.982,9.4451,-0.0479,1.1372,-0.3981,0.5641,0.6305,-88.8000,-4.9500,-14.7000,9.6343,0.1221,0.8859,-0.1162,0.6182,0.6877,-110.2500,18.9000,-2.5500,-4.0600,-3.7100,-7.9700,-0.1484,-0.2629,0.2236,24.6875,-3.2500,52.8750,171.7500,-25.2500,155.8750,0
1776973482.987,9.4451,-0.0479,1.1372,-0.3981,0.5641,0.6305,-88.8000,-4.9500,-14.7000,9.6343,0.1221,0.8859,-0.1162,0.6182,0.6877,-113.2500,16.5000,-0.3000,-4.0600,-3.7100,-7.9700,-0.1484,-0.2629,0.2236,24.6875,-3.2500,52.8750,171.8125,-25.4375,156.0000,0
1776973482.992,9.5840,0.1460,0.6632,-0.4988,0.5566,0.6502,-89.5500,-4.6500,-16.2000,9.2368,0.0192,0.7709,-0.2963,0.6315,0.6891,-113.2500,16.5000,-0.3000,-4.4400,-3.5400,-8.1300,-0.2073,-0.2662,0.2509,25.5000,-3.6875,52.0625,171.8125,-25.4375,156.0000,0
1776973482.997,9.7588,0.4908,0.5100,-0.4988,0.5566,0.6502,-89.5500,-4.6500,-16.2000,9.2368,0.0192,0.7709,-0.2963,0.6315,0.6891,-113.7000,15.3000,-0.3000,-4.4400,-3.5400,-8.1300,-0.2073,-0.2662,0.2509,25.5000,-3.6875,52.0625,171.8125,-25.4375,156.0000,0
1776973483.002,9.7588,0.4908,0.5100,-0.5292,0.5412,0.6611,-89.5500,-4.6500,-16.2000,9.3709,0.0048,0.6560,-0.5564,0.6611,0.7269,-113.7000,15.3000,-0.3000,-4.1600,-3.4200,-8.1700,-0.2389,-0.2269,0.2345,25.5000,-3.6875,52.0625,171.8750,-25.6250,156.1875,0
1776973483.008,9.7516,0.7614,0.3304,-0.4485,0.5217,0.6478,-89.5500,-4.6500,-16.2000,9.3709,0.0048,0.6560,-0.7831,0.5596,0.7730,-112.9500,13.0500,0.6000,-4.2200,-3.4100,-8.2300,-0.2662,-0.2138,0.2149,25.5000,-3.6875,52.0625,171.9375,-25.7500,156.3750,0
1776973483.013,9.7516,0.7614,0.3304,-0.4485,0.5217,0.6478,-89.7000,-5.2500,-15.6000,9.7300,0.4190,0.1604,-0.7831,0.5596,0.7730,-112.9500,13.0500,0.6000,-4.2200,-3.4100,-8.2300,-0.2662,-0.2138,0.2149,25.5000,-3.6875,52.0625,172.0000,-25.9375,156.5625,0
1776973483.022,9.5696,0.8882,0.5459,-0.2435,0.5164,0.6408,-91.5000,-5.4000,-15.9000,9.4954,1.2594,-0.0479,-0.8055,0.6502,0.8420,-111.7500,10.0500,1.0500,-4.3300,-3.3200,-8.2500,-0.2825,-0.2083,0.2083,25.5000,-3.6875,52.0625,172.0000,-25.9375,156.5625,0
1776973483.032,9.8378,0.7973,0.6823,-0.1085,0.5332,0.6270,-89.8500,-5.4000,-15.4500,11.4850,1.6233,-0.5052,-0.8431,0.5119,0.8676,-112.2000,7.0500,1.0500,-4.3300,-3.2400,-8.2300,-0.2902,-0.1876,0.1931,25.5000,-3.6875,52.0625,172.0625,-26.0625,156.7500,0
1776973483.037,9.6678,0.4645,1.0175,0.0021,0.5127,0.5977,-89.8500,-5.4000,-15.4500,11.4850,1.6233,-0.5052,-0.8431,0.5119,0.8676,-112.2000,7.0500,1.0500,-4.3300,-3.2400,-8.2300,-0.2902,-0.1876,0.1931,25.5000,-3.6875,52.0625,172.1250,-26.1875,156.9375,0
1776973483.042,9.6678,0.4645,1.0175,0.0021,0.5127,0.5977,-89.7000,-6.0000,-15.6000,10.2424,1.6927,0.1317,-0.8759,0.4823,0.8671,-112.2000,7.0500,1.0500,-4.1900,-3.4000,-8.1400,-0.2880,-0.1865,0.1844,26.1875,-4.6875,52.1875,172.1250,-26.1875,156.9375,0
1776973483.047,9.6031,0.0694,1.2402,0.0866,0.5252,0.6019,-89.7000,-6.0000,-15.6000,10.2424,1.6927,0.1317,-0.9579,0.5713,0.8607,-109.8000,1.9500,0.4500,-4.1900,-3.4000,-8.1400,-0.2880,-0.1865,0.1844,26.1875,-4.6875,52.1875,172.1250,-26.3125,157.1250,0
1776973483.052,9.6031,0.0694,1.2402,0.0866,0.5252,0.6019,-90.3000,-6.9000,-14.7000,9.0668,1.7813,0.6273,-0.9579,0.5713,0.8607,-109.8000,1.9500,0.4500,-4.2800,-3.3800,-8.1700,-0.2858,-0.1844,0.1876,26.1875,-4.6875,52.1875,172.1250,-26.3125,157.1250,0
1776973483.198,9.3158,0.5363,0.6800,-0.0477,0.6739,0.8487,-90.1500,-10.3500,-11.5500,9.3422,0.3496,0.2658,-0.2798,0.7376,0.5391,-103.3500,-14.4000,6.4500,-4.2400,-3.2600,-8.1500,-0.2356,-0.0654,0.1473,27.2500,-7.1875,51.7500,172.8750,-27.2500,159.6875,0
1776973483.203,9.6247,-0.0072,0.7254,-0.1418,0.7131,0.8839,-88.8000,-10.0500,-11.1000,9.5265,0.2705,-0.0168,-0.3866,0.7120,0.5287,-103.9500,-16.9500,6.9000,-4.3200,-3.0700,-8.3400,-0.2422,-0.0709,0.1593,27.2500,-7.1875,51.7500,172.8750,-27.2500,159.6875,0
1776973483.208,9.9575,-0.4094,0.9697,-0.1418,0.7131,0.8839,-88.8000,-10.0500,-11.1000,9.5265,0.2705,-0.0168,-0.3866,0.7120,0.5287,-103.9500,-16.9500,6.9000,-4.3200,-3.0700,-8.3400,-0.2302,-0.0764,0.1658,27.2500,-7.1875,51.7500,172.9375,-27.2500,159.8750,0
1776973483.214,9.9575,-0.4094,0.9697,-0.2539,0.7354,0.9206,-89.5500,-12.9000,-10.3500,9.6367,0.0982,-0.1030,-0.4748,0.6989,0.5100,-103.8000,-15.7500,7.0500,-4.1800,-3.1300,-8.3300,-0.2302,-0.0764,0.1658,27.2500,-7.1875,51.7500,172.9375,-27.2500,159.8750,0
1776973483.222,9.8641,-0.2825,1.0487,-0.3653,0.7282,0.9457,-89.4000,-9.9000,-10.5000,9.8282,0.0886,0.3328,-0.6105,0.6805,0.4842,-103.5000,-16.5000,8.5500,-4.1300,-3.2600,-8.3100,-0.2138,-0.0927,0.1789,27.2500,-7.1875,51.7500,172.9375,-27.3125,160.0000,0
1776973483.227,9.8641,-0.2825,1.0487,-0.3653,0.7282,0.9457,-89.4000,-9.9000,-10.5000,9.8282,0.0886,0.3328,-0.6105,0.6805,0.4842,-103.5000,-16.5000,8.5500,-4.1300,-3.2600,-8.3100,-0.2029,-0.1167,0.2018,27.2500,-7.1875,51.7500,173.0000,-27.3750,160.1250,0
1776973483.234,9.9599,-0.5674,1.2929,-0.4543,0.7418,0.9755,-89.4000,-9.9000,-10.5000,10.1179,0.2107,0.8619,-0.7418,0.6773,0.4706,-102.6000,-17.7000,7.9500,-4.2500,-3.0800,-8.3800,-0.2029,-0.1167,0.2018,27.2500,-7.1875,51.7500,173.0000,-27.3750,160.1250,0
1776973483.239,10.3645,-0.7230,1.6376,-0.4956,0.7434,0.9838,-89.4000,-9.9000,-10.5000,10.1179,0.2107,0.8619,-0.7418,0.6773,0.4706,-102.6000,-17.7000,7.9500,-4.2500,-3.0800,-8.3800,-0.2029,-0.1167,0.2018,28.0625,-8.2500,51.7500,173.2500,-27.5000,160.3125,0
1776973483.244,10.3645,-0.7230,1.6376,-0.4956,0.7434,0.9838,-88.2000,-12.3000,-10.5000,10.1442,0.3663,1.2881,-0.8753,0.6976,0.4740,-101.4000,-16.9500,6.4500,-4.3800,-2.9500,-8.4300,-0.1800,-0.1374,0.2138,28.0625,-8.2500,51.7500,173.2500,-27.5000,160.3125,0
1776973483.248,10.3190,-0.8332,1.5251,-0.4751,0.7650,1.0056,-88.2000,-12.3000,-10.5000,10.1442,0.3663,1.2881,-0.8753,0.6976,0.4740,-101.4000,-16.9500,6.4500,-4.3800,-2.9500,-8.4300,-0.1800,-0.1374,0.2138,28.0625,-8.2500,51.7500,173.3750,-27.5625,160.4375,0
1776973483.254,10.3190,-0.8332,1.5251,-0.4751,0.7650,1.0056,-88.2000,-12.3000,-10.5000,9.7085,0.3136,1.4916,-1.0840,0.7069,0.4818,-101.4000,-16.9500,6.4500,-4.3800,-3.0100,-8.5600,-0.1647,-0.1374,0.2171,28.0625,-8.2500,51.7500,173.3750,-27.5625,160.4375,0
1776973483.258,10.2208,-1.4509,1.7238,-0.4594,0.7642,1.0520,-88.2000,-12.3000,-10.5000,9.7085,0.3136,1.4916,-1.0840,0.7069,0.4818,-101.4000,-16.9500,6.4500,-4.3800,-3.0100,-8.5600,-0.1385,-0.1571,0.2247,28.0625,-8.2500,51.7500,173.4375,-27.6875,160.5625,0
1776973483.264,10.2208,-1.4509,1.7238,-0.4594,0.7642,1.0520,-88.8000,-15.1500,-9.9000,9.3589,0.4693,1.6017,-1.2375,0.7232,0.5057,-101.1000,-17.7000,7.9500,-4.6000,-2.5200,-8.7700,-0.1385,-0.1571,0.2247,28.0625,-8.2500,51.7500,173.5625,-27.8125,160.6250,0
1776973483.273,10.4004,-1.0175,1.2857,-0.5348,0.7442,1.0834,-88.6500,-15.4500,-9.9000,9.8569,0.8452,1.4150,-1.3472,0.7178,0.5542,-101.7000,-16.8000,8.5500,-3.6600,-2.7300,-9.3000,-0.0829,-0.1724,0.2247,28.0625,-8.2500,51.7500,173.5625,-27.8125,160.6250,0
1776973483.283,10.5082,-0.8643,0.7422,-0.6352,0.7080,1.1439,-88.0500,-14.4000,-6.9000,9.8809,1.1229,1.0989,-1.3907,0.6051,0.5708,-101.1000,-16.9500,9.3000,-3.9800,-1.5800,-9.8200,-0.0567,-0.2269,0.2073,28.0625,-8.2500,51.7500,173.6250,-28.0000,160.6875,0
1776973483.288,9.9623,0.2753,0.5387,-0.5428,0.6987,1.2343,-88.0500,-14.4000,-6.9000,9.8809,1.1229,1.0989,-1.3907,0.6051,0.5708,-101.1000,-16.9500,9.3000,-3.9800,-1.5800,-9.8200,-0.0567,-0.2269,0.2073,28.0625,-8.2500,51.7500,173.6250,-28.0000,160.6875,0
1776973483.293,9.9623,0.2753,0.5387,-0.5428,0.6987,1.2343,-88.0500,-14.4000,-6.9000,9.9048,1.5945,0.5818,-1.3808,0.5377,0.5564,-99.9000,-18.0000,8.8500,-4.8900,-2.6500,-8.4700,0.0033,-0.3327,0.1604,28.3750,-9.0625,51.3750,173.8125,-28.1875,160.7500,0
1776973483.298,9.9982,1.4461,0.4693,-0.4722,0.7442,1.2638,-87.7500,-15.4500,-9.7500,9.9048,1.5945,0.5818,-1.3808,0.5377,0.5564,-99.9000,-18.0000,8.8500,-4.8900,-2.6500,-8.4700,0.0033,-0.3327,0.1604,28.3750,-9.0625,51.3750,173.8125,-28.1875,160.7500,0
1776973483.303,9.9982,1.4461,0.4693,-0.4722,0.7442,1.2638,-87.6000,-18.0000,-7.3500,10.2951,1.8196,-0.0359,-1.2396,0.4226,0.5119,-99.9000,-18.0000,8.8500,-3.8700,-2.9000,-9.1100,0.0742,-0.4036,0.1560,28.3750,-9.0625,51.3750,173.8750,-28.4375,160.6875,0
1776973483.307,10.4794,1.2115,0.6560,-0.4162,0.8263,1.3478,-87.6000,-18.0000,-7.3500,10.2951,1.8196,-0.0359,-1.2396,0.4226,0.5119,-99.9000,-18.0000,8.8500,-3.8700,-2.9000,-9.1100,0.1364,-0.5072,0.1778,28.3750,-9.0625,51.3750,173.9375,-28.7500,160.6250,0
1776973483.314,10.4794,1.2115,0.6560,-0.4162,0.8263,1.3478,-87.3000,-15.9000,-7.3500,10.4651,2.1117,-0.2322,-1.0528,0.3128,0.4463,-99.9000,-18.0000,8.8500,-4.0600,-2.6500,-9.3100,0.1364,-0.5072,0.1778,28.3750,-9.0625,51.3750,174.0000,-29.1250,160.5000,0
1776973483.323,10.9152,0.9816,0.2155,-0.2465,0.8697,1.4554,-87.3000,-15.9000,-7.3500,10.9152,2.7916,0.1939,-0.9470,0.2601,0.3813,-101.7000,-19.5000,9.1500,-3.7900,-2.9500,-9.4100,0.1985,-0.6578,0.2083,28.3750,-9.0625,51.3750,174.0000,-29.1250,160.5000,0
1776973483.333,11.3198,0.0646,-0.5507,-0.2846,0.9182,1.5444,-87.3000,-15.9000,-7.3500,11.1259,3.7972,0.1101,-0.8103,0.2489,0.3107,-99.1500,-17.5500,9.1500,-3.7900,-3.0500,-9.4000,0.2454,-0.8094,0.2345,28.3750,-9.0625,51.3750,174.1250,-29.5625,160.3125,0
1776973483.338,11.3198,0.0646,-0.5507,-0.3070,0.9832,1.6529,-86.2500,-18.4500,-6.0000,10.9798,4.7285,-0.1365,-0.7663,0.1671,0.2196,-99.1500,-17.5500,9.1500,-3.7900,-3.0500,-9.4000,0.2454,-0.8094,0.2345,28.3750,-9.0625,51.3750,174.3125,-30.1250,160.1875,0
1776973483.343,11.5951,0.2634,-0.7925,-0.3070,0.9832,1.6529,-86.2500,-18.4500,-6.0000,10.9798,4.7285,-0.1365,-0.7663,0.1671,0.2196,-101.2500,-19.5000,9.1500,-3.7100,-2.9700,-9.6800,0.2869,-0.9665,0.2683,28.3750,-9.3750,50.2500,174.3125,-30.1250,160.1875,0
1776973483.348,11.5951,0.2634,-0.7925,-0.3472,1.0096,1.7784,-85.9500,-19.6500,-7.9500,10.7691,5.2385,-0.1700,-0.7938,0.1005,0.1180,-101.2500,-19.5000,9.1500,-3.7100,-2.9700,-9.6800,0.2869,-0.9665,0.2683,28.3750,-9.3750,50.2500,174.4375,-30.8125,159.9375,0
1776973483.353,11.9135,1.0223,-0.3208,-0.3472,1.0096,1.7784,-85.9500,-19.6500,-7.9500,10.7691,5.2385,-0.1700,-0.7938,0.1005,0.1180,-102.3000,-19.5000,9.9000,-3.5700,-3.0400,-9.8400,0.3087,-1.1956,0.3152,28.3750,-9.3750,50.2500,174.4375,-30.8125,159.9375,0
1776973483.358,11.9135,1.0223,-0.3208,-0.3443,1.0504,1.9100,-86.8500,-19.5000,-7.3500,10.9990,5.8251,0.0718,-0.8199,0.0160,0.0083,-102.3000,-19.5000,9.9000,-3.5700,-3.0400,-9.8400,0.2978,-1.5206,0.4069,28.3750,-9.3750,50.2500,174.5625,-31.6875,159.7500,0
1776973483.364,12.7970,2.0231,-0.6105,-0.3008,1.0666,2.0486,-86.5500,-20.2500,-5.8500,10.9990,5.8251,0.0718,-0.8199,0.0160,0.0083,-102.3000,-19.5000,9.9000,-3.6000,-2.7200,-10.0500,0.2978,-1.5206,0.4069,28.3750,-9.3750,50.2500,174.6875,-32.7500,159.5000,0
1776973483.373,13.6517,2.0901,-1.1037,-0.2284,1.1032,2.1743,-86.5500,-20.2500,-5.8500,11.5329,6.4404,0.1963,-0.7213,-0.0613,-0.1159,-100.8000,-18.1500,9.7500,-3.1700,-2.6600,-10.9500,0.2760,-1.8850,0.5181,28.3750,-9.3750,50.2500,174.6875,-32.7500,159.5000,0
1776973483.383,14.3820,1.3312,-2.6935,-0.1756,1.1679,2.3118,-85.0500,-23.8500,-5.1000,12.3756,6.8091,-0.2753,-0.5236,-0.1927,-0.2356,-103.0500,-19.5000,10.2000,-3.1900,-2.8300,-10.7900,0.3022,-2.2897,0.6436,28.3750,-9.3750,50.2500,174.8750,-34.1250,159.3125,0
1776973483.388,14.3820,1.3312,-2.6935,-0.1756,1.1679,2.3118,-85.3500,-23.8500,-5.5500,12.4977,7.1443,-1.3719,-0.2337,-0.3874,-0.3643,-103.0500,-19.5000,10.2000,-3.1900,-2.8300,-10.7900,0.3022,-2.2897,0.6436,28.3750,-9.3750,50.2500,175.2500,-35.6250,158.9375,0
1776973483.393,15.1912,0.5004,-3.0574,-0.2081,1.2468,2.4413,-85.3500,-23.8500,-5.5500,12.4977,7.1443,-1.3719,-0.2337,-0.3874,-0.3643,-104.5500,-19.5000,10.6500,-2.7200,-3.1800,-11.0600,0.4701,-2.6780,0.8301,30.1875,-9.3750,49.5000,175.2500,-35.6250,158.9375,0
1776973483.398,15.1912,0.5004,-3.0574,-0.2081,1.2468,2.4413,-85.3500,-23.8500,-5.5500,11.7076,7.6327,-2.6145,0.2046,-0.6265,-0.5031,-104.5500,-19.5000,10.6500,-2.7200,-3.1800,-11.0600,0.4701,-2.6780,0.8301,30.1875,-9.3750,49.5000,175.6875,-37.5000,158.5625,0
1776973483.403,15.5743,2.0734,-3.8403,-0.2185,1.3049,2.6319,-85.3500,-23.8500,-5.5500,11.7076,7.6327,-2.6145,0.2046,-0.6265,-0.5031,-105.6000,-21.7500,10.6500,-2.1800,-4.3800,-11.1100,0.6087,-3.1285,1.1039,30.1875,-9.3750,49.5000,175.6875,-37.5000,158.5625,0
1776973483.408,15.5743,2.0734,-3.8403,-0.2185,1.3049,2.6319,-82.9500,-26.7000,-3.7500,10.6877,7.5346,-2.9832,0.6411,-0.7226,-0.6840,-105.6000,-21.7500,10.6500,-2.1800,-4.3800,-11.1100,0.6621,-3.6685,1.4039,30.1875,-9.3750,49.5000,176.2500,-39.6875,158.1875,0
1776973483.414,16.8935,2.9449,-5.2888,-0.5676,1.3230,2.8221,-82.9500,-26.7000,-3.7500,10.6877,7.5346,-2.9832,0.6411,-0.7226,-0.6840,-105.6000,-21.7500,10.6500,-2.0900,-3.1900,-11.5200,0.6621,-3.6685,1.4039,30.1875,-9.3750,49.5000,222.1250,-42.1875,157.8125,0
1776973483.423,16.7474,3.8834,-5.1547,-0.7282,1.3011,2.9300,-82.9500,-26.7000,-3.7500,9.9096,7.7596,-2.6480,0.9252,-0.7250,-0.8855,-105.6000,-21.7500,10.6500,-1.5900,-3.0400,-11.9800,0.7079,-4.1670,1.6984,30.1875,-9.3750,49.5000,222.1250,-42.1875,157.8125,0
1776973483.433,16.4218,4.4412,-3.4907,-0.6302,1.3025,2.9953,-80.5500,-29.5500,-1.9500,9.9790,7.2401,-1.8364,1.1522,-0.8482,-1.0206,-108.3000,-21.4500,9.0000,-1.5700,-4.1900,-11.6800,0.7199,-4.7146,2.0224,30.1875,-9.3750,49.5000,219.6875,-45.0000,157.4375,0
1776973483.438,16.4218,4.4412,-3.4907,-0.6302,1.3025,2.9953,-79.6500,-30.4500,-2.1000,11.3988,5.3079,-1.4365,1.5039,-1.4277,-1.1293,-110.5500,-19.2000,9.0000,-1.5700,-4.1900,-11.6800,0.7199,-4.7146,2.0224,30.1875,-9.3750,49.5000,219.6875,-45.0000,157.4375,0
1776973483.443,15.9885,4.1827,-2.2098,-0.4383,1.2406,2.9844,-79.6500,-30.4500,-2.1000,11.3988,5.3079,-1.4365,1.5039,-1.4277,-1.1293,-110.5500,-19.2000,9.0000,-3.1700,-5.6000,-11.8300,0.6861,-5.4694,2.3955,35.6875,-8.2500,47.5000,216.9375,-48.3125,157.1250,0
1776973483.448,15.9885,4.1827,-2.2098,-0.4383,1.2406,2.9844,-78.0000,-31.0500,-2.7000,11.1546,4.4269,1.3288,2.5263,-1.4893,-1.3917,-110.4000,-20.2500,7.8000,-3.1700,-5.6000,-11.8300,0.6861,-5.4694,2.3955,35.6875,-8.2500,47.5000,216.9375,-48.3125,157.1250,0
1776973483.452,14.6669,3.4069,-0.0958,-0.2217,1.2121,2.9023,-78.0000,-31.0500,-2.7000,11.1546,4.4269,1.3288,2.5263,-1.4893,-1.3917,-110.4000,-20.2500,7.8000,-6.2200,-6.6100,-12.7600,0.5705,-6.4054,2.7543,35.6875,-8.2500,47.5000,213.8125,-52.1875,156.8125,0
1776973483.457,14.6669,3.4069,-0.0958,-0.2217,1.2121,2.9023,-76.5000,-34.5000,-1.6500,11.6023,2.9975,-0.2418,2.3491,-1.6030,-1.5076,-109.5000,-18.1500,7.2000,-6.2200,-6.6100,-12.7600,0.5705,-6.4054,2.7543,35.6875,-8.2500,47.5000,210.6250,-56.5625,156.4375,0
1776973483.464,12.9526,2.4612,3.6631,0.1154,1.2662,2.7406,-76.5000,-34.5000,-1.6500,13.1633,1.4605,1.0870,2.1013,-1.8650,-1.5777,-109.5000,-18.1500,7.2000,-10.9500,-7.0300,-13.9200,0.5007,-7.2998,3.0140,35.6875,-8.2500,47.5000,207.6875,-61.2500,155.8125,0
1776973483.473,12.2607,1.2809,6.0669,0.5993,1.2574,2.5564,-77.4000,-32.8500,-1.0500,14.0013,0.2945,2.8898,2.0022,-1.8013,-1.7086,-109.5000,-18.1500,7.2000,-16.9500,-6.9800,-14.5700,0.5487,-7.8376,3.0761,35.6875,-8.2500,47.5000,207.6875,-61.2500,155.8125,0
1776973483.483,12.5911,0.0790,7.8530,1.1892,1.2638,2.4205,-74.8500,-34.5000,0.4500,14.5089,-0.3424,4.4269,1.6723,-1.6843,-1.8554,-106.0500,-18.0000,6.0000,-18.0700,-7.2800,-15.3900,0.5552,-7.8202,3.0609,35.6875,-8.2500,47.5000,205.1250,-65.8750,155.0000,0
1776973483.488,13.3836,-1.3934,6.8163,1.4914,1.3939,2.3699,-74.8500,-34.5000,0.4500,14.5089,-0.3424,4.4269,1.6723,-1.6843,-1.8554,-104.7000,-18.4500,4.3500,-18.0700,-7.2800,-15.3900,0.5552,-7.8202,3.0609,35.6875,-8.2500,47.5000,203.0000,-70.2500,153.8750,0
1776973483.493,13.3836,-1.3934,6.8163,1.4914,1.3939,2.3699,-74.8500,-34.5000,0.4500,14.6765,-1.5897,5.1930,1.0203,-1.5910,-1.9825,-104.7000,-18.4500,4.3500,-17.4000,-8.7100,-15.4800,0.6730,-7.4133,2.9180,45.5625,-11.2500,37.2500,203.0000,-70.2500,153.8750,0
1776973483.498,13.8505,-3.3088,5.9137,1.9838,1.4517,2.3076,-72.4500,-37.0500,2.5500,14.6765,-1.5897,5.1930,1.0203,-1.5910,-1.9825,-103.8000,-15.3000,3.4500,-17.4000,-8.7100,-15.4800,0.6730,-7.4133,2.9180,45.5625,-11.2500,37.2500,201.3125,-74.3125,152.3750,0
1776973483.503,13.8505,-3.3088,5.9137,1.9838,1.4517,2.3076,-72.4500,-37.0500,2.5500,14.8536,-1.6065,5.1020,0.1372,-1.3323,-1.9897,-103.8000,-15.3000,3.4500,-12.0800,-9.5600,-14.4800,0.7407,-6.7784,2.7500,45.5625,-11.2500,37.2500,201.3125,-74.3125,152.3750,0
1776973483.510,13.2735,-4.0917,7.1682,2.5479,1.4570,2.1863,-72.4500,-37.9500,4.0500,14.8536,-1.6065,5.1020,0.1372,-1.3323,-1.9897,-100.2000,-15.0000,2.4000,-2.9100,-10.7600,-12.6900,0.6774,-6.2286,2.7696,45.5625,-11.2500,37.2500,199.7500,-78.0625,150.8125,0
1776973483.514,13.2735,-4.0917,7.1682,2.5479,1.4570,2.1863,-72.4500,-37.9500,4.0500,14.8680,-1.7693,4.8842,-0.4956,-1.0789,-1.9260,-100.2000,-15.0000,2.4000,-2.9100,-10.7600,-12.6900,0.6774,-6.2286,2.7696,45.5625,-11.2500,37.2500,198.1250,-81.6250,149.6250,0
1776973483.524,11.5855,-3.5865,7.2472,2.8786,1.2327,2.0171,-71.7000,-37.0500,4.3500,14.0228,-1.6041,4.3144,-0.4295,-1.0680,-1.8508,-100.2000,-15.0000,2.4000,-0.2900,-10.8300,-10.5500,0.4592,-5.7018,2.9125,45.5625,-11.2500,37.2500,198.1250,-81.6250,149.6250,0
1776973483.534,9.3972,-3.9576,7.5537,2.7574,0.8623,1.8093,-70.0500,-36.9000,5.7000,13.0723,-1.1947,4.0079,-0.2286,-1.2100,-1.8285,-100.2000,-15.0000,2.4000,1.4300,-5.2100,-10.6000,-0.0240,-5.4280,2.9660,45.5625,-11.2500,37.2500,196.2500,-85.0625,177.3750,0
1776973483.538,6.8666,-5.9161,9.8450,2.8850,0.3864,1.6779,-68.2500,-38.2500,7.6500,13.0723,-1.1947,4.0079,-0.2286,-1.2100,-1.8285,-96.1500,-10.0500,0.6000,1.4300,-5.2100,-10.6000,-0.0240,-5.4280,2.9660,45.5625,-11.2500,37.2500,196.2500,-85.0625,177.3750,0
1776973483.543,6.8666,-5.9161,9.8450,2.8850,0.3864,1.6779,-68.2500,-38.2500,7.6500,12.1458,-0.7230,4.7405,-0.2627,-1.4360,-1.8317,-96.1500,-10.0500,0.6000,-21.5100,-13.9300,-12.9700,-0.4592,-4.8498,2.9954,55.0625,-15.5625,20.8750,194.2500,-88.1875,179.0625,0
1776973483.548,6.0837,-5.6503,12.9263,3.0880,0.1045,1.5828,-67.3500,-37.6500,9.3000,12.1458,-0.7230,4.7405,-0.2627,-1.4360,-1.8317,-95.7000,-8.7000,-0.1500,-21.5100,-13.9300,-12.9700,-0.4592,-4.8498,2.9954,55.0625,-15.5625,20.8750,194.2500,-88.1875,179.0625,0
1776973483.553,6.0837,-5.6503,12.9263,3.0880,0.1045,1.5828,-67.3500,-37.6500,9.3000,11.1809,0.2370,4.8435,-0.2918,-1.5985,-1.8596,-95.7000,-8.7000,-0.1500,-7.7200,-13.8200,-12.2500,-0.3403,-2.2133,2.0606,55.0625,-15.5625,20.8750,192.8750,-89.5625,-179.6875,0
1776973483.558,4.4053,-4.0031,10.9918,2.6910,-0.1159,1.3630,-67.3500,-37.6500,9.3000,11.1809,0.2370,4.8435,-0.2918,-1.5985,-1.8596,-94.8000,-9.0000,-1.0500,-7.7200,-13.8200,-12.2500,-0.5967,0.4658,0.8345,55.0625,-15.5625,20.8750,192.1250,-89.0625,-179.2500,0
1776973483.564,3.9600,-1.6592,7.9152,2.6910,-0.1159,1.3630,-67.3500,-37.6500,9.3000,9.8833,1.8651,4.2497,-0.0597,-1.3888,-1.8932,-94.8000,-9.0000,-1.0500,-5.0000,-15.2200,-12.3700,-0.5967,0.4658,0.8345,55.0625,-15.5625,20.8750,191.1250,-88.1875,-179.1250,0
1776973483.574,3.9361,-0.7901,5.2816,1.8098,-0.6113,0.9537,-65.4000,-35.7000,11.2500,8.9902,3.4213,3.7924,0.0533,-1.2881,-1.9494,-93.6000,-6.0000,-2.4000,-0.0900,-11.6000,-7.0000,-1.6046,1.8740,0.1396,55.0625,-15.5625,20.8750,191.1250,-88.1875,-179.1250,0
1776973483.584,3.9265,-1.1229,4.1515,0.9212,-0.9689,0.4258,-65.4000,-35.7000,11.2500,9.3637,4.8076,4.0366,0.2918,-1.0163,-1.9865,-93.6000,-6.0000,-2.4000,1.6500,-7.8300,-4.6800,-2.7140,2.5067,0.0545,55.0625,-15.5625,20.8750,189.5000,-86.8750,-179.0625,0
1776973483.588,3.9265,-1.1229,4.1515,0.5105,-1.2441,-0.0245,-67.6500,-34.2000,10.8000,9.3637,4.8076,4.0366,0.2918,-1.0163,-1.9865,-96.4500,-4.9500,-1.5000,1.6500,-7.8300,-4.6800,-2.7140,2.5067,0.0545,55.0625,-15.5625,20.8750,189.5000,-86.8750,-179.0625,0
1776973483.594,3.6416,-2.0327,4.5969,0.5564,-1.4642,-0.2819,-67.6500,-34.2000,10.8000,9.1770,5.5450,3.3303,0.5204,-0.7357,-1.9857,-96.4500,-4.9500,-1.5000,1.8200,-4.0700,-3.6100,-3.3968,2.6954,0.1647,56.8750,-20.0625,11.0000,187.3750,-85.4375,-178.8750,0
1776973483.598,3.6416,-2.0327,4.5969,0.5564,-1.4642,-0.2819,-66.9000,-36.4500,11.5500,9.1770,5.5450,3.3303,0.7389,-0.5846,-1.9612,-96.4500,-3.1500,-1.5000,1.8200,-4.0700,-3.6100,-3.3968,2.6954,0.1647,56.8750,-20.0625,11.0000,187.3750,-85.4375,-178.8750,0
1776973483.603,3.5027,-2.9090,6.1699,0.7701,-1.6603,-0.4461,-66.9000,-36.4500,11.5500,9.3302,5.4971,2.9712,0.7389,-0.5846,-1.9612,-96.4500,-3.1500,-1.5000,1.8100,-1.8300,-3.1800,-3.4088,2.7707,0.1287,56.8750,-20.0625,11.0000,185.1875,-83.9375,-178.6250,0
1776973483.611,3.5027,-2.9090,6.1699,0.7701,-1.6603,-0.4461,-67.6500,-34.5000,8.7000,9.5600,4.8937,1.9680,1.0261,-0.3086,-1.9566,-98.5500,-2.4000,-1.9500,1.8900,-1.3600,-2.6800,-2.9463,2.8362,-0.0644,56.8750,-20.0625,11.0000,183.3125,-82.3750,-168.4375,0
1776973483.616,3.5506,-2.7725,7.5824,0.9054,-1.9180,-0.5729,-65.5500,-33.1500,9.1500,9.5600,4.8937,1.9680,1.0261,-0.3086,-1.9566,-99.6000,-1.9500,-0.1500,1.8900,-1.3600,-2.6800,-2.9463,2.8362,-0.0644,56.8750,-20.0625,11.0000,182.0000,-80.8750,-170.2500,0
1776973483.624,3.7804,-2.4972,7.0342,0.7128,-2.2775,-0.6792,-65.5500,-33.1500,9.1500,10.2711,1.5275,-1.4198,0.9132,-0.1783,-1.9321,-99.6000,-1.9500,-0.1500,1.9100,-2.3800,-2.5000,-2.3017,2.8645,-0.2989,56.8750,-20.0625,11.0000,181.0625,-79.3125,-172.3750,0
1776973483.634,3.8259,-1.9704,6.8498,0.5982,-2.6257,-0.7530,-67.9500,-32.4000,9.6000,7.5896,0.9481,3.7972,-0.2659,-0.8905,-1.9521,-99.6000,-1.9500,-0.1500,1.5400,-3.5300,-2.7100,-1.7421,2.8831,-0.5323,56.8750,-20.0625,11.0000,181.0625,-79.3125,-172.3750,0
1776973483.639,3.8259,-1.9704,6.8498,0.5982,-2.6257,-0.7530,-68.7000,-33.1500,8.4000,7.7117,4.3670,7.1658,2.4000,-0.1180,-1.8546,-99.6000,-1.9500,-0.1500,1.5400,-3.5300,-2.7100,-1.7421,2.8831,-0.5323,55.3750,-19.2500,16.8750,180.5625,-77.7500,-174.6875,0
1776973483.644,3.6919,-1.2977,6.5410,0.6153,-2.9356,-0.8274,-68.7000,-33.1500,8.4000,7.7117,4.3670,7.1658,2.4000,-0.1180,-1.8546,-99.6000,-1.9500,-0.1500,-0.5900,-6.7300,-3.5800,-1.3592,2.9158,-0.7909,55.3750,-19.2500,16.8750,180.5625,-77.7500,-174.6875,0
1776973483.649,3.6919,-1.2977,6.5410,0.6153,-2.9356,-0.8274,-68.7000,-33.1500,8.4000,7.7093,4.6208,4.6615,2.0014,0.1442,-1.5910,-103.5000,1.0500,-0.3000,-0.5900,-6.7300,-3.5800,-1.3592,2.9158,-0.7909,55.3750,-19.2500,16.8750,180.3125,-76.1250,-177.1875,0
1776973483.654,3.6152,-1.5131,6.3446,0.7293,-3.1389,-0.9635,-68.7000,-33.1500,8.4000,7.7093,4.6208,4.6615,2.0014,0.1442,-1.5910,-103.5000,1.0500,-0.3000,-1.8600,-8.2000,-4.0600,-1.2228,2.9976,-1.1225,55.3750,-19.2500,16.8750,180.3125,-76.1250,-177.1875,0
1776973483.659,3.6152,-1.5131,6.3446,0.7293,-3.1389,-0.9635,-68.8500,-31.8000,7.5000,7.8650,4.5849,3.9887,2.1671,0.2486,-1.4677,-105.1500,1.6500,0.7500,-1.8600,-8.2000,-4.0600,-1.3243,3.1558,-1.5283,55.3750,-19.2500,16.8750,180.1875,-74.4375,-179.8750,0
1776973483.664,3.4213,-1.7957,6.5362,0.9574,-3.3036,-1.1309,-68.8500,-31.8000,7.5000,7.8650,4.5849,3.9887,2.1671,0.2486,-1.4677,-104.2500,0.7500,2.1000,-3.1800,-9.1800,-4.4400,-1.3243,3.1558,-1.5283,55.3750,-19.2500,16.8750,180.1250,-72.5000,177.3125,0
1776973483.674,3.3375,-2.0734,6.1746,1.1255,-3.3684,-1.3105,-71.7000,-31.6500,6.6000,7.9464,3.7972,3.5099,2.1821,0.4082,-1.3608,-106.0500,1.0500,1.6500,-4.3900,-9.8700,-4.5300,-1.6133,3.3892,-2.0148,55.3750,-19.2500,16.8750,180.0625,-70.3750,174.7500,0
1776973483.684,3.5841,-2.4900,5.6479,1.2561,-3.4272,-1.5031,-72.4500,-29.7000,6.9000,8.4683,2.9209,2.8826,2.2335,0.3027,-1.2257,-106.0500,1.0500,1.6500,-4.6600,-9.4000,-4.4900,-1.9755,3.6532,-2.5013,55.3750,-19.2500,16.8750,180.0625,-70.3750,174.7500,0
1776973483.689,4.0223,-2.3080,4.5801,1.2561,-3.4272,-1.5031,-71.1000,-27.9000,5.7000,8.4156,2.0423,2.7677,2.3824,0.1410,-1.0757,-106.0500,1.0500,1.6500,-4.6600,-9.4000,-4.4900,-1.9755,3.6532,-2.5013,55.3750,-19.2500,16.8750,180.0625,-70.3750,174.7500,0
1776973483.694,4.0223,-2.3080,4.5801,1.3392,-3.5040,-1.6582,-71.1000,-27.9000,5.7000,8.4156,2.0423,2.7677,2.3824,0.1410,-1.0757,-104.5500,2.2500,3.1500,-4.8100,-8.7300,-4.3600,-2.2809,3.8735,-2.9431,51.1875,-17.5000,24.2500,180.0000,-68.0625,172.3125,0
1776973483.699,4.8578,-2.5283,5.0135,1.3392,-3.5040,-1.6582,-72.6000,-27.9000,5.2500,8.1163,2.1069,3.5841,3.1986,-0.0767,-0.8684,-104.5500,2.2500,3.1500,-4.8100,-8.7300,-4.3600,-2.2809,3.8735,-2.9431,51.1875,-17.5000,24.2500,180.0000,-68.0625,172.3125,0
1776973483.704,4.8578,-2.5283,5.0135,1.2950,-3.5543,-1.8005,-72.6000,-27.9000,5.2500,8.1163,2.1069,3.5841,3.1986,-0.0767,-0.8684,-106.8000,3.7500,1.6500,-4.9900,-8.0100,-4.1000,-2.4467,4.0263,-3.3085,51.1875,-17.5000,24.2500,180.0000,-65.6250,170.2500,0
1776973483.711,5.8059,-2.1644,6.2369,1.3147,-3.6711,-1.9319,-74.5500,-26.4000,4.9500,7.1251,2.2434,3.7062,3.6191,-0.1905,-0.6550,-106.8000,3.7500,1.6500,-5.6000,-6.3000,-4.2700,-2.4467,4.1037,-3.5594,51.1875,-17.5000,24.2500,180.1875,-63.0000,168.4375,0
1776973483.716,5.8059,-2.1644,6.2369,1.3147,-3.6711,-1.9319,-74.5500,-26.4000,4.9500,7.0773,1.3072,3.3615,3.9897,-0.1756,-0.4932,-108.1500,3.7500,1.6500,-5.6000,-6.3000,-4.2700,-2.4467,4.1037,-3.5594,51.1875,-17.5000,24.2500,180.5625,-60.3125,166.8750,0
1776973483.724,6.5003,-2.2625,5.6048,1.2843,-3.7688,-2.1032,-74.5500,-26.4000,4.9500,7.0773,1.3072,3.3615,4.2842,0.0176,-0.3858,-107.7000,3.1500,1.5000,-5.8500,-5.5400,-4.8300,-2.2635,4.1266,-3.6946,51.1875,-17.5000,24.2500,181.4375,-57.6250,165.5000,0
1776973483.734,7.1970,-1.8244,5.5713,1.3238,-3.9098,-2.2663,-74.4000,-24.6000,2.5500,6.2153,-0.5531,2.5905,4.1656,0.4165,-0.3086,-107.7000,3.1500,1.5000,-6.2700,-5.6100,-5.2800,-1.8882,4.1190,-3.7317,51.1875,-17.5000,24.2500,181.4375,-57.6250,165.5000,0
1776973483.739,7.4460,-1.8411,5.6383,1.3704,-4.0153,-2.4610,-74.4000,-24.6000,2.5500,6.2153,-0.5531,2.5905,4.1656,0.4165,-0.3086,-107.7000,3.1500,1.5000,-6.2700,-5.6100,-5.2800,-1.8882,4.1190,-3.7317,51.1875,-17.5000,24.2500,181.4375,-57.6250,165.5000,0
1776973483.744,7.4460,-1.8411,5.6383,1.3704,-4.0153,-2.4610,-74.4000,-24.6000,2.5500,7.1994,-1.5969,2.2505,3.8983,0.6142,-0.2910,-107.7000,3.1500,1.5000,-7.1600,-6.9900,-5.8800,-1.4530,4.0993,-3.6750,44.3750,-10.5000,30.3750,182.7500,-54.8750,164.2500,0
1776973483.749,7.3885,-1.5323,5.8490,1.4719,-4.0486,-2.6697,-76.9500,-22.9500,1.3500,7.1994,-1.5969,2.2505,3.8983,0.6142,-0.2910,-107.7000,3.1500,1.5000,-7.1600,-6.9900,-5.8800,-1.4530,4.0993,-3.6750,44.3750,-10.5000,30.3750,182.7500,-54.8750,164.2500,0
1776973483.754,7.3885,-1.5323,5.8490,1.4719,-4.0486,-2.6697,-76.9500,-22.9500,1.3500,7.5346,-2.6480,1.5227,3.5373,0.6662,-0.2955,-113.2500,3.7500,2.8500,-7.3800,-7.4400,-6.0900,-1.1312,4.0819,-3.5299,44.3750,-10.5000,30.3750,184.3750,-52.1875,163.1875,0
1776973483.759,7.7764,-1.6305,5.5737,1.6182,-4.0524,-2.8610,-76.2000,-22.2000,-0.3000,7.5346,-2.6480,1.5227,3.5373,0.6662,-0.2955,-113.2500,3.7500,2.8500,-7.3800,-7.4400,-6.0900,-0.9425,4.0470,-3.3390,44.3750,-10.5000,30.3750,186.3125,-49.5000,162.3125,0
1776973483.765,7.7764,-1.6305,5.5737,1.6182,-4.0524,-2.8610,-76.2000,-22.2000,-0.3000,8.1882,-3.5458,1.3695,3.0537,0.5812,-0.3070,-112.9500,4.5000,5.7000,-7.5900,-7.8400,-6.2100,-0.9425,4.0470,-3.3390,44.3750,-10.5000,30.3750,188.2500,-46.8750,161.7500,0
1776973483.774,8.9352,-2.3511,4.8315,1.6609,-3.9908,-2.9628,-78.1500,-21.4500,-1.3500,7.2425,-3.7733,0.8308,2.3763,0.4453,-0.2694,-114.6000,5.4000,5.8500,-8.7000,-8.2500,-7.0600,-0.8574,3.9510,-3.1089,44.3750,-10.5000,30.3750,188.2500,-46.8750,161.7500,0
1776973483.784,9.9623,-3.2848,4.1396,1.7794,-3.8901,-2.9375,-78.1500,-18.3000,-3.3000,7.4316,-4.0797,0.5722,1.7317,0.4802,-0.2166,-114.7500,4.0500,7.0500,-9.9800,-8.4000,-7.9500,-0.7745,3.7677,-2.8602,44.3750,-10.5000,30.3750,190.3125,-44.3750,161.3125,0
1776973483.789,10.6446,-3.8642,4.0917,1.8802,-3.7859,-2.8309,-78.7500,-19.3500,-4.2000,7.4316,-4.0797,0.5722,1.7317,0.4802,-0.2166,-114.7500,4.0500,7.0500,-9.9800,-8.4000,-7.9500,-0.7745,3.7677,-2.8602,44.3750,-10.5000,30.3750,192.5625,-42.0000,160.9375,0
1776973483.794,10.6446,-3.8642,4.0917,1.8802,-3.7859,-2.8309,-78.7500,-19.3500,-4.2000,7.4555,-3.2585,0.1772,1.2737,0.4303,-0.2012,-114.7500,4.0500,7.0500,-11.3700,-8.7200,-8.8300,-0.6087,3.5768,-2.6791,36.0000,-3.5000,33.1875,192.5625,-42.0000,160.9375,0
1776973483.799,11.0780,-4.7118,4.5705,1.7579,-3.7374,-2.7552,-79.3500,-18.0000,-4.0500,7.4555,-3.2585,0.1772,1.2737,0.4303,-0.2012,-114.7500,4.0500,7.0500,-11.3700,-8.7200,-8.8300,-0.6087,3.5768,-2.6791,36.0000,-3.5000,33.1875,192.5625,-42.0000,160.9375,0
1776973483.804,11.0780,-4.7118,4.5705,1.7579,-3.7374,-2.7552,-79.3500,-18.0000,-4.0500,7.0940,-3.5434,-0.5866,0.8569,0.4892,-0.2326,-114.0000,3.3000,7.8000,-12.6300,-9.1600,-9.6700,-0.3622,3.4950,-2.6354,36.0000,-3.5000,33.1875,151.5000,-39.6875,160.5000,0
1776973483.809,11.0421,-5.0853,4.8842,1.3326,-3.7374,-2.7579,-79.3500,-18.0000,-4.0500,7.0940,-3.5434,-0.5866,0.8569,0.4892,-0.2326,-114.0000,3.3000,7.8000,-12.6300,-9.1600,-9.6700,-0.1102,3.5485,-2.7445,36.0000,-3.5000,33.1875,150.2500,-37.3125,159.9375,0
1776973483.815,10.8122,-5.4061,4.9919,0.7701,-3.6873,-2.8301,-79.3500,-18.0000,-4.0500,6.6511,-3.1747,-1.0798,0.5622,0.4263,-0.1729,-115.0500,2.2500,7.0500,-13.1600,-10.3300,-10.1100,-0.1102,3.5485,-2.7445,36.0000,-3.5000,33.1875,149.0000,-34.8750,159.3125,0
1776973483.824,10.8026,-5.5186,4.5993,0.2617,-3.6276,-2.9537,-79.6500,-14.8500,-5.5500,6.5649,-2.4756,-1.6089,0.3440,0.4639,-0.0333,-112.6500,2.4000,7.9500,-12.5900,-10.5600,-10.0200,0.0349,3.6554,-2.9180,36.0000,-3.5000,33.1875,149.0000,-34.8750,159.3125,0
1776973483.834,10.9415,-4.8387,4.7549,0.0053,-3.5394,-3.0747,-79.6500,-14.8500,-6.9000,6.9097,-1.7717,-2.1332,0.1162,0.5239,0.1372,-112.9500,0.3000,9.6000,-12.3200,-10.2900,-10.0100,0.0567,3.6925,-3.0412,36.0000,-3.5000,33.1875,147.6250,-32.3750,158.7500,0
1776973483.839,10.9415,-4.8387,4.7549,0.0053,-3.5394,-3.0747,-80.8500,-12.4500,-8.1000,6.9097,-1.7717,-2.1332,0.1162,0.5239,0.1372,-112.9500,0.3000,9.6000,-12.3200,-10.2900,-10.0100,0.0567,3.6925,-3.0412,36.0000,-3.5000,33.1875,146.3125,-29.8750,158.1875,0
1776973483.844,10.6590,-3.8092,4.0199,-0.1945,-3.4571,-3.1709,-80.8500,-12.4500,-8.1000,7.5513,-0.7614,-2.5714,-0.2534,0.6328,0.3150,-112.9500,0.3000,9.6000,-12.7100,-9.1600,-10.3300,0.0382,3.6456,-3.0783,25.7500,-2.2500,33.1875,146.3125,-29.8750,158.1875,0
1776973483.849,10.6590,-3.8092,4.0199,-0.1945,-3.4571,-3.1709,-81.7500,-10.6500,-9.7500,7.5513,-0.7614,-2.5714,-0.2534,0.6328,0.3150,-112.9500,0.3000,9.6000,-12.7100,-9.1600,-10.3300,0.0382,3.6456,-3.0783,25.7500,-2.2500,33.1875,146.3125,-29.8750,158.1875,0
1776973483.854,10.5872,-2.9233,3.3208,-0.4026,-3.3718,-3.2770,-81.7500,-10.6500,-9.7500,8.3246,0.3855,-2.7318,-0.4988,0.5212,0.4855,-112.9500,0.3000,9.6000,-13.3700,-8.3800,-10.5300,0.0644,3.5899,-3.0325,25.7500,-2.2500,33.1875,145.0000,-27.3750,157.6875,0
1776973483.859,10.5872,-2.9233,3.3208,-0.4026,-3.3718,-3.2770,-83.1000,-9.7500,-10.3500,8.3246,0.3855,-2.7318,-0.4988,0.5212,0.4855,-112.9500,0.3000,9.6000,-13.3700,-8.3800,-10.5300,0.1963,3.5856,-2.9485,25.7500,-2.2500,33.1875,143.7500,-24.9375,157.2500,0
1776973483.865,9.9503,-2.1811,2.9329,-0.5697,-3.2213,-3.3657,-83.1000,-9.7500,-10.3500,8.7987,1.4102,-2.8683,-0.6840,0.5252,0.6011,-108.6000,-1.5000,9.1500,-14.0700,-8.1400,-10.4800,0.1963,3.5856,-2.9485,25.7500,-2.2500,33.1875,142.6250,-22.4375,156.7500,0
1776973483.874,10.0580,-1.5514,2.8395,-0.6869,-3.0555,-3.3811,-82.9500,-7.5000,-13.8000,8.6143,2.7461,-3.4141,-0.5636,0.3352,0.6835,-107.8500,-0.7500,7.8000,-14.6300,-8.1100,-10.1100,0.4047,3.6401,-2.8340,25.7500,-2.2500,33.1875,142.6250,-22.4375,156.7500,0
1776973483.884,9.8210,-1.3312,2.4325,-0.8727,-2.7653,-3.3305,-82.9500,-7.5000,-13.8000,8.8226,3.4500,-4.5562,-0.4479,0.4290,0.7378,-105.7500,-0.9000,7.9500,-16.0700,-7.5900,-9.1000,0.6163,3.7274,-2.6769,25.7500,-2.2500,33.1875,141.6250,-19.9375,156.1875,0
1776973483.889,9.8210,-1.3312,2.4325,-0.8727,-2.7653,-3.3305,-81.1500,-4.6500,-15.4500,9.1243,4.6687,-5.7940,0.0370,0.4175,0.8236,-105.7500,-0.9000,7.9500,-16.0700,-7.5900,-9.1000,0.6163,3.7274,-2.6769,25.7500,-2.2500,33.1875,141.6250,-19.9375,156.1875,0
1776973483.894,9.7636,-1.4533,2.0686,-0.9803,-2.4576,-3.2298,-81.1500,-4.6500,-15.4500,9.1243,4.6687,-5.7940,0.0370,0.4175,0.8236,-105.6000,-0.7500,7.0500,-16.5600,-7.0900,-8.3000,0.8192,3.8386,-2.5067,22.5625,-5.6875,32.8750,140.7500,-17.4375,155.5625,0
1776973483.899,9.7636,-1.4533,2.0686,-0.9803,-2.4576,-3.2298,-81.1500,-4.6500,-15.4500,11.1881,6.4141,-6.4500,0.5977,0.6992,0.8743,-105.6000,-0.7500,7.0500,-16.5600,-7.0900,-8.3000,0.8192,3.8386,-2.5067,22.5625,-5.6875,32.8750,140.7500,-17.4375,155.5625,0
1776973483.904,9.6798,-1.7286,2.2170,-0.9142,-2.1314,-3.0752,-81.1500,-4.6500,-15.4500,11.1881,6.4141,-6.4500,0.5977,0.6992,0.8743,-105.6000,-0.7500,7.0500,-16.8000,-6.4600,-7.4200,1.0123,3.9510,-2.3387,22.5625,-5.6875,32.8750,140.0000,-14.9375,154.9375,0
1776973483.911,9.3182,-1.8076,1.9800,-0.9025,-1.7858,-2.8919,-82.3500,-1.5000,-18.7500,9.7037,7.3358,-6.8115,1.1357,0.4389,0.8410,-105.3000,0.0000,7.3500,-16.8600,-4.4600,-5.3200,1.1868,4.0263,-2.1609,22.5625,-5.6875,32.8750,139.3750,-12.3750,154.2500,0
1776973483.916,9.3182,-1.8076,1.9800,-0.9025,-1.7858,-2.8919,-82.3500,-1.5000,-18.7500,9.7037,7.3358,-6.8115,1.1357,0.4389,0.8410,-105.3000,0.0000,7.3500,-16.8600,-4.4600,-5.3200,1.1868,4.0263,-2.1609,22.5625,-5.6875,32.8750,138.8750,-9.8750,153.5000,0
1776973483.924,9.0932,-1.5706,1.9944,-0.9481,-1.4333,-2.6785,-82.3500,0.3000,-19.9500,12.2966,8.6455,-6.3829,1.6859,0.2904,0.7837,-104.8500,1.8000,8.8500,-16.7000,-3.3300,-4.0200,1.3592,4.0186,-1.9897,22.5625,-5.6875,32.8750,138.4375,-7.5000,152.6250,0
1776973483.934,8.8322,-0.8667,2.0063,-0.9723,-1.0925,-2.4285,-82.2000,0.4500,-19.8000,11.1809,8.7460,-4.0127,1.8341,0.2827,0.6334,-107.7000,0.4500,8.7000,-16.8300,-2.0000,-2.7400,1.5457,3.8790,-1.8042,22.5625,-5.6875,32.8750,138.4375,-7.5000,152.6250,0
1776973483.939,8.3486,0.5507,1.7621,-0.9814,-0.7053,-2.0478,-81.3000,1.3500,-20.5500,10.5656,8.7987,-1.6544,1.5210,0.1268,0.4724,-106.2000,1.6500,7.9500,-16.8300,-2.0000,-2.7400,1.5457,3.8790,-1.8042,24.1875,-2.6875,39.6875,138.1250,-5.3750,151.6875,0
1776973483.945,8.3486,0.5507,1.7621,-0.9814,-0.7053,-2.0478,-81.3000,1.3500,-20.5500,10.5656,8.7987,-1.6544,1.5210,0.1268,0.4724,-106.2000,1.6500,7.9500,-17.7300,0.6800,-0.0300,1.7770,3.5550,-1.5981,24.1875,-2.6875,39.6875,138.1250,-5.3750,151.6875,0
1776973483.949,7.8290,1.7214,1.3503,-1.0376,-0.3408,-1.5431,-81.3000,1.3500,-20.5500,9.8282,8.2504,0.1413,0.9894,0.3379,0.2609,-106.2000,1.6500,7.9500,-17.7300,0.6800,-0.0300,1.7770,3.5550,-1.5981,24.1875,-2.6875,39.6875,137.8125,-3.5000,150.5625,0
1776973483.954,7.8290,1.7214,1.3503,-1.0376,-0.3408,-1.5431,-81.3000,1.3500,-20.5500,9.8282,8.2504,0.1413,0.9894,0.3379,0.2609,-106.2000,1.6500,7.9500,-18.5900,2.1800,1.0900,2.0737,3.0870,-1.4028,24.1875,-2.6875,39.6875,137.8125,-3.5000,150.5625,0
1776973483.960,6.9863,2.6600,0.9194,-0.8727,0.0565,-0.9523,-81.7500,4.8000,-20.1000,9.7420,8.4467,0.2011,0.6518,0.4612,0.0027,-106.2000,1.6500,7.9500,-19.3400,3.0100,2.2000,2.4271,2.4838,-1.2490,24.1875,-2.6875,39.6875,137.5625,-1.9375,149.1875,0
1776973483.965,6.9863,2.6600,0.9194,-0.8727,0.0565,-0.9523,-81.7500,4.8000,-20.1000,9.7420,8.4467,0.2011,0.6518,0.4612,0.0027,-106.2000,1.6500,7.9500,-19.3400,3.0100,2.2000,2.4271,2.4838,-1.2490,24.1875,-2.6875,39.6875,137.1875,-0.7500,147.6875,0
1776973483.974,6.1866,3.0382,0.7566,-0.5558,0.5004,-0.3757,-81.7500,4.8000,-20.1000,9.7564,8.3270,-1.5107,0.3389,0.8484,-0.2020,-106.2000,5.7000,10.8000,-19.9400,2.6000,3.3200,2.7031,1.8064,-1.1956,24.1875,-2.6875,39.6875,136.6875,0.0625,146.1875,0
