timestamp,thigh_acc_x,thigh_acc_y,thigh_acc_z,thigh_gyro_x,thigh_gyro_y,thigh_gyro_z,thigh_mag_x,thigh_mag_y,thigh_mag_z,shank_acc_x,shank_acc_y,shank_acc_z,shank_gyro_x,shank_gyro_y,shank_gyro_z,shank_mag_x,shank_mag_y,shank_mag_z,foot_acc_x,foot_acc_y,foot_acc_z,foot_gyro_x,foot_gyro_y,foot_gyro_z,foot_mag_x,foot_mag_y,foot_mag_z,foot_euler_x,foot_euler_y,foot_euler_z,perturbation_event
812.284,9.4355,3.1795,-0.4741,0.0895,0.0797,0.0290,-59.2500,21.1500,24.3000,9.5960,1.2426,0.9649,0.0053,-0.0192,-0.0917,-63.3000,22.6500,-9.6000,3.1000,3.7000,-8.5200,-0.0196,0.0142,0.0196,-30.2500,-11.0000,19.1875,267.6250,18.9375,-157.0000,0
812.289,9.2823,2.8898,-0.4142,0.1071,0.0592,0.0272,-59.8500,21.3000,23.4000,9.6271,1.2570,0.9218,-0.0021,-0.0285,-0.0981,-63.3000,22.6500,-9.6000,3.1000,3.7000,-8.5200,-0.0196,0.0142,0.0196,-30.2500,-10.0000,19.1875,267.6250,18.9375,-156.9375,0
812.294,9.2823,2.8898,-0.4142,0.1071,0.0592,0.0272,-59.8500,21.3000,23.4000,9.6271,1.2570,0.9218,-0.0021,-0.0285,-0.0981,-63.1500,22.0500,-8.7000,3.0900,3.7200,-8.5200,-0.0240,0.0131,0.0185,-30.2500,-10.0000,19.1875,267.6250,18.9375,-156.9375,0
812.299,9.1626,2.7557,-0.3663,0.0719,0.0866,0.0261,-59.8500,21.3000,23.4000,9.6391,1.1301,1.0630,-0.0024,-0.0317,-0.1010,-63.1500,22.0500,-8.7000,3.0900,3.7200,-8.5200,-0.0240,0.0131,0.0185,-30.2500,-10.0000,19.1875,267.6875,19.0000,-156.9375,0
812.304,9.1626,2.7557,-0.3663,0.0719,0.0866,0.0261,-59.8500,21.3000,23.4000,9.6391,1.1301,1.0630,-0.0024,-0.0317,-0.1010,-63.3000,22.9500,-8.4000,3.1500,3.7100,-8.5000,-0.0251,0.0218,0.0207,-30.2500,-10.0000,19.1875,267.6875,19.0000,-156.9375,0
812.309,9.1482,2.6360,-0.3807,-0.0011,0.1212,0.0269,-59.2500,21.4500,25.0500,9.6654,1.0989,1.1875,-0.0037,-0.0498,-0.1058,-63.3000,22.9500,-8.4000,3.1500,3.7100,-8.5000,-0.0229,0.0153,0.0185,-30.2500,-10.0000,19.1875,267.6875,19.0000,-156.9375,0
812.315,9.1482,2.6360,-0.3807,-0.0011,0.1212,0.0269,-59.2500,21.4500,25.0500,9.6414,1.1372,1.0008,-0.0037,-0.0498,-0.1058,-63.9000,23.2500,-9.7500,3.0800,3.7600,-8.5200,-0.0229,0.0153,0.0185,-30.2500,-10.0000,19.1875,267.6875,19.0000,-156.9375,0
812.324,9.1602,2.8371,-0.4262,-0.0165,0.1567,0.0344,-60.0000,21.9000,24.3000,9.6127,1.1612,0.8045,-0.0288,-0.0695,-0.1066,-62.7000,22.5000,-8.2500,3.1200,3.6600,-8.5700,-0.0229,0.0164,0.0196,-30.2500,-10.0000,19.1875,267.6875,19.0000,-156.9375,0
812.332,9.2584,3.0933,-0.5363,-0.0075,0.1671,0.0408,-58.3500,20.2500,24.4500,9.6127,1.1612,0.8045,-0.0661,-0.0592,-0.1092,-62.7000,22.5000,-8.2500,3.1500,3.7400,-8.5200,-0.0273,0.0164,0.0207,-30.2500,-10.0000,19.1875,267.6875,19.0000,-156.9375,0
812.337,9.1650,3.3351,-0.5938,-0.0008,0.1490,0.0365,-59.1000,21.3000,24.4500,9.6367,1.4126,0.5602,-0.0871,-0.0690,-0.1156,-63.3000,22.9500,-10.6500,3.1500,3.7400,-8.5200,-0.0273,0.0164,0.0207,-30.2500,-10.0000,19.1875,267.6875,19.0000,-156.9375,0
812.342,9.1650,3.3351,-0.5938,-0.0008,0.1490,0.0365,-59.1000,21.3000,24.4500,9.6367,1.4126,0.5602,-0.0871,-0.0690,-0.1156,-63.3000,22.9500,-10.6500,3.1300,3.7100,-8.4900,-0.0273,0.0109,0.0207,-29.8750,-11.0000,20.0625,267.6875,19.0000,-156.8750,0
812.347,9.1411,3.4141,-0.8356,0.0043,0.1466,0.0362,-59.1000,21.3000,24.4500,9.5481,1.3910,0.5148,-0.0589,-0.0578,-0.1258,-63.3000,22.6500,-8.8500,3.1300,3.7100,-8.4900,-0.0273,0.0109,0.0207,-29.8750,-11.0000,20.0625,267.6875,19.0000,-156.8750,0
812.352,9.1411,3.4141,-0.8356,0.0043,0.1466,0.0362,-59.1000,21.3000,24.4500,9.5481,1.3910,0.5148,-0.0589,-0.0578,-0.1258,-63.3000,22.6500,-8.8500,3.1000,3.7300,-8.5300,-0.0262,0.0142,0.0196,-29.8750,-11.0000,20.0625,267.7500,19.0625,-156.8750,0
812.356,9.0453,3.4740,-1.0606,0.0514,0.1436,0.0466,-59.1000,21.3000,24.4500,9.4691,1.3048,0.4788,-0.0746,-0.0496,-0.1276,-63.3000,22.6500,-8.8500,3.1000,3.7300,-8.5300,-0.0262,0.0142,0.0196,-29.8750,-11.0000,20.0625,267.7500,19.0625,-156.8750,0
812.362,9.0453,3.4740,-1.0606,0.0514,0.1436,0.0466,-56.8500,21.9000,26.4000,9.4691,1.3048,0.4788,-0.0746,-0.0496,-0.1276,-63.3000,22.6500,-8.8500,3.1300,3.7600,-8.5500,-0.0305,0.0175,0.0207,-29.8750,-11.0000,20.0625,267.7500,19.0625,-156.8750,0
812.366,8.9519,3.6009,-1.1875,0.0970,0.1306,0.0458,-56.8500,21.9000,26.4000,9.5313,1.4557,0.2897,-0.0914,-0.0317,-0.1260,-63.1500,23.5500,-9.0000,3.1300,3.7600,-8.5500,-0.0305,0.0175,0.0207,-29.8750,-11.0000,20.0625,267.7500,19.0625,-156.8750,0
812.375,8.9519,3.6009,-1.1875,0.0970,0.1306,0.0458,-58.2000,21.9000,24.0000,9.4786,1.6759,0.1484,-0.1034,-0.0195,-0.1207,-63.1500,23.5500,-9.0000,3.1600,3.7000,-8.5500,-0.0284,0.0131,0.0218,-29.8750,-11.0000,20.0625,267.7500,19.0625,-156.8750,0
812.384,8.9783,3.7972,-1.2953,0.1218,0.1138,0.0480,-58.0500,21.7500,25.6500,9.3948,1.7526,0.0934,-0.1135,-0.0037,-0.1100,-63.0000,22.9500,-9.6000,3.1100,3.7100,-8.5500,-0.0327,0.0120,0.0218,-29.8750,-11.0000,20.0625,267.7500,19.0625,-156.8750,0
812.389,8.9016,3.9696,-1.4413,0.1138,0.1063,0.0408,-59.2500,20.7000,24.0000,9.3948,1.7526,0.0934,-0.1135,-0.0037,-0.1100,-63.0000,22.9500,-9.6000,3.1100,3.7100,-8.5500,-0.0327,0.0120,0.0218,-31.0000,-10.6875,19.5625,267.8125,19.0625,-156.8125,0
812.394,8.9016,3.9696,-1.4413,0.1138,0.1063,0.0408,-59.2500,20.7000,24.0000,9.3565,1.9848,0.1006,-0.1159,0.0115,-0.0938,-63.0000,22.9500,-9.6000,3.1400,3.7500,-8.5700,-0.0469,0.0185,0.0229,-31.0000,-10.6875,19.5625,267.8125,19.0625,-156.8125,0
812.399,8.8035,4.1611,-1.4246,0.0762,0.0927,0.0362,-58.6500,21.4500,25.8000,9.3565,1.9848,0.1006,-0.1159,0.0115,-0.0938,-63.0000,22.9500,-9.6000,3.1400,3.7500,-8.5700,-0.0469,0.0185,0.0229,-31.0000,-10.6875,19.5625,267.8125,19.1250,-156.8125,0
812.404,8.7939,4.3527,-1.2474,-0.0096,0.0746,0.0187,-58.6500,21.4500,25.8000,9.2009,2.1763,-0.0599,-0.1420,0.0314,-0.0837,-63.4500,22.8000,-9.6000,3.1700,3.8300,-8.5500,-0.0524,0.0218,0.0240,-31.0000,-10.6875,19.5625,267.8125,19.1250,-156.8125,0
812.409,8.7939,4.3527,-1.2474,-0.0096,0.0746,0.0187,-58.6500,21.4500,25.8000,9.2009,2.1763,-0.0599,-0.1420,0.0314,-0.0837,-63.4500,22.8000,-9.7500,3.1700,3.8300,-8.5500,-0.0535,0.0196,0.0251,-31.0000,-10.6875,19.5625,267.8125,19.1250,-156.7500,0
812.415,8.7053,4.3527,-1.1013,-0.1242,0.0757,0.0059,-58.6500,21.4500,25.8000,9.3063,2.3727,0.1269,-0.1061,0.0536,-0.0605,-64.3500,22.0500,-9.3000,3.1700,3.9400,-8.4700,-0.0535,0.0196,0.0251,-31.0000,-10.6875,19.5625,267.8125,19.1250,-156.7500,0
812.424,8.6383,4.3503,-0.8954,-0.1868,0.1172,-0.0067,-58.2000,21.4500,24.0000,9.4667,2.4421,0.2394,-0.0693,0.0767,-0.0464,-64.3500,22.0500,-9.3000,3.1400,4.0400,-8.4200,-0.0458,0.0153,0.0196,-31.0000,-10.6875,19.5625,267.8125,19.1250,-156.7500,0
812.431,8.6383,4.3503,-0.8954,-0.1868,0.1172,-0.0067,-57.9000,20.7000,25.8000,9.4523,2.3200,0.4693,-0.0693,0.0767,-0.0464,-62.7000,22.8000,-10.0500,3.1500,4.0100,-8.4500,-0.0305,0.0109,0.0164,-31.0000,-10.6875,19.5625,267.8125,19.1250,-156.6875,0
812.436,8.6862,4.4317,-0.7063,-0.2086,0.1418,-0.0059,-58.0500,22.0500,24.1500,9.4523,2.3200,0.4693,-0.0250,0.0997,-0.0322,-61.8000,23.4000,-10.6500,3.1500,4.0100,-8.4500,-0.0305,0.0109,0.0164,-31.0000,-10.6875,19.5625,267.8125,19.1250,-156.6875,0
812.440,8.6862,4.4317,-0.7063,-0.2086,0.1418,-0.0059,-58.0500,22.0500,24.1500,9.4020,2.1069,0.6297,-0.0080,0.1175,-0.0181,-61.8000,23.4000,-10.6500,3.1700,4.0100,-8.4200,-0.0196,0.0175,0.0153,-29.5000,-11.0000,19.1875,267.8125,19.1250,-156.6875,0
812.445,8.6407,4.4484,-0.6081,-0.2369,0.1527,0.0096,-57.9000,20.7000,26.4000,9.4020,2.1069,0.6297,-0.0080,0.1175,-0.0181,-61.8000,23.4000,-10.6500,3.1700,4.0100,-8.4200,-0.0196,0.0175,0.0153,-29.5000,-11.0000,19.1875,267.8125,19.1250,-156.6250,0
812.455,8.7053,4.4197,-0.5435,-0.2201,0.1772,0.0269,-57.9000,20.7000,26.4000,9.4523,1.9944,0.4453,-0.0309,0.1228,-0.0013,-61.8000,23.4000,-10.6500,3.1900,3.9600,-8.4400,-0.0087,0.0098,0.0120,-29.5000,-11.0000,19.1875,267.8125,19.1250,-156.6250,0
812.462,8.8178,4.3598,-0.5219,-0.1604,0.1812,0.0298,-57.9000,20.7000,26.4000,9.4427,1.9537,0.3687,-0.0640,0.1239,0.0179,-62.5500,22.2000,-9.1500,3.1900,3.9200,-8.4900,0.0011,0.0033,0.0087,-29.5000,-11.0000,19.1875,267.8125,19.1250,-156.6250,0
812.467,8.8178,4.3598,-0.5219,-0.1604,0.1812,0.0298,-57.9000,20.7000,26.4000,9.4427,1.9537,0.3687,-0.0640,0.1239,0.0179,-62.5500,22.2000,-9.1500,3.1900,3.9200,-8.4900,0.0011,0.0033,0.0087,-29.5000,-11.0000,19.1875,267.8125,19.1250,-156.6250,0
812.475,8.9807,4.4628,-0.3567,-0.0991,0.1745,0.0469,-57.9000,21.1500,26.1000,9.4068,1.9441,0.4429,-0.0360,0.1327,0.0163,-62.5500,22.2000,-9.1500,3.1500,4.0500,-8.4600,0.0076,-0.0055,0.0076,-29.5000,-11.0000,19.1875,267.8125,19.1250,-156.6250,0
812.483,9.1722,4.4029,-0.2466,-0.0211,0.1697,0.0655,-57.9000,21.1500,26.1000,9.4619,1.9130,0.4166,-0.0149,0.1423,0.0213,-63.7500,22.6500,-9.1500,3.1300,3.9500,-8.4900,0.0164,-0.0065,0.0065,-29.5000,-11.0000,19.1875,267.8125,19.1250,-156.6250,0
812.488,9.1722,4.4029,-0.2466,-0.0211,0.1697,0.0655,-58.0500,20.5500,26.2500,9.5720,1.9106,0.7590,-0.0149,0.1423,0.0213,-63.0000,22.2000,-9.9000,3.1300,3.9500,-8.4900,0.0164,-0.0065,0.0065,-29.5000,-11.0000,19.1875,267.8125,19.1250,-156.6250,0
812.493,9.2105,4.0701,-0.3304,0.0661,0.1673,0.0893,-58.0500,20.5500,26.2500,9.5720,1.9106,0.7590,0.0352,0.1479,0.0240,-63.0000,22.2000,-9.9000,3.1100,4.0000,-8.5100,0.0218,-0.0098,0.0044,-30.6875,-10.0000,19.1875,267.8125,19.1250,-156.6250,0
812.498,9.2105,4.0701,-0.3304,0.0661,0.1673,0.0893,-57.7500,20.5500,25.6500,9.5553,1.7837,0.9768,0.0352,0.1479,0.0240,-62.2500,21.9000,-8.8500,3.1100,4.0000,-8.5100,0.0218,-0.0098,0.0044,-30.6875,-10.0000,19.1875,267.8125,19.1250,-156.6250,0
812.505,9.1195,3.7421,-0.3065,0.1444,0.1508,0.1127,-57.7500,21.0000,25.2000,9.5553,1.7837,0.9768,0.1135,0.1463,0.0203,-62.2500,21.9000,-8.8500,3.1200,4.0700,-8.5200,0.0305,-0.0087,0.0033,-30.6875,-10.0000,19.1875,267.8125,19.1250,-156.6250,0
812.514,9.2344,3.6392,-0.1460,0.1961,0.1500,0.1311,-57.7500,21.0000,25.2000,9.4834,1.5299,0.9098,0.1316,0.1537,0.0213,-61.0500,24.1500,-9.1500,3.1400,3.9800,-8.5300,0.0425,-0.0087,0.0076,-30.6875,-10.0000,19.1875,267.8125,19.1250,-156.6250,0
812.519,9.2344,3.6392,-0.1460,0.1961,0.1500,0.1311,-57.7500,21.0000,25.2000,9.6103,1.4269,1.1372,0.1063,0.1380,0.0269,-62.5500,22.9500,-9.1500,3.1400,3.9800,-8.5300,0.0480,-0.0011,0.0109,-30.6875,-10.0000,19.1875,267.8125,19.1250,-156.6250,0
812.525,9.0716,3.3878,-0.0335,0.1985,0.1633,0.1567,-57.9000,20.4000,25.3500,9.6103,1.4269,1.1372,0.1063,0.1380,0.0269,-62.5500,22.9500,-9.1500,3.1400,3.9500,-8.5200,0.0480,-0.0011,0.0109,-30.6875,-10.0000,19.1875,267.8125,19.1250,-156.6250,0
812.534,9.1794,3.0837,-0.1341,0.2068,0.1689,0.1612,-57.4500,21.1500,24.7500,9.6319,1.4126,1.1971,0.1010,0.1274,0.0253,-63.7500,22.6500,-9.1500,3.1200,3.9700,-8.5300,0.0524,0.0011,0.0153,-30.6875,-10.0000,19.1875,267.8125,19.1250,-156.6250,0
812.539,9.1794,3.0837,-0.1341,0.2068,0.1689,0.1612,-57.4500,21.1500,24.7500,9.5840,1.2737,1.4269,0.0983,0.1106,0.0237,-63.7500,22.6500,-9.1500,3.1200,3.9700,-8.5300,0.0524,0.0011,0.0153,-30.6875,-10.0000,19.1875,267.8125,19.1250,-156.6250,0
812.544,9.2967,2.8754,-0.2059,0.2241,0.2044,0.1753,-57.7500,21.3000,25.6500,9.5840,1.2737,1.4269,0.0983,0.1106,0.0237,-63.7500,22.6500,-9.1500,3.2000,3.7600,-8.5100,0.0545,0.0076,0.0218,-31.0000,-10.2500,18.3750,267.8125,19.1250,-156.6875,0
812.549,9.2967,2.8754,-0.2059,0.2241,0.2044,0.1753,-57.7500,21.3000,25.6500,9.6151,1.0391,1.1636,0.0608,0.1085,0.0221,-63.3000,22.6500,-10.3500,3.2000,3.7600,-8.5100,0.0545,0.0076,0.0218,-31.0000,-10.2500,18.3750,267.8125,19.1250,-156.6875,0
812.554,9.3158,2.8299,-0.1269,0.2084,0.2009,0.1871,-57.4500,19.2000,25.3500,9.6151,1.0391,1.1636,0.0608,0.1085,0.0221,-63.3000,22.6500,-10.3500,3.2000,3.7500,-8.5400,0.0469,0.0109,0.0207,-31.0000,-10.2500,18.3750,267.8125,19.1250,-156.6875,0
812.558,9.3158,2.8299,-0.1269,0.2084,0.2009,0.1871,-57.4500,19.2000,25.3500,9.6845,1.0151,1.0918,0.0192,0.1021,0.0218,-63.3000,22.6500,-10.3500,3.2000,3.7500,-8.5400,0.0469,0.0109,0.0207,-31.0000,-10.2500,18.3750,267.8125,19.1250,-156.6875,0
812.565,9.3278,2.8252,-0.0910,0.1823,0.1868,0.2108,-57.3000,22.5000,25.6500,9.6319,1.1827,1.2330,0.0003,0.0805,0.0160,-63.3000,22.6500,-10.3500,3.1700,3.7400,-8.5700,0.0349,0.0065,0.0164,-31.0000,-10.2500,18.3750,267.8125,19.1250,-156.6875,0
812.574,9.4786,2.6743,-0.0168,0.2073,0.1868,0.2182,-57.3000,22.5000,25.6500,9.6486,1.3455,1.3623,0.0003,0.0805,0.0160,-61.9500,22.5000,-8.7000,3.1400,3.7800,-8.5800,0.0218,0.0076,0.0142,-31.0000,-10.2500,18.3750,267.8125,19.1250,-156.7500,0
812.580,9.4092,2.7222,0.0263,0.2153,0.1913,0.2180,-57.3000,22.5000,25.6500,9.6486,1.3455,1.3623,-0.0056,0.0767,0.0139,-61.8000,22.6500,-9.1500,3.1400,3.7800,-8.5800,0.0131,0.0109,0.0098,-31.0000,-10.2500,18.3750,267.8125,19.1250,-156.7500,0
812.586,9.4092,2.7222,0.0263,0.2153,0.1913,0.2180,-57.4500,20.4000,25.8000,9.5720,1.3479,1.3671,-0.0035,0.0464,0.0027,-61.8000,22.6500,-9.1500,3.1100,3.8000,-8.5600,0.0131,0.0109,0.0098,-31.0000,-10.2500,18.3750,267.8125,19.1250,-156.7500,0
812.591,9.4523,2.5666,-0.0263,0.1836,0.2036,0.2228,-57.4500,20.4000,25.8000,9.5720,1.3479,1.3671,-0.0035,0.0464,0.0027,-62.7000,22.0500,-8.7000,3.1100,3.8000,-8.5600,0.0011,0.0196,0.0098,-31.0000,-11.0000,19.5625,267.8125,19.1250,-156.6875,0
812.596,9.4523,2.5666,-0.0263,0.1836,0.2036,0.2228,-57.3000,22.0500,25.9500,9.7636,1.3240,1.4676,0.0064,0.0464,-0.0040,-62.7000,22.0500,-8.7000,3.1400,3.8600,-8.5000,0.0011,0.0196,0.0098,-31.0000,-11.0000,19.5625,267.8125,19.1250,-156.6875,0
812.605,9.4954,2.3774,0.1820,0.1516,0.2113,0.2236,-56.2500,20.2500,26.2500,9.8234,1.0319,1.4964,0.0442,0.0200,-0.0123,-63.0000,22.2000,-9.1500,3.1500,3.9000,-8.4900,-0.0022,0.0185,0.0087,-31.0000,-11.0000,19.5625,267.8125,19.1250,-156.6875,0
812.611,9.5098,2.2362,0.2897,0.1383,0.2547,0.2300,-56.2500,20.2500,26.2500,9.8234,1.0319,1.4964,0.0442,0.0200,-0.0123,-63.3000,23.4000,-8.4000,3.1300,3.8600,-8.5700,-0.0044,0.0196,0.0087,-31.0000,-11.0000,19.5625,267.8125,19.1250,-156.6875,0
812.616,9.5098,2.2362,0.2897,0.1383,0.2547,0.2300,-56.1000,20.4000,25.0500,9.6438,0.8523,1.3791,0.0224,0.0003,-0.0181,-63.3000,23.4000,-8.4000,3.1300,3.8600,-8.5700,-0.0044,0.0196,0.0087,-31.0000,-11.0000,19.5625,267.8125,19.1250,-156.6875,0
812.625,9.5768,2.1763,0.1748,0.0938,0.2944,0.2510,-56.1000,20.4000,25.0500,9.6438,1.0032,1.2282,0.0088,-0.0195,-0.0312,-61.8000,22.6500,-8.1000,3.1400,3.8000,-8.5600,-0.0120,0.0262,0.0076,-31.0000,-11.0000,19.5625,267.8125,19.1250,-156.6875,0
812.631,9.4140,2.2529,0.0239,0.1029,0.2811,0.2697,-56.1000,20.4000,25.0500,9.5409,1.2282,1.0942,0.0088,-0.0195,-0.0312,-61.8000,22.6500,-8.1000,3.1600,3.7800,-8.5200,-0.0207,0.0284,0.0098,-31.0000,-11.0000,19.5625,267.8125,19.1250,-156.6875,0
812.636,9.4140,2.2529,0.0239,0.1029,0.2811,0.2697,-55.5000,19.5000,25.9500,9.5409,1.2282,1.0942,-0.0088,-0.0317,-0.0392,-61.8000,22.6500,-8.1000,3.1600,3.7800,-8.5200,-0.0207,0.0284,0.0098,-31.0000,-11.0000,19.5625,267.8125,19.1250,-156.6875,0
812.641,9.5457,2.4612,0.0479,0.1410,0.2971,0.2761,-55.5000,19.5000,25.9500,9.4954,1.4557,0.9840,-0.0088,-0.0317,-0.0392,-62.5500,21.9000,-9.9000,3.1600,3.7800,-8.5200,-0.0316,0.0295,0.0098,-29.8750,-10.6875,18.3750,267.8125,19.1875,-156.6250,0
812.646,9.5457,2.4612,0.0479,0.1410,0.2971,0.2761,-55.6500,21.4500,26.1000,9.4954,1.4557,0.9840,0.0248,-0.0314,-0.0496,-62.5500,21.9000,-9.9000,3.1600,3.7700,-8.5400,-0.0316,0.0295,0.0098,-29.8750,-10.6875,18.3750,267.8125,19.1875,-156.6250,0
812.651,9.4475,2.7031,-0.1437,0.1737,0.2814,0.2798,-55.6500,21.4500,26.1000,9.6007,1.6640,1.1803,0.0248,-0.0314,-0.0496,-62.5500,22.2000,-8.4000,3.1600,3.7700,-8.5400,-0.0316,0.0295,0.0098,-29.8750,-10.6875,18.3750,267.8125,19.1875,-156.6250,0
812.656,9.4475,2.7031,-0.1437,0.1737,0.2814,0.2798,-57.1500,19.6500,25.3500,9.6007,1.6640,1.1803,0.0549,-0.0418,-0.0578,-62.5500,22.2000,-8.4000,3.1700,3.8600,-8.5200,-0.0382,0.0327,0.0087,-29.8750,-10.6875,18.3750,267.8125,19.1875,-156.6250,0
812.660,9.5577,2.7653,0.0982,0.0554,0.2262,0.2742,-57.1500,19.6500,25.3500,9.6558,1.7166,1.5778,0.0549,-0.0418,-0.0578,-63.7500,22.9500,-8.1000,3.1700,3.8600,-8.5200,-0.0447,0.0316,0.0087,-29.8750,-10.6875,18.3750,267.8125,19.1875,-156.5625,0
812.666,9.2847,2.6576,0.4956,0.0128,0.2643,0.2649,-56.1000,20.7000,26.1000,9.6558,1.7166,1.5778,0.0794,-0.0576,-0.0573,-63.7500,22.9500,-8.1000,3.1300,3.8400,-8.5600,-0.0447,0.0316,0.0087,-29.8750,-10.6875,18.3750,267.8125,19.1875,-156.5625,0
812.675,9.2847,2.6576,0.4956,0.0128,0.2643,0.2649,-55.5000,19.5000,24.9000,9.6941,1.6113,1.9201,0.0946,-0.0695,-0.0506,-63.1500,22.8000,-8.2500,3.1600,3.9000,-8.4800,-0.0513,0.0360,0.0109,-29.8750,-10.6875,18.3750,267.8125,19.1875,-156.5625,0
812.682,9.1602,2.3942,0.6847,-0.0187,0.2960,0.2297,-55.5000,19.5000,24.9000,9.6774,1.4988,1.5945,0.0434,-0.0871,-0.0408,-62.5500,22.6500,-7.6500,3.1900,3.8500,-8.4800,-0.0567,0.0371,0.0109,-29.8750,-10.6875,18.3750,267.8125,19.2500,-156.5000,0
812.687,9.4332,2.3391,0.9649,-0.0258,0.3224,0.2150,-55.5000,19.5000,24.9000,9.6774,1.4988,1.5945,0.0434,-0.0871,-0.0408,-62.5500,22.6500,-7.6500,3.1900,3.8500,-8.4800,-0.0567,0.0371,0.0109,-29.8750,-10.6875,18.3750,267.8125,19.2500,-156.5000,0
812.691,9.4332,2.3391,0.9649,-0.0258,0.3224,0.2150,-54.4500,18.7500,26.7000,9.7827,1.1779,1.5682,-0.0032,-0.1148,-0.0376,-62.4000,22.5000,-8.7000,3.1900,3.8500,-8.4800,-0.0611,0.0327,0.0087,-30.2500,-10.6875,19.5625,267.8125,19.2500,-156.4375,0
812.696,9.4763,2.4157,0.8882,-0.0266,0.3533,0.2190,-54.4500,18.7500,26.7000,9.7827,1.1779,1.5682,-0.0032,-0.1148,-0.0376,-62.4000,22.5000,-8.7000,3.2500,3.8900,-8.5000,-0.0611,0.0327,0.0087,-30.2500,-10.6875,19.5625,267.8125,19.2500,-156.4375,0
812.701,9.4763,2.4157,0.8882,-0.0266,0.3533,0.2190,-57.0000,19.8000,27.3000,9.8402,1.3120,1.6664,-0.0522,-0.1514,-0.0480,-62.4000,22.5000,-8.7000,3.2500,3.8900,-8.5000,-0.0644,0.0284,0.0055,-30.2500,-10.6875,19.5625,267.8125,19.2500,-156.4375,0
812.706,9.3302,2.6767,0.9457,-0.0490,0.4016,0.2182,-57.0000,19.8000,27.3000,9.8402,1.3120,1.6664,-0.0522,-0.1514,-0.0480,-62.4000,22.5000,-8.7000,3.1600,3.9000,-8.5100,-0.0644,0.0284,0.0055,-30.2500,-10.6875,19.5625,267.8125,19.2500,-156.4375,0
812.711,9.3302,2.6767,0.9457,-0.0490,0.4016,0.2182,-54.6000,19.2000,27.6000,9.6965,1.3647,1.1732,-0.0933,-0.1532,-0.0493,-60.3000,22.9500,-8.1000,3.1600,3.9000,-8.5100,-0.0654,0.0240,0.0065,-30.2500,-10.6875,19.5625,267.8125,19.2500,-156.3750,0
812.716,9.5170,3.0430,0.8954,-0.0770,0.4335,0.2334,-54.6000,19.2000,27.6000,9.6965,1.3647,1.1732,-0.0933,-0.1532,-0.0493,-60.3000,22.9500,-8.1000,3.2100,3.7900,-8.5600,-0.0654,0.0240,0.0065,-30.2500,-10.6875,19.5625,267.8125,19.2500,-156.3125,0
812.725,9.4667,3.2585,0.7230,-0.0581,0.4048,0.2342,-54.4500,19.5000,27.7500,9.5433,1.6209,1.0199,-0.1066,-0.1657,-0.0474,-60.3000,22.9500,-8.1000,3.2200,3.7500,-8.5300,-0.0742,0.0240,0.0055,-30.2500,-10.6875,19.5625,267.8125,19.2500,-156.3125,0
812.730,9.4667,3.2585,0.7230,-0.0581,0.4048,0.2342,-54.4500,19.5000,27.7500,9.5265,1.8435,0.5842,-0.0885,-0.1719,-0.0469,-61.6500,23.2500,-8.7000,3.2200,3.7500,-8.5300,-0.0873,0.0295,0.0055,-30.2500,-10.6875,19.5625,267.8125,19.3125,-156.3125,0
812.736,9.5648,3.5003,0.6464,0.0426,0.3246,0.2372,-54.4500,19.5000,27.7500,9.5265,1.8435,0.5842,-0.0885,-0.1719,-0.0469,-61.6500,23.2500,-8.7000,3.2200,3.8400,-8.5100,-0.0873,0.0295,0.0055,-30.2500,-10.6875,19.5625,267.8125,19.3125,-156.3125,0
812.741,9.5648,3.5003,0.6464,0.0426,0.3246,0.2372,-54.4500,19.5000,27.7500,9.3829,2.1428,0.3974,-0.0029,-0.1660,-0.0373,-61.9500,24.0000,-8.7000,3.2200,3.8400,-8.5100,-0.0971,0.0305,0.0055,-29.8750,-10.2500,19.5625,267.8125,19.3125,-156.2500,0
812.746,9.3518,3.7972,0.3065,0.1825,0.2574,0.2318,-54.4500,19.5000,27.7500,9.3829,2.1428,0.3974,-0.0029,-0.1660,-0.0373,-61.9500,24.0000,-8.7000,3.1600,3.7800,-8.5700,-0.0971,0.0305,0.0055,-29.8750,-10.2500,19.5625,267.8125,19.3125,-156.2500,0
812.751,9.3518,3.7972,0.3065,0.1825,0.2574,0.2318,-55.2000,18.7500,27.3000,9.3015,2.1572,0.4118,0.0746,-0.1498,-0.0381,-62.5500,22.9500,-7.6500,3.1600,3.7800,-8.5700,-0.1058,0.0360,0.0076,-29.8750,-10.2500,19.5625,267.8125,19.3125,-156.1875,0
812.756,9.5624,3.8810,0.3232,0.2430,0.1815,0.2110,-55.2000,18.7500,27.3000,9.3015,2.1572,0.4118,0.0746,-0.1498,-0.0381,-62.5500,22.9500,-7.6500,3.2000,3.8000,-8.4900,-0.1058,0.0360,0.0076,-29.8750,-10.2500,19.5625,267.8125,19.3125,-156.1875,0
812.761,9.5624,3.8810,0.3232,0.2430,0.1815,0.2110,-53.5500,18.1500,27.6000,9.3925,2.2817,0.3855,0.0999,-0.1220,-0.0322,-62.5500,21.4500,-9.9000,3.2000,3.8000,-8.4900,-0.1113,0.0327,0.0065,-29.8750,-10.2500,19.5625,267.8125,19.3125,-156.1250,0
812.766,9.2751,3.8331,0.4142,0.2702,0.1260,0.1679,-53.5500,18.1500,27.6000,9.4619,2.1644,0.6608,0.0999,-0.1220,-0.0322,-62.5500,21.4500,-9.9000,3.1800,3.9000,-8.4600,-0.1113,0.0327,0.0065,-29.8750,-10.2500,19.5625,267.8125,19.3125,-156.1250,0
812.775,9.1267,3.4405,0.5219,0.3166,0.0893,0.1186,-54.7500,18.3000,27.0000,9.4619,2.1644,0.6608,0.1396,-0.1143,-0.0208,-61.8000,24.1500,-8.8500,3.1600,4.0800,-8.3900,-0.1036,0.0316,0.0022,-29.8750,-10.2500,19.5625,267.8750,19.3750,-156.0000,0
812.780,9.1267,3.4405,0.5219,0.3166,0.0893,0.1186,-54.7500,19.5000,27.0000,9.3805,1.9680,0.7087,0.1463,-0.1029,-0.0128,-60.7500,23.4000,-9.6000,3.1600,4.0800,-8.3900,-0.0894,0.0327,0.0022,-29.8750,-10.2500,19.5625,267.8750,19.3750,-155.9375,0
812.786,9.1267,3.2968,0.3783,0.4034,0.0400,0.1071,-54.7500,19.5000,27.0000,9.4068,1.7933,0.5004,0.1463,-0.1029,-0.0128,-60.7500,23.4000,-9.6000,3.2300,3.9300,-8.4200,-0.0894,0.0327,0.0022,-29.8750,-10.2500,19.5625,267.8750,19.3750,-155.9375,0
812.791,9.1267,3.2968,0.3783,0.4034,0.0400,0.1071,-54.7500,19.5000,27.0000,9.4068,1.7933,0.5004,0.0911,-0.0930,-0.0008,-60.7500,23.4000,-9.6000,3.2300,3.9300,-8.4200,-0.0753,0.0327,-0.0011,-30.6875,-11.0625,19.1875,267.8750,19.3750,-155.9375,0
812.796,9.2344,3.1580,0.5914,0.5297,-0.0293,0.0775,-54.7500,19.5000,27.0000,9.3661,2.0087,0.4142,0.0911,-0.0930,-0.0008,-60.7500,23.4000,-9.6000,3.2300,3.8700,-8.4200,-0.0753,0.0327,-0.0011,-30.6875,-11.0625,19.1875,267.8750,19.3750,-155.9375,0
812.801,9.2344,3.1580,0.5914,0.5297,-0.0293,0.0775,-54.0000,19.0500,25.9500,9.3661,2.0087,0.4142,0.0157,-0.0933,0.0165,-63.0000,21.4500,-9.1500,3.2300,3.8700,-8.4200,-0.0753,0.0327,-0.0011,-30.6875,-11.0625,19.1875,267.8750,19.3750,-155.8750,0
812.806,9.1578,2.7557,0.8452,0.5740,-0.0445,0.0794,-54.0000,19.0500,25.9500,9.4379,2.4541,0.3687,-0.0072,-0.1034,0.0384,-63.0000,21.4500,-9.1500,3.2000,3.9700,-8.4100,-0.0633,0.0229,-0.0011,-30.6875,-11.0625,19.1875,267.8750,19.3750,-155.8750,0
812.811,9.1578,2.7557,0.8452,0.5766,0.0059,0.0352,-55.6500,17.7000,27.1500,9.4379,2.4541,0.3687,-0.0072,-0.1034,0.0384,-63.0000,21.4500,-9.1500,3.2000,3.9700,-8.4100,-0.0524,0.0185,-0.0033,-30.6875,-11.0625,19.1875,267.8750,19.3750,-155.8125,0
812.816,9.1459,2.8395,0.7661,0.5766,0.0059,0.0352,-55.6500,17.7000,27.1500,9.1818,2.5139,0.4286,0.0538,-0.0975,0.0426,-63.0000,21.4500,-9.1500,3.2200,4.0300,-8.3900,-0.0524,0.0185,-0.0033,-30.6875,-11.0625,19.1875,267.8750,19.3750,-155.8125,0
812.825,9.1698,2.6647,0.7446,0.4842,-0.0661,0.0027,-53.4000,18.3000,27.7500,9.1866,2.2601,0.4142,0.1522,-0.0783,0.0274,-61.9500,23.2500,-8.2500,3.2300,4.0400,-8.3500,-0.0360,0.0120,-0.0065,-30.6875,-11.0625,19.1875,267.8750,19.3750,-155.8125,0
812.831,9.1530,2.4038,0.5435,0.4351,-0.0064,-0.0328,-52.8000,19.2000,27.9000,9.1866,2.2601,0.4142,0.1522,-0.0783,0.0274,-64.0500,22.9500,-8.4000,3.2300,4.0400,-8.3500,-0.0164,0.0055,-0.0087,-30.6875,-11.0625,19.1875,267.8750,19.3750,-155.8125,0
812.836,9.1530,2.4038,0.5435,0.4351,-0.0064,-0.0328,-52.8000,19.2000,27.9000,9.4068,1.9225,0.4310,0.1977,-0.0629,0.0421,-64.0500,22.9500,-8.4000,3.2700,4.0200,-8.3200,-0.0164,0.0055,-0.0087,-30.6875,-11.0625,19.1875,267.8750,19.3750,-155.8125,0
812.841,9.5074,2.3080,0.3208,0.4485,-0.0594,-0.0624,-52.8000,18.9000,26.1000,9.4068,1.9225,0.4310,0.1977,-0.0629,0.0421,-61.8000,22.2000,-9.9000,3.2300,3.8800,-8.4100,0.0044,-0.0076,-0.0153,-30.2500,-11.3750,19.1875,267.8750,19.3750,-155.8125,0
812.846,9.5074,2.3080,0.3208,0.4485,-0.0594,-0.0624,-52.8000,18.9000,26.1000,9.5361,1.6496,0.5435,0.1988,-0.0693,0.0554,-61.8000,22.2000,-9.9000,3.2300,3.8800,-8.4100,0.0044,-0.0076,-0.0153,-30.2500,-11.3750,19.1875,267.8125,19.3750,-155.8125,0
812.855,9.7468,2.2146,0.1652,0.4938,-0.1204,-0.1247,-52.8000,18.9000,26.1000,9.6893,1.1061,0.8691,0.1887,-0.0783,0.0626,-62.2500,23.8500,-7.3500,3.1900,3.8400,-8.4500,0.0164,-0.0164,-0.0218,-30.2500,-11.3750,19.1875,267.8125,19.3750,-155.8125,0
812.861,9.9383,2.0039,-0.0048,0.4519,-0.1311,-0.1372,-51.9000,19.5000,26.7000,9.6893,1.1061,0.8691,0.1887,-0.0783,0.0626,-63.9000,23.2500,-9.0000,3.1600,3.8400,-8.5300,0.0207,-0.0153,-0.0240,-30.2500,-11.3750,19.1875,267.8125,19.3750,-155.8125,0
812.866,9.9383,2.0039,-0.0048,0.4519,-0.1311,-0.1372,-51.9000,19.5000,26.7000,9.7827,0.9481,1.1851,0.1204,-0.0773,0.0679,-63.9000,23.2500,-9.0000,3.1600,3.8400,-8.5300,0.0207,-0.0153,-0.0240,-30.2500,-11.3750,19.1875,267.8125,19.3750,-155.8125,0
812.875,9.8282,1.9656,-0.0622,0.4050,-0.2595,-0.1210,-53.7000,18.3000,27.0000,9.7779,1.1372,0.9481,-0.0517,-0.1100,0.0818,-62.5500,23.4000,-9.1500,3.1600,3.6100,-8.5700,0.0142,-0.0153,-0.0207,-30.2500,-11.3750,19.1875,267.8125,19.3125,-155.8125,0
812.885,9.5409,2.2505,0.1867,0.4258,-0.3123,-0.1354,-52.2000,18.3000,26.2500,9.6654,1.6712,0.7422,-0.1585,-0.1194,0.0863,-62.5500,23.4000,-9.1500,3.1400,3.7000,-8.5600,-0.0022,-0.0109,-0.0131,-30.2500,-11.3750,19.1875,267.8125,19.3125,-155.8125,0
812.890,9.3182,2.7126,0.7973,0.4511,-0.3248,-0.1703,-54.4500,17.2500,27.3000,9.6654,1.6712,0.7422,-0.1585,-0.1194,0.0863,-61.5000,22.9500,-9.6000,3.1400,3.7000,-8.5600,-0.0065,-0.0065,-0.0055,-30.2500,-10.2500,18.8750,267.8125,19.3125,-155.8125,0
812.896,9.3182,2.7126,0.7973,0.4511,-0.3248,-0.1703,-54.4500,17.2500,27.3000,9.6654,2.1189,1.0056,-0.1799,-0.1391,0.0685,-61.5000,22.9500,-9.6000,3.1200,3.7800,-8.4800,-0.0065,-0.0065,-0.0055,-30.2500,-10.2500,18.8750,267.8125,19.3125,-155.8125,0
812.905,9.4619,2.9760,1.2833,0.4197,-0.2555,-0.1764,-54.4500,17.2500,27.3000,9.5122,1.9992,1.4676,-0.0613,-0.1540,0.0544,-63.7500,22.6500,-9.1500,3.1100,4.0300,-8.4400,-0.0044,-0.0033,0.0022,-30.2500,-10.2500,18.8750,267.8125,19.3125,-155.8125,0
812.912,9.5696,2.6911,0.9266,0.3275,-0.2001,-0.1711,-52.9500,19.5000,27.0000,9.6510,1.5347,1.5993,0.0762,-0.1599,0.0416,-63.4500,22.8000,-8.2500,3.1700,3.9400,-8.4500,0.0065,-0.0055,0.0022,-30.2500,-10.2500,18.8750,267.8125,19.3125,-155.8125,0
812.917,9.5241,2.4804,0.6608,0.2745,-0.1737,-0.1506,-52.0500,19.6500,26.1000,9.6510,1.5347,1.5993,0.0762,-0.1599,0.0416,-63.4500,22.8000,-8.2500,3.1700,3.9400,-8.4500,0.0065,-0.0055,0.0022,-30.2500,-10.2500,18.8750,267.8125,19.3125,-155.8125,0
812.926,9.5241,2.4804,0.6608,0.2745,-0.1737,-0.1506,-52.0500,19.6500,26.1000,9.9096,1.1756,1.5395,0.1090,-0.1863,0.0461,-61.9500,22.5000,-9.3000,3.3600,3.8600,-8.4500,0.0087,-0.0109,0.0033,-30.2500,-10.2500,18.8750,267.8125,19.3125,-155.8125,0
812.932,9.5696,2.5833,0.6177,0.2486,-0.1545,-0.1116,-52.2000,18.7500,26.2500,9.9311,1.0439,1.3838,0.0986,-0.2276,0.0445,-61.5000,23.4000,-8.1000,3.1200,3.7300,-8.4700,-0.0251,-0.0098,-0.0022,-30.2500,-10.2500,18.8750,267.8125,19.3125,-155.7500,0
812.937,9.5960,2.5738,0.6297,0.1703,-0.1498,-0.0725,-53.5500,20.7000,27.1500,9.9311,1.0439,1.3838,0.0986,-0.2276,0.0445,-61.5000,23.4000,-8.1000,3.1200,3.7300,-8.4700,-0.0251,-0.0098,-0.0022,-30.2500,-10.2500,18.8750,267.8125,19.3125,-155.7500,0
812.942,9.5960,2.5738,0.6297,0.1703,-0.1498,-0.0725,-53.5500,20.7000,27.1500,9.9335,1.3264,1.3815,0.0914,-0.2486,0.0352,-63.4500,22.8000,-9.0000,3.1900,3.7000,-8.5300,-0.0371,0.0076,0.0011,-30.6875,-11.3750,19.1875,267.8125,19.3125,-155.7500,0
812.947,9.6367,2.5642,0.5962,0.1927,-0.1588,-0.0416,-54.0000,19.5000,25.9500,9.9335,1.3264,1.3815,0.0914,-0.2486,0.0352,-63.4500,22.8000,-9.0000,3.1900,3.7000,-8.5300,-0.0371,0.0076,0.0011,-30.6875,-11.3750,19.1875,267.8125,19.3125,-155.7500,0
812.952,9.6367,2.5642,0.5962,0.1927,-0.1588,-0.0416,-54.0000,19.5000,25.9500,9.8067,1.5945,1.2594,0.1103,-0.2835,0.0234,-63.4500,22.8000,-9.0000,3.1900,3.7000,-8.5300,-0.0360,0.0142,0.0076,-30.6875,-11.3750,19.1875,267.8125,19.3125,-155.7500,0
812.956,9.6055,2.6695,0.5076,0.2145,-0.1436,-0.0245,-54.0000,19.5000,25.9500,9.8067,1.5945,1.2594,0.1103,-0.2835,0.0234,-63.4500,22.8000,-9.0000,3.1500,3.7400,-8.5300,-0.0360,0.0142,0.0076,-30.6875,-11.3750,19.1875,267.8125,19.3125,-155.7500,0
812.961,9.6055,2.6695,0.5076,0.2145,-0.1436,-0.0245,-54.0000,19.5000,25.9500,9.7923,1.6161,1.2905,0.1903,-0.3115,0.0083,-62.7000,24.0000,-9.7500,3.1500,3.7400,-8.5300,-0.0491,0.0207,0.0120,-30.6875,-11.3750,19.1875,267.8125,19.3125,-155.6875,0
812.966,9.7276,2.6767,0.6345,0.2169,-0.1338,-0.0085,-52.0500,19.6500,26.4000,9.7923,1.6161,1.2905,0.1903,-0.3115,0.0083,-62.7000,24.0000,-9.7500,3.1200,3.8000,-8.5200,-0.0491,0.0207,0.0120,-30.6875,-11.3750,19.1875,267.8125,19.3125,-155.6875,0
812.975,9.7276,2.6767,0.6345,0.2169,-0.1338,-0.0085,-52.0500,19.6500,26.4000,9.9288,1.5826,1.5490,0.2867,-0.3283,-0.0045,-62.7000,24.0000,-9.7500,3.0200,3.6500,-8.4500,-0.0513,0.0295,0.0175,-30.6875,-11.3750,19.1875,267.8125,19.3750,-155.6875,0
812.980,9.8043,2.7318,1.0080,0.2747,-0.1831,0.0032,-51.7500,19.6500,26.4000,10.2448,1.7430,1.8100,0.3299,-0.3712,0.0091,-62.7000,24.0000,-9.7500,3.0200,3.6500,-8.4500,-0.0535,0.0316,0.0164,-30.6875,-11.3750,19.1875,267.8125,19.3750,-155.6875,0
812.986,9.6055,2.7126,1.3695,0.2822,-0.1609,-0.0043,-52.8000,18.9000,25.3500,10.2448,1.7430,1.8100,0.3299,-0.3712,0.0091,-63.9000,22.5000,-7.2000,3.2900,3.4500,-8.6800,-0.0535,0.0316,0.0164,-30.6875,-11.3750,19.1875,267.8125,19.3750,-155.6875,0
812.991,9.6055,2.7126,1.3695,0.2822,-0.1609,-0.0043,-52.8000,18.9000,25.3500,9.8761,1.2258,1.9201,0.3392,-0.3944,-0.0027,-62.7000,22.8000,-9.7500,3.2900,3.4500,-8.6800,-0.0829,0.0436,0.0131,-30.6875,-10.2500,20.0625,267.8750,19.3750,-155.6250,0
812.996,9.3685,2.1859,1.4437,0.2246,-0.1164,-0.0043,-51.9000,20.5500,26.7000,9.8761,1.2258,1.9201,0.3392,-0.3944,-0.0027,-62.7000,22.8000,-9.7500,3.1400,3.6100,-8.6700,-0.0829,0.0436,0.0131,-30.6875,-10.2500,20.0625,267.8750,19.3750,-155.6250,0
813.001,9.3685,2.1859,1.4437,0.2246,-0.1164,-0.0043,-51.9000,20.5500,26.7000,9.7731,0.9720,1.8076,0.3144,-0.4378,-0.0314,-63.1500,21.6000,-10.0500,3.1400,3.6100,-8.6700,-0.1134,0.0676,0.0229,-30.6875,-10.2500,20.0625,267.8750,19.4375,-155.5625,0
813.006,9.4236,1.5969,1.0798,0.2265,-0.0914,-0.0035,-51.9000,20.5500,26.7000,9.7109,0.8811,0.9816,0.3144,-0.4378,-0.0314,-63.1500,21.6000,-10.0500,3.2500,3.9200,-8.3600,-0.1134,0.0676,0.0229,-30.6875,-10.2500,20.0625,267.8750,19.4375,-155.5625,0
813.011,9.4236,1.5969,1.0798,0.2265,-0.0914,-0.0035,-51.9000,20.5500,26.7000,9.7109,0.8811,0.9816,0.2198,-0.4663,-0.0349,-62.2500,22.6500,-10.3500,3.2500,3.9200,-8.3600,-0.1200,0.0698,0.0207,-30.6875,-10.2500,20.0625,267.8750,19.4375,-155.5000,0
813.017,9.5624,1.3910,0.8068,0.2451,-0.0973,-0.0101,-51.9000,20.5500,26.7000,9.7516,0.7398,0.8906,0.2198,-0.4663,-0.0349,-62.2500,22.6500,-10.3500,3.3400,3.5100,-8.5200,-0.1200,0.0698,0.0207,-30.6875,-10.2500,20.0625,267.8750,19.4375,-155.5000,0
813.025,9.6702,1.2210,0.8739,0.1668,-0.1018,-0.0131,-51.9000,18.3000,25.9500,9.7516,0.7398,0.8906,0.2158,-0.4991,-0.0477,-61.6500,24.0000,-9.7500,3.2700,3.5800,-8.4900,-0.1309,0.0644,0.0153,-30.6875,-10.2500,20.0625,267.8750,19.5000,-155.4375,0
813.030,9.6702,1.2210,0.8739,0.1668,-0.1018,-0.0131,-51.9000,18.3000,25.9500,9.8234,0.6752,1.1588,0.2177,-0.5383,-0.0674,-61.6500,24.0000,-9.7500,3.2700,3.5800,-8.4900,-0.1484,0.0731,0.0153,-30.6875,-10.2500,20.0625,267.9375,19.5625,-155.3750,0
813.037,9.6534,1.1660,0.5722,0.0557,-0.1282,0.0051,-52.9500,19.8000,26.2500,9.8689,0.6656,1.2474,0.1679,-0.5857,-0.0706,-63.1500,24.4500,-10.8000,3.2300,3.5800,-8.4800,-0.1484,0.0731,0.0153,-30.6875,-10.2500,20.0625,267.9375,19.5625,-155.3750,0
813.042,9.6534,1.1660,0.5722,0.0557,-0.1282,0.0051,-52.9500,19.8000,26.2500,9.8689,0.6656,1.2474,0.1679,-0.5857,-0.0706,-63.1500,24.4500,-10.8000,3.2300,3.5800,-8.4800,-0.1484,0.0731,0.0153,-30.2500,-11.7500,18.0625,267.9375,19.5625,-155.3125,0
813.046,9.5361,1.5323,0.4669,0.0314,-0.1412,0.0402,-51.3000,18.4500,27.6000,9.7492,0.9361,1.0654,0.0655,-0.6310,-0.0685,-63.1500,24.4500,-10.8000,3.2700,3.1300,-8.5700,-0.1625,0.0807,0.0218,-30.2500,-11.7500,18.0625,267.9375,19.5625,-155.3125,0
813.051,9.5361,1.5323,0.4669,0.0314,-0.1412,0.0402,-51.3000,18.4500,27.6000,9.7492,0.9361,1.0654,0.0655,-0.6310,-0.0685,-63.9000,24.0000,-11.5500,3.2700,3.1300,-8.5700,-0.1625,0.0807,0.0218,-30.2500,-11.7500,18.0625,267.9375,19.6250,-155.1875,0
813.056,9.3925,1.9872,0.6249,-0.0234,-0.1404,0.0445,-51.4500,19.0500,27.3000,9.7133,1.3671,0.9170,0.0072,-0.6574,-0.0658,-63.9000,24.0000,-11.5500,3.3300,3.1400,-8.5400,-0.1844,0.0916,0.0207,-30.2500,-11.7500,18.0625,267.9375,19.6250,-155.1875,0
813.061,9.3925,1.9872,0.6249,-0.0234,-0.1404,0.0445,-51.4500,19.0500,27.3000,9.7133,1.3671,0.9170,0.0072,-0.6574,-0.0658,-63.9000,24.0000,-11.5500,3.3300,3.1400,-8.5400,-0.2105,0.1004,0.0142,-30.2500,-11.7500,18.0625,268.0000,19.6875,-155.0625,0
813.067,9.3087,2.3727,0.5650,-0.0682,-0.1434,0.0557,-51.4500,19.0500,27.3000,9.6606,1.6185,0.7877,0.0155,-0.6773,-0.0853,-63.9000,24.0000,-11.5500,3.3300,3.3200,-8.5100,-0.2105,0.1004,0.0142,-30.2500,-11.7500,18.0625,268.0000,19.7500,-154.9375,0
813.076,9.4763,2.6432,0.4118,-0.1162,-0.1394,0.0671,-50.5500,18.9000,28.2000,9.6893,1.5251,0.5435,0.0791,-0.7040,-0.0997,-63.7500,22.9500,-11.4000,3.3200,3.5100,-8.4100,-0.2269,0.1091,0.0098,-30.2500,-11.7500,18.0625,268.0000,19.8125,-154.7500,0
813.086,9.3111,3.0047,0.3017,-0.1045,-0.1234,0.0957,-47.7000,19.2000,26.4000,9.8043,1.4772,0.4118,0.1303,-0.7338,-0.0957,-61.2000,22.5000,-11.5500,3.3400,3.5300,-8.4100,-0.2356,0.1102,0.0076,-30.2500,-11.7500,18.0625,268.0000,19.8125,-154.7500,0
813.091,9.3111,3.0047,0.3017,-0.1045,-0.1234,0.0957,-47.7000,19.2000,26.4000,9.8043,1.4772,0.4118,0.1303,-0.7338,-0.0957,-61.2000,22.5000,-11.5500,3.3400,3.5300,-8.4100,-0.2356,0.1102,0.0076,-30.2500,-11.7500,18.0625,268.0000,19.8125,-154.7500,0
813.095,9.2584,3.1484,0.2777,-0.0389,-0.1735,0.1090,-48.9000,19.0500,29.1000,9.7157,1.3288,0.3208,0.1271,-0.7466,-0.0874,-65.2500,22.9500,-11.4000,3.3400,3.4300,-8.4300,-0.2422,0.1091,0.0065,-30.2500,-11.0000,18.3750,268.0000,19.8750,-154.6875,0
813.100,9.2584,3.1484,0.2777,-0.0389,-0.1735,0.1090,-48.9000,19.0500,29.1000,9.7157,1.3288,0.3208,0.1271,-0.7466,-0.0874,-65.2500,22.9500,-11.4000,3.3400,3.4300,-8.4300,-0.2422,0.1091,0.0065,-30.2500,-11.0000,18.3750,268.0000,19.8750,-154.6875,0
813.105,9.0501,3.0694,0.0934,0.0520,-0.1687,0.1268,-48.7500,18.1500,29.7000,9.5122,1.3982,-0.1317,0.0813,-0.7019,-0.0799,-62.4000,23.2500,-12.3000,3.3300,3.3900,-8.4600,-0.2531,0.1102,0.0044,-30.2500,-11.0000,18.3750,268.0625,19.9375,-154.5625,0
813.109,9.0501,3.0694,0.0934,0.0520,-0.1687,0.1268,-48.7500,18.1500,29.7000,9.5122,1.3982,-0.1317,0.0813,-0.7019,-0.0799,-62.4000,23.2500,-12.3000,3.3300,3.3900,-8.4600,-0.2531,0.1102,0.0044,-30.2500,-11.0000,18.3750,268.0625,20.0000,-154.5000,0
813.116,8.9471,2.9975,-0.1963,0.1551,-0.1583,0.1479,-48.0000,17.4000,27.6000,9.4739,1.3120,-0.3376,0.0719,-0.7123,-0.0914,-63.3000,24.6000,-11.4000,3.4500,3.4300,-8.7900,-0.2749,0.1167,0.0011,-30.2500,-11.0000,18.3750,268.0625,20.0625,-154.3125,0
813.126,8.7819,2.8659,-0.5435,0.2822,-0.1322,0.1679,-48.0000,17.4000,27.6000,9.4403,1.3024,-0.5148,0.0562,-0.6939,-0.1055,-61.9500,22.8000,-12.3000,3.3000,3.3800,-8.8500,-0.2531,0.1604,-0.0229,-30.2500,-11.0000,18.3750,268.0625,20.0625,-154.3125,0
813.136,8.6766,2.8443,-0.8835,0.3813,-0.0743,0.1820,-49.9500,17.7000,29.7000,9.2991,1.4653,-0.7422,0.0709,-0.7024,-0.1212,-61.9500,22.8000,-12.3000,3.4700,3.5400,-8.0400,-0.1822,0.3207,-0.0665,-30.2500,-11.0000,18.3750,268.0000,20.1875,-154.1875,0
813.141,8.6359,2.9760,-1.1636,0.4746,-0.0208,0.1897,-49.9500,17.7000,29.7000,9.1554,1.5945,-1.1803,0.0709,-0.7024,-0.1212,-61.9500,22.8000,-12.3000,3.4700,3.5400,-8.0400,-0.1822,0.3207,-0.0665,-30.2500,-11.0000,18.3750,267.9375,20.3125,-153.9375,0
813.146,8.6359,2.9760,-1.1636,0.4746,-0.0208,0.1897,-47.1000,18.0000,29.8500,9.1554,1.5945,-1.1803,0.0765,-0.6925,-0.1210,-63.3000,23.4000,-12.9000,3.3700,3.4800,-8.1800,-0.3120,0.2913,-0.0720,-29.8750,-11.7500,18.3750,267.9375,20.3125,-153.9375,0
813.151,8.6862,2.8371,-1.3455,0.5780,-0.0187,0.1945,-47.1000,18.0000,29.8500,9.2871,1.6927,-1.3719,0.0765,-0.6925,-0.1210,-63.3000,23.4000,-12.9000,3.3700,3.4800,-8.1800,-0.3120,0.2913,-0.0720,-29.8750,-11.7500,18.3750,267.9375,20.3125,-153.9375,0
813.156,8.6862,2.8371,-1.3455,0.5780,-0.0187,0.1945,-48.4500,17.4000,29.2500,9.2871,1.6927,-1.3719,0.1287,-0.6715,-0.1106,-63.3000,23.4000,-12.9000,3.4300,3.2400,-8.2000,-0.4581,0.1549,-0.0654,-29.8750,-11.7500,18.3750,267.9375,20.3750,-153.6875,0
813.160,8.9304,2.7557,-1.4293,0.6182,0.0226,0.2126,-48.4500,17.4000,29.2500,9.3470,1.7190,-1.5443,0.1287,-0.6715,-0.1106,-63.3000,23.4000,-12.9000,3.4300,3.2400,-8.2000,-0.4832,0.1320,-0.0556,-29.8750,-11.7500,18.3750,267.9375,20.4375,-153.3750,0
813.167,8.9304,2.7557,-1.4293,0.6182,0.0226,0.2126,-47.8500,17.2500,28.0500,9.3470,1.7190,-1.5443,0.1601,-0.6494,-0.1079,-63.1500,22.8000,-12.3000,3.4600,3.3100,-8.3000,-0.4832,0.1320,-0.0556,-29.8750,-11.7500,18.3750,267.9375,20.5000,-153.1250,0
813.176,9.0932,2.7701,-1.9010,0.6512,-0.0741,0.2180,-47.8500,17.2500,28.0500,9.2033,1.7909,-1.5179,0.1367,-0.6179,-0.0954,-63.1500,24.4500,-12.7500,3.4800,3.3000,-8.3000,-0.4898,0.1134,-0.0535,-29.8750,-11.7500,18.3750,267.9375,20.5000,-152.8125,0
813.186,8.7891,2.8683,-2.2553,0.6483,-0.1266,0.2185,-46.9500,17.7000,30.4500,9.2464,1.9225,-1.9609,0.0989,-0.5860,-0.0759,-61.8000,22.6500,-13.2000,3.5600,3.3600,-8.2400,-0.4854,0.0687,-0.0578,-29.8750,-11.7500,18.3750,267.9375,20.5000,-152.8125,0
813.191,8.9040,3.0861,-2.5522,0.6813,-0.1210,0.2108,-46.9500,17.7000,30.4500,9.2320,2.0207,-2.2075,0.0602,-0.5143,-0.0576,-61.8000,22.6500,-13.2000,3.5600,3.3600,-8.2400,-0.4854,0.0687,-0.0578,-29.8750,-11.7500,18.3750,267.9375,20.5000,-152.8125,0
813.196,8.9040,3.0861,-2.5522,0.6813,-0.1210,0.2108,-46.8000,16.5000,29.5500,9.2320,2.0207,-2.2075,0.0602,-0.5143,-0.0576,-62.7000,22.8000,-12.7500,3.4700,3.4100,-8.3900,-0.4941,0.0142,-0.0633,-31.3750,-11.7500,20.3750,268.0000,20.5000,-152.6250,0
813.201,8.9064,3.0646,-2.7797,0.6510,-0.0669,0.2017,-46.8000,16.5000,29.5500,9.2703,2.1021,-2.5043,0.0522,-0.4474,-0.0442,-62.7000,22.8000,-12.7500,3.4700,3.4100,-8.3900,-0.4941,0.0142,-0.0633,-31.3750,-11.7500,20.3750,268.0000,20.5000,-152.6250,0
813.206,8.9064,3.0646,-2.7797,0.6510,-0.0669,0.2017,-46.0500,18.0000,29.1000,9.2703,2.1021,-2.5043,0.0522,-0.4474,-0.0442,-62.7000,22.8000,-12.7500,3.4000,3.3800,-8.4900,-0.5061,-0.0316,-0.0764,-31.3750,-11.7500,20.3750,268.0625,20.5000,-152.5000,0
813.211,8.9040,3.2729,-2.9712,0.7133,0.0173,0.1980,-46.0500,18.0000,29.1000,9.2847,2.1787,-2.3870,0.0037,-0.4218,-0.0634,-62.7000,22.8000,-12.7500,3.4000,3.3800,-8.4900,-0.5138,-0.0425,-0.0676,-31.3750,-11.7500,20.3750,268.0625,20.4375,-152.1875,0
813.217,8.9040,3.2729,-2.9712,0.7133,0.0173,0.1980,-45.4500,18.1500,30.4500,9.2847,2.1787,-2.3870,0.0037,-0.4218,-0.0634,-62.5500,22.2000,-11.8500,3.5200,3.8800,-8.6400,-0.5138,-0.0425,-0.0676,-31.3750,-11.7500,20.3750,268.0625,20.3750,-151.8750,0
813.226,8.9519,3.5578,-3.0454,0.6885,0.0450,0.1855,-45.1500,18.4500,29.7000,9.2823,2.2290,-1.7047,-0.0445,-0.3994,-0.0663,-62.5500,22.2000,-11.8500,3.6700,3.7200,-8.6300,-0.5465,-0.0818,-0.0676,-31.3750,-11.7500,20.3750,268.0625,20.3750,-151.8750,0
813.236,9.2177,3.7972,-3.0382,0.6704,-0.0147,0.1620,-45.1500,18.4500,29.7000,9.2105,2.4852,-1.3862,-0.0650,-0.3736,-0.0453,-62.2500,23.4000,-13.9500,3.7600,3.6500,-8.5100,-0.5978,-0.1320,-0.0829,-31.3750,-11.7500,20.3750,268.1250,20.3125,-151.5625,0
813.241,9.6079,3.9504,-2.6552,0.6539,-0.1705,0.1287,-45.1500,18.4500,29.7000,9.2416,2.7270,-1.5945,-0.0413,-0.3584,-0.0043,-62.2500,23.4000,-13.9500,3.7600,3.6500,-8.5100,-0.5978,-0.1320,-0.0829,-31.3750,-11.7500,20.3750,268.1875,20.1250,-151.1875,0
813.246,9.7683,3.9193,-2.1332,0.7301,-0.2220,0.0970,-45.7500,19.0500,28.8000,9.2416,2.7270,-1.5945,-0.0413,-0.3584,-0.0043,-63.0000,23.8500,-13.6500,3.8500,4.2500,-8.1200,-0.5978,-0.2542,-0.1113,-31.3750,-12.1875,18.3750,268.1875,20.1250,-151.1875,0
813.251,9.7683,3.9193,-2.1332,0.7301,-0.2220,0.0970,-45.7500,19.0500,28.8000,9.1698,3.0646,-1.7023,-0.0144,-0.3032,0.0216,-63.0000,23.8500,-13.6500,3.8500,4.2500,-8.1200,-0.5978,-0.2542,-0.1113,-31.3750,-12.1875,18.3750,268.1875,20.1250,-151.1875,0
813.256,9.9407,3.6536,-1.8483,0.7234,-0.2177,0.0474,-45.3000,18.3000,28.0500,9.1698,3.0646,-1.7023,-0.0144,-0.3032,0.0216,-62.4000,23.5500,-13.8000,3.7700,4.3700,-7.9900,-0.5389,-0.3731,-0.1636,-31.3750,-12.1875,18.3750,268.1875,19.9375,-150.9375,0
813.261,9.9407,3.6536,-1.8483,0.7234,-0.2177,0.0474,-45.3000,18.3000,28.0500,9.1195,3.1915,-1.7621,0.0282,-0.2609,0.0184,-62.4000,23.5500,-13.8000,3.7700,4.3700,-7.9900,-0.4963,-0.4789,-0.2258,-31.3750,-12.1875,18.3750,268.1875,19.6250,-150.6250,0
813.267,10.1370,3.6009,-1.8603,0.6984,-0.1974,0.0027,-45.4500,18.9000,29.2500,9.1913,3.2896,-1.4150,0.0863,-0.2244,-0.0003,-63.3000,23.8500,-14.4000,3.7200,4.4000,-8.1700,-0.4963,-0.4789,-0.2258,-31.3750,-12.1875,18.3750,268.1250,19.3125,-150.3750,0
813.276,10.2807,3.6464,-1.8435,0.6299,-0.2078,-0.0269,-44.5500,18.7500,29.1000,9.1578,2.9904,-1.0678,0.0863,-0.2244,-0.0003,-61.8000,22.2000,-14.4000,4.9200,5.0200,-8.5000,-0.4865,-0.4952,-0.2793,-31.3750,-12.1875,18.3750,268.1250,19.3125,-150.3750,0
813.286,10.0293,3.6296,-1.8675,0.5769,-0.2116,-0.0562,-44.5500,18.7500,29.1000,9.6510,2.4900,-1.2043,0.3917,-0.0690,0.0493,-61.8000,24.1500,-13.6500,5.6200,3.4600,-9.6600,-0.4821,-0.5312,-0.3512,-31.3750,-12.1875,18.3750,268.0625,18.9375,-150.1250,0
813.291,10.0293,3.6296,-1.8675,0.5769,-0.2116,-0.0562,-44.5500,18.7500,29.1000,9.6510,2.4900,-1.2043,0.3917,-0.0690,0.0493,-61.8000,24.1500,-13.6500,5.6200,3.4600,-9.6600,-0.4821,-0.5312,-0.3512,-31.3750,-12.1875,18.3750,267.8750,18.4375,-149.7500,0
813.296,10.1179,3.4596,-2.0997,0.5268,-0.2121,-0.0632,-44.5500,18.7500,29.1000,9.3398,2.4445,0.1293,0.5391,0.0823,0.1002,-61.8000,24.1500,-13.6500,3.8400,4.1400,-8.6300,-0.5574,-0.7647,-0.6021,-30.6875,-12.8750,18.3750,267.8750,18.4375,-149.7500,0
813.301,10.1179,3.4596,-2.0997,0.5268,-0.2121,-0.0632,-46.2000,16.9500,28.9500,9.3398,2.4445,0.1293,0.5391,0.0823,0.1002,-61.8000,24.1500,-13.6500,3.8400,4.1400,-8.6300,-0.5574,-0.7647,-0.6021,-30.6875,-12.8750,18.3750,267.8750,18.4375,-149.7500,0
813.306,10.0509,3.5698,-1.9441,0.4876,-0.2161,-0.0458,-46.2000,16.9500,28.9500,9.6582,3.9600,-0.9673,0.1199,0.0898,0.0863,-61.8000,23.8500,-15.1500,4.4400,4.8200,-8.3900,-0.6294,-0.9130,-0.8738,-30.6875,-12.8750,18.3750,267.6250,17.7500,-149.3750,0
813.311,10.0509,3.5698,-1.9441,0.4876,-0.2161,-0.0458,-45.0000,18.3000,28.8000,9.6582,3.9600,-0.9673,0.1199,0.0898,0.0863,-61.8000,23.8500,-15.1500,4.4400,4.8200,-8.3900,-0.7134,-0.4963,-1.1781,-30.6875,-12.8750,18.3750,267.0625,17.1875,-148.8125,0
813.317,9.9575,3.6583,-2.0614,0.4479,-0.1785,-0.0280,-45.0000,18.3000,28.8000,9.7252,3.6799,-2.1787,-0.0552,0.0863,0.1116,-61.8000,23.8500,-15.1500,6.3800,9.6700,-9.4900,-0.7134,-0.4963,-1.1781,-30.6875,-12.8750,18.3750,266.1875,16.8125,-148.1250,0
813.326,9.6654,3.9193,-2.0806,0.3994,-0.1679,-0.0424,-45.3000,18.3000,30.1500,9.7899,4.5562,-2.2434,0.0941,0.1338,0.1196,-63.1500,23.5500,-13.8000,1.7900,7.0700,-6.2500,-0.7712,0.2934,-1.6221,-30.6875,-12.8750,18.3750,265.2500,16.0625,-147.6250,0
813.336,9.3541,4.0941,-2.0518,0.3520,-0.1681,-0.0874,-46.2000,18.1500,28.9500,9.4691,4.7022,-1.9058,0.3499,0.1545,0.0725,-61.8000,23.4000,-13.2000,0.9500,7.2600,-5.5400,-0.5083,-0.5061,-1.9395,-30.6875,-12.8750,18.3750,265.2500,16.0625,-147.6250,0
813.341,9.3541,4.0941,-2.0518,0.3520,-0.1681,-0.0874,-46.2000,18.1500,28.9500,9.4691,4.7022,-1.9058,0.3499,0.1545,0.0725,-61.8000,23.4000,-13.2000,0.9500,7.2600,-5.5400,-0.5083,-0.5061,-1.9395,-30.6875,-12.8750,18.3750,265.2500,16.0625,-147.6250,0
813.346,8.9854,4.1899,-1.8483,0.3003,-0.1069,-0.1471,-46.2000,18.1500,28.9500,9.0836,4.5801,-2.1787,0.6917,0.1508,0.0634,-61.9500,23.2500,-14.5500,3.1700,6.1400,-8.2100,-0.1265,0.2225,-1.6973,-30.6875,-13.6875,18.7500,264.3125,15.6250,-147.3125,0
813.351,8.9854,4.1899,-1.8483,0.3003,-0.1069,-0.1471,-43.5000,17.5500,29.1000,9.0836,4.5801,-2.1787,0.6917,0.1508,0.0634,-61.9500,23.2500,-14.5500,3.1700,6.1400,-8.2100,-0.1265,0.2225,-1.6973,-30.6875,-13.6875,18.7500,264.3125,15.6250,-147.3125,0
813.356,8.7843,4.2353,-1.6855,0.2633,-0.0685,-0.1977,-43.5000,17.5500,29.1000,8.7819,4.0223,-2.2913,0.9750,0.1809,0.0778,-62.5500,24.6000,-14.4000,2.0700,6.1500,-6.9100,0.2389,-0.0469,-1.6515,-30.6875,-13.6875,18.7500,263.3750,15.1250,-147.2500,0
813.361,8.7843,4.2353,-1.6855,0.2633,-0.0685,-0.1977,-44.1000,18.1500,28.9500,8.7819,4.0223,-2.2913,0.9750,0.1809,0.0778,-62.5500,24.6000,-14.4000,2.0700,6.1500,-6.9100,0.3894,-0.2542,-1.6690,-30.6875,-13.6875,18.7500,262.4375,14.5000,-147.2500,0
813.367,8.7125,4.1492,-1.6759,0.2398,0.0354,-0.2374,-44.1000,18.1500,28.9500,8.8705,3.7062,-1.9561,1.2204,0.2140,0.1103,-62.2500,25.8000,-15.4500,2.2400,5.4300,-6.4900,0.3894,-0.2542,-1.6690,-30.6875,-13.6875,18.7500,261.5000,13.9375,-147.3750,0
813.376,8.9735,4.2258,-1.8028,0.3000,0.0797,-0.2609,-42.9000,17.7000,28.2000,8.8753,3.6081,-1.7382,1.3467,0.2465,0.1372,-63.3000,24.1500,-13.6500,1.9800,5.3500,-5.7300,0.5531,-0.1276,-1.6526,-30.6875,-13.6875,18.7500,261.5000,13.9375,-147.3750,0
813.386,8.7317,4.2138,-1.7190,0.4120,0.0653,-0.2785,-44.8500,16.9500,27.9000,8.9783,3.6871,-1.6688,1.4581,0.2787,0.1777,-63.3000,24.1500,-13.6500,2.3200,5.5500,-6.1100,0.6218,0.0360,-1.6679,-30.6875,-13.6875,18.7500,260.5625,13.4375,-147.5625,0
813.391,8.5425,4.2976,-1.8364,0.5644,0.0533,-0.2896,-45.1500,17.4000,28.9500,9.1985,4.0031,-1.6089,1.4581,0.2787,0.1777,-63.3000,24.1500,-13.6500,2.3200,5.5500,-6.1100,0.6218,0.0360,-1.6679,-30.6875,-13.6875,18.7500,259.5625,13.0625,-147.6875,0
813.396,8.5425,4.2976,-1.8364,0.5644,0.0533,-0.2896,-45.1500,17.4000,28.9500,9.1985,4.0031,-1.6089,1.5865,0.3248,0.2196,-62.4000,23.5500,-14.5500,2.1600,5.5300,-6.2600,0.6752,0.2487,-1.7344,-29.5000,-16.1875,19.5625,259.5625,13.0625,-147.6875,0
813.401,8.7460,4.4269,-1.9369,0.6736,-0.0418,-0.2936,-45.1500,17.4000,28.9500,9.4044,4.3024,-1.2689,1.5865,0.3248,0.2196,-62.4000,23.5500,-14.5500,2.1600,5.5300,-6.2600,0.6752,0.2487,-1.7344,-29.5000,-16.1875,19.5625,259.5625,13.0625,-147.6875,0
813.406,8.7460,4.4269,-1.9369,0.6736,-0.0418,-0.2936,-45.1500,17.4000,28.9500,9.4044,4.3024,-1.2689,1.8010,0.3717,0.2590,-62.4000,23.5500,-14.5500,1.9300,5.5400,-6.4500,0.7385,0.4025,-1.8402,-29.5000,-16.1875,19.5625,258.4375,12.6875,-147.8750,0
813.411,8.5617,4.6448,-1.8890,0.7786,-0.0165,-0.3088,-44.1000,17.4000,27.9000,9.4499,4.6304,-0.9457,1.8010,0.3717,0.2590,-62.4000,23.5500,-14.5500,1.9300,5.5400,-6.4500,0.7810,0.5770,-1.9722,-29.5000,-16.1875,19.5625,257.1875,12.3750,-148.0625,0
813.417,8.5617,4.6448,-1.8890,0.7786,-0.0165,-0.3088,-44.1000,17.4000,27.9000,9.4499,4.6304,-0.9457,2.1141,0.3992,0.2912,-62.5500,24.6000,-17.4000,2.1200,5.9300,-6.6600,0.7810,0.5770,-1.9722,-29.5000,-16.1875,19.5625,255.8125,12.1250,-148.3125,0
813.426,8.6119,4.9057,-1.8866,0.8340,0.0845,-0.3552,-44.2500,18.0000,27.0000,9.5409,4.8650,-0.8380,2.4648,0.4423,0.3262,-62.2500,25.0500,-15.4500,2.3900,5.9200,-6.5400,0.8279,0.7429,-2.1271,-29.5000,-16.1875,19.5625,255.8125,12.1250,-148.3125,0
813.436,8.4372,5.1308,-1.7693,0.8889,0.1721,-0.4378,-43.3500,19.6500,27.1500,9.1530,5.0374,-0.8906,2.8485,0.4988,0.3821,-65.5500,27.0000,-16.2000,2.2800,6.0700,-6.1100,0.8879,0.9228,-2.3289,-29.5000,-16.1875,19.5625,254.3750,11.8750,-148.5000,0
813.441,8.4013,5.4300,-1.4533,0.9880,0.2577,-0.5295,-43.5000,18.0000,25.2000,8.9519,4.9871,-0.5842,3.2271,0.5873,0.4303,-65.5500,27.0000,-16.2000,2.2800,6.0700,-6.1100,0.8879,0.9228,-2.3289,-29.5000,-16.1875,19.5625,252.6875,11.6875,-148.6875,0
813.446,8.4013,5.4300,-1.4533,0.9880,0.2577,-0.5295,-43.5000,18.0000,25.2000,8.9519,4.9871,-0.5842,3.2271,0.5873,0.4303,-64.5000,25.3500,-14.7000,2.8300,6.7200,-5.3500,0.9577,1.1159,-2.5678,-26.5625,-17.2500,19.5625,252.6875,11.6875,-148.6875,0
813.451,8.4755,5.7916,-1.2186,1.1226,0.3765,-0.5966,-43.5000,18.0000,25.2000,8.8059,4.9273,0.3496,3.6524,0.7067,0.4660,-64.5000,25.3500,-14.7000,2.8300,6.7200,-5.3500,0.9577,1.1159,-2.5678,-26.5625,-17.2500,19.5625,252.6875,11.6875,-148.6875,0
813.456,8.4755,5.7916,-1.2186,1.1226,0.3765,-0.5966,-43.5000,18.0000,25.2000,8.8059,4.9273,0.3496,3.6524,0.7067,0.4660,-63.3000,26.5500,-17.7000,5.0600,7.6300,-4.9500,1.0417,1.4257,-2.8623,-26.5625,-17.2500,19.5625,250.8750,11.5625,-148.9375,0
813.461,8.4755,6.1316,-0.9984,1.3374,0.4815,-0.6275,-45.7500,19.8000,25.6500,8.4132,4.7118,1.1157,3.9452,0.9022,0.5047,-63.3000,26.5500,-17.7000,5.0600,7.6300,-4.9500,1.1956,1.8991,-3.1961,-26.5625,-17.2500,19.5625,248.6875,11.5000,-149.1250,0
813.467,8.4755,6.1316,-0.9984,1.3374,0.4815,-0.6275,-45.7500,19.8000,25.6500,8.4132,4.7118,1.1157,3.9452,0.9022,0.5047,-65.2500,27.3000,-15.9000,8.0900,6.9900,-5.3300,1.1956,1.8991,-3.1961,-26.5625,-17.2500,19.5625,246.3125,11.7500,-149.5625,0
813.477,8.3629,6.3566,-0.9888,1.6521,0.5692,-0.6507,-43.5000,20.5500,24.9000,8.6862,3.8834,1.5131,4.4545,1.0786,0.5524,-65.2500,27.3000,-15.9000,7.3700,4.9000,-6.4700,1.5795,2.4904,-3.4383,-26.5625,-17.2500,19.5625,243.7500,11.8750,-150.1250,0
813.487,8.4036,6.6391,-0.9313,1.9998,0.6630,-0.6662,-44.2500,20.5500,23.4000,9.1913,3.0430,1.6376,4.7140,1.2065,0.5729,-64.5000,27.3000,-17.4000,7.0900,4.3800,-5.9200,2.0377,2.4347,-3.7797,-26.5625,-17.2500,19.5625,243.7500,11.8750,-150.1250,0
813.492,8.5066,6.8067,-0.5243,2.3670,0.7671,-0.6510,-44.5500,21.3000,23.8500,9.1913,3.0430,1.6376,4.8528,1.3576,0.5476,-64.5000,27.3000,-17.4000,7.0900,4.3800,-5.9200,2.0377,2.4347,-3.7797,-26.5625,-17.2500,19.5625,243.7500,11.8750,-150.1250,0
813.497,8.5066,6.8067,-0.5243,2.3670,0.7671,-0.6510,-43.2000,22.5000,22.0500,9.4308,2.3224,1.8244,4.8528,1.3576,0.5476,-64.0500,26.5500,-18.0000,5.8900,5.0300,-5.4200,1.7519,2.3082,-4.0993,-25.0625,-20.1875,20.0625,241.0625,11.8750,-150.5625,0
813.501,8.4467,6.7445,-0.0838,2.7046,0.8228,-0.6539,-43.2000,22.5000,22.0500,9.4308,2.3224,1.8244,5.0023,1.4552,0.4890,-64.0500,26.5500,-18.0000,5.8900,5.0300,-5.4200,1.7519,2.3082,-4.0993,-25.0625,-20.1875,20.0625,241.0625,11.8750,-150.5625,0
813.506,8.4467,6.7445,-0.0838,2.7046,0.8228,-0.6539,-43.2000,22.5000,22.0500,9.3182,1.6017,2.0351,5.0023,1.4552,0.4890,-63.7500,27.7500,-18.7500,6.6400,4.0400,-5.6600,1.6668,2.6289,-4.2706,-25.0625,-20.1875,20.0625,238.1875,11.9375,-150.9375,0
813.511,8.8538,6.7205,0.4621,3.0403,0.8972,-0.6499,-43.2000,22.5000,22.0500,9.3182,1.6017,2.0351,4.9559,1.5135,0.4511,-63.7500,27.7500,-18.7500,6.6400,4.0400,-5.6600,1.7737,2.9103,-4.2466,-25.0625,-20.1875,20.0625,235.3125,12.2500,-151.3125,0
813.517,8.6718,6.7301,0.9744,3.2842,0.9422,-0.6390,-43.9500,22.5000,21.0000,9.2967,0.9218,1.9776,4.8315,1.5607,0.4231,-64.5000,28.0500,-19.9500,6.5400,3.2600,-6.7400,1.7737,2.9103,-4.2466,-25.0625,-20.1875,20.0625,232.4375,12.6250,-151.6250,0
813.527,9.0836,6.5745,1.1468,3.3801,0.8561,-0.6209,-44.5500,23.5500,20.5500,9.3829,0.5938,1.8483,4.6221,1.5687,0.3970,-64.6500,27.9000,-20.1000,6.4900,3.1300,-6.9600,1.7093,3.0063,-4.1942,-25.0625,-20.1875,20.0625,229.6250,13.0000,-151.8125,0
813.537,8.4683,6.3039,1.6807,3.3942,0.8474,-0.6017,-45.3000,24.7500,19.9500,9.3518,0.3089,1.6472,4.3633,1.5575,0.3744,-66.3000,28.5000,-21.4500,6.4000,2.8900,-7.2500,1.5762,3.1001,-4.1615,-25.0625,-20.1875,20.0625,229.6250,13.0000,-151.8125,0
813.542,8.4683,6.3039,1.6807,3.3942,0.8474,-0.6017,-45.3000,24.7500,19.9500,9.3518,0.3089,1.6472,4.3633,1.5575,0.3744,-66.3000,28.5000,-21.4500,6.4000,2.8900,-7.2500,1.5762,3.1001,-4.1615,-25.0625,-20.1875,20.0625,226.8750,13.5000,-152.0000,0
813.547,8.4036,5.5258,1.2929,3.4017,0.9694,-0.5513,-45.4500,22.9500,19.6500,9.5241,-0.0455,1.5562,4.1107,1.5295,0.3483,-66.3000,28.5000,-21.4500,5.3800,2.4000,-7.4100,1.4944,3.1089,-4.0339,-22.5000,-23.1875,17.5625,226.8750,13.5000,-152.0000,0
813.552,8.4036,5.5258,1.2929,3.4017,0.9694,-0.5513,-45.4500,22.9500,19.6500,9.5241,-0.0455,1.5562,4.1107,1.5295,0.3483,-66.3000,28.5000,-21.4500,5.3800,2.4000,-7.4100,1.4944,3.1089,-4.0339,-22.5000,-23.1875,17.5625,224.2500,14.0000,-152.1250,0
813.557,8.2959,4.3934,1.3096,3.3620,0.9635,-0.4895,-45.4500,22.9500,19.6500,9.5385,-0.3496,1.6328,3.7643,1.4991,0.2923,-65.8500,28.3500,-22.3500,5.2000,2.1800,-7.8100,1.4268,3.0969,-3.8255,-22.5000,-23.1875,17.5625,224.2500,14.0000,-152.1250,0
813.562,8.2959,4.3934,1.3096,3.3620,0.9635,-0.4895,-45.4500,22.9500,19.6500,9.5385,-0.3496,1.6328,3.7643,1.4991,0.2923,-65.8500,28.3500,-22.3500,5.2000,2.1800,-7.8100,1.3145,3.0892,-3.5768,-22.5000,-23.1875,17.5625,221.7500,14.6250,-152.1875,0
813.567,8.5305,3.5458,1.3288,3.4427,1.1026,-0.3475,-46.5000,25.0500,16.3500,9.6319,-0.3687,1.5993,3.3889,1.4264,0.2388,-65.8500,28.3500,-22.3500,5.0200,2.2100,-8.2400,1.3145,3.0892,-3.5768,-22.5000,-23.1875,17.5625,219.3750,15.2500,-152.1875,0
813.577,8.7700,2.5905,1.0367,3.5336,1.0507,-0.2324,-46.9500,23.4000,15.4500,9.7779,-0.2179,1.5275,3.0081,1.3328,0.1966,-65.1000,29.5500,-21.9000,4.5800,2.3000,-8.7000,1.1628,3.0216,-3.3041,-22.5000,-23.1875,17.5625,219.3750,15.2500,-152.1875,0
813.587,8.5281,1.6161,1.2234,3.6348,1.1122,-0.1247,-46.2000,23.7000,12.9000,9.6989,0.3950,1.9034,2.7294,1.2207,0.1660,-65.5500,29.7000,-22.5000,3.6000,2.5500,-9.3800,0.9817,2.8929,-3.0292,-22.5000,-23.1875,17.5625,217.2500,15.8750,-152.1250,0
813.592,8.5281,1.6161,1.2234,3.6348,1.1122,-0.1247,-46.2000,23.7000,12.9000,9.6989,0.3950,1.9034,2.7294,1.2207,0.1660,-65.5500,29.7000,-22.5000,3.6000,2.5500,-9.3800,0.9817,2.8929,-3.0292,-22.5000,-23.1875,17.5625,215.2500,16.5000,-152.0000,0
813.597,9.5553,1.2570,0.4908,3.8243,1.1074,-0.1183,-44.5500,22.5000,13.8000,9.4403,0.8188,1.2067,2.3681,1.0698,0.1596,-65.1000,28.6500,-24.1500,3.0500,2.6100,-9.4500,0.7930,2.6998,-2.7773,-19.5625,-26.1875,15.5625,215.2500,16.5000,-152.0000,0
813.601,9.5553,1.2570,0.4908,3.8243,1.1074,-0.1183,-44.5500,22.5000,13.8000,9.4403,0.8188,1.2067,2.3681,1.0698,0.1596,-65.1000,28.6500,-24.1500,3.0500,2.6100,-9.4500,0.7930,2.6998,-2.7773,-19.5625,-26.1875,15.5625,215.2500,16.5000,-152.0000,0
813.607,9.5193,0.9529,-0.0862,3.7627,1.1250,-0.2052,-47.4000,21.9000,11.5500,9.3494,0.5555,0.8356,2.2212,0.9827,0.1836,-66.0000,28.9500,-23.7000,1.9700,1.8200,-9.5800,0.6654,2.4762,-2.5198,-19.5625,-26.1875,15.5625,213.5000,17.0000,-151.7500,0
813.611,9.5193,0.9529,-0.0862,3.7627,1.1250,-0.2052,-47.4000,21.9000,11.5500,9.3494,0.5555,0.8356,2.2212,0.9827,0.1836,-66.0000,28.9500,-23.7000,1.9700,1.8200,-9.5800,0.5443,2.2340,-2.2842,-19.5625,-26.1875,15.5625,211.8750,17.5000,-151.5625,0
813.618,9.3182,0.7638,-0.3472,3.5349,1.0485,-0.3128,-47.4000,21.9000,11.5500,9.2512,0.4980,0.6488,2.1266,0.8641,0.2017,-65.8500,29.1000,-23.1000,0.9600,3.0200,-9.5600,0.5443,2.2340,-2.2842,-19.5625,-26.1875,15.5625,210.3750,17.9375,-151.3125,0
813.627,8.7029,0.3017,0.4645,3.3401,0.9686,-0.3773,-45.7500,21.3000,10.2000,9.2416,0.3400,0.6297,2.0656,0.7288,0.2142,-65.5500,29.2500,-23.7000,0.5800,3.5600,-9.3200,0.4931,2.0322,-2.0868,-19.5625,-26.1875,15.5625,210.3750,17.9375,-151.3125,0
813.637,8.5688,-0.1460,0.6129,3.2039,0.9915,-0.4330,-46.6500,21.1500,9.7500,9.1147,0.1915,0.3663,2.0081,0.5777,0.2262,-65.5500,29.2500,-23.7000,0.2100,3.7500,-9.0500,0.5803,1.8402,-1.8926,-19.5625,-26.1875,15.5625,209.0000,18.3125,-151.1875,0
813.642,8.5688,-0.1460,0.6129,3.2039,0.9915,-0.4330,-46.6500,21.1500,9.7500,9.1674,0.1101,0.4549,1.9753,0.4274,0.2310,-65.5500,29.2500,-23.7000,0.2100,3.7500,-9.0500,0.5803,1.8402,-1.8926,-19.5625,-26.1875,15.5625,209.0000,18.3125,-151.1875,0
813.647,8.0541,-0.2825,0.9002,3.0529,1.0118,-0.4530,-46.6500,20.4000,10.0500,9.1674,0.1101,0.4549,1.9753,0.4274,0.2310,-66.1500,29.1000,-23.1000,-0.4600,4.1700,-8.5800,0.7221,1.6613,-1.7639,-17.3750,-28.0625,16.0625,207.6250,18.6875,-151.1250,0
813.652,8.0541,-0.2825,0.9002,3.0529,1.0118,-0.4530,-46.6500,20.4000,10.0500,9.2560,0.1245,0.3496,1.9553,0.2737,0.2164,-66.1500,29.1000,-23.1000,-0.4600,4.1700,-8.5800,0.7221,1.6613,-1.7639,-17.3750,-28.0625,16.0625,207.6250,18.6875,-151.1250,0
813.657,8.2337,-0.3759,0.8404,2.7792,1.0509,-0.4740,-45.7500,21.0000,7.0500,9.2560,0.1245,0.3496,1.9553,0.2737,0.2164,-66.1500,29.1000,-23.1000,-0.4900,4.5800,-8.4400,0.7821,1.4868,-1.7431,-17.3750,-28.0625,16.0625,206.3750,18.9375,-151.1875,0
813.662,8.2337,-0.3759,0.8404,2.7792,1.0509,-0.4740,-45.7500,21.0000,7.0500,9.3589,0.3998,0.4070,1.9953,0.1140,0.1836,-66.1500,29.1000,-23.1000,-0.4900,4.5800,-8.4400,0.7538,1.3624,-1.8271,-17.3750,-28.0625,16.0625,205.1250,19.1250,-151.1250,0
813.668,8.6862,-0.1748,0.8045,2.4794,1.0336,-0.4807,-45.7500,21.0000,7.0500,9.3589,0.3998,0.4070,1.9953,0.1140,0.1836,-65.4000,29.1000,-24.6000,-0.5200,4.9600,-8.3300,0.7538,1.3624,-1.8271,-17.3750,-28.0625,16.0625,203.8125,19.1875,-151.0625,0
813.677,9.1506,-0.2466,0.4669,2.0757,1.0112,-0.4660,-45.7500,21.0000,7.0500,9.5170,0.5148,0.5267,2.1165,-0.0125,0.1388,-65.8500,28.3500,-24.6000,-0.5400,5.2200,-8.1200,0.7112,1.2468,-1.9569,-17.3750,-28.0625,16.0625,203.8125,19.1875,-151.0625,0
813.687,9.6055,-0.2251,0.0168,1.7221,0.9697,-0.4178,-46.6500,20.4000,6.9000,9.5696,0.4980,0.5938,2.2783,-0.1108,0.0863,-66.1500,29.8500,-25.6500,0.0600,5.3400,-7.8600,0.7058,1.1606,-2.0693,-17.3750,-28.0625,16.0625,202.4375,19.1875,-151.0000,0
813.692,9.5193,-0.1915,-0.4812,1.4333,0.9494,-0.3467,-46.6500,20.4000,6.9000,9.6726,0.4788,0.7230,2.4437,-0.1932,0.0282,-66.1500,29.8500,-25.6500,0.0600,5.3400,-7.8600,0.7058,1.1606,-2.0693,-17.3750,-28.0625,16.0625,202.4375,19.1875,-151.0000,0
813.697,9.5193,-0.1915,-0.4812,1.4333,0.9494,-0.3467,-46.2000,21.1500,6.4500,9.6726,0.4788,0.7230,2.4437,-0.1932,0.0282,-66.1500,29.8500,-25.6500,0.2900,5.3200,-7.7200,0.6774,1.0177,-2.2918,-14.0625,-29.5625,14.2500,200.4375,19.0625,-150.9375,0
813.702,9.4140,-0.1437,-0.8835,1.2145,0.9609,-0.2406,-46.2000,21.1500,6.4500,9.7133,0.2538,0.6752,2.5844,-0.2745,-0.0474,-65.4000,28.3500,-25.6500,0.2900,5.3200,-7.7200,0.6774,1.0177,-2.2918,-14.0625,-29.5625,14.2500,200.4375,19.0625,-150.9375,0
813.707,9.4140,-0.1437,-0.8835,1.2145,0.9609,-0.2406,-44.5500,20.2500,6.7500,9.7133,0.2538,0.6752,2.5844,-0.2745,-0.0474,-66.1500,28.6500,-26.4000,0.5500,5.3800,-7.5800,0.6774,1.0177,-2.2918,-14.0625,-29.5625,14.2500,199.0000,18.9375,-150.8125,0
813.712,9.5050,0.2203,-1.1779,1.0693,0.9526,-0.1601,-44.5500,20.2500,6.7500,9.6893,0.0000,0.6752,2.6625,-0.3373,-0.1007,-66.1500,28.6500,-26.4000,0.5500,5.3800,-7.5800,0.6381,0.9719,-2.3911,-14.0625,-29.5625,14.2500,197.4375,18.7500,-150.6875,0
813.718,9.5050,0.2203,-1.1779,1.0693,0.9526,-0.1601,-44.4000,19.6500,5.8500,9.6558,-0.1628,0.8691,2.6625,-0.3373,-0.1007,-65.4000,29.1000,-26.7000,1.5900,5.3000,-7.4600,0.6381,0.9719,-2.3911,-14.0625,-29.5625,14.2500,195.8750,18.5625,-150.5625,0
813.727,9.7037,0.5267,-1.4078,0.9518,0.9348,-0.1178,-44.4000,19.6500,5.8500,9.7037,-0.3783,0.9697,2.7086,-0.3896,-0.1529,-65.4000,29.1000,-26.7000,1.9200,5.1900,-7.4500,0.6087,0.9403,-2.4675,-14.0625,-29.5625,14.2500,195.8750,18.5625,-150.5625,0
813.737,9.5720,0.9505,-1.5874,0.8585,0.9241,-0.0949,-45.1500,22.6500,5.1000,9.7205,-0.6273,0.9457,2.6857,-0.4338,-0.1879,-65.4000,29.1000,-26.7000,2.4200,5.0800,-7.4300,0.5716,0.9218,-2.5416,-14.0625,-29.5625,14.2500,194.3125,18.3125,-150.3750,0
813.742,9.6750,1.3168,-1.6879,0.8055,0.8703,-0.0786,-45.1500,22.6500,5.1000,9.7205,-0.6273,0.9457,2.6342,-0.4770,-0.2073,-66.1500,29.1000,-28.2000,2.4200,5.0800,-7.4300,0.5716,0.9218,-2.5416,-14.0625,-29.5625,14.2500,192.6250,18.0000,-150.1250,0
813.747,9.6750,1.3168,-1.6879,0.8055,0.8703,-0.0786,-45.0000,19.5000,7.3500,9.8330,-0.7925,0.9553,2.6342,-0.4770,-0.2073,-66.1500,29.1000,-28.2000,3.0900,4.9900,-7.4100,0.4636,0.9403,-2.7194,-11.5000,-30.7500,14.6875,192.6250,18.0000,-150.1250,0
813.752,9.6965,1.5634,-1.8148,0.7727,0.7922,-0.0695,-45.0000,19.5000,7.3500,9.8330,-0.7925,0.9553,2.5620,-0.5076,-0.2209,-65.8500,29.8500,-27.9000,3.0900,4.9900,-7.4100,0.4636,0.9403,-2.7194,-11.5000,-30.7500,14.6875,192.6250,18.0000,-150.1250,0
813.757,9.6965,1.5634,-1.8148,0.7727,0.7922,-0.0695,-45.7500,21.7500,5.7000,9.8234,-0.7997,1.0343,2.4850,-0.5348,-0.2422,-65.8500,29.8500,-27.9000,3.2000,4.4000,-7.0200,0.4636,0.9403,-2.7194,-11.5000,-30.7500,14.6875,190.9375,17.6875,-149.8750,0
813.762,9.6630,1.8387,-1.9441,0.8183,0.7687,-0.0517,-45.7500,21.7500,5.7000,9.8234,-0.7997,1.0343,2.4850,-0.5348,-0.2422,-65.2500,27.7500,-29.2500,3.2000,4.4000,-7.0200,0.4571,0.9414,-2.7849,-11.5000,-30.7500,14.6875,189.1875,17.3750,-149.6250,0
813.768,9.6630,1.8387,-1.9441,0.8183,0.7687,-0.0517,-46.6500,19.9500,6.1500,9.7923,-1.0606,1.1756,2.3880,-0.5580,-0.2665,-64.5000,29.7000,-30.6000,3.5200,3.9600,-7.1200,0.4571,0.9414,-2.7849,-11.5000,-30.7500,14.6875,187.5000,17.1250,-149.3125,0
813.777,9.6678,1.8268,-1.9609,0.8567,0.7560,-0.0304,-45.7500,19.8000,6.3000,9.7109,-1.3144,1.0989,2.2838,-0.5721,-0.2902,-64.5000,29.7000,-30.6000,4.0400,3.8700,-7.3900,0.3851,1.0450,-2.7445,-11.5000,-30.7500,14.6875,187.5000,17.1250,-149.3125,0
813.787,9.4355,1.8292,-1.9225,0.8617,0.7210,0.0005,-45.7500,19.8000,6.3000,9.6630,-1.3719,1.0415,2.1264,-0.5694,-0.3198,-64.6500,28.3500,-31.6500,4.6800,3.2000,-7.5900,0.3382,1.0570,-2.6573,-11.5000,-30.7500,14.6875,185.8125,16.8750,-149.0000,0
813.792,9.1913,1.6472,-1.5467,0.9038,0.6963,0.0453,-45.7500,19.8000,6.3000,9.6630,-1.3719,1.0415,2.1264,-0.5694,-0.3198,-65.5500,27.7500,-32.1000,4.6800,3.2000,-7.5900,0.3382,1.0570,-2.6573,-11.5000,-30.7500,14.6875,185.8125,16.8750,-149.0000,0
813.797,9.1913,1.6472,-1.5467,0.9038,0.6963,0.0453,-44.5500,21.0000,6.0000,9.5457,-1.5586,0.9744,1.8988,-0.5564,-0.3512,-65.5500,27.7500,-32.1000,4.6300,2.2800,-7.5000,0.2771,1.0167,-2.5253,-7.5625,-32.0625,14.5625,184.2500,16.6250,-148.7500,0
813.802,9.1506,1.6233,-1.5155,1.0762,0.7136,0.0933,-45.3000,20.2500,5.7000,9.5457,-1.5586,0.9744,1.8988,-0.5564,-0.3512,-65.5500,27.7500,-32.1000,4.6300,2.2800,-7.5000,0.2771,1.0167,-2.5253,-7.5625,-32.0625,14.5625,184.2500,16.6250,-148.7500,0
813.807,9.1506,1.6233,-1.5155,1.0762,0.7136,0.0933,-45.3000,20.2500,5.7000,9.6295,-1.9992,0.9505,1.7360,-0.5295,-0.3752,-65.5500,27.7500,-32.1000,4.4900,1.5200,-7.3200,0.1658,0.9981,-2.3017,-7.5625,-32.0625,14.5625,182.8125,16.4375,-148.4375,0
813.813,9.3733,1.7047,-1.8028,1.1996,0.8021,0.1545,-46.2000,19.6500,5.4000,9.6295,-1.9992,0.9505,1.7360,-0.5295,-0.3752,-66.7500,27.7500,-31.8000,4.4900,1.5200,-7.3200,0.0447,0.9752,-1.9766,-7.5625,-32.0625,14.5625,181.5625,16.3125,-148.0625,0
813.818,9.2536,1.6712,-2.0590,1.1738,0.8164,0.2022,-46.2000,19.6500,5.4000,9.5170,-2.5067,1.2546,1.5226,-0.5380,-0.3984,-66.7500,27.7500,-31.8000,4.7200,0.9400,-7.2200,0.0447,0.9752,-1.9766,-7.5625,-32.0625,14.5625,180.5000,16.3125,-147.7500,0
813.827,9.1099,1.4916,-1.3934,1.1309,0.8615,0.2182,-46.2000,21.1500,5.1000,9.3206,-2.8156,1.1947,1.1818,-0.5385,-0.4167,-66.7500,27.7500,-31.8000,4.8500,0.7600,-7.0400,-0.0535,0.9687,-1.5806,-7.5625,-32.0625,14.5625,180.5000,16.3125,-147.7500,0
813.837,9.3470,1.3144,-0.9577,1.1381,0.9169,0.1948,-46.2000,21.1500,5.1000,9.0190,-3.0622,1.0295,0.7954,-0.5369,-0.4431,-64.3500,28.3500,-33.7500,4.7600,0.4000,-6.7700,-0.1571,0.9632,-1.1628,-7.5625,-32.0625,14.5625,179.7500,16.4375,-147.4375,0
813.842,9.3470,1.3144,-0.9577,1.1381,0.9169,0.1948,-46.6500,19.9500,5.8500,9.0812,-3.0406,1.1827,0.7954,-0.5369,-0.4431,-63.9000,29.1000,-33.7500,4.7600,0.4000,-6.7700,-0.1571,0.9632,-1.1628,-7.5625,-32.0625,14.5625,179.7500,16.4375,-147.4375,0
813.847,9.3541,0.9002,-1.0678,1.1831,0.9633,0.1761,-46.6500,19.9500,5.8500,9.0812,-3.0406,1.1827,0.4282,-0.5428,-0.4612,-63.9000,29.1000,-33.7500,4.5600,0.0800,-6.0100,-0.3142,0.9719,-0.7909,-3.8750,-33.1875,13.2500,179.1875,16.6250,-147.0625,0
813.852,9.3541,0.9002,-1.0678,1.1831,0.9633,0.1761,-44.8500,19.2000,6.1500,9.0716,-2.5738,1.1444,0.4282,-0.5428,-0.4612,-64.8000,28.5000,-35.1000,4.5600,0.0800,-6.0100,-0.3142,0.9719,-0.7909,-3.8750,-33.1875,13.2500,179.1875,16.6250,-147.0625,0
813.857,9.4643,0.4405,-1.4269,1.1511,1.0014,0.1841,-44.8500,19.2000,6.1500,9.0716,-2.5738,1.1444,0.0258,-0.5263,-0.4847,-64.8000,28.5000,-35.1000,14.5800,4.4500,-6.1100,-0.5541,1.3123,-0.1767,-3.8750,-33.1875,13.2500,178.9375,17.1875,-146.5625,0
813.862,9.4643,0.4405,-1.4269,1.1511,1.0014,0.1841,-45.7500,18.0000,6.0000,8.9184,-2.0446,1.1875,0.0258,-0.5263,-0.4847,-65.4000,28.6500,-34.2000,14.5800,4.4500,-6.1100,0.7919,0.9054,1.2086,-3.8750,-33.1875,13.2500,179.3750,17.9375,-147.1250,0
813.868,9.1363,0.3136,-1.7071,1.0155,0.8934,0.1887,-45.7500,18.0000,6.0000,8.9184,-2.0446,1.1875,-0.3142,-0.5716,-0.4663,-65.4000,28.6500,-34.2000,10.2700,4.0000,-11.0200,0.7919,0.9054,1.2086,-3.8750,-33.1875,13.2500,180.0000,18.7500,-148.0000,0
813.877,8.7580,0.6440,-1.9465,0.8559,0.8383,0.2030,-44.5500,19.0500,6.0000,8.5617,-1.2234,1.3048,-0.4815,-0.4527,-0.4322,-65.1000,30.6000,-34.2000,2.5600,-0.6900,-5.5800,1.2719,0.6556,1.5119,-3.8750,-33.1875,13.2500,180.0000,18.7500,-148.0000,0
813.887,9.0190,1.3096,-2.0758,0.7429,0.9188,0.2148,-45.9000,20.4000,6.1500,8.8131,-0.8523,0.6249,-0.6643,-0.2395,-0.4013,-65.1000,28.3500,-34.9500,13.2000,-4.2900,-23.8800,1.5206,2.6474,1.9090,-3.8750,-33.1875,13.2500,180.5000,20.5000,-148.8750,0
813.892,9.0190,1.3096,-2.0758,0.7429,0.9188,0.2148,-45.9000,20.4000,6.1500,9.3877,-2.3367,1.0511,-0.5268,-0.0293,-0.1841,-65.1000,28.3500,-34.9500,13.2000,-4.2900,-23.8800,1.5206,2.6474,1.9090,-3.8750,-33.1875,13.2500,180.7500,21.2500,-149.8750,0
813.897,9.7157,1.7334,-2.3032,0.4719,0.8756,0.1913,-45.9000,20.4000,6.1500,9.3877,-2.3367,1.0511,-0.5268,-0.0293,-0.1841,-65.1000,28.3500,-34.9500,22.9500,-15.9800,-16.8700,1.5719,0.8825,1.0527,-2.5625,-33.1875,14.5000,180.7500,21.2500,-149.8750,0
813.902,9.7157,1.7334,-2.3032,0.4719,0.8756,0.1913,-43.5000,20.5500,5.7000,10.1275,-3.8307,1.3934,-0.1156,0.1956,0.2116,-64.0500,28.5000,-35.5500,22.9500,-15.9800,-16.8700,1.5719,0.8825,1.0527,-2.5625,-33.1875,14.5000,180.9375,20.6875,-150.5625,0
813.907,10.2520,2.2003,-2.4086,0.0970,0.7509,0.1708,-43.5000,20.5500,5.7000,10.1275,-3.8307,1.3934,-0.1156,0.1956,0.2116,-64.0500,28.5000,-35.5500,11.4900,-12.1500,-8.7100,0.9894,-1.2425,0.1844,-2.5625,-33.1875,14.5000,180.9375,20.6875,-150.5625,0
813.915,11.5257,2.1715,-1.9824,-0.4282,0.6885,0.2068,-45.9000,19.9500,5.4000,11.4179,-2.2841,-1.4126,-0.5596,0.2289,0.4671,-64.0500,28.5000,-35.5500,7.8600,6.3900,-8.0500,1.1945,-1.2435,-0.0502,-2.5625,-33.1875,14.5000,180.9375,20.0625,-151.3750,0
813.920,11.5257,2.1715,-1.9824,-0.4282,0.6885,0.2068,-46.6500,19.9500,6.9000,13.3142,0.3855,-3.7541,-1.2516,0.0746,0.4911,-65.4000,31.0500,-33.4500,7.8600,6.3900,-8.0500,1.1945,-1.2435,-0.0502,-2.5625,-33.1875,14.5000,180.6875,19.4375,-151.8750,0
813.928,13.4746,1.5921,-0.9768,-0.6734,0.6787,0.3416,-46.6500,19.9500,6.9000,13.3142,0.3855,-3.7541,-1.2516,0.0746,0.4911,-65.4000,31.0500,-33.4500,2.1700,12.5000,-6.5800,0.9654,-1.0287,-0.5400,-2.5625,-33.1875,14.5000,180.3750,19.0625,-152.3750,0
813.938,14.8010,1.2929,-1.9393,-0.3861,0.6949,0.4509,-46.8000,19.0500,7.0500,13.6039,3.2154,-6.0142,-0.6824,0.2185,0.2982,-65.1000,27.4500,-32.7000,0.5600,13.1700,-7.3900,0.9370,-0.5323,-0.5334,-2.5625,-33.1875,14.5000,180.3750,19.0625,-152.3750,0
813.942,13.3788,2.0901,-4.0438,-0.0794,0.4930,0.3818,-46.8000,19.0500,7.0500,11.9638,3.3519,-3.7876,1.1034,0.5604,0.0394,-64.0500,29.7000,-34.3500,0.5600,13.1700,-7.3900,0.9370,-0.5323,-0.5334,-2.5625,-33.1875,14.5000,180.1875,18.8125,-152.7500,0
813.947,13.3788,2.0901,-4.0438,-0.0794,0.4930,0.3818,-46.8000,19.0500,7.0500,11.9638,3.3519,-3.7876,1.1034,0.5604,0.0394,-64.0500,29.7000,-34.3500,1.7400,2.7800,-11.1300,0.6807,-0.2858,-0.2269,-4.0000,-32.5625,15.5625,180.1875,18.8125,-152.7500,0
813.952,10.9439,2.9832,-4.3311,-0.0245,0.2244,0.2308,-46.8000,19.0500,7.0500,10.2903,2.0446,-0.8906,2.1461,0.6909,-0.3552,-64.0500,29.7000,-34.8000,1.7400,2.7800,-11.1300,0.6807,-0.2858,-0.2269,-4.0000,-32.5625,15.5625,180.1875,18.8125,-152.7500,0
813.957,10.9439,2.9832,-4.3311,-0.0245,0.2244,0.2308,-46.8000,19.0500,7.0500,7.8506,-0.2969,0.2610,2.1461,0.6909,-0.3552,-64.0500,29.7000,-34.8000,3.5000,3.3200,-9.1700,0.3622,-0.1451,0.0905,-4.0000,-32.5625,15.5625,180.2500,18.8125,-152.9375,0
813.962,8.6024,3.6751,-3.2178,-0.0384,0.2473,0.1258,-46.8000,18.7500,8.1000,7.8506,-0.2969,0.2610,1.7600,0.6227,-0.5489,-64.6500,30.6000,-35.2500,3.5000,3.3200,-9.1700,0.1713,-0.1407,0.1145,-4.0000,-32.5625,15.5625,180.3125,18.7500,-153.0625,0
813.968,8.6024,3.6751,-3.2178,-0.0384,0.2473,0.1258,-46.8000,18.7500,8.1000,8.1307,-1.5586,1.0343,1.1255,0.7885,-0.2859,-64.6500,30.6000,-35.2500,3.0600,4.2000,-8.3100,0.1713,-0.1407,0.1145,-4.0000,-32.5625,15.5625,180.3750,18.6875,-153.1875,0
813.977,7.9487,3.6200,-1.7885,0.0008,0.4389,0.0925,-46.5000,20.5500,7.8000,9.9647,-0.7877,0.6584,1.1255,0.7885,-0.2859,-63.9000,29.8500,-34.5000,2.4900,4.6800,-8.0300,0.1298,-0.1276,0.0982,-4.0000,-32.5625,15.5625,180.3750,18.6875,-153.1875,0
813.987,8.1427,3.1484,0.0263,-0.0027,0.5145,0.1370,-47.7000,18.4500,8.2500,9.6702,1.4006,-0.8499,0.4109,0.5423,0.0986,-63.9000,29.8500,-34.5000,4.0000,2.1100,-8.6700,0.2367,-0.0731,-0.0109,-4.0000,-32.5625,15.5625,180.3750,18.6875,-153.3125,0
813.992,8.7724,2.9090,1.1971,-0.1010,0.5676,0.1940,-46.9500,18.9000,7.6500,9.6702,1.4006,-0.8499,0.4109,0.5423,0.0986,-64.6500,29.1000,-35.7000,4.0000,2.1100,-8.6700,0.2367,-0.0731,-0.0109,-4.0000,-32.5625,15.5625,180.3750,18.6875,-153.3125,0
813.998,8.7724,2.9090,1.1971,-0.1010,0.5676,0.1940,-46.9500,18.9000,7.6500,9.6079,2.4732,0.4357,0.2425,0.5073,0.0789,-64.6500,29.1000,-35.7000,4.2100,3.0200,-8.2500,0.2869,-0.1113,-0.1560,-4.0000,-31.5000,17.5625,180.2500,18.5625,-153.4375,0
814.002,9.3805,2.9042,1.6137,-0.1529,0.5513,0.1969,-46.9500,18.9000,7.6500,9.6079,2.4732,0.4357,0.2425,0.5073,0.0789,-64.8000,30.0000,-34.8000,4.2100,3.0200,-8.2500,0.2869,-0.1113,-0.1560,-4.0000,-31.5000,17.5625,180.2500,18.5625,-153.4375,0
814.008,9.3805,2.9042,1.6137,-0.1529,0.5513,0.1969,-46.9500,18.9000,7.6500,10.1825,0.6440,2.0063,-0.0762,0.3317,0.0160,-64.8000,30.0000,-34.8000,3.6400,4.7500,-8.1400,0.2378,-0.0927,-0.2193,-4.0000,-31.5000,17.5625,180.1250,18.5000,-153.5625,0
814.015,9.3661,2.8539,2.2649,-0.1092,0.6539,0.1447,-47.7000,20.4000,9.0000,9.6822,-0.2849,0.9409,-0.0762,0.3317,0.0160,-66.3000,28.9500,-35.1000,3.4500,5.3800,-7.9900,0.2094,-0.0742,-0.1811,-4.0000,-31.5000,17.5625,180.0000,18.3750,-153.6250,0
814.020,9.3350,2.1907,3.2753,-0.0360,0.6837,0.1127,-45.4500,19.2000,9.3000,9.6822,-0.2849,0.9409,-0.3653,0.1767,-0.0232,-64.8000,28.9500,-35.1000,3.4500,5.3800,-7.9900,0.2094,-0.0742,-0.1811,-4.0000,-31.5000,17.5625,179.9375,18.3125,-153.7500,0
814.028,9.3350,2.1907,3.2753,-0.0360,0.6837,0.1127,-45.9000,18.1500,10.0500,9.7707,0.5148,1.0463,-0.4104,0.2609,-0.0703,-64.8000,30.9000,-34.8000,3.8100,4.8300,-7.9600,0.2225,-0.0873,-0.1014,-4.0000,-31.5000,17.5625,179.9375,18.2500,-153.8750,0
814.038,9.3877,0.9936,4.2713,0.1439,0.7037,0.1154,-46.6500,20.7000,8.7000,10.5943,0.9122,1.6664,-0.0741,0.3397,-0.0091,-65.8500,29.5500,-35.2500,3.6200,4.3700,-8.1700,0.2291,-0.1036,-0.0480,-4.0000,-31.5000,17.5625,179.9375,18.2500,-153.8750,0
814.043,9.7444,-0.2993,3.8714,0.4660,0.7560,0.1620,-46.6500,20.7000,8.7000,10.5943,0.9122,1.6664,-0.0741,0.3397,-0.0091,-64.3500,31.8000,-34.9500,3.6200,4.3700,-8.1700,0.2291,-0.1036,-0.0480,-4.0000,-31.5000,17.5625,179.8750,18.1875,-154.0625,0
814.048,9.7444,-0.2993,3.8714,0.4660,0.7560,0.1620,-46.2000,19.2000,9.0000,10.1323,0.7374,1.4964,0.2358,0.3019,0.0099,-64.3500,31.8000,-34.9500,3.2800,3.8000,-8.4900,0.2498,-0.0927,-0.0545,-2.6875,-32.3750,17.0000,179.8750,18.1875,-154.0625,0
814.052,9.6750,-0.4310,3.0837,0.8796,0.6654,0.2276,-46.2000,19.2000,9.0000,10.1323,0.7374,1.4964,0.2358,0.3019,0.0099,-64.3500,31.8000,-34.9500,3.2800,3.8000,-8.4900,0.2498,-0.0927,-0.0545,-2.6875,-32.3750,17.0000,179.8125,18.1250,-154.1875,0
814.058,9.6750,-0.4310,3.0837,0.8796,0.6654,0.2276,-46.2000,19.2000,9.0000,9.6391,1.2186,1.3288,0.6273,0.3032,-0.0525,-64.3500,31.8000,-34.9500,3.5700,3.3500,-8.5500,0.2411,-0.0644,-0.0785,-2.6875,-32.3750,17.0000,179.8125,18.1250,-154.1875,0
814.062,9.8043,0.0311,2.2505,1.1501,0.6278,0.3203,-46.2000,19.2000,9.0000,9.6391,1.2186,1.3288,0.6273,0.3032,-0.0525,-64.0500,29.7000,-34.3500,3.5700,3.3500,-8.5500,0.2083,-0.0524,-0.1036,-2.6875,-32.3750,17.0000,179.7500,18.1250,-154.2500,0
814.068,9.9503,0.9888,1.7454,1.1804,0.6206,0.3970,-45.7500,19.5000,7.3500,9.5912,0.9505,1.7813,0.9241,0.2910,-0.1327,-64.0500,29.7000,-34.3500,3.3400,3.8700,-8.4700,0.2083,-0.0524,-0.1036,-2.6875,-32.3750,17.0000,179.6875,18.0625,-154.3750,0
814.078,9.8689,1.2402,1.2546,1.1575,0.5617,0.4269,-46.8000,19.8000,8.8500,9.8067,0.3304,1.7502,1.0589,0.2705,-0.1735,-64.0500,29.7000,-34.3500,3.3100,4.0500,-8.4000,0.1909,-0.0404,-0.1200,-2.6875,-32.3750,17.0000,179.5625,18.0000,-154.4375,0
814.088,10.1610,1.1013,0.8428,1.0152,0.4455,0.4226,-44.4000,19.2000,7.2000,10.2544,-0.5794,1.8028,0.8937,0.2108,-0.1396,-65.5500,30.0000,-35.5500,3.3700,4.1300,-8.4200,0.1789,-0.0360,-0.1244,-2.6875,-32.3750,17.0000,179.5625,18.0000,-154.4375,0
814.093,10.1610,1.1013,0.8428,1.0152,0.4455,0.4226,-44.4000,19.2000,7.2000,10.0748,-0.9290,1.7214,0.8937,0.2108,-0.1396,-65.4000,29.8500,-35.7000,3.3700,4.1300,-8.4200,0.1789,-0.0360,-0.1244,-2.6875,-32.3750,17.0000,179.5000,17.9375,-154.5000,0
814.098,9.7588,0.3687,0.9505,0.6089,0.2939,0.4266,-43.5000,18.3000,6.7500,10.0748,-0.9290,1.7214,0.5372,0.0951,-0.1140,-65.4000,29.8500,-35.7000,3.3400,4.1600,-8.4100,0.1582,-0.0316,-0.1156,-2.6875,-31.1875,15.7500,179.5000,17.9375,-154.5000,0
814.103,9.7588,0.3687,0.9505,0.6089,0.2939,0.4266,-43.5000,18.3000,6.7500,9.9311,-0.7302,1.1899,0.1553,-0.0043,-0.1263,-65.4000,30.6000,-36.7500,3.3400,4.1600,-8.4100,0.1582,-0.0316,-0.1156,-2.6875,-31.1875,15.7500,179.4375,17.9375,-154.5625,0
814.108,9.5313,-0.1915,0.8930,0.5452,0.3565,0.4370,-43.5000,18.3000,6.7500,9.9311,-0.7302,1.1899,0.1553,-0.0043,-0.1263,-65.4000,30.6000,-36.7500,3.3600,4.2400,-8.4200,0.1298,-0.0327,-0.1014,-2.6875,-31.1875,15.7500,179.4375,17.9375,-154.5625,0
814.117,9.5505,-0.1221,0.9960,0.5915,0.4450,0.4104,-44.5500,18.7500,8.5500,9.6702,-0.0455,0.6560,-0.1053,-0.0472,-0.1564,-65.5500,29.2500,-35.1000,3.3400,4.1800,-8.4400,0.1004,-0.0404,-0.0840,-2.6875,-31.1875,15.7500,179.3750,17.8750,-154.6250,0
814.121,9.5505,-0.1221,0.9960,0.5915,0.4450,0.4104,-44.5500,18.7500,8.5500,9.7468,1.0008,-0.0383,-0.1053,-0.0472,-0.1564,-65.5500,30.4500,-34.8000,3.3400,4.1800,-8.4400,0.1004,-0.0404,-0.0840,-2.6875,-31.1875,15.7500,179.3750,17.8125,-154.6250,0
814.128,9.8234,0.2993,1.3192,0.4692,0.4895,0.3584,-46.2000,19.6500,7.9500,9.7468,1.0008,-0.0383,-0.2326,-0.0717,-0.1447,-65.5500,30.4500,-34.8000,3.2700,4.1400,-8.4700,0.0720,-0.0491,-0.0687,-2.6875,-31.1875,15.7500,179.3750,17.8125,-154.6250,0
814.138,9.8641,0.8380,1.2713,0.3264,0.4381,0.2979,-46.6500,19.2000,9.0000,9.7875,1.7334,-0.3112,-0.1164,-0.0477,-0.1223,-65.5500,29.7000,-35.5500,3.2500,4.1900,-8.3000,0.0622,-0.0796,-0.0545,-2.6875,-31.1875,15.7500,179.3125,17.8125,-154.6875,0
814.143,9.8641,0.8380,1.2713,0.3264,0.4381,0.2979,-46.6500,19.2000,9.0000,9.6151,2.4517,-0.4357,0.0682,-0.0306,-0.1079,-65.5500,29.7000,-35.5500,3.2500,4.1900,-8.3000,0.0622,-0.0796,-0.0545,-2.6875,-31.1875,15.7500,179.3125,17.8125,-154.6875,0
814.148,9.8019,1.5131,1.1732,0.1927,0.2888,0.2345,-46.8000,20.2500,7.0500,9.6151,2.4517,-0.4357,0.0682,-0.0306,-0.1079,-65.5500,29.7000,-35.5500,3.1500,4.1000,-8.4800,0.2083,-0.2509,-0.0382,-1.8750,-31.1875,17.5000,179.3125,17.6875,-154.8125,0
814.153,9.8019,1.5131,1.1732,0.1927,0.2888,0.2345,-46.8000,20.2500,7.0500,9.5744,2.5307,-0.6512,0.2619,0.0211,-0.0967,-65.4000,29.8500,-35.2500,3.1500,4.1000,-8.4800,0.2083,-0.2509,-0.0382,-1.8750,-31.1875,17.5000,179.3125,17.6875,-154.8125,0
814.158,9.8809,2.2122,1.1037,0.0637,0.2044,0.1785,-45.7500,20.2500,7.0500,9.5744,2.5307,-0.6512,0.2619,0.0211,-0.0967,-65.4000,29.8500,-35.2500,3.1700,4.0400,-8.5100,0.0480,-0.0600,-0.0425,-1.8750,-31.1875,17.5000,179.3125,17.6250,-154.8125,0
814.162,9.8809,2.2122,1.1037,0.0637,0.2044,0.1785,-45.7500,20.2500,7.0500,9.5002,2.1524,-0.5219,0.4098,0.0674,-0.0831,-65.4000,29.8500,-35.2500,3.1700,4.0400,-8.5100,-0.0033,-0.0065,-0.0447,-1.8750,-31.1875,17.5000,179.2500,17.6250,-154.8125,0
814.169,9.6007,2.7916,0.9625,-0.0357,0.1370,0.1287,-45.7500,20.2500,7.0500,9.5002,2.1524,-0.5219,0.4098,0.0674,-0.0831,-65.4000,29.8500,-35.2500,3.1000,4.1600,-8.5100,-0.0033,-0.0065,-0.0447,-1.8750,-31.1875,17.5000,179.2500,17.6250,-154.8125,0
814.178,9.5050,3.1053,0.8404,-0.1311,0.1476,0.0879,-45.3000,19.8000,7.3500,9.6989,1.7837,-0.4094,0.3296,0.0845,-0.0770,-64.8000,30.0000,-36.1500,3.0800,4.3200,-8.3900,-0.0164,0.0076,-0.0415,-1.8750,-31.1875,17.5000,179.2500,17.6250,-154.7500,0
814.184,9.5050,3.1053,0.8404,-0.1311,0.1476,0.0879,-45.3000,19.8000,7.3500,9.6869,1.1301,-0.1939,0.2049,0.0767,-0.0506,-65.5500,30.9000,-35.8500,3.0800,4.2900,-8.3600,-0.0109,0.0098,-0.0382,-1.8750,-31.1875,17.5000,179.2500,17.6250,-154.7500,0
814.189,9.4667,2.8276,1.2139,-0.1543,0.0901,0.0354,-47.1000,19.5000,9.1500,9.5361,0.9649,-0.2155,-0.0280,0.0341,-0.0389,-65.5500,30.9000,-35.8500,3.0800,4.2900,-8.3600,-0.0109,0.0098,-0.0382,-1.8750,-31.1875,17.5000,179.2500,17.6250,-154.7500,0
814.194,9.5289,2.3343,1.6065,-0.0501,0.0133,-0.0181,-47.1000,19.5000,9.1500,9.5361,0.9649,-0.2155,-0.0280,0.0341,-0.0389,-64.8000,30.9000,-36.9000,3.0800,4.2900,-8.3600,-0.0109,0.0098,-0.0382,-1.5000,-30.8750,17.5000,178.3125,17.6250,-154.6875,0
814.199,9.5289,2.3343,1.6065,-0.0501,0.0133,-0.0181,-47.8500,19.5000,8.5500,9.4427,1.2354,-0.1173,-0.1244,0.0237,-0.0179,-64.8000,30.9000,-36.9000,3.1400,4.2700,-8.3000,0.0033,0.0076,-0.0327,-1.5000,-30.8750,17.5000,178.3125,17.6250,-154.6875,0
814.204,9.3709,1.9178,0.4693,-0.0735,0.0911,-0.0405,-47.8500,19.5000,8.5500,9.4427,1.2354,-0.1173,-0.1244,0.0237,-0.0179,-66.3000,30.9000,-36.6000,3.1400,4.2700,-8.3000,0.0033,0.0076,-0.0327,-1.5000,-30.8750,17.5000,178.3125,17.6250,-154.6875,0
814.209,9.3709,1.9178,0.4693,-0.0735,0.0911,-0.0405,-46.5000,19.8000,8.5500,9.4619,1.4868,-0.1413,-0.1458,0.0136,-0.0157,-66.3000,30.9000,-36.6000,3.0200,4.2400,-8.3700,0.0207,0.0022,-0.0305,-1.5000,-30.8750,17.5000,178.3125,17.6250,-154.6875,0
814.214,9.4379,1.9489,-0.0886,-0.0909,0.1314,-0.0338,-46.5000,19.8000,8.5500,9.4619,1.4868,-0.1413,-0.1458,0.0136,-0.0157,-64.6500,30.3000,-34.2000,3.0200,4.2400,-8.3700,0.0338,-0.0022,-0.0240,-1.5000,-30.8750,17.5000,178.2500,17.6250,-154.6875,0
814.219,9.4379,1.9489,-0.0886,-0.0909,0.1314,-0.0338,-46.5000,19.8000,8.5500,9.3877,1.9297,-0.2705,-0.0879,0.0402,-0.0115,-64.6500,30.3000,-34.2000,3.1200,4.1600,-8.4300,0.0338,-0.0022,-0.0240,-1.5000,-30.8750,17.5000,178.2500,17.6250,-154.6875,0
814.228,9.5146,2.3535,0.5052,-0.1143,0.0914,-0.0171,-46.8000,18.0000,11.4000,9.4715,2.1069,-0.2203,0.0386,0.0693,-0.0211,-64.0500,29.2500,-35.5500,3.1000,4.1600,-8.4100,0.0393,-0.0055,-0.0175,-1.5000,-30.8750,17.5000,178.2500,17.6250,-154.6875,0
814.234,9.6055,2.7653,1.1085,-0.1511,0.0933,-0.0325,-46.8000,18.0000,11.4000,9.4715,2.1069,-0.2203,0.0386,0.0693,-0.0211,-64.0500,29.2500,-35.5500,3.1100,4.1900,-8.3700,0.0502,-0.0109,-0.0153,-1.5000,-30.8750,17.5000,178.2500,17.6250,-154.7500,0
814.239,9.6055,2.7653,1.1085,-0.1511,0.0933,-0.0325,-46.8000,18.7500,8.8500,9.5744,1.8986,0.0670,0.1484,0.0783,-0.0125,-64.0500,29.2500,-35.5500,3.1100,4.1900,-8.3700,0.0502,-0.0109,-0.0153,-1.5000,-30.8750,17.5000,178.2500,17.6250,-154.7500,0
814.244,9.5553,2.6624,1.4126,-0.2651,0.0224,-0.0552,-47.5500,20.2500,8.8500,9.5744,1.8986,0.0670,0.1484,0.0783,-0.0125,-65.5500,30.9000,-36.6000,3.1100,4.1900,-8.3700,0.0611,-0.0142,-0.0164,-1.5000,-31.5625,18.5625,177.3125,17.6250,-154.7500,0
814.249,9.5553,2.6624,1.4126,-0.2651,0.0224,-0.0552,-47.5500,20.2500,9.6000,9.4930,1.3886,0.1245,0.2150,0.0823,0.0003,-65.5500,30.9000,-36.6000,3.1200,4.2400,-8.3300,0.0611,-0.0142,-0.0164,-1.5000,-31.5625,18.5625,177.3125,17.6250,-154.7500,0
814.254,9.4427,2.3176,1.6137,-0.2190,-0.0077,-0.0642,-46.6500,17.7000,9.6000,9.4930,1.3886,0.1245,0.2150,0.0823,0.0003,-64.3500,29.8500,-35.2500,3.1200,4.2400,-8.3300,0.0720,-0.0131,-0.0164,-1.5000,-31.5625,18.5625,177.3125,17.6250,-154.7500,0
814.259,9.4427,2.3176,1.6137,-0.2190,-0.0077,-0.0642,-46.6500,17.7000,7.9500,9.6989,1.1732,0.1508,0.1450,0.0791,0.0250,-64.3500,29.8500,-35.2500,3.1500,4.1400,-8.4100,0.0720,-0.0131,-0.0164,-1.5000,-31.5625,18.5625,177.3125,17.6250,-154.7500,0
814.264,9.5265,2.0662,1.6041,-0.0973,0.0005,-0.0695,-46.8000,19.0500,8.5500,9.6989,1.1732,0.1508,0.1450,0.0791,0.0250,-65.8500,30.3000,-35.7000,3.1500,4.1400,-8.4100,0.0785,-0.0131,-0.0175,-1.5000,-31.5625,18.5625,177.3125,17.6250,-154.8125,0
814.269,9.5265,2.0662,1.6041,-0.0973,0.0005,-0.0695,-46.8000,19.0500,8.5500,9.7899,1.1851,0.4860,0.0160,0.0498,0.0370,-65.8500,30.3000,-35.7000,3.1100,4.2200,-8.4500,0.0785,-0.0131,-0.0175,-1.5000,-31.5625,18.5625,177.3125,17.6250,-154.8125,0
814.278,9.6343,2.0039,1.7095,-0.0195,-0.0245,-0.0999,-46.8000,19.0500,8.5500,9.8258,1.2953,0.4669,-0.0775,0.0144,0.0525,-64.6500,30.3000,-37.2000,3.1000,4.2600,-8.4600,0.0807,-0.0175,-0.0142,-1.5000,-31.5625,18.5625,177.3125,17.6250,-154.8125,0
814.283,9.6630,1.9106,1.8651,-0.0203,-0.0365,-0.1292,-46.8000,19.0500,8.5500,9.8258,1.2953,0.4669,-0.0775,0.0144,0.0525,-64.3500,30.3000,-36.4500,3.1000,4.2600,-8.4600,0.0753,-0.0196,-0.0098,-1.5000,-31.5625,18.5625,177.2500,17.6250,-154.8750,0
814.289,9.6630,1.9106,1.8651,-0.0203,-0.0365,-0.1292,-47.8500,18.0000,9.6000,9.8761,1.3934,0.5962,-0.0933,0.0107,0.0624,-64.3500,30.3000,-36.4500,3.1200,4.2400,-8.4700,0.0753,-0.0196,-0.0098,-1.5000,-31.5625,18.5625,177.2500,17.6250,-154.8750,0
814.294,9.7444,1.6616,2.1644,-0.1007,-0.0557,-0.1551,-46.2000,18.1500,9.3000,9.7492,1.4676,0.4788,-0.0933,0.0107,0.0624,-63.9000,30.6000,-36.4500,3.1200,4.2400,-8.4700,0.0687,-0.0175,-0.0065,-1.8750,-32.0000,17.5000,176.5625,17.6250,-154.8750,0
814.299,9.7444,1.6616,2.1644,-0.1007,-0.0557,-0.1551,-46.2000,18.1500,9.3000,9.7492,1.4676,0.4788,-0.1186,-0.0045,0.0863,-63.9000,30.6000,-36.4500,3.1400,4.2000,-8.4800,0.0687,-0.0175,-0.0065,-1.8750,-32.0000,17.5000,176.5625,17.6250,-154.8750,0
814.304,9.6702,1.5754,2.4301,-0.1023,-0.0698,-0.1993,-46.8000,19.8000,7.3500,9.6941,1.3623,0.6464,-0.1186,-0.0045,0.0863,-63.9000,30.6000,-36.4500,3.1400,4.2000,-8.4800,0.0578,-0.0131,-0.0022,-1.8750,-32.0000,17.5000,176.5625,17.6250,-154.9375,0
814.309,9.6702,1.5754,2.4301,-0.1023,-0.0698,-0.1993,-46.8000,19.8000,7.3500,9.6941,1.3623,0.6464,-0.0679,-0.0091,0.0887,-63.9000,30.6000,-36.4500,3.1300,4.1600,-8.5000,0.0578,-0.0131,-0.0022,-1.8750,-32.0000,17.5000,176.5625,17.6250,-154.9375,0
814.314,9.9216,1.6951,2.9113,-0.0925,-0.0898,-0.2499,-46.2000,18.9000,9.3000,9.9000,0.9816,1.1253,-0.0679,-0.0091,0.0887,-64.5000,30.4500,-35.8500,3.1300,4.1600,-8.5000,0.0502,-0.0120,0.0033,-1.8750,-32.0000,17.5000,176.5625,17.6250,-154.9375,0
814.319,9.9216,1.6951,2.9113,-0.0925,-0.0898,-0.2499,-46.2000,18.9000,9.3000,9.9000,0.9816,1.1253,-0.0416,-0.0336,0.0922,-64.5000,30.4500,-35.8500,3.0800,4.2600,-8.5000,0.0502,-0.0120,0.0033,-1.8750,-32.0000,17.5000,176.5625,17.6250,-154.9375,0
814.328,9.9479,1.4317,2.4373,-0.2601,-0.0866,-0.2926,-46.2000,18.9000,9.3000,9.9671,0.5962,1.3982,-0.1066,-0.0842,0.1058,-64.5000,30.4500,-35.8500,3.0800,4.2000,-8.4900,0.0436,-0.0131,0.0076,-1.8750,-32.0000,17.5000,176.5625,17.6250,-154.9375,0
814.336,9.4164,0.5986,2.3296,-0.4285,-0.0919,-0.2566,-46.2000,18.9000,9.3000,9.8354,0.6105,1.2570,-0.2270,-0.1410,0.1159,-64.8000,30.4500,-36.9000,3.1700,4.0900,-8.5100,0.0316,-0.0109,0.0164,-1.8750,-32.0000,17.5000,176.5625,17.6250,-154.9375,0
814.341,9.3134,0.1149,2.0303,-0.4487,-0.1159,-0.2004,-46.2000,18.9000,9.3000,9.8354,0.6105,1.2570,-0.2270,-0.1410,0.1159,-64.8000,30.4500,-36.9000,3.1700,4.0900,-8.5100,0.0316,-0.0109,0.0164,-1.8750,-32.0000,17.5000,176.5625,17.6250,-154.9375,0
814.346,9.3134,0.1149,2.0303,-0.4487,-0.1159,-0.2004,-47.7000,19.2000,8.7000,9.8067,1.0271,1.0056,-0.3078,-0.1972,0.1196,-64.8000,30.0000,-34.8000,3.2000,4.1400,-8.4200,0.0196,-0.0120,0.0185,-1.8750,-31.5625,17.7500,175.8750,17.6250,-154.9375,0
814.351,9.6630,0.4238,1.7238,-0.3834,-0.1740,-0.1881,-47.7000,19.2000,8.7000,9.8067,1.0271,1.0056,-0.3078,-0.1972,0.1196,-64.8000,30.0000,-34.8000,3.2000,4.1400,-8.4200,0.0196,-0.0120,0.0185,-1.8750,-31.5625,17.7500,175.8750,17.6250,-154.9375,0
814.359,9.6941,0.9433,1.5562,-0.3946,-0.2513,-0.2046,-46.8000,20.2500,7.0500,9.7037,1.1205,0.7805,-0.3008,-0.2308,0.1154,-64.3500,29.8500,-35.7000,3.1600,4.2100,-8.4900,0.0109,-0.0175,0.0175,-1.8750,-31.5625,17.7500,175.8750,17.6250,-154.9375,0
814.368,9.6941,0.9433,1.5562,-0.4202,-0.2883,-0.2204,-46.6500,19.6500,8.2500,9.7731,0.9433,0.4453,-0.2657,-0.2633,0.1210,-64.6500,29.1000,-36.4500,3.1600,4.1600,-8.5100,-0.0033,-0.0164,0.0185,-1.8750,-31.5625,17.7500,175.8750,17.6250,-154.9375,0
814.373,9.6079,1.4629,1.4916,-0.4202,-0.2883,-0.2204,-47.7000,19.2000,7.9500,9.7516,1.1660,0.1508,-0.2614,-0.2891,0.1340,-65.4000,30.3000,-35.2500,3.1600,4.1600,-8.5100,-0.0175,-0.0164,0.0207,-1.8750,-31.5625,17.7500,175.9375,17.6250,-154.9375,0
814.379,9.8426,1.9585,1.6233,-0.3616,-0.3531,-0.2483,-47.7000,19.2000,7.9500,9.7516,1.1660,0.1508,-0.2614,-0.2891,0.1340,-65.4000,30.3000,-35.2500,3.1200,4.1300,-8.5100,-0.0175,-0.0164,0.0207,-1.8750,-31.5625,17.7500,175.9375,17.6250,-154.9375,0
814.388,10.0078,2.3272,1.8818,-0.2257,-0.4367,-0.2984,-47.7000,19.2000,7.9500,9.7899,1.6089,-0.1628,-0.2217,-0.2864,0.1442,-64.0500,30.0000,-35.5500,3.0400,4.0500,-8.6200,-0.0436,-0.0087,0.0218,-1.8750,-31.5625,17.7500,175.9375,17.6250,-154.9375,0
814.393,10.0078,2.3272,1.8818,-0.2257,-0.4367,-0.2984,-46.9500,20.4000,7.6500,9.9024,1.9968,-0.0670,-0.1247,-0.2667,0.1519,-64.0500,30.0000,-35.5500,3.0400,4.0500,-8.6200,-0.0436,-0.0087,0.0218,-1.8750,-31.5625,17.7500,175.9375,17.6250,-154.9375,0
814.398,10.0700,2.5259,1.9656,-0.1130,-0.5359,-0.3752,-46.9500,20.4000,7.6500,9.9024,1.9968,-0.0670,-0.1247,-0.2667,0.1519,-64.0500,30.0000,-35.5500,3.0200,4.0500,-8.6400,-0.0774,0.0076,0.0327,-1.5000,-31.5625,18.2500,175.2500,17.6250,-154.8750,0
814.403,10.0700,2.5259,1.9656,-0.1130,-0.5359,-0.3752,-46.2000,18.1500,6.4500,10.0485,2.0279,-0.0431,-0.0576,-0.2499,0.1743,-64.0500,30.0000,-35.5500,3.0200,4.0500,-8.6400,-0.0774,0.0076,0.0327,-1.5000,-31.5625,18.2500,175.2500,17.6250,-154.8750,0
814.408,10.0197,2.8060,2.1859,-0.0949,-0.6448,-0.4517,-46.2000,18.1500,6.4500,10.0485,2.0279,-0.0431,-0.0576,-0.2499,0.1743,-65.4000,29.5500,-35.7000,3.0100,3.9900,-8.7100,-0.1244,0.0349,0.0436,-1.5000,-31.5625,18.2500,175.2500,17.6875,-154.8125,0
814.413,10.0197,2.8060,2.1859,-0.0949,-0.6448,-0.4517,-46.9500,19.2000,7.6500,10.0868,1.4700,-0.0383,-0.0493,-0.2342,0.2033,-65.4000,29.5500,-35.7000,3.0100,3.9900,-8.7100,-0.1244,0.0349,0.0436,-1.5000,-31.5625,18.2500,175.3125,17.6875,-154.6875,0
814.419,9.9862,2.7509,2.0016,-0.1716,-0.6941,-0.5343,-46.9500,19.2000,7.6500,10.0054,0.7638,-0.4741,-0.0493,-0.2342,0.2033,-65.4000,29.5500,-35.7000,3.0000,3.9700,-8.7400,-0.1865,0.0644,0.0600,-1.5000,-31.5625,18.2500,175.3125,17.6875,-154.6875,0
814.426,10.2472,2.1500,1.5347,-0.2180,-0.7589,-0.5990,-47.5500,19.5000,7.8000,10.0054,0.7638,-0.4741,-0.1788,-0.2377,0.2305,-65.4000,27.9000,-36.4500,3.1100,4.0100,-8.7000,-0.2520,0.0927,0.0807,-1.5000,-31.5625,18.2500,175.3750,17.7500,-154.5625,0
814.431,10.2472,2.1500,1.5347,-0.2180,-0.7589,-0.5990,-48.3000,18.7500,7.3500,9.8713,0.0407,-0.6656,-0.3917,-0.2361,0.2340,-65.4000,27.9000,-36.4500,3.1100,4.0100,-8.7000,-0.2520,0.0927,0.0807,-1.5000,-31.5625,18.2500,175.4375,17.8750,-154.4375,0
814.439,10.1466,1.6496,0.9074,-0.3112,-0.8135,-0.6305,-48.3000,18.7500,7.3500,9.9096,-0.2753,-0.8811,-0.5654,-0.2505,0.2324,-63.3000,28.9500,-34.3500,3.1200,3.9000,-8.7200,-0.3207,0.1353,0.0960,-1.5000,-31.5625,18.2500,175.4375,17.8750,-154.4375,0
814.444,10.1466,1.6496,0.9074,-0.3112,-0.8135,-0.6305,-48.3000,18.7500,7.3500,9.9096,-0.2753,-0.8811,-0.5654,-0.2505,0.2324,-66.6000,29.1000,-34.2000,3.1200,3.9000,-8.7200,-0.3982,0.1811,0.1189,-1.8750,-32.0000,17.7500,174.8750,18.0000,-154.1875,0
814.449,10.0628,0.7997,0.5890,-0.3371,-0.8410,-0.6624,-48.3000,18.7500,7.3500,10.7188,-0.5219,-1.3312,-0.7181,-0.2505,0.2214,-66.6000,29.1000,-34.2000,3.1200,3.7100,-8.8100,-0.3982,0.1811,0.1189,-1.8750,-32.0000,17.7500,174.8750,18.0000,-154.1875,0
814.457,10.8529,-0.4741,-0.3017,-0.4181,-0.8953,-0.6486,-49.2000,18.4500,5.8500,10.8625,-1.5490,-0.9026,-0.7181,-0.2505,0.2214,-65.8500,29.8500,-36.0000,3.1700,3.6700,-9.1000,-0.4865,0.2673,0.1364,-1.8750,-32.0000,17.7500,175.0000,18.1250,-154.0000,0
814.462,10.8529,-0.4741,-0.3017,-0.4181,-0.8953,-0.6486,-48.0000,17.7000,6.9000,10.8625,-1.5490,-0.9026,-0.9105,-0.3070,0.1871,-65.8500,29.8500,-36.0000,3.1700,3.6700,-9.1000,-0.4865,0.2673,0.1364,-1.8750,-32.0000,17.7500,175.0625,18.3750,-153.6250,0
814.469,10.8840,-1.3599,-0.7829,-0.6043,-0.9062,-0.6174,-48.0000,17.7000,6.9000,10.4459,-2.1476,0.1556,-0.9382,-0.3309,0.1452,-64.8000,28.9500,-35.8500,3.2300,3.3300,-9.2600,-0.6152,0.3785,0.1058,-1.8750,-32.0000,17.7500,175.1250,18.6250,-153.1875,0
814.479,10.5704,-1.5347,-1.0774,-0.7911,-1.0299,-0.6043,-49.2000,17.7000,7.6500,10.2208,-1.8387,0.2394,-1.0973,-0.3475,0.1228,-64.5000,30.0000,-36.6000,3.4500,3.1400,-8.9800,-0.7898,0.4811,0.0425,-1.8750,-32.0000,17.7500,175.1250,18.6250,-153.1875,0
814.488,10.5608,-1.3001,-1.2234,-0.9662,-1.1463,-0.5758,-47.8500,18.0000,7.0500,10.2951,-1.2977,0.8475,-1.2281,-0.3275,0.1026,-64.5000,30.0000,-36.6000,3.7000,2.7000,-8.7500,-0.9959,0.4920,0.0098,-1.8750,-32.0000,17.7500,175.1250,18.8750,-152.5625,0
814.493,10.5608,-1.3001,-1.2234,-0.9662,-1.1463,-0.5758,-47.8500,18.0000,7.0500,10.2951,-1.2977,0.8475,-1.2281,-0.3275,0.1026,-64.5000,30.0000,-36.6000,3.7000,2.7000,-8.7500,-0.9959,0.4920,0.0098,-1.8750,-32.0000,17.7500,174.6875,19.0625,-151.8750,0
814.498,10.2089,-0.7135,-1.1444,-1.0549,-1.3851,-0.5041,-47.8500,18.0000,7.0500,10.3549,-0.8882,1.0870,-1.3646,-0.3315,0.1031,-65.2500,30.0000,-35.5500,3.5000,2.5400,-8.6600,-1.1781,0.4232,0.0153,-2.6875,-33.0625,17.5000,174.6875,19.0625,-151.8750,0
814.503,10.2089,-0.7135,-1.1444,-1.0549,-1.3851,-0.5041,-48.3000,18.0000,6.0000,10.3549,-0.8882,1.0870,-1.3646,-0.3315,0.1031,-65.2500,30.0000,-35.5500,3.5000,2.5400,-8.6600,-1.1781,0.4232,0.0153,-2.6875,-33.0625,17.5000,174.6875,19.0625,-151.8750,0
814.508,10.2568,0.2227,-1.2498,-1.0978,-1.6172,-0.4159,-48.3000,18.0000,6.0000,10.0317,-0.6800,1.0894,-1.4216,-0.3317,0.0770,-65.2500,30.0000,-35.5500,3.6400,2.7500,-8.5800,-1.2610,0.3589,0.0742,-2.6875,-33.0625,17.5000,174.8125,19.2500,-151.1875,0
814.513,10.0317,0.8667,-1.8100,-1.3083,-1.6771,-0.3299,-47.8500,17.5500,6.3000,10.0317,-0.6800,1.0894,-1.4216,-0.3317,0.0770,-65.2500,30.0000,-35.5500,3.6400,2.7500,-8.5800,-1.3188,0.3054,0.1254,-2.6875,-33.0625,17.5000,175.0000,19.4375,-150.4375,0
814.519,10.0317,0.8667,-1.8100,-1.3083,-1.6771,-0.3299,-47.7000,18.9000,5.4000,9.7683,-1.0989,1.7358,-1.4472,-0.3238,0.0501,-65.1000,31.0500,-33.4500,3.6300,2.8300,-8.5100,-1.3188,0.3054,0.1254,-2.6875,-33.0625,17.5000,175.1875,19.5625,-149.6250,0
814.529,9.6295,1.5802,-2.0686,-1.3512,-1.6137,-0.2891,-47.7000,18.9000,5.4000,9.2464,-0.9074,1.2067,-1.4946,-0.2531,0.0301,-63.9000,29.8500,-34.2000,4.8700,3.3800,-8.9700,-1.4039,0.2258,0.1265,-2.6875,-33.0625,17.5000,175.1875,19.5625,-149.6250,0
814.539,9.1913,2.1165,-2.3607,-1.6323,-1.4077,-0.3171,-47.5500,18.7500,6.7500,9.3565,-1.1995,1.6927,-1.6486,-0.2081,0.0213,-66.7500,29.7000,-34.3500,6.1900,4.0300,-8.4500,-1.5730,0.0393,0.0687,-2.6875,-33.0625,17.5000,175.3750,19.6250,-148.7500,0
814.543,9.2249,2.8802,-2.5163,-1.8836,-1.2009,-0.3198,-47.5500,18.0000,4.9500,9.3589,-0.7925,1.9178,-1.6486,-0.2081,0.0213,-66.7500,29.7000,-34.3500,6.1900,4.0300,-8.4500,-1.5730,0.0393,0.0687,-2.6875,-33.0625,17.5000,175.3750,19.6250,-148.7500,0
814.549,9.2249,2.8802,-2.5163,-1.8836,-1.2009,-0.3198,-47.5500,18.0000,4.9500,9.3589,-0.7925,1.9178,-1.7677,-0.1617,0.0378,-65.1000,28.6500,-33.7500,6.1900,4.0300,-8.4500,-1.5730,0.0393,0.0687,-2.6875,-33.0625,17.5000,175.3750,19.6250,-148.7500,0
814.553,9.0381,3.8211,-1.9154,-2.1671,-1.1119,-0.3112,-47.5500,18.0000,4.9500,9.6965,-0.7302,1.1133,-1.7677,-0.1617,0.0378,-65.1000,28.6500,-33.7500,5.7500,2.1800,-9.2700,-1.7344,-0.3283,-0.0611,-3.0000,-32.0000,15.5000,175.1250,19.4375,-147.8125,0
814.558,9.0381,3.8211,-1.9154,-2.1671,-1.1119,-0.3112,-47.5500,18.0000,4.9500,9.6965,-0.7302,1.1133,-1.9974,-0.1319,0.0458,-65.1000,28.6500,-33.7500,6.3500,3.5900,-11.5100,-1.7639,-0.6894,-0.2138,-3.0000,-32.0000,15.5000,175.3125,19.0625,-146.8750,0
814.563,9.6031,4.5059,-1.5610,-2.3891,-0.9856,-0.2374,-48.6000,20.5500,6.7500,10.1634,-1.7502,0.4693,-1.9974,-0.1319,0.0458,-65.1000,28.6500,-33.7500,6.3500,3.5900,-11.5100,-1.8817,-1.4835,-0.4974,-3.0000,-32.0000,15.5000,175.4375,18.2500,-145.9375,0
814.569,9.6031,4.5059,-1.5610,-2.3891,-0.9856,-0.2374,-48.3000,19.8000,5.7000,10.1634,-1.7502,0.4693,-2.2015,-0.1180,0.0096,-66.1500,31.0500,-33.7500,5.6800,3.5800,-10.0400,-1.8817,-1.4835,-0.4974,-3.0000,-32.0000,15.5000,175.8125,17.5000,-145.0625,0
814.579,9.3374,4.7262,-0.4118,-2.6982,-1.1525,-0.1367,-48.9000,17.2500,6.0000,9.4978,-4.1994,1.7549,-2.2170,0.0248,-0.0493,-66.1500,31.0500,-33.7500,9.8300,-1.3100,-8.9600,-1.8511,-1.5097,-0.0644,-3.0000,-32.0000,15.5000,175.8125,17.5000,-145.0625,0
814.589,9.7899,3.9863,-0.1389,-2.9524,-0.9523,0.0021,-47.7000,18.9000,7.6500,9.6367,-6.2680,1.2234,-2.4938,0.1053,-0.1367,-64.6500,29.5500,-31.2000,12.6000,-11.4300,-13.1400,-0.8988,-0.8618,2.0289,-3.0000,-32.0000,15.5000,177.1875,17.7500,-144.9375,0
814.594,10.3166,2.9808,-0.2825,-2.9028,-0.9222,0.1308,-47.7000,18.9000,7.6500,9.5361,-7.5369,1.1708,-3.4355,0.0384,-0.2052,-64.6500,29.5500,-31.2000,12.6000,-11.4300,-13.1400,-0.8988,-0.8618,2.0289,-3.0000,-32.0000,15.5000,177.1875,17.7500,-144.9375,0
814.599,10.3166,2.9808,-0.2825,-2.9028,-0.9222,0.1308,-49.5000,18.9000,6.1500,9.5361,-7.5369,1.1708,-3.4355,0.0384,-0.2052,-66.0000,30.9000,-32.5500,10.8500,-2.9300,-11.4000,-0.9370,-2.4849,3.3205,-2.6875,-33.7500,12.2500,179.5625,17.6875,-145.1250,0
814.604,10.6087,2.4181,-0.7973,-2.5018,-1.0016,0.2531,-49.5000,18.9000,6.1500,10.0963,-6.5888,0.6967,-4.7292,-0.0632,-0.1436,-66.0000,30.9000,-32.5500,10.8500,-2.9300,-11.4000,-0.9370,-2.4849,3.3205,-2.6875,-33.7500,12.2500,179.5625,17.6875,-145.1250,0
814.609,10.6087,2.4181,-0.7973,-2.5018,-1.0016,0.2531,-49.5000,18.9000,6.1500,10.0963,-6.5888,0.6967,-4.7292,-0.0632,-0.1436,-65.4000,30.3000,-31.2000,7.9000,3.2300,-7.8200,-1.1650,-3.9128,3.7328,-2.6875,-33.7500,12.2500,182.3750,17.1250,-145.4375,0
814.615,10.2017,2.1189,-1.6161,-2.1344,-1.2297,0.3179,-49.5000,18.9000,6.1500,10.4483,-3.8858,0.9170,-5.7172,-0.1929,0.0250,-65.4000,30.3000,-31.2000,6.5800,1.0800,-6.5800,-0.8868,-3.8266,4.2542,-2.6875,-33.7500,12.2500,185.4375,16.6875,-145.8750,0
814.620,10.2232,1.9561,-2.2266,-1.7666,-1.6577,0.3288,-50.2500,18.1500,8.7000,10.4483,-3.8858,0.9170,-5.7172,-0.1929,0.0250,-65.4000,30.6000,-28.6500,6.5800,1.0800,-6.5800,-0.8868,-3.8266,4.2542,-2.6875,-33.7500,12.2500,188.4375,16.4375,-146.3125,0
814.629,10.2232,1.9561,-2.2266,-1.7666,-1.6577,0.3288,-49.5000,18.1500,8.2500,10.6997,-0.8691,0.6776,-6.0596,-0.2984,0.2209,-65.4000,29.1000,-27.4500,2.6000,1.0300,-5.7100,-0.8050,-3.3772,4.2302,-2.6875,-33.7500,12.2500,188.4375,16.4375,-146.3125,0
814.639,8.6407,2.5833,-2.2553,-1.2987,-1.5985,0.3014,-49.3500,17.2500,8.1000,10.4818,1.7286,0.4477,-5.6304,-0.3424,0.3882,-63.9000,30.3000,-25.6500,3.8800,2.5900,-6.3700,-0.9185,-2.7860,3.7765,-2.6875,-33.7500,12.2500,191.0625,16.3125,-146.5625,0
814.644,8.6407,2.5833,-2.2553,-1.2987,-1.5985,0.3014,-49.3500,17.2500,8.1000,9.5960,3.3495,0.2298,-4.6836,-0.2465,0.5041,-63.9000,30.3000,-25.6500,3.8800,2.5900,-6.3700,-0.9185,-2.7860,3.7765,-2.6875,-33.7500,12.2500,193.4375,16.3125,-146.8125,0
814.649,8.6383,2.6360,-2.0638,-1.3920,-1.4269,0.2073,-51.7500,16.9500,7.6500,9.5960,3.3495,0.2298,-4.6836,-0.2465,0.5041,-63.9000,30.3000,-25.6500,4.0500,3.6700,-7.2400,-0.7985,-2.2700,3.4699,-4.8750,-34.5000,11.7500,193.4375,16.3125,-146.8125,0
814.654,8.6383,2.6360,-2.0638,-1.3920,-1.4269,0.2073,-51.7500,16.9500,7.6500,9.3422,3.9433,-0.3400,-3.5088,-0.0474,0.5404,-63.9000,30.3000,-25.6500,4.0500,3.6700,-7.2400,-0.7985,-2.2700,3.4699,-4.8750,-34.5000,11.7500,195.5625,16.3750,-147.1875,0
814.659,8.7077,2.8491,-1.9561,-1.5713,-1.3888,0.1514,-51.7500,16.9500,7.6500,9.3422,3.9433,-0.3400,-3.5088,-0.0474,0.5404,-64.3500,29.1000,-22.6500,3.2700,2.9000,-7.9300,-0.4560,-1.9668,3.2060,-4.8750,-34.5000,11.7500,195.5625,16.3750,-147.1875,0
814.663,8.7077,2.8491,-1.9561,-1.5713,-1.3888,0.1514,-51.7500,16.9500,7.6500,9.3446,3.3471,-0.4310,-2.4107,0.1609,0.5028,-64.3500,29.1000,-22.6500,3.2700,2.9000,-7.9300,-0.1407,-1.7126,3.0249,-4.8750,-34.5000,11.7500,197.5000,16.4375,-147.6875,0
814.670,8.9783,2.9305,-1.6831,-1.6132,-1.4837,0.1615,-50.1000,15.3000,8.5500,9.6750,2.0830,-0.3783,-1.5942,0.2665,0.4490,-64.3500,29.1000,-22.6500,2.8900,2.4800,-7.7500,-0.1407,-1.7126,3.0249,-4.8750,-34.5000,11.7500,199.3750,16.6250,-148.2500,0
814.679,8.2480,2.6959,-1.0989,-1.5068,-1.4645,0.3080,-51.4500,16.0500,9.9000,9.7636,0.9194,-0.1101,-1.0848,0.2838,0.4255,-64.6500,30.6000,-23.4000,2.3500,2.4100,-7.4500,0.0698,-1.4868,2.9562,-4.8750,-34.5000,11.7500,199.3750,16.6250,-148.2500,0
814.689,8.0661,2.7414,-1.2234,-1.3137,-1.1714,0.4383,-52.0500,18.4500,9.3000,9.5960,0.0670,0.2131,-0.8577,0.2539,0.4375,-64.0500,30.4500,-22.9500,2.1900,3.1400,-7.5200,0.1931,-1.2130,2.9518,-4.8750,-34.5000,11.7500,201.1875,16.8750,-148.8750,0
814.694,8.0661,2.7414,-1.2234,-1.3137,-1.1714,0.4383,-52.0500,18.4500,9.3000,9.5960,0.0670,0.2131,-0.8577,0.2539,0.4375,-64.0500,30.4500,-22.9500,2.1900,3.1400,-7.5200,0.1931,-1.2130,2.9518,-4.8750,-34.5000,11.7500,201.1875,16.8750,-148.8750,0
814.699,8.0397,2.7366,-1.6759,-1.0549,-0.9297,0.4948,-52.9500,15.7500,8.5500,9.3254,-0.4525,0.3639,-0.8306,0.1948,0.4714,-65.8500,27.4500,-24.1500,2.2200,3.4100,-7.7100,0.2356,-0.9577,2.8972,-9.7500,-32.3750,12.5625,202.8125,17.2500,-149.5000,0
814.704,8.0397,2.7366,-1.6759,-1.0549,-0.9297,0.4948,-52.9500,15.7500,8.5500,9.3254,-0.4525,0.3639,-0.8306,0.1948,0.4714,-65.8500,27.4500,-24.1500,2.2200,3.4100,-7.7100,0.2356,-0.9577,2.8972,-9.7500,-32.3750,12.5625,202.8125,17.2500,-149.5000,0
814.709,8.2600,2.6863,-1.5538,-0.9030,-0.8082,0.5241,-52.3500,17.4000,7.9500,9.0644,-0.6033,0.4286,-0.9308,0.1292,0.5183,-66.0000,28.9500,-22.2000,2.3100,3.9700,-7.9200,0.1953,-0.7690,2.7042,-9.7500,-32.3750,12.5625,204.4375,17.6250,-150.1250,0
814.714,8.2600,2.6863,-1.5538,-0.9030,-0.8082,0.5241,-52.3500,17.4000,7.9500,9.0644,-0.6033,0.4286,-0.9308,0.1292,0.5183,-66.0000,28.9500,-22.2000,2.3100,3.9700,-7.9200,0.1451,-0.6534,2.3758,-9.7500,-32.3750,12.5625,205.8125,18.0000,-150.6250,0
814.720,8.4036,2.4277,-1.7549,-0.9092,-0.7906,0.4839,-52.3500,17.4000,7.9500,8.7795,-0.4142,0.4022,-1.0658,0.0600,0.5558,-65.4000,29.8500,-21.9000,2.4600,4.6900,-8.1800,0.1451,-0.6534,2.3758,-9.7500,-32.3750,12.5625,207.0000,18.2500,-151.0625,0
814.729,8.2768,1.9154,-1.5012,-0.9523,-0.9108,0.4415,-51.9000,16.5000,8.1000,8.6574,-0.0120,0.4022,-1.1479,0.0045,0.5748,-66.7500,28.9500,-22.5000,2.6400,5.3100,-8.1900,0.1614,-0.6250,1.9984,-9.7500,-32.3750,12.5625,207.0000,18.2500,-151.0625,0
814.739,8.1714,1.4269,-0.9649,-0.8908,-0.9641,0.4469,-52.0500,16.9500,8.7000,8.7604,0.3663,0.6919,-1.1413,-0.0698,0.5769,-66.7500,28.9500,-22.5000,2.4400,5.0700,-7.8100,0.2443,-0.6327,1.6297,-9.7500,-32.3750,12.5625,208.0000,18.3750,-151.5000,0
814.744,8.1714,1.4269,-0.9649,-0.8908,-0.9641,0.4469,-52.0500,16.9500,8.7000,8.7604,0.3663,0.6919,-1.1413,-0.0698,0.5769,-66.7500,28.9500,-22.5000,2.4400,5.0700,-7.8100,0.2443,-0.6327,1.6297,-9.7500,-32.3750,12.5625,208.0000,18.3750,-151.5000,0
814.749,8.1954,1.0343,-0.4477,-0.8258,-0.8548,0.4804,-52.8000,16.2000,7.9500,8.9495,0.6919,0.7661,-1.0832,-0.1172,0.5593,-65.2500,28.0500,-21.4500,2.0300,4.7100,-7.3000,0.3272,-0.6469,1.3155,-14.0625,-31.1875,12.5000,208.6250,18.3750,-152.0000,0
814.754,8.1954,1.0343,-0.4477,-0.8258,-0.8548,0.4804,-52.8000,16.2000,7.9500,8.9495,0.6919,0.7661,-1.0832,-0.1172,0.5593,-65.2500,28.0500,-21.4500,2.0300,4.7100,-7.3000,0.3272,-0.6469,1.3155,-14.0625,-31.1875,12.5000,208.6250,18.3750,-152.0000,0
814.759,8.3175,0.6249,-0.4310,-0.8311,-0.7091,0.5271,-53.7000,16.5000,8.5500,9.0668,0.9026,1.1444,-1.0166,-0.1836,0.5244,-65.2500,28.0500,-21.4500,1.9200,4.1100,-6.9300,0.3360,-0.6163,1.0897,-14.0625,-31.1875,12.5000,209.3125,18.3750,-152.3750,0
814.764,8.3175,0.6249,-0.4310,-0.8311,-0.7091,0.5271,-53.7000,16.5000,8.5500,9.0668,0.9026,1.1444,-1.0166,-0.1836,0.5244,-65.2500,28.0500,-21.4500,1.9200,4.1100,-6.9300,0.2694,-0.5607,0.9588,-14.0625,-31.1875,12.5000,209.8750,18.3125,-152.7500,0
814.770,8.6455,0.8739,-0.4405,-0.9081,-0.7722,0.5804,-53.7000,16.5000,8.5500,9.1028,1.0247,1.4102,-1.0035,-0.2619,0.4676,-66.0000,27.7500,-21.0000,2.0600,4.2700,-7.0200,0.2694,-0.5607,0.9588,-14.0625,-31.1875,12.5000,210.4375,18.2500,-153.0625,0
814.779,8.8585,1.3001,-0.6081,-1.0464,-0.8855,0.6070,-52.2000,17.2500,8.5500,9.0429,1.1181,1.6520,-1.0405,-0.3179,0.4266,-65.2500,28.0500,-21.4500,2.1900,4.2500,-7.0100,0.1931,-0.5672,0.9043,-14.0625,-31.1875,12.5000,210.4375,18.2500,-153.0625,0
814.789,8.9471,1.7047,-0.6033,-1.2209,-0.9659,0.5860,-52.8000,15.9000,9.3000,9.1411,1.1205,1.8938,-1.1093,-0.3914,0.3768,-63.9000,27.1500,-20.8500,1.9100,3.8200,-6.8900,0.1287,-0.6163,0.9392,-14.0625,-31.1875,12.5000,211.0625,18.1875,-153.3125,0
814.794,8.7676,2.2601,-0.3280,-1.3979,-0.9579,0.5689,-52.8000,15.9000,9.3000,9.2129,1.0104,1.9369,-1.1093,-0.3914,0.3768,-63.9000,27.1500,-20.8500,1.9100,3.8200,-6.8900,0.1287,-0.6163,0.9392,-14.0625,-31.1875,12.5000,211.5625,18.1250,-153.5625,0
814.800,8.7676,2.2601,-0.3280,-1.3979,-0.9579,0.5689,-53.8500,16.2000,9.7500,9.2129,1.0104,1.9369,-1.2097,-0.4690,0.3309,-67.6500,28.6500,-21.1500,1.7800,3.8000,-6.8800,0.0382,-0.6959,1.0308,-16.6875,-29.7500,14.1875,211.5625,18.1250,-153.5625,0
814.805,8.4611,2.0351,-0.3112,-1.5753,-0.8990,0.5654,-52.8000,15.9000,8.7000,9.3685,0.8021,2.0351,-1.3446,-0.5481,0.2846,-67.6500,28.6500,-21.1500,1.7800,3.8000,-6.8800,-0.0676,-0.7734,1.1552,-16.6875,-29.7500,14.1875,212.3125,18.0000,-153.8125,0
814.810,8.4611,2.0351,-0.3112,-1.5753,-0.8990,0.5654,-52.8000,15.9000,8.7000,9.3685,0.8021,2.0351,-1.3446,-0.5481,0.2846,-65.1000,27.9000,-20.8500,1.8700,3.8400,-6.9800,-0.0676,-0.7734,1.1552,-16.6875,-29.7500,14.1875,212.3125,18.0000,-153.8125,0
814.814,8.3175,1.7095,-0.3112,-1.7384,-0.7818,0.5758,-54.3000,15.9000,9.0000,9.3948,0.8260,2.2194,-1.5271,-0.6451,0.2372,-65.1000,27.9000,-20.8500,1.8700,3.8400,-6.9800,-0.1571,-0.8432,1.3166,-16.6875,-29.7500,14.1875,213.1250,17.9375,-154.0000,0
814.820,8.3175,1.7095,-0.3112,-1.7384,-0.7818,0.5758,-54.3000,15.9000,9.0000,9.3948,0.8260,2.2194,-1.5271,-0.6451,0.2372,-66.7500,27.0000,-21.0000,2.2500,4.0700,-7.1900,-0.1571,-0.8432,1.3166,-16.6875,-29.7500,14.1875,214.1250,17.8125,-154.1875,0
814.829,8.0469,1.3312,-0.2346,-1.9489,-0.6963,0.5889,-54.3000,15.9000,9.0000,9.0740,0.8452,1.9130,-1.8045,-0.7394,0.1860,-66.7500,27.0000,-21.0000,3.0100,4.3800,-7.0800,-0.1996,-0.9381,1.4966,-16.6875,-29.7500,14.1875,214.1250,17.8125,-154.1875,0
814.839,7.6638,1.3264,-0.4980,-2.0720,-0.4514,0.5846,-55.5000,16.0500,8.8500,8.7891,0.8715,1.8052,-2.0448,-0.7991,0.1322,-65.5500,27.3000,-21.0000,3.3600,4.2300,-6.5500,-0.1953,-1.0756,1.6842,-16.6875,-29.7500,14.1875,215.1875,17.6875,-154.4375,0
814.844,7.5537,1.5921,-0.8930,-2.2807,-0.2046,0.5454,-55.2000,14.5500,8.5500,8.5497,1.0295,2.0423,-2.2719,-0.8410,0.0608,-65.5500,27.3000,-21.0000,3.3600,4.2300,-6.5500,-0.1953,-1.0756,1.6842,-16.6875,-29.7500,14.1875,215.1875,17.6875,-154.4375,0
814.849,7.5537,1.5921,-0.8930,-2.2807,-0.2046,0.5454,-55.2000,14.5500,8.5500,8.5497,1.0295,2.0423,-2.2719,-0.8410,0.0608,-66.0000,28.9500,-19.2000,3.5300,4.2900,-5.8000,-0.1876,-1.1868,1.8773,-18.5625,-27.2500,14.5000,216.4375,17.5000,-154.6875,0
814.854,7.8626,1.5467,-1.0487,-2.7318,0.0690,0.5263,-54.7500,14.5500,10.2000,8.1882,1.2450,2.1500,-2.4797,-0.8564,-0.0240,-66.0000,28.9500,-19.2000,3.5300,4.2900,-5.8000,-0.1876,-1.1868,1.8773,-18.5625,-27.2500,14.5000,216.4375,17.5000,-154.6875,0
814.858,7.8626,1.5467,-1.0487,-2.7318,0.0690,0.5263,-54.7500,14.5500,10.2000,8.1882,1.2450,2.1500,-2.4797,-0.8564,-0.0240,-66.1500,25.5000,-20.8500,4.0500,4.9900,-4.5000,-0.2083,-1.2381,2.0595,-18.5625,-27.2500,14.5000,217.7500,17.3750,-155.0000,0
814.863,8.0206,1.7478,-0.7230,-3.0172,0.3248,0.5103,-55.6500,13.9500,11.1000,8.2001,1.7837,2.4110,-2.5855,-0.8849,-0.1231,-66.1500,25.5000,-20.8500,4.0500,4.9900,-4.5000,-0.2607,-1.1857,2.2046,-18.5625,-27.2500,14.5000,219.1250,17.3125,-155.3125,0
814.870,8.0206,1.7478,-0.7230,-3.0172,0.3248,0.5103,-55.6500,13.9500,11.1000,8.2001,1.7837,2.4110,-2.5855,-0.8849,-0.1231,-65.4000,27.1500,-20.8500,4.7900,5.1700,-3.9900,-0.2607,-1.1857,2.2046,-18.5625,-27.2500,14.5000,220.5625,17.3125,-155.5000,0
814.879,8.4396,1.8818,-0.5507,-3.2546,0.5316,0.5033,-56.8500,15.1500,11.8500,8.2001,2.8898,2.4565,-2.6169,-0.9300,-0.2534,-65.2500,26.1000,-18.7500,5.9900,5.0500,-3.4300,-0.4014,-1.0625,2.3278,-18.5625,-27.2500,14.5000,220.5625,17.3125,-155.5000,0
814.889,8.7388,1.9896,-0.5890,-3.3540,0.5993,0.5340,-56.8500,15.1500,11.8500,9.9431,6.0166,-1.5036,-2.6753,-0.9369,-0.3989,-65.5500,25.8000,-19.5000,6.3100,5.7000,-0.8600,-0.7265,-0.9577,2.5220,-18.5625,-27.2500,14.5000,222.1250,17.3750,-155.5625,0
814.894,9.0429,2.0614,-1.3024,-3.2953,0.5969,0.5756,-55.6500,12.4500,13.6500,9.9431,6.0166,-1.5036,-2.8274,-0.9638,-0.5199,-65.5500,25.8000,-19.5000,6.3100,5.7000,-0.8600,-0.7265,-0.9577,2.5220,-18.5625,-27.2500,14.5000,222.1250,17.3750,-155.5625,0
814.899,9.0429,2.0614,-1.3024,-3.2953,0.5969,0.5756,-55.6500,12.4500,13.6500,12.9215,7.0820,-4.8890,-2.8274,-0.9638,-0.5199,-65.5500,25.8000,-19.5000,4.2200,8.8100,1.3300,-1.1454,-0.9043,2.6136,-20.7500,-26.1875,14.5000,223.8125,17.5625,-155.4375,0
814.904,10.0676,3.2226,-2.4924,-3.0558,0.5047,0.5676,-56.1000,14.4000,13.9500,12.9215,7.0820,-4.8890,-2.5239,-0.8148,-0.5753,-65.5500,25.8000,-19.5000,4.2200,8.8100,1.3300,-1.1454,-0.9043,2.6136,-20.7500,-26.1875,14.5000,223.8125,17.5625,-155.4375,0
814.909,10.0676,3.2226,-2.4924,-3.0558,0.5047,0.5676,-56.1000,14.4000,13.9500,14.9733,5.5450,-4.2090,-2.5239,-0.8148,-0.5753,-66.0000,25.0500,-18.7500,7.4100,10.5600,1.8800,-0.7919,-0.0055,2.3289,-20.7500,-26.1875,14.5000,225.1875,18.0625,-155.3750,0
814.917,12.3828,6.2249,-2.2793,-2.7584,0.3187,0.4112,-55.8000,15.0000,14.5500,14.9733,5.5450,-4.2090,-1.6196,-0.8972,-0.5950,-66.0000,25.0500,-18.7500,19.5000,33.5700,-29.2800,-0.8530,2.9060,1.8435,-20.7500,-26.1875,14.5000,225.9375,19.9375,-155.0000,0
814.922,14.5017,11.4323,-3.7637,-2.3734,0.1292,0.0336,-56.8500,15.1500,15.7500,15.0739,8.9807,-5.7174,-1.0925,-0.8338,-0.3840,-66.0000,25.0500,-18.7500,19.5000,33.5700,-29.2800,-0.8530,2.9060,1.8435,-20.7500,-26.1875,14.5000,225.8750,19.9375,-154.6875,0
814.930,12.9526,17.2574,-5.8849,-2.0238,-0.4151,-0.4170,-56.8500,15.1500,15.7500,10.6207,6.7469,-1.2330,-0.2302,0.0365,-0.2286,-64.3500,27.1500,-17.8500,-13.3600,-2.7900,-6.8800,-0.4254,0.0316,-0.1985,-20.7500,-26.1875,14.5000,225.7500,20.5625,-154.6250,0
814.940,9.0381,16.0388,-2.3391,-1.4978,0.0469,-0.6816,-56.8500,15.1500,15.7500,8.7077,1.4772,1.7526,1.0752,0.3163,-0.1607,-64.6500,27.9000,-17.8500,7.5900,-2.7800,-14.5800,-0.0567,1.1977,0.1036,-20.7500,-26.1875,14.5000,225.7500,20.5625,-154.6250,0
814.944,9.0381,16.0388,-2.3391,-1.4978,0.0469,-0.6816,-57.7500,16.5000,17.1000,8.7077,1.4772,1.7526,1.0752,0.3163,-0.1607,-64.6500,27.9000,-17.8500,7.5900,-2.7800,-14.5800,-0.0567,1.1977,0.1036,-20.7500,-26.1875,14.5000,225.7500,20.8125,-154.3750,0
814.950,7.5058,9.9958,1.8866,-0.9220,0.6763,-0.6885,-57.7500,16.5000,17.1000,7.5633,-1.2522,0.9768,0.5223,0.0277,-0.2478,-65.5500,24.1500,-20.7000,8.0200,-3.1500,-9.8100,-0.2716,0.5509,0.0262,-22.5625,-24.0625,15.5625,225.7500,20.8125,-154.3750,0
814.954,7.5058,9.9958,1.8866,-0.9220,0.6763,-0.6885,-57.1500,13.9500,16.8000,7.5633,-1.2522,0.9768,0.5223,0.0277,-0.2478,-65.5500,24.1500,-20.7000,8.0200,-3.1500,-9.8100,-0.2716,0.5509,0.0262,-22.5625,-24.0625,15.5625,225.8750,20.6875,-154.3125,0
814.960,8.6574,5.3702,1.1899,-0.2918,0.7735,-0.6419,-57.1500,13.9500,16.8000,7.4292,-1.1396,-2.8922,-0.6366,-0.2316,-0.2364,-66.3000,25.8000,-19.5000,4.0900,11.9400,-6.0300,-0.2454,-0.4134,0.1429,-22.5625,-24.0625,15.5625,225.8750,20.6875,-154.3125,0
814.964,8.6574,5.3702,1.1899,-0.2918,0.7735,-0.6419,-58.6500,13.2000,16.8000,7.4292,-1.1396,-2.8922,-0.6366,-0.2316,-0.2364,-66.3000,25.8000,-19.5000,4.0900,11.9400,-6.0300,-0.2182,-0.1069,0.0338,-22.5625,-24.0625,15.5625,225.9375,20.6250,-154.2500,0
814.970,8.2600,4.4939,-1.6376,-0.0203,0.5878,-0.4807,-58.6500,13.2000,16.8000,8.4515,0.6081,-3.3471,-1.0222,-0.2137,-0.1676,-65.5500,25.0500,-19.2000,2.3600,6.2200,-8.2000,-0.2182,-0.1069,0.0338,-22.5625,-24.0625,15.5625,225.9375,20.6875,-154.1875,0
814.979,8.8490,4.5083,-4.2784,-0.1564,0.4951,-0.2132,-58.2000,14.4000,17.2500,9.7875,1.9824,-1.2043,-0.3896,0.1564,-0.1410,-64.8000,25.8000,-18.7500,2.7700,0.1600,-9.8000,-0.0622,0.1691,-0.0698,-22.5625,-24.0625,15.5625,225.9375,20.6875,-154.1250,0
814.990,8.0349,4.0989,-3.7254,-0.4919,0.2904,0.0847,-56.8500,11.4000,16.8000,10.5082,1.8387,0.3304,-0.2755,0.2316,-0.1359,-64.8000,25.8000,-18.7500,4.0900,1.9000,-8.7600,-0.0545,-0.0491,0.0676,-22.5625,-24.0625,15.5625,225.9375,20.6875,-154.1250,0
814.995,8.0349,4.0989,-3.7254,-0.4919,0.2904,0.0847,-56.8500,11.4000,16.8000,10.5082,1.8387,0.3304,-0.2755,0.2316,-0.1359,-64.8000,25.8000,-18.7500,4.0900,1.9000,-8.7600,-0.0545,-0.0491,0.0676,-22.5625,-24.0625,15.5625,226.0000,20.6250,-154.1250,0
815.000,8.7484,3.4836,-2.3942,-0.4037,0.3800,0.2984,-56.8500,11.4000,16.8000,10.3214,0.3759,-0.4214,-0.3243,0.1839,-0.1199,-65.1000,26.4000,-18.6000,3.4600,4.7300,-8.2900,-0.0600,-0.1822,0.0687,-24.1875,-24.3750,14.3750,226.0000,20.6250,-154.1250,0
815.004,8.7484,3.4836,-2.3942,-0.4037,0.3800,0.2984,-56.8500,10.9500,15.7500,10.2472,0.5291,-1.1444,-0.3243,0.1839,-0.1199,-65.1000,26.4000,-18.6000,3.4600,4.7300,-8.2900,-0.0600,-0.1822,0.0687,-24.1875,-24.3750,14.3750,226.0625,20.5625,-154.1250,0
815.010,8.4851,3.4860,-1.2210,0.2257,0.2185,0.3992,-56.8500,10.9500,15.7500,10.2472,0.5291,-1.1444,-0.2963,0.1540,-0.0991,-65.1000,26.4000,-18.6000,3.4400,2.2200,-8.8400,-0.0556,-0.0764,-0.0033,-24.1875,-24.3750,14.3750,226.0625,20.5625,-154.1250,0
815.017,7.7500,3.5506,-0.3376,0.4319,-0.1399,0.4295,-57.0000,12.0000,14.8500,9.3254,1.4724,-1.9010,-0.2630,0.1018,-0.1143,-65.1000,26.4000,-18.6000,3.4700,3.5200,-8.4000,-0.1102,-0.0731,-0.0185,-24.1875,-24.3750,14.3750,226.0625,20.5000,-154.0625,0
815.022,7.7500,3.5506,-0.3376,0.4319,-0.1399,0.4295,-56.1000,12.4500,16.2000,9.3254,1.4724,-1.9010,-0.2630,0.1018,-0.1143,-64.5000,27.0000,-18.4500,3.4700,3.5200,-8.4000,-0.1102,-0.0731,-0.0185,-24.1875,-24.3750,14.3750,226.0625,20.4375,-154.0000,0
815.030,8.8609,3.4979,-0.1867,0.7109,0.0874,0.4167,-56.1000,12.4500,16.2000,8.5497,2.0063,-1.7909,-0.1756,0.1175,-0.1106,-65.1000,27.1500,-18.6000,3.6100,4.2300,-8.0100,-0.1265,-0.1080,-0.0338,-24.1875,-24.3750,14.3750,226.0625,20.3750,-153.9375,0
815.040,9.4930,2.4038,-0.2729,0.6531,0.3525,0.3368,-57.4500,11.4000,16.2000,8.8394,1.5490,-1.3336,-0.0096,0.2529,-0.1178,-65.5500,26.1000,-19.9500,3.3400,4.5100,-7.9900,-0.1342,-0.2258,-0.0404,-24.1875,-24.3750,14.3750,226.0625,20.3750,-153.9375,0
815.045,9.4930,2.4038,-0.2729,0.6531,0.3525,0.3368,-57.4500,11.4000,16.2000,9.8497,0.6656,-1.4940,0.1180,0.3264,-0.1196,-65.5500,26.1000,-19.9500,3.3400,4.5100,-7.9900,-0.1342,-0.2258,-0.0404,-24.1875,-24.3750,14.3750,226.0625,20.3750,-153.9375,0
815.050,10.0676,1.6376,-0.7614,0.5105,0.2094,0.2427,-57.4500,11.4000,16.2000,9.8497,0.6656,-1.4940,0.1180,0.3264,-0.1196,-65.5500,26.1000,-19.9500,3.0400,4.4300,-8.3500,-0.1080,-0.3185,-0.0349,-23.0000,-23.6875,13.5625,226.1250,20.1875,-153.8750,0
815.054,10.0676,1.6376,-0.7614,0.5105,0.2094,0.2427,-57.4500,11.4000,16.2000,10.0892,-0.2131,-0.8571,-0.0738,0.3539,-0.1154,-64.8000,27.0000,-17.7000,3.0400,4.4300,-8.3500,-0.1080,-0.3185,-0.0349,-23.0000,-23.6875,13.5625,226.1250,20.1875,-153.8750,0
815.059,10.1131,1.3934,-1.1229,0.3757,-0.1132,0.1082,-57.4500,11.4000,16.2000,10.0892,-0.2131,-0.8571,-0.0738,0.3539,-0.1154,-65.8500,27.0000,-17.7000,3.4700,3.7500,-8.5200,-0.0774,-0.1298,-0.0338,-23.0000,-23.6875,13.5625,226.1250,20.1250,-153.8750,0
815.064,9.9958,0.9266,-1.3934,0.1825,-0.0895,-0.0706,-57.7500,14.2500,15.9000,10.1155,-0.2729,-0.1987,-0.5025,0.3102,-0.0869,-65.8500,25.2000,-19.3500,3.4700,3.7500,-8.5200,-0.1113,-0.0731,-0.0349,-23.0000,-23.6875,13.5625,226.1250,20.0625,-153.8125,0
815.070,9.9958,0.9266,-1.3934,0.1825,-0.0895,-0.0706,-57.4500,11.7000,15.7500,10.1155,-0.2729,-0.1987,-0.5025,0.3102,-0.0869,-65.2500,26.1000,-18.0000,3.4000,3.9600,-8.4000,-0.1113,-0.0731,-0.0349,-23.0000,-23.6875,13.5625,226.1250,20.0000,-153.7500,0
815.080,9.2416,0.1891,-1.5778,0.0368,0.0237,-0.2366,-58.2000,13.6500,17.2500,9.9240,0.1484,0.0215,-0.7762,0.2497,-0.0464,-65.2500,26.1000,-18.0000,3.4500,3.9300,-8.3400,-0.1254,-0.0535,-0.0338,-23.0000,-23.6875,13.5625,226.1250,20.0000,-153.7500,0
815.090,8.5258,-0.5914,-1.4988,-0.1596,0.1074,-0.3336,-58.2000,15.1500,14.4000,9.9048,1.1899,-0.6895,-0.6883,0.1716,-0.0264,-65.2500,26.1000,-18.0000,3.3400,4.0300,-8.3200,-0.1200,-0.0458,-0.0393,-23.0000,-23.6875,13.5625,226.1250,20.0000,-153.6250,0
815.095,8.5090,-0.2658,-1.1037,-0.4042,0.1500,-0.2987,-58.2000,15.1500,14.4000,9.6462,0.8954,-0.8452,-0.4996,0.1426,-0.0184,-64.0500,27.0000,-17.7000,3.3400,4.0300,-8.3200,-0.1200,-0.0458,-0.0393,-23.0000,-23.6875,13.5625,226.1875,19.9375,-153.6250,0
815.100,8.5090,-0.2658,-1.1037,-0.4042,0.1500,-0.2987,-58.2000,15.1500,14.4000,9.6462,0.8954,-0.8452,-0.4996,0.1426,-0.0184,-64.0500,27.0000,-17.7000,3.1900,3.8500,-8.3900,-0.1080,-0.0360,-0.0393,-24.8750,-24.5000,14.0625,226.1875,19.9375,-153.6250,0
815.105,8.4994,1.0367,-1.0774,-0.6747,0.0594,-0.1993,-58.2000,15.1500,14.4000,9.4858,0.2921,-1.2881,-0.6568,0.2329,-0.0029,-65.5500,27.0000,-17.4000,3.1900,3.8500,-8.3900,-0.1080,-0.0360,-0.0393,-24.8750,-24.5000,14.0625,226.1875,19.9375,-153.5625,0
815.110,8.4994,1.0367,-1.0774,-0.6747,0.0594,-0.1993,-60.6000,13.8000,14.5500,9.4858,0.2921,-1.2881,-0.6568,0.2329,-0.0029,-65.5500,27.0000,-17.4000,3.2800,3.6400,-8.4600,-0.1298,-0.0185,-0.0404,-24.8750,-24.5000,14.0625,226.1875,19.9375,-153.5625,0
815.115,9.5026,3.1675,-0.8092,-0.9321,0.0418,-0.0818,-60.6000,13.8000,14.5500,10.0892,0.1365,-0.7207,-1.0413,0.1140,-0.0218,-65.8500,25.9500,-18.3000,3.2800,3.6400,-8.4600,-0.1854,-0.0055,-0.0404,-24.8750,-24.5000,14.0625,226.1875,19.9375,-153.5000,0
815.121,9.5026,3.1675,-0.8092,-0.9321,0.0418,-0.0818,-58.9500,13.6500,14.4000,9.7659,0.9290,-0.6847,-1.0413,0.1140,-0.0218,-65.8500,25.9500,-18.3000,3.2300,3.7000,-8.5100,-0.1854,-0.0055,-0.0404,-24.8750,-24.5000,14.0625,226.1875,19.9375,-153.5000,0
815.129,9.9886,4.4532,-1.2163,-1.2100,0.0117,-0.0322,-60.3000,13.5000,16.3500,9.7731,1.9704,-0.2346,-1.0309,0.0711,-0.0424,-64.3500,26.7000,-16.8000,3.2000,4.2500,-8.3000,-0.2825,-0.0055,-0.0327,-24.8750,-24.5000,14.0625,226.2500,19.9375,-153.3125,0
815.134,9.6295,4.7884,-1.6209,-1.4554,0.0648,-0.0735,-60.3000,13.5000,16.3500,9.7731,1.9704,-0.2346,-0.7594,0.1090,-0.0232,-65.1000,26.4000,-17.8500,3.2000,4.2500,-8.3000,-0.3720,0.0011,-0.0262,-24.8750,-24.5000,14.0625,226.2500,19.8750,-153.1250,0
815.141,9.6295,4.7884,-1.6209,-1.4554,0.0648,-0.0735,-60.7500,12.9000,15.4500,9.5193,1.9201,0.2490,-0.5063,0.1356,0.0133,-65.1000,26.4000,-17.8500,3.1800,4.1900,-8.3200,-0.3720,0.0011,-0.0262,-24.8750,-24.5000,14.0625,226.2500,19.8750,-153.1250,0
815.146,9.5624,4.6280,-1.0630,-1.6044,0.0461,-0.1061,-60.7500,12.9000,15.4500,9.5193,1.9201,0.2490,-0.5063,0.1356,0.0133,-65.1000,26.4000,-17.8500,3.1800,4.1900,-8.3200,-0.3720,0.0011,-0.0262,-24.1875,-23.5000,14.3750,226.4375,19.8750,-152.8750,0
815.151,9.5624,4.6280,-1.0630,-1.6044,0.0461,-0.1061,-60.3000,13.5000,16.6500,9.6271,1.7980,0.2083,-0.3163,0.2036,0.0304,-65.1000,26.4000,-17.8500,3.2800,4.3000,-8.2900,-0.3960,0.0185,-0.0284,-24.1875,-23.5000,14.3750,226.4375,19.8750,-152.8750,0
815.155,9.6462,4.5801,0.1820,-1.5442,0.1564,-0.1151,-60.3000,13.5000,16.6500,9.6271,1.7980,0.2083,-0.3163,0.2036,0.0304,-65.1000,26.4000,-17.8500,3.2800,4.3000,-8.2900,-0.3960,0.0185,-0.0284,-24.1875,-23.5000,14.3750,226.5000,19.9375,-152.6250,0
815.161,9.6462,4.5801,0.1820,-1.5442,0.1564,-0.1151,-60.3000,13.5000,16.6500,9.7420,1.3910,-0.1748,-0.3240,0.2132,0.0464,-65.1000,26.4000,-17.8500,3.3300,4.8300,-8.0800,-0.3927,0.0371,-0.0349,-24.1875,-23.5000,14.3750,226.5000,19.9375,-152.6250,0
815.165,9.0094,4.5203,1.0558,-1.3462,0.1034,-0.1343,-60.3000,13.5000,16.6500,9.7420,1.3910,-0.1748,-0.3240,0.2132,0.0464,-66.1500,27.9000,-17.8500,3.3300,4.8300,-8.0800,-0.3458,0.0458,-0.0349,-24.1875,-23.5000,14.3750,226.5000,19.9375,-152.4375,0
815.171,8.5880,4.4365,1.4246,-1.0704,0.0749,-0.1311,-61.2000,12.4500,16.5000,9.6774,1.2905,0.0838,-0.2843,0.1990,0.0554,-66.1500,27.9000,-17.8500,3.3100,4.6400,-8.1200,-0.3458,0.0458,-0.0349,-24.1875,-23.5000,14.3750,226.5000,19.9375,-152.3125,0
815.180,8.5880,4.4365,1.4246,-1.0704,0.0749,-0.1311,-60.4500,13.9500,17.8500,9.6127,1.3791,0.0742,-0.3312,0.1564,0.0634,-66.1500,27.9000,-17.8500,3.2600,4.8900,-8.0800,-0.2880,0.0447,-0.0262,-24.1875,-23.5000,14.3750,226.5000,19.9375,-152.3125,0
815.190,8.3606,4.0247,1.1253,-0.9190,0.1146,-0.0962,-60.3000,13.8000,17.7000,9.5170,1.5730,0.0335,-0.2707,0.1316,0.0722,-64.3500,28.3500,-17.5500,3.2700,4.9200,-8.0400,-0.2193,0.0425,-0.0185,-24.1875,-23.5000,14.3750,226.5000,19.9375,-152.1250,0
815.195,8.4635,3.7924,0.5914,-0.6563,0.1348,-0.0474,-60.3000,13.8000,17.7000,9.5170,1.5730,0.0335,-0.2707,0.1316,0.0722,-64.6500,27.1500,-17.1000,3.2700,4.9200,-8.0400,-0.2193,0.0425,-0.0185,-24.1875,-23.5000,14.3750,226.5000,19.9375,-152.1250,0
815.200,8.4635,3.7924,0.5914,-0.3765,0.1516,0.0000,-58.8000,12.3000,17.7000,9.6367,1.5467,0.3136,-0.1492,0.1314,0.0885,-64.6500,27.1500,-17.1000,3.2900,4.7400,-8.0800,-0.1505,0.0371,-0.0022,-24.1875,-24.5000,13.2500,226.5625,20.0000,-152.0625,0
815.205,8.7628,3.8307,0.4549,-0.3765,0.1516,0.0000,-58.8000,12.3000,17.7000,9.6367,1.5467,0.3136,-0.1492,0.1314,0.0885,-65.8500,26.4000,-17.5500,3.2900,4.7400,-8.0800,-0.1505,0.0371,-0.0022,-24.1875,-24.5000,13.2500,226.5625,20.0000,-152.0625,0
815.210,9.1195,4.0294,0.3160,-0.1844,0.1855,0.0517,-58.8000,12.3000,17.7000,9.6319,1.3312,0.4477,-0.0584,0.1140,0.0935,-65.8500,26.4000,-17.5500,3.2900,4.6400,-8.0900,-0.0818,0.0273,0.0076,-24.1875,-24.5000,13.2500,226.5625,20.0000,-152.0000,0
815.215,9.1195,4.0294,0.3160,-0.1844,0.1855,0.0517,-58.8000,12.3000,17.7000,9.6319,1.3312,0.4477,-0.0584,0.1140,0.0935,-64.8000,26.5500,-16.9500,3.2900,4.6400,-8.0900,-0.0262,0.0153,0.0098,-24.1875,-24.5000,13.2500,226.5625,20.0000,-152.0000,0
815.221,8.9735,4.0965,0.2155,-0.0440,0.1703,0.1034,-60.4500,10.6500,17.8500,9.7875,1.0774,0.2514,0.0112,0.1124,0.0970,-64.8000,26.5500,-16.9500,3.3200,4.6300,-8.0900,-0.0262,0.0153,0.0098,-24.1875,-24.5000,13.2500,226.5625,20.0000,-152.0000,0
815.230,9.2249,3.8331,-0.0575,0.1021,0.2249,0.1503,-60.6000,11.2500,18.7500,9.8976,0.7925,0.1365,0.1090,0.1108,0.0975,-66.1500,25.9500,-17.1000,3.3100,4.6100,-8.0800,0.0196,-0.0033,0.0065,-24.1875,-24.5000,13.2500,226.5625,20.0000,-152.0000,0
815.235,9.2249,3.8331,-0.0575,0.1021,0.2249,0.1503,-60.6000,11.2500,18.7500,9.8976,0.7925,0.1365,0.1090,0.1108,0.0975,-64.5000,26.1000,-17.4000,3.3100,4.6100,-8.0800,0.0611,-0.0175,0.0000,-24.1875,-24.5000,13.2500,226.5625,20.0000,-152.0000,0
