timestamp,thigh_acc_x,thigh_acc_y,thigh_acc_z,thigh_gyro_x,thigh_gyro_y,thigh_gyro_z,thigh_mag_x,thigh_mag_y,thigh_mag_z,shank_acc_x,shank_acc_y,shank_acc_z,shank_gyro_x,shank_gyro_y,shank_gyro_z,shank_mag_x,shank_mag_y,shank_mag_z,foot_acc_x,foot_acc_y,foot_acc_z,foot_gyro_x,foot_gyro_y,foot_gyro_z,foot_mag_x,foot_mag_y,foot_mag_z,foot_euler_x,foot_euler_y,foot_euler_z,perturbation_event
583.501,9.4140,2.3272,0.2945,-0.0797,0.0205,0.1106,-53.7000,16.8000,22.8000,9.6055,1.0175,0.6488,-0.0861,-0.0871,-0.0067,-60.7500,26.1000,-14.4000,3.1900,3.8700,-8.2200,0.0153,-0.0175,-0.0098,-25.2500,-23.1875,16.8750,229.7500,19.0000,-154.8750,0
583.509,9.5289,2.5259,0.3663,-0.0594,0.0250,0.1138,-54.0000,18.3000,21.6000,9.4667,1.2570,0.4477,-0.0970,-0.0922,-0.0029,-60.7500,26.1000,-14.4000,3.1500,3.8800,-8.2200,0.0033,-0.0098,-0.0087,-25.2500,-23.1875,16.8750,229.7500,19.0000,-154.8750,0
583.519,9.6055,2.7485,0.2442,-0.0954,0.0237,0.0893,-54.0000,18.3000,21.6000,9.5337,1.3024,0.5363,-0.0725,-0.0973,-0.0072,-61.0500,27.3000,-13.9500,3.1200,3.9400,-8.1800,-0.0033,-0.0076,-0.0065,-25.2500,-23.1875,16.8750,229.7500,19.0000,-154.8750,0
583.529,9.4451,2.7773,-0.0096,-0.1543,0.0008,0.0634,-52.2000,16.5000,22.0500,9.5672,1.1181,0.5124,-0.0733,-0.0975,-0.0040,-61.0500,27.3000,-13.9500,3.1600,4.0300,-8.1400,0.0011,-0.0076,-0.0033,-25.2500,-23.1875,16.8750,229.7500,19.0000,-154.8750,0
583.538,9.2009,2.7557,-0.0287,-0.2337,-0.0021,0.0416,-52.9500,17.5500,21.6000,9.6247,1.0965,0.4334,-0.1095,-0.0853,0.0021,-61.0500,27.3000,-13.9500,3.1800,3.9300,-8.1600,0.0044,-0.0131,-0.0022,-25.2500,-23.1875,16.8750,229.7500,19.0000,-154.8750,0
583.543,9.1506,2.7701,0.0096,-0.2364,0.0216,0.0394,-54.4500,17.5500,23.4000,9.6151,1.2115,0.3400,-0.1095,-0.0853,0.0021,-61.2000,26.7000,-13.0500,3.1800,3.9300,-8.1600,0.0076,-0.0142,-0.0055,-24.5625,-23.1875,17.2500,229.7500,19.0000,-154.8750,0
583.549,9.1506,2.7701,0.0096,-0.2364,0.0216,0.0394,-54.4500,17.5500,23.4000,9.6151,1.2115,0.3400,-0.1196,-0.0850,0.0149,-61.6500,27.9000,-13.5000,3.1700,3.9300,-8.1600,0.0076,-0.0142,-0.0055,-24.5625,-23.1875,17.2500,229.7500,19.0000,-154.8750,0
583.559,9.2344,2.9664,-0.0886,-0.1676,0.0418,0.0432,-54.4500,17.5500,23.1000,9.5505,1.2689,0.3136,-0.0885,-0.0719,0.0021,-60.9000,27.9000,-13.5000,3.1300,3.9400,-8.1900,0.0109,-0.0098,-0.0033,-24.5625,-23.1875,17.2500,229.7500,19.0000,-154.8750,0
583.568,9.2512,3.0957,-0.2538,-0.1103,0.0285,0.0458,-54.3000,16.9500,21.1500,9.5241,1.2761,0.2849,-0.0767,-0.0538,0.0112,-60.9000,27.1500,-12.3000,3.1400,3.9500,-8.1900,0.0109,-0.0131,-0.0055,-24.5625,-23.1875,17.2500,229.7500,19.0000,-154.8750,0
583.576,9.2680,3.1819,-0.2873,-0.1077,0.0125,0.0581,-54.3000,16.9500,21.1500,9.5648,1.1037,0.3280,-0.0450,-0.0336,0.0003,-63.1500,27.1500,-14.2500,3.1600,3.9500,-8.1800,0.0087,-0.0098,-0.0011,-24.5625,-23.1875,17.2500,229.7500,19.0000,-154.8750,0
583.581,9.2680,3.1819,-0.2873,-0.1077,0.0125,0.0581,-54.3000,16.9500,21.1500,9.5648,1.1037,0.3280,-0.0450,-0.0336,0.0003,-63.1500,27.1500,-14.2500,3.1600,3.9500,-8.1800,0.0087,-0.0098,-0.0011,-24.5625,-23.1875,17.2500,229.7500,19.0000,-154.8750,0
583.589,9.2536,3.1556,-0.2945,-0.0946,0.0261,0.0706,-53.8500,15.4500,22.5000,9.5122,1.0223,0.1317,-0.0549,-0.0195,0.0019,-63.1500,27.1500,-14.2500,3.1500,3.9100,-8.1900,0.0109,-0.0120,-0.0033,-24.5625,-23.1875,17.2500,229.7500,19.0000,-154.8750,0
583.594,9.2225,3.2896,-0.3136,-0.0469,0.0346,0.0775,-53.5500,15.1500,22.2000,9.5385,1.1229,0.0239,-0.0674,-0.0005,0.0147,-61.9500,27.4500,-12.3000,3.1500,3.9100,-8.1900,0.0109,-0.0109,-0.0011,-24.1875,-22.7500,16.8750,229.7500,19.0000,-154.9375,0
583.600,9.2225,3.2896,-0.3136,-0.0469,0.0346,0.0775,-53.5500,15.1500,22.2000,9.5385,1.1229,0.0239,-0.0674,-0.0005,0.0147,-61.9500,27.4500,-12.3000,3.1500,3.8800,-8.2000,0.0109,-0.0109,-0.0011,-24.1875,-22.7500,16.8750,229.7500,19.0000,-154.9375,0
583.609,9.2249,3.5530,-0.2777,0.0109,0.0472,0.0815,-53.8500,16.6500,21.4500,9.4786,1.2737,-0.0335,-0.0525,0.0109,0.0157,-61.9500,27.4500,-12.3000,3.1300,3.9000,-8.2400,0.0109,-0.0055,-0.0022,-24.1875,-22.7500,16.8750,229.7500,19.0000,-154.9375,0
583.617,9.4691,3.7086,-0.2418,0.0544,0.0437,0.0805,-53.4000,17.2500,22.0500,9.4499,1.4413,-0.0215,-0.0282,0.0314,0.0125,-62.2500,27.0000,-13.9500,3.1200,3.9100,-8.2300,0.0131,-0.0055,0.0022,-24.1875,-22.7500,16.8750,229.7500,19.0000,-154.9375,0
583.622,9.8474,3.9504,-0.1772,0.0861,-0.0197,0.0794,-53.4000,17.2500,22.0500,9.4643,1.4557,0.0000,0.0008,0.0549,0.0176,-60.9000,27.9000,-14.5500,3.1200,3.9100,-8.2300,0.0131,-0.0055,0.0022,-24.1875,-22.7500,16.8750,229.7500,19.0000,-154.9375,0
583.629,9.8474,3.9504,-0.1772,0.0861,-0.0197,0.0794,-53.4000,17.2500,22.0500,9.4643,1.4557,0.0000,0.0008,0.0549,0.0176,-60.9000,27.9000,-14.5500,3.1200,3.9000,-8.2000,0.0109,-0.0044,0.0087,-24.1875,-22.7500,16.8750,229.7500,19.0000,-154.9375,0
583.639,10.0341,3.9576,-0.2442,0.0679,-0.0538,0.1007,-51.0000,15.9000,21.1500,9.4786,1.1540,0.2035,0.0416,0.0711,0.0181,-62.4000,25.9500,-14.2500,3.1300,3.9100,-8.1800,0.0175,-0.0022,0.0076,-24.1875,-22.7500,16.8750,229.7500,19.0000,-154.9375,0
583.644,9.2871,3.9409,-0.1676,0.0328,-0.0970,0.1330,-52.6500,16.5000,22.8000,9.4786,1.1540,0.2035,0.0528,0.0879,0.0221,-62.4000,28.3500,-13.8000,3.1300,3.9100,-8.1800,0.0218,0.0011,0.0109,-24.5625,-23.5625,17.2500,229.7500,19.0000,-154.9375,0
583.650,8.6742,3.7445,-0.2753,0.0061,-0.0368,0.1567,-52.6500,16.5000,22.8000,9.6031,1.2330,0.1796,0.0528,0.0879,0.0221,-62.4000,28.3500,-13.8000,3.1600,3.9400,-8.1800,0.0218,0.0011,0.0109,-24.5625,-23.5625,17.2500,229.7500,19.0000,-155.0000,0
583.659,8.6742,3.7445,-0.2753,0.0061,-0.0368,0.1567,-53.7000,18.0000,22.8000,9.4978,1.6544,0.0575,0.0067,0.0882,0.0360,-60.4500,25.9500,-13.5000,3.1400,3.9100,-8.1900,0.0251,-0.0011,0.0131,-24.5625,-23.5625,17.2500,229.7500,19.0000,-155.0000,0
583.669,8.7173,3.7421,-0.3615,0.1636,0.0706,0.1873,-52.6500,16.8000,21.6000,9.3182,2.0375,0.0455,-0.0338,0.1050,0.0517,-61.5000,26.5500,-12.4500,3.1300,3.8700,-8.2400,0.0229,-0.0011,0.0142,-24.5625,-23.5625,17.2500,229.7500,19.0000,-155.0000,0
583.677,8.7340,3.8403,-0.2801,0.1636,0.0706,0.1873,-52.3500,15.4500,21.9000,9.3182,2.0375,0.0455,-0.0234,0.1226,0.0613,-61.5000,26.5500,-12.4500,3.1400,4.0100,-8.1500,0.0262,0.0022,0.0207,-24.5625,-23.5625,17.2500,229.7500,19.0000,-155.0000,0
583.682,8.7436,4.0582,0.1221,0.2899,0.0629,0.1932,-52.3500,15.4500,21.9000,9.3805,2.1548,0.1652,0.0200,0.1522,0.0703,-62.4000,27.4500,-12.3000,3.1400,4.0100,-8.1500,0.0262,0.0022,0.0207,-24.5625,-23.5625,17.2500,229.7500,19.0000,-155.0000,0
583.689,8.8346,3.8571,0.7135,0.2801,0.0059,0.1652,-52.3500,15.4500,21.9000,9.4116,1.9920,0.3615,0.1037,0.1676,0.0842,-62.4000,27.4500,-12.3000,3.1300,4.0500,-8.1400,0.0327,0.0000,0.0207,-24.5625,-23.5625,17.2500,229.7500,19.0000,-155.0000,0
583.694,8.8346,3.8571,0.7135,0.2801,0.0059,0.1652,-54.0000,18.0000,23.1000,9.4116,1.9920,0.3615,0.1037,0.1676,0.0842,-62.4000,27.4500,-12.3000,3.1300,4.0500,-8.1400,0.0327,0.0000,0.0207,-23.7500,-23.1875,17.2500,229.7500,19.0000,-155.0625,0
583.699,9.0070,3.4261,1.2163,0.3040,0.0330,0.1244,-51.9000,17.5500,23.1000,9.3853,1.7741,0.5555,0.1071,0.1799,0.1058,-62.4000,27.4500,-12.3000,3.1200,4.0600,-8.0900,0.0436,-0.0109,0.0218,-23.7500,-23.1875,17.2500,229.7500,19.0000,-155.0625,0
583.704,9.0070,3.4261,1.2163,0.3040,0.0330,0.1244,-51.9000,17.5500,22.0500,9.3853,1.7741,0.5555,0.1071,0.1799,0.1058,-60.9000,27.4500,-12.7500,3.1200,4.0600,-8.0900,0.0545,-0.0229,0.0218,-23.7500,-23.1875,17.2500,229.8125,19.0000,-155.0625,0
583.709,9.0477,2.8515,1.0965,0.3691,0.0554,0.0794,-52.2000,16.0500,22.8000,9.5074,1.5826,0.7973,0.1308,0.1841,0.1162,-60.9000,27.4500,-12.7500,3.1900,4.0200,-8.1400,0.0545,-0.0229,0.0218,-23.7500,-23.1875,17.2500,229.8125,19.0000,-155.0625,0
583.714,9.0477,2.8515,1.0965,0.3691,0.0554,0.0794,-52.2000,16.0500,22.8000,9.5074,1.5826,0.7973,0.1308,0.1841,0.1162,-62.2500,27.7500,-12.9000,3.1900,4.0200,-8.1400,0.0709,-0.0338,0.0196,-23.7500,-23.1875,17.2500,229.8125,19.0000,-155.1250,0
583.720,9.1243,2.1045,0.8332,0.4170,0.1231,0.0488,-52.8000,18.4500,22.2000,9.5409,1.4557,1.1516,0.1255,0.1740,0.1226,-62.2500,27.7500,-12.9000,3.1700,4.0600,-8.1200,0.0709,-0.0338,0.0196,-23.7500,-23.1875,17.2500,229.8125,19.0000,-155.1250,0
583.729,9.2799,1.5682,0.7039,0.4133,0.1266,0.0346,-52.8000,18.4500,22.2000,9.5361,1.2186,1.2402,0.1148,0.1612,0.1274,-60.4500,27.1500,-13.5000,3.1600,4.0600,-8.1400,0.0884,-0.0447,0.0120,-23.7500,-23.1875,17.2500,229.8125,19.0000,-155.1875,0
583.734,9.2799,1.5682,0.7039,0.4133,0.1266,0.0346,-52.8000,18.4500,22.2000,9.5361,1.2186,1.2402,0.1148,0.1612,0.1274,-60.9000,26.7000,-13.0500,3.1600,4.0600,-8.1400,0.1058,-0.0535,0.0076,-23.7500,-23.1875,17.2500,229.8125,18.9375,-155.1875,0
583.740,9.1937,1.6185,0.7254,0.4074,0.1077,0.0354,-52.8000,16.2000,21.9000,9.6007,1.0032,1.1037,0.0802,0.1458,0.1348,-60.9000,26.7000,-13.0500,3.2300,4.0000,-8.1500,0.1058,-0.0535,0.0076,-23.7500,-23.1875,17.2500,229.8125,18.9375,-155.1875,0
583.745,9.1937,1.6185,0.7254,0.4074,0.1077,0.0354,-52.8000,16.2000,21.9000,9.6007,1.0032,1.1037,0.0802,0.1458,0.1348,-60.7500,25.0500,-12.9000,3.2300,4.0000,-8.1500,0.1058,-0.0535,0.0076,-25.0000,-22.7500,16.8750,229.7500,18.9375,-155.2500,0
583.750,9.4786,1.7310,0.6919,0.3728,0.0943,0.0344,-52.9500,17.5500,23.1000,9.7252,0.8715,1.1109,0.0565,0.1322,0.1292,-60.7500,25.0500,-12.9000,3.2100,4.0600,-8.1900,0.1254,-0.0644,0.0000,-25.0000,-22.7500,16.8750,229.7500,18.9375,-155.2500,0
583.755,9.4786,1.7310,0.6919,0.3728,0.0943,0.0344,-52.9500,17.5500,23.1000,9.7037,0.9816,1.2115,0.0565,0.1322,0.1292,-61.9500,25.9500,-14.2500,3.2100,4.0600,-8.1900,0.1254,-0.0644,0.0000,-25.0000,-22.7500,16.8750,229.7500,18.8750,-155.3125,0
583.760,9.3613,2.0039,0.7183,0.3565,0.0320,0.0450,-52.0500,18.1500,21.4500,9.7037,0.9816,1.2115,0.0200,0.1146,0.1375,-61.9500,25.9500,-14.2500,3.1500,4.2300,-8.2600,0.1494,-0.0774,-0.0033,-25.0000,-22.7500,16.8750,229.7500,18.8750,-155.3125,0
583.765,9.3613,2.0039,0.7183,0.3565,0.0320,0.0450,-52.0500,18.1500,21.4500,9.6582,1.0558,1.3958,0.0200,0.1146,0.1375,-61.9500,25.9500,-14.2500,3.1500,4.2300,-8.2600,0.1669,-0.0818,0.0011,-25.0000,-22.7500,16.8750,229.7500,18.8750,-155.4375,0
583.770,9.6151,2.1859,0.7278,0.3293,-0.0096,0.0562,-51.7500,18.1500,21.4500,9.6582,1.0558,1.3958,0.0266,0.1007,0.1346,-61.9500,25.9500,-14.2500,3.1400,3.8400,-8.3000,0.1669,-0.0818,0.0011,-25.0000,-22.7500,16.8750,229.7500,18.8750,-155.4375,0
583.779,9.5074,2.2003,0.9337,0.3368,-0.0453,0.0663,-52.3500,17.7000,22.2000,9.7540,1.1277,1.4246,0.0501,0.0818,0.1295,-62.5500,28.0500,-13.2000,3.1400,3.9600,-8.2500,0.1745,-0.0862,0.0087,-25.0000,-22.7500,16.8750,229.7500,18.8125,-155.5000,0
583.784,9.5074,2.2003,0.9337,0.3368,-0.0453,0.0663,-52.3500,17.7000,22.2000,9.7492,0.9720,1.5945,0.0501,0.0818,0.1295,-61.5000,26.5500,-12.9000,3.1400,3.9600,-8.2500,0.1844,-0.0884,0.0087,-25.0000,-22.7500,16.8750,229.7500,18.7500,-155.6250,0
583.790,9.6079,2.0423,0.9218,0.2409,0.0346,0.0666,-52.3500,17.7000,22.2000,9.7492,0.9720,1.5945,0.0714,0.0797,0.1223,-61.5000,26.5500,-12.9000,3.1300,3.9800,-8.2300,0.1844,-0.0884,0.0087,-25.0000,-22.7500,16.8750,229.7500,18.7500,-155.6250,0
583.795,9.4858,1.8364,1.0582,0.1753,0.0722,0.0594,-52.3500,17.7000,22.2000,9.8354,0.7039,1.6233,0.0903,0.0690,0.1111,-62.4000,26.4000,-12.0000,3.1300,3.9800,-8.2300,0.1854,-0.0905,0.0120,-24.1875,-24.0000,17.2500,229.7500,18.7500,-155.6875,0
583.800,9.4858,1.8364,1.0582,0.1753,0.0722,0.0594,-51.3000,17.4000,22.5000,9.8354,0.7039,1.6233,0.0903,0.0690,0.1111,-62.4000,26.4000,-12.0000,3.1700,3.9700,-8.2100,0.1854,-0.0905,0.0120,-24.1875,-24.0000,17.2500,229.7500,18.7500,-155.6875,0
583.805,9.6534,1.5778,0.8787,0.1359,0.1367,0.0509,-51.3000,17.4000,22.5000,9.8378,0.4549,1.5778,0.0802,0.0432,0.1047,-62.2500,26.5500,-13.9500,3.1700,3.9700,-8.2100,0.1887,-0.0927,0.0131,-24.1875,-24.0000,17.2500,229.7500,18.6875,-155.8125,0
583.810,9.6534,1.5778,0.8787,0.1359,0.1367,0.0509,-51.7500,18.4500,23.2500,9.8378,0.4549,1.5778,0.0802,0.0432,0.1047,-62.2500,26.5500,-13.9500,3.1600,3.8300,-8.2700,0.1887,-0.0927,0.0131,-24.1875,-24.0000,17.2500,229.7500,18.6875,-155.8125,0
583.815,9.7037,1.5993,0.7566,0.2022,0.1551,0.0605,-51.7500,18.4500,23.2500,9.7923,0.3998,1.4557,0.0261,0.0272,0.0938,-61.5000,27.3000,-11.4000,3.1600,3.8300,-8.2700,0.1887,-0.0894,0.0153,-24.1875,-24.0000,17.2500,229.7500,18.6250,-155.9375,0
583.820,9.7037,1.5993,0.7566,0.2022,0.1551,0.0605,-52.6500,18.7500,21.6000,9.7923,0.3998,1.4557,0.0261,0.0272,0.0938,-61.5000,27.3000,-11.4000,3.1800,3.7800,-8.3000,0.1887,-0.0894,0.0153,-24.1875,-24.0000,17.2500,229.7500,18.6250,-155.9375,0
583.829,9.5002,1.9225,0.5555,0.2497,0.1194,0.0837,-52.3500,17.4000,22.5000,9.8378,0.5531,1.2139,-0.0072,0.0048,0.0898,-61.0500,27.7500,-13.9500,3.1300,3.7200,-8.3400,0.1865,-0.0873,0.0131,-24.1875,-24.0000,17.2500,229.7500,18.6250,-156.0625,0
583.834,9.4906,2.1883,0.4166,0.2657,0.1268,0.0938,-52.3500,17.4000,22.5000,9.7659,0.8188,1.1301,-0.0091,-0.0037,0.0805,-61.0500,27.7500,-13.9500,3.1300,3.7200,-8.3400,0.1833,-0.0862,0.0109,-24.1875,-24.0000,17.2500,229.7500,18.5625,-156.1250,0
583.840,9.4906,2.1883,0.4166,0.2657,0.1268,0.0938,-52.3500,17.4000,22.5000,9.7659,0.8188,1.1301,-0.0091,-0.0037,0.0805,-61.0500,27.7500,-13.9500,3.1100,3.7200,-8.3600,0.1833,-0.0862,0.0109,-24.1875,-24.0000,17.2500,229.7500,18.5625,-156.1250,0
583.845,9.4499,2.3750,0.3136,0.2422,0.1476,0.1021,-52.3500,17.4000,22.5000,9.6893,0.9888,1.0391,0.0218,-0.0125,0.0669,-61.2000,27.4500,-12.3000,3.0900,3.7200,-8.3500,0.1756,-0.0862,0.0120,-24.1875,-23.1875,17.6875,229.7500,18.5000,-156.2500,0
583.850,9.4499,2.3750,0.3136,0.2422,0.1476,0.1021,-50.4000,17.5500,22.3500,9.6893,0.9888,1.0391,0.0218,-0.0125,0.0669,-61.2000,27.4500,-12.3000,3.0900,3.7200,-8.3500,0.1756,-0.0862,0.0120,-24.1875,-23.1875,17.6875,229.7500,18.5000,-156.2500,0
583.855,9.4523,2.5211,0.1652,0.2228,0.1625,0.1191,-50.4000,17.5500,22.3500,9.6917,1.0894,0.8308,0.0458,-0.0141,0.0648,-61.2000,27.4500,-12.3000,3.0300,3.7000,-8.3300,0.1658,-0.0829,0.0109,-24.1875,-23.1875,17.6875,229.7500,18.5000,-156.3750,0
583.860,9.4523,2.5211,0.1652,0.2228,0.1625,0.1191,-51.4500,18.0000,23.1000,9.7229,1.0223,0.9194,0.0458,-0.0141,0.0648,-61.2000,27.4500,-12.3000,3.0300,3.7000,-8.3300,0.1658,-0.0829,0.0109,-24.1875,-23.1875,17.6875,229.7500,18.5000,-156.3750,0
583.865,9.5193,2.5474,0.3232,0.1937,0.1466,0.1223,-51.4500,18.0000,23.1000,9.7229,1.0223,0.9194,0.1098,-0.0216,0.0626,-62.5500,26.5500,-12.9000,3.0300,3.7000,-8.3300,0.1560,-0.0764,0.0120,-24.1875,-23.1875,17.6875,229.7500,18.4375,-156.4375,0
583.870,9.5193,2.5474,0.3232,0.1937,0.1466,0.1223,-50.1000,16.8000,22.8000,9.6702,0.8475,0.9074,0.1098,-0.0216,0.0626,-62.5500,26.5500,-12.9000,3.0300,3.7100,-8.4000,0.1560,-0.0764,0.0120,-24.1875,-23.1875,17.6875,229.7500,18.4375,-156.4375,0
583.879,9.5888,2.4014,0.3711,0.1639,0.1673,0.1282,-52.8000,16.6500,23.5500,9.6702,0.8475,0.9074,0.1292,-0.0248,0.0658,-61.9500,25.5000,-12.3000,3.0500,3.6300,-8.3800,0.1429,-0.0665,0.0164,-24.1875,-23.1875,17.6875,229.7500,18.4375,-156.5000,0
583.884,9.5289,2.4349,0.3041,0.1727,0.1468,0.1455,-52.8000,16.6500,23.5500,9.6965,0.7805,0.8380,0.1188,-0.0272,0.0711,-62.7000,26.4000,-11.5500,3.0500,3.6300,-8.3800,0.1298,-0.0611,0.0131,-24.1875,-23.1875,17.6875,229.7500,18.3750,-156.6250,0
583.890,9.5289,2.4349,0.3041,0.1727,0.1468,0.1455,-51.1500,17.5500,22.0500,9.6414,0.8739,0.6393,0.0589,-0.0312,0.0815,-62.7000,26.4000,-11.5500,3.0600,3.6400,-8.3700,0.1298,-0.0611,0.0131,-24.1875,-23.1875,17.6875,229.7500,18.3750,-156.6250,0
583.895,9.4571,2.6049,0.2059,0.1713,0.1511,0.1514,-51.1500,17.5500,22.0500,9.6414,0.8739,0.6393,0.0589,-0.0312,0.0815,-62.7000,26.4000,-11.5500,3.0600,3.6400,-8.3700,0.1298,-0.0611,0.0131,-24.1875,-23.1875,18.0625,229.7500,18.3750,-156.6875,0
583.900,9.4571,2.6049,0.2059,0.1713,0.1511,0.1514,-51.1500,17.5500,22.0500,9.6295,1.0487,0.6033,0.0216,-0.0277,0.0893,-62.7000,26.4000,-11.5500,3.0300,3.5900,-8.3700,0.1145,-0.0535,0.0109,-24.1875,-23.1875,18.0625,229.7500,18.3750,-156.6875,0
583.905,9.4619,2.7869,0.2825,0.1258,0.1655,0.1548,-51.1500,17.5500,22.0500,9.6295,1.0487,0.6033,0.0216,-0.0277,0.0893,-61.8000,27.0000,-13.9500,3.0300,3.5900,-8.3700,0.1145,-0.0535,0.0109,-24.1875,-23.1875,18.0625,229.7500,18.3125,-156.7500,0
583.910,9.4619,2.7869,0.2825,0.1258,0.1655,0.1548,-51.0000,17.7000,21.4500,9.6007,1.1803,0.5411,0.0024,-0.0285,0.0930,-61.8000,27.0000,-13.9500,3.0300,3.6800,-8.3800,0.0993,-0.0480,0.0087,-24.1875,-23.1875,18.0625,229.7500,18.3125,-156.7500,0
583.915,9.4379,2.8587,0.2777,0.0863,0.1271,0.1625,-51.0000,17.7000,21.4500,9.6007,1.1803,0.5411,0.0024,-0.0285,0.0930,-61.5000,25.8000,-12.9000,3.0300,3.6800,-8.3800,0.0840,-0.0436,0.0065,-24.1875,-23.1875,18.0625,229.7500,18.3125,-156.8125,0
583.920,9.4044,2.9305,0.2993,0.0352,0.1034,0.1708,-50.2500,17.7000,20.7000,9.5577,1.2378,0.5483,0.0133,-0.0149,0.0973,-61.5000,25.8000,-12.9000,3.0100,3.7200,-8.3600,0.0840,-0.0436,0.0065,-24.1875,-23.1875,18.0625,229.7500,18.3125,-156.8125,0
583.929,9.4044,2.9305,0.2993,0.0352,0.1034,0.1708,-51.1500,16.0500,22.3500,9.5505,1.3719,0.6225,0.0181,-0.0141,0.1042,-61.5000,25.8000,-12.9000,3.0100,3.7400,-8.3200,0.0709,-0.0382,0.0076,-24.1875,-23.1875,18.0625,229.7500,18.3125,-156.8125,0
583.934,9.2751,2.8898,0.5866,-0.0029,0.0855,0.1636,-51.1500,16.0500,22.3500,9.5505,1.3719,0.6225,0.0181,-0.0141,0.1042,-60.3000,25.8000,-13.6500,3.0100,3.7400,-8.3200,0.0687,-0.0360,0.0098,-24.1875,-23.1875,18.0625,229.7500,18.2500,-156.8750,0
583.940,9.3996,2.8802,0.5602,-0.0093,0.0530,0.1378,-51.1500,17.2500,23.4000,9.5529,1.3910,0.6225,0.0208,-0.0149,0.1119,-60.3000,25.8000,-13.6500,3.0300,3.7600,-8.3200,0.0687,-0.0360,0.0098,-24.1875,-23.1875,18.0625,229.7500,18.2500,-156.8750,0
583.945,9.3996,2.8802,0.5602,-0.0093,0.0530,0.1378,-51.1500,17.2500,23.4000,9.5529,1.3910,0.6225,0.0208,-0.0149,0.1119,-61.5000,26.1000,-11.4000,3.0300,3.7600,-8.3200,0.0709,-0.0349,0.0109,-23.7500,-22.7500,18.8750,229.7500,18.2500,-156.8750,0
583.950,9.4403,2.5618,0.8595,0.0288,0.0376,0.1364,-51.1500,17.2500,23.4000,9.6965,1.3048,1.0942,0.0997,-0.0203,0.1079,-61.5000,26.1000,-11.4000,3.0000,3.8700,-8.3000,0.0709,-0.0349,0.0109,-23.7500,-22.7500,18.8750,229.7500,18.2500,-156.8750,0
583.955,9.4403,2.5618,0.8595,0.0288,0.0376,0.1364,-51.1500,17.2500,23.4000,9.6965,1.3048,1.0942,0.0997,-0.0203,0.1079,-61.9500,26.4000,-13.0500,3.0000,3.8700,-8.3000,0.0796,-0.0295,0.0153,-23.7500,-22.7500,18.8750,229.7500,18.2500,-156.9375,0
583.960,9.1985,2.2601,0.6895,0.0088,0.1228,0.1524,-51.0000,18.9000,21.4500,9.6486,0.9720,1.2761,0.1263,-0.0408,0.0946,-61.9500,26.4000,-13.0500,2.9800,3.9500,-8.2900,0.0796,-0.0295,0.0153,-23.7500,-22.7500,18.8750,229.7500,18.2500,-156.9375,0
583.965,9.1985,2.2601,0.6895,0.0088,0.1228,0.1524,-51.0000,18.9000,21.4500,9.6486,0.9720,1.2761,0.1263,-0.0408,0.0946,-61.9500,25.9500,-13.8000,2.9800,3.9500,-8.2900,0.0960,-0.0284,0.0240,-23.7500,-22.7500,18.8750,229.7500,18.2500,-156.9375,0
583.970,9.9335,1.9537,0.6057,0.0845,0.1777,0.2641,-53.4000,17.5500,22.8000,9.7229,0.4980,1.0750,0.1244,-0.0352,0.1082,-61.9500,25.9500,-13.8000,3.0500,3.8400,-8.3300,0.0960,-0.0284,0.0240,-23.7500,-22.7500,18.8750,229.7500,18.2500,-157.0000,0
583.980,11.1785,3.2609,2.3750,0.4682,-0.2670,0.3464,-51.4500,16.5000,23.1000,9.8138,0.6153,1.0654,0.1013,-0.0474,0.1194,-61.6500,25.5000,-13.5000,3.0700,3.5400,-8.4000,0.1058,-0.0327,0.0284,-23.7500,-22.7500,18.8750,229.7500,18.2500,-157.0000,0
583.986,11.1785,3.2609,2.3750,0.4682,-0.2670,0.3464,-51.7500,19.2000,22.5000,9.7181,0.6464,1.1349,0.1013,-0.0474,0.1194,-62.2500,27.0000,-12.1500,3.0200,3.5300,-8.4100,0.1047,-0.0284,0.0196,-23.7500,-22.7500,18.8750,229.7500,18.2500,-157.0625,0
583.991,9.3015,3.3447,7.7524,2.1122,-1.2590,0.1402,-51.7500,19.2000,22.5000,9.7181,0.6464,1.1349,0.0648,-0.0624,0.1127,-62.2500,27.0000,-12.1500,3.0200,3.5300,-8.4100,0.1047,-0.0284,0.0196,-23.7500,-22.7500,18.8750,229.7500,18.2500,-157.0625,0
583.995,9.3015,3.3447,7.7524,2.1122,-1.2590,0.1402,-51.0000,20.4000,22.9500,9.9000,0.0814,1.2210,0.0648,-0.0624,0.1127,-62.2500,27.0000,-12.1500,3.0600,3.5000,-8.3900,0.0971,-0.0251,0.0131,-24.1875,-23.5625,18.8750,229.7500,18.1875,-157.1250,0
584.000,8.5617,4.5514,2.2601,1.2993,-0.7999,0.4413,-51.0000,20.4000,22.9500,9.9000,0.0814,1.2210,0.1319,-0.0786,0.0949,-62.2500,27.0000,-12.1500,3.0600,3.5000,-8.3900,0.0971,-0.0251,0.0131,-24.1875,-23.5625,18.8750,229.7500,18.1875,-157.1250,0
584.005,8.5617,4.5514,2.2601,1.2993,-0.7999,0.4413,-51.0000,20.4000,22.9500,9.6917,0.3687,1.2378,0.1319,-0.0786,0.0949,-62.5500,25.3500,-14.4000,3.0600,3.5000,-8.3900,0.0894,-0.0262,0.0065,-24.1875,-23.5625,18.8750,229.7500,18.1875,-157.1875,0
584.010,9.1171,1.0989,-8.9998,-0.7378,0.4522,0.3291,-51.0000,20.4000,22.9500,9.6917,0.3687,1.2378,0.0274,-0.1156,0.0882,-62.5500,25.3500,-14.4000,2.9900,3.4200,-8.5100,0.0894,-0.0262,0.0065,-24.1875,-23.5625,18.8750,229.7500,18.1875,-157.1875,0
584.019,8.6048,0.8571,-5.5498,-0.9731,0.2689,0.3416,-51.0000,18.9000,21.4500,9.7779,1.3767,0.9433,-0.0805,-0.1346,0.1053,-62.5500,25.3500,-14.4000,2.9600,3.3800,-8.5500,0.0654,-0.0229,0.0055,-24.1875,-23.5625,18.8750,229.7500,18.1875,-157.2500,0
584.025,8.6048,0.8571,-5.5498,-0.9731,0.2689,0.3416,-50.8500,18.0000,23.1000,9.8545,2.5139,0.7422,0.0312,-0.1620,0.1364,-62.5500,28.0500,-12.9000,2.9600,3.3800,-8.5500,0.0404,-0.0087,0.0098,-24.1875,-23.5625,18.8750,229.7500,18.1875,-157.2500,0
584.030,5.4827,2.0662,2.3727,-0.1847,0.4477,0.2963,-50.8500,18.0000,23.1000,9.8545,2.5139,0.7422,0.0312,-0.1620,0.1364,-62.5500,28.0500,-12.9000,3.0400,3.6000,-8.4100,0.0404,-0.0087,0.0098,-24.1875,-23.5625,18.8750,229.7500,18.1875,-157.2500,0
584.040,7.4484,2.2601,2.7366,0.2670,0.9257,0.3533,-50.1000,17.5500,23.4000,9.3685,2.1524,0.5914,0.2521,-0.1244,0.1239,-61.9500,24.7500,-13.0500,3.0100,3.9600,-8.3000,0.0393,-0.0022,0.0022,-24.1875,-23.5625,18.8750,229.7500,18.1875,-157.2500,0
584.045,7.4484,2.2601,2.7366,0.2670,0.9257,0.3533,-48.6000,17.5500,23.1000,9.3039,0.9625,0.3304,0.4085,-0.0786,0.1037,-62.7000,26.4000,-13.8000,3.0100,3.9600,-8.3000,0.0393,-0.0022,0.0022,-23.5000,-22.5000,19.6875,229.7500,18.1875,-157.3125,0
584.050,11.2192,2.6264,1.2546,0.6566,0.5836,0.2830,-48.6000,17.5500,23.1000,9.3039,0.9625,0.3304,0.4085,-0.0786,0.1037,-62.7000,26.4000,-13.8000,3.0500,3.9600,-8.3100,0.0513,-0.0022,-0.0055,-23.5000,-22.5000,19.6875,229.7500,18.1875,-157.3125,0
584.055,11.2192,2.6264,1.2546,0.6566,0.5836,0.2830,-48.6000,17.5500,23.1000,9.7492,-0.0263,0.2394,0.3781,-0.0632,0.1210,-62.2500,27.7500,-14.4000,3.0500,3.9600,-8.3100,0.0513,-0.0022,-0.0055,-23.5000,-22.5000,19.6875,229.7500,18.1875,-157.3125,0
584.060,10.6279,2.2577,1.3527,0.6206,0.3150,0.2358,-48.6000,17.5500,23.1000,9.7492,-0.0263,0.2394,0.3781,-0.0632,0.1210,-62.2500,27.7500,-14.4000,3.0100,3.6500,-8.4100,0.0753,-0.0022,-0.0033,-23.5000,-22.5000,19.6875,229.7500,18.1875,-157.3750,0
584.070,10.1969,1.1708,0.4980,0.3600,0.4298,0.2057,-48.6000,17.5500,23.1000,9.7995,-0.0790,0.3112,0.2710,-0.0933,0.1399,-62.4000,27.4500,-13.5000,2.9800,3.3200,-8.5200,0.0818,-0.0011,0.0055,-23.5000,-22.5000,19.6875,229.7500,18.1875,-157.3750,0
584.079,10.3501,-0.3041,-0.1796,0.0989,0.2555,0.1069,-49.3500,18.7500,22.3500,9.5409,0.2873,0.3855,0.1452,-0.0946,0.1439,-62.7000,26.7000,-11.5500,3.0000,3.3500,-8.4700,0.0676,0.0055,0.0109,-23.5000,-22.5000,19.6875,229.7500,18.1875,-157.4375,0
584.090,10.7452,-0.6393,0.1293,-0.1268,0.2550,0.1114,-47.5500,19.5000,22.8000,9.4140,0.7470,0.3998,0.0226,-0.1077,0.1300,-62.7000,26.7000,-11.5500,3.0700,3.4100,-8.4400,0.0491,0.0131,0.0098,-23.5000,-22.5000,19.6875,229.6875,18.1875,-157.4375,0
584.095,10.1921,0.6752,0.4860,-0.2289,-0.0613,0.0829,-46.0500,18.7500,23.1000,9.4691,1.1325,0.2945,-0.0280,-0.0903,0.1300,-61.8000,26.5500,-13.6500,3.0700,3.4100,-8.4400,0.0491,0.0131,0.0098,-23.5000,-22.5000,19.6875,229.6875,18.1875,-157.5000,0
584.100,10.1921,0.6752,0.4860,-0.2289,-0.0613,0.0829,-46.0500,18.7500,23.1000,9.4691,1.1325,0.2945,-0.0280,-0.0903,0.1300,-61.8000,26.5500,-13.6500,3.0800,3.5600,-8.4100,0.0338,0.0109,0.0076,-23.5000,-22.5000,18.5000,229.6875,18.1875,-157.5000,0
584.104,9.6223,2.4157,0.1532,-0.3712,-0.0999,0.1218,-46.6500,19.9500,25.0500,9.6822,1.2737,0.3208,0.0192,-0.0674,0.1340,-61.8000,26.5500,-13.6500,3.0800,3.5600,-8.4100,0.0338,0.0109,0.0076,-23.5000,-22.5000,18.5000,229.6875,18.1875,-157.5000,0
584.110,9.6223,2.4157,0.1532,-0.3712,-0.0999,0.1218,-46.6500,19.9500,25.0500,9.6822,1.2737,0.3208,0.0192,-0.0674,0.1340,-63.1500,25.2000,-15.3000,3.0500,3.6500,-8.3600,0.0338,0.0044,0.0044,-23.5000,-22.5000,18.5000,229.6875,18.1875,-157.5000,0
584.116,9.6462,4.3479,-0.1987,-0.3856,-0.1921,0.2270,-46.6500,19.9500,25.0500,9.7755,1.0798,0.3950,0.0226,-0.0685,0.1439,-63.9000,26.7000,-13.8000,3.0400,3.6100,-8.3900,0.0349,-0.0022,0.0011,-23.5000,-22.5000,18.5000,229.6875,18.1875,-157.5000,0
584.121,9.6462,4.3479,-0.1987,-0.3856,-0.1921,0.2270,-46.6500,19.9500,25.0500,9.6438,1.1372,0.3663,-0.0029,-0.0762,0.1711,-63.9000,26.7000,-13.8000,3.0400,3.6100,-8.3900,0.0349,-0.0022,0.0011,-23.5000,-22.5000,18.5000,229.6875,18.1875,-157.5000,0
584.130,8.9663,5.6910,0.3879,-0.3006,-0.3613,0.3357,-46.5000,19.0500,24.9000,9.5241,1.3408,0.2490,-0.0029,-0.0762,0.1711,-63.0000,26.5500,-12.9000,3.0200,3.5900,-8.4200,0.0371,-0.0065,0.0011,-23.5000,-22.5000,18.5000,229.6875,18.1875,-157.5000,0
584.138,8.8657,5.0973,0.7566,-0.1207,-0.3560,0.2856,-47.7000,20.4000,25.0500,9.5241,1.3408,0.2490,-0.0682,-0.0624,0.1966,-63.9000,26.4000,-14.8500,3.0100,3.7000,-8.3600,0.0371,-0.0022,0.0033,-23.5000,-22.5000,18.5000,229.6875,18.1875,-157.5625,0
584.143,8.6646,4.0486,0.3089,0.0437,-0.1900,0.2318,-45.9000,18.4500,25.8000,9.2608,1.6879,0.3136,-0.0552,-0.0450,0.2169,-63.9000,26.4000,-14.8500,3.0100,3.7000,-8.3600,0.0371,-0.0022,0.0033,-23.5000,-22.5000,18.5000,229.6875,18.1875,-157.5625,0
584.148,8.6646,4.0486,0.3089,0.0437,-0.1900,0.2318,-45.9000,18.4500,25.8000,9.2608,1.6879,0.3136,-0.0552,-0.0450,0.2169,-62.2500,26.1000,-15.1500,3.0200,3.8300,-8.3200,0.0382,0.0000,0.0033,-23.0625,-22.5000,18.0625,229.6875,18.1875,-157.5625,0
584.153,9.1746,3.1867,0.1652,0.2507,-0.1335,0.2441,-47.4000,17.4000,24.7500,9.3589,1.8866,0.3903,0.0266,-0.0341,0.2169,-62.2500,26.1000,-15.1500,3.0200,3.8300,-8.3200,0.0382,0.0000,0.0033,-23.0625,-22.5000,18.0625,229.6875,18.1875,-157.5625,0
584.158,9.1746,3.1867,0.1652,0.2507,-0.1335,0.2441,-47.4000,17.4000,24.7500,9.3589,1.8866,0.3903,0.0266,-0.0341,0.2169,-62.2500,26.1000,-15.1500,3.0500,3.9200,-8.3100,0.0567,0.0000,0.0044,-23.0625,-22.5000,18.0625,229.6875,18.1875,-157.5625,0
584.162,9.2871,3.0526,0.3017,0.3978,-0.1236,0.2529,-47.4000,17.4000,24.7500,9.5074,2.0111,0.3376,0.1282,-0.0147,0.2422,-62.2500,26.1000,-15.1500,3.0500,3.9200,-8.3100,0.0567,0.0000,0.0044,-23.0625,-22.5000,18.0625,229.6875,18.1875,-157.5625,0
584.169,9.2871,3.0526,0.3017,0.3978,-0.1236,0.2529,-47.4000,17.4000,24.7500,9.6534,1.9896,0.3807,0.2601,0.0064,0.2651,-62.2500,24.1500,-14.4000,3.0400,3.8100,-8.3500,0.0873,-0.0098,0.0044,-23.0625,-22.5000,18.0625,229.6875,18.1875,-157.5625,0
584.174,9.5648,3.0885,0.2370,0.3328,-0.0810,0.2502,-47.4000,17.4000,24.7500,9.6534,1.9896,0.3807,0.2601,0.0064,0.2651,-62.2500,24.1500,-14.4000,3.0400,3.8100,-8.3500,0.1156,-0.0164,0.0065,-23.0625,-22.5000,18.0625,229.6875,18.1875,-157.6250,0
584.180,9.5648,3.0885,0.2370,0.3328,-0.0810,0.2502,-47.4000,17.4000,24.7500,9.6630,1.5945,0.5195,0.3589,0.0285,0.2753,-62.2500,24.1500,-14.4000,3.0400,3.8100,-8.3700,0.1156,-0.0164,0.0065,-23.0625,-22.5000,18.0625,229.6875,18.1875,-157.6250,0
584.189,9.0166,3.0358,0.2945,0.3123,0.0373,0.2390,-46.9500,19.6500,26.4000,9.6917,1.0415,0.3328,0.3861,0.0386,0.2867,-63.9000,25.2000,-13.5000,3.0300,3.7500,-8.3900,0.1418,-0.0131,0.0109,-23.0625,-22.5000,18.0625,229.6250,18.1875,-157.6875,0
584.193,9.3541,2.7749,0.4166,0.2899,0.1021,0.2260,-46.0500,19.5000,25.2000,9.6917,1.0415,0.3328,0.3861,0.0386,0.2867,-63.9000,25.2000,-13.5000,3.0300,3.7500,-8.3900,0.1418,-0.0131,0.0109,-23.0625,-22.5000,18.0625,229.6250,18.1875,-157.6875,0
584.198,9.3541,2.7749,0.4166,0.2899,0.1021,0.2260,-46.0500,19.5000,25.2000,9.6869,0.6345,0.6416,0.3818,0.0456,0.2987,-63.1500,25.9500,-14.2500,3.0400,3.6800,-8.4000,0.1505,-0.0098,0.0142,-23.7500,-23.1875,18.8750,229.6250,18.1875,-157.7500,0
584.203,9.5648,2.5043,0.4166,0.3384,0.1274,0.2268,-46.6500,17.4000,24.0000,9.6869,0.6345,0.6416,0.3818,0.0456,0.2987,-63.1500,25.9500,-14.2500,3.0400,3.6800,-8.4000,0.1505,-0.0098,0.0142,-23.7500,-23.1875,18.8750,229.6250,18.1875,-157.7500,0
584.208,9.5648,2.5043,0.4166,0.3384,0.1274,0.2268,-46.6500,17.4000,24.0000,9.8090,0.6584,0.7733,0.2641,0.0386,0.3227,-63.9000,25.9500,-14.8500,2.9900,3.3700,-8.5400,0.1516,-0.0109,0.0185,-23.7500,-23.1875,18.8750,229.6250,18.1875,-157.8125,0
584.213,9.4643,2.3224,0.8404,0.3464,0.0293,0.2228,-45.9000,17.7000,23.2500,9.8090,0.6584,0.7733,0.2641,0.0386,0.3227,-63.9000,25.9500,-14.8500,2.9900,3.3700,-8.5400,0.1516,-0.0109,0.0185,-23.7500,-23.1875,18.8750,229.6250,18.1875,-157.8750,0
584.220,9.4643,2.3224,0.8404,0.3192,-0.0573,0.2350,-45.9000,17.7000,23.2500,9.9000,0.8045,0.9337,0.1921,0.0333,0.3539,-63.0000,27.7500,-13.9500,2.9800,3.3200,-8.6200,0.1440,-0.0087,0.0240,-23.7500,-23.1875,18.8750,229.6250,18.1875,-158.0000,0
584.230,9.6055,2.1308,1.3767,0.2697,-0.1769,0.2238,-45.9000,17.7000,23.2500,9.7923,0.8595,1.0678,0.1500,0.0229,0.3501,-63.9000,25.2000,-14.5500,2.9900,3.5000,-8.5600,0.1156,0.0022,0.0316,-23.7500,-23.1875,18.8750,229.6250,18.1875,-158.0000,0
584.240,9.4571,1.7166,1.3479,0.2761,-0.2092,0.2356,-46.9500,16.9500,22.9500,9.7061,0.5746,1.0247,0.1378,0.0059,0.3419,-63.0000,26.5500,-14.4000,3.0100,3.6500,-8.4500,0.1047,0.0098,0.0393,-23.7500,-23.1875,18.8750,229.6250,18.1875,-158.0625,0
584.245,9.4571,1.7166,1.3479,0.2761,-0.2092,0.2356,-44.5500,16.8000,23.8500,9.6869,0.2107,1.0415,0.1378,0.0059,0.3419,-63.0000,26.5500,-14.4000,3.0100,3.6500,-8.4500,0.1047,0.0098,0.0393,-23.7500,-23.1875,18.8750,229.6250,18.1875,-158.0625,0
584.250,9.4020,1.5036,1.0918,0.3371,-0.1831,0.2459,-44.5500,16.8000,23.8500,9.6869,0.2107,1.0415,0.1306,-0.0029,0.3395,-63.0000,26.5500,-14.4000,3.0600,3.6500,-8.3900,0.1091,0.0098,0.0469,-23.5000,-21.7500,18.5000,229.6875,18.2500,-158.1250,0
584.255,9.4020,1.5036,1.0918,0.3371,-0.1831,0.2459,-45.3000,16.8000,24.1500,9.7755,0.0263,1.0080,0.1306,-0.0029,0.3395,-63.0000,26.5500,-14.4000,3.0600,3.6500,-8.3900,0.1091,0.0098,0.0469,-23.5000,-21.7500,18.5000,229.6875,18.2500,-158.1250,0
584.260,9.5768,1.5179,0.6536,0.4538,-0.1588,0.2577,-46.9500,17.7000,24.0000,9.7755,0.0263,1.0080,0.1162,-0.0250,0.3499,-62.5500,25.3500,-14.7000,3.1000,3.4700,-8.4400,0.1244,0.0022,0.0545,-23.5000,-21.7500,18.5000,229.6875,18.2500,-158.1875,0
584.264,9.5768,1.5179,0.6536,0.4538,-0.1588,0.2577,-46.9500,17.7000,24.0000,9.8234,-0.1245,0.9074,0.1162,-0.0250,0.3499,-62.5500,25.3500,-14.7000,3.1000,3.4700,-8.4400,0.1342,-0.0011,0.0524,-23.5000,-21.7500,18.5000,229.6875,18.2500,-158.2500,0
584.271,9.7875,1.4198,0.2993,0.5985,-0.2132,0.2539,-46.9500,17.7000,24.0000,9.8234,-0.1245,0.9074,0.1172,-0.0408,0.3488,-63.4500,25.9500,-14.2500,3.0700,3.3300,-8.4700,0.1342,-0.0011,0.0524,-23.5000,-21.7500,18.5000,229.6875,18.2500,-158.2500,0
584.280,9.8426,1.4174,-0.0718,0.6536,-0.1423,0.2710,-46.9500,17.7000,24.0000,9.8019,-0.0814,0.7207,0.1183,-0.0458,0.3456,-63.3000,25.8000,-15.1500,3.0600,3.1300,-8.5600,0.1331,-0.0055,0.0480,-23.5000,-21.7500,18.5000,229.7500,18.2500,-158.3750,0
584.289,9.5648,1.5395,-0.1532,0.7485,-0.1663,0.2798,-46.9500,17.7000,24.0000,9.7300,0.0120,0.6009,0.1247,-0.0474,0.3429,-65.2500,25.8000,-15.1500,3.0600,3.0600,-8.5500,0.1134,-0.0022,0.0458,-23.5000,-21.7500,18.5000,229.7500,18.2500,-158.4375,0
584.293,9.5648,1.5395,-0.1532,0.7485,-0.1663,0.2798,-45.1500,16.9500,24.0000,9.7037,0.0790,0.5028,0.1247,-0.0474,0.3429,-65.2500,25.8000,-15.1500,3.0600,3.0600,-8.5500,0.1134,-0.0022,0.0458,-23.5000,-21.7500,18.5000,229.7500,18.2500,-158.4375,0
584.298,9.6486,1.5634,-0.0742,0.7456,-0.0925,0.2787,-45.1500,16.9500,24.0000,9.7037,0.0790,0.5028,0.1367,-0.0200,0.3296,-63.3000,25.8000,-14.7000,3.0800,3.0600,-8.5300,0.0894,0.0044,0.0404,-23.0625,-22.5000,18.5000,229.7500,18.2500,-158.5000,0
584.303,9.6486,1.5634,-0.0742,0.7456,-0.0925,0.2787,-45.3000,17.5500,24.4500,9.6989,0.2011,0.4094,0.1367,-0.0200,0.3296,-63.3000,25.8000,-14.7000,3.0800,3.0600,-8.5300,0.0894,0.0044,0.0404,-23.0625,-22.5000,18.5000,229.7500,18.2500,-158.5000,0
584.308,9.2201,1.4772,-0.1413,0.7727,-0.1386,0.2763,-45.3000,17.5500,24.4500,9.6989,0.2011,0.4094,0.1375,-0.0229,0.3275,-64.0500,26.1000,-13.9500,3.0400,3.1500,-8.5200,0.0676,0.0076,0.0360,-23.0625,-22.5000,18.5000,229.7500,18.3125,-158.5000,0
584.313,9.2201,1.4772,-0.1413,0.7727,-0.1386,0.2763,-44.2500,17.5500,23.4000,9.7229,0.1939,0.3472,0.1375,-0.0229,0.3275,-64.0500,26.1000,-13.9500,3.0400,3.1500,-8.5200,0.0676,0.0076,0.0360,-23.0625,-22.5000,18.5000,229.7500,18.3125,-158.5625,0
584.320,9.5146,1.4222,-0.0120,0.6867,-0.1444,0.2574,-45.0000,16.8000,24.4500,9.7229,0.1939,0.3472,0.1154,-0.0037,0.3243,-64.0500,26.1000,-13.9500,3.0500,3.1800,-8.5100,0.0491,0.0109,0.0371,-23.0625,-22.5000,18.5000,229.8125,18.3125,-158.5625,0
584.330,9.2775,1.4269,-0.3208,0.5676,-0.1458,0.2518,-45.0000,16.8000,24.4500,9.6654,0.2514,0.3065,0.0906,0.0037,0.3357,-63.4500,27.1500,-13.8000,3.0400,3.2100,-8.5100,0.0305,0.0164,0.0338,-23.0625,-22.5000,18.5000,229.8125,18.3125,-158.5625,0
584.335,9.2775,1.4269,-0.3208,0.5676,-0.1458,0.2518,-45.0000,16.8000,24.4500,9.6845,0.2394,0.2586,0.0533,0.0040,0.3427,-63.4500,27.1500,-13.8000,3.0400,3.2100,-8.5100,0.0196,0.0164,0.0382,-23.0625,-22.5000,18.5000,229.8125,18.3125,-158.5625,0
584.341,9.7181,1.7190,-0.3591,0.5801,-0.2273,0.2220,-43.6500,16.6500,22.9500,9.6367,0.2682,0.1939,0.0533,0.0040,0.3427,-63.4500,27.1500,-13.8000,3.0300,3.2600,-8.5500,0.0196,0.0164,0.0382,-23.0625,-22.5000,18.5000,229.8125,18.3125,-158.5625,0
584.346,9.7420,1.9752,-0.5028,0.3946,-0.1863,0.2009,-43.6500,16.6500,22.9500,9.6367,0.2682,0.1939,0.0181,0.0195,0.3573,-63.4500,27.1500,-13.8000,3.0500,3.2100,-8.5300,0.0109,0.0153,0.0425,-24.1875,-21.7500,18.8750,229.8125,18.3750,-158.6250,0
584.351,9.7420,1.9752,-0.5028,0.3946,-0.1863,0.2009,-43.2000,15.7500,24.9000,9.6510,0.3855,0.0742,0.0181,0.0195,0.3573,-64.0500,25.3500,-13.6500,3.0500,3.2100,-8.5300,0.0109,0.0153,0.0425,-24.1875,-21.7500,18.8750,229.8125,18.3750,-158.6250,0
584.356,9.0860,2.0063,-0.6488,0.3392,-0.2923,0.1692,-43.2000,15.7500,24.9000,9.6510,0.3855,0.0742,-0.0274,0.0240,0.3789,-64.0500,25.3500,-13.6500,3.0500,3.2100,-8.5300,0.0000,0.0175,0.0491,-24.1875,-21.7500,18.8750,229.8750,18.3750,-158.6250,0
584.361,9.0860,2.0063,-0.6488,0.3392,-0.2923,0.1692,-42.0000,17.5500,24.9000,9.7779,0.7087,0.0120,-0.0671,0.0354,0.4013,-63.7500,26.1000,-15.1500,3.0300,3.1700,-8.5200,0.0000,0.0175,0.0491,-24.1875,-21.7500,18.8750,229.8750,18.3750,-158.6250,0
584.366,9.5577,2.3894,-0.6057,0.4247,-0.3688,0.1316,-42.0000,17.5500,24.9000,9.7779,0.7087,0.0120,-0.0671,0.0354,0.4013,-63.7500,26.1000,-15.1500,3.0300,3.1700,-8.5200,-0.0109,0.0142,0.0545,-24.1875,-21.7500,18.8750,229.8750,18.3750,-158.6250,0
584.371,9.5577,2.3894,-0.6057,0.4247,-0.3688,0.1316,-42.0000,17.5500,24.1500,9.7995,1.0199,0.0766,-0.0775,0.0458,0.4253,-64.8000,25.3500,-13.6500,3.0500,3.1100,-8.5900,-0.0109,0.0142,0.0545,-24.1875,-21.7500,18.8750,229.8750,18.3750,-158.6250,0
584.380,9.8234,2.5594,-0.6416,0.3208,-0.2851,0.1015,-42.0000,17.5500,24.1500,9.7923,1.0726,0.1700,-0.0775,0.0458,0.4253,-63.4500,25.5000,-16.0500,3.0100,3.4900,-8.5600,-0.0327,0.0229,0.0600,-24.1875,-21.7500,18.8750,229.9375,18.4375,-158.6250,0
584.385,9.5193,2.5067,-0.5962,0.4394,-0.3515,0.0496,-42.0000,17.5500,24.1500,9.7923,1.0726,0.1700,-0.0421,0.0626,0.4354,-63.4500,25.5000,-16.0500,3.0100,3.4900,-8.5600,-0.0425,0.0371,0.0698,-24.1875,-21.7500,18.8750,229.9375,18.4375,-158.6250,0
584.391,9.5193,2.5067,-0.5962,0.4394,-0.3515,0.0496,-42.0000,17.5500,24.1500,9.7444,1.0199,0.0694,-0.0085,0.0813,0.4562,-63.0000,25.3500,-14.4000,3.0200,3.6400,-8.5200,-0.0425,0.0371,0.0698,-24.1875,-21.7500,18.8750,229.9375,18.4375,-158.6250,0
584.396,9.3158,2.6695,-0.4334,0.4922,-0.3408,0.0000,-42.0000,17.5500,24.1500,9.7444,1.0199,0.0694,-0.0085,0.0813,0.4562,-63.0000,25.3500,-14.4000,3.0200,3.6400,-8.5200,-0.0425,0.0371,0.0698,-24.1875,-22.1875,18.8750,230.0000,18.5000,-158.6250,0
584.401,9.3158,2.6695,-0.4334,0.4922,-0.3408,0.0000,-44.1000,16.2000,23.5500,9.8378,0.9984,0.2203,0.0354,0.1124,0.4636,-63.7500,25.8000,-16.6500,2.8300,3.6800,-8.5700,-0.0284,0.0415,0.0807,-24.1875,-22.1875,18.8750,230.0000,18.5000,-158.6250,0
584.406,9.7181,2.7869,-0.3448,0.5790,-0.3200,-0.0400,-44.1000,16.2000,23.5500,9.8378,0.9984,0.2203,0.0354,0.1124,0.4636,-63.7500,25.8000,-16.6500,2.8300,3.6800,-8.5700,-0.0284,0.0415,0.0807,-24.1875,-22.1875,18.8750,230.0625,18.5000,-158.6250,0
584.411,9.7181,2.7869,-0.3448,0.5790,-0.3200,-0.0400,-42.4500,15.0000,23.4000,10.0006,0.9625,0.3735,0.0981,0.1306,0.4951,-63.7500,25.8000,-16.6500,2.9800,3.4800,-8.6300,0.0109,0.0545,0.0873,-24.1875,-22.1875,18.8750,230.0625,18.5000,-158.6250,0
584.417,9.5337,2.7390,-0.4381,0.5774,-0.2793,-0.0722,-42.4500,15.0000,23.4000,10.0006,0.9625,0.3735,0.0981,0.1306,0.4951,-63.7500,25.8000,-16.6500,2.9700,3.4000,-8.6800,0.0447,0.0764,0.0960,-24.1875,-22.1875,18.8750,230.0625,18.5625,-158.6250,0
584.422,9.5337,2.7390,-0.4381,0.5774,-0.2793,-0.0722,-41.8500,16.9500,22.2000,10.1203,0.8140,0.6153,0.1511,0.1548,0.5337,-63.7500,25.0500,-15.4500,2.9700,3.4000,-8.6800,0.0447,0.0764,0.0960,-24.1875,-22.1875,18.8750,230.1250,18.6875,-158.6875,0
584.431,9.9671,2.9401,-0.4549,0.7802,-0.3291,-0.1156,-41.8500,15.4500,24.7500,10.3908,0.7159,1.0199,0.1857,0.1721,0.5729,-65.5500,25.3500,-14.4000,2.9100,3.3200,-8.7300,0.0742,0.1080,0.1091,-24.1875,-22.1875,18.8750,230.1250,18.6875,-158.6875,0
584.440,10.1299,3.1244,-0.5531,0.7669,-0.1857,-0.1143,-41.8500,15.4500,24.7500,10.6207,0.7757,1.1277,0.1692,0.1990,0.6323,-65.2500,26.1000,-14.4000,2.9500,3.1600,-8.7800,0.0938,0.1527,0.1189,-24.1875,-22.1875,18.8750,230.1875,18.7500,-158.7500,0
584.445,9.9886,3.2274,-0.6129,1.0539,-0.2891,-0.1452,-41.8500,15.4500,24.7500,10.6207,0.7757,1.1277,0.1692,0.1990,0.6323,-65.2500,26.1000,-14.4000,2.9500,3.1600,-8.7800,0.0938,0.1527,0.1189,-24.1875,-22.1875,18.8750,230.1875,18.7500,-158.7500,0
584.450,9.9886,3.2274,-0.6129,1.0539,-0.2891,-0.1452,-42.6000,16.2000,22.9500,10.6494,0.5914,0.9385,0.1500,0.2105,0.6928,-64.8000,24.6000,-14.4000,2.8200,3.2900,-8.7900,0.0938,0.2018,0.1331,-23.7500,-22.5000,19.2500,230.2500,18.8750,-158.8125,0
584.456,9.7731,3.3088,-0.6201,1.1922,-0.1772,-0.1609,-42.6000,16.2000,22.9500,10.6494,0.5914,0.9385,0.1500,0.2105,0.6928,-64.8000,24.6000,-14.4000,2.8200,3.2900,-8.7900,0.0938,0.2018,0.1331,-23.7500,-22.5000,19.2500,230.2500,18.8750,-158.8125,0
584.461,9.7731,3.3088,-0.6201,1.1922,-0.1772,-0.1609,-42.3000,15.1500,21.1500,10.6925,0.3998,0.8021,0.1098,0.2292,0.7522,-64.8000,23.4000,-15.1500,3.0900,3.3100,-8.8200,0.1047,0.2465,0.1364,-23.7500,-22.5000,19.2500,230.2500,19.0625,-158.8750,0
584.466,9.9407,3.2609,-0.7135,1.2878,-0.1140,-0.1671,-42.3000,15.1500,21.1500,10.5632,0.1676,0.4525,0.1098,0.2292,0.7522,-64.8000,23.4000,-15.1500,3.0900,3.3100,-8.8200,0.1309,0.2934,0.1320,-23.7500,-22.5000,19.2500,230.3125,19.2500,-159.0000,0
584.471,9.9407,3.2609,-0.7135,1.2878,-0.1140,-0.1671,-41.8500,18.1500,22.5000,10.5632,0.1676,0.4525,0.0663,0.2228,0.7805,-66.1500,23.2500,-16.0500,3.0700,3.4800,-8.7700,0.1309,0.2934,0.1320,-23.7500,-22.5000,19.2500,230.3125,19.4375,-159.0625,0
584.480,9.9120,3.1987,-0.6249,1.3686,-0.0733,-0.1724,-42.3000,16.6500,22.5000,10.3813,0.0575,0.1748,0.0456,0.2036,0.7749,-66.1500,23.2500,-16.0500,3.1600,3.7700,-8.6100,0.1734,0.3414,0.1396,-23.7500,-22.5000,19.2500,230.3750,19.6875,-159.1875,0
584.490,9.9096,3.2753,-0.3735,1.4597,-0.0885,-0.1668,-42.9000,16.6500,21.4500,10.3430,0.0646,-0.0192,0.0392,0.1969,0.7629,-66.0000,25.0500,-14.7000,3.2400,3.8300,-8.5700,0.2214,0.3982,0.1789,-23.7500,-22.5000,19.2500,230.3750,19.6875,-159.1875,0
584.495,9.9575,3.1005,-0.1700,1.5324,-0.0805,-0.1623,-42.9000,16.6500,21.4500,10.1897,0.2059,-0.4477,0.0392,0.1969,0.7629,-66.0000,25.0500,-14.7000,3.2400,3.8300,-8.5700,0.2214,0.3982,0.1789,-23.7500,-22.5000,19.2500,230.4375,19.9375,-159.3750,0
584.500,9.9575,3.1005,-0.1700,1.5324,-0.0805,-0.1623,-42.9000,16.6500,21.4500,10.1897,0.2059,-0.4477,0.0216,0.2523,0.7568,-66.0000,25.0500,-14.7000,3.3000,3.7000,-8.5600,0.2749,0.4472,0.2236,-24.5625,-21.7500,17.2500,230.4375,19.9375,-159.3750,0
584.505,9.8497,2.8994,-0.2035,1.5996,-0.0786,-0.1655,-42.9000,16.6500,21.4500,10.1801,0.4142,-0.3280,0.0328,0.2590,0.7448,-66.0000,25.0500,-14.7000,3.3000,3.7000,-8.5600,0.2749,0.4472,0.2236,-24.5625,-21.7500,17.2500,230.5000,20.2500,-159.5625,0
584.510,9.7564,2.7988,-0.2322,1.6931,-0.0970,-0.1612,-41.8500,16.6500,22.2000,10.1801,0.4142,-0.3280,0.0328,0.2590,0.7448,-65.4000,24.0000,-14.8500,3.4400,3.5900,-9.0500,0.2989,0.4789,0.2814,-24.5625,-21.7500,17.2500,230.5000,20.2500,-159.5625,0
584.515,9.7564,2.7988,-0.2322,1.6931,-0.0970,-0.1612,-41.8500,16.6500,22.2000,10.3789,0.9050,-0.2753,0.1460,0.2395,0.7512,-65.4000,24.0000,-14.8500,3.4400,3.5900,-9.0500,0.3272,0.4287,0.3665,-24.5625,-21.7500,17.2500,230.6250,20.5625,-159.7500,0
584.521,9.7588,2.8156,-0.5626,1.7637,-0.1220,-0.1561,-42.3000,18.9000,20.4000,10.3789,0.9050,-0.2753,0.1460,0.2395,0.7512,-66.1500,24.0000,-14.2500,3.2600,3.2900,-8.8500,0.3272,0.4287,0.3665,-24.5625,-21.7500,17.2500,230.8125,20.8125,-160.0000,0
584.531,9.9335,2.8443,-1.0080,1.8159,-0.1474,-0.1529,-41.7000,17.5500,19.9500,10.5848,1.0175,-0.2251,0.2915,0.2238,0.7911,-65.5500,24.6000,-15.4500,3.3000,3.3000,-9.0500,0.3000,0.3894,0.4614,-24.5625,-21.7500,17.2500,230.8125,20.8125,-160.0000,0
584.540,9.9503,2.8970,-1.2258,1.8159,-0.1636,-0.1503,-42.3000,18.9000,21.4500,10.6135,1.0798,-0.7135,0.4077,0.2140,0.8231,-66.0000,23.8500,-14.4000,3.8300,3.7300,-9.1200,0.3098,0.3392,0.5203,-24.5625,-21.7500,17.2500,231.0000,21.1250,-160.2500,0
584.545,9.9503,2.8970,-1.2258,1.8159,-0.1636,-0.1503,-42.3000,18.9000,21.4500,9.9910,0.6608,-0.1101,0.5367,0.2582,0.8250,-66.0000,23.8500,-14.4000,3.8300,3.7300,-9.1200,0.3098,0.3392,0.5203,-24.5625,-21.7500,17.2500,231.3125,21.3125,-160.5625,0
584.551,9.9910,2.8108,-1.5083,1.7682,-0.1700,-0.1575,-42.3000,18.9000,21.4500,9.9910,0.6608,-0.1101,0.5367,0.2582,0.8250,-67.3500,24.4500,-15.6000,4.6700,4.3700,-8.7600,0.3731,0.1942,0.5749,-25.0000,-21.7500,18.5000,231.3125,21.3125,-160.5625,0
584.555,9.9910,2.8108,-1.5083,1.7682,-0.1700,-0.1575,-42.4500,16.5000,18.7500,9.8019,0.0982,0.0455,0.6161,0.2750,0.8239,-67.3500,24.4500,-15.6000,4.6700,4.3700,-8.7600,0.3731,0.1942,0.5749,-25.0000,-21.7500,18.5000,231.3125,21.3125,-160.5625,0
584.560,9.8306,2.5762,-1.7071,1.7139,-0.1820,-0.1737,-42.4500,16.5000,18.7500,9.8019,0.0982,0.0455,0.6161,0.2750,0.8239,-67.2000,24.1500,-15.1500,3.4400,3.5400,-9.7700,0.3720,0.2640,0.6981,-25.0000,-21.7500,18.5000,231.6250,21.5625,-160.8750,0
584.565,9.8306,2.5762,-1.7071,1.7139,-0.1820,-0.1737,-41.5500,16.6500,18.3000,9.7133,-0.3352,0.4238,0.5705,0.2494,0.8303,-67.2000,24.1500,-15.1500,3.4400,3.5400,-9.7700,0.4996,0.0862,0.5781,-25.0000,-21.7500,18.5000,231.8750,21.7500,-161.3125,0
584.571,9.6367,2.3798,-1.5993,1.6737,-0.1841,-0.1982,-41.5500,16.6500,18.3000,9.4236,-0.7087,1.4365,0.5705,0.2494,0.8303,-67.2000,24.1500,-15.1500,4.5000,3.3100,-8.7500,0.4996,0.0862,0.5781,-25.0000,-21.7500,18.5000,232.0625,21.8750,-161.7500,0
584.581,9.5840,1.9609,-1.3144,1.5972,-0.1551,-0.2209,-42.0000,18.0000,17.7000,9.4236,-0.7087,1.4365,0.6206,0.2403,0.8287,-67.6500,23.2500,-15.6000,4.2100,3.9400,-8.7500,0.6403,0.1233,0.4789,-25.0000,-21.7500,18.5000,232.0625,21.8750,-161.7500,0
584.591,9.5672,1.4078,-0.9601,1.5303,-0.1375,-0.2286,-40.9500,18.3000,18.4500,9.2871,-0.5626,1.7573,0.6552,0.2446,0.8466,-66.9000,23.5500,-14.5500,6.0600,4.7500,-9.0700,0.9316,0.4451,0.3120,-25.0000,-21.7500,18.5000,232.0625,22.1875,-162.3125,0
584.595,9.5672,1.4078,-0.9601,1.5303,-0.1375,-0.2286,-42.4500,19.5000,18.1500,9.2871,-0.5626,1.7573,0.6299,0.2670,0.8567,-66.9000,23.5500,-14.5500,6.0600,4.7500,-9.0700,0.9316,0.4451,0.3120,-25.0000,-21.7500,18.5000,232.0625,22.1875,-162.3125,0
584.601,9.5553,0.9002,-0.5746,1.4914,-0.1356,-0.2300,-42.4500,19.5000,18.1500,9.3781,-1.3886,2.3535,0.6299,0.2670,0.8567,-67.2000,21.4500,-15.9000,5.2800,4.3100,-10.5700,1.2817,0.5912,0.1244,-26.0000,-21.0000,18.0625,232.0000,22.5000,-163.0000,0
584.605,9.5553,0.9002,-0.5746,1.4914,-0.1356,-0.2300,-42.4500,19.5000,18.1500,9.3781,-1.3886,2.3535,0.8593,0.2761,0.8439,-67.2000,21.4500,-15.9000,5.2800,4.3100,-10.5700,1.2817,0.5912,0.1244,-26.0000,-21.0000,18.0625,232.0000,22.5000,-163.0000,0
584.610,9.5122,0.5124,-0.3567,1.4610,-0.1327,-0.2356,-42.4500,19.5000,18.1500,9.1219,-1.3240,3.0742,0.8593,0.2761,0.8439,-68.7000,24.6000,-15.9000,4.0200,0.4700,-10.4200,1.5784,0.2465,-0.0502,-26.0000,-21.0000,18.0625,231.7500,22.6250,-163.8125,0
584.615,9.5122,0.5124,-0.3567,1.4610,-0.1327,-0.2356,-42.3000,18.9000,14.7000,9.1219,-1.3240,3.0742,1.1567,0.3371,0.8521,-68.7000,24.6000,-15.9000,4.0200,0.4700,-10.4200,1.7410,0.2280,-0.1091,-26.0000,-21.0000,18.0625,231.5000,22.7500,-164.7500,0
584.621,9.3661,0.4741,-0.1365,1.4138,-0.1194,-0.2374,-42.3000,18.9000,14.7000,8.9783,-0.9170,4.4580,1.4093,0.4221,0.9169,-68.4000,23.2500,-16.0500,4.8500,4.2400,-8.4200,1.7410,0.2280,-0.1091,-26.0000,-21.0000,18.0625,231.1875,22.7500,-165.6875,0
584.631,9.5600,0.6009,-0.0790,1.3177,-0.0725,-0.2454,-40.6500,18.3000,16.3500,9.5122,3.5075,0.9290,1.4786,0.5039,1.0128,-67.3500,22.8000,-17.1000,4.0800,11.1000,-9.3300,1.6908,0.0840,-0.1276,-26.0000,-21.0000,18.0625,230.5625,22.8750,-166.3750,0
584.641,9.8306,0.8116,0.0503,1.2398,-0.0147,-0.2681,-40.2000,18.0000,15.9000,10.8314,6.1842,1.8340,0.7903,0.2878,1.1170,-67.3500,22.8000,-17.1000,4.8200,13.1100,-10.6600,1.6984,0.3916,-0.8127,-26.0000,-21.0000,18.0625,230.5625,22.8750,-166.3750,0
584.646,10.1538,1.6185,-0.0527,1.1690,0.0250,-0.3317,-41.1000,19.6500,15.4500,10.8314,6.1842,1.8340,0.7903,0.2878,1.1170,-67.3500,22.8000,-17.1000,4.8200,13.1100,-10.6600,1.6984,0.3916,-0.8127,-26.0000,-21.0000,18.0625,228.6875,23.3125,-166.8750,0
584.651,10.1538,1.6185,-0.0527,1.1690,0.0250,-0.3317,-41.1000,19.6500,15.4500,8.8873,8.2983,2.2098,2.6316,0.5865,1.1447,-68.2500,21.0000,-13.6500,0.6100,18.5500,-3.6300,2.1108,1.4432,-2.7020,-25.6875,-19.8750,20.0625,228.6875,23.3125,-166.8750,0
584.656,9.7276,2.7677,-0.4621,1.1636,0.0059,-0.4623,-41.1000,19.6500,15.4500,8.8873,8.2983,2.2098,2.6316,0.5865,1.1447,-68.2500,21.0000,-13.6500,0.6100,18.5500,-3.6300,2.1108,1.4432,-2.7020,-25.6875,-19.8750,20.0625,228.6875,23.3125,-166.8750,0
584.661,9.7276,2.7677,-0.4621,1.1636,0.0059,-0.4623,-41.1000,19.6500,15.4500,7.7931,9.3541,4.5753,3.6420,0.6989,0.9369,-68.2500,21.0000,-13.6500,2.0500,8.4600,5.5400,1.9733,2.1086,-4.6306,-25.6875,-19.8750,20.0625,225.7500,23.8750,-166.7500,0
584.668,9.0261,4.1013,-0.4357,1.2702,0.0211,-0.6342,-41.7000,18.7500,16.3500,7.8865,6.6583,3.7014,3.6420,0.6989,0.9369,-68.2500,21.0000,-13.6500,8.5500,0.5600,-5.3200,1.8664,2.2929,-4.8771,-25.6875,-19.8750,20.0625,222.6875,24.4375,-166.5000,0
584.673,9.0261,4.1013,-0.4357,1.2702,0.0211,-0.6342,-41.7000,18.7500,16.3500,7.8865,6.6583,3.7014,5.3367,0.8521,0.6989,-68.2500,20.7000,-15.4500,8.5500,0.5600,-5.3200,1.8664,2.2929,-4.8771,-25.6875,-19.8750,20.0625,219.3125,26.0000,-165.7500,0
584.681,8.3151,4.9416,0.0910,1.4258,0.1242,-0.7989,-40.5000,18.1500,15.4500,8.3103,3.2513,4.5873,6.2352,1.0016,0.4767,-69.0000,22.6500,-15.9000,8.2100,4.6200,-7.2800,1.5523,4.1561,-5.2622,-25.6875,-19.8750,20.0625,216.1875,26.5000,-165.0625,0
584.691,7.9871,5.0206,0.8667,1.5151,0.2715,-0.9052,-41.4000,19.0500,14.5500,9.3063,-0.4214,5.1116,6.5238,1.0557,0.3190,-68.2500,22.2000,-15.4500,5.7500,2.3700,-6.5000,1.5337,2.2875,-5.0724,-25.6875,-19.8750,20.0625,216.1875,26.5000,-165.0625,0
584.696,8.1906,4.6926,1.6137,1.5460,0.4586,-0.9603,-42.3000,19.9500,12.9000,9.3063,-0.4214,5.1116,6.5238,1.0557,0.3190,-68.2500,22.2000,-15.4500,5.7500,2.3700,-6.5000,1.5337,2.2875,-5.0724,-25.6875,-19.8750,20.0625,213.3125,27.0000,-164.6875,0
584.701,8.1906,4.6926,1.6137,1.5460,0.4586,-0.9603,-42.3000,19.9500,12.9000,9.5505,-3.4165,4.7477,6.0237,0.9446,0.2619,-68.7000,23.8500,-18.7500,5.5100,1.6900,-7.1900,1.6853,2.1260,-4.4440,-24.5625,-20.2500,20.0625,213.3125,27.0000,-164.6875,0
584.706,8.3031,4.0223,2.0039,1.5828,0.6430,-0.9529,-40.9500,19.5000,13.8000,9.4739,-5.4803,4.5418,6.0237,0.9446,0.2619,-68.7000,23.8500,-18.7500,5.5100,1.6900,-7.1900,1.6853,2.1260,-4.4440,-24.5625,-20.2500,20.0625,210.7500,27.6250,-164.2500,0
584.711,8.3031,4.0223,2.0039,1.5828,0.6430,-0.9529,-40.9500,19.5000,13.8000,9.4739,-5.4803,4.5418,4.9053,0.7597,0.2630,-68.7000,24.6000,-19.5000,5.1000,1.2300,-7.2700,1.5043,2.1871,-3.9335,-24.5625,-20.2500,20.0625,210.7500,27.6250,-164.2500,0
584.716,9.1075,3.1580,2.1093,1.6238,0.7256,-0.9076,-40.9500,19.5000,13.8000,9.2871,-5.9640,3.7757,4.9053,0.7597,0.2630,-68.7000,24.6000,-19.5000,5.1000,1.2300,-7.2700,1.1410,1.6962,-3.5048,-24.5625,-20.2500,20.0625,208.5625,28.0000,-163.7500,0
584.722,9.1075,3.1580,2.1093,1.6238,0.7256,-0.9076,-40.9500,19.5000,13.8000,9.2871,-5.9640,3.7757,3.4360,0.5375,0.2896,-68.7000,25.8000,-19.2000,3.5200,2.7500,-7.1400,1.1410,1.6962,-3.5048,-24.5625,-20.2500,20.0625,206.5625,28.3125,-163.1875,0
584.731,9.3230,2.6695,1.7310,1.7155,0.7285,-0.8300,-42.4500,19.8000,12.7500,9.1195,-5.1404,3.1484,2.0648,0.3216,0.3184,-68.7000,25.8000,-19.2000,3.5500,2.9200,-7.3600,0.8563,1.5403,-3.1340,-24.5625,-20.2500,20.0625,204.7500,28.5625,-162.6250,0
584.741,9.6486,2.1907,1.0846,1.7054,0.6257,-0.7341,-42.7500,19.8000,10.9500,9.0573,-3.6416,2.8371,1.1119,0.1468,0.3325,-68.8500,24.0000,-18.6000,3.2500,2.7200,-7.3400,0.7058,1.4257,-2.8798,-24.5625,-20.2500,20.0625,204.7500,28.5625,-162.6250,0
584.746,9.5768,1.8699,0.3903,1.6758,0.4900,-0.6763,-42.3000,22.2000,11.8500,8.9711,-2.2697,2.8180,0.4676,-0.0192,0.3120,-68.8500,24.0000,-18.6000,3.2500,2.7200,-7.3400,0.7058,1.4257,-2.8798,-24.5625,-20.2500,20.0625,204.7500,28.5625,-162.6250,0
584.751,9.5768,1.8699,0.3903,1.6758,0.4900,-0.6763,-42.3000,22.2000,11.8500,8.9711,-2.2697,2.8180,0.4676,-0.0192,0.3120,-68.8500,24.0000,-18.6000,2.9000,2.4700,-7.0400,0.5509,1.2250,-2.6954,-21.6875,-25.0625,17.2500,202.9375,28.8125,-162.0625,0
584.756,9.4978,1.7885,-0.0263,1.6406,0.4890,-0.6355,-42.7500,20.2500,10.9500,8.9735,-1.0271,2.7725,0.1005,-0.1700,0.2633,-68.8500,24.0000,-18.6000,2.9000,2.4700,-7.0400,0.5509,1.2250,-2.6954,-21.6875,-25.0625,17.2500,202.9375,28.8125,-162.0625,0
584.761,9.4978,1.7885,-0.0263,1.6406,0.4890,-0.6355,-42.7500,20.2500,10.9500,8.9735,-1.0271,2.7725,0.1005,-0.1700,0.2633,-69.0000,22.9500,-18.7500,2.8000,2.5600,-7.0900,0.3152,1.0908,-2.5045,-21.6875,-25.0625,17.2500,201.4375,28.9375,-161.3750,0
584.766,9.5840,1.8196,-0.2107,1.6419,0.4690,-0.6017,-42.7500,20.2500,10.9500,8.9663,-0.0144,2.5402,-0.0240,-0.2995,0.1735,-69.0000,22.9500,-18.7500,2.8000,2.5600,-7.0900,0.0611,0.9054,-2.2711,-21.6875,-25.0625,17.2500,200.0625,29.0000,-160.6875,0
584.772,9.6055,1.9465,-0.1508,1.6625,0.4756,-0.5862,-43.6500,19.6500,10.0500,8.9663,-0.0144,2.5402,-0.0240,-0.2995,0.1735,-69.6000,22.8000,-18.3000,2.7600,2.9500,-7.1200,0.0611,0.9054,-2.2711,-21.6875,-25.0625,17.2500,198.9375,29.0000,-159.9375,0
584.781,9.6055,1.9465,-0.1508,1.6124,0.3643,-0.5886,-43.6500,19.6500,10.0500,9.1171,0.7925,2.2338,0.0258,-0.3850,0.0525,-68.8500,22.8000,-18.3000,2.8000,4.2000,-7.1300,-0.1909,0.7221,-2.0017,-21.6875,-25.0625,17.2500,198.9375,29.0000,-159.9375,0
584.791,9.3805,1.9417,-0.5722,1.6315,0.3435,-0.6027,-43.2000,20.2500,7.8000,9.0692,1.4006,2.1356,0.2297,-0.4162,-0.0826,-68.8500,22.8000,-18.3000,2.5000,4.9300,-6.7800,-0.3742,0.4472,-1.7421,-21.6875,-25.0625,17.2500,198.0000,28.8750,-159.1875,0
584.796,9.3805,1.9417,-0.5722,1.6315,0.3435,-0.6027,-43.2000,20.2500,7.8000,9.0261,1.6664,2.0997,0.5236,-0.4538,-0.2300,-68.4000,23.2500,-19.0500,2.5000,4.9300,-6.7800,-0.3742,0.4472,-1.7421,-21.6875,-25.0625,17.2500,198.0000,28.8750,-159.1875,0
584.801,9.3613,1.8052,-0.8260,1.6734,0.4732,-0.6067,-42.9000,19.6500,8.7000,9.0261,1.6664,2.0997,0.5236,-0.4538,-0.2300,-68.4000,23.2500,-19.0500,2.6000,5.6100,-6.6400,-0.4516,0.2051,-1.4868,-19.0625,-28.0000,16.0000,196.9375,28.6875,-158.4375,0
584.806,9.3613,1.8052,-0.8260,1.6734,0.4732,-0.6067,-42.9000,19.6500,8.7000,9.0764,1.6807,2.2314,0.8833,-0.4786,-0.3738,-68.4000,23.2500,-19.0500,2.6000,5.6100,-6.6400,-0.4516,0.2051,-1.4868,-19.0625,-28.0000,16.0000,196.9375,28.6875,-158.4375,0
584.811,9.5744,1.5251,-1.1253,1.7083,0.5332,-0.6147,-42.6000,20.7000,7.2000,9.0764,1.6807,2.2314,0.8833,-0.4786,-0.3738,-68.4000,23.2500,-19.0500,2.6500,6.2100,-6.4400,-0.4483,0.0524,-1.2785,-19.0625,-28.0000,16.0000,196.2500,28.4375,-157.8750,0
584.816,9.5744,1.5251,-1.1253,1.7083,0.5332,-0.6147,-42.6000,20.7000,7.2000,9.1004,1.4437,2.1332,1.2327,-0.5095,-0.4970,-67.5000,23.8500,-20.7000,2.6500,6.2100,-6.4400,-0.3720,-0.1287,-1.1508,-19.0625,-28.0000,16.0000,195.6875,28.1250,-157.3125,0
584.822,9.4427,1.4796,-1.2019,1.7304,0.3419,-0.6424,-42.6000,20.7000,7.2000,9.1387,1.1827,2.0710,1.2327,-0.5095,-0.4970,-67.5000,23.8500,-20.7000,1.9600,7.0500,-5.4200,-0.3720,-0.1287,-1.1508,-19.0625,-28.0000,16.0000,195.1250,27.8125,-156.9375,0
584.831,9.4092,1.5299,-1.2091,1.7765,0.3579,-0.6507,-43.3500,20.7000,7.2000,9.2560,0.8906,2.0231,1.5212,-0.5702,-0.5966,-67.5000,23.8500,-20.7000,1.5700,6.9300,-4.8900,-0.2553,-0.2291,-1.0996,-19.0625,-28.0000,16.0000,195.1250,27.8125,-156.9375,0
584.841,9.1530,1.4940,-0.9936,1.7166,0.4855,-0.6552,-41.7000,21.7500,5.7000,9.3685,0.7254,1.9130,1.7070,-0.6475,-0.6600,-69.1500,24.4500,-19.8000,1.2700,6.9800,-4.5900,-0.1920,-0.1854,-1.1508,-19.0625,-28.0000,16.0000,194.5625,27.4375,-156.5625,0
584.846,9.1530,1.4940,-0.9936,1.7166,0.4855,-0.6552,-41.7000,21.7500,5.7000,9.3685,0.7254,1.9130,1.8239,-0.7194,-0.7016,-67.3500,25.2000,-20.8500,1.2700,6.9800,-4.5900,-0.1920,-0.1854,-1.1508,-19.0625,-28.0000,16.0000,194.5625,27.4375,-156.5625,0
584.851,9.3877,1.4653,-0.8452,1.6968,0.5300,-0.6667,-42.6000,20.4000,6.4500,9.4786,0.5722,2.0925,1.8239,-0.7194,-0.7016,-67.3500,25.2000,-20.8500,1.3100,7.6600,-4.8900,-0.2269,-0.0447,-1.3177,-15.0625,-30.1875,16.0000,193.8750,27.1250,-156.0625,0
584.856,9.3877,1.4653,-0.8452,1.6968,0.5300,-0.6667,-42.6000,20.4000,6.4500,9.4786,0.5722,2.0925,1.9995,-0.7861,-0.7384,-68.7000,24.6000,-20.7000,1.3100,7.6600,-4.8900,-0.2269,-0.0447,-1.3177,-15.0625,-30.1875,16.0000,193.0000,26.8750,-155.5000,0
584.861,9.5170,1.3695,-0.8068,1.6244,0.5025,-0.6749,-42.9000,21.1500,5.1000,9.5936,0.6009,2.0231,2.1594,-0.8513,-0.7687,-68.7000,24.6000,-20.7000,1.9300,7.7400,-5.4900,-0.2880,0.2040,-1.5850,-15.0625,-30.1875,16.0000,193.0000,26.8750,-155.5000,0
584.868,9.5170,1.3695,-0.8068,1.6244,0.5025,-0.6749,-42.9000,21.1500,5.1000,9.5936,0.6009,2.0231,2.1594,-0.8513,-0.7687,-67.6500,25.9500,-21.6000,2.3000,7.7100,-5.9800,-0.3218,0.4658,-1.9068,-15.0625,-30.1875,16.0000,191.9375,26.6875,-154.7500,0
584.872,9.4763,1.3647,-0.9026,1.5343,0.4016,-0.6869,-42.9000,21.1500,5.1000,9.7707,0.5291,2.0231,2.3230,-0.9201,-0.8018,-69.4500,25.3500,-22.9500,2.3000,7.7100,-5.9800,-0.3218,0.4658,-1.9068,-15.0625,-30.1875,16.0000,190.6875,26.4375,-153.9375,0
584.881,9.3039,1.3575,-0.9720,1.4674,0.3909,-0.6837,-41.7000,21.7500,6.3000,9.8904,0.2825,2.0111,2.4746,-0.9875,-0.8434,-69.4500,25.3500,-22.9500,2.2600,6.9900,-6.4200,-0.3229,0.5749,-2.2438,-15.0625,-30.1875,16.0000,190.6875,26.4375,-153.9375,0
584.891,8.6024,1.4653,-1.2258,1.4309,0.4261,-0.6779,-44.4000,21.4500,5.1000,9.9072,-0.0239,2.1069,2.5895,-1.0563,-0.8831,-68.1000,26.4000,-23.4000,2.4000,6.6100,-6.5800,-0.3327,0.6523,-2.5253,-15.0625,-30.1875,16.0000,189.2500,26.1250,-153.0625,0
584.896,8.6024,1.4653,-1.2258,1.4309,0.4261,-0.6779,-44.4000,21.4500,5.1000,9.9072,-0.0239,2.1069,2.5895,-1.0563,-0.8831,-68.1000,26.4000,-23.4000,2.4000,6.6100,-6.5800,-0.3327,0.6523,-2.5253,-15.0625,-30.1875,16.0000,189.2500,26.1250,-153.0625,0
584.900,8.6072,1.3072,-1.5538,1.3067,0.3925,-0.6811,-43.3500,21.4500,4.0500,9.7516,-0.2658,2.0638,2.6273,-1.1088,-0.9110,-68.1000,26.4000,-23.4000,2.5700,6.2200,-6.7900,-0.3731,0.7418,-2.7434,-12.2500,-32.3750,15.0625,187.6875,25.8125,-152.1250,0
584.905,8.6072,1.3072,-1.5538,1.3067,0.3925,-0.6811,-43.3500,21.4500,4.0500,9.7516,-0.2658,2.0638,2.6273,-1.1088,-0.9110,-67.5000,28.5000,-25.0500,2.5700,6.2200,-6.7900,-0.3731,0.7418,-2.7434,-12.2500,-32.3750,15.0625,187.6875,25.8125,-152.1250,0
584.910,8.9232,1.4269,-1.4581,1.2566,0.2673,-0.6523,-43.2000,21.0000,4.5000,10.0628,-0.4118,2.0399,2.6430,-1.1663,-0.9334,-67.5000,28.5000,-25.0500,2.6900,6.1000,-7.0800,-0.4429,0.7821,-2.8842,-12.2500,-32.3750,15.0625,186.0000,25.3750,-151.0625,0
584.914,8.9232,1.4269,-1.4581,1.2566,0.2673,-0.6523,-43.2000,21.0000,4.5000,10.0628,-0.4118,2.0399,2.6430,-1.1663,-0.9334,-67.5000,28.5000,-25.0500,2.6900,6.1000,-7.0800,-0.4429,0.7821,-2.8842,-12.2500,-32.3750,15.0625,184.3125,25.0000,-150.0000,0
584.922,8.6598,1.4413,-1.3671,1.0744,0.5148,-0.6134,-42.0000,21.7500,4.5000,10.2161,-0.4094,2.0111,2.6502,-1.2377,-0.9454,-67.5000,28.5000,-25.0500,3.3400,6.3800,-7.8300,-0.5138,0.7996,-2.9769,-12.2500,-32.3750,15.0625,182.5625,24.5000,-148.9375,0
584.931,8.7604,1.3192,-1.3455,0.8697,0.7448,-0.5574,-42.0000,21.7500,4.5000,10.4148,-0.5148,1.9393,2.6180,-1.3054,-0.9686,-65.8500,29.1000,-26.4000,3.5800,6.2400,-8.0900,-0.5171,0.8039,-3.0391,-12.2500,-32.3750,15.0625,182.5625,24.5000,-148.9375,0
584.941,9.3087,1.5083,-1.3623,0.8540,0.8010,-0.4756,-42.3000,22.6500,3.3000,10.5369,-0.6105,1.7310,2.5940,-1.3821,-0.9670,-65.5500,27.3000,-28.0500,3.5400,6.0200,-8.0900,-0.4505,0.7439,-3.0598,-12.2500,-32.3750,15.0625,180.8125,24.0000,-147.9375,0
584.945,9.3087,1.5083,-1.3623,0.8540,0.8010,-0.4756,-42.3000,22.6500,3.3000,10.5369,-0.6105,1.7310,2.5940,-1.3821,-0.9670,-66.0000,27.7500,-29.2500,3.5400,6.0200,-8.0900,-0.4505,0.7439,-3.0598,-12.2500,-32.3750,15.0625,180.8125,24.0000,-147.9375,0
584.950,9.5217,1.7310,-1.4078,0.8455,0.7107,-0.3981,-42.4500,22.5000,3.1500,10.6805,-0.6632,1.6520,2.5250,-1.4445,-0.9675,-66.0000,27.7500,-29.2500,3.3800,5.6000,-7.9600,-0.3687,0.6709,-3.0325,-7.6875,-33.2500,12.5625,179.1250,23.3750,-147.0625,0
584.955,9.5217,1.7310,-1.4078,0.8455,0.7107,-0.3981,-42.4500,22.5000,3.1500,10.6805,-0.6632,1.6520,2.5250,-1.4445,-0.9675,-65.1000,29.5500,-29.7000,3.3800,5.6000,-7.9600,-0.3687,0.6709,-3.0325,-7.6875,-33.2500,12.5625,179.1250,23.3750,-147.0625,0
584.960,9.4691,1.9178,-1.4198,0.7722,0.5668,-0.3224,-42.6000,21.1500,3.6000,10.5129,-0.7901,1.6352,2.4501,-1.4965,-0.9697,-65.1000,29.5500,-29.7000,3.4100,5.5000,-7.9700,-0.3065,0.6349,-2.9812,-7.6875,-33.2500,12.5625,177.3750,22.7500,-146.1875,0
584.965,9.4691,1.9178,-1.4198,0.7722,0.5668,-0.3224,-42.6000,21.1500,3.6000,10.5129,-0.7901,1.6352,2.4501,-1.4965,-0.9697,-65.1000,29.5500,-29.7000,3.4100,5.5000,-7.9700,-0.3065,0.6349,-2.9812,-7.6875,-33.2500,12.5625,175.6875,22.1250,-145.4375,0
584.972,9.8426,2.1237,-1.5419,0.7637,0.4876,-0.2840,-43.5000,20.5500,3.1500,10.3813,-0.7901,1.6113,2.3409,-1.5370,-0.9739,-65.1000,29.5500,-29.7000,3.5200,5.4800,-8.0800,-0.2651,0.6163,-2.8994,-7.6875,-33.2500,12.5625,174.0625,21.5625,-144.6875,0
584.981,9.1291,2.2984,-1.6376,0.8591,0.5060,-0.2345,-43.5000,20.5500,3.1500,10.2185,-0.6943,1.5203,2.1639,-1.5748,-0.9531,-66.0000,28.9500,-32.1000,4.0300,5.2800,-8.5100,-0.2454,0.6338,-2.8111,-7.6875,-33.2500,12.5625,174.0625,21.5625,-144.6875,0
584.991,8.8083,2.3152,-1.5874,0.9348,0.5556,-0.1807,-43.5000,20.5500,3.1500,10.1586,-0.6393,1.3455,2.0139,-1.6004,-0.9313,-66.0000,28.9500,-32.1000,4.0100,4.9200,-8.6300,-0.2193,0.6370,-2.7347,-7.6875,-33.2500,12.5625,172.4375,20.9375,-144.0000,0
584.996,8.9735,2.4349,-1.5036,0.9667,0.6169,-0.1226,-43.5000,20.5500,3.1500,10.0604,-0.7877,1.0104,1.9105,-1.6308,-0.8934,-64.6500,29.8500,-32.4000,4.0100,4.9200,-8.6300,-0.2193,0.6370,-2.7347,-7.6875,-33.2500,12.5625,172.4375,20.9375,-144.0000,0
585.001,8.9735,2.4349,-1.5036,0.9667,0.6169,-0.1226,-42.4500,22.5000,1.3500,10.0604,-0.7877,1.0104,1.9105,-1.6308,-0.8934,-64.6500,29.8500,-32.4000,4.1800,4.9600,-8.9200,-0.1844,0.5781,-2.6540,-3.3750,-35.1875,13.3750,170.9375,20.3125,-143.3750,0
585.006,9.0477,2.4612,-1.3815,0.9803,0.4317,-0.0879,-42.4500,22.5000,1.3500,9.8306,-0.6943,0.8906,1.8213,-1.6193,-0.8378,-64.5000,30.4500,-35.1000,4.1800,4.9600,-8.9200,-0.1844,0.5781,-2.6540,-3.3750,-35.1875,13.3750,170.9375,20.3125,-143.3750,0
585.011,9.0477,2.4612,-1.3815,0.9803,0.4317,-0.0879,-40.6500,21.0000,3.4500,9.8306,-0.6943,0.8906,1.8213,-1.6193,-0.8378,-64.5000,30.4500,-35.1000,4.4100,4.3300,-8.9700,-0.1680,0.5476,-2.5755,-3.3750,-35.1875,13.3750,169.4375,19.7500,-142.8125,0
585.016,8.8346,2.4301,-1.3288,0.9808,0.3701,-0.0584,-40.6500,21.0000,3.4500,10.0724,-0.8092,0.9601,1.5918,-1.6020,-0.7941,-63.9000,29.8500,-34.5000,4.4100,4.3300,-8.9700,-0.1167,0.4723,-2.4980,-3.3750,-35.1875,13.3750,167.9375,19.0625,-142.3125,0
585.022,8.8346,2.4301,-1.3288,0.9808,0.3701,-0.0584,-41.5500,21.9000,1.9500,10.0724,-0.8092,0.9601,1.5918,-1.6020,-0.7941,-63.9000,29.8500,-34.5000,4.5800,2.5300,-9.5300,-0.1167,0.4723,-2.4980,-3.3750,-35.1875,13.3750,166.5625,18.4375,-141.8750,0
585.031,8.6119,2.3008,-1.2163,0.9233,0.4722,-0.0504,-42.6000,20.4000,2.2500,10.1873,-1.0870,1.2378,1.5084,-1.6233,-0.7525,-63.7500,29.2500,-35.1000,4.5100,3.2100,-9.7200,-0.0949,0.3447,-2.3551,-3.3750,-35.1875,13.3750,166.5625,18.4375,-141.8750,0
585.041,8.6646,2.1620,-1.1588,0.8820,0.5396,-0.0330,-42.6000,20.4000,2.2500,10.0173,-1.3216,1.1181,1.3717,-1.6236,-0.7173,-63.7500,29.2500,-35.8500,4.9500,3.8400,-9.8800,-0.1516,0.2443,-2.1511,-3.3750,-35.1875,13.3750,165.3750,17.8125,-141.4375,0
585.046,8.9208,2.0351,-1.2234,0.8463,0.6073,-0.0003,-42.6000,20.4000,2.2500,9.9192,-1.4748,0.9146,1.2148,-1.6230,-0.6837,-61.6500,29.5500,-36.7500,4.9500,3.8400,-9.8800,-0.1516,0.2443,-2.1511,-3.3750,-35.1875,13.3750,165.3750,17.8125,-141.4375,0
585.051,8.9208,2.0351,-1.2234,0.8463,0.6073,-0.0003,-41.7000,21.0000,1.3500,9.9192,-1.4748,0.9146,1.2148,-1.6230,-0.6837,-61.6500,29.5500,-36.7500,5.3100,3.7600,-9.5900,-0.1484,0.2203,-1.9569,1.2500,-36.5000,11.2500,164.2500,17.2500,-141.0625,0
585.056,9.0094,1.9297,-1.3551,0.8423,0.5820,0.0181,-42.6000,19.9500,1.3500,9.7396,-1.5538,0.8643,1.0616,-1.5878,-0.6587,-61.6500,29.5500,-36.7500,5.3100,3.7600,-9.5900,-0.1484,0.2203,-1.9569,1.2500,-36.5000,11.2500,164.2500,17.2500,-141.0625,0
585.062,9.0740,1.8316,-1.3527,0.8356,0.5716,0.0464,-42.6000,19.9500,1.2000,9.6319,-1.4772,0.9984,1.0616,-1.5878,-0.6587,-61.6500,29.5500,-36.7500,4.9700,3.5600,-8.8900,-0.0327,0.0589,-1.7671,1.2500,-36.5000,11.2500,163.2500,16.6250,-140.8125,0
585.070,9.0740,1.8316,-1.3527,0.8356,0.5716,0.0464,-42.0000,19.0500,2.1000,9.6319,-1.4772,0.9984,0.9294,-1.5540,-0.6350,-63.1500,28.6500,-39.3000,4.8100,3.1400,-8.5000,0.1134,-0.1691,-1.5948,1.2500,-36.5000,11.2500,162.3750,16.0000,-140.6875,0
585.075,9.1554,1.6712,-1.6640,0.8748,0.6254,0.1018,-42.0000,19.0500,2.1000,9.3589,-1.3001,0.8667,0.7781,-1.5007,-0.6169,-63.1500,28.6500,-39.3000,4.8100,3.1400,-8.5000,0.1134,-0.1691,-1.5948,1.2500,-36.5000,11.2500,161.6250,15.3750,-140.6250,0
585.082,9.1004,1.5826,-1.7837,0.9577,0.6555,0.1508,-44.1000,18.1500,0.4500,9.2057,-1.2617,0.6369,0.6851,-1.4432,-0.6121,-63.1500,28.6500,-39.3000,4.7000,2.8300,-7.6800,0.2116,-0.2727,-1.4497,1.2500,-36.5000,11.2500,160.9375,14.8125,-140.6875,0
585.092,8.9854,1.3767,-1.7023,0.9537,0.6787,0.2009,-44.1000,18.1500,0.4500,9.0381,-1.0798,0.3615,0.6387,-1.3646,-0.5982,-61.2000,30.6000,-38.5500,5.0700,2.8200,-7.4900,0.2716,-0.2967,-1.3068,1.2500,-36.5000,11.2500,160.9375,14.8125,-140.6875,0
585.097,8.9854,1.3767,-1.7023,0.9537,0.6787,0.2009,-44.1000,18.1500,0.4500,9.0381,-1.0798,0.3615,0.6387,-1.3646,-0.5982,-60.9000,31.0500,-39.7500,5.0700,2.8200,-7.4900,0.2716,-0.2967,-1.3068,1.2500,-36.5000,11.2500,160.3125,14.3125,-140.7500,0
585.102,8.9136,1.2665,-1.8531,0.8932,0.7115,0.2633,-44.1000,18.1500,0.4500,8.8226,-1.0247,0.3735,0.6139,-1.2617,-0.5820,-60.9000,31.0500,-39.7500,5.7400,2.7400,-7.4800,0.2694,-0.1985,-1.1563,3.7500,-36.1875,11.2500,160.3125,14.3125,-140.7500,0
585.106,8.9136,1.2665,-1.8531,0.8932,0.7115,0.2633,-43.5000,19.0500,1.0500,8.8226,-1.0247,0.3735,0.6139,-1.2617,-0.5820,-60.7500,29.7000,-40.6500,5.7400,2.7400,-7.4800,0.2694,-0.1985,-1.1563,3.7500,-36.1875,11.2500,159.7500,13.9375,-140.7500,0
585.112,8.9016,1.1947,-2.1691,0.8021,0.7048,0.3421,-43.5000,19.0500,1.0500,8.5353,-1.3455,0.6680,0.5766,-1.0677,-0.5438,-60.7500,29.7000,-40.6500,6.2900,2.0900,-7.6200,0.2433,-0.0622,-1.0068,3.7500,-36.1875,11.2500,159.7500,13.9375,-140.7500,0
585.116,8.9016,1.1947,-2.1691,0.8021,0.7048,0.3421,-43.2000,17.2500,-1.0500,8.5353,-1.3455,0.6680,0.5766,-1.0677,-0.5438,-60.9000,31.5000,-40.8000,6.2900,2.0900,-7.6200,0.1920,-0.0382,-0.8792,3.7500,-36.1875,11.2500,159.2500,13.5625,-140.7500,0
585.122,8.9088,1.3791,-2.4684,0.6971,0.6640,0.3970,-43.2000,17.2500,-1.0500,8.3989,-1.6281,1.3048,0.5545,-0.9014,-0.5255,-60.9000,31.5000,-40.8000,7.0800,1.2500,-7.9300,0.1920,-0.0382,-0.8792,3.7500,-36.1875,11.2500,158.8125,13.3125,-140.7500,0
585.132,8.8992,1.5826,-2.6839,0.5710,0.5111,0.4517,-43.9500,18.3000,0.3000,8.3582,-1.9537,1.6065,0.5327,-0.7365,-0.4674,-59.8500,30.0000,-41.7000,8.1100,0.7700,-8.4800,0.0687,-0.0469,-0.7843,3.7500,-36.1875,11.2500,158.8125,13.3125,-140.7500,0
585.142,8.6742,1.8675,-2.8060,0.4999,0.4823,0.5156,-45.1500,17.4000,-0.4500,8.2025,-1.8794,1.1540,0.3920,-0.5974,-0.3528,-59.4000,31.0500,-42.3000,9.3300,0.3500,-8.8400,-0.1527,-0.0251,-0.7745,3.7500,-36.1875,11.2500,158.4375,13.0000,-140.5625,0
585.146,8.6742,1.8675,-2.8060,0.4999,0.4823,0.5156,-45.1500,17.4000,-0.4500,8.2025,-1.8794,1.1540,0.3920,-0.5974,-0.3528,-59.4000,31.0500,-42.3000,9.3300,0.3500,-8.8400,-0.1527,-0.0251,-0.7745,3.7500,-36.1875,11.2500,158.4375,13.0000,-140.5625,0
585.151,8.5329,2.0279,-2.6791,0.3027,0.5289,0.5537,-45.1500,17.4000,-0.4500,7.9942,-1.3838,0.4788,0.2270,-0.4138,-0.2092,-59.4000,31.0500,-42.3000,9.9700,-0.1500,-7.1700,-0.4745,-0.0556,-0.8738,6.1875,-35.8750,11.6875,158.0000,12.6875,-140.2500,0
585.156,8.5329,2.0279,-2.6791,0.3027,0.5289,0.5537,-44.2500,18.0000,0.0000,7.9942,-1.3838,0.4788,0.2270,-0.4138,-0.2092,-60.7500,31.2000,-41.7000,9.9700,-0.1500,-7.1700,-0.4745,-0.0556,-0.8738,6.1875,-35.8750,11.6875,158.0000,12.6875,-140.2500,0
585.161,8.5760,2.1380,-2.2601,-0.0115,0.5241,0.5766,-44.2500,18.0000,0.0000,8.0517,-0.9074,-0.1077,0.1495,-0.1815,-0.0357,-60.7500,31.2000,-41.7000,10.7700,-1.9200,-5.7500,-0.6043,-0.1113,-0.9970,6.1875,-35.8750,11.6875,157.5000,12.2500,-139.8125,0
585.170,9.1506,2.3343,-2.2242,-0.2060,0.5356,0.6305,-44.1000,17.4000,0.1500,8.4994,-0.2322,0.4860,0.2473,0.2030,0.1423,-59.8500,30.9000,-42.4500,12.8400,-4.2500,-4.2400,-0.4745,0.1691,-0.9065,6.1875,-35.8750,11.6875,157.0000,12.0000,-139.4375,0
585.174,9.1506,2.3343,-2.2242,-0.2060,0.5356,0.6305,-42.6000,18.9000,0.1500,8.4994,-0.2322,0.4860,0.2473,0.2030,0.1423,-59.8500,30.9000,-42.4500,12.8400,-4.2500,-4.2400,-0.4745,0.1691,-0.9065,6.1875,-35.8750,11.6875,156.5625,12.1875,-139.2500,0
585.182,10.4267,2.7629,-2.5211,-0.0528,0.6171,0.7610,-42.6000,18.9000,0.1500,8.5473,0.6081,3.0742,0.3696,0.7394,0.2510,-58.8000,31.2000,-43.2000,23.6800,-7.7100,-11.0100,-0.1778,0.8803,-0.4843,6.1875,-35.8750,11.6875,156.6875,13.5000,-139.6250,0
585.192,12.1362,3.2034,-2.7031,0.2507,0.6467,0.8831,-44.4000,15.9000,1.2000,11.1378,1.2857,0.9936,-0.0144,0.6811,0.2574,-60.1500,29.5500,-42.3000,10.2000,-13.1000,-2.5700,0.8519,2.1042,1.1137,6.1875,-35.8750,11.6875,156.6875,13.5000,-139.6250,0
585.197,12.1362,3.2034,-2.7031,0.2507,0.6467,0.8831,-44.4000,15.9000,1.2000,15.8927,2.4062,-5.9328,0.0914,0.3174,0.1905,-60.4500,30.6000,-42.0000,10.2000,-13.1000,-2.5700,0.8519,2.1042,1.1137,6.1875,-35.8750,11.6875,156.6875,13.5000,-139.6250,0
585.202,14.1952,3.2968,-1.6281,0.3355,0.6054,0.9880,-44.4000,15.9000,1.2000,15.8927,2.4062,-5.9328,0.0914,0.3174,0.1905,-60.4500,30.6000,-42.0000,4.0600,-8.4900,-6.5400,4.0612,0.3000,2.0366,8.0000,-35.5625,10.5000,157.4375,14.3750,-142.0625,0
585.207,14.9446,2.4134,-0.4764,-0.0157,0.5995,1.0011,-44.4000,15.9000,1.2000,16.5846,1.5514,-5.5905,0.9750,0.1447,-0.0029,-59.5500,30.9000,-43.6500,4.0600,-8.4900,-6.5400,4.0612,0.3000,2.0366,8.0000,-35.5625,10.5000,158.3750,15.1875,-144.6250,0
585.212,14.9446,2.4134,-0.4764,-0.0157,0.5995,1.0011,-44.4000,15.9000,1.2000,16.5846,1.5514,-5.5905,0.9750,0.1447,-0.0029,-59.5500,30.9000,-43.6500,-3.3500,20.3100,-22.9400,4.1015,0.0753,2.3475,8.0000,-35.5625,10.5000,158.3750,15.1875,-144.6250,0
585.218,13.4027,1.9992,0.0862,-0.7314,0.4935,0.8338,-45.0000,18.3000,1.3500,12.2942,1.6041,-0.6800,0.9057,0.1655,-0.1655,-59.5500,30.9000,-43.6500,-0.8000,15.1300,-4.6500,1.9439,2.4576,2.7729,8.0000,-35.5625,10.5000,159.3750,17.1250,-145.8750,0
585.223,13.4027,1.9992,0.0862,-0.7314,0.4935,0.8338,-45.1500,18.3000,1.3500,12.2942,1.6041,-0.6800,0.9057,0.1655,-0.1655,-59.5500,30.9000,-43.6500,-0.8000,15.1300,-4.6500,1.9439,2.4576,2.7729,8.0000,-35.5625,10.5000,160.1250,18.6875,-145.8750,0
585.232,11.7196,1.6257,0.2418,-1.1639,0.4509,0.5577,-45.1500,16.6500,0.7500,8.3941,0.8643,3.5554,0.5963,0.5793,-0.1884,-60.1500,31.0500,-44.2500,0.0800,8.6400,-4.9400,-0.0818,1.9842,2.0093,8.0000,-35.5625,10.5000,160.2500,20.6875,-145.5000,0
585.242,11.4371,1.8627,0.0814,-0.9481,0.4450,0.4253,-45.9000,16.6500,1.5000,8.0397,0.2131,0.7566,0.2630,0.8548,-0.0418,-60.1500,31.0500,-44.2500,16.8600,2.4000,-9.9400,-0.3720,3.5343,1.1716,8.0000,-35.5625,10.5000,160.2500,20.6875,-145.5000,0
585.247,10.2999,2.4612,0.0790,-0.3696,0.3277,0.3656,-45.7500,18.0000,3.9000,10.0221,-0.0479,-2.1644,0.2707,0.7866,0.1085,-60.9000,31.5000,-42.7500,16.8600,2.4000,-9.9400,-0.3720,3.5343,1.1716,8.0000,-35.5625,10.5000,160.2500,21.6250,-146.0000,0
585.252,10.2999,2.4612,0.0790,-0.3696,0.3277,0.3656,-45.7500,18.0000,3.9000,10.0221,-0.0479,-2.1644,0.2707,0.7866,0.1085,-60.9000,31.5000,-42.7500,2.6800,0.9400,-11.6200,1.0505,1.5828,0.6654,5.5000,-36.0000,13.6875,160.2500,21.6250,-146.0000,0
585.257,8.8801,2.8156,1.0223,-0.2126,0.3957,0.2409,-45.7500,18.0000,3.9000,10.4028,2.1668,-1.8938,0.1769,0.6147,0.1540,-60.3000,31.6500,-44.4000,2.6800,0.9400,-11.6200,1.0505,1.5828,0.6654,5.5000,-36.0000,13.6875,160.0625,21.7500,-146.3750,0
585.262,8.8801,2.8156,1.0223,-0.2126,0.3957,0.2409,-45.7500,18.0000,3.9000,10.4028,2.1668,-1.8938,0.1769,0.6147,0.1540,-60.3000,31.6500,-44.4000,1.3800,4.4100,-8.1500,0.7756,0.3851,-0.0873,5.5000,-36.0000,13.6875,160.0625,21.7500,-146.3750,0
585.268,8.5665,2.2793,1.7669,-0.3277,0.6867,0.2121,-45.3000,18.0000,2.4000,9.6175,2.6624,-0.8021,-0.0011,0.5828,0.1314,-61.5000,30.9000,-43.9500,3.0400,5.7600,-6.8700,0.4789,-0.1320,-0.0022,5.5000,-36.0000,13.6875,160.0000,21.6875,-146.6250,0
585.273,8.5665,2.2793,1.7669,-0.3277,0.6867,0.2121,-44.8500,17.7000,2.2500,8.3222,2.3176,-0.0670,-0.0011,0.5828,0.1314,-61.5000,30.9000,-43.9500,3.0400,5.7600,-6.8700,0.4789,-0.1320,-0.0022,5.5000,-36.0000,13.6875,160.0000,21.8125,-146.8125,0
585.282,7.9057,1.6041,2.1668,-0.2289,0.7727,0.2497,-44.8500,17.7000,2.2500,8.3222,2.3176,-0.0670,-0.3717,0.6190,0.1687,-60.4500,30.6000,-43.5000,4.5500,4.8400,-7.8100,0.3076,0.1385,0.0993,5.5000,-36.0000,13.6875,159.9375,21.8750,-146.9375,0
585.292,8.1355,1.2665,1.8794,-0.1657,0.6821,0.2769,-44.1000,18.0000,2.8500,10.1370,2.8395,-1.2761,-0.5830,0.7064,0.1833,-61.6500,29.8500,-43.5000,4.0200,4.7700,-7.9200,0.2258,0.2520,-0.0164,5.5000,-36.0000,13.6875,159.9375,21.8750,-146.9375,0
585.297,8.1738,0.9074,1.7909,-0.1932,0.5774,0.2878,-44.1000,16.2000,2.5500,10.1370,2.8395,-1.2761,-0.4058,0.6755,0.1937,-61.5000,30.4500,-41.7000,4.0200,4.7700,-7.9200,0.2258,0.2520,-0.0164,5.5000,-36.0000,13.6875,159.9375,21.8750,-146.9375,0
585.302,8.1738,0.9074,1.7909,-0.1932,0.5774,0.2878,-44.4000,16.6500,3.6000,9.4595,3.2250,-1.2067,-0.4058,0.6755,0.1937,-61.5000,30.4500,-41.7000,3.2900,5.0700,-7.2400,0.1451,0.1898,-0.0556,2.7500,-35.2500,15.6875,159.1875,22.0000,-146.9375,0
585.307,8.5832,0.7326,1.9585,-0.3832,0.3848,0.3677,-44.4000,16.6500,3.6000,9.4595,3.2250,-1.2067,0.0152,0.6158,0.1545,-61.5000,30.4500,-41.7000,3.2900,5.0700,-7.2400,0.1451,0.1898,-0.0556,2.7500,-35.2500,15.6875,159.1875,22.0000,-146.9375,0
585.312,8.5832,0.7326,1.9585,-0.3832,0.3848,0.3677,-44.4000,16.6500,3.6000,8.9112,2.3942,-1.4629,0.0152,0.6158,0.1545,-61.5000,30.4500,-41.7000,3.5400,4.7200,-7.7400,0.1756,0.0644,-0.0524,2.7500,-35.2500,15.6875,159.1875,22.0000,-147.0625,0
585.316,8.6359,0.7709,2.0327,-0.5297,0.4671,0.4588,-44.4000,16.6500,3.6000,8.9112,2.3942,-1.4629,0.2278,0.5846,0.1162,-61.0500,31.2000,-42.4500,3.5400,4.7200,-7.7400,0.1942,0.0589,-0.0491,2.7500,-35.2500,15.6875,159.1250,22.0000,-147.1250,0
585.323,8.6359,0.7709,2.0327,-0.5446,0.5092,0.5020,-43.9500,15.3000,3.9000,8.6263,1.1372,-1.3671,0.0962,0.6070,0.1090,-61.0500,31.2000,-42.4500,3.3000,4.8800,-7.5500,0.1942,0.0589,-0.0491,2.7500,-35.2500,15.6875,159.0625,22.0000,-147.2500,0
585.332,9.1051,1.1253,1.6305,-0.5446,0.5092,0.5020,-43.6500,18.4500,4.8000,9.1698,0.7350,-1.1205,-0.1005,0.6174,0.1258,-62.7000,30.6000,-43.0500,3.4000,5.0500,-7.5100,0.2160,0.0295,-0.0447,2.7500,-35.2500,15.6875,159.0625,22.0000,-147.2500,0
585.342,9.7324,1.6831,0.6728,-0.0480,0.3469,0.4082,-44.2500,17.5500,4.5000,9.4499,1.0343,-0.8068,-0.0973,0.6155,0.1378,-60.9000,30.3000,-42.3000,3.3100,4.9500,-7.5100,0.2411,0.0153,-0.0404,2.7500,-35.2500,15.6875,159.0000,22.0000,-147.3750,0
585.347,10.0078,2.1907,-0.2203,-0.0480,0.3469,0.4082,-44.2500,17.5500,4.5000,9.4499,1.0343,-0.8068,-0.0973,0.6155,0.1378,-60.7500,29.7000,-42.3000,3.3100,4.9500,-7.5100,0.2411,0.0153,-0.0404,2.7500,-35.2500,15.6875,159.0000,22.0000,-147.3750,0
585.352,10.1562,2.4349,-0.5124,0.2281,0.3232,0.3531,-44.8500,16.9500,4.0500,9.5505,1.1085,-0.7230,0.0384,0.6001,0.1316,-60.7500,29.7000,-42.1500,3.4700,4.2700,-7.8400,0.3502,-0.0120,-0.0327,3.1875,-36.0000,16.3750,158.3125,22.0000,-147.5625,0
585.357,10.1562,2.4349,-0.5124,0.2281,0.3232,0.3531,-44.8500,16.9500,4.0500,9.5505,1.1085,-0.7230,0.0384,0.6001,0.1316,-62.2500,30.0000,-42.1500,3.4700,4.2700,-7.8400,0.3502,-0.0120,-0.0327,3.1875,-36.0000,16.3750,158.3125,22.0000,-147.5625,0
585.362,10.3022,2.2841,-0.5602,0.4298,0.3691,0.3150,-44.8500,16.9500,4.0500,9.4571,0.9385,-0.4621,0.0813,0.5830,0.1143,-62.2500,30.0000,-42.1500,3.5500,4.1000,-7.9700,0.3502,-0.0120,-0.0327,3.1875,-36.0000,16.3750,158.2500,21.9375,-147.7500,0
585.367,10.3022,2.2841,-0.5602,0.4298,0.3691,0.3150,-44.8500,16.9500,4.0500,9.4571,0.9385,-0.4621,0.0813,0.5830,0.1143,-62.2500,30.0000,-42.1500,3.5500,4.1000,-7.9700,0.3632,-0.0316,-0.0305,3.1875,-36.0000,16.3750,158.1875,21.9375,-147.9375,0
585.373,9.8138,1.9561,-0.2897,0.5806,0.2595,0.2838,-44.8500,16.9500,5.4000,9.6510,0.9481,-0.7853,0.1071,0.5913,0.0775,-61.6500,30.6000,-41.2500,3.5400,4.1900,-7.9100,0.3632,-0.0316,-0.0305,3.1875,-36.0000,16.3750,158.1250,21.8750,-148.1250,0
585.382,9.6558,1.4940,-0.1317,0.6680,0.3794,0.2654,-43.9500,17.2500,5.7000,9.6462,0.9098,-0.6105,0.1324,0.5729,0.0298,-61.6500,30.6000,-41.2500,3.3400,4.4500,-7.8600,0.3272,-0.0698,-0.0240,3.1875,-36.0000,16.3750,158.1250,21.8750,-148.1250,0
585.392,9.8354,1.0558,-0.0479,0.6531,0.4090,0.2502,-44.5500,16.8000,4.9500,9.4691,0.8595,-0.2682,0.1156,0.5654,0.0328,-61.2000,30.3000,-41.2500,3.4300,4.4000,-7.8400,0.3294,-0.0709,-0.0153,3.1875,-36.0000,16.3750,158.1250,21.8750,-148.3125,0
585.397,9.8354,1.0558,-0.0479,0.6531,0.4090,0.2502,-44.5500,16.8000,4.9500,9.4691,0.8595,-0.2682,0.1156,0.5654,0.0328,-61.2000,30.3000,-41.2500,3.4300,4.4000,-7.8400,0.3294,-0.0709,-0.0153,3.1875,-36.0000,16.3750,157.8750,21.8125,-148.5000,0
585.402,9.8426,0.9050,0.1341,0.7040,0.3946,0.2513,-44.5500,16.0500,6.0000,9.5265,0.9313,-0.0551,0.1018,0.5708,0.0624,-61.2000,30.3000,-41.2500,3.5000,4.1800,-7.9700,0.3294,-0.0818,-0.0120,1.3750,-35.3750,15.5625,157.8750,21.8125,-148.5000,0
585.407,9.8426,0.9050,0.1341,0.7040,0.3946,0.2513,-44.5500,16.0500,6.0000,9.5265,0.9313,-0.0551,0.1018,0.5708,0.0624,-61.2000,30.3000,-41.2500,3.5000,4.1800,-7.9700,0.3294,-0.0818,-0.0120,1.3750,-35.3750,15.5625,157.8750,21.8125,-148.5000,0
585.412,9.7372,0.7494,0.6033,0.7445,0.3818,0.2422,-43.2000,17.5500,4.2000,9.6582,1.3455,0.1413,0.0807,0.5596,0.0578,-60.9000,29.8500,-41.5500,3.4900,4.0800,-7.9900,0.3174,-0.1036,-0.0120,1.3750,-35.3750,15.5625,157.8125,21.7500,-148.6875,0
585.417,9.7372,0.7494,0.6033,0.7445,0.3818,0.2422,-43.2000,17.5500,4.2000,9.6582,1.3455,0.1413,0.0807,0.5596,0.0578,-60.9000,29.8500,-41.5500,3.4900,4.0800,-7.9900,0.3022,-0.1134,-0.0076,1.3750,-35.3750,15.5625,157.8125,21.6875,-148.9375,0
585.423,9.5361,0.8164,0.9481,0.7650,0.3778,0.2478,-43.2000,17.5500,4.2000,9.6750,1.6328,0.2322,0.1029,0.5489,0.0352,-60.9000,29.5500,-41.5500,3.3600,4.3200,-7.9300,0.3022,-0.1134,-0.0076,1.3750,-35.3750,15.5625,157.8125,21.6875,-148.9375,0
585.432,9.3111,0.7829,1.2594,0.6723,0.4418,0.2470,-43.9500,17.2500,5.7000,9.7875,1.8124,0.4334,0.1569,0.5212,0.0333,-61.9500,30.6000,-41.2500,3.4200,4.4200,-7.8600,0.2869,-0.1200,-0.0055,1.3750,-35.3750,15.5625,157.8125,21.6250,-149.1250,0
585.437,9.3111,0.7829,1.2594,0.6723,0.4418,0.2470,-43.9500,17.2500,5.7000,9.8162,1.7334,0.4118,0.1569,0.5212,0.0333,-61.9500,30.6000,-41.2500,3.4200,4.4200,-7.8600,0.2760,-0.1331,-0.0055,1.3750,-35.3750,15.5625,157.7500,21.5625,-149.3125,0
585.443,9.3518,0.6847,1.5251,0.4866,0.4788,0.2627,-44.8500,15.1500,4.3500,9.8162,1.7334,0.4118,0.2057,0.5009,0.0328,-63.9000,29.5500,-40.5000,3.4200,4.5100,-7.8600,0.2760,-0.1331,-0.0055,1.3750,-35.3750,15.5625,157.7500,21.5625,-149.3125,0
585.448,9.3518,0.6847,1.5251,0.4866,0.4788,0.2627,-44.8500,15.1500,4.3500,9.8306,1.4485,0.5722,0.2044,0.4879,0.0440,-61.5000,31.9500,-40.6500,3.4200,4.5100,-7.8600,0.2760,-0.1331,-0.0055,2.0625,-35.5625,16.7500,157.4375,21.5000,-149.5000,0
585.453,9.4739,0.6943,1.7502,0.2662,0.4775,0.2726,-44.4000,15.9000,5.1000,9.8306,1.4485,0.5722,0.2044,0.4879,0.0440,-61.5000,31.9500,-40.6500,3.4500,4.4400,-7.9200,0.2694,-0.1364,-0.0055,2.0625,-35.5625,16.7500,157.4375,21.5000,-149.5000,0
585.458,9.4739,0.6943,1.7502,0.2662,0.4775,0.2726,-44.4000,15.9000,5.1000,9.7827,1.3934,0.7063,0.1577,0.4612,0.0466,-61.5000,31.9500,-40.6500,3.4500,4.4400,-7.9200,0.2694,-0.1364,-0.0055,2.0625,-35.5625,16.7500,157.4375,21.4375,-149.6875,0
585.462,9.5744,0.6081,2.0638,0.0991,0.4482,0.2691,-44.1000,16.2000,5.4000,9.7827,1.3934,0.7063,0.1577,0.4612,0.0466,-61.2000,29.8500,-39.7500,3.3600,4.4800,-7.9100,0.2694,-0.1364,-0.0098,2.0625,-35.5625,16.7500,157.4375,21.4375,-149.6875,0
585.467,9.5744,0.6081,2.0638,0.0991,0.4482,0.2691,-44.1000,16.2000,5.4000,10.0987,1.1444,0.8835,0.1132,0.4141,0.0573,-61.2000,29.8500,-39.7500,3.3600,4.4800,-7.9100,0.2727,-0.1385,-0.0055,2.0625,-35.5625,16.7500,157.3750,21.3750,-149.8125,0
585.473,9.4786,0.4932,2.3152,-0.0357,0.4303,0.2489,-44.1000,16.2000,5.4000,10.0987,1.1444,0.8835,0.1132,0.4141,0.0573,-61.2000,29.8500,-39.7500,3.2800,4.5000,-7.9000,0.2727,-0.1385,-0.0055,2.0625,-35.5625,16.7500,157.3750,21.3750,-149.8125,0
585.482,9.6031,0.2011,2.4972,-0.1375,0.4535,0.2473,-44.4000,16.2000,5.4000,10.0149,0.9792,0.9194,0.0613,0.3637,0.0472,-63.0000,30.0000,-40.3500,3.2900,4.5200,-7.9400,0.2651,-0.1353,-0.0011,2.0625,-35.5625,16.7500,157.3750,21.2500,-150.0000,0
585.487,9.7061,0.1030,2.4804,-0.1927,0.4906,0.2673,-44.4000,16.2000,5.4000,10.0700,0.6656,0.9146,-0.0117,0.3315,0.0509,-63.0000,30.0000,-40.3500,3.2900,4.5200,-7.9400,0.2433,-0.1265,0.0033,2.0625,-35.5625,16.7500,157.3750,21.1875,-150.1250,0
585.493,9.7061,0.1030,2.4804,-0.1927,0.4906,0.2673,-44.4000,15.4500,6.1500,10.0700,0.6656,0.9146,-0.0117,0.3315,0.0509,-63.1500,30.3000,-40.8000,3.3800,4.3000,-8.0300,0.2433,-0.1265,0.0033,2.0625,-35.5625,16.7500,157.3750,21.1875,-150.1250,0
585.498,9.8186,0.0958,2.2553,-0.2260,0.5252,0.3008,-44.4000,15.4500,6.1500,10.2137,0.6129,1.0175,-0.0546,0.3006,0.0597,-62.5500,30.0000,-40.3500,3.3800,4.3000,-8.0300,0.2116,-0.1058,0.0000,3.0625,-34.8750,16.7500,156.9375,21.1250,-150.3125,0
585.503,9.8186,0.0958,2.2553,-0.2260,0.5252,0.3008,-43.2000,16.0500,7.8000,10.2137,0.6129,1.0175,-0.0546,0.3006,0.0597,-62.5500,30.0000,-40.3500,3.3600,4.2100,-8.0700,0.2116,-0.1058,0.0000,3.0625,-34.8750,16.7500,156.9375,21.1250,-150.3750,0
585.512,9.6774,0.1891,1.9968,-0.2502,0.5241,0.3525,-45.1500,16.6500,5.4000,10.2400,0.7207,1.1157,-0.0935,0.2513,0.0671,-62.2500,30.4500,-39.1500,3.3400,4.0900,-8.1500,0.1745,-0.0851,-0.0011,3.0625,-34.8750,16.7500,156.9375,21.1250,-150.3750,0
585.522,9.5553,0.1891,1.9130,-0.2963,0.5273,0.3893,-45.7500,15.3000,5.2500,10.1131,0.7159,1.1851,-0.1042,0.2348,0.0674,-61.6500,29.8500,-40.0500,3.3500,4.0500,-8.1600,0.1265,-0.0633,0.0000,3.0625,-34.8750,16.7500,156.9375,21.0625,-150.5000,0
585.532,9.3470,0.2514,1.8603,-0.3317,0.5065,0.4471,-45.7500,15.3000,5.2500,10.0054,1.1564,1.0175,-0.1183,0.2030,0.0624,-62.7000,29.1000,-40.5000,3.3200,4.0800,-8.1500,0.0785,-0.0469,-0.0033,3.0625,-34.8750,16.7500,156.9375,21.0625,-150.5000,0
585.542,9.3565,0.3783,1.8842,-0.3797,0.5207,0.4876,-45.1500,14.7000,7.2000,9.9527,1.4269,0.8475,-0.1098,0.1807,0.0653,-62.7000,29.1000,-40.5000,3.3500,4.1900,-8.1000,0.0415,-0.0305,-0.0044,3.0625,-34.8750,16.7500,156.9375,21.0625,-150.5625,0
585.547,9.2536,0.5219,1.7430,-0.4002,0.5327,0.5223,-45.1500,14.7000,7.2000,9.9527,1.4269,0.8475,-0.0914,0.1561,0.0666,-62.7000,29.1000,-40.5000,3.3500,4.1900,-8.1000,0.0218,-0.0153,-0.0098,2.2500,-34.0625,18.0000,156.5625,21.0000,-150.5625,0
585.553,9.2536,0.5219,1.7430,-0.4002,0.5327,0.5223,-45.0000,16.0500,6.3000,9.7324,1.5562,0.5794,-0.0386,0.1292,0.0757,-62.5500,31.6500,-40.3500,3.3200,4.1900,-8.0700,0.0218,-0.0153,-0.0098,2.2500,-34.0625,18.0000,156.5625,21.0000,-150.5625,0
585.562,9.3015,0.7709,1.6855,-0.4237,0.5529,0.5337,-43.9500,16.5000,6.7500,9.5720,1.5921,0.4022,0.0101,0.1226,0.0650,-62.5500,31.6500,-40.3500,3.3300,4.2900,-8.0100,0.0109,-0.0109,-0.0142,2.2500,-34.0625,18.0000,156.5625,21.0000,-150.5625,0
585.568,9.2129,0.9242,1.6424,-0.3413,0.5572,0.5265,-45.0000,15.7500,7.3500,9.5720,1.5921,0.4022,0.0101,0.1226,0.0650,-62.5500,31.6500,-40.3500,3.3300,4.2900,-8.0100,0.0109,-0.0142,-0.0164,2.2500,-34.0625,18.0000,156.5625,21.0000,-150.6250,0
585.573,9.2129,0.9242,1.6424,-0.3413,0.5572,0.5265,-45.0000,15.7500,7.3500,9.3565,1.3791,0.1413,0.0221,0.1175,0.0592,-62.5500,29.2500,-41.1000,3.3300,4.2500,-8.0200,0.0109,-0.0142,-0.0164,2.2500,-34.0625,18.0000,156.5625,21.0000,-150.6250,0
585.582,9.3733,1.0942,1.5275,-0.1841,0.5630,0.5004,-45.0000,15.7500,7.3500,9.2656,1.3048,-0.1413,0.0061,0.1298,0.0552,-64.8000,29.7000,-38.4000,3.3400,4.2200,-8.0200,0.0109,-0.0109,-0.0196,2.2500,-34.0625,18.0000,156.5625,21.0000,-150.6250,0
585.587,9.4284,1.0271,1.5945,-0.0024,0.5423,0.4583,-45.0000,15.7500,7.3500,9.2656,1.3048,-0.1413,0.0061,0.1298,0.0552,-64.8000,29.7000,-38.4000,3.3400,4.2200,-8.0200,0.0120,-0.0164,-0.0218,2.2500,-34.0625,18.0000,156.5625,20.9375,-150.6250,0
585.593,9.4284,1.0271,1.5945,-0.0024,0.5423,0.4583,-44.4000,16.2000,7.9500,9.2320,1.3479,-0.5555,-0.0813,0.1263,0.0501,-62.7000,29.5500,-39.3000,3.2900,4.1600,-7.9900,0.0120,-0.0164,-0.0218,2.2500,-34.0625,18.0000,156.5625,20.9375,-150.6250,0
585.598,9.5816,1.1325,1.6903,0.1953,0.5204,0.4151,-45.4500,14.7000,7.6500,9.2320,1.3479,-0.5555,-0.0813,0.1263,0.0501,-62.7000,29.5500,-39.3000,3.2900,4.1600,-7.9900,0.0120,-0.0175,-0.0229,2.6875,-34.5000,17.1875,156.2500,20.9375,-150.6875,0
585.603,9.5816,1.2234,1.6544,0.3696,0.4740,0.3635,-45.4500,14.7000,7.6500,9.0764,1.4581,-0.9984,-0.1380,0.1367,0.0469,-63.1500,30.6000,-40.0500,3.3300,4.1400,-8.0100,0.0120,-0.0175,-0.0229,2.6875,-34.5000,17.1875,156.2500,20.9375,-150.6875,0
585.608,9.5816,1.2234,1.6544,0.3696,0.4740,0.3635,-45.0000,13.5000,8.1000,9.0764,1.4581,-0.9984,-0.1380,0.1367,0.0469,-63.1500,30.6000,-40.0500,3.3300,4.1400,-8.0100,0.0164,-0.0240,-0.0251,2.6875,-34.5000,17.1875,156.2500,20.8750,-150.6875,0
585.613,9.9431,1.4030,1.3862,0.4890,0.4647,0.3107,-45.0000,13.5000,8.1000,9.0357,1.7526,-1.3503,-0.1351,0.1673,0.0458,-63.3000,30.9000,-38.1000,3.3700,4.1800,-7.9800,0.0164,-0.0240,-0.0251,2.6875,-34.5000,17.1875,156.2500,20.8750,-150.6875,0
585.618,9.9431,1.4030,1.3862,0.4890,0.4647,0.3107,-44.4000,13.9500,9.0000,9.0357,1.7526,-1.3503,-0.1351,0.1673,0.0458,-63.3000,30.9000,-38.1000,3.3700,4.1800,-7.9800,0.0251,-0.0305,-0.0349,2.6875,-34.5000,17.1875,156.2500,20.8750,-150.7500,0
585.623,10.0604,1.6113,1.0726,0.5673,0.3794,0.2574,-44.4000,13.9500,9.0000,8.9974,2.1715,-1.4629,-0.0813,0.2030,0.0464,-62.7000,28.6500,-38.5500,3.3100,4.1100,-8.0400,0.0251,-0.0305,-0.0349,2.6875,-34.5000,17.1875,156.1875,20.8125,-150.7500,0
585.632,10.0269,1.9417,0.6512,0.6035,0.3397,0.2145,-43.5000,14.5500,8.8500,9.1315,2.2218,-1.5227,-0.0274,0.2545,0.0536,-62.7000,28.6500,-38.5500,3.3100,4.1100,-8.0400,0.0240,-0.0327,-0.0338,2.6875,-34.5000,17.1875,156.1875,20.8125,-150.7500,0
585.638,10.0269,1.9417,0.6512,0.6035,0.3397,0.2145,-43.5000,14.5500,8.8500,9.2608,2.0710,-1.4413,-0.0274,0.2545,0.0536,-62.7000,28.6500,-38.5500,3.3100,4.1100,-8.0400,0.0305,-0.0393,-0.0338,2.6875,-34.5000,17.1875,156.1875,20.8125,-150.8125,0
585.644,9.9192,2.0686,0.1293,0.5734,0.3200,0.1761,-43.5000,14.5500,8.8500,9.2608,2.0710,-1.4413,0.0224,0.2934,0.0658,-62.5500,31.2000,-39.6000,3.3000,4.1300,-8.0100,0.0305,-0.0393,-0.0338,2.6875,-34.5000,17.1875,156.1875,20.8125,-150.8125,0
585.648,9.9192,2.0686,0.1293,0.5734,0.3200,0.1761,-44.5500,15.0000,7.3500,9.3733,1.8555,-1.2426,0.0293,0.3392,0.0797,-62.5500,31.2000,-39.6000,3.2400,4.1500,-8.0400,0.0305,-0.0447,-0.0349,3.5000,-35.2500,16.7500,155.9375,20.7500,-150.8125,0
585.653,10.0006,1.9609,-0.0694,0.4748,0.3198,0.1410,-44.5500,15.0000,7.3500,9.3733,1.8555,-1.2426,0.0293,0.3392,0.0797,-62.4000,28.6500,-36.7500,3.2400,4.1500,-8.0400,0.0305,-0.0447,-0.0349,3.5000,-35.2500,16.7500,155.9375,20.7500,-150.8125,0
585.658,10.0006,1.9609,-0.0694,0.4748,0.3198,0.1410,-42.3000,13.6500,7.9500,9.4403,1.7669,-0.8212,-0.0195,0.3714,0.1029,-62.4000,28.6500,-36.7500,3.2400,4.1500,-8.0400,0.0284,-0.0469,-0.0349,3.5000,-35.2500,16.7500,155.8750,20.6875,-150.8750,0
585.663,9.7324,1.5897,-0.1460,0.3160,0.2763,0.1135,-42.3000,13.6500,7.9500,9.4403,1.7669,-0.8212,-0.0195,0.3714,0.1029,-64.5000,28.5000,-37.6500,3.2500,4.1500,-8.0100,0.0284,-0.0469,-0.0349,3.5000,-35.2500,16.7500,155.8750,20.6875,-150.8750,0
585.668,9.7324,1.5897,-0.1460,0.3160,0.2763,0.1135,-45.0000,15.0000,6.7500,9.5696,1.6975,-0.4597,-0.0906,0.3706,0.1172,-64.5000,28.5000,-37.6500,3.2500,4.1500,-8.0100,0.0327,-0.0480,-0.0295,3.5000,-35.2500,16.7500,155.8750,20.6875,-150.8750,0
585.673,9.7229,1.2091,0.0024,0.1170,0.2766,0.1007,-45.0000,15.0000,6.7500,9.5696,1.6975,-0.4597,-0.0906,0.3706,0.1172,-63.4500,29.8500,-36.7500,3.1000,4.2700,-7.9700,0.0327,-0.0480,-0.0295,3.5000,-35.2500,16.7500,155.8750,20.6875,-150.8750,0
585.682,9.6079,0.8859,0.2203,-0.1164,0.2702,0.1114,-45.1500,14.7000,8.7000,9.4403,1.6281,-0.1987,-0.1647,0.3768,0.1244,-62.4000,29.8500,-37.2000,3.0900,4.3800,-7.9600,0.0425,-0.0415,-0.0131,3.5000,-35.2500,16.7500,155.8750,20.6250,-150.9375,0
585.688,9.6079,0.8859,0.2203,-0.1164,0.2702,0.1114,-45.1500,14.7000,8.7000,9.4523,1.4605,-0.1173,-0.2334,0.3970,0.1500,-62.4000,29.8500,-37.2000,3.3100,4.2000,-7.9600,0.0556,-0.0469,-0.0065,3.5000,-35.2500,16.7500,155.8750,20.6250,-151.0000,0
585.694,9.7612,0.7111,0.4525,-0.3373,0.2414,0.1346,-45.1500,14.7000,8.7000,9.4523,1.4605,-0.1173,-0.2334,0.3970,0.1500,-63.1500,28.3500,-39.0000,3.3100,4.2000,-7.9600,0.0556,-0.0469,-0.0065,3.5000,-35.2500,16.7500,155.8750,20.6250,-151.0000,0
585.699,9.7612,0.7111,0.4525,-0.3373,0.2414,0.1346,-43.6500,13.9500,9.0000,9.6055,1.4054,-0.1365,-0.2590,0.4064,0.1641,-63.1500,28.3500,-39.0000,3.3100,4.2000,-7.9600,0.0556,-0.0469,-0.0065,2.6875,-34.5000,17.1875,155.6875,20.5625,-151.0625,0
585.704,9.8306,0.7997,0.6105,-0.4911,0.1868,0.1705,-43.6500,13.9500,9.0000,9.6055,1.4054,-0.1365,-0.2590,0.4064,0.1641,-63.1500,28.3500,-39.0000,3.2800,4.1400,-8.0000,0.0687,-0.0600,-0.0120,2.6875,-34.5000,17.1875,155.6875,20.5625,-151.0625,0
585.708,9.8306,0.7997,0.6105,-0.4911,0.1868,0.1705,-45.0000,15.3000,8.5500,9.5696,1.5227,-0.3639,-0.2750,0.4375,0.1759,-63.1500,28.3500,-39.0000,3.2800,4.1400,-8.0000,0.0687,-0.0600,-0.0120,2.6875,-34.5000,17.1875,155.6875,20.5000,-151.0625,0
585.713,9.7444,0.8978,0.8499,-0.5772,0.1687,0.1969,-45.0000,15.3000,8.5500,9.5696,1.5227,-0.3639,-0.2750,0.4375,0.1759,-64.0500,28.9500,-38.8500,3.2700,4.1200,-8.0300,0.0720,-0.0709,-0.0120,2.6875,-34.5000,17.1875,155.6875,20.5000,-151.0625,0
585.718,9.7444,0.8978,0.8499,-0.5772,0.1687,0.1969,-44.8500,13.6500,8.2500,9.5648,1.6017,-0.0599,-0.2702,0.4274,0.1860,-64.0500,28.9500,-38.8500,3.2700,4.1200,-8.0300,0.0774,-0.0698,-0.0065,2.6875,-34.5000,17.1875,155.6875,20.5000,-151.1250,0
585.724,9.5864,1.0151,1.1085,-0.6206,0.1455,0.2180,-44.8500,13.6500,8.2500,9.5648,1.6017,-0.0599,-0.2702,0.4274,0.1860,-64.0500,28.9500,-38.8500,3.0400,4.2700,-8.0200,0.0774,-0.0698,-0.0065,2.6875,-34.5000,17.1875,155.6875,20.5000,-151.1250,0
585.733,9.5074,1.0606,1.4796,-0.6379,0.1402,0.2150,-44.5500,15.3000,8.5500,9.3948,1.6424,0.2203,-0.2001,0.4354,0.1876,-63.3000,29.2500,-38.4000,3.1700,4.1700,-8.0500,0.0851,-0.0622,0.0011,2.6875,-34.5000,17.1875,155.6875,20.4375,-151.1875,0
585.737,9.5074,1.0606,1.4796,-0.6379,0.1402,0.2150,-44.5500,16.0500,8.8500,9.3733,1.7382,0.3711,-0.1346,0.4663,0.1951,-63.3000,29.2500,-38.4000,3.1700,4.1700,-8.0500,0.0873,-0.0589,0.0033,2.6875,-34.5000,17.1875,155.6875,20.3750,-151.3125,0
585.744,9.5002,1.1061,1.6448,-0.6297,0.1783,0.2140,-44.5500,16.0500,8.8500,9.6031,1.6328,0.4477,-0.1346,0.4663,0.1951,-64.5000,29.2500,-36.6000,3.3000,4.0700,-8.0600,0.0873,-0.0589,0.0033,2.6875,-34.5000,17.1875,155.6875,20.3750,-151.3125,0
585.749,9.4164,1.0439,1.8172,-0.5729,0.1852,0.2006,-44.5500,16.0500,8.8500,9.6031,1.6328,0.4477,-0.1002,0.4802,0.2086,-64.5000,29.2500,-36.6000,3.3000,4.0700,-8.0600,0.0862,-0.0644,0.0011,2.6875,-34.8750,17.5625,155.5625,20.3750,-151.3750,0
585.754,9.4164,1.0439,1.8172,-0.5729,0.1852,0.2006,-44.5500,16.0500,8.8500,9.6079,1.2929,0.5722,-0.1002,0.4802,0.2086,-65.1000,29.5500,-37.9500,3.2200,4.1100,-8.0200,0.0862,-0.0644,0.0011,2.6875,-34.8750,17.5625,155.5625,20.3750,-151.3750,0
585.758,9.3015,0.9266,2.0016,-0.5137,0.2065,0.1855,-45.3000,15.0000,8.8500,9.6079,1.2929,0.5722,-0.1031,0.4786,0.2078,-65.1000,29.5500,-37.9500,3.2200,4.1100,-8.0200,0.0873,-0.0622,0.0000,2.6875,-34.8750,17.5625,155.5625,20.3125,-151.4375,0
585.763,9.3015,0.9266,2.0016,-0.5137,0.2065,0.1855,-45.3000,15.0000,8.8500,9.5098,1.0511,0.6512,-0.1031,0.4786,0.2078,-62.7000,29.8500,-37.9500,3.2300,4.2000,-8.0100,0.0873,-0.0622,0.0000,2.6875,-34.8750,17.5625,155.5625,20.3125,-151.4375,0
585.768,9.2273,0.8308,2.1524,-0.4293,0.2353,0.1935,-44.2500,14.5500,8.8500,9.5098,1.0511,0.6512,-0.1463,0.4628,0.2182,-62.7000,29.8500,-37.9500,3.2300,4.2000,-8.0100,0.0916,-0.0709,-0.0033,2.6875,-34.8750,17.5625,155.5625,20.3125,-151.5000,0
585.774,9.2273,0.8308,2.1524,-0.4293,0.2353,0.1935,-44.2500,14.5500,8.8500,9.4595,0.9505,0.7542,-0.2366,0.4658,0.2100,-63.4500,29.1000,-36.4500,3.2100,4.1100,-8.0900,0.0916,-0.0709,-0.0033,2.6875,-34.8750,17.5625,155.5625,20.2500,-151.5625,0
585.783,9.5146,0.7949,2.1165,-0.3472,0.2801,0.1871,-44.8500,13.9500,7.6500,9.5385,1.0439,0.7877,-0.2366,0.4658,0.2100,-63.1500,29.8500,-37.9500,3.2200,4.1200,-8.0700,0.0938,-0.0731,0.0011,2.6875,-34.8750,17.5625,155.5625,20.2500,-151.5625,0
585.789,9.7085,0.8092,2.1332,-0.2950,0.3216,0.1873,-44.2500,13.8000,8.8500,9.5385,1.0439,0.7877,-0.3056,0.4591,0.2198,-63.1500,29.8500,-37.9500,3.1900,4.0900,-8.0700,0.0971,-0.0764,0.0044,2.6875,-34.8750,17.5625,155.5625,20.1875,-151.6250,0
585.794,9.7085,0.8092,2.1332,-0.2950,0.3216,0.1873,-44.2500,13.8000,8.8500,9.4978,1.1037,0.7709,-0.3190,0.4487,0.2150,-63.1500,29.8500,-37.9500,3.1900,4.0900,-8.0700,0.0971,-0.0764,0.0044,2.6875,-34.8750,17.5625,155.5625,20.1875,-151.6250,0
585.799,9.1842,0.7590,2.0470,-0.2134,0.2737,0.1972,-44.2500,13.8000,8.8500,9.4978,1.1037,0.7709,-0.3190,0.4487,0.2150,-63.1500,29.8500,-37.9500,3.2700,4.1000,-8.0700,0.0960,-0.0818,0.0076,2.6875,-35.5625,17.5625,155.5000,20.1250,-151.6875,0
585.804,9.1842,0.7590,2.0470,-0.2134,0.2737,0.1972,-44.2500,13.8000,8.8500,9.4834,1.0965,0.7135,-0.2705,0.4580,0.2177,-65.5500,28.5000,-35.8500,3.2700,4.1000,-8.0700,0.0960,-0.0818,0.0076,2.6875,-35.5625,17.5625,155.5000,20.1250,-151.6875,0
585.812,9.3709,0.8236,1.8507,-0.1394,0.2625,0.2001,-44.2500,13.8000,8.8500,9.4667,1.0774,0.7183,-0.2388,0.4602,0.2252,-65.1000,30.6000,-36.7500,3.2700,4.0600,-8.0700,0.0993,-0.0894,0.0044,2.6875,-35.5625,17.5625,155.5000,20.1250,-151.7500,0
585.817,9.4379,0.6776,1.5562,-0.1138,0.2936,0.2132,-45.1500,13.9500,10.8000,9.4667,1.0774,0.7183,-0.2388,0.4602,0.2252,-65.1000,30.6000,-36.7500,3.2700,4.0600,-8.0700,0.0993,-0.0938,0.0087,2.6875,-35.5625,17.5625,155.5625,20.0625,-151.8750,0
585.823,9.4379,0.6776,1.5562,-0.1138,0.2936,0.2132,-44.5500,13.0500,9.9000,9.4739,1.0391,0.6201,-0.2110,0.4746,0.2313,-65.4000,28.6500,-36.0000,3.2300,3.9600,-8.1400,0.0993,-0.0938,0.0087,2.6875,-35.5625,17.5625,155.5625,20.0625,-151.8750,0
585.832,9.3757,0.7183,1.3120,-0.0893,0.3190,0.2228,-44.5500,13.0500,9.9000,9.4667,1.1803,0.6081,-0.1879,0.4847,0.2273,-64.5000,29.7000,-35.1000,3.2400,3.9600,-8.1200,0.0862,-0.0927,0.0087,2.6875,-35.5625,17.5625,155.5625,20.0000,-151.9375,0
585.837,9.4810,0.6177,1.1684,-0.0855,0.3000,0.2228,-44.4000,13.2000,7.9500,9.4667,1.1803,0.6081,-0.1879,0.4847,0.2273,-64.5000,29.7000,-35.1000,3.2400,3.9600,-8.1200,0.0742,-0.0884,0.0098,2.6875,-35.5625,17.5625,155.5625,19.9375,-152.0000,0
585.844,9.4810,0.6177,1.1684,-0.0855,0.3000,0.2228,-45.1500,12.9000,9.7500,9.4595,1.3096,0.6345,-0.1487,0.4924,0.2308,-64.6500,28.6500,-34.9500,3.1700,3.9700,-8.1000,0.0742,-0.0884,0.0098,2.6875,-35.5625,17.5625,155.5625,19.9375,-152.0000,0
585.848,9.3398,0.7063,1.0534,-0.0877,0.2982,0.2273,-45.1500,12.9000,9.7500,9.4595,1.3096,0.6345,-0.1487,0.4924,0.2308,-64.6500,28.6500,-34.9500,3.1700,3.9700,-8.1000,0.0709,-0.0818,0.0109,2.2500,-34.0625,18.0000,155.5000,19.9375,-152.0625,0
585.853,9.3398,0.7063,1.0534,-0.0877,0.2982,0.2273,-45.1500,12.9000,9.7500,9.4068,1.5275,0.6321,-0.0994,0.5124,0.2364,-64.3500,28.6500,-36.4500,3.0400,4.1100,-8.1000,0.0709,-0.0818,0.0109,2.2500,-34.0625,18.0000,155.5000,19.9375,-152.0625,0
585.858,9.4332,0.8978,0.8787,-0.1045,0.2998,0.2401,-45.1500,12.9000,9.7500,9.4068,1.5275,0.6321,-0.0994,0.5124,0.2364,-64.3500,28.6500,-36.4500,3.0400,4.1100,-8.1000,0.0709,-0.0818,0.0109,2.2500,-34.0625,18.0000,155.5000,19.8750,-152.1250,0
585.863,9.4332,0.8978,0.8787,-0.1045,0.2998,0.2401,-45.3000,13.5000,9.6000,9.2847,1.4030,0.6991,-0.0781,0.5356,0.2446,-64.3500,28.6500,-36.4500,3.1600,4.0800,-8.1100,0.0764,-0.0753,0.0109,2.2500,-34.0625,18.0000,155.5000,19.8750,-152.1250,0
585.868,9.3134,1.0558,1.0487,-0.1159,0.2284,0.2465,-45.3000,13.5000,9.6000,9.4882,1.3982,0.5842,-0.0781,0.5356,0.2446,-64.3500,28.6500,-36.4500,3.1600,4.0800,-8.1100,0.0774,-0.0774,0.0033,2.2500,-34.0625,18.0000,155.5000,19.8125,-152.1875,0
585.874,9.3134,1.0558,1.0487,-0.1159,0.2284,0.2465,-45.4500,12.4500,10.5000,9.4882,1.3982,0.5842,-0.1085,0.5545,0.2633,-64.0500,28.9500,-34.0500,3.1700,4.0700,-8.0900,0.0774,-0.0774,0.0033,2.2500,-34.0625,18.0000,155.5000,19.8125,-152.1875,0
585.883,9.2967,1.1947,1.0989,-0.1332,0.2840,0.2494,-44.4000,13.6500,10.0500,9.3948,1.4700,0.4142,-0.1226,0.5441,0.2721,-64.0500,28.9500,-34.0500,3.1000,4.1800,-8.0700,0.0807,-0.0807,0.0000,2.2500,-34.0625,18.0000,155.5000,19.8125,-152.2500,0
585.887,9.3781,1.2546,1.2210,-0.1466,0.2782,0.2459,-44.4000,13.6500,10.0500,9.1913,1.8531,-0.0024,-0.1226,0.5441,0.2721,-64.0500,28.9500,-34.0500,3.1000,4.1800,-8.0700,0.0927,-0.0818,0.0011,2.2500,-34.0625,18.0000,155.5000,19.7500,-152.3125,0
585.894,9.4212,1.4940,1.4413,-0.1684,0.2601,0.2305,-44.2500,13.0500,9.6000,9.1913,1.8531,-0.0024,-0.1639,0.5577,0.2880,-65.5500,28.0500,-33.3000,3.0600,4.1800,-7.9700,0.0927,-0.0818,0.0011,2.2500,-34.0625,18.0000,155.5000,19.7500,-152.3125,0
585.899,9.4212,1.4940,1.4413,-0.1684,0.2601,0.2305,-44.2500,13.0500,9.6000,9.2919,2.1811,0.2107,-0.0682,0.5886,0.3166,-65.5500,28.0500,-33.3000,3.0600,4.1800,-7.9700,0.1134,-0.0873,0.0000,3.0625,-34.8750,18.0000,155.3750,19.6875,-152.3750,0
585.904,9.4978,1.6496,1.4772,-0.2001,0.2582,0.2126,-44.2500,13.0500,9.6000,9.2919,2.1811,0.2107,-0.0682,0.5886,0.3166,-65.2500,28.9500,-35.5500,2.9500,4.3200,-7.9700,0.1134,-0.0873,0.0000,3.0625,-34.8750,18.0000,155.3750,19.6875,-152.3750,0
585.912,9.4978,1.6496,1.4772,-0.2001,0.2582,0.2126,-44.2500,13.0500,9.6000,9.1195,1.9728,0.5291,-0.0373,0.6030,0.3206,-65.4000,28.3500,-34.2000,2.9600,4.3000,-8.0200,0.1429,-0.0949,0.0033,3.0625,-34.8750,18.0000,155.3750,19.6250,-152.4375,0
585.917,9.4715,1.7885,1.5323,-0.2057,0.2409,0.1780,-44.2500,13.0500,9.6000,9.1195,1.6592,0.3519,-0.0373,0.6030,0.3206,-65.4000,28.3500,-34.2000,2.9600,4.3000,-8.0200,0.1582,-0.1069,0.0175,3.0625,-34.8750,18.0000,155.3750,19.5625,-152.5625,0
585.923,9.3901,1.8004,1.5443,-0.2465,0.2446,0.1508,-45.0000,15.0000,9.6000,9.1195,1.6592,0.3519,-0.0376,0.6608,0.3552,-65.8500,29.8500,-33.7500,3.1500,4.1200,-8.1600,0.1582,-0.1069,0.0175,3.0625,-34.8750,18.0000,155.3750,19.5625,-152.5625,0
585.931,9.3901,1.8004,1.5443,-0.2465,0.2446,0.1508,-43.9500,15.0000,9.6000,9.3805,1.5467,0.4166,-0.1266,0.6699,0.3882,-65.8500,29.8500,-33.7500,3.0800,4.1000,-8.1400,0.1647,-0.1167,0.0153,3.0625,-34.8750,18.0000,155.3750,19.5000,-152.6875,0
585.936,9.4379,1.7909,1.5275,-0.3211,0.2332,0.1282,-43.9500,12.0000,9.6000,9.1004,1.6209,0.3831,-0.1266,0.6699,0.3882,-64.8000,28.0500,-33.3000,3.0800,4.1000,-8.1400,0.1647,-0.1167,0.0153,3.0625,-34.8750,18.0000,155.4375,19.4375,-152.7500,0
585.944,9.4308,1.9010,1.6209,-0.3936,0.2145,0.1047,-45.0000,13.5000,9.6000,9.1004,1.6209,0.3831,-0.2142,0.6859,0.4234,-65.1000,28.6500,-34.5000,3.0300,4.1800,-8.1400,0.1647,-0.1167,0.0153,3.0625,-34.8750,18.0000,155.4375,19.4375,-152.7500,0
585.948,9.4308,1.9010,1.6209,-0.3936,0.2145,0.1047,-45.0000,13.5000,9.6000,9.0070,1.8076,0.3136,-0.2742,0.7184,0.4586,-65.1000,28.6500,-34.5000,3.0300,4.1800,-8.1400,0.1647,-0.1167,0.0153,3.0625,-34.5000,18.3750,155.3125,19.3750,-152.8750,0
585.953,9.4930,1.8316,1.5706,-0.4455,0.1887,0.0743,-45.4500,12.1500,9.3000,9.0070,1.8076,0.3136,-0.2742,0.7184,0.4586,-65.1000,28.6500,-34.5000,3.0900,4.1700,-8.1500,0.1647,-0.1167,0.0164,3.0625,-34.5000,18.3750,155.3125,19.3750,-152.8750,0
585.958,9.4930,1.8316,1.5706,-0.4455,0.1887,0.0743,-45.4500,12.1500,9.3000,9.0692,1.9417,0.4477,-0.3088,0.7418,0.5015,-65.1000,28.6500,-34.5000,3.0900,4.1700,-8.1500,0.1647,-0.1167,0.0164,3.0625,-34.5000,18.3750,155.3125,19.3125,-153.0000,0
585.963,9.3278,1.6400,1.5538,-0.4879,0.1346,0.0416,-45.4500,12.1500,9.3000,9.0692,1.9417,0.4477,-0.3088,0.7418,0.5015,-65.5500,29.2500,-34.3500,2.9700,4.1800,-8.2200,0.1625,-0.1200,0.0218,3.0625,-34.5000,18.3750,155.3125,19.3125,-153.0000,0
585.968,9.3278,1.6400,1.5538,-0.4879,0.1346,0.0416,-45.4500,12.1500,9.3000,9.1818,1.6544,0.8116,-0.3275,0.7826,0.5380,-65.5500,29.2500,-34.3500,2.9700,4.1800,-8.2200,0.1593,-0.1200,0.0295,3.0625,-34.5000,18.3750,155.3125,19.2500,-153.0625,0
585.974,9.2512,1.4509,1.5993,-0.5356,0.1002,-0.0059,-44.5500,13.0500,9.6000,9.1818,1.6544,0.8116,-0.3275,0.7826,0.5380,-67.3500,27.4500,-33.0000,2.9700,4.2500,-8.1700,0.1593,-0.1200,0.0295,3.0625,-34.5000,18.3750,155.3125,19.2500,-153.0625,0
585.983,9.1961,1.1660,1.8244,-0.6051,0.0797,-0.0341,-45.0000,12.7500,11.4000,9.3039,1.3503,1.0439,-0.3483,0.8060,0.5569,-67.2000,27.7500,-32.1000,2.9900,4.3300,-8.1700,0.1636,-0.1222,0.0404,3.0625,-34.5000,18.3750,155.3125,19.1875,-153.1875,0
585.988,9.1961,1.1660,1.8244,-0.6051,0.0797,-0.0341,-45.0000,12.7500,11.4000,9.4332,0.8212,1.5586,-0.4002,0.8138,0.5694,-67.2000,27.7500,-32.1000,2.9900,4.3300,-8.1700,0.1669,-0.1233,0.0600,3.0625,-34.5000,18.3750,155.3750,19.1250,-153.2500,0
585.994,9.1435,0.8380,1.9824,-0.7051,0.0901,-0.0485,-45.7500,13.0500,9.1500,9.4284,0.3160,2.0351,-0.4002,0.8138,0.5694,-66.9000,27.9000,-33.4500,2.9200,4.4000,-8.2100,0.1669,-0.1233,0.0600,3.0625,-34.5000,18.3750,155.3750,19.1250,-153.2500,0
585.999,9.1435,0.8380,1.9824,-0.7051,0.0901,-0.0485,-45.7500,13.0500,9.1500,9.4284,0.3160,2.0351,-0.4634,0.8282,0.5958,-66.9000,27.9000,-33.4500,3.0300,4.2600,-8.2900,0.1647,-0.1265,0.0840,3.0625,-34.5000,18.0000,155.3750,19.1250,-153.3750,0
586.004,9.1889,0.4788,2.2697,-0.8247,0.0917,-0.0413,-45.0000,14.5500,10.9500,9.7923,0.6081,2.5546,-0.5145,0.8103,0.6352,-66.7500,29.2500,-32.5500,3.0300,4.2600,-8.2900,0.1647,-0.1265,0.0840,3.0625,-34.5000,18.0000,155.3750,19.1250,-153.3750,0
586.012,9.4547,0.2107,2.1979,-0.9225,0.0528,-0.0338,-45.0000,14.5500,10.9500,9.7923,0.6081,2.5546,-0.5145,0.8103,0.6352,-66.7500,29.2500,-32.5500,3.0500,4.0300,-8.2800,0.1494,-0.1124,0.0993,3.0625,-34.5000,18.0000,155.4375,19.0625,-153.5000,0
586.018,9.4547,0.2107,2.1979,-0.9225,0.0528,-0.0338,-45.0000,14.5500,10.9500,10.2951,2.2865,1.8842,-0.6712,0.7623,0.7144,-66.3000,27.7500,-32.8500,3.0500,4.0300,-8.2800,0.0916,-0.0785,0.1167,3.0625,-34.5000,18.0000,155.5000,19.0625,-153.5625,0
586.024,10.1179,-0.1006,2.1668,-0.9678,0.0147,-0.0400,-45.0000,14.5500,10.9500,10.0916,0.2753,2.1668,-0.3168,0.8316,0.7064,-66.3000,27.7500,-32.8500,2.8000,3.4700,-8.9600,0.0916,-0.0785,0.1167,3.0625,-34.5000,18.0000,155.5625,19.0625,-153.5625,0
586.033,9.8641,-0.1652,2.4277,-1.0291,-0.0091,-0.0328,-43.2000,13.0500,11.7000,9.9144,-1.2594,2.2242,-0.3445,0.8700,0.6683,-66.3000,27.7500,-32.8500,3.1600,4.3800,-8.3200,-0.0142,-0.0055,0.1276,3.0625,-34.5000,18.0000,155.5625,19.0625,-153.5625,0
586.043,9.5816,-0.2562,2.2793,-0.9952,0.0437,-0.0221,-43.3500,13.9500,12.6000,9.9503,-1.1253,1.6592,-0.6448,0.8180,0.6875,-67.9500,27.3000,-31.3500,3.0700,4.6500,-8.1400,-0.1036,0.0327,0.1265,3.0625,-34.5000,18.0000,155.6250,19.1250,-153.5625,0
586.048,9.5816,-0.2562,2.2793,-0.8236,0.0464,0.0008,-43.3500,13.9500,12.6000,9.9503,-1.1253,1.6592,-0.6448,0.8180,0.6875,-67.9500,27.3000,-31.3500,3.0700,4.6500,-8.1400,-0.1036,0.0327,0.1265,3.0625,-34.5000,18.0000,155.5625,19.1875,-153.5000,0
586.053,9.8976,-0.2490,2.1548,-0.8236,0.0464,0.0008,-45.3000,13.8000,11.7000,10.3238,0.2370,2.0470,-0.7815,0.7938,0.7442,-67.9500,27.3000,-31.3500,2.8400,4.1400,-8.5400,-0.1724,0.0305,0.1647,3.7500,-33.3750,18.0000,155.5625,19.1875,-153.5000,0
586.058,10.8242,-0.0072,1.9465,-0.7317,-0.0306,-0.0104,-45.3000,13.8000,11.7000,10.3238,0.2370,2.0470,-0.7815,0.7938,0.7442,-68.2500,28.0500,-32.1000,2.8400,4.1400,-8.5400,-0.1724,0.0305,0.1647,3.7500,-33.3750,18.0000,155.6875,19.2500,-153.3750,0
586.063,10.8242,-0.0072,1.9465,-0.7317,-0.0306,-0.0104,-43.5000,13.8000,11.4000,11.1091,0.7183,2.0662,-0.6163,0.8018,0.7794,-68.2500,28.0500,-32.1000,2.8700,3.6300,-8.9200,-0.2858,0.0774,0.1974,3.7500,-33.3750,18.0000,155.6875,19.2500,-153.3750,0
586.068,11.3485,0.3136,2.0806,-0.7818,-0.0903,-0.0211,-43.5000,13.8000,11.4000,11.1091,0.7183,2.0662,-0.6163,0.8018,0.7794,-67.5000,26.5500,-29.5500,2.8700,3.6300,-8.9200,-0.4352,0.1800,0.2138,3.7500,-33.3750,18.0000,155.8125,19.3750,-153.1250,0
586.074,11.3485,0.3136,2.0806,-0.7818,-0.0903,-0.0211,-43.5000,13.8000,11.4000,11.8202,-0.1867,2.0662,-0.4884,0.8196,0.7845,-67.9500,26.5500,-29.5500,2.8100,4.0500,-9.0500,-0.4352,0.1800,0.2138,3.7500,-33.3750,18.0000,156.0000,19.6250,-152.8125,0
586.083,12.1003,0.5100,2.0399,-0.7951,-0.1636,-0.0578,-44.8500,12.4500,13.3500,12.2535,-1.4653,1.6400,-0.5207,0.8615,0.7866,-67.9500,26.5500,-29.5500,2.7800,4.3300,-9.2100,-0.6065,0.3043,0.2542,3.7500,-33.3750,18.0000,156.1875,19.9375,-152.4375,0
586.093,12.7994,0.5938,1.9441,-0.7671,-0.1567,-0.0781,-44.2500,12.3000,13.5000,12.4307,-2.3008,1.2258,-0.7101,0.9084,0.7759,-68.1000,26.4000,-30.9000,3.6000,5.1300,-9.3300,-0.7810,0.4767,0.3523,3.7500,-33.3750,18.0000,156.1875,19.9375,-152.4375,0
586.098,12.9263,0.5794,1.8675,-0.6664,-0.2193,-0.0986,-44.2500,12.3000,13.5000,12.4307,-2.3008,1.2258,-0.7101,0.9084,0.7759,-66.7500,25.0500,-29.2500,3.6000,5.1300,-9.3300,-0.7810,0.4767,0.3523,3.7500,-33.3750,18.0000,156.1875,19.9375,-152.4375,0
586.103,12.9263,0.5794,1.8675,-0.6664,-0.2193,-0.0986,-44.4000,13.6500,12.1500,12.2487,-2.3032,1.0534,-0.8998,0.9382,0.7410,-66.7500,25.0500,-29.2500,3.0200,5.5700,-9.2100,-0.9468,0.6938,0.5334,3.5000,-34.0625,17.1875,156.4375,20.4375,-151.9375,0
586.108,12.7252,0.4812,1.5730,-0.5868,-0.2531,-0.1186,-43.9500,14.2500,12.1500,12.2487,-2.3032,1.0534,-0.8998,0.9382,0.7410,-68.7000,26.1000,-28.8000,3.0200,5.5700,-9.2100,-0.9468,0.6938,0.5334,3.5000,-34.0625,17.1875,156.4375,20.4375,-151.9375,0
586.113,12.7252,0.4812,1.5730,-0.5868,-0.2531,-0.1186,-43.9500,14.2500,13.0500,12.0237,-2.0207,0.7518,-0.9377,0.9787,0.6923,-68.7000,26.1000,-28.8000,4.3600,5.3800,-9.1600,-1.1214,0.8999,0.7407,3.5000,-34.0625,17.1875,156.8750,21.0625,-151.3750,0
586.118,12.2032,0.3903,1.1588,-0.5343,-0.3635,-0.1282,-43.2000,13.5000,14.2500,11.4682,-1.5730,0.9170,-0.9377,0.9787,0.6923,-68.7000,26.1000,-28.8000,4.3600,5.3800,-9.1600,-1.2054,0.9905,0.9316,3.5000,-34.0625,17.1875,157.3750,21.7500,-150.7500,0
586.124,12.2032,0.3903,1.1588,-0.5343,-0.3635,-0.1282,-43.2000,13.5000,14.2500,11.4682,-1.5730,0.9170,-1.0643,0.9718,0.6534,-68.7000,26.1000,-28.8000,0.7200,4.3700,-9.8200,-1.2054,0.9905,0.9316,3.5000,-34.0625,17.1875,158.0000,22.7500,-150.3125,0
586.133,12.0931,0.5770,0.6177,-0.4602,-0.3976,-0.1463,-43.2000,13.5000,14.2500,11.3270,-1.3671,1.3144,-1.0976,0.9758,0.6704,-67.9500,26.1000,-27.7500,2.4200,4.8900,-9.0900,-0.9414,1.3461,1.2152,3.5000,-34.0625,17.1875,158.0000,22.7500,-150.3125,0
586.143,11.5089,0.9409,0.0910,-0.4290,-0.5313,-0.1745,-43.5000,13.0500,12.0000,11.2336,-0.6800,1.0343,-1.1991,0.9912,0.7477,-69.4500,25.8000,-27.3000,2.4000,3.3400,-9.1400,-0.6687,1.6352,1.3777,3.5000,-34.0625,17.1875,158.6250,23.9375,-150.0625,0
586.148,10.8481,1.2809,-0.3639,-0.4386,-0.6808,-0.2252,-43.9500,14.5500,12.0000,11.4922,0.0599,0.4597,-1.2143,1.0299,0.8543,-68.7000,25.3500,-26.5500,2.4000,3.3400,-9.1400,-0.6687,1.6352,1.3777,3.5000,-34.0625,17.1875,158.6250,23.9375,-150.0625,0
586.153,10.8481,1.2809,-0.3639,-0.4386,-0.6808,-0.2252,-43.9500,14.5500,12.0000,11.4922,0.0599,0.4597,-1.2143,1.0299,0.8543,-68.7000,25.3500,-26.5500,2.5200,3.7300,-8.9600,-0.5836,1.7486,1.4737,1.2500,-35.2500,18.0000,159.2500,25.1875,-149.8125,0
586.158,10.5129,1.6305,-0.7422,-0.4895,-0.8466,-0.2920,-41.1000,12.4500,12.6000,11.3222,0.4453,0.0431,-1.1876,1.0704,0.9526,-68.1000,24.7500,-26.4000,2.5200,3.7300,-8.9600,-0.5836,1.7486,1.4737,1.2500,-35.2500,18.0000,159.2500,25.1875,-149.8125,0
586.163,10.5129,1.6305,-0.7422,-0.4895,-0.8466,-0.2920,-41.1000,12.4500,12.6000,11.3222,0.4453,0.0431,-1.1876,1.0704,0.9526,-68.1000,24.7500,-26.4000,3.1800,3.9600,-8.4100,-0.4789,1.9100,1.4955,1.2500,-35.2500,18.0000,159.8750,26.5000,-149.6250,0
586.168,9.9431,1.9537,-1.2186,-0.5167,-0.9665,-0.3728,-43.2000,13.0500,12.4500,11.1905,0.7302,-0.2586,-1.0661,1.1263,1.0208,-67.9500,22.9500,-24.7500,3.1800,3.9600,-8.4100,-0.4222,2.1260,1.4759,1.2500,-35.2500,18.0000,160.4375,27.9375,-149.4375,0
586.174,9.4020,2.0303,-1.4365,-0.4447,-1.0059,-0.4650,-43.2000,13.0500,12.4500,11.1905,0.7302,-0.2586,-1.0661,1.1263,1.0208,-67.9500,22.9500,-24.7500,3.2200,3.7000,-7.9400,-0.4222,2.1260,1.4759,1.2500,-35.2500,18.0000,161.0625,29.6250,-149.1875,0
586.184,9.4020,2.0303,-1.4365,-0.2971,-1.0643,-0.5734,-43.2000,13.0500,12.4500,10.8050,0.8092,-0.8475,-0.9622,1.2060,1.0251,-68.8500,24.7500,-23.8500,5.5800,5.4200,-7.8700,-0.5683,2.6147,1.6232,1.2500,-35.2500,18.0000,161.0625,29.6250,-149.1875,0
586.194,9.2177,2.7821,-2.4469,-0.2491,-1.1151,-0.6864,-46.5000,15.3000,12.7500,10.5249,0.3328,-0.9433,-0.7911,1.3235,1.0014,-68.8500,24.7500,-23.8500,3.9900,5.6100,-7.5800,-0.4134,2.6453,1.9210,1.2500,-35.2500,18.0000,161.8125,31.4375,-149.0625,0
586.198,9.2177,2.7821,-2.4469,-0.2491,-1.1151,-0.6864,-42.9000,12.9000,12.1500,10.2256,0.0048,-0.7781,-0.6888,1.3880,0.9358,-69.4500,23.8500,-23.7000,3.9900,5.6100,-7.5800,-0.4134,2.6453,1.9210,1.2500,-35.2500,18.0000,162.6875,33.1875,-149.1875,0
586.203,9.5241,2.3703,-1.7621,-0.2180,-1.2971,-0.8098,-42.9000,12.9000,12.1500,10.2256,0.0048,-0.7781,-0.6888,1.3880,0.9358,-69.4500,23.8500,-23.7000,4.2300,6.6100,-7.5100,-0.1189,2.4227,2.1435,-1.6875,-34.5000,16.3750,162.6875,33.1875,-149.1875,0
586.208,9.5241,2.3703,-1.7621,-0.2180,-1.2971,-0.8098,-42.6000,15.1500,12.6000,9.7276,0.1101,-0.4597,-0.6203,1.4568,0.8583,-69.4500,23.8500,-23.7000,4.2300,6.6100,-7.5100,-0.1189,2.4227,2.1435,-1.6875,-34.5000,16.3750,235.0625,35.0625,-149.6250,0
586.213,9.2967,1.7358,-0.5148,-0.3568,-1.3765,-0.8402,-42.6000,15.1500,12.6000,9.7276,0.1101,-0.4597,-0.6203,1.4568,0.8583,-69.4500,23.8500,-23.7000,4.8300,6.5700,-7.5900,0.2411,2.4304,2.4555,-1.6875,-34.5000,16.3750,235.0625,35.0625,-149.6250,0
586.218,9.2967,1.7358,-0.5148,-0.3568,-1.3765,-0.8402,-42.0000,13.8000,12.4500,9.2512,0.7470,0.0407,-0.6576,1.5202,0.7879,-70.2000,22.9500,-23.2500,4.8300,6.5700,-7.5900,0.6174,2.3049,2.7816,-1.6875,-34.5000,16.3750,231.1250,36.9375,-150.5000,0
586.224,9.4691,0.5770,-0.3136,-0.3392,-1.3043,-0.7831,-42.0000,13.8000,12.4500,9.2464,0.8092,0.5770,-0.6576,1.5202,0.7879,-70.2000,22.9500,-23.2500,5.6600,5.7200,-7.5200,0.6174,2.3049,2.7816,-1.6875,-34.5000,16.3750,227.0625,38.8750,-151.6250,0
586.233,9.5098,0.0431,-0.4812,-0.0600,-1.3757,-0.7456,-42.3000,14.7000,12.1500,9.1554,1.0343,1.0415,-0.7637,1.5191,0.7442,-67.6500,23.2500,-23.4000,5.8500,5.7400,-8.2100,0.7832,2.2864,3.0151,-1.6875,-34.5000,16.3750,227.0625,38.8750,-151.6250,0
586.243,9.4020,0.3591,-0.1508,-0.0394,-1.3171,-0.7576,-42.3000,14.7000,12.1500,9.0453,0.9098,1.6376,-0.8532,1.5026,0.7210,-69.7500,22.2000,-20.7000,5.1700,6.9300,-8.2400,0.9261,2.0998,3.0467,-1.6875,-34.5000,16.3750,223.0000,40.6875,-152.8750,0
586.248,9.4020,0.3591,-0.1508,-0.0394,-1.3171,-0.7576,-41.8500,14.4000,11.5500,9.0453,0.9098,1.6376,-0.8703,1.4898,0.7237,-70.3500,22.0500,-20.5500,5.1700,6.9300,-8.2400,0.9261,2.0998,3.0467,-1.6875,-34.5000,16.3750,223.0000,40.6875,-152.8750,0
586.253,9.2488,0.7350,0.1437,-0.1687,-1.2923,-0.7981,-41.8500,14.4000,11.5500,8.6622,0.7590,2.9521,-0.8703,1.4898,0.7237,-70.3500,22.0500,-20.5500,5.0000,6.9300,-7.2400,1.3025,1.8980,3.0216,-6.7500,-34.8750,14.3750,218.8125,42.3750,-154.5625,0
586.258,9.2488,0.7350,0.1437,-0.1687,-1.2923,-0.7981,-41.7000,15.7500,10.2000,8.6622,0.7590,2.9521,-0.6965,1.4743,0.7320,-68.8500,21.6000,-20.8500,5.0000,6.9300,-7.2400,1.3025,1.8980,3.0216,-6.7500,-34.8750,14.3750,218.8125,42.3750,-154.5625,0
586.263,8.9495,1.0175,0.4166,-0.3733,-1.1682,-0.8474,-41.7000,15.7500,10.2000,8.5688,0.2131,4.9153,-0.3525,1.4845,0.7144,-68.8500,21.6000,-20.8500,5.8900,6.1700,-6.8700,1.6013,2.1162,2.9202,-6.7500,-34.8750,14.3750,214.3750,44.1250,-156.3750,0
586.268,8.9495,1.0175,0.4166,-0.3733,-1.1682,-0.8474,-41.1000,15.1500,9.0000,8.5688,0.2131,4.9153,-0.3525,1.4845,0.7144,-69.4500,22.2000,-20.7000,5.8900,6.1700,-6.8700,1.7279,2.4446,2.7445,-6.7500,-34.8750,14.3750,209.8125,45.9375,-158.1875,0
586.274,8.9902,1.1109,0.7590,-0.5081,-0.9558,-0.8833,-41.1000,15.1500,9.0000,8.5138,-0.4764,7.1251,0.1953,1.5428,0.6640,-69.4500,22.2000,-20.7000,7.1700,5.7100,-7.3900,1.7279,2.4446,2.7445,-6.7500,-34.8750,14.3750,205.6875,47.7500,-159.9375,0
586.284,9.4834,1.2378,0.7949,-0.5742,-0.7765,-0.8998,-41.7000,14.5500,11.4000,8.9830,-1.5538,9.7252,0.9395,1.5988,0.5151,-69.4500,22.2000,-20.7000,8.2600,5.9500,-7.9400,1.6352,2.5013,2.4685,-6.7500,-34.8750,14.3750,202.3125,49.4375,-161.3125,0
586.294,10.3166,1.1851,1.2905,-0.5076,-0.6971,-0.9244,-41.7000,14.5500,11.4000,9.3302,-0.3448,9.2871,1.1706,1.3691,0.3107,-69.0000,21.4500,-17.7000,10.0700,7.5500,-8.0000,1.3286,2.5569,1.9995,-6.7500,-34.8750,14.3750,202.3125,49.4375,-161.3125,0
586.299,10.3166,1.1851,1.2905,-0.5076,-0.6971,-0.9244,-41.5500,15.9000,10.8000,9.3302,-0.3448,9.2871,1.1706,1.3691,0.3107,-69.4500,21.0000,-17.4000,10.0700,7.5500,-8.0000,1.3286,2.5569,1.9995,-6.7500,-34.8750,14.3750,202.3125,49.4375,-161.3125,0
586.304,11.0133,0.8739,2.1500,-0.3946,-0.7690,-0.9545,-41.5500,15.9000,10.8000,9.5792,-1.2067,5.6048,0.6470,1.0786,0.0773,-69.4500,21.0000,-17.4000,5.3600,11.5100,-9.0400,0.8334,2.3213,1.3035,-12.6875,-33.0000,16.0000,200.0000,50.8750,-162.1250,0
586.309,11.0133,0.8739,2.1500,-0.3946,-0.7690,-0.9545,-40.6500,14.5500,11.7000,9.5792,-1.2067,5.6048,0.6470,1.0786,0.0773,-68.2500,21.0000,-17.4000,5.3600,11.5100,-9.0400,0.8334,2.3213,1.3035,-12.6875,-33.0000,16.0000,200.0000,50.8750,-162.1250,0
586.314,11.7268,0.3089,2.5809,-0.3701,-0.8948,-0.9654,-40.6500,14.5500,11.7000,9.7995,-1.0271,5.6647,0.7205,0.9004,-0.1005,-68.2500,21.0000,-17.4000,3.5100,7.8600,-13.8000,-0.2880,1.5893,0.5912,-12.6875,-33.0000,16.0000,199.5625,51.8125,-162.0625,0
586.318,11.7268,0.3089,2.5809,-0.3701,-0.8948,-0.9654,-40.2000,15.3000,11.7000,9.7995,-1.0271,5.6647,0.7205,0.9004,-0.1005,-68.4000,20.8500,-19.3500,3.5100,7.8600,-13.8000,-0.6916,0.7178,0.5629,-12.6875,-33.0000,16.0000,199.7500,52.3125,-161.8750,0
586.325,12.2918,-0.1365,3.1675,-0.3246,-0.8721,-0.9403,-40.5000,16.2000,11.5500,9.6223,-0.7374,3.4931,0.3717,0.6201,-0.2920,-68.4000,20.8500,-19.3500,0.3700,3.0100,-12.8500,-0.6916,0.7178,0.5629,-12.6875,-33.0000,16.0000,199.1875,52.0000,-162.8750,0
586.334,12.2990,-0.5004,3.2178,-0.1442,-0.8164,-0.8788,-40.5000,16.2000,11.5500,8.7747,-1.6616,3.3088,0.3683,0.3917,-0.4362,-67.6500,22.0500,-17.8500,0.4300,11.1300,-8.6900,0.2247,-0.8988,1.0036,-12.6875,-33.0000,16.0000,199.1875,52.0000,-162.8750,0
586.344,11.3485,-0.6847,2.7557,0.0469,-0.8111,-0.7954,-40.2000,16.8000,9.9000,8.1187,-1.9585,3.8810,0.1687,0.0727,-0.4919,-70.0500,22.8000,-17.5500,-1.1600,4.3400,-6.1900,0.5018,-1.4661,0.4200,-12.6875,-33.0000,16.0000,198.8125,51.2500,-163.7500,0
586.349,10.4675,-0.6201,2.6552,0.2076,-0.8577,-0.7549,-40.2000,16.8000,9.9000,7.8961,-2.0542,4.0366,0.1687,0.0727,-0.4919,-70.0500,22.8000,-17.5500,-1.1600,4.3400,-6.1900,0.5018,-1.4661,0.4200,-12.6875,-33.0000,16.0000,199.0000,50.3750,-164.1250,0
586.354,10.4675,-0.6201,2.6552,0.2076,-0.8577,-0.7549,-40.2000,16.8000,9.9000,7.8961,-2.0542,4.0366,-0.3315,-0.2076,-0.5260,-70.0500,22.8000,-17.5500,-2.3800,5.0400,-3.5500,0.0982,-1.6592,0.0338,-16.3750,-31.1875,15.1875,199.0000,50.3750,-164.1250,0
586.359,9.7803,0.0168,2.5307,0.2635,-0.8732,-0.7562,-40.5000,15.1500,9.7500,7.4316,-1.5443,3.7565,-0.3315,-0.2076,-0.5260,-67.9500,22.9500,-19.9500,-2.3800,5.0400,-3.5500,0.0982,-1.6592,0.0338,-16.3750,-31.1875,15.1875,199.6875,50.0000,-164.0000,0
586.364,9.7803,0.0168,2.5307,0.2635,-0.8732,-0.7562,-40.5000,15.1500,9.7500,7.4316,-1.5443,3.7565,-0.6848,-0.4722,-0.5335,-67.9500,22.9500,-19.9500,1.6300,6.5500,-6.4000,-0.3774,-0.7167,-0.1004,-16.3750,-31.1875,15.1875,199.6875,50.0000,-164.0000,0
586.369,9.5170,0.7638,2.1093,0.2971,-0.8860,-0.7826,-40.0500,17.7000,8.7000,7.2544,-0.7829,4.1635,-0.6848,-0.4722,-0.5335,-67.9500,22.9500,-19.9500,1.6300,6.5500,-6.4000,-0.4505,-0.9654,-0.3087,-16.3750,-31.1875,15.1875,200.6250,49.4375,-163.6875,0
586.374,9.5170,0.7638,2.1093,0.2971,-0.8860,-0.7826,-40.2000,17.2500,8.5500,7.2544,-0.7829,4.1635,-0.7120,-0.6952,-0.5793,-67.9500,22.9500,-19.9500,1.2600,6.8700,-5.8800,-0.4505,-0.9654,-0.3087,-16.3750,-31.1875,15.1875,201.8750,48.4375,-163.4375,0
586.384,9.3518,1.2306,1.6999,0.3309,-0.7336,-0.7962,-40.8000,17.7000,9.0000,7.2161,-0.0838,4.0318,-0.8199,-0.9265,-0.6499,-67.5000,23.4000,-18.4500,-1.1800,5.6500,-3.6600,-0.4331,-1.7562,-0.5629,-16.3750,-31.1875,15.1875,201.8750,48.4375,-163.4375,0
586.394,9.4355,1.5060,1.2570,0.3371,-0.7032,-0.8210,-40.8000,17.7000,9.0000,7.3717,-0.3232,3.7326,-0.8236,-1.1532,-0.7392,-68.7000,23.4000,-18.7500,0.5500,4.2000,-5.2100,-0.5094,-1.5850,-0.7167,-16.3750,-31.1875,15.1875,203.3125,47.4375,-163.0000,0
586.399,9.4547,1.4844,0.8380,0.2675,-0.6654,-0.8391,-40.8000,17.7000,9.0000,7.4316,-0.3424,4.1515,-0.7722,-1.3360,-0.8314,-67.6500,24.0000,-18.6000,0.5500,4.2000,-5.2100,-0.5094,-1.5850,-0.7167,-16.3750,-31.1875,15.1875,205.0625,46.3125,-162.4375,0
586.404,9.4547,1.4844,0.8380,0.2675,-0.6654,-0.8391,-39.7500,17.7000,9.0000,7.4316,-0.3424,4.1515,-0.7722,-1.3360,-0.8314,-67.6500,24.0000,-18.6000,-0.0300,4.5900,-4.9700,-0.7603,-1.8708,-0.8072,-15.6875,-30.0000,15.8750,205.0625,46.3125,-162.4375,0
586.409,9.3230,1.6089,0.4788,0.1527,-0.5899,-0.8460,-39.7500,17.7000,9.0000,7.5082,-0.3519,4.0079,-0.7919,-1.4898,-0.9206,-69.0000,23.4000,-19.9500,-0.0300,4.5900,-4.9700,-0.7603,-1.8708,-0.8072,-15.6875,-30.0000,15.8750,207.4375,45.2500,-161.6875,0
586.414,9.3230,1.6089,0.4788,0.1527,-0.5899,-0.8460,-39.9000,16.0500,8.1000,7.5082,-0.3519,4.0079,-0.7919,-1.4898,-0.9206,-69.0000,23.4000,-19.9500,0.5600,4.3000,-5.7900,-1.0734,-1.7486,-0.8661,-15.6875,-30.0000,15.8750,207.4375,45.2500,-161.6875,0
586.419,9.3709,1.3910,0.3567,0.0179,-0.5540,-0.8519,-39.9000,16.0500,8.1000,8.0038,-0.5148,3.8666,-0.8759,-1.6201,-1.0158,-66.6000,24.0000,-19.0500,0.5600,4.3000,-5.7900,-1.2512,-1.6679,-0.8465,-15.6875,-30.0000,15.8750,210.0000,44.2500,-160.8750,0
586.425,9.3709,1.3910,0.3567,0.0179,-0.5540,-0.8519,-39.3000,16.6500,9.7500,8.0038,-0.5148,3.8666,-0.8759,-1.6201,-1.0158,-66.6000,24.0000,-19.0500,1.9700,4.2500,-7.0400,-1.2512,-1.6679,-0.8465,-15.6875,-30.0000,15.8750,213.0000,42.9375,-160.1250,0
586.434,9.0501,1.3575,0.4381,-0.0506,-0.4959,-0.8479,-39.3000,17.4000,9.7500,8.4228,-0.4932,3.6440,-0.9729,-1.7690,-1.1189,-67.5000,22.6500,-19.9500,1.1500,4.2600,-6.8000,-1.3275,-2.1555,-0.8039,-15.6875,-30.0000,15.8750,213.0000,42.9375,-160.1250,0
586.444,8.8394,1.3168,0.6632,-0.0472,-0.4037,-0.8489,-39.7500,17.7000,7.9500,8.6215,-0.5770,3.5506,-1.0765,-1.9191,-1.2145,-67.5000,22.6500,-19.9500,1.3400,4.2300,-6.6700,-1.3384,-2.4424,-0.7374,-15.6875,-30.0000,15.8750,216.1875,41.5625,-159.4375,0
586.449,8.7532,1.3743,0.6464,-0.0211,-0.2963,-0.8476,-39.7500,17.7000,7.9500,8.6742,-0.3903,3.4764,-1.0952,-2.0384,-1.3145,-68.1000,24.7500,-20.8500,1.3400,4.2300,-6.6700,-1.3384,-2.4424,-0.7374,-15.6875,-30.0000,15.8750,216.1875,41.5625,-159.4375,0
586.454,8.7532,1.3743,0.6464,-0.0211,-0.2963,-0.8476,-39.7500,17.7000,7.9500,8.6742,-0.3903,3.4764,-1.0952,-2.0384,-1.3145,-68.1000,24.7500,-20.8500,1.8700,4.1400,-6.8300,-1.3897,-2.4555,-0.6687,-14.8750,-31.5000,16.6875,173.0625,40.1250,-158.8125,0
586.459,8.6814,1.3168,0.5650,-0.0133,-0.2254,-0.8370,-39.7500,17.7000,7.9500,8.4874,-0.2897,3.4141,-1.0818,-2.1466,-1.3568,-68.1000,25.9500,-20.5500,1.8700,4.1400,-6.8300,-1.3897,-2.4555,-0.6687,-14.8750,-31.5000,16.6875,173.0625,40.1250,-158.8125,0
586.464,8.6814,1.3168,0.5650,-0.0133,-0.2254,-0.8370,-39.3000,17.4000,7.6500,8.6167,-0.2011,3.1364,-1.0818,-2.1466,-1.3568,-68.1000,25.9500,-20.5500,2.9400,4.6300,-7.0700,-1.4421,-2.5493,-0.5934,-14.8750,-31.5000,16.6875,173.3125,38.6875,-158.1875,0
586.469,8.6957,1.2785,0.3903,0.0205,-0.1681,-0.8135,-39.3000,17.4000,7.6500,8.6167,-0.2011,3.1364,-0.9734,-2.2087,-1.3952,-67.9500,25.8000,-22.5000,2.9400,4.6300,-7.0700,-1.4508,-2.6562,-0.5236,-14.8750,-31.5000,16.6875,173.5625,37.2500,-157.5625,0
586.475,8.6359,1.3192,0.1221,0.0485,-0.1673,-0.8021,-38.2500,17.7000,9.0000,8.9878,-0.1987,3.0287,-0.8220,-2.2279,-1.4432,-67.9500,25.8000,-22.5000,3.1100,4.7400,-7.0100,-1.4508,-2.6562,-0.5236,-14.8750,-31.5000,16.6875,173.8125,35.8125,-157.0000,0
586.484,9.0501,1.3503,-0.1700,0.0783,-0.1585,-0.7869,-38.8500,18.3000,8.8500,9.4810,-0.4693,3.0550,-0.8220,-2.2279,-1.4432,-67.5000,26.5500,-22.2000,3.5200,4.8300,-7.1500,-1.4530,-2.5962,-0.4734,-14.8750,-31.5000,16.6875,173.8125,35.8125,-157.0000,0
586.494,8.5569,1.4844,-0.3639,0.1242,-0.2092,-0.7970,-38.4000,17.5500,8.1000,9.9910,-0.4836,3.0718,-0.5913,-2.2929,-1.5122,-66.7500,26.1000,-24.0000,3.6800,5.7400,-7.2800,-1.4792,-2.5122,-0.4778,-14.8750,-31.5000,16.6875,174.0625,34.4375,-156.3750,0
