timestamp,thigh_acc_x,thigh_acc_y,thigh_acc_z,thigh_gyro_x,thigh_gyro_y,thigh_gyro_z,thigh_mag_x,thigh_mag_y,thigh_mag_z,shank_acc_x,shank_acc_y,shank_acc_z,shank_gyro_x,shank_gyro_y,shank_gyro_z,shank_mag_x,shank_mag_y,shank_mag_z,foot_acc_x,foot_acc_y,foot_acc_z,foot_gyro_x,foot_gyro_y,foot_gyro_z,foot_mag_x,foot_mag_y,foot_mag_z,foot_euler_x,foot_euler_y,foot_euler_z,perturbation_event
1777067802.492,9.1051,3.4213,-1.5514,-0.1439,0.0837,0.0226,-70.8000,22.0500,57.6000,9.6726,0.9649,0.2873,-0.0091,-0.0037,-0.0032,-52.5000,9.4500,7.9500,3.4400,3.9100,-8.5200,0.0262,-0.0033,-0.0011,-19.5000,-24.8750,20.5000,218.7500,19.6250,-154.3750,0
1777067802.498,9.2033,3.4261,-1.5993,-0.1577,0.0986,0.0424,-70.8000,22.0500,57.6000,9.6726,0.9649,0.2873,-0.0091,-0.0037,-0.0032,-52.5000,9.4500,7.9500,3.4200,3.8900,-8.5200,0.0262,-0.0033,-0.0011,-19.5000,-24.8750,20.5000,218.7500,19.6250,-154.3750,0
1777067802.502,9.2033,3.4261,-1.5993,-0.1577,0.0986,0.0424,-70.0500,22.5000,58.0500,9.5936,1.0415,0.5914,-0.0264,-0.0224,-0.0112,-52.5000,9.4500,7.9500,3.4400,3.8400,-8.5400,0.0196,0.0000,0.0000,-19.5000,-24.8750,20.5000,218.7500,19.6250,-154.3750,0
1777067802.508,9.0644,3.1891,-1.5107,-0.1522,0.0698,0.0847,-70.3500,22.0500,59.1000,9.5936,1.0415,0.5914,-0.0264,-0.0224,-0.0112,-52.5000,9.4500,7.9500,3.4400,3.8400,-8.5400,0.0196,0.0000,0.0000,-19.5000,-24.8750,20.5000,218.7500,19.6250,-154.3750,0
1777067802.513,9.0644,3.1891,-1.5107,-0.1564,0.0562,0.0962,-70.3500,22.0500,59.1000,9.6391,1.2498,0.5291,-0.0525,-0.0221,-0.0181,-51.1500,9.3000,5.8500,3.4400,3.8400,-8.5400,0.0131,-0.0011,0.0011,-19.5000,-24.8750,20.5000,218.7500,19.6250,-154.3750,0
1777067802.518,8.9471,3.1005,-1.3264,-0.1564,0.0562,0.0962,-69.4500,21.4500,56.7000,9.6391,1.2498,0.5291,-0.0525,-0.0221,-0.0181,-51.1500,9.3000,5.8500,3.4100,3.8800,-8.5200,0.0131,-0.0011,0.0011,-19.5000,-24.8750,20.5000,218.7500,19.6250,-154.3750,0
1777067802.527,8.9040,3.1484,-1.2929,-0.1476,0.0810,0.1236,-70.6500,21.9000,57.7500,9.7899,1.6017,0.2897,-0.0621,-0.0402,-0.0248,-51.9000,8.5500,6.1500,3.4700,3.9600,-8.4800,0.0076,-0.0033,0.0011,-19.5000,-24.8750,20.5000,218.7500,19.6250,-154.3750,0
1777067802.537,8.8801,3.3639,-1.3671,-0.1487,0.1151,0.1362,-70.6500,21.9000,57.7500,9.7324,1.6520,0.0670,-0.0298,-0.0538,-0.0101,-50.8500,9.0000,7.6500,3.4300,3.9900,-8.4800,0.0055,-0.0011,0.0011,-19.5000,-24.8750,20.5000,218.7500,19.6250,-154.3750,0
1777067802.542,8.8873,3.4764,-1.4365,-0.1564,0.1236,0.1591,-70.6500,21.9000,57.7500,9.6247,1.4940,0.1149,0.0229,-0.0496,-0.0072,-51.6000,8.5500,7.3500,3.4300,3.9900,-8.4800,0.0055,-0.0055,-0.0033,-19.7500,-24.5625,20.5000,218.7500,19.6250,-154.3750,0
1777067802.548,8.8873,3.4764,-1.4365,-0.1564,0.1236,0.1591,-69.9000,21.4500,57.7500,9.7252,1.4485,0.1820,0.0229,-0.0496,-0.0072,-51.6000,8.5500,7.3500,3.4300,4.0000,-8.5100,0.0055,-0.0055,-0.0033,-19.7500,-24.5625,20.5000,218.7500,19.6250,-154.3750,0
1777067802.557,8.8873,3.7134,-1.4269,-0.1719,0.1178,0.1751,-69.7500,21.7500,57.0000,9.7252,1.4485,0.1820,-0.0059,-0.0608,-0.0069,-51.3000,9.4500,8.2500,3.3900,3.9700,-8.5400,0.0033,-0.0065,0.0011,-19.7500,-24.5625,20.5000,218.7500,19.6250,-154.3750,0
1777067802.567,8.8585,3.9289,-1.4700,-0.1756,0.1031,0.1604,-70.0500,21.3000,58.6500,9.6510,1.4868,-0.0287,-0.0632,-0.0560,-0.0040,-51.6000,9.7500,6.9000,3.4600,4.0100,-8.4800,0.0011,-0.0044,0.0022,-19.7500,-24.5625,20.5000,218.7500,19.6250,-154.3750,0
1777067802.576,8.9280,3.9409,-1.6065,-0.1655,0.1327,0.1495,-70.0500,21.3000,58.6500,9.6606,1.5131,-0.0886,-0.0711,-0.0520,0.0003,-51.6000,9.7500,6.9000,3.4200,4.0500,-8.4600,-0.0022,-0.0022,0.0011,-19.7500,-24.5625,20.5000,218.7500,19.6250,-154.3750,0
1777067802.580,8.9376,3.8690,-1.6664,-0.1348,0.1665,0.1423,-69.4500,21.4500,57.7500,9.6438,1.4557,-0.1604,-0.0400,-0.0616,0.0019,-51.6000,9.7500,6.9000,3.4200,4.0500,-8.4600,-0.0022,-0.0022,0.0011,-19.7500,-24.5625,20.5000,218.7500,19.6250,-154.3750,0
1777067802.588,8.9376,3.8690,-1.6664,-0.1348,0.1665,0.1423,-69.4500,21.4500,57.7500,9.5409,1.3001,-0.3304,-0.0032,-0.0442,0.0032,-51.1500,8.5500,6.9000,3.4300,4.0200,-8.4700,0.0011,-0.0033,-0.0011,-19.7500,-24.5625,20.5000,218.7500,19.6250,-154.3750,0
1777067802.593,9.0166,3.7948,-1.6472,-0.1053,0.1958,0.1503,-69.4500,21.4500,57.7500,9.5409,1.3001,-0.3304,-0.0032,-0.0442,0.0032,-51.3000,7.9500,7.2000,3.4300,4.0200,-8.4700,0.0000,-0.0044,-0.0022,-19.7500,-24.5625,19.0000,218.7500,19.6250,-154.3750,0
1777067802.598,9.0166,3.7948,-1.6472,-0.1053,0.1958,0.1503,-70.3500,20.2500,57.0000,9.5768,1.3575,-0.1245,0.0085,-0.0349,0.0000,-51.3000,7.9500,7.2000,3.4200,3.9200,-8.4900,0.0000,-0.0044,-0.0022,-19.7500,-24.5625,19.0000,218.7500,19.6250,-154.3750,0
1777067802.607,8.9711,3.8092,-1.8914,-0.0794,0.1982,0.1649,-68.4000,22.2000,57.1500,9.5720,1.3479,-0.3041,0.0115,-0.0357,-0.0043,-50.5500,9.1500,6.4500,3.4200,3.9400,-8.5300,0.0011,-0.0011,-0.0065,-19.7500,-24.5625,19.0000,218.7500,19.6250,-154.3750,0
1777067802.617,9.1004,3.7206,-1.7621,-0.0370,0.1799,0.1727,-70.8000,21.0000,57.3000,9.6223,1.1516,-0.1508,0.0344,-0.0285,-0.0032,-51.0000,8.4000,7.2000,3.4400,3.9400,-8.5200,-0.0044,0.0011,-0.0044,-19.7500,-24.5625,19.0000,218.7500,19.6250,-154.3750,0
1777067802.626,9.0261,3.6296,-1.9345,0.0317,0.1684,0.1871,-69.9000,19.9500,58.5000,9.5864,1.0774,-0.3831,0.0099,-0.0354,-0.0125,-51.7500,8.7000,6.0000,3.4200,3.9600,-8.5100,-0.0065,0.0055,-0.0022,-19.7500,-24.5625,19.0000,218.7500,19.6250,-154.3750,0
1777067802.632,8.9878,3.5147,-2.0016,0.1013,0.1689,0.2102,-69.9000,19.9500,58.5000,9.5864,1.0774,-0.3831,0.0099,-0.0354,-0.0125,-51.1500,9.0000,4.8000,3.4200,3.9600,-8.5100,-0.0087,0.0022,-0.0044,-19.7500,-24.5625,19.0000,218.7500,19.6250,-154.3750,0
1777067802.638,8.9878,3.5147,-2.0016,0.1647,0.1841,0.2254,-69.9000,19.9500,58.5000,9.6103,1.1492,-0.3735,-0.0248,-0.0229,-0.0003,-51.1500,9.0000,4.8000,3.4100,3.8800,-8.5800,-0.0087,0.0022,-0.0044,-19.7500,-24.5625,19.0000,218.7500,19.6250,-154.3750,0
1777067802.643,8.9878,3.5267,-2.0207,0.1647,0.1841,0.2254,-69.9000,19.9500,58.5000,9.6103,1.1492,-0.3735,-0.0248,-0.0229,-0.0003,-51.1500,9.0000,4.8000,3.4100,3.8600,-8.5600,-0.0098,0.0044,-0.0033,-19.5000,-24.5625,20.5000,218.7500,19.6250,-154.3750,0
1777067802.648,9.0094,3.5674,-2.0039,0.2057,0.1982,0.2340,-69.9000,19.9500,58.5000,9.6127,1.5060,-0.4597,-0.0610,-0.0181,0.0056,-51.1500,9.0000,4.8000,3.4100,3.8600,-8.5600,-0.0098,0.0044,-0.0033,-19.5000,-24.5625,20.5000,218.7500,19.6250,-154.3750,0
1777067802.657,9.0094,3.5674,-2.0039,0.2057,0.1982,0.2340,-69.4500,21.9000,57.1500,9.5385,1.8316,-0.4836,-0.0392,-0.0083,0.0035,-52.2000,8.4000,6.7500,3.4000,3.9800,-8.4900,-0.0196,0.0087,-0.0044,-19.5000,-24.5625,20.5000,218.7500,19.6250,-154.3750,0
1777067802.667,8.9591,3.6895,-1.9178,0.2038,0.1620,0.2262,-71.7000,20.7000,57.1500,9.5146,1.8292,-0.3950,-0.0155,-0.0085,0.0008,-51.9000,8.1000,7.3500,3.4000,4.0000,-8.4800,-0.0251,0.0076,-0.0022,-19.5000,-24.5625,20.5000,218.7500,19.6250,-154.3750,0
1777067802.675,8.9495,3.7134,-1.8459,0.2038,0.1620,0.2262,-71.1000,19.8000,57.3000,9.5433,1.8124,-0.0982,0.0176,-0.0032,0.0013,-51.1500,9.0000,6.6000,3.3600,4.0700,-8.4200,-0.0240,0.0065,0.0000,-19.5000,-24.5625,20.5000,218.7500,19.6250,-154.3750,0
1777067802.680,8.9998,3.6224,-1.7334,0.1396,0.1556,0.2166,-71.1000,19.8000,57.3000,9.5433,1.8124,-0.0982,0.0176,-0.0032,0.0013,-51.1500,9.0000,6.6000,3.3600,4.0700,-8.4200,-0.0240,0.0065,0.0000,-19.5000,-24.5625,20.5000,218.7500,19.6250,-154.3750,0
1777067802.688,9.0501,3.5506,-1.5347,0.0757,0.1769,0.2225,-70.6500,20.4000,57.4500,9.5289,1.6568,-0.2777,0.0285,-0.0008,0.0093,-51.0000,8.7000,7.9500,3.3600,4.0800,-8.4200,-0.0185,0.0044,0.0011,-19.5000,-24.5625,20.5000,218.7500,19.6250,-154.3750,0
1777067802.693,9.0501,3.5506,-1.5347,0.0757,0.1769,0.2225,-70.6500,20.4000,57.4500,9.6582,1.2402,-0.0192,0.0277,0.0040,0.0077,-52.9500,8.7000,7.9500,3.4400,4.0100,-8.4500,-0.0087,0.0044,0.0044,-20.5625,-24.1875,19.2500,218.7500,19.6250,-154.3750,0
1777067802.698,9.1219,3.4453,-1.3743,-0.0003,0.2177,0.2273,-70.6500,20.4000,57.4500,9.6582,1.2402,-0.0192,0.0277,0.0040,0.0077,-52.9500,8.7000,7.9500,3.4400,4.0100,-8.4500,-0.0087,0.0044,0.0044,-20.5625,-24.1875,19.2500,218.7500,19.6250,-154.3750,0
1777067802.707,9.0142,3.2825,-1.3551,-0.0546,0.2294,0.2486,-69.1500,19.2000,57.7500,9.6462,1.0894,0.0622,-0.0256,-0.0027,0.0088,-51.7500,9.4500,7.2000,3.4200,3.9900,-8.4800,0.0000,-0.0011,0.0033,-20.5625,-24.1875,19.2500,218.7500,19.6250,-154.3750,0
1777067802.717,9.1004,3.1843,-1.2163,-0.0783,0.1911,0.2662,-68.1000,19.9500,57.4500,9.6750,1.1396,-0.3280,-0.0701,0.0021,0.0125,-51.7500,9.4500,7.2000,3.4500,3.9200,-8.5600,0.0044,-0.0033,0.0055,-20.5625,-24.1875,19.2500,218.7500,19.6250,-154.3750,0
1777067802.725,9.1004,3.1843,-1.2163,-0.0783,0.1911,0.2662,-68.1000,20.4000,57.1500,9.6630,1.3336,-0.2969,-0.0853,0.0064,0.0168,-51.1500,10.5000,6.1500,3.4400,3.9100,-8.5100,0.0055,-0.0044,0.0044,-20.5625,-24.1875,19.2500,218.7500,19.6250,-154.3750,0
1777067802.730,8.9591,3.2561,-1.2474,-0.0453,0.1604,0.2923,-68.1000,20.4000,57.1500,9.6630,1.3336,-0.2969,-0.0853,0.0064,0.0168,-51.1500,10.5000,6.1500,3.4400,3.9100,-8.5100,0.0055,-0.0044,0.0044,-20.5625,-24.1875,19.2500,218.7500,19.6250,-154.3750,0
1777067802.738,9.0549,3.3734,-1.3862,-0.0027,0.1775,0.3072,-69.1500,21.9000,58.2000,9.5529,1.4916,-0.3184,-0.0674,0.0109,0.0195,-51.0000,8.7000,7.2000,3.4400,3.9200,-8.5100,-0.0011,-0.0011,0.0044,-20.5625,-24.1875,19.2500,218.7500,19.6250,-154.3750,0
1777067802.743,9.0549,3.3734,-1.3862,-0.0027,0.1775,0.3072,-69.1500,21.9000,58.2000,9.5289,1.6209,-0.3496,-0.0642,0.0181,0.0157,-51.3000,9.9000,6.0000,3.4400,3.9200,-8.5100,-0.0076,0.0000,0.0033,-19.7500,-24.5625,19.6875,218.7500,19.6250,-154.3750,0
1777067802.748,9.0692,3.3686,-1.4461,0.0517,0.1924,0.3102,-69.1500,21.9000,58.2000,9.5289,1.6209,-0.3496,-0.0642,0.0181,0.0157,-51.3000,9.9000,6.0000,3.4300,3.8800,-8.5500,-0.0076,0.0000,0.0033,-19.7500,-24.5625,19.6875,218.7500,19.6250,-154.3750,0
1777067802.757,9.0692,3.2250,-1.4246,0.0839,0.1817,0.2990,-69.0000,20.2500,57.6000,9.5409,1.8483,-0.1341,-0.0016,0.0229,0.0229,-51.9000,7.3500,6.9000,3.4300,3.9100,-8.5000,-0.0153,-0.0011,0.0033,-19.7500,-24.5625,19.6875,218.7500,19.6250,-154.3750,0
1777067802.766,9.1937,3.2322,-1.3288,0.1023,0.1791,0.2886,-67.6500,20.7000,56.7000,9.6367,1.7526,-0.1365,-0.0109,0.0293,0.0232,-52.5000,8.4000,6.0000,3.4100,4.0400,-8.4600,-0.0207,0.0000,0.0033,-19.7500,-24.5625,19.6875,218.7500,19.6250,-154.3125,0
1777067802.772,9.1937,3.2322,-1.3288,0.1023,0.1791,0.2886,-67.6500,20.7000,56.7000,9.6151,1.6640,0.0958,0.0075,0.0218,0.0296,-52.5000,8.4000,6.0000,3.4100,4.0400,-8.4600,-0.0218,-0.0022,0.0022,-19.7500,-24.5625,19.6875,218.7500,19.6250,-154.3125,0
1777067802.778,9.1243,3.2394,-1.2282,0.0618,0.1868,0.2832,-70.2000,20.4000,57.1500,9.6151,1.6640,0.0958,0.0075,0.0218,0.0296,-51.7500,8.7000,6.7500,3.4200,4.0700,-8.4300,-0.0218,-0.0022,0.0022,-19.7500,-24.5625,19.6875,218.7500,19.6250,-154.3125,0
1777067802.788,9.1363,3.0430,-1.1444,0.0136,0.1972,0.2806,-69.4500,20.4000,55.3500,9.5505,1.5802,-0.0527,-0.0314,0.0107,0.0376,-51.7500,8.7000,6.7500,3.4400,4.0300,-8.4500,-0.0185,-0.0033,0.0044,-19.7500,-24.5625,19.6875,218.7500,19.6250,-154.3125,0
1777067802.792,9.1363,3.0430,-1.1444,0.0136,0.1972,0.2806,-68.2500,18.7500,57.3000,9.5648,1.6352,-0.0383,-0.0581,0.0099,0.0448,-51.7500,8.7000,6.7500,3.4400,4.0300,-8.4500,-0.0055,-0.0109,0.0033,-20.1875,-24.1875,19.2500,218.7500,19.6250,-154.3125,0
1777067802.798,9.0309,3.1292,-0.9840,-0.0165,0.1966,0.2846,-68.2500,18.7500,57.3000,9.6558,1.6712,-0.2370,-0.0581,0.0099,0.0448,-52.9500,8.4000,7.9500,3.4400,4.0000,-8.5000,-0.0055,-0.0109,0.0033,-20.1875,-24.1875,19.2500,218.7500,19.6250,-154.3125,0
1777067802.808,9.0860,3.2106,-1.0606,-0.0285,0.1969,0.2864,-68.2500,18.7500,57.3000,9.5816,1.7549,-0.3711,-0.0528,0.0133,0.0485,-52.5000,9.1500,6.7500,3.4400,4.0000,-8.4800,-0.0044,-0.0142,0.0033,-20.1875,-24.1875,19.2500,218.7500,19.6250,-154.3125,0
1777067802.817,9.1770,3.3040,-1.1995,-0.0165,0.1833,0.2896,-68.4000,19.6500,56.4000,9.5624,1.8387,-0.3328,-0.0301,0.0277,0.0613,-52.5000,9.1500,6.4500,3.4300,3.9800,-8.5100,-0.0011,-0.0142,0.0022,-20.1875,-24.1875,19.2500,218.7500,19.6250,-154.3125,0
1777067802.825,9.0644,3.5817,-1.1995,0.0541,0.1697,0.2872,-68.2500,18.3000,57.0000,9.5624,1.8387,-0.3328,-0.0091,0.0357,0.0735,-51.9000,8.1000,6.9000,3.4300,3.9700,-8.5100,0.0011,-0.0109,0.0011,-20.1875,-24.1875,19.2500,218.7500,19.6250,-154.3125,0
1777067802.829,9.0644,3.5817,-1.1995,0.0541,0.1697,0.2872,-68.2500,18.3000,57.0000,9.5648,1.8627,-0.2825,0.0048,0.0381,0.0855,-51.9000,8.1000,6.9000,3.4300,3.9700,-8.5100,0.0011,-0.0109,0.0011,-20.1875,-24.1875,19.2500,218.7500,19.6250,-154.3125,0
1777067802.838,9.2464,3.6751,-1.1301,0.1252,0.1700,0.2843,-68.5500,19.5000,57.6000,9.4691,1.8531,-0.2131,0.0413,0.0416,0.0775,-50.4000,10.0500,7.6500,3.3800,4.0200,-8.4400,0.0011,-0.0087,0.0000,-20.1875,-24.1875,19.2500,218.7500,19.6250,-154.3125,0
1777067802.843,9.2751,3.6751,-1.0127,0.1631,0.1620,0.2795,-68.1000,17.7000,58.5000,9.4691,1.8531,-0.2131,0.0413,0.0416,0.0775,-50.4000,10.0500,7.6500,3.3800,4.0200,-8.4400,0.0065,-0.0142,0.0000,-19.7500,-23.7500,19.2500,218.7500,19.5625,-154.3125,0
1777067802.848,9.2751,3.6751,-1.0127,0.1631,0.1620,0.2795,-68.1000,17.7000,58.5000,9.5457,1.7310,0.1293,0.0312,0.0458,0.0823,-52.5000,9.4500,7.2000,3.4200,4.0000,-8.5200,0.0065,-0.0142,0.0000,-19.7500,-23.7500,19.2500,218.7500,19.5625,-154.3125,0
1777067802.858,9.2440,3.5171,-0.8284,0.1383,0.1655,0.2747,-68.1000,17.7000,58.5000,9.7252,1.8148,0.4429,0.0552,0.0394,0.0959,-52.5000,9.4500,7.2000,3.3900,4.0300,-8.4100,0.0131,-0.0120,0.0022,-19.7500,-23.7500,19.2500,218.7500,19.5625,-154.3125,0
1777067802.867,9.1698,3.3471,-0.5914,0.0621,0.2078,0.2875,-67.8000,19.5000,57.0000,9.6606,1.6735,0.3519,0.0861,0.0179,0.1015,-53.1000,9.7500,5.8500,3.4400,4.0000,-8.4400,0.0207,-0.0109,0.0022,-19.7500,-23.7500,19.2500,218.7500,19.5625,-154.3125,0
1777067802.876,9.2177,3.2226,-0.4334,-0.0213,0.2132,0.2990,-70.2000,17.7000,56.7000,9.7229,1.4629,0.5650,0.1218,0.0096,0.1100,-51.7500,9.4500,7.2000,3.4700,3.9900,-8.4500,0.0360,-0.0131,0.0055,-19.7500,-23.7500,19.2500,218.7500,19.5625,-154.3750,0
1777067802.881,9.4092,2.9999,-0.4286,-0.0488,0.2598,0.3179,-70.2000,17.7000,56.7000,9.7229,1.4629,0.5650,0.1218,0.0096,0.1100,-51.7500,9.4500,7.2000,3.4700,3.9900,-8.4500,0.0360,-0.0131,0.0055,-19.7500,-23.7500,19.2500,218.7500,19.5625,-154.3750,0
1777067802.888,9.4092,2.9999,-0.4286,-0.0488,0.2598,0.3179,-67.8000,19.8000,57.0000,9.8857,1.4293,0.5124,0.1069,-0.0061,0.1143,-52.3500,8.5500,6.9000,3.4000,4.0000,-8.4400,0.0447,-0.0131,0.0033,-19.7500,-23.7500,19.2500,218.7500,19.5625,-154.3750,0
1777067802.893,9.3111,2.8850,-0.1700,0.0045,0.2196,0.3408,-67.8000,18.7500,58.3500,9.8857,1.4293,0.5124,0.1069,-0.0061,0.1143,-52.3500,8.5500,6.9000,3.4000,4.0000,-8.4400,0.0447,-0.0131,0.0033,-19.5000,-24.5625,20.0625,218.7500,19.5625,-154.4375,0
1777067802.898,9.3111,2.8850,-0.1700,0.0045,0.2196,0.3408,-67.8000,18.7500,58.3500,9.7468,1.2402,0.5459,0.1274,-0.0277,0.1162,-51.7500,8.4000,6.7500,3.4600,3.9300,-8.5300,0.0502,-0.0196,0.0022,-19.5000,-24.5625,20.0625,218.7500,19.5625,-154.4375,0
1777067802.903,9.3206,2.8371,-0.1484,0.0695,0.2094,0.3563,-67.8000,18.7500,58.3500,9.7468,1.2402,0.5459,0.1274,-0.0277,0.1162,-51.7500,8.4000,6.7500,3.4600,3.9300,-8.5300,0.0502,-0.0196,0.0022,-19.5000,-24.5625,20.0625,218.7500,19.5625,-154.4375,0
1777067802.908,9.3206,2.8371,-0.1484,0.0695,0.2094,0.3563,-67.8000,18.7500,58.3500,9.6893,1.2761,0.4836,0.1300,-0.0496,0.1127,-51.7500,9.4500,6.0000,3.4500,3.9200,-8.4800,0.0491,-0.0109,0.0000,-19.5000,-24.5625,20.0625,218.7500,19.5625,-154.4375,0
1777067802.913,9.4403,2.7773,-0.1915,0.1207,0.2553,0.3797,-67.6500,19.2000,58.2000,9.6893,1.2761,0.4836,0.1300,-0.0496,0.1127,-51.7500,9.4500,6.0000,3.4500,3.9200,-8.4800,0.0469,-0.0055,-0.0044,-19.5000,-24.5625,20.0625,218.7500,19.5625,-154.4375,0
1777067802.918,9.4403,2.7773,-0.1915,0.1207,0.2553,0.3797,-67.6500,19.2000,58.2000,9.7827,1.1468,0.2825,0.1391,-0.0650,0.1071,-52.3500,10.5000,7.3500,3.4100,3.9300,-8.5500,0.0469,-0.0055,-0.0044,-19.5000,-24.5625,20.0625,218.7500,19.5625,-154.5000,0
1777067802.928,9.4332,2.7892,-0.1317,0.2030,0.2446,0.4066,-67.5000,19.0500,57.0000,9.6798,1.0894,0.3424,0.1764,-0.0821,0.1159,-52.3500,10.5000,7.3500,3.4400,3.8900,-8.5600,0.0447,-0.0076,-0.0044,-19.5000,-24.5625,20.0625,218.7500,19.5625,-154.5000,0
1777067802.937,9.3996,2.7126,-0.2131,0.2563,0.1799,0.4157,-66.0000,16.8000,57.0000,9.7085,1.1779,0.0359,0.1575,-0.0970,0.1116,-52.6500,8.1000,6.6000,3.4100,3.8800,-8.5400,0.0393,-0.0011,-0.0076,-19.5000,-24.5625,20.0625,218.7500,19.5625,-154.5000,0
1777067802.942,9.3853,2.6743,-0.3831,0.3504,0.1695,0.4106,-67.6500,19.2000,58.2000,9.6989,1.3671,-0.0455,0.1575,-0.0970,0.1116,-52.6500,8.1000,6.6000,3.4100,3.8800,-8.5400,0.0393,-0.0011,-0.0076,-19.5000,-24.5625,20.0625,218.7500,19.5625,-154.5000,0
1777067802.947,9.3853,2.6743,-0.3831,0.3504,0.1695,0.4106,-67.6500,19.2000,58.2000,9.6989,1.3671,-0.0455,0.1647,-0.1087,0.1127,-52.3500,9.3000,6.1500,3.4200,3.8600,-8.5300,0.0338,0.0022,-0.0087,-19.0625,-24.5625,20.5000,218.7500,19.5625,-154.5625,0
1777067802.952,9.2249,2.6169,-0.5028,0.4711,0.1724,0.3965,-66.9000,17.7000,58.5000,9.5600,1.4820,-0.2370,0.1647,-0.1087,0.1127,-52.3500,9.3000,6.1500,3.4200,3.8600,-8.5300,0.0338,0.0022,-0.0087,-19.0625,-24.5625,20.5000,218.7500,19.5625,-154.5625,0
1777067802.957,9.2249,2.6169,-0.5028,0.5423,0.2025,0.3760,-66.9000,17.7000,58.5000,9.5600,1.4820,-0.2370,0.1972,-0.1127,0.1143,-51.9000,8.5500,6.9000,3.4300,3.9000,-8.5000,0.0262,0.0076,-0.0109,-19.0625,-24.5625,20.5000,218.7500,19.5625,-154.5625,0
1777067802.962,9.2751,2.6576,-0.7685,0.5423,0.2025,0.3760,-66.9000,17.7000,58.5000,9.5984,1.5538,-0.3472,0.2457,-0.0799,0.1210,-51.9000,8.5500,6.9000,3.4300,3.9000,-8.5000,0.0218,0.0175,-0.0142,-19.0625,-24.5625,20.5000,218.6875,19.5625,-154.5625,0
1777067802.969,9.3374,2.4852,-0.7709,0.6145,0.2403,0.3603,-66.9000,17.7000,58.5000,9.5984,1.5538,-0.3472,0.2457,-0.0799,0.1210,-52.6500,7.8000,6.9000,3.4400,3.8800,-8.4800,0.0218,0.0175,-0.0142,-19.0625,-24.5625,20.5000,218.6875,19.5625,-154.5625,0
1777067802.978,9.2488,2.4469,-1.1396,0.6710,0.2859,0.3605,-67.5000,17.2500,57.3000,9.4906,1.5203,-0.4717,0.3059,-0.0730,0.1223,-52.9500,9.9000,6.7500,3.3800,3.8700,-8.4800,0.0207,0.0218,-0.0164,-19.0625,-24.5625,20.5000,218.6875,19.5625,-154.5625,0
1777067802.988,9.5170,2.3439,-1.2067,0.7394,0.3416,0.3643,-66.1500,17.4000,56.1000,9.6199,1.3384,-0.0024,0.3275,-0.0597,0.1375,-52.2000,9.4500,6.4500,3.4000,3.8900,-8.4700,0.0262,0.0229,-0.0196,-19.0625,-24.5625,20.5000,218.6875,19.5625,-154.5625,0
1777067802.993,9.5170,2.3439,-1.2067,0.7394,0.3416,0.3643,-67.5000,18.0000,57.3000,9.5385,1.1516,0.0168,0.2683,-0.0727,0.1290,-52.2000,9.4500,6.4500,3.4000,3.8900,-8.4700,0.0262,0.0229,-0.0196,-19.0625,-24.5625,20.5000,218.6875,19.5625,-154.5625,0
1777067802.998,9.6869,2.3463,-1.2474,0.7349,0.2992,0.3557,-67.5000,18.0000,57.3000,9.5385,1.1516,0.0168,0.2683,-0.0727,0.1290,-52.2000,9.4500,6.4500,3.4000,3.9300,-8.4800,0.0273,0.0284,-0.0196,-19.0625,-24.5625,21.2500,218.6875,19.5625,-154.5625,0
1777067803.003,9.6869,2.3463,-1.2474,0.7349,0.2992,0.3557,-66.6000,17.4000,55.6500,9.5098,1.0343,-0.1676,0.2350,-0.0869,0.1308,-52.2000,9.4500,6.4500,3.4000,3.9300,-8.4800,0.0273,0.0284,-0.0196,-19.0625,-24.5625,21.2500,218.6250,19.5625,-154.5625,0
1777067803.008,9.4715,2.2122,-1.1349,0.6797,0.2110,0.3533,-66.6000,17.4000,55.6500,9.5098,1.0343,-0.1676,0.2350,-0.0869,0.1308,-53.2500,7.9500,6.7500,3.4500,3.9100,-8.4600,0.0327,0.0262,-0.0185,-19.0625,-24.5625,21.2500,218.6250,19.5625,-154.5625,0
1777067803.012,9.4715,2.2122,-1.1349,0.6797,0.2110,0.3533,-66.6000,17.4000,55.6500,9.5146,1.0774,-0.1628,0.2164,-0.0847,0.1258,-53.2500,7.9500,6.7500,3.4500,3.9100,-8.4600,0.0349,0.0207,-0.0164,-19.0625,-24.5625,21.2500,218.6250,19.5625,-154.6250,0
1777067803.019,9.5170,2.0830,-1.0175,0.6086,0.1588,0.3523,-66.6000,17.4000,55.6500,9.7109,1.3192,-0.4022,0.2164,-0.0847,0.1258,-50.4000,9.0000,7.3500,3.4300,3.9100,-8.4500,0.0349,0.0207,-0.0164,-19.0625,-24.5625,21.2500,218.6250,19.6250,-154.6250,0
1777067803.028,9.3853,2.2697,-0.9433,0.5654,0.2108,0.3587,-68.1000,16.6500,58.2000,9.7109,1.3192,-0.4022,0.1495,-0.0906,0.1378,-51.9000,8.5500,6.1500,3.3900,3.8700,-8.4900,0.0425,0.0164,-0.0164,-19.0625,-24.5625,21.2500,218.6250,19.6250,-154.6250,0
1777067803.037,9.4547,2.3774,-1.0894,0.5220,0.1958,0.3381,-67.5000,16.8000,58.6500,9.6510,1.4078,-0.7470,0.1673,-0.0919,0.1418,-51.7500,9.4500,5.7000,3.4500,3.8700,-8.5000,0.0436,0.0120,-0.0164,-19.0625,-24.5625,21.2500,218.6250,19.6250,-154.6250,0
1777067803.042,9.4547,2.3774,-1.0894,0.5220,0.1958,0.3381,-67.3500,16.2000,57.4500,9.4260,1.5538,-0.7661,0.2284,-0.0778,0.1407,-51.7500,9.4500,5.7000,3.4500,3.8700,-8.5000,0.0436,0.0120,-0.0164,-19.0625,-24.5625,21.2500,218.6250,19.6250,-154.6250,0
1777067803.047,9.7085,2.4134,-1.3120,0.4890,0.1236,0.3075,-67.3500,16.2000,57.4500,9.4260,1.5538,-0.7661,0.2284,-0.0778,0.1407,-51.9000,8.5500,5.1000,3.4000,3.9200,-8.4500,0.0447,0.0120,-0.0196,-19.7500,-24.1875,20.0625,218.5625,19.6250,-154.6875,0
1777067803.051,9.7085,2.4134,-1.3120,0.4890,0.1236,0.3075,-66.9000,15.9000,58.5000,9.4954,1.4844,-0.6249,0.2763,-0.0528,0.1407,-51.9000,8.5500,5.1000,3.4000,3.9200,-8.4500,0.0447,0.0120,-0.0196,-19.7500,-24.1875,20.0625,218.5625,19.6250,-154.6875,0
1777067803.056,9.6247,2.5091,-1.3551,0.5438,0.1119,0.2848,-66.9000,15.9000,58.5000,9.4954,1.4844,-0.6249,0.2763,-0.0528,0.1407,-52.5000,8.7000,7.5000,3.3700,3.9000,-8.4900,0.0458,0.0109,-0.0185,-19.7500,-24.1875,20.0625,218.5625,19.6250,-154.6875,0
1777067803.061,9.6247,2.5091,-1.3551,0.5438,0.1119,0.2848,-66.9000,15.9000,58.5000,9.6199,1.5610,-0.4836,0.2859,-0.0573,0.1402,-52.5000,8.7000,7.5000,3.3700,3.9000,-8.4900,0.0458,0.0109,-0.0185,-19.7500,-24.1875,20.0625,218.5625,19.6250,-154.6875,0
1777067803.068,9.5577,2.3511,-1.1013,0.5433,0.1244,0.2739,-66.9000,15.9000,58.5000,9.6774,1.3862,-0.4477,0.2936,-0.0474,0.1447,-52.5000,8.7000,7.5000,3.4200,3.8300,-8.5800,0.0491,0.0120,-0.0207,-19.7500,-24.1875,20.0625,218.5000,19.6250,-154.7500,0
1777067803.078,9.4978,2.1883,-0.9936,0.4852,0.1031,0.2260,-67.2000,18.3000,57.6000,9.6486,1.1516,-0.3543,0.3230,-0.0562,0.1506,-52.6500,9.0000,6.6000,3.4100,3.8900,-8.5300,0.0567,0.0164,-0.0196,-19.7500,-24.1875,20.0625,218.5000,19.6250,-154.7500,0
1777067803.086,9.4403,1.9393,-0.8882,0.3619,0.0791,0.1788,-65.2500,17.5500,56.5500,9.6271,1.1253,-0.0982,0.3230,-0.0562,0.1506,-52.6500,9.0000,6.6000,3.4100,3.9100,-8.4800,0.0545,0.0196,-0.0185,-19.7500,-24.1875,20.0625,218.5000,19.6250,-154.7500,0
1777067803.091,9.4403,1.9393,-0.8882,0.3619,0.0791,0.1788,-65.7000,17.5500,57.3000,9.6271,1.1253,-0.0982,0.3115,-0.0576,0.1511,-52.2000,9.1500,5.2500,3.4100,3.9100,-8.4800,0.0545,0.0196,-0.0185,-19.7500,-24.1875,20.0625,218.5000,19.6250,-154.7500,0
1777067803.096,9.8809,1.5921,-0.6105,0.2795,0.1226,0.1791,-65.7000,17.5500,57.3000,9.7157,1.0558,-0.2466,0.3115,-0.0576,0.1511,-52.2000,9.1500,5.2500,3.4200,3.7900,-8.5500,0.0567,0.0207,-0.0218,-20.1875,-24.5625,20.0625,218.5000,19.6250,-154.8125,0
1777067803.101,9.8809,1.5921,-0.6105,0.2795,0.1226,0.1791,-66.1500,15.4500,57.4500,9.7157,1.0558,-0.2466,0.2587,-0.0709,0.1535,-52.3500,9.3000,5.8500,3.4200,3.7900,-8.5500,0.0567,0.0207,-0.0218,-20.1875,-24.5625,20.0625,218.5000,19.6250,-154.8125,0
1777067803.106,9.6630,1.5131,-0.5291,0.1985,0.0855,0.1988,-66.1500,15.4500,57.4500,9.7037,1.3791,0.2969,0.2587,-0.0709,0.1535,-52.3500,9.3000,5.8500,3.4400,3.7900,-8.5000,0.0600,0.0240,-0.0218,-20.1875,-24.5625,20.0625,218.4375,19.6250,-154.8125,0
1777067803.111,9.6630,1.5131,-0.5291,0.1985,0.0855,0.1988,-64.9500,17.2500,57.3000,9.7037,1.3791,0.2969,0.2622,-0.0805,0.1625,-51.3000,7.2000,6.0000,3.4400,3.7900,-8.5000,0.0600,0.0240,-0.0218,-20.1875,-24.5625,20.0625,218.4375,19.6250,-154.8750,0
1777067803.118,9.4092,1.4413,-0.2538,0.1207,0.0328,0.1974,-64.9500,17.2500,57.3000,9.7468,1.7933,0.2466,0.2643,-0.0802,0.1705,-53.4000,8.5500,6.1500,3.4100,3.8300,-8.4900,0.0633,0.0273,-0.0240,-20.1875,-24.5625,20.0625,218.4375,19.6250,-154.8750,0
1777067803.126,9.6941,1.5323,-0.3256,0.0813,-0.0211,0.2382,-64.9500,17.2500,57.3000,9.9575,2.1883,0.4860,0.3272,-0.1050,0.1788,-53.4000,8.5500,6.1500,3.3900,3.8500,-8.5300,0.0654,0.0316,-0.0251,-20.1875,-24.5625,20.0625,218.4375,19.6250,-154.8750,0
1777067803.131,9.6941,1.5323,-0.3256,0.0813,-0.0211,0.2382,-66.0000,16.5000,55.5000,9.9575,2.1883,0.4860,0.3272,-0.1050,0.1788,-52.9500,7.9500,6.0000,3.3900,3.8500,-8.5300,0.0654,0.0316,-0.0251,-20.1875,-24.5625,20.0625,218.3750,19.6250,-154.9375,0
1777067803.139,9.6343,1.8196,-0.1149,0.0554,0.0064,0.2446,-64.8000,16.9500,55.3500,10.0437,2.0087,0.5435,0.3976,-0.1140,0.1895,-52.9500,7.9500,6.0000,3.3900,3.8200,-8.6300,0.0720,0.0338,-0.0273,-20.1875,-24.5625,20.0625,218.3750,19.6250,-154.9375,0
1777067803.143,10.0628,1.9441,0.1149,0.0234,-0.0376,0.2081,-64.8000,16.9500,55.3500,10.1131,1.5395,0.6728,0.3976,-0.1140,0.1895,-52.9500,7.9500,6.0000,3.3900,3.8200,-8.6300,0.0720,0.0338,-0.0273,-20.1875,-24.5625,19.6875,218.3750,19.6875,-154.9375,0
1777067803.149,10.0628,1.9441,0.1149,0.0234,-0.0376,0.2081,-65.5500,16.2000,55.3500,10.1131,1.5395,0.6728,0.4533,-0.1300,0.2054,-53.2500,7.9500,7.2000,3.4400,3.8100,-8.6000,0.0742,0.0415,-0.0295,-20.1875,-24.5625,19.6875,218.3750,19.6875,-154.9375,0
1777067803.153,9.9479,1.9369,0.2897,0.0578,-0.0365,0.1769,-65.5500,16.2000,55.3500,9.8689,0.6728,0.4860,0.4533,-0.1300,0.2054,-53.2500,7.9500,7.2000,3.4400,3.8100,-8.6000,0.0742,0.0415,-0.0295,-20.1875,-24.5625,19.6875,218.3125,19.6875,-154.9375,0
1777067803.158,9.9479,1.9369,0.2897,0.0578,-0.0365,0.1769,-66.9000,17.4000,56.7000,9.8689,0.6728,0.4860,0.4399,-0.1476,0.2102,-51.1500,8.1000,5.8500,3.4200,3.8600,-8.5300,0.0633,0.0578,-0.0360,-20.1875,-24.5625,19.6875,218.3125,19.6875,-154.9375,0
1777067803.163,9.4763,1.7262,0.6847,0.1418,-0.0280,0.1793,-66.9000,17.4000,56.7000,9.7875,-0.0479,0.6488,0.4399,-0.1476,0.2102,-51.1500,8.1000,5.8500,3.4200,3.8600,-8.5300,0.0545,0.0774,-0.0425,-20.1875,-24.5625,19.6875,218.3125,19.6875,-155.0000,0
1777067803.169,9.4763,1.7262,0.6847,0.1418,-0.0280,0.1793,-66.9000,17.4000,56.7000,9.7875,-0.0479,0.6488,0.4120,-0.1660,0.2044,-52.3500,8.5500,5.1000,3.4700,3.8600,-8.4800,0.0545,0.0774,-0.0425,-20.1875,-24.5625,19.6875,218.2500,19.7500,-155.0000,0
1777067803.178,9.6055,1.6065,0.6369,0.2364,0.1396,0.1817,-65.7000,15.7500,55.8000,9.6726,-0.4310,0.3567,0.2699,-0.1961,0.1860,-53.4000,10.5000,6.9000,3.4500,3.6900,-8.5900,0.0535,0.0840,-0.0491,-20.1875,-24.5625,19.6875,218.2500,19.7500,-155.0000,0
1777067803.184,9.8809,1.4174,0.9457,0.3304,0.2228,0.1727,-65.7000,15.7500,55.8000,9.8043,-0.4549,0.1389,0.1476,-0.2342,0.1812,-53.4000,10.5000,6.9000,3.4800,3.5500,-8.6200,0.0556,0.0851,-0.0469,-20.1875,-24.5625,19.6875,218.1875,19.8125,-155.0000,0
1777067803.189,9.8809,1.4174,0.9457,0.3304,0.2228,0.1727,-64.8000,16.9500,56.7000,9.8043,-0.4549,0.1389,0.1476,-0.2342,0.1812,-53.1000,9.7500,4.3500,3.4800,3.5500,-8.6200,0.0556,0.0851,-0.0469,-20.1875,-24.5625,19.6875,218.1875,19.8125,-155.0000,0
1777067803.194,9.5074,1.2426,0.7326,0.4421,0.2134,0.1889,-64.8000,16.9500,56.7000,9.7324,0.0646,-0.0263,0.0789,-0.2478,0.1663,-53.1000,9.7500,4.3500,3.5000,3.4400,-8.5800,0.0447,0.0993,-0.0393,-19.7500,-24.8750,21.2500,218.1875,19.8125,-155.0625,0
1777067803.199,9.5074,1.2426,0.7326,0.5860,0.1852,0.2108,-65.7000,16.5000,57.0000,9.7324,0.0646,-0.0263,0.0789,-0.2478,0.1663,-52.5000,7.9500,4.2000,3.5000,3.4400,-8.5800,0.0447,0.0993,-0.0393,-19.7500,-24.8750,21.2500,218.1875,19.8125,-155.0625,0
1777067803.204,9.6774,1.0798,0.3184,0.5860,0.1852,0.2108,-65.7000,16.5000,57.0000,9.7851,0.5746,-0.0886,0.0834,-0.2382,0.1532,-52.5000,7.9500,4.2000,3.4800,3.4500,-8.5700,0.0284,0.1058,-0.0393,-19.7500,-24.8750,21.2500,218.1250,19.8750,-155.0625,0
1777067803.209,9.6774,1.0798,0.3184,0.7392,0.1156,0.2401,-66.6000,16.2000,55.3500,9.7851,0.5746,-0.0886,0.0834,-0.2382,0.1532,-52.5000,7.9500,4.2000,3.4800,3.4500,-8.5700,0.0284,0.1058,-0.0393,-19.7500,-24.8750,21.2500,218.1250,19.8750,-155.0625,0
1777067803.217,9.6702,1.0798,-0.1125,0.7392,0.1156,0.2401,-66.6000,16.2000,55.3500,9.7779,1.0439,0.0215,0.1828,-0.2529,0.1402,-52.5000,7.9500,4.2000,3.4900,3.4700,-8.6000,0.0087,0.1080,-0.0382,-19.7500,-24.8750,21.2500,218.1250,19.9375,-155.0000,0
1777067803.222,9.6247,1.1684,-0.5243,0.8673,0.1455,0.2539,-66.6000,16.2000,55.3500,9.8593,1.4389,0.0192,0.2651,-0.2798,0.1348,-52.9500,8.4000,4.5000,3.4900,3.4700,-8.6000,-0.0087,0.1102,-0.0371,-19.7500,-24.8750,21.2500,218.0625,19.9375,-155.0000,0
1777067803.229,9.6965,1.3647,-0.6560,0.9209,0.0917,0.2486,-64.3500,17.4000,55.6500,9.8593,1.4389,0.0192,0.2651,-0.2798,0.1348,-52.6500,8.5500,2.5500,3.4600,3.4600,-8.6000,-0.0087,0.1102,-0.0371,-19.7500,-24.8750,21.2500,218.0000,20.0000,-155.0000,0
1777067803.238,9.6606,1.4676,-1.0151,1.0195,0.0394,0.2214,-63.3000,16.9500,56.1000,9.9647,1.5706,-0.4357,0.3280,-0.3200,0.1303,-54.4500,8.7000,4.2000,3.5600,3.4700,-8.5500,-0.0284,0.1244,-0.0436,-19.7500,-24.8750,21.2500,218.0000,20.0000,-155.0000,0
1777067803.243,9.6606,1.4676,-1.0151,1.0195,0.0394,0.2214,-63.3000,16.9500,56.1000,9.8665,1.5993,-0.5411,0.3845,-0.3845,0.1236,-54.4500,8.7000,4.2000,3.5600,3.4700,-8.5500,-0.0284,0.1244,-0.0436,-19.7500,-24.8750,21.2500,218.0000,20.0625,-154.9375,0
1777067803.249,9.3972,1.6448,-1.1468,1.0571,-0.0064,0.1855,-64.9500,16.5000,56.5500,9.8665,1.5993,-0.5411,0.3845,-0.3845,0.1236,-51.9000,7.8000,4.0500,3.5600,3.6300,-8.5000,-0.0524,0.1440,-0.0491,-19.5000,-24.5625,21.0000,218.0000,20.0625,-154.9375,0
1777067803.253,9.3972,1.6448,-1.1468,1.0571,-0.0064,0.1855,-64.9500,16.5000,56.5500,9.5984,1.4629,-0.6847,0.3688,-0.3928,0.1194,-51.9000,7.8000,4.0500,3.5600,3.6300,-8.5000,-0.0524,0.1440,-0.0491,-19.5000,-24.5625,21.0000,217.9375,20.1875,-154.9375,0
1777067803.258,9.3494,1.7621,-1.1827,1.0896,-0.0061,0.1444,-65.1000,16.9500,56.1000,9.5984,1.4629,-0.6847,0.3688,-0.3928,0.1194,-53.2500,8.4000,3.7500,3.5800,3.6300,-8.5000,-0.0818,0.1582,-0.0524,-19.5000,-24.5625,21.0000,217.9375,20.1875,-154.9375,0
1777067803.263,9.3494,1.7621,-1.1827,1.0896,-0.0061,0.1444,-65.1000,16.9500,56.1000,9.4619,1.3024,-1.1947,0.3629,-0.3832,0.1298,-53.2500,8.4000,3.7500,3.5800,3.6300,-8.5000,-0.1145,0.1691,-0.0480,-19.5000,-24.5625,21.0000,217.9375,20.2500,-154.8750,0
1777067803.269,9.3111,1.6975,-1.2522,1.1082,0.0264,0.0970,-63.4500,15.7500,55.2000,9.3518,1.0175,-1.5993,0.3629,-0.3832,0.1298,-53.4000,7.8000,5.1000,3.6200,3.6800,-8.4800,-0.1145,0.1691,-0.0480,-19.5000,-24.5625,21.0000,217.9375,20.2500,-154.8750,0
1777067803.278,9.4667,1.6376,-1.4676,1.1298,0.1053,0.0552,-63.4500,15.7500,55.2000,9.3518,1.0175,-1.5993,0.3307,-0.3453,0.1487,-53.4000,7.8000,5.1000,3.6400,3.6700,-8.4300,-0.1549,0.1876,-0.0491,-19.5000,-24.5625,21.0000,217.9375,20.3750,-154.7500,0
1777067803.283,9.4667,1.6376,-1.4676,1.1298,0.1053,0.0552,-63.4500,15.7500,55.2000,9.3302,0.6369,-1.9321,0.3043,-0.2944,0.1585,-53.4000,7.8000,5.1000,3.6400,3.6700,-8.4300,-0.1745,0.2062,-0.0654,-19.5000,-24.5625,21.0000,217.8750,20.4375,-154.6875,0
1777067803.289,9.6774,1.4820,-1.6879,1.1405,0.1564,0.0469,-62.7000,15.7500,55.5000,9.4355,0.2298,-1.7765,0.2819,-0.2411,0.1740,-53.2500,7.9500,3.0000,3.6000,3.6100,-8.4400,-0.1745,0.2062,-0.0654,-19.5000,-24.5625,21.0000,217.8750,20.4375,-154.6875,0
1777067803.294,9.6774,1.4820,-1.6879,1.1405,0.1564,0.0469,-62.7000,15.7500,55.5000,9.4355,0.2298,-1.7765,0.2819,-0.2411,0.1740,-53.2500,7.9500,3.0000,3.6000,3.6100,-8.4400,-0.1527,0.2105,-0.0873,-19.7500,-24.5625,19.2500,217.8125,20.5625,-154.5625,0
1777067803.299,9.8258,1.3192,-2.1907,1.1479,0.2204,0.0469,-65.5500,16.2000,53.8500,9.4188,0.2753,-1.5443,0.1935,-0.2036,0.1911,-53.4000,8.5500,2.1000,3.5500,3.5600,-8.4600,-0.1527,0.2105,-0.0873,-19.7500,-24.5625,19.2500,217.8125,20.5625,-154.5625,0
1777067803.304,9.8258,1.3192,-2.1907,1.1479,0.2204,0.0469,-65.5500,16.2000,53.8500,9.4188,0.2753,-1.5443,0.1935,-0.2036,0.1911,-53.4000,8.5500,2.1000,3.5500,3.5600,-8.4600,-0.1527,0.2105,-0.0873,-19.7500,-24.5625,19.2500,217.7500,20.6250,-154.5000,0
1777067803.309,9.9240,1.1085,-2.5498,1.1056,0.2084,0.0336,-65.1000,17.4000,55.3500,9.4332,0.4549,-1.6712,0.0576,-0.1855,0.2009,-52.6500,7.3500,4.0500,3.5600,3.4300,-8.4800,-0.1527,0.2105,-0.0873,-19.7500,-24.5625,19.2500,217.7500,20.6250,-154.5000,0
1777067803.314,9.9240,1.1085,-2.5498,1.1056,0.2084,0.0336,-65.5500,17.4000,55.6500,9.4332,0.4549,-1.6712,0.0576,-0.1855,0.2009,-52.6500,7.3500,4.0500,3.5600,3.4300,-8.4800,-0.1276,0.1963,-0.0796,-19.7500,-24.5625,19.2500,217.7500,20.7500,-154.5000,0
1777067803.319,10.0126,1.0415,-2.6121,0.9593,0.1308,0.0171,-65.5500,17.4000,55.6500,9.5481,0.7997,-1.7478,-0.0107,-0.1655,0.2076,-52.5000,7.2000,3.0000,3.6100,3.2600,-8.5100,-0.1276,0.1963,-0.0796,-19.7500,-24.5625,19.2500,217.6875,20.8125,-154.3750,0
1777067803.328,9.9814,1.0582,-2.6312,0.7448,0.0474,0.0112,-65.5500,17.4000,55.6500,9.5553,1.0511,-1.7023,-0.0093,-0.1290,0.2265,-52.5000,7.2000,3.0000,3.6600,3.1500,-8.4900,-0.1244,0.1734,-0.0731,-19.7500,-24.5625,19.2500,217.6875,20.8125,-154.3750,0
1777067803.338,9.9647,1.0846,-2.5738,0.5060,-0.0309,0.0117,-64.9500,16.0500,55.5000,9.6223,1.1923,-1.8842,-0.0040,-0.0890,0.2380,-53.8500,8.5500,4.0500,3.6500,3.3500,-8.5100,-0.1473,0.1734,-0.0796,-19.7500,-24.5625,19.2500,217.6250,20.8750,-154.2500,0
1777067803.343,9.9647,1.0846,-2.5738,0.5060,-0.0309,0.0117,-64.9500,16.0500,55.5000,9.6223,1.1923,-1.8842,-0.0040,-0.0890,0.2380,-53.4000,8.5500,4.0500,3.6500,3.3500,-8.5100,-0.1473,0.1734,-0.0796,-19.7500,-24.5625,19.2500,217.6250,20.8750,-154.2500,0
1777067803.348,9.9072,1.2665,-2.6456,0.3072,-0.1130,0.0213,-64.3500,16.9500,55.3500,9.5744,1.0295,-1.7693,-0.0160,-0.0898,0.2385,-53.4000,8.5500,4.0500,3.6800,3.4000,-8.5200,-0.1691,0.1800,-0.0818,-19.5000,-25.2500,19.2500,217.5625,20.9375,-154.1250,0
1777067803.353,9.9072,1.2665,-2.6456,0.3072,-0.1130,0.0213,-64.3500,16.9500,55.3500,9.5744,1.0295,-1.7693,-0.0160,-0.0898,0.2385,-53.4000,8.5500,4.0500,3.6800,3.4000,-8.5200,-0.1691,0.1800,-0.0818,-19.5000,-25.2500,19.2500,217.5625,20.9375,-154.1250,0
1777067803.358,9.7683,1.4078,-2.7773,0.1567,-0.1633,0.0120,-63.1500,15.7500,54.7500,9.3996,0.8571,-1.8244,-0.0384,-0.0677,0.2473,-53.4000,8.5500,4.0500,3.6900,3.4300,-8.5000,-0.1920,0.1963,-0.0873,-19.5000,-25.2500,19.2500,217.5625,21.0000,-154.0000,0
1777067803.363,9.7683,1.4078,-2.7773,0.1567,-0.1633,0.0120,-63.1500,15.7500,54.7500,9.3996,0.8571,-1.8244,-0.0384,-0.0677,0.2473,-52.9500,6.7500,3.0000,3.6900,3.4300,-8.5000,-0.2334,0.1953,-0.0960,-19.5000,-25.2500,19.2500,217.5000,21.1250,-153.9375,0
1777067803.369,9.5840,1.5203,-2.7461,0.0757,-0.2276,-0.0141,-64.8000,16.6500,54.3000,9.1267,0.7494,-1.9369,-0.0983,-0.0195,0.2657,-52.9500,6.7500,3.0000,3.8400,3.2500,-8.3400,-0.2334,0.1953,-0.0960,-19.5000,-25.2500,19.2500,217.5000,21.1250,-153.9375,0
1777067803.378,9.4140,1.6448,-2.6743,0.0213,-0.3096,-0.0616,-64.8000,16.6500,54.3000,9.0501,0.6584,-2.2290,-0.2241,0.0107,0.2691,-53.2500,7.5000,4.5000,3.8100,3.3600,-8.2900,-0.2574,0.1767,-0.0993,-19.5000,-25.2500,19.2500,217.5000,21.2500,-153.8750,0
1777067803.383,9.4140,1.6448,-2.6743,-0.0709,-0.3722,-0.0930,-64.8000,16.6500,54.3000,9.0501,0.6584,-2.2290,-0.2241,0.0107,0.2691,-52.6500,7.8000,2.5500,3.8100,3.3600,-8.2900,-0.2487,0.1516,-0.1004,-19.5000,-25.2500,19.2500,217.5000,21.3125,-153.8125,0
1777067803.389,9.2727,1.7693,-2.5809,-0.0709,-0.3722,-0.0930,-63.9000,16.0500,55.2000,9.5217,0.6153,-1.9321,-0.2814,0.0088,0.2689,-52.6500,7.8000,2.5500,3.7900,3.5200,-8.2300,-0.2487,0.1516,-0.1004,-19.5000,-25.2500,19.2500,217.5000,21.3125,-153.8125,0
1777067803.394,9.1578,1.8459,-2.4301,-0.1665,-0.3757,-0.1210,-64.2000,16.0500,54.4500,8.9399,1.2115,-2.5450,-0.3120,0.0917,0.2774,-54.1500,6.9000,4.0500,3.7900,3.5200,-8.2300,-0.2193,0.1167,-0.0938,-19.7500,-24.5625,19.0000,217.4375,21.3750,-153.6875,0
1777067803.399,9.1578,1.8459,-2.4301,-0.1665,-0.3757,-0.1210,-64.2000,16.0500,54.4500,8.9399,1.2115,-2.5450,-0.3120,0.0917,0.2774,-54.1500,6.9000,4.0500,3.7600,3.7100,-8.2100,-0.2193,0.1167,-0.0938,-19.7500,-24.5625,19.0000,217.4375,21.3750,-153.6875,0
1777067803.404,9.1171,1.8555,-2.4900,-0.2105,-0.3909,-0.1655,-63.1500,14.2500,53.7000,9.1459,1.3910,-2.3918,-0.2206,0.1399,0.2785,-53.1000,8.1000,4.0500,3.7600,3.7100,-8.2100,-0.1887,0.0905,-0.0785,-19.7500,-24.5625,19.0000,217.4375,21.4375,-153.5625,0
1777067803.409,9.1171,1.8555,-2.4900,-0.2105,-0.3909,-0.1655,-63.1500,14.2500,53.7000,9.1459,1.3910,-2.3918,-0.2206,0.1399,0.2785,-53.1000,8.1000,4.0500,3.7000,3.7500,-8.1800,-0.1887,0.0905,-0.0785,-19.7500,-24.5625,19.0000,217.4375,21.4375,-153.5625,0
1777067803.414,9.1554,1.9896,-2.4277,-0.2276,-0.4117,-0.1985,-62.1000,16.5000,54.4500,9.2799,1.5921,-2.2553,-0.1026,0.1764,0.2880,-53.1000,6.6000,4.8000,3.7000,3.7500,-8.1800,-0.1418,0.0774,-0.0665,-19.7500,-24.5625,19.0000,217.3750,21.4375,-153.5000,0
1777067803.419,9.1554,1.9896,-2.4277,-0.2276,-0.4117,-0.1985,-62.1000,16.5000,54.4500,9.2799,1.5921,-2.2553,-0.1026,0.1764,0.2880,-53.1000,6.6000,4.8000,3.5600,3.7200,-8.2400,-0.1418,0.0774,-0.0665,-19.7500,-24.5625,19.0000,217.3750,21.4375,-153.3750,0
1777067803.429,9.4475,2.1045,-2.4062,-0.2156,-0.3693,-0.2236,-63.9000,15.7500,55.5000,9.5098,1.5419,-2.1524,0.0248,0.2372,0.2971,-53.1000,6.6000,4.8000,3.5600,3.7700,-8.3200,-0.0982,0.0905,-0.0567,-19.7500,-24.5625,19.0000,217.3750,21.4375,-153.3750,0
1777067803.439,9.6989,2.2027,-2.4181,-0.1756,-0.3733,-0.2427,-63.9000,15.7500,55.5000,9.7468,1.5586,-1.9201,0.1250,0.2870,0.3016,-53.1000,6.1500,4.8000,3.5200,3.8400,-8.3200,-0.0513,0.1189,-0.0513,-19.7500,-24.5625,19.0000,217.3125,21.5000,-153.3750,0
1777067803.443,9.8330,2.4229,-2.4804,-0.1050,-0.4034,-0.2643,-63.4500,16.0500,54.4500,9.7348,1.3671,-1.6951,0.2118,0.3080,0.3128,-52.9500,7.2000,4.2000,3.5200,3.8400,-8.3200,-0.0513,0.1189,-0.0513,-19.7500,-24.5625,19.0000,217.3125,21.5000,-153.3750,0
1777067803.448,9.8330,2.4229,-2.4804,-0.1050,-0.4034,-0.2643,-63.4500,16.0500,54.4500,9.7348,1.3671,-1.6951,0.2118,0.3080,0.3128,-52.9500,7.2000,4.2000,3.6000,3.5500,-8.4400,-0.0098,0.1505,-0.0469,-20.1875,-24.8750,19.0000,217.2500,21.5625,-153.3125,0
1777067803.453,9.9431,2.6001,-2.5067,-0.0277,-0.4572,-0.2856,-63.4500,17.5500,54.1500,10.0604,1.2785,-1.5562,0.2406,0.3067,0.3312,-53.8500,6.9000,4.8000,3.6000,3.5500,-8.4400,-0.0098,0.1505,-0.0469,-20.1875,-24.8750,19.0000,217.2500,21.5625,-153.3125,0
1777067803.458,9.9431,2.6001,-2.5067,-0.0277,-0.4572,-0.2856,-63.4500,17.5500,54.1500,10.0604,1.2785,-1.5562,0.2406,0.3067,0.3312,-53.8500,6.9000,4.8000,3.6800,3.5100,-8.4400,-0.0218,0.1669,-0.0316,-20.1875,-24.8750,19.0000,217.2500,21.6250,-153.3750,0
1777067803.463,9.8952,2.7031,-2.4229,0.0626,-0.5156,-0.3088,-62.7000,17.5500,53.4000,10.1514,0.9768,-1.1181,0.2611,0.3022,0.3661,-53.2500,7.2000,2.7000,3.6800,3.5100,-8.4400,-0.0807,0.1800,-0.0240,-20.1875,-24.8750,19.0000,217.1875,21.7500,-153.3125,0
1777067803.469,9.8952,2.7031,-2.4229,0.0626,-0.5156,-0.3088,-62.7000,17.5500,53.4000,10.1514,0.9768,-1.1181,0.2611,0.3022,0.3661,-53.2500,7.2000,2.7000,3.7300,3.2200,-8.6200,-0.0807,0.1800,-0.0240,-20.1875,-24.8750,19.0000,217.1875,21.8125,-153.1250,0
1777067803.479,9.9000,2.8874,-2.3703,0.1319,-0.5268,-0.3453,-63.7500,17.4000,54.6000,9.8713,0.9840,-0.6847,0.3136,0.3469,0.4010,-53.8500,6.6000,3.6000,3.7900,2.9000,-8.6800,-0.2007,0.2171,-0.0240,-20.1875,-24.8750,19.0000,217.1875,21.9375,-152.9375,0
1777067803.489,9.9264,3.0478,-2.3056,0.1767,-0.4895,-0.3853,-63.7500,17.4000,54.6000,10.1418,1.0319,-0.5890,0.2870,0.3776,0.4562,-54.0000,7.5000,4.5000,3.8700,2.7900,-8.7200,-0.3687,0.2923,-0.0404,-20.1875,-24.8750,19.0000,217.1875,21.9375,-152.9375,0
1777067803.494,9.9503,3.2370,-2.1931,0.1977,-0.4469,-0.4271,-62.4000,18.3000,52.6500,10.2256,1.1157,-0.4717,0.2545,0.3850,0.4959,-54.0000,7.5000,4.5000,3.8700,2.7900,-8.7200,-0.3687,0.2923,-0.0404,-19.7500,-25.5625,18.0625,217.1250,22.1250,-152.6250,0
1777067803.499,9.9503,3.2370,-2.1931,0.1977,-0.4469,-0.4271,-62.4000,18.3000,52.6500,10.2256,1.1157,-0.4717,0.2545,0.3850,0.4959,-54.0000,7.5000,4.5000,4.0000,3.1500,-8.6200,-0.4691,0.4047,-0.0753,-19.7500,-25.5625,18.0625,217.1250,22.1250,-152.6250,0
1777067803.504,10.0341,3.2394,-1.9465,0.1783,-0.4002,-0.4674,-63.9000,17.2500,52.9500,10.4220,1.0822,-0.1724,0.1943,0.3824,0.5135,-53.4000,6.1500,4.0500,4.0000,3.1500,-8.6200,-0.4691,0.4047,-0.0753,-19.7500,-25.5625,18.0625,217.0625,22.3750,-152.2500,0
1777067803.509,10.0341,3.2394,-1.9465,0.1783,-0.4002,-0.4674,-63.9000,17.2500,52.9500,10.4220,1.0822,-0.1724,0.1943,0.3824,0.5135,-53.4000,6.1500,4.0500,3.9800,3.6100,-8.2000,-0.4603,0.4658,-0.0949,-19.7500,-25.5625,18.0625,217.0625,22.3750,-152.2500,0
1777067803.513,9.9862,3.2322,-1.7358,0.1356,-0.3864,-0.4994,-62.4000,19.5000,52.9500,10.4794,1.0080,-0.0958,0.2297,0.3579,0.5057,-53.7000,6.4500,3.4500,3.9800,3.6100,-8.2000,-0.4309,0.5061,-0.0916,-19.7500,-25.5625,18.0625,217.0000,22.5625,-151.9375,0
1777067803.519,9.8067,3.0622,-1.4581,0.0893,-0.3888,-0.5159,-62.4000,19.5000,52.9500,10.2520,1.0391,0.0862,0.2912,0.3786,0.4703,-53.7000,6.4500,3.4500,4.1300,5.1700,-8.2100,-0.4309,0.5061,-0.0916,-19.7500,-25.5625,18.0625,216.9375,22.8125,-151.7500,0
1777067803.529,9.6295,2.6217,-1.1420,0.0765,-0.3592,-0.5031,-63.4500,18.7500,52.6500,10.1083,0.7566,0.0527,0.4050,0.3603,0.4287,-53.4000,6.1500,3.6000,4.3200,5.0500,-8.1800,-0.2618,0.4865,-0.0949,-19.7500,-25.5625,18.0625,216.9375,22.8125,-151.7500,0
1777067803.539,9.5888,2.3727,-0.8260,0.1231,-0.2899,-0.4666,-63.4500,18.7500,52.6500,10.1227,0.7183,0.0335,0.4093,0.3592,0.3712,-54.1500,5.4000,5.5500,4.8900,6.1900,-7.6300,-0.1145,0.4538,-0.1407,-19.7500,-25.5625,18.0625,216.8125,23.0000,-151.6250,0
1777067803.544,9.5888,2.3727,-0.8260,0.1231,-0.2899,-0.4666,-62.4000,17.2500,51.9000,10.1227,0.7183,0.0335,0.4093,0.3592,0.3712,-52.5000,4.8000,5.7000,4.8900,6.1900,-7.6300,-0.1145,0.4538,-0.1407,-19.7500,-25.5625,18.0625,216.8125,23.0000,-151.6250,0
1777067803.549,9.4260,2.0901,-0.6129,0.2102,-0.2422,-0.4218,-62.4000,17.2500,51.9000,9.9072,0.2298,0.1604,0.4583,0.3552,0.3435,-52.5000,4.8000,5.7000,4.4900,6.6000,-7.3400,0.0829,0.4941,-0.2902,-19.8750,-24.8750,16.8750,216.5625,23.1250,-151.5000,0
1777067803.554,9.4260,2.0901,-0.6129,0.2102,-0.2422,-0.4218,-62.4000,19.8000,52.6500,9.9072,0.2298,0.1604,0.4583,0.3552,0.3435,-55.2000,6.4500,5.7000,4.4900,6.6000,-7.3400,0.0829,0.4941,-0.2902,-19.8750,-24.8750,16.8750,216.5625,23.1250,-151.5000,0
1777067803.559,9.2680,1.8986,-0.6560,0.3184,-0.2177,-0.3786,-62.4000,19.8000,52.6500,10.0652,-0.0096,0.3448,0.5729,0.3128,0.3267,-55.2000,6.4500,5.7000,4.5000,4.3800,-8.5100,0.3360,0.4342,-0.3305,-19.8750,-24.8750,16.8750,216.2500,23.2500,-151.6250,0
1777067803.564,9.2680,1.8986,-0.6560,0.3184,-0.2177,-0.3786,-61.6500,19.0500,51.9000,10.0652,-0.0096,0.3448,0.5729,0.3128,0.3267,-55.2000,6.4500,5.7000,4.5000,4.3800,-8.5100,0.3938,0.2945,-0.2171,-19.8750,-24.8750,16.8750,216.0625,23.3750,-151.7500,0
1777067803.570,9.1243,1.8387,-0.7111,0.4535,-0.1905,-0.3491,-61.6500,19.0500,51.9000,9.7133,-0.5004,0.2969,0.5929,0.2950,0.3190,-55.2000,6.4500,5.7000,4.2000,3.0800,-8.8400,0.3938,0.2945,-0.2171,-19.8750,-24.8750,16.8750,215.9375,23.4375,-151.9375,0
1777067803.579,8.9902,1.7454,-0.9720,0.5407,-0.1801,-0.3371,-61.3500,19.5000,51.6000,9.4667,-1.3120,0.5602,0.6291,0.2753,0.3118,-53.8500,6.1500,4.3500,3.9600,3.5500,-8.4200,0.3818,0.2247,-0.0622,-19.8750,-24.8750,16.8750,215.9375,23.4375,-151.9375,0
1777067803.589,9.0549,1.6544,-0.9577,0.6824,-0.1641,-0.3277,-60.3000,20.2500,51.6000,9.4212,-1.5610,0.4477,0.5614,0.2579,0.2968,-53.4000,5.4000,5.5500,3.9400,2.9000,-8.2300,0.4287,0.2018,0.0109,-19.8750,-24.8750,16.8750,215.8750,23.5625,-152.1250,0
1777067803.594,9.0549,1.6544,-0.9577,0.6824,-0.1641,-0.3277,-60.3000,20.2500,51.6000,9.4212,-1.5610,0.4477,0.5614,0.2579,0.2968,-53.2500,5.2500,3.7500,3.9400,2.9000,-8.2300,0.4287,0.2018,0.0109,-19.8750,-24.8750,16.8750,215.8125,23.6250,-152.3750,0
1777067803.599,8.2911,1.1708,-0.6991,0.7877,-0.0767,-0.2998,-60.3000,20.2500,51.6000,9.5912,-1.5850,0.5100,0.4517,0.2310,0.2734,-53.2500,5.2500,3.7500,4.5600,3.1600,-8.1500,0.4821,0.1996,0.0120,-20.2500,-25.2500,17.6875,215.8125,23.6250,-152.3750,0
1777067803.604,8.2911,1.1708,-0.6991,0.7877,-0.0767,-0.2998,-61.2000,19.9500,50.7000,9.5912,-1.5850,0.5100,0.4517,0.2310,0.2734,-52.5000,6.0000,5.2500,4.5600,3.1600,-8.1500,0.4821,0.1996,0.0120,-20.2500,-25.2500,17.6875,215.7500,23.7500,-152.7500,0
1777067803.609,9.6678,1.3144,-1.4198,0.7565,0.5473,-0.1857,-61.2000,19.9500,50.7000,9.6127,-1.4629,0.3998,0.3632,0.2110,0.2451,-52.5000,6.0000,5.2500,4.8300,3.1300,-8.0900,0.6360,0.2127,0.0851,-20.2500,-25.2500,17.6875,215.7500,23.7500,-152.7500,0
1777067803.614,9.6678,1.3144,-1.4198,0.7565,0.5473,-0.1857,-59.5500,21.0000,50.8500,9.6127,-1.4629,0.3998,0.3632,0.2110,0.2451,-54.1500,5.4000,4.8000,4.8300,3.1300,-8.0900,0.8323,0.1931,0.1538,-20.2500,-25.2500,17.6875,215.6875,23.9375,-153.1875,0
1777067803.620,9.5768,1.6209,-1.3599,0.9694,0.4218,-0.1844,-56.1000,20.7000,47.5500,9.6319,-1.2474,0.6129,0.3691,0.2030,0.2214,-54.1500,5.4000,4.8000,4.9000,3.7700,-8.0500,0.8323,0.1931,0.1538,-20.2500,-25.2500,17.6875,215.6875,24.0000,-153.7500,0
1777067803.629,9.5265,1.4389,-1.4461,1.0024,0.2609,-0.1716,-51.0000,23.7000,43.5000,9.5433,-1.0223,0.5387,0.3408,0.1940,0.1852,-52.9500,6.4500,4.9500,3.9000,4.2000,-8.0000,1.0079,0.1091,0.1745,-20.2500,-25.2500,17.6875,215.6875,24.0000,-153.7500,0
1777067803.639,8.9807,1.2905,-1.5634,0.9643,0.2435,-0.1314,-51.0000,23.7000,43.5000,9.5505,-0.6967,0.4070,0.4509,0.1884,0.1548,-52.9500,6.4500,4.9500,4.2400,4.9200,-9.0100,1.0799,-0.0011,0.1473,-20.2500,-25.2500,17.6875,215.6250,24.0625,-154.4375,0
1777067803.644,8.9807,1.2905,-1.5634,0.9643,0.2435,-0.1314,-51.0000,23.7000,43.5000,9.0118,0.7709,1.6544,0.4509,0.1884,0.1548,-55.3500,6.1500,4.3500,4.2400,4.9200,-9.0100,1.0799,-0.0011,0.1473,-20.2500,-25.2500,17.6875,215.6250,24.0625,-154.4375,0
1777067803.649,9.3158,0.9864,-2.3607,0.9582,0.2761,-0.0698,-51.0000,23.7000,43.5000,9.0118,0.7709,1.6544,0.8215,0.2878,0.1641,-55.3500,6.1500,4.3500,5.6100,5.1700,-9.3800,1.2392,-0.1396,0.1004,-20.1875,-24.5000,17.6875,215.5000,24.0000,-155.1250,0
1777067803.654,9.3158,0.9864,-2.3607,0.9582,0.2761,-0.0698,-45.4500,26.7000,36.7500,9.0046,3.4524,-0.0479,0.8215,0.2878,0.1641,-54.1500,4.2000,5.5500,5.6100,5.1700,-9.3800,1.2392,-0.1396,0.1004,-20.1875,-24.5000,17.6875,215.5000,24.0000,-155.1250,0
1777067803.659,9.7229,1.0965,-1.9273,1.0539,0.2587,-0.0248,-45.0000,27.0000,35.2500,9.0046,3.4524,-0.0479,0.3046,0.4533,0.1482,-54.1500,4.2000,5.5500,11.8900,16.1800,-8.0900,1.8042,-0.1025,-0.4712,-20.1875,-24.5000,17.6875,215.0625,23.8125,-156.0625,0
1777067803.664,9.7229,1.0965,-1.9273,1.1474,0.2803,-0.0195,-45.0000,27.0000,35.2500,9.9814,4.0007,0.0862,0.7394,0.5550,0.2153,-53.4000,6.1500,5.8500,11.8900,16.1800,-8.0900,3.1067,-0.6523,-2.1140,-20.1875,-24.5000,17.6875,213.5625,23.0625,-157.3750,0
1777067803.670,9.8545,1.3024,-1.8004,1.1474,0.2803,-0.0195,-44.1000,27.1500,33.6000,9.9814,4.0007,0.0862,0.7394,0.5550,0.2153,-53.4000,6.1500,5.8500,15.6500,12.1500,-8.1700,3.1067,-0.6523,-2.1140,-20.1875,-24.5000,17.6875,211.6250,22.2500,-158.4375,0
1777067803.679,9.4547,1.8100,-1.9225,1.2577,0.2553,-0.0770,-42.9000,24.9000,36.1500,10.7787,5.4157,1.0247,1.8922,0.4935,0.3813,-54.0000,4.8000,5.7000,0.7700,-1.7200,-1.5500,3.0074,-0.2793,-2.9681,-20.1875,-24.5000,17.6875,209.5000,22.0625,-158.8125,0
1777067803.689,8.9783,2.3320,-2.0016,1.4605,0.2451,-0.1729,-42.9000,24.9000,36.1500,9.6798,6.3590,2.4229,2.8940,0.4735,0.4463,-52.9500,5.5500,4.2000,2.7500,2.2600,-3.5300,2.0431,0.8029,-3.2409,-20.1875,-24.5000,17.6875,209.5000,22.0625,-158.8125,0
1777067803.694,8.8609,2.8132,-1.8483,1.6771,0.2683,-0.2697,-42.9000,24.9000,36.1500,8.1690,5.5378,3.3255,4.2368,0.4386,0.3773,-52.2000,7.2000,4.9500,2.7500,2.2600,-3.5300,2.0431,0.8029,-3.2409,-20.1875,-24.5000,17.6875,207.2500,22.1250,-158.8750,0
1777067803.699,8.8609,2.8132,-1.8483,1.6771,0.2683,-0.2697,-41.7000,24.3000,37.0500,8.1690,5.5378,3.3255,4.2368,0.4386,0.3773,-52.2000,7.2000,4.9500,4.1500,6.0800,-4.6900,1.6242,1.5599,-3.4568,-20.1875,-23.7500,19.0000,207.2500,22.1250,-158.8750,0
1777067803.704,8.7891,3.1532,-1.4102,1.8237,0.3243,-0.3541,-41.7000,24.3000,37.0500,7.5657,4.3551,3.5195,5.0465,0.4612,0.2372,-52.2000,7.2000,4.9500,4.1500,6.0800,-4.6900,1.7726,1.7224,-3.5310,-20.1875,-23.7500,19.0000,204.9375,22.3125,-158.9375,0
1777067803.710,8.7891,3.1532,-1.4102,1.8237,0.3243,-0.3541,-41.1000,23.7000,38.2500,7.5657,4.3551,3.5195,5.0465,0.4612,0.2372,-52.2000,7.2000,4.9500,6.8800,2.2300,-8.1900,1.7726,1.7224,-3.5310,-20.1875,-23.7500,19.0000,204.9375,22.3125,-158.9375,0
1777067803.716,8.2193,3.3088,-1.0534,2.0368,0.3792,-0.4215,-41.1000,23.7000,38.2500,8.2384,1.7214,3.0263,5.5014,0.4924,0.0674,-53.2500,6.4500,3.4500,5.4900,2.0300,-8.6300,1.8053,1.4399,-3.6030,-20.1875,-23.7500,19.0000,202.5625,22.3750,-159.0625,0
1777067803.720,8.2193,3.3088,-1.0534,2.0368,0.3792,-0.4215,-40.6500,23.2500,39.1500,9.0166,-2.2051,0.6752,5.5014,0.4924,0.0674,-53.2500,6.4500,3.4500,5.4900,2.0300,-8.6300,1.8053,1.4399,-3.6030,-20.1875,-23.7500,19.0000,200.1875,22.2500,-159.1875,0
1777067803.729,8.2217,4.0342,-0.0862,2.2231,0.5929,-0.4525,-40.2000,23.5500,39.9000,9.0166,-2.2051,0.6752,5.6559,0.5188,0.0093,-53.1000,6.6000,1.8000,4.9100,2.5500,-8.4900,1.8228,1.2272,-3.7295,-20.1875,-23.7500,19.0000,197.6875,22.1250,-159.3125,0
1777067803.739,8.2887,4.4077,0.3376,2.2815,0.6411,-0.4898,-39.3000,23.7000,40.3500,9.3278,-1.6759,4.2689,5.9264,0.4415,0.1332,-54.6000,9.0000,2.1000,3.7600,-1.1500,-7.7400,1.9046,1.1421,-3.8659,-20.1875,-23.7500,19.0000,197.6875,22.1250,-159.3125,0
1777067803.744,8.4874,4.8291,0.8571,2.4448,0.7927,-0.5247,-39.3000,23.7000,40.3500,9.7444,-4.4460,2.4972,5.1694,0.5023,0.2702,-52.3500,8.1000,0.0000,3.7600,-1.1500,-7.7400,1.9046,1.1421,-3.8659,-20.1875,-23.7500,19.0000,197.6875,22.1250,-159.3125,0
1777067803.749,8.4874,4.8291,0.8571,2.4448,0.7927,-0.5247,-39.3000,23.7000,40.3500,10.6566,-5.8682,2.6121,5.1694,0.5023,0.2702,-52.3500,8.1000,0.0000,2.8800,-1.6700,-8.3100,1.6962,1.1476,-3.8288,-17.5625,-24.5625,20.5000,195.3125,21.9375,-159.3750,0
1777067803.754,8.9256,4.3814,1.6759,2.3198,0.8958,-0.5375,-39.3000,23.7000,40.3500,10.6566,-5.8682,2.6121,4.4166,0.3685,0.4551,-54.4500,7.5000,-0.4500,2.8800,-1.6700,-8.3100,1.6962,1.1476,-3.8288,-17.5625,-24.5625,20.5000,195.3125,21.9375,-159.3750,0
1777067803.759,8.9256,4.3814,1.6759,2.3198,0.8958,-0.5375,-41.8500,23.7000,38.2500,10.4794,-6.5218,2.0734,4.4166,0.3685,0.4551,-54.4500,7.5000,-0.4500,4.2000,-0.5000,-9.0900,1.3504,1.2141,-3.5921,-17.5625,-24.5625,20.5000,193.0000,21.8750,-159.2500,0
1777067803.765,9.4930,3.0550,2.3894,2.1741,1.0520,-0.5345,-41.8500,23.7000,38.2500,10.4794,-6.5218,2.0734,3.2341,0.2838,0.5113,-52.6500,6.6000,-0.3000,4.4700,-0.4000,-9.7200,1.2501,1.1334,-3.3009,-17.5625,-24.5625,20.5000,190.9375,21.8125,-159.1875,0
1777067803.770,9.6917,1.6759,1.4222,2.2516,1.1866,-0.5183,-40.2000,25.8000,37.6500,9.7516,-6.3327,1.2737,2.1685,0.2057,0.4850,-52.6500,6.6000,-0.3000,4.4700,-0.4000,-9.7200,1.2501,1.1334,-3.3009,-17.5625,-24.5625,20.5000,189.0625,21.7500,-159.1250,0
1777067803.779,9.6917,1.6759,1.4222,2.2516,1.1866,-0.5183,-40.0500,27.9000,35.7000,9.5193,-5.3822,0.7638,1.3598,0.1716,0.4072,-52.6500,6.6000,-0.3000,4.5700,-0.4200,-9.7200,1.1988,0.9556,-2.9791,-17.5625,-24.5625,20.5000,187.4375,21.5625,-159.1250,0
1777067803.789,9.4715,0.4693,0.5315,2.4706,1.2750,-0.4056,-40.2000,30.3000,30.1500,9.1411,-4.0534,0.8332,0.8580,0.1292,0.3147,-55.3500,5.8500,0.6000,4.3200,0.2300,-9.1400,1.0756,0.7341,-2.6442,-17.5625,-24.5625,20.5000,187.4375,21.5625,-159.1250,0
1777067803.794,9.7755,-0.4166,-0.5938,2.4706,1.2750,-0.4056,-40.2000,30.3000,30.1500,9.1411,-4.0534,0.8332,0.8580,0.1292,0.3147,-53.8500,5.8500,0.6000,4.3200,0.2300,-9.1400,1.0756,0.7341,-2.6442,-17.5625,-24.5625,20.5000,187.4375,21.5625,-159.1250,0
1777067803.799,10.0245,-0.7254,-1.7765,2.4986,1.2670,-0.3251,-40.2000,30.3000,30.1500,9.0621,-2.4708,0.6823,0.5993,0.1428,0.2465,-53.8500,5.8500,0.0000,4.1200,0.6400,-8.6100,0.9130,0.5727,-2.3267,-13.6875,-25.2500,21.0000,185.8750,21.4375,-159.1250,0
1777067803.804,10.0245,-0.7254,-1.7765,2.4986,1.2670,-0.3251,-40.2000,30.3000,30.1500,9.0621,-2.4708,0.6823,0.5993,0.1428,0.2465,-54.1500,6.1500,-0.6000,4.1200,0.6400,-8.6100,0.9130,0.5727,-2.3267,-13.6875,-25.2500,21.0000,185.8750,21.4375,-159.1250,0
1777067803.809,9.1506,-0.4573,-1.7669,2.8120,-0.0474,-0.3104,-40.2000,33.7500,24.4500,8.9280,-1.1085,0.8332,0.5033,0.1593,0.1791,-54.1500,6.1500,-0.6000,3.9900,1.7300,-7.8600,0.6654,0.4734,-2.0355,-13.6875,-25.2500,21.0000,184.6250,21.2500,-159.0625,0
1777067803.814,9.1506,-0.4573,-1.7669,2.8120,-0.0474,-0.3104,-40.2000,33.7500,24.4500,8.9280,-1.1085,0.8332,0.5033,0.1593,0.1791,-54.1500,6.1500,-0.6000,3.9900,1.7300,-7.8600,0.4047,0.4145,-1.7890,-13.6875,-25.2500,21.0000,183.5625,21.1250,-158.8750,0
1777067803.820,9.5960,-0.7230,-3.3232,2.5455,0.6571,-0.1828,-40.6500,34.0500,23.1000,9.1506,0.1197,0.7997,0.5833,0.1551,0.1151,-53.8500,7.8000,-0.3000,3.6600,2.3600,-7.5700,0.4047,0.4145,-1.7890,-13.6875,-25.2500,21.0000,182.5625,21.0000,-158.6250,0
1777067803.829,9.6654,-0.8332,-3.5721,2.4866,0.9910,-0.1119,-38.8500,33.7500,22.0500,9.3518,1.1325,0.7470,0.8447,0.1199,0.0730,-53.2500,6.4500,-0.1500,3.4200,2.6000,-7.4300,0.1724,0.4211,-1.6090,-13.6875,-25.2500,21.0000,182.5625,21.0000,-158.6250,0
1777067803.839,10.4435,-0.8906,-3.7397,2.2119,0.7056,-0.1124,-38.4000,34.0500,20.5500,9.3733,1.3982,0.9673,1.2020,0.0842,0.0402,-52.9500,6.7500,-0.1500,3.1700,3.7600,-7.5200,0.0240,0.4614,-1.5424,-13.6875,-25.2500,21.0000,181.6875,20.9375,-158.3125,0
1777067803.844,10.4435,-0.8906,-3.7397,2.2119,0.7056,-0.1124,-38.4000,34.0500,20.5500,9.3733,1.3982,0.9673,1.2020,0.0842,0.0402,-52.9500,6.7500,-0.1500,3.1700,3.7600,-7.5200,0.0240,0.4614,-1.5424,-13.6875,-25.2500,21.0000,181.6875,20.9375,-158.3125,0
1777067803.849,9.3326,-0.9529,-3.3303,1.9015,0.4727,-0.1434,-38.4000,34.0500,20.5500,9.2153,1.2737,0.7542,1.6201,0.0733,0.0293,-52.9500,6.7500,-0.1500,3.1900,3.7000,-7.6500,0.0240,0.5356,-1.5544,-10.6875,-26.2500,22.5000,180.5000,20.8750,-157.9375,0
1777067803.854,9.3326,-0.9529,-3.3303,1.9015,0.4727,-0.1434,-38.4000,34.0500,20.5500,9.2153,1.2737,0.7542,1.6201,0.0733,0.0293,-52.9500,6.7500,-0.1500,3.1900,3.7000,-7.6500,0.0240,0.5356,-1.5544,-10.6875,-26.2500,22.5000,180.5000,20.8750,-157.9375,0
1777067803.859,9.0908,-0.7614,-2.7390,1.5527,0.6883,-0.1450,-37.6500,32.5500,22.0500,9.4188,0.5986,0.7470,1.9897,0.0679,0.0354,-53.4000,5.8500,-1.0500,3.1900,3.6400,-7.8000,0.0491,0.6207,-1.6701,-10.6875,-26.2500,22.5000,179.5000,20.8750,-157.6250,0
1777067803.864,9.0908,-0.7614,-2.7390,1.5527,0.6883,-0.1450,-37.6500,32.5500,22.0500,9.4188,0.5986,0.7470,1.9897,0.0679,0.0354,-53.4000,5.8500,-1.0500,3.1900,3.6400,-7.8000,0.0600,0.7058,-1.8817,-10.6875,-26.2500,22.5000,178.3750,20.8125,-157.2500,0
1777067803.870,9.5265,-0.1676,-2.5043,1.2793,0.7871,-0.1340,-37.0500,30.0000,23.1000,9.6199,-0.1987,0.7518,2.2183,0.0845,0.0602,-53.8500,6.9000,-0.6000,3.1900,3.9600,-7.9100,0.0600,0.7058,-1.8817,-10.6875,-26.2500,22.5000,177.1250,20.8125,-156.8125,0
1777067803.879,9.5984,0.2035,-1.7837,1.0232,0.7706,-0.1324,-36.6000,30.7500,23.1000,9.8067,-1.0199,0.8236,2.2660,0.0983,0.0741,-53.4000,6.1500,-1.0500,3.5100,3.8500,-8.1300,0.1047,0.8018,-2.1097,-10.6875,-26.2500,22.5000,177.1250,20.8125,-156.8125,0
1777067803.889,10.1131,0.5626,-1.3838,0.8532,0.6715,-0.1188,-36.3000,31.0500,25.2000,9.8521,-1.5658,0.7111,2.1887,0.0674,0.0749,-54.4500,8.4000,-1.9500,3.6400,3.8000,-8.1300,0.1593,0.8814,-2.2995,-10.6875,-26.2500,22.5000,175.6875,20.7500,-156.3750,0
1777067803.894,10.1131,0.5626,-1.3838,0.8532,0.6715,-0.1188,-35.1000,32.5500,24.1500,9.8282,-2.0135,0.5555,2.0427,0.0506,0.0546,-54.4500,8.4000,-1.9500,3.6400,3.8000,-8.1300,0.1593,0.8814,-2.2995,-10.6875,-26.2500,22.5000,175.6875,20.7500,-156.3750,0
1777067803.899,10.1347,0.7638,-1.2881,0.6590,0.3840,-0.1218,-35.1000,32.5500,24.1500,9.8282,-2.0135,0.5555,2.0427,0.0506,0.0546,-53.4000,6.6000,-4.3500,3.6100,3.5900,-8.1900,0.2934,0.9272,-2.3562,-9.2500,-26.7500,21.1875,174.2500,20.6875,-156.0000,0
1777067803.904,10.1347,0.7638,-1.2881,0.6590,0.3840,-0.1218,-35.1000,32.5500,24.1500,9.7229,-2.4636,0.4741,1.8993,0.0328,0.0386,-53.4000,6.6000,-4.3500,3.6100,3.5900,-8.1900,0.2934,0.9272,-2.3562,-9.2500,-26.7500,21.1875,174.2500,20.6875,-156.0000,0
1777067803.909,9.4044,0.8859,-1.1349,0.4671,0.3792,-0.1023,-35.1000,32.5500,24.1500,9.7229,-2.4636,0.4741,1.8993,0.0328,0.0386,-53.1000,5.8500,-2.5500,3.6200,1.7300,-8.6600,0.4243,0.9545,-2.2526,-9.2500,-26.7500,21.1875,172.8125,20.6250,-155.7500,0
1777067803.914,9.4044,0.8859,-1.1349,0.4671,0.3792,-0.1023,-35.1000,32.5500,24.1500,9.9766,-3.1556,0.1293,1.6710,0.0181,0.0069,-53.1000,5.8500,-2.5500,3.6200,1.7300,-8.6600,0.3916,0.9218,-2.0606,-9.2500,-26.7500,21.1875,171.5000,20.6250,-155.5000,0
1777067803.920,9.3087,1.0558,-1.9537,0.3275,0.4442,-0.0999,-38.2500,32.7000,25.0500,9.9766,-3.1556,0.1293,1.6710,0.0181,0.0069,-53.1000,5.8500,-2.5500,3.7200,1.3300,-8.8200,0.3916,0.9218,-2.0606,-9.2500,-26.7500,21.1875,170.4375,20.6250,-155.1875,0
1777067803.929,9.4882,1.0534,-2.5618,0.2254,0.4866,-0.0546,-38.8500,31.5000,24.1500,9.8976,-3.3399,0.3759,1.4639,-0.0501,-0.0368,-53.2500,7.5000,-3.4500,3.6500,1.3300,-8.8400,0.2738,0.8290,-1.7879,-9.2500,-26.7500,21.1875,170.4375,20.6250,-155.1875,0
1777067803.939,9.8689,0.9744,-2.2122,0.0949,0.3600,0.0099,-38.2500,31.6500,22.2000,9.8450,-3.8618,0.4717,1.0754,-0.0029,-0.0573,-53.4000,5.4000,-3.6000,3.6200,1.2400,-8.9800,0.1385,0.7243,-1.4508,-9.2500,-26.7500,21.1875,169.5000,20.6875,-154.9375,0
1777067803.944,9.8689,0.9744,-2.2122,0.0269,0.2982,0.0163,-38.5500,32.7000,23.2500,9.7659,-3.8140,0.4022,0.6816,-0.0309,-0.0799,-53.4000,5.4000,-3.6000,3.6200,1.2400,-8.9800,0.1385,0.7243,-1.4508,-9.2500,-26.7500,21.1875,169.5000,20.6875,-154.9375,0
1777067803.949,9.8378,0.8547,-1.7238,0.0269,0.2982,0.0163,-38.5500,32.7000,23.2500,9.7659,-3.8140,0.4022,0.6816,-0.0309,-0.0799,-54.0000,6.0000,-3.7500,3.6800,1.3000,-9.0800,-0.0262,0.6000,-1.1334,-7.5000,-28.1875,21.6875,168.6875,20.6875,-154.6875,0
1777067803.954,9.5193,0.4525,-2.5139,-0.0213,0.3485,0.0032,-38.5500,32.7000,23.2500,9.7923,-3.4931,0.4980,0.2068,-0.0496,-0.0970,-54.0000,6.0000,-3.7500,3.6800,1.3000,-9.0800,-0.0262,0.6000,-1.1334,-7.5000,-28.1875,21.6875,168.6875,20.6875,-154.6875,0
1777067803.959,9.5193,0.4525,-2.5139,-0.0213,0.3485,0.0032,-38.5500,32.7000,23.2500,9.7923,-3.4931,0.4980,0.2068,-0.0496,-0.0970,-54.1500,5.4000,-3.6000,3.4900,1.5600,-9.1000,-0.2040,0.4789,-0.8716,-7.5000,-28.1875,21.6875,168.1875,20.7500,-154.3750,0
1777067803.964,9.2464,-0.0215,-3.2729,-0.0648,0.4042,0.0091,-38.4000,31.0500,23.8500,9.7205,-2.8108,0.5219,-0.1391,-0.0650,-0.1077,-54.1500,5.4000,-3.6000,3.4900,1.5600,-9.1000,-0.3676,0.3927,-0.6840,-7.5000,-28.1875,21.6875,167.8125,20.7500,-154.0000,0
1777067803.970,9.2464,-0.0215,-3.2729,-0.0648,0.4042,0.0091,-38.4000,31.0500,23.8500,9.5648,-2.0159,0.6201,-0.1391,-0.0650,-0.1077,-54.1500,6.1500,-3.6000,3.5600,1.8500,-9.1000,-0.3676,0.3927,-0.6840,-7.5000,-28.1875,21.6875,167.5000,20.8125,-153.5625,0
1777067803.980,9.3254,-0.3735,-3.1388,-0.0040,0.3946,0.0184,-38.2500,31.6500,23.5500,9.4619,-1.4150,0.7111,-0.3872,-0.0853,-0.1178,-52.6500,4.2000,-2.5500,3.3900,2.5300,-8.7600,-0.4756,0.3043,-0.5531,-7.5000,-28.1875,21.6875,167.5000,20.8125,-153.5625,0
1777067803.990,9.5768,0.0263,-1.9537,-0.0453,0.4343,0.0195,-37.2000,31.2000,24.7500,9.6271,-0.9505,0.6943,-0.5044,-0.1058,-0.1324,-52.6500,4.2000,-2.5500,3.1300,2.6900,-8.4200,-0.5509,0.2280,-0.4636,-7.5000,-28.1875,21.6875,167.2500,20.8125,-153.1875,0
1777067803.995,9.8234,0.2490,-1.5131,-0.2649,0.4122,0.0610,-36.6000,32.5500,23.8500,9.6271,-0.9505,0.6943,-0.5047,-0.1641,-0.1588,-52.6500,4.2000,-2.5500,3.1300,2.6900,-8.4200,-0.5509,0.2280,-0.4636,-7.5000,-28.1875,21.6875,167.2500,20.8125,-153.1875,0
1777067804.000,9.8234,0.2490,-1.5131,-0.2649,0.4122,0.0610,-36.6000,32.5500,23.8500,9.1578,-0.8811,0.6273,-0.4948,-0.1708,-0.1881,-52.9500,6.0000,-3.7500,2.9200,3.0300,-8.1200,-0.6043,0.1942,-0.3916,-6.0625,-28.8750,20.8750,167.0625,20.8125,-152.7500,0
1777067804.005,9.0956,0.2274,-1.2498,-0.4716,0.3914,0.1260,-36.6000,32.5500,23.8500,9.1578,-0.8811,0.6273,-0.4948,-0.1708,-0.1881,-52.9500,6.0000,-3.7500,2.9200,3.0300,-8.1200,-0.6043,0.1942,-0.3916,-6.0625,-28.8750,20.8750,167.0625,20.8125,-152.7500,0
1777067804.010,9.0956,0.2274,-1.2498,-0.4716,0.3914,0.1260,-36.6000,32.5500,23.8500,9.2392,-0.7278,0.4549,-0.4274,-0.2185,-0.2121,-54.6000,6.6000,-3.6000,2.7100,3.6400,-7.7900,-0.6185,0.1953,-0.3142,-6.0625,-28.8750,20.8750,166.9375,20.8125,-152.3125,0
1777067804.014,8.8418,0.4501,-1.3623,-0.5612,0.3946,0.1468,-36.6000,31.5000,25.9500,9.2392,-0.7278,0.4549,-0.4274,-0.2185,-0.2121,-54.6000,6.6000,-3.6000,2.7100,3.6400,-7.7900,-0.5694,0.2127,-0.2345,-6.0625,-28.8750,20.8750,166.8125,20.8125,-151.9375,0
1777067804.020,8.8418,0.4501,-1.3623,-0.5612,0.3946,0.1468,-36.6000,31.5000,25.9500,9.3972,-0.7685,0.7709,-0.3190,-0.2505,-0.2225,-52.6500,6.1500,-5.1000,2.6700,3.4300,-7.6500,-0.5694,0.2127,-0.2345,-6.0625,-28.8750,20.8750,166.7500,20.9375,-151.6250,0
1777067804.030,8.8107,0.3089,-1.7190,-0.5708,0.6118,0.1607,-34.5000,32.2500,25.6500,9.4140,-1.0630,1.1372,-0.2068,-0.2617,-0.2092,-53.7000,4.8000,-4.2000,4.0900,3.9000,-7.8000,-0.4440,0.3043,-0.1287,-6.0625,-28.8750,20.8750,166.7500,20.9375,-151.6250,0
1777067804.040,9.1482,0.3759,-1.4724,-0.5276,0.6734,0.2190,-34.9500,31.6500,25.8000,9.5720,-1.4509,1.0487,-0.0498,-0.2076,-0.1828,-52.9500,7.2000,-4.2000,6.5600,4.3800,-8.5700,0.0044,0.4243,0.2465,-6.0625,-28.8750,20.8750,166.8750,21.2500,-151.6250,0
1777067804.044,9.4715,0.6871,-0.7278,-0.5364,0.5790,0.2353,-33.0000,31.5000,27.3000,9.5720,-1.4509,1.0487,-0.0498,-0.2076,-0.1828,-52.9500,7.2000,-4.2000,6.5600,4.3800,-8.5700,0.0044,0.4243,0.2465,-6.0625,-28.8750,20.8750,167.0000,21.5000,-152.0625,0
1777067804.049,9.4715,0.6871,-0.7278,-0.5364,0.5790,0.2353,-33.0000,31.5000,27.3000,9.5289,-1.6903,1.7190,0.0304,-0.1503,-0.1732,-54.1500,4.9500,-3.6000,5.9200,0.4800,-9.1900,0.5967,0.2247,0.5781,-5.0625,-29.6875,20.3750,167.0000,21.5000,-152.0625,0
1777067804.054,10.3286,0.8595,-0.3280,-0.5140,0.6318,0.2068,-32.4000,31.6500,26.8500,9.5289,-1.6903,1.7190,0.0304,-0.1503,-0.1732,-54.1500,4.9500,-3.6000,5.9200,0.4800,-9.1900,0.5967,0.2247,0.5781,-5.0625,-29.6875,20.3750,167.1875,21.5625,-152.5625,0
1777067804.059,10.3286,0.8595,-0.3280,-0.5140,0.6318,0.2068,-32.4000,31.6500,26.8500,9.6510,-1.5610,2.1141,-0.0592,-0.1236,-0.1775,-54.1500,4.9500,-3.6000,6.8400,1.8900,-9.4500,0.7450,-0.0862,0.4887,-5.0625,-29.6875,20.3750,167.1875,21.5625,-152.5625,0
1777067804.064,10.5417,0.9840,-0.5698,-0.4178,0.5076,0.1697,-32.4000,31.6500,26.8500,9.6510,-1.5610,2.1141,-0.0592,-0.1236,-0.1775,-54.1500,4.9500,-3.6000,6.8400,1.8900,-9.4500,0.7210,-0.4167,0.2967,-5.0625,-29.6875,20.3750,167.3125,21.4375,-153.0625,0
1777067804.070,10.4890,1.5706,-0.2610,-0.3792,0.4628,0.1607,-32.4000,31.6500,26.8500,10.5273,-0.6752,2.1883,-0.2984,-0.1292,-0.2006,-53.4000,7.3500,-4.3500,6.6300,2.7600,-9.2500,0.7210,-0.4167,0.2967,-5.0625,-29.6875,20.3750,167.3750,21.1250,-153.5000,0
1777067804.080,10.6207,2.4277,-0.3112,-0.2507,0.4293,0.1644,-30.7500,31.0500,27.3000,10.2831,-0.0599,1.3288,-0.5369,-0.0549,-0.2150,-54.0000,7.5000,-4.2000,5.3700,3.9900,-8.1900,0.5749,-0.7199,0.1080,-5.0625,-29.6875,20.3750,167.3750,21.1250,-153.5000,0
1777067804.090,11.2001,3.3064,-0.5459,-0.2507,0.5087,0.1801,-30.1500,32.2500,27.7500,10.9918,0.8332,0.9673,-0.6568,0.0000,-0.2065,-54.4500,6.7500,-3.4500,5.1600,4.7700,-8.2200,0.4691,-0.8323,-0.0065,-5.0625,-29.6875,20.3750,167.4375,20.6875,-153.8125,0
1777067804.094,11.2001,3.3064,-0.5459,-0.2507,0.5087,0.1801,-30.1500,33.0000,28.0500,10.9918,0.8332,0.9673,-0.6568,0.0000,-0.2065,-54.4500,6.7500,-3.4500,5.1600,4.7700,-8.2200,0.4691,-0.8323,-0.0065,-5.0625,-29.6875,20.3750,167.4375,20.6875,-153.8125,0
1777067804.100,11.5688,3.7924,-0.6105,-0.1484,0.5247,0.1593,-30.1500,33.0000,28.0500,11.1282,1.4892,0.9888,-0.6952,0.0861,-0.2113,-52.9500,6.4500,-4.2000,5.6000,7.4300,-8.6100,0.4691,-0.7930,-0.0545,-7.0625,-29.3750,20.2500,167.5000,20.3125,-154.1250,0
1777067804.105,11.5688,3.7924,-0.6105,-0.1484,0.5247,0.1593,-29.1000,31.9500,28.2000,11.7029,0.7159,-0.1221,-0.6952,0.0861,-0.2113,-52.9500,6.4500,-4.2000,5.6000,7.4300,-8.6100,0.4691,-0.7930,-0.0545,-7.0625,-29.3750,20.2500,167.5000,20.3125,-154.1250,0
1777067804.110,10.6734,3.7828,-0.4453,0.0557,0.4684,0.1511,-29.1000,31.9500,28.2000,11.7029,0.7159,-0.1221,-0.1069,-0.1346,-0.1921,-53.4000,7.8000,-3.6000,1.9100,4.2700,-8.7600,0.5694,-0.7745,-0.0807,-7.0625,-29.3750,20.2500,167.5000,19.8750,-154.5000,0
1777067804.115,10.6734,3.7828,-0.4453,0.0557,0.4684,0.1511,-29.1000,31.9500,28.2000,11.0564,0.1628,0.0982,-0.1069,-0.1346,-0.1921,-53.4000,7.8000,-3.6000,1.9100,4.2700,-8.7600,0.5192,-0.4963,-0.1025,-7.0625,-29.3750,20.2500,167.4375,19.6250,-154.8125,0
1777067804.120,10.1035,3.0406,-0.7326,0.1908,0.9257,0.1119,-29.1000,31.9500,28.2000,11.0564,0.1628,0.0982,0.0925,-0.0576,-0.1799,-53.2500,8.4000,-4.2000,2.8700,3.9600,-9.0200,0.5192,-0.4963,-0.1025,-7.0625,-29.3750,20.2500,167.3750,19.4375,-155.0625,0
1777067804.130,10.4148,2.0997,-1.2354,0.6480,0.4762,0.0634,-27.3000,32.4000,29.2500,10.0485,-0.5243,0.1700,0.2617,-0.0088,-0.1943,-53.2500,8.4000,-4.2000,2.9600,3.9600,-8.8200,0.4287,-0.3185,-0.0687,-7.0625,-29.3750,20.2500,167.3750,19.4375,-155.0625,0
1777067804.140,8.4587,1.5658,-0.6536,0.7384,0.5391,0.0634,-24.7500,31.2000,29.7000,9.6343,-1.1301,0.2610,0.2806,-0.0333,-0.2078,-53.2500,8.7000,-3.4500,3.1600,3.6900,-8.7200,0.3469,-0.2214,-0.0556,-7.0625,-29.3750,20.2500,167.3750,19.3125,-155.2500,0
1777067804.145,8.4587,1.5658,-0.6536,0.7384,0.5391,0.0634,-26.8500,32.2500,30.6000,9.1794,-1.2977,0.0192,0.1807,-0.0632,-0.2220,-53.2500,8.7000,-3.4500,3.1600,3.6900,-8.7200,0.3469,-0.2214,-0.0556,-7.0625,-29.3750,20.2500,167.2500,19.1875,-155.4375,0
1777067804.150,9.5648,1.2163,-1.3958,0.8111,0.8335,0.0573,-26.8500,32.2500,30.6000,9.1794,-1.2977,0.0192,0.1807,-0.0632,-0.2220,-54.1500,8.1000,-3.3000,3.8100,2.8400,-8.7100,0.2640,-0.1713,-0.0371,-5.5625,-29.2500,21.5625,167.2500,19.1875,-155.4375,0
1777067804.155,9.5648,1.2163,-1.3958,0.8111,0.8335,0.0573,-25.0500,34.0500,31.3500,8.9256,-1.0415,0.0862,0.1415,-0.0440,-0.2172,-54.1500,8.1000,-3.3000,3.8100,2.8400,-8.7100,0.2640,-0.1713,-0.0371,-5.5625,-29.2500,21.5625,167.2500,19.1250,-155.5000,0
1777067804.160,9.5864,0.8763,-1.2929,0.7352,0.6153,0.0725,-25.0500,34.0500,31.3500,8.9256,-1.0415,0.0862,0.1415,-0.0440,-0.2172,-52.6500,8.1000,-5.5500,3.7700,2.9400,-8.5600,0.1571,-0.1669,-0.0142,-5.5625,-29.2500,21.5625,167.2500,19.1250,-155.5000,0
1777067804.165,9.5864,0.8763,-1.2929,0.7352,0.6153,0.0725,-25.0500,34.0500,31.3500,9.1722,-0.3855,0.1053,0.1140,0.0147,-0.1972,-52.6500,8.1000,-5.5500,3.7700,2.9400,-8.5600,0.0676,-0.1669,-0.0153,-5.5625,-29.2500,21.5625,167.2500,19.0625,-155.5625,0
1777067804.170,9.6103,0.6321,-1.0942,0.6414,0.5470,0.0983,-26.1000,34.8000,29.1000,9.1722,-0.3855,0.1053,0.1140,0.0147,-0.1972,-53.2500,9.1500,-4.5000,3.6800,3.0000,-8.5300,0.0676,-0.1669,-0.0153,-5.5625,-29.2500,21.5625,167.2500,18.9375,-155.5625,0
1777067804.180,9.9838,0.7566,-0.3974,0.5774,0.4519,0.1164,-26.1000,34.8000,29.1000,9.5361,0.0263,0.2753,0.1836,0.0568,-0.2129,-54.4500,8.4000,-5.2500,3.6200,3.3000,-8.4700,0.0011,-0.1636,-0.0273,-5.5625,-29.2500,21.5625,167.2500,18.9375,-155.5625,0
1777067804.190,9.3709,0.7757,-0.5219,0.3504,0.4125,0.1300,-25.5000,34.2000,28.6500,10.0365,0.1700,0.4645,0.3094,0.0101,-0.2555,-53.2500,8.7000,-4.2000,3.4700,3.6900,-8.4200,-0.0338,-0.1636,-0.0382,-5.5625,-29.2500,21.5625,167.2500,18.8750,-155.5625,0
1777067804.195,9.3709,0.7757,-0.5219,0.3504,0.4125,0.1300,-25.5000,34.2000,28.6500,9.9000,-0.1269,0.3735,0.3603,-0.0197,-0.2990,-53.2500,8.7000,-4.2000,3.4700,3.6900,-8.4200,-0.0338,-0.1636,-0.0382,-5.5625,-29.2500,21.5625,167.2500,18.8750,-155.5625,0
1777067804.200,9.2033,1.1396,-0.3926,0.3800,0.5561,0.1620,-24.1500,33.9000,28.9500,9.9000,-0.1269,0.3735,0.3603,-0.0197,-0.2990,-53.2500,8.7000,-4.2000,3.5700,3.6300,-8.3800,-0.0404,-0.1560,-0.0382,-4.5000,-27.7500,21.8750,167.1250,18.7500,-155.5625,0
1777067804.205,9.2033,1.1396,-0.3926,0.3800,0.5561,0.1620,-24.1500,33.9000,28.9500,9.6941,-0.5435,0.1125,0.3906,-0.0370,-0.3195,-53.2500,8.7000,-4.2000,3.5700,3.6300,-8.3800,-0.0404,-0.1560,-0.0382,-4.5000,-27.7500,21.8750,167.1250,18.7500,-155.5625,0
1777067804.210,9.5720,1.3048,-0.6057,0.2609,0.5167,0.1556,-22.6500,33.9000,29.2500,9.6941,-0.5435,0.1125,0.3906,-0.0370,-0.3195,-53.1000,8.1000,-4.3500,3.6600,3.2200,-8.5100,-0.0469,-0.1494,-0.0316,-4.5000,-27.7500,21.8750,167.1250,18.6875,-155.5625,0
1777067804.215,9.5720,1.3048,-0.6057,0.2609,0.5167,0.1556,-22.6500,33.9000,29.2500,9.5792,-0.7398,0.1772,0.2830,-0.0378,-0.3046,-53.1000,8.1000,-4.3500,3.6600,3.2200,-8.5100,-0.0938,-0.1494,-0.0360,-4.5000,-27.7500,21.8750,167.1250,18.6250,-155.5000,0
1777067804.221,9.7037,1.6927,-0.8284,0.4402,0.4319,0.1759,-22.6500,33.9000,29.2500,9.6343,-0.6536,0.0479,0.0850,-0.0341,-0.2803,-52.6500,9.0000,-5.8500,3.6200,3.1600,-8.5400,-0.0938,-0.1494,-0.0360,-4.5000,-27.7500,21.8750,167.1250,18.5000,-155.4375,0
1777067804.230,9.5816,1.8196,-0.3974,0.3869,0.2174,0.1988,-20.8500,34.2000,30.0000,9.6031,-0.1269,0.1173,0.0850,-0.0341,-0.2803,-51.9000,9.0000,-4.0500,3.5700,3.2800,-8.4800,-0.1440,-0.1494,-0.0502,-4.5000,-27.7500,21.8750,167.1250,18.5000,-155.4375,0
1777067804.235,9.4858,2.3487,0.2011,0.3861,0.4879,0.1399,-20.8500,34.2000,30.0000,9.6031,-0.1269,0.1173,-0.1295,-0.0272,-0.2627,-51.9000,9.0000,-4.0500,3.5700,3.2800,-8.4800,-0.1811,-0.1494,-0.0709,-4.5000,-27.7500,21.8750,167.1250,18.5000,-155.3750,0
1777067804.241,9.4858,2.3487,0.2011,0.3861,0.4879,0.1399,-18.4500,36.0000,30.1500,9.6462,0.6488,0.2729,-0.2169,0.0011,-0.2614,-53.7000,9.1500,-3.7500,3.5700,3.6100,-8.3500,-0.1811,-0.1494,-0.0709,-4.5000,-27.7500,21.8750,167.1250,18.5000,-155.3750,0
1777067804.246,9.4739,2.4995,-0.0096,0.3635,0.4978,0.0674,-18.4500,36.0000,30.1500,9.6462,0.6488,0.2729,-0.2169,0.0011,-0.2614,-53.7000,9.1500,-3.7500,3.5700,3.6100,-8.3500,-0.1876,-0.1364,-0.0938,-4.8750,-28.6875,22.2500,167.0625,18.3750,-155.2500,0
1777067804.251,9.4739,2.4995,-0.0096,0.3635,0.4978,0.0674,-17.5500,34.6500,30.4500,9.5936,1.4533,0.1365,-0.1825,0.0056,-0.2563,-53.2500,9.4500,-4.5000,3.4500,4.0400,-8.3300,-0.1876,-0.1364,-0.0938,-4.8750,-28.6875,22.2500,167.0625,18.3750,-155.2500,0
1777067804.256,9.2799,2.4014,-0.1939,0.3030,0.4674,0.0493,-17.5500,34.6500,30.4500,9.5936,1.4533,0.1365,-0.1825,0.0056,-0.2563,-53.2500,9.4500,-4.5000,3.4500,4.0400,-8.3300,-0.1549,-0.1222,-0.0971,-4.8750,-28.6875,22.2500,167.0625,18.3125,-155.1875,0
1777067804.261,9.2799,2.4014,-0.1939,0.3030,0.4674,0.0493,-18.3000,36.1500,28.9500,9.4978,1.6568,-0.1341,-0.0101,0.0003,-0.2577,-50.8500,9.0000,-4.3500,3.5300,4.1000,-8.2100,-0.1549,-0.1222,-0.0971,-4.8750,-28.6875,22.2500,167.0625,18.3125,-155.1875,0
1777067804.265,9.1578,2.4445,-0.1652,0.3589,0.4994,0.0799,-18.3000,36.1500,28.9500,9.4978,1.6568,-0.1341,-0.0101,0.0003,-0.2577,-50.8500,9.0000,-4.3500,3.5300,4.1000,-8.2100,-0.1113,-0.1200,-0.0971,-4.8750,-28.6875,22.2500,167.0000,18.2500,-155.1250,0
1777067804.271,9.1578,2.4445,-0.1652,0.3589,0.4994,0.0799,-18.3000,36.1500,28.9500,9.4499,1.5275,-0.2131,0.2001,0.0253,-0.2457,-50.8500,9.0000,-4.3500,3.6100,4.1000,-8.1700,-0.1113,-0.1200,-0.0971,-4.8750,-28.6875,22.2500,167.0000,18.1250,-155.0625,0
1777067804.280,9.5433,2.4852,-0.1867,0.4631,0.5345,0.0850,-18.1500,35.5500,29.8500,9.7588,1.1109,-0.1772,0.3880,0.0354,-0.2422,-54.1500,10.9500,-3.3000,3.3500,4.1000,-8.3600,-0.0676,-0.1233,-0.0927,-4.8750,-28.6875,22.2500,167.0000,18.1250,-155.0625,0
1777067804.290,9.4116,2.3918,-0.2969,0.4860,0.5468,0.0554,-16.8000,35.4000,30.0000,9.6271,0.5770,-0.1437,0.4437,0.0666,-0.2364,-53.8500,8.5500,-4.3500,3.3900,4.1100,-8.3300,-0.0251,-0.1124,-0.0742,-4.8750,-28.6875,22.2500,166.9375,18.0625,-155.0625,0
1777067804.295,9.3230,2.2769,-0.2849,0.5287,0.5284,0.0493,-16.8000,35.4000,30.0000,9.6271,0.5770,-0.1437,0.4437,0.0666,-0.2364,-53.8500,8.5500,-4.3500,3.3900,4.1100,-8.3300,-0.0251,-0.1124,-0.0742,-4.8750,-28.6875,22.2500,166.9375,18.0625,-155.0625,0
1777067804.300,9.3230,2.2769,-0.2849,0.5287,0.5284,0.0493,-17.5500,34.9500,30.4500,9.4427,0.3328,-0.2011,0.4120,0.0903,-0.2294,-52.2000,9.1500,-4.2000,3.5100,4.0000,-8.3000,0.0065,-0.0982,-0.0513,-4.5625,-28.2500,22.7500,166.8125,18.0000,-155.0625,0
1777067804.305,9.5265,2.3942,-0.4477,0.6414,0.5028,0.0765,-17.5500,34.9500,30.4500,9.4427,0.3328,-0.2011,0.4120,0.0903,-0.2294,-52.2000,9.1500,-4.2000,3.5100,4.0000,-8.3000,0.0065,-0.0982,-0.0513,-4.5625,-28.2500,22.7500,166.8125,18.0000,-155.0625,0
1777067804.310,9.5265,2.3942,-0.4477,0.6414,0.5028,0.0765,-17.4000,34.5000,29.8500,9.3877,0.5411,-0.2610,0.3581,0.0866,-0.2252,-51.9000,8.5500,-4.0500,3.4300,3.8600,-8.3800,0.0371,-0.0916,-0.0447,-4.5625,-28.2500,22.7500,166.8125,17.9375,-155.0625,0
1777067804.315,9.6103,2.4852,-0.4094,0.6792,0.4652,0.1007,-17.4000,34.5000,29.8500,9.3877,0.5411,-0.2610,0.3581,0.0866,-0.2252,-51.9000,8.5500,-4.0500,3.4300,3.8600,-8.3800,0.0633,-0.0916,-0.0436,-4.5625,-28.2500,22.7500,166.8125,17.9375,-155.0625,0
1777067804.321,9.6103,2.4852,-0.4094,0.6792,0.4652,0.1007,-17.4000,34.5000,29.8500,9.3350,0.8140,-0.4381,0.3176,0.1061,-0.2300,-52.6500,8.5500,-4.8000,3.4400,3.8100,-8.4200,0.0633,-0.0916,-0.0436,-4.5625,-28.2500,22.7500,166.8125,17.9375,-155.0625,0
1777067804.330,9.5433,2.4205,-0.7829,0.7003,0.4114,0.0927,-18.4500,35.5500,29.8500,9.4236,1.0750,-0.4190,0.3357,0.1268,-0.2206,-53.8500,8.5500,-4.8000,3.4600,3.8100,-8.4200,0.0742,-0.0938,-0.0425,-4.5625,-28.2500,22.7500,166.8125,17.9375,-155.1250,0
1777067804.335,9.5864,2.6576,-0.6632,0.7413,0.3730,0.0456,-18.4500,35.5500,29.8500,9.4236,1.0750,-0.4190,0.3357,0.1268,-0.2206,-53.8500,9.7500,-4.3500,3.4600,3.8100,-8.4200,0.0785,-0.0927,-0.0415,-4.5625,-28.2500,22.7500,166.7500,17.8750,-155.1875,0
1777067804.341,9.7851,2.6600,-0.3687,0.7069,0.3560,-0.0237,-18.4500,34.5000,28.8000,9.5481,1.3815,-0.3136,0.3661,0.1732,-0.2116,-53.8500,9.7500,-4.3500,3.4300,3.8800,-8.4100,0.0785,-0.0927,-0.0415,-4.5625,-28.2500,22.7500,166.7500,17.8750,-155.1875,0
1777067804.346,9.7851,2.6600,-0.3687,0.7069,0.3560,-0.0237,-18.4500,34.5000,28.8000,9.8330,1.5060,0.0622,0.4351,0.1873,-0.2001,-53.8500,9.7500,-4.3500,3.4300,3.8800,-8.4100,0.0785,-0.0927,-0.0415,-4.5625,-28.2500,22.7500,166.6875,17.8750,-155.2500,0
1777067804.351,9.8019,2.9664,-0.0192,0.8087,0.3219,-0.0109,-17.8500,35.4000,29.7000,9.8330,1.5060,0.0622,0.4351,0.1873,-0.2001,-53.2500,9.4500,-4.5000,3.2600,4.0500,-8.4400,0.0862,-0.0927,-0.0436,-4.5625,-28.2500,22.2500,166.6875,17.8750,-155.2500,0
1777067804.356,9.8019,2.9664,-0.0192,0.8087,0.3219,-0.0109,-17.8500,35.4000,29.7000,9.6989,1.6400,0.3400,0.4463,0.1988,-0.1871,-53.2500,9.4500,-4.5000,3.2600,4.0500,-8.4400,0.0862,-0.0927,-0.0436,-4.5625,-28.2500,22.2500,166.6875,17.8125,-155.2500,0
1777067804.361,9.7157,2.8730,0.3687,0.7786,0.2665,-0.0751,-17.4000,36.7500,29.1000,9.6989,1.6400,0.3400,0.4463,0.1988,-0.1871,-51.3000,8.4000,-4.9500,3.3800,4.0100,-8.4500,0.0873,-0.0807,-0.0393,-4.5625,-28.2500,22.2500,166.6875,17.8125,-155.2500,0
1777067804.365,9.7157,2.8730,0.3687,0.7786,0.2665,-0.0751,-17.4000,36.7500,29.1000,9.6750,1.5634,0.3400,0.4559,0.2148,-0.1745,-51.3000,8.4000,-4.9500,3.3800,4.0100,-8.4500,0.0949,-0.0654,-0.0382,-4.5625,-28.2500,22.2500,166.6875,17.8125,-155.3125,0
1777067804.371,9.3948,2.9664,0.3184,0.9206,0.2212,-0.0626,-17.5500,35.4000,28.6500,9.6750,1.5634,0.3400,0.4559,0.2148,-0.1745,-52.6500,9.0000,-5.1000,3.4300,3.9700,-8.4500,0.0949,-0.0654,-0.0382,-4.5625,-28.2500,22.2500,166.6875,17.8125,-155.3125,0
1777067804.380,9.4332,2.7629,0.2801,0.9441,0.2707,-0.0722,-17.5500,35.4000,28.6500,9.6774,1.3862,0.3759,0.4642,0.2073,-0.1545,-52.6500,9.0000,-5.1000,3.4300,3.9900,-8.4000,0.1047,-0.0556,-0.0382,-4.5625,-28.2500,22.2500,166.6875,17.8125,-155.3750,0
1777067804.385,9.4332,2.7629,0.2801,0.9441,0.2707,-0.0722,-17.5500,35.4000,28.6500,9.5672,1.1708,0.2107,0.4173,0.2305,-0.1330,-52.2000,8.4000,-4.5000,3.4300,3.9900,-8.4000,0.1254,-0.0545,-0.0338,-4.5625,-28.2500,22.2500,166.6250,17.8125,-155.4375,0
1777067804.391,9.3685,2.6719,0.1867,0.9880,0.3040,-0.0975,-15.1500,36.0000,29.5500,9.5672,1.1708,0.2107,0.4173,0.2305,-0.1330,-51.9000,11.2500,-4.8000,3.4600,3.9200,-8.4100,0.1254,-0.0545,-0.0338,-4.5625,-28.2500,22.2500,166.6250,17.8125,-155.4375,0
1777067804.396,9.3685,2.6719,0.1867,0.9880,0.3040,-0.0975,-15.1500,36.0000,29.5500,9.6295,0.9385,0.2083,0.3693,0.2513,-0.1100,-51.9000,11.2500,-4.8000,3.4600,3.9200,-8.4100,0.1287,-0.0535,-0.0360,-3.7500,-29.0000,21.0625,166.5625,17.8125,-155.5000,0
1777067804.401,9.2919,2.0758,0.4334,1.0115,0.3240,-0.1585,-16.0500,35.7000,28.9500,9.6295,0.9385,0.2083,0.3693,0.2513,-0.1100,-52.2000,9.4500,-4.5000,3.4000,3.8900,-8.4700,0.1287,-0.0535,-0.0360,-3.7500,-29.0000,21.0625,166.5625,17.8125,-155.5000,0
1777067804.406,9.2919,2.0758,0.4334,1.0115,0.3240,-0.1585,-16.0500,35.7000,28.9500,9.7181,0.9816,0.5195,0.3517,0.2577,-0.0973,-52.2000,9.4500,-4.5000,3.4000,3.8900,-8.4700,0.1298,-0.0458,-0.0360,-3.7500,-29.0000,21.0625,166.5625,17.7500,-155.5625,0
1777067804.411,9.4140,1.6568,0.6321,1.0088,0.3227,-0.1993,-14.1000,35.2500,28.5000,9.7181,0.9816,0.5195,0.3517,0.2577,-0.0973,-52.2000,9.4500,-4.5000,3.3600,3.9200,-8.4500,0.1298,-0.0458,-0.0360,-3.7500,-29.0000,21.0625,166.5625,17.7500,-155.5625,0
1777067804.416,9.4140,1.6568,0.6321,1.0088,0.3227,-0.1993,-16.0500,34.9500,27.9000,9.7899,0.9266,0.9720,0.3171,0.2587,-0.0994,-52.2000,9.4500,-4.5000,3.3600,3.9200,-8.4500,0.1407,-0.0425,-0.0349,-3.7500,-29.0000,21.0625,166.5625,17.7500,-155.6250,0
1777067804.421,9.5529,1.2617,0.7757,0.8697,0.3517,-0.1897,-16.0500,34.9500,27.9000,9.7899,0.9266,0.9720,0.3171,0.2587,-0.0994,-52.3500,9.7500,-3.6000,3.2700,4.1000,-8.4000,0.1407,-0.0425,-0.0349,-3.7500,-29.0000,21.0625,166.5625,17.7500,-155.6250,0
1777067804.430,9.6295,1.1851,0.9601,0.7317,0.3635,-0.1620,-16.0500,34.9500,27.9000,9.7899,0.8523,1.3001,0.2928,0.2308,-0.0946,-52.3500,9.7500,-3.6000,3.2800,4.0300,-8.4100,0.1636,-0.0436,-0.0327,-3.7500,-29.0000,21.0625,166.5000,17.7500,-155.6875,0
1777067804.435,9.6295,1.1851,0.9601,0.7317,0.3635,-0.1620,-16.0500,34.9500,27.9000,9.6869,0.7542,1.2953,0.2579,0.2193,-0.0839,-51.9000,10.0500,-4.3500,3.2800,4.0300,-8.4100,0.1844,-0.0425,-0.0284,-3.7500,-29.0000,21.0625,166.5000,17.7500,-155.7500,0
1777067804.441,9.6582,1.3168,1.0918,0.5985,0.3749,-0.1162,-16.9500,34.8000,27.3000,9.8258,0.5148,1.2905,0.2579,0.2193,-0.0839,-52.5000,9.9000,-4.2000,3.3900,3.8900,-8.4600,0.1844,-0.0425,-0.0284,-3.7500,-29.0000,21.0625,166.5000,17.7500,-155.7500,0
1777067804.446,9.6582,1.3168,1.0918,0.5985,0.3749,-0.1162,-17.7000,34.0500,28.5000,9.8258,0.5148,1.2905,0.2241,0.2126,-0.0570,-52.5000,9.9000,-4.2000,3.3900,3.8900,-8.4600,0.1854,-0.0415,-0.0273,-3.1875,-28.6875,21.0625,166.3125,17.7500,-155.8750,0
1777067804.451,9.8234,1.3815,1.1899,0.4762,0.3629,-0.0871,-17.7000,34.0500,28.5000,9.9120,0.4573,1.4030,0.2241,0.2126,-0.0570,-51.6000,10.0500,-4.2000,3.4800,3.6600,-8.5500,0.1854,-0.0415,-0.0273,-3.1875,-28.6875,21.0625,166.3125,17.7500,-155.8750,0
1777067804.456,9.8234,1.3815,1.1899,0.4762,0.3629,-0.0871,-16.2000,35.2500,27.3000,9.9120,0.4573,1.4030,0.1924,0.1990,-0.0392,-51.6000,10.0500,-4.3500,3.4800,3.6600,-8.5500,0.1625,-0.0305,-0.0295,-3.1875,-28.6875,21.0625,166.3125,17.7500,-155.9375,0
1777067804.461,9.7947,1.4293,1.3815,0.4002,0.3389,-0.0909,-16.2000,35.2500,27.3000,9.8617,0.6129,1.3264,0.1306,0.1868,-0.0261,-52.2000,8.7000,-4.2000,3.4200,3.6300,-8.6100,0.1625,-0.0305,-0.0295,-3.1875,-28.6875,21.0625,166.3125,17.7500,-155.9375,0
1777067804.466,9.7947,1.4293,1.3815,0.4002,0.3389,-0.0909,-17.4000,34.8000,27.3000,9.8617,0.6129,1.3264,0.1306,0.1868,-0.0261,-52.2000,8.7000,-4.2000,3.4200,3.6300,-8.6100,0.1254,-0.0142,-0.0251,-3.1875,-28.6875,21.0625,166.3125,17.6875,-156.0000,0
1777067804.471,9.7683,1.2737,1.3815,0.3507,0.2944,-0.0818,-17.4000,34.8000,27.3000,9.7803,0.6321,1.3168,0.1434,0.1812,-0.0216,-52.2000,8.7000,-4.2000,3.3800,3.6800,-8.6200,0.1254,-0.0142,-0.0251,-3.1875,-28.6875,21.0625,166.2500,17.6875,-156.0625,0
1777067804.480,9.7109,1.1085,1.2163,0.2526,0.2723,-0.0778,-17.4000,34.8000,27.3000,9.7420,0.5555,1.4916,0.1703,0.1434,-0.0288,-52.6500,8.1000,-4.8000,3.4000,3.8300,-8.5200,0.0916,-0.0011,-0.0240,-3.1875,-28.6875,21.0625,166.2500,17.6875,-156.1250,0
1777067804.490,9.6845,1.2163,1.1588,0.1908,0.2798,-0.0584,-16.2000,34.8000,27.7500,9.6822,0.5291,1.3958,0.1167,0.1364,-0.0258,-52.6500,8.1000,-4.8000,3.4600,3.7500,-8.4800,0.0764,0.0076,-0.0229,-3.1875,-28.6875,21.0625,166.2500,17.6875,-156.1250,0
1777067804.495,9.6845,1.2163,1.1588,0.1908,0.2798,-0.0584,-14.7000,34.6500,27.6000,9.6822,0.5291,1.3958,0.1167,0.1364,-0.0258,-53.4000,10.5000,-4.3500,3.4600,3.7500,-8.4800,0.0764,0.0076,-0.0229,-3.1875,-28.6875,21.0625,166.2500,17.6875,-156.1250,0
1777067804.500,9.6151,1.5419,1.0558,0.1311,0.2774,-0.0277,-14.7000,34.6500,27.6000,9.8210,0.5866,1.2905,0.0682,0.1231,0.0019,-53.4000,10.5000,-4.3500,3.4300,3.7000,-8.5200,0.0709,0.0076,-0.0251,-3.8750,-28.2500,22.7500,166.1250,17.7500,-156.1250,0
1777067804.505,9.6151,1.5419,1.0558,0.0522,0.2537,-0.0045,-16.5000,34.9500,28.2000,9.8210,0.5866,1.2905,0.0682,0.1231,0.0019,-52.2000,9.9000,-4.5000,3.4300,3.7000,-8.5200,0.0709,0.0076,-0.0251,-3.8750,-28.2500,22.7500,166.1250,17.7500,-156.1250,0
1777067804.510,9.6774,1.9680,0.9768,0.0522,0.2537,-0.0045,-16.5000,34.9500,28.2000,9.7779,0.6967,1.2498,0.0123,0.1202,0.0189,-52.2000,9.9000,-4.5000,3.4200,3.6800,-8.5500,0.0600,0.0098,-0.0251,-3.8750,-28.2500,22.7500,166.1250,17.7500,-156.1875,0
1777067804.515,9.5241,2.0710,1.2186,0.0269,0.2028,-0.0011,-15.3000,34.6500,28.6500,9.7779,0.6967,1.2498,0.0123,0.1202,0.0189,-53.7000,10.3500,-4.9500,3.4200,3.6800,-8.5500,0.0469,0.0109,-0.0273,-3.8750,-28.2500,22.7500,166.0625,17.8125,-156.1875,0
1777067804.521,9.5241,2.0710,1.2186,0.0269,0.2028,-0.0011,-15.3000,34.6500,28.6500,9.7444,0.8332,1.2378,-0.0320,0.1007,0.0176,-53.7000,10.3500,-4.9500,3.3800,3.8200,-8.5200,0.0469,0.0109,-0.0273,-3.8750,-28.2500,22.7500,166.0625,17.8125,-156.2500,0
1777067804.530,9.4786,2.0542,1.1325,0.0192,0.1849,-0.0107,-15.1500,34.5000,28.0500,9.6295,0.9026,1.2067,-0.0165,0.0874,0.0032,-52.2000,9.1500,-3.7500,3.3000,3.9300,-8.4600,0.0425,0.0076,-0.0262,-3.8750,-28.2500,22.7500,166.0625,17.8125,-156.2500,0
1777067804.535,9.4308,1.9824,1.0175,0.0280,0.1943,-0.0205,-15.1500,34.5000,28.0500,9.6295,0.9026,1.2067,-0.0165,0.0874,0.0032,-54.1500,9.3000,-4.3500,3.3000,3.9300,-8.4600,0.0556,0.0065,-0.0229,-3.8750,-28.2500,22.7500,166.0625,17.8125,-156.2500,0
1777067804.541,9.4308,1.9824,1.0175,0.0280,0.1943,-0.0205,-15.1500,34.5000,28.0500,9.6391,0.7590,0.9792,-0.0373,0.0895,-0.0040,-54.1500,9.3000,-4.3500,3.3700,3.9500,-8.4200,0.0556,0.0065,-0.0229,-3.8750,-28.2500,22.7500,166.0625,17.8125,-156.2500,0
1777067804.546,9.4427,1.7669,0.8523,0.0879,0.2249,-0.0245,-15.6000,34.8000,28.5000,9.6391,0.7590,0.9792,-0.0373,0.0895,-0.0040,-52.5000,9.9000,-5.2500,3.3700,3.9500,-8.4200,0.0556,0.0065,-0.0229,-3.5000,-28.6875,22.7500,165.8750,17.8750,-156.2500,0
1777067804.551,9.4427,1.7669,0.8523,0.0879,0.2249,-0.0245,-15.6000,34.8000,28.5000,9.6079,0.6081,0.9601,-0.0099,0.0743,0.0003,-52.5000,9.9000,-5.2500,3.3300,4.0100,-8.3900,0.0785,-0.0076,-0.0207,-3.5000,-28.6875,22.7500,165.8750,17.8750,-156.2500,0
1777067804.556,9.5529,1.7190,0.6776,0.1034,0.2409,-0.0163,-17.2500,34.6500,28.9500,9.8258,0.5555,1.0151,-0.0099,0.0743,0.0003,-52.5000,9.9000,-5.2500,3.3300,4.0100,-8.3900,0.0785,-0.0076,-0.0207,-3.5000,-28.6875,22.7500,165.8750,17.8750,-156.3125,0
1777067804.561,9.5529,1.7190,0.6776,0.1034,0.2409,-0.0163,-17.2500,34.6500,28.9500,9.8258,0.5555,1.0151,0.0373,0.0533,0.0133,-52.5000,9.9000,-5.2500,3.3900,3.8300,-8.4700,0.1113,-0.0142,-0.0153,-3.5000,-28.6875,22.7500,165.8750,17.8750,-156.3125,0
1777067804.566,9.6079,1.7454,0.6752,0.1202,0.2049,-0.0037,-14.1000,34.8000,27.0000,9.5457,0.6105,0.7183,0.0373,0.0533,0.0133,-50.8500,10.0500,-4.0500,3.3900,3.8300,-8.4700,0.1364,-0.0207,-0.0131,-3.5000,-28.6875,22.7500,165.8750,17.8750,-156.3750,0
1777067804.571,9.6079,1.7454,0.6752,0.1202,0.2049,-0.0037,-14.1000,34.8000,27.0000,9.5457,0.6105,0.7183,-0.0155,0.0813,0.0221,-50.8500,10.0500,-4.0500,3.4400,3.6200,-8.5700,0.1364,-0.0207,-0.0131,-3.5000,-28.6875,22.7500,165.8750,17.8750,-156.3750,0
1777067804.580,9.7037,1.8723,0.7039,0.1687,0.1692,-0.0021,-16.0500,35.7000,30.0000,9.8593,0.7039,0.9792,0.0464,0.0842,0.0147,-51.6000,9.7500,-5.1000,3.2900,3.8100,-8.5800,0.1353,-0.0164,-0.0142,-3.5000,-28.6875,22.7500,165.8750,17.8750,-156.4375,0
1777067804.585,9.5720,1.8986,0.7087,0.1460,0.1439,0.0109,-16.0500,35.7000,30.0000,9.7037,0.6991,1.0558,0.0464,0.0842,0.0147,-52.5000,8.7000,-4.9500,3.2900,3.8100,-8.5800,0.1309,-0.0175,-0.0131,-3.5000,-28.6875,22.7500,165.8125,17.8750,-156.5000,0
1777067804.591,9.5720,1.8986,0.7087,0.1460,0.1439,0.0109,-16.0500,35.7000,30.0000,9.7037,0.6991,1.0558,0.0552,0.0874,0.0155,-52.5000,8.7000,-4.9500,3.3500,3.7700,-8.5200,0.1309,-0.0175,-0.0131,-3.5000,-28.6875,22.7500,165.8125,17.8750,-156.5000,0
1777067804.596,9.6151,1.9201,0.6129,0.1295,0.1564,0.0208,-15.0000,34.2000,28.9500,9.6462,0.6225,0.9577,0.0397,0.0810,0.0216,-52.5000,9.9000,-4.2000,3.3500,3.7700,-8.5200,0.1320,-0.0153,-0.0109,-3.1875,-28.6875,23.0625,165.6250,17.8750,-156.5625,0
1777067804.601,9.6151,1.9201,0.6129,0.1295,0.1564,0.0208,-15.0000,34.2000,28.9500,9.6462,0.6225,0.9577,0.0397,0.0810,0.0216,-52.5000,9.9000,-4.2000,3.3500,3.7000,-8.5300,0.1320,-0.0153,-0.0109,-3.1875,-28.6875,23.0625,165.6250,17.8750,-156.5625,0
1777067804.606,9.5912,2.0686,0.6632,0.1045,0.1378,0.0304,-14.7000,34.6500,28.2000,9.6678,0.6728,0.8930,0.0498,0.0749,0.0184,-52.5000,9.9000,-5.2500,3.3500,3.7000,-8.5300,0.1276,-0.0131,-0.0076,-3.1875,-28.6875,23.0625,165.5625,17.8750,-156.6875,0
1777067804.611,9.5912,2.0686,0.6632,0.1140,0.1114,0.0317,-14.7000,34.6500,28.2000,9.6678,0.6728,0.8930,0.0498,0.0749,0.0184,-52.5000,9.9000,-5.2500,3.3800,3.7000,-8.5300,0.1276,-0.0131,-0.0076,-3.1875,-28.6875,23.0625,165.5625,17.8750,-156.6875,0
1777067804.616,9.5217,1.9992,0.6153,0.1140,0.1114,0.0317,-15.9000,34.0500,28.5000,9.5768,0.7638,0.7829,0.0408,0.0791,0.0253,-51.1500,8.1000,-3.3000,3.3800,3.7000,-8.5300,0.1200,-0.0109,-0.0044,-3.1875,-28.6875,23.0625,165.5625,17.9375,-156.7500,0
1777067804.621,9.5720,1.8651,0.5914,0.2324,0.1180,0.0040,-15.9000,34.0500,28.5000,9.5768,0.7638,0.7829,0.0408,0.0791,0.0253,-51.1500,8.1000,-3.3000,3.4000,3.7200,-8.5400,0.1200,-0.0109,-0.0044,-3.1875,-28.6875,23.0625,165.5625,17.9375,-156.7500,0
1777067804.630,9.5720,1.8651,0.5914,0.2324,0.1180,0.0040,-15.1500,34.8000,28.8000,9.7037,0.7159,0.8140,0.0213,0.0917,0.0304,-51.1500,8.1000,-3.3000,3.3600,3.7500,-8.5400,0.1233,-0.0131,-0.0044,-3.1875,-28.6875,23.0625,165.5625,17.9375,-156.8125,0
1777067804.635,9.5553,1.9417,0.5483,0.2763,0.1394,-0.0040,-15.1500,34.8000,28.8000,9.6822,0.7566,0.8475,0.0304,0.0903,0.0240,-52.6500,7.8000,-4.0500,3.3600,3.7500,-8.5400,0.1287,-0.0131,-0.0076,-3.1875,-28.6875,23.0625,165.5625,17.9375,-156.8750,0
1777067804.642,9.4930,1.7813,0.7997,0.2968,0.1284,-0.0067,-15.1500,34.8000,28.8000,9.6822,0.7566,0.8475,0.0304,0.0903,0.0240,-52.6500,7.8000,-4.0500,3.3000,3.8500,-8.5300,0.1287,-0.0131,-0.0076,-3.1875,-28.6875,23.0625,165.5625,17.9375,-156.8750,0
1777067804.646,9.4930,1.7813,0.7997,0.2968,0.1284,-0.0067,-15.3000,33.9000,28.2000,9.7181,0.5219,0.7638,0.0285,0.0901,0.0338,-52.3500,10.0500,-3.3000,3.3000,3.8400,-8.4800,0.1407,-0.0120,-0.0033,-3.5000,-28.2500,22.3750,165.5000,17.9375,-156.9375,0
1777067804.651,9.5361,1.7645,0.7350,0.3144,0.1362,0.0008,-15.3000,33.9000,28.2000,9.7181,0.5219,0.7638,0.0285,0.0901,0.0338,-52.3500,10.0500,-3.3000,3.3000,3.8400,-8.4800,0.1407,-0.0120,-0.0033,-3.5000,-28.2500,22.3750,165.5000,17.9375,-156.9375,0
1777067804.656,9.5361,1.7645,0.7350,0.3144,0.1362,0.0008,-15.0000,34.6500,27.9000,9.7205,0.5722,1.0798,0.0421,0.0847,0.0264,-52.5000,9.4500,-3.7500,3.3000,3.8400,-8.4800,0.1604,-0.0120,-0.0033,-3.5000,-28.2500,22.3750,165.4375,17.9375,-157.0000,0
1777067804.661,9.5936,1.6281,0.8475,0.2832,0.1572,0.0059,-15.0000,34.6500,27.9000,9.7205,0.5722,1.0798,0.0421,0.0847,0.0264,-52.5000,9.4500,-3.7500,3.2000,3.8600,-8.5400,0.1604,-0.0120,-0.0033,-3.5000,-28.2500,22.3750,165.4375,17.9375,-157.0000,0
1777067804.666,9.5936,1.6281,0.8475,0.2832,0.1572,0.0059,-14.8500,34.8000,27.7500,9.6893,0.5315,1.2809,0.0514,0.0837,0.0272,-51.3000,8.7000,-2.7000,3.2000,3.8600,-8.5400,0.1756,-0.0011,0.0022,-3.5000,-28.2500,22.3750,165.4375,17.9375,-157.0625,0
1777067804.672,9.6247,1.6376,0.8164,0.2422,0.1596,0.0232,-14.2500,35.7000,27.7500,9.7396,0.5219,1.1037,0.0514,0.0837,0.0272,-51.3000,8.7000,-2.7000,3.3400,3.7400,-8.5900,0.1756,-0.0011,0.0022,-3.5000,-28.2500,22.3750,165.4375,17.9375,-157.0625,0
1777067804.680,9.6391,1.6233,0.8930,0.2204,0.1346,0.0405,-14.2500,35.7000,28.9500,9.7396,0.5219,1.1037,0.0592,0.0786,0.0368,-52.6500,8.5500,-3.6000,3.3900,3.6300,-8.6200,0.1636,0.0131,0.0055,-3.5000,-28.2500,22.3750,165.4375,18.0000,-157.1875,0
1777067804.686,9.6391,1.6233,0.8930,0.2204,0.1346,0.0405,-14.2500,35.7000,29.2500,9.7181,0.5004,1.0558,0.0701,0.0757,0.0314,-52.3500,7.8000,-4.3500,3.3900,3.6300,-8.6200,0.1364,0.0153,0.0033,-3.5000,-28.2500,22.3750,165.4375,18.0000,-157.2500,0
1777067804.692,9.6055,1.6137,0.7614,0.1791,0.1316,0.0453,-14.2500,35.7000,29.2500,9.6055,0.3807,1.0487,0.0743,0.0719,0.0282,-52.3500,7.8000,-4.3500,3.3800,3.7000,-8.6200,0.1364,0.0153,0.0033,-3.5000,-28.2500,22.3750,165.4375,18.0000,-157.2500,0
1777067804.696,9.6055,1.6137,0.7614,0.1791,0.1316,0.0453,-14.2500,35.7000,29.2500,9.6055,0.3807,1.0487,0.0743,0.0719,0.0282,-52.3500,7.8000,-4.3500,3.3800,3.7000,-8.6200,0.1364,0.0153,0.0033,-2.7500,-28.0000,22.7500,165.1875,18.0625,-157.3125,0
1777067804.702,9.6558,1.4389,0.7949,0.1641,0.1159,0.0416,-13.2000,36.1500,27.6000,9.6678,0.3352,1.0319,0.0552,0.0722,0.0280,-52.3500,7.8000,-4.3500,3.4200,3.5900,-8.6300,0.1102,0.0185,0.0011,-2.7500,-28.0000,22.7500,165.1875,18.0625,-157.3125,0
1777067804.707,9.6558,1.4389,0.7949,0.1641,0.1159,0.0416,-13.2000,36.1500,27.6000,9.6678,0.3352,1.0319,0.0552,0.0722,0.0280,-51.7500,9.9000,-4.5000,3.4200,3.5900,-8.6300,0.1102,0.0185,0.0011,-2.7500,-28.0000,22.7500,165.1875,18.0625,-157.3125,0
1777067804.712,9.6319,1.3934,0.7590,0.1452,0.1034,0.0290,-15.0000,35.4000,27.1500,9.6127,0.4381,1.0726,0.0099,0.0624,0.0288,-51.7500,9.9000,-4.5000,3.3900,3.6200,-8.6100,0.0873,0.0142,0.0022,-2.7500,-28.0000,22.7500,165.1875,18.0625,-157.3125,0
1777067804.717,9.6319,1.3934,0.7590,0.1452,0.1034,0.0290,-15.0000,35.4000,27.1500,9.6127,0.4381,1.0726,0.0099,0.0624,0.0288,-51.9000,10.5000,-4.3500,3.3900,3.6700,-8.6100,0.0720,0.0098,0.0033,-2.7500,-28.0000,22.7500,165.1250,18.0625,-157.3750,0
1777067804.722,9.6223,1.4150,0.6991,0.0999,0.1167,0.0344,-13.9500,36.9000,28.9500,9.5768,0.5602,1.0822,-0.0208,0.0586,0.0280,-51.9000,10.5000,-4.3500,3.3900,3.6700,-8.6100,0.0720,0.0098,0.0033,-2.7500,-28.0000,22.7500,165.1250,18.0625,-157.4375,0
1777067804.731,9.5768,1.5036,0.7781,0.0600,0.1021,0.0328,-13.3500,34.8000,27.7500,9.5984,0.6776,0.9170,-0.0453,0.0671,0.0349,-54.1500,9.7500,-4.8000,3.3900,3.7200,-8.6100,0.0622,0.0087,0.0033,-2.7500,-28.0000,22.7500,165.1250,18.0625,-157.4375,0
1777067804.739,9.6319,1.5419,0.7398,0.0285,0.0903,0.0234,-13.3500,34.8000,27.7500,9.6774,0.6919,1.1588,-0.0453,0.0671,0.0349,-51.3000,9.9000,-3.7500,3.3700,3.7200,-8.6000,0.0545,0.0033,0.0033,-2.7500,-28.0000,22.7500,165.1250,18.1250,-157.4375,0
1777067804.744,9.6319,1.5419,0.7398,0.0285,0.0903,0.0234,-13.3500,34.8000,27.7500,9.6774,0.6919,1.1588,0.0173,0.0629,0.0384,-51.3000,10.6500,-3.4500,3.3700,3.7200,-8.6000,0.0545,0.0033,0.0033,-2.7500,-28.0000,22.7500,165.1250,18.1250,-157.4375,0
1777067804.749,9.5433,1.6855,0.8045,0.0203,0.1026,0.0325,-13.3500,34.8000,27.7500,9.5960,0.6608,1.1516,0.0173,0.0629,0.0384,-51.3000,10.6500,-3.4500,3.3700,3.7300,-8.5700,0.0502,0.0022,0.0011,-3.1875,-28.0000,23.0625,164.9375,18.1250,-157.4375,0
1777067804.753,9.5433,1.6855,0.8045,0.0203,0.1026,0.0325,-13.8000,36.3000,28.5000,9.5960,0.6608,1.1516,0.0280,0.0605,0.0333,-51.3000,10.6500,-3.4500,3.3700,3.7300,-8.5700,0.0502,0.0022,0.0011,-3.1875,-28.0000,23.0625,164.9375,18.1250,-157.4375,0
1777067804.758,9.5648,1.7980,0.8763,0.0256,0.1053,0.0448,-13.8000,36.3000,28.5000,9.6654,0.5052,1.0798,0.0280,0.0605,0.0333,-51.9000,8.5500,-3.3000,3.4100,3.6900,-8.6100,0.0513,-0.0011,0.0044,-3.1875,-28.0000,23.0625,164.9375,18.1250,-157.5000,0
1777067804.763,9.5648,1.7980,0.8763,0.0256,0.1053,0.0448,-13.8000,35.5500,26.2500,9.6654,0.5052,1.0798,0.0304,0.0597,0.0344,-51.9000,8.5500,-3.3000,3.4100,3.6900,-8.6100,0.0513,-0.0011,0.0044,-3.1875,-28.0000,23.0625,164.9375,18.1250,-157.5000,0
1777067804.768,9.5744,1.8723,0.9553,0.0400,0.1026,0.0517,-13.8000,35.5500,26.2500,9.7157,0.6009,1.1684,0.0304,0.0597,0.0344,-51.9000,8.5500,-3.3000,3.4000,3.7000,-8.6400,0.0480,-0.0055,0.0044,-3.1875,-28.0000,23.0625,164.9375,18.1250,-157.5000,0
1777067804.773,9.5744,1.8723,0.9553,0.0400,0.1026,0.0517,-12.7500,36.9000,29.2500,9.7157,0.6009,1.1684,0.0293,0.0568,0.0389,-51.9000,8.5500,-3.3000,3.4000,3.7000,-8.6400,0.0480,-0.0055,0.0044,-3.1875,-28.0000,23.0625,164.9375,18.1875,-157.5000,0
1777067804.781,9.4930,1.9465,0.8859,0.0280,0.1045,0.0560,-13.0500,35.2500,27.0000,9.6702,0.6536,1.1396,0.0250,0.0525,0.0346,-52.5000,9.4500,-3.4500,3.3600,3.7000,-8.6100,0.0425,-0.0055,0.0044,-3.1875,-28.0000,23.0625,164.9375,18.1875,-157.5000,0
1777067804.790,9.5553,1.9513,0.9697,0.0368,0.1002,0.0661,-13.0500,35.2500,27.0000,9.6558,0.6464,1.1013,0.0314,0.0413,0.0325,-53.4000,9.3000,-5.8500,3.3800,3.7400,-8.5700,0.0404,-0.0065,0.0022,-3.1875,-28.0000,23.0625,164.9375,18.1875,-157.5000,0
1777067804.795,9.5553,1.9513,0.9697,0.0368,0.1002,0.0661,-13.0500,35.2500,27.0000,9.6558,0.6464,1.1013,0.0314,0.0413,0.0325,-52.5000,9.1500,-4.5000,3.3800,3.7400,-8.5700,0.0404,-0.0065,0.0022,-3.1875,-28.0000,23.0625,164.9375,18.1875,-157.5000,0
1777067804.800,9.5696,2.0279,0.8930,0.0384,0.1167,0.0653,-13.0500,35.2500,27.0000,9.6319,0.6847,1.1516,0.0421,0.0408,0.0474,-52.5000,9.1500,-4.5000,3.3400,3.7000,-8.6200,0.0360,-0.0055,0.0011,-4.2500,-28.0000,24.3750,164.8750,18.1875,-157.5625,0
1777067804.804,9.5696,2.0279,0.8930,0.0384,0.1167,0.0653,-12.6000,34.8000,28.8000,9.6319,0.6847,1.1516,0.0421,0.0408,0.0474,-52.5000,9.1500,-4.5000,3.3400,3.7000,-8.6200,0.0360,-0.0055,0.0011,-4.2500,-28.0000,24.3750,164.8750,18.1875,-157.5625,0
1777067804.809,9.4882,2.1261,0.8571,0.0256,0.1098,0.0663,-12.6000,34.8000,28.8000,9.5720,0.8547,1.0726,0.0293,0.0360,0.0490,-53.7000,9.1500,-4.2000,3.3600,3.7200,-8.6400,0.0273,-0.0011,-0.0033,-4.2500,-28.0000,24.3750,164.8750,18.1875,-157.5625,0
1777067804.814,9.4882,2.1261,0.8571,0.0256,0.1098,0.0663,-13.8000,35.5500,30.6000,9.5720,0.8547,1.0726,0.0293,0.0360,0.0490,-53.7000,9.1500,-4.2000,3.3600,3.7200,-8.6400,0.0273,-0.0011,-0.0033,-4.2500,-28.0000,24.3750,164.8750,18.1875,-157.5625,0
1777067804.820,9.5696,1.9417,0.9266,0.0496,0.1023,0.0632,-13.3500,35.2500,29.5500,9.7396,0.7566,1.0630,0.0328,0.0432,0.0573,-52.5000,8.7000,-4.9500,3.3000,3.7800,-8.6000,0.0251,0.0022,-0.0022,-4.2500,-28.0000,24.3750,164.8750,18.2500,-157.5625,0
1777067804.827,9.5002,1.8459,1.0511,0.0440,0.0741,0.0578,-13.3500,35.2500,29.5500,9.6007,0.6393,1.3120,0.0584,0.0346,0.0522,-51.6000,8.1000,-4.8000,3.3200,3.8500,-8.5700,0.0218,0.0033,-0.0055,-4.2500,-28.0000,24.3750,164.8750,18.2500,-157.5625,0
1777067804.832,9.5002,1.8459,1.0511,0.0440,0.0741,0.0578,-14.2500,34.6500,28.6500,9.6007,0.6393,1.3120,0.0584,0.0346,0.0522,-51.6000,8.1000,-4.8000,3.3200,3.8500,-8.5700,0.0218,0.0033,-0.0055,-4.2500,-28.0000,24.3750,164.8750,18.2500,-157.5625,0
1777067804.841,9.4499,1.6807,0.8452,0.0338,0.0810,0.0592,-13.5000,34.9500,28.9500,9.6127,0.4166,1.2067,0.0149,0.0346,0.0509,-51.6000,8.1000,-4.8000,3.4000,3.7400,-8.5500,0.0284,-0.0022,-0.0033,-4.2500,-28.0000,24.3750,164.8750,18.2500,-157.5625,0
1777067804.846,9.5648,1.5203,0.8978,0.0248,0.1023,0.0685,-13.5000,34.9500,28.9500,9.6798,0.3041,1.0319,-0.0237,0.0341,0.0666,-52.9500,9.9000,-4.5000,3.4000,3.7400,-8.5500,0.0284,-0.0022,-0.0033,-3.1875,-28.0000,23.8750,164.6875,18.2500,-157.5625,0
1777067804.851,9.5648,1.5203,0.8978,0.0248,0.1023,0.0685,-13.5000,34.9500,28.9500,9.6798,0.3041,1.0319,-0.0237,0.0341,0.0666,-52.9500,9.9000,-4.5000,3.4100,3.6800,-8.6000,0.0327,-0.0109,0.0000,-3.1875,-28.0000,23.8750,164.6875,18.2500,-157.5625,0
1777067804.856,9.6414,1.5993,0.8284,0.0141,0.0930,0.0805,-13.5000,34.9500,28.9500,9.7157,0.3735,1.0798,-0.0592,0.0333,0.0725,-52.6500,8.5500,-4.3500,3.4100,3.6800,-8.6000,0.0327,-0.0109,0.0000,-3.1875,-28.0000,23.8750,164.6875,18.2500,-157.5625,0
1777067804.861,9.6414,1.5993,0.8284,0.0141,0.0930,0.0805,-14.4000,36.0000,27.7500,9.7157,0.3735,1.0798,-0.0592,0.0333,0.0725,-52.6500,8.5500,-4.3500,3.3400,3.6500,-8.6400,0.0338,-0.0098,0.0011,-3.1875,-28.0000,23.8750,164.6875,18.2500,-157.5625,0
1777067804.866,9.6007,1.7621,0.7398,-0.0205,0.0765,0.0909,-14.4000,36.0000,27.7500,9.6582,0.7446,1.0918,-0.0879,0.0277,0.0773,-51.7500,8.4000,-4.2000,3.3400,3.6500,-8.6400,0.0284,-0.0109,0.0022,-3.1875,-28.0000,23.8750,164.6875,18.3125,-157.5625,0
1777067804.872,9.6007,1.7621,0.7398,-0.0205,0.0765,0.0909,-13.3500,35.5500,29.1000,9.6582,0.7446,1.0918,-0.0879,0.0277,0.0773,-51.7500,8.4000,-4.2000,3.3700,3.6300,-8.6700,0.0284,-0.0109,0.0022,-3.1875,-28.0000,23.8750,164.6875,18.3125,-157.5625,0
1777067804.881,9.6199,1.8483,0.9002,-0.0650,0.0336,0.0965,-13.8000,36.0000,28.5000,9.6438,0.9816,1.0894,-0.0810,0.0322,0.0786,-52.9500,9.1500,-5.2500,3.3800,3.6600,-8.6500,0.0218,-0.0120,0.0000,-3.1875,-28.0000,23.8750,164.6875,18.3125,-157.5625,0
1777067804.886,9.5864,1.8292,1.1732,-0.0877,0.0104,0.1010,-13.8000,36.0000,28.5000,9.6582,1.0032,1.2977,-0.0258,0.0320,0.0773,-52.6500,10.0500,-2.8500,3.3800,3.6600,-8.6500,0.0120,-0.0109,0.0055,-3.1875,-28.0000,23.8750,164.6875,18.3125,-157.5625,0
1777067804.892,9.5864,1.8292,1.1732,-0.1087,0.0242,0.0930,-14.2500,36.4500,27.6000,9.6582,1.0032,1.2977,-0.0258,0.0320,0.0773,-52.6500,10.0500,-2.8500,3.3400,3.7400,-8.5800,0.0120,-0.0109,0.0055,-3.1875,-28.0000,23.8750,164.6875,18.3125,-157.5625,0
1777067804.897,9.4475,1.6999,1.1109,-0.1087,0.0242,0.0930,-14.2500,36.4500,27.6000,9.6199,0.8116,1.1756,-0.0037,0.0312,0.0781,-53.2500,8.7000,-3.7500,3.3900,3.7400,-8.6100,0.0098,-0.0098,0.0044,-3.1875,-28.3750,23.0625,164.5625,18.3125,-157.5625,0
1777067804.902,9.4475,1.6999,1.1109,-0.1162,0.0381,0.0967,-14.2500,36.4500,27.6000,9.6007,0.4573,1.2641,-0.0037,0.0312,0.0781,-53.2500,8.7000,-3.7500,3.3900,3.7400,-8.6100,0.0098,-0.0098,0.0044,-3.1875,-28.3750,23.0625,164.5625,18.3125,-157.5625,0
1777067804.911,9.4571,1.7454,1.0654,-0.1162,0.0381,0.0967,-12.1500,34.9500,28.6500,9.6007,0.4573,1.2641,0.0165,0.0280,0.0802,-53.2500,8.7000,-3.7500,3.3900,3.7500,-8.5900,0.0087,-0.0055,0.0044,-3.1875,-28.3750,23.0625,164.5625,18.3125,-157.5625,0
1777067804.920,9.5600,1.7286,1.0534,-0.1311,0.0541,0.1066,-13.3500,34.5000,28.0500,9.6295,0.3711,1.2067,-0.0234,0.0248,0.0901,-53.4000,9.7500,-4.8000,3.3400,3.6900,-8.6000,0.0131,-0.0055,0.0011,-3.1875,-28.3750,23.0625,164.5625,18.3125,-157.5625,0
1777067804.924,9.5696,1.7071,0.9098,-0.1396,0.0517,0.1170,-13.3500,34.5000,28.0500,9.7229,0.4381,1.1995,-0.0666,0.0149,0.0901,-53.4000,9.7500,-4.8000,3.3400,3.6900,-8.6000,0.0131,-0.0055,0.0011,-3.1875,-28.3750,23.0625,164.5625,18.3125,-157.5625,0
1777067804.932,9.5672,1.5826,0.9984,-0.1098,0.0469,0.1148,-14.2500,34.2000,27.6000,9.7013,0.5626,1.3862,-0.0775,0.0104,0.0930,-51.0000,7.5000,-4.9500,3.3600,3.6900,-8.5900,0.0164,-0.0131,0.0011,-3.1875,-28.3750,23.0625,164.5625,18.3125,-157.5625,0
1777067804.941,9.5337,1.5682,0.9409,-0.1228,0.0410,0.1228,-14.4000,34.8000,27.7500,9.6654,0.6081,1.2977,-0.0775,0.0104,0.0930,-53.2500,9.9000,-4.5000,3.3400,3.7600,-8.5900,0.0196,-0.0142,0.0000,-3.1875,-28.3750,23.0625,164.5625,18.3125,-157.5625,0
1777067804.946,9.5337,1.5682,0.9409,-0.1228,0.0410,0.1228,-14.4000,34.8000,27.7500,9.6654,0.6081,1.2977,-0.0826,0.0085,0.0999,-53.2500,9.9000,-4.5000,3.3400,3.7600,-8.5900,0.0196,-0.0142,0.0000,-3.5000,-27.6875,23.0625,164.4375,18.3750,-157.5625,0
1777067804.951,9.5553,1.4246,0.9050,-0.1375,0.0496,0.1295,-14.4000,34.8000,27.7500,9.6510,0.4286,1.1516,-0.0445,0.0160,0.0927,-51.1500,7.8000,-2.8500,3.4200,3.6500,-8.5800,0.0207,-0.0098,0.0011,-3.5000,-27.6875,23.0625,164.4375,18.3750,-157.5625,0
1777067804.961,9.6151,1.5347,0.9697,-0.1180,0.0674,0.1348,-13.9500,33.9000,27.9000,9.6965,0.3184,1.2115,-0.0304,0.0139,0.0999,-53.1000,8.1000,-4.8000,3.3800,3.6800,-8.6000,0.0218,-0.0120,0.0011,-3.5000,-27.6875,23.0625,164.4375,18.3750,-157.5625,0
1777067804.967,9.6151,1.5347,0.9697,-0.1180,0.0674,0.1348,-14.1000,35.5500,29.1000,9.6965,0.3184,1.2115,-0.0304,0.0139,0.0999,-52.9500,9.4500,-4.2000,3.3400,3.6400,-8.6500,0.0185,-0.0131,-0.0022,-3.5000,-27.6875,23.0625,164.4375,18.3750,-157.5625,0
1777067804.972,9.5888,1.5538,0.7997,-0.1402,0.0626,0.1508,-14.1000,35.5500,29.1000,9.6510,0.3663,1.2617,-0.0738,0.0037,0.1013,-52.9500,9.4500,-4.2000,3.3400,3.6400,-8.6500,0.0185,-0.0131,-0.0022,-3.5000,-27.6875,23.0625,164.4375,18.3750,-157.5625,0
1777067804.981,9.5217,1.7262,0.6680,-0.1567,0.0490,0.1569,-14.2500,35.4000,27.9000,9.7037,0.3950,1.0750,-0.1092,0.0072,0.1082,-52.9500,9.4500,-4.2000,3.3900,3.5800,-8.6600,0.0142,-0.0120,0.0000,-3.5000,-27.6875,23.0625,164.4375,18.3750,-157.5625,0
1777067804.989,9.5600,1.8842,0.8212,-0.1703,0.0301,0.1753,-13.5000,33.9000,27.1500,9.6678,0.6800,1.0534,-0.1164,0.0000,0.1061,-54.0000,8.7000,-4.5000,3.3200,3.6500,-8.6200,0.0065,-0.0131,0.0022,-3.5000,-27.6875,23.0625,164.4375,18.3750,-157.5625,0
1777067804.994,9.5600,1.8842,0.8212,-0.1703,0.0301,0.1753,-13.5000,33.9000,27.1500,9.6678,0.6800,1.0534,-0.1164,0.0000,0.1061,-54.0000,8.7000,-4.5000,3.3200,3.6500,-8.6200,0.0065,-0.0131,0.0022,-3.5000,-27.6875,23.0625,164.4375,18.3750,-157.5625,0
1777067804.999,9.4858,1.9704,0.7614,-0.1620,0.0277,0.1871,-15.0000,33.9000,27.9000,9.6438,0.7566,1.0846,-0.1138,0.0123,0.1124,-52.3500,9.7500,-5.5500,3.3300,3.6600,-8.6400,0.0033,-0.0153,0.0033,-2.7500,-27.6875,23.0625,164.2500,18.3750,-157.5625,0
1777067805.004,9.4858,1.9704,0.7614,-0.1620,0.0277,0.1871,-15.0000,33.9000,27.9000,9.6438,0.7566,1.0846,-0.1138,0.0123,0.1124,-52.3500,9.7500,-5.5500,3.3300,3.6600,-8.6400,0.0033,-0.0153,0.0033,-2.7500,-27.6875,23.0625,164.2500,18.3750,-157.5625,0
1777067805.012,9.4810,1.9896,0.8595,-0.1615,0.0168,0.1884,-15.0000,33.9000,27.9000,9.7157,0.7422,0.9984,-0.1183,0.0165,0.1252,-51.9000,10.5000,-3.3000,3.3900,3.6400,-8.6100,-0.0033,-0.0098,0.0044,-2.7500,-27.6875,23.0625,164.2500,18.3750,-157.5625,0
1777067805.021,9.5313,1.8866,0.8763,-0.1756,0.0184,0.1807,-14.4000,33.7500,27.7500,9.7683,0.6416,1.1492,-0.0789,0.0115,0.1255,-53.8500,8.1000,-2.5500,3.2900,3.8100,-8.5700,-0.0076,-0.0120,0.0022,-2.7500,-27.6875,23.0625,164.2500,18.3750,-157.5625,0
1777067805.028,9.5146,1.8459,0.8092,-0.1719,0.0344,0.1900,-14.7000,33.9000,27.6000,9.5457,0.4812,1.1372,-0.0767,0.0059,0.1236,-52.9500,9.4500,-3.7500,3.3400,3.7000,-8.5800,-0.0044,-0.0120,0.0044,-2.7500,-27.6875,23.0625,164.2500,18.3750,-157.5625,0
1777067805.033,9.5146,1.8459,0.8092,-0.1719,0.0344,0.1900,-14.7000,33.9000,27.6000,9.5457,0.4812,1.1372,-0.0767,0.0059,0.1236,-52.9500,9.4500,-3.7500,3.3400,3.7000,-8.5800,-0.0044,-0.0120,0.0044,-2.7500,-27.6875,23.0625,164.2500,18.3750,-157.5625,0
1777067805.042,9.6007,1.7597,0.8164,-0.1628,0.0437,0.1958,-13.3500,34.5000,29.5500,9.7348,0.2801,1.0511,-0.1234,0.0112,0.1324,-54.1500,9.0000,-4.8000,3.3400,3.6400,-8.5900,0.0000,-0.0142,0.0044,-2.7500,-27.6875,23.0625,164.2500,18.3750,-157.5625,0
1777067805.047,9.6007,1.7597,0.8164,-0.1628,0.0437,0.1958,-15.0000,34.6500,27.6000,9.7516,0.3496,1.0894,-0.1234,0.0112,0.1324,-54.1500,9.0000,-4.8000,3.3400,3.6400,-8.5900,0.0011,-0.0153,0.0076,-3.8750,-27.2500,23.8750,164.1250,18.3750,-157.5625,0
1777067805.052,9.6343,1.7190,0.6536,-0.1727,0.0424,0.2118,-15.0000,34.6500,27.6000,9.7516,0.3496,1.0894,-0.1439,0.0080,0.1423,-54.1500,9.0000,-4.8000,3.3400,3.6500,-8.6100,0.0011,-0.0153,0.0076,-3.8750,-27.2500,23.8750,164.1250,18.3750,-157.5625,0
1777067805.061,9.5529,1.7933,0.6009,-0.2185,0.0253,0.2313,-15.0000,34.6500,27.6000,9.6031,0.5698,1.0032,-0.1719,0.0112,0.1519,-52.3500,8.5500,-3.6000,3.3500,3.5800,-8.6300,0.0011,-0.0185,0.0131,-3.8750,-27.2500,23.8750,164.1250,18.3750,-157.5625,0
1777067805.068,9.7348,1.6975,0.6297,-0.2686,-0.1231,0.2409,-16.8000,33.4500,27.9000,9.5313,0.6704,0.7805,-0.1935,0.0109,0.1575,-52.3500,8.5500,-3.6000,3.3800,3.6200,-8.6500,-0.0044,-0.0185,0.0131,-3.8750,-27.2500,23.8750,164.1875,18.3750,-157.5625,0
1777067805.072,9.7348,1.6975,0.6297,-0.2686,-0.1231,0.2409,-16.8000,33.4500,27.9000,9.5313,0.6704,0.7805,-0.1935,0.0109,0.1575,-52.9500,9.4500,-3.0000,3.3800,3.6200,-8.6500,-0.0044,-0.0185,0.0131,-3.8750,-27.2500,23.8750,164.1875,18.3750,-157.5625,0
1777067805.081,9.3039,1.8411,0.6273,-0.2681,-0.0941,0.2409,-16.9500,34.5000,26.7000,9.5385,0.8356,0.6776,-0.1817,0.0224,0.1695,-53.2500,8.4000,-4.2000,3.3500,3.6500,-8.6100,-0.0131,-0.0164,0.0153,-3.8750,-27.2500,23.8750,164.1875,18.3750,-157.5625,0
1777067805.089,9.6223,1.9058,0.5674,-0.2598,-0.0013,0.2278,-18.1500,33.3000,27.7500,9.6079,0.8571,0.6800,-0.1498,0.0344,0.1700,-53.4000,8.1000,-3.6000,3.3000,3.7500,-8.5600,-0.0175,-0.0164,0.0164,-3.8750,-27.2500,23.8750,164.1875,18.3750,-157.5625,0
1777067805.094,9.6223,1.9058,0.5674,-0.2598,-0.0013,0.2278,-18.1500,33.3000,27.7500,9.6079,0.8571,0.6800,-0.1498,0.0344,0.1700,-53.4000,8.1000,-3.6000,3.3000,3.7500,-8.5600,-0.0175,-0.0164,0.0164,-3.8750,-27.2500,23.8750,164.1875,18.3750,-157.5625,0
1777067805.098,9.7324,1.7861,0.3974,-0.2854,-0.0477,0.2326,-18.1500,33.3000,28.0500,9.4667,0.8236,0.7614,-0.1188,0.0405,0.1863,-53.1000,8.5500,-4.0500,3.3100,3.7300,-8.6000,-0.0164,-0.0164,0.0142,-2.7500,-28.0625,23.8750,163.9375,18.3750,-157.5000,0
1777067805.103,9.7324,1.7861,0.3974,-0.2854,-0.0477,0.2326,-18.1500,33.3000,28.0500,9.4667,0.8236,0.7614,-0.1188,0.0405,0.1863,-53.1000,8.5500,-4.0500,3.3100,3.7300,-8.6000,-0.0164,-0.0164,0.0142,-2.7500,-28.0625,23.8750,163.9375,18.4375,-157.5000,0
1777067805.112,9.3972,1.7166,0.3998,-0.2601,-0.0813,0.2193,-18.1500,33.3000,28.0500,9.4882,0.6464,0.6512,-0.1122,0.0541,0.1958,-54.1500,9.3000,-3.3000,3.3600,3.6900,-8.6200,-0.0120,-0.0164,0.0131,-2.7500,-28.0625,23.8750,163.9375,18.4375,-157.5000,0
1777067805.119,9.6989,1.6975,0.2777,-0.2078,-0.0069,0.2081,-17.4000,34.0500,25.9500,9.6462,0.5890,0.9122,-0.1146,0.0738,0.2078,-54.1500,9.3000,-3.3000,3.2900,3.6700,-8.6600,-0.0098,-0.0164,0.0120,-2.7500,-28.0625,23.8750,163.9375,18.4375,-157.5000,0
1777067805.124,9.6989,1.6975,0.2777,-0.2078,-0.0069,0.2081,-17.4000,34.0500,25.9500,9.6247,0.5291,1.0295,-0.1583,0.0823,0.2196,-54.1500,9.3000,-3.3000,3.2900,3.6700,-8.6600,-0.0098,-0.0164,0.0120,-2.7500,-28.0625,23.8750,164.0000,18.4375,-157.5000,0
1777067805.132,9.7492,1.7693,0.3448,-0.1775,-0.0288,0.2092,-16.9500,31.5000,27.7500,9.6247,0.5291,1.0295,-0.1583,0.0823,0.2196,-52.6500,7.8000,-4.0500,3.2600,3.7100,-8.6600,-0.0142,-0.0175,0.0120,-2.7500,-28.0625,23.8750,164.0000,18.4375,-157.5000,0
1777067805.139,9.5984,1.8794,0.5507,-0.1982,-0.0919,0.2126,-18.6000,31.6500,26.4000,9.7276,0.6345,1.0942,-0.1783,0.0834,0.2348,-54.4500,8.7000,-2.7000,3.3100,3.7100,-8.6200,-0.0196,-0.0142,0.0153,-2.7500,-28.0625,23.8750,164.0000,18.4375,-157.5000,0
1777067805.144,9.5529,1.9273,0.6871,-0.2555,-0.0634,0.2030,-20.1000,31.2000,26.8500,9.6414,0.8284,1.0487,-0.2028,0.0855,0.2526,-54.4500,8.7000,-2.7000,3.3100,3.7100,-8.6200,-0.0196,-0.0142,0.0153,-2.7500,-28.0625,23.8750,164.0000,18.4375,-157.5000,0
1777067805.149,9.5529,1.9273,0.6871,-0.2555,-0.0634,0.2030,-20.1000,31.2000,26.8500,9.6414,0.8284,1.0487,-0.2028,0.0855,0.2526,-51.9000,7.8000,-4.3500,3.3600,3.7000,-8.6400,-0.0251,-0.0087,0.0185,-3.1875,-28.3750,23.0625,163.9375,18.4375,-157.5000,0
1777067805.154,9.6127,1.9944,0.6584,-0.2958,-0.0773,0.2001,-20.7000,33.0000,27.7500,9.6175,1.0175,0.8691,-0.2278,0.0965,0.2694,-51.9000,7.8000,-4.3500,3.3600,3.7000,-8.6400,-0.0251,-0.0087,0.0185,-3.1875,-28.3750,23.0625,163.9375,18.4375,-157.5000,0
1777067805.159,9.6127,1.9944,0.6584,-0.2958,-0.0773,0.2001,-20.7000,33.0000,27.7500,9.6175,1.0175,0.8691,-0.2278,0.0965,0.2694,-53.1000,8.5500,-4.3500,3.3100,3.7000,-8.6500,-0.0305,-0.0022,0.0164,-3.1875,-28.3750,23.0625,163.9375,18.4375,-157.4375,0
1777067805.163,9.5361,2.0614,0.4908,-0.3182,-0.1026,0.1911,-20.7000,33.0000,27.7500,9.5146,0.9194,0.6009,-0.2100,0.1087,0.2851,-53.1000,8.5500,-2.8500,3.3100,3.7000,-8.6500,-0.0305,-0.0022,0.0164,-3.1875,-28.3750,23.0625,163.9375,18.4375,-157.4375,0
1777067805.168,9.5361,2.0614,0.4908,-0.3182,-0.1026,0.1911,-20.7000,33.0000,27.7500,9.5146,0.9194,0.6009,-0.2100,0.1087,0.2851,-53.7000,7.5000,-4.2000,3.3400,3.7700,-8.6100,-0.0415,-0.0011,0.0185,-3.1875,-28.3750,23.0625,163.9375,18.4375,-157.4375,0
1777067805.173,9.4643,1.9968,0.7278,-0.3099,-0.0448,0.1692,-20.7000,33.0000,27.7500,9.3972,0.7949,0.3663,-0.2190,0.1327,0.3000,-53.7000,7.5000,-4.2000,3.3400,3.7700,-8.6100,-0.0415,-0.0011,0.0185,-3.1875,-28.3750,23.0625,163.9375,18.4375,-157.3750,0
1777067805.182,9.4643,1.9968,0.7278,-0.3099,-0.0448,0.1692,-21.0000,32.5500,26.2500,9.3757,0.6105,0.2801,-0.2356,0.1511,0.3168,-52.6500,9.0000,-2.8500,3.3300,3.8000,-8.6000,-0.0480,0.0000,0.0164,-3.1875,-28.3750,23.0625,163.9375,18.4375,-157.3750,0
1777067805.190,9.6462,1.9752,0.3448,-0.2681,-0.0629,0.1442,-21.3000,31.5000,27.7500,9.5385,0.6105,0.6776,-0.2356,0.1511,0.3168,-52.6500,9.0000,-2.8500,3.2700,3.8200,-8.5700,-0.0469,0.0044,0.0185,-3.1875,-28.3750,23.0625,164.0000,18.4375,-157.3750,0
1777067805.195,9.8497,1.6520,-0.0287,-0.1996,-0.1332,0.1132,-22.2000,30.4500,27.1500,9.5385,0.6105,0.6776,-0.2249,0.1809,0.3379,-52.6500,9.0000,-2.8500,3.2700,3.8200,-8.5700,-0.0469,0.0044,0.0185,-3.1875,-28.3750,23.0625,164.0000,18.4375,-157.3750,0
1777067805.200,9.8497,1.6520,-0.0287,-0.1996,-0.1332,0.1132,-22.2000,30.4500,27.1500,9.6582,0.8404,1.0319,-0.2249,0.1809,0.3379,-53.4000,7.8000,-4.8000,3.2100,3.8100,-8.5600,-0.0349,0.0022,0.0175,-3.5000,-28.0000,23.5625,163.8750,18.5000,-157.3750,0
1777067805.205,9.8043,1.6951,0.0814,-0.1524,-0.1601,0.0911,-20.1000,30.1500,27.1500,9.6582,0.8404,1.0319,-0.2507,0.1871,0.3488,-53.4000,7.8000,-4.8000,3.2100,3.8100,-8.5600,-0.0349,0.0022,0.0175,-3.5000,-28.0000,23.5625,163.8750,18.5000,-157.3750,0
1777067805.210,9.8043,1.6951,0.0814,-0.1524,-0.1601,0.0911,-20.1000,30.1500,27.1500,9.7899,0.7015,1.3168,-0.2507,0.1871,0.3488,-54.6000,8.5500,-3.6000,3.2300,3.7000,-8.5900,-0.0196,0.0022,0.0196,-3.5000,-28.0000,23.5625,163.8750,18.5000,-157.3125,0
1777067805.214,9.7827,1.7478,0.0503,-0.2270,-0.1601,0.0962,-20.1000,30.1500,27.1500,9.7899,0.7015,1.3168,-0.2129,0.2033,0.3600,-54.6000,8.5500,-3.6000,3.2300,3.7000,-8.5900,-0.0196,0.0022,0.0196,-3.5000,-28.0000,23.5625,163.8750,18.5000,-157.3125,0
1777067805.219,9.7827,1.7478,0.0503,-0.2270,-0.1601,0.0962,-20.1000,30.1500,27.1500,9.8234,0.6345,1.4581,-0.2129,0.2033,0.3600,-53.1000,6.9000,-2.1000,3.2800,3.7200,-8.6500,-0.0087,0.0098,0.0295,-3.5000,-28.0000,23.5625,163.9375,18.5000,-157.3125,0
1777067805.224,9.5600,1.7741,0.5315,-0.3760,-0.2164,0.0962,-21.0000,31.8000,26.7000,9.8234,0.6345,1.4581,-0.1588,0.2089,0.3725,-53.1000,6.9000,-2.1000,3.2800,3.7200,-8.6500,-0.0087,0.0098,0.0295,-3.5000,-28.0000,23.5625,163.9375,18.5000,-157.3125,0
1777067805.232,9.5624,1.5969,0.8116,-0.4991,-0.2012,0.1239,-21.0000,31.8000,26.7000,9.9192,0.1628,1.5467,-0.1444,0.2081,0.3874,-53.1000,6.9000,-2.8500,3.3100,3.7200,-8.6300,-0.0087,0.0240,0.0349,-3.5000,-28.0000,23.5625,163.9375,18.5000,-157.3125,0
1777067805.239,9.5624,1.5969,0.8116,-0.4991,-0.2012,0.1239,-22.9500,30.1500,27.1500,9.9216,-0.2610,1.5802,-0.1452,0.1966,0.4002,-55.3500,8.1000,-2.8500,3.2200,3.7500,-8.6900,-0.0142,0.0360,0.0349,-3.5000,-28.0000,23.5625,163.9375,18.5625,-157.3125,0
1777067805.244,9.7037,1.5634,0.9625,-0.5894,-0.1673,0.1498,-22.6500,29.7000,27.1500,9.9216,-0.2610,1.5802,-0.1452,0.1966,0.4002,-55.3500,8.1000,-2.8500,3.2200,3.7500,-8.6900,-0.0142,0.0360,0.0349,-3.5000,-28.0000,23.5625,163.9375,18.5625,-157.3125,0
1777067805.249,9.7037,1.5634,0.9625,-0.5894,-0.1673,0.1498,-22.6500,29.7000,27.1500,9.9096,-0.5004,1.5730,-0.2182,0.1919,0.4149,-55.3500,8.1000,-2.8500,3.2200,3.6900,-8.7200,-0.0229,0.0567,0.0360,-3.5000,-28.0000,23.5625,163.8750,18.5625,-157.3125,0
1777067805.254,9.8641,1.3743,0.9505,-0.6249,-0.1713,0.1639,-24.4500,30.1500,27.9000,9.9096,-0.5004,1.5730,-0.2182,0.1919,0.4149,-54.1500,7.8000,-2.1000,3.2200,3.6900,-8.7200,-0.0229,0.0567,0.0360,-3.5000,-28.0000,23.5625,163.8750,18.5625,-157.3125,0
1777067805.259,9.8641,1.3743,0.9505,-0.6249,-0.1713,0.1639,-24.4500,30.1500,27.9000,9.8258,-0.4573,1.3455,-0.3000,0.1772,0.4221,-54.1500,7.8000,-2.1000,3.2300,3.5100,-8.7800,-0.0415,0.0905,0.0425,-3.5000,-28.0000,23.5625,163.8750,18.6250,-157.3125,0
1777067805.263,9.7707,1.3312,0.7302,-0.6723,-0.1769,0.1847,-24.4500,30.1500,27.9000,9.8258,-0.4573,1.3455,-0.3000,0.1772,0.4221,-54.1500,7.8000,-2.1000,3.2300,3.5100,-8.7800,-0.0415,0.0905,0.0425,-3.5000,-28.0000,23.5625,163.8750,18.6250,-157.3125,0
1777067805.268,9.7707,1.3312,0.7302,-0.6723,-0.1769,0.1847,-24.4500,30.1500,27.9000,9.6917,-0.3304,1.1181,-0.3269,0.1735,0.4181,-54.1500,7.8000,-2.1000,3.2800,3.5100,-8.7400,-0.0720,0.1287,0.0502,-3.5000,-28.0000,23.5625,163.8750,18.7500,-157.2500,0
1777067805.273,9.5170,1.1540,0.5650,-0.6883,-0.1308,0.1849,-26.2500,27.9000,28.6500,9.6917,-0.3304,1.1181,-0.3269,0.1735,0.4181,-55.0500,7.8000,-2.1000,3.2800,3.5100,-8.7400,-0.0720,0.1287,0.0502,-3.5000,-28.0000,23.5625,163.9375,18.8125,-157.1875,0
1777067805.282,9.6606,1.0558,0.3208,-0.6656,-0.1228,0.1756,-26.2500,27.9000,28.6500,9.6175,-0.1796,0.9361,-0.3301,0.1791,0.4199,-53.2500,8.7000,-2.4000,3.3700,3.4900,-8.6800,-0.1036,0.1636,0.0556,-3.5000,-28.0000,23.5625,163.9375,18.8125,-157.1875,0
1777067805.288,9.6606,1.0558,0.3208,-0.6656,-0.1228,0.1756,-26.7000,28.9500,29.7000,9.6271,-0.1149,0.7159,-0.3360,0.1911,0.4215,-53.2500,8.7000,-2.4000,3.3600,3.4300,-8.7200,-0.1342,0.1887,0.0633,-3.5000,-28.0000,23.5625,163.9375,18.9375,-157.1250,0
1777067805.293,9.9910,1.0846,0.0599,-0.5918,-0.1604,0.1716,-28.6500,28.5000,28.8000,9.6271,-0.1149,0.7159,-0.3360,0.1911,0.4215,-53.4000,6.9000,-1.8000,3.3600,3.4300,-8.7200,-0.1342,0.1887,0.0633,-3.5000,-28.0000,23.5625,163.9375,18.9375,-157.1250,0
1777067805.298,9.9910,1.0846,0.0599,-0.5918,-0.1604,0.1716,-28.6500,28.5000,28.8000,9.6486,-0.0407,0.5339,-0.3083,0.2044,0.4365,-53.4000,6.9000,-1.8000,3.3600,3.4300,-8.7200,-0.1604,0.2160,0.0698,-3.5000,-27.5625,22.7500,163.9375,19.0625,-157.0625,0
1777067805.303,9.7588,1.0989,0.1221,-0.5207,-0.1500,0.1609,-28.6500,26.5500,28.0500,9.6486,-0.0407,0.5339,-0.3083,0.2044,0.4365,-54.7500,6.4500,-2.4000,3.3600,3.3900,-8.7700,-0.1604,0.2160,0.0698,-3.5000,-27.5625,22.7500,163.9375,19.0625,-157.0625,0
1777067805.307,9.7588,1.0989,0.1221,-0.5207,-0.1500,0.1609,-28.6500,26.5500,28.0500,9.5864,-0.0192,0.4214,-0.2936,0.2292,0.4445,-54.7500,6.4500,-2.4000,3.3600,3.3900,-8.7700,-0.1604,0.2160,0.0698,-3.5000,-27.5625,22.7500,163.9375,19.1875,-156.9375,0
1777067805.312,9.7659,1.0654,-0.0311,-0.4620,-0.1876,0.1340,-29.8500,26.7000,28.2000,9.5864,-0.0192,0.4214,-0.2936,0.2292,0.4445,-54.6000,6.1500,-2.8500,3.4200,3.4100,-8.7300,-0.1778,0.2367,0.0687,-3.5000,-27.5625,22.7500,163.9375,19.1875,-156.9375,0
1777067805.317,9.7659,1.0654,-0.0311,-0.4620,-0.1876,0.1340,-29.8500,26.7000,28.2000,9.5816,-0.1269,0.1413,-0.2982,0.2526,0.4578,-54.6000,6.1500,-2.8500,3.4200,3.4100,-8.7300,-0.1963,0.2607,0.0742,-3.5000,-27.5625,22.7500,164.0000,19.3750,-156.8125,0
1777067805.322,9.7133,1.0822,-0.2705,-0.4048,-0.2089,0.1159,-29.8500,26.7000,28.2000,9.5816,-0.1269,0.1413,-0.2982,0.2526,0.4578,-53.8500,6.1500,-2.1000,3.4300,3.4000,-8.7300,-0.1963,0.2607,0.0742,-3.5000,-27.5625,22.7500,164.0000,19.3750,-156.8125,0
1777067805.330,9.9096,1.0439,-0.5315,-0.3557,-0.2563,0.0762,-29.8500,26.7000,28.2000,9.5505,-0.1484,-0.0239,-0.3256,0.2793,0.4586,-53.8500,6.1500,-2.1000,3.4200,3.3700,-8.7500,-0.2116,0.2869,0.0720,-3.5000,-27.5625,22.7500,164.0000,19.5000,-156.7500,0
1777067805.335,9.9096,1.0439,-0.5315,-0.3557,-0.2563,0.0762,-31.9500,27.7500,29.1000,9.4595,-0.1796,-0.1197,-0.3256,0.2793,0.4586,-53.8500,6.1500,-2.1000,3.4200,3.3700,-8.7500,-0.2116,0.2869,0.0720,-3.5000,-27.5625,22.7500,164.0625,19.6875,-156.6250,0
1777067805.342,9.7109,0.9936,-0.7422,-0.3224,-0.3174,0.0421,-31.9500,26.2500,28.0500,9.4595,-0.1796,-0.1197,-0.3419,0.3262,0.4740,-54.6000,5.8500,-2.5500,3.4000,3.3900,-8.7200,-0.2411,0.3152,0.0818,-3.5000,-27.5625,22.7500,164.0625,19.6875,-156.6250,0
1777067805.347,9.7444,0.9002,-0.7733,-0.2904,-0.3736,-0.0005,-31.9500,26.2500,28.0500,9.4834,-0.1676,-0.2634,-0.3738,0.3848,0.4906,-54.6000,5.8500,-2.5500,3.4000,3.3900,-8.7200,-0.2978,0.3382,0.1124,-4.5625,-28.0000,22.7500,164.1250,19.8750,-156.4375,0
1777067805.352,9.7444,0.9002,-0.7733,-0.2904,-0.3736,-0.0005,-34.2000,26.7000,28.9500,9.4834,-0.1676,-0.2634,-0.3738,0.3848,0.4906,-53.2500,6.0000,-2.7000,3.4900,3.4300,-8.6800,-0.2978,0.3382,0.1124,-4.5625,-28.0000,22.7500,164.1250,19.8750,-156.4375,0
1777067805.357,9.8521,0.9242,-0.9553,-0.2971,-0.3848,-0.0424,-34.2000,26.7000,28.9500,9.4810,-0.1724,-0.2945,-0.3973,0.4343,0.5124,-53.2500,6.0000,-2.7000,3.4900,3.4300,-8.6800,-0.2978,0.3382,0.1124,-4.5625,-28.0000,22.7500,164.1875,20.1250,-156.3125,0
1777067805.362,9.8521,0.9242,-0.9553,-0.2971,-0.3848,-0.0424,-35.7000,27.1500,28.9500,9.4810,-0.1724,-0.2945,-0.3973,0.4343,0.5124,-54.0000,7.5000,-1.9500,3.5300,3.2900,-8.7200,-0.3240,0.3491,0.1484,-4.5625,-28.0000,22.7500,164.1875,20.1250,-156.3125,0
1777067805.367,9.9790,0.9625,-1.0606,-0.2899,-0.4245,-0.0781,-35.7000,27.1500,28.9500,9.6462,-0.2418,-0.3615,-0.4194,0.5009,0.5311,-54.0000,7.5000,-1.9500,3.5300,3.2900,-8.7200,-0.3392,0.3622,0.1702,-4.5625,-28.0000,22.7500,164.3125,20.3750,-156.1250,0
1777067805.373,9.9790,0.9625,-1.0606,-0.2899,-0.4245,-0.0781,-35.7000,27.1500,28.9500,9.8785,-0.2274,-0.7661,-0.4194,0.5009,0.5311,-54.6000,5.4000,0.0000,3.5700,3.3400,-8.7600,-0.3392,0.3622,0.1702,-4.5625,-28.0000,22.7500,164.3750,20.6250,-156.0000,0
1777067805.382,10.0054,1.0175,-1.0367,-0.2907,-0.5076,-0.1079,-36.3000,27.3000,26.7000,9.8785,-0.2274,-0.7661,-0.4453,0.5977,0.5425,-54.0000,4.5000,-0.9000,3.5300,3.4800,-8.7800,-0.3469,0.4080,0.1898,-4.5625,-28.0000,22.7500,164.3750,20.6250,-156.0000,0
1777067805.392,10.1778,1.1325,-1.1851,-0.2755,-0.5124,-0.1359,-35.1000,25.5000,27.3000,10.3884,-0.1987,-0.2825,-0.4890,0.6664,0.5550,-53.7000,6.0000,0.1500,3.0900,4.1100,-8.7100,-0.3447,0.4592,0.2302,-4.5625,-28.0000,22.7500,164.5000,20.8750,-155.8125,0
1777067805.397,10.1682,1.2761,-1.2186,-0.2750,-0.6153,-0.1673,-35.1000,25.5000,27.3000,10.3884,-0.1987,-0.2825,-0.6312,0.6960,0.5798,-53.7000,6.0000,0.1500,3.0900,4.1100,-8.7100,-0.3447,0.4592,0.2302,-4.5625,-28.0000,22.7500,164.5000,20.8750,-155.8125,0
1777067805.402,10.1682,1.2761,-1.2186,-0.2750,-0.6153,-0.1673,-35.8500,27.0000,27.7500,10.9176,0.0862,-0.1149,-0.6312,0.6960,0.5798,-53.7000,6.0000,0.1500,3.0400,3.9000,-8.8700,-0.3011,0.4745,0.3000,-5.0000,-28.6875,22.2500,164.6250,21.1875,-155.6875,0
