timestamp,thigh_acc_x,thigh_acc_y,thigh_acc_z,thigh_gyro_x,thigh_gyro_y,thigh_gyro_z,thigh_mag_x,thigh_mag_y,thigh_mag_z,shank_acc_x,shank_acc_y,shank_acc_z,shank_gyro_x,shank_gyro_y,shank_gyro_z,shank_mag_x,shank_mag_y,shank_mag_z,foot_acc_x,foot_acc_y,foot_acc_z,foot_gyro_x,foot_gyro_y,foot_gyro_z,foot_mag_x,foot_mag_y,foot_mag_z,foot_euler_x,foot_euler_y,foot_euler_z,perturbation_event
70.232,1.9824,5.9448,-7.7189,-0.0099,0.0304,-0.0011,-11.5500,24.7500,-9.6000,9.2273,1.5826,-2.6791,-0.0200,0.0056,0.0131,-80.2500,42.4500,-19.8000,4.1600,3.6300,-8.0300,0.0033,-0.0022,0.0000,-25.5000,-32.0000,8.5000,285.6250,25.3750,-155.9375,0
70.242,1.9992,5.9520,-7.7069,-0.0173,0.0362,-0.0045,-11.5500,24.7500,-9.6000,9.2105,1.5921,-2.6312,-0.0237,-0.0008,0.0088,-78.7500,42.0000,-19.8000,4.1800,3.6500,-8.0200,0.0065,-0.0011,0.0033,-25.5000,-32.0000,8.5000,285.6250,25.3750,-155.9375,0
70.250,1.9968,5.9328,-7.6734,-0.0152,0.0301,-0.0053,-11.5500,24.7500,-9.6000,9.2584,1.5347,-2.5809,-0.0237,-0.0008,0.0088,-79.8000,41.5500,-20.1000,4.1700,3.6300,-8.0400,0.0022,0.0011,0.0000,-25.5000,-32.0000,8.5000,285.6250,25.3750,-155.9375,0
70.255,1.9968,5.9328,-7.6734,-0.0152,0.0301,-0.0053,-12.6000,24.3000,-9.1500,9.2584,1.5347,-2.5809,-0.0237,0.0035,0.0061,-79.8000,41.5500,-20.1000,4.1700,3.6300,-8.0400,0.0022,0.0011,0.0000,-25.5000,-32.0000,8.5000,285.6250,25.3750,-155.9375,0
70.263,1.9273,5.9280,-7.7428,-0.0115,0.0304,-0.0056,-11.8500,22.0500,-8.8500,9.2009,1.6185,-2.5929,-0.0285,0.0008,0.0072,-78.4500,43.3500,-21.0000,4.2000,3.6400,-8.0500,0.0055,0.0000,0.0022,-25.5000,-32.0000,8.5000,285.6250,25.3750,-155.9375,0
70.268,1.9273,5.9280,-7.7428,-0.0115,0.0304,-0.0056,-11.8500,22.0500,-8.8500,9.2009,1.6185,-2.5929,-0.0285,0.0008,0.0072,-79.5000,42.7500,-19.3500,4.2000,3.6400,-8.0500,0.0044,0.0000,0.0011,-25.7500,-33.3750,7.6875,285.6250,25.3750,-155.9375,0
70.273,1.9920,5.8993,-7.7213,-0.0218,0.0349,-0.0016,-11.5500,24.0000,-8.1000,9.2680,1.5538,-2.6887,-0.0253,0.0016,0.0104,-79.5000,42.7500,-19.3500,4.1900,3.6200,-8.0100,0.0044,0.0000,0.0011,-25.7500,-33.3750,7.6875,285.6250,25.3750,-155.9375,0
70.282,1.9800,5.9544,-7.7668,-0.0197,0.0298,-0.0024,-11.5500,22.5000,-9.1500,9.2512,1.5897,-2.6097,-0.0301,0.0032,0.0107,-78.1500,43.3500,-20.7000,4.1800,3.6700,-8.0400,0.0033,0.0011,0.0011,-25.7500,-33.3750,7.6875,285.6250,25.3750,-155.9375,0
70.292,1.9944,5.9161,-7.7333,-0.0157,0.0322,-0.0011,-11.5500,22.5000,-9.1500,9.2560,1.6185,-2.5833,-0.0253,0.0040,0.0080,-79.5000,42.7500,-19.8000,4.1600,3.6300,-8.0600,0.0044,0.0000,0.0022,-25.7500,-33.3750,7.6875,285.6250,25.3750,-155.9375,0
70.302,2.0399,5.8921,-7.6782,-0.0128,0.0322,0.0019,-11.5500,22.5000,-9.1500,9.2296,1.6137,-2.6049,-0.0266,0.0035,0.0091,-79.5000,42.7500,-19.8000,4.1900,3.6300,-8.0400,0.0055,0.0000,0.0022,-25.7500,-33.3750,7.6875,285.6250,25.3750,-155.9375,0
70.307,2.0159,5.9089,-7.6830,-0.0109,0.0264,0.0024,-11.4000,24.1500,-9.7500,9.2608,1.5179,-2.6145,-0.0266,0.0035,0.0091,-79.5000,42.7500,-19.8000,4.1900,3.6300,-8.0400,0.0033,-0.0011,0.0000,-25.7500,-33.3750,7.6875,285.6250,25.3750,-155.9375,0
70.313,2.0159,5.9089,-7.6830,-0.0109,0.0264,0.0024,-11.7000,24.1500,-8.2500,9.2608,1.5179,-2.6145,-0.0304,0.0059,0.0061,-78.0000,42.4500,-20.1000,4.1600,3.6500,-8.0300,0.0033,-0.0011,0.0000,-25.7500,-33.3750,7.6875,285.6250,25.3750,-155.9375,0
70.318,2.0470,5.9041,-7.7357,-0.0128,0.0277,0.0013,-11.7000,24.1500,-8.2500,9.2751,1.4605,-2.6097,-0.0370,-0.0051,0.0072,-78.0000,42.4500,-20.1000,4.1600,3.6500,-8.0300,0.0011,0.0022,0.0011,-25.7500,-32.3750,8.0625,285.6250,25.3750,-155.9375,0
70.323,2.0470,5.9041,-7.7357,-0.0128,0.0277,0.0013,-11.7000,22.6500,-7.9500,9.2751,1.4605,-2.6097,-0.0370,-0.0051,0.0072,-78.0000,42.4500,-20.1000,4.1800,3.6400,-8.0200,0.0011,0.0022,0.0011,-25.7500,-32.3750,8.0625,285.6250,25.3750,-155.9375,0
70.333,2.0231,5.8706,-7.6854,-0.0115,0.0269,0.0045,-12.6000,24.0000,-7.8000,9.2512,1.6041,-2.6121,-0.0333,0.0024,0.0056,-78.1500,42.6000,-20.2500,4.1900,3.6300,-8.0400,0.0000,0.0000,0.0000,-25.7500,-32.3750,8.0625,285.6250,25.3750,-155.9375,0
70.342,2.0518,5.9041,-7.6471,-0.0139,0.0192,0.0021,-12.1500,23.4000,-9.3000,9.2177,1.5850,-2.6288,-0.0360,-0.0027,0.0088,-78.1500,41.8500,-20.7000,4.1800,3.6500,-8.0300,-0.0022,0.0011,0.0011,-25.7500,-32.3750,8.0625,285.6250,25.3750,-155.9375,0
70.350,1.9728,5.9209,-7.6974,-0.0139,0.0298,0.0069,-12.1500,23.4000,-9.3000,9.2201,1.5826,-2.6169,-0.0328,0.0013,0.0093,-79.0500,42.4500,-19.8000,4.1800,3.6200,-8.0300,-0.0022,0.0011,0.0011,-25.7500,-32.3750,8.0625,285.6250,25.3750,-155.9375,0
70.354,1.9728,5.9209,-7.6974,-0.0139,0.0298,0.0069,-12.1500,23.4000,-9.3000,9.2201,1.5826,-2.6169,-0.0328,0.0013,0.0093,-79.0500,42.4500,-19.8000,4.1800,3.6200,-8.0300,-0.0022,0.0011,0.0011,-25.7500,-32.3750,8.0625,285.6250,25.3750,-155.9375,0
70.363,2.0423,5.9089,-7.7261,-0.0136,0.0248,0.0043,-13.5000,22.6500,-9.0000,9.2392,1.5921,-2.6671,-0.0418,-0.0019,0.0072,-78.1500,41.8500,-19.9500,4.1900,3.6700,-8.0200,-0.0011,-0.0011,0.0000,-25.7500,-32.3750,8.0625,285.6250,25.3750,-155.9375,0
70.368,2.0734,5.9496,-7.6950,-0.0133,0.0280,0.0072,-13.5000,22.6500,-9.0000,9.2536,1.6376,-2.6432,-0.0320,0.0019,0.0045,-78.1500,41.8500,-19.9500,4.1900,3.6700,-8.0200,-0.0033,-0.0011,0.0000,-24.6875,-32.0000,8.0625,285.6250,25.3750,-155.9375,0
70.373,2.0734,5.9496,-7.6950,-0.0133,0.0280,0.0072,-11.8500,24.0000,-8.8500,9.2536,1.6376,-2.6432,-0.0320,0.0019,0.0045,-78.1500,41.8500,-19.9500,4.2000,3.6600,-8.0100,-0.0033,-0.0011,0.0000,-24.6875,-32.0000,8.0625,285.6250,25.3750,-155.9375,0
70.383,2.0614,5.9017,-7.6638,-0.0128,0.0200,0.0021,-12.4500,22.2000,-8.7000,9.1913,1.5921,-2.6121,-0.0256,0.0005,0.0027,-78.3000,42.0000,-19.8000,4.1900,3.6300,-8.0400,-0.0022,-0.0033,-0.0011,-24.6875,-32.0000,8.0625,285.6250,25.3750,-155.9375,0
70.392,2.1093,5.9328,-7.6447,-0.0125,0.0237,0.0061,-11.8500,25.0500,-8.8500,9.2129,1.6305,-2.6504,-0.0280,-0.0075,0.0019,-78.3000,42.0000,-19.8000,4.1900,3.6500,-8.0300,-0.0011,-0.0011,-0.0044,-24.6875,-32.0000,8.0625,285.6250,25.3750,-155.9375,0
70.400,1.9585,5.9520,-7.6591,-0.0088,0.0290,0.0075,-11.8500,25.0500,-8.8500,9.2225,1.6161,-2.5953,-0.0242,-0.0011,0.0056,-79.3500,42.6000,-19.9500,4.1800,3.6500,-8.0200,-0.0022,-0.0011,-0.0011,-24.6875,-32.0000,8.0625,285.6250,25.3750,-155.9375,0
70.405,2.0159,5.9328,-7.6998,-0.0093,0.0277,0.0019,-11.8500,25.0500,-8.8500,9.2225,1.6233,-2.6456,-0.0368,-0.0016,0.0045,-79.3500,42.6000,-19.9500,4.1800,3.6500,-8.0200,-0.0022,-0.0011,-0.0011,-24.6875,-32.0000,8.0625,285.6250,25.3750,-155.9375,0
70.413,2.0159,5.9328,-7.6998,-0.0093,0.0277,0.0019,-12.6000,23.5500,-8.8500,9.2656,1.6257,-2.6312,-0.0368,-0.0016,0.0045,-78.0000,41.2500,-20.1000,4.1900,3.6400,-8.0100,-0.0055,-0.0044,-0.0011,-24.6875,-32.0000,8.0625,285.6250,25.3750,-155.9375,0
70.418,2.0063,5.9711,-7.7141,-0.0075,0.0328,0.0056,-12.6000,23.5500,-8.8500,9.2656,1.6257,-2.6312,-0.0320,-0.0032,0.0059,-78.0000,41.2500,-20.1000,4.1900,3.6400,-8.0100,-0.0011,-0.0044,-0.0022,-25.0625,-32.0000,10.0625,285.6250,25.3750,-155.9375,0
70.424,1.9944,5.9113,-7.7285,-0.0171,0.0242,0.0075,-12.3000,24.0000,-8.1000,9.1889,1.6257,-2.6408,-0.0352,-0.0045,0.0040,-78.1500,42.6000,-21.0000,4.2000,3.6500,-7.9800,-0.0011,-0.0044,-0.0022,-25.0625,-32.0000,10.0625,285.6250,25.3750,-155.9375,0
70.433,1.9944,5.9113,-7.7285,-0.0171,0.0242,0.0075,-12.1500,22.2000,-9.3000,9.2081,1.6161,-2.6959,-0.0352,-0.0045,0.0040,-78.7500,43.5000,-19.8000,4.1900,3.6400,-8.0300,-0.0022,0.0000,-0.0033,-25.0625,-32.0000,10.0625,285.6250,25.3750,-155.9375,0
70.442,1.9609,5.9161,-7.7117,-0.0091,0.0253,0.0109,-10.3500,24.4500,-7.6500,9.2033,1.5993,-2.6791,-0.0362,-0.0053,0.0107,-78.7500,43.5000,-21.6000,4.1800,3.6600,-8.0300,-0.0022,-0.0055,-0.0011,-25.0625,-32.0000,10.0625,285.6250,25.3750,-155.9375,0
70.450,1.9824,5.9376,-7.6974,-0.0093,0.0232,0.0069,-12.1500,24.4500,-8.7000,9.2033,1.5993,-2.6791,-0.0365,0.0003,0.0072,-78.4500,41.8500,-18.7500,4.1800,3.6600,-8.0300,-0.0011,-0.0055,-0.0011,-25.0625,-32.0000,10.0625,285.6250,25.3750,-155.9375,0
70.455,1.9321,5.9400,-7.6806,-0.0139,0.0192,0.0040,-12.1500,24.4500,-8.7000,9.2392,1.6352,-2.6336,-0.0381,0.0027,0.0099,-78.4500,41.8500,-18.7500,4.1800,3.6600,-8.0300,-0.0011,-0.0055,-0.0011,-25.0625,-32.0000,10.0625,285.6250,25.3750,-155.9375,0
70.463,1.9800,5.9831,-7.7213,-0.0117,0.0317,0.0029,-12.1500,24.4500,-8.7000,9.2416,1.6161,-2.6145,-0.0317,0.0029,0.0109,-78.4500,41.8500,-18.7500,4.1800,3.6400,-8.0000,-0.0022,-0.0011,-0.0022,-25.0625,-32.0000,10.0625,285.6250,25.3750,-155.9375,0
70.468,1.9800,5.9831,-7.7213,-0.0117,0.0317,0.0029,-12.1500,24.4500,-8.7000,9.2416,1.6161,-2.6145,-0.0317,0.0029,0.0109,-78.4500,41.8500,-18.7500,4.1800,3.6400,-8.0000,0.0011,0.0011,-0.0011,-25.5000,-32.6875,6.8750,285.6250,25.3750,-155.9375,0
70.474,1.9345,5.9903,-7.6926,-0.0080,0.0272,0.0013,-13.9500,23.4000,-10.0500,9.2273,1.6185,-2.6097,-0.0322,-0.0011,0.0104,-79.8000,42.7500,-18.6000,4.1700,3.6500,-8.0200,0.0011,0.0011,-0.0011,-25.5000,-32.6875,6.8750,285.6250,25.3750,-155.9375,0
70.483,1.9896,5.9376,-7.7045,-0.0085,0.0306,0.0019,-11.8500,24.0000,-9.9000,9.2009,1.6305,-2.6480,-0.0264,-0.0029,0.0091,-79.8000,42.7500,-18.6000,4.1800,3.6500,-8.0400,-0.0011,-0.0022,-0.0011,-25.5000,-32.6875,6.8750,285.6250,25.3750,-155.9375,0
70.492,1.9297,5.9472,-7.7476,-0.0099,0.0293,0.0016,-12.1500,24.9000,-8.2500,9.2153,1.6281,-2.6480,-0.0280,0.0080,0.0099,-79.3500,41.4000,-19.9500,4.1700,3.6400,-8.0300,0.0011,-0.0011,0.0011,-25.5000,-32.6875,6.8750,285.6250,25.3750,-155.9375,0
70.501,1.9225,5.9735,-7.7045,-0.0155,0.0362,0.0019,-12.4500,22.9500,-9.3000,9.1866,1.6951,-2.6671,-0.0266,0.0027,0.0109,-78.4500,43.0500,-19.2000,4.1900,3.6600,-8.0200,0.0044,-0.0011,0.0000,-25.5000,-32.6875,6.8750,285.6250,25.3750,-155.9375,0
70.506,1.9225,5.9735,-7.7045,-0.0155,0.0362,0.0019,-12.4500,22.9500,-9.3000,9.1866,1.6951,-2.6671,-0.0266,0.0027,0.0109,-78.4500,43.0500,-19.2000,4.1900,3.6600,-8.0200,0.0044,-0.0011,0.0000,-25.5000,-32.6875,6.8750,285.6250,25.3750,-155.9375,0
70.513,1.9417,5.9280,-7.6878,-0.0171,0.0336,0.0019,-11.4000,23.4000,-10.0500,9.1842,1.6209,-2.6121,-0.0266,0.0035,0.0080,-79.0500,43.2000,-19.0500,4.1800,3.6700,-8.0100,0.0044,0.0000,0.0011,-25.5000,-32.6875,6.8750,285.6250,25.3750,-155.9375,0
70.518,1.9417,5.9280,-7.6878,-0.0171,0.0336,0.0019,-11.4000,23.4000,-10.0500,9.2249,1.5969,-2.6767,-0.0266,0.0035,0.0080,-79.0500,43.2000,-19.0500,4.1800,3.6700,-8.0100,0.0033,-0.0011,0.0011,-25.5000,-32.3750,8.0625,285.6250,25.3750,-155.9375,0
70.524,1.9920,5.9161,-7.7093,-0.0192,0.0344,0.0024,-11.4000,23.4000,-10.0500,9.2249,1.5969,-2.6767,-0.0176,0.0024,0.0077,-79.5000,43.2000,-20.1000,4.1800,3.6700,-8.0300,0.0033,-0.0011,0.0011,-25.5000,-32.3750,8.0625,285.6250,25.3750,-155.9375,0
70.533,2.0183,5.9807,-7.6926,-0.0216,0.0282,0.0029,-11.8500,22.8000,-9.1500,9.2392,1.6328,-2.6480,-0.0240,0.0011,0.0096,-79.5000,43.2000,-20.1000,4.1900,3.6500,-8.0200,0.0011,0.0011,0.0011,-25.5000,-32.3750,8.0625,285.6250,25.3750,-155.9375,0
70.543,1.9920,5.9328,-7.6351,-0.0128,0.0325,0.0021,-11.5500,24.3000,-8.1000,9.2656,1.5945,-2.6480,-0.0256,0.0005,0.0053,-78.9000,42.6000,-18.4500,4.1800,3.6400,-8.0300,0.0044,-0.0033,0.0022,-25.5000,-32.3750,8.0625,285.6250,25.3750,-155.9375,0
70.552,2.0016,5.9568,-7.6734,-0.0117,0.0328,-0.0005,-12.4500,23.4000,-8.2500,9.2464,1.6376,-2.6432,-0.0290,0.0043,0.0131,-78.9000,42.6000,-18.4500,4.1900,3.6600,-8.0300,0.0044,0.0011,0.0022,-25.5000,-32.3750,8.0625,285.6250,25.3750,-155.9375,0
70.556,2.0016,5.9568,-7.6734,-0.0117,0.0328,-0.0005,-12.4500,23.4000,-8.2500,9.2464,1.6376,-2.6432,-0.0290,0.0043,0.0131,-78.9000,42.6000,-18.4500,4.1900,3.6600,-8.0300,0.0044,0.0011,0.0022,-25.5000,-32.3750,8.0625,285.6250,25.3750,-155.9375,0
70.564,1.9728,5.9185,-7.7213,-0.0083,0.0261,0.0024,-12.3000,24.0000,-8.5500,9.2273,1.5730,-2.6288,-0.0306,0.0061,0.0104,-80.1000,42.6000,-19.5000,4.1800,3.6500,-8.0000,0.0033,0.0000,0.0033,-25.5000,-32.3750,8.0625,285.6250,25.3750,-155.9375,0
70.569,1.9585,5.9687,-7.7405,-0.0131,0.0234,0.0011,-12.3000,24.0000,-8.5500,9.1794,1.6113,-2.5953,-0.0237,0.0027,0.0104,-80.1000,42.6000,-19.5000,4.1800,3.6500,-8.0000,0.0033,0.0011,0.0011,-25.5000,-32.3750,8.0625,285.6250,25.3750,-155.9375,0
70.574,1.9585,5.9687,-7.7405,-0.0131,0.0234,0.0011,-12.3000,24.0000,-8.5500,9.1794,1.6113,-2.5953,-0.0237,0.0027,0.0104,-78.7500,40.8000,-20.5500,4.1800,3.6500,-8.0200,0.0033,0.0011,0.0011,-25.5000,-32.3750,8.0625,285.6250,25.3750,-155.9375,0
70.583,2.0207,5.9520,-7.6662,-0.0091,0.0285,-0.0029,-12.7500,23.7000,-9.3000,9.2416,1.5610,-2.6504,-0.0203,0.0024,0.0067,-80.8500,42.1500,-19.9500,4.1800,3.6200,-8.0200,0.0000,-0.0033,0.0033,-25.5000,-32.3750,8.0625,285.6250,25.3750,-155.9375,0
70.593,2.0111,5.9233,-7.6710,-0.0061,0.0250,0.0037,-12.4500,22.6500,-9.0000,9.2320,1.5778,-2.6671,-0.0261,-0.0005,0.0123,-78.9000,41.8500,-20.2500,4.1800,3.6300,-8.0400,0.0022,-0.0011,0.0033,-25.5000,-32.3750,8.0625,285.6250,25.3750,-155.9375,0
70.601,2.0159,5.9592,-7.6591,-0.0083,0.0304,0.0027,-13.0500,24.0000,-9.9000,9.2512,1.6496,-2.6576,-0.0213,0.0008,0.0128,-80.1000,42.6000,-19.9500,4.1800,3.6600,-8.0200,0.0011,0.0011,0.0011,-25.5000,-32.3750,8.0625,285.6250,25.3750,-155.9375,0
70.606,2.0159,5.9592,-7.6591,-0.0083,0.0304,0.0027,-13.0500,24.0000,-9.9000,9.1842,1.5730,-2.6552,-0.0171,0.0045,0.0107,-80.1000,42.6000,-19.9500,4.1800,3.6600,-8.0200,0.0011,0.0011,0.0011,-25.5000,-32.3750,8.0625,285.6250,25.3750,-155.9375,0
70.614,2.0327,5.9209,-7.6255,-0.0067,0.0280,0.0003,-13.2000,22.9500,-8.2500,9.1842,1.5730,-2.6552,-0.0171,0.0045,0.0107,-79.6500,43.0500,-19.2000,4.1900,3.6700,-8.0100,0.0022,-0.0011,0.0011,-25.5000,-32.3750,8.0625,285.6250,25.3750,-155.9375,0
70.619,2.0183,5.8706,-7.6854,-0.0096,0.0293,0.0019,-11.4000,23.7000,-7.2000,9.2751,1.6233,-2.6121,-0.0232,0.0016,0.0080,-79.6500,43.0500,-19.2000,4.1900,3.6700,-8.0100,0.0044,-0.0022,0.0033,-25.0625,-32.0000,8.0625,285.6250,25.3750,-155.9375,0
70.624,2.0183,5.8706,-7.6854,-0.0096,0.0293,0.0019,-11.4000,23.7000,-7.2000,9.2536,1.6041,-2.6193,-0.0232,0.0016,0.0080,-79.6500,43.0500,-19.2000,4.1800,3.6300,-8.0200,0.0044,-0.0022,0.0033,-25.0625,-32.0000,8.0625,285.6250,25.3750,-155.9375,0
70.633,2.0231,5.8945,-7.6734,-0.0107,0.0304,-0.0013,-11.4000,23.7000,-7.2000,9.2536,1.6041,-2.6193,-0.0181,-0.0005,0.0069,-78.9000,43.0500,-20.2500,4.1900,3.6400,-8.0100,0.0022,0.0022,0.0022,-25.0625,-32.0000,8.0625,285.6250,25.3750,-155.9375,0
70.643,1.9800,5.9496,-7.6710,-0.0069,0.0325,0.0029,-13.3500,22.5000,-8.5500,9.1937,1.5419,-2.5953,-0.0232,-0.0043,0.0109,-78.7500,42.4500,-20.8500,4.1800,3.6300,-8.0400,0.0033,0.0022,0.0000,-25.0625,-32.0000,8.0625,285.6250,25.3750,-155.9375,0
70.651,2.0207,5.8610,-7.7189,-0.0139,0.0338,-0.0021,-13.5000,23.4000,-8.7000,9.2368,1.6161,-2.6169,-0.0232,0.0029,0.0075,-80.2500,42.7500,-20.1000,4.1900,3.6600,-8.0000,0.0011,0.0011,0.0000,-25.0625,-32.0000,8.0625,285.6250,25.3750,-155.9375,0
70.656,2.0207,5.8562,-7.7189,-0.0157,0.0301,0.0000,-13.0500,24.0000,-9.1500,9.2344,1.6448,-2.6360,-0.0208,0.0011,0.0104,-80.2500,42.7500,-20.1000,4.1900,3.6600,-8.0000,0.0011,0.0011,0.0000,-25.0625,-32.0000,8.0625,285.6250,25.3750,-155.9375,0
70.664,2.0207,5.8562,-7.7189,-0.0157,0.0301,0.0000,-13.0500,24.0000,-9.1500,9.2057,1.6305,-2.6384,-0.0224,-0.0003,0.0091,-80.2500,40.8000,-19.8000,4.2000,3.6400,-8.0200,0.0022,-0.0011,0.0022,-25.0625,-32.0000,8.0625,285.6250,25.3750,-155.9375,0
70.668,2.0542,5.9161,-7.6950,-0.0147,0.0266,-0.0048,-13.2000,23.7000,-7.9500,9.2057,1.6305,-2.6384,-0.0224,-0.0003,0.0091,-80.2500,40.8000,-19.8000,4.2000,3.6400,-8.0200,0.0033,0.0022,0.0000,-25.0625,-32.6875,8.0625,285.6250,25.3750,-155.9375,0
70.674,2.0542,5.9161,-7.6950,-0.0147,0.0266,-0.0048,-13.2000,23.7000,-7.9500,9.2895,1.6472,-2.5762,-0.0242,0.0003,0.0085,-79.3500,42.1500,-19.5000,4.1800,3.6600,-8.0200,0.0033,0.0022,0.0000,-25.0625,-32.6875,8.0625,285.6250,25.3750,-155.9375,0
70.683,1.9848,5.8802,-7.7285,-0.0152,0.0346,-0.0064,-11.7000,21.4500,-8.2500,9.2201,1.5419,-2.6480,-0.0144,0.0024,0.0112,-79.5000,41.5500,-20.8500,4.1800,3.6300,-8.0100,0.0022,0.0033,0.0000,-25.0625,-32.6875,8.0625,285.6250,25.3750,-155.9375,0
70.693,2.0135,5.8754,-7.6710,-0.0184,0.0346,-0.0021,-11.7000,21.4500,-8.2500,9.2225,1.6233,-2.6264,-0.0211,0.0045,0.0099,-79.5000,41.5500,-20.8500,4.1900,3.6400,-8.0400,0.0022,0.0033,0.0000,-25.0625,-32.6875,8.0625,285.6250,25.3750,-155.9375,0
70.700,1.9752,5.9137,-7.7357,-0.0144,0.0378,-0.0043,-11.8500,21.7500,-9.1500,9.2225,1.6233,-2.6264,-0.0211,0.0045,0.0099,-79.5000,41.5500,-20.8500,4.1900,3.6400,-8.0200,0.0022,0.0044,-0.0022,-25.0625,-32.6875,8.0625,285.6250,25.3750,-155.9375,0
70.705,2.0566,5.9328,-7.6112,-0.0147,0.0352,-0.0053,-11.8500,23.5500,-9.1500,9.1866,1.5850,-2.5402,-0.0187,0.0019,0.0093,-78.3000,42.4500,-19.8000,4.1900,3.6400,-8.0200,0.0022,0.0044,-0.0022,-25.0625,-32.6875,8.0625,285.6250,25.3750,-155.9375,0
70.714,2.0231,5.9256,-7.6495,-0.0083,0.0341,-0.0029,-11.8500,23.5500,-9.1500,9.2225,1.5538,-2.6049,-0.0224,0.0011,0.0131,-78.3000,42.4500,-19.8000,4.1800,3.6400,-8.0200,0.0022,0.0000,-0.0022,-25.0625,-32.6875,8.0625,285.6250,25.3750,-155.9375,0
70.719,2.0231,5.9256,-7.6495,-0.0083,0.0341,-0.0029,-11.2500,22.5000,-9.1500,9.2225,1.5538,-2.6049,-0.0224,0.0011,0.0131,-78.3000,42.4500,-19.8000,4.1800,3.6400,-8.0200,0.0022,0.0011,-0.0022,-25.5000,-32.0000,7.2500,285.6250,25.3750,-155.9375,0
70.724,2.0039,5.9807,-7.6878,-0.0133,0.0370,-0.0061,-10.5000,24.3000,-7.8000,9.2775,1.5682,-2.6121,-0.0200,0.0008,0.0072,-79.3500,42.6000,-19.5000,4.1900,3.6500,-8.0100,0.0022,0.0011,-0.0022,-25.5000,-32.0000,7.2500,285.6250,25.3750,-155.9375,0
70.733,2.0638,5.9137,-7.7045,-0.0104,0.0386,-0.0019,-10.5000,24.3000,-7.8000,9.1866,1.6017,-2.6336,-0.0280,-0.0037,0.0139,-78.4500,42.1500,-19.9500,4.1800,3.6600,-8.0300,0.0000,0.0022,0.0011,-25.5000,-32.0000,7.2500,285.6250,25.3750,-155.9375,0
70.743,2.0255,5.8586,-7.6399,-0.0101,0.0378,-0.0061,-10.5000,24.3000,-7.8000,9.2320,1.5682,-2.5929,-0.0261,-0.0072,0.0147,-78.7500,42.4500,-20.1000,4.1900,3.6600,-8.0400,0.0011,-0.0011,-0.0022,-25.5000,-32.0000,7.2500,285.6250,25.3750,-155.9375,0
70.752,1.9249,5.9424,-7.6686,-0.0123,0.0365,-0.0056,-11.7000,23.4000,-8.7000,9.2584,1.5850,-2.6097,-0.0293,-0.0008,0.0099,-77.4000,40.9500,-19.5000,4.1900,3.6600,-8.0300,0.0022,-0.0022,-0.0022,-25.5000,-32.0000,7.2500,285.6250,25.3750,-155.9375,0
70.758,1.9249,5.9424,-7.6686,-0.0123,0.0365,-0.0056,-12.6000,22.5000,-8.5500,9.2584,1.5850,-2.6097,-0.0293,-0.0008,0.0099,-77.4000,40.9500,-19.5000,4.1900,3.6600,-8.0300,0.0011,-0.0022,-0.0011,-25.5000,-32.0000,7.2500,285.6250,25.3750,-155.9375,0
70.764,2.0063,5.9616,-7.6447,-0.0115,0.0346,-0.0045,-10.8000,22.0500,-9.1500,9.2105,1.5682,-2.6528,-0.0218,-0.0083,0.0109,-78.9000,42.6000,-20.7000,4.2000,3.6500,-8.0200,0.0011,-0.0022,-0.0011,-25.5000,-32.0000,7.2500,285.6250,25.3750,-155.9375,0
70.769,2.0063,5.9616,-7.6447,-0.0115,0.0346,-0.0045,-10.8000,22.0500,-9.1500,9.2057,1.6161,-2.5977,-0.0277,-0.0069,0.0083,-78.9000,42.6000,-20.7000,4.2000,3.6500,-8.0200,0.0011,-0.0022,-0.0033,-24.6875,-32.3750,6.8750,285.6250,25.3750,-155.9375,0
70.774,1.9656,5.9328,-7.7021,-0.0133,0.0288,-0.0019,-11.7000,22.9500,-9.3000,9.2057,1.6161,-2.5977,-0.0277,-0.0069,0.0083,-78.4500,42.6000,-20.2500,4.2000,3.6300,-8.0100,0.0011,-0.0022,-0.0033,-24.6875,-32.3750,6.8750,285.6250,25.3750,-155.9375,0
70.783,1.9824,5.9256,-7.6926,-0.0064,0.0365,0.0024,-12.4500,23.4000,-8.2500,9.2416,1.5658,-2.6288,-0.0280,-0.0091,0.0075,-78.4500,42.6000,-20.2500,4.1800,3.6200,-8.0200,0.0000,-0.0011,-0.0022,-24.6875,-32.3750,6.8750,285.6250,25.3750,-155.9375,0
70.793,1.9585,6.0166,-7.6567,-0.0088,0.0285,0.0032,-12.4500,23.4000,-8.2500,9.2153,1.5634,-2.6647,-0.0296,-0.0045,0.0120,-78.4500,42.1500,-20.7000,4.1800,3.6500,-8.0200,0.0011,-0.0033,-0.0044,-24.6875,-32.3750,6.8750,285.6250,25.3750,-155.9375,0
70.801,1.9609,5.9544,-7.6830,-0.0059,0.0298,0.0077,-12.4500,23.4000,-8.2500,9.2464,1.5969,-2.6336,-0.0277,-0.0021,0.0069,-78.4500,42.1500,-20.7000,4.1800,3.6600,-8.0200,0.0011,-0.0022,-0.0022,-24.6875,-32.3750,6.8750,285.6250,25.3750,-155.9375,0
70.806,1.9609,5.9544,-7.6830,-0.0059,0.0298,0.0077,-11.4000,22.6500,-8.7000,9.2464,1.5969,-2.6336,-0.0277,-0.0021,0.0069,-79.0500,42.7500,-19.8000,4.1800,3.6600,-8.0200,0.0011,-0.0022,-0.0022,-24.6875,-32.3750,6.8750,285.6250,25.3750,-155.9375,0
70.814,1.9800,6.0190,-7.6782,-0.0051,0.0280,0.0048,-11.2500,24.3000,-8.5500,9.2249,1.6328,-2.6360,-0.0242,0.0003,0.0123,-79.5000,41.5500,-19.8000,4.2000,3.6100,-8.0200,0.0000,0.0000,-0.0022,-24.6875,-32.3750,6.8750,285.6250,25.3750,-155.9375,0
70.819,1.9800,6.0190,-7.6782,-0.0051,0.0280,0.0048,-11.2500,24.3000,-8.5500,9.1961,1.5921,-2.6169,-0.0253,-0.0067,0.0069,-79.5000,41.5500,-19.8000,4.2000,3.6100,-8.0200,-0.0022,-0.0011,-0.0022,-25.7500,-32.3750,7.6875,285.6250,25.3750,-155.9375,0
70.824,2.0183,5.9831,-7.6950,0.0013,0.0282,0.0069,-12.7500,22.2000,-9.0000,9.1961,1.5921,-2.6169,-0.0253,-0.0067,0.0069,-79.3500,41.8500,-20.2500,4.1800,3.6500,-8.0200,-0.0022,-0.0011,-0.0022,-25.7500,-32.3750,7.6875,285.6250,25.3750,-155.9375,0
70.834,1.9249,5.9783,-7.6519,0.0067,0.0213,0.0128,-12.4500,22.2000,-9.3000,9.2608,1.6161,-2.6240,-0.0264,-0.0067,0.0141,-78.4500,42.1500,-20.2500,4.1900,3.6400,-8.0200,-0.0033,0.0011,-0.0033,-25.7500,-32.3750,7.6875,285.6250,25.3750,-155.9375,0
70.843,1.9920,5.9376,-7.7021,0.0075,0.0269,0.0101,-11.5500,22.8000,-8.5500,9.2703,1.5706,-2.5809,-0.0253,-0.0051,0.0173,-79.3500,42.1500,-19.5000,4.1900,3.6600,-8.0400,-0.0022,0.0000,-0.0022,-25.7500,-32.3750,7.6875,285.6250,25.3750,-155.9375,0
70.853,2.0016,5.8802,-7.7117,0.0093,0.0258,0.0088,-11.5500,22.8000,-8.5500,9.2775,1.7119,-2.6360,-0.0261,-0.0064,0.0163,-79.3500,42.1500,-19.5000,4.1900,3.6400,-8.0200,-0.0044,-0.0022,-0.0033,-25.7500,-32.3750,7.6875,285.6250,25.3750,-155.9375,0
70.859,1.9920,5.9759,-7.7045,0.0123,0.0253,0.0115,-11.5500,22.8000,-8.5500,9.2296,1.6041,-2.6288,-0.0248,-0.0024,0.0136,-79.3500,42.1500,-19.5000,4.1900,3.6400,-8.0200,-0.0044,-0.0033,-0.0044,-25.7500,-32.3750,7.6875,285.6250,25.3750,-155.9375,0
70.864,1.9920,5.9759,-7.7045,0.0123,0.0253,0.0115,-12.7500,24.4500,-7.9500,9.2536,1.6352,-2.6049,-0.0248,-0.0024,0.0136,-78.4500,41.8500,-20.7000,4.1800,3.6300,-8.0100,-0.0044,-0.0033,-0.0044,-25.7500,-32.3750,7.6875,285.6250,25.3750,-155.9375,0
70.869,2.0351,5.9233,-7.6998,0.0080,0.0218,0.0099,-12.7500,24.4500,-7.9500,9.2536,1.6352,-2.6049,-0.0328,-0.0037,0.0123,-78.4500,41.8500,-20.7000,4.1800,3.6300,-8.0100,-0.0033,-0.0033,-0.0022,-25.0625,-32.6875,6.8750,285.6250,25.3750,-155.9375,0
70.874,2.0351,5.9233,-7.6998,0.0080,0.0218,0.0099,-10.9500,24.1500,-8.2500,9.1889,1.6328,-2.5857,-0.0328,-0.0037,0.0123,-78.4500,41.8500,-20.7000,4.1900,3.6500,-8.0300,-0.0033,-0.0033,-0.0022,-25.0625,-32.6875,6.8750,285.6250,25.3750,-155.9375,0
70.884,2.0207,5.9280,-7.6662,0.0088,0.0248,0.0067,-13.0500,22.8000,-9.6000,9.2249,1.6185,-2.6432,-0.0269,-0.0008,0.0115,-80.8500,42.6000,-19.9500,4.1900,3.6400,-8.0200,-0.0044,-0.0055,-0.0033,-25.0625,-32.6875,6.8750,285.6250,25.3750,-155.9375,0
70.893,1.9345,5.9256,-7.6303,0.0184,0.0189,0.0069,-11.8500,23.5500,-9.9000,9.2536,1.6209,-2.6193,-0.0280,-0.0051,0.0155,-80.8500,42.6000,-19.9500,4.1900,3.6200,-8.0300,-0.0065,-0.0011,-0.0033,-25.0625,-32.6875,6.8750,285.6250,25.3750,-155.9375,0
70.901,1.9201,5.9640,-7.6710,0.0123,0.0309,-0.0024,-11.8500,23.5500,-9.9000,9.2536,1.6209,-2.6193,-0.0216,-0.0112,0.0099,-78.7500,43.2000,-19.8000,4.1800,3.6500,-8.0300,-0.0065,-0.0011,-0.0033,-25.0625,-32.6875,6.8750,285.6250,25.3750,-155.9375,0
70.905,1.9201,5.9640,-7.6710,0.0123,0.0309,-0.0024,-11.8500,23.5500,-9.9000,9.2656,1.6927,-2.5450,-0.0285,-0.0064,0.0181,-78.4500,43.0500,-19.5000,4.1800,3.6500,-8.0300,-0.0065,-0.0011,-0.0033,-25.0625,-32.6875,6.8750,285.6250,25.3750,-155.9375,0
70.914,1.9297,5.9879,-7.7165,0.0093,0.0344,-0.0008,-12.4500,23.4000,-9.7500,9.2488,1.7095,-2.5929,-0.0264,-0.0029,0.0234,-78.7500,43.2000,-19.3500,4.1800,3.6200,-8.0500,-0.0065,-0.0044,-0.0022,-25.0625,-32.6875,6.8750,285.6250,25.3750,-155.9375,0
70.919,2.0207,5.9855,-7.6471,0.0163,0.0397,-0.0064,-12.4500,23.4000,-9.7500,9.2488,1.7095,-2.5929,-0.0264,-0.0029,0.0234,-78.7500,43.2000,-19.3500,4.1800,3.6200,-8.0500,-0.0109,0.0011,-0.0044,-25.5000,-32.3750,7.6875,285.6250,25.3750,-155.9375,0
70.924,2.0207,5.9855,-7.6471,0.0163,0.0397,-0.0064,-12.4500,22.9500,-9.0000,9.2153,1.7358,-2.5498,-0.0179,-0.0040,0.0192,-78.7500,43.2000,-19.3500,4.1800,3.6600,-7.9900,-0.0109,0.0011,-0.0044,-25.5000,-32.3750,7.6875,285.6250,25.3750,-155.9375,0
70.934,2.0159,5.9137,-7.5920,0.0232,0.0416,-0.0117,-12.7500,24.1500,-8.7000,9.1722,1.7190,-2.6240,-0.0136,-0.0069,0.0250,-78.7500,43.2000,-19.3500,4.2000,3.7000,-8.0000,-0.0098,-0.0044,-0.0044,-25.5000,-32.3750,7.6875,285.6250,25.3750,-155.9375,0
70.943,1.9896,5.9328,-7.6016,0.0200,0.0408,-0.0165,-11.7000,24.1500,-9.3000,9.1818,1.7238,-2.5714,-0.0083,-0.0080,0.0298,-78.4500,40.2000,-19.5000,4.1800,3.6900,-8.0100,-0.0055,-0.0076,-0.0055,-25.5000,-32.3750,7.6875,285.6250,25.3750,-155.9375,0
70.951,2.0016,5.9233,-7.6184,0.0040,0.0408,-0.0234,-11.7000,23.7000,-9.0000,9.1889,1.6496,-2.5666,-0.0040,-0.0024,0.0333,-78.4500,40.2000,-19.5000,4.1800,3.6700,-8.0200,0.0000,-0.0076,-0.0055,-25.5000,-32.3750,7.6875,285.6250,25.3750,-155.9375,0
70.956,1.9609,5.9568,-7.6519,0.0021,0.0554,-0.0296,-11.7000,23.7000,-9.0000,9.1889,1.6496,-2.5666,-0.0040,-0.0024,0.0333,-79.5000,41.5500,-18.3000,4.1800,3.6700,-8.0200,0.0000,-0.0076,-0.0055,-25.5000,-32.3750,7.6875,285.6250,25.3750,-155.9375,0
70.964,1.9609,5.9568,-7.6519,0.0021,0.0554,-0.0296,-11.7000,23.7000,-9.0000,9.2320,1.7669,-2.5881,-0.0104,-0.0101,0.0354,-79.5000,41.5500,-18.3000,4.1800,3.6700,-8.0000,0.0022,-0.0065,-0.0033,-25.5000,-32.3750,7.6875,285.6250,25.3750,-155.9375,0
70.969,1.9800,6.0071,-7.6375,-0.0029,0.0589,-0.0360,-11.7000,23.7000,-9.0000,9.2320,1.7669,-2.5881,-0.0104,-0.0101,0.0354,-79.6500,42.1500,-19.5000,4.1800,3.6700,-8.0000,0.0065,-0.0055,-0.0022,-25.5000,-32.2500,8.0625,285.6250,25.3750,-155.9375,0
70.975,2.0542,6.0501,-7.6040,-0.0011,0.0552,-0.0397,-10.9500,23.4000,-9.3000,9.2632,1.7095,-2.5953,-0.0168,-0.0099,0.0397,-79.8000,42.0000,-19.8000,4.1900,3.6700,-8.0000,0.0065,-0.0055,-0.0022,-25.5000,-32.2500,8.0625,285.6250,25.3750,-155.9375,0
70.984,2.0542,6.0501,-7.6040,-0.0011,0.0552,-0.0397,-11.7000,23.4000,-8.2500,9.1961,1.6999,-2.6312,-0.0250,-0.0133,0.0461,-79.8000,42.0000,-19.8000,4.1700,3.6600,-8.0100,0.0065,-0.0087,-0.0011,-25.5000,-32.2500,8.0625,285.6250,25.3750,-155.9375,0
70.993,1.9800,6.1555,-7.6638,0.0069,0.0581,-0.0418,-12.6000,22.5000,-10.2000,9.2344,1.6855,-2.6073,-0.0253,-0.0234,0.0464,-78.7500,43.9500,-19.3500,4.1800,3.6600,-8.0200,0.0098,-0.0087,0.0000,-25.5000,-32.2500,8.0625,285.6250,25.3750,-155.9375,0
71.000,1.9585,6.1076,-7.6734,0.0296,0.0663,-0.0432,-11.7000,23.4000,-9.3000,9.2249,1.6496,-2.6097,-0.0285,-0.0253,0.0530,-78.0000,43.5000,-19.0500,4.1800,3.6900,-8.0100,0.0142,-0.0109,0.0000,-25.5000,-32.2500,8.0625,285.6250,25.3750,-155.9375,0
71.005,1.9130,6.0382,-7.6662,0.0424,0.0655,-0.0464,-11.7000,23.4000,-9.3000,9.2249,1.6496,-2.6097,-0.0285,-0.0253,0.0530,-78.3000,42.7500,-20.5500,4.1800,3.6900,-8.0100,0.0142,-0.0109,0.0000,-25.5000,-32.2500,8.0625,285.6250,25.3750,-156.0000,0
71.014,1.8507,6.0573,-7.7165,0.0493,0.0655,-0.0408,-11.7000,23.4000,-9.3000,9.2416,1.6831,-2.7318,-0.0274,-0.0181,0.0581,-78.3000,42.7500,-20.5500,4.1700,3.6700,-8.0100,0.0196,-0.0131,-0.0011,-25.5000,-32.2500,8.0625,285.6250,25.3750,-156.0000,0
71.020,1.8507,6.0573,-7.7165,0.0493,0.0655,-0.0408,-11.7000,23.4000,-9.3000,9.1626,1.6735,-2.8180,-0.0381,-0.0195,0.0594,-78.3000,42.7500,-20.5500,4.1700,3.6700,-8.0100,0.0207,-0.0142,0.0022,-25.0625,-32.3750,8.8750,285.6250,25.3750,-156.0000,0
71.025,1.8459,5.9855,-7.7405,0.0456,0.0703,-0.0432,-11.7000,23.4000,-9.3000,9.1626,1.6735,-2.8180,-0.0381,-0.0195,0.0594,-78.3000,42.7500,-20.5500,4.1700,3.6700,-8.0200,0.0207,-0.0142,0.0022,-25.0625,-32.3750,8.8750,285.6250,25.3750,-156.0000,0
71.034,1.7885,5.9448,-7.7452,0.0480,0.0655,-0.0381,-12.1500,24.9000,-9.0000,9.1866,1.6520,-2.7892,-0.0245,-0.0200,0.0663,-80.4000,41.8500,-19.2000,4.1700,3.6400,-8.0300,0.0273,-0.0120,0.0022,-25.0625,-32.3750,8.8750,285.6250,25.3750,-156.0000,0
71.043,1.7334,5.8993,-7.8003,0.0488,0.0661,-0.0389,-11.8500,22.8000,-7.3500,9.1746,1.6400,-2.8635,-0.0203,-0.0125,0.0602,-80.1000,43.0500,-19.2000,4.1700,3.6700,-8.0200,0.0284,-0.0131,0.0055,-25.0625,-32.3750,8.8750,285.6250,25.3125,-156.0000,0
71.052,1.7095,5.8466,-7.8099,0.0405,0.0634,-0.0365,-12.3000,23.5500,-7.0500,9.1650,1.6783,-2.8276,-0.0115,-0.0011,0.0573,-79.5000,42.0000,-20.8500,4.1600,3.6900,-8.0300,0.0316,-0.0098,0.0076,-25.0625,-32.3750,8.8750,285.6250,25.3125,-156.0625,0
71.057,1.7095,5.8466,-7.8099,0.0405,0.0634,-0.0365,-12.3000,23.5500,-7.0500,9.1722,1.5969,-2.8635,-0.0115,-0.0011,0.0573,-78.9000,41.8500,-19.5000,4.1600,3.6900,-8.0300,0.0316,-0.0098,0.0076,-25.0625,-32.3750,8.8750,285.6250,25.3125,-156.0625,0
71.064,1.7430,5.8083,-7.8434,0.0322,0.0610,-0.0333,-10.6500,22.9500,-8.2500,9.1722,1.5969,-2.8635,0.0072,-0.0037,0.0592,-78.9000,41.8500,-19.5000,4.1300,3.6700,-8.0200,0.0349,-0.0076,0.0109,-25.0625,-32.3750,8.8750,285.6250,25.3125,-156.0625,0
71.069,1.7430,5.8083,-7.8434,0.0322,0.0610,-0.0333,-10.6500,22.9500,-8.2500,9.2273,1.6257,-2.8323,0.0099,0.0043,0.0496,-79.5000,41.2500,-19.8000,4.1300,3.6700,-8.0200,0.0382,-0.0065,0.0142,-25.5000,-31.5625,8.8750,285.6250,25.3750,-156.0625,0
71.074,1.8651,5.7700,-7.8482,0.0277,0.0602,-0.0344,-10.6500,22.9500,-8.2500,9.2273,1.6257,-2.8323,0.0099,0.0043,0.0496,-79.5000,41.2500,-19.8000,4.1700,3.6700,-8.0000,0.0382,-0.0065,0.0142,-25.5000,-31.5625,8.8750,285.6250,25.3750,-156.0625,0
71.079,1.8651,5.7700,-7.8482,0.0277,0.0602,-0.0344,-11.4000,23.4000,-7.6500,9.2129,1.4605,-2.8252,0.0184,0.0096,0.0485,-78.4500,41.8500,-19.9500,4.1700,3.6700,-8.0000,0.0415,-0.0033,0.0185,-25.5000,-31.5625,8.8750,285.6250,25.3750,-156.1250,0
71.084,1.8651,5.7413,-7.8578,0.0256,0.0589,-0.0328,-11.4000,23.4000,-7.6500,9.2129,1.4605,-2.8252,0.0184,0.0096,0.0485,-78.4500,41.8500,-19.9500,4.1600,3.6800,-8.0300,0.0415,-0.0033,0.0185,-25.5000,-31.5625,8.8750,285.6250,25.3750,-156.1250,0
71.089,1.8651,5.7413,-7.8578,0.0256,0.0589,-0.0328,-10.9500,24.1500,-9.7500,9.2081,1.4174,-2.7485,0.0181,0.0163,0.0482,-78.4500,41.8500,-19.9500,4.1600,3.6800,-8.0300,0.0447,0.0011,0.0185,-25.5000,-31.5625,8.8750,285.6875,25.3750,-156.1250,0
71.095,1.9178,5.6647,-7.8530,0.0168,0.0573,-0.0258,-10.9500,24.1500,-9.7500,9.2129,1.3312,-2.7653,0.0181,0.0163,0.0482,-78.4500,41.8500,-19.9500,4.1700,3.6700,-8.0300,0.0447,0.0011,0.0185,-25.5000,-31.5625,8.8750,285.6875,25.3750,-156.1875,0
71.104,1.9704,5.6407,-7.8434,0.0149,0.0554,-0.0211,-12.7500,23.7000,-9.3000,9.2129,1.3312,-2.7653,0.0165,0.0184,0.0426,-80.5500,43.9500,-21.6000,4.1700,3.6300,-8.0600,0.0480,0.0055,0.0196,-25.5000,-31.5625,8.8750,285.6875,25.3750,-156.1875,0
71.112,2.0734,5.7174,-7.8314,0.0099,0.0565,-0.0192,-11.8500,24.3000,-9.9000,9.2368,1.2378,-2.7102,0.0059,0.0195,0.0384,-80.5500,43.9500,-21.6000,4.1800,3.6000,-8.0400,0.0469,0.0033,0.0229,-25.5000,-31.5625,8.8750,285.6875,25.3750,-156.1875,0
71.117,2.0734,5.7174,-7.8314,0.0099,0.0565,-0.0192,-11.8500,24.3000,-9.9000,9.2584,1.2641,-2.6480,-0.0040,0.0155,0.0328,-78.3000,40.8000,-19.3500,4.1800,3.6000,-8.0400,0.0469,0.0033,0.0229,-25.5000,-31.5625,8.8750,285.6875,25.3750,-156.1875,0
71.122,2.1093,5.6360,-7.8243,0.0077,0.0560,-0.0131,-11.2500,23.2500,-8.1000,9.2584,1.2641,-2.6480,-0.0040,0.0155,0.0328,-78.3000,40.8000,-19.3500,4.2000,3.5800,-8.0400,0.0447,0.0055,0.0240,-25.5000,-32.7500,8.0625,285.6875,25.3750,-156.2500,0
71.127,2.1093,5.6360,-7.8243,0.0077,0.0560,-0.0131,-11.2500,23.2500,-8.1000,9.2799,1.2498,-2.6671,-0.0029,0.0141,0.0274,-78.4500,42.1500,-20.2500,4.2000,3.5800,-8.0400,0.0447,0.0055,0.0240,-25.5000,-32.7500,8.0625,285.6875,25.3750,-156.2500,0
71.132,2.2314,5.6623,-7.8482,0.0011,0.0405,-0.0077,-11.2500,23.2500,-8.1000,9.2799,1.2498,-2.6671,-0.0029,0.0141,0.0274,-78.4500,42.1500,-20.2500,4.1900,3.5600,-8.0700,0.0393,0.0055,0.0196,-25.5000,-32.7500,8.0625,285.6875,25.3750,-156.2500,0
71.136,2.2314,5.6623,-7.8482,0.0011,0.0405,-0.0077,-11.2500,23.2500,-8.1000,9.2560,1.2570,-2.6504,-0.0181,0.0120,0.0242,-79.5000,42.0000,-20.5500,4.1900,3.5600,-8.0700,0.0393,0.0055,0.0196,-25.5000,-32.7500,8.0625,285.6875,25.3750,-156.3125,0
71.144,2.2505,5.6407,-7.8410,0.0021,0.0437,-0.0072,-10.9500,23.4000,-8.7000,9.2775,1.2761,-2.5570,-0.0213,0.0131,0.0149,-79.5000,42.0000,-20.5500,4.1800,3.5300,-8.0900,0.0327,0.0076,0.0175,-25.5000,-32.7500,8.0625,285.6875,25.3750,-156.3125,0
71.154,2.3224,5.7533,-7.7668,-0.0093,0.0386,-0.0048,-13.3500,22.0500,-9.6000,9.3015,1.2306,-2.6408,-0.0218,0.0075,0.0152,-79.6500,40.9500,-19.9500,4.2100,3.5400,-8.0800,0.0229,0.0044,0.0120,-25.5000,-32.7500,8.0625,285.6875,25.3750,-156.3125,0
71.164,2.2984,5.6671,-7.7955,-0.0107,0.0392,-0.0003,-11.5500,23.2500,-9.1500,9.2775,1.2881,-2.5355,-0.0266,0.0104,0.0064,-78.1500,41.4000,-19.5000,4.1800,3.5500,-8.0700,0.0153,0.0087,0.0087,-25.5000,-32.7500,8.0625,285.6875,25.3750,-156.3125,0
71.169,2.3104,5.6216,-7.7548,-0.0216,0.0394,0.0048,-12.4500,23.4000,-9.3000,9.2775,1.2881,-2.5355,-0.0266,0.0104,0.0064,-80.2500,41.2500,-19.8000,4.1800,3.5500,-8.0700,0.0098,0.0033,0.0076,-25.0625,-32.0625,7.2500,285.6875,25.3750,-156.3125,0
71.175,2.3104,5.6216,-7.7548,-0.0216,0.0394,0.0048,-12.4500,23.4000,-9.3000,9.2991,1.2809,-2.5163,-0.0309,0.0077,-0.0013,-80.2500,41.2500,-19.8000,4.1800,3.5700,-8.0600,0.0098,0.0033,0.0076,-25.0625,-32.0625,7.2500,285.6875,25.3750,-156.3125,0
71.184,2.2769,5.6934,-7.7548,-0.0280,0.0317,0.0080,-12.4500,23.4000,-9.3000,9.3111,1.3120,-2.5331,-0.0330,0.0000,-0.0067,-80.2500,41.2500,-19.8000,4.2000,3.5800,-8.0600,0.0022,0.0065,0.0044,-25.0625,-32.0625,7.2500,285.6875,25.3750,-156.3125,0
71.194,2.2529,5.6096,-7.7213,-0.0338,0.0282,0.0077,-12.4500,23.4000,-9.3000,9.3494,1.2929,-2.5019,-0.0384,0.0021,-0.0112,-79.0500,42.4500,-21.1500,4.2000,3.5700,-8.0900,-0.0033,0.0076,0.0000,-25.0625,-32.0625,7.2500,285.6875,25.3750,-156.3125,0
71.201,2.2913,5.6910,-7.7476,-0.0416,0.0237,0.0088,-12.1500,22.9500,-9.3000,9.3087,1.3695,-2.4948,-0.0384,0.0021,-0.0112,-79.5000,43.2000,-20.1000,4.2100,3.6000,-8.0700,-0.0087,0.0044,-0.0011,-25.0625,-32.0625,7.2500,285.6875,25.3750,-156.3125,0
71.206,2.2913,5.6910,-7.7476,-0.0416,0.0237,0.0088,-12.1500,22.9500,-9.3000,9.3087,1.3695,-2.4948,-0.0402,-0.0067,-0.0184,-79.5000,43.2000,-20.1000,4.2100,3.6000,-8.0700,-0.0087,0.0044,-0.0011,-25.0625,-32.0625,7.2500,285.6875,25.3750,-156.3125,0
71.215,2.2865,5.7341,-7.7835,-0.0461,0.0181,0.0155,-12.1500,22.9500,-9.3000,9.2967,1.3503,-2.5331,-0.0376,-0.0005,-0.0237,-79.3500,41.8500,-20.7000,4.1900,3.5700,-8.0600,-0.0175,0.0000,-0.0044,-25.0625,-32.0625,7.2500,285.6875,25.3750,-156.3125,0
71.219,2.2410,5.7461,-7.7165,-0.0488,0.0184,0.0147,-10.8000,23.2500,-8.1000,9.2967,1.3503,-2.5331,-0.0376,-0.0005,-0.0237,-79.3500,42.1500,-19.5000,4.1900,3.5700,-8.0600,-0.0207,0.0011,-0.0087,-25.0625,-32.5000,8.0625,285.6875,25.3750,-156.3125,0
71.225,2.2410,5.7461,-7.7165,-0.0488,0.0184,0.0147,-10.8000,23.2500,-8.1000,9.3039,1.3647,-2.6097,-0.0480,-0.0075,-0.0234,-79.3500,42.1500,-19.5000,4.2100,3.6100,-8.0800,-0.0207,0.0011,-0.0087,-25.0625,-32.5000,8.0625,285.6875,25.3750,-156.2500,0
71.234,2.2122,5.7796,-7.7141,-0.0520,0.0131,0.0157,-11.8500,24.3000,-10.2000,9.2392,1.4509,-2.5642,-0.0482,-0.0101,-0.0258,-79.5000,42.4500,-19.8000,4.2100,3.5900,-8.0400,-0.0251,0.0000,-0.0098,-25.0625,-32.5000,8.0625,285.6875,25.3750,-156.2500,0
71.244,2.1261,5.7509,-7.7261,-0.0594,0.0056,0.0208,-11.8500,24.3000,-10.2000,9.2775,1.4557,-2.6097,-0.0506,-0.0120,-0.0282,-79.8000,41.5500,-20.1000,4.2100,3.6100,-8.0700,-0.0284,-0.0011,-0.0142,-25.0625,-32.5000,8.0625,285.6875,25.3750,-156.2500,0
71.250,1.9944,5.8466,-7.7285,-0.0554,0.0011,0.0176,-12.3000,25.0500,-7.8000,9.2608,1.4892,-2.6360,-0.0560,-0.0144,-0.0264,-79.8000,41.5500,-20.1000,4.1900,3.6100,-8.0500,-0.0295,0.0000,-0.0153,-25.0625,-32.5000,8.0625,285.6875,25.3750,-156.2500,0
71.255,1.9656,5.9185,-7.7285,-0.0592,-0.0019,0.0232,-11.5500,22.5000,-7.8000,9.2608,1.4892,-2.6360,-0.0560,-0.0144,-0.0264,-79.8000,41.5500,-20.1000,4.1900,3.6100,-8.0500,-0.0295,0.0000,-0.0153,-25.0625,-32.5000,8.0625,285.6875,25.3750,-156.1875,0
71.264,1.9656,5.9185,-7.7285,-0.0592,-0.0019,0.0232,-11.5500,22.5000,-7.8000,9.2560,1.5490,-2.7270,-0.0578,-0.0163,-0.0256,-79.5000,42.0000,-20.1000,4.1800,3.6100,-8.0300,-0.0327,-0.0011,-0.0153,-25.0625,-32.5000,8.0625,285.6875,25.3750,-156.1875,0
71.269,1.9752,5.9520,-7.7189,-0.0509,0.0027,0.0213,-11.7000,22.6500,-8.2500,9.2320,1.6017,-2.7366,-0.0602,-0.0168,-0.0197,-79.5000,42.0000,-20.1000,4.1800,3.6100,-8.0300,-0.0327,-0.0011,-0.0153,-25.0625,-32.5000,8.0625,285.6875,25.3750,-156.1875,0
71.274,1.9752,5.9520,-7.7189,-0.0509,0.0027,0.0213,-11.7000,22.6500,-8.2500,9.2320,1.6017,-2.7366,-0.0602,-0.0168,-0.0197,-79.5000,42.0000,-20.1000,4.1700,3.5900,-8.0500,-0.0327,-0.0044,-0.0164,-24.6875,-32.5000,8.5000,285.6875,25.3750,-156.1875,0
71.279,1.8938,5.9951,-7.6974,-0.0445,-0.0093,0.0253,-12.4500,23.4000,-9.3000,9.1794,1.5897,-2.7653,-0.0648,-0.0117,-0.0253,-78.1500,42.6000,-19.9500,4.1700,3.5900,-8.0500,-0.0327,-0.0044,-0.0164,-24.6875,-32.5000,8.5000,285.6875,25.3750,-156.1875,0
71.284,1.8938,5.9951,-7.6974,-0.0365,-0.0027,0.0253,-12.4500,23.4000,-9.3000,9.1794,1.5897,-2.7653,-0.0648,-0.0117,-0.0253,-78.1500,42.6000,-19.9500,4.1800,3.6200,-8.0200,-0.0393,-0.0022,-0.0175,-24.6875,-32.5000,8.5000,285.6875,25.3750,-156.1875,0
71.289,1.8818,6.0717,-7.7165,-0.0365,-0.0027,0.0253,-12.7500,24.1500,-7.6500,9.2057,1.6496,-2.7342,-0.0576,-0.0083,-0.0224,-80.1000,43.0500,-19.9500,4.1800,3.6200,-8.0200,-0.0382,-0.0011,-0.0164,-24.6875,-32.5000,8.5000,285.6875,25.3750,-156.1250,0
71.295,1.8603,6.0310,-7.6854,-0.0290,-0.0037,0.0376,-12.7500,24.1500,-7.6500,9.2057,1.6496,-2.7342,-0.0576,-0.0083,-0.0224,-80.1000,43.0500,-19.9500,4.1800,3.6300,-8.0400,-0.0382,-0.0011,-0.0164,-24.6875,-32.5000,8.5000,285.6875,25.3750,-156.1250,0
71.304,1.8100,6.0478,-7.7141,-0.0325,-0.0027,0.0360,-12.7500,24.1500,-7.6500,9.2344,1.6640,-2.7629,-0.0509,-0.0051,-0.0232,-79.8000,42.4500,-20.8500,4.1700,3.6400,-8.0300,-0.0382,-0.0022,-0.0164,-24.6875,-32.5000,8.5000,285.6875,25.3750,-156.1250,0
71.312,1.8100,6.0478,-7.7141,-0.0325,-0.0027,0.0360,-11.7000,23.7000,-9.7500,9.1794,1.7071,-2.7438,-0.0408,-0.0080,-0.0216,-79.3500,41.8500,-20.2500,4.1600,3.6400,-8.0200,-0.0360,0.0022,-0.0175,-24.6875,-32.5000,8.5000,285.6875,25.3750,-156.0625,0
71.317,1.8459,6.0023,-7.6998,-0.0269,-0.0005,0.0336,-12.1500,22.9500,-9.3000,9.1722,1.7238,-2.6959,-0.0429,-0.0051,-0.0218,-79.3500,41.8500,-20.2500,4.1600,3.6400,-8.0200,-0.0360,0.0022,-0.0175,-24.6875,-32.5000,8.5000,285.6875,25.3750,-156.0625,0
71.322,1.8459,6.0023,-7.6998,-0.0269,-0.0005,0.0336,-12.1500,22.9500,-9.3000,9.1722,1.7238,-2.6959,-0.0429,-0.0051,-0.0218,-79.3500,41.8500,-20.2500,4.1700,3.6500,-8.0300,-0.0349,0.0011,-0.0120,-25.0625,-32.5000,7.5625,285.6875,25.3750,-156.0625,0
71.327,1.7789,6.0262,-7.7381,-0.0213,0.0040,0.0346,-13.0500,24.0000,-9.6000,9.1746,1.7166,-2.7078,-0.0333,-0.0056,-0.0157,-79.3500,41.8500,-20.2500,4.1700,3.6500,-8.0300,-0.0349,0.0011,-0.0120,-25.0625,-32.5000,7.5625,285.6875,25.3750,-156.0625,0
71.332,1.7789,6.0262,-7.7381,-0.0213,0.0040,0.0346,-13.0500,24.0000,-9.6000,9.1746,1.7166,-2.7078,-0.0333,-0.0056,-0.0157,-78.3000,41.5500,-20.5500,4.1400,3.6400,-8.0000,-0.0327,0.0011,-0.0120,-25.0625,-32.5000,7.5625,285.6875,25.3750,-156.0625,0
71.337,1.8100,5.9903,-7.7165,-0.0181,0.0091,0.0264,-10.8000,24.0000,-8.5500,9.2009,1.7406,-2.7533,-0.0304,0.0000,-0.0120,-78.3000,41.5500,-20.5500,4.1400,3.6400,-8.0000,-0.0327,0.0011,-0.0120,-25.0625,-32.5000,7.5625,285.6250,25.3125,-156.0000,0
71.345,1.7909,6.1148,-7.6926,-0.0168,0.0096,0.0242,-10.8000,24.0000,-8.5500,9.1913,1.7119,-2.7342,-0.0304,0.0000,-0.0120,-78.3000,41.5500,-20.5500,4.1600,3.6700,-8.0200,-0.0273,0.0033,-0.0120,-25.0625,-32.5000,7.5625,285.6250,25.3125,-156.0000,0
71.354,1.8364,6.0741,-7.6854,-0.0043,0.0176,0.0298,-10.8000,24.0000,-8.5500,9.2177,1.6927,-2.6576,-0.0189,0.0024,-0.0067,-79.5000,42.0000,-21.6000,4.1800,3.6600,-8.0200,-0.0218,0.0044,-0.0109,-25.0625,-32.5000,7.5625,285.6250,25.3125,-156.0000,0
71.362,1.8435,6.0214,-7.6686,-0.0077,0.0168,0.0208,-10.8000,24.0000,-8.5500,9.2177,1.6927,-2.6576,-0.0232,0.0035,-0.0035,-79.6500,42.1500,-19.9500,4.1700,3.6700,-8.0200,-0.0207,0.0044,-0.0065,-25.0625,-32.5000,7.5625,285.6250,25.3125,-156.0000,0
71.367,1.8435,6.0214,-7.6686,-0.0077,0.0168,0.0208,-12.4500,23.7000,-9.0000,9.2057,1.7526,-2.6887,-0.0211,0.0000,-0.0056,-79.6500,42.1500,-19.9500,4.1700,3.6700,-8.0200,-0.0207,0.0044,-0.0065,-25.0625,-32.5000,7.5625,285.6250,25.3125,-156.0000,0
71.373,1.8866,6.0382,-7.6399,-0.0059,0.0218,0.0234,-12.3000,22.8000,-8.8500,9.1818,1.6688,-2.6911,-0.0211,0.0000,-0.0056,-78.9000,42.1500,-20.2500,4.1700,3.6900,-7.9900,-0.0153,0.0044,-0.0055,-25.0625,-31.2500,7.1875,285.6250,25.3125,-156.0000,0
71.378,1.8866,6.0382,-7.6399,-0.0059,0.0218,0.0234,-12.3000,22.8000,-8.8500,9.1818,1.6688,-2.6911,-0.0173,0.0045,0.0048,-78.9000,42.1500,-20.2500,4.1700,3.6900,-7.9900,-0.0153,0.0044,-0.0055,-25.0625,-31.2500,7.1875,285.6250,25.3125,-156.0000,0
71.385,1.9513,6.0214,-7.6567,-0.0128,0.0181,0.0179,-11.8500,24.3000,-9.9000,9.2225,1.6568,-2.6600,-0.0181,0.0035,0.0091,-78.7500,42.4500,-20.1000,4.1600,3.6700,-7.9900,-0.0098,0.0055,-0.0011,-25.0625,-31.2500,7.1875,285.6250,25.3125,-156.0000,0
71.394,1.9178,6.0166,-7.6782,-0.0136,0.0237,0.0115,-13.0500,24.3000,-8.5500,9.2009,1.6712,-2.6049,-0.0248,0.0083,0.0147,-79.3500,42.6000,-22.2000,4.1700,3.6700,-8.0600,-0.0033,0.0055,-0.0022,-25.0625,-31.2500,7.1875,285.6250,25.3125,-156.0000,0
71.404,1.9632,5.9640,-7.6758,-0.0189,0.0258,0.0048,-13.0500,24.3000,-8.5500,9.1889,1.6592,-2.6528,-0.0226,0.0064,0.0181,-79.5000,41.2500,-21.6000,4.1800,3.6400,-8.0000,-0.0011,0.0033,0.0011,-25.0625,-31.2500,7.1875,285.6250,25.3125,-156.0000,0
71.413,1.9968,6.0190,-7.6279,-0.0133,0.0192,0.0072,-10.5000,23.5500,-8.1000,9.1913,1.6496,-2.6336,-0.0272,0.0000,0.0181,-79.5000,41.2500,-21.6000,4.1700,3.6500,-8.0100,0.0022,0.0033,0.0011,-25.0625,-31.2500,7.1875,285.6250,25.3125,-156.0000,0
71.418,1.9968,6.0190,-7.6279,-0.0133,0.0192,0.0072,-10.5000,23.5500,-8.1000,9.1913,1.6496,-2.6336,-0.0272,0.0000,0.0181,-79.5000,41.2500,-21.6000,4.1700,3.6500,-8.0100,0.0022,0.0033,0.0011,-24.6875,-31.6875,7.5625,285.6250,25.3125,-156.0000,0
71.425,1.9824,5.9927,-7.6830,-0.0099,0.0330,0.0032,-11.2500,22.8000,-9.6000,9.2201,1.6664,-2.5953,-0.0296,0.0043,0.0229,-78.7500,42.4500,-21.6000,4.1800,3.6600,-8.0000,0.0044,0.0055,0.0044,-24.6875,-31.6875,7.5625,285.6250,25.3125,-156.0000,0
71.435,2.0207,5.9616,-7.6567,-0.0075,0.0330,0.0072,-11.4000,23.7000,-8.2500,9.1866,1.6281,-2.6504,-0.0250,0.0008,0.0203,-78.7500,42.4500,-21.6000,4.1900,3.6800,-8.0300,0.0065,0.0011,0.0022,-24.6875,-31.6875,7.5625,285.6250,25.3125,-156.0000,0
71.444,1.9704,5.9711,-7.6638,-0.0056,0.0354,-0.0016,-11.4000,24.4500,-9.0000,9.1842,1.6520,-2.6240,-0.0232,-0.0016,0.0213,-78.7500,42.0000,-20.8500,4.1600,3.6500,-8.0500,0.0098,-0.0011,0.0022,-24.6875,-31.6875,7.5625,285.6250,25.3125,-156.0000,0
71.452,2.0518,5.9161,-7.7093,0.0008,0.0360,0.0011,-12.1500,24.1500,-7.9500,9.1866,1.6209,-2.6480,-0.0253,0.0011,0.0237,-79.6500,41.8500,-21.0000,4.1900,3.6300,-8.0200,0.0098,0.0022,0.0055,-24.6875,-31.6875,7.5625,285.6250,25.3125,-156.0000,0
71.457,2.0518,5.9161,-7.7093,0.0008,0.0360,0.0011,-12.1500,24.1500,-7.9500,9.1866,1.6209,-2.6480,-0.0253,0.0011,0.0237,-79.6500,41.8500,-21.0000,4.1900,3.6300,-8.0200,0.0098,0.0022,0.0055,-24.6875,-31.6875,7.5625,285.6250,25.3125,-156.0000,0
71.465,1.9609,5.9041,-7.6902,0.0024,0.0400,-0.0019,-12.1500,24.1500,-7.9500,9.2775,1.6161,-2.6552,-0.0155,0.0029,0.0234,-79.3500,42.1500,-18.0000,4.1800,3.6600,-8.0000,0.0131,0.0011,0.0044,-24.6875,-31.6875,7.5625,285.6250,25.3125,-156.0000,0
71.470,2.0111,5.9256,-7.6758,0.0059,0.0378,-0.0141,-12.1500,24.1500,-7.9500,9.2536,1.5826,-2.6097,-0.0155,0.0029,0.0234,-78.9000,40.6500,-19.9500,4.1800,3.6600,-8.0000,0.0120,0.0011,0.0033,-24.2500,-32.7500,7.5625,285.6250,25.3125,-156.0000,0
71.475,2.0111,5.9256,-7.6758,0.0059,0.0378,-0.0141,-12.3000,22.8000,-9.1500,9.2536,1.5826,-2.6097,-0.0187,-0.0059,0.0226,-78.9000,40.6500,-19.9500,4.1800,3.6500,-8.0200,0.0120,0.0011,0.0033,-24.2500,-32.7500,7.5625,285.6250,25.3125,-156.0000,0
71.485,1.9752,5.8945,-7.6998,0.0091,0.0410,-0.0109,-14.4000,24.0000,-9.1500,9.3134,1.5419,-2.5666,-0.0093,-0.0005,0.0248,-78.9000,40.6500,-19.9500,4.1900,3.6700,-8.0000,0.0131,-0.0011,0.0044,-24.2500,-32.7500,7.5625,285.6250,25.3125,-156.0000,0
71.494,1.9872,5.8347,-7.6758,0.0061,0.0362,-0.0120,-12.1500,22.6500,-8.7000,9.2201,1.5658,-2.6121,-0.0128,-0.0029,0.0205,-78.7500,42.7500,-20.8500,4.1800,3.6400,-8.0300,0.0164,-0.0011,0.0044,-24.2500,-32.7500,7.5625,285.6250,25.3125,-156.0000,0
71.502,2.0399,5.8275,-7.6758,0.0080,0.0386,-0.0083,-11.4000,24.1500,-7.9500,9.2201,1.5443,-2.6408,-0.0091,0.0019,0.0218,-78.7500,42.7500,-20.8500,4.1900,3.6500,-8.0300,0.0153,0.0000,0.0044,-24.2500,-32.7500,7.5625,285.6250,25.3125,-156.0000,0
71.507,2.0423,5.8634,-7.6998,0.0019,0.0384,-0.0107,-11.4000,24.1500,-7.9500,9.2201,1.5443,-2.6408,-0.0091,0.0019,0.0218,-78.7500,42.7500,-20.8500,4.1900,3.6500,-8.0300,0.0153,0.0000,0.0044,-24.2500,-32.7500,7.5625,285.6250,25.3125,-156.0625,0
71.515,2.0423,5.8634,-7.6998,0.0019,0.0384,-0.0107,-11.4000,24.1500,-7.9500,9.2177,1.4700,-2.6504,-0.0133,-0.0061,0.0232,-79.3500,40.9500,-19.9500,4.1800,3.6400,-8.0200,0.0164,0.0011,0.0033,-24.2500,-32.7500,7.5625,285.6250,25.3125,-156.0625,0
71.520,2.0494,5.8826,-7.7189,0.0016,0.0392,-0.0104,-11.4000,24.1500,-7.9500,9.2895,1.5275,-2.6576,-0.0155,-0.0051,0.0218,-79.0500,42.0000,-19.9500,4.1800,3.6400,-8.0200,0.0164,-0.0011,0.0022,-25.5000,-32.0625,8.0000,285.6250,25.3125,-156.0625,0
71.526,2.0494,5.8826,-7.7189,0.0016,0.0392,-0.0104,-12.1500,23.4000,-9.3000,9.2895,1.5275,-2.6576,-0.0155,-0.0051,0.0218,-79.0500,42.0000,-20.1000,4.1900,3.6500,-8.0300,0.0164,-0.0011,0.0022,-25.5000,-32.0625,8.0000,285.6250,25.3125,-156.0625,0
71.535,1.9968,5.8371,-7.7859,-0.0016,0.0397,-0.0109,-12.1500,23.4000,-9.7500,9.2009,1.5323,-2.6719,-0.0226,-0.0024,0.0232,-78.7500,41.5500,-19.0500,4.1900,3.6100,-8.0700,0.0164,0.0000,0.0022,-25.5000,-32.0625,8.0000,285.6250,25.3125,-156.0625,0
71.544,1.9800,5.8251,-7.7357,-0.0032,0.0344,-0.0072,-12.1500,24.1500,-8.2500,9.2536,1.4724,-2.6408,-0.0232,-0.0077,0.0155,-78.9000,42.6000,-19.9500,4.2000,3.6300,-8.0600,0.0120,-0.0022,0.0044,-25.5000,-32.0625,8.0000,285.6250,25.3125,-156.0625,0
71.551,1.9992,5.8419,-7.7644,-0.0059,0.0312,-0.0075,-13.0500,22.8000,-9.1500,9.2153,1.5395,-2.6719,-0.0274,-0.0027,0.0184,-79.0500,42.7500,-20.1000,4.2000,3.6300,-8.0600,0.0120,0.0000,0.0011,-25.5000,-32.0625,8.0000,285.6250,25.3125,-156.0625,0
71.556,2.0063,5.8371,-7.7333,-0.0003,0.0352,0.0005,-13.0500,22.8000,-9.1500,9.2608,1.5419,-2.7198,-0.0274,-0.0027,0.0184,-79.0500,42.7500,-20.1000,4.2000,3.6300,-8.0600,0.0120,0.0000,0.0011,-25.5000,-32.0625,8.0000,285.6250,25.3125,-156.0625,0
71.565,2.0087,5.8275,-7.7668,-0.0061,0.0362,-0.0080,-12.1500,22.9500,-9.3000,9.2608,1.5419,-2.7198,-0.0264,0.0000,0.0149,-79.3500,42.6000,-19.2000,4.1800,3.6300,-8.0300,0.0098,-0.0011,0.0011,-25.5000,-32.0625,8.0000,285.6250,25.3125,-156.0625,0
71.570,2.0087,5.8275,-7.7668,-0.0061,0.0362,-0.0080,-12.1500,22.9500,-9.3000,9.2608,1.5538,-2.7150,-0.0242,-0.0075,0.0157,-79.3500,42.6000,-19.2000,4.1800,3.6300,-8.0300,0.0087,0.0000,0.0000,-25.5000,-32.7500,8.3750,285.6250,25.3125,-156.0625,0
71.576,1.9992,5.8179,-7.7907,-0.0043,0.0352,-0.0003,-12.1500,22.9500,-9.3000,9.2440,1.5586,-2.7246,-0.0242,-0.0075,0.0157,-79.3500,42.6000,-19.2000,4.1700,3.6300,-8.0200,0.0087,0.0000,0.0000,-25.5000,-32.7500,8.3750,285.6250,25.3125,-156.0625,0
71.585,1.9896,5.7844,-7.7740,-0.0032,0.0274,-0.0016,-13.0500,22.8000,-9.9000,9.1794,1.5538,-2.6791,-0.0264,-0.0016,0.0131,-79.5000,40.8000,-20.5500,4.1700,3.6200,-8.0300,0.0065,-0.0022,-0.0011,-25.5000,-32.7500,8.3750,285.6250,25.3125,-156.0625,0
71.593,1.9896,5.7844,-7.7740,-0.0032,0.0274,-0.0016,-12.1500,23.4000,-8.7000,9.1794,1.5538,-2.6791,-0.0184,-0.0008,0.0120,-79.5000,40.8000,-20.5500,4.1800,3.6300,-8.0500,0.0055,-0.0022,-0.0011,-25.5000,-32.7500,8.3750,285.6250,25.3125,-156.0625,0
71.598,2.0901,5.8251,-7.7692,-0.0056,0.0288,0.0011,-12.1500,23.4000,-8.7000,9.2584,1.4988,-2.7342,-0.0195,0.0061,0.0144,-79.5000,40.8000,-20.5500,4.1800,3.6300,-8.0500,0.0055,-0.0022,-0.0011,-25.5000,-32.7500,8.3750,285.6250,25.3125,-156.0625,0
71.605,2.0303,5.8251,-7.7069,-0.0107,0.0373,-0.0037,-12.7500,22.9500,-9.0000,9.2416,1.4724,-2.6743,-0.0203,0.0019,0.0099,-78.0000,42.0000,-19.0500,4.1800,3.6000,-8.0400,0.0033,-0.0022,0.0000,-25.5000,-32.7500,8.3750,285.6250,25.3125,-156.0625,0
71.615,1.9513,5.8658,-7.7045,-0.0120,0.0370,-0.0008,-10.3500,23.4000,-8.2500,9.2368,1.4796,-2.6480,-0.0304,-0.0013,0.0123,-78.4500,40.9500,-19.9500,4.1800,3.6200,-8.0400,0.0033,-0.0011,0.0000,-25.5000,-32.7500,8.3750,285.6250,25.3125,-156.0625,0
71.619,1.9513,5.8658,-7.7045,-0.0120,0.0370,-0.0008,-13.0500,23.2500,-9.6000,9.2368,1.4796,-2.6480,-0.0304,-0.0013,0.0123,-78.4500,40.9500,-19.9500,4.1800,3.6200,-8.0400,0.0011,0.0000,0.0011,-25.0625,-32.0625,8.3750,285.6250,25.3125,-156.0625,0
71.626,2.0135,5.8802,-7.7548,-0.0080,0.0261,0.0021,-13.0500,23.2500,-9.6000,9.2177,1.4676,-2.6312,-0.0229,-0.0088,0.0040,-78.7500,42.4500,-20.5500,4.2000,3.6200,-8.0200,0.0011,0.0000,0.0011,-25.0625,-32.0625,8.3750,285.6250,25.3125,-156.0625,0
71.635,2.0638,5.8730,-7.7476,-0.0109,0.0288,0.0045,-13.0500,23.2500,-9.6000,9.2201,1.4916,-2.6217,-0.0312,-0.0005,0.0099,-78.4500,41.8500,-20.2500,4.1800,3.6100,-8.0400,0.0000,-0.0011,-0.0011,-25.0625,-32.0625,8.3750,285.6250,25.3125,-156.0625,0
71.644,2.0207,5.8802,-7.7021,-0.0109,0.0272,0.0056,-11.4000,22.9500,-9.7500,9.2177,1.5083,-2.6767,-0.0285,-0.0056,0.0075,-78.4500,41.8500,-20.2500,4.1800,3.6200,-8.0200,-0.0022,-0.0011,-0.0022,-25.0625,-32.0625,8.3750,285.6250,25.3125,-156.0625,0
71.651,2.0207,5.8802,-7.7021,-0.0109,0.0272,0.0056,-11.2500,24.0000,-8.8500,9.2177,1.5083,-2.6767,-0.0285,-0.0056,0.0075,-78.3000,41.8500,-20.2500,4.1800,3.6300,-8.0500,-0.0033,-0.0033,-0.0022,-25.0625,-32.0625,8.3750,285.6250,25.3125,-156.0625,0
71.656,2.0614,5.8730,-7.7692,-0.0019,0.0336,0.0045,-11.2500,24.0000,-8.8500,9.2057,1.5299,-2.6169,-0.0304,-0.0035,0.0024,-78.3000,42.0000,-19.3500,4.1800,3.6300,-8.0500,-0.0033,-0.0033,-0.0022,-25.0625,-32.0625,8.3750,285.6250,25.3125,-156.0625,0
71.665,1.9896,5.8179,-7.7069,-0.0032,0.0336,0.0013,-11.7000,23.4000,-9.0000,9.2608,1.5323,-2.6935,-0.0293,-0.0032,0.0048,-78.3000,42.0000,-19.3500,4.1800,3.6300,-8.0200,-0.0044,-0.0011,0.0000,-25.0625,-32.0625,8.3750,285.6250,25.3125,-156.0625,0
71.670,1.9896,5.8179,-7.7069,-0.0032,0.0336,0.0013,-12.4500,23.4000,-6.9000,9.2608,1.5323,-2.6935,-0.0293,-0.0032,0.0048,-78.3000,42.0000,-19.3500,4.1800,3.6300,-8.0200,-0.0076,-0.0011,-0.0044,-25.7500,-32.5000,8.7500,285.6250,25.3125,-156.0625,0
71.676,2.0039,5.8634,-7.7381,-0.0064,0.0309,0.0051,-12.4500,23.4000,-6.9000,9.1889,1.5514,-2.6600,-0.0282,-0.0091,0.0099,-78.4500,42.6000,-20.7000,4.1900,3.6200,-8.0300,-0.0076,-0.0011,-0.0044,-25.7500,-32.5000,8.7500,285.6250,25.3125,-156.0625,0
71.685,2.0327,5.8706,-7.7428,-0.0045,0.0277,0.0032,-12.4500,23.4000,-6.9000,9.2656,1.5490,-2.6528,-0.0229,-0.0056,0.0077,-78.7500,41.2500,-19.8000,4.1800,3.6200,-8.0200,-0.0044,-0.0022,-0.0044,-25.7500,-32.5000,8.7500,285.6250,25.3125,-156.0625,0
71.694,2.0638,5.8227,-7.7357,-0.0072,0.0301,0.0051,-11.7000,22.9500,-8.7000,9.2273,1.5754,-2.6240,-0.0290,-0.0040,0.0043,-79.0500,41.5500,-19.8000,4.1600,3.6400,-8.0700,-0.0065,-0.0011,-0.0033,-25.7500,-32.5000,8.7500,285.6250,25.3125,-156.0625,0
71.699,2.0638,5.8227,-7.7357,-0.0072,0.0301,0.0051,-11.4000,23.4000,-10.0500,9.2273,1.5754,-2.6240,-0.0290,-0.0040,0.0043,-79.0500,41.5500,-19.8000,4.1600,3.6400,-8.0700,-0.0055,-0.0011,-0.0033,-25.7500,-32.5000,8.7500,285.6250,25.3125,-156.0625,0
71.706,1.9992,5.8802,-7.7405,-0.0149,0.0229,0.0016,-11.4000,23.4000,-10.0500,9.2584,1.5443,-2.6767,-0.0285,-0.0029,0.0035,-80.1000,41.8500,-19.9500,4.1900,3.6400,-8.0200,-0.0055,-0.0011,-0.0033,-25.7500,-32.5000,8.7500,285.6250,25.3125,-156.0625,0
71.715,1.9896,5.8969,-7.7524,-0.0141,0.0282,0.0040,-11.5500,24.7500,-8.1000,9.2033,1.5155,-2.6983,-0.0304,-0.0064,0.0072,-79.5000,40.8000,-21.6000,4.1600,3.6300,-8.0000,-0.0055,-0.0011,-0.0033,-25.7500,-32.5000,8.7500,285.6250,25.3125,-156.0625,0
71.720,1.9752,5.9089,-7.7189,-0.0216,0.0344,-0.0008,-11.5500,23.5500,-9.9000,9.2153,1.5514,-2.7102,-0.0304,-0.0029,0.0013,-79.5000,40.8000,-21.6000,4.1600,3.6300,-8.0000,-0.0044,0.0000,-0.0044,-25.0625,-32.7500,7.1875,285.6250,25.3125,-156.0625,0
71.726,1.9752,5.9089,-7.7189,-0.0216,0.0344,-0.0008,-11.5500,23.5500,-9.9000,9.2153,1.5514,-2.7102,-0.0304,-0.0029,0.0013,-79.8000,42.0000,-20.8500,4.2000,3.6400,-8.0300,-0.0044,0.0000,-0.0044,-25.0625,-32.7500,7.1875,285.6250,25.3125,-156.0625,0
71.735,1.9680,5.9304,-7.6758,-0.0168,0.0301,0.0016,-11.8500,23.2500,-8.1000,9.2632,1.5467,-2.6935,-0.0328,-0.0072,0.0077,-79.8000,42.0000,-20.8500,4.1800,3.6400,-8.0400,-0.0055,-0.0011,-0.0033,-25.0625,-32.7500,7.1875,285.6250,25.3125,-156.0625,0
71.745,1.9513,5.9113,-7.6591,-0.0213,0.0285,0.0053,-11.8500,23.2500,-8.1000,9.2057,1.5514,-2.6863,-0.0357,0.0000,0.0043,-79.3500,42.1500,-21.0000,4.1800,3.6400,-8.0200,-0.0065,-0.0033,-0.0044,-25.0625,-32.7500,7.1875,285.6250,25.3125,-156.0625,0
71.752,1.9680,5.9017,-7.6638,-0.0208,0.0360,0.0024,-11.7000,24.1500,-9.3000,9.1866,1.5754,-2.7198,-0.0381,-0.0064,0.0056,-79.3500,42.1500,-21.0000,4.1800,3.6400,-8.0100,-0.0044,-0.0033,-0.0044,-25.0625,-32.7500,7.1875,285.6250,25.3125,-156.0625,0
71.757,1.9680,5.9017,-7.6638,-0.0208,0.0360,0.0024,-11.8500,25.0500,-8.1000,9.1866,1.5754,-2.7198,-0.0381,-0.0064,0.0056,-78.4500,41.8500,-20.2500,4.1800,3.6400,-8.0100,-0.0044,-0.0033,-0.0044,-25.0625,-32.7500,7.1875,285.6250,25.3125,-156.0625,0
71.765,1.9704,5.9496,-7.6974,-0.0195,0.0274,0.0005,-11.8500,25.0500,-8.1000,9.2344,1.5850,-2.7078,-0.0325,-0.0021,0.0048,-78.4500,41.8500,-20.7000,4.1700,3.6600,-8.0200,-0.0065,0.0000,-0.0033,-25.0625,-32.7500,7.1875,285.6250,25.3125,-156.0625,0
71.770,1.9848,5.9161,-7.7093,-0.0157,0.0274,0.0000,-11.8500,23.2500,-8.8500,9.2081,1.5227,-2.6911,-0.0392,-0.0005,0.0029,-78.4500,41.8500,-20.7000,4.1700,3.6600,-8.0200,-0.0044,-0.0011,-0.0011,-25.0625,-32.7500,8.7500,285.6250,25.3125,-156.0625,0
71.776,1.9848,5.9161,-7.7093,-0.0157,0.0274,0.0000,-11.7000,23.4000,-9.0000,9.2081,1.5227,-2.6911,-0.0392,-0.0005,0.0029,-79.6500,42.1500,-21.4500,4.1800,3.6400,-8.0300,-0.0044,-0.0011,-0.0011,-25.0625,-32.7500,8.7500,285.6250,25.3125,-156.0625,0
71.785,1.9992,5.9520,-7.7213,-0.0083,0.0296,0.0043,-11.7000,23.4000,-9.0000,9.2296,1.5706,-2.7533,-0.0338,0.0037,0.0077,-79.5000,40.5000,-20.8500,4.1700,3.6200,-8.0100,-0.0055,-0.0011,-0.0033,-25.0625,-32.7500,8.7500,285.6250,25.3125,-156.0625,0
71.794,1.9034,5.9113,-7.6926,-0.0136,0.0328,-0.0037,-11.7000,24.1500,-10.5000,9.1937,1.5921,-2.6576,-0.0320,0.0035,0.0059,-77.5500,42.4500,-20.5500,4.1900,3.6600,-8.0500,-0.0044,0.0022,-0.0011,-25.0625,-32.7500,8.7500,285.6250,25.3125,-156.0625,0
71.799,1.9513,5.9161,-7.7357,-0.0091,0.0298,0.0019,-11.7000,24.1500,-10.5000,9.2249,1.5874,-2.7102,-0.0354,0.0016,0.0080,-77.5500,42.4500,-20.5500,4.1900,3.6600,-8.0500,-0.0044,0.0022,-0.0011,-25.0625,-32.7500,8.7500,285.6250,25.3125,-156.0625,0
71.806,1.9513,5.9161,-7.7357,-0.0091,0.0298,0.0019,-12.6000,22.8000,-9.9000,9.2488,1.5921,-2.7485,-0.0354,0.0016,0.0080,-77.5500,42.4500,-20.5500,4.1600,3.6400,-8.0200,-0.0044,0.0000,0.0000,-25.0625,-32.7500,8.7500,285.6250,25.3125,-156.0625,0
71.815,1.9680,5.9328,-7.7309,-0.0091,0.0253,0.0040,-12.3000,22.8000,-9.1500,9.2512,1.5874,-2.6504,-0.0282,0.0035,0.0125,-78.9000,41.8500,-20.2500,4.1800,3.6500,-8.0000,-0.0044,0.0011,0.0000,-25.0625,-32.7500,8.7500,285.6250,25.3125,-156.0625,0
71.820,1.9992,5.9448,-7.6926,-0.0131,0.0290,0.0011,-12.3000,22.8000,-9.1500,9.2512,1.5874,-2.6504,-0.0285,0.0053,0.0120,-78.9000,41.8500,-20.2500,4.1800,3.6500,-8.0000,-0.0011,-0.0011,-0.0022,-25.7500,-32.5000,7.5625,285.6250,25.3125,-156.0625,0
71.826,1.9896,5.9927,-7.6878,-0.0163,0.0306,0.0045,-11.2500,24.0000,-7.8000,9.2033,1.5658,-2.6647,-0.0269,0.0011,0.0088,-78.9000,41.8500,-20.2500,4.1800,3.6600,-8.0200,-0.0011,-0.0011,-0.0022,-25.7500,-32.5000,7.5625,285.6250,25.3125,-156.0625,0
71.835,1.9896,5.9927,-7.6878,-0.0163,0.0306,0.0045,-11.2500,23.5500,-7.8000,9.2440,1.5993,-2.7007,-0.0269,0.0011,0.0088,-79.5000,42.0000,-19.0500,4.1700,3.6400,-8.0000,-0.0011,0.0011,-0.0011,-25.7500,-32.5000,7.5625,285.6250,25.3125,-156.0625,0
71.845,1.9944,5.8802,-7.7069,-0.0104,0.0304,0.0003,-11.2500,23.5500,-7.8000,9.2416,1.5754,-2.6384,-0.0256,0.0096,0.0096,-80.4000,42.6000,-19.9500,4.1700,3.6300,-8.0300,-0.0011,0.0022,0.0011,-25.7500,-32.5000,7.5625,285.6250,25.3125,-156.0625,0
71.851,1.8938,5.9041,-7.7117,-0.0131,0.0338,0.0011,-11.2500,23.5500,-7.8000,9.2416,1.5754,-2.6384,-0.0250,0.0080,0.0139,-80.4000,42.6000,-19.9500,4.1700,3.6300,-8.0300,0.0011,0.0011,0.0011,-25.7500,-32.5000,7.5625,285.6250,25.3125,-156.0625,0
71.856,1.9632,5.9400,-7.7141,-0.0152,0.0288,-0.0005,-12.1500,23.7000,-9.0000,9.2464,1.5802,-2.6552,-0.0245,0.0072,0.0099,-80.4000,42.1500,-19.2000,4.1600,3.6500,-8.0200,0.0011,0.0011,0.0011,-25.7500,-32.5000,7.5625,285.6250,25.3125,-156.0625,0
71.865,2.0063,5.9304,-7.7165,-0.0115,0.0298,0.0000,-10.9500,22.2000,-8.7000,9.2320,1.6424,-2.6839,-0.0211,0.0027,0.0109,-78.3000,42.0000,-19.8000,4.1600,3.6400,-8.0300,0.0022,0.0011,0.0011,-25.7500,-32.5000,7.5625,285.6250,25.3125,-156.0625,0
71.870,2.0063,5.9304,-7.7165,-0.0115,0.0298,0.0000,-10.9500,22.2000,-8.7000,9.2320,1.6424,-2.6839,-0.0211,0.0027,0.0109,-78.3000,42.0000,-19.8000,4.1600,3.6400,-8.0300,0.0022,0.0011,0.0000,-25.5000,-32.7500,8.3750,285.6250,25.3125,-156.0625,0
71.876,2.0638,5.9113,-7.6902,-0.0091,0.0285,-0.0016,-11.8500,22.5000,-9.1500,9.2584,1.6041,-2.6360,-0.0234,0.0045,0.0125,-79.5000,42.0000,-20.1000,4.1800,3.6300,-8.0400,0.0022,0.0011,0.0000,-25.5000,-32.7500,8.3750,285.6250,25.3125,-156.0625,0
71.885,1.9537,5.8897,-7.6375,-0.0045,0.0317,-0.0040,-12.3000,22.0500,-8.8500,9.1985,1.5658,-2.6719,-0.0224,0.0040,0.0149,-79.0500,40.8000,-20.1000,4.1700,3.6300,-8.0300,0.0011,0.0022,0.0011,-25.5000,-32.7500,8.3750,285.6250,25.3125,-156.0625,0
71.894,2.0183,5.9927,-7.6782,-0.0059,0.0312,0.0021,-11.4000,22.2000,-8.7000,9.2488,1.5850,-2.6600,-0.0274,0.0027,0.0155,-79.0500,40.8000,-20.1000,4.1700,3.6600,-8.0100,0.0022,0.0022,0.0011,-25.5000,-32.7500,8.3750,285.6250,25.3125,-156.0625,0
71.899,2.0183,5.9927,-7.6782,-0.0059,0.0312,0.0021,-11.4000,22.2000,-8.7000,9.2488,1.5850,-2.6600,-0.0274,0.0027,0.0155,-79.0500,40.8000,-20.1000,4.1700,3.6600,-8.0100,0.0022,0.0022,0.0011,-25.5000,-32.7500,8.3750,285.6250,25.3125,-156.0625,0
71.906,2.0470,5.8778,-7.6974,-0.0040,0.0309,-0.0005,-11.4000,22.2000,-8.7000,9.2488,1.5634,-2.6408,-0.0250,-0.0016,0.0104,-78.9000,40.9500,-20.2500,4.1800,3.6400,-8.0200,0.0000,0.0000,0.0022,-25.5000,-32.7500,8.3750,285.6250,25.3125,-156.0625,0
71.915,2.0063,5.8945,-7.7668,-0.0091,0.0365,-0.0053,-11.8500,21.7500,-8.8500,9.2344,1.5993,-2.6480,-0.0277,-0.0011,0.0171,-78.7500,41.2500,-20.5500,4.1900,3.6400,-8.0200,0.0044,0.0022,-0.0011,-25.5000,-32.7500,8.3750,285.6250,25.3125,-156.0625,0
71.920,2.0063,5.8945,-7.7668,-0.0091,0.0365,-0.0053,-11.8500,21.7500,-8.8500,9.2344,1.5993,-2.6480,-0.0277,-0.0011,0.0171,-78.7500,41.2500,-20.5500,4.1900,3.6400,-8.0200,0.0044,-0.0011,0.0011,-24.2500,-32.7500,7.5625,285.6250,25.3125,-156.0625,0
71.926,1.9824,5.9304,-7.7333,-0.0061,0.0322,-0.0029,-12.1500,22.9500,-9.7500,9.2775,1.5826,-2.6360,-0.0221,-0.0048,0.0197,-79.5000,42.4500,-19.3500,4.1800,3.6400,-8.0200,0.0044,-0.0011,0.0011,-24.2500,-32.7500,7.5625,285.6250,25.3125,-156.0625,0
71.935,2.0638,5.9113,-7.7189,-0.0048,0.0373,-0.0040,-11.4000,22.6500,-9.0000,9.2464,1.5275,-2.6169,-0.0336,-0.0008,0.0139,-78.1500,41.8500,-20.2500,4.1900,3.6200,-8.0500,0.0033,0.0000,0.0033,-24.2500,-32.7500,7.5625,285.6250,25.3125,-156.0625,0
71.943,2.0255,5.9424,-7.6854,-0.0037,0.0328,-0.0021,-12.7500,23.4000,-10.5000,9.2680,1.5490,-2.6504,-0.0272,-0.0027,0.0197,-78.1500,41.8500,-20.2500,4.1900,3.6200,-8.0300,0.0044,0.0011,0.0000,-24.2500,-32.7500,7.5625,285.6250,25.3125,-156.0625,0
71.948,2.0255,5.9424,-7.6854,-0.0037,0.0328,-0.0021,-12.7500,23.4000,-10.5000,9.2680,1.5490,-2.6504,-0.0272,-0.0027,0.0197,-78.4500,43.0500,-19.9500,4.1900,3.6200,-8.0300,0.0044,0.0011,0.0000,-24.2500,-32.7500,7.5625,285.6250,25.3125,-156.0625,0
71.956,2.0399,5.8897,-7.7285,-0.0048,0.0309,-0.0003,-12.7500,23.4000,-10.5000,9.2368,1.5826,-2.6408,-0.0288,-0.0043,0.0133,-79.8000,42.4500,-19.8000,4.1800,3.6200,-8.0500,0.0044,0.0033,0.0022,-24.2500,-32.7500,7.5625,285.6250,25.3125,-156.0625,0
71.966,2.0566,5.8873,-7.7285,0.0000,0.0328,-0.0021,-12.7500,23.4000,-10.5000,9.2296,1.5610,-2.6384,-0.0237,-0.0024,0.0187,-79.8000,42.4500,-19.8000,4.1800,3.6300,-8.0200,0.0022,0.0022,0.0011,-24.2500,-32.7500,7.5625,285.6250,25.3125,-156.0625,0
71.971,2.0566,5.8873,-7.7285,0.0000,0.0328,-0.0021,-12.7500,23.4000,-10.5000,9.2033,1.5538,-2.6217,-0.0211,-0.0032,0.0203,-79.8000,42.4500,-19.8000,4.1800,3.6300,-8.0200,0.0033,-0.0033,0.0000,-25.0625,-32.0625,8.3750,285.6250,25.3125,-156.0625,0
71.976,2.0806,5.9041,-7.7069,0.0043,0.0298,0.0024,-13.0500,22.0500,-8.5500,9.2033,1.5538,-2.6217,-0.0211,-0.0032,0.0203,-79.5000,42.7500,-20.8500,4.1900,3.6200,-8.0300,0.0033,-0.0033,0.0000,-25.0625,-32.0625,8.3750,285.6250,25.3125,-156.0625,0
71.986,1.9944,5.8730,-7.7405,-0.0019,0.0341,-0.0011,-11.8500,22.8000,-8.8500,9.2727,1.5850,-2.6528,-0.0211,0.0000,0.0128,-79.5000,42.7500,-20.8500,4.1700,3.6200,-8.0500,0.0033,-0.0011,0.0011,-25.0625,-32.0625,8.3750,285.6250,25.3125,-156.0625,0
71.994,2.0135,5.9352,-7.7644,-0.0024,0.0354,0.0000,-13.0500,23.5500,-9.6000,9.2656,1.4940,-2.7150,-0.0197,-0.0064,0.0136,-79.0500,40.8000,-20.5500,4.1700,3.6300,-8.0200,0.0033,0.0000,-0.0011,-25.0625,-32.0625,8.3750,285.6250,25.3125,-156.0625,0
71.999,2.0135,5.9352,-7.7644,-0.0024,0.0354,0.0000,-13.0500,23.5500,-9.6000,9.2392,1.5395,-2.6671,-0.0245,-0.0013,0.0109,-79.0500,40.8000,-20.5500,4.1700,3.6300,-8.0200,0.0033,0.0000,-0.0011,-25.0625,-32.0625,8.3750,285.6250,25.3125,-156.0625,0
72.006,2.0087,5.8658,-7.7452,-0.0008,0.0354,-0.0016,-11.7000,23.4000,-8.7000,9.2392,1.5395,-2.6671,-0.0245,-0.0013,0.0109,-79.0500,42.0000,-20.1000,4.1800,3.6200,-8.0200,0.0000,0.0000,0.0000,-25.0625,-32.0625,8.3750,285.6250,25.3125,-156.0625,0
72.016,1.9752,5.8730,-7.7165,0.0003,0.0354,-0.0048,-11.7000,23.4000,-8.7000,9.2344,1.5251,-2.6647,-0.0261,-0.0048,0.0123,-78.7500,42.0000,-19.0500,4.1900,3.6100,-8.0300,0.0011,0.0011,0.0000,-25.0625,-32.0625,8.3750,285.6250,25.3125,-156.0625,0
72.021,1.9896,5.7964,-7.6902,-0.0131,0.0328,-0.0013,-11.7000,23.4000,-8.7000,9.2512,1.5490,-2.6935,-0.0258,-0.0040,0.0061,-78.7500,42.0000,-19.0500,4.1900,3.6100,-8.0300,0.0022,0.0000,0.0000,-25.0625,-32.7500,8.3750,285.6250,25.3125,-156.0625,0
72.026,1.9896,5.7964,-7.6902,-0.0131,0.0328,-0.0013,-11.4000,22.9500,-8.2500,9.2560,1.5730,-2.7438,-0.0258,-0.0040,0.0061,-78.9000,41.8500,-19.5000,4.1700,3.6200,-8.0200,0.0022,0.0000,0.0000,-25.0625,-32.7500,8.3750,285.6250,25.3125,-156.0625,0
72.036,2.0327,5.9113,-7.7668,-0.0099,0.0352,-0.0024,-10.9500,22.9500,-8.2500,9.2560,1.5730,-2.7438,-0.0237,-0.0003,0.0107,-78.9000,41.8500,-19.5000,4.1900,3.6300,-8.0300,0.0033,-0.0044,-0.0022,-25.0625,-32.7500,8.3750,285.6250,25.3125,-156.0625,0
72.045,2.0087,5.8538,-7.7979,-0.0171,0.0245,0.0016,-11.4000,23.4000,-9.3000,9.2584,1.5347,-2.7007,-0.0272,-0.0029,0.0091,-79.5000,41.2500,-20.8500,4.1900,3.6200,-8.0400,0.0011,0.0000,-0.0022,-25.0625,-32.7500,8.3750,285.6250,25.3125,-156.0625,0
72.050,1.9680,5.9017,-7.7716,-0.0131,0.0266,0.0019,-11.4000,23.4000,-9.3000,9.2201,1.5107,-2.6791,-0.0288,-0.0032,0.0096,-79.5000,41.2500,-20.8500,4.1900,3.6200,-8.0400,0.0011,-0.0044,-0.0033,-25.0625,-32.7500,8.3750,285.6250,25.3125,-156.0625,0
72.056,1.9680,5.9017,-7.7716,-0.0131,0.0266,0.0019,-12.7500,24.1500,-9.7500,9.2201,1.5131,-2.6839,-0.0288,-0.0032,0.0096,-79.5000,41.2500,-20.8500,4.1900,3.6300,-8.0300,0.0011,-0.0044,-0.0033,-25.0625,-32.7500,8.3750,285.6250,25.3125,-156.0625,0
72.066,1.9513,5.9089,-7.7812,-0.0099,0.0253,0.0024,-12.4500,22.9500,-7.9500,9.2392,1.5371,-2.7174,-0.0325,-0.0043,0.0075,-78.4500,41.4000,-21.0000,4.1700,3.6500,-8.0400,-0.0033,-0.0033,-0.0011,-25.0625,-32.7500,8.3750,285.6250,25.3125,-156.0625,0
72.071,1.9968,5.8802,-7.7883,-0.0109,0.0293,0.0024,-12.4500,22.9500,-7.9500,9.2392,1.5371,-2.7174,-0.0290,-0.0013,0.0117,-78.4500,41.4000,-21.0000,4.1700,3.6500,-8.0400,-0.0044,-0.0022,-0.0011,-24.6875,-32.5000,7.5625,285.6250,25.3125,-156.0625,0
72.077,1.9968,5.8802,-7.7883,-0.0109,0.0293,0.0024,-12.4500,22.9500,-7.9500,9.2512,1.5538,-2.7031,-0.0309,0.0005,0.0045,-78.1500,43.0500,-19.9500,4.1800,3.6300,-8.0200,-0.0044,-0.0022,-0.0011,-24.6875,-32.5000,7.5625,285.6250,25.3125,-156.0625,0
72.086,1.9872,5.8514,-7.7788,-0.0083,0.0282,0.0035,-11.4000,22.9500,-8.7000,9.2368,1.5131,-2.6767,-0.0258,0.0024,0.0027,-78.1500,41.4000,-19.9500,4.1700,3.6300,-8.0200,-0.0022,-0.0022,-0.0033,-24.6875,-32.5000,7.5625,285.6250,25.3125,-156.0625,0
72.095,2.0183,5.8371,-7.6758,-0.0147,0.0304,0.0083,-13.0500,24.7500,-9.1500,9.2129,1.5706,-2.6959,-0.0280,0.0032,0.0061,-78.1500,41.4000,-19.9500,4.1600,3.6300,-8.0300,-0.0065,0.0000,-0.0022,-24.6875,-32.5000,7.5625,285.6250,25.3125,-156.0625,0
72.103,1.9537,5.8323,-7.7500,-0.0144,0.0256,0.0056,-10.6500,22.9500,-8.7000,9.2129,1.5706,-2.6959,-0.0280,0.0032,0.0061,-78.7500,43.5000,-20.5500,4.1700,3.6300,-8.0200,-0.0076,-0.0022,-0.0011,-24.6875,-32.5000,7.5625,285.6250,25.3125,-156.0625,0
72.108,1.9776,5.8706,-7.7261,-0.0197,0.0248,0.0040,-10.6500,22.9500,-8.7000,9.2033,1.5610,-2.6671,-0.0298,0.0056,0.0043,-79.5000,41.5500,-20.1000,4.1700,3.6300,-8.0200,-0.0076,-0.0022,-0.0011,-24.6875,-32.5000,7.5625,285.6250,25.3125,-156.0625,0
72.116,2.0279,5.8490,-7.6950,-0.0149,0.0288,0.0027,-10.3500,23.4000,-8.7000,9.2249,1.5993,-2.6121,-0.0290,-0.0027,0.0043,-79.5000,41.2500,-21.1500,4.1800,3.6500,-8.0400,-0.0076,0.0011,-0.0033,-24.6875,-32.5000,7.5625,285.6250,25.3125,-156.0625,0
72.121,2.0279,5.8490,-7.6950,-0.0149,0.0288,0.0027,-10.3500,23.4000,-8.7000,9.2249,1.5993,-2.6121,-0.0290,-0.0027,0.0043,-79.5000,41.2500,-21.1500,4.1800,3.6500,-8.0400,-0.0065,0.0022,0.0000,-25.7500,-32.0625,8.0000,285.6250,25.3125,-156.0625,0
72.127,2.0231,5.8969,-7.7285,-0.0165,0.0269,0.0093,-10.3500,23.4000,-8.7000,9.1889,1.5706,-2.6695,-0.0322,0.0069,0.0027,-79.5000,41.2500,-21.1500,4.1800,3.6300,-8.0200,-0.0065,0.0022,0.0000,-25.7500,-32.0625,8.0000,285.6250,25.3125,-156.0625,0
72.136,1.9968,5.9137,-7.6926,-0.0144,0.0354,0.0035,-10.3500,23.4000,-8.7000,9.2177,1.5275,-2.6528,-0.0330,0.0037,0.0037,-77.4000,42.1500,-19.2000,4.1700,3.6300,-8.0400,-0.0065,0.0022,0.0000,-25.7500,-32.0625,8.0000,285.6250,25.3125,-156.0625,0
72.146,2.0399,5.9233,-7.6854,-0.0152,0.0322,0.0024,-12.6000,24.3000,-9.6000,9.2703,1.5730,-2.6360,-0.0304,0.0032,0.0059,-77.4000,42.1500,-19.2000,4.1600,3.6400,-8.0300,-0.0055,0.0044,-0.0011,-25.7500,-32.0625,8.0000,285.6250,25.3125,-156.0625,0
72.153,2.0399,5.9233,-7.6854,-0.0152,0.0322,0.0024,-11.5500,22.8000,-8.5500,9.2608,1.5945,-2.6456,-0.0322,0.0008,0.0035,-77.4000,42.1500,-19.2000,4.1800,3.6300,-8.0300,-0.0076,0.0033,-0.0011,-25.7500,-32.0625,8.0000,285.6250,25.3125,-156.0625,0
72.157,2.0063,5.9448,-7.6710,-0.0157,0.0288,0.0029,-11.5500,22.8000,-8.5500,9.2608,1.5945,-2.6456,-0.0322,0.0008,0.0035,-79.0500,43.2000,-21.6000,4.1800,3.6300,-8.0300,-0.0076,0.0033,-0.0011,-25.7500,-32.0625,8.0000,285.6250,25.3125,-156.0625,0
72.166,2.0542,5.9185,-7.6471,-0.0120,0.0261,0.0053,-10.9500,23.4000,-9.0000,9.2895,1.6185,-2.6193,-0.0320,0.0000,0.0035,-78.3000,43.2000,-21.6000,4.1800,3.6500,-8.0300,-0.0055,0.0011,-0.0022,-25.7500,-32.0625,8.0000,285.6250,25.3125,-156.0625,0
72.171,2.0542,5.9185,-7.6471,-0.0120,0.0261,0.0053,-12.3000,23.2500,-9.6000,9.2488,1.5874,-2.6935,-0.0320,0.0000,0.0035,-78.3000,42.4500,-20.1000,4.1800,3.6500,-8.0300,-0.0044,0.0033,-0.0033,-25.0625,-32.7500,7.5625,285.6250,25.3125,-156.0625,0
72.177,2.0303,5.9903,-7.7405,-0.0096,0.0261,0.0035,-12.3000,23.2500,-9.6000,9.2488,1.5874,-2.6935,-0.0264,0.0056,0.0083,-78.0000,40.8000,-20.5500,4.1800,3.6300,-8.0200,-0.0044,0.0033,-0.0033,-25.0625,-32.7500,7.5625,285.6250,25.3125,-156.0625,0
72.186,1.9896,5.9951,-7.6830,-0.0085,0.0253,0.0024,-12.3000,23.2500,-9.6000,9.2009,1.6065,-2.6240,-0.0285,-0.0035,0.0053,-78.0000,40.8000,-20.5500,4.1900,3.6500,-8.0100,-0.0022,0.0011,-0.0033,-25.0625,-32.7500,7.5625,285.6250,25.3125,-156.0625,0
72.195,1.9872,5.9472,-7.6902,-0.0059,0.0309,0.0048,-11.8500,23.2500,-8.1000,9.2656,1.6209,-2.6384,-0.0285,-0.0059,0.0115,-78.7500,41.5500,-19.8000,4.1800,3.6500,-8.0200,-0.0033,0.0000,-0.0022,-25.0625,-32.7500,7.5625,285.6250,25.3125,-156.0625,0
72.200,1.9872,5.9472,-7.6902,-0.0059,0.0309,0.0048,-12.3000,24.3000,-8.1000,9.2177,1.6017,-2.6839,-0.0285,-0.0059,0.0115,-78.7500,41.5500,-19.8000,4.1800,3.6500,-8.0200,-0.0022,0.0011,-0.0011,-25.0625,-32.7500,7.5625,285.6250,25.3125,-156.0625,0
72.206,1.9896,5.9687,-7.7117,-0.0053,0.0250,-0.0013,-12.3000,24.3000,-8.1000,9.2177,1.6017,-2.6839,-0.0266,0.0008,0.0083,-78.7500,41.5500,-19.8000,4.1900,3.6400,-8.0400,-0.0022,0.0011,-0.0011,-25.0625,-32.7500,7.5625,285.6250,25.3125,-156.0625,0
72.216,2.0279,5.9448,-7.7476,-0.0072,0.0261,0.0021,-11.7000,24.1500,-10.0500,9.1818,1.6161,-2.6121,-0.0250,0.0021,0.0115,-78.1500,42.6000,-18.7500,4.1600,3.6500,-8.0300,-0.0011,0.0022,0.0000,-25.0625,-32.7500,7.5625,285.6250,25.3125,-156.0625,0
72.221,2.0279,5.9448,-7.7476,-0.0072,0.0261,0.0021,-13.2000,23.4000,-8.7000,9.2057,1.5754,-2.6839,-0.0256,-0.0008,0.0091,-78.1500,42.6000,-18.7500,4.1600,3.6500,-8.0300,0.0022,0.0000,-0.0011,-24.6875,-31.6875,7.5625,285.6250,25.3125,-156.0625,0
72.227,2.0279,5.9520,-7.7237,-0.0045,0.0317,-0.0016,-13.2000,23.4000,-8.7000,9.2057,1.5754,-2.6839,-0.0256,-0.0008,0.0091,-78.3000,42.6000,-18.7500,4.1900,3.6600,-8.0100,0.0022,0.0000,-0.0011,-24.6875,-31.6875,7.5625,285.6250,25.3125,-156.0625,0
72.236,1.9632,5.8873,-7.6950,0.0011,0.0317,0.0005,-12.7500,22.9500,-8.7000,9.2225,1.5874,-2.6552,-0.0221,-0.0011,0.0155,-78.3000,43.9500,-20.5500,4.1900,3.6500,-8.0300,0.0033,-0.0011,-0.0022,-24.6875,-31.6875,7.5625,285.6250,25.3125,-156.0625,0
72.245,2.0351,5.8921,-7.7189,-0.0085,0.0322,-0.0021,-12.7500,22.9500,-8.7000,9.2033,1.5802,-2.6360,-0.0264,0.0027,0.0120,-79.0500,42.0000,-20.5500,4.1700,3.6400,-8.0300,0.0011,0.0033,0.0000,-24.6875,-31.6875,7.5625,285.6250,25.3125,-156.0625,0
72.250,2.0351,5.8921,-7.7189,-0.0085,0.0322,-0.0021,-12.4500,23.7000,-10.5000,9.2320,1.5538,-2.6384,-0.0285,-0.0024,0.0131,-79.5000,42.7500,-20.1000,4.1700,3.6400,-8.0300,0.0011,0.0033,0.0000,-24.6875,-31.6875,7.5625,285.6250,25.3125,-156.0625,0
72.257,1.9058,5.8490,-7.7500,-0.0075,0.0344,-0.0021,-12.4500,23.7000,-10.5000,9.2320,1.5538,-2.6384,-0.0285,-0.0024,0.0131,-79.5000,42.7500,-20.1000,4.1800,3.6400,-8.0700,0.0044,0.0022,0.0000,-24.6875,-31.6875,7.5625,285.6250,25.3125,-156.0625,0
72.266,2.0159,5.8419,-7.7428,-0.0072,0.0306,-0.0027,-12.3000,22.8000,-9.1500,9.2680,1.5850,-2.6839,-0.0266,-0.0003,0.0149,-77.5500,42.0000,-19.0500,4.1900,3.6300,-8.0300,0.0055,-0.0022,0.0000,-24.6875,-31.6875,7.5625,285.6250,25.3125,-156.0625,0
72.271,2.0016,5.8538,-7.7548,-0.0109,0.0298,-0.0005,-12.3000,23.2500,-7.8000,9.2536,1.4748,-2.6887,-0.0290,-0.0045,0.0083,-79.6500,42.1500,-20.7000,4.1900,3.6300,-8.0300,0.0044,-0.0011,-0.0011,-25.5000,-32.5000,7.5625,285.6250,25.3125,-156.0625,0
72.277,2.0016,5.8538,-7.7548,-0.0109,0.0298,-0.0005,-12.6000,23.2500,-7.8000,9.2440,1.5467,-2.6791,-0.0290,-0.0045,0.0083,-79.6500,42.1500,-20.7000,4.1700,3.6400,-8.0100,0.0044,-0.0011,-0.0011,-25.5000,-32.5000,7.5625,285.6250,25.3125,-156.0625,0
72.286,1.9632,5.8778,-7.7021,-0.0040,0.0325,-0.0059,-12.6000,23.5500,-8.8500,9.2536,1.5778,-2.6719,-0.0288,0.0000,0.0101,-80.5500,42.7500,-20.5500,4.1600,3.6300,-8.0200,0.0044,-0.0011,0.0022,-25.5000,-32.5000,7.5625,285.6250,25.3125,-156.0625,0
72.295,1.9872,5.8466,-7.7405,-0.0104,0.0320,-0.0037,-12.6000,23.5500,-8.8500,9.2536,1.5778,-2.6719,-0.0234,-0.0013,0.0088,-80.5500,42.7500,-20.5500,4.1800,3.6300,-8.0300,0.0065,-0.0022,0.0011,-25.5000,-32.5000,7.5625,285.6250,25.3125,-156.0625,0
72.300,2.0016,5.8586,-7.7357,-0.0099,0.0381,0.0056,-12.6000,23.5500,-8.8500,9.2823,1.5610,-2.6935,-0.0320,-0.0029,0.0133,-79.0500,43.2000,-21.6000,4.1800,3.6300,-8.0300,0.0076,0.0000,0.0011,-25.5000,-32.5000,7.5625,285.6250,25.3125,-156.0625,0
72.307,2.0016,5.8586,-7.7357,-0.0099,0.0381,0.0056,-12.6000,23.5500,-8.8500,9.2225,1.5562,-2.6384,-0.0269,-0.0019,0.0045,-79.0500,43.2000,-21.6000,4.1700,3.6400,-8.0400,0.0076,0.0000,0.0011,-25.5000,-32.5000,7.5625,285.6250,25.3125,-156.0625,0
72.316,2.0231,5.9017,-7.7692,-0.0088,0.0288,-0.0011,-12.4500,24.1500,-9.3000,9.2273,1.5586,-2.6815,-0.0285,-0.0035,0.0096,-78.9000,41.8500,-18.4500,4.1800,3.6500,-8.0200,0.0044,-0.0011,0.0033,-25.5000,-32.5000,7.5625,285.6250,25.3125,-156.0625,0
72.321,2.0039,5.8419,-7.7524,-0.0101,0.0314,0.0011,-13.0500,24.3000,-9.1500,9.2273,1.5586,-2.6815,-0.0285,-0.0035,0.0096,-79.0500,42.7500,-19.8000,4.1800,3.6500,-8.0200,0.0055,0.0022,0.0000,-25.0625,-32.7500,8.3750,285.6250,25.3125,-156.0625,0
72.327,2.0039,5.8419,-7.7524,-0.0101,0.0314,0.0011,-13.0500,24.7500,-9.9000,9.1937,1.4868,-2.6432,-0.0277,0.0027,0.0091,-79.0500,42.7500,-19.8000,4.1700,3.6400,-8.0300,0.0055,0.0022,0.0000,-25.0625,-32.7500,8.3750,285.6250,25.3125,-156.0625,0
72.336,2.0327,5.8466,-7.7237,-0.0107,0.0288,0.0027,-12.3000,22.8000,-10.6500,9.1842,1.5371,-2.6552,-0.0258,0.0005,0.0032,-78.9000,42.1500,-19.5000,4.1700,3.6500,-8.0400,0.0044,0.0011,-0.0022,-25.0625,-32.7500,8.3750,285.6250,25.3125,-156.0625,0
72.345,1.9680,5.8706,-7.7117,-0.0123,0.0298,0.0027,-12.3000,22.8000,-10.6500,9.2584,1.5634,-2.6695,-0.0261,0.0032,0.0085,-78.1500,41.8500,-18.4500,4.1800,3.6300,-8.0500,0.0033,-0.0011,0.0011,-25.0625,-32.7500,8.3750,285.6250,25.3125,-156.0625,0
72.352,2.0159,5.7892,-7.6998,-0.0149,0.0306,0.0005,-12.3000,22.8000,-10.6500,9.2584,1.5634,-2.6695,-0.0261,0.0032,0.0085,-79.0500,42.4500,-20.1000,4.1800,3.6300,-8.0500,0.0011,0.0011,0.0000,-25.0625,-32.7500,8.3750,285.6250,25.3125,-156.0625,0
72.357,2.0159,5.7892,-7.6998,-0.0149,0.0306,0.0005,-12.4500,23.7000,-9.0000,9.2416,1.5538,-2.6887,-0.0328,0.0000,0.0080,-79.0500,42.4500,-20.1000,4.1800,3.6300,-8.0400,0.0011,0.0011,0.0000,-25.0625,-32.7500,8.3750,285.6250,25.3125,-156.0625,0
72.367,2.0207,5.7988,-7.7165,-0.0165,0.0330,0.0032,-11.2500,23.2500,-10.2000,9.2488,1.5347,-2.6600,-0.0309,-0.0013,0.0069,-79.0500,42.4500,-20.1000,4.2000,3.6500,-8.0400,0.0011,-0.0022,0.0011,-25.0625,-32.7500,8.3750,285.6250,25.3125,-156.0625,0
72.371,2.0375,5.8778,-7.7261,-0.0104,0.0232,0.0064,-11.2500,23.2500,-10.2000,9.2488,1.5347,-2.6600,-0.0309,-0.0013,0.0069,-79.5000,41.2500,-19.8000,4.2000,3.6500,-8.0400,-0.0011,0.0022,0.0000,-25.7500,-32.0625,8.3750,285.6250,25.3125,-156.0625,0
72.377,2.0375,5.8778,-7.7261,-0.0131,0.0240,0.0021,-13.0500,24.0000,-9.1500,9.2488,1.5131,-2.6456,-0.0261,0.0019,0.0037,-79.5000,41.2500,-19.8000,4.1900,3.6200,-8.0300,-0.0011,0.0022,0.0000,-25.7500,-32.0625,8.3750,285.6250,25.3125,-156.0625,0
72.386,1.9968,5.8275,-7.7117,-0.0131,0.0240,0.0021,-11.5500,22.8000,-8.1000,9.2201,1.5610,-2.6408,-0.0261,-0.0019,0.0024,-79.5000,41.2500,-19.8000,4.1800,3.6400,-8.0100,-0.0011,0.0022,0.0000,-25.7500,-32.0625,8.3750,285.6250,25.3125,-156.0625,0
72.396,2.0303,5.8921,-7.7093,-0.0136,0.0320,0.0035,-11.4000,21.9000,-8.7000,9.1937,1.5155,-2.6432,-0.0280,-0.0027,0.0005,-80.2500,42.0000,-19.8000,4.1800,3.6300,-8.0000,-0.0022,-0.0011,-0.0022,-25.7500,-32.0625,8.3750,285.6250,25.3125,-156.0625,0
72.401,2.0183,5.8778,-7.7069,-0.0144,0.0232,0.0016,-11.4000,21.9000,-8.7000,9.1937,1.5155,-2.6432,-0.0280,-0.0027,0.0005,-79.3500,41.8500,-21.0000,4.1800,3.6300,-8.0000,-0.0044,0.0011,-0.0011,-25.7500,-32.0625,8.3750,285.6250,25.3125,-156.0625,0
72.407,2.0327,5.8706,-7.7237,-0.0157,0.0261,0.0072,-11.4000,21.9000,-8.7000,9.1506,1.5275,-2.6408,-0.0325,-0.0048,0.0061,-79.3500,41.8500,-21.0000,4.1800,3.6200,-8.0200,-0.0044,0.0011,-0.0011,-25.7500,-32.0625,8.3750,285.6250,25.3125,-156.0625,0
72.417,1.9465,5.8395,-7.7213,-0.0187,0.0253,0.0037,-12.4500,22.6500,-9.3000,9.2488,1.5826,-2.7078,-0.0346,-0.0008,0.0037,-79.5000,42.7500,-19.8000,4.1900,3.6400,-8.0100,-0.0022,0.0011,-0.0022,-25.7500,-32.0625,8.3750,285.6250,25.3125,-156.0625,0
72.422,1.9465,5.8395,-7.7213,-0.0187,0.0253,0.0037,-12.4500,22.6500,-9.3000,9.2344,1.5586,-2.7150,-0.0330,0.0024,0.0024,-78.7500,42.4500,-20.8500,4.1900,3.6400,-8.0100,-0.0055,0.0011,0.0000,-25.5000,-31.6875,8.0000,285.6250,25.3125,-156.0625,0
72.427,2.0303,5.8778,-7.7357,-0.0189,0.0258,0.0040,-13.2000,23.7000,-8.7000,9.2344,1.5586,-2.7150,-0.0330,0.0024,0.0024,-78.7500,42.4500,-20.8500,4.1800,3.6400,-8.0200,-0.0055,0.0011,0.0000,-25.5000,-31.6875,8.0000,285.6250,25.3125,-156.0625,0
72.436,2.0758,5.9640,-7.7189,-0.0184,0.0293,0.0005,-11.5500,23.5500,-9.1500,9.2416,1.5874,-2.6073,-0.0394,-0.0037,-0.0013,-80.2500,42.7500,-18.6000,4.1700,3.6200,-8.0300,-0.0065,0.0011,-0.0011,-25.5000,-31.6875,8.0000,285.6250,25.3125,-156.0625,0
72.446,2.0614,5.8873,-7.6974,-0.0171,0.0261,-0.0003,-12.4500,24.1500,-7.6500,9.1722,1.6017,-2.6456,-0.0346,0.0013,0.0045,-79.0500,41.5500,-21.1500,4.1900,3.6600,-8.0300,-0.0055,0.0022,-0.0011,-25.5000,-31.6875,8.0000,285.6250,25.3125,-156.0625,0
72.450,2.0614,5.8873,-7.6974,-0.0171,0.0261,-0.0003,-12.4500,24.1500,-7.6500,9.1937,1.6113,-2.6432,-0.0357,-0.0064,0.0069,-79.0500,41.5500,-21.1500,4.1900,3.6600,-8.0300,-0.0044,-0.0011,-0.0033,-25.5000,-31.6875,8.0000,285.6250,25.3125,-156.0625,0
72.457,1.9632,5.9065,-7.6758,-0.0155,0.0229,0.0029,-12.4500,24.1500,-7.6500,9.1937,1.6113,-2.6432,-0.0357,-0.0064,0.0069,-79.0500,41.5500,-21.1500,4.1800,3.6500,-8.0200,-0.0044,-0.0011,-0.0033,-25.5000,-31.6875,8.0000,285.6250,25.3125,-156.0625,0
72.467,1.9920,5.9256,-7.6830,-0.0168,0.0277,0.0037,-12.6000,22.8000,-9.1500,9.2249,1.6496,-2.6384,-0.0269,0.0003,0.0075,-78.9000,41.4000,-20.2500,4.1700,3.6500,-8.0100,-0.0022,0.0000,-0.0011,-25.5000,-31.6875,8.0000,285.6250,25.3125,-156.0625,0
72.472,1.9920,5.9256,-7.6830,-0.0168,0.0277,0.0037,-12.6000,22.8000,-9.1500,9.2273,1.6544,-2.6552,-0.0277,-0.0008,-0.0016,-78.3000,42.4500,-21.1500,4.1700,3.6500,-8.0100,-0.0055,0.0033,-0.0022,-25.0625,-32.5000,7.5625,285.6250,25.3125,-156.0625,0
72.477,1.9824,5.8778,-7.6950,-0.0152,0.0298,0.0024,-12.6000,23.2500,-9.1500,9.2273,1.6544,-2.6552,-0.0277,-0.0008,-0.0016,-78.3000,42.4500,-21.1500,4.1700,3.6700,-8.0100,-0.0055,0.0033,-0.0022,-25.0625,-32.5000,7.5625,285.6250,25.3125,-156.0625,0
72.486,2.0231,5.9424,-7.7596,-0.0192,0.0253,-0.0008,-13.2000,24.1500,-9.3000,9.2249,1.5778,-2.6504,-0.0288,-0.0013,0.0061,-79.8000,43.5000,-20.5500,4.1700,3.6600,-8.0200,-0.0022,0.0022,-0.0033,-25.0625,-32.5000,7.5625,285.6250,25.3125,-156.0625,0
72.496,1.9776,5.8921,-7.7333,-0.0181,0.0285,-0.0011,-11.7000,23.7000,-9.0000,9.1913,1.5874,-2.6911,-0.0328,0.0000,0.0059,-78.1500,41.4000,-21.4500,4.1900,3.6400,-8.0600,0.0000,-0.0022,0.0000,-25.0625,-32.5000,7.5625,285.6250,25.3125,-156.0625,0
72.501,1.9776,5.8921,-7.7333,-0.0181,0.0285,-0.0011,-11.7000,23.7000,-9.0000,9.2033,1.6352,-2.6073,-0.0306,0.0048,0.0104,-79.0500,42.0000,-19.8000,4.1900,3.6400,-8.0600,0.0000,0.0022,0.0011,-25.0625,-32.5000,7.5625,285.6250,25.3125,-156.0625,0
72.507,1.9632,5.9831,-7.6686,-0.0226,0.0306,-0.0019,-10.9500,23.4000,-8.2500,9.2129,1.6209,-2.5809,-0.0306,0.0048,0.0104,-79.0500,42.0000,-19.8000,4.1700,3.6300,-8.0300,0.0000,0.0022,0.0011,-25.0625,-32.5000,7.5625,285.6250,25.3125,-156.0625,0
72.516,1.9489,6.0071,-7.6758,-0.0229,0.0293,-0.0032,-10.9500,23.4000,-8.2500,9.2129,1.6209,-2.5809,-0.0352,-0.0005,0.0064,-78.9000,42.1500,-20.7000,4.1800,3.6500,-8.0000,-0.0011,0.0022,-0.0011,-25.0625,-32.5000,7.5625,285.6250,25.3125,-156.0625,0
72.521,1.9489,6.0071,-7.6758,-0.0229,0.0293,-0.0032,-10.9500,23.4000,-8.2500,9.2751,1.6041,-2.6791,-0.0306,0.0027,0.0115,-78.9000,42.1500,-20.7000,4.1800,3.6500,-8.0000,0.0000,0.0011,0.0022,-25.7500,-32.7500,9.1875,285.6250,25.3125,-156.0625,0
72.527,1.9680,5.9927,-7.6591,-0.0155,0.0352,0.0013,-12.1500,23.4000,-8.2500,9.2512,1.6113,-2.6767,-0.0306,0.0027,0.0115,-78.9000,42.1500,-20.7000,4.1800,3.6700,-8.0100,0.0000,0.0011,0.0022,-25.7500,-32.7500,9.1875,285.6250,25.3125,-156.0625,0
72.537,1.9872,5.9352,-7.6614,-0.0157,0.0309,-0.0064,-11.5500,22.8000,-7.8000,9.2512,1.5969,-2.6288,-0.0272,0.0000,0.0117,-79.0500,43.5000,-19.8000,4.1600,3.6600,-8.0200,0.0022,-0.0022,0.0000,-25.7500,-32.7500,9.1875,285.6250,25.3125,-156.0625,0
72.544,2.0063,5.9448,-7.7045,-0.0085,0.0333,-0.0059,-13.0500,24.3000,-9.1500,9.2512,1.5969,-2.6288,-0.0226,0.0035,0.0125,-79.0500,43.5000,-19.8000,4.1700,3.6500,-8.0600,0.0022,0.0044,0.0000,-25.7500,-32.7500,9.1875,285.6250,25.3125,-156.0625,0
72.549,2.0063,5.9448,-7.7045,-0.0085,0.0333,-0.0059,-13.0500,24.3000,-9.1500,9.2201,1.5945,-2.6671,-0.0266,-0.0029,0.0179,-79.0500,43.5000,-19.8000,4.1700,3.6500,-8.0600,0.0022,0.0044,0.0000,-25.7500,-32.7500,9.1875,285.6250,25.3125,-156.0625,0
72.557,2.0135,5.9520,-7.6638,-0.0083,0.0309,0.0011,-10.8000,21.7500,-9.1500,9.2536,1.5921,-2.6671,-0.0250,-0.0011,0.0096,-79.0500,42.0000,-20.8500,4.1700,3.6500,-8.0300,0.0022,0.0022,0.0011,-25.7500,-32.7500,9.1875,285.6250,25.3125,-156.0625,0
72.567,1.9968,5.9328,-7.7285,-0.0120,0.0325,-0.0104,-10.8000,21.7500,-9.1500,9.2392,1.6089,-2.6480,-0.0218,-0.0011,0.0128,-78.3000,42.4500,-19.3500,4.1800,3.6500,-8.0200,0.0076,0.0000,0.0022,-25.7500,-32.7500,9.1875,285.6250,25.3125,-156.0625,0
72.572,2.0351,5.9304,-7.7141,-0.0093,0.0317,-0.0107,-10.8000,21.7500,-9.1500,9.2392,1.6089,-2.6480,-0.0218,-0.0011,0.0128,-78.3000,43.5000,-20.5500,4.1800,3.6500,-8.0200,0.0087,0.0000,0.0011,-24.6875,-32.0625,8.7500,285.6250,25.3125,-156.0625,0
72.578,2.0351,5.9304,-7.7141,-0.0093,0.0317,-0.0107,-10.8000,21.7500,-9.1500,9.2632,1.5682,-2.6647,-0.0171,0.0024,0.0189,-78.3000,43.5000,-20.5500,4.1700,3.6500,-8.0300,0.0087,0.0000,0.0011,-24.6875,-32.0625,8.7500,285.6250,25.3125,-156.0625,0
72.587,1.9704,5.9352,-7.6878,-0.0101,0.0402,-0.0080,-12.3000,22.8000,-8.1000,9.2201,1.5921,-2.6504,-0.0264,-0.0056,0.0136,-79.0500,41.5500,-21.6000,4.1800,3.6400,-8.0300,0.0055,-0.0022,0.0033,-24.6875,-32.0625,8.7500,285.6250,25.3125,-156.0625,0
72.596,1.9872,5.9256,-7.6878,-0.0093,0.0304,-0.0011,-12.3000,24.7500,-8.8500,9.2536,1.5850,-2.6360,-0.0312,-0.0051,0.0152,-79.0500,41.5500,-21.6000,4.1800,3.6400,-8.0200,0.0033,0.0022,0.0022,-24.6875,-32.0625,8.7500,285.6250,25.3125,-156.0625,0
72.603,1.9992,5.9328,-7.6902,-0.0021,0.0312,-0.0029,-12.4500,22.6500,-9.0000,9.2105,1.5490,-2.6743,-0.0312,-0.0051,0.0152,-78.1500,42.1500,-19.9500,4.1800,3.6600,-8.0300,0.0087,-0.0033,0.0011,-24.6875,-32.0625,8.7500,285.6250,25.3125,-156.0625,0
72.608,1.9992,5.9328,-7.6902,-0.0021,0.0312,-0.0029,-12.4500,22.6500,-9.0000,9.2105,1.5490,-2.6743,-0.0322,-0.0053,0.0165,-78.1500,42.1500,-19.9500,4.1800,3.6600,-8.0300,0.0087,-0.0033,0.0011,-24.6875,-32.0625,8.7500,285.6250,25.3125,-156.0625,0
72.617,1.9968,5.9089,-7.7093,-0.0059,0.0328,-0.0067,-12.4500,24.4500,-8.2500,9.2680,1.5969,-2.6360,-0.0229,-0.0048,0.0173,-78.1500,42.1500,-19.9500,4.1800,3.6300,-8.0200,0.0065,-0.0022,0.0055,-24.6875,-32.0625,8.7500,285.6250,25.3125,-156.0625,0
72.622,1.9896,5.9400,-7.7069,-0.0021,0.0288,-0.0032,-12.4500,24.4500,-8.2500,9.2680,1.5969,-2.6360,-0.0229,-0.0048,0.0173,-78.9000,41.8500,-19.9500,4.1800,3.6300,-8.0200,0.0087,-0.0022,0.0022,-24.6875,-31.6875,8.7500,285.6250,25.3125,-156.0625,0
72.628,1.9896,5.9400,-7.7069,-0.0021,0.0288,-0.0032,-12.4500,24.4500,-8.2500,9.2201,1.5993,-2.6504,-0.0232,-0.0035,0.0136,-78.9000,41.8500,-19.9500,4.1800,3.6500,-8.0200,0.0087,-0.0022,0.0022,-24.6875,-31.6875,8.7500,285.6250,25.3125,-156.0625,0
72.637,1.9872,5.9185,-7.7428,-0.0024,0.0298,-0.0037,-13.0500,24.0000,-8.5500,9.2296,1.6472,-2.6528,-0.0232,0.0013,0.0173,-79.3500,43.0500,-19.2000,4.1700,3.6500,-8.0200,0.0076,0.0022,0.0011,-24.6875,-31.6875,8.7500,285.6250,25.3125,-156.0625,0
72.645,1.9992,5.9113,-7.7620,-0.0008,0.0269,-0.0035,-12.3000,24.3000,-8.5500,9.2273,1.6113,-2.6288,-0.0147,0.0027,0.0195,-78.4500,41.8500,-20.2500,4.1600,3.6500,-8.0200,0.0087,0.0022,0.0011,-24.6875,-31.6875,8.7500,285.6250,25.3125,-156.0625,0
72.650,1.9992,5.8706,-7.7093,0.0048,0.0354,-0.0109,-12.3000,24.3000,-8.5500,9.2273,1.6113,-2.6288,-0.0147,0.0027,0.0195,-78.4500,41.8500,-20.2500,4.1600,3.6500,-8.0200,0.0087,0.0022,0.0011,-24.6875,-31.6875,8.7500,285.6250,25.3125,-156.0625,0
72.657,1.9992,5.8706,-7.7093,0.0048,0.0354,-0.0109,-10.5000,21.3000,-9.1500,9.2249,1.5874,-2.6528,-0.0136,-0.0008,0.0197,-77.5500,41.5500,-19.8000,4.1800,3.6800,-8.0200,0.0098,-0.0022,0.0011,-24.6875,-31.6875,8.7500,285.6250,25.3125,-156.0625,0
72.667,2.0399,5.9352,-7.7069,0.0005,0.0352,-0.0032,-12.1500,22.9500,-9.7500,9.2464,1.5778,-2.6552,-0.0117,-0.0003,0.0224,-78.1500,43.0500,-19.5000,4.1700,3.6500,-8.0200,0.0098,0.0000,0.0022,-24.6875,-31.6875,8.7500,285.6250,25.3125,-156.0625,0
72.672,2.0159,5.9065,-7.7141,-0.0005,0.0362,-0.0075,-10.9500,22.9500,-9.0000,9.2560,1.5754,-2.6408,-0.0133,-0.0075,0.0149,-79.6500,41.8500,-21.0000,4.1700,3.6500,-8.0200,0.0109,0.0011,0.0033,-25.5000,-33.0625,8.0000,285.6250,25.3125,-156.0625,0
72.678,1.9800,5.9448,-7.7524,0.0043,0.0370,-0.0045,-10.9500,22.9500,-9.0000,9.2560,1.5754,-2.6408,-0.0133,-0.0075,0.0149,-79.6500,41.8500,-21.0000,4.1800,3.6300,-8.0200,0.0109,0.0011,0.0033,-25.5000,-33.0625,8.0000,285.6250,25.3125,-156.0625,0
72.687,1.9824,5.8466,-7.7117,-0.0024,0.0373,-0.0072,-10.9500,22.9500,-9.0000,9.2057,1.5562,-2.6887,-0.0181,-0.0040,0.0176,-79.6500,41.8500,-21.0000,4.1800,3.6500,-8.0200,0.0120,-0.0044,0.0011,-25.5000,-33.0625,8.0000,285.6250,25.3125,-156.0625,0
72.695,1.9824,5.8466,-7.7117,-0.0024,0.0373,-0.0072,-12.1500,23.7000,-8.7000,9.2703,1.5754,-2.6504,-0.0141,-0.0013,0.0211,-78.4500,43.3500,-18.7500,4.1600,3.6300,-8.0300,0.0120,-0.0011,0.0033,-25.5000,-33.0625,8.0000,285.6250,25.3125,-156.0625,0
72.700,1.9609,5.9113,-7.7428,0.0008,0.0370,-0.0085,-11.5500,24.0000,-8.1000,9.2608,1.5395,-2.6432,-0.0141,-0.0013,0.0211,-78.4500,43.3500,-18.7500,4.1600,3.6300,-8.0300,0.0120,-0.0011,0.0033,-25.5000,-33.0625,8.0000,285.6250,25.3125,-156.1250,0
72.707,2.0207,5.9304,-7.7141,0.0016,0.0416,-0.0093,-11.5500,24.0000,-8.1000,9.2608,1.5395,-2.6432,-0.0195,-0.0064,0.0181,-77.5500,42.0000,-20.1000,4.1800,3.6300,-8.0200,0.0131,0.0011,0.0033,-25.5000,-33.0625,8.0000,285.6250,25.3125,-156.1250,0
72.717,2.0159,5.8778,-7.7428,-0.0045,0.0389,-0.0067,-12.3000,22.5000,-9.1500,9.2129,1.5634,-2.6504,-0.0200,-0.0032,0.0176,-79.6500,43.3500,-20.7000,4.1800,3.6400,-8.0300,0.0109,-0.0011,0.0033,-25.5000,-33.0625,8.0000,285.6250,25.3125,-156.1250,0
72.722,2.0159,5.8778,-7.7428,-0.0045,0.0389,-0.0067,-12.3000,23.5500,-8.8500,9.2967,1.5682,-2.6911,-0.0195,-0.0005,0.0192,-79.6500,43.3500,-20.7000,4.1800,3.6400,-8.0300,0.0131,0.0011,0.0022,-25.5000,-33.0625,8.0000,285.6250,25.3125,-156.1250,0
72.728,2.0039,5.8754,-7.7213,0.0003,0.0344,-0.0069,-12.3000,23.5500,-8.8500,9.2967,1.5682,-2.6911,-0.0195,-0.0005,0.0192,-78.3000,42.4500,-20.1000,4.1700,3.6400,-8.0200,0.0131,0.0011,0.0022,-25.5000,-33.0625,8.0000,285.6250,25.3125,-156.1250,0
72.737,2.0207,5.8969,-7.7500,-0.0064,0.0413,-0.0061,-12.3000,23.5500,-8.8500,9.2225,1.5323,-2.6624,-0.0184,0.0003,0.0203,-79.6500,41.8500,-19.9500,4.1700,3.6200,-8.0400,0.0131,0.0011,0.0011,-25.5000,-33.0625,8.0000,285.6250,25.3125,-156.1250,0
72.745,2.0063,5.8682,-7.7069,0.0013,0.0360,-0.0056,-12.3000,23.5500,-8.8500,9.2512,1.5826,-2.6647,-0.0208,-0.0027,0.0234,-79.6500,42.6000,-20.7000,4.1800,3.6200,-8.0600,0.0120,-0.0055,0.0033,-25.5000,-33.0625,8.0000,285.6250,25.3125,-156.1250,0
72.750,2.0063,5.8682,-7.7069,0.0013,0.0360,-0.0056,-10.8000,21.7500,-7.0500,9.2249,1.5921,-2.6193,-0.0165,-0.0032,0.0224,-79.6500,42.6000,-20.7000,4.1800,3.6200,-8.0600,0.0120,-0.0055,0.0033,-25.5000,-33.0625,8.0000,285.6250,25.3125,-156.1250,0
72.757,2.0039,5.8035,-7.7381,-0.0027,0.0304,-0.0040,-10.8000,21.7500,-7.0500,9.2081,1.5562,-2.6456,-0.0165,-0.0032,0.0224,-79.6500,42.6000,-20.7000,4.1900,3.6200,-8.0200,0.0098,-0.0022,0.0055,-25.5000,-33.0625,8.0000,285.6250,25.3125,-156.1250,0
72.767,1.9656,5.9256,-7.7692,0.0016,0.0378,-0.0048,-12.3000,24.7500,-8.5500,9.2584,1.5323,-2.6863,-0.0173,0.0011,0.0189,-78.1500,43.0500,-20.2500,4.1800,3.6400,-8.0200,0.0120,-0.0022,0.0055,-25.5000,-33.0625,8.0000,285.6250,25.3125,-156.1250,0
72.772,1.9656,5.9256,-7.7692,0.0016,0.0378,-0.0048,-11.7000,23.4000,-7.6500,9.2584,1.5323,-2.6863,-0.0195,-0.0027,0.0211,-78.1500,43.0500,-20.2500,4.1800,3.6400,-8.0200,0.0109,0.0022,0.0044,-26.1875,-32.0625,8.0000,285.6250,25.3125,-156.1250,0
72.778,1.9537,5.8466,-7.7285,-0.0003,0.0373,-0.0083,-11.7000,23.4000,-7.6500,9.1961,1.5275,-2.7007,-0.0245,-0.0005,0.0176,-78.1500,43.0500,-20.2500,4.1800,3.6300,-8.0100,0.0109,0.0022,0.0044,-26.1875,-32.0625,8.0000,285.6250,25.3125,-156.1250,0
72.787,1.9489,5.8419,-7.7548,-0.0043,0.0346,-0.0075,-12.1500,22.9500,-8.2500,9.2440,1.4844,-2.6911,-0.0229,-0.0043,0.0160,-79.6500,43.0500,-20.7000,4.1800,3.6500,-8.0200,0.0065,0.0000,0.0022,-26.1875,-32.0625,8.0000,285.6250,25.3125,-156.1250,0
72.797,1.9656,5.8227,-7.7189,-0.0011,0.0362,-0.0045,-12.1500,22.9500,-8.2500,9.2296,1.5275,-2.7031,-0.0269,-0.0027,0.0184,-78.3000,42.4500,-19.8000,4.1900,3.6500,-8.0500,0.0055,0.0011,0.0011,-26.1875,-32.0625,8.0000,285.6250,25.3125,-156.1250,0
72.805,1.9920,5.8706,-7.7835,-0.0029,0.0397,-0.0083,-12.6000,24.0000,-9.6000,9.2320,1.5395,-2.6959,-0.0269,-0.0027,0.0184,-78.4500,41.8500,-20.2500,4.1800,3.6300,-8.0500,0.0044,0.0011,0.0000,-26.1875,-32.0625,8.0000,285.6250,25.3125,-156.1250,0
72.810,1.9920,5.8706,-7.7835,-0.0029,0.0397,-0.0083,-11.8500,24.0000,-9.6000,9.2320,1.5395,-2.6959,-0.0221,0.0000,0.0195,-78.4500,41.8500,-20.2500,4.1800,3.6300,-8.0500,0.0044,0.0011,0.0000,-26.1875,-32.0625,8.0000,285.6250,25.3125,-156.1250,0
72.818,2.0111,5.8179,-7.7309,-0.0101,0.0344,-0.0043,-12.1500,24.0000,-9.6000,9.2296,1.5419,-2.6815,-0.0224,0.0019,0.0112,-79.3500,41.8500,-19.5000,4.1600,3.6300,-8.0300,0.0044,0.0022,0.0022,-26.1875,-32.0625,8.0000,285.6250,25.3125,-156.1250,0
72.822,2.0279,5.8083,-7.7740,-0.0184,0.0360,-0.0011,-12.1500,23.7000,-7.9500,9.2296,1.5419,-2.6815,-0.0224,0.0019,0.0112,-78.0000,43.5000,-19.8000,4.1600,3.6300,-8.0300,0.0044,0.0000,0.0000,-24.2500,-32.3750,8.0000,285.6250,25.3125,-156.1250,0
72.828,2.0279,5.8083,-7.7740,-0.0184,0.0360,-0.0011,-11.7000,23.7000,-9.3000,9.2296,1.4868,-2.6983,-0.0258,-0.0027,0.0115,-78.0000,43.5000,-19.8000,4.1800,3.6200,-8.0700,0.0044,0.0000,0.0000,-24.2500,-32.3750,8.0000,285.6250,25.3125,-156.1250,0
72.837,1.9417,5.8706,-7.6902,-0.0109,0.0285,0.0008,-11.8500,22.5000,-8.1000,9.2296,1.4796,-2.6863,-0.0208,0.0008,0.0157,-80.1000,41.8500,-19.2000,4.1700,3.6300,-8.0200,0.0022,-0.0011,-0.0011,-24.2500,-32.3750,8.0000,285.6250,25.3125,-156.1250,0
72.847,1.9537,5.8730,-7.7476,-0.0099,0.0301,0.0003,-11.8500,22.5000,-8.1000,9.1985,1.5562,-2.7031,-0.0242,0.0040,0.0125,-80.1000,41.8500,-19.2000,4.1700,3.6400,-8.0500,0.0022,0.0000,0.0000,-24.2500,-32.3750,8.0000,285.6250,25.3125,-156.1250,0
72.855,2.0231,5.8730,-7.7285,-0.0155,0.0280,-0.0013,-11.8500,22.5000,-8.1000,9.2081,1.5443,-2.6959,-0.0205,-0.0029,0.0125,-79.5000,43.5000,-21.1500,4.1900,3.6200,-8.0400,0.0000,-0.0011,-0.0011,-24.2500,-32.3750,8.0000,285.6250,25.3125,-156.1250,0
72.860,2.0231,5.8730,-7.7285,-0.0155,0.0280,-0.0013,-12.6000,22.0500,-8.8500,9.2081,1.5443,-2.6959,-0.0205,-0.0029,0.0125,-79.5000,43.5000,-21.1500,4.1900,3.6200,-8.0400,0.0000,-0.0011,-0.0011,-24.2500,-32.3750,8.0000,285.6250,25.3125,-156.1250,0
72.868,2.0686,5.8754,-7.7452,-0.0051,0.0309,-0.0048,-13.2000,22.9500,-9.0000,9.2320,1.4700,-2.6552,-0.0261,0.0029,0.0112,-79.8000,42.4500,-19.3500,4.1800,3.6200,-8.0400,-0.0033,-0.0022,-0.0011,-24.2500,-32.3750,8.0000,285.6250,25.3125,-156.1250,0
72.873,1.9632,5.8203,-7.7716,-0.0045,0.0312,-0.0051,-13.2000,22.9500,-9.0000,9.2560,1.5012,-2.6480,-0.0261,0.0029,0.0112,-79.8000,42.4500,-19.3500,4.1800,3.6200,-8.0400,-0.0011,0.0033,-0.0011,-25.7500,-33.0625,8.0000,285.6250,25.3125,-156.1250,0
72.878,1.9632,5.8203,-7.7716,-0.0045,0.0312,-0.0051,-12.4500,23.7000,-9.3000,9.2560,1.5012,-2.6480,-0.0258,0.0008,0.0147,-78.3000,41.5500,-21.1500,4.1800,3.6200,-8.0100,-0.0011,0.0033,-0.0011,-25.7500,-33.0625,8.0000,285.6250,25.3125,-156.1250,0
72.887,2.0207,5.8802,-7.7117,-0.0125,0.0277,0.0053,-11.8500,24.0000,-8.5500,9.2488,1.5323,-2.6145,-0.0296,0.0072,0.0115,-79.5000,42.0000,-19.8000,4.1800,3.6200,-8.0400,-0.0044,0.0011,0.0011,-25.7500,-33.0625,8.0000,285.6250,25.3125,-156.1250,0
72.897,2.0087,5.8897,-7.7165,-0.0075,0.0352,0.0011,-11.8500,24.0000,-8.5500,9.1985,1.5395,-2.6743,-0.0298,0.0056,0.0109,-79.5000,41.5500,-20.1000,4.1800,3.6200,-8.1000,-0.0033,0.0000,-0.0011,-25.7500,-33.0625,8.0000,285.6250,25.3125,-156.1250,0
72.907,2.0494,5.8993,-7.7117,-0.0141,0.0314,0.0021,-11.8500,24.0000,-8.5500,9.1889,1.5658,-2.6528,-0.0274,0.0045,0.0088,-78.7500,42.4500,-20.1000,4.1700,3.6300,-8.0500,-0.0055,0.0011,0.0011,-25.7500,-33.0625,8.0000,285.6250,25.3125,-156.1250,0
72.913,2.0542,5.8586,-7.7045,-0.0123,0.0362,0.0019,-11.8500,24.0000,-8.5500,9.2392,1.5060,-2.6935,-0.0248,0.0035,0.0112,-78.7500,42.4500,-20.1000,4.1700,3.6300,-8.0500,-0.0055,-0.0011,-0.0022,-25.7500,-33.0625,8.0000,285.6250,25.3125,-156.1250,0
72.918,2.0542,5.8586,-7.7045,-0.0123,0.0362,0.0019,-11.4000,24.1500,-7.9500,9.2392,1.5060,-2.6935,-0.0248,0.0035,0.0112,-78.7500,42.4500,-20.1000,4.2000,3.6200,-8.0300,-0.0055,-0.0011,-0.0022,-25.7500,-33.0625,8.0000,285.6250,25.3125,-156.1250,0
72.923,1.9992,5.8634,-7.6878,-0.0085,0.0314,-0.0013,-11.4000,24.1500,-7.9500,9.2608,1.5586,-2.6743,-0.0349,0.0045,0.0115,-78.7500,42.4500,-20.1000,4.1700,3.6300,-8.0200,-0.0033,0.0000,-0.0033,-25.5000,-31.2500,7.5625,285.6250,25.3125,-156.1250,0
72.928,1.9992,5.8634,-7.6878,-0.0085,0.0314,-0.0013,-12.1500,23.4000,-9.7500,9.2608,1.5586,-2.6743,-0.0349,0.0045,0.0115,-78.9000,42.1500,-18.4500,4.1700,3.6300,-8.0200,-0.0033,0.0000,-0.0033,-25.5000,-31.2500,7.5625,285.6250,25.3125,-156.1250,0
72.937,1.9992,5.8490,-7.6926,-0.0149,0.0312,0.0035,-12.4500,22.6500,-8.7000,9.1746,1.5682,-2.6384,-0.0328,-0.0013,0.0029,-78.9000,42.1500,-18.4500,4.1800,3.6400,-8.0400,-0.0033,0.0000,-0.0022,-25.5000,-31.2500,7.5625,285.6250,25.3125,-156.1250,0
72.947,2.0638,5.8969,-7.6998,-0.0141,0.0293,0.0013,-12.1500,22.6500,-8.7000,9.2392,1.5754,-2.6097,-0.0346,0.0027,0.0069,-79.3500,43.0500,-19.9500,4.1900,3.6300,-8.0200,-0.0055,0.0033,-0.0033,-25.5000,-31.2500,7.5625,285.6250,25.3125,-156.1250,0
72.955,2.0207,5.8179,-7.7045,-0.0141,0.0264,0.0003,-12.1500,22.6500,-8.7000,9.1794,1.5802,-2.6719,-0.0317,-0.0043,0.0037,-79.8000,42.0000,-19.0500,4.1900,3.6400,-8.0300,-0.0033,0.0011,-0.0022,-25.5000,-31.2500,7.5625,285.6250,25.3125,-156.1250,0
72.960,2.0446,5.9065,-7.7428,-0.0173,0.0288,0.0045,-12.1500,22.6500,-8.7000,9.2488,1.5299,-2.6217,-0.0309,0.0005,0.0075,-79.8000,42.0000,-19.0500,4.1900,3.6400,-8.0300,-0.0033,0.0011,-0.0022,-25.5000,-31.2500,7.5625,285.6250,25.3125,-156.1250,0
72.968,2.0231,5.8658,-7.6878,-0.0176,0.0288,0.0008,-10.9500,22.2000,-7.9500,9.2320,1.5874,-2.6815,-0.0309,0.0005,0.0075,-80.2500,40.8000,-20.1000,4.1800,3.6400,-8.0100,-0.0044,0.0022,0.0000,-25.5000,-31.2500,7.5625,285.6250,25.3125,-156.1250,0
72.973,2.0231,5.8658,-7.6878,-0.0176,0.0288,0.0008,-10.9500,22.2000,-7.9500,9.2320,1.5874,-2.6815,-0.0362,0.0037,0.0109,-80.2500,40.8000,-20.1000,4.1800,3.6400,-8.0100,-0.0044,0.0044,-0.0044,-25.0625,-32.7500,8.0000,285.6250,25.3125,-156.1250,0
72.978,2.0207,5.9017,-7.7500,-0.0179,0.0282,0.0032,-12.1500,22.9500,-9.3000,9.2033,1.5826,-2.6288,-0.0362,0.0037,0.0109,-78.7500,42.0000,-20.1000,4.1800,3.6400,-8.0400,-0.0044,0.0044,-0.0044,-25.0625,-32.7500,8.0000,285.6250,25.3125,-156.1250,0
72.987,1.9441,5.9065,-7.6974,-0.0168,0.0288,0.0035,-11.7000,23.4000,-9.0000,9.2249,1.5993,-2.6863,-0.0354,0.0029,0.0053,-79.5000,41.2500,-20.5500,4.1700,3.6400,-8.0400,-0.0065,-0.0022,-0.0033,-25.0625,-32.7500,8.0000,285.6250,25.3125,-156.1250,0
72.997,1.9872,5.8802,-7.6830,-0.0120,0.0256,0.0051,-11.2500,22.5000,-9.1500,9.2919,1.5562,-2.6767,-0.0344,-0.0008,0.0088,-78.7500,42.7500,-20.1000,4.1600,3.6200,-8.0300,-0.0044,0.0011,-0.0033,-25.0625,-32.7500,8.0000,285.6250,25.3125,-156.1250,0
73.007,1.9800,5.8993,-7.7357,-0.0163,0.0282,0.0027,-12.7500,22.9500,-9.7500,9.2440,1.5945,-2.6408,-0.0389,-0.0040,0.0037,-78.7500,42.7500,-20.1000,4.1700,3.6400,-8.0300,-0.0022,-0.0011,-0.0033,-25.0625,-32.7500,8.0000,285.6250,25.3125,-156.1250,0
73.011,1.9800,5.8993,-7.7357,-0.0163,0.0282,0.0027,-12.7500,22.9500,-9.7500,9.2440,1.5945,-2.6408,-0.0362,0.0016,0.0029,-78.7500,42.7500,-20.1000,4.1700,3.6400,-8.0300,-0.0055,0.0011,-0.0033,-25.0625,-32.7500,8.0000,285.6250,25.3125,-156.1250,0
73.018,1.9465,5.8706,-7.6662,-0.0160,0.0341,-0.0008,-12.7500,22.9500,-9.7500,9.2296,1.5802,-2.6600,-0.0277,0.0024,0.0083,-79.0500,42.4500,-20.5500,4.1800,3.6400,-8.0200,-0.0055,0.0011,-0.0033,-25.0625,-32.7500,8.0000,285.6250,25.3125,-156.1250,0
73.023,1.9465,5.8706,-7.6662,-0.0160,0.0341,-0.0008,-12.7500,22.9500,-9.7500,9.2296,1.5802,-2.6600,-0.0277,0.0024,0.0083,-79.0500,42.4500,-20.5500,4.1800,3.6400,-8.0200,-0.0033,0.0022,-0.0033,-25.5000,-32.0625,7.1875,285.6250,25.3125,-156.1250,0
73.028,1.9728,5.9089,-7.7237,-0.0131,0.0320,0.0035,-11.7000,24.1500,-10.5000,9.2344,1.5610,-2.6624,-0.0306,-0.0040,0.0027,-77.7000,41.4000,-21.0000,4.1800,3.6400,-8.0200,-0.0033,0.0022,-0.0033,-25.5000,-32.0625,7.1875,285.6250,25.3125,-156.1250,0
73.038,1.9992,5.9448,-7.7309,-0.0096,0.0296,0.0027,-12.3000,21.7500,-7.8000,9.2488,1.5754,-2.6456,-0.0277,-0.0024,0.0056,-78.4500,40.6500,-18.7500,4.1400,3.6400,-8.0200,-0.0044,-0.0022,-0.0044,-25.5000,-32.0625,7.1875,285.6250,25.3125,-156.1250,0
73.047,2.0279,5.8586,-7.7141,-0.0064,0.0352,0.0000,-11.7000,22.6500,-9.3000,9.1889,1.5969,-2.6695,-0.0325,-0.0013,0.0075,-78.1500,40.2000,-19.2000,4.1800,3.6400,-8.0500,-0.0044,0.0000,-0.0033,-25.5000,-32.0625,7.1875,285.6250,25.3125,-156.1250,0
73.056,1.9944,5.9616,-7.6495,-0.0155,0.0349,0.0003,-13.5000,22.6500,-8.7000,9.2320,1.5969,-2.6983,-0.0325,-0.0013,0.0075,-78.1500,40.9500,-19.2000,4.1800,3.6200,-8.0200,-0.0033,0.0011,-0.0044,-25.5000,-32.0625,7.1875,285.6250,25.3125,-156.1250,0
73.060,1.9944,5.9616,-7.6495,-0.0155,0.0349,0.0003,-13.5000,22.6500,-8.7000,9.2320,1.5969,-2.6983,-0.0288,-0.0011,0.0149,-78.1500,40.9500,-19.2000,4.1800,3.6200,-8.0200,-0.0033,0.0011,-0.0044,-25.5000,-32.0625,7.1875,285.6250,25.3125,-156.1250,0
73.068,1.9896,5.9185,-7.7069,-0.0101,0.0352,0.0029,-13.5000,22.6500,-8.7000,9.2273,1.5921,-2.6959,-0.0357,0.0008,0.0104,-79.0500,41.2500,-20.8500,4.1700,3.6400,-8.0300,0.0000,0.0011,-0.0033,-25.5000,-32.0625,7.1875,285.6250,25.3125,-156.1250,0
73.073,1.9896,5.9185,-7.7069,-0.0101,0.0352,0.0029,-13.5000,22.6500,-8.7000,9.2273,1.5921,-2.6959,-0.0357,0.0008,0.0104,-79.0500,41.2500,-20.8500,4.1700,3.6400,-8.0300,-0.0033,0.0000,0.0000,-25.7500,-32.5000,7.5625,285.6250,25.3125,-156.1250,0
73.078,1.9585,5.8730,-7.6854,-0.0120,0.0304,0.0000,-13.5000,22.6500,-8.7000,9.2488,1.6089,-2.6480,-0.0293,0.0043,0.0104,-79.0500,41.2500,-20.8500,4.1900,3.6400,-8.0400,-0.0033,0.0000,0.0000,-25.7500,-32.5000,7.5625,285.6250,25.3125,-156.1250,0
73.088,1.9824,5.9304,-7.7333,-0.0160,0.0317,0.0000,-10.9500,23.4000,-9.0000,9.2751,1.5921,-2.6887,-0.0317,-0.0029,0.0125,-78.3000,41.5500,-19.8000,4.1600,3.6500,-8.0200,-0.0011,0.0022,-0.0011,-25.7500,-32.5000,7.5625,285.6250,25.3125,-156.1250,0
73.097,1.9824,5.8945,-7.7117,-0.0088,0.0282,-0.0016,-13.3500,24.0000,-9.6000,9.2512,1.5754,-2.7126,-0.0261,0.0024,0.0115,-78.3000,41.5500,-19.8000,4.1600,3.6200,-8.0400,-0.0011,-0.0022,-0.0022,-25.7500,-32.5000,7.5625,285.6250,25.3125,-156.1250,0
73.107,2.0135,5.9352,-7.7189,-0.0077,0.0274,0.0019,-12.6000,23.2500,-8.5500,9.2416,1.5730,-2.6815,-0.0285,0.0005,0.0099,-79.0500,43.2000,-21.1500,4.2000,3.6500,-8.0200,0.0000,-0.0011,-0.0011,-25.7500,-32.5000,7.5625,285.6250,25.3125,-156.1250,0
73.112,2.0135,5.9352,-7.7189,-0.0077,0.0274,0.0019,-12.6000,23.2500,-8.5500,9.2416,1.5730,-2.6815,-0.0285,0.0005,0.0099,-79.0500,43.2000,-21.1500,4.2000,3.6500,-8.0200,0.0000,-0.0011,-0.0011,-25.7500,-32.5000,7.5625,285.6250,25.3125,-156.1250,0
73.118,1.9944,5.8993,-7.7476,-0.0160,0.0317,-0.0035,-12.6000,22.5000,-9.1500,9.2009,1.5850,-2.7318,-0.0341,-0.0053,0.0147,-78.9000,42.6000,-19.2000,4.1700,3.6300,-8.0300,0.0000,-0.0011,-0.0011,-25.7500,-32.5000,7.5625,285.6250,25.3125,-156.1250,0
73.123,1.9776,5.8538,-7.6806,-0.0093,0.0277,0.0011,-12.6000,22.5000,-9.1500,9.2416,1.5802,-2.6983,-0.0258,0.0045,0.0139,-78.9000,42.6000,-19.2000,4.1700,3.6300,-8.0300,-0.0011,0.0000,0.0000,-25.0625,-32.7500,8.3750,285.6250,25.3125,-156.1250,0
73.128,1.9776,5.8538,-7.6806,-0.0093,0.0277,0.0011,-12.6000,22.5000,-9.1500,9.2416,1.5802,-2.6983,-0.0258,0.0045,0.0139,-79.0500,43.2000,-19.8000,4.2000,3.6300,-8.0400,-0.0011,0.0000,0.0000,-25.0625,-32.7500,8.3750,285.6250,25.3125,-156.1250,0
73.138,1.9728,5.9089,-7.6806,-0.0099,0.0349,-0.0037,-12.1500,22.9500,-9.0000,9.2009,1.5921,-2.6959,-0.0242,-0.0019,0.0115,-77.7000,43.3500,-20.2500,4.1700,3.6400,-8.0200,0.0011,-0.0033,0.0000,-25.0625,-32.7500,8.3750,285.6250,25.3125,-156.1250,0
73.148,1.9465,5.9352,-7.7285,-0.0085,0.0338,-0.0035,-11.8500,22.0500,-10.2000,9.1985,1.6305,-2.6624,-0.0226,0.0045,0.0115,-77.7000,43.3500,-20.2500,4.1800,3.6400,-8.0400,0.0000,0.0000,0.0000,-25.0625,-32.7500,8.3750,285.6250,25.3125,-156.1250,0
73.157,2.0183,5.8993,-7.7069,-0.0115,0.0354,-0.0003,-12.6000,22.8000,-8.8500,9.1818,1.5874,-2.6576,-0.0144,0.0021,0.0155,-78.1500,42.6000,-20.7000,4.1700,3.6400,-8.0200,0.0033,0.0011,0.0000,-25.0625,-32.7500,8.3750,285.6250,25.3125,-156.1250,0
73.168,2.0375,5.8897,-7.6878,-0.0109,0.0322,-0.0013,-11.8500,23.5500,-8.8500,9.2344,1.5778,-2.6647,-0.0141,0.0011,0.0125,-78.1500,42.6000,-20.7000,4.1800,3.6400,-8.0600,0.0011,0.0022,0.0022,-25.0625,-32.7500,8.3750,285.6250,25.3125,-156.1250,0
73.173,1.9944,5.9376,-7.6375,-0.0091,0.0341,-0.0035,-11.5500,22.8000,-9.9000,9.2512,1.5227,-2.6791,-0.0203,0.0045,0.0208,-78.1500,42.6000,-20.7000,4.1800,3.6400,-8.0600,0.0033,0.0011,0.0011,-25.0625,-32.7500,7.1875,285.6250,25.3125,-156.1250,0
73.179,1.9944,5.9376,-7.6375,-0.0091,0.0341,-0.0035,-11.5500,22.8000,-9.9000,9.2512,1.5227,-2.6791,-0.0203,0.0045,0.0208,-78.3000,42.7500,-21.1500,4.1700,3.6500,-8.0200,0.0033,0.0011,0.0011,-25.0625,-32.7500,7.1875,285.6250,25.3125,-156.1250,0
73.188,2.0590,5.9113,-7.6902,-0.0043,0.0274,0.0021,-11.5500,22.8000,-9.9000,9.2488,1.5155,-2.6695,-0.0240,0.0019,0.0128,-78.9000,41.8500,-19.9500,4.1600,3.6300,-8.0500,0.0033,0.0022,0.0022,-25.0625,-32.7500,7.1875,285.6250,25.3125,-156.1250,0
73.198,2.0351,5.8706,-7.6351,-0.0051,0.0269,0.0019,-12.6000,23.2500,-8.5500,9.1866,1.4916,-2.6456,-0.0250,-0.0027,0.0088,-80.4000,41.8500,-18.4500,4.1600,3.6200,-8.0300,0.0022,0.0022,0.0011,-25.0625,-32.7500,7.1875,285.6250,25.3125,-156.1250,0
73.207,2.0734,5.8754,-7.6830,-0.0080,0.0322,0.0064,-12.4500,22.9500,-9.7500,9.2799,1.5850,-2.6169,-0.0322,-0.0005,0.0125,-80.4000,41.8500,-20.2500,4.1800,3.6100,-8.0200,0.0022,0.0000,0.0000,-25.0625,-32.7500,7.1875,285.6250,25.3125,-156.1250,0
73.212,2.0542,5.8682,-7.7165,-0.0045,0.0269,0.0048,-13.0500,22.8000,-9.9000,9.2775,1.5323,-2.6695,-0.0282,0.0024,0.0149,-80.4000,41.8500,-20.2500,4.1800,3.6100,-8.0200,0.0022,0.0000,0.0000,-25.0625,-32.7500,7.1875,285.6250,25.3125,-156.1250,0
73.219,2.0542,5.8682,-7.7165,-0.0091,0.0258,0.0035,-13.0500,22.8000,-9.9000,9.2296,1.4868,-2.6025,-0.0282,0.0024,0.0149,-78.7500,43.5000,-20.1000,4.1800,3.6300,-8.0300,0.0022,0.0011,0.0000,-25.0625,-32.7500,7.1875,285.6250,25.3125,-156.1250,0
73.223,2.0782,5.8610,-7.7021,-0.0091,0.0258,0.0035,-11.7000,23.4000,-7.6500,9.2296,1.4868,-2.6025,-0.0296,-0.0032,0.0131,-78.7500,43.5000,-20.1000,4.1800,3.6300,-8.0300,0.0022,-0.0022,0.0000,-25.0625,-32.0625,8.0000,285.6250,25.3125,-156.1250,0
73.229,2.0901,5.9161,-7.6806,-0.0051,0.0234,0.0032,-11.7000,23.4000,-7.6500,9.2392,1.5778,-2.5786,-0.0253,0.0005,0.0147,-78.3000,42.0000,-20.1000,4.1700,3.6300,-8.0200,0.0022,-0.0022,0.0000,-25.0625,-32.0625,8.0000,285.6250,25.3125,-156.1250,0
73.238,2.0494,5.8969,-7.6830,-0.0011,0.0269,0.0051,-11.7000,23.4000,-7.6500,9.2512,1.5467,-2.6528,-0.0253,0.0005,0.0147,-78.3000,42.0000,-20.1000,4.1700,3.6200,-8.0300,0.0000,-0.0011,0.0000,-25.0625,-32.0625,8.0000,285.6250,25.3125,-156.1250,0
73.248,2.0494,5.8969,-7.6830,-0.0011,0.0269,0.0051,-12.6000,22.8000,-9.1500,9.2656,1.5802,-2.6001,-0.0203,-0.0024,0.0096,-78.7500,40.8000,-20.8500,4.1700,3.6400,-8.0500,0.0011,-0.0022,0.0011,-25.0625,-32.0625,8.0000,285.6250,25.3125,-156.1250,0
73.256,2.0566,5.8682,-7.6878,0.0013,0.0269,0.0024,-12.4500,23.4000,-8.7000,9.2656,1.5802,-2.6001,-0.0237,-0.0056,0.0080,-78.7500,40.8000,-20.8500,4.1800,3.6300,-8.0100,0.0000,0.0000,0.0000,-25.0625,-32.0625,8.0000,285.6250,25.3125,-156.1250,0
73.260,2.0566,5.9137,-7.7141,0.0000,0.0216,0.0027,-14.1000,23.5500,-9.1500,9.2512,1.5275,-2.6073,-0.0221,-0.0043,0.0083,-79.3500,41.8500,-20.7000,4.1800,3.6300,-8.0100,0.0000,0.0000,0.0000,-25.0625,-32.0625,8.0000,285.6250,25.3125,-156.1250,0
73.268,2.0016,5.8802,-7.7907,0.0040,0.0264,-0.0016,-14.1000,23.5500,-9.1500,9.2177,1.4700,-2.6935,-0.0256,-0.0075,0.0077,-78.9000,41.4000,-20.2500,4.1800,3.6300,-8.0400,0.0011,-0.0011,-0.0033,-25.0625,-32.0625,8.0000,285.6250,25.3125,-156.1250,0
73.273,2.0016,5.8802,-7.7907,0.0040,0.0264,-0.0016,-11.2500,23.2500,-9.6000,9.2177,1.4700,-2.6935,-0.0256,-0.0075,0.0077,-78.9000,41.4000,-20.2500,4.1800,3.6300,-8.0400,0.0000,0.0000,-0.0011,-24.6875,-32.5000,8.0000,285.6250,25.3125,-156.1250,0
73.279,1.9297,5.8610,-7.8266,0.0043,0.0293,-0.0011,-11.2500,23.2500,-9.6000,9.2201,1.5443,-2.6671,-0.0234,-0.0051,0.0067,-79.3500,41.8500,-19.9500,4.1800,3.6500,-8.0200,0.0000,0.0000,-0.0011,-24.6875,-32.5000,8.0000,285.6250,25.3125,-156.1250,0
73.288,1.9201,5.8155,-7.7835,0.0016,0.0280,-0.0019,-12.7500,22.6500,-9.3000,9.2440,1.5227,-2.7054,-0.0288,-0.0085,0.0099,-78.3000,43.2000,-20.5500,4.1700,3.6200,-8.0300,0.0022,-0.0022,-0.0022,-24.6875,-32.5000,8.0000,285.6250,25.3125,-156.1250,0
73.298,1.9010,5.8059,-7.7812,-0.0043,0.0317,-0.0011,-12.7500,22.6500,-9.3000,9.2847,1.5538,-2.7078,-0.0322,-0.0061,0.0131,-78.4500,42.1500,-19.9500,4.1800,3.6100,-8.0700,0.0000,-0.0022,-0.0022,-24.6875,-32.5000,8.0000,285.6250,25.3125,-156.1250,0
73.307,1.9920,5.7724,-7.7859,-0.0104,0.0298,0.0000,-11.8500,23.5500,-8.5500,9.2703,1.4748,-2.7294,-0.0402,-0.0091,0.0131,-78.4500,42.1500,-19.9500,4.1700,3.6200,-8.0200,-0.0011,-0.0022,-0.0033,-24.6875,-32.5000,8.0000,285.6250,25.3125,-156.1250,0
73.314,1.9920,5.7724,-7.7859,-0.0104,0.0298,0.0000,-12.7500,22.9500,-9.7500,9.2703,1.4748,-2.7294,-0.0402,-0.0091,0.0131,-78.4500,42.1500,-19.9500,4.1700,3.6200,-8.0200,-0.0022,-0.0011,-0.0022,-24.6875,-32.5000,8.0000,285.6250,25.3125,-156.1250,0
73.319,1.9225,5.7604,-7.7692,-0.0163,0.0309,0.0027,-12.7500,24.4500,-8.2500,9.2249,1.5251,-2.6695,-0.0338,-0.0037,0.0128,-77.4000,43.3500,-20.2500,4.1600,3.6400,-8.0200,-0.0022,-0.0011,-0.0022,-24.6875,-32.5000,8.0000,285.6250,25.3125,-156.1250,0
73.324,1.9225,5.7604,-7.7692,-0.0163,0.0309,0.0027,-12.7500,24.4500,-8.2500,9.1961,1.4916,-2.7988,-0.0338,-0.0037,0.0128,-77.4000,43.3500,-20.2500,4.1800,3.6300,-8.0100,-0.0022,-0.0022,-0.0011,-25.7500,-32.7500,7.1875,285.6250,25.3125,-156.1250,0
73.329,1.9776,5.7748,-7.7835,-0.0157,0.0304,0.0008,-12.3000,23.2500,-8.5500,9.1961,1.4916,-2.7988,-0.0381,-0.0008,0.0029,-77.4000,43.3500,-20.2500,4.1800,3.6300,-8.0100,-0.0022,-0.0022,-0.0011,-25.7500,-32.7500,7.1875,285.6250,25.3125,-156.1250,0
73.338,1.9800,5.8706,-7.8410,-0.0181,0.0362,0.0059,-12.3000,23.2500,-8.5500,9.2057,1.4772,-2.7557,-0.0421,-0.0061,0.0096,-78.3000,42.4500,-19.8000,4.1700,3.6300,-8.0100,-0.0022,-0.0011,-0.0011,-25.7500,-32.7500,7.1875,285.6250,25.3125,-156.1250,0
73.348,1.8866,5.8012,-7.8003,-0.0157,0.0328,0.0005,-12.1500,24.1500,-8.7000,9.2344,1.4940,-2.7174,-0.0466,0.0019,0.0059,-78.3000,42.4500,-19.8000,4.1800,3.6300,-8.0400,-0.0033,-0.0011,0.0011,-25.7500,-32.7500,7.1875,285.6250,25.3125,-156.1250,0
73.355,1.9752,5.8275,-7.7883,-0.0195,0.0322,0.0029,-12.1500,24.1500,-8.7000,9.2033,1.4748,-2.7557,-0.0421,0.0056,0.0109,-78.9000,41.4000,-21.0000,4.1700,3.6100,-8.0200,-0.0033,-0.0011,-0.0022,-25.7500,-32.7500,7.1875,285.6250,25.3125,-156.1250,0
73.360,1.9752,5.8275,-7.7883,-0.0195,0.0322,0.0029,-11.4000,23.4000,-9.3000,9.2033,1.4748,-2.7557,-0.0421,0.0056,0.0109,-78.4500,41.8500,-20.2500,4.1700,3.6100,-8.0200,-0.0033,-0.0011,-0.0022,-25.7500,-32.7500,7.1875,285.6250,25.3125,-156.1250,0
73.369,1.9848,5.8658,-7.7285,-0.0224,0.0237,0.0021,-11.8500,23.2500,-9.6000,9.2201,1.5945,-2.6887,-0.0400,0.0099,0.0045,-79.3500,42.1500,-19.2000,4.1900,3.6100,-8.0400,-0.0076,0.0033,-0.0011,-25.7500,-32.7500,7.1875,285.6250,25.3125,-156.1250,0
73.374,1.8818,5.8802,-7.7428,-0.0282,0.0261,0.0011,-11.8500,23.2500,-9.6000,9.2129,1.6137,-2.7150,-0.0314,0.0093,0.0027,-79.3500,42.1500,-19.2000,4.1900,3.6100,-8.0400,-0.0076,0.0033,-0.0022,-25.0625,-32.0625,8.0000,285.6250,25.3125,-156.1250,0
73.379,1.8818,5.8802,-7.7428,-0.0282,0.0261,0.0011,-12.3000,25.0500,-9.1500,9.2129,1.6137,-2.7150,-0.0314,0.0093,0.0027,-78.9000,40.9500,-19.9500,4.1700,3.6500,-8.0200,-0.0076,0.0033,-0.0022,-25.0625,-32.0625,8.0000,285.6250,25.3125,-156.1250,0
73.388,2.0231,5.8754,-7.7859,-0.0253,0.0203,-0.0045,-12.6000,23.2500,-7.8000,9.2153,1.6305,-2.6695,-0.0296,0.0056,-0.0005,-78.9000,40.9500,-19.9500,4.1700,3.6400,-8.0200,-0.0087,0.0011,-0.0011,-25.0625,-32.0625,8.0000,285.6250,25.3125,-156.1250,0
73.398,1.9609,5.9065,-7.7405,-0.0256,0.0290,-0.0040,-12.6000,23.2500,-7.8000,9.1961,1.5874,-2.6432,-0.0216,0.0109,0.0013,-78.4500,40.9500,-20.2500,4.1800,3.6400,-8.0200,-0.0076,0.0011,0.0011,-25.0625,-32.0625,8.0000,285.6250,25.3125,-156.1250,0
73.405,1.9728,5.8251,-7.7165,-0.0221,0.0320,0.0016,-12.6000,23.2500,-7.8000,9.2249,1.5850,-2.6839,-0.0125,0.0112,-0.0008,-78.4500,40.9500,-20.2500,4.1700,3.6500,-8.0400,-0.0065,0.0022,0.0011,-25.0625,-32.0625,8.0000,285.6250,25.3125,-156.1250,0
73.410,1.9728,5.8251,-7.7165,-0.0221,0.0320,0.0016,-12.3000,23.2500,-9.9000,9.2249,1.5850,-2.6839,-0.0125,0.0112,-0.0008,-79.0500,41.5500,-20.1000,4.1700,3.6500,-8.0400,-0.0065,0.0022,0.0011,-25.0625,-32.0625,8.0000,285.6250,25.3125,-156.1250,0
73.419,2.0135,5.8730,-7.7476,-0.0240,0.0338,-0.0024,-11.8500,22.8000,-8.5500,9.2512,1.6017,-2.6145,-0.0165,0.0112,-0.0056,-79.0500,41.5500,-20.1000,4.1800,3.6400,-8.0200,-0.0065,0.0011,-0.0011,-25.0625,-32.0625,8.0000,285.6250,25.3125,-156.1250,0
73.423,2.0063,5.8849,-7.7045,-0.0179,0.0376,-0.0040,-11.8500,22.8000,-8.5500,9.2464,1.4988,-2.6264,-0.0163,0.0107,-0.0016,-78.9000,41.8500,-20.7000,4.1800,3.6400,-8.0200,-0.0076,0.0033,0.0000,-25.7500,-33.5000,6.7500,285.6250,25.3125,-156.1250,0
73.429,2.0063,5.8849,-7.7045,-0.0179,0.0376,-0.0040,-9.9000,23.7000,-8.2500,9.2464,1.4988,-2.6264,-0.0163,0.0107,-0.0016,-80.4000,41.8500,-20.2500,4.1700,3.6100,-8.0300,-0.0076,0.0033,0.0000,-25.7500,-33.5000,6.7500,285.6250,25.3125,-156.1250,0
73.438,1.9345,5.9352,-7.6782,-0.0192,0.0405,-0.0019,-11.2500,23.2500,-9.1500,9.2512,1.5131,-2.6288,-0.0296,0.0045,0.0035,-80.4000,41.8500,-20.2500,4.1800,3.6200,-8.0300,-0.0065,0.0055,0.0011,-25.7500,-33.5000,6.7500,285.6250,25.3125,-156.1250,0
73.448,2.0518,5.9376,-7.6567,-0.0171,0.0341,-0.0016,-10.9500,22.9500,-8.2500,9.2680,1.4988,-2.6217,-0.0408,0.0061,0.0021,-80.2500,42.7500,-20.1000,4.1800,3.6200,-8.0200,-0.0065,0.0044,0.0000,-25.7500,-33.5000,6.7500,285.6250,25.3125,-156.1250,0
73.456,2.0614,5.9568,-7.7452,-0.0133,0.0328,0.0013,-10.9500,22.9500,-8.2500,9.2249,1.5012,-2.6384,-0.0528,0.0059,0.0069,-79.8000,42.0000,-19.8000,4.1900,3.6300,-8.0300,-0.0087,0.0011,0.0011,-25.7500,-33.5000,6.7500,285.6250,25.3125,-156.1250,0
73.461,2.0183,5.8873,-7.6543,-0.0144,0.0322,-0.0067,-10.9500,22.9500,-8.2500,9.2751,1.5443,-2.6767,-0.0490,0.0059,0.0051,-80.5500,42.0000,-20.1000,4.1900,3.6300,-8.0300,-0.0087,0.0011,0.0011,-25.7500,-33.5000,6.7500,285.6250,25.3125,-156.1250,0
73.469,2.0183,5.8873,-7.6543,-0.0144,0.0322,-0.0067,-12.6000,23.2500,-8.5500,9.2273,1.5874,-2.6624,-0.0525,-0.0003,0.0125,-80.5500,42.0000,-20.1000,4.2000,3.6500,-8.0400,-0.0087,0.0033,0.0000,-25.7500,-33.5000,6.7500,285.6250,25.3125,-156.1250,0
73.474,1.9848,5.8921,-7.6710,-0.0226,0.0280,-0.0027,-12.6000,23.2500,-8.5500,9.2273,1.5874,-2.6624,-0.0525,-0.0003,0.0125,-80.5500,42.0000,-20.1000,4.2000,3.6500,-8.0400,-0.0087,-0.0011,-0.0033,-25.7500,-32.7500,7.5625,285.6250,25.3125,-156.1250,0
73.479,1.9848,5.8921,-7.6710,-0.0226,0.0280,-0.0027,-11.2500,24.3000,-9.1500,9.2153,1.5993,-2.6695,-0.0485,0.0083,0.0069,-79.6500,43.3500,-19.5000,4.1900,3.6500,-8.0400,-0.0087,-0.0011,-0.0033,-25.7500,-32.7500,7.5625,285.6250,25.3125,-156.1250,0
73.488,1.9561,5.9113,-7.6471,-0.0266,0.0240,0.0019,-12.3000,24.3000,-8.8500,9.2201,1.6017,-2.6600,-0.0386,0.0051,0.0053,-79.6500,43.3500,-19.5000,4.1700,3.6500,-8.0100,-0.0076,-0.0011,0.0000,-25.7500,-32.7500,7.5625,285.6250,25.3125,-156.1250,0
73.498,2.0255,5.9256,-7.7189,-0.0298,0.0216,-0.0043,-11.7000,22.6500,-8.7000,9.2057,1.5754,-2.6456,-0.0256,0.0040,0.0067,-79.6500,43.3500,-19.5000,4.1800,3.6500,-8.0200,-0.0065,-0.0022,0.0000,-25.7500,-32.7500,7.5625,285.6250,25.3125,-156.1250,0
73.507,1.9632,5.8921,-7.6686,-0.0256,0.0203,-0.0040,-11.2500,21.7500,-9.1500,9.2560,1.5778,-2.6312,-0.0256,0.0040,0.0067,-78.9000,42.6000,-19.9500,4.1800,3.6300,-8.0200,-0.0055,-0.0022,0.0000,-25.7500,-32.7500,7.5625,285.6250,25.3125,-156.1250,0
73.511,2.0016,6.0047,-7.6926,-0.0258,0.0221,-0.0043,-11.2500,21.7500,-9.1500,9.2560,1.5778,-2.6312,-0.0248,0.0091,0.0077,-78.3000,42.4500,-19.8000,4.1800,3.6300,-8.0200,-0.0055,-0.0022,0.0000,-25.7500,-32.7500,7.5625,285.6250,25.3125,-156.1250,0
73.519,1.9249,6.0501,-7.6638,-0.0274,0.0280,-0.0075,-11.2500,21.7500,-9.1500,9.2177,1.6233,-2.6671,-0.0264,0.0109,0.0069,-78.3000,42.4500,-19.8000,4.2000,3.6400,-8.0200,-0.0044,0.0044,-0.0011,-25.7500,-32.7500,7.5625,285.6250,25.3125,-156.1250,0
73.524,1.9249,6.0501,-7.6638,-0.0274,0.0280,-0.0075,-11.2500,21.7500,-9.1500,9.2177,1.6233,-2.6671,-0.0264,0.0109,0.0069,-78.1500,41.8500,-19.9500,4.2000,3.6400,-8.0200,-0.0033,0.0000,0.0000,-25.7500,-32.5000,7.1875,285.6250,25.3125,-156.1250,0
73.529,1.8842,6.1004,-7.7141,-0.0040,0.0322,-0.0056,-12.3000,22.8000,-9.1500,9.2153,1.6640,-2.5163,-0.0120,0.0091,0.0061,-78.1500,41.8500,-19.9500,4.1800,3.6600,-8.0500,-0.0033,0.0000,0.0000,-25.7500,-32.5000,7.1875,285.6250,25.3125,-156.1250,0
73.538,1.9609,5.9352,-7.7883,-0.0075,0.0144,0.0016,-12.1500,23.4000,-9.3000,9.2632,1.6017,-2.5283,0.0091,0.0139,-0.0008,-78.3000,41.5500,-19.8000,4.1800,3.6600,-7.9800,-0.0011,0.0000,0.0000,-25.7500,-32.5000,7.1875,285.6250,25.3125,-156.1250,0
73.548,1.9800,5.9113,-7.8650,-0.0013,0.0048,0.0040,-13.3500,23.5500,-9.6000,9.2488,1.6017,-2.5881,0.0120,0.0253,0.0069,-78.3000,41.5500,-19.8000,4.2200,3.6500,-8.0300,0.0044,-0.0022,-0.0022,-25.7500,-32.5000,7.1875,285.6250,25.3125,-156.1250,0
73.556,1.9800,5.9113,-7.8650,-0.0013,0.0048,0.0040,-12.1500,22.9500,-9.0000,9.2560,1.6472,-2.4948,0.0322,0.0285,0.0037,-78.1500,42.6000,-19.5000,4.2200,3.6300,-8.0300,0.0109,0.0000,-0.0065,-25.7500,-32.5000,7.1875,285.6250,25.3125,-156.1250,0
73.561,2.0111,5.9520,-7.6878,0.0045,-0.0136,-0.0024,-12.1500,22.9500,-9.0000,9.2560,1.6472,-2.4948,0.0322,0.0285,0.0037,-78.1500,42.6000,-19.5000,4.2200,3.6300,-8.0300,0.0109,0.0000,-0.0065,-25.7500,-32.5000,7.1875,285.6250,25.3125,-156.1250,0
73.569,1.9537,5.9472,-7.6207,0.0056,-0.0197,-0.0147,-12.1500,22.9500,-9.0000,9.2895,1.7071,-2.4684,0.0344,0.0120,0.0056,-78.1500,42.6000,-19.5000,4.1900,3.6700,-8.0200,0.0131,0.0000,-0.0087,-25.7500,-32.5000,7.1875,285.6250,25.3125,-156.1250,0
73.574,1.9537,5.9472,-7.6207,0.0056,-0.0197,-0.0147,-12.1500,22.9500,-9.0000,9.1961,1.7286,-2.6552,0.0344,0.0120,0.0056,-79.3500,41.8500,-20.2500,4.1900,3.6700,-8.0200,0.0196,0.0011,-0.0098,-25.5000,-32.5000,7.1875,285.6250,25.3125,-156.1875,0
73.579,2.0063,5.8586,-7.5944,-0.0234,-0.0192,-0.0165,-11.7000,21.9000,-8.7000,9.1961,1.7286,-2.6552,0.0136,0.0179,0.0168,-79.3500,41.8500,-20.2500,4.2200,3.6200,-7.9700,0.0196,0.0011,-0.0098,-25.5000,-32.5000,7.1875,285.6250,25.3125,-156.1875,0
73.589,1.9249,5.8514,-7.5178,-0.0624,0.0051,-0.0120,-12.6000,24.0000,-9.6000,9.1866,1.8459,-2.7102,0.0189,0.0360,0.0328,-80.1000,41.8500,-19.2000,4.2400,3.5200,-8.0500,0.0262,0.0055,-0.0142,-25.5000,-32.5000,7.1875,285.6250,25.3125,-156.1875,0
73.597,1.9537,6.0454,-7.4843,-0.0874,0.0320,-0.0147,-11.4000,23.4000,-9.0000,9.2296,1.9489,-2.6959,0.0352,0.0338,0.0336,-79.0500,41.5500,-19.0500,4.2100,3.5500,-8.1200,0.0251,-0.0011,-0.0185,-25.5000,-32.5000,7.1875,285.5625,25.3125,-156.1875,0
73.601,1.9537,6.0454,-7.4843,-0.0874,0.0320,-0.0147,-11.4000,23.4000,-9.0000,9.2296,1.9489,-2.6959,0.0352,0.0338,0.0336,-80.1000,41.8500,-20.2500,4.2100,3.5500,-8.1200,0.0251,-0.0011,-0.0185,-25.5000,-32.5000,7.1875,285.5625,25.3125,-156.1875,0
73.609,1.9106,6.1746,-7.5489,-0.0922,0.0522,-0.0285,-11.4000,22.9500,-9.7500,9.2416,1.8890,-2.6384,0.0610,0.0354,0.0288,-80.1000,41.8500,-20.2500,4.1200,3.6600,-8.0400,0.0262,-0.0044,-0.0218,-25.5000,-32.5000,7.1875,285.5625,25.3125,-156.1875,0
73.617,1.9273,6.3087,-7.5346,-0.0775,0.0706,-0.0384,-13.5000,22.6500,-10.0500,9.1866,1.8747,-2.6695,0.0874,0.0250,0.0301,-78.7500,42.4500,-20.5500,4.1100,3.7300,-7.9800,0.0273,-0.0033,-0.0131,-25.5000,-32.5000,7.1875,285.5625,25.3125,-156.1875,0
73.621,1.9273,6.3087,-7.5346,-0.0775,0.0706,-0.0384,-13.5000,22.6500,-10.0500,9.1866,1.8747,-2.6695,0.0874,0.0250,0.0301,-79.5000,42.4500,-19.8000,4.1100,3.7300,-7.9800,0.0273,-0.0033,-0.0131,-25.5000,-32.5000,7.1875,285.5625,25.3125,-156.1875,0
73.626,2.0399,6.3183,-7.5034,-0.0578,0.0917,-0.0421,-13.5000,22.6500,-10.0500,9.2129,1.6951,-2.6049,0.0957,0.0229,0.0312,-79.5000,42.4500,-19.8000,4.1200,3.6900,-8.0100,0.0349,0.0000,-0.0065,-24.2500,-31.6875,8.3750,285.5625,25.3125,-156.2500,0
73.631,2.0399,6.3183,-7.5034,-0.0578,0.0917,-0.0421,-13.5000,22.6500,-10.0500,9.2751,1.5275,-2.6145,0.0957,0.0229,0.0312,-79.5000,42.4500,-19.8000,4.1200,3.6900,-8.0100,0.0349,0.0000,-0.0065,-24.2500,-31.6875,8.3750,285.5625,25.3125,-156.2500,0
73.636,1.9848,6.2872,-7.5681,-0.0168,0.0967,-0.0426,-12.6000,23.5500,-9.1500,9.2751,1.5275,-2.6145,0.0719,0.0080,0.0293,-79.5000,42.4500,-19.8000,4.1400,3.6400,-8.0000,0.0415,0.0033,0.0033,-24.2500,-31.6875,8.3750,285.5625,25.3125,-156.2500,0
73.641,1.9848,6.2872,-7.5681,-0.0168,0.0967,-0.0426,-12.6000,23.5500,-9.1500,9.3015,1.4676,-2.5283,0.0719,0.0080,0.0293,-79.3500,43.0500,-19.9500,4.1400,3.6400,-8.0000,0.0415,0.0033,0.0033,-24.2500,-31.6875,8.3750,285.5625,25.3125,-156.2500,0
73.649,2.0566,6.3494,-7.6064,0.0272,0.0815,-0.0456,-12.3000,24.7500,-8.5500,9.3015,1.4676,-2.5283,0.0392,-0.0051,0.0464,-79.3500,43.0500,-19.9500,4.1500,3.6300,-8.0300,0.0425,0.0011,0.0098,-24.2500,-31.6875,8.3750,285.5625,25.3125,-156.3125,0
73.659,2.0853,6.2848,-7.6327,0.0621,0.0722,-0.0466,-11.7000,23.7000,-8.2500,9.2703,1.3719,-2.5857,0.0059,-0.0173,0.0597,-79.3500,43.0500,-19.9500,4.1700,3.5900,-8.0200,0.0447,0.0011,0.0175,-24.2500,-31.6875,8.3750,285.5625,25.3125,-156.3125,0
73.666,2.0063,6.2560,-7.6686,0.0890,0.0554,-0.0480,-12.7500,23.7000,-9.3000,9.2464,1.4030,-2.5594,-0.0269,-0.0229,0.0679,-78.4500,42.6000,-19.9500,4.2000,3.5900,-8.0600,0.0425,-0.0011,0.0185,-24.2500,-31.6875,8.3750,285.5625,25.3125,-156.3125,0
