timestamp,thigh_acc_x,thigh_acc_y,thigh_acc_z,thigh_gyro_x,thigh_gyro_y,thigh_gyro_z,thigh_mag_x,thigh_mag_y,thigh_mag_z,shank_acc_x,shank_acc_y,shank_acc_z,shank_gyro_x,shank_gyro_y,shank_gyro_z,shank_mag_x,shank_mag_y,shank_mag_z,foot_acc_x,foot_acc_y,foot_acc_z,foot_gyro_x,foot_gyro_y,foot_gyro_z,foot_mag_x,foot_mag_y,foot_mag_z,foot_euler_x,foot_euler_y,foot_euler_z,perturbation_event
373.469,9.3733,2.3487,0.7685,0.0349,0.0011,-0.0136,-49.6500,12.3000,21.3000,9.6007,1.4126,0.1077,-0.0197,0.0083,-0.0059,-64.3500,25.9500,-15.3000,3.0400,4.2900,-8.0900,-0.0349,0.0284,0.0055,-23.0625,-23.3750,13.1875,227.1250,19.0000,-151.5000,0
373.473,9.3733,2.3487,0.7685,0.0349,0.0011,-0.0136,-49.6500,12.3000,21.3000,9.6271,1.4341,0.1365,-0.0141,0.0085,-0.0045,-64.3500,25.9500,-15.3000,3.0400,4.3100,-8.1000,-0.0349,0.0284,0.0055,-23.0625,-23.3750,13.1875,227.1250,19.0000,-151.5000,0
373.478,9.3541,2.3798,0.7709,0.0266,0.0163,-0.0179,-49.6500,12.3000,21.3000,9.6271,1.4341,0.1365,-0.0141,0.0085,-0.0045,-64.8000,26.5500,-13.6500,3.0200,4.3000,-8.1100,-0.0349,0.0251,0.0055,-23.0625,-23.3750,13.1875,227.1250,19.0000,-151.5000,0
373.483,9.3541,2.3798,0.7709,0.0266,0.0163,-0.0179,-49.9500,12.9000,22.9500,9.6534,1.4174,0.1460,-0.0072,0.0088,-0.0069,-64.8000,26.5500,-13.6500,3.0200,4.3000,-8.1100,-0.0349,0.0251,0.0055,-23.0625,-23.3750,13.1875,227.1250,19.0625,-151.4375,0
373.492,9.4212,2.4684,0.8188,0.0250,0.0237,-0.0045,-49.9500,12.9000,22.9500,9.6367,1.4700,0.1772,0.0064,0.0061,-0.0043,-63.1500,26.7000,-14.5500,3.0400,4.3600,-8.0600,-0.0338,0.0262,0.0033,-23.0625,-23.3750,13.1875,227.1250,19.0625,-151.4375,0
373.500,9.4523,2.4397,0.8787,0.0384,0.0290,-0.0067,-49.9500,11.7000,21.9000,9.6199,1.3360,0.2418,0.0160,0.0112,-0.0085,-63.9000,24.4500,-14.2500,3.0000,4.3000,-8.0800,-0.0251,0.0196,0.0011,-23.0625,-23.3750,13.1875,227.1250,19.0625,-151.4375,0
373.505,9.5193,2.4421,0.9122,0.0621,0.0333,0.0024,-49.5000,13.2000,22.9500,9.6199,1.3360,0.2418,0.0160,0.0112,-0.0085,-63.9000,24.4500,-14.2500,3.0000,4.3000,-8.0800,-0.0251,0.0196,0.0011,-23.0625,-23.3750,13.1875,227.1250,19.0625,-151.4375,0
373.510,9.5193,2.4421,0.9122,0.0621,0.0333,0.0024,-49.5000,13.2000,22.9500,9.7061,1.1660,0.3232,0.0389,0.0083,-0.0101,-64.6500,25.5000,-14.2500,3.0400,4.3200,-8.0900,-0.0251,0.0273,0.0044,-22.6875,-23.3750,12.3750,227.1250,19.0625,-151.4375,0
373.515,9.5289,2.4565,0.9194,0.0895,0.0365,0.0160,-49.3500,12.0000,22.8000,9.7061,1.1660,0.3232,0.0389,0.0083,-0.0101,-64.6500,25.5000,-14.2500,3.0400,4.3200,-8.0900,-0.0251,0.0273,0.0044,-22.6875,-23.3750,12.3750,227.1250,19.0625,-151.4375,0
373.519,9.5289,2.4565,0.9194,0.0895,0.0365,0.0160,-49.3500,12.0000,22.8000,9.6462,1.0247,0.2203,0.0037,0.0131,-0.0107,-64.3500,26.4000,-14.2500,3.0400,4.2900,-8.1000,-0.0251,0.0218,0.0011,-22.6875,-23.3750,12.3750,227.1250,19.0625,-151.4375,0
373.524,9.4882,2.3128,0.8380,0.1191,0.0325,0.0306,-49.2000,10.9500,22.5000,9.6462,1.0247,0.2203,0.0037,0.0131,-0.0107,-64.3500,26.4000,-14.2500,3.0400,4.2900,-8.1000,-0.0251,0.0218,0.0011,-22.6875,-23.3750,12.3750,227.1250,19.0625,-151.4375,0
373.529,9.4882,2.3128,0.8380,0.1191,0.0325,0.0306,-49.2000,10.9500,22.5000,9.6558,0.8428,0.2753,-0.0701,0.0203,-0.0168,-64.3500,26.4000,-14.2500,3.0300,4.2100,-8.1700,-0.0295,0.0207,0.0000,-22.6875,-23.3750,12.3750,227.1250,19.0625,-151.4375,0
373.533,9.4906,2.2625,0.8954,0.1487,0.0325,0.0450,-49.2000,10.9500,22.5000,9.6558,0.8428,0.2753,-0.0701,0.0203,-0.0168,-64.3500,26.4000,-14.2500,3.0300,4.2100,-8.1700,-0.0295,0.0207,0.0000,-22.6875,-23.3750,12.3750,227.1250,19.0625,-151.4375,0
373.542,9.4906,2.2625,0.8954,0.1487,0.0325,0.0450,-50.2500,13.2000,21.9000,9.6893,1.0487,0.2682,-0.1092,-0.0029,-0.0184,-63.7500,25.0500,-13.9500,3.0300,4.1700,-8.1600,-0.0349,0.0153,0.0044,-22.6875,-23.3750,12.3750,227.1250,19.0625,-151.3750,0
373.547,9.4140,2.1931,0.8284,0.1687,0.0304,0.0520,-50.2500,13.2000,21.9000,9.6750,1.3144,0.2610,-0.0938,-0.0171,-0.0195,-63.7500,25.0500,-13.9500,3.0300,4.1700,-8.1600,-0.0393,0.0098,0.0076,-22.6875,-23.3750,12.3750,227.1250,19.0625,-151.3750,0
373.553,9.5026,2.1715,0.7590,0.1839,0.0370,0.0552,-50.8500,12.7500,22.3500,9.6750,1.3144,0.2610,-0.0938,-0.0171,-0.0195,-63.4500,27.1500,-15.3000,3.0200,4.1900,-8.1100,-0.0393,0.0098,0.0076,-22.6875,-23.3750,12.3750,227.1250,19.0625,-151.3750,0
373.558,9.5026,2.1715,0.7590,0.1839,0.0370,0.0552,-50.8500,12.7500,22.3500,9.6055,1.4557,0.3041,-0.0477,-0.0216,-0.0184,-65.5500,26.1000,-13.6500,3.0200,4.1900,-8.1100,-0.0513,0.0098,0.0065,-22.7500,-23.6875,12.6875,227.1875,19.0625,-151.3750,0
373.563,9.4786,2.1165,0.7207,0.2113,0.0304,0.0685,-50.2500,13.2000,22.2000,9.6055,1.4557,0.3041,-0.0477,-0.0216,-0.0184,-65.5500,26.1000,-13.6500,3.0300,4.2500,-8.0800,-0.0513,0.0098,0.0065,-22.7500,-23.6875,12.6875,227.1875,19.0625,-151.3750,0
373.568,9.4786,2.1165,0.7207,0.2113,0.0304,0.0685,-50.2500,13.2000,22.2000,9.5241,1.4078,0.0479,-0.0075,-0.0141,-0.0229,-65.5500,26.1000,-13.6500,3.0300,4.2500,-8.0800,-0.0589,0.0109,0.0000,-22.7500,-23.6875,12.6875,227.1875,19.0625,-151.3125,0
373.573,9.5361,2.1572,0.6321,0.2518,0.0405,0.0757,-50.2500,12.9000,22.9500,9.5241,1.4078,0.0479,-0.0075,-0.0141,-0.0229,-65.4000,25.5000,-14.2500,3.0700,4.3000,-8.1000,-0.0589,0.0109,0.0000,-22.7500,-23.6875,12.6875,227.1875,19.0625,-151.3125,0
373.578,9.5361,2.1572,0.6321,0.2518,0.0405,0.0757,-50.2500,12.9000,22.9500,9.6367,1.3216,0.1197,0.0195,-0.0091,-0.0234,-63.9000,27.4500,-13.0500,3.0700,4.3000,-8.1000,-0.0644,0.0153,0.0011,-22.7500,-23.6875,12.6875,227.1875,19.0625,-151.3125,0
373.583,9.5792,2.1404,0.6464,0.2848,0.0408,0.0773,-50.2500,12.9000,22.9500,9.6367,1.3216,0.1197,0.0195,-0.0091,-0.0234,-63.9000,27.4500,-13.0500,3.0400,4.2900,-8.1400,-0.0644,0.0153,0.0011,-22.7500,-23.6875,12.6875,227.1875,19.0625,-151.2500,0
373.593,9.5170,2.1069,0.6345,0.2974,0.0384,0.0815,-50.2500,11.7000,23.5500,9.7037,1.1516,0.1101,0.0091,-0.0149,-0.0237,-64.0500,26.1000,-14.7000,3.0300,4.2500,-8.1100,-0.0720,0.0185,0.0022,-22.7500,-23.6875,12.6875,227.1875,19.0625,-151.2500,0
373.597,9.5170,2.1069,0.6345,0.2974,0.0384,0.0815,-50.2500,11.7000,23.5500,9.6654,1.2785,0.1484,-0.0029,-0.0157,-0.0176,-64.0500,26.1000,-14.7000,3.0300,4.2500,-8.1100,-0.0840,0.0229,0.0000,-22.7500,-23.6875,12.6875,227.1875,19.0625,-151.1875,0
373.603,9.5385,2.0542,0.6153,0.2984,0.0330,0.0746,-49.3500,13.5000,21.6000,9.6295,1.3671,0.2251,-0.0029,-0.0157,-0.0176,-64.0500,26.1000,-14.7000,3.0500,4.2400,-8.1100,-0.0840,0.0229,0.0000,-22.7500,-23.6875,12.6875,227.1875,19.0625,-151.1875,0
373.608,9.5385,2.0542,0.6153,0.2984,0.0330,0.0746,-49.3500,13.5000,21.6000,9.6295,1.3671,0.2251,-0.0245,-0.0011,-0.0258,-64.0500,26.1000,-14.7000,3.0300,4.3100,-8.0700,-0.0982,0.0196,0.0033,-22.7500,-24.3750,12.3750,227.1875,19.0625,-151.1875,0
373.613,9.5529,2.0566,0.6345,0.2984,0.0349,0.0701,-48.9000,12.7500,22.0500,9.6582,1.5610,0.1413,-0.0245,-0.0011,-0.0258,-64.0500,25.3500,-14.7000,3.0300,4.3100,-8.0700,-0.0982,0.0196,0.0033,-22.7500,-24.3750,12.3750,227.1875,19.0625,-151.1875,0
373.618,9.5529,2.0566,0.6345,0.2984,0.0349,0.0701,-48.9000,12.7500,22.0500,9.6582,1.5610,0.1413,-0.0442,-0.0080,-0.0304,-64.0500,25.3500,-14.7000,3.0300,4.3100,-8.0700,-0.0982,0.0196,0.0033,-22.7500,-24.3750,12.3750,227.1875,19.0625,-151.1250,0
373.623,9.4284,2.0039,0.6800,0.2734,0.0354,0.0610,-50.4000,13.0500,21.3000,9.5553,1.6759,0.2107,-0.0442,-0.0080,-0.0304,-63.7500,25.3500,-13.9500,3.0400,4.4100,-7.9900,-0.0873,0.0273,0.0044,-22.7500,-24.3750,12.3750,227.1875,19.0625,-151.1250,0
373.628,9.4284,2.0039,0.6800,0.2734,0.0354,0.0610,-50.4000,13.0500,21.3000,9.5553,1.6759,0.2107,0.0208,-0.0096,-0.0352,-63.7500,25.3500,-13.9500,3.0400,4.4100,-7.9900,-0.0731,0.0251,0.0055,-22.7500,-24.3750,12.3750,227.1875,19.1250,-151.0625,0
373.633,9.4164,1.9609,0.6656,0.2324,0.0466,0.0554,-49.9500,12.1500,21.4500,9.5289,1.6807,0.3280,0.0592,-0.0088,-0.0397,-63.9000,25.9500,-13.5000,3.0100,4.4800,-7.9700,-0.0731,0.0251,0.0055,-22.7500,-24.3750,12.3750,227.1875,19.1250,-151.0625,0
373.643,9.3925,1.9489,0.6584,0.1647,0.0573,0.0592,-49.9500,12.1500,21.4500,9.7085,1.3743,0.2394,0.0592,-0.0088,-0.0397,-64.5000,27.3000,-13.6500,3.0500,4.4500,-8.0100,-0.0611,0.0338,0.0076,-22.7500,-24.3750,12.3750,227.1875,19.1250,-151.0625,0
373.649,9.3925,1.9489,0.6584,0.1647,0.0573,0.0592,-49.9500,12.1500,21.4500,9.7085,1.3743,0.2394,0.0418,-0.0200,-0.0221,-62.5500,26.1000,-14.4000,3.0800,4.4400,-8.0000,-0.0524,0.0295,0.0087,-22.7500,-24.3750,12.3750,227.1875,19.1250,-151.0000,0
373.654,9.3805,1.9297,0.7829,0.1034,0.0727,0.0578,-49.9500,12.9000,20.7000,9.6582,1.3264,0.2131,0.0330,-0.0266,-0.0218,-62.5500,26.1000,-14.4000,3.0800,4.4400,-8.0000,-0.0524,0.0295,0.0087,-22.7500,-24.3750,12.3750,227.1875,19.1250,-151.0000,0
373.659,9.3805,1.9297,0.7829,0.1034,0.0727,0.0578,-49.9500,12.9000,20.7000,9.6582,1.3264,0.2131,0.0330,-0.0266,-0.0218,-62.5500,26.1000,-14.4000,3.0800,4.4400,-8.0000,-0.0436,0.0251,0.0033,-23.5625,-24.0000,12.3750,227.1875,19.1250,-151.0000,0
373.664,9.5193,1.9680,0.7781,0.0490,0.0655,0.0653,-50.2500,12.4500,21.1500,9.7157,1.1660,0.2993,0.0120,-0.0378,-0.0211,-64.6500,25.5000,-14.5500,3.0800,4.3800,-8.0200,-0.0436,0.0251,0.0033,-23.5625,-24.0000,12.3750,227.1875,19.1250,-151.0000,0
373.668,9.5193,1.9680,0.7781,0.0490,0.0655,0.0653,-50.2500,12.4500,21.1500,9.7157,1.1660,0.2993,0.0120,-0.0378,-0.0211,-64.6500,25.5000,-14.5500,3.0800,4.3800,-8.0200,-0.0436,0.0251,0.0033,-23.5625,-24.0000,12.3750,227.1875,19.1250,-150.9375,0
373.673,9.5385,1.9656,0.7853,0.0069,0.0671,0.0741,-50.8500,12.3000,21.6000,9.6941,1.1756,0.2227,-0.0272,-0.0458,-0.0346,-64.6500,25.5000,-14.5500,3.0300,4.3800,-8.0400,-0.0404,0.0229,0.0022,-23.5625,-24.0000,12.3750,227.1875,19.1250,-150.9375,0
373.678,9.5385,1.9656,0.7853,-0.0013,0.0624,0.0703,-50.8500,12.3000,21.6000,9.6941,1.1756,0.2227,-0.0272,-0.0458,-0.0346,-64.6500,25.5000,-14.5500,3.0300,4.3800,-8.0400,-0.0360,0.0185,0.0055,-23.5625,-24.0000,12.3750,227.1875,19.1250,-150.9375,0
373.683,9.4571,1.9082,0.7997,-0.0013,0.0624,0.0703,-49.2000,13.2000,21.9000,9.7181,1.0582,0.1867,-0.0482,-0.0442,-0.0306,-63.1500,26.4000,-14.8500,3.0600,4.3500,-8.0600,-0.0360,0.0185,0.0055,-23.5625,-24.0000,12.3750,227.1875,19.1250,-150.9375,0
373.692,9.4978,1.8316,0.7709,0.0139,0.0743,0.0746,-49.2000,13.2000,21.9000,9.6079,1.2809,0.1963,-0.0490,-0.0477,-0.0298,-63.1500,26.4000,-14.8500,3.0300,4.3700,-8.0400,-0.0360,0.0185,0.0044,-23.5625,-24.0000,12.3750,227.1875,19.1250,-150.9375,0
373.698,9.4763,1.9393,0.7183,0.0477,0.0605,0.0858,-49.2000,13.2000,21.9000,9.6079,1.2809,0.1963,-0.0490,-0.0477,-0.0298,-63.1500,26.4000,-14.8500,3.0300,4.3700,-8.0400,-0.0371,0.0164,0.0065,-23.5625,-24.0000,12.3750,227.1875,19.1875,-150.8750,0
373.704,9.4763,1.9393,0.7183,0.0477,0.0605,0.0858,-49.2000,13.2000,21.9000,9.6007,1.4700,0.0048,-0.0360,-0.0533,-0.0301,-63.0000,26.5500,-13.9500,3.0600,4.2800,-8.0700,-0.0371,0.0164,0.0065,-23.5625,-24.0000,12.3750,227.1875,19.1875,-150.8750,0
373.709,9.5481,2.0734,0.5411,0.0901,0.0493,0.0837,-49.2000,13.2000,21.9000,9.6007,1.4700,0.0048,-0.0360,-0.0533,-0.0301,-63.0000,26.5500,-13.9500,3.0700,4.2900,-8.0500,-0.0382,0.0175,0.0065,-23.1875,-24.0000,12.3750,227.1875,19.1875,-150.8750,0
373.714,9.5481,2.0734,0.5411,0.0901,0.0493,0.0837,-48.9000,12.7500,21.6000,9.5864,1.6520,-0.1125,0.0197,-0.0413,-0.0290,-63.7500,27.3000,-14.7000,3.0700,4.2900,-8.0500,-0.0382,0.0175,0.0065,-23.1875,-24.0000,12.3750,227.1875,19.1875,-150.8750,0
373.719,9.5720,2.1931,0.4310,0.1231,0.0434,0.0821,-48.9000,12.7500,21.6000,9.4739,1.7454,-0.0982,0.0197,-0.0413,-0.0290,-63.7500,27.3000,-14.7000,3.0700,4.2900,-8.0500,-0.0425,0.0218,0.0055,-23.1875,-24.0000,12.3750,227.1875,19.1875,-150.8750,0
373.723,9.5720,2.1931,0.4310,0.1231,0.0434,0.0821,-50.5500,12.9000,21.4500,9.4739,1.7454,-0.0982,0.0677,-0.0328,-0.0226,-64.3500,27.1500,-16.0500,3.0600,4.2900,-8.0600,-0.0425,0.0218,0.0055,-23.1875,-24.0000,12.3750,227.1875,19.1875,-150.8750,0
373.728,9.6079,2.3128,0.3424,0.1428,0.0322,0.0677,-50.5500,12.9000,21.4500,9.5600,1.7238,-0.0096,0.0677,-0.0328,-0.0226,-64.3500,27.1500,-16.0500,3.0600,4.2900,-8.0600,-0.0436,0.0251,0.0022,-23.1875,-24.0000,12.3750,227.1875,19.1875,-150.8125,0
373.733,9.6079,2.3128,0.3424,0.1428,0.0322,0.0677,-48.3000,13.0500,22.0500,9.5600,1.7238,-0.0096,0.0853,-0.0242,-0.0269,-64.0500,26.1000,-13.2000,3.0600,4.4000,-8.0100,-0.0436,0.0251,0.0022,-23.1875,-24.0000,12.3750,227.1875,19.1875,-150.8125,0
373.743,9.5337,2.3152,0.3496,0.1274,0.0328,0.0493,-48.0000,13.2000,20.7000,9.5122,1.6807,0.0383,0.0738,-0.0221,-0.0232,-64.0500,26.1000,-13.2000,3.0400,4.4700,-7.9600,-0.0404,0.0240,0.0044,-23.1875,-24.0000,12.3750,227.1875,19.1875,-150.8125,0
373.750,9.6079,2.3128,0.4573,0.0887,0.0309,0.0293,-48.0000,13.2000,20.7000,9.5840,1.5634,-0.0048,0.0520,-0.0296,-0.0125,-64.0500,26.1000,-13.2000,3.0400,4.4800,-7.9500,-0.0349,0.0251,0.0044,-23.1875,-24.0000,12.3750,227.1875,19.1875,-150.8125,0
373.755,9.6079,2.3128,0.4573,0.0887,0.0309,0.0293,-48.0000,13.2000,20.7000,9.5840,1.5634,-0.0048,0.0520,-0.0296,-0.0125,-63.9000,26.7000,-14.8500,3.0400,4.4800,-7.9500,-0.0349,0.0251,0.0044,-23.1875,-24.0000,12.3750,227.1875,19.1875,-150.8125,0
373.759,9.4810,2.2625,0.5866,0.0602,0.0402,0.0288,-49.2000,12.9000,21.4500,9.6151,1.4150,0.1437,0.0147,-0.0304,-0.0125,-63.9000,26.7000,-14.8500,3.0600,4.5100,-7.9300,-0.0251,0.0218,0.0033,-23.5625,-24.7500,13.5625,227.1875,19.1875,-150.7500,0
373.764,9.4810,2.2625,0.5866,0.0602,0.0402,0.0288,-49.2000,12.9000,21.4500,9.6151,1.4150,0.1437,0.0147,-0.0304,-0.0125,-63.9000,26.7000,-14.8500,3.0600,4.5100,-7.9300,-0.0251,0.0218,0.0033,-23.5625,-24.7500,13.5625,227.1875,19.1875,-150.7500,0
373.769,9.4308,2.2194,0.7949,0.0131,0.0453,0.0269,-49.3500,13.0500,21.0000,9.6582,1.3144,0.0790,-0.0392,-0.0314,-0.0099,-63.9000,26.7000,-14.8500,3.0600,4.4200,-8.0100,-0.0218,0.0218,0.0044,-23.5625,-24.7500,13.5625,227.1875,19.1875,-150.7500,0
373.774,9.4308,2.2194,0.7949,0.0131,0.0453,0.0269,-49.3500,13.0500,21.0000,9.6582,1.3144,0.0790,-0.0392,-0.0314,-0.0099,-63.3000,26.5500,-15.4500,3.0600,4.4200,-8.0100,-0.0218,0.0218,0.0044,-23.5625,-24.7500,13.5625,227.1875,19.1875,-150.7500,0
373.779,9.3470,2.3056,0.8475,-0.0096,0.0413,0.0242,-48.4500,12.1500,21.4500,9.5816,1.4174,-0.1077,-0.0666,-0.0301,-0.0011,-63.3000,26.5500,-15.4500,3.0900,4.4100,-7.9800,-0.0131,0.0142,0.0044,-23.5625,-24.7500,13.5625,227.1875,19.1875,-150.7500,0
373.784,9.3470,2.3056,0.8475,-0.0096,0.0413,0.0242,-48.4500,12.1500,21.4500,9.5816,1.4174,-0.1077,-0.0666,-0.0301,-0.0011,-63.7500,27.3000,-15.4500,3.0900,4.4100,-7.9800,-0.0131,0.0142,0.0044,-23.5625,-24.7500,13.5625,227.1875,19.1875,-150.7500,0
373.793,9.3398,2.3343,0.7781,0.0008,0.0434,0.0240,-49.3500,14.2500,21.3000,9.5122,1.6305,-0.3304,-0.0424,-0.0277,0.0064,-64.8000,27.7500,-14.7000,3.0800,4.4000,-7.9800,-0.0098,0.0120,-0.0011,-23.5625,-24.7500,13.5625,227.1875,19.1875,-150.7500,0
373.799,9.4451,2.4157,0.5794,0.0333,0.0293,0.0293,-49.3500,14.2500,21.3000,9.4236,1.8747,-0.3807,-0.0032,-0.0136,0.0029,-64.8000,27.7500,-14.7000,3.0700,4.3800,-8.0400,-0.0076,0.0153,-0.0033,-23.5625,-24.7500,13.5625,227.1875,19.2500,-150.7500,0
373.804,9.4451,2.4157,0.5794,0.0906,0.0056,0.0226,-49.3500,14.2500,21.3000,9.4236,1.8747,-0.3807,-0.0032,-0.0136,0.0029,-63.9000,27.4500,-15.3000,3.0700,4.3800,-8.0400,-0.0076,0.0153,-0.0033,-23.5625,-24.7500,13.5625,227.1875,19.2500,-150.7500,0
373.809,9.5984,2.6624,0.3711,0.0906,0.0056,0.0226,-49.3500,14.2500,21.3000,9.4379,1.9201,-0.4357,0.0637,0.0109,-0.0011,-63.9000,27.4500,-15.3000,3.0400,4.3900,-7.9800,-0.0044,0.0164,-0.0044,-23.1875,-24.0000,13.1875,227.1875,19.2500,-150.7500,0
373.814,9.6774,2.7054,0.2849,0.1503,-0.0168,0.0064,-49.3500,14.2500,21.3000,9.4379,1.9201,-0.4357,0.0637,0.0109,-0.0011,-64.0500,27.0000,-13.9500,3.0400,4.3900,-7.9800,-0.0044,0.0164,-0.0044,-23.1875,-24.0000,13.1875,227.1875,19.2500,-150.7500,0
373.822,9.6774,2.7054,0.2849,0.1503,-0.0168,0.0064,-49.6500,12.7500,21.0000,9.4188,1.8531,-0.3759,0.1338,0.0277,0.0043,-63.9000,28.3500,-13.0500,3.0500,4.4400,-7.9600,-0.0011,0.0207,-0.0044,-23.1875,-24.0000,13.1875,227.1875,19.2500,-150.7500,0
373.828,9.7372,2.7318,0.2107,0.1921,-0.0328,-0.0139,-50.4000,14.5500,21.3000,9.4403,1.7717,-0.2729,0.1641,0.0453,0.0035,-63.9000,28.3500,-13.0500,3.0500,4.4400,-7.9600,0.0033,0.0240,-0.0033,-23.1875,-24.0000,13.1875,227.1875,19.2500,-150.7500,0
373.834,9.7755,2.4924,0.3065,0.2097,-0.0552,-0.0418,-50.4000,14.5500,21.3000,9.4403,1.7717,-0.2729,0.1641,0.0453,0.0035,-63.9000,28.3500,-13.0500,3.0600,4.4400,-7.9900,0.0033,0.0240,-0.0033,-23.1875,-24.0000,13.1875,227.1875,19.2500,-150.7500,0
373.843,9.6989,2.3224,0.3591,0.2156,-0.0799,-0.0685,-49.2000,12.4500,21.1500,9.4691,1.4605,-0.3567,0.1338,0.0661,0.0093,-64.0500,25.8000,-15.9000,3.0600,4.3900,-8.0000,0.0087,0.0218,-0.0033,-23.1875,-24.0000,13.1875,227.1875,19.2500,-150.7500,0
373.849,9.6989,2.3224,0.3591,0.2156,-0.0799,-0.0685,-49.9500,14.7000,22.9500,9.5074,1.2139,-0.3663,0.0608,0.0687,0.0195,-64.0500,25.8000,-15.9000,3.1000,4.3800,-7.9900,0.0098,0.0207,-0.0033,-23.1875,-24.0000,13.1875,227.1875,19.2500,-150.7500,0
373.854,9.7540,2.2051,0.4525,0.2009,-0.1023,-0.1002,-49.9500,14.7000,22.9500,9.5193,1.2115,-0.3831,0.0608,0.0687,0.0195,-63.1500,27.4500,-14.2500,3.1000,4.3800,-7.9900,0.0098,0.0207,-0.0033,-23.1875,-24.0000,13.1875,227.1875,19.2500,-150.7500,0
373.859,9.7540,2.2051,0.4525,0.2009,-0.1023,-0.1002,-49.9500,14.7000,22.9500,9.5193,1.2115,-0.3831,-0.0144,0.0663,0.0245,-63.1500,27.4500,-14.2500,3.0800,4.3900,-8.0000,0.0164,0.0153,-0.0065,-23.5625,-24.7500,12.7500,227.1875,19.2500,-150.7500,0
373.864,9.7851,2.1093,0.5267,0.2068,-0.1300,-0.1343,-49.9500,14.7000,22.9500,9.5696,1.1923,-0.4262,-0.0922,0.0725,0.0346,-63.1500,27.9000,-15.6000,3.0800,4.3900,-8.0000,0.0164,0.0153,-0.0065,-23.5625,-24.7500,12.7500,227.1875,19.2500,-150.7500,0
373.873,9.7971,2.0518,0.5004,0.2057,-0.1466,-0.1716,-51.3000,12.9000,21.1500,9.5696,1.3001,-0.3112,-0.0922,0.0725,0.0346,-64.5000,24.6000,-13.6500,3.0600,4.3300,-8.0400,0.0120,0.0120,-0.0065,-23.5625,-24.7500,12.7500,227.1875,19.2500,-150.7500,0
373.879,9.7971,2.0518,0.5004,0.2057,-0.1466,-0.1716,-50.4000,13.5000,22.0500,9.5696,1.3001,-0.3112,-0.1188,0.0946,0.0362,-64.5000,24.6000,-13.6500,3.0600,4.3500,-8.0300,0.0120,0.0109,-0.0011,-23.5625,-24.7500,12.7500,227.1250,19.2500,-150.7500,0
373.884,9.6055,2.0327,0.2418,0.2278,-0.1724,-0.2006,-50.4000,13.5000,22.0500,9.4667,1.3408,-0.3974,-0.1330,0.1082,0.0293,-63.3000,25.8000,-14.7000,3.0600,4.3500,-8.0300,0.0120,0.0109,-0.0011,-23.5625,-24.7500,12.7500,227.1250,19.2500,-150.7500,0
373.893,9.4236,1.9609,-0.1269,0.2803,-0.1743,-0.2220,-49.9500,13.2000,21.9000,9.4834,1.5347,-0.3735,-0.0951,0.1284,0.0229,-64.6500,25.5000,-14.2500,3.0600,4.3400,-8.0300,0.0109,0.0120,-0.0022,-23.5625,-24.7500,12.7500,227.1250,19.2500,-150.8125,0
373.898,9.4236,1.9609,-0.1269,0.2803,-0.1743,-0.2220,-49.3500,12.7500,19.2000,9.4834,1.5347,-0.3735,-0.0951,0.1284,0.0229,-64.6500,25.5000,-14.2500,3.0600,4.3400,-8.0300,0.0120,0.0098,0.0011,-23.5625,-24.7500,12.7500,227.1250,19.2500,-150.8125,0
373.904,9.3182,2.0830,-0.3711,0.3022,-0.1636,-0.2217,-49.3500,12.7500,19.2000,9.4499,1.7286,-0.3208,-0.0621,0.1418,0.0192,-64.6500,25.5000,-14.2500,3.0600,4.3500,-8.0200,0.0120,0.0098,0.0011,-23.5625,-24.7500,12.7500,227.1250,19.2500,-150.8125,0
373.909,9.3182,2.0830,-0.3711,0.3022,-0.1636,-0.2217,-48.0000,12.9000,20.4000,9.4499,1.7286,-0.3208,-0.0621,0.1418,0.0192,-64.6500,25.5000,-14.2500,3.0700,4.3700,-7.9900,0.0131,0.0120,0.0011,-22.3750,-24.0000,13.5625,227.1250,19.2500,-150.8125,0
373.914,9.3685,2.2434,-0.4166,0.2683,-0.1524,-0.2137,-48.0000,12.9000,20.4000,9.3877,1.7909,-0.2203,0.0165,0.1583,0.0149,-64.0500,27.0000,-14.7000,3.0700,4.3700,-7.9900,0.0131,0.0120,0.0011,-22.3750,-24.0000,13.5625,227.1250,19.2500,-150.8125,0
373.923,9.3565,2.4253,-0.3855,0.1908,-0.1356,-0.2094,-48.0000,12.9000,20.4000,9.4308,1.7885,-0.1269,0.0701,0.1788,0.0107,-64.0500,27.0000,-14.7000,3.0900,4.3800,-8.0100,0.0164,0.0131,0.0000,-22.3750,-24.0000,13.5625,227.1250,19.2500,-150.8125,0
373.931,9.4020,2.5402,-0.2873,0.0898,-0.1140,-0.2300,-49.9500,12.1500,20.7000,9.5313,1.4533,-0.1508,0.0701,0.1788,0.0107,-64.0500,27.0000,-14.7000,3.0900,4.4100,-7.9700,0.0240,0.0142,-0.0022,-22.3750,-24.0000,13.5625,227.1250,19.2500,-150.8125,0
373.936,9.4020,2.5402,-0.2873,0.0898,-0.1140,-0.2300,-48.7500,13.9500,20.4000,9.5313,1.4533,-0.1508,0.0895,0.1847,0.0144,-63.4500,25.9500,-13.8000,3.0900,4.4100,-7.9700,0.0240,0.0142,-0.0022,-22.3750,-24.0000,13.5625,227.1250,19.3125,-150.8125,0
373.943,9.5744,2.5570,-0.2131,0.0285,-0.0970,-0.2353,-48.7500,13.9500,20.4000,9.6606,1.0606,-0.0359,0.0741,0.1958,0.0147,-64.5000,27.3000,-13.6500,3.0400,4.4300,-7.9900,0.0316,0.0142,-0.0055,-22.3750,-24.0000,13.5625,227.1250,19.3125,-150.8125,0
373.952,9.5265,2.4708,-0.1437,0.0357,-0.0991,-0.2454,-48.6000,13.5000,20.5500,9.6462,0.9409,0.0407,0.0045,0.2014,0.0269,-63.3000,26.1000,-14.7000,3.0900,4.3600,-8.0300,0.0295,0.0185,-0.0065,-22.3750,-24.0000,13.5625,227.1250,19.3125,-150.8750,0
373.957,9.5265,2.4708,-0.1437,0.0357,-0.0991,-0.2454,-49.6500,13.5000,20.5500,9.6462,0.9409,0.0407,0.0045,0.2014,0.0269,-63.3000,26.1000,-14.7000,3.0900,4.3600,-8.0300,0.0295,0.0185,-0.0065,-22.3750,-24.0000,13.5625,227.1250,19.3125,-150.8750,0
373.962,9.4427,2.4756,0.0383,0.0986,-0.0951,-0.2483,-49.6500,13.5000,20.5500,9.5840,1.0774,-0.1341,-0.0839,0.2065,0.0282,-63.3000,26.1000,-14.7000,3.1000,4.2900,-8.0700,0.0273,0.0120,-0.0076,-23.8750,-24.7500,12.3750,227.1250,19.3125,-150.8750,0
373.967,9.4427,2.4756,0.0383,0.0986,-0.0951,-0.2483,-49.6500,13.5000,20.5500,9.5840,1.0774,-0.1341,-0.0839,0.2065,0.0282,-64.5000,27.0000,-14.4000,3.1000,4.2900,-8.0700,0.0273,0.0120,-0.0076,-23.8750,-24.7500,12.3750,227.1250,19.3125,-150.8750,0
373.971,9.5289,2.4756,-0.0287,0.1700,-0.0858,-0.2361,-49.6500,13.5000,20.5500,9.5553,1.2426,-0.1748,-0.0895,0.2164,0.0256,-64.5000,27.0000,-14.4000,3.0600,4.3600,-8.0500,0.0251,0.0120,-0.0033,-23.8750,-24.7500,12.3750,227.1250,19.3125,-150.8750,0
373.976,9.5289,2.4756,-0.0287,0.1700,-0.0858,-0.2361,-49.5000,13.2000,19.6500,9.5553,1.2426,-0.1748,-0.0895,0.2164,0.0256,-64.5000,27.0000,-14.4000,3.0600,4.3600,-8.0500,0.0251,0.0120,-0.0033,-23.8750,-24.7500,12.3750,227.1250,19.3125,-150.9375,0
373.984,9.4451,2.5163,-0.2729,0.2673,-0.0786,-0.2353,-49.5000,13.2000,19.6500,9.6175,1.3862,-0.0239,-0.0717,0.2254,0.0187,-63.0000,27.3000,-13.2000,3.0400,4.3400,-8.0700,0.0240,0.0109,-0.0022,-23.8750,-24.7500,12.3750,227.1250,19.3125,-150.9375,0
373.993,9.3877,2.6049,-0.4429,0.3144,-0.0727,-0.2228,-48.7500,13.6500,21.1500,9.5289,1.4700,0.0431,-0.0485,0.2318,0.0083,-63.0000,27.3000,-13.2000,3.0600,4.3700,-8.0600,0.0207,0.0120,0.0022,-23.8750,-24.7500,12.3750,227.1250,19.3125,-150.9375,0
373.998,9.2177,2.7988,-0.4884,0.3254,-0.0506,-0.2148,-49.5000,14.4000,20.1000,9.5050,1.6089,0.0359,-0.0485,0.2318,0.0083,-63.0000,27.3000,-13.2000,3.0600,4.3700,-8.0600,0.0164,0.0164,0.0055,-23.8750,-24.7500,12.3750,227.1250,19.3125,-150.9375,0
374.004,9.2177,2.7988,-0.4884,0.3254,-0.0506,-0.2148,-50.5500,13.6500,18.3000,9.5050,1.6089,0.0359,-0.0011,0.2494,0.0115,-63.9000,25.2000,-13.8000,3.0400,4.3300,-8.0200,0.0164,0.0164,0.0055,-23.8750,-24.7500,12.3750,227.1250,19.3125,-150.9375,0
374.009,9.0884,3.0909,-0.3567,0.3163,-0.0405,-0.2052,-50.5500,13.6500,18.3000,9.5050,1.7957,0.1006,0.0448,0.2697,0.0149,-63.9000,25.2000,-13.8000,3.0400,4.3300,-8.0200,0.0175,0.0251,0.0131,-23.0625,-23.6875,13.1875,227.1250,19.3125,-150.9375,0
374.014,9.0884,3.0909,-0.3567,0.3163,-0.0405,-0.2052,-49.9500,14.4000,19.3500,9.5050,1.7957,0.1006,0.0448,0.2697,0.0149,-63.9000,26.7000,-14.2500,3.1300,4.3600,-8.0400,0.0175,0.0251,0.0131,-23.0625,-23.6875,13.1875,227.1250,19.3125,-150.9375,0
374.019,9.2440,3.3327,0.1963,0.2814,-0.0264,-0.2001,-49.9500,14.4000,19.3500,9.4284,1.9800,0.0311,0.0727,0.2830,0.0141,-63.9000,26.7000,-14.2500,3.1300,4.3600,-8.0400,0.0196,0.0218,0.0098,-23.0625,-23.6875,13.1875,227.1250,19.3125,-150.9375,0
374.024,9.2440,3.3327,0.1963,0.2814,-0.0264,-0.2001,-49.9500,14.4000,19.3500,9.4284,1.9800,0.0311,0.0727,0.2830,0.0141,-64.6500,27.1500,-14.2500,3.0900,4.3700,-8.0200,0.0196,0.0218,0.0098,-23.0625,-23.6875,13.1875,227.1250,19.3125,-150.9375,0
374.029,9.5984,3.5937,0.5962,0.2547,-0.0232,-0.1985,-49.9500,14.4000,19.3500,9.4355,1.7957,-0.0192,0.1236,0.2968,0.0229,-64.6500,27.1500,-14.2500,3.0800,4.4500,-7.9800,0.0251,0.0229,0.0076,-23.0625,-23.6875,13.1875,227.0625,19.3125,-150.9375,0
374.034,9.5984,3.5937,0.5962,0.2547,-0.0232,-0.1985,-49.5000,14.7000,20.4000,9.4355,1.7957,-0.0192,0.1236,0.2968,0.0229,-64.0500,26.5500,-13.9500,3.0800,4.4500,-7.9800,0.0251,0.0229,0.0076,-23.0625,-23.6875,13.1875,227.0625,19.3125,-151.0000,0
374.043,9.7803,3.7445,0.7183,0.2907,-0.0021,-0.2513,-49.9500,13.6500,20.4000,9.5193,1.5969,-0.0431,0.1199,0.3072,0.0349,-64.5000,26.1000,-13.2000,3.0900,4.4000,-7.9700,0.0295,0.0218,0.0044,-23.0625,-23.6875,13.1875,227.0625,19.3125,-151.0000,0
374.051,9.7683,3.3471,0.5435,0.3469,0.0360,-0.3107,-49.9500,13.6500,20.4000,9.7276,1.0582,0.2825,0.1045,0.3123,0.0466,-64.5000,26.1000,-13.2000,3.0500,4.4500,-7.9500,0.0382,0.0098,-0.0011,-23.0625,-23.6875,13.1875,227.0625,19.3125,-151.0000,0
374.056,9.4978,3.3351,-0.3759,0.5295,-0.0285,-0.3877,-48.7500,13.2000,20.7000,9.7420,0.9553,0.8739,0.0562,0.2992,0.0517,-64.8000,28.5000,-12.4500,3.0500,4.4500,-7.9500,0.0382,0.0098,-0.0011,-23.0625,-23.6875,13.1875,227.0625,19.3125,-151.0000,0
374.061,9.4978,3.3351,-0.3759,0.5295,-0.0285,-0.3877,-48.7500,13.2000,20.7000,9.7420,0.9553,0.8739,0.0562,0.2992,0.0517,-64.8000,28.5000,-12.4500,2.9900,4.4300,-8.0100,0.0393,0.0087,0.0000,-22.6875,-24.0000,13.1875,227.0625,19.3125,-151.0000,0
374.066,8.5665,4.0654,-0.9266,0.4999,-0.1804,-0.4860,-48.6000,13.8000,20.2500,9.4858,1.2857,0.8140,-0.0722,0.2729,0.0624,-64.8000,28.5000,-12.4500,2.9900,4.4300,-8.0100,0.0393,0.0087,0.0000,-22.6875,-24.0000,13.1875,227.0625,19.3125,-151.0000,0
374.071,8.5665,4.0654,-0.9266,0.4999,-0.1804,-0.4860,-48.6000,13.8000,20.2500,9.4858,1.2857,0.8140,-0.0722,0.2729,0.0624,-64.8000,28.5000,-12.4500,3.1000,4.3100,-8.1000,0.0327,0.0055,0.0109,-22.6875,-24.0000,13.1875,227.0625,19.3125,-151.0625,0
374.075,7.7285,3.1819,0.9768,0.2438,0.0413,-0.4170,-48.6000,13.8000,20.2500,9.3182,1.7573,0.5770,-0.0706,0.3019,0.0658,-63.9000,27.4500,-14.2500,3.1000,4.3100,-8.1000,0.0327,0.0055,0.0109,-22.6875,-24.0000,13.1875,227.0625,19.3125,-151.0625,0
374.081,7.7285,3.1819,0.9768,0.2438,0.0413,-0.4170,-48.6000,13.8000,20.2500,9.3182,1.7573,0.5770,-0.0706,0.3019,0.0658,-63.9000,27.4500,-14.2500,3.2000,4.3300,-8.0600,0.0338,0.0087,0.0153,-22.6875,-24.0000,13.1875,227.0625,19.3125,-151.0625,0
374.086,8.2097,1.6113,1.3168,0.3040,0.3203,-0.1793,-48.6000,13.8000,20.2500,9.4475,2.0901,0.4118,0.0173,0.3147,0.0557,-62.5500,25.8000,-13.6500,3.2000,4.3300,-8.0600,0.0338,0.0087,0.0153,-22.6875,-24.0000,13.1875,227.0625,19.3125,-151.1250,0
374.094,8.2097,1.6113,1.3168,0.3040,0.3203,-0.1793,-47.8500,13.5000,20.5500,9.4020,2.1644,0.5100,0.0173,0.3147,0.0557,-63.7500,28.0500,-12.4500,3.1500,4.4200,-7.9800,0.0436,-0.0011,0.0022,-22.6875,-24.0000,13.1875,227.0625,19.3125,-151.1250,0
374.102,8.9040,1.6161,0.1437,0.5875,0.2268,-0.0538,-47.8500,13.5000,20.5500,9.4020,2.1644,0.5100,0.1290,0.3147,0.0474,-63.7500,28.0500,-12.4500,3.0900,4.5300,-7.9700,0.0611,-0.0098,-0.0033,-22.6875,-24.0000,13.1875,227.0625,19.3125,-151.1250,0
374.107,9.2033,2.3559,-0.5124,0.6323,0.0624,-0.0173,-48.4500,13.9500,20.1000,9.5241,1.9154,0.6560,0.2132,0.2976,0.0608,-63.9000,26.4000,-13.5000,3.0900,4.5300,-7.9700,0.0611,-0.0098,-0.0033,-22.6875,-24.0000,13.1875,227.0625,19.3125,-151.1250,0
374.112,9.2033,2.3559,-0.5124,0.6323,0.0624,-0.0173,-48.4500,13.9500,20.1000,9.5241,1.9154,0.6560,0.2132,0.2976,0.0608,-63.9000,26.4000,-13.5000,3.1000,4.4700,-7.9700,0.0720,-0.0207,-0.0087,-23.5625,-24.0000,12.0000,227.0625,19.3125,-151.1875,0
374.116,9.6558,3.2585,0.1772,0.5228,0.0485,-0.0309,-48.3000,13.8000,20.2500,9.4715,1.6568,0.7853,0.2817,0.2979,0.0626,-64.6500,27.4500,-14.2500,3.1000,4.4700,-7.9700,0.0720,-0.0207,-0.0087,-23.5625,-24.0000,12.0000,227.0625,19.3125,-151.1875,0
374.121,9.6558,3.2585,0.1772,0.5228,0.0485,-0.0309,-48.3000,13.8000,20.2500,9.4715,1.6568,0.7853,0.2817,0.2979,0.0626,-64.6500,27.4500,-14.2500,3.0800,4.4400,-7.9900,0.0840,-0.0316,-0.0142,-23.5625,-24.0000,12.0000,227.0625,19.3125,-151.1875,0
374.126,9.9192,3.6464,0.7829,0.5399,0.1029,-0.0871,-47.8500,14.5500,21.3000,9.6462,1.2498,1.0415,0.2771,0.2926,0.0578,-63.9000,27.1500,-12.3000,3.0800,4.4400,-7.9900,0.0840,-0.0316,-0.0142,-23.5625,-24.0000,12.0000,227.0625,19.3125,-151.1875,0
374.131,9.9192,3.6464,0.7829,0.5399,0.1029,-0.0871,-47.8500,14.5500,21.3000,9.6462,1.2498,1.0415,0.2771,0.2926,0.0578,-63.9000,27.1500,-12.3000,3.0200,4.4400,-8.0600,0.0938,-0.0393,-0.0185,-23.5625,-24.0000,12.0000,227.0625,19.2500,-151.2500,0
374.136,9.7276,2.6145,1.2665,0.5710,0.1407,-0.1023,-47.8500,14.5500,21.3000,9.8378,0.9409,1.7334,0.2878,0.2673,0.0637,-63.9000,27.1500,-12.3000,3.0200,4.4400,-8.0600,0.0938,-0.0393,-0.0185,-23.5625,-24.0000,12.0000,227.0000,19.2500,-151.3125,0
374.144,9.5337,1.6305,1.2186,0.7474,0.0722,-0.0386,-48.4500,14.4000,19.3500,9.8689,0.7350,1.8699,0.2238,0.2209,0.0632,-63.9000,27.1500,-12.3000,3.0400,4.3800,-8.0900,0.1014,-0.0382,-0.0131,-23.5625,-24.0000,12.0000,227.0000,19.2500,-151.3125,0
374.151,9.5337,1.6305,1.2186,0.7474,0.0722,-0.0386,-48.4500,14.4000,19.3500,9.8689,0.7350,1.8699,0.2238,0.2209,0.0632,-64.0500,26.5500,-12.9000,3.1400,4.2200,-8.1400,0.1014,-0.0447,-0.0065,-23.5625,-24.0000,12.0000,227.0000,19.1875,-151.3750,0
374.155,9.3446,1.2402,0.7925,0.8458,0.1092,0.0107,-47.7000,14.4000,20.1000,9.8521,0.5483,1.5514,0.1583,0.1945,0.0600,-64.0500,26.5500,-12.9000,3.1400,4.2200,-8.1400,0.1014,-0.0447,-0.0065,-23.5625,-24.0000,12.0000,227.0000,19.1875,-151.3750,0
374.160,9.3446,1.2402,0.7925,0.8458,0.1092,0.0107,-47.7000,14.4000,20.1000,9.8521,0.5483,1.5514,0.1583,0.1945,0.0600,-64.0500,26.5500,-12.9000,3.1100,4.1800,-8.1700,0.0949,-0.0436,-0.0120,-24.2500,-23.3750,13.1875,227.0000,19.1875,-151.4375,0
374.165,9.4212,1.4988,0.7973,0.6683,0.1529,0.0234,-48.0000,15.9000,19.6500,9.9311,0.8380,1.3623,0.0842,0.1559,0.0650,-63.9000,25.9500,-12.7500,3.1100,4.1800,-8.1700,0.0949,-0.0436,-0.0120,-24.2500,-23.3750,13.1875,227.0000,19.1875,-151.4375,0
374.170,9.4212,1.4988,0.7973,0.6683,0.1529,0.0234,-48.0000,15.9000,19.6500,9.9311,0.8380,1.3623,0.0842,0.1559,0.0650,-63.9000,25.9500,-12.7500,3.0400,4.2400,-8.1800,0.0862,-0.0382,-0.0142,-24.2500,-23.3750,13.1875,227.0000,19.1875,-151.5000,0
374.175,10.0341,1.6400,0.7661,0.4778,0.1543,0.0128,-48.0000,15.1500,19.6500,9.8234,1.0965,1.3001,0.0685,0.1236,0.0573,-63.3000,27.3000,-11.8500,3.0400,4.2400,-8.1800,0.0862,-0.0382,-0.0142,-24.2500,-23.3750,13.1875,227.0000,19.1875,-151.5000,0
374.180,10.0341,1.6400,0.7661,0.4778,0.1543,0.0128,-48.0000,15.1500,19.6500,9.8234,1.0965,1.3001,0.0685,0.1236,0.0573,-63.3000,27.3000,-11.8500,3.0300,4.2900,-8.1600,0.0731,-0.0338,-0.0109,-24.2500,-23.3750,13.1875,227.0000,19.1250,-151.5625,0
374.184,9.9719,1.9297,0.7638,0.4213,0.0882,0.0320,-46.5000,16.5000,17.4000,9.7396,1.1277,1.4174,0.1069,0.1095,0.0493,-65.1000,26.4000,-13.5000,3.0300,4.2900,-8.1600,0.0731,-0.0338,-0.0109,-24.2500,-23.3750,13.1875,227.0000,19.1250,-151.5625,0
374.193,9.6223,2.1500,0.5866,0.4191,0.0560,0.0608,-46.5000,16.5000,17.4000,9.8090,1.1061,1.2378,0.1324,0.0893,0.0472,-65.1000,26.4000,-13.5000,3.0400,4.2800,-8.1500,0.0611,-0.0251,-0.0044,-24.2500,-23.3750,13.1875,227.0000,19.1250,-151.5625,0
374.200,9.6223,2.1500,0.5866,0.4191,0.0560,0.0608,-46.5000,16.5000,17.4000,9.7779,1.0942,1.1085,0.1324,0.0893,0.0472,-63.1500,26.4000,-12.3000,3.0300,4.2000,-8.1700,0.0469,-0.0196,-0.0022,-24.2500,-23.3750,13.1875,227.0000,19.1250,-151.6250,0
374.205,9.6750,2.5857,0.9888,0.4234,0.0370,0.0514,-47.7000,16.2000,19.3500,9.7779,1.0942,1.1085,0.1087,0.0826,0.0501,-65.2500,27.0000,-13.2000,3.0300,4.2000,-8.1700,0.0469,-0.0196,-0.0022,-24.2500,-23.3750,13.1875,227.0000,19.1250,-151.6250,0
374.209,9.6750,2.5857,0.9888,0.4234,0.0370,0.0514,-47.7000,16.2000,19.3500,9.6893,1.2546,1.1612,0.1087,0.0826,0.0501,-65.2500,27.0000,-13.2000,3.0300,4.2000,-8.1700,0.0284,-0.0098,0.0033,-23.5000,-23.6875,13.1875,227.0000,19.1250,-151.6250,0
374.214,9.5840,2.4541,1.3001,0.3720,0.0107,0.0269,-47.8500,15.0000,18.1500,9.6893,1.2546,1.1612,0.0767,0.0594,0.0469,-65.2500,27.0000,-13.2000,3.0000,4.2800,-8.1500,0.0284,-0.0098,0.0033,-23.5000,-23.6875,13.1875,227.0000,19.1250,-151.6250,0
374.219,9.5840,2.4541,1.3001,0.3720,0.0107,0.0269,-47.8500,15.0000,18.1500,9.6702,1.3168,1.3455,0.0754,0.0394,0.0424,-64.6500,25.5000,-12.7500,3.0000,4.2800,-8.1500,0.0196,0.0065,0.0098,-23.5000,-23.6875,13.1875,227.0000,19.0625,-151.6250,0
374.224,9.5074,1.9704,0.8930,0.3070,0.0328,0.0205,-47.1000,15.3000,18.7500,9.6702,1.3168,1.3455,0.0754,0.0394,0.0424,-64.6500,25.5000,-12.7500,3.0000,4.3400,-8.0900,0.0196,0.0065,0.0098,-23.5000,-23.6875,13.1875,227.0000,19.0625,-151.6250,0
374.229,9.5074,1.9704,0.8930,0.3070,0.0328,0.0205,-47.1000,15.3000,18.7500,9.6941,1.2857,1.3312,0.0743,0.0266,0.0360,-64.6500,25.5000,-12.7500,3.0000,4.3400,-8.0900,0.0153,0.0098,0.0109,-23.5000,-23.6875,13.1875,227.0000,19.0625,-151.6875,0
374.234,9.4834,1.7980,0.7326,0.2801,0.0053,0.0320,-47.5500,15.3000,20.2500,9.6941,1.2857,1.3312,0.0743,0.0266,0.0360,-64.6500,25.5000,-12.7500,3.0800,4.3100,-8.1100,0.0153,0.0098,0.0109,-23.5000,-23.6875,13.1875,227.0000,19.0625,-151.6875,0
374.243,9.4691,2.0686,0.8021,0.2457,0.0045,0.0304,-47.5500,15.3000,20.2500,9.7971,1.2426,1.3168,0.0632,0.0088,0.0397,-63.9000,25.5000,-13.5000,3.0400,4.3100,-8.1100,0.0098,0.0044,0.0098,-23.5000,-23.6875,13.1875,227.0000,19.0625,-151.6875,0
374.251,9.4332,2.5594,1.0295,0.2038,0.0216,0.0107,-48.0000,14.4000,18.6000,9.7444,1.3072,1.1779,0.0282,-0.0131,0.0466,-63.7500,26.1000,-11.8500,3.0700,4.3000,-8.1400,0.0022,0.0087,0.0087,-23.5000,-23.6875,13.1875,227.0000,19.0625,-151.6875,0
374.255,9.4332,2.5594,1.0295,0.2038,0.0216,0.0107,-48.0000,14.4000,18.6000,9.7444,1.3072,1.1779,0.0282,-0.0131,0.0466,-63.9000,25.9500,-12.3000,3.0700,4.3000,-8.1400,0.0022,0.0087,0.0087,-23.5000,-23.6875,13.1875,227.0000,19.0625,-151.6875,0
374.260,9.4499,2.6336,0.9697,0.1657,0.0163,0.0019,-47.1000,15.7500,17.7000,9.7037,1.3862,1.1277,0.0200,-0.0250,0.0424,-63.9000,25.9500,-12.3000,3.0400,4.3200,-8.1200,-0.0044,0.0109,0.0120,-22.6875,-23.6875,14.0000,227.0000,19.0625,-151.6875,0
374.265,9.4499,2.6336,0.9697,0.1657,0.0163,0.0019,-47.1000,15.7500,17.7000,9.7037,1.3862,1.1277,0.0200,-0.0250,0.0424,-63.9000,25.9500,-12.3000,3.0400,4.3200,-8.1200,-0.0044,0.0109,0.0120,-22.6875,-23.6875,14.0000,227.0000,19.0625,-151.6875,0
374.274,9.5553,2.6169,0.6249,0.1463,-0.0229,0.0157,-47.5500,16.5000,18.4500,9.7181,1.4605,1.2617,0.0232,-0.0477,0.0485,-63.4500,25.9500,-12.3000,3.0700,4.3900,-8.0700,-0.0055,0.0098,0.0120,-22.6875,-23.6875,14.0000,227.0000,19.0625,-151.6875,0
374.282,9.5265,2.6839,0.7278,0.1234,-0.0576,0.0384,-46.5000,15.7500,18.1500,9.6678,1.2402,1.3096,0.0602,-0.0557,0.0450,-63.0000,28.5000,-12.4500,3.0400,4.3600,-8.0600,-0.0033,0.0033,0.0098,-22.6875,-23.6875,14.0000,227.0000,19.0625,-151.6875,0
374.287,9.5265,2.6839,0.7278,0.1234,-0.0576,0.0384,-46.5000,15.7500,18.1500,9.6989,1.2737,1.2594,0.0488,-0.0757,0.0432,-64.3500,27.4500,-12.0000,3.0400,4.3600,-8.0600,-0.0033,0.0033,0.0098,-22.6875,-23.6875,14.0000,227.0000,19.0625,-151.6875,0
374.294,9.5217,2.7054,0.8715,0.1100,-0.0482,0.0485,-48.3000,16.5000,18.1500,9.6989,1.2737,1.2594,0.0488,-0.0757,0.0432,-64.3500,27.4500,-12.0000,3.0400,4.3200,-8.0900,0.0011,0.0055,0.0076,-22.6875,-23.6875,14.0000,227.0000,19.0625,-151.6875,0
374.303,9.5361,2.7533,0.9146,0.1522,-0.0456,0.0560,-48.3000,16.5000,18.1500,9.7612,1.2282,1.2641,0.0530,-0.0802,0.0453,-64.3500,27.4500,-12.0000,3.0400,4.3500,-8.1100,-0.0044,0.0022,0.0076,-22.6875,-23.6875,14.0000,227.0000,19.0625,-151.6875,0
374.308,9.4715,2.7869,0.7183,0.2041,-0.0362,0.0743,-48.3000,16.5000,18.1500,9.7420,1.4796,1.2881,0.0701,-0.1055,0.0389,-64.5000,25.3500,-11.4000,3.0400,4.3500,-8.1100,-0.0044,0.0022,0.0076,-22.6875,-23.6875,14.0000,227.0000,19.0625,-151.6875,0
374.312,9.4715,2.7869,0.7183,0.2041,-0.0362,0.0743,-48.4500,16.6500,19.3500,9.7420,1.4796,1.2881,0.0701,-0.1055,0.0389,-64.5000,25.3500,-11.4000,3.0500,4.3100,-8.1300,-0.0076,0.0065,0.0055,-23.0625,-24.0000,13.5625,227.0000,19.0625,-151.6875,0
374.317,9.4475,2.9832,0.5890,0.2673,-0.0306,0.0778,-48.4500,16.6500,19.3500,9.7109,1.4916,1.1229,0.0767,-0.1167,0.0410,-63.9000,26.4000,-12.7500,3.0500,4.3100,-8.1300,-0.0076,0.0065,0.0055,-23.0625,-24.0000,13.5625,227.0000,19.0625,-151.6875,0
374.324,9.4475,2.9832,0.5890,0.2673,-0.0306,0.0778,-48.3000,14.2500,17.1000,9.7444,1.5131,1.0343,0.0767,-0.1167,0.0410,-63.9000,26.4000,-12.7500,3.0500,4.2900,-8.1400,-0.0109,0.0065,0.0087,-23.0625,-24.0000,13.5625,227.0000,19.0625,-151.6875,0
374.334,9.3757,3.1819,0.5770,0.3011,-0.0354,0.0834,-47.7000,14.7000,16.8000,9.7061,1.5562,1.1420,0.1159,-0.1191,0.0440,-64.5000,27.3000,-14.4000,3.0400,4.3500,-8.1200,-0.0153,0.0055,0.0087,-23.0625,-24.0000,13.5625,227.0000,19.0625,-151.6875,0
374.340,9.3278,3.2394,0.5555,0.3176,-0.0296,0.0850,-47.7000,15.9000,19.0500,9.7061,1.5562,1.1420,0.1220,-0.1298,0.0400,-64.5000,26.1000,-13.2000,3.0600,4.3600,-8.1300,-0.0218,0.0109,0.0065,-23.0625,-24.0000,13.5625,227.0000,19.0625,-151.6250,0
374.345,9.3278,3.2394,0.5555,0.3176,-0.0296,0.0850,-47.7000,15.9000,19.0500,9.6702,1.4317,1.0271,0.1487,-0.1356,0.0416,-64.5000,26.1000,-13.2000,3.0600,4.3600,-8.1300,-0.0218,0.0109,0.0065,-23.0625,-24.0000,13.5625,227.0000,19.0625,-151.6250,0
374.354,9.3565,3.0694,0.4645,0.3320,0.0027,0.0877,-47.7000,15.9000,19.0500,9.7133,1.5251,0.9505,0.1596,-0.1498,0.0557,-64.5000,27.0000,-13.2000,3.0400,4.3600,-8.0900,-0.0262,0.0087,0.0076,-23.0625,-24.0000,13.5625,227.0000,19.0625,-151.6250,0
374.359,9.4547,3.0335,0.5531,0.3880,-0.0152,0.0925,-47.7000,15.9000,19.0500,9.7133,1.5251,0.9505,0.1596,-0.1498,0.0557,-64.0500,27.0000,-13.9500,3.0400,4.3600,-8.0900,-0.0262,0.0087,0.0076,-23.0625,-24.0000,13.5625,227.0000,19.0625,-151.6250,0
374.364,9.4547,3.0335,0.5531,0.3880,-0.0152,0.0925,-47.7000,15.9000,19.0500,9.6486,1.5538,0.8667,0.1559,-0.1623,0.0671,-64.0500,27.0000,-13.9500,3.0500,4.3600,-8.0900,-0.0273,0.0055,0.0087,-23.5000,-23.6875,13.5625,227.0000,19.0625,-151.6250,0
374.369,9.2967,2.9640,0.5531,0.4503,-0.0226,0.0869,-47.8500,15.7500,17.1000,9.6486,1.5538,0.8667,0.1559,-0.1623,0.0671,-64.0500,27.0000,-13.9500,3.0500,4.3600,-8.0900,-0.0273,0.0055,0.0087,-23.5000,-23.6875,13.5625,227.0000,19.0625,-151.6250,0
374.374,9.2967,2.9640,0.5531,0.4503,-0.0226,0.0869,-47.8500,15.7500,17.1000,9.6391,1.7047,0.8595,0.1759,-0.1700,0.0722,-64.0500,27.0000,-13.9500,3.0400,4.3700,-8.0700,-0.0327,0.0055,0.0076,-23.5000,-23.6875,13.5625,227.0000,19.0625,-151.6250,0
374.379,9.4020,2.9592,0.7111,0.4218,-0.0152,0.0863,-47.5500,16.0500,17.7000,9.6391,1.7047,0.8595,0.1759,-0.1700,0.0722,-64.6500,25.5000,-14.2500,3.0400,4.3700,-8.0700,-0.0393,0.0153,0.0065,-23.5000,-23.6875,13.5625,227.0000,19.0625,-151.5625,0
374.385,9.2943,2.7845,0.7063,0.3853,-0.0104,0.0754,-47.5500,16.0500,17.7000,9.6103,1.6520,0.9984,0.1969,-0.1772,0.0749,-64.6500,25.5000,-14.2500,3.0800,4.3900,-8.0900,-0.0393,0.0153,0.0065,-23.5000,-23.6875,13.5625,227.0000,19.0625,-151.5625,0
374.394,9.2943,2.7845,0.7063,0.3853,-0.0104,0.0754,-46.2000,16.2000,17.5500,9.6199,1.6017,0.9936,0.2158,-0.1879,0.0794,-64.6500,25.5000,-14.2500,3.0300,4.4100,-8.0900,-0.0404,0.0164,0.0065,-23.5000,-23.6875,13.5625,227.0000,19.0625,-151.5625,0
374.400,9.4020,2.8946,0.6081,0.3648,-0.0075,0.0735,-47.4000,15.4500,19.3500,9.6199,1.6017,0.9936,0.2158,-0.1879,0.0794,-63.3000,26.5500,-13.2000,3.0700,4.4100,-8.0600,-0.0436,0.0153,0.0076,-23.5000,-23.6875,13.5625,227.0000,19.0625,-151.5000,0
374.405,9.2584,2.9975,0.6033,0.3357,-0.0184,0.0869,-47.4000,15.4500,19.3500,9.6558,1.4892,0.9529,0.2169,-0.1943,0.0930,-63.3000,26.5500,-13.2000,3.0700,4.4100,-8.0600,-0.0436,0.0153,0.0076,-23.5000,-23.6875,13.5625,227.0000,19.0625,-151.5000,0
374.410,9.2584,2.9975,0.6033,0.3357,-0.0184,0.0869,-47.4000,15.4500,19.3500,9.6558,1.4892,0.9529,0.2169,-0.1943,0.0930,-64.0500,26.5500,-13.6500,3.0700,4.4100,-8.0600,-0.0458,0.0142,0.0055,-22.6875,-23.3750,13.1875,227.0000,19.0625,-151.5000,0
374.415,9.3326,3.1268,0.5267,0.3107,-0.0093,0.0911,-47.4000,15.4500,19.3500,9.7995,1.3910,0.9026,0.2089,-0.2180,0.1098,-64.0500,26.5500,-13.6500,3.0800,4.3800,-8.0900,-0.0458,0.0142,0.0055,-22.6875,-23.3750,13.1875,227.0000,19.0625,-151.5000,0
374.420,9.3326,3.1268,0.5267,0.3107,-0.0093,0.0911,-47.8500,16.8000,17.7000,9.7995,1.3910,0.9026,0.2089,-0.2180,0.1098,-63.3000,25.0500,-13.2000,3.0800,4.3800,-8.0900,-0.0458,0.0098,0.0044,-22.6875,-23.3750,13.1875,227.0000,19.0625,-151.5000,0
374.425,9.3972,3.2609,0.5411,0.3011,-0.0109,0.0994,-47.8500,16.8000,17.7000,9.7659,1.3838,0.9026,0.2022,-0.2249,0.1212,-63.3000,25.0500,-13.2000,3.0700,4.3500,-8.1100,-0.0458,0.0098,0.0044,-22.6875,-23.3750,13.1875,227.0000,19.0625,-151.5000,0
374.430,9.3972,3.2609,0.5411,0.3011,-0.0109,0.0994,-48.0000,15.4500,17.2500,9.6798,1.4533,0.7925,0.2022,-0.2249,0.1212,-65.2500,27.3000,-14.4000,3.0700,4.3500,-8.1100,-0.0502,0.0098,0.0033,-22.6875,-23.3750,13.1875,227.0000,19.0625,-151.4375,0
374.435,9.2775,3.2537,0.4046,0.3379,-0.0136,0.1162,-48.0000,15.4500,17.2500,9.6798,1.4533,0.7925,0.1748,-0.2457,0.1364,-65.2500,27.3000,-14.4000,3.0700,4.3800,-8.1400,-0.0502,0.0098,0.0033,-22.6875,-23.3750,13.1875,227.0000,19.0625,-151.4375,0
374.444,9.3087,3.2417,0.3352,0.3834,-0.0197,0.1231,-48.7500,14.7000,17.2500,9.5888,1.6712,0.6608,0.1793,-0.2483,0.1482,-64.5000,26.5500,-13.6500,3.0500,4.3200,-8.0900,-0.0524,0.0120,0.0033,-22.6875,-23.3750,13.1875,227.0000,19.0625,-151.4375,0
374.450,9.3087,3.2417,0.3352,0.3834,-0.0197,0.1231,-46.0500,16.5000,18.4500,9.6367,1.8124,0.5507,0.2124,-0.2494,0.1591,-63.7500,27.0000,-13.2000,3.0800,4.3600,-8.1000,-0.0535,0.0131,0.0033,-22.6875,-23.3750,13.1875,227.0000,19.0625,-151.3750,0
374.455,9.2105,3.1699,0.3903,0.4018,-0.0541,0.1298,-46.0500,16.5000,18.4500,9.6367,1.8124,0.5507,0.2124,-0.2494,0.1591,-63.7500,27.0000,-13.2000,3.0800,4.3600,-8.1000,-0.0535,0.0131,0.0033,-22.6875,-23.3750,13.1875,227.0000,19.0625,-151.3750,0
374.460,9.2105,3.1699,0.3903,0.4018,-0.0541,0.1298,-46.9500,15.4500,18.3000,9.5433,1.7310,0.5363,0.2843,-0.2507,0.1599,-63.7500,27.0000,-13.2000,3.0800,4.3600,-8.1000,-0.0535,0.0131,0.0033,-23.7500,-24.3750,14.7500,227.0000,19.0625,-151.3750,0
374.465,9.2392,3.0287,0.3472,0.4394,-0.0655,0.1346,-46.9500,15.4500,18.3000,9.5433,1.7310,0.5363,0.2843,-0.2507,0.1599,-63.7500,27.0000,-13.2000,3.0700,4.4200,-8.0600,-0.0513,0.0153,0.0011,-23.7500,-24.3750,14.7500,227.0000,19.0625,-151.3750,0
374.470,9.2392,3.0287,0.3472,0.4394,-0.0655,0.1346,-46.9500,15.4500,18.3000,9.6726,1.5538,0.4932,0.3464,-0.2427,0.1588,-64.5000,26.1000,-13.6500,3.0700,4.4200,-8.0600,-0.0513,0.0153,0.0011,-23.7500,-24.3750,14.7500,227.0000,19.0625,-151.3125,0
374.475,9.2416,2.8730,0.1652,0.4732,-0.0546,0.1436,-46.9500,15.4500,18.3000,9.6726,1.5538,0.4932,0.3464,-0.2427,0.1588,-64.5000,26.1000,-13.6500,3.0800,4.5000,-8.0500,-0.0491,0.0131,0.0022,-23.7500,-24.3750,14.7500,227.0000,19.0625,-151.3125,0
374.480,9.2416,2.8730,0.1652,0.4732,-0.0546,0.1436,-46.8000,17.2500,17.1000,9.7013,1.2091,0.4812,0.3757,-0.2380,0.1641,-63.4500,25.9500,-13.5000,3.0800,4.5000,-8.0500,-0.0393,0.0120,0.0076,-23.7500,-24.3750,14.7500,227.0000,19.0625,-151.3125,0
374.485,9.4044,2.7797,0.0455,0.4898,-0.0600,0.1564,-46.8000,17.2500,17.1000,9.7013,1.2091,0.4812,0.3757,-0.2380,0.1641,-63.4500,25.9500,-13.5000,3.1000,4.4000,-8.0600,-0.0393,0.0120,0.0076,-23.7500,-24.3750,14.7500,227.0000,19.0625,-151.3125,0
374.494,9.3709,2.6576,-0.2849,0.5183,-0.0869,0.1711,-47.4000,15.4500,17.2500,9.6726,1.0056,0.3807,0.3728,-0.2398,0.1697,-64.5000,25.8000,-14.4000,3.0500,4.3500,-8.0600,-0.0360,0.0076,0.0087,-23.7500,-24.3750,14.7500,227.0000,19.0625,-151.3125,0
374.500,9.3709,2.6576,-0.2849,0.5183,-0.0869,0.1711,-47.1000,16.5000,16.3500,9.6319,0.9026,0.3567,0.3230,-0.2449,0.1711,-64.6500,27.4500,-14.5500,3.0500,4.3500,-8.0600,-0.0360,0.0076,0.0109,-23.7500,-24.3750,14.7500,227.0000,19.0625,-151.2500,0
374.505,9.4068,2.6576,-0.4238,0.5641,-0.0898,0.1849,-46.5000,16.8000,18.4500,9.6319,0.9026,0.3567,0.3230,-0.2449,0.1711,-64.6500,27.4500,-14.5500,3.0500,4.2800,-8.1000,-0.0360,0.0076,0.0109,-23.7500,-24.3750,14.7500,227.0000,19.0625,-151.2500,0
374.510,9.4068,2.6576,-0.4238,0.6209,-0.1087,0.1993,-46.5000,16.8000,18.4500,9.5984,0.8116,0.1269,0.2862,-0.2390,0.1767,-63.4500,25.9500,-15.3000,3.0500,4.2800,-8.1000,-0.0327,0.0076,0.0142,-23.5000,-24.3750,12.0000,227.0625,19.0625,-151.2500,0
374.515,9.2967,2.4900,-0.5267,0.6209,-0.1087,0.1993,-46.5000,16.8000,18.4500,9.5984,0.8116,0.1269,0.2862,-0.2390,0.1767,-63.4500,25.9500,-15.3000,3.0800,4.2500,-8.0900,-0.0327,0.0076,0.0142,-23.5000,-24.3750,12.0000,227.0625,19.0625,-151.2500,0
374.520,9.2967,2.4900,-0.5267,0.6209,-0.1087,0.1993,-46.5000,16.8000,18.4500,9.5002,0.7230,0.0886,0.2678,-0.2220,0.1692,-64.6500,26.4000,-14.8500,3.0800,4.2500,-8.0900,-0.0316,0.0044,0.0131,-23.5000,-24.3750,12.0000,227.0625,19.0625,-151.2500,0
374.525,9.4930,2.2793,-0.6728,0.6851,-0.1098,0.2113,-46.5000,16.8000,18.4500,9.5002,0.7230,0.0886,0.2678,-0.2220,0.1692,-64.6500,26.4000,-14.8500,3.0500,4.2400,-8.0800,-0.0316,0.0044,0.0131,-23.5000,-24.3750,12.0000,227.0625,19.0625,-151.2500,0
374.530,9.5146,2.0063,-0.7230,0.7344,-0.1116,0.2305,-45.3000,15.7500,17.4000,9.5720,0.5363,0.1389,0.2718,-0.2097,0.1609,-64.6500,26.4000,-14.8500,3.0500,4.2400,-8.0800,-0.0305,0.0022,0.0142,-23.5000,-24.3750,12.0000,227.0625,19.0625,-151.2500,0
374.535,9.5146,2.0063,-0.7230,0.7344,-0.1116,0.2305,-47.1000,16.8000,15.9000,9.5720,0.5363,0.1389,0.2718,-0.2097,0.1609,-64.6500,26.4000,-14.8500,3.0600,4.2200,-8.1000,-0.0305,0.0022,0.0142,-23.5000,-24.3750,12.0000,227.0625,19.0625,-151.2500,0
374.544,9.6103,1.8124,-0.8356,0.7434,-0.0887,0.2518,-47.1000,16.8000,15.9000,9.6223,0.3950,0.1915,0.2419,-0.2004,0.1575,-63.9000,26.7000,-16.0500,3.0400,4.0700,-8.1000,-0.0295,0.0000,0.0153,-23.5000,-24.3750,12.0000,227.0625,19.0625,-151.2500,0
374.549,9.5792,1.6400,-0.7566,0.6606,-0.1100,0.2817,-46.2000,16.6500,17.2500,9.8114,0.4381,0.3639,0.1900,-0.2014,0.1599,-63.9000,26.7000,-16.0500,3.0400,4.0700,-8.1000,-0.0393,0.0044,0.0185,-23.5000,-24.3750,12.0000,227.0625,19.0625,-151.2500,0
374.555,9.5792,1.6400,-0.7566,0.6606,-0.1100,0.2817,-46.0500,16.5000,16.6500,9.8976,0.5435,0.2945,0.1900,-0.2014,0.1599,-63.9000,26.7000,-16.0500,3.0000,4.0600,-8.1200,-0.0393,0.0044,0.0185,-23.5000,-24.3750,12.0000,227.0625,19.0625,-151.2500,0
374.560,9.4547,1.5706,-0.6680,0.5606,-0.1159,0.2934,-46.0500,16.5000,16.6500,9.8976,0.5435,0.2945,0.1029,-0.2036,0.1673,-66.0000,27.7500,-15.1500,3.0000,4.0600,-8.1200,-0.0393,0.0044,0.0185,-22.2500,-23.6875,12.7500,227.1250,19.1250,-151.2500,0
374.565,9.4547,1.5706,-0.6680,0.5606,-0.1159,0.2934,-46.2000,17.4000,17.5500,9.8450,0.7446,0.1796,0.1029,-0.2036,0.1673,-66.0000,27.7500,-15.1500,3.0800,4.0200,-8.1800,-0.0611,0.0185,0.0229,-22.2500,-23.6875,12.7500,227.1250,19.1250,-151.2500,0
374.570,9.7013,1.7382,-0.9170,0.4546,-0.0970,0.3086,-46.2000,17.4000,17.5500,9.8450,0.7446,0.1796,0.0354,-0.1964,0.1823,-65.5500,26.1000,-14.7000,3.0800,4.0200,-8.1800,-0.0611,0.0185,0.0229,-22.2500,-23.6875,12.7500,227.1250,19.1250,-151.2500,0
374.575,9.7013,1.7382,-0.9170,0.4546,-0.0970,0.3086,-46.2000,17.4000,17.5500,9.8234,1.0319,0.2466,-0.0040,-0.1828,0.1857,-65.5500,26.1000,-14.7000,3.0700,4.1200,-8.1800,-0.0644,0.0087,0.0316,-22.2500,-23.6875,12.7500,227.1250,19.1250,-151.2500,0
374.580,9.5050,2.0494,-0.9601,0.3403,-0.1074,0.3099,-46.2000,17.4000,17.5500,9.8234,1.0319,0.2466,-0.0040,-0.1828,0.1857,-64.3500,26.7000,-16.3500,3.0700,4.1200,-8.1800,-0.0622,0.0076,0.0316,-22.2500,-23.6875,12.7500,227.1875,19.1250,-151.1875,0
374.585,9.5050,2.0494,-0.9601,0.3403,-0.1074,0.3099,-44.8500,15.9000,15.7500,9.7013,1.2258,0.1173,-0.0181,-0.1796,0.1841,-64.3500,26.7000,-16.3500,3.0400,4.2300,-8.1100,-0.0622,0.0076,0.0316,-22.2500,-23.6875,12.7500,227.1875,19.1250,-151.1875,0
374.594,9.3709,2.5091,-1.0439,0.2427,-0.0767,0.3176,-45.4500,17.4000,18.6000,9.5888,1.5227,-0.0886,-0.0218,-0.1748,0.1929,-64.5000,25.3500,-15.1500,3.1000,4.2900,-8.0700,-0.0742,0.0142,0.0393,-22.2500,-23.6875,12.7500,227.1875,19.1250,-151.1875,0
374.599,9.2177,3.0047,-1.0487,0.1783,-0.0584,0.3214,-45.4500,17.4000,18.6000,9.5888,1.5227,-0.0886,-0.0218,-0.1748,0.1929,-64.5000,25.3500,-15.1500,3.1000,4.2900,-8.0700,-0.0873,0.0055,0.0382,-22.2500,-23.6875,12.7500,227.1875,19.1250,-151.1250,0
374.605,9.2177,3.0047,-1.0487,0.1783,-0.0584,0.3214,-44.2500,17.2500,17.7000,9.4906,1.7717,-0.2825,0.0290,-0.1759,0.2022,-64.5000,25.3500,-15.1500,3.1400,4.3000,-8.0300,-0.0873,0.0055,0.0382,-22.2500,-23.6875,12.7500,227.1875,19.1250,-151.1250,0
374.610,9.2177,3.3423,-0.9840,0.1753,-0.0344,0.3134,-44.2500,17.2500,17.7000,9.4906,1.7717,-0.2825,0.0290,-0.1759,0.2022,-65.8500,26.4000,-15.3000,3.1400,4.3000,-8.0300,-0.0829,-0.0022,0.0360,-23.5625,-23.6875,13.1875,227.2500,19.1250,-151.1250,0
374.615,9.2177,3.3423,-0.9840,0.1753,-0.0344,0.3134,-46.0500,15.7500,16.3500,9.5433,1.9609,-0.4884,0.0770,-0.1644,0.2300,-65.8500,26.4000,-15.3000,3.1300,4.3600,-8.0000,-0.0829,-0.0022,0.0360,-23.5625,-23.6875,13.1875,227.2500,19.1250,-151.1250,0
374.620,9.3422,3.7733,-0.8380,0.1932,-0.0128,0.3104,-46.0500,15.7500,16.3500,9.5433,1.9609,-0.4884,0.0770,-0.1644,0.2300,-65.8500,26.4000,-15.3000,3.1300,4.3600,-8.0000,-0.0720,-0.0164,0.0240,-23.5625,-23.6875,13.1875,227.2500,19.1250,-151.0625,0
374.625,9.3422,3.7733,-0.8380,0.1932,-0.0128,0.3104,-46.0500,15.7500,16.3500,9.6343,2.0135,-0.8619,0.1375,-0.1314,0.2534,-65.8500,26.4000,-15.3000,3.0300,4.3800,-8.0600,-0.0720,-0.0164,0.0240,-23.5625,-23.6875,13.1875,227.2500,19.1250,-151.0625,0
374.630,9.3733,4.0270,-0.6895,0.2126,-0.0048,0.3059,-46.0500,15.7500,16.3500,9.6343,2.0135,-0.8619,0.1375,-0.1314,0.2534,-64.8000,25.0500,-15.1500,3.0300,4.3800,-8.0600,-0.0698,-0.0142,0.0218,-23.5625,-23.6875,13.1875,227.3125,19.1250,-151.0625,0
374.635,9.3733,4.0270,-0.6895,0.2126,-0.0048,0.3059,-46.0500,15.7500,16.3500,9.7779,1.8459,-0.7709,0.2164,-0.1031,0.2598,-64.8000,25.0500,-15.1500,2.9800,4.5100,-8.0800,-0.0698,-0.0142,0.0218,-23.5625,-23.6875,13.1875,227.3125,19.1250,-151.0625,0
374.644,9.4308,4.1372,-0.6129,0.2289,0.0173,0.2923,-44.8500,16.2000,17.8500,9.7899,1.7454,-0.6081,0.2848,-0.1108,0.2643,-65.5500,25.8000,-16.2000,3.0500,4.5200,-8.1200,-0.0785,-0.0273,0.0218,-23.5625,-23.6875,13.1875,227.3125,19.1250,-151.0000,0
374.649,9.1626,4.3527,-0.5962,0.2617,0.0416,0.2555,-44.8500,16.2000,17.8500,9.7899,1.7454,-0.6081,0.2848,-0.1108,0.2643,-65.5500,27.0000,-14.7000,3.0500,4.5200,-8.1200,-0.0982,-0.0720,0.0240,-23.5625,-23.6875,13.1875,227.3750,19.0625,-151.0000,0
374.655,9.0237,4.1372,-0.6416,0.3139,0.0871,0.2204,-44.2500,17.2500,17.4000,9.7659,1.6975,-0.4884,0.3595,-0.1021,0.2883,-65.5500,27.0000,-14.7000,3.0900,4.4000,-8.1700,-0.0982,-0.0720,0.0240,-23.5625,-23.6875,13.1875,227.3750,19.0625,-151.0000,0
374.660,9.0237,4.1372,-0.6416,0.3139,0.0871,0.2204,-44.2500,17.2500,17.4000,9.4906,1.7597,-0.7422,0.3595,-0.1021,0.2883,-64.3500,25.9500,-15.6000,3.2500,4.3400,-8.2700,-0.1353,-0.1200,0.0262,-24.2500,-24.7500,12.0000,227.3750,19.0000,-150.9375,0
374.665,9.0237,4.0055,-0.6632,0.3877,0.1210,0.1641,-44.2500,16.8000,18.1500,9.4906,1.7597,-0.7422,0.3285,-0.0887,0.3160,-64.3500,25.9500,-15.6000,3.2500,4.3400,-8.2700,-0.1353,-0.1200,0.0262,-24.2500,-24.7500,12.0000,227.3750,19.0000,-150.9375,0
374.670,9.0237,4.0055,-0.6632,0.3877,0.1210,0.1641,-44.2500,16.8000,18.1500,9.5409,1.7286,-1.0511,0.3285,-0.0887,0.3160,-66.3000,26.5500,-14.7000,3.2500,4.3400,-8.2700,-0.1767,-0.1724,0.0022,-24.2500,-24.7500,12.0000,227.4375,18.9375,-150.8125,0
374.675,9.1985,3.7206,-0.6823,0.5143,0.1383,0.1196,-45.9000,15.1500,17.5500,9.5409,1.7286,-1.0511,0.3336,-0.0621,0.3416,-66.3000,26.5500,-14.7000,3.1700,4.5800,-7.9900,-0.1767,-0.1724,0.0022,-24.2500,-24.7500,12.0000,227.4375,18.9375,-150.8125,0
374.680,9.1985,3.7206,-0.6823,0.5143,0.1383,0.1196,-45.9000,15.1500,17.5500,9.7252,1.7454,-1.1420,0.3336,-0.0621,0.3416,-64.5000,25.0500,-14.4000,3.1700,4.5800,-7.9900,-0.2160,-0.1942,-0.0185,-24.2500,-24.7500,12.0000,227.5000,18.8125,-150.7500,0
374.685,9.5577,3.4596,-0.8260,0.6963,0.1652,0.0847,-45.9000,15.1500,17.5500,9.7252,1.7454,-1.1420,0.3730,-0.0282,0.3581,-64.5000,25.0500,-14.4000,3.3700,4.9900,-8.0000,-0.2160,-0.1942,-0.0185,-24.2500,-24.7500,12.0000,227.5000,18.6875,-150.6250,0
374.694,9.7420,3.2920,-0.9601,0.9633,0.1716,0.0517,-42.7500,16.5000,17.4000,9.9120,1.5610,-1.0942,0.3571,-0.0107,0.3573,-64.5000,25.0500,-14.4000,3.2700,5.0600,-8.0400,-0.2280,-0.2323,-0.0611,-24.2500,-24.7500,12.0000,227.5000,18.6875,-150.6250,0
374.704,9.8474,3.1771,-1.1851,1.2372,0.1498,0.0083,-44.1000,17.4000,19.0500,9.8497,1.4557,-0.8499,0.4271,0.0250,0.3656,-64.8000,25.8000,-16.2000,3.1300,4.9700,-8.0900,-0.2193,-0.2880,-0.0949,-24.2500,-24.7500,12.0000,227.5000,18.5625,-150.5000,0
374.709,9.8474,3.1771,-1.1851,1.2372,0.1498,0.0083,-44.1000,17.4000,19.0500,9.8569,1.3671,-0.7661,0.4884,0.0645,0.3850,-64.8000,25.8000,-16.2000,3.1300,4.9700,-8.0900,-0.2193,-0.2880,-0.0949,-24.2500,-24.7500,12.0000,227.5000,18.3750,-150.3750,0
374.714,9.7300,2.9473,-1.4150,1.5279,0.1394,-0.0341,-43.6500,16.9500,17.2500,9.8569,1.3671,-0.7661,0.4884,0.0645,0.3850,-65.4000,24.7500,-14.2500,3.2200,4.5900,-8.3800,-0.2116,-0.3349,-0.1091,-23.0625,-24.7500,14.0000,227.5000,18.3750,-150.3750,0
374.719,9.7300,2.9473,-1.4150,1.5279,0.1394,-0.0341,-43.6500,16.9500,17.2500,9.7109,1.3623,-0.6105,0.5116,0.1002,0.4122,-65.4000,24.7500,-14.2500,3.2200,4.5900,-8.3800,-0.2116,-0.3349,-0.1091,-23.0625,-24.7500,14.0000,227.5000,18.3750,-150.3750,0
374.724,9.5720,2.7988,-1.6209,1.7728,0.1314,-0.0773,-45.1500,15.9000,17.5500,9.7109,1.3623,-0.6105,0.5116,0.1002,0.4122,-65.4000,24.4500,-15.3000,3.1100,4.3900,-8.4400,-0.1985,-0.3709,-0.1418,-23.0625,-24.7500,14.0000,227.5000,18.1250,-150.3125,0
374.729,9.5720,2.7988,-1.6209,1.7728,0.1314,-0.0773,-45.1500,15.9000,17.5500,9.7276,1.3001,-0.4046,0.5361,0.1306,0.4421,-65.4000,24.4500,-15.3000,3.1100,4.3900,-8.4400,-0.1920,-0.3578,-0.1844,-23.0625,-24.7500,14.0000,227.4375,17.9375,-150.1875,0
374.735,9.6702,2.5402,-1.7526,1.9558,0.1218,-0.1287,-45.1500,15.9000,17.5500,9.7276,1.3001,-0.4046,0.5361,0.1306,0.4421,-65.5500,24.1500,-16.6500,3.0600,4.2900,-8.5600,-0.1920,-0.3578,-0.1844,-23.0625,-24.7500,14.0000,227.3750,17.6875,-150.0625,0
374.744,9.9311,2.2505,-1.7358,2.0496,0.0584,-0.1439,-45.1500,15.9000,17.5500,9.7372,1.2905,-0.7925,0.5545,0.1740,0.4506,-66.6000,24.4500,-17.8500,3.6200,5.3500,-8.3500,-0.1745,-0.3262,-0.2280,-23.0625,-24.7500,14.0000,227.3750,17.6875,-150.0625,0
374.754,9.9264,1.8962,-1.4820,2.1328,0.0562,-0.1455,-43.5000,16.8000,16.3500,9.8881,1.0391,-0.5866,0.5833,0.2052,0.4383,-65.4000,24.0000,-16.0500,3.5300,6.6200,-8.1600,-0.1189,-0.3382,-0.3152,-23.0625,-24.7500,14.0000,227.3125,17.4375,-150.0000,0
374.759,9.9264,1.8962,-1.4820,2.1328,0.0562,-0.1455,-43.5000,16.8000,16.3500,9.8737,0.7278,-0.5938,0.6773,0.2425,0.3821,-65.4000,24.0000,-16.0500,3.5300,6.6200,-8.1600,-0.1189,-0.3382,-0.3152,-23.0625,-24.7500,14.0000,227.3125,17.4375,-150.0000,0
374.764,10.0796,1.5060,-1.4198,2.1528,0.0991,-0.1324,-42.3000,16.6500,15.0000,9.8737,0.7278,-0.5938,0.6773,0.2425,0.3821,-65.4000,24.0000,-16.0500,2.8800,6.2400,-8.0200,-0.0469,-0.3731,-0.4767,-22.2500,-24.3750,13.1875,227.0625,17.1250,-149.9375,0
374.769,10.0796,1.5060,-1.4198,2.1528,0.0991,-0.1324,-42.3000,16.6500,15.0000,9.7803,0.2227,-0.0215,0.8162,0.2691,0.3262,-65.4000,24.0000,-16.0500,2.8800,6.2400,-8.0200,-0.0469,-0.3731,-0.4767,-22.2500,-24.3750,13.1875,227.0625,17.1250,-149.9375,0
374.774,10.0269,1.1181,-1.3288,2.1498,0.0648,-0.1194,-44.1000,18.4500,15.4500,9.7803,0.2227,-0.0215,0.8162,0.2691,0.3262,-65.5500,25.8000,-16.2000,3.1100,5.3900,-8.8400,0.0360,-0.2716,-0.5661,-22.2500,-24.3750,13.1875,226.8125,16.8750,-149.8750,0
374.779,10.0269,1.1181,-1.3288,2.1498,0.0648,-0.1194,-44.1000,18.4500,15.4500,9.6103,-0.1245,-0.0862,0.7757,0.2835,0.2854,-65.5500,25.8000,-16.2000,3.1100,5.3900,-8.8400,0.2105,-0.3916,-0.6360,-22.2500,-24.3750,13.1875,226.5000,16.5000,-149.9375,0
374.785,9.7971,0.7135,-1.4126,2.0917,0.0346,-0.0973,-44.8500,17.7000,15.7500,9.4786,-0.3472,0.1197,0.7757,0.2835,0.2854,-65.5500,25.8000,-16.2000,1.4900,5.1900,-7.4500,0.2105,-0.3916,-0.6360,-22.2500,-24.3750,13.1875,226.1250,16.1875,-150.1250,0
374.795,9.6438,0.4118,-1.4126,1.9609,-0.0019,-0.0757,-44.8500,17.7000,15.7500,9.5648,-0.3879,0.1437,0.7314,0.3038,0.2718,-67.5000,25.8000,-16.2000,1.5600,5.8800,-7.1000,0.4418,-0.2520,-0.5978,-22.2500,-24.3750,13.1875,226.1250,16.1875,-150.1250,0
374.805,9.4475,0.1365,-1.4246,1.8130,-0.0072,-0.0466,-44.2500,16.5000,13.0500,9.7396,-0.4573,0.2610,0.5918,0.2867,0.2718,-66.0000,25.0500,-17.4000,2.0200,5.2000,-7.1300,0.5487,0.3894,-0.7003,-22.2500,-24.3750,13.1875,225.6875,16.1875,-150.3125,0
374.809,9.4475,0.1365,-1.4246,1.8130,-0.0072,-0.0466,-44.2500,16.5000,13.0500,9.7396,-0.4573,0.2610,0.6110,0.2675,0.2912,-66.0000,25.0500,-17.4000,2.0200,5.2000,-7.1300,0.5487,0.3894,-0.7003,-22.2500,-24.3750,13.1875,225.6875,16.1875,-150.3125,0
374.814,9.5792,0.1245,-1.3096,1.6574,0.0189,-0.0099,-44.8500,18.4500,13.3500,9.8067,-0.4741,0.2227,0.6110,0.2675,0.2912,-65.2500,24.6000,-16.2000,3.6600,2.8300,-10.4100,0.5181,0.9359,-0.7189,-22.3750,-24.7500,13.5625,225.1250,16.4375,-150.4375,0
374.819,9.5792,0.1245,-1.3096,1.6574,0.0189,-0.0099,-44.8500,18.4500,13.3500,9.8067,-0.4741,0.2227,0.5870,0.2286,0.2878,-65.2500,24.6000,-16.2000,3.6600,2.8300,-10.4100,0.5181,0.9359,-0.7189,-22.3750,-24.7500,13.5625,225.1250,16.4375,-150.4375,0
374.824,9.8904,0.4118,-1.2426,1.4837,0.0514,0.0203,-44.4000,16.9500,12.9000,9.6391,-0.4046,0.7829,0.5870,0.2286,0.2878,-64.8000,25.8000,-16.2000,2.4800,2.8400,-10.1600,0.4363,0.8552,-0.4920,-22.3750,-24.7500,13.5625,224.6875,16.7500,-150.5000,0
374.829,9.8904,0.4118,-1.2426,1.4837,0.0514,0.0203,-44.4000,16.9500,12.9000,9.6391,-0.4046,0.7829,0.6057,0.2073,0.3126,-64.8000,25.8000,-16.2000,2.4800,2.8400,-10.1600,0.4156,-0.2454,-0.3992,-22.3750,-24.7500,13.5625,224.5000,16.5000,-150.6875,0
374.835,8.7197,0.3256,-0.7278,1.3065,-0.0088,0.0306,-44.1000,17.4000,12.6000,9.4954,-0.0048,-0.3208,0.4167,0.2129,0.3448,-64.8000,25.8000,-16.2000,1.5800,3.3300,-7.5300,0.4156,-0.2454,-0.3992,-22.3750,-24.7500,13.5625,224.3125,16.3125,-150.9375,0
374.845,9.9575,0.2634,-0.9074,1.1735,0.0749,0.0458,-44.2500,17.2500,12.7500,9.9479,-0.1221,0.8547,0.5113,0.2252,0.4197,-66.9000,25.9500,-18.3000,-1.4000,12.1600,-9.1300,0.4134,-0.1963,-0.2465,-22.3750,-24.7500,13.5625,224.3125,16.3125,-150.9375,0
374.855,10.2807,0.5794,-0.8068,1.0555,-0.0037,0.0376,-44.2500,17.2500,12.7500,9.4020,0.9313,1.9345,0.9563,0.3693,0.6102,-66.9000,25.9500,-18.3000,-0.2400,10.1500,-6.6500,0.5945,0.4014,-0.7636,-22.3750,-24.7500,13.5625,223.8125,16.3125,-151.1250,0
374.860,10.3717,1.0726,-0.7638,0.8990,-0.0392,0.0274,-43.2000,17.5500,11.4000,9.4020,0.9313,1.9345,0.9563,0.3693,0.6102,-66.9000,25.9500,-18.3000,-0.2400,10.1500,-6.6500,0.5945,0.4014,-0.7636,-22.3750,-24.7500,13.5625,222.5000,16.8750,-151.8125,0
374.865,10.3717,1.0726,-0.7638,0.8990,-0.0392,0.0274,-43.2000,17.5500,11.4000,9.5337,4.3718,-0.9266,0.7797,0.3557,0.7647,-66.0000,25.0500,-18.4500,7.5700,2.1100,-6.5900,1.9090,1.9788,-1.5664,-22.3750,-25.1875,14.0000,222.5000,16.8750,-151.8125,0
374.870,10.2879,1.5060,-0.9601,0.8284,-0.0594,-0.0250,-44.1000,16.2000,11.8500,9.5337,4.3718,-0.9266,0.7797,0.3557,0.7647,-66.0000,25.0500,-18.4500,7.5700,2.1100,-6.5900,1.9090,1.9788,-1.5664,-22.3750,-25.1875,14.0000,220.9375,17.9375,-152.3125,0
374.875,10.2879,1.5060,-0.9601,0.8284,-0.0594,-0.0250,-44.1000,16.2000,11.8500,9.9216,5.0781,-0.5890,1.1628,0.2979,0.8884,-67.3500,25.2000,-18.6000,10.4300,5.4700,-10.4400,1.8544,3.0816,-1.7813,-22.3750,-25.1875,14.0000,220.9375,17.9375,-152.3125,0
374.879,9.6295,1.9609,-0.7135,0.7306,-0.1188,-0.1005,-43.9500,17.5500,11.4000,9.9216,5.0781,-0.5890,1.1628,0.2979,0.8884,-67.3500,25.2000,-18.6000,10.4300,5.4700,-10.4400,0.6905,1.2381,-4.2891,-22.3750,-25.1875,14.0000,218.3750,17.4375,-151.8750,0
374.886,9.6295,1.9609,-0.7135,0.7306,-0.1188,-0.1005,-43.9500,17.5500,11.4000,8.9591,6.6535,0.0982,2.3838,0.3872,0.8146,-66.3000,24.6000,-16.2000,-6.8000,15.9300,-0.5100,0.6905,1.2381,-4.2891,-22.3750,-25.1875,14.0000,215.5625,16.6250,-151.3125,0
374.895,8.8633,2.3822,-0.5124,0.5670,-0.0560,-0.1727,-43.9500,18.3000,11.4000,8.3893,7.7476,2.4181,3.6303,0.5271,0.5961,-66.7500,24.6000,-15.9000,0.7800,8.8400,4.7400,0.4003,0.9152,-4.7811,-22.3750,-25.1875,14.0000,215.5625,16.6250,-151.3125,0
374.905,8.1906,2.6983,-0.2945,0.4906,0.1410,-0.2180,-43.9500,18.3000,11.4000,8.4874,6.6248,2.5690,5.0042,0.6121,0.3621,-67.9500,25.0500,-16.2000,7.1000,4.1200,-4.7500,1.3232,4.5749,-4.2979,-22.3750,-25.1875,14.0000,212.3750,17.6875,-151.0625,0
374.910,8.1690,2.9113,-0.2394,0.5316,0.3464,-0.2433,-44.2500,18.0000,10.2000,8.4874,6.6248,2.5690,5.0042,0.6121,0.3621,-67.9500,25.0500,-16.2000,7.1000,4.1200,-4.7500,1.3232,4.5749,-4.2979,-22.3750,-25.1875,14.0000,212.3750,17.6875,-151.0625,0
374.915,8.1690,2.9113,-0.2394,0.5316,0.3464,-0.2433,-44.2500,18.0000,10.2000,9.0118,4.4293,2.6336,6.0628,0.6688,0.1972,-66.9000,25.2000,-18.6000,7.6000,6.5900,-7.0100,1.6810,5.5949,-4.4179,-21.3750,-26.2500,14.0000,209.0000,19.1875,-150.7500,0
374.919,8.5976,3.2034,-0.3256,0.6368,0.4461,-0.2718,-44.5500,19.5000,9.6000,9.0118,4.4293,2.6336,6.0628,0.6688,0.1972,-66.9000,25.2000,-18.6000,7.6000,6.5900,-7.0100,1.6810,5.5949,-4.4179,-21.3750,-26.2500,14.0000,209.0000,19.1875,-150.7500,0
374.924,8.5976,3.2034,-0.3256,0.6368,0.4461,-0.2718,-44.5500,19.5000,9.6000,9.8617,1.9058,3.1580,6.6464,0.7349,0.0815,-66.9000,25.2000,-18.6000,4.8100,6.0800,-7.3000,1.3799,3.1067,-4.5891,-21.3750,-26.2500,14.0000,205.8750,19.4375,-150.4375,0
374.929,8.7532,3.5410,-0.2442,0.7264,0.4746,-0.2806,-43.5000,16.8000,10.2000,10.2448,-0.4286,3.4716,6.6464,0.7349,0.0815,-66.9000,25.2000,-18.6000,4.8100,6.0800,-7.3000,1.5566,2.6900,-4.4593,-21.3750,-26.2500,14.0000,202.8750,19.5000,-150.3125,0
374.936,8.7293,3.6176,-0.0072,0.7719,0.5465,-0.2705,-43.5000,16.8000,10.2000,10.2448,-0.4286,3.4716,6.7905,0.7357,0.0304,-67.5000,25.8000,-21.7500,4.2200,5.4600,-6.8300,1.5566,2.6900,-4.4593,-21.3750,-26.2500,14.0000,200.0000,19.8750,-150.3125,0
374.945,8.7293,3.6176,-0.0072,0.7719,0.5465,-0.2705,-43.3500,17.7000,10.5000,10.1514,-2.6767,3.2968,6.3562,0.7064,0.0168,-66.9000,27.4500,-23.1000,3.9300,2.3900,-7.4400,1.8620,3.0554,-4.0917,-21.3750,-26.2500,14.0000,200.0000,19.8750,-150.3125,0
374.955,8.5018,3.6943,0.5866,0.8463,0.6291,-0.2587,-44.2500,18.7500,9.6000,10.2544,-4.9177,3.5793,5.6634,0.5662,0.0616,-67.9500,27.3000,-24.0000,2.9200,2.4800,-7.5000,1.7802,2.8285,-3.8397,-21.3750,-26.2500,14.0000,197.2500,20.1875,-150.3125,0
374.960,8.4946,3.5769,0.6632,0.9843,0.6747,-0.2443,-44.2500,18.7500,9.6000,9.2703,-4.5610,1.7406,4.0809,0.4772,0.1601,-67.9500,27.3000,-24.0000,2.9200,2.4800,-7.5000,1.7802,2.8285,-3.8397,-21.3750,-26.2500,14.0000,197.2500,20.1875,-150.3125,0
374.965,8.3222,3.2920,0.7805,1.1125,0.7224,-0.2305,-44.2500,18.7500,9.6000,9.2703,-4.5610,1.7406,4.0809,0.4772,0.1601,-67.6500,26.4000,-26.1000,2.6500,1.8700,-7.4200,1.4693,2.4173,-3.6477,-17.6875,-31.0000,12.3750,194.7500,20.3750,-150.2500,0
374.970,8.3222,3.2920,0.7805,1.1125,0.7224,-0.2305,-43.9500,18.0000,9.1500,9.5361,-5.4205,1.4892,2.8874,0.3022,0.2441,-67.6500,26.4000,-26.1000,2.6500,1.8700,-7.4200,1.4693,2.4173,-3.6477,-17.6875,-31.0000,12.3750,194.7500,20.3750,-150.2500,0
374.975,8.7700,2.8994,0.7661,1.3259,0.7914,-0.1831,-43.9500,18.0000,9.1500,9.5361,-5.4205,1.4892,2.8874,0.3022,0.2441,-66.7500,26.5500,-24.0000,2.6900,-0.4600,-9.4100,1.2523,2.4729,-3.3707,-17.6875,-31.0000,12.3750,192.3750,20.6250,-150.0625,0
374.984,8.7700,2.8994,0.7661,1.3259,0.7914,-0.1831,-44.5500,18.7500,9.1500,9.4020,-5.2002,1.5969,1.8218,0.1434,0.3107,-67.2000,26.1000,-27.0000,3.2100,1.2200,-10.3000,0.9807,2.1882,-2.9387,-17.6875,-31.0000,12.3750,190.3125,20.8750,-149.8750,0
374.988,8.9783,2.2194,0.4788,1.6816,0.7682,-0.1463,-43.2000,18.0000,10.2000,9.2440,-4.5633,1.1325,0.8753,-0.0187,0.3080,-67.2000,26.1000,-27.0000,3.2100,1.2200,-10.3000,0.9807,2.1882,-2.9387,-17.6875,-31.0000,12.3750,188.6875,21.0625,-149.6875,0
374.995,9.4739,1.2713,0.0455,2.0209,0.7645,-0.1199,-43.2000,18.0000,10.2000,9.2440,-4.5633,1.1325,0.8753,-0.0187,0.3080,-67.2000,26.1000,-27.0000,4.1000,1.3700,-10.8900,0.7832,1.8086,-2.3889,-17.6875,-31.0000,12.3750,187.3750,21.1875,-149.5625,0
375.005,9.6367,0.4094,-0.3304,2.2537,0.6877,-0.0818,-43.3500,18.1500,8.2500,9.0549,-4.1779,0.8332,0.1431,-0.1148,0.2617,-64.8000,26.5500,-25.8000,4.2500,2.2100,-10.6300,0.6916,1.4301,-1.8610,-17.6875,-31.0000,12.3750,187.3750,21.1875,-149.5625,0
375.010,9.6367,0.4094,-0.3304,2.2537,0.6877,-0.0818,-43.3500,18.1500,8.2500,9.3087,-3.1795,0.6081,-0.4626,-0.1911,0.1716,-64.8000,26.5500,-25.8000,4.2500,2.2100,-10.6300,0.6916,1.4301,-1.8610,-13.5625,-34.0000,11.1875,186.3750,21.1875,-149.5625,0
375.015,9.5720,-0.3232,-0.8978,2.4139,0.5907,-0.0314,-43.3500,18.1500,8.2500,9.3087,-3.1795,0.6081,-0.4626,-0.1911,0.1716,-64.8000,26.5500,-25.8000,3.1400,2.5100,-8.2500,0.5967,0.8214,-1.4214,-13.5625,-34.0000,11.1875,186.3750,21.1875,-149.5625,0
375.020,9.5720,-0.3232,-0.8978,2.4139,0.5907,-0.0314,-43.3500,18.1500,8.2500,9.1698,-2.1093,0.7398,-0.9273,-0.2521,0.0560,-64.8000,26.5500,-25.8000,3.1400,2.5100,-8.2500,0.5967,0.8214,-1.4214,-13.5625,-34.0000,11.1875,185.6875,21.1250,-149.5000,0
375.025,9.6414,-0.8739,-1.4772,2.4552,0.4714,0.0056,-43.3500,18.1500,8.2500,9.1698,-2.1093,0.7398,-0.9273,-0.2521,0.0560,-66.7500,25.3500,-25.5000,3.0000,2.7600,-7.6000,0.3851,0.4134,-1.0167,-13.5625,-34.0000,11.1875,185.6875,21.1250,-149.5000,0
375.030,9.6414,-0.8739,-1.4772,2.4552,0.4714,0.0056,-43.2000,15.7500,8.1000,9.1578,-0.9577,0.6967,-1.1620,-0.2864,-0.0773,-66.7500,25.3500,-25.5000,3.0000,2.7600,-7.6000,0.0676,0.1713,-0.6316,-13.5625,-34.0000,11.1875,185.3125,21.0000,-149.4375,0
375.036,9.6893,-1.3431,-1.8699,2.3323,0.3283,0.0296,-43.5000,15.7500,8.1000,9.2584,0.2490,0.8092,-1.2127,-0.3080,-0.1964,-66.3000,27.0000,-25.0500,2.9500,3.1400,-7.1400,0.0676,0.1713,-0.6316,-13.5625,-34.0000,11.1875,185.1875,20.9375,-149.2500,0
375.045,10.0317,-1.4916,-2.0207,2.0475,0.1204,0.0400,-43.5000,18.0000,6.3000,9.2967,1.0726,0.4908,-1.2127,-0.3080,-0.1964,-67.6500,26.4000,-25.3500,2.7900,3.7400,-6.8900,-0.2531,-0.0676,-0.2760,-13.5625,-34.0000,11.1875,185.3125,20.8125,-149.0000,0
375.055,9.7252,-1.6017,-1.8531,1.7259,0.0005,0.0381,-42.7500,18.0000,6.3000,9.4858,1.5155,0.4860,-0.7011,-0.2811,-0.3805,-68.1000,26.4000,-23.8500,2.7800,4.5500,-6.9000,-0.5411,-0.2727,0.0458,-13.5625,-34.0000,11.1875,185.3125,20.8125,-149.0000,0
375.060,9.7252,-1.6017,-1.8531,1.7259,0.0005,0.0381,-44.1000,18.4500,4.8000,9.4858,1.5155,0.4860,-0.7011,-0.2811,-0.3805,-68.1000,26.4000,-23.8500,2.7800,4.5500,-6.9000,-0.5411,-0.2727,0.0458,-13.5625,-34.0000,11.1875,185.6250,20.6875,-148.6250,0
375.065,9.6007,-1.3719,-1.6544,1.4064,0.0626,0.0338,-44.1000,18.4500,4.8000,9.4212,1.6759,0.4693,-0.3896,-0.2611,-0.4175,-68.1000,26.4000,-23.8500,3.0400,5.4300,-6.9100,-0.7461,-0.4014,0.3098,-11.2500,-34.5625,11.1875,185.6250,20.6875,-148.6250,0
375.070,9.6007,-1.3719,-1.6544,1.4064,0.0626,0.0338,-44.1000,18.4500,4.8000,9.4212,1.6759,0.4693,-0.3896,-0.2611,-0.4175,-68.1000,26.4000,-23.8500,3.0400,5.4300,-6.9100,-0.7461,-0.4014,0.3098,-11.2500,-34.5625,11.1875,186.0625,20.6250,-148.3125,0
375.075,9.6127,-1.0822,-1.4413,1.0184,0.0677,0.0125,-44.1000,18.4500,4.8000,9.4882,1.5467,0.6440,-0.0853,-0.2334,-0.4077,-67.9500,26.5500,-25.5000,3.0800,5.7900,-6.9500,-0.8399,-0.4767,0.4418,-11.2500,-34.5625,11.1875,186.0625,20.6250,-148.3125,0
375.080,9.6127,-1.0822,-1.4413,1.0184,0.0677,0.0125,-42.9000,15.4500,5.4000,9.4882,1.5467,0.6440,-0.0853,-0.2334,-0.4077,-67.9500,26.5500,-25.5000,3.0800,5.7900,-6.9500,-0.8476,-0.5945,0.4058,-11.2500,-34.5625,11.1875,186.4375,20.4375,-148.0000,0
375.086,9.5481,-0.5842,-1.2929,0.6430,0.0637,-0.0256,-44.4000,16.9500,4.3500,9.2847,1.2474,0.2418,0.1604,-0.1601,-0.3459,-67.9500,26.5500,-25.5000,1.5700,5.9400,-6.8600,-0.8476,-0.5945,0.4058,-11.2500,-34.5625,11.1875,186.7500,20.1875,-147.6250,0
375.095,9.2464,-0.1269,-1.2905,0.3371,0.0456,-0.0917,-43.9500,18.0000,5.2500,9.0668,0.5986,-0.0431,0.4367,-0.0970,-0.2446,-66.9000,27.4500,-25.3500,1.2000,6.0000,-6.9500,-0.8247,-0.5978,0.2029,-11.2500,-34.5625,11.1875,186.7500,20.1875,-147.6250,0
375.105,8.8633,0.5507,-1.2857,0.1338,0.0440,-0.1687,-43.3500,15.9000,5.4000,8.9256,0.1365,-0.0670,0.7352,-0.0576,-0.1412,-68.1000,27.1500,-25.3500,0.9700,6.0800,-7.0500,-0.7592,-0.3545,-0.1724,-11.2500,-34.5625,11.1875,186.8125,20.0000,-147.1875,0
375.110,8.6910,1.1636,-1.2043,0.0517,0.0450,-0.2435,-43.3500,15.9000,5.4000,8.9256,0.1365,-0.0670,0.7352,-0.0576,-0.1412,-68.1000,27.1500,-25.3500,0.9700,6.0800,-7.0500,-0.7592,-0.3545,-0.1724,-11.2500,-34.5625,11.1875,186.8125,20.0000,-147.1875,0
375.115,8.6910,1.1636,-1.2043,0.0517,0.0450,-0.2435,-42.7500,16.8000,3.4500,9.0716,0.1389,0.0575,1.0163,-0.0618,-0.0663,-66.1500,25.5000,-24.9000,0.9400,5.3600,-6.9500,-0.5825,-0.0502,-0.6556,-11.6875,-34.5000,11.1875,186.6875,19.7500,-146.8125,0
375.120,8.9376,1.6233,-0.8930,0.0474,0.0605,-0.3269,-42.7500,16.8000,3.4500,9.0716,0.1389,0.0575,1.0163,-0.0618,-0.0663,-66.1500,25.5000,-24.9000,0.9400,5.3600,-6.9500,-0.5825,-0.0502,-0.6556,-11.6875,-34.5000,11.1875,186.6875,19.7500,-146.8125,0
375.125,8.9376,1.6233,-0.8930,0.0474,0.0605,-0.3269,-42.7500,16.8000,3.4500,9.4260,0.0383,0.2849,1.3019,-0.1111,0.0011,-66.1500,28.6500,-24.1500,1.3300,4.7700,-7.3500,-0.3567,0.3262,-1.1377,-11.6875,-34.5000,11.1875,186.0000,19.5625,-146.3750,0
375.130,9.4978,1.7238,-0.5004,0.0767,0.0725,-0.4026,-42.7500,16.8000,3.4500,9.4260,0.0383,0.2849,1.3019,-0.1111,0.0011,-66.1500,28.6500,-24.1500,1.3300,4.7700,-7.3500,-0.2105,0.6807,-1.5632,-11.6875,-34.5000,11.1875,185.0625,19.4375,-145.9375,0
375.136,9.4978,1.7238,-0.5004,0.0767,0.0725,-0.4026,-44.2500,17.2500,4.5000,9.8593,0.0383,0.2203,1.5836,-0.1769,0.0464,-66.6000,25.9500,-25.3500,1.7500,4.4300,-7.8300,-0.2105,0.6807,-1.5632,-11.6875,-34.5000,11.1875,183.8750,19.2500,-145.4375,0
375.145,10.1083,1.4868,-0.0766,0.0799,0.1045,-0.4530,-45.3000,16.5000,4.9500,10.1059,-0.0431,0.3328,1.8844,-0.1916,0.0509,-67.2000,27.3000,-25.8000,4.6900,4.9200,-8.0900,-0.1385,0.9032,-1.8893,-11.6875,-34.5000,11.1875,183.8750,19.2500,-145.4375,0
375.155,10.4267,1.0008,0.0168,0.0312,0.1641,-0.4863,-41.8500,16.2000,5.4000,10.4698,-0.1293,0.4525,2.0803,-0.1740,0.0456,-67.2000,27.3000,-25.8000,7.0800,6.5600,-14.1800,-0.0469,1.2075,-1.9777,-11.6875,-34.5000,11.1875,182.5625,19.1875,-144.9375,0
375.160,10.4579,0.4884,0.0120,-0.0418,0.1567,-0.4980,-41.8500,16.2000,5.4000,10.5489,-0.4980,0.5770,2.0803,-0.1740,0.0456,-67.2000,27.3000,-25.8000,7.0800,6.5600,-14.1800,-0.0469,1.2075,-1.9777,-11.6875,-34.5000,11.1875,182.5625,19.1875,-144.9375,0
375.165,10.4579,0.4884,0.0120,-0.0418,0.1567,-0.4980,-43.6500,17.4000,6.4500,10.5489,-0.4980,0.5770,2.2527,-0.1316,0.0456,-66.1500,26.4000,-26.1000,4.6800,2.8600,-9.0000,0.6545,0.7821,-1.6832,-10.0000,-35.2500,10.3750,181.4375,19.0000,-145.0000,0
375.170,10.1107,0.1173,-0.2322,-0.0733,0.1575,-0.4980,-43.6500,17.4000,6.4500,10.2304,-0.9409,0.7350,2.2527,-0.1316,0.0456,-66.1500,26.4000,-26.1000,4.6800,2.8600,-9.0000,0.6545,0.7821,-1.6832,-10.0000,-35.2500,10.3750,181.4375,19.0000,-145.0000,0
375.175,10.1107,0.1173,-0.2322,-0.0733,0.1575,-0.4980,-43.6500,17.4000,6.4500,10.2304,-0.9409,0.7350,2.3403,-0.0834,0.0522,-67.9500,26.5500,-29.2500,0.8900,2.7000,-8.2300,0.7625,-0.5323,-1.8664,-10.0000,-35.2500,10.3750,180.4375,18.1250,-145.1875,0
375.180,9.7252,0.0886,-0.4573,0.0029,0.1732,-0.4972,-43.6500,17.4000,6.4500,10.1466,-1.2953,1.0415,2.3537,-0.0727,0.0658,-67.9500,26.5500,-29.2500,0.8900,2.7000,-8.2300,0.7058,0.0578,-1.7857,-10.0000,-35.2500,10.3750,179.3750,17.6250,-145.3125,0
375.186,9.7252,0.0886,-0.4573,0.0029,0.1732,-0.4972,-42.9000,16.2000,4.8000,10.1466,-1.2953,1.0415,2.3537,-0.0727,0.0658,-66.7500,26.5500,-28.8000,3.4200,2.9400,-9.1300,0.7058,0.0578,-1.7857,-10.0000,-35.2500,10.3750,178.2500,17.4375,-145.3750,0
375.195,9.4379,0.5124,-0.4956,0.1945,0.1996,-0.4823,-44.5500,18.3000,7.0500,9.9216,-1.5083,1.2737,2.2721,-0.0951,0.1042,-66.3000,27.0000,-28.8000,3.2800,3.3300,-9.8300,0.7570,0.7549,-1.6657,-10.0000,-35.2500,10.3750,178.2500,17.4375,-145.3750,0
375.205,9.5409,1.1420,-0.5363,0.4831,0.2294,-0.4514,-44.1000,16.6500,6.4500,9.7947,-1.4198,1.4341,2.1639,-0.1452,0.1588,-68.2500,26.5500,-28.8000,2.8400,2.7700,-8.9200,0.8072,0.6883,-1.6439,-10.0000,-35.2500,10.3750,177.1250,17.2500,-145.5625,0
375.211,9.6678,1.8028,-0.4860,0.7064,0.1330,-0.4141,-44.1000,16.6500,6.4500,9.5936,-1.2881,1.4844,2.0688,-0.1895,0.2044,-68.2500,26.5500,-28.8000,2.8400,2.7700,-8.9200,0.8072,0.6883,-1.6439,-6.3750,-36.6875,10.0000,176.0000,16.9375,-145.6875,0
375.216,9.6678,1.8028,-0.4860,0.7064,0.1330,-0.4141,-41.8500,17.4000,5.1000,9.5936,-1.2881,1.4844,2.0688,-0.1895,0.2044,-67.9500,26.5500,-29.5500,3.1500,3.1700,-8.5100,0.7549,0.5967,-1.6973,-6.3750,-36.6875,10.0000,176.0000,16.9375,-145.6875,0
375.220,9.4451,2.2745,-0.4980,0.9028,0.0602,-0.3874,-41.8500,17.4000,5.1000,9.2344,-0.9505,1.6520,2.0078,-0.2134,0.2198,-67.9500,26.5500,-29.5500,3.1500,3.1700,-8.5100,0.7549,0.5967,-1.6973,-6.3750,-36.6875,10.0000,174.8750,16.8750,-145.7500,0
375.225,9.4451,2.2745,-0.4980,0.9028,0.0602,-0.3874,-42.4500,17.2500,4.5000,9.2344,-0.9505,1.6520,2.0078,-0.2134,0.2198,-67.9500,26.5500,-29.5500,3.5700,3.1900,-8.2400,0.7636,0.8552,-1.6352,-6.3750,-36.6875,10.0000,174.8750,16.8750,-145.7500,0
375.230,9.3518,2.5594,-0.5124,1.0674,-0.0200,-0.3800,-42.4500,17.2500,4.5000,8.9064,-0.8068,1.9609,2.0251,-0.2172,0.2081,-67.9500,26.5500,-29.5500,3.5700,3.1900,-8.2400,0.8738,0.9479,-1.5981,-6.3750,-36.6875,10.0000,173.7500,16.8125,-145.9375,0
375.236,9.3446,2.7509,-0.5650,1.2593,-0.0274,-0.3877,-42.4500,17.2500,4.5000,8.9064,-0.8068,1.9609,2.0251,-0.2172,0.2081,-67.6500,25.9500,-29.4000,3.3400,3.1900,-7.9700,0.8738,0.9479,-1.5981,-6.3750,-36.6875,10.0000,172.6875,16.7500,-146.2500,0
375.246,9.0405,2.7054,-0.5219,1.4893,-0.0096,-0.3944,-43.9500,16.8000,4.5000,8.6838,-0.5986,2.1500,2.0646,-0.1820,0.1759,-67.6500,25.9500,-29.4000,4.2800,1.9900,-6.5200,1.0952,1.0068,-1.5195,-6.3750,-36.6875,10.0000,171.6250,17.0000,-146.6875,0
375.256,8.8801,2.3583,-0.2131,1.7461,0.0682,-0.3989,-41.8500,18.9000,4.0500,8.8753,-0.2753,2.5450,2.1221,-0.1322,0.1058,-66.3000,24.6000,-30.3000,5.3600,1.9300,-6.9000,1.3079,1.3068,-1.2752,-6.3750,-36.6875,10.0000,171.6250,17.0000,-146.6875,0
375.260,8.8801,2.3583,-0.2131,1.7461,0.0682,-0.3989,-41.8500,18.9000,4.0500,9.2344,-0.2059,3.0526,2.1325,-0.0959,0.0181,-66.3000,24.6000,-30.3000,5.3600,1.9300,-6.9000,1.3079,1.3068,-1.2752,-6.3750,-36.6875,10.0000,170.7500,17.5000,-147.1250,0
375.265,9.5193,1.9680,-0.1389,2.0427,0.2121,-0.3725,-45.1500,18.4500,4.0500,9.8833,-0.1652,3.0550,2.1325,-0.0959,0.0181,-67.9500,25.3500,-31.3500,6.1400,2.4800,-8.4700,1.3515,1.6199,-0.8912,-4.2500,-37.5000,9.5625,170.7500,17.5000,-147.1250,0
375.270,9.5193,1.9680,-0.1389,2.0427,0.2121,-0.3725,-45.1500,18.4500,4.0500,9.8833,-0.1652,3.0550,2.0294,-0.0671,-0.0885,-67.9500,25.3500,-31.3500,6.1400,2.4800,-8.4700,1.3515,1.6199,-0.8912,-4.2500,-37.5000,9.5625,170.0625,18.0625,-147.6250,0
375.276,10.8433,1.7310,-0.0910,2.3169,0.3325,-0.3224,-43.6500,17.7000,3.3000,10.7021,-0.2274,2.6695,2.0294,-0.0671,-0.0885,-67.2000,25.8000,-31.3500,7.0900,2.5500,-9.3700,1.2785,1.6810,-0.5869,-4.2500,-37.5000,9.5625,170.0625,18.0625,-147.6250,0
375.284,10.8433,1.7310,-0.0910,2.3169,0.3325,-0.3224,-43.6500,17.7000,3.3000,10.7021,-0.2274,2.6695,1.8317,-0.0586,-0.2241,-67.2000,25.8000,-31.3500,6.5700,5.4800,-7.5900,0.9610,1.2370,-0.5269,-4.2500,-37.5000,9.5625,169.4375,18.5000,-147.9375,0
375.288,12.2296,1.5897,0.0359,2.5365,0.3467,-0.2510,-43.6500,17.7000,3.3000,11.0612,-0.6009,2.2098,1.4853,-0.0690,-0.3864,-67.9500,24.1500,-31.8000,6.5700,5.4800,-7.5900,0.9610,1.2370,-0.5269,-4.2500,-37.5000,9.5625,169.0625,18.6875,-148.0625,0
375.296,13.3142,1.3384,0.1867,2.6428,0.2230,-0.2065,-43.6500,17.7000,3.3000,11.1474,-1.8387,1.7023,1.0818,-0.1178,-0.5335,-67.9500,24.1500,-31.8000,3.7500,10.1600,-7.4200,0.4636,0.6261,-0.4505,-4.2500,-37.5000,9.5625,168.7500,18.5625,-148.1875,0
375.306,13.3261,1.1085,-0.1077,2.5764,-0.0107,-0.2364,-44.4000,16.9500,1.2000,10.8625,-3.3543,1.1157,0.5769,-0.2182,-0.6243,-67.9500,25.3500,-32.5500,2.8900,10.4000,-6.8000,0.3207,0.0818,-0.4385,-4.2500,-37.5000,9.5625,168.7500,18.5625,-148.1875,0
375.311,13.3261,1.1085,-0.1077,2.5764,-0.0107,-0.2364,-44.4000,16.9500,1.2000,10.8625,-3.3543,1.1157,0.5769,-0.2182,-0.6243,-67.9500,25.3500,-32.5500,2.8900,10.4000,-6.8000,0.3207,0.0818,-0.4385,-4.2500,-37.5000,9.5625,168.7500,18.5625,-148.1875,0
375.316,12.0045,0.4118,-0.2801,2.4499,-0.2718,-0.3571,-46.5000,16.5000,-0.3000,10.4842,-4.2641,1.0726,-0.0933,-0.3664,-0.6435,-67.9500,25.3500,-32.5500,1.3400,5.8000,-6.8200,0.5007,0.0284,-0.3916,-3.6875,-36.6875,12.0000,168.5000,18.5000,-148.3750,0
375.321,12.0045,0.4118,-0.2801,2.4499,-0.2718,-0.3571,-46.5000,16.5000,-0.3000,10.4842,-4.2641,1.0726,-0.0933,-0.3664,-0.6435,-67.9500,25.3500,-32.5500,1.3400,5.8000,-6.8200,0.5007,0.0284,-0.3916,-3.6875,-36.6875,12.0000,168.5000,18.5000,-148.3750,0
375.326,10.3334,-0.9050,-0.6153,2.1706,-0.3163,-0.4711,-45.0000,15.0000,-2.1000,10.3190,-4.1061,1.0032,-0.7783,-0.5556,-0.5923,-65.8500,26.7000,-34.2000,2.4600,3.8500,-8.3000,0.5192,0.4134,-0.2258,-3.6875,-36.6875,12.0000,168.2500,18.6250,-148.5625,0
375.333,9.4164,-1.6065,-0.8404,2.0803,-0.4770,-0.4946,-46.2000,16.2000,-1.2000,10.7548,-3.0574,0.6704,-0.7783,-0.5556,-0.5923,-65.8500,26.7000,-34.2000,3.0200,2.0500,-9.4100,0.5171,0.8050,0.0600,-3.6875,-36.6875,12.0000,168.1250,19.0000,-148.8125,0
375.338,9.4164,-1.6065,-0.8404,2.0803,-0.4770,-0.4946,-46.2000,16.2000,-1.2000,10.7548,-3.0574,0.6704,-1.3664,-0.7197,-0.4967,-66.9000,25.2000,-33.0000,3.0200,2.0500,-9.4100,0.5171,0.8050,0.0600,-3.6875,-36.6875,12.0000,168.0625,19.3750,-149.0000,0
375.346,8.6550,-1.6903,-1.4724,1.9332,-0.2044,-0.4162,-46.2000,16.2000,-1.2000,11.1833,-1.6017,0.4501,-1.7213,-0.7911,-0.3816,-67.3500,26.4000,-32.7000,3.1800,1.4800,-10.3300,0.4658,0.6687,0.1560,-3.6875,-36.6875,12.0000,168.0625,19.5000,-149.2500,0
375.356,8.8969,-0.7374,-2.6432,1.8863,-0.0525,-0.3293,-45.7500,15.0000,-2.1000,10.9966,0.1556,0.2179,-1.8010,-0.7914,-0.2939,-67.3500,26.4000,-32.7000,2.6300,1.9500,-9.0500,0.4134,0.2465,0.1331,-3.6875,-36.6875,12.0000,168.0625,19.5000,-149.2500,0
375.361,8.8969,-0.7374,-2.6432,1.8863,-0.0525,-0.3293,-46.6500,13.9500,-2.2500,10.9966,0.1556,0.2179,-1.8010,-0.7914,-0.2939,-66.1500,27.4500,-32.4000,2.6300,1.9500,-9.0500,0.4134,0.2465,0.1331,-3.6875,-36.6875,12.0000,168.1875,19.5625,-149.3750,0
375.366,9.3661,1.2785,-4.0366,1.9321,-0.2204,-0.3395,-46.6500,13.9500,-2.2500,10.3406,2.1404,-0.3974,-1.6587,-0.7466,-0.2755,-66.1500,27.4500,-32.4000,2.4700,2.6000,-9.1000,0.1560,0.0644,0.0829,-3.3750,-36.6875,12.7500,168.1875,19.5625,-149.3750,0
375.371,9.3661,1.2785,-4.0366,1.9321,-0.2204,-0.3395,-46.6500,14.4000,-1.5000,10.3406,2.1404,-0.3974,-1.6587,-0.7466,-0.2755,-65.4000,25.9500,-31.9500,2.4700,2.6000,-9.1000,0.1560,0.0644,0.0829,-3.3750,-36.6875,12.7500,168.1875,19.6250,-149.2500,0
375.376,9.7779,3.1819,-4.9440,1.6257,-0.3256,-0.3930,-46.6500,14.4000,-1.5000,9.7468,3.3375,-0.5076,-1.2209,-0.6430,-0.3283,-65.4000,25.9500,-31.9500,2.7100,3.2100,-8.8900,-0.1593,0.1254,0.0305,-3.3750,-36.6875,12.7500,168.1875,19.6250,-149.2500,0
375.380,9.7779,3.1819,-4.9440,1.6257,-0.3256,-0.3930,-46.0500,14.2500,-2.8500,9.7468,3.3375,-0.5076,-1.2209,-0.6430,-0.3283,-65.8500,26.7000,-31.2000,2.7100,3.2100,-8.8900,-0.3458,0.1407,0.0131,-3.3750,-36.6875,12.7500,168.1875,19.7500,-149.0625,0
375.386,9.5433,3.3615,-5.1044,0.8841,-0.0901,-0.4138,-46.0500,14.2500,-2.8500,8.9328,4.0821,-0.4860,-0.5494,-0.5305,-0.4096,-65.8500,26.7000,-31.2000,3.2600,6.0800,-8.0300,-0.3458,0.1407,0.0131,-3.3750,-36.6875,12.7500,168.2500,19.7500,-148.8750,0
375.396,9.0788,1.8603,-4.2713,-0.0853,0.1223,-0.3437,-45.9000,13.2000,-4.0500,8.4539,3.9840,-1.1612,0.0733,-0.4096,-0.4839,-65.8500,26.7000,-31.2000,3.2400,5.9500,-7.7500,-0.3545,0.0720,0.0327,-3.3750,-36.6875,12.7500,168.2500,19.7500,-148.8750,0
375.406,8.4108,0.3759,-3.7661,-0.8543,0.2427,-0.2483,-45.9000,13.2000,-4.0500,8.6335,3.1580,-1.4054,0.7791,-0.3190,-0.5127,-66.6000,26.7000,-31.2000,3.2500,5.0400,-7.7800,-0.2749,-0.0098,0.0229,-3.3750,-36.6875,12.7500,168.3125,19.7500,-148.6875,0
375.411,7.9799,0.1341,-2.8898,-1.4128,0.4237,-0.2044,-45.4500,13.2000,-3.6000,8.9280,2.5379,-1.5634,1.1948,-0.2952,-0.4948,-65.4000,27.1500,-31.9500,3.2500,5.0400,-7.7800,-0.2749,-0.0098,0.0229,-3.3750,-36.6875,12.7500,168.3125,19.7500,-148.6250,0
375.416,7.9799,0.1341,-2.8898,-1.4128,0.4237,-0.2044,-45.4500,13.2000,-3.6000,8.9280,2.5379,-1.5634,1.1948,-0.2952,-0.4948,-65.4000,27.1500,-31.9500,2.9100,4.5400,-7.9400,-0.1844,-0.0436,-0.0076,-2.6875,-36.5625,12.6875,168.3125,19.7500,-148.6250,0
375.421,8.3151,1.1372,-2.0207,-1.8239,0.3240,-0.2116,-46.2000,15.9000,-3.3000,9.1722,1.6759,-1.9201,1.2612,-0.2739,-0.4431,-67.2000,27.0000,-34.3500,2.9100,4.5400,-7.9400,-0.1844,-0.0436,-0.0076,-2.6875,-36.5625,12.6875,168.3125,19.7500,-148.5625,0
375.426,8.3151,1.1372,-2.0207,-1.8239,0.3240,-0.2116,-46.2000,15.9000,-3.3000,9.1722,1.6759,-1.9201,1.2612,-0.2739,-0.4431,-67.2000,27.0000,-34.3500,2.6300,4.4800,-7.8400,-0.1113,-0.0469,-0.0393,-2.6875,-36.5625,12.6875,168.3125,19.7500,-148.5625,0
375.431,8.1092,2.3128,-1.7166,-2.1160,0.2489,-0.2388,-45.7500,14.2500,-3.1500,9.6822,0.9529,-2.1069,1.0920,-0.2553,-0.3994,-67.2000,28.5000,-33.3000,2.6300,4.4800,-7.8400,-0.0884,-0.0033,-0.0218,-2.6875,-36.5625,12.6875,168.3125,19.6875,-148.5000,0
375.437,8.1092,2.3128,-1.7166,-2.1160,0.2489,-0.2388,-45.7500,14.2500,-3.1500,9.6822,0.9529,-2.1069,1.0920,-0.2553,-0.3994,-65.4000,28.5000,-33.3000,2.5900,4.6800,-7.7900,-0.0884,-0.0033,-0.0218,-2.6875,-36.5625,12.6875,168.3750,19.7500,-148.4375,0
375.446,8.6287,3.5793,-1.7310,-2.0304,0.1982,-0.2603,-45.3000,13.5000,-2.4000,9.8474,0.1939,-1.5562,0.8657,-0.2268,-0.3768,-65.4000,27.9000,-34.5000,2.7900,4.8900,-7.8700,-0.0884,0.1091,0.0360,-2.6875,-36.5625,12.6875,168.3750,19.8750,-148.3750,0
375.456,9.0764,4.4460,-2.0183,-1.7387,0.1250,-0.2550,-45.3000,13.5000,-2.4000,9.8665,0.0407,-0.8164,0.5399,-0.2228,-0.3611,-65.4000,27.4500,-34.2000,2.9800,4.5400,-8.1100,-0.0982,0.1527,0.0753,-2.6875,-36.5625,12.6875,168.3750,19.8750,-148.3750,0
375.461,9.1602,5.1811,-2.2745,-1.4245,0.0626,-0.2718,-43.6500,14.7000,-0.1500,9.8306,0.1101,-0.5794,0.0629,-0.2646,-0.3427,-65.4000,27.4500,-34.2000,2.9800,4.5400,-8.1100,-0.0982,0.1527,0.0753,-2.6875,-36.5625,12.6875,168.3750,19.8750,-148.3750,0
375.466,9.1602,5.1811,-2.2745,-1.4245,0.0626,-0.2718,-43.6500,14.7000,-0.1500,9.8306,0.1101,-0.5794,0.0629,-0.2646,-0.3427,-65.4000,27.4500,-34.2000,2.8800,4.3900,-8.1800,-0.0993,0.1374,0.0753,-3.5000,-37.3750,11.8750,168.5625,19.9375,-148.3125,0
375.471,8.7125,5.5857,-2.4397,-1.1538,0.0552,-0.3182,-43.5000,15.0000,-1.0500,9.5074,0.5483,-0.5171,-0.3381,-0.2745,-0.3030,-63.9000,29.1000,-33.7500,2.8800,4.3900,-8.1800,-0.0993,0.1374,0.0753,-3.5000,-37.3750,11.8750,168.5625,19.9375,-148.3125,0
375.476,8.7125,5.5857,-2.4397,-1.1538,0.0552,-0.3182,-43.5000,15.0000,-1.0500,9.5074,0.5483,-0.5171,-0.3381,-0.2745,-0.3030,-63.9000,29.1000,-33.7500,3.0100,4.4900,-7.9200,-0.1047,0.0851,0.0916,-3.5000,-37.3750,11.8750,168.5625,20.0000,-148.3125,0
375.481,8.5736,5.2625,-2.0470,-0.9497,0.1905,-0.3952,-45.7500,15.0000,0.6000,9.3757,1.0463,-0.7398,-0.6595,-0.2609,-0.2769,-63.9000,29.1000,-33.7500,3.0100,4.4900,-7.9200,-0.1134,0.0862,0.1025,-3.5000,-37.3750,11.8750,168.6250,20.0625,-148.2500,0
375.487,8.5736,5.2625,-2.0470,-0.9497,0.1905,-0.3952,-45.7500,15.0000,0.6000,9.2656,1.5299,-1.1899,-0.6595,-0.2609,-0.2769,-63.9000,29.1000,-33.7500,3.2100,4.7000,-7.8000,-0.1134,0.0862,0.1025,-3.5000,-37.3750,11.8750,168.6875,20.1250,-148.1875,0
375.496,8.7197,4.9105,-1.2617,-0.7432,0.3568,-0.4173,-43.2000,15.7500,0.0000,9.1913,1.7047,-1.4844,-0.9137,-0.2433,-0.2499,-65.8500,27.9000,-33.4500,3.1100,4.8300,-7.6800,-0.1080,0.0513,0.0796,-3.5000,-37.3750,11.8750,168.6875,20.1250,-148.1875,0
375.506,8.2480,5.1499,-0.8116,-0.4666,0.3421,-0.4024,-42.9000,15.9000,1.2000,9.0046,2.2290,-1.8531,-1.0014,-0.2422,-0.2332,-64.3500,29.5500,-33.0000,3.0700,4.8300,-7.6400,-0.0916,0.0098,0.0535,-3.5000,-37.3750,11.8750,168.7500,20.1250,-148.1250,0
375.511,8.1283,5.6336,-0.9625,-0.2622,0.3994,-0.3656,-42.9000,15.9000,1.2000,9.0046,2.2290,-1.8531,-0.9577,-0.2539,-0.2054,-64.3500,27.9000,-34.5000,3.0700,4.8300,-7.6400,-0.0916,0.0098,0.0535,-3.5000,-37.3750,11.8750,168.9375,20.1250,-148.1250,0
375.516,8.1283,5.6336,-0.9625,-0.0490,0.3467,-0.3035,-42.9000,15.9000,1.2000,9.0812,2.7461,-2.3415,-0.9577,-0.2539,-0.2054,-64.3500,27.9000,-34.5000,2.9500,4.6200,-7.6600,-0.0676,0.0120,0.0382,-4.1875,-37.0000,12.2500,168.9375,20.1250,-148.1250,0
375.521,8.3318,6.2297,-1.4293,-0.0490,0.3467,-0.3035,-44.4000,16.6500,-0.7500,9.0812,2.7461,-2.3415,-0.8356,-0.2249,-0.1884,-65.2500,28.0500,-34.3500,2.9500,4.6200,-7.6600,-0.0676,0.0120,0.0382,-4.1875,-37.0000,12.2500,168.9375,20.1250,-148.1250,0
375.526,9.1506,6.6846,-1.8411,0.2324,0.0525,-0.2771,-44.4000,16.6500,-0.7500,9.1985,3.0574,-2.4445,-0.8356,-0.2249,-0.1884,-65.2500,28.0500,-34.3500,2.7800,4.4900,-7.8300,-0.0360,0.0142,0.0295,-4.1875,-37.0000,12.2500,168.9375,20.1250,-148.1250,0
375.531,9.1506,6.6846,-1.8411,0.2324,0.0525,-0.2771,-43.2000,15.7500,0.0000,9.1985,3.0574,-2.4445,-0.5441,-0.1543,-0.1727,-65.2500,28.0500,-34.3500,2.7800,4.4900,-7.8300,-0.0273,0.0458,0.0425,-4.1875,-37.0000,12.2500,168.9375,20.1875,-148.0625,0
375.537,9.2177,6.7588,-1.9082,0.4842,-0.1476,-0.2318,-43.2000,15.7500,0.0000,9.3494,3.1556,-1.7214,-0.1609,-0.0616,-0.1783,-65.2500,28.0500,-34.3500,2.8500,4.4500,-8.0000,-0.0273,0.0458,0.0425,-4.1875,-37.0000,12.2500,168.9375,20.1875,-148.0625,0
375.545,9.2177,6.7588,-1.9082,0.4842,-0.1476,-0.2318,-43.6500,15.9000,-0.1500,9.4212,2.8922,-1.3096,-0.1609,-0.0616,-0.1783,-65.8500,28.3500,-33.7500,2.9800,4.5200,-8.0200,-0.0415,0.1124,0.0731,-4.1875,-37.0000,12.2500,169.0000,20.1875,-148.1250,0
375.550,8.8466,6.2872,-1.7693,0.6379,-0.2105,-0.1812,-43.6500,14.7000,0.1500,9.4212,2.8922,-1.3096,0.1458,-0.0040,-0.1852,-65.8500,28.3500,-33.7500,2.9800,4.5200,-8.0200,-0.0415,0.1124,0.0731,-4.1875,-37.0000,12.2500,169.0000,20.2500,-148.1250,0
375.557,8.6957,5.1404,-1.4054,0.7378,-0.2465,-0.1660,-43.6500,14.7000,0.1500,9.3637,2.3846,-0.7590,0.4056,0.0592,-0.1775,-65.8500,28.3500,-33.7500,3.0700,4.7100,-7.7800,-0.0556,0.1407,0.0862,-4.1875,-37.0000,12.2500,169.0000,20.2500,-148.1250,0
375.562,8.6957,5.1404,-1.4054,0.7378,-0.2465,-0.1660,-43.6500,14.7000,0.1500,9.3637,2.3846,-0.7590,0.4056,0.0592,-0.1775,-64.0500,28.5000,-34.0500,3.0700,4.7100,-7.7800,-0.0556,0.1407,0.0862,-4.1875,-37.0000,12.2500,169.2500,20.3125,-148.0625,0
375.567,8.5473,4.0223,-1.2043,0.8588,-0.2593,-0.1460,-43.6500,14.7000,0.1500,9.4739,1.9417,-0.8428,0.4954,0.1063,-0.1633,-64.0500,28.5000,-34.0500,3.1500,4.6700,-7.7300,-0.0535,0.1254,0.0884,-4.5625,-37.3750,12.2500,169.2500,20.3125,-148.0625,0
375.572,8.5473,4.0223,-1.2043,0.8588,-0.2593,-0.1460,-43.6500,14.7000,0.1500,9.4739,1.9417,-0.8428,0.4954,0.1063,-0.1633,-65.1000,30.3000,-33.7500,3.1500,4.6700,-7.7300,-0.0535,0.1254,0.0884,-4.5625,-37.3750,12.2500,169.2500,20.4375,-148.0625,0
375.577,8.7269,3.3854,-1.3384,0.9422,-0.1863,-0.0544,-43.6500,14.7000,0.1500,9.4906,1.1684,-0.6033,0.5833,0.1817,-0.1375,-65.1000,30.3000,-33.7500,3.2400,4.4600,-8.0000,-0.0338,0.1353,0.0753,-4.5625,-37.3750,12.2500,169.2500,20.4375,-148.0625,0
375.582,8.7269,3.3854,-1.3384,0.9422,-0.1863,-0.0544,-43.2000,14.2500,-1.0500,9.4906,1.1684,-0.6033,0.5833,0.1817,-0.1375,-65.4000,30.3000,-34.5000,3.2400,4.4600,-8.0000,-0.0142,0.1134,0.0556,-4.5625,-37.3750,12.2500,169.3125,20.5000,-148.0625,0
375.587,8.9974,3.2753,-1.4748,0.8996,-0.1484,0.0432,-45.9000,13.6500,-0.7500,9.5960,0.9409,-0.3519,0.5367,0.1793,-0.1172,-65.4000,30.3000,-34.5000,3.2700,4.3700,-8.0800,-0.0142,0.1134,0.0556,-4.5625,-37.3750,12.2500,169.3125,20.5000,-148.0625,0
375.596,9.4763,3.4548,-1.8579,0.6821,-0.1324,0.1005,-44.5500,13.6500,-0.7500,9.7109,0.9625,-0.2849,0.3091,0.1202,-0.1077,-63.4500,29.1000,-33.4500,3.0300,4.3400,-7.9300,0.0044,0.0524,0.0185,-4.5625,-37.3750,12.2500,169.3125,20.5000,-148.0625,0
375.606,9.3206,3.4572,-2.0853,0.4218,-0.1628,0.0546,-45.9000,12.9000,-1.2000,9.8019,1.1779,-0.6752,0.0853,0.0823,-0.0789,-65.4000,30.3000,-33.4500,2.9400,4.4100,-7.9100,0.0196,0.0273,0.0022,-4.5625,-37.3750,12.2500,169.2500,20.5625,-148.0625,0
375.611,9.3206,3.4572,-2.0853,0.4218,-0.1628,0.0546,-45.9000,12.9000,-1.2000,9.8019,1.1779,-0.6752,0.0853,0.0823,-0.0789,-64.8000,29.7000,-34.0500,2.9400,4.4100,-7.9100,0.0196,0.0273,0.0022,-4.5625,-37.3750,12.2500,169.3750,20.5625,-148.1250,0
375.616,9.0884,3.1603,-1.9800,0.2630,-0.0245,-0.0008,-45.9000,12.9000,-1.2000,9.8952,1.5060,-0.6057,-0.0261,0.0560,-0.0698,-64.8000,29.7000,-34.0500,3.1900,4.5600,-7.9700,0.0185,0.0535,0.0229,-4.2500,-38.0625,12.6875,169.3750,20.5625,-148.1250,0
375.621,9.0884,3.1603,-1.9800,0.2630,-0.0245,-0.0008,-45.9000,12.9000,-1.2000,9.8952,1.5060,-0.6057,-0.0261,0.0560,-0.0698,-64.8000,29.7000,-34.0500,3.1900,4.5600,-7.9700,0.0185,0.0535,0.0229,-4.2500,-38.0625,12.6875,169.3750,20.5625,-148.1250,0
375.626,9.3278,2.6121,-1.5634,0.2526,-0.0735,-0.0330,-45.9000,12.9000,-1.2000,9.6917,1.5802,-0.3615,-0.0610,0.0349,-0.0749,-64.8000,29.7000,-34.0500,3.1600,4.7300,-7.8600,0.0044,0.0764,0.0404,-4.2500,-38.0625,12.6875,169.3750,20.5625,-148.1250,0
375.631,9.3278,2.6121,-1.5634,0.2526,-0.0735,-0.0330,-44.4000,14.4000,-1.2000,9.5457,1.3671,-0.2610,-0.0610,0.0349,-0.0749,-64.6500,29.5500,-34.2000,3.1600,4.7300,-7.8600,-0.0076,0.0545,0.0360,-4.2500,-38.0625,12.6875,169.3750,20.6250,-148.1250,0
375.637,9.0860,2.1093,-1.5251,0.2907,-0.0528,-0.0389,-45.3000,14.5500,-1.3500,9.5457,1.3671,-0.2610,-0.0642,0.0131,-0.0858,-64.6500,29.5500,-34.2000,3.1000,4.7700,-7.6900,-0.0076,0.0545,0.0360,-4.2500,-38.0625,12.6875,169.3750,20.6250,-148.1250,0
375.646,8.7700,1.8938,-1.5012,0.3035,0.0035,-0.0568,-43.9500,14.5500,-2.8500,9.6247,1.1061,-0.2346,-0.1271,0.0051,-0.0815,-65.8500,31.0500,-35.2500,3.1200,4.6400,-7.7600,-0.0131,0.0404,0.0327,-4.2500,-38.0625,12.6875,169.3750,20.6875,-148.1250,0
375.656,8.9040,1.8603,-1.5467,0.2403,0.0655,-0.1029,-43.5000,13.0500,-1.6500,9.7444,0.9409,-0.2610,-0.2409,0.0021,-0.0592,-64.0500,29.7000,-34.0500,3.2000,4.3600,-8.0200,-0.0076,0.0425,0.0316,-4.2500,-38.0625,12.6875,169.3750,20.6875,-148.1250,0
375.661,9.1674,2.0159,-1.4557,0.0863,0.0866,-0.1492,-43.5000,13.0500,-1.6500,9.7827,0.8356,-0.3926,-0.3456,-0.0101,-0.0352,-65.4000,29.5500,-33.7500,3.2000,4.3600,-8.0200,-0.0076,0.0425,0.0316,-4.6875,-37.3750,12.6875,169.5000,20.6875,-148.1875,0
375.667,9.1674,2.0159,-1.4557,0.0863,0.0866,-0.1492,-42.7500,15.3000,-1.3500,9.7827,0.8356,-0.3926,-0.3456,-0.0101,-0.0352,-65.4000,29.5500,-33.7500,3.2800,4.3900,-8.0300,-0.0131,0.0316,0.0371,-4.6875,-37.3750,12.6875,169.5000,20.6875,-148.1875,0
375.672,9.3733,2.3415,-1.4988,-0.0727,0.0749,-0.1575,-42.7500,15.3000,-1.3500,9.7324,1.0702,-0.4573,-0.4143,-0.0322,-0.0365,-65.2500,27.7500,-34.0500,3.2800,4.3900,-8.0300,-0.0131,0.0316,0.0371,-4.6875,-37.3750,12.6875,169.5000,20.6875,-148.1875,0
375.677,9.3733,2.3415,-1.4988,-0.0727,0.0749,-0.1575,-42.7500,15.3000,-1.3500,9.7324,1.0702,-0.4573,-0.4143,-0.0322,-0.0365,-65.2500,27.7500,-34.0500,3.2200,4.4600,-7.9800,-0.0098,0.0109,0.0273,-4.6875,-37.3750,12.6875,169.5000,20.6875,-148.1875,0
375.681,9.3111,2.6312,-1.6089,-0.1785,0.0693,-0.1516,-42.7500,15.3000,-1.3500,9.6822,1.5131,-0.5339,-0.3994,-0.0565,-0.0258,-64.5000,29.7000,-34.3500,3.2200,4.4600,-7.9800,-0.0022,-0.0109,0.0087,-4.6875,-37.3750,12.6875,169.5000,20.6250,-148.2500,0
375.687,9.3111,2.6312,-1.6089,-0.1785,0.0693,-0.1516,-44.4000,13.2000,-0.7500,9.6822,1.5131,-0.5339,-0.3994,-0.0565,-0.0258,-64.5000,29.7000,-34.3500,3.0800,4.4100,-8.0200,-0.0022,-0.0109,0.0087,-4.6875,-37.3750,12.6875,169.5625,20.6250,-148.3125,0
375.696,9.0381,2.8802,-1.7597,-0.2422,0.0885,-0.1492,-43.3500,13.9500,-1.2000,9.5217,1.9824,-0.4788,-0.2750,-0.0536,-0.0298,-64.5000,29.7000,-34.3500,3.2000,4.4000,-8.0200,-0.0087,-0.0011,0.0153,-4.6875,-37.3750,12.6875,169.5625,20.6250,-148.3125,0
375.704,9.0980,3.0023,-1.6712,-0.3096,0.0789,-0.1511,-45.0000,15.0000,-2.1000,9.4547,2.0159,-0.6823,-0.1212,-0.0346,-0.0458,-66.1500,29.1000,-34.2000,3.2000,4.4100,-8.0200,-0.0142,0.0022,0.0240,-4.6875,-37.3750,12.6875,169.5625,20.5625,-148.3750,0
375.709,9.0980,3.0023,-1.6712,-0.3096,0.0789,-0.1511,-45.0000,15.0000,-2.1000,9.5146,1.7909,-0.7278,0.0802,-0.0117,-0.0661,-66.1500,29.1000,-34.2000,3.2000,4.4100,-8.0200,-0.0142,0.0022,0.0240,-4.6875,-37.3750,12.6875,169.5625,20.5625,-148.3750,0
375.714,9.1746,3.1101,-1.5179,-0.3693,0.0397,-0.1354,-44.1000,14.7000,-2.2500,9.5146,1.7909,-0.7278,0.0802,-0.0117,-0.0661,-66.1500,29.1000,-34.2000,3.1200,4.5600,-7.8300,-0.0142,-0.0207,0.0164,-4.6875,-37.3750,11.8750,169.7500,20.5625,-148.3750,0
375.719,9.1746,3.1101,-1.5179,-0.3693,0.0397,-0.1354,-44.1000,14.7000,-2.2500,9.6151,1.4533,-0.6033,0.1998,0.0035,-0.0743,-66.1500,29.1000,-34.2000,3.1200,4.5600,-7.8300,-0.0142,-0.0207,0.0164,-4.6875,-37.3750,11.8750,169.7500,20.5000,-148.4375,0
375.727,9.1123,3.0335,-1.3455,-0.3621,0.0179,-0.1106,-44.1000,14.7000,-2.2500,9.7061,1.2426,-0.4669,0.1998,0.0035,-0.0743,-65.5500,29.7000,-34.0500,3.1100,4.4300,-7.9900,-0.0087,-0.0229,0.0065,-4.6875,-37.3750,11.8750,169.7500,20.5000,-148.4375,0
375.736,8.9998,3.0502,-1.3455,-0.2798,-0.0045,-0.0834,-41.8500,14.7000,-1.9500,9.7061,1.2426,-0.4669,0.1921,0.0149,-0.0727,-64.5000,30.0000,-33.6000,3.1500,4.3500,-8.1000,-0.0120,-0.0229,0.0055,-4.6875,-37.3750,11.8750,169.7500,20.5000,-148.5000,0
375.742,8.8897,3.2920,-1.4126,-0.2321,-0.0165,-0.0743,-41.8500,14.7000,-1.9500,9.6438,1.1875,-0.4860,0.0922,0.0008,-0.0613,-64.6500,31.0500,-34.9500,3.1700,4.3500,-8.0400,-0.0109,-0.0349,0.0098,-4.6875,-37.3750,11.8750,169.7500,20.4375,-148.5625,0
375.747,8.8897,3.2920,-1.4126,-0.2321,-0.0165,-0.0743,-45.3000,14.2500,-1.3500,9.7085,1.1923,-0.4645,0.0051,-0.0147,-0.0557,-64.6500,31.0500,-34.9500,3.1700,4.3500,-8.0400,-0.0109,-0.0349,0.0098,-4.6875,-37.3750,11.8750,169.7500,20.3750,-148.5625,0
375.757,8.9711,3.5219,-1.3408,-0.2601,0.0365,-0.0709,-44.2500,15.7500,-1.6500,9.6079,1.3647,-0.2538,-0.0410,-0.0282,-0.0541,-63.4500,29.1000,-34.5000,3.0800,4.6400,-7.7900,-0.0131,-0.0480,0.0065,-4.6875,-37.3750,11.8750,169.7500,20.3750,-148.5625,0
375.761,9.0621,3.6895,-1.4509,-0.2745,0.1039,-0.0653,-44.2500,15.7500,-1.6500,9.6079,1.3647,-0.2538,-0.0410,-0.0282,-0.0541,-63.4500,29.1000,-34.5000,3.0800,4.6400,-7.7900,-0.0131,-0.0480,0.0065,-5.0625,-37.3750,12.6875,169.8750,20.3750,-148.5625,0
375.767,9.0621,3.6895,-1.4509,-0.2745,0.1039,-0.0653,-43.6500,12.4500,-1.9500,9.5193,1.6544,-0.3831,-0.0861,-0.0520,-0.0432,-63.4500,29.1000,-34.5000,3.1000,4.6300,-7.7800,-0.0196,-0.0447,0.0022,-5.0625,-37.3750,12.6875,169.8750,20.3750,-148.5625,0
375.771,9.0501,3.7972,-1.4964,-0.2388,0.1167,-0.0592,-43.6500,12.4500,-1.9500,9.5193,1.6544,-0.3831,-0.0861,-0.0520,-0.0432,-64.8000,30.4500,-34.3500,3.1000,4.6300,-7.7800,-0.0196,-0.0447,0.0022,-5.0625,-37.3750,12.6875,169.9375,20.3125,-148.5625,0
375.776,9.0501,3.7972,-1.4964,-0.2388,0.1167,-0.0592,-45.0000,14.5500,-1.6500,9.5385,1.7334,-0.6704,-0.1034,-0.0552,-0.0394,-64.8000,30.4500,-34.3500,3.1800,4.5100,-7.8700,-0.0196,-0.0284,0.0033,-5.0625,-37.3750,12.6875,169.9375,20.3125,-148.5625,0
375.781,8.9854,4.1037,-1.5323,-0.1559,0.1170,-0.0645,-45.0000,14.5500,-1.6500,9.5385,1.7334,-0.6704,-0.1034,-0.0552,-0.0394,-64.8000,30.4500,-34.3500,3.1800,4.5100,-7.8700,-0.0153,-0.0338,-0.0033,-5.0625,-37.3750,12.6875,169.9375,20.3125,-148.5625,0
375.787,9.0261,4.3598,-1.5083,-0.0687,0.1327,-0.0509,-45.0000,14.5500,-1.6500,9.6079,1.8292,-0.6800,-0.0533,-0.0562,-0.0336,-64.8000,30.4500,-34.3500,3.0500,4.6200,-7.8000,-0.0153,-0.0338,-0.0033,-5.0625,-37.3750,12.6875,169.9375,20.2500,-148.5625,0
375.796,9.0261,4.3598,-1.5083,-0.0687,0.1327,-0.0509,-43.5000,13.8000,-1.0500,9.5193,1.7789,-0.6464,-0.0189,-0.0565,-0.0266,-64.5000,29.7000,-33.6000,3.0600,4.6200,-7.7900,-0.0109,-0.0382,-0.0131,-5.0625,-37.3750,12.6875,169.9375,20.2500,-148.5625,0
375.803,8.8801,4.5394,-1.5538,-0.0120,0.1593,-0.0288,-42.9000,13.8000,-1.0500,9.5193,1.7789,-0.6464,-0.0189,-0.0565,-0.0266,-63.7500,29.7000,-34.8000,3.1200,4.5300,-7.9000,-0.0142,-0.0142,-0.0109,-5.0625,-37.3750,12.6875,169.9375,20.2500,-148.5625,0
375.808,8.8035,4.5586,-1.5419,0.0661,0.1609,-0.0011,-42.9000,13.2000,-0.7500,9.4978,1.7861,-0.7111,0.0181,-0.0522,-0.0226,-63.7500,29.7000,-34.8000,3.1200,4.5300,-7.9000,-0.0142,-0.0142,-0.0109,-5.0625,-37.3750,12.6875,169.9375,20.2500,-148.5625,0
375.812,8.8035,4.5586,-1.5419,0.0661,0.1609,-0.0011,-43.9500,14.2500,-0.7500,9.4978,1.7861,-0.7111,0.0181,-0.0522,-0.0226,-63.9000,30.6000,-33.0000,3.1200,4.5300,-7.9000,-0.0109,-0.0065,-0.0098,-4.6875,-37.6875,11.8750,170.0625,20.2500,-148.6250,0
375.817,8.8538,4.4197,-1.6735,0.1540,0.1791,0.0216,-43.9500,14.2500,-1.6500,9.5744,1.7813,-0.8523,0.0458,-0.0522,-0.0147,-63.9000,30.6000,-33.0000,3.1200,4.5500,-7.8600,-0.0109,-0.0065,-0.0098,-4.6875,-37.6875,11.8750,170.0625,20.1875,-148.6250,0
375.827,9.0022,4.2329,-1.6807,0.2443,0.1807,0.0466,-44.4000,13.6500,-0.4500,9.4260,1.6807,-0.9313,0.0754,-0.0317,-0.0072,-63.4500,28.6500,-34.5000,3.1600,4.4700,-7.9400,-0.0033,-0.0131,-0.0164,-4.6875,-37.6875,11.8750,170.0625,20.1875,-148.6250,0
375.834,9.0022,4.2329,-1.6807,0.2443,0.1807,0.0466,-44.4000,13.6500,-0.4500,9.4020,1.6831,-1.0678,0.1119,-0.0213,-0.0027,-63.4500,30.6000,-35.2500,3.1700,4.5100,-7.9100,-0.0033,-0.0044,-0.0218,-4.6875,-37.6875,11.8750,170.0625,20.1875,-148.6250,0
375.838,9.0525,3.8810,-1.6352,0.2966,0.1737,0.0797,-44.4000,13.6500,-0.4500,9.4020,1.6831,-1.0678,0.1119,-0.0213,-0.0027,-63.4500,30.6000,-35.2500,3.1700,4.5100,-7.9100,-0.0033,-0.0044,-0.0218,-4.6875,-37.6875,11.8750,170.0000,20.1250,-148.6250,0
375.847,8.9471,3.5506,-1.6759,0.2998,0.1426,0.0949,-44.4000,13.6500,-0.4500,9.4691,1.5203,-1.0894,0.1476,-0.0179,-0.0035,-65.1000,28.6500,-34.2000,3.0800,4.5600,-7.8000,0.0033,-0.0164,-0.0305,-4.6875,-37.6875,11.8750,170.0000,20.1250,-148.6250,0
375.854,8.9471,3.5506,-1.6759,0.2998,0.1426,0.0949,-43.9500,15.0000,-2.4000,9.4595,1.5993,-1.0989,0.1708,-0.0080,-0.0032,-65.1000,28.6500,-34.2000,3.0500,4.4800,-7.8900,0.0065,-0.0109,-0.0382,-4.6875,-37.6875,11.8750,170.0000,20.1250,-148.6250,0
375.859,8.8346,3.2274,-1.7933,0.3528,0.1295,0.1050,-43.9500,15.0000,-2.4000,9.4595,1.5993,-1.0989,0.1708,-0.0080,-0.0032,-65.1000,28.6500,-34.2000,3.0500,4.4800,-7.8900,0.0065,-0.0109,-0.0382,-4.6875,-37.6875,11.8750,170.0000,20.1250,-148.6250,0
375.864,8.9136,3.2801,-2.0638,0.4146,0.1218,0.1023,-43.5000,14.5500,-2.8500,9.4379,1.5371,-1.2809,0.1644,0.0139,-0.0021,-64.0500,31.2000,-35.5500,3.1000,4.4100,-7.9600,0.0065,0.0120,-0.0284,-5.3750,-37.3750,11.5000,170.3125,20.1250,-148.6875,0
375.869,8.9136,3.2801,-2.0638,0.4146,0.1218,0.1023,-43.5000,14.5500,-2.8500,9.4379,1.5371,-1.2809,0.1644,0.0139,-0.0021,-64.0500,31.2000,-35.5500,3.1000,4.4100,-7.9600,0.0065,0.0120,-0.0284,-5.3750,-37.3750,11.5000,170.3125,20.1250,-148.6875,0
375.874,8.9232,3.3806,-2.1572,0.4557,0.0813,0.1031,-45.3000,15.3000,-1.0500,9.5026,1.4437,-1.2953,0.1519,0.0288,0.0019,-64.6500,28.6500,-34.9500,3.0900,4.4800,-7.9000,0.0033,0.0185,-0.0207,-5.3750,-37.3750,11.5000,170.3125,20.0625,-148.6875,0
375.879,8.9232,3.3806,-2.1572,0.4557,0.0813,0.1031,-45.3000,15.3000,-1.0500,9.5026,1.4437,-1.2953,0.1519,0.0288,0.0019,-64.6500,28.6500,-34.9500,3.0900,4.4800,-7.9000,0.0033,0.0185,-0.0207,-5.3750,-37.3750,11.5000,170.3125,20.0625,-148.6875,0
375.884,8.9064,3.4955,-2.1739,0.4541,0.0799,0.0882,-44.2500,15.7500,-1.0500,9.4619,1.5921,-1.2019,0.1122,0.0392,0.0051,-64.8000,29.2500,-32.8500,3.0400,4.4500,-7.9600,0.0076,0.0229,-0.0229,-5.3750,-37.3750,11.5000,170.3125,20.0625,-148.6875,0
375.889,8.9064,3.4955,-2.1739,0.4541,0.0799,0.0882,-44.2500,15.7500,-1.0500,9.4619,1.5921,-1.2019,0.1122,0.0392,0.0051,-64.8000,29.2500,-32.8500,3.0400,4.4500,-7.9600,0.0076,0.0229,-0.0229,-5.3750,-37.3750,11.5000,170.2500,20.0625,-148.7500,0
375.897,9.0716,3.5865,-2.3200,0.4269,0.0834,0.0618,-44.2500,15.7500,-1.0500,9.4068,1.5778,-1.1779,0.1013,0.0733,0.0149,-65.2500,30.4500,-35.8500,3.1200,4.4700,-7.9400,0.0055,0.0295,-0.0207,-5.3750,-37.3750,11.5000,170.2500,20.0625,-148.7500,0
375.903,9.0716,3.5865,-2.3200,0.4269,0.0834,0.0618,-44.8500,13.6500,-1.2000,9.4739,1.6592,-1.0774,0.0887,0.0845,0.0189,-64.0500,30.4500,-34.0500,3.1400,4.5300,-7.8600,0.0044,0.0338,-0.0120,-5.3750,-37.3750,11.5000,170.2500,20.0625,-148.7500,0
375.908,9.0812,3.5003,-2.2625,0.3627,0.0802,0.0328,-44.8500,13.6500,-1.2000,9.4739,1.6592,-1.0774,0.0887,0.0845,0.0189,-64.0500,30.4500,-34.0500,3.1400,4.5300,-7.8600,0.0044,0.0338,-0.0120,-5.3750,-37.3750,11.5000,170.2500,20.0625,-148.7500,0
375.913,9.0429,3.4955,-2.0949,0.2894,0.0469,0.0099,-44.4000,13.2000,-2.2500,9.4858,1.8794,-1.1684,0.0261,0.0895,0.0306,-63.9000,29.8500,-35.2500,3.0300,4.5100,-7.8800,0.0065,0.0316,-0.0142,-5.3750,-36.5625,11.8750,170.5000,20.0625,-148.7500,0
375.918,9.0429,3.4955,-2.0949,0.2894,0.0469,0.0099,-44.4000,13.2000,-2.2500,9.4858,1.8794,-1.1684,0.0261,0.0895,0.0306,-63.9000,29.8500,-35.2500,3.0300,4.5100,-7.8800,0.0065,0.0316,-0.0142,-5.3750,-36.5625,11.8750,170.5000,20.0625,-148.7500,0
375.927,9.1482,3.5554,-1.7909,0.1927,0.0605,-0.0253,-43.6500,14.4000,-2.5500,9.4164,1.9106,-1.1564,0.0330,0.1186,0.0408,-63.9000,29.8500,-35.2500,3.1400,4.5700,-7.8800,0.0022,0.0393,-0.0120,-5.3750,-36.5625,11.8750,170.5000,20.0625,-148.7500,0
375.934,9.0309,3.1867,-1.6065,0.0464,0.0903,-0.0640,-44.4000,13.2000,-1.5000,9.4475,1.9537,-0.8691,0.0802,0.1210,0.0370,-63.4500,29.5500,-34.2000,3.0300,4.7200,-7.6900,0.0055,0.0469,-0.0044,-5.3750,-36.5625,11.8750,170.5000,20.0625,-148.7500,0
375.939,9.0309,3.1867,-1.6065,0.0464,0.0903,-0.0640,-44.4000,13.2000,-1.5000,9.4691,1.9225,-0.7302,0.1220,0.1170,0.0394,-63.4500,29.5500,-34.2000,3.0300,4.7200,-7.6900,0.0055,0.0469,-0.0044,-5.3750,-36.5625,11.8750,170.5000,20.0625,-148.7500,0
375.947,8.8059,2.8539,-1.6424,-0.0218,0.1202,-0.0887,-44.8500,14.7000,-3.0000,9.4691,1.9225,-0.7302,0.1220,0.1170,0.0394,-63.4500,29.5500,-34.2000,3.0300,4.6700,-7.7100,0.0065,0.0502,-0.0087,-5.3750,-36.5625,11.8750,170.5000,20.0625,-148.7500,0
375.954,8.9016,2.6049,-1.4676,-0.0320,0.1434,-0.0962,-44.8500,14.7000,-3.0000,9.4930,1.6951,-0.6009,0.1529,0.1100,0.0421,-63.9000,29.1000,-34.5000,3.1100,4.6400,-7.7500,0.0000,0.0742,-0.0022,-5.3750,-36.5625,11.8750,170.5000,20.1250,-148.7500,0
375.959,8.9016,2.6049,-1.4676,-0.0320,0.1434,-0.0962,-44.8500,14.7000,-3.0000,9.4763,1.3360,-0.6009,0.1966,0.1167,0.0384,-63.9000,29.1000,-34.5000,3.1100,4.6400,-7.7500,0.0000,0.0742,-0.0022,-5.3750,-36.5625,11.8750,170.5000,20.1250,-148.7500,0
375.964,9.0525,2.6480,-1.4940,-0.0250,0.1399,-0.0663,-42.9000,14.7000,-1.2000,9.4763,1.3360,-0.6009,0.1966,0.1167,0.0384,-63.3000,30.0000,-34.8000,3.1500,4.6800,-7.7300,0.0076,0.0916,-0.0011,-4.6875,-37.3750,11.8750,170.5625,20.1250,-148.7500,0
375.969,9.0525,2.6480,-1.4940,-0.0250,0.1399,-0.0663,-42.9000,14.7000,-1.2000,9.6582,0.9744,-0.5315,0.1812,0.1162,0.0288,-63.3000,30.0000,-34.8000,3.1500,4.6800,-7.7300,0.0076,0.0916,-0.0011,-4.6875,-37.3750,11.8750,170.5625,20.1250,-148.7500,0
375.974,9.0884,2.8946,-1.5299,-0.0221,0.1258,-0.0434,-45.1500,15.4500,-3.3000,9.6582,0.9744,-0.5315,0.1812,0.1162,0.0288,-64.8000,29.7000,-35.8500,3.1400,4.5500,-7.8400,0.0076,0.0916,-0.0011,-4.6875,-37.3750,11.8750,170.5625,20.1875,-148.7500,0
375.978,9.0884,2.8946,-1.5299,-0.0221,0.1258,-0.0434,-45.1500,15.4500,-3.3000,9.6510,0.8188,-0.5746,0.1138,0.1132,0.0288,-64.8000,29.7000,-35.8500,3.1400,4.5500,-7.8400,0.0076,0.0916,-0.0011,-4.6875,-37.3750,11.8750,170.5625,20.1875,-148.7500,0
375.983,9.2775,3.1627,-1.6161,0.0144,0.1407,-0.0317,-43.3500,12.9000,-1.9500,9.6510,0.8188,-0.5746,0.1138,0.1132,0.0288,-66.0000,29.2500,-33.6000,3.1500,4.3200,-8.0200,0.0076,0.0840,-0.0087,-4.6875,-37.3750,11.8750,170.5625,20.1875,-148.7500,0
375.988,9.2775,3.1627,-1.6161,0.0144,0.1407,-0.0317,-43.3500,12.9000,-1.9500,9.7540,0.9026,-0.4764,0.0434,0.1116,0.0360,-66.0000,29.2500,-33.6000,3.1500,4.3200,-8.0200,0.0076,0.0840,-0.0087,-4.6875,-37.3750,11.8750,170.5625,20.2500,-148.7500,0
375.997,9.4715,3.4189,-1.7071,0.0807,0.1191,-0.0373,-45.9000,14.4000,-1.9500,9.7324,1.0630,-0.5291,0.0053,0.1050,0.0309,-66.0000,29.2500,-33.6000,3.2000,4.3300,-8.0900,0.0011,0.0905,-0.0011,-4.6875,-37.3750,11.8750,170.5625,20.2500,-148.7500,0
376.007,9.4355,3.3447,-1.7358,0.1287,0.0930,-0.0274,-45.9000,14.4000,-1.9500,9.5624,1.1396,-0.5962,0.0075,0.1063,0.0232,-63.4500,28.3500,-35.7000,3.1900,4.4000,-7.9800,-0.0033,0.0676,-0.0044,-4.6875,-37.3750,11.8750,170.5625,20.2500,-148.7500,0
376.012,9.2249,3.1220,-1.6999,0.1705,0.0909,-0.0264,-43.9500,13.5000,-2.1000,9.5624,1.1396,-0.5962,0.0075,0.1063,0.0232,-63.4500,28.3500,-35.7000,3.1900,4.4000,-7.9800,-0.0033,0.0676,-0.0044,-4.6875,-37.3750,11.8750,170.5625,20.2500,-148.7500,0
376.017,9.2249,3.1220,-1.6999,0.1705,0.0909,-0.0264,-43.9500,13.5000,-2.1000,9.6319,1.2498,-0.6369,0.0296,0.1095,0.0109,-63.4500,28.3500,-35.7000,3.1400,4.4000,-7.9600,-0.0065,0.0611,-0.0044,-4.6875,-36.5625,11.5000,170.6875,20.3125,-148.7500,0
376.022,9.1961,2.7821,-1.6113,0.2174,0.1138,-0.0221,-43.5000,13.0500,-2.8500,9.6319,1.2498,-0.6369,0.0296,0.1095,0.0109,-63.4500,28.3500,-35.7000,3.1400,4.4000,-7.9600,-0.0065,0.0611,-0.0044,-4.6875,-36.5625,11.5000,170.6875,20.3125,-148.7500,0
376.027,9.1961,2.7821,-1.6113,0.2174,0.1138,-0.0221,-43.5000,13.0500,-2.8500,9.5768,1.3336,-0.6512,0.0344,0.1164,0.0083,-65.8500,29.1000,-33.4500,3.1700,4.4100,-7.9800,-0.0065,0.0611,-0.0044,-4.6875,-36.5625,11.5000,170.6875,20.3125,-148.7500,0
376.032,9.2105,2.7964,-1.4916,0.2505,0.1114,-0.0261,-42.9000,14.4000,0.1500,9.5768,1.3336,-0.6512,0.0344,0.1164,0.0083,-65.8500,29.1000,-33.4500,3.1700,4.4100,-7.9800,-0.0131,0.0589,-0.0033,-4.6875,-36.5625,11.5000,170.6250,20.3125,-148.7500,0
376.038,9.2105,2.7964,-1.4916,0.2505,0.1114,-0.0261,-42.9000,14.4000,0.1500,9.6319,1.4078,-0.6177,0.0477,0.1194,-0.0011,-66.1500,28.6500,-34.2000,3.1700,4.4200,-7.9800,-0.0131,0.0589,-0.0033,-4.6875,-36.5625,11.5000,170.6250,20.3125,-148.8125,0
376.047,9.1889,2.9233,-1.3695,0.2385,0.1170,-0.0296,-44.4000,13.9500,-2.2500,9.6319,1.4293,-0.5148,0.0831,0.1191,-0.0045,-64.0500,29.2500,-34.0500,3.2200,4.3800,-8.0100,-0.0131,0.0284,-0.0011,-4.6875,-36.5625,11.5000,170.6250,20.3125,-148.8125,0
376.053,9.1243,2.8946,-1.2234,0.2385,0.1186,-0.0296,-44.4000,12.9000,-3.3000,9.6319,1.4293,-0.5148,0.0831,0.1191,-0.0045,-64.0500,29.2500,-34.0500,3.1400,4.5600,-7.7900,-0.0164,0.0229,0.0033,-4.6875,-36.5625,11.5000,170.6250,20.3125,-148.8125,0
376.058,9.2153,2.8347,-1.2833,0.2441,0.1167,-0.0237,-44.4000,12.9000,-3.3000,9.6127,1.3719,-0.4381,0.1367,0.1234,-0.0093,-65.2500,28.5000,-34.3500,3.1400,4.5600,-7.7900,-0.0164,0.0229,0.0033,-4.6875,-36.5625,11.5000,170.6250,20.3125,-148.8125,0
376.063,9.2153,2.8347,-1.2833,0.2441,0.1167,-0.0237,-44.4000,12.9000,-3.3000,9.5768,1.3575,-0.2179,0.1367,0.1234,-0.0093,-65.2500,28.0500,-34.0500,3.1400,4.5600,-7.7900,-0.0284,0.0349,0.0000,-5.3750,-36.5625,12.6875,170.8125,20.3125,-148.8125,0
376.068,9.1028,2.8946,-1.3743,0.2803,0.1130,-0.0298,-44.4000,12.9000,-3.3000,9.5768,1.3575,-0.2179,0.1759,0.1159,-0.0104,-65.2500,28.0500,-34.0500,3.2000,4.5700,-7.8500,-0.0284,0.0349,0.0000,-5.3750,-36.5625,12.6875,170.8125,20.3125,-148.8125,0
376.073,9.1028,2.8946,-1.3743,0.2803,0.1130,-0.0298,-43.3500,14.4000,-2.2500,9.7181,1.3503,-0.2873,0.1759,0.1159,-0.0104,-65.2500,28.0500,-34.0500,3.2000,4.5700,-7.8500,-0.0393,0.0415,-0.0076,-5.3750,-36.5625,12.6875,170.8125,20.3125,-148.8125,0
376.078,9.0477,3.0981,-1.2833,0.2726,0.1026,-0.0442,-43.3500,14.4000,-2.2500,9.7181,1.3503,-0.2873,0.1681,0.0986,-0.0128,-64.6500,29.1000,-34.5000,3.1400,4.5200,-7.8200,-0.0393,0.0415,-0.0076,-5.3750,-36.5625,12.6875,170.8125,20.3125,-148.8125,0
376.083,9.0477,3.0981,-1.2833,0.2726,0.1026,-0.0442,-44.4000,13.6500,-1.5000,9.6367,1.4198,-0.4381,0.1681,0.0986,-0.0128,-64.6500,29.1000,-34.5000,3.1400,4.5200,-7.8200,-0.0436,0.0556,-0.0044,-5.3750,-36.5625,12.6875,170.8125,20.3750,-148.7500,0
376.088,9.1794,3.2848,-1.3575,0.2529,0.1295,-0.0626,-44.2500,14.2500,-2.1000,9.6367,1.4198,-0.4381,0.1545,0.1031,-0.0147,-64.6500,29.1000,-34.5000,3.1700,4.5500,-7.8500,-0.0436,0.0556,-0.0044,-5.3750,-36.5625,12.6875,170.8125,20.3750,-148.7500,0
376.097,9.1028,3.3016,-1.5131,0.2401,0.1585,-0.0786,-44.2500,14.2500,-2.1000,9.4978,1.4988,-0.7087,0.1620,0.1111,-0.0152,-66.1500,29.1000,-33.7500,3.1800,4.6100,-7.8500,-0.0404,0.0665,-0.0098,-5.3750,-36.5625,12.6875,170.8125,20.3750,-148.7500,0
376.102,9.1028,3.3016,-1.5131,0.2401,0.1585,-0.0786,-44.5500,13.5000,-2.4000,9.5026,1.5658,-0.6201,0.1620,0.1111,-0.0152,-66.1500,29.1000,-33.7500,3.1800,4.6100,-7.8500,-0.0404,0.0633,-0.0185,-5.3750,-36.5625,12.6875,170.7500,20.3750,-148.7500,0
376.108,9.1195,3.1556,-1.5419,0.2406,0.1783,-0.0837,-44.5500,13.5000,-2.4000,9.5026,1.5658,-0.6201,0.1612,0.1239,-0.0253,-63.4500,29.5500,-35.2500,3.1800,4.6100,-7.8100,-0.0404,0.0633,-0.0185,-5.3750,-36.5625,12.6875,170.7500,20.3750,-148.7500,0
376.113,9.1195,3.1556,-1.5419,0.2406,0.1783,-0.0837,-44.5500,13.5000,-2.4000,9.6391,1.5179,-0.4669,0.2028,0.1090,-0.0304,-63.4500,29.5500,-35.2500,3.1800,4.6100,-7.8100,-0.0436,0.0415,-0.0229,-4.0000,-37.6875,11.5000,170.7500,20.3750,-148.6875,0
376.118,9.1243,3.0598,-1.6352,0.2904,0.1865,-0.0661,-43.6500,13.9500,-2.5500,9.6391,1.5179,-0.4669,0.2028,0.1090,-0.0304,-65.2500,30.4500,-34.8000,3.2100,4.5700,-7.8600,-0.0436,0.0415,-0.0229,-4.0000,-37.6875,11.5000,170.7500,20.3750,-148.6875,0
376.127,9.1267,3.1196,-1.6113,0.3365,0.1951,-0.0669,-43.6500,13.9500,-2.5500,9.5361,1.1899,-0.4453,0.2622,0.1087,-0.0370,-64.8000,28.9500,-34.3500,3.1900,4.5400,-7.8400,-0.0371,0.0098,-0.0273,-4.0000,-37.6875,11.5000,170.7500,20.3750,-148.6875,0
376.133,9.1267,3.1196,-1.6113,0.3365,0.1951,-0.0669,-45.1500,13.2000,-1.5000,9.5648,1.0463,-0.5411,0.2590,0.1018,-0.0448,-64.8000,28.9500,-34.3500,3.1800,4.5700,-7.8000,-0.0327,0.0055,-0.0305,-4.0000,-37.6875,11.5000,170.7500,20.3750,-148.6875,0
376.138,9.1482,3.0765,-1.4868,0.3485,0.1892,-0.0533,-44.5500,12.3000,-2.8500,9.5648,1.0463,-0.5411,0.2590,0.1018,-0.0448,-64.8000,29.2500,-34.3500,3.1800,4.5700,-7.8000,-0.0327,0.0055,-0.0305,-4.0000,-37.6875,11.5000,170.7500,20.3750,-148.6875,0
376.147,9.1459,3.2034,-1.5395,0.3845,0.1455,-0.0517,-43.3500,14.4000,-1.2000,9.6845,1.0702,-0.5986,0.1852,0.1039,-0.0421,-64.5000,28.5000,-36.1500,3.1000,4.4500,-7.8900,-0.0349,0.0229,-0.0273,-4.0000,-37.6875,11.5000,170.7500,20.3750,-148.6875,0
376.152,9.1459,3.2034,-1.5395,0.3845,0.1455,-0.0517,-43.3500,14.4000,-1.2000,9.6774,1.1899,-0.6464,0.1159,0.1106,-0.0341,-64.5000,28.5000,-36.1500,3.1000,4.4500,-7.8900,-0.0338,0.0425,-0.0142,-4.0000,-37.6875,11.5000,170.7500,20.3750,-148.6875,0
376.158,9.1075,3.1939,-1.6065,0.4141,0.1319,-0.0586,-43.2000,12.7500,-3.4500,9.6774,1.1899,-0.6464,0.1159,0.1106,-0.0341,-64.5000,28.5000,-36.1500,3.2200,4.3600,-8.0200,-0.0338,0.0425,-0.0142,-4.0000,-37.6875,11.5000,170.7500,20.3750,-148.6875,0
376.163,9.1075,3.1939,-1.6065,0.4141,0.1319,-0.0586,-43.2000,12.7500,-3.4500,9.7468,1.4437,-0.5483,0.1005,0.1079,-0.0330,-64.5000,28.5000,-36.1500,3.2200,4.3600,-8.0200,-0.0305,0.0371,-0.0131,-5.7500,-38.0625,13.0625,170.8750,20.3750,-148.6875,0
376.168,9.1387,3.2561,-1.6783,0.4053,0.1410,-0.0706,-43.2000,12.7500,-3.4500,9.7468,1.4437,-0.5483,0.1005,0.1079,-0.0330,-65.1000,30.3000,-33.7500,3.2000,4.5100,-7.9100,-0.0305,0.0371,-0.0131,-5.7500,-38.0625,13.0625,170.8750,20.3750,-148.6875,0
376.173,9.1387,3.2561,-1.6783,0.4053,0.1410,-0.0706,-43.2000,12.7500,-3.4500,9.5720,1.5945,-0.3926,0.1039,0.1095,-0.0349,-65.1000,30.3000,-33.7500,3.2000,4.5100,-7.9100,-0.0425,0.0360,-0.0142,-5.7500,-38.0625,13.0625,170.8750,20.3750,-148.6250,0
376.178,9.1291,3.1939,-1.5514,0.3704,0.1391,-0.0885,-42.4500,15.3000,-4.2000,9.5720,1.5945,-0.3926,0.1039,0.1095,-0.0349,-65.5500,28.9500,-34.8000,3.1600,4.5300,-7.8800,-0.0425,0.0360,-0.0142,-5.7500,-38.0625,13.0625,170.8750,20.3750,-148.6250,0
376.183,9.1291,3.1939,-1.5514,0.3704,0.1391,-0.0885,-42.4500,15.3000,-4.2000,9.5337,1.7095,-0.5148,0.1100,0.1218,-0.0282,-65.5500,28.9500,-34.8000,3.1600,4.5300,-7.8800,-0.0480,0.0273,-0.0164,-5.7500,-38.0625,13.0625,170.8750,20.3750,-148.6250,0
376.188,9.1051,3.1029,-1.3695,0.3579,0.1164,-0.1031,-44.4000,13.2000,-1.9500,9.6534,1.6544,-0.3783,0.1100,0.1218,-0.0282,-64.5000,28.0500,-33.6000,3.2700,4.4700,-7.9100,-0.0480,0.0273,-0.0164,-5.7500,-38.0625,13.0625,170.8750,20.3125,-148.6250,0
376.197,9.2464,2.9521,-1.2234,0.3328,0.1434,-0.0935,-44.4000,13.2000,-2.2500,9.6534,1.6544,-0.3783,0.1956,0.1479,-0.0290,-65.4000,28.3500,-34.9500,3.1200,4.6400,-7.7300,-0.0371,0.0055,-0.0284,-5.7500,-38.0625,13.0625,170.8750,20.3125,-148.6250,0
376.202,9.2464,2.9521,-1.2234,0.3328,0.1434,-0.0935,-44.4000,13.2000,-2.2500,9.5433,1.3743,-0.1820,0.2393,0.1308,-0.0370,-65.4000,28.3500,-34.9500,3.1200,4.6400,-7.7300,-0.0360,0.0153,-0.0305,-5.7500,-38.0625,13.0625,170.8750,20.3125,-148.6250,0
376.208,9.0932,2.7461,-1.2330,0.2817,0.1543,-0.0935,-44.4000,12.9000,-2.2500,9.5026,1.1325,-0.3136,0.1961,0.1247,-0.0429,-64.8000,28.0500,-33.6000,3.0300,4.6900,-7.7500,-0.0360,0.0153,-0.0305,-5.7500,-38.0625,13.0625,170.8750,20.3125,-148.6250,0
376.213,9.0261,2.7988,-1.3982,0.2590,0.1479,-0.0826,-44.4000,12.9000,-2.2500,9.5026,1.1325,-0.3136,0.1961,0.1247,-0.0429,-64.8000,28.0500,-33.6000,3.2100,4.6200,-7.7100,-0.0305,0.0305,-0.0229,-5.0625,-37.6875,12.2500,170.9375,20.3125,-148.5625,0
376.218,9.0261,2.7988,-1.3982,0.2590,0.1479,-0.0826,-44.4000,12.9000,-2.2500,9.6845,0.9337,-0.2227,0.1551,0.1111,-0.0405,-64.8000,29.2500,-34.0500,3.2100,4.6200,-7.7100,-0.0305,0.0305,-0.0229,-5.0625,-37.6875,12.2500,170.9375,20.3125,-148.5625,0
376.223,9.0237,3.1196,-1.4629,0.2638,0.1548,-0.0640,-44.4000,12.9000,-2.2500,9.6845,0.9337,-0.2227,0.1551,0.1111,-0.0405,-64.8000,29.2500,-34.0500,3.1300,4.4800,-7.9000,-0.0164,0.0185,-0.0284,-5.0625,-37.6875,12.2500,170.9375,20.3125,-148.5625,0
376.228,9.0237,3.1196,-1.4629,0.2638,0.1548,-0.0640,-44.4000,12.9000,-2.2500,9.7540,1.1229,-0.2418,0.1021,0.1071,-0.0328,-64.8000,29.2500,-34.0500,3.1300,4.4800,-7.9000,-0.0164,0.0185,-0.0284,-5.0625,-37.6875,12.2500,170.9375,20.3125,-148.5625,0
376.233,9.1291,3.6033,-1.4557,0.2702,0.1356,-0.0533,-44.4000,12.9000,-2.2500,9.7540,1.1229,-0.2418,0.1021,0.1071,-0.0328,-64.8000,29.2500,-34.0500,3.1300,4.4800,-7.9000,-0.0109,0.0240,-0.0240,-5.0625,-37.6875,12.2500,170.9375,20.3125,-148.5625,0
376.238,9.1291,3.6033,-1.4557,0.2702,0.1356,-0.0533,-42.9000,13.9500,-3.6000,9.7205,1.3216,-0.3352,0.0320,0.1058,-0.0253,-64.8000,28.9500,-35.5500,3.1500,4.3800,-7.9600,-0.0109,0.0240,-0.0240,-5.0625,-37.6875,12.2500,170.9375,20.3125,-148.6250,0
376.247,9.2919,3.7876,-1.5850,0.3435,0.1013,-0.0573,-43.3500,13.2000,-1.9500,9.6750,1.5610,-0.3065,0.0304,0.1053,-0.0203,-64.8000,28.9500,-35.5500,3.1800,4.4500,-7.9600,-0.0076,0.0360,-0.0098,-5.0625,-37.6875,12.2500,170.9375,20.3125,-148.6250,0
376.254,9.2871,3.7876,-1.5155,0.4072,0.0826,-0.0645,-43.3500,13.2000,-1.9500,9.6750,1.5610,-0.3065,0.0304,0.1053,-0.0203,-64.8000,28.9500,-35.5500,3.1900,4.4900,-7.9200,-0.0109,0.0360,-0.0076,-5.0625,-37.6875,12.2500,170.8750,20.3125,-148.6250,0
376.259,9.2871,3.7876,-1.5155,0.4072,0.0826,-0.0645,-44.5500,15.0000,-2.8500,9.6319,1.8052,-0.2729,0.0605,0.1127,-0.0133,-64.5000,28.9500,-34.3500,3.1900,4.4900,-7.9200,-0.0109,0.0360,-0.0076,-5.0625,-37.6875,12.2500,170.8750,20.3125,-148.6250,0
376.264,9.2153,3.5817,-1.2665,0.4618,0.0778,-0.0810,-44.5500,15.0000,-2.8500,9.6319,1.8052,-0.2729,0.0605,0.1127,-0.0133,-64.5000,28.9500,-34.3500,3.1900,4.4900,-7.9200,-0.0142,0.0349,-0.0087,-4.6875,-37.0000,11.8750,170.9375,20.3125,-148.6250,0
376.269,9.2153,3.5817,-1.2665,0.4618,0.0778,-0.0810,-43.3500,12.4500,-1.9500,9.5577,1.8028,-0.3807,0.0877,0.1266,-0.0093,-64.5000,30.9000,-35.8500,3.2300,4.5400,-7.8900,-0.0142,0.0349,-0.0087,-4.6875,-37.0000,11.8750,170.9375,20.3125,-148.6250,0
376.273,9.1746,3.2034,-1.1301,0.4514,0.0938,-0.0959,-43.3500,12.4500,-1.9500,9.5577,1.8028,-0.3807,0.0877,0.1266,-0.0093,-64.5000,30.9000,-35.8500,3.2300,4.5400,-7.8900,-0.0142,0.0349,-0.0087,-4.6875,-37.0000,11.8750,170.9375,20.3125,-148.6250,0
376.278,9.1746,3.2034,-1.1301,0.4514,0.0938,-0.0959,-43.3500,12.4500,-1.9500,9.4188,1.5467,-0.1820,0.1604,0.1263,-0.0232,-65.1000,29.5500,-35.2500,3.2100,4.5500,-7.9000,-0.0164,0.0305,-0.0109,-4.6875,-37.0000,11.8750,170.9375,20.3125,-148.6250,0
376.283,9.1626,2.7940,-1.2354,0.4085,0.0775,-0.0879,-43.3500,12.4500,-1.9500,9.4188,1.5467,-0.1820,0.1604,0.1263,-0.0232,-65.1000,29.5500,-35.2500,3.2100,4.5500,-7.9000,-0.0153,0.0196,-0.0175,-4.6875,-37.0000,11.8750,170.9375,20.3125,-148.6250,0
376.288,9.1626,2.7940,-1.2354,0.4085,0.0775,-0.0879,-44.2500,13.0500,-2.8500,9.6271,1.4174,-0.1413,0.1540,0.1188,-0.0320,-64.6500,30.3000,-36.0000,3.2600,4.6300,-7.7700,-0.0153,0.0196,-0.0175,-4.6875,-37.0000,11.8750,170.9375,20.3125,-148.6250,0
376.297,8.9591,2.6911,-1.4916,0.3728,0.0378,-0.0983,-43.6500,13.2000,-3.6000,9.7157,1.3288,-0.1700,0.1047,0.1143,-0.0229,-64.6500,30.3000,-36.0000,3.1200,4.5600,-7.7900,-0.0120,0.0229,-0.0196,-4.6875,-37.0000,11.8750,170.9375,20.3125,-148.6250,0
376.302,8.8992,2.8563,-1.4772,0.3291,0.0474,-0.0973,-43.6500,13.2000,-3.6000,9.7157,1.3288,-0.1700,0.1047,0.1143,-0.0229,-64.6500,30.3000,-36.0000,3.1200,4.5600,-7.7900,-0.0120,0.0305,-0.0109,-4.6875,-37.0000,11.8750,170.9375,20.3125,-148.6250,0
376.309,8.8992,2.8563,-1.4772,0.3291,0.0474,-0.0973,-44.5500,11.5500,-3.9000,9.6534,1.4820,-0.2610,0.0370,0.1223,-0.0136,-64.5000,30.4500,-35.1000,3.2400,4.4500,-7.9200,-0.0120,0.0305,-0.0109,-4.6875,-37.0000,11.8750,170.9375,20.3125,-148.6250,0
376.313,9.2823,3.3136,-1.1971,0.2971,0.0296,-0.0973,-44.5500,11.5500,-3.9000,9.6031,1.5921,-0.3831,0.0370,0.1223,-0.0136,-64.5000,30.4500,-35.1000,3.2400,4.4500,-7.9200,-0.0087,0.0218,-0.0142,-4.2500,-37.3750,11.5000,170.9375,20.3125,-148.6250,0
376.318,9.2823,3.3136,-1.1971,0.2971,0.0296,-0.0973,-44.2500,14.2500,-3.1500,9.6031,1.5921,-0.3831,0.0048,0.1085,-0.0104,-64.5000,30.4500,-35.1000,3.2900,4.5200,-7.9200,-0.0087,0.0218,-0.0142,-4.2500,-37.3750,11.5000,170.9375,20.3125,-148.6250,0
376.327,9.3302,3.3758,-1.0870,0.2230,0.0424,-0.0866,-43.9500,11.5500,-2.8500,9.5720,1.4676,-0.1748,0.0586,0.1005,-0.0221,-65.1000,29.8500,-35.2500,3.1000,4.7200,-7.6800,-0.0076,0.0207,-0.0251,-4.2500,-37.3750,11.5000,170.9375,20.3125,-148.6250,0
376.334,9.2392,3.1843,-1.3599,0.1988,0.0698,-0.0706,-43.9500,11.5500,-2.8500,9.5170,1.4868,-0.0503,0.0706,0.0568,-0.0274,-65.1000,29.8500,-35.2500,3.1300,4.6300,-7.7500,-0.0142,0.0284,-0.0185,-4.2500,-37.3750,11.5000,170.9375,20.3125,-148.6250,0
376.339,9.0285,3.0023,-1.6496,0.1996,0.0621,-0.0637,-43.9500,11.5500,-2.8500,9.5170,1.4868,-0.0503,0.0706,0.0568,-0.0274,-66.0000,29.2500,-35.8500,3.1300,4.6300,-7.7500,-0.0142,0.0284,-0.0185,-4.2500,-37.3750,11.5000,170.8750,20.3125,-148.6250,0
376.348,9.0285,3.0023,-1.6496,0.1996,0.0621,-0.0637,-44.5500,13.5000,-4.9500,9.6486,1.3503,-0.1963,0.0541,0.0493,-0.0272,-65.5500,30.0000,-36.1500,3.1500,4.5400,-7.8200,-0.0098,0.0218,-0.0120,-4.2500,-37.3750,11.5000,170.8750,20.3125,-148.6250,0
