timestamp,thigh_acc_x,thigh_acc_y,thigh_acc_z,thigh_gyro_x,thigh_gyro_y,thigh_gyro_z,thigh_mag_x,thigh_mag_y,thigh_mag_z,shank_acc_x,shank_acc_y,shank_acc_z,shank_gyro_x,shank_gyro_y,shank_gyro_z,shank_mag_x,shank_mag_y,shank_mag_z,foot_acc_x,foot_acc_y,foot_acc_z,foot_gyro_x,foot_gyro_y,foot_gyro_z,foot_mag_x,foot_mag_y,foot_mag_z,foot_euler_x,foot_euler_y,foot_euler_z,perturbation_event
1777068055.752,8.8657,4.1587,-0.5459,0.0522,0.0141,-0.0224,-54.9000,42.9000,42.1500,9.6534,1.1277,0.2729,-0.0432,0.0189,0.0037,-53.8500,4.9500,10.3500,3.5900,4.0300,-7.9400,-0.0087,0.0022,0.0033,-23.6875,-27.5000,18.1875,217.0625,22.2500,-153.6250,0
1777068055.762,8.8394,4.1084,-0.5507,0.0818,0.0149,-0.0147,-53.7000,42.7500,42.3000,9.7205,1.0367,0.1460,-0.0440,0.0155,0.0091,-53.8500,3.4500,11.8500,3.5800,3.9900,-7.9800,-0.0131,0.0033,0.0033,-23.6875,-27.5000,18.1875,217.0625,22.2500,-153.6250,0
1777068055.770,8.8705,4.1827,-0.5722,0.0997,0.0218,-0.0083,-53.4000,40.5000,41.2500,9.7205,1.0367,0.1460,-0.0440,0.0155,0.0091,-53.8500,3.4500,11.8500,3.6300,4.0200,-7.9900,-0.0120,0.0000,0.0033,-23.6875,-27.5000,18.1875,217.0625,22.2500,-153.6250,0
1777068055.775,8.8705,4.1827,-0.5722,0.0997,0.0218,-0.0083,-54.0000,42.3000,40.9500,9.6678,0.9601,0.2155,-0.0384,0.0048,0.0149,-53.8500,3.4500,11.8500,3.6300,4.0200,-7.9900,-0.0120,0.0000,0.0033,-23.6875,-27.5000,18.1875,217.0625,22.2500,-153.6250,0
1777068055.783,8.8059,4.0965,-0.5698,0.0986,0.0330,0.0029,-54.0000,42.3000,40.9500,9.7013,0.9409,0.3400,-0.0320,0.0187,0.0192,-53.8500,4.6500,10.3500,3.5900,4.0000,-7.9600,-0.0109,-0.0033,0.0033,-23.6875,-27.5000,18.1875,217.0625,22.2500,-153.6250,0
1777068055.788,8.7867,4.1468,-0.4932,0.1316,0.0405,0.0173,-54.0000,42.3000,40.9500,9.7013,0.9409,0.3400,-0.0320,0.0187,0.0192,-53.8500,4.6500,10.3500,3.5900,4.0000,-7.9600,-0.0120,-0.0044,0.0044,-23.0000,-27.8750,17.3750,217.0625,22.2500,-153.6250,0
1777068055.793,8.7867,4.1468,-0.4932,0.1316,0.0405,0.0173,-54.0000,42.3000,40.9500,9.7444,0.7757,0.2131,-0.0634,0.0266,0.0298,-53.8500,4.6500,10.3500,3.6000,3.9700,-7.9900,-0.0120,-0.0044,0.0044,-23.0000,-27.8750,17.3750,217.0625,22.2500,-153.6250,0
1777068055.802,8.7149,4.1707,-0.4741,0.1636,0.0477,0.0189,-54.6000,42.1500,40.0500,9.7276,0.9026,-0.0742,-0.1239,0.0346,0.0381,-54.4500,5.5500,11.5500,3.6200,3.9700,-8.0000,-0.0109,-0.0098,0.0044,-23.0000,-27.8750,17.3750,217.0625,22.2500,-153.6250,0
1777068055.812,8.8849,4.4628,-0.4190,0.2212,0.0658,0.0179,-54.6000,43.2000,41.1000,9.5337,1.1492,0.0646,-0.1399,0.0504,0.0349,-53.1000,3.9000,11.8500,3.6100,4.0000,-7.9500,-0.0131,-0.0087,0.0033,-23.0000,-27.8750,17.3750,217.0625,22.2500,-153.5625,0
1777068055.820,8.9208,4.7405,-0.3998,0.2281,0.0549,0.0035,-55.3500,43.2000,40.6500,9.6702,1.1660,0.4262,-0.0959,0.0911,0.0149,-53.1000,3.9000,11.8500,3.6000,4.0100,-7.9900,-0.0120,-0.0098,0.0098,-23.0000,-27.8750,17.3750,217.0625,22.2500,-153.5625,0
1777068055.825,8.9208,4.7405,-0.3998,0.2281,0.0549,0.0035,-53.5500,42.9000,41.4000,9.6702,1.1660,0.4262,-0.0959,0.0911,0.0149,-54.4500,5.2500,10.8000,3.6000,4.0100,-7.9900,-0.0120,-0.0098,0.0098,-23.0000,-27.8750,17.3750,217.0625,22.2500,-153.5625,0
1777068055.833,8.9256,4.5274,-0.1867,0.1391,0.0069,0.0024,-53.5500,42.9000,41.4000,9.8593,1.0319,0.4956,-0.0576,0.1148,0.0053,-53.2500,5.2500,10.8000,3.6200,3.9900,-7.9700,-0.0098,-0.0142,0.0065,-23.0000,-27.8750,17.3750,217.0625,22.2500,-153.5625,0
1777068055.838,8.8873,4.2353,-0.0215,0.1031,0.0149,0.0080,-53.5500,42.9000,41.4000,10.0293,0.6033,0.6776,-0.0576,0.1148,0.0053,-53.2500,5.2500,10.8000,3.6200,3.9900,-7.9700,-0.0011,-0.0185,0.0055,-23.6875,-28.5625,17.3750,217.0625,22.2500,-153.5625,0
1777068055.843,8.8873,4.2353,-0.0215,0.1031,0.0149,0.0080,-53.5500,42.9000,41.4000,10.0293,0.6033,0.6776,-0.0488,0.1356,-0.0091,-53.2500,5.2500,10.8000,3.6200,3.9800,-7.9900,-0.0011,-0.0185,0.0055,-23.6875,-28.5625,17.3750,217.0625,22.2500,-153.5625,0
1777068055.853,8.8514,3.9049,-0.3304,0.1839,0.0871,0.0301,-54.4500,42.3000,42.3000,9.8474,0.8212,0.3304,-0.0530,0.1199,-0.0051,-52.6500,5.8500,11.1000,3.6300,3.9700,-7.9400,0.0033,-0.0175,0.0011,-23.6875,-28.5625,17.3750,217.0625,22.2500,-153.5625,0
1777068055.862,8.8178,3.6559,-0.6823,0.2241,0.1364,0.0493,-54.0000,42.7500,42.0000,9.6869,1.1995,-0.0838,0.0029,0.1002,0.0133,-52.6500,5.8500,11.1000,3.5800,3.9400,-7.9800,0.0087,-0.0207,0.0000,-23.6875,-28.5625,17.3750,217.0625,22.2500,-153.5625,0
1777068055.870,8.7221,3.7637,-1.1851,0.2060,0.1668,0.0671,-53.5500,41.4000,40.3500,9.5289,1.4964,-0.1269,0.0408,0.0613,0.0301,-52.6500,5.8500,11.1000,3.5500,4.0000,-7.9900,0.0131,-0.0153,-0.0022,-23.6875,-28.5625,17.3750,217.0625,22.2500,-153.6250,0
1777068055.875,8.4635,4.0941,-1.1540,0.1777,0.1881,0.0719,-54.9000,42.1500,41.1000,9.5289,1.4964,-0.1269,0.0408,0.0613,0.0301,-54.0000,5.5500,10.0500,3.5500,4.0000,-7.9900,0.0131,-0.0153,-0.0022,-23.6875,-28.5625,17.3750,217.0625,22.2500,-153.6250,0
1777068055.883,8.4635,4.0941,-1.1540,0.1777,0.1881,0.0719,-53.1000,40.9500,40.0500,9.2416,1.4461,-0.1676,0.0703,0.0472,0.0248,-52.9500,6.0000,10.5000,3.5500,4.0400,-7.9400,0.0131,-0.0065,0.0011,-23.6875,-28.5625,17.3750,217.0625,22.2500,-153.6250,0
1777068055.888,8.4779,4.5514,-0.9816,0.1447,0.1873,0.0767,-53.1000,40.9500,40.0500,9.2727,1.3647,-0.4908,0.0943,0.0509,0.0088,-52.9500,6.0000,10.5000,3.5500,4.0400,-7.9400,0.0153,0.0022,-0.0011,-24.0000,-27.1875,17.3750,217.0625,22.2500,-153.6250,0
1777068055.893,8.3677,4.7525,-0.8404,0.1583,0.1841,0.0711,-53.1000,40.9500,40.0500,9.2727,1.3647,-0.4908,0.0943,0.0509,0.0088,-53.4000,5.4000,10.3500,3.6500,4.1800,-7.8300,0.0153,0.0022,-0.0011,-24.0000,-27.1875,17.3750,217.0625,22.2500,-153.6250,0
1777068055.903,8.3677,4.7525,-0.8404,0.1583,0.1841,0.0711,-53.1000,40.9500,40.0500,9.3733,1.2210,-0.3783,0.1279,0.0842,0.0144,-54.1500,4.6500,11.1000,3.6500,4.0900,-7.8600,0.0251,-0.0033,-0.0055,-24.0000,-27.1875,17.3750,217.0625,22.2500,-153.6250,0
1777068055.912,8.5210,4.8483,-0.7685,0.2188,0.2089,0.0650,-55.5000,40.8000,39.4500,9.5768,1.0606,-0.3543,0.1871,0.1021,0.0203,-53.8500,5.8500,10.6500,3.6100,4.0300,-7.9600,0.0447,-0.0185,-0.0131,-24.0000,-27.1875,17.3750,217.0625,22.1875,-153.6250,0
1777068055.919,8.6574,4.6376,-0.9505,0.2835,0.2289,0.0653,-53.7000,41.5500,40.5000,9.6175,1.0008,-0.2490,0.2558,0.1108,0.0189,-53.8500,5.8500,10.6500,3.5700,3.9600,-8.0000,0.0600,-0.0229,-0.0153,-24.0000,-27.1875,17.3750,217.0625,22.1875,-153.6875,0
1777068055.924,8.7915,4.3527,-1.0032,0.3363,0.2380,0.0698,-54.4500,41.5500,40.2000,9.6175,1.0008,-0.2490,0.2558,0.1108,0.0189,-53.4000,6.1500,10.6500,3.5700,3.9600,-8.0000,0.0600,-0.0229,-0.0153,-24.0000,-27.1875,17.3750,217.0625,22.1875,-153.7500,0
1777068055.933,8.7771,4.0438,-1.1277,0.3861,0.1921,0.0597,-53.4000,41.5500,39.9000,9.4619,0.8906,-0.1053,0.2601,0.1122,0.0120,-53.4000,6.1500,10.6500,3.6000,3.9400,-8.0000,0.0654,-0.0240,-0.0164,-24.0000,-27.1875,17.3750,217.0625,22.1875,-153.7500,0
1777068055.938,8.7771,4.0438,-1.1277,0.3861,0.1921,0.0597,-53.4000,41.5500,39.9000,9.5361,0.8763,-0.1413,0.2228,0.1183,0.0157,-53.4000,6.1500,10.6500,3.6000,3.9400,-8.0000,0.0654,-0.0240,-0.0164,-23.0000,-27.8750,17.3750,217.0000,22.1875,-153.7500,0
1777068055.943,8.7460,4.1132,-0.9792,0.3936,0.1599,0.0581,-53.4000,41.5500,39.9000,9.5361,0.8763,-0.1413,0.2228,0.1183,0.0157,-53.2500,5.5500,9.7500,3.5900,3.9300,-8.0200,0.0687,-0.0185,-0.0153,-23.0000,-27.8750,17.3750,217.0000,22.1875,-153.7500,0
1777068055.948,8.7460,4.1132,-0.9792,0.3936,0.1599,0.0581,-53.4000,41.5500,39.9000,9.4499,1.0223,-0.1700,0.1961,0.1327,0.0226,-53.2500,5.5500,9.7500,3.5900,3.9300,-8.0200,0.0687,-0.0185,-0.0153,-23.0000,-27.8750,17.3750,217.0000,22.1875,-153.8125,0
1777068055.953,8.7317,4.3048,-0.7949,0.3067,0.1311,0.0576,-53.1000,43.2000,39.6000,9.6223,1.1732,-0.1173,0.1961,0.1327,0.0226,-52.6500,5.8500,11.1000,3.6100,3.9500,-8.0300,0.0731,-0.0164,-0.0153,-23.0000,-27.8750,17.3750,217.0000,22.1875,-153.8125,0
1777068055.958,8.7317,4.3048,-0.7949,0.3067,0.1311,0.0576,-53.1000,43.2000,39.6000,9.6223,1.1732,-0.1173,0.1428,0.1537,0.0221,-52.6500,5.8500,11.1000,3.6100,3.9500,-8.0300,0.0742,-0.0065,-0.0164,-23.0000,-27.8750,17.3750,217.0000,22.1875,-153.8125,0
1777068055.963,8.5425,4.4508,-0.8356,0.1748,0.1186,0.0498,-53.5500,42.1500,40.3500,9.5984,1.3120,-0.0934,0.1114,0.1607,0.0245,-54.6000,5.4000,9.1500,3.5600,4.0600,-7.9700,0.0742,-0.0065,-0.0164,-23.0000,-27.8750,17.3750,217.0000,22.1250,-153.8750,0
1777068055.973,8.5545,4.3503,-0.6967,0.0237,0.1729,0.0330,-53.5500,40.6500,39.6000,9.6127,1.4629,0.0551,0.1114,0.1607,0.0245,-54.6000,5.4000,9.1500,3.5900,4.1600,-7.9500,0.0774,-0.0065,-0.0175,-23.0000,-27.8750,17.3750,217.0000,22.1250,-153.8750,0
1777068055.981,8.6526,4.1611,-0.7254,-0.0139,0.2300,0.0282,-53.5500,40.6500,39.6000,9.6127,1.4629,0.0551,0.1420,0.1649,0.0229,-53.7000,4.8000,10.5000,3.5800,4.1600,-7.9500,0.0840,-0.0120,-0.0142,-23.0000,-27.8750,17.3750,216.9375,22.1250,-153.9375,0
1777068055.986,8.6526,4.1611,-0.7254,-0.0139,0.2300,0.0282,-52.9500,41.5500,41.2500,9.5002,1.3551,0.2131,0.1764,0.1719,0.0293,-53.4000,6.1500,9.6000,3.5800,4.1600,-7.9500,0.0840,-0.0120,-0.0142,-23.0000,-27.8750,17.3750,216.9375,22.1250,-153.9375,0
1777068055.990,8.7604,3.9480,-0.5363,-0.0053,0.2619,0.0253,-52.9500,41.5500,41.2500,9.5002,1.3551,0.2131,0.1764,0.1719,0.0293,-53.4000,6.1500,9.6000,3.5900,4.1400,-7.9500,0.1047,-0.0120,-0.0131,-23.0000,-28.5625,17.7500,216.9375,22.1250,-154.0000,0
1777068055.995,8.7604,3.9480,-0.5363,-0.0053,0.2619,0.0253,-52.3500,41.7000,39.6000,9.4547,1.1803,0.3376,0.2268,0.1721,0.0274,-52.5000,5.5500,10.0500,3.5900,4.1400,-7.9500,0.1047,-0.0120,-0.0131,-23.0000,-28.5625,17.7500,216.9375,22.1250,-154.0000,0
1777068056.000,8.7125,3.8283,-0.3543,0.0274,0.2646,0.0314,-52.3500,41.7000,39.6000,9.4547,1.1803,0.3376,0.2268,0.1721,0.0274,-52.5000,5.5500,10.0500,3.6500,4.0100,-8.0000,0.1342,-0.0065,-0.0131,-23.0000,-28.5625,17.7500,216.9375,22.1250,-154.0625,0
1777068056.005,8.7125,3.8283,-0.3543,0.0274,0.2646,0.0314,-52.3500,41.7000,39.6000,9.5409,0.8547,0.4238,0.2702,0.1823,0.0277,-52.5000,5.5500,10.0500,3.6500,4.0100,-8.0000,0.1342,-0.0065,-0.0131,-23.0000,-28.5625,17.7500,216.9375,22.1250,-154.0625,0
1777068056.010,8.8250,3.8259,-0.3041,0.0480,0.2803,0.0368,-52.3500,41.7000,39.6000,9.5409,0.8547,0.4238,0.2702,0.1823,0.0277,-52.5000,5.5500,10.0500,3.6000,3.9100,-8.0700,0.1571,-0.0044,-0.0109,-23.0000,-28.5625,17.7500,216.8750,22.1250,-154.1250,0
1777068056.015,8.8250,3.8259,-0.3041,0.0480,0.2803,0.0368,-52.0500,41.4000,37.8000,9.6510,0.6895,0.3926,0.2486,0.1836,0.0314,-52.3500,4.6500,11.4000,3.6000,3.9100,-8.0700,0.1571,-0.0044,-0.0109,-23.0000,-28.5625,17.7500,216.8750,22.1250,-154.2500,0
1777068056.023,8.9280,3.8930,-0.4238,0.0922,0.2872,0.0536,-52.8000,40.9500,39.0000,9.6606,0.5004,0.3448,0.2321,0.1828,0.0237,-52.3500,4.6500,11.4000,3.6200,3.8400,-8.0900,0.1734,-0.0065,-0.0164,-23.0000,-28.5625,17.7500,216.8750,22.1250,-154.2500,0
1777068056.033,9.0142,4.0055,-0.6009,0.1753,0.2769,0.0669,-52.3500,41.4000,39.0000,9.7300,0.4286,0.3567,0.1998,0.1839,0.0187,-52.3500,4.6500,11.4000,3.5800,3.8600,-8.1200,0.1680,-0.0044,-0.0196,-23.0000,-28.5625,17.7500,216.8125,22.1250,-154.3125,0
1777068056.037,9.0142,4.0055,-0.6009,0.1753,0.2769,0.0669,-52.3500,41.4000,39.0000,9.7300,0.4286,0.3567,0.1998,0.1839,0.0187,-54.0000,5.5500,11.5500,3.5800,3.8600,-8.1200,0.1680,-0.0044,-0.0196,-23.0000,-28.5625,17.7500,216.8125,22.1250,-154.3125,0
1777068056.042,9.0932,4.0821,-0.6943,0.2502,0.2481,0.0842,-51.7500,41.4000,38.5500,9.7516,0.3974,0.6129,0.1399,0.1817,0.0048,-54.0000,5.5500,11.5500,3.6000,3.8000,-8.1300,0.1571,-0.0044,-0.0207,-23.2500,-28.2500,18.5625,216.8125,22.1250,-154.3750,0
1777068056.047,9.0932,4.0821,-0.6943,0.2502,0.2481,0.0842,-51.7500,41.4000,38.5500,9.7516,0.3974,0.6129,0.1399,0.1817,0.0048,-53.8500,5.4000,11.4000,3.6000,3.8000,-8.1300,0.1571,-0.0044,-0.0207,-23.2500,-28.2500,18.5625,216.8125,22.1250,-154.3750,0
1777068056.052,9.1075,4.0247,-0.7015,0.2987,0.2284,0.0861,-51.7500,41.4000,38.5500,9.7181,0.5986,0.6967,0.0887,0.1836,0.0133,-53.8500,5.4000,11.4000,3.5600,3.8000,-8.1100,0.1484,-0.0011,-0.0218,-23.2500,-28.2500,18.5625,216.7500,22.1250,-154.5000,0
1777068056.057,9.1075,4.0247,-0.7015,0.2987,0.2284,0.0861,-51.7500,41.4000,38.5500,9.7181,0.5986,0.6967,0.0887,0.1836,0.0133,-52.2000,7.5000,11.2500,3.5600,3.8000,-8.1100,0.1298,-0.0011,-0.0240,-23.2500,-28.2500,18.5625,216.7500,22.1250,-154.5625,0
1777068056.064,9.1889,3.8475,-0.5578,0.2835,0.2220,0.0927,-51.7500,41.4000,38.5500,9.6582,0.9002,0.7111,0.0903,0.1799,0.0080,-53.1000,7.5000,11.2500,3.5900,3.8200,-8.1100,0.1298,-0.0011,-0.0240,-23.2500,-28.2500,18.5625,216.7500,22.1250,-154.6250,0
1777068056.073,9.1315,3.5195,-0.3376,0.2657,0.2070,0.0994,-53.1000,40.6500,38.5500,9.7109,0.9505,0.9481,0.1204,0.1748,-0.0043,-53.1000,5.8500,11.1000,3.6200,3.8600,-8.0800,0.1211,-0.0022,-0.0229,-23.2500,-28.2500,18.5625,216.7500,22.1250,-154.6250,0
1777068056.081,9.1411,3.2825,-0.1245,0.2737,0.2326,0.0986,-51.7500,40.6500,39.3000,9.7372,0.9912,1.0032,0.1519,0.1649,-0.0008,-53.1000,5.8500,11.1000,3.5900,3.9400,-8.0700,0.1102,-0.0022,-0.0240,-23.2500,-28.2500,18.5625,216.6875,22.0625,-154.6875,0
1777068056.086,9.1411,3.2825,-0.1245,0.2737,0.2326,0.0986,-51.7500,40.6500,39.3000,9.7372,0.9912,1.0032,0.1519,0.1649,-0.0008,-52.9500,6.0000,12.0000,3.5900,3.9400,-8.0700,0.1102,-0.0022,-0.0240,-23.2500,-28.2500,18.5625,216.6875,22.0625,-154.6875,0
1777068056.091,9.1219,3.2082,0.0311,0.2414,0.2758,0.0997,-52.9500,40.5000,39.1500,9.7564,0.7278,0.9768,0.1833,0.1455,-0.0061,-52.9500,6.0000,12.0000,3.5700,3.9700,-8.0300,0.1102,-0.0098,-0.0262,-23.6875,-28.2500,18.5625,216.6875,22.0625,-154.7500,0
1777068056.095,9.1219,3.2082,0.0311,0.2414,0.2758,0.0997,-52.9500,40.5000,39.1500,9.7564,0.7278,0.9768,0.1833,0.1455,-0.0061,-52.9500,6.0000,12.0000,3.5700,3.9700,-8.0300,0.1102,-0.0098,-0.0262,-23.6875,-28.2500,18.5625,216.6875,22.0625,-154.7500,0
1777068056.100,9.1913,3.1412,0.2634,0.2190,0.2675,0.1167,-52.9500,40.8000,39.1500,9.7875,0.6033,1.0008,0.1828,0.1356,-0.0141,-52.9500,6.0000,12.0000,3.6000,3.8200,-8.1400,0.1167,-0.0098,-0.0273,-23.6875,-28.2500,18.5625,216.6250,22.0625,-154.7500,0
1777068056.105,9.1913,3.1412,0.2634,0.2190,0.2675,0.1167,-52.9500,40.8000,39.1500,9.7875,0.6033,1.0008,0.1828,0.1356,-0.0141,-54.1500,7.3500,10.6500,3.6000,3.8200,-8.1400,0.1167,-0.0098,-0.0273,-23.6875,-28.2500,18.5625,216.6250,22.0625,-154.7500,0
1777068056.110,9.1961,3.1747,0.0622,0.2281,0.2801,0.1348,-52.9500,40.8000,39.1500,9.8282,0.4693,1.0127,0.1836,0.1194,-0.0211,-54.1500,7.3500,10.6500,3.5900,3.8400,-8.1400,0.1167,-0.0109,-0.0284,-23.6875,-28.2500,18.5625,216.6250,22.0625,-154.8125,0
1777068056.115,9.1961,3.1747,0.0622,0.2281,0.2801,0.1348,-52.9500,40.8000,39.1500,9.8282,0.4693,1.0127,0.1836,0.1194,-0.0211,-53.2500,6.4500,10.0500,3.5900,3.8400,-8.1400,0.1167,-0.0109,-0.0284,-23.6875,-28.2500,18.5625,216.5625,22.0625,-154.8750,0
1777068056.123,9.1674,3.3471,0.0407,0.2694,0.3080,0.1508,-51.7500,41.4000,39.6000,9.8617,0.4142,1.0511,0.1548,0.1023,-0.0264,-53.2500,6.4500,10.0500,3.5700,3.8400,-8.1400,0.1113,-0.0098,-0.0316,-23.6875,-28.2500,18.5625,216.5625,22.0625,-154.8750,0
1777068056.133,9.1459,3.4668,-0.0431,0.3179,0.3032,0.1737,-52.0500,40.9500,40.6500,9.7109,0.4286,1.1684,0.1069,0.0863,-0.0322,-51.7500,4.5000,9.7500,3.5600,3.7800,-8.1600,0.1004,-0.0087,-0.0316,-23.6875,-28.2500,18.5625,216.5625,22.0625,-154.9375,0
1777068056.138,9.0597,3.5769,0.0120,0.3661,0.2955,0.1841,-52.0500,40.9500,40.6500,9.7396,0.6656,1.0343,0.0506,0.0669,-0.0296,-51.9000,5.8500,10.3500,3.5600,3.7800,-8.1600,0.1004,-0.0087,-0.0316,-23.6875,-28.2500,18.5625,216.5000,22.0625,-155.0000,0
1777068056.143,9.0597,3.5769,0.0120,0.3661,0.2955,0.1841,-51.9000,39.0000,38.7000,9.7396,0.6656,1.0343,0.0506,0.0669,-0.0296,-51.9000,5.8500,10.3500,3.5700,3.7800,-8.1200,0.0851,-0.0065,-0.0316,-23.2500,-28.2500,17.7500,216.5000,22.0625,-155.0000,0
1777068056.148,9.0022,3.4716,0.0096,0.3637,0.3387,0.1924,-51.9000,39.0000,38.7000,9.7612,0.8643,0.9768,0.0887,0.0389,-0.0437,-53.4000,6.1500,11.1000,3.5700,3.7800,-8.1200,0.0851,-0.0065,-0.0316,-23.2500,-28.2500,17.7500,216.5000,22.0625,-155.0000,0
1777068056.153,9.0022,3.4716,0.0096,0.3637,0.3387,0.1924,-51.7500,39.9000,40.3500,9.7612,0.8643,0.9768,0.0887,0.0389,-0.0437,-53.4000,6.1500,11.1000,3.5700,3.8200,-8.1500,0.0709,-0.0044,-0.0327,-23.2500,-28.2500,17.7500,216.5000,22.0625,-155.0000,0
1777068056.157,9.1363,3.5410,-0.2777,0.3773,0.3909,0.2033,-51.7500,39.9000,40.3500,9.7157,0.9984,0.8092,0.1346,0.0309,-0.0472,-53.2500,7.5000,11.2500,3.5700,3.8200,-8.1500,0.0611,0.0011,-0.0327,-23.2500,-28.2500,17.7500,216.5000,22.0000,-155.0625,0
1777068056.164,9.1363,3.5410,-0.2777,0.3773,0.3909,0.2033,-51.7500,39.9000,40.3500,9.7157,0.9984,0.8092,0.1346,0.0309,-0.0472,-53.2500,7.5000,11.2500,3.5700,3.8500,-8.1600,0.0611,0.0011,-0.0327,-23.2500,-28.2500,17.7500,216.4375,22.0000,-155.0625,0
1777068056.173,9.1315,3.6320,-0.3017,0.3933,0.3994,0.2201,-51.7500,39.9000,40.3500,9.8474,1.0104,0.7494,0.1705,0.0245,-0.0456,-53.2500,7.5000,11.2500,3.5200,3.8800,-8.1700,0.0535,-0.0022,-0.0327,-23.2500,-28.2500,17.7500,216.4375,22.0000,-155.0625,0
1777068056.183,9.2584,3.6631,-0.1341,0.3872,0.4066,0.2246,-52.9500,40.0500,41.2500,9.8258,0.9385,0.8212,0.2166,0.0107,-0.0493,-51.3000,5.5500,10.5000,3.5300,3.8900,-8.1400,0.0436,0.0033,-0.0338,-23.2500,-28.2500,17.7500,216.4375,22.0000,-155.0625,0
1777068056.188,9.1554,3.6392,-0.1796,0.3621,0.3928,0.2342,-52.9500,40.0500,41.2500,9.6822,0.7949,0.7135,0.2220,0.0048,-0.0602,-52.2000,6.7500,10.0500,3.5300,3.8900,-8.1400,0.0436,0.0033,-0.0338,-23.2500,-28.2500,17.7500,216.4375,22.0000,-155.0625,0
1777068056.193,9.1554,3.6392,-0.1796,0.3621,0.3928,0.2342,-52.8000,39.9000,40.0500,9.6822,0.7949,0.7135,0.2220,0.0048,-0.0602,-52.2000,6.7500,10.0500,3.5500,3.8600,-8.1300,0.0295,0.0076,-0.0316,-23.6875,-27.5000,18.1875,216.3750,22.0000,-155.1250,0
1777068056.197,9.0644,3.7469,-0.1197,0.3544,0.3850,0.2395,-52.8000,39.9000,40.0500,9.6247,0.8140,0.6512,0.2228,-0.0013,-0.0679,-52.2000,6.7500,10.8000,3.5500,3.8600,-8.1300,0.0295,0.0076,-0.0316,-23.6875,-27.5000,18.1875,216.3750,22.0000,-155.1250,0
1777068056.202,9.0644,3.7469,-0.1197,0.3544,0.3850,0.2395,-52.2000,38.5500,40.5000,9.6247,0.8140,0.6512,0.2228,-0.0013,-0.0679,-52.2000,6.7500,10.8000,3.5300,3.8700,-8.1200,0.0218,0.0120,-0.0327,-23.6875,-27.5000,18.1875,216.3750,22.0000,-155.1250,0
1777068056.207,9.0525,3.6272,0.0215,0.3195,0.4098,0.2537,-52.2000,38.5500,40.5000,9.6965,0.7494,0.8092,0.2169,-0.0125,-0.0674,-52.3500,5.8500,12.4500,3.5300,3.8700,-8.1200,0.0207,0.0098,-0.0284,-23.6875,-27.5000,18.1875,216.3750,22.0000,-155.1250,0
1777068056.214,8.9399,3.7230,-0.1915,0.3363,0.4572,0.2617,-52.0500,38.7000,40.3500,9.5864,0.9290,0.5411,0.2078,-0.0192,-0.0741,-52.3500,5.8500,12.4500,3.5100,3.9000,-8.1300,0.0207,0.0098,-0.0284,-23.6875,-27.5000,18.1875,216.3125,22.0000,-155.1250,0
1777068056.223,8.9423,3.7302,-0.1987,0.3778,0.4612,0.2745,-52.0500,38.7000,40.3500,9.5720,1.0487,0.4262,0.1908,-0.0184,-0.0781,-51.6000,6.1500,11.8500,3.5300,3.8700,-8.1500,0.0207,0.0175,-0.0284,-23.6875,-27.5000,18.1875,216.3125,22.0000,-155.1250,0
1777068056.233,8.8442,3.9121,0.0168,0.4317,0.4271,0.2779,-52.0500,38.7000,41.1000,9.6007,1.1420,0.3687,0.2134,-0.0218,-0.0791,-51.7500,7.5000,11.5500,3.5400,3.9000,-8.1200,0.0164,0.0164,-0.0240,-23.6875,-27.5000,18.1875,216.3125,22.0000,-155.1250,0
1777068056.238,8.8442,3.9121,0.0168,0.4317,0.4271,0.2779,-52.0500,39.1500,42.1500,9.6007,1.1420,0.3687,0.2134,-0.0218,-0.0791,-51.7500,7.5000,11.5500,3.5400,3.9000,-8.1200,0.0164,0.0164,-0.0240,-23.6875,-27.5000,18.1875,216.3125,22.0000,-155.1250,0
1777068056.243,8.9304,3.8427,-0.0263,0.4426,0.4330,0.2864,-52.0500,39.1500,42.1500,9.4786,1.1468,0.3855,0.2348,-0.0133,-0.0789,-51.7500,7.5000,11.5500,3.5600,3.9300,-8.1000,0.0164,0.0207,-0.0251,-23.2500,-28.2500,19.0625,216.3125,22.0000,-155.1250,0
1777068056.248,8.9304,3.8427,-0.0263,0.4426,0.4330,0.2864,-52.0500,39.4500,41.1000,9.4786,1.1468,0.3855,0.2348,-0.0133,-0.0789,-52.6500,6.6000,11.1000,3.5600,3.9300,-8.1000,0.0164,0.0207,-0.0251,-23.2500,-28.2500,19.0625,216.3125,22.0000,-155.1250,0
1777068056.253,9.0142,3.9409,-0.0766,0.4743,0.4415,0.2934,-52.0500,39.4500,41.1000,9.5481,1.1756,0.1915,0.2278,-0.0139,-0.0746,-52.6500,6.6000,11.1000,3.5700,3.8800,-8.1200,0.0153,0.0196,-0.0251,-23.2500,-28.2500,19.0625,216.3125,22.0000,-155.1250,0
1777068056.258,9.0142,3.9409,-0.0766,0.4743,0.4415,0.2934,-51.7500,38.4000,40.0500,9.5481,1.1756,0.1915,0.2278,-0.0139,-0.0746,-53.2500,6.0000,12.0000,3.5700,3.8800,-8.1200,0.0131,0.0196,-0.0262,-23.2500,-28.2500,19.0625,216.2500,22.0000,-155.1250,0
1777068056.264,8.9950,3.9504,-0.1269,0.5239,0.4263,0.2872,-51.7500,38.4000,40.0500,9.5170,1.3479,0.1796,0.2395,-0.0088,-0.0781,-53.2500,6.0000,12.0000,3.5700,3.9000,-8.1100,0.0131,0.0196,-0.0262,-23.2500,-28.2500,19.0625,216.2500,22.0000,-155.1250,0
1777068056.273,9.0094,4.0390,-0.2346,0.5359,0.3810,0.2939,-51.7500,38.4000,40.0500,9.5050,1.2929,0.0527,0.2558,0.0005,-0.0725,-51.9000,5.8500,10.6500,3.5300,3.9100,-8.0900,0.0175,0.0196,-0.0240,-23.2500,-28.2500,19.0625,216.2500,22.0000,-155.1250,0
1777068056.282,8.9208,3.9624,-0.1724,0.5649,0.3810,0.2974,-51.7500,38.4000,40.0500,9.4068,1.2881,0.0503,0.2904,0.0216,-0.0666,-51.3000,6.7500,12.0000,3.6100,3.9600,-8.0500,0.0185,0.0207,-0.0262,-23.2500,-28.2500,19.0625,216.2500,22.0000,-155.1250,0
1777068056.287,8.9208,3.9624,-0.1724,0.5649,0.3810,0.2974,-52.2000,37.5000,40.2000,9.4068,1.2881,0.0503,0.2904,0.0216,-0.0666,-51.1500,6.1500,11.4000,3.6100,3.9600,-8.0500,0.0185,0.0207,-0.0262,-23.2500,-28.2500,19.0625,216.2500,22.0000,-155.1250,0
1777068056.292,8.9519,4.1707,-0.2251,0.5862,0.3789,0.2878,-52.2000,37.5000,40.2000,9.6055,1.2067,-0.0886,0.2539,0.0429,-0.0570,-51.1500,6.1500,11.4000,3.6000,3.8900,-8.0700,0.0240,0.0164,-0.0295,-23.2500,-27.1875,17.3750,216.1875,22.0000,-155.1250,0
1777068056.297,8.9519,4.1707,-0.2251,0.5862,0.3789,0.2878,-51.9000,37.8000,40.2000,9.6055,1.2067,-0.0886,0.2539,0.0429,-0.0570,-52.9500,7.2000,10.0500,3.6000,3.8900,-8.0700,0.0240,0.0164,-0.0295,-23.2500,-27.1875,17.3750,216.1875,22.0000,-155.1250,0
1777068056.302,8.9376,4.1084,-0.2993,0.5644,0.3333,0.2769,-51.9000,37.8000,40.2000,9.6414,1.1636,0.2227,0.2433,0.0496,-0.0469,-52.9500,7.2000,10.0500,3.5200,3.8700,-8.1600,0.0327,0.0142,-0.0295,-23.2500,-27.1875,17.3750,216.1875,22.0000,-155.1250,0
1777068056.306,8.9376,4.1084,-0.2993,0.5644,0.3333,0.2769,-52.3500,37.2000,41.1000,9.6414,1.1636,0.2227,0.2433,0.0496,-0.0469,-52.9500,7.2000,10.0500,3.5200,3.8700,-8.1600,0.0327,0.0142,-0.0295,-23.2500,-27.1875,17.3750,216.1875,22.0000,-155.1250,0
1777068056.314,9.0237,4.0582,-0.1844,0.5324,0.3381,0.2798,-52.3500,37.2000,41.1000,9.5433,1.6161,0.2705,0.2070,0.0642,-0.0365,-52.9500,7.2000,10.0500,3.5400,3.8600,-8.1500,0.0273,0.0218,-0.0284,-23.2500,-27.1875,17.3750,216.1250,22.0625,-155.1250,0
1777068056.323,9.0214,3.9959,0.1101,0.4940,0.2771,0.2649,-51.1500,36.7500,41.2500,9.5984,2.0255,0.2107,0.1884,0.0837,-0.0160,-52.3500,6.1500,10.3500,3.5400,3.8200,-8.1900,0.0218,0.0295,-0.0262,-23.2500,-27.1875,17.3750,216.1250,22.0625,-155.1250,0
1777068056.331,8.9639,4.0654,0.4453,0.4882,0.2862,0.2228,-51.1500,36.7500,41.2500,9.7013,2.2410,0.5219,0.2116,0.1077,0.0005,-52.3500,6.1500,10.3500,3.5700,3.9800,-8.0700,0.0142,0.0360,-0.0218,-23.2500,-27.1875,17.3750,216.1250,22.0625,-155.1250,0
1777068056.336,8.9639,4.0654,0.4453,0.4882,0.2862,0.2228,-52.9500,37.0500,40.9500,9.7013,2.2410,0.5219,0.2116,0.1077,0.0005,-52.3500,6.6000,11.1000,3.5700,3.9800,-8.0700,0.0142,0.0360,-0.0218,-23.2500,-27.1875,17.3750,216.1250,22.0625,-155.1250,0
1777068056.341,8.9304,3.6248,0.9313,0.4080,0.3171,0.1980,-52.9500,37.0500,40.9500,9.6534,1.9537,0.8068,0.2745,0.1042,0.0101,-52.3500,6.6000,11.1000,3.6000,4.1300,-8.0000,0.0109,0.0447,-0.0240,-23.6875,-28.2500,19.0625,216.1250,22.0625,-155.1250,0
1777068056.346,8.9304,3.6248,0.9313,0.4080,0.3171,0.1980,-49.5000,37.2000,40.3500,9.6534,1.9537,0.8068,0.2745,0.1042,0.0101,-52.3500,6.6000,11.1000,3.6000,4.1300,-8.0000,0.0109,0.0447,-0.0240,-23.6875,-28.2500,19.0625,216.1250,22.0625,-155.1250,0
1777068056.351,8.8969,3.1915,0.9313,0.3134,0.2545,0.1945,-49.5000,37.2000,40.3500,9.6103,1.4054,0.9337,0.3022,0.0941,0.0157,-50.2500,6.7500,11.2500,3.6000,4.1100,-7.9900,0.0153,0.0425,-0.0273,-23.6875,-28.2500,19.0625,216.0625,22.0625,-155.1250,0
1777068056.356,8.8969,3.1915,0.9313,0.3134,0.2545,0.1945,-52.2000,36.0000,39.9000,9.6103,1.4054,0.9337,0.3022,0.0941,0.0157,-50.2500,6.7500,11.2500,3.6000,4.1100,-7.9900,0.0153,0.0425,-0.0273,-23.6875,-28.2500,19.0625,216.0625,22.0625,-155.1250,0
1777068056.362,9.1339,2.8204,0.9912,0.2574,0.3293,0.2102,-52.2000,36.0000,39.9000,9.7037,1.1229,0.8930,0.2622,0.0871,0.0224,-51.3000,5.5500,9.7500,3.6000,3.9800,-8.0500,0.0316,0.0273,-0.0327,-23.6875,-28.2500,19.0625,216.0625,22.0625,-155.1250,0
1777068056.367,9.1339,2.8204,0.9912,0.2574,0.3293,0.2102,-51.1500,36.7500,40.2000,9.7468,1.0223,0.9170,0.2233,0.0778,0.0346,-51.6000,7.8000,9.6000,3.6000,3.9800,-8.0500,0.0316,0.0273,-0.0327,-23.6875,-28.2500,19.0625,216.0000,22.0625,-155.1250,0
1777068056.374,9.2775,2.7318,0.9409,0.2193,0.3040,0.2273,-51.1500,36.7500,40.2000,9.7468,1.0223,0.9170,0.2233,0.0778,0.0346,-51.6000,7.8000,9.6000,3.5500,4.0400,-8.0700,0.0458,0.0109,-0.0360,-23.6875,-28.2500,19.0625,216.0000,22.0625,-155.1250,0
1777068056.382,9.3111,2.7342,1.1109,0.2390,0.3062,0.2302,-50.5500,37.6500,41.4000,9.7468,0.8787,1.1420,0.2158,0.0640,0.0314,-51.6000,7.8000,9.6000,3.5700,4.0100,-8.1100,0.0611,0.0087,-0.0382,-23.6875,-28.2500,19.0625,216.0000,22.0625,-155.1250,0
1777068056.387,9.3948,2.7246,1.1325,0.2558,0.3006,0.2292,-50.5500,37.6500,41.4000,9.7755,0.8308,1.1875,0.2044,0.0381,0.0197,-51.3000,6.4500,10.8000,3.5700,4.0100,-8.1100,0.0611,0.0087,-0.0382,-23.6875,-28.2500,19.0625,216.0000,22.0625,-155.1250,0
1777068056.392,9.3948,2.7246,1.1325,0.2558,0.3006,0.2292,-50.5500,37.6500,41.4000,9.7755,0.8308,1.1875,0.2044,0.0381,0.0197,-51.3000,6.4500,10.8000,3.5600,3.9200,-8.1600,0.0753,0.0044,-0.0425,-23.2500,-27.8750,19.3750,215.9375,22.0625,-155.1250,0
1777068056.397,9.4786,2.6911,0.8547,0.3611,0.2848,0.2052,-51.1500,36.3000,42.7500,9.7588,0.8691,1.3312,0.2209,0.0192,0.0115,-51.3000,6.4500,10.8000,3.5600,3.9200,-8.1600,0.0753,0.0044,-0.0425,-23.2500,-27.8750,19.3750,215.9375,22.0625,-155.1250,0
1777068056.401,9.4786,2.6911,0.8547,0.3611,0.2848,0.2052,-51.1500,36.3000,42.7500,9.7588,0.8691,1.3312,0.2209,0.0192,0.0115,-51.3000,6.4500,10.8000,3.5600,3.8600,-8.1800,0.0785,0.0033,-0.0415,-23.2500,-27.8750,19.3750,215.9375,22.0000,-155.1875,0
1777068056.406,9.8258,2.6719,0.9457,0.4149,0.3198,0.2062,-51.7500,36.4500,40.6500,9.8928,0.8619,1.7190,0.2406,-0.0080,0.0000,-51.3000,6.4500,10.8000,3.5600,3.8600,-8.1800,0.0785,0.0033,-0.0415,-23.2500,-27.8750,19.3750,215.9375,22.0000,-155.1875,0
1777068056.411,9.8258,2.6719,0.9457,0.4149,0.3198,0.2062,-51.7500,36.4500,40.6500,9.8928,0.8619,1.7190,0.2406,-0.0080,0.0000,-52.6500,6.1500,11.8500,3.5300,3.8900,-8.1900,0.0785,0.0055,-0.0404,-23.2500,-27.8750,19.3750,215.8750,22.0000,-155.1875,0
1777068056.416,9.6941,2.4253,1.0319,0.3909,0.3150,0.2451,-50.4000,35.2500,40.9500,9.9048,0.5698,1.9752,0.2665,-0.0325,-0.0192,-52.6500,6.1500,11.8500,3.5300,3.8900,-8.1900,0.0785,0.0055,-0.0404,-23.2500,-27.8750,19.3750,215.8750,22.0000,-155.2500,0
1777068056.424,9.6941,2.4253,1.0319,0.3909,0.3150,0.2451,-52.0500,34.2000,40.3500,9.9216,0.3089,1.8627,0.2665,-0.0325,-0.0192,-51.9000,6.1500,8.8500,3.5500,3.8700,-8.1800,0.0764,0.0076,-0.0393,-23.2500,-27.8750,19.3750,215.8750,22.0000,-155.2500,0
1777068056.431,9.7564,2.1548,0.9888,0.3515,0.3035,0.2694,-52.0500,34.2000,40.3500,9.9216,0.3089,1.8627,0.2587,-0.0642,-0.0290,-54.4500,7.5000,9.7500,3.6500,3.7000,-8.2000,0.0676,0.0076,-0.0360,-23.2500,-27.8750,19.3750,215.8125,22.0000,-155.2500,0
1777068056.436,9.6941,1.9489,1.1349,0.3904,0.3027,0.2923,-52.0500,34.2000,40.3500,9.9838,0.2658,1.5945,0.2289,-0.0951,-0.0344,-54.4500,7.5000,9.7500,3.6500,3.7000,-8.2000,0.0676,0.0076,-0.0360,-23.2500,-27.8750,19.3750,215.8125,22.0000,-155.2500,0
1777068056.441,9.6941,1.9489,1.1349,0.3904,0.3027,0.2923,-52.0500,34.2000,40.3500,9.9838,0.2658,1.5945,0.2289,-0.0951,-0.0344,-52.9500,8.7000,11.5500,3.6400,3.7100,-8.1800,0.0491,0.0142,-0.0349,-22.1875,-27.8750,19.0625,215.8125,22.0000,-155.2500,0
1777068056.446,9.6845,1.9034,1.1899,0.4703,0.2867,0.3048,-50.4000,34.8000,42.0000,9.9695,0.4166,1.1468,0.1442,-0.1162,-0.0330,-52.9500,8.7000,11.5500,3.6400,3.7100,-8.1800,0.0491,0.0142,-0.0349,-22.1875,-27.8750,19.0625,215.8125,22.0000,-155.2500,0
1777068056.450,9.6845,1.9034,1.1899,0.4703,0.2867,0.3048,-50.4000,34.8000,42.0000,9.9695,0.4166,1.1468,0.1442,-0.1162,-0.0330,-51.0000,7.2000,11.5500,3.6200,3.7300,-8.1900,0.0316,0.0175,-0.0360,-22.1875,-27.8750,19.0625,215.7500,22.0000,-155.3125,0
1777068056.455,9.7971,1.9297,0.8691,0.5356,0.3000,0.3110,-50.2500,34.9500,41.4000,9.9120,0.5698,0.9888,0.1548,-0.1423,-0.0437,-51.0000,7.2000,11.5500,3.6200,3.7300,-8.1900,0.0316,0.0175,-0.0360,-22.1875,-27.8750,19.0625,215.7500,22.0000,-155.3125,0
1777068056.460,9.7971,1.9297,0.8691,0.5356,0.3000,0.3110,-50.2500,34.9500,41.4000,9.9120,0.5698,0.9888,0.1548,-0.1423,-0.0437,-52.5000,6.0000,10.8000,3.5100,3.8200,-8.2300,0.0098,0.0251,-0.0327,-22.1875,-27.8750,19.0625,215.7500,22.0000,-155.2500,0
1777068056.465,9.7396,1.9992,0.8356,0.5516,0.2793,0.3147,-50.4000,36.0000,40.2000,9.8689,0.7685,1.2546,0.2582,-0.1572,-0.0554,-52.5000,6.0000,10.8000,3.5100,3.8200,-8.2300,0.0098,0.0251,-0.0327,-22.1875,-27.8750,19.0625,215.7500,22.0000,-155.2500,0
1777068056.474,9.6486,1.9872,0.7566,0.5404,0.2348,0.3168,-50.1000,36.7500,40.9500,9.6414,0.5770,1.1253,0.2689,-0.1807,-0.0762,-52.5000,6.0000,10.8000,3.5300,3.7800,-8.2200,-0.0087,0.0349,-0.0338,-22.1875,-27.8750,19.0625,215.7500,22.0000,-155.2500,0
1777068056.480,9.6486,1.9872,0.7566,0.5404,0.2348,0.3168,-50.1000,36.7500,40.9500,9.6414,0.5770,1.1253,0.2689,-0.1807,-0.0762,-51.6000,7.8000,9.9000,3.5600,3.7700,-8.1900,-0.0295,0.0447,-0.0349,-22.1875,-27.8750,19.0625,215.6875,22.0000,-155.2500,0
1777068056.485,9.5050,1.9225,0.8021,0.5351,0.2062,0.3080,-50.1000,36.0000,42.3000,9.7875,0.4429,0.9337,0.2697,-0.1905,-0.0855,-51.6000,7.8000,9.9000,3.5600,3.7700,-8.1900,-0.0295,0.0447,-0.0349,-22.1875,-27.8750,19.0625,215.6875,22.0000,-155.2500,0
1777068056.490,9.5050,1.9225,0.8021,0.5351,0.2062,0.3080,-50.1000,36.0000,42.3000,9.7875,0.4429,0.9337,0.2697,-0.1905,-0.0855,-51.7500,7.5000,12.0000,3.5400,3.7600,-8.1900,-0.0633,0.0567,-0.0338,-23.6875,-27.5000,18.1875,215.6875,22.0625,-155.1875,0
1777068056.495,9.3781,1.9130,0.7063,0.5231,0.2222,0.3054,-50.1000,36.0000,42.3000,9.7109,0.4621,0.9888,0.2228,-0.2052,-0.0933,-51.7500,7.5000,12.0000,3.5400,3.7600,-8.1900,-0.0633,0.0567,-0.0338,-23.6875,-27.5000,18.1875,215.6875,22.0625,-155.1875,0
1777068056.499,9.3781,1.9130,0.7063,0.5231,0.2222,0.3054,-50.1000,36.0000,42.3000,9.7109,0.4621,0.9888,0.2228,-0.2052,-0.0933,-52.2000,7.2000,10.0500,3.5400,3.7600,-8.1900,-0.0633,0.0567,-0.0338,-23.6875,-27.5000,18.1875,215.6875,22.0625,-155.1250,0
1777068056.505,9.4858,2.0159,0.5267,0.4756,0.2268,0.3054,-51.1500,35.2500,40.2000,9.6869,0.8452,0.6440,0.1514,-0.2182,-0.0783,-52.2000,7.2000,10.0500,3.6100,3.7700,-8.1900,-0.0633,0.0567,-0.0338,-23.6875,-27.5000,18.1875,215.6875,22.0625,-155.1250,0
1777068056.509,9.4858,2.0159,0.5267,0.4756,0.2268,0.3054,-51.1500,35.2500,40.2000,9.6869,0.8452,0.6440,0.1514,-0.2182,-0.0783,-52.5000,6.7500,10.8000,3.6100,3.7700,-8.1900,-0.0807,0.0611,-0.0436,-23.6875,-27.5000,18.1875,215.6250,22.0625,-155.0625,0
1777068056.515,9.4212,2.4397,0.4286,0.4186,0.2028,0.3003,-51.1500,34.0500,40.5000,9.7037,1.5730,0.0982,0.1191,-0.2230,-0.0719,-52.5000,6.7500,10.8000,3.6000,3.7300,-8.1900,-0.0807,0.0611,-0.0436,-23.6875,-27.5000,18.1875,215.6250,22.0625,-155.0625,0
1777068056.523,9.2847,2.8491,0.3998,0.3944,0.1921,0.2766,-49.6500,34.8000,39.9000,9.5577,2.1213,0.1460,0.2188,-0.2073,-0.0687,-52.3500,7.8000,9.9000,3.6000,3.8000,-8.1800,-0.0938,0.0709,-0.0524,-23.6875,-27.5000,18.1875,215.6250,22.1250,-155.0000,0
1777068056.528,9.2847,2.8491,0.3998,0.3944,0.1921,0.2766,-49.6500,34.8000,39.9000,9.5577,2.1213,0.1460,0.2188,-0.2073,-0.0687,-51.3000,9.4500,9.7500,3.6000,3.8000,-8.1800,-0.1080,0.0851,-0.0633,-23.6875,-27.5000,18.1875,215.5625,22.1250,-154.9375,0
1777068056.535,9.4427,3.0119,0.3903,0.3579,0.1660,0.2419,-51.0000,33.9000,40.0500,9.4595,2.0997,0.1987,0.3605,-0.2057,-0.0786,-51.3000,9.4500,9.7500,3.5900,4.0700,-8.0500,-0.1080,0.0851,-0.0633,-23.6875,-27.5000,18.1875,215.5625,22.1250,-154.9375,0
1777068056.540,9.4427,3.0119,0.3903,0.3579,0.1660,0.2419,-51.0000,33.9000,40.0500,9.3182,1.8435,-0.0311,0.3605,-0.2057,-0.0786,-51.3000,9.4500,9.7500,3.5800,4.0600,-8.0100,-0.1069,0.0927,-0.0731,-22.5625,-27.8750,19.7500,215.5625,22.1250,-154.8125,0
1777068056.545,9.2536,2.9832,0.3998,0.3619,0.1250,0.2049,-51.0000,33.9000,40.0500,9.3182,1.8435,-0.0311,0.4429,-0.1985,-0.0957,-51.3000,9.4500,9.7500,3.5800,4.0600,-8.0100,-0.1069,0.0927,-0.0731,-22.5625,-27.8750,19.7500,215.5625,22.1250,-154.8125,0
1777068056.549,9.2536,2.9832,0.3998,0.3619,0.1250,0.2049,-51.0000,33.9000,40.0500,9.5098,1.5083,0.0048,0.4711,-0.1801,-0.0775,-51.1500,7.8000,9.6000,3.5800,4.0600,-8.0100,-0.1069,0.0927,-0.0731,-22.5625,-27.8750,19.7500,215.5000,22.1875,-154.7500,0
1777068056.555,9.2057,2.8874,0.6297,0.3669,0.0949,0.1370,-51.0000,34.6500,41.8500,9.5098,1.5083,0.0048,0.4711,-0.1801,-0.0775,-51.1500,7.8000,9.6000,3.6000,4.0200,-8.0000,-0.1069,0.0927,-0.0731,-22.5625,-27.8750,19.7500,215.5000,22.1875,-154.7500,0
1777068056.559,9.2057,2.8874,0.6297,0.3669,0.0949,0.1370,-51.0000,34.6500,41.8500,9.7396,1.0127,0.5243,0.3992,-0.1823,-0.0624,-51.1500,7.8000,9.6000,3.6000,4.0200,-8.0000,-0.0960,0.0862,-0.0687,-22.5625,-27.8750,19.7500,215.4375,22.1875,-154.6875,0
1777068056.565,9.1961,2.3631,0.9290,0.2886,0.1412,0.1074,-50.4000,34.0500,40.9500,9.7396,1.0127,0.5243,0.3992,-0.1823,-0.0624,-51.1500,7.8000,9.6000,3.5600,4.0900,-8.0300,-0.0960,0.0862,-0.0687,-22.5625,-27.8750,19.7500,215.4375,22.2500,-154.6250,0
1777068056.574,9.2536,2.0494,0.6680,0.2228,0.1745,0.0965,-50.5500,33.1500,40.3500,9.6127,0.7207,0.4357,0.2574,-0.2025,-0.0610,-52.5000,7.9500,8.2500,3.6200,4.1300,-7.9900,-0.0742,0.0654,-0.0567,-22.5625,-27.8750,19.7500,215.3750,22.2500,-154.5625,0
1777068056.584,9.4619,2.1189,0.3783,0.1455,0.1577,0.1066,-49.5000,33.4500,40.6500,9.7252,0.9002,0.0527,0.1279,-0.2348,-0.0562,-51.1500,9.7500,8.4000,3.6400,3.9900,-8.0400,-0.0622,0.0600,-0.0545,-22.5625,-27.8750,19.7500,215.3750,22.2500,-154.5625,0
1777068056.589,9.4619,2.1189,0.3783,0.1455,0.1577,0.1066,-49.5000,33.4500,40.6500,9.6558,1.2761,-0.1532,0.0586,-0.2289,-0.0466,-51.1500,9.7500,8.4000,3.6400,3.9900,-8.0400,-0.0622,0.0600,-0.0545,-22.5625,-27.8750,19.7500,215.3750,22.2500,-154.5625,0
1777068056.594,9.4643,2.4421,0.3376,0.1204,0.1207,0.1282,-50.5500,33.1500,40.3500,9.6558,1.2761,-0.1532,0.0586,-0.2289,-0.0466,-52.3500,8.1000,8.8500,3.6500,3.9400,-8.0700,-0.0545,0.0633,-0.0545,-23.6875,-28.2500,18.5625,215.3750,22.2500,-154.5000,0
1777068056.598,9.4643,2.4421,0.3376,0.1204,0.1207,0.1282,-50.5500,33.1500,40.3500,9.6319,1.5945,0.1580,0.1050,-0.2380,-0.0421,-52.3500,8.1000,8.8500,3.6500,3.9400,-8.0700,-0.0545,0.0633,-0.0545,-23.6875,-28.2500,18.5625,215.3750,22.2500,-154.5000,0
1777068056.603,9.4882,2.9281,0.3112,0.1383,0.0554,0.1223,-50.5500,33.1500,40.3500,9.6319,1.5945,0.1580,0.1050,-0.2380,-0.0421,-51.6000,8.5500,8.4000,3.5400,4.0400,-8.0400,-0.0567,0.0709,-0.0633,-23.6875,-28.2500,18.5625,215.3125,22.2500,-154.4375,0
1777068056.608,9.4882,2.9281,0.3112,0.1383,0.0554,0.1223,-50.5500,33.1500,40.3500,9.5337,1.6472,0.2777,0.1772,-0.2268,-0.0544,-51.6000,8.5500,8.4000,3.5400,4.0400,-8.0400,-0.0567,0.0709,-0.0633,-23.6875,-28.2500,18.5625,215.3125,22.2500,-154.4375,0
1777068056.614,9.5840,3.4453,0.3112,0.1292,-0.0117,0.0999,-49.2000,34.2000,41.4000,9.5337,1.6472,0.2777,0.1772,-0.2268,-0.0544,-51.6000,8.5500,8.4000,3.5100,4.0200,-8.0300,-0.0611,0.0873,-0.0720,-23.6875,-28.2500,18.5625,215.3125,22.3125,-154.3750,0
1777068056.619,9.2943,3.5003,0.5387,0.1356,-0.0714,0.0810,-49.2000,34.2000,41.4000,9.5529,1.6783,0.2538,0.2150,-0.2246,-0.0530,-51.7500,8.7000,9.7500,3.5100,4.0200,-8.0300,-0.0644,0.0916,-0.0720,-23.6875,-28.2500,18.5625,215.2500,22.3125,-154.3125,0
1777068056.625,9.2943,3.5003,0.5387,0.1356,-0.0714,0.0810,-50.8500,33.3000,41.2500,9.5529,1.6783,0.2538,0.2150,-0.2246,-0.0530,-51.7500,8.7000,9.7500,3.5500,3.9900,-8.0800,-0.0644,0.0916,-0.0720,-23.6875,-28.2500,18.5625,215.2500,22.3125,-154.3125,0
1777068056.634,9.3757,3.3016,0.7949,0.1812,-0.0698,0.0549,-51.1500,33.7500,41.2500,9.5146,1.7526,0.1939,0.2281,-0.2262,-0.0522,-51.7500,8.7000,9.7500,3.6800,4.1400,-8.0000,-0.0589,0.0905,-0.0698,-23.6875,-28.2500,18.5625,215.1875,22.3750,-154.2500,0
1777068056.639,9.3877,2.8874,0.8906,0.2494,-0.0751,0.0224,-51.1500,33.7500,41.2500,9.5816,1.6735,0.1939,0.2278,-0.2118,-0.0522,-51.7500,8.7000,9.7500,3.6800,4.1400,-8.0000,-0.0589,0.0905,-0.0698,-23.6875,-28.2500,18.5625,215.1875,22.3750,-154.2500,0
1777068056.644,9.3877,2.8874,0.8906,0.2494,-0.0751,0.0224,-50.8500,34.0500,40.5000,9.5816,1.6735,0.1939,0.2278,-0.2118,-0.0522,-52.2000,9.1500,9.3000,3.6600,4.1400,-8.0100,-0.0480,0.0785,-0.0687,-23.0000,-27.5000,19.3750,215.1250,22.3750,-154.1875,0
1777068056.649,9.4427,2.6288,0.9553,0.3293,-0.0735,-0.0035,-50.8500,34.0500,40.5000,9.6534,1.3551,0.0048,0.2068,-0.2132,-0.0453,-52.2000,9.1500,9.3000,3.6600,4.1400,-8.0100,-0.0480,0.0785,-0.0687,-23.0000,-27.5000,19.3750,215.1250,22.3750,-154.1875,0
1777068056.654,9.4427,2.6288,0.9553,0.3293,-0.0735,-0.0035,-50.8500,34.0500,40.5000,9.6534,1.3551,0.0048,0.2068,-0.2132,-0.0453,-51.0000,8.7000,7.5000,3.6600,4.2000,-7.9700,-0.0393,0.0676,-0.0654,-23.0000,-27.5000,19.3750,215.1250,22.3750,-154.1250,0
1777068056.659,9.4739,2.3846,0.6656,0.3805,-0.0802,-0.0088,-50.8500,34.0500,40.5000,9.6558,1.1229,0.1796,0.2369,-0.2198,-0.0474,-51.0000,8.7000,7.5000,3.6600,4.2000,-7.9700,-0.0262,0.0567,-0.0611,-23.0000,-27.5000,19.3750,215.0625,22.3750,-154.0625,0
1777068056.665,9.4739,2.3846,0.6656,0.3805,-0.0802,-0.0088,-50.2500,32.4000,40.3500,9.6175,1.3838,0.0622,0.1516,-0.2252,-0.0426,-51.1500,8.1000,6.6000,3.6500,4.1700,-7.9500,-0.0262,0.0567,-0.0611,-23.0000,-27.5000,19.3750,215.0625,22.3750,-154.0625,0
1777068056.674,9.4020,2.4421,0.5291,0.4543,-0.1002,-0.0155,-51.3000,34.6500,39.6000,9.7300,1.6161,-0.0503,0.1516,-0.2252,-0.0426,-52.3500,8.1000,7.6500,3.6200,3.9600,-8.0700,-0.0175,0.0458,-0.0535,-23.0000,-27.5000,19.3750,215.0000,22.3750,-154.0625,0
1777068056.678,9.4020,2.6887,0.8428,0.4991,-0.1220,-0.0432,-51.3000,34.6500,39.6000,9.7300,1.6161,-0.0503,0.1212,-0.2206,-0.0341,-52.3500,8.1000,7.6500,3.6200,3.9600,-8.0700,-0.0207,0.0513,-0.0480,-23.0000,-27.5000,19.3750,215.0000,22.4375,-154.0000,0
1777068056.685,9.4020,2.6887,0.8428,0.4991,-0.1220,-0.0432,-48.6000,32.5500,39.4500,9.6582,2.1261,0.2873,0.1828,-0.2158,-0.0381,-51.9000,8.5500,7.6500,3.6400,4.0400,-8.0800,-0.0207,0.0513,-0.0480,-23.0000,-27.5000,19.3750,215.0000,22.4375,-154.0000,0
1777068056.690,9.3374,2.8012,0.9601,0.4567,-0.1359,-0.0882,-49.6500,32.2500,40.5000,9.6582,2.1261,0.2873,0.1828,-0.2158,-0.0381,-51.1500,7.8000,7.3500,3.6400,4.0400,-8.0800,-0.0251,0.0556,-0.0469,-23.0000,-27.8750,17.7500,214.9375,22.4375,-154.0000,0
1777068056.695,9.3374,2.8012,0.9601,0.4567,-0.1359,-0.0882,-49.6500,32.2500,40.5000,9.5074,2.2793,0.3208,0.2427,-0.2292,-0.0368,-51.1500,7.8000,7.3500,3.6300,4.1700,-8.0100,-0.0251,0.0556,-0.0469,-23.0000,-27.8750,17.7500,214.9375,22.4375,-154.0000,0
1777068056.700,9.4236,2.7677,0.8475,0.3874,-0.1231,-0.1402,-50.1000,33.0000,39.1500,9.5074,2.2793,0.3208,0.2427,-0.2292,-0.0368,-51.1500,7.8000,7.3500,3.6300,4.1700,-8.0100,-0.0240,0.0524,-0.0436,-23.0000,-27.8750,17.7500,214.9375,22.4375,-153.9375,0
1777068056.705,9.4236,2.7677,0.8475,0.3874,-0.1231,-0.1402,-50.1000,33.0000,39.1500,9.6223,1.6783,0.1963,0.3136,-0.2150,-0.0314,-51.1500,7.8000,7.3500,3.6700,4.1400,-8.0100,-0.0240,0.0524,-0.0436,-23.0000,-27.8750,17.7500,214.9375,22.4375,-153.9375,0
1777068056.710,9.4475,2.5594,0.5722,0.3808,-0.1108,-0.1777,-50.1000,33.0000,39.1500,9.6223,1.6783,0.1963,0.3136,-0.2150,-0.0314,-51.1500,7.8000,7.3500,3.6700,4.1400,-8.0100,-0.0218,0.0469,-0.0469,-23.0000,-27.8750,17.7500,214.8750,22.4375,-153.9375,0
1777068056.715,9.4475,2.5594,0.5722,0.3808,-0.1108,-0.1777,-50.1000,33.0000,39.1500,9.6869,1.5299,0.6081,0.3496,-0.2364,-0.0229,-51.7500,7.5000,7.9500,3.7100,4.2000,-7.9700,-0.0218,0.0469,-0.0469,-23.0000,-27.8750,17.7500,214.8750,22.4375,-153.8750,0
1777068056.724,9.5505,2.2625,0.7230,0.4069,-0.1338,-0.1863,-50.2500,33.1500,38.5500,9.7444,1.3695,0.2586,0.2188,-0.2459,-0.0250,-53.4000,8.1000,7.3500,3.6600,4.2000,-7.9700,-0.0164,0.0349,-0.0480,-23.0000,-27.8750,17.7500,214.8750,22.4375,-153.8750,0
1777068056.730,9.6414,2.0997,0.8978,0.4498,-0.1913,-0.2062,-50.8500,33.7500,41.5500,9.7444,1.3695,0.2586,0.2188,-0.2459,-0.0250,-53.2500,8.4000,7.2000,3.6800,4.1000,-8.0800,-0.0153,0.0338,-0.0436,-23.0000,-27.8750,17.7500,214.8125,22.4375,-153.8125,0
1777068056.735,9.5289,2.1596,0.8811,0.4269,-0.2022,-0.2318,-50.8500,33.7500,41.5500,9.9120,1.2043,0.2562,0.1791,-0.2569,-0.0213,-53.2500,8.4000,7.2000,3.6800,4.1000,-8.0800,-0.0153,0.0338,-0.0436,-23.0000,-27.8750,17.7500,214.8125,22.4375,-153.8125,0
1777068056.740,9.5289,2.1596,0.8811,0.4269,-0.2022,-0.2318,-49.3500,33.3000,39.4500,9.9120,1.2043,0.2562,0.1791,-0.2569,-0.0213,-53.2500,8.4000,7.2000,3.6800,4.1000,-8.0800,-0.0338,0.0458,-0.0436,-23.0000,-28.2500,16.5625,214.8125,22.4375,-153.8125,0
1777068056.745,9.5624,2.2769,1.0008,0.3704,-0.1759,-0.2713,-49.3500,33.3000,39.4500,9.8641,1.2594,0.5243,0.1601,-0.2750,-0.0120,-52.3500,8.5500,6.9000,3.6600,4.1300,-8.0900,-0.0338,0.0458,-0.0436,-23.0000,-28.2500,16.5625,214.8125,22.4375,-153.8125,0
1777068056.750,9.5624,2.2769,1.0008,0.3704,-0.1759,-0.2713,-49.6500,33.7500,39.1500,9.8641,1.2594,0.5243,0.1601,-0.2750,-0.0120,-52.3500,8.5500,6.9000,3.6600,4.1300,-8.0900,-0.0513,0.0600,-0.0436,-23.0000,-28.2500,16.5625,214.8125,22.5000,-153.7500,0
1777068056.755,9.5816,2.2865,1.1923,0.3429,-0.1958,-0.2952,-49.6500,33.7500,39.1500,9.9120,1.2689,0.4932,0.1162,-0.2880,-0.0149,-52.3500,9.3000,7.3500,3.6100,4.1600,-8.1100,-0.0513,0.0600,-0.0436,-23.0000,-28.2500,16.5625,214.8125,22.5000,-153.7500,0
1777068056.760,9.5816,2.2865,1.1923,0.3429,-0.1958,-0.2952,-49.6500,33.7500,39.1500,10.0413,1.1612,0.4022,0.1162,-0.2880,-0.0149,-52.3500,9.3000,7.3500,3.6100,4.1600,-8.1100,-0.0774,0.0731,-0.0436,-23.0000,-28.2500,16.5625,214.7500,22.5000,-153.6875,0
1777068056.765,9.6343,2.1308,1.1061,0.2963,-0.1783,-0.3134,-49.6500,33.7500,39.1500,10.0413,1.1612,0.4022,0.0861,-0.3046,-0.0157,-53.1000,9.7500,5.8500,3.6500,4.1100,-8.1600,-0.0774,0.0731,-0.0436,-23.0000,-28.2500,16.5625,214.7500,22.5000,-153.6875,0
1777068056.774,9.8641,1.7789,1.0774,0.2595,-0.1348,-0.3395,-49.3500,33.7500,39.9000,10.2687,1.1875,0.5866,0.1034,-0.3339,-0.0282,-53.1000,9.7500,5.8500,3.6300,4.1800,-8.1900,-0.1069,0.0993,-0.0469,-23.0000,-28.2500,16.5625,214.7500,22.5625,-153.6250,0
1777068056.779,9.8641,1.7789,1.0774,0.2595,-0.1348,-0.3395,-49.2000,34.6500,38.2500,10.4435,0.7183,0.5315,0.1034,-0.3339,-0.0282,-53.1000,9.7500,5.8500,3.6300,4.1800,-8.1900,-0.1549,0.1276,-0.0535,-23.0000,-28.2500,16.5625,214.6875,22.5625,-153.5000,0
1777068056.785,9.8306,1.4700,1.0391,0.2966,-0.2374,-0.3549,-49.2000,34.6500,38.2500,10.4435,0.7183,0.5315,0.0810,-0.3635,-0.0306,-52.3500,9.3000,6.6000,3.5600,4.1300,-8.2700,-0.1549,0.1276,-0.0535,-23.0000,-28.2500,16.5625,214.6875,22.5625,-153.5000,0
1777068056.790,9.8306,1.4700,1.0391,0.2966,-0.2374,-0.3549,-49.2000,34.6500,39.3000,10.5465,-0.1317,0.3926,0.0794,-0.3714,-0.0509,-52.3500,9.3000,6.6000,3.5500,4.1400,-8.3500,-0.2214,0.1745,-0.0611,-23.0000,-28.5625,17.3750,214.6875,22.6250,-153.3125,0
1777068056.795,9.7372,0.9026,0.6440,0.2920,-0.2022,-0.3477,-49.2000,34.6500,39.3000,10.5465,-0.1317,0.3926,0.0794,-0.3714,-0.0509,-52.9500,8.4000,7.5000,3.5500,4.1400,-8.3500,-0.2214,0.1745,-0.0611,-23.0000,-28.5625,17.3750,214.6875,22.6250,-153.3125,0
1777068056.800,9.7372,0.9026,0.6440,0.2920,-0.2022,-0.3477,-48.4500,33.4500,38.5500,10.4794,-0.8763,0.3519,0.0160,-0.3994,-0.0733,-52.9500,8.4000,7.5000,3.5500,4.1400,-8.3500,-0.3033,0.2280,-0.0698,-23.0000,-28.5625,17.3750,214.6250,22.6875,-153.1250,0
1777068056.805,9.5433,0.4956,0.5363,0.3400,-0.1431,-0.3344,-48.4500,33.4500,38.5500,10.4794,-0.8763,0.3519,0.0160,-0.3994,-0.0733,-52.6500,8.5500,7.6500,3.6200,4.0800,-8.3400,-0.3033,0.2280,-0.0698,-23.0000,-28.5625,17.3750,214.6250,22.6875,-153.1250,0
1777068056.810,9.5433,0.4956,0.5363,0.3400,-0.1431,-0.3344,-48.7500,33.1500,35.7000,10.3070,-1.0870,0.0814,-0.0954,-0.4426,-0.1039,-52.6500,8.5500,7.6500,3.6200,4.0800,-8.3400,-0.3796,0.2803,-0.0785,-23.0000,-28.5625,17.3750,214.6250,22.8125,-152.8750,0
1777068056.815,9.9048,0.1556,0.0599,0.3565,-0.0901,-0.3000,-48.7500,33.1500,35.7000,10.3070,-1.0870,0.0814,-0.0954,-0.4426,-0.1039,-52.3500,8.1000,5.5500,3.6500,3.8600,-8.3400,-0.3796,0.2803,-0.0785,-23.0000,-28.5625,17.3750,214.5625,22.9375,-152.5625,0
1777068056.824,10.0485,0.0479,0.0646,0.4197,-0.1471,-0.2483,-48.7500,33.1500,35.7000,10.2639,-0.6057,0.0144,-0.1274,-0.5281,-0.1503,-53.1000,9.7500,7.3500,3.6900,3.5800,-8.4400,-0.4571,0.3262,-0.0796,-23.0000,-28.5625,17.3750,214.5625,22.9375,-152.5625,0
1777068056.834,10.4363,0.3065,-0.3089,0.5335,-0.2113,-0.1665,-45.9000,30.9000,35.7000,10.3238,-0.1891,0.0599,-0.1609,-0.5844,-0.1966,-53.7000,7.9500,6.7500,3.6700,3.2300,-8.6100,-0.5651,0.3785,-0.0611,-23.0000,-28.5625,17.3750,214.5625,23.1250,-152.2500,0
1777068056.839,10.4363,0.3065,-0.3089,0.5335,-0.2113,-0.1665,-46.0500,30.3000,34.2000,10.4291,0.0096,0.2083,-0.1311,-0.6454,-0.2276,-53.7000,7.9500,6.7500,3.6700,3.2300,-8.6100,-0.5651,0.3785,-0.0611,-23.0000,-28.5625,17.3750,214.5625,23.1250,-152.2500,0
1777068056.844,10.3070,0.5339,-0.6608,0.4898,-0.3309,-0.1242,-46.0500,30.3000,34.2000,10.4291,0.0096,0.2083,-0.1311,-0.6454,-0.2276,-53.7000,7.9500,6.7500,3.7000,3.2400,-8.5400,-0.7243,0.4222,-0.0273,-23.2500,-29.2500,15.8750,214.5625,23.3125,-151.7500,0
1777068056.849,10.3070,0.5339,-0.6608,0.4898,-0.3309,-0.1242,-44.4000,31.2000,34.3500,10.5082,0.0503,0.1532,-0.1825,-0.6619,-0.2361,-53.7000,7.9500,6.7500,3.7000,3.2400,-8.5400,-0.7243,0.4222,-0.0273,-23.2500,-29.2500,15.8750,214.5625,23.3125,-151.7500,0
1777068056.854,10.3430,0.8691,-0.9266,0.4042,-0.4032,-0.1079,-44.4000,31.2000,34.3500,10.5082,0.0503,0.1532,-0.1825,-0.6619,-0.2361,-51.7500,7.2000,6.4500,3.8400,3.2600,-8.4300,-0.8923,0.4603,-0.0044,-23.2500,-29.2500,15.8750,214.6250,23.5625,-151.1875,0
1777068056.859,10.3430,0.8691,-0.9266,0.4042,-0.4032,-0.1079,-45.7500,30.3000,33.7500,10.4794,0.0359,0.1915,-0.2446,-0.6936,-0.2366,-51.7500,7.2000,6.4500,3.8400,3.2600,-8.4300,-1.0287,0.5018,0.0142,-23.2500,-29.2500,15.8750,214.6875,23.8125,-150.5625,0
1777068056.865,10.1993,1.3048,-1.0894,0.2739,-0.4018,-0.0933,-45.7500,30.3000,33.7500,10.4794,0.0359,0.1915,-0.2446,-0.6936,-0.2366,-51.7500,7.2000,6.4500,3.7400,3.4200,-8.4700,-1.0287,0.5018,0.0142,-23.2500,-29.2500,15.8750,214.7500,24.1250,-149.8750,0
1777068056.874,10.1370,1.7933,-1.2282,0.1482,-0.3381,-0.0557,-45.7500,30.3000,33.7500,10.5034,0.0383,0.2849,-0.3416,-0.7213,-0.2395,-52.3500,9.0000,5.1000,3.9900,3.9500,-8.2100,-1.1203,0.6076,0.0480,-23.2500,-29.2500,15.8750,214.7500,24.1250,-149.8750,0
1777068056.884,10.2352,2.1691,-1.1229,-0.0181,-0.2649,-0.0274,-45.7500,30.3000,33.7500,10.3262,0.2490,0.3089,-0.4069,-0.7386,-0.2430,-52.6500,8.5500,7.3500,4.1000,3.9100,-8.1900,-1.3177,0.6959,0.0676,-23.2500,-29.2500,15.8750,214.8750,24.4375,-149.1250,0
1777068056.889,10.2352,2.1691,-1.1229,-0.1439,-0.2225,-0.0061,-46.9500,29.7000,35.7000,10.2496,0.4980,0.0287,-0.4770,-0.7576,-0.2537,-52.6500,8.5500,7.3500,4.1000,3.9100,-8.1900,-1.3177,0.6959,0.0676,-23.2500,-29.2500,15.8750,214.8750,24.4375,-149.1250,0
1777068056.894,10.3525,2.5522,-1.0511,-0.1439,-0.2225,-0.0061,-46.9500,29.7000,35.7000,10.3837,0.8308,-0.3256,-0.4770,-0.7576,-0.2537,-52.9500,7.9500,4.9500,4.5200,3.8900,-8.1200,-1.4552,0.7679,0.0327,-23.6875,-28.5625,15.0625,215.0625,24.8125,-148.1875,0
1777068056.899,10.4531,2.9066,-0.9002,-0.2825,-0.2236,0.0099,-45.4500,31.9500,33.9000,10.3837,0.8308,-0.3256,-0.5121,-0.7717,-0.2454,-52.9500,7.9500,4.9500,4.5200,3.8900,-8.1200,-1.4552,0.7679,0.0327,-23.6875,-28.5625,15.0625,215.1250,25.1875,-147.2500,0
1777068056.904,10.4531,2.9066,-0.9002,-0.2825,-0.2236,0.0099,-45.4500,31.9500,33.9000,9.9575,1.2905,-0.4669,-0.5121,-0.7717,-0.2454,-54.0000,9.1500,5.7000,4.4300,4.0200,-7.7000,-1.4497,0.7985,-0.0654,-23.6875,-28.5625,15.0625,215.1250,25.1875,-147.2500,0
1777068056.909,10.3908,3.0071,-0.6656,-0.3824,-0.2134,-0.0181,-46.0500,31.8000,33.0000,9.9575,1.2905,-0.4669,-0.5801,-0.7682,-0.2425,-54.0000,9.1500,5.7000,4.4300,4.0200,-7.7000,-1.3614,0.8334,-0.1767,-23.6875,-28.5625,15.0625,215.0625,25.5000,-146.3750,0
1777068056.915,10.3908,3.0071,-0.6656,-0.3824,-0.2134,-0.0181,-45.3000,28.8000,34.8000,9.8330,1.4174,-0.7183,-0.5814,-0.7309,-0.2342,-54.0000,9.1500,5.7000,4.8700,4.1000,-7.8900,-1.3614,0.8334,-0.1767,-23.6875,-28.5625,15.0625,214.9375,25.8125,-145.4375,0
1777068056.925,10.3621,3.1556,-0.9002,-0.4322,-0.1892,-0.0717,-45.3000,28.8000,34.8000,9.6319,1.5802,-0.7302,-0.4359,-0.7264,-0.2284,-52.9500,7.2000,4.9500,4.4000,3.5900,-7.7200,-1.2948,0.7963,-0.2978,-23.6875,-28.5625,15.0625,214.7500,26.0625,-144.5625,0
1777068056.935,10.0580,3.3040,-1.5060,-0.5393,-0.1881,-0.1442,-45.3000,28.8000,34.8000,9.5600,1.6807,-1.1013,-0.4045,-0.6939,-0.2065,-52.9500,7.2000,4.9500,4.8100,4.3100,-7.4600,-1.1639,0.8061,-0.4069,-23.6875,-28.5625,15.0625,214.7500,26.0625,-144.5625,0
1777068056.940,9.2727,3.6536,-1.3431,-0.5145,-0.2755,-0.1943,-45.1500,30.9000,34.9500,9.5600,1.6807,-1.1013,-0.4045,-0.6939,-0.2065,-52.9500,7.2000,4.9500,4.8100,4.3100,-7.4600,-1.1639,0.8061,-0.4069,-23.6875,-28.5625,15.0625,214.5000,26.2500,-143.7500,0
1777068056.945,9.2727,3.6536,-1.3431,-0.5145,-0.2755,-0.1943,-45.1500,30.9000,34.9500,9.6654,2.2889,-1.6544,-0.5252,-0.7394,-0.1692,-53.4000,7.8000,4.8000,4.9200,4.6000,-7.5600,-1.0756,0.8410,-0.4832,-24.3750,-30.5000,13.3750,214.5000,26.2500,-143.7500,0
1777068056.950,8.9639,4.1946,-0.7039,-0.4495,-0.2867,-0.1905,-44.1000,30.9000,34.9500,9.6654,2.2889,-1.6544,-0.5252,-0.7394,-0.1692,-53.4000,7.8000,4.8000,4.9200,4.6000,-7.5600,-1.0756,0.8410,-0.4832,-24.3750,-30.5000,13.3750,214.1250,26.4375,-143.0625,0
1777068056.955,8.9639,4.1946,-0.7039,-0.4495,-0.2867,-0.1905,-44.1000,30.9000,34.9500,10.0580,0.9146,-3.9433,-0.5241,-0.5580,-0.0179,-52.2000,6.0000,5.7000,-0.4600,10.9100,-11.3600,-0.7581,0.9076,-0.6294,-24.3750,-30.5000,13.3750,214.1250,26.4375,-143.0625,0
1777068056.959,8.7484,4.5921,-0.9002,-0.4050,-0.2960,-0.1495,-45.4500,30.4500,33.9000,10.0580,0.9146,-3.9433,-0.5241,-0.5580,-0.0179,-52.2000,6.0000,5.7000,-0.4600,10.9100,-11.3600,1.8141,1.7421,-1.3690,-24.3750,-30.5000,13.3750,212.8125,26.7500,-143.4375,0
1777068056.965,8.7484,4.5921,-0.9002,-0.4050,-0.2960,-0.1495,-45.4500,30.1500,35.4000,10.0317,0.6464,-2.4277,0.0642,-0.5137,0.1905,-53.1000,8.1000,4.8000,-1.2500,8.0300,-8.5000,1.8141,1.7421,-1.3690,-24.3750,-30.5000,13.3750,211.4375,27.1250,-143.5625,0
1777068056.975,8.9160,4.8985,-1.5107,-0.3821,-0.2425,-0.0903,-45.4500,30.1500,35.4000,8.5210,2.1476,-1.9561,0.1228,-0.3928,0.2840,-52.2000,10.3500,4.5000,9.7900,-1.4300,-7.9400,1.3657,1.8980,-1.5381,-24.3750,-30.5000,13.3750,211.4375,27.1250,-143.5625,0
1777068056.985,9.1147,4.7836,-1.3479,-0.4980,-0.2603,-0.0461,-45.4500,30.1500,35.4000,8.1618,2.9928,-2.7031,0.3283,-0.2875,0.3032,-52.6500,7.3500,4.0500,5.8200,8.6800,-8.7900,0.2127,1.0963,-1.7344,-24.3750,-30.5000,13.3750,210.2500,27.0000,-143.0625,0
1777068056.990,9.2536,4.5035,-1.1612,-0.6387,-0.3246,-0.0306,-45.4500,30.1500,35.4000,8.1618,2.9928,-2.7031,0.3283,-0.2875,0.3032,-52.6500,7.3500,4.0500,5.8200,8.6800,-8.7900,0.2127,1.0963,-1.7344,-24.3750,-30.5000,13.3750,209.1250,26.8125,-142.9375,0
1777068056.995,9.2536,4.5035,-1.1612,-0.6387,-0.3246,-0.0306,-45.9000,28.9500,37.2000,8.9376,2.7940,-1.8459,1.1365,-0.1258,0.2092,-51.9000,8.5500,3.3000,5.4800,7.3500,-7.7600,0.6130,0.7341,-1.6602,-23.6875,-30.7500,11.3750,209.1250,26.8125,-142.9375,0
1777068056.999,9.2943,4.1635,-1.3719,-0.5436,-0.3219,-0.0155,-45.9000,28.9500,37.2000,8.9376,2.7940,-1.8459,1.1365,-0.1258,0.2092,-51.9000,8.5500,3.3000,5.4800,7.3500,-7.7600,0.6130,0.7341,-1.6602,-23.6875,-30.7500,11.3750,208.0625,26.5000,-142.8750,0
1777068057.005,9.2943,4.1635,-1.3719,-0.5436,-0.3219,-0.0155,-45.7500,28.0500,36.6000,8.3390,2.7964,-0.7422,1.3030,-0.0083,0.1079,-51.9000,8.5500,3.3000,11.6200,3.1400,-10.7500,0.7418,0.4832,-1.5937,-23.6875,-30.7500,11.3750,208.0625,26.5000,-142.8750,0
1777068057.009,9.1818,4.2665,-1.8627,-0.3698,-0.3504,-0.0234,-45.7500,28.0500,36.6000,8.3390,2.7964,-0.7422,1.3030,-0.0083,0.1079,-51.9000,8.5500,3.3000,11.6200,3.1400,-10.7500,0.6840,0.0371,-1.7181,-23.6875,-30.7500,11.3750,207.0000,25.9375,-142.8750,0
1777068057.016,8.8897,4.3383,-2.3511,-0.3357,-0.2990,-0.0418,-45.7500,30.3000,35.8500,9.4810,1.2091,-0.1197,1.5223,0.0634,0.1434,-51.9000,7.8000,4.0500,6.0100,3.2200,-6.3600,0.6840,0.0371,-1.7181,-23.6875,-30.7500,11.3750,206.1875,25.5000,-143.1250,0
1777068057.025,8.8897,4.3383,-2.3511,-0.3549,-0.2731,-0.0362,-45.4500,28.9500,36.7500,8.9064,-0.5722,-1.2450,1.4205,0.1969,0.2361,-51.9000,7.8000,2.8500,15.3600,0.4800,-9.0700,0.9087,-0.0589,-1.2359,-23.6875,-30.7500,11.3750,206.3750,24.8125,-144.0625,0
1777068057.035,8.9639,3.3974,-2.5187,-0.2257,-0.2787,-0.0336,-45.4500,28.9500,36.7500,8.9711,-3.1196,-1.1540,1.4330,0.3262,0.3794,-54.0000,8.7000,1.6500,0.8100,-7.9600,-9.3700,1.1345,-1.6341,0.1734,-23.6875,-30.7500,11.3750,206.3750,24.8125,-144.0625,0
1777068057.040,8.9639,3.3974,-2.5187,-0.2257,-0.2787,-0.0336,-45.4500,28.9500,36.7500,9.1626,-5.6144,-1.0343,0.6392,0.4021,0.4722,-54.0000,8.7000,1.6500,0.8100,-7.9600,-9.3700,1.1345,-1.6341,0.1734,-23.6875,-30.7500,11.3750,206.3750,24.8125,-144.0625,0
1777068057.045,9.2512,2.8587,-2.5642,-0.0232,-0.4343,-0.0602,-46.6500,30.1500,36.1500,9.1626,-5.6144,-1.0343,0.6392,0.4021,0.4722,-52.9500,9.4500,3.0000,3.2900,-7.3600,-6.4700,0.7461,-1.4573,0.3927,-22.5625,-32.2500,11.8750,206.7500,24.3125,-144.7500,0
1777068057.050,9.2512,2.8587,-2.5642,-0.0232,-0.4343,-0.0602,-46.6500,30.1500,36.1500,9.4332,-7.0916,-0.6057,-0.3579,0.4072,0.5004,-52.9500,9.4500,3.0000,3.2900,-7.3600,-6.4700,0.7461,-1.4573,0.3927,-22.5625,-32.2500,11.8750,206.7500,24.3125,-144.7500,0
1777068057.055,8.5928,1.7573,-2.8036,-0.0261,-0.5276,-0.0813,-46.8000,30.3000,33.4500,9.4332,-7.0916,-0.6057,-0.3579,0.4072,0.5004,-53.8500,10.0500,2.8500,6.2400,-0.6000,-5.8600,0.0938,-0.8858,0.3403,-22.5625,-32.2500,11.8750,207.0625,24.0000,-145.0000,0
1777068057.060,8.5928,1.7573,-2.8036,-0.0261,-0.5276,-0.0813,-46.8000,30.3000,33.4500,8.2744,-5.8466,-0.3328,-1.4869,0.5049,0.4660,-53.8500,10.0500,2.8500,6.2400,-0.6000,-5.8600,-0.0665,-0.8388,0.9239,-22.5625,-32.2500,11.8750,207.7500,23.8750,-145.3125,0
1777068057.066,8.7125,1.0367,-3.1220,-0.0280,-0.4034,-0.0517,-43.6500,31.2000,34.9500,8.2744,-5.8466,-0.3328,-1.4869,0.5049,0.4660,-52.5000,8.7000,1.9500,8.1300,3.2500,-6.7300,-0.0665,-0.8388,0.9239,-22.5625,-32.2500,11.8750,208.5625,23.8125,-145.7500,0
1777068057.075,9.2320,0.4142,-2.8132,-0.2017,-0.2302,0.0277,-45.7500,30.3000,34.8000,8.7652,-3.4764,0.4645,-2.3579,0.5340,0.4535,-52.5000,8.7000,1.9500,5.8100,-0.0800,-7.6100,0.1865,-0.9556,1.1716,-22.5625,-32.2500,11.8750,208.5625,23.8125,-145.7500,0
1777068057.085,8.6263,-0.1724,-1.8268,-0.4679,-0.2747,0.0959,-46.5000,31.5000,34.5000,9.2512,-1.5850,0.1437,-2.8861,0.5508,0.4722,-53.7000,6.0000,4.5000,4.9800,0.1000,-7.1200,0.1418,-0.9207,0.9828,-22.5625,-32.2500,11.8750,209.1875,23.6875,-146.1875,0
1777068057.090,8.6263,-0.1724,-1.8268,-0.4679,-0.2747,0.0959,-46.5000,31.5000,34.5000,9.4044,0.0862,0.4142,-2.8978,0.4908,0.5153,-53.7000,6.0000,4.5000,4.9800,0.1000,-7.1200,0.1418,-0.9207,0.9828,-22.5625,-32.2500,11.8750,210.0625,23.6250,-146.5000,0
1777068057.095,8.5401,-0.2490,-0.8068,-0.7232,-0.3381,0.2270,-46.5000,31.5000,34.5000,9.4044,0.0862,0.4142,-2.8978,0.4908,0.5153,-53.7000,6.0000,4.5000,4.7700,1.4300,-7.0800,-0.0240,-0.8519,1.0341,-21.5000,-31.5000,13.8750,210.0625,23.6250,-146.5000,0
1777068057.100,8.5401,-0.2490,-0.8068,-0.7232,-0.3381,0.2270,-46.5000,31.5000,34.5000,10.1610,1.9058,-0.5411,-2.1861,0.3805,0.5542,-53.7000,6.0000,4.5000,4.7700,1.4300,-7.0800,-0.0240,-0.8519,1.0341,-21.5000,-31.5000,13.8750,210.9375,23.6250,-146.8125,0
1777068057.105,8.8849,-0.2107,-0.8882,-0.9521,-0.1085,0.3352,-46.0500,28.5000,32.4000,10.1610,1.9058,-0.5411,-2.1861,0.3805,0.5542,-53.7000,7.2000,6.0000,5.0800,1.3200,-7.9000,-0.0971,-0.8116,1.3025,-21.5000,-31.5000,13.8750,210.9375,23.6250,-146.8125,0
1777068057.110,8.8849,-0.2107,-0.8882,-0.9521,-0.1085,0.3352,-46.0500,28.5000,32.4000,9.1339,2.0016,-0.3543,-2.1432,0.4239,0.5740,-53.7000,7.2000,6.0000,5.0800,1.3200,-7.9000,-0.1702,-0.8508,1.4661,-21.5000,-31.5000,13.8750,211.9375,23.6875,-147.1250,0
1777068057.116,9.4164,0.3496,-0.5363,-1.1122,-0.4159,0.4191,-44.8500,28.2000,31.0500,8.7963,1.8124,-0.2107,-2.1432,0.4239,0.5740,-53.4000,6.1500,7.6500,5.1500,1.7600,-8.1500,-0.1702,-0.8508,1.4661,-21.5000,-31.5000,13.8750,212.9375,23.7500,-147.4375,0
1777068057.125,9.2009,1.0463,-0.0239,-1.3763,-0.5113,0.4093,-44.1000,28.6500,31.0500,9.2033,1.5179,-0.3328,-1.6300,0.4884,0.5748,-53.4000,5.4000,6.6000,5.0100,2.6800,-8.0700,-0.2487,-0.9348,1.5173,-21.5000,-31.5000,13.8750,213.9375,23.6875,-147.7500,0
1777068057.135,9.2081,1.6233,-0.2514,-1.4514,-0.5324,0.3669,-43.6500,28.6500,33.6000,9.3781,0.6967,-0.1796,-1.1820,0.5135,0.5953,-53.8500,4.9500,6.9000,4.7200,3.0800,-7.8700,-0.2018,-1.0014,1.5119,-21.5000,-31.5000,13.8750,213.9375,23.6875,-147.7500,0
1777068057.140,9.2081,1.6233,-0.2514,-1.4514,-0.5324,0.3669,-43.6500,28.6500,33.6000,9.3781,0.6967,-0.1796,-0.9078,0.4751,0.6075,-53.8500,4.9500,6.9000,4.7200,3.0800,-7.8700,-0.2018,-1.0014,1.5119,-21.5000,-31.5000,13.8750,215.0625,23.6250,-148.1250,0
1777068057.145,8.8681,1.9609,-0.4693,-1.5359,-0.4207,0.3608,-43.6500,28.6500,33.6000,9.9886,0.0048,-0.2083,-0.5689,0.4082,0.6419,-53.8500,4.9500,6.9000,3.3500,3.0100,-7.4100,-0.0862,-0.9948,1.4257,-22.5625,-30.7500,16.1875,215.0625,23.6250,-148.1250,0
1777068057.150,8.8681,1.9609,-0.4693,-1.5359,-0.4207,0.3608,-43.6500,28.6500,33.6000,9.9886,0.0048,-0.2083,-0.5689,0.4082,0.6419,-53.8500,4.9500,6.9000,3.3500,3.0100,-7.4100,-0.0862,-0.9948,1.4257,-22.5625,-30.7500,16.1875,215.8750,23.6250,-148.5000,0
1777068057.155,8.9759,2.0590,-0.4764,-1.4919,-0.3837,0.3898,-45.4500,27.1500,32.8500,9.3996,-0.2394,-0.2658,-0.5081,0.4165,0.6875,-52.5000,5.5500,6.7500,3.0700,3.1900,-7.4900,0.0109,-0.8607,1.2741,-22.5625,-30.7500,16.1875,215.8750,23.6250,-148.5000,0
1777068057.160,8.9759,2.0590,-0.4764,-1.3057,-0.3597,0.4037,-45.4500,27.1500,32.8500,9.3996,-0.2394,-0.2658,-0.5081,0.4165,0.6875,-52.5000,5.5500,6.7500,3.0700,3.1900,-7.4900,0.0807,-0.6436,1.0570,-22.5625,-30.7500,16.1875,216.5625,23.6250,-148.8750,0
1777068057.166,9.0549,2.1668,-0.4908,-1.3057,-0.3597,0.4037,-45.4500,28.2000,33.3000,9.5265,-0.2993,-0.4381,-0.6254,0.4319,0.7408,-52.5000,5.5500,6.7500,3.1600,3.5200,-7.6500,0.0807,-0.6436,1.0570,-22.5625,-30.7500,16.1875,217.0625,23.6250,-149.1250,0
1777068057.175,8.9112,2.4541,-0.4357,-1.2446,-0.3088,0.4104,-45.4500,27.4500,33.9000,9.8569,0.0431,-0.5674,-0.5542,0.4056,0.8047,-53.7000,4.8000,7.9500,3.3700,3.7600,-8.2500,0.1211,-0.4767,0.7734,-22.5625,-30.7500,16.1875,217.0625,23.6250,-149.1250,0
1777068057.185,9.2775,2.7270,-0.3496,-1.2081,-0.2057,0.4120,-45.4500,26.7000,33.6000,9.9527,0.3974,-0.7278,-0.5132,0.3928,0.8418,-53.7000,4.8000,7.9500,3.1200,3.5800,-8.2800,0.2225,-0.3905,0.4734,-22.5625,-30.7500,16.1875,217.3750,23.5625,-149.4375,0
1777068057.190,9.3637,2.7366,0.0215,-1.2023,-0.3227,0.4109,-45.4500,26.7000,33.6000,9.9527,0.3974,-0.7278,-0.5132,0.3928,0.8418,-52.9500,5.2500,8.7000,3.1200,3.5800,-8.2800,0.2225,-0.3905,0.4734,-22.5625,-30.7500,16.1875,217.3750,23.5625,-149.4375,0
1777068057.195,9.3637,2.7366,0.0215,-1.2023,-0.3227,0.4109,-47.4000,27.4500,33.3000,10.0987,0.3639,-0.4621,-0.3493,0.3320,0.8612,-53.2500,3.3000,8.2500,2.6600,3.4200,-8.3100,0.2618,-0.3076,0.2334,-23.6875,-28.5625,16.5625,217.6875,23.5000,-149.6250,0
1777068057.200,9.1842,2.6839,0.2227,-1.0725,-0.4303,0.4277,-47.4000,27.4500,33.3000,10.0987,0.3639,-0.4621,-0.3493,0.3320,0.8612,-53.2500,3.3000,8.2500,2.6600,3.4200,-8.3100,0.2618,-0.3076,0.2334,-23.6875,-28.5625,16.5625,217.6875,23.5000,-149.6250,0
1777068057.205,9.1842,2.6839,0.2227,-1.0725,-0.4303,0.4277,-47.4000,27.4500,33.3000,9.9000,0.1700,-0.3352,-0.1865,0.2864,0.8609,-53.2500,3.3000,8.2500,2.3400,3.4600,-8.3200,0.3829,-0.1756,0.1124,-23.6875,-28.5625,16.5625,217.7500,23.4375,-149.8750,0
1777068057.210,8.7460,2.4373,0.0646,-1.0086,-0.4074,0.4572,-47.4000,27.4500,33.3000,9.9000,0.1700,-0.3352,-0.1865,0.2864,0.8609,-54.0000,2.1000,9.3000,2.3400,3.4600,-8.3200,0.4723,-0.0905,0.1134,-23.6875,-28.5625,16.5625,217.7500,23.4375,-150.1875,0
1777068057.216,8.7460,2.4373,0.0646,-1.0086,-0.4074,0.4572,-46.5000,25.8000,33.7500,9.8258,-0.2131,-0.1580,-0.0765,0.2140,0.8364,-53.4000,3.0000,8.1000,2.2200,3.1200,-8.5100,0.4723,-0.0905,0.1134,-23.6875,-28.5625,16.5625,217.8125,23.4375,-150.5000,0
1777068057.225,9.1243,2.2769,-0.6464,-0.8980,-0.2595,0.5033,-46.0500,24.7500,33.0000,9.8090,-0.4310,-0.3017,-0.0597,0.1628,0.8007,-53.7000,3.3000,8.2500,2.5800,3.3800,-8.9000,0.4451,-0.0524,0.1473,-23.6875,-28.5625,16.5625,217.8125,23.4375,-150.5000,0
1777068057.235,9.5098,2.5498,-0.6632,-0.7789,-0.3405,0.5644,-46.2000,25.2000,33.9000,9.8689,-0.4453,-0.3519,-0.1831,0.1183,0.7735,-53.7000,3.3000,8.2500,3.1600,3.8900,-9.1500,0.4189,-0.1091,0.1833,-23.6875,-28.5625,16.5625,217.8750,23.4375,-150.7500,0
1777068057.240,9.6869,3.0694,-0.6273,-0.7194,-0.4386,0.6067,-47.5500,25.8000,33.0000,10.1993,-0.6536,-0.6129,-0.1831,0.1183,0.7735,-53.7000,3.3000,8.2500,3.1600,3.8900,-9.1500,0.4189,-0.1091,0.1833,-23.6875,-28.5625,16.5625,218.0000,23.3750,-151.0625,0
1777068057.245,9.6869,3.0694,-0.6273,-0.7194,-0.4386,0.6067,-47.5500,25.8000,33.0000,10.1993,-0.6536,-0.6129,-0.3624,0.0823,0.7629,-53.7000,3.3000,8.2500,3.0600,3.8700,-8.9400,0.4276,-0.2683,0.2553,-24.7500,-27.5000,17.7500,218.0000,23.3750,-151.0625,0
1777068057.250,9.5385,3.5171,-0.7446,-0.6734,-0.5081,0.6360,-47.5500,25.8000,33.0000,10.3286,-0.5459,-0.5890,-0.3624,0.0823,0.7629,-54.0000,1.6500,10.5000,3.0600,3.8700,-8.9400,0.4276,-0.2683,0.2553,-24.7500,-27.5000,17.7500,218.0000,23.3750,-151.0625,0
1777068057.255,9.5385,3.5171,-0.7446,-0.6734,-0.5081,0.6360,-47.5500,25.8000,33.0000,10.3286,-0.5459,-0.5890,-0.4964,0.0546,0.7642,-54.0000,1.6500,10.5000,3.0200,3.6700,-8.7700,0.4200,-0.3840,0.3425,-24.7500,-27.5000,17.7500,218.1875,23.2500,-151.4375,0
1777068057.262,9.5505,3.5913,-1.1301,-0.6299,-0.4882,0.6440,-46.2000,25.2000,32.8500,10.2544,-0.2945,-0.7230,-0.6686,0.0346,0.7751,-54.7500,0.4500,9.0000,2.9900,3.7800,-8.4000,0.3785,-0.4222,0.4232,-24.7500,-27.5000,17.7500,218.4375,23.1875,-151.7500,0
1777068057.267,9.5505,3.5913,-1.1301,-0.6350,-0.4551,0.6451,-46.2000,25.2000,32.8500,10.2544,-0.2945,-0.7230,-0.6686,0.0346,0.7751,-54.7500,2.1000,9.3000,2.9900,3.7800,-8.4000,0.3785,-0.4222,0.4232,-24.7500,-27.5000,17.7500,218.7500,23.0625,-152.1250,0
1777068057.275,9.4260,3.5458,-1.6448,-0.6350,-0.4551,0.6451,-45.7500,25.0500,33.0000,10.2185,-0.1437,-0.9146,-0.8170,0.0354,0.7805,-54.7500,2.1000,9.3000,3.3500,4.0900,-8.0400,0.2967,-0.4342,0.4789,-24.7500,-27.5000,17.7500,218.7500,23.0625,-152.1250,0
1777068057.285,9.4308,3.4165,-2.1261,-0.6323,-0.3840,0.6499,-46.6500,25.2000,32.8500,10.1921,0.1963,-1.1779,-0.9249,0.0293,0.7626,-53.4000,2.7000,7.6500,3.5000,4.3100,-7.8600,0.2116,-0.4254,0.4920,-24.7500,-27.5000,17.7500,219.0000,23.0000,-152.3750,0
1777068057.290,9.2751,3.3567,-2.4349,-0.5415,-0.4365,0.6297,-48.0000,24.1500,32.5500,10.0389,0.5818,-1.2546,-0.9822,0.0432,0.7466,-54.7500,-0.1500,10.5000,3.5000,4.3100,-7.8600,0.2116,-0.4254,0.4920,-24.7500,-27.5000,17.7500,219.3125,22.9375,-152.5625,0
1777068057.295,9.2751,3.3567,-2.4349,-0.5415,-0.4365,0.6297,-48.0000,24.1500,32.5500,10.0389,0.5818,-1.2546,-0.9822,0.0432,0.7466,-54.7500,-0.1500,10.5000,3.6600,4.4400,-7.6500,0.1516,-0.3960,0.4865,-25.1875,-27.1875,17.7500,219.3125,22.9375,-152.5625,0
1777068057.300,9.4523,3.4405,-2.4301,-0.4762,-0.4186,0.5931,-47.5500,24.0000,32.4000,10.0916,0.6632,-1.0439,-0.9252,0.0517,0.7157,-54.6000,-0.3000,9.6000,3.6600,4.4400,-7.6500,0.1516,-0.3960,0.4865,-25.1875,-27.1875,17.7500,219.6250,22.8750,-152.7500,0
1777068057.305,9.4523,3.4405,-2.4301,-0.4402,-0.4250,0.5646,-47.5500,24.0000,32.4000,10.0916,0.6632,-1.0439,-0.9252,0.0517,0.7157,-54.6000,-0.3000,9.6000,3.9700,4.8100,-7.4300,0.0905,-0.3371,0.4680,-25.1875,-27.1875,17.7500,219.6250,22.8750,-152.7500,0
1777068057.310,9.5936,3.2322,-1.9848,-0.4402,-0.4250,0.5646,-47.5500,24.0000,32.4000,9.8617,0.7733,-0.9074,-0.8556,0.0999,0.6952,-54.6000,-0.3000,9.6000,3.9700,4.8100,-7.4300,0.0491,-0.2793,0.4538,-25.1875,-27.1875,17.7500,219.8750,22.8750,-152.9375,0
1777068057.316,9.4475,2.9544,-1.9680,-0.4692,-0.3869,0.5452,-47.5500,24.0000,32.4000,9.8617,0.7733,-0.9074,-0.8556,0.0999,0.6952,-54.1500,-0.3000,9.6000,3.9400,5.1100,-7.3200,0.0491,-0.2793,0.4538,-25.1875,-27.1875,17.7500,220.1875,22.8750,-153.0625,0
1777068057.325,9.4284,2.7438,-1.8675,-0.5023,-0.3848,0.5542,-47.1000,22.8000,33.4500,9.8713,0.8428,-0.8452,-0.8082,0.0981,0.6672,-54.1500,-0.7500,11.4000,3.8500,5.1600,-7.2500,0.0175,-0.2531,0.4538,-25.1875,-27.1875,17.7500,220.1875,22.8750,-153.0625,0
1777068057.335,9.2584,2.7701,-1.7119,-0.5265,-0.3616,0.5377,-48.0000,24.1500,34.6500,9.7659,1.0127,-0.7877,-0.7634,0.1023,0.6281,-55.0500,-2.2500,10.3500,3.7400,5.0200,-7.2700,-0.0338,-0.2553,0.4549,-25.1875,-27.1875,17.7500,220.5000,22.8125,-153.1875,0
1777068057.340,9.2584,2.7701,-1.7119,-0.5265,-0.3616,0.5377,-47.1000,23.2500,33.0000,9.8019,1.0271,-0.8475,-0.7370,0.1005,0.6054,-54.7500,-0.9000,10.5000,3.7400,5.0200,-7.2700,-0.0338,-0.2553,0.4549,-25.1875,-27.1875,17.7500,220.5000,22.8125,-153.1875,0
1777068057.345,9.0477,2.8874,-1.4581,-0.5950,-0.3182,0.5196,-47.1000,23.2500,33.0000,9.8019,1.0271,-0.8475,-0.7370,0.1005,0.6054,-54.7500,-0.9000,10.5000,3.2300,5.2400,-7.2800,-0.1058,-0.2563,0.4407,-25.1875,-26.0000,20.5625,220.7500,22.8125,-153.2500,0
1777068057.350,9.0477,2.8874,-1.4581,-0.5950,-0.3182,0.5196,-48.3000,21.7500,34.2000,9.7899,1.0606,-0.9313,-0.6832,0.0927,0.5905,-54.0000,-0.4500,9.7500,3.2300,5.2400,-7.2800,-0.1058,-0.2563,0.4407,-25.1875,-26.0000,20.5625,220.7500,22.8125,-153.2500,0
1777068057.355,9.0884,2.9688,-1.4772,-0.6390,-0.2870,0.5009,-48.3000,21.7500,34.2000,9.7899,1.0606,-0.9313,-0.6832,0.0927,0.5905,-54.0000,-0.4500,9.7500,3.1100,5.2900,-7.3900,-0.1407,-0.2662,0.4309,-25.1875,-26.0000,20.5625,221.0625,22.8125,-153.2500,0
1777068057.361,9.0884,2.9688,-1.4772,-0.6390,-0.2870,0.5009,-48.3000,21.7500,34.2000,9.8043,0.9266,-0.9577,-0.6267,0.0829,0.5812,-54.1500,-1.5000,10.6500,3.1900,5.2900,-7.5400,-0.1265,-0.2596,0.4276,-25.1875,-26.0000,20.5625,221.3125,22.7500,-153.3125,0
1777068057.366,9.0549,3.1795,-1.4653,-0.6579,-0.2817,0.4970,-48.3000,21.7500,34.2000,9.7659,0.9912,-1.0080,-0.6137,0.0797,0.5820,-54.1500,-1.5000,10.6500,3.1900,5.2900,-7.5400,-0.1265,-0.2596,0.4276,-25.1875,-26.0000,20.5625,221.6250,22.7500,-153.4375,0
1777068057.376,8.8633,3.2944,-1.7238,-0.6462,-0.2707,0.4852,-47.5500,21.3000,33.7500,9.8043,0.8954,-1.0798,-0.6411,0.0663,0.5732,-54.4500,-2.1000,8.7000,3.0600,5.1200,-7.5400,-0.0349,-0.2683,0.4461,-25.1875,-26.0000,20.5625,221.6250,22.7500,-153.4375,0
1777068057.385,8.9423,3.1723,-1.3815,-0.6286,-0.2771,0.4682,-47.5500,21.0000,34.5000,9.9383,0.6464,-0.8547,-0.5961,0.0413,0.5556,-54.4500,-2.1000,8.7000,3.0700,4.8200,-7.6100,0.0633,-0.2749,0.4941,-25.1875,-26.0000,20.5625,221.9375,22.7500,-153.5625,0
1777068057.390,8.9423,3.1723,-1.3815,-0.6286,-0.2771,0.4682,-48.3000,21.3000,33.4500,9.9383,0.6464,-0.8547,-0.5961,0.0413,0.5556,-53.4000,-4.2000,10.6500,3.0700,4.8200,-7.6100,0.0633,-0.2749,0.4941,-25.1875,-26.0000,20.5625,222.2500,22.7500,-153.8125,0
1777068057.395,9.1937,3.0335,-1.0319,-0.6283,-0.2931,0.4770,-48.3000,21.3000,33.4500,9.8234,0.6416,-0.7470,-0.5513,0.0250,0.5404,-53.4000,-4.2000,10.6500,3.0400,5.0200,-7.5900,0.1287,-0.2683,0.5411,-25.5000,-25.6875,21.7500,222.2500,22.7500,-153.8125,0
1777068057.400,9.1937,3.0335,-1.0319,-0.6283,-0.2931,0.4770,-46.8000,21.3000,35.2500,9.8234,0.6416,-0.7470,-0.5513,0.0250,0.5404,-53.4000,-4.2000,10.6500,3.0400,5.0200,-7.5900,0.1287,-0.2683,0.5411,-25.5000,-25.6875,21.7500,222.2500,22.7500,-153.8125,0
1777068057.405,9.0740,2.8252,-1.1133,-0.6843,-0.3336,0.4804,-46.8000,21.3000,35.2500,9.6438,0.6823,-0.8643,-0.5468,-0.0043,0.5220,-53.4000,-4.2000,10.6500,2.7000,5.2400,-7.4600,0.1833,-0.2716,0.5694,-25.5000,-25.6875,21.7500,222.5625,22.7500,-154.0625,0
1777068057.410,9.0740,2.8252,-1.1133,-0.6843,-0.3336,0.4804,-46.9500,20.7000,32.1000,9.6438,0.6823,-0.8643,-0.5468,-0.0043,0.5220,-55.0500,-3.9000,9.9000,2.7000,5.2400,-7.4600,0.2247,-0.2673,0.5640,-25.5000,-25.6875,21.7500,222.8750,22.7500,-154.3125,0
1777068057.416,8.8609,2.6336,-1.2234,-0.7168,-0.3088,0.4970,-46.9500,20.7000,32.1000,9.5912,0.7350,-0.8116,-0.5188,-0.0205,0.4991,-55.0500,-3.9000,9.9000,2.5600,5.3200,-7.3900,0.2247,-0.2673,0.5640,-25.5000,-25.6875,21.7500,223.1875,22.7500,-154.5625,0
1777068057.426,8.9543,2.7438,-1.2163,-0.7237,-0.2678,0.5057,-46.9500,20.7000,32.1000,9.5361,1.0702,-0.8882,-0.4586,-0.0437,0.4767,-55.5000,-2.4000,9.7500,2.3800,5.5100,-7.1700,0.2433,-0.2345,0.5072,-25.5000,-25.6875,21.7500,223.1875,22.7500,-154.5625,0
1777068057.436,8.7652,2.9137,-1.0894,-0.7552,-0.1988,0.5111,-47.5500,19.8000,34.2000,9.5050,1.3024,-0.8787,-0.3384,-0.0624,0.4596,-52.3500,-3.0000,11.1000,2.2600,5.6100,-6.9700,0.2618,-0.1898,0.4429,-25.5000,-25.6875,21.7500,223.4375,22.7500,-154.8125,0
1777068057.440,8.7652,2.9137,-1.0894,-0.7552,-0.1988,0.5111,-46.6500,18.4500,34.9500,9.5050,1.3024,-0.8787,-0.3384,-0.0624,0.4596,-53.1000,-3.0000,9.9000,2.2600,5.6100,-6.9700,0.2618,-0.1898,0.4429,-25.5000,-25.6875,21.7500,223.4375,22.7500,-154.8125,0
1777068057.446,8.6886,2.8683,-1.0606,-0.7309,-0.1194,0.5167,-46.6500,18.4500,34.9500,9.2943,1.4365,-0.6584,-0.1793,-0.0853,0.4437,-53.1000,-3.0000,9.9000,2.5000,5.7800,-7.0200,0.2618,-0.1374,0.3643,-26.6875,-25.6875,21.7500,223.6250,22.7500,-155.0625,0
1777068057.451,8.6886,2.8683,-1.0606,-0.6923,-0.0437,0.5193,-46.6500,18.4500,33.6000,9.2943,1.4365,-0.6584,-0.1793,-0.0853,0.4437,-53.1000,-3.0000,9.9000,2.5000,5.7800,-7.0200,0.2618,-0.1374,0.3643,-26.6875,-25.6875,21.7500,223.6250,22.7500,-155.0625,0
1777068057.456,8.4683,2.8898,-1.2282,-0.6923,-0.0437,0.5193,-46.6500,18.4500,33.6000,9.2416,1.6520,-0.8595,-0.0456,-0.0941,0.4250,-53.1000,-3.0000,9.9000,2.7100,5.9800,-6.9600,0.2454,-0.1058,0.2258,-26.6875,-25.6875,21.7500,223.6875,22.7500,-155.2500,0
1777068057.462,8.5473,2.8898,-1.2833,-0.6243,0.0226,0.5164,-47.8500,18.0000,32.7000,9.3134,1.5754,-0.9864,0.1282,-0.1007,0.4058,-53.8500,-4.6500,11.1000,2.6300,5.9300,-6.7300,0.2323,-0.1156,0.0415,-26.6875,-25.6875,21.7500,223.6875,22.7500,-155.4375,0
1777068057.467,8.5473,2.8898,-1.2833,-0.6243,0.0226,0.5164,-47.8500,18.0000,32.7000,9.3134,1.5754,-0.9864,0.1282,-0.1007,0.4058,-53.8500,-4.6500,11.1000,2.6300,5.9300,-6.7300,0.2323,-0.1156,0.0415,-26.6875,-25.6875,21.7500,223.6250,22.6250,-155.5000,0
1777068057.476,8.7317,3.0047,-1.5395,-0.5478,0.0842,0.4756,-47.8500,18.0000,32.7000,9.3326,1.5060,-0.9266,0.3086,-0.0901,0.3869,-53.8500,-4.6500,11.1000,2.5700,5.8600,-6.3800,0.2323,-0.0753,-0.1494,-26.6875,-25.6875,21.7500,223.4375,22.5625,-155.5625,0
1777068057.486,8.6862,3.2753,-1.4078,-0.4357,0.1114,0.4271,-48.0000,19.2000,33.9000,9.1171,1.3527,-0.9218,0.4383,-0.0637,0.3789,-55.2000,-4.5000,10.5000,2.7200,5.8200,-6.1800,0.2323,-0.0022,-0.3207,-26.6875,-25.6875,21.7500,223.4375,22.5625,-155.5625,0
1777068057.491,8.4683,3.3926,-1.4150,-0.2811,0.1673,0.3912,-48.7500,17.7000,34.3500,9.2320,1.2067,-0.9481,0.4383,-0.0637,0.3789,-55.9500,-4.0500,10.8000,2.7200,5.8200,-6.1800,0.2323,-0.0022,-0.3207,-26.6875,-25.6875,21.7500,223.1250,22.5000,-155.6250,0
1777068057.496,8.4683,3.3926,-1.4150,-0.2811,0.1673,0.3912,-47.4000,17.4000,34.6500,9.2320,1.2067,-0.9481,0.5321,-0.0624,0.3627,-55.9500,-4.0500,10.8000,2.8500,5.7400,-6.0300,0.2345,0.0873,-0.4756,-27.0000,-23.7500,21.6875,223.1250,22.5000,-155.6250,0
1777068057.501,8.5784,3.4405,-1.2881,-0.1801,0.2361,0.3781,-47.4000,17.4000,34.6500,9.2344,1.0774,-0.6895,0.6193,-0.0450,0.3285,-55.0500,-3.0000,11.1000,2.8500,5.7400,-6.0300,0.2345,0.0873,-0.4756,-27.0000,-23.7500,21.6875,222.7500,22.5000,-155.5625,0
1777068057.506,8.5784,3.4405,-1.2881,-0.1801,0.2361,0.3781,-47.5500,17.5500,34.5000,9.2344,1.0774,-0.6895,0.6193,-0.0450,0.3285,-55.0500,-3.0000,11.1000,2.7700,5.6600,-6.0100,0.2476,0.2051,-0.5967,-27.0000,-23.7500,21.6875,222.7500,22.5000,-155.5625,0
1777068057.511,8.6838,3.5362,-1.2809,-0.1148,0.2793,0.3560,-47.5500,17.5500,34.5000,9.1913,1.0415,-0.6847,0.7024,-0.0360,0.2942,-55.0500,-3.9000,10.6500,2.7700,5.6600,-6.0100,0.2542,0.3371,-0.6959,-27.0000,-23.7500,21.6875,222.2500,22.5000,-155.5625,0
1777068057.517,8.6838,3.5362,-1.2809,-0.1148,0.2793,0.3560,-48.6000,17.2500,32.7000,9.1913,1.0415,-0.6847,0.7024,-0.0360,0.2942,-55.0500,-3.9000,10.6500,3.1700,5.6300,-6.0400,0.2542,0.3371,-0.6959,-27.0000,-23.7500,21.6875,221.7500,22.5625,-155.5000,0
1777068057.526,8.6383,3.5745,-1.2426,0.0024,0.3123,0.3432,-48.6000,17.2500,32.7000,9.2464,1.2019,-0.6440,0.7669,-0.0274,0.2630,-55.8000,-4.6500,10.3500,3.1800,5.7700,-6.0100,0.2683,0.4429,-0.7745,-27.0000,-23.7500,21.6875,221.7500,22.5625,-155.5000,0
1777068057.536,8.6431,3.6512,-0.9433,0.1551,0.3898,0.3357,-46.9500,16.6500,34.6500,9.2919,1.1349,-0.6943,0.8364,-0.0226,0.2313,-53.1000,-3.9000,10.6500,3.1800,5.7300,-5.9400,0.3207,0.5214,-0.8203,-27.0000,-23.7500,21.6875,221.1875,22.6250,-155.4375,0
1777068057.541,8.6143,3.5961,-0.9792,0.3083,0.4676,0.3349,-46.9500,16.6500,34.6500,9.3470,1.0415,-0.6153,0.9435,0.0003,0.2070,-53.1000,-3.9000,10.6500,3.1800,5.7300,-5.9400,0.3207,0.5214,-0.8203,-27.0000,-23.7500,21.6875,221.1875,22.6250,-155.4375,0
1777068057.546,8.6143,3.5961,-0.9792,0.3083,0.4676,0.3349,-47.8500,16.5000,34.8000,9.3470,1.0415,-0.6153,0.9435,0.0003,0.2070,-53.1000,-3.9000,10.6500,3.1900,5.4600,-5.8200,0.3720,0.6054,-0.8410,-26.2500,-24.6875,22.0625,220.8750,22.7500,-155.4375,0
1777068057.551,8.5904,3.3662,-1.2809,0.4618,0.5260,0.3347,-47.8500,16.5000,34.8000,9.1842,0.7326,-0.5076,1.0496,0.0312,0.1753,-55.0500,-4.2000,11.1000,3.1900,5.4600,-5.8200,0.3720,0.6054,-0.8410,-26.2500,-24.6875,22.0625,220.3125,22.8750,-155.3750,0
1777068057.556,8.5904,3.3662,-1.2809,0.4618,0.5260,0.3347,-46.9500,15.9000,35.4000,9.1842,0.7326,-0.5076,1.0496,0.0312,0.1753,-55.0500,-4.2000,11.1000,3.2900,5.5000,-5.8300,0.3916,0.7047,-0.8563,-26.2500,-24.6875,22.0625,220.3125,22.8750,-155.3750,0
1777068057.561,8.5688,3.2920,-1.4389,0.6776,0.5929,0.3360,-46.9500,15.9000,35.4000,9.0860,0.6704,-0.4597,1.0853,0.0437,0.1415,-54.7500,-3.6000,9.3000,3.2900,5.5000,-5.8300,0.3872,0.7952,-0.8694,-26.2500,-24.6875,22.0625,219.6875,23.0625,-155.3750,0
1777068057.567,8.2839,3.1651,-1.4437,0.8388,0.6600,0.3166,-48.0000,16.2000,34.6500,9.0908,0.5626,-0.5794,1.0853,0.0437,0.1415,-54.7500,-3.6000,9.3000,3.5600,5.5500,-5.7600,0.3872,0.7952,-0.8694,-26.2500,-24.6875,22.0625,219.0000,23.3125,-155.3125,0
1777068057.576,8.2839,3.1651,-1.4437,0.8388,0.6600,0.3166,-48.0000,16.2000,34.6500,9.0908,0.5626,-0.5794,1.0912,0.0570,0.0946,-53.8500,-2.7000,11.4000,3.5500,5.4200,-5.4400,0.4014,0.8574,-0.8836,-26.2500,-24.6875,22.0625,218.3750,23.5625,-155.2500,0
1777068057.586,8.3366,2.6935,-1.1085,1.1042,0.8031,0.2912,-47.5500,16.8000,34.8000,8.8083,0.3711,-0.1891,1.1093,0.0629,0.0488,-55.2000,-4.0500,9.3000,3.3800,5.1700,-5.3500,0.4254,0.9261,-0.8748,-26.2500,-24.6875,22.0625,218.3750,23.5625,-155.2500,0
1777068057.591,8.5832,2.4565,-0.8452,1.1042,0.8031,0.2912,-47.5500,16.8000,34.8000,8.8083,0.3711,-0.1891,1.1666,0.0751,-0.0067,-56.2500,-4.0500,9.7500,3.3800,5.1700,-5.3500,0.4254,0.9261,-0.8748,-26.2500,-24.6875,22.0625,218.1875,23.8750,-155.1875,0
1777068057.596,8.6957,1.9154,-0.6752,1.1061,0.8759,0.2880,-47.8500,15.3000,34.8000,8.7987,0.1221,0.0048,1.1666,0.0751,-0.0067,-56.2500,-4.0500,9.7500,3.1700,4.9600,-5.2600,0.4222,1.0090,-0.8399,-27.0000,-24.6875,22.5000,218.1875,23.8750,-155.1875,0
1777068057.601,8.6957,1.9154,-0.6752,1.1061,0.8759,0.2880,-47.8500,15.3000,34.8000,8.7987,0.1221,0.0048,1.2223,0.0690,-0.0509,-55.8000,-3.0000,9.9000,3.1700,4.9600,-5.2600,0.4222,1.0090,-0.8399,-27.0000,-24.6875,22.5000,217.5625,24.2500,-155.1250,0
1777068057.606,8.7867,1.4844,-0.6991,1.1199,0.8609,0.2830,-46.2000,17.4000,34.9500,8.8202,-0.2586,-0.1245,1.2223,0.0690,-0.0509,-55.8000,-3.0000,9.9000,3.0600,4.9200,-5.1900,0.3720,1.0777,-0.7930,-27.0000,-24.6875,22.5000,217.5625,24.2500,-155.1250,0
1777068057.611,8.7867,1.4844,-0.6991,1.1199,0.8609,0.2830,-46.2000,17.4000,34.9500,8.8202,-0.2586,-0.1245,1.3046,0.0837,-0.0994,-55.8000,-3.0000,9.9000,3.0600,4.9200,-5.1900,0.2934,1.1366,-0.7145,-27.0000,-24.6875,22.5000,217.0000,24.6250,-155.0000,0
1777068057.617,9.3541,1.2402,-0.8475,1.1074,0.8719,0.2734,-47.1000,17.2500,35.2500,8.7005,-0.3615,0.0718,1.3733,0.1628,-0.1540,-55.8000,-3.0000,9.9000,2.8300,5.0400,-5.6300,0.2934,1.1366,-0.7145,-27.0000,-24.6875,22.5000,216.5000,25.0625,-154.7500,0
1777068057.626,10.0556,0.9457,-1.0846,1.0576,0.8516,0.2718,-46.8000,16.0500,33.7500,9.0166,-0.4525,0.5674,1.0408,0.0842,-0.2550,-56.1000,-3.0000,9.9000,6.4100,6.4200,-9.5400,0.1200,1.1803,-0.7090,-27.0000,-24.6875,22.5000,216.5000,25.0625,-154.7500,0
1777068057.636,10.4028,0.7326,-1.4293,0.9523,0.7839,0.2555,-46.8000,16.0500,33.7500,9.6893,-0.5578,-0.5339,0.7149,0.0759,-0.3520,-56.1000,-3.0000,9.9000,9.0900,6.1600,-10.6200,-0.2629,0.8465,-1.1105,-27.0000,-24.6875,22.5000,215.8125,25.2500,-154.2500,0
1777068057.641,10.4028,0.7326,-1.4293,0.9523,0.7839,0.2555,-46.8000,16.0500,33.7500,9.6893,-0.5578,-0.5339,0.7149,0.0759,-0.3520,-55.8000,-1.9500,11.4000,9.0900,6.1600,-10.6200,-0.2629,0.8465,-1.1105,-27.0000,-24.6875,22.5000,215.8125,25.2500,-154.2500,0
1777068057.646,10.9463,0.5219,-1.9800,0.8132,0.7450,0.1988,-46.6500,17.4000,35.4000,10.1394,0.3950,-0.3400,0.5372,0.0269,-0.4951,-55.8000,-1.9500,11.4000,3.3000,5.3100,-5.4200,-0.6294,-0.1953,-0.5749,-26.6875,-25.3750,22.0625,216.0000,25.0000,-153.8125,0
1777068057.651,10.9463,0.5219,-1.9800,0.8132,0.7450,0.1988,-46.6500,17.4000,35.4000,10.1394,0.3950,-0.3400,0.5372,0.0269,-0.4951,-54.6000,-2.7000,9.1500,3.3000,5.3100,-5.4200,-0.6294,-0.1953,-0.5749,-26.6875,-25.3750,22.0625,216.0000,25.0000,-153.8125,0
1777068057.656,11.7627,0.8619,-2.2960,0.6552,0.7573,0.1085,-46.5000,15.7500,35.2500,10.1969,1.0008,0.2873,0.1319,0.0983,-0.6217,-54.6000,-2.7000,9.1500,4.9600,4.5100,-6.1600,-0.5127,-1.2981,0.2705,-26.6875,-25.3750,22.0625,216.3750,24.4375,-153.6875,0
1777068057.661,11.7627,0.8619,-2.2960,0.6552,0.7573,0.1085,-46.5000,15.7500,35.2500,10.1969,1.0008,0.2873,0.1319,0.0983,-0.6217,-54.7500,-2.1000,9.7500,4.9600,4.5100,-6.1600,-0.3240,-1.3701,0.0949,-26.6875,-25.3750,22.0625,216.6250,23.7500,-153.6875,0
1777068057.667,13.2950,1.4581,-2.7749,0.4668,0.8045,-0.0365,-46.9500,16.2000,34.3500,11.8130,1.1181,-1.7645,-0.3965,0.2438,-0.6694,-54.7500,-2.1000,9.7500,7.9700,6.3500,-6.9000,-0.3240,-1.3701,0.0949,-26.6875,-25.3750,22.0625,216.6875,22.9375,-154.0000,0
1777068057.676,14.2886,2.0734,-2.1907,0.1476,0.7213,-0.2246,-44.8500,16.9500,34.9500,15.1098,0.1269,-4.3048,-0.7986,0.4735,-0.5838,-54.1500,-1.5000,8.8500,2.8000,6.8700,-9.2500,0.2683,-1.5435,-0.1254,-26.6875,-25.3750,22.0625,216.6875,22.9375,-154.0000,0
1777068057.686,13.5799,1.9058,-1.4581,-0.4199,0.5316,-0.3728,-44.8500,16.9500,34.9500,16.8815,-2.4349,-4.7932,-0.7647,0.4045,-0.4474,-54.1500,-1.5000,8.8500,-1.8600,6.1200,-10.1500,0.8639,-1.5119,-0.2291,-26.6875,-25.3750,22.0625,216.6250,22.1250,-154.5625,0
1777068057.691,13.5799,1.9058,-1.4581,-0.4199,0.5316,-0.3728,-44.8500,16.9500,34.9500,16.8815,-2.4349,-4.7932,-0.7647,0.4045,-0.4474,-54.0000,-0.9000,10.0500,-1.8600,6.1200,-10.1500,0.8639,-1.5119,-0.2291,-26.6875,-25.3750,22.0625,216.6250,22.1250,-154.5625,0
1777068057.696,11.4371,0.7685,-1.5203,-0.9260,0.4562,-0.4647,-44.8500,16.9500,34.9500,13.8289,-3.8642,-1.6089,-0.7458,0.2116,-0.3675,-54.0000,-0.9000,10.0500,1.1600,5.3200,-10.0100,0.9785,-0.8083,-0.2378,-26.6875,-27.2500,20.8750,216.8125,21.6875,-155.1250,0
1777068057.701,11.4371,0.7685,-1.5203,-0.9260,0.4562,-0.4647,-44.8500,16.9500,34.9500,13.8289,-3.8642,-1.6089,-0.7458,0.2116,-0.3675,-54.0000,-0.9000,10.0500,1.1600,5.3200,-10.0100,0.9785,-0.8083,-0.2378,-26.6875,-27.2500,20.8750,216.8125,21.6875,-155.1250,0
1777068057.705,9.9216,-0.5578,-2.3511,-1.1786,0.3696,-0.5049,-45.4500,16.6500,34.9500,9.9359,-5.3941,0.5794,-1.1548,0.2014,-0.2694,-54.0000,-0.9000,10.0500,1.7000,4.5400,-8.5300,0.4472,-0.4440,-0.0044,-26.6875,-27.2500,20.8750,216.8125,21.4375,-155.4375,0
1777068057.710,9.9216,-0.5578,-2.3511,-1.1786,0.3696,-0.5049,-45.4500,16.6500,34.9500,9.9359,-5.3941,0.5794,-1.1548,0.2014,-0.2694,-54.0000,-0.9000,10.0500,1.7000,4.5400,-8.5300,0.4472,-0.4440,-0.0044,-26.6875,-27.2500,20.8750,216.8750,21.3750,-155.6250,0
1777068057.717,8.9423,-1.3431,-2.5546,-1.2065,0.3603,-0.5153,-45.1500,17.4000,34.3500,7.1706,-5.8538,0.9816,-1.6675,0.1940,-0.2619,-55.2000,-0.9000,12.0000,3.6500,2.1900,-8.9500,0.2193,-0.2673,0.0916,-26.6875,-27.2500,20.8750,216.9375,21.2500,-155.7500,0
1777068057.726,8.9040,-1.6376,-2.2601,-1.2843,0.3917,-0.4554,-45.7500,15.7500,35.8500,5.7557,-4.3622,0.1508,-1.8263,0.2017,-0.3549,-55.8000,-2.2500,9.9000,3.2100,2.0700,-9.1000,0.1702,-0.2345,0.1058,-26.6875,-27.2500,20.8750,216.9375,21.2500,-155.7500,0
1777068057.736,9.6367,-1.7358,-1.2115,-1.5010,0.4053,-0.3246,-44.5500,17.2500,34.5000,6.9049,-2.1476,0.1748,-1.7083,0.4461,-0.4253,-54.7500,-3.6000,12.3000,3.6700,1.7300,-8.7700,0.0622,-0.1822,0.1309,-26.6875,-27.2500,20.8750,217.0625,21.1875,-155.8125,0
1777068057.741,9.4188,-1.1899,-0.1844,-1.5857,0.3155,-0.1452,-44.5500,17.2500,34.5000,8.9854,0.2466,-0.0814,-1.1271,0.5071,-0.4530,-54.7500,-2.4000,12.3000,3.6700,1.7300,-8.7700,0.0622,-0.1822,0.1309,-26.6875,-27.2500,20.8750,217.0625,21.1875,-155.8125,0
1777068057.746,9.4188,-1.1899,-0.1844,-1.5857,0.3155,-0.1452,-44.5500,17.2500,34.5000,8.9854,0.2466,-0.0814,-1.1271,0.5071,-0.4530,-54.7500,-2.4000,12.3000,3.6800,1.9900,-8.6500,-0.0862,-0.1516,0.1145,-25.8750,-26.5000,23.2500,217.5625,21.1250,-155.8125,0
1777068057.751,9.5888,0.1532,-0.0742,-1.6947,0.2489,0.0573,-44.5500,17.2500,34.5000,10.3094,1.9154,-0.4046,-0.3754,0.4938,-0.4956,-53.7000,-2.1000,11.2500,3.6800,1.9900,-8.6500,-0.0862,-0.1516,0.1145,-25.8750,-26.5000,23.2500,217.5625,21.1250,-155.8125,0
1777068057.756,9.5888,0.1532,-0.0742,-1.6947,0.2489,0.0573,-45.4500,15.1500,35.7000,10.3094,1.9154,-0.4046,-0.3754,0.4938,-0.4956,-53.7000,-2.1000,11.2500,3.1600,2.8700,-8.6600,-0.2062,-0.1374,0.0545,-25.8750,-26.5000,23.2500,217.6250,21.0625,-155.6875,0
1777068057.761,9.6223,2.2386,-0.0599,-1.6001,0.1474,0.2052,-45.1500,15.1500,35.7000,10.4052,3.1963,-0.5004,0.4660,0.5441,-0.5367,-54.7500,-2.4000,12.7500,3.1600,2.8700,-8.6600,-0.3152,-0.1047,-0.0011,-25.8750,-26.5000,23.2500,217.6875,21.0625,-155.5625,0
1777068057.767,9.6223,2.2386,-0.0599,-1.6001,0.1474,0.2052,-45.1500,15.1500,34.9500,10.4052,3.1963,-0.5004,0.4660,0.5441,-0.5367,-54.7500,-2.4000,12.7500,3.3100,3.3600,-8.3200,-0.3152,-0.1047,-0.0011,-25.8750,-26.5000,23.2500,217.6875,21.0000,-155.3750,0
1777068057.776,9.3470,4.1851,0.4788,-1.3845,0.1359,0.2731,-45.7500,14.5500,36.6000,10.3477,3.4788,0.9194,1.1167,0.5478,-0.5833,-54.7500,-2.4000,12.7500,3.2100,5.0400,-7.8200,-0.3523,-0.0753,-0.0327,-25.8750,-26.5000,23.2500,217.6875,21.0000,-155.3750,0
1777068057.786,8.7747,5.6407,1.3264,-0.9713,0.1452,0.2665,-45.7500,16.5000,37.0500,10.1634,2.3607,1.9393,1.4818,0.4575,-0.5931,-53.4000,-1.0500,11.1000,3.3600,4.8600,-7.8900,-0.2880,-0.0709,-0.0447,-25.8750,-26.5000,23.2500,217.6875,20.9375,-155.1875,0
1777068057.791,8.0804,6.2800,2.4708,-0.4565,0.1966,0.2302,-45.7500,16.5000,37.0500,9.4020,0.8475,2.2051,1.4080,0.3352,-0.6174,-53.7000,-0.4500,11.1000,3.3600,4.8600,-7.8900,-0.2880,-0.0709,-0.0447,-25.8750,-26.5000,23.2500,218.0000,20.8750,-155.0625,0
1777068057.796,8.0804,6.2800,2.4708,-0.4565,0.1966,0.2302,-45.7500,16.5000,37.0500,9.4020,0.8475,2.2051,1.4080,0.3352,-0.6174,-53.7000,-0.4500,10.0500,3.6200,5.0700,-7.7300,-0.2193,-0.0622,-0.0393,-25.1875,-26.5000,24.0625,218.0000,20.8750,-155.0625,0
1777068057.801,7.8075,6.1411,3.3184,0.0986,0.2537,0.1535,-45.7500,16.5000,37.0500,8.9687,-0.2993,1.3072,0.9499,0.3072,-0.5985,-53.7000,-0.4500,10.8000,3.6200,5.0700,-7.7300,-0.2193,-0.0622,-0.0393,-25.1875,-26.5000,24.0625,218.0000,20.8750,-155.0625,0
1777068057.806,7.8075,6.1411,3.3184,0.0986,0.2537,0.1535,-45.7500,16.5000,37.0500,8.9687,-0.2993,1.3072,0.9499,0.3072,-0.5985,-53.7000,-0.4500,10.8000,3.8700,5.2700,-7.5300,-0.1331,-0.0436,-0.0338,-25.1875,-26.5000,24.0625,218.0000,20.8750,-155.0000,0
1777068057.811,8.1858,5.6144,3.5291,0.5870,0.3672,0.0743,-50.2500,19.9500,40.0500,9.4571,-1.2330,0.6033,0.2827,0.2998,-0.5478,-53.7000,-0.4500,10.8000,3.8700,5.2700,-7.5300,-0.0044,-0.0818,-0.0327,-25.1875,-26.5000,24.0625,218.0000,20.8125,-155.0000,0
1777068057.817,8.1858,5.6144,3.5291,0.5870,0.3672,0.0743,-50.2500,19.9500,40.0500,10.0772,-0.5650,0.4381,0.2827,0.2998,-0.5478,-55.0500,-1.0500,11.4000,3.6800,4.7100,-7.7100,-0.0044,-0.0818,-0.0327,-25.1875,-26.5000,24.0625,218.0000,20.7500,-155.0625,0
1777068057.826,8.6766,5.2002,3.8355,1.0134,0.3262,0.0858,-51.9000,22.0500,41.5500,10.0604,1.3384,-0.1580,-0.3280,0.2987,-0.4466,-54.0000,-0.1500,11.2500,3.5500,4.4100,-7.9300,0.1014,-0.1178,-0.0327,-25.1875,-26.5000,24.0625,218.0000,20.6875,-155.1250,0
1777068057.837,8.3079,4.2521,4.6855,1.4304,0.4772,0.0394,-55.5000,21.0000,44.4000,9.6031,2.9066,-0.4669,-0.5135,0.2454,-0.3797,-54.4500,-0.4500,13.0500,3.4000,4.2700,-8.1100,0.1527,-0.1320,-0.0349,-25.1875,-26.5000,24.0625,218.0000,20.6875,-155.1250,0
1777068057.841,9.5768,4.7190,3.4596,2.0238,0.2878,-0.0168,-54.7500,22.8000,46.6500,9.6031,2.9066,-0.4669,-0.2380,0.2316,-0.3456,-54.4500,-0.4500,13.0500,3.4000,4.2700,-8.1100,0.1527,-0.1320,-0.0349,-25.1875,-26.5000,24.0625,218.0000,20.6875,-155.1250,0
1777068057.847,9.5768,4.7190,3.4596,2.0238,0.2878,-0.0168,-54.7500,22.8000,46.6500,9.4092,4.0462,-0.2873,0.2510,0.3022,-0.3107,-54.4500,-0.4500,13.0500,3.3900,4.0000,-8.2700,0.1680,-0.1145,-0.0327,-25.1875,-26.8750,22.8750,218.2500,20.6250,-155.2500,0
1777068057.851,8.8753,3.7613,1.6017,1.9481,0.8833,-0.1111,-54.7500,22.8000,46.6500,9.4092,4.0462,-0.2873,0.2510,0.3022,-0.3107,-54.4500,-0.4500,13.0500,3.3900,4.0000,-8.2700,0.1680,-0.1145,-0.0327,-25.1875,-26.8750,22.8750,218.2500,20.6250,-155.2500,0
1777068057.857,8.8753,3.7613,1.6017,1.9481,0.8833,-0.1111,-54.7500,22.8000,46.6500,9.5457,3.5674,0.0479,0.7448,0.3965,-0.2811,-54.4500,1.3500,13.0500,3.3100,4.0100,-8.3300,0.1571,-0.0884,-0.0316,-25.1875,-26.8750,22.8750,218.2500,20.5625,-155.3125,0
1777068057.861,9.3350,3.1316,1.1037,1.9721,0.7402,-0.1290,-54.9000,23.4000,43.9500,9.5457,3.5674,0.0479,0.7448,0.3965,-0.2811,-54.4500,1.3500,13.0500,3.3100,4.0100,-8.3300,0.1331,-0.0535,-0.0316,-25.1875,-26.8750,22.8750,218.1875,20.5000,-155.3750,0
1777068057.867,9.8019,2.2553,0.6345,1.9673,0.5665,-0.1348,-54.9000,23.4000,43.9500,9.7827,2.3128,0.5148,1.1199,0.4088,-0.2667,-54.4500,1.3500,13.0500,3.2800,4.0200,-8.3400,0.1331,-0.0535,-0.0316,-25.1875,-26.8750,22.8750,218.1875,20.5000,-155.4375,0
1777068057.877,9.9455,1.1420,0.2873,1.8381,0.2947,-0.1572,-52.8000,24.9000,42.4500,9.6678,0.7254,0.6273,1.2257,0.3826,-0.2425,-53.8500,-0.3000,11.8500,3.4500,4.0500,-8.2100,0.0960,-0.0142,-0.0229,-25.1875,-26.8750,22.8750,218.1875,20.5000,-155.4375,0
1777068057.887,9.2967,1.9824,1.5347,1.8647,0.3949,-0.1346,-51.4500,25.8000,42.0000,9.5816,-0.3591,0.5650,1.0059,0.3896,-0.2006,-53.4000,0.0000,13.9500,3.4700,4.0100,-8.1900,0.0709,0.0011,-0.0229,-25.1875,-26.8750,22.8750,218.1875,20.5000,-155.5000,0
1777068057.891,9.2967,1.9824,1.5347,1.8647,0.3949,-0.1346,-51.7500,23.7000,41.8500,9.5816,-0.3591,0.5650,1.0059,0.3896,-0.2006,-53.4000,0.0000,13.9500,3.4700,4.0100,-8.1900,0.0709,0.0011,-0.0229,-25.1875,-26.8750,22.8750,218.1875,20.5000,-155.5000,0
1777068057.896,9.3948,2.0806,1.7238,1.8655,0.4109,-0.1879,-51.7500,23.7000,41.8500,9.6462,-0.7135,0.7685,0.5785,0.4135,-0.1596,-54.7500,0.9000,11.2500,3.4500,3.9200,-8.2400,0.0698,0.0044,-0.0229,-25.5000,-26.5000,24.5000,218.5000,20.5000,-155.5000,0
1777068057.901,9.3948,2.0806,1.7238,1.8655,0.4109,-0.1879,-50.8500,22.0500,39.9000,9.6462,-0.7135,0.7685,0.5785,0.4135,-0.1596,-54.7500,0.9000,11.2500,3.4500,3.9200,-8.2400,0.0698,0.0044,-0.0229,-25.5000,-26.5000,24.5000,218.5000,20.5000,-155.5000,0
1777068057.906,10.0963,1.6616,1.4437,1.7299,0.4159,-0.2366,-50.8500,22.0500,39.9000,9.8569,-0.5291,0.8212,0.1868,0.4077,-0.1367,-52.3500,1.0500,11.8500,3.4000,3.9400,-8.2100,0.0644,0.0044,-0.0240,-25.5000,-26.5000,24.5000,218.5000,20.5000,-155.5625,0
1777068057.911,10.0963,1.6616,1.4437,1.7299,0.4159,-0.2366,-50.8500,22.0500,39.9000,9.8569,-0.5291,0.8212,0.1868,0.4077,-0.1367,-52.3500,1.0500,11.8500,3.4000,3.9400,-8.2100,0.0644,0.0044,-0.0240,-25.5000,-26.5000,24.5000,218.5000,20.5000,-155.5625,0
1777068057.917,9.8067,0.5914,1.3647,1.4221,0.3677,-0.2755,-50.8500,22.0500,39.9000,9.9886,0.2658,1.6999,0.0541,0.3709,-0.1402,-52.3500,1.0500,11.8500,3.2700,4.1000,-8.2000,0.0589,0.0065,-0.0218,-25.5000,-26.5000,24.5000,218.5000,20.5000,-155.5625,0
1777068057.923,9.8067,0.5914,1.3647,1.4221,0.3677,-0.2755,-47.1000,19.8000,37.3500,10.0317,0.5411,1.9776,0.0730,0.3365,-0.1346,-53.2500,1.3500,13.5000,3.3800,3.9500,-8.2700,0.0654,0.0044,-0.0164,-25.5000,-26.5000,24.5000,218.4375,20.5000,-155.5625,0
1777068057.928,10.2424,-0.5483,1.2234,1.1511,0.4125,-0.2766,-44.4000,19.9500,34.9500,10.0317,0.5411,1.9776,0.0730,0.3365,-0.1346,-53.2500,1.3500,13.5000,3.3800,3.9500,-8.2700,0.0654,0.0044,-0.0164,-25.5000,-26.5000,24.5000,218.4375,20.5000,-155.6250,0
1777068057.937,10.1610,-1.3360,1.3168,0.8447,0.3901,-0.2414,-44.4000,19.9500,34.9500,10.1299,0.5459,2.2841,0.2268,0.3032,-0.1311,-53.2500,1.3500,13.5000,3.3800,3.8100,-8.3200,0.0654,0.0065,-0.0153,-25.5000,-26.5000,24.5000,218.4375,20.5000,-155.6250,0
1777068057.942,10.1610,-1.3360,1.3168,0.8447,0.3901,-0.2414,-45.1500,20.4000,35.4000,9.9742,0.2155,2.4277,0.2268,0.3032,-0.1311,-53.2500,1.3500,13.5000,3.3800,3.8100,-8.3200,0.0654,0.0065,-0.0153,-25.5000,-27.2500,24.8750,218.6875,20.5000,-155.6250,0
1777068057.947,10.0868,-1.6807,1.7119,0.4218,0.2486,-0.1655,-45.1500,20.4000,35.4000,9.9742,0.2155,2.4277,0.3227,0.2673,-0.1228,-52.6500,0.0000,11.1000,3.4400,3.8400,-8.2500,0.0535,0.0185,-0.0142,-25.5000,-27.2500,24.8750,218.6875,20.5000,-155.6250,0
1777068057.952,10.0868,-1.6807,1.7119,0.4218,0.2486,-0.1655,-44.5500,20.2500,34.8000,10.0437,-0.2634,2.2218,0.3501,0.2068,-0.1106,-52.6500,0.0000,11.1000,3.4400,3.8400,-8.2500,0.0535,0.0185,-0.0142,-25.5000,-27.2500,24.8750,218.6875,20.5000,-155.6250,0
1777068057.957,10.0365,-1.5275,1.7190,-0.0128,0.2393,-0.0775,-44.5500,20.2500,34.8000,10.0437,-0.2634,2.2218,0.3501,0.2068,-0.1106,-52.9500,1.6500,12.3000,3.4900,3.7900,-8.2600,0.0425,0.0240,-0.0109,-25.5000,-27.2500,24.8750,218.6875,20.5000,-155.6250,0
1777068057.962,10.0365,-1.5275,1.7190,-0.0128,0.2393,-0.0775,-44.5500,20.2500,34.8000,9.7492,-0.4549,1.9249,0.2835,0.1697,-0.1069,-52.9500,1.6500,12.3000,3.4900,3.7900,-8.2600,0.0393,0.0240,-0.0098,-25.5000,-27.2500,24.8750,218.6875,20.5000,-155.6250,0
1777068057.968,9.8928,-1.1516,1.7526,-0.4970,0.2062,-0.0032,-44.5500,20.2500,34.8000,9.7492,-0.4549,1.9249,0.2835,0.1697,-0.1069,-53.7000,0.9000,13.5000,3.4500,3.7600,-8.3000,0.0393,0.0240,-0.0098,-25.5000,-27.2500,24.8750,218.6875,20.5000,-155.6250,0
1777068057.977,9.7372,-0.2586,1.9369,-0.8628,0.1809,0.0354,-43.6500,18.9000,34.6500,9.7707,-0.3615,1.9441,0.1871,0.1183,-0.1026,-52.5000,0.4500,12.7500,3.4700,3.7800,-8.2500,0.0305,0.0338,-0.0109,-25.5000,-27.2500,24.8750,218.6875,20.5000,-155.6875,0
1777068057.982,9.7372,-0.2586,1.9369,-0.8628,0.1809,0.0354,-43.6500,18.4500,36.4500,9.6462,-0.1676,1.7813,0.0461,0.1175,-0.0991,-52.5000,0.4500,12.7500,3.4700,3.7800,-8.2500,0.0284,0.0425,-0.0131,-25.5000,-27.2500,24.8750,218.6875,20.5625,-155.6875,0
1777068057.988,10.0173,0.4070,1.8507,-1.0728,0.2233,0.0485,-44.2500,17.5500,37.6500,9.6462,-0.1676,1.7813,0.0461,0.1175,-0.0991,-53.7000,1.3500,12.7500,3.4700,3.7800,-8.2800,0.0284,0.0425,-0.0131,-25.5000,-27.2500,24.8750,218.6875,20.5625,-155.6875,0
1777068057.993,10.1778,1.0319,1.4629,-1.1583,0.1652,0.0416,-44.2500,17.5500,37.6500,9.8857,-0.0503,1.7717,-0.0437,0.0999,-0.0951,-53.7000,1.3500,12.7500,3.4700,3.7800,-8.2800,0.0240,0.0382,-0.0131,-24.3750,-26.5000,24.8750,218.8750,20.5625,-155.6875,0
1777068057.998,10.1778,1.0319,1.4629,-1.1583,0.1652,0.0416,-44.8500,19.9500,39.0000,9.8857,-0.0503,1.7717,-0.0437,0.0999,-0.0951,-52.6500,3.0000,13.6500,3.4800,3.8400,-8.2200,0.0240,0.0382,-0.0131,-24.3750,-26.5000,24.8750,218.8750,20.5625,-155.6875,0
1777068058.007,9.6678,1.4126,1.6568,-1.2063,0.1223,0.0378,-45.3000,19.8000,36.6000,9.8857,-0.0239,1.7765,-0.0898,0.0895,-0.0906,-52.6500,3.0000,13.6500,3.4400,3.9300,-8.1800,0.0185,0.0327,-0.0142,-24.3750,-26.5000,24.8750,218.8125,20.5625,-155.6875,0
1777068058.012,9.6678,1.4126,1.6568,-1.1354,0.2113,0.0306,-45.3000,19.8000,36.6000,9.8809,-0.0622,1.6113,-0.1316,0.0536,-0.0845,-52.6500,3.0000,13.6500,3.4400,3.9300,-8.1800,0.0207,0.0196,-0.0120,-24.3750,-26.5000,24.8750,218.8125,20.5625,-155.6875,0
1777068058.018,9.7372,1.8028,1.5826,-1.1354,0.2113,0.0306,-45.3000,19.8000,36.6000,9.8809,-0.0622,1.6113,-0.1316,0.0536,-0.0845,-52.3500,1.0500,12.1500,3.4800,3.8900,-8.1700,0.0207,0.0196,-0.0120,-24.3750,-26.5000,24.8750,218.8125,20.5625,-155.6875,0
1777068058.026,9.5648,2.1261,1.4341,-0.9521,0.1615,0.0280,-45.3000,19.8000,36.6000,9.8282,-0.0862,1.1349,-0.1583,0.0282,-0.0746,-51.9000,3.0000,12.4500,3.4700,3.8800,-8.1800,0.0207,0.0011,-0.0109,-24.3750,-26.5000,24.8750,218.8125,20.5625,-155.6875,0
1777068058.030,9.5648,2.1261,1.4341,-0.9521,0.1615,0.0280,-47.5500,20.2500,39.4500,9.7707,-0.1508,0.9457,-0.1751,0.0144,-0.0677,-51.9000,3.0000,12.4500,3.4700,3.8800,-8.1800,0.0207,0.0011,-0.0109,-24.3750,-26.5000,24.8750,218.8125,20.5625,-155.6875,0
1777068058.038,9.4954,2.4756,1.2426,-0.7528,0.1785,0.0397,-46.9500,20.4000,40.3500,9.7707,-0.1508,0.9457,-0.1751,0.0144,-0.0677,-52.5000,0.1500,13.5000,3.4300,3.8200,-8.2000,0.0262,-0.0065,-0.0098,-24.3750,-26.5000,24.8750,218.8125,20.5625,-155.6875,0
1777068058.042,9.2536,2.9233,1.1301,-0.5031,0.1260,0.0560,-46.9500,20.4000,40.3500,9.5337,0.1700,0.4621,-0.2334,0.0008,-0.0725,-52.5000,0.1500,13.5000,3.4300,3.8200,-8.2000,0.0262,-0.0065,-0.0098,-24.3750,-26.5000,24.8750,219.1250,20.5625,-155.6875,0
1777068058.048,9.2536,2.9233,1.1301,-0.5031,0.1260,0.0560,-46.5000,20.5500,40.5000,9.3015,0.7326,0.2346,-0.2334,0.0008,-0.0725,-53.1000,1.0500,12.4500,3.3700,3.7500,-8.3000,0.0229,-0.0142,-0.0055,-25.5000,-26.8750,24.5000,219.1250,20.5625,-155.6875,0
1777068058.052,9.0980,3.4022,0.6991,-0.2326,0.1042,0.0584,-46.5000,20.5500,40.5000,9.3015,0.7326,0.2346,-0.2030,0.0061,-0.0773,-53.1000,1.0500,12.4500,3.3700,3.7500,-8.3000,0.0229,-0.0142,-0.0055,-25.5000,-26.8750,24.5000,219.1250,20.5625,-155.6875,0
1777068058.058,9.0980,3.4022,0.6991,-0.2326,0.1042,0.0584,-47.8500,21.7500,42.7500,9.2703,1.3743,0.2418,-0.2030,0.0061,-0.0773,-52.3500,1.9500,12.9000,3.3800,3.8000,-8.2600,0.0098,-0.0109,-0.0033,-25.5000,-26.8750,24.5000,219.1250,20.5625,-155.6875,0
1777068058.062,9.0836,3.8355,0.6153,0.0624,0.1966,0.0376,-47.8500,21.7500,42.7500,9.2703,1.3743,0.2418,-0.0930,0.0280,-0.0834,-52.3500,1.9500,12.9000,3.3800,3.8000,-8.2600,0.0065,-0.0011,0.0033,-25.5000,-26.8750,24.5000,219.1250,20.5625,-155.6875,0
1777068058.068,9.0836,3.8355,0.6153,0.0624,0.1966,0.0376,-47.8500,21.7500,42.7500,9.3781,1.1301,0.3352,0.0767,0.0528,-0.0906,-52.5000,2.1000,13.0500,3.4200,3.8700,-8.2400,0.0065,-0.0011,0.0033,-25.5000,-26.8750,24.5000,219.1250,20.5625,-155.6875,0
1777068058.077,9.1219,3.7757,0.5387,0.3960,0.0922,0.0187,-47.5500,21.7500,43.3500,9.3015,0.9074,0.2011,0.2222,0.0650,-0.0882,-52.5000,2.1000,13.0500,3.4600,3.9600,-8.1800,0.0011,0.0109,-0.0011,-25.5000,-26.8750,24.5000,219.1250,20.5625,-155.6875,0
1777068058.085,9.1123,3.7757,0.7781,0.7943,0.1276,-0.0203,-47.5500,21.7500,43.3500,9.3015,0.9074,0.2011,0.2222,0.0650,-0.0882,-53.2500,3.3000,13.0500,3.4300,3.8700,-8.2400,0.0055,0.0207,-0.0065,-25.5000,-26.8750,24.5000,219.1250,20.5625,-155.6875,0
1777068058.090,9.5289,3.0885,0.6656,1.0227,0.1820,-0.0626,-48.3000,22.0500,44.8500,9.4715,0.4453,0.0239,0.2566,0.1194,-0.0805,-53.2500,3.3000,13.0500,3.4300,3.8700,-8.2400,0.0055,0.0207,-0.0065,-25.5000,-26.8750,24.5000,219.1250,20.5625,-155.6875,0
1777068058.095,9.5289,3.0885,0.6656,1.0227,0.1820,-0.0626,-48.3000,22.0500,44.8500,9.7827,-0.1939,0.3136,0.2566,0.1194,-0.0805,-53.2500,3.3000,13.0500,3.3500,3.8300,-8.2900,0.0055,0.0153,-0.0076,-25.1875,-26.0625,23.2500,219.4375,20.5625,-155.6875,0
1777068058.100,9.7420,2.6887,0.5363,1.0922,0.2305,-0.0855,-47.8500,20.2500,42.0000,9.7827,-0.1939,0.3136,0.2798,0.1545,-0.0663,-53.2500,3.3000,13.0500,3.3500,3.8300,-8.2900,0.0055,0.0153,-0.0076,-25.1875,-26.0625,23.2500,219.4375,20.6250,-155.6875,0
1777068058.108,9.7420,2.6887,0.5363,1.0922,0.2305,-0.0855,-48.6000,21.3000,41.2500,9.7133,-0.8667,0.7709,0.2193,0.1788,-0.0799,-53.1000,1.5000,11.4000,3.3400,3.9200,-8.2900,-0.0055,0.0229,-0.0055,-25.1875,-26.0625,23.2500,219.4375,20.6250,-155.6875,0
1777068058.116,9.8019,1.4820,0.3112,1.2335,0.3144,-0.1130,-48.0000,21.4500,41.1000,9.8928,-0.4621,1.7095,0.1921,0.1719,-0.0807,-52.3500,1.0500,12.1500,3.3700,3.8800,-8.2800,-0.0262,0.0338,-0.0011,-25.1875,-26.0625,23.2500,219.4375,20.6250,-155.6250,0
1777068058.121,10.4435,0.6943,-0.0838,1.3272,0.2963,-0.0959,-48.0000,21.4500,41.1000,9.8928,-0.4621,1.7095,0.1921,0.1719,-0.0807,-52.3500,1.0500,12.1500,3.3700,3.8800,-8.2800,-0.0262,0.0338,-0.0011,-25.1875,-26.0625,23.2500,219.4375,20.6250,-155.6250,0
1777068058.128,10.4866,0.4357,0.2394,1.1024,0.0506,-0.0296,-48.0000,21.4500,41.1000,9.9000,0.6249,1.6927,0.0986,0.1735,-0.0770,-51.7500,2.4000,13.0500,3.4100,3.6600,-8.3100,-0.0371,0.0371,0.0087,-25.1875,-26.0625,23.2500,219.4375,20.6250,-155.6250,0
1777068058.137,10.4866,0.4357,0.2394,0.8974,0.0536,0.0035,-46.2000,23.4000,40.3500,10.2663,0.7518,1.9225,0.2092,0.1836,-0.0850,-52.6500,1.0500,12.1500,3.4000,3.6600,-8.3600,-0.0425,0.0469,0.0087,-25.1875,-26.0625,23.2500,219.4375,20.6875,-155.6250,0
1777068058.142,10.0461,0.7183,0.8739,0.8974,0.0536,0.0035,-46.2000,23.4000,40.3500,10.2663,0.7518,1.9225,0.2092,0.1836,-0.0850,-52.6500,1.0500,12.1500,3.4000,3.6600,-8.3600,-0.0425,0.0469,0.0087,-25.1875,-26.0625,23.2500,219.4375,20.6875,-155.6250,0
1777068058.147,10.0461,0.7183,0.8739,0.6107,0.0690,0.0274,-46.5000,21.7500,39.1500,10.2592,0.1987,2.0853,0.3472,0.1383,-0.0967,-52.6500,1.0500,12.1500,3.4600,4.1600,-8.1100,-0.0524,0.0753,0.0120,-25.5000,-26.5000,24.8750,219.6875,20.6875,-155.5625,0
1777068058.152,9.7205,0.4405,1.2785,0.6107,0.0690,0.0274,-46.5000,21.7500,39.1500,10.2592,0.1987,2.0853,0.3472,0.1383,-0.0967,-52.6500,1.0500,12.1500,3.4600,4.1600,-8.1100,-0.0524,0.0753,0.0120,-25.5000,-26.5000,24.8750,219.6875,20.7500,-155.5000,0
1777068058.157,9.9814,0.2059,0.9553,0.3714,0.1487,0.0693,-45.7500,22.0500,38.4000,9.7947,-0.5866,1.5538,0.2854,0.1055,-0.1100,-51.3000,2.1000,13.0500,3.4900,4.1300,-8.0600,-0.0764,0.0938,0.0175,-25.5000,-26.5000,24.8750,219.6875,20.7500,-155.5000,0
1777068058.162,9.9814,0.2059,0.9553,0.3714,0.1487,0.0693,-45.7500,22.0500,38.4000,9.7947,-0.5866,1.5538,0.2854,0.1055,-0.1100,-51.3000,2.1000,13.0500,3.4900,4.1300,-8.0600,-0.0764,0.0938,0.0175,-25.5000,-26.5000,24.8750,219.7500,20.8125,-155.4375,0
1777068058.168,9.7995,0.2801,0.2562,0.3043,0.1681,0.0879,-46.8000,22.8000,38.7000,9.5840,-0.9170,1.0391,0.1767,0.0714,-0.1159,-51.3000,2.1000,13.0500,3.5100,3.9100,-8.1900,-0.0905,0.0774,0.0175,-25.5000,-26.5000,24.8750,219.7500,20.8125,-155.4375,0
1777068058.176,9.7995,0.2801,0.2562,0.3043,0.1681,0.0879,-46.8000,22.8000,38.7000,9.4595,-0.4645,0.5291,0.0008,0.0650,-0.1295,-52.5000,1.3500,11.5500,3.5500,3.8700,-8.1500,-0.0949,0.0687,0.0175,-25.5000,-26.5000,24.8750,219.7500,20.8125,-155.3750,0
1777068058.180,9.8258,0.4932,-0.2107,0.3096,0.1740,0.0695,-46.8000,22.8000,38.7000,9.4595,-0.4645,0.5291,0.0008,0.0650,-0.1295,-52.5000,1.3500,11.5500,3.5500,3.8700,-8.1500,-0.0949,0.0687,0.0175,-25.5000,-26.5000,24.8750,219.7500,20.8750,-155.3125,0
1777068058.188,9.7995,0.8787,-0.5890,0.3421,0.1996,0.0480,-45.1500,20.4000,37.8000,9.6295,-0.4118,0.1101,-0.0226,0.0871,-0.1727,-51.6000,1.9500,12.9000,3.4700,3.9200,-8.2200,-0.0862,0.0709,0.0098,-25.5000,-26.5000,24.8750,219.7500,20.8750,-155.3125,0
1777068058.193,9.7995,0.8787,-0.5890,0.3421,0.1996,0.0480,-45.1500,20.4000,37.8000,9.7636,-0.0838,-0.5100,-0.0208,0.1058,-0.2014,-51.6000,1.9500,12.9000,3.4700,3.9200,-8.2200,-0.0862,0.0709,0.0098,-25.5000,-26.5000,24.8750,220.0000,20.9375,-155.2500,0
1777068058.198,9.7061,1.3024,-0.6800,0.3467,0.1545,0.0293,-44.1000,21.9000,36.7500,9.7636,-0.0838,-0.5100,-0.0208,0.1058,-0.2014,-52.9500,2.4000,12.3000,3.4000,3.9700,-8.2100,-0.0905,0.0720,0.0087,-25.5000,-26.5000,24.0625,220.0000,20.9375,-155.2500,0
1777068058.203,9.7061,1.3024,-0.6800,0.3467,0.1545,0.0293,-44.1000,21.9000,36.7500,9.5888,0.6800,-0.7446,-0.0629,0.1439,-0.2342,-52.9500,2.4000,12.3000,3.4000,3.9700,-8.2100,-0.0905,0.0720,0.0087,-25.5000,-26.5000,24.0625,220.0000,20.9375,-155.2500,0
1777068058.208,9.6031,1.8866,-0.8428,0.3019,0.1663,0.0035,-45.9000,21.9000,37.5000,9.5888,0.6800,-0.7446,-0.0629,0.1439,-0.2342,-53.4000,2.7000,12.4500,3.3800,3.8700,-8.2600,-0.1091,0.0731,0.0142,-25.5000,-26.5000,24.0625,220.0000,20.9375,-155.1875,0
1777068058.213,9.6031,1.8866,-0.8428,0.3019,0.1663,0.0035,-45.9000,21.9000,37.5000,9.5553,2.3056,-0.3472,-0.1356,0.1735,-0.2465,-53.4000,2.7000,12.4500,3.3800,3.8700,-8.2600,-0.1233,0.0545,0.0393,-25.5000,-26.5000,24.0625,220.0625,21.0000,-155.1250,0
1777068058.218,9.7157,2.7031,-0.7829,0.2854,0.1434,-0.0179,-44.5500,21.0000,38.1000,9.5553,2.3056,-0.3472,-0.1356,0.1735,-0.2465,-52.3500,1.5000,12.9000,3.2200,4.0100,-8.2100,-0.1233,0.0545,0.0393,-25.5000,-26.5000,24.0625,220.1250,21.0000,-155.0625,0
1777068058.228,9.2775,3.9720,-0.3759,0.1873,0.0570,-0.0690,-44.1000,20.7000,38.5500,9.5481,3.6464,-0.6536,-0.0480,0.1721,-0.2414,-50.8500,1.9500,13.9500,3.0600,4.0700,-8.3400,-0.1582,-0.0284,0.1265,-25.5000,-26.5000,24.0625,220.3125,21.0000,-154.9375,0
1777068058.238,9.7181,4.9105,0.1987,0.0767,-0.0064,-0.1708,-44.1000,20.7000,38.5500,9.3039,4.7357,0.5842,0.3451,0.2510,-0.2044,-50.8500,1.9500,13.9500,2.9800,4.1100,-8.3600,-0.2258,-0.0425,0.2062,-25.5000,-26.5000,24.0625,220.3125,21.0000,-154.9375,0
1777068058.242,9.7181,4.9105,0.1987,0.0767,-0.0064,-0.1708,-44.1000,20.7000,38.5500,10.0437,3.9073,-1.4317,0.4290,0.3174,-0.1516,-50.8500,1.9500,13.9500,2.9800,4.1100,-8.3600,-0.2258,-0.0425,0.2062,-25.5000,-26.5000,24.0625,220.6875,21.1250,-154.8125,0
1777068058.248,10.3789,5.2194,0.7470,0.0898,-0.1604,-0.2872,-45.7500,21.0000,41.2500,10.0437,3.9073,-1.4317,0.4290,0.3174,-0.1516,-51.7500,3.3000,12.7500,2.6400,4.0900,-9.1700,-0.3098,0.1069,0.2367,-25.5000,-26.5000,23.2500,220.6875,21.1250,-154.8125,0
1777068058.252,10.3789,5.2194,0.7470,0.0898,-0.1604,-0.2872,-45.7500,21.0000,41.2500,11.1785,0.4022,-1.7669,0.7584,0.3483,-0.0946,-51.7500,3.3000,12.7500,2.6400,4.0900,-9.1700,-0.3098,0.1069,0.2367,-25.5000,-26.5000,23.2500,220.8750,21.3750,-154.6250,0
1777068058.258,9.9000,4.7908,0.8859,0.2425,-0.2102,-0.3752,-45.3000,22.5000,40.9500,11.1785,0.4022,-1.7669,0.7584,0.3483,-0.0946,-51.7500,3.3000,12.7500,2.7800,4.5100,-8.9700,-0.4451,0.3229,0.2356,-25.5000,-26.5000,23.2500,220.8750,21.3750,-154.6250,0
1777068058.263,9.9000,4.7908,0.8859,0.2425,-0.2102,-0.3752,-48.6000,24.0000,40.9500,10.9223,-1.6975,-1.2761,0.5183,0.4221,-0.0405,-51.7500,3.3000,12.7500,2.7800,4.5100,-8.9700,-0.7941,0.6829,0.2247,-25.5000,-26.5000,23.2500,221.0000,21.7500,-154.1250,0
1777068058.268,9.5457,3.4117,0.3519,0.4093,-0.0280,-0.4367,-48.6000,24.0000,40.9500,8.9088,-1.3910,-0.8739,0.5183,0.4221,-0.0405,-51.9000,2.2500,12.4500,3.1100,4.6200,-8.8300,-0.7941,0.6829,0.2247,-25.5000,-26.5000,23.2500,221.1250,22.2500,-153.5000,0
1777068058.278,9.9144,3.1915,-1.2067,0.6097,-0.0027,-0.5119,-48.0000,25.6500,42.9000,8.9088,-1.3910,-0.8739,-0.0381,0.5212,0.0344,-51.0000,3.3000,13.5000,3.5100,4.1100,-8.8900,-1.1192,0.8890,0.2313,-25.5000,-26.5000,23.2500,221.1250,22.2500,-153.5000,0
1777068058.288,10.0748,3.2609,-1.4006,0.8260,0.0168,-0.5737,-48.0000,25.6500,42.9000,9.6534,2.1093,-0.4884,-0.2014,0.4951,0.0863,-51.3000,1.6500,14.8500,3.8000,3.6900,-9.0400,-1.1541,0.9392,0.2073,-25.5000,-26.5000,23.2500,221.2500,22.7500,-152.8125,0
1777068058.292,9.9934,3.1580,-0.7997,0.9662,0.0429,-0.6328,-48.7500,25.6500,40.3500,9.6534,2.1093,-0.4884,-0.0581,0.6019,0.1204,-51.3000,1.6500,14.8500,3.8000,3.6900,-9.0400,-1.1541,0.9392,0.2073,-25.5000,-26.5000,23.2500,221.2500,22.7500,-152.8125,0
1777068058.297,9.9934,3.1580,-0.7997,0.9662,0.0429,-0.6328,-48.7500,25.6500,40.3500,9.9886,2.4804,-0.2298,-0.0581,0.6019,0.1204,-52.5000,2.1000,13.5000,3.8500,3.9000,-9.0100,-1.1039,1.0494,0.1004,-26.2500,-26.8750,23.6875,221.6250,23.3125,-152.0625,0
1777068058.302,10.2831,3.2777,-0.3735,0.9846,0.0274,-0.6587,-46.2000,26.4000,39.6000,9.9886,2.4804,-0.2298,0.3094,0.6555,0.1431,-52.5000,2.1000,13.5000,3.8500,3.9000,-9.0100,-1.1039,1.0494,0.1004,-26.2500,-26.8750,23.6875,221.6250,23.3125,-152.0625,0
1777068058.307,10.2831,3.2777,-0.3735,0.9846,0.0274,-0.6587,-46.2000,26.4000,39.6000,10.5297,1.9752,-0.2682,0.3094,0.6555,0.1431,-52.5000,2.1000,13.5000,4.1600,4.4800,-8.6500,-1.0472,1.2708,-0.0175,-26.2500,-26.8750,23.6875,221.5625,23.9375,-151.3750,0
1777068058.312,10.7715,3.2753,-0.6177,1.1215,-0.1471,-0.6571,-46.2000,24.9000,38.5500,10.5297,1.9752,-0.2682,0.6957,0.7069,0.1889,-52.5000,2.1000,13.5000,4.1600,4.4800,-8.6500,-0.9436,1.3526,-0.0894,-26.2500,-26.8750,23.6875,221.4375,24.5625,-150.6250,0
1777068058.318,10.7715,3.2753,-0.6177,1.1215,-0.1471,-0.6571,-46.2000,24.9000,38.5500,10.7835,0.2083,-0.5770,0.8993,0.7458,0.2366,-50.8500,3.4500,12.9000,3.6200,4.8900,-8.7500,-0.9436,1.3526,-0.0894,-26.2500,-26.8750,23.6875,221.2500,25.1250,-150.0000,0
1777068058.328,10.0389,3.3088,-0.5674,1.2356,-0.1175,-0.6707,-45.9000,27.1500,38.2500,11.1091,-3.5674,-2.5498,0.8649,0.7869,0.3872,-50.8500,3.4500,12.9000,2.1300,5.8600,-9.4400,-0.7407,1.3526,-0.1854,-26.2500,-26.8750,23.6875,221.2500,25.1250,-150.0000,0
1777068058.338,10.0748,2.9592,-0.8428,1.2646,0.0229,-0.7019,-46.9500,27.1500,39.3000,10.5584,-4.7405,-0.9122,0.8047,0.8609,0.6155,-50.8500,2.7000,13.2000,-10.3000,14.8100,-13.6900,-0.3163,1.4235,-0.3676,-26.2500,-26.8750,23.6875,220.8750,25.7500,-149.5625,0
1777068058.343,10.8290,2.4684,-1.3599,1.3971,0.0312,-0.7109,-46.9500,27.1500,39.3000,10.5584,-4.7405,-0.9122,0.8047,0.8609,0.6155,-50.8500,2.7000,13.2000,-10.3000,14.8100,-13.6900,-0.3163,1.4235,-0.3676,-26.2500,-26.8750,23.6875,220.8750,25.7500,-149.5625,0
1777068058.348,10.8290,2.4684,-1.3599,1.3971,0.0312,-0.7109,-46.9500,27.1500,39.3000,10.4004,-2.7102,1.0223,0.7759,0.8596,0.8567,-49.5000,2.4000,13.8000,6.1300,-3.2700,-8.8800,1.9330,2.2460,-1.1966,-26.2500,-27.5625,20.5000,219.6250,26.5000,-150.0625,0
1777068058.352,10.5872,1.6759,-1.0032,1.6798,-0.1548,-0.6598,-46.2000,27.1500,37.2000,10.4004,-2.7102,1.0223,0.7759,0.8596,0.8567,-49.5000,2.4000,13.8000,6.1300,-3.2700,-8.8800,1.9330,2.2460,-1.1966,-26.2500,-27.5625,20.5000,219.6250,26.5000,-150.0625,0
1777068058.358,10.5872,1.6759,-1.0032,1.6798,-0.1548,-0.6598,-46.2000,27.1500,37.2000,8.8035,-0.6393,0.0551,0.9209,0.9579,0.8500,-49.8000,2.8500,14.5500,4.5500,6.1900,-8.4400,1.3755,2.2024,-1.4323,-26.2500,-27.5625,20.5000,218.3750,27.1250,-150.1250,0
1777068058.362,10.3789,0.8978,-1.3958,1.8199,-0.0061,-0.6211,-46.2000,28.2000,38.5500,8.8035,-0.6393,0.0551,0.9209,0.9579,0.8500,-49.8000,2.8500,14.5500,4.5500,6.1900,-8.4400,0.6687,1.9777,-1.5381,-26.2500,-27.5625,20.5000,217.1250,27.6875,-149.8750,0
1777068058.369,10.3789,0.8978,-1.3958,1.8199,-0.0061,-0.6211,-46.2000,28.2000,38.5500,9.0333,0.0910,1.5538,1.8692,0.9425,0.6086,-51.7500,4.0500,15.3000,3.7400,4.6700,-8.5400,0.6687,1.9777,-1.5381,-26.2500,-27.5625,20.5000,215.8125,28.2500,-149.6250,0
1777068058.378,9.8450,0.3400,-0.9888,1.9343,0.0546,-0.5649,-46.2000,29.4000,35.7000,9.2201,0.3496,2.3583,2.3550,0.9257,0.5012,-51.7500,4.0500,15.3000,5.9100,2.4300,-10.0800,0.8628,2.1402,-1.6526,-26.2500,-27.5625,20.5000,215.8125,28.2500,-149.6250,0
1777068058.388,9.6103,0.1963,-0.1413,2.0627,0.0064,-0.4570,-45.4500,28.6500,37.8000,9.5337,-0.7709,3.7996,2.9830,0.8037,0.5897,-50.2500,3.3000,15.6000,2.5700,3.1300,-9.6000,0.8759,2.0224,-1.6461,-26.2500,-27.5625,20.5000,214.4375,28.7500,-149.3750,0
1777068058.393,9.7252,0.0359,0.9170,2.1424,-0.2054,-0.3592,-45.4500,28.6500,37.8000,9.5337,-0.7709,3.7996,2.9830,0.8037,0.5897,-50.2500,3.3000,15.6000,2.5700,3.1300,-9.6000,0.8759,2.0224,-1.6461,-26.2500,-27.5625,20.5000,213.0625,29.1875,-149.0000,0
1777068058.398,9.7252,0.0359,0.9170,2.1424,-0.2054,-0.3592,-45.4500,28.6500,37.8000,8.8729,-1.3551,4.4915,3.1744,0.6664,0.7040,-50.2500,3.3000,15.6000,3.1300,-0.1300,-11.7300,0.8334,2.0028,-1.8697,-27.2500,-28.6875,18.0625,213.0625,29.1875,-149.0000,0
1777068058.403,9.2177,-0.0718,1.8507,1.6758,-0.1399,-0.2902,-45.0000,31.8000,35.2500,8.8729,-1.3551,4.4915,3.1744,0.6664,0.7040,-50.2500,3.3000,15.6000,3.1300,-0.1300,-11.7300,0.8334,2.0028,-1.8697,-27.2500,-28.6875,18.0625,211.5000,29.4375,-148.7500,0
1777068058.408,9.2177,-0.0718,1.8507,1.6758,-0.1399,-0.2902,-45.0000,31.8000,35.2500,9.8186,-2.7078,4.1204,3.0800,0.5268,0.8300,-51.1500,3.0000,13.6500,2.9000,-0.6200,-12.3300,1.0505,1.8479,-1.9897,-27.2500,-28.6875,18.0625,211.5000,29.4375,-148.7500,0
1777068058.412,9.4044,0.1101,3.1149,1.3350,-0.3930,-0.2084,-46.0500,31.0500,35.5500,10.4244,-4.7980,3.7493,3.0800,0.5268,0.8300,-51.1500,3.0000,13.6500,2.9000,-0.6200,-12.3300,1.1748,1.5795,-1.9559,-27.2500,-28.6875,18.0625,210.0000,29.6250,-148.6250,0
1777068058.419,9.3134,0.4238,4.1922,0.9521,-0.3064,-0.0802,-46.0500,31.0500,35.5500,10.4244,-4.7980,3.7493,2.8853,0.2827,1.0062,-51.1500,5.4000,12.9000,1.8200,-1.8300,-16.8800,1.1748,1.5795,-1.9559,-27.2500,-28.6875,18.0625,208.6250,29.6250,-148.6875,0
1777068058.428,9.3182,-0.2011,4.0486,0.5958,-0.4445,0.1023,-45.3000,31.5000,35.2500,11.0804,-7.1635,3.2681,2.3585,0.0218,1.1719,-50.2500,5.2500,11.5500,1.6100,-7.0300,-21.5100,1.3766,1.0832,-1.8773,-27.2500,-28.6875,18.0625,208.6250,29.6250,-148.6875,0
1777068058.438,8.3510,-0.9457,2.5833,0.4596,-0.4884,0.2606,-46.0500,31.0500,35.5500,10.4339,-10.1323,2.1404,1.3456,-0.1772,1.2889,-50.5500,5.5500,11.5500,-2.0000,-9.0200,-18.1400,1.6635,-0.0415,-1.1977,-27.2500,-28.6875,18.0625,207.6875,29.2500,-149.3125,0
1777068058.442,8.3510,-0.9457,2.5833,0.4596,-0.4884,0.2606,-46.0500,30.3000,33.4500,9.0118,-10.6901,0.1365,-0.2150,-0.2875,1.4056,-50.5500,5.5500,11.5500,-2.0000,-9.0200,-18.1400,1.6635,-0.0415,-1.1977,-27.2500,-28.6875,18.0625,207.6875,29.2500,-149.3125,0
1777068058.448,8.6646,-1.7334,-0.4717,0.4631,-0.4588,0.3669,-46.0500,30.3000,33.4500,9.0118,-10.6901,0.1365,-0.2150,-0.2875,1.4056,-51.7500,4.8000,13.8000,2.2200,0.1100,-15.0100,1.6253,-0.9523,-0.3305,-26.3750,-29.3750,17.2500,207.4375,28.6875,-150.2500,0
1777068058.453,8.6646,-1.7334,-0.4717,0.4631,-0.4588,0.3669,-46.0500,30.3000,33.4500,9.4691,-12.5696,0.3328,-1.3014,-0.2923,1.5354,-51.7500,4.8000,13.8000,2.2200,0.1100,-15.0100,1.6253,-0.9523,-0.3305,-26.3750,-29.3750,17.2500,207.4375,28.6875,-150.2500,0
1777068058.458,8.7101,-2.4397,-1.6783,0.5844,-0.5156,0.4383,-46.0500,30.3000,33.4500,9.4691,-12.5696,0.3328,-1.3014,-0.2923,1.5354,-51.6000,3.0000,13.8000,0.0500,0.9900,-10.0100,1.7355,-1.3723,0.1004,-26.3750,-29.3750,17.2500,207.4375,28.0625,-151.4375,0
1777068058.463,8.7101,-2.4397,-1.6783,0.5844,-0.5156,0.4383,-45.9000,30.1500,32.8500,9.9192,-8.2959,2.6767,-1.8724,-0.4431,1.6358,-51.6000,3.0000,12.1500,0.0500,0.9900,-10.0100,2.0399,-1.8391,0.0349,-26.3750,-29.3750,17.2500,207.3750,27.1875,-152.8750,0
1777068058.469,9.6438,-3.0406,-2.8659,0.7218,-0.4698,0.5161,-45.9000,30.1500,32.8500,9.9192,-8.2959,2.6767,-1.8724,-0.4431,1.6358,-51.6000,3.0000,12.1500,-0.6000,4.2800,-4.7600,2.0399,-1.8391,0.0349,-26.3750,-29.3750,17.2500,207.1250,26.3125,-154.1875,0
1777068058.478,10.2328,-2.5881,-3.2154,0.7901,-0.3869,0.5987,-45.0000,31.0500,31.6500,7.3454,-0.3831,2.9257,-2.6015,-0.5031,1.5007,-51.6000,1.0500,13.2000,0.3700,2.2200,-3.9000,2.1075,-1.6832,-0.2585,-26.3750,-29.3750,17.2500,207.1250,26.3125,-154.1875,0
1777068058.488,10.8457,-1.1349,-3.2537,0.8985,-0.3075,0.6603,-45.0000,31.5000,31.3500,8.1427,4.7262,1.8938,-1.4346,-0.7448,1.2590,-51.6000,1.0500,13.2000,0.9300,5.4800,-6.8200,1.6635,-1.0254,-0.6360,-26.3750,-29.3750,17.2500,206.6875,25.6250,-155.0625,0
1777068058.493,10.8457,-1.1349,-3.2537,0.8985,-0.3075,0.6603,-45.4500,28.9500,30.7500,8.0589,7.4484,1.9154,0.0378,-0.7943,1.0605,-51.3000,1.6500,13.0500,0.9300,5.4800,-6.8200,1.6635,-1.0254,-0.6360,-26.3750,-29.3750,17.2500,205.9375,25.1250,-155.5000,0
1777068058.498,9.7755,-0.0383,-1.6975,0.6640,-0.2864,0.6137,-45.4500,28.9500,30.7500,8.0589,7.4484,1.9154,0.0378,-0.7943,1.0605,-51.7500,1.6500,11.5500,2.6100,5.6900,-8.0700,1.1661,-0.4843,-1.1301,-23.6875,-29.7500,20.8750,205.9375,25.1250,-155.5000,0
1777068058.503,9.7755,-0.0383,-1.6975,0.6640,-0.2864,0.6137,-45.4500,28.9500,30.7500,8.2049,6.7612,1.7957,2.1488,-0.7600,0.9792,-51.7500,1.6500,11.5500,2.6100,5.6900,-8.0700,1.1661,-0.4843,-1.1301,-23.6875,-29.7500,20.8750,205.0000,24.6250,-155.8750,0
1777068058.508,9.8306,0.7614,-0.4310,0.5356,-0.3317,0.5913,-45.4500,28.9500,30.7500,8.2049,6.7612,1.7957,2.1488,-0.7600,0.9792,-51.7500,1.6500,11.5500,1.8200,3.6500,-7.8700,1.3068,-0.2945,-1.4901,-23.6875,-29.7500,20.8750,205.0000,24.6250,-155.8750,0
1777068058.513,9.8306,0.7614,-0.4310,0.5356,-0.3317,0.5913,-45.4500,28.9500,30.7500,8.4707,3.7661,2.7390,3.7411,-0.6571,1.0136,-53.2500,0.4500,12.7500,1.8200,3.6500,-7.8700,1.5032,-0.1789,-1.7977,-23.6875,-29.7500,20.8750,203.8125,24.1250,-156.3125,0
1777068058.519,9.2273,1.6592,-0.1604,0.4149,-0.4551,0.6286,-43.9500,26.5500,29.1000,9.2751,-0.1053,3.2082,4.4832,-0.5966,1.1149,-53.8500,1.0500,10.6500,1.1000,3.3600,-7.1000,1.5032,-0.1789,-1.7977,-23.6875,-29.7500,20.8750,202.4375,23.6875,-156.6250,0
1777068058.528,8.4587,2.5259,-0.1077,0.3730,-0.4517,0.6907,-43.6500,26.4000,28.9500,9.8904,-2.9257,3.5769,4.4832,-0.5966,1.1149,-53.8500,1.0500,10.6500,1.3600,3.7400,-7.1400,1.4486,0.0851,-2.1577,-23.6875,-29.7500,20.8750,202.4375,23.6875,-156.6250,0
1777068058.538,8.3486,3.1340,-0.1341,0.3901,-0.1956,0.7544,-43.2000,27.7500,30.1500,9.1099,-4.3766,2.7677,3.8717,-0.6019,1.3507,-51.3000,1.6500,9.7500,1.4800,3.2400,-7.0500,1.3679,0.3851,-2.4991,-23.6875,-29.7500,20.8750,200.8125,23.3125,-156.8125,0
1777068058.543,8.3486,3.1340,-0.1341,0.3901,-0.1956,0.7544,-43.2000,27.7500,30.1500,9.1099,-4.3766,2.7677,3.8717,-0.6019,1.3507,-51.3000,1.6500,9.7500,1.4800,3.2400,-7.0500,1.3679,0.3851,-2.4991,-23.6875,-29.7500,20.8750,200.8125,23.3125,-156.8125,0
1777068058.548,8.5114,3.9337,-0.0263,0.2542,-0.0919,0.8410,-45.4500,26.4000,31.0500,9.6223,-4.8387,2.4253,3.2255,-0.7266,1.4320,-51.3000,1.6500,9.7500,2.2400,2.3300,-7.3000,1.2403,0.6185,-2.8067,-19.6875,-28.6875,22.8750,198.9375,23.0625,-156.8125,0
1777068058.553,8.5114,3.9337,-0.0263,0.3922,0.0274,0.9305,-45.4500,26.4000,31.0500,9.6223,-4.8387,2.4253,3.2255,-0.7266,1.4320,-53.2500,2.1000,10.0500,2.2400,2.3300,-7.3000,1.2403,0.6185,-2.8067,-19.6875,-28.6875,22.8750,198.9375,23.0625,-156.8125,0
1777068058.558,8.3701,4.2521,-0.3615,0.3922,0.0274,0.9305,-45.4500,26.4000,31.0500,9.0094,-4.2737,2.1859,2.3846,-0.7344,1.4242,-53.2500,2.1000,10.0500,3.5800,3.2100,-7.4400,1.0308,0.8858,-3.0052,-19.6875,-28.6875,22.8750,197.0625,22.8125,-156.6250,0
1777068058.563,8.3701,4.2521,-0.3615,0.5817,0.1865,0.9787,-45.4500,26.4000,31.0500,9.0094,-4.2737,2.1859,2.3846,-0.7344,1.4242,-52.5000,1.6500,7.9500,3.5800,3.2100,-7.4400,0.9130,1.1334,-3.0401,-19.6875,-28.6875,22.8750,195.1250,22.7500,-156.3750,0
1777068058.569,8.6455,3.7589,-0.6033,0.5817,0.1865,0.9787,-47.5500,31.8000,33.0000,8.9783,-2.9257,1.8818,1.6955,-0.6896,1.3869,-53.4000,2.2500,6.1500,4.6900,3.5600,-7.5600,0.9130,1.1334,-3.0401,-19.6875,-28.6875,22.8750,193.2500,22.7500,-156.1875,0
1777068058.578,9.0932,3.5338,-1.2713,1.0712,0.2574,0.9761,-50.1000,33.0000,33.4500,8.9902,-1.4150,1.3599,1.3486,-0.5974,1.3227,-53.4000,2.2500,6.1500,5.3600,3.7100,-7.6600,0.9588,1.2752,-2.9038,-19.6875,-28.6875,22.8750,193.2500,22.7500,-156.1875,0
1777068058.588,8.6095,3.3998,-0.8356,1.6745,0.3400,0.9257,-50.1000,34.5000,35.5500,8.8705,-0.5195,1.3575,1.3161,-0.4924,1.2321,-54.0000,1.3500,7.2000,6.7400,4.2500,-7.5400,1.0734,1.3483,-2.6845,-19.6875,-28.6875,22.8750,191.5000,22.8125,-156.1250,0
1777068058.593,8.3222,5.0518,-0.1844,2.2242,0.3206,0.8857,-50.1000,34.5000,35.5500,8.8705,-0.5195,1.3575,1.3161,-0.4924,1.2321,-53.8500,2.2500,7.3500,6.7400,4.2500,-7.5400,1.0734,1.3483,-2.6845,-19.6875,-28.6875,22.8750,189.6250,22.9375,-156.0625,0
1777068058.598,8.3222,5.0518,-0.1844,2.2242,0.3206,0.8857,-49.9500,34.2000,34.9500,8.5736,-0.1030,1.7693,1.4232,-0.3477,1.1362,-53.8500,2.2500,7.3500,7.2600,4.3200,-7.3200,1.1585,1.3439,-2.4391,-16.6875,-29.8750,24.7500,189.6250,22.9375,-156.0625,0
1777068058.603,9.7779,3.2825,-1.3216,2.8458,0.3667,0.6622,-49.9500,34.2000,34.9500,8.5736,-0.1030,1.7693,1.4232,-0.3477,1.1362,-52.9500,0.9000,6.4500,7.2600,4.3200,-7.3200,1.1585,1.3439,-2.4391,-16.6875,-29.8750,24.7500,189.6250,22.9375,-156.0625,0
1777068058.608,9.7779,3.2825,-1.3216,2.8458,0.3667,0.6622,-49.9500,34.2000,34.9500,8.4731,0.0766,1.7980,1.6100,-0.2278,1.0277,-52.9500,0.9000,6.4500,7.3300,4.2100,-6.9300,1.1530,1.2675,-2.1642,-16.6875,-29.8750,24.7500,188.1250,23.1250,-156.1250,0
1777068058.613,9.1889,3.0861,-1.9058,2.9537,0.1756,0.6411,-49.9500,34.2000,34.9500,8.4731,0.0766,1.7980,1.6100,-0.2278,1.0277,-52.9500,0.9000,6.4500,7.3300,4.2100,-6.9300,1.0570,1.1476,-1.9231,-16.6875,-29.8750,24.7500,186.8125,23.2500,-156.1875,0
1777068058.619,9.1889,3.0861,-1.9058,2.9537,0.1756,0.6411,-49.9500,34.2000,34.9500,8.6359,-0.3639,1.7119,1.7120,-0.0999,0.9206,-52.9500,0.9000,6.4500,6.5900,4.5300,-5.7900,1.0570,1.1476,-1.9231,-16.6875,-29.8750,24.7500,185.6250,23.4375,-156.2500,0
1777068058.628,8.9112,2.8443,-2.3343,2.7531,0.0754,0.6563,-48.7500,31.9500,32.5500,8.8897,-0.6608,2.2913,1.6912,-0.0189,0.8396,-54.7500,0.9000,4.2000,6.0600,4.3300,-5.2300,0.9468,1.0374,-1.6919,-16.6875,-29.8750,24.7500,185.6250,23.4375,-156.2500,0
1777068058.638,9.6007,1.2067,-2.9832,2.5290,0.0576,0.6326,-48.3000,33.0000,31.6500,9.0405,-0.8356,2.2194,1.4810,0.0549,0.7935,-54.7500,0.9000,4.2000,5.4500,4.5700,-4.6700,0.7603,1.0297,-1.4257,-16.6875,-29.8750,24.7500,184.6250,23.6250,-156.2500,0
1777068058.643,8.7149,1.5586,-2.5522,2.4978,0.2390,0.6038,-48.3000,33.0000,31.6500,9.1339,-0.4860,2.3918,1.4810,0.0549,0.7935,-56.1000,-0.3000,6.1500,5.4500,4.5700,-4.6700,0.7603,1.0297,-1.4257,-16.6875,-29.8750,24.7500,184.6250,23.6250,-156.2500,0
1777068058.648,8.7149,1.5586,-2.5522,2.4978,0.2390,0.6038,-46.8000,30.7500,31.9500,9.1339,-0.4860,2.3918,1.2806,0.0847,0.7634,-56.1000,-0.3000,6.1500,4.5400,5.8500,-3.2400,0.4396,1.1323,-1.2686,-13.0000,-31.0625,26.0000,183.7500,23.9375,-156.1250,0
