timestamp,thigh_acc_x,thigh_acc_y,thigh_acc_z,thigh_gyro_x,thigh_gyro_y,thigh_gyro_z,thigh_mag_x,thigh_mag_y,thigh_mag_z,shank_acc_x,shank_acc_y,shank_acc_z,shank_gyro_x,shank_gyro_y,shank_gyro_z,shank_mag_x,shank_mag_y,shank_mag_z,foot_acc_x,foot_acc_y,foot_acc_z,foot_gyro_x,foot_gyro_y,foot_gyro_z,foot_mag_x,foot_mag_y,foot_mag_z,foot_euler_x,foot_euler_y,foot_euler_z,perturbation_event
443.084,9.5385,1.9992,0.7877,-0.1495,0.0149,-0.0248,-50.4000,10.0500,24.9000,9.6295,1.5538,0.0359,-0.1572,-0.0139,0.0029,-67.6500,24.0000,-12.3000,2.9400,4.5100,-8.3100,0.0011,-0.0033,0.0044,-29.5000,-21.0000,17.2500,247.8125,17.4375,-151.9375,0
443.093,9.4260,2.0016,0.7709,-0.1703,0.0216,-0.0266,-49.9500,9.4500,23.5500,9.5696,1.7047,0.0048,-0.1220,-0.0061,0.0037,-66.9000,25.5000,-12.3000,2.9200,4.5300,-8.3000,-0.0033,0.0011,0.0065,-29.5000,-21.0000,17.2500,247.8125,17.4375,-151.9375,0
443.102,9.4523,1.9944,0.7829,-0.1692,0.0317,-0.0314,-51.3000,9.1500,24.0000,9.4499,1.7382,-0.1173,-0.0805,-0.0064,0.0045,-66.9000,25.5000,-12.3000,2.9300,4.5400,-8.3100,-0.0022,0.0011,0.0044,-29.5000,-21.0000,17.2500,247.8125,17.4375,-151.9375,0
443.107,9.4523,1.9944,0.7829,-0.1692,0.0317,-0.0314,-51.3000,9.1500,24.0000,9.6031,1.6520,-0.2083,-0.0805,-0.0064,0.0045,-66.6000,24.4500,-12.7500,2.9300,4.5400,-8.3100,-0.0022,0.0011,0.0044,-29.5000,-21.0000,17.2500,247.8125,17.4375,-151.9375,0
443.114,9.4882,2.0734,0.6680,-0.1434,0.0386,-0.0226,-51.3000,9.1500,24.0000,9.6031,1.6520,-0.2083,-0.0266,-0.0013,0.0093,-66.6000,24.4500,-12.7500,2.9100,4.5600,-8.2900,0.0000,-0.0033,0.0033,-29.5000,-21.0000,17.2500,247.8125,17.4375,-151.9375,0
443.123,9.5457,2.0949,0.6991,-0.1023,0.0181,-0.0149,-50.8500,10.0500,23.4000,9.5146,1.6927,-0.2251,0.0109,0.0051,0.0131,-66.6000,24.4500,-12.7500,2.9100,4.5100,-8.3200,0.0087,-0.0011,0.0011,-29.5000,-21.0000,17.2500,247.8125,17.4375,-151.9375,0
443.128,9.5457,2.0949,0.6991,-0.1023,0.0181,-0.0149,-49.6500,10.5000,24.4500,9.5720,1.4485,-0.0670,-0.0040,0.0195,0.0075,-66.0000,25.3500,-11.8500,2.9100,4.5100,-8.3200,0.0087,-0.0011,0.0011,-29.8750,-20.6875,16.5000,247.8125,17.4375,-151.9375,0
443.134,9.5146,2.1117,0.6201,-0.0450,0.0176,-0.0181,-49.6500,10.5000,24.4500,9.5720,1.4485,-0.0670,-0.0040,0.0195,0.0075,-66.0000,25.3500,-11.8500,2.9000,4.5300,-8.3400,0.0153,-0.0022,-0.0022,-29.8750,-20.6875,16.5000,247.8125,17.4375,-151.9375,0
443.143,9.5553,2.1811,0.6967,-0.0027,-0.0005,-0.0304,-51.9000,9.3000,24.4500,9.6103,1.6496,-0.0383,-0.0602,0.0226,0.0133,-66.7500,25.3500,-11.8500,2.9000,4.5800,-8.3200,0.0153,-0.0022,-0.0011,-29.8750,-20.6875,16.5000,247.8125,17.4375,-151.9375,0
443.153,9.5409,2.2338,0.8284,0.0077,-0.0005,-0.0488,-51.0000,9.4500,24.0000,9.5553,1.6831,-0.0072,-0.0714,0.0165,0.0176,-68.1000,24.0000,-12.3000,2.9000,4.6200,-8.3100,0.0164,-0.0044,-0.0022,-29.8750,-20.6875,16.5000,247.8125,17.4375,-151.9375,0
443.159,9.5170,2.1931,0.9433,-0.0147,0.0096,-0.0608,-50.5500,11.4000,23.2500,9.4619,1.6712,-0.0048,-0.0773,0.0226,0.0229,-65.5500,25.3500,-11.1000,2.9200,4.6300,-8.2900,0.0218,-0.0065,0.0022,-29.8750,-20.6875,16.5000,247.8125,17.4375,-151.9375,0
443.164,9.5170,2.1931,0.9433,-0.0147,0.0096,-0.0608,-50.5500,11.4000,23.2500,9.6247,1.4940,0.0048,-0.0773,0.0226,0.0229,-65.5500,25.3500,-11.1000,2.9200,4.6300,-8.2900,0.0218,-0.0065,0.0022,-29.8750,-20.6875,16.5000,247.8125,17.3750,-152.0000,0
443.174,9.5624,2.1763,1.0702,-0.0205,0.0157,-0.0624,-50.5500,11.4000,23.2500,9.6223,1.3192,-0.0575,-0.0610,0.0301,0.0253,-65.5500,25.3500,-11.1000,2.9300,4.6400,-8.2800,0.0273,-0.0109,0.0000,-29.8750,-20.6875,16.5000,247.8125,17.3750,-152.0000,0
443.178,9.6893,2.0782,1.0175,-0.0128,0.0115,-0.0581,-50.8500,10.8000,24.4500,9.6223,1.3192,-0.0575,-0.0349,0.0242,0.0189,-67.6500,25.2000,-12.7500,2.9300,4.6400,-8.2800,0.0273,-0.0109,0.0000,-29.8750,-20.6875,16.5000,247.8125,17.3750,-152.0000,0
443.183,9.6893,2.0782,1.0175,-0.0128,0.0115,-0.0581,-50.8500,10.8000,24.4500,9.7037,1.1277,0.0239,-0.0349,0.0242,0.0189,-67.6500,25.2000,-12.7500,2.9100,4.5500,-8.3300,0.0316,-0.0164,-0.0011,-29.5000,-21.3750,17.6875,247.8125,17.3750,-152.0000,0
443.188,9.6534,2.0231,0.9912,-0.0208,-0.0019,-0.0568,-50.5500,9.9000,24.7500,9.7037,1.1277,0.0239,-0.0394,0.0365,0.0192,-67.6500,25.2000,-12.7500,2.9100,4.5500,-8.3300,0.0316,-0.0164,-0.0011,-29.5000,-21.3750,17.6875,247.8125,17.3750,-152.0000,0
443.193,9.6534,2.0231,0.9912,-0.0208,-0.0019,-0.0568,-50.2500,9.9000,24.7500,9.6367,1.1660,0.0886,-0.0394,0.0365,0.0192,-67.6500,25.2000,-12.7500,2.9100,4.5000,-8.3600,0.0327,-0.0164,-0.0011,-29.5000,-21.3750,17.6875,247.8125,17.3750,-152.0000,0
443.198,9.5217,1.9154,0.9218,-0.0226,-0.0179,-0.0530,-50.2500,7.9500,25.3500,9.6367,1.1660,0.0886,-0.0735,0.0256,0.0258,-66.1500,24.7500,-12.3000,2.9100,4.5000,-8.3600,0.0240,-0.0142,-0.0011,-29.5000,-21.3750,17.6875,247.8125,17.3750,-152.0000,0
443.204,9.5217,1.9154,0.9218,-0.0226,-0.0179,-0.0530,-50.8500,10.8000,24.9000,9.6798,1.5945,0.0838,-0.0791,0.0208,0.0192,-66.1500,24.7500,-12.3000,2.9200,4.5100,-8.3700,0.0240,-0.0142,-0.0011,-29.5000,-21.3750,17.6875,247.8125,17.3750,-152.0625,0
443.213,9.5193,1.8220,0.7829,-0.0141,-0.0314,-0.0469,-50.8500,10.8000,24.9000,9.6702,1.9704,0.2203,-0.0426,0.0293,0.0290,-67.9500,24.1500,-13.2000,2.9200,4.5300,-8.3200,0.0164,-0.0065,0.0022,-29.5000,-21.3750,17.6875,247.8125,17.3750,-152.0625,0
443.223,9.3925,1.7382,0.8092,-0.0131,-0.0405,-0.0434,-50.8500,10.8000,24.9000,9.5792,1.9393,0.2921,0.0040,0.0293,0.0192,-66.9000,25.2000,-12.3000,2.9000,4.6200,-8.3300,0.0098,-0.0022,0.0011,-29.5000,-21.3750,17.6875,247.8125,17.3750,-152.0625,0
443.228,9.4044,1.7334,0.8978,-0.0288,-0.0336,-0.0485,-50.8500,10.8000,24.9000,9.5792,1.9393,0.2921,0.0040,0.0293,0.0192,-67.9500,24.6000,-12.9000,2.9000,4.6200,-8.3300,0.0087,0.0033,-0.0011,-29.5000,-21.0000,18.0625,247.8125,17.3750,-152.0000,0
443.234,9.4044,1.7334,0.8978,-0.0288,-0.0336,-0.0485,-51.0000,9.4500,26.1000,9.5648,1.6137,0.2514,0.0288,0.0253,0.0293,-67.9500,24.6000,-12.9000,2.9000,4.6700,-8.2700,0.0087,0.0033,-0.0011,-29.5000,-21.0000,18.0625,247.8125,17.3750,-152.0000,0
443.243,9.4954,1.8340,0.9242,-0.0416,-0.0128,-0.0421,-49.9500,10.2000,24.3000,9.6654,1.3360,0.3304,-0.0027,0.0128,0.0389,-66.6000,24.4500,-11.5500,2.9400,4.6600,-8.3000,0.0109,0.0000,-0.0011,-29.5000,-21.0000,18.0625,247.8125,17.3750,-152.0000,0
443.250,9.5026,1.8531,1.0606,-0.0634,-0.0077,-0.0450,-49.9500,10.2000,24.3000,9.6654,1.3360,0.3304,-0.0027,0.0128,0.0389,-65.5500,25.0500,-12.1500,2.9200,4.6500,-8.3400,0.0109,0.0022,-0.0044,-29.5000,-21.0000,18.0625,247.8125,17.3750,-152.0000,0
443.255,9.5026,1.8531,1.0606,-0.0634,-0.0077,-0.0450,-50.5500,11.4000,26.4000,9.5936,1.2474,0.1389,-0.0733,0.0011,0.0384,-65.5500,25.0500,-12.1500,2.9200,4.6500,-8.3400,0.0109,0.0022,-0.0044,-29.5000,-21.0000,18.0625,247.8125,17.3750,-152.0000,0
443.264,9.5744,1.8723,1.1827,-0.0855,-0.0163,-0.0493,-49.6500,12.0000,24.9000,9.7229,1.2258,0.0886,-0.0954,-0.0184,0.0354,-65.5500,25.0500,-12.1500,2.9200,4.6200,-8.3300,0.0120,-0.0011,-0.0033,-29.5000,-21.0000,18.0625,247.8125,17.3750,-152.0000,0
443.272,9.6343,1.8651,1.1708,-0.0794,-0.0080,-0.0480,-49.6500,12.0000,24.9000,9.6630,1.1325,0.2370,-0.0954,-0.0136,0.0314,-67.3500,25.5000,-13.0500,2.8800,4.5800,-8.3500,0.0131,-0.0033,-0.0033,-29.5000,-21.0000,18.0625,247.8125,17.3750,-152.0000,0
443.277,9.6822,1.8196,1.0846,-0.0775,-0.0163,-0.0392,-49.6500,12.0000,24.9000,9.6630,1.1325,0.2370,-0.0954,-0.0136,0.0314,-67.3500,25.5000,-13.0500,2.8800,4.5800,-8.3500,0.0131,-0.0033,-0.0033,-29.5000,-21.0000,18.0625,247.8125,17.3750,-152.0000,0
443.282,9.6822,1.8196,1.0846,-0.0775,-0.0163,-0.0392,-49.6500,12.0000,24.9000,9.6941,0.9936,0.2370,-0.0954,-0.0264,0.0256,-67.5000,26.1000,-13.2000,2.9300,4.5900,-8.3400,0.0044,0.0022,-0.0022,-29.5000,-20.6875,17.6875,247.8125,17.3750,-152.0000,0
443.287,9.5936,1.7980,0.9290,-0.0874,-0.0085,-0.0426,-51.1500,10.0500,25.2000,9.6941,0.9936,0.2370,-0.0954,-0.0264,0.0256,-67.5000,26.1000,-13.2000,2.9300,4.5900,-8.3400,0.0044,0.0022,-0.0022,-29.5000,-20.6875,17.6875,247.8125,17.3750,-152.0000,0
443.294,9.5936,1.7980,0.9290,-0.0874,-0.0085,-0.0426,-49.9500,10.6500,25.3500,9.7037,1.0487,0.1987,-0.1058,-0.0330,0.0224,-66.7500,25.3500,-12.9000,2.9300,4.5300,-8.3500,-0.0076,0.0044,0.0000,-29.5000,-20.6875,17.6875,247.8125,17.3750,-152.0000,0
443.302,9.6007,1.7957,0.7470,-0.0997,0.0011,-0.0349,-51.9000,10.0500,24.1500,9.7085,1.3743,0.0742,-0.0911,-0.0325,0.0176,-67.3500,23.5500,-12.7500,2.9200,4.5000,-8.3800,-0.0240,0.0142,-0.0011,-29.5000,-20.6875,17.6875,247.8125,17.3750,-152.0000,0
443.307,9.5984,1.8100,0.5195,-0.0789,-0.0029,-0.0237,-51.9000,10.0500,24.1500,9.7085,1.3743,0.0742,-0.0911,-0.0325,0.0176,-67.3500,23.5500,-12.7500,2.9200,4.5000,-8.3800,-0.0240,0.0142,-0.0011,-29.5000,-20.6875,17.6875,247.8125,17.3750,-152.0000,0
443.314,9.6127,1.8842,0.4381,-0.0224,-0.0357,-0.0163,-49.2000,12.1500,23.5500,9.6750,1.4413,-0.0239,-0.0847,-0.0245,0.0147,-66.7500,25.3500,-12.1500,2.9100,4.5900,-8.3500,-0.0425,0.0218,-0.0044,-29.5000,-20.6875,17.6875,247.8125,17.3750,-152.0000,0
443.324,9.5265,1.8986,0.4262,0.0234,-0.0626,-0.0314,-49.2000,12.1500,23.5500,9.6175,1.6688,-0.1532,-0.0741,-0.0115,0.0072,-68.2500,25.0500,-12.1500,2.9100,4.6400,-8.3100,-0.0545,0.0327,-0.0033,-29.5000,-20.6875,17.6875,247.8125,17.3750,-151.9375,0
443.328,9.5265,1.8986,0.4262,0.0234,-0.0626,-0.0314,-49.2000,12.1500,23.5500,9.5457,1.8172,-0.3089,-0.0392,0.0195,0.0179,-68.2500,25.0500,-12.1500,2.9100,4.6400,-8.3100,-0.0545,0.0327,-0.0033,-29.5000,-20.6875,17.6875,247.8125,17.3750,-151.9375,0
443.333,9.5002,1.9537,0.3879,0.0464,-0.0642,-0.0434,-49.2000,12.1500,23.5500,9.5457,1.8172,-0.3089,-0.0392,0.0195,0.0179,-68.2500,25.0500,-12.1500,2.9300,4.6500,-8.2800,-0.0654,0.0360,-0.0055,-30.5625,-20.2500,18.0625,247.8125,17.4375,-151.8750,0
443.338,9.5002,1.9537,0.3879,0.0464,-0.0642,-0.0434,-49.2000,12.1500,23.5500,9.4954,1.7190,-0.1867,-0.0072,0.0245,0.0149,-66.1500,25.5000,-12.0000,2.9300,4.6500,-8.2800,-0.0654,0.0360,-0.0055,-30.5625,-20.2500,18.0625,247.7500,17.4375,-151.8125,0
443.344,9.5050,2.0973,0.3903,0.0346,-0.0488,-0.0616,-52.3500,9.4500,24.0000,9.4954,1.7190,-0.1867,-0.0072,0.0245,0.0149,-66.1500,25.5000,-12.0000,2.9100,4.7600,-8.2800,-0.0665,0.0415,-0.0120,-30.5625,-20.2500,18.0625,247.7500,17.4375,-151.8125,0
443.348,9.5050,2.0973,0.3903,0.0346,-0.0488,-0.0616,-52.3500,9.4500,24.0000,9.4212,1.5107,-0.1508,-0.0261,0.0312,0.0131,-66.1500,25.5000,-12.0000,2.9100,4.7600,-8.2800,-0.0622,0.0458,-0.0164,-30.5625,-20.2500,18.0625,247.7500,17.4375,-151.8125,0
443.355,9.5193,2.2721,0.5435,0.0125,-0.0296,-0.0794,-51.7500,10.6500,25.3500,9.4212,1.5107,-0.1508,-0.0261,0.0312,0.0131,-67.3500,24.7500,-13.0500,2.9100,4.7200,-8.2600,-0.0622,0.0458,-0.0164,-30.5625,-20.2500,18.0625,247.7500,17.4375,-151.8125,0
443.363,9.4763,2.4493,0.6033,0.0155,-0.0056,-0.0994,-50.1000,9.7500,23.8500,9.5146,1.4988,-0.0862,-0.0576,0.0189,0.0128,-65.8500,24.4500,-12.7500,2.9100,4.7300,-8.2700,-0.0524,0.0382,-0.0153,-30.5625,-20.2500,18.0625,247.7500,17.4375,-151.7500,0
443.368,9.4763,2.4493,0.6033,0.0155,-0.0056,-0.0994,-50.1000,9.7500,23.8500,9.6462,1.4389,0.0862,-0.0773,0.0173,0.0179,-65.8500,24.4500,-12.7500,2.9100,4.7300,-8.2700,-0.0447,0.0360,-0.0164,-30.5625,-20.2500,18.0625,247.7500,17.4375,-151.6875,0
443.375,9.5385,2.5977,0.6776,0.0410,0.0181,-0.1071,-51.7500,10.9500,24.3000,9.6462,1.4389,0.0862,-0.0773,0.0173,0.0179,-66.1500,27.1500,-12.7500,2.9200,4.7500,-8.2700,-0.0447,0.0360,-0.0164,-30.5625,-20.2500,18.0625,247.7500,17.4375,-151.6875,0
443.379,9.5385,2.5977,0.6776,0.0410,0.0181,-0.1071,-51.7500,10.9500,24.3000,9.5864,1.2929,0.0718,-0.0320,0.0221,0.0093,-68.2500,25.3500,-12.1500,2.9200,4.7500,-8.2700,-0.0393,0.0327,-0.0185,-29.0625,-20.6875,16.8750,247.7500,17.5000,-151.6875,0
443.385,9.6055,2.5211,0.5746,0.0655,0.0344,-0.1015,-51.7500,10.9500,24.3000,9.4810,1.3192,0.0958,-0.0320,0.0221,0.0093,-68.2500,25.3500,-12.1500,2.9400,4.7400,-8.2500,-0.0393,0.0327,-0.0185,-29.0625,-20.6875,16.8750,247.7500,17.5000,-151.6875,0
443.389,9.6055,2.5211,0.5746,0.0655,0.0344,-0.1015,-51.7500,10.9500,24.3000,9.4810,1.3192,0.0958,0.0256,0.0253,0.0048,-67.5000,26.1000,-12.1500,2.9400,4.7400,-8.2500,-0.0327,0.0295,-0.0185,-29.0625,-20.6875,16.8750,247.6875,17.5000,-151.6250,0
443.395,9.5122,2.4325,0.4453,0.0794,0.0557,-0.0871,-50.1000,10.0500,24.4500,9.5002,1.1779,-0.0718,0.0256,0.0253,0.0048,-67.5000,26.1000,-12.1500,2.9500,4.7200,-8.2700,-0.0327,0.0295,-0.0185,-29.0625,-20.6875,16.8750,247.6875,17.5000,-151.6250,0
443.399,9.5122,2.4325,0.4453,0.0794,0.0557,-0.0871,-50.1000,10.0500,24.4500,9.5002,1.1779,-0.0718,0.0618,0.0144,-0.0112,-67.5000,26.1000,-12.1500,2.9500,4.7200,-8.2700,-0.0240,0.0295,-0.0251,-29.0625,-20.6875,16.8750,247.6875,17.5000,-151.6250,0
443.405,9.6151,2.3008,0.3759,0.1164,0.0562,-0.0765,-51.1500,11.5500,24.9000,9.5792,1.2857,-0.1676,0.0618,0.0144,-0.0112,-67.5000,26.1000,-12.1500,2.9400,4.6900,-8.3000,-0.0240,0.0295,-0.0251,-29.0625,-20.6875,16.8750,247.6875,17.5000,-151.5625,0
443.414,9.7659,2.2098,0.3017,0.2302,0.0298,-0.0376,-50.1000,10.8000,24.9000,9.6845,0.8715,0.0239,0.1140,0.0258,-0.0176,-66.3000,23.8500,-12.1500,2.9100,4.6700,-8.3200,-0.0142,0.0240,-0.0273,-29.0625,-20.6875,16.8750,247.6875,17.5000,-151.5625,0
443.422,9.7612,2.2075,0.3184,0.3277,0.0024,0.0021,-50.4000,10.0500,23.4000,9.6845,0.8715,0.0239,0.1455,0.0437,-0.0317,-66.3000,23.8500,-12.1500,2.8900,4.6500,-8.3500,-0.0087,0.0273,-0.0305,-29.0625,-20.6875,16.8750,247.6250,17.5000,-151.5625,0
443.427,9.7612,2.2075,0.3184,0.3277,0.0024,0.0021,-50.4000,10.0500,23.4000,9.6462,0.7829,0.0838,0.1039,0.0424,-0.0357,-66.3000,23.8500,-12.1500,2.8900,4.6500,-8.3500,-0.0087,0.0273,-0.0305,-29.0625,-20.6875,16.8750,247.6250,17.5000,-151.5625,0
443.432,9.6175,2.0734,0.3256,0.3339,-0.0163,0.0109,-50.4000,10.0500,23.4000,9.6462,0.7829,0.0838,0.1039,0.0424,-0.0357,-67.6500,27.1500,-13.0500,2.9000,4.6300,-8.3500,-0.0142,0.0316,-0.0273,-29.8750,-20.6875,18.5000,247.6250,17.5000,-151.5625,0
443.436,9.6175,2.0734,0.3256,0.3339,-0.0163,0.0109,-50.4000,10.0500,23.4000,9.5888,1.0487,-0.1939,0.0099,0.0346,-0.0344,-67.6500,27.1500,-13.0500,2.9000,4.6300,-8.3500,-0.0142,0.0316,-0.0273,-29.8750,-20.6875,18.5000,247.6250,17.5000,-151.5625,0
443.441,9.5529,1.9178,0.1867,0.3051,0.0059,0.0173,-50.4000,10.0500,23.4000,9.5888,1.0487,-0.1939,0.0099,0.0346,-0.0344,-66.6000,25.2000,-12.3000,2.9300,4.6400,-8.3600,-0.0262,0.0371,-0.0218,-29.8750,-20.6875,18.5000,247.6250,17.5000,-151.5000,0
443.446,9.5529,1.9178,0.1867,0.3051,0.0059,0.0173,-50.4000,10.0500,23.4000,9.5193,1.4198,-0.2562,-0.0144,0.0365,-0.0450,-66.6000,25.2000,-12.3000,2.9300,4.6400,-8.3600,-0.0262,0.0371,-0.0218,-29.8750,-20.6875,18.5000,247.6250,17.5000,-151.5000,0
443.451,9.5505,1.8244,0.2179,0.2561,-0.0109,0.0139,-50.4000,10.8000,23.8500,9.5193,1.4198,-0.2562,-0.0144,0.0365,-0.0450,-66.0000,24.1500,-12.9000,2.9400,4.7000,-8.3300,-0.0327,0.0371,-0.0207,-29.8750,-20.6875,18.5000,247.6250,17.5000,-151.5000,0
443.456,9.5505,1.8244,0.2179,0.2561,-0.0109,0.0139,-50.4000,10.8000,23.8500,9.3972,1.6759,-0.2634,0.0128,0.0424,-0.0520,-66.0000,24.1500,-12.9000,2.9400,4.7000,-8.3300,-0.0327,0.0371,-0.0207,-29.8750,-20.6875,18.5000,247.5625,17.5000,-151.4375,0
443.464,9.4954,1.8771,0.1867,0.2158,-0.0203,0.0037,-51.0000,11.4000,24.0000,9.5505,1.7262,-0.1700,0.0362,0.0706,-0.0480,-67.2000,24.6000,-11.8500,2.9000,4.7600,-8.2900,-0.0415,0.0382,-0.0164,-29.8750,-20.6875,18.5000,247.5625,17.5000,-151.4375,0
443.472,9.5337,1.9800,0.2274,0.1751,-0.0440,-0.0107,-50.2500,10.2000,24.7500,9.5816,1.6472,-0.0072,0.0362,0.0706,-0.0480,-67.2000,24.6000,-11.8500,2.9300,4.7400,-8.2900,-0.0436,0.0382,-0.0164,-29.8750,-20.6875,18.5000,247.5625,17.5625,-151.4375,0
443.477,9.5337,1.9800,0.2274,0.1751,-0.0440,-0.0107,-50.2500,10.2000,24.7500,9.5816,1.6472,-0.0072,0.0642,0.0863,-0.0434,-67.2000,24.6000,-11.8500,2.9300,4.7400,-8.2900,-0.0436,0.0382,-0.0164,-29.8750,-20.6875,18.5000,247.5625,17.5625,-151.4375,0
443.482,9.6031,1.9489,0.2346,0.1058,-0.0429,-0.0258,-50.4000,11.5500,24.4500,9.5170,1.5706,-0.0694,0.0642,0.0863,-0.0434,-68.8500,25.2000,-12.7500,2.9500,4.7400,-8.3000,-0.0404,0.0360,-0.0153,-29.5000,-21.0000,17.6875,247.5625,17.5625,-151.3750,0
443.486,9.6031,1.9489,0.2346,0.1058,-0.0429,-0.0258,-50.4000,11.5500,24.4500,9.5170,1.5706,-0.0694,0.0536,0.0877,-0.0434,-68.8500,25.2000,-12.7500,2.9500,4.7400,-8.3000,-0.0404,0.0360,-0.0153,-29.5000,-21.0000,17.6875,247.5625,17.5625,-151.3750,0
443.491,9.5337,1.9178,0.2682,0.0533,-0.0506,-0.0474,-50.4000,11.5500,24.4500,9.5553,1.5538,-0.0215,0.0536,0.0877,-0.0434,-68.8500,25.2000,-12.7500,2.9400,4.7600,-8.2900,-0.0425,0.0393,-0.0142,-29.5000,-21.0000,17.6875,247.5625,17.5625,-151.3750,0
443.496,9.5337,1.9178,0.2682,0.0533,-0.0506,-0.0474,-50.4000,11.5500,24.4500,9.5553,1.5538,-0.0215,0.0466,0.0962,-0.0437,-68.8500,25.2000,-12.7500,2.9400,4.7600,-8.2900,-0.0425,0.0393,-0.0142,-29.5000,-21.0000,17.6875,247.5625,17.5625,-151.3750,0
443.501,9.4308,1.9393,0.3639,0.0104,-0.0285,-0.0698,-49.9500,10.6500,24.0000,9.4691,1.5802,0.1317,0.0466,0.0962,-0.0437,-66.7500,25.0500,-13.6500,2.9200,4.8100,-8.3100,-0.0382,0.0349,-0.0131,-29.5000,-21.0000,17.6875,247.5625,17.5625,-151.3125,0
443.506,9.4308,1.9393,0.3639,0.0104,-0.0285,-0.0698,-49.9500,10.6500,24.0000,9.4691,1.5802,0.1317,0.0133,0.0922,-0.0368,-66.7500,25.0500,-13.6500,2.9200,4.8100,-8.3100,-0.0382,0.0349,-0.0131,-29.5000,-21.0000,17.6875,247.5625,17.5625,-151.3125,0
443.514,9.5624,1.8938,0.4980,-0.0179,-0.0330,-0.0847,-49.5000,11.4000,24.7500,9.4451,1.6209,0.0072,-0.0125,0.0882,-0.0370,-67.6500,25.2000,-13.0500,3.0000,4.8100,-8.2500,-0.0371,0.0349,-0.0109,-29.5000,-21.0000,17.6875,247.5625,17.5625,-151.3125,0
443.521,9.5170,1.9513,0.5555,-0.0312,-0.0336,-0.0941,-49.3500,12.0000,24.9000,9.5912,1.6281,-0.0072,-0.0101,0.0930,-0.0277,-67.9500,25.8000,-11.4000,2.9700,4.7800,-8.3000,-0.0316,0.0284,-0.0109,-29.5000,-21.0000,17.6875,247.5000,17.5625,-151.2500,0
443.526,9.5170,1.9513,0.5555,-0.0312,-0.0336,-0.0941,-49.3500,12.0000,24.9000,9.5912,1.6281,-0.0072,-0.0101,0.0930,-0.0277,-67.9500,25.8000,-11.4000,2.9700,4.7800,-8.3000,-0.0316,0.0284,-0.0109,-29.5000,-21.0000,17.6875,247.5000,17.5625,-151.2500,0
443.531,9.5553,2.0231,0.6464,-0.0163,-0.0346,-0.0970,-48.6000,11.2500,23.1000,9.6079,1.6616,0.0694,-0.0226,0.0949,-0.0296,-65.8500,26.4000,-13.8000,2.9700,4.8100,-8.2900,-0.0262,0.0207,-0.0109,-29.5000,-21.0000,18.0625,247.5000,17.6250,-151.2500,0
443.535,9.5553,2.0231,0.6464,-0.0163,-0.0346,-0.0970,-48.6000,11.2500,23.1000,9.6079,1.6616,0.0694,-0.0226,0.0949,-0.0296,-65.8500,26.4000,-13.8000,2.9700,4.8100,-8.2900,-0.0262,0.0207,-0.0109,-29.5000,-21.0000,18.0625,247.5000,17.6250,-151.2500,0
443.540,9.5241,2.1955,0.7661,-0.0285,-0.0568,-0.1018,-50.8500,10.8000,24.1500,9.5505,1.7478,0.0814,0.0000,0.0986,-0.0245,-66.1500,25.9500,-12.7500,2.9700,4.8100,-8.2900,-0.0251,0.0207,-0.0055,-29.5000,-21.0000,18.0625,247.5000,17.6250,-151.1875,0
443.545,9.5241,2.1955,0.7661,-0.0285,-0.0568,-0.1018,-50.8500,10.8000,24.1500,9.5505,1.7478,0.0814,0.0000,0.0986,-0.0245,-66.1500,25.9500,-12.7500,2.9700,4.7800,-8.2900,-0.0251,0.0207,-0.0055,-29.5000,-21.0000,18.0625,247.5000,17.6250,-151.1875,0
443.550,9.4403,2.3272,0.8715,-0.0203,-0.0600,-0.1037,-50.8500,10.8000,24.1500,9.5361,1.6089,-0.0072,0.0205,0.1103,-0.0253,-66.1500,25.9500,-12.7500,2.9700,4.7800,-8.2900,-0.0229,0.0196,-0.0065,-29.5000,-21.0000,18.0625,247.5000,17.6250,-151.1875,0
443.555,9.4403,2.3272,0.8715,-0.0203,-0.0600,-0.1037,-50.8500,10.8000,24.1500,9.5361,1.6089,-0.0072,0.0205,0.1103,-0.0253,-66.6000,25.2000,-13.0500,2.9800,4.7600,-8.3000,-0.0229,0.0196,-0.0065,-29.5000,-21.0000,18.0625,247.5000,17.6250,-151.1875,0
443.564,9.4643,2.4301,1.0008,-0.0003,-0.0520,-0.1191,-50.1000,10.5000,23.8500,9.5385,1.6568,0.2035,0.0213,0.1077,-0.0229,-66.6000,25.2000,-13.0500,2.9600,4.8000,-8.2600,-0.0196,0.0175,-0.0044,-29.5000,-21.0000,18.0625,247.5000,17.6250,-151.1875,0
443.572,9.5050,2.4780,0.9792,0.0248,-0.0714,-0.1204,-50.1000,10.5000,24.1500,9.5050,1.4629,0.4453,0.0298,0.1013,-0.0226,-66.6000,25.5000,-12.0000,2.9300,4.8200,-8.2600,-0.0175,0.0218,-0.0033,-29.5000,-21.0000,18.0625,247.5000,17.6250,-151.1250,0
443.577,9.4978,2.4588,1.1779,0.0458,-0.0874,-0.1170,-50.1000,10.5000,24.1500,9.5050,1.4629,0.4453,0.0298,0.1013,-0.0226,-66.6000,25.5000,-12.0000,2.9300,4.8200,-8.2600,-0.0175,0.0218,-0.0033,-29.5000,-21.0000,18.0625,247.5000,17.6250,-151.1250,0
443.582,9.4978,2.4588,1.1779,0.0458,-0.0874,-0.1170,-50.1000,10.5000,23.4000,9.5170,1.3671,0.6752,0.0109,0.0941,-0.0272,-67.2000,25.3500,-12.1500,2.9700,4.7900,-8.2400,-0.0175,0.0164,-0.0022,-30.5625,-20.6875,17.6875,247.5000,17.6250,-151.1250,0
443.586,9.4260,2.2841,1.2905,0.0493,-0.0898,-0.1210,-49.6500,10.8000,23.4000,9.6414,1.2498,0.8260,0.0109,0.0941,-0.0272,-67.2000,25.3500,-12.1500,2.9700,4.7900,-8.2400,-0.0175,0.0164,-0.0022,-30.5625,-20.6875,17.6875,247.5000,17.6250,-151.1250,0
443.595,9.4715,2.0231,1.4557,0.0472,-0.0743,-0.1154,-49.6500,10.8000,23.4000,9.6414,1.2498,0.8260,-0.0408,0.0674,-0.0285,-65.4000,24.7500,-12.3000,2.9900,4.8000,-8.2700,-0.0076,0.0076,0.0022,-30.5625,-20.6875,17.6875,247.5000,17.6250,-151.1250,0
443.603,9.4715,2.0231,1.4557,0.0472,-0.0743,-0.1154,-49.6500,10.8000,23.4000,9.7229,1.0989,0.9457,-0.0695,0.0453,-0.0376,-66.9000,25.5000,-12.3000,2.9900,4.7900,-8.2800,-0.0022,-0.0033,0.0044,-30.5625,-20.6875,17.6875,247.5000,17.6250,-151.1250,0
443.608,9.4475,1.7621,1.6305,0.0706,-0.0711,-0.0909,-49.9500,10.6500,24.7500,9.7707,0.9601,0.9768,-0.1170,0.0272,-0.0346,-66.9000,25.5000,-12.3000,2.9900,4.7900,-8.2800,-0.0022,-0.0033,0.0044,-30.5625,-20.6875,17.6875,247.5000,17.6250,-151.1250,0
443.615,9.3829,1.7142,1.5610,0.1132,-0.0501,-0.0576,-49.9500,10.6500,24.7500,9.7707,0.9601,0.9768,-0.1170,0.0272,-0.0346,-65.1000,25.2000,-13.0500,3.0000,4.7200,-8.3100,-0.0022,-0.0055,0.0044,-30.5625,-20.6875,17.6875,247.5000,17.6250,-151.1250,0
443.624,9.3637,1.8244,1.4317,0.2134,-0.0445,-0.0221,-49.2000,12.4500,22.9500,9.8210,1.1037,0.9529,-0.1426,-0.0131,-0.0416,-66.1500,25.2000,-13.0500,3.0100,4.6900,-8.3000,-0.0098,-0.0055,0.0087,-30.5625,-20.6875,17.6875,247.5000,17.6250,-151.1250,0
443.628,9.3637,1.8244,1.4317,0.2134,-0.0445,-0.0221,-48.9000,10.5000,22.0500,9.7683,1.2115,0.9313,-0.1300,-0.0261,-0.0501,-66.1500,25.2000,-13.0500,3.0100,4.6900,-8.3000,-0.0098,-0.0055,0.0087,-30.5625,-20.6875,17.6875,247.5000,17.6250,-151.1250,0
443.634,9.4379,1.9513,1.2665,0.3437,-0.0312,0.0288,-48.9000,10.5000,22.0500,9.7683,1.2115,0.9313,-0.1300,-0.0261,-0.0501,-66.1500,25.2000,-13.0500,2.9700,4.6600,-8.3100,-0.0218,-0.0087,0.0109,-29.8750,-21.7500,18.0625,247.5000,17.6250,-151.0625,0
443.639,9.4379,1.9513,1.2665,0.3437,-0.0312,0.0288,-49.6500,11.5500,23.1000,9.8737,1.0415,1.1420,-0.1055,-0.0472,-0.0658,-66.1500,25.2000,-13.0500,2.9700,4.6600,-8.3100,-0.0295,-0.0022,0.0120,-29.8750,-21.7500,18.0625,247.5000,17.6250,-151.0625,0
443.645,9.4619,2.0183,1.1253,0.4421,-0.0013,0.0735,-49.6500,11.5500,23.1000,9.7324,1.1827,1.0606,-0.0871,-0.0669,-0.0674,-66.7500,25.3500,-11.1000,2.9600,4.6300,-8.3100,-0.0295,-0.0022,0.0120,-29.8750,-21.7500,18.0625,247.5000,17.6250,-151.0625,0
443.654,9.4212,2.0255,0.9481,0.5268,0.0085,0.1098,-51.3000,11.7000,23.5500,9.9551,1.5060,0.8835,-0.0871,-0.0669,-0.0674,-66.7500,25.3500,-11.1000,2.9900,4.5800,-8.3700,-0.0415,0.0044,0.0120,-29.8750,-21.7500,18.0625,247.5000,17.6250,-151.0625,0
443.662,9.4715,2.1476,0.8811,0.6014,0.0277,0.1372,-51.3000,11.7000,23.5500,9.9551,1.5060,0.8835,-0.0749,-0.0858,-0.0610,-66.0000,25.0500,-11.4000,3.0100,4.5600,-8.3200,-0.0556,0.0120,0.0153,-29.8750,-21.7500,18.0625,247.5625,17.6250,-151.0000,0
443.667,9.4715,2.1476,0.8811,0.6014,0.0277,0.1372,-51.4500,12.0000,23.8500,9.7947,1.7669,0.7877,-0.0165,-0.1154,-0.0597,-66.0000,25.0500,-11.4000,3.0100,4.5600,-8.3200,-0.0556,0.0120,0.0153,-29.8750,-21.7500,18.0625,247.5625,17.6250,-151.0000,0
443.675,9.4547,2.2218,0.9146,0.6408,0.0360,0.1721,-51.4500,12.0000,23.8500,9.6223,1.9513,0.5986,0.0520,-0.1164,-0.0576,-67.5000,26.5500,-11.8500,2.9900,4.5700,-8.3300,-0.0633,0.0284,0.0087,-29.8750,-21.7500,18.0625,247.5625,17.6250,-151.0000,0
443.680,9.4547,2.2218,0.9146,0.6408,0.0360,0.1721,-50.8500,11.2500,22.8000,9.6223,1.9513,0.5986,0.0520,-0.1164,-0.0576,-67.5000,26.5500,-11.8500,2.9900,4.5700,-8.3300,-0.0633,0.0284,0.0087,-29.8750,-21.7500,18.0625,247.5625,17.6875,-150.9375,0
443.685,9.4691,2.3559,0.8906,0.6512,0.0354,0.1855,-50.8500,11.2500,22.8000,9.6941,1.8723,0.7614,0.0621,-0.1298,-0.0538,-66.3000,25.8000,-11.8500,2.9600,4.5800,-8.2400,-0.0731,0.0305,0.0044,-29.5000,-22.1875,17.6875,247.5625,17.6875,-150.9375,0
443.690,9.4691,2.3559,0.8906,0.6512,0.0354,0.1855,-50.2500,12.1500,23.2500,9.6941,1.8723,0.7614,0.0621,-0.1298,-0.0538,-66.3000,25.8000,-11.8500,2.9600,4.5800,-8.2400,-0.0731,0.0305,0.0044,-29.5000,-22.1875,17.6875,247.5625,17.6875,-150.8750,0
443.695,9.4116,2.4732,1.0415,0.6392,0.0528,0.1932,-49.5000,11.7000,23.2500,9.6798,1.9704,0.7709,0.0823,-0.1596,-0.0629,-67.3500,26.4000,-12.0000,2.9100,4.7800,-8.1500,-0.0829,0.0360,-0.0022,-29.5000,-22.1875,17.6875,247.5625,17.6875,-150.8750,0
443.700,9.4116,2.4732,1.0415,0.6392,0.0528,0.1932,-49.5000,11.7000,23.2500,9.6798,1.9704,0.7709,0.0823,-0.1596,-0.0629,-67.3500,26.4000,-12.0000,2.9100,4.7800,-8.1500,-0.0774,0.0295,-0.0033,-29.5000,-22.1875,17.6875,247.5625,17.6875,-150.8125,0
443.705,9.3541,2.5307,1.2163,0.5961,0.0743,0.2022,-49.5000,11.7000,23.2500,9.5888,1.9058,0.6105,0.1247,-0.1860,-0.0653,-67.3500,26.4000,-12.0000,2.8600,4.9300,-8.1800,-0.0774,0.0295,-0.0033,-29.5000,-22.1875,17.6875,247.5625,17.6875,-150.8125,0
443.714,9.3326,2.5283,1.2857,0.5396,0.1013,0.2044,-49.5000,11.7000,23.2500,9.6893,1.7885,0.4166,0.2022,-0.1860,-0.0557,-66.0000,25.3500,-12.9000,3.0200,4.7400,-8.1900,-0.0545,0.0218,-0.0022,-29.5000,-22.1875,17.6875,247.5625,17.6875,-150.8125,0
443.721,9.5265,2.5259,1.3647,0.5305,0.1194,0.2185,-50.4000,12.0000,22.3500,9.6893,1.7885,0.4166,0.2022,-0.1860,-0.0557,-66.0000,25.3500,-12.9000,2.9800,4.7300,-8.2300,-0.0316,0.0196,-0.0011,-29.5000,-22.1875,17.6875,247.5625,17.6875,-150.7500,0
443.726,9.5265,2.5259,1.3647,0.5305,0.1194,0.2185,-50.4000,11.2500,22.0500,9.6391,1.7047,0.2011,0.2443,-0.1881,-0.0504,-66.0000,25.3500,-12.9000,2.9800,4.7300,-8.2300,-0.0316,0.0196,-0.0011,-29.5000,-22.1875,17.6875,247.5625,17.6875,-150.7500,0
443.730,9.5385,2.4852,1.1947,0.5796,0.1271,0.2491,-50.4000,11.2500,22.0500,9.6295,1.4605,0.0215,0.2443,-0.1881,-0.0504,-66.0000,25.3500,-12.9000,2.9600,4.6700,-8.2300,-0.0153,0.0175,-0.0033,-29.8750,-20.6875,17.6875,247.5625,17.6875,-150.7500,0
443.735,9.5385,2.4852,1.1947,0.5796,0.1271,0.2491,-49.6500,11.2500,22.3500,9.6295,1.4605,0.0215,0.2609,-0.1913,-0.0541,-66.1500,24.7500,-12.3000,2.9600,4.6700,-8.2300,-0.0153,0.0175,-0.0033,-29.8750,-20.6875,17.6875,247.5625,17.6875,-150.7500,0
443.744,9.5624,2.4325,0.9242,0.6512,0.1175,0.2502,-50.1000,12.0000,22.8000,9.6702,1.4796,-0.0575,0.2356,-0.2017,-0.0525,-67.5000,25.8000,-12.4500,2.9700,4.5700,-8.2800,-0.0120,0.0207,0.0011,-29.8750,-20.6875,17.6875,247.5625,17.7500,-150.7500,0
443.751,9.5122,2.3176,0.6991,0.7194,0.1045,0.2393,-50.1000,12.0000,22.8000,9.5433,1.6616,-0.1149,0.2094,-0.2073,-0.0458,-67.5000,25.8000,-12.4500,2.9500,4.5500,-8.2900,-0.0175,0.0175,0.0000,-29.8750,-20.6875,17.6875,247.5625,17.7500,-150.7500,0
443.756,9.5122,2.3176,0.6991,0.7194,0.1045,0.2393,-49.9500,10.2000,22.2000,9.5433,1.6616,-0.1149,0.2094,-0.2073,-0.0458,-67.2000,25.0500,-12.9000,2.9500,4.5500,-8.2900,-0.0175,0.0175,0.0000,-29.8750,-20.6875,17.6875,247.5625,17.7500,-150.7500,0
443.765,9.5313,2.0758,0.3879,0.7738,0.0962,0.2177,-49.9500,10.2000,22.2000,9.5744,1.7549,-0.0670,0.2364,-0.2089,-0.0410,-66.6000,27.1500,-13.5000,2.9900,4.5900,-8.2300,-0.0284,0.0240,0.0055,-29.8750,-20.6875,17.6875,247.5625,17.7500,-150.7500,0
443.772,9.6175,1.8435,0.4238,0.7943,0.0661,0.2097,-49.9500,10.2000,22.2000,9.6151,1.7741,-0.0694,0.2590,-0.2065,-0.0445,-66.6000,27.1500,-13.5000,2.9700,4.5500,-8.2500,-0.0349,0.0262,0.0044,-29.8750,-20.6875,17.6875,247.5625,17.7500,-150.6875,0
443.777,9.6175,1.8435,0.4238,0.7943,0.0661,0.2097,-48.6000,12.0000,21.6000,9.6151,1.7741,-0.0694,0.2590,-0.2065,-0.0445,-64.8000,25.3500,-13.6500,2.9700,4.5500,-8.2500,-0.0349,0.0262,0.0044,-29.8750,-20.6875,17.6875,247.5625,17.7500,-150.6875,0
443.782,9.5912,1.6257,0.4334,0.7978,0.0520,0.1953,-48.6000,12.0000,21.6000,9.5193,1.6975,-0.1891,0.2497,-0.2052,-0.0312,-64.8000,25.3500,-13.6500,2.9800,4.5500,-8.2600,-0.0425,0.0327,0.0076,-29.5000,-21.0000,17.6875,247.5625,17.7500,-150.6875,0
443.787,9.5912,1.6257,0.4334,0.7978,0.0520,0.1953,-49.5000,12.9000,22.2000,9.5193,1.6975,-0.1891,0.2497,-0.2052,-0.0312,-66.6000,25.2000,-11.5500,2.9800,4.5500,-8.2600,-0.0425,0.0327,0.0076,-29.5000,-21.0000,17.6875,247.5625,17.7500,-150.6875,0
443.791,9.5553,1.4964,0.3424,0.7637,0.0394,0.1820,-49.5000,12.9000,22.2000,9.4858,1.8196,-0.2274,0.2481,-0.2017,-0.0290,-66.6000,25.2000,-11.5500,3.0100,4.5500,-8.2600,-0.0524,0.0338,0.0087,-29.5000,-21.0000,17.6875,247.5625,17.8125,-150.6250,0
443.796,9.5553,1.4964,0.3424,0.7637,0.0394,0.1820,-49.3500,12.3000,22.0500,9.4858,1.8196,-0.2274,0.2481,-0.2017,-0.0290,-66.6000,25.2000,-11.5500,3.0100,4.5500,-8.2600,-0.0524,0.0338,0.0087,-29.5000,-21.0000,17.6875,247.5625,17.8125,-150.6250,0
443.801,9.4284,1.4413,0.3160,0.7085,0.0285,0.1732,-49.3500,12.3000,22.0500,9.4403,1.9872,-0.2490,0.2545,-0.2041,-0.0266,-66.6000,25.2000,-11.5500,3.0200,4.5700,-8.2200,-0.0535,0.0305,0.0098,-29.5000,-21.0000,17.6875,247.5625,17.8125,-150.6250,0
443.806,9.4284,1.4413,0.3160,0.7085,0.0285,0.1732,-48.7500,11.7000,21.1500,9.4403,1.9872,-0.2490,0.2545,-0.2041,-0.0266,-66.3000,26.5500,-13.6500,3.0200,4.5700,-8.2200,-0.0535,0.0305,0.0098,-29.5000,-21.0000,17.6875,247.5625,17.8125,-150.5625,0
443.815,9.4906,1.3743,0.1891,0.6233,0.0288,0.1551,-48.7500,11.7000,21.1500,9.4715,2.0542,-0.4094,0.2734,-0.2113,-0.0256,-66.1500,25.9500,-13.5000,3.0300,4.5700,-8.1600,-0.0491,0.0305,0.0087,-29.5000,-21.0000,17.6875,247.5625,17.8125,-150.5625,0
443.823,9.5146,1.4437,0.1245,0.5321,0.0213,0.1498,-48.7500,11.7000,21.1500,9.5505,1.9872,-0.2945,0.3395,-0.1815,-0.0141,-66.1500,25.9500,-13.5000,3.0000,4.6200,-8.1800,-0.0404,0.0295,0.0076,-29.5000,-21.0000,17.6875,247.5625,17.8125,-150.5625,0
443.828,9.5481,1.4892,0.0838,0.4357,-0.0298,0.1348,-50.4000,14.5500,22.0500,9.4763,1.8244,-0.2322,0.3395,-0.1815,-0.0141,-66.0000,26.5500,-13.9500,3.0000,4.6200,-8.1800,-0.0404,0.0295,0.0076,-29.5000,-21.0000,17.6875,247.5625,17.8125,-150.5625,0
443.832,9.5481,1.4892,0.0838,0.4357,-0.0298,0.1348,-50.4000,14.5500,22.0500,9.4763,1.8244,-0.2322,0.3323,-0.1871,-0.0048,-66.0000,26.5500,-13.9500,2.9400,4.6000,-8.1900,-0.0327,0.0251,0.0065,-29.5000,-20.6875,17.2500,247.5625,17.8750,-150.5625,0
443.837,9.6678,1.5706,0.0479,0.3722,-0.0133,0.1186,-48.6000,12.3000,21.3000,9.5409,1.6065,-0.2777,0.3323,-0.1871,-0.0048,-66.9000,25.9500,-13.5000,2.9400,4.6000,-8.1900,-0.0327,0.0251,0.0065,-29.5000,-20.6875,17.2500,247.5625,17.8750,-150.5625,0
443.842,9.6678,1.5706,0.0479,0.3722,-0.0133,0.1186,-48.6000,12.3000,21.3000,9.5409,1.6065,-0.2777,0.2920,-0.1839,-0.0064,-66.9000,25.9500,-13.5000,2.9900,4.6000,-8.2000,-0.0251,0.0218,0.0076,-29.5000,-20.6875,17.2500,247.5625,17.8750,-150.5000,0
443.847,9.6798,1.6185,0.0335,0.3110,-0.0096,0.0981,-48.7500,11.4000,20.7000,9.5074,1.6472,-0.4070,0.2348,-0.1860,0.0005,-65.2500,26.5500,-13.9500,2.9900,4.6000,-8.2000,-0.0251,0.0218,0.0076,-29.5000,-20.6875,17.2500,247.5625,17.8750,-150.5000,0
443.852,9.6798,1.6185,0.0335,0.3110,-0.0096,0.0981,-48.7500,11.4000,20.7000,9.5074,1.6472,-0.4070,0.2348,-0.1860,0.0005,-65.2500,26.5500,-13.9500,3.0200,4.5200,-8.2000,-0.0229,0.0175,0.0109,-29.5000,-20.6875,17.2500,247.5625,17.8750,-150.5000,0
443.857,9.6869,1.6999,0.0718,0.2507,-0.0333,0.0911,-50.5500,11.7000,21.9000,9.4954,1.7597,-0.6225,0.1724,-0.1887,0.0125,-66.9000,25.9500,-14.2500,3.0200,4.5200,-8.2000,-0.0229,0.0175,0.0109,-29.5000,-20.6875,17.2500,247.5625,17.8750,-150.5000,0
443.865,9.6869,1.6999,0.0718,0.2507,-0.0333,0.0911,-51.3000,13.2000,20.7000,9.4044,1.7454,-0.6416,0.1724,-0.1887,0.0125,-66.9000,25.9500,-14.2500,3.0300,4.5200,-8.2500,-0.0196,0.0142,0.0098,-29.5000,-20.6875,17.2500,247.5625,17.8750,-150.5000,0
443.871,9.5864,1.8124,0.0790,0.2350,-0.0506,0.0682,-51.3000,13.2000,20.7000,9.4044,1.7454,-0.6416,0.1748,-0.1692,0.0139,-66.9000,25.9500,-14.2500,3.0300,4.5000,-8.2300,-0.0218,0.0120,0.0109,-29.5000,-20.6875,17.2500,247.5625,17.8750,-150.5000,0
443.876,9.7827,1.8938,-0.0503,0.2356,-0.0685,0.0504,-51.3000,13.2000,20.7000,9.4954,1.8651,-0.7494,0.1868,-0.1585,0.0184,-65.8500,26.4000,-13.8000,3.0300,4.5000,-8.2300,-0.0218,0.0120,0.0109,-29.5000,-20.6875,17.2500,247.5625,17.8750,-150.5000,0
443.881,9.7827,1.8938,-0.0503,0.2356,-0.0685,0.0504,-51.3000,13.2000,20.7000,9.4954,1.8651,-0.7494,0.1868,-0.1585,0.0184,-65.8500,26.4000,-13.8000,3.0000,4.5000,-8.2300,-0.0207,0.0109,0.0109,-30.1875,-19.5000,16.5000,247.5625,17.8750,-150.5000,0
443.886,9.6343,1.9968,0.0072,0.2374,-0.1252,0.0322,-48.0000,13.9500,21.1500,9.4379,1.7621,-0.8068,0.1751,-0.1514,0.0165,-65.8500,26.4000,-13.8000,3.0000,4.5000,-8.2300,-0.0207,0.0109,0.0109,-30.1875,-19.5000,16.5000,247.5625,17.8750,-150.5000,0
443.895,9.6247,1.9872,0.0622,0.2574,-0.1399,0.0147,-49.5000,12.1500,22.2000,9.4451,1.8794,-0.7207,0.1751,-0.1514,0.0165,-66.3000,26.1000,-13.6500,3.0400,4.4800,-8.2200,-0.0207,0.0076,0.0131,-30.1875,-19.5000,16.5000,247.5625,17.8750,-150.5000,0
443.901,9.6247,1.9872,0.0622,0.2574,-0.1399,0.0147,-49.5000,12.1500,22.2000,9.4451,1.8794,-0.7207,0.1887,-0.1330,0.0211,-66.3000,26.1000,-13.6500,3.0100,4.4900,-8.2600,-0.0251,0.0120,0.0131,-30.1875,-19.5000,16.5000,247.5625,17.8750,-150.4375,0
443.906,9.5193,2.2218,0.0048,0.2686,-0.1620,-0.0107,-48.3000,12.7500,21.6000,9.3853,1.9632,-0.8356,0.1681,-0.1244,0.0296,-66.3000,26.1000,-14.4000,3.0100,4.4900,-8.2600,-0.0251,0.0120,0.0131,-30.1875,-19.5000,16.5000,247.5625,17.9375,-150.4375,0
443.915,9.4786,2.2027,-0.0311,0.2955,-0.1823,-0.0362,-49.5000,12.4500,22.2000,9.3589,2.0901,-0.8882,0.1519,-0.1053,0.0293,-65.8500,26.7000,-14.2500,3.0400,4.5100,-8.2200,-0.0295,0.0120,0.0164,-30.1875,-19.5000,16.5000,247.5625,17.9375,-150.4375,0
443.922,9.4786,2.2027,-0.0311,0.2955,-0.1823,-0.0362,-49.5000,12.4500,22.2000,9.3589,2.0901,-0.8882,0.1519,-0.1053,0.0293,-65.8500,26.7000,-14.2500,3.0200,4.5200,-8.2100,-0.0316,0.0196,0.0153,-30.1875,-19.5000,16.5000,247.6250,17.9375,-150.4375,0
443.927,9.6438,2.2290,-0.1341,0.3267,-0.2009,-0.0554,-49.5000,12.4500,22.2000,9.3685,2.0734,-0.9337,0.1655,-0.0879,0.0432,-67.2000,25.8000,-14.4000,3.0200,4.5200,-8.2100,-0.0316,0.0196,0.0153,-30.1875,-19.5000,16.5000,247.6250,17.9375,-150.4375,0
443.932,9.6438,2.2290,-0.1341,0.3267,-0.2009,-0.0554,-49.5000,12.1500,21.9000,9.3685,2.0734,-0.9337,0.1655,-0.0879,0.0432,-67.2000,25.8000,-14.4000,3.0400,4.5200,-8.2000,-0.0284,0.0153,0.0131,-29.8750,-21.7500,17.2500,247.6250,17.9375,-150.4375,0
443.937,9.5888,2.2482,0.0335,0.3571,-0.2403,-0.0906,-49.5000,12.1500,21.9000,9.3853,1.9249,-0.7159,0.1791,-0.0541,0.0320,-67.2000,25.8000,-14.4000,3.0400,4.5200,-8.2000,-0.0284,0.0153,0.0131,-29.8750,-21.7500,17.2500,247.6250,17.9375,-150.4375,0
443.941,9.5888,2.2482,0.0335,0.3571,-0.2403,-0.0906,-50.2500,12.9000,20.4000,9.3853,1.9249,-0.7159,0.1791,-0.0541,0.0320,-67.2000,25.8000,-14.4000,3.0100,4.5500,-8.1500,-0.0229,0.0153,0.0131,-29.8750,-21.7500,17.2500,247.6250,17.9375,-150.4375,0
443.946,9.5720,2.2410,0.1963,0.3691,-0.2558,-0.1159,-50.2500,12.9000,20.4000,9.5936,1.9992,-0.5100,0.1346,-0.0706,0.0362,-67.3500,25.2000,-14.5500,3.0100,4.5500,-8.1500,-0.0229,0.0153,0.0131,-29.8750,-21.7500,17.2500,247.6250,17.9375,-150.4375,0
443.951,9.5720,2.2410,0.1963,0.3691,-0.2558,-0.1159,-49.2000,12.1500,20.4000,9.5936,1.9992,-0.5100,0.1346,-0.0706,0.0362,-67.3500,25.2000,-14.5500,2.9000,4.5800,-8.1700,-0.0164,0.0109,0.0109,-29.8750,-21.7500,17.2500,247.6250,17.9375,-150.4375,0
443.956,9.6534,2.0327,0.5004,0.3376,-0.2691,-0.1450,-49.2000,12.1500,20.4000,9.5744,2.1883,-0.1006,0.1180,-0.0874,0.0469,-67.3500,25.2000,-14.5500,2.9000,4.5800,-8.1700,-0.0164,0.0109,0.0109,-29.8750,-21.7500,17.2500,247.6250,17.9375,-150.4375,0
443.965,9.5026,1.8340,0.7949,0.2721,-0.2958,-0.1847,-48.7500,13.2000,21.1500,9.6798,2.3248,0.0575,0.1338,-0.0986,0.0669,-66.6000,27.1500,-15.3000,3.0700,4.5100,-8.2000,-0.0033,0.0033,0.0164,-29.8750,-21.7500,17.2500,247.6250,17.9375,-150.4375,0
443.974,9.4954,1.5323,1.0247,0.2081,-0.2952,-0.2233,-51.3000,12.9000,21.4500,9.7133,2.5331,0.1245,0.1436,-0.1079,0.0871,-66.6000,27.1500,-15.3000,3.0600,4.5300,-8.2100,0.0022,0.0055,0.0207,-29.8750,-21.7500,17.2500,247.6250,17.9375,-150.4375,0
443.978,9.4954,1.5323,1.0247,0.2081,-0.2952,-0.2233,-51.3000,12.9000,21.4500,9.7133,2.5331,0.1245,0.1436,-0.1079,0.0871,-65.8500,26.4000,-14.2500,3.0600,4.5300,-8.2100,0.0022,0.0055,0.0207,-29.8750,-21.7500,17.2500,247.6250,17.9375,-150.4375,0
443.983,9.4284,1.3958,1.1875,0.1364,-0.3062,-0.2574,-51.3000,12.9000,21.4500,9.6343,2.3008,0.1293,0.1529,-0.1207,0.0994,-65.8500,26.4000,-14.2500,3.0500,4.5700,-8.2200,0.0000,0.0065,0.0185,-30.8750,-21.7500,17.2500,247.6250,18.0000,-150.4375,0
443.988,9.4284,1.3958,1.1875,0.1364,-0.3062,-0.2574,-51.3000,12.9000,21.4500,9.6343,2.3008,0.1293,0.1529,-0.1207,0.0994,-65.2500,27.0000,-15.1500,3.0500,4.5700,-8.2200,0.0000,0.0065,0.0185,-30.8750,-21.7500,17.2500,247.6875,18.0000,-150.4375,0
443.995,9.3182,1.2306,1.2833,0.0975,-0.2976,-0.2894,-49.5000,13.6500,20.1000,9.5002,1.7573,0.0503,0.1426,-0.1378,0.0954,-67.5000,26.5500,-15.4500,3.0500,4.6300,-8.1500,-0.0065,0.0120,0.0164,-30.8750,-21.7500,17.2500,247.6875,18.0000,-150.4375,0
444.005,8.8969,1.0199,1.4054,0.1047,-0.2856,-0.2990,-48.3000,13.8000,19.9500,9.5074,1.3192,-0.1341,0.0698,-0.1719,0.1039,-66.6000,26.7000,-16.0500,3.0900,4.6300,-8.1200,-0.0087,0.0175,0.0164,-30.8750,-21.7500,17.2500,247.6875,18.0000,-150.4375,0
444.010,8.8969,1.0199,1.4054,0.1047,-0.2856,-0.2990,-48.9000,12.3000,20.2500,9.5313,1.2043,-0.1915,0.0698,-0.1719,0.1039,-66.6000,26.7000,-16.0500,3.0900,4.6300,-8.1200,-0.0044,0.0120,0.0109,-30.8750,-21.7500,17.2500,247.6875,18.0000,-150.4375,0
444.016,9.4906,1.1708,1.2713,0.1228,-0.2129,-0.2819,-48.9000,12.3000,20.2500,9.5313,1.2043,-0.1915,-0.0245,-0.1974,0.1146,-66.9000,26.4000,-15.6000,3.0600,4.5000,-8.1800,-0.0044,0.0120,0.0109,-30.8750,-21.7500,17.2500,247.6875,18.0000,-150.4375,0
444.025,9.2584,1.4892,1.2258,0.1202,-0.2702,-0.2758,-49.2000,14.4000,20.1000,9.4954,1.4293,-0.3328,-0.0954,-0.2262,0.1231,-66.9000,26.4000,-15.6000,3.0600,4.4000,-8.1800,0.0087,0.0055,0.0076,-30.8750,-21.7500,17.2500,247.6875,18.0000,-150.4375,0
444.030,9.4068,1.8268,0.9098,0.1335,-0.2888,-0.2603,-49.2000,14.4000,20.1000,9.5433,1.7334,-0.5339,-0.1154,-0.2459,0.1287,-66.9000,26.4000,-15.6000,3.0600,4.4000,-8.1800,0.0087,0.0055,0.0076,-30.8750,-21.7500,17.2500,247.6875,18.0000,-150.4375,0
444.035,9.4068,1.8268,0.9098,0.1335,-0.2888,-0.2603,-49.2000,14.4000,20.1000,9.5433,1.7334,-0.5339,-0.1154,-0.2459,0.1287,-66.9000,26.4000,-15.6000,3.0700,4.4100,-8.1700,0.0305,-0.0055,0.0055,-29.5000,-21.3750,16.8750,247.6875,18.0000,-150.4375,0
444.040,9.5529,2.3272,0.5315,0.1671,-0.3174,-0.2547,-49.2000,14.7000,19.6500,9.6678,1.9369,-0.6345,-0.0610,-0.2494,0.1399,-66.7500,27.0000,-14.7000,3.0700,4.4100,-8.1700,0.0305,-0.0055,0.0055,-29.5000,-21.3750,16.8750,247.6875,18.0000,-150.4375,0
444.045,9.5529,2.3272,0.5315,0.1671,-0.3174,-0.2547,-49.2000,14.7000,19.6500,9.6678,1.9369,-0.6345,-0.0610,-0.2494,0.1399,-66.7500,27.0000,-14.7000,3.0300,4.3700,-8.2600,0.0305,-0.0055,0.0055,-29.5000,-21.3750,16.8750,247.6875,18.0000,-150.5000,0
444.050,9.8043,2.7940,0.0910,0.1990,-0.4551,-0.2657,-48.7500,13.2000,20.4000,9.6654,2.0494,-0.6464,-0.0016,-0.2390,0.1346,-66.1500,25.5000,-13.0500,3.0300,4.3700,-8.2600,0.0295,-0.0011,0.0055,-29.5000,-21.3750,16.8750,247.6875,18.0000,-150.5000,0
444.056,9.8043,2.7940,0.0910,0.1990,-0.4551,-0.2657,-48.7500,13.2000,20.4000,9.6654,2.0494,-0.6464,-0.0016,-0.2390,0.1346,-66.7500,26.5500,-16.2000,3.0100,4.3700,-8.2500,0.0295,-0.0011,0.0055,-29.5000,-21.3750,16.8750,247.6875,18.0000,-150.5000,0
444.065,9.6845,3.2010,-0.2538,0.2473,-0.4946,-0.2843,-48.6000,12.7500,20.2500,9.5912,1.8196,-0.5626,0.0610,-0.2292,0.1412,-66.7500,26.5500,-16.2000,3.0100,4.4000,-8.2500,0.0185,0.0033,0.0065,-29.5000,-21.3750,16.8750,247.6875,18.0000,-150.5000,0
444.072,9.6678,3.3830,-0.4334,0.2939,-0.5052,-0.2992,-48.4500,13.6500,20.4000,9.6175,1.6185,-0.5507,0.0842,-0.2196,0.1500,-68.1000,26.4000,-14.2500,3.0500,4.3800,-8.2200,0.0120,0.0098,0.0120,-29.5000,-21.3750,16.8750,247.6875,18.0000,-150.5625,0
444.076,9.6678,3.3830,-0.4334,0.2939,-0.5052,-0.2992,-48.4500,13.6500,20.4000,9.7157,1.5179,-0.6249,0.0842,-0.2196,0.1500,-67.3500,26.7000,-14.5500,3.0500,4.3800,-8.2200,0.0120,0.0098,0.0120,-29.5000,-21.3750,16.8750,247.6875,18.0000,-150.5625,0
444.081,9.7348,3.4692,-0.5339,0.3032,-0.5436,-0.3232,-48.4500,14.4000,20.1000,9.7157,1.5179,-0.6249,0.0717,-0.2156,0.1633,-67.3500,26.7000,-14.5500,3.0200,4.3500,-8.2600,-0.0131,0.0196,0.0142,-29.8750,-21.0000,16.8750,247.6875,18.0000,-150.5625,0
444.086,9.7348,3.4692,-0.5339,0.3032,-0.5436,-0.3232,-48.4500,14.4000,20.1000,9.6702,1.3455,-0.6273,0.0717,-0.2156,0.1633,-65.8500,27.1500,-14.8500,3.0200,4.3500,-8.2600,-0.0131,0.0196,0.0142,-29.8750,-21.0000,16.8750,247.6875,18.0625,-150.5625,0
444.095,9.5241,3.3591,-0.5195,0.3357,-0.5542,-0.3240,-48.4500,14.4000,20.1000,9.6702,1.3455,-0.6273,0.0360,-0.2193,0.1700,-65.8500,27.1500,-14.8500,3.0200,4.3700,-8.2400,-0.0251,0.0185,0.0175,-29.8750,-21.0000,16.8750,247.6875,18.0625,-150.5625,0
444.102,9.4260,3.2657,-0.5650,0.3411,-0.5335,-0.3240,-48.9000,14.5500,20.5500,9.6582,1.2378,-0.5650,-0.0077,-0.2161,0.1756,-65.8500,27.1500,-14.8500,3.0600,4.3400,-8.2300,-0.0251,0.0185,0.0175,-29.8750,-21.0000,16.8750,247.6875,18.0625,-150.5625,0
444.107,9.4403,2.9616,-0.7135,0.3738,-0.5582,-0.3232,-48.9000,14.5500,20.5500,9.6965,1.2210,-0.7135,-0.0253,-0.2233,0.1801,-66.0000,25.0500,-15.9000,3.0600,4.3400,-8.2300,-0.0251,0.0185,0.0175,-29.8750,-21.0000,16.8750,247.6875,18.0625,-150.5625,0
444.115,9.4403,2.9616,-0.7135,0.3738,-0.5582,-0.3232,-48.4500,13.2000,20.4000,9.7013,1.3336,-0.5315,-0.0253,-0.2233,0.1801,-66.0000,25.0500,-15.9000,3.0500,4.3000,-8.2400,-0.0349,0.0305,0.0196,-29.8750,-21.0000,16.8750,247.6875,18.0625,-150.5625,0
444.122,9.4595,2.7773,-0.7207,0.4005,-0.5721,-0.3064,-48.3000,13.5000,20.5500,9.7013,1.3336,-0.5315,-0.0365,-0.2198,0.1801,-66.0000,25.0500,-15.9000,3.0600,4.2700,-8.2200,-0.0436,0.0382,0.0218,-29.8750,-21.0000,16.8750,247.7500,18.1250,-150.5625,0
444.127,9.4188,2.6504,-0.8763,0.4298,-0.5628,-0.2713,-48.3000,13.5000,20.5500,9.7037,1.3791,-0.5578,-0.0432,-0.2316,0.1745,-67.9500,26.1000,-14.4000,3.0600,4.2700,-8.2200,-0.0436,0.0382,0.0218,-29.8750,-21.0000,16.8750,247.7500,18.1250,-150.5625,0
444.131,9.4188,2.6504,-0.8763,0.4298,-0.5628,-0.2713,-49.3500,14.5500,19.5000,9.7037,1.3791,-0.5578,-0.0432,-0.2316,0.1745,-67.9500,26.1000,-14.4000,3.0600,4.2700,-8.2200,-0.0556,0.0393,0.0240,-29.5000,-20.6875,16.5000,247.7500,18.1250,-150.5625,0
444.136,9.3063,2.6336,-0.9050,0.4485,-0.5164,-0.2395,-49.3500,14.5500,19.5000,9.7540,1.5251,-0.5124,0.0021,-0.2324,0.1777,-67.9500,26.1000,-14.4000,3.0700,4.1700,-8.2500,-0.0556,0.0393,0.0240,-29.5000,-20.6875,16.5000,247.7500,18.1250,-150.5625,0
444.141,9.3063,2.6336,-0.9050,0.4485,-0.5164,-0.2395,-49.3500,14.5500,19.5000,9.7540,1.5251,-0.5124,0.0021,-0.2324,0.1777,-66.6000,26.7000,-15.3000,3.0700,4.1700,-8.2500,-0.0556,0.0393,0.0240,-29.5000,-20.6875,16.5000,247.7500,18.1250,-150.5625,0
444.146,9.3805,2.6647,-1.0080,0.4620,-0.4679,-0.2134,-49.3500,14.5500,19.5000,9.8402,1.6137,-0.4334,0.0594,-0.2486,0.1751,-66.6000,26.7000,-15.3000,3.0700,4.2800,-8.2100,-0.0513,0.0436,0.0262,-29.5000,-20.6875,16.5000,247.7500,18.1250,-150.5625,0
444.151,9.3805,2.6647,-1.0080,0.4620,-0.4679,-0.2134,-48.3000,16.0500,19.5000,9.8402,1.6137,-0.4334,0.0594,-0.2486,0.1751,-66.1500,25.9500,-14.8500,3.0700,4.2800,-8.2100,-0.0556,0.0513,0.0305,-29.5000,-20.6875,16.5000,247.7500,18.1875,-150.5000,0
444.156,9.3925,2.6719,-1.0271,0.4578,-0.4389,-0.1745,-48.3000,16.0500,19.5000,9.8210,1.6281,-0.2658,0.1466,-0.2582,0.1705,-66.1500,25.9500,-14.8500,3.0300,4.3300,-8.2600,-0.0556,0.0513,0.0305,-29.5000,-20.6875,16.5000,247.7500,18.1875,-150.5000,0
444.165,9.2799,2.6360,-1.0822,0.4122,-0.3960,-0.1495,-48.6000,15.0000,21.0000,9.6414,1.7813,-0.4788,0.1799,-0.2497,0.1529,-67.3500,25.5000,-15.3000,3.0500,4.3400,-8.2300,-0.0578,0.0633,0.0382,-29.5000,-20.6875,16.5000,247.8125,18.2500,-150.5000,0
444.170,9.2799,2.6360,-1.0822,0.4122,-0.3960,-0.1495,-48.0000,15.4500,20.7000,9.6414,1.7813,-0.4788,0.1799,-0.2497,0.1529,-67.3500,25.5000,-15.3000,3.0500,4.3400,-8.2300,-0.0469,0.0698,0.0469,-29.5000,-20.6875,16.5000,247.8125,18.2500,-150.5000,0
444.176,9.5696,2.6169,-1.2163,0.3957,-0.3307,-0.1047,-48.0000,15.4500,20.7000,9.4188,1.6879,-0.8452,0.1292,-0.1868,0.1388,-67.3500,25.5000,-15.3000,3.0800,4.3500,-8.2800,-0.0469,0.0698,0.0469,-29.5000,-20.6875,16.5000,247.8125,18.2500,-150.5000,0
444.181,9.5696,2.6169,-1.2163,0.3957,-0.3307,-0.1047,-48.0000,15.9000,19.0500,9.4188,1.6879,-0.8452,0.1292,-0.1868,0.1388,-67.5000,25.8000,-17.4000,3.0800,4.3500,-8.2800,-0.0251,0.0720,0.0578,-30.1875,-21.3750,16.0625,247.8750,18.3125,-150.5000,0
444.186,9.9766,2.8347,-1.3479,0.4788,-0.2753,-0.0256,-48.6000,15.0000,19.0500,9.8857,1.6281,-0.4717,0.0242,-0.2670,0.1332,-67.5000,25.8000,-17.4000,3.1200,4.2600,-8.3500,-0.0251,0.0720,0.0578,-30.1875,-21.3750,16.0625,247.8750,18.3125,-150.5000,0
444.191,9.9766,2.8347,-1.3479,0.4788,-0.2753,-0.0256,-48.6000,15.0000,19.9500,9.8857,1.6281,-0.4717,0.0242,-0.2670,0.1332,-67.5000,25.8000,-17.4000,3.1200,4.2600,-8.3500,-0.0076,0.0884,0.0654,-30.1875,-21.3750,16.0625,247.8750,18.3750,-150.5625,0
444.196,10.0772,3.1005,-1.3216,0.5089,-0.2862,0.0565,-48.6000,15.0000,19.9500,9.8234,1.7909,-0.6632,-0.0061,-0.3016,0.1268,-67.5000,25.8000,-17.4000,3.1900,3.9900,-8.4800,-0.0076,0.0884,0.0654,-30.1875,-21.3750,16.0625,247.8750,18.3750,-150.5625,0
444.201,10.0772,3.1005,-1.3216,0.5089,-0.2862,0.0565,-48.6000,15.0000,19.9500,9.8234,1.7909,-0.6632,-0.0061,-0.3016,0.1268,-67.9500,25.3500,-17.4000,3.1900,3.9900,-8.4800,0.0076,0.1658,0.0349,-30.1875,-21.3750,16.0625,247.8750,18.5000,-150.6250,0
444.206,9.9886,3.8954,-1.4365,0.5566,-0.2963,0.1577,-48.6000,15.0000,19.9500,10.0341,1.8651,-0.2921,-0.0602,-0.3512,0.1247,-67.9500,25.3500,-17.4000,3.3100,4.2300,-8.4700,0.0076,0.1658,0.0349,-30.1875,-21.3750,16.0625,247.8125,18.5625,-150.5625,0
444.215,9.9359,4.8459,-1.4748,0.7178,-0.2984,0.2057,-47.8500,16.5000,19.9500,9.9359,1.7693,-0.1197,-0.0301,-0.4098,0.1330,-67.3500,26.7000,-15.6000,3.8400,3.7000,-8.4400,-0.0458,0.2313,-0.0491,-30.1875,-21.3750,16.0625,247.8125,18.5625,-150.5625,0
444.225,9.7205,5.5689,-1.5251,0.9129,-0.2209,0.2033,-48.4500,16.9500,20.1000,9.9359,1.7095,0.1365,0.1644,-0.3810,0.1743,-67.3500,26.7000,-16.8000,3.7400,3.7800,-8.3600,-0.1887,0.1854,-0.1364,-30.1875,-21.3750,16.0625,247.7500,18.6250,-150.3750,0
444.230,9.7205,5.5689,-1.5251,0.9129,-0.2209,0.2033,-47.7000,17.4000,19.6500,10.0245,2.2146,0.4812,0.1644,-0.3810,0.1743,-66.9000,25.9500,-18.3000,3.7400,3.7800,-8.3600,-0.1887,0.1854,-0.1364,-30.1875,-21.3750,16.0625,247.7500,18.6250,-150.3750,0
444.235,9.3781,5.9759,-1.2546,1.0651,-0.1132,0.1460,-47.7000,17.4000,19.6500,10.0245,2.2146,0.4812,0.2769,-0.3693,0.2105,-66.9000,25.9500,-18.3000,3.5800,4.0400,-8.2300,-0.2509,0.0894,-0.1669,-30.1875,-21.3750,16.0625,247.6875,18.6250,-150.2500,0
444.240,9.3781,5.9759,-1.2546,1.0651,-0.1132,0.1460,-48.4500,16.6500,20.1000,10.1897,3.6679,0.3208,0.2769,-0.3693,0.2105,-68.2500,26.1000,-18.0000,3.5800,4.0400,-8.2300,-0.2509,0.0894,-0.1669,-30.1875,-21.3750,16.0625,247.6875,18.6250,-150.2500,0
444.245,9.1075,6.1890,-0.8499,1.0874,-0.1364,0.0927,-48.4500,16.6500,20.1000,10.1897,3.6679,0.3208,0.1375,-0.3994,0.2907,-68.2500,26.1000,-18.0000,3.5400,3.8500,-8.2300,-0.2083,0.0327,-0.1636,-30.1875,-21.3750,16.0625,247.5625,18.6250,-150.0625,0
444.250,9.1075,6.1890,-0.8499,1.0874,-0.1364,0.0927,-48.4500,16.6500,20.1000,10.2496,3.8188,0.6560,0.1375,-0.3994,0.2907,-69.0000,24.1500,-19.2000,3.5400,3.8500,-8.2300,-0.1549,0.0131,-0.1396,-30.1875,-21.3750,16.0625,247.5000,18.5625,-150.0000,0
444.256,8.8394,6.0717,-0.4070,1.1327,-0.1460,0.0298,-48.4500,16.6500,20.1000,10.2496,3.8188,0.6560,0.2489,-0.3861,0.3688,-69.0000,24.1500,-19.2000,3.7900,3.1000,-8.8400,-0.1549,0.0131,-0.1396,-30.1875,-21.3750,16.0625,247.4375,18.5000,-149.8750,0
444.266,8.7795,5.9185,-0.2155,1.1993,-0.0698,-0.0333,-46.9500,16.9500,20.1000,10.0054,4.7573,0.1628,0.3992,-0.3683,0.4399,-69.0000,24.1500,-19.2000,4.4800,3.5000,-8.5100,-0.1451,-0.0436,-0.1505,-30.1875,-21.3750,16.0625,247.3750,18.3750,-149.7500,0
444.276,8.8274,5.5162,0.0886,1.2859,0.0586,-0.0965,-47.1000,17.5500,18.1500,9.6127,4.6471,-0.5028,0.5766,-0.2499,0.4647,-68.7000,25.0500,-17.4000,4.8200,6.3000,-8.3300,-0.1374,-0.1756,-0.2574,-30.1875,-21.3750,16.0625,247.3750,18.3750,-149.7500,0
444.281,8.8274,5.5162,0.0886,1.2859,0.0586,-0.0965,-47.1000,17.5500,18.1500,9.6223,3.8116,-0.2442,1.0046,-0.1322,0.4679,-68.7000,26.1000,-17.4000,4.8200,6.3000,-8.3300,-0.1374,-0.1756,-0.2574,-30.1875,-21.3750,16.0625,247.3750,18.3750,-149.7500,0
444.286,9.1219,4.8363,0.5818,1.3678,0.2819,-0.1370,-48.6000,16.8000,18.4500,9.6223,3.8116,-0.2442,1.0046,-0.1322,0.4679,-68.7000,26.1000,-17.4000,4.8100,6.1100,-8.5600,0.0011,-0.2934,-0.5389,-29.5000,-21.7500,17.2500,247.1250,18.0625,-149.6875,0
444.290,9.1219,4.8363,0.5818,1.3678,0.2819,-0.1370,-48.6000,16.8000,18.4500,9.6678,2.4708,-0.6752,1.2313,-0.0112,0.4231,-68.8500,25.2000,-19.3500,4.8100,6.1100,-8.5600,0.0011,-0.2934,-0.5389,-29.5000,-21.7500,17.2500,247.1250,18.0625,-149.6875,0
444.296,9.7731,3.8762,0.7949,1.6339,0.4258,-0.1140,-48.7500,16.6500,18.3000,9.6678,2.4708,-0.6752,1.2313,-0.0112,0.4231,-68.8500,25.2000,-19.3500,5.6300,6.8400,-8.8800,0.2225,-0.3349,-0.7570,-29.5000,-21.7500,17.2500,246.6875,17.6875,-149.7500,0
444.301,9.6271,3.2705,0.6105,1.9209,0.4866,-0.0490,-48.7500,16.6500,18.3000,9.9551,1.3360,-1.9585,1.3038,0.0714,0.3864,-68.2500,25.8000,-18.0000,5.6300,6.8400,-8.8800,0.4647,-0.4036,-0.9054,-29.5000,-21.7500,17.2500,246.2500,17.2500,-149.9375,0
444.306,9.6271,3.2705,0.6105,1.9209,0.4866,-0.0490,-48.7500,16.6500,18.3000,9.9551,1.3360,-1.9585,1.3038,0.0714,0.3864,-68.2500,25.8000,-18.0000,6.9300,9.7600,-9.7700,0.4647,-0.4036,-0.9054,-29.5000,-21.7500,17.2500,245.6875,16.5625,-150.3750,0
444.316,9.4571,2.6767,0.0814,2.1877,0.6081,-0.0211,-47.5500,17.2500,17.1000,10.1107,-0.3615,-2.4014,1.3992,0.0845,0.3150,-68.2500,23.8500,-19.2000,2.0700,3.1200,-8.5400,0.9883,-0.8225,-1.0210,-29.5000,-21.7500,17.2500,245.6875,16.5625,-150.3750,0
444.326,9.5385,1.9010,-1.0846,2.4144,0.6203,-0.0032,-47.8500,16.8000,17.1000,8.4372,-0.2131,5.8993,2.4645,0.4135,0.3424,-67.6500,25.9500,-18.3000,3.6900,1.5900,-6.6800,1.0025,-0.8661,-0.8694,-29.5000,-21.7500,17.2500,245.2500,15.9375,-150.8750,0
444.331,10.9559,1.6233,-0.9888,2.7214,0.6158,0.0973,-47.8500,16.8000,17.1000,9.4571,6.6295,-1.9249,0.2952,0.2678,0.2238,-67.6500,25.9500,-18.3000,3.6900,1.5900,-6.6800,1.0025,-0.8661,-0.8694,-29.5000,-21.7500,17.2500,244.4375,15.8750,-151.1875,0
444.336,10.9559,1.6233,-0.9888,2.7214,0.6158,0.0973,-48.3000,18.0000,16.3500,9.4571,6.6295,-1.9249,0.2952,0.2678,0.2238,-67.6500,25.9500,-18.3000,20.4100,33.2200,-10.8100,0.9327,0.6021,-1.2283,-30.1875,-21.7500,16.8750,244.4375,15.8750,-151.1875,0
444.340,10.1442,2.1691,-2.0016,2.9146,0.4354,0.0877,-48.3000,18.0000,16.3500,10.9200,7.0988,-4.9416,0.9899,0.1745,0.1804,-68.2500,26.1000,-19.2000,20.4100,33.2200,-10.8100,0.9327,0.6021,-1.2283,-30.1875,-21.7500,16.8750,244.4375,15.8750,-151.1875,0
444.346,10.1442,2.1691,-2.0016,2.9146,0.4354,0.0877,-46.9500,17.4000,16.2000,9.4020,10.5776,-0.0934,0.9899,0.1745,0.1804,-68.2500,26.1000,-19.2000,8.9400,16.1700,-3.8700,1.8980,-1.9984,-3.6696,-30.1875,-21.7500,16.8750,242.5000,13.9375,-151.8750,0
444.350,9.3470,2.9712,-3.2010,2.8594,0.1998,-0.0879,-46.9500,17.4000,16.2000,9.4020,10.5776,-0.0934,2.0574,0.3054,0.0901,-67.5000,24.6000,-17.4000,8.9400,16.1700,-3.8700,1.6122,0.1353,-3.5572,-30.1875,-21.7500,16.8750,240.4375,13.0625,-152.3750,0
444.357,9.3470,2.9712,-3.2010,2.8594,0.1998,-0.0879,-46.9500,17.4000,16.2000,7.8338,10.4555,0.7254,3.6932,0.5524,0.0061,-67.5000,24.6000,-17.4000,-0.4700,4.5300,0.5300,1.6122,0.1353,-3.5572,-30.1875,-21.7500,16.8750,237.8125,13.1250,-152.4375,0
444.366,8.1475,3.3303,-3.0071,2.6545,0.3608,-0.2270,-46.9500,17.4000,16.2000,6.9552,8.9663,0.2897,5.3007,0.7019,-0.0266,-68.7000,25.8000,-18.0000,6.2900,8.9600,-5.8100,1.2075,2.2755,-4.0361,-30.1875,-21.7500,16.8750,234.8125,12.7500,-152.3750,0
444.376,7.4268,3.5482,-2.2601,2.5458,0.4631,-0.3163,-47.8500,17.5500,14.2500,7.8338,6.5649,0.7063,6.2565,0.8388,-0.0530,-69.4500,25.8000,-18.0000,4.9000,11.9900,-5.9200,1.0756,1.7148,-4.8771,-30.1875,-21.7500,16.8750,234.8125,12.7500,-152.3750,0
444.381,7.1419,4.0366,-1.8914,2.5583,0.5281,-0.3714,-47.8500,17.5500,14.2500,7.8338,6.5649,0.7063,6.2565,0.8388,-0.0530,-67.5000,26.5500,-19.5000,4.9000,11.9900,-5.9200,1.0756,1.7148,-4.8771,-30.1875,-21.7500,16.8750,231.5000,12.3750,-152.6250,0
444.386,7.1419,4.0366,-1.8914,2.5583,0.5281,-0.3714,-46.9500,17.7000,14.7000,8.6263,4.8794,2.0662,6.8286,0.9337,-0.0695,-67.5000,26.5500,-19.5000,5.6300,6.5400,-4.7200,1.6395,1.9253,-5.2327,-27.2500,-22.7500,18.8750,231.5000,12.3750,-152.6250,0
444.391,7.3095,4.2521,-1.0798,2.7872,0.5345,-0.4234,-46.9500,17.7000,14.7000,8.6263,4.8794,2.0662,6.8286,0.9337,-0.0695,-67.9500,27.3000,-21.7500,5.6300,6.5400,-4.7200,1.6395,1.9253,-5.2327,-27.2500,-22.7500,18.8750,228.1250,12.0000,-152.8750,0
444.396,7.3095,4.2521,-1.0798,2.7872,0.5345,-0.4234,-47.5500,19.0500,14.5500,8.2265,3.3806,3.8259,6.9920,1.0744,-0.1529,-67.9500,27.3000,-21.7500,8.1100,4.0800,-1.1600,1.7704,2.1009,-5.4542,-27.2500,-22.7500,18.8750,228.1250,12.0000,-152.8750,0
444.403,7.3622,4.2904,0.0886,3.0609,0.6400,-0.4943,-47.5500,19.5000,13.0500,8.2265,3.3806,3.8259,6.9920,1.0744,-0.1529,-67.9500,27.3000,-21.7500,6.9500,2.3500,-2.8200,1.2621,2.4849,-5.2011,-27.2500,-22.7500,18.8750,224.8125,11.9375,-152.8750,0
444.408,8.0086,4.1779,0.8380,3.3572,0.8396,-0.5910,-47.5500,19.5000,13.0500,8.7460,1.2354,3.5003,6.9360,1.1732,-0.2004,-67.9500,27.3000,-21.7500,6.9500,2.3500,-2.8200,1.2621,2.4849,-5.2011,-27.2500,-22.7500,18.8750,221.5000,11.9375,-152.9375,0
444.416,8.0086,4.1779,0.8380,3.3572,0.8396,-0.5910,-47.5500,19.5000,13.0500,9.3661,-0.1293,2.4325,6.5435,1.2193,-0.2057,-68.7000,27.3000,-24.3000,4.4900,5.8300,-4.6400,1.2806,2.7173,-5.2513,-27.2500,-22.7500,18.8750,218.1250,11.9375,-152.9375,0
444.426,8.6215,3.9840,0.9505,3.6172,0.9638,-0.6787,-46.9500,20.7000,11.1000,9.8186,-0.8140,2.4804,5.8758,1.2052,-0.1895,-68.7000,27.3000,-24.3000,7.5600,5.0900,-6.5500,1.2512,2.6464,-5.2840,-27.2500,-22.7500,18.8750,218.1250,11.9375,-152.9375,0
444.431,8.9423,3.6488,0.8284,3.7124,1.0104,-0.7053,-46.9500,20.7000,11.1000,9.8186,-0.8140,2.4804,5.8758,1.2052,-0.1895,-67.2000,27.7500,-27.3000,7.5600,5.0900,-6.5500,1.2512,2.6464,-5.2840,-27.2500,-22.7500,18.8750,214.7500,11.9375,-153.0625,0
444.436,9.5361,3.3782,0.6345,3.6892,1.0078,-0.6805,-47.1000,21.7500,10.6500,9.8809,-1.2210,2.1356,5.2477,1.1165,-0.1146,-67.2000,27.7500,-27.3000,5.4200,3.4000,-6.1100,1.4715,2.6551,-5.2371,-21.3750,-27.2500,18.5000,214.7500,11.9375,-153.0625,0
444.441,9.5361,3.3782,0.6345,3.6892,1.0078,-0.6805,-47.1000,21.7500,10.6500,9.8809,-1.2210,2.1356,5.2477,1.1165,-0.1146,-68.1000,28.6500,-28.2000,5.4200,3.4000,-6.1100,1.4715,2.6551,-5.2371,-21.3750,-27.2500,18.5000,211.4375,12.0000,-153.1250,0
444.446,9.8402,2.9305,0.3807,3.6194,1.0088,-0.6646,-47.4000,19.2000,11.1000,9.7157,-1.5945,2.0662,4.5395,1.0363,-0.0613,-68.1000,28.6500,-28.2000,6.2600,1.1400,-6.0100,1.3799,2.7533,-5.1640,-21.3750,-27.2500,18.5000,211.4375,12.0000,-153.1250,0
444.451,9.8402,2.9305,0.3807,3.6194,1.0088,-0.6646,-47.4000,19.2000,11.1000,9.7157,-1.5945,2.0662,4.5395,1.0363,-0.0613,-67.5000,28.0500,-27.3000,6.2600,1.1400,-6.0100,1.0112,2.8220,-4.9229,-21.3750,-27.2500,18.5000,208.3125,12.1250,-153.0000,0
444.457,10.2975,2.7749,0.2251,3.5581,0.9542,-0.6680,-46.8000,18.7500,8.8500,9.8713,-1.6640,1.7741,3.8898,0.9593,-0.0370,-67.5000,28.0500,-27.3000,5.3800,1.1300,-7.2900,1.0112,2.8220,-4.9229,-21.3750,-27.2500,18.5000,205.3750,12.3750,-152.7500,0
444.466,10.1394,2.5809,0.3376,3.4390,0.9284,-0.7000,-46.8000,18.7500,8.8500,9.8114,-1.6257,1.5634,3.3191,0.8860,-0.0754,-67.5000,28.0500,-27.0000,5.8100,0.9400,-7.9900,0.6436,2.7882,-4.5760,-21.3750,-27.2500,18.5000,205.3750,12.3750,-152.7500,0
444.476,10.0700,2.1452,0.4166,3.2679,0.9001,-0.7589,-46.8000,18.7500,8.8500,9.8306,-1.2953,1.1875,2.7685,0.8156,-0.1367,-67.5000,28.0500,-27.0000,5.5000,0.7300,-8.3600,0.2902,2.6005,-4.1626,-21.3750,-27.2500,18.5000,202.6875,12.5625,-152.3125,0
444.481,10.0700,2.1452,0.4166,3.2679,0.9001,-0.7589,-46.8000,18.7500,8.8500,9.8043,-1.1468,1.0678,2.7685,0.8156,-0.1367,-67.5000,28.5000,-29.5500,5.5000,0.7300,-8.3600,0.2902,2.6005,-4.1626,-21.3750,-27.2500,18.5000,202.6875,12.5625,-152.3125,0
444.486,10.0604,1.2977,0.1149,3.0662,0.8905,-0.7741,-47.4000,18.9000,6.4500,9.8043,-1.1468,1.0678,2.3118,0.7917,-0.2110,-67.5000,28.5000,-29.5500,4.9600,1.5000,-8.6000,-0.0065,2.3867,-3.6685,-17.0000,-31.2500,17.2500,200.3125,12.8125,-151.7500,0
444.491,10.0604,1.2977,0.1149,3.0662,0.8905,-0.7741,-47.4000,18.9000,6.4500,9.8090,-0.8068,1.0247,1.9420,0.7765,-0.2745,-67.5000,28.5000,-29.5500,4.9600,1.5000,-8.6000,-0.0065,2.3867,-3.6685,-17.0000,-31.2500,17.2500,200.3125,12.8125,-151.7500,0
444.496,10.3310,0.6033,-0.2227,2.8954,0.7997,-0.7709,-47.7000,17.7000,4.8000,9.8090,-0.8068,1.0247,1.9420,0.7765,-0.2745,-67.5000,28.5000,-29.5500,4.9900,1.7900,-8.7300,-0.1571,2.1784,-3.0838,-17.0000,-31.2500,17.2500,198.3125,13.0625,-151.1875,0
444.501,10.3310,0.6033,-0.2227,2.8954,0.7997,-0.7709,-46.5000,19.5000,6.3000,9.7444,-0.4860,1.0702,1.6355,0.7426,-0.3272,-67.3500,29.1000,-27.9000,4.9900,1.7900,-8.7300,-0.2356,1.9722,-2.5165,-17.0000,-31.2500,17.2500,196.6875,13.3125,-150.6250,0
444.507,9.7923,-0.0335,-0.3998,2.7616,0.6771,-0.7360,-46.5000,19.5000,6.3000,9.7444,-0.4860,1.0702,1.6355,0.7426,-0.3272,-67.3500,29.1000,-27.9000,5.1500,1.9400,-9.0200,-0.2356,1.9722,-2.5165,-17.0000,-31.2500,17.2500,195.3125,13.5625,-150.1250,0
444.516,9.8234,-0.3807,-0.6704,2.6449,0.7003,-0.7075,-47.4000,18.9000,4.3500,9.7755,-0.3543,1.0463,1.4322,0.7072,-0.3611,-67.2000,27.7500,-28.0500,4.9600,2.6100,-9.1800,-0.2738,1.6919,-2.0126,-17.0000,-31.2500,17.2500,195.3125,13.5625,-150.1250,0
444.526,9.6678,-0.5411,-1.0032,2.4690,0.5961,-0.6848,-47.4000,18.9000,4.3500,9.7396,-0.2251,1.0008,1.2494,0.6824,-0.3877,-68.2500,28.9500,-28.8000,4.3300,2.9900,-8.8500,-0.3229,1.3974,-1.5970,-17.0000,-31.2500,17.2500,194.2500,13.8125,-149.6875,0
444.531,9.6678,-0.5411,-1.0032,2.4690,0.5961,-0.6848,-46.5000,16.5000,4.3500,9.7612,-0.1700,1.0582,1.1101,0.6512,-0.4093,-66.9000,28.6500,-30.1500,4.3300,2.9900,-8.8500,-0.3229,1.3974,-1.5970,-17.0000,-31.2500,17.2500,193.0000,14.0000,-149.2500,0
444.536,9.3134,-0.4549,-1.2019,2.3166,0.5452,-0.6627,-46.5000,16.5000,3.1500,9.7612,-0.1700,1.0582,1.1101,0.6512,-0.4093,-66.9000,28.6500,-30.1500,3.7300,3.3600,-8.3600,-0.3829,1.1552,-1.2970,-10.7500,-32.8750,15.2500,193.0000,14.0000,-149.2500,0
444.541,9.3134,-0.4549,-1.2019,2.3166,0.5452,-0.6627,-45.9000,17.7000,2.2500,9.7755,-0.1077,0.9768,1.0022,0.6126,-0.4143,-66.3000,28.0500,-28.0500,3.7300,3.3600,-8.3600,-0.3829,1.1552,-1.2970,-10.7500,-32.8750,15.2500,192.2500,14.1875,-148.8125,0
444.546,9.3087,-0.1173,-1.3815,2.1338,0.5649,-0.6249,-45.9000,17.7000,2.2500,9.7755,-0.1077,0.9768,1.0022,0.6126,-0.4143,-66.3000,28.0500,-28.0500,3.2700,3.8000,-7.9800,-0.4331,1.0221,-1.1028,-10.7500,-32.8750,15.2500,192.2500,14.1875,-148.8125,0
444.551,9.3087,-0.1173,-1.3815,2.1338,0.5649,-0.6249,-46.5000,18.0000,3.1500,9.6367,0.0120,0.8571,0.9521,0.5806,-0.4253,-67.9500,27.3000,-28.8000,3.2700,3.8000,-7.9800,-0.4636,0.9817,-1.0199,-10.7500,-32.8750,15.2500,191.5625,14.3125,-148.3125,0
444.557,9.3877,0.2394,-1.4006,1.9337,0.5654,-0.5907,-46.5000,18.0000,3.1500,9.6534,0.1006,1.1684,0.9521,0.5806,-0.4253,-67.9500,27.3000,-28.8000,2.7900,4.5100,-7.4900,-0.4636,0.9817,-1.0199,-10.7500,-32.8750,15.2500,190.8750,14.5000,-147.8750,0
444.566,9.3541,0.4693,-1.2857,1.7368,0.6009,-0.5761,-47.1000,17.5500,3.4500,9.6534,0.1006,1.1684,0.9926,0.5377,-0.4365,-67.9500,27.3000,-28.8000,2.6200,4.8400,-7.2800,-0.4909,1.0057,-1.0505,-10.7500,-32.8750,15.2500,190.1250,14.6250,-147.3750,0
444.576,9.3087,0.5243,-1.3623,1.5068,0.6376,-0.5660,-46.0500,17.5500,2.4000,9.5217,0.7111,0.8715,1.0389,0.4738,-0.4274,-68.1000,27.4500,-28.6500,2.3300,4.7000,-7.0000,-0.5083,1.0777,-1.1803,-10.7500,-32.8750,15.2500,190.1250,14.6250,-147.3750,0
444.581,9.0668,0.6153,-1.4557,1.2785,0.6203,-0.5761,-46.0500,17.5500,2.4000,9.5217,0.7111,0.8715,1.1711,0.4295,-0.4104,-68.1000,27.4500,-28.6500,2.3300,4.7000,-7.0000,-0.5083,1.0777,-1.1803,-10.7500,-32.8750,15.2500,188.7500,14.8125,-146.7500,0
444.586,9.0668,0.6153,-1.4557,1.2785,0.6203,-0.5761,-46.0500,17.5500,2.4000,9.5193,0.8428,0.7949,1.1711,0.4295,-0.4104,-66.1500,29.8500,-27.4500,1.5800,4.1600,-7.1700,-0.5520,1.1912,-1.3766,-8.0625,-34.7500,13.5625,188.7500,14.8125,-146.7500,0
444.591,8.8226,0.6273,-1.2522,1.0834,0.6262,-0.5905,-45.7500,18.7500,1.3500,9.5193,0.8428,0.7949,1.3979,0.3592,-0.3930,-65.5500,28.9500,-29.8500,1.5800,4.1600,-7.1700,-0.5520,1.1912,-1.3766,-8.0625,-34.7500,13.5625,187.6250,14.9375,-146.1250,0
444.596,8.8226,0.6273,-1.2522,1.0834,0.6262,-0.5905,-45.7500,18.7500,1.3500,9.5193,0.8571,0.7973,1.3979,0.3592,-0.3930,-65.5500,28.9500,-29.8500,1.6900,4.2000,-7.3500,-0.5989,1.3635,-1.6046,-8.0625,-34.7500,13.5625,187.6250,14.9375,-146.1250,0
444.601,8.7364,0.6680,-0.7925,0.8801,0.6720,-0.5852,-45.1500,16.6500,1.9500,9.5193,0.8571,0.7973,1.6619,0.3147,-0.3776,-65.5500,28.9500,-29.8500,1.6900,4.2000,-7.3500,-0.6000,1.5075,-1.8053,-8.0625,-34.7500,13.5625,186.4375,15.0625,-145.4375,0
444.607,8.7364,0.6680,-0.7925,0.8801,0.6720,-0.5852,-45.1500,16.6500,1.9500,9.4834,0.7063,0.9601,1.9473,0.2651,-0.3640,-66.3000,28.9500,-28.0500,1.8100,4.1900,-7.5900,-0.6000,1.5075,-1.8053,-8.0625,-34.7500,13.5625,185.1250,15.1875,-144.7500,0
444.616,8.8753,0.7254,-0.4597,0.7099,0.7456,-0.5593,-46.2000,16.9500,1.5000,9.4954,0.6297,1.0894,2.1583,0.2108,-0.3467,-66.1500,29.8500,-29.7000,2.0200,4.1900,-7.9100,-0.5618,1.6330,-1.9744,-8.0625,-34.7500,13.5625,185.1250,15.1875,-144.7500,0
444.626,8.8681,0.9625,-0.1939,0.6057,0.8122,-0.5241,-45.1500,18.4500,3.3000,9.6486,0.5722,1.2139,2.3835,0.1508,-0.3315,-66.3000,28.5000,-29.5500,2.5600,4.6700,-8.8300,-0.4636,1.6744,-2.1566,-8.0625,-34.7500,13.5625,183.6875,15.2500,-144.0625,0
444.631,8.8274,1.2091,-0.0359,0.6006,0.9262,-0.4860,-45.1500,18.4500,3.3000,9.6486,0.5722,1.2139,2.3835,0.1508,-0.3315,-66.3000,28.5000,-29.5500,2.5600,4.6700,-8.8300,-0.4636,1.6744,-2.1566,-8.0625,-34.7500,13.5625,183.6875,15.2500,-144.0625,0
444.636,8.8274,1.2091,-0.0359,0.6006,0.9262,-0.4860,-45.1500,18.4500,3.3000,9.7420,0.4597,1.2139,2.5911,0.1005,-0.3110,-66.3000,28.5000,-29.5500,3.0900,4.9700,-9.1600,-0.2258,1.7290,-2.3158,-5.6875,-34.1875,12.2500,182.1250,15.2500,-143.5000,0
444.641,8.6718,1.3503,-0.0335,0.6773,1.0387,-0.4543,-44.2500,17.2500,2.4000,9.7420,0.4597,1.2139,2.5911,0.1005,-0.3110,-66.3000,28.5000,-29.5500,3.0900,4.9700,-9.1600,-0.2258,1.7290,-2.3158,-5.6875,-34.1875,12.2500,182.1250,15.2500,-143.5000,0
444.646,8.6718,1.3503,-0.0335,0.6773,1.0387,-0.4543,-44.2500,17.2500,2.4000,9.7085,0.1293,1.0989,2.8024,0.0594,-0.2894,-65.4000,28.3500,-31.2000,3.1400,4.8800,-9.2900,0.1571,1.6930,-2.4096,-5.6875,-34.1875,12.2500,180.4375,15.1875,-143.1875,0
444.651,8.6550,1.5203,-0.0670,0.7957,1.1591,-0.4210,-45.1500,17.7000,3.0000,9.7085,0.1293,1.0989,2.8024,0.0594,-0.2894,-65.4000,28.3500,-31.2000,3.1400,4.8800,-9.2900,0.4898,1.6013,-2.4620,-5.6875,-34.1875,12.2500,178.7500,15.1250,-143.0000,0
444.657,8.6550,1.5203,-0.0670,0.7957,1.1591,-0.4210,-45.1500,17.7000,3.0000,9.6079,-0.3759,1.1971,3.0241,0.0136,-0.2563,-65.4000,28.3500,-31.2000,2.5600,2.9500,-8.6100,0.4898,1.6013,-2.4620,-5.6875,-34.1875,12.2500,177.0000,14.9375,-142.9375,0
444.666,8.5281,1.7621,-0.0862,0.9473,1.2974,-0.3555,-45.7500,17.5500,2.8500,9.3757,-0.8811,1.2761,3.1520,-0.0248,-0.2329,-65.2500,27.0000,-32.1000,2.4800,2.6300,-8.2500,0.6403,1.5817,-2.5176,-5.6875,-34.1875,12.2500,177.0000,14.9375,-142.9375,0
444.676,8.6143,1.7957,-0.1724,1.0459,1.3129,-0.3070,-43.5000,17.2500,2.4000,9.3278,-1.4006,1.3048,3.2293,-0.0650,-0.2006,-64.5000,27.3000,-34.0500,2.7000,2.8900,-8.0100,0.6840,1.5981,-2.5744,-5.6875,-34.1875,12.2500,175.2500,14.8125,-142.8125,0
444.681,8.6646,1.9130,-0.0934,1.1682,1.3483,-0.2294,-44.2500,18.0000,2.4000,9.3278,-1.4006,1.3048,3.2293,-0.0650,-0.2006,-64.5000,27.3000,-34.0500,2.7000,2.8900,-8.0100,0.6840,1.5981,-2.5744,-5.6875,-34.1875,12.2500,175.2500,14.8125,-142.8125,0
444.686,8.6646,1.9130,-0.0934,1.1682,1.3483,-0.2294,-44.2500,18.0000,2.4000,9.2703,-1.8818,1.3551,3.2476,-0.1077,-0.1855,-64.8000,26.5500,-34.3500,2.9500,3.0800,-7.4200,0.7581,1.6428,-2.6224,-1.2500,-35.0625,11.7500,173.4375,14.6875,-142.8125,0
444.691,8.9615,1.7358,-0.1269,1.2732,1.3957,-0.1615,-44.2500,18.0000,2.4000,9.2703,-1.8818,1.3551,3.2476,-0.1077,-0.1855,-64.8000,26.5500,-34.3500,2.9500,3.0800,-7.4200,0.7581,1.6428,-2.6224,-1.2500,-35.0625,11.7500,173.4375,14.6875,-142.8125,0
444.696,8.9615,1.7358,-0.1269,1.2732,1.3957,-0.1615,-44.2500,18.0000,2.4000,9.2871,-2.1452,1.5227,3.2274,-0.1559,-0.1620,-65.2500,27.7500,-34.3500,2.9100,2.8000,-7.0400,0.8759,1.7006,-2.6693,-1.2500,-35.0625,11.7500,171.5625,14.5000,-142.8125,0
444.704,8.9543,1.4820,-0.1269,1.4154,1.4232,-0.0751,-44.5500,17.2500,3.9000,9.2009,-2.1213,1.3719,3.1051,-0.2116,-0.1498,-65.2500,27.7500,-34.3500,2.8500,2.2400,-6.7900,0.9632,1.7813,-2.6834,-1.2500,-35.0625,11.7500,169.6875,14.3750,-142.9375,0
444.709,8.8131,1.0319,-0.1676,1.4994,1.3763,0.0005,-46.0500,17.2500,1.6500,9.2009,-2.1213,1.3719,3.1051,-0.2116,-0.1498,-65.2500,27.7500,-34.3500,2.8500,2.2400,-6.7900,0.9632,1.7813,-2.6834,-1.2500,-35.0625,11.7500,167.7500,14.3750,-143.0000,0
444.717,9.2488,0.6345,-0.3089,1.5239,1.2947,0.0741,-46.0500,17.2500,1.6500,9.2416,-2.3511,1.1803,2.9431,-0.2830,-0.1356,-64.6500,26.4000,-34.5000,2.8100,1.8000,-6.7100,0.9992,1.8697,-2.6529,-1.2500,-35.0625,11.7500,165.9375,14.3750,-143.1250,0
444.727,9.0621,0.2322,-0.3041,1.4919,1.2233,0.1346,-45.1500,16.2000,2.2500,9.3039,-2.4972,1.2186,2.7853,-0.3331,-0.1359,-64.6500,26.4000,-34.5000,3.3500,1.2200,-6.6700,0.9883,1.9569,-2.5296,-1.2500,-35.0625,11.7500,165.9375,14.3750,-143.1250,0
444.731,9.0621,0.2322,-0.3041,1.4919,1.2233,0.1346,-43.5000,15.3000,2.8500,9.2273,-2.8539,1.1923,2.5913,-0.3627,-0.1410,-64.6500,26.4000,-34.5000,3.3500,1.2200,-6.6700,0.9883,1.9569,-2.5296,-1.2500,-35.0625,11.7500,164.2500,14.5000,-143.1875,0
444.736,9.1818,-0.0263,-0.5818,1.4096,1.1991,0.2257,-43.5000,15.3000,2.8500,9.2273,-2.8539,1.1923,2.5913,-0.3627,-0.1410,-65.4000,26.4000,-36.4500,3.8400,0.8800,-6.8400,0.9119,2.0322,-2.3126,1.0000,-33.8750,12.3750,164.2500,14.5000,-143.1875,0
444.741,9.1818,-0.0263,-0.5818,1.4096,1.1991,0.2257,-43.5000,15.3000,2.8500,9.2296,-3.2657,1.2067,2.3190,-0.3890,-0.1452,-65.4000,26.4000,-36.4500,3.8400,0.8800,-6.8400,0.9119,2.0322,-2.3126,1.0000,-33.8750,12.3750,162.6250,14.7500,-143.1875,0
444.746,9.5624,-0.1891,-0.9984,1.3307,1.2105,0.3419,-43.5000,15.3000,2.8500,9.2296,-3.2657,1.2067,2.3190,-0.3890,-0.1452,-63.4500,25.5000,-37.2000,4.3500,0.6300,-6.9600,0.7385,2.0453,-2.0628,1.0000,-33.8750,12.3750,162.6250,14.7500,-143.1875,0
444.751,9.5624,-0.1891,-0.9984,1.3307,1.2105,0.3419,-45.1500,15.4500,2.2500,9.5050,-3.4692,1.6759,2.0272,-0.4120,-0.1687,-63.4500,25.5000,-37.2000,4.3500,0.6300,-6.9600,0.5291,2.0595,-1.8053,1.0000,-33.8750,12.3750,161.2500,15.0625,-143.0625,0
444.757,9.7013,-0.4070,-1.3001,1.2601,1.1543,0.4386,-43.9500,15.3000,2.4000,9.5050,-3.4692,1.6759,2.0272,-0.4120,-0.1687,-63.3000,25.3500,-38.1000,7.0600,2.2500,-7.1200,0.5291,2.0595,-1.8053,1.0000,-33.8750,12.3750,160.2500,15.6875,-143.0000,0
444.767,9.8833,-0.6249,-1.4293,1.1466,1.0166,0.4887,-43.9500,13.0500,2.4000,9.3733,-3.5027,1.4341,1.5457,-0.4069,-0.1945,-63.7500,25.3500,-38.8500,14.7600,6.1400,-14.0500,0.4723,2.2515,-0.9839,1.0000,-33.8750,12.3750,159.9375,16.1250,-143.6875,0
444.777,9.7157,-0.6823,-1.4485,1.0062,0.9425,0.5212,-44.1000,14.7000,2.2500,9.1866,-3.0909,1.1516,1.0709,-0.4442,-0.1956,-66.1500,23.5500,-39.0000,3.1100,1.4400,-8.9700,1.4661,0.9687,-0.0338,1.0000,-33.8750,12.3750,159.9375,16.1250,-143.6875,0
444.781,9.7157,-0.6823,-1.4485,1.0062,0.9425,0.5212,-44.1000,14.7000,2.2500,9.6055,-2.8946,1.0056,0.7053,-0.3837,-0.2310,-66.1500,23.5500,-39.0000,3.1100,1.4400,-8.9700,1.4661,0.9687,-0.0338,1.0000,-33.8750,12.3750,159.6250,16.7500,-144.4375,0
444.787,9.8904,-0.4908,-1.4676,0.8378,0.9555,0.5577,-45.3000,15.7500,1.6500,9.6055,-2.8946,1.0056,0.7053,-0.3837,-0.2310,-64.5000,25.0500,-40.3500,7.4700,-0.7100,-13.9500,1.4606,1.3352,0.1309,4.3750,-33.2500,14.2500,159.6250,16.7500,-144.4375,0
444.791,9.8904,-0.4908,-1.4676,0.8378,0.9555,0.5577,-45.3000,15.7500,1.6500,9.8928,-3.0837,0.5578,0.3675,-0.3118,-0.2046,-64.5000,25.0500,-40.3500,7.4700,-0.7100,-13.9500,1.4606,1.3352,0.1309,4.3750,-33.2500,14.2500,159.3125,17.8750,-145.1250,0
444.797,10.0796,0.0192,-1.6759,0.5939,0.8945,0.6134,-45.3000,15.7500,1.6500,9.8928,-3.0837,0.5578,0.3675,-0.3118,-0.2046,-64.5000,25.0500,-40.3500,11.5700,-3.9500,-18.6500,1.5959,2.1588,0.3927,4.3750,-33.2500,14.2500,159.3125,17.8750,-145.1250,0
444.805,10.6757,0.5938,-2.0806,0.4112,0.7989,0.6763,-45.3000,15.7500,1.6500,10.2855,-3.6631,1.1492,0.2499,-0.1737,-0.0815,-63.4500,25.2000,-39.7500,12.8800,-13.0800,-15.0700,2.0715,0.5552,0.4832,4.3750,-33.2500,14.2500,159.3125,18.3125,-146.3125,0
444.809,10.6757,0.5938,-2.0806,0.4112,0.7989,0.6763,-44.5500,15.0000,1.3500,11.2599,-4.2737,0.3184,0.0432,-0.1228,0.1247,-63.4500,25.2000,-39.7500,12.8800,-13.0800,-15.0700,2.0715,0.5552,0.4832,4.3750,-33.2500,14.2500,159.4375,18.0625,-147.3125,0
444.817,11.9519,1.1636,-2.3798,0.3086,0.7498,0.7456,-44.8500,14.4000,2.2500,12.7755,-3.6440,-2.6217,0.0432,-0.1228,0.1247,-63.9000,23.5500,-40.0500,10.4700,-8.1600,-11.8400,1.5850,-0.6818,0.3523,4.3750,-33.2500,14.2500,159.4375,17.5000,-148.0000,0
444.827,13.8122,1.6424,-2.2913,0.2374,0.7080,0.8172,-43.6500,13.2000,1.2000,14.1976,-1.1732,-5.5450,-0.4333,-0.1990,0.2547,-64.6500,24.4500,-40.5000,1.4700,5.1500,-8.2800,1.1083,-1.0723,-0.1516,4.3750,-33.2500,14.2500,159.4375,17.5000,-148.0000,0
444.831,13.8122,1.6424,-2.2913,0.2374,0.7080,0.8172,-43.6500,13.2000,1.2000,14.1976,-1.1732,-5.5450,-0.9915,-0.2979,0.1945,-64.6500,24.4500,-40.5000,1.4700,5.1500,-8.2800,1.1083,-1.0723,-0.1516,4.3750,-33.2500,14.2500,159.4375,17.5000,-148.0000,0
444.837,15.7515,1.8340,-2.4014,0.1937,0.6310,0.8860,-46.5000,15.3000,2.1000,13.2399,0.6297,-5.0637,-1.1471,-0.2326,0.0085,-63.0000,25.3500,-40.3500,2.4200,12.6200,-6.7700,1.0734,-0.6283,-0.4025,3.2500,-32.2500,17.0000,159.1875,17.1250,-148.5625,0
444.841,15.7515,1.8340,-2.4014,0.1937,0.6310,0.8860,-46.5000,15.3000,2.1000,13.2399,0.6297,-5.0637,-1.1471,-0.2326,0.0085,-63.0000,25.3500,-40.3500,2.4200,12.6200,-6.7700,1.0734,-0.6283,-0.4025,3.2500,-32.2500,17.0000,159.1875,17.1250,-148.5625,0
444.846,15.0859,2.0925,-3.1244,0.1551,0.4458,0.8322,-46.5000,15.3000,2.1000,11.7244,0.6704,-1.8459,-0.3224,0.2326,-0.1681,-63.3000,25.3500,-39.9000,-0.1300,14.6500,-6.3500,0.7679,-0.0262,-0.3905,3.2500,-32.2500,17.0000,158.9375,17.0000,-148.9375,0
444.851,15.0859,2.0925,-3.1244,0.1551,0.4458,0.8322,-46.5000,15.3000,2.1000,11.7244,0.6704,-1.8459,-0.3224,0.2326,-0.1681,-63.3000,25.3500,-39.9000,-0.1300,14.6500,-6.3500,0.5181,0.1811,-0.1178,3.2500,-32.2500,17.0000,158.8125,17.0625,-149.1875,0
444.857,12.7779,2.4541,-3.7733,0.1428,0.2547,0.6499,-46.0500,15.3000,2.4000,10.2208,0.5578,-0.2227,0.3211,0.3680,-0.2001,-63.7500,24.6000,-39.9000,4.8100,-1.1500,-11.8400,0.5181,0.1811,-0.1178,3.2500,-32.2500,17.0000,158.8125,17.0000,-149.3750,0
444.867,10.7045,2.6815,-3.2417,0.0554,0.2689,0.5103,-47.4000,14.7000,3.3000,8.8370,-0.0934,-0.7183,0.3744,0.2491,-0.2038,-63.7500,24.6000,-39.9000,3.9800,2.6300,-8.9700,0.2269,-0.0862,0.1058,3.2500,-32.2500,17.0000,158.8750,17.0000,-149.3750,0
444.877,9.7229,2.6983,-2.1308,-0.1204,0.3435,0.4687,-46.9500,13.9500,2.2500,8.3079,1.0822,-1.6376,0.1775,0.1932,-0.1609,-64.5000,26.1000,-39.6000,3.4100,3.7000,-8.2100,-0.0371,-0.0796,0.0349,3.2500,-32.2500,17.0000,158.8750,17.0000,-149.3750,0
444.882,8.7580,3.0239,-1.4054,-0.2928,0.2888,0.4743,-46.9500,13.9500,2.2500,8.3079,1.0822,-1.6376,0.1775,0.1932,-0.1609,-64.5000,26.1000,-39.6000,3.4100,3.7000,-8.2100,-0.0371,-0.0796,0.0349,3.2500,-32.2500,17.0000,158.8750,17.0000,-149.2500,0
444.887,8.7580,3.0239,-1.4054,-0.2928,0.2888,0.4743,-45.4500,13.9500,2.2500,8.5688,2.8012,-1.1564,0.1924,0.3469,-0.0765,-64.0500,24.6000,-41.1000,3.0100,3.8800,-8.2000,-0.2149,-0.0371,-0.0185,4.7500,-31.2500,19.3750,158.8750,17.0000,-149.2500,0
444.891,8.1139,3.1843,-1.0750,-0.4615,0.3317,0.5071,-45.4500,13.9500,2.2500,8.5688,2.8012,-1.1564,0.1924,0.3469,-0.0765,-64.0500,24.6000,-41.1000,3.0100,3.8800,-8.2000,-0.2149,-0.0371,-0.0185,4.7500,-31.2500,19.3750,158.9375,16.9375,-149.0625,0
444.897,8.1139,3.1843,-1.0750,-0.4615,0.3317,0.5071,-46.5000,14.2500,3.1500,9.0692,3.4979,-0.2753,0.3840,0.4594,-0.0573,-63.1500,25.9500,-40.8000,3.1700,4.5700,-7.7600,-0.3054,-0.0349,-0.0011,4.7500,-31.2500,19.3750,158.9375,16.9375,-149.0625,0
444.906,8.0421,3.1532,-0.8643,-0.7019,0.4175,0.5676,-46.5000,14.2500,3.1500,9.3685,2.9688,0.0287,0.6043,0.4378,-0.0989,-63.3000,27.0000,-40.3500,3.3500,5.2600,-7.7300,-0.2945,-0.0120,-0.0393,4.7500,-31.2500,19.3750,158.9375,16.9375,-148.8750,0
444.914,7.7548,3.0263,-0.1413,-0.9433,0.4341,0.6523,-46.5000,14.2500,3.1500,9.4978,2.2266,-0.4645,0.6590,0.3821,-0.1260,-64.8000,25.3500,-38.8500,3.3400,5.1800,-7.6300,-0.1494,-0.0578,-0.1036,4.7500,-31.2500,19.3750,158.8750,16.8750,-148.8125,0
444.919,7.7548,3.0263,-0.1413,-0.9433,0.4341,0.6523,-46.8000,13.8000,3.4500,9.4978,2.2266,-0.4645,0.6590,0.3821,-0.1260,-64.8000,25.3500,-38.8500,3.3400,5.1800,-7.6300,-0.1494,-0.0578,-0.1036,4.7500,-31.2500,19.3750,158.8750,16.8125,-148.7500,0
444.927,7.6231,2.4995,0.7853,-1.1042,0.4908,0.7096,-45.4500,12.4500,3.6000,9.2991,1.6328,-0.6704,0.5180,0.3821,-0.1220,-64.6500,24.4500,-40.5000,3.3000,5.5600,-7.5200,-0.0447,-0.0687,-0.0862,4.7500,-31.2500,19.3750,158.8750,16.8125,-148.7500,0
444.932,8.2121,1.8220,1.6783,-0.9302,0.6614,0.7536,-45.4500,12.4500,3.6000,9.4164,1.3240,-0.5555,0.5180,0.3821,-0.1220,-64.6500,24.4500,-40.5000,3.3000,5.5600,-7.5200,-0.0447,-0.0687,-0.0862,4.5625,-31.3750,17.2500,158.8125,16.7500,-148.8125,0
444.937,8.2121,1.8220,1.6783,-0.9302,0.6614,0.7536,-46.6500,13.2000,3.3000,9.4164,1.3240,-0.5555,0.1892,0.3800,-0.1103,-64.6500,24.4500,-40.5000,3.3100,5.4400,-7.5000,0.0415,-0.0829,-0.0567,4.5625,-31.3750,17.2500,158.8125,16.7500,-148.8125,0
444.942,9.5337,1.5371,2.9497,-0.4442,0.7829,0.7821,-46.6500,13.2000,3.3000,9.6367,0.8356,-0.2370,0.1892,0.3800,-0.1103,-64.6500,24.4500,-40.5000,3.3100,5.4400,-7.5000,0.0415,-0.0829,-0.0567,4.5625,-31.3750,17.2500,158.8125,16.6875,-148.8750,0
444.947,9.5337,1.5371,2.9497,-0.4442,0.7829,0.7821,-46.8000,12.3000,4.5000,9.6367,0.8356,-0.2370,-0.2062,0.3048,-0.0967,-64.6500,25.5000,-41.2500,3.2000,5.5300,-7.4200,0.1353,-0.1080,-0.0404,4.5625,-31.3750,17.2500,158.8125,16.6875,-148.8750,0
444.953,9.7492,1.6137,4.5083,0.1719,0.7741,0.7269,-46.8000,12.3000,4.5000,9.7420,0.5986,-0.1077,-0.4034,0.2300,-0.0751,-64.6500,25.5000,-41.2500,3.1200,5.1600,-7.7000,0.2280,-0.1342,-0.0185,4.5625,-31.3750,17.2500,158.8125,16.6250,-149.0000,0
444.958,9.7492,1.6137,4.5083,0.6888,0.8268,0.6390,-46.8000,12.3000,4.5000,9.7420,0.5986,-0.1077,-0.4034,0.2300,-0.0751,-64.6500,25.5000,-41.2500,3.1200,5.1600,-7.7000,0.2280,-0.1342,-0.0185,4.5625,-31.3750,17.2500,158.8125,16.5625,-149.1875,0
444.967,9.6654,1.9656,5.3702,0.6888,0.8268,0.6390,-45.4500,13.2000,3.6000,9.6175,0.8715,-0.2610,-0.4290,0.2062,-0.0730,-64.6500,26.4000,-40.0500,3.2900,4.7400,-7.8500,0.3000,-0.1680,-0.0044,4.5625,-31.3750,17.2500,158.8125,16.5000,-149.3750,0
444.977,9.6343,2.0231,5.4061,1.0040,0.8007,0.5662,-46.5000,12.0000,5.2500,9.7731,1.4174,-0.1030,-0.3579,0.2014,-0.0608,-65.5500,26.1000,-39.6000,3.2700,4.4000,-8.0900,0.3262,-0.1778,-0.0120,4.5625,-31.3750,17.2500,158.8125,16.5000,-149.3750,0
444.982,9.5313,2.0351,4.6926,1.0643,0.6515,0.5518,-46.5000,12.0000,5.2500,9.9192,2.1883,-0.1341,-0.1050,0.2164,-0.0434,-65.5500,26.1000,-39.6000,3.2700,4.4000,-8.0900,0.3262,-0.1778,-0.0120,4.5625,-31.3750,17.2500,158.8125,16.5000,-149.3750,0
444.987,9.5313,2.0351,4.6926,1.0643,0.6515,0.5518,-45.9000,12.9000,5.8500,9.9192,2.1883,-0.1341,-0.1050,0.2164,-0.0434,-63.9000,27.1500,-40.5000,3.2800,4.2600,-8.2300,0.3011,-0.1527,-0.0240,5.2500,-32.5000,17.2500,158.7500,16.3750,-149.5625,0
444.992,9.3972,1.7549,3.5075,0.9979,0.5369,0.5780,-45.9000,12.9000,5.8500,9.6917,2.4780,-0.2155,0.3347,0.2406,-0.0576,-63.9000,27.1500,-40.5000,3.2800,4.2600,-8.2300,0.3011,-0.1527,-0.0240,5.2500,-32.5000,17.2500,158.7500,16.3750,-149.5625,0
444.997,9.2416,1.5179,2.0997,0.9662,0.4498,0.6134,-46.2000,11.7000,5.1000,9.6917,2.4780,-0.2155,0.3347,0.2406,-0.0576,-64.3500,26.4000,-38.5500,3.2000,4.4300,-8.2100,0.2553,-0.1124,-0.0415,5.2500,-32.5000,17.2500,158.7500,16.3125,-149.6875,0
445.005,9.2416,1.5179,2.0997,0.9662,0.4498,0.6134,-45.7500,12.3000,3.1500,9.7252,2.1691,-0.1796,0.7512,0.2505,-0.0890,-64.3500,26.4000,-38.5500,3.1500,4.5000,-8.2000,0.2138,-0.0785,-0.0502,5.2500,-32.5000,17.2500,158.6875,16.2500,-149.8125,0
445.010,9.6079,1.1085,1.0104,0.9302,0.3888,0.6446,-45.7500,12.3000,3.1500,9.4858,1.9417,0.0239,0.9332,0.2555,-0.1018,-64.3500,26.4000,-38.5500,3.1500,4.5000,-8.2000,0.2138,-0.0785,-0.0502,5.2500,-32.5000,17.2500,158.6875,16.2500,-149.9375,0
445.017,9.1075,0.8954,0.2466,0.9737,0.4706,0.6398,-45.7500,12.3000,3.1500,9.4858,1.9417,0.0239,0.9332,0.2555,-0.1018,-64.5000,25.8000,-40.6500,3.1200,4.5200,-8.1300,0.1920,-0.0535,-0.0535,5.2500,-32.5000,17.2500,158.6250,16.1875,-150.0625,0
445.027,9.3757,0.8236,-0.4645,1.1053,0.5329,0.5995,-45.9000,10.6500,4.0500,9.5768,1.9393,-0.2059,0.9587,0.2505,-0.0879,-64.5000,25.8000,-40.6500,3.2000,4.5700,-8.0600,0.1920,-0.0436,-0.0611,5.2500,-32.5000,17.2500,158.6250,16.1875,-150.0625,0
445.032,9.3757,0.8236,-0.4645,1.1053,0.5329,0.5995,-45.9000,10.6500,4.0500,9.5840,1.8531,-0.6129,0.9827,0.2667,-0.0650,-64.5000,25.8000,-40.6500,3.2000,4.5700,-8.0600,0.1920,-0.0436,-0.0611,4.7500,-31.0000,18.0625,157.8750,16.1875,-150.1250,0
445.037,9.9024,0.8308,-0.8045,1.1932,0.5790,0.5399,-46.6500,10.2000,3.3000,9.3565,1.3815,-0.8140,0.9827,0.2667,-0.0650,-66.0000,25.8000,-39.6000,3.1500,4.6800,-8.1000,0.2062,-0.0327,-0.0709,4.7500,-31.0000,18.0625,157.8750,16.1875,-150.1250,0
445.042,9.9024,0.8308,-0.8045,1.1932,0.5790,0.5399,-46.5000,12.0000,3.1500,9.3565,1.3815,-0.8140,0.8482,0.2817,-0.0802,-66.0000,25.8000,-39.6000,3.1500,4.6800,-8.1000,0.2062,-0.0327,-0.0709,4.7500,-31.0000,18.0625,157.8125,16.1875,-150.2500,0
445.047,9.9958,0.7566,-0.8763,1.2465,0.5777,0.4615,-46.5000,12.0000,3.1500,9.1722,0.8068,-1.1803,0.8482,0.2817,-0.0802,-65.4000,25.5000,-39.0000,3.1200,4.7500,-8.0700,0.2062,-0.0240,-0.0785,4.7500,-31.0000,18.0625,157.8125,16.1875,-150.2500,0
445.052,9.9958,0.7566,-0.8763,1.2465,0.5777,0.4615,-47.5500,11.5500,3.4500,9.1722,0.8068,-1.1803,0.6376,0.2851,-0.1063,-65.4000,25.5000,-39.0000,3.1200,4.7500,-8.0700,0.2018,-0.0240,-0.0829,4.7500,-31.0000,18.0625,157.7500,16.1250,-150.3750,0
445.058,10.0245,0.5387,-0.3352,1.3195,0.5998,0.3858,-47.5500,11.5500,3.4500,9.5074,0.6943,-1.4748,0.4658,0.2934,-0.0997,-65.2500,25.8000,-40.3500,3.0300,4.8600,-8.0200,0.2018,-0.0240,-0.0829,4.7500,-31.0000,18.0625,157.6875,16.0625,-150.4375,0
445.067,10.0796,0.4645,0.3328,1.4043,0.5830,0.3126,-47.5500,11.5500,3.4500,9.1961,1.1899,-1.6783,0.4658,0.2934,-0.0997,-65.2500,25.8000,-41.7000,2.9700,4.6800,-8.1400,0.2062,-0.0262,-0.0818,4.7500,-31.0000,18.0625,157.6875,16.0625,-150.4375,0
445.077,10.0892,0.5076,0.7494,1.3832,0.5534,0.2494,-47.5500,10.8000,4.2000,9.2512,1.4605,-1.6927,0.2731,0.3078,-0.0701,-66.3000,26.5500,-39.6000,3.0300,4.6200,-8.0700,0.2171,-0.0316,-0.0731,4.7500,-31.0000,18.0625,157.6250,16.0625,-150.5625,0
445.082,10.0892,0.5076,0.7494,1.3832,0.5534,0.2494,-48.7500,10.6500,3.3000,9.2512,1.4605,-1.6927,0.2731,0.3078,-0.0701,-66.3000,26.5500,-39.6000,3.0300,4.6200,-8.0700,0.2171,-0.0316,-0.0731,4.7500,-31.0000,18.0625,156.8125,16.0625,-150.6875,0
445.087,10.1849,0.6153,1.0271,1.2742,0.5431,0.2092,-48.7500,10.6500,3.3000,9.0142,1.5538,-1.2306,0.3746,0.3376,-0.0887,-65.8500,25.2000,-41.2500,3.0300,4.6000,-8.1300,0.2313,-0.0393,-0.0654,5.8750,-29.8750,18.0625,156.8125,16.0625,-150.6875,0
445.092,10.1849,0.6153,1.0271,1.2742,0.5431,0.2092,-46.8000,11.5500,3.4500,9.0142,1.5538,-1.2306,0.3746,0.3376,-0.0887,-65.8500,25.2000,-41.2500,3.0300,4.6000,-8.1300,0.2313,-0.0393,-0.0654,5.8750,-29.8750,18.0625,156.8125,16.0625,-150.6875,0
445.097,10.3597,0.8332,1.1109,1.0888,0.4357,0.2081,-46.8000,11.5500,3.4500,9.2488,1.3384,-0.9433,0.5140,0.3994,-0.0919,-65.8500,25.2000,-41.2500,3.0000,4.5800,-8.1900,0.2345,-0.0415,-0.0600,5.8750,-29.8750,18.0625,156.7500,16.0000,-150.8125,0
445.102,10.3597,0.8332,1.1109,1.0888,0.4357,0.2081,-47.5500,10.0500,4.9500,9.2488,1.3384,-0.9433,0.5140,0.3994,-0.0919,-65.8500,25.2000,-41.2500,3.0000,4.5800,-8.1900,0.2345,-0.0415,-0.0600,5.8750,-29.8750,18.0625,156.6875,16.0000,-150.9375,0
445.108,9.6798,1.1229,1.7238,0.9907,0.2198,0.2001,-47.5500,10.0500,4.9500,9.5289,1.2713,-0.6321,0.5689,0.4282,-0.0901,-65.4000,24.7500,-41.2500,3.0300,4.4000,-8.2500,0.2291,-0.0404,-0.0491,5.8750,-29.8750,18.0625,156.6875,16.0000,-150.9375,0
445.114,9.6941,0.5148,2.0327,0.8993,0.0554,0.1708,-47.4000,8.7000,3.6000,9.5074,1.3120,0.0982,0.5689,0.4282,-0.0901,-65.4000,24.7500,-41.2500,3.0700,4.3800,-8.2700,0.2160,-0.0404,-0.0447,5.8750,-29.8750,18.0625,156.6875,16.0000,-151.0625,0
445.119,9.6941,0.5148,2.0327,0.8993,0.0554,0.1708,-47.4000,8.7000,3.6000,9.5074,1.3120,0.0982,0.5836,0.4330,-0.1061,-65.2500,24.6000,-39.9000,3.0700,4.3800,-8.2700,0.2160,-0.0404,-0.0447,5.8750,-29.8750,18.0625,156.6250,16.0000,-151.1875,0
445.128,9.6007,0.1796,1.3695,0.7328,0.0506,0.1636,-47.4000,8.7000,3.6000,9.5505,1.3431,0.4908,0.5196,0.4311,-0.0991,-66.0000,25.0500,-39.9000,3.0300,4.4800,-8.2200,0.2007,-0.0393,-0.0425,5.8750,-29.8750,18.0625,156.6250,16.0000,-151.1875,0
445.132,9.7971,-0.0599,0.6345,0.6571,0.1428,0.1394,-47.7000,11.7000,4.0500,9.5505,1.3431,0.4908,0.5196,0.4311,-0.0991,-66.0000,25.0500,-39.9000,3.0300,4.4800,-8.2200,0.2007,-0.0393,-0.0425,5.8750,-31.7500,18.8750,155.9375,16.0000,-151.2500,0
445.137,9.7971,-0.0599,0.6345,0.6571,0.1428,0.1394,-47.7000,11.7000,4.0500,9.8402,1.3982,0.7566,0.4325,0.4290,-0.0999,-65.1000,25.5000,-39.7500,3.0500,4.5700,-8.2100,0.1909,-0.0415,-0.0393,5.8750,-31.7500,18.8750,155.9375,16.0000,-151.2500,0
445.144,9.7348,-0.2059,0.5315,0.5484,0.2180,0.1191,-47.5500,10.5000,4.5000,10.0987,1.1468,1.0415,0.2662,0.3933,-0.0767,-65.1000,25.5000,-39.7500,3.0900,4.6400,-8.1900,0.1767,-0.0447,-0.0349,5.8750,-31.7500,18.8750,155.9375,16.0000,-151.3750,0
445.149,9.7348,-0.2059,0.5315,0.5484,0.2180,0.1191,-47.5500,10.5000,4.5000,10.0987,1.1468,1.0415,0.2662,0.3933,-0.0767,-65.8500,24.4500,-39.7500,3.0900,4.6400,-8.1900,0.1767,-0.0447,-0.0349,5.8750,-31.7500,18.8750,155.8750,15.9375,-151.4375,0
445.157,9.8282,0.0048,1.1037,0.3691,0.2883,0.1018,-48.6000,10.5000,3.4500,10.1251,1.0654,1.0942,0.0927,0.3576,-0.0610,-65.5500,26.1000,-39.9000,3.0100,4.7300,-8.2300,0.1647,-0.0502,-0.0316,5.8750,-31.7500,18.8750,155.8750,15.9375,-151.4375,0
445.164,9.7755,0.0814,1.3408,0.2742,0.2891,0.0850,-48.0000,10.2000,4.3500,9.9072,1.3048,0.7973,-0.0714,0.3190,-0.0306,-65.5500,26.1000,-39.9000,3.0800,4.6300,-8.2600,0.1549,-0.0545,-0.0240,5.8750,-31.7500,18.8750,155.8750,15.9375,-151.5000,0
445.168,9.7755,0.0814,1.3408,0.2742,0.2891,0.0850,-48.0000,10.2000,4.3500,9.9072,1.3048,0.7973,-0.0714,0.3190,-0.0306,-65.5500,26.1000,-39.9000,3.0800,4.6300,-8.2600,0.1549,-0.0545,-0.0240,5.8750,-31.7500,18.8750,155.8750,15.9375,-151.5000,0
445.177,9.6199,0.2801,1.6927,0.2507,0.3464,0.0887,-48.0000,10.2000,4.3500,9.7923,1.4653,0.4908,-0.1282,0.3051,-0.0147,-65.1000,25.5000,-40.0500,3.0900,4.5100,-8.3200,0.1407,-0.0545,-0.0218,5.8750,-31.7500,18.8750,155.8750,15.9375,-151.5625,0
445.182,9.5600,0.5315,1.8555,0.2313,0.3914,0.1135,-48.0000,10.2000,4.3500,9.6869,1.7909,0.1796,-0.1282,0.3051,-0.0147,-65.1000,25.5000,-40.0500,3.0900,4.5100,-8.3200,0.1407,-0.0545,-0.0218,5.8750,-31.7500,18.8750,155.3125,15.9375,-151.6250,0
445.187,9.5600,0.5315,1.8555,0.2313,0.3914,0.1135,-48.0000,10.2000,4.3500,9.6869,1.7909,0.1796,-0.0807,0.2995,-0.0115,-65.1000,25.5000,-40.0500,3.0900,4.6900,-8.2300,0.1222,-0.0502,-0.0196,5.1875,-30.2500,18.5000,155.3125,15.9375,-151.6250,0
445.192,9.6845,0.7374,1.7238,0.1665,0.3968,0.1239,-46.6500,9.1500,3.3000,9.5313,1.9776,-0.0144,0.0344,0.3040,-0.0051,-65.1000,25.5000,-40.0500,3.0900,4.6900,-8.2300,0.1222,-0.0502,-0.0196,5.1875,-30.2500,18.5000,155.3125,15.9375,-151.6875,0
445.197,9.6845,0.7374,1.7238,0.1665,0.3968,0.1239,-46.6500,9.1500,3.3000,9.5313,1.9776,-0.0144,0.0344,0.3040,-0.0051,-65.8500,24.0000,-40.5000,2.9900,4.5800,-8.3500,0.1058,-0.0469,-0.0240,5.1875,-30.2500,18.5000,155.3125,15.9375,-151.6875,0
445.202,9.5505,1.0175,1.5969,0.0544,0.3773,0.1250,-48.7500,9.9000,5.4000,9.4882,1.9704,-0.0982,0.1311,0.3198,0.0080,-65.8500,24.0000,-40.5000,2.9900,4.5800,-8.3500,0.0818,-0.0316,-0.0196,5.1875,-30.2500,18.5000,155.2500,15.9375,-151.7500,0
445.208,9.5505,1.0175,1.5969,0.0544,0.3773,0.1250,-48.7500,9.9000,5.4000,9.4882,1.9704,-0.0982,0.1311,0.3198,0.0080,-65.2500,25.8000,-39.9000,3.0100,4.5600,-8.3200,0.0818,-0.0316,-0.0196,5.1875,-30.2500,18.5000,155.2500,15.9375,-151.7500,0
445.217,9.7995,1.2594,1.3216,-0.0461,0.3714,0.1007,-47.7000,10.6500,3.6000,9.4691,1.9513,-0.1197,0.1468,0.3323,0.0218,-65.4000,24.4500,-39.3000,3.0000,4.5600,-8.3400,0.0589,-0.0185,-0.0218,5.1875,-30.2500,18.5000,155.2500,15.9375,-151.7500,0
445.223,9.6295,1.4006,1.2761,-0.1055,0.2739,0.0815,-48.4500,9.4500,3.6000,9.3781,1.8340,-0.0431,0.1535,0.3563,0.0325,-65.4000,24.4500,-39.3000,3.0100,4.6700,-8.2400,0.0480,-0.0087,-0.0196,5.1875,-30.2500,18.5000,155.2500,15.9375,-151.7500,0
445.228,9.6295,1.4006,1.2761,-0.1055,0.2739,0.0815,-48.4500,9.4500,3.6000,9.3781,1.8340,-0.0431,0.1535,0.3563,0.0325,-64.8000,25.3500,-38.8500,3.0100,4.6700,-8.2400,0.0480,-0.0087,-0.0196,5.1875,-30.2500,18.5000,155.2500,15.9375,-151.7500,0
445.233,9.6845,1.6089,1.3336,-0.1828,0.1340,0.0679,-48.4500,9.4500,3.6000,9.4882,1.4676,0.1532,0.0645,0.3539,0.0397,-64.8000,25.3500,-38.8500,2.9800,4.7200,-8.2400,0.0425,-0.0055,-0.0175,6.0000,-30.2500,19.2500,154.5625,15.9375,-151.8125,0
445.238,9.6845,1.6089,1.3336,-0.1828,0.1340,0.0679,-48.4500,9.4500,3.6000,9.4882,1.4676,0.1532,0.0645,0.3539,0.0397,-64.8000,25.3500,-38.8500,2.9800,4.7200,-8.2400,0.0425,-0.0055,-0.0175,6.0000,-30.2500,19.2500,154.5625,15.9375,-151.8125,0
445.243,9.4284,1.6520,1.5419,-0.1215,0.1871,0.0687,-47.7000,9.4500,4.3500,9.4140,1.2139,0.2155,-0.0850,0.3419,0.0525,-64.8000,25.3500,-38.8500,2.9800,4.7200,-8.2400,0.0436,-0.0076,-0.0142,6.0000,-30.2500,19.2500,154.5625,15.9375,-151.8125,0
445.248,9.4284,1.6520,1.5419,-0.1215,0.1871,0.0687,-47.7000,9.4500,4.3500,9.4140,1.2139,0.2155,-0.0850,0.3419,0.0525,-66.3000,24.1500,-39.9000,2.9900,4.7200,-8.2100,0.0436,-0.0076,-0.0142,6.0000,-30.2500,19.2500,154.5625,15.9375,-151.8125,0
445.253,9.3589,1.6400,1.7502,-0.0613,0.2254,0.0847,-48.3000,9.0000,4.2000,9.4571,1.3815,0.2729,-0.2086,0.3456,0.0624,-66.3000,24.1500,-39.9000,2.9900,4.7200,-8.2100,0.0502,-0.0164,-0.0120,6.0000,-30.2500,19.2500,154.5625,15.9375,-151.8125,0
445.258,9.3182,1.6927,1.9776,-0.0514,0.2244,0.1047,-48.6000,10.5000,4.2000,9.4691,1.6735,0.2322,-0.2086,0.3456,0.0624,-66.3000,24.1500,-39.9000,3.0000,4.6900,-8.2300,0.0502,-0.0164,-0.0120,6.0000,-30.2500,19.2500,154.5625,15.9375,-151.8125,0
445.267,9.3182,1.6927,1.9776,-0.0514,0.2244,0.1047,-48.6000,10.5000,4.2000,9.4691,1.6735,0.2322,-0.2409,0.3432,0.0674,-66.3000,24.1500,-39.9000,3.0000,4.7200,-8.2200,0.0589,-0.0240,-0.0098,6.0000,-30.2500,19.2500,154.5625,15.9375,-151.8125,0
445.272,9.3709,1.7214,2.0877,-0.0354,0.2369,0.1159,-48.0000,9.9000,4.3500,9.4284,1.9824,0.2155,-0.1463,0.3581,0.0786,-66.0000,25.3500,-39.1500,3.0000,4.7200,-8.2200,0.0687,-0.0316,-0.0055,6.0000,-30.2500,19.2500,154.5625,16.0000,-151.8750,0
445.278,9.4260,1.6783,2.0375,0.0019,0.2731,0.1279,-48.0000,9.9000,4.3500,9.5074,2.1284,0.3998,-0.0131,0.3651,0.0821,-65.4000,25.2000,-39.0000,3.0000,4.6700,-8.2300,0.0687,-0.0316,-0.0055,6.0000,-30.2500,19.2500,154.5625,16.0000,-151.8750,0
445.283,9.4260,1.6783,2.0375,0.0019,0.2731,0.1279,-48.0000,9.9000,4.3500,9.5074,2.1284,0.3998,-0.0131,0.3651,0.0821,-65.4000,25.2000,-39.0000,3.0000,4.6700,-8.2300,0.0687,-0.0316,-0.0055,5.5000,-31.0625,18.8750,154.1250,16.0000,-151.8750,0
445.288,9.4499,1.6376,1.9225,0.0754,0.2641,0.1308,-48.0000,9.9000,4.3500,9.4739,1.9369,0.4836,0.1010,0.3749,0.0877,-66.3000,24.6000,-38.1000,3.0100,4.6700,-8.2200,0.0742,-0.0327,-0.0087,5.5000,-31.0625,18.8750,154.1250,16.0000,-151.8750,0
445.293,9.4499,1.6376,1.9225,0.0754,0.2641,0.1308,-48.0000,9.9000,4.3500,9.4739,1.9369,0.4836,0.1010,0.3749,0.0877,-66.3000,24.6000,-38.1000,3.0100,4.6700,-8.2200,0.0742,-0.0327,-0.0087,5.5000,-31.0625,18.8750,154.0625,16.0000,-151.8750,0
445.298,9.4978,1.5060,1.7573,0.1500,0.2625,0.1308,-48.0000,9.9000,4.8000,9.4188,1.6089,0.4621,0.1316,0.3848,0.0911,-66.3000,24.6000,-38.1000,3.0200,4.6200,-8.2600,0.0796,-0.0240,-0.0109,5.5000,-31.0625,18.8750,154.0625,16.0000,-151.8750,0
445.303,9.4978,1.5060,1.7573,0.1500,0.2625,0.1308,-48.0000,9.9000,4.8000,9.4188,1.6089,0.4621,0.1316,0.3848,0.0911,-66.0000,25.0500,-39.9000,3.0200,4.6200,-8.2600,0.0829,-0.0251,-0.0087,5.5000,-31.0625,18.8750,154.0625,16.0000,-151.9375,0
445.308,9.3853,1.2929,1.7526,0.1953,0.2489,0.1287,-48.4500,10.9500,4.3500,9.4739,1.4724,0.5219,0.0973,0.3933,0.0946,-65.2500,25.0500,-38.8500,3.0300,4.6300,-8.2900,0.0829,-0.0251,-0.0087,5.5000,-31.0625,18.8750,154.0625,16.0000,-151.9375,0
445.317,9.3613,1.1779,1.7334,0.2305,0.2758,0.1268,-48.0000,10.2000,5.1000,9.5864,1.3575,0.6129,0.0711,0.3826,0.0927,-65.2500,25.0500,-38.8500,3.0200,4.6600,-8.2300,0.0851,-0.0240,-0.0131,5.5000,-31.0625,18.8750,154.0625,16.0000,-151.9375,0
445.322,9.3613,1.1779,1.7334,0.2305,0.2758,0.1268,-48.0000,10.2000,5.1000,9.5864,1.3575,0.6129,0.0711,0.3826,0.0927,-66.6000,24.7500,-37.9500,3.0200,4.6600,-8.2300,0.0905,-0.0251,-0.0153,5.5000,-31.0625,18.8750,154.0625,16.0000,-152.0000,0
445.328,9.3470,1.0104,1.9321,0.2643,0.2659,0.1239,-47.5500,9.7500,3.9000,9.6199,1.3527,0.8882,-0.0008,0.3685,0.0938,-66.6000,24.7500,-37.9500,2.9700,4.7400,-8.2000,0.0905,-0.0251,-0.0153,5.5000,-31.0625,18.8750,154.0625,16.0000,-152.0000,0
445.333,9.3470,1.0104,1.9321,0.2643,0.2659,0.1239,-47.5500,9.7500,3.9000,9.6199,1.3527,0.8882,-0.0008,0.3685,0.0938,-66.6000,24.7500,-37.9500,2.9700,4.7400,-8.2000,0.1036,-0.0295,-0.0109,6.2500,-30.2500,18.8750,153.5000,16.0000,-152.0000,0
445.338,9.3685,0.8452,2.1189,0.2662,0.2462,0.1282,-47.5500,9.7500,3.9000,9.6702,1.3982,1.0965,-0.0312,0.3461,0.0994,-66.6000,24.7500,-37.9500,2.9400,4.7200,-8.1800,0.1036,-0.0295,-0.0109,6.2500,-30.2500,18.8750,153.5000,16.0000,-152.0000,0
445.347,9.3374,0.6201,2.3870,0.2665,0.2553,0.1372,-47.8500,9.7500,4.2000,9.7157,1.4341,1.2617,0.0123,0.3493,0.1015,-65.8500,25.9500,-39.0000,2.9400,4.6900,-8.2500,0.1167,-0.0360,-0.0076,6.2500,-30.2500,18.8750,153.4375,16.0000,-152.0625,0
445.352,9.3374,0.6201,2.3870,0.2665,0.2553,0.1372,-47.8500,9.7500,4.2000,9.7157,1.4341,1.2617,0.0123,0.3493,0.1015,-66.7500,25.8000,-36.9000,2.9400,4.6900,-8.2500,0.1342,-0.0382,-0.0033,6.2500,-30.2500,18.8750,153.4375,16.0000,-152.1250,0
445.358,9.3829,0.3879,2.5019,0.2411,0.2611,0.1487,-47.4000,9.1500,5.1000,9.7564,1.2953,1.2689,0.0221,0.3320,0.1114,-66.7500,25.8000,-36.9000,2.9800,4.6600,-8.2700,0.1342,-0.0382,-0.0033,6.2500,-30.2500,18.8750,153.4375,16.0000,-152.1250,0
445.366,9.3781,0.1772,2.6360,0.2129,0.2638,0.1569,-47.4000,9.1500,5.1000,9.6175,1.1660,1.2210,0.0448,0.3152,0.1069,-66.9000,25.2000,-39.0000,2.9900,4.5600,-8.2700,0.1396,-0.0404,-0.0033,6.2500,-30.2500,18.8750,153.4375,16.0000,-152.1875,0
445.371,9.3781,0.1772,2.6360,0.2129,0.2638,0.1569,-47.1000,10.0500,3.9000,9.6175,1.1660,1.2210,0.0448,0.3152,0.1069,-67.2000,25.3500,-38.8500,2.9900,4.5600,-8.2700,0.1396,-0.0404,-0.0033,6.2500,-30.2500,18.8750,153.4375,16.0000,-152.2500,0
445.378,9.4715,0.0982,2.5977,0.1911,0.2769,0.1700,-48.3000,10.0500,4.2000,9.6941,0.9792,1.1516,0.0762,0.3110,0.1077,-67.2000,25.3500,-38.8500,3.0000,4.5600,-8.2900,0.1396,-0.0415,-0.0065,6.2500,-30.2500,18.8750,153.4375,16.0000,-152.2500,0
445.383,9.4715,0.0982,2.5977,0.1911,0.2769,0.1700,-48.3000,10.0500,4.2000,9.7612,0.8906,1.0989,0.0762,0.3110,0.1077,-66.3000,25.3500,-38.1000,3.0000,4.5600,-8.2900,0.1396,-0.0415,-0.0065,6.2500,-30.2500,18.8750,153.0000,16.0000,-152.3125,0
445.388,9.6055,-0.0215,2.5283,0.1998,0.2819,0.1815,-48.4500,10.2000,5.4000,9.7612,0.8906,1.0989,0.0410,0.2950,0.1108,-66.3000,25.3500,-38.1000,3.0100,4.5200,-8.3200,0.1407,-0.0404,-0.0065,5.5000,-30.6875,19.2500,153.0000,16.0000,-152.3125,0
445.393,9.6055,-0.0215,2.5283,0.1998,0.2819,0.1815,-48.4500,10.2000,5.4000,9.6702,0.9649,1.0151,0.0410,0.2950,0.1108,-66.3000,25.3500,-38.4000,3.0100,4.5200,-8.3200,0.1407,-0.0404,-0.0065,5.5000,-30.6875,19.2500,153.0000,15.9375,-152.3750,0
445.398,9.5337,0.0407,2.3607,0.2372,0.2737,0.1982,-48.4500,10.2000,5.4000,9.6702,0.9649,1.0151,0.0370,0.2870,0.1063,-66.3000,25.3500,-38.4000,2.9600,4.4000,-8.3700,0.1320,-0.0382,-0.0087,5.5000,-30.6875,19.2500,153.0000,15.9375,-152.3750,0
445.403,9.5337,0.0407,2.3607,0.2372,0.2737,0.1982,-48.4500,10.2000,5.4000,9.6391,1.0199,0.9888,0.0370,0.2870,0.1063,-66.3000,25.3500,-38.4000,2.9600,4.4000,-8.3700,0.1189,-0.0349,-0.0142,5.5000,-30.6875,19.2500,153.0000,15.9375,-152.4375,0
445.409,9.5481,0.0790,2.0231,0.2832,0.2827,0.1929,-47.1000,9.7500,7.0500,9.6391,1.0199,0.9888,0.0397,0.2721,0.0994,-66.3000,25.3500,-38.4000,2.9500,4.3900,-8.3900,0.1189,-0.0349,-0.0142,5.5000,-30.6875,19.2500,153.0000,15.9375,-152.4375,0
445.417,9.7013,0.0862,1.7909,0.2691,0.2739,0.1892,-45.9000,10.6500,6.4500,9.5505,1.0463,0.8739,0.0024,0.2646,0.1063,-66.9000,24.4500,-37.9500,2.9500,4.3900,-8.3600,0.1004,-0.0305,-0.0142,5.5000,-30.6875,19.2500,153.0000,15.9375,-152.5000,0
445.422,9.7013,0.0862,1.7909,0.2691,0.2739,0.1892,-45.9000,10.6500,6.4500,9.5241,1.2091,0.8236,0.0024,0.2646,0.1063,-66.9000,24.4500,-37.9500,2.9500,4.3900,-8.3600,0.0851,-0.0251,-0.0175,5.5000,-30.6875,19.2500,152.9375,15.9375,-152.5625,0
445.429,9.5337,0.2418,1.5730,0.2278,0.2665,0.1903,-46.6500,9.1500,4.3500,9.5241,1.2091,0.8236,-0.0480,0.2611,0.1034,-66.9000,24.4500,-37.9500,2.9500,4.4700,-8.3300,0.0851,-0.0251,-0.0175,5.5000,-30.6875,19.2500,152.9375,15.9375,-152.5625,0
445.434,9.5553,0.3543,1.4533,0.1753,0.2457,0.1825,-46.6500,9.1500,4.3500,9.4044,1.1971,0.6225,-0.0594,0.2673,0.0994,-66.3000,24.1500,-36.1500,2.9500,4.4700,-8.3300,0.0709,-0.0207,-0.0153,5.1875,-29.8750,18.0625,152.6250,15.9375,-152.5625,0
445.439,9.5553,0.3543,1.4533,0.1753,0.2457,0.1825,-48.3000,10.5000,4.5000,9.4044,1.1971,0.6225,-0.0594,0.2673,0.0994,-66.3000,24.1500,-36.1500,2.9700,4.4800,-8.3300,0.0709,-0.0207,-0.0153,5.1875,-29.8750,18.0625,152.6250,15.9375,-152.5625,0
445.443,9.6414,0.4310,1.3479,0.1210,0.2459,0.1751,-48.3000,10.5000,4.5000,9.5050,1.1253,0.6416,-0.0847,0.2838,0.1066,-67.6500,23.5500,-37.5000,2.9700,4.4800,-8.3300,0.0644,-0.0240,-0.0175,5.1875,-29.8750,18.0625,152.6250,15.9375,-152.6250,0
445.448,9.6414,0.4310,1.3479,0.1210,0.2459,0.1751,-48.3000,10.5000,4.5000,9.5050,1.1253,0.6416,-0.0847,0.2838,0.1066,-67.6500,23.5500,-37.5000,2.9400,4.4900,-8.3000,0.0644,-0.0240,-0.0175,5.1875,-29.8750,18.0625,152.6250,15.9375,-152.6250,0
445.453,9.7157,0.6009,1.4030,0.0818,0.2196,0.1703,-48.3000,10.5000,4.5000,9.5505,1.2234,0.5842,-0.1108,0.2870,0.1151,-67.3500,25.5000,-37.9500,2.9400,4.4900,-8.3000,0.0611,-0.0262,-0.0175,5.1875,-29.8750,18.0625,152.6250,15.9375,-152.6250,0
445.459,9.7157,0.6009,1.4030,0.0818,0.2196,0.1703,-47.4000,9.4500,6.1500,9.5505,1.2234,0.5842,-0.1108,0.2870,0.1151,-67.3500,25.5000,-37.9500,2.9400,4.5000,-8.3500,0.0611,-0.0262,-0.0175,5.1875,-29.8750,18.0625,152.6250,15.9375,-152.6250,0
445.468,9.6822,0.7446,1.4126,0.0296,0.1993,0.1572,-48.0000,9.9000,6.1500,9.5361,1.4389,0.4741,-0.1071,0.2976,0.1151,-66.0000,24.6000,-38.1000,2.8900,4.4300,-8.3400,0.0578,-0.0262,-0.0196,5.1875,-29.8750,18.0625,152.6250,15.9375,-152.6875,0
445.472,9.7588,0.8164,1.3982,-0.0301,0.1689,0.1466,-48.0000,9.9000,6.1500,9.5600,1.4653,0.8547,-0.1039,0.3086,0.1202,-66.0000,24.6000,-38.1000,2.8900,4.4300,-8.3400,0.0578,-0.0240,-0.0164,5.1875,-29.8750,18.0625,152.6250,15.9375,-152.6875,0
445.479,9.7588,0.8164,1.3982,-0.0301,0.1689,0.1466,-48.7500,9.9000,6.4500,9.5600,1.4653,0.8547,-0.1039,0.3086,0.1202,-66.0000,24.6000,-38.1000,2.8700,4.4700,-8.3300,0.0578,-0.0240,-0.0164,5.1875,-29.8750,18.0625,152.6250,15.9375,-152.6875,0
445.483,9.7612,0.7254,1.3192,-0.1087,0.1018,0.1282,-48.7500,9.9000,6.4500,9.5217,1.6568,0.8140,-0.1394,0.3272,0.1316,-68.1000,23.5500,-37.2000,2.8700,4.4700,-8.3300,0.0578,-0.0240,-0.0164,5.1875,-29.8750,18.0625,152.1875,15.8750,-152.7500,0
445.489,9.7612,0.7254,1.3192,-0.1087,0.1018,0.1282,-48.0000,10.2000,6.1500,9.5792,1.6448,0.7326,-0.1394,0.3272,0.1316,-68.1000,23.5500,-37.2000,2.9000,4.4300,-8.3700,0.0556,-0.0262,-0.0120,5.5000,-29.5625,18.8750,152.1875,15.8750,-152.7500,0
445.493,9.5337,0.7446,1.3623,-0.1737,0.1420,0.1103,-48.0000,10.2000,6.1500,9.5792,1.6448,0.7326,-0.1362,0.3448,0.1450,-68.1000,23.5500,-37.2000,2.9000,4.4300,-8.3700,0.0556,-0.0262,-0.0120,5.5000,-29.5625,18.8750,152.1875,15.8750,-152.7500,0
445.499,9.5337,0.7446,1.3623,-0.1737,0.1420,0.1103,-47.1000,10.8000,5.7000,9.5553,1.3503,0.9002,-0.1362,0.3448,0.1450,-68.1000,23.5500,-37.2000,2.9200,4.5500,-8.3100,0.0556,-0.0240,-0.0120,5.5000,-29.5625,18.8750,152.1875,15.8750,-152.7500,0
445.504,9.4954,0.7614,1.5179,-0.2222,0.1631,0.1002,-47.1000,10.8000,5.7000,9.5553,1.3503,0.9002,-0.1306,0.3539,0.1490,-66.9000,25.2000,-36.4500,2.9200,4.5500,-8.3100,0.0600,-0.0251,-0.0087,5.5000,-29.5625,18.8750,152.1875,15.8750,-152.7500,0
445.509,9.4954,0.7614,1.5179,-0.2222,0.1631,0.1002,-47.1000,10.8000,5.7000,9.5744,1.1444,1.1181,-0.1306,0.3539,0.1490,-66.9000,25.2000,-36.4500,2.8800,4.5800,-8.3400,0.0600,-0.0251,-0.0087,5.5000,-29.5625,18.8750,152.1875,15.8750,-152.8125,0
445.518,9.5002,0.8739,1.7454,-0.2787,0.1628,0.1074,-47.4000,8.7000,6.4500,9.5600,1.1971,1.0965,-0.1452,0.3589,0.1553,-67.9500,24.1500,-36.6000,2.8900,4.5200,-8.3600,0.0676,-0.0316,-0.0087,5.5000,-29.5625,18.8750,152.1875,15.8750,-152.8125,0
445.523,9.5433,0.9146,1.9465,-0.3208,0.1460,0.1194,-47.4000,8.7000,6.4500,9.5600,1.1971,1.0965,-0.2110,0.3560,0.1751,-67.3500,24.7500,-36.7500,2.8900,4.5200,-8.3600,0.0698,-0.0295,-0.0065,5.5000,-29.5625,18.8750,152.1875,15.8750,-152.8125,0
445.529,9.5409,0.9074,1.9944,-0.3448,0.1412,0.1263,-48.3000,11.2500,5.2500,9.5289,1.3551,0.9337,-0.2401,0.3640,0.1932,-67.3500,24.7500,-36.7500,2.9100,4.3800,-8.3700,0.0698,-0.0295,-0.0065,5.5000,-29.5625,18.8750,152.1875,15.8750,-152.8125,0
445.534,9.5409,0.9074,1.9944,-0.3448,0.1412,0.1263,-49.3500,9.7500,5.7000,9.5289,1.3551,0.9337,-0.2401,0.3640,0.1932,-67.6500,24.7500,-37.2000,2.9100,4.3800,-8.3700,0.0665,-0.0295,-0.0065,5.8750,-29.5625,20.0625,151.6875,15.8750,-152.8750,0
445.539,9.4308,1.0319,1.9920,-0.3523,0.1290,0.1324,-49.3500,9.7500,5.7000,9.4212,1.4102,0.9553,-0.2052,0.3730,0.1969,-67.6500,24.7500,-37.2000,2.9300,4.4100,-8.3700,0.0665,-0.0295,-0.0065,5.8750,-29.5625,20.0625,151.6875,15.8750,-152.8750,0
445.544,9.4308,1.0319,1.9920,-0.3523,0.1290,0.1324,-49.2000,9.1500,5.8500,9.4212,1.4102,0.9553,-0.2052,0.3730,0.1969,-67.2000,24.6000,-36.1500,2.9300,4.4100,-8.3700,0.0622,-0.0305,-0.0055,5.8750,-29.5625,20.0625,151.6875,15.8750,-152.8750,0
445.549,9.3996,1.0439,1.9130,-0.3509,0.1404,0.1308,-49.2000,9.1500,5.8500,9.3326,1.1253,0.8787,-0.2380,0.3874,0.2041,-67.2000,24.6000,-36.1500,2.9200,4.4000,-8.3600,0.0622,-0.0305,-0.0055,5.8750,-29.5625,20.0625,151.6875,15.8750,-152.8750,0
445.553,9.3996,1.0439,1.9130,-0.3509,0.1404,0.1308,-49.2000,9.1500,5.8500,9.3326,1.1253,0.8787,-0.2380,0.3874,0.2041,-67.2000,24.1500,-34.8000,2.9200,4.4000,-8.3600,0.0567,-0.0295,-0.0044,5.8750,-29.5625,20.0625,151.6875,15.8750,-152.9375,0
445.559,9.3877,0.9601,1.9393,-0.3395,0.1410,0.1322,-49.2000,9.1500,5.8500,9.4475,1.0750,0.9816,-0.2614,0.3994,0.2081,-67.2000,24.1500,-34.8000,2.9100,4.4200,-8.3700,0.0567,-0.0295,-0.0044,5.8750,-29.5625,20.0625,151.6875,15.8750,-152.9375,0
445.568,9.4786,0.9888,1.9154,-0.3179,0.1045,0.1255,-48.4500,9.4500,6.1500,9.4308,1.1181,1.1516,-0.3142,0.4029,0.2201,-67.2000,24.1500,-34.8000,2.8900,4.4100,-8.4000,0.0524,-0.0240,-0.0022,5.8750,-29.5625,20.0625,151.6875,15.8750,-152.9375,0
445.574,9.4786,0.9888,1.9154,-0.3179,0.1045,0.1255,-48.3000,9.3000,7.3500,9.4308,1.1181,1.1516,-0.3142,0.4029,0.2201,-68.4000,22.8000,-35.7000,2.8900,4.4100,-8.4000,0.0535,-0.0284,-0.0033,5.8750,-29.5625,20.0625,151.6875,15.8750,-153.0000,0
445.579,9.5050,0.9792,1.8866,-0.3075,0.1324,0.1175,-48.3000,9.3000,7.3500,9.4643,1.3072,1.1037,-0.3102,0.4080,0.2249,-68.4000,22.8000,-35.7000,2.9100,4.3800,-8.3700,0.0535,-0.0284,-0.0033,5.8750,-29.5625,20.0625,151.6875,15.8750,-153.0000,0
445.584,9.5050,0.9792,1.8866,-0.3075,0.1324,0.1175,-49.5000,9.9000,5.4000,9.4643,1.3072,1.1037,-0.3102,0.4080,0.2249,-68.4000,24.0000,-36.4500,2.8900,4.3900,-8.3600,0.0491,-0.0284,0.0000,6.2500,-30.6875,19.7500,151.2500,15.8125,-153.0000,0
445.589,9.4619,1.0175,1.8483,-0.2926,0.1140,0.1130,-49.5000,9.9000,5.4000,9.4236,1.4557,1.1229,-0.3030,0.4370,0.2382,-68.4000,24.0000,-36.4500,2.8900,4.3900,-8.3600,0.0491,-0.0284,0.0000,6.2500,-30.6875,19.7500,151.2500,15.8125,-153.0000,0
445.594,9.4619,1.0175,1.8483,-0.2926,0.1140,0.1130,-48.7500,9.9000,7.6500,9.4236,1.4557,1.1229,-0.3030,0.4370,0.2382,-67.6500,24.4500,-34.2000,2.8900,4.3900,-8.3600,0.0480,-0.0349,0.0022,6.2500,-30.6875,19.7500,151.2500,15.8125,-153.0000,0
445.599,9.5361,1.0654,1.8531,-0.2667,0.1002,0.0997,-48.7500,9.9000,7.6500,9.4834,1.5586,1.1995,-0.2864,0.4234,0.2569,-67.6500,24.4500,-34.2000,2.9000,4.4000,-8.3500,0.0480,-0.0349,0.0022,6.2500,-30.6875,19.7500,151.2500,15.8125,-153.0000,0
445.604,9.5361,1.0654,1.8531,-0.2667,0.1002,0.0997,-48.4500,8.7000,5.8500,9.4834,1.5586,1.1995,-0.2864,0.4234,0.2569,-68.8500,23.5500,-34.9500,2.9000,4.4000,-8.3500,0.0447,-0.0382,-0.0011,6.2500,-30.6875,19.7500,151.2500,15.8125,-153.0625,0
445.609,9.5193,1.1037,1.9369,-0.2710,0.0815,0.0890,-48.4500,8.7000,5.8500,9.4691,1.6041,1.2498,-0.2699,0.4394,0.2787,-68.8500,23.5500,-34.9500,2.8700,4.3500,-8.3600,0.0447,-0.0382,-0.0011,6.2500,-30.6875,19.7500,151.2500,15.8125,-153.0625,0
445.618,9.4140,1.1013,2.0327,-0.2840,0.0669,0.0791,-48.4500,8.7000,5.8500,9.5026,1.4222,1.5634,-0.2377,0.4469,0.2896,-67.2000,24.1500,-34.8000,2.8600,4.4100,-8.3700,0.0382,-0.0393,0.0011,6.2500,-30.6875,19.7500,151.2500,15.8125,-153.0625,0
445.625,9.4140,1.1013,2.0327,-0.2840,0.0669,0.0791,-47.4000,8.4000,6.4500,9.5026,1.1708,1.8507,-0.2793,0.4583,0.3091,-67.2000,25.0500,-35.5500,2.8900,4.4500,-8.3600,0.0349,-0.0338,-0.0011,6.2500,-30.6875,19.7500,151.2500,15.8125,-153.0625,0
445.630,9.3733,0.9529,2.1548,-0.3035,0.0725,0.0640,-47.4000,8.4000,6.4500,9.5026,1.1708,1.8507,-0.2793,0.4583,0.3091,-67.2000,25.0500,-35.5500,2.8900,4.4500,-8.3600,0.0349,-0.0338,-0.0011,6.2500,-30.6875,19.7500,151.2500,15.8125,-153.0625,0
445.634,9.3733,0.9529,2.1548,-0.3035,0.0725,0.0640,-47.5500,9.0000,5.7000,9.5984,1.0271,1.8148,-0.3762,0.4479,0.3293,-67.2000,25.0500,-35.5500,2.8900,4.4500,-8.3600,0.0349,-0.0338,-0.0011,6.2500,-30.2500,20.0625,150.8125,15.8125,-153.1250,0
445.639,9.4355,0.8906,2.2793,-0.3485,0.0863,0.0538,-47.5500,9.0000,5.7000,9.5984,1.0271,1.8148,-0.3762,0.4479,0.3293,-67.2000,25.0500,-35.5500,2.8700,4.4200,-8.3800,0.0284,-0.0338,0.0055,6.2500,-30.2500,20.0625,150.8125,15.8125,-153.1250,0
445.644,9.4355,0.8906,2.2793,-0.3485,0.0863,0.0538,-47.7000,9.4500,6.1500,9.4308,1.0942,1.7142,-0.4333,0.4423,0.3467,-68.2500,25.0500,-35.5500,2.8700,4.4200,-8.3800,0.0284,-0.0338,0.0055,6.2500,-30.2500,20.0625,150.8125,15.7500,-153.1250,0
445.649,9.3254,0.8140,2.3703,-0.4167,0.0786,0.0568,-47.7000,9.4500,6.1500,9.4308,1.0942,1.7142,-0.4333,0.4423,0.3467,-68.2500,25.0500,-35.5500,2.8700,4.4300,-8.4100,0.0251,-0.0393,0.0033,6.2500,-30.2500,20.0625,150.8125,15.7500,-153.1250,0
445.654,9.3254,0.8140,2.3703,-0.4167,0.0786,0.0568,-48.3000,10.0500,6.7500,9.4667,1.1684,1.6616,-0.4692,0.4338,0.3680,-68.2500,25.0500,-35.5500,2.8700,4.4300,-8.4100,0.0207,-0.0425,0.0065,6.2500,-30.2500,20.0625,150.8125,15.7500,-153.1250,0
445.659,9.3015,0.7901,2.3607,-0.4759,0.0845,0.0618,-48.3000,10.0500,6.7500,9.4667,1.1684,1.6616,-0.4692,0.4338,0.3680,-68.2500,25.0500,-35.5500,2.8900,4.5100,-8.4100,0.0207,-0.0425,0.0065,6.2500,-30.2500,20.0625,150.8750,15.7500,-153.1250,0
445.668,9.3733,0.8356,2.3798,-0.5217,0.0751,0.0677,-48.3000,10.0500,6.7500,9.4379,1.3838,1.8172,-0.4455,0.4397,0.3880,-68.7000,23.8500,-34.3500,2.8800,4.4700,-8.3900,0.0207,-0.0425,0.0098,6.2500,-30.2500,20.0625,150.8750,15.7500,-153.1250,0
445.675,9.4403,0.9529,2.3080,-0.5510,0.0679,0.0589,-47.7000,9.4500,7.2000,9.6414,2.2769,2.0782,-0.3877,0.4247,0.4221,-68.7000,24.1500,-34.3500,2.8400,4.4600,-8.4000,0.0164,-0.0404,0.0120,6.2500,-30.2500,20.0625,150.8750,15.7500,-153.1250,0
445.680,9.4403,0.9529,2.3080,-0.5510,0.0679,0.0589,-47.7000,9.4500,7.2000,9.6414,2.2769,2.0782,-0.3877,0.4247,0.4221,-68.7000,24.1500,-34.3500,2.8400,4.4600,-8.4000,0.0164,-0.0404,0.0120,6.2500,-30.2500,20.0625,150.8750,15.7500,-153.1250,0
445.684,9.6845,1.1205,2.2960,-0.5684,0.0429,0.0405,-47.8500,10.0500,6.0000,9.7875,2.3583,1.7334,-0.3429,0.4255,0.4554,-69.0000,24.1500,-34.0500,2.8400,4.4600,-8.4000,0.0044,-0.0305,0.0185,5.8750,-28.8750,20.5000,150.4375,15.7500,-153.1250,0
445.689,9.6845,1.1205,2.2960,-0.5684,0.0429,0.0405,-47.8500,10.0500,6.0000,9.7875,2.3583,1.7334,-0.3429,0.4255,0.4554,-69.0000,24.1500,-34.0500,2.7800,4.4000,-8.5800,0.0044,-0.0305,0.0185,5.8750,-28.8750,20.5000,150.4375,15.7500,-153.1250,0
445.694,9.5122,1.1732,2.4301,-0.6179,0.0416,0.0288,-48.7500,8.7000,7.9500,9.7683,0.9218,2.0638,-0.1647,0.4820,0.4565,-69.6000,25.5000,-34.2000,2.7800,4.4000,-8.5800,0.0044,-0.0305,0.0185,5.8750,-28.8750,20.5000,150.4375,15.7500,-153.0625,0
445.699,9.5122,1.1732,2.4301,-0.6179,0.0416,0.0288,-48.7500,8.7000,7.9500,9.7683,0.9218,2.0638,-0.1647,0.4820,0.4565,-69.6000,25.5000,-34.2000,2.8400,4.8300,-8.3800,-0.0207,-0.0076,0.0207,5.8750,-28.8750,20.5000,150.4375,15.7500,-153.0625,0
445.704,9.2488,1.0774,2.5809,-0.6571,0.0989,0.0224,-47.7000,10.2000,7.2000,9.6726,0.0215,2.1428,-0.3643,0.4831,0.4748,-69.6000,25.5000,-34.2000,2.8400,4.8300,-8.3800,-0.0502,0.0196,0.0273,5.8750,-28.8750,20.5000,150.4375,15.7500,-153.0625,0
445.709,9.2488,1.0774,2.5809,-0.6571,0.0989,0.0224,-47.7000,10.2000,7.2000,9.6726,0.0215,2.1428,-0.3643,0.4831,0.4748,-69.6000,25.5000,-34.2000,2.7800,4.6900,-8.3400,-0.0502,0.0196,0.0273,5.8750,-28.8750,20.5000,150.4375,15.7500,-153.0625,0
445.718,9.3518,0.8452,2.8611,-0.6494,0.1212,0.0306,-47.8500,8.5500,8.5500,9.7588,0.4764,2.2027,-0.5359,0.4343,0.5071,-70.3500,24.7500,-33.0000,2.8100,4.4700,-8.4200,-0.0622,0.0164,0.0415,5.8750,-28.8750,20.5000,150.4375,15.8125,-153.0000,0
445.723,9.5553,0.5315,3.1939,-0.6678,0.1191,0.0405,-47.8500,8.5500,8.5500,9.9096,1.0080,2.5235,-0.4924,0.4306,0.5359,-70.3500,24.7500,-33.0000,2.8100,4.4700,-8.4200,-0.0698,0.0251,0.0502,5.8750,-28.8750,20.5000,150.5000,15.8125,-152.9375,0
445.729,9.5553,0.5315,3.1939,-0.6678,0.1191,0.0405,-47.8500,8.5500,8.5500,10.2903,0.8835,2.6264,-0.4924,0.4306,0.5359,-70.3500,24.7500,-33.0000,2.7900,4.3900,-8.5600,-0.0698,0.0251,0.0502,5.8750,-28.8750,20.5000,150.5000,15.8125,-152.9375,0
445.734,9.8641,0.2729,3.2848,-0.7394,0.1135,0.0690,-48.6000,9.3000,9.1500,10.2903,0.8835,2.6264,-0.3813,0.4269,0.5457,-68.7000,23.4000,-32.1000,2.7900,4.3900,-8.5600,-0.0960,0.0524,0.0556,7.3750,-30.2500,19.2500,150.0625,15.8750,-152.8750,0
445.739,9.8641,0.2729,3.2848,-0.7394,0.1135,0.0690,-48.6000,9.3000,9.1500,10.5249,0.1796,2.5426,-0.3813,0.4269,0.5457,-68.7000,23.4000,-32.1000,2.7800,4.4100,-8.5900,-0.0960,0.0524,0.0556,7.3750,-30.2500,19.2500,150.0625,15.8750,-152.8750,0
445.744,10.3549,0.1245,3.1077,-0.7922,0.1058,0.0935,-48.7500,7.6500,8.2500,10.5249,0.1796,2.5426,-0.3285,0.4173,0.5476,-70.3500,24.4500,-33.4500,2.7800,4.4100,-8.5900,-0.1440,0.0905,0.0676,7.3750,-30.2500,19.2500,150.1250,15.9375,-152.8125,0
445.749,10.3549,0.1245,3.1077,-0.7922,0.1058,0.0935,-48.7500,7.6500,8.2500,10.6446,-0.5578,2.3559,-0.3285,0.4173,0.5476,-70.3500,24.4500,-33.4500,2.7700,4.3500,-8.6800,-0.1440,0.0905,0.0676,7.3750,-30.2500,19.2500,150.1250,15.9375,-152.8125,0
445.754,10.6590,-0.1389,3.0071,-0.7815,0.0917,0.1239,-47.8500,8.5500,7.3500,10.6446,-0.5578,2.3559,-0.3664,0.4048,0.5598,-68.2500,21.9000,-32.8500,2.7700,4.3500,-8.6800,-0.2149,0.1407,0.0818,7.3750,-30.2500,19.2500,150.1250,16.0000,-152.6875,0
445.759,10.6590,-0.1389,3.0071,-0.7815,0.0917,0.1239,-47.8500,8.5500,7.3500,10.5896,-1.0463,2.2290,-0.4682,0.3914,0.5638,-68.2500,21.9000,-32.8500,2.7900,4.3600,-8.7400,-0.2149,0.1407,0.0818,7.3750,-30.2500,19.2500,150.1875,16.1250,-152.5625,0
445.768,10.5632,-0.3735,2.9066,-0.7224,0.0722,0.1455,-47.7000,8.7000,8.7000,10.6111,-1.2426,1.9680,-0.5561,0.3757,0.5545,-69.4500,22.9500,-32.5500,2.8000,4.2800,-8.7900,-0.3011,0.1931,0.0960,7.3750,-30.2500,19.2500,150.1875,16.1250,-152.5625,0
445.778,10.7069,-0.5914,2.6863,-0.6065,0.0834,0.1559,-47.7000,8.7000,8.7000,10.5129,-1.0582,1.6735,-0.6347,0.3688,0.5537,-70.8000,22.0500,-32.4000,2.7000,4.2200,-8.8400,-0.3982,0.2542,0.1200,7.3750,-30.2500,19.2500,150.2500,16.3125,-152.3125,0
445.783,10.9008,-0.8236,2.3224,-0.5116,0.0544,0.1545,-48.6000,9.7500,7.8000,10.5129,-1.0582,1.6735,-0.6347,0.3688,0.5537,-67.9500,22.0500,-32.4000,2.7000,4.2200,-8.8400,-0.3982,0.2542,0.1200,7.3750,-30.2500,19.2500,150.2500,16.3125,-152.3125,0
445.788,10.9008,-0.8236,2.3224,-0.5116,0.0544,0.1545,-48.6000,9.7500,7.8000,10.4818,-0.7494,1.7166,-0.6299,0.3738,0.5526,-67.9500,22.9500,-32.5500,2.8200,4.0600,-8.9700,-0.5018,0.3207,0.1374,5.5000,-29.8750,19.7500,150.0625,16.5000,-152.0625,0
445.793,10.9463,-0.8164,2.0231,-0.4237,0.0160,0.1428,-46.8000,9.7500,8.8500,10.4818,-0.7494,1.7166,-0.6299,0.3738,0.5526,-67.9500,22.9500,-32.5500,2.8200,4.0600,-8.9700,-0.5018,0.3207,0.1374,5.5000,-29.8750,19.7500,150.0625,16.5000,-152.0625,0
445.798,10.9463,-0.8164,2.0231,-0.4237,0.0160,0.1428,-46.8000,9.7500,8.8500,10.3022,-0.3855,1.6305,-0.5830,0.3778,0.5321,-67.9500,22.9500,-32.5500,3.0000,4.5800,-8.9300,-0.6032,0.4014,0.1505,5.5000,-29.8750,19.7500,150.1875,16.7500,-151.6875,0
445.803,10.8433,-0.6608,1.6664,-0.3826,-0.0269,0.1242,-46.0500,9.3000,8.1000,10.3022,-0.3855,1.6305,-0.5830,0.3778,0.5321,-67.9500,22.9500,-32.5500,3.0000,4.5800,-8.9300,-0.7025,0.4811,0.1724,5.5000,-29.8750,19.7500,150.2500,17.0000,-151.3125,0
445.809,10.8433,-0.6608,1.6664,-0.3973,-0.0989,0.1050,-46.8000,9.7500,9.9000,10.2185,-0.3304,1.8483,-0.5161,0.4037,0.5279,-69.1500,21.6000,-31.6500,2.9500,4.4000,-8.9000,-0.7025,0.4811,0.1724,5.5000,-29.8750,19.7500,150.2500,17.0000,-151.3125,0
445.818,10.6590,-0.4693,1.3360,-0.3973,-0.0989,0.1050,-46.9500,9.7500,9.9000,10.0892,-0.9313,1.7095,-0.6163,0.4109,0.5769,-70.8000,21.3000,-31.9500,2.7300,4.6500,-8.8200,-0.7789,0.5651,0.2203,5.5000,-29.8750,19.7500,150.3750,17.3125,-150.8750,0
445.828,10.5465,-0.2274,1.0295,-0.4357,-0.1647,0.0762,-46.9500,10.6500,9.3000,10.2232,-0.1317,1.3264,-0.4820,0.4850,0.6259,-69.7500,20.7000,-31.0500,2.1200,2.2800,-9.3400,-0.7821,0.6774,0.2422,5.5000,-29.8750,19.7500,150.5000,17.7500,-150.4375,0
445.832,10.0030,-0.1700,0.8284,-0.4946,-0.2300,0.0461,-46.9500,10.6500,9.3000,10.2232,-0.1317,1.3264,-0.4820,0.4850,0.6259,-69.7500,20.7000,-31.0500,2.1200,2.2800,-9.3400,-0.7821,0.6774,0.2422,5.5000,-29.8750,19.7500,150.5000,17.7500,-150.4375,0
445.837,10.0030,-0.1700,0.8284,-0.4946,-0.2300,0.0461,-46.9500,10.6500,9.3000,9.6774,0.3424,1.4916,-0.3059,0.4644,0.5534,-69.7500,20.7000,-30.3000,2.1700,5.4800,-8.0500,-0.6763,0.8552,0.2040,4.7500,-30.6875,18.8750,150.4375,18.1875,-150.0000,0
445.842,10.0844,-0.0120,0.8571,-0.5377,-0.2683,0.0200,-46.0500,10.5000,9.6000,9.6774,0.3424,1.4916,-0.3059,0.4644,0.5534,-69.7500,20.7000,-30.3000,2.1700,5.4800,-8.0500,-0.6763,0.8552,0.2040,4.7500,-30.6875,18.8750,150.4375,18.1875,-150.0000,0
445.847,10.0844,-0.0120,0.8571,-0.5377,-0.2683,0.0200,-46.0500,10.5000,9.6000,9.3015,0.0144,1.8962,-0.3909,0.5105,0.4820,-71.1000,22.0500,-29.7000,3.0600,5.8000,-8.0200,-0.7538,0.9381,0.2574,4.7500,-30.6875,18.8750,150.5625,18.6875,-149.5000,0
445.852,10.1251,0.0455,0.9218,-0.5716,-0.3147,-0.0016,-45.1500,9.9000,9.0000,9.3015,0.0144,1.8962,-0.3909,0.5105,0.4820,-71.1000,22.0500,-29.7000,3.0600,5.8000,-8.0200,-0.7538,0.9381,0.2574,4.7500,-30.6875,18.8750,150.6250,19.3125,-149.1250,0
445.859,9.9455,0.0599,0.8068,-0.6179,-0.3693,-0.0376,-46.5000,10.5000,9.6000,9.8282,-0.3256,1.9249,-0.4490,0.5305,0.5047,-70.0500,20.4000,-30.9000,3.0700,4.3500,-8.2700,-0.6752,1.0265,0.3240,4.7500,-30.6875,18.8750,150.7500,19.9375,-148.6875,0
445.868,10.1203,0.1772,0.8547,-0.6667,-0.4383,-0.0751,-45.4500,8.4000,9.0000,9.7899,-0.4764,1.6400,-0.5649,0.5343,0.5524,-70.0500,20.4000,-30.9000,3.1700,4.9000,-7.8400,-0.6283,1.1083,0.3992,4.7500,-30.6875,18.8750,150.7500,19.9375,-148.6875,0
445.878,10.1179,0.4022,0.8260,-0.6992,-0.5068,-0.1284,-45.4500,8.4000,9.0000,9.6151,-0.4884,1.4988,-0.7205,0.5332,0.5612,-69.7500,22.2000,-29.2500,3.4900,4.8800,-7.8000,-0.6283,1.1934,0.4832,4.7500,-30.6875,18.8750,150.8750,20.6250,-148.3125,0
445.883,10.1179,0.4022,0.8260,-0.6992,-0.5068,-0.1284,-45.4500,8.4000,9.0000,9.5433,-0.2466,1.2905,-0.7205,0.5332,0.5612,-69.7500,22.2000,-29.2500,3.4900,4.8800,-7.8000,-0.6283,1.1934,0.4832,4.7500,-30.6875,18.8750,151.0000,21.3750,-147.9375,0
445.888,10.0054,0.5722,0.8356,-0.7192,-0.5700,-0.1820,-44.4000,9.4500,10.5000,9.5433,-0.2466,1.2905,-0.8180,0.5585,0.5524,-69.7500,21.0000,-29.5500,3.6000,4.6400,-7.7100,-0.5836,1.2763,0.5694,4.0625,-31.0000,17.6875,151.0000,21.3750,-147.9375,0
445.893,10.0054,0.5722,0.8356,-0.7192,-0.5700,-0.1820,-44.4000,9.4500,10.5000,9.5050,-0.1556,1.2163,-0.8180,0.5585,0.5524,-69.7500,21.0000,-29.5500,3.6000,4.6400,-7.7100,-0.5836,1.2763,0.5694,4.0625,-31.0000,17.6875,151.0000,21.3750,-147.9375,0
445.898,9.9838,0.8021,0.7087,-0.7253,-0.5923,-0.2449,-46.2000,9.9000,9.7500,9.5050,-0.1556,1.2163,-0.8442,0.6003,0.5457,-70.8000,20.1000,-30.4500,3.9000,4.5400,-7.6100,-0.5694,1.3145,0.6698,4.0625,-31.0000,17.6875,151.2500,22.2500,-147.6250,0
445.903,9.9838,0.8021,0.7087,-0.7253,-0.5923,-0.2449,-46.2000,9.9000,9.7500,9.5457,-0.2083,1.1803,-0.8282,0.6616,0.5423,-70.8000,20.1000,-30.4500,3.9000,4.5400,-7.6100,-0.5672,1.3188,0.7679,4.0625,-31.0000,17.6875,151.5625,23.0625,-147.2500,0
445.909,9.7995,1.0271,0.5004,-0.7005,-0.6315,-0.3030,-44.8500,9.4500,9.3000,9.5457,-0.2083,1.1803,-0.8282,0.6616,0.5423,-70.5000,20.7000,-30.3000,3.8600,4.7800,-7.5600,-0.5672,1.3188,0.7679,4.0625,-31.0000,17.6875,151.8750,23.9375,-146.9375,0
445.919,9.7540,1.1636,0.0431,-0.6672,-0.6379,-0.3773,-45.3000,9.3000,9.6000,9.7492,-0.2346,1.1205,-0.8372,0.7043,0.5758,-71.7000,19.0500,-29.2500,4.0600,4.4400,-7.5100,-0.5716,1.3188,0.8716,4.0625,-31.0000,17.6875,151.8750,23.9375,-146.9375,0
445.929,9.6438,1.4102,-0.3136,-0.6667,-0.6763,-0.4519,-44.2500,9.7500,8.1000,9.9264,-0.1676,0.9888,-0.8775,0.7328,0.6214,-70.0500,20.1000,-28.9500,4.0600,4.1000,-7.5500,-0.5465,1.3537,0.9730,4.0625,-31.0000,17.6875,152.3125,24.8750,-146.6875,0
445.934,9.6438,1.4102,-0.3136,-0.6667,-0.6763,-0.4519,-44.2500,9.7500,8.1000,10.0940,0.0503,0.7087,-0.9177,0.7613,0.6923,-70.0500,20.1000,-28.9500,4.0600,4.1000,-7.5500,-0.5465,1.3537,0.9730,4.0625,-31.0000,17.6875,152.3125,24.8750,-146.6875,0
445.939,9.6438,1.6927,-0.5243,-0.7048,-0.7123,-0.5348,-44.2500,9.7500,8.1000,10.0940,0.0503,0.7087,-0.9177,0.7613,0.6923,-70.0500,20.1000,-28.9500,4.9200,5.1200,-7.7800,-0.5443,1.4050,1.0548,2.5625,-31.3750,17.2500,152.6250,25.8125,-146.4375,0
445.943,9.6438,1.6927,-0.5243,-0.7048,-0.7123,-0.5348,-44.2500,9.7500,8.1000,10.2687,0.0766,0.3974,-0.9044,0.8100,0.7573,-70.0500,20.1000,-28.9500,4.9200,5.1200,-7.7800,-0.5443,1.4050,1.0548,2.5625,-31.3750,17.2500,152.6250,25.8125,-146.4375,0
445.949,9.4643,1.7430,-0.6512,-0.7445,-0.7837,-0.5971,-44.1000,9.4500,7.6500,10.2687,0.0766,0.3974,-0.9044,0.8100,0.7573,-69.7500,18.3000,-28.5000,4.9700,5.5900,-8.1000,-0.5825,1.4606,1.1246,2.5625,-31.3750,17.2500,153.0625,26.8750,-146.1250,0
445.953,9.4643,1.7430,-0.6512,-0.7445,-0.7837,-0.5971,-44.1000,9.4500,7.6500,10.4770,0.1030,0.2251,-0.8402,0.8721,0.8194,-69.7500,18.3000,-28.5000,4.9700,5.5900,-8.1000,-0.5236,1.3984,1.1596,2.5625,-31.3750,17.2500,153.5625,27.8750,-145.8750,0
445.960,9.3637,1.9321,-1.0008,-0.7663,-0.8164,-0.6861,-45.7500,10.8000,8.5500,10.5105,-0.1508,-0.2131,-0.8402,0.8721,0.8194,-69.7500,18.3000,-28.5000,4.2100,4.2900,-7.7400,-0.5236,1.3984,1.1596,2.5625,-31.3750,17.2500,154.0625,28.9375,-145.6875,0
445.969,9.2488,2.4924,-1.5323,-0.7424,-0.8855,-0.7679,-45.4500,10.2000,10.5000,10.5105,-0.1508,-0.2131,-0.7890,0.9454,0.8450,-71.2500,18.3000,-28.8000,4.6300,5.2300,-7.9100,-0.4647,1.4879,1.2294,2.5625,-31.3750,17.2500,154.0625,28.9375,-145.6875,0
445.979,9.5624,2.7509,-1.4605,-0.6555,-1.0339,-0.8676,-45.1500,10.9500,9.0000,10.4914,-0.4788,-0.3974,-0.7171,1.0501,0.8410,-71.8500,18.9000,-26.1000,4.7700,5.4300,-7.7300,-0.3916,1.5784,1.3297,2.5625,-31.3750,17.2500,154.6250,30.0625,-145.5000,0
445.983,9.5624,2.7509,-1.4605,-0.6555,-1.0339,-0.8676,-45.1500,10.9500,9.0000,10.5010,-0.6416,-0.2801,-0.6787,1.1359,0.8018,-71.8500,18.9000,-26.1000,4.7700,5.4300,-7.7300,-0.3916,1.5784,1.3297,2.5625,-31.3750,17.2500,154.6250,30.0625,-145.5000,0
445.988,9.7085,2.4086,-0.5315,-0.6997,-1.1615,-0.9875,-45.1500,10.9500,9.0000,10.5010,-0.6416,-0.2801,-0.6787,1.1359,0.8018,-70.9500,19.5000,-26.2500,4.9100,5.4800,-7.5500,-0.2836,1.6548,1.4683,-0.6875,-32.2500,16.8750,241.1250,31.3125,-145.4375,0
445.993,9.7085,2.4086,-0.5315,-0.6997,-1.1615,-0.9875,-45.1500,10.9500,9.0000,10.5560,-0.6345,-0.1676,-0.6510,1.1780,0.7584,-70.9500,19.5000,-26.2500,4.9100,5.4800,-7.5500,-0.2836,1.6548,1.4683,-0.6875,-32.2500,16.8750,241.1250,31.3125,-145.4375,0
445.997,10.0293,1.8771,0.3256,-0.8450,-1.2828,-1.0317,-45.0000,12.0000,8.5500,10.5560,-0.6345,-0.1676,-0.6510,1.1780,0.7584,-71.1000,18.4500,-25.6500,5.0100,5.3600,-7.7000,-0.1876,1.7257,1.6428,-0.6875,-32.2500,16.8750,238.8750,32.5625,-145.5000,0
446.002,10.0293,1.8771,0.3256,-0.8450,-1.2828,-1.0317,-45.0000,12.0000,8.5500,10.6398,-0.2442,0.4717,-0.5540,1.2087,0.7293,-71.1000,18.4500,-25.6500,5.0100,5.3600,-7.7000,-0.1876,1.7257,1.6428,-0.6875,-32.2500,16.8750,236.4375,34.0000,-145.6250,0
446.009,10.2999,0.8212,0.5818,-0.5774,-1.3720,-1.0094,-43.6500,11.7000,8.7000,10.9702,0.1508,0.9792,-0.5311,1.2148,0.7338,-70.3500,18.1500,-24.9000,5.0800,5.0300,-7.8500,-0.0840,1.7573,1.8380,-0.6875,-32.2500,16.8750,233.8750,35.4375,-145.8750,0
446.019,10.4698,0.5986,0.2993,-0.2454,-1.3896,-0.9745,-42.9000,11.4000,6.9000,11.1546,0.2873,1.1684,-0.5012,1.1927,0.7514,-72.3000,18.1500,-25.6500,5.2000,4.6300,-8.0900,0.0316,1.8021,2.0268,-0.6875,-32.2500,16.8750,233.8750,35.4375,-145.8750,0
