timestamp,thigh_acc_x,thigh_acc_y,thigh_acc_z,thigh_gyro_x,thigh_gyro_y,thigh_gyro_z,thigh_mag_x,thigh_mag_y,thigh_mag_z,shank_acc_x,shank_acc_y,shank_acc_z,shank_gyro_x,shank_gyro_y,shank_gyro_z,shank_mag_x,shank_mag_y,shank_mag_z,foot_acc_x,foot_acc_y,foot_acc_z,foot_gyro_x,foot_gyro_y,foot_gyro_z,foot_mag_x,foot_mag_y,foot_mag_z,foot_euler_x,foot_euler_y,foot_euler_z,perturbation_event
1777067541.293,9.5816,1.5586,-2.3152,-0.2060,-0.2318,0.0349,-42.4500,33.3000,27.0000,9.0381,-0.2131,-0.1844,-0.5561,-0.2252,-0.0544,-52.3500,2.7000,8.1000,4.3900,4.2700,-7.6700,0.2345,0.0796,0.1167,-23.8750,-29.0625,12.0000,322.0000,29.0000,-143.4375,0
1777067541.298,8.8825,1.4365,-1.9609,-0.3720,-0.2630,0.0104,-42.4500,33.3000,27.0000,8.7867,0.6632,-0.1844,-0.4287,-0.1993,-0.1079,-52.3500,2.7000,8.1000,4.4800,4.7000,-7.0800,0.2018,0.1287,0.1931,-26.7500,-27.1875,12.0625,322.0000,29.0000,-143.4375,0
1777067541.303,8.8825,1.4365,-1.9609,-0.3720,-0.2630,0.0104,-41.4000,34.5000,29.8500,8.7867,0.6632,-0.1844,-0.4287,-0.1993,-0.1079,-54.0000,0.9000,8.7000,4.4800,4.7000,-7.0800,0.2018,0.1287,0.1931,-26.7500,-27.1875,12.0625,321.8125,29.0625,-143.5625,0
1777067541.308,8.6431,1.7549,-1.8579,-0.4796,-0.2614,0.0349,-41.4000,34.5000,29.8500,9.2727,1.1875,-0.2921,-0.3328,-0.1287,-0.0706,-54.0000,0.9000,8.7000,4.5400,4.8800,-6.8600,0.1298,-0.0229,0.2073,-26.7500,-27.1875,12.0625,321.8125,29.0625,-143.5625,0
1777067541.315,8.2432,2.2889,-1.6831,-0.5343,-0.2289,0.0578,-41.4000,34.8000,28.8000,9.6845,1.3479,-0.3352,-0.2084,-0.0735,-0.0301,-54.0000,0.9000,8.7000,4.7600,4.8000,-6.8600,0.1385,-0.1025,0.2062,-26.7500,-27.1875,12.0625,321.6250,29.1250,-143.7500,0
1777067541.320,8.2432,2.2889,-1.6831,-0.5343,-0.2289,0.0578,-41.4000,34.8000,28.8000,9.6845,1.3479,-0.3352,-0.2084,-0.0735,-0.0301,-54.0000,0.9000,8.7000,4.7600,4.8000,-6.8600,0.1385,-0.1025,0.2062,-26.7500,-27.1875,12.0625,321.5000,29.1250,-143.8750,0
1777067541.328,8.2265,2.7150,-1.5610,-0.5529,-0.0885,0.0967,-40.5000,34.6500,27.6000,10.0556,1.5634,-0.4717,-0.1383,-0.0445,0.0005,-54.0000,2.1000,9.3000,4.4600,4.7900,-6.9600,0.1669,-0.1494,0.2171,-26.7500,-27.1875,12.0625,228.5625,29.1250,-144.1250,0
1777067541.338,8.3989,2.9880,-1.5850,-0.4895,0.0157,0.1151,-40.5000,34.6500,27.6000,10.1131,1.7454,-0.6225,-0.0815,-0.0578,0.0314,-52.3500,1.5000,8.8500,5.0200,5.0600,-6.7800,0.1833,-0.1614,0.2411,-26.7500,-27.1875,12.0625,228.5625,29.1250,-144.1250,0
1777067541.343,8.4324,3.1220,-1.6975,-0.3706,0.0746,0.1247,-41.1000,34.6500,27.6000,9.8521,1.7454,-0.3998,0.0242,-0.0608,0.0362,-52.9500,1.3500,7.9500,5.0200,5.0600,-6.7800,0.1833,-0.1614,0.2411,-26.7500,-27.1875,12.0625,228.5625,29.1250,-144.1250,0
1777067541.348,8.4324,3.1220,-1.6975,-0.3706,0.0746,0.1247,-41.1000,34.6500,27.6000,9.8521,1.7454,-0.3998,0.0242,-0.0608,0.0362,-52.9500,1.3500,7.9500,5.1200,5.2000,-6.8400,0.1953,-0.2127,0.2476,-26.0625,-27.1875,10.8750,228.6875,29.1250,-144.3125,0
1777067541.353,8.5904,3.2801,-1.7741,-0.2105,0.1284,0.1303,-41.5500,35.7000,27.6000,9.7300,1.5706,-0.4214,0.1487,-0.0738,0.0472,-52.9500,1.3500,7.9500,5.1200,5.2000,-6.8400,0.1953,-0.2127,0.2476,-26.0625,-27.1875,10.8750,228.6875,29.1250,-144.3125,0
1777067541.358,8.5904,3.2801,-1.7741,-0.2105,0.1284,0.1303,-41.5500,35.7000,27.6000,9.7300,1.5706,-0.4214,0.1487,-0.0738,0.0472,-55.0500,1.0500,9.9000,4.6900,5.4900,-6.7700,0.1931,-0.2749,0.2193,-26.0625,-27.1875,10.8750,228.8125,29.0625,-144.5000,0
1777067541.365,8.8753,3.5530,-1.8387,-0.0805,0.2060,0.1231,-41.1000,34.2000,28.9500,9.4810,1.4269,-0.5076,0.1903,-0.0501,0.0512,-55.0500,1.0500,9.9000,4.2300,5.5700,-6.8600,0.2738,-0.3120,0.2029,-26.0625,-27.1875,10.8750,228.9375,29.0000,-144.7500,0
1777067541.370,8.8753,3.5530,-1.8387,-0.0805,0.2060,0.1231,-41.1000,34.2000,28.9500,9.4810,1.4269,-0.5076,0.1903,-0.0501,0.0512,-55.0500,1.0500,9.9000,4.2300,5.5700,-6.8600,0.2738,-0.3120,0.2029,-26.0625,-27.1875,10.8750,229.0625,28.8750,-145.1250,0
1777067541.378,9.1075,3.6847,-1.7454,-0.0221,0.1828,0.1066,-41.8500,34.9500,28.9500,9.5098,1.1947,-0.6704,0.2281,-0.0136,0.0624,-54.1500,1.5000,9.9000,4.3700,5.2500,-6.8400,0.3851,-0.3316,0.1942,-26.0625,-27.1875,10.8750,229.1250,28.8125,-145.5000,0
1777067541.388,9.0788,4.0486,-1.4988,-0.0456,0.1490,0.0807,-41.7000,33.3000,27.7500,9.7348,1.1660,-0.5339,0.2603,0.0056,0.0693,-54.1500,1.5000,9.9000,4.5200,5.2300,-7.0900,0.5029,-0.3338,0.1985,-26.0625,-27.1875,10.8750,229.1250,28.8125,-145.5000,0
1777067541.393,9.0956,4.3431,-1.5155,-0.0584,0.1431,0.0416,-41.7000,33.3000,27.7500,9.8138,1.1253,-0.7015,0.2753,0.0234,0.0962,-52.6500,1.5000,9.9000,4.5200,5.2300,-7.0900,0.5029,-0.3338,0.1985,-26.0625,-26.7500,11.6875,229.1875,28.6875,-145.9375,0
1777067541.399,9.0956,4.3431,-1.5155,-0.0584,0.1431,0.0416,-41.7000,33.3000,27.7500,9.8138,1.1253,-0.7015,0.2753,0.0234,0.0962,-52.6500,2.2500,9.6000,4.6300,4.7700,-7.1500,0.5727,-0.3240,0.1985,-26.0625,-26.7500,11.6875,229.1875,28.6875,-145.9375,0
1777067541.404,9.2416,4.7669,-1.8076,-0.0408,0.1487,0.0155,-41.4000,33.7500,28.0500,9.9479,0.8811,-0.7973,0.3501,0.0480,0.1434,-52.6500,2.2500,9.6000,4.6300,4.7700,-7.1500,0.6349,-0.3022,0.1745,-26.0625,-26.7500,11.6875,229.2500,28.6250,-146.3750,0
1777067541.409,9.2416,4.7669,-1.8076,-0.0408,0.1487,0.0155,-41.4000,33.7500,28.0500,9.9479,0.8811,-0.7973,0.3501,0.0480,0.1434,-53.8500,1.0500,8.4000,4.7300,4.8100,-7.2700,0.6349,-0.3022,0.1745,-26.0625,-26.7500,11.6875,229.2500,28.5625,-146.7500,0
1777067541.418,9.4140,4.6759,-1.9848,-0.0123,0.1458,-0.0037,-41.5500,34.2000,28.9500,9.9120,0.5842,-0.8859,0.4495,0.0794,0.1772,-54.0000,2.1000,10.0500,4.9200,4.3900,-7.4600,0.6403,-0.2116,0.1364,-26.0625,-26.7500,11.6875,229.2500,28.5625,-146.7500,0
1777067541.428,9.5624,4.4700,-2.1763,0.0402,0.0794,-0.0061,-41.4000,35.2500,28.0500,9.8761,0.0168,-0.6776,0.4892,0.0949,0.1804,-53.8500,1.0500,7.6500,4.6200,4.5000,-7.6400,0.5869,-0.1331,0.0960,-26.0625,-26.7500,11.6875,229.2500,28.5625,-147.1250,0
1777067541.436,9.5648,4.0989,-2.2362,0.1015,0.0080,-0.0005,-42.3000,34.2000,28.2000,9.6989,-0.2442,-0.7470,0.5084,0.0938,0.1604,-53.8500,1.0500,7.6500,4.4800,4.3400,-7.5900,0.5127,-0.0567,0.0774,-26.0625,-26.7500,11.6875,229.2500,28.5625,-147.4375,0
1777067541.441,9.5385,3.7924,-2.2146,0.2062,-0.0645,0.0115,-42.3000,34.2000,28.2000,9.6965,-0.2298,-0.8404,0.4962,0.0994,0.1522,-53.8500,1.0500,7.6500,4.4800,4.3400,-7.5900,0.5127,-0.0567,0.0774,-26.0625,-26.7500,11.6875,229.2500,28.5625,-147.4375,0
1777067541.446,9.5385,3.7924,-2.2146,0.2062,-0.0645,0.0115,-42.3000,34.2000,28.2000,9.6965,-0.2298,-0.8404,0.4962,0.0994,0.1522,-54.1500,1.0500,9.6000,4.7400,4.1600,-7.6200,0.4451,-0.0087,0.0644,-26.7500,-25.6875,14.8750,229.1875,28.5625,-147.7500,0
1777067541.451,9.3182,3.3208,-2.1524,0.2798,-0.1466,0.0240,-42.6000,33.9000,27.9000,9.9742,0.0215,-1.0056,0.4421,0.1122,0.1591,-54.1500,1.0500,9.6000,4.7400,4.1600,-7.6200,0.4451,-0.0087,0.0644,-26.7500,-25.6875,14.8750,229.1875,28.5625,-147.7500,0
1777067541.456,9.3182,3.3208,-2.1524,0.2798,-0.1466,0.0240,-42.6000,33.9000,27.9000,9.9742,0.0215,-1.0056,0.4421,0.1122,0.1591,-54.1500,1.0500,9.6000,4.4500,4.2500,-7.8200,0.3949,0.0404,0.0600,-26.7500,-25.6875,14.8750,229.1875,28.5625,-147.9375,0
1777067541.461,9.1985,3.0071,-2.1189,0.3246,-0.1636,0.0392,-42.4500,35.2500,28.5000,10.0126,0.4549,-0.9625,0.4796,0.1508,0.1785,-54.1500,1.0500,9.6000,4.4500,4.2500,-7.8200,0.3949,0.0404,0.0600,-26.7500,-25.6875,14.8750,229.1250,28.6250,-148.1250,0
1777067541.469,9.2273,2.7845,-2.1931,0.3427,-0.1937,0.0514,-41.4000,35.5500,28.5000,10.1394,0.6632,-0.6153,0.5654,0.1604,0.2033,-54.0000,1.3500,7.9500,4.4100,4.1600,-7.8200,0.3262,0.0709,0.0436,-26.7500,-25.6875,14.8750,229.0625,28.6875,-148.3125,0
1777067541.478,9.1530,2.5857,-2.1859,0.3613,-0.1895,0.0605,-41.4000,35.5500,28.5000,10.1155,0.7087,-0.5028,0.6686,0.1812,0.2076,-53.2500,1.6500,8.2500,4.5300,4.3300,-7.8200,0.2913,0.1374,0.0218,-26.7500,-25.6875,14.8750,229.0625,28.6875,-148.3125,0
1777067541.488,9.1650,2.4660,-2.1356,0.3611,-0.1575,0.0642,-41.5500,34.6500,28.2000,10.1945,0.5507,-0.0120,0.7746,0.1569,0.2028,-54.6000,2.2500,9.9000,4.3600,4.2700,-7.6900,0.2782,0.1724,-0.0109,-26.7500,-25.6875,14.8750,229.0000,28.8125,-148.4375,0
1777067541.493,9.1650,2.4660,-2.1356,0.3611,-0.1575,0.0642,-41.5500,34.6500,28.2000,10.1945,0.5507,-0.0120,0.7746,0.1569,0.2028,-54.6000,2.2500,9.9000,4.3600,4.2700,-7.6900,0.2782,0.1724,-0.0109,-26.7500,-25.6875,14.8750,229.0000,28.8125,-148.4375,0
1777067541.498,9.2512,2.2218,-2.1380,0.3493,-0.1343,0.0581,-41.5500,34.6500,28.2000,9.8019,0.5818,-0.1484,0.8034,0.2046,0.2073,-54.0000,0.4500,9.3000,4.3400,4.6600,-7.7100,0.2902,0.2040,-0.0513,-26.0625,-25.0000,14.8750,228.8750,28.8750,-148.5000,0
1777067541.503,9.2512,2.2218,-2.1380,0.3493,-0.1343,0.0581,-42.7500,35.5500,28.0500,9.8019,0.5818,-0.1484,0.8034,0.2046,0.2073,-54.0000,0.4500,9.3000,4.3400,4.6600,-7.7100,0.2902,0.2040,-0.0513,-26.0625,-25.0000,14.8750,228.8750,28.8750,-148.5000,0
1777067541.508,9.3087,2.1045,-2.1141,0.2950,-0.1210,0.0456,-42.7500,35.5500,28.0500,10.0485,0.9266,0.0838,0.8609,0.1551,0.2177,-54.1500,1.9500,8.1000,4.2800,4.6100,-7.8800,0.3316,0.2367,-0.0916,-26.0625,-25.0000,14.8750,228.7500,28.9375,-148.6250,0
1777067541.513,9.3087,2.1045,-2.1141,0.2950,-0.1210,0.0456,-43.6500,36.4500,28.9500,10.0485,0.9266,0.0838,0.8609,0.1551,0.2177,-54.1500,1.9500,8.1000,4.2800,4.6100,-7.8800,0.3851,0.2738,-0.1342,-26.0625,-25.0000,14.8750,228.5625,29.0625,-148.7500,0
1777067541.519,9.3470,2.0686,-2.0734,0.2635,-0.1087,0.0394,-42.3000,35.4000,27.6000,10.0724,0.8428,0.5507,0.9214,0.1127,0.2281,-55.2000,1.3500,9.0000,4.1700,4.3300,-8.2800,0.3851,0.2738,-0.1342,-26.0625,-25.0000,14.8750,228.3125,29.1875,-148.8750,0
1777067541.528,9.6606,2.2434,-1.9513,0.2118,-0.0488,0.0245,-42.7500,35.5500,27.3000,10.1945,0.5818,0.1915,1.0744,0.1023,0.2451,-55.2000,1.3500,9.0000,4.1800,4.8300,-7.7000,0.4254,0.4571,-0.2094,-26.0625,-25.0000,14.8750,228.3125,29.1875,-148.8750,0
1777067541.538,9.9311,2.3583,-1.8866,0.2078,0.0517,-0.0083,-42.7500,35.5500,27.3000,10.4938,-0.0287,-0.1317,1.2063,0.1015,0.2470,-53.2500,3.3000,9.0000,4.5100,4.6100,-7.7000,0.5552,0.6589,-0.2956,-26.0625,-25.0000,14.8750,228.0000,29.4375,-149.0000,0
1777067541.543,9.9311,2.3583,-1.8866,0.2078,0.0517,-0.0083,-42.7500,35.5500,27.3000,10.4938,-0.0287,-0.1317,1.2063,0.1015,0.2470,-53.2500,3.3000,9.0000,4.5100,4.6100,-7.7000,0.5552,0.6589,-0.2956,-26.0625,-25.0000,14.8750,227.6250,29.6875,-149.1875,0
1777067541.549,9.9264,2.2960,-1.8100,0.1463,0.0338,-0.0570,-42.7500,35.5500,27.3000,10.4794,-0.4262,-0.5363,1.2465,0.0901,0.2356,-53.4000,1.9500,8.1000,4.3200,4.1700,-8.1900,0.6741,0.7003,-0.3436,-26.7500,-25.0000,13.6875,227.6250,29.6875,-149.1875,0
1777067541.554,9.9264,2.2960,-1.8100,0.1463,0.0338,-0.0570,-42.7500,35.5500,27.3000,10.7571,-1.4389,-1.6065,1.2465,0.0901,0.2356,-53.4000,1.9500,8.1000,4.3200,4.1700,-8.1900,0.6741,0.7003,-0.3436,-26.7500,-25.0000,13.6875,227.2500,29.9375,-149.3125,0
1777067541.559,10.1131,2.2242,-1.9824,0.0887,0.0805,-0.1295,-42.4500,35.2500,28.8000,10.7571,-1.4389,-1.6065,1.1223,0.0743,0.2649,-53.7000,1.3500,8.2500,2.5200,9.2900,-8.5500,0.5869,0.7287,-0.3327,-26.7500,-25.0000,13.6875,227.2500,29.9375,-149.3125,0
1777067541.563,10.1131,2.2242,-1.9824,0.0887,0.0805,-0.1295,-42.4500,35.2500,28.8000,11.1690,-1.3623,-0.9481,1.1223,0.0743,0.2649,-53.7000,1.3500,8.2500,2.5200,9.2900,-8.5500,1.0167,0.6741,-0.5443,-26.7500,-25.0000,13.6875,226.6875,30.0625,-149.6250,0
1777067541.569,10.3717,2.2984,-2.1859,0.0874,0.1639,-0.2078,-41.7000,36.3000,27.3000,11.1690,-1.3623,-0.9481,1.1445,0.0027,0.3312,-53.2500,1.6500,7.5000,3.6500,2.3600,-11.1600,1.0167,0.6741,-0.5443,-26.7500,-25.0000,13.6875,225.6875,30.1875,-150.4375,0
1777067541.579,10.6015,2.2553,-2.7940,0.0727,0.1476,-0.2867,-42.3000,35.4000,28.6500,10.0963,-0.9912,-0.6680,1.1591,-0.0381,0.3539,-53.8500,2.7000,9.1500,6.0300,-0.4400,-7.5600,2.1740,0.7287,-1.0057,-26.7500,-25.0000,13.6875,225.6875,30.1875,-150.4375,0
1777067541.588,10.3477,2.2865,-3.2322,0.1029,0.1284,-0.3357,-42.6000,34.6500,27.9000,9.4188,-1.3216,-0.9313,1.4035,-0.0115,0.2710,-55.0500,1.9500,8.8500,7.9100,2.2100,-7.9200,1.9788,1.2468,-0.8727,-26.7500,-25.0000,13.6875,224.6875,30.5000,-151.0625,0
1777067541.593,10.3477,2.2865,-3.2322,0.1029,0.1284,-0.3357,-42.6000,34.6500,27.9000,9.3781,-2.4684,-0.6608,1.4959,0.0530,0.1911,-55.0500,1.9500,8.8500,7.9100,2.2100,-7.9200,1.9788,1.2468,-0.8727,-26.7500,-25.0000,13.6875,224.6875,30.5000,-151.0625,0
1777067541.598,10.0868,2.4565,-3.6488,0.1825,0.0735,-0.3728,-42.6000,34.6500,27.9000,9.3781,-2.4684,-0.6608,1.4959,0.0530,0.1911,-55.0500,1.9500,8.8500,6.4600,3.2900,-7.8200,1.1923,0.9610,-0.7374,-26.0625,-25.0000,14.8750,223.9375,30.8125,-151.3750,0
1777067541.603,10.0868,2.4565,-3.6488,0.2923,-0.0386,-0.3680,-42.6000,34.6500,27.9000,9.3805,-3.4117,-0.3089,1.4013,0.0869,0.1796,-55.0500,1.9500,8.8500,6.4600,3.2900,-7.8200,1.1923,0.9610,-0.7374,-26.0625,-25.0000,14.8750,223.9375,30.8125,-151.3750,0
1777067541.608,9.6822,2.6240,-3.9552,0.2923,-0.0386,-0.3680,-42.4500,36.0000,25.6500,9.3805,-3.4117,-0.3089,1.4013,0.0869,0.1796,-55.2000,1.3500,7.2000,5.2800,1.0900,-7.6600,1.2283,0.7450,-0.6534,-26.0625,-25.0000,14.8750,223.3125,31.0000,-151.7500,0
1777067541.614,9.2320,2.8180,-4.3096,0.4946,-0.1348,-0.3408,-42.4500,36.0000,25.6500,9.3829,-3.7014,-0.5555,0.8996,0.0802,0.1988,-55.2000,1.3500,7.2000,5.2800,1.0900,-7.6600,1.1988,0.5651,-0.5869,-26.0625,-25.0000,14.8750,222.6875,31.1250,-152.1250,0
1777067541.619,9.2320,2.8180,-4.3096,0.4946,-0.1348,-0.3408,-42.7500,37.5000,27.0000,9.3829,-3.7014,-0.5555,0.8996,0.0802,0.1988,-54.1500,3.0000,7.3500,4.5800,1.5800,-7.8200,1.1988,0.5651,-0.5869,-26.0625,-25.0000,14.8750,222.1875,31.1875,-152.3750,0
1777067541.629,9.0429,2.7988,-4.3120,0.6936,-0.2214,-0.2875,-42.3000,36.9000,27.6000,9.7492,-3.1508,-0.2107,0.4106,0.0746,0.2329,-54.0000,2.8500,6.7500,5.2000,2.1600,-8.0200,0.8476,0.4996,-0.5956,-26.0625,-25.0000,14.8750,222.1875,31.1875,-152.3750,0
1777067541.639,8.8538,2.8563,-4.0989,0.9084,-0.2377,-0.2430,-43.3500,37.2000,27.9000,9.5265,-1.8842,-0.1437,0.1348,0.1015,0.2718,-54.4500,0.4500,6.0000,6.0200,2.3100,-8.2000,0.6480,0.5236,-0.5727,-26.0625,-25.0000,14.8750,221.6875,31.3125,-152.4375,0
1777067541.643,8.3294,2.6719,-3.7469,0.9534,-0.3509,-0.2126,-43.3500,37.2000,27.9000,9.4427,-0.9697,0.1317,0.1817,0.1561,0.3104,-54.4500,0.4500,6.0000,6.0200,2.3100,-8.2000,0.6480,0.5236,-0.5727,-26.0625,-25.0000,14.8750,221.2500,31.3750,-152.4375,0
1777067541.649,8.3294,2.6719,-3.7469,0.9534,-0.3509,-0.2126,-43.3500,37.2000,27.9000,9.4427,-0.9697,0.1317,0.1817,0.1561,0.3104,-53.2500,3.3000,9.0000,6.0900,2.1600,-8.2600,0.4538,0.4854,-0.5825,-25.6875,-25.0000,15.2500,221.2500,31.3750,-152.4375,0
1777067541.653,8.2863,2.5331,-3.4429,0.9113,-0.3714,-0.1727,-43.3500,37.2000,27.9000,9.1411,-0.6512,0.4142,0.3592,0.2398,0.3387,-53.2500,3.3000,9.0000,6.0900,2.1600,-8.2600,0.4538,0.4854,-0.5825,-25.6875,-25.0000,15.2500,220.7500,31.4375,-152.3750,0
1777067541.659,8.2863,2.5331,-3.4429,0.9113,-0.3714,-0.1727,-42.9000,37.9500,26.4000,9.1411,-0.6512,0.4142,0.3592,0.2398,0.3387,-53.4000,1.9500,7.6500,6.5800,1.6900,-8.3000,0.3589,0.3905,-0.6283,-25.6875,-25.0000,15.2500,220.7500,31.4375,-152.3750,0
1777067541.664,8.2241,2.4325,-3.1316,0.7946,-0.1809,-0.1306,-42.9000,37.9500,26.4000,9.1004,-1.1588,0.5938,0.6033,0.3320,0.3477,-53.4000,1.9500,7.6500,6.5800,1.6900,-8.3000,0.3862,0.2542,-0.6490,-25.6875,-25.0000,15.2500,220.3125,31.3750,-152.3750,0
1777067541.669,8.2241,2.4325,-3.1316,0.7946,-0.1809,-0.1306,-41.1000,37.9500,26.8500,9.1698,-2.0901,0.9553,0.6033,0.3320,0.3477,-53.4000,1.9500,7.6500,6.6400,1.9900,-7.7900,0.3862,0.2542,-0.6490,-25.6875,-25.0000,15.2500,219.8125,31.3125,-152.3750,0
1777067541.679,8.6718,2.3822,-3.0861,0.6219,-0.1340,-0.0807,-42.9000,38.7000,26.4000,8.9711,-3.3160,1.5036,0.7738,0.4277,0.3421,-52.5000,1.3500,9.0000,6.4400,1.4700,-8.0800,0.4614,0.1920,-0.6927,-25.6875,-25.0000,15.2500,219.8125,31.3125,-152.3750,0
1777067541.689,8.5066,2.3367,-2.4397,0.4082,-0.1007,-0.0013,-42.4500,38.5500,25.9500,9.2488,-3.8666,1.6520,0.7354,0.4884,0.3392,-53.7000,3.6000,7.9500,6.2900,1.0000,-7.6800,0.4669,0.1974,-0.7112,-25.6875,-25.0000,15.2500,219.3125,31.2500,-152.4375,0
1777067541.694,8.9016,1.8818,-2.4636,0.2217,0.0829,0.0493,-42.4500,38.5500,25.9500,9.2488,-3.8666,1.6520,0.4074,0.5396,0.3328,-53.7000,3.6000,7.9500,6.2900,1.0000,-7.6800,0.4669,0.1974,-0.7112,-25.6875,-25.0000,15.2500,219.3125,31.2500,-152.4375,0
1777067541.699,8.9016,1.8818,-2.4636,0.2217,0.0829,0.0493,-42.4500,38.5500,25.9500,9.4810,-4.8914,1.2857,0.2675,0.5300,0.3379,-52.6500,1.5000,8.1000,7.4900,1.1500,-8.0500,0.4036,0.1440,-0.6589,-26.0625,-25.6875,14.8750,218.8750,31.1250,-152.4375,0
1777067541.704,9.4954,1.4820,-2.3942,0.0211,0.0754,0.0869,-42.4500,38.5500,25.9500,9.4810,-4.8914,1.2857,0.2675,0.5300,0.3379,-52.6500,1.5000,8.1000,7.4900,1.1500,-8.0500,0.4036,0.1440,-0.6589,-26.0625,-25.6875,14.8750,218.8750,31.1250,-152.4375,0
1777067541.709,9.4954,1.4820,-2.3942,0.0211,0.0754,0.0869,-42.4500,39.0000,26.7000,9.3518,-6.0094,2.0638,-0.0967,0.5793,0.3136,-53.4000,1.0500,8.8500,8.2900,-3.4000,-12.6500,0.2400,0.1647,-0.6632,-26.0625,-25.6875,14.8750,218.4375,31.0625,-152.3125,0
1777067541.715,9.5074,1.0846,-2.1237,-0.1029,0.0317,0.1380,-41.1000,39.9000,27.9000,9.3518,-6.0094,2.0638,-0.0967,0.5793,0.3136,-53.4000,1.0500,8.8500,8.9800,-6.8800,-14.9000,0.2640,-0.1222,-0.2793,-26.0625,-25.6875,14.8750,218.2500,30.8750,-152.4375,0
1777067541.720,9.6151,0.4693,-1.8124,-0.1796,-0.0480,0.2121,-41.1000,39.9000,27.9000,9.6103,-7.1658,1.5179,-0.7927,0.5769,0.3032,-54.0000,0.9000,7.2000,8.9800,-6.8800,-14.9000,0.2640,-0.1222,-0.2793,-26.0625,-25.6875,14.8750,218.7500,30.5625,-152.9375,0
1777067541.729,9.6151,0.4693,-1.8124,-0.2809,-0.0029,0.2987,-42.6000,37.9500,27.6000,10.3406,-6.2944,1.1564,-1.4501,0.5132,0.3392,-53.7000,1.3500,7.9500,7.2800,3.8700,-9.6100,0.2574,-1.0461,0.7341,-26.0625,-25.6875,14.8750,219.6875,30.2500,-153.5000,0
1777067541.739,9.8713,-0.7709,-2.2913,-0.3680,0.1146,0.3640,-43.2000,38.2500,27.7500,10.6255,-4.4436,1.4222,-2.0115,0.4509,0.4511,-53.7000,1.3500,7.9500,5.5400,1.2700,-8.9700,-0.0131,-1.3286,1.3657,-26.0625,-25.6875,14.8750,219.6875,30.2500,-153.5000,0
1777067541.744,9.8713,-0.7709,-2.2913,-0.3680,0.1146,0.3640,-43.2000,38.2500,27.7500,10.6255,-4.4436,1.4222,-2.0115,0.4509,0.4511,-53.7000,1.3500,7.9500,5.5400,1.2700,-8.9700,-0.0131,-1.3286,1.3657,-26.0625,-25.6875,14.8750,220.5625,29.8125,-154.2500,0
1777067541.749,10.3621,-1.1253,-2.7438,-0.3746,-0.1495,0.4104,-42.3000,37.9500,25.8000,10.2376,-2.3535,1.3479,-2.1522,0.3813,0.5452,-52.9500,0.4500,9.7500,3.6000,0.8500,-7.6100,0.2858,-1.5370,1.3101,-25.3750,-26.5000,15.2500,220.5625,29.8125,-154.2500,0
1777067541.754,10.3621,-1.1253,-2.7438,-0.3746,-0.1495,0.4104,-42.3000,37.9500,25.8000,10.2376,-2.3535,1.3479,-2.1522,0.3813,0.5452,-52.9500,0.4500,9.7500,3.6000,0.8500,-7.6100,0.2858,-1.5370,1.3101,-25.3750,-26.5000,15.2500,221.1875,29.3750,-154.8750,0
1777067541.759,10.0389,-1.1372,-2.9281,-0.3698,-0.3083,0.4397,-42.3000,37.9500,25.8000,9.7492,-0.5171,1.2617,-1.9137,0.3277,0.5865,-54.1500,0.0000,10.3500,3.1100,2.3700,-6.7200,0.3120,-1.3483,0.9447,-25.3750,-26.5000,15.2500,221.1875,29.3750,-154.8750,0
1777067541.765,10.0389,-1.1372,-2.9281,-0.3698,-0.3083,0.4397,-43.2000,37.0500,23.8500,9.4571,0.7638,1.2474,-1.9137,0.3277,0.5865,-54.1500,0.0000,10.3500,3.7100,2.9200,-7.0500,0.0840,-0.9523,0.6130,-25.3750,-26.5000,15.2500,221.6250,29.0000,-155.2500,0
1777067541.770,9.6654,-1.1109,-2.9856,-0.3691,-0.2225,0.4498,-43.2000,37.0500,23.8500,9.4571,0.7638,1.2474,-1.3907,0.2694,0.5740,-55.0500,-0.3000,9.6000,3.7100,2.9200,-7.0500,0.0840,-0.9523,0.6130,-25.3750,-26.5000,15.2500,221.8750,28.8125,-155.4375,0
1777067541.779,9.5122,-1.0032,-3.1244,-0.5044,-0.1673,0.4567,-43.5000,34.0500,27.0000,9.1099,1.2761,0.9313,-0.7576,0.2366,0.5140,-53.2500,-0.1500,11.2500,4.0600,2.7300,-7.2800,0.0687,-0.6021,0.3709,-25.3750,-26.5000,15.2500,222.0000,28.6875,-155.5625,0
1777067541.789,9.2656,-0.5746,-2.7294,-0.5806,-0.2137,0.4956,-41.7000,34.8000,25.6500,8.5545,0.9864,1.0367,-0.1599,0.2659,0.4405,-52.9500,-0.4500,10.5000,4.0600,2.6000,-7.7300,0.0480,-0.3502,0.1734,-25.3750,-26.5000,15.2500,222.0000,28.6875,-155.5625,0
1777067541.794,9.2656,-0.5746,-2.7294,-0.5806,-0.2137,0.4956,-43.2000,34.8000,27.7500,9.0046,0.1987,1.5897,-0.1599,0.2659,0.4405,-52.9500,-0.4500,10.5000,4.0600,2.6000,-7.7300,0.0480,-0.3502,0.1734,-25.3750,-26.5000,15.2500,222.0000,28.6875,-155.5625,0
1777067541.799,9.0453,-0.2442,-2.6600,-0.6736,-0.2062,0.5185,-43.2000,34.8000,27.7500,9.0046,0.1987,1.5897,0.2952,0.2435,0.3997,-55.0500,-0.3000,10.6500,4.6000,3.3200,-8.2400,-0.0109,-0.2563,0.0393,-24.5625,-25.0000,17.6875,222.0625,28.5625,-155.6250,0
1777067541.804,9.0453,-0.2442,-2.6600,-0.6736,-0.2062,0.5185,-43.2000,34.8000,27.7500,9.2344,-0.7709,1.4078,0.2952,0.2435,0.3997,-55.0500,-0.3000,10.6500,4.6000,3.3200,-8.2400,-0.0109,-0.2563,0.0393,-24.5625,-25.0000,17.6875,222.0625,28.5625,-155.6250,0
1777067541.809,9.2344,0.3089,-2.3176,-0.7629,-0.2289,0.5526,-43.2000,34.8000,27.7500,9.2344,-0.7709,1.4078,0.6416,0.2537,0.4199,-55.0500,-0.3000,10.6500,4.9600,3.5400,-8.7400,0.0022,-0.2847,-0.0513,-24.5625,-25.0000,17.6875,222.0625,28.3750,-155.6250,0
1777067541.815,9.2344,0.3089,-2.3176,-0.7629,-0.2289,0.5526,-43.5000,31.8000,26.7000,9.6079,-1.7909,1.2330,0.7027,0.2393,0.4575,-55.0500,-0.3000,10.6500,5.4000,3.4000,-9.0200,0.0349,-0.3131,-0.1353,-24.5625,-25.0000,17.6875,222.0000,28.1875,-155.6875,0
1777067541.820,9.1985,0.6656,-2.2027,-0.7887,-0.2513,0.5494,-43.5000,31.8000,26.7000,9.6079,-1.7909,1.2330,0.7027,0.2393,0.4575,-54.1500,-1.5000,9.6000,5.4000,3.4000,-9.0200,0.0349,-0.3131,-0.1353,-24.5625,-25.0000,17.6875,221.9375,27.9375,-155.6875,0
1777067541.829,9.1051,1.2019,-1.6376,-0.7493,-0.2774,0.5577,-43.9500,31.5000,28.8000,9.9431,-2.8946,1.0558,0.6406,0.1937,0.4858,-54.6000,-0.7500,9.9000,3.4900,1.9200,-7.8700,0.0971,-0.4091,-0.2629,-24.5625,-25.0000,17.6875,221.9375,27.9375,-155.6875,0
1777067541.839,9.2249,1.7262,-1.8316,-0.7496,-0.1087,0.5505,-45.1500,30.9000,29.2500,10.0149,-3.7517,1.2522,0.4042,0.1567,0.4975,-55.0500,-1.0500,10.6500,3.2500,1.6500,-7.5800,0.1854,-0.5803,-0.3142,-24.5625,-25.0000,17.6875,221.7500,27.5625,-155.7500,0
1777067541.844,9.2249,1.7262,-1.8316,-0.7496,-0.1087,0.5505,-42.4500,30.7500,29.5500,9.5002,-4.1180,1.4126,0.0586,0.1362,0.5044,-55.0500,-1.0500,10.6500,3.2500,1.6500,-7.5800,0.1854,-0.5803,-0.3142,-24.5625,-25.0000,17.6875,221.6875,27.2500,-155.9375,0
1777067541.849,9.3925,2.1308,-1.5969,-0.8021,-0.1338,0.5489,-42.4500,30.7500,29.5500,9.5002,-4.1180,1.4126,0.0586,0.1362,0.5044,-54.1500,-1.0500,9.9000,3.8700,1.8900,-7.8900,0.2302,-0.5411,-0.2040,-24.5625,-23.8750,17.6875,221.6875,27.2500,-155.9375,0
1777067541.854,9.3925,2.1308,-1.5969,-0.8021,-0.1338,0.5489,-42.4500,30.7500,29.5500,9.4092,-3.7014,1.0798,-0.4194,0.1284,0.4855,-54.1500,-1.0500,9.9000,3.8700,1.8900,-7.8900,0.2302,-0.5411,-0.2040,-24.5625,-23.8750,17.6875,221.6875,27.0625,-156.0625,0
1777067541.859,9.5792,2.0853,-1.8196,-0.7658,-0.1937,0.5614,-42.4500,30.7500,29.5500,9.4092,-3.7014,1.0798,-0.4194,0.1284,0.4855,-52.6500,-1.0500,9.9000,4.7500,2.1700,-8.4200,0.2149,-0.3916,-0.0600,-24.5625,-23.8750,17.6875,221.6875,27.0625,-156.0625,0
1777067541.864,9.5792,2.0853,-1.8196,-0.7658,-0.1937,0.5614,-43.9500,31.0500,28.8000,9.4954,-3.0742,1.1468,-0.7669,0.1226,0.4767,-52.6500,-1.0500,9.9000,4.7500,2.1700,-8.4200,0.1833,-0.3469,0.0011,-24.5625,-23.8750,17.6875,221.6875,26.8750,-156.1875,0
1777067541.870,9.6726,2.4134,-1.6281,-0.6166,-0.2531,0.5630,-43.9500,31.0500,28.8000,9.4954,-3.0742,1.1468,-0.7669,0.1226,0.4767,-52.9500,-2.8500,10.0500,4.8900,2.3300,-8.5100,0.1833,-0.3469,0.0011,-24.5625,-23.8750,17.6875,221.7500,26.6250,-156.3750,0
1777067541.879,9.6031,2.6169,-1.6400,-0.4442,-0.2246,0.5521,-44.2500,28.5000,29.5500,9.7636,-2.1835,0.8140,-0.9625,0.0935,0.4543,-52.9500,-2.8500,10.0500,4.8200,2.4000,-8.1100,0.1440,-0.4320,0.0338,-24.5625,-23.8750,17.6875,221.7500,26.6250,-156.3750,0
1777067541.889,9.3565,2.7054,-1.9201,-0.3062,-0.2422,0.5271,-44.8500,28.9500,30.4500,9.7205,-1.6975,0.9912,-1.0826,0.0671,0.4010,-53.8500,-2.2500,9.9000,4.7300,2.6400,-7.9000,0.1396,-0.5301,0.1309,-24.5625,-23.8750,17.6875,221.8125,26.4375,-156.5000,0
1777067541.894,9.2943,2.6049,-2.1811,-0.2209,-0.2627,0.5308,-44.1000,29.7000,29.7000,9.4691,-1.5634,1.4748,-0.9896,0.0725,0.3608,-53.8500,-2.2500,9.9000,4.7300,2.6400,-7.9000,0.1396,-0.5301,0.1309,-24.5625,-23.8750,17.6875,221.8125,26.4375,-156.5000,0
1777067541.899,9.2943,2.6049,-2.1811,-0.2209,-0.2627,0.5308,-44.1000,29.7000,29.7000,9.4691,-1.5634,1.4748,-0.9896,0.0725,0.3608,-53.8500,-2.2500,9.9000,5.5200,2.5900,-8.7100,0.1287,-0.6130,0.3294,-23.5000,-24.1875,19.2500,222.0625,26.1875,-156.7500,0
1777067541.904,9.2153,2.4588,-2.3798,-0.1271,-0.2774,0.5308,-44.1000,29.7000,29.7000,9.2320,-1.2881,1.1803,-1.0174,0.1191,0.3251,-54.4500,-1.3500,10.0500,5.5200,2.5900,-8.7100,0.1287,-0.6130,0.3294,-23.5000,-24.1875,19.2500,222.0625,26.1875,-156.7500,0
1777067541.909,9.2153,2.4588,-2.3798,-0.1271,-0.2774,0.5308,-44.1000,29.7000,29.7000,9.2320,-1.2881,1.1803,-1.0174,0.1191,0.3251,-54.4500,-1.3500,10.0500,6.5100,3.1700,-9.1600,0.0022,-0.6512,0.5672,-23.5000,-24.1875,19.2500,222.4375,25.9375,-156.9375,0
1777067541.915,9.4978,2.4229,-2.4014,-0.0093,-0.2526,0.4980,-44.1000,29.7000,29.7000,9.6893,-1.1947,0.8021,-1.0416,0.1287,0.2870,-52.9500,-2.8500,11.5500,5.4100,3.1500,-8.2800,-0.1560,-0.8039,0.6632,-23.5000,-24.1875,19.2500,222.9375,25.6875,-157.1250,0
1777067541.920,9.4978,2.4229,-2.4014,-0.0093,-0.2526,0.4980,-44.1000,29.7000,29.7000,10.1778,-1.1133,0.9098,-1.0368,0.1018,0.2678,-53.2500,-3.6000,10.5000,5.4100,3.1500,-8.2800,-0.1560,-0.8039,0.6632,-23.5000,-24.1875,19.2500,223.5000,25.2500,-157.2500,0
1777067541.929,9.6271,2.2936,-2.3535,0.1319,-0.2731,0.4471,-45.0000,28.8000,28.5000,9.8090,-0.9720,0.9768,-0.9912,0.1106,0.2803,-54.1500,-4.2000,11.1000,3.7800,3.5000,-6.7200,-0.2171,-1.1050,0.7069,-23.5000,-24.1875,19.2500,223.5000,25.2500,-157.2500,0
1777067541.939,9.7875,1.8794,-2.1620,0.2204,-0.2321,0.3896,-44.1000,27.9000,30.0000,9.6510,-0.8164,0.8068,-0.9491,0.1015,0.2838,-54.1500,-4.2000,11.1000,3.9900,3.8200,-6.8000,-0.2193,-1.1541,0.8607,-23.5000,-24.1875,19.2500,224.1250,24.8750,-157.5000,0
1777067541.944,10.0485,1.8244,-2.0255,0.3299,-0.2332,0.3906,-44.5500,28.5000,29.1000,9.6510,-0.8164,0.8068,-0.9491,0.1015,0.2838,-53.4000,-3.0000,12.4500,3.9900,3.8200,-6.8000,-0.2193,-1.1541,0.8607,-23.5000,-24.1875,19.2500,224.1250,24.8750,-157.5000,0
1777067541.949,10.0485,1.8244,-2.0255,0.3299,-0.2332,0.3906,-44.5500,28.5000,29.1000,9.9647,-0.8835,1.0343,-0.8463,0.0610,0.2702,-53.4000,-3.0000,12.4500,3.6600,4.0600,-6.9500,-0.1767,-0.9970,0.9643,-23.5000,-23.8750,20.0625,224.7500,24.5625,-157.6875,0
1777067541.954,9.6151,2.0877,-2.3942,0.2153,-0.2923,0.4199,-44.5500,28.5000,29.5500,9.9647,-0.8835,1.0343,-0.8463,0.0610,0.2702,-53.4000,-3.0000,12.4500,3.6600,4.0600,-6.9500,-0.1767,-0.9970,0.9643,-23.5000,-23.8750,20.0625,224.7500,24.5625,-157.6875,0
1777067541.959,9.6151,2.0877,-2.3942,0.2153,-0.2923,0.4199,-44.5500,28.5000,29.5500,9.5888,-1.5969,0.9098,-0.7975,0.0498,0.2164,-53.4000,-3.0000,12.4500,3.3200,4.4000,-7.1600,-0.1571,-0.7996,0.9305,-23.5000,-23.8750,20.0625,225.3750,24.3750,-157.9375,0
1777067541.965,9.6726,1.9585,-2.2362,-0.0229,-0.3752,0.3965,-44.5500,28.5000,29.5500,9.5888,-1.5969,0.9098,-0.7975,0.0498,0.2164,-53.1000,-4.2000,11.8500,3.3200,4.4000,-7.1600,-0.1745,-0.6370,0.8454,-23.5000,-23.8750,20.0625,225.9375,24.1875,-158.0625,0
1777067541.970,9.6726,1.9585,-2.2362,-0.0229,-0.3752,0.3965,-44.5500,28.5000,29.5500,9.5720,-1.9321,0.9026,-0.7938,0.0053,0.1532,-53.1000,-4.2000,11.8500,2.8700,5.0900,-7.4300,-0.1745,-0.6370,0.8454,-23.5000,-23.8750,20.0625,226.4375,24.0000,-158.1875,0
1777067541.979,8.4204,0.9625,-2.4134,-0.0445,-0.3552,0.3427,-44.2500,28.0500,30.6000,9.6223,-1.8938,0.9242,-0.9052,-0.0783,0.0703,-53.1000,-4.2000,11.8500,2.1900,4.3400,-7.1200,-0.2040,-0.6381,0.7625,-23.5000,-23.8750,20.0625,226.4375,24.0000,-158.1875,0
1777067541.989,8.8370,0.0024,-3.0239,-0.2038,-0.0629,0.3818,-46.9500,27.1500,28.2000,9.6822,-1.5778,0.9457,-1.0216,-0.1705,-0.0093,-54.4500,-4.5000,10.8000,1.5700,3.5300,-7.0900,-0.2334,-0.6578,0.7232,-23.5000,-23.8750,20.0625,226.9375,23.8125,-158.3125,0
1777067541.994,9.3661,-0.4286,-2.9233,-0.2641,0.0823,0.4530,-45.9000,27.9000,28.2000,9.6822,-1.5778,0.9457,-1.0216,-0.1705,-0.0093,-54.0000,-4.0500,11.2500,1.5700,3.5300,-7.0900,-0.2334,-0.6578,0.7232,-23.5000,-23.8750,20.0625,227.5625,23.7500,-158.2500,0
1777067541.999,9.3661,-0.4286,-2.9233,-0.2641,0.0823,0.4530,-45.9000,27.9000,28.2000,9.4786,-1.0918,0.8428,-1.1775,-0.2617,-0.0416,-54.0000,-4.0500,11.2500,1.4600,4.0500,-7.5600,-0.5345,-0.5411,0.8694,-23.5000,-22.7500,22.5000,227.5625,23.7500,-158.2500,0
1777067542.004,9.1411,-0.3089,-3.1915,-0.2987,-0.0346,0.4799,-46.2000,26.7000,28.6500,9.4786,-1.0918,0.8428,-1.1775,-0.2617,-0.0416,-54.7500,-3.6000,11.2500,1.4600,4.0500,-7.5600,-0.5345,-0.5411,0.8694,-23.5000,-22.7500,22.5000,227.5625,23.7500,-158.2500,0
1777067542.009,9.1411,-0.3089,-3.1915,-0.2987,-0.0346,0.4799,-46.2000,26.7000,28.6500,9.3901,-0.7997,0.7015,-1.2172,-0.3435,-0.0458,-54.7500,-3.6000,11.2500,1.4800,4.1900,-7.9100,-0.5345,-0.5411,0.8694,-23.5000,-22.7500,22.5000,228.1250,23.6250,-158.1875,0
1777067542.015,8.6766,0.1077,-2.9281,-0.3813,-0.1711,0.4906,-46.2000,26.7000,28.6500,9.3805,-0.7326,0.4645,-1.2172,-0.3435,-0.0458,-55.3500,-4.9500,11.1000,1.4800,4.1900,-7.9100,-0.4778,-0.4767,0.9741,-23.5000,-22.7500,22.5000,228.8125,23.5625,-158.1875,0
1777067542.020,8.3534,0.4884,-2.3942,-0.5391,-0.1783,0.4863,-46.9500,25.2000,27.6000,9.3805,-0.7326,0.4645,-1.2225,-0.4048,-0.0338,-55.3500,-4.9500,11.1000,1.7100,4.0700,-8.3300,-0.4778,-0.4767,0.9741,-23.5000,-22.7500,22.5000,229.4375,23.5000,-158.2500,0
1777067542.029,8.2504,0.7925,-2.0255,-0.6723,-0.0693,0.4708,-46.9500,25.2000,27.6000,9.4020,-0.7446,0.2394,-1.2068,-0.4620,-0.0389,-55.3500,-4.9500,11.1000,1.5700,4.2600,-8.0800,-0.3687,-0.5498,1.0297,-23.5000,-22.7500,22.5000,229.4375,23.5000,-158.2500,0
1777067542.039,8.4180,0.9625,-1.5993,-0.7879,-0.0389,0.4647,-45.7500,27.0000,28.0500,9.3877,-0.9218,-0.3184,-1.2452,-0.5153,-0.0557,-53.1000,-4.9500,10.6500,1.4200,4.3800,-7.7100,-0.3480,-0.6163,1.0090,-23.5000,-22.7500,22.5000,230.1250,23.4375,-158.3750,0
1777067542.044,8.4180,0.9625,-1.5993,-0.7879,-0.0389,0.4647,-47.8500,25.0500,28.5000,9.2967,-1.1325,-0.2849,-1.2263,-0.5668,-0.0911,-53.1000,-4.9500,10.6500,1.4200,4.3800,-7.7100,-0.3480,-0.6163,1.0090,-23.5000,-22.7500,22.5000,230.1250,23.4375,-158.3750,0
1777067542.049,8.7053,1.1157,-1.7526,-0.8588,-0.1061,0.4453,-46.6500,22.9500,28.2000,9.2967,-1.1325,-0.2849,-1.2263,-0.5668,-0.0911,-53.1000,-4.9500,10.6500,1.5400,4.2400,-7.3400,-0.2956,-0.5596,0.9992,-23.5000,-21.7500,21.6875,230.7500,23.3125,-158.4375,0
1777067542.054,8.7053,1.1157,-1.7526,-0.8588,-0.1061,0.4453,-46.6500,22.9500,28.2000,8.8107,-1.0391,-0.5219,-1.3147,-0.5820,-0.1287,-52.9500,-4.8000,10.5000,1.5400,4.2400,-7.3400,-0.2956,-0.5596,0.9992,-23.5000,-21.7500,21.6875,230.7500,23.3125,-158.4375,0
1777067542.059,8.8490,1.5107,-2.1428,-0.8942,-0.1167,0.4293,-46.6500,22.9500,28.2000,8.8107,-1.0391,-0.5219,-1.3147,-0.5820,-0.1287,-52.9500,-4.8000,10.5000,1.4800,4.0300,-6.7600,-0.2345,-0.4112,1.0167,-23.5000,-21.7500,21.6875,231.4375,23.3125,-158.5625,0
1777067542.064,8.8490,1.5107,-2.1428,-0.8942,-0.1167,0.4293,-46.6500,22.9500,28.2000,9.1363,-0.4310,-0.6321,-1.2590,-0.6787,-0.1607,-54.1500,-3.4500,10.3500,1.4800,4.0300,-6.7600,-0.2171,-0.1680,1.0821,-23.5000,-21.7500,21.6875,232.0625,23.4375,-158.7500,0
1777067542.070,8.6335,1.8340,-2.6360,-0.8812,-0.1380,0.3842,-46.2000,22.9500,26.8500,9.1363,-0.4310,-0.6321,-1.2590,-0.6787,-0.1607,-54.1500,-3.4500,10.3500,0.9600,2.8400,-6.5500,-0.2171,-0.1680,1.0821,-23.5000,-21.7500,21.6875,232.6875,23.7500,-158.8125,0
1777067542.080,8.4204,2.1620,-2.9113,-0.8460,-0.1450,0.3344,-45.1500,22.2000,26.8500,8.8969,-0.1245,-0.6416,-1.2705,-0.6334,-0.1559,-53.8500,-5.4000,11.1000,1.4600,3.1500,-6.9500,-0.2236,0.1560,1.1443,-23.5000,-21.7500,21.6875,232.6875,23.7500,-158.8125,0
1777067542.090,8.3893,2.6887,-2.7438,-0.8108,-0.1785,0.2918,-47.8500,21.7500,27.7500,9.0716,0.2993,-0.5100,-1.0952,-0.6387,-0.1332,-54.1500,-4.9500,9.9000,2.3400,3.3700,-7.3300,-0.2345,0.3829,1.1486,-23.5000,-21.7500,21.6875,233.3125,24.1875,-158.9375,0
1777067542.094,8.3893,2.6887,-2.7438,-0.8108,-0.1785,0.2918,-47.8500,21.7500,27.7500,9.2368,0.3903,-0.8308,-0.9363,-0.6331,-0.0847,-54.1500,-4.9500,9.9000,2.3400,3.3700,-7.3300,-0.2345,0.3829,1.1486,-23.5000,-21.7500,21.6875,233.9375,24.6875,-159.0625,0
1777067542.099,8.3653,2.9066,-2.6360,-0.7759,-0.1588,0.2502,-48.0000,22.6500,28.6500,9.2368,0.3903,-0.8308,-0.9363,-0.6331,-0.0847,-54.1500,-4.9500,9.9000,2.4700,3.8400,-6.9600,-0.1647,0.5334,1.1137,-24.0000,-21.7500,22.1875,233.9375,24.6875,-159.0625,0
1777067542.104,8.3653,2.9066,-2.6360,-0.7759,-0.1588,0.2502,-48.0000,22.6500,28.6500,9.2895,0.3184,-1.3192,-0.6981,-0.6358,-0.0464,-55.3500,-6.6000,9.9000,2.4700,3.8400,-6.9600,-0.1647,0.5334,1.1137,-24.0000,-21.7500,22.1875,234.5000,25.1875,-159.1875,0
1777067542.109,8.5042,3.0598,-2.6767,-0.6952,-0.1399,0.2241,-47.4000,21.9000,27.9000,9.2895,0.3184,-1.3192,-0.6981,-0.6358,-0.0464,-55.3500,-6.6000,9.9000,2.2100,3.5800,-6.5700,-0.1713,0.6021,1.0756,-24.0000,-21.7500,22.1875,234.5000,25.1875,-159.1875,0
1777067542.116,8.5042,3.0598,-2.6767,-0.7149,-0.1924,0.2014,-47.4000,21.9000,27.9000,9.3134,0.0814,-1.7358,-0.4951,-0.6566,-0.0525,-55.3500,-6.6000,9.9000,2.0200,4.1100,-6.3500,-0.1974,0.7472,0.9708,-24.0000,-21.7500,22.1875,234.9375,25.8125,-159.2500,0
1777067542.121,8.4827,3.1723,-2.6887,-0.7149,-0.1924,0.2014,-47.4000,21.9000,27.9000,8.8538,-0.2586,-0.4788,-0.4951,-0.6566,-0.0525,-55.3500,-6.6000,9.9000,2.0200,4.1100,-6.3500,-0.1974,0.7472,0.9708,-24.0000,-21.7500,22.1875,235.3125,26.4375,-159.1875,0
1777067542.130,8.0685,3.1675,-2.7773,-0.7461,-0.2164,0.1657,-47.8500,21.7500,26.7000,8.8538,-0.2586,-0.4788,-0.2566,-0.6640,-0.0829,-54.4500,-4.8000,8.2500,3.7100,5.0000,-7.6600,-0.2476,0.9381,0.7810,-24.0000,-21.7500,22.1875,235.5000,27.0625,-158.9375,0
1777067542.140,7.8003,2.7629,-2.6169,-0.6859,-0.1500,0.1492,-47.1000,22.5000,29.5500,8.2193,-0.1006,-0.4860,-0.0168,-0.6209,-0.1007,-54.7500,-6.4500,9.0000,5.6400,4.9900,-9.0900,-0.4745,1.0963,0.3992,-24.0000,-21.7500,22.1875,235.5000,27.0625,-158.9375,0
1777067542.144,7.8003,2.7629,-2.6169,-0.6859,-0.1500,0.1492,-47.1000,22.5000,29.5500,8.2193,-0.1006,-0.4860,-0.0799,-0.5673,-0.1231,-54.1500,-4.6500,8.4000,5.6400,4.9900,-9.0900,-0.4745,1.0963,0.3992,-24.0000,-21.7500,22.1875,235.5000,27.0625,-158.9375,0
1777067542.150,7.9775,2.4948,-2.6504,-0.5409,0.0096,0.1415,-46.8000,21.7500,29.1000,8.6933,-0.0407,-0.4549,-0.0799,-0.5673,-0.1231,-54.1500,-4.6500,8.4000,6.5500,5.7100,-9.3400,-0.8290,0.8574,-0.2073,-24.6875,-20.2500,22.8750,235.4375,27.5000,-158.3125,0
1777067542.154,7.9775,2.4948,-2.6504,-0.4309,0.0786,0.1452,-46.8000,21.7500,29.1000,8.6933,-0.0407,-0.4549,-0.0986,-0.5708,-0.1399,-54.6000,-4.6500,8.4000,6.5500,5.7100,-9.3400,-0.8290,0.8574,-0.2073,-24.6875,-20.2500,22.8750,235.4375,27.5000,-158.3125,0
1777067542.160,7.9823,2.3918,-2.6169,-0.4309,0.0786,0.1452,-46.9500,21.9000,28.6500,9.0190,0.5219,-0.4477,0.0245,-0.5604,-0.1460,-54.6000,-4.6500,8.4000,5.3800,5.9900,-8.8900,-0.9512,0.3480,-0.7298,-24.6875,-20.2500,22.8750,235.1250,27.5000,-157.5625,0
1777067542.165,8.0685,2.2386,-2.7725,-0.2491,0.0629,0.1516,-46.9500,21.9000,28.6500,9.0190,0.5219,-0.4477,0.0245,-0.5604,-0.1460,-54.6000,-4.6500,8.4000,5.3800,5.9900,-8.8900,-0.7941,0.0447,-0.9621,-24.6875,-20.2500,22.8750,234.6875,27.3125,-156.8750,0
1777067542.170,8.0685,2.2386,-2.7725,-0.2491,0.0629,0.1516,-46.9500,21.9000,28.6500,8.9376,0.6249,-0.6416,0.1218,-0.5702,-0.1474,-54.6000,-4.6500,8.4000,4.2900,5.7500,-7.7000,-0.7941,0.0447,-0.9621,-24.6875,-20.2500,22.8750,234.2500,27.1250,-156.3125,0
1777067542.180,7.9416,2.1644,-2.4972,-0.0991,0.0554,0.1375,-46.0500,21.0000,28.8000,9.0333,0.3280,-0.4860,0.2622,-0.5732,-0.1593,-53.7000,-5.5500,9.0000,4.2000,4.8500,-7.5600,-0.5520,-0.0044,-0.9992,-24.6875,-20.2500,22.8750,233.7500,26.9375,-155.8125,0
1777067542.190,8.0589,1.9656,-2.1883,-0.0061,0.1159,0.1202,-47.7000,20.4000,27.9000,9.0046,0.1844,-0.2442,0.3805,-0.5652,-0.1620,-53.7000,-5.5500,9.0000,3.8300,3.8700,-7.2100,-0.3927,0.1134,-0.9239,-24.6875,-20.2500,22.8750,233.7500,26.9375,-155.8125,0
1777067542.195,8.1235,1.9178,-2.3415,-0.0064,0.1620,0.1090,-47.7000,20.4000,27.9000,9.0046,0.1844,-0.2442,0.3805,-0.5652,-0.1620,-53.1000,-4.9500,6.9000,3.8300,3.8700,-7.2100,-0.3927,0.1134,-0.9239,-24.6875,-20.2500,22.8750,233.3750,26.8750,-155.4375,0
1777067542.200,8.1235,1.9178,-2.3415,-0.0064,0.1620,0.1090,-49.5000,21.1500,29.2500,8.6910,-0.1532,-0.2274,0.3280,-0.5063,-0.1583,-53.1000,-4.9500,6.9000,4.7400,3.5400,-6.8300,-0.3382,0.2149,-0.7876,-25.0625,-21.2500,20.8750,233.3750,26.8750,-155.4375,0
1777067542.205,7.9751,1.7645,-2.4708,-0.0218,0.1679,0.1140,-49.5000,21.1500,29.2500,8.6910,-0.1532,-0.2274,0.3280,-0.5063,-0.1583,-54.7500,-4.0500,6.7500,4.7400,3.5400,-6.8300,-0.3382,0.2149,-0.7876,-25.0625,-21.2500,20.8750,233.0000,26.7500,-155.0625,0
1777067542.210,7.9751,1.7645,-2.4708,-0.0218,0.1679,0.1140,-46.5000,21.0000,27.3000,8.8418,-0.5794,-0.1006,0.1948,-0.4770,-0.1532,-54.7500,-4.0500,6.7500,4.9000,3.2000,-6.5500,-0.3033,0.1156,-0.6687,-25.0625,-21.2500,20.8750,233.0000,26.7500,-155.0625,0
1777067542.216,8.1834,1.8531,-2.8730,-0.0256,0.2193,0.0837,-46.5000,21.0000,27.3000,8.8107,-0.8284,-0.1939,0.1948,-0.4770,-0.1532,-55.0500,-5.4000,7.3500,4.8100,3.1600,-6.1800,-0.3000,0.0251,-0.5345,-25.0625,-21.2500,20.8750,232.7500,26.6875,-154.7500,0
1777067542.221,8.1834,1.8531,-2.8730,-0.0256,0.2193,0.0837,-46.5000,21.0000,27.3000,8.8107,-0.8284,-0.1939,-0.0557,-0.4295,-0.1479,-55.0500,-5.4000,7.3500,4.8100,3.1600,-6.1800,-0.3000,0.0251,-0.5345,-25.0625,-21.2500,20.8750,232.5625,26.5625,-154.5000,0
1777067542.230,8.3917,1.8603,-3.1819,-0.0389,0.3280,0.0610,-47.1000,20.2500,28.8000,8.8202,-0.8404,-0.4812,-0.2867,-0.3824,-0.1529,-55.8000,-4.9500,5.8500,4.7200,3.2700,-5.7100,-0.3109,0.0153,-0.3698,-25.0625,-21.2500,20.8750,232.5000,26.6250,-154.2500,0
1777067542.240,8.7269,1.6185,-3.1747,-0.1079,0.4799,0.0176,-46.9500,20.7000,28.6500,8.6072,-0.8068,-0.5698,-0.4080,-0.3389,-0.1769,-55.8000,-4.9500,5.8500,5.0000,3.2800,-4.8900,-0.3382,0.1374,-0.1647,-25.0625,-21.2500,20.8750,232.5000,26.6250,-154.2500,0
1777067542.245,8.9926,1.5802,-3.0981,-0.1119,0.4623,0.0125,-46.9500,20.7000,28.6500,8.6072,-0.8068,-0.5698,-0.4080,-0.3389,-0.1769,-54.4500,-5.2500,5.2500,5.0000,3.2800,-4.8900,-0.3382,0.1374,-0.1647,-25.0625,-21.2500,20.8750,232.5000,26.6250,-154.2500,0
1777067542.250,8.9926,1.5802,-3.0981,-0.1119,0.4623,0.0125,-47.4000,20.4000,27.9000,8.1738,-0.5411,-0.3711,-0.4906,-0.2350,-0.2230,-54.4500,-5.2500,5.2500,5.3100,4.0700,-4.5800,-0.3982,0.2531,0.0524,-24.6875,-22.0625,21.2500,232.5625,26.7500,-154.0000,0
1777067542.254,8.8609,1.5826,-3.8618,-0.3182,0.4085,-0.0099,-47.4000,20.4000,27.9000,8.1738,-0.5411,-0.3711,-0.4906,-0.2350,-0.2230,-54.4500,-5.2500,5.2500,5.3100,4.0700,-4.5800,-0.3982,0.2531,0.0524,-24.6875,-22.0625,21.2500,232.5625,26.7500,-154.0000,0
1777067542.259,8.8609,1.5826,-3.8618,-0.3182,0.4085,-0.0099,-46.6500,20.7000,28.2000,8.1187,-0.4645,-0.5483,-0.4908,-0.1753,-0.2899,-54.4500,-5.2500,5.2500,5.7200,4.2800,-4.1400,-0.4265,0.2978,0.3054,-24.6875,-22.0625,21.2500,232.7500,27.0000,-153.8125,0
1777067542.264,8.2456,1.3982,-3.1101,-0.4407,0.5236,-0.0397,-46.6500,20.7000,28.2000,8.1187,-0.4645,-0.5483,-0.4908,-0.1753,-0.2899,-55.2000,-5.5500,5.7000,5.7200,4.2800,-4.1400,-0.6567,0.4036,0.6512,-24.6875,-22.0625,21.2500,233.1875,27.3125,-153.5625,0
1777067542.270,8.2456,1.3982,-3.1101,-0.5241,0.7248,-0.0578,-47.5500,20.2500,28.0500,7.8841,-0.6249,-1.3431,-0.1871,-0.0296,-0.3643,-55.2000,-5.5500,5.7000,7.6600,2.1300,-2.6000,-0.6567,0.4036,0.6512,-24.6875,-22.0625,21.2500,233.6250,28.0625,-152.8125,0
1777067542.280,8.7436,1.0439,-3.5961,-0.5241,0.7248,-0.0578,-47.5500,20.2500,28.0500,9.0836,1.1732,-0.8116,-0.5510,-0.0067,-0.5151,-54.4500,-4.8000,5.7000,9.8900,6.2000,-6.7000,-1.3897,1.1050,0.7570,-24.6875,-22.0625,21.2500,233.6250,28.0625,-152.8125,0
1777067542.290,11.7699,1.3312,-4.1061,-0.4964,0.7874,0.0133,-47.5500,17.5500,28.5000,12.9670,0.6823,-7.1946,-1.7461,-0.0951,-0.4562,-56.2500,-4.5000,6.7500,26.8900,13.3600,-13.4400,-1.4334,0.9141,-0.1276,-24.6875,-22.0625,21.2500,233.6875,28.5000,-151.8750,0
1777067542.295,17.1257,3.6895,-5.4660,-0.4964,0.7874,0.0133,-47.5500,17.5500,28.5000,21.0546,0.2442,-14.1449,-0.7458,0.0408,-0.4343,-55.0500,-4.6500,6.1500,26.8900,13.3600,-13.4400,-1.4334,0.9141,-0.1276,-24.6875,-22.0625,21.2500,234.0625,27.1875,-152.0625,0
1777067542.300,17.1257,3.6895,-5.4660,-0.3664,0.9249,-0.0520,-47.4000,18.1500,28.2000,21.0546,0.2442,-14.1449,-0.7458,0.0408,-0.4343,-55.0500,-4.6500,6.1500,-5.3600,-3.7800,-16.8800,-0.3163,-2.6398,0.0360,-23.5625,-22.7500,20.0625,234.0625,27.1875,-152.0625,0
1777067542.305,19.4888,7.7285,-9.5936,-0.3664,0.9249,-0.0520,-47.4000,18.1500,28.2000,20.6356,1.5227,-5.8466,0.2894,0.9675,-0.3659,-56.1000,-2.7000,6.6000,-5.3600,-3.7800,-16.8800,-0.3163,-2.6398,0.0360,-23.5625,-22.7500,20.0625,234.6250,25.8750,-152.1250,0
1777067542.310,16.6086,10.8816,-12.5624,0.1532,0.5748,-0.3744,-47.7000,18.9000,27.1500,20.6356,1.5227,-5.8466,0.2894,0.9675,-0.3659,-56.1000,-2.7000,6.6000,-1.7900,19.0900,-12.0700,-0.6709,-2.7478,0.1364,-23.5625,-22.7500,20.0625,234.6250,25.8750,-152.1250,0
1777067542.316,16.6086,10.8816,-12.5624,0.1532,0.5748,-0.3744,-47.5500,18.7500,29.1000,15.6940,0.5100,2.5043,0.7123,1.0051,-0.3339,-54.6000,-4.6500,8.1000,0.4100,10.3600,-5.7900,-0.1625,-1.2261,0.4102,-23.5625,-22.7500,20.0625,235.0000,25.3750,-152.2500,0
1777067542.321,11.9159,7.7668,-3.5386,0.8828,0.0621,-0.6696,-47.5500,18.7500,29.1000,15.6940,0.5100,2.5043,0.7123,1.0051,-0.3339,-54.6000,-4.6500,8.1000,0.4100,10.3600,-5.7900,-0.1625,-1.2261,0.4102,-23.5625,-22.7500,20.0625,235.0000,25.5625,-152.4375,0
1777067542.330,10.6949,3.5554,1.9225,1.4125,-0.3488,-1.0722,-47.5500,18.7500,29.1000,9.2584,-1.7406,2.2434,0.2241,0.4242,-0.3030,-54.6000,-4.6500,8.1000,2.7200,6.0700,-6.9500,0.3360,0.2640,0.1222,-23.5625,-22.7500,20.0625,235.0000,25.5625,-152.4375,0
1777067542.340,8.0613,-0.4788,3.5195,0.0024,-0.9100,-1.4381,-46.0500,19.8000,28.0500,3.2825,-2.2170,-0.7757,-0.0584,0.1402,-0.3544,-54.4500,-2.8500,8.2500,4.8500,-0.8200,-8.9200,0.2989,0.3938,0.0491,-23.5625,-22.7500,20.0625,234.9375,25.7500,-152.5625,0
1777067542.345,8.0613,-0.4788,3.5195,0.0024,-0.9100,-1.4381,-45.0000,19.8000,28.0500,1.6783,2.0877,0.8212,0.0035,0.2665,-0.3824,-53.1000,-3.9000,8.8500,4.8500,-0.8200,-8.9200,0.2989,0.3938,0.0491,-23.5625,-22.7500,20.0625,234.9375,25.7500,-152.5625,0
1777067542.350,6.6367,-4.1420,6.1938,-1.1596,-1.2654,-1.5551,-45.0000,20.2500,27.3000,1.6783,2.0877,0.8212,0.0035,0.2665,-0.3824,-53.1000,-3.9000,8.8500,4.2900,5.2600,-6.0300,-0.1789,-0.1102,0.0240,-24.0000,-22.7500,20.8750,235.0000,25.7500,-152.5000,0
1777067542.355,6.6367,-4.1420,6.1938,-1.1596,-1.2654,-1.5551,-45.3000,22.0500,27.7500,4.2234,2.3320,3.3184,0.4266,0.5828,-0.3331,-54.6000,-4.6500,7.3500,4.2900,5.2600,-6.0300,-0.1789,-0.1102,0.0240,-24.0000,-22.7500,20.8750,235.0000,25.7500,-152.5000,0
1777067542.360,4.9392,-5.4947,5.2289,-0.8729,-0.3624,-1.4362,-45.3000,22.0500,27.7500,4.2234,2.3320,3.3184,0.4266,0.5828,-0.3331,-54.6000,-4.6500,7.3500,6.1500,5.1600,-6.8100,-0.0513,-0.5105,-0.0567,-24.0000,-22.7500,20.8750,235.0625,25.4375,-152.5000,0
1777067542.365,4.9392,-5.4947,5.2289,-0.8729,-0.3624,-1.4362,-45.7500,22.0500,27.7500,9.6391,2.6049,4.1563,0.8356,0.7325,-0.2531,-54.7500,-4.5000,8.2500,6.1500,5.1600,-6.8100,-0.1309,-0.5214,-0.0622,-24.0000,-22.7500,20.8750,235.0625,25.1875,-152.5000,0
1777067542.371,8.9016,-3.5027,2.7677,-0.5636,0.2273,-1.0661,-45.7500,22.0500,27.7500,13.3620,2.4493,3.1412,0.8356,0.7325,-0.2531,-54.7500,-4.5000,8.2500,4.4100,4.9300,-7.3200,-0.1309,-0.5214,-0.0622,-24.0000,-22.7500,20.8750,235.0625,25.0625,-152.4375,0
1777067542.380,10.6518,0.8380,1.8890,-0.8202,-0.3706,-0.6630,-45.7500,22.0500,27.7500,14.2120,-0.3304,3.9385,1.1780,0.5761,-0.3182,-54.6000,-3.4500,8.4000,2.3400,6.6500,-7.7400,-0.1244,-0.2422,-0.0971,-24.0000,-22.7500,20.8750,235.0625,25.0625,-152.4375,0
1777067542.390,9.8354,3.7781,2.3655,-0.9966,-0.2513,-0.4922,-45.4500,21.4500,26.4000,12.6653,-3.0742,4.4676,1.3773,0.3349,-0.4000,-54.4500,-2.8500,7.2000,4.7300,5.4300,-6.9000,0.1658,0.1156,-0.0578,-24.0000,-22.7500,20.8750,235.0000,25.0625,-152.5000,0
1777067542.395,9.8354,3.7781,2.3655,-0.9966,-0.2513,-0.4922,-45.4500,23.4000,28.9500,12.6653,-3.0742,4.4676,1.0144,0.0815,-0.4048,-54.4500,-2.8500,7.2000,4.7300,5.4300,-6.9000,0.1658,0.1156,-0.0578,-22.7500,-23.1875,20.8750,234.9375,25.1250,-152.6250,0
1777067542.400,9.8976,4.8746,2.7629,-0.7067,0.0155,-0.4178,-45.4500,23.4000,28.9500,11.0564,-4.6998,3.8427,0.2230,-0.0437,-0.3264,-54.4500,-2.8500,7.2000,4.4800,4.2400,-7.9500,0.2356,0.0742,-0.0436,-22.7500,-23.1875,20.8750,234.9375,25.1250,-152.6250,0
1777067542.405,9.8976,4.8746,2.7629,-0.7067,0.0155,-0.4178,-45.0000,21.0000,27.7500,11.0564,-4.6998,3.8427,0.2230,-0.0437,-0.3264,-54.4500,-2.8500,9.0000,4.4800,4.2400,-7.9500,0.2356,0.0742,-0.0436,-22.7500,-23.1875,20.8750,234.8750,25.1250,-152.6875,0
1777067542.410,10.9607,4.1827,1.7717,-0.2340,0.0658,-0.4263,-45.0000,21.0000,27.7500,11.4179,-4.1875,2.8898,-0.4530,-0.0951,-0.2124,-54.4500,-2.8500,9.0000,4.3000,3.6900,-8.4500,0.2138,0.0098,-0.0458,-22.7500,-23.1875,20.8750,234.8750,25.1250,-152.6875,0
1777067542.420,12.2128,2.7294,0.9074,0.0858,0.1090,-0.5044,-44.4000,26.4000,27.9000,11.2432,-2.2194,2.5929,-0.8655,-0.2699,-0.1452,-54.4500,-3.6000,9.7500,4.2500,3.7100,-8.4600,0.0862,0.0567,-0.0338,-22.7500,-23.1875,20.8750,234.8750,25.1250,-152.7500,0
1777067542.429,11.9542,1.5850,0.2131,0.0610,0.1106,-0.5556,-44.4000,26.4000,27.9000,10.2328,-0.5339,1.9656,-1.0147,-0.4130,-0.1524,-54.1500,-1.9500,7.6500,4.2500,3.7600,-8.3800,-0.0185,0.0884,-0.0262,-22.7500,-23.1875,20.8750,234.8125,25.1250,-152.6875,0
1777067542.433,11.9542,1.5850,0.2131,0.0610,0.1106,-0.5556,-44.4000,26.4000,27.9000,10.2328,-0.5339,1.9656,-1.0147,-0.4130,-0.1524,-54.1500,-1.9500,7.6500,4.2500,3.7600,-8.3800,-0.0185,0.0884,-0.0262,-22.7500,-23.1875,20.8750,234.8125,25.1875,-152.6250,0
1777067542.441,10.6997,0.9002,0.3328,0.0109,0.0506,-0.5518,-44.4000,26.4000,27.9000,9.5050,0.5986,1.3455,-0.8889,-0.4554,-0.1985,-54.6000,-2.7000,8.1000,4.2600,4.1200,-7.9200,-0.1189,0.0753,-0.0284,-22.7500,-23.1875,20.8750,234.8125,25.1875,-152.6250,0
1777067542.446,9.8904,0.7542,0.7302,-0.1226,-0.0032,-0.4914,-42.3000,28.6500,26.8500,9.5050,0.5986,1.3455,-0.8889,-0.4554,-0.1985,-54.0000,-2.8500,9.7500,4.2600,4.1200,-7.9200,-0.1189,0.0753,-0.0284,-22.5000,-23.7500,20.0625,234.8125,25.1875,-152.5000,0
1777067542.451,9.8904,0.7542,0.7302,-0.1226,-0.0032,-0.4914,-42.3000,28.6500,26.8500,9.3254,0.8188,0.6632,-0.4663,-0.4474,-0.2566,-54.0000,-2.8500,9.7500,4.2300,4.0900,-8.0300,-0.1669,0.0600,-0.0371,-22.5000,-23.7500,20.0625,234.8125,25.1875,-152.5000,0
1777067542.456,9.3350,0.8906,-0.1508,-0.2425,-0.0136,-0.3661,-41.1000,27.9000,28.2000,9.3254,0.8188,0.6632,-0.4663,-0.4474,-0.2566,-54.0000,-3.3000,7.2000,4.2300,4.0900,-8.0300,-0.1669,0.0600,-0.0371,-22.5000,-23.7500,20.0625,234.8125,25.2500,-152.3750,0
1777067542.461,9.3350,0.8906,-0.1508,-0.2425,-0.0136,-0.3661,-41.1000,27.9000,28.2000,9.6702,0.4405,0.4884,-0.1005,-0.4298,-0.3040,-54.0000,-3.3000,7.2000,4.2200,4.0100,-8.1100,-0.2094,0.0894,-0.0611,-22.5000,-23.7500,20.0625,234.8125,25.2500,-152.3750,0
1777067542.466,8.8969,1.2857,-1.3216,-0.2297,-0.1460,-0.1314,-41.8500,27.4500,28.2000,9.8928,-0.4453,1.2186,-0.1005,-0.4298,-0.3040,-54.0000,-3.3000,7.2000,4.2900,3.7100,-8.3600,-0.2640,0.1178,-0.0796,-22.5000,-23.7500,20.0625,234.7500,25.2500,-152.1875,0
1777067542.471,8.8969,1.2857,-1.3216,-0.2297,-0.1460,-0.1314,-41.8500,27.4500,28.2000,9.8928,-0.4453,1.2186,0.2004,-0.4938,-0.3019,-54.0000,-3.3000,7.2000,4.2900,3.7100,-8.3600,-0.2640,0.1178,-0.0796,-22.5000,-23.7500,20.0625,234.7500,25.3125,-151.9375,0
1777067542.480,9.7492,1.5610,-0.4764,-0.1183,-0.4221,0.0061,-40.0500,27.4500,27.9000,9.8474,-0.8428,1.0726,0.1386,-0.5153,-0.2609,-55.2000,-4.0500,7.2000,4.4400,3.4700,-8.4200,-0.3665,0.1473,-0.0960,-22.5000,-23.7500,20.0625,234.7500,25.3125,-151.9375,0
1777067542.490,10.3477,2.9832,0.5770,-0.0504,-0.4778,-0.0658,-40.0500,27.4500,27.9000,10.0796,-0.6297,1.0894,-0.1873,-0.5580,-0.2001,-54.1500,-2.7000,6.9000,4.3500,3.2500,-8.1300,-0.4952,0.1582,-0.1156,-22.5000,-23.7500,20.0625,234.7500,25.3750,-151.6250,0
1777067542.495,9.5624,5.4420,0.3663,-0.4730,-0.4900,-0.1687,-40.5000,27.4500,27.6000,10.0652,-0.3903,1.0080,-0.1873,-0.5580,-0.2001,-55.2000,-1.6500,6.9000,4.3500,3.2500,-8.1300,-0.4952,0.1582,-0.1156,-22.5000,-23.7500,20.0625,234.6875,25.4375,-151.2500,0
1777067542.500,9.5624,5.4420,0.3663,-0.4730,-0.4900,-0.1687,-40.5000,27.4500,27.6000,10.0652,-0.3903,1.0080,-0.4338,-0.5854,-0.1354,-55.2000,-1.6500,7.9500,4.8800,4.0900,-8.1400,-0.5661,0.1854,-0.1374,-23.1875,-22.6875,21.2500,234.6875,25.4375,-151.2500,0
1777067542.505,8.7987,4.4412,-1.3886,-0.9124,-0.5108,-0.2228,-38.8500,28.0500,27.3000,11.1211,0.0910,0.0503,-0.4338,-0.5854,-0.1354,-55.2000,-1.6500,7.9500,4.8800,4.0900,-8.1400,-0.5661,0.1854,-0.1374,-23.1875,-22.6875,21.2500,234.6875,25.4375,-151.2500,0
1777067542.510,8.7987,4.4412,-1.3886,-0.9124,-0.5108,-0.2228,-38.8500,28.0500,27.3000,11.1211,0.0910,0.0503,-0.5425,-0.6726,-0.0815,-56.1000,-1.0500,7.6500,4.6700,4.1200,-7.8400,-0.6480,0.1571,-0.1724,-23.1875,-22.6875,21.2500,234.6875,25.4375,-150.8750,0
1777067542.516,7.6734,3.8283,-1.5706,-0.9393,-0.3832,-0.2214,-40.2000,28.8000,26.7000,9.7372,0.5890,-0.3232,-0.7568,-0.6654,-0.0482,-54.1500,-3.0000,8.8500,4.6700,4.1200,-7.8400,-0.7123,0.1113,-0.2171,-23.1875,-22.6875,21.2500,234.6250,25.4375,-150.3750,0
1777067542.521,7.6734,3.8283,-1.5706,-0.9393,-0.3832,-0.2214,-40.2000,28.8000,26.7000,9.7372,0.5890,-0.3232,-0.7568,-0.6654,-0.0482,-54.1500,-3.0000,8.8500,4.3800,4.5000,-7.6200,-0.7123,0.1113,-0.2171,-23.1875,-22.6875,21.2500,234.5625,25.4375,-149.9375,0
1777067542.530,7.6255,4.1108,-1.4892,-0.6971,-0.1889,-0.1927,-40.2000,29.2500,26.7000,9.7109,0.4836,-1.0870,-0.7789,-0.6757,-0.0181,-55.8000,-2.7000,6.1500,4.1500,4.6900,-7.5600,-0.6840,0.0796,-0.2531,-23.1875,-22.6875,21.2500,234.5625,25.4375,-149.9375,0
1777067542.540,8.2432,4.4125,-1.8794,-0.5788,-0.0943,-0.1346,-40.2000,29.2500,26.7000,9.2608,0.2562,-1.4365,-0.6912,-0.6907,-0.0101,-55.8000,-2.7000,6.1500,3.1000,4.5200,-7.5000,-0.6970,0.0142,-0.2858,-23.1875,-22.6875,21.2500,234.5000,25.3125,-149.5000,0
1777067542.545,7.8937,4.5059,-2.2745,-0.3024,-0.2470,-0.0365,-39.3000,28.6500,27.1500,8.9639,0.0790,-2.2003,-0.7032,-0.6654,-0.0093,-55.8000,-2.7000,6.1500,3.1000,4.5200,-7.5000,-0.6970,0.0142,-0.2858,-23.1875,-22.6875,21.2500,234.5000,25.3125,-149.5000,0
1777067542.550,7.8937,4.5059,-2.2745,-0.3024,-0.2470,-0.0365,-39.3000,28.6500,27.1500,8.9639,0.0790,-2.2003,-0.7032,-0.6654,-0.0093,-53.8500,-3.0000,7.3500,4.1900,4.9500,-7.2100,-0.4418,0.0425,-0.2640,-23.5625,-24.5000,20.8750,234.4375,25.3125,-149.1875,0
1777067542.555,7.3550,5.1164,-2.4852,-0.0330,-0.1423,0.0789,-40.5000,30.9000,26.8500,8.8945,0.0694,-2.2889,-0.6587,-0.6566,-0.0155,-53.8500,-3.0000,7.3500,4.1900,4.9500,-7.2100,-0.4418,0.0425,-0.2640,-23.5625,-24.5000,20.8750,234.4375,25.3125,-149.1875,0
1777067542.560,7.3550,5.1164,-2.4852,-0.0330,-0.1423,0.0789,-40.5000,30.9000,26.8500,8.8945,0.0694,-2.2889,-0.6587,-0.6566,-0.0155,-55.0500,-3.0000,8.1000,3.6100,4.7800,-7.3500,-0.3185,0.0055,-0.2313,-23.5625,-24.5000,20.8750,234.3125,25.1875,-148.9375,0
1777067542.565,7.8266,5.7437,-2.6432,-0.0442,-0.0562,0.0861,-41.5500,30.1500,25.8000,9.0980,1.1971,-1.5706,-0.7421,-0.6294,0.0013,-55.0500,-3.0000,8.1000,3.6100,4.7800,-7.3500,-0.2302,0.0109,-0.2083,-23.5625,-24.5000,20.8750,234.2500,25.1875,-148.7500,0
1777067542.571,8.8992,6.3973,-1.9273,-0.2164,-0.1452,0.0293,-39.7500,29.4000,27.9000,9.0980,1.1971,-1.5706,-0.7421,-0.6294,0.0013,-55.3500,-3.4500,6.6000,3.9000,4.1400,-7.9200,-0.2302,0.0109,-0.2083,-23.5625,-24.5000,20.8750,234.1875,25.1250,-148.5625,0
1777067542.580,8.2121,5.0350,-1.3982,-0.5750,-0.2459,-0.0927,-39.7500,29.4000,27.9000,9.5696,3.1987,-1.1396,-0.8306,-0.5564,0.0432,-55.9500,-2.8500,7.2000,4.3900,4.1900,-8.4500,-0.2596,-0.0349,-0.1767,-23.5625,-24.5000,20.8750,234.1875,25.1250,-148.5625,0
1777067542.590,8.2097,2.8323,-2.3367,-1.0472,-0.2380,-0.1903,-39.7500,29.4000,27.9000,9.0429,3.1029,-2.8635,-0.5801,-0.5327,0.1071,-54.1500,-3.9000,7.6500,5.2800,4.6800,-7.6900,-0.3403,-0.0447,-0.2302,-23.5625,-24.5000,20.8750,234.1250,25.0000,-148.3750,0
1777067542.595,8.2097,2.8323,-2.3367,-1.0472,-0.2380,-0.1903,-40.2000,30.3000,28.0500,8.3773,2.8563,-5.0494,-0.1074,-0.5540,0.1322,-54.1500,-3.9000,7.6500,5.2800,4.6800,-7.6900,-0.3403,-0.0447,-0.2302,-23.5625,-24.5000,20.8750,234.1250,25.0000,-148.3750,0
1777067542.600,8.2480,3.9313,-3.6919,-0.7368,-0.6947,-0.2073,-40.2000,30.3000,28.0500,8.3773,2.8563,-5.0494,-0.1074,-0.5540,0.1322,-55.0500,-3.9000,6.6000,4.1200,5.8400,-5.0800,-0.1909,-0.1462,-0.2902,-22.7500,-24.8750,19.6875,234.0000,24.8750,-148.1875,0
1777067542.605,8.2480,3.9313,-3.6919,-0.7368,-0.6947,-0.2073,-40.6500,31.5000,28.0500,8.6024,1.3168,-4.7645,0.3597,-0.5087,0.1202,-55.0500,-3.9000,6.6000,4.1200,5.8400,-5.0800,-0.1909,-0.1462,-0.2902,-22.7500,-24.8750,19.6875,234.0000,24.8750,-148.1875,0
1777067542.610,7.3215,5.4205,-3.5841,-0.2942,-0.7845,-0.2662,-40.6500,31.5000,28.0500,8.6024,1.3168,-4.7645,0.3597,-0.5087,0.1202,-55.0500,-3.9000,6.6000,2.7700,4.4700,-7.7200,0.0447,-0.1200,-0.1385,-22.7500,-24.8750,19.6875,233.9375,24.7500,-148.2500,0
1777067542.615,7.3215,5.4205,-3.5841,-0.2942,-0.7845,-0.2662,-39.4500,31.8000,28.0500,8.9519,-1.2857,-3.0742,0.5180,-0.4293,0.0999,-55.0500,-3.9000,6.6000,2.7700,4.4700,-7.7200,0.0644,-0.0589,0.0033,-22.7500,-24.8750,19.6875,233.9375,24.7500,-148.2500,0
1777067542.621,7.6758,4.9943,-3.6775,-0.1524,-0.4279,-0.2926,-38.1000,31.0500,27.0000,9.0022,-2.7414,-2.5067,0.2132,-0.3730,0.0663,-55.2000,-4.0500,5.7000,4.2600,4.4700,-8.4200,0.0644,-0.0589,0.0033,-22.7500,-24.8750,19.6875,233.9375,24.6875,-148.3125,0
1777067542.630,8.7484,3.8834,-4.0366,-0.0509,-0.2233,-0.2803,-39.9000,30.7500,27.3000,9.4092,-2.8012,-2.5259,-0.2454,-0.3696,0.0714,-54.4500,-3.6000,6.0000,3.5200,4.7200,-7.3700,0.0840,-0.1200,0.0229,-22.7500,-24.8750,19.6875,233.9375,24.6875,-148.3125,0
1777067542.640,9.0070,3.1244,-4.2234,-0.0354,-0.3254,-0.2284,-39.9000,30.7500,27.3000,9.7492,-1.7597,-2.2266,-0.7384,-0.3571,0.1122,-55.5000,-2.4000,5.7000,4.0300,3.5200,-8.7300,0.0742,-0.0840,0.0796,-22.7500,-24.8750,19.6875,234.0000,24.6875,-148.3750,0
1777067542.645,9.0070,3.1244,-4.2234,-0.0354,-0.3254,-0.2284,-39.9000,30.7500,27.3000,9.7492,-1.7597,-2.2266,-0.7384,-0.3571,0.1122,-55.5000,-2.4000,5.7000,4.0300,3.5200,-8.7300,0.0742,-0.0840,0.0796,-22.7500,-24.8750,19.6875,234.0000,24.6875,-148.3750,0
1777067542.650,8.6790,3.1508,-3.5267,-0.2393,-0.4351,-0.1945,-38.5500,31.2000,25.8000,9.9072,-0.3831,-1.5730,-1.0070,-0.3051,0.1724,-54.7500,-4.0500,4.5000,4.3800,3.8900,-8.3900,-0.0393,-0.0905,0.1189,-22.1875,-26.0000,19.6875,234.0625,24.6250,-148.4375,0
1777067542.655,8.6790,3.1508,-3.5267,-0.2393,-0.4351,-0.1945,-38.5500,31.2000,25.8000,9.9072,-0.3831,-1.5730,-1.0070,-0.3051,0.1724,-54.7500,-4.0500,4.5000,4.3800,3.8900,-8.3900,-0.0393,-0.0905,0.1189,-22.1875,-26.0000,19.6875,234.0625,24.6250,-148.4375,0
1777067542.660,8.7987,2.8754,-3.0335,-0.6416,-0.6057,-0.2233,-38.8500,31.0500,27.0000,9.9838,0.9074,-1.5538,-1.0424,-0.2622,0.2337,-56.7000,-2.4000,6.0000,4.3900,4.5000,-7.8600,-0.1473,-0.1058,0.0971,-22.1875,-26.0000,19.6875,234.1875,24.6250,-148.3750,0
1777067542.665,8.7987,2.8754,-3.0335,-0.6416,-0.6057,-0.2233,-38.8500,31.0500,27.0000,9.9838,0.9074,-1.5538,-1.0424,-0.2622,0.2337,-56.7000,-2.4000,6.0000,4.3900,4.5000,-7.8600,-0.1473,-0.0851,0.0371,-22.1875,-26.0000,19.6875,234.1875,24.6250,-148.3125,0
1777067542.671,8.6574,2.8922,-2.2338,-0.9987,-0.7242,-0.2545,-38.8500,31.8000,27.0000,9.7205,1.6496,-2.0303,-0.8559,-0.2438,0.2878,-56.2500,-3.3000,5.2500,4.3400,4.5100,-7.4000,-0.1473,-0.0851,0.0371,-22.1875,-26.0000,19.6875,234.2500,24.5625,-148.2500,0
1777067542.680,8.5545,3.6583,-1.6927,-1.3555,-0.8897,-0.2547,-39.3000,30.9000,25.3500,9.4427,1.9992,-2.3511,-0.5545,-0.2654,0.3035,-56.2500,-3.3000,5.2500,3.7800,4.6300,-7.0700,-0.0840,-0.1233,0.0098,-22.1875,-26.0000,19.6875,234.2500,24.5625,-148.2500,0
1777067542.690,8.2528,4.5729,-1.8531,-1.4773,-0.8410,-0.2462,-39.3000,30.9000,25.3500,8.7843,1.4078,-2.5115,-0.2950,-0.2446,0.2926,-56.1000,-4.6500,6.1500,3.8300,4.7300,-7.2800,0.0011,-0.1309,0.0295,-22.1875,-26.0000,19.6875,234.3125,24.5000,-148.3125,0
1777067542.695,8.2528,4.5729,-1.8531,-1.4773,-0.8410,-0.2462,-39.3000,30.9000,25.3500,8.7843,1.4078,-2.5115,-0.2950,-0.2446,0.2926,-56.1000,-4.6500,6.1500,3.8300,4.7300,-7.2800,0.0011,-0.1309,0.0295,-22.1875,-26.0000,19.6875,234.3125,24.5000,-148.3125,0
1777067542.700,8.1187,5.2696,-1.8938,-1.2790,-0.8705,-0.2539,-40.6500,30.7500,26.7000,9.2392,0.0144,-1.8723,-0.1418,-0.2446,0.2795,-56.1000,-4.6500,6.1500,4.0000,4.8300,-7.5000,0.0567,-0.1233,0.0535,-22.7500,-25.5625,18.8750,234.3125,24.4375,-148.3750,0
1777067542.705,8.1187,5.2696,-1.8938,-1.2790,-0.8705,-0.2539,-40.6500,30.7500,26.7000,9.2392,0.0144,-1.8723,-0.1418,-0.2446,0.2795,-56.1000,-4.6500,6.1500,4.0000,4.8300,-7.5000,0.0567,-0.1233,0.0535,-22.7500,-25.5625,18.8750,234.3125,24.4375,-148.3750,0
1777067542.710,7.8865,5.2361,-2.0758,-1.0778,-0.7253,-0.2268,-40.0500,30.1500,26.4000,9.4092,-0.7207,-2.1093,-0.2041,-0.2737,0.2518,-55.0500,-4.2000,5.8500,3.3700,4.9000,-7.1700,0.1331,-0.1331,0.0709,-22.7500,-25.5625,18.8750,234.3750,24.3750,-148.5000,0
1777067542.717,7.5729,5.0278,-2.7629,-0.9526,-0.5907,-0.1873,-40.0500,30.1500,26.4000,9.7157,-1.1827,-2.1644,-0.2041,-0.2737,0.2518,-55.0500,-4.2000,5.8500,3.6700,4.4300,-7.8000,0.1985,-0.1484,0.1385,-22.7500,-25.5625,18.8750,234.4375,24.3750,-148.6250,0
1777067542.722,7.5729,5.0278,-2.7629,-0.9526,-0.5907,-0.1873,-38.5500,31.9500,25.8000,9.7157,-1.1827,-2.1644,-0.2939,-0.2190,0.3038,-55.5000,-3.6000,4.2000,3.6700,4.4300,-7.8000,0.1985,-0.1484,0.1385,-22.7500,-25.5625,18.8750,234.5000,24.3750,-148.8125,0
1777067542.731,9.5433,5.0135,-3.8331,-0.7722,-0.2686,-0.1394,-40.2000,31.0500,25.9500,8.6957,-0.2251,-2.0039,-0.3419,-0.1450,0.2766,-55.5000,-4.8000,5.7000,4.5000,4.1800,-8.2500,0.2007,-0.1265,0.1582,-22.7500,-25.5625,18.8750,234.5000,24.3750,-148.8125,0
1777067542.740,7.7572,4.6998,-3.1173,-0.7258,-0.5742,-0.1801,-40.2000,31.0500,25.9500,10.0844,-0.4764,-2.2003,-0.5492,-0.1887,0.3395,-57.0000,-4.0500,3.7500,4.2900,4.4300,-7.9500,0.1527,-0.1254,0.0873,-22.7500,-25.5625,18.8750,234.5625,24.3125,-148.9375,0
1777067542.745,8.4228,4.1755,-3.8427,-0.9840,-0.1354,-0.1514,-40.2000,31.0500,25.9500,10.1179,-0.2394,-2.3080,-0.5492,-0.1887,0.3395,-57.0000,-4.0500,3.7500,4.2900,4.4300,-7.9500,0.1527,-0.1254,0.0873,-22.7500,-25.5625,18.8750,234.5625,24.3125,-148.9375,0
1777067542.750,8.4228,4.1755,-3.8427,-0.9840,-0.1354,-0.1514,-39.9000,33.3000,25.6500,10.1179,-0.2394,-2.3080,-0.4159,-0.1919,0.3904,-57.0000,-4.0500,3.7500,4.1200,4.2700,-7.8800,0.0894,-0.1276,0.0316,-22.1875,-25.2500,18.8750,234.5625,24.2500,-149.0000,0
1777067542.755,8.9352,3.6966,-3.1125,-0.5526,-0.3158,-0.1431,-39.9000,33.3000,25.6500,9.3206,-0.6201,-2.6169,-0.4450,-0.1487,0.4064,-57.0000,-4.0500,3.7500,4.1200,4.2700,-7.8800,0.0894,-0.1276,0.0316,-22.1875,-25.2500,18.8750,234.5625,24.2500,-149.0000,0
1777067542.760,8.9352,3.6966,-3.1125,-0.5526,-0.3158,-0.1431,-40.5000,30.9000,25.8000,9.3206,-0.6201,-2.6169,-0.4450,-0.1487,0.4064,-56.2500,-6.4500,5.2500,4.3200,4.2600,-7.8900,0.0404,-0.1178,0.0044,-22.1875,-25.2500,18.8750,234.6250,24.1875,-149.0000,0
1777067542.765,9.3063,3.3615,-2.9544,-0.5641,-0.6502,-0.1338,-40.5000,30.9000,25.8000,9.2919,-0.9864,-2.5019,-0.3954,-0.1535,0.3800,-56.2500,-6.4500,5.2500,4.3200,4.2600,-7.8900,0.0327,-0.1473,-0.0284,-22.1875,-25.2500,18.8750,234.6250,24.1250,-149.0625,0
1777067542.771,9.3063,3.3615,-2.9544,-0.5641,-0.6502,-0.1338,-38.5500,32.7000,24.7500,9.2919,-0.9864,-2.5019,-0.3954,-0.1535,0.3800,-56.2500,-6.4500,5.2500,3.8900,4.5100,-7.8200,0.0327,-0.1473,-0.0284,-22.1875,-25.2500,18.8750,234.6250,24.0000,-149.0625,0
1777067542.781,9.0668,3.2944,-2.8060,-0.4922,-0.8903,-0.1740,-40.6500,32.5500,24.9000,9.2751,-1.3719,-2.3128,-0.4253,-0.1356,0.3371,-56.7000,-4.5000,4.9500,3.7800,4.3400,-7.9300,-0.0218,-0.2127,-0.0196,-22.1875,-25.2500,18.8750,234.6250,24.0000,-149.0625,0
1777067542.786,8.8394,3.3279,-2.7869,-0.4343,-1.1437,-0.2302,-40.6500,32.5500,24.9000,9.3829,-1.2019,-2.3343,-0.5031,-0.1228,0.3059,-56.7000,-4.5000,4.9500,3.7800,4.3400,-7.9300,-0.0567,-0.1974,-0.0011,-22.1875,-25.2500,18.8750,234.6875,23.9375,-149.0625,0
1777067542.792,8.8394,3.3279,-2.7869,-0.4343,-1.1437,-0.2302,-40.6500,32.5500,24.9000,9.3829,-1.2019,-2.3343,-0.5031,-0.1228,0.3059,-55.9500,-6.4500,6.0000,3.8600,4.3200,-7.9000,-0.0567,-0.1974,-0.0011,-22.1875,-25.2500,18.8750,234.6875,23.9375,-149.0625,0
1777067542.796,8.3941,3.4237,-3.4764,-0.4690,-1.1327,-0.2497,-40.6500,32.5500,24.9000,9.4715,-1.1061,-2.1596,-0.6041,-0.1026,0.2958,-55.9500,-6.4500,6.0000,3.8600,4.3200,-7.9000,-0.0011,-0.1200,0.0044,-22.1875,-25.2500,20.0625,234.6875,23.8750,-149.1250,0
1777067542.801,8.3941,3.4237,-3.4764,-0.4690,-1.1327,-0.2497,-40.6500,32.5500,24.9000,9.4715,-1.1061,-2.1596,-0.6041,-0.1026,0.2958,-55.2000,-5.2500,5.7000,4.1700,4.5200,-7.7300,-0.0011,-0.1200,0.0044,-22.1875,-25.2500,20.0625,234.6875,23.8750,-149.1250,0
1777067542.806,8.7029,3.0909,-3.6512,-0.4879,-1.0677,-0.3080,-40.6500,32.5500,24.9000,9.7947,-1.4509,-1.8842,-0.6001,-0.1367,0.2726,-55.2000,-5.2500,5.7000,4.1700,4.5200,-7.7300,0.0415,-0.1353,0.0175,-22.1875,-25.2500,20.0625,234.6875,23.8125,-149.1250,0
1777067542.811,8.7029,3.0909,-3.6512,-0.4879,-1.0677,-0.3080,-38.8500,32.2500,25.9500,9.7947,-1.4509,-1.8842,-0.6001,-0.1367,0.2726,-54.4500,-6.4500,3.7500,3.7000,4.7700,-7.6000,0.0415,-0.1353,0.0175,-22.1875,-25.2500,20.0625,234.6875,23.8125,-149.1250,0
1777067542.816,8.6910,2.5307,-3.5003,-0.5255,-1.1269,-0.3365,-38.8500,32.2500,25.9500,9.5792,-2.1524,-1.7980,-0.5913,-0.1769,0.2340,-54.4500,-6.4500,3.7500,3.7000,4.7700,-7.6000,0.0862,-0.2051,0.0687,-22.1875,-25.2500,20.0625,234.7500,23.7500,-149.2500,0
1777067542.822,8.6910,2.5307,-3.5003,-0.5255,-1.1269,-0.3365,-39.0000,33.1500,24.0000,9.5529,-2.5498,-1.8244,-0.5913,-0.1769,0.2340,-54.4500,-6.4500,3.7500,3.2200,4.5400,-7.5800,0.0862,-0.2051,0.0687,-22.1875,-25.2500,20.0625,234.8750,23.6875,-149.3125,0
1777067542.831,8.6431,2.3990,-3.7924,-0.5156,-1.0496,-0.3003,-39.4500,33.3000,23.1000,9.5529,-2.5498,-1.8244,-0.6622,-0.1935,0.2065,-55.8000,-4.2000,5.1000,3.7300,3.9600,-8.2000,0.0709,-0.1331,0.1451,-22.1875,-25.2500,20.0625,234.8750,23.6875,-149.3125,0
1777067542.841,8.3869,2.4205,-4.3670,-0.4818,-0.9915,-0.2574,-40.0500,33.4500,24.0000,9.6558,-3.1460,-1.8196,-0.8079,-0.2017,0.1988,-55.8000,-4.2000,5.1000,4.3000,3.1900,-8.6800,0.0327,-0.1156,0.1745,-22.1875,-25.2500,20.0625,235.0000,23.6875,-149.3750,0
1777067542.846,8.1259,2.6863,-4.5753,-0.4788,-0.8439,-0.2268,-40.0500,33.4500,24.0000,9.7803,-2.8635,-1.3743,-0.8839,-0.2244,0.1996,-55.8000,-4.2000,5.1000,4.3000,3.1900,-8.6800,0.0327,-0.1156,0.1745,-22.1875,-25.2500,20.0625,235.0000,23.6875,-149.3750,0
1777067542.851,8.1259,2.6863,-4.5753,-0.4788,-0.8439,-0.2268,-40.0500,33.4500,24.0000,9.6510,-1.9920,-1.1708,-0.8839,-0.2244,0.1996,-55.9500,-5.5500,4.9500,4.7600,2.4900,-9.4400,-0.0894,-0.2029,0.1822,-21.7500,-24.8750,20.5000,235.1250,23.6875,-149.4375,0
1777067542.855,8.1906,2.9544,-4.2449,-0.6571,-0.7325,-0.1479,-40.0500,33.4500,24.0000,9.6510,-1.9920,-1.1708,-1.0504,-0.2563,0.2084,-55.9500,-5.5500,4.9500,4.7600,2.4900,-9.4400,-0.0894,-0.2029,0.1822,-21.7500,-24.8750,20.5000,235.1250,23.6875,-149.4375,0
1777067542.860,8.1906,2.9544,-4.2449,-1.0184,-0.6400,-0.0277,-40.2000,34.0500,22.8000,9.5098,-1.2737,-1.3288,-1.0504,-0.2563,0.2084,-55.5000,-5.2500,4.5000,4.4300,2.9200,-8.8800,-0.2640,-0.4909,0.2083,-21.7500,-24.8750,20.5000,235.3125,23.5000,-149.3750,0
1777067542.865,8.0134,3.8164,-3.4453,-1.0184,-0.6400,-0.0277,-40.2000,34.0500,22.8000,9.5098,-1.2737,-1.3288,-1.1295,-0.2763,0.2334,-55.5000,-5.2500,4.5000,4.4300,2.9200,-8.8800,-0.4996,-0.6469,0.1865,-21.7500,-24.8750,20.5000,235.5625,23.2500,-149.1875,0
1777067542.871,8.1020,4.2401,-2.7318,-1.2867,-0.4676,0.0099,-40.2000,34.5000,24.9000,9.4379,-2.2673,0.1628,-0.9638,-0.3440,0.2606,-57.0000,-6.4500,5.7000,5.4800,1.3700,-8.9600,-0.4996,-0.6469,0.1865,-21.7500,-24.8750,20.5000,235.9375,23.0000,-149.1875,0
1777067542.881,8.5808,3.5075,-2.5498,-1.3019,-0.5233,-0.0077,-39.1500,31.8000,23.4000,8.9256,-4.1803,-2.4900,-0.7935,-0.2840,0.2923,-55.8000,-4.6500,5.8500,2.9400,-3.8800,-7.2300,-0.3829,-0.7385,0.4025,-21.7500,-24.8750,20.5000,236.8750,23.4375,-149.3125,0
1777067542.891,8.6814,3.7062,-3.0406,-1.0858,-0.6475,-0.0290,-39.7500,31.6500,22.2000,9.5864,-4.9991,-2.6552,-1.0661,-0.2582,0.2899,-55.8000,-4.6500,5.8500,9.1300,-5.9400,-16.5900,-0.2640,0.0338,1.5403,-21.7500,-24.8750,20.5000,236.8750,23.4375,-149.3125,0
1777067542.896,8.6814,3.7062,-3.0406,-1.0858,-0.6475,-0.0290,-39.7500,31.6500,22.2000,9.5864,-4.9991,-2.6552,-1.0661,-0.2582,0.2899,-55.8000,-4.6500,5.8500,9.1300,-5.9400,-16.5900,-0.2640,0.0338,1.5403,-22.1875,-24.5000,19.6875,238.2500,23.5000,-149.7500,0
1777067542.901,9.4451,3.5051,-5.2672,-0.8236,-0.7186,-0.0104,-39.7500,31.6500,22.2000,10.5297,-3.3279,-2.2889,-1.5447,-0.2190,0.2478,-56.1000,-6.6000,6.1500,8.7100,0.3700,-12.3700,-0.3502,-1.1792,2.1718,-22.1875,-24.5000,19.6875,238.2500,23.5000,-149.7500,0
1777067542.906,9.4451,3.5051,-5.2672,-0.8236,-0.7186,-0.0104,-40.0500,31.9500,21.9000,10.5297,-3.3279,-2.2889,-1.5447,-0.2190,0.2478,-56.1000,-6.6000,6.1500,8.7100,0.3700,-12.3700,-0.3502,-1.1792,2.1718,-22.1875,-24.5000,19.6875,239.7500,23.1875,-150.0000,0
1777067542.911,10.0748,3.4500,-5.6264,-0.4810,-0.8415,0.0645,-40.0500,31.9500,21.9000,10.9535,-0.9673,-1.8364,-1.9561,-0.2004,0.1767,-56.1000,-6.6000,6.1500,3.6600,8.2400,-7.3600,-0.7036,-1.7933,2.0039,-22.1875,-24.5000,19.6875,239.7500,23.1875,-150.0000,0
1777067542.918,10.0748,3.4500,-5.6264,-0.4810,-0.8415,0.0645,-39.1500,33.7500,24.4500,10.4291,1.0678,-1.0942,-1.9561,-0.2004,0.1767,-56.1000,-6.6000,6.1500,3.6600,14.8300,-3.0000,-0.6338,-1.8631,1.8370,-22.1875,-24.5000,19.6875,241.0625,22.8125,-150.1875,0
1777067542.923,10.1778,3.2417,-4.9177,-0.4732,-1.0317,0.1767,-39.1500,33.7500,24.4500,10.4291,1.0678,-1.0942,-1.9777,-0.2782,0.1037,-57.4500,-7.5000,5.2500,3.6600,14.8300,-3.0000,-0.6338,-1.8631,1.8370,-22.1875,-24.5000,19.6875,241.8750,22.3750,-150.3125,0
1777067542.931,9.2153,3.4405,-3.8714,-0.6137,-1.2692,0.2851,-39.7500,31.9500,21.9000,8.9591,2.2410,-1.8196,-1.6393,-0.3355,0.0797,-56.7000,-7.5000,4.9500,1.6700,8.2200,-6.0000,-0.4789,-1.4104,0.9316,-22.1875,-24.5000,19.6875,242.3125,22.0000,-150.3125,0
1777067542.941,7.9224,4.0701,-3.1580,-0.7975,-1.2694,0.2886,-40.2000,34.0500,22.0500,8.2504,1.8052,-2.1883,-1.2071,-0.2942,0.1013,-55.9500,-7.2000,6.0000,3.0700,3.2400,-7.7500,-0.3087,-1.0603,0.4701,-22.1875,-24.5000,19.6875,242.3125,22.0000,-150.3125,0
1777067542.946,7.9224,4.0701,-3.1580,-0.7975,-1.2694,0.2886,-40.2000,34.0500,22.0500,8.2504,1.8052,-2.1883,-1.2071,-0.2942,0.1013,-55.9500,-7.2000,6.0000,3.0700,3.2400,-7.7500,-0.3087,-1.0603,0.4701,-22.1875,-24.5000,19.6875,242.3125,22.0000,-150.3125,0
1777067542.951,6.7301,5.0781,-2.8419,-0.8588,-1.1767,0.1924,-40.2000,34.0500,22.0500,8.8131,0.6632,-2.6049,-0.8439,-0.2854,0.1484,-56.1000,-6.9000,4.0500,5.4600,1.9300,-9.3400,-0.5280,-0.5192,0.4254,-22.7500,-24.0625,20.5000,242.6875,21.8750,-150.1875,0
1777067542.956,6.7301,5.0781,-2.8419,-0.8588,-1.1767,0.1924,-40.2000,31.8000,21.0000,8.8131,0.6632,-2.6049,-0.8439,-0.2854,0.1484,-56.1000,-6.9000,4.0500,5.4600,1.9300,-9.3400,-0.5280,-0.5192,0.4254,-22.7500,-24.0625,20.5000,242.6875,21.8750,-150.1875,0
1777067542.961,5.7844,5.1212,-2.9042,-0.8380,-1.0627,0.0040,-40.2000,31.8000,21.0000,9.7133,-0.4190,-2.2122,-0.7687,-0.2531,0.1993,-56.1000,-6.9000,4.0500,5.4000,2.6800,-9.0400,-0.5683,-0.8650,0.5247,-22.7500,-24.0625,20.5000,243.1250,21.5625,-150.0625,0
1777067542.966,5.7844,5.1212,-2.9042,-0.8380,-1.0627,0.0040,-40.0500,30.9000,20.4000,9.8785,-0.4262,-2.3439,-0.7687,-0.2531,0.1993,-56.1000,-6.9000,4.0500,5.4000,2.6800,-9.0400,-0.5989,-1.2021,0.7581,-22.7500,-24.0625,20.5000,243.8125,21.2500,-150.0000,0
1777067542.972,6.1770,5.2888,-3.2202,-0.7682,-0.8900,-0.1663,-40.0500,30.9000,20.4000,9.8785,-0.4262,-2.3439,-0.9968,-0.2782,0.2374,-56.8500,-6.1500,4.3500,3.5800,4.4600,-7.8900,-0.5989,-1.2021,0.7581,-22.7500,-24.0625,20.5000,244.5625,20.8125,-150.0625,0
1777067542.981,6.3997,5.8586,-3.2729,-0.6981,-0.7261,-0.1966,-39.4500,30.7500,21.6000,9.5960,0.2801,-2.1428,-1.1895,-0.3003,0.2446,-56.8500,-6.1500,4.3500,2.5800,5.2400,-6.9200,-0.4920,-1.3854,0.8530,-22.7500,-24.0625,20.5000,244.5625,20.8125,-150.0625,0
1777067542.991,6.6511,6.5314,-3.2992,-0.6720,-0.4775,-0.1031,-41.4000,31.8000,22.0500,9.4236,1.4964,-2.2553,-1.1946,-0.2801,0.2254,-56.2500,-6.4500,5.2500,2.4400,6.3200,-6.7100,-0.4952,-1.2610,0.7789,-22.7500,-24.0625,20.5000,245.1875,20.3750,-150.0625,0
1777067542.996,6.6511,6.5314,-3.2992,-0.6720,-0.4775,-0.1031,-40.5000,31.6500,21.9000,9.2009,2.5259,-2.7150,-1.0216,-0.2180,0.2036,-56.2500,-6.4500,5.2500,2.4400,6.3200,-6.7100,-0.4952,-1.2610,0.7789,-22.7500,-24.0625,20.5000,245.7500,20.1250,-150.0000,0
1777067543.001,6.5457,6.7373,-3.1029,-0.6925,-0.2475,-0.0107,-40.5000,31.6500,21.9000,9.2009,2.5259,-2.7150,-1.0216,-0.2180,0.2036,-56.5500,-7.8000,3.3000,3.2600,6.8800,-7.0600,-0.4363,-0.9894,0.6578,-22.7500,-24.0625,22.5000,245.7500,20.1250,-150.0000,0
1777067543.006,6.5457,6.7373,-3.1029,-0.6760,-0.1958,0.0093,-40.5000,31.6500,21.9000,9.7492,2.6983,-2.3128,-0.6542,-0.1969,0.2094,-56.5500,-7.8000,3.3000,3.2600,6.8800,-7.0600,-0.4363,-0.9894,0.6578,-22.7500,-24.0625,22.5000,246.1875,19.8125,-150.0000,0
1777067543.011,7.2042,6.5122,-3.1029,-0.6760,-0.1958,0.0093,-40.5000,31.6500,21.9000,9.7492,2.6983,-2.3128,-0.6542,-0.1969,0.2094,-55.9500,-8.4000,3.0000,4.3600,6.7100,-7.2000,-0.2869,-0.8476,0.4909,-22.7500,-24.0625,22.5000,246.1875,19.8125,-150.0000,0
1777067543.017,7.7285,6.2465,-3.5650,-0.7274,-0.2377,-0.0179,-39.9000,33.3000,21.3000,9.7755,1.8771,-2.6743,-0.3323,-0.1567,0.2350,-55.9500,-8.4000,3.0000,4.3600,6.7100,-7.2000,-0.0753,-0.8247,0.3807,-22.7500,-24.0625,22.5000,246.5000,19.5625,-150.1250,0
1777067543.022,7.7285,6.2465,-3.5650,-0.7274,-0.2377,-0.0179,-39.9000,33.3000,21.3000,9.7755,1.8771,-2.6743,-0.3323,-0.1567,0.2350,-56.8500,-7.8000,3.6000,4.0700,6.4400,-7.3800,-0.0753,-0.8247,0.3807,-22.7500,-24.0625,22.5000,246.8125,19.2500,-150.3125,0
1777067543.031,8.2432,5.8275,-4.0366,-0.5665,-0.2992,-0.0560,-39.7500,32.7000,21.9000,9.5313,0.3903,-2.4157,-0.1159,-0.1572,0.2414,-56.8500,-7.8000,3.6000,4.1000,6.2700,-7.9300,0.0393,-0.8290,0.2913,-22.7500,-24.0625,22.5000,246.8125,19.2500,-150.3125,0
1777067543.041,8.3510,5.1523,-4.6400,-0.4066,-0.4482,-0.0935,-42.0000,32.2500,21.6000,9.1602,-0.5531,-2.1979,-0.1236,-0.1945,0.2475,-55.5000,-7.5000,4.5000,1.8800,4.7500,-7.1000,0.1789,-0.9610,0.2138,-22.7500,-24.0625,22.5000,247.0000,18.8125,-150.5000,0
1777067543.046,7.8434,4.9799,-4.8076,-0.1969,-0.5079,-0.0879,-41.5500,33.9000,21.1500,8.7987,-1.4269,-2.5977,-0.2643,-0.2361,0.2390,-55.5000,-7.5000,4.5000,1.8800,4.7500,-7.1000,0.1789,-0.9610,0.2138,-22.7500,-24.0625,22.5000,247.2500,18.4375,-150.7500,0
1777067543.051,7.8434,4.9799,-4.8076,-0.1969,-0.5079,-0.0879,-41.5500,33.9000,21.1500,8.7987,-1.4269,-2.5977,-0.2643,-0.2361,0.2390,-55.5000,-7.5000,4.5000,1.7100,4.3700,-7.1700,0.1876,-0.9556,0.1833,-22.5000,-23.3750,20.5000,247.2500,18.4375,-150.7500,0
1777067543.056,7.3358,4.9919,-4.8387,-0.0544,-0.4514,-0.0480,-41.5500,33.9000,21.1500,8.9136,-1.3360,-2.7438,-0.4231,-0.2577,0.2281,-55.5000,-7.5000,4.5000,1.7100,4.3700,-7.1700,0.1876,-0.9556,0.1833,-22.5000,-23.3750,20.5000,247.2500,18.4375,-150.7500,0
1777067543.061,7.3358,4.9919,-4.8387,-0.0544,-0.4514,-0.0480,-41.5500,33.9000,21.1500,8.9136,-1.3360,-2.7438,-0.4231,-0.2577,0.2281,-56.8500,-6.1500,4.0500,2.5300,4.3800,-7.4500,0.1658,-0.7516,0.1385,-22.5000,-23.3750,20.5000,247.4375,18.0625,-150.9375,0
1777067543.066,7.2568,5.2146,-4.6112,-0.0306,-0.3182,0.0107,-42.4500,31.5000,21.3000,9.6007,-0.7470,-2.7461,-0.5127,-0.2326,0.2244,-56.8500,-6.1500,4.0500,2.5300,4.3800,-7.4500,0.1331,-0.6545,0.0938,-22.5000,-23.3750,20.5000,247.5625,17.8125,-151.0625,0
1777067543.072,7.2568,5.2146,-4.6112,-0.0306,-0.3182,0.0107,-42.4500,31.5000,21.3000,10.2472,0.0575,-3.1484,-0.5127,-0.2326,0.2244,-56.1000,-8.1000,4.0500,2.7200,4.4400,-7.9800,0.1331,-0.6545,0.0938,-22.5000,-23.3750,20.5000,247.6250,17.5000,-151.1875,0
1777067543.081,6.9504,5.7126,-4.5322,-0.0983,-0.2475,0.0392,-41.5500,31.9500,22.2000,10.0820,0.0958,-2.6839,-0.4311,-0.1090,0.2758,-57.3000,-9.0000,3.3000,4.2600,4.7000,-8.6000,0.1156,-0.5890,0.0436,-22.5000,-23.3750,20.5000,247.6250,17.5000,-151.1875,0
1777067543.091,7.1036,5.7988,-4.5059,-0.0930,-0.1892,0.0445,-40.8000,32.4000,22.2000,9.8090,-0.0622,-2.7198,-0.2910,-0.1159,0.2571,-57.3000,-9.0000,3.3000,4.6900,4.7300,-8.9400,0.1429,-0.6305,-0.0011,-22.5000,-23.3750,20.5000,247.6875,17.1875,-151.3125,0
1777067543.096,7.9487,5.4875,-4.9895,0.0005,0.0863,0.1069,-41.1000,31.9500,22.2000,9.8090,-0.0622,-2.7198,-0.1580,-0.0552,0.2848,-54.7500,-8.4000,4.2000,4.6900,4.7300,-8.9400,0.1429,-0.6305,-0.0011,-22.5000,-23.3750,20.5000,247.6875,17.1875,-151.3125,0
1777067543.101,7.9487,5.4875,-4.9895,0.0005,0.0863,0.1069,-41.1000,31.9500,22.2000,9.3996,-0.4597,-3.2441,-0.0506,-0.0160,0.2891,-54.6000,-9.0000,4.8000,4.4800,4.8100,-9.1100,0.1800,-0.7745,-0.0360,-21.0000,-22.6875,24.1875,247.8125,16.8125,-151.5000,0
1777067543.106,7.2449,5.2241,-5.5043,0.2558,0.0743,0.0480,-41.1000,31.9500,22.2000,9.3996,-0.4597,-3.2441,-0.0506,-0.0160,0.2891,-54.6000,-9.0000,4.8000,4.4800,4.8100,-9.1100,0.1800,-0.7745,-0.0360,-21.0000,-22.6875,24.1875,247.8125,16.8125,-151.5000,0
1777067543.111,7.2449,5.2241,-5.5043,0.2558,0.0743,0.0480,-41.1000,31.9500,22.2000,8.7436,-0.7398,-4.0270,-0.0051,-0.0109,0.2886,-54.6000,-9.0000,4.8000,4.2800,4.8900,-8.3900,0.2236,-0.9174,-0.0982,-21.0000,-22.6875,24.1875,247.8125,16.3750,-151.6250,0
1777067543.117,7.0988,4.9464,-6.0238,0.4013,0.0021,0.0189,-43.6500,32.4000,22.2000,8.7436,-0.7398,-4.0270,-0.0051,-0.0109,0.2886,-56.2500,-7.5000,3.0000,3.5600,4.4600,-7.8300,0.3338,-1.0363,-0.1244,-21.0000,-22.6875,24.1875,247.8750,15.8125,-151.8750,0
1777067543.122,7.6399,4.8483,-6.5721,0.5833,-0.0296,0.0128,-41.8500,30.9000,21.1500,8.2887,-1.2402,-4.8219,0.0000,0.0085,0.2713,-56.2500,-7.5000,3.0000,3.5600,4.4600,-7.8300,0.3338,-1.0363,-0.1244,-21.0000,-22.6875,24.1875,247.9375,15.1875,-152.1875,0
1777067543.131,7.6399,4.8483,-6.5721,0.5833,-0.0296,0.0128,-41.8500,30.9000,21.1500,8.2839,-1.7645,-4.9033,-0.0365,0.0096,0.2513,-56.2500,-7.5000,3.0000,2.0600,3.4800,-7.5400,0.3949,-1.1617,-0.1233,-21.0000,-22.6875,24.1875,248.0000,14.6250,-152.4375,0
1777067543.141,7.4651,4.5131,-5.9328,0.3837,-0.2475,-0.0266,-43.3500,32.7000,21.1500,7.9368,-1.9345,-5.0015,-0.1087,0.0378,0.2198,-55.3500,-9.0000,3.3000,0.4400,3.4100,-7.6700,0.3578,-1.1268,-0.1233,-21.0000,-22.6875,24.1875,248.0000,14.6250,-152.4375,0
1777067543.146,7.1371,4.2018,-6.3063,0.3837,-0.2475,-0.0266,-42.4500,31.8000,20.5500,7.9368,-1.9345,-5.0015,-0.1087,0.0378,0.2198,-56.1000,-7.8000,4.0500,0.4400,3.4100,-7.6700,0.3578,-1.1268,-0.1233,-21.0000,-22.6875,24.1875,248.0625,14.1250,-152.6875,0
1777067543.151,7.1204,3.4022,-5.9041,0.2212,-0.3683,-0.0112,-43.5000,31.5000,20.5500,8.4587,-2.4588,-4.5610,-0.2177,-0.0112,0.1399,-56.1000,-7.8000,4.0500,0.4700,3.3100,-7.9700,0.2956,-0.9065,-0.0873,-19.8750,-23.3750,25.2500,248.0625,14.1250,-152.6875,0
1777067543.156,7.1204,3.4022,-5.9041,0.2212,-0.3683,-0.0112,-43.5000,31.5000,20.5500,8.4587,-2.4588,-4.5610,-0.2177,-0.0112,0.1399,-55.3500,-8.5500,2.8500,0.4700,3.3100,-7.9700,0.2956,-0.9065,-0.0873,-19.8750,-23.3750,25.2500,248.0625,14.1250,-152.6875,0
1777067543.161,7.1204,3.4022,-5.9041,0.1247,-0.2883,-0.0173,-43.5000,31.5000,20.5500,8.7843,-2.4469,-4.0749,-0.3032,-0.0333,0.0970,-55.3500,-8.5500,2.8500,-0.5400,2.8900,-7.7800,0.2313,-0.7898,-0.0153,-19.8750,-23.3750,25.2500,248.1250,13.7500,-152.8125,0
1777067543.166,6.4476,2.8180,-5.9065,0.1247,-0.2883,-0.0173,-43.5000,31.5000,20.5500,8.7843,-2.4469,-4.0749,-0.3032,-0.0333,0.0970,-55.8000,-9.3000,4.3500,-0.5400,2.8900,-7.7800,0.0905,-0.5890,0.0622,-19.8750,-23.3750,25.2500,248.2500,13.5000,-152.9375,0
1777067543.172,7.3382,3.1173,-6.4572,0.0962,-0.3397,-0.0136,-44.8500,32.4000,21.4500,8.9926,-2.2601,-3.5410,-0.4194,0.0184,0.0810,-55.0500,-7.8000,4.0500,-0.8100,2.9100,-7.8200,0.0905,-0.5890,0.0622,-19.8750,-23.3750,25.2500,248.3125,13.3750,-152.8750,0
1777067543.181,6.8211,3.2130,-6.3327,-0.0493,-0.3437,0.0197,-45.1500,32.4000,20.4000,9.4858,-1.8244,-3.0287,-0.5164,0.0954,0.0962,-55.0500,-7.8000,4.0500,3.3900,4.1400,-9.1100,-0.0927,-0.2978,0.0371,-19.8750,-23.3750,25.2500,248.3125,13.3750,-152.8750,0
1777067543.191,6.7253,3.4884,-5.5617,-0.3179,-0.3653,0.1231,-45.7500,33.0000,19.2000,9.8019,-1.5778,-2.5187,-0.5585,0.1234,0.1263,-55.0500,-9.3000,4.0500,3.4000,3.5200,-8.8100,-0.1124,-0.3502,-0.0164,-19.8750,-23.3750,25.2500,248.3125,13.1875,-152.8750,0
1777067543.196,6.7253,3.4884,-5.5617,-0.3179,-0.3653,0.1231,-45.7500,33.0000,19.2000,9.5768,-1.3862,-2.6336,-0.5585,0.1234,0.1263,-55.0500,-9.3000,4.0500,3.4000,3.5200,-8.8100,-0.1124,-0.3502,-0.0164,-19.8750,-23.3750,25.2500,248.3125,13.1875,-152.8750,0
1777067543.201,7.2903,3.7541,-4.8578,-0.4572,-0.2068,0.1876,-46.0500,34.0500,19.9500,9.5768,-1.3862,-2.6336,-0.5068,0.1220,0.1468,-55.0500,-9.3000,4.0500,3.0600,3.1200,-8.9500,-0.0982,-0.4734,0.0076,-20.0000,-22.2500,25.7500,248.4375,12.9375,-152.8125,0
1777067543.206,7.2903,3.7541,-4.8578,-0.4572,-0.2068,0.1876,-46.0500,34.0500,19.9500,9.0860,-1.4341,-3.0191,-0.5068,0.1220,0.1468,-55.5000,-9.4500,4.5000,3.0600,3.1200,-8.9500,-0.0982,-0.4734,0.0076,-20.0000,-22.2500,25.7500,248.4375,12.9375,-152.8125,0
1777067543.211,8.1187,3.3519,-4.7046,-0.5129,-0.1340,0.1679,-46.0500,34.0500,19.9500,9.0860,-1.4341,-3.0191,-0.4780,0.1053,0.1482,-55.5000,-9.4500,4.5000,2.9300,3.0900,-9.2800,-0.1145,-0.5705,0.0644,-20.0000,-22.2500,25.7500,248.5000,12.6875,-152.8125,0
1777067543.219,8.3869,3.4812,-4.7836,-0.4975,-0.1484,0.0847,-46.0500,34.0500,19.9500,9.1123,-1.0463,-2.9832,-0.4748,0.0600,0.1522,-54.1500,-9.7500,4.8000,2.3600,2.9200,-8.8800,-0.1309,-0.6436,0.1036,-20.0000,-22.2500,25.7500,248.6875,12.3750,-152.7500,0
1777067543.224,8.3869,3.4812,-4.7836,-0.4975,-0.1484,0.0847,-46.5000,33.3000,19.5000,9.1123,-1.0463,-2.9832,-0.4748,0.0600,0.1522,-55.5000,-8.4000,4.2000,2.3600,2.9200,-8.8800,-0.1309,-0.6436,0.1036,-20.0000,-22.2500,25.7500,248.8750,12.0625,-152.7500,0
1777067543.232,8.0613,3.7062,-4.7525,-0.5865,-0.1721,0.0234,-46.6500,33.9000,20.4000,8.9232,-0.9050,-3.4836,-0.5028,0.0373,0.1410,-55.5000,-8.4000,4.2000,1.0900,2.9600,-8.7600,-0.1778,-0.7156,0.1593,-20.0000,-22.2500,25.7500,249.0625,11.8125,-152.6250,0
1777067543.242,7.5082,4.0941,-4.9344,-0.7202,-0.1356,0.0464,-46.6500,34.2000,19.3500,9.0740,-1.0726,-3.3399,-0.4994,0.0352,0.1148,-55.5000,-9.1500,4.5000,1.9500,4.3400,-8.0900,-0.2596,-0.6709,0.1920,-20.0000,-22.2500,25.7500,249.0625,11.8125,-152.6250,0
1777067543.246,7.5082,4.0941,-4.9344,-0.7202,-0.1356,0.0464,-46.6500,34.2000,19.3500,9.1435,-0.8835,-3.1125,-0.5772,0.0509,0.0959,-56.1000,-9.3000,4.8000,1.9500,4.3400,-8.0900,-0.2596,-0.6709,0.1920,-20.0000,-22.2500,25.7500,249.3125,11.5000,-152.5625,0
1777067543.252,6.3375,4.1683,-4.6064,-0.9078,-0.1852,0.0893,-47.5500,34.0500,18.4500,9.1435,-0.8835,-3.1125,-0.5772,0.0509,0.0959,-56.1000,-9.3000,4.8000,0.8500,4.3300,-7.3600,-0.2542,-0.7079,0.2203,-19.5625,-22.0000,26.5000,249.3125,11.5000,-152.5625,0
1777067543.256,6.3375,4.1683,-4.6064,-0.9078,-0.1852,0.0893,-47.5500,34.0500,18.4500,9.0261,-0.7829,-3.1939,-0.6539,0.0648,0.0682,-55.5000,-9.1500,4.2000,0.8500,4.3300,-7.3600,-0.2542,-0.7079,0.2203,-19.5625,-22.0000,26.5000,249.5625,11.2500,-152.5000,0
1777067543.261,6.2537,4.5011,-4.3646,-0.8777,-0.1386,0.0562,-47.5500,34.0500,18.4500,9.0261,-0.7829,-3.1939,-0.6539,0.0648,0.0682,-55.5000,-9.1500,4.2000,0.6500,4.2200,-7.5400,-0.2345,-0.6720,0.3043,-19.5625,-22.0000,26.5000,249.5625,11.2500,-152.5000,0
1777067543.266,6.2537,4.5011,-4.3646,-0.8777,-0.1386,0.0562,-47.5500,34.0500,18.4500,9.4523,-0.7590,-2.0758,-0.6238,0.0725,0.0570,-55.5000,-9.1500,4.2000,0.6500,4.2200,-7.5400,-0.2738,-0.5018,0.2803,-19.5625,-22.0000,26.5000,249.8125,11.0625,-152.3750,0
1777067543.272,6.5122,4.4891,-4.1563,-0.8082,0.1029,-0.0045,-46.8000,36.3000,19.2000,9.4523,-0.7590,-2.0758,-0.6238,0.0725,0.0570,-55.5000,-9.1500,4.2000,1.4700,4.7400,-8.0800,-0.2738,-0.5018,0.2803,-19.5625,-22.0000,26.5000,250.0625,10.8750,-152.3125,0
1777067543.282,7.5657,4.5203,-3.9025,-0.8060,0.2302,-0.0530,-47.1000,34.8000,18.1500,9.4810,-0.8260,-1.9321,-0.5486,0.0602,0.0498,-54.6000,-9.0000,5.5500,1.9000,5.0600,-8.2700,-0.2891,-0.4461,0.2269,-19.5625,-22.0000,26.5000,250.2500,10.7500,-152.1875,0
1777067543.292,8.4204,4.1922,-3.9959,-0.8042,0.2747,-0.0783,-45.7500,37.0500,17.7000,9.4739,-0.9026,-2.1021,-0.5601,0.0309,0.0365,-55.5000,-9.1500,2.4000,2.1600,4.3300,-8.2300,-0.2487,-0.4527,0.2182,-19.5625,-22.0000,26.5000,250.2500,10.7500,-152.1875,0
1777067543.297,8.2361,4.0893,-3.8930,-1.0269,0.2694,-0.0576,-45.7500,37.0500,17.7000,9.6534,-0.8978,-1.8579,-0.5009,0.0069,0.0469,-54.6000,-9.0000,4.0500,2.1600,4.3300,-8.2300,-0.2487,-0.4527,0.2182,-19.5625,-22.0000,26.5000,250.2500,10.7500,-152.1875,0
1777067543.302,8.2361,4.0893,-3.8930,-1.0269,0.2694,-0.0576,-45.9000,36.9000,20.1000,9.6534,-0.8978,-1.8579,-0.5009,0.0069,0.0469,-54.6000,-9.0000,4.0500,2.3700,4.3000,-8.5000,-0.2422,-0.4396,0.1909,-18.8750,-22.6875,27.2500,250.4375,10.5625,-152.1250,0
1777067543.307,8.0661,4.4317,-4.1228,-1.0829,0.2771,-0.0373,-45.9000,36.9000,20.1000,9.7348,-0.8619,-1.9058,-0.4623,0.0099,0.0570,-56.2500,-8.7000,4.9500,2.3700,4.3000,-8.5000,-0.2422,-0.4396,0.1909,-18.8750,-22.6875,27.2500,250.4375,10.5625,-152.1250,0
1777067543.312,8.0661,4.4317,-4.1228,-1.0829,0.2771,-0.0373,-45.9000,36.9000,20.1000,9.6486,-1.0199,-2.0758,-0.4623,0.0099,0.0570,-56.2500,-8.7000,4.9500,3.1100,4.4300,-9.3900,-0.2247,-0.4647,0.1844,-18.8750,-22.6875,27.2500,250.5625,10.3750,-152.0000,0
1777067543.320,8.0637,4.5753,-4.1803,-1.0909,0.2910,-0.0480,-45.9000,36.9000,20.1000,9.6486,-1.0199,-2.0758,-0.4820,0.0213,0.0552,-55.2000,-11.8500,4.2000,3.0500,4.2100,-9.0700,-0.1854,-0.5585,0.1909,-18.8750,-22.6875,27.2500,250.7500,10.1875,-151.9375,0
1777067543.325,8.0637,4.5753,-4.1803,-1.0909,0.2910,-0.0480,-45.9000,36.9000,20.1000,9.5098,-1.2522,-2.1093,-0.4405,0.0059,0.0552,-54.0000,-8.7000,4.2000,3.0500,4.2100,-9.0700,-0.1854,-0.5585,0.1909,-18.8750,-22.6875,27.2500,251.0000,9.8750,-151.9375,0
1777067543.332,7.9152,4.3455,-4.4963,-1.1826,0.3142,-0.0608,-44.5500,37.5000,18.4500,9.0668,-1.5155,-3.4524,-0.4759,-0.0224,0.0506,-54.0000,-8.7000,4.2000,2.4600,3.9300,-8.7300,-0.1102,-0.6883,0.2236,-18.8750,-22.6875,27.2500,251.2500,9.5625,-151.9375,0
1777067543.342,7.7596,4.3862,-4.7190,-1.1183,0.3246,-0.0586,-45.9000,36.4500,18.3000,8.9830,-1.7454,-3.6129,-0.5260,-0.0509,0.0309,-54.0000,-8.7000,4.2000,1.3500,3.7000,-8.3600,-0.1014,-0.7756,0.2825,-18.8750,-22.6875,27.2500,251.2500,9.5625,-151.9375,0
1777067543.347,7.7093,4.6471,-4.3455,-0.9848,0.1783,-0.0120,-45.9000,36.4500,18.3000,8.9830,-1.7454,-3.6129,-0.5260,-0.0509,0.0309,-55.0500,-9.7500,2.8500,1.3500,3.7000,-8.3600,-0.1014,-0.7756,0.2825,-18.8750,-22.6875,27.2500,251.5625,9.2500,-151.9375,0
1777067543.352,7.7093,4.6471,-4.3455,-0.9848,0.1783,-0.0120,-44.2500,36.3000,18.7500,9.1889,-2.3774,-3.2154,-0.5220,-0.0610,0.0024,-55.0500,-9.7500,2.8500,0.5800,3.2200,-7.9000,-0.1593,-0.7767,0.2716,-18.8750,-22.6875,28.1875,251.5625,9.2500,-151.9375,0
1777067543.356,7.8362,4.9584,-4.7836,-0.7917,0.0205,-0.0032,-44.2500,36.3000,18.7500,9.1889,-2.3774,-3.2154,-0.5220,-0.0610,0.0024,-55.0500,-9.3000,4.3500,0.5800,3.2200,-7.9000,-0.1593,-0.7767,0.2716,-18.8750,-22.6875,28.1875,251.8750,9.0000,-151.8750,0
1777067543.362,7.8362,4.9584,-4.7836,-0.7917,0.0205,-0.0032,-43.3500,36.9000,19.0500,9.2416,-2.6911,-3.0215,-0.6731,-0.0288,-0.0293,-55.0500,-9.3000,4.3500,-0.2700,3.3900,-7.6400,-0.1811,-0.8061,0.3818,-18.8750,-22.6875,28.1875,251.8750,9.0000,-151.8750,0
1777067543.366,7.7931,4.9991,-4.6591,-0.6320,-0.0208,-0.0155,-43.3500,36.9000,19.0500,9.2416,-2.6911,-3.0215,-0.6731,-0.0288,-0.0293,-55.9500,-9.1500,4.2000,-0.2700,3.3900,-7.6400,-0.2356,-0.5629,0.5029,-18.8750,-22.6875,28.1875,252.2500,8.8125,-151.8125,0
1777067543.372,7.7931,4.9991,-4.6591,-0.6320,-0.0208,-0.0155,-43.3500,36.9000,19.0500,9.2153,-1.9704,-3.1292,-0.8346,-0.0021,-0.0517,-55.9500,-9.1500,4.2000,1.7100,3.7200,-9.5900,-0.2356,-0.5629,0.5029,-18.8750,-22.6875,28.1875,252.5625,8.6250,-151.6875,0
1777067543.382,8.2528,4.4436,-4.7022,-0.3880,-0.0877,-0.0040,-40.9500,37.5000,19.2000,9.2967,-1.5706,-3.1795,-0.9028,-0.0171,-0.0490,-55.8000,-9.0000,4.0500,0.7700,4.5700,-7.2600,-0.3578,-0.6174,0.3720,-18.8750,-22.6875,28.1875,252.5625,8.6250,-151.6875,0
1777067543.392,8.0254,4.4269,-4.1037,-0.1884,-0.2758,0.0349,-43.3500,37.9500,18.3000,9.3134,-1.3024,-3.3806,-0.9070,-0.0029,-0.0384,-54.0000,-10.6500,4.5000,0.5800,3.2400,-8.1900,-0.4647,-0.4887,0.2847,-18.8750,-22.6875,28.1875,252.8125,8.4375,-151.4375,0
1777067543.397,7.6351,4.7501,-3.5147,-0.1807,-0.1386,0.0909,-43.3500,37.9500,18.3000,9.3134,-1.3024,-3.3806,-0.9070,-0.0029,-0.0384,-56.1000,-10.5000,2.8500,0.5800,3.2400,-8.1900,-0.4647,-0.4887,0.2847,-18.8750,-22.6875,28.1875,252.8125,8.4375,-151.4375,0
1777067543.402,7.6351,4.7501,-3.5147,-0.1807,-0.1386,0.0909,-40.8000,39.1500,17.2500,9.5385,-1.0918,-2.4541,-0.8796,0.0272,-0.0171,-56.1000,-10.5000,2.8500,1.7300,3.4700,-9.1000,-0.6109,-0.3545,0.2040,-18.5625,-22.0000,26.8750,253.0000,8.3750,-151.1250,0
1777067543.407,7.6782,5.2313,-3.4333,-0.1343,-0.3371,0.0552,-40.8000,39.1500,17.2500,9.5385,-1.0918,-2.4541,-0.8796,0.0272,-0.0171,-56.1000,-10.5000,2.8500,1.7300,3.4700,-9.1000,-0.6109,-0.3545,0.2040,-18.5625,-22.0000,26.8750,253.0000,8.3750,-151.1250,0
1777067543.412,7.6782,5.2313,-3.4333,-0.1343,-0.3371,0.0552,-42.0000,38.2500,17.7000,9.3925,-1.1420,-2.8036,-0.8775,0.0421,-0.0264,-56.1000,-10.5000,2.8500,2.0300,3.7100,-9.4500,-0.7210,-0.3676,0.1996,-18.5625,-22.0000,26.8750,253.1875,8.2500,-150.7500,0
1777067543.419,7.6638,4.9057,-3.4500,-0.0171,-0.3368,0.0093,-42.0000,38.2500,17.7000,9.3374,-1.0582,-2.6432,-0.9470,0.0405,-0.0597,-55.2000,-10.3500,3.4500,2.4800,4.1100,-9.5300,-0.7538,-0.4429,0.2803,-18.5625,-22.0000,26.8750,253.4375,8.0625,-150.3750,0
1777067543.424,8.0780,5.0685,-3.4333,-0.1042,-0.4389,0.0293,-42.0000,38.2500,17.7000,9.3374,-1.0582,-2.6432,-0.9470,0.0405,-0.0597,-55.2000,-10.3500,3.4500,2.4800,4.1100,-9.5300,-0.7538,-0.4429,0.2803,-18.5625,-22.0000,26.8750,253.7500,7.8750,-150.0000,0
1777067543.432,7.8075,4.2282,-4.0558,-0.5052,-0.3203,0.0783,-41.5500,39.9000,16.8000,9.6534,-0.9960,-2.0973,-0.9257,0.0064,-0.0671,-55.5000,-9.1500,4.9500,2.5200,4.2700,-9.0900,-0.7134,-0.5749,0.3665,-18.5625,-22.0000,26.8750,254.1250,7.6875,-149.7500,0
1777067543.442,7.6375,4.7142,-3.6679,-0.5148,-0.2678,0.1199,-41.4000,39.3000,15.6000,9.3925,-0.8523,-2.0997,-0.9377,0.0059,-0.0770,-55.5000,-8.4000,1.6500,1.1000,4.7600,-8.6400,-0.6600,-0.7123,0.4451,-18.5625,-22.0000,26.8750,254.1250,7.6875,-149.7500,0
1777067543.447,7.6375,4.7142,-3.6679,-0.5148,-0.2678,0.1199,-40.2000,39.7500,15.9000,9.4810,-0.5459,-2.3487,-0.9377,0.0059,-0.0770,-53.4000,-8.5500,3.6000,1.1000,4.7600,-8.6400,-0.6600,-0.7123,0.4451,-18.5625,-22.0000,26.8750,254.5625,7.5000,-149.4375,0
1777067543.452,7.7069,5.3510,-3.8092,-0.4485,-0.2134,0.1314,-40.2000,39.7500,15.9000,9.4810,-0.5459,-2.3487,-0.9574,0.0322,-0.0677,-53.4000,-8.5500,3.6000,2.0900,5.0800,-8.6200,-0.6349,-0.7418,0.4887,-17.3750,-23.3750,27.2500,254.5625,7.5000,-149.4375,0
1777067543.457,7.7069,5.3510,-3.8092,-0.4485,-0.2134,0.1314,-42.0000,40.0500,14.8500,9.6558,-0.2035,-2.5067,-0.9534,0.0330,-0.0480,-54.1500,-10.0500,3.3000,2.0900,5.0800,-8.6200,-0.6349,-0.7418,0.4887,-17.3750,-23.3750,27.2500,254.8750,7.2500,-149.1250,0
1777067543.462,7.3382,5.8849,-3.8331,-0.4583,-0.1759,0.1228,-42.0000,40.0500,14.8500,9.6558,-0.2035,-2.5067,-0.9534,0.0330,-0.0480,-54.1500,-10.0500,3.3000,2.6100,5.1900,-8.3700,-0.6305,-0.7156,0.4211,-17.3750,-23.3750,27.2500,254.8750,7.2500,-149.1250,0
1777067543.467,7.3382,5.8849,-3.8331,-0.4583,-0.1759,0.1228,-42.0000,40.0500,14.8500,9.3326,0.1987,-2.9521,-0.9358,0.0373,-0.0253,-55.3500,-10.9500,4.8000,2.6100,5.1900,-8.3700,-0.5989,-0.7516,0.3840,-17.3750,-23.3750,27.2500,255.2500,7.0000,-148.8750,0
1777067543.472,7.1299,5.5498,-3.9696,-0.3736,-0.0600,0.1204,-42.0000,40.0500,14.8500,9.3326,0.1987,-2.9521,-0.9358,0.0373,-0.0253,-55.3500,-10.9500,4.8000,2.0200,4.8500,-8.4000,-0.5989,-0.7516,0.3840,-17.3750,-23.3750,27.2500,255.6250,6.7500,-148.5625,0
1777067543.482,7.2736,5.2577,-3.4117,-0.3965,-0.0837,0.1124,-41.1000,38.4000,14.7000,9.1722,0.4357,-2.7845,-0.9020,0.0408,-0.0184,-55.3500,-10.9500,4.8000,1.4600,4.3600,-8.3800,-0.5781,-0.7799,0.3927,-17.3750,-23.3750,27.2500,255.6250,6.7500,-148.5625,0
1777067543.492,7.3358,5.4133,-3.4764,-0.3728,-0.0997,0.1082,-42.4500,38.2500,15.6000,8.9567,0.5435,-2.9042,-0.8215,0.0288,-0.0461,-54.4500,-10.3500,4.2000,0.6600,5.2500,-7.7500,-0.5683,-0.9163,0.3752,-17.3750,-23.3750,27.2500,256.0000,6.4375,-148.3125,0
1777067543.497,7.3358,5.4133,-3.4764,-0.3728,-0.0997,0.1082,-41.4000,37.8000,15.6000,8.9447,0.6967,-3.0574,-0.7530,0.0285,-0.0770,-54.4500,-10.3500,4.2000,0.6600,5.2500,-7.7500,-0.5683,-0.9163,0.3752,-17.3750,-23.3750,27.2500,256.0000,6.4375,-148.3125,0
1777067543.502,7.1299,5.7964,-3.6344,-0.3411,-0.0895,0.0973,-41.4000,37.8000,15.6000,8.9447,0.6967,-3.0574,-0.7530,0.0285,-0.0770,-54.4500,-10.3500,4.2000,0.6000,5.3700,-7.4700,-0.5672,-0.9523,0.3796,-17.3750,-24.8750,27.6875,256.3750,6.0625,-148.0625,0
1777067543.507,7.1299,5.7964,-3.6344,-0.3411,-0.0895,0.0973,-40.6500,37.0500,15.9000,9.1459,0.9744,-3.1244,-0.6787,0.0453,-0.0671,-55.3500,-11.2500,3.3000,0.6000,5.3700,-7.4700,-0.5672,-0.9523,0.3796,-17.3750,-24.8750,27.6875,256.3750,6.0625,-148.0625,0
1777067543.512,6.9456,6.1172,-3.6248,-0.2537,-0.1045,0.0901,-40.6500,37.0500,15.9000,9.1459,0.9744,-3.1244,-0.6787,0.0453,-0.0671,-55.3500,-11.2500,3.3000,1.0500,6.2800,-7.3500,-0.4952,-0.9152,0.3807,-17.3750,-24.8750,27.6875,256.7500,5.7500,-147.8125,0
1777067543.520,6.5745,6.1196,-3.6296,-0.2065,-0.1005,0.0871,-42.9000,37.9500,15.7500,9.1530,1.2091,-3.5817,-0.6217,0.0786,-0.0360,-56.1000,-10.5000,4.0500,0.6900,5.8400,-7.2200,-0.4745,-0.7898,0.3207,-17.3750,-24.8750,27.6875,257.0625,5.5000,-147.5625,0
1777067543.525,6.5745,6.1196,-3.6296,-0.2065,-0.1005,0.0871,-42.9000,37.9500,15.7500,9.1411,1.2450,-3.0957,-0.5129,0.0754,-0.0203,-56.1000,-10.5000,4.0500,0.6900,5.8400,-7.2200,-0.4745,-0.7898,0.3207,-17.3750,-24.8750,27.6875,257.3750,5.2500,-147.4375,0
1777067543.532,6.5888,5.6240,-3.8762,-0.1069,-0.0117,0.0648,-42.9000,37.9500,15.7500,9.1411,1.2450,-3.0957,-0.5129,0.0754,-0.0203,-55.3500,-9.3000,2.1000,0.9700,5.2500,-7.2100,-0.3949,-0.6709,0.3534,-17.3750,-24.8750,27.6875,257.6250,5.1250,-147.2500,0
1777067543.542,6.9839,5.4324,-3.6655,-0.1455,-0.0538,0.0389,-42.4500,37.5000,15.6000,8.9830,1.1013,-2.9113,-0.4072,0.0576,-0.0269,-55.8000,-10.0500,3.3000,0.0700,6.1200,-6.7500,-0.3589,-0.5749,0.3022,-17.3750,-24.8750,27.6875,257.6250,5.1250,-147.2500,0
1777067543.547,6.9839,5.4324,-3.6655,-0.1455,-0.0538,0.0389,-42.6000,39.4500,16.2000,8.9830,1.1013,-2.9113,-0.3456,0.0485,-0.0490,-55.8000,-10.0500,3.3000,0.0700,6.1200,-6.7500,-0.3589,-0.5749,0.3022,-17.0625,-24.0625,28.1875,258.0000,5.1875,-147.1250,0
1777067543.552,6.9623,5.4181,-3.5171,-0.1252,-0.0594,0.0360,-42.6000,39.4500,16.2000,9.1866,1.1277,-2.5546,-0.3456,0.0485,-0.0490,-55.8000,-10.0500,3.3000,-0.3400,5.1700,-7.2100,-0.2814,-0.1811,0.5520,-17.0625,-24.0625,28.1875,258.0000,5.1875,-147.1250,0
1777067543.557,6.9623,5.4181,-3.5171,-0.1252,-0.0594,0.0360,-42.3000,36.9000,15.0000,9.1866,1.1277,-2.5546,-0.2894,0.0560,-0.0504,-54.4500,-10.3500,3.4500,-0.3400,5.1700,-7.2100,-0.2814,-0.1811,0.5520,-17.0625,-24.0625,28.1875,258.2500,5.2500,-147.0000,0
1777067543.562,6.9647,5.6886,-3.2250,-0.1146,-0.0424,0.0245,-42.3000,36.9000,15.0000,9.4451,1.2857,-2.3679,-0.2894,0.0560,-0.0504,-54.4500,-10.3500,3.4500,-0.2800,6.3400,-7.0200,-0.2716,-0.1822,0.4549,-17.0625,-24.0625,28.1875,258.2500,5.2500,-147.0000,0
1777067543.567,6.9647,5.6886,-3.2250,-0.0797,0.0317,0.0035,-40.6500,37.5000,16.6500,9.4451,1.2857,-2.3679,-0.2321,0.0589,-0.0285,-54.4500,-10.3500,3.4500,-0.2800,6.3400,-7.0200,-0.3327,-0.3131,0.0949,-17.0625,-24.0625,28.1875,258.3750,5.1250,-146.8125,0
1777067543.573,7.0629,5.4827,-3.4069,-0.0797,0.0317,0.0035,-40.6500,37.5000,16.6500,9.4260,1.3623,-2.4588,-0.1791,0.0408,-0.0040,-54.4500,-10.3500,3.4500,1.2500,6.3000,-7.0200,-0.3327,-0.3131,0.0949,-17.0625,-24.0625,28.1875,258.4375,5.0000,-146.6875,0
1777067543.582,7.0078,5.8371,-3.1484,0.0743,0.0802,-0.0488,-40.6500,37.5000,16.6500,9.3877,1.2450,-2.7102,-0.0552,0.0442,0.0155,-55.2000,-9.9000,3.7500,0.4800,5.8700,-7.1100,-0.2062,-0.2651,0.0436,-17.0625,-24.0625,28.1875,258.5000,5.0000,-146.6250,0
1777067543.592,7.0413,5.3726,-3.2609,-0.0501,0.0818,-0.0642,-41.1000,37.2000,16.5000,9.4355,1.1803,-2.7246,0.0490,0.0562,0.0365,-55.0500,-10.9500,4.0500,1.0000,6.0000,-7.6100,-0.1396,-0.1004,0.0447,-17.0625,-24.0625,28.1875,258.5000,5.0000,-146.6250,0
1777067543.597,7.0342,5.8179,-3.2178,-0.0314,0.0866,-0.0645,-41.8500,37.9500,15.4500,9.4355,1.1803,-2.7246,0.0490,0.0562,0.0365,-55.5000,-10.3500,3.4500,1.0000,6.0000,-7.6100,-0.1396,-0.1004,0.0447,-17.0625,-24.0625,28.1875,258.5000,5.0000,-146.6250,0
1777067543.602,7.0342,5.8179,-3.2178,-0.0314,0.0866,-0.0645,-41.8500,37.9500,15.4500,9.1746,1.0439,-3.0622,0.1188,0.0845,0.0253,-55.5000,-10.3500,3.4500,1.0600,5.9500,-7.8700,-0.0600,-0.0600,-0.0022,-16.2500,-24.8750,27.2500,258.5000,4.9375,-146.6250,0
1777067543.607,6.9456,6.1435,-3.2106,-0.0024,0.1844,-0.0877,-42.3000,37.2000,16.5000,9.1746,1.0439,-3.0622,0.1188,0.0845,0.0253,-57.4500,-10.3500,3.4500,1.0600,5.9500,-7.8700,-0.0600,-0.0600,-0.0022,-16.2500,-24.8750,27.2500,258.5000,4.9375,-146.6250,0
1777067543.612,6.9456,6.1435,-3.2106,-0.0024,0.1844,-0.0877,-42.3000,37.2000,16.5000,9.3350,0.9888,-2.8299,0.1924,0.0855,0.0250,-57.4500,-10.6500,4.2000,1.4400,6.5500,-7.6300,-0.0033,-0.0545,-0.0284,-16.2500,-24.8750,27.2500,258.5000,4.9375,-146.6250,0
1777067543.621,7.3454,6.6080,-3.1412,0.0139,0.2694,-0.1471,-41.8500,37.2000,17.2500,9.4044,0.8308,-2.7869,0.2819,0.1047,0.0304,-57.4500,-10.6500,4.2000,1.3200,5.9200,-8.2300,0.0884,0.0654,0.0807,-16.2500,-24.8750,27.2500,258.5625,4.9375,-146.6250,0
1777067543.626,7.4699,5.9759,-3.5219,0.0949,0.2249,-0.1298,-41.8500,37.2000,17.2500,9.4044,0.8308,-2.7869,0.2819,0.1047,0.0304,-57.4500,-10.6500,4.2000,1.3200,5.9200,-8.2300,0.1614,-0.0229,-0.0240,-16.2500,-24.8750,27.2500,258.5000,4.9375,-146.7500,0
1777067543.633,7.4699,5.9759,-3.5219,0.0949,0.2249,-0.1298,-41.8500,37.2000,17.2500,9.4212,0.6273,-2.2913,0.3269,0.1031,0.0400,-55.2000,-9.9000,3.7500,0.2400,5.4300,-7.8200,0.1614,-0.0229,-0.0240,-16.2500,-24.8750,27.2500,258.4375,4.8750,-146.8750,0
1777067543.642,7.4555,4.9680,-3.5386,0.1391,0.1641,-0.1156,-41.7000,38.2500,14.8500,9.3589,0.2514,-2.2458,0.3675,0.0674,0.0344,-55.2000,-9.9000,3.7500,1.4500,5.9700,-7.8300,0.2258,-0.0142,-0.1451,-16.2500,-24.8750,27.2500,258.4375,4.8750,-146.8750,0
1777067543.647,7.3885,4.6256,-3.2058,0.2196,0.1929,-0.1090,-41.8500,38.4000,14.7000,9.3589,0.2514,-2.2458,0.3675,0.0674,0.0344,-54.1500,-10.0500,4.0500,1.4500,5.9700,-7.8300,0.2258,-0.0142,-0.1451,-17.0625,-24.5000,27.2500,258.3125,4.8125,-147.0625,0
1777067543.652,7.3885,4.6256,-3.2058,0.2196,0.1929,-0.1090,-41.8500,38.4000,14.7000,9.2057,-0.0790,-2.3727,0.4226,0.0373,0.0242,-54.1500,-10.0500,4.0500,0.4000,5.1800,-7.7300,0.3382,-0.0011,-0.1898,-17.0625,-24.5000,27.2500,258.3125,4.8125,-147.0625,0
1777067543.657,7.6375,4.6280,-3.3423,0.3062,0.2697,-0.1180,-42.3000,37.2000,15.7500,9.2057,-0.0790,-2.3727,0.4226,0.0373,0.0242,-54.1500,-10.0500,4.0500,0.4000,5.1800,-7.7300,0.3382,-0.0011,-0.1898,-17.0625,-24.5000,27.2500,258.1875,4.8125,-147.2500,0
1777067543.662,7.6375,4.6280,-3.3423,0.3062,0.2697,-0.1180,-42.3000,37.2000,15.7500,9.3925,-0.3687,-2.3559,0.4431,0.0346,0.0203,-56.1000,-10.5000,3.6000,-0.0900,5.7800,-7.3100,0.3982,0.0742,-0.1669,-17.0625,-24.5000,27.2500,258.1875,4.8125,-147.2500,0
1777067543.667,7.4101,4.7333,-4.0270,0.3698,0.2076,-0.1434,-42.7500,37.0500,15.6000,9.3925,-0.3687,-2.3559,0.4431,0.0346,0.0203,-56.1000,-10.5000,3.6000,-0.0900,5.7800,-7.3100,0.4483,0.1876,-0.1025,-17.0625,-24.5000,27.2500,258.1250,4.8750,-147.5000,0
1777067543.673,7.4101,4.7333,-4.0270,0.2545,0.2121,-0.1021,-42.7500,37.0500,15.6000,9.6223,-0.6225,-2.1452,0.4562,0.0304,0.0189,-55.8000,-9.0000,2.5500,1.5200,5.2700,-8.1000,0.4483,0.1876,-0.1025,-17.0625,-24.5000,27.2500,258.0000,4.9375,-147.7500,0
1777067543.682,7.6088,3.9552,-3.9265,0.2545,0.2121,-0.1021,-42.7500,37.0500,15.6000,9.4834,-0.8021,-2.4014,0.4050,0.0242,0.0205,-55.8000,-10.5000,4.8000,0.7700,5.0900,-8.0900,0.4821,0.1745,-0.0993,-17.0625,-24.5000,27.2500,257.8750,5.0000,-148.0000,0
1777067543.692,8.0254,4.2784,-3.3974,0.2268,0.2694,-0.1199,-42.7500,37.0500,15.6000,9.5313,-0.9912,-2.3655,0.3917,0.0107,0.0128,-55.8000,-10.5000,4.8000,1.4700,4.8300,-8.3100,0.4309,0.2051,-0.1298,-17.0625,-24.5000,27.2500,257.8750,5.0000,-148.0000,0
1777067543.697,7.7668,3.8642,-4.0199,0.1532,0.2558,-0.1292,-41.7000,35.5500,15.6000,9.4116,-1.3527,-2.2649,0.3834,-0.0197,-0.0088,-55.8000,-10.5000,4.8000,1.4700,4.8300,-8.3100,0.4309,0.2051,-0.1298,-16.6875,-24.5000,28.1875,257.8125,5.0625,-148.2500,0
1777067543.702,8.0637,4.2784,-3.7972,0.1255,0.2587,-0.1188,-42.4500,37.0500,15.6000,9.4116,-1.3527,-2.2649,0.3834,-0.0197,-0.0088,-54.7500,-10.3500,3.7500,1.1600,4.2300,-8.3600,0.4505,0.2029,-0.0840,-16.6875,-24.5000,28.1875,257.8125,5.0625,-148.2500,0
1777067543.707,8.0637,4.2784,-3.7972,0.1255,0.2587,-0.1188,-42.4500,37.0500,16.6500,9.1794,-1.6305,-2.7390,0.3288,-0.0493,-0.0264,-54.7500,-10.3500,3.7500,1.1600,4.2300,-8.3600,0.4505,0.2029,-0.0840,-16.6875,-24.5000,28.1875,257.7500,5.0625,-148.4375,0
1777067543.712,7.9152,4.3120,-3.9169,0.0978,0.1977,-0.1316,-40.6500,36.3000,15.6000,9.1794,-1.6305,-2.7390,0.3288,-0.0493,-0.0264,-54.7500,-10.3500,3.7500,0.0500,4.0700,-8.4000,0.4287,0.0829,-0.0676,-16.6875,-24.5000,28.1875,257.7500,5.0625,-148.4375,0
1777067543.722,8.0948,5.4684,-3.5482,0.0408,0.2065,-0.1005,-43.2000,36.3000,16.3500,9.2177,-1.5251,-3.2777,0.2286,-0.0368,-0.0226,-56.8500,-9.3000,5.1000,1.7800,4.0700,-8.7300,0.3894,0.0480,-0.0273,-16.6875,-24.5000,28.1875,257.6875,5.1250,-148.6875,0
1777067543.732,7.3885,5.7365,-4.2377,0.1463,0.2110,-0.0967,-43.2000,36.3000,16.3500,9.5050,-1.3527,-3.2322,0.1527,-0.0386,-0.0184,-56.2500,-9.4500,3.0000,1.0100,3.7200,-8.5300,0.4189,0.1527,0.1036,-16.6875,-24.5000,28.1875,257.7500,5.1875,-148.8750,0
1777067543.738,7.3885,5.7365,-4.2377,0.1463,0.2110,-0.0967,-43.2000,36.3000,16.3500,9.3158,-1.2977,-3.3351,0.0746,0.0013,-0.0205,-55.3500,-7.3500,3.3000,0.4700,4.1700,-8.6600,0.3643,0.1342,0.1396,-16.6875,-24.5000,28.1875,257.8125,5.3125,-149.1250,0
1777067543.743,7.8338,4.8435,-4.6208,0.1215,0.1585,-0.0749,-42.0000,34.5000,16.3500,9.3158,-1.2977,-3.3351,0.0746,0.0013,-0.0205,-55.3500,-7.3500,3.3000,0.4700,4.1700,-8.6600,0.3643,0.1342,0.1396,-16.6875,-24.5000,28.1875,257.8125,5.3125,-149.1250,0
1777067543.748,7.8338,4.8435,-4.6208,0.1215,0.1585,-0.0749,-42.0000,34.5000,16.3500,9.3374,-1.0798,-2.9760,0.0557,0.0165,-0.0261,-57.0000,-7.3500,3.3000,1.1700,4.2000,-8.6200,0.2640,0.0971,0.0949,-17.3750,-24.8750,28.1875,257.8125,5.3750,-149.2500,0
1777067543.753,7.8147,4.9033,-3.8810,0.0927,0.1132,-0.0762,-41.7000,35.5500,16.6500,9.3374,-1.0798,-2.9760,0.0557,0.0165,-0.0261,-57.0000,-7.5000,2.7000,1.1700,4.2000,-8.6200,0.2640,0.0971,0.0949,-17.3750,-24.8750,28.1875,257.8125,5.3750,-149.2500,0
1777067543.758,7.8147,4.9033,-3.8810,0.0927,0.1132,-0.0762,-41.7000,35.5500,16.6500,9.3015,-0.8260,-2.9449,0.0322,0.0059,-0.0405,-57.0000,-7.5000,2.7000,1.1700,4.2000,-8.6200,0.1713,0.0382,0.0251,-17.3750,-24.8750,28.1875,257.8125,5.3750,-149.3750,0
1777067543.763,7.7405,4.9273,-3.3926,0.1271,0.0272,-0.0914,-41.5500,34.9500,14.7000,9.3015,-0.8260,-2.9449,0.0322,0.0059,-0.0405,-57.0000,-7.5000,2.7000,0.9100,4.6300,-8.3000,0.1713,0.0382,0.0251,-17.3750,-24.8750,28.1875,257.8125,5.3750,-149.3750,0
1777067543.770,7.7405,4.9273,-3.3926,0.1271,0.0272,-0.0914,-41.5500,34.9500,14.7000,9.4834,-0.7542,-2.7940,-0.0163,-0.0176,-0.0565,-55.5000,-10.3500,4.2000,0.8300,4.5700,-8.4000,0.1091,0.0262,-0.0131,-17.3750,-24.8750,28.1875,257.8125,5.4375,-149.4375,0
1777067543.774,7.6160,4.6400,-3.5721,0.0690,-0.0005,-0.0818,-41.8500,35.7000,16.5000,9.3518,-0.5986,-2.4900,-0.0557,-0.0120,-0.0682,-55.5000,-10.3500,4.2000,0.8300,4.5700,-8.4000,0.1091,0.0262,-0.0131,-17.3750,-24.8750,28.1875,257.7500,5.4375,-149.4375,0
1777067543.783,7.6112,4.3287,-3.5171,0.0176,-0.0285,-0.0773,-41.8500,35.7000,16.5000,9.5193,-0.4980,-2.2841,-0.0557,-0.0120,-0.0682,-55.5000,-10.3500,4.2000,0.3500,4.3600,-8.2100,0.0665,0.0240,-0.0404,-17.3750,-24.8750,28.1875,257.7500,5.4375,-149.5000,0
1777067543.792,7.6016,4.5131,-3.3543,0.0304,-0.0368,-0.0759,-42.7500,35.5500,15.3000,9.7803,-0.4022,-1.9680,-0.0450,-0.0232,-0.0799,-53.8500,-8.5500,3.3000,0.7900,4.2800,-8.7500,0.0502,0.0033,-0.0120,-17.3750,-24.8750,28.1875,257.7500,5.4375,-149.5000,0
1777067543.797,7.6016,4.5131,-3.3543,0.0304,-0.0368,-0.0759,-42.7500,35.5500,15.3000,9.7803,-0.4022,-1.9680,-0.0200,-0.0144,-0.0749,-53.8500,-8.5500,3.3000,0.7900,4.2800,-8.7500,0.0502,0.0033,-0.0120,-17.7500,-24.5000,27.1875,257.7500,5.3750,-149.5000,0
1777067543.803,7.8937,4.9752,-3.5961,0.0557,0.0269,-0.0818,-41.5500,36.4500,16.5000,9.8761,-0.5076,-1.9201,-0.0226,0.0072,-0.0517,-56.5500,-9.7500,4.0500,1.3800,4.7100,-9.1600,0.0109,0.0142,-0.0709,-17.7500,-24.5000,27.1875,257.7500,5.3750,-149.5000,0
1777067543.807,7.8937,4.9752,-3.5961,0.0557,0.0269,-0.0818,-41.5500,36.4500,16.5000,9.8761,-0.5076,-1.9201,-0.0226,0.0072,-0.0517,-56.5500,-9.7500,4.0500,1.3800,4.7100,-9.1600,0.0109,0.0142,-0.0709,-17.7500,-24.5000,27.1875,257.6250,5.3750,-149.5000,0
1777067543.812,8.1331,5.0661,-3.3710,0.0280,0.0637,-0.0597,-43.2000,37.0500,15.6000,9.7731,-0.4860,-2.0518,-0.0344,-0.0040,-0.0448,-54.7500,-8.7000,3.7500,2.3200,4.8800,-9.0500,0.0556,0.0284,-0.1167,-17.7500,-24.5000,27.1875,257.6250,5.3750,-149.5000,0
1777067543.821,8.1594,5.1260,-3.4692,0.0490,0.0501,-0.0458,-42.4500,36.3000,15.3000,9.4068,-0.4621,-2.3559,-0.0344,-0.0040,-0.0448,-57.0000,-9.1500,3.4500,1.6400,5.6100,-8.8100,0.0971,-0.0262,-0.1004,-17.7500,-24.5000,27.1875,257.6250,5.3125,-149.5625,0
1777067543.826,8.1594,5.1260,-3.4692,0.0490,0.0501,-0.0458,-42.4500,36.3000,15.3000,9.4068,-0.4621,-2.3559,-0.0512,-0.0269,-0.0376,-57.0000,-9.1500,3.4500,1.6400,5.6100,-8.8100,0.0971,-0.0262,-0.1004,-17.7500,-24.5000,27.1875,257.5625,5.2500,-149.6250,0
1777067543.833,7.8985,4.9680,-3.3112,0.0250,0.0653,-0.0466,-42.4500,36.3000,15.3000,9.1794,-0.3567,-2.7414,-0.0671,-0.0594,-0.0498,-55.5000,-9.1500,3.4500,-0.1000,6.6800,-9.2100,0.1582,-0.1702,-0.0982,-17.7500,-24.5000,27.1875,257.5000,5.1250,-149.8750,0
1777067543.843,7.5417,5.0805,-3.1963,0.0048,0.0749,-0.0453,-43.2000,36.7500,14.5500,9.2225,-0.2777,-2.7916,-0.0826,-0.0602,-0.0584,-55.9500,-9.1500,3.4500,2.0200,4.5300,-7.2300,0.4516,-0.2105,-0.1080,-17.7500,-24.5000,27.1875,257.5000,5.1250,-149.8750,0
1777067543.847,7.5417,5.0805,-3.1963,0.0266,0.0437,-0.0360,-43.2000,36.7500,14.5500,9.2225,-0.2777,-2.7916,-0.0826,-0.0602,-0.0584,-55.9500,-9.1500,3.4500,2.0200,4.5300,-7.2300,0.4516,-0.2105,-0.1080,-17.7500,-24.5000,27.1875,257.5000,5.1250,-149.8750,0
1777067543.853,7.3095,5.2816,-3.1963,0.0266,0.0437,-0.0360,-42.6000,36.1500,16.2000,9.3829,-0.1628,-2.7605,-0.0786,-0.0485,-0.0520,-55.9500,-9.1500,3.4500,0.2200,5.1200,-7.8600,0.4832,-0.4080,-0.1407,-17.3750,-24.5000,28.0625,257.5000,4.8750,-150.1875,0
1777067543.858,7.1754,5.3271,-3.6727,0.0701,0.0341,-0.0480,-42.6000,36.1500,16.2000,9.3829,-0.1628,-2.7605,-0.0786,-0.0485,-0.0520,-55.9500,-9.1500,3.4500,0.2200,5.1200,-7.8600,0.4832,-0.4080,-0.1407,-17.3750,-24.5000,28.0625,257.5000,4.8750,-150.1875,0
1777067543.863,7.1754,5.3271,-3.6727,0.0701,0.0341,-0.0480,-42.7500,36.0000,15.6000,9.4595,-0.1221,-2.5259,-0.0549,-0.0418,-0.0501,-56.2500,-8.7000,3.7500,0.9400,3.5600,-8.6500,0.5672,-0.4996,-0.1844,-17.3750,-24.5000,28.0625,257.4375,4.5625,-150.5000,0
1777067543.869,7.4699,4.9823,-3.5769,0.1061,0.0466,-0.0751,-42.7500,36.0000,15.6000,9.3829,-0.1317,-2.5881,-0.0549,-0.0418,-0.0501,-56.2500,-8.7000,3.7500,1.1100,3.2800,-8.6400,0.6087,-0.4167,-0.1647,-17.3750,-24.5000,28.0625,257.4375,4.3125,-150.8125,0
1777067543.874,7.4699,4.9823,-3.5769,0.1061,0.0466,-0.0751,-42.7500,37.0500,15.3000,9.3829,-0.1317,-2.5881,-0.0528,-0.0386,-0.0474,-55.5000,-8.4000,4.2000,1.1100,3.2800,-8.6400,0.6087,-0.4167,-0.1647,-17.3750,-24.5000,28.0625,257.3750,4.0625,-151.1250,0
1777067543.883,7.7907,4.9680,-3.5219,0.0757,0.0384,-0.0845,-42.7500,36.0000,14.2500,9.3781,-0.1748,-2.5115,-0.0616,-0.0501,-0.0520,-54.4500,-7.9500,1.9500,0.2200,3.0300,-7.8500,0.5149,-0.4832,-0.1156,-17.3750,-24.5000,28.0625,257.3750,3.8750,-151.2500,0
1777067543.893,7.7907,4.8147,-3.4309,-0.0136,-0.0338,-0.0845,-42.7500,36.0000,14.2500,9.3733,-0.1700,-2.6576,-0.0903,-0.0573,-0.0520,-54.4500,-9.4500,3.0000,0.9300,4.3400,-8.4000,0.2945,-0.2825,-0.0753,-17.3750,-24.5000,28.0625,257.3750,3.8750,-151.2500,0
1777067543.898,7.6638,4.9775,-3.2681,-0.0091,-0.0727,-0.0887,-42.7500,36.0000,14.2500,9.3589,-0.0694,-2.8108,-0.0903,-0.0573,-0.0520,-54.4500,-9.4500,3.0000,0.9300,4.3400,-8.4000,0.2945,-0.2825,-0.0753,-16.6875,-23.7500,28.8750,257.3750,3.8750,-151.3125,0
1777067543.903,7.6638,4.9775,-3.2681,-0.0091,-0.0727,-0.0887,-42.9000,37.6500,15.0000,9.3589,-0.0694,-2.8108,-0.0829,-0.0586,-0.0541,-55.3500,-9.0000,4.3500,1.2200,4.5200,-8.6900,0.0284,-0.0305,-0.0338,-16.6875,-23.7500,28.8750,257.3750,3.8750,-151.3125,0
1777067543.908,7.4460,5.2241,-3.6631,0.0061,-0.0711,-0.0959,-42.9000,37.6500,15.0000,9.4044,0.0263,-2.6312,-0.0829,-0.0586,-0.0541,-55.3500,-9.0000,4.3500,1.2200,4.5200,-8.6900,0.0284,-0.0305,-0.0338,-16.6875,-23.7500,28.8750,257.3750,3.8125,-151.3125,0
1777067543.913,7.4460,5.2241,-3.6631,0.0061,-0.0711,-0.0959,-42.9000,36.4500,16.5000,9.4044,0.0263,-2.6312,-0.0645,-0.0610,-0.0576,-55.3500,-9.3000,3.3000,0.3600,4.5800,-8.1100,0.0415,-0.1222,-0.0284,-16.6875,-23.7500,28.8750,257.3750,3.7500,-151.3125,0
1777067543.922,7.2329,5.4516,-3.6248,0.0738,-0.0469,-0.0853,-42.4500,37.8000,15.9000,9.3134,0.0335,-2.8060,-0.0530,-0.0517,-0.0581,-55.3500,-9.3000,3.3000,0.5100,4.5000,-8.4200,0.0076,-0.1145,-0.0742,-16.6875,-23.7500,28.8750,257.3125,3.6875,-151.3125,0
1777067543.932,7.2089,5.5665,-3.6655,0.1279,0.0019,-0.0666,-41.7000,35.2500,15.3000,9.5074,0.0192,-2.6169,-0.0360,-0.0376,-0.0450,-55.9500,-7.9500,3.7500,0.3700,3.9000,-8.4800,-0.0491,0.0098,-0.0993,-16.6875,-23.7500,28.8750,257.3125,3.6875,-151.3125,0
1777067543.942,7.3047,5.6216,-3.6895,0.1370,0.0285,-0.0618,-41.7000,35.2500,15.3000,9.5289,-0.0766,-2.4900,-0.0149,-0.0432,-0.0317,-56.2500,-8.7000,4.9500,1.0200,4.2100,-8.7600,-0.1167,0.1636,-0.1396,-16.6875,-23.7500,28.8750,257.1875,3.7500,-151.1875,0
1777067543.947,7.4795,5.3271,-3.6679,0.0885,0.0626,-0.0661,-41.7000,35.2500,15.3000,9.2775,0.0407,-2.7198,-0.0043,-0.0554,-0.0301,-56.2500,-8.7000,4.9500,1.0200,4.2100,-8.7600,-0.1167,0.1636,-0.1396,-16.6875,-23.7500,28.8750,257.0625,3.8125,-151.1250,0
1777067543.953,7.4795,5.3271,-3.6679,0.0885,0.0626,-0.0661,-41.8500,38.4000,16.2000,9.2775,0.0407,-2.7198,-0.0043,-0.0554,-0.0301,-56.7000,-9.1500,4.2000,0.9100,4.6100,-8.3300,-0.1865,0.2127,-0.1844,-16.2500,-23.3750,28.3750,257.0625,3.8125,-151.1250,0
1777067543.957,7.5369,5.3750,-3.7804,0.1108,0.0629,-0.0717,-41.8500,38.4000,16.2000,9.2201,0.1748,-2.9257,0.0016,-0.0440,-0.0266,-56.7000,-9.1500,4.2000,0.9100,4.6100,-8.3300,-0.1865,0.2127,-0.1844,-16.2500,-23.3750,28.3750,256.9375,3.8125,-151.0000,0
1777067543.963,7.5369,5.3750,-3.7804,0.1108,0.0629,-0.0717,-41.7000,38.2500,15.6000,9.2201,0.1748,-2.9257,0.0016,-0.0440,-0.0266,-54.6000,-8.5500,2.8500,1.1700,5.3000,-8.2800,-0.2029,0.1996,-0.2247,-16.2500,-23.3750,28.3750,256.9375,3.8125,-151.0000,0
1777067543.967,7.3957,5.3606,-3.8307,0.0885,0.0466,-0.0754,-41.7000,38.2500,15.6000,9.3111,0.3352,-2.9137,0.0354,-0.0538,-0.0245,-54.6000,-8.5500,2.8500,1.1700,5.3000,-8.2800,-0.1953,0.2203,-0.2803,-16.2500,-23.3750,28.3750,256.7500,3.8750,-150.8750,0
1777067543.973,7.1515,5.2816,-3.6799,0.1079,0.0493,-0.0727,-42.9000,36.4500,15.4500,9.3111,0.3352,-2.9137,0.0354,-0.0538,-0.0245,-55.3500,-9.0000,3.6000,1.0700,5.1000,-8.4000,-0.1953,0.2203,-0.2803,-16.2500,-23.3750,28.3750,256.5625,3.8750,-150.8125,0
1777067543.983,7.1515,5.2816,-3.6799,0.0895,0.0328,-0.0909,-41.7000,37.8000,15.9000,9.1315,0.2370,-3.2441,0.0735,-0.0474,-0.0269,-55.0500,-9.7500,3.3000,0.1200,4.4300,-8.2800,-0.0916,0.1614,-0.3054,-16.2500,-23.3750,28.3750,256.5625,3.8750,-150.8125,0
1777067543.993,7.0150,5.1212,-3.4596,0.0909,0.0352,-0.1005,-41.7000,37.8000,15.9000,9.2392,0.0982,-3.1508,0.1047,-0.0333,-0.0245,-55.0500,-9.7500,3.3000,0.5900,4.5300,-8.5400,-0.0382,0.2411,-0.2847,-16.2500,-23.3750,28.3750,256.3750,3.8750,-150.7500,0
1777067543.997,7.0653,5.0757,-3.7613,0.0909,0.0352,-0.1005,-41.7000,37.8000,15.9000,9.3877,-0.2346,-2.6863,0.1092,-0.0445,-0.0280,-55.0500,-9.7500,3.3000,0.5900,4.5300,-8.5400,-0.0382,0.2411,-0.2847,-16.2500,-23.3750,28.3750,256.3750,3.8750,-150.7500,0
1777067544.003,7.2616,5.0733,-4.0007,0.0754,0.0621,-0.1135,-41.4000,36.3000,15.6000,9.3877,-0.2346,-2.6863,0.1092,-0.0445,-0.0280,-55.8000,-8.1000,3.6000,0.8700,4.6900,-8.5900,-0.0382,0.2836,-0.2193,-16.6875,-23.7500,28.0625,256.1875,4.0000,-150.7500,0
1777067544.007,7.2616,5.0733,-4.0007,0.0754,0.0621,-0.1135,-41.4000,36.3000,15.6000,9.3111,-0.5650,-2.6169,0.0935,-0.0514,-0.0317,-55.8000,-8.1000,3.6000,0.8700,4.6900,-8.5900,-0.0382,0.2836,-0.2193,-16.6875,-23.7500,28.0625,256.1875,4.0000,-150.7500,0
1777067544.013,7.5657,5.1020,-3.9504,0.0336,0.0330,-0.1053,-42.7500,37.8000,13.0500,9.3111,-0.5650,-2.6169,0.0935,-0.0514,-0.0317,-54.6000,-7.8000,3.3000,0.7600,4.3000,-8.7100,-0.0087,0.2225,-0.1527,-16.6875,-23.7500,28.0625,256.0625,4.0625,-150.6875,0
1777067544.021,7.5657,5.1020,-3.9504,0.0336,0.0330,-0.1053,-41.7000,36.3000,14.5500,9.2943,-0.4645,-2.8036,0.0344,-0.0456,-0.0338,-54.6000,-7.8000,3.3000,0.8300,5.8400,-6.5100,0.0262,0.1331,-0.0982,-16.6875,-23.7500,28.0625,256.0000,4.0625,-150.7500,0
1777067544.025,7.7069,5.0733,-3.9409,0.0482,0.0181,-0.0885,-41.7000,36.3000,14.5500,9.4882,-0.2011,-2.9185,0.0021,-0.0538,-0.0336,-53.8500,-7.8000,3.3000,0.8300,5.8400,-6.5100,0.0262,0.1331,-0.0982,-16.6875,-23.7500,28.0625,255.8750,4.1875,-151.0000,0
1777067544.033,7.5633,5.0733,-3.9217,0.0632,0.0128,-0.0837,-41.1000,38.4000,14.7000,9.3733,0.1389,-3.1508,0.0024,-0.0408,-0.0384,-56.2500,-8.4000,3.4500,1.5900,5.6600,-7.4400,0.4832,0.2618,-0.0982,-16.6875,-23.7500,28.0625,255.6875,4.3125,-151.6875,0
1777067544.043,7.5178,5.1068,-3.9169,0.1013,0.0021,-0.0898,-42.6000,37.2000,15.7500,9.2680,0.1317,-3.1508,0.0552,-0.0256,-0.0400,-56.1000,-9.7500,1.8000,2.1100,5.7700,-8.3300,1.3461,0.3272,-0.2389,-16.6875,-23.7500,28.0625,255.6875,4.3125,-151.6875,0
1777067544.048,7.5178,5.1068,-3.9169,0.1013,0.0021,-0.0898,-42.6000,37.2000,15.7500,9.2680,0.1317,-3.1508,0.0552,-0.0256,-0.0400,-56.1000,-9.7500,1.8000,2.1100,5.7700,-8.3300,1.3461,0.3272,-0.2389,-16.0000,-24.0625,28.0625,255.3750,4.2500,-152.5000,0
1777067544.053,7.2927,5.1356,-3.7182,0.1074,-0.0077,-0.0981,-42.6000,37.2000,15.7500,9.2201,-0.1867,-2.9784,0.1223,-0.0333,-0.0445,-55.2000,-9.4500,1.9500,0.9600,4.6100,-8.7000,1.4508,0.1745,-0.4691,-16.0000,-24.0625,28.0625,255.3750,4.2500,-152.5000,0
1777067544.058,7.2927,5.1356,-3.7182,0.1074,-0.0077,-0.0981,-40.9500,37.8000,14.5500,9.2201,-0.1867,-2.9784,0.1223,-0.0333,-0.0445,-55.2000,-9.4500,1.9500,0.9600,4.6100,-8.7000,1.4508,0.1745,-0.4691,-16.0000,-24.0625,28.0625,255.1250,4.0625,-153.0000,0
1777067544.063,7.1060,5.2888,-3.7038,0.0847,0.0157,-0.1037,-40.9500,37.8000,14.5500,9.1147,-0.5770,-3.0813,0.1180,-0.0314,-0.0448,-55.2000,-9.4500,1.9500,0.1500,3.5000,-9.0700,0.9119,-0.1734,-0.4603,-16.0000,-24.0625,28.0625,255.1250,4.0625,-153.0000,0
1777067544.068,7.1060,5.2888,-3.7038,0.0847,0.0157,-0.1037,-42.9000,37.2000,14.7000,9.1147,-0.5770,-3.0813,0.1180,-0.0314,-0.0448,-55.2000,-9.4500,1.9500,0.1500,3.5000,-9.0700,0.3905,-0.3382,-0.4080,-16.0000,-24.0625,28.0625,254.9375,3.7500,-153.1875,0
1777067544.074,7.0892,5.3822,-3.8834,0.0645,0.0123,-0.1242,-42.9000,37.2000,14.7000,9.2943,-0.7470,-3.1651,0.0474,-0.0197,-0.0330,-54.7500,-7.9500,3.0000,0.1800,3.2200,-9.2500,0.3905,-0.3382,-0.4080,-16.0000,-24.0625,28.0625,254.8750,3.5000,-153.2500,0
1777067544.083,7.2089,5.3463,-3.8954,0.1127,-0.0003,-0.1255,-41.8500,37.6500,15.0000,9.4475,-0.6823,-3.0311,-0.0117,-0.0245,-0.0277,-55.3500,-9.7500,4.3500,0.6900,3.4000,-9.2900,0.0905,-0.4102,-0.2400,-16.0000,-24.0625,28.0625,254.8750,3.3125,-153.1875,0
1777067544.093,7.4268,5.1978,-4.1899,0.1399,-0.0232,-0.1010,-43.5000,37.5000,16.6500,9.3350,-0.4980,-2.7964,-0.0490,-0.0229,-0.0365,-56.2500,-9.4500,2.4000,1.0700,3.6200,-9.0400,-0.1189,-0.3720,-0.0982,-16.0000,-24.0625,28.0625,254.8750,3.3125,-153.1875,0
1777067544.098,7.4268,5.1978,-4.1899,0.1399,-0.0232,-0.1010,-43.5000,37.5000,16.6500,9.3350,-0.4980,-2.7964,-0.0490,-0.0229,-0.0365,-56.2500,-9.4500,2.4000,1.0700,3.6200,-9.0400,-0.1189,-0.3720,-0.0982,-16.0000,-24.0625,28.0625,254.8750,3.3125,-153.1875,0
1777067544.103,7.5753,5.2002,-4.1731,0.1633,-0.0325,-0.0765,-43.5000,37.5000,16.6500,9.3326,-0.2729,-2.6767,-0.0474,-0.0304,-0.0488,-55.5000,-8.4000,2.4000,1.0700,4.1900,-8.9900,-0.3742,-0.3752,-0.0011,-17.3750,-23.7500,29.5625,254.8750,3.1250,-153.0000,0
1777067544.108,7.5753,5.2002,-4.1731,0.1633,-0.0325,-0.0765,-42.4500,38.2500,13.0500,9.3326,-0.2729,-2.6767,-0.0474,-0.0304,-0.0488,-55.5000,-8.4000,2.4000,1.0700,4.1900,-8.9900,-0.3742,-0.3752,-0.0011,-17.3750,-23.7500,29.5625,254.8750,3.1250,-153.0000,0
1777067544.113,7.4436,5.1882,-4.0438,0.1599,-0.0320,-0.0485,-42.4500,38.2500,13.0500,9.4092,-0.2370,-2.7749,-0.0565,-0.0099,-0.0488,-56.1000,-9.0000,2.8500,0.6900,4.6600,-8.9500,-0.5214,-0.4232,0.0556,-17.3750,-23.7500,29.5625,255.0000,2.9375,-152.6875,0
1777067544.120,7.4531,5.2026,-4.0103,0.0994,-0.0234,-0.0290,-42.4500,38.5500,14.5500,9.4571,-0.2035,-2.6935,-0.0749,0.0091,-0.0333,-56.1000,-9.0000,2.8500,0.3700,4.4100,-8.8800,-0.4909,-0.4963,0.0011,-17.3750,-23.7500,29.5625,255.0625,2.6875,-152.4375,0
1777067544.125,7.4531,5.2026,-4.0103,0.0994,-0.0234,-0.0290,-42.4500,38.5500,14.5500,9.4571,-0.2035,-2.6935,-0.0749,0.0091,-0.0333,-56.2500,-7.9500,2.4000,0.3700,4.4100,-8.8800,-0.4909,-0.4963,0.0011,-17.3750,-23.7500,29.5625,255.1250,2.4375,-152.2500,0
1777067544.133,7.4508,5.2816,-3.7110,0.0770,-0.0128,-0.0594,-42.9000,37.6500,15.0000,9.3757,-0.2777,-3.0957,-0.0922,0.0085,-0.0242,-56.2500,-7.9500,2.4000,0.3800,4.2400,-9.0100,-0.3829,-0.4854,-0.0611,-17.3750,-23.7500,29.5625,255.1250,2.1875,-152.0625,0
1777067544.143,7.4412,5.1691,-3.9744,0.0722,-0.0282,-0.0645,-42.6000,38.4000,15.7500,9.2177,-0.4573,-3.0742,-0.1061,-0.0056,-0.0176,-55.3500,-8.5500,4.3500,0.1200,4.0300,-9.0200,-0.2683,-0.3851,-0.0665,-17.3750,-23.7500,29.5625,255.1250,2.1875,-152.0625,0
1777067544.148,7.3095,5.2936,-4.1659,0.0384,-0.0560,-0.0663,-42.6000,38.4000,15.7500,9.4547,-0.6512,-3.1364,-0.1061,-0.0056,-0.0176,-55.3500,-8.5500,4.3500,0.1200,4.0300,-9.0200,-0.2683,-0.3851,-0.0665,-16.0000,-23.0000,30.0000,255.1250,2.1250,-152.0000,0
1777067544.153,7.3095,5.2936,-4.1659,0.0384,-0.0560,-0.0663,-42.6000,38.4000,15.7500,9.4547,-0.6512,-3.1364,-0.1178,-0.0181,-0.0171,-55.9500,-7.9500,3.0000,0.5600,3.7800,-9.7400,-0.1887,-0.1734,-0.0262,-16.0000,-23.0000,30.0000,255.1250,2.1250,-152.0000,0
1777067544.158,7.4891,5.2026,-4.0199,-0.0037,-0.0456,-0.0890,-43.5000,38.2500,14.5500,9.3422,-1.0008,-3.2226,-0.1178,-0.0181,-0.0171,-55.9500,-7.9500,3.0000,0.5600,3.7800,-9.7400,-0.1887,-0.1734,-0.0262,-16.0000,-23.0000,30.0000,255.1250,2.1250,-151.7500,0
1777067544.163,7.4891,5.2026,-4.0199,-0.0037,-0.0456,-0.0890,-43.5000,38.2500,14.5500,9.3422,-1.0008,-3.2226,-0.1380,-0.0370,-0.0330,-56.1000,-8.1000,2.1000,1.0100,4.0400,-9.6100,-0.4178,0.0120,-0.0262,-16.0000,-23.0000,30.0000,255.1250,2.1250,-151.7500,0
1777067544.168,7.4579,5.1451,-4.1228,0.0421,-0.0791,-0.0978,-43.6500,37.6500,14.4000,9.3158,-1.2833,-3.0837,-0.1753,-0.0197,-0.0344,-56.1000,-8.1000,2.1000,1.0100,4.0400,-9.6100,-0.9130,0.0753,0.0262,-16.0000,-23.0000,30.0000,255.1250,2.1875,-151.2500,0
1777067544.174,7.4579,5.1451,-4.1228,0.0421,-0.0791,-0.0978,-43.6500,37.6500,14.4000,9.3158,-1.2833,-3.0837,-0.1753,-0.0197,-0.0344,-55.5000,-7.9500,3.7500,1.4700,4.4500,-9.2200,-0.9130,0.0753,0.0262,-16.0000,-23.0000,30.0000,255.2500,2.1875,-150.3750,0
1777067544.183,7.4651,4.9632,-4.4580,0.0290,-0.0914,-0.0863,-41.7000,37.0500,14.2500,9.5337,-1.1229,-2.6384,-0.2374,-0.0096,-0.0197,-56.1000,-8.1000,4.0500,-1.0500,4.6600,-8.8900,-1.5446,0.0164,0.1505,-16.0000,-23.0000,30.0000,255.2500,2.1875,-150.3750,0
1777067544.193,7.9009,4.5490,-4.4101,0.0778,-0.0533,-0.0584,-42.0000,38.2500,13.8000,9.3901,-0.4764,-2.5881,-0.3152,-0.0107,-0.0250,-56.1000,-8.1000,4.0500,-0.5400,5.8300,-7.6000,-1.4835,-0.0065,0.2182,-16.0000,-23.0000,30.0000,255.3750,2.2500,-149.5625,0
1777067544.198,8.2552,4.6400,-4.3359,0.0698,-0.0850,-0.0386,-42.0000,38.2500,13.8000,8.9471,0.0072,-2.5714,-0.3112,0.0176,-0.0581,-55.9500,-7.5000,4.2000,-0.5400,5.8300,-7.6000,-1.4835,-0.0065,0.2182,-16.0000,-23.0000,30.0000,255.3750,2.2500,-149.5625,0
1777067544.203,8.2552,4.6400,-4.3359,0.0698,-0.0850,-0.0386,-42.0000,38.2500,13.8000,8.9471,0.0072,-2.5714,-0.3112,0.0176,-0.0581,-55.9500,-7.5000,4.2000,-1.8600,5.8700,-7.6400,-0.1516,0.3774,0.0873,-15.5625,-24.5000,28.7500,255.3750,2.5000,-149.5000,0
1777067544.207,7.9440,5.0566,-4.0462,0.0258,-0.1279,-0.0314,-42.0000,38.2500,13.8000,9.2344,0.5148,-2.6576,-0.2337,0.0093,-0.0807,-55.9500,-7.5000,4.2000,-1.8600,5.8700,-7.6400,-0.1516,0.3774,0.0873,-15.5625,-24.5000,28.7500,255.3750,2.5000,-149.5000,0
1777067544.212,7.9440,5.0566,-4.0462,0.0258,-0.1279,-0.0314,-42.0000,38.2500,13.8000,9.2344,0.5148,-2.6576,-0.2337,0.0093,-0.0807,-55.9500,-7.5000,4.2000,0.8100,5.6000,-7.3100,0.6927,0.4723,-0.0807,-15.5625,-24.5000,28.7500,255.2500,2.6875,-149.8750,0
1777067544.217,7.4579,5.2146,-3.5961,0.0005,-0.1298,-0.0208,-42.0000,36.7500,14.5500,9.4451,0.6632,-2.8132,-0.1407,0.0149,-0.0741,-54.1500,-9.3000,4.3500,0.8100,5.6000,-7.3100,0.6927,0.4723,-0.0807,-15.5625,-24.5000,28.7500,255.0625,2.8750,-150.1875,0
1777067544.224,7.4579,5.2146,-3.5961,0.0005,-0.1298,-0.0208,-42.0000,36.7500,14.5500,9.4451,0.6632,-2.8132,-0.1407,0.0149,-0.0741,-56.7000,-9.1500,4.3500,1.5100,5.7100,-7.8800,0.5661,0.5345,-0.1276,-15.5625,-24.5000,28.7500,254.8125,3.2500,-150.3750,0
