timestamp,thigh_acc_x,thigh_acc_y,thigh_acc_z,thigh_gyro_x,thigh_gyro_y,thigh_gyro_z,thigh_mag_x,thigh_mag_y,thigh_mag_z,shank_acc_x,shank_acc_y,shank_acc_z,shank_gyro_x,shank_gyro_y,shank_gyro_z,shank_mag_x,shank_mag_y,shank_mag_z,foot_acc_x,foot_acc_y,foot_acc_z,foot_gyro_x,foot_gyro_y,foot_gyro_z,foot_mag_x,foot_mag_y,foot_mag_z,foot_euler_x,foot_euler_y,foot_euler_z,perturbation_event
1777067464.524,2.5498,5.9544,-7.6591,0.0533,0.0706,0.0195,-4.8000,38.4000,-15.4500,9.4523,-1.0965,2.4469,-0.0813,0.0261,-0.0075,-58.6500,7.5000,10.0500,4.5500,2.3900,-8.3100,-0.0196,0.0175,-0.0011,-20.2500,-33.2500,19.1875,312.7500,27.4375,-162.9375,0
1777067464.531,2.5570,5.9233,-7.8769,0.0181,0.0061,-0.0029,-4.8000,38.4000,-15.4500,9.4595,-1.0439,2.4804,-0.1434,0.0173,-0.0189,-57.4500,7.5000,10.8000,4.5600,2.4200,-8.3700,-0.0229,0.0131,0.0022,-20.2500,-33.2500,19.1875,312.7500,27.4375,-162.9375,0
1777067464.536,2.3439,5.8658,-7.9440,0.0043,-0.0541,-0.0203,-4.8000,38.4000,-15.4500,9.3948,-0.9074,2.0542,-0.1657,0.0141,-0.0221,-57.4500,7.5000,10.8000,4.5600,2.4200,-8.3700,-0.0229,0.0131,0.0022,-20.2500,-33.2500,19.1875,312.7500,27.4375,-162.9375,0
1777067464.544,2.3439,5.8658,-7.9440,-0.0408,-0.0834,-0.0381,-3.4500,37.6500,-13.9500,9.5624,-0.7230,2.2338,-0.1657,0.0141,-0.0221,-58.9500,6.4500,9.7500,4.5200,2.4100,-8.3400,-0.0262,0.0055,0.0076,-20.2500,-33.2500,19.1875,312.7500,27.4375,-162.9375,0
1777067464.553,2.2266,5.8035,-7.9033,-0.0408,-0.0834,-0.0381,-3.7500,37.2000,-14.4000,9.4164,-0.8715,2.4301,-0.1082,0.0264,-0.0357,-58.2000,7.2000,9.7500,4.6700,2.3700,-8.2900,-0.0305,0.0011,0.0109,-20.2500,-33.2500,19.1875,312.8125,27.4375,-162.9375,0
1777067464.558,2.2314,5.7868,-7.9248,-0.0730,-0.0482,-0.0394,-3.6000,38.2500,-13.8000,9.4164,-0.8715,2.4301,-0.0815,0.0304,-0.0493,-58.2000,7.2000,9.7500,4.6700,2.3700,-8.2900,-0.0305,0.0011,0.0109,-20.2500,-33.2500,19.1875,312.8125,27.4375,-162.9375,0
1777067464.563,2.2314,5.7868,-7.9248,-0.0730,-0.0482,-0.0394,-3.6000,38.2500,-13.8000,9.6367,-0.8739,2.5857,-0.0815,0.0304,-0.0493,-58.2000,7.2000,9.7500,4.3800,2.3800,-8.4200,-0.0382,0.0022,0.0055,-21.0625,-33.8750,19.5625,312.8125,27.4375,-162.9375,0
1777067464.567,2.3750,5.8730,-7.7069,-0.0930,-0.0280,-0.0176,-5.2500,36.9000,-13.6500,9.6367,-0.8739,2.5857,-0.0610,0.0165,-0.0690,-58.9500,6.7500,10.0500,4.3800,2.3800,-8.4200,-0.0382,0.0022,0.0055,-21.0625,-33.8750,19.5625,312.8125,27.4375,-162.9375,0
1777067464.572,2.3750,5.8730,-7.7069,-0.0930,-0.0280,-0.0176,-5.2500,36.9000,-13.6500,9.6151,-1.0056,2.6217,-0.0610,0.0165,-0.0690,-58.9500,6.7500,10.0500,4.4500,2.5400,-8.4200,-0.0513,0.0142,0.0065,-21.0625,-33.8750,19.5625,312.8125,27.4375,-162.8750,0
1777067464.577,2.4157,5.8897,-7.5178,-0.0991,-0.0440,-0.0104,-5.2500,36.9000,-13.6500,9.6151,-1.0056,2.6217,-0.0658,-0.0061,-0.0975,-58.9500,6.7500,10.0500,4.4500,2.5400,-8.4200,-0.0513,0.0142,0.0065,-21.0625,-33.8750,19.5625,312.8125,27.4375,-162.8750,0
1777067464.584,2.2338,6.0669,-7.6423,-0.0946,-0.0354,-0.0043,-5.2500,36.9000,-13.6500,9.5768,-0.8787,2.5450,-0.0903,-0.0290,-0.1098,-58.9500,6.7500,10.0500,4.5200,2.4100,-8.4500,-0.0480,0.0284,0.0055,-21.0625,-33.8750,19.5625,312.8125,27.4375,-162.8750,0
1777067464.593,2.1261,6.1651,-7.5992,-0.0967,-0.0341,0.0003,-3.7500,37.6500,-13.9500,9.4547,-0.8811,2.2865,-0.1274,-0.0285,-0.1279,-56.5500,6.9000,9.9000,4.5400,2.3600,-8.4200,-0.0524,0.0371,0.0098,-21.0625,-33.8750,19.5625,312.8125,27.5000,-162.8750,0
1777067464.598,2.1261,6.1651,-7.5992,-0.0967,-0.0341,0.0003,-3.7500,37.6500,-12.9000,9.4547,-0.8811,2.2865,-0.1274,-0.0285,-0.1279,-58.3500,7.8000,9.6000,4.5400,2.3600,-8.4200,-0.0600,0.0371,0.0131,-21.0625,-33.8750,19.5625,312.8125,27.5000,-162.8125,0
1777067464.605,1.9489,6.1483,-7.3670,-0.1079,-0.0741,0.0237,-4.0500,37.6500,-12.9000,9.2751,-0.6464,2.2146,-0.1343,-0.0080,-0.1529,-58.3500,7.8000,9.6000,4.5800,2.3800,-8.3900,-0.0600,0.0371,0.0131,-21.0625,-33.8750,19.5625,312.8125,27.5000,-162.8125,0
1777067464.610,1.9489,6.1483,-7.3670,-0.1079,-0.0741,0.0237,-4.0500,37.6500,-16.5000,9.2751,-0.6464,2.2146,-0.1343,-0.0080,-0.1529,-57.3000,4.6500,10.6500,4.5800,2.3800,-8.3900,-0.0600,0.0371,0.0131,-20.6875,-33.8750,19.5625,312.8125,27.5000,-162.8125,0
1777067464.615,1.7573,6.2010,-7.1922,-0.1556,-0.1111,0.0437,-3.4500,38.7000,-14.4000,9.2464,-0.5459,2.0590,-0.1164,0.0205,-0.1684,-57.3000,4.6500,10.6500,4.5600,2.4200,-8.3300,-0.0753,0.0404,0.0153,-20.6875,-33.8750,19.5625,312.8125,27.5000,-162.8125,0
1777067464.619,1.7573,6.2010,-7.1922,-0.1556,-0.1111,0.0437,-3.4500,38.7000,-14.4000,9.2464,-0.5459,2.0590,-0.1164,0.0205,-0.1684,-58.8000,7.3500,10.3500,4.5600,2.4200,-8.3300,-0.0753,0.0404,0.0153,-20.6875,-33.8750,19.5625,312.8750,27.5625,-162.7500,0
1777067464.624,1.6400,6.1531,-7.1658,-0.2068,-0.1183,0.0648,-3.4500,38.7000,-14.4000,9.2105,-0.3807,2.1931,-0.0469,0.0413,-0.1748,-58.8000,7.3500,10.3500,4.5300,2.5600,-8.2800,-0.0905,0.0393,0.0142,-20.6875,-33.8750,19.5625,312.8750,27.5625,-162.7500,0
1777067464.629,1.6400,6.1531,-7.1658,-0.2068,-0.1183,0.0648,-3.4500,38.7000,-14.4000,9.2105,-0.3807,2.1931,-0.0469,0.0413,-0.1748,-58.8000,7.3500,10.3500,4.5300,2.5600,-8.2800,-0.0993,0.0404,0.0142,-20.6875,-33.8750,19.5625,312.8750,27.5625,-162.6875,0
1777067464.635,1.6328,6.1531,-7.3047,-0.1897,-0.1186,0.0781,-3.6000,75.9000,-14.4000,9.2320,-0.2945,2.1835,-0.0101,0.0490,-0.1791,-58.8000,7.3500,10.3500,4.4100,2.5400,-8.3400,-0.0993,0.0404,0.0142,-20.6875,-33.8750,19.5625,312.8750,27.5625,-162.6875,0
1777067464.644,1.5395,6.3518,-7.4316,-0.1681,-0.0983,0.0759,-3.6000,37.5000,-14.2500,9.2201,-0.1987,2.2601,0.0027,0.0464,-0.1844,-58.0500,6.6000,10.6500,4.6200,2.7200,-8.2200,-0.1058,0.0360,0.0207,-20.6875,-33.8750,19.5625,312.8750,27.6250,-162.6250,0
1777067464.648,1.5395,6.3518,-7.4316,-0.1681,-0.0983,0.0759,-2.2500,39.1500,-15.0000,9.2201,-0.1987,2.2601,0.0027,0.0464,-0.1844,-57.0000,8.7000,11.2500,4.6200,2.7200,-8.2200,-0.0993,0.0393,0.0229,-20.6875,-33.8750,19.5625,312.9375,27.6250,-162.5625,0
1777067464.655,1.4844,6.5529,-7.2640,-0.1660,-0.0927,0.0687,-3.9000,38.2500,-14.2500,9.2751,-0.0551,2.3655,0.0344,0.0424,-0.1764,-57.0000,8.7000,11.2500,4.6500,2.4700,-8.2500,-0.0993,0.0393,0.0229,-20.6875,-33.8750,19.5625,312.9375,27.6250,-162.5625,0
1777067464.660,1.4844,6.5529,-7.2640,-0.1660,-0.0927,0.0687,-3.9000,38.2500,-14.2500,9.3230,0.0934,2.4684,0.0245,0.0506,-0.1535,-57.0000,6.0000,11.2500,4.6500,2.4700,-8.2500,-0.0993,0.0393,0.0229,-21.0625,-33.8750,19.1875,312.9375,27.6250,-162.5625,0
1777067464.665,1.3503,6.7445,-6.9408,-0.1724,-0.0821,0.0655,-3.0000,38.7000,-13.9500,9.3230,0.0934,2.4684,0.0245,0.0506,-0.1535,-57.0000,6.0000,11.2500,4.5900,2.4200,-8.2500,-0.0894,0.0371,0.0142,-21.0625,-33.8750,19.1875,312.9375,27.6250,-162.5625,0
1777067464.670,1.3503,6.7445,-6.9408,-0.1737,-0.0834,0.0682,-3.0000,38.7000,-13.9500,9.3565,0.1173,2.4660,0.0410,0.0637,-0.1314,-57.6000,6.1500,11.4000,4.5900,2.4200,-8.2500,-0.0894,0.0371,0.0142,-21.0625,-33.8750,19.1875,312.9375,27.6875,-162.5000,0
1777067464.675,1.1540,6.7924,-6.8067,-0.1737,-0.0834,0.0682,-3.0000,38.7000,-13.9500,9.3565,0.1173,2.4660,0.0410,0.0637,-0.1314,-57.6000,6.1500,11.4000,4.6200,2.4600,-8.2600,-0.0993,0.0371,0.0065,-21.0625,-33.8750,19.1875,312.9375,27.6875,-162.5000,0
1777067464.679,1.1923,6.9001,-6.8139,-0.1940,-0.0562,0.0738,-3.0000,38.7000,-13.9500,9.3757,0.2921,2.5235,0.0562,0.0629,-0.1274,-58.2000,8.7000,11.2500,4.6200,2.4600,-8.2600,-0.1047,0.0425,0.0011,-21.0625,-33.8750,19.1875,312.9375,27.6875,-162.4375,0
1777067464.685,1.1923,6.9001,-6.8139,-0.1940,-0.0562,0.0738,-2.8500,38.5500,-15.3000,9.3757,0.2921,2.5235,0.0562,0.0629,-0.1274,-58.2000,8.7000,11.2500,4.6300,2.4900,-8.2500,-0.1047,0.0425,0.0011,-21.0625,-33.8750,19.1875,312.9375,27.6875,-162.4375,0
1777067464.694,1.1133,6.8546,-6.7564,-0.1945,-0.0282,0.0687,-3.6000,39.0000,-15.3000,9.3613,0.3448,2.5067,0.0773,0.0706,-0.1106,-58.3500,8.5500,10.3500,4.6200,2.5100,-8.2200,-0.1025,0.0502,-0.0164,-21.0625,-33.8750,19.1875,313.0000,27.6875,-162.3750,0
1777067464.698,1.1133,6.8546,-6.7564,-0.1879,0.0005,0.0653,-3.6000,39.0000,-15.3000,9.3805,0.3903,2.3343,0.0858,0.0757,-0.1015,-58.3500,8.5500,10.3500,4.6200,2.5100,-8.2200,-0.1014,0.0491,-0.0262,-21.0625,-33.8750,19.1875,312.9375,27.7500,-162.3125,0
1777067464.705,1.2450,6.9743,-6.9049,-0.1879,0.0005,0.0653,-4.8000,40.6500,-12.9000,9.3805,0.3903,2.3343,0.0858,0.0757,-0.1015,-58.3500,8.5500,10.3500,4.5700,2.6900,-8.2400,-0.1014,0.0491,-0.0262,-21.0625,-33.8750,19.1875,312.9375,27.7500,-162.3125,0
1777067464.710,1.2785,7.1108,-6.9336,-0.1791,0.0192,0.0621,-4.8000,40.6500,-12.9000,9.4834,0.3136,2.3272,0.1172,0.0730,-0.0863,-57.4500,7.5000,10.0500,4.5700,2.6900,-8.2400,-0.1014,0.0491,-0.0262,-21.3750,-34.2500,20.0000,312.9375,27.7500,-162.2500,0
1777067464.714,1.2785,7.1108,-6.9336,-0.1791,0.0192,0.0621,-3.7500,40.9500,-13.6500,9.4834,0.3136,2.3272,0.1172,0.0730,-0.0863,-57.4500,7.5000,10.0500,4.5600,2.6800,-8.2500,-0.0905,0.0458,-0.0382,-21.3750,-34.2500,20.0000,312.9375,27.7500,-162.2500,0
1777067464.719,1.4006,7.1347,-6.9384,-0.1665,0.0232,0.0512,-3.7500,40.9500,-13.6500,9.4403,0.3208,2.3894,0.1327,0.0861,-0.0616,-56.2500,8.4000,10.5000,4.5600,2.6800,-8.2500,-0.0905,0.0458,-0.0382,-21.3750,-34.2500,20.0000,312.9375,27.7500,-162.1875,0
1777067464.724,1.4006,7.1347,-6.9384,-0.1665,0.0232,0.0512,-3.4500,40.2000,-12.6000,9.4403,0.3208,2.3894,0.1327,0.0861,-0.0616,-56.2500,8.4000,10.5000,4.5100,2.6900,-8.3000,-0.0698,0.0382,-0.0513,-21.3750,-34.2500,20.0000,312.9375,27.7500,-162.1875,0
1777067464.729,1.3264,7.0820,-6.8402,-0.1455,0.0408,0.0349,-3.4500,40.2000,-12.6000,9.4834,0.3136,2.5498,0.1258,0.0791,-0.0376,-57.3000,8.5500,10.3500,4.5100,2.6900,-8.3000,-0.0567,0.0447,-0.0600,-21.3750,-34.2500,20.0000,312.8750,27.8125,-162.1250,0
1777067464.735,1.3264,7.0820,-6.8402,-0.1455,0.0408,0.0349,-3.4500,40.2000,-12.6000,9.4834,0.3136,2.5498,0.1258,0.0791,-0.0376,-57.3000,8.5500,10.3500,4.5500,2.6300,-8.2800,-0.0567,0.0447,-0.0600,-21.3750,-34.2500,20.0000,312.8750,27.8125,-162.0625,0
1777067464.744,1.4102,7.0509,-6.7540,-0.1100,0.0416,0.0218,-3.4500,37.9500,-13.3500,9.4691,0.3256,2.6121,0.1220,0.0698,-0.0147,-57.9000,7.9500,11.2500,4.5800,2.6100,-8.2900,-0.0502,0.0589,-0.0633,-21.3750,-34.2500,20.0000,312.8750,27.8125,-162.0625,0
1777067464.752,1.4126,7.0557,-6.5888,-0.0695,0.0541,0.0179,-3.4500,37.9500,-13.3500,9.3685,0.3711,2.6887,0.1364,0.0626,0.0045,-56.8500,8.1000,10.3500,4.5600,2.5400,-8.2800,-0.0447,0.0633,-0.0764,-21.3750,-34.2500,20.0000,312.8125,27.8125,-162.0000,0
1777067464.757,1.4461,7.0318,-6.5577,-0.0517,0.0602,0.0075,-3.0000,39.9000,-12.6000,9.3158,0.3903,2.7366,0.1444,0.0671,0.0248,-56.8500,8.1000,10.3500,4.5600,2.5400,-8.2800,-0.0447,0.0633,-0.0764,-21.3750,-34.2500,20.0000,312.8125,27.8125,-162.0000,0
1777067464.762,1.4461,7.0318,-6.5577,-0.0517,0.0602,0.0075,-3.0000,39.9000,-12.6000,9.3158,0.3903,2.7366,0.1444,0.0671,0.0248,-58.2000,7.2000,10.5000,4.6500,2.6100,-8.1900,-0.0371,0.0676,-0.0851,-21.0625,-34.2500,19.5625,312.7500,27.8750,-161.9375,0
1777067464.767,1.4653,7.0294,-6.5721,-0.0450,0.0773,-0.0035,-2.8500,40.5000,-12.7500,9.3111,0.3184,2.7150,0.1450,0.0719,0.0421,-58.2000,7.2000,10.5000,4.6500,2.6100,-8.1900,-0.0371,0.0676,-0.0851,-21.0625,-34.2500,19.5625,312.7500,27.8750,-161.9375,0
1777067464.772,1.4653,7.0294,-6.5721,-0.0450,0.0773,-0.0035,-2.8500,40.5000,-12.7500,9.3111,0.3184,2.7150,0.1450,0.0719,0.0421,-58.2000,7.2000,10.5000,4.6300,2.6600,-8.2000,-0.0305,0.0731,-0.0949,-21.0625,-34.2500,19.5625,312.7500,27.8750,-161.9375,0
1777067464.776,1.5490,7.0006,-6.7038,-0.0205,0.0946,-0.0168,-2.8500,40.5000,-12.7500,9.2871,0.3089,2.7007,0.1665,0.0762,0.0504,-58.2000,7.2000,10.5000,4.6300,2.6600,-8.2000,-0.0305,0.0731,-0.0949,-21.0625,-34.2500,19.5625,312.6875,27.8750,-161.8750,0
1777067464.784,1.5490,7.0006,-6.7038,-0.0205,0.0946,-0.0168,-2.8500,40.5000,-12.7500,9.3470,0.2825,2.6240,0.1484,0.0810,0.0648,-56.5500,8.1000,10.6500,4.6400,2.7300,-8.1800,-0.0175,0.0687,-0.1025,-21.0625,-34.2500,19.5625,312.6875,27.8750,-161.8750,0
1777067464.794,1.6448,7.0294,-6.6894,0.0067,0.1085,-0.0234,-2.8500,39.7500,-13.8000,9.3039,0.1700,2.6743,0.1484,0.0810,0.0648,-58.3500,7.8000,11.1000,4.6700,2.6800,-8.1300,-0.0044,0.0633,-0.1058,-21.0625,-34.2500,19.5625,312.6250,27.8750,-161.8125,0
1777067464.800,1.7741,6.9695,-6.7086,0.0360,0.0970,-0.0314,-2.8500,39.7500,-13.8000,9.3039,0.1700,2.6743,0.1292,0.0927,0.0749,-56.5500,7.8000,9.6000,4.6400,2.7300,-8.1400,0.0087,0.0578,-0.1134,-21.0625,-34.2500,19.5625,312.5625,27.9375,-161.8125,0
1777067464.805,1.7166,6.8953,-6.7876,0.0554,0.0954,-0.0346,-3.0000,40.6500,-13.9500,9.2560,0.0551,2.7749,0.1154,0.1079,0.0874,-56.5500,7.8000,9.6000,4.6400,2.7300,-8.1400,0.0087,0.0578,-0.1134,-21.0625,-34.2500,19.5625,312.5625,27.9375,-161.8125,0
1777067464.810,1.7166,6.8953,-6.7876,0.0554,0.0954,-0.0346,-3.0000,40.6500,-13.9500,9.2560,0.0551,2.7749,0.1154,0.1079,0.0874,-58.6500,8.4000,10.0500,4.6400,2.7300,-8.1400,0.0087,0.0578,-0.1134,-21.0625,-34.5625,17.5625,312.4375,27.9375,-161.7500,0
1777067464.815,1.8364,6.8331,-6.8690,0.0719,0.1119,-0.0362,-3.4500,39.9000,-13.9500,9.1578,-0.0335,2.8946,0.0973,0.1090,0.0946,-58.6500,8.4000,10.0500,4.6600,2.8100,-8.1200,0.0142,0.0469,-0.1080,-21.0625,-34.5625,17.5625,312.4375,27.9375,-161.7500,0
1777067464.820,1.8364,6.8331,-6.8690,0.0719,0.1119,-0.0362,-3.4500,39.9000,-13.9500,9.1578,-0.0335,2.8946,0.0973,0.1090,0.0946,-56.8500,9.0000,11.4000,4.6600,2.8100,-8.1200,0.0142,0.0469,-0.1080,-21.0625,-34.5625,17.5625,312.3750,27.9375,-161.7500,0
1777067464.825,1.8316,6.7971,-6.8929,0.0855,0.1202,-0.0338,-4.8000,40.2000,-13.6500,9.2536,-0.0766,2.9401,0.0743,0.1021,0.1023,-56.8500,9.0000,11.4000,4.6500,2.7900,-8.0800,0.0142,0.0425,-0.1004,-21.0625,-34.5625,17.5625,312.3750,27.9375,-161.7500,0
1777067464.830,1.8316,6.7971,-6.8929,0.0855,0.1202,-0.0338,-4.8000,40.2000,-13.6500,9.2536,-0.0766,2.9401,0.0743,0.1021,0.1023,-57.4500,7.9500,9.7500,4.6500,2.7900,-8.0800,0.0207,0.0262,-0.0905,-21.0625,-34.5625,17.5625,312.3750,27.9375,-161.7500,0
1777067464.835,1.8866,6.7469,-6.9480,0.1071,0.1263,-0.0365,-4.8000,40.2000,-13.6500,9.2392,-0.1317,2.8539,0.0538,0.0725,0.0978,-57.4500,7.9500,9.7500,4.6800,2.7700,-8.1400,0.0207,0.0262,-0.0905,-21.0625,-34.5625,17.5625,312.3125,27.9375,-161.6875,0
1777067464.844,1.8842,6.6391,-6.9935,0.1148,0.1292,-0.0384,-2.8500,40.5000,-13.8000,9.1937,-0.1939,2.6767,0.0421,0.0690,0.0922,-57.4500,7.9500,9.7500,4.6900,2.8200,-8.1000,0.0262,0.0131,-0.0785,-21.0625,-34.5625,17.5625,312.3125,27.9375,-161.6875,0
1777067464.852,1.8842,6.6391,-6.9935,0.1148,0.1292,-0.0384,-4.0500,38.4000,-13.3500,9.2249,-0.2322,2.6695,-0.0290,0.0616,0.0861,-57.9000,8.4000,9.7500,4.7100,2.8300,-8.0600,0.0327,-0.0076,-0.0654,-21.0625,-34.5625,17.5625,312.2500,27.8750,-161.6875,0
1777067464.857,1.8196,6.5745,-6.9432,0.1210,0.1335,-0.0360,-4.0500,38.4000,-13.3500,9.2249,-0.2322,2.6695,-0.0290,0.0616,0.0861,-57.9000,8.4000,9.7500,4.7100,2.8300,-8.0600,0.0327,-0.0076,-0.0654,-21.0625,-34.5625,17.5625,312.2500,27.8750,-161.6875,0
1777067464.862,1.8196,6.5745,-6.9432,0.1210,0.1335,-0.0360,-6.4500,39.0000,-12.4500,9.2129,-0.2873,2.6193,-0.0837,0.0698,0.0749,-57.9000,6.7500,12.0000,4.6400,2.9000,-8.1300,0.0382,-0.0305,-0.0480,-21.0625,-34.3750,18.7500,312.2500,27.8750,-161.6875,0
1777067464.867,1.8172,6.4739,-7.0246,0.1346,0.1452,-0.0320,-6.4500,39.0000,-12.4500,9.2129,-0.2873,2.6193,-0.0837,0.0698,0.0749,-57.9000,6.7500,12.0000,4.6400,2.9000,-8.1300,0.0382,-0.0305,-0.0480,-21.0625,-34.3750,18.7500,312.2500,27.8750,-161.6875,0
1777067464.872,1.8172,6.4739,-7.0246,0.1346,0.1452,-0.0320,-3.9000,40.0500,-12.4500,9.1913,-0.3352,2.5235,-0.1298,0.0802,0.0719,-58.2000,7.2000,11.2500,4.6000,2.9000,-8.1600,0.0371,-0.0589,-0.0240,-21.0625,-34.3750,18.7500,312.1875,27.8750,-161.7500,0
1777067464.876,1.8962,6.4069,-7.1946,0.1548,0.1378,-0.0237,-3.9000,40.0500,-12.4500,9.1913,-0.3352,2.5235,-0.1298,0.0802,0.0719,-58.2000,7.2000,11.2500,4.6000,2.9000,-8.1600,0.0371,-0.0589,-0.0240,-21.0625,-34.3750,18.7500,312.1875,27.8750,-161.7500,0
1777067464.881,1.8962,6.4069,-7.1946,0.1548,0.1378,-0.0237,-3.9000,40.0500,-12.4500,9.0237,-0.2897,2.5546,-0.1553,0.0829,0.0701,-58.2000,7.5000,10.0500,4.6200,2.8000,-8.2000,0.0382,-0.0916,-0.0033,-21.0625,-34.3750,18.7500,312.1875,27.8125,-161.7500,0
1777067464.886,1.7166,6.2896,-7.1611,0.1572,0.1516,-0.0181,-3.9000,40.0500,-12.4500,9.0237,-0.2897,2.5546,-0.1553,0.0829,0.0701,-58.2000,7.5000,10.0500,4.6200,2.8000,-8.2000,0.0382,-0.0916,-0.0033,-21.0625,-34.3750,18.7500,312.2500,27.7500,-161.8125,0
1777067464.894,1.7382,6.1962,-7.2449,0.1623,0.1447,-0.0040,-3.6000,39.7500,-12.7500,8.9064,-0.2011,2.5091,-0.1519,0.0863,0.0682,-56.2500,7.9500,12.3000,4.6800,2.8000,-8.1800,0.0404,-0.1167,0.0120,-21.0625,-34.3750,18.7500,312.2500,27.7500,-161.8125,0
1777067464.900,1.7382,6.1962,-7.2449,0.1623,0.1447,-0.0040,-3.6000,39.7500,-12.7500,8.8322,-0.2011,2.5259,-0.1684,0.0930,0.0698,-56.2500,7.9500,12.3000,4.6800,2.8000,-8.1800,0.0360,-0.1484,0.0175,-21.0625,-34.3750,18.7500,312.2500,27.6875,-161.8125,0
1777067464.905,1.7023,6.1723,-7.0844,0.1620,0.1617,0.0075,-4.5000,40.2000,-11.8500,8.8322,-0.2011,2.5259,-0.1684,0.0930,0.0698,-57.4500,7.9500,13.5000,4.7500,2.5900,-8.1700,0.0360,-0.1484,0.0175,-21.0625,-34.3750,18.7500,312.2500,27.6875,-161.8125,0
1777067464.910,1.7023,6.1723,-7.0844,0.1620,0.1617,0.0075,-4.0500,39.1500,-12.1500,8.7771,-0.2873,2.6576,-0.1458,0.0994,0.0719,-57.4500,7.9500,13.5000,4.7500,2.5900,-8.1700,0.0262,-0.1767,0.0131,-19.8750,-34.7500,20.0000,312.2500,27.5625,-161.8750,0
1777067464.915,1.6305,6.1866,-6.9599,0.1751,0.1980,0.0112,-4.0500,39.1500,-12.1500,8.7771,-0.2873,2.6576,-0.1458,0.0994,0.0719,-57.4500,7.9500,13.5000,4.7600,2.5600,-8.1900,0.0262,-0.1767,0.0131,-19.8750,-34.7500,20.0000,312.2500,27.5625,-161.8750,0
1777067464.920,1.6305,6.1866,-6.9599,0.1751,0.1980,0.0112,-3.9000,40.0500,-13.8000,8.7963,-0.3879,2.8132,-0.1021,0.1143,0.0741,-57.4500,7.9500,13.5000,4.7600,2.5600,-8.1900,0.0076,-0.2073,0.0011,-19.8750,-34.7500,20.0000,312.2500,27.5000,-161.8750,0
1777067464.925,1.6113,6.1363,-6.9121,0.1972,0.2100,0.0245,-3.9000,40.0500,-13.8000,8.7963,-0.3879,2.8132,-0.1021,0.1143,0.0741,-57.3000,6.6000,11.4000,4.8300,2.4500,-8.1600,0.0076,-0.2073,0.0011,-19.8750,-34.7500,20.0000,312.2500,27.5000,-161.8750,0
1777067464.930,1.6113,6.1363,-6.9121,0.1972,0.2100,0.0245,-4.3500,39.3000,-12.0000,8.9280,-0.3974,2.8036,-0.0783,0.1244,0.0671,-57.3000,6.6000,11.4000,4.8300,2.4500,-8.1600,-0.0185,-0.2509,-0.0098,-19.8750,-34.7500,20.0000,312.3125,27.3750,-161.8750,0
1777067464.935,1.5754,6.1675,-6.7062,0.2038,0.2148,0.0280,-4.3500,39.3000,-12.0000,8.9280,-0.3974,2.8036,-0.0783,0.1244,0.0671,-58.6500,7.9500,10.8000,4.6900,2.4100,-8.1600,-0.0185,-0.2509,-0.0098,-19.8750,-34.7500,20.0000,312.3125,27.1875,-161.8750,0
1777067464.944,1.4030,6.0071,-7.1682,0.2113,0.2785,0.0234,-4.3500,39.3000,-12.0000,9.2512,-0.4621,3.0765,-0.0192,0.1601,0.0557,-57.3000,8.1000,9.9000,4.5900,2.3800,-8.1900,-0.0382,-0.2891,-0.0240,-19.8750,-34.7500,20.0000,312.3125,27.1875,-161.8750,0
1777067464.954,1.4078,6.0837,-7.9009,0.1228,0.3738,0.0176,-4.0500,39.4500,-13.6500,9.6391,-0.2538,3.1316,-0.0306,0.1508,0.0421,-56.5500,9.3000,12.1500,4.4400,2.4700,-8.2900,-0.0469,-0.3163,-0.0360,-19.8750,-34.7500,20.0000,312.3125,27.0000,-161.8750,0
1777067464.959,1.4078,6.0837,-7.9009,0.1228,0.3738,0.0176,-4.6500,39.0000,-13.5000,9.0860,0.4621,1.6281,-0.2364,0.1362,0.0576,-56.5500,9.3000,12.1500,4.4400,2.4700,-8.2900,-0.0469,-0.3163,-0.0360,-19.8750,-34.7500,20.0000,312.3125,27.0000,-161.8750,0
1777067464.964,1.5275,6.3422,-8.5162,-0.0501,0.4490,0.0218,-4.6500,39.0000,-13.5000,9.0860,0.4621,1.6281,-0.2364,0.1362,0.0576,-56.2500,7.9500,10.0500,4.2300,2.5300,-8.4800,-0.0480,-0.3316,-0.0415,-20.2500,-34.7500,19.5625,312.3125,26.8125,-161.8750,0
1777067464.969,1.5275,6.3422,-8.5162,-0.0501,0.4490,0.0218,-5.7000,39.7500,-12.7500,9.3541,-0.1173,1.7310,-0.0906,0.2124,0.0538,-56.2500,7.9500,10.0500,4.2300,2.5300,-8.4800,-0.0480,-0.3316,-0.0415,-20.2500,-34.7500,19.5625,312.3125,26.8125,-161.8750,0
1777067464.974,1.7909,6.2393,-8.6335,-0.2593,0.3832,0.0123,-5.7000,39.7500,-12.7500,9.3541,-0.1173,1.7310,-0.0906,0.2124,0.0538,-57.9000,8.7000,9.7500,4.6500,3.3500,-7.8900,-0.0371,-0.3283,-0.0371,-20.2500,-34.7500,19.5625,312.3750,26.6875,-161.8750,0
1777067464.982,2.1189,6.2896,-8.3175,-0.4799,0.3341,0.0584,-4.8000,39.4500,-12.9000,9.6103,-0.3352,2.2745,-0.0314,0.2585,0.0333,-57.9000,8.7000,9.7500,4.0700,3.6200,-8.2100,-0.0076,-0.3207,-0.0447,-20.2500,-34.7500,19.5625,312.3750,26.5000,-161.8750,0
1777067464.986,2.1189,6.2896,-8.3175,-0.4799,0.3341,0.0584,-4.8000,39.4500,-12.9000,9.8593,-0.9673,2.4852,-0.0224,0.2571,-0.0064,-57.9000,8.7000,9.7500,4.0700,3.6200,-8.2100,-0.0076,-0.3207,-0.0447,-20.2500,-34.7500,19.5625,312.3750,26.3125,-161.9375,0
1777067464.995,2.4181,6.4787,-7.8841,-0.6360,0.3632,0.1724,-4.8000,39.4500,-12.9000,10.4244,-1.4126,2.5139,-0.0224,0.2571,-0.0064,-58.3500,8.1000,9.6000,3.8700,3.5500,-8.6200,0.0731,-0.3207,-0.0447,-20.2500,-34.7500,19.5625,312.3750,26.1250,-162.0625,0
1777067465.005,2.2625,6.8450,-7.5944,-0.8284,0.4245,0.2334,-5.2500,41.7000,-12.9000,9.4164,-1.6999,2.4995,-0.0663,0.1290,-0.0725,-56.7000,8.4000,9.7500,3.8200,3.2800,-8.5800,0.1364,-0.3338,-0.0087,-20.2500,-34.7500,19.5625,312.3750,26.1250,-162.0625,0
1777067465.010,2.4756,6.7086,-7.6830,-1.0834,0.3928,0.2931,-6.1500,40.8000,-11.7000,9.4164,-1.6999,2.4995,-0.1929,0.1447,-0.1087,-56.7000,8.4000,9.7500,3.8200,3.2800,-8.5800,0.1364,-0.3338,-0.0087,-19.5625,-34.7500,18.7500,312.3750,25.9375,-162.1875,0
1777067465.015,2.4756,6.7086,-7.6830,-1.0834,0.3928,0.2931,-6.1500,40.8000,-11.7000,8.8777,-1.6065,2.3320,-0.1929,0.1447,-0.1087,-57.0000,9.1500,11.2500,3.9900,2.6900,-8.5200,0.1800,-0.3469,0.0404,-19.5625,-34.7500,18.7500,312.3750,25.9375,-162.1875,0
1777067465.020,2.3272,6.9599,-7.1754,-1.0453,0.4024,0.3437,-6.6000,40.9500,-11.1000,8.8777,-1.6065,2.3320,-0.2446,0.1567,-0.1180,-57.0000,9.1500,11.2500,3.9900,2.6900,-8.5200,0.1800,-0.3469,0.0404,-19.5625,-34.7500,18.7500,312.4375,25.7500,-162.3750,0
1777067465.025,2.3272,6.9599,-7.1754,-1.0453,0.4024,0.3437,-6.6000,40.9500,-11.1000,8.9232,-1.5395,2.8371,-0.2585,0.1588,-0.1199,-57.4500,8.7000,10.8000,4.2000,2.6200,-8.3900,0.2018,-0.3502,0.0862,-19.5625,-34.7500,18.7500,312.4375,25.7500,-162.3750,0
1777067465.030,2.2697,7.2616,-7.2425,-0.7171,0.4245,0.4082,-5.8500,42.1500,-11.1000,8.9232,-1.5395,2.8371,-0.2585,0.1588,-0.1199,-57.4500,8.7000,10.8000,4.6100,1.8200,-8.3200,0.2116,-0.3556,0.1069,-19.5625,-34.7500,18.7500,312.5000,25.6250,-162.5000,0
1777067465.035,2.2697,7.2616,-7.2425,-0.7171,0.4245,0.4082,-5.8500,42.1500,-11.1000,9.0644,-1.4748,2.9233,-0.2585,0.1764,-0.1282,-55.9500,8.4000,10.0500,4.6100,1.8200,-8.3200,0.2116,-0.3556,0.1069,-19.5625,-34.7500,18.7500,312.5625,25.4375,-162.6875,0
1777067465.045,2.5450,7.2018,-7.9631,-0.8404,0.3797,0.5047,-5.8500,42.1500,-11.1000,9.7181,-1.1013,2.7390,-0.2779,0.1503,-0.1260,-56.7000,8.7000,10.5000,4.4200,1.4200,-8.6200,0.1996,-0.3600,0.0960,-19.5625,-34.7500,18.7500,312.5625,25.4375,-162.6875,0
1777067465.054,2.6025,7.6112,-8.1403,-0.9771,0.4868,0.5953,-7.8000,41.4000,-10.5000,9.8162,-0.3424,2.5474,-0.3709,0.1804,-0.1242,-56.7000,8.7000,10.5000,4.3700,1.1500,-8.8100,0.1429,-0.3676,0.0502,-19.5625,-34.7500,18.7500,312.5625,25.2500,-162.8125,0
1777067465.060,2.6145,8.1882,-7.6040,-0.6813,0.4727,0.5852,-7.2000,42.7500,-9.6000,9.8162,-0.3424,2.5474,-0.3709,0.1804,-0.1242,-56.7000,8.7000,10.5000,4.3700,1.1500,-8.8100,0.1429,-0.3676,0.0502,-19.5625,-34.7500,18.7500,312.5625,25.2500,-162.8125,0
1777067465.065,2.6145,8.1882,-7.6040,-0.6813,0.4727,0.5852,-7.2000,42.7500,-9.6000,9.8617,0.1173,2.7773,-0.3027,0.1679,-0.1287,-57.3000,8.5500,9.1500,4.0600,1.8100,-8.6900,0.0305,-0.3698,0.0109,-19.1875,-34.0625,19.6875,312.6250,25.0625,-162.8750,0
1777067465.069,2.5594,8.4515,-6.4643,-0.5726,0.3850,0.6009,-7.3500,42.9000,-10.0500,9.8617,0.1173,2.7773,-0.3027,0.1679,-0.1287,-57.3000,8.5500,9.1500,4.0600,1.8100,-8.6900,0.0305,-0.3698,0.0109,-19.1875,-34.0625,19.6875,312.6250,25.0625,-162.8750,0
1777067465.074,2.5594,8.4515,-6.4643,-0.5726,0.3850,0.6009,-7.3500,42.9000,-10.0500,9.6031,0.3424,3.3567,-0.1788,0.1695,-0.1474,-56.5500,8.5500,8.4000,3.9400,2.8400,-8.8000,-0.0480,-0.3414,-0.0098,-19.1875,-34.0625,19.6875,312.6875,24.8750,-162.8750,0
1777067465.082,2.5450,7.9918,-6.7564,-0.5273,0.3850,0.6667,-7.8000,41.4000,-8.7000,9.3757,0.1317,3.4884,-0.1210,0.1665,-0.1676,-58.0500,9.7500,10.6500,3.9500,2.7200,-8.7000,-0.0840,-0.3131,-0.0033,-19.1875,-34.0625,19.6875,312.6875,24.6875,-162.8125,0
1777067465.087,2.8587,7.9392,-6.7756,-0.3603,0.4311,0.7184,-7.8000,41.4000,-8.7000,9.3757,0.1317,3.4884,-0.1210,0.1665,-0.1676,-58.0500,9.7500,10.6500,3.9500,2.7200,-8.7000,-0.0840,-0.3131,-0.0033,-19.1875,-34.0625,19.6875,312.7500,24.5625,-162.8125,0
1777067465.095,2.8587,7.9392,-6.7756,-0.3603,0.4311,0.7184,-7.8000,41.4000,-8.7000,9.5361,-0.0790,3.8882,-0.0573,0.0650,-0.1641,-56.8500,9.7500,10.6500,4.0200,2.7700,-8.6100,-0.1167,-0.2967,0.0196,-19.1875,-34.0625,19.6875,312.8125,24.4375,-162.7500,0
1777067465.105,3.0167,8.3079,-6.2345,-0.2910,0.4085,0.7631,-8.4000,42.4500,-9.3000,10.0820,-0.2969,3.6057,-0.0485,0.0512,-0.1466,-56.7000,9.4500,10.8000,4.0500,2.4300,-8.6800,-0.1309,-0.2683,0.0360,-19.1875,-34.0625,19.6875,312.8125,24.4375,-162.7500,0
1777067465.110,2.8659,8.2600,-6.7876,-0.2910,0.4085,0.7631,-8.4000,42.1500,-10.5000,10.0820,-0.2969,3.6057,-0.0485,0.0512,-0.1466,-56.7000,9.4500,10.8000,4.0500,2.4300,-8.6800,-0.1309,-0.2683,0.0360,-19.1875,-34.0625,19.6875,312.8750,24.3125,-162.6875,0
1777067465.115,2.8659,8.2600,-6.7876,-0.1809,0.4938,0.7850,-8.4000,42.1500,-10.5000,9.0644,-0.3687,3.3543,-0.1226,0.1263,-0.1404,-57.9000,9.4500,9.0000,4.1300,2.4400,-8.6400,-0.1462,-0.2323,0.0349,-19.7500,-34.8750,20.5000,312.8750,24.3125,-162.6875,0
1777067465.119,2.8276,8.0206,-6.4452,-0.1809,0.4938,0.7850,-9.0000,43.5000,-9.1500,9.0644,-0.3687,3.3543,-0.1226,0.1263,-0.1404,-57.9000,9.4500,9.0000,4.1300,2.4400,-8.6400,-0.1462,-0.2323,0.0349,-19.7500,-34.8750,20.5000,312.9375,24.1875,-162.6250,0
1777067465.125,2.9473,8.1906,-6.8019,0.0266,0.4466,0.8013,-9.0000,43.5000,-9.1500,9.5217,-0.5818,3.3615,-0.1900,0.1013,-0.1114,-57.9000,9.4500,9.0000,4.1200,2.6200,-8.5800,-0.1734,-0.2073,0.0284,-19.7500,-34.8750,20.5000,312.9375,24.1875,-162.6250,0
1777067465.130,2.9473,8.1906,-6.8019,0.0266,0.4466,0.8013,-8.8500,43.6500,-8.7000,9.6247,-0.7063,3.2920,-0.1900,0.1013,-0.1114,-57.9000,9.4500,9.0000,4.1200,2.6200,-8.5800,-0.2040,-0.1920,0.0262,-19.7500,-34.8750,20.5000,312.9375,24.0625,-162.5000,0
1777067465.135,3.1771,7.6495,-6.7995,0.0410,0.5196,0.8287,-8.8500,43.6500,-8.7000,9.6247,-0.7063,3.2920,-0.2515,0.0277,-0.0677,-57.6000,10.9500,11.4000,4.0000,2.9200,-8.4500,-0.2040,-0.1920,0.0262,-19.7500,-34.8750,20.5000,313.0000,24.0000,-162.4375,0
1777067465.145,3.1915,7.0078,-6.5745,0.0338,0.5953,0.8703,-8.8500,43.6500,-8.7000,9.5313,-0.7254,3.2298,-0.3317,0.0019,-0.0472,-56.7000,9.9000,10.5000,3.9400,3.0100,-8.6300,-0.2029,-0.1822,0.0360,-19.7500,-34.8750,20.5000,313.0000,24.0000,-162.4375,0
1777067465.155,3.2322,7.2185,-6.9384,0.1082,0.5844,0.9142,-8.8500,43.6500,-8.7000,9.4739,-0.4166,3.4046,-0.4048,0.0115,-0.0290,-56.5500,10.0500,11.1000,3.9200,2.5500,-8.8000,-0.1909,-0.1724,0.0404,-19.7500,-34.8750,20.5000,313.0625,23.9375,-162.3750,0
1777067465.160,3.2322,7.2185,-6.9384,0.1082,0.5844,0.9142,-10.9500,42.9000,-10.8000,9.6510,-0.2610,3.4788,-0.4311,0.0179,-0.0013,-56.5500,10.0500,11.1000,3.9200,2.5500,-8.8000,-0.1909,-0.1724,0.0404,-19.7500,-34.8750,20.5000,313.1250,23.8750,-162.2500,0
1777067465.165,3.0765,7.5393,-5.8347,-0.0296,0.6059,0.9409,-10.9500,42.9000,-10.8000,9.6510,-0.2610,3.4788,-0.4311,0.0179,-0.0013,-58.8000,10.0500,10.6500,3.9600,2.5400,-8.7100,-0.2138,-0.1505,0.0371,-18.2500,-34.5000,20.3750,313.1250,23.8750,-162.2500,0
1777067465.170,3.0765,7.5393,-5.8347,-0.0296,0.6059,0.9409,-10.0500,43.0500,-9.9000,9.5002,-0.0359,3.3974,-0.4202,0.0077,0.0083,-58.8000,10.0500,10.6500,3.9600,2.5400,-8.7100,-0.2138,-0.1505,0.0371,-18.2500,-34.5000,20.3750,313.1875,23.7500,-162.1250,0
1777067465.175,3.2872,7.1180,-6.3877,-0.0501,0.6171,0.9651,-10.0500,43.0500,-9.9000,9.5002,-0.0359,3.3974,-0.4202,0.0077,0.0083,-58.0500,9.0000,10.6500,4.0400,2.7700,-8.7100,-0.2542,-0.1364,0.0284,-18.2500,-34.5000,20.3750,313.1875,23.7500,-162.1250,0
1777067465.180,3.2872,7.1180,-6.3877,-0.0501,0.6171,0.9651,-11.4000,43.6500,-9.3000,11.0684,0.1413,3.6344,-0.3176,-0.1055,0.0024,-58.0500,9.0000,10.6500,4.0400,2.7700,-8.7100,-0.2989,-0.1254,0.0131,-18.2500,-34.5000,20.3750,313.2500,23.6875,-162.0000,0
1777067465.186,3.3136,7.1658,-6.5098,0.0120,0.5907,0.9462,-12.4500,42.9000,-12.6000,11.0684,0.1413,3.6344,-0.3176,-0.1055,0.0024,-57.0000,9.4500,11.2500,4.0400,2.8300,-8.6100,-0.2989,-0.1254,0.0131,-18.2500,-34.5000,20.3750,313.2500,23.6875,-162.0000,0
1777067465.195,3.5051,7.4340,-6.1986,-0.0445,0.5804,0.9268,-12.4500,42.9000,-12.6000,9.2440,0.4788,3.4524,-0.2739,-0.0941,-0.0005,-57.0000,9.4500,11.2500,4.0600,3.0200,-8.5500,-0.3294,-0.1124,0.0033,-18.2500,-34.5000,20.3750,313.3125,23.6250,-161.8125,0
1777067465.205,3.6559,7.3167,-5.9520,0.0405,0.6107,0.9164,-12.4500,42.9000,-12.6000,9.4810,0.0479,3.6272,-0.2864,-0.0125,0.0040,-56.7000,10.6500,9.7500,3.8400,3.0800,-8.5700,-0.3360,-0.1156,0.0000,-18.2500,-34.5000,20.3750,313.3750,23.5625,-161.6250,0
1777067465.209,3.6559,7.3167,-5.9520,0.0405,0.6107,0.9164,-11.4000,42.9000,-11.1000,9.5624,0.2586,3.6344,-0.2324,-0.1050,0.0107,-56.7000,10.6500,9.7500,3.8400,3.0800,-8.5700,-0.3360,-0.1156,0.0000,-18.2500,-34.5000,20.3750,313.3750,23.5625,-161.6250,0
1777067465.215,4.0127,7.1802,-5.8299,0.1572,0.5750,0.9086,-11.4000,42.9000,-11.1000,9.5624,0.2586,3.6344,-0.2324,-0.1050,0.0107,-56.8500,9.3000,8.8500,3.9100,3.1200,-8.5700,-0.3316,-0.1091,0.0022,-18.2500,-35.2500,21.2500,313.3750,23.5625,-161.4375,0
1777067465.219,4.0127,7.1802,-5.8299,0.1572,0.5750,0.9086,-14.2500,43.2000,-12.6000,9.2823,0.0982,3.6272,-0.2017,-0.0925,0.0141,-56.8500,9.3000,8.8500,3.9100,3.1200,-8.5700,-0.3316,-0.1091,0.0022,-18.2500,-35.2500,21.2500,313.3750,23.5625,-161.4375,0
1777067465.224,4.0654,6.9504,-5.9304,0.2196,0.5670,0.8953,-14.2500,43.2000,-12.6000,9.2823,0.0982,3.6272,-0.2017,-0.0925,0.0141,-56.5500,9.0000,9.6000,3.8700,2.9100,-8.5800,-0.3229,-0.0894,0.0011,-18.2500,-35.2500,21.2500,313.4375,23.5000,-161.2500,0
1777067465.229,4.0654,6.9504,-5.9304,0.2196,0.5670,0.8953,-13.5000,42.4500,-11.8500,9.4092,0.0862,3.6105,-0.1961,-0.1346,0.0149,-56.5500,9.0000,9.6000,3.8700,2.9100,-8.5800,-0.3087,-0.0982,0.0022,-18.2500,-35.2500,21.2500,313.5000,23.4375,-161.1250,0
1777067465.236,4.3287,6.4548,-6.1220,0.1119,0.6139,0.9006,-14.1000,44.2500,-12.7500,9.5481,-0.0072,3.9002,-0.1961,-0.1346,0.0149,-57.6000,10.5000,9.6000,3.8200,3.6900,-8.1500,-0.3087,-0.0982,0.0022,-18.2500,-35.2500,21.2500,313.5625,23.3750,-160.9375,0
1777067465.245,4.5945,6.3470,-5.6455,0.0168,0.6696,0.8969,-14.1000,44.2500,-12.7500,9.7324,-0.0383,3.8547,-0.1772,-0.1346,0.0208,-58.6500,9.4500,10.0500,3.8700,3.3400,-8.4300,-0.2869,-0.0905,0.0055,-18.2500,-35.2500,21.2500,313.5625,23.3750,-160.8125,0
1777067465.255,4.7214,6.4811,-5.7437,-0.0629,0.6440,0.8900,-13.9500,43.2000,-14.4000,9.7588,0.0048,3.8259,-0.2041,-0.1911,0.0306,-56.5500,10.9500,9.6000,3.7400,3.2600,-8.4500,-0.2214,-0.0687,0.0011,-18.2500,-35.2500,21.2500,313.5625,23.3750,-160.8125,0
1777067465.260,4.7214,6.4811,-5.7437,-0.1929,0.7053,0.8868,-13.9500,43.2000,-14.4000,9.7588,0.0048,3.8259,-0.1948,-0.2598,0.0432,-56.5500,10.9500,9.6000,3.7400,3.2600,-8.4500,-0.2214,-0.0687,0.0011,-18.2500,-35.2500,21.2500,313.6250,23.3125,-160.7500,0
1777067465.265,4.8100,6.4524,-5.8179,-0.1929,0.7053,0.8868,-15.0000,42.4500,-13.9500,9.7109,-0.1939,3.9265,-0.2297,-0.2872,0.0597,-56.5500,10.9500,9.6000,3.7700,3.2400,-8.4300,-0.1811,-0.0513,0.0087,-18.5000,-34.6875,19.0000,313.6250,23.3125,-160.7500,0
1777067465.270,5.0494,6.6918,-5.4684,-0.2494,0.7258,0.8671,-15.0000,42.4500,-13.9500,9.7109,-0.1939,3.9265,-0.2297,-0.2872,0.0597,-56.5500,10.9500,9.6000,3.7700,3.2400,-8.4300,-0.1811,-0.0513,0.0087,-18.5000,-34.6875,19.0000,313.6250,23.3125,-160.6875,0
1777067465.275,5.0494,6.6918,-5.4684,-0.2494,0.7258,0.8671,-18.1500,42.3000,-14.8500,9.4954,-0.0814,3.8403,-0.2569,-0.2998,0.0810,-58.3500,11.7000,9.6000,3.8400,3.3400,-8.3600,-0.1462,-0.0360,0.0175,-18.5000,-34.6875,19.0000,313.6250,23.3125,-160.6875,0
1777067465.283,5.0949,6.9647,-5.4372,-0.4008,0.7448,0.8764,-18.1500,42.3000,-14.8500,9.6893,0.1173,3.8068,-0.2569,-0.2998,0.0810,-58.3500,11.7000,9.6000,3.8800,3.1600,-8.4300,-0.1134,-0.0207,0.0164,-18.5000,-34.6875,19.0000,313.6250,23.3125,-160.6250,0
1777067465.288,5.0949,6.9647,-5.4372,-0.4008,0.7448,0.8764,-17.7000,43.5000,-14.2500,9.6893,0.1173,3.8068,-0.2526,-0.3645,0.0989,-58.8000,10.0500,8.8500,3.8800,3.1600,-8.4300,-0.1134,-0.0207,0.0164,-18.5000,-34.6875,19.0000,313.6875,23.3125,-160.5625,0
1777067465.295,5.2241,7.2281,-5.3989,-0.5335,0.7101,0.8737,-17.7000,43.5000,-14.2500,9.6295,0.2514,3.8235,-0.2308,-0.4064,0.1106,-57.3000,8.5500,8.1000,3.8800,3.2300,-8.3300,-0.0818,0.0011,0.0120,-18.5000,-34.6875,19.0000,313.6875,23.3125,-160.5625,0
1777067465.305,5.2385,7.4531,-5.3989,-0.5801,0.7075,0.8780,-18.7500,42.3000,-15.3000,9.5840,0.2251,3.6847,-0.2164,-0.4367,0.1210,-58.0500,10.5000,8.8500,3.8300,3.3800,-8.3600,-0.0578,0.0164,0.0098,-18.5000,-34.6875,19.0000,313.6875,23.3125,-160.5000,0
1777067465.310,5.3870,7.7596,-4.9799,-0.5780,0.6531,0.8825,-18.7500,42.3000,-15.3000,9.5840,0.2251,3.6847,-0.2164,-0.4367,0.1210,-58.0500,10.5000,8.8500,3.8300,3.3800,-8.3600,-0.0578,0.0164,0.0098,-18.5000,-34.6875,19.0000,313.6875,23.3125,-160.5000,0
1777067465.315,5.3870,7.7596,-4.9799,-0.5780,0.6531,0.8825,-19.9500,42.0000,-13.8000,9.6750,0.2131,3.5961,-0.2185,-0.4796,0.1244,-58.0500,10.5000,8.8500,3.7400,3.3000,-8.3400,-0.0240,0.0327,0.0011,-18.0000,-35.3750,19.5000,313.6875,23.3125,-160.4375,0
1777067465.320,5.4636,7.7141,-5.0733,-0.4565,0.6387,0.8940,-19.9500,42.0000,-13.8000,9.6750,0.2131,3.5961,-0.2185,-0.4796,0.1244,-58.0500,10.5000,8.8500,3.7400,3.3000,-8.3400,-0.0240,0.0327,0.0011,-18.0000,-35.3750,19.5000,313.6875,23.3125,-160.4375,0
1777067465.325,5.4636,7.7141,-5.0733,-0.4565,0.6387,0.8940,-19.5000,43.0500,-13.5000,9.4930,0.1149,3.4022,-0.2353,-0.4999,0.1378,-58.0500,10.5000,8.8500,3.8200,3.3000,-8.3800,0.0218,0.0491,0.0065,-18.0000,-35.3750,19.5000,313.6250,23.3125,-160.4375,0
1777067465.330,5.4468,7.7955,-5.1978,-0.3134,0.6512,0.9169,-19.5000,43.0500,-13.5000,9.4930,0.1149,3.4022,-0.2353,-0.4999,0.1378,-55.8000,9.3000,7.3500,3.8200,3.3000,-8.3800,0.0611,0.0556,0.0164,-18.0000,-35.3750,19.5000,313.6250,23.3750,-160.4375,0
1777067465.336,5.4468,7.7955,-5.1978,-0.3134,0.6512,0.9169,-19.3500,41.7000,-13.3500,9.4092,-0.1341,3.4524,-0.1996,-0.4975,0.1620,-55.8000,9.3000,7.3500,4.1400,3.1100,-8.6700,0.0611,0.0556,0.0164,-18.0000,-35.3750,19.5000,313.6250,23.3750,-160.4375,0
1777067465.345,5.4420,7.6543,-4.6711,-0.1895,0.6494,0.9465,-19.3500,41.7000,-13.3500,9.4044,-0.1724,3.2992,-0.2113,-0.5087,0.1732,-55.8000,9.3000,7.3500,4.2100,3.0300,-8.5500,0.0785,0.0535,0.0207,-18.0000,-35.3750,19.5000,313.6250,23.4375,-160.5000,0
1777067465.350,5.3750,7.5753,-4.9105,0.0187,0.6518,0.9579,-19.3500,41.7000,-13.3500,9.4044,-0.1724,3.2992,-0.2113,-0.5087,0.1732,-58.3500,9.3000,8.4000,4.2100,3.0300,-8.5500,0.0338,0.0327,0.0011,-18.0000,-35.3750,19.5000,313.6250,23.4375,-160.5000,0
1777067465.356,5.3750,7.5753,-4.9105,0.0187,0.6518,0.9579,-21.3000,40.5000,-15.9000,9.4403,-0.2179,3.0694,-0.2364,-0.5217,0.1966,-58.2000,10.6500,7.9500,3.9800,3.0500,-8.5000,0.0338,0.0327,0.0011,-18.0000,-35.3750,19.5000,313.6250,23.4375,-160.5000,0
1777067465.361,5.2337,7.3909,-5.2744,0.1641,0.6590,0.9747,-21.3000,40.5000,-15.9000,9.4499,-0.2897,2.9449,-0.2060,-0.5236,0.1996,-58.2000,10.6500,7.9500,3.9800,3.0500,-8.5000,0.0011,0.0207,-0.0153,-18.2500,-36.0625,20.6875,313.6250,23.4375,-160.5000,0
1777067465.366,5.2337,7.3909,-5.2744,0.2502,0.6616,1.0006,-20.8500,40.9500,-14.4000,9.4499,-0.2897,2.9449,-0.2060,-0.5236,0.1996,-58.9500,9.4500,9.0000,4.0200,3.1600,-8.4900,0.0011,0.0207,-0.0153,-18.2500,-36.0625,20.6875,313.6250,23.4375,-160.5000,0
1777067465.375,5.2577,7.0892,-5.2313,0.2502,0.6616,1.0006,-21.1500,37.6500,-15.4500,9.3470,-0.3663,2.9880,-0.1847,-0.5508,0.2073,-58.9500,9.4500,9.0000,4.1000,3.0300,-8.6200,-0.0175,0.0098,-0.0240,-18.2500,-36.0625,20.6875,313.6250,23.4375,-160.5000,0
1777067465.383,5.1858,6.9264,-5.0709,0.2332,0.7035,1.0150,-20.8500,36.4500,-15.7500,9.5146,-0.4501,2.9018,-0.1615,-0.5822,0.2153,-57.9000,8.7000,8.2500,4.0000,2.9100,-8.5100,-0.0458,-0.0011,-0.0371,-18.2500,-36.0625,20.6875,313.5625,23.4375,-160.4375,0
1777067465.388,5.6958,6.5721,-5.2577,0.3032,0.7333,1.0269,-20.8500,36.4500,-15.7500,9.5146,-0.4501,2.9018,-0.1615,-0.5822,0.2153,-57.9000,8.7000,8.2500,4.0000,2.9100,-8.5100,-0.0458,-0.0011,-0.0371,-18.2500,-36.0625,20.6875,313.5625,23.4375,-160.3750,0
1777067465.396,5.4636,6.0238,-4.9608,0.3120,0.7075,1.0291,-22.2000,36.4500,-15.7500,9.5768,-0.3639,2.6719,-0.1498,-0.5982,0.2217,-57.9000,8.7000,8.2500,4.0200,3.1200,-8.5000,-0.0785,-0.0175,-0.0513,-18.2500,-36.0625,20.6875,313.5625,23.4375,-160.3750,0
1777067465.403,5.4636,6.0238,-4.9608,0.3120,0.7075,1.0291,-22.2000,36.4500,-15.7500,9.5217,-0.3687,2.6336,-0.1292,-0.6017,0.2217,-59.5500,9.0000,7.6500,3.8300,3.2800,-8.3900,-0.0960,-0.0164,-0.0578,-18.2500,-36.0625,20.6875,313.5625,23.3750,-160.3125,0
1777067465.407,5.3486,5.8658,-5.3199,0.3163,0.6904,1.0237,-22.2000,36.4500,-15.7500,9.5217,-0.3687,2.6336,-0.1292,-0.6017,0.2217,-59.5500,9.0000,7.6500,3.8300,3.2800,-8.3900,-0.0960,-0.0164,-0.0578,-18.2500,-36.0625,20.6875,313.5625,23.3750,-160.3125,0
1777067465.412,5.3486,5.8658,-5.3199,0.3163,0.6904,1.0237,-23.2500,36.0000,-15.9000,9.4882,-0.2969,2.6671,-0.0690,-0.6027,0.2236,-59.5500,9.0000,7.6500,3.7600,3.2900,-8.3000,-0.0905,-0.0109,-0.0633,-19.5000,-36.0625,20.6875,313.5000,23.3750,-160.2500,0
1777067465.417,5.5833,5.8251,-4.7788,0.3051,0.6504,1.0200,-23.2500,36.0000,-15.9000,9.4882,-0.2969,2.6671,-0.0690,-0.6027,0.2236,-57.4500,9.1500,6.7500,3.7600,3.2900,-8.3000,-0.0905,-0.0109,-0.0633,-19.5000,-36.0625,20.6875,313.5000,23.3750,-160.2500,0
1777067465.422,5.5833,5.8251,-4.7788,0.3051,0.6504,1.0200,-23.5500,33.7500,-15.6000,9.4906,-0.1389,2.6624,0.0290,-0.6009,0.2342,-57.4500,9.1500,6.7500,3.6600,3.4400,-8.1800,-0.0622,-0.0065,-0.0567,-19.5000,-36.0625,20.6875,313.5000,23.3750,-160.1875,0
1777067465.427,5.4396,5.8107,-4.7381,0.2305,0.6257,1.0421,-23.5500,33.7500,-15.6000,9.4906,-0.1389,2.6624,0.0290,-0.6009,0.2342,-58.9500,9.4500,6.0000,3.6600,3.4400,-8.1800,-0.0622,-0.0065,-0.0567,-19.5000,-36.0625,20.6875,313.5000,23.3750,-160.1875,0
1777067465.435,5.7269,5.7413,-4.4724,0.1135,0.6414,1.0643,-23.5500,32.2500,-15.3000,9.5241,-0.1915,2.6193,0.1692,-0.5902,0.2457,-58.9500,9.4500,6.0000,3.5100,3.5100,-8.1700,0.0033,0.0098,-0.0382,-19.5000,-36.0625,20.6875,313.5000,23.3750,-160.2500,0
1777067465.445,5.8083,5.7940,-4.5418,-0.0320,0.6784,1.0736,-23.4000,31.2000,-15.7500,9.5361,-0.0072,2.6935,0.2862,-0.5798,0.2651,-57.3000,8.1000,5.8500,3.3200,3.7900,-7.8000,0.0993,0.0436,-0.0065,-19.5000,-36.0625,20.6875,313.5000,23.3750,-160.2500,0
1777067465.455,6.1268,5.7197,-4.6352,-0.0179,0.6912,1.0842,-23.4000,31.2000,-15.7500,9.3661,0.4453,2.9999,0.3667,-0.5654,0.2718,-57.3000,8.1000,6.9000,3.1700,3.8300,-7.8500,0.2411,0.0851,0.0382,-19.5000,-36.0625,20.6875,313.4375,23.4375,-160.3750,0
1777067465.460,6.1268,5.7197,-4.6352,-0.0179,0.6912,1.0842,-23.4000,31.2000,-15.7500,9.9886,0.0527,2.8874,0.1535,-0.6955,0.2483,-57.3000,8.1000,6.9000,3.1700,3.8300,-7.8500,0.2411,0.0851,0.0382,-19.5000,-36.0625,20.6875,313.4375,23.5000,-160.6250,0
1777067465.465,6.1244,5.8466,-4.3934,-0.0168,0.6885,1.0810,-24.1500,31.6500,-12.9000,9.9886,0.0527,2.8874,0.1535,-0.6955,0.2483,-57.3000,8.1000,6.9000,3.5400,3.8400,-8.3300,0.4538,0.1407,0.0927,-18.3750,-35.8750,19.8750,313.4375,23.5000,-160.6250,0
1777067465.470,6.1244,5.8466,-4.3934,-0.0168,0.6885,1.0810,-24.1500,31.6500,-12.9000,9.5313,-0.6297,2.7629,-0.0139,-0.7530,0.2507,-57.3000,9.3000,4.3500,3.5400,3.8400,-8.3300,0.4538,0.1407,0.0927,-18.3750,-35.8750,19.8750,313.4375,23.6250,-161.0000,0
1777067465.475,6.0190,5.7413,-4.3167,0.0461,0.6909,1.0765,-23.4000,30.9000,-13.3500,9.3302,-0.9697,2.7342,-0.0139,-0.7530,0.2507,-57.3000,9.3000,4.3500,4.9600,2.5600,-9.3400,0.6392,0.1691,0.1342,-18.3750,-35.8750,19.8750,313.4375,23.6250,-161.0000,0
1777067465.483,6.0717,5.7030,-4.5155,0.0949,0.7157,1.0693,-22.9500,29.4000,-10.8000,9.3302,-0.9697,2.7342,0.0160,-0.7845,0.3072,-57.3000,9.3000,4.3500,4.5800,1.6500,-9.0700,0.6294,0.1494,0.0993,-18.3750,-35.8750,19.8750,313.3750,23.7500,-161.3750,0
1777067465.488,6.0717,5.7030,-4.5155,0.0949,0.7157,1.0693,-22.9500,29.4000,-10.8000,9.1866,-1.0582,2.2745,-0.0767,-0.7530,0.3781,-59.7000,9.1500,4.9500,4.5800,1.6500,-9.0700,0.6294,0.1494,0.0993,-18.3750,-35.8750,19.8750,313.3125,23.7500,-161.6250,0
1777067465.496,6.2848,5.6048,-4.1372,0.1074,0.6507,1.0635,-24.1500,27.9000,-10.5000,9.6391,-0.8212,1.8531,-0.1522,-0.7735,0.4309,-59.7000,9.1500,4.9500,4.4400,2.2300,-8.7300,0.4014,0.0764,0.0153,-18.3750,-35.8750,19.8750,313.3125,23.8125,-161.6875,0
1777067465.505,6.2704,5.2505,-4.3766,0.1940,0.6475,1.0456,-24.1500,27.9000,-10.5000,9.6486,-0.6488,1.7430,-0.1535,-0.7879,0.4367,-59.8500,7.8000,5.5500,3.9500,3.0200,-8.5100,0.2007,0.0480,-0.0447,-18.3750,-35.8750,19.8750,313.3125,23.8125,-161.6875,0
1777067465.510,6.2704,5.2505,-4.3766,0.1940,0.6475,1.0456,-24.1500,27.9000,-10.5000,9.6486,-0.6488,1.7430,-0.1535,-0.7879,0.4367,-58.9500,7.5000,4.5000,3.9500,3.0200,-8.5100,0.2007,0.0480,-0.0447,-18.3750,-35.8750,19.8750,313.3125,23.8125,-161.6875,0
1777067465.515,6.5410,4.6064,-4.1875,0.2523,0.6134,1.0357,-24.4500,26.7000,-8.7000,9.3829,-0.5602,1.6496,-0.0911,-0.8130,0.3989,-58.9500,7.5000,4.5000,3.8500,3.3700,-8.3200,0.1462,0.0589,-0.0753,-18.7500,-35.0625,19.8750,313.2500,23.8125,-161.7500,0
1777067465.520,6.5410,4.6064,-4.1875,0.2523,0.6134,1.0357,-24.4500,26.7000,-8.7000,9.3829,-0.5602,1.6496,-0.0911,-0.8130,0.3989,-58.8000,8.5500,3.3000,3.8500,3.3700,-8.3200,0.1462,0.0589,-0.0753,-18.7500,-35.0625,19.8750,313.2500,23.8125,-161.7500,0
1777067465.525,6.7445,4.2042,-4.4269,0.2878,0.6451,1.0320,-24.7500,25.9500,-7.2000,9.1291,-0.7805,1.8483,0.0983,-0.8090,0.3445,-58.8000,8.5500,3.3000,3.9200,3.5500,-8.2700,0.1745,0.0633,-0.0764,-18.7500,-35.0625,19.8750,313.1250,23.8125,-161.8125,0
1777067465.529,6.7445,4.2042,-4.4269,0.2878,0.6451,1.0320,-24.7500,25.9500,-7.2000,9.1291,-0.7805,1.8483,0.0983,-0.8090,0.3445,-58.8000,8.5500,3.3000,3.9200,3.5500,-8.2700,0.2542,0.0622,-0.0633,-18.7500,-35.0625,19.8750,313.0625,23.8750,-161.9375,0
1777067465.536,7.0701,3.7062,-4.7022,0.2241,0.6318,1.0269,-24.1500,25.9500,-6.1500,9.1315,-1.3431,1.6328,0.1982,-0.7773,0.2926,-58.8000,8.5500,3.3000,3.8500,3.4100,-8.2800,0.2542,0.0622,-0.0633,-18.7500,-35.0625,19.8750,313.0000,23.8750,-162.1250,0
1777067465.545,7.5848,3.2585,-4.9847,0.2038,0.5910,1.0379,-26.2500,24.1500,-6.4500,9.3805,-1.7621,1.6305,0.2196,-0.7650,0.2502,-60.1500,7.5000,3.0000,3.9800,3.2100,-8.4700,0.3534,0.0545,-0.0447,-18.7500,-35.0625,19.8750,313.0000,23.8750,-162.1250,0
1777067465.555,7.5058,2.9473,-4.8363,0.0485,0.5369,1.0834,-26.2500,24.1500,-6.4500,9.4284,-2.1500,1.1923,0.0954,-0.7344,0.2483,-60.1500,7.5000,3.0000,4.0400,2.7900,-8.5500,0.4352,0.0415,-0.0175,-18.7500,-35.0625,19.8750,312.9375,23.8750,-162.3750,0
1777067465.560,7.4651,2.9137,-4.7669,-0.1343,0.4748,1.1197,-26.4000,24.7500,-4.9500,9.4284,-2.1500,1.1923,0.0954,-0.7344,0.2483,-59.4000,8.4000,1.2000,4.0400,2.7900,-8.5500,0.4352,0.0415,-0.0175,-18.7500,-35.0625,19.8750,312.8750,23.9375,-162.6250,0
1777067465.565,7.4651,2.9137,-4.7669,-0.1343,0.4748,1.1197,-26.4000,24.7500,-4.9500,9.4858,-2.4612,1.2019,-0.0682,-0.7163,0.2353,-59.4000,8.4000,1.2000,4.0600,2.6000,-8.6600,0.4723,0.0327,-0.0022,-18.3750,-34.3750,20.2500,312.8750,23.9375,-162.6250,0
1777067465.570,7.3717,2.8276,-4.9488,-0.2337,0.3706,1.1458,-27.3000,24.4500,-3.6000,9.4858,-2.4612,1.2019,-0.0682,-0.7163,0.2353,-58.3500,7.3500,1.0500,4.0600,2.6000,-8.6600,0.4723,0.0327,-0.0022,-18.3750,-34.3750,20.2500,312.8125,23.9375,-162.8750,0
1777067465.575,7.3717,2.8276,-4.9488,-0.2337,0.3706,1.1458,-27.3000,24.4500,-3.6000,9.6606,-2.5067,0.9553,-0.3072,-0.6941,0.2449,-58.3500,7.3500,1.0500,4.1100,2.3700,-8.7100,0.4636,0.0207,0.0098,-18.3750,-34.3750,20.2500,312.8125,23.9375,-162.8750,0
1777067465.582,7.3191,2.6983,-4.7573,-0.3800,0.2984,1.1658,-26.4000,25.0500,-2.4000,9.7252,-2.2601,0.7039,-0.3072,-0.6941,0.2449,-59.1000,7.3500,2.1000,4.0000,2.5500,-8.8000,0.4363,-0.0044,0.0196,-18.3750,-34.3750,20.2500,312.8125,23.9375,-163.1250,0
1777067465.586,7.3191,2.6983,-4.7573,-0.3800,0.2984,1.1658,-26.4000,25.0500,-2.4000,9.7252,-2.2601,0.7039,-0.4658,-0.6976,0.2350,-59.1000,7.3500,2.1000,4.0000,2.5500,-8.8000,0.4363,-0.0044,0.0196,-18.3750,-34.3750,20.2500,312.7500,23.9375,-163.3750,0
1777067465.596,7.4124,2.7964,-4.6376,-0.5399,0.2870,1.1858,-25.5000,23.4000,-2.2500,9.7468,-1.6017,0.9433,-0.5180,-0.7202,0.2289,-58.3500,8.1000,2.5500,3.9200,2.5900,-8.7700,0.3851,-0.0240,0.0262,-18.3750,-34.3750,20.2500,312.7500,23.9375,-163.5625,0
1777067465.606,7.6040,2.9808,-4.5274,-0.5726,0.2198,1.2025,-26.7000,25.2000,-1.2000,9.4020,-1.0606,0.9050,-0.5721,-0.7016,0.2038,-58.3500,8.1000,2.5500,4.0100,2.4300,-8.8500,0.3403,-0.0393,0.0360,-18.3750,-34.3750,20.2500,312.7500,23.9375,-163.5625,0
1777067465.611,7.5082,3.3303,-4.3503,-0.6227,0.1098,1.1972,-26.7000,25.2000,-1.2000,9.2584,-0.5243,0.6632,-0.5721,-0.7016,0.2038,-59.8500,6.9000,0.3000,4.0100,2.4300,-8.8500,0.3403,-0.0393,0.0360,-18.3750,-34.3750,20.2500,312.7500,23.9375,-163.5625,0
1777067465.616,7.5082,3.3303,-4.3503,-0.6227,0.1098,1.1972,-26.7000,25.2000,-1.2000,9.2584,-0.5243,0.6632,-0.5540,-0.6779,0.2001,-59.8500,6.9000,0.3000,4.0000,2.5300,-8.7100,0.2803,-0.0382,0.0415,-18.7500,-34.2500,21.0625,312.7500,23.8750,-163.7500,0
1777067465.620,7.0629,3.5721,-4.1779,-0.7226,0.0349,1.1892,-27.1500,24.7500,0.6000,9.3972,0.0263,0.6632,-0.4887,-0.6603,0.1985,-59.8500,6.9000,0.3000,4.0000,2.5300,-8.7100,0.2803,-0.0382,0.0415,-18.7500,-34.2500,21.0625,312.7500,23.8750,-163.7500,0
1777067465.626,7.0629,3.5721,-4.1779,-0.7226,0.0349,1.1892,-27.1500,24.7500,0.6000,9.3972,0.0263,0.6632,-0.4887,-0.6603,0.1985,-59.8500,6.9000,0.3000,4.0400,2.4800,-8.6100,0.2094,-0.0262,0.0425,-18.7500,-34.2500,21.0625,312.7500,23.8750,-163.8750,0
1777067465.631,6.7421,3.9768,-4.4676,-0.7496,-0.0021,1.1834,-25.3500,25.5000,3.1500,9.7181,0.5339,0.2490,-0.4458,-0.6757,0.2086,-58.6500,7.5000,0.1500,4.0400,2.4800,-8.6100,0.1756,-0.0295,0.0447,-18.7500,-34.2500,21.0625,312.7500,23.8750,-163.9375,0
1777067465.636,6.7421,3.9768,-4.4676,-0.7496,-0.0021,1.1834,-25.3500,25.5000,3.1500,9.7181,0.5339,0.2490,-0.4458,-0.6757,0.2086,-58.6500,7.5000,0.1500,3.9700,2.5600,-8.4600,0.1756,-0.0295,0.0447,-18.7500,-34.2500,21.0625,312.7500,23.8750,-164.0625,0
1777067465.646,6.7181,4.4317,-4.1851,-0.7402,-0.0048,1.1378,-25.6500,26.5500,3.1500,9.6869,1.0487,-0.1556,-0.2920,-0.6574,0.2009,-58.2000,6.0000,0.1500,3.6500,3.5000,-8.5900,0.1713,-0.0535,0.0600,-18.7500,-34.2500,21.0625,312.8125,23.8125,-164.2500,0
1777067465.656,6.9935,4.7645,-3.9696,-0.6528,-0.0152,1.0573,-28.2000,26.2500,3.4500,9.6510,1.1468,0.0192,-0.0882,-0.6670,0.1793,-60.3000,7.3500,-0.6000,3.6900,3.5100,-8.4100,0.2171,-0.0774,0.0971,-18.7500,-34.2500,21.0625,312.8125,23.8125,-164.2500,0
1777067465.661,7.0701,5.1739,-3.9385,-0.5492,-0.0863,0.9968,-28.2000,26.2500,3.4500,9.5002,0.9337,0.2107,0.1013,-0.6560,0.1657,-60.7500,6.9000,-1.0500,3.6900,3.5100,-8.4100,0.2171,-0.0774,0.0971,-18.7500,-33.8750,22.3750,312.8750,23.8125,-164.4375,0
1777067465.666,7.0701,5.1739,-3.9385,-0.5060,-0.1151,0.9542,-28.2000,26.2500,3.4500,9.5002,0.9337,0.2107,0.1013,-0.6560,0.1657,-60.7500,6.9000,-1.0500,3.7200,3.5200,-8.4400,0.3109,-0.0873,0.1549,-18.7500,-33.8750,22.3750,312.8750,23.8125,-164.4375,0
1777067465.671,6.6415,5.3127,-4.1611,-0.5060,-0.1151,0.9542,-27.1500,27.0000,5.7000,9.6223,0.6057,0.1197,0.3022,-0.6598,0.1676,-60.7500,6.9000,-1.0500,3.7200,3.5200,-8.4400,0.3109,-0.0873,0.1549,-18.7500,-33.8750,22.3750,312.9375,23.8125,-164.7500,0
1777067465.676,6.6415,5.3127,-4.1611,-0.4381,-0.0983,0.8913,-27.1500,27.0000,5.7000,9.6223,0.6057,0.1197,0.3022,-0.6598,0.1676,-60.7500,6.9000,-1.0500,3.8400,2.8300,-8.7300,0.4276,-0.1036,0.2138,-18.7500,-33.8750,22.3750,312.9375,23.8125,-164.7500,0
1777067465.685,6.9001,5.2816,-4.2234,-0.4010,-0.1636,0.8468,-27.9000,27.3000,6.3000,9.9599,-0.2586,-0.0359,0.2920,-0.6552,0.2174,-58.8000,6.9000,-1.8000,3.6200,2.9500,-8.9400,0.5051,-0.0993,0.2749,-18.7500,-33.8750,22.3750,313.0000,23.7500,-165.0625,0
1777067465.695,7.2137,5.0087,-4.3215,-0.3994,-0.2305,0.7973,-28.6500,27.3000,6.7500,10.1586,-0.6177,0.0886,0.2142,-0.6387,0.2547,-58.8000,6.9000,-1.8000,3.8000,2.9200,-8.9300,0.5421,-0.0142,0.3698,-18.7500,-33.8750,22.3750,313.1875,23.8125,-165.5000,0
1777067465.702,7.5633,4.9249,-4.3191,-0.3994,-0.2305,0.7973,-28.9500,26.5500,7.3500,10.2041,-0.9361,0.5387,0.0594,-0.6907,0.2638,-58.3500,5.8500,-2.5500,3.8100,2.9100,-9.0000,0.5421,-0.0142,0.3698,-18.7500,-33.8750,22.3750,313.3125,23.8750,-165.8750,0
1777067465.707,7.9344,4.4460,-4.3742,-0.4053,-0.2547,0.7290,-28.9500,26.5500,7.3500,10.4698,-1.0606,0.1939,-0.0642,-0.7306,0.2702,-58.3500,5.8500,-2.5500,3.8100,2.9100,-9.0000,0.5421,-0.0142,0.3698,-18.7500,-33.8750,22.3750,313.3125,23.8750,-165.8750,0
1777067465.712,7.9344,4.4460,-4.3742,-0.4053,-0.2547,0.7290,-28.9500,26.5500,7.3500,10.4698,-1.0606,0.1939,-0.0642,-0.7306,0.2702,-59.1000,6.9000,-1.3500,3.8100,2.9100,-9.0000,0.5880,0.1004,0.4451,-18.3750,-33.7500,22.3750,313.5000,24.0000,-166.3125,0
1777067465.717,8.3127,4.1707,-4.5322,-0.3898,-0.3262,0.6678,-28.9500,26.5500,7.3500,10.4627,-0.8715,-0.0072,-0.2577,-0.6899,0.2715,-59.1000,6.9000,-1.3500,3.9200,2.8700,-8.9400,0.5880,0.1004,0.4451,-18.3750,-33.7500,22.3750,313.5000,24.0000,-166.3125,0
1777067465.721,8.3127,4.1707,-4.5322,-0.3898,-0.3262,0.6678,-29.8500,25.6500,9.3000,10.4627,-0.8715,-0.0072,-0.2577,-0.6899,0.2715,-57.6000,4.9500,-3.3000,3.9200,2.8700,-8.9400,0.5880,0.1004,0.4451,-18.3750,-33.7500,22.3750,313.6250,24.0625,-166.7500,0
1777067465.727,8.5521,4.1468,-4.7621,-0.3800,-0.4583,0.6320,-29.8500,25.6500,9.3000,10.7524,-0.3711,-0.2179,-0.2617,-0.7152,0.2422,-57.6000,4.9500,-3.3000,3.9500,2.9800,-8.9900,0.5880,0.1004,0.4451,-18.3750,-33.7500,22.3750,313.6250,24.0625,-166.7500,0
1777067465.735,8.5234,4.0797,-5.0350,-0.3571,-0.5351,0.5817,-30.7500,27.7500,7.8000,10.8122,-0.1341,-0.4836,-0.2617,-0.7152,0.2422,-60.9000,7.2000,-3.0000,3.9600,3.1900,-9.1700,0.6392,0.1473,0.4963,-18.3750,-33.7500,22.3750,313.8125,24.2500,-167.1875,0
1777067465.743,8.5234,4.0797,-5.0350,-0.3571,-0.5351,0.5817,-28.9500,26.5500,9.6000,10.8122,-0.1341,-0.4836,-0.2505,-0.6891,0.2161,-60.9000,7.2000,-3.0000,4.1400,2.8300,-9.3400,0.8149,0.2160,0.6523,-18.3750,-33.7500,22.3750,314.0625,24.4375,-167.8125,0
1777067465.748,8.1403,4.2713,-5.4995,-0.3357,-0.5308,0.5348,-29.7000,27.7500,9.6000,11.3006,-0.0120,-1.1420,-0.2057,-0.6883,0.2142,-60.9000,7.2000,-3.0000,4.1400,2.8300,-9.3400,0.8149,0.2160,0.6523,-18.3750,-33.7500,22.3750,314.3750,24.6250,-168.4375,0
1777067465.756,8.1786,4.5705,-6.1316,-0.3589,-0.5196,0.4836,-29.7000,27.7500,9.6000,11.6167,-0.0096,-2.2170,-0.2302,-0.6249,0.2153,-59.4000,6.0000,-4.9500,4.3000,2.3400,-9.4800,0.8781,0.2673,0.7243,-18.3750,-33.7500,22.3750,314.3750,24.6250,-168.4375,0
1777067465.761,8.1786,4.5705,-6.1316,-0.3589,-0.5196,0.4836,-29.7000,27.7500,9.6000,11.6167,-0.0096,-2.2170,-0.2302,-0.6249,0.2153,-59.7000,7.2000,-4.2000,4.3000,2.3400,-9.4800,0.8781,0.2673,0.7243,-19.5625,-32.6875,22.3750,314.6875,24.9375,-169.0625,0
1777067465.766,8.6072,3.9983,-6.4596,-0.3560,-0.4226,0.3914,-29.7000,27.7500,9.6000,11.5185,0.3232,-1.3048,-0.1732,-0.5415,0.1255,-59.7000,7.2000,-4.2000,4.4000,2.0100,-9.5000,0.7996,0.3534,0.8083,-19.5625,-32.6875,22.3750,314.6875,24.9375,-169.0625,0
1777067465.771,8.6072,3.9983,-6.4596,-0.3560,-0.4226,0.3914,-30.1500,27.7500,10.6500,11.5185,0.3232,-1.3048,-0.1732,-0.5415,0.1255,-58.9500,7.2000,-3.4500,4.4000,2.0100,-9.5000,0.7996,0.3534,0.8083,-19.5625,-32.6875,22.3750,315.3750,25.3750,-169.2500,0
1777067465.776,8.9232,3.2465,-6.6032,-0.3893,-0.3139,0.2667,-29.1000,28.2000,11.5500,11.1115,0.4549,-1.7286,-0.4639,-0.5777,-0.1258,-58.9500,7.2000,-3.4500,3.1400,5.3500,-8.0600,-0.1822,0.5552,1.2217,-19.5625,-32.6875,22.3750,316.2500,25.9375,-169.0000,0
1777067465.786,8.7412,2.8994,-7.2233,-0.5494,-0.3898,0.2012,-30.6000,28.2000,11.5500,10.3645,-0.8715,-1.4700,-0.5849,-0.4663,-0.3467,-58.2000,5.2500,-4.5000,7.6200,12.2400,-8.0000,-1.0548,0.7690,1.4170,-19.5625,-32.6875,22.3750,316.2500,25.9375,-169.0000,0
1777067465.796,8.2361,3.1412,-8.1499,-0.6947,-0.3677,0.1119,-31.5000,26.5500,12.7500,10.1610,-2.0877,-0.8571,-0.9489,-0.5457,-0.4445,-59.1000,6.6000,-4.8000,6.5900,4.6000,-8.2900,-0.1124,0.4003,1.7890,-19.5625,-32.6875,22.3750,317.2500,26.3125,-169.3750,0
1777067465.806,7.9607,3.4668,-8.1403,-0.8207,-0.4799,0.0488,-31.2000,28.8000,11.4000,10.6973,-2.6240,-0.2083,-1.8005,-0.5804,-0.4357,-57.3000,6.6000,-4.8000,5.1400,0.7700,-9.2600,-0.3469,0.4712,2.1926,-19.5625,-32.6875,22.3750,318.5000,26.8125,-169.8125,0
1777067465.811,7.9607,3.4668,-8.1403,-0.8207,-0.4799,0.0488,-31.2000,28.8000,11.4000,10.6973,-2.6240,-0.2083,-1.8005,-0.5804,-0.4357,-57.3000,6.6000,-4.8000,5.1400,0.7700,-9.2600,-0.3469,0.4712,2.1926,-19.5625,-32.6875,22.3750,318.5000,26.8125,-169.8125,0
1777067465.816,8.1044,3.3662,-7.4723,-0.9723,-0.3997,0.0184,-31.2000,28.8000,11.4000,10.0173,-2.5642,0.1437,-2.2623,-0.6384,-0.4146,-57.3000,6.6000,-4.8000,4.8900,1.8300,-8.7500,-0.9032,0.4385,2.5733,-21.0625,-30.3750,23.5625,320.0000,27.3125,-170.0000,0
1777067465.820,8.1044,3.3662,-7.4723,-0.9723,-0.3997,0.0184,-31.2000,28.8000,11.4000,10.0173,-2.5642,0.1437,-2.2623,-0.6384,-0.4146,-58.6500,6.7500,-4.5000,4.8900,1.8300,-8.7500,-0.9032,0.4385,2.5733,-21.0625,-30.3750,23.5625,320.0000,27.3125,-170.0000,0
1777067465.825,7.5633,3.0526,-6.3375,-1.2289,-0.4554,0.0453,-31.2000,28.8000,11.4000,9.0668,-2.0806,0.4645,-2.7582,-0.6883,-0.4836,-58.6500,6.7500,-4.5000,6.1100,4.9800,-8.6200,-1.3941,0.2891,2.7838,-21.0625,-30.3750,23.5625,321.7500,27.6875,-170.0000,0
1777067465.830,7.5633,3.0526,-6.3375,-1.2289,-0.4554,0.0453,-29.8500,26.7000,12.9000,9.0668,-2.0806,0.4645,-2.7582,-0.6883,-0.4836,-58.6500,6.7500,-4.5000,6.1100,4.9800,-8.6200,-1.3788,-0.0076,2.8405,-21.0625,-30.3750,23.5625,323.5000,28.0000,-170.0625,0
1777067465.836,7.0222,2.7725,-5.4277,-1.4115,-0.3880,0.0554,-29.7000,28.5000,13.0500,8.7652,-2.1548,0.1413,-3.0084,-0.6776,-0.5860,-57.9000,7.5000,-4.9500,6.0300,3.6000,-8.1600,-1.3788,-0.0076,2.8405,-21.0625,-30.3750,23.5625,325.3125,28.1875,-169.9375,0
1777067465.846,6.8259,2.5666,-4.6232,-1.5620,-0.3232,0.1529,-31.2000,28.5000,13.5000,8.5210,-1.6855,0.3903,-2.8320,-0.5804,-0.6368,-58.8000,6.1500,-5.5500,5.7100,1.0500,-8.2500,-1.6242,-0.1364,2.7980,-21.0625,-30.3750,23.5625,325.3125,28.1875,-169.9375,0
1777067465.856,6.8211,2.4684,-4.1755,-1.7906,-0.2566,0.2411,-31.3500,27.1500,14.7000,8.1762,-1.3551,0.1580,-2.8112,-0.4996,-0.7152,-58.3500,8.5500,-4.3500,6.0300,1.3000,-7.0400,-1.9166,-0.1625,2.8111,-21.0625,-30.3750,23.5625,327.1250,28.3750,-169.7500,0
1777067465.861,7.0294,2.4828,-4.1731,-2.0014,-0.2289,0.3488,-31.3500,27.1500,14.7000,8.4204,-1.5131,-0.1077,-2.6745,-0.3501,-0.7706,-58.6500,7.9500,-4.2000,6.0300,1.3000,-7.0400,-1.9166,-0.1625,2.8111,-21.0625,-30.3750,23.5625,327.1250,28.3750,-169.7500,0
1777067465.866,7.0294,2.4828,-4.1731,-2.0014,-0.2289,0.3488,-31.3500,27.1500,14.7000,8.4204,-1.5131,-0.1077,-2.6745,-0.3501,-0.7706,-58.6500,7.9500,-4.2000,6.5200,1.8100,-7.9200,-2.2373,-0.2334,2.6758,-24.5000,-29.0000,22.0625,328.9375,28.5000,-169.3125,0
1777067465.870,7.2257,2.5546,-4.2090,-2.1013,-0.2601,0.4322,-31.3500,27.1500,14.7000,8.7125,-0.5435,-0.0168,-2.5879,-0.1908,-0.8314,-58.6500,7.9500,-4.2000,6.5200,1.8100,-7.9200,-2.2373,-0.2334,2.6758,-24.5000,-29.0000,22.0625,328.9375,28.5000,-169.3125,0
1777067465.875,7.2257,2.5546,-4.2090,-2.1013,-0.2601,0.4322,-31.3500,28.6500,14.7000,8.7125,-0.5435,-0.0168,-2.5879,-0.1908,-0.8314,-55.2000,7.9500,-4.2000,9.3100,6.5300,-5.9700,-2.5242,-0.2334,2.4456,-24.5000,-29.0000,22.0625,330.6875,28.6250,-168.6250,0
1777067465.880,7.2712,2.7653,-4.8267,-2.1162,-0.2817,0.4951,-31.3500,28.6500,14.7000,8.6095,0.6776,0.1245,-2.7177,-0.1007,-0.9345,-55.2000,7.9500,-4.2000,9.3100,6.5300,-5.9700,-2.7140,-0.0982,1.7584,-24.5000,-29.0000,22.0625,332.0000,28.8125,-167.6875,0
1777067465.887,7.2712,2.7653,-4.8267,-2.1162,-0.2817,0.4951,-32.5500,27.0000,17.4000,8.6095,0.6776,0.1245,-2.7177,-0.1007,-0.9345,-55.2000,7.9500,-4.2000,7.5400,9.3400,-7.8300,-2.7140,-0.0982,1.7584,-24.5000,-29.0000,22.0625,333.0625,28.6875,-166.8750,0
1777067465.896,7.3622,3.0335,-5.4755,-2.0579,-0.2939,0.4919,-30.4500,27.7500,17.7000,8.5880,1.8866,-0.2155,-2.4869,0.0280,-0.9846,-56.7000,10.3500,-2.4000,6.3900,9.9400,-5.4500,-2.1893,-0.4767,1.2261,-24.5000,-29.0000,22.0625,333.0625,28.6875,-166.8750,0
1777067465.906,7.5130,3.3375,-5.9687,-1.9020,-0.3277,0.4503,-31.2000,28.5000,17.7000,8.5138,2.9449,-0.2753,-1.9947,0.1226,-0.9779,-57.3000,9.7500,-3.3000,7.2600,4.7800,-8.0300,-1.5904,-0.4636,0.7712,-24.5000,-29.0000,22.0625,333.7500,28.5000,-166.2500,0
1777067465.911,7.3957,3.7828,-5.7197,-1.7152,-0.3517,0.3880,-31.2000,28.5000,17.7000,8.6024,2.6624,-0.3998,-1.4416,0.2571,-0.9310,-56.2500,10.6500,-3.3000,7.2600,4.7800,-8.0300,-1.5904,-0.4636,0.7712,-24.5000,-29.0000,22.0625,333.7500,28.5000,-166.2500,0
1777067465.916,7.3957,3.7828,-5.7197,-1.7152,-0.3517,0.3880,-31.2000,28.5000,17.7000,8.6024,2.6624,-0.3998,-1.4416,0.2571,-0.9310,-56.2500,10.6500,-2.4000,5.9100,3.6800,-7.3300,-1.3363,-0.6141,0.3763,-28.3750,-28.2500,18.0625,334.1875,28.2500,-165.6250,0
1777067465.921,7.1658,4.2521,-4.8315,-1.5607,-0.3483,0.3120,-31.2000,28.5000,17.7000,8.9304,1.7885,-0.3903,-0.8577,0.2771,-0.8905,-56.2500,10.6500,-2.4000,5.9100,3.6800,-7.3300,-1.3363,-0.6141,0.3763,-28.3750,-28.2500,18.0625,334.1875,28.2500,-165.6250,0
1777067465.926,7.1658,4.2521,-4.8315,-1.5607,-0.3483,0.3120,-31.5000,27.0000,19.5000,8.9304,1.7885,-0.3903,-0.8577,0.2771,-0.8905,-55.0500,10.0500,-2.1000,5.8400,4.0700,-7.4700,-1.3777,-0.6621,0.0764,-28.3750,-28.2500,18.0625,334.4375,27.8750,-164.9375,0
1777067465.933,6.4667,4.8267,-3.8092,-1.4437,-0.3419,0.2880,-31.5000,27.0000,19.5000,8.6933,1.4006,-0.7470,-0.7493,0.2702,-0.8487,-55.9500,9.4500,-2.4000,5.1600,2.6200,-7.4700,-1.2305,-0.8061,-0.0087,-28.3750,-28.2500,18.0625,334.6875,27.5000,-164.3125,0
1777067465.937,5.9041,5.2194,-2.8778,-1.3110,-0.2830,0.2382,-31.9500,27.0000,19.5000,8.9663,0.3687,-0.5674,-0.7906,0.2539,-0.8135,-55.9500,9.4500,-2.4000,5.1600,2.6200,-7.4700,-1.2305,-0.8061,-0.0087,-28.3750,-28.2500,18.0625,334.9375,27.0625,-163.6875,0
1777067465.946,5.9041,5.2194,-2.8778,-1.2497,-0.1585,0.1908,-34.2000,27.1500,21.4500,9.4739,-0.1676,-0.9697,-0.7906,0.2539,-0.8135,-55.0500,10.9500,-2.1000,2.7500,-1.2600,-7.8100,-1.2752,-0.7461,0.0480,-28.3750,-28.2500,18.0625,335.2500,26.7500,-163.0000,0
1777067465.956,5.9376,5.2577,-1.3910,-1.2121,-0.0005,0.1577,-33.3000,28.0500,21.3000,9.6175,-0.8332,-1.3144,-0.9489,0.1468,-0.7690,-55.0500,10.9500,-2.1000,2.7600,-1.2300,-7.4200,-1.4563,-0.6327,0.1625,-28.3750,-28.2500,18.0625,335.2500,26.7500,-163.0000,0
1777067465.961,5.9376,5.2577,-1.3910,-1.2121,-0.0005,0.1577,-33.3000,28.0500,21.3000,9.6175,-0.8332,-1.3144,-1.0818,0.0770,-0.6893,-55.0500,10.9500,-2.1000,2.7600,-1.2300,-7.4200,-1.4563,-0.6327,0.1625,-28.3750,-28.2500,18.0625,335.7500,26.5625,-162.3125,0
1777067465.966,6.1914,5.2218,-1.1516,-1.0904,0.1679,0.1223,-33.3000,28.0500,21.3000,9.5098,-1.3240,-0.8906,-1.1594,0.0549,-0.6078,-54.0000,11.4000,-0.4500,2.3600,-1.2600,-7.2200,-1.4672,-0.5029,0.3752,-28.0625,-29.0000,16.5625,335.7500,26.5625,-162.3125,0
1777067465.971,6.1914,5.2218,-1.1516,-1.0904,0.1679,0.1223,-33.3000,28.0500,21.3000,9.5098,-1.3240,-0.8906,-1.1594,0.0549,-0.6078,-54.0000,11.4000,-0.4500,2.3600,-1.2600,-7.2200,-1.4672,-0.5029,0.3752,-28.0625,-29.0000,16.5625,336.3125,26.5625,-161.6875,0
1777067465.976,6.8115,5.0901,-1.6281,-0.8964,0.2507,0.0970,-33.1500,27.9000,22.2000,9.2703,-1.5131,-0.7230,-1.1876,0.0861,-0.5292,-55.0500,10.5000,-1.0500,3.9400,-1.0600,-8.2600,-1.4115,-0.2225,0.6370,-28.0625,-29.0000,16.5625,336.3125,26.5625,-161.6875,0
1777067465.985,6.8115,5.0901,-1.6281,-0.8964,0.2507,0.0970,-31.6500,28.6500,23.2500,8.9878,-1.2977,-1.2570,-1.1876,0.0861,-0.5292,-55.9500,9.4500,-1.6500,4.4700,-0.5600,-8.4500,-1.3537,-0.0447,0.7745,-28.0625,-29.0000,16.5625,336.8750,26.6875,-161.1875,0
1777067465.989,7.0773,4.9344,-2.3703,-0.7312,0.2577,0.0933,-31.6500,28.6500,23.2500,8.9878,-1.2977,-1.2570,-1.2886,0.1236,-0.4695,-55.9500,9.4500,-1.6500,4.4700,-0.5600,-8.4500,-1.3537,-0.0447,0.7745,-28.0625,-29.0000,16.5625,337.5000,26.8125,-160.6250,0
1777067465.997,7.3717,4.8387,-3.5386,-0.5433,0.2044,0.0765,-34.5000,28.0500,22.0500,9.1985,-1.4509,-1.1372,-1.2750,0.1911,-0.4034,-54.4500,10.6500,-1.9500,4.8500,0.3300,-8.6000,-1.3079,0.0087,0.7734,-28.0625,-29.0000,16.5625,338.0625,26.9375,-160.1250,0
1777067466.006,7.6231,4.8554,-4.7142,-0.3720,0.1444,0.0781,-33.7500,27.7500,23.1000,9.0812,-0.7590,-0.7829,-1.2625,0.1961,-0.3331,-52.6500,12.0000,-1.8000,5.6300,0.9100,-8.5700,-1.2403,0.0229,0.7134,-28.0625,-29.0000,16.5625,338.0625,26.9375,-160.1250,0
1777067466.011,7.6231,4.8554,-4.7142,-0.3720,0.1444,0.0781,-33.7500,27.7500,23.1000,9.0812,-0.7590,-0.7829,-1.2625,0.1961,-0.3331,-52.6500,12.0000,-1.8000,5.6300,0.9100,-8.5700,-1.2403,0.0229,0.7134,-28.0625,-29.0000,16.5625,338.0625,26.9375,-160.1250,0
1777067466.016,7.4436,5.0015,-5.5282,-0.3613,0.0663,0.0917,-33.7500,27.7500,23.1000,8.8873,-0.1125,-0.8954,-1.3480,0.2427,-0.2809,-53.7000,11.1000,-0.4500,5.1900,0.4900,-8.0000,-1.1421,-0.0491,0.6458,-27.5000,-29.3750,15.1875,338.5625,27.0625,-159.6875,0
1777067466.021,7.4436,5.0015,-5.5282,-0.3613,0.0663,0.0917,-33.7500,27.7500,23.1000,8.8873,-0.1125,-0.8954,-1.3480,0.2427,-0.2809,-53.7000,11.1000,-0.4500,5.1900,0.4900,-8.0000,-1.1421,-0.0491,0.6458,-27.5000,-29.3750,15.1875,338.5625,27.0625,-159.6875,0
1777067466.026,7.2856,5.2146,-5.6288,-0.3861,-0.0320,0.1021,-33.7500,27.7500,23.1000,8.9184,0.2682,-0.7997,-1.2452,0.2657,-0.2084,-53.7000,11.1000,-0.4500,4.4100,0.3500,-7.7400,-1.1181,-0.0644,0.5629,-27.5000,-29.3750,15.1875,339.0625,27.1250,-159.2500,0
1777067466.031,7.2856,5.2146,-5.6288,-0.3861,-0.0320,0.1021,-33.7500,27.7500,23.1000,8.9184,0.2682,-0.7997,-1.2452,0.2657,-0.2084,-53.7000,11.1000,-0.4500,4.4100,0.3500,-7.7400,-1.0952,0.0207,0.4811,-27.5000,-29.3750,15.1875,339.5000,27.2500,-158.7500,0
1777067466.037,6.8498,5.3558,-5.0757,-0.5566,-0.1271,0.1332,-33.0000,28.0500,22.8000,8.8633,0.7973,-0.9146,-0.9888,0.2904,-0.1487,-53.4000,11.2500,0.3000,4.2700,0.5600,-7.6100,-1.0952,0.0207,0.4811,-27.5000,-29.3750,15.1875,339.8125,27.3750,-158.2500,0
1777067466.047,6.7109,5.0398,-4.5442,-0.8100,-0.0474,0.1620,-33.3000,30.3000,21.6000,8.7987,0.9313,-1.1851,-0.7330,0.3123,-0.1055,-54.1500,12.0000,0.0000,4.6800,0.8100,-7.6700,-1.0363,0.1189,0.4123,-27.5000,-29.3750,15.1875,340.1250,27.5625,-157.8125,0
1777067466.056,6.9097,4.7238,-4.4484,-0.8271,-0.0298,0.1847,-32.8500,30.1500,23.2500,9.1530,0.9122,-1.2809,-0.4876,0.3643,-0.0640,-53.2500,11.8500,-0.1500,4.9200,1.0600,-7.7800,-0.9588,0.1942,0.3469,-27.5000,-29.3750,15.1875,340.1250,27.5625,-157.8125,0
1777067466.061,6.9097,4.7238,-4.4484,-0.8271,-0.0298,0.1847,-33.7500,29.2500,23.8500,9.2775,0.6177,-1.4748,-0.4876,0.3643,-0.0640,-53.2500,11.8500,-0.1500,4.9200,1.0600,-7.7800,-0.9588,0.1942,0.3469,-27.5000,-29.3750,15.1875,340.3750,27.7500,-157.3750,0
1777067466.066,7.1754,4.4628,-4.4197,-0.7394,-0.0269,0.2086,-33.7500,29.2500,23.8500,9.2775,0.6177,-1.4748,-0.3467,0.4173,-0.0245,-54.0000,11.8500,-0.1500,4.9200,1.3700,-7.7400,-0.8890,0.2411,0.2629,-28.0000,-29.1875,12.8750,340.3750,27.7500,-157.3750,0
1777067466.071,7.1754,4.4628,-4.4197,-0.7394,-0.0269,0.2086,-33.7500,29.2500,23.8500,9.4332,0.1293,-1.2929,-0.3467,0.4173,-0.0245,-54.0000,11.8500,-0.1500,4.9200,1.3700,-7.7400,-0.8890,0.2411,0.2629,-28.0000,-29.1875,12.8750,340.5625,27.9375,-156.8750,0
1777067466.076,7.3143,4.5322,-4.4149,-0.5721,0.0274,0.2166,-33.7500,29.2500,23.8500,9.4332,0.1293,-1.2929,-0.1751,0.4519,0.0037,-54.0000,11.8500,-0.1500,4.8400,2.2400,-7.7800,-0.8268,0.2978,0.1582,-28.0000,-29.1875,12.8750,340.5625,27.9375,-156.8750,0
1777067466.086,7.3310,4.5657,-4.5657,-0.4309,0.1124,0.2009,-33.1500,28.9500,23.5500,10.5680,-0.1365,-1.0247,-0.0765,0.4165,0.0120,-52.9500,12.3000,-0.1500,5.0100,2.7200,-7.8500,-0.7985,0.3862,0.0349,-28.0000,-29.1875,12.8750,340.6875,28.1250,-156.4375,0
1777067466.095,7.4148,4.6088,-4.6902,-0.2838,0.1354,0.1921,-34.2000,27.9000,24.7500,9.5385,0.1101,-0.6488,-0.1116,0.4610,0.0237,-52.9500,12.3000,-0.1500,5.0600,3.1400,-7.9700,-0.7669,0.4287,-0.0862,-28.0000,-29.1875,12.8750,340.6875,28.3125,-155.9375,0
1777067466.100,7.4148,4.6088,-4.6902,-0.2838,0.1354,0.1921,-34.2000,27.9000,24.7500,9.7971,0.3232,-0.9026,-0.1116,0.4610,0.0237,-52.9500,12.3000,-0.1500,5.0600,3.1400,-7.9700,-0.6992,0.4516,-0.1778,-28.0000,-29.1875,12.8750,340.6250,28.5000,-155.4375,0
1777067466.107,7.5896,4.7692,-4.6232,-0.2324,0.0522,0.2105,-33.6000,27.4500,25.0500,9.7971,0.3232,-0.9026,-0.1884,0.5068,0.0450,-53.2500,11.1000,1.6500,4.7200,3.1200,-8.3600,-0.6992,0.4516,-0.1778,-28.0000,-29.1875,12.8750,340.6250,28.5000,-155.4375,0
1777067466.112,7.6279,5.0159,-4.5250,-0.2747,-0.0101,0.2145,-34.0500,28.5000,24.1500,9.9216,0.5100,-1.0965,-0.2009,0.4850,0.0823,-53.2500,11.1000,1.6500,4.7200,3.1200,-8.3600,-0.6992,0.4516,-0.1778,-28.6875,-30.0000,10.3750,340.5000,28.6875,-154.9375,0
1777067466.117,7.6279,5.0159,-4.5250,-0.2747,-0.0101,0.2145,-34.0500,28.5000,24.1500,9.9216,0.5100,-1.0965,-0.2009,0.4850,0.0823,-53.4000,11.2500,1.8000,4.6900,2.9600,-9.2200,-0.6534,0.4789,-0.2760,-28.6875,-30.0000,10.3750,340.5000,28.6875,-154.9375,0
1777067466.122,7.5561,5.1763,-4.3287,-0.4050,-0.0695,0.1953,-34.0500,28.5000,24.1500,9.9838,0.5698,-1.2857,-0.1881,0.4695,0.1053,-53.4000,11.2500,1.8000,4.6900,2.9600,-9.2200,-0.6534,0.4789,-0.2760,-28.6875,-30.0000,10.3750,340.3125,28.8125,-154.4375,0
1777067466.127,7.5561,5.1763,-4.3287,-0.4050,-0.0695,0.1953,-34.0500,28.5000,24.1500,9.9838,0.5698,-1.2857,-0.1881,0.4695,0.1053,-53.2500,11.8500,1.2000,4.9900,3.0400,-9.3800,-0.5683,0.4058,-0.3894,-28.6875,-30.0000,10.3750,340.3125,28.8125,-154.4375,0
1777067466.134,7.5800,5.1715,-4.0294,-0.5300,-0.0354,0.1887,-34.0500,28.0500,24.4500,10.1251,0.4956,-1.3910,-0.1785,0.4623,0.1210,-53.2500,11.8500,1.2000,4.5200,3.5400,-9.4800,-0.3578,0.2629,-0.3872,-28.6875,-30.0000,10.3750,340.1250,28.8125,-154.1250,0
1777067466.138,7.5800,5.1715,-4.0294,-0.5300,-0.0354,0.1887,-34.0500,28.0500,24.4500,10.2400,0.1796,-1.4700,-0.1785,0.4623,0.1210,-52.6500,12.9000,2.8500,4.5200,3.5400,-9.4800,-0.3578,0.2629,-0.3872,-28.6875,-30.0000,10.3750,340.0000,28.8750,-154.0000,0
1777067466.147,7.8314,5.0494,-3.8738,-0.6406,0.0600,0.1772,-34.8000,28.5000,24.9000,10.2400,0.1796,-1.4700,-0.1495,0.4269,0.1236,-52.6500,12.9000,2.8500,3.9700,2.4600,-9.6300,-0.0785,0.1516,-0.2367,-28.6875,-30.0000,10.3750,339.9375,28.8750,-154.0000,0
1777067466.157,8.0086,4.8770,-3.8738,-0.6400,0.1196,0.1812,-35.5500,29.2500,25.9500,10.4794,0.0646,-1.4533,-0.2190,0.3981,0.1069,-54.0000,11.8500,2.7000,3.6800,2.0800,-9.7600,0.0175,0.0480,-0.0633,-28.6875,-30.0000,10.3750,339.9375,28.8750,-154.0000,0
1777067466.161,8.0756,4.9081,-3.8259,-0.5007,0.0845,0.1783,-34.0500,28.8000,24.1500,10.6398,-0.1724,-1.2594,-0.2942,0.3691,0.0834,-54.0000,11.8500,2.7000,3.6800,2.0800,-9.7600,0.0175,0.0480,-0.0633,-28.6875,-30.0000,10.3750,339.9375,28.8750,-154.0000,0
1777067466.166,8.0756,4.9081,-3.8259,-0.5007,0.0845,0.1783,-34.0500,28.8000,24.1500,10.6398,-0.1724,-1.2594,-0.2942,0.3691,0.0834,-54.0000,11.8500,2.7000,3.6600,2.2600,-9.9600,-0.0654,-0.0469,0.0807,-28.1875,-30.7500,8.8750,340.0000,28.8750,-153.9375,0
1777067466.171,7.9990,4.9752,-3.7948,-0.3677,-0.0061,0.1503,-34.0500,28.8000,24.1500,10.6686,-0.2442,-0.9002,-0.3645,0.3248,0.0743,-54.0000,11.8500,2.7000,3.6600,2.2600,-9.9600,-0.0654,-0.0469,0.0807,-28.1875,-30.7500,8.8750,340.0000,28.8750,-153.9375,0
1777067466.176,7.9990,4.9752,-3.7948,-0.3677,-0.0061,0.1503,-34.0500,28.8000,24.1500,10.6686,-0.2442,-0.9002,-0.3645,0.3248,0.0743,-53.1000,11.7000,1.3500,3.9100,3.4600,-9.9700,-0.2094,-0.1604,0.1898,-28.1875,-30.7500,8.8750,340.1875,28.8125,-153.9375,0
1777067466.180,8.0325,4.9608,-3.8571,-0.2902,-0.0679,0.1652,-33.3000,28.0500,26.2500,10.6279,-0.0383,-0.9744,-0.5033,0.2801,0.0666,-53.1000,11.7000,1.3500,3.9100,3.4600,-9.9700,-0.2934,-0.3098,0.2662,-28.1875,-30.7500,8.8750,340.4375,28.7500,-153.8750,0
1777067466.187,8.0325,4.9608,-3.8571,-0.2902,-0.0679,0.1652,-33.3000,28.0500,26.2500,10.6853,0.1748,-1.1540,-0.6350,0.2470,0.0509,-52.6500,11.7000,2.8500,3.6700,4.0100,-9.8200,-0.2934,-0.3098,0.2662,-28.1875,-30.7500,8.8750,340.6875,28.6250,-153.8125,0
1777067466.197,7.9990,5.0039,-4.2473,-0.2920,-0.0962,0.1881,-34.0500,27.7500,25.6500,10.9750,0.5267,-1.0894,-0.6470,0.2065,0.0365,-51.9000,11.2500,4.0500,3.4700,4.2500,-9.6600,-0.3218,-0.4309,0.3033,-28.1875,-30.7500,8.8750,340.9375,28.4375,-153.7500,0
1777067466.207,8.0637,4.9656,-4.5346,-0.3563,-0.0802,0.1980,-34.6500,27.9000,26.4000,10.5225,0.9385,-1.3503,-0.6635,0.1801,0.0301,-52.6500,10.9500,3.3000,3.2200,4.4000,-9.4100,-0.3698,-0.4898,0.2836,-28.1875,-30.7500,8.8750,340.9375,28.4375,-153.7500,0
1777067466.212,8.0038,4.8530,-4.6256,-0.4463,-0.0608,0.1815,-34.6500,27.1500,26.1000,10.5225,0.9385,-1.3503,-0.6635,0.1801,0.0301,-52.6500,10.9500,3.3000,3.2200,4.4000,-9.4100,-0.3698,-0.4898,0.2836,-28.1875,-30.7500,8.8750,341.1875,28.2500,-153.6250,0
1777067466.217,8.0038,4.8530,-4.6256,-0.4463,-0.0608,0.1815,-34.6500,27.1500,26.1000,10.3166,1.0487,-1.2641,-0.6241,0.1593,0.0309,-52.6500,10.9500,3.3000,2.9400,4.5100,-8.8100,-0.4527,-0.4996,0.2171,-27.1875,-30.3750,8.0625,341.1875,28.2500,-153.6250,0
1777067466.222,7.9775,4.7692,-4.5394,-0.4906,-0.0621,0.1490,-34.6500,27.1500,26.1000,10.3166,1.0487,-1.2641,-0.6241,0.1593,0.0309,-52.6500,10.9500,3.3000,2.9400,4.5100,-8.8100,-0.4527,-0.4996,0.2171,-27.1875,-30.3750,8.0625,341.3750,28.0000,-153.4375,0
1777067466.227,7.9775,4.7692,-4.5394,-0.4906,-0.0621,0.1490,-34.6500,27.1500,26.1000,10.2711,1.2378,-1.1133,-0.5484,0.1212,0.0288,-52.3500,13.2000,2.8500,2.9300,4.6100,-8.6000,-0.5574,-0.4538,0.0960,-27.1875,-30.3750,8.0625,341.3750,28.0000,-153.4375,0
1777067466.232,7.8530,4.8818,-4.5490,-0.5327,-0.0634,0.1095,-34.6500,27.1500,26.1000,10.2711,1.2378,-1.1133,-0.5484,0.1212,0.0288,-52.3500,13.2000,2.8500,2.9300,4.6100,-8.6000,-0.6152,-0.3905,-0.0404,-27.1875,-30.3750,8.0625,341.5000,27.8125,-153.1250,0
1777067466.237,7.5585,4.9680,-4.5226,-0.5428,-0.0986,0.0743,-34.6500,27.1500,26.1000,9.7372,1.4126,-1.2426,-0.4623,0.1108,0.0184,-52.3500,13.2000,2.8500,2.8200,4.9000,-8.3200,-0.6152,-0.3905,-0.0404,-27.1875,-30.3750,8.0625,341.5625,27.6250,-152.7500,0
1777067466.247,7.3861,5.0230,-4.3886,-0.4482,-0.0866,0.0442,-35.1000,28.5000,28.0500,9.9048,1.4341,-0.9170,-0.3264,0.0815,0.0061,-53.8500,11.7000,3.6000,2.8900,5.0100,-8.0600,-0.6272,-0.3152,-0.1538,-27.1875,-30.3750,8.0625,341.5625,27.6250,-152.7500,0
1777067466.257,7.2281,5.1858,-4.2401,-0.3046,-0.0741,0.0258,-34.9500,28.6500,25.8000,9.9048,1.5012,-0.8452,-0.2244,0.0970,-0.0077,-51.9000,10.9500,5.1000,2.9800,4.9300,-8.0300,-0.6261,-0.2345,-0.2705,-27.1875,-30.3750,8.0625,341.5000,27.4375,-152.3750,0
1777067466.262,7.2281,5.1858,-4.2401,-0.3046,-0.0741,0.0258,-34.2000,27.9000,25.8000,9.9048,1.5012,-0.8452,-0.2244,0.0970,-0.0077,-51.9000,10.9500,5.1000,2.9800,4.9300,-8.0300,-0.6261,-0.2345,-0.2705,-27.1875,-30.3750,8.0625,341.5000,27.4375,-152.3750,0
1777067466.267,7.3957,5.2481,-4.1946,-0.1727,-0.0725,0.0208,-34.2000,27.9000,25.8000,10.0916,1.6065,-0.7781,-0.1647,0.0773,-0.0266,-53.2500,11.1000,4.5000,3.1000,5.0200,-8.0800,-0.6370,-0.1484,-0.3883,-27.2500,-30.6875,7.2500,341.4375,27.2500,-151.9375,0
1777067466.271,7.3957,5.2481,-4.1946,-0.1727,-0.0725,0.0208,-34.8000,28.0500,26.7000,10.0916,1.6065,-0.7781,-0.1647,0.0773,-0.0266,-53.2500,11.1000,4.5000,3.1000,5.0200,-8.0800,-0.6370,-0.1484,-0.3883,-27.2500,-30.6875,7.2500,341.4375,27.2500,-151.9375,0
1777067466.277,7.2616,5.5952,-4.1659,-0.0941,-0.0386,0.0189,-34.8000,28.0500,26.7000,10.2615,1.6257,-0.8404,-0.0578,0.0640,-0.0360,-53.7000,11.4000,4.5000,3.3800,5.3100,-8.3300,-0.6109,-0.0774,-0.4767,-27.2500,-30.6875,7.2500,341.2500,27.1250,-151.5000,0
1777067466.284,7.2616,5.5952,-4.1659,-0.0941,-0.0386,0.0189,-34.8000,28.0500,26.7000,10.2496,1.5443,-0.7614,0.0520,0.0512,-0.0253,-53.7000,11.4000,4.5000,3.6100,5.2000,-8.3800,-0.5334,-0.0360,-0.5345,-27.2500,-30.6875,7.2500,341.0625,26.9375,-151.0625,0
1777067466.288,7.3215,5.6886,-4.2401,-0.1010,-0.0099,0.0149,-35.8500,27.3000,27.3000,10.2496,1.5443,-0.7614,0.0520,0.0512,-0.0253,-53.7000,11.4000,4.5000,3.6100,5.2000,-8.3800,-0.5334,-0.0360,-0.5345,-27.2500,-30.6875,7.2500,340.7500,26.7500,-150.6875,0
1777067466.297,7.3287,6.0238,-4.2689,-0.1508,0.0629,0.0048,-35.8500,27.3000,27.3000,10.1801,1.3719,-0.8763,0.1271,0.0389,-0.0197,-51.7500,12.6000,3.7500,3.6800,5.2300,-8.3700,-0.4178,-0.0240,-0.5716,-27.2500,-30.6875,7.2500,340.5000,26.6250,-150.4375,0
1777067466.307,7.3095,6.0908,-4.2497,-0.1863,0.0703,-0.0280,-36.0000,29.7000,26.4000,9.8785,1.1564,-0.8954,0.1735,0.0304,-0.0107,-51.7500,12.6000,3.7500,3.5500,4.9600,-8.2800,-0.2782,-0.0305,-0.5716,-27.2500,-30.6875,7.2500,340.5000,26.6250,-150.4375,0
1777067466.312,7.3095,6.0908,-4.2497,-0.1863,0.0703,-0.0280,-33.9000,28.2000,28.2000,9.7324,0.8643,-0.8691,0.1735,0.0304,-0.0107,-51.7500,12.6000,3.7500,3.5500,4.9600,-8.2800,-0.2782,-0.0305,-0.5716,-25.3750,-30.8750,7.1875,340.2500,26.4375,-150.1875,0
1777067466.317,7.2449,6.0645,-4.2401,-0.1996,0.1085,-0.0653,-34.8000,28.8000,27.0000,9.7324,0.8643,-0.8691,0.2419,0.0349,0.0019,-52.5000,11.4000,4.2000,3.6400,4.0400,-8.1300,-0.1898,-0.0273,-0.5487,-25.3750,-30.8750,7.1875,340.2500,26.4375,-150.1875,0
1777067466.322,7.2449,6.0645,-4.2401,-0.1996,0.1085,-0.0653,-34.8000,28.8000,27.0000,9.5026,0.7757,-0.7805,0.2507,0.0458,0.0203,-52.5000,11.4000,4.2000,3.6400,4.0400,-8.1300,-0.1898,-0.0273,-0.5487,-25.3750,-30.8750,7.1875,339.9375,26.2500,-149.9375,0
1777067466.327,7.2113,6.1100,-4.0965,-0.1431,0.1143,-0.1090,-34.8000,28.8000,27.0000,9.5026,0.7757,-0.7805,0.2507,0.0458,0.0203,-53.8500,11.7000,2.5500,3.7200,3.8400,-8.0300,-0.1963,-0.0295,-0.5498,-25.3750,-30.8750,7.1875,339.9375,26.2500,-149.9375,0
1777067466.332,7.2113,6.1100,-4.0965,-0.1431,0.1143,-0.1090,-34.8000,28.8000,27.0000,9.3637,0.6129,-0.7135,0.2899,0.0754,0.0424,-53.8500,11.7000,2.5500,3.7200,3.8400,-8.0300,-0.2400,-0.0185,-0.5803,-25.3750,-30.8750,7.1875,339.6875,26.1250,-149.6875,0
1777067466.338,7.0342,5.9687,-3.9840,-0.0405,0.0983,-0.1599,-34.6500,27.4500,27.6000,9.3637,0.6129,-0.7135,0.2899,0.0754,0.0424,-53.4000,11.2500,4.3500,3.8900,3.8400,-7.9800,-0.2400,-0.0185,-0.5803,-25.3750,-30.8750,7.1875,339.3750,25.9375,-149.3750,0
1777067466.347,6.9719,5.7820,-3.8283,0.1042,0.0813,-0.2081,-34.9500,28.2000,27.6000,9.4092,0.6129,-0.7207,0.3147,0.0978,0.0621,-52.9500,10.3500,3.0000,3.9600,4.1000,-7.6200,-0.2618,-0.0065,-0.6283,-25.3750,-30.8750,7.1875,339.3750,25.9375,-149.3750,0
1777067466.357,6.9073,5.5210,-3.6200,0.2638,0.0448,-0.2409,-34.5000,29.5500,27.7500,9.5433,0.8308,-0.6776,0.3000,0.1055,0.0773,-52.9500,10.3500,3.0000,3.9800,4.1200,-7.5200,-0.2553,0.0164,-0.6883,-25.3750,-30.8750,7.1875,339.0000,25.7500,-149.0625,0
1777067466.362,6.9073,5.5210,-3.6200,0.2638,0.0448,-0.2409,-34.5000,29.5500,27.7500,9.6702,1.0032,-0.5674,0.2995,0.1116,0.0901,-52.9500,10.3500,3.0000,3.9800,4.1200,-7.5200,-0.2553,0.0164,-0.6883,-25.3750,-30.8750,7.1875,339.0000,25.7500,-149.0625,0
1777067466.367,6.9456,5.2313,-3.6583,0.4261,0.0485,-0.2705,-34.0500,28.5000,26.2500,9.6702,1.0032,-0.5674,0.2995,0.1116,0.0901,-52.9500,12.3000,2.4000,3.8400,4.1400,-7.3300,-0.2836,0.0633,-0.7581,-24.0000,-32.0000,6.6875,338.6250,25.5625,-148.7500,0
1777067466.372,6.9456,5.2313,-3.6583,0.4261,0.0485,-0.2705,-34.0500,28.5000,26.2500,9.6750,1.1133,-0.4046,0.3176,0.1255,0.1092,-52.9500,12.3000,2.4000,3.8400,4.1400,-7.3300,-0.2836,0.0633,-0.7581,-24.0000,-32.0000,6.6875,338.6250,25.5625,-148.7500,0
1777067466.377,7.2568,4.9081,-3.7900,0.5140,0.0922,-0.2851,-34.0500,28.5000,26.2500,9.6750,1.1133,-0.4046,0.3176,0.1255,0.1092,-52.9500,12.3000,2.4000,3.9400,4.6900,-7.1500,-0.3120,0.1713,-0.8345,-24.0000,-32.0000,6.6875,338.1875,25.3750,-148.3750,0
1777067466.385,7.2401,4.7549,-3.7948,0.5462,0.1095,-0.3046,-34.0500,28.5000,26.2500,9.6055,1.1971,-0.3663,0.3957,0.1319,0.1148,-52.9500,12.3000,2.4000,3.9600,5.0300,-7.0600,-0.3054,0.2793,-0.9010,-24.0000,-32.0000,6.6875,337.6875,25.2500,-147.9375,0
1777067466.390,7.2401,4.7549,-3.7948,0.5462,0.1095,-0.3046,-33.7500,29.2500,26.7000,9.4595,1.2378,-0.1460,0.4916,0.1567,0.1210,-53.4000,11.2500,3.6000,3.9600,5.0300,-7.0600,-0.3054,0.2793,-0.9010,-24.0000,-32.0000,6.6875,337.1250,25.1875,-147.5625,0
1777067466.397,7.2927,4.5849,-3.7709,0.5204,0.1263,-0.3171,-33.9000,28.2000,28.6500,9.4595,1.2378,-0.1460,0.4916,0.1567,0.1210,-52.2000,11.8500,3.7500,4.1000,5.3900,-6.9600,-0.2193,0.3829,-0.9457,-24.0000,-32.0000,6.6875,336.5625,25.1250,-147.3125,0
1777067466.407,7.3143,4.4867,-3.7876,0.4354,0.1244,-0.3230,-34.8000,28.5000,27.0000,9.1004,0.9337,0.2873,0.5913,0.1748,0.1122,-53.2500,12.3000,3.4500,4.2200,5.3100,-7.0100,-0.0393,0.4571,-0.9305,-24.0000,-32.0000,6.6875,336.5625,25.1250,-147.3125,0
1777067466.412,7.2688,4.5155,-3.6823,0.3320,0.1364,-0.3123,-34.8000,28.5000,27.0000,9.1004,0.9337,0.2873,0.7216,0.1855,0.1047,-53.2500,12.3000,3.4500,4.2200,5.3100,-7.0100,-0.0393,0.4571,-0.9305,-24.0000,-32.0000,6.6875,335.9375,25.0625,-147.0625,0
1777067466.417,7.2688,4.5155,-3.6823,0.3320,0.1364,-0.3123,-33.1500,28.2000,26.4000,9.1339,0.8475,0.5531,0.7216,0.1855,0.1047,-53.8500,12.0000,2.8500,4.1500,4.1500,-7.1800,0.1058,0.4756,-0.8901,-22.1875,-32.6875,7.5000,335.9375,25.0625,-147.0625,0
1777067466.422,7.2951,4.5226,-3.6224,0.2388,0.1228,-0.2987,-33.1500,28.2000,26.4000,9.1339,0.8475,0.5531,0.7959,0.1940,0.0887,-53.8500,12.0000,2.8500,4.1500,4.1500,-7.1800,0.1058,0.4756,-0.8901,-22.1875,-32.6875,7.5000,335.3750,25.0000,-146.8750,0
1777067466.427,7.2951,4.5226,-3.6224,0.2388,0.1228,-0.2987,-33.1500,28.2000,26.4000,9.2105,0.4884,0.6393,0.7959,0.1940,0.0887,-53.8500,12.0000,2.8500,4.1600,3.8400,-7.3200,0.1374,0.4614,-0.8618,-22.1875,-32.6875,7.5000,335.3750,25.0000,-146.8750,0
1777067466.432,7.2305,4.4724,-3.4429,0.1636,0.0879,-0.2976,-33.1500,28.2000,26.4000,9.2105,0.4884,0.6393,0.8364,0.2100,0.0853,-53.8500,12.0000,2.8500,4.1600,3.8400,-7.3200,0.1134,0.4352,-0.8388,-22.1875,-32.6875,7.5000,334.8125,24.9375,-146.7500,0
1777067466.438,7.2305,4.4724,-3.4429,0.1636,0.0879,-0.2976,-33.1500,28.2000,26.4000,9.2105,0.3591,0.5602,0.8292,0.2014,0.0981,-54.0000,12.6000,2.7000,4.2300,3.8900,-7.2700,0.1134,0.4352,-0.8388,-22.1875,-32.6875,7.5000,334.3125,24.8750,-146.5625,0
1777067466.447,7.2233,4.4748,-3.3016,0.1130,0.0834,-0.2859,-34.5000,29.2500,27.0000,9.0884,0.2538,0.4669,0.7797,0.1980,0.1186,-54.0000,12.6000,2.7000,4.1100,4.1000,-7.0400,0.1276,0.4036,-0.7985,-22.1875,-32.6875,7.5000,334.3125,24.8750,-146.5625,0
1777067466.456,7.0677,4.4053,-3.1747,0.0773,0.1132,-0.2825,-32.4000,29.4000,25.3500,9.0525,-0.0335,0.6129,0.7797,0.1980,0.1186,-53.2500,12.3000,4.5000,4.1800,3.9400,-6.9800,0.1898,0.4014,-0.7450,-22.1875,-32.6875,7.5000,333.8125,24.8750,-146.4375,0
1777067466.461,7.1419,4.2665,-3.1412,0.0655,0.1601,-0.2771,-32.4000,29.4000,25.3500,9.0525,-0.0335,0.6129,0.7258,0.1871,0.1362,-52.9500,10.3500,1.2000,4.1800,3.9400,-6.9800,0.1898,0.4014,-0.7450,-22.1875,-32.6875,7.5000,333.8125,24.8750,-146.4375,0
1777067466.465,7.1419,4.2665,-3.1412,0.0655,0.1601,-0.2771,-33.6000,28.9500,27.1500,9.0190,-0.1580,0.6512,0.7258,0.1871,0.1362,-52.9500,10.3500,1.2000,4.2800,3.8100,-7.0900,0.2280,0.4102,-0.7145,-20.6875,-33.6875,6.0625,333.3125,24.8125,-146.3750,0
1777067466.470,7.2329,4.0893,-3.1244,0.0250,0.2209,-0.2790,-33.6000,28.9500,27.1500,9.0190,-0.1580,0.6512,0.6949,0.1908,0.1588,-53.7000,11.1000,1.2000,4.2800,3.8100,-7.0900,0.2280,0.4102,-0.7145,-20.6875,-33.6875,6.0625,333.3125,24.8125,-146.3750,0
1777067466.475,7.2329,4.0893,-3.1244,0.0250,0.2209,-0.2790,-33.3000,29.2500,27.0000,9.0980,-0.5387,0.7446,0.6949,0.1908,0.1588,-53.7000,11.1000,1.2000,4.5600,3.8400,-7.0500,0.2149,0.4156,-0.7265,-20.6875,-33.6875,6.0625,332.8125,24.8125,-146.2500,0
1777067466.480,7.2592,3.9624,-3.0526,-0.0461,0.2750,-0.2721,-33.3000,29.2500,27.0000,9.0980,-0.5387,0.7446,0.6630,0.1857,0.1625,-54.1500,12.9000,3.3000,4.5600,3.8400,-7.0500,0.2149,0.4156,-0.7265,-20.6875,-33.6875,6.0625,332.3125,24.7500,-146.1875,0
1777067466.487,7.2592,3.9624,-3.0526,-0.0461,0.2750,-0.2721,-33.3000,29.2500,27.0000,9.0453,-0.6057,0.8906,0.6374,0.1860,0.1689,-54.1500,12.9000,3.3000,4.4400,3.9300,-6.9300,0.1974,0.3971,-0.7658,-20.6875,-33.6875,6.0625,331.7500,24.6875,-146.0625,0
1777067466.497,7.4029,4.1492,-3.0646,-0.0621,0.3222,-0.2635,-32.1000,28.9500,26.4000,8.9304,-0.5219,0.9026,0.5761,0.1881,0.1692,-52.9500,11.4000,3.0000,4.4800,3.8400,-6.9000,0.1931,0.3905,-0.7963,-20.6875,-33.6875,6.0625,331.7500,24.6875,-146.0625,0
1777067466.507,7.5058,4.1803,-3.0861,-0.0727,0.3325,-0.2627,-32.8500,30.4500,25.8000,8.9208,-0.4022,1.0271,0.4954,0.1769,0.1623,-52.9500,11.4000,3.0000,4.4000,3.6700,-6.8000,0.1844,0.3927,-0.8236,-20.6875,-33.6875,6.0625,331.2500,24.6250,-145.9375,0
1777067466.512,7.3646,4.2377,-3.1005,-0.0280,0.2963,-0.2523,-32.8500,30.4500,25.8000,8.9208,-0.4022,1.0271,0.4954,0.1769,0.1623,-52.9500,11.1000,1.2000,4.4000,3.6700,-6.8000,0.1844,0.3927,-0.8236,-19.1875,-34.2500,6.0000,330.6875,24.5625,-145.8125,0
1777067466.517,7.3694,4.5610,-3.0909,0.0482,0.3288,-0.2454,-32.8500,29.4000,25.0500,8.9208,-0.1293,0.9864,0.5076,0.1556,0.1687,-52.9500,11.1000,1.2000,4.2800,3.8000,-6.7000,0.1953,0.4156,-0.8181,-19.1875,-34.2500,6.0000,330.6875,24.5625,-145.8125,0
1777067466.522,7.3694,4.5610,-3.0909,0.0482,0.3288,-0.2454,-32.8500,29.4000,25.0500,8.9208,-0.1293,0.9864,0.5076,0.1556,0.1687,-53.2500,11.4000,1.6500,4.2800,3.8000,-6.7000,0.1953,0.4156,-0.8181,-19.1875,-34.2500,6.0000,330.1250,24.5000,-145.6875,0
1777067466.527,7.3454,4.7094,-3.1651,0.1500,0.3371,-0.2340,-31.0500,28.6500,25.8000,8.7843,-0.0287,0.9673,0.5684,0.1522,0.1836,-53.2500,11.4000,1.6500,4.4100,3.3900,-6.8700,0.2585,0.4461,-0.7734,-19.1875,-34.2500,6.0000,330.1250,24.5000,-145.6875,0
1777067466.532,7.3454,4.7094,-3.1651,0.1500,0.3371,-0.2340,-31.0500,28.6500,25.8000,8.7915,-0.1030,1.0750,0.5684,0.1522,0.1836,-52.6500,11.7000,2.5500,4.4100,3.3900,-6.8700,0.2913,0.4549,-0.7385,-19.1875,-34.2500,6.0000,329.6250,24.5000,-145.6250,0
1777067466.538,7.2018,4.8746,-3.1963,0.2558,0.3118,-0.2265,-31.0500,28.6500,25.8000,8.7915,-0.1030,1.0750,0.6432,0.1487,0.1990,-52.6500,11.7000,2.5500,4.4900,3.1500,-7.0600,0.2913,0.4549,-0.7385,-19.1875,-34.2500,6.0000,329.1250,24.4375,-145.6250,0
1777067466.547,7.2568,4.6711,-3.4237,0.3557,0.3056,-0.2110,-33.9000,30.1500,25.8000,8.7460,-0.2825,1.0343,0.6944,0.1423,0.2182,-51.6000,11.2500,2.1000,4.6700,3.3600,-7.0800,0.2967,0.4440,-0.7199,-19.1875,-34.2500,6.0000,329.1250,24.4375,-145.6250,0
1777067466.557,7.2281,4.4867,-3.5003,0.4093,0.3182,-0.1799,-31.3500,29.7000,25.0500,8.8442,-0.6177,1.1229,0.7621,0.1402,0.2300,-54.1500,11.7000,2.8500,4.7400,3.4600,-7.0600,0.3349,0.4123,-0.6981,-19.1875,-34.2500,6.0000,328.6250,24.4375,-145.5625,0
1777067466.562,7.2281,4.4867,-3.5003,0.4093,0.3182,-0.1799,-31.3500,29.7000,25.0500,8.8442,-1.0056,1.0008,0.8124,0.1596,0.2270,-54.4500,12.3000,1.9500,4.7400,3.4600,-7.0600,0.3349,0.4123,-0.6981,-19.1875,-34.2500,6.0000,328.1250,24.3750,-145.6250,0
1777067466.567,7.2089,4.4628,-3.5626,0.4399,0.3528,-0.1506,-31.2000,30.3000,25.6500,8.8442,-1.0056,1.0008,0.8124,0.1596,0.2270,-54.4500,12.3000,1.9500,4.6900,3.3300,-7.1000,0.4036,0.3709,-0.6763,-16.7500,-35.5625,5.7500,328.1250,24.3750,-145.6250,0
1777067466.572,7.2089,4.4628,-3.5626,0.4399,0.3528,-0.1506,-31.2000,30.3000,25.6500,9.0094,-1.3767,1.1995,0.8346,0.1615,0.2142,-54.4500,12.3000,1.9500,4.6900,3.3300,-7.1000,0.4036,0.3709,-0.6763,-16.7500,-35.5625,5.7500,327.6250,24.3125,-145.6875,0
1777067466.577,7.3406,4.5657,-3.7134,0.4618,0.4058,-0.1079,-32.4000,28.6500,26.1000,9.0094,-1.3767,1.1995,0.8346,0.1615,0.2142,-54.4500,12.3000,1.9500,4.7400,3.2900,-7.0600,0.4309,0.3447,-0.6730,-16.7500,-35.5625,5.7500,327.6250,24.3125,-145.6875,0
1777067466.585,7.4962,4.5825,-3.8762,0.4959,0.4716,-0.0765,-32.4000,28.6500,26.1000,9.1099,-1.5514,1.2641,0.8130,0.1745,0.2081,-53.8500,10.9500,1.3500,4.7100,3.4200,-6.9400,0.4287,0.3327,-0.6905,-16.7500,-35.5625,5.7500,327.1250,24.2500,-145.6875,0
1777067466.590,7.4962,4.5825,-3.8762,0.4959,0.4716,-0.0765,-32.4000,28.6500,26.1000,9.1770,-1.4940,1.3120,0.8130,0.1745,0.2081,-53.1000,12.9000,1.8000,4.7100,3.4200,-6.9400,0.4287,0.3327,-0.6905,-16.7500,-35.5625,5.7500,326.6250,24.1875,-145.7500,0
1777067466.598,7.8985,4.5849,-4.0390,0.5441,0.5175,-0.0368,-32.4000,30.1500,24.3000,9.1770,-1.4940,1.3120,0.7570,0.1687,0.2188,-53.1000,12.9000,1.8000,4.7500,3.2700,-7.0200,0.4123,0.3436,-0.7167,-16.7500,-35.5625,5.7500,326.6250,24.1875,-145.7500,0
1777067466.604,7.8985,4.5849,-4.0390,0.5796,0.5129,-0.0051,-33.6000,30.4500,24.3000,9.4092,-1.4341,1.2689,0.7229,0.1604,0.2361,-53.8500,11.7000,1.3500,4.7300,3.2400,-7.0500,0.3709,0.3752,-0.7701,-16.7500,-35.5625,5.7500,326.2500,24.3750,-146.0000,0
1777067466.609,8.0469,4.6783,-3.9744,0.5796,0.5129,-0.0051,-33.6000,30.4500,24.3000,9.5529,-1.0965,1.1301,0.7229,0.1604,0.2361,-54.1500,11.7000,1.8000,4.7300,3.2400,-7.0500,0.3709,0.3752,-0.7701,-16.7500,-35.5625,5.7500,326.2500,24.3750,-146.0000,0
1777067466.614,8.0469,4.6783,-3.9744,0.6003,0.4780,0.0213,-31.6500,28.6500,23.2500,9.5529,-1.0965,1.1301,0.7085,0.1535,0.2577,-54.1500,11.7000,1.8000,4.8400,3.2000,-7.0900,0.3240,0.4352,-0.8388,-15.2500,-35.6875,5.5625,325.7500,24.5000,-146.1875,0
1777067466.619,8.1738,4.4748,-3.9145,0.6003,0.4780,0.0213,-31.6500,28.6500,23.2500,9.7157,-0.9720,0.9385,0.7085,0.1535,0.2577,-54.6000,12.4500,1.8000,4.8400,3.2000,-7.0900,0.3240,0.4352,-0.8388,-15.2500,-35.6875,5.5625,325.7500,24.5000,-146.1875,0
1777067466.624,8.3031,4.4436,-3.9456,0.5937,0.4519,0.0384,-33.9000,29.4000,25.8000,9.7157,-0.9720,0.9385,0.7186,0.1548,0.2785,-54.6000,12.4500,1.8000,4.9900,3.2400,-7.1800,0.2978,0.5094,-0.8836,-15.2500,-35.6875,5.5625,325.2500,24.7500,-146.3750,0
1777067466.629,8.3031,4.4436,-3.9456,0.5937,0.4519,0.0384,-33.9000,29.4000,25.8000,9.7276,-0.7207,0.8260,0.8287,0.2105,0.2974,-53.8500,11.7000,1.8000,4.9900,3.2400,-7.1800,0.2978,0.5094,-0.8836,-15.2500,-35.6875,5.5625,325.2500,24.7500,-146.3750,0
1777067466.634,8.6359,4.2114,-4.0677,0.6150,0.3371,0.0578,-33.9000,29.4000,25.8000,9.7276,-0.7207,0.8260,0.8287,0.2105,0.2974,-53.8500,11.7000,1.8000,5.2700,3.2900,-7.3800,0.2749,0.5945,-0.9043,-15.2500,-35.6875,5.5625,324.6250,24.6875,-146.2500,0
1777067466.639,8.6359,4.2114,-4.0677,0.6150,0.3371,0.0578,-33.9000,29.4000,25.8000,9.9910,-0.9601,0.9170,0.8292,0.1825,0.3054,-53.8500,11.7000,1.8000,5.2700,3.2900,-7.3800,0.2749,0.5945,-0.9043,-15.2500,-35.6875,5.5625,324.0000,24.7500,-146.1250,0
1777067466.648,8.4635,4.0989,-3.8762,0.5225,0.3512,0.0818,-33.9000,29.4000,25.8000,10.1059,-0.9888,0.8691,0.8292,0.1825,0.3054,-53.8500,11.7000,1.8000,5.7300,3.5700,-7.6000,0.2553,0.6545,-0.9196,-15.2500,-35.6875,5.5625,323.3125,24.7500,-145.9375,0
1777067466.658,8.4491,3.8379,-3.8092,0.2766,0.3829,0.0927,-32.8500,29.7000,23.5500,10.8625,-1.0511,0.7350,0.8545,0.2497,0.3262,-54.7500,10.6500,1.2000,5.7300,3.6600,-7.6300,0.2509,0.6829,-0.9272,-15.2500,-35.6875,5.5625,323.3125,24.7500,-145.9375,0
1777067466.662,8.4491,3.8379,-3.8092,0.2222,0.4058,0.1031,-31.5000,30.3000,23.4000,10.8625,-1.0511,0.7350,0.8258,0.2401,0.3485,-54.0000,11.8500,1.2000,5.7300,3.6600,-7.6300,0.2509,0.6829,-0.9272,-15.2500,-35.6875,5.5625,323.3125,24.7500,-145.9375,0
1777067466.668,8.4228,3.8738,-3.9409,0.2222,0.4058,0.1031,-31.5000,30.3000,23.4000,10.2663,-1.2689,0.7614,0.7605,0.2848,0.3592,-54.0000,11.8500,1.2000,5.8200,3.4800,-7.7000,0.2749,0.7079,-0.9021,-13.6875,-37.7500,4.5625,322.6875,24.8125,-145.8125,0
1777067466.672,8.5784,3.8930,-3.9385,0.1495,0.3760,0.1013,-31.0500,29.7000,22.9500,10.2663,-1.2689,0.7614,0.7605,0.2848,0.3592,-53.1000,11.7000,0.3000,5.8200,3.4800,-7.7000,0.2749,0.7079,-0.9021,-13.6875,-37.7500,4.5625,322.6875,24.8125,-145.8125,0
1777067466.677,8.5784,3.8930,-3.9385,0.1495,0.3760,0.1013,-31.0500,29.7000,22.9500,10.2687,-1.3815,0.7302,0.7344,0.3195,0.3778,-53.1000,11.7000,0.3000,5.8300,3.4700,-7.8000,0.2760,0.7450,-0.8465,-13.6875,-37.7500,4.5625,322.0625,24.8750,-145.6875,0
1777067466.685,8.4587,4.1396,-3.8930,0.0525,0.3309,0.0999,-32.4000,30.4500,23.2500,10.2687,-1.3815,0.7302,0.7344,0.3195,0.3778,-54.1500,11.7000,1.0500,6.0000,3.5200,-7.9400,0.2694,0.7778,-0.7832,-13.6875,-37.7500,4.5625,321.4375,25.0000,-145.5625,0
1777067466.690,8.4587,4.1396,-3.8930,0.0525,0.3309,0.0999,-32.4000,30.4500,23.2500,10.0987,-1.3767,0.9313,0.6632,0.3587,0.3933,-54.4500,11.8500,1.9500,6.0000,3.5200,-7.9400,0.2694,0.7778,-0.7832,-13.6875,-37.7500,4.5625,320.8750,25.1250,-145.4375,0
1777067466.698,8.4084,4.4676,-3.8188,-0.0056,0.3331,0.1138,-32.4000,30.4500,23.2500,9.9886,-1.4222,1.0367,0.5369,0.3938,0.3994,-54.4500,11.8500,1.9500,6.0500,3.6000,-7.9000,0.2771,0.7887,-0.6905,-13.6875,-37.7500,4.5625,320.4375,25.3125,-145.3750,0
1777067466.708,8.3941,4.6759,-3.8642,-0.0061,0.3283,0.1180,-31.9500,29.5500,22.8000,9.9695,-1.3886,1.0080,0.4370,0.4234,0.3970,-53.8500,11.2500,2.1000,6.0000,3.4600,-7.8800,0.2934,0.7745,-0.5792,-13.6875,-37.7500,4.5625,320.4375,25.3125,-145.3750,0
1777067466.713,8.3151,4.8411,-3.8523,0.0669,0.2867,0.1114,-33.7500,30.3000,24.4500,9.9695,-1.3886,1.0080,0.4370,0.4234,0.3970,-53.8500,11.2500,2.1000,6.0000,3.4600,-7.8800,0.2934,0.7745,-0.5792,-12.7500,-38.5000,4.0625,320.0000,25.5000,-145.3125,0
1777067466.718,8.3151,4.8411,-3.8523,0.0669,0.2867,0.1114,-33.7500,30.3000,24.4500,9.7540,-1.2258,1.1923,0.4082,0.4290,0.3717,-53.8500,11.2500,2.1000,5.8200,3.7400,-7.7500,0.2945,0.7603,-0.4538,-12.7500,-38.5000,4.0625,320.0000,25.5000,-145.3125,0
1777067466.722,8.3462,4.7788,-3.7326,0.1743,0.1929,0.0981,-32.8500,28.2000,23.2500,9.7540,-1.2258,1.1923,0.4082,0.4290,0.3717,-53.7000,10.6500,0.9000,5.8200,3.7400,-7.7500,0.2945,0.7603,-0.4538,-12.7500,-38.5000,4.0625,319.6875,25.7500,-145.3125,0
1777067466.728,8.3462,4.7788,-3.7326,0.1743,0.1929,0.0981,-32.8500,28.2000,23.2500,9.6343,-0.9720,1.3575,0.3810,0.4620,0.3706,-53.7000,10.6500,0.9000,5.9400,3.8600,-7.7800,0.3283,0.7352,-0.3098,-12.7500,-38.5000,4.0625,319.6875,25.7500,-145.3125,0
1777067466.733,8.1403,4.5825,-3.7038,0.2249,0.1599,0.1082,-33.1500,28.9500,24.0000,9.6343,-0.9720,1.3575,0.3810,0.4620,0.3706,-54.4500,10.3500,2.4000,5.9400,3.8600,-7.7800,0.3883,0.6741,-0.1625,-12.7500,-38.5000,4.0625,319.5625,26.2500,-145.6250,0
1777067466.738,8.1403,4.5825,-3.7038,0.2249,0.1599,0.1082,-33.1500,28.9500,24.0000,9.6774,-0.7877,1.4700,0.3469,0.4642,0.3709,-54.4500,10.3500,2.4000,6.0200,3.7600,-7.8000,0.3883,0.6741,-0.1625,-12.7500,-38.5000,4.0625,319.3750,26.5000,-145.7500,0
1777067466.748,8.0062,4.5538,-3.5626,0.2950,0.1799,0.1260,-33.1500,28.9500,24.0000,9.5840,-0.7398,1.4150,0.3549,0.4746,0.3725,-54.4500,10.6500,1.6500,5.6600,3.7700,-7.6300,0.3992,0.5858,-0.0524,-12.7500,-38.5000,4.0625,319.3750,26.5000,-145.7500,0
1777067466.758,7.9918,4.4532,-3.4309,0.2926,0.1927,0.1490,-33.1500,29.7000,23.5500,9.6534,-0.7685,1.4844,0.3445,0.4802,0.3736,-54.0000,10.6500,1.6500,5.4500,3.9800,-7.3800,0.3676,0.5192,0.0229,-12.7500,-38.5000,4.0625,319.2500,26.7500,-145.8750,0
1777067466.762,7.8961,4.2641,-3.2848,0.2004,0.2521,0.1663,-33.7500,28.8000,22.0500,9.6534,-0.7685,1.4844,0.3445,0.4802,0.3736,-53.7000,10.3500,3.0000,5.4500,3.9800,-7.3800,0.3676,0.5192,0.0229,-12.7500,-38.5000,4.0625,319.2500,26.7500,-145.8750,0
1777067466.768,7.8961,4.2641,-3.2848,0.2004,0.2521,0.1663,-33.7500,28.8000,22.0500,9.5744,-0.8859,1.3623,0.3696,0.4908,0.3866,-53.7000,10.3500,3.0000,5.3000,4.2000,-7.1700,0.3502,0.4865,0.0709,-12.5625,-38.6875,4.8750,319.1250,27.0000,-146.0000,0
1777067466.772,7.9942,4.1635,-3.2896,0.1031,0.2856,0.1751,-31.9500,30.0000,22.3500,9.4379,-0.9361,1.4700,0.3696,0.4908,0.3866,-54.7500,9.9000,1.9500,5.3000,4.2000,-7.1700,0.3502,0.4865,0.0709,-12.5625,-38.6875,4.8750,319.1250,27.0000,-146.0000,0
1777067466.777,7.9942,4.1635,-3.2896,0.1031,0.2856,0.1751,-31.9500,30.0000,22.3500,9.4379,-0.9361,1.4700,0.3754,0.5065,0.3882,-54.7500,9.9000,1.9500,5.2700,4.2800,-7.0300,0.3589,0.4941,0.0993,-12.5625,-38.6875,4.8750,319.0625,27.2500,-146.1250,0
1777067466.784,7.9631,4.1348,-3.2896,0.0218,0.2928,0.1841,-32.5500,29.5500,22.3500,9.3278,-1.2091,1.3479,0.3632,0.5244,0.3877,-54.7500,9.9000,1.9500,5.1600,4.2900,-7.0200,0.3545,0.5203,0.0905,-12.5625,-38.6875,4.8750,319.0000,27.5625,-146.3125,0
1777067466.789,7.9583,4.1731,-3.2609,-0.0304,0.3043,0.1924,-32.5500,29.5500,22.3500,9.3278,-1.2091,1.3479,0.3632,0.5244,0.3877,-54.7500,9.9000,1.9500,5.1600,4.2900,-7.0200,0.3545,0.5203,0.0905,-12.5625,-38.6875,4.8750,318.8750,27.8125,-146.3750,0
1777067466.798,7.9583,4.1731,-3.2609,-0.0165,0.2984,0.2009,-32.5500,29.5500,22.3500,9.3637,-1.0654,1.4054,0.3277,0.5329,0.3840,-54.7500,10.6500,2.4000,5.1200,4.3800,-6.9100,0.3229,0.5509,0.0578,-12.5625,-38.6875,4.8750,318.7500,28.0625,-146.5000,0
1777067466.808,7.9104,4.5346,-3.2801,0.0248,0.2523,0.1948,-32.8500,28.9500,22.2000,9.3111,-0.9050,1.4796,0.2769,0.5492,0.3893,-54.7500,8.4000,0.9000,5.0500,4.2200,-6.9200,0.3022,0.5749,0.0229,-12.5625,-38.6875,4.8750,318.7500,28.0625,-146.5000,0
1777067466.813,7.9104,4.5346,-3.2801,0.0248,0.2523,0.1948,-32.2500,29.2500,22.3500,9.4691,-0.8164,1.4078,0.2864,0.5460,0.4050,-55.8000,10.0500,2.8500,5.0500,4.2200,-6.9200,0.3022,0.5749,0.0229,-13.0000,-38.5000,4.0000,318.6250,28.3750,-146.5000,0
1777067466.818,7.8913,4.5969,-3.2274,0.0663,0.2356,0.1924,-32.2500,29.2500,22.3500,9.4691,-0.8164,1.4078,0.2864,0.5460,0.4050,-55.8000,10.0500,2.8500,5.0800,3.9600,-7.0500,0.2727,0.6054,-0.0011,-13.0000,-38.5000,4.0000,318.6250,28.3750,-146.5000,0
1777067466.823,7.8913,4.5969,-3.2274,0.0663,0.2356,0.1924,-34.5000,30.0000,22.3500,9.3709,-0.6584,1.5850,0.3120,0.5407,0.3994,-54.1500,10.5000,2.5500,5.0800,3.9600,-7.0500,0.2727,0.6054,-0.0011,-13.0000,-38.5000,4.0000,318.5000,28.6250,-146.5625,0
1777067466.828,7.7572,4.6376,-3.1723,0.1202,0.2345,0.1969,-34.5000,30.0000,22.3500,9.3709,-0.6584,1.5850,0.3120,0.5407,0.3994,-54.1500,10.5000,2.5500,5.0000,4.0000,-7.0400,0.2356,0.6392,-0.0295,-13.0000,-38.5000,4.0000,318.5000,28.6250,-146.5625,0
1777067466.833,7.7572,4.6376,-3.1723,0.1202,0.2345,0.1969,-31.5000,29.5500,23.4000,9.3015,-0.5435,1.6783,0.3166,0.5433,0.4000,-54.1500,10.5000,2.5500,5.0000,4.0000,-7.0400,0.2280,0.6654,-0.0360,-13.0000,-38.5000,4.0000,318.3125,28.9375,-146.5625,0
1777067466.839,7.6998,4.4772,-3.1292,0.1785,0.2766,0.1958,-31.5000,29.5500,23.4000,9.3015,-0.5435,1.6783,0.3166,0.5433,0.4000,-54.1500,10.5000,2.5500,5.0100,4.1100,-7.1000,0.2280,0.6654,-0.0360,-13.0000,-38.5000,4.0000,318.1875,29.3125,-146.6250,0
1777067466.848,7.7285,4.3790,-3.1292,0.2414,0.3214,0.1956,-31.5000,29.5500,23.4000,9.4092,-0.3926,1.5682,0.3613,0.5489,0.4085,-54.7500,8.4000,3.4500,5.1200,4.2700,-7.2700,0.2476,0.6796,-0.0240,-13.0000,-38.5000,4.0000,318.1875,29.3125,-146.6250,0
1777067466.854,7.7285,4.3790,-3.1292,0.2414,0.3214,0.1956,-31.5000,29.5500,23.4000,9.2967,-0.4357,1.8387,0.4517,0.5513,0.3978,-54.7500,8.4000,3.4500,5.2000,4.4500,-7.2600,0.2705,0.6807,-0.0087,-13.0000,-38.5000,4.0000,318.0625,29.6250,-146.6875,0
1777067466.859,7.8290,4.2306,-3.0550,0.2758,0.3360,0.1998,-32.5500,28.5000,24.4500,9.1530,-0.5171,1.9632,0.4517,0.5513,0.3978,-54.7500,8.4000,3.4500,5.2000,4.4500,-7.2600,0.2705,0.6807,-0.0087,-13.0000,-38.5000,4.0000,318.0625,29.6250,-146.6875,0
1777067466.864,7.8290,4.2306,-3.0550,0.2758,0.3360,0.1998,-32.5500,28.5000,24.4500,9.1530,-0.5171,1.9632,0.5108,0.5654,0.3906,-54.1500,8.5500,1.8000,5.2000,4.4500,-7.2600,0.2705,0.6807,-0.0087,-13.7500,-37.6875,4.7500,317.8750,29.9375,-146.7500,0
1777067466.869,7.6806,4.1875,-3.0071,0.3227,0.3624,0.2118,-33.6000,29.7000,22.5000,9.1243,-0.5938,2.1644,0.5108,0.5654,0.3906,-54.1500,8.5500,1.8000,5.1600,4.6200,-7.1800,0.3142,0.6512,-0.0044,-13.7500,-37.6875,4.7500,317.8750,29.9375,-146.7500,0
1777067466.873,7.6806,4.1875,-3.0071,0.3227,0.3624,0.2118,-33.6000,29.7000,22.5000,9.1243,-0.5938,2.1644,0.5481,0.5636,0.3850,-54.1500,8.1000,2.8500,5.1600,4.6200,-7.1800,0.3142,0.6512,-0.0044,-13.7500,-37.6875,4.7500,317.7500,30.1875,-146.8125,0
1777067466.879,7.7883,4.0893,-2.9042,0.3341,0.3826,0.2372,-31.3500,28.9500,24.3000,9.1459,-0.7949,2.2865,0.5481,0.5636,0.3850,-54.1500,8.1000,2.8500,5.0000,4.5200,-7.0700,0.3752,0.5978,0.0044,-13.7500,-37.6875,4.7500,317.6250,30.5000,-146.9375,0
1777067466.888,8.0541,4.0821,-2.7629,0.3163,0.3925,0.2641,-33.9000,29.4000,23.2500,9.0621,-0.9768,2.3296,0.5526,0.5361,0.3664,-55.5000,9.4500,3.4500,4.5500,4.2300,-6.7700,0.3992,0.5574,0.0098,-13.7500,-37.6875,4.7500,317.6250,30.5000,-146.9375,0
1777067466.898,8.1618,3.9576,-2.6097,0.2555,0.4037,0.2713,-33.9000,29.4000,23.2500,9.1554,-1.0127,2.4876,0.5665,0.5271,0.3557,-54.6000,9.7500,3.3000,4.4900,4.3300,-6.5400,0.3774,0.5443,0.0044,-13.7500,-37.6875,4.7500,317.4375,30.7500,-147.0625,0
1777067466.908,8.3390,3.7038,-2.6456,0.1852,0.4245,0.2912,-33.9000,29.4000,23.2500,9.3039,-1.0654,2.3798,0.5438,0.4978,0.3376,-54.6000,9.7500,3.3000,4.4200,4.3700,-6.3700,0.3687,0.5541,-0.0098,-13.7500,-37.6875,4.7500,317.3125,31.0000,-147.1875,0
1777067466.912,8.3390,3.7038,-2.6456,0.1852,0.4245,0.2912,-33.3000,28.5000,23.1000,9.3039,-1.0654,2.3798,0.4836,0.4807,0.3096,-56.5500,10.5000,4.3500,4.4200,4.3700,-6.3700,0.3687,0.5541,-0.0098,-13.7500,-37.6875,4.7500,317.3125,31.0000,-147.1875,0
1777067466.918,8.3869,3.5314,-2.5953,0.1628,0.4266,0.3067,-34.5000,28.8000,23.1000,9.4930,-1.0199,2.3966,0.4572,0.4525,0.2952,-56.5500,10.5000,4.3500,4.5300,4.4900,-6.5600,0.3665,0.5880,-0.0251,-14.5000,-36.2500,2.8750,317.1250,31.2500,-147.2500,0
1777067466.922,8.3869,3.5314,-2.5953,0.1628,0.4266,0.3067,-34.5000,28.8000,23.4000,9.4930,-1.0199,2.3966,0.4572,0.4525,0.2952,-56.5500,10.5000,4.3500,4.5300,4.4900,-6.5600,0.3665,0.5880,-0.0251,-14.5000,-36.2500,2.8750,317.1250,31.2500,-147.2500,0
1777067466.928,8.5090,3.5362,-2.5857,0.1063,0.4442,0.3272,-33.9000,28.2000,21.4500,9.5337,-0.9266,2.4708,0.4239,0.4466,0.2798,-56.5500,10.5000,4.3500,4.8900,4.6500,-6.7300,0.3229,0.6261,-0.0458,-14.5000,-36.2500,2.8750,317.0000,31.5000,-147.3125,0
1777067466.932,8.5090,3.5362,-2.5857,0.1063,0.4442,0.3272,-33.9000,28.2000,21.4500,9.5337,-0.9266,2.4708,0.4239,0.4466,0.2798,-55.9500,9.9000,3.7500,4.8900,4.6500,-6.7300,0.2705,0.6305,-0.0993,-14.5000,-36.2500,2.8750,316.7500,31.8125,-147.3125,0
1777067466.939,8.7125,3.3519,-2.7509,0.0472,0.4072,0.3624,-32.4000,27.4500,23.2500,9.5672,-0.8715,2.7390,0.4167,0.4330,0.2659,-55.9500,9.9000,3.7500,5.0800,4.8100,-6.9200,0.2705,0.6305,-0.0993,-14.5000,-36.2500,2.8750,316.5625,32.0000,-147.3125,0
1777067466.948,8.5880,3.4429,-2.7892,0.0378,0.3789,0.4146,-32.4000,27.4500,23.2500,9.5457,-0.9266,2.7773,0.4024,0.4215,0.2614,-54.6000,9.7500,2.8500,5.3100,4.8100,-7.0900,0.2334,0.5978,-0.1560,-14.5000,-36.2500,2.8750,316.5625,32.0000,-147.3125,0
1777067466.958,8.6670,3.6751,-2.7007,-0.0091,0.4189,0.4439,-33.9000,27.9000,23.5500,9.5720,-0.8906,2.8228,0.3816,0.4029,0.2489,-54.7500,8.7000,4.5000,5.2800,4.6100,-7.1000,0.2149,0.5498,-0.2007,-14.5000,-36.2500,2.8750,316.3125,32.2500,-147.2500,0
1777067466.963,8.8155,3.8954,-2.4660,-0.0509,0.4906,0.4604,-33.9000,27.9000,23.5500,9.5720,-0.8906,2.8228,0.3816,0.4029,0.2489,-53.8500,8.7000,4.5000,5.2800,4.6100,-7.1000,0.2149,0.5498,-0.2007,-14.5000,-36.2500,2.8750,316.3125,32.2500,-147.2500,0
1777067466.968,8.8155,3.8954,-2.4660,-0.0509,0.4906,0.4604,-33.6000,28.6500,22.9500,9.7229,-0.8882,2.8299,0.3280,0.3653,0.2329,-53.8500,8.1000,2.8500,5.1900,4.4600,-7.0500,0.2083,0.4789,-0.2203,-14.0000,-34.1875,4.5000,316.1250,32.3750,-147.1875,0
1777067466.973,9.0237,3.8618,-2.3415,-0.0597,0.5167,0.4738,-33.6000,28.6500,22.9500,9.7229,-0.8882,2.8299,0.3280,0.3653,0.2329,-53.8500,8.1000,2.8500,5.1900,4.4600,-7.0500,0.2083,0.4789,-0.2203,-14.0000,-34.1875,4.5000,316.1250,32.3750,-147.1875,0
1777067466.978,9.0237,3.8618,-2.3415,-0.0597,0.5167,0.4738,-34.9500,26.7000,22.2000,9.7252,-0.9768,2.7964,0.3144,0.3363,0.2281,-53.8500,8.1000,2.8500,5.0700,4.3700,-7.0400,0.2138,0.4287,-0.2018,-14.0000,-34.1875,4.5000,315.8750,32.5000,-147.1875,0
1777067466.984,9.2344,3.9456,-2.3367,-0.0490,0.5089,0.5015,-34.9500,26.7000,22.2000,9.5193,-1.1899,2.7845,0.3144,0.3363,0.2281,-55.2000,9.4500,3.4500,5.4500,4.1200,-7.2300,0.2247,0.4080,-0.1418,-14.0000,-34.1875,4.5000,315.6875,32.6875,-147.1875,0
1777067466.989,9.2344,3.9456,-2.3367,-0.0490,0.5089,0.5015,-36.0000,27.4500,22.9500,9.5193,-1.1899,2.7845,0.2774,0.3142,0.2249,-55.2000,9.4500,3.4500,5.4500,4.1200,-7.2300,0.2247,0.4080,-0.1418,-14.0000,-34.1875,4.5000,35.5000,32.8125,-147.2500,0
1777067466.998,9.0549,4.0079,-2.2362,-0.0440,0.5004,0.5103,-36.0000,27.4500,22.9500,9.4786,-1.3575,2.8108,0.2086,0.2886,0.2190,-55.2000,9.4500,3.4500,5.4300,4.0400,-7.2100,0.2236,0.3720,-0.0785,-14.0000,-34.1875,4.5000,35.0000,32.9375,-147.2500,0
1777067467.008,8.9902,4.1970,-2.6647,0.1569,0.2337,0.5351,-33.0000,29.2500,23.4000,9.4595,-1.4940,2.6408,0.1479,0.2726,0.2177,-55.0500,9.7500,4.3500,5.4000,4.0900,-7.2000,0.2029,0.3196,-0.0349,-14.0000,-34.1875,4.5000,35.0000,32.9375,-147.2500,0
1777067467.013,6.3901,4.5298,-0.9577,0.4716,0.1077,0.5196,-33.0000,29.2500,23.4000,9.6151,-1.3240,2.6815,0.1479,0.2726,0.2177,-55.0500,9.7500,4.3500,5.4000,4.0900,-7.2000,0.2029,0.3196,-0.0349,-14.0000,-34.1875,4.5000,35.0000,32.9375,-147.2500,0
1777067467.018,6.3901,4.5298,-0.9577,0.4716,0.1077,0.5196,-34.8000,27.7500,23.8500,9.6151,-1.3240,2.6815,0.1335,0.2388,0.2244,-54.7500,8.7000,4.5000,5.4500,4.0700,-7.1600,0.1876,0.2683,0.0055,-13.5625,-31.5625,3.8750,34.6250,33.0625,-147.3125,0
1777067467.023,9.4451,3.9193,-2.4253,-0.0179,0.4908,0.5356,-34.8000,27.7500,23.8500,9.4164,-1.2426,2.8826,0.0320,0.2366,0.2193,-55.2000,9.1500,4.2000,5.4500,4.0700,-7.1600,0.1876,0.2683,0.0055,-13.5625,-31.5625,3.8750,34.6250,33.0625,-147.3125,0
1777067467.028,9.4451,3.9193,-2.4253,-0.0179,0.4908,0.5356,-36.4500,27.4500,24.0000,9.4164,-1.2426,2.8826,0.0320,0.2366,0.2193,-55.2000,9.1500,4.2000,5.3200,3.8100,-7.1600,0.1898,0.2203,0.0360,-13.5625,-31.5625,3.8750,34.1875,33.1875,-147.3750,0
1777067467.033,8.4707,4.3144,-1.8771,0.4207,0.1673,0.5446,-36.4500,27.4500,24.0000,9.4260,-1.0104,2.8371,0.0226,0.2097,0.2281,-55.2000,9.1500,4.2000,5.3200,3.8100,-7.1600,0.1865,0.1996,0.0556,-13.5625,-31.5625,3.8750,33.8125,33.3125,-147.4375,0
1777067467.039,8.4707,4.3144,-1.8771,0.4207,0.1673,0.5446,-36.3000,25.8000,23.4000,9.4260,-1.0104,2.8371,0.0226,0.2097,0.2281,-54.4500,8.7000,4.5000,5.3900,3.7800,-7.2100,0.1865,0.1996,0.0556,-13.5625,-31.5625,3.8750,33.4375,33.4375,-147.5625,0
1777067467.048,8.3701,4.1707,-1.9752,0.2726,0.5963,0.5393,-36.3000,25.8000,23.4000,9.2344,-1.0104,2.7246,0.0280,0.1873,0.2358,-54.4500,8.7000,4.5000,5.4500,3.8800,-7.1000,0.1985,0.1811,0.0676,-13.5625,-31.5625,3.8750,33.4375,33.4375,-147.5625,0
1777067467.058,8.6072,4.0390,-1.9249,0.2734,0.5955,0.5220,-36.3000,25.8000,23.4000,9.0812,-1.1420,2.6169,0.0826,0.1825,0.2401,-55.2000,9.1500,5.2500,5.3800,3.6700,-7.0600,0.2749,0.1462,0.0982,-13.5625,-31.5625,3.8750,32.9375,33.5000,-147.6875,0
1777067467.063,7.9104,3.6559,-1.5778,0.0831,1.1391,0.4927,-36.3000,25.8000,23.4000,8.9783,-1.1612,2.5929,0.1463,0.1820,0.2462,-55.2000,9.1500,5.2500,5.3800,3.6700,-7.0600,0.2749,0.1462,0.0982,-13.5625,-31.5625,3.8750,32.4375,33.6250,-147.9375,0
1777067467.068,7.9104,3.6559,-1.5778,0.0831,1.1391,0.4927,-35.7000,27.4500,23.5500,8.9783,-1.1612,2.5929,0.1463,0.1820,0.2462,-55.2000,9.1500,5.2500,5.5000,3.6200,-7.1400,0.3327,0.1091,0.1374,-12.2500,-30.1875,5.7500,32.4375,33.6250,-147.9375,0
1777067467.073,9.0429,3.2657,-1.9537,-0.0064,1.2183,0.5025,-35.7000,27.4500,23.5500,9.1866,-1.2067,2.6456,0.2014,0.1951,0.2401,-55.2000,9.1500,5.2500,5.5000,3.6200,-7.1400,0.3327,0.1091,0.1374,-12.2500,-30.1875,5.7500,31.9375,33.6875,-148.1250,0
1777067467.078,9.0429,3.2657,-1.9537,0.0125,0.4903,0.5609,-36.6000,26.2500,23.4000,9.1866,-1.2067,2.6456,0.2014,0.1951,0.2401,-55.2000,8.7000,4.2000,5.5500,3.7400,-7.0000,0.3447,0.0720,0.1516,-12.2500,-30.1875,5.7500,31.9375,33.6875,-148.1250,0
1777067467.085,9.2775,2.9137,-1.8220,0.0125,0.4903,0.5609,-36.6000,26.2500,23.4000,9.1339,-1.3192,2.6288,0.1996,0.1649,0.2060,-55.3500,9.3000,5.5500,5.4300,4.1000,-6.6500,0.3425,0.0349,0.1560,-12.2500,-30.1875,5.7500,315.3125,33.7500,-148.3750,0
1777067467.089,8.9878,2.7533,-2.0423,0.1490,0.2310,0.5737,-35.8500,26.5500,23.4000,9.1961,-1.3408,2.6600,0.1996,0.1649,0.2060,-55.3500,9.3000,5.5500,5.4300,4.1000,-6.6500,0.3425,0.0349,0.1560,-12.2500,-30.1875,5.7500,315.3125,33.8125,-148.6250,0
1777067467.098,8.9328,2.7007,-2.1213,0.2638,0.1775,0.5694,-36.0000,27.9000,22.2000,9.1961,-1.3408,2.6600,0.2222,0.1647,0.2006,-54.6000,9.3000,5.1000,5.4600,4.1000,-6.5900,0.3632,0.0240,0.1625,-12.2500,-30.1875,5.7500,315.3750,33.8750,-148.8750,0
1777067467.108,9.1866,2.6049,-2.4038,0.2955,0.2713,0.5636,-36.0000,27.9000,22.2000,9.1051,-1.5490,2.6743,0.2241,0.1671,0.1820,-55.2000,8.4000,6.4500,5.5700,4.0600,-6.6400,0.3709,0.0316,0.1658,-12.2500,-30.1875,5.7500,315.3750,33.8750,-148.8750,0
1777067467.113,9.1866,2.6049,-2.4038,0.2955,0.2713,0.5636,-36.0000,27.9000,22.2000,9.1387,-1.7957,2.6097,0.1948,0.1743,0.1647,-55.2000,8.4000,6.4500,5.5700,4.0600,-6.6400,0.3709,0.0316,0.1658,-12.2500,-30.1875,5.7500,315.3750,33.9375,-149.1250,0
1777067467.118,8.9950,2.9161,-1.9609,0.5257,-0.8114,0.5670,-37.0500,26.2500,24.4500,9.3254,-1.8866,2.7126,0.1948,0.1743,0.1647,-55.2000,8.4000,6.4500,5.5100,4.0100,-6.6200,0.3392,0.0436,0.1505,-10.1875,-29.6875,7.0625,315.3750,33.9375,-149.1250,0
1777067467.123,8.9950,2.9161,-1.9609,0.5257,-0.8114,0.5670,-37.0500,26.2500,24.4500,9.3254,-1.8866,2.7126,0.1607,0.1604,0.1455,-55.2000,8.4000,6.4500,5.5100,4.0100,-6.6200,0.3392,0.0436,0.1505,-10.1875,-29.6875,7.0625,315.3750,34.0000,-149.3125,0
1777067467.128,8.4467,2.6097,-2.4373,0.9284,0.3317,0.4903,-36.7500,26.7000,23.5500,9.1913,-2.0901,2.6911,0.1607,0.1604,0.1455,-55.0500,8.5500,4.8000,5.6100,3.8700,-6.6800,0.3054,0.0567,0.1353,-10.1875,-29.6875,7.0625,315.3750,34.0000,-149.3125,0
1777067467.135,8.4467,2.6097,-2.4373,0.9284,0.3317,0.4903,-37.6500,26.2500,22.3500,9.1913,-2.0901,2.6911,0.0789,0.1777,0.1202,-55.0500,8.5500,4.8000,5.6500,3.6200,-6.8000,0.2673,0.0545,0.1440,-10.1875,-29.6875,7.0625,315.3750,34.0625,-149.5000,0
1777067467.140,7.8314,2.4445,-2.3320,0.5713,0.7655,0.4674,-37.6500,26.2500,22.3500,9.1602,-2.1404,2.7869,0.0048,0.1876,0.0978,-55.0500,8.5500,4.8000,5.6500,3.6200,-6.8000,0.2673,0.0545,0.1440,-10.1875,-29.6875,7.0625,315.4375,34.1250,-149.6875,0
1777067467.148,9.0980,1.8483,-2.9951,0.2526,1.2233,0.4578,-37.6500,25.5000,22.8000,9.2871,-2.3439,2.7605,-0.1340,0.1719,0.0693,-55.0500,8.5500,6.6000,5.6000,3.6600,-6.8700,0.2018,0.0404,0.1691,-10.1875,-29.6875,7.0625,315.5625,34.1875,-149.8125,0
1777067467.158,9.9000,1.9776,-2.8108,0.4594,1.2681,0.4618,-37.6500,25.5000,22.8000,9.2488,-2.2266,2.8491,-0.2718,0.1799,0.0349,-53.8500,9.0000,5.5500,5.8600,3.7800,-7.0900,0.1364,0.0229,0.1931,-10.1875,-29.6875,7.0625,315.5625,34.1875,-149.8125,0
1777067467.163,9.9000,1.9776,-2.8108,0.4594,1.2681,0.4618,-37.6500,25.5000,22.8000,9.2488,-2.2266,2.8491,-0.2718,0.1799,0.0349,-53.8500,9.0000,5.5500,5.8600,3.7800,-7.0900,0.1364,0.0229,0.1931,-10.1875,-29.6875,7.0625,315.5625,34.1875,-149.8125,0
1777067467.168,9.1554,1.8100,-2.4948,0.5644,0.7983,0.4892,-37.6500,25.8000,22.0500,10.1873,-2.1500,2.8635,-0.3925,0.1090,0.0075,-55.3500,8.5500,5.8500,5.7800,3.6900,-7.1200,0.1091,-0.0295,0.2443,-9.1875,-30.0625,9.0000,315.6250,34.2500,-149.9375,0
1777067467.173,9.1554,1.8100,-2.4948,0.5644,0.7983,0.4892,-37.6500,25.8000,22.0500,10.1873,-2.1500,2.8635,-0.3925,0.1090,0.0075,-55.3500,8.5500,5.8500,5.7800,3.6900,-7.1200,0.1091,-0.0295,0.2443,-9.1875,-30.0625,9.0000,315.6250,34.2500,-149.9375,0
1777067467.178,9.2273,1.7645,-2.3200,0.6049,0.4128,0.5462,-36.0000,25.6500,24.0000,9.0621,-2.3032,2.8371,-0.4796,0.1066,-0.0320,-54.1500,9.0000,5.8500,5.6700,3.3400,-7.2300,0.1353,-0.1047,0.3534,-9.1875,-30.0625,9.0000,315.8125,34.3125,-150.1250,0
1777067467.187,9.7827,1.6257,-2.5402,0.5705,0.1452,0.5886,-36.7500,25.6500,21.1500,9.4044,-2.5570,2.8036,-0.6179,0.0887,-0.0528,-54.1500,9.0000,5.8500,5.5700,2.7000,-7.5800,0.1396,-0.1974,0.5192,-9.1875,-30.0625,9.0000,316.1250,34.3125,-150.4375,0
1777067467.192,9.7827,1.6257,-2.5402,0.5705,0.1452,0.5886,-36.7500,25.6500,21.1500,9.4044,-2.5570,2.8036,-0.6179,0.0887,-0.0528,-54.1500,9.0000,5.8500,5.5700,2.7000,-7.5800,0.1396,-0.1974,0.5192,-9.1875,-30.0625,9.0000,316.5625,34.3750,-150.7500,0
1777067467.199,9.0453,1.8052,-2.2290,0.2801,0.3541,0.5697,-36.7500,24.9000,22.5000,9.5577,-2.5115,2.8371,-0.7362,0.0426,-0.0847,-55.2000,7.2000,7.5000,5.4600,2.7800,-7.6600,0.0818,-0.3109,0.6949,-9.1875,-30.0625,9.0000,317.0625,34.3750,-151.1250,0
1777067467.209,9.2033,1.7023,-2.1739,0.1809,0.7663,0.5343,-36.7500,24.9000,22.5000,9.3709,-2.5977,2.7677,-0.9414,0.0477,-0.1132,-54.1500,9.7500,6.6000,5.5400,2.9200,-7.7200,0.0240,-0.4407,0.8607,-9.1875,-30.0625,9.0000,317.0625,34.3750,-151.1250,0
1777067467.213,9.2033,1.7023,-2.1739,0.1809,0.7663,0.5343,-36.7500,26.4000,21.1500,9.3709,-2.5977,2.7677,-0.9414,0.0477,-0.1132,-54.1500,9.7500,6.6000,5.5400,2.9200,-7.7200,0.0240,-0.4407,0.8607,-9.1875,-30.0625,9.0000,317.6875,34.3750,-151.5625,0
1777067467.219,9.7947,1.5299,-2.3918,0.1434,1.0011,0.5076,-36.7500,26.4000,21.1500,9.9503,-2.3391,2.7701,-1.0301,-0.0179,-0.1348,-53.2500,8.4000,6.7500,5.2900,3.2000,-7.7400,-0.0316,-0.5683,1.0014,-7.3750,-32.0625,8.3750,317.6875,34.3750,-151.5625,0
1777067467.223,9.7947,1.5299,-2.3918,-0.1010,-0.1250,0.6110,-36.0000,24.9000,21.4500,9.9503,-2.3391,2.7701,-1.0301,-0.0179,-0.1348,-53.2500,8.4000,6.7500,5.2900,3.2000,-7.7400,-0.0316,-0.5683,1.0014,-7.3750,-32.0625,8.3750,318.4375,34.3750,-152.0000,0
1777067467.228,15.1409,1.4054,-3.3543,-0.1010,-0.1250,0.6110,-36.0000,24.9000,21.4500,9.7324,-2.1021,2.5881,-1.0925,-0.0195,-0.1529,-54.4500,7.9500,7.5000,5.1500,3.4900,-7.7300,-0.0927,-0.6643,1.0919,-7.3750,-32.0625,8.3750,318.4375,34.3750,-152.0000,0
1777067467.233,9.3182,1.3503,-1.1420,-1.1080,-0.9614,0.7325,-37.6500,24.3000,22.3500,9.6319,-2.0830,2.4349,-1.0925,-0.0195,-0.1529,-54.4500,7.9500,7.5000,5.1500,3.4900,-7.7300,-0.1287,-0.7341,1.1246,-7.3750,-32.0625,8.3750,319.1250,34.2500,-152.4375,0
1777067467.239,9.3182,1.3503,-1.1420,-1.1080,-0.9614,0.7325,-37.6500,24.3000,22.3500,9.6319,-2.0830,2.4349,-1.1674,-0.0264,-0.1708,-53.7000,7.9500,6.7500,5.1900,3.6300,-7.6500,-0.1287,-0.7341,1.1246,-7.3750,-32.0625,8.3750,319.8750,34.1875,-152.8750,0
1777067467.249,11.7460,1.0630,-3.2848,-0.8934,-0.5004,0.7562,-37.5000,23.7000,21.4500,9.7564,-1.9010,2.4325,-1.1634,-0.0685,-0.1993,-54.0000,8.4000,7.9500,4.9600,3.6800,-7.5600,-0.1658,-0.8083,1.1257,-7.3750,-32.0625,8.3750,319.8750,34.1875,-152.8750,0
1777067467.259,7.5968,1.6831,-1.2570,-0.3174,0.4586,0.6643,-37.5000,23.7000,21.4500,9.6295,-1.7980,2.4612,-1.1652,-0.0711,-0.2150,-54.0000,8.4000,7.9500,4.6900,3.4700,-7.5700,-0.2062,-0.8367,1.1181,-7.3750,-32.0625,8.3750,320.6875,34.0000,-153.2500,0
1777067467.263,10.8362,1.3096,-3.1795,-0.8095,1.6542,0.6115,-37.5000,23.7000,21.4500,9.6869,-1.7597,2.3224,-1.1650,-0.0749,-0.2342,-54.0000,8.4000,7.9500,4.6900,3.4700,-7.5700,-0.2062,-0.8367,1.1181,-7.3750,-32.0625,8.3750,320.6875,34.0000,-153.2500,0
1777067467.268,10.8362,1.3096,-3.1795,-0.8095,1.6542,0.6115,-37.5000,23.7000,21.4500,9.6869,-1.7597,2.3224,-1.1650,-0.0749,-0.2342,-53.2500,7.2000,9.0000,4.5400,3.4400,-7.5900,-0.2705,-0.8279,1.0963,-9.0000,-33.3750,7.6875,321.4375,33.8750,-153.6250,0
1777067467.273,10.4794,1.3982,-2.1332,-1.1666,0.6435,0.6853,-36.6000,23.5500,23.1000,9.8833,-1.5634,2.2936,-1.1234,-0.1116,-0.2465,-53.2500,7.2000,9.0000,4.5400,3.4400,-7.5900,-0.2705,-0.8279,1.0963,-9.0000,-33.3750,7.6875,321.4375,33.8750,-153.6250,0
1777067467.278,10.4794,1.3982,-2.1332,-1.1666,0.6435,0.6853,-36.6000,23.5500,23.1000,9.8833,-1.5634,2.2936,-1.1234,-0.1116,-0.2465,-55.5000,6.7500,8.7000,4.4700,3.3400,-7.6300,-0.3283,-0.7909,1.0668,-9.0000,-33.3750,7.6875,322.1250,33.7500,-153.9375,0
1777067467.286,9.7923,1.6855,-1.8771,-1.0619,0.6438,0.7083,-38.8500,24.0000,23.1000,10.0006,-1.5586,2.3367,-1.0864,-0.1684,-0.2601,-52.6500,7.3500,8.1000,4.4800,3.3000,-8.0300,-0.3687,-0.7494,1.0461,-9.0000,-33.3750,7.6875,322.8750,33.6250,-154.1875,0
1777067467.291,9.7923,1.6855,-1.8771,-0.8052,0.5492,0.6888,-38.8500,24.0000,23.1000,9.9000,-1.6209,2.0901,-1.0864,-0.1684,-0.2601,-52.6500,7.3500,8.1000,4.4800,3.3000,-8.0300,-0.3687,-0.7494,1.0461,-9.0000,-33.3750,7.6875,323.6250,33.5000,-154.4375,0
1777067467.299,9.9359,1.8818,-2.2625,-0.8052,0.5492,0.6888,-38.2500,23.4000,23.2500,9.9000,-1.6209,2.0901,-1.0909,-0.1990,-0.2638,-53.8500,7.8000,9.6000,4.5100,3.0700,-8.2300,-0.3851,-0.7178,1.0308,-9.0000,-33.3750,7.6875,324.3125,33.4375,-154.6250,0
1777067467.309,9.8306,2.1787,-2.1308,-0.4186,0.3363,0.6475,-38.8500,22.8000,24.1500,9.8881,-1.6616,2.2769,-1.0709,-0.2070,-0.2473,-54.4500,7.2000,9.0000,4.5100,2.9900,-8.4200,-0.4091,-0.7058,1.0145,-9.0000,-33.3750,7.6875,324.3125,33.4375,-154.6250,0
1777067467.314,10.2089,2.0973,-2.1524,-0.4820,0.1823,0.6259,-38.8500,22.8000,24.1500,9.9599,-1.6951,2.2098,-1.0989,-0.2499,-0.2348,-54.4500,7.2000,9.0000,4.5100,2.9900,-8.4200,-0.4091,-0.7058,1.0145,-12.0000,-34.5625,8.6875,325.0000,33.3125,-154.8750,0
1777067467.319,10.2089,2.0973,-2.1524,-0.4820,0.1823,0.6259,-38.8500,22.8000,24.1500,9.9599,-1.6951,2.2098,-1.0989,-0.2499,-0.2348,-54.4500,6.4500,9.7500,4.7200,3.1300,-8.6900,-0.4363,-0.7101,0.9796,-12.0000,-34.5625,8.6875,325.0000,33.3125,-154.8750,0
1777067467.324,10.0006,2.1835,-1.9465,-0.7418,-0.1716,0.6558,-38.1000,22.8000,24.9000,9.7971,-1.8340,2.1261,-1.2414,-0.2998,-0.2326,-54.4500,6.4500,9.7500,4.7200,3.1300,-8.6900,-0.4363,-0.7101,0.9796,-12.0000,-34.5625,8.6875,325.6875,33.1250,-155.0000,0
1777067467.329,10.0006,2.1835,-1.9465,-0.7418,-0.1716,0.6558,-38.1000,22.8000,24.9000,9.7971,-1.8340,2.1261,-1.2414,-0.2998,-0.2326,-54.4500,6.4500,9.7500,4.5400,3.1100,-8.6600,-0.4342,-0.7505,0.9359,-12.0000,-34.5625,8.6875,325.6875,33.1250,-155.0000,0
1777067467.334,9.5816,2.2841,-1.4485,-0.8950,-0.2880,0.6632,-39.0000,23.4000,24.7500,9.8809,-1.7885,1.9704,-1.1852,-0.3230,-0.2174,-54.4500,6.4500,9.7500,4.5400,3.1100,-8.6600,-0.3894,-0.8072,0.9152,-12.0000,-34.5625,8.6875,326.3750,32.9375,-155.2500,0
1777067467.340,9.5816,2.2841,-1.4485,-0.9446,-0.1111,0.6686,-39.0000,23.4000,24.7500,9.6726,-1.9106,1.9297,-1.1852,-0.3230,-0.2174,-53.1000,6.1500,8.1000,4.3900,2.8800,-8.6000,-0.3894,-0.8072,0.9152,-12.0000,-34.5625,8.6875,327.0625,32.7500,-155.5000,0
1777067467.349,9.4116,2.2314,-1.4557,-0.9446,-0.1111,0.6686,-38.8500,22.0500,24.4500,9.6726,-1.9106,1.9297,-1.1956,-0.3259,-0.2238,-54.1500,5.4000,9.6000,4.3600,2.6200,-8.5200,-0.3480,-0.8388,0.9316,-12.0000,-34.5625,8.6875,327.0625,32.7500,-155.5000,0
1777067467.358,9.2225,2.0877,-1.2665,-0.9907,0.1903,0.6630,-39.3000,22.9500,25.8000,9.8067,-2.1141,1.8364,-1.2372,-0.3333,-0.2372,-53.7000,4.8000,8.7000,4.5400,2.4600,-8.5600,-0.3425,-0.8519,0.9719,-12.0000,-34.5625,8.6875,327.7500,32.5000,-155.7500,0
1777067467.363,9.8186,2.1572,-1.3096,-0.9406,0.4048,0.6611,-39.3000,22.9500,25.8000,9.8067,-2.1141,1.8364,-1.2886,-0.3744,-0.2462,-53.7000,4.8000,8.7000,4.5400,2.4600,-8.5600,-0.3425,-0.8519,0.9719,-12.0000,-34.5625,8.6875,327.7500,32.5000,-155.7500,0
1777067467.368,9.8186,2.1572,-1.3096,-0.9499,0.1713,0.6768,-39.3000,22.9500,25.8000,9.8234,-2.1548,1.8818,-1.2886,-0.3744,-0.2462,-53.4000,5.4000,9.9000,4.5700,2.4200,-8.5800,-0.3763,-0.8814,1.0330,-12.6875,-34.8750,7.6875,328.4375,32.3125,-156.0000,0
1777067467.373,10.4124,2.0542,-1.4341,-0.9499,0.1713,0.6768,-39.7500,22.6500,26.8500,9.8234,-2.1548,1.8818,-1.3957,-0.3717,-0.2646,-53.4000,5.4000,9.9000,4.5700,2.4200,-8.5800,-0.3763,-0.8814,1.0330,-12.6875,-34.8750,7.6875,328.4375,32.3125,-156.0000,0
1777067467.378,10.1658,2.0494,-1.0511,-0.9670,-0.3659,0.6997,-39.7500,22.6500,26.8500,10.1203,-1.9321,1.9680,-1.3957,-0.3717,-0.2646,-53.4000,6.1500,9.6000,4.6300,2.3900,-8.5900,-0.4134,-0.9294,1.1137,-12.6875,-34.8750,7.6875,329.2500,32.0625,-156.2500,0
1777067467.384,10.1658,2.0494,-1.0511,-0.9670,-0.3659,0.6997,-39.0000,21.9000,25.8000,10.1203,-1.9321,1.9680,-1.5090,-0.4207,-0.2737,-53.4000,6.1500,9.6000,4.6300,2.3900,-8.5900,-0.4527,-0.9828,1.2065,-12.6875,-34.8750,7.6875,330.0625,31.8750,-156.5000,0
1777067467.389,9.6031,2.2146,-0.7470,-0.9065,-0.3659,0.7040,-39.0000,21.9000,25.8000,10.0365,-1.8220,1.9154,-1.6342,-0.4381,-0.2787,-54.7500,6.0000,9.7500,4.5500,2.3100,-8.5300,-0.4527,-0.9828,1.2065,-12.6875,-34.8750,7.6875,331.0000,31.6250,-156.7500,0
1777067467.399,9.7109,2.3272,-0.9816,-0.8015,-0.3046,0.7061,-39.1500,21.7500,25.2000,10.1059,-1.6185,1.8531,-1.7512,-0.4479,-0.2681,-54.7500,6.0000,9.7500,4.4200,2.3600,-8.3800,-0.5072,-1.0287,1.2970,-12.6875,-34.8750,7.6875,331.0000,31.6250,-156.7500,0
1777067467.409,9.6822,2.4014,-1.2785,-0.7554,-0.0999,0.6925,-41.5500,21.4500,26.4000,9.9479,-1.3647,1.7071,-1.7824,-0.4620,-0.2542,-52.5000,4.8000,10.0500,4.4600,2.4500,-8.3400,-0.5585,-1.0396,1.3854,-12.6875,-34.8750,7.6875,331.9375,31.3750,-157.0000,0
1777067467.414,9.6822,2.4014,-1.2785,-0.7554,-0.0999,0.6925,-41.5500,21.4500,26.4000,9.9479,-1.3647,1.7071,-1.7824,-0.4620,-0.2542,-52.5000,4.8000,10.0500,4.4600,2.4500,-8.3400,-0.5585,-1.0396,1.3854,-12.6875,-34.8750,7.6875,333.0000,31.1875,-157.3125,0
1777067467.419,9.5696,2.4636,-1.8507,-0.7957,0.0171,0.6656,-41.5500,21.4500,26.4000,9.8497,-1.1468,1.6879,-1.8061,-0.4652,-0.2491,-53.8500,4.6500,9.6000,4.6100,2.6200,-8.2200,-0.6000,-1.0232,1.4628,-14.2500,-34.2500,7.5625,333.0000,31.1875,-157.3125,0
1777067467.423,9.5696,2.4636,-1.8507,-0.7957,0.0171,0.6656,-40.0500,21.1500,26.1000,9.8497,-1.1468,1.6879,-1.8061,-0.4652,-0.2491,-53.8500,4.6500,9.6000,4.6100,2.6200,-8.2200,-0.6000,-1.0232,1.4628,-14.2500,-34.2500,7.5625,333.0000,31.1875,-157.3125,0
1777067467.428,9.5840,2.4660,-2.0590,-0.8143,-0.0608,0.6672,-40.0500,21.1500,26.1000,9.6774,-0.8092,1.6352,-1.7552,-0.4743,-0.2214,-54.4500,5.2500,9.3000,4.7800,2.7700,-8.5200,-0.6261,-0.9807,1.5097,-14.2500,-34.2500,7.5625,334.0000,31.0000,-157.5625,0
1777067467.433,9.5840,2.4660,-2.0590,-0.8143,-0.0608,0.6672,-40.0500,21.1500,26.4000,9.6774,-0.8092,1.6352,-1.7552,-0.4743,-0.2214,-54.4500,5.2500,9.3000,4.7800,2.7700,-8.5200,-0.6447,-0.9457,1.5075,-14.2500,-34.2500,7.5625,335.0625,30.8125,-157.7500,0
1777067467.440,9.6534,2.6025,-1.8747,-0.8657,-0.2166,0.6888,-40.9500,20.5500,27.7500,9.6774,-0.5124,1.4964,-1.7054,-0.4517,-0.1889,-53.4000,4.9500,10.3500,5.2200,2.8500,-8.7000,-0.6447,-0.9457,1.5075,-14.2500,-34.2500,7.5625,336.0625,30.6250,-157.9375,0
1777067467.449,20.4656,3.0287,-3.1891,-0.9166,-0.5367,0.6904,-41.5500,21.9000,27.7500,9.7372,-0.3735,1.3743,-1.6182,-0.4330,-0.1633,-52.6500,3.0000,9.1500,5.5900,2.9700,-8.7900,-0.6578,-0.9457,1.4443,-14.2500,-34.2500,7.5625,336.0625,30.6250,-157.9375,0
