timestamp,thigh_acc_x,thigh_acc_y,thigh_acc_z,thigh_gyro_x,thigh_gyro_y,thigh_gyro_z,thigh_mag_x,thigh_mag_y,thigh_mag_z,shank_acc_x,shank_acc_y,shank_acc_z,shank_gyro_x,shank_gyro_y,shank_gyro_z,shank_mag_x,shank_mag_y,shank_mag_z,foot_acc_x,foot_acc_y,foot_acc_z,foot_gyro_x,foot_gyro_y,foot_gyro_z,foot_mag_x,foot_mag_y,foot_mag_z,foot_euler_x,foot_euler_y,foot_euler_z,perturbation_event
481.754,9.5122,2.4157,-0.7997,-0.1212,-0.1391,-0.1585,-58.3500,18.7500,36.3000,9.6367,0.2155,-0.4046,-0.2233,0.0093,0.0352,-61.6500,11.1000,-9.0000,3.3800,3.3500,-8.3800,0.0262,-0.0207,-0.0076,-17.1875,-27.7500,19.7500,204.3750,20.0000,-157.8750,0
481.759,9.4715,2.5355,-0.9361,-0.1362,-0.1380,-0.1532,-59.5500,18.3000,36.3000,9.6750,0.3136,-0.4405,-0.1985,0.0256,0.0314,-61.6500,11.8500,-9.0000,3.3800,3.3500,-8.3800,0.0262,-0.0207,-0.0076,-17.1875,-27.7500,19.7500,204.3750,20.0000,-157.8750,0
481.764,9.4715,2.5355,-0.9361,-0.1362,-0.1380,-0.1532,-59.5500,18.3000,36.3000,9.6750,0.3136,-0.4405,-0.1985,0.0256,0.0314,-61.6500,11.8500,-9.0000,3.3800,3.3400,-8.3600,0.0240,-0.0218,-0.0098,-17.1875,-26.6875,19.7500,204.3750,20.0000,-157.8750,0
481.769,9.4140,2.6528,-1.2163,-0.1282,-0.1258,-0.1460,-59.5500,18.3000,36.3000,9.7396,0.2035,-0.3472,-0.1735,0.0322,0.0293,-61.8000,12.9000,-9.1500,3.3800,3.3400,-8.3600,0.0240,-0.0218,-0.0098,-17.1875,-26.6875,19.7500,204.3750,20.0000,-157.8750,0
481.774,9.4140,2.6528,-1.2163,-0.1282,-0.1258,-0.1460,-59.5500,18.3000,36.3000,9.7396,0.2035,-0.3472,-0.1735,0.0322,0.0293,-61.8000,12.9000,-9.1500,3.3700,3.3400,-8.4000,0.0229,-0.0207,-0.0087,-17.1875,-26.6875,19.7500,204.3750,19.9375,-157.8750,0
481.779,9.4834,2.7988,-1.4700,-0.1122,-0.1092,-0.1338,-59.5500,18.3000,36.3000,9.7061,0.2155,-0.3567,-0.1295,0.0437,0.0264,-61.2000,12.3000,-10.5000,3.3700,3.3400,-8.4000,0.0185,-0.0207,-0.0065,-17.1875,-26.6875,19.7500,204.3750,19.9375,-157.9375,0
481.785,9.4834,2.7988,-1.4700,-0.1122,-0.1092,-0.1338,-59.5500,18.3000,36.3000,9.7061,0.2155,-0.3567,-0.1295,0.0437,0.0264,-61.2000,12.3000,-10.5000,3.3700,3.3000,-8.4200,0.0185,-0.0207,-0.0065,-17.1875,-26.6875,19.7500,204.3750,19.9375,-157.9375,0
481.794,9.4763,2.9353,-1.4868,-0.1069,-0.1308,-0.1191,-58.8000,19.5000,35.5500,9.7444,0.1676,-0.3759,-0.1138,0.0522,0.0245,-61.2000,13.5000,-10.5000,3.3600,3.3100,-8.4100,0.0153,-0.0196,-0.0055,-17.1875,-26.6875,19.7500,204.3750,19.9375,-157.9375,0
481.804,9.4260,2.8994,-1.5850,-0.1095,-0.1122,-0.0975,-58.6500,17.7000,35.4000,9.7109,0.1365,-0.3472,-0.1074,0.0645,0.0229,-61.2000,13.5000,-10.5000,3.3700,3.3400,-8.4100,0.0087,-0.0153,-0.0044,-17.1875,-26.6875,19.7500,204.3750,19.9375,-157.9375,0
481.808,9.4260,2.8922,-1.6185,-0.0962,-0.1327,-0.0930,-58.0500,18.0000,37.0500,9.6941,0.1245,-0.3065,-0.1053,0.0759,0.0123,-61.8000,12.4500,-10.3500,3.3700,3.3400,-8.4100,0.0065,-0.0120,-0.0022,-16.7500,-26.2500,21.0000,204.3750,19.9375,-157.9375,0
481.815,9.4260,2.8922,-1.6185,-0.0962,-0.1327,-0.0930,-58.0500,18.0000,37.0500,9.6007,0.0790,-0.3926,-0.1164,0.0855,0.0035,-61.8000,12.4500,-10.3500,3.3900,3.3200,-8.4000,0.0065,-0.0120,-0.0022,-16.7500,-26.2500,21.0000,204.3750,19.9375,-157.9375,0
481.824,9.4715,2.7198,-1.4844,-0.1026,-0.1396,-0.0903,-59.2500,18.4500,36.1500,9.7468,0.0168,-0.3687,-0.1164,0.0855,0.0035,-61.8000,12.4500,-10.3500,3.3600,3.3500,-8.3800,0.0033,-0.0131,0.0000,-16.7500,-26.2500,21.0000,204.3750,19.9375,-157.9375,0
481.834,9.3302,2.5666,-1.4509,-0.1340,-0.1127,-0.0954,-59.2500,18.4500,36.1500,9.7133,0.0694,-0.4142,-0.1276,0.0946,0.0024,-61.8000,12.9000,-8.8500,3.3800,3.3500,-8.4000,0.0022,-0.0109,-0.0022,-16.7500,-26.2500,21.0000,204.3750,19.9375,-157.9375,0
481.844,9.4786,2.4612,-1.2570,-0.1386,-0.0930,-0.0927,-58.2000,18.1500,34.6500,9.6726,0.1796,-0.3950,-0.0973,0.1122,-0.0093,-61.5000,12.9000,-10.6500,3.3700,3.3400,-8.4200,-0.0022,-0.0120,-0.0022,-16.7500,-26.2500,21.0000,204.3750,19.9375,-157.9375,0
481.853,9.5002,2.4134,-1.2163,-0.1447,-0.0983,-0.1005,-59.2500,18.9000,35.7000,9.7037,0.0742,-0.3663,-0.0973,0.1122,-0.0093,-59.7000,13.8000,-9.3000,3.3600,3.3200,-8.3900,-0.0065,-0.0065,-0.0033,-16.7500,-26.2500,21.0000,204.3750,19.9375,-157.9375,0
481.858,9.4810,2.3774,-1.1396,-0.1220,-0.0783,-0.1050,-58.9500,18.1500,35.4000,9.7037,0.0742,-0.3663,-0.0450,0.1306,-0.0232,-62.2500,12.9000,-10.3500,3.3600,3.3200,-8.3900,-0.0065,-0.0065,-0.0033,-16.7500,-26.2500,21.0000,204.3750,19.9375,-157.9375,0
481.864,9.4810,2.3774,-1.1396,-0.1220,-0.0783,-0.1050,-58.9500,18.1500,35.4000,9.7492,0.1532,-0.0982,-0.0205,0.1410,-0.0298,-62.2500,12.9000,-10.3500,3.3700,3.3300,-8.4100,-0.0120,-0.0076,0.0000,-16.5000,-26.6875,19.7500,204.3750,19.9375,-157.9375,0
481.872,9.6534,2.2769,-1.0846,-0.0717,-0.0986,-0.1095,-58.3500,17.5500,35.8500,9.7755,0.0192,0.0694,-0.0211,0.1386,-0.0477,-61.2000,12.3000,-10.0500,3.3200,3.3400,-8.3900,-0.0153,-0.0087,0.0033,-16.5000,-26.6875,19.7500,204.3750,19.9375,-157.9375,0
481.877,9.4140,2.2697,-1.0199,-0.0514,-0.1114,-0.1119,-58.3500,18.7500,37.0500,9.7755,0.0192,0.0694,-0.0211,0.1386,-0.0477,-62.2500,13.2000,-9.9000,3.3200,3.3400,-8.3900,-0.0153,-0.0087,0.0033,-16.5000,-26.6875,19.7500,204.3750,19.9375,-157.8750,0
481.885,9.3685,2.1715,-0.9050,-0.0592,-0.0842,-0.1026,-58.3500,18.7500,37.0500,9.7683,-0.0120,0.1867,-0.0602,0.1380,-0.0482,-62.2500,13.2000,-9.9000,3.3900,3.3000,-8.4200,-0.0196,-0.0044,0.0055,-16.5000,-26.6875,19.7500,204.3750,19.9375,-157.8750,0
481.894,9.3541,2.2075,-0.9050,-0.0818,-0.0650,-0.0949,-58.3500,18.7500,37.0500,9.8019,0.1700,0.2370,-0.0773,0.1292,-0.0562,-62.2500,13.2000,-9.9000,3.3800,3.2900,-8.4200,-0.0153,-0.0044,0.0044,-16.5000,-26.6875,19.7500,204.3750,19.9375,-157.8750,0
481.902,9.3541,2.2075,-0.9050,-0.0818,-0.0650,-0.0949,-56.8500,19.2000,35.7000,9.7755,0.3112,0.3687,-0.0562,0.1188,-0.0634,-61.8000,13.2000,-8.4000,3.3600,3.3300,-8.3800,-0.0153,-0.0022,0.0065,-16.5000,-26.6875,19.7500,204.3750,19.9375,-157.8750,0
481.907,9.3877,2.2482,-0.8332,-0.0789,-0.0597,-0.0711,-58.0500,18.0000,34.5000,9.7755,0.3112,0.3687,-0.0562,0.1188,-0.0634,-61.8000,13.2000,-8.4000,3.3600,3.3300,-8.3800,-0.0153,-0.0022,0.0065,-16.5000,-26.6875,19.7500,204.3750,19.9375,-157.8750,0
481.912,9.3877,2.2482,-0.8332,-0.0789,-0.0597,-0.0711,-58.0500,18.0000,34.5000,9.8258,0.2849,0.4142,-0.0384,0.1092,-0.0653,-61.8000,13.2000,-8.4000,3.3900,3.3200,-8.4000,-0.0175,0.0000,0.0076,-16.5000,-26.2500,20.1875,204.4375,19.9375,-157.8750,0
481.917,9.4499,2.1165,-0.7446,-0.0831,-0.0424,-0.0544,-57.3000,19.0500,34.8000,9.8258,0.2849,0.4142,-0.0384,0.1092,-0.0653,-59.8500,11.7000,-8.4000,3.3900,3.3200,-8.4000,-0.0175,0.0000,0.0076,-16.5000,-26.2500,20.1875,204.4375,19.9375,-157.8750,0
481.924,9.5098,2.0734,-0.7278,-0.0746,-0.0160,-0.0346,-57.3000,19.0500,34.8000,9.7947,0.1891,0.4645,-0.0480,0.0909,-0.0655,-59.8500,11.7000,-9.9000,3.3600,3.3300,-8.3900,-0.0175,-0.0011,0.0065,-16.5000,-26.2500,20.1875,204.4375,19.9375,-157.8750,0
481.934,9.4906,2.0853,-0.6919,-0.0509,-0.0200,-0.0187,-57.1500,18.9000,36.7500,9.7899,0.1724,0.5315,-0.0437,0.0813,-0.0685,-61.0500,12.4500,-10.3500,3.3800,3.3500,-8.4200,-0.0218,0.0033,0.0087,-16.5000,-26.2500,20.1875,204.4375,19.9375,-157.8750,0
481.941,9.4906,2.0853,-0.6919,-0.0509,-0.0200,-0.0187,-58.6500,19.9500,36.4500,9.7636,0.1125,0.4429,-0.0586,0.0743,-0.0719,-60.7500,14.8500,-9.9000,3.4000,3.3000,-8.4100,-0.0251,0.0022,0.0076,-16.5000,-26.2500,20.1875,204.4375,19.9375,-157.8125,0
481.946,9.4451,2.1021,-0.5794,-0.0373,-0.0043,-0.0099,-58.6500,19.9500,36.4500,9.7636,0.1125,0.4429,-0.0586,0.0743,-0.0719,-60.7500,14.8500,-9.9000,3.4000,3.3000,-8.4100,-0.0251,0.0022,0.0076,-16.5000,-26.2500,20.1875,204.4375,19.9375,-157.8125,0
481.955,9.3925,2.0159,-0.5100,-0.0378,0.0322,0.0051,-58.6500,19.9500,36.4500,9.8186,0.1963,0.4956,-0.0757,0.0648,-0.0797,-61.5000,13.2000,-9.6000,3.3900,3.3100,-8.4100,-0.0207,-0.0044,0.0098,-16.5000,-26.2500,20.1875,204.4375,19.9375,-157.8125,0
481.960,9.3925,2.0159,-0.5100,-0.0378,0.0322,0.0051,-58.2000,18.4500,35.7000,9.8545,0.2945,0.5387,-0.0901,0.0501,-0.0762,-59.8500,11.2500,-8.8500,3.3900,3.3100,-8.4100,-0.0207,-0.0044,0.0109,-16.5000,-26.2500,20.5625,204.4375,19.9375,-157.8125,0
481.965,9.3541,2.0351,-0.4525,-0.0173,0.0448,0.0040,-56.8500,19.2000,34.9500,9.8545,0.2945,0.5387,-0.0901,0.0501,-0.0762,-59.8500,11.2500,-8.8500,3.3800,3.3100,-8.4100,-0.0207,-0.0044,0.0109,-16.5000,-26.2500,20.5625,204.4375,19.9375,-157.8125,0
481.974,9.3278,2.0949,-0.4118,0.0133,0.0629,0.0181,-56.5500,19.2000,34.9500,9.8162,0.4573,0.4070,-0.0927,0.0330,-0.0741,-61.6500,13.0500,-10.0500,3.4100,3.3100,-8.4400,-0.0240,-0.0076,0.0142,-16.5000,-26.2500,20.5625,204.4375,19.9375,-157.8125,0
481.984,9.3374,2.1715,-0.4812,0.0360,0.0722,0.0264,-58.3500,19.8000,35.5500,9.7707,0.5291,0.4070,-0.0687,0.0264,-0.0701,-61.6500,13.0500,-10.0500,3.3800,3.3100,-8.4000,-0.0273,-0.0055,0.0153,-16.5000,-26.2500,20.5625,204.4375,19.9375,-157.8125,0
481.992,9.3901,2.1739,-0.5100,0.0224,0.0938,0.0346,-58.3500,19.5000,36.3000,9.7300,0.4621,0.3232,-0.0506,0.0237,-0.0743,-60.9000,12.6000,-9.0000,3.4000,3.2700,-8.3600,-0.0371,-0.0011,0.0098,-16.5000,-26.2500,20.5625,204.4375,19.9375,-157.7500,0
481.997,9.3901,2.1739,-0.5100,0.0224,0.0938,0.0346,-58.3500,19.5000,36.3000,9.7851,0.3639,0.3687,-0.0506,0.0237,-0.0743,-60.9000,12.6000,-9.0000,3.4000,3.2700,-8.3600,-0.0371,-0.0011,0.0098,-16.5000,-26.2500,20.5625,204.4375,19.9375,-157.7500,0
482.005,9.4475,2.2553,-0.4621,0.0195,0.0877,0.0346,-58.0500,18.3000,35.5500,9.7851,0.3639,0.3687,-0.0450,0.0168,-0.0693,-60.9000,12.6000,-9.0000,3.3800,3.3300,-8.3700,-0.0436,-0.0011,0.0055,-16.5000,-26.2500,20.5625,204.4375,19.9375,-157.7500,0
482.010,9.4882,2.2601,-0.5124,0.0077,0.0938,0.0381,-58.0500,18.3000,35.5500,9.7636,0.2442,0.3448,-0.0754,0.0024,-0.0770,-60.7500,13.9500,-8.8500,3.3800,3.3300,-8.3700,-0.0436,-0.0011,0.0055,-16.7500,-26.6875,20.5625,204.4375,19.9375,-157.7500,0
482.015,9.4882,2.2601,-0.5124,0.0077,0.0938,0.0381,-56.1000,20.7000,36.4500,9.7636,0.2442,0.3448,-0.0754,0.0024,-0.0770,-60.7500,13.9500,-8.8500,3.3900,3.3300,-8.3900,-0.0458,-0.0022,0.0033,-16.7500,-26.6875,20.5625,204.4375,19.9375,-157.7500,0
482.020,9.3972,2.2745,-0.5195,-0.0115,0.1143,0.0400,-56.1000,20.7000,36.4500,9.7516,0.1939,0.2777,-0.1138,-0.0067,-0.0759,-61.0500,12.9000,-8.1000,3.3900,3.3300,-8.3900,-0.0458,-0.0022,0.0033,-16.7500,-26.6875,20.5625,204.4375,19.9375,-157.6875,0
482.025,9.3972,2.2745,-0.5195,-0.0115,0.1143,0.0400,-57.9000,20.4000,35.4000,9.8210,0.2921,0.2490,-0.1138,-0.0067,-0.0759,-61.0500,12.9000,-8.1000,3.4100,3.2900,-8.3800,-0.0480,-0.0055,0.0033,-16.7500,-26.6875,20.5625,204.4375,19.9375,-157.6875,0
482.031,9.4739,2.3056,-0.6297,0.0059,0.1215,0.0525,-57.9000,20.4000,35.4000,9.8210,0.2921,0.2490,-0.1394,-0.0067,-0.0781,-60.3000,13.6500,-8.8500,3.3700,3.2700,-8.4300,-0.0524,-0.0044,0.0065,-16.7500,-26.6875,20.5625,204.5000,19.9375,-157.6875,0
482.036,9.4739,2.3056,-0.6297,0.0059,0.1215,0.0525,-57.1500,19.6500,36.4500,9.7827,0.4788,0.1556,-0.1447,-0.0168,-0.0749,-60.3000,13.6500,-8.8500,3.3700,3.2700,-8.4300,-0.0524,-0.0044,0.0065,-16.7500,-26.6875,20.5625,204.5000,19.9375,-157.6250,0
482.045,9.4451,2.4612,-0.6536,0.0216,0.1196,0.0538,-56.8500,18.9000,35.7000,9.7731,0.6321,0.0551,-0.1447,-0.0168,-0.0749,-61.5000,12.9000,-11.1000,3.4000,3.3300,-8.4000,-0.0589,-0.0022,0.0033,-16.7500,-26.6875,20.5625,204.5000,19.9375,-157.6250,0
482.054,9.4523,2.4708,-0.8595,0.0306,0.1364,0.0538,-56.8500,18.9000,35.7000,9.7396,0.5746,0.0814,-0.0853,-0.0229,-0.0810,-62.2500,13.6500,-8.8500,3.3800,3.3500,-8.3600,-0.0600,-0.0033,0.0044,-16.7500,-26.6875,20.5625,204.5000,19.9375,-157.6250,0
482.059,9.4092,2.5139,-1.0487,0.0338,0.1399,0.0573,-56.8500,18.9000,35.7000,9.7396,0.5746,0.0814,-0.0203,-0.0085,-0.0821,-61.2000,12.3000,-9.7500,3.3800,3.3500,-8.3600,-0.0600,-0.0033,0.0044,-16.7500,-26.6875,20.5625,204.5000,19.9375,-157.6250,0
482.064,9.4092,2.5139,-1.0487,0.0338,0.1399,0.0573,-57.1500,18.4500,35.7000,9.6822,0.3759,0.0599,-0.0203,-0.0085,-0.0821,-61.2000,12.3000,-9.7500,3.3700,3.3900,-8.3700,-0.0665,0.0055,0.0022,-16.7500,-27.0625,21.0000,204.5000,19.9375,-157.5625,0
482.069,9.3948,2.5043,-1.0822,-0.0024,0.1375,0.0477,-57.1500,18.4500,35.7000,9.6822,0.3759,0.0599,-0.0160,-0.0197,-0.0765,-61.2000,12.3000,-9.7500,3.3700,3.3900,-8.3700,-0.0665,0.0055,0.0022,-16.7500,-27.0625,21.0000,204.5000,19.9375,-157.5625,0
482.074,9.3948,2.5043,-1.0822,-0.0024,0.1375,0.0477,-57.0000,19.5000,36.6000,9.7085,0.2035,-0.0311,-0.0450,-0.0330,-0.0789,-61.2000,12.3000,-9.7500,3.3400,3.3800,-8.3500,-0.0709,0.0033,0.0076,-16.7500,-27.0625,21.0000,204.5000,19.9375,-157.5000,0
482.079,9.3805,2.4110,-1.0750,-0.0234,0.1524,0.0568,-57.0000,19.5000,36.6000,9.7085,0.2035,-0.0311,-0.0450,-0.0330,-0.0789,-61.2000,13.5000,-9.3000,3.3400,3.3800,-8.3500,-0.0698,0.0065,0.0044,-16.7500,-27.0625,21.0000,204.5000,19.9375,-157.5000,0
482.085,9.3805,2.4110,-1.0750,-0.0234,0.1524,0.0568,-57.1500,18.4500,36.7500,9.7396,0.2993,-0.1580,-0.0869,-0.0269,-0.0714,-61.2000,13.5000,-9.3000,3.3900,3.3300,-8.3800,-0.0698,0.0065,0.0044,-16.7500,-27.0625,21.0000,204.5000,19.9375,-157.4375,0
482.095,9.3996,2.4828,-1.1253,-0.0496,0.1695,0.0490,-58.0500,19.0500,37.0500,9.7252,0.3831,-0.2203,-0.0994,-0.0224,-0.0818,-61.2000,13.5000,-9.3000,3.3700,3.3300,-8.3800,-0.0676,0.0022,0.0055,-16.7500,-27.0625,21.0000,204.5000,19.9375,-157.4375,0
482.103,9.4451,2.4828,-1.1636,-0.0762,0.1735,0.0608,-58.2000,19.6500,35.4000,9.6582,0.4980,-0.1915,-0.0994,-0.0224,-0.0818,-59.4000,13.8000,-9.3000,3.3700,3.3800,-8.3500,-0.0676,0.0065,0.0044,-16.7500,-27.0625,21.0000,204.5000,19.9375,-157.4375,0
482.107,9.4260,2.5187,-1.2498,-0.1071,0.1697,0.0584,-58.2000,19.6500,35.4000,9.6582,0.4980,-0.1915,-0.0818,-0.0091,-0.0957,-59.4000,13.8000,-9.3000,3.3700,3.3800,-8.3500,-0.0676,0.0065,0.0044,-16.7500,-27.0625,21.0000,204.5000,19.9375,-157.4375,0
482.112,9.4260,2.5187,-1.2498,-0.1071,0.1697,0.0584,-58.2000,19.6500,35.4000,9.6822,0.3926,-0.2490,-0.0818,-0.0091,-0.0957,-59.5500,13.2000,-9.9000,3.3700,3.3800,-8.3200,-0.0676,0.0098,0.0076,-16.7500,-27.0625,19.7500,204.5000,19.9375,-157.3750,0
482.117,9.3709,2.3798,-1.2330,-0.1415,0.1857,0.0434,-58.2000,19.6500,35.4000,9.6822,0.3926,-0.2490,-0.0727,-0.0075,-0.0935,-59.5500,13.2000,-9.9000,3.3700,3.3800,-8.3200,-0.0676,0.0098,0.0076,-16.7500,-27.0625,19.7500,204.5000,19.9375,-157.3750,0
482.122,9.3709,2.3798,-1.2330,-0.1415,0.1857,0.0434,-58.2000,19.6500,35.4000,9.6822,0.4717,-0.2538,-0.0727,-0.0075,-0.0935,-60.7500,13.6500,-8.4000,3.3800,3.3700,-8.3500,-0.0676,0.0087,0.0065,-16.7500,-27.0625,19.7500,204.5000,19.9375,-157.3125,0
482.127,9.3398,2.4038,-1.1875,-0.1623,0.1804,0.0354,-56.8500,18.1500,37.2000,9.6822,0.4717,-0.2538,-0.0653,0.0088,-0.0877,-60.7500,13.6500,-8.4000,3.3800,3.3700,-8.3500,-0.0676,0.0087,0.0065,-16.7500,-27.0625,19.7500,204.5625,19.9375,-157.3125,0
482.135,9.3398,2.4038,-1.1875,-0.1623,0.1804,0.0354,-57.3000,18.3000,35.8500,9.6869,0.4980,-0.2921,-0.0602,0.0131,-0.1010,-60.4500,14.5500,-9.3000,3.3600,3.3600,-8.3900,-0.0709,0.0098,0.0044,-16.7500,-27.0625,19.7500,204.5625,19.9375,-157.3125,0
482.144,9.3709,2.4804,-1.1827,-0.1796,0.1935,0.0293,-56.2500,19.5000,35.5500,9.6510,0.4932,-0.2203,-0.0314,0.0224,-0.1085,-63.1500,13.8000,-8.2500,3.3500,3.4000,-8.3200,-0.0698,0.0142,0.0076,-16.7500,-27.0625,19.7500,204.5625,19.9375,-157.2500,0
482.151,9.3733,2.5211,-1.1708,-0.1879,0.1889,0.0165,-56.2500,19.5000,35.5500,9.6319,0.4501,-0.1891,-0.0314,0.0224,-0.1085,-59.8500,13.2000,-8.4000,3.3700,3.4200,-8.3000,-0.0753,0.0175,0.0055,-16.7500,-27.0625,19.7500,204.5625,19.9375,-157.1875,0
482.156,9.3925,2.5402,-1.1133,-0.1713,0.1863,0.0168,-57.3000,18.7500,37.0500,9.6319,0.4501,-0.1891,-0.0099,0.0357,-0.1135,-59.8500,13.2000,-8.4000,3.3700,3.4200,-8.3000,-0.0753,0.0175,0.0055,-16.7500,-27.0625,19.7500,204.5625,19.9375,-157.1875,0
482.161,9.3925,2.5402,-1.1133,-0.1713,0.1863,0.0168,-57.3000,18.7500,37.0500,9.6678,0.4741,-0.0814,-0.0040,0.0381,-0.1204,-59.8500,13.2000,-8.4000,3.3700,3.4200,-8.3000,-0.0698,0.0175,0.0076,-16.0625,-27.0625,19.0000,204.5625,19.9375,-157.1875,0
482.166,9.3541,2.4756,-0.9625,-0.1663,0.1764,0.0152,-57.3000,18.7500,37.0500,9.6678,0.4741,-0.0814,-0.0040,0.0381,-0.1204,-59.8500,13.2000,-8.4000,3.3400,3.4200,-8.3200,-0.0698,0.0175,0.0076,-16.0625,-27.0625,19.0000,204.5625,19.9375,-157.1875,0
482.170,9.3541,2.4756,-0.9625,-0.1663,0.1764,0.0152,-57.3000,18.7500,37.0500,9.6750,0.3998,0.0120,0.0016,0.0410,-0.1231,-60.1500,13.5000,-10.0500,3.3400,3.4200,-8.3200,-0.0644,0.0185,0.0065,-16.0625,-27.0625,19.0000,204.5625,19.9375,-157.1250,0
482.176,9.3685,2.3750,-0.8523,-0.1647,0.1721,0.0163,-57.3000,18.7500,37.0500,9.6750,0.3998,0.0120,0.0016,0.0410,-0.1231,-60.1500,13.5000,-10.0500,3.3900,3.4300,-8.3100,-0.0644,0.0185,0.0065,-16.0625,-27.0625,19.0000,204.5625,19.9375,-157.1250,0
482.180,9.3685,2.3750,-0.8523,-0.1647,0.1721,0.0163,-57.3000,18.7500,37.0500,9.6534,0.4836,0.1269,0.0064,0.0384,-0.1231,-60.1500,13.5000,-10.0500,3.3900,3.4300,-8.3100,-0.0633,0.0218,0.0076,-16.0625,-27.0625,19.0000,204.5625,19.9375,-157.0625,0
482.186,9.2943,2.3463,-0.7326,-0.1524,0.1993,0.0208,-57.1500,18.9000,38.2500,9.6534,0.4836,0.1269,0.0064,0.0384,-0.1231,-60.1500,13.5000,-10.0500,3.3700,3.3800,-8.3500,-0.0633,0.0218,0.0076,-16.0625,-27.0625,19.0000,204.5625,20.0000,-157.0625,0
482.195,9.3757,2.2913,-0.6105,-0.1431,0.2076,0.0317,-56.4000,19.6500,36.7500,9.6845,0.4118,0.2179,0.0256,0.0389,-0.1332,-60.9000,13.0500,-10.5000,3.4000,3.3500,-8.3300,-0.0611,0.0251,0.0098,-16.0625,-27.0625,19.0000,204.5625,20.0000,-157.0625,0
482.201,9.3757,2.2913,-0.6105,-0.1431,0.2076,0.0317,-55.3500,19.2000,36.7500,9.6822,0.2945,0.3112,0.0405,0.0408,-0.1410,-61.9500,13.5000,-9.7500,3.4600,3.1200,-8.2700,-0.0676,0.0240,0.0000,-16.0625,-27.0625,19.0000,204.5625,20.0000,-157.0625,0
482.206,9.3901,2.3008,-0.6369,-0.1242,0.2286,0.0509,-55.3500,19.2000,36.7500,9.6822,0.2945,0.3112,0.0405,0.0408,-0.1410,-61.9500,13.5000,-9.7500,3.4600,3.1200,-8.2700,-0.0676,0.0240,0.0000,-16.0625,-27.0625,19.0000,204.5625,20.0000,-157.0625,0
482.211,9.3901,2.3008,-0.6369,-0.1242,0.2286,0.0509,-55.8000,19.5000,37.6500,9.7731,0.3089,0.4669,0.0184,0.0338,-0.1452,-60.3000,15.6000,-10.6500,3.3600,3.4900,-8.3300,-0.0884,0.0251,-0.0131,-16.7500,-27.3750,19.7500,204.5625,20.0000,-157.0000,0
482.216,9.4451,2.3846,-0.5100,-0.1007,0.2395,0.0722,-55.8000,19.5000,37.6500,9.7731,0.3089,0.4669,0.0184,0.0338,-0.1452,-60.3000,15.6000,-10.6500,3.3600,3.4900,-8.3300,-0.0884,0.0251,-0.0131,-16.7500,-27.3750,19.7500,204.5625,20.0000,-157.0000,0
482.221,9.4451,2.3846,-0.5100,-0.1007,0.2395,0.0722,-55.8000,19.5000,37.6500,9.7612,0.4118,0.4645,-0.0011,0.0250,-0.1529,-61.8000,13.9500,-9.6000,3.3600,3.4900,-8.3300,-0.0589,0.0273,0.0000,-16.7500,-27.3750,19.7500,204.5625,20.0625,-156.9375,0
482.226,9.3637,2.3607,-0.4597,-0.1023,0.2641,0.0874,-55.8000,19.5000,37.6500,9.7612,0.4118,0.4645,-0.0011,0.0250,-0.1529,-61.8000,13.9500,-9.6000,3.4200,3.2300,-8.3800,-0.0589,0.0273,0.0000,-16.7500,-27.3750,19.7500,204.5625,20.0625,-156.9375,0
482.230,9.3637,2.3607,-0.4597,-0.1023,0.2641,0.0874,-55.5000,18.7500,37.3500,9.7205,0.5602,0.4142,-0.0059,0.0200,-0.1543,-59.5500,13.6500,-8.8500,3.4200,3.2300,-8.3800,-0.0633,0.0262,0.0000,-16.7500,-27.3750,19.7500,204.5625,20.0625,-156.9375,0
482.236,9.3709,2.3056,-0.4190,-0.0687,0.2793,0.1069,-55.5000,18.7500,37.3500,9.7205,0.5602,0.4142,-0.0059,0.0200,-0.1543,-59.5500,13.6500,-8.8500,3.4400,3.3100,-8.3500,-0.0633,0.0262,0.0000,-16.7500,-27.3750,19.7500,204.5625,20.0625,-156.9375,0
482.245,9.4332,2.3990,-0.4357,-0.0296,0.2835,0.1287,-55.8000,20.2500,38.4000,9.7013,0.6895,0.3136,-0.0032,0.0203,-0.1529,-61.0500,14.4000,-9.6000,3.4700,3.3300,-8.3600,-0.0644,0.0218,-0.0044,-16.7500,-27.3750,19.7500,204.6250,20.0625,-156.9375,0
482.249,9.4332,2.3990,-0.4357,-0.0296,0.2835,0.1287,-55.8000,20.2500,38.4000,9.7516,0.6177,0.2514,0.0445,0.0168,-0.1588,-61.0500,14.4000,-9.6000,3.4700,3.3300,-8.3600,-0.0687,0.0207,-0.0055,-16.7500,-27.3750,19.7500,204.6250,20.0625,-156.8750,0
482.256,9.4954,2.3966,-0.3591,0.0131,0.2926,0.1378,-54.6000,19.6500,38.5500,9.7636,0.4477,0.3065,0.0445,0.0168,-0.1588,-61.0500,14.4000,-9.6000,3.4300,3.4600,-8.3300,-0.0687,0.0207,-0.0055,-16.7500,-27.3750,19.7500,204.6250,20.0625,-156.8750,0
482.261,9.4954,2.3966,-0.3591,0.0911,0.2840,0.1460,-56.8500,20.7000,38.5500,9.7636,0.4477,0.3065,0.0949,0.0149,-0.1695,-60.3000,12.9000,-9.6000,3.4300,3.4000,-8.3300,-0.0731,0.0218,-0.0109,-16.7500,-27.7500,18.1875,204.6250,20.1250,-156.8750,0
482.266,9.4882,2.3511,-0.3926,0.0911,0.2840,0.1460,-56.8500,20.7000,38.5500,9.7085,0.2849,0.3424,0.0949,0.0149,-0.1695,-60.3000,12.9000,-9.6000,3.4300,3.4000,-8.3300,-0.0731,0.0218,-0.0109,-16.7500,-27.7500,18.1875,204.6250,20.1250,-156.8750,0
482.271,9.4882,2.3511,-0.3926,0.1596,0.2595,0.1490,-55.2000,19.0500,38.1000,9.7085,0.2849,0.3424,0.0528,0.0048,-0.1737,-60.3000,12.9000,-9.6000,3.4300,3.4000,-8.3300,-0.0785,0.0229,-0.0153,-16.7500,-27.7500,18.1875,204.6250,20.1250,-156.8125,0
482.276,9.4068,2.4541,-0.2897,0.1596,0.2595,0.1490,-55.2000,19.0500,38.1000,9.6223,0.4549,0.1269,0.0528,0.0048,-0.1737,-60.3000,12.9000,-9.6000,3.4300,3.3600,-8.3100,-0.0785,0.0229,-0.0153,-16.7500,-27.7500,18.1875,204.6250,20.1250,-156.8125,0
482.280,9.2751,2.5546,-0.3256,0.1775,0.3008,0.1514,-55.2000,19.0500,38.1000,9.6223,0.4549,0.1269,0.0016,-0.0067,-0.1676,-59.4000,13.8000,-8.7000,3.4300,3.3600,-8.3100,-0.0840,0.0262,-0.0153,-16.7500,-27.7500,18.1875,204.6250,20.1250,-156.7500,0
482.286,9.2751,2.5546,-0.3256,0.1775,0.3008,0.1514,-55.2000,19.0500,38.1000,9.6941,0.7230,-0.0431,0.0096,0.0011,-0.1724,-59.4000,13.8000,-8.7000,3.4900,3.2400,-8.3700,-0.0840,0.0262,-0.0153,-16.7500,-27.7500,18.1875,204.6250,20.1250,-156.7500,0
482.295,9.4092,2.5594,-0.5339,0.2441,0.3147,0.1676,-55.5000,18.0000,39.4500,9.6678,0.8715,-0.1173,0.0096,0.0011,-0.1724,-59.7000,15.0000,-10.5000,3.4700,3.3300,-8.3400,-0.0938,0.0251,-0.0207,-16.7500,-27.7500,18.1875,204.6250,20.1250,-156.7500,0
482.299,9.4092,2.5594,-0.5339,0.2835,0.2990,0.1615,-54.9000,18.4500,37.8000,9.6678,0.8715,-0.1173,0.0879,0.0147,-0.1788,-59.7000,15.0000,-10.5000,3.4700,3.3300,-8.3400,-0.1036,0.0316,-0.0262,-16.7500,-27.7500,18.1875,204.6250,20.1875,-156.6875,0
482.306,9.5002,2.6073,-0.5291,0.2835,0.2990,0.1615,-54.9000,18.4500,37.8000,9.7516,0.8428,-0.0335,0.1466,0.0288,-0.1841,-60.3000,13.6500,-8.4000,3.4600,3.3600,-8.3300,-0.1036,0.0316,-0.0262,-16.7500,-27.7500,18.1875,204.6250,20.1875,-156.6875,0
482.311,9.4571,2.5115,-0.4860,0.2806,0.3363,0.1593,-57.3000,19.8000,38.1000,9.7516,0.8428,-0.0335,0.1466,0.0288,-0.1841,-60.3000,14.8500,-8.4000,3.4600,3.3600,-8.3300,-0.1036,0.0316,-0.0262,-16.5000,-27.0625,19.0000,204.6250,20.1875,-156.6250,0
482.316,9.4571,2.5115,-0.4860,0.2806,0.3363,0.1593,-57.3000,19.8000,38.1000,9.7995,0.6656,0.0910,0.1601,0.0242,-0.1825,-60.3000,14.8500,-8.1000,3.4200,3.4200,-8.2600,-0.1091,0.0305,-0.0295,-16.5000,-27.0625,19.0000,204.6250,20.1875,-156.6250,0
482.321,9.4547,2.4780,-0.4334,0.2761,0.3152,0.1575,-56.4000,20.7000,37.5000,9.7995,0.6656,0.0910,0.1601,0.0242,-0.1825,-60.7500,14.4000,-8.4000,3.4200,3.4200,-8.2600,-0.1091,0.0305,-0.0295,-16.5000,-27.0625,19.0000,204.5625,20.1875,-156.5625,0
482.326,9.4547,2.4780,-0.4334,0.2761,0.3152,0.1575,-56.4000,20.7000,37.5000,9.6367,0.6728,0.0622,0.1194,0.0083,-0.1817,-60.7500,14.4000,-8.4000,3.3700,3.4600,-8.2800,-0.1124,0.0349,-0.0305,-16.5000,-27.0625,19.0000,204.5625,20.1875,-156.5625,0
482.331,9.3470,2.4253,-0.2849,0.2817,0.2574,0.1596,-56.4000,20.7000,37.5000,9.6367,0.6728,0.0622,0.1194,0.0083,-0.1817,-58.9500,13.8000,-7.9500,3.3700,3.4600,-8.2800,-0.1134,0.0404,-0.0284,-16.5000,-27.0625,19.0000,204.5625,20.2500,-156.5000,0
482.336,9.3470,2.4253,-0.2849,0.2817,0.2574,0.1596,-56.4000,20.7000,37.5000,9.6702,0.8116,0.0646,0.0400,0.0080,-0.1756,-58.9500,13.8000,-7.9500,3.4300,3.5100,-8.2700,-0.1134,0.0404,-0.0284,-16.5000,-27.0625,19.0000,204.5625,20.2500,-156.5000,0
482.345,9.2895,2.3727,-0.1700,0.2212,0.3389,0.1807,-56.4000,20.7000,37.5000,9.6726,1.1516,-0.1293,0.0424,0.0139,-0.1684,-61.0500,14.4000,-9.1500,3.4200,3.5000,-8.2800,-0.1134,0.0371,-0.0284,-16.5000,-27.0625,19.0000,204.5625,20.2500,-156.4375,0
482.349,9.5624,2.4852,-0.3112,0.2790,0.3054,0.1929,-56.1000,21.4500,38.5500,9.6726,1.1516,-0.1293,0.0424,0.0139,-0.1684,-61.0500,14.4000,-9.1500,3.4200,3.5000,-8.2800,-0.1124,0.0382,-0.0305,-16.5000,-27.0625,19.0000,204.5625,20.2500,-156.3750,0
482.356,9.5624,2.4852,-0.3112,0.2790,0.3054,0.1929,-56.1000,21.4500,38.5500,9.6438,1.1181,-0.2011,0.1306,0.0301,-0.1681,-58.9500,14.2500,-8.7000,3.4600,3.5700,-8.2600,-0.1124,0.0382,-0.0305,-16.5000,-27.0625,19.0000,204.5625,20.2500,-156.3750,0
482.361,9.5026,2.5953,-0.2131,0.2587,0.3285,0.2020,-55.3500,20.7000,36.4500,9.6438,1.1181,-0.2011,0.1306,0.0301,-0.1681,-58.9500,14.2500,-8.7000,3.4600,3.5700,-8.2600,-0.1124,0.0415,-0.0393,-16.7500,-27.3750,19.7500,204.5625,20.2500,-156.2500,0
482.366,9.5026,2.5953,-0.2131,0.2587,0.3285,0.2020,-55.3500,20.7000,36.4500,9.5840,0.9433,-0.1197,0.1988,0.0344,-0.1724,-58.9500,14.2500,-8.7000,3.4300,3.5900,-8.2400,-0.1124,0.0415,-0.0393,-16.7500,-27.3750,19.7500,204.5625,20.2500,-156.2500,0
482.371,9.6151,2.5881,-0.2801,0.3011,0.3216,0.1881,-54.7500,18.7500,38.4000,9.5840,0.9433,-0.1197,0.1988,0.0344,-0.1724,-58.9500,14.2500,-8.7000,3.4300,3.5900,-8.2400,-0.1069,0.0316,-0.0382,-16.7500,-27.3750,19.7500,204.5625,20.3125,-156.1875,0
482.376,9.6151,2.5881,-0.2801,0.3011,0.3216,0.1881,-54.7500,18.7500,38.4000,9.5984,0.8212,-0.1484,0.1791,0.0285,-0.1697,-60.4500,14.5500,-9.3000,3.4100,3.5200,-8.2400,-0.1069,0.0316,-0.0382,-16.7500,-27.3750,19.7500,204.5625,20.3125,-156.1875,0
482.381,9.2464,2.5977,-0.0670,0.3008,0.3301,0.1865,-57.0000,18.3000,37.6500,9.6558,0.8763,-0.1413,0.1791,0.0285,-0.1697,-60.4500,14.5500,-9.3000,3.4100,3.5200,-8.2400,-0.0971,0.0338,-0.0404,-16.7500,-27.3750,19.7500,204.5000,20.3125,-156.1250,0
482.386,9.2464,2.5977,-0.0670,0.3008,0.3301,0.1865,-57.0000,18.3000,37.6500,9.6558,0.8763,-0.1413,0.1708,0.0330,-0.1641,-59.4000,15.0000,-8.7000,3.4100,3.5400,-8.2600,-0.0971,0.0338,-0.0404,-16.7500,-27.3750,19.7500,204.5000,20.3125,-156.1250,0
482.395,9.4858,2.5953,-0.1437,0.3293,0.3669,0.1796,-57.0000,18.3000,37.6500,9.6774,1.0439,-0.1532,0.1673,0.0354,-0.1689,-59.8500,14.8500,-8.8500,3.4700,3.5400,-8.2400,-0.0927,0.0393,-0.0360,-16.7500,-27.3750,19.7500,204.5000,20.3125,-156.0625,0
482.400,9.3565,2.5379,0.0144,0.3816,0.3112,0.1697,-56.4000,19.6500,37.8000,9.6223,1.1851,-0.1867,0.1673,0.0354,-0.1689,-59.8500,14.8500,-8.8500,3.4700,3.5400,-8.2400,-0.0829,0.0349,-0.0393,-16.7500,-27.3750,19.7500,204.5000,20.3125,-156.0625,0
482.406,9.5098,2.4134,0.1341,0.3706,0.3659,0.1724,-56.4000,19.6500,37.8000,9.6223,1.1851,-0.1867,0.1785,0.0512,-0.1639,-59.4000,13.5000,-9.3000,3.4500,3.5400,-8.2500,-0.0829,0.0349,-0.0393,-16.7500,-27.3750,19.7500,204.5000,20.3125,-156.0625,0
482.411,9.5098,2.4134,0.1341,0.3706,0.3659,0.1724,-56.1000,20.4000,37.5000,9.6247,1.2306,-0.2298,0.2300,0.0517,-0.1711,-59.5500,13.5000,-9.3000,3.4100,3.5700,-8.2000,-0.0731,0.0262,-0.0393,-17.1875,-27.3750,20.1875,204.5000,20.3125,-156.0000,0
482.416,9.5026,2.5091,0.0862,0.4143,0.2974,0.1620,-56.1000,20.4000,37.5000,9.6247,1.2306,-0.2298,0.2300,0.0517,-0.1711,-59.5500,13.6500,-8.8500,3.4100,3.5700,-8.2000,-0.0731,0.0262,-0.0393,-17.1875,-27.3750,20.1875,204.5000,20.3125,-156.0000,0
482.421,9.5026,2.5091,0.0862,0.4143,0.2974,0.1620,-56.5500,20.2500,38.1000,9.5888,1.1492,-0.0814,0.2651,0.0618,-0.1676,-59.5500,13.6500,-8.8500,3.4100,3.5700,-8.2000,-0.0644,0.0273,-0.0404,-17.1875,-27.3750,20.1875,204.4375,20.3125,-155.9375,0
482.426,9.4355,2.4134,0.1915,0.4029,0.3549,0.1548,-56.5500,20.2500,38.1000,9.5888,1.1492,-0.0814,0.2651,0.0618,-0.1676,-60.9000,16.5000,-7.9500,3.4000,3.5600,-8.2200,-0.0644,0.0273,-0.0404,-17.1875,-27.3750,20.1875,204.4375,20.3125,-155.9375,0
482.431,9.4355,2.4134,0.1915,0.4029,0.3549,0.1548,-56.2500,19.5000,36.6000,9.5912,1.0630,-0.0407,0.2427,0.0544,-0.1580,-60.9000,16.5000,-7.9500,3.4000,3.5600,-8.2200,-0.0622,0.0273,-0.0360,-17.1875,-27.3750,20.1875,204.4375,20.3750,-155.8750,0
482.436,9.5193,2.3559,0.3089,0.4906,0.2369,0.1463,-56.2500,19.5000,35.8500,9.5912,1.0630,-0.0407,0.2427,0.0544,-0.1580,-60.4500,14.5500,-9.3000,3.4800,3.5400,-8.2400,-0.0622,0.0273,-0.0360,-17.1875,-27.3750,20.1875,204.4375,20.3750,-155.8750,0
482.445,9.3733,2.3559,0.3400,0.4378,0.3352,0.1492,-56.2500,19.5000,35.8500,9.6414,1.1564,-0.1317,0.1921,0.0528,-0.1553,-59.5500,13.6500,-8.4000,3.4400,3.5500,-8.2300,-0.0556,0.0229,-0.0371,-17.1875,-27.3750,20.1875,204.4375,20.3750,-155.8750,0
482.452,9.3733,2.3559,0.3400,0.4378,0.3352,0.1492,-56.2500,19.5000,35.8500,9.7205,1.4389,-0.1125,0.1881,0.0653,-0.1444,-59.5500,13.6500,-8.4000,3.4300,3.6200,-8.1900,-0.0491,0.0229,-0.0371,-17.1875,-27.3750,20.1875,204.4375,20.3750,-155.8125,0
482.456,9.5481,2.4397,0.2849,0.5012,0.2809,0.1420,-56.5500,20.2500,38.7000,9.7205,1.4389,-0.1125,0.1881,0.0653,-0.1444,-59.5500,13.6500,-8.4000,3.4300,3.6200,-8.1900,-0.0491,0.0229,-0.0371,-17.1875,-27.3750,20.1875,204.4375,20.3750,-155.8125,0
482.461,9.5481,2.4397,0.2849,0.5012,0.2809,0.1420,-56.5500,20.2500,38.7000,9.5936,1.5227,-0.0096,0.2305,0.0693,-0.1506,-59.5500,13.6500,-8.4000,3.4300,3.6200,-8.1900,-0.0491,0.0229,-0.0371,-17.8750,-27.0625,19.7500,204.3750,20.3750,-155.8125,0
482.466,9.4739,2.4995,0.3496,0.5239,0.2731,0.1335,-57.0000,21.7500,38.4000,9.5936,1.5227,-0.0096,0.2305,0.0693,-0.1506,-58.8000,14.4000,-9.1500,3.4500,3.5800,-8.2000,-0.0415,0.0240,-0.0360,-17.8750,-27.0625,19.7500,204.3750,20.3750,-155.8125,0
482.471,9.4739,2.4995,0.3496,0.5239,0.2731,0.1335,-57.0000,21.7500,38.4000,9.6367,1.4916,0.1245,0.2329,0.0863,-0.1458,-58.8000,14.4000,-9.1500,3.4500,3.5800,-8.2000,-0.0415,0.0240,-0.0360,-17.8750,-27.0625,19.7500,204.3750,20.3750,-155.7500,0
482.476,9.5744,2.3535,0.4812,0.4786,0.3264,0.1132,-55.5000,21.3000,37.0500,9.6367,1.4916,0.1245,0.2329,0.0863,-0.1458,-58.9500,15.0000,-8.7000,3.4400,3.5100,-8.2100,-0.0360,0.0251,-0.0371,-17.8750,-27.0625,19.7500,204.3750,20.3750,-155.7500,0
482.481,9.5744,2.3535,0.4812,0.4786,0.3264,0.1132,-55.5000,21.3000,37.0500,9.7037,1.4293,-0.1077,0.2142,0.0738,-0.1284,-58.9500,15.0000,-8.7000,3.4400,3.5100,-8.2100,-0.0316,0.0185,-0.0349,-17.8750,-27.0625,19.7500,204.3750,20.3750,-155.7500,0
482.486,9.5026,2.2242,0.6009,0.4663,0.2763,0.1082,-56.5500,19.8000,36.6000,9.7420,1.5395,0.0383,0.2142,0.0738,-0.1284,-59.4000,14.5500,-9.7500,3.4500,3.6700,-8.1600,-0.0316,0.0185,-0.0349,-17.8750,-27.0625,19.7500,204.3750,20.3750,-155.7500,0
482.495,9.3063,2.1548,0.6488,0.4159,0.2638,0.1015,-56.5500,19.8000,36.6000,9.7420,1.5395,0.0383,0.1895,0.0637,-0.1045,-61.5000,15.6000,-9.6000,3.3200,3.8000,-8.1000,-0.0284,0.0185,-0.0316,-17.8750,-27.0625,19.7500,204.3750,20.3750,-155.7500,0
482.500,9.3063,2.1548,0.6488,0.4159,0.2638,0.1015,-56.5500,19.8000,36.6000,9.5529,1.6951,0.1748,0.1801,0.0634,-0.1005,-61.5000,15.6000,-9.6000,3.3200,3.8000,-8.1000,-0.0196,0.0251,-0.0284,-17.8750,-27.0625,19.7500,204.3125,20.3750,-155.6875,0
482.506,9.3422,2.0375,0.7350,0.3840,0.2766,0.0946,-56.5500,19.8000,36.6000,9.5577,1.5012,0.2011,0.1996,0.0576,-0.1021,-59.4000,14.5500,-8.2500,3.3600,3.7000,-8.1100,-0.0196,0.0251,-0.0284,-17.8750,-27.0625,19.7500,204.3125,20.3750,-155.6875,0
482.511,9.3422,2.0375,0.7350,0.3840,0.2766,0.0946,-56.5500,19.8000,36.6000,9.5577,1.5012,0.2011,0.1996,0.0576,-0.1021,-59.4000,14.5500,-8.2500,3.3600,3.7000,-8.1100,-0.0196,0.0251,-0.0284,-16.7500,-27.7500,19.3750,204.3125,20.3750,-155.6875,0
482.516,9.5122,1.9896,0.6584,0.3619,0.2936,0.1013,-56.2500,21.3000,37.3500,9.6534,1.2594,0.1484,0.2057,0.0602,-0.0967,-58.8000,14.8500,-6.9000,3.5200,3.6700,-8.1000,-0.0033,0.0240,-0.0240,-16.7500,-27.7500,19.3750,204.3125,20.3750,-155.6875,0
482.521,9.5122,1.9896,0.6584,0.3619,0.2936,0.1013,-56.2500,21.3000,37.3500,9.6534,1.2594,0.1484,0.2057,0.0602,-0.0967,-58.8000,14.8500,-6.9000,3.5200,3.6700,-8.1000,-0.0033,0.0240,-0.0240,-16.7500,-27.7500,19.3750,204.3125,20.3750,-155.6875,0
482.526,9.6414,1.9465,0.7278,0.3312,0.2979,0.0935,-56.1000,22.6500,37.8000,9.7468,1.0918,0.3280,0.1937,0.0554,-0.0861,-58.8000,14.8500,-6.9000,3.4200,3.5400,-8.2300,0.0109,0.0087,-0.0251,-16.7500,-27.7500,19.3750,204.3125,20.3750,-155.6875,0
482.531,9.6414,1.9465,0.7278,0.3312,0.2979,0.0935,-56.1000,22.6500,37.8000,9.7468,1.0918,0.3280,0.1937,0.0554,-0.0861,-58.8000,14.8500,-6.9000,3.4200,3.5400,-8.2300,0.0164,-0.0011,-0.0240,-16.7500,-27.7500,19.3750,204.3125,20.3750,-155.6875,0
482.536,9.6486,1.7909,0.6823,0.3176,0.2915,0.0903,-56.4000,22.6500,37.2000,9.7468,0.9074,0.3376,0.1468,0.0397,-0.0818,-58.8000,14.8500,-8.4000,3.4500,3.5400,-8.2600,0.0164,-0.0011,-0.0240,-16.7500,-27.7500,19.3750,204.2500,20.3750,-155.7500,0
482.546,9.5696,1.7023,0.6680,0.3293,0.2811,0.0813,-57.7500,21.7500,37.3500,9.7013,0.8882,0.3496,0.1135,0.0306,-0.0871,-58.8000,14.8500,-8.4000,3.4300,3.5300,-8.2300,0.0207,-0.0055,-0.0196,-16.7500,-27.7500,19.3750,204.2500,20.3750,-155.7500,0
482.552,9.5385,1.6903,0.6393,0.3469,0.2886,0.0983,-57.7500,21.7500,37.3500,9.7013,0.8882,0.3496,0.1135,0.0306,-0.0871,-58.8000,14.8500,-8.4000,3.4500,3.5000,-8.2800,0.0164,-0.0022,-0.0185,-16.7500,-27.7500,19.3750,204.2500,20.3750,-155.7500,0
482.557,9.5385,1.6903,0.6393,0.3469,0.2886,0.0983,-57.7500,21.7500,37.3500,9.7252,1.1444,0.3879,0.0951,0.0290,-0.0863,-58.8000,15.6000,-9.9000,3.4500,3.5000,-8.2800,0.0164,-0.0022,-0.0185,-16.7500,-27.7500,19.3750,204.2500,20.3750,-155.7500,0
482.562,9.4906,1.7023,0.5100,0.3789,0.2755,0.1140,-57.7500,21.7500,37.3500,9.7252,1.1444,0.3879,0.0951,0.0290,-0.0863,-58.8000,15.6000,-9.9000,3.4500,3.4900,-8.2400,0.0109,0.0033,-0.0175,-16.7500,-28.1875,19.3750,204.2500,20.3750,-155.7500,0
482.567,9.4906,1.7023,0.5100,0.3789,0.2755,0.1140,-56.8500,23.4000,37.8000,9.7636,1.2402,0.3567,0.1292,0.0248,-0.0914,-60.9000,15.0000,-9.3000,3.4500,3.4900,-8.2400,0.0109,0.0033,-0.0175,-16.7500,-28.1875,19.3750,204.2500,20.3750,-155.7500,0
482.576,9.5289,1.8100,0.5219,0.4157,0.2547,0.1255,-58.9500,24.1500,36.7500,9.7181,1.3599,0.4501,0.2092,0.0320,-0.0965,-59.1000,14.8500,-9.6000,3.4600,3.5300,-8.2400,0.0142,0.0011,-0.0153,-16.7500,-28.1875,19.3750,204.2500,20.3750,-155.7500,0
482.584,9.5002,1.8938,0.5052,0.4636,0.2521,0.1370,-58.9500,24.1500,36.7500,9.6223,1.3431,0.3903,0.2646,0.0298,-0.1010,-59.5500,13.6500,-8.4000,3.4600,3.4900,-8.2700,0.0098,0.0065,-0.0164,-16.7500,-28.1875,19.3750,204.2500,20.3750,-155.7500,0
482.588,9.5002,1.8938,0.5052,0.4636,0.2521,0.1370,-59.2500,24.4500,37.5000,9.6223,1.3431,0.3903,0.2646,0.0298,-0.1010,-59.5500,13.6500,-8.4000,3.4600,3.4900,-8.2700,0.0098,0.0065,-0.0164,-16.7500,-28.1875,19.3750,204.2500,20.3750,-155.7500,0
482.596,9.5840,1.9920,0.5602,0.4858,0.2433,0.1391,-58.9500,24.4500,36.7500,9.6678,1.2833,0.3663,0.2947,0.0200,-0.0903,-58.8000,15.6000,-9.1500,3.4300,3.4600,-8.2500,0.0065,0.0065,-0.0153,-16.7500,-28.1875,19.3750,204.2500,20.3750,-155.7500,0
482.605,9.4212,1.8986,0.7015,0.5177,0.2382,0.1439,-60.0000,24.9000,36.1500,9.7157,1.1851,0.3519,0.3142,0.0109,-0.0927,-59.7000,16.9500,-9.7500,3.4700,3.5600,-8.2300,0.0055,0.0153,-0.0153,-16.7500,-28.1875,19.3750,204.2500,20.3750,-155.8125,0
482.610,9.4523,1.9082,0.6608,0.5348,0.2601,0.1396,-60.0000,24.9000,36.1500,9.7157,1.1851,0.3519,0.3142,0.0109,-0.0927,-59.7000,16.9500,-9.7500,3.4700,3.5600,-8.2300,0.0076,0.0164,-0.0164,-15.7500,-27.7500,18.1875,204.1875,20.4375,-155.8125,0
482.616,9.4523,1.9082,0.6608,0.5348,0.2601,0.1396,-60.0000,24.9000,36.1500,9.7396,1.2019,0.3065,0.3019,0.0048,-0.0895,-59.7000,16.9500,-9.7500,3.4200,3.5500,-8.2300,0.0076,0.0164,-0.0164,-15.7500,-27.7500,18.1875,204.1875,20.4375,-155.8125,0
482.626,9.5553,1.8866,0.7278,0.5494,0.2761,0.1394,-60.4500,25.9500,35.4000,9.7013,1.1516,0.3089,0.2750,0.0019,-0.0898,-59.7000,15.0000,-9.3000,3.4500,3.5500,-8.2300,0.0076,0.0185,-0.0185,-15.7500,-27.7500,18.1875,204.1875,20.4375,-155.8125,0
482.632,9.5960,1.9249,0.7063,0.5726,0.2987,0.1412,-60.4500,25.9500,35.4000,9.6534,1.3336,0.2083,0.2449,0.0008,-0.0890,-59.7000,15.0000,-9.3000,3.4600,3.4800,-8.2900,0.0087,0.0196,-0.0196,-15.7500,-27.7500,18.1875,204.1875,20.4375,-155.8125,0
482.637,9.5960,1.9249,0.7063,0.5726,0.2987,0.1412,-60.7500,26.4000,35.7000,9.6534,1.3336,0.2083,0.2449,0.0008,-0.0890,-59.7000,15.0000,-9.3000,3.4600,3.4800,-8.2900,0.0087,0.0196,-0.0196,-15.7500,-27.7500,18.1875,204.1875,20.4375,-155.8125,0
482.646,9.5816,1.9321,0.7590,0.5950,0.3011,0.1303,-61.3500,26.5500,37.0500,9.6750,1.2330,0.2322,0.2555,-0.0077,-0.0901,-58.2000,14.5500,-9.3000,3.4400,3.5000,-8.2500,0.0033,0.0218,-0.0196,-15.7500,-27.7500,18.1875,204.1875,20.4375,-155.8125,0
482.652,9.6151,1.9417,0.5435,0.6043,0.3019,0.1178,-61.3500,26.5500,37.0500,9.6726,1.2953,0.2682,0.2526,-0.0144,-0.0866,-58.2000,14.5500,-9.3000,3.4600,3.5200,-8.2600,-0.0011,0.0240,-0.0164,-15.7500,-27.7500,18.1875,204.1875,20.4375,-155.8125,0
482.657,9.6151,1.9417,0.5435,0.6043,0.3019,0.1178,-62.1000,28.5000,35.2500,9.6726,1.2953,0.2682,0.2526,-0.0144,-0.0866,-58.3500,15.1500,-9.9000,3.4600,3.5200,-8.2600,-0.0011,0.0240,-0.0164,-15.7500,-27.7500,18.1875,204.1875,20.4375,-155.8125,0
482.662,9.5600,1.8818,0.5052,0.6086,0.2955,0.1167,-62.1000,28.5000,35.2500,9.6510,1.3144,0.1460,0.2297,-0.0139,-0.0858,-58.3500,15.1500,-9.9000,3.4200,3.5100,-8.2100,-0.0022,0.0196,-0.0196,-16.7500,-28.1875,19.0000,204.1875,20.4375,-155.8125,0
482.667,9.5600,1.8818,0.5052,0.6086,0.2955,0.1167,-61.5000,27.9000,37.2000,9.6510,1.3144,0.1460,0.2297,-0.0139,-0.0858,-59.5500,15.1500,-7.6500,3.4200,3.5100,-8.2100,-0.0022,0.0196,-0.0196,-16.7500,-28.1875,19.0000,204.1250,20.5000,-155.8125,0
482.676,9.4140,1.7645,0.3807,0.6134,0.2851,0.1231,-61.5000,27.9000,37.2000,9.6845,1.2833,0.1437,0.2356,-0.0059,-0.0839,-59.5500,16.3500,-9.1500,3.4600,3.5100,-8.2300,-0.0033,0.0196,-0.0164,-16.7500,-28.1875,19.0000,204.1250,20.5000,-155.8125,0
482.682,9.4164,1.8220,0.3903,0.6235,0.2766,0.1306,-61.5000,28.6500,35.4000,9.6414,1.3216,0.1628,0.2246,-0.0072,-0.0919,-59.5500,16.3500,-9.1500,3.4500,3.5000,-8.2400,-0.0044,0.0164,-0.0153,-16.7500,-28.1875,19.0000,204.1250,20.5000,-155.8125,0
482.687,9.4308,1.7837,0.4573,0.6161,0.2710,0.1442,-61.5000,28.6500,35.4000,9.6414,1.3216,0.1628,0.2246,-0.0072,-0.0919,-59.5500,14.8500,-10.3500,3.4500,3.5000,-8.2400,-0.0044,0.0164,-0.0153,-16.7500,-28.1875,19.0000,204.1250,20.5000,-155.8125,0
482.696,9.4308,1.7837,0.4573,0.6161,0.2710,0.1442,-61.3500,28.5000,35.8500,9.6295,1.1732,0.0096,0.2116,-0.0048,-0.0895,-58.6500,15.0000,-9.3000,3.4700,3.5200,-8.2300,-0.0022,0.0196,-0.0175,-16.7500,-28.1875,19.0000,204.1250,20.5000,-155.8125,0
482.704,9.4715,1.9417,0.4262,0.6190,0.2622,0.1564,-60.7500,27.9000,36.1500,9.7157,1.0463,-0.0192,0.2196,-0.0024,-0.0882,-58.6500,15.0000,-9.3000,3.4700,3.5500,-8.1900,-0.0033,0.0196,-0.0164,-16.7500,-28.1875,19.0000,204.1250,20.5000,-155.8125,0
482.709,9.4930,2.0279,0.3352,0.6211,0.2673,0.1663,-60.7500,27.9000,36.1500,9.5816,1.2809,-0.1245,0.2086,0.0000,-0.0869,-58.6500,15.0000,-9.3000,3.4700,3.5500,-8.1900,-0.0033,0.0196,-0.0164,-16.7500,-28.1875,19.0000,204.1250,20.5000,-155.8125,0
482.714,9.4930,2.0279,0.3352,0.6211,0.2673,0.1663,-62.2500,28.2000,36.1500,9.5816,1.2809,-0.1245,0.2086,0.0000,-0.0869,-59.5500,15.9000,-9.3000,3.4000,3.5400,-8.2500,-0.0033,0.0218,-0.0196,-16.5000,-27.7500,19.0000,204.1250,20.5000,-155.8125,0
482.719,9.5337,2.1141,0.2562,0.6291,0.2665,0.1729,-62.2500,28.2000,36.1500,9.5792,1.4844,-0.1915,0.2254,-0.0003,-0.0818,-59.5500,15.9000,-10.6500,3.4000,3.5400,-8.2500,-0.0033,0.0218,-0.0196,-16.5000,-27.7500,19.0000,204.1250,20.5000,-155.8125,0
482.726,9.5529,2.2697,0.2682,0.6643,0.2579,0.1823,-62.2500,28.2000,36.1500,9.5792,1.4844,-0.1915,0.2254,-0.0003,-0.0818,-59.5500,15.9000,-10.6500,3.4400,3.5300,-8.2400,-0.0065,0.0262,-0.0185,-16.5000,-27.7500,19.0000,204.1250,20.5000,-155.8125,0
482.735,9.5792,2.2745,0.2035,0.6941,0.2521,0.1679,-61.8000,26.7000,36.1500,9.6343,1.7286,-0.3735,0.2790,0.0120,-0.0754,-59.1000,15.6000,-10.3500,3.5000,3.5800,-8.2400,-0.0033,0.0316,-0.0153,-16.5000,-27.7500,19.0000,204.0625,20.5625,-155.8125,0
482.742,9.5792,2.2745,0.2035,0.6941,0.2521,0.1679,-61.2000,28.2000,37.2000,9.5433,1.9201,-0.4046,0.3573,0.0277,-0.0709,-59.1000,15.6000,-10.3500,3.4300,3.5100,-8.2300,-0.0065,0.0327,-0.0196,-16.5000,-27.7500,19.0000,204.0625,20.5625,-155.8125,0
482.747,9.5193,2.3367,0.0910,0.7344,0.2531,0.1396,-61.2000,28.2000,37.2000,9.4906,1.9465,-0.4908,0.4565,0.0426,-0.0711,-58.6500,16.2000,-9.7500,3.4300,3.5100,-8.2300,-0.0065,0.0327,-0.0196,-16.5000,-27.7500,19.0000,204.0625,20.5625,-155.8125,0
482.756,9.5409,2.2601,0.2155,0.7530,0.2491,0.1194,-63.0000,30.1500,35.7000,9.4499,1.5060,-0.4693,0.4565,0.0426,-0.0711,-59.1000,16.8000,-9.9000,3.4400,3.6300,-8.1400,-0.0011,0.0371,-0.0218,-16.5000,-27.7500,19.0000,204.0625,20.5625,-155.8125,0
482.761,9.5409,2.2601,0.2155,0.7530,0.2491,0.1194,-61.6500,28.0500,35.5500,9.4499,1.5060,-0.4693,0.5036,0.0413,-0.0794,-59.1000,16.8000,-9.9000,3.4400,3.6300,-8.1400,-0.0011,0.0371,-0.0218,-16.5000,-27.7500,19.0000,204.0625,20.5625,-155.8125,0
482.766,9.4451,2.2075,0.2873,0.7474,0.2699,0.0951,-61.6500,28.0500,35.5500,9.4834,1.2905,-0.2705,0.4716,0.0461,-0.0853,-60.1500,14.5500,-9.7500,3.4800,3.7000,-8.0800,0.0055,0.0305,-0.0207,-16.7500,-27.3750,17.7500,204.0625,20.5625,-155.8125,0
482.771,9.4451,2.2075,0.2873,0.7474,0.2699,0.0951,-61.8000,28.9500,35.4000,9.4834,1.2905,-0.2705,0.4716,0.0461,-0.0853,-60.1500,14.5500,-9.7500,3.4800,3.7000,-8.0800,0.0055,0.0305,-0.0207,-16.7500,-27.3750,17.7500,204.0625,20.5625,-155.8125,0
482.776,9.4954,2.1787,0.3879,0.7341,0.2875,0.0981,-61.8000,28.9500,35.4000,9.5529,1.1779,-0.1867,0.3960,0.0504,-0.0730,-59.1000,15.1500,-9.9000,3.4200,3.7100,-8.0600,0.0131,0.0262,-0.0305,-16.7500,-27.3750,17.7500,204.0000,20.5625,-155.8125,0
482.781,9.4954,2.1787,0.3879,0.7341,0.2875,0.0981,-61.8000,28.9500,35.4000,9.5529,1.1779,-0.1867,0.3960,0.0504,-0.0730,-59.1000,15.1500,-9.9000,3.4200,3.7100,-8.0600,0.0229,0.0196,-0.0305,-16.7500,-27.3750,17.7500,204.0000,20.6250,-155.8125,0
482.787,9.6343,2.0877,0.5219,0.7232,0.2817,0.0967,-61.8000,28.9500,35.4000,9.5816,1.0367,-0.1820,0.3344,0.0608,-0.0818,-59.4000,15.7500,-10.8000,3.3900,3.6800,-8.1300,0.0229,0.0196,-0.0305,-16.7500,-27.3750,17.7500,204.0000,20.6250,-155.8125,0
482.796,9.6989,1.9369,0.5028,0.6933,0.2974,0.1047,-62.2500,30.1500,36.1500,9.5840,1.0223,-0.1556,0.2673,0.0703,-0.0853,-59.4000,15.7500,-10.8000,3.4900,3.5100,-8.2600,0.0273,0.0120,-0.0316,-16.7500,-27.3750,17.7500,204.0000,20.6250,-155.8125,0
482.801,9.6989,1.9369,0.5028,0.6933,0.2974,0.1047,-61.2000,29.4000,36.1500,9.5840,1.0223,-0.1556,0.2673,0.0703,-0.0853,-59.4000,15.7500,-10.8000,3.4900,3.5100,-8.2600,0.0284,0.0120,-0.0316,-16.7500,-27.3750,17.7500,203.9375,20.6250,-155.8125,0
482.807,9.5744,1.8076,0.3759,0.7184,0.2827,0.1066,-61.2000,29.4000,36.1500,9.6917,1.3312,-0.2035,0.2675,0.0839,-0.0917,-59.7000,15.4500,-9.7500,3.5000,3.4800,-8.2400,0.0284,0.0120,-0.0316,-16.7500,-27.3750,17.7500,203.9375,20.6250,-155.8125,0
482.812,9.5744,1.8076,0.3759,0.7184,0.2827,0.1066,-61.2000,30.4500,36.1500,9.6917,1.3312,-0.2035,0.2675,0.0839,-0.0917,-59.7000,15.4500,-9.7500,3.5000,3.4800,-8.2400,0.0284,0.0120,-0.0316,-16.5000,-27.7500,18.5625,203.9375,20.6250,-155.8125,0
482.817,9.6103,1.7549,0.1580,0.7405,0.2920,0.1103,-61.2000,30.4500,36.1500,9.5768,1.6568,-0.3065,0.3040,0.0855,-0.0869,-59.7000,15.4500,-9.7500,3.4900,3.4800,-8.2200,0.0295,0.0120,-0.0284,-16.5000,-27.7500,18.5625,203.9375,20.6250,-155.8125,0
482.821,9.6103,1.7549,0.1580,0.7405,0.2920,0.1103,-61.2000,29.4000,35.7000,9.5768,1.6568,-0.3065,0.3040,0.0855,-0.0869,-59.7000,15.4500,-9.7500,3.4900,3.4800,-8.2200,0.0295,0.0120,-0.0284,-16.5000,-27.7500,18.5625,203.9375,20.6250,-155.8750,0
482.827,9.6510,1.8148,0.0742,0.7613,0.2587,0.1164,-61.2000,29.4000,35.7000,9.5265,1.8675,-0.3376,0.4239,0.1037,-0.0845,-59.5500,14.8500,-9.6000,3.4700,3.5400,-8.2500,0.0338,0.0087,-0.0273,-16.5000,-27.7500,18.5625,203.9375,20.6250,-155.8750,0
482.831,9.6510,1.8148,0.0742,0.7954,0.2441,0.1223,-61.8000,30.4500,34.9500,9.5265,1.8675,-0.3376,0.4239,0.1037,-0.0845,-59.5500,14.8500,-9.6000,3.4700,3.5400,-8.2500,0.0338,0.0185,-0.0229,-16.5000,-27.7500,18.5625,203.9375,20.6250,-155.8750,0
482.837,9.6726,1.9154,0.1556,0.7954,0.2441,0.1223,-61.8000,30.4500,34.9500,9.5193,1.9513,-0.1580,0.5204,0.1180,-0.0853,-58.3500,16.3500,-9.6000,3.4800,3.5900,-8.2600,0.0338,0.0185,-0.0229,-16.5000,-27.7500,18.5625,203.8750,20.6250,-155.8750,0
482.846,9.7468,1.8890,0.1652,0.7938,0.2433,0.1116,-61.8000,30.4500,34.9500,9.4786,1.7358,-0.1149,0.5545,0.1290,-0.0882,-58.6500,16.9500,-10.5000,3.4700,3.5600,-8.2500,0.0404,0.0175,-0.0262,-16.5000,-27.7500,18.5625,203.8750,20.6250,-155.8750,0
482.852,9.6750,1.9321,0.4645,0.8090,0.2145,0.1058,-62.2500,30.9000,36.4500,9.5744,1.5179,-0.0958,0.5412,0.1343,-0.0805,-58.6500,16.9500,-10.5000,3.4800,3.6100,-8.1800,0.0393,0.0185,-0.0273,-16.5000,-27.7500,18.5625,203.8750,20.6250,-155.9375,0
482.857,9.6750,1.9321,0.4645,0.8090,0.2145,0.1058,-62.2500,30.9000,36.4500,9.5744,1.5179,-0.0958,0.5412,0.1343,-0.0805,-58.2000,15.7500,-10.5000,3.4800,3.6100,-8.1800,0.0393,0.0185,-0.0273,-16.5000,-27.7500,18.5625,203.8750,20.6250,-155.9375,0
482.862,9.5744,1.9321,0.7446,0.7855,0.1969,0.0861,-61.3500,30.3000,35.8500,9.6798,1.4006,0.0096,0.4660,0.1226,-0.0722,-58.2000,15.7500,-10.5000,3.4800,3.6100,-8.1800,0.0404,0.0196,-0.0295,-16.5000,-28.1875,19.7500,203.8750,20.6250,-155.9375,0
482.867,9.5744,1.9321,0.7446,0.7855,0.1969,0.0861,-61.3500,30.3000,35.8500,9.6798,1.4006,0.0096,0.4660,0.1226,-0.0722,-59.4000,15.7500,-9.7500,3.4400,3.6300,-8.1900,0.0404,0.0196,-0.0295,-16.5000,-28.1875,19.7500,203.8750,20.6250,-155.9375,0
482.872,9.5193,1.8818,0.9002,0.7386,0.2116,0.0906,-61.5000,32.4000,34.9500,9.5385,1.5036,0.0239,0.4133,0.1074,-0.0695,-59.4000,15.7500,-9.7500,3.4400,3.6300,-8.1900,0.0447,0.0196,-0.0338,-16.5000,-28.1875,19.7500,203.8125,20.6250,-155.9375,0
482.877,9.5193,1.8818,0.9002,0.7386,0.2116,0.0906,-61.5000,32.4000,34.9500,9.5385,1.5036,0.0239,0.4133,0.1074,-0.0695,-58.9500,16.2000,-9.7500,3.4500,3.6700,-8.1400,0.0447,0.0196,-0.0338,-16.5000,-28.1875,19.7500,203.8125,20.6250,-155.9375,0
482.882,9.5241,1.7717,0.9553,0.6784,0.2161,0.0949,-62.7000,31.5000,35.8500,9.6079,1.5610,0.0455,0.3885,0.1194,-0.0679,-58.9500,16.2000,-9.7500,3.4500,3.6700,-8.1400,0.0556,0.0131,-0.0349,-16.5000,-28.1875,19.7500,203.8125,20.6250,-155.9375,0
482.887,9.5241,1.7717,0.9553,0.6784,0.2161,0.0949,-62.7000,31.5000,35.8500,9.6079,1.5610,0.0455,0.3885,0.1194,-0.0679,-58.9500,16.2000,-9.7500,3.4700,3.6100,-8.1900,0.0556,0.0131,-0.0349,-16.5000,-28.1875,19.7500,203.8125,20.6250,-155.9375,0
482.896,9.6343,1.8459,0.9697,0.6387,0.2286,0.1031,-62.7000,31.5000,35.8500,9.6271,1.7119,0.0168,0.3600,0.1116,-0.0589,-59.5500,14.8500,-11.1000,3.4900,3.5800,-8.2100,0.0622,0.0033,-0.0327,-16.5000,-28.1875,19.7500,203.7500,20.6250,-156.0000,0
482.901,9.6869,1.9249,0.9553,0.6123,0.2294,0.1066,-61.6500,31.5000,36.3000,9.5696,1.7597,0.1030,0.3568,0.1215,-0.0514,-59.5500,14.8500,-11.1000,3.4900,3.5800,-8.2100,0.0687,0.0011,-0.0349,-16.5000,-28.1875,19.7500,203.7500,20.6250,-156.0000,0
482.907,9.6869,1.9249,0.9553,0.6123,0.2294,0.1066,-61.6500,31.5000,36.3000,9.5696,1.7597,0.1030,0.3568,0.1215,-0.0514,-59.5500,14.8500,-11.1000,3.4600,3.6000,-8.2600,0.0687,0.0011,-0.0349,-16.5000,-28.1875,19.7500,203.7500,20.6250,-156.0000,0
482.912,9.6319,1.9417,0.9385,0.6163,0.2193,0.1013,-61.5000,33.1500,36.4500,9.5960,1.7789,0.0192,0.3925,0.1290,-0.0418,-59.5500,14.8500,-11.1000,3.4600,3.6000,-8.2600,0.0720,0.0000,-0.0360,-16.7500,-27.7500,19.0000,203.6875,20.6250,-156.0625,0
482.917,9.6319,1.9417,0.9385,0.6163,0.2193,0.1013,-61.5000,33.1500,36.4500,9.5960,1.7789,0.0192,0.3925,0.1290,-0.0418,-59.1000,14.8500,-11.1000,3.4900,3.5600,-8.2600,0.0720,0.0000,-0.0360,-16.7500,-27.7500,19.0000,203.6875,20.6250,-156.0625,0
482.922,9.8378,1.9321,0.8404,0.6078,0.2177,0.0951,-61.3500,33.0000,35.8500,9.5098,1.5993,-0.0527,0.4042,0.1327,-0.0440,-59.1000,14.8500,-11.1000,3.4900,3.5600,-8.2600,0.0742,-0.0044,-0.0360,-16.7500,-27.7500,19.0000,203.6875,20.6250,-156.1250,0
482.927,9.8378,1.9321,0.8404,0.6078,0.2177,0.0951,-61.3500,33.0000,35.8500,9.5098,1.5993,-0.0527,0.4042,0.1327,-0.0440,-57.9000,16.5000,-9.7500,3.4600,3.5900,-8.2400,0.0742,-0.0044,-0.0360,-16.7500,-27.7500,19.0000,203.6875,20.6250,-156.1250,0
482.932,9.4068,1.8747,0.8643,0.7123,0.1431,0.0850,-60.0000,33.9000,35.4000,9.5122,1.5706,0.0670,0.4159,0.1271,-0.0432,-57.9000,16.5000,-9.7500,3.4600,3.5900,-8.2400,0.0742,-0.0065,-0.0371,-16.7500,-27.7500,19.0000,203.6875,20.6250,-156.1250,0
482.937,9.4068,1.8747,0.8643,0.7123,0.1431,0.0850,-60.0000,33.9000,35.4000,9.5122,1.5706,0.0670,0.4159,0.1271,-0.0432,-58.9500,16.9500,-10.5000,3.4600,3.6500,-8.1900,0.0742,-0.0065,-0.0371,-16.7500,-27.7500,19.0000,203.6875,20.6250,-156.1250,0
482.946,9.3350,1.8364,0.9122,0.6667,0.2185,0.0837,-61.8000,33.9000,35.4000,9.5577,1.6903,0.2298,0.4362,0.1204,-0.0400,-58.9500,16.9500,-10.5000,3.4200,3.5900,-8.2500,0.0796,-0.0033,-0.0393,-16.7500,-27.7500,19.0000,203.6250,20.5625,-156.1875,0
482.951,9.6726,1.7573,0.6393,0.6624,0.2638,0.0871,-61.8000,33.9000,35.4000,9.5193,1.6305,0.3496,0.4274,0.1210,-0.0346,-58.3500,15.9000,-10.6500,3.4200,3.5900,-8.2500,0.0851,0.0011,-0.0393,-16.7500,-27.7500,19.0000,203.6250,20.5625,-156.1875,0
482.957,9.6726,1.7573,0.6393,0.7075,0.1423,0.0978,-61.8000,33.9000,35.4000,9.7109,1.6424,0.4597,0.4274,0.1210,-0.0346,-58.2000,15.4500,-10.5000,3.4900,3.5100,-8.2800,0.0851,0.0011,-0.0393,-16.7500,-27.7500,19.0000,203.6250,20.5625,-156.1875,0
482.962,9.6055,1.6496,0.8236,0.7075,0.1423,0.0978,-61.3500,35.5500,35.8500,9.7109,1.6424,0.4597,0.3970,0.1228,-0.0312,-58.2000,15.4500,-10.5000,3.4700,3.4900,-8.2500,0.0873,0.0022,-0.0349,-16.0625,-28.5625,19.0000,203.5625,20.5625,-156.2500,0
482.967,9.6079,1.6472,0.9529,0.6877,0.1847,0.1058,-62.4000,35.5500,35.8500,9.7061,1.5706,0.3807,0.3970,0.1228,-0.0312,-59.4000,16.2000,-12.0000,3.4700,3.4900,-8.2500,0.0873,0.0022,-0.0349,-16.0625,-28.5625,19.0000,203.5625,20.5625,-156.2500,0
482.972,9.6079,1.6472,0.9529,0.6877,0.1847,0.1058,-62.4000,36.0000,36.6000,9.7061,1.5706,0.3807,0.3480,0.1212,-0.0264,-59.4000,16.2000,-12.0000,3.5100,3.4800,-8.2700,0.0807,0.0022,-0.0327,-16.0625,-28.5625,19.0000,203.5625,20.5625,-156.3125,0
482.977,9.6630,1.6903,1.0056,0.6712,0.1764,0.1100,-61.6500,35.2500,35.5500,9.7540,1.5562,0.2945,0.3075,0.1252,-0.0184,-59.4000,16.2000,-12.0000,3.5100,3.4800,-8.2700,0.0807,0.0022,-0.0327,-16.0625,-28.5625,19.0000,203.5625,20.5625,-156.3125,0
482.982,9.6630,1.6903,1.0056,0.6712,0.1764,0.1100,-61.6500,35.2500,35.5500,9.7540,1.5562,0.2945,0.3075,0.1252,-0.0184,-59.4000,16.2000,-12.0000,3.5000,3.5300,-8.2800,0.0774,0.0044,-0.0349,-16.0625,-28.5625,19.0000,203.5000,20.5625,-156.3125,0
482.987,9.6223,1.6903,1.2282,0.6917,0.1404,0.1092,-60.3000,36.0000,35.5500,9.6534,1.6496,0.3065,0.3411,0.1055,-0.0115,-58.3500,15.6000,-12.1500,3.5000,3.5300,-8.2800,0.0774,0.0044,-0.0349,-16.0625,-28.5625,19.0000,203.5000,20.5625,-156.3125,0
482.996,9.4739,1.6376,1.2258,0.6875,0.1466,0.1140,-61.2000,36.0000,35.5500,9.5864,1.7693,0.2777,0.3411,0.1055,-0.0115,-58.3500,15.6000,-12.1500,3.4200,3.6000,-8.2600,0.0785,0.0033,-0.0393,-16.0625,-28.5625,19.0000,203.5000,20.5625,-156.3750,0
483.001,9.4739,1.6376,1.2258,0.6875,0.1466,0.1140,-61.2000,37.6500,36.1500,9.5864,1.7693,0.2777,0.3829,0.1013,-0.0021,-58.3500,15.6000,-12.1500,3.4200,3.6000,-8.2600,0.0807,0.0087,-0.0415,-16.0625,-28.5625,19.0000,203.4375,20.5625,-156.4375,0
483.007,9.6367,1.7502,1.0606,0.6939,0.1844,0.1194,-61.2000,37.6500,36.1500,9.5960,1.7621,0.3017,0.4072,0.0981,-0.0008,-58.9500,16.5000,-11.5500,3.4100,3.5200,-8.2700,0.0807,0.0087,-0.0415,-16.0625,-28.5625,19.0000,203.4375,20.5625,-156.4375,0
483.012,9.6367,1.7502,1.0606,0.6939,0.1844,0.1194,-61.2000,37.6500,36.1500,9.5960,1.7621,0.3017,0.4072,0.0981,-0.0008,-58.9500,16.5000,-11.5500,3.4100,3.5200,-8.2700,0.0807,0.0087,-0.0415,-16.5000,-27.3750,18.5625,203.4375,20.5625,-156.4375,0
483.017,9.6510,1.7957,0.8882,0.6915,0.1743,0.1223,-62.4000,39.0000,35.5500,9.5960,1.7214,0.1006,0.3728,0.1007,0.0149,-59.1000,15.9000,-11.5500,3.4100,3.4900,-8.3100,0.0818,0.0076,-0.0404,-16.5000,-27.3750,18.5625,203.4375,20.5625,-156.4375,0
483.022,9.6510,1.7957,0.8882,0.6915,0.1743,0.1223,-62.4000,39.0000,35.5500,9.5960,1.7214,0.1006,0.3728,0.1007,0.0149,-59.1000,15.9000,-11.1000,3.4100,3.4900,-8.3100,0.0818,0.0076,-0.0404,-16.5000,-27.3750,18.5625,203.3750,20.5625,-156.5000,0
483.027,9.6965,1.8459,0.7685,0.6771,0.1695,0.1228,-62.7000,39.7500,36.6000,9.5768,1.6065,0.0551,0.3571,0.0994,0.0149,-59.4000,16.2000,-12.7500,3.5100,3.4900,-8.2700,0.0829,0.0131,-0.0371,-16.5000,-27.3750,18.5625,203.3750,20.5625,-156.5000,0
483.032,9.6965,1.8459,0.7685,0.6771,0.1695,0.1228,-62.7000,39.7500,36.6000,9.5768,1.6065,0.0551,0.3571,0.0994,0.0149,-59.4000,16.2000,-12.7500,3.5100,3.4900,-8.2700,0.0840,0.0120,-0.0371,-16.5000,-27.3750,18.5625,203.3750,20.5625,-156.5000,0
483.037,9.5577,1.8387,0.7614,0.6763,0.1516,0.1079,-63.1500,39.3000,35.8500,9.4643,1.7166,0.0024,0.3573,0.0962,0.0173,-58.9500,15.4500,-11.5500,3.4700,3.5400,-8.2800,0.0840,0.0120,-0.0371,-16.5000,-27.3750,18.5625,203.3750,20.5625,-156.5000,0
483.046,9.5289,1.7526,0.7973,0.6749,0.1540,0.1013,-64.0500,39.9000,36.1500,9.4451,1.6592,0.0958,0.3738,0.0879,0.0216,-58.9500,15.4500,-11.5500,3.4800,3.5500,-8.2700,0.0884,0.0065,-0.0404,-16.5000,-27.3750,18.5625,203.3125,20.5625,-156.5625,0
483.051,9.5289,1.7526,0.7973,0.6749,0.1540,0.1013,-64.0500,39.9000,36.1500,9.4451,1.6592,0.0958,0.3738,0.0879,0.0216,-59.1000,17.5500,-11.4000,3.4800,3.5500,-8.2700,0.0905,0.0022,-0.0393,-16.5000,-27.3750,18.5625,203.3125,20.5000,-156.6250,0
483.057,9.6103,1.5754,0.7422,0.6797,0.1649,0.0973,-64.0500,39.9000,36.1500,9.5624,1.4892,0.1365,0.3515,0.1047,0.0163,-58.8000,14.8500,-11.1000,3.4400,3.5400,-8.2900,0.0905,0.0022,-0.0393,-16.5000,-27.3750,18.5625,203.3125,20.5000,-156.6250,0
483.062,9.6103,1.5754,0.7422,0.6797,0.1649,0.0973,-64.0500,39.9000,36.1500,9.5624,1.4892,0.1365,0.3515,0.1047,0.0163,-58.8000,14.8500,-11.1000,3.4400,3.5400,-8.2900,0.0949,-0.0022,-0.0382,-16.7500,-27.7500,19.3750,203.2500,20.5000,-156.6875,0
483.067,9.7731,1.5083,0.6105,0.6462,0.1583,0.1098,-64.0500,39.9000,36.1500,9.6798,1.4293,0.2562,0.2934,0.1071,0.0192,-58.8000,14.8500,-11.1000,3.4700,3.4300,-8.3000,0.0949,-0.0022,-0.0382,-16.7500,-27.7500,19.3750,203.2500,20.5000,-156.6875,0
483.072,9.7731,1.5083,0.6105,0.6462,0.1583,0.1098,-64.0500,39.9000,36.1500,9.6774,1.4078,0.1365,0.2934,0.1071,0.0192,-58.8000,14.8500,-11.1000,3.4700,3.4300,-8.3000,0.0938,-0.0033,-0.0360,-16.7500,-27.7500,19.3750,203.2500,20.5000,-156.6875,0
483.077,9.7707,1.4341,0.5387,0.5958,0.1532,0.1194,-64.8000,39.9000,35.4000,9.6774,1.4078,0.1365,0.2321,0.1085,0.0274,-58.8000,14.8500,-11.1000,3.4700,3.4300,-8.3200,0.0938,-0.0033,-0.0360,-16.7500,-27.7500,19.3750,203.2500,20.5000,-156.6875,0
483.082,9.7707,1.4341,0.5387,0.5958,0.1532,0.1194,-64.8000,39.9000,35.4000,9.5409,1.6664,0.0575,0.2321,0.1085,0.0274,-59.8500,16.3500,-11.1000,3.4700,3.4300,-8.3200,0.0862,-0.0022,-0.0316,-16.7500,-27.7500,19.3750,203.1875,20.5000,-156.7500,0
483.088,9.7276,1.4126,0.5626,0.5217,0.1356,0.1234,-64.0500,41.7000,36.1500,9.5409,1.6664,0.0575,0.2078,0.1090,0.0285,-59.8500,16.3500,-11.1000,3.4700,3.4800,-8.3400,0.0862,-0.0022,-0.0316,-16.7500,-27.7500,19.3750,203.1875,20.5000,-156.7500,0
483.096,9.6965,1.4485,0.6057,0.4738,0.1053,0.1162,-61.6500,42.0000,35.8500,9.6055,1.7957,0.1628,0.2598,0.1026,0.0301,-59.8500,16.3500,-11.1000,3.4700,3.5400,-8.2700,0.0796,0.0022,-0.0316,-16.7500,-27.7500,19.3750,203.1875,20.5000,-156.8125,0
483.103,9.7755,1.4006,0.6009,0.4482,0.0834,0.1124,-61.6500,42.0000,35.8500,9.5720,1.6759,0.0790,0.3200,0.0853,0.0346,-58.6500,15.4500,-12.3000,3.3900,3.6000,-8.2500,0.0785,0.0044,-0.0349,-16.7500,-27.7500,19.3750,203.1875,20.5000,-156.8125,0
483.108,9.7755,1.4006,0.6009,0.4482,0.0834,0.1124,-62.1000,42.3000,35.2500,9.5720,1.6759,0.0790,0.3200,0.0853,0.0346,-58.6500,15.4500,-12.3000,3.3900,3.6000,-8.2500,0.0785,0.0044,-0.0349,-16.7500,-27.7500,19.3750,203.1875,20.5000,-156.8125,0
483.113,9.8450,1.4581,0.5650,0.4461,0.0805,0.1092,-62.1000,42.3000,35.2500,9.5984,1.4988,0.1987,0.3243,0.0997,0.0413,-59.1000,16.8000,-11.8500,3.3900,3.5900,-8.3000,0.0818,0.0055,-0.0360,-16.0625,-27.0625,19.7500,203.1250,20.5000,-156.8750,0
483.118,9.8450,1.4581,0.5650,0.4461,0.0805,0.1092,-62.1000,42.3000,35.2500,9.5984,1.4988,0.1987,0.3243,0.0997,0.0413,-58.3500,16.8000,-11.8500,3.3900,3.5900,-8.3000,0.0818,0.0055,-0.0360,-16.0625,-27.0625,19.7500,203.1250,20.5000,-156.8750,0
483.122,9.8665,1.4772,0.5794,0.4626,0.0725,0.1037,-62.1000,42.3000,35.2500,9.6750,1.3767,0.2346,0.2883,0.1037,0.0434,-58.3500,15.6000,-11.4000,3.4500,3.3700,-8.3600,0.0862,0.0011,-0.0305,-16.0625,-27.0625,19.7500,203.1250,20.5000,-156.9375,0
483.127,9.8665,1.4772,0.5794,0.4626,0.0725,0.1037,-63.4500,42.3000,35.8500,9.6750,1.3767,0.2346,0.2883,0.1037,0.0434,-58.3500,15.6000,-11.4000,3.4500,3.3700,-8.3600,0.0862,0.0011,-0.0305,-16.0625,-27.0625,19.7500,203.1250,20.5000,-156.9375,0
483.132,9.7372,1.3934,0.6177,0.4732,0.0799,0.0967,-63.4500,42.3000,35.8500,9.7013,1.2857,0.2658,0.2489,0.1013,0.0445,-58.6500,15.4500,-12.3000,3.4500,3.3700,-8.3600,0.0840,0.0076,-0.0262,-16.0625,-27.0625,19.7500,203.0625,20.5000,-156.9375,0
483.137,9.7372,1.3934,0.6177,0.4732,0.0799,0.0967,-63.4500,43.5000,35.5500,9.7013,1.2857,0.2658,0.2489,0.1013,0.0445,-58.6500,15.4500,-12.3000,3.4500,3.4300,-8.3700,0.0840,0.0076,-0.0262,-16.0625,-27.0625,19.7500,203.0625,20.5000,-157.0000,0
483.147,9.6271,1.3671,0.7422,0.4767,0.0693,0.0895,-63.0000,42.4500,34.9500,9.6055,1.4102,0.2562,0.1876,0.0933,0.0405,-59.1000,15.9000,-11.4000,3.4600,3.3800,-8.3100,0.0764,0.0120,-0.0251,-16.0625,-27.0625,19.7500,203.0625,20.5000,-157.0000,0
483.153,9.4882,1.3001,0.8116,0.4562,0.0573,0.0933,-63.0000,42.4500,34.9500,9.5816,1.5443,0.3017,0.1868,0.0935,0.0474,-58.3500,15.6000,-12.1500,3.4400,3.4000,-8.3200,0.0698,0.0055,-0.0207,-16.0625,-27.0625,19.7500,203.0625,20.5000,-157.0625,0
483.158,9.4882,1.3001,0.8116,0.4562,0.0573,0.0933,-63.4500,42.0000,36.6000,9.5816,1.5443,0.3017,0.1868,0.0935,0.0474,-58.3500,15.6000,-12.1500,3.4400,3.4000,-8.3200,0.0698,0.0055,-0.0207,-16.0625,-27.0625,19.7500,203.0625,20.5000,-157.0625,0
483.163,9.5481,1.3144,0.8260,0.4253,0.0464,0.1007,-63.4500,42.0000,36.6000,9.5600,1.7310,0.3352,0.1769,0.0869,0.0424,-58.3500,15.6000,-12.1500,3.4500,3.4900,-8.2600,0.0654,0.0098,-0.0207,-15.7500,-27.0625,19.7500,203.0000,20.5000,-157.0625,0
483.168,9.5481,1.3144,0.8260,0.4253,0.0464,0.1007,-63.1500,42.7500,35.5500,9.5600,1.7310,0.3352,0.1769,0.0869,0.0424,-58.3500,15.6000,-12.1500,3.4500,3.4900,-8.2600,0.0654,0.0098,-0.0207,-15.7500,-27.0625,19.7500,203.0000,20.5000,-157.0625,0
483.172,9.5768,1.3431,0.9218,0.3627,0.0578,0.1092,-63.1500,42.7500,35.5500,9.5912,1.6185,0.4094,0.2142,0.0847,0.0464,-58.9500,15.7500,-12.0000,3.4300,3.5000,-8.3300,0.0611,0.0044,-0.0185,-15.7500,-27.0625,19.7500,203.0000,20.5000,-157.1250,0
483.178,9.5768,1.3431,0.9218,0.3627,0.0578,0.1092,-63.1500,42.7500,35.5500,9.5912,1.6185,0.4094,0.2142,0.0847,0.0464,-58.9500,15.7500,-12.0000,3.4300,3.5000,-8.3300,0.0611,0.0044,-0.0185,-15.7500,-27.0625,19.7500,203.0000,20.5000,-157.1250,0
483.182,9.7803,1.3072,0.9864,0.3171,0.0517,0.1186,-63.1500,42.7500,35.5500,9.5241,1.6185,0.4669,0.2433,0.0794,0.0541,-58.9500,15.7500,-12.0000,3.4300,3.5000,-8.3300,0.0633,0.0044,-0.0207,-15.7500,-27.0625,19.7500,203.0000,20.5000,-157.1250,0
483.188,9.7803,1.3072,0.9864,0.3171,0.0517,0.1186,-63.3000,42.9000,36.4500,9.6750,1.6137,0.5243,0.2433,0.0794,0.0541,-58.9500,15.7500,-12.0000,3.4700,3.3800,-8.3600,0.0633,0.0044,-0.0207,-15.7500,-27.0625,19.7500,203.0000,20.5000,-157.1250,0
483.196,9.7396,1.2833,1.1037,0.2896,0.0269,0.1276,-61.6500,41.2500,35.5500,9.6750,1.6137,0.5243,0.2265,0.0738,0.0661,-58.3500,16.8000,-12.1500,3.4300,3.3800,-8.3600,0.0600,0.0033,-0.0185,-15.7500,-27.0625,19.7500,203.0000,20.4375,-157.1875,0
483.202,9.7300,1.3096,1.2043,0.2718,0.0157,0.1154,-61.6500,41.2500,35.5500,9.6678,1.6544,0.6033,0.1841,0.0621,0.0658,-60.3000,15.9000,-11.4000,3.4300,3.3800,-8.3600,0.0535,0.0055,-0.0142,-15.7500,-27.0625,19.7500,202.9375,20.4375,-157.1875,0
483.208,9.7300,1.3096,1.2043,0.2718,0.0157,0.1154,-63.7500,43.6500,36.4500,9.6367,1.7669,0.5866,0.1434,0.0482,0.0730,-60.3000,15.9000,-11.4000,3.4600,3.4100,-8.3500,0.0535,0.0055,-0.0142,-15.7500,-27.0625,19.7500,202.9375,20.4375,-157.1875,0
483.213,9.6941,1.3072,1.2474,0.2478,-0.0048,0.1087,-62.2500,43.9500,36.1500,9.6367,1.7669,0.5866,0.1434,0.0482,0.0730,-58.0500,15.1500,-11.1000,3.4600,3.4100,-8.3500,0.0535,0.0055,-0.0142,-16.7500,-27.3750,21.0000,202.9375,20.4375,-157.2500,0
483.218,9.6941,1.3072,1.2474,0.2478,-0.0048,0.1087,-62.2500,43.9500,36.1500,9.6295,1.6975,0.5842,0.1143,0.0298,0.0826,-58.0500,15.1500,-11.1000,3.4500,3.4500,-8.3200,0.0491,0.0055,-0.0131,-16.7500,-27.3750,21.0000,202.9375,20.4375,-157.2500,0
483.222,9.5696,1.2570,1.4054,0.2217,-0.0272,0.1013,-62.2500,43.9500,36.1500,9.6295,1.6975,0.5842,0.1143,0.0298,0.0826,-57.9000,16.5000,-12.3000,3.4500,3.4500,-8.3200,0.0491,0.0055,-0.0131,-16.7500,-27.3750,21.0000,202.9375,20.4375,-157.2500,0
483.228,9.5696,1.2570,1.4054,0.2217,-0.0272,0.1013,-62.2500,43.9500,36.1500,9.5337,1.6185,0.5626,0.0927,0.0173,0.0837,-57.9000,16.5000,-12.3000,3.4700,3.4700,-8.3000,0.0458,0.0065,-0.0120,-16.7500,-27.3750,21.0000,202.9375,20.4375,-157.2500,0
483.232,9.6127,1.3599,1.4030,0.1847,-0.0149,0.0943,-62.2500,43.9500,36.1500,9.5337,1.6185,0.5626,0.0927,0.0173,0.0837,-58.3500,16.8000,-12.1500,3.4700,3.4700,-8.3000,0.0447,0.0011,-0.0120,-16.7500,-27.3750,21.0000,202.9375,20.4375,-157.2500,0
483.238,9.6127,1.3599,1.4030,0.1681,-0.0005,0.0842,-62.2500,43.9500,36.1500,9.5672,1.4102,0.4477,0.0653,0.0027,0.0869,-58.3500,16.8000,-12.1500,3.4800,3.4600,-8.3000,0.0447,0.0011,-0.0120,-16.7500,-27.3750,21.0000,202.9375,20.4375,-157.3125,0
483.247,9.5337,1.3503,1.3192,0.1681,-0.0005,0.0842,-64.0500,44.7000,34.9500,9.6774,1.2809,0.5195,0.0125,-0.0040,0.0895,-58.2000,16.2000,-12.7500,3.4800,3.4600,-8.3600,0.0425,-0.0076,-0.0142,-16.7500,-27.3750,21.0000,202.9375,20.4375,-157.3125,0
483.252,9.6295,1.3264,1.2091,0.1772,0.0008,0.0837,-63.7500,41.4000,35.4000,9.6774,1.2809,0.5195,0.0125,-0.0040,0.0895,-58.2000,16.2000,-12.7500,3.4800,3.4600,-8.3600,0.0447,-0.0087,-0.0131,-16.7500,-27.3750,21.0000,202.9375,20.4375,-157.3125,0
483.258,9.5529,1.3024,1.1612,0.1841,0.0069,0.0783,-63.7500,41.4000,35.4000,9.7157,1.3791,0.4046,-0.0240,-0.0168,0.0893,-58.2000,16.2000,-12.7500,3.4500,3.4300,-8.3200,0.0447,-0.0087,-0.0131,-16.7500,-27.3750,21.0000,202.9375,20.4375,-157.3125,0
483.263,9.5529,1.3024,1.1612,0.1841,0.0069,0.0783,-63.1500,41.5500,35.2500,9.7157,1.3791,0.4046,-0.0240,-0.0168,0.0893,-58.8000,16.3500,-12.1500,3.4500,3.4300,-8.3200,0.0404,-0.0153,-0.0120,-15.7500,-27.7500,19.7500,202.8750,20.4375,-157.3125,0
483.268,9.6319,1.2761,0.9960,0.2126,0.0040,0.0821,-63.1500,41.5500,35.2500,9.6079,1.6089,0.5219,-0.0195,-0.0304,0.0978,-58.8000,16.3500,-12.1500,3.4400,3.4000,-8.3400,0.0404,-0.0153,-0.0120,-15.7500,-27.7500,19.7500,202.8750,20.4375,-157.3125,0
483.273,9.6319,1.2761,0.9960,0.2126,0.0040,0.0821,-63.4500,42.0000,36.6000,9.6079,1.6089,0.5219,-0.0195,-0.0304,0.0978,-58.8000,16.3500,-12.1500,3.4400,3.4000,-8.3400,0.0371,-0.0164,-0.0087,-15.7500,-27.7500,19.7500,202.8750,20.4375,-157.3750,0
483.278,9.6702,1.3168,0.9074,0.2254,0.0040,0.0871,-63.4500,42.0000,36.6000,9.5936,1.8483,0.4477,0.0450,-0.0277,0.1047,-58.8000,16.3500,-12.1500,3.4500,3.4100,-8.3300,0.0371,-0.0164,-0.0087,-15.7500,-27.7500,19.7500,202.8750,20.4375,-157.3750,0
483.283,9.6702,1.3168,0.9074,0.2254,0.0040,0.0871,-63.4500,42.0000,36.6000,9.5936,1.8483,0.4477,0.0450,-0.0277,0.1047,-59.5500,16.3500,-13.2000,3.4500,3.4100,-8.3300,0.0349,-0.0142,-0.0098,-15.7500,-27.7500,19.7500,202.8750,20.4375,-157.3750,0
483.288,9.6869,1.3312,0.7805,0.2510,0.0045,0.0930,-63.4500,42.0000,36.6000,9.6367,1.9417,0.4717,0.1447,-0.0237,0.1085,-59.5500,16.3500,-13.2000,3.4600,3.3600,-8.3700,0.0349,-0.0142,-0.0098,-15.7500,-27.7500,19.7500,202.8750,20.4375,-157.3750,0
483.297,9.5792,1.3767,0.7087,0.2902,-0.0027,0.1015,-63.1500,42.7500,37.0500,9.6630,1.6472,0.4262,0.1735,-0.0333,0.1228,-59.7000,15.7500,-12.7500,3.4400,3.3700,-8.3900,0.0305,-0.0131,-0.0087,-15.7500,-27.7500,19.7500,202.8750,20.4375,-157.3750,0
483.304,9.5792,1.3767,0.7087,0.2902,-0.0027,0.1015,-61.8000,43.2000,34.6500,9.6079,1.4341,0.4118,0.1735,-0.0333,0.1228,-59.1000,15.6000,-12.1500,3.4700,3.4700,-8.3400,0.0273,-0.0120,-0.0076,-15.7500,-27.7500,19.7500,202.8750,20.4375,-157.4375,0
483.308,9.5529,1.4341,0.7590,0.3128,0.0016,0.0978,-61.8000,43.2000,34.6500,9.6079,1.4341,0.4118,0.1679,-0.0357,0.1244,-59.1000,15.6000,-12.1500,3.4700,3.4700,-8.3400,0.0273,-0.0120,-0.0076,-15.7500,-27.7500,19.7500,202.8750,20.4375,-157.4375,0
483.313,9.5529,1.4341,0.7590,0.3128,0.0016,0.0978,-63.3000,44.7000,35.7000,9.5864,1.3886,0.3328,0.1407,-0.0480,0.1207,-58.8000,15.9000,-12.4500,3.4500,3.4800,-8.3200,0.0240,-0.0065,-0.0076,-16.5000,-27.3750,20.1875,202.8750,20.4375,-157.4375,0
483.318,9.5433,1.4964,0.9242,0.3272,-0.0160,0.0957,-63.3000,44.7000,35.7000,9.5864,1.3886,0.3328,0.1407,-0.0480,0.1207,-58.8000,15.9000,-12.4500,3.4500,3.4800,-8.3200,0.0240,-0.0065,-0.0076,-16.5000,-27.3750,20.1875,202.8750,20.4375,-157.4375,0
483.323,9.5433,1.4964,0.9242,0.3272,-0.0160,0.0957,-62.4000,44.5500,36.3000,9.5744,1.3695,0.3663,0.1207,-0.0648,0.1220,-59.5500,15.1500,-12.4500,3.4500,3.4800,-8.3200,0.0273,-0.0098,-0.0131,-16.5000,-27.3750,20.1875,202.8750,20.4375,-157.4375,0
483.328,9.4834,1.5562,1.1229,0.3541,-0.0163,0.0994,-62.4000,44.5500,36.3000,9.5744,1.3695,0.3663,0.1207,-0.0648,0.1220,-59.5500,15.1500,-12.4500,3.4300,3.5100,-8.2900,0.0273,-0.0098,-0.0131,-16.5000,-27.3750,20.1875,202.8750,20.4375,-157.4375,0
483.333,9.4834,1.5562,1.1229,0.3541,-0.0163,0.0994,-62.7000,45.3000,35.5500,9.5768,1.4030,0.4094,0.1122,-0.0709,0.1148,-60.3000,16.8000,-12.4500,3.4300,3.5100,-8.2900,0.0327,-0.0098,-0.0153,-16.5000,-27.3750,20.1875,202.8750,20.4375,-157.4375,0
483.338,9.4739,1.6017,1.1229,0.3600,-0.0099,0.1058,-62.7000,45.3000,35.5500,9.5768,1.4030,0.4094,0.1122,-0.0709,0.1148,-60.3000,16.8000,-12.4500,3.4300,3.4500,-8.3500,0.0327,-0.0098,-0.0153,-16.5000,-27.3750,20.1875,202.8750,20.4375,-157.5000,0
483.347,9.6558,1.5419,0.9457,0.3461,0.0131,0.1098,-62.7000,45.3000,35.5500,9.6031,1.4246,0.4573,0.1151,-0.0781,0.1218,-60.3000,16.8000,-12.4500,3.4400,3.4300,-8.3300,0.0393,-0.0142,-0.0175,-16.5000,-27.3750,20.1875,202.8750,20.4375,-157.5000,0
483.356,9.7109,1.5131,0.9050,0.3219,0.0096,0.1127,-63.0000,44.7000,34.9500,9.7181,1.4174,0.4022,0.1223,-0.0821,0.1226,-59.1000,16.3500,-13.2000,3.4400,3.3900,-8.3600,0.0415,-0.0142,-0.0164,-16.5000,-27.3750,20.1875,202.8750,20.3750,-157.5000,0
483.361,9.7109,1.5131,0.9050,0.3219,0.0096,0.1127,-61.8000,45.4500,35.7000,9.6869,1.4174,0.5076,0.1223,-0.0821,0.1226,-59.1000,16.3500,-13.2000,3.4400,3.3900,-8.3600,0.0415,-0.0142,-0.0164,-16.5000,-27.3750,20.1875,202.8750,20.3750,-157.5000,0
483.365,9.7875,1.4748,0.8068,0.3110,0.0147,0.1114,-61.8000,45.4500,35.7000,9.6869,1.4174,0.5076,0.1455,-0.0885,0.1223,-59.1000,16.3500,-13.2000,3.4700,3.3800,-8.3400,0.0404,-0.0175,-0.0120,-16.0625,-27.7500,19.7500,202.8125,20.3750,-157.5000,0
483.370,9.7875,1.4748,0.8068,0.3110,0.0147,0.1114,-62.4000,45.0000,36.3000,9.6007,1.4222,0.4549,0.1455,-0.0885,0.1223,-59.1000,15.1500,-11.4000,3.4700,3.3800,-8.3400,0.0404,-0.0175,-0.0120,-16.0625,-27.7500,19.7500,202.8125,20.3750,-157.5000,0
483.375,9.7636,1.4964,0.7494,0.3152,0.0179,0.1114,-62.4000,45.0000,36.3000,9.6007,1.4222,0.4549,0.1476,-0.1002,0.1314,-59.1000,15.1500,-11.4000,3.4400,3.4200,-8.3300,0.0360,-0.0175,-0.0120,-16.0625,-27.7500,19.7500,202.8125,20.3750,-157.5625,0
483.380,9.7636,1.4964,0.7494,0.3152,0.0179,0.1114,-62.4000,44.5500,36.3000,9.7205,1.3384,0.2346,0.1476,-0.1002,0.1314,-59.1000,15.1500,-11.4000,3.4400,3.4200,-8.3300,0.0360,-0.0175,-0.0120,-16.0625,-27.7500,19.7500,202.8125,20.3750,-157.5625,0
483.388,9.7420,1.4844,0.7398,0.3259,0.0056,0.1069,-62.4000,44.5500,36.3000,9.7205,1.3384,0.2346,0.1268,-0.1082,0.1396,-58.9500,16.2000,-13.5000,3.4300,3.3300,-8.4000,0.0371,-0.0164,-0.0131,-16.0625,-27.7500,19.7500,202.8125,20.3750,-157.5625,0
483.397,9.7612,1.3791,0.6632,0.3400,0.0083,0.1053,-62.4000,44.5500,36.3000,9.6989,1.4581,0.3136,0.1380,-0.1092,0.1428,-58.8000,15.9000,-13.2000,3.4700,3.3400,-8.3800,0.0305,-0.0142,-0.0087,-16.0625,-27.7500,19.7500,202.8125,20.3750,-157.5625,0
483.406,9.6965,1.3862,0.5698,0.3837,0.0133,0.1018,-62.4000,44.5500,36.3000,9.6630,1.3743,0.1149,0.1338,-0.1058,0.1476,-59.1000,15.1500,-13.2000,3.4400,3.3500,-8.3800,0.0218,-0.0076,-0.0087,-16.0625,-27.7500,19.7500,202.8125,20.3750,-157.5625,0
483.411,9.6965,1.3862,0.5698,0.3837,0.0133,0.1018,-61.8000,46.6500,37.2000,9.6031,1.3001,0.0527,0.1431,-0.1114,0.1482,-58.9500,16.2000,-13.5000,3.4400,3.3500,-8.3800,0.0218,-0.0076,-0.0087,-16.0625,-26.6875,20.1875,202.8125,20.3750,-157.6250,0
483.417,9.7276,1.4868,0.4741,0.4410,0.0091,0.0997,-61.8000,46.6500,37.2000,9.6031,1.3001,0.0527,0.1431,-0.1114,0.1482,-58.9500,16.2000,-13.5000,3.4200,3.3600,-8.3700,0.0207,-0.0076,-0.0087,-16.0625,-26.6875,20.1875,202.8125,20.3750,-157.6250,0
483.427,9.6893,1.5131,0.3065,0.4858,-0.0032,0.0951,-62.5500,47.7000,36.7500,9.5888,1.5131,-0.0168,0.1407,-0.1061,0.1615,-59.1000,16.3500,-12.9000,3.4200,3.2800,-8.3700,0.0153,-0.0033,-0.0087,-16.0625,-26.6875,20.1875,202.8125,20.3750,-157.6250,0
483.437,9.6438,1.6544,0.3089,0.5137,-0.0115,0.0877,-63.1500,48.3000,37.0500,9.6031,1.5227,-0.1867,0.1418,-0.1039,0.1620,-59.1000,16.3500,-12.9000,3.4300,3.3200,-8.4000,0.0098,-0.0033,-0.0055,-16.0625,-26.6875,20.1875,202.8125,20.3750,-157.6250,0
483.446,9.6726,1.6712,0.2466,0.5321,-0.0232,0.0869,-65.2500,47.5500,35.8500,9.5768,1.4844,-0.2298,0.1399,-0.0935,0.1689,-58.8000,14.8500,-14.4000,3.4100,3.4100,-8.3400,0.0055,-0.0022,-0.0033,-16.0625,-26.6875,20.1875,202.8125,20.3750,-157.6250,0
483.451,9.6079,1.6305,0.1891,0.5065,-0.0498,0.0845,-65.2500,47.5500,35.8500,9.5553,1.3767,-0.1317,0.1223,-0.1007,0.1727,-58.8000,14.8500,-14.4000,3.4100,3.4100,-8.3400,0.0055,-0.0022,-0.0033,-16.0625,-26.6875,20.1875,202.8125,20.3750,-157.6250,0
483.458,9.6079,1.6305,0.1891,0.5065,-0.0498,0.0845,-65.2500,47.5500,35.8500,9.5960,1.2067,-0.1508,0.0512,-0.0946,0.1791,-58.8000,14.8500,-14.4000,3.4100,3.4400,-8.3000,0.0044,-0.0011,0.0000,-16.0625,-26.6875,20.1875,202.8125,20.3750,-157.6250,0
483.463,9.6271,1.5874,0.1796,0.4402,-0.0637,0.0789,-64.9500,49.5000,36.3000,9.5960,1.2067,-0.1508,0.0512,-0.0946,0.1791,-59.1000,15.1500,-13.6500,3.4100,3.4400,-8.3000,0.0098,-0.0076,-0.0022,-16.5000,-26.6875,19.3750,202.8125,20.3750,-157.6250,0
483.468,9.6271,1.5874,0.1796,0.4402,-0.0637,0.0789,-63.1500,49.5000,36.3000,9.6654,1.1468,0.1006,-0.0075,-0.1034,0.1887,-59.1000,15.1500,-13.6500,3.3800,3.4600,-8.2900,0.0098,-0.0076,-0.0022,-16.5000,-26.6875,19.3750,202.8125,20.3750,-157.6250,0
483.477,9.5960,1.4772,0.1915,0.3104,-0.0655,0.0858,-63.1500,51.0000,36.3000,9.6391,1.1492,0.2370,-0.0701,-0.1132,0.1932,-60.3000,14.8500,-13.2000,3.3500,3.5000,-8.3100,0.0207,-0.0131,-0.0011,-16.5000,-26.6875,19.3750,202.8125,20.3750,-157.6250,0
483.487,9.7229,1.3288,0.2394,0.1458,-0.0608,0.1021,-63.1500,50.5500,36.6000,9.7252,1.2426,0.1891,-0.1362,-0.1140,0.2161,-58.6500,15.7500,-13.8000,3.4100,3.4100,-8.3400,0.0273,-0.0175,0.0011,-16.5000,-26.6875,19.3750,202.8125,20.3750,-157.6250,0
483.496,9.8234,1.2091,0.3017,-0.0024,-0.0714,0.1167,-63.3000,50.7000,36.7500,9.7133,1.3551,0.1748,-0.1495,-0.1196,0.2225,-58.6500,15.4500,-13.0500,3.4200,3.2900,-8.3700,0.0338,-0.0196,0.0044,-16.5000,-26.6875,19.3750,202.8125,20.3125,-157.6875,0
483.501,9.8330,0.9984,0.2777,-0.1466,-0.1079,0.1322,-63.0000,51.9000,37.5000,9.7133,1.3551,0.1748,-0.1495,-0.1196,0.2225,-58.6500,15.4500,-13.0500,3.4200,3.2900,-8.3700,0.0338,-0.0196,0.0044,-16.5000,-26.6875,19.3750,202.8125,20.3125,-157.6875,0
483.508,9.8330,0.9984,0.2777,-0.1466,-0.1079,0.1322,-63.0000,51.9000,37.5000,9.6343,1.2809,0.1413,-0.1223,-0.1220,0.2276,-58.3500,14.8500,-13.6500,3.4400,3.3500,-8.3800,0.0327,-0.0142,0.0065,-16.5000,-26.6875,19.3750,202.8125,20.3125,-157.6875,0
483.513,9.7468,0.9313,0.2945,-0.2795,-0.1170,0.1402,-63.0000,51.9000,37.5000,9.6343,1.2809,0.1413,-0.1223,-0.1220,0.2276,-59.8500,14.8500,-13.9500,3.4400,3.3500,-8.3800,0.0327,-0.0142,0.0065,-16.5000,-26.6875,19.3750,202.8125,20.3125,-157.6875,0
483.518,9.7468,0.9313,0.2945,-0.2795,-0.1170,0.1402,-62.2500,52.9500,37.5000,9.6391,1.0343,0.1030,-0.1013,-0.1210,0.2220,-59.8500,14.8500,-13.9500,3.4300,3.3300,-8.3700,0.0251,-0.0131,0.0087,-16.5000,-26.6875,20.1875,202.8125,20.3125,-157.6875,0
483.523,9.7923,0.7733,0.2945,-0.3709,-0.1159,0.1423,-62.2500,52.9500,37.5000,9.6391,1.0343,0.1030,-0.1013,-0.1210,0.2220,-59.8500,14.8500,-13.9500,3.4300,3.3300,-8.3700,0.0251,-0.0131,0.0087,-16.5000,-26.6875,20.1875,202.8125,20.3125,-157.6875,0
483.528,9.7923,0.7733,0.2945,-0.3709,-0.1159,0.1423,-63.0000,52.2000,39.0000,9.6534,0.8763,-0.0192,-0.1170,-0.1218,0.2345,-59.8500,14.8500,-13.9500,3.4100,3.2500,-8.3700,0.0251,-0.0142,0.0087,-16.5000,-26.6875,20.1875,202.8125,20.3125,-157.6875,0
483.533,9.7971,0.7470,0.1389,-0.4112,-0.1172,0.1498,-63.0000,52.2000,39.0000,9.6534,0.8763,-0.0192,-0.1170,-0.1218,0.2345,-58.9500,15.7500,-13.8000,3.4100,3.2500,-8.3700,0.0251,-0.0185,0.0076,-16.5000,-26.6875,20.1875,202.8125,20.3125,-157.7500,0
483.538,9.8785,0.8835,-0.0383,-0.4053,-0.1183,0.1641,-60.9000,51.7500,39.1500,9.7516,0.8691,-0.1389,-0.1753,-0.1242,0.2321,-58.9500,15.7500,-13.8000,3.4000,3.2300,-8.4500,0.0251,-0.0185,0.0076,-16.5000,-26.6875,20.1875,202.8125,20.3125,-157.7500,0
483.548,9.9383,0.9816,-0.1389,-0.3864,-0.1359,0.1687,-62.2500,53.4000,38.2500,9.8043,0.9194,-0.1460,-0.2193,-0.1196,0.2302,-58.9500,15.7500,-13.8000,3.4000,3.2300,-8.4400,0.0196,-0.0164,0.0109,-16.5000,-26.6875,20.1875,202.8125,20.3125,-157.7500,0
483.556,9.9383,0.9816,-0.1389,-0.3864,-0.1359,0.1687,-62.2500,53.4000,38.2500,9.6247,1.1205,-0.2059,-0.2369,-0.1127,0.2294,-59.4000,15.7500,-13.5000,3.4000,3.2700,-8.4100,0.0098,-0.0109,0.0131,-16.5000,-26.6875,20.1875,202.8125,20.3125,-157.7500,0
483.560,9.9144,1.1013,-0.1580,-0.3421,-0.1769,0.1644,-62.2500,53.4000,38.2500,9.6247,1.1205,-0.2059,-0.2369,-0.1127,0.2294,-59.4000,15.7500,-13.5000,3.4000,3.2700,-8.4100,0.0098,-0.0109,0.0131,-16.5000,-26.6875,20.1875,202.8125,20.3125,-157.7500,0
483.565,9.9144,1.1013,-0.1580,-0.3421,-0.1769,0.1644,-62.2500,53.4000,38.2500,9.5840,1.2785,-0.2514,-0.2238,-0.1069,0.2345,-59.1000,15.6000,-12.9000,3.4200,3.3300,-8.3900,0.0055,-0.0065,0.0175,-16.0625,-27.0625,19.3750,202.8125,20.3125,-157.7500,0
483.570,9.9000,1.2067,-0.1508,-0.2902,-0.1969,0.1535,-62.2500,53.4000,38.2500,9.5840,1.2785,-0.2514,-0.2238,-0.1069,0.2345,-59.1000,15.6000,-12.9000,3.4200,3.3300,-8.3900,0.0055,-0.0065,0.0175,-16.0625,-27.0625,19.3750,202.8125,20.3125,-157.7500,0
483.578,9.8928,1.3719,-0.0814,-0.2329,-0.2062,0.1529,-62.2500,53.7000,41.1000,9.7085,1.2282,-0.2825,-0.1847,-0.1021,0.2454,-59.7000,13.0500,-13.5000,3.4200,3.3500,-8.3700,0.0011,-0.0076,0.0207,-16.0625,-27.0625,19.3750,202.8125,20.3125,-157.7500,0
483.587,9.7803,1.4485,-0.0024,-0.2030,-0.1905,0.1455,-61.2000,53.4000,41.4000,9.6175,1.0750,-0.2777,-0.1338,-0.0951,0.2475,-60.4500,16.9500,-14.5500,3.4500,3.3400,-8.3700,0.0033,-0.0109,0.0185,-16.0625,-27.0625,19.3750,202.8750,20.3125,-157.7500,0
483.597,9.8258,1.5969,0.0886,-0.1652,-0.2070,0.1474,-59.8500,53.5500,40.9500,9.7157,0.9146,-0.1269,-0.1252,-0.0887,0.2451,-59.7000,13.8000,-14.5500,3.4100,3.3100,-8.3800,0.0033,-0.0142,0.0196,-16.0625,-27.0625,19.3750,202.8750,20.3125,-157.7500,0
483.605,9.8258,1.5969,0.0886,-0.1396,-0.2225,0.1410,-59.8500,53.5500,40.9500,9.7396,1.0367,-0.2298,-0.1732,-0.0821,0.2587,-58.8000,14.8500,-12.9000,3.3900,3.2500,-8.4200,0.0033,-0.0142,0.0218,-16.0625,-27.0625,19.3750,202.8750,20.3125,-157.7500,0
483.610,9.7971,1.6448,0.2322,-0.1396,-0.2225,0.1410,-61.6500,54.7500,40.5000,9.7181,1.3479,-0.3807,-0.1732,-0.0821,0.2587,-58.8000,14.8500,-12.9000,3.3900,3.2500,-8.4200,0.0033,-0.0142,0.0218,-16.0625,-27.0625,19.3750,202.8750,20.3125,-157.7500,0
483.615,9.7971,1.6448,0.2322,-0.1506,-0.2499,0.1330,-61.6500,54.7500,40.5000,9.7181,1.3479,-0.3807,-0.2094,-0.0783,0.2729,-58.8000,14.8500,-12.9000,3.3800,3.1900,-8.5000,0.0011,-0.0153,0.0218,-16.5000,-26.6875,20.1875,202.8750,20.3125,-157.7500,0
483.620,9.9048,1.6688,0.2801,-0.1506,-0.2499,0.1330,-61.6500,54.7500,40.5000,9.6774,2.0039,-0.4262,-0.2094,-0.0783,0.2729,-58.8000,14.8500,-12.9000,3.3800,3.1900,-8.5000,0.0011,-0.0153,0.0218,-16.5000,-26.6875,20.1875,202.9375,20.3125,-157.7500,0
483.628,9.9719,1.7789,0.2514,-0.1889,-0.2790,0.1132,-60.4500,54.4500,40.0500,9.6774,2.0039,-0.4262,-0.2113,-0.0698,0.2910,-59.4000,13.5000,-12.7500,3.4500,3.2800,-8.4200,-0.0087,-0.0055,0.0305,-16.5000,-26.6875,20.1875,202.9375,20.3125,-157.7500,0
483.638,9.8545,2.0183,0.4094,-0.2380,-0.3078,0.0943,-60.7500,53.7000,40.0500,9.5912,2.1739,-0.6345,-0.1703,-0.0568,0.3107,-59.4000,13.5000,-12.7500,3.4500,3.3300,-8.4400,-0.0175,0.0000,0.0360,-16.5000,-26.6875,20.1875,202.9375,20.3125,-157.7500,0
483.647,9.5505,2.2170,0.5052,-0.2838,-0.3443,0.0640,-61.2000,54.1500,40.3500,9.5265,1.9441,-0.6321,-0.0938,-0.0538,0.3285,-58.8000,14.4000,-13.6500,3.4900,3.5300,-8.3000,-0.0338,0.0065,0.0349,-16.5000,-26.6875,20.1875,202.9375,20.3125,-157.7500,0
483.654,9.3805,2.2529,0.6584,-0.3291,-0.3469,0.0189,-61.2000,54.1500,40.3500,9.4284,1.7190,-0.6752,-0.0898,-0.0485,0.3435,-60.1500,14.5500,-12.7500,3.4600,3.5100,-8.2700,-0.0382,0.0065,0.0284,-16.5000,-26.6875,20.1875,203.0000,20.3125,-157.7500,0
483.659,9.3805,2.2529,0.6584,-0.3291,-0.3469,0.0189,-60.7500,52.6500,40.0500,9.4858,1.4222,-0.8356,-0.0898,-0.0485,0.3435,-60.1500,14.5500,-12.7500,3.4600,3.5100,-8.2700,-0.0382,0.0065,0.0284,-16.5000,-26.6875,20.1875,203.0000,20.3125,-157.7500,0
483.664,9.5361,2.2458,0.7015,-0.3600,-0.3283,-0.0168,-60.7500,52.6500,40.0500,9.4858,1.4222,-0.8356,-0.1439,-0.0397,0.3664,-60.7500,14.4000,-12.4500,3.4500,3.3800,-8.3400,-0.0327,-0.0076,0.0142,-16.5000,-27.0625,19.3750,203.0000,20.3125,-157.7500,0
483.669,9.5361,2.2458,0.7015,-0.3600,-0.3283,-0.0168,-59.8500,52.5000,39.4500,9.5457,1.0151,-0.9744,-0.1439,-0.0397,0.3664,-60.7500,14.4000,-12.4500,3.4500,3.3800,-8.3400,-0.0327,-0.0076,0.0142,-16.5000,-27.0625,19.3750,203.0000,20.3125,-157.7500,0
483.673,9.6103,1.9944,0.6464,-0.4058,-0.3035,-0.0418,-59.8500,52.5000,39.4500,9.5457,1.0151,-0.9744,-0.2052,-0.0250,0.3744,-59.7000,13.8000,-14.5500,3.4500,3.3800,-8.3400,-0.0305,-0.0087,0.0076,-16.5000,-27.0625,19.3750,203.0000,20.3125,-157.6875,0
483.679,9.6103,1.9944,0.6464,-0.4058,-0.3035,-0.0418,-59.8500,52.5000,39.4500,9.5888,0.5507,-0.8691,-0.2825,-0.0120,0.3685,-59.7000,13.8000,-14.5500,3.4700,3.4500,-8.2900,-0.0305,-0.0087,0.0076,-16.5000,-27.0625,19.3750,203.0000,20.3125,-157.6875,0
483.683,9.7252,1.7023,0.5986,-0.4517,-0.2931,-0.0573,-59.8500,52.5000,39.4500,9.5888,0.5507,-0.8691,-0.2825,-0.0120,0.3685,-59.1000,13.6500,-13.2000,3.4700,3.4500,-8.2900,-0.0295,-0.0196,0.0000,-16.5000,-27.0625,19.3750,203.0000,20.3125,-157.6875,0
483.689,9.7252,1.7023,0.5986,-0.4517,-0.2931,-0.0573,-61.5000,53.4000,40.0500,9.5361,0.1437,-1.0151,-0.3619,0.0112,0.3573,-59.1000,13.6500,-13.2000,3.4500,3.5000,-8.3100,-0.0295,-0.0196,0.0000,-16.5000,-27.0625,19.3750,203.0000,20.3125,-157.6875,0
483.698,9.6558,1.4246,0.4262,-0.4647,-0.2814,-0.0679,-61.3500,52.5000,40.2000,9.5409,-0.0335,-1.0534,-0.4402,0.0370,0.3411,-59.7000,13.8000,-13.5000,3.4500,3.6900,-8.3600,-0.0284,-0.0295,-0.0065,-16.5000,-27.0625,19.3750,203.0000,20.2500,-157.6875,0
483.708,9.6822,1.1636,0.2203,-0.4612,-0.2809,-0.0698,-62.2500,52.6500,40.3500,9.5505,0.2059,-1.0942,-0.4954,0.0709,0.3333,-59.7000,13.8000,-13.5000,3.4400,3.3500,-8.4100,-0.0065,-0.0425,-0.0033,-16.5000,-27.0625,19.3750,203.0000,20.2500,-157.6875,0
483.713,9.6798,0.9337,-0.1867,-0.4090,-0.2801,-0.0818,-62.2500,52.6500,40.3500,9.5505,0.2059,-1.0942,-0.4954,0.0709,0.3333,-59.5500,12.9000,-14.4000,3.4400,3.3500,-8.4100,0.0175,-0.0447,0.0120,-16.5000,-26.6875,20.1875,203.0000,20.2500,-157.6875,0
483.719,9.6798,0.9337,-0.1867,-0.4090,-0.2801,-0.0818,-61.8000,52.9500,41.1000,9.4810,0.4788,-1.2857,-0.4964,0.1271,0.3131,-59.5500,12.9000,-14.4000,3.4400,3.2300,-8.4500,0.0175,-0.0447,0.0120,-16.5000,-26.6875,20.1875,203.0000,20.2500,-157.6875,0
483.723,9.7181,0.9026,-0.6536,-0.3163,-0.3142,-0.0981,-61.8000,52.9500,41.1000,9.4810,0.4788,-1.2857,-0.4964,0.1271,0.3131,-59.5500,12.9000,-14.4000,3.4400,3.2300,-8.4500,0.0175,-0.0447,0.0120,-16.5000,-26.6875,20.1875,203.0000,20.2500,-157.7500,0
483.728,9.7181,0.9026,-0.6536,-0.3163,-0.3142,-0.0981,-61.8000,52.9500,41.1000,9.6175,0.6560,-1.6664,-0.4215,0.2020,0.2888,-59.5500,12.9000,-14.4000,3.4100,3.1700,-8.4300,0.0295,-0.0458,0.0153,-16.5000,-26.6875,20.1875,203.0000,20.2500,-157.7500,0
483.733,9.7252,0.9074,-1.0918,-0.2145,-0.3445,-0.1287,-61.8000,52.9500,41.1000,9.6175,0.6560,-1.6664,-0.4215,0.2020,0.2888,-59.5500,12.9000,-14.4000,3.4100,3.1700,-8.4300,0.0196,-0.0425,0.0196,-16.5000,-26.6875,20.1875,203.0625,20.1875,-157.7500,0
483.739,9.7252,0.9074,-1.0918,-0.2145,-0.3445,-0.1287,-61.8000,52.9500,41.1000,9.9575,0.8547,-1.8411,-0.2252,0.2630,0.2555,-60.7500,13.9500,-12.9000,3.4600,3.2100,-8.4900,0.0196,-0.0425,0.0196,-16.5000,-26.6875,20.1875,203.0625,20.1875,-157.7500,0
483.748,9.7133,1.1899,-1.5299,-0.1098,-0.3888,-0.1788,-59.2500,54.4500,40.6500,9.8402,0.9673,-1.8340,-0.0394,0.3376,0.2286,-60.1500,13.5000,-13.5000,3.5000,3.1700,-8.5500,0.0055,-0.0480,0.0164,-16.5000,-26.6875,20.1875,203.0625,20.1875,-157.7500,0
483.758,9.7396,1.7454,-1.7813,-0.0091,-0.4509,-0.2225,-58.9500,56.4000,39.3000,9.8114,1.2043,-1.3767,0.1031,0.3701,0.2427,-61.8000,12.4500,-12.9000,3.5100,3.0600,-8.6100,-0.0185,-0.0513,0.0142,-16.5000,-26.6875,20.1875,203.0625,20.1875,-157.7500,0
483.763,9.5217,2.2482,-2.1069,0.1567,-0.4807,-0.2683,-58.9500,56.4000,39.3000,9.8114,1.2043,-1.3767,0.1031,0.3701,0.2427,-61.8000,12.4500,-12.9000,3.5100,3.0600,-8.6100,-0.0185,-0.0513,0.0142,-16.5000,-26.6875,20.1875,203.0625,20.1875,-157.7500,0
483.768,9.5217,2.2482,-2.1069,0.1567,-0.4807,-0.2683,-60.7500,57.4500,40.0500,9.5241,1.1109,-1.5730,0.2390,0.4463,0.2731,-60.9000,13.0500,-12.7500,3.4800,3.1400,-8.7200,-0.0611,-0.0611,0.0076,-16.5000,-27.0625,20.1875,203.0625,20.1250,-157.6875,0
483.773,9.6558,2.4157,-2.4541,0.3174,-0.5183,-0.3174,-60.9000,57.7500,40.0500,9.5241,1.1109,-1.5730,0.2390,0.4463,0.2731,-60.9000,13.0500,-12.7500,3.4800,3.1400,-8.7200,-0.0611,-0.0611,0.0076,-16.5000,-27.0625,20.1875,203.0625,20.1250,-157.6875,0
483.778,9.6558,2.4157,-2.4541,0.3174,-0.5183,-0.3174,-60.9000,57.7500,40.5000,9.7037,0.7254,-1.0343,0.2971,0.4959,0.2920,-61.2000,14.2500,-12.7500,3.5400,3.1000,-8.6700,-0.1058,-0.0818,-0.0065,-16.5000,-27.0625,20.1875,203.1250,20.1250,-157.6875,0
483.783,9.5648,2.7629,-2.7390,0.4866,-0.5692,-0.3738,-60.9000,57.7500,40.5000,9.7037,0.7254,-1.0343,0.2971,0.4959,0.2920,-61.2000,14.2500,-12.7500,3.5400,3.1000,-8.6700,-0.1538,-0.1102,-0.0262,-16.5000,-27.0625,20.1875,203.1250,20.0625,-157.6250,0
483.789,9.5648,2.7629,-2.7390,0.4866,-0.5692,-0.3738,-60.9000,57.7500,40.5000,9.8737,0.5962,-0.5866,0.2763,0.5670,0.2960,-60.7500,13.2000,-13.2000,3.4300,3.1900,-8.6700,-0.1538,-0.1102,-0.0262,-16.5000,-27.0625,20.1875,203.1250,20.0625,-157.6250,0
483.798,9.6271,3.1867,-3.0742,0.6635,-0.6368,-0.4226,-61.2000,58.2000,38.2500,10.1418,0.4094,-0.3065,0.2401,0.5849,0.3099,-60.7500,13.2000,-13.2000,3.2800,3.5900,-8.5300,-0.2247,-0.1113,-0.0491,-16.5000,-27.0625,20.1875,203.1250,20.0000,-157.5625,0
483.808,9.9838,3.5602,-3.2633,0.7605,-0.7160,-0.4652,-60.9000,57.7500,38.1000,10.2208,0.2993,0.0766,0.1665,0.5883,0.3331,-61.2000,13.5000,-12.7500,3.2600,3.6700,-8.5600,-0.2978,-0.0731,-0.0720,-16.5000,-27.0625,20.1875,203.1250,19.9375,-157.3750,0
483.813,10.0437,3.6512,-3.2609,0.7512,-0.7176,-0.5276,-62.7000,57.7500,36.3000,10.1442,0.2825,0.1437,0.1665,0.5883,0.3331,-61.2000,13.5000,-12.7500,3.2600,3.6700,-8.5600,-0.2978,-0.0731,-0.0720,-16.5000,-27.0625,20.1875,203.1250,19.9375,-157.3750,0
483.818,10.0437,3.6512,-3.2609,0.7512,-0.7176,-0.5276,-62.7000,57.7500,36.3000,10.1442,0.2825,0.1437,0.0024,0.6520,0.3714,-61.2000,13.5000,-12.7500,3.3400,3.6700,-8.8700,-0.3982,0.0087,-0.1036,-16.7500,-27.0625,21.0000,203.1250,19.9375,-157.1250,0
483.823,10.2687,3.4429,-3.3184,0.8106,-0.7152,-0.5764,-63.1500,59.2500,37.6500,10.2759,0.4286,0.3424,-0.1314,0.7085,0.3973,-61.2000,13.5000,-12.7500,3.3400,3.6700,-8.8700,-0.3982,0.0087,-0.1036,-16.7500,-27.0625,21.0000,203.1250,19.9375,-157.1250,0
483.828,10.2687,3.4429,-3.3184,0.6552,-0.7357,-0.5942,-63.1500,59.2500,37.6500,10.2759,0.4286,0.3424,-0.1314,0.7085,0.3973,-60.9000,13.5000,-12.7500,3.4900,3.7000,-8.8200,-0.5280,0.0764,-0.1342,-16.7500,-27.0625,21.0000,203.0625,19.9375,-156.8125,0
483.832,9.9862,3.0742,-2.8587,0.6552,-0.7357,-0.5942,-63.7500,60.9000,35.7000,10.0485,1.0678,0.5818,-0.2718,0.7325,0.4250,-60.9000,13.5000,-12.7500,3.4900,3.7000,-8.8200,-0.5978,0.1145,-0.1680,-16.7500,-27.0625,21.0000,203.0625,19.9375,-156.4375,0
483.839,9.9383,2.6767,-2.4229,0.4149,-0.7019,-0.5612,-63.7500,60.9000,35.7000,10.0485,1.0678,0.5818,-0.2718,0.7325,0.4250,-61.0500,11.7000,-12.1500,3.7100,4.1900,-8.6100,-0.5978,0.1145,-0.1680,-16.7500,-27.0625,21.0000,202.9375,20.0000,-156.0625,0
483.848,9.9096,2.4062,-1.9106,0.1282,-0.5705,-0.5017,-63.7500,60.9000,35.7000,9.7971,1.5802,0.6536,-0.3882,0.7663,0.4570,-61.0500,12.9000,-11.8500,4.1000,4.4900,-8.6500,-0.5509,0.1538,-0.2313,-16.7500,-27.0625,21.0000,202.9375,20.0000,-156.0625,0
483.858,9.6702,2.1476,-0.9625,-0.3888,-0.6968,-0.4277,-63.3000,60.4500,35.7000,9.6965,2.1213,-0.4357,-0.1633,0.8124,0.4546,-62.4000,12.3000,-13.5000,5.1600,4.8000,-8.3100,-0.3992,0.2487,-0.3862,-16.7500,-27.0625,21.0000,202.7500,20.0000,-155.7500,0
483.863,9.6702,2.1476,-0.9625,-0.3888,-0.6968,-0.4277,-63.4500,62.2500,35.8500,10.1394,2.3272,-0.0096,0.0634,0.7546,0.4922,-62.4000,12.3000,-13.5000,5.1600,4.8000,-8.3100,-0.3992,0.2487,-0.3862,-16.7500,-27.0625,21.0000,202.7500,20.0000,-155.7500,0
483.868,9.3853,1.8914,-0.8308,-0.7128,-0.5700,-0.3741,-63.4500,62.2500,35.8500,10.1394,2.3272,-0.0096,0.0634,0.7546,0.4922,-61.9500,13.0500,-14.2500,3.1800,3.5900,-9.5200,-0.2378,0.2607,-0.5792,-15.7500,-27.7500,19.7500,202.4375,20.0000,-155.5000,0
483.873,9.3853,1.8914,-0.8308,-0.7128,-0.5700,-0.3741,-63.0000,61.6500,35.4000,9.7827,2.0925,0.4214,0.3395,0.7240,0.5167,-61.9500,13.0500,-14.2500,3.1800,3.5900,-9.5200,-0.2378,0.2607,-0.5792,-15.7500,-27.7500,19.7500,202.4375,20.0000,-155.5000,0
483.878,9.2177,1.7549,-0.4980,-0.9180,-0.5289,-0.3483,-63.0000,61.6500,35.4000,9.7827,2.0925,0.4214,0.3395,0.7240,0.5167,-62.5500,12.4500,-13.6500,2.1300,1.8300,-8.7000,0.0218,0.0840,-0.7199,-15.7500,-27.7500,19.7500,202.0000,19.8750,-155.3750,0
483.883,9.2177,1.7549,-0.4980,-0.9180,-0.5289,-0.3483,-63.0000,60.4500,34.3500,9.4332,1.4461,0.5962,0.5572,0.7234,0.4980,-62.5500,12.4500,-13.6500,2.1300,1.8300,-8.7000,0.2160,-0.0676,-0.6381,-15.7500,-27.7500,19.7500,201.6250,19.6875,-155.3750,0
483.889,9.1722,1.9082,-0.2921,-1.0573,-0.4900,-0.3507,-63.0000,60.4500,34.3500,9.5984,0.3903,0.6632,0.5572,0.7234,0.4980,-62.5500,12.4500,-13.6500,3.8100,2.6200,-8.8700,0.2160,-0.0676,-0.6381,-15.7500,-27.7500,19.7500,201.3125,19.6875,-155.4375,0
483.898,9.2416,2.2482,-0.1245,-1.0973,-0.4413,-0.3413,-63.0000,60.4500,34.3500,9.8234,-0.0120,1.7190,0.5987,0.7213,0.4940,-61.2000,12.3000,-11.5500,4.2800,5.1300,-8.2200,0.2836,0.1920,-0.5334,-15.7500,-27.7500,19.7500,201.3125,19.6875,-155.4375,0
483.908,9.2105,2.6336,-0.0335,-0.9350,-0.3293,-0.3355,-63.0000,60.4500,34.3500,8.8538,1.5658,3.7062,0.5481,0.7418,0.4557,-61.2000,12.3000,-11.5500,3.6000,5.0300,-7.5800,0.6327,-0.1440,-0.3960,-15.7500,-27.7500,19.7500,201.0000,19.5000,-155.6875,0
483.913,9.2105,2.6336,-0.0335,-0.9350,-0.3293,-0.3355,-61.5000,59.7000,33.9000,8.8538,1.5658,3.7062,0.4072,0.9028,0.3664,-61.2000,12.3000,-11.5500,3.6000,5.0300,-7.5800,0.6327,-0.1440,-0.3960,-15.7500,-27.7500,19.7500,200.7500,19.3125,-156.1250,0
483.918,9.5241,3.0071,-0.1891,-0.6464,-0.2124,-0.3115,-61.5000,59.7000,33.9000,8.8298,4.3096,-0.4693,0.4072,0.9028,0.3664,-61.8000,12.4500,-12.1500,5.6300,6.5100,-5.4100,0.8094,-0.2411,-0.3065,-15.7500,-27.3750,18.5625,200.7500,19.3125,-156.1250,0
483.923,9.5241,3.0071,-0.1891,-0.6464,-0.2124,-0.3115,-60.6000,61.5000,35.8500,8.8298,4.3096,-0.4693,-0.5124,1.0632,0.2939,-61.8000,12.4500,-12.1500,5.6300,6.5100,-5.4100,0.8094,-0.2411,-0.3065,-15.7500,-27.3750,18.5625,200.3750,19.3750,-156.5000,0
483.928,9.9096,3.6272,0.3567,-0.1564,-0.1665,-0.2771,-60.6000,61.5000,35.8500,11.4515,4.7573,-1.7334,0.2380,0.9966,0.3064,-61.9500,10.6500,-11.2500,10.0500,7.3600,-3.8800,0.9490,0.3349,-0.5247,-15.7500,-27.3750,18.5625,200.3750,19.3750,-156.5000,0
483.933,9.9096,3.6272,0.3567,-0.1564,-0.1665,-0.2771,-60.6000,60.0000,36.6000,11.4515,4.7573,-1.7334,0.2380,0.9966,0.3064,-61.9500,10.6500,-11.2500,10.0500,7.3600,-3.8800,0.8356,1.3679,-1.1977,-15.7500,-27.3750,18.5625,199.4375,19.8125,-156.6875,0
483.939,10.0700,4.1300,0.1197,0.3104,-0.1402,-0.2518,-60.6000,60.0000,36.6000,11.0038,7.8051,-0.8116,1.3209,1.0003,0.3405,-61.9500,13.0500,-12.0000,6.6100,17.0100,-1.9000,0.8356,1.3679,-1.1977,-15.7500,-27.3750,18.5625,197.6875,19.5625,-156.8125,0
483.948,9.5313,4.4915,-0.4190,0.7781,-0.3941,-0.2955,-60.6000,59.5500,35.2500,8.4348,8.0589,0.7326,2.3507,1.1319,0.3317,-61.5000,12.4500,-11.1000,-6.4400,5.0100,5.4400,1.2446,0.7254,-2.7838,-15.7500,-27.3750,18.5625,195.8750,18.7500,-157.3125,0
483.958,8.3941,4.7645,-1.0151,1.1026,-0.3456,-0.3965,-60.6000,59.5500,35.2500,6.8905,6.5817,2.7246,3.4989,1.3704,0.2758,-61.8000,12.0000,-12.1500,-2.7400,6.4800,1.9800,1.8588,-0.3523,-3.0423,-15.7500,-27.3750,18.5625,195.8750,18.7500,-157.3125,0
483.963,8.3941,4.7645,-1.0151,1.3414,-0.1743,-0.5319,-61.2000,60.1500,33.6000,6.8905,6.5817,2.7246,3.4989,1.3704,0.2758,-61.8000,12.0000,-12.1500,-2.7400,6.4800,1.9800,1.8588,-0.3523,-3.0423,-15.7500,-27.3750,18.5625,193.2500,20.5000,-156.8750,0
483.968,7.7907,5.2601,-1.8340,1.3414,-0.1743,-0.5319,-61.2000,60.1500,33.6000,7.9799,4.9297,4.7142,4.3998,1.5362,0.2049,-62.4000,13.0500,-10.0500,10.0900,3.7200,-8.6600,1.0265,4.9502,-3.5637,-15.0000,-27.7500,19.7500,193.2500,20.5000,-156.8750,0
483.973,7.2664,5.9424,-2.7485,1.7645,0.0277,-0.6976,-60.0000,59.4000,33.6000,7.9799,4.9297,4.7142,4.3998,1.5362,0.2049,-62.4000,13.0500,-10.0500,10.0900,3.7200,-8.6600,1.0265,4.9502,-3.5637,-15.0000,-27.7500,19.7500,193.2500,20.5000,-156.8750,0
483.978,7.2664,5.9424,-2.7485,1.7645,0.0277,-0.6976,-60.0000,59.4000,33.6000,8.4994,4.3359,3.0335,4.6876,1.5018,0.1823,-62.4000,13.0500,-10.0500,9.4700,3.8800,-5.9900,1.0265,4.9502,-3.5637,-15.0000,-27.7500,19.7500,190.6250,22.2500,-156.2500,0
483.983,7.2975,6.7301,-2.3750,2.1075,0.2942,-0.8074,-60.4500,59.7000,33.6000,8.4994,4.3359,3.0335,4.6876,1.5018,0.1823,-62.4000,13.0500,-10.0500,9.4700,3.8800,-5.9900,1.3810,3.3292,-3.7503,-15.0000,-27.7500,19.7500,188.0000,23.0625,-155.9375,0
483.989,7.2975,6.7301,-2.3750,2.1075,0.2942,-0.8074,-61.2000,60.1500,33.3000,9.3087,2.7485,2.9449,4.9866,1.5282,0.0336,-62.4000,11.1000,-12.0000,8.6000,6.6600,-6.2700,1.3810,3.3292,-3.7503,-15.0000,-27.7500,19.7500,185.5625,23.6250,-155.3750,0
483.998,7.6782,7.4053,-1.2809,2.3662,0.3906,-0.8932,-61.2000,60.1500,33.3000,9.4308,1.1851,3.5243,5.0865,1.5500,-0.0666,-62.4000,11.1000,-12.0000,2.0300,4.8900,-4.8900,0.9043,2.7402,-3.6979,-15.0000,-27.7500,19.7500,183.0625,24.1250,-154.7500,0
484.009,8.0373,6.8714,-0.1939,2.4269,0.5870,-0.9353,-61.3500,60.0000,31.9500,9.2895,-0.1748,4.0893,4.7385,1.4858,-0.1316,-61.9500,10.6500,-10.8000,5.6600,3.6400,-6.1600,0.9043,2.7402,-3.6979,-15.0000,-27.7500,19.7500,183.0625,24.1250,-154.7500,0
484.014,8.5641,5.8275,1.3096,2.5237,0.6179,-0.8956,-61.3500,60.0000,31.9500,9.2895,-0.1748,4.0893,4.7385,1.4858,-0.1316,-61.9500,10.6500,-10.8000,5.6600,3.6400,-6.1600,0.9043,2.7402,-3.6979,-15.0000,-27.7500,19.7500,183.0625,24.1250,-154.7500,0
484.019,8.5641,5.8275,1.3096,2.5237,0.6179,-0.8956,-61.3500,60.0000,31.9500,9.6295,-0.9960,3.5793,4.1214,1.2825,-0.1282,-61.5000,10.5000,-12.9000,6.6900,3.7200,-7.7100,0.7309,3.1656,-3.4154,-12.3750,-28.8750,21.0000,180.6875,24.8750,-154.0625,0
484.024,8.5162,4.9081,2.0423,2.6502,0.6054,-0.7781,-62.4000,58.0500,29.8500,9.6893,-0.9409,2.9808,4.1214,1.2825,-0.1282,-61.5000,10.5000,-12.9000,6.6900,3.7200,-7.7100,0.7309,3.1656,-3.4154,-12.3750,-28.8750,21.0000,180.6875,24.8750,-154.0625,0
484.029,8.5162,4.9081,2.0423,2.6502,0.6054,-0.7781,-63.1500,56.2500,28.0500,9.6893,-0.9409,2.9808,3.4880,1.0978,-0.1242,-61.0500,10.5000,-12.1500,4.6700,4.4800,-7.5300,0.7309,3.1656,-3.4154,-12.3750,-28.8750,21.0000,178.3125,25.6250,-153.2500,0
484.037,8.6335,4.3551,1.8268,2.6316,0.7290,-0.6438,-63.1500,56.2500,28.0500,9.5864,-0.9266,2.4804,2.9119,0.9886,-0.1124,-62.5500,9.3000,-12.1500,4.2400,3.3700,-7.6000,0.5672,2.8798,-3.4296,-12.3750,-28.8750,21.0000,176.0000,26.1875,-152.3750,0
484.042,8.9112,3.7373,0.8715,2.6052,0.8287,-0.5548,-63.1500,57.3000,27.0000,9.5864,-0.9266,2.4804,2.9119,0.9886,-0.1124,-62.5500,9.3000,-12.1500,4.2400,3.3700,-7.6000,0.5672,2.8798,-3.4296,-12.3750,-28.8750,21.0000,173.8750,26.6875,-151.5625,0
484.049,8.9112,3.7373,0.8715,2.6052,0.8287,-0.5548,-63.4500,55.0500,25.9500,9.4164,-1.0032,2.2913,2.3824,0.8911,-0.1018,-63.4500,10.3500,-11.5500,4.0900,2.5800,-8.1400,0.3992,2.6802,-3.0281,-12.3750,-28.8750,21.0000,172.0000,27.1250,-150.6250,0
484.059,8.9807,3.4477,0.2011,2.7787,0.6976,-0.5231,-62.1000,52.5000,25.6500,9.3661,-0.5507,1.8292,1.7443,0.8258,-0.1162,-61.2000,9.1500,-12.3000,3.7900,1.7000,-8.3900,0.1974,2.3856,-2.7434,-12.3750,-28.8750,21.0000,172.0000,27.1250,-150.6250,0
484.064,8.9399,2.8826,-0.0622,2.8466,0.7698,-0.5321,-62.1000,52.5000,25.6500,9.7109,-0.1413,2.0207,1.3078,0.6875,-0.1058,-61.2000,9.1500,-12.3000,3.7900,1.7000,-8.3900,0.1974,2.3856,-2.7434,-12.3750,-28.8750,21.0000,170.2500,27.5000,-149.6875,0
484.069,8.9399,2.8826,-0.0622,2.8466,0.7698,-0.5321,-62.1000,52.5000,25.6500,9.7109,-0.1413,2.0207,1.3078,0.6875,-0.1058,-61.2000,9.1500,-12.3000,3.0500,1.0400,-9.1400,-0.1691,2.0900,-2.3736,-9.5000,-30.8750,19.6875,170.2500,27.5000,-149.6875,0
484.074,9.2440,2.2098,-0.1820,2.8797,0.7895,-0.5761,-62.1000,52.5000,25.6500,9.8138,0.3352,1.7023,0.8993,0.5364,-0.1092,-61.2000,9.1500,-12.3000,3.0500,1.0400,-9.1400,-0.1691,2.0900,-2.3736,-9.5000,-30.8750,19.6875,169.0000,27.8125,-148.6875,0
484.079,9.2440,2.2098,-0.1820,2.8797,0.7895,-0.5761,-61.3500,50.5500,24.1500,9.8138,0.3352,1.7023,0.8993,0.5364,-0.1092,-62.2500,11.2500,-12.4500,3.2900,3.1600,-9.6300,-0.4505,1.8631,-1.8871,-9.5000,-30.8750,19.6875,169.0000,27.8125,-148.6875,0
484.084,9.7133,1.5706,-0.1604,2.9508,0.7890,-0.6374,-61.3500,50.5500,24.1500,9.7396,0.6033,1.3072,0.6675,0.4237,-0.1202,-62.2500,11.2500,-12.4500,3.2900,3.1600,-9.6300,-0.3491,1.5403,-1.3384,-9.5000,-30.8750,19.6875,168.0625,28.1875,-147.8750,0
484.089,10.3118,0.8667,-0.6369,2.9950,0.7565,-0.6755,-60.7500,47.7000,22.9500,9.7396,0.6033,1.3072,0.6675,0.4237,-0.1202,-62.2500,11.2500,-12.4500,3.9300,3.8800,-9.8800,-0.3491,1.5403,-1.3384,-9.5000,-30.8750,19.6875,167.4375,28.3750,-147.4375,0
484.099,10.5824,0.3232,-1.1013,2.9519,0.5918,-0.7053,-58.8000,47.2500,22.0500,9.8785,0.6297,1.2953,0.5028,0.3501,-0.1370,-60.9000,9.4500,-11.5500,3.0800,4.1000,-9.7100,-0.1342,1.0439,-0.8639,-9.5000,-30.8750,19.6875,167.0625,28.5000,-147.2500,0
484.109,10.6422,-0.2490,-1.2953,2.8645,0.4269,-0.7426,-58.9500,45.9000,22.2000,9.8641,0.6488,1.1995,0.3195,0.2886,-0.1479,-59.8500,10.5000,-12.9000,2.1000,4.1000,-9.0300,-0.0076,0.5051,-0.5323,-9.5000,-30.8750,19.6875,167.0625,28.5000,-147.2500,0
484.114,10.6422,-0.2490,-1.2953,2.8645,0.4269,-0.7426,-58.9500,45.9000,22.2000,9.9192,0.7015,1.4317,0.1737,0.1839,-0.1495,-59.8500,10.5000,-12.9000,2.1000,4.1000,-9.0300,-0.0076,0.5051,-0.5323,-9.5000,-30.8750,19.6875,167.0625,28.5000,-147.2500,0
484.119,10.1059,-0.6369,-1.5131,2.7163,0.3016,-0.7893,-58.9500,45.9000,22.2000,9.9192,0.7015,1.4317,0.1737,0.1839,-0.1495,-61.0500,9.7500,-10.3500,1.3600,4.1200,-8.4900,-0.0055,0.1680,-0.2782,-8.1875,-32.6875,18.5000,166.6250,28.5000,-147.1250,0
484.124,10.1059,-0.6369,-1.5131,2.7163,0.3016,-0.7893,-58.9500,45.9000,22.2000,9.9359,0.7374,1.6352,0.0826,0.0890,-0.1471,-61.0500,9.7500,-10.3500,1.3600,4.1200,-8.4900,-0.0055,0.1680,-0.2782,-8.1875,-32.6875,18.5000,166.6250,28.5000,-147.1250,0
484.129,9.6486,-0.7733,-1.5538,2.5015,0.2571,-0.8388,-57.9000,44.7000,21.4500,9.9359,0.7374,1.6352,0.0826,0.0890,-0.1471,-61.6500,10.6500,-13.0500,0.8900,4.5200,-8.2000,-0.0502,0.0044,-0.0840,-8.1875,-32.6875,18.5000,166.6250,28.4375,-147.0625,0
484.134,9.6486,-0.7733,-1.5538,2.5015,0.2571,-0.8388,-57.9000,44.7000,21.4500,10.0293,0.8092,1.6305,0.0418,-0.0325,-0.1553,-61.6500,10.6500,-13.0500,0.8900,4.5200,-8.2000,-0.0589,-0.1254,0.0393,-8.1875,-32.6875,18.5000,166.6250,28.3750,-147.0625,0
484.139,9.8090,-0.8284,-1.6496,2.1285,0.2380,-0.8591,-57.7500,43.8000,21.0000,10.1011,0.6991,1.3048,0.0226,-0.1620,-0.1482,-61.2000,7.9500,-11.5500,0.3700,5.7800,-7.7600,-0.0589,-0.1254,0.0393,-8.1875,-32.6875,18.5000,166.7500,28.3125,-147.1250,0
484.149,9.8282,-0.5866,-1.6113,1.7405,0.1932,-0.8649,-58.6500,42.9000,20.1000,10.2065,0.6488,1.1349,0.0226,-0.1620,-0.1482,-60.1500,9.1500,-12.7500,-0.0300,6.2900,-7.4600,-0.0262,-0.2476,0.0720,-8.1875,-32.6875,18.5000,166.7500,28.3125,-147.1250,0
484.159,9.9886,-0.5291,-1.7717,1.3510,0.1657,-0.8466,-57.0000,40.8000,17.7000,10.2951,0.7853,0.9720,0.1135,-0.3981,-0.1428,-60.1500,9.1500,-12.7500,-0.2900,6.8600,-7.1900,0.0393,-0.3087,0.0262,-8.1875,-32.6875,18.5000,166.8125,28.1875,-147.1875,0
484.164,9.9886,-0.5291,-1.7717,1.3510,0.1657,-0.8466,-57.0000,40.8000,17.7000,10.2951,0.7853,0.9720,0.1135,-0.3981,-0.1428,-60.1500,9.1500,-12.7500,-0.2900,6.8600,-7.1900,0.0393,-0.3087,0.0262,-8.1875,-32.6875,18.5000,166.4375,28.0000,-147.3125,0
484.169,10.1490,-0.5531,-1.9130,0.9622,0.2028,-0.8274,-55.8000,42.0000,19.5000,10.3789,0.9481,0.8787,0.2635,-0.5588,-0.1705,-60.9000,9.9000,-12.0000,-0.3800,7.2600,-6.8500,0.1091,-0.3382,-0.0731,-7.0000,-31.8750,18.0625,166.4375,28.0000,-147.3125,0
484.173,10.1490,-0.5531,-1.9130,0.9622,0.2028,-0.8274,-55.8000,42.0000,19.5000,10.3789,0.9481,0.8787,0.2635,-0.5588,-0.1705,-60.9000,9.9000,-12.0000,-0.3800,7.2600,-6.8500,0.1091,-0.3382,-0.0731,-7.0000,-31.8750,18.0625,166.4375,28.0000,-147.3125,0
484.179,10.4363,-0.3855,-2.0016,0.5657,0.1761,-0.8013,-55.8000,42.0000,19.5000,10.3645,0.9601,0.9146,0.4770,-0.7040,-0.2100,-60.9000,9.9000,-12.0000,-0.5800,7.3700,-6.7100,0.1276,-0.3534,-0.2160,-7.0000,-31.8750,18.0625,166.3125,27.7500,-147.3750,0
484.183,10.4363,-0.3855,-2.0016,0.5657,0.1761,-0.8013,-55.8000,42.0000,19.5000,10.3645,0.9601,0.9146,0.4770,-0.7040,-0.2100,-60.9000,9.9000,-12.0000,-0.5800,7.3700,-6.7100,0.0535,-0.2803,-0.3960,-7.0000,-31.8750,18.0625,166.1250,27.5000,-147.3125,0
484.190,10.0963,0.0215,-2.1715,0.2086,0.1434,-0.7565,-56.5500,42.7500,19.2000,10.3334,0.9481,0.8811,0.7112,-0.7965,-0.2646,-59.4000,11.4000,-11.5500,-0.5300,7.6000,-6.8300,0.0535,-0.2803,-0.3960,-7.0000,-31.8750,18.0625,165.8125,27.2500,-147.1875,0
484.199,9.9431,0.3879,-2.3056,-0.0109,0.0645,-0.7101,-56.5500,39.3000,19.2000,10.1203,0.7877,0.8332,0.9174,-0.8529,-0.3014,-60.1500,10.6500,-13.8000,-0.0900,7.6500,-7.1800,-0.0502,-0.2094,-0.6283,-7.0000,-31.8750,18.0625,165.3750,26.8750,-146.9375,0
484.209,9.6271,0.7997,-2.2984,-0.2502,0.0000,-0.6686,-57.7500,42.0000,19.2000,10.3118,0.5267,0.9840,1.0922,-0.9337,-0.3216,-60.3000,8.5500,-13.9500,0.0900,7.1300,-7.4800,-0.1593,-0.1974,-0.8879,-7.0000,-31.8750,18.0625,165.3750,26.8750,-146.9375,0
484.214,9.6271,0.7997,-2.2984,-0.2502,0.0000,-0.6686,-57.7500,42.0000,19.2000,10.3118,0.5267,0.9840,1.0922,-0.9337,-0.3216,-60.3000,8.5500,-13.9500,0.0900,7.1300,-7.4800,-0.1593,-0.1974,-0.8879,-7.0000,-31.8750,18.0625,164.4375,26.4375,-146.5625,0
484.219,9.2871,1.1756,-2.1859,-0.4775,-0.0184,-0.6222,-57.0000,41.2500,19.5000,10.4651,0.3112,1.1037,1.1698,-1.0150,-0.3104,-59.4000,8.4000,-14.5500,0.0300,6.7700,-7.6000,-0.2596,-0.2040,-1.1126,-6.0000,-32.7500,18.0000,164.4375,26.4375,-146.5625,0
484.224,9.2871,1.1756,-2.1859,-0.4775,-0.0184,-0.6222,-57.0000,41.2500,19.5000,10.4651,0.3112,1.1037,1.1698,-1.0150,-0.3104,-59.4000,8.4000,-14.5500,0.0300,6.7700,-7.6000,-0.2596,-0.2040,-1.1126,-6.0000,-32.7500,18.0000,163.7500,26.0000,-146.0625,0
484.229,9.4858,1.8004,-2.3320,-0.5201,0.0069,-0.5756,-57.0000,40.8000,19.5000,10.4986,0.1748,1.0798,1.1892,-1.0994,-0.2819,-60.3000,10.0500,-16.2000,0.0800,6.3200,-7.8500,-0.3992,-0.1244,-1.3155,-6.0000,-32.7500,18.0000,163.7500,26.0000,-146.0625,0
484.234,9.4858,1.8004,-2.3320,-0.5201,0.0069,-0.5756,-57.0000,40.8000,19.5000,10.4986,0.1748,1.0798,1.1892,-1.0994,-0.2819,-60.3000,10.0500,-16.2000,0.0800,6.3200,-7.8500,-0.5367,0.0796,-1.5075,-6.0000,-32.7500,18.0000,163.0000,25.5625,-145.3750,0
484.240,9.5481,2.3966,-2.1404,-0.4983,-0.1148,-0.5566,-57.0000,40.8000,19.5000,11.6669,-0.0144,0.8404,1.1751,-1.2073,-0.2441,-60.4500,9.9000,-16.0500,0.5300,6.1400,-8.7500,-0.5367,0.0796,-1.5075,-6.0000,-32.7500,18.0000,162.1250,25.0625,-144.7500,0
484.249,9.2919,3.0047,-2.4253,-0.4663,-0.0799,-0.5577,-56.5500,42.0000,21.0000,10.1562,-0.1365,1.0247,1.2065,-1.2340,-0.1751,-60.4500,9.9000,-16.0500,1.5300,5.8800,-9.3000,-0.5149,0.0545,-1.6330,-6.0000,-32.7500,18.0000,162.1250,25.0625,-144.7500,0
484.259,9.1889,3.6248,-2.4708,-0.3368,-0.1119,-0.5734,-56.2500,41.5500,20.2500,10.5800,-0.4094,0.9313,1.1402,-1.2926,-0.1212,-60.1500,9.4500,-16.3500,0.8600,5.3900,-9.2200,-0.4549,-0.1713,-1.7170,-6.0000,-32.7500,18.0000,161.2500,24.4375,-144.1875,0
484.264,8.8562,4.0007,-2.3679,-0.2190,-0.0839,-0.5905,-56.2500,41.5500,20.2500,10.3238,-0.5602,0.8691,1.1402,-1.2926,-0.1212,-60.1500,9.4500,-16.3500,0.8600,5.3900,-9.2200,-0.4549,-0.1713,-1.7170,-6.0000,-32.7500,18.0000,161.2500,24.4375,-144.1875,0
484.269,8.8562,4.0007,-2.3679,-0.2190,-0.0839,-0.5905,-56.1000,41.4000,21.9000,10.3238,-0.5602,0.8691,1.1138,-1.3603,-0.0626,-60.1500,9.4500,-16.3500,1.4900,5.0000,-9.6600,-0.4047,-0.1429,-1.7693,-3.5000,-32.3750,15.6875,160.0000,23.7500,-143.6250,0
484.274,8.6981,4.3598,-2.2027,-0.0304,-0.0368,-0.5974,-56.1000,41.4000,21.9000,10.2663,-0.5555,0.9337,1.1138,-1.3603,-0.0626,-60.1500,9.4500,-16.3500,1.4900,5.0000,-9.6600,-0.4047,-0.1429,-1.7693,-3.5000,-32.3750,15.6875,160.0000,23.7500,-143.6250,0
484.279,8.6981,4.3598,-2.2027,-0.0304,-0.0368,-0.5974,-57.3000,41.2500,19.9500,10.2663,-0.5555,0.9337,1.0816,-1.3819,-0.0147,-59.1000,9.3000,-18.4500,1.3400,4.6700,-9.5600,-0.3207,-0.1953,-1.7999,-3.5000,-32.3750,15.6875,159.0625,23.0625,-143.1250,0
484.284,8.6838,4.4460,-2.2984,0.2081,0.0277,-0.5825,-57.3000,41.2500,19.9500,10.3166,-0.5387,0.8595,1.0515,-1.4282,0.0280,-59.1000,9.3000,-18.4500,1.3400,4.6700,-9.5600,-0.2487,-0.1767,-1.7791,-3.5000,-32.3750,15.6875,158.1250,22.4375,-142.6875,0
484.290,8.6838,4.4460,-2.2984,0.2081,0.0277,-0.5825,-57.3000,41.2500,19.9500,10.3166,-0.5387,0.8595,1.0515,-1.4282,0.0280,-59.4000,9.1500,-20.5500,1.6100,4.6100,-9.7300,-0.2487,-0.1767,-1.7791,-3.5000,-32.3750,15.6875,157.2500,21.7500,-142.3125,0
484.299,8.7676,4.3239,-2.3056,0.4261,0.0109,-0.5409,-55.6500,39.4500,18.3000,10.2951,-0.5411,0.8619,1.0115,-1.4781,0.0506,-59.5500,10.0500,-20.7000,1.9900,4.1600,-9.6400,-0.1636,-0.2422,-1.7355,-3.5000,-32.3750,15.6875,157.2500,21.7500,-142.3125,0
484.309,8.8921,4.0606,-2.2721,0.6246,-0.0661,-0.4823,-55.3500,40.2000,20.4000,10.2831,-0.4908,0.8260,0.9947,-1.5007,0.0791,-58.0500,8.5500,-20.2500,2.0400,3.5800,-9.2900,-0.0676,-0.2345,-1.6101,-3.5000,-32.3750,15.6875,156.4375,21.0625,-142.0000,0
484.314,8.8107,3.7254,-2.3056,0.8167,-0.2182,-0.4261,-56.1000,37.9500,18.3000,10.1035,-0.6129,0.7254,0.9886,-1.4906,0.1090,-58.0500,8.5500,-20.2500,2.0400,3.5800,-9.2900,-0.0676,-0.2345,-1.6101,-3.5000,-32.3750,15.6875,155.6250,20.5000,-141.8125,0
484.319,8.8107,3.7254,-2.3056,0.8167,-0.2182,-0.4261,-56.1000,37.9500,18.3000,10.1035,-0.6129,0.7254,0.9886,-1.4906,0.1090,-59.1000,8.5500,-22.2000,2.4900,3.6900,-9.4900,0.0316,-0.2225,-1.4323,-0.5625,-31.7500,14.7500,155.6250,20.5000,-141.8125,0
484.324,8.4851,3.1508,-2.2721,0.8953,-0.2638,-0.3760,-55.2000,36.3000,19.5000,9.9814,-0.7326,0.5914,1.0006,-1.4634,0.1388,-59.1000,8.5500,-22.2000,2.4900,3.6900,-9.4900,0.0316,-0.2225,-1.4323,-0.5625,-31.7500,14.7500,155.6250,20.5000,-141.8125,0
484.329,8.4851,3.1508,-2.2721,0.8953,-0.2638,-0.3760,-55.2000,36.3000,19.5000,9.9814,-0.7326,0.5914,1.0006,-1.4634,0.1388,-59.1000,8.5500,-22.2000,2.7400,3.2400,-9.2400,0.1822,-0.3436,-1.2435,-0.5625,-31.7500,14.7500,155.0000,19.9375,-141.7500,0
484.335,8.2935,2.9616,-2.2553,1.0078,-0.3014,-0.3315,-56.2500,36.7500,19.5000,9.7229,-0.6393,0.8715,0.9862,-1.4216,0.1529,-57.9000,9.9000,-21.1500,2.9300,3.1400,-9.1100,0.3142,-0.3556,-1.0439,-0.5625,-31.7500,14.7500,154.4375,19.3750,-141.8125,0
484.340,8.2935,2.9616,-2.2553,1.0078,-0.3014,-0.3315,-56.2500,36.7500,19.5000,9.7875,-0.5315,1.0511,0.9862,-1.4216,0.1529,-57.9000,9.9000,-21.1500,2.9300,3.1400,-9.1100,0.3142,-0.3556,-1.0439,-0.5625,-31.7500,14.7500,154.0000,18.9375,-141.9375,0
484.349,8.3725,2.6264,-2.2505,1.0568,-0.2851,-0.2912,-56.2500,36.7500,19.5000,9.7875,-0.5315,1.0511,0.9545,-1.3749,0.1793,-58.0500,7.3500,-22.5000,3.4600,3.1700,-9.2600,0.3840,-0.2858,-0.8999,-0.5625,-31.7500,14.7500,153.5000,18.5625,-142.0625,0
484.359,7.2664,2.7940,-1.4820,1.0858,-0.2206,-0.2499,-54.3000,37.2000,17.8500,9.7157,-0.5890,1.0463,0.9166,-1.3587,0.2177,-58.0500,7.3500,-22.5000,3.7700,3.2100,-9.2900,0.4320,-0.2345,-0.8268,-0.5625,-31.7500,14.7500,153.5000,18.5625,-142.0625,0
484.364,8.2217,2.1476,-2.4253,0.8284,-0.0506,-0.1937,-54.0000,35.5500,15.9000,9.6893,-0.5100,1.0989,0.9110,-1.3984,0.2558,-58.0500,7.3500,-22.5000,3.7700,3.2100,-9.2900,0.4320,-0.2345,-0.8268,-0.5625,-31.7500,14.7500,153.5000,18.5625,-142.0625,0
484.369,8.2217,2.1476,-2.4253,0.8284,-0.0506,-0.1937,-54.0000,35.5500,15.9000,9.4763,-0.3926,1.4365,0.9110,-1.3984,0.2558,-57.6000,8.5500,-24.3000,4.3300,3.3700,-9.4600,0.5029,-0.2051,-0.7734,3.3750,-31.1875,15.5625,153.0625,18.2500,-142.2500,0
484.374,8.6790,2.2194,-2.6647,0.8476,-0.0560,-0.1388,-55.3500,33.9000,18.3000,9.4763,-0.3926,1.4365,0.9278,-1.3488,0.2811,-57.6000,8.5500,-24.3000,4.3300,3.3700,-9.4600,0.5029,-0.2051,-0.7734,3.3750,-31.1875,15.5625,153.0625,18.2500,-142.2500,0
484.379,8.6790,2.2194,-2.6647,0.9046,0.0802,-0.1058,-55.3500,33.9000,18.3000,9.2225,-0.2705,1.5323,0.9278,-1.3488,0.2811,-57.6000,8.5500,-24.3000,3.2300,2.9600,-8.5600,0.6174,-0.1898,-0.7243,3.3750,-31.1875,15.5625,152.6250,17.8750,-142.5625,0
484.384,8.4252,2.1237,-2.5307,0.9046,0.0802,-0.1058,-54.4500,34.0500,15.9000,9.2225,-0.2705,1.5323,0.8913,-1.3022,0.3269,-58.6500,7.5000,-23.8500,3.2300,2.9600,-8.5600,0.6414,-0.0894,-0.7287,3.3750,-31.1875,15.5625,152.1875,17.6250,-142.8125,0
484.390,8.2959,1.9800,-2.4588,0.9244,0.0418,-0.0733,-54.4500,34.0500,15.9000,9.2536,-0.3472,1.2857,0.8327,-1.2761,0.3651,-58.8000,6.6000,-24.3000,5.0800,3.0600,-9.7100,0.6414,-0.0894,-0.7287,3.3750,-31.1875,15.5625,151.8125,17.1250,-143.1250,0
484.399,7.6998,1.8531,-2.4157,0.8324,0.1162,-0.0317,-54.6000,33.4500,17.2500,9.2033,-0.2298,1.0774,0.8378,-1.2225,0.3970,-58.8000,6.6000,-24.3000,4.9100,3.0100,-9.1800,0.7101,-0.4952,-0.7810,3.3750,-31.1875,15.5625,151.8125,17.1250,-143.1250,0
484.409,7.4436,1.9561,-2.6073,0.7099,0.3171,0.0264,-54.6000,33.4500,17.2500,9.1051,0.0215,1.1229,0.8732,-1.1719,0.4167,-57.6000,6.1500,-25.8000,3.3300,2.7900,-7.6000,0.7178,-0.5683,-0.7974,3.3750,-31.1875,15.5625,151.3750,16.6250,-143.5000,0
484.414,7.4436,1.9561,-2.6073,0.7099,0.3171,0.0264,-56.1000,35.4000,15.7500,9.1051,0.0215,1.1229,0.8732,-1.1719,0.4167,-57.6000,6.6000,-26.2500,3.3300,2.7900,-7.6000,0.7178,-0.5683,-0.7974,3.3750,-31.1875,15.5625,151.3750,16.6250,-143.5000,0
484.419,8.2121,2.0686,-2.3487,0.6702,0.4479,0.0949,-56.1000,35.4000,15.7500,8.8178,0.2083,0.9912,0.9188,-1.0666,0.4362,-57.6000,6.6000,-26.2500,3.9700,2.8300,-7.8800,0.6556,-0.2171,-0.7865,5.2500,-28.6875,15.5625,150.9375,16.2500,-143.7500,0
484.424,8.2121,2.0686,-2.3487,0.6702,0.4479,0.0949,-55.2000,34.5000,15.6000,8.8178,0.2083,0.9912,0.9188,-1.0666,0.4362,-57.4500,7.5000,-27.9000,3.9700,2.8300,-7.8800,0.6556,-0.2171,-0.7865,5.2500,-28.6875,15.5625,150.4375,16.0000,-144.0000,0
484.429,8.8969,2.1596,-2.8347,0.6699,0.3059,0.1713,-55.2000,34.5000,15.6000,8.9160,0.3376,0.8452,0.9904,-0.9622,0.4423,-57.4500,7.5000,-27.9000,4.8500,2.9000,-8.2500,0.6578,0.0185,-0.7854,5.2500,-28.6875,15.5625,150.4375,16.0000,-144.0000,0
484.436,8.8969,2.1596,-2.8347,0.6699,0.3059,0.1713,-55.5000,34.0500,15.6000,8.9160,0.3376,0.8452,0.9904,-0.9622,0.4423,-57.4500,7.5000,-27.9000,5.4200,2.9100,-8.3300,0.7603,-0.0404,-0.7941,5.2500,-28.6875,15.5625,149.9375,15.7500,-144.3750,0
484.440,9.2680,2.1284,-3.0167,0.6755,0.2571,0.2497,-55.5000,34.0500,15.6000,8.7460,0.4046,1.3743,1.0824,-0.9348,0.4373,-57.6000,3.9000,-28.8000,5.4200,2.9100,-8.3300,0.7603,-0.0404,-0.7941,5.2500,-28.6875,15.5625,149.4375,15.4375,-144.6875,0
484.450,9.3996,1.9273,-3.1388,0.5622,0.0408,0.2659,-54.7500,34.0500,15.9000,8.7005,0.4645,1.3838,1.0901,-0.8476,0.4514,-57.6000,3.9000,-28.8000,5.4900,2.7500,-8.2100,0.8072,-0.1265,-0.8181,5.2500,-28.6875,15.5625,149.4375,15.4375,-144.6875,0
484.459,8.7867,2.1093,-3.2825,0.5199,-0.1015,0.2401,-54.7500,34.0500,15.9000,8.6742,0.2921,1.0391,1.0150,-0.8095,0.4434,-57.6000,3.9000,-28.8000,5.9500,2.6300,-8.2700,0.7778,-0.1113,-0.8847,5.2500,-28.6875,15.5625,148.8750,15.0625,-145.0625,0
484.464,8.7867,2.1093,-3.2825,0.5199,-0.1015,0.2401,-54.7500,34.0500,15.9000,8.6742,0.2921,1.0391,1.0150,-0.8095,0.4434,-57.0000,5.2500,-27.9000,5.9500,2.6300,-8.2700,0.7778,-0.1113,-0.8847,5.2500,-28.6875,15.5625,148.8750,15.0625,-145.0625,0
484.469,8.2983,2.2841,-3.4141,0.5295,-0.0469,0.1855,-54.7500,34.0500,15.9000,8.4491,0.0599,1.0008,0.9369,-0.7101,0.4349,-57.0000,5.2500,-27.9000,5.5500,2.0800,-7.0900,0.8116,-0.2553,-0.9130,6.3750,-27.6875,17.0000,148.3750,14.6875,-145.3750,0
484.474,8.2983,2.2841,-3.4141,0.5295,-0.0469,0.1855,-56.2500,33.0000,14.8500,8.4491,0.0599,1.0008,0.9369,-0.7101,0.4349,-56.8500,4.9500,-29.2500,5.5500,2.0800,-7.0900,0.8116,-0.2553,-0.9130,6.3750,-27.6875,17.0000,148.3750,14.6875,-145.3750,0
484.479,8.0541,2.5450,-3.3950,0.5391,0.0328,0.1364,-56.2500,33.0000,14.8500,8.3294,0.0024,0.9912,0.8748,-0.6366,0.4183,-56.8500,4.9500,-29.2500,5.4900,1.9300,-6.5500,0.8225,-0.3043,-0.8770,6.3750,-27.6875,17.0000,147.8750,14.2500,-145.7500,0
484.484,8.0541,2.5450,-3.3950,0.5391,0.0328,0.1364,-56.4000,33.4500,15.4500,8.3294,0.0024,0.9912,0.8748,-0.6366,0.4183,-57.3000,3.9000,-31.0500,5.4900,1.9300,-6.5500,0.7549,-0.1124,-0.8149,6.3750,-27.6875,17.0000,147.3750,13.9375,-146.1250,0
484.490,8.1092,2.5235,-3.5051,0.4298,0.1069,0.1348,-56.5500,33.7500,15.3000,8.0709,0.0383,1.1444,0.7989,-0.5164,0.3933,-57.3000,3.9000,-31.0500,5.5400,1.6800,-5.8800,0.7549,-0.1124,-0.8149,6.3750,-27.6875,17.0000,146.8750,13.8750,-146.3125,0
484.500,8.5880,2.4205,-3.8092,0.3096,0.2633,0.1247,-56.5500,33.7500,15.3000,7.8865,0.0120,1.4174,0.6955,-0.3962,0.3672,-55.2000,4.8000,-29.7000,6.4300,1.3000,-5.8600,0.5934,0.2531,-0.7232,6.3750,-27.6875,17.0000,146.8750,13.8750,-146.3125,0
484.509,8.6886,2.4732,-4.5466,0.1892,0.3613,0.0775,-57.7500,32.2500,15.6000,7.6998,-0.1341,1.2833,0.6014,-0.2523,0.3070,-56.2500,4.5000,-30.1500,8.7100,0.7400,-5.5400,0.4800,0.0949,-0.5880,6.3750,-27.6875,17.0000,146.5000,13.6875,-146.5000,0
484.514,8.6886,2.4732,-4.5466,0.1892,0.3613,0.0775,-57.7500,32.2500,15.6000,8.0373,-0.3903,0.8595,0.5462,-0.1074,0.1982,-56.5500,2.7000,-29.5500,8.7100,0.7400,-5.5400,0.4800,0.0949,-0.5880,6.3750,-27.6875,17.0000,146.5000,13.6875,-146.5000,0
484.519,9.0357,2.4325,-4.9823,0.0565,0.5220,0.0762,-57.7500,32.2500,15.6000,8.0373,-0.3903,0.8595,0.5462,-0.1074,0.1982,-56.5500,2.7000,-29.5500,9.3200,-0.0300,-4.1800,0.2585,-0.0065,-0.4178,7.2500,-26.2500,17.3750,146.2500,13.5625,-146.6250,0
484.524,9.0357,2.4325,-4.9823,-0.0298,0.6376,0.0445,-58.9500,33.4500,13.3500,8.6167,0.4980,0.3735,0.5167,0.0248,0.0040,-56.5500,2.7000,-29.5500,9.3200,-0.0300,-4.1800,0.2585,-0.0065,-0.4178,7.2500,-26.2500,17.3750,146.2500,13.5625,-146.6250,0
484.529,9.1387,2.4110,-5.5091,-0.0298,0.6376,0.0445,-58.9500,33.4500,13.3500,8.6167,0.4980,0.3735,0.5167,0.0248,0.0040,-56.5500,2.7000,-29.5500,10.5300,-1.4800,-2.3600,-0.0665,0.3556,-0.0349,7.2500,-26.2500,17.3750,146.1875,13.7500,-146.5625,0
484.535,9.5864,3.2513,-6.6774,-0.0991,0.5486,-0.0253,-57.7500,32.2500,13.8000,7.9631,2.8204,3.6416,0.5630,0.3605,-0.3080,-55.2000,0.9000,-29.7000,10.5300,-1.4800,-2.3600,-0.5116,1.0428,0.6196,7.2500,-26.2500,17.3750,146.3750,14.4375,-146.2500,0
484.540,9.5864,3.2513,-6.6774,-0.0991,0.5486,-0.0253,-58.6500,32.4000,15.0000,7.9631,2.8204,3.6416,0.5630,0.3605,-0.3080,-55.2000,0.9000,-29.7000,19.7300,-7.5500,6.6200,-0.5116,1.0428,0.6196,7.2500,-26.2500,17.3750,147.0000,16.0000,-145.6875,0
484.550,9.4954,4.7477,-7.6088,-0.2566,0.2625,-0.1727,-59.5500,32.2500,14.5500,7.1563,4.3072,6.0166,-0.3421,0.7882,-0.5918,-55.2000,0.9000,-29.7000,16.6200,-5.3000,1.4200,-0.9992,2.3671,1.6352,7.2500,-26.2500,17.3750,147.0000,16.0000,-145.6875,0
484.560,8.6694,4.8291,-6.8881,-0.3994,0.0786,-0.1514,-59.5500,33.7500,15.6000,10.2208,0.1844,-0.9337,-1.2550,1.1359,-0.5585,-57.3000,1.9500,-29.5500,25.6500,8.2900,-8.8000,-0.8967,2.6933,2.9943,7.2500,-26.2500,17.3750,148.3125,18.1875,-145.3750,0
484.564,10.3070,4.6567,-2.0782,-0.2649,0.4844,0.0629,-59.5500,33.7500,15.6000,15.6653,-0.4381,-6.9145,-1.5402,1.0269,-0.2321,-55.2000,4.0500,-28.2000,25.6500,8.2900,-8.8000,-0.8967,2.6933,2.9943,7.2500,-26.2500,17.3750,148.3125,18.1875,-145.3750,0
484.569,10.3070,4.6567,-2.0782,-0.2649,0.4844,0.0629,-59.5500,33.7500,15.6000,15.6653,-0.4381,-6.9145,-1.5402,1.0269,-0.2321,-55.2000,4.0500,-28.2000,18.5000,1.7500,-18.9900,0.7243,0.5661,4.3590,8.7500,-27.0000,18.2500,150.5625,19.8125,-146.4375,0
484.574,12.7132,4.9584,0.0239,-0.5694,0.6336,0.0994,-59.5500,33.7500,15.6000,16.2423,1.6807,-5.2385,-1.4536,0.7128,-0.1183,-57.4500,4.0500,-28.9500,18.5000,1.7500,-18.9900,0.7243,0.5661,4.3590,8.7500,-27.0000,18.2500,150.5625,19.8125,-146.4375,0
484.579,12.7132,4.9584,0.0239,-0.5694,0.6336,0.0994,-58.0500,33.0000,15.6000,16.2423,1.6807,-5.2385,-1.4536,0.7128,-0.1183,-57.4500,4.0500,-28.9500,-8.4600,16.8100,-11.5900,2.4118,-0.7483,3.2670,8.7500,-27.0000,18.2500,152.1875,20.4375,-148.3750,0
484.584,11.8274,5.2577,-0.1006,-0.5801,0.6813,0.1140,-58.0500,33.0000,15.6000,11.8154,5.9472,-1.2905,-1.0259,0.6294,-0.3328,-55.9500,4.8000,-27.9000,-8.4600,16.8100,-11.5900,0.7767,0.9807,2.6005,8.7500,-27.0000,18.2500,153.4375,21.6250,-149.1875,0
484.591,11.8274,5.2577,-0.1006,-0.5801,0.6813,0.1140,-58.6500,33.1500,14.7000,8.2049,7.1419,3.1963,-1.0259,0.6294,-0.3328,-55.9500,4.8000,-27.9000,-0.0500,16.8500,-9.0700,0.7767,0.9807,2.6005,8.7500,-27.0000,18.2500,154.0625,22.6250,-149.5625,0
484.600,10.2448,5.2529,-0.5195,0.1092,0.6379,-0.0821,-59.5500,31.0500,15.6000,7.1443,4.6208,3.4524,-0.4466,0.7679,-0.5049,-57.6000,4.2000,-29.2500,5.9700,18.8100,-4.7000,0.3240,1.2097,1.5752,8.7500,-27.0000,18.2500,154.0625,22.6250,-149.5625,0
484.610,7.8530,6.7205,0.5507,0.4644,0.6131,-0.2718,-57.7500,30.7500,15.6000,8.7604,1.3288,2.0662,0.1623,0.9955,-0.4932,-58.0500,4.2000,-29.5500,10.2400,0.9800,-9.5800,0.8399,0.5869,0.4036,8.7500,-27.0000,18.2500,154.1250,23.0625,-150.0000,0
484.615,7.2137,6.6415,2.1308,0.5628,0.7298,-0.3096,-57.7500,30.7500,15.6000,8.7604,1.3288,2.0662,0.8655,1.0118,-0.3736,-58.0500,4.2000,-29.5500,10.2400,0.9800,-9.5800,0.8399,0.5869,0.4036,8.7500,-27.0000,18.2500,154.1250,23.0625,-150.0000,0
484.620,7.2137,6.6415,2.1308,0.5628,0.7298,-0.3096,-57.7500,30.7500,15.6000,10.4770,0.4022,1.2665,0.8655,1.0118,-0.3736,-58.0500,4.2000,-29.5500,4.7700,-1.9600,-11.0700,1.3003,-0.0480,-0.1036,3.2500,-27.5000,19.0625,153.9375,23.0000,-150.7500,0
484.625,8.3175,3.4668,2.7605,0.5822,0.9132,-0.1657,-57.7500,30.7500,15.6000,10.4770,0.4022,1.2665,1.2337,1.0696,-0.2843,-57.9000,5.5500,-27.4500,4.7700,-1.9600,-11.0700,1.3003,-0.0480,-0.1036,3.2500,-27.5000,19.0625,153.9375,23.0000,-150.7500,0
484.630,8.3175,3.4668,2.7605,0.5822,0.9132,-0.1657,-57.7500,30.7500,15.6000,11.1474,0.0479,2.2194,0.9318,1.0616,-0.2462,-57.9000,5.5500,-27.4500,2.5900,0.8700,-9.8400,1.1803,-0.3883,0.0284,3.2500,-27.5000,19.0625,153.8125,22.8125,-151.4375,0
484.637,8.4132,1.5299,0.6201,1.0072,0.9771,-0.0035,-57.7500,30.7500,15.6000,11.1474,0.0479,2.2194,0.9318,1.0616,-0.2462,-57.9000,5.5500,-27.4500,4.5700,5.3900,-7.7100,0.8214,-0.3043,0.1331,3.2500,-27.5000,19.0625,153.8750,22.6875,-151.9375,0
484.642,9.8210,1.7454,-0.3472,1.4485,0.7687,0.0997,-55.2000,28.0500,15.6000,9.9240,-0.8547,2.9808,0.3355,0.9856,-0.1793,-57.4500,5.2500,-26.7000,4.5700,5.3900,-7.7100,0.8214,-0.3043,0.1331,3.2500,-27.5000,19.0625,153.7500,22.6250,-152.2500,0
484.650,10.5776,0.9816,1.2067,1.2732,0.6614,0.1887,-55.3500,28.6500,15.7500,9.9288,-0.7997,3.7517,-0.1338,0.9166,-0.1639,-57.4500,5.2500,-26.7000,4.6800,2.5000,-8.7000,0.5171,-0.1014,-0.0600,3.2500,-27.5000,19.0625,153.6875,22.5625,-152.4375,0
484.660,10.6614,-0.6967,2.2051,0.9366,0.6579,0.3128,-54.9000,28.2000,16.5000,10.8888,0.0431,3.3040,-0.2555,0.7775,-0.2582,-57.3000,4.2000,-27.0000,4.2900,1.7400,-8.8700,0.3796,-0.0687,-0.0862,3.2500,-27.5000,19.0625,153.6875,22.5625,-152.4375,0
484.665,10.6614,-0.6967,2.2051,0.9366,0.6579,0.3128,-54.9000,28.2000,16.5000,10.8888,0.0431,3.3040,-0.2555,0.7775,-0.2582,-57.0000,5.5500,-26.1000,4.2900,1.7400,-8.8700,0.3796,-0.0687,-0.0862,3.2500,-27.5000,19.0625,153.6875,22.5000,-152.5625,0
484.670,10.4100,-1.6089,1.5395,0.6073,0.7861,0.4072,-54.6000,26.4000,15.0000,10.8146,0.7733,2.9329,-0.0560,0.6358,-0.3371,-57.0000,5.5500,-26.1000,4.0700,3.3200,-8.3900,0.2662,-0.1102,-0.0175,1.5000,-26.7500,19.8750,153.6875,22.5000,-152.5625,0
484.675,10.4100,-1.6089,1.5395,0.6073,0.7861,0.4072,-54.6000,26.4000,15.0000,10.8146,0.7733,2.9329,-0.0560,0.6358,-0.3371,-59.1000,4.2000,-26.2500,4.0700,3.3200,-8.3900,0.2662,-0.1102,-0.0175,1.5000,-26.7500,19.8750,153.6250,22.5000,-152.6875,0
484.680,10.3070,-0.9290,0.4788,0.3635,0.8644,0.4461,-54.6000,26.4000,15.0000,10.3142,1.2785,3.0215,0.1015,0.5196,-0.3389,-59.1000,4.2000,-26.2500,3.7400,2.8200,-8.8900,0.1702,-0.0764,-0.0393,1.5000,-26.7500,19.8750,153.6250,22.5000,-152.6875,0
484.687,10.3070,-0.9290,0.4788,0.3635,0.8644,0.4461,-54.6000,26.4000,15.0000,9.9311,1.0008,2.9856,0.1015,0.5196,-0.3389,-59.1000,5.4000,-28.0500,3.7400,3.0800,-8.7400,0.0622,0.0142,-0.0469,1.5000,-26.7500,19.8750,153.5625,22.4375,-152.6875,0
484.691,9.9383,0.0575,0.7518,0.1005,0.9326,0.4780,-55.2000,25.8000,16.6500,9.9311,1.0008,2.9856,0.1844,0.4916,-0.3003,-59.1000,5.4000,-28.0500,3.7400,3.0800,-8.7400,0.0622,0.0142,-0.0469,1.5000,-26.7500,19.8750,153.5625,22.5000,-152.6250,0
484.700,10.0724,0.7494,1.0534,-0.0509,0.9806,0.4711,-54.9000,26.7000,17.5500,9.9024,0.7350,2.4732,0.1132,0.5308,-0.2430,-58.6500,6.4500,-28.2000,3.6200,3.4600,-8.2900,-0.0567,0.0884,-0.0545,1.5000,-26.7500,19.8750,153.5000,22.5000,-152.5625,0
484.710,9.7875,1.0319,0.9529,-0.1503,0.9603,0.4311,-57.3000,28.5000,16.3500,10.3813,0.4286,1.8268,-0.0815,0.4602,-0.2579,-58.6500,6.4500,-28.2000,3.8500,3.4500,-8.1600,-0.1462,0.1233,-0.1156,1.5000,-26.7500,19.8750,153.5000,22.5000,-152.5625,0
484.715,9.7875,1.0319,0.9529,-0.1503,0.9603,0.4311,-57.3000,28.5000,16.3500,10.3813,0.4286,1.8268,-0.0815,0.4602,-0.2579,-59.5500,6.6000,-27.3000,3.8500,3.4500,-8.1600,-0.1462,0.1233,-0.1156,1.5000,-26.7500,19.8750,153.5000,22.5000,-152.5625,0
