timestamp,thigh_acc_x,thigh_acc_y,thigh_acc_z,thigh_gyro_x,thigh_gyro_y,thigh_gyro_z,thigh_mag_x,thigh_mag_y,thigh_mag_z,shank_acc_x,shank_acc_y,shank_acc_z,shank_gyro_x,shank_gyro_y,shank_gyro_z,shank_mag_x,shank_mag_y,shank_mag_z,foot_acc_x,foot_acc_y,foot_acc_z,foot_gyro_x,foot_gyro_y,foot_gyro_z,foot_mag_x,foot_mag_y,foot_mag_z,foot_euler_x,foot_euler_y,foot_euler_z,perturbation_event
189.327,9.6007,1.9704,-0.0790,-0.0211,-0.0059,-0.0434,-54.3000,29.7000,45.0000,9.5960,1.1899,0.3831,-0.0232,0.0176,0.0048,-52.2000,14.5500,3.0000,3.0700,4.1600,-8.3700,0.0011,0.0000,0.0000,-24.6875,-26.2500,20.3750,227.5000,17.8750,-153.3125,0
189.332,9.5912,1.9992,0.0096,-0.0280,-0.0160,-0.0458,-53.4000,30.7500,44.8500,9.5960,1.1708,0.3424,-0.0301,0.0245,0.0040,-52.2000,14.5500,3.0000,3.0700,4.1600,-8.3700,0.0011,0.0000,0.0000,-24.6875,-26.2500,20.3750,227.5000,17.8750,-153.3125,0
189.340,9.5912,1.9992,0.0096,-0.0280,-0.0160,-0.0458,-53.1000,30.1500,44.2500,9.6367,1.2139,0.3998,-0.0357,0.0370,0.0021,-52.2000,14.5500,3.0000,3.0600,4.1700,-8.4000,0.0044,0.0022,0.0000,-24.6875,-26.2500,20.3750,227.5000,17.8750,-153.3125,0
189.344,9.5792,2.0087,0.0144,-0.0229,-0.0181,-0.0517,-53.1000,30.1500,44.2500,9.6367,1.2139,0.3998,-0.0357,0.0370,0.0021,-51.3000,13.8000,3.4500,3.0600,4.1700,-8.4000,0.0011,-0.0011,0.0000,-24.6875,-26.6875,19.1875,227.5000,17.8750,-153.3125,0
189.350,9.5792,2.0087,0.0144,-0.0229,-0.0181,-0.0517,-55.6500,30.9000,44.2500,9.6726,1.2258,0.5100,-0.0557,0.0266,0.0035,-51.3000,13.8000,3.4500,3.0400,4.2000,-8.3700,0.0011,-0.0011,0.0000,-24.6875,-26.6875,19.1875,227.5000,17.8750,-153.3125,0
189.359,9.6199,1.9944,0.0144,-0.0218,-0.0258,-0.0474,-54.6000,30.1500,45.7500,9.5624,1.3120,0.4549,-0.0727,0.0320,0.0043,-51.3000,13.8000,3.4500,3.0400,4.2000,-8.3700,0.0055,0.0022,0.0000,-24.6875,-26.6875,19.1875,227.5000,17.8750,-153.3125,0
189.368,9.5840,1.9273,0.0335,-0.0413,-0.0107,-0.0445,-55.3500,30.1500,45.7500,9.6223,1.3144,0.4046,-0.0645,0.0386,0.0059,-52.9500,13.5000,3.4500,3.0700,4.1800,-8.3800,0.0065,0.0022,0.0033,-24.6875,-26.6875,19.1875,227.5000,17.8750,-153.3125,0
189.373,9.5193,1.9704,0.0192,-0.0418,-0.0152,-0.0397,-55.3500,30.1500,44.7000,9.6223,1.3144,0.4046,-0.0645,0.0386,0.0059,-52.9500,13.5000,3.4500,3.0700,4.1800,-8.3800,0.0065,0.0022,0.0033,-24.6875,-26.6875,19.1875,227.5000,17.8750,-153.3125,0
189.380,9.5912,2.0830,0.0982,-0.0389,-0.0016,-0.0410,-55.3500,30.1500,44.7000,9.5553,1.3001,0.4741,-0.0394,0.0458,0.0072,-51.9000,13.2000,3.3000,3.0600,4.2100,-8.3800,0.0098,0.0000,0.0044,-24.6875,-26.6875,19.1875,227.5000,17.8750,-153.3125,0
189.389,9.5553,1.9561,0.0934,-0.0400,0.0008,-0.0421,-55.2000,28.8000,43.8000,9.5984,1.2210,0.4453,-0.0181,0.0410,0.0043,-51.9000,14.4000,3.3000,3.0500,4.2100,-8.3600,0.0120,-0.0011,0.0022,-24.6875,-26.6875,19.1875,227.5000,17.8750,-153.3125,0
189.394,9.5553,1.9561,0.0934,-0.0400,0.0008,-0.0421,-55.2000,28.8000,43.8000,9.5984,1.2210,0.4453,-0.0181,0.0410,0.0043,-52.3500,12.4500,3.6000,3.0500,4.2100,-8.3600,0.0175,-0.0022,0.0000,-24.3750,-27.0625,20.0000,227.5000,17.8750,-153.3125,0
189.400,9.5553,1.9609,0.1532,-0.0306,-0.0011,-0.0472,-54.4500,31.0500,45.9000,9.6750,1.1708,0.4621,-0.0123,0.0456,-0.0011,-52.3500,12.4500,3.6000,3.0700,4.1700,-8.3800,0.0175,-0.0022,0.0000,-24.3750,-27.0625,20.0000,227.5000,17.8750,-153.3125,0
189.409,9.5768,1.9225,0.1173,-0.0032,-0.0128,-0.0498,-55.2000,28.8000,45.6000,9.6295,1.2067,0.4597,-0.0288,0.0488,0.0013,-52.6500,13.9500,3.6000,3.0600,4.1800,-8.4000,0.0142,-0.0011,0.0022,-24.3750,-27.0625,20.0000,227.5000,17.8750,-153.3125,0
189.417,9.5768,1.9225,0.1173,-0.0032,-0.0128,-0.0498,-55.2000,28.8000,45.6000,9.6223,1.1588,0.4717,-0.0155,0.0533,-0.0027,-52.6500,13.6500,3.6000,3.0500,4.1900,-8.4000,0.0131,-0.0022,0.0011,-24.3750,-27.0625,20.0000,227.5000,17.8750,-153.3125,0
189.422,9.5744,1.9010,0.0814,0.0144,-0.0149,-0.0517,-54.7500,28.0500,45.6000,9.6223,1.1588,0.4717,-0.0155,0.0533,-0.0027,-52.6500,13.6500,3.6000,3.0500,4.1900,-8.4000,0.0131,-0.0022,0.0011,-24.3750,-27.0625,20.0000,227.5000,17.8750,-153.3125,0
189.430,9.5744,1.9010,0.0814,0.0165,-0.0149,-0.0512,-54.7500,28.0500,45.6000,9.6414,1.2617,0.4597,-0.0277,0.0589,-0.0024,-52.6500,13.6500,3.6000,3.0500,4.2000,-8.3600,0.0131,-0.0044,0.0000,-24.3750,-27.0625,20.0000,227.5000,17.8750,-153.3125,0
189.439,9.5864,1.9154,0.0646,0.0357,-0.0160,-0.0474,-55.2000,31.0500,44.4000,9.5936,1.1803,0.5555,-0.0261,0.0608,-0.0075,-54.1500,12.9000,3.6000,3.0600,4.1900,-8.3500,0.0142,-0.0022,-0.0022,-24.3750,-27.0625,20.0000,227.5000,17.8750,-153.3125,0
189.444,9.5864,1.9154,0.0646,0.0357,-0.0160,-0.0474,-55.2000,31.0500,44.4000,9.6486,1.2163,0.5507,-0.0261,0.0608,-0.0075,-54.1500,12.9000,3.6000,3.0600,4.1900,-8.3500,0.0131,-0.0011,-0.0011,-25.0625,-26.6875,20.3750,227.5000,17.8750,-153.3750,0
189.450,9.5241,1.8842,0.0910,0.0432,-0.0152,-0.0453,-53.1000,31.2000,45.3000,9.6486,1.2163,0.5507,-0.0330,0.0560,0.0000,-51.1500,13.9500,4.0500,3.0600,4.2100,-8.3400,0.0131,-0.0011,-0.0011,-25.0625,-26.6875,20.3750,227.5000,17.8750,-153.3750,0
189.459,9.5241,1.8938,0.1796,0.0480,-0.0011,-0.0501,-54.0000,30.3000,45.9000,9.6031,1.1779,0.6201,-0.0272,0.0517,-0.0013,-52.3500,13.6500,3.6000,3.0500,4.2300,-8.4100,0.0142,-0.0022,0.0000,-25.0625,-26.6875,20.3750,227.5000,17.8750,-153.3750,0
189.469,9.5217,1.9321,0.1269,0.0472,-0.0003,-0.0440,-54.6000,30.9000,44.7000,9.6822,1.2498,0.6393,-0.0272,0.0560,-0.0035,-54.0000,13.0500,3.4500,3.0700,4.1900,-8.4200,0.0175,-0.0022,-0.0022,-25.0625,-26.6875,20.3750,227.5000,17.8750,-153.3750,0
189.475,9.5217,1.9321,0.1269,0.0472,-0.0003,-0.0440,-54.6000,30.9000,44.7000,9.6438,1.2450,0.5914,-0.0192,0.0536,-0.0043,-51.0000,13.0500,4.2000,3.0900,4.2100,-8.3700,0.0175,-0.0033,-0.0011,-25.0625,-26.6875,20.3750,227.5000,17.8750,-153.3750,0
189.480,9.5337,1.9130,0.1365,0.0437,0.0104,-0.0424,-54.0000,31.0500,43.8000,9.6438,1.2450,0.5914,-0.0192,0.0536,-0.0043,-51.0000,13.0500,4.2000,3.0900,4.2100,-8.3700,0.0175,-0.0033,-0.0011,-25.0625,-26.6875,20.3750,227.5000,17.8750,-153.3750,0
189.489,9.6151,1.9369,0.1532,0.0568,0.0248,-0.0373,-54.0000,31.0500,43.8000,9.6654,1.2234,0.6177,-0.0059,0.0560,-0.0072,-53.1000,14.8500,3.3000,3.0700,4.2100,-8.3900,0.0164,-0.0033,0.0000,-25.0625,-26.6875,20.3750,227.5000,17.8750,-153.3750,0
189.494,9.6151,1.9369,0.1532,0.0568,0.0248,-0.0373,-54.0000,31.0500,43.8000,9.6845,1.1899,0.6752,-0.0027,0.0522,-0.0040,-53.1000,14.8500,3.3000,3.0700,4.2100,-8.3900,0.0142,-0.0065,-0.0011,-24.6875,-26.6875,20.7500,227.5000,17.8750,-153.3750,0
189.500,9.6247,1.9130,0.1245,0.0605,0.0211,-0.0360,-53.7000,30.3000,45.9000,9.6845,1.1899,0.6752,-0.0027,0.0522,-0.0040,-53.1000,14.8500,3.3000,3.0600,4.1900,-8.4000,0.0142,-0.0065,-0.0011,-24.6875,-26.6875,20.7500,227.5000,17.8750,-153.3750,0
189.509,9.5696,1.8890,0.1987,0.0520,0.0136,-0.0330,-54.3000,30.4500,45.0000,9.6774,1.2306,0.7207,-0.0147,0.0426,-0.0013,-52.2000,13.8000,4.2000,3.0300,4.2000,-8.3800,0.0120,-0.0022,-0.0011,-24.6875,-26.6875,20.7500,227.5000,17.8750,-153.3750,0
189.519,9.5984,1.8364,0.1532,0.0386,0.0157,-0.0266,-53.1000,29.4000,45.0000,9.6917,1.2474,0.6776,-0.0181,0.0450,-0.0064,-52.2000,13.8000,4.2000,3.0500,4.2100,-8.4200,0.0109,-0.0055,0.0022,-24.6875,-26.6875,20.7500,227.5000,17.8750,-153.4375,0
189.525,9.6462,1.8028,0.2131,0.0237,0.0147,-0.0274,-53.1000,29.4000,45.0000,9.6869,1.2857,0.6847,-0.0117,0.0437,-0.0027,-52.2000,13.8000,4.2000,3.0500,4.2100,-8.4200,0.0109,0.0000,0.0000,-24.6875,-26.6875,20.7500,227.5000,17.8750,-153.4375,0
189.530,9.6462,1.8028,0.2131,0.0237,0.0147,-0.0274,-53.8500,30.1500,45.0000,9.6582,1.3192,0.7877,-0.0117,0.0437,-0.0027,-51.7500,12.3000,3.4500,3.0300,4.2300,-8.3700,0.0109,0.0000,0.0000,-24.6875,-26.6875,20.7500,227.5000,17.8750,-153.4375,0
189.540,9.6079,1.7334,0.2155,0.0155,0.0136,-0.0272,-53.8500,30.1500,45.0000,9.6582,1.3192,0.7877,-0.0069,0.0493,-0.0019,-51.9000,13.2000,4.0500,3.0500,4.2000,-8.4100,0.0076,-0.0033,0.0011,-24.6875,-26.6875,20.7500,227.5000,17.8750,-153.4375,0
189.544,9.5960,1.6927,0.1772,-0.0032,0.0144,-0.0248,-53.8500,30.1500,45.0000,9.6199,1.2785,0.7614,-0.0077,0.0386,-0.0059,-51.9000,13.2000,4.0500,3.0500,4.2000,-8.4100,0.0065,-0.0022,0.0000,-24.6875,-27.5000,20.7500,227.5000,17.8750,-153.4375,0
189.550,9.5960,1.6927,0.1772,-0.0032,0.0144,-0.0248,-53.8500,30.1500,45.0000,9.6103,1.2139,0.7685,-0.0077,0.0386,-0.0059,-53.1000,14.4000,5.8500,3.0700,4.2100,-8.3700,0.0065,-0.0022,0.0000,-24.6875,-27.5000,20.7500,227.5000,17.8750,-153.4375,0
189.559,9.5577,1.6616,0.2298,-0.0067,0.0203,-0.0242,-55.2000,31.0500,45.9000,9.6941,1.1995,0.7709,-0.0274,0.0344,0.0021,-53.4000,13.6500,3.6000,3.0400,4.1800,-8.4200,0.0065,-0.0055,0.0011,-24.6875,-27.5000,20.7500,227.5000,17.8750,-153.4375,0
189.569,9.6103,1.6879,0.2227,-0.0123,0.0280,-0.0240,-52.8000,29.7000,43.5000,9.7013,1.2522,0.7709,-0.0285,0.0282,-0.0027,-52.2000,14.5500,3.0000,3.0700,4.2100,-8.4400,0.0033,-0.0022,0.0022,-24.6875,-27.5000,20.7500,227.5000,17.8750,-153.4375,0
189.579,9.6007,1.6807,0.2370,-0.0144,0.0264,-0.0232,-54.9000,30.4500,44.7000,9.7324,1.1660,0.7398,-0.0352,0.0218,-0.0027,-51.3000,12.3000,3.4500,3.0500,4.1900,-8.3900,0.0022,-0.0022,0.0000,-24.6875,-27.5000,20.7500,227.5000,17.8750,-153.4375,0
189.585,9.5768,1.7047,0.1652,-0.0117,0.0261,-0.0216,-54.3000,31.2000,45.7500,9.7324,1.1660,0.7398,-0.0370,0.0221,-0.0091,-51.3000,12.3000,3.4500,3.0500,4.1900,-8.3900,-0.0033,-0.0033,0.0000,-24.6875,-27.5000,20.7500,227.5000,17.8750,-153.4375,0
189.591,9.5768,1.7047,0.1652,-0.0117,0.0261,-0.0216,-54.3000,31.2000,45.7500,9.5792,1.2163,0.7733,-0.0400,0.0141,0.0008,-51.3000,12.3000,3.4500,3.0400,4.2000,-8.3900,-0.0033,-0.0033,0.0000,-24.6875,-27.5000,20.7500,227.5000,17.8750,-153.4375,0
189.596,9.6151,1.7669,0.1939,-0.0104,0.0218,-0.0171,-54.3000,31.2000,45.7500,9.5792,1.2163,0.7733,-0.0400,0.0141,0.0008,-51.3000,12.3000,3.4500,3.0500,4.2000,-8.3700,-0.0055,0.0011,0.0033,-24.6875,-26.2500,22.0000,227.5000,17.8750,-153.4375,0
189.601,9.6151,1.7669,0.1939,-0.0104,0.0218,-0.0171,-54.3000,31.2000,45.7500,9.6989,1.1995,0.7925,-0.0338,0.0123,-0.0077,-52.5000,13.5000,3.7500,3.0500,4.2000,-8.3700,-0.0055,0.0011,0.0033,-24.6875,-26.2500,22.0000,227.5000,17.8750,-153.4375,0
189.610,9.6965,1.8340,0.2131,-0.0109,0.0282,-0.0141,-54.7500,30.0000,45.1500,9.6079,1.2474,0.7590,-0.0472,0.0080,-0.0013,-52.5000,13.5000,3.7500,3.0400,4.1800,-8.3900,-0.0065,0.0011,0.0022,-24.6875,-26.2500,22.0000,227.5000,17.8750,-153.4375,0
189.619,9.6103,1.8507,0.1939,-0.0141,0.0211,-0.0208,-54.4500,31.8000,44.8500,9.5960,1.2426,0.7326,-0.0522,0.0048,-0.0005,-52.5000,13.0500,3.0000,3.0600,4.1800,-8.4100,-0.0087,0.0033,0.0033,-24.6875,-26.2500,22.0000,227.5000,17.8750,-153.4375,0
189.628,9.5600,1.8196,0.2131,-0.0282,0.0184,-0.0176,-53.5500,29.7000,45.0000,9.6391,1.3336,0.7590,-0.0386,0.0024,-0.0016,-51.7500,13.8000,4.5000,3.0400,4.2000,-8.3900,-0.0131,0.0000,0.0022,-24.6875,-26.2500,22.0000,227.5000,17.8750,-153.3750,0
189.633,9.5553,1.8771,0.2179,-0.0301,0.0157,-0.0149,-53.5500,29.7000,45.0000,9.6391,1.3336,0.7590,-0.0386,0.0024,-0.0016,-51.7500,13.8000,4.5000,3.0400,4.2000,-8.3900,-0.0131,0.0000,0.0022,-24.6875,-26.2500,22.0000,227.5000,17.8750,-153.3750,0
189.640,9.5553,1.8771,0.2179,-0.0301,0.0157,-0.0149,-53.5500,29.4000,45.0000,9.6367,1.3408,0.7470,-0.0360,-0.0064,-0.0064,-51.9000,12.9000,4.3500,3.0300,4.2300,-8.4000,-0.0142,0.0000,0.0044,-24.6875,-26.2500,22.0000,227.5000,17.8750,-153.3750,0
189.645,9.5864,1.8747,0.2538,-0.0466,0.0197,-0.0101,-53.5500,29.4000,45.0000,9.6367,1.3408,0.7470,-0.0360,-0.0064,-0.0064,-51.9000,12.9000,4.3500,3.0300,4.2300,-8.4000,-0.0120,0.0022,0.0044,-24.0625,-27.0625,20.7500,227.5000,17.8750,-153.3750,0
189.651,9.5720,1.8723,0.2705,-0.0589,0.0168,-0.0125,-53.5500,29.4000,45.0000,9.6582,1.4174,0.6943,-0.0176,-0.0093,-0.0051,-52.9500,13.5000,3.4500,3.0400,4.2200,-8.3800,-0.0120,0.0022,0.0044,-24.0625,-27.0625,20.7500,227.5000,17.8750,-153.3750,0
189.660,9.5720,1.8723,0.2705,-0.0589,0.0168,-0.0125,-53.5500,29.4000,45.0000,9.6103,1.3144,0.7422,-0.0032,-0.0125,-0.0035,-52.9500,13.5000,3.4500,3.0600,4.2300,-8.3600,-0.0131,0.0055,0.0022,-24.0625,-27.0625,20.7500,227.5000,17.8750,-153.3750,0
189.668,9.5744,1.8723,0.2634,-0.0514,0.0234,-0.0115,-54.6000,30.9000,45.0000,9.6486,1.2115,0.7685,-0.0043,-0.0136,-0.0061,-50.8500,12.9000,4.8000,3.0700,4.2200,-8.3800,-0.0109,0.0033,0.0022,-24.0625,-27.0625,20.7500,227.5000,17.8750,-153.3750,0
189.673,9.6319,1.8818,0.2562,-0.0429,0.0322,-0.0091,-54.6000,30.9000,45.0000,9.6486,1.2115,0.7685,-0.0043,-0.0136,-0.0061,-50.8500,12.9000,4.8000,3.0700,4.2200,-8.3800,-0.0109,0.0033,0.0022,-24.0625,-27.0625,20.7500,227.5000,17.8750,-153.3750,0
189.680,9.5984,1.8531,0.3352,-0.0410,0.0373,-0.0125,-54.4500,30.3000,44.4000,9.6414,1.1803,0.7422,-0.0205,-0.0200,0.0011,-50.8500,12.9000,4.8000,3.0300,4.2300,-8.3500,-0.0087,0.0033,0.0011,-24.0625,-27.0625,20.7500,227.5000,17.8750,-153.3750,0
189.690,9.6438,1.8747,0.2777,-0.0365,0.0386,-0.0139,-54.4500,30.0000,45.1500,9.6702,1.1923,0.7183,-0.0410,-0.0264,0.0003,-52.2000,15.0000,4.5000,3.0400,4.2000,-8.3900,-0.0109,0.0000,0.0033,-24.0625,-27.0625,20.7500,227.5000,17.8750,-153.3750,0
189.695,9.6438,1.8747,0.2777,-0.0365,0.0386,-0.0139,-54.0000,31.0500,44.8500,9.5888,1.2953,0.6991,-0.0597,-0.0282,0.0003,-52.2000,15.0000,4.5000,3.0400,4.2000,-8.3900,-0.0109,-0.0022,0.0055,-25.0625,-26.6875,21.1875,227.5000,17.8750,-153.3750,0
189.701,9.5840,1.8076,0.2634,-0.0402,0.0317,-0.0083,-54.0000,31.0500,44.8500,9.5888,1.2953,0.6991,-0.0597,-0.0282,0.0003,-51.7500,13.5000,3.4500,3.0400,4.2100,-8.3800,-0.0109,-0.0022,0.0055,-25.0625,-26.6875,21.1875,227.5000,17.8750,-153.3750,0
189.710,9.5792,1.8531,0.2346,-0.0389,0.0277,-0.0123,-54.0000,31.0500,44.8500,9.6223,1.3934,0.6345,-0.0597,-0.0336,0.0000,-50.5500,13.5000,3.0000,3.0600,4.2200,-8.3800,-0.0131,0.0011,0.0033,-25.0625,-26.6875,21.1875,227.5000,17.8750,-153.3750,0
189.719,9.4619,1.8459,0.2131,-0.0346,0.0234,-0.0061,-54.0000,30.3000,45.1500,9.5888,1.3360,0.6369,-0.0440,-0.0312,-0.0061,-52.9500,12.3000,3.0000,3.0700,4.2200,-8.4000,-0.0164,0.0022,0.0044,-25.0625,-26.6875,21.1875,227.5000,17.8750,-153.3750,0
189.723,9.4619,1.8459,0.2131,-0.0346,0.0234,-0.0061,-53.5500,30.1500,43.9500,9.6391,1.3216,0.6249,-0.0360,-0.0352,0.0005,-52.9500,12.3000,3.0000,3.0700,4.2200,-8.4000,-0.0164,0.0022,0.0044,-25.0625,-26.6875,21.1875,227.5000,17.8750,-153.3125,0
189.730,9.4786,1.9297,0.0622,-0.0312,0.0197,-0.0064,-53.5500,30.1500,43.9500,9.6391,1.3216,0.6249,-0.0360,-0.0352,0.0005,-52.3500,13.2000,3.3000,3.0400,4.2200,-8.3800,-0.0131,0.0000,0.0033,-25.0625,-26.6875,21.1875,227.5000,17.8750,-153.3125,0
189.740,9.6007,2.0231,0.0934,-0.0149,0.0165,-0.0043,-53.8500,29.4000,45.3000,9.6247,1.2713,0.6201,-0.0282,-0.0312,-0.0008,-51.7500,12.6000,4.5000,3.0400,4.2200,-8.3700,-0.0131,-0.0011,0.0022,-25.0625,-26.6875,21.1875,227.5000,17.8750,-153.3125,0
189.745,9.6007,2.0231,0.0934,-0.0149,0.0165,-0.0043,-53.1000,31.2000,45.3000,9.6319,1.2378,0.5746,-0.0349,-0.0306,-0.0027,-51.7500,12.6000,4.5000,3.0400,4.2200,-8.3700,-0.0164,0.0022,0.0033,-24.0625,-26.6875,20.3750,227.5000,17.8750,-153.3125,0
189.751,9.5864,1.9752,0.0383,-0.0085,0.0165,-0.0101,-53.1000,31.2000,45.3000,9.6319,1.2378,0.5746,-0.0349,-0.0306,-0.0027,-51.7500,12.6000,4.5000,3.0500,4.2300,-8.3900,-0.0164,0.0022,0.0033,-24.0625,-26.6875,20.3750,227.5000,17.8750,-153.3125,0
189.760,9.6319,1.9848,0.1173,0.0040,0.0245,-0.0037,-54.6000,31.2000,46.3500,9.5864,1.3288,0.5770,-0.0370,-0.0304,0.0021,-51.9000,13.2000,3.3000,3.0400,4.2300,-8.3800,-0.0175,0.0033,0.0044,-24.0625,-26.6875,20.3750,227.5000,17.8750,-153.3125,0
189.770,9.6319,2.0063,0.0551,-0.0024,0.0282,-0.0099,-54.6000,31.2000,46.3500,9.7133,1.2761,0.6033,-0.0368,-0.0322,-0.0013,-51.9000,13.2000,3.3000,3.0400,4.2500,-8.4000,-0.0153,0.0022,0.0033,-24.0625,-26.6875,20.3750,227.5000,17.8750,-153.3125,0
189.778,9.5624,2.0327,0.1149,-0.0155,0.0301,-0.0096,-54.3000,28.6500,44.2500,9.6103,1.2761,0.6345,-0.0376,-0.0312,0.0000,-52.3500,15.1500,4.0500,3.0500,4.2300,-8.3900,-0.0185,0.0011,0.0011,-24.0625,-26.6875,20.3750,227.5000,17.8750,-153.3125,0
189.783,9.5624,2.0327,0.1149,-0.0155,0.0301,-0.0096,-54.9000,30.9000,44.2500,9.6175,1.3024,0.6225,-0.0392,-0.0301,0.0024,-52.3500,15.1500,4.0500,3.0500,4.2300,-8.3900,-0.0185,0.0011,0.0011,-24.0625,-26.6875,20.3750,227.5000,17.8750,-153.3125,0
189.791,9.5577,1.9656,0.0814,-0.0218,0.0370,-0.0096,-54.9000,30.9000,44.2500,9.6127,1.3144,0.6488,-0.0501,-0.0312,0.0005,-52.3500,12.9000,3.6000,3.0500,4.2200,-8.4100,-0.0164,0.0022,0.0044,-24.0625,-26.6875,20.3750,227.5000,17.8750,-153.3125,0
189.795,9.5577,1.9656,0.0814,-0.0306,0.0320,-0.0043,-53.4000,31.5000,46.2000,9.6127,1.3144,0.6488,-0.0501,-0.0312,0.0005,-52.3500,12.9000,3.6000,3.0500,4.2200,-8.4100,-0.0218,0.0011,0.0033,-25.0625,-27.5000,21.1875,227.5000,17.8750,-153.2500,0
189.801,9.5122,1.9800,0.1030,-0.0306,0.0320,-0.0043,-53.8500,30.9000,44.2500,9.6103,1.3815,0.6033,-0.0440,-0.0309,0.0037,-53.4000,13.2000,4.0500,3.0400,4.2600,-8.3800,-0.0218,0.0011,0.0033,-25.0625,-27.5000,21.1875,227.5000,17.8750,-153.2500,0
189.810,9.5409,1.9321,0.1748,-0.0386,0.0352,0.0008,-53.8500,30.9000,44.2500,9.6941,1.3910,0.6177,-0.0320,-0.0306,0.0080,-53.1000,12.9000,3.6000,3.0600,4.2300,-8.3700,-0.0164,0.0000,0.0033,-25.0625,-27.5000,21.1875,227.5000,17.8750,-153.2500,0
189.820,9.5984,1.9776,0.2131,-0.0410,0.0365,0.0011,-53.8500,30.9000,44.2500,9.6151,1.4126,0.5938,-0.0197,-0.0314,0.0093,-54.6000,13.9500,2.5500,3.0600,4.2600,-8.4200,-0.0207,0.0022,0.0055,-25.0625,-27.5000,21.1875,227.5000,17.8750,-153.2500,0
189.827,9.5648,2.0016,0.1484,-0.0352,0.0333,0.0000,-53.1000,29.4000,44.7000,9.6151,1.4126,0.5938,-0.0197,-0.0314,0.0093,-54.6000,13.9500,2.5500,3.0800,4.2500,-8.3800,-0.0185,0.0033,0.0044,-25.0625,-27.5000,21.1875,227.5000,17.8750,-153.2500,0
189.832,9.5648,2.0016,0.1484,-0.0352,0.0333,0.0000,-54.4500,29.2500,46.6500,9.5672,1.3072,0.5794,-0.0168,-0.0293,0.0101,-51.9000,15.1500,4.3500,3.0800,4.2500,-8.3800,-0.0185,0.0033,0.0044,-25.0625,-27.5000,21.1875,227.5000,17.8750,-153.2500,0
189.840,9.5648,1.9848,0.1748,-0.0456,0.0304,0.0013,-54.0000,31.5000,45.6000,9.6175,1.2426,0.6009,-0.0107,-0.0357,0.0056,-51.9000,15.1500,4.3500,3.0800,4.2300,-8.3600,-0.0175,0.0000,0.0033,-25.0625,-27.5000,21.1875,227.5000,17.8750,-153.2500,0
189.845,9.5241,1.9656,0.1915,-0.0368,0.0248,0.0056,-54.0000,31.5000,45.6000,9.6175,1.2426,0.6009,-0.0107,-0.0357,0.0056,-51.9000,15.1500,4.3500,3.0800,4.2300,-8.3600,-0.0175,0.0044,0.0011,-25.0625,-26.6875,20.3750,227.5000,17.8750,-153.2500,0
189.851,9.5241,1.9656,0.1915,-0.0368,0.0248,0.0056,-53.5500,30.1500,43.5000,9.6271,1.2833,0.5315,-0.0442,-0.0320,0.0075,-53.7000,13.5000,3.4500,3.0500,4.2300,-8.3700,-0.0175,0.0044,0.0011,-25.0625,-26.6875,20.3750,227.5000,17.8750,-153.1875,0
189.860,9.5409,1.9704,0.1365,-0.0205,0.0320,0.0000,-54.0000,30.7500,43.8000,9.6127,1.2426,0.5171,-0.0541,-0.0314,0.0144,-52.5000,13.0500,3.4500,3.0300,4.2300,-8.3600,-0.0164,0.0011,0.0011,-25.0625,-26.6875,20.3750,227.5000,17.8750,-153.1875,0
189.870,9.5193,1.9728,0.1077,-0.0221,0.0274,-0.0005,-54.0000,30.7500,43.8000,9.5912,1.2737,0.5004,-0.0594,-0.0322,0.0045,-52.6500,12.4500,2.5500,3.0400,4.2400,-8.3900,-0.0153,0.0055,0.0033,-25.0625,-26.6875,20.3750,227.5000,17.8750,-153.1875,0
189.876,9.5600,1.9225,0.0622,-0.0200,0.0282,-0.0021,-54.0000,30.7500,43.8000,9.6151,1.3719,0.4238,-0.0594,-0.0322,0.0045,-52.6500,12.4500,2.5500,3.0700,4.2200,-8.3700,-0.0175,0.0076,0.0022,-25.0625,-26.6875,20.3750,227.5000,17.8750,-153.1875,0
189.881,9.5600,1.9225,0.0622,-0.0200,0.0282,-0.0021,-53.4000,29.2500,44.8500,9.6151,1.3719,0.4238,-0.0650,-0.0301,0.0075,-52.2000,13.0500,3.4500,3.0700,4.2200,-8.3700,-0.0175,0.0076,0.0022,-25.0625,-26.6875,20.3750,227.5000,17.8750,-153.1875,0
189.890,9.5600,1.9848,0.0024,-0.0226,0.0269,-0.0064,-54.4500,30.7500,45.6000,9.5960,1.3336,0.5171,-0.0488,-0.0290,0.0056,-52.3500,13.2000,2.8500,3.0700,4.2300,-8.3700,-0.0142,0.0022,0.0022,-25.0625,-26.6875,20.3750,227.5000,17.8750,-153.1875,0
189.895,9.5744,1.9393,0.0527,-0.0224,0.0261,-0.0099,-54.4500,30.7500,45.6000,9.6103,1.2761,0.5602,-0.0488,-0.0290,0.0056,-52.3500,13.2000,2.8500,3.0700,4.2300,-8.3700,-0.0153,0.0022,0.0011,-24.6875,-26.6875,19.1875,227.5000,17.8750,-153.1875,0
189.901,9.5744,1.9393,0.0527,-0.0224,0.0261,-0.0099,-54.7500,30.3000,46.2000,9.6103,1.2761,0.5602,-0.0312,-0.0336,0.0104,-52.6500,12.9000,2.5500,3.0300,4.2300,-8.3700,-0.0153,0.0022,0.0011,-24.6875,-26.6875,19.1875,227.5000,17.8750,-153.1875,0
189.910,9.6319,1.9106,0.0407,-0.0173,0.0282,-0.0085,-54.0000,30.3000,44.1000,9.6199,1.3216,0.5195,-0.0264,-0.0317,0.0104,-52.6500,12.9000,2.5500,3.0500,4.2000,-8.3600,-0.0175,0.0022,0.0033,-24.6875,-26.6875,19.1875,227.5000,17.8750,-153.1875,0
189.919,9.5241,1.9345,0.0479,-0.0187,0.0234,-0.0037,-54.0000,30.3000,44.1000,9.6223,1.2761,0.4645,-0.0184,-0.0304,0.0051,-50.8500,13.6500,4.3500,3.0400,4.2300,-8.3900,-0.0131,0.0044,0.0000,-24.6875,-26.6875,19.1875,227.5000,17.8750,-153.1875,0
189.925,9.5217,1.8723,0.0646,-0.0197,0.0293,-0.0125,-54.0000,30.3000,44.1000,9.6654,1.1923,0.5626,-0.0184,-0.0304,0.0051,-50.8500,13.6500,4.3500,3.0400,4.2300,-8.3900,-0.0153,0.0055,0.0011,-24.6875,-26.6875,19.1875,227.5000,17.8750,-153.1250,0
189.931,9.6367,1.8435,0.1197,-0.0221,0.0322,-0.0085,-54.0000,30.3000,45.1500,9.6654,1.1923,0.5626,-0.0248,-0.0280,0.0040,-50.8500,13.6500,4.3500,3.0500,4.2100,-8.3700,-0.0153,0.0055,0.0011,-24.6875,-26.6875,19.1875,227.5000,17.8750,-153.1250,0
189.941,9.6295,1.8052,0.0503,-0.0237,0.0280,-0.0115,-53.5500,30.9000,45.7500,9.6391,1.2186,0.5076,-0.0389,-0.0349,0.0051,-52.5000,12.3000,3.7500,3.0600,4.2000,-8.3600,-0.0153,0.0033,0.0022,-24.6875,-26.6875,19.1875,227.5000,17.8750,-153.1250,0
189.945,9.6295,1.8052,0.0503,-0.0237,0.0280,-0.0115,-53.5500,30.9000,45.7500,9.6127,1.2306,0.5674,-0.0474,-0.0280,0.0000,-52.5000,12.3000,3.7500,3.0600,4.2000,-8.3600,-0.0164,0.0033,0.0044,-24.3750,-26.6875,20.0000,227.5000,17.8750,-153.1250,0
189.951,9.5888,1.8603,0.0862,-0.0370,0.0189,-0.0141,-54.6000,28.9500,45.0000,9.6127,1.2306,0.5674,-0.0474,-0.0280,0.0000,-52.6500,13.9500,4.0500,3.0500,4.2000,-8.4100,-0.0164,0.0033,0.0044,-24.3750,-26.6875,20.0000,227.5000,17.8750,-153.1250,0
189.961,9.6822,1.7980,0.0934,-0.0442,0.0144,-0.0203,-55.5000,30.7500,45.1500,9.6486,1.2139,0.5100,-0.0573,-0.0304,-0.0029,-52.5000,12.3000,3.7500,3.0700,4.2300,-8.3700,-0.0164,0.0055,0.0033,-24.3750,-26.6875,20.0000,227.5000,17.8750,-153.1250,0
189.970,9.6367,1.7430,0.0886,-0.0477,0.0189,-0.0205,-53.1000,29.4000,45.7500,9.6175,1.2785,0.5555,-0.0538,-0.0290,-0.0021,-52.3500,14.4000,3.6000,3.0500,4.2500,-8.3700,-0.0196,0.0055,0.0033,-24.3750,-26.6875,20.0000,227.5000,17.8750,-153.1250,0
189.978,9.6367,1.7430,0.0886,-0.0477,0.0189,-0.0205,-53.1000,29.4000,45.7500,9.6271,1.2594,0.5124,-0.0394,-0.0304,-0.0024,-52.3500,14.4000,3.6000,3.0500,4.2000,-8.3700,-0.0185,0.0055,0.0033,-24.3750,-26.6875,20.0000,227.5000,17.8750,-153.1250,0
189.983,9.6558,1.7478,-0.0239,-0.0501,0.0168,-0.0179,-53.1000,29.4000,45.7500,9.6558,1.2977,0.5842,-0.0296,-0.0314,-0.0043,-52.2000,12.6000,4.2000,3.0500,4.2000,-8.3700,-0.0185,0.0055,0.0033,-24.3750,-26.6875,20.0000,227.5000,17.8750,-153.1250,0
189.991,9.6798,1.8292,0.0096,-0.0632,0.0123,-0.0274,-55.3500,30.1500,45.0000,9.6558,1.2977,0.5842,-0.0296,-0.0314,-0.0043,-51.7500,12.6000,2.7000,3.0600,4.2200,-8.3800,-0.0207,0.0033,0.0044,-24.3750,-26.6875,20.0000,227.5000,17.8750,-153.1250,0
189.996,9.6798,1.8292,0.0096,-0.0632,0.0123,-0.0274,-55.3500,30.1500,45.0000,9.6223,1.1732,0.6225,-0.0301,-0.0312,-0.0077,-51.7500,12.6000,2.7000,3.0600,4.2200,-8.3800,-0.0207,0.0033,0.0044,-24.3750,-26.6875,20.0000,227.5000,17.8750,-153.0625,0
190.001,9.5720,1.7166,0.0335,-0.0685,0.0147,-0.0266,-52.3500,30.4500,45.3000,9.6630,1.2186,0.5866,-0.0301,-0.0312,-0.0077,-51.7500,12.6000,2.7000,3.0700,4.2000,-8.3400,-0.0240,0.0055,0.0044,-24.0625,-26.6875,19.5625,227.5000,17.8750,-153.0625,0
190.006,9.5720,1.7166,0.0335,-0.0685,0.0147,-0.0266,-52.3500,30.4500,45.3000,9.6630,1.2186,0.5866,-0.0458,-0.0362,-0.0157,-51.7500,12.6000,2.7000,3.0700,4.2000,-8.3400,-0.0240,0.0055,0.0044,-24.0625,-26.6875,19.5625,227.5000,17.8750,-153.0625,0
190.011,9.6175,1.8052,0.0575,-0.0807,0.0144,-0.0258,-53.4000,31.5000,44.8500,9.6223,1.2330,0.5818,-0.0458,-0.0362,-0.0157,-52.9500,12.6000,5.7000,3.0700,4.1800,-8.3600,-0.0251,0.0065,0.0044,-24.0625,-26.6875,19.5625,227.5000,17.8750,-153.0625,0
190.016,9.6175,1.8052,0.0575,-0.0807,0.0144,-0.0258,-53.4000,31.5000,44.8500,9.6223,1.2330,0.5818,-0.0520,-0.0304,-0.0141,-52.9500,12.6000,5.7000,3.0700,4.1800,-8.3600,-0.0295,0.0065,0.0044,-24.0625,-26.6875,19.5625,227.5625,17.8750,-153.0625,0
190.021,9.5409,1.7573,0.0311,-0.0970,0.0115,-0.0211,-53.4000,30.0000,44.8500,9.6199,1.3024,0.5363,-0.0557,-0.0333,-0.0109,-51.7500,14.5500,5.7000,3.0700,4.2000,-8.3700,-0.0295,0.0065,0.0044,-24.0625,-26.6875,19.5625,227.5625,17.8750,-153.0625,0
190.031,9.5481,1.8411,0.1053,-0.1034,0.0147,-0.0184,-53.4000,30.0000,44.8500,9.6295,1.2977,0.4764,-0.0557,-0.0333,-0.0109,-51.7500,14.2500,3.7500,3.0800,4.2200,-8.4000,-0.0316,0.0098,0.0044,-24.0625,-26.6875,19.5625,227.5625,17.8750,-153.0625,0
190.041,9.5313,1.9561,0.1197,-0.1085,0.0123,-0.0187,-54.7500,31.0500,45.6000,9.5816,1.2785,0.4980,-0.0368,-0.0290,-0.0112,-50.8500,13.9500,2.8500,3.0600,4.2200,-8.3600,-0.0295,0.0033,0.0044,-24.0625,-26.6875,19.5625,227.5625,17.8750,-153.0000,0
190.045,9.5313,1.9561,0.1197,-0.1085,0.0123,-0.0187,-54.7500,31.0500,45.6000,9.5816,1.2785,0.4980,-0.0368,-0.0290,-0.0112,-50.8500,13.9500,2.8500,3.0600,4.2200,-8.3600,-0.0295,0.0033,0.0044,-24.0625,-26.6875,19.5625,227.5625,17.8750,-153.0000,0
190.050,9.5768,2.0806,0.0718,-0.1071,0.0136,-0.0168,-52.9500,28.8000,45.6000,9.6414,1.2953,0.4956,-0.0416,-0.0384,-0.0101,-52.2000,13.8000,3.4500,3.0600,4.2100,-8.3500,-0.0295,0.0044,0.0022,-25.0625,-27.0625,20.0000,227.5625,17.8750,-153.0000,0
190.055,9.5768,2.0806,0.0718,-0.1071,0.0136,-0.0168,-52.9500,28.8000,45.6000,9.6414,1.2953,0.4956,-0.0416,-0.0384,-0.0101,-52.2000,13.8000,3.4500,3.0600,4.2100,-8.3500,-0.0295,0.0044,0.0022,-25.0625,-27.0625,20.0000,227.5625,17.8750,-153.0000,0
190.060,9.5337,2.0782,0.1101,-0.1023,0.0117,-0.0163,-54.6000,28.6500,46.8000,9.6295,1.3695,0.4573,-0.0560,-0.0338,-0.0061,-52.3500,13.9500,3.4500,3.0500,4.2600,-8.3600,-0.0273,0.0055,0.0022,-25.0625,-27.0625,20.0000,227.5625,17.8750,-153.0000,0
190.065,9.5337,2.0782,0.1101,-0.1023,0.0117,-0.0163,-54.6000,28.6500,46.8000,9.6295,1.3695,0.4573,-0.0560,-0.0338,-0.0061,-52.3500,13.9500,4.8000,3.0500,4.2600,-8.3600,-0.0284,0.0055,0.0033,-25.0625,-27.0625,20.0000,227.5625,17.8750,-153.0000,0
190.071,9.4954,2.1715,0.1077,-0.0901,0.0139,-0.0141,-55.5000,29.5500,43.8000,9.6917,1.3120,0.4477,-0.0522,-0.0338,-0.0112,-52.3500,13.9500,4.8000,3.0600,4.2300,-8.3600,-0.0284,0.0055,0.0033,-25.0625,-27.0625,20.0000,227.5625,17.8750,-152.9375,0
190.081,9.5768,2.2553,0.0934,-0.0885,0.0064,-0.0165,-54.6000,29.7000,45.0000,9.5696,1.3623,0.4310,-0.0573,-0.0234,-0.0109,-53.7000,14.2500,3.0000,3.0500,4.2300,-8.3700,-0.0251,0.0033,0.0044,-25.0625,-27.0625,20.0000,227.5625,17.8750,-152.9375,0
190.091,9.5337,2.2482,0.1149,-0.0855,0.0091,-0.0107,-54.6000,29.7000,45.0000,9.5385,1.3575,0.3735,-0.0597,-0.0197,-0.0128,-53.7000,14.2500,3.0000,3.0600,4.2600,-8.3500,-0.0251,0.0044,0.0044,-25.0625,-27.0625,20.0000,227.5625,17.8750,-152.9375,0
190.095,9.4691,2.2386,0.1341,-0.0765,0.0061,-0.0176,-54.6000,29.7000,45.0000,9.5385,1.3575,0.3735,-0.0597,-0.0197,-0.0128,-53.7000,14.2500,3.0000,3.0600,4.2600,-8.3500,-0.0251,0.0044,0.0044,-25.0625,-27.0625,20.0000,227.5625,17.8750,-152.9375,0
190.100,9.4691,2.2386,0.1341,-0.0765,0.0061,-0.0176,-52.8000,32.4000,45.3000,9.5816,1.3599,0.3519,-0.0578,-0.0232,-0.0083,-53.7000,14.2500,3.0000,3.0700,4.2600,-8.3500,-0.0251,0.0044,0.0022,-25.0625,-26.6875,20.3750,227.5625,17.8750,-152.9375,0
190.105,9.4619,2.3248,0.1197,-0.0621,0.0149,-0.0221,-52.8000,32.4000,45.3000,9.5816,1.3599,0.3519,-0.0578,-0.0232,-0.0083,-51.6000,14.4000,3.3000,3.0700,4.2600,-8.3500,-0.0251,0.0044,0.0022,-25.0625,-26.6875,20.3750,227.5625,17.8750,-152.9375,0
190.110,9.4619,2.3248,0.1197,-0.0621,0.0149,-0.0221,-53.8500,29.4000,45.0000,9.5672,1.3575,0.3328,-0.0293,-0.0179,-0.0109,-51.6000,14.4000,3.3000,3.0700,4.2800,-8.3100,-0.0229,0.0055,0.0033,-25.0625,-26.6875,20.3750,227.5625,17.8750,-152.9375,0
190.116,9.5002,2.2841,0.0599,-0.0376,0.0221,-0.0250,-53.8500,29.7000,44.2500,9.5672,1.3575,0.3328,-0.0293,-0.0179,-0.0109,-51.7500,14.2500,4.5000,3.0700,4.2800,-8.3100,-0.0218,0.0055,0.0022,-25.0625,-26.6875,20.3750,227.5625,17.8750,-152.8750,0
190.122,9.5002,2.2841,0.0599,-0.0376,0.0221,-0.0250,-53.8500,29.7000,44.2500,9.5624,1.3072,0.4142,-0.0296,-0.0128,-0.0136,-54.0000,13.0500,3.7500,3.0700,4.2700,-8.3300,-0.0218,0.0055,0.0022,-25.0625,-26.6875,20.3750,227.5625,17.8750,-152.8750,0
190.131,9.5337,2.1907,0.0072,-0.0128,0.0195,-0.0314,-55.8000,29.2500,46.2000,9.6367,1.2785,0.3903,-0.0261,-0.0075,-0.0136,-54.0000,13.0500,3.7500,3.0700,4.2600,-8.3500,-0.0196,0.0044,0.0033,-25.0625,-26.6875,20.3750,227.5625,17.8750,-152.8750,0
190.141,9.5074,2.1261,0.0311,0.0160,0.0216,-0.0306,-55.8000,29.2500,46.2000,9.5672,1.3240,0.3783,-0.0195,-0.0005,-0.0136,-52.3500,12.4500,3.4500,3.0700,4.2600,-8.3300,-0.0164,0.0044,0.0044,-25.0625,-26.6875,20.3750,227.5625,17.8750,-152.8750,0
190.146,9.5122,2.0997,0.0096,0.0338,0.0264,-0.0301,-53.8500,30.9000,45.0000,9.5936,1.3695,0.3974,-0.0195,-0.0005,-0.0136,-52.3500,12.4500,4.3500,3.0700,4.2600,-8.3300,-0.0164,0.0022,0.0033,-25.0625,-27.0625,20.3750,227.5625,17.8750,-152.8750,0
190.152,9.5122,2.0997,0.0096,0.0338,0.0264,-0.0301,-53.8500,30.9000,45.0000,9.5936,1.3695,0.3974,-0.0277,0.0040,-0.0141,-52.3500,13.2000,3.6000,3.0900,4.2600,-8.3500,-0.0164,0.0022,0.0033,-25.0625,-27.0625,20.3750,227.5625,17.8750,-152.8750,0
190.161,9.4355,2.0351,0.0096,0.0394,0.0322,-0.0248,-53.8500,29.7000,43.9500,9.5936,1.4485,0.4621,-0.0192,0.0056,-0.0139,-52.3500,13.2000,3.6000,3.0700,4.2600,-8.3300,-0.0142,0.0065,0.0011,-25.0625,-27.0625,20.3750,227.5625,17.8750,-152.8750,0
190.171,9.4475,2.0135,-0.0239,0.0501,0.0421,-0.0226,-53.7000,30.0000,45.6000,9.5936,1.4150,0.4405,0.0043,0.0077,-0.0117,-52.3500,13.2000,3.6000,3.0800,4.2700,-8.3700,-0.0109,0.0033,0.0000,-25.0625,-27.0625,20.3750,227.5625,17.8750,-152.8750,0
190.179,9.5098,2.0686,0.0072,0.0490,0.0437,-0.0218,-54.9000,29.4000,46.8000,9.6055,1.4485,0.4501,0.0157,0.0048,-0.0147,-52.6500,14.4000,2.1000,3.0700,4.2800,-8.3400,-0.0076,0.0044,0.0011,-25.0625,-27.0625,20.3750,227.5625,17.8750,-152.8750,0
190.183,9.4691,2.0806,-0.0479,0.0429,0.0458,-0.0205,-54.9000,29.4000,46.8000,9.6055,1.4485,0.4501,0.0157,0.0048,-0.0147,-52.6500,14.4000,2.1000,3.0700,4.2800,-8.3400,-0.0076,0.0044,0.0011,-25.0625,-27.0625,20.3750,227.5625,17.8750,-152.8750,0
190.192,9.4691,2.0806,-0.0479,0.0429,0.0458,-0.0205,-54.0000,30.7500,44.1000,9.6414,1.3240,0.4980,0.0141,0.0093,-0.0101,-52.3500,13.9500,3.6000,3.0600,4.2800,-8.3400,-0.0055,0.0022,0.0000,-25.0625,-27.0625,20.3750,227.5625,17.8750,-152.8750,0
190.196,9.5409,2.0542,-0.0287,0.0389,0.0498,-0.0200,-54.0000,30.7500,44.1000,9.6414,1.2546,0.4860,0.0125,0.0112,-0.0120,-52.3500,13.9500,3.6000,3.0600,4.2800,-8.3400,-0.0044,0.0033,-0.0022,-25.0625,-26.6875,20.3750,227.5625,17.8750,-152.8750,0
190.202,9.4954,2.1069,-0.0479,0.0410,0.0498,-0.0203,-54.0000,30.7500,44.1000,9.6414,1.2546,0.4860,0.0125,0.0112,-0.0120,-52.2000,13.9500,3.6000,3.0600,4.2700,-8.3200,-0.0044,0.0033,-0.0022,-25.0625,-26.6875,20.3750,227.5625,17.8750,-152.8750,0
190.211,9.4954,2.1069,-0.0479,0.0352,0.0560,-0.0237,-54.6000,28.9500,45.0000,9.5960,1.2426,0.4573,-0.0051,0.0109,-0.0131,-52.2000,12.6000,4.9500,3.0400,4.2600,-8.3100,-0.0044,0.0022,-0.0044,-25.0625,-26.6875,20.3750,227.5625,17.8750,-152.8750,0
190.221,9.5433,2.0063,-0.0024,0.0352,0.0560,-0.0237,-53.7000,31.0500,45.1500,9.6319,1.2641,0.4788,-0.0176,0.0115,-0.0173,-51.7500,14.5500,3.7500,3.0700,4.2500,-8.3600,-0.0055,0.0033,-0.0011,-25.0625,-26.6875,20.3750,227.5625,17.8750,-152.8750,0
190.228,9.5050,1.9728,-0.0287,0.0469,0.0589,-0.0163,-54.4500,29.5500,46.2000,9.6271,1.3001,0.4597,-0.0192,0.0189,-0.0136,-51.7500,13.5000,4.2000,3.0700,4.2600,-8.3900,-0.0055,0.0044,-0.0011,-25.0625,-26.6875,20.3750,227.5625,17.8750,-152.8750,0
190.233,9.5074,1.9752,-0.0551,0.0757,0.0642,-0.0211,-54.4500,29.5500,46.2000,9.6103,1.3503,0.5076,-0.0120,0.0179,-0.0096,-52.6500,13.6500,4.0500,3.0700,4.2600,-8.3900,-0.0055,0.0044,-0.0011,-25.0625,-26.6875,20.3750,227.5625,17.8750,-152.8750,0
190.241,9.5744,1.9513,-0.0335,0.0778,0.0616,-0.0195,-53.8500,30.1500,44.7000,9.5744,1.3647,0.4908,-0.0120,0.0179,-0.0096,-52.6500,13.6500,4.0500,3.0500,4.2600,-8.3600,-0.0076,0.0055,0.0000,-25.0625,-26.6875,20.3750,227.5625,17.8750,-152.8750,0
190.246,9.5744,1.9513,-0.0335,0.0778,0.0616,-0.0195,-53.8500,30.1500,44.7000,9.5744,1.3647,0.4908,0.0005,0.0203,-0.0173,-52.5000,14.2500,4.2000,3.0500,4.2600,-8.3600,-0.0098,0.0044,-0.0022,-24.6875,-27.5000,20.3750,227.5625,17.8750,-152.8750,0
190.252,9.5098,1.9920,-0.0886,0.0882,0.0544,-0.0152,-53.8500,30.1500,44.7000,9.5888,1.3431,0.4741,0.0216,0.0274,-0.0179,-52.5000,14.2500,4.2000,3.0600,4.2600,-8.3400,-0.0098,0.0044,-0.0022,-24.6875,-27.5000,20.3750,227.5625,17.8750,-152.8750,0
190.261,9.5624,2.0423,-0.0862,0.0919,0.0581,-0.0093,-53.8500,30.1500,44.7000,9.5960,1.2522,0.5004,0.0216,0.0274,-0.0179,-52.5000,14.2500,4.2000,3.0800,4.2600,-8.3300,-0.0098,0.0022,-0.0033,-24.6875,-27.5000,20.3750,227.5625,17.8750,-152.8750,0
190.271,9.5648,2.0375,0.0000,0.0949,0.0669,-0.0139,-54.6000,30.4500,46.0500,9.5840,1.2139,0.5770,0.0418,0.0203,-0.0200,-51.6000,13.6500,3.6000,3.0700,4.2700,-8.3900,-0.0098,0.0044,-0.0011,-24.6875,-27.5000,20.3750,227.5625,17.8750,-152.8750,0
190.279,9.5648,2.0375,0.0000,0.0949,0.0669,-0.0139,-55.5000,30.3000,45.1500,9.5840,1.2139,0.5770,0.0264,0.0203,-0.0272,-52.3500,13.9500,5.1000,3.0300,4.2700,-8.3600,-0.0087,0.0044,-0.0044,-24.6875,-27.5000,20.3750,227.5625,17.8750,-152.8750,0
190.284,9.6774,1.9728,-0.0694,0.0962,0.0663,-0.0088,-53.5500,30.1500,46.8000,9.6510,1.1325,0.5363,-0.0032,0.0224,-0.0250,-52.3500,13.2000,5.1000,3.0300,4.2700,-8.3600,-0.0087,0.0044,-0.0044,-24.6875,-27.5000,20.3750,227.5625,17.8750,-152.8750,0
190.292,9.6510,1.9297,-0.0144,0.0989,0.0687,-0.0056,-53.5500,30.1500,46.8000,9.6343,1.2570,0.6129,-0.0109,0.0245,-0.0253,-52.3500,13.2000,5.1000,3.0800,4.2200,-8.3600,-0.0131,0.0033,-0.0011,-24.6875,-27.5000,20.3750,227.5625,17.8750,-152.8750,0
190.297,9.6510,1.9297,-0.0144,0.0989,0.0687,-0.0056,-54.6000,28.9500,43.9500,9.6343,1.2570,0.6129,-0.0109,0.0245,-0.0253,-52.6500,12.9000,4.0500,3.0800,4.2200,-8.3600,-0.0131,0.0087,0.0000,-24.3750,-27.5000,20.3750,227.5625,17.8750,-152.8125,0
190.302,9.5720,1.9776,0.0287,0.0887,0.0605,-0.0085,-54.6000,28.9500,43.9500,9.5553,1.3886,0.5171,-0.0336,0.0208,-0.0338,-52.6500,12.9000,4.0500,3.0700,4.2600,-8.3500,-0.0131,0.0087,0.0000,-24.3750,-27.5000,20.3750,227.5625,17.8750,-152.8125,0
190.311,9.4930,1.9465,0.0670,0.0807,0.0632,-0.0083,-54.6000,28.9500,43.9500,9.6127,1.3910,0.4884,-0.0211,0.0288,-0.0362,-51.7500,13.8000,2.7000,3.0700,4.2500,-8.3300,-0.0185,0.0087,-0.0011,-24.3750,-27.5000,20.3750,227.5625,17.8750,-152.8125,0
190.321,9.5122,1.9824,0.0694,0.0786,0.0608,-0.0085,-53.5500,31.6500,44.7000,9.6079,1.3551,0.5339,0.0011,0.0242,-0.0312,-51.3000,13.5000,3.7500,3.0900,4.2300,-8.3800,-0.0218,0.0033,0.0011,-24.3750,-27.5000,20.3750,227.5625,17.8750,-152.8125,0
190.327,9.5122,1.9824,0.0694,0.0786,0.0608,-0.0085,-54.7500,31.5000,46.2000,9.6079,1.3551,0.5339,0.0011,0.0242,-0.0312,-51.3000,13.5000,3.7500,3.0900,4.2300,-8.3800,-0.0207,0.0065,0.0000,-24.3750,-27.5000,20.3750,227.5625,17.8750,-152.8125,0
190.332,9.5337,2.0327,0.0838,0.0842,0.0645,-0.0125,-53.7000,31.0500,43.8000,9.5984,1.3527,0.4094,0.0144,0.0250,-0.0349,-51.3000,13.5000,3.7500,3.0800,4.2700,-8.3400,-0.0207,0.0065,0.0000,-24.3750,-27.5000,20.3750,227.5625,17.8750,-152.8125,0
190.342,9.5864,2.0662,0.0407,0.0927,0.0581,-0.0112,-54.7500,30.0000,43.8000,9.5744,1.3168,0.4453,0.0229,0.0261,-0.0360,-50.4000,14.8500,4.3500,3.0700,4.2500,-8.3300,-0.0240,0.0055,-0.0011,-24.3750,-27.5000,20.3750,227.5625,17.8750,-152.8125,0
190.346,9.5864,2.0662,0.0407,0.0927,0.0581,-0.0112,-54.7500,30.0000,44.8500,9.5744,1.3168,0.4453,0.0229,0.0261,-0.0360,-50.4000,14.8500,4.3500,3.0700,4.2500,-8.3300,-0.0240,0.0055,-0.0011,-24.3750,-27.5000,20.3750,227.5625,17.8750,-152.8125,0
190.351,9.5936,2.0183,0.0886,0.0999,0.0610,-0.0237,-54.7500,30.0000,44.8500,9.6247,1.3120,0.5100,0.0261,0.0293,-0.0349,-50.4000,14.8500,4.3500,3.0300,4.2700,-8.3300,-0.0240,0.0076,-0.0022,-24.6875,-26.0000,19.5625,227.5625,17.8750,-152.8125,0
190.356,9.5936,2.0183,0.0886,0.0954,0.0544,-0.0293,-54.7500,30.0000,44.8500,9.6247,1.3120,0.5100,0.0261,0.0293,-0.0349,-52.5000,12.6000,3.7500,3.0300,4.2700,-8.3300,-0.0240,0.0076,-0.0022,-24.6875,-26.0000,19.5625,227.5625,17.8750,-152.8125,0
190.361,9.6055,1.9609,0.1460,0.0954,0.0544,-0.0293,-54.7500,30.0000,44.8500,9.5768,1.3886,0.5315,0.0211,0.0298,-0.0373,-52.5000,12.6000,3.7500,3.0900,4.2300,-8.3400,-0.0240,0.0087,-0.0011,-24.6875,-26.0000,19.5625,227.5625,17.8750,-152.7500,0
190.366,9.6654,1.9106,0.0934,0.0722,0.0461,-0.0410,-54.7500,30.0000,44.8500,9.6103,1.3168,0.4860,0.0211,0.0298,-0.0373,-52.2000,13.8000,4.2000,3.0900,4.2300,-8.3400,-0.0262,0.0142,-0.0011,-24.6875,-26.0000,19.5625,227.5625,17.8750,-152.7500,0
190.372,9.6654,1.9106,0.0934,0.0722,0.0461,-0.0410,-54.0000,30.3000,45.9000,9.6103,1.3168,0.4860,0.0048,0.0293,-0.0373,-52.2000,13.8000,4.2000,3.0800,4.2200,-8.3600,-0.0262,0.0142,-0.0011,-24.6875,-26.0000,19.5625,227.5625,17.8750,-152.7500,0
190.381,9.5984,1.8747,0.1077,0.0544,0.0458,-0.0384,-52.3500,30.1500,44.2500,9.5648,1.3096,0.4453,-0.0085,0.0290,-0.0432,-51.1500,12.9000,1.8000,3.0800,4.2600,-8.3500,-0.0229,0.0109,-0.0011,-24.6875,-26.0000,19.5625,227.5625,17.8750,-152.7500,0
190.391,9.5600,1.7933,0.0479,0.0360,0.0333,-0.0464,-53.7000,30.1500,44.2500,9.5744,1.3096,0.4525,-0.0248,0.0242,-0.0437,-52.2000,13.5000,4.9500,3.0900,4.2700,-8.3300,-0.0262,0.0109,-0.0022,-24.6875,-26.0000,19.5625,227.5625,17.9375,-152.7500,0
190.396,9.5744,1.8196,0.0622,0.0229,0.0261,-0.0432,-53.7000,30.7500,46.2000,9.6103,1.3384,0.4501,-0.0248,0.0242,-0.0437,-51.7500,13.0500,4.2000,3.0900,4.2700,-8.3300,-0.0262,0.0109,-0.0022,-24.6875,-26.0000,19.5625,227.5625,17.9375,-152.7500,0
190.400,9.5744,1.8196,0.0622,0.0229,0.0261,-0.0432,-53.7000,30.7500,46.2000,9.6103,1.3384,0.4501,-0.0338,0.0354,-0.0389,-51.7500,13.0500,4.2000,3.0800,4.2900,-8.3300,-0.0273,0.0087,0.0000,-24.6875,-26.6875,19.1875,227.5625,17.9375,-152.6875,0
190.405,9.5577,1.8723,0.0455,0.0013,0.0224,-0.0538,-53.5500,29.7000,46.0500,9.5744,1.2306,0.5195,-0.0338,0.0354,-0.0389,-51.7500,13.8000,3.0000,3.0800,4.2900,-8.3300,-0.0273,0.0087,0.0000,-24.6875,-26.6875,19.1875,227.5625,17.9375,-152.6875,0
190.410,9.5577,1.8723,0.0455,0.0013,0.0224,-0.0538,-53.5500,29.7000,46.0500,9.5744,1.2306,0.5195,-0.0149,0.0317,-0.0434,-51.7500,13.8000,3.0000,3.0800,4.2600,-8.3500,-0.0284,0.0087,-0.0011,-24.6875,-26.6875,19.1875,227.5625,17.9375,-152.6875,0
190.415,9.5672,1.8172,0.0862,-0.0112,0.0104,-0.0477,-53.5500,29.7000,46.0500,9.6103,1.2163,0.5722,-0.0184,0.0306,-0.0482,-51.7500,13.8000,3.0000,3.0800,4.2600,-8.3500,-0.0284,0.0087,-0.0011,-24.6875,-26.6875,19.1875,227.5625,17.9375,-152.6875,0
190.422,9.5672,1.8172,0.0862,-0.0112,0.0104,-0.0477,-54.0000,30.7500,44.8500,9.6103,1.2163,0.5722,-0.0184,0.0306,-0.0482,-51.7500,13.8000,3.0000,3.0600,4.2800,-8.3600,-0.0273,0.0076,0.0000,-24.6875,-26.6875,19.1875,227.5625,17.9375,-152.6875,0
190.432,9.5768,1.8747,0.0646,-0.0290,-0.0021,-0.0493,-53.7000,29.5500,45.1500,9.5600,1.0582,0.7446,-0.0088,0.0290,-0.0528,-51.6000,13.9500,3.6000,3.0800,4.2200,-8.3800,-0.0295,0.0065,-0.0022,-24.6875,-26.6875,19.1875,227.5625,17.9375,-152.6875,0
190.439,9.5241,1.8651,0.1484,-0.0533,-0.0011,-0.0477,-53.7000,29.5500,45.1500,9.6630,1.1564,0.8595,-0.0437,0.0250,-0.0608,-53.1000,12.9000,2.5500,3.0700,4.2300,-8.3000,-0.0305,0.0098,0.0022,-24.6875,-26.6875,19.1875,227.6250,17.9375,-152.6250,0
190.444,9.5193,1.9178,0.1341,-0.0525,0.0120,-0.0320,-54.3000,30.1500,43.9500,9.6869,1.4868,0.7638,-0.0898,0.0149,-0.0533,-51.3000,14.5500,4.2000,3.0700,4.2300,-8.3000,-0.0305,0.0098,0.0022,-24.6875,-26.6875,19.1875,227.6250,17.9375,-152.6250,0
190.449,9.5193,1.9178,0.1341,-0.0525,0.0120,-0.0320,-54.3000,30.1500,43.9500,9.6869,1.4868,0.7638,-0.0898,0.0149,-0.0533,-51.3000,14.5500,4.2000,3.0600,4.1800,-8.3400,-0.0338,0.0065,-0.0011,-24.3750,-26.6875,20.7500,227.6250,17.9375,-152.6250,0
190.454,9.6223,2.0997,0.1532,-0.0384,0.0184,-0.0051,-53.7000,32.2500,45.9000,9.6726,1.8890,0.7901,-0.0546,0.0133,-0.0472,-51.3000,14.5500,4.2000,3.0600,4.1800,-8.3400,-0.0338,0.0065,-0.0011,-24.3750,-26.6875,20.7500,227.6250,17.9375,-152.6250,0
190.459,9.6223,2.0997,0.1532,-0.0384,0.0184,-0.0051,-53.7000,32.2500,45.9000,9.6726,1.8890,0.7901,-0.0546,0.0133,-0.0472,-51.0000,13.0500,3.4500,3.0800,4.2000,-8.3700,-0.0382,0.0065,-0.0033,-24.3750,-26.6875,20.7500,227.6250,17.9375,-152.6250,0
190.464,9.5505,2.3008,0.1748,-0.0416,0.0141,0.0053,-54.0000,31.0500,44.4000,9.6103,2.0997,0.7925,0.0421,0.0144,-0.0482,-51.0000,13.0500,3.4500,3.0800,4.2000,-8.3700,-0.0382,0.0065,-0.0033,-24.3750,-26.6875,20.7500,227.6250,17.9375,-152.5625,0
190.472,9.5505,2.3008,0.1748,-0.0416,0.0141,0.0053,-54.0000,31.0500,44.4000,9.6103,2.0997,0.7925,0.0421,0.0144,-0.0482,-51.3000,15.4500,3.4500,3.0900,4.3500,-8.3200,-0.0425,0.0120,-0.0055,-24.3750,-26.6875,20.7500,227.6250,17.9375,-152.5625,0
190.481,9.5912,2.3679,0.2466,-0.0400,0.0083,0.0051,-53.4000,32.5500,44.8500,9.6175,1.9632,0.7254,0.0994,0.0061,-0.0480,-51.7500,14.2500,3.0000,3.0700,4.3900,-8.3100,-0.0447,0.0131,-0.0065,-24.3750,-26.6875,20.7500,227.6250,17.9375,-152.5625,0
190.488,9.5026,2.3703,0.2873,-0.0392,0.0234,-0.0027,-53.4000,32.5500,44.8500,9.6031,1.6137,0.6704,0.1199,0.0008,-0.0389,-51.7500,14.2500,3.0000,3.0900,4.4200,-8.2700,-0.0436,0.0109,-0.0055,-24.3750,-26.6875,20.7500,227.6250,17.9375,-152.5000,0
190.493,9.4236,2.3463,0.4549,-0.0466,0.0376,-0.0099,-52.2000,29.2500,45.6000,9.6103,1.2378,0.6129,0.0741,-0.0024,-0.0320,-51.7500,14.2500,3.0000,3.0900,4.4200,-8.2700,-0.0436,0.0109,-0.0055,-24.3750,-26.6875,20.7500,227.6250,17.9375,-152.5000,0
190.498,9.4236,2.3463,0.4549,-0.0466,0.0376,-0.0099,-52.2000,29.2500,45.6000,9.6103,1.2378,0.6129,0.0741,-0.0024,-0.0320,-52.6500,13.9500,4.0500,3.0900,4.3900,-8.2800,-0.0338,0.0076,-0.0065,-24.6875,-27.7500,20.3750,227.6250,17.9375,-152.5000,0
190.503,9.4212,2.2889,0.5243,-0.0442,0.0568,-0.0128,-52.6500,30.3000,44.1000,9.5217,1.1013,0.4693,-0.0234,-0.0040,-0.0312,-52.6500,13.9500,4.0500,3.0900,4.3900,-8.2800,-0.0338,0.0076,-0.0065,-24.6875,-27.7500,20.3750,227.6250,17.9375,-152.5000,0
190.508,9.4212,2.2889,0.5243,-0.0442,0.0568,-0.0128,-52.6500,30.3000,44.1000,9.5217,1.1013,0.4693,-0.0234,-0.0040,-0.0312,-52.6500,13.9500,4.0500,3.0900,4.3900,-8.2800,-0.0273,0.0065,-0.0076,-24.6875,-27.7500,20.3750,227.6250,17.9375,-152.5000,0
190.513,9.4739,2.2290,0.5171,-0.0048,0.0765,-0.0136,-55.2000,28.8000,45.1500,9.5936,1.2091,0.4717,-0.1050,-0.0024,-0.0248,-52.6500,13.9500,4.0500,3.0900,4.3600,-8.3100,-0.0273,0.0065,-0.0076,-24.6875,-27.7500,20.3750,227.6250,17.9375,-152.5000,0
190.517,9.4739,2.2290,0.5171,-0.0048,0.0765,-0.0136,-55.2000,28.8000,45.1500,9.5936,1.2091,0.4717,-0.1050,-0.0024,-0.0248,-52.2000,14.2500,3.0000,3.0900,4.3600,-8.3100,-0.0218,0.0065,-0.0044,-24.6875,-27.7500,20.3750,227.6250,17.9375,-152.5000,0
190.523,9.4595,2.1668,0.4717,0.0264,0.0789,-0.0163,-55.2000,28.8000,45.1500,9.6199,1.4581,0.3615,-0.1340,0.0005,-0.0245,-52.2000,14.2500,3.0000,3.0900,4.3200,-8.3300,-0.0218,0.0065,-0.0044,-24.6875,-27.7500,20.3750,227.6250,17.9375,-152.5000,0
190.532,9.5050,2.1213,0.3615,0.0605,0.0650,-0.0171,-54.0000,29.5500,43.3500,9.6007,1.7621,0.3352,-0.1116,0.0088,-0.0272,-51.9000,13.6500,2.5500,3.0700,4.3400,-8.3400,-0.0207,0.0022,-0.0033,-24.6875,-27.7500,20.3750,227.6250,17.9375,-152.5000,0
190.542,9.4715,2.1117,0.1580,0.0722,0.0434,-0.0203,-52.9500,30.3000,45.6000,9.4906,1.8531,0.3208,-0.0360,0.0109,-0.0317,-52.2000,13.5000,3.7500,3.0600,4.3500,-8.3100,-0.0185,0.0011,-0.0044,-24.6875,-27.7500,20.3750,227.6250,17.9375,-152.4375,0
190.546,9.4715,2.1117,0.1580,0.0722,0.0434,-0.0203,-52.9500,30.3000,45.6000,9.4906,1.8531,0.3208,-0.0360,0.0109,-0.0317,-51.0000,14.2500,4.2000,3.0600,4.3500,-8.3100,-0.0175,0.0000,-0.0044,-24.3750,-26.6875,20.3750,227.6250,17.9375,-152.4375,0
190.553,9.4882,2.1668,0.0646,0.0727,0.0290,-0.0221,-54.7500,32.5500,46.6500,9.4763,1.6927,0.3352,0.0384,0.0160,-0.0376,-51.0000,14.2500,4.2000,3.0800,4.3600,-8.3000,-0.0175,0.0000,-0.0044,-24.3750,-26.6875,20.3750,227.6250,17.9375,-152.4375,0
190.562,9.5122,2.1284,-0.0431,0.0743,0.0141,-0.0272,-54.6000,30.4500,45.0000,9.6103,1.3623,0.4094,0.0887,0.0242,-0.0336,-51.9000,15.6000,3.6000,3.1000,4.3700,-8.3000,-0.0131,0.0022,-0.0033,-24.3750,-26.6875,20.3750,227.6250,17.9375,-152.4375,0
190.572,9.4715,2.1237,-0.1053,0.0834,0.0123,-0.0293,-54.0000,30.0000,46.9500,9.5409,1.3216,0.5842,0.0578,0.0165,-0.0336,-50.2500,15.0000,3.0000,3.0700,4.3400,-8.3100,-0.0087,0.0000,-0.0033,-24.3750,-26.6875,20.3750,227.6250,17.9375,-152.4375,0
190.580,9.4858,1.9752,-0.1173,0.0978,0.0218,-0.0333,-54.0000,30.0000,46.9500,9.5624,1.3360,0.4741,-0.0144,0.0181,-0.0354,-50.2500,15.0000,3.0000,3.0700,4.3400,-8.3200,-0.0033,0.0000,-0.0055,-24.3750,-26.6875,20.3750,227.6250,17.9375,-152.4375,0
190.585,9.4858,1.9752,-0.1173,0.0978,0.0218,-0.0333,-54.0000,30.0000,46.9500,9.5624,1.3360,0.4741,-0.0144,0.0181,-0.0354,-51.1500,15.0000,3.0000,3.0700,4.3400,-8.3200,-0.0033,0.0000,-0.0055,-24.3750,-26.6875,20.3750,227.6250,17.9375,-152.4375,0
190.593,9.5241,1.9800,-0.1413,0.0957,0.0312,-0.0352,-54.3000,30.1500,45.7500,9.5864,1.5730,0.5267,-0.0410,0.0314,-0.0325,-51.1500,13.6500,4.0500,3.0700,4.3200,-8.3600,-0.0011,-0.0055,-0.0044,-24.3750,-26.6875,20.3750,227.6250,17.9375,-152.4375,0
190.597,9.5241,1.9800,-0.1413,0.0957,0.0312,-0.0352,-53.8500,30.1500,45.7500,9.5936,1.8028,0.6249,-0.0120,0.0285,-0.0354,-51.1500,13.6500,4.0500,3.0500,4.4200,-8.3100,0.0022,-0.0065,-0.0033,-24.6875,-27.0625,19.5625,227.6250,17.9375,-152.4375,0
190.603,9.5505,1.9345,-0.0790,0.0879,0.0448,-0.0280,-53.8500,30.9000,44.7000,9.5936,1.8028,0.6249,-0.0120,0.0285,-0.0354,-51.1500,13.6500,4.0500,3.0500,4.4200,-8.3100,0.0022,-0.0065,-0.0033,-24.6875,-27.0625,19.5625,227.6250,17.9375,-152.4375,0
190.612,9.6247,2.0614,-0.0263,0.0791,0.0533,-0.0285,-53.1000,30.9000,44.2500,9.5960,1.8052,0.5674,0.0224,0.0322,-0.0354,-51.9000,15.1500,3.6000,3.0700,4.3800,-8.3000,0.0044,-0.0065,-0.0065,-24.6875,-27.0625,19.5625,227.6250,17.9375,-152.4375,0
190.622,9.4906,2.1213,0.0024,0.0719,0.0711,-0.0381,-54.0000,29.5500,46.9500,9.6151,1.5251,0.6776,0.0749,0.0253,-0.0376,-51.7500,13.8000,3.0000,3.0900,4.4300,-8.3300,0.0076,-0.0044,-0.0065,-24.6875,-27.0625,19.5625,227.6250,17.9375,-152.4375,0
190.631,9.6175,2.0638,0.1484,0.0634,0.0802,-0.0410,-54.0000,29.5500,46.9500,9.5984,1.4006,0.7685,0.0637,0.0250,-0.0306,-51.1500,12.9000,2.8500,3.0900,4.4200,-8.2900,0.0076,-0.0120,-0.0044,-24.6875,-27.0625,19.5625,227.6250,17.9375,-152.4375,0
190.636,9.6175,2.0638,0.1484,0.0634,0.0802,-0.0410,-54.0000,29.5500,46.9500,9.6414,1.3168,0.7661,0.0203,0.0179,-0.0266,-51.9000,13.6500,4.0500,3.0900,4.4200,-8.2900,0.0120,-0.0098,-0.0044,-24.6875,-27.0625,19.5625,227.6250,17.9375,-152.4375,0
190.643,9.6007,2.0111,0.3089,0.0634,0.0805,-0.0370,-53.4000,29.2500,46.6500,9.6414,1.3168,0.7661,0.0203,0.0179,-0.0266,-51.9000,13.6500,4.0500,3.0400,4.3600,-8.3500,0.0120,-0.0098,-0.0044,-24.6875,-27.0625,19.5625,227.6250,17.9375,-152.4375,0
190.648,9.5600,1.8914,0.4190,0.0682,0.0735,-0.0346,-53.7000,32.2500,46.2000,9.5840,1.4892,0.7422,-0.0144,0.0131,-0.0261,-51.9000,13.6500,4.0500,3.0400,4.3600,-8.3500,0.0131,-0.0087,0.0000,-25.0625,-27.7500,20.3750,227.6250,17.9375,-152.4375,0
190.653,9.5600,1.8914,0.4190,0.0682,0.0735,-0.0346,-53.7000,32.2500,46.2000,9.5840,1.4892,0.7422,-0.0144,0.0131,-0.0261,-51.9000,13.6500,4.0500,3.0600,4.3800,-8.3300,0.0131,-0.0087,0.0000,-25.0625,-27.7500,20.3750,227.6250,17.9375,-152.4375,0
190.662,9.5409,1.8364,0.4908,0.0578,0.0600,-0.0272,-55.2000,30.7500,46.2000,9.6391,1.7478,0.6871,-0.0080,0.0109,-0.0298,-51.9000,13.2000,4.0500,3.0600,4.3700,-8.3600,0.0098,-0.0065,-0.0011,-25.0625,-27.7500,20.3750,227.6250,17.9375,-152.4375,0
190.672,9.6127,1.8483,0.4932,0.0536,0.0605,-0.0248,-54.4500,31.0500,46.6500,9.6295,1.8268,0.7757,0.0234,0.0061,-0.0322,-51.9000,13.2000,4.0500,3.0600,4.4400,-8.3400,0.0087,-0.0055,-0.0044,-25.0625,-27.7500,20.3750,227.6250,17.9375,-152.4375,0
190.680,9.5792,1.8986,0.5674,0.0240,0.0386,-0.0192,-54.0000,29.5500,47.2500,9.6127,1.6855,0.8212,0.0648,-0.0021,-0.0216,-52.2000,13.8000,2.4000,3.0800,4.4400,-8.3300,0.0033,-0.0033,-0.0044,-25.0625,-27.7500,20.3750,227.6250,17.9375,-152.4375,0
190.685,9.5792,1.8986,0.5674,0.0240,0.0386,-0.0192,-54.0000,29.5500,47.2500,9.6367,1.5083,0.9002,0.0600,-0.0171,-0.0218,-52.2000,13.8000,2.4000,3.0800,4.4400,-8.3300,0.0033,-0.0033,-0.0044,-25.0625,-27.7500,20.3750,227.6250,17.9375,-152.4375,0
190.693,9.5289,1.7813,0.6393,0.0021,0.0245,-0.0184,-54.0000,29.5500,47.2500,9.6654,1.3168,1.1085,0.0600,-0.0171,-0.0218,-51.6000,14.4000,4.0500,3.0500,4.4600,-8.3400,0.0055,-0.0055,-0.0033,-25.0625,-27.7500,20.3750,227.6250,17.9375,-152.4375,0
190.698,9.6558,1.8244,0.6632,-0.0346,0.0200,-0.0072,-54.3000,31.2000,46.3500,9.6654,1.3168,1.1085,0.0165,-0.0248,-0.0168,-52.2000,14.5500,3.0000,3.0500,4.4600,-8.3400,0.0022,-0.0055,-0.0044,-24.6875,-27.5000,21.1875,227.6250,17.9375,-152.4375,0
190.703,9.6558,1.8244,0.6632,-0.0346,0.0200,-0.0072,-54.3000,31.2000,46.3500,9.7157,1.4102,0.9984,0.0165,-0.0248,-0.0168,-52.2000,14.5500,3.0000,3.0300,4.4000,-8.3300,0.0022,-0.0055,-0.0044,-24.6875,-27.5000,21.1875,227.6250,17.9375,-152.4375,0
190.712,9.5600,1.7669,0.7087,-0.0314,0.0213,0.0011,-53.1000,30.4500,46.0500,9.7229,1.6305,0.9744,-0.0735,-0.0336,-0.0144,-51.3000,15.0000,3.4500,3.0600,4.4000,-8.3800,-0.0033,-0.0055,-0.0011,-24.6875,-27.5000,21.1875,227.6250,17.9375,-152.4375,0
190.722,9.4978,1.8172,0.7446,-0.0125,0.0456,0.0085,-52.9500,31.0500,45.1500,9.6893,1.7382,1.0654,-0.1037,-0.0442,-0.0096,-51.3000,15.4500,3.7500,3.0700,4.4200,-8.4000,-0.0109,-0.0022,0.0000,-24.6875,-27.5000,21.1875,227.6250,17.9375,-152.4375,0
190.730,9.4978,1.7789,0.6560,0.0048,0.0557,0.0229,-54.6000,29.4000,46.3500,9.6893,1.7382,1.0654,-0.0701,-0.0552,-0.0093,-52.5000,13.0500,3.7500,3.0700,4.4400,-8.3800,-0.0218,0.0011,0.0022,-24.6875,-27.5000,21.1875,227.6250,17.9375,-152.4375,0
190.735,9.5241,1.9201,0.5986,-0.0021,0.0698,0.0349,-54.6000,29.4000,46.3500,9.6558,1.8268,1.1971,-0.0565,-0.0722,-0.0093,-52.5000,13.0500,3.7500,3.0700,4.4400,-8.3800,-0.0218,0.0011,0.0022,-24.6875,-27.5000,21.1875,227.6250,17.9375,-152.4375,0
190.743,9.5241,1.9201,0.5986,-0.0021,0.0698,0.0349,-54.6000,29.4000,46.3500,9.6630,1.7262,1.2115,-0.0160,-0.0863,0.0027,-52.5000,13.0500,3.7500,3.0700,4.4500,-8.3400,-0.0316,0.0044,0.0000,-24.6875,-27.5000,21.1875,227.6250,17.9375,-152.4375,0
190.748,9.5002,1.9848,0.6704,-0.0139,0.0815,0.0480,-53.4000,30.7500,45.6000,9.6630,1.7262,1.2115,-0.0160,-0.0863,0.0027,-51.7500,15.0000,3.7500,3.0700,4.4500,-8.3400,-0.0316,0.0044,0.0000,-24.6875,-27.5000,21.1875,227.6250,17.9375,-152.3750,0
190.753,9.5002,1.9848,0.6704,-0.0139,0.0815,0.0480,-53.4000,30.7500,45.6000,9.6893,1.4892,1.3264,0.0125,-0.0973,0.0035,-51.7500,15.0000,3.7500,3.0800,4.4900,-8.3400,-0.0382,0.0044,0.0000,-24.3750,-27.7500,18.7500,227.6250,17.9375,-152.3750,0
190.758,9.5912,1.9848,0.6895,-0.0397,0.0949,0.0634,-53.8500,30.1500,45.0000,9.6893,1.4892,1.3264,0.0125,-0.0973,0.0035,-51.7500,15.0000,3.7500,3.0800,4.4900,-8.3400,-0.0382,0.0044,0.0000,-24.3750,-27.7500,18.7500,227.6250,17.9375,-152.3750,0
190.763,9.5984,1.9992,0.8236,-0.0794,0.1015,0.0813,-53.8500,30.1500,45.0000,9.7468,1.5036,1.3120,-0.0253,-0.1196,0.0035,-51.7500,15.0000,3.7500,3.0800,4.4500,-8.3200,-0.0447,0.0076,0.0011,-24.3750,-27.7500,18.7500,227.6250,17.9375,-152.3750,0
190.767,9.5984,1.9992,0.8236,-0.0794,0.1015,0.0813,-54.7500,31.8000,46.6500,9.7468,1.5036,1.3120,-0.0253,-0.1196,0.0035,-51.1500,13.9500,3.3000,3.0800,4.4500,-8.3200,-0.0524,0.0076,0.0011,-24.3750,-27.7500,18.7500,227.6250,17.9375,-152.3750,0
190.773,9.4619,1.9106,0.9385,-0.1183,0.1034,0.1085,-54.7500,31.8000,46.6500,9.8114,1.4509,1.2881,-0.0597,-0.1308,0.0091,-51.1500,13.9500,3.3000,3.0500,4.4000,-8.4000,-0.0524,0.0076,0.0011,-24.3750,-27.7500,18.7500,227.6250,17.9375,-152.3125,0
190.783,9.4954,1.9393,0.9481,-0.1354,0.1327,0.1316,-54.6000,30.9000,45.3000,9.7731,1.6185,1.2091,-0.0802,-0.1511,0.0131,-52.9500,15.0000,3.4500,3.0900,4.4200,-8.3600,-0.0578,0.0065,0.0011,-24.3750,-27.7500,18.7500,227.6250,17.9375,-152.3125,0
190.792,9.4810,2.0111,0.9098,-0.1202,0.1463,0.1476,-54.0000,31.0500,45.1500,9.7636,1.6807,1.2139,-0.0746,-0.1668,0.0133,-51.7500,13.5000,3.7500,3.0700,4.4700,-8.3400,-0.0676,0.0109,0.0033,-24.3750,-27.7500,18.7500,227.6250,17.9375,-152.2500,0
190.797,9.4810,2.0111,0.9098,-0.1202,0.1463,0.1476,-54.0000,31.0500,45.1500,9.7636,1.6807,1.2139,-0.0746,-0.1668,0.0133,-51.7500,13.5000,3.7500,3.0700,4.4700,-8.3400,-0.0676,0.0109,0.0033,-24.3750,-27.7500,18.7500,227.6250,17.9375,-152.2500,0
190.802,9.4355,2.0590,0.9290,-0.0901,0.1663,0.1639,-54.0000,31.0500,45.1500,9.6247,1.6664,1.0846,-0.0560,-0.1759,0.0237,-51.0000,15.4500,4.2000,3.0700,4.4300,-8.3200,-0.0785,0.0175,0.0022,-24.3750,-27.5000,20.3750,227.6875,17.9375,-152.2500,0
190.807,9.4355,2.0590,0.9290,-0.0901,0.1663,0.1639,-54.4500,29.5500,46.6500,9.6247,1.6664,1.0846,-0.0560,-0.1759,0.0237,-51.0000,15.4500,4.2000,3.0700,4.4300,-8.3200,-0.0785,0.0175,0.0022,-24.3750,-27.5000,20.3750,227.6875,17.9375,-152.2500,0
190.812,9.4739,2.0255,0.8571,-0.0541,0.1751,0.1780,-54.4500,29.5500,46.6500,9.6247,1.6759,0.9768,-0.0490,-0.2044,0.0258,-53.2500,13.0500,4.5000,3.0700,4.4300,-8.3600,-0.0894,0.0218,0.0022,-24.3750,-27.5000,20.3750,227.6875,17.9375,-152.1875,0
190.817,9.4739,2.0255,0.8571,-0.0541,0.1751,0.1780,-53.5500,30.9000,46.0500,9.6247,1.6759,0.9768,-0.0490,-0.2044,0.0258,-53.2500,13.0500,4.5000,3.0700,4.4300,-8.3600,-0.0993,0.0240,-0.0011,-24.3750,-27.5000,20.3750,227.6875,17.9375,-152.1250,0
190.823,9.4619,2.0662,0.7901,-0.0045,0.1753,0.1839,-53.5500,30.9000,46.0500,9.6079,1.6496,0.8284,-0.0421,-0.2110,0.0352,-51.7500,13.5000,3.0000,3.0800,4.4000,-8.3700,-0.0993,0.0240,-0.0011,-24.3750,-27.5000,20.3750,227.6875,18.0000,-152.0625,0
190.832,9.4595,2.0949,0.8140,0.0480,0.1793,0.1849,-53.5500,31.9500,46.0500,9.6247,1.7741,0.7207,-0.0333,-0.2206,0.0352,-51.7500,13.5000,3.0000,3.0900,4.4300,-8.3600,-0.1102,0.0316,0.0011,-24.3750,-27.5000,20.3750,227.6875,18.0000,-152.0625,0
190.840,9.4595,2.0949,0.8140,0.0829,0.1841,0.1820,-53.7000,28.8000,45.9000,9.5600,1.7669,0.6105,-0.0152,-0.2188,0.0394,-50.8500,14.4000,3.6000,3.0800,4.4500,-8.3000,-0.1200,0.0349,0.0000,-24.3750,-27.5000,20.3750,227.6875,18.0000,-152.0000,0
190.845,9.4547,2.0016,0.8882,0.0829,0.1841,0.1820,-53.7000,28.8000,45.9000,9.5600,1.7669,0.6105,-0.0152,-0.2188,0.0394,-50.8500,14.4000,3.6000,3.0800,4.4500,-8.3000,-0.1200,0.0349,0.0000,-24.3750,-27.5000,20.3750,227.6875,18.0000,-152.0000,0
190.850,9.4547,2.0016,0.8882,0.1164,0.1828,0.1737,-53.7000,28.8000,45.9000,9.5624,1.8459,0.5124,0.0133,-0.2273,0.0514,-51.7500,14.2500,3.4500,3.1100,4.4800,-8.2700,-0.1244,0.0338,-0.0022,-24.6875,-26.6875,20.0000,227.6875,18.0000,-151.9375,0
190.854,9.5265,1.9656,0.7997,0.1164,0.1828,0.1737,-53.4000,31.5000,47.2500,9.5624,1.8459,0.5124,0.0133,-0.2273,0.0514,-51.7500,14.2500,3.4500,3.1100,4.4800,-8.2700,-0.1244,0.0338,-0.0022,-24.6875,-26.6875,20.0000,227.6875,18.0000,-151.9375,0
190.859,9.5265,1.9656,0.7997,0.1268,0.1948,0.1761,-53.4000,31.5000,47.2500,9.6031,1.8124,0.5722,0.0320,-0.2305,0.0554,-50.8500,15.1500,3.3000,3.0800,4.5100,-8.3000,-0.1276,0.0360,-0.0055,-24.6875,-26.6875,20.0000,227.6875,18.0000,-151.8125,0
190.864,9.5888,1.9393,0.8116,0.1268,0.1948,0.1761,-53.7000,31.0500,44.8500,9.6031,1.8124,0.5722,0.0320,-0.2305,0.0554,-50.8500,15.1500,3.3000,3.0800,4.5100,-8.3000,-0.1276,0.0360,-0.0055,-24.6875,-26.6875,20.0000,227.6875,18.0000,-151.8125,0
190.869,9.5888,1.9393,0.8116,0.1295,0.2001,0.1689,-53.7000,31.0500,44.8500,9.5529,1.8148,0.4764,0.0256,-0.2372,0.0584,-52.6500,15.1500,2.8500,3.1100,4.5100,-8.3000,-0.1276,0.0404,-0.0087,-24.6875,-26.6875,20.0000,227.6875,18.0625,-151.7500,0
190.874,9.5385,1.8723,0.8236,0.1295,0.2001,0.1689,-54.6000,30.4500,46.8000,9.5529,1.8148,0.4764,0.0256,-0.2372,0.0584,-52.6500,15.1500,2.8500,3.1100,4.5100,-8.3000,-0.1276,0.0404,-0.0087,-24.6875,-26.6875,20.0000,227.6875,18.0625,-151.6875,0
190.883,9.5337,1.8914,0.7422,0.1202,0.1857,0.1588,-53.7000,29.5500,46.6500,9.5241,1.7837,0.3232,0.0213,-0.2395,0.0690,-51.3000,13.5000,2.4000,3.1300,4.5200,-8.2800,-0.1254,0.0393,-0.0065,-24.6875,-26.6875,20.0000,227.6875,18.0625,-151.6875,0
190.891,9.5433,1.8052,0.6536,0.1143,0.1713,0.1500,-53.7000,29.5500,46.6500,9.6343,1.7071,0.2298,0.0189,-0.2473,0.0717,-52.2000,13.8000,2.7000,3.1300,4.4900,-8.2500,-0.1200,0.0393,-0.0131,-24.6875,-26.6875,20.0000,227.6875,18.0625,-151.6250,0
190.896,9.5433,1.8052,0.6536,0.1143,0.1713,0.1500,-54.6000,31.2000,46.8000,9.4810,1.7645,0.1317,0.0123,-0.2489,0.0823,-52.2000,13.8000,2.7000,3.1300,4.4900,-8.2500,-0.1200,0.0393,-0.0131,-24.6875,-26.6875,20.0000,227.6875,18.0625,-151.6250,0
190.901,9.5098,1.8028,0.5052,0.1021,0.1628,0.1428,-54.6000,31.2000,46.8000,9.4810,1.7645,0.1317,0.0123,-0.2489,0.0823,-52.2000,13.8000,2.7000,3.1400,4.5000,-8.2300,-0.1134,0.0425,-0.0142,-25.0625,-27.0625,20.0000,227.6875,18.1250,-151.5625,0
190.905,9.5098,1.8028,0.5052,0.1021,0.1628,0.1428,-54.6000,31.2000,46.8000,9.5409,1.5419,0.2035,0.0203,-0.2398,0.0909,-52.2000,13.8000,2.7000,3.1400,4.5000,-8.2300,-0.1134,0.0425,-0.0142,-25.0625,-27.0625,20.0000,227.6875,18.1250,-151.5625,0
190.910,9.6319,1.8340,0.3160,0.1021,0.1783,0.1332,-54.6000,31.2000,46.8000,9.5409,1.5419,0.2035,0.0203,-0.2398,0.0909,-51.0000,13.5000,2.4000,3.1000,4.4500,-8.2700,-0.1102,0.0349,-0.0164,-25.0625,-27.0625,20.0000,227.6875,18.1250,-151.5000,0
190.915,9.6319,1.8340,0.3160,0.1021,0.1783,0.1332,-54.7500,28.8000,45.9000,9.5984,1.4006,0.1867,-0.0040,-0.2419,0.0965,-51.0000,13.5000,2.4000,3.1000,4.4500,-8.2700,-0.1102,0.0349,-0.0164,-25.0625,-27.0625,20.0000,227.6875,18.1250,-151.5000,0
190.920,9.5840,1.8747,0.3017,0.1029,0.1647,0.1308,-54.7500,28.8000,45.9000,9.5984,1.4006,0.1867,-0.0040,-0.2419,0.0965,-51.0000,13.5000,2.4000,3.0900,4.4400,-8.2700,-0.1036,0.0393,-0.0196,-25.0625,-27.0625,20.0000,227.6875,18.1250,-151.4375,0
190.925,9.5840,1.8747,0.3017,0.1029,0.1647,0.1308,-56.1000,28.9500,46.3500,9.5289,1.3958,0.0982,-0.0834,-0.2465,0.0954,-51.0000,13.5000,2.4000,3.0900,4.4400,-8.2700,-0.1036,0.0393,-0.0196,-25.0625,-27.0625,20.0000,227.6875,18.1250,-151.3750,0
190.933,9.6845,1.7526,0.2729,0.0650,0.1708,0.1210,-54.3000,29.4000,46.8000,9.5433,1.4868,-0.0575,-0.0834,-0.2465,0.0954,-52.6500,14.8500,2.8500,3.1200,4.3400,-8.2800,-0.1014,0.0360,-0.0207,-25.0625,-27.0625,20.0000,227.6875,18.1250,-151.3750,0
190.942,9.7468,1.7741,0.2131,0.0125,0.1452,0.1159,-54.7500,29.2500,45.6000,9.5433,1.4868,-0.0575,-0.1516,-0.2393,0.1005,-52.5000,15.0000,2.7000,3.1400,4.5300,-8.2300,-0.1113,0.0295,-0.0218,-25.0625,-27.0625,20.0000,227.6875,18.1250,-151.3125,0
190.947,9.7013,1.7238,0.1245,-0.0626,0.1268,0.1116,-54.7500,29.2500,45.6000,9.4691,1.7166,-0.1652,-0.1647,-0.2321,0.1090,-52.5000,15.0000,2.7000,3.1400,4.5300,-8.2300,-0.1113,0.0295,-0.0218,-25.0625,-27.0625,20.0000,227.6875,18.1250,-151.3125,0
190.951,9.7013,1.7238,0.1245,-0.0626,0.1268,0.1116,-54.7500,29.2500,45.6000,9.4691,1.7166,-0.1652,-0.1647,-0.2321,0.1090,-52.3500,14.4000,1.8000,3.1200,4.5400,-8.1900,-0.1156,0.0305,-0.0262,-24.0625,-27.7500,20.0000,227.6875,18.1250,-151.1875,0
190.956,9.6606,1.7933,0.0431,-0.1130,0.1021,0.1018,-54.7500,29.2500,45.6000,9.4427,1.8172,-0.3160,-0.1330,-0.2273,0.1071,-52.3500,14.4000,1.8000,3.1200,4.5400,-8.1900,-0.1156,0.0305,-0.0262,-24.0625,-27.7500,20.0000,227.6875,18.1250,-151.1875,0
190.961,9.6606,1.7933,0.0431,-0.1130,0.1021,0.1018,-54.7500,29.2500,45.6000,9.4427,1.8172,-0.3160,-0.1330,-0.2273,0.1071,-51.7500,13.5000,1.2000,3.1400,4.4900,-8.2200,-0.1080,0.0316,-0.0284,-24.0625,-27.7500,20.0000,227.6875,18.1875,-151.1250,0
190.966,9.6702,1.8699,-0.1077,-0.1583,0.0823,0.0863,-54.4500,28.0500,46.9500,9.3541,1.7334,-0.4214,-0.0975,-0.2140,0.1116,-51.7500,13.5000,1.2000,3.1400,4.4900,-8.2200,-0.1080,0.0316,-0.0284,-24.0625,-27.7500,20.0000,227.6250,18.1875,-151.0625,0
190.973,9.6702,1.8699,-0.1077,-0.1583,0.0823,0.0863,-54.0000,28.5000,45.6000,9.4332,1.5778,-0.5483,-0.0714,-0.1993,0.1061,-52.6500,13.2000,3.3000,3.1100,4.5300,-8.1900,-0.1014,0.0284,-0.0295,-24.0625,-27.7500,20.0000,227.6250,18.1875,-151.0625,0
190.982,9.6295,1.9249,-0.1269,-0.1996,0.0687,0.0850,-54.7500,28.8000,45.6000,9.4858,1.4653,-0.5722,-0.0783,-0.1839,0.1167,-51.3000,14.5500,1.9500,3.1000,4.5200,-8.1800,-0.0927,0.0295,-0.0273,-24.0625,-27.7500,20.0000,227.6250,18.1875,-151.0000,0
190.990,9.6774,2.0566,-0.2131,-0.2238,0.0648,0.0759,-54.7500,28.8000,45.6000,9.4858,1.4653,-0.5722,-0.0783,-0.1839,0.1167,-51.3000,14.5500,1.9500,3.1300,4.5300,-8.1800,-0.0851,0.0240,-0.0262,-24.0625,-27.7500,20.0000,227.6250,18.1875,-151.0000,0
190.995,9.6774,2.0566,-0.2131,-0.2380,0.0413,0.0711,-55.5000,29.2500,45.9000,9.3039,1.4341,-0.7135,-0.1172,-0.1660,0.1154,-51.3000,14.5500,1.9500,3.1300,4.5300,-8.1800,-0.0851,0.0240,-0.0262,-24.0625,-27.7500,20.0000,227.6250,18.1875,-151.0000,0
191.000,9.7085,2.0590,-0.2227,-0.2380,0.0413,0.0711,-55.5000,29.2500,45.9000,9.3039,1.4341,-0.7135,-0.1172,-0.1660,0.1154,-51.7500,13.5000,1.9500,3.1100,4.5000,-8.2300,-0.0764,0.0196,-0.0262,-24.3750,-27.5000,19.1875,227.6250,18.1875,-150.9375,0
191.004,9.7085,2.0590,-0.2227,-0.2526,0.0147,0.0568,-52.8000,30.9000,46.0500,9.4978,1.5586,-0.7039,-0.1314,-0.1444,0.1148,-51.7500,13.5000,1.9500,3.1100,4.5000,-8.2300,-0.0764,0.0196,-0.0262,-24.3750,-27.5000,19.1875,227.6250,18.1875,-150.9375,0
191.009,9.6965,2.2098,-0.2777,-0.2526,0.0147,0.0568,-52.8000,30.9000,46.0500,9.4978,1.5586,-0.7039,-0.1314,-0.1444,0.1148,-51.7500,13.5000,1.9500,3.1600,4.4400,-8.1900,-0.0676,0.0153,-0.0251,-24.3750,-27.5000,19.1875,227.6250,18.1875,-150.8750,0
191.014,9.6965,2.2098,-0.2777,-0.2507,-0.0269,0.0426,-52.8000,30.9000,46.0500,9.4930,1.6209,-0.7685,-0.1402,-0.1135,0.1135,-51.7500,13.5000,1.9500,3.1600,4.4400,-8.1900,-0.0676,0.0153,-0.0251,-24.3750,-27.5000,19.1875,227.6250,18.1875,-150.8750,0
191.019,9.6893,2.3727,-0.2753,-0.2507,-0.0269,0.0426,-52.8000,30.9000,46.0500,9.4930,1.6209,-0.7685,-0.1402,-0.1135,0.1135,-51.7500,13.5000,1.9500,3.1300,4.4700,-8.2000,-0.0654,0.0164,-0.0207,-24.3750,-27.5000,19.1875,227.6250,18.1875,-150.8125,0
191.024,9.6151,2.5187,-0.3136,-0.2654,-0.0538,0.0282,-55.3500,29.7000,47.1000,9.4547,1.6376,-0.8092,-0.1242,-0.0933,0.1175,-52.2000,13.8000,2.4000,3.1300,4.4700,-8.2000,-0.0654,0.0164,-0.0207,-24.3750,-27.5000,19.1875,227.6250,18.1875,-150.8125,0
191.033,9.6151,2.5187,-0.3136,-0.2654,-0.0538,0.0282,-54.6000,29.4000,47.5500,9.4523,1.6568,-0.8284,-0.1050,-0.0695,0.1143,-52.2000,14.2500,0.1500,3.0900,4.5100,-8.1900,-0.0622,0.0131,-0.0240,-24.3750,-27.5000,19.1875,227.5625,18.1875,-150.7500,0
191.043,9.6917,2.5809,-0.2849,-0.2542,-0.0842,-0.0008,-54.4500,29.5500,46.9500,9.4020,1.7166,-0.8475,-0.1010,-0.0453,0.1183,-52.2000,13.8000,2.4000,3.1000,4.5500,-8.1500,-0.0589,0.0109,-0.0196,-24.3750,-27.5000,19.1875,227.5625,18.1875,-150.7500,0
191.048,9.5792,2.7821,-0.3950,-0.2542,-0.0842,-0.0008,-54.4500,29.5500,46.9500,9.4020,1.7166,-0.8475,-0.1010,-0.0453,0.1183,-52.2000,13.8000,2.4000,3.1000,4.5500,-8.1500,-0.0589,0.0109,-0.0196,-24.3750,-27.5000,19.1875,227.5625,18.1875,-150.7500,0
191.053,9.5313,2.9233,-0.2873,-0.2116,-0.1005,-0.0109,-54.3000,29.4000,46.0500,9.3829,1.8196,-0.7614,-0.0730,-0.0290,0.1183,-53.4000,13.9500,1.8000,3.0800,4.5600,-8.1500,-0.0458,0.0033,-0.0175,-24.6875,-27.5000,19.1875,227.5625,18.1875,-150.7500,0
191.058,9.5313,2.9233,-0.2873,-0.2116,-0.1005,-0.0109,-54.3000,29.4000,46.0500,9.4810,1.7047,-0.7087,-0.0730,-0.0290,0.1183,-53.4000,13.9500,1.8000,3.0800,4.5600,-8.1500,-0.0458,0.0033,-0.0175,-24.6875,-27.5000,19.1875,227.5625,18.1875,-150.6875,0
191.063,9.6319,3.0071,-0.1820,-0.1644,-0.1066,-0.0264,-54.3000,29.4000,46.0500,9.4810,1.7047,-0.7087,-0.0224,-0.0112,0.1127,-53.4000,13.9500,1.8000,3.1100,4.6000,-8.1200,-0.0327,0.0065,-0.0153,-24.6875,-27.5000,19.1875,227.5625,18.1875,-150.6875,0
191.068,9.6319,3.0071,-0.1820,-0.1644,-0.1066,-0.0264,-54.3000,29.4000,46.0500,9.4715,1.6305,-0.6345,-0.0224,-0.0112,0.1127,-53.4000,13.9500,1.8000,3.1100,4.6000,-8.1200,-0.0218,0.0055,-0.0142,-24.6875,-27.5000,19.1875,227.5625,18.1875,-150.6875,0
191.074,9.5816,3.0023,-0.0982,-0.0922,-0.1007,-0.0368,-54.3000,29.4000,46.0500,9.4715,1.6305,-0.6345,0.0298,0.0107,0.1199,-52.5000,14.5500,1.6500,3.0800,4.5900,-8.1100,-0.0218,0.0055,-0.0142,-24.6875,-27.5000,19.1875,227.5625,18.1875,-150.6875,0
191.083,9.6151,2.9329,0.0072,-0.0216,-0.0965,-0.0365,-56.2500,30.0000,46.2000,9.5002,1.5083,-0.5698,0.0733,0.0344,0.1162,-52.5000,14.5500,1.6500,3.1100,4.4900,-8.1400,-0.0022,0.0033,-0.0109,-24.6875,-27.5000,19.1875,227.5625,18.1875,-150.6875,0
191.093,9.5098,2.9018,0.1628,0.0434,-0.0975,-0.0266,-55.8000,28.5000,45.6000,9.5313,1.4916,-0.3926,0.1111,0.0469,0.1114,-51.3000,13.0500,1.2000,3.1200,4.4900,-8.1700,0.0153,0.0022,-0.0076,-24.6875,-27.5000,19.1875,227.5625,18.1875,-150.6875,0
191.098,9.5098,2.9018,0.1628,0.0434,-0.0975,-0.0266,-55.8000,28.5000,45.6000,9.5457,1.5538,-0.4094,0.1108,0.0626,0.1082,-51.3000,13.0500,1.2000,3.1200,4.4900,-8.1700,0.0153,0.0022,-0.0076,-24.6875,-27.5000,19.1875,227.5625,18.1875,-150.6875,0
191.103,9.4930,2.8108,0.2897,0.0943,-0.1146,-0.0181,-54.0000,28.8000,46.6500,9.5457,1.5538,-0.4094,0.1108,0.0626,0.1082,-52.3500,13.6500,1.8000,3.0600,4.5100,-8.1500,0.0295,-0.0011,-0.0098,-24.3750,-27.5000,20.0000,227.5625,18.1875,-150.7500,0
191.108,9.4930,2.8108,0.2897,0.0943,-0.1146,-0.0181,-54.0000,28.8000,46.6500,9.5720,1.4940,-0.1628,0.1372,0.0698,0.1031,-52.3500,13.6500,1.8000,3.0600,4.5100,-8.1500,0.0295,-0.0011,-0.0098,-24.3750,-27.5000,20.0000,227.5625,18.1875,-150.7500,0
191.113,9.5409,2.8611,0.2634,0.1415,-0.1023,-0.0117,-55.6500,27.9000,46.0500,9.5720,1.4940,-0.1628,0.1372,0.0698,0.1031,-52.5000,13.8000,2.7000,3.1000,4.4800,-8.1900,0.0436,-0.0011,-0.0065,-24.3750,-27.5000,20.0000,227.5625,18.1875,-150.7500,0
191.118,9.5409,2.8611,0.2634,0.1415,-0.1023,-0.0117,-55.6500,27.9000,46.0500,9.5984,1.6089,-0.1317,0.1623,0.0669,0.1074,-52.5000,13.8000,2.7000,3.1000,4.4800,-8.1900,0.0567,-0.0011,-0.0076,-24.3750,-27.5000,20.0000,227.5625,18.1875,-150.7500,0
191.124,9.4427,2.8299,0.3783,0.1783,-0.1188,0.0008,-55.6500,27.9000,46.0500,9.5984,1.6089,-0.1317,0.1623,0.0669,0.1074,-52.6500,13.2000,2.1000,3.1000,4.4800,-8.1600,0.0567,-0.0011,-0.0076,-24.3750,-27.5000,20.0000,227.5625,18.1875,-150.8125,0
191.133,9.5122,2.8587,0.4741,0.2414,-0.1156,-0.0019,-55.6500,30.1500,46.3500,9.5193,1.7885,-0.1724,0.1372,0.0869,0.1164,-53.2500,13.5000,1.2000,3.0900,4.4500,-8.1600,0.0665,0.0022,-0.0087,-24.3750,-27.5000,20.0000,227.5625,18.1875,-150.8125,0
191.141,9.4691,2.7294,0.4693,0.2971,-0.1106,-0.0040,-55.3500,29.4000,46.0500,9.6103,1.8627,0.0599,0.1641,0.1010,0.1308,-51.6000,12.4500,1.3500,3.1400,4.4400,-8.2000,0.0764,-0.0011,-0.0076,-24.3750,-27.5000,20.0000,227.5625,18.1875,-150.8750,0
191.146,9.4691,2.7294,0.4693,0.2971,-0.1106,-0.0040,-55.3500,29.4000,46.0500,9.6917,1.9441,0.0048,0.2068,0.1066,0.1348,-51.6000,12.4500,1.3500,3.1400,4.4400,-8.2000,0.0764,-0.0011,-0.0076,-24.3750,-27.5000,20.0000,227.5625,18.1875,-150.8750,0
191.151,9.5289,2.5666,0.5052,0.3704,-0.0933,-0.0040,-53.1000,28.2000,46.0500,9.6917,1.9441,0.0048,0.2068,0.1066,0.1348,-51.6000,12.4500,1.3500,3.1100,4.4500,-8.2000,0.0840,0.0033,-0.0109,-25.0625,-28.0625,19.1875,227.5000,18.1875,-150.8750,0
191.156,9.5289,2.5666,0.5052,0.3704,-0.0933,-0.0040,-53.1000,28.2000,46.0500,9.7109,1.7549,0.2442,0.2971,0.0986,0.1402,-51.6000,12.4500,1.3500,3.1100,4.4500,-8.2000,0.0840,0.0033,-0.0109,-25.0625,-28.0625,19.1875,227.5000,18.1875,-150.8750,0
191.161,9.5361,2.5283,0.5459,0.4391,-0.0941,-0.0109,-55.5000,28.0500,46.9500,9.7109,1.7549,0.2442,0.2971,0.0986,0.1402,-51.6000,12.4500,1.3500,3.1300,4.5500,-8.1800,0.0829,0.0044,-0.0120,-25.0625,-28.0625,19.1875,227.5000,18.1875,-150.9375,0
191.166,9.5361,2.5283,0.5459,0.4391,-0.0941,-0.0109,-55.5000,28.0500,46.9500,9.6295,1.7885,0.2370,0.2936,0.0898,0.1479,-52.6500,13.6500,1.0500,3.1300,4.5500,-8.1800,0.0829,0.0044,-0.0120,-25.0625,-28.0625,19.1875,227.5000,18.1875,-151.0000,0
191.173,9.4858,2.3607,0.7230,0.4503,-0.0981,-0.0165,-55.5000,28.0500,46.9500,9.6510,1.7573,0.0862,0.2936,0.0898,0.1479,-52.6500,13.6500,1.0500,3.1000,4.4700,-8.1800,0.0927,0.0065,-0.0120,-25.0625,-28.0625,19.1875,227.5000,18.1875,-151.0000,0
191.182,9.4475,2.2889,0.8978,0.4751,-0.0725,-0.0258,-55.5000,28.0500,46.9500,9.6510,1.7573,0.0862,0.2558,0.0794,0.1671,-53.7000,14.2500,1.6500,3.1600,4.4400,-8.2200,0.1080,0.0044,-0.0131,-25.0625,-28.0625,19.1875,227.5000,18.1250,-151.0625,0
191.186,9.4475,2.2889,0.8978,0.4751,-0.0725,-0.0258,-55.5000,28.0500,46.9500,9.6247,1.6137,0.0263,0.2481,0.0930,0.1796,-53.7000,14.2500,1.6500,3.1600,4.4400,-8.2200,0.1080,0.0044,-0.0131,-25.0625,-28.0625,19.1875,227.4375,18.1250,-151.1250,0
191.194,9.3948,2.1811,0.9697,0.5020,-0.0501,-0.0187,-56.2500,28.8000,45.9000,9.6534,1.4653,0.0551,0.2963,0.1007,0.1777,-52.3500,12.9000,1.0500,3.1500,4.4700,-8.2100,0.1200,0.0055,-0.0120,-25.0625,-28.0625,19.1875,227.4375,18.1250,-151.1250,0
191.199,9.6175,2.2242,0.7901,0.5612,-0.0632,-0.0253,-54.9000,30.4500,46.0500,9.6534,1.4653,0.0551,0.2963,0.1007,0.1777,-52.3500,12.9000,1.0500,3.1500,4.4700,-8.2100,0.1200,0.0055,-0.0120,-25.0625,-28.0625,19.1875,227.4375,18.1250,-151.1875,0
191.204,9.6175,2.2242,0.7901,0.5612,-0.0632,-0.0253,-54.9000,30.4500,46.0500,9.5577,1.2115,0.2538,0.3453,0.0893,0.1713,-51.9000,13.9500,1.3500,3.1400,4.5300,-8.1900,0.1298,0.0055,-0.0120,-24.3750,-28.0625,18.7500,227.4375,18.1250,-151.1875,0
191.209,9.6750,2.1093,0.6847,0.6339,-0.0520,-0.0341,-53.8500,28.9500,44.7000,9.5577,1.2115,0.2538,0.3453,0.0893,0.1713,-51.9000,13.9500,1.3500,3.1400,4.5300,-8.1900,0.1298,0.0055,-0.0120,-24.3750,-28.0625,18.7500,227.4375,18.1250,-151.2500,0
191.214,9.6750,2.1093,0.6847,0.6339,-0.0520,-0.0341,-53.8500,28.9500,44.7000,9.5433,0.9337,0.3112,0.3144,0.0882,0.1612,-53.1000,14.4000,0.0000,3.0900,4.3300,-8.2300,0.1429,0.0087,-0.0109,-24.3750,-28.0625,18.7500,227.4375,18.1250,-151.2500,0
191.219,9.6798,2.0063,0.6009,0.6816,-0.0810,-0.0381,-54.9000,29.7000,42.9000,9.5433,0.9337,0.3112,0.3144,0.0882,0.1612,-53.1000,14.4000,0.0000,3.0900,4.3300,-8.2300,0.1560,0.0076,-0.0044,-24.3750,-28.0625,18.7500,227.3750,18.1250,-151.3750,0
191.224,9.6798,2.0063,0.6009,0.6816,-0.0810,-0.0381,-54.9000,29.7000,42.9000,9.5888,0.6967,0.1724,0.2491,0.0783,0.1583,-52.9500,13.0500,0.9000,3.1200,4.2100,-8.2400,0.1560,0.0076,-0.0044,-24.3750,-28.0625,18.7500,227.3750,18.1250,-151.4375,0
191.234,9.6630,1.7573,0.4573,0.7011,-0.1029,-0.0376,-54.9000,29.7000,42.9000,9.7157,0.6656,0.2203,0.1873,0.0765,0.1551,-53.2500,13.8000,2.4000,3.1000,4.2000,-8.2600,0.1560,0.0044,-0.0011,-24.3750,-28.0625,18.7500,227.3750,18.1250,-151.5000,0
191.244,9.5696,1.6137,0.4334,0.7205,-0.1282,-0.0352,-54.6000,31.6500,45.0000,9.7540,0.8188,0.1676,0.1175,0.0730,0.1474,-53.2500,13.8000,2.4000,3.0900,4.1600,-8.2700,0.1538,0.0011,0.0011,-24.3750,-28.0625,18.7500,227.3750,18.1250,-151.5000,0
191.248,9.6678,1.4222,0.3687,0.7682,-0.1551,-0.0346,-57.0000,31.5000,44.8500,9.7540,0.8188,0.1676,0.1175,0.0730,0.1474,-53.2500,13.8000,2.4000,3.0900,4.1600,-8.2700,0.1538,0.0011,0.0011,-24.3750,-28.0625,18.7500,227.3750,18.1250,-151.5000,0
191.254,9.6678,1.4222,0.3687,0.7682,-0.1551,-0.0346,-57.0000,31.5000,44.8500,9.7229,0.9266,0.2059,0.0719,0.0754,0.1340,-53.7000,13.5000,1.2000,3.0900,4.1500,-8.2800,0.1473,-0.0011,0.0055,-24.0625,-28.0625,20.0000,227.3750,18.1250,-151.6250,0
191.258,9.6414,1.3312,0.3256,0.8399,-0.1764,-0.0304,-56.1000,31.6500,44.7000,9.7229,0.9266,0.2059,0.0719,0.0754,0.1340,-53.7000,13.5000,1.2000,3.0900,4.1500,-8.2800,0.1473,-0.0011,0.0055,-24.0625,-28.0625,20.0000,227.3750,18.1250,-151.6250,0
191.263,9.6414,1.3312,0.3256,0.8399,-0.1764,-0.0304,-56.1000,31.6500,44.7000,9.7324,0.9625,0.1125,0.0802,0.0791,0.1303,-53.7000,14.5500,1.6500,3.0600,4.1200,-8.2900,0.1418,0.0000,0.0098,-24.0625,-28.0625,20.0000,227.3750,18.1250,-151.6875,0
191.268,9.7013,1.3216,0.1221,0.9230,-0.1641,-0.0469,-54.9000,30.9000,45.0000,9.7324,0.9625,0.1125,0.0802,0.0791,0.1303,-53.7000,14.5500,1.6500,3.0600,4.1200,-8.2900,0.1364,0.0065,0.0076,-24.0625,-28.0625,20.0000,227.3125,18.1250,-151.7500,0
191.274,9.7013,1.3216,0.1221,0.9230,-0.1641,-0.0469,-54.9000,30.9000,45.0000,9.6558,0.9984,0.2035,0.1071,0.0709,0.1308,-52.5000,13.0500,0.9000,3.1000,4.0700,-8.2900,0.1364,0.0065,0.0076,-24.0625,-28.0625,20.0000,227.3125,18.1250,-151.7500,0
191.283,9.9838,1.4820,-0.1077,0.9891,-0.1292,-0.0605,-55.8000,32.5500,44.8500,9.5792,0.9888,0.2418,0.1388,0.0554,0.1183,-53.4000,13.2000,1.8000,3.0900,4.1000,-8.2700,0.1364,0.0098,0.0011,-24.0625,-28.0625,20.0000,227.3125,18.1250,-151.8750,0
191.288,9.6151,1.4796,-0.2131,1.0283,-0.1593,-0.0829,-55.8000,32.5500,44.8500,9.5792,0.9888,0.2418,0.1388,0.0554,0.1183,-53.4000,13.2000,1.8000,3.0900,4.1000,-8.2700,0.1331,0.0142,0.0022,-24.0625,-28.0625,20.0000,227.3125,18.1875,-151.9375,0
191.294,9.6151,1.4796,-0.2131,1.0200,-0.1058,-0.1092,-55.8000,32.5500,44.8500,9.6438,0.9529,0.2634,0.1545,0.0546,0.1138,-53.7000,13.0500,0.9000,3.1300,4.0500,-8.2800,0.1331,0.0142,0.0022,-24.0625,-28.0625,20.0000,227.3125,18.1875,-151.9375,0
191.299,9.6079,1.2881,-0.1676,1.0200,-0.1058,-0.1092,-56.4000,32.4000,43.2000,9.7229,0.8978,0.2418,0.1479,0.0517,0.1100,-53.7000,13.0500,0.9000,3.1300,4.0500,-8.2800,0.1244,0.0164,0.0055,-24.3750,-28.0625,20.0000,227.3125,18.1875,-152.0625,0
191.304,9.6989,1.2186,-0.1748,0.9990,-0.1258,-0.1308,-56.4000,32.4000,43.2000,9.7229,0.8978,0.2418,0.1479,0.0517,0.1100,-51.9000,14.8500,1.3500,3.1400,3.9600,-8.3100,0.1244,0.0164,0.0055,-24.3750,-28.0625,20.0000,227.3125,18.1875,-152.0625,0
191.309,9.6989,1.2186,-0.1748,0.9990,-0.1258,-0.1308,-57.1500,33.1500,43.9500,9.6941,0.9146,0.2538,0.1372,0.0618,0.1146,-51.9000,14.8500,1.3500,3.1400,3.9600,-8.3100,0.1244,0.0164,0.0055,-24.3750,-28.0625,20.0000,227.3125,18.1875,-152.1250,0
191.314,9.8162,0.9816,-0.0958,0.9433,-0.1644,-0.1511,-57.1500,33.1500,43.9500,9.6941,0.9146,0.2538,0.1372,0.0618,0.1146,-51.9000,14.8500,1.3500,3.1600,3.9200,-8.3600,0.1244,0.0164,0.0055,-24.3750,-28.0625,20.0000,227.3125,18.1875,-152.1250,0
191.319,9.8162,0.9816,-0.0958,0.9433,-0.1644,-0.1511,-56.8500,34.2000,42.4500,9.6917,1.0702,0.1844,0.0866,0.0573,0.1103,-51.9000,14.8500,1.3500,3.1400,3.9300,-8.3400,0.1069,0.0164,0.0055,-24.3750,-28.0625,20.0000,227.3125,18.1875,-152.2500,0
191.325,9.6845,0.9433,-0.2083,0.9030,-0.2052,-0.1793,-56.8500,34.2000,42.4500,9.6917,1.0702,0.1844,0.0866,0.0573,0.1103,-52.9500,12.6000,1.9500,3.1400,3.9300,-8.3400,0.1069,0.0164,0.0055,-24.3750,-28.0625,20.0000,227.3125,18.2500,-152.3125,0
191.334,9.5122,0.8021,-0.2993,0.8231,-0.2745,-0.2094,-58.2000,33.4500,43.2000,9.6247,1.1995,0.1341,0.0522,0.0448,0.1140,-52.9500,12.6000,1.9500,3.1400,3.9200,-8.3200,0.0807,0.0196,0.0022,-24.3750,-28.0625,20.0000,227.3125,18.2500,-152.3125,0
191.340,9.5122,0.8021,-0.2993,0.8231,-0.2745,-0.2094,-58.2000,33.4500,43.2000,9.5888,1.2163,-0.0407,0.0602,0.0480,0.1202,-52.9500,12.6000,1.9500,3.1600,4.1100,-8.3000,0.0731,0.0273,-0.0022,-24.3750,-28.0625,20.0000,227.3125,18.2500,-152.3750,0
191.345,9.5984,0.6991,-0.2753,0.7210,-0.3003,-0.2289,-57.3000,32.5500,41.2500,9.5888,1.2163,-0.0407,0.0602,0.0480,0.1202,-52.3500,14.4000,1.0500,3.1600,4.1100,-8.3000,0.0731,0.0273,-0.0022,-24.3750,-28.0625,20.0000,227.3125,18.2500,-152.3750,0
191.350,9.5984,0.6991,-0.2753,0.7210,-0.3003,-0.2289,-57.3000,32.5500,41.2500,9.6343,1.1372,-0.0096,0.1183,0.0629,0.1183,-52.3500,14.4000,1.0500,3.1500,4.0700,-8.2900,0.0731,0.0349,-0.0022,-24.6875,-27.5000,20.7500,227.2500,18.2500,-152.4375,0
191.355,9.8426,0.5531,-0.2346,0.5953,-0.2952,-0.2438,-58.6500,34.2000,40.6500,9.6343,1.1372,-0.0096,0.1183,0.0629,0.1183,-51.9000,13.6500,1.3500,3.1500,4.0700,-8.2900,0.0731,0.0349,-0.0022,-24.6875,-27.5000,20.7500,227.2500,18.2500,-152.4375,0
191.360,9.8426,0.5531,-0.2346,0.5953,-0.2952,-0.2438,-58.6500,34.2000,40.6500,9.7755,0.6393,0.3855,0.2430,0.0690,0.1034,-51.9000,13.6500,1.3500,3.1400,4.0100,-8.2900,0.0720,0.0436,-0.0044,-24.6875,-27.5000,20.7500,227.2500,18.3125,-152.5000,0
191.365,10.0461,0.4764,-0.5004,0.4447,-0.3000,-0.2406,-58.8000,33.3000,40.9500,9.7755,0.6393,0.3855,0.2430,0.0690,0.1034,-54.1500,12.4500,1.0500,3.1400,4.0100,-8.2900,0.0720,0.0436,-0.0044,-24.6875,-27.5000,20.7500,227.2500,18.3125,-152.5000,0
191.370,10.0461,0.4764,-0.5004,0.4447,-0.3000,-0.2406,-58.8000,33.3000,40.9500,9.8210,0.4717,0.7973,0.2433,0.0450,0.0842,-54.1500,12.4500,1.0500,3.1400,4.0100,-8.2900,0.0731,0.0480,-0.0076,-24.6875,-27.5000,20.7500,227.2500,18.3125,-152.5625,0
191.375,10.0173,0.4070,-0.3112,0.3992,-0.3339,-0.2411,-56.8500,33.9000,40.6500,9.8689,0.3735,0.9002,0.2433,0.0450,0.0842,-52.3500,11.7000,2.1000,3.1200,3.9500,-8.3300,0.0731,0.0480,-0.0076,-24.6875,-27.5000,20.7500,227.2500,18.3750,-152.6250,0
191.384,9.8521,0.2753,-0.0024,0.2377,-0.3651,-0.2590,-56.8500,33.9000,40.6500,9.8689,0.3735,0.9002,0.1015,0.0144,0.0797,-53.2500,13.0500,1.2000,3.1200,3.6600,-8.3700,0.0665,0.0469,-0.0022,-24.6875,-27.5000,20.7500,227.2500,18.3750,-152.6250,0
191.394,9.6127,0.0934,0.0431,0.0352,-0.3688,-0.2651,-56.8500,33.9000,40.3500,9.8019,0.3663,0.9026,-0.0626,0.0013,0.0882,-54.1500,12.9000,1.0500,3.1800,3.6200,-8.3800,0.0458,0.0447,-0.0011,-24.6875,-27.5000,20.7500,227.2500,18.3750,-152.6250,0
191.399,9.6127,0.0934,0.0431,0.0352,-0.3688,-0.2651,-56.8500,33.9000,40.3500,9.8474,0.7063,0.8643,-0.1665,-0.0258,0.0853,-54.1500,12.9000,1.0500,3.1800,3.6200,-8.3800,0.0458,0.0447,-0.0011,-24.6875,-27.5000,20.7500,227.2500,18.3750,-152.6250,0
191.404,9.4595,0.1508,0.0886,-0.1625,-0.3776,-0.2683,-57.0000,34.8000,40.3500,9.7803,0.9816,0.8475,-0.1665,-0.0258,0.0853,-54.1500,12.9000,1.0500,3.2200,3.6700,-8.3700,0.0240,0.0404,-0.0022,-24.0625,-26.6875,20.3750,227.2500,18.3750,-152.6250,0
191.409,9.4595,0.1508,0.0886,-0.1625,-0.3776,-0.2683,-57.0000,34.8000,38.7000,9.7803,0.9816,0.8475,-0.2110,-0.0474,0.0823,-54.1500,12.9000,1.0500,3.2200,3.6700,-8.3700,0.0240,0.0404,-0.0022,-24.0625,-26.6875,20.3750,227.2500,18.4375,-152.6250,0
191.414,9.3948,0.3400,0.1101,-0.3190,-0.3501,-0.2574,-57.7500,34.8000,39.4500,9.7779,1.1899,0.7805,-0.2110,-0.0474,0.0823,-52.6500,13.9500,1.3500,3.1400,3.8200,-8.3000,0.0142,0.0349,-0.0065,-24.0625,-26.6875,20.3750,227.2500,18.4375,-152.6250,0
191.420,9.3948,0.3400,0.1101,-0.4463,-0.3603,-0.2515,-57.7500,34.8000,39.4500,9.7779,1.1899,0.7805,-0.2158,-0.0733,0.0815,-52.6500,13.9500,1.3500,3.2000,3.8400,-8.3100,0.0044,0.0349,-0.0076,-24.0625,-26.6875,20.3750,227.2500,18.4375,-152.6250,0
191.425,9.4403,0.7278,0.0527,-0.4463,-0.3603,-0.2515,-57.9000,35.4000,42.1500,9.7636,1.2881,0.7087,-0.1655,-0.0855,0.0821,-52.6500,13.9500,1.3500,3.2000,3.8400,-8.3100,0.0044,0.0349,-0.0076,-24.0625,-26.6875,20.3750,227.2500,18.4375,-152.6875,0
191.434,9.3326,1.1612,-0.0479,-0.5481,-0.3344,-0.2489,-56.5500,35.2500,40.2000,9.8641,1.1851,0.5531,-0.0991,-0.0935,0.0743,-53.7000,12.6000,1.6500,3.2000,3.8500,-8.3300,0.0000,0.0371,-0.0131,-24.0625,-26.6875,20.3750,227.2500,18.4375,-152.6875,0
191.442,9.3422,1.6616,-0.1580,-0.6163,-0.2878,-0.2425,-56.5500,35.2500,40.2000,9.8641,1.1851,0.5531,-0.0991,-0.0935,0.0743,-53.7000,12.6000,1.6500,3.1900,3.8300,-8.3100,-0.0044,0.0371,-0.0131,-24.0625,-26.6875,20.3750,227.1875,18.5000,-152.6875,0
191.447,9.3422,1.6616,-0.1580,-0.6163,-0.2878,-0.2425,-56.5500,35.2500,40.2000,9.7348,1.0151,0.4812,-0.0677,-0.1018,0.0815,-52.2000,13.8000,-0.1500,3.1900,3.8300,-8.3100,-0.0044,0.0371,-0.0131,-24.0625,-26.6875,20.3750,227.1875,18.5000,-152.6875,0
191.452,9.3996,1.9920,-0.2753,-0.6246,-0.2814,-0.2403,-56.5500,35.2500,40.2000,9.8162,0.8811,0.4214,-0.0677,-0.1018,0.0815,-52.2000,13.8000,-0.1500,3.1700,3.8100,-8.2900,-0.0109,0.0425,-0.0185,-24.3750,-27.5000,20.7500,227.1875,18.5000,-152.7500,0
191.457,9.3996,1.9920,-0.2753,-0.6246,-0.2814,-0.2403,-57.1500,34.9500,42.1500,9.8162,0.8811,0.4214,-0.0272,-0.1042,0.0687,-51.6000,13.2000,0.3000,3.1700,3.8100,-8.2900,-0.0109,0.0425,-0.0185,-24.3750,-27.5000,20.7500,227.1875,18.5000,-152.7500,0
191.461,9.3637,2.2817,-0.3639,-0.5734,-0.2769,-0.2329,-57.1500,34.9500,42.1500,9.6798,0.7111,0.4094,-0.0272,-0.1042,0.0687,-51.6000,13.2000,0.3000,3.1500,3.8000,-8.3200,-0.0153,0.0469,-0.0207,-24.3750,-27.5000,20.7500,227.1875,18.5625,-152.7500,0
191.466,9.3637,2.2817,-0.3639,-0.5734,-0.2769,-0.2329,-56.4000,35.7000,40.6500,9.6798,0.7111,0.4094,-0.0144,-0.1095,0.0733,-55.0500,13.6500,0.6000,3.1500,3.8000,-8.3200,-0.0153,0.0469,-0.0207,-24.3750,-27.5000,20.7500,227.1875,18.5625,-152.7500,0
191.471,9.5217,2.3966,-0.4693,-0.4477,-0.3072,-0.2201,-56.4000,35.7000,40.6500,9.6774,0.6057,0.3376,-0.0144,-0.1095,0.0733,-55.0500,13.6500,0.6000,3.1600,3.8100,-8.3000,-0.0164,0.0382,-0.0185,-24.3750,-27.5000,20.7500,227.1875,18.5625,-152.8125,0
191.476,9.5217,2.3966,-0.4693,-0.4477,-0.3072,-0.2201,-57.3000,36.3000,40.2000,9.6774,0.6057,0.3376,-0.0450,-0.1210,0.0687,-55.0500,13.6500,0.6000,3.1600,3.8100,-8.3000,-0.0164,0.0382,-0.0185,-24.3750,-27.5000,20.7500,227.1875,18.5625,-152.8125,0
191.484,9.6319,2.5738,-0.6057,-0.3072,-0.3752,-0.2233,-57.7500,36.7500,40.9500,9.7420,0.4573,0.1748,-0.0909,-0.1279,0.0640,-51.9000,13.9500,0.6000,3.1600,3.6500,-8.3600,-0.0218,0.0349,-0.0207,-24.3750,-27.5000,20.7500,227.1875,18.5625,-152.8125,0
191.492,9.5696,2.6552,-0.7685,-0.1809,-0.4183,-0.2268,-57.9000,36.4500,41.1000,9.7157,0.4549,0.0814,-0.1471,-0.1290,0.0640,-51.9000,13.9500,0.6000,3.1800,3.6200,-8.3200,-0.0371,0.0305,-0.0164,-24.3750,-27.5000,20.7500,227.1875,18.6250,-152.8750,0
191.497,9.5696,2.6552,-0.7685,-0.1809,-0.4183,-0.2268,-57.9000,36.4500,41.1000,9.7157,0.4549,0.0814,-0.1471,-0.1290,0.0640,-51.9000,13.9500,0.6000,3.1800,3.6200,-8.3200,-0.0371,0.0305,-0.0164,-24.3750,-27.5000,20.7500,227.1875,18.6250,-152.8750,0
191.502,9.5792,2.6456,-0.9050,-0.0991,-0.4165,-0.2310,-57.9000,36.4500,41.1000,9.7444,0.5387,0.0622,-0.1951,-0.1306,0.0568,-51.9000,13.9500,0.6000,3.1700,3.6300,-8.3400,-0.0578,0.0262,-0.0098,-25.0625,-27.5000,19.5625,227.1875,18.6250,-152.8750,0
191.506,9.5792,2.6456,-0.9050,-0.0991,-0.4165,-0.2310,-57.9000,36.4500,41.1000,9.7444,0.5387,0.0622,-0.1951,-0.1306,0.0568,-52.9500,13.0500,1.2000,3.1700,3.6300,-8.3400,-0.0578,0.0262,-0.0098,-25.0625,-27.5000,19.5625,227.1875,18.6250,-152.8750,0
191.511,9.5912,2.7390,-1.0582,-0.0488,-0.4341,-0.2403,-57.9000,36.4500,41.1000,9.7205,0.6943,-0.0311,-0.2129,-0.1298,0.0530,-52.9500,13.0500,1.2000,3.2100,3.6700,-8.3500,-0.0905,0.0284,-0.0065,-25.0625,-27.5000,19.5625,227.2500,18.6875,-152.8750,0
191.516,9.5912,2.7390,-1.0582,-0.0488,-0.4341,-0.2403,-56.5500,36.3000,39.4500,9.7205,0.6943,-0.0311,-0.2129,-0.1298,0.0530,-54.6000,13.2000,1.3500,3.2100,3.6700,-8.3500,-0.0905,0.0284,-0.0065,-25.0625,-27.5000,19.5625,227.2500,18.6875,-152.8750,0
191.521,9.6079,2.7653,-1.2402,-0.0253,-0.4415,-0.2521,-56.5500,36.3000,39.4500,9.7133,0.8452,-0.1077,-0.2196,-0.1274,0.0520,-54.6000,13.2000,1.3500,3.1700,3.7200,-8.3600,-0.1004,0.0251,-0.0087,-25.0625,-27.5000,19.5625,227.2500,18.6875,-152.9375,0
191.526,9.6079,2.7653,-1.2402,-0.0253,-0.4415,-0.2521,-58.0500,36.0000,40.9500,9.7133,0.8452,-0.1077,-0.2196,-0.1274,0.0520,-53.2500,14.5500,1.9500,3.1700,3.7200,-8.3600,-0.1004,0.0251,-0.0087,-25.0625,-27.5000,19.5625,227.2500,18.6875,-152.8750,0
191.534,9.4619,2.6935,-1.3312,-0.0290,-0.4772,-0.2497,-58.0500,36.0000,40.2000,9.6774,0.9409,-0.1580,-0.2118,-0.1143,0.0466,-53.2500,14.5500,1.9500,3.1900,3.7000,-8.3400,-0.1145,0.0295,-0.0065,-25.0625,-27.5000,19.5625,227.2500,18.6875,-152.8750,0
191.541,9.3254,2.6217,-1.4844,-0.0695,-0.4964,-0.2566,-58.0500,36.0000,40.2000,9.5792,0.9409,-0.2801,-0.1863,-0.1034,0.0424,-53.4000,13.9500,0.6000,3.2300,3.7700,-8.2900,-0.1276,0.0316,-0.0076,-25.0625,-27.5000,19.5625,227.3125,18.7500,-152.8750,0
191.545,9.3254,2.6217,-1.4844,-0.0695,-0.4964,-0.2566,-58.8000,37.8000,39.1500,9.5792,0.9409,-0.2801,-0.1863,-0.1034,0.0424,-54.0000,12.6000,0.9000,3.2300,3.7700,-8.2900,-0.1276,0.0316,-0.0076,-25.0625,-27.5000,19.5625,227.3125,18.7500,-152.8750,0
191.550,9.2392,2.5618,-1.5778,-0.1250,-0.4871,-0.2539,-58.8000,37.8000,39.1500,9.5984,0.9888,-0.3807,-0.1692,-0.0933,0.0389,-54.0000,12.6000,0.9000,3.2300,3.7700,-8.2900,-0.1276,0.0316,-0.0076,-25.5000,-27.5000,20.0000,227.3125,18.7500,-152.8750,0
191.555,9.2392,2.5618,-1.5778,-0.1250,-0.4871,-0.2539,-58.8000,37.8000,39.1500,9.5984,0.9888,-0.3807,-0.1692,-0.0933,0.0389,-52.9500,13.0500,0.9000,3.2000,3.7800,-8.2700,-0.1364,0.0284,-0.0087,-25.5000,-27.5000,20.0000,227.3125,18.7500,-152.8750,0
191.560,9.2584,2.5379,-1.6999,-0.1777,-0.4615,-0.2483,-58.8000,37.8000,39.1500,9.5792,0.9984,-0.4501,-0.1463,-0.0783,0.0437,-52.9500,13.0500,0.9000,3.2000,3.7800,-8.2700,-0.1364,0.0284,-0.0087,-25.5000,-27.5000,20.0000,227.3125,18.7500,-152.8125,0
191.565,9.2584,2.5379,-1.6999,-0.1777,-0.4615,-0.2483,-59.1000,37.0500,37.3500,9.5792,0.9984,-0.4501,-0.1463,-0.0783,0.0437,-52.9500,13.0500,0.9000,3.1600,3.8000,-8.2600,-0.1396,0.0316,-0.0131,-25.5000,-27.5000,20.0000,227.3125,18.7500,-152.8125,0
191.570,9.1794,2.5786,-1.7813,-0.2214,-0.4887,-0.2470,-59.1000,37.0500,37.3500,9.5984,1.0175,-0.4262,-0.1364,-0.0538,0.0426,-52.9500,13.0500,0.9000,3.1600,3.8000,-8.2600,-0.1429,0.0338,-0.0076,-25.5000,-27.5000,20.0000,227.3125,18.8125,-152.7500,0
191.575,9.1794,2.5786,-1.7813,-0.2886,-0.4093,-0.2454,-59.1000,37.0500,38.7000,9.5984,1.0175,-0.4262,-0.1364,-0.0538,0.0426,-52.9500,11.8500,0.9000,3.1500,3.8100,-8.2800,-0.1429,0.0338,-0.0076,-25.5000,-27.5000,20.0000,227.3125,18.8125,-152.7500,0
191.584,9.2201,2.6073,-1.7741,-0.2886,-0.4093,-0.2454,-58.9500,38.4000,40.0500,9.6079,1.0391,-0.3879,-0.1236,-0.0346,0.0424,-52.9500,11.8500,0.9000,3.1900,3.8600,-8.2400,-0.1385,0.0371,-0.0098,-25.5000,-27.5000,20.0000,227.3750,18.8125,-152.7500,0
191.589,9.2799,2.6719,-1.8986,-0.3179,-0.3941,-0.2601,-58.9500,38.4000,40.0500,9.6031,1.0151,-0.3855,-0.1335,-0.0269,0.0386,-52.9500,11.8500,0.9000,3.1900,3.8600,-8.2400,-0.1244,0.0327,-0.0120,-25.5000,-27.5000,20.0000,227.3750,18.8750,-152.6875,0
191.596,9.2392,2.7557,-1.8747,-0.3416,-0.4186,-0.2699,-58.6500,36.1500,39.0000,9.6031,0.8763,-0.4094,-0.1335,-0.0269,0.0386,-54.6000,13.2000,1.8000,3.1700,3.8800,-8.2200,-0.1244,0.0327,-0.0120,-25.5000,-27.5000,20.0000,227.3750,18.8750,-152.6875,0
191.601,9.2392,2.7557,-1.8747,-0.3416,-0.4186,-0.2699,-58.8000,38.2500,38.1000,9.6031,0.8763,-0.4094,-0.1346,-0.0203,0.0301,-54.6000,13.2000,1.8000,3.1900,3.8900,-8.2000,-0.1091,0.0349,-0.0109,-25.5000,-27.5000,20.0000,227.3750,18.8750,-152.6250,0
191.605,9.3015,2.7725,-1.8387,-0.3693,-0.4040,-0.2726,-58.8000,38.2500,38.1000,9.5720,0.8859,-0.4573,-0.1346,-0.0203,0.0301,-53.7000,11.4000,1.8000,3.1900,3.8900,-8.2000,-0.1091,0.0349,-0.0109,-25.5000,-27.5000,20.0000,227.3750,18.8750,-152.6250,0
191.610,9.3015,2.7725,-1.8387,-0.3693,-0.4040,-0.2726,-58.8000,38.2500,38.1000,9.5720,0.8859,-0.4573,-0.1498,-0.0053,0.0312,-53.7000,11.4000,0.9000,3.1900,3.8900,-8.2000,-0.0971,0.0338,-0.0087,-25.5000,-27.5000,20.0000,227.3750,18.8750,-152.6250,0
191.615,9.2967,2.8036,-1.8459,-0.3683,-0.4413,-0.2707,-58.8000,38.2500,38.1000,9.6367,0.9026,-0.3543,-0.1498,-0.0053,0.0312,-52.9500,13.0500,0.4500,3.1600,3.9000,-8.2100,-0.0971,0.0338,-0.0087,-25.5000,-27.5000,20.0000,227.3750,18.8750,-152.6250,0
191.620,9.2967,2.8036,-1.8459,-0.3683,-0.4413,-0.2707,-58.8000,38.2500,38.1000,9.6367,0.9026,-0.3543,-0.1617,-0.0037,0.0304,-52.9500,13.0500,0.4500,3.1600,3.9000,-8.2100,-0.0851,0.0371,-0.0076,-25.5000,-27.5000,20.0000,227.3750,18.9375,-152.5625,0
191.625,9.1530,2.8706,-1.8914,-0.3749,-0.4346,-0.2622,-57.9000,38.4000,39.6000,9.6893,0.9050,-0.2322,-0.1617,-0.0037,0.0304,-52.9500,13.0500,0.4500,3.1600,3.8900,-8.2600,-0.0851,0.0371,-0.0076,-25.5000,-27.5000,20.0000,227.3750,18.9375,-152.5625,0
191.634,9.2464,3.0119,-1.9465,-0.3683,-0.4237,-0.2558,-58.9500,38.7000,39.0000,9.6893,0.9050,-0.2322,-0.1572,0.0125,0.0258,-53.4000,12.0000,1.0500,3.1600,3.9000,-8.2300,-0.0807,0.0349,-0.0065,-25.5000,-27.5000,20.0000,227.3750,18.9375,-152.5625,0
191.641,9.2464,3.0119,-1.9465,-0.3683,-0.4237,-0.2558,-57.9000,38.4000,37.5000,9.6893,0.9385,-0.1437,-0.1729,0.0218,0.0352,-53.7000,12.3000,1.6500,3.1600,3.9000,-8.2000,-0.0764,0.0371,-0.0044,-25.5000,-27.5000,20.0000,227.3750,18.9375,-152.5625,0
191.646,9.2703,3.0837,-1.8196,-0.3754,-0.4104,-0.2473,-57.9000,38.4000,37.5000,9.6654,1.0367,-0.0646,-0.1857,0.0266,0.0325,-54.0000,12.6000,1.6500,3.1600,3.9000,-8.2000,-0.0764,0.0371,-0.0044,-25.5000,-27.5000,20.0000,227.3750,18.9375,-152.5625,0
191.651,9.2703,3.0837,-1.8196,-0.3754,-0.4104,-0.2473,-58.2000,38.7000,37.2000,9.6654,1.0367,-0.0646,-0.1857,0.0266,0.0325,-54.0000,12.6000,0.9000,3.1900,3.8900,-8.1900,-0.0687,0.0327,-0.0022,-24.6875,-28.0625,19.5625,227.3750,19.0000,-152.5000,0
191.655,9.2584,3.0478,-1.8172,-0.3744,-0.3922,-0.2449,-58.2000,38.7000,37.2000,9.6917,1.1037,0.0287,-0.1876,0.0211,0.0394,-54.0000,12.6000,0.9000,3.1900,3.8900,-8.1900,-0.0687,0.0327,-0.0022,-24.6875,-28.0625,19.5625,227.3750,19.0000,-152.5000,0
191.660,9.2584,3.0478,-1.8172,-0.3744,-0.3922,-0.2449,-58.2000,38.7000,37.2000,9.6917,1.1037,0.0287,-0.1876,0.0211,0.0394,-54.0000,12.6000,0.9000,3.1900,3.9100,-8.2100,-0.0644,0.0393,0.0000,-24.6875,-28.0625,19.5625,227.3750,19.0000,-152.5000,0
191.665,9.2392,3.1125,-1.7573,-0.3858,-0.3912,-0.2406,-58.2000,38.7000,37.2000,9.6223,1.1109,0.0958,-0.1649,0.0195,0.0400,-54.0000,12.6000,0.9000,3.1900,3.9100,-8.2100,-0.0644,0.0393,0.0000,-24.6875,-28.0625,19.5625,227.3750,19.0000,-152.5000,0
191.670,9.2392,3.1125,-1.7573,-0.3858,-0.3912,-0.2406,-59.8500,39.7500,37.0500,9.6223,1.1109,0.0958,-0.1649,0.0195,0.0400,-53.8500,12.0000,0.3000,3.1900,3.9100,-8.2100,-0.0535,0.0382,-0.0033,-24.6875,-28.0625,19.5625,227.4375,19.0000,-152.5000,0
191.675,9.1961,3.0765,-1.8076,-0.3941,-0.3762,-0.2393,-59.8500,39.7500,37.0500,9.6510,1.1564,0.0814,-0.1340,0.0386,0.0381,-53.8500,12.0000,0.3000,3.1600,3.9500,-8.1900,-0.0535,0.0382,-0.0033,-24.6875,-28.0625,19.5625,227.4375,19.0625,-152.5000,0
191.685,9.0908,2.9257,-1.7885,-0.4066,-0.3597,-0.2265,-57.3000,39.0000,37.6500,9.6845,1.0726,0.1820,-0.0959,0.0285,0.0402,-53.7000,13.5000,0.1500,3.2000,3.9300,-8.1600,-0.0404,0.0404,-0.0033,-24.6875,-28.0625,19.5625,227.4375,19.0625,-152.5000,0
191.691,9.0333,2.9449,-1.6783,-0.3757,-0.2960,-0.2105,-58.3500,39.3000,37.6500,9.6845,1.0726,0.1820,-0.0959,0.0285,0.0402,-53.4000,13.2000,1.0500,3.2300,3.9200,-8.1900,-0.0284,0.0360,-0.0011,-24.6875,-28.0625,19.5625,227.4375,19.0625,-152.5000,0
191.696,9.0333,2.9449,-1.6783,-0.3757,-0.2960,-0.2105,-58.3500,39.3000,37.6500,9.7157,1.0894,0.1652,-0.0677,0.0213,0.0426,-52.6500,12.4500,0.6000,3.2300,3.9200,-8.1900,-0.0284,0.0360,-0.0011,-24.6875,-28.0625,19.5625,227.4375,19.0625,-152.5000,0
191.701,9.1387,2.9736,-1.7310,-0.4096,-0.2934,-0.1903,-59.2500,39.4500,37.8000,9.7157,1.0894,0.1652,-0.0677,0.0213,0.0426,-52.6500,12.4500,0.6000,3.2500,3.8700,-8.1800,-0.0175,0.0371,0.0011,-25.8750,-28.0625,19.5625,227.4375,19.0625,-152.5000,0
191.706,9.1387,2.9736,-1.7310,-0.4096,-0.2934,-0.1903,-59.2500,39.4500,37.8000,9.6199,0.9697,0.1652,-0.0392,0.0256,0.0386,-52.9500,13.8000,0.4500,3.2500,3.8700,-8.1800,-0.0175,0.0371,0.0011,-25.8750,-28.0625,19.5625,227.4375,19.0625,-152.5000,0
191.711,9.0956,3.0861,-1.6065,-0.4056,-0.2555,-0.1761,-57.1500,41.4000,38.5500,9.6199,0.9697,0.1652,-0.0392,0.0256,0.0386,-52.9500,13.8000,0.4500,3.2500,3.8700,-8.1800,-0.0076,0.0371,0.0011,-25.8750,-28.0625,19.5625,227.4375,19.1250,-152.5000,0
191.716,9.0956,3.0861,-1.6065,-0.4056,-0.2555,-0.1761,-57.1500,41.4000,38.5500,9.5289,0.8882,0.1173,-0.0067,0.0538,0.0424,-52.9500,13.8000,0.4500,3.2500,3.8200,-8.2000,-0.0076,0.0371,0.0011,-25.8750,-28.0625,19.5625,227.4375,19.1250,-152.5000,0
191.721,9.0190,3.1819,-1.4964,-0.3371,-0.1929,-0.1633,-57.1500,41.4000,38.5500,9.5984,0.8978,0.0886,-0.0067,0.0538,0.0424,-53.8500,12.0000,0.6000,3.2500,3.8100,-8.2400,0.0022,0.0338,0.0033,-25.8750,-28.0625,19.5625,227.4375,19.1250,-152.5625,0
191.726,9.0190,3.1819,-1.4964,-0.3371,-0.1929,-0.1633,-57.1500,41.4000,38.5500,9.5984,0.8978,0.0886,0.0338,0.0530,0.0288,-53.8500,12.0000,0.6000,3.2500,3.8100,-8.2400,0.0022,0.0338,0.0033,-25.8750,-28.0625,19.5625,227.4375,19.1875,-152.5625,0
191.735,8.9591,3.2968,-1.4485,-0.2774,-0.1863,-0.1428,-59.7000,40.9500,39.3000,9.7468,0.8882,0.1772,0.0608,0.0450,0.0242,-53.8500,12.0000,0.6000,3.2500,3.8000,-8.2600,0.0055,0.0338,0.0055,-25.8750,-28.0625,19.5625,227.4375,19.1875,-152.5625,0
191.742,9.0357,3.3232,-1.4533,-0.2230,-0.1833,-0.1375,-58.2000,40.2000,37.8000,9.7229,0.9385,0.2490,0.0901,0.0317,0.0261,-53.2500,12.3000,2.4000,3.2700,3.7900,-8.2300,0.0011,0.0425,0.0055,-25.8750,-28.0625,19.5625,227.4375,19.1875,-152.6250,0
191.747,9.0357,3.3232,-1.4533,-0.2230,-0.1833,-0.1375,-58.2000,40.2000,37.8000,9.7229,0.9385,0.2490,0.0901,0.0317,0.0261,-53.2500,12.3000,2.4000,3.2700,3.7900,-8.2300,0.0011,0.0425,0.0055,-25.8750,-28.0625,19.5625,227.4375,19.1875,-152.6250,0
191.752,9.0812,3.3423,-1.4964,-0.1585,-0.1559,-0.1284,-59.1000,40.5000,37.0500,9.6869,0.9026,0.1437,0.0738,0.0189,0.0258,-53.2500,12.3000,2.4000,3.2500,3.8400,-8.1900,-0.0076,0.0578,0.0055,-25.5000,-27.5000,18.3750,227.4375,19.2500,-152.6250,0
191.757,9.0812,3.3423,-1.4964,-0.1585,-0.1559,-0.1284,-59.1000,40.5000,37.0500,9.6869,0.9026,0.1437,0.0738,0.0189,0.0258,-54.4500,13.5000,-0.1500,3.2500,3.8400,-8.1900,-0.0076,0.0578,0.0055,-25.5000,-27.5000,18.3750,227.4375,19.2500,-152.6250,0
191.762,9.0836,3.4237,-1.5203,-0.0959,-0.1231,-0.1196,-57.7500,40.8000,38.7000,9.7109,0.9720,0.1891,0.0813,0.0274,0.0312,-54.4500,13.5000,-0.1500,3.2600,3.8800,-8.1800,-0.0131,0.0676,0.0000,-25.5000,-27.5000,18.3750,227.4375,19.2500,-152.6875,0
191.767,9.0836,3.4237,-1.5203,-0.0959,-0.1231,-0.1196,-57.7500,40.8000,38.7000,9.7109,0.9720,0.1891,0.0813,0.0274,0.0312,-54.4500,13.5000,-0.1500,3.2600,3.8800,-8.1800,-0.0131,0.0676,0.0000,-25.5000,-27.5000,18.3750,227.4375,19.2500,-152.6875,0
191.771,9.1004,3.5003,-1.4317,-0.0229,-0.1005,-0.1058,-57.7500,40.8000,38.7000,9.7229,1.0606,0.1867,0.0837,-0.0008,0.0298,-53.7000,12.6000,1.6500,3.2800,3.8300,-8.1900,-0.0218,0.0676,-0.0055,-25.5000,-27.5000,18.3750,227.4375,19.3125,-152.6875,0
191.776,9.1004,3.5003,-1.4317,-0.0229,-0.1005,-0.1058,-57.7500,40.8000,38.7000,9.7229,1.0606,0.1867,0.0837,-0.0008,0.0298,-53.7000,12.6000,1.6500,3.2800,3.8300,-8.1900,-0.0218,0.0676,-0.0055,-25.5000,-27.5000,18.3750,227.4375,19.3125,-152.6875,0
191.785,9.0812,3.4884,-1.3767,0.0424,-0.0999,-0.0986,-57.7500,40.8000,38.7000,9.6654,1.0774,0.2514,0.0986,0.0029,0.0378,-52.5000,12.6000,0.9000,3.2700,3.8800,-8.1500,-0.0284,0.0622,-0.0076,-25.5000,-27.5000,18.3750,227.4375,19.3125,-152.6875,0
191.791,9.2225,3.3950,-1.6400,0.0903,-0.1503,-0.0810,-58.9500,40.9500,39.3000,9.7205,0.9720,0.2179,0.1287,0.0037,0.0368,-53.1000,12.9000,1.3500,3.2300,3.9300,-8.1300,-0.0218,0.0589,-0.0153,-25.5000,-27.5000,18.3750,227.4375,19.3750,-152.6875,0
191.796,9.2225,3.3950,-1.6400,0.0903,-0.1503,-0.0810,-58.9500,40.9500,39.3000,9.7205,0.9720,0.2179,0.1287,0.0037,0.0368,-53.1000,12.9000,1.3500,3.2300,3.9300,-8.1300,-0.0218,0.0589,-0.0153,-25.5000,-27.5000,18.3750,227.4375,19.3750,-152.6875,0
191.801,9.0644,3.3567,-1.5634,0.1418,-0.1298,-0.0743,-58.0500,41.2500,38.1000,9.6989,1.0798,0.1939,0.1498,0.0083,0.0416,-54.1500,12.4500,0.3000,3.2800,3.9500,-8.1500,-0.0153,0.0589,-0.0153,-25.5000,-27.0625,17.5625,227.3750,19.3750,-152.6875,0
191.806,9.0644,3.3567,-1.5634,0.1418,-0.1298,-0.0743,-58.0500,41.2500,38.1000,9.6989,1.0798,0.1939,0.1498,0.0083,0.0416,-54.1500,12.4500,0.3000,3.2800,3.9500,-8.1500,-0.0153,0.0589,-0.0153,-25.5000,-27.0625,17.5625,227.3750,19.3750,-152.6875,0
191.810,9.0956,3.2944,-1.6640,0.1756,-0.1183,-0.0669,-56.1000,40.9500,39.6000,9.6893,0.9290,0.1508,0.1697,0.0117,0.0357,-52.9500,13.0500,3.4500,3.2800,3.9500,-8.1500,-0.0098,0.0622,-0.0240,-25.5000,-27.0625,17.5625,227.3750,19.4375,-152.6875,0
191.816,9.0956,3.2944,-1.6640,0.1756,-0.1183,-0.0669,-56.1000,40.9500,39.6000,9.6893,0.9290,0.1508,0.1697,0.0117,0.0357,-52.9500,13.0500,3.4500,3.3400,3.8600,-8.1600,-0.0098,0.0622,-0.0240,-25.5000,-27.0625,17.5625,227.3750,19.4375,-152.6875,0
191.820,9.1387,3.2322,-1.6903,0.1665,-0.0845,-0.0666,-56.5500,42.3000,38.7000,9.7205,0.8811,0.0096,0.1849,0.0093,0.0365,-52.9500,13.0500,3.4500,3.3400,3.8600,-8.1600,-0.0076,0.0545,-0.0251,-25.5000,-27.0625,17.5625,227.3750,19.4375,-152.6875,0
191.826,9.1387,3.2322,-1.6903,0.1665,-0.0845,-0.0666,-56.5500,42.3000,38.7000,9.7205,0.8811,0.0096,0.1849,0.0093,0.0365,-52.9500,13.0500,3.4500,3.3100,3.8400,-8.1500,-0.0076,0.0545,-0.0251,-25.5000,-27.0625,17.5625,227.3750,19.5000,-152.6875,0
191.835,9.0357,3.1220,-1.8268,0.1657,-0.0698,-0.0552,-56.5500,42.3000,38.7000,9.6654,0.6919,-0.1628,0.2113,0.0056,0.0256,-53.2500,13.0500,1.2000,3.2800,3.8700,-8.1800,0.0011,0.0567,-0.0262,-25.5000,-27.0625,17.5625,227.3750,19.5000,-152.6875,0
191.842,9.0525,3.0047,-1.8555,0.1719,-0.0538,-0.0552,-57.4500,40.6500,37.2000,9.6414,0.6416,0.0263,0.2204,-0.0043,0.0160,-53.2500,13.0500,1.2000,3.3700,3.7300,-8.2600,-0.0033,0.0491,-0.0316,-25.5000,-27.0625,17.5625,227.3125,19.5000,-152.7500,0
191.847,9.1578,2.8276,-1.9944,0.1828,-0.0325,-0.0597,-57.3000,41.2500,38.1000,9.6151,0.6177,0.0144,0.2142,0.0056,0.0168,-53.2500,13.0500,1.2000,3.3700,3.7300,-8.2600,-0.0033,0.0491,-0.0316,-25.5000,-27.0625,17.5625,227.3125,19.5000,-152.7500,0
191.851,9.1578,2.8276,-1.9944,0.1828,-0.0325,-0.0597,-57.3000,41.2500,38.1000,9.6151,0.6177,0.0144,0.2142,0.0056,0.0168,-53.2500,12.6000,1.6500,3.3800,3.6800,-8.2500,-0.0207,0.0382,-0.0382,-24.3750,-27.7500,19.1875,227.3125,19.5625,-152.7500,0
191.856,9.0884,2.7629,-1.9944,0.1727,-0.0290,-0.0610,-57.3000,42.3000,38.1000,9.6654,0.5746,-0.1101,0.2134,0.0208,0.0187,-53.2500,12.6000,1.6500,3.3800,3.6800,-8.2500,-0.0207,0.0382,-0.0382,-24.3750,-27.7500,19.1875,227.3125,19.5625,-152.7500,0
191.861,9.0884,2.7629,-1.9944,0.1727,-0.0290,-0.0610,-57.3000,42.3000,38.1000,9.6654,0.5746,-0.1101,0.2134,0.0208,0.0187,-53.1000,12.4500,2.8500,3.3100,3.7900,-8.1900,-0.0360,0.0360,-0.0469,-24.3750,-27.7500,19.1875,227.3125,19.5625,-152.7500,0
191.866,9.2703,2.7031,-2.0686,0.1785,-0.0157,-0.0589,-57.7500,41.2500,39.4500,9.7348,0.6009,0.0215,0.2057,0.0195,0.0080,-53.1000,12.4500,2.8500,3.3100,3.7900,-8.1900,-0.0360,0.0360,-0.0469,-24.3750,-27.7500,19.1875,227.3125,19.5625,-152.7500,0
191.871,9.2703,2.7031,-2.0686,0.1785,-0.0157,-0.0589,-57.7500,41.2500,39.4500,9.7348,0.6009,0.0215,0.2057,0.0195,0.0080,-51.3000,12.6000,0.9000,3.3500,3.7200,-8.3000,-0.0589,0.0371,-0.0556,-24.3750,-27.7500,19.1875,227.2500,19.5625,-152.7500,0
191.876,9.1985,2.6528,-2.0877,0.1921,-0.0101,-0.0573,-57.7500,41.2500,39.4500,9.7588,0.7446,0.1915,0.1727,0.0125,0.0101,-51.3000,12.6000,0.9000,3.3500,3.7200,-8.3000,-0.0589,0.0371,-0.0556,-24.3750,-27.7500,19.1875,227.2500,19.5625,-152.7500,0
191.885,9.3087,2.6360,-2.1596,0.1913,-0.0208,-0.0514,-57.7500,41.2500,39.4500,9.7348,0.8140,0.0479,0.1306,0.0250,0.0120,-54.1500,12.9000,1.0500,3.3600,3.7600,-8.2200,-0.0807,0.0404,-0.0633,-24.3750,-27.7500,19.1875,227.2500,19.5625,-152.7500,0
191.890,9.3087,2.6360,-2.1596,0.1913,-0.0208,-0.0514,-57.7500,41.2500,39.4500,9.7348,0.8140,0.0479,0.1306,0.0250,0.0120,-53.8500,12.0000,1.8000,3.3600,3.7600,-8.2200,-0.0905,0.0338,-0.0687,-24.3750,-27.7500,19.1875,227.2500,19.6250,-152.6875,0
191.896,9.2943,2.5929,-2.2434,0.1713,-0.0314,-0.0642,-58.3500,43.0500,36.6000,9.7779,0.7877,0.0263,0.1071,0.0312,0.0077,-53.8500,12.0000,1.8000,3.3300,3.8700,-8.1300,-0.0905,0.0338,-0.0687,-24.3750,-27.7500,19.1875,227.2500,19.6250,-152.6875,0
191.901,9.2943,2.5929,-2.2434,0.1713,-0.0314,-0.0642,-58.3500,43.0500,36.6000,9.7779,0.7877,0.0263,0.1071,0.0312,0.0077,-53.1000,11.7000,1.8000,3.3300,3.8700,-8.1300,-0.0905,0.0338,-0.0687,-25.8750,-27.5000,19.1875,227.1875,19.6250,-152.6875,0
191.906,9.3254,2.6408,-2.2218,0.1314,-0.0482,-0.0701,-57.7500,43.0500,37.3500,9.6582,0.8499,-0.0311,0.0677,0.0405,0.0077,-53.1000,11.7000,1.8000,3.1900,3.6900,-8.1600,-0.0905,0.0393,-0.0731,-25.8750,-27.5000,19.1875,227.1875,19.6250,-152.6875,0
191.911,9.3254,2.6408,-2.2218,0.1314,-0.0482,-0.0701,-57.7500,43.0500,37.3500,9.6582,0.8499,-0.0311,0.0677,0.0405,0.0077,-53.1000,11.7000,1.8000,3.1900,3.6900,-8.1600,-0.0905,0.0393,-0.0731,-25.8750,-27.5000,19.1875,227.1875,19.6250,-152.6250,0
191.916,9.3278,2.6240,-2.2314,0.0802,-0.0743,-0.0823,-56.4000,40.2000,38.5500,9.6989,0.8308,-0.3879,0.0775,0.0544,0.0088,-53.1000,11.7000,1.8000,3.3000,4.3200,-7.9600,-0.0949,0.0382,-0.0676,-25.8750,-27.5000,19.1875,227.1875,19.6250,-152.6250,0
191.921,9.3278,2.6240,-2.2314,0.0802,-0.0743,-0.0823,-56.4000,40.2000,38.5500,9.6989,0.8308,-0.3879,0.0775,0.0544,0.0088,-51.6000,12.4500,2.5500,3.3000,4.3200,-7.9600,-0.0927,0.0480,-0.0829,-25.8750,-27.5000,19.1875,227.1250,19.6250,-152.5625,0
191.926,9.1267,2.6600,-2.2122,0.0043,-0.0698,-0.0829,-58.2000,41.7000,37.5000,9.6127,0.8906,-0.0024,0.1340,0.0410,-0.0011,-51.6000,12.4500,2.5500,3.1000,4.4100,-8.0700,-0.0927,0.0480,-0.0829,-25.8750,-27.5000,19.1875,227.0625,19.6250,-152.5000,0
191.935,9.1339,2.6240,-2.2051,-0.0717,-0.0682,-0.0927,-58.2000,41.7000,37.5000,9.5026,0.8045,0.1389,0.1431,0.0602,-0.0080,-55.3500,12.4500,0.6000,3.3100,3.6400,-8.2200,-0.0720,0.0545,-0.0938,-25.8750,-27.5000,19.1875,227.0625,19.6250,-152.5000,0
191.945,9.0908,2.5762,-2.1428,-0.1367,-0.0679,-0.1037,-58.9500,42.4500,37.5000,9.6271,0.6752,-0.0144,0.0917,0.0560,-0.0013,-52.6500,12.0000,0.3000,3.3900,3.7000,-8.2500,-0.0785,0.0436,-0.0654,-25.8750,-27.5000,19.1875,227.0625,19.6250,-152.4375,0
191.950,9.0908,2.5762,-2.1428,-0.1367,-0.0679,-0.1037,-58.9500,42.4500,37.5000,9.6271,0.6752,-0.0144,0.0917,0.0560,-0.0013,-53.2500,13.0500,1.9500,3.3900,3.7000,-8.2500,-0.0785,0.0436,-0.0654,-25.8750,-27.5000,19.1875,227.0625,19.6250,-152.4375,0
191.955,8.9998,2.7246,-2.1141,-0.1825,-0.0765,-0.1050,-58.6500,42.4500,37.8000,9.6654,0.5531,0.0048,0.0282,0.0570,0.0011,-53.2500,13.0500,1.9500,3.2100,4.0100,-7.9600,-0.1014,-0.0022,-0.0436,-24.6875,-27.7500,19.5625,227.0000,19.6250,-152.3750,0
191.960,8.9998,2.7246,-2.1141,-0.1825,-0.0765,-0.1050,-58.6500,42.4500,37.8000,9.6654,0.5531,0.0048,0.0282,0.0570,0.0011,-53.1000,11.2500,2.5500,3.2100,4.0100,-7.9600,-0.1014,-0.0022,-0.0436,-24.6875,-27.7500,19.5625,227.0000,19.6250,-152.3750,0
191.965,8.9830,2.7725,-2.1213,-0.2140,-0.0714,-0.0997,-59.7000,41.7000,38.2500,9.6989,0.5315,-0.0431,-0.0253,0.0552,-0.0088,-53.1000,11.2500,2.5500,3.2500,4.0800,-8.0200,-0.1004,0.0055,-0.0469,-24.6875,-27.7500,19.5625,227.0000,19.6250,-152.3125,0
191.970,8.9830,2.7725,-2.1213,-0.2140,-0.0714,-0.0997,-59.7000,41.7000,38.2500,9.6989,0.5315,-0.0431,-0.0253,0.0552,-0.0088,-51.6000,12.9000,0.6000,3.2500,4.0800,-8.0200,-0.0873,0.0131,-0.0480,-24.6875,-27.7500,19.5625,227.0000,19.5625,-152.2500,0
191.976,9.0429,2.8754,-2.0997,-0.2334,-0.0711,-0.0959,-56.8500,42.1500,37.2000,9.6319,0.6153,0.0335,-0.0746,0.0658,-0.0128,-51.6000,12.9000,0.6000,3.2500,3.8500,-8.0900,-0.0873,0.0131,-0.0480,-24.6875,-27.7500,19.5625,227.0000,19.5625,-152.2500,0
191.984,8.9328,2.9568,-1.9968,-0.2521,-0.0810,-0.0890,-56.8500,42.1500,37.2000,9.6031,0.6153,-0.0048,-0.1071,0.0762,-0.0139,-51.6000,12.9000,0.6000,3.1900,3.8200,-8.0700,-0.0665,0.0164,-0.0382,-24.6875,-27.7500,19.5625,227.0000,19.6250,-152.2500,0
191.989,8.9328,2.9568,-1.9968,-0.2521,-0.0810,-0.0890,-56.8500,42.1500,37.2000,9.6031,0.6153,-0.0048,-0.1071,0.0762,-0.0139,-52.5000,12.9000,0.6000,3.1900,3.8200,-8.0700,-0.0665,0.0164,-0.0382,-24.6875,-27.7500,19.5625,227.0000,19.6250,-152.2500,0
191.996,8.9519,3.0622,-1.9632,-0.2318,-0.1130,-0.0901,-56.8500,42.1500,37.2000,9.5840,0.7638,0.0215,-0.1372,0.0765,-0.0107,-52.5000,13.0500,0.4500,3.2600,3.8100,-8.0900,-0.0633,0.0207,-0.0240,-24.6875,-27.7500,19.5625,227.0000,19.6250,-152.2500,0
192.001,8.9519,3.0622,-1.9632,-0.2318,-0.1130,-0.0901,-56.8500,42.1500,37.2000,9.5624,0.7709,-0.0120,-0.1609,0.0703,-0.0221,-52.5000,13.0500,0.4500,3.2600,3.8100,-8.0900,-0.0633,0.0207,-0.0240,-24.6875,-27.7500,19.5625,227.0000,19.6250,-152.2500,0
192.005,8.9256,3.1556,-1.9345,-0.2129,-0.0919,-0.0885,-57.1500,43.9500,36.7500,9.5624,0.7709,-0.0120,-0.1609,0.0703,-0.0221,-52.5000,13.0500,0.4500,3.3000,3.8600,-8.1000,-0.0600,0.0164,-0.0218,-25.0625,-27.7500,18.7500,227.0000,19.6250,-152.2500,0
192.010,8.9256,3.1556,-1.9345,-0.2129,-0.0919,-0.0885,-57.1500,43.9500,36.7500,9.6367,0.9194,-0.0694,-0.1569,0.0810,-0.0163,-54.6000,12.9000,1.8000,3.3000,3.8600,-8.1000,-0.0600,0.0164,-0.0218,-25.0625,-27.7500,18.7500,227.0000,19.6250,-152.2500,0
192.015,8.9256,3.1603,-1.9848,-0.1807,-0.1055,-0.0906,-57.1500,43.2000,38.2500,9.6367,0.9194,-0.0694,-0.1569,0.0810,-0.0163,-54.6000,12.9000,1.8000,3.2700,3.8200,-8.0900,-0.0567,0.0098,-0.0207,-25.0625,-27.7500,18.7500,227.0000,19.6250,-152.2500,0
192.020,8.9256,3.1603,-1.9848,-0.1807,-0.1055,-0.0906,-57.1500,43.2000,38.2500,9.6271,0.9409,0.0024,-0.1471,0.0853,-0.0184,-53.7000,12.3000,1.9500,3.2700,3.8200,-8.0900,-0.0469,0.0033,-0.0164,-25.0625,-27.7500,18.7500,227.0000,19.6250,-152.2500,0
192.026,9.0501,3.2753,-1.9561,-0.1612,-0.1154,-0.0919,-56.4000,42.4500,38.5500,9.6271,0.9409,0.0024,-0.1471,0.0853,-0.0184,-53.7000,12.3000,1.9500,3.2500,3.9200,-8.1100,-0.0469,0.0033,-0.0164,-25.0625,-27.7500,18.7500,227.0000,19.6250,-152.2500,0
192.034,8.9591,3.3998,-1.9968,-0.1276,-0.1122,-0.0911,-56.2500,42.3000,39.4500,9.5648,0.9625,0.0646,-0.1274,0.0839,-0.0160,-52.3500,13.9500,2.5500,3.2100,3.9200,-8.0700,-0.0360,0.0033,-0.0120,-25.0625,-27.7500,18.7500,227.0000,19.6250,-152.2500,0
192.039,8.9591,3.3998,-1.9968,-0.1276,-0.1122,-0.0911,-56.2500,42.3000,39.4500,9.6103,0.9840,0.0192,-0.1119,0.0919,-0.0200,-52.3500,13.9500,2.5500,3.2100,3.9200,-8.0700,-0.0360,0.0033,-0.0120,-25.0625,-27.7500,18.7500,227.0000,19.6250,-152.2500,0
192.046,8.9447,3.4093,-2.0830,-0.1266,-0.1260,-0.0925,-56.2500,42.3000,39.4500,9.6103,0.9840,0.0192,-0.1119,0.0919,-0.0200,-52.3500,12.9000,2.5500,3.2200,3.9100,-8.0400,-0.0218,0.0055,-0.0065,-25.0625,-27.7500,18.7500,227.0000,19.6250,-152.2500,0
192.051,8.9280,3.4261,-2.0279,-0.1191,-0.1282,-0.1005,-56.2500,42.3000,39.4500,9.6822,1.0032,0.0000,-0.1023,0.1037,-0.0218,-54.7500,11.8500,2.4000,3.2200,3.9100,-8.0400,-0.0087,0.0120,0.0033,-24.6875,-27.7500,18.7500,227.0000,19.6250,-152.2500,0
192.056,8.9280,3.4261,-2.0279,-0.1191,-0.1282,-0.1005,-58.6500,43.2000,38.5500,9.6822,1.0032,0.0000,-0.1023,0.1037,-0.0218,-54.7500,11.8500,2.4000,3.2200,3.9400,-8.0800,-0.0087,0.0120,0.0033,-24.6875,-27.7500,18.7500,227.0000,19.6250,-152.2500,0
192.065,8.9423,3.3567,-2.0853,-0.1178,-0.1271,-0.0826,-56.1000,42.1500,38.5500,9.7181,1.0247,0.0742,-0.0757,0.0973,-0.0213,-52.5000,12.6000,1.9500,3.2300,3.9400,-8.1200,0.0055,0.0164,0.0087,-24.6875,-27.7500,18.7500,227.0000,19.6250,-152.2500,0
192.070,8.9663,3.4500,-2.0758,-0.1199,-0.1148,-0.0794,-56.1000,42.1500,38.5500,9.6486,1.0175,0.0287,-0.0493,0.0946,-0.0258,-52.5000,12.6000,1.9500,3.2300,3.9400,-8.1200,0.0164,0.0229,0.0098,-24.6875,-27.7500,18.7500,227.0000,19.6250,-152.3125,0
192.076,8.9663,3.4500,-2.0758,-0.1199,-0.1148,-0.0794,-56.4000,41.7000,37.5000,9.6486,1.0175,0.0287,-0.0493,0.0946,-0.0258,-52.5000,12.6000,1.9500,3.2700,3.9600,-8.1200,0.0164,0.0229,0.0098,-24.6875,-27.7500,18.7500,227.0000,19.6250,-152.3125,0
192.085,8.9471,3.4548,-2.0399,-0.1082,-0.1058,-0.0818,-56.5500,43.5000,38.4000,9.5720,0.8859,0.1532,-0.0488,0.0946,-0.0264,-52.5000,11.8500,3.4500,3.3800,3.8500,-8.1800,0.0175,0.0262,0.0033,-24.6875,-27.7500,18.7500,227.0000,19.6875,-152.3125,0
192.092,8.9759,3.4333,-2.0279,-0.0802,-0.0853,-0.0831,-59.2500,44.4000,39.0000,9.6391,0.9194,0.1891,-0.0474,0.0895,-0.0277,-52.5000,11.8500,3.4500,3.3400,3.8200,-8.1300,0.0087,0.0196,0.0011,-24.6875,-27.7500,18.7500,227.0000,19.6875,-152.3750,0
192.097,8.9759,3.4333,-2.0279,-0.0802,-0.0853,-0.0831,-59.2500,44.4000,39.0000,9.6917,0.9577,0.1796,-0.0589,0.0874,-0.0163,-52.5000,11.8500,3.4500,3.3400,3.8200,-8.1300,0.0087,0.0196,0.0011,-24.6875,-27.7500,18.7500,227.0000,19.6875,-152.3750,0
192.102,8.9663,3.4165,-2.0183,-0.0544,-0.0957,-0.0853,-59.2500,44.4000,39.0000,9.6917,0.9577,0.1796,-0.0589,0.0874,-0.0163,-53.7000,13.8000,1.2000,3.3100,3.8200,-8.0800,0.0055,0.0065,-0.0022,-24.6875,-28.0625,18.0000,227.0000,19.6875,-152.3750,0
192.106,8.9663,3.4165,-2.0183,-0.0544,-0.0957,-0.0853,-59.2500,44.4000,39.0000,9.6391,0.8978,0.1939,-0.0677,0.0989,-0.0136,-53.7000,13.8000,1.2000,3.3100,3.8200,-8.0800,0.0055,0.0065,-0.0022,-24.6875,-28.0625,18.0000,227.0000,19.6875,-152.4375,0
192.116,8.9232,3.3782,-1.9992,-0.0434,-0.0941,-0.0903,-55.8000,43.5000,37.3500,9.7731,1.0199,0.1915,-0.0685,0.0994,-0.0117,-52.3500,12.0000,2.5500,3.2600,3.8900,-8.1400,0.0087,0.0033,0.0000,-24.6875,-28.0625,18.0000,227.0000,19.6875,-152.4375,0
192.122,8.9615,3.3854,-2.0662,-0.0458,-0.0682,-0.0855,-57.9000,44.4000,36.7500,9.7731,1.0199,0.1915,-0.0685,0.0994,-0.0117,-53.2500,13.8000,1.9500,3.2100,3.9200,-8.0700,0.0120,0.0109,0.0011,-24.6875,-28.0625,18.0000,227.0000,19.6875,-152.4375,0
192.127,8.9471,3.3830,-2.0207,-0.0461,-0.0637,-0.0802,-57.9000,44.4000,36.7500,9.7157,1.1061,0.2394,-0.0738,0.0853,-0.0131,-53.2500,13.8000,1.9500,3.2100,3.9200,-8.0700,0.0120,0.0109,0.0011,-24.6875,-28.0625,18.0000,227.0000,19.6875,-152.4375,0
192.136,8.9471,3.3830,-2.0207,-0.0461,-0.0637,-0.0802,-56.5500,43.8000,37.6500,9.6582,0.9960,0.3472,-0.0730,0.0839,-0.0147,-53.8500,11.2500,3.3000,3.2100,3.9400,-8.0700,0.0185,0.0218,0.0087,-24.6875,-28.0625,18.0000,227.0000,19.6875,-152.4375,0
192.143,9.0214,3.3543,-1.9249,-0.0370,-0.0610,-0.0789,-58.0500,43.0500,37.3500,9.6582,0.9960,0.3472,-0.0730,0.0839,-0.0147,-53.8500,11.2500,3.3000,3.2500,3.9400,-8.1000,0.0262,0.0360,0.0153,-24.6875,-28.0625,18.0000,227.0000,19.7500,-152.5000,0
192.148,9.0022,3.3686,-1.9178,-0.0157,-0.0461,-0.0818,-58.0500,43.0500,37.3500,9.6893,1.0175,0.3376,-0.0746,0.0765,-0.0088,-53.8500,11.2500,3.3000,3.2500,3.9400,-8.1000,0.0262,0.0360,0.0153,-24.6875,-28.0625,18.0000,227.0000,19.7500,-152.5000,0
192.153,9.0022,3.3686,-1.9178,-0.0157,-0.0461,-0.0818,-58.0500,43.0500,37.3500,9.6893,1.0175,0.3376,-0.0746,0.0765,-0.0088,-51.6000,12.4500,1.3500,3.2500,3.9200,-8.0800,0.0360,0.0360,0.0207,-24.6875,-27.7500,18.3750,227.0000,19.7500,-152.5000,0
192.158,9.0908,3.3088,-1.8507,-0.0213,-0.0301,-0.0642,-58.0500,43.0500,37.3500,9.6917,1.0104,0.4070,-0.0695,0.0807,-0.0083,-51.6000,12.4500,1.3500,3.2500,3.9200,-8.0800,0.0360,0.0360,0.0207,-24.6875,-27.7500,18.3750,227.0000,19.7500,-152.5000,0
192.163,9.0908,3.3088,-1.8507,-0.0213,-0.0301,-0.0642,-56.8500,41.7000,37.5000,9.6917,1.0104,0.4070,-0.0695,0.0807,-0.0083,-51.6000,12.4500,1.3500,3.2700,3.9200,-8.0700,0.0447,0.0469,0.0251,-24.6875,-27.7500,18.3750,227.0000,19.8125,-152.5625,0
192.167,8.9830,3.3112,-1.9178,-0.0120,-0.0168,-0.0648,-56.8500,41.7000,37.5000,9.5840,0.9194,0.4693,-0.0762,0.0773,0.0008,-51.6000,12.4500,1.3500,3.2700,3.9200,-8.0700,0.0447,0.0469,0.0251,-24.6875,-27.7500,18.3750,227.0000,19.8125,-152.5625,0
192.172,8.9830,3.3112,-1.9178,-0.0120,-0.0168,-0.0648,-57.0000,42.7500,37.6500,9.7133,0.9553,0.4741,-0.0762,0.0773,0.0008,-53.1000,11.7000,1.3500,3.3100,3.9200,-8.1400,0.0513,0.0491,0.0316,-24.6875,-27.7500,18.3750,227.0000,19.8125,-152.6250,0
192.177,8.9950,3.2226,-1.9058,-0.0171,-0.0213,-0.0570,-57.0000,42.7500,37.6500,9.7133,0.9553,0.4741,-0.0925,0.0727,-0.0032,-53.1000,11.7000,1.3500,3.3100,3.9200,-8.1400,0.0513,0.0491,0.0316,-24.6875,-27.7500,18.3750,227.0625,19.8750,-152.6875,0
192.186,8.8705,3.3136,-1.8866,-0.0091,-0.0176,-0.0520,-58.2000,42.1500,36.7500,9.6391,0.8811,0.4956,-0.1170,0.0618,-0.0003,-53.4000,13.2000,1.8000,3.3500,3.8400,-8.1100,0.0589,0.0513,0.0305,-24.6875,-27.7500,18.3750,227.0625,19.8750,-152.6875,0
192.192,8.8705,3.3136,-1.8866,-0.0091,-0.0176,-0.0520,-57.4500,43.2000,39.0000,9.6893,0.9625,0.3903,-0.1170,0.0618,-0.0003,-52.9500,12.6000,3.0000,3.3200,3.8400,-8.1000,0.0665,0.0480,0.0305,-24.6875,-27.7500,18.3750,227.0625,19.8750,-152.7500,0
192.197,8.8777,3.2729,-1.8938,0.0016,-0.0048,-0.0458,-57.4500,43.2000,39.0000,9.6893,0.9625,0.3903,-0.1250,0.0621,0.0037,-52.9500,12.6000,3.0000,3.3200,3.8400,-8.1000,0.0665,0.0480,0.0305,-24.6875,-27.7500,18.3750,227.0625,19.8750,-152.7500,0
192.202,8.8777,3.2729,-1.8938,0.0016,-0.0048,-0.0458,-57.4500,45.4500,37.5000,9.6989,0.8499,0.3926,-0.1250,0.0621,0.0037,-52.3500,13.2000,4.0500,3.3100,3.8400,-8.0900,0.0709,0.0404,0.0327,-25.5000,-27.7500,18.7500,227.0625,19.9375,-152.7500,0
192.207,8.9591,3.2537,-1.8723,0.0155,-0.0048,-0.0397,-57.4500,45.4500,37.5000,9.6989,0.8499,0.3926,-0.1364,0.0549,0.0069,-52.3500,13.2000,4.0500,3.3100,3.8400,-8.0900,0.0709,0.0404,0.0327,-25.5000,-27.7500,18.7500,227.0625,19.9375,-152.7500,0
192.212,8.9591,3.2537,-1.8723,0.0155,-0.0048,-0.0397,-57.4500,45.4500,37.5000,9.7133,0.9098,0.3543,-0.1276,0.0552,0.0027,-51.1500,13.2000,1.8000,3.3200,3.8600,-8.1200,0.0753,0.0447,0.0349,-25.5000,-27.7500,18.7500,227.0625,19.9375,-152.8125,0
192.217,8.9567,3.2633,-1.8172,0.0370,-0.0064,-0.0330,-57.4500,45.4500,37.5000,9.7133,0.9098,0.3543,-0.1276,0.0552,0.0027,-51.1500,13.2000,1.8000,3.3200,3.8600,-8.1200,0.0753,0.0447,0.0349,-25.5000,-27.7500,18.7500,227.0625,19.9375,-152.8125,0
192.221,8.9567,3.2633,-1.8172,0.0370,-0.0064,-0.0330,-56.8500,42.9000,37.8000,9.6726,0.9625,0.3448,-0.1226,0.0525,-0.0016,-53.2500,13.5000,1.2000,3.3200,3.8600,-8.1200,0.0829,0.0469,0.0393,-25.5000,-27.7500,18.7500,227.0625,20.0000,-152.8750,0
192.227,8.9495,3.1891,-1.9441,0.0400,0.0019,-0.0325,-56.8500,42.9000,37.8000,9.6726,0.9625,0.3448,-0.1226,0.0525,-0.0016,-53.2500,13.5000,1.2000,3.3200,3.9100,-8.1400,0.0829,0.0469,0.0393,-25.5000,-27.7500,18.7500,227.0625,20.0000,-152.8750,0
192.236,9.0237,3.2298,-2.0446,0.0504,0.0035,-0.0346,-57.0000,43.8000,38.4000,9.7013,0.9529,0.4070,-0.1202,0.0506,-0.0040,-53.2500,13.5000,1.2000,3.3100,3.8700,-8.1100,0.0993,0.0447,0.0371,-25.5000,-27.7500,18.7500,227.0625,20.0000,-153.0000,0
192.241,9.0237,3.2298,-2.0446,0.0504,0.0035,-0.0346,-56.1000,45.1500,39.0000,9.6965,0.9792,0.3496,-0.1069,0.0600,-0.0013,-53.2500,13.5000,1.2000,3.3100,3.8700,-8.1100,0.1091,0.0513,0.0415,-25.5000,-27.7500,18.7500,227.0625,20.0625,-153.0625,0
192.247,9.0932,3.2489,-2.0207,0.0624,0.0069,-0.0333,-56.1000,45.1500,39.0000,9.6965,0.9792,0.3496,-0.1069,0.0600,-0.0013,-53.1000,12.0000,2.5500,3.3200,3.8900,-8.1100,0.1091,0.0513,0.0415,-25.5000,-27.7500,18.7500,227.0625,20.0625,-153.0625,0
192.252,9.0932,3.2489,-2.0207,0.0624,0.0069,-0.0333,-57.3000,44.5500,38.4000,9.7085,0.9744,0.4357,-0.0863,0.0496,-0.0019,-53.1000,12.0000,2.5500,3.3200,3.8900,-8.1100,0.1091,0.0513,0.0415,-25.5000,-28.0625,18.7500,227.0625,20.1250,-153.1250,0
192.257,9.0956,3.1987,-2.0423,0.0703,0.0133,-0.0208,-57.3000,44.5500,38.4000,9.7085,0.9744,0.4357,-0.0863,0.0496,-0.0019,-53.1000,12.0000,2.5500,3.3400,3.9100,-8.1500,0.1167,0.0535,0.0425,-25.5000,-28.0625,18.7500,227.0625,20.1250,-153.1250,0
192.262,9.0956,3.1987,-2.0423,0.0703,0.0133,-0.0208,-57.3000,44.5500,38.4000,9.7037,1.0271,0.4334,-0.0815,0.0469,-0.0005,-52.2000,12.3000,1.9500,3.3400,3.9100,-8.1500,0.1167,0.0535,0.0425,-25.5000,-28.0625,18.7500,227.0625,20.1250,-153.1875,0
192.267,9.1075,3.1795,-2.0207,0.0642,0.0061,-0.0197,-57.3000,44.5500,38.4000,9.7037,1.0271,0.4334,-0.0815,0.0469,-0.0005,-52.2000,12.3000,1.9500,3.3700,3.8700,-8.1200,0.1233,0.0578,0.0415,-25.5000,-28.0625,18.7500,227.0625,20.1250,-153.1875,0
192.272,9.1219,3.0933,-2.0303,0.0330,0.0013,-0.0208,-58.0500,43.5000,39.1500,9.6965,0.8691,0.5195,-0.0866,0.0365,-0.0003,-52.2000,12.3000,1.9500,3.3700,3.8700,-8.1200,0.1254,0.0622,0.0415,-25.5000,-28.0625,18.7500,227.1250,20.1875,-153.3125,0
192.277,9.1219,3.0933,-2.0303,0.0330,0.0013,-0.0208,-58.0500,43.5000,39.1500,9.6965,0.8691,0.5195,-0.0866,0.0365,-0.0003,-52.3500,12.9000,2.1000,3.3600,3.8100,-8.1300,0.1254,0.0622,0.0415,-25.5000,-28.0625,18.7500,227.1250,20.1875,-153.3125,0
192.286,9.0812,3.0861,-2.0997,0.0477,0.0075,-0.0163,-57.4500,44.4000,37.5000,9.6798,0.8835,0.4764,-0.0967,0.0389,-0.0005,-52.6500,13.6500,1.8000,3.4000,3.7900,-8.1700,0.1265,0.0567,0.0425,-25.5000,-28.0625,18.7500,227.1250,20.2500,-153.3750,0
192.290,9.0812,3.0861,-2.0997,0.0477,0.0075,-0.0163,-56.8500,42.1500,36.7500,9.7348,0.8859,0.4046,-0.1106,0.0301,0.0016,-52.6500,13.6500,1.8000,3.4000,3.7900,-8.1700,0.1254,0.0480,0.0436,-25.5000,-28.0625,18.7500,227.1250,20.2500,-153.4375,0
192.297,9.0046,3.0742,-2.0111,0.0360,0.0083,-0.0232,-56.8500,42.1500,36.7500,9.7348,0.8859,0.4046,-0.1106,0.0301,0.0016,-53.7000,12.3000,1.9500,3.4100,3.7700,-8.1400,0.1254,0.0480,0.0436,-25.5000,-28.0625,18.7500,227.1250,20.2500,-153.4375,0
192.302,9.0908,3.0382,-2.0830,0.0173,0.0173,-0.0208,-57.3000,44.2500,37.0500,9.7372,0.8092,0.4334,-0.1282,0.0189,0.0021,-53.1000,13.6500,3.3000,3.4100,3.7700,-8.1400,0.1178,0.0447,0.0436,-25.0625,-27.7500,18.7500,227.1250,20.3125,-153.5625,0
192.307,9.0908,3.0382,-2.0830,0.0173,0.0173,-0.0208,-57.3000,44.2500,37.0500,9.7324,0.7542,0.4357,-0.1282,0.0189,0.0021,-53.1000,13.6500,3.3000,3.4300,3.7400,-8.1900,0.1178,0.0447,0.0436,-25.0625,-27.7500,18.7500,227.1250,20.3125,-153.5625,0
192.312,9.0214,3.0478,-2.0925,-0.0011,0.0181,-0.0240,-57.3000,43.5000,38.4000,9.7324,0.7542,0.4357,-0.1372,0.0064,0.0013,-53.1000,13.6500,3.3000,3.4300,3.7400,-8.1900,0.1058,0.0404,0.0415,-25.0625,-27.7500,18.7500,227.1250,20.3125,-153.6250,0
192.317,9.0214,3.0478,-2.0925,-0.0011,0.0181,-0.0240,-57.3000,43.5000,38.4000,9.7324,0.8236,0.4022,-0.1372,0.0064,0.0013,-52.9500,12.6000,4.2000,3.4200,3.7400,-8.2000,0.1058,0.0404,0.0415,-25.0625,-27.7500,18.7500,227.1250,20.3125,-153.6250,0
192.322,9.1123,3.0215,-2.0327,-0.0136,0.0123,-0.0216,-57.3000,43.5000,38.4000,9.7324,0.8236,0.4022,-0.1506,0.0059,0.0029,-52.9500,12.6000,4.2000,3.4200,3.7400,-8.2000,0.0971,0.0338,0.0393,-25.0625,-27.7500,18.7500,227.1250,20.3750,-153.6875,0
192.327,9.1123,3.0215,-2.0327,-0.0136,0.0123,-0.0216,-57.3000,43.5000,38.4000,9.7157,0.8452,0.5267,-0.1612,-0.0021,0.0005,-52.9500,12.6000,4.2000,3.4000,3.7400,-8.2200,0.0971,0.0338,0.0393,-25.0625,-27.7500,18.7500,227.1250,20.3750,-153.6875,0
192.336,9.1195,3.0789,-2.0446,-0.0218,0.0141,-0.0120,-57.4500,43.6500,36.4500,9.7636,0.9242,0.4597,-0.1612,-0.0021,0.0005,-54.1500,15.1500,3.6000,3.4100,3.7400,-8.2200,0.0829,0.0305,0.0371,-25.0625,-27.7500,18.7500,227.1250,20.3750,-153.7500,0
192.341,9.0884,3.1340,-1.9872,-0.0320,0.0192,-0.0195,-58.6500,42.9000,36.4500,9.7636,0.9242,0.4597,-0.1684,-0.0019,-0.0027,-54.1500,15.1500,3.6000,3.4100,3.7400,-8.2200,0.0644,0.0273,0.0360,-25.0625,-27.7500,18.7500,227.1875,20.4375,-153.8125,0
192.347,9.0884,3.1340,-1.9872,-0.0320,0.0192,-0.0195,-58.6500,42.9000,36.4500,9.6893,0.9002,0.4573,-0.1780,0.0005,-0.0003,-53.1000,13.6500,1.8000,3.4100,3.7600,-8.2500,0.0644,0.0273,0.0360,-25.0625,-27.7500,18.7500,227.1875,20.4375,-153.8125,0
192.352,9.0788,3.0646,-2.0039,-0.0506,0.0128,-0.0184,-57.4500,43.9500,38.2500,9.6893,0.9002,0.4573,-0.1780,0.0005,-0.0003,-53.1000,13.6500,1.8000,3.4100,3.7600,-8.2500,0.0644,0.0273,0.0360,-25.0625,-27.5000,19.1875,227.1875,20.4375,-153.8750,0
192.357,9.0788,3.0646,-2.0039,-0.0506,0.0128,-0.0184,-57.4500,43.9500,38.2500,9.6319,0.9840,0.4812,-0.1860,-0.0003,-0.0003,-52.5000,11.4000,3.0000,3.4100,3.7600,-8.1800,0.0545,0.0273,0.0349,-25.0625,-27.5000,19.1875,227.1875,20.4375,-153.8750,0
