timestamp,thigh_acc_x,thigh_acc_y,thigh_acc_z,thigh_gyro_x,thigh_gyro_y,thigh_gyro_z,thigh_mag_x,thigh_mag_y,thigh_mag_z,shank_acc_x,shank_acc_y,shank_acc_z,shank_gyro_x,shank_gyro_y,shank_gyro_z,shank_mag_x,shank_mag_y,shank_mag_z,foot_acc_x,foot_acc_y,foot_acc_z,foot_gyro_x,foot_gyro_y,foot_gyro_z,foot_mag_x,foot_mag_y,foot_mag_z,foot_euler_x,foot_euler_y,foot_euler_z,perturbation_event
1777067622.045,8.9950,3.5889,-1.8483,-0.0727,0.0797,0.0237,-43.5000,31.5000,30.6000,9.7683,0.7901,-0.4214,-0.0003,-0.0179,-0.0141,-54.7500,0.4500,9.3000,3.5400,3.0300,-8.7200,0.0044,-0.0065,0.0142,-26.3750,-18.3750,23.7500,240.5000,21.0625,-161.0000,0
1777067622.054,9.0668,3.4812,-1.9178,-0.0520,0.1002,0.0338,-43.2000,31.5000,31.3500,9.6414,0.7278,-0.4597,0.0043,-0.0272,-0.0117,-54.7500,2.1000,9.3000,3.5800,3.0300,-8.6900,0.0109,-0.0033,0.0131,-26.3750,-18.3750,23.7500,240.5000,21.0625,-161.0000,0
1777067622.061,9.0884,3.4357,-1.9609,-0.0298,0.1039,0.0402,-43.2000,31.5000,31.3500,9.6391,0.6081,-0.4788,0.0131,-0.0402,-0.0187,-54.7500,2.1000,9.3000,3.5800,3.0000,-8.6900,0.0218,-0.0022,0.0131,-26.3750,-18.3750,23.7500,240.5000,21.0625,-161.0000,0
1777067622.066,9.0884,3.4357,-1.9609,-0.0298,0.1039,0.0402,-43.2000,31.5000,31.3500,9.6391,0.6081,-0.4788,0.0131,-0.0402,-0.0187,-54.0000,1.3500,9.7500,3.5800,3.0000,-8.6900,0.0218,-0.0022,0.0131,-26.3750,-18.3750,23.7500,240.5000,21.0625,-161.0625,0
1777067622.074,8.9998,3.4189,-1.8866,-0.0293,0.0959,0.0288,-43.2000,31.5000,31.3500,9.6007,0.6033,-0.5195,0.0000,-0.0378,-0.0157,-54.0000,1.3500,9.7500,3.6300,2.9400,-8.7300,0.0305,-0.0055,0.0153,-26.3750,-18.3750,23.7500,240.5000,21.0625,-161.0625,0
1777067622.083,8.9759,3.4812,-1.7885,-0.0346,0.0847,0.0269,-43.5000,31.8000,29.1000,9.7396,0.5435,-0.6321,0.0107,-0.0426,-0.0221,-53.1000,1.5000,9.7500,3.6100,2.9200,-8.7400,0.0349,-0.0055,0.0142,-26.3750,-18.3750,23.7500,240.5000,21.0625,-161.0625,0
1777067622.088,8.9064,3.4884,-1.7573,-0.0360,0.0887,0.0245,-42.9000,31.6500,30.7500,9.7396,0.5435,-0.6321,0.0107,-0.0426,-0.0221,-53.1000,1.5000,9.1500,3.6100,2.9200,-8.7400,0.0349,-0.0055,0.0142,-26.3750,-18.3750,23.7500,240.5000,21.0625,-161.0625,0
1777067622.093,8.9064,3.4884,-1.7573,-0.0360,0.0887,0.0245,-42.9000,31.6500,30.7500,9.7085,0.5100,-0.6512,0.0120,-0.0381,-0.0147,-53.1000,1.5000,9.1500,3.6100,2.8700,-8.7500,0.0316,0.0033,0.0098,-26.3750,-18.7500,22.5625,240.5000,21.0625,-161.0625,0
1777067622.097,8.8418,3.5051,-1.8316,-0.0144,0.1015,0.0504,-42.7500,31.0500,31.3500,9.7085,0.5100,-0.6512,0.0120,-0.0381,-0.0147,-54.7500,1.6500,8.7000,3.6100,2.8700,-8.7500,0.0316,0.0033,0.0098,-26.3750,-18.7500,22.5625,240.5000,21.0625,-161.0625,0
1777067622.102,8.8418,3.5051,-1.8316,-0.0144,0.1015,0.0504,-42.7500,31.0500,31.3500,9.6941,0.4741,-0.6345,0.0077,-0.0370,-0.0171,-54.7500,1.6500,8.7000,3.6000,2.8200,-8.7700,0.0262,0.0000,0.0044,-26.3750,-18.7500,22.5625,240.5000,21.0625,-161.1250,0
1777067622.107,8.9088,3.5075,-2.0255,0.0237,0.1159,0.0735,-42.9000,32.4000,30.4500,9.6175,0.5818,-0.7422,0.0077,-0.0370,-0.0171,-53.8500,0.3000,10.3500,3.6000,2.8200,-8.7700,0.0262,0.0000,0.0044,-26.3750,-18.7500,22.5625,240.5000,21.0625,-161.1250,0
1777067622.114,8.9088,3.5075,-2.0255,0.0237,0.1159,0.0735,-43.5000,31.8000,30.6000,9.6175,0.5818,-0.7422,0.0053,-0.0354,-0.0192,-54.6000,1.0500,8.4000,3.6100,2.8100,-8.7900,0.0175,0.0022,0.0022,-26.3750,-18.7500,22.5625,240.5000,21.0625,-161.1250,0
1777067622.119,8.9040,3.4931,-2.0782,0.0799,0.1196,0.0922,-43.5000,31.8000,30.6000,9.6798,0.6584,-0.8475,0.0045,-0.0309,-0.0226,-54.6000,1.0500,8.4000,3.6100,2.8100,-8.7900,0.0055,0.0065,-0.0022,-26.3750,-18.7500,22.5625,240.5000,21.0625,-161.1250,0
1777067622.125,8.8825,3.5003,-2.1524,0.1330,0.1354,0.1231,-43.5000,31.8000,30.6000,9.6798,0.6584,-0.8475,0.0045,-0.0309,-0.0226,-54.0000,0.9000,9.0000,3.5900,2.8100,-8.7800,0.0055,0.0065,-0.0022,-26.3750,-18.7500,22.5625,240.5000,21.0625,-161.1250,0
1777067622.134,9.0118,3.4357,-2.2625,0.1793,0.1583,0.1458,-44.2500,31.8000,30.1500,9.6414,0.7159,-0.8045,0.0147,-0.0181,-0.0096,-55.2000,-0.1500,9.7500,3.5700,2.8700,-8.7700,-0.0098,0.0109,-0.0044,-26.3750,-18.7500,22.5625,240.5000,21.0625,-161.1250,0
1777067622.139,9.0118,3.4357,-2.2625,0.1793,0.1583,0.1458,-44.2500,31.8000,30.1500,9.6486,0.7853,-0.8691,0.0317,-0.0336,-0.0059,-55.2000,-0.1500,9.7500,3.5700,2.8700,-8.7700,-0.0185,0.0142,-0.0055,-26.6875,-18.0625,23.0000,240.5000,21.0625,-161.1250,0
1777067622.145,9.0644,3.3806,-2.3511,0.2014,0.1474,0.1577,-43.6500,31.6500,30.4500,9.6486,0.7853,-0.8691,0.0317,-0.0336,-0.0059,-55.2000,-0.1500,9.7500,3.5900,2.9000,-8.7500,-0.0185,0.0142,-0.0055,-26.6875,-18.0625,23.0000,240.5000,21.0625,-161.1250,0
1777067622.154,9.0716,3.3758,-2.2601,0.1945,0.0879,0.1450,-45.0000,32.2500,29.8500,9.5792,0.6919,-0.9553,0.0261,-0.0218,-0.0075,-54.6000,2.2500,9.9000,3.6100,2.9400,-8.7100,-0.0218,0.0131,-0.0044,-26.6875,-18.0625,23.0000,240.5000,21.0625,-161.1250,0
1777067622.159,9.0716,3.3758,-2.2601,0.1945,0.0879,0.1450,-45.0000,32.2500,29.8500,9.6343,0.7135,-0.9673,-0.0019,-0.0099,-0.0035,-54.6000,2.2500,9.9000,3.6100,2.9400,-8.7100,-0.0196,0.0065,-0.0033,-26.6875,-18.0625,23.0000,240.5000,21.0625,-161.0625,0
1777067622.165,8.9854,3.3016,-2.1404,0.1591,0.0775,0.1279,-42.4500,31.0500,28.5000,9.6271,0.7087,-1.0630,-0.0019,-0.0099,-0.0035,-54.0000,0.9000,9.7500,3.6400,2.9200,-8.7300,-0.0196,0.0065,-0.0033,-26.6875,-18.0625,23.0000,240.5000,21.0625,-161.0625,0
1777067622.174,9.0285,3.2513,-2.2027,0.1050,0.0608,0.1002,-42.4500,31.0500,28.5000,9.6271,0.7087,-1.0630,-0.0298,-0.0029,-0.0013,-54.0000,0.4500,10.0500,3.5700,2.9400,-8.7600,-0.0207,0.0087,-0.0044,-26.6875,-18.0625,23.0000,240.5000,21.0625,-161.0625,0
1777067622.181,9.0285,3.2513,-2.2027,0.1050,0.0608,0.1002,-42.4500,31.0500,28.5000,9.6175,0.8236,-1.0343,-0.0312,0.0043,0.0008,-54.0000,0.4500,10.0500,3.5800,2.9100,-8.7500,-0.0207,0.0055,-0.0022,-26.6875,-18.0625,23.0000,240.5000,21.0625,-161.0625,0
1777067622.186,8.9759,3.2130,-2.1835,0.0301,0.0576,0.0714,-44.5500,31.8000,29.1000,9.6319,0.8523,-0.8787,-0.0493,0.0136,0.0149,-53.8500,1.0500,8.4000,3.5800,2.9100,-8.7500,-0.0207,0.0055,-0.0022,-26.6875,-18.0625,23.0000,240.5000,21.0625,-161.0625,0
1777067622.190,8.9759,3.2130,-2.1835,0.0301,0.0576,0.0714,-44.5500,31.8000,29.1000,9.6319,0.8523,-0.8787,-0.0493,0.0136,0.0149,-53.8500,1.0500,8.4000,3.6000,2.9100,-8.7500,-0.0218,0.0087,-0.0022,-26.6875,-18.0625,22.1875,240.5000,21.0625,-161.0625,0
1777067622.195,8.9256,3.2753,-2.2146,-0.0373,0.0674,0.0493,-44.1000,32.7000,31.0500,9.6295,0.9266,-0.9697,-0.0541,0.0368,0.0197,-52.9500,0.9000,8.2500,3.6000,2.9100,-8.7500,-0.0218,0.0087,-0.0022,-26.6875,-18.0625,22.1875,240.5000,21.0625,-161.0625,0
1777067622.205,8.9447,3.2226,-2.0638,-0.0725,0.0714,0.0365,-43.3500,30.9000,29.7000,9.6558,0.8691,-0.8212,-0.0501,0.0384,0.0272,-54.6000,1.0500,9.6000,3.6100,2.9200,-8.7100,-0.0207,0.0109,-0.0033,-26.6875,-18.0625,22.1875,240.5000,21.0625,-161.0625,0
1777067622.212,8.9783,3.2274,-2.0375,-0.1108,0.0624,0.0344,-45.1500,31.2000,30.4500,9.6558,0.8691,-0.8212,-0.0501,0.0384,0.0272,-54.6000,1.0500,9.6000,3.5700,2.9800,-8.7300,-0.0229,0.0120,-0.0011,-26.6875,-18.0625,22.1875,240.5000,21.1250,-161.0000,0
1777067622.217,8.9783,3.2274,-2.0375,-0.1108,0.0624,0.0344,-45.1500,31.2000,30.4500,9.6151,0.9002,-0.8188,-0.0480,0.0456,0.0314,-54.6000,1.0500,9.6000,3.5700,2.9800,-8.7300,-0.0229,0.0120,-0.0011,-26.6875,-18.0625,22.1875,240.5000,21.1250,-161.0000,0
1777067622.225,9.0094,3.2872,-2.1261,-0.1540,0.0490,0.0410,-45.1500,31.2000,30.4500,9.6774,0.7661,-0.8236,-0.0546,0.0498,0.0266,-54.4500,1.6500,9.3000,3.5900,2.9900,-8.7000,-0.0185,0.0076,-0.0011,-26.6875,-18.0625,22.1875,240.5000,21.1250,-161.0000,0
1777067622.234,9.1147,3.1316,-1.9417,-0.1612,0.0442,0.0440,-45.1500,31.2000,30.4500,9.7420,0.6369,-0.6776,-0.0397,0.0528,0.0376,-54.4500,1.6500,9.3000,3.6000,2.9700,-8.7200,-0.0142,0.0044,0.0011,-26.6875,-18.0625,22.1875,240.5000,21.1250,-161.0000,0
1777067622.239,9.1147,3.1316,-1.9417,-0.1612,0.0442,0.0440,-45.1500,31.2000,30.4500,9.7420,0.6369,-0.6776,-0.0397,0.0528,0.0376,-54.4500,1.6500,9.3000,3.6000,2.9700,-8.7200,-0.0109,0.0076,0.0022,-26.3750,-17.6875,22.1875,240.5000,21.1250,-161.0000,0
1777067622.245,9.1147,3.0694,-1.8890,-0.1753,0.0493,0.0485,-44.4000,30.1500,29.7000,9.6438,0.5291,-0.6105,-0.0416,0.0554,0.0320,-53.1000,0.7500,9.9000,3.6100,2.9800,-8.7200,-0.0109,0.0076,0.0022,-26.3750,-17.6875,22.1875,240.5000,21.1250,-161.0000,0
1777067622.255,9.1243,3.1005,-1.8124,-0.2100,0.0304,0.0349,-44.1000,31.2000,31.5000,9.6103,0.3687,-0.6464,-0.0677,0.0557,0.0384,-53.1000,0.7500,9.9000,3.6200,2.9000,-8.7200,-0.0065,0.0044,0.0011,-26.3750,-17.6875,22.1875,240.5000,21.1250,-161.0000,0
1777067622.263,8.9783,2.9497,-1.9201,-0.2928,0.0192,0.0474,-42.9000,30.9000,31.0500,9.7420,0.3974,-0.6680,-0.0973,0.0552,0.0352,-54.7500,1.6500,8.7000,3.6000,2.8300,-8.7400,-0.0076,0.0000,0.0011,-26.3750,-17.6875,22.1875,240.5000,21.1250,-161.0000,0
1777067622.267,8.9783,2.9497,-1.9201,-0.2928,0.0192,0.0474,-42.9000,30.9000,31.0500,9.7420,0.3974,-0.6680,-0.0973,0.0552,0.0352,-53.1000,1.5000,8.8500,3.6000,2.8300,-8.7400,-0.0076,0.0000,0.0011,-26.3750,-17.6875,22.1875,240.5000,21.1250,-161.0000,0
1777067622.275,9.0764,3.1484,-1.7430,-0.2252,0.0296,0.0554,-43.5000,32.5500,30.9000,9.6582,0.3998,-0.5602,-0.1079,0.0498,0.0378,-53.1000,1.5000,8.8500,3.6000,2.8200,-8.7300,-0.0120,0.0000,0.0000,-26.3750,-17.6875,22.1875,240.5000,21.1250,-161.0000,0
1777067622.283,9.0477,3.1053,-1.8340,-0.1692,0.0687,0.0671,-43.5000,32.5500,30.9000,9.6798,0.5387,-0.6225,-0.1162,0.0445,0.0312,-54.7500,1.3500,10.0500,3.6100,2.8100,-8.7600,-0.0229,-0.0011,-0.0022,-26.3750,-17.6875,22.1875,240.5000,21.1250,-161.0000,0
1777067622.288,9.0477,3.1053,-1.8340,-0.1692,0.0687,0.0671,-43.5000,32.5500,30.9000,9.6798,0.5387,-0.6225,-0.1162,0.0445,0.0312,-54.7500,1.3500,10.0500,3.6100,2.8100,-8.7600,-0.0229,-0.0011,-0.0022,-26.3750,-17.6875,22.1875,240.5000,21.1250,-161.0000,0
1777067622.293,9.1746,3.0789,-1.8794,-0.1210,0.0576,0.0762,-43.6500,30.1500,30.7500,9.7492,0.6680,-0.6033,-0.1268,0.0450,0.0344,-54.7500,1.3500,10.0500,3.5900,2.7700,-8.7700,-0.0360,0.0044,-0.0033,-26.6875,-18.0625,23.7500,240.5000,21.1250,-161.0000,0
1777067622.297,9.1746,3.0789,-1.8794,-0.1210,0.0576,0.0762,-43.6500,30.1500,30.7500,9.7492,0.6680,-0.6033,-0.1268,0.0450,0.0344,-54.4500,2.1000,9.3000,3.5900,2.7700,-8.7700,-0.0360,0.0044,-0.0033,-26.6875,-18.0625,23.7500,240.5000,21.1250,-161.0000,0
1777067622.302,9.1626,3.1508,-1.7119,-0.1178,0.0373,0.0946,-42.7500,30.7500,30.9000,9.7564,0.7901,-0.4669,-0.0759,0.0472,0.0325,-54.4500,2.1000,9.3000,3.6100,2.8200,-8.7300,-0.0502,0.0055,-0.0055,-26.6875,-18.0625,23.7500,240.5000,21.1250,-160.9375,0
1777067622.307,9.1626,3.1508,-1.7119,-0.1178,0.0373,0.0946,-42.7500,30.7500,30.9000,9.7564,0.7901,-0.4669,-0.0759,0.0472,0.0325,-54.4500,2.1000,9.3000,3.6100,2.8200,-8.7300,-0.0502,0.0055,-0.0055,-26.6875,-18.0625,23.7500,240.5000,21.1250,-160.9375,0
1777067622.313,9.0692,3.1125,-1.5921,-0.0362,0.0325,0.1047,-43.2000,29.5500,31.6500,9.7971,0.6752,-0.4549,-0.0719,0.0389,0.0434,-54.4500,2.1000,9.3000,3.5400,2.8800,-8.7600,-0.0600,0.0131,-0.0087,-26.6875,-18.0625,23.7500,240.5000,21.1250,-160.9375,0
1777067622.318,9.3134,2.9928,-1.6807,-0.0250,0.0357,0.1031,-43.2000,29.5500,31.6500,9.7971,0.6752,-0.4549,-0.0719,0.0389,0.0434,-54.6000,-0.3000,9.1500,3.5400,2.8800,-8.7600,-0.0600,0.0131,-0.0087,-26.6875,-18.0625,23.7500,240.5625,21.1250,-160.8750,0
1777067622.325,9.3134,2.9928,-1.6807,-0.0250,0.0357,0.1031,-44.4000,30.4500,30.7500,9.7348,0.4645,-0.3328,-0.0661,0.0336,0.0378,-54.6000,-0.3000,9.1500,3.6000,2.9700,-8.7100,-0.0687,0.0175,-0.0087,-26.6875,-18.0625,23.7500,240.5625,21.1250,-160.8750,0
1777067622.333,9.2536,2.7078,-1.8292,-0.1351,-0.0024,0.0989,-44.4000,30.4500,30.7500,9.6199,0.3017,-0.3711,-0.1074,0.0024,0.0224,-53.8500,1.0500,9.9000,3.5500,2.9700,-8.6900,-0.0687,0.0185,-0.0087,-26.6875,-18.0625,23.7500,240.5625,21.1250,-160.8750,0
1777067622.338,9.2249,2.8276,-1.4365,-0.0853,-0.0266,0.0914,-44.4000,30.4500,30.7500,9.6798,0.3160,-0.2131,-0.1074,0.0024,0.0224,-54.6000,1.0500,9.1500,3.5500,2.9700,-8.6900,-0.0687,0.0185,-0.0087,-26.6875,-18.0625,23.7500,240.5625,21.1250,-160.8750,0
1777067622.343,9.2249,2.8276,-1.4365,-0.0853,-0.0266,0.0914,-43.6500,31.2000,28.6500,9.6798,0.3160,-0.2131,-0.1418,-0.0136,0.0203,-54.6000,1.0500,9.1500,3.5900,2.9400,-8.7000,-0.0654,0.0164,-0.0033,-26.3750,-17.2500,22.1875,240.5625,21.1250,-160.8125,0
1777067622.348,9.1722,2.6911,-1.5490,-0.1636,0.0128,0.0826,-43.6500,31.2000,28.6500,9.6798,0.3687,-0.1844,-0.1418,-0.0136,0.0203,-54.0000,1.3500,10.0500,3.5900,2.9400,-8.7000,-0.0654,0.0164,-0.0033,-26.3750,-17.2500,22.1875,240.5625,21.1250,-160.8125,0
1777067622.353,9.1722,2.6911,-1.5490,-0.1636,0.0128,0.0826,-43.3500,30.9000,30.0000,9.6798,0.3687,-0.1844,-0.1572,-0.0296,0.0218,-54.0000,1.3500,10.0500,3.6500,2.8400,-8.7100,-0.0622,0.0164,-0.0044,-26.3750,-17.2500,22.1875,240.5625,21.1250,-160.8125,0
1777067622.358,9.2943,2.6480,-1.2857,-0.1935,0.0016,0.0746,-43.3500,30.9000,30.0000,9.7779,0.4142,-0.3112,-0.1572,-0.0296,0.0218,-54.0000,1.3500,10.0500,3.6500,2.8400,-8.7100,-0.0622,0.0164,-0.0044,-26.3750,-17.2500,22.1875,240.5625,21.1875,-160.7500,0
1777067622.365,9.2943,2.6480,-1.2857,-0.1935,0.0016,0.0746,-43.9500,30.3000,31.3500,9.7779,0.4142,-0.3112,-0.1756,-0.0261,0.0248,-54.0000,1.3500,10.0500,3.6300,2.8800,-8.7400,-0.0698,0.0120,-0.0044,-26.3750,-17.2500,22.1875,240.5625,21.1875,-160.7500,0
1777067622.370,9.3230,2.5642,-1.1899,-0.2769,-0.0218,0.0789,-42.7500,30.3000,29.8500,9.9599,0.4884,-0.2035,-0.1735,-0.0392,0.0181,-53.4000,1.5000,9.6000,3.6300,2.8800,-8.7400,-0.0818,0.0120,-0.0087,-26.3750,-17.2500,22.1875,240.5625,21.1875,-160.6875,0
1777067622.376,9.3230,2.5642,-1.1899,-0.2292,0.0115,0.0839,-42.7500,30.3000,29.8500,9.9599,0.4884,-0.2035,-0.1735,-0.0392,0.0181,-53.4000,1.5000,9.6000,3.6200,2.7900,-8.8000,-0.0818,0.0120,-0.0087,-26.3750,-17.2500,22.1875,240.5625,21.1875,-160.6875,0
1777067622.385,9.2584,2.5019,-1.2234,-0.2292,0.0115,0.0839,-42.7500,30.3000,29.8500,9.8976,0.4693,-0.1532,-0.1436,-0.0392,0.0211,-53.4000,1.5000,9.6000,3.5900,2.8200,-8.7400,-0.1004,0.0229,-0.0109,-26.3750,-17.2500,22.1875,240.5625,21.1875,-160.6875,0
1777067622.389,9.3637,2.4900,-1.2689,-0.2345,0.0208,0.0938,-42.7500,30.3000,29.8500,9.6989,0.4262,-0.0383,-0.1311,-0.0573,0.0205,-54.1500,0.7500,9.6000,3.5900,2.8200,-8.7400,-0.1004,0.0229,-0.0109,-26.3750,-17.2500,22.1875,240.5625,21.1875,-160.6875,0
1777067622.395,9.3637,2.4900,-1.2689,-0.2345,0.0208,0.0938,-42.7500,30.3000,29.8500,9.6989,0.4262,-0.0383,-0.1311,-0.0573,0.0205,-54.1500,0.7500,9.6000,3.6300,2.8600,-8.7300,-0.1189,0.0360,-0.0153,-26.6875,-18.3750,22.5625,240.5625,21.1875,-160.6250,0
1777067622.399,9.4595,2.3200,-1.3072,-0.2915,-0.0256,0.0994,-44.1000,29.7000,32.5500,9.7564,0.3831,-0.1317,-0.1058,-0.0677,0.0128,-54.0000,1.6500,8.2500,3.6300,2.8600,-8.7300,-0.1189,0.0360,-0.0153,-26.6875,-18.3750,22.5625,240.5625,21.1875,-160.6250,0
1777067622.404,9.4595,2.3200,-1.3072,-0.2915,-0.0256,0.0994,-44.1000,29.7000,32.5500,9.7564,0.3831,-0.1317,-0.1058,-0.0677,0.0128,-54.0000,1.6500,8.2500,3.6500,2.8500,-8.7000,-0.1320,0.0404,-0.0229,-26.6875,-18.3750,22.5625,240.5625,21.1875,-160.5625,0
1777067622.409,9.3661,2.3774,-1.3910,-0.2545,-0.0085,0.1095,-43.3500,31.2000,29.7000,9.7348,0.2801,-0.0766,-0.1226,-0.0909,0.0064,-53.8500,1.9500,9.9000,3.6500,2.8500,-8.7000,-0.1451,0.0404,-0.0284,-26.6875,-18.3750,22.5625,240.5625,21.2500,-160.4375,0
1777067622.415,9.4379,2.3080,-1.3791,-0.2643,-0.0149,0.1082,-43.3500,31.2000,29.7000,9.8090,0.2921,-0.1269,-0.1226,-0.0909,0.0064,-53.8500,1.9500,9.9000,3.6700,2.8800,-8.7300,-0.1451,0.0404,-0.0284,-26.6875,-18.3750,22.5625,240.5625,21.2500,-160.4375,0
1777067622.424,9.3589,2.1715,-1.3072,-0.2995,-0.0333,0.1100,-43.9500,30.0000,29.5500,9.8138,0.3232,-0.1460,-0.1215,-0.1013,-0.0016,-54.1500,1.9500,8.4000,3.6500,2.8500,-8.7400,-0.1538,0.0393,-0.0284,-26.6875,-18.3750,22.5625,240.5625,21.2500,-160.3750,0
1777067622.429,9.3589,2.1715,-1.3072,-0.2995,-0.0333,0.1100,-45.7500,31.0500,31.6500,9.8138,0.3232,-0.1460,-0.1370,-0.1138,0.0024,-54.1500,1.9500,8.4000,3.6500,2.8500,-8.7400,-0.1691,0.0382,-0.0349,-26.6875,-18.3750,22.5625,240.5625,21.2500,-160.2500,0
1777067622.436,9.4068,2.2434,-1.3264,-0.2974,-0.0346,0.1042,-45.7500,31.0500,31.6500,9.8090,0.2993,-0.1724,-0.1604,-0.1204,0.0019,-54.1500,1.9500,8.4000,3.6500,2.9000,-8.7300,-0.1691,0.0382,-0.0349,-26.6875,-18.3750,22.5625,240.5625,21.2500,-160.2500,0
1777067622.441,9.4068,2.2434,-1.3264,-0.2974,-0.0346,0.1042,-45.7500,31.0500,31.6500,9.8090,0.2993,-0.1724,-0.1604,-0.1204,0.0019,-53.8500,1.9500,9.9000,3.6500,2.9000,-8.7300,-0.1833,0.0415,-0.0393,-26.3750,-18.7500,22.5625,240.5625,21.3125,-160.1875,0
1777067622.446,9.3661,2.1189,-1.3312,-0.4048,-0.0242,0.1042,-45.7500,31.0500,31.6500,9.7396,0.2801,-0.2466,-0.1841,-0.1290,0.0043,-53.8500,1.9500,9.9000,3.6800,2.7900,-8.7300,-0.1833,0.0415,-0.0393,-26.3750,-18.7500,22.5625,240.5625,21.3125,-160.1875,0
1777067622.451,9.3661,2.1189,-1.3312,-0.4048,-0.0242,0.1042,-44.8500,28.9500,30.7500,9.7396,0.2801,-0.2466,-0.1841,-0.1290,0.0043,-53.8500,1.9500,9.9000,3.6800,2.7900,-8.7300,-0.2062,0.0447,-0.0458,-26.3750,-18.7500,22.5625,240.5625,21.3125,-160.0625,0
1777067622.456,9.3158,2.4397,-1.2282,-0.3651,-0.0690,0.1050,-44.8500,28.9500,30.7500,9.6965,0.3256,-0.3304,-0.2054,-0.1375,0.0024,-53.8500,1.9500,9.9000,3.7100,2.8200,-8.7000,-0.2062,0.0447,-0.0458,-26.3750,-18.7500,22.5625,240.5625,21.3125,-160.0625,0
1777067622.461,9.3158,2.4397,-1.2282,-0.3651,-0.0690,0.1050,-44.1000,31.6500,31.0500,9.6965,0.3256,-0.3304,-0.2054,-0.1375,0.0024,-53.7000,2.4000,9.7500,3.7100,2.8200,-8.7000,-0.2302,0.0404,-0.0545,-26.3750,-18.7500,22.5625,240.5625,21.3125,-159.9375,0
1777067622.466,9.2967,2.4134,-1.3695,-0.3685,-0.0616,0.0967,-44.1000,31.6500,31.0500,9.7372,0.3687,-0.2921,-0.2201,-0.1564,-0.0045,-53.7000,2.4000,9.7500,3.7200,2.8300,-8.6800,-0.2302,0.0404,-0.0545,-26.3750,-18.7500,22.5625,240.5625,21.3125,-159.9375,0
1777067622.475,9.2751,2.4852,-1.3767,-0.3802,-0.0570,0.0818,-43.9500,30.0000,29.8500,9.7707,0.3903,-0.3783,-0.2486,-0.1668,-0.0072,-54.4500,0.4500,9.0000,3.7100,2.8800,-8.6600,-0.2487,0.0404,-0.0644,-26.3750,-18.7500,22.5625,240.5625,21.3125,-159.8125,0
1777067622.480,9.2751,2.4852,-1.3767,-0.3802,-0.0570,0.0818,-45.4500,31.2000,32.1000,9.7707,0.3903,-0.3783,-0.2486,-0.1668,-0.0072,-55.5000,1.3500,8.2500,3.7100,2.8800,-8.6600,-0.2683,0.0371,-0.0687,-26.3750,-18.7500,22.5625,240.5625,21.3750,-159.6875,0
1777067622.486,9.2105,2.4708,-1.4844,-0.4002,-0.0610,0.0834,-45.4500,31.2000,32.1000,9.8282,0.4980,-0.5339,-0.2755,-0.1791,-0.0104,-55.5000,1.3500,8.2500,3.5900,2.9500,-8.6500,-0.2683,0.0371,-0.0687,-26.3750,-18.7500,22.5625,240.5625,21.3750,-159.6875,0
1777067622.491,9.2105,2.4708,-1.4844,-0.4002,-0.0610,0.0834,-45.4500,31.2000,32.1000,9.8282,0.4980,-0.5339,-0.2755,-0.1791,-0.0104,-55.0500,1.0500,8.4000,3.5900,2.9500,-8.6500,-0.2847,0.0382,-0.0709,-26.6875,-18.7500,22.1875,240.5625,21.3750,-159.5000,0
1777067622.496,9.2680,2.4804,-1.5514,-0.4189,-0.0648,0.0781,-45.4500,31.2000,32.1000,9.6630,0.5100,-0.6273,-0.2667,-0.2017,-0.0101,-55.0500,1.0500,8.4000,3.6100,3.0500,-8.6200,-0.2847,0.0382,-0.0709,-26.6875,-18.7500,22.1875,240.5625,21.3750,-159.5000,0
1777067622.501,9.2680,2.4804,-1.5514,-0.4189,-0.0648,0.0781,-44.8500,29.4000,31.8000,9.6630,0.5100,-0.6273,-0.2667,-0.2017,-0.0101,-54.4500,-0.1500,9.7500,3.6100,3.0500,-8.6200,-0.2891,0.0338,-0.0698,-26.6875,-18.7500,22.1875,240.5000,21.3750,-159.3125,0
1777067622.506,9.2009,2.5187,-1.6185,-0.4167,-0.0711,0.0794,-44.8500,29.4000,31.8000,9.6151,0.5291,-0.6560,-0.2715,-0.2129,-0.0176,-54.4500,-0.1500,9.7500,3.6300,3.0700,-8.5600,-0.2891,0.0338,-0.0698,-26.6875,-18.7500,22.1875,240.5000,21.3750,-159.3125,0
1777067622.511,9.2009,2.5187,-1.6185,-0.4167,-0.0711,0.0794,-45.3000,29.2500,30.9000,9.6151,0.5291,-0.6560,-0.2715,-0.2129,-0.0176,-53.8500,2.2500,9.1500,3.6300,3.0700,-8.5600,-0.2945,0.0251,-0.0709,-26.6875,-18.7500,22.1875,240.5000,21.3750,-159.1875,0
1777067622.516,9.1722,2.6360,-1.6831,-0.4146,-0.0624,0.0770,-45.3000,29.2500,30.9000,9.5553,0.5555,-0.7494,-0.2745,-0.2118,-0.0157,-53.8500,2.2500,9.1500,3.6400,3.0300,-8.5800,-0.2945,0.0251,-0.0709,-26.6875,-18.7500,22.1875,240.5000,21.3750,-159.1875,0
1777067622.525,9.1339,2.7007,-1.7980,-0.4106,-0.0727,0.0778,-44.5500,28.0500,31.6500,9.6247,0.5148,-0.8212,-0.2851,-0.2182,-0.0203,-53.8500,2.2500,9.1500,3.6300,3.1100,-8.5800,-0.3000,0.0142,-0.0676,-26.6875,-18.7500,22.1875,240.5000,21.3750,-159.0000,0
1777067622.530,9.1339,2.7007,-1.7980,-0.4106,-0.0727,0.0778,-45.0000,28.8000,30.9000,9.6247,0.5148,-0.8212,-0.2851,-0.2182,-0.0203,-52.6500,1.5000,8.4000,3.6300,3.1100,-8.5800,-0.3022,0.0033,-0.0665,-26.6875,-18.7500,22.1875,240.5000,21.3750,-158.8125,0
1777067622.536,9.0214,2.8922,-1.8076,-0.3936,-0.0690,0.0767,-45.0000,28.8000,30.9000,9.6869,0.6153,-0.8260,-0.2923,-0.2169,-0.0192,-52.6500,1.5000,8.4000,3.5700,3.1500,-8.5900,-0.3022,0.0033,-0.0665,-26.6875,-18.7500,22.1875,240.5000,21.3750,-158.8125,0
1777067622.541,9.0046,2.9688,-1.8555,-0.4037,-0.0791,0.0797,-45.3000,30.7500,30.9000,9.6510,0.8475,-0.9433,-0.3262,-0.2164,-0.0149,-56.8500,1.5000,9.1500,3.5700,3.1500,-8.5900,-0.3000,0.0033,-0.0589,-27.5000,-19.8750,22.1875,240.5000,21.3125,-158.6250,0
1777067622.546,9.0046,2.9688,-1.8555,-0.4037,-0.0791,0.0797,-45.3000,30.7500,30.9000,9.6510,0.8475,-0.9433,-0.3262,-0.2164,-0.0149,-56.8500,1.5000,9.1500,3.9400,4.1800,-8.7300,-0.3000,0.0033,-0.0589,-27.5000,-19.8750,22.1875,240.5000,21.3125,-158.6250,0
1777067622.551,8.9591,3.0478,-1.8555,-0.4058,-0.0805,0.0741,-45.3000,30.7500,30.9000,9.5768,1.0175,-1.1109,-0.3333,-0.2129,-0.0120,-54.1500,1.5000,8.4000,3.9400,4.1800,-8.7300,-0.2411,0.0011,-0.0327,-27.5000,-19.8750,22.1875,240.5000,21.3125,-158.5000,0
1777067622.556,8.9591,3.0478,-1.8555,-0.4058,-0.0805,0.0741,-45.3000,30.7500,30.9000,9.5768,1.0175,-1.1109,-0.3333,-0.2129,-0.0120,-54.1500,1.5000,8.4000,3.4500,3.3700,-8.4900,-0.2411,0.0011,-0.0327,-27.5000,-19.8750,22.1875,240.5000,21.3125,-158.5000,0
1777067622.565,9.0046,3.2322,-1.9680,-0.4034,-0.0738,0.0618,-45.9000,28.9500,31.8000,9.5337,1.0894,-1.1157,-0.2990,-0.1879,-0.0147,-53.8500,0.3000,8.1000,3.6300,3.1000,-8.5600,-0.2127,0.0033,-0.0229,-27.5000,-19.8750,22.1875,240.5000,21.3125,-158.3750,0
1777067622.575,8.9447,3.3591,-1.9944,-0.4005,-0.0754,0.0578,-45.3000,29.5500,31.3500,9.4810,1.1396,-1.0630,-0.2292,-0.1900,-0.0077,-54.7500,1.6500,9.0000,3.6400,3.2400,-8.4800,-0.2040,-0.0033,-0.0207,-27.5000,-19.8750,22.1875,240.5625,21.3125,-158.2500,0
1777067622.584,9.0237,3.4285,-2.0997,-0.4032,-0.0813,0.0458,-44.8500,29.7000,31.5000,9.5912,1.0726,-1.2809,-0.2140,-0.1841,-0.0059,-54.6000,1.0500,8.4000,3.5600,3.3400,-8.5000,-0.1865,-0.0076,-0.0207,-27.5000,-19.8750,22.1875,240.5625,21.3125,-158.1250,0
1777067622.589,9.0214,3.5147,-2.0183,-0.4234,-0.1135,0.0384,-44.8500,30.1500,32.1000,9.5433,1.0391,-1.3862,-0.2012,-0.1639,-0.0019,-54.6000,1.0500,8.4000,3.5600,3.3400,-8.5000,-0.1865,-0.0076,-0.0207,-27.5000,-19.8750,22.1875,240.5625,21.3125,-158.1250,0
1777067622.594,9.0214,3.5147,-2.0183,-0.4234,-0.1135,0.0384,-44.8500,30.1500,32.1000,9.5433,1.0391,-1.3862,-0.2012,-0.1639,-0.0019,-54.6000,1.0500,8.4000,3.5700,3.3100,-8.5400,-0.1669,-0.0142,-0.0207,-26.0000,-19.8750,22.1875,240.5625,21.3125,-158.0625,0
1777067622.599,8.9352,3.6152,-2.0470,-0.4495,-0.1055,0.0301,-44.8500,30.1500,32.1000,9.5984,0.9481,-1.4293,-0.1785,-0.1511,0.0077,-55.2000,1.3500,7.5000,3.5700,3.3100,-8.5400,-0.1669,-0.0142,-0.0207,-26.0000,-19.8750,22.1875,240.5625,21.3125,-158.0625,0
1777067622.603,8.9352,3.6152,-2.0470,-0.4495,-0.1055,0.0301,-44.8500,30.1500,32.1000,9.5984,0.9481,-1.4293,-0.1785,-0.1511,0.0077,-55.2000,1.3500,7.5000,3.6000,3.2800,-8.5100,-0.1549,-0.0131,-0.0175,-26.0000,-19.8750,22.1875,240.5625,21.3125,-157.9375,0
1777067622.608,8.9759,3.7302,-2.0566,-0.4604,-0.0983,0.0173,-45.3000,29.5500,30.6000,9.5768,0.8882,-1.4437,-0.1692,-0.1367,0.0112,-55.2000,1.3500,7.5000,3.6000,3.2800,-8.5100,-0.1549,-0.0131,-0.0175,-26.0000,-19.8750,22.1875,240.5625,21.3125,-157.8750,0
1777067622.616,8.9759,3.7302,-2.0566,-0.4604,-0.0983,0.0173,-45.9000,30.1500,30.7500,9.5768,0.8882,-1.4437,-0.1692,-0.1367,0.0112,-53.7000,-0.1500,9.7500,3.4800,3.2000,-8.5700,-0.1505,-0.0164,-0.0185,-26.0000,-19.8750,22.1875,240.5625,21.3125,-157.8750,0
1777067622.624,9.0285,3.7230,-2.0662,-0.4477,-0.0999,0.0064,-45.9000,30.1500,30.7500,9.5840,0.7925,-1.4317,-0.1673,-0.1188,0.0226,-53.7000,0.1500,8.2500,3.5700,3.4200,-8.5000,-0.1451,-0.0142,-0.0164,-26.0000,-19.8750,22.1875,240.5625,21.2500,-157.8125,0
1777067622.629,9.0309,3.8762,-2.2098,-0.4205,-0.1039,-0.0096,-45.4500,28.2000,31.5000,9.5672,0.8643,-1.4030,-0.1777,-0.1085,0.0274,-54.4500,2.1000,8.2500,3.5700,3.4200,-8.5000,-0.1451,-0.0142,-0.0164,-26.0000,-19.8750,22.1875,240.5625,21.2500,-157.7500,0
1777067622.636,9.0309,3.8762,-2.2098,-0.4205,-0.1039,-0.0096,-44.5500,28.5000,30.6000,9.5385,0.9218,-1.4533,-0.1777,-0.1085,0.0274,-54.4500,2.1000,8.2500,3.5900,3.2400,-8.5400,-0.1385,-0.0109,-0.0175,-26.0000,-19.8750,22.1875,240.5625,21.2500,-157.7500,0
1777067622.641,8.8969,3.8618,-2.1931,-0.4000,-0.1215,-0.0237,-44.5500,28.5000,30.6000,9.5385,0.9218,-1.4533,-0.2076,-0.0938,0.0253,-53.4000,1.0500,8.1000,3.5900,3.2400,-8.5400,-0.1353,-0.0120,-0.0109,-27.0625,-19.0625,20.8750,240.6250,21.2500,-157.6875,0
1777067622.646,8.8969,3.8618,-2.1931,-0.4000,-0.1215,-0.0237,-44.5500,28.5000,30.6000,9.5768,0.9960,-1.4916,-0.2076,-0.0938,0.0253,-53.4000,1.0500,8.1000,3.5900,3.2700,-8.5400,-0.1353,-0.0120,-0.0109,-27.0625,-19.0625,20.8750,240.6250,21.2500,-157.6875,0
1777067622.651,8.8969,3.8283,-2.2242,-0.3741,-0.1260,-0.0402,-44.5500,28.5000,30.6000,9.5768,0.9960,-1.4916,-0.1996,-0.0837,0.0362,-55.8000,1.5000,8.1000,3.5900,3.2700,-8.5400,-0.1320,-0.0120,-0.0120,-27.0625,-19.0625,20.8750,240.6250,21.2500,-157.6250,0
1777067622.656,8.8969,3.8283,-2.2242,-0.3741,-0.1260,-0.0402,-45.7500,28.0500,31.6500,9.5122,1.1564,-1.5251,-0.1900,-0.0799,0.0437,-55.8000,1.5000,8.1000,3.5500,3.3300,-8.5100,-0.1320,-0.0120,-0.0120,-27.0625,-19.0625,20.8750,240.6250,21.2500,-157.6250,0
1777067622.661,8.8346,3.7828,-2.1787,-0.3565,-0.1234,-0.0533,-45.7500,28.0500,31.6500,9.5122,1.1564,-1.5251,-0.1900,-0.0799,0.0437,-55.8000,1.5000,8.1000,3.5500,3.3300,-8.5100,-0.1200,-0.0076,-0.0120,-27.0625,-19.0625,20.8750,240.6250,21.2500,-157.5625,0
1777067622.666,8.8346,3.7828,-2.1787,-0.3413,-0.1346,-0.0597,-44.8500,28.9500,31.8000,9.5193,1.2306,-1.5323,-0.1684,-0.0677,0.0506,-55.8000,1.5000,8.1000,3.5700,3.3800,-8.4600,-0.1200,-0.0076,-0.0120,-27.0625,-19.0625,20.8750,240.6250,21.2500,-157.5625,0
1777067622.675,8.9328,3.8211,-2.1380,-0.3413,-0.1346,-0.0597,-44.1000,29.4000,31.0500,9.6151,1.2426,-1.6017,-0.1684,-0.0677,0.0506,-54.4500,2.1000,9.0000,3.5400,3.3500,-8.4800,-0.1124,-0.0065,-0.0120,-27.0625,-19.0625,20.8750,240.6250,21.2500,-157.5000,0
1777067622.681,8.9040,3.8858,-2.0925,-0.3158,-0.1420,-0.0663,-44.1000,29.4000,31.0500,9.6151,1.2426,-1.6017,-0.1348,-0.0541,0.0533,-54.7500,0.4500,7.5000,3.5400,3.3500,-8.4800,-0.1047,-0.0011,-0.0153,-27.0625,-19.0625,20.8750,240.6250,21.2500,-157.4375,0
1777067622.686,8.9591,3.8140,-2.0877,-0.2726,-0.1335,-0.0637,-46.6500,28.6500,32.5500,9.5864,1.1468,-1.4006,-0.0810,-0.0352,0.0586,-54.7500,0.4500,7.5000,3.5900,3.3600,-8.5100,-0.1047,-0.0011,-0.0153,-27.0625,-19.0625,20.8750,240.6250,21.2500,-157.4375,0
1777067622.691,8.9591,3.8140,-2.0877,-0.2726,-0.1335,-0.0637,-46.6500,28.6500,32.5500,9.5864,1.1468,-1.4006,-0.0810,-0.0352,0.0586,-54.7500,2.4000,6.7500,3.5900,3.3600,-8.5100,-0.1014,0.0033,-0.0185,-26.6875,-19.0625,20.8750,240.6250,21.2500,-157.3750,0
1777067622.696,8.9232,3.8427,-2.0423,-0.2350,-0.1300,-0.0735,-45.4500,27.9000,31.8000,9.5960,1.0223,-1.2689,-0.0320,-0.0229,0.0485,-54.7500,2.4000,6.7500,3.6100,3.3600,-8.4900,-0.1014,0.0033,-0.0185,-26.6875,-19.0625,20.8750,240.6250,21.2500,-157.3750,0
1777067622.701,8.9232,3.8427,-2.0423,-0.2350,-0.1300,-0.0735,-45.4500,27.9000,31.8000,9.5960,1.0223,-1.2689,-0.0320,-0.0229,0.0485,-53.7000,2.4000,8.7000,3.6100,3.3600,-8.4900,-0.0927,0.0065,-0.0164,-26.6875,-19.0625,20.8750,240.6250,21.2500,-157.3125,0
1777067622.706,8.8298,3.7613,-1.9752,-0.1953,-0.1362,-0.0810,-45.4500,27.9000,31.8000,9.5553,0.9218,-1.1708,-0.0485,-0.0242,0.0533,-53.7000,2.4000,8.7000,3.5900,3.4300,-8.4300,-0.0927,0.0065,-0.0164,-26.6875,-19.0625,20.8750,240.6250,21.2500,-157.3125,0
1777067622.711,8.8298,3.7613,-1.9752,-0.1953,-0.1362,-0.0810,-45.4500,27.9000,31.8000,9.5553,0.9218,-1.1708,-0.0485,-0.0242,0.0533,-55.3500,2.7000,7.6500,3.5900,3.4300,-8.4300,-0.0709,0.0033,-0.0164,-26.6875,-19.0625,20.8750,240.6250,21.2500,-157.2500,0
1777067622.716,8.7317,3.6344,-1.8124,-0.1807,-0.1308,-0.0919,-46.2000,29.4000,30.4500,9.6175,0.9218,-1.2594,-0.0847,-0.0338,0.0490,-55.3500,2.7000,7.6500,3.5000,3.4400,-8.4200,-0.0709,0.0033,-0.0164,-26.6875,-19.0625,20.8750,240.6250,21.2500,-157.2500,0
1777067622.725,8.7125,3.5913,-1.7789,-0.1815,-0.1178,-0.1031,-45.9000,29.4000,31.8000,9.5313,1.0415,-1.2522,-0.0552,-0.0333,0.0472,-55.0500,1.0500,9.6000,3.5100,3.4700,-8.3800,-0.0447,0.0022,-0.0076,-26.6875,-19.0625,20.8750,240.6250,21.2500,-157.2500,0
1777067622.732,8.7125,3.5913,-1.7789,-0.1815,-0.1178,-0.1031,-45.9000,29.4000,31.8000,9.4858,1.0367,-1.3216,-0.0552,-0.0333,0.0472,-55.0500,1.0500,9.6000,3.5600,3.4300,-8.3800,-0.0196,0.0022,-0.0044,-26.6875,-19.0625,20.8750,240.6250,21.2500,-157.2500,0
1777067622.737,8.6718,3.5027,-1.7645,-0.1519,-0.0989,-0.0967,-45.1500,28.9500,31.8000,9.4858,1.0367,-1.3216,-0.0458,-0.0197,0.0506,-55.0500,1.0500,9.6000,3.5600,3.4300,-8.3800,-0.0196,0.0022,-0.0044,-26.6875,-19.0625,20.8750,240.6250,21.2500,-157.2500,0
1777067622.742,8.6718,3.5027,-1.7645,-0.1519,-0.0989,-0.0967,-45.1500,28.9500,31.8000,9.6367,0.9290,-1.2234,-0.0458,-0.0197,0.0506,-54.6000,1.0500,7.3500,3.6000,3.3900,-8.4100,0.0000,0.0022,-0.0044,-26.0000,-19.8750,22.1875,240.6250,21.2500,-157.2500,0
1777067622.747,8.8298,3.4764,-1.7502,-0.1295,-0.0437,-0.0717,-45.3000,28.8000,32.4000,9.6367,0.9290,-1.2234,-0.0061,-0.0048,0.0629,-54.6000,1.0500,7.3500,3.6000,3.3900,-8.4100,0.0000,0.0022,-0.0044,-26.0000,-19.8750,22.1875,240.6250,21.2500,-157.2500,0
1777067622.756,8.9447,3.5434,-1.8052,-0.0842,0.0005,-0.0581,-45.3000,28.8000,32.4000,9.6606,0.8212,-1.0702,0.0437,0.0040,0.0642,-54.6000,1.0500,7.3500,3.6000,3.3800,-8.4700,0.0131,0.0022,-0.0087,-26.0000,-19.8750,22.1875,240.6250,21.2500,-157.2500,0
1777067622.764,9.0740,3.4764,-1.8962,-0.0333,-0.0123,-0.0480,-46.2000,28.9500,31.5000,9.7157,0.7207,-0.9313,0.0584,-0.0019,0.0674,-54.6000,0.3000,8.1000,3.5800,3.3300,-8.5200,0.0175,0.0044,-0.0076,-26.0000,-19.8750,22.1875,240.6250,21.2500,-157.2500,0
1777067622.769,9.0740,3.4764,-1.8962,-0.0333,-0.0123,-0.0480,-46.2000,28.9500,31.5000,9.7157,0.7207,-0.9313,0.0584,-0.0019,0.0674,-54.6000,0.3000,8.1000,3.5800,3.3300,-8.5200,0.0175,0.0044,-0.0076,-26.0000,-19.8750,22.1875,240.6250,21.2500,-157.3125,0
1777067622.776,8.9974,3.4572,-1.8555,-0.0005,-0.0266,-0.0312,-45.9000,28.6500,31.0500,9.6630,0.5171,-0.9290,0.0464,-0.0125,0.0626,-55.3500,1.0500,8.1000,3.5700,3.3400,-8.4900,0.0284,0.0055,-0.0076,-26.0000,-19.8750,22.1875,240.6250,21.2500,-157.3125,0
1777067622.785,9.1004,3.4213,-1.9609,0.0437,-0.0080,-0.0341,-45.4500,30.4500,31.0500,9.6175,0.5291,-0.9385,0.0171,-0.0072,0.0640,-54.0000,0.9000,7.9500,3.6200,3.3100,-8.5000,0.0382,0.0055,-0.0065,-26.0000,-19.8750,22.1875,240.6250,21.2500,-157.3125,0
1777067622.789,9.1004,3.4213,-1.9609,0.0437,-0.0080,-0.0341,-45.4500,30.4500,31.0500,9.6510,0.6009,-1.0151,0.0171,-0.0072,0.0640,-54.0000,0.9000,7.9500,3.6200,3.3100,-8.5000,0.0382,0.0055,-0.0065,-26.0000,-19.8750,22.1875,240.6250,21.2500,-157.3125,0
1777067622.794,9.1004,3.3615,-1.8771,0.0813,-0.0200,-0.0450,-43.9500,28.5000,31.6500,9.6510,0.6009,-1.0151,-0.0144,-0.0067,0.0666,-54.0000,0.9000,7.9500,3.6400,3.2700,-8.4900,0.0415,0.0087,-0.0055,-26.6875,-19.8750,22.5625,240.6250,21.2500,-157.3750,0
1777067622.799,9.1004,3.3615,-1.8771,0.0813,-0.0200,-0.0450,-43.9500,28.5000,31.6500,9.6606,0.6273,-1.0415,-0.0144,-0.0067,0.0666,-54.0000,0.9000,7.9500,3.6400,3.2700,-8.4900,0.0415,0.0087,-0.0055,-26.6875,-19.8750,22.5625,240.6250,21.2500,-157.3750,0
1777067622.804,9.1315,3.3327,-1.8747,0.0959,-0.0195,-0.0517,-43.9500,28.5000,31.6500,9.6606,0.6273,-1.0415,-0.0141,-0.0128,0.0706,-54.0000,0.9000,7.9500,3.6100,3.2900,-8.4600,0.0436,0.0055,-0.0087,-26.6875,-19.8750,22.5625,240.6250,21.2500,-157.3750,0
1777067622.809,9.1315,3.3327,-1.8747,0.0959,-0.0195,-0.0517,-43.9500,28.5000,31.6500,9.7085,0.6680,-1.0463,-0.0141,-0.0128,0.0706,-54.0000,0.9000,7.9500,3.6100,3.2900,-8.4600,0.0436,0.0055,-0.0087,-26.6875,-19.8750,22.5625,240.6250,21.2500,-157.4375,0
1777067622.816,9.0740,3.3423,-1.8794,0.1282,0.0040,-0.0488,-45.3000,28.0500,30.1500,9.7085,0.6680,-1.0463,0.0120,-0.0099,0.0693,-53.8500,0.7500,8.8500,3.5900,3.3100,-8.5200,0.0458,0.0076,-0.0076,-26.6875,-19.8750,22.5625,240.6250,21.2500,-157.4375,0
1777067622.825,9.0860,3.4117,-1.9201,0.1657,0.0147,-0.0336,-45.7500,28.0500,31.3500,9.6822,0.6345,-1.0175,0.0386,-0.0104,0.0629,-53.8500,0.7500,8.8500,3.6300,3.3000,-8.5100,0.0447,0.0055,-0.0098,-26.6875,-19.8750,22.5625,240.6250,21.2500,-157.4375,0
1777067622.830,9.0860,3.4117,-1.9201,0.1657,0.0147,-0.0336,-45.7500,28.0500,31.3500,9.7061,0.5028,-0.9984,0.0533,0.0035,0.0655,-53.8500,0.7500,8.8500,3.6300,3.3000,-8.5100,0.0436,0.0087,-0.0109,-26.6875,-19.8750,22.5625,240.6250,21.2500,-157.5000,0
1777067622.836,9.0261,3.3830,-1.9728,0.2028,0.0120,-0.0360,-44.5500,31.0500,30.9000,9.7061,0.5028,-0.9984,0.0533,0.0035,0.0655,-54.4500,0.9000,9.0000,3.6400,3.2600,-8.5000,0.0436,0.0087,-0.0109,-26.6875,-19.8750,22.5625,240.6250,21.2500,-157.5000,0
1777067622.841,9.0357,3.1819,-2.0782,0.1873,0.0000,-0.0272,-46.2000,31.0500,30.9000,9.6175,0.3926,-1.0104,0.0653,0.0000,0.0613,-55.3500,0.0000,7.6500,3.6400,3.2600,-8.5000,0.0415,0.0055,-0.0076,-27.0625,-19.8750,21.3750,240.6250,21.2500,-157.5000,0
1777067622.846,9.0357,3.1819,-2.0782,0.1873,0.0000,-0.0272,-46.2000,29.4000,31.0500,9.6175,0.3926,-1.0104,0.0653,0.0000,0.0613,-55.3500,0.0000,7.6500,3.6100,3.2600,-8.4900,0.0415,0.0055,-0.0076,-27.0625,-19.8750,21.3750,240.6250,21.2500,-157.5000,0
1777067622.851,9.0357,3.1747,-1.9609,0.2348,-0.0157,-0.0248,-43.9500,29.5500,31.3500,9.6175,0.4429,-1.0439,0.0514,-0.0013,0.0536,-54.1500,0.7500,8.8500,3.6100,3.2600,-8.4900,0.0425,0.0055,-0.0098,-27.0625,-19.8750,21.3750,240.6250,21.2500,-157.5625,0
1777067622.856,9.0357,3.1747,-1.9609,0.2348,-0.0157,-0.0248,-43.9500,29.5500,31.3500,9.6175,0.4429,-1.0439,0.0514,-0.0013,0.0536,-54.1500,0.7500,8.8500,3.6000,3.2500,-8.5100,0.0425,0.0055,-0.0098,-27.0625,-19.8750,21.3750,240.6250,21.2500,-157.5625,0
1777067622.861,8.9040,3.0095,-1.8723,0.2158,0.0123,-0.0306,-43.9500,29.5500,31.3500,9.6822,0.4788,-1.1301,0.0296,-0.0056,0.0517,-54.1500,-0.7500,8.1000,3.6000,3.2500,-8.5100,0.0425,0.0022,-0.0065,-27.0625,-19.8750,21.3750,240.6250,21.2500,-157.5625,0
1777067622.866,8.9040,3.0095,-1.8723,0.2158,0.0123,-0.0306,-43.9500,29.5500,31.3500,9.7205,0.4884,-1.0582,0.0296,-0.0056,0.0517,-54.1500,-0.7500,8.1000,3.6100,3.2600,-8.5300,0.0425,0.0022,-0.0065,-27.0625,-19.8750,21.3750,240.6250,21.2500,-157.6250,0
1777067622.876,9.0309,2.8898,-1.9058,0.1721,0.0176,-0.0354,-46.8000,29.5500,30.6000,9.7205,0.4884,-1.0582,0.0149,-0.0077,0.0485,-54.1500,-0.7500,8.1000,3.5600,3.2700,-8.5300,0.0404,0.0033,-0.0076,-27.0625,-19.8750,21.3750,240.6250,21.2500,-157.6250,0
1777067622.882,9.0573,2.8347,-2.0087,0.1855,0.0136,-0.0322,-45.7500,28.5000,31.3500,9.6367,0.5914,-0.9792,0.0125,-0.0032,0.0522,-53.7000,1.6500,7.2000,3.6200,3.2500,-8.5000,0.0415,0.0076,-0.0033,-27.0625,-19.8750,21.3750,240.6250,21.2500,-157.6250,0
1777067622.887,9.0573,2.8347,-2.0087,0.1855,0.0136,-0.0322,-45.7500,28.5000,31.3500,9.6774,0.5890,-0.9888,0.0288,-0.0032,0.0546,-53.7000,1.6500,7.2000,3.6200,3.2500,-8.5000,0.0415,0.0076,-0.0033,-27.0625,-19.8750,21.3750,240.6250,21.2500,-157.6250,0
1777067622.892,9.1578,2.8204,-2.1356,0.1775,0.0301,-0.0245,-44.1000,28.9500,30.7500,9.6774,0.5890,-0.9888,0.0288,-0.0032,0.0546,-53.7000,1.6500,7.2000,3.6200,3.2900,-8.4600,0.0425,0.0033,0.0000,-27.8750,-20.2500,21.7500,240.6250,21.2500,-157.6875,0
1777067622.896,9.1578,2.8204,-2.1356,0.1775,0.0301,-0.0245,-44.1000,28.9500,30.7500,9.5840,0.5698,-0.9457,0.0498,0.0016,0.0536,-53.7000,1.6500,7.2000,3.6200,3.2900,-8.4600,0.0425,0.0033,0.0000,-27.8750,-20.2500,21.7500,240.6250,21.2500,-157.6875,0
1777067622.901,9.0980,2.8323,-2.1835,0.1721,0.0064,-0.0120,-45.7500,29.5500,30.1500,9.5840,0.5698,-0.9457,0.0498,0.0016,0.0536,-54.7500,0.1500,7.2000,3.6200,3.2900,-8.4600,0.0447,0.0011,-0.0011,-27.8750,-20.2500,21.7500,240.6250,21.2500,-157.7500,0
1777067622.906,9.0980,2.8323,-2.1835,0.1721,0.0064,-0.0120,-45.7500,29.5500,30.1500,9.6654,0.5219,-0.9960,0.0445,-0.0056,0.0458,-54.7500,0.1500,8.7000,3.5800,3.2700,-8.5000,0.0447,0.0011,-0.0011,-27.8750,-20.2500,21.7500,240.6250,21.2500,-157.7500,0
1777067622.911,9.0477,2.8706,-2.2122,0.1620,-0.0163,-0.0136,-45.7500,29.5500,30.1500,9.6654,0.5219,-0.9960,0.0445,-0.0056,0.0458,-54.7500,0.1500,8.7000,3.5800,3.2700,-8.5000,0.0513,-0.0033,0.0022,-27.8750,-20.2500,21.7500,240.5625,21.2500,-157.7500,0
1777067622.916,9.0477,2.8706,-2.2122,0.1620,-0.0163,-0.0136,-45.7500,29.5500,30.1500,9.7492,0.5195,-0.9505,0.0370,-0.0029,0.0413,-54.4500,0.1500,7.5000,3.6000,3.2500,-8.5600,0.0513,-0.0033,0.0022,-27.8750,-20.2500,21.7500,240.5625,21.2500,-157.8125,0
1777067622.926,9.0381,2.9449,-2.0590,0.1332,-0.0274,-0.0218,-44.8500,28.6500,28.9500,9.7612,0.5291,-0.8523,0.0224,-0.0093,0.0381,-53.8500,0.3000,8.4000,3.6300,3.2500,-8.5500,0.0480,-0.0033,0.0055,-27.8750,-20.2500,21.7500,240.5625,21.2500,-157.8125,0
1777067622.932,9.0094,2.8371,-2.0231,0.1079,-0.0141,-0.0181,-44.2500,30.3000,30.1500,9.7612,0.5291,-0.8523,0.0224,-0.0093,0.0381,-53.4000,-0.3000,9.1500,3.6500,3.2300,-8.5300,0.0458,-0.0011,0.0033,-27.8750,-20.2500,21.7500,240.5625,21.2500,-157.8125,0
1777067622.937,8.9328,2.9090,-2.0470,0.1087,0.0077,-0.0091,-44.2500,30.3000,30.1500,9.6917,0.5100,-0.9457,0.0091,-0.0075,0.0389,-53.4000,-0.3000,9.1500,3.6500,3.2300,-8.5300,0.0458,-0.0011,0.0033,-27.8750,-20.2500,21.7500,240.5625,21.2500,-157.8125,0
1777067622.942,8.9328,2.9090,-2.0470,0.1087,0.0077,-0.0091,-45.7500,30.0000,30.6000,9.6917,0.5100,-0.9457,0.0091,-0.0075,0.0389,-55.5000,0.4500,9.3000,3.6300,3.2200,-8.5300,0.0404,0.0000,0.0011,-26.3750,-19.8750,21.7500,240.5625,21.2500,-157.8750,0
1777067622.947,8.8729,2.7749,-1.8364,0.1210,0.0360,0.0061,-45.7500,30.0000,30.6000,9.6893,0.4190,-0.8547,0.0061,-0.0077,0.0437,-55.5000,0.4500,9.3000,3.6300,3.2200,-8.5300,0.0404,0.0000,0.0011,-26.3750,-19.8750,21.7500,240.5625,21.2500,-157.8750,0
1777067622.952,8.8729,2.7749,-1.8364,0.1210,0.0360,0.0061,-44.4000,27.9000,30.4500,9.6893,0.4190,-0.8547,0.0061,-0.0077,0.0437,-53.4000,0.3000,9.9000,3.6300,3.2100,-8.5400,0.0393,-0.0011,-0.0022,-26.3750,-19.8750,21.7500,240.5625,21.2500,-157.8750,0
1777067622.957,8.8466,3.0909,-1.8028,0.0879,0.0893,0.0067,-44.4000,27.9000,30.4500,9.5864,0.4046,-0.9050,-0.0019,-0.0088,0.0504,-53.4000,0.3000,9.9000,3.6300,3.2100,-8.5400,0.0393,-0.0011,-0.0022,-26.3750,-19.8750,21.7500,240.5625,21.2500,-157.8750,0
1777067622.962,8.8466,3.0909,-1.8028,0.0879,0.0893,0.0067,-44.4000,27.9000,30.4500,9.5864,0.4046,-0.9050,-0.0019,-0.0088,0.0504,-53.4000,0.3000,9.9000,3.6200,3.1500,-8.6200,0.0371,0.0011,-0.0033,-26.3750,-19.8750,21.7500,240.5625,21.2500,-157.9375,0
1777067622.967,9.1099,3.2896,-1.8411,0.2340,0.1346,-0.0200,-44.4000,27.9000,30.4500,9.6031,0.2825,-0.9697,-0.0298,0.0011,0.0400,-53.4000,0.3000,9.9000,3.6200,3.1500,-8.6200,0.0371,0.0011,-0.0033,-26.3750,-19.8750,21.7500,240.5625,21.3125,-157.9375,0
1777067622.976,9.5553,2.7988,-1.8699,0.2462,0.1085,-0.0128,-44.4000,27.9000,30.4500,9.6295,0.3448,-0.9864,-0.0520,0.0013,0.0317,-54.4500,0.9000,8.2500,3.6300,3.2400,-8.5300,0.0316,0.0000,-0.0044,-26.3750,-19.8750,21.7500,240.5625,21.3125,-157.9375,0
1777067622.982,9.5553,2.7988,-1.8699,0.2462,0.1085,-0.0128,-45.4500,27.9000,29.7000,9.8833,0.3160,-0.9313,-0.0520,0.0013,0.0317,-54.4500,0.9000,8.2500,3.6300,3.1400,-8.5800,0.0316,0.0022,-0.0044,-26.3750,-19.8750,21.7500,240.5625,21.3125,-158.0000,0
1777067622.987,9.1291,3.1436,-1.8004,0.1953,-0.0032,0.0024,-45.4500,27.9000,29.7000,9.8833,0.3160,-0.9313,-0.0655,-0.0168,0.0344,-54.0000,-0.1500,7.2000,3.6300,3.1400,-8.5800,0.0316,0.0022,-0.0044,-26.3750,-19.8750,21.7500,240.5625,21.3125,-158.0000,0
1777067622.992,9.1291,3.1436,-1.8004,0.1953,-0.0032,0.0024,-45.7500,28.8000,31.6500,9.7564,0.5124,-0.9337,-0.0655,-0.0168,0.0344,-54.0000,-0.1500,7.2000,3.6200,3.1600,-8.5600,0.0240,0.0000,-0.0055,-26.6875,-19.0625,21.3750,240.5625,21.3125,-158.0000,0
1777067622.997,8.7652,3.2441,-2.1691,0.0648,-0.0645,0.0096,-45.7500,28.8000,31.6500,9.7564,0.5124,-0.9337,-0.0080,-0.0432,0.0376,-54.0000,0.1500,7.5000,3.6200,3.1600,-8.5600,0.0240,0.0000,-0.0055,-26.6875,-19.0625,21.3750,240.5625,21.3125,-158.0000,0
1777067623.002,8.7652,3.2441,-2.1691,0.0648,-0.0645,0.0096,-45.4500,27.4500,30.7500,9.5936,0.5578,-0.8021,-0.0080,-0.0432,0.0376,-54.0000,0.1500,7.5000,3.6200,3.2700,-8.4800,0.0153,0.0033,-0.0076,-26.6875,-19.0625,21.3750,240.5625,21.3125,-158.0625,0
1777067623.007,8.8873,3.3399,-2.2338,-0.0147,0.0195,0.0043,-45.4500,27.4500,30.7500,9.5936,0.5578,-0.8021,0.0242,-0.0171,0.0344,-54.1500,0.0000,9.1500,3.6200,3.2700,-8.4800,0.0153,0.0033,-0.0076,-26.6875,-19.0625,21.3750,240.5625,21.3125,-158.0625,0
1777067623.012,8.8873,3.3399,-2.2338,-0.0147,0.0195,0.0043,-45.9000,27.4500,31.5000,9.6007,0.5363,-0.9744,-0.0168,0.0093,0.0354,-54.1500,0.0000,9.1500,3.6200,3.2700,-8.4800,0.0142,0.0022,-0.0076,-26.6875,-19.0625,21.3750,240.5625,21.3125,-158.0625,0
1777067623.017,9.0261,3.3758,-2.2458,-0.0911,0.1018,-0.0059,-45.9000,27.4500,31.5000,9.6007,0.5363,-0.9744,-0.0168,0.0093,0.0354,-54.7500,0.4500,8.7000,3.6200,3.1600,-8.5700,0.0142,0.0022,-0.0076,-26.6875,-19.0625,21.3750,240.5625,21.3125,-158.0625,0
1777067623.026,9.1291,3.4141,-2.1596,-0.0522,0.0898,-0.0093,-45.9000,27.4500,31.5000,9.6989,0.6033,-1.0151,0.0421,-0.0104,0.0298,-55.0500,0.3000,8.1000,3.7200,3.2400,-8.5000,0.0120,0.0098,-0.0120,-26.6875,-19.0625,21.3750,240.5625,21.3125,-158.0625,0
1777067623.032,9.1291,3.4141,-2.1596,-0.0522,0.0898,-0.0093,-46.2000,27.1500,30.4500,9.6654,0.6393,-0.9385,0.0695,-0.0141,0.0354,-55.0500,0.3000,8.1000,3.6100,3.3100,-8.4800,0.0065,0.0153,-0.0131,-26.6875,-19.0625,21.3750,240.5625,21.3125,-158.0625,0
1777067623.037,9.1363,3.4500,-1.8866,0.0472,0.0160,-0.0099,-46.2000,27.1500,30.4500,9.6654,0.6393,-0.9385,0.0695,-0.0141,0.0354,-55.0500,0.3000,8.1000,3.6100,3.3100,-8.4800,0.0065,0.0153,-0.0131,-26.6875,-19.0625,21.3750,240.5625,21.3125,-158.0625,0
1777067623.042,9.1363,3.4500,-1.8866,0.0472,0.0160,-0.0099,-45.9000,28.2000,30.4500,9.6534,0.5028,-1.1325,0.0589,-0.0195,0.0368,-55.0500,0.3000,8.1000,3.6100,3.2000,-8.5400,0.0065,0.0207,-0.0175,-26.3750,-20.2500,21.3750,240.5625,21.3125,-158.0625,0
1777067623.047,9.0692,3.3208,-1.8579,0.1188,0.0386,-0.0099,-45.9000,28.2000,30.4500,9.6534,0.5028,-1.1325,0.0589,-0.0195,0.0368,-53.7000,2.4000,9.3000,3.6100,3.2000,-8.5400,0.0065,0.0207,-0.0175,-26.3750,-20.2500,21.3750,240.5625,21.3125,-158.0625,0
1777067623.056,9.1530,3.1005,-1.8196,0.1649,0.0378,0.0069,-45.4500,27.4500,29.7000,9.6869,0.3448,-1.1540,0.0898,-0.0136,0.0250,-54.1500,0.0000,9.1500,3.6600,3.2500,-8.5100,0.0022,0.0196,-0.0175,-26.3750,-20.2500,21.3750,240.5625,21.3125,-158.0625,0
1777067623.064,9.0764,3.0430,-1.9872,0.2558,0.0767,0.0192,-44.5500,26.5500,31.3500,9.6654,0.3831,-0.9146,0.0930,-0.0173,0.0221,-55.2000,0.9000,7.5000,3.5700,3.2100,-8.5300,-0.0011,0.0218,-0.0196,-26.3750,-20.2500,21.3750,240.5625,21.3125,-158.0625,0
1777067623.069,9.0764,3.0430,-1.9872,0.2558,0.0767,0.0192,-44.5500,26.5500,31.3500,9.6271,0.2370,-1.0582,0.0930,-0.0173,0.0221,-55.2000,0.9000,7.5000,3.5700,3.2100,-8.5300,-0.0011,0.0218,-0.0196,-26.3750,-20.2500,21.3750,240.5000,21.3125,-158.0625,0
1777067623.076,9.2153,2.8802,-2.1644,0.2827,0.0709,0.0253,-44.5500,26.5500,31.3500,9.6271,0.2370,-1.0582,0.0592,-0.0218,0.0208,-53.7000,1.3500,7.5000,3.5800,3.0800,-8.6200,-0.0033,0.0131,-0.0196,-26.3750,-20.2500,21.3750,240.5000,21.3125,-158.0625,0
1777067623.086,9.1459,2.9353,-2.1787,0.2723,0.0179,0.0171,-45.7500,28.8000,31.3500,9.6271,0.2514,-1.1588,0.0541,-0.0163,0.0203,-54.7500,-0.1500,8.7000,3.6000,3.2100,-8.5200,-0.0164,0.0196,-0.0196,-26.3750,-20.2500,21.3750,240.5000,21.3125,-158.0625,0
1777067623.091,9.1459,2.9353,-2.1787,0.2723,0.0179,0.0171,-46.2000,26.7000,31.8000,9.6750,0.3998,-0.9050,0.0352,-0.0101,0.0226,-54.7500,-0.1500,8.7000,3.6000,3.2100,-8.5200,-0.0164,0.0196,-0.0196,-26.3750,-20.2500,21.3750,240.5000,21.3750,-158.0625,0
1777067623.096,9.0022,2.8730,-2.0973,0.2526,0.0336,0.0149,-46.2000,26.7000,31.8000,9.6750,0.3998,-0.9050,0.0352,-0.0101,0.0226,-55.5000,2.1000,7.9500,3.6100,3.1400,-8.5500,-0.0229,0.0229,-0.0207,-27.5000,-18.7500,20.8750,240.5000,21.3750,-158.0625,0
1777067623.101,9.0022,2.8730,-2.0973,0.2526,0.0336,0.0149,-47.1000,26.5500,30.6000,9.6798,0.4764,-1.0942,0.0067,-0.0205,0.0256,-55.5000,2.1000,7.9500,3.6100,3.1400,-8.5500,-0.0229,0.0229,-0.0207,-27.5000,-18.7500,20.8750,240.5000,21.3750,-158.0625,0
1777067623.106,8.9639,2.8587,-2.0638,0.2140,0.0682,0.0069,-47.1000,26.5500,30.6000,9.6798,0.4764,-1.0942,0.0067,-0.0205,0.0256,-55.5000,2.1000,7.9500,3.6600,3.2400,-8.5500,-0.0273,0.0240,-0.0218,-27.5000,-18.7500,20.8750,240.5000,21.3750,-158.0625,0
1777067623.111,8.9639,2.8587,-2.0638,0.2140,0.0682,0.0069,-46.0500,27.0000,31.9500,9.6367,0.5602,-1.0415,0.0131,-0.0096,0.0211,-55.5000,2.1000,7.9500,3.6600,3.2400,-8.5500,-0.0295,0.0240,-0.0196,-27.5000,-18.7500,20.8750,240.5000,21.3750,-158.0625,0
1777067623.117,9.1866,2.8491,-2.0327,0.1868,0.0773,0.0069,-45.1500,27.9000,28.9500,9.7324,0.5674,-0.8715,0.0131,-0.0096,0.0211,-55.0500,0.3000,6.9000,3.6300,3.2200,-8.5300,-0.0295,0.0240,-0.0196,-27.5000,-18.7500,20.8750,240.5000,21.3750,-158.0625,0
1777067623.126,9.1171,2.8323,-2.0662,0.1732,0.0338,0.0123,-45.1500,27.9000,28.9500,9.6486,0.5171,-1.0199,0.0280,-0.0128,0.0184,-53.7000,-0.9000,7.9500,3.6100,3.2100,-8.5200,-0.0262,0.0240,-0.0240,-27.5000,-18.7500,20.8750,240.5000,21.3750,-158.0625,0
1777067623.131,9.0908,2.8922,-2.0327,0.1601,0.0016,0.0043,-45.1500,27.9000,28.9500,9.6486,0.5171,-1.0199,0.0040,-0.0280,0.0197,-53.7000,-0.9000,7.9500,3.6100,3.2100,-8.5200,-0.0229,0.0218,-0.0229,-27.5000,-18.7500,20.8750,240.4375,21.3750,-158.0000,0
1777067623.137,9.0908,2.8922,-2.0327,0.1601,0.0016,0.0043,-46.2000,27.4500,30.7500,9.6271,0.5076,-1.0942,0.0152,-0.0155,0.0131,-53.7000,2.1000,7.5000,3.6200,3.2600,-8.5000,-0.0229,0.0218,-0.0229,-27.5000,-18.7500,20.8750,240.4375,21.3750,-158.0000,0
1777067623.142,9.0070,2.8323,-1.9848,0.1450,0.0274,0.0021,-46.2000,27.4500,30.7500,9.6271,0.5076,-1.0942,0.0152,-0.0155,0.0131,-53.7000,2.1000,7.5000,3.6200,3.2600,-8.5000,-0.0218,0.0218,-0.0240,-27.0625,-19.5000,22.1875,240.4375,21.3750,-158.0000,0
1777067623.147,9.0070,2.8323,-1.9848,0.1450,0.0274,0.0021,-46.5000,27.7500,29.8500,9.6869,0.5411,-1.0989,0.0322,-0.0226,0.0123,-54.6000,1.5000,9.1500,3.6300,3.2300,-8.4800,-0.0218,0.0218,-0.0240,-27.0625,-19.5000,22.1875,240.4375,21.3750,-158.0000,0
1777067623.152,9.0908,2.8299,-2.0399,0.1090,0.0400,-0.0064,-46.5000,27.7500,29.8500,9.6869,0.5411,-1.0989,0.0322,-0.0226,0.0123,-54.6000,1.5000,9.1500,3.6300,3.2300,-8.4800,-0.0185,0.0196,-0.0262,-27.0625,-19.5000,22.1875,240.4375,21.3750,-158.0000,0
1777067623.157,9.0908,2.8299,-2.0399,0.1090,0.0400,-0.0064,-46.6500,27.9000,30.0000,9.6774,0.4860,-1.1205,0.0485,-0.0354,0.0096,-53.2500,0.4500,7.5000,3.6000,3.2200,-8.5000,-0.0185,0.0196,-0.0262,-27.0625,-19.5000,22.1875,240.4375,21.3750,-158.0000,0
1777067623.162,8.9950,2.9209,-2.1452,0.0578,0.0330,-0.0115,-46.6500,27.9000,30.0000,9.6774,0.4860,-1.1205,0.0485,-0.0354,0.0096,-53.2500,0.4500,7.5000,3.6000,3.2200,-8.5000,-0.0120,0.0185,-0.0262,-27.0625,-19.5000,22.1875,240.4375,21.4375,-158.0000,0
1777067623.167,8.9950,2.9209,-2.1452,0.0578,0.0330,-0.0115,-45.7500,27.7500,30.9000,9.6271,0.4741,-1.0151,0.0469,-0.0269,0.0112,-54.4500,0.1500,8.2500,3.6400,3.2100,-8.5100,-0.0120,0.0185,-0.0262,-27.0625,-19.5000,22.1875,240.4375,21.4375,-158.0000,0
1777067623.176,8.9280,2.9832,-2.1237,0.0109,0.0445,-0.0109,-45.7500,27.7500,30.9000,9.6319,0.4549,-1.1660,-0.0035,-0.0195,0.0189,-54.4500,0.1500,8.2500,3.6100,3.2200,-8.5500,-0.0076,0.0153,-0.0218,-27.0625,-19.5000,22.1875,240.4375,21.4375,-158.0000,0
1777067623.183,9.0118,3.0095,-2.1117,-0.0109,0.0605,-0.0189,-45.7500,27.7500,30.9000,9.6319,0.4549,-1.1660,-0.0035,-0.0195,0.0189,-54.4500,0.1500,8.2500,3.7100,3.1600,-8.5400,-0.0098,0.0153,-0.0207,-27.0625,-19.5000,22.1875,240.3750,21.4375,-158.0000,0
1777067623.187,9.0118,3.0095,-2.1117,-0.0109,0.0605,-0.0189,-45.4500,28.6500,30.4500,9.6798,0.5195,-1.2258,-0.0173,-0.0117,0.0216,-55.2000,0.1500,7.9500,3.7100,3.1600,-8.5400,-0.0098,0.0153,-0.0207,-27.0625,-19.5000,22.1875,240.3750,21.4375,-158.0000,0
1777067623.192,9.0094,3.0957,-2.2170,-0.0067,0.0589,-0.0250,-45.4500,28.6500,30.4500,9.6798,0.5195,-1.2258,-0.0173,-0.0117,0.0216,-55.2000,0.1500,7.9500,3.6100,3.2600,-8.4900,-0.0175,0.0153,-0.0196,-27.5000,-20.5625,22.1875,240.3750,21.4375,-158.0000,0
1777067623.197,9.0094,3.0957,-2.2170,-0.0067,0.0589,-0.0250,-46.6500,26.7000,30.0000,9.7229,0.4932,-0.9649,0.0155,-0.0091,0.0152,-55.2000,0.1500,7.9500,3.6100,3.2600,-8.4900,-0.0175,0.0153,-0.0196,-27.5000,-20.5625,22.1875,240.3750,21.4375,-158.0000,0
1777067623.206,9.1363,3.1101,-2.2218,0.0056,0.0634,-0.0336,-45.4500,26.7000,30.0000,9.6534,0.5962,-1.0798,-0.0005,-0.0155,0.0139,-53.7000,1.6500,7.5000,3.5800,3.2900,-8.4700,-0.0131,0.0175,-0.0229,-27.5000,-20.5625,22.1875,240.3750,21.4375,-158.0000,0
1777067623.213,9.1794,3.2058,-2.3607,0.0304,0.0605,-0.0211,-45.4500,26.7000,30.0000,9.5840,0.4836,-1.1157,-0.0005,-0.0155,0.0139,-53.7000,1.6500,7.5000,3.5900,3.2200,-8.5200,-0.0109,0.0142,-0.0207,-27.5000,-20.5625,22.1875,240.3750,21.4375,-158.0000,0
1777067623.217,9.1794,3.2058,-2.3607,0.0456,0.0264,-0.0093,-46.6500,28.9500,29.7000,9.5840,0.4836,-1.1157,0.0274,-0.0141,0.0115,-54.0000,0.4500,7.2000,3.5900,3.2200,-8.5200,-0.0109,0.0142,-0.0207,-27.5000,-20.5625,22.1875,240.3750,21.4375,-158.0000,0
1777067623.226,9.0764,3.1819,-2.2553,0.0456,0.0264,-0.0093,-46.6500,28.9500,29.7000,9.6558,0.5459,-0.9720,0.0424,-0.0200,0.0053,-54.1500,1.0500,8.4000,3.5700,3.2700,-8.4800,-0.0098,0.0185,-0.0229,-27.5000,-20.5625,22.1875,240.3750,21.4375,-158.0000,0
1777067623.235,9.0022,3.2753,-2.1979,0.0973,0.0107,0.0035,-46.6500,28.9500,29.7000,9.7300,0.4908,-1.0870,0.0445,-0.0298,0.0021,-55.0500,1.0500,8.4000,3.6000,3.2600,-8.5000,-0.0076,0.0185,-0.0218,-27.5000,-20.5625,22.1875,240.3750,21.4375,-158.0000,0
1777067623.240,9.0501,3.3112,-2.1811,0.1146,0.0099,0.0005,-46.6500,28.2000,30.0000,9.7300,0.4908,-1.0870,0.0445,-0.0298,0.0021,-55.0500,0.0000,8.1000,3.6000,3.2600,-8.5000,-0.0076,0.0185,-0.0218,-27.5000,-20.5625,22.1875,240.3750,21.4375,-158.0000,0
1777067623.246,9.0501,3.3112,-2.1811,0.1146,0.0099,0.0005,-46.5000,28.5000,28.8000,9.6510,0.4717,-1.0391,0.0498,-0.0285,0.0045,-55.0500,0.0000,8.1000,3.6400,3.2300,-8.5100,-0.0033,0.0185,-0.0175,-27.0625,-20.2500,21.3750,240.3125,21.4375,-158.0000,0
1777067623.253,8.9591,3.3447,-2.0399,0.0973,0.0448,-0.0048,-46.5000,28.5000,28.8000,9.6247,0.4477,-1.1827,0.0258,-0.0216,0.0157,-55.0500,0.0000,8.1000,3.6500,3.2000,-8.5100,-0.0011,0.0131,-0.0164,-27.0625,-20.2500,21.3750,240.3125,21.4375,-158.0000,0
1777067623.258,8.9136,3.3208,-1.8938,0.1170,0.1119,-0.0141,-46.0500,28.0500,30.6000,9.6247,0.4477,-1.1827,0.0258,-0.0216,0.0157,-54.6000,1.5000,7.6500,3.6500,3.2000,-8.5100,-0.0011,0.0131,-0.0164,-27.0625,-20.2500,21.3750,240.3125,21.4375,-158.0000,0
1777067623.267,8.9495,3.3327,-1.8172,0.1319,0.1412,-0.0179,-46.8000,28.8000,30.6000,9.6822,0.4238,-1.2258,0.0213,-0.0099,0.0075,-54.6000,1.5000,7.6500,3.6600,3.2400,-8.5000,-0.0011,0.0065,-0.0164,-27.0625,-20.2500,21.3750,240.3125,21.4375,-158.0000,0
1777067623.273,8.9495,3.3327,-1.8172,0.1319,0.1412,-0.0179,-46.8000,28.8000,30.6000,9.6247,0.5195,-1.1684,0.0317,-0.0123,0.0064,-54.6000,1.5000,7.6500,3.6100,3.2800,-8.4900,0.0011,0.0098,-0.0153,-27.0625,-20.2500,21.3750,240.3125,21.4375,-158.0000,0
1777067623.278,9.0285,3.1891,-1.9082,0.1676,0.1492,-0.0160,-45.0000,28.0500,31.6500,9.6247,0.5195,-1.1684,0.0317,-0.0123,0.0064,-54.1500,0.7500,8.4000,3.6100,3.2800,-8.4900,0.0011,0.0098,-0.0153,-27.0625,-20.2500,21.3750,240.3125,21.4375,-158.0000,0
1777067623.287,9.1602,3.0598,-1.8028,0.2105,0.1002,-0.0043,-45.0000,28.0500,31.6500,9.6414,0.4908,-1.0918,0.0448,-0.0131,0.0069,-53.8500,1.0500,7.6500,3.6200,3.2300,-8.5200,0.0055,0.0087,-0.0164,-27.0625,-20.2500,21.3750,240.3125,21.4375,-158.0000,0
1777067623.292,9.1602,3.0598,-1.8028,0.2105,0.1002,-0.0043,-45.0000,28.0500,31.6500,9.6391,0.3855,-1.1229,0.0584,-0.0211,-0.0043,-53.8500,1.0500,7.6500,3.6200,3.2300,-8.5200,0.0065,0.0022,-0.0120,-26.3750,-20.2500,22.5625,240.3125,21.4375,-158.0000,0
1777067623.297,9.0453,2.8922,-2.0590,0.2638,0.0517,0.0237,-46.2000,27.1500,31.0500,9.6391,0.3855,-1.1229,0.0584,-0.0211,-0.0043,-55.0500,1.5000,7.6500,3.6300,3.2400,-8.5000,0.0065,0.0022,-0.0120,-26.3750,-20.2500,22.5625,240.3125,21.4375,-158.0000,0
1777067623.306,9.1099,2.7031,-2.1763,0.2422,-0.0200,0.0522,-45.3000,27.7500,30.6000,9.6798,0.3352,-1.2115,0.0413,-0.0128,-0.0035,-54.7500,1.3500,7.5000,3.6100,3.2300,-8.5100,0.0076,0.0044,-0.0087,-26.3750,-20.2500,22.5625,240.3125,21.4375,-158.0000,0
1777067623.315,9.0070,2.8323,-2.3320,0.1812,-0.0357,0.0653,-46.0500,26.5500,30.9000,9.6414,0.5267,-1.0487,0.0384,-0.0155,0.0035,-54.7500,1.3500,7.5000,3.6100,3.2100,-8.5400,0.0044,0.0022,-0.0087,-26.3750,-20.2500,22.5625,240.3125,21.4375,-158.0000,0
1777067623.320,9.0070,2.8323,-2.3320,0.1812,-0.0357,0.0653,-46.0500,26.5500,30.9000,9.6223,0.4932,-1.2186,0.0035,-0.0149,0.0000,-54.7500,1.3500,7.5000,3.6100,3.2100,-8.5400,0.0044,0.0022,-0.0087,-26.3750,-20.2500,22.5625,240.3125,21.4375,-158.0000,0
1777067623.327,8.9280,2.8419,-2.3056,0.1444,-0.0032,0.0648,-46.2000,28.2000,28.2000,9.6223,0.4932,-1.2186,0.0035,-0.0149,0.0000,-55.5000,1.6500,7.5000,3.7000,3.2100,-8.5000,0.0044,0.0033,-0.0076,-26.3750,-20.2500,22.5625,240.3125,21.4375,-158.0000,0
1777067623.335,8.9304,2.8970,-2.2673,0.1482,0.0442,0.0522,-46.2000,28.2000,28.2000,9.6319,0.4741,-1.1181,0.0173,0.0067,0.0069,-55.5000,1.6500,7.5000,3.6300,3.2700,-8.4800,0.0000,0.0044,-0.0055,-26.3750,-20.2500,22.5625,240.3125,21.4375,-158.0000,0
1777067623.340,8.9304,2.8970,-2.2673,0.1482,0.0442,0.0522,-46.2000,28.2000,28.2000,9.6702,0.4070,-0.9840,0.0226,-0.0005,0.0008,-55.5000,1.6500,7.5000,3.6300,3.2700,-8.4800,0.0000,0.0044,-0.0055,-26.3750,-19.8750,21.3750,240.3125,21.4375,-158.0625,0
1777067623.347,9.0237,3.0287,-2.1691,0.1759,0.0472,0.0493,-46.2000,28.2000,30.4500,9.5600,0.3998,-1.0127,0.0226,-0.0005,0.0008,-53.8500,1.0500,7.3500,3.6100,3.2800,-8.4700,0.0044,0.0044,-0.0055,-26.3750,-19.8750,21.3750,240.3125,21.4375,-158.0625,0
1777067623.356,9.1028,2.8874,-2.2984,0.1668,0.1029,0.0592,-45.7500,27.7500,30.6000,9.5600,0.3998,-1.0127,0.0011,0.0021,-0.0069,-53.8500,1.0500,7.3500,3.6600,3.2100,-8.5100,0.0076,-0.0011,-0.0022,-26.3750,-19.8750,21.3750,240.3125,21.4375,-158.0625,0
1777067623.363,9.2871,2.7653,-2.2913,0.1375,0.1005,0.0642,-46.6500,28.9500,30.6000,9.7276,0.3089,-1.0127,-0.0059,-0.0288,-0.0149,-54.7500,1.3500,8.7000,3.6900,3.2100,-8.5600,0.0076,-0.0022,-0.0011,-26.3750,-19.8750,21.3750,240.3125,21.5000,-158.0625,0
1777067623.368,9.2871,2.7653,-2.2913,0.1375,0.1005,0.0642,-46.6500,28.9500,31.0500,9.6917,0.3567,-0.9649,-0.0088,-0.0128,-0.0117,-55.2000,0.9000,9.0000,3.6900,3.2100,-8.5600,0.0076,-0.0022,-0.0011,-26.3750,-19.8750,21.3750,240.3125,21.5000,-158.0625,0
1777067623.377,9.2656,2.7366,-2.1835,0.1239,0.0592,0.0544,-45.1500,27.9000,29.7000,9.7061,0.3879,-0.9840,-0.0501,0.0003,-0.0101,-54.0000,1.3500,8.2500,3.6300,3.2200,-8.5500,0.0033,-0.0065,-0.0022,-26.3750,-19.8750,21.3750,240.3125,21.5000,-158.0625,0
1777067623.385,9.1411,2.6719,-2.0710,0.0810,0.0528,0.0610,-45.1500,27.9000,29.7000,9.7061,0.3879,-0.9840,-0.0501,0.0003,-0.0101,-54.0000,1.3500,8.2500,3.6300,3.2000,-8.5200,-0.0011,-0.0065,-0.0022,-26.3750,-19.8750,21.3750,240.3125,21.5000,-158.0625,0
1777067623.390,9.1411,2.6719,-2.0710,0.0810,0.0528,0.0610,-45.1500,27.9000,29.7000,9.7899,0.5100,-0.9936,-0.0640,-0.0274,-0.0085,-54.0000,1.3500,8.2500,3.6300,3.2000,-8.5200,-0.0011,-0.0065,-0.0022,-26.3750,-19.8750,21.3750,240.3125,21.5000,-158.0625,0
1777067623.395,9.4164,2.5809,-2.2697,-0.0013,-0.0091,0.0328,-45.4500,29.7000,29.7000,9.7229,0.5435,-1.0918,-0.0640,-0.0274,-0.0085,-54.0000,1.3500,8.2500,3.6300,3.1900,-8.5400,-0.0044,-0.0055,-0.0011,-26.6875,-19.5000,21.7500,240.3125,21.5000,-158.0625,0
1777067623.400,9.4164,2.5809,-2.2697,-0.0013,-0.0091,0.0328,-45.4500,29.7000,29.7000,9.7229,0.5435,-1.0918,-0.0754,-0.0237,-0.0035,-54.4500,0.4500,7.2000,3.6300,3.1900,-8.5400,-0.0044,-0.0055,-0.0011,-26.6875,-19.5000,21.7500,240.3125,21.5000,-158.0625,0
1777067623.407,9.3853,2.9281,-2.2673,-0.1276,-0.0616,-0.0171,-45.4500,27.4500,30.4500,9.7300,0.6416,-1.1444,-0.0544,-0.0426,-0.0048,-54.4500,0.4500,7.2000,3.6300,3.2000,-8.5500,-0.0087,-0.0044,-0.0011,-26.6875,-19.5000,21.7500,240.3125,21.5000,-158.0625,0
1777067623.416,9.1530,2.9999,-2.3272,-0.1974,-0.0695,-0.0352,-45.4500,27.4500,29.2500,9.6798,0.6321,-1.2019,-0.0520,-0.0306,0.0021,-54.4500,0.4500,7.2000,3.6400,3.2400,-8.5400,-0.0164,-0.0022,-0.0033,-26.6875,-19.5000,21.7500,240.3125,21.5000,-158.0625,0
1777067623.423,9.6175,3.0167,-2.5211,-0.1660,0.0104,-0.0781,-45.4500,28.6500,30.4500,9.6798,0.6321,-1.2019,-0.0520,-0.0306,0.0021,-56.5500,0.3000,7.3500,3.6400,3.2500,-8.5100,-0.0207,-0.0033,-0.0033,-26.6875,-19.5000,21.7500,240.3125,21.5000,-158.0625,0
1777067623.428,9.6175,3.0167,-2.5211,-0.1660,0.0104,-0.0781,-45.4500,28.6500,30.4500,9.6893,0.5770,-1.2258,-0.0472,-0.0115,0.0053,-55.2000,1.3500,6.7500,3.6400,3.2500,-8.5100,-0.0207,-0.0033,-0.0033,-26.6875,-19.5000,21.7500,240.3125,21.5000,-158.0625,0
1777067623.437,9.8282,2.8443,-2.4110,-0.0632,-0.0605,-0.1418,-44.2500,28.5000,30.1500,9.6151,0.4788,-1.1037,-0.0197,-0.0218,-0.0085,-55.9500,0.1500,7.2000,3.6200,3.2700,-8.5100,-0.0218,-0.0033,-0.0033,-26.6875,-19.5000,21.7500,240.3125,21.5000,-158.0625,0
1777067623.442,9.1051,2.7246,-2.2913,-0.0405,-0.1977,-0.1172,-44.2500,28.5000,30.1500,9.6151,0.4788,-1.1037,-0.0197,-0.0218,-0.0085,-55.9500,0.1500,7.2000,3.6200,3.2700,-8.5100,-0.0218,-0.0033,-0.0033,-27.0625,-19.8750,21.3750,240.3125,21.5000,-158.0625,0
1777067623.447,9.1051,2.7246,-2.2913,-0.0405,-0.1977,-0.1172,-44.2500,28.5000,30.1500,9.6917,0.4357,-1.0127,-0.0136,-0.0168,-0.0221,-55.9500,0.1500,7.2000,3.6200,3.3000,-8.4800,-0.0240,0.0011,-0.0076,-27.0625,-19.8750,21.3750,240.3125,21.5000,-158.0625,0
1777067623.452,8.4156,2.7318,-2.2434,-0.0557,-0.1881,-0.0600,-46.8000,28.5000,30.1500,9.6917,0.4357,-1.0127,-0.0136,-0.0168,-0.0221,-54.6000,1.9500,7.6500,3.6200,3.3000,-8.4800,-0.0240,0.0011,-0.0076,-27.0625,-19.8750,21.3750,240.3125,21.5000,-158.0625,0
1777067623.457,8.4156,2.7318,-2.2434,-0.0557,-0.1881,-0.0600,-46.8000,30.0000,30.9000,9.6798,0.3065,-1.0678,-0.0741,-0.0160,-0.0197,-54.6000,1.9500,7.6500,3.6400,3.2300,-8.5200,-0.0196,0.0011,-0.0065,-27.0625,-19.8750,21.3750,240.3125,21.5000,-158.0625,0
1777067623.462,8.4300,2.8754,-2.2482,-0.0506,-0.0354,-0.0128,-46.5000,28.5000,30.6000,9.6798,0.3065,-1.0678,-0.0741,-0.0160,-0.0197,-55.3500,0.3000,7.3500,3.6400,3.2300,-8.5200,-0.0185,0.0033,-0.0044,-27.0625,-19.8750,21.3750,240.3125,21.5000,-158.0625,0
1777067623.468,8.4300,2.8754,-2.2482,-0.0506,-0.0354,-0.0128,-46.5000,28.5000,30.6000,9.7133,0.1580,-1.0894,-0.1077,-0.0424,-0.0264,-53.8500,1.5000,7.3500,3.6300,3.2100,-8.5300,-0.0185,0.0033,-0.0044,-27.0625,-19.8750,21.3750,240.3125,21.5000,-158.0625,0
1777067623.477,8.7652,3.0023,-2.0542,-0.1601,0.0616,0.0075,-43.9500,28.0500,29.8500,9.5624,0.2562,-1.1061,-0.1186,-0.0458,-0.0160,-53.8500,1.5000,7.3500,3.6300,3.2100,-8.5400,-0.0273,-0.0022,-0.0033,-27.0625,-19.8750,21.3750,240.3125,21.5000,-158.0625,0
1777067623.484,8.8538,3.2010,-2.0614,-0.2198,0.0813,0.0157,-45.3000,28.0500,30.1500,9.5624,0.5195,-1.1779,-0.1452,0.0035,-0.0056,-53.8500,1.5000,7.3500,3.6500,3.2000,-8.5000,-0.0295,-0.0065,0.0000,-27.0625,-19.8750,21.3750,240.3750,21.5000,-158.0625,0
1777067623.489,8.9376,3.4141,-2.1261,-0.2561,0.0765,0.0155,-45.3000,28.0500,30.1500,9.5624,0.5195,-1.1779,-0.1452,0.0035,-0.0056,-54.0000,-0.1500,8.2500,3.6500,3.2000,-8.5000,-0.0295,-0.0065,0.0000,-27.0625,-19.8750,21.3750,240.3750,21.5000,-158.0625,0
1777067623.494,8.9376,3.4141,-2.1261,-0.2561,0.0765,0.0155,-45.3000,28.0500,30.1500,9.7755,0.6297,-1.0965,-0.1689,-0.0133,0.0037,-54.0000,-0.1500,8.2500,3.6200,3.2000,-8.5100,-0.0284,-0.0109,0.0022,-26.3750,-19.8750,22.1875,240.3750,21.5000,-158.0000,0
1777067623.499,8.9974,3.4716,-2.0016,-0.2411,0.0757,0.0218,-45.3000,28.0500,30.1500,9.7755,0.6297,-1.0965,-0.1689,-0.0133,0.0037,-54.0000,1.6500,8.7000,3.6200,3.2000,-8.5100,-0.0284,-0.0109,0.0022,-26.3750,-19.8750,22.1875,240.3750,21.5000,-158.0000,0
1777067623.503,8.9974,3.4716,-2.0016,-0.2411,0.0757,0.0218,-45.0000,28.0500,29.8500,9.6702,0.7685,-1.1396,-0.1500,-0.0040,0.0019,-54.0000,1.6500,8.7000,3.6300,3.2200,-8.5100,-0.0316,-0.0131,0.0044,-26.3750,-19.8750,22.1875,240.3750,21.5000,-158.0000,0
1777067623.508,9.0932,3.5913,-2.0614,-0.1916,0.0282,0.0197,-45.0000,28.0500,29.8500,9.6702,0.7685,-1.1396,-0.1500,-0.0040,0.0019,-53.4000,0.3000,7.6500,3.6300,3.2200,-8.5100,-0.0316,-0.0131,0.0044,-26.3750,-19.8750,22.1875,240.3750,21.5000,-158.0000,0
1777067623.513,9.0932,3.5913,-2.0614,-0.1916,0.0282,0.0197,-46.0500,27.0000,30.6000,9.6223,0.9768,-1.0942,-0.1106,-0.0160,-0.0013,-53.4000,0.3000,7.6500,3.6100,3.2800,-8.5100,-0.0371,-0.0087,0.0065,-26.3750,-19.8750,22.1875,240.3750,21.5000,-158.0000,0
1777067623.518,8.9088,3.7350,-1.9848,-0.1247,0.0048,0.0237,-46.0500,27.0000,30.6000,9.6223,0.9768,-1.0942,-0.1106,-0.0160,-0.0013,-54.0000,0.9000,7.6500,3.6100,3.2800,-8.5100,-0.0371,-0.0087,0.0065,-26.3750,-19.8750,22.1875,240.3750,21.5000,-158.0000,0
1777067623.527,8.9088,3.7350,-1.9848,-0.0743,0.0320,0.0280,-45.7500,28.8000,30.6000,9.6606,1.0080,-1.1684,-0.0719,-0.0200,-0.0077,-54.0000,0.9000,6.4500,3.5600,3.3800,-8.4500,-0.0360,-0.0044,0.0076,-26.3750,-19.8750,22.1875,240.3750,21.5000,-158.0000,0
1777067623.533,8.8729,3.6751,-1.9944,-0.0743,0.0320,0.0280,-45.4500,28.6500,29.2500,9.6055,1.0008,-1.1827,-0.0296,-0.0245,-0.0064,-55.3500,0.7500,8.4000,3.5900,3.4000,-8.4300,-0.0240,-0.0044,0.0076,-26.3750,-19.8750,22.1875,240.3750,21.5000,-158.0000,0
1777067623.538,9.0477,3.5865,-1.9920,-0.0112,0.0149,0.0208,-45.4500,28.6500,29.2500,9.6055,1.0008,-1.1827,-0.0296,-0.0245,-0.0064,-54.0000,0.1500,7.9500,3.5900,3.4000,-8.4300,-0.0240,-0.0044,0.0076,-26.3750,-19.8750,22.1875,240.3750,21.5000,-158.0000,0
1777067623.543,9.0477,3.5865,-1.9920,-0.0112,0.0149,0.0208,-45.4500,28.6500,29.2500,9.5912,0.9026,-1.1444,0.0240,-0.0240,-0.0072,-54.0000,0.1500,7.9500,3.6200,3.4100,-8.4300,-0.0131,-0.0011,0.0055,-26.6875,-20.2500,21.3750,240.3750,21.5000,-158.0000,0
1777067623.548,8.9256,3.5362,-1.9800,0.0392,0.0168,0.0173,-45.4500,28.6500,29.2500,9.5912,0.9026,-1.1444,0.0240,-0.0240,-0.0072,-54.0000,0.1500,7.9500,3.6200,3.4100,-8.4300,-0.0131,-0.0011,0.0055,-26.6875,-20.2500,21.3750,240.3750,21.5000,-158.0000,0
1777067623.557,8.8849,3.3974,-1.8316,0.1026,0.0640,0.0197,-45.4500,28.6500,29.2500,9.5529,0.7781,-1.1253,0.0429,-0.0072,-0.0051,-54.0000,0.1500,7.9500,3.6300,3.3100,-8.4200,-0.0022,0.0011,0.0044,-26.6875,-20.2500,21.3750,240.3750,21.5000,-158.0000,0
1777067623.564,8.8849,3.3974,-1.8316,0.1026,0.0640,0.0197,-45.7500,28.0500,29.8500,9.6031,0.5866,-1.1205,0.0402,-0.0043,0.0037,-55.8000,0.7500,8.8500,3.6100,3.3200,-8.5000,0.0055,-0.0011,0.0033,-26.6875,-20.2500,21.3750,240.3750,21.5000,-158.0000,0
1777067623.569,8.8849,3.3112,-1.9058,0.1553,0.0933,0.0250,-45.7500,28.0500,29.8500,9.7157,0.4262,-1.1372,0.0144,-0.0075,0.0037,-54.0000,0.4500,7.2000,3.6100,3.3200,-8.5000,0.0055,-0.0011,0.0033,-26.6875,-20.2500,21.3750,240.3750,21.5000,-158.0000,0
1777067623.577,8.8514,3.1532,-1.8914,0.2196,0.0703,0.0237,-45.7500,27.7500,28.8000,9.7157,0.4262,-1.1372,0.0144,-0.0075,0.0037,-54.0000,0.4500,7.2000,3.6100,3.3200,-8.4500,0.0153,-0.0033,0.0033,-26.6875,-20.2500,21.3750,240.3750,21.5000,-158.0000,0
1777067623.587,8.8490,3.0358,-1.9034,0.2300,0.0701,0.0386,-45.3000,28.5000,29.8500,9.7085,0.3879,-1.2641,-0.0136,-0.0197,0.0032,-52.9500,0.9000,6.7500,3.5900,3.2900,-8.5000,0.0240,-0.0065,0.0022,-26.6875,-20.2500,21.3750,240.3750,21.5000,-158.0000,0
1777067623.592,8.8490,3.0358,-1.9034,0.2300,0.0701,0.0386,-45.4500,27.9000,30.7500,9.6055,0.3807,-1.2498,-0.0432,-0.0176,-0.0035,-56.2500,0.4500,7.9500,3.5900,3.2900,-8.5000,0.0240,-0.0065,0.0022,-26.6875,-20.2500,21.3750,240.3750,21.5000,-158.0000,0
1777067623.597,8.9878,2.8802,-1.9824,0.1956,0.0869,0.0456,-45.4500,27.9000,30.7500,9.5146,0.5171,-1.2809,-0.0432,-0.0176,-0.0035,-56.2500,0.4500,7.9500,3.5900,3.2800,-8.4900,0.0295,-0.0055,0.0044,-26.3750,-20.2500,20.8750,240.3750,21.5000,-158.0000,0
1777067623.601,8.9878,2.8802,-1.9824,0.1956,0.0869,0.0456,-45.4500,27.9000,30.7500,9.5146,0.5171,-1.2809,-0.0509,-0.0131,-0.0059,-54.0000,0.1500,7.5000,3.5900,3.2800,-8.4900,0.0295,-0.0055,0.0044,-26.3750,-20.2500,20.8750,240.3750,21.5000,-158.0000,0
1777067623.606,9.0094,2.8778,-2.1644,0.1929,0.0810,0.0416,-45.4500,27.9000,30.7500,9.5720,0.5890,-1.2163,-0.0509,-0.0131,-0.0059,-54.0000,0.1500,7.5000,3.6300,3.2400,-8.5000,0.0251,-0.0044,0.0055,-26.3750,-20.2500,20.8750,240.3750,21.5000,-158.0625,0
1777067623.611,9.0094,2.8778,-2.1644,0.1929,0.0810,0.0416,-44.4000,28.2000,29.2500,9.5720,0.5890,-1.2163,-0.0560,0.0000,0.0024,-54.0000,1.6500,8.2500,3.6300,3.2400,-8.5000,0.0284,0.0022,0.0076,-26.3750,-20.2500,20.8750,240.3750,21.5000,-158.0625,0
1777067623.617,9.1387,2.9161,-2.3990,0.1972,0.0557,0.0325,-44.4000,28.2000,29.2500,9.6199,0.6752,-1.1923,-0.0282,-0.0029,0.0029,-54.0000,1.6500,8.2500,3.6600,3.2500,-8.4800,0.0284,0.0022,0.0076,-26.3750,-20.2500,20.8750,240.3750,21.5000,-158.0625,0
1777067623.627,9.1435,2.9688,-2.4588,0.1828,0.0304,0.0245,-45.3000,27.0000,31.9500,9.6606,0.6321,-1.2378,-0.0040,-0.0032,0.0093,-54.0000,1.6500,8.2500,3.6100,3.2900,-8.5300,0.0305,0.0000,0.0065,-26.3750,-20.2500,20.8750,240.3750,21.5000,-158.0625,0
1777067623.634,9.1698,3.0382,-2.4708,0.1463,0.0139,0.0218,-45.9000,27.9000,30.0000,9.6606,0.6321,-1.2378,-0.0040,-0.0032,0.0093,-56.5500,1.0500,7.3500,3.6100,3.2800,-8.5100,0.0327,-0.0011,0.0055,-26.3750,-20.2500,20.8750,240.3750,21.5000,-158.1250,0
1777067623.639,9.1698,3.0382,-2.4708,0.1463,0.0139,0.0218,-45.4500,28.2000,31.0500,9.7061,0.7087,-1.2881,0.0224,-0.0109,-0.0005,-56.5500,1.0500,7.3500,3.6100,3.2800,-8.5100,0.0327,-0.0011,0.0055,-26.3750,-20.2500,20.8750,240.3750,21.5000,-158.1250,0
1777067623.644,9.0597,3.0933,-2.5307,0.1071,0.0394,0.0221,-45.4500,28.2000,31.0500,9.7061,0.7087,-1.2881,0.0224,-0.0109,-0.0005,-53.2500,0.4500,8.7000,3.6300,3.2700,-8.5000,0.0316,-0.0033,0.0044,-26.3750,-19.8750,21.3750,240.3750,21.5000,-158.1250,0
1777067623.648,9.0597,3.0933,-2.5307,0.1071,0.0394,0.0221,-45.4500,28.2000,31.0500,9.6343,0.5602,-1.1947,0.0466,-0.0200,-0.0037,-53.2500,0.4500,8.7000,3.6300,3.2700,-8.5000,0.0316,-0.0033,0.0044,-26.3750,-19.8750,21.3750,240.3750,21.5000,-158.1250,0
1777067623.653,9.0884,3.0167,-2.5235,0.0687,0.0629,0.0274,-45.4500,28.2000,31.0500,9.6343,0.5602,-1.1947,0.0466,-0.0200,-0.0037,-55.0500,0.0000,8.4000,3.6000,3.2600,-8.5400,0.0349,-0.0055,0.0044,-26.3750,-19.8750,21.3750,240.3750,21.5000,-158.1250,0
1777067623.658,9.0884,3.0167,-2.5235,0.0687,0.0629,0.0274,-45.4500,28.2000,31.0500,9.6798,0.4453,-1.2186,0.0424,-0.0072,-0.0019,-55.0500,0.0000,8.4000,3.6000,3.2600,-8.5400,0.0349,-0.0055,0.0044,-26.3750,-19.8750,21.3750,240.3750,21.5000,-158.1250,0
1777067623.663,9.0812,3.0598,-2.4014,0.0661,0.0799,0.0264,-45.9000,28.2000,30.0000,9.6798,0.4453,-1.2186,0.0424,-0.0072,-0.0019,-54.1500,1.0500,7.6500,3.6400,3.2100,-8.5600,0.0349,-0.0044,0.0044,-26.3750,-19.8750,21.3750,240.3750,21.5000,-158.1875,0
1777067623.668,9.0812,3.0598,-2.4014,0.0661,0.0799,0.0264,-46.0500,28.5000,29.8500,9.6319,0.4142,-1.2330,0.0269,0.0024,-0.0021,-54.1500,1.0500,7.6500,3.6400,3.2100,-8.5600,0.0349,-0.0044,0.0044,-26.3750,-19.8750,21.3750,240.3750,21.5000,-158.1875,0
1777067623.677,9.0860,3.0215,-2.3487,0.0741,0.1108,0.0189,-46.0500,28.5000,29.8500,9.6127,0.4549,-1.0989,0.0181,0.0008,0.0011,-54.1500,0.3000,7.6500,3.6600,3.2000,-8.5500,0.0316,0.0000,0.0022,-26.3750,-19.8750,21.3750,240.3750,21.5000,-158.1875,0
1777067623.684,8.9902,3.0861,-2.0542,0.0994,0.1079,0.0133,-45.4500,27.9000,29.7000,9.6917,0.5339,-1.1109,-0.0264,0.0115,0.0061,-53.4000,1.0500,6.1500,3.6100,3.2400,-8.5800,0.0251,-0.0033,0.0076,-26.3750,-19.8750,21.3750,240.3750,21.5000,-158.1875,0
1777067623.689,8.9902,3.0861,-2.0542,0.0994,0.1079,0.0133,-45.9000,25.9500,31.5000,9.6917,0.5339,-1.1109,-0.0264,0.0115,0.0061,-53.4000,1.0500,6.1500,3.6100,3.2400,-8.5800,0.0251,-0.0033,0.0076,-26.3750,-19.8750,21.3750,240.3750,21.5000,-158.1875,0
1777067623.694,9.0190,3.1603,-1.8603,0.1188,0.1500,-0.0064,-45.9000,25.9500,31.5000,9.6917,0.6273,-1.1372,-0.0330,0.0035,0.0123,-53.4000,1.0500,6.1500,3.6700,3.2000,-8.5600,0.0218,-0.0055,0.0055,-26.3750,-20.2500,21.7500,240.3750,21.5000,-158.2500,0
1777067623.699,9.0190,3.1603,-1.8603,0.1188,0.1500,-0.0064,-45.9000,25.9500,31.5000,9.6917,0.6273,-1.1372,-0.0330,0.0035,0.0123,-53.4000,1.0500,6.1500,3.6700,3.2000,-8.5600,0.0218,-0.0055,0.0055,-26.3750,-20.2500,21.7500,240.3750,21.5000,-158.2500,0
1777067623.707,9.3230,2.8754,-1.9489,0.1367,0.1447,-0.0141,-45.9000,25.9500,31.5000,9.6750,0.7302,-1.1420,-0.0338,0.0067,0.0093,-54.6000,0.7500,8.1000,3.6200,3.2600,-8.5100,0.0098,0.0011,0.0055,-26.3750,-20.2500,21.7500,240.3750,21.5000,-158.2500,0
1777067623.716,9.2320,2.6911,-2.1141,0.0826,0.0501,-0.0032,-45.9000,25.9500,31.5000,9.6654,0.7518,-1.2186,-0.0187,-0.0019,0.0139,-55.2000,0.9000,6.7500,3.6200,3.3000,-8.5000,0.0065,0.0011,0.0011,-26.3750,-20.2500,21.7500,240.3750,21.5000,-158.2500,0
1777067623.721,9.0932,2.8371,-2.2098,-0.0029,-0.0197,-0.0032,-45.9000,26.7000,31.0500,9.6654,0.7518,-1.2186,-0.0187,-0.0019,0.0139,-52.5000,0.1500,6.7500,3.6200,3.3000,-8.5000,0.0087,0.0044,0.0000,-26.3750,-20.2500,21.7500,240.3750,21.5000,-158.2500,0
1777067623.728,9.0932,2.8371,-2.2098,-0.0029,-0.0197,-0.0032,-46.5000,27.3000,29.8500,9.6127,0.6847,-1.1708,-0.0027,0.0045,0.0088,-52.5000,0.1500,6.7500,3.6100,3.2800,-8.5000,0.0087,0.0044,0.0000,-26.3750,-20.2500,21.7500,240.3750,21.5000,-158.2500,0
1777067623.737,9.0214,2.7701,-2.3320,-0.0581,-0.0320,-0.0005,-46.8000,27.0000,30.9000,9.5744,0.6177,-1.1564,0.0288,0.0171,0.0077,-55.2000,0.4500,8.7000,3.6000,3.2800,-8.4900,0.0087,0.0022,0.0022,-26.3750,-20.2500,21.7500,240.3750,21.5000,-158.2500,0
1777067623.742,8.9519,2.8299,-2.3080,-0.1108,-0.0226,-0.0064,-46.8000,27.0000,30.9000,9.6127,0.4597,-1.0774,0.0338,0.0056,-0.0011,-54.1500,0.0000,7.3500,3.6000,3.2800,-8.4900,0.0131,-0.0022,0.0033,-26.6875,-19.8750,22.1875,240.3750,21.5000,-158.2500,0
1777067623.748,8.9519,2.8299,-2.3080,-0.1108,-0.0226,-0.0064,-46.8000,27.0000,30.6000,9.6127,0.4597,-1.0774,0.0338,0.0056,-0.0011,-54.1500,0.0000,7.3500,3.6000,3.3300,-8.5000,0.0131,-0.0022,0.0033,-26.6875,-19.8750,22.1875,240.3750,21.5000,-158.2500,0
1777067623.757,8.9519,2.9712,-2.0686,-0.1343,0.0141,-0.0008,-46.8000,27.0000,30.6000,9.6055,0.3591,-1.0463,0.0147,0.0013,-0.0005,-55.2000,0.4500,7.5000,3.6000,3.2400,-8.5400,0.0196,-0.0044,0.0022,-26.6875,-19.8750,22.1875,240.3750,21.5000,-158.2500,0
1777067623.764,9.1075,2.9090,-1.9680,-0.1250,0.0429,0.0037,-46.8000,27.0000,30.6000,9.6965,0.3591,-1.0175,-0.0269,0.0048,0.0053,-55.2000,0.4500,7.5000,3.6100,3.1800,-8.5800,0.0240,0.0011,0.0044,-26.6875,-19.8750,22.1875,240.3750,21.5000,-158.3125,0
1777067623.768,9.1075,2.9090,-1.9680,-0.1250,0.0429,0.0037,-46.8000,27.0000,31.6500,9.6965,0.3591,-1.0175,-0.0269,0.0048,0.0053,-55.2000,0.4500,7.5000,3.6100,3.1800,-8.5800,0.0240,0.0011,0.0044,-26.6875,-19.8750,22.1875,240.3750,21.5000,-158.3125,0
1777067623.777,9.2033,2.8850,-1.9345,-0.0879,0.0578,-0.0099,-45.7500,28.8000,30.6000,9.7444,0.3663,-0.9840,-0.0698,0.0176,0.0075,-55.2000,1.6500,6.7500,3.6300,3.1600,-8.5600,0.0185,0.0011,0.0055,-26.6875,-19.8750,22.1875,240.3750,21.5000,-158.3125,0
1777067623.786,9.3087,2.9018,-2.0135,-0.0533,0.0405,-0.0269,-45.7500,28.8000,30.6000,9.5912,0.4166,-1.0774,-0.0757,-0.0184,0.0061,-55.2000,1.6500,6.7500,3.6500,3.1800,-8.5300,0.0153,0.0022,0.0055,-26.6875,-19.8750,22.1875,240.3750,21.5000,-158.3125,0
1777067623.790,9.1171,3.0598,-1.9489,-0.0027,0.0077,-0.0203,-46.5000,27.3000,29.5500,9.6127,0.5986,-1.0343,-0.0871,0.0013,0.0147,-52.5000,1.3500,7.9500,3.6500,3.1800,-8.5300,0.0153,0.0022,0.0055,-26.6875,-19.8750,22.1875,240.3750,21.5000,-158.3125,0
1777067623.795,9.1171,3.0598,-1.9489,-0.0027,0.0077,-0.0203,-46.5000,27.3000,29.5500,9.6127,0.5986,-1.0343,-0.0871,0.0013,0.0147,-52.5000,1.3500,7.9500,3.6300,3.2300,-8.5400,0.0098,0.0000,0.0044,-26.3750,-19.8750,21.7500,240.3750,21.5000,-158.3125,0
1777067623.800,9.0573,2.8276,-2.1404,0.0248,0.0080,-0.0173,-46.5000,27.7500,30.6000,9.6582,0.6919,-1.0558,-0.0693,-0.0029,0.0109,-52.5000,1.3500,7.9500,3.6300,3.2300,-8.5400,0.0098,0.0000,0.0044,-26.3750,-19.8750,21.7500,240.3750,21.5000,-158.3125,0
1777067623.808,9.0573,2.8276,-2.1404,0.0432,0.0091,-0.0120,-46.5000,27.7500,30.6000,9.6582,0.6919,-1.0558,-0.0693,-0.0029,0.0109,-52.9500,2.4000,7.9500,3.6200,3.2400,-8.5100,0.0065,0.0011,0.0033,-26.3750,-19.8750,21.7500,240.3750,21.5000,-158.3125,0
1777067623.817,9.0764,2.7222,-2.2410,0.0432,0.0091,-0.0120,-46.9500,27.4500,31.0500,9.6774,0.6728,-1.1205,-0.0320,-0.0059,0.0061,-55.5000,1.3500,6.7500,3.6400,3.2600,-8.5000,0.0076,0.0011,0.0022,-26.3750,-19.8750,21.7500,240.3750,21.5000,-158.3125,0
1777067623.824,9.0956,2.8659,-2.1979,0.0501,-0.0061,-0.0144,-46.9500,27.4500,31.0500,9.6606,0.5890,-1.2426,0.0053,-0.0141,0.0021,-54.6000,2.2500,8.1000,3.6000,3.2700,-8.5200,0.0055,-0.0022,0.0011,-26.3750,-19.8750,21.7500,240.3750,21.5000,-158.3125,0
1777067623.828,9.1387,2.9257,-2.1069,0.0650,0.0104,-0.0147,-45.7500,28.8000,31.9500,9.6079,0.4741,-1.1301,0.0280,-0.0056,0.0035,-54.6000,2.2500,8.1000,3.6000,3.2700,-8.5200,0.0055,-0.0022,0.0011,-26.3750,-19.8750,21.7500,240.3750,21.5000,-158.3125,0
1777067623.837,9.3326,2.9808,-2.0710,0.0805,0.0069,-0.0152,-45.9000,27.4500,32.1000,9.6726,0.3759,-0.9601,0.0280,-0.0056,0.0035,-54.6000,2.2500,8.1000,3.6300,3.2500,-8.5400,0.0087,-0.0055,0.0022,-26.3750,-19.8750,21.7500,240.3750,21.5000,-158.3125,0
1777067623.842,9.3326,2.9808,-2.0710,0.0805,0.0069,-0.0152,-45.9000,27.4500,32.1000,9.6726,0.3759,-0.9601,0.0229,-0.0005,-0.0005,-54.4500,1.3500,7.5000,3.6300,3.2500,-8.5400,0.0087,-0.0033,0.0022,-26.3750,-19.8750,22.1875,240.3750,21.5000,-158.3125,0
1777067623.848,9.3302,2.9712,-2.0231,0.0773,-0.0085,-0.0216,-45.9000,27.9000,30.4500,9.7540,0.3424,-0.8667,-0.0176,-0.0091,-0.0013,-54.4500,1.3500,7.5000,3.6300,3.2000,-8.5200,0.0087,-0.0033,0.0022,-26.3750,-19.8750,22.1875,240.3750,21.5000,-158.3125,0
1777067623.857,9.1195,3.0023,-1.9010,0.0552,-0.0123,-0.0357,-46.5000,29.2500,30.6000,9.7827,0.3783,-0.8739,-0.0410,-0.0269,-0.0027,-54.4500,1.3500,7.5000,3.5900,3.2500,-8.5500,0.0044,-0.0055,0.0033,-26.3750,-19.8750,22.1875,240.3750,21.5000,-158.3125,0
1777067623.863,9.1195,3.0023,-1.9010,0.0552,-0.0123,-0.0357,-46.5000,29.2500,30.6000,9.7827,0.3783,-0.8739,-0.0410,-0.0269,-0.0027,-53.8500,0.7500,9.1500,3.6100,3.2700,-8.5500,0.0065,-0.0055,0.0055,-26.3750,-19.8750,22.1875,240.3750,21.5000,-158.3750,0
1777067623.868,9.0070,3.1723,-1.8842,0.0480,0.0013,-0.0498,-46.5000,29.2500,30.6000,9.7085,0.4645,-0.9912,-0.0757,-0.0408,-0.0072,-53.8500,0.7500,9.1500,3.6100,3.2700,-8.5500,0.0065,-0.0055,0.0055,-26.3750,-19.8750,22.1875,240.3750,21.5000,-158.3750,0
1777067623.877,8.8825,3.2226,-1.8579,0.0349,0.0168,-0.0552,-46.6500,27.9000,31.8000,9.6774,0.5650,-0.9984,-0.0711,-0.0245,-0.0005,-55.2000,-0.1500,9.0000,3.6600,3.2100,-8.5500,0.0033,-0.0022,0.0076,-26.3750,-19.8750,22.1875,240.3750,21.5000,-158.3750,0
1777067623.886,8.9088,3.1340,-1.8794,0.0341,0.0370,-0.0456,-45.4500,28.6500,32.1000,9.6031,0.7039,-0.9792,-0.0578,-0.0365,0.0037,-53.1000,0.7500,6.6000,3.6900,3.2300,-8.5200,-0.0044,-0.0055,0.0055,-26.3750,-19.8750,22.1875,240.3750,21.5000,-158.3750,0
1777067623.891,8.9088,3.1340,-1.8794,0.0341,0.0370,-0.0456,-45.4500,28.6500,32.1000,9.6031,0.7039,-0.9792,-0.0578,-0.0365,0.0037,-53.1000,0.7500,6.6000,3.6900,3.2300,-8.5200,-0.0044,-0.0055,0.0055,-26.3750,-19.8750,22.1875,240.3750,21.5000,-158.3750,0
1777067623.896,9.0836,3.1436,-1.9704,0.0592,0.0506,-0.0434,-45.7500,28.0500,32.4000,9.5529,0.7685,-1.1253,-0.0498,-0.0290,0.0061,-54.0000,0.9000,8.2500,3.6200,3.2300,-8.5400,-0.0076,-0.0022,0.0011,-26.3750,-20.2500,21.7500,240.3750,21.5000,-158.3750,0
1777067623.901,9.0836,3.1436,-1.9704,0.0592,0.0506,-0.0434,-45.7500,28.0500,32.4000,9.5529,0.7685,-1.1253,-0.0498,-0.0290,0.0061,-54.0000,0.9000,8.2500,3.6200,3.2300,-8.5400,-0.0076,-0.0022,0.0011,-26.3750,-20.2500,21.7500,240.3750,21.5000,-158.3750,0
1777067623.908,9.2368,3.0478,-2.0446,0.1018,0.0354,-0.0357,-47.4000,29.7000,31.5000,9.6367,0.6488,-1.0511,-0.0266,-0.0258,0.0043,-54.0000,0.9000,8.2500,3.6000,3.2600,-8.4700,-0.0098,-0.0055,0.0000,-26.3750,-20.2500,21.7500,240.3750,21.5000,-158.3750,0
1777067623.917,9.2368,3.0167,-2.0662,0.1223,0.0109,-0.0330,-47.4000,29.7000,31.5000,9.7109,0.5818,-1.0846,-0.0314,-0.0386,-0.0067,-54.7500,1.6500,8.2500,3.6100,3.3100,-8.4900,-0.0065,-0.0033,0.0011,-26.3750,-20.2500,21.7500,240.3750,21.5000,-158.3750,0
1777067623.924,8.9232,3.1077,-2.0207,0.1420,0.0224,-0.0365,-45.4500,27.4500,31.8000,9.6558,0.6033,-1.0774,-0.0136,-0.0573,-0.0120,-54.7500,1.6500,8.2500,3.6200,3.2700,-8.5600,-0.0044,-0.0044,0.0022,-26.3750,-20.2500,21.7500,240.3750,21.5000,-158.3750,0
1777067623.929,8.9232,3.1077,-2.0207,0.1420,0.0224,-0.0365,-45.4500,27.4500,31.8000,9.6558,0.6033,-1.0774,-0.0136,-0.0573,-0.0120,-54.7500,1.6500,8.2500,3.6200,3.2700,-8.5600,-0.0044,-0.0044,0.0022,-26.3750,-20.2500,21.7500,240.3750,21.5000,-158.3750,0
1777067623.938,8.8873,3.2633,-2.1213,0.1079,0.0592,-0.0298,-46.8000,30.0000,31.9500,9.6774,0.5531,-1.1253,-0.0024,-0.0570,-0.0173,-54.1500,0.7500,8.1000,3.6000,3.2500,-8.5400,0.0044,-0.0044,0.0033,-26.3750,-20.2500,21.7500,240.3750,21.5000,-158.3750,0
1777067623.943,8.8873,3.2633,-2.1213,0.1079,0.0592,-0.0298,-46.8000,30.0000,31.9500,9.6295,0.5004,-1.0558,-0.0024,-0.0570,-0.0173,-54.0000,0.4500,8.2500,3.6000,3.2500,-8.5400,0.0011,-0.0065,0.0033,-25.5625,-19.8750,20.8750,240.3750,21.5000,-158.3750,0
1777067623.948,8.9184,3.2801,-2.1548,0.0946,0.0946,-0.0176,-45.9000,28.9500,33.9000,9.6295,0.5004,-1.0558,0.0048,-0.0517,-0.0128,-54.0000,0.4500,8.2500,3.6700,3.2100,-8.5400,0.0011,-0.0065,0.0033,-25.5625,-19.8750,20.8750,240.3750,21.5000,-158.3750,0
1777067623.958,9.0836,3.0813,-2.2362,0.1029,0.1029,-0.0075,-46.2000,28.6500,32.5500,9.5936,0.6464,-1.0319,-0.0157,-0.0469,0.0027,-53.8500,1.9500,6.6000,3.6100,3.2700,-8.5000,-0.0011,-0.0076,0.0000,-25.5625,-19.8750,20.8750,240.3750,21.5000,-158.3750,0
1777067623.966,9.1051,2.9497,-2.2218,0.1092,0.0517,-0.0056,-46.2000,28.6500,32.5500,9.6199,0.5363,-1.0750,-0.0248,-0.0472,-0.0008,-55.8000,-0.3000,6.9000,3.6600,3.2400,-8.5500,0.0011,-0.0022,-0.0022,-25.5625,-19.8750,20.8750,240.3750,21.5000,-158.3750,0
1777067623.970,9.1051,2.9497,-2.2218,0.1092,0.0517,-0.0056,-46.2000,28.6500,32.5500,9.6199,0.5363,-1.0750,-0.0248,-0.0472,-0.0008,-55.8000,-0.3000,6.9000,3.6600,3.2400,-8.5500,0.0011,-0.0022,-0.0022,-25.5625,-19.8750,20.8750,240.3750,21.5000,-158.3750,0
1777067623.978,9.1363,2.7869,-2.1715,0.1143,0.0200,0.0131,-47.5500,28.5000,32.4000,9.6822,0.5674,-1.0511,-0.0032,-0.0426,0.0008,-55.8000,-0.3000,6.9000,3.6400,3.2500,-8.5200,-0.0033,-0.0022,0.0011,-25.5625,-19.8750,20.8750,240.3750,21.5000,-158.3750,0
1777067623.988,9.0453,2.7126,-2.2410,0.1495,0.0362,0.0277,-46.9500,28.6500,32.1000,9.6007,0.5459,-1.0702,0.0008,-0.0581,-0.0075,-55.0500,1.0500,6.1500,3.6200,3.2500,-8.5400,-0.0011,0.0011,-0.0044,-25.5625,-19.8750,20.8750,240.3750,21.5000,-158.3750,0
1777067623.993,8.8921,2.6480,-2.2266,0.1295,0.0341,0.0389,-48.0000,28.6500,32.8500,9.6295,0.5962,-1.3001,-0.0091,-0.0632,-0.0147,-55.0500,1.0500,6.1500,3.6200,3.2500,-8.5400,-0.0022,0.0000,-0.0022,-26.6875,-19.8750,21.7500,240.3750,21.5000,-158.3750,0
1777067623.998,8.8921,2.6480,-2.2266,0.1295,0.0341,0.0389,-48.0000,28.6500,32.8500,9.6295,0.5962,-1.3001,-0.0091,-0.0632,-0.0147,-55.0500,1.0500,6.1500,3.6100,3.2700,-8.5000,-0.0022,0.0000,-0.0022,-26.6875,-19.8750,21.7500,240.3750,21.5000,-158.3750,0
1777067624.008,8.7867,2.8156,-2.1835,0.0911,0.0608,0.0466,-46.0500,29.5500,33.7500,9.6726,0.6105,-1.1540,0.0075,-0.0504,-0.0061,-54.4500,1.6500,7.5000,3.6100,3.2700,-8.5300,-0.0011,-0.0011,-0.0011,-26.6875,-19.8750,21.7500,240.3750,21.5000,-158.3750,0
1777067624.014,8.9854,3.0837,-2.1548,0.0714,0.1319,0.0362,-46.5000,28.0500,31.6500,9.6175,0.6105,-1.2641,0.0013,-0.0608,-0.0085,-55.0500,0.7500,6.9000,3.6400,3.2000,-8.5700,0.0011,-0.0022,-0.0044,-26.6875,-19.8750,21.7500,240.3750,21.5000,-158.3750,0
1777067624.019,8.9854,3.0837,-2.1548,0.0714,0.1319,0.0362,-46.5000,28.0500,31.6500,9.6175,0.6105,-1.2641,0.0013,-0.0608,-0.0085,-55.0500,0.7500,6.9000,3.6400,3.2000,-8.5700,0.0011,-0.0022,-0.0044,-26.6875,-19.8750,21.7500,240.3750,21.5000,-158.3750,0
1777067624.028,9.3134,3.0861,-2.2266,0.0767,0.1231,0.0011,-46.5000,28.0500,31.6500,9.5984,0.6081,-1.2330,0.0165,-0.0453,-0.0096,-52.9500,1.3500,8.2500,3.5700,3.2800,-8.5100,0.0000,-0.0033,-0.0033,-26.6875,-19.8750,21.7500,240.3750,21.5000,-158.3750,0
1777067624.035,9.4643,2.8994,-2.2577,0.0719,0.0610,-0.0224,-47.4000,28.6500,32.8500,9.6582,0.5243,-1.3455,-0.0067,-0.0501,-0.0101,-55.9500,0.9000,9.0000,3.6200,3.2200,-8.5600,-0.0022,-0.0044,-0.0011,-26.6875,-19.8750,21.7500,240.3750,21.5000,-158.3750,0
1777067624.040,9.4643,2.8994,-2.2577,0.0711,0.0096,-0.0117,-47.4000,28.6500,32.8500,9.6391,0.5004,-1.2282,0.0163,-0.0458,-0.0056,-55.9500,0.9000,9.0000,3.6200,3.2200,-8.5600,-0.0022,-0.0044,-0.0011,-26.6875,-19.8750,21.7500,240.3750,21.5000,-158.3750,0
1777067624.045,9.2799,2.8443,-2.1931,0.0711,0.0096,-0.0117,-46.5000,28.0500,33.4500,9.6391,0.5004,-1.2282,0.0163,-0.0458,-0.0056,-55.9500,0.9000,9.0000,3.6500,3.2600,-8.5300,-0.0022,-0.0055,-0.0022,-27.0625,-19.0625,21.0000,240.3750,21.5000,-158.3750,0
1777067624.049,9.2799,2.8443,-2.1931,0.0703,0.0107,-0.0029,-46.5000,28.0500,33.4500,9.6750,0.4741,-1.3599,-0.0211,-0.0424,-0.0099,-55.9500,0.9000,9.0000,3.6500,3.2600,-8.5300,-0.0022,-0.0055,-0.0022,-27.0625,-19.0625,21.0000,240.3750,21.5000,-158.3750,0
1777067624.058,9.0980,2.7150,-2.3200,0.0703,0.0107,-0.0029,-48.3000,29.5500,33.7500,9.6654,0.4597,-1.2019,-0.0211,-0.0424,-0.0099,-56.5500,0.3000,6.9000,3.5400,3.2800,-8.5400,-0.0011,-0.0055,-0.0011,-27.0625,-19.0625,21.0000,240.3750,21.5000,-158.3750,0
1777067624.067,9.0070,2.6719,-2.2601,0.0378,0.0003,0.0029,-47.5500,29.5500,32.7000,9.5984,0.5531,-1.3168,-0.0093,-0.0426,-0.0149,-56.5500,0.3000,6.9000,3.6300,3.2400,-8.5600,-0.0044,-0.0033,0.0000,-27.0625,-19.0625,21.0000,240.3750,21.5000,-158.3750,0
1777067624.072,8.8705,2.7629,-2.2218,-0.0101,0.0205,0.0011,-47.5500,29.5500,32.7000,9.5984,0.5531,-1.3168,-0.0402,-0.0488,-0.0131,-56.5500,0.3000,6.9000,3.6300,3.2400,-8.5600,-0.0076,-0.0076,0.0000,-27.0625,-19.0625,21.0000,240.3750,21.5000,-158.4375,0
1777067624.078,8.8705,2.7629,-2.2218,-0.0498,0.0552,0.0011,-47.5500,29.5500,32.7000,9.5744,0.5004,-1.2019,-0.0365,-0.0520,-0.0144,-55.0500,0.7500,6.6000,3.5900,3.2100,-8.5500,-0.0076,-0.0076,0.0000,-27.0625,-19.0625,21.0000,240.3750,21.5000,-158.4375,0
1777067624.088,8.8585,2.9233,-2.2027,-0.0234,0.0847,0.0141,-46.9500,28.6500,32.8500,9.6271,0.6440,-1.2019,-0.0485,-0.0472,-0.0045,-53.8500,1.5000,7.6500,3.6500,3.2100,-8.5100,-0.0098,-0.0065,-0.0011,-27.0625,-19.0625,21.0000,240.3750,21.5000,-158.4375,0
1777067624.093,8.9399,3.0789,-2.1404,-0.0234,0.0847,0.0141,-47.8500,31.0500,33.0000,9.6271,0.6440,-1.2019,-0.0485,-0.0472,-0.0045,-53.8500,1.5000,7.6500,3.6500,3.2100,-8.5100,-0.0098,-0.0065,-0.0011,-26.3750,-19.8750,20.1875,240.3750,21.5000,-158.4375,0
1777067624.098,8.9280,3.0526,-2.1715,-0.0077,0.0981,0.0434,-47.8500,31.0500,33.0000,9.6462,0.5555,-1.1995,-0.0525,-0.0525,-0.0083,-54.7500,0.9000,8.2500,3.6100,3.2600,-8.5500,-0.0142,-0.0076,0.0011,-26.3750,-19.8750,20.1875,240.3750,21.5000,-158.4375,0
1777067624.106,8.9280,3.0526,-2.1715,-0.0077,0.0981,0.0434,-46.2000,28.2000,33.9000,9.6247,0.7805,-1.1492,-0.0525,-0.0525,-0.0083,-55.5000,0.4500,7.2000,3.6400,3.2300,-8.5500,-0.0109,-0.0076,0.0011,-26.3750,-19.8750,20.1875,240.3750,21.5000,-158.3750,0
1777067624.111,8.9902,2.9760,-2.2793,-0.0229,0.0869,0.0671,-46.0500,27.3000,34.2000,9.6247,0.7805,-1.1492,-0.0562,-0.0394,-0.0003,-55.5000,0.4500,7.2000,3.6400,3.2300,-8.5500,-0.0109,-0.0076,0.0011,-26.3750,-19.8750,20.1875,240.3750,21.5000,-158.3750,0
1777067624.118,9.1889,3.0933,-2.2889,-0.0304,0.0719,0.0594,-46.0500,27.3000,34.2000,9.6223,0.7853,-1.2546,-0.0632,-0.0376,-0.0008,-54.1500,1.0500,7.6500,3.5700,3.2400,-8.5700,-0.0120,-0.0076,0.0055,-26.3750,-19.8750,20.1875,240.3750,21.5000,-158.3750,0
1777067624.127,9.1889,3.0933,-2.2889,-0.0136,0.0072,0.0392,-46.0500,27.3000,34.2000,9.5960,0.8140,-1.2067,-0.0426,-0.0322,0.0048,-53.4000,2.2500,7.6500,3.5700,3.2800,-8.5400,-0.0164,-0.0087,0.0033,-26.3750,-19.8750,20.1875,240.3750,21.5000,-158.3750,0
1777067624.131,9.3518,2.9712,-2.2745,-0.0136,0.0072,0.0392,-46.0500,27.3000,34.2000,9.5960,0.8140,-1.2067,-0.0426,-0.0322,0.0048,-53.4000,2.2500,7.6500,3.5700,3.2800,-8.5400,-0.0164,-0.0087,0.0033,-26.3750,-19.8750,20.1875,240.3750,21.5000,-158.3750,0
1777067624.138,9.3374,2.9712,-2.1428,0.0357,-0.0211,0.0165,-46.0500,27.3000,34.2000,9.6031,0.7638,-1.2498,-0.0333,-0.0376,-0.0024,-53.4000,2.2500,7.6500,3.6100,3.3000,-8.5000,-0.0142,-0.0087,0.0000,-26.3750,-19.8750,20.1875,240.3750,21.5000,-158.3750,0
1777067624.143,9.3374,2.9712,-2.1428,0.0357,-0.0211,0.0165,-48.0000,27.4500,33.3000,9.6031,0.7638,-1.2498,-0.0333,-0.0376,-0.0024,-53.4000,2.2500,7.6500,3.6300,3.3000,-8.4700,-0.0109,-0.0076,0.0000,-26.3750,-19.5000,22.1875,240.3750,21.5000,-158.3750,0
1777067624.149,9.2656,2.9928,-2.1476,-0.0187,-0.0581,-0.0005,-48.0000,27.4500,33.3000,9.6726,0.7733,-1.1492,-0.0061,-0.0325,-0.0013,-54.1500,1.5000,7.3500,3.6300,3.3000,-8.4700,-0.0109,-0.0076,0.0000,-26.3750,-19.5000,22.1875,240.3750,21.5000,-158.3750,0
1777067624.158,9.0788,3.0382,-2.2290,-0.0440,-0.0674,-0.0061,-46.5000,28.0500,31.9500,9.7037,0.5195,-1.2905,-0.0237,-0.0512,-0.0027,-53.8500,0.3000,7.6500,3.5300,3.3300,-8.5200,-0.0109,-0.0044,-0.0011,-26.3750,-19.5000,22.1875,240.3750,21.5000,-158.3750,0
1777067624.166,8.9328,3.2082,-2.3128,-0.0906,0.0008,-0.0141,-47.4000,27.9000,33.6000,9.6630,0.5411,-1.2713,-0.0264,-0.0522,-0.0040,-54.6000,1.0500,7.6500,3.5900,3.2800,-8.5100,-0.0087,-0.0044,0.0000,-26.3750,-19.5000,22.1875,240.3750,21.5000,-158.3750,0
1777067624.171,8.9328,3.2082,-2.3128,-0.0906,0.0008,-0.0141,-47.5500,27.3000,33.0000,9.6630,0.5411,-1.2713,-0.0264,-0.0522,-0.0040,-54.6000,1.0500,7.6500,3.5900,3.2800,-8.5100,-0.0087,-0.0044,0.0000,-26.3750,-19.5000,22.1875,240.3750,21.5000,-158.3750,0
1777067624.178,8.9376,3.2298,-2.2290,-0.1250,0.0504,-0.0253,-47.5500,27.3000,33.0000,9.7133,0.5531,-1.3527,-0.0541,-0.0504,0.0003,-55.3500,1.0500,6.9000,3.6100,3.2700,-8.5900,-0.0055,-0.0098,0.0000,-26.3750,-19.5000,22.1875,240.3750,21.5000,-158.3750,0
1777067624.187,8.9112,3.3686,-2.1069,-0.0701,0.0845,-0.0205,-47.5500,27.3000,33.0000,9.5768,0.5387,-1.3001,-0.0546,-0.0426,-0.0029,-55.2000,1.6500,7.5000,3.6100,3.2600,-8.5200,-0.0065,-0.0087,-0.0011,-26.3750,-19.5000,22.1875,240.3750,21.5000,-158.3750,0
1777067624.191,8.9112,3.3686,-2.1069,-0.0701,0.0845,-0.0205,-46.0500,28.0500,34.2000,9.5768,0.5387,-1.3001,-0.0546,-0.0426,-0.0029,-55.2000,1.6500,7.5000,3.6100,3.2600,-8.5200,-0.0065,-0.0087,-0.0011,-26.3750,-19.5000,22.1875,240.3750,21.5000,-158.3750,0
1777067624.196,9.0836,3.1891,-2.0973,-0.0099,0.0818,-0.0197,-46.0500,28.0500,34.2000,9.5385,0.6512,-1.3240,-0.0855,-0.0354,0.0029,-55.3500,1.5000,6.6000,3.6300,3.2600,-8.5700,-0.0076,-0.0055,-0.0011,-26.0000,-19.8750,20.8750,240.3750,21.5000,-158.3750,0
1777067624.201,9.0836,3.1891,-2.0973,-0.0099,0.0818,-0.0197,-48.4500,26.7000,33.6000,9.5385,0.6512,-1.3240,-0.0855,-0.0354,0.0029,-55.3500,1.5000,6.6000,3.6300,3.2600,-8.5700,-0.0076,-0.0055,-0.0011,-26.0000,-19.8750,20.8750,240.3750,21.5000,-158.3750,0
1777067624.209,9.2680,2.8826,-2.1524,0.0179,0.0176,-0.0144,-48.4500,26.7000,33.6000,9.6079,0.7446,-1.2474,-0.0677,-0.0269,0.0029,-55.3500,1.5000,6.6000,3.6100,3.2800,-8.4800,-0.0087,-0.0022,-0.0011,-26.0000,-19.8750,20.8750,240.3750,21.5000,-158.3750,0
1777067624.218,9.2081,2.7485,-2.2769,0.0322,-0.0211,-0.0048,-48.4500,26.7000,33.6000,9.6319,0.8045,-1.4006,-0.0653,-0.0224,0.0061,-54.7500,1.3500,6.7500,3.5500,3.3000,-8.5500,-0.0120,-0.0076,0.0011,-26.0000,-19.8750,20.8750,240.3750,21.5000,-158.3750,0
1777067624.224,9.1004,2.6695,-2.3511,0.0490,-0.0573,-0.0152,-47.1000,27.3000,34.8000,9.6462,0.7326,-1.1181,-0.0258,-0.0296,0.0005,-54.7500,1.3500,6.7500,3.5600,3.3000,-8.4800,-0.0098,-0.0044,-0.0011,-26.0000,-19.8750,20.8750,240.3750,21.5000,-158.3750,0
1777067624.229,9.1004,2.6695,-2.3511,0.0490,-0.0573,-0.0152,-47.1000,27.3000,34.8000,9.6462,0.7326,-1.1181,-0.0258,-0.0296,0.0005,-54.7500,1.6500,7.2000,3.5600,3.3000,-8.4800,-0.0098,-0.0044,-0.0011,-26.0000,-19.8750,20.8750,240.3750,21.5000,-158.3750,0
1777067624.238,9.0621,2.6360,-2.2266,0.0131,-0.0805,0.0032,-47.1000,27.3000,34.8000,9.7133,0.6656,-1.2402,-0.0192,-0.0493,-0.0043,-55.8000,1.9500,7.6500,3.6200,3.3000,-8.5400,-0.0098,-0.0065,0.0000,-26.0000,-19.8750,20.8750,240.3750,21.5000,-158.3750,0
1777067624.243,9.0621,2.6360,-2.2266,-0.0810,-0.0349,0.0091,-47.5500,27.7500,34.5000,9.5984,0.5411,-1.1540,-0.0051,-0.0480,0.0013,-55.8000,1.9500,7.6500,3.6200,3.3000,-8.5400,-0.0065,-0.0055,-0.0011,-27.0625,-20.2500,21.3750,240.3750,21.5000,-158.3750,0
1777067624.249,8.8442,2.9305,-2.1548,-0.0810,-0.0349,0.0091,-48.4500,26.7000,34.9500,9.5984,0.5411,-1.1540,-0.0051,-0.0480,0.0013,-55.9500,2.4000,8.7000,3.6300,3.2800,-8.5100,-0.0065,-0.0055,-0.0011,-27.0625,-20.2500,21.3750,240.3750,21.5000,-158.3750,0
1777067624.258,8.7029,3.1771,-2.2529,-0.1220,0.0536,0.0250,-48.4500,26.7000,34.9500,9.6678,0.4717,-1.3360,-0.0376,-0.0517,-0.0011,-54.0000,1.3500,7.5000,3.6100,3.3100,-8.5400,-0.0055,-0.0098,-0.0011,-27.0625,-20.2500,21.3750,240.3750,21.5000,-158.3750,0
1777067624.267,8.8107,3.3255,-2.3607,-0.1721,0.0869,0.0232,-46.9500,27.4500,34.6500,9.6798,0.4812,-1.4413,-0.0416,-0.0461,0.0075,-55.0500,1.0500,6.9000,3.5900,3.2600,-8.6100,-0.0044,-0.0033,0.0000,-27.0625,-20.2500,21.3750,240.3750,21.5000,-158.3750,0
1777067624.271,8.8107,3.3255,-2.3607,-0.1721,0.0869,0.0232,-46.6500,27.9000,35.4000,9.6127,0.5435,-1.4676,-0.0674,-0.0386,0.0056,-55.0500,1.0500,6.9000,3.5900,3.2600,-8.6100,-0.0044,-0.0033,0.0000,-27.0625,-20.2500,21.3750,240.3750,21.5000,-158.3750,0
1777067624.278,8.8897,3.2729,-2.3918,-0.1681,0.1103,0.0274,-46.6500,27.9000,35.4000,9.6127,0.5435,-1.4676,-0.0674,-0.0386,0.0056,-55.0500,1.0500,6.9000,3.6400,3.2300,-8.5700,-0.0065,-0.0055,-0.0022,-27.0625,-20.2500,21.3750,240.3750,21.5000,-158.3750,0
1777067624.288,8.8992,3.3351,-2.0087,-0.1172,0.0847,0.0504,-46.6500,27.9000,35.4000,9.5553,0.6512,-1.5323,-0.0757,-0.0282,0.0189,-54.4500,1.6500,7.9500,3.6200,3.2100,-8.5300,-0.0098,-0.0011,-0.0022,-27.0625,-20.2500,21.3750,240.3750,21.5000,-158.3750,0
1777067624.293,9.0405,3.0813,-2.0470,-0.0501,0.0815,0.0685,-46.6500,27.9000,35.4000,9.5146,0.7925,-1.3408,-0.0586,-0.0131,0.0104,-54.4500,1.6500,7.9500,3.6200,3.2100,-8.5300,-0.0142,-0.0044,-0.0011,-26.6875,-20.2500,21.7500,240.3750,21.5000,-158.3750,0
1777067624.299,9.0405,3.0813,-2.0470,-0.0501,0.0815,0.0685,-47.7000,26.4000,36.4500,9.6127,0.8739,-1.3455,-0.0586,-0.0131,0.0104,-55.2000,0.4500,6.4500,3.5700,3.3000,-8.5200,-0.0142,-0.0044,-0.0011,-26.6875,-20.2500,21.7500,240.3750,21.5000,-158.3750,0
1777067624.308,8.9591,3.4453,-1.7214,0.0245,0.0885,0.0648,-47.5500,27.0000,34.2000,9.6151,0.8452,-1.3862,-0.0517,-0.0290,0.0067,-55.0500,1.5000,6.1500,3.6000,3.2900,-8.5500,-0.0098,-0.0065,-0.0033,-26.6875,-20.2500,21.7500,240.3750,21.5000,-158.3750,0
1777067624.315,8.9352,3.4836,-1.9082,0.1159,0.1069,0.0504,-47.5500,27.0000,34.2000,9.6151,0.8452,-1.3862,-0.0341,-0.0413,0.0029,-55.0500,1.5000,6.1500,3.6500,3.3200,-8.4600,-0.0065,-0.0011,0.0011,-26.6875,-20.2500,21.7500,240.3750,21.5000,-158.3750,0
1777067624.320,8.9352,3.4836,-1.9082,0.1159,0.1069,0.0504,-47.5500,27.7500,35.2500,9.5457,0.8667,-1.3886,-0.0064,-0.0400,0.0027,-55.8000,0.3000,6.9000,3.6500,3.3200,-8.4600,-0.0065,-0.0011,0.0011,-26.6875,-20.2500,21.7500,240.3750,21.5000,-158.3750,0
1777067624.328,8.9998,3.3734,-2.1213,0.1628,0.1234,0.0261,-46.9500,27.9000,33.9000,9.6151,0.8260,-1.4413,-0.0003,-0.0386,0.0085,-55.9500,1.6500,8.7000,3.5900,3.3600,-8.4800,-0.0076,-0.0011,-0.0011,-26.6875,-20.2500,21.7500,240.3750,21.5000,-158.3750,0
1777067624.336,9.0405,3.2633,-2.3391,0.1569,0.1116,0.0245,-46.9500,27.9000,33.9000,9.6151,0.8260,-1.4413,-0.0003,-0.0386,0.0085,-55.9500,1.6500,8.7000,3.6400,3.3100,-8.5100,0.0000,-0.0044,-0.0011,-26.6875,-20.2500,21.7500,240.3750,21.5000,-158.3750,0
1777067624.341,9.0980,3.2250,-2.4828,0.1087,0.0943,0.0384,-46.9500,27.9000,33.9000,9.5313,0.7422,-1.4365,0.0160,-0.0376,0.0139,-56.1000,0.7500,6.6000,3.6400,3.3100,-8.5100,0.0000,-0.0044,-0.0011,-26.6875,-20.2500,21.7500,240.3750,21.5000,-158.3750,0
1777067624.346,9.0980,3.2250,-2.4828,0.1087,0.0943,0.0384,-46.9500,27.9000,33.9000,9.5313,0.7422,-1.4365,0.0160,-0.0376,0.0139,-56.1000,0.7500,6.6000,3.6000,3.3200,-8.4800,0.0055,-0.0055,-0.0011,-26.3750,-20.5625,20.8750,240.3750,21.5000,-158.3750,0
1777067624.350,9.1818,3.0837,-2.5091,0.1055,0.0775,0.0370,-47.4000,26.7000,35.4000,9.5672,0.6632,-1.5060,0.0208,-0.0176,0.0155,-56.1000,0.7500,6.6000,3.6000,3.3200,-8.4800,0.0055,-0.0055,-0.0011,-26.3750,-20.5625,20.8750,240.3750,21.5000,-158.3750,0
1777067624.358,9.1818,3.0837,-2.5091,0.1055,0.0775,0.0370,-47.8500,28.5000,33.7500,9.5912,0.6584,-1.5275,0.0341,-0.0101,0.0184,-55.9500,0.9000,7.5000,3.5800,3.3100,-8.4900,0.0087,-0.0065,0.0011,-26.3750,-20.5625,20.8750,240.3750,21.5000,-158.3750,0
1777067624.367,9.0884,3.0670,-2.3008,0.1364,0.0562,0.0338,-48.0000,29.4000,34.3500,9.5744,0.6512,-1.4102,0.0394,-0.0088,0.0211,-55.9500,0.9000,7.5000,3.5800,3.3000,-8.5400,0.0164,-0.0065,-0.0022,-26.3750,-20.5625,20.8750,240.3750,21.5000,-158.3750,0
1777067624.371,9.0309,3.0981,-2.2146,0.1607,0.0501,0.0362,-48.0000,29.4000,34.3500,9.5744,0.6512,-1.4102,0.0394,-0.0088,0.0211,-55.0500,2.2500,7.3500,3.5800,3.3000,-8.5400,0.0164,-0.0065,-0.0022,-26.3750,-20.5625,20.8750,240.3750,21.5000,-158.4375,0
1777067624.379,8.9783,3.2034,-2.0351,0.1897,0.0474,0.0370,-47.1000,27.0000,34.5000,9.6367,0.6345,-1.4581,0.0384,-0.0085,0.0109,-55.2000,0.4500,7.2000,3.6100,3.2800,-8.5300,0.0218,-0.0022,0.0000,-26.3750,-20.5625,20.8750,240.3750,21.5000,-158.4375,0
1777067624.388,9.0692,3.0694,-2.1213,0.1998,0.0557,0.0282,-47.1000,27.0000,34.5000,9.6103,0.6297,-1.5131,0.0211,-0.0099,0.0112,-55.5000,0.1500,7.2000,3.6000,3.2600,-8.5900,0.0273,-0.0055,0.0011,-26.3750,-20.5625,20.8750,240.3750,21.5000,-158.4375,0
1777067624.393,9.0692,3.0694,-2.1213,0.1998,0.0557,0.0282,-47.1000,27.0000,34.5000,9.6103,0.6297,-1.5131,0.0211,-0.0099,0.0112,-55.5000,0.1500,7.2000,3.6000,3.2600,-8.5900,0.0273,-0.0055,0.0011,-26.6875,-20.2500,22.5625,240.3750,21.5000,-158.4375,0
1777067624.399,9.1889,2.9377,-2.3727,0.1553,0.0501,0.0187,-48.4500,27.4500,35.4000,9.6654,0.5435,-1.4437,0.0040,-0.0029,0.0133,-55.2000,0.9000,6.4500,3.6100,3.2800,-8.5400,0.0207,-0.0044,0.0022,-26.6875,-20.2500,22.5625,240.3750,21.5000,-158.4375,0
1777067624.408,9.1842,2.8826,-2.4062,0.0935,0.0485,0.0016,-47.1000,27.7500,34.8000,9.6103,0.5722,-1.4198,-0.0061,-0.0075,0.0171,-55.0500,0.7500,8.4000,3.6000,3.2700,-8.5400,0.0185,0.0000,0.0000,-26.6875,-20.2500,22.5625,240.3750,21.5000,-158.4375,0
1777067624.416,9.1842,2.8826,-2.4062,0.0935,0.0485,0.0016,-45.4500,27.4500,33.6000,9.5816,0.6680,-1.4653,-0.0115,-0.0035,0.0256,-55.0500,0.7500,8.4000,3.6200,3.2400,-8.5500,0.0185,-0.0033,-0.0011,-26.6875,-20.2500,22.5625,240.3750,21.5000,-158.5000,0
1777067624.421,9.1482,2.7198,-2.4014,0.0218,0.0402,-0.0053,-45.4500,27.4500,33.6000,9.5816,0.6680,-1.4653,-0.0115,-0.0035,0.0256,-55.0500,0.7500,8.4000,3.6200,3.2400,-8.5500,0.0185,-0.0033,-0.0011,-26.6875,-20.2500,22.5625,240.3750,21.5000,-158.5000,0
1777067624.429,9.1626,2.6528,-2.3343,-0.0008,0.0064,0.0040,-47.4000,28.2000,33.9000,9.5457,0.6321,-1.4341,-0.0101,0.0093,0.0253,-55.2000,3.3000,7.2000,3.6100,3.2400,-8.5700,0.0185,-0.0033,0.0000,-26.6875,-20.2500,22.5625,240.3750,21.5000,-158.5000,0
1777067624.437,9.0860,2.6767,-2.1620,0.0253,0.0056,0.0139,-47.7000,27.9000,34.9500,9.5577,0.7039,-1.3288,0.0013,0.0128,0.0290,-55.2000,3.3000,7.2000,3.5600,3.2400,-8.5400,0.0131,-0.0065,-0.0011,-26.6875,-20.2500,22.5625,240.3750,21.5000,-158.5000,0
1777067624.442,9.0860,2.6767,-2.1620,0.0253,0.0056,0.0139,-47.7000,27.9000,34.9500,9.5577,0.7039,-1.3288,0.0013,0.0128,0.0290,-55.2000,3.3000,7.2000,3.5600,3.2400,-8.5400,0.0131,-0.0065,-0.0011,-26.6875,-20.2500,22.5625,240.3750,21.5000,-158.5000,0
1777067624.448,9.0381,2.8395,-1.9417,0.0799,0.0317,0.0096,-47.7000,27.9000,34.9500,9.5744,0.7518,-1.2785,0.0043,0.0157,0.0232,-54.7500,2.4000,7.9500,3.5900,3.2500,-8.5200,0.0131,-0.0033,0.0011,-26.6875,-19.8750,21.3750,240.3750,21.5000,-158.5000,0
1777067624.453,9.0381,2.8395,-1.9417,0.0799,0.0317,0.0096,-47.7000,27.9000,34.9500,9.6750,0.7661,-1.2737,0.0021,0.0059,0.0211,-54.7500,2.4000,7.9500,3.5900,3.2500,-8.5200,0.0175,-0.0044,0.0033,-26.6875,-19.8750,21.3750,240.3750,21.5000,-158.5000,0
1777067624.459,8.9399,2.9544,-1.9273,0.1066,0.0541,-0.0003,-46.8000,27.3000,34.8000,9.6750,0.7661,-1.2737,0.0021,0.0059,0.0211,-54.7500,0.4500,6.4500,3.5700,3.2800,-8.5100,0.0175,-0.0044,0.0033,-26.6875,-19.8750,21.3750,240.3750,21.5000,-158.5000,0
1777067624.468,9.0309,3.0550,-2.0207,0.1042,0.0762,-0.0067,-47.4000,26.7000,34.3500,9.6271,0.7254,-1.2546,0.0045,-0.0035,0.0179,-55.3500,0.3000,6.1500,3.6300,3.2700,-8.5400,0.0207,-0.0044,0.0055,-26.6875,-19.8750,21.3750,240.3750,21.5000,-158.5000,0
1777067624.473,9.0309,3.0550,-2.0207,0.1042,0.0762,-0.0067,-47.4000,26.7000,34.3500,9.6989,0.7853,-1.2594,-0.0008,-0.0048,0.0242,-55.3500,0.3000,6.1500,3.6300,3.2700,-8.5400,0.0196,-0.0022,0.0055,-26.6875,-19.8750,21.3750,240.3750,21.5000,-158.5625,0
1777067624.479,9.2129,3.0670,-2.0758,0.0626,0.0650,-0.0200,-47.8500,26.2500,34.5000,9.6989,0.7853,-1.2594,-0.0008,-0.0048,0.0242,-54.1500,1.5000,7.6500,3.6000,3.2700,-8.5200,0.0196,-0.0022,0.0055,-26.6875,-19.8750,21.3750,240.3750,21.5000,-158.5625,0
1777067624.488,9.3422,3.0311,-2.2194,-0.0104,0.0203,-0.0402,-46.6500,28.2000,33.3000,9.6271,0.7302,-1.2689,-0.0019,-0.0008,0.0266,-54.1500,1.5000,7.6500,3.6100,3.2800,-8.5200,0.0218,-0.0055,0.0055,-26.6875,-19.8750,21.3750,240.3750,21.5000,-158.5625,0
1777067624.493,9.3422,3.0311,-2.2194,-0.0104,0.0203,-0.0402,-46.6500,28.2000,33.3000,9.6175,0.6823,-1.3144,0.0032,0.0053,0.0354,-54.1500,1.5000,7.6500,3.6100,3.2800,-8.5200,0.0164,0.0000,0.0000,-27.0625,-19.5000,22.5625,240.3750,21.5000,-158.5625,0
1777067624.499,9.3541,2.7701,-2.4038,-0.0679,-0.0232,-0.0520,-46.6500,28.2000,33.3000,9.6175,0.6823,-1.3144,0.0032,0.0053,0.0354,-54.4500,0.1500,7.2000,3.6100,3.2900,-8.5000,0.0164,0.0000,0.0000,-27.0625,-19.5000,22.5625,240.3750,21.5000,-158.5625,0
1777067624.508,9.1602,2.6169,-2.2577,-0.0839,-0.0751,-0.0365,-47.1000,26.5500,33.4500,9.5960,0.5674,-1.2617,0.0184,0.0024,0.0328,-54.4500,0.1500,7.2000,3.5800,3.2900,-8.5300,0.0207,-0.0011,-0.0033,-27.0625,-19.5000,22.5625,240.3750,21.5000,-158.5625,0
1777067624.517,9.1051,2.5762,-2.2242,-0.0525,-0.0408,-0.0168,-46.0500,28.8000,32.4000,9.6103,0.5004,-1.1947,0.0157,0.0008,0.0322,-54.4500,0.1500,7.2000,3.5800,3.2800,-8.5400,0.0262,-0.0022,-0.0011,-27.0625,-19.5000,22.5625,240.3750,21.5000,-158.5625,0
1777067624.521,9.1051,2.5762,-2.2242,-0.0525,-0.0408,-0.0168,-46.0500,28.8000,32.4000,9.6079,0.4597,-1.1971,0.0075,-0.0024,0.0203,-55.2000,2.1000,7.9500,3.5800,3.2800,-8.5400,0.0262,-0.0022,-0.0011,-27.0625,-19.5000,22.5625,240.3750,21.5000,-158.6250,0
1777067624.529,9.0525,2.7701,-2.0806,-0.0493,-0.0221,-0.0245,-47.1000,28.0500,34.2000,9.6438,0.4238,-1.2139,0.0075,-0.0024,0.0203,-56.1000,1.0500,6.9000,3.5900,3.2500,-8.5700,0.0262,0.0000,0.0022,-27.0625,-19.5000,22.5625,240.3750,21.5000,-158.6250,0
1777067624.538,9.0453,2.8611,-2.0997,-0.0195,-0.0144,-0.0163,-46.9500,26.4000,34.3500,9.6582,0.5028,-1.2067,-0.0139,-0.0093,0.0173,-55.8000,2.2500,6.9000,3.6100,3.2300,-8.5500,0.0240,-0.0044,0.0011,-27.0625,-19.5000,22.5625,240.3750,21.5000,-158.6250,0
1777067624.543,9.0764,2.9736,-2.1428,0.0048,0.0171,-0.0245,-46.9500,26.4000,34.3500,9.6582,0.5028,-1.2067,-0.0298,-0.0157,0.0168,-55.8000,2.2500,6.9000,3.6100,3.2300,-8.5500,0.0218,-0.0044,0.0011,-26.3750,-19.5000,21.3750,240.3750,21.5000,-158.6250,0
1777067624.549,9.0764,2.9736,-2.1428,0.0048,0.0171,-0.0245,-46.9500,26.4000,34.3500,9.6510,0.5770,-1.2929,-0.0496,-0.0197,0.0258,-55.0500,1.9500,6.1500,3.6100,3.2000,-8.5700,0.0218,-0.0044,0.0011,-26.3750,-19.5000,21.3750,240.3125,21.5000,-158.6250,0
1777067624.558,9.2225,3.0071,-2.2625,0.0021,-0.0043,-0.0445,-47.8500,27.7500,35.5500,9.6582,0.5890,-1.3288,-0.0453,-0.0131,0.0264,-55.0500,1.9500,6.1500,3.6100,3.1800,-8.5500,0.0175,-0.0011,-0.0011,-26.3750,-19.5000,21.3750,240.3125,21.5000,-158.6250,0
1777067624.568,9.1339,3.1484,-2.2242,0.0629,-0.0586,-0.0440,-46.6500,28.2000,34.3500,9.6558,0.6704,-1.2378,-0.0157,-0.0093,0.0304,-55.0500,1.9500,6.1500,3.6000,3.2200,-8.5800,0.0109,-0.0033,0.0000,-26.3750,-19.5000,21.3750,240.3125,21.5000,-158.6250,0
1777067624.577,9.1051,2.8898,-2.2817,0.0144,-0.0338,-0.0306,-48.9000,25.8000,33.7500,9.6343,0.6847,-1.1923,-0.0157,-0.0093,0.0304,-55.2000,1.3500,7.9500,3.5900,3.2500,-8.5600,0.0087,-0.0011,-0.0022,-26.3750,-19.5000,21.3750,240.3125,21.5000,-158.6250,0
1777067624.581,9.1051,2.8898,-2.2817,0.0320,-0.0141,-0.0008,-48.9000,25.8000,33.7500,9.6343,0.6847,-1.1923,0.0101,-0.0091,0.0282,-55.2000,1.3500,7.9500,3.5900,3.2500,-8.5600,0.0087,-0.0011,-0.0022,-26.3750,-19.5000,21.3750,240.3125,21.5000,-158.6250,0
1777067624.589,8.9878,2.8467,-2.1596,0.0320,-0.0141,-0.0008,-48.9000,27.3000,33.0000,9.6079,0.6536,-1.2163,0.0264,-0.0205,0.0189,-55.2000,1.3500,6.7500,3.6000,3.2200,-8.5400,0.0087,0.0000,-0.0022,-26.3750,-19.5000,21.3750,240.3125,21.5000,-158.6250,0
1777067624.594,8.8466,2.8611,-2.0159,0.0320,0.0056,0.0147,-46.2000,27.1500,36.1500,9.6079,0.6536,-1.2163,0.0264,-0.0205,0.0189,-55.2000,1.3500,6.7500,3.6000,3.2200,-8.5400,0.0065,0.0033,-0.0022,-26.3750,-19.5000,22.5625,240.3125,21.5000,-158.6250,0
1777067624.599,8.8466,2.8611,-2.0159,0.0320,0.0056,0.0147,-46.2000,27.1500,36.1500,9.5720,0.6512,-1.1516,0.0309,-0.0226,0.0149,-56.7000,0.4500,7.9500,3.6100,3.2200,-8.5200,0.0065,0.0033,-0.0022,-26.3750,-19.5000,22.5625,240.3125,21.5000,-158.6250,0
1777067624.609,8.9328,2.9880,-1.9297,0.0842,0.0218,0.0061,-46.2000,27.1500,36.1500,9.6031,0.6440,-1.2282,0.0290,-0.0245,0.0216,-56.7000,0.4500,7.9500,3.6100,3.2500,-8.5700,0.0055,0.0033,-0.0022,-26.3750,-19.5000,22.5625,240.3125,21.5000,-158.6250,0
1777067624.619,9.0860,3.0023,-1.9130,0.0682,0.0448,-0.0059,-46.8000,27.3000,33.4500,9.6534,0.6608,-1.1636,0.0242,-0.0266,0.0293,-55.3500,0.3000,6.9000,3.6000,3.2700,-8.5600,0.0044,0.0044,-0.0033,-26.3750,-19.5000,22.5625,240.3125,21.5000,-158.6250,0
1777067624.628,9.2057,2.9736,-2.0662,0.0634,0.0253,-0.0136,-47.7000,27.4500,34.3500,9.6295,0.6393,-1.1995,0.0099,-0.0298,0.0333,-55.3500,0.7500,6.6000,3.6100,3.2500,-8.5400,0.0022,0.0044,-0.0033,-26.3750,-19.5000,22.5625,240.3125,21.5000,-158.6250,0
1777067624.638,9.3111,2.9137,-2.0782,0.0642,-0.0093,-0.0266,-46.8000,27.3000,35.8500,9.6630,0.5650,-1.2426,0.0096,-0.0304,0.0306,-55.3500,0.7500,6.6000,3.5900,3.2500,-8.5300,0.0033,0.0055,-0.0055,-26.3750,-19.5000,22.5625,240.3125,21.5000,-158.6250,0
1777067624.643,9.3134,2.8180,-2.0949,0.0586,-0.0549,-0.0402,-48.9000,27.3000,35.2500,9.6630,0.5650,-1.2426,0.0096,-0.0304,0.0306,-54.0000,2.1000,6.7500,3.5900,3.2500,-8.5300,0.0076,0.0011,-0.0044,-26.6875,-19.8750,21.3750,240.3125,21.5000,-158.6250,0
1777067624.649,9.3134,2.8180,-2.0949,0.0088,-0.0613,-0.0226,-48.9000,27.3000,35.2500,9.6391,0.5124,-1.1444,0.0168,-0.0453,0.0248,-54.0000,2.1000,6.7500,3.6000,3.2900,-8.5100,0.0076,0.0011,-0.0044,-26.6875,-19.8750,21.3750,240.3125,21.5000,-158.6250,0
1777067624.659,8.9256,2.8036,-2.1284,-0.0229,-0.0248,-0.0013,-48.9000,27.3000,35.2500,9.7300,0.5267,-1.2067,0.0181,-0.0538,0.0229,-54.0000,2.1000,6.7500,3.6000,3.2500,-8.5300,0.0098,0.0055,-0.0055,-26.6875,-19.8750,21.3750,240.3125,21.5000,-158.6250,0
1777067624.668,8.9495,2.7318,-2.2577,-0.0805,-0.0160,-0.0133,-49.3500,27.0000,36.3000,9.6438,0.5507,-1.1971,0.0139,-0.0522,0.0181,-54.4500,1.6500,6.7500,3.6100,3.2300,-8.5600,0.0087,0.0022,-0.0033,-26.6875,-19.8750,21.3750,240.3125,21.5000,-158.6250,0
1777067624.676,9.1099,2.6887,-2.1859,-0.0805,-0.0160,-0.0133,-48.3000,28.5000,36.3000,9.6510,0.5794,-1.2043,-0.0037,-0.0520,0.0234,-55.2000,0.4500,6.4500,3.6100,3.2500,-8.5300,0.0055,0.0055,-0.0065,-26.6875,-19.8750,21.3750,240.3125,21.5000,-158.6250,0
1777067624.681,9.1315,2.8922,-2.0662,-0.1002,-0.0309,-0.0211,-47.5500,27.3000,34.5000,9.6510,0.5794,-1.2043,-0.0037,-0.0520,0.0234,-55.9500,0.1500,7.5000,3.6100,3.2500,-8.5300,0.0055,0.0055,-0.0065,-26.6875,-19.8750,21.3750,240.3125,21.5000,-158.6250,0
1777067624.689,9.1051,2.9568,-2.2122,-0.1330,-0.0514,-0.0266,-47.5500,27.3000,34.5000,9.6007,0.6009,-1.3240,-0.0155,-0.0568,0.0208,-55.9500,0.1500,7.5000,3.6300,3.2600,-8.5500,0.0044,0.0055,-0.0076,-26.6875,-19.8750,21.3750,240.3125,21.5000,-158.6250,0
1777067624.694,9.1051,2.9568,-2.2122,-0.1330,-0.0514,-0.0266,-48.4500,28.6500,36.1500,9.6414,0.5914,-1.3862,-0.0144,-0.0671,0.0197,-55.5000,2.1000,6.7500,3.6300,3.2600,-8.5500,0.0065,0.0076,-0.0087,-26.3750,-19.5000,22.5625,240.3125,21.5000,-158.6250,0
1777067624.700,8.9854,3.1508,-2.2075,-0.1298,-0.0376,-0.0077,-48.4500,28.6500,36.1500,9.6414,0.5914,-1.3862,-0.0144,-0.0671,0.0197,-55.5000,2.1000,6.7500,3.6100,3.2700,-8.5500,0.0065,0.0076,-0.0087,-26.3750,-19.5000,22.5625,240.3125,21.5000,-158.6250,0
1777067624.709,8.9471,3.2944,-2.2386,-0.0746,0.0027,0.0035,-48.4500,28.6500,36.1500,9.7085,0.5746,-1.3527,-0.0133,-0.0821,0.0187,-55.5000,2.1000,6.7500,3.6300,3.2000,-8.5700,0.0044,0.0076,-0.0087,-26.3750,-19.5000,22.5625,240.3125,21.5000,-158.6250,0
1777067624.718,8.9543,3.2082,-2.2984,-0.0453,0.0184,-0.0003,-48.0000,27.1500,34.9500,9.6223,0.5339,-1.3934,-0.0091,-0.0786,0.0240,-55.3500,0.3000,6.9000,3.6000,3.1900,-8.5800,-0.0011,0.0055,-0.0076,-26.3750,-19.5000,22.5625,240.3125,21.5000,-158.6250,0
1777067624.727,8.9543,3.2082,-2.2984,-0.0266,0.0195,-0.0029,-48.7500,28.2000,35.7000,9.6558,0.5794,-1.3743,-0.0128,-0.0727,0.0234,-55.3500,0.3000,6.9000,3.5900,3.1800,-8.5900,-0.0087,0.0109,-0.0098,-26.3750,-19.5000,22.5625,240.3125,21.5000,-158.6250,0
1777067624.731,8.9711,3.1795,-2.2290,-0.0266,0.0195,-0.0029,-47.4000,27.4500,35.4000,9.6031,0.5459,-1.4246,-0.0003,-0.0682,0.0216,-55.2000,0.4500,5.7000,3.5900,3.1800,-8.5900,-0.0087,0.0109,-0.0098,-26.3750,-19.5000,22.5625,240.3125,21.5000,-158.6250,0
1777067624.739,9.0118,3.1268,-2.1859,0.0133,0.0165,0.0019,-47.4000,27.4500,35.4000,9.6031,0.5459,-1.4246,-0.0003,-0.0682,0.0216,-55.2000,0.4500,5.7000,3.6100,3.2100,-8.5600,-0.0185,0.0120,-0.0109,-26.3750,-19.5000,22.5625,240.3125,21.5000,-158.6250,0
1777067624.744,9.0118,3.1268,-2.1859,0.0133,0.0165,0.0019,-46.9500,27.1500,36.4500,9.6678,0.6369,-1.5012,0.0059,-0.0717,0.0184,-55.2000,0.9000,7.2000,3.6100,3.2100,-8.5600,-0.0196,0.0153,-0.0098,-27.5000,-20.2500,22.5625,240.3125,21.5000,-158.6250,0
1777067624.750,8.9998,3.2250,-2.1332,0.0474,0.0373,0.0045,-48.3000,27.3000,36.4500,9.6055,0.6919,-1.4581,0.0059,-0.0717,0.0184,-55.2000,0.9000,7.2000,3.5700,3.2700,-8.5200,-0.0196,0.0153,-0.0098,-27.5000,-20.2500,22.5625,240.3125,21.5625,-158.6250,0
1777067624.759,8.8705,3.3327,-2.1452,0.0450,0.0203,-0.0037,-48.3000,27.3000,37.0500,9.6055,0.6919,-1.4581,0.0019,-0.0826,0.0157,-55.3500,1.5000,5.8500,3.6100,3.2200,-8.5500,-0.0240,0.0164,-0.0109,-27.5000,-20.2500,22.5625,240.3125,21.5625,-158.6250,0
1777067624.768,8.6383,3.1651,-2.3559,0.0418,0.0112,0.0229,-48.3000,27.3000,37.0500,9.6869,0.6297,-1.6113,0.0027,-0.1002,0.0125,-54.6000,1.5000,5.8500,3.6700,3.2600,-8.5500,-0.0305,0.0207,-0.0131,-27.5000,-20.2500,22.5625,240.3125,21.5625,-158.5625,0
1777067624.777,8.8346,3.1723,-2.3080,0.0640,0.0600,0.0330,-47.8500,27.3000,36.6000,9.6175,0.6129,-1.6089,0.0285,-0.0933,0.0117,-55.8000,0.7500,8.1000,3.6400,3.2900,-8.5400,-0.0338,0.0142,-0.0175,-27.5000,-20.2500,22.5625,240.3125,21.5625,-158.5625,0
1777067624.781,8.8346,3.1723,-2.3080,0.0640,0.0600,0.0330,-47.4000,27.4500,34.9500,9.5553,0.5962,-1.3647,0.0557,-0.0725,0.0163,-55.8000,1.0500,5.8500,3.6400,3.2900,-8.5400,-0.0338,0.0142,-0.0175,-27.5000,-20.2500,22.5625,240.3125,21.5625,-158.5000,0
1777067624.789,9.1937,3.2250,-2.1045,0.1788,0.0751,0.0179,-48.3000,27.3000,35.8500,9.5577,0.5507,-1.3647,0.0650,-0.0640,0.0168,-55.8000,1.0500,5.8500,3.6300,3.2400,-8.5300,-0.0404,0.0153,-0.0240,-27.5000,-20.2500,22.5625,240.3125,21.5625,-158.5000,0
1777067624.794,9.1937,3.2250,-2.1045,0.3099,0.0866,0.0144,-48.3000,27.3000,35.8500,9.5577,0.5507,-1.3647,0.0650,-0.0640,0.0168,-55.8000,1.0500,5.8500,3.6300,3.2400,-8.5300,-0.0425,0.0175,-0.0251,-26.3750,-19.8750,21.7500,240.3125,21.5625,-158.5000,0
1777067624.799,9.4786,3.1220,-2.1572,0.3099,0.0866,0.0144,-47.8500,28.5000,34.8000,9.6343,0.3184,-1.1133,0.1029,-0.0687,0.0131,-55.8000,1.0500,5.8500,3.6100,3.3100,-8.5000,-0.0425,0.0175,-0.0251,-26.3750,-19.8750,21.7500,240.3125,21.5625,-158.5000,0
1777067624.804,9.5385,2.9521,-2.3774,0.3515,0.0933,0.0663,-47.8500,28.5000,34.8000,9.6343,0.3184,-1.1133,0.1029,-0.0687,0.0131,-54.4500,-0.1500,5.7000,3.6100,3.3100,-8.5000,-0.0371,0.0109,-0.0229,-26.3750,-19.8750,21.7500,240.3125,21.5625,-158.5000,0
1777067624.809,9.5385,2.9521,-2.3774,0.3515,0.0933,0.0663,-47.8500,28.5000,34.8000,9.7468,0.3304,-1.0702,0.0759,-0.0962,0.0045,-54.4500,-0.1500,5.7000,3.4900,3.2900,-8.5000,-0.0371,0.0109,-0.0229,-26.3750,-19.8750,21.7500,240.3125,21.5625,-158.5000,0
1777067624.814,9.3637,3.0909,-2.5019,0.3349,0.0794,0.0885,-47.8500,28.5000,34.8000,9.7468,0.3304,-1.0702,0.0759,-0.0962,0.0045,-56.2500,1.3500,6.4500,3.4900,3.2900,-8.5000,-0.0240,0.0087,-0.0142,-26.3750,-19.8750,21.7500,240.2500,21.5625,-158.4375,0
1777067624.820,9.3637,3.0909,-2.5019,0.3349,0.0794,0.0885,-48.0000,27.4500,36.1500,9.7444,0.2586,-1.1875,0.0093,-0.1188,0.0101,-56.2500,1.3500,6.4500,3.5900,3.3300,-8.5700,-0.0240,0.0087,-0.0142,-26.3750,-19.8750,21.7500,240.3125,21.5625,-158.4375,0
1777067624.829,9.1123,3.0215,-2.5522,0.2206,0.0506,0.0584,-47.1000,27.7500,35.8500,9.6845,0.2849,-1.4365,-0.0349,-0.1100,0.0181,-54.4500,1.3500,6.0000,3.6400,3.1200,-8.5900,-0.0229,0.0055,-0.0076,-26.3750,-19.8750,21.7500,240.3125,21.5625,-158.4375,0
1777067624.839,8.9687,2.7078,-2.6504,0.0314,0.0266,0.0485,-46.8000,28.5000,34.8000,9.6630,0.3783,-1.5155,-0.0424,-0.1031,0.0277,-54.6000,1.0500,7.6500,3.6700,3.1500,-8.5700,-0.0436,0.0098,-0.0175,-26.3750,-19.8750,21.7500,240.2500,21.5625,-158.4375,0
1777067624.844,8.9519,2.6695,-2.3008,-0.0637,0.0522,0.0586,-46.8000,28.5000,34.8000,9.6630,0.3783,-1.5155,-0.0424,-0.1031,0.0277,-55.0500,-0.3000,6.1500,3.6700,3.1500,-8.5700,-0.0436,0.0098,-0.0175,-26.3750,-19.8750,21.7500,240.2500,21.5625,-158.4375,0
1777067624.849,8.9519,2.6695,-2.3008,-0.0637,0.0522,0.0586,-47.1000,27.0000,35.2500,9.5888,0.5746,-1.5730,-0.0679,-0.0903,0.0378,-55.0500,-0.3000,6.1500,3.6000,3.1800,-8.5900,-0.0611,0.0109,-0.0229,-26.0000,-20.5625,21.0000,240.2500,21.5625,-158.3750,0
1777067624.854,9.0046,2.6193,-2.0399,0.0059,0.0949,0.0464,-47.1000,27.0000,35.2500,9.5888,0.5746,-1.5730,-0.0679,-0.0903,0.0378,-55.3500,1.5000,6.6000,3.6000,3.1800,-8.5900,-0.0611,0.0109,-0.0229,-26.0000,-20.5625,21.0000,240.2500,21.5625,-158.3750,0
1777067624.859,9.0046,2.6193,-2.0399,0.0059,0.0949,0.0464,-47.1000,27.0000,35.2500,9.4763,0.7374,-1.7334,-0.0823,-0.0786,0.0317,-55.3500,1.5000,6.6000,3.5600,3.2700,-8.5400,-0.0676,0.0153,-0.0240,-26.0000,-20.5625,21.0000,240.2500,21.5625,-158.3125,0
1777067624.863,9.1171,2.6695,-2.1093,0.1023,0.0741,0.0368,-47.1000,27.0000,35.2500,9.4763,0.7374,-1.7334,-0.0823,-0.0786,0.0317,-55.3500,1.5000,6.6000,3.5600,3.2700,-8.5400,-0.0589,0.0175,-0.0218,-26.0000,-20.5625,21.0000,240.2500,21.5625,-158.3125,0
1777067624.870,9.1171,2.6695,-2.1093,0.1023,0.0741,0.0368,-47.8500,27.7500,35.2500,9.5960,0.7326,-1.6496,-0.0517,-0.0802,0.0184,-55.3500,1.5000,6.6000,3.6000,3.4200,-8.4700,-0.0589,0.0175,-0.0218,-26.0000,-20.5625,21.0000,240.2500,21.5625,-158.2500,0
1777067624.879,8.9471,2.9688,-2.1093,0.1226,0.0501,0.0384,-48.7500,31.2000,34.6500,9.5912,0.7398,-1.6592,-0.0083,-0.0898,0.0088,-55.5000,0.9000,8.2500,3.6200,3.4200,-8.5100,-0.0469,0.0175,-0.0196,-26.0000,-20.5625,21.0000,240.2500,21.5625,-158.2500,0
1777067624.889,8.9830,2.9784,-2.4876,0.0480,0.0424,0.0346,-48.9000,28.0500,37.0500,9.6391,0.6560,-1.9178,0.0040,-0.0997,0.0053,-56.1000,1.0500,6.9000,3.6500,3.2400,-8.5400,-0.0447,0.0175,-0.0196,-26.0000,-20.5625,21.0000,240.2500,21.5625,-158.2500,0
1777067624.894,8.8083,3.0718,-2.6217,-0.0277,0.0565,0.0517,-48.9000,28.0500,37.0500,9.6031,0.5770,-2.0327,0.0040,-0.0997,0.0053,-54.7500,0.4500,5.7000,3.6500,3.2400,-8.5400,-0.0447,0.0175,-0.0196,-26.0000,-20.5625,21.0000,240.2500,21.5625,-158.1875,0
1777067624.899,8.8083,3.0718,-2.6217,-0.0277,0.0565,0.0517,-47.4000,28.6500,34.9500,9.6031,0.5770,-2.0327,-0.0136,-0.0967,0.0077,-54.7500,0.4500,5.7000,3.6600,3.2700,-8.5700,-0.0578,0.0153,-0.0262,-25.5625,-20.2500,21.7500,240.2500,21.5625,-158.1875,0
1777067624.904,8.9304,2.9209,-2.9521,-0.0938,0.0538,0.0645,-47.4000,28.6500,34.9500,9.5720,0.5602,-2.0039,-0.0136,-0.0967,0.0077,-55.3500,1.0500,5.8500,3.6600,3.2700,-8.5700,-0.0578,0.0153,-0.0262,-25.5625,-20.2500,21.7500,240.2500,21.5625,-158.1250,0
1777067624.909,8.9304,2.9209,-2.9521,-0.0938,0.0538,0.0645,-48.6000,30.0000,35.2500,9.5720,0.5602,-2.0039,-0.0258,-0.0677,0.0269,-55.3500,1.0500,5.8500,3.6500,3.2200,-8.5300,-0.0796,0.0153,-0.0338,-25.5625,-20.2500,21.7500,240.2500,21.5625,-158.1250,0
1777067624.914,8.6526,2.8371,-2.9281,-0.1340,0.0426,0.0954,-48.6000,30.0000,35.2500,9.5457,0.6177,-2.1189,-0.0637,-0.0469,0.0474,-55.8000,1.5000,6.6000,3.6500,3.2200,-8.5300,-0.0982,0.0153,-0.0360,-25.5625,-20.2500,21.7500,240.1875,21.5625,-158.0625,0
1777067624.920,8.6526,2.8371,-2.9281,-0.1844,0.1066,0.1324,-48.6000,30.0000,35.2500,9.5457,0.6177,-2.1189,-0.0637,-0.0469,0.0474,-55.8000,1.5000,6.6000,3.5900,3.2600,-8.5800,-0.0982,0.0153,-0.0360,-25.5625,-20.2500,21.7500,240.1875,21.5625,-158.0000,0
1777067624.929,8.8107,2.8156,-3.0765,-0.1844,0.1066,0.1324,-46.8000,29.5500,35.5500,9.4595,0.5243,-2.3104,-0.1127,-0.0165,0.0544,-54.4500,0.4500,6.4500,3.5900,3.2700,-8.5300,-0.1113,0.0273,-0.0393,-25.5625,-20.2500,21.7500,240.1875,21.5625,-158.0000,0
1777067624.937,8.9878,3.1101,-2.8778,-0.1900,0.0576,0.1532,-48.3000,28.8000,34.8000,9.4284,0.4477,-2.2482,-0.1202,0.0067,0.0541,-54.4500,0.4500,6.4500,3.6200,3.2100,-8.5000,-0.1265,0.0295,-0.0393,-25.5625,-20.2500,21.7500,240.1875,21.5625,-157.9375,0
1777067624.942,9.1219,3.0263,-3.3040,-0.1791,0.0445,0.1314,-48.3000,28.8000,34.8000,9.3398,0.5818,-2.3391,-0.1202,0.0067,0.0541,-54.4500,0.4500,6.4500,3.6200,3.2100,-8.5000,-0.1265,0.0295,-0.0393,-25.5625,-20.2500,21.7500,240.1875,21.5625,-157.9375,0
1777067624.947,9.1219,3.0263,-3.3040,-0.1791,0.0445,0.1314,-46.9500,28.2000,35.4000,9.3398,0.5818,-2.3391,-0.2033,0.0035,0.0568,-54.0000,0.1500,6.4500,3.5900,3.2900,-8.4800,-0.1407,0.0393,-0.0425,-26.6875,-20.2500,21.7500,240.1875,21.6250,-157.8125,0
1777067624.952,9.0812,2.9688,-3.3878,-0.2310,-0.0016,0.1138,-46.9500,28.2000,35.4000,9.2919,0.8116,-2.4373,-0.2033,0.0035,0.0568,-54.0000,0.1500,6.4500,3.5900,3.2900,-8.4800,-0.1407,0.0393,-0.0425,-26.6875,-20.2500,21.7500,240.1875,21.6250,-157.8125,0
1777067624.957,9.0812,2.9688,-3.3878,-0.2310,-0.0016,0.1138,-48.9000,27.7500,34.5000,9.2919,0.8116,-2.4373,-0.1879,0.0434,0.0661,-54.4500,1.3500,7.2000,3.6700,3.3900,-8.5700,-0.1571,0.0393,-0.0371,-26.6875,-20.2500,21.7500,240.1875,21.6250,-157.7500,0
1777067624.961,9.1770,2.9568,-3.2202,-0.2017,-0.0674,0.0957,-48.9000,27.7500,34.5000,9.2991,0.8859,-2.4780,-0.1879,0.0434,0.0661,-54.4500,1.3500,7.2000,3.6700,3.3900,-8.5700,-0.1571,0.0393,-0.0371,-26.6875,-20.2500,21.7500,240.1875,21.6250,-157.7500,0
1777067624.969,9.1099,2.8347,-3.2561,-0.1884,-0.0922,0.0890,-48.9000,27.7500,34.5000,9.2991,0.8859,-2.4780,-0.1945,0.0898,0.0679,-55.5000,-0.9000,7.5000,3.4900,3.4500,-8.4400,-0.1353,0.0142,-0.0196,-26.6875,-20.2500,21.7500,240.1875,21.6250,-157.6250,0
1777067624.975,9.1099,2.8347,-3.2561,-0.1884,-0.0922,0.0890,-48.9000,27.7500,34.5000,9.2560,0.8859,-2.2889,-0.2054,0.1116,0.0746,-55.3500,0.7500,6.6000,3.5400,3.4600,-8.3800,-0.1058,0.0098,-0.0109,-26.6875,-20.2500,21.7500,240.1875,21.6250,-157.5625,0
1777067624.980,9.0980,2.7892,-3.3615,-0.1729,-0.1311,0.1053,-46.0500,28.0500,34.5000,9.2751,0.9194,-2.3008,-0.2054,0.1116,0.0746,-55.3500,0.7500,6.6000,3.5400,3.4600,-8.3800,-0.1058,0.0098,-0.0109,-26.6875,-20.2500,21.7500,240.1875,21.6250,-157.5625,0
1777067624.989,8.9352,3.3351,-2.9209,-0.2238,-0.1972,0.0754,-47.8500,28.0500,34.5000,9.2751,0.9194,-2.3008,-0.1916,0.1303,0.0767,-55.0500,1.0500,5.8500,3.5400,3.4500,-8.3900,-0.0807,0.0033,0.0011,-26.6875,-20.2500,21.7500,240.1875,21.6250,-157.5625,0
1777067624.994,8.9352,3.3351,-2.9209,-0.2238,-0.1972,0.0754,-47.8500,28.0500,34.5000,9.3350,0.9146,-2.3032,-0.1945,0.1380,0.0874,-55.2000,0.9000,6.7500,3.5400,3.4500,-8.3900,-0.0807,0.0033,0.0011,-26.6875,-20.2500,21.7500,240.1875,21.6250,-157.5000,0
1777067624.999,8.8729,3.4237,-3.0765,-0.3059,-0.1815,0.0306,-46.6500,27.1500,34.6500,9.4020,0.9170,-2.2338,-0.1945,0.1380,0.0874,-55.2000,0.9000,6.7500,3.5400,3.4300,-8.4500,-0.0545,-0.0011,0.0087,-26.0000,-20.2500,20.8750,240.1875,21.6250,-157.5000,0
1777067625.004,8.8729,3.4237,-3.0765,-0.3059,-0.1815,0.0306,-46.6500,27.1500,34.6500,9.4020,0.9170,-2.2338,-0.2065,0.1852,0.0959,-55.2000,0.9000,6.7500,3.5400,3.4300,-8.4500,-0.0545,-0.0011,0.0087,-26.0000,-20.2500,20.8750,240.1875,21.6250,-157.5000,0
1777067625.009,9.1243,3.6344,-3.0335,-0.4175,-0.1359,-0.0008,-45.7500,27.3000,33.4500,9.5457,0.8595,-2.0925,-0.2065,0.1852,0.0959,-55.2000,0.9000,6.7500,3.6400,3.3900,-8.5000,-0.0415,0.0065,0.0131,-26.0000,-20.2500,20.8750,240.1875,21.6250,-157.5000,0
1777067625.014,9.1243,3.6344,-3.0335,-0.4175,-0.1359,-0.0008,-45.7500,27.3000,33.4500,9.5457,0.8595,-2.0925,-0.1905,0.1961,0.1140,-54.1500,1.9500,6.6000,3.6400,3.3900,-8.5000,-0.0371,0.0109,0.0098,-26.0000,-20.2500,20.8750,240.1875,21.6250,-157.5000,0
1777067625.020,8.8035,3.7421,-2.7270,-0.4698,-0.1069,-0.0405,-45.7500,27.3000,33.4500,9.5074,0.8859,-2.0207,-0.1974,0.2214,0.1300,-54.1500,1.9500,6.6000,3.6300,3.3900,-8.4800,-0.0371,0.0109,0.0098,-26.0000,-20.2500,20.8750,240.1875,21.6250,-157.4375,0
1777067625.029,8.9376,3.7086,-2.8467,-0.5303,-0.1042,-0.0871,-45.7500,27.3000,33.4500,9.4403,0.9194,-1.9656,-0.1897,0.2419,0.1450,-55.8000,1.0500,6.6000,3.5900,3.3800,-8.5000,-0.0338,0.0153,0.0098,-26.0000,-20.2500,20.8750,240.1875,21.6250,-157.4375,0
