timestamp,thigh_acc_x,thigh_acc_y,thigh_acc_z,thigh_gyro_x,thigh_gyro_y,thigh_gyro_z,thigh_mag_x,thigh_mag_y,thigh_mag_z,shank_acc_x,shank_acc_y,shank_acc_z,shank_gyro_x,shank_gyro_y,shank_gyro_z,shank_mag_x,shank_mag_y,shank_mag_z,foot_acc_x,foot_acc_y,foot_acc_z,foot_gyro_x,foot_gyro_y,foot_gyro_z,foot_mag_x,foot_mag_y,foot_mag_z,foot_euler_x,foot_euler_y,foot_euler_z,perturbation_event
267.600,9.2871,2.6169,-2.3272,0.0333,0.0725,-0.0546,-59.8500,24.0000,32.4000,9.6750,-0.0407,0.5746,0.0165,-0.0016,-0.1031,-55.0500,12.9000,-2.1000,3.2800,3.5400,-8.3900,-0.0120,0.0022,-0.0076,-16.0000,-30.1875,18.8750,197.0625,19.7500,-156.0000,0
267.608,9.2225,2.6983,-2.4134,0.0557,0.1023,-0.0480,-59.7000,22.2000,32.8500,9.7348,-0.0239,0.3496,0.0165,-0.0016,-0.1031,-55.0500,12.9000,-2.1000,3.2700,3.5300,-8.3800,-0.0142,0.0076,-0.0076,-16.0000,-30.1875,18.8750,197.0625,19.7500,-156.0000,0
267.613,9.2225,2.6983,-2.4134,0.0557,0.1023,-0.0480,-59.7000,22.2000,32.8500,9.7348,-0.0239,0.3496,0.0107,0.0037,-0.1250,-54.7500,12.6000,-1.9500,3.2700,3.5300,-8.3800,-0.0142,0.0076,-0.0076,-16.0000,-30.1875,18.8750,197.0625,19.8125,-156.0000,0
267.621,9.2033,2.6312,-2.5163,0.0930,0.0943,-0.0429,-59.7000,23.4000,32.1000,9.7324,-0.0407,0.4214,0.0280,-0.0091,-0.1426,-54.7500,12.6000,-1.9500,3.2400,3.4900,-8.3800,-0.0153,0.0131,-0.0076,-16.0000,-30.1875,18.8750,197.0625,19.8125,-156.0000,0
267.626,9.0764,2.6959,-2.5857,0.1279,0.0791,-0.0357,-59.5500,21.3000,33.0000,9.7324,-0.0407,0.4214,0.0280,-0.0091,-0.1426,-54.7500,12.6000,-1.9500,3.2400,3.4900,-8.3800,-0.0131,0.0164,-0.0033,-14.5000,-30.8750,18.8750,197.0625,19.8125,-156.0000,0
267.632,9.0764,2.6959,-2.5857,0.1279,0.0791,-0.0357,-59.5500,21.3000,33.0000,9.7181,0.0838,0.4310,0.0250,0.0027,-0.1561,-53.2500,11.8500,-1.9500,3.2100,3.4600,-8.3900,-0.0131,0.0164,-0.0033,-14.5000,-30.8750,18.8750,197.0625,19.8125,-156.0000,0
267.641,9.1028,2.7390,-2.6312,0.1439,0.0909,-0.0288,-60.7500,21.1500,31.0500,9.6295,0.3496,0.3017,0.0181,0.0024,-0.1684,-53.2500,11.8500,-1.9500,3.2900,3.3400,-8.4200,-0.0142,0.0207,-0.0011,-14.5000,-30.8750,18.8750,197.0625,19.8125,-156.0000,0
267.646,9.1099,2.7342,-2.4732,0.1527,0.0829,-0.0269,-60.7500,21.1500,31.0500,9.6295,0.3496,0.3017,0.0181,0.0024,-0.1684,-53.2500,11.8500,-1.9500,3.2900,3.3400,-8.4200,-0.0175,0.0196,0.0033,-14.5000,-30.8750,18.8750,197.0625,19.8125,-156.0000,0
267.652,9.1099,2.7342,-2.4732,0.1527,0.0829,-0.0269,-60.7500,21.1500,31.0500,9.7181,0.6943,0.1484,0.0384,0.0168,-0.1689,-54.0000,13.0500,-0.9000,3.2900,3.3600,-8.4100,-0.0175,0.0196,0.0033,-14.5000,-30.8750,18.8750,197.0625,19.8125,-156.0000,0
267.661,9.1004,2.7892,-2.3391,0.1471,0.0925,-0.0392,-60.7500,21.1500,31.0500,9.6175,1.0367,0.3328,0.0941,0.0205,-0.1769,-53.8500,12.4500,-2.5500,3.2300,3.5500,-8.3200,-0.0273,0.0218,0.0033,-14.5000,-30.8750,18.8750,197.0625,19.8125,-156.0000,0
267.669,9.0261,2.8060,-2.3774,0.1452,0.1058,-0.0765,-59.7000,22.6500,31.0500,9.6271,1.0295,0.3711,0.1426,0.0408,-0.1876,-53.8500,12.4500,-2.5500,3.2700,3.7300,-8.3200,-0.0316,0.0229,0.0033,-14.5000,-30.8750,18.8750,197.0625,19.8125,-156.0000,0
267.674,9.0453,2.8515,-2.3559,0.1460,0.1138,-0.1138,-59.7000,22.6500,31.0500,9.6271,1.0295,0.3711,0.1426,0.0408,-0.1876,-53.4000,12.9000,-1.3500,3.2700,3.7300,-8.3200,-0.0316,0.0229,0.0033,-14.5000,-30.8750,18.8750,197.0625,19.8125,-156.0000,0
267.679,9.0453,2.8515,-2.3559,0.1460,0.1138,-0.1138,-60.3000,21.0000,31.3500,9.6343,0.7063,0.2993,0.1364,0.0458,-0.1759,-53.4000,12.9000,-1.3500,3.2900,3.7000,-8.3200,-0.0316,0.0295,0.0022,-16.0000,-30.8750,18.5000,197.0625,19.8750,-155.9375,0
267.683,8.8538,2.9305,-2.3367,0.1276,0.1186,-0.1410,-60.3000,21.0000,31.3500,9.6343,0.7063,0.2993,0.1364,0.0458,-0.1759,-54.6000,12.0000,-2.1000,3.2900,3.7000,-8.3200,-0.0316,0.0295,0.0022,-16.0000,-30.8750,18.5000,197.0625,19.8750,-155.9375,0
267.688,8.8538,2.9305,-2.3367,0.1276,0.1186,-0.1410,-60.7500,23.7000,31.8000,9.6007,0.4286,0.2011,0.1023,0.0426,-0.1775,-54.6000,12.0000,-2.1000,3.3000,3.7400,-8.3000,-0.0316,0.0284,0.0022,-16.0000,-30.8750,18.5000,197.0625,19.8750,-155.9375,0
267.693,8.8178,3.0861,-2.2362,0.0997,0.1367,-0.1569,-60.7500,23.7000,31.8000,9.6007,0.4286,0.2011,0.1023,0.0426,-0.1775,-54.7500,11.4000,-1.2000,3.3000,3.7400,-8.3000,-0.0316,0.0284,0.0022,-16.0000,-30.8750,18.5000,197.0625,19.8750,-155.9375,0
267.701,8.7005,3.2489,-2.2793,0.0525,0.1788,-0.1633,-59.5500,21.7500,32.7000,9.6438,0.3041,0.1508,0.0520,0.0378,-0.1823,-54.7500,12.3000,-1.9500,3.3200,3.6500,-8.3500,-0.0240,0.0218,0.0000,-16.0000,-30.8750,18.5000,197.0625,19.8750,-155.9375,0
267.711,8.7412,3.3902,-2.2218,0.0735,0.1823,-0.1484,-59.5500,21.7500,32.7000,9.6295,0.3352,0.0886,0.0229,0.0498,-0.1841,-54.7500,12.3000,-1.9500,3.2900,3.5700,-8.3700,-0.0109,0.0185,-0.0022,-16.0000,-30.8750,18.5000,197.0625,19.8750,-155.9375,0
267.719,8.7412,3.3902,-2.2218,0.0735,0.1823,-0.1484,-61.3500,22.8000,31.3500,9.6678,0.7207,0.1676,0.0336,0.0687,-0.1887,-54.7500,12.3000,-1.9500,3.2700,3.5400,-8.3900,-0.0076,0.0131,-0.0055,-16.0000,-30.8750,18.5000,197.0625,19.8750,-155.9375,0
267.723,8.6383,3.7062,-2.2625,0.0925,0.1948,-0.1282,-59.5500,23.2500,31.6500,9.6175,1.1732,0.2514,0.0336,0.0687,-0.1887,-55.0500,12.9000,-1.8000,3.2700,3.5400,-8.3900,-0.0076,0.0131,-0.0055,-16.0000,-30.8750,18.5000,197.0625,19.8750,-155.9375,0
267.729,8.6383,3.7062,-2.2625,0.0925,0.1948,-0.1282,-59.5500,23.2500,31.6500,9.6175,1.1732,0.2514,0.0965,0.0853,-0.1924,-55.0500,12.9000,-1.8000,3.2300,3.5900,-8.3700,-0.0098,0.0153,-0.0011,-14.8750,-30.8750,19.2500,197.0625,19.8750,-155.9375,0
267.733,8.7819,3.9313,-2.3511,0.1069,0.2388,-0.1175,-61.3500,23.5500,33.0000,9.5457,1.4796,0.4118,0.0965,0.0853,-0.1924,-55.0500,12.9000,-1.8000,3.2300,3.5900,-8.3700,-0.0098,0.0153,-0.0011,-14.8750,-30.8750,19.2500,197.0625,19.8750,-155.9375,0
267.741,8.9974,3.9528,-2.1668,0.1852,0.1969,-0.1132,-61.3500,23.5500,33.0000,9.5457,1.4796,0.4118,0.2062,0.1029,-0.1940,-54.0000,12.6000,-1.6500,3.2900,3.6700,-8.3600,-0.0153,0.0185,0.0000,-14.8750,-30.8750,19.2500,197.0625,19.8750,-155.9375,0
267.749,8.8442,3.8523,-2.1380,0.2025,0.1540,-0.1244,-59.2500,23.4000,32.1000,9.5265,1.3336,0.3352,0.2926,0.1207,-0.1977,-54.0000,12.6000,-1.6500,3.3100,3.7400,-8.3200,-0.0240,0.0273,-0.0022,-14.8750,-30.8750,19.2500,197.0625,19.9375,-155.8750,0
267.754,8.8442,3.8523,-2.1380,0.2025,0.1540,-0.1244,-60.0000,22.9500,32.1000,9.6127,1.0463,0.4334,0.3131,0.1191,-0.1919,-54.1500,13.2000,-3.3000,3.3100,3.7400,-8.3200,-0.0240,0.0273,-0.0022,-14.8750,-30.8750,19.2500,197.0625,19.9375,-155.8750,0
267.761,8.9208,3.9121,-1.9656,0.1724,0.2158,-0.1172,-60.0000,22.9500,32.1000,9.6127,1.0463,0.4334,0.3131,0.1191,-0.1919,-53.7000,13.0500,-1.2000,3.3200,3.7400,-8.3000,-0.0218,0.0273,-0.0022,-14.8750,-30.8750,19.2500,197.0625,19.9375,-155.8750,0
267.769,9.0214,4.0390,-1.5586,0.1623,0.2534,-0.1258,-60.0000,22.9500,32.1000,9.7492,0.8547,0.5171,0.2630,0.1191,-0.1807,-53.7000,13.0500,-1.2000,3.3200,3.7400,-8.3300,-0.0131,0.0284,-0.0044,-14.8750,-30.8750,19.2500,197.0625,19.9375,-155.8750,0
267.774,9.0214,4.0390,-1.5586,0.1623,0.2534,-0.1258,-59.8500,23.5500,32.4000,9.6654,0.7997,0.6201,0.1961,0.1053,-0.1761,-54.0000,13.5000,-1.9500,3.3200,3.7400,-8.3300,-0.0131,0.0284,-0.0044,-14.8750,-30.8750,19.2500,197.0625,19.9375,-155.8750,0
267.779,9.1674,4.1468,-1.0008,0.1721,0.3086,-0.1514,-59.8500,23.5500,32.4000,9.6654,0.7997,0.6201,0.1961,0.1053,-0.1761,-54.0000,13.5000,-1.9500,3.3100,3.7100,-8.3000,0.0022,0.0175,-0.0055,-15.2500,-31.5625,18.5000,197.0625,19.9375,-155.8750,0
267.783,9.1674,4.1468,-1.0008,0.1721,0.3086,-0.1514,-58.9500,22.2000,32.1000,9.6774,1.1660,0.6201,0.1572,0.1018,-0.1681,-54.0000,11.8500,-2.4000,3.3100,3.7100,-8.3000,0.0022,0.0175,-0.0055,-15.2500,-31.5625,18.5000,197.0625,19.9375,-155.8750,0
267.791,9.2943,4.0558,-0.7757,0.1998,0.3400,-0.1966,-58.9500,22.2000,32.1000,9.8138,1.3312,1.0175,0.2345,0.1026,-0.1679,-54.6000,13.6500,-3.3000,3.3200,3.6900,-8.3300,0.0044,0.0131,-0.0044,-15.2500,-31.5625,18.5000,197.0625,19.9375,-155.8750,0
267.800,9.2488,3.8211,-1.1109,0.2553,0.3709,-0.2102,-57.7500,24.7500,32.7000,9.7923,1.3551,1.2354,0.2345,0.1026,-0.1679,-54.6000,13.6500,-3.3000,3.2700,3.7100,-8.3800,0.0087,0.0098,-0.0055,-15.2500,-31.5625,18.5000,197.0625,19.9375,-155.8750,0
267.805,9.2488,3.8211,-1.1109,0.2553,0.3709,-0.2102,-59.7000,24.9000,33.9000,9.7923,1.3551,1.2354,0.2825,0.0807,-0.1743,-54.6000,13.6500,-3.3000,3.2700,3.7100,-8.3800,0.0109,0.0142,-0.0055,-15.2500,-31.5625,18.5000,197.0625,20.0000,-155.8750,0
267.812,8.7939,3.5841,-1.2617,0.3520,0.3371,-0.2132,-59.7000,24.9000,33.9000,9.7492,0.9385,1.1636,0.2726,0.0520,-0.1700,-53.8500,13.6500,-2.8500,3.3100,3.6900,-8.3500,0.0109,0.0142,-0.0055,-15.2500,-31.5625,18.5000,197.0625,20.0000,-155.8750,0
267.821,8.4539,3.6320,-1.2306,0.4125,0.3307,-0.1689,-59.7000,24.9000,33.9000,9.8785,0.8954,1.0534,0.2449,0.0791,-0.1649,-53.8500,13.6500,-2.8500,3.3400,3.6300,-8.3700,-0.0022,0.0153,-0.0055,-15.2500,-31.5625,18.5000,197.0625,20.0000,-155.8750,0
267.826,8.4539,3.6320,-1.2306,0.4125,0.3307,-0.1689,-60.6000,24.3000,32.4000,9.8785,0.8954,1.0534,0.2449,0.0791,-0.1649,-53.7000,13.0500,-2.4000,3.3400,3.6300,-8.3700,-0.0055,0.0185,-0.0065,-15.2500,-30.5625,18.0625,197.0625,20.0000,-155.8750,0
267.832,8.7388,3.3232,-1.0391,0.3842,0.4722,-0.1092,-58.8000,22.8000,32.4000,9.7659,1.0247,1.1157,0.2337,0.0442,-0.1553,-54.4500,14.5500,-2.7000,3.3100,3.6300,-8.3900,-0.0055,0.0185,-0.0065,-15.2500,-30.5625,18.0625,197.0625,20.0000,-155.8750,0
267.841,8.9232,3.2058,-0.8811,0.3688,0.5606,-0.0480,-58.8000,25.5000,32.4000,9.7683,1.1301,1.1899,0.2529,0.0426,-0.1540,-54.4500,14.5500,-2.7000,3.2900,3.6700,-8.3800,-0.0055,0.0185,-0.0065,-15.2500,-30.5625,18.0625,197.0625,20.0000,-155.8750,0
267.849,9.1913,2.9712,-1.1516,0.4437,0.5694,0.0157,-58.8000,25.5000,32.4000,9.6798,1.1923,1.2785,0.2689,0.0133,-0.1452,-53.8500,14.4000,-2.1000,3.2800,3.6800,-8.4100,-0.0185,0.0273,-0.0044,-15.2500,-30.5625,18.0625,197.0000,20.0000,-155.8750,0
267.854,9.1913,2.9712,-1.1516,0.4437,0.5694,0.0157,-58.0500,24.3000,32.7000,9.6798,1.1923,1.2785,0.2689,0.0133,-0.1452,-54.1500,13.2000,-1.3500,3.2800,3.6800,-8.4100,-0.0185,0.0273,-0.0044,-15.2500,-30.5625,18.0625,197.0000,20.0000,-155.8750,0
267.862,9.5457,3.0263,-1.0965,0.5028,0.4319,0.0211,-58.9500,23.7000,31.5000,9.7109,1.1827,1.3312,0.2366,0.0096,-0.1418,-54.1500,13.2000,-1.3500,3.3100,3.6900,-8.3500,-0.0251,0.0262,-0.0044,-15.2500,-30.5625,18.0625,197.0000,20.0000,-155.8750,0
267.869,9.3015,3.0598,-0.7278,0.5681,0.3925,0.0360,-58.9500,23.7000,31.5000,9.7037,1.2139,1.1636,0.2353,-0.0096,-0.1306,-54.4500,13.5000,-2.4000,3.3600,3.6600,-8.3500,-0.0273,0.0229,-0.0033,-15.2500,-30.5625,18.0625,197.0000,20.0625,-155.8125,0
267.874,9.3015,3.0598,-0.7278,0.5681,0.3925,0.0360,-58.9500,23.7000,31.5000,9.7037,1.2139,1.1636,0.2353,-0.0096,-0.1306,-54.4500,13.5000,-2.4000,3.3600,3.6600,-8.3500,-0.0273,0.0229,-0.0033,-15.2500,-30.5625,18.0625,197.0000,20.0625,-155.8125,0
267.879,9.3996,3.3303,-0.3160,0.5897,0.4658,0.0400,-58.9500,23.7000,31.5000,9.7707,1.1253,1.2043,0.2867,-0.0354,-0.1340,-54.4500,13.5000,-2.4000,3.3300,3.6800,-8.3300,-0.0262,0.0218,-0.0055,-15.5625,-30.8750,18.5000,197.0000,20.0625,-155.8125,0
267.883,9.3996,3.3303,-0.3160,0.5897,0.4658,0.0400,-58.6500,25.9500,32.5500,9.7707,1.1253,1.2043,0.2867,-0.0354,-0.1340,-55.0500,13.6500,-2.1000,3.3300,3.6800,-8.3300,-0.0262,0.0218,-0.0055,-15.5625,-30.8750,18.5000,197.0000,20.0625,-155.8125,0
267.888,9.7444,3.1747,-0.3735,0.5284,0.4895,0.0312,-58.6500,25.9500,32.5500,9.7564,0.8499,1.4796,0.3163,-0.0578,-0.1364,-55.0500,13.6500,-2.1000,3.3200,3.7000,-8.3200,-0.0251,0.0218,-0.0044,-15.5625,-30.8750,18.5000,197.0000,20.0625,-155.8125,0
267.893,9.7444,3.1747,-0.3735,0.5284,0.4895,0.0312,-58.0500,24.3000,29.5500,9.7564,0.8499,1.4796,0.3163,-0.0578,-0.1364,-55.0500,13.6500,-2.1000,3.3200,3.7000,-8.3200,-0.0251,0.0218,-0.0044,-15.5625,-30.8750,18.5000,197.0000,20.0625,-155.8125,0
267.898,9.3901,2.7054,-0.8667,0.4759,0.4684,0.0104,-58.0500,24.3000,29.5500,9.7276,0.6728,1.4269,0.2888,-0.0821,-0.1386,-55.0500,13.6500,-2.1000,3.3300,3.5900,-8.4200,-0.0338,0.0229,-0.0065,-15.5625,-30.8750,18.5000,197.0625,20.0625,-155.7500,0
267.903,9.3901,2.7054,-0.8667,0.4759,0.4684,0.0104,-59.2500,24.9000,30.4500,9.7276,0.6728,1.4269,0.2888,-0.0821,-0.1386,-54.7500,14.2500,-2.7000,3.3300,3.5900,-8.4200,-0.0338,0.0229,-0.0065,-15.5625,-30.8750,18.5000,197.0625,20.0625,-155.7500,0
267.911,9.0333,2.5067,-1.2234,0.4842,0.5684,0.0181,-57.1500,24.9000,32.1000,9.7971,0.8140,1.2234,0.2246,-0.0930,-0.1399,-54.7500,14.2500,-2.7000,3.3600,3.5500,-8.3800,-0.0458,0.0327,-0.0076,-15.5625,-30.8750,18.5000,197.0625,20.0625,-155.7500,0
267.918,9.1818,2.4301,-1.3647,0.5319,0.6448,0.0458,-57.1500,24.9000,32.1000,9.8521,0.7829,1.0439,0.2084,-0.0970,-0.1476,-54.0000,12.6000,-1.9500,3.3600,3.5100,-8.4000,-0.0513,0.0393,-0.0065,-15.5625,-30.8750,18.5000,197.0625,20.1250,-155.7500,0
267.923,9.1818,2.4301,-1.3647,0.5319,0.6448,0.0458,-57.1500,24.9000,32.1000,9.8521,0.7829,1.0439,0.2084,-0.0970,-0.1476,-53.8500,13.9500,-3.6000,3.3600,3.5100,-8.4000,-0.0513,0.0393,-0.0065,-15.5625,-30.8750,18.5000,197.0625,20.1250,-155.7500,0
267.928,9.4332,2.4493,-1.4748,0.5641,0.5622,0.0829,-57.1500,24.9000,32.1000,9.6917,0.7877,0.9457,0.1748,-0.1074,-0.1564,-53.8500,13.9500,-3.6000,3.4200,3.4700,-8.3300,-0.0622,0.0404,-0.0098,-16.0000,-30.1875,18.8750,197.0625,20.1250,-155.6875,0
267.932,9.4332,2.4493,-1.4748,0.5641,0.5622,0.0829,-57.1500,24.9000,32.1000,9.6917,0.7877,0.9457,0.1748,-0.1074,-0.1564,-53.8500,13.9500,-3.6000,3.4200,3.4700,-8.3300,-0.0622,0.0404,-0.0098,-16.0000,-30.1875,18.8750,197.0625,20.1250,-155.6875,0
267.938,9.4212,2.6049,-1.4844,0.5998,0.4876,0.1053,-57.1500,24.9000,32.1000,9.7205,0.6967,0.7542,0.1356,-0.1164,-0.1548,-53.4000,15.6000,-1.0500,3.3700,3.3900,-8.3800,-0.0796,0.0382,-0.0207,-16.0000,-30.1875,18.8750,197.0625,20.1250,-155.6875,0
267.943,9.4284,2.6504,-1.5060,0.5407,0.4615,0.1103,-60.0000,25.6500,31.8000,9.7205,0.6967,0.7542,0.1356,-0.1164,-0.1548,-53.4000,14.8500,-3.3000,3.3700,3.3900,-8.3800,-0.0796,0.0382,-0.0207,-16.0000,-30.1875,18.8750,197.0625,20.1250,-155.6875,0
267.948,9.4284,2.6504,-1.5060,0.5407,0.4615,0.1103,-60.0000,25.6500,31.8000,9.6893,0.9720,0.5938,0.1108,-0.1175,-0.1412,-53.4000,14.8500,-3.3000,3.3300,3.3500,-8.4400,-0.1058,0.0360,-0.0393,-16.0000,-30.1875,18.8750,197.0000,20.1250,-155.6250,0
267.953,9.2201,2.5809,-1.6113,0.4631,0.4493,0.1138,-58.3500,25.5000,31.6500,9.6893,0.9720,0.5938,0.1108,-0.1175,-0.1412,-54.1500,14.4000,-2.8500,3.3300,3.3500,-8.4400,-0.1058,0.0360,-0.0393,-16.0000,-30.1875,18.8750,197.0000,20.1875,-155.5625,0
267.962,9.2201,2.5809,-1.6113,0.4631,0.4493,0.1138,-57.7500,25.5000,30.9000,9.6702,1.1636,0.5339,0.1146,-0.1231,-0.1444,-54.1500,14.4000,-2.8500,3.2900,3.5700,-8.3900,-0.1320,0.0458,-0.0469,-16.0000,-30.1875,18.8750,197.0000,20.1875,-155.5625,0
267.968,8.9160,2.6049,-1.7095,0.4173,0.4876,0.1066,-57.7500,25.5000,30.9000,9.5600,1.0319,0.2658,0.1324,-0.1223,-0.1524,-54.1500,14.4000,-2.8500,3.3600,3.6900,-8.3100,-0.1440,0.0491,-0.0480,-16.0000,-30.1875,18.8750,197.0000,20.1875,-155.5000,0
267.973,8.9136,2.7845,-1.7885,0.3840,0.5545,0.1223,-61.6500,26.2500,31.6500,9.5600,1.0319,0.2658,0.1324,-0.1223,-0.1524,-54.1500,14.4000,-2.8500,3.3600,3.6900,-8.3100,-0.1440,0.0491,-0.0480,-16.0000,-30.1875,18.8750,197.0000,20.1875,-155.5000,0
267.977,8.9136,2.7845,-1.7885,0.3840,0.5545,0.1223,-61.6500,26.2500,31.6500,9.5864,0.8332,0.0120,0.1292,-0.1098,-0.1593,-53.7000,15.4500,-2.4000,3.3800,3.5800,-8.3400,-0.1505,0.0480,-0.0502,-15.5625,-31.2500,18.5000,197.0000,20.1875,-155.3750,0
267.982,8.9878,2.9425,-1.7454,0.3152,0.5457,0.1266,-61.6500,26.2500,31.6500,9.5864,0.8332,0.0120,0.1292,-0.1098,-0.1593,-53.7000,15.4500,-2.4000,3.3800,3.5800,-8.3400,-0.1505,0.0480,-0.0502,-15.5625,-31.2500,18.5000,197.0000,20.1875,-155.3750,0
267.987,8.9878,2.9425,-1.7454,0.3152,0.5457,0.1266,-61.6500,26.2500,31.6500,9.6558,0.8547,-0.0886,0.0762,-0.1023,-0.1471,-53.7000,15.4500,-2.4000,3.3800,3.5800,-8.3400,-0.1582,0.0458,-0.0524,-15.5625,-31.2500,18.5000,196.9375,20.1875,-155.3125,0
267.992,9.0405,3.2130,-1.6161,0.2014,0.4687,0.1298,-59.8500,26.5500,31.3500,9.5170,1.2115,-0.2777,0.0762,-0.1023,-0.1471,-53.7000,15.4500,-2.4000,3.3600,3.5300,-8.3400,-0.1582,0.0458,-0.0524,-15.5625,-31.2500,18.5000,196.9375,20.1875,-155.3125,0
267.997,9.0405,3.2130,-1.6161,0.2014,0.4687,0.1298,-59.8500,26.5500,31.3500,9.5170,1.2115,-0.2777,0.0373,-0.0839,-0.1394,-54.0000,15.0000,-3.4500,3.3600,3.5300,-8.3400,-0.1702,0.0502,-0.0502,-15.5625,-31.2500,18.5000,196.9375,20.2500,-155.1875,0
268.002,9.0381,3.5219,-1.5706,0.1039,0.4386,0.1207,-59.2500,27.1500,32.8500,9.5193,1.7047,-0.1508,0.0373,-0.0839,-0.1394,-54.0000,15.0000,-3.4500,3.3200,3.5800,-8.3100,-0.1702,0.0502,-0.0502,-15.5625,-31.2500,18.5000,196.9375,20.2500,-155.1875,0
268.011,8.9208,3.7230,-1.6161,0.0336,0.3994,0.1116,-59.2500,25.9500,30.7500,9.4739,2.1045,-0.3591,0.0493,-0.0746,-0.1338,-53.4000,14.4000,-1.8000,3.2400,3.7900,-8.2500,-0.1778,0.0502,-0.0513,-15.5625,-31.2500,18.5000,196.9375,20.2500,-155.0625,0
268.016,8.9208,3.7230,-1.6161,0.0336,0.3994,0.1116,-59.2500,25.9500,30.7500,9.4739,2.1045,-0.3591,0.1047,-0.0677,-0.1327,-54.1500,13.9500,-2.1000,3.2400,3.7900,-8.2500,-0.1702,0.0535,-0.0436,-15.5625,-31.2500,18.5000,196.9375,20.2500,-155.0000,0
268.022,8.7197,3.8259,-1.5060,0.0200,0.4253,0.1007,-59.5500,27.0000,31.6500,9.3972,2.0662,-0.2179,0.1551,-0.0381,-0.1196,-54.1500,13.9500,-2.1000,3.2900,3.8700,-8.2600,-0.1702,0.0535,-0.0436,-15.5625,-31.2500,18.5000,196.9375,20.2500,-155.0000,0
268.027,8.7197,3.8259,-1.5060,0.0200,0.4253,0.1007,-58.3500,27.0000,31.6500,9.3972,2.0662,-0.2179,0.1551,-0.0381,-0.1196,-54.1500,13.6500,-2.5500,3.2900,3.8700,-8.2600,-0.1702,0.0535,-0.0436,-16.0000,-31.2500,18.5000,196.9375,20.2500,-154.8750,0
268.032,8.7436,4.0127,-1.3886,0.0179,0.4202,0.0962,-58.3500,27.3000,32.4000,9.4978,2.0590,-0.2346,0.1561,-0.0245,-0.1066,-54.1500,13.6500,-2.5500,3.3300,4.0000,-8.1600,-0.1549,0.0425,-0.0371,-16.0000,-31.2500,18.5000,196.9375,20.2500,-154.8750,0
268.037,8.7436,4.0127,-1.3886,0.0179,0.4202,0.0962,-58.3500,27.3000,32.4000,9.4978,2.0590,-0.2346,0.1561,-0.0245,-0.1066,-53.4000,13.9500,-4.0500,3.3300,4.0000,-8.1600,-0.1549,0.0425,-0.0371,-16.0000,-31.2500,18.5000,196.8750,20.2500,-154.8125,0
268.042,8.7077,4.1276,-1.1516,-0.0405,0.3941,0.1031,-58.3500,27.3000,32.4000,9.5074,1.8483,-0.2155,0.1282,0.0117,-0.0855,-53.4000,13.9500,-4.0500,3.3600,4.0500,-8.1200,-0.1298,0.0349,-0.0295,-16.0000,-31.2500,18.5000,196.8750,20.2500,-154.8125,0
268.051,8.8633,4.5969,-0.7542,-0.0749,0.3800,0.1090,-57.9000,27.9000,31.0500,9.6558,1.9441,0.0670,0.1247,0.0155,-0.0541,-53.4000,14.4000,-3.6000,3.4000,3.9200,-8.2200,-0.1069,0.0327,-0.0240,-16.0000,-31.2500,18.5000,196.8750,20.3125,-154.7500,0
268.061,8.8178,4.5226,-0.2729,-0.1279,0.3216,0.1276,-57.4500,28.2000,31.5000,9.5481,2.0159,0.1030,0.1055,0.0192,-0.0410,-53.4000,14.4000,-3.6000,3.3500,3.9200,-8.2300,-0.0884,0.0284,-0.0229,-16.0000,-31.2500,18.5000,196.8750,20.3125,-154.6875,0
268.069,8.7101,4.4508,-0.1221,-0.1029,0.3872,0.1199,-57.9000,27.9000,32.5500,9.4595,1.9369,0.1987,0.1055,0.0192,-0.0410,-53.4000,14.8500,-2.8500,3.4000,3.9100,-8.2000,-0.0774,0.0251,-0.0175,-16.0000,-31.2500,18.5000,196.8750,20.3125,-154.6250,0
268.074,8.7101,4.4508,-0.1221,-0.1029,0.3872,0.1199,-57.9000,27.9000,32.5500,9.4595,1.9369,0.1987,0.1021,0.0248,-0.0325,-53.4000,14.8500,-2.8500,3.4000,3.9100,-8.2000,-0.0774,0.0251,-0.0175,-16.0000,-31.2500,18.5000,196.8750,20.3125,-154.6250,0
268.079,8.9232,4.3431,-0.3136,-0.0189,0.4559,0.1204,-57.3000,27.0000,31.3500,9.5457,1.9417,0.2634,0.1021,0.0248,-0.0325,-53.4000,14.8500,-2.8500,3.3700,3.9500,-8.1600,-0.0654,0.0240,-0.0164,-14.8750,-30.8750,18.5000,196.8750,20.3125,-154.5625,0
268.084,8.9232,4.3431,-0.3136,-0.0189,0.4559,0.1204,-57.3000,27.0000,31.3500,9.5457,1.9417,0.2634,0.1303,0.0213,-0.0165,-55.0500,15.1500,-4.3500,3.3700,3.9500,-8.1600,-0.0654,0.0240,-0.0164,-14.8750,-30.8750,18.5000,196.8750,20.3125,-154.5625,0
268.089,9.0549,4.2401,-0.3711,0.0421,0.4250,0.1343,-57.3000,27.0000,31.3500,9.5840,1.8028,0.3615,0.1303,0.0213,-0.0165,-55.0500,15.1500,-4.3500,3.3700,3.9800,-8.1700,-0.0513,0.0153,-0.0164,-14.8750,-30.8750,18.5000,196.8750,20.3125,-154.5625,0
268.093,9.0549,4.2401,-0.3711,0.0421,0.4250,0.1343,-57.3000,27.0000,31.3500,9.5840,1.8028,0.3615,0.1519,0.0213,-0.0080,-55.0500,15.1500,-4.3500,3.3700,3.9800,-8.1700,-0.0513,0.0153,-0.0164,-14.8750,-30.8750,18.5000,196.8750,20.3125,-154.5625,0
268.098,9.0668,4.1061,-0.2873,0.1444,0.4122,0.1657,-58.3500,28.0500,33.0000,9.6486,1.5395,0.4310,0.1519,0.0213,-0.0080,-53.1000,13.6500,-2.1000,3.4000,3.8500,-8.2300,-0.0404,0.0185,-0.0142,-14.8750,-30.8750,18.5000,196.8750,20.3125,-154.5625,0
268.103,9.0668,4.1061,-0.2873,0.1444,0.4122,0.1657,-58.3500,28.0500,33.0000,9.6486,1.5395,0.4310,0.1569,0.0368,0.0021,-53.1000,13.6500,-2.1000,3.4000,3.8500,-8.2300,-0.0404,0.0185,-0.0142,-14.8750,-30.8750,18.5000,196.8750,20.3125,-154.5000,0
268.112,9.2895,4.0677,-0.3567,0.2939,0.4002,0.1969,-57.0000,28.5000,33.0000,9.6438,1.6352,0.3711,0.1588,0.0360,0.0131,-53.1000,13.9500,-5.5500,3.3800,3.8100,-8.2600,-0.0327,0.0196,-0.0142,-14.8750,-30.8750,18.5000,196.8750,20.3125,-154.5000,0
268.120,9.2703,4.0558,-0.2825,0.4183,0.3645,0.2097,-58.0500,28.0500,33.7500,9.5122,1.6951,0.4884,0.1772,0.0413,0.0173,-53.2500,15.0000,-2.7000,3.3500,3.7900,-8.2400,-0.0273,0.0218,-0.0153,-14.8750,-30.8750,18.5000,196.8750,20.3125,-154.5000,0
268.125,9.2703,4.0558,-0.2825,0.4183,0.3645,0.2097,-58.0500,28.0500,33.7500,9.5122,1.6951,0.4884,0.1772,0.0413,0.0173,-52.5000,14.2500,-3.4500,3.3500,3.7900,-8.2400,-0.0273,0.0218,-0.0153,-14.8750,-30.8750,18.5000,196.8750,20.3125,-154.5000,0
268.130,9.2991,3.8666,-0.2011,0.5012,0.3603,0.2284,-58.8000,28.0500,33.4500,9.5313,1.6065,0.6823,0.2414,0.0528,0.0203,-52.5000,14.2500,-3.4500,3.3500,3.8100,-8.2200,-0.0262,0.0218,-0.0153,-15.5625,-30.5625,18.8750,196.8125,20.3125,-154.5000,0
268.134,9.2991,3.8666,-0.2011,0.5012,0.3603,0.2284,-58.8000,28.0500,33.4500,9.5313,1.6065,0.6823,0.2414,0.0528,0.0203,-54.0000,14.2500,-1.6500,3.3500,3.8100,-8.2200,-0.0262,0.0218,-0.0153,-15.5625,-30.5625,18.8750,196.8125,20.3125,-154.5000,0
268.139,9.2560,3.5219,-0.1796,0.5923,0.3285,0.2467,-57.7500,27.3000,32.4000,9.6271,1.6233,0.8140,0.2372,0.0296,0.0274,-54.0000,14.2500,-1.6500,3.3300,3.9000,-8.1700,-0.0207,0.0185,-0.0164,-15.5625,-30.5625,18.8750,196.8125,20.3750,-154.4375,0
268.144,9.2560,3.5219,-0.1796,0.5923,0.3285,0.2467,-57.7500,27.3000,32.4000,9.6271,1.6233,0.8140,0.2372,0.0296,0.0274,-54.0000,14.2500,-1.6500,3.3300,3.9000,-8.1700,-0.0207,0.0185,-0.0164,-15.5625,-30.5625,18.8750,196.8125,20.3750,-154.4375,0
268.151,9.1554,3.1220,-0.2705,0.6518,0.3568,0.2641,-57.7500,27.3000,32.4000,9.6654,1.5467,0.6201,0.2166,0.0165,0.0354,-54.0000,14.2500,-1.6500,3.3400,3.8200,-8.2200,-0.0164,0.0131,-0.0142,-15.5625,-30.5625,18.8750,196.8125,20.3750,-154.4375,0
268.156,9.1554,3.1220,-0.2705,0.6744,0.3712,0.2761,-57.7500,27.3000,32.4000,9.7013,1.6281,0.5291,0.2166,0.0165,0.0354,-52.9500,11.8500,-3.0000,3.3400,3.8200,-8.2200,-0.0164,0.0131,-0.0142,-15.5625,-30.5625,18.8750,196.8125,20.3750,-154.4375,0
268.162,9.1506,3.0311,-0.2682,0.6744,0.3712,0.2761,-58.0500,30.0000,33.0000,9.7013,1.6281,0.5291,0.1708,0.0226,0.0493,-52.9500,11.8500,-3.0000,3.4100,3.7800,-8.2500,-0.0131,0.0153,-0.0120,-15.5625,-30.5625,18.8750,196.8125,20.3750,-154.4375,0
268.172,9.1506,2.8659,-0.3160,0.6829,0.3549,0.2779,-57.3000,30.0000,33.7500,9.7348,1.7454,0.2921,0.1673,0.0173,0.0490,-52.9500,11.8500,-3.0000,3.3800,3.8300,-8.2000,-0.0087,0.0153,-0.0142,-15.5625,-30.5625,18.8750,196.8125,20.3750,-154.4375,0
268.177,9.2656,2.9592,-0.3543,0.6432,0.3539,0.2819,-58.6500,30.1500,32.8500,9.5457,1.7885,0.3448,0.1993,0.0141,0.0573,-51.6000,14.4000,-3.3000,3.3800,3.8300,-8.2000,-0.0087,0.0175,-0.0153,-15.5625,-30.8750,17.7500,196.8125,20.3750,-154.4375,0
268.183,9.2656,2.9592,-0.3543,0.6432,0.3539,0.2819,-58.6500,30.1500,32.8500,9.5457,1.7885,0.3448,0.1993,0.0141,0.0573,-51.6000,14.4000,-3.3000,3.3900,3.8300,-8.2300,-0.0087,0.0175,-0.0153,-15.5625,-30.8750,17.7500,196.8125,20.3750,-154.4375,0
268.192,9.3278,2.9353,-0.5267,0.5588,0.3211,0.2795,-58.6500,29.7000,33.9000,9.5864,1.5969,0.1772,0.2118,0.0392,0.0544,-52.9500,14.5500,-4.2000,3.3600,3.8800,-8.1900,-0.0055,0.0142,-0.0196,-15.5625,-30.8750,17.7500,196.8125,20.3750,-154.4375,0
268.198,9.2512,2.9281,-0.2729,0.5231,0.3461,0.2617,-58.6500,29.7000,33.9000,9.5361,1.4700,0.1006,0.1775,0.0410,0.0632,-53.2500,14.5500,-1.9500,3.3800,3.8400,-8.2200,-0.0011,0.0131,-0.0207,-15.5625,-30.8750,17.7500,196.7500,20.3750,-154.4375,0
268.203,9.2512,2.9281,-0.2729,0.5231,0.3461,0.2617,-58.6500,29.7000,33.9000,9.5816,1.3767,0.0000,0.1775,0.0410,0.0632,-53.2500,14.5500,-1.9500,3.3800,3.8400,-8.2200,-0.0011,0.0131,-0.0207,-15.5625,-30.8750,17.7500,196.7500,20.3750,-154.4375,0
268.212,9.5792,3.0215,-0.5674,0.4495,0.3331,0.2316,-58.6500,29.7000,33.9000,9.5816,1.3767,0.0000,0.1599,0.0472,0.0794,-53.2500,14.5500,-3.0000,3.3500,3.8500,-8.2000,0.0033,0.0109,-0.0218,-15.5625,-30.8750,17.7500,196.7500,20.3750,-154.4375,0
268.220,9.3925,2.7414,-0.8116,0.3552,0.2854,0.2137,-58.8000,30.0000,32.7000,9.5289,1.6065,0.1269,0.1330,0.0416,0.0802,-54.4500,15.0000,-3.0000,3.3500,3.9000,-8.1500,0.0109,0.0087,-0.0175,-15.5625,-30.8750,17.7500,196.7500,20.3750,-154.4375,0
268.224,9.3541,2.7318,-0.6752,0.3352,0.3035,0.2022,-59.1000,30.0000,33.4500,9.5146,1.6807,0.1580,0.1426,0.0504,0.0770,-54.4500,15.0000,-3.0000,3.3500,3.9000,-8.1500,0.0109,0.0087,-0.0175,-15.5625,-30.8750,17.7500,196.7500,20.3750,-154.4375,0
268.229,9.3541,2.7318,-0.6752,0.3352,0.3035,0.2022,-59.1000,30.0000,33.4500,9.5146,1.6807,0.1580,0.1426,0.0504,0.0770,-53.7000,14.2500,-1.6500,3.3500,3.8800,-8.1600,0.0185,0.0076,-0.0175,-15.5625,-31.2500,18.0625,196.7500,20.3750,-154.4375,0
268.234,9.4499,2.6600,-0.5818,0.3341,0.2910,0.1823,-58.3500,30.0000,33.4500,9.5529,1.6688,0.3400,0.1743,0.0528,0.0959,-53.7000,14.2500,-1.6500,3.3500,3.8800,-8.1600,0.0185,0.0076,-0.0175,-15.5625,-31.2500,18.0625,196.7500,20.3750,-154.4375,0
268.242,9.4499,2.6600,-0.5818,0.3341,0.2910,0.1823,-58.3500,30.0000,33.4500,9.6271,1.4030,0.5076,0.1743,0.0528,0.0959,-53.7000,14.2500,-1.6500,3.3600,3.9000,-8.1700,0.0240,0.0055,-0.0175,-15.5625,-31.2500,18.0625,196.7500,20.3750,-154.4375,0
268.249,9.3685,2.4804,-0.6967,0.2867,0.2537,0.1809,-57.7500,29.2500,34.5000,9.6271,1.4030,0.5076,0.1937,0.0461,0.0909,-53.7000,15.0000,-3.0000,3.3700,3.9500,-8.2100,0.0305,0.0033,-0.0196,-15.5625,-31.2500,18.0625,196.6875,20.3750,-154.4375,0
268.254,9.2512,2.4157,-0.4597,0.2302,0.2539,0.1807,-57.7500,29.2500,34.5000,9.6079,1.1540,0.5794,0.1873,0.0394,0.0983,-53.7000,15.0000,-3.0000,3.3700,3.9500,-8.2100,0.0305,0.0033,-0.0196,-15.5625,-31.2500,18.0625,196.6875,20.3750,-154.5000,0
268.262,9.1746,2.3942,-0.1939,0.2385,0.2124,0.1908,-57.7500,29.2500,34.5000,9.6223,1.1540,0.3903,0.1239,0.0338,0.1074,-53.7000,15.0000,-3.0000,3.3600,3.8700,-8.1900,0.0360,-0.0044,-0.0207,-15.5625,-31.2500,18.0625,196.6875,20.3750,-154.5000,0
268.269,9.1746,2.3942,-0.1939,0.2385,0.2124,0.1908,-59.1000,31.5000,35.2500,9.6223,1.1540,0.3903,0.1239,0.0338,0.1074,-52.5000,14.2500,-3.4500,3.3500,3.7600,-8.3000,0.0469,-0.0087,-0.0218,-15.5625,-31.2500,18.0625,196.6875,20.3125,-154.5000,0
268.274,9.4379,2.5738,-0.4501,0.2158,0.3344,0.2105,-59.5500,31.5000,32.4000,9.7324,1.2977,0.3256,0.1284,0.0309,0.1124,-52.5000,14.2500,-3.4500,3.3500,3.7600,-8.3000,0.0469,-0.0087,-0.0218,-15.5625,-31.2500,18.0625,196.6875,20.3125,-154.5000,0
268.278,9.4379,2.5738,-0.4501,0.2158,0.3344,0.2105,-59.5500,31.5000,32.4000,9.7324,1.2977,0.3256,0.1284,0.0309,0.1124,-52.9500,14.5500,-3.4500,3.3500,3.7600,-8.3000,0.0480,-0.0065,-0.0207,-15.5625,-31.5625,18.8750,196.6875,20.3125,-154.5000,0
268.283,9.5313,2.9257,-0.5124,0.1793,0.1897,0.2182,-58.9500,30.1500,32.8500,9.5864,1.4724,0.4980,0.1172,0.0397,0.1090,-52.9500,14.5500,-3.4500,3.3600,3.7900,-8.2600,0.0480,-0.0065,-0.0207,-15.5625,-31.5625,18.8750,196.6875,20.3125,-154.5000,0
268.288,9.5313,2.9257,-0.5124,0.1793,0.1897,0.2182,-58.9500,30.1500,32.8500,9.5864,1.4724,0.4980,0.1172,0.0397,0.1090,-53.7000,14.2500,-4.5000,3.3600,3.7900,-8.2600,0.0480,-0.0011,-0.0185,-15.5625,-31.5625,18.8750,196.6250,20.3125,-154.5625,0
268.293,9.3278,3.1077,-0.3208,0.1767,0.2433,0.2124,-59.5500,31.5000,33.0000,9.5577,1.8004,0.2466,0.1282,0.0336,0.1175,-53.7000,14.2500,-4.5000,3.3500,3.8400,-8.2400,0.0480,-0.0011,-0.0185,-15.5625,-31.5625,18.8750,196.6250,20.3125,-154.5625,0
268.298,9.3278,3.1077,-0.3208,0.1767,0.2433,0.2124,-59.5500,31.5000,33.0000,9.5577,1.8004,0.2466,0.1282,0.0336,0.1175,-55.5000,14.2500,-3.0000,3.3500,3.8900,-8.2200,0.0491,0.0022,-0.0196,-15.5625,-31.5625,18.8750,196.6250,20.3125,-154.5625,0
268.303,9.3925,3.4213,-0.0431,0.2675,0.3272,0.1871,-59.5500,31.5000,33.0000,9.5912,1.9872,0.3160,0.2342,0.0376,0.1236,-55.5000,14.2500,-3.0000,3.3500,3.8900,-8.2200,0.0491,0.0022,-0.0196,-15.5625,-31.5625,18.8750,196.6250,20.3125,-154.5625,0
268.312,9.4619,3.3998,0.2107,0.3091,0.2907,0.1647,-59.5500,31.5000,33.0000,9.5960,2.0255,0.6440,0.3544,0.0549,0.1228,-52.6500,15.1500,-3.6000,3.2900,3.9800,-8.1900,0.0535,0.0087,-0.0185,-15.5625,-31.5625,18.8750,196.6250,20.3125,-154.5625,0
268.318,9.4619,3.3998,0.2107,0.3091,0.2907,0.1647,-59.5500,31.5000,33.0000,9.5960,2.0255,0.6440,0.3544,0.0549,0.1228,-52.5000,14.5500,-4.2000,3.2900,3.9800,-8.1900,0.0676,0.0065,-0.0207,-15.5625,-31.5625,18.8750,196.6250,20.3125,-154.6250,0
268.323,9.2751,3.3088,0.5315,0.3555,0.2851,0.1537,-59.1000,31.5000,34.5000,9.6630,1.7717,0.7470,0.4367,0.0317,0.1290,-52.5000,14.5500,-4.2000,3.3500,4.0500,-8.1400,0.0676,0.0065,-0.0207,-15.5625,-31.5625,18.8750,196.6250,20.3125,-154.6250,0
268.328,9.2751,3.3088,0.5315,0.3555,0.2851,0.1537,-59.1000,31.5000,34.5000,9.6462,1.5179,0.6584,0.4367,0.0317,0.1290,-52.5000,14.5500,-4.2000,3.3200,4.0300,-8.1600,0.0862,0.0022,-0.0229,-15.5625,-32.0000,18.8750,196.5625,20.3125,-154.6875,0
268.333,9.2560,3.0789,0.5578,0.4578,0.3043,0.1442,-58.9500,30.9000,34.3500,9.6462,1.5179,0.6584,0.4588,0.0317,0.1367,-52.5000,14.5500,-4.2000,3.3200,4.0300,-8.1600,0.0862,0.0022,-0.0229,-15.5625,-32.0000,18.8750,196.5625,20.3125,-154.6875,0
268.338,9.2560,3.0789,0.5578,0.4578,0.3043,0.1442,-58.9500,30.9000,34.3500,9.6917,1.2761,0.6273,0.4588,0.0317,0.1367,-53.4000,13.2000,-4.0500,3.3200,4.0300,-8.1600,0.1025,0.0011,-0.0229,-15.5625,-32.0000,18.8750,196.5625,20.3125,-154.6875,0
268.343,9.3805,3.1029,0.6608,0.6089,0.2950,0.1561,-57.3000,31.5000,35.2500,9.6917,1.2761,0.6273,0.4533,0.0320,0.1532,-53.4000,13.2000,-4.0500,3.4000,3.9000,-8.2500,0.1025,0.0011,-0.0229,-15.5625,-32.0000,18.8750,196.5625,20.3125,-154.6875,0
268.348,9.3805,3.1029,0.6608,0.6089,0.2950,0.1561,-57.3000,31.5000,35.2500,9.6486,1.3431,0.9002,0.4533,0.0320,0.1532,-53.4000,13.2000,-4.0500,3.4000,3.9000,-8.2500,0.1113,0.0022,-0.0273,-15.5625,-32.0000,18.8750,196.5000,20.3125,-154.7500,0
268.353,9.3757,3.0765,0.6776,0.7560,0.3158,0.1665,-57.0000,31.0500,34.5000,9.6486,1.3431,0.9002,0.4687,0.0272,0.1556,-53.4000,13.2000,-4.0500,3.3500,3.9200,-8.2500,0.1113,0.0022,-0.0273,-15.5625,-32.0000,18.8750,196.5000,20.3125,-154.7500,0
268.362,9.6726,2.9185,0.6943,0.8636,0.3325,0.1937,-57.0000,31.0500,34.5000,9.7444,1.3408,1.1756,0.5009,0.0099,0.1623,-54.0000,13.0500,-4.2000,3.3200,3.9900,-8.2400,0.1244,-0.0022,-0.0273,-15.5625,-32.0000,18.8750,196.5000,20.3125,-154.8125,0
268.367,9.6726,2.9185,0.6943,0.8636,0.3325,0.1937,-57.0000,31.0500,34.5000,9.7779,1.1971,1.3886,0.5009,0.0099,0.1623,-53.4000,14.8500,-4.0500,3.3200,3.9900,-8.2400,0.1287,-0.0011,-0.0262,-15.5625,-32.0000,18.8750,196.4375,20.3125,-154.8750,0
268.373,9.4475,2.6528,0.8595,0.9705,0.3006,0.2116,-57.3000,31.8000,35.5500,9.7779,1.1971,1.3886,0.5404,-0.0112,0.1556,-53.4000,14.8500,-4.0500,3.3800,3.8800,-8.2300,0.1287,-0.0011,-0.0262,-15.5625,-32.0000,18.8750,196.4375,20.3125,-154.8750,0
268.378,9.4475,2.6528,0.8595,1.0560,0.3112,0.2326,-57.3000,31.8000,35.5500,9.8378,1.0870,1.2737,0.5095,-0.0346,0.1697,-53.1000,13.6500,-4.8000,3.3800,3.8800,-8.2300,0.1287,-0.0011,-0.0262,-15.5625,-32.0000,18.8750,196.4375,20.2500,-154.9375,0
268.383,9.3374,2.5283,0.9098,1.0560,0.3112,0.2326,-57.9000,31.6500,36.4500,9.8378,1.0870,1.2737,0.5095,-0.0346,0.1697,-53.1000,13.6500,-4.8000,3.4000,3.8100,-8.2600,0.1265,0.0000,-0.0284,-15.2500,-31.5625,18.0625,196.4375,20.2500,-154.9375,0
268.388,9.4332,2.5594,0.8452,1.1282,0.3078,0.2595,-57.9000,31.6500,36.4500,9.8641,1.0918,1.1516,0.5068,-0.0493,0.1788,-53.1000,13.9500,-4.0500,3.4000,3.8100,-8.2600,0.1265,0.0000,-0.0284,-15.2500,-31.5625,18.0625,196.3750,20.2500,-155.0000,0
268.393,9.4332,2.5594,0.8452,1.1282,0.3078,0.2595,-57.1500,31.2000,34.9500,9.8641,1.0918,1.1516,0.5068,-0.0493,0.1788,-53.1000,13.9500,-4.0500,3.4100,3.6500,-8.3100,0.1167,0.0044,-0.0316,-15.2500,-31.5625,18.0625,196.3750,20.2500,-155.0000,0
268.398,9.5170,2.3798,0.7326,1.1703,0.2990,0.2854,-57.1500,31.2000,34.9500,9.7755,1.3264,0.9433,0.5524,-0.0576,0.1769,-54.0000,15.0000,-3.4500,3.4100,3.6500,-8.3100,0.1080,0.0142,-0.0393,-15.2500,-31.5625,18.0625,196.3750,20.2500,-155.0625,0
268.403,9.5170,2.3798,0.7326,1.1703,0.2990,0.2854,-57.4500,31.6500,34.3500,9.7755,1.3264,0.9433,0.5524,-0.0576,0.1769,-54.0000,15.0000,-3.4500,3.3600,3.7700,-8.3400,0.1080,0.0142,-0.0393,-15.2500,-31.5625,18.0625,196.3750,20.2500,-155.0625,0
268.412,9.4763,2.3367,0.7805,1.2161,0.3160,0.3131,-58.9500,31.2000,33.9000,9.6989,1.4198,0.6919,0.5748,-0.0706,0.1721,-53.1000,15.1500,-5.1000,3.3600,3.7700,-8.3500,0.1036,0.0175,-0.0415,-15.2500,-31.5625,18.0625,196.3125,20.2500,-155.1250,0
268.417,9.5696,2.2841,0.9601,1.2713,0.2886,0.3072,-58.9500,31.2000,33.9000,9.6462,1.5347,0.7590,0.7008,-0.0597,0.1801,-53.1000,15.1500,-5.1000,3.3600,3.7700,-8.3500,0.0982,0.0229,-0.0458,-15.2500,-31.5625,18.0625,196.3125,20.2500,-155.1875,0
268.423,9.5696,2.2841,0.9601,1.2713,0.2886,0.3072,-58.9500,31.2000,33.9000,9.6462,1.5347,0.7590,0.7008,-0.0597,0.1801,-53.1000,15.1500,-5.1000,3.3500,3.7000,-8.3300,0.0982,0.0229,-0.0458,-15.2500,-31.5625,18.0625,196.3125,20.2500,-155.1875,0
268.428,9.6295,1.9058,0.5195,1.2774,0.2465,0.2848,-58.9500,31.2000,33.9000,9.7133,1.4150,0.7254,0.7727,-0.0933,0.1823,-54.6000,12.4500,-5.5500,3.3500,3.7000,-8.3300,0.0971,0.0273,-0.0491,-16.0000,-31.5625,18.8750,196.2500,20.2500,-155.1875,0
268.433,9.6295,1.9058,0.5195,1.2774,0.2465,0.2848,-58.2000,31.6500,34.3500,9.7133,1.4150,0.7254,0.7727,-0.0933,0.1823,-54.6000,12.4500,-5.5500,3.3000,3.9500,-8.3000,0.0971,0.0273,-0.0491,-16.0000,-31.5625,18.8750,196.2500,20.2500,-155.1875,0
268.438,9.4547,1.7526,0.3974,1.2537,0.3408,0.2665,-58.2000,31.6500,34.3500,9.6606,1.1899,0.4812,0.8095,-0.0885,0.1807,-54.0000,12.3000,-5.2500,3.3000,3.9500,-8.3000,0.0971,0.0273,-0.0491,-16.0000,-31.5625,18.8750,196.1875,20.2500,-155.2500,0
268.443,9.4547,1.7526,0.3974,1.2537,0.3408,0.2665,-57.9000,32.7000,34.3500,9.6606,1.1899,0.4812,0.8095,-0.0885,0.1807,-54.0000,12.3000,-5.2500,3.3700,3.8700,-8.2700,0.1014,0.0251,-0.0556,-16.0000,-31.5625,18.8750,196.1875,20.2500,-155.2500,0
268.448,9.6606,1.9130,0.2227,1.2998,0.3147,0.2513,-57.9000,32.7000,34.3500,9.6965,1.0319,0.3567,0.8561,-0.0898,0.1841,-54.0000,14.5500,-5.7000,3.3700,3.8700,-8.2700,0.1014,0.0295,-0.0654,-16.0000,-31.5625,18.8750,196.1875,20.2500,-155.3125,0
268.453,9.6606,1.9130,0.2227,1.2998,0.3147,0.2513,-58.3500,31.5000,34.5000,9.7348,1.0918,0.4788,0.8561,-0.0898,0.1841,-54.0000,14.5500,-5.7000,3.3500,3.8500,-8.2900,0.1014,0.0295,-0.0654,-16.0000,-31.5625,18.8750,196.1875,20.2500,-155.3125,0
268.462,9.7636,1.9609,0.2442,1.3392,0.2888,0.2446,-58.2000,32.4000,34.6500,9.7348,1.0918,0.4788,0.9406,-0.1039,0.1897,-54.4500,13.5000,-5.7000,3.3300,3.8500,-8.3000,0.0927,0.0382,-0.0720,-16.0000,-31.5625,18.8750,196.1250,20.2500,-155.3125,0
268.467,9.9551,1.8938,0.2610,1.3259,0.2755,0.2369,-58.2000,32.4000,34.6500,9.7492,0.9242,0.6249,1.0296,-0.0919,0.1889,-55.0500,13.9500,-5.8500,3.3300,3.8500,-8.3000,0.0873,0.0535,-0.0829,-16.0000,-31.5625,18.8750,196.0625,20.2500,-155.3750,0
268.473,9.9551,1.8938,0.2610,1.3259,0.2755,0.2369,-58.2000,32.4000,34.6500,9.8737,0.9050,1.1444,1.0802,-0.1053,0.1911,-55.0500,13.9500,-5.8500,3.3200,3.7500,-8.3200,0.0873,0.0535,-0.0829,-16.0000,-31.5625,18.8750,196.0625,20.2500,-155.3750,0
268.478,9.9288,1.6328,0.4238,1.2937,0.2526,0.2292,-58.2000,32.4000,34.6500,9.8737,0.9050,1.1444,1.0802,-0.1053,0.1911,-54.1500,13.6500,-5.8500,3.3600,3.6400,-8.4000,0.0818,0.0589,-0.0916,-15.2500,-31.5625,17.2500,196.0000,20.3125,-155.3750,0
268.483,9.9288,1.6328,0.4238,1.2937,0.2526,0.2292,-58.3500,33.0000,34.2000,9.9096,1.1420,1.0271,0.9486,-0.1354,0.2025,-54.1500,13.6500,-5.8500,3.3600,3.6400,-8.4000,0.0818,0.0589,-0.0916,-15.2500,-31.5625,17.2500,196.0000,20.3125,-155.3750,0
268.488,9.7779,1.3575,0.6440,1.2263,0.1327,0.2134,-58.3500,33.0000,34.2000,9.9096,1.1420,1.0271,0.9486,-0.1354,0.2025,-54.1500,13.6500,-5.8500,3.3600,3.6400,-8.4000,0.0545,0.0753,-0.0982,-15.2500,-31.5625,17.2500,195.9375,20.3125,-155.3750,0
268.493,9.7779,1.3575,0.6440,1.2263,0.1327,0.2134,-58.0500,33.0000,33.4500,10.0604,0.9385,0.7901,0.8119,-0.1476,0.2217,-54.1500,13.6500,-5.8500,3.3000,3.5000,-8.4700,0.0545,0.0753,-0.0982,-15.2500,-31.5625,17.2500,195.9375,20.3125,-155.3750,0
268.498,9.7133,1.0415,0.6943,1.0168,0.2022,0.1857,-58.0500,33.0000,33.4500,10.0604,0.9385,0.7901,0.8119,-0.1476,0.2217,-54.4500,13.8000,-6.0000,3.3000,3.5000,-8.4700,0.0022,0.1102,-0.1047,-15.2500,-31.5625,17.2500,195.8125,20.3125,-155.3750,0
268.503,9.7133,1.0415,0.6943,1.0168,0.2022,0.1857,-55.8000,34.8000,34.2000,10.0078,0.5124,0.9673,0.7314,-0.1679,0.2217,-54.4500,13.8000,-6.0000,3.4100,3.3400,-8.6100,0.0022,0.1102,-0.1047,-15.2500,-31.5625,17.2500,195.7500,20.3750,-155.3125,0
268.513,9.6845,0.5938,0.6943,0.8479,0.1639,0.1615,-58.0500,34.0500,33.7500,9.8019,0.2658,1.0223,0.5931,-0.2129,0.2148,-54.4500,13.8000,-6.0000,3.4300,3.9900,-8.2100,-0.0447,0.1287,-0.1113,-15.2500,-31.5625,17.2500,195.7500,20.3750,-155.3125,0
268.523,9.7348,0.0982,0.6488,0.6933,0.2132,0.1585,-58.0500,34.0500,33.4500,9.7181,0.2346,0.8021,0.3997,-0.2385,0.2166,-54.7500,13.5000,-6.4500,3.3800,3.7900,-8.2500,-0.0644,0.1364,-0.1320,-15.2500,-31.5625,17.2500,195.6875,20.4375,-155.2500,0
268.528,9.8881,0.1221,0.4741,0.5345,0.1631,0.1849,-58.0500,34.0500,33.4500,9.7181,0.2346,0.8021,0.3997,-0.2385,0.2166,-54.7500,13.5000,-6.4500,3.3800,3.7900,-8.2500,-0.0644,0.1364,-0.1320,-15.2500,-31.5625,17.2500,195.6250,20.4375,-155.1875,0
268.533,9.8881,0.1221,0.4741,0.4525,0.0754,0.2161,-58.0500,34.0500,33.4500,9.7492,0.4477,0.3974,0.2529,-0.2590,0.2366,-55.0500,12.0000,-6.9000,3.3700,3.5100,-8.3600,-0.0709,0.1331,-0.1353,-14.5000,-32.3750,19.2500,195.6250,20.4375,-155.1875,0
268.538,9.9240,0.3567,0.0575,0.4525,0.0754,0.2161,-58.0500,34.0500,33.4500,9.7492,0.4477,0.3974,0.2529,-0.2590,0.2366,-55.0500,12.0000,-6.9000,3.3700,3.5100,-8.3600,-0.0709,0.1331,-0.1353,-14.5000,-32.3750,19.2500,195.6250,20.4375,-155.1875,0
268.543,9.7564,0.9313,-0.2466,0.3352,0.0245,0.2435,-59.8500,34.8000,33.0000,9.7133,0.8332,-0.1413,0.1769,-0.2721,0.2286,-53.8500,13.2000,-7.6500,3.5100,3.3400,-8.4200,-0.0949,0.1516,-0.1233,-14.5000,-32.3750,19.2500,195.5000,20.5000,-155.1250,0
268.548,9.7564,0.9313,-0.2466,0.3352,0.0245,0.2435,-59.8500,34.8000,33.0000,9.7133,0.8332,-0.1413,0.1769,-0.2721,0.2286,-53.8500,13.2000,-7.6500,3.5100,3.3400,-8.4200,-0.1298,0.1538,-0.1091,-14.5000,-32.3750,19.2500,195.4375,20.5625,-155.0000,0
268.554,9.9958,1.5395,-0.5315,0.3054,-0.0581,0.2478,-59.8500,36.3000,33.0000,9.5696,1.0702,-0.8212,0.1524,-0.2454,0.2081,-55.3500,13.2000,-7.6500,3.4300,3.3800,-8.4100,-0.1298,0.1538,-0.1091,-14.5000,-32.3750,19.2500,195.3750,20.6250,-154.8750,0
268.563,9.3494,2.0686,-0.5626,0.2625,-0.1370,0.2286,-60.0000,37.6500,33.6000,9.6965,1.1779,-1.2354,0.1844,-0.2553,0.2022,-54.1500,11.7000,-8.1000,3.5000,3.3900,-8.4500,-0.1745,0.1593,-0.1036,-14.5000,-32.3750,19.2500,195.3750,20.6250,-154.8750,0
268.573,9.5816,2.5953,-0.7614,0.2321,-0.1170,0.1721,-59.1000,37.8000,33.0000,9.5505,1.2881,-1.2761,0.2148,-0.2366,0.2118,-54.1500,13.6500,-6.9000,3.5100,3.7300,-8.3600,-0.2280,0.1473,-0.0971,-14.5000,-32.3750,19.2500,195.3750,20.6250,-154.6875,0
268.578,9.5816,2.5953,-0.7614,0.2321,-0.1170,0.1721,-59.1000,37.8000,33.0000,9.5505,1.2881,-1.2761,0.2148,-0.2366,0.2118,-54.1500,13.6500,-6.9000,3.5100,3.7300,-8.3600,-0.2280,0.1473,-0.0971,-14.5000,-32.3750,19.2500,195.3750,20.6250,-154.6875,0
268.583,9.5553,2.9113,-1.0104,0.2499,-0.2081,0.0975,-59.1000,37.8000,33.0000,9.4595,1.1660,-1.2665,0.2745,-0.1919,0.2209,-54.1500,13.6500,-6.9000,3.4500,3.8700,-8.2100,-0.2782,0.1516,-0.0916,-15.2500,-31.2500,18.0625,195.3125,20.6875,-154.5000,0
268.588,9.5553,2.9113,-1.0104,0.2499,-0.2081,0.0975,-59.1000,37.8000,33.0000,9.4715,0.9290,-1.2450,0.2745,-0.1919,0.2209,-54.1500,13.6500,-6.9000,3.4500,3.8700,-8.2100,-0.2782,0.1516,-0.0916,-15.2500,-31.2500,18.0625,195.3125,20.6875,-154.5000,0
268.593,9.8019,2.9066,-1.5490,0.2190,-0.2425,0.0410,-59.1000,37.8000,33.0000,9.4715,0.9290,-1.2450,0.2529,-0.1673,0.2262,-56.1000,12.9000,-7.6500,3.4300,3.8900,-8.2500,-0.3022,0.1440,-0.0993,-15.2500,-31.2500,18.0625,195.2500,20.7500,-154.3125,0
268.597,9.8019,2.9066,-1.5490,0.2190,-0.2425,0.0410,-59.1000,37.8000,33.0000,9.5122,0.5124,-1.4557,0.2529,-0.1673,0.2262,-56.1000,12.9000,-7.6500,3.4300,3.8900,-8.2500,-0.3098,0.1451,-0.0927,-15.2500,-31.2500,18.0625,195.2500,20.8125,-154.1250,0
268.604,9.5457,2.9161,-2.2146,0.2531,-0.3104,-0.0141,-61.8000,40.9500,33.6000,9.5122,0.5124,-1.4557,0.1889,-0.1274,0.2284,-56.1000,12.9000,-7.6500,3.4100,3.7800,-8.3600,-0.3098,0.1451,-0.0927,-15.2500,-31.2500,18.0625,195.1875,20.8750,-153.9375,0
268.613,9.4308,2.8778,-2.4205,0.2633,-0.2931,-0.0466,-60.4500,42.1500,33.6000,9.5912,0.4310,-1.4820,0.1308,-0.0770,0.2284,-54.4500,13.8000,-9.7500,3.5500,3.5500,-8.3600,-0.3305,0.1342,-0.0764,-15.2500,-31.2500,18.0625,195.1875,20.8750,-153.6875,0
268.623,9.4332,3.0622,-2.3798,0.2875,-0.3384,-0.0525,-62.1000,43.8000,33.7500,9.6319,0.6153,-1.3599,0.0344,-0.0442,0.2334,-54.1500,13.2000,-7.3500,3.5200,3.5700,-8.4100,-0.3502,0.1244,-0.0698,-15.2500,-31.2500,18.0625,195.1875,20.8750,-153.6875,0
268.628,9.4332,3.0622,-2.3798,0.2875,-0.3384,-0.0525,-62.7000,44.2500,33.7500,9.5337,0.9768,-1.3120,-0.0336,0.0080,0.2457,-54.1500,13.2000,-7.3500,3.5200,3.5700,-8.4100,-0.3502,0.1244,-0.0698,-15.2500,-31.2500,18.0625,195.1875,20.9375,-153.5000,0
268.633,9.1866,3.1436,-2.3296,0.3717,-0.3283,-0.0597,-62.7000,44.2500,33.7500,9.5337,0.9768,-1.3120,-0.0336,0.0080,0.2457,-54.6000,11.7000,-8.4000,3.5900,3.4600,-8.4500,-0.4025,0.1102,-0.0709,-15.2500,-32.0000,18.0625,195.1875,20.9375,-153.5000,0
268.638,9.1866,3.1436,-2.3296,0.3717,-0.3283,-0.0597,-62.7000,44.2500,33.7500,9.7492,1.4365,-1.2785,0.0085,0.0131,0.2529,-54.6000,11.7000,-8.4000,3.5900,3.4600,-8.4500,-0.4025,0.1102,-0.0709,-15.2500,-32.0000,18.0625,195.1875,21.0000,-153.2500,0
268.643,9.7947,3.0239,-2.5570,0.3240,-0.3115,-0.0893,-62.7000,44.2500,33.7500,9.7492,1.4365,-1.2785,0.0085,0.0131,0.2529,-53.7000,13.0500,-9.0000,3.5800,3.6500,-8.3100,-0.4887,0.1102,-0.0796,-15.2500,-32.0000,18.0625,195.1875,21.0000,-153.2500,0
268.648,9.7947,3.0239,-2.5570,0.3240,-0.3115,-0.0893,-63.0000,46.6500,33.6000,9.6031,1.6735,-1.0942,-0.0181,0.1055,0.2715,-53.7000,13.0500,-9.0000,3.5800,3.6500,-8.3100,-0.5683,0.1058,-0.0873,-15.2500,-32.0000,18.0625,195.1875,21.0000,-152.9375,0
268.654,9.8354,2.6863,-2.6432,0.3704,-0.3517,-0.1474,-63.0000,46.6500,33.6000,9.6031,1.6735,-1.0942,-0.0181,0.1055,0.2715,-54.4500,12.6000,-7.2000,3.5100,3.7500,-8.1500,-0.5683,0.1058,-0.0873,-15.2500,-32.0000,18.0625,195.1875,21.0000,-152.9375,0
268.662,9.6438,2.8994,-2.2218,0.2009,-0.3768,-0.1833,-62.1000,45.3000,34.2000,9.6750,1.6017,-1.1851,0.0600,0.1495,0.2862,-55.0500,13.2000,-8.4000,3.4700,4.0300,-8.0900,-0.5890,0.1374,-0.0993,-15.2500,-32.0000,18.0625,195.1875,21.0625,-152.6250,0
268.667,9.6438,2.8994,-2.2218,0.2009,-0.3768,-0.1833,-62.2500,45.1500,33.3000,9.7420,1.6688,-0.9577,0.1255,0.1828,0.2979,-55.0500,13.2000,-8.4000,3.4700,4.0300,-8.0900,-0.5890,0.1374,-0.0993,-15.2500,-32.0000,18.0625,195.1875,21.1250,-152.2500,0
268.674,9.5553,2.9592,-1.9896,0.0426,-0.3741,-0.1974,-62.2500,45.1500,33.3000,9.7420,1.6688,-0.9577,0.1255,0.1828,0.2979,-55.0500,13.2000,-8.4000,3.3700,4.5200,-7.8600,-0.5781,0.1604,-0.1091,-15.2500,-32.0000,18.0625,195.1875,21.1250,-152.2500,0
268.679,9.7851,2.8108,-2.0375,-0.1156,-0.3616,-0.2009,-62.7000,45.3000,32.4000,9.7396,1.6544,-0.6464,0.2116,0.2041,0.3048,-55.0500,13.2000,-8.4000,3.3700,4.5200,-7.8600,-0.5105,0.1713,-0.1265,-15.5625,-32.0000,17.2500,195.1250,21.1875,-151.9375,0
268.684,9.7851,2.8108,-2.0375,-0.1156,-0.3616,-0.2009,-62.7000,45.3000,32.4000,9.7995,1.6448,-0.2610,0.2116,0.2041,0.3048,-53.8500,12.9000,-8.1000,3.5200,4.6000,-7.9900,-0.5105,0.1713,-0.1265,-15.5625,-32.0000,17.2500,195.1250,21.1875,-151.9375,0
268.688,9.7492,2.5618,-1.9178,-0.2182,-0.4210,-0.1974,-60.6000,46.0500,32.4000,9.7995,1.6448,-0.2610,0.3080,0.2108,0.3051,-53.8500,12.9000,-8.1000,3.5200,4.6000,-7.9900,-0.3971,0.1724,-0.1538,-15.5625,-32.0000,17.2500,195.0625,21.1875,-151.6875,0
268.693,9.7492,2.5618,-1.9178,-0.2182,-0.4210,-0.1974,-60.6000,46.0500,32.4000,9.9335,1.5490,-0.1221,0.3080,0.2108,0.3051,-53.8500,12.9000,-8.1000,3.6500,5.0600,-7.8800,-0.3971,0.1724,-0.1538,-15.5625,-32.0000,17.2500,195.0625,21.1875,-151.6875,0
268.698,9.4595,2.5618,-1.2426,-0.2971,-0.4415,-0.1665,-60.6000,46.0500,32.4000,9.9335,1.5490,-0.1221,0.4431,0.2076,0.2894,-53.8500,12.9000,-8.1000,3.6500,5.0600,-7.8800,-0.2716,0.1364,-0.2149,-15.5625,-32.0000,17.2500,195.0000,21.1875,-151.5000,0
268.704,9.4595,2.5618,-1.2426,-0.2971,-0.4415,-0.1665,-60.6000,46.0500,32.4000,9.6055,1.3575,0.6369,0.4740,0.1833,0.2864,-55.9500,11.8500,-8.7000,3.3100,6.3900,-7.6800,-0.2716,0.1364,-0.2149,-15.5625,-32.0000,17.2500,194.8125,21.1875,-151.3125,0
268.713,9.0692,2.4469,-0.8930,-0.3392,-0.3874,-0.1609,-60.6000,46.5000,31.6500,9.7324,1.0678,0.6416,0.4740,0.1833,0.2864,-55.2000,11.8500,-7.5000,2.9800,3.6900,-8.2100,-0.1745,0.1614,-0.3131,-15.5625,-32.0000,17.2500,194.8125,21.1875,-151.3125,0
268.723,8.8705,2.3942,-0.8428,-0.2196,-0.2025,-0.1404,-62.4000,47.5500,32.4000,9.6486,0.8092,0.6752,0.5585,0.2348,0.3152,-54.4500,11.4000,-7.9500,3.6400,4.4100,-7.8900,-0.0545,0.1931,-0.3142,-15.5625,-32.0000,17.2500,194.6250,21.2500,-151.1875,0
268.728,8.6646,2.5762,-0.8595,-0.0541,0.0653,-0.1085,-61.6500,46.0500,33.4500,9.6486,0.8092,0.6752,0.5705,0.2638,0.3206,-54.4500,11.4000,-7.9500,3.6400,4.4100,-7.8900,-0.0545,0.1931,-0.3142,-15.5625,-32.0000,17.2500,194.6250,21.2500,-151.1875,0
268.733,8.6646,2.5762,-0.8595,-0.0541,0.0653,-0.1085,-61.6500,46.0500,33.4500,9.5481,0.5483,0.5986,0.5777,0.2950,0.3243,-55.0500,10.5000,-7.3500,4.2300,4.2400,-8.1600,-0.0360,0.2182,-0.3894,-15.2500,-32.3750,16.5625,194.3750,21.2500,-151.0625,0
268.738,9.2273,3.0598,-0.9625,0.1183,0.1279,-0.0719,-60.6000,48.3000,32.4000,9.5481,0.5483,0.5986,0.5777,0.2950,0.3243,-55.0500,10.5000,-7.3500,4.2300,4.2400,-8.1600,-0.0360,0.2182,-0.3894,-15.2500,-32.3750,16.5625,194.3750,21.2500,-151.0625,0
268.743,9.2273,3.0598,-0.9625,0.1183,0.1279,-0.0719,-60.6000,48.3000,32.4000,9.5505,0.7829,0.3160,0.4868,0.3176,0.3352,-54.6000,11.7000,-6.9000,4.1600,3.1900,-8.1400,0.0207,0.1549,-0.5072,-15.2500,-32.3750,16.5625,194.0625,21.1875,-151.0000,0
268.748,9.2057,3.4860,-0.9385,0.3206,0.0274,-0.0322,-60.6000,48.3000,32.4000,9.5505,0.7829,0.3160,0.4868,0.3176,0.3352,-54.6000,11.7000,-6.9000,4.1600,3.1900,-8.1400,0.0764,0.0469,-0.5618,-15.2500,-32.3750,16.5625,193.7500,21.0625,-150.9375,0
268.754,9.2057,3.4860,-0.9385,0.3206,0.0274,-0.0322,-60.6000,48.3000,32.4000,10.0197,0.6728,0.0287,0.4175,0.3022,0.3392,-55.8000,10.9500,-8.1000,3.8600,3.4900,-8.1000,0.0764,0.0469,-0.5618,-15.2500,-32.3750,16.5625,193.3750,20.8750,-150.8750,0
268.763,9.2536,3.8810,-0.6871,0.5180,0.0205,0.0040,-59.7000,46.6500,32.1000,9.8569,1.1301,-0.2753,0.4826,0.2936,0.3317,-55.8000,10.9500,-8.1000,4.5900,5.8500,-9.4700,0.1549,-0.0033,-0.6240,-15.2500,-32.3750,16.5625,193.3750,20.8750,-150.8750,0
268.773,9.4427,3.8403,-0.7853,0.7056,-0.0080,0.0155,-60.0000,46.6500,32.5500,9.7372,1.2857,-0.1556,0.5542,0.3248,0.3230,-55.0500,10.5000,-8.8500,3.7000,3.5500,-8.3200,0.3109,-0.1396,-0.6709,-15.2500,-32.3750,16.5625,193.0000,20.6250,-150.9375,0
268.778,9.4427,3.5769,-1.0271,0.8799,-0.0112,0.0005,-60.0000,45.9000,31.8000,9.7372,1.2857,-0.1556,0.5542,0.3248,0.3230,-55.0500,10.5000,-8.8500,3.7000,3.5500,-8.3200,0.3109,-0.1396,-0.6709,-15.2500,-32.3750,16.5625,193.0000,20.6250,-150.9375,0
268.783,9.4427,3.5769,-1.0271,0.8799,-0.0112,0.0005,-60.0000,45.9000,31.8000,9.5840,1.6041,0.3280,0.6177,0.3651,0.3142,-55.0500,10.5000,-8.8500,4.2200,4.5600,-8.0900,0.3022,-0.1756,-0.6360,-14.5000,-32.7500,15.7500,192.5625,20.3750,-151.0000,0
268.788,9.5433,3.2681,-1.8004,1.0099,-0.0213,-0.0221,-59.5500,46.0500,30.6000,9.5840,1.6041,0.3280,0.6177,0.3651,0.3142,-55.0500,10.5000,-8.8500,4.2200,4.5600,-8.0900,0.3022,-0.1756,-0.6360,-14.5000,-32.7500,15.7500,192.5625,20.3750,-151.0000,0
268.793,9.5433,3.2681,-1.8004,1.0099,-0.0213,-0.0221,-59.5500,46.0500,30.6000,7.8817,5.7126,-1.7502,0.1628,0.7847,0.2689,-54.0000,11.4000,-8.2500,4.3700,5.3900,-8.5800,0.3796,-0.1200,-0.5694,-14.5000,-32.7500,15.7500,192.2500,20.1250,-151.1250,0
268.798,10.6470,3.0143,-1.4365,1.1501,-0.0224,-0.0200,-61.6500,46.5000,30.9000,7.8817,5.7126,-1.7502,0.1628,0.7847,0.2689,-54.0000,11.4000,-8.2500,4.3700,5.3900,-8.5800,0.5498,-0.0654,-0.7559,-14.5000,-32.7500,15.7500,191.8125,19.9375,-151.3125,0
268.804,10.4076,3.6129,-0.8308,1.2135,-0.0056,-0.0013,-61.6500,46.5000,30.9000,10.6350,8.0685,-4.1372,-0.0504,0.4431,0.1713,-56.2500,12.3000,-9.0000,7.1300,9.1100,-1.3800,0.5498,-0.0654,-0.7559,-14.5000,-32.7500,15.7500,189.4375,20.1875,-150.6875,0
268.813,8.5856,3.7972,-0.0024,1.0754,0.1937,-0.1498,-61.6500,46.5000,30.9000,12.3828,9.7276,-3.9504,1.1807,0.3656,0.3179,-55.0500,12.9000,-8.4000,4.6100,22.7400,-2.0300,0.4843,2.5569,-3.5517,-14.5000,-32.7500,15.7500,189.4375,20.1875,-150.6875,0
268.823,7.4915,4.6950,0.2227,1.0760,0.5524,-0.2952,-61.5000,46.2000,28.6500,10.4004,13.6996,-1.2929,2.7795,0.4199,0.2478,-55.8000,12.0000,-10.3500,-5.3600,20.1100,13.3300,0.7352,0.9163,-6.0170,-14.5000,-32.7500,15.7500,185.8750,19.0000,-150.0000,0
268.828,7.4915,4.6950,0.2227,1.0760,0.5524,-0.2952,-61.8000,46.6500,31.0500,7.9416,12.0404,0.3208,2.7795,0.4199,0.2478,-55.8000,12.0000,-10.3500,-5.3600,20.1100,13.3300,0.7352,0.9163,-6.0170,-14.5000,-32.7500,15.7500,182.0625,19.2500,-149.8750,0
268.833,7.1443,6.2848,-0.0670,1.2476,0.8985,-0.4306,-61.8000,46.6500,31.0500,7.9416,12.0404,0.3208,5.0561,0.5798,0.2598,-55.9500,10.3500,-10.0500,-4.0800,15.8900,-1.8100,2.1588,3.7765,-5.5054,-13.3750,-32.7500,16.5625,182.0625,19.2500,-149.8750,0
268.838,7.1443,6.2848,-0.0670,1.2476,0.8985,-0.4306,-61.2000,44.7000,28.9500,7.4460,6.3901,2.6839,7.6589,0.6747,0.3128,-55.9500,10.3500,-10.0500,-4.0800,15.8900,-1.8100,2.1588,3.7765,-5.5054,-13.3750,-32.7500,16.5625,177.1875,20.0000,-149.8750,0
268.843,6.3327,8.3749,0.0263,1.3704,1.0946,-0.5324,-61.3500,45.3000,28.9500,7.4460,6.3901,2.6839,7.6589,0.6747,0.3128,-55.9500,12.3000,-11.2500,11.1200,3.2500,-6.5800,2.9900,5.4760,-6.7522,-13.3750,-32.7500,16.5625,177.1875,20.0000,-149.8750,0
268.850,6.3327,8.3749,0.0263,1.3704,1.0946,-0.5324,-61.3500,45.3000,28.8000,8.0565,4.6471,1.1995,8.1612,0.6885,0.2782,-55.9500,12.3000,-11.2500,4.4100,0.2200,-4.8100,2.6824,3.8932,-7.5955,-13.3750,-32.7500,16.5625,172.1875,19.7500,-149.6250,0
268.855,6.4739,9.3182,0.0790,1.6526,1.2721,-0.6118,-61.3500,45.3000,28.8000,8.0565,4.6471,1.1995,8.1612,0.6885,0.2782,-55.9500,12.3000,-11.2500,4.4100,0.2200,-4.8100,2.6824,3.8932,-7.5955,-13.3750,-32.7500,16.5625,167.5000,19.3125,-149.0625,0
268.864,7.0749,9.1315,0.7470,2.2572,1.1943,-0.6747,-61.3500,45.3000,28.8000,9.5984,0.6033,1.9417,8.3022,0.6704,0.2196,-55.9500,10.6500,-12.7500,4.2700,-0.2100,-6.4900,1.7846,3.3390,-7.2388,-13.3750,-32.7500,16.5625,163.3125,18.9375,-148.1250,0
268.873,7.6710,7.3047,0.7350,3.0110,1.2375,-0.6608,-59.5500,42.3000,27.3000,9.7683,-3.0382,1.7238,7.7642,0.6286,0.1903,-55.9500,10.6500,-12.7500,4.6700,0.6800,-8.4200,0.8988,3.2005,-6.4981,-13.3750,-32.7500,16.5625,163.3125,18.9375,-148.1250,0
268.878,7.6710,7.3047,0.7350,3.0110,1.2375,-0.6608,-59.5500,42.3000,27.3000,9.1339,-6.2201,1.2474,6.4396,0.6038,0.1335,-55.9500,10.6500,-12.7500,4.6700,0.6800,-8.4200,0.8988,3.2005,-6.4981,-13.3750,-32.7500,16.5625,163.3125,18.9375,-148.1250,0
268.883,8.8562,5.2098,0.2801,3.7966,1.2494,-0.5931,-59.1000,39.0000,26.7000,9.1339,-6.2201,1.2474,6.4396,0.6038,0.1335,-54.6000,5.4000,-13.2000,6.5400,1.0300,-9.1500,0.5574,3.0303,-5.5763,-6.0625,-34.5625,17.7500,159.6875,18.7500,-147.2500,0
268.888,8.8562,5.2098,0.2801,3.7966,1.2494,-0.5931,-59.1000,39.0000,26.7000,8.8226,-6.8666,0.2346,4.6535,0.5215,0.1077,-54.6000,5.4000,-13.2000,6.5400,1.0300,-9.1500,0.5574,3.0303,-5.5763,-6.0625,-34.5625,17.7500,159.6875,18.7500,-147.2500,0
268.893,9.8713,3.2777,-0.8547,4.3905,1.1642,-0.5673,-57.1500,37.9500,24.7500,8.8226,-6.8666,0.2346,4.6535,0.5215,0.1077,-56.1000,6.6000,-14.4000,5.8100,2.2400,-9.1500,0.5411,2.6387,-4.7833,-6.0625,-34.5625,17.7500,156.5625,18.5000,-146.5625,0
268.898,9.8713,3.2777,-0.8547,4.3905,1.1642,-0.5673,-57.1500,37.9500,24.7500,8.8777,-4.9584,-0.3591,3.0403,0.4207,0.0533,-56.1000,6.6000,-14.4000,5.8100,2.2400,-9.1500,0.6741,2.4282,-4.1332,-6.0625,-34.5625,17.7500,153.8125,18.3750,-146.0625,0
268.904,11.4060,1.8364,-1.6520,4.6759,0.6718,-0.5961,-56.4000,36.4500,26.4000,8.8777,-4.9584,-0.3591,3.0403,0.4207,0.0533,-55.8000,7.8000,-16.2000,5.1900,2.6000,-9.0400,0.6741,2.4282,-4.1332,-6.0625,-34.5625,17.7500,151.3750,18.2500,-145.6875,0
268.914,10.6805,1.3288,-3.1987,4.8198,0.4173,-0.6571,-56.4000,36.4500,26.4000,9.5098,-2.8874,-0.5722,1.7869,0.3493,0.0157,-55.5000,6.4500,-16.0500,4.4200,2.2700,-8.8500,0.8007,2.2460,-3.6216,-6.0625,-34.5625,17.7500,149.1875,18.2500,-145.3750,0
268.924,10.6542,0.7254,-3.6320,4.4065,0.5638,-0.7448,-55.8000,32.2500,23.8500,10.4363,-1.1540,-0.6800,1.0022,0.3341,-0.0354,-54.1500,6.1500,-15.9000,4.3800,3.5500,-8.8700,0.7134,2.0344,-3.1263,-6.0625,-34.5625,17.7500,149.1875,18.2500,-145.3750,0
268.929,10.6542,0.7254,-3.6320,4.4065,0.5638,-0.7448,-55.8000,32.2500,23.8500,11.1115,0.9912,-0.1891,0.6981,0.2212,-0.1777,-54.1500,6.1500,-15.9000,4.3800,3.5500,-8.8700,0.7134,2.0344,-3.1263,-6.0625,-34.5625,17.7500,149.1875,18.2500,-145.3750,0
268.934,11.2025,-0.1652,-4.0079,3.7635,0.7053,-0.7909,-54.4500,34.0500,25.6500,11.6502,1.0343,0.1197,0.6981,0.2212,-0.1777,-56.7000,6.0000,-16.8000,4.5200,3.9600,-8.4600,0.5334,1.7290,-2.5962,2.3750,-32.5000,19.5625,147.4375,18.1875,-145.1250,0
268.938,11.2025,-0.1652,-4.0079,3.7635,0.7053,-0.7909,-54.4500,34.0500,25.6500,11.6502,1.0343,0.1197,0.9212,0.3224,-0.2332,-56.7000,6.0000,-16.8000,4.5200,3.9600,-8.4600,0.5334,1.7290,-2.5962,2.3750,-32.5000,19.5625,147.4375,18.1875,-145.1250,0
268.944,10.5512,-1.2689,-3.0047,3.4334,0.0773,-0.8204,-53.8500,31.6500,24.3000,10.3070,1.3001,-0.5100,1.1951,0.3243,-0.3978,-56.7000,6.0000,-16.8000,3.8000,4.6800,-7.5500,0.4091,1.3504,-2.0159,2.3750,-32.5000,19.5625,145.0000,18.1250,-144.7500,0
268.954,9.6798,-2.7773,-2.0638,2.8096,-0.0360,-0.8039,-52.8000,30.4500,24.7500,9.3901,1.4748,-0.2753,1.3843,0.4748,-0.5425,-54.6000,6.1500,-14.4000,2.6200,5.1500,-6.9300,0.2498,0.9708,-1.4759,2.3750,-32.5000,19.5625,144.3125,18.1250,-144.5625,0
268.964,10.9271,-3.7158,-2.0231,2.0366,0.5534,-0.7592,-52.8000,30.4500,24.7500,10.1993,0.1365,-0.4836,1.3195,0.0997,-0.6384,-54.6000,6.1500,-14.4000,1.4600,5.6500,-6.5600,0.0589,0.6829,-1.0494,2.3750,-32.5000,19.5625,144.3125,18.1250,-144.5625,0
268.974,8.7340,-4.1324,-2.8012,0.6736,0.1868,-0.6920,-52.8000,30.4500,24.7500,9.9862,-0.8571,0.0958,0.9252,0.0506,-0.6153,-55.3500,6.6000,-17.4000,0.1700,6.3300,-7.1100,-0.2345,0.5051,-0.7603,2.3750,-32.5000,19.5625,143.8125,18.0625,-144.2500,0
268.979,6.2776,-0.6201,-0.6153,0.7368,-0.1175,-0.6387,-52.8000,30.4500,24.7500,9.9862,-0.8571,0.0958,0.9252,0.0506,-0.6153,-55.3500,6.6000,-17.4000,0.1700,6.3300,-7.1100,-0.2345,0.5051,-0.7603,2.3750,-32.5000,19.5625,143.8125,18.0625,-144.2500,0
268.984,6.2776,-0.6201,-0.6153,0.7368,-0.1175,-0.6387,-51.9000,33.0000,21.0000,9.8569,-1.0295,-0.2897,0.5644,-0.0711,-0.5540,-55.3500,6.9000,-15.9000,-0.6000,6.1700,-7.7000,-0.4374,0.3545,-0.6283,5.3750,-31.0625,20.2500,143.4375,18.0625,-143.8750,0
268.989,9.7276,0.0096,-1.4341,0.0706,0.4759,-0.6278,-51.9000,33.0000,21.0000,9.8569,-1.0295,-0.2897,0.5644,-0.0711,-0.5540,-55.3500,6.9000,-15.9000,-0.6000,6.1700,-7.7000,-0.4374,0.3545,-0.6283,5.3750,-31.0625,20.2500,143.4375,18.0625,-143.8750,0
268.994,9.7276,0.0096,-1.4341,0.0706,0.4759,-0.6278,-49.9500,32.7000,22.5000,10.2304,-1.6137,-0.5555,0.2550,-0.1705,-0.4346,-55.5000,7.2000,-17.1000,-1.5800,5.8100,-7.9900,-0.4352,0.2651,-0.6447,5.3750,-31.0625,20.2500,143.1250,17.9375,-143.5000,0
268.999,9.3494,0.9194,-1.4030,-0.1641,0.0317,-0.6315,-49.9500,32.7000,22.5000,10.2304,-1.6137,-0.5555,0.2550,-0.1705,-0.4346,-55.5000,7.2000,-17.1000,-1.5800,5.8100,-7.9900,-0.5847,0.3229,-0.7407,5.3750,-31.0625,20.2500,142.6875,17.8750,-143.0625,0
269.005,9.3494,0.9194,-1.4030,-0.1641,0.0317,-0.6315,-51.7500,32.7000,22.5000,10.0126,-1.5347,-0.7733,0.0139,-0.2867,-0.3123,-55.8000,6.6000,-18.0000,-1.9700,5.4400,-8.2400,-0.5847,0.3229,-0.7407,5.3750,-31.0625,20.2500,142.2500,17.7500,-142.5000,0
269.014,9.5217,1.6975,-1.3599,-0.4938,0.1266,-0.6283,-48.9000,33.0000,21.3000,10.0341,-1.5107,-0.9122,-0.1844,-0.3856,-0.2268,-55.0500,6.6000,-18.4500,-1.7900,4.6600,-9.0300,-0.6490,0.3927,-0.8268,5.3750,-31.0625,20.2500,142.2500,17.7500,-142.5000,0
269.024,8.8801,2.2314,-0.5842,-0.6776,0.0402,-0.6174,-48.9000,33.0000,21.3000,10.0916,-1.0606,-1.1732,-0.3176,-0.5319,-0.1785,-55.5000,5.5500,-17.5500,-1.4600,4.6900,-9.3800,-0.5814,0.3840,-0.8574,5.3750,-31.0625,20.2500,141.7500,17.6250,-142.0625,0
269.029,8.4204,2.7222,-0.1987,-0.7117,0.0600,-0.5889,-48.9000,33.0000,21.3000,10.0916,-1.0606,-1.1732,-0.3176,-0.5319,-0.1785,-55.5000,5.5500,-17.5500,-1.4600,4.6900,-9.3800,-0.5814,0.3840,-0.8574,5.3750,-31.0625,20.2500,141.2500,17.5000,-141.6250,0
269.034,8.4204,2.7222,-0.1987,-0.7117,0.0600,-0.5889,-50.1000,34.0500,24.1500,9.9024,-0.2873,-1.3599,-0.3757,-0.6145,-0.1431,-55.5000,5.5500,-17.5500,-1.4100,4.5400,-9.4700,-0.4800,0.3578,-0.8410,5.7500,-29.5000,19.5000,141.2500,17.5000,-141.6250,0
269.038,9.0597,3.4261,-0.6632,-0.5263,-0.1274,-0.5526,-50.1000,34.0500,24.1500,9.9024,-0.2873,-1.3599,-0.3757,-0.6145,-0.1431,-55.5000,5.5500,-17.5500,-1.4100,4.5400,-9.4700,-0.4800,0.3578,-0.8410,5.7500,-29.5000,19.5000,141.2500,17.5000,-141.6250,0
269.044,9.0597,3.4261,-0.6632,-0.5263,-0.1274,-0.5526,-48.3000,35.2500,22.8000,9.9838,0.3591,-1.7166,-0.2579,-0.6891,-0.1412,-56.2500,4.8000,-17.1000,0.1200,5.0200,-9.9900,-0.4483,0.3502,-0.7952,5.7500,-29.5000,19.5000,140.7500,17.3750,-141.1875,0
269.049,8.2049,3.5243,-1.0702,-0.3413,-0.5513,-0.5329,-48.3000,35.2500,22.8000,10.0676,0.6823,-1.6424,-0.2579,-0.6891,-0.1412,-56.2500,4.8000,-17.1000,0.1200,5.0200,-9.9900,-0.3905,0.0993,-0.7330,5.7500,-29.5000,19.5000,140.3750,17.1250,-140.8750,0
269.055,8.2049,3.5243,-1.0702,-0.3413,-0.5513,-0.5329,-48.9000,32.2500,24.9000,10.0676,0.6823,-1.6424,0.0211,-0.6989,-0.1455,-57.4500,6.0000,-18.3000,-0.1300,5.0200,-9.4900,-0.3905,0.0993,-0.7330,5.7500,-29.5000,19.5000,140.0625,16.9375,-140.6250,0
269.064,8.7580,3.7565,-1.4341,-0.2366,-0.2729,-0.4999,-48.3000,34.0500,23.4000,10.2783,0.7590,-1.4078,0.3640,-0.6885,-0.1391,-52.9500,8.4000,-18.6000,0.2500,5.1000,-9.2900,-0.2923,-0.0371,-0.6261,5.7500,-29.5000,19.5000,139.8125,16.6875,-140.4375,0
269.074,9.3134,4.1635,-1.6951,-0.0312,-0.5177,-0.4791,-48.6000,33.7500,23.1000,10.1251,0.4621,-1.2234,0.5838,-0.6893,-0.1330,-55.8000,5.8500,-18.7500,0.5100,5.1700,-9.0400,-0.2345,-0.1309,-0.5225,5.7500,-29.5000,19.5000,139.8125,16.6875,-140.4375,0
269.079,9.0788,4.0965,-1.9872,0.1013,-0.5692,-0.4588,-48.6000,33.7500,23.1000,10.2879,0.0024,-0.7901,0.6606,-0.6899,-0.1167,-55.8000,5.8500,-18.7500,0.5100,5.1700,-9.0400,-0.2345,-0.1309,-0.5225,5.7500,-29.5000,19.5000,139.8125,16.6875,-140.4375,0
269.084,9.0788,4.0965,-1.9872,0.1013,-0.5692,-0.4588,-48.6000,33.7500,23.1000,10.2879,0.0024,-0.7901,0.6606,-0.6899,-0.1167,-55.8000,4.2000,-19.5000,0.5300,5.8600,-8.5400,-0.2389,-0.2203,-0.4963,5.5625,-28.7500,19.8750,139.6250,16.4375,-140.3125,0
269.089,9.3781,3.9768,-2.4732,0.1167,-0.3789,-0.4823,-48.6000,33.7500,23.1000,10.3645,-0.1676,-0.6488,0.7008,-0.7453,-0.0738,-55.8000,4.2000,-19.5000,0.5300,5.8600,-8.5400,-0.2389,-0.2203,-0.4963,5.5625,-28.7500,19.8750,139.6250,16.4375,-140.3125,0
269.094,9.3781,3.9768,-2.4732,0.0845,-0.4628,-0.4948,-50.4000,33.0000,22.8000,10.3645,-0.1676,-0.6488,0.7008,-0.7453,-0.0738,-54.6000,6.6000,-18.7500,0.3200,6.0300,-8.3300,-0.2051,-0.2563,-0.5400,5.5625,-28.7500,19.8750,139.3750,16.1250,-140.1250,0
269.099,8.8155,3.8331,-2.8371,0.0845,-0.4628,-0.4948,-50.4000,33.0000,22.8000,10.0245,-0.2873,-0.4501,0.6286,-0.7895,-0.0218,-54.6000,6.6000,-18.7500,0.3200,6.0300,-8.3300,-0.1440,-0.2793,-0.6294,5.5625,-28.7500,19.8750,139.1250,15.7500,-140.0000,0
269.105,8.7604,4.1061,-2.7174,0.2116,-0.5052,-0.4890,-49.9500,32.4000,22.9500,10.0245,-0.2873,-0.4501,0.6286,-0.7895,-0.0218,-54.6000,6.6000,-18.7500,-0.4600,5.9600,-8.0300,-0.1440,-0.2793,-0.6294,5.5625,-28.7500,19.8750,138.7500,15.4375,-139.8750,0
269.114,8.4659,4.2593,-2.5857,0.2840,-0.3794,-0.4642,-48.6000,32.2500,23.8500,9.6869,-0.5076,-0.6273,0.5654,-0.8505,0.0250,-54.0000,6.7500,-21.1500,-0.4800,5.8200,-8.0400,-0.1156,-0.1287,-0.7679,5.5625,-28.7500,19.8750,138.7500,15.4375,-139.8750,0
269.124,8.3031,4.0318,-2.3487,0.2254,-0.2012,-0.4104,-50.2500,33.1500,22.2000,9.7516,-0.4836,-0.7063,0.5622,-0.8625,0.0759,-54.0000,6.7500,-21.1500,0.0300,5.6100,-8.2700,-0.0262,0.0349,-0.9141,5.5625,-28.7500,19.8750,138.1875,15.1250,-139.7500,0
269.129,8.3031,4.0318,-2.3487,0.2254,-0.2012,-0.4104,-50.2500,33.1500,22.2000,9.8234,-0.6895,-0.8116,0.5708,-0.8796,0.0954,-54.0000,6.7500,-21.1500,0.0300,5.6100,-8.2700,-0.0262,0.0349,-0.9141,5.5625,-28.7500,19.8750,138.1875,15.1250,-139.7500,0
269.134,8.7005,3.8714,-3.0167,0.4311,0.0282,-0.3605,-50.2500,33.1500,22.2000,9.8234,-0.6895,-0.8116,0.5708,-0.8796,0.0954,-54.7500,5.2500,-21.6000,0.4100,5.3500,-8.3000,0.0458,0.0589,-1.0177,5.6875,-27.7500,18.5625,137.6250,14.8125,-139.6250,0
269.139,8.7005,3.8714,-3.0167,0.4311,0.0282,-0.3605,-50.2500,33.1500,22.2000,9.5816,-0.5124,-0.7470,0.6534,-0.8937,0.1116,-54.7500,5.2500,-21.6000,0.4100,5.3500,-8.3000,0.0458,0.0589,-1.0177,5.6875,-27.7500,18.5625,137.6250,14.8125,-139.6250,0
269.144,8.4755,3.5482,-2.4804,0.7661,-0.2715,-0.3115,-47.7000,31.2000,21.4500,9.5816,-0.5124,-0.7470,0.6534,-0.8937,0.1116,-54.7500,5.2500,-21.6000,0.9800,4.3600,-8.2500,0.0796,0.0371,-1.0701,5.6875,-27.7500,18.5625,137.0000,14.4375,-139.5625,0
269.149,8.4755,3.5482,-2.4804,0.7661,-0.2715,-0.3115,-48.6000,32.5500,22.0500,9.3278,-0.6105,-0.5291,0.6360,-0.9020,0.1322,-53.4000,6.1500,-21.4500,0.9800,4.3600,-8.2500,0.1265,0.1167,-1.0352,5.6875,-27.7500,18.5625,136.4375,14.0625,-139.5000,0
269.155,8.6239,3.7900,-2.4852,0.9952,-0.1287,-0.2617,-48.6000,32.5500,22.0500,9.3877,-0.6081,-0.5363,0.6360,-0.9020,0.1322,-54.7500,6.0000,-21.1500,1.5200,4.1200,-8.5100,0.1265,0.1167,-1.0352,5.6875,-27.7500,18.5625,135.8750,13.8125,-139.5000,0
269.164,8.3462,3.4596,-2.1979,1.0376,-0.2169,-0.2214,-49.2000,31.9500,21.1500,9.2775,-0.7422,-0.5076,0.7189,-0.8748,0.1482,-53.7000,4.8000,-22.3500,1.5200,3.8700,-8.6400,0.1505,0.1113,-0.9599,5.6875,-27.7500,18.5625,135.8750,13.8125,-139.5000,0
269.174,8.2480,3.1603,-2.4421,1.1748,-0.1705,-0.2070,-48.3000,32.5500,20.2500,9.3374,-0.8547,-0.5507,0.7480,-0.8908,0.1644,-53.1000,6.1500,-22.5000,2.2400,3.8000,-8.9000,0.1942,0.1156,-0.8596,5.6875,-27.7500,18.5625,135.3125,13.5625,-139.5000,0
269.179,8.2480,3.1603,-2.4421,1.1748,-0.1705,-0.2070,-47.7000,32.7000,20.4000,9.3374,-0.8547,-0.5507,0.7477,-0.8692,0.1993,-53.1000,6.1500,-22.5000,2.2400,3.8000,-8.9000,0.1942,0.1156,-0.8596,5.6875,-27.7500,18.5625,134.8750,13.3125,-139.6250,0
269.184,8.4108,3.4620,-2.3128,1.4999,-0.1580,-0.1815,-47.7000,32.7000,20.4000,9.1698,-0.8332,-0.6871,0.7477,-0.8692,0.1993,-53.2500,6.1500,-22.5000,2.2700,3.3100,-8.6700,0.3829,0.0316,-0.7374,6.5625,-28.0625,17.5000,134.8750,13.3125,-139.6250,0
269.189,8.4108,3.4620,-2.3128,1.4999,-0.1580,-0.1815,-47.7000,32.7000,20.4000,9.1698,-0.8332,-0.6871,0.7421,-0.8239,0.2380,-53.2500,4.0500,-24.1500,2.2700,3.3100,-8.6700,0.3829,0.0316,-0.7374,6.5625,-28.0625,17.5000,134.5000,13.0625,-139.8750,0
269.194,7.3694,2.8898,-2.2984,1.2638,-0.1050,-0.1514,-47.7000,32.7000,20.4000,9.1889,-0.7087,-0.4788,0.7344,-0.7783,0.2790,-53.2500,4.0500,-24.1500,2.5700,3.1500,-8.5500,0.5563,0.0600,-0.6196,6.5625,-28.0625,17.5000,134.5000,13.0625,-139.8750,0
269.199,7.3694,2.8898,-2.2984,1.2638,-0.1050,-0.1514,-49.3500,31.8000,19.9500,9.1889,-0.7087,-0.4788,0.7344,-0.7783,0.2790,-53.2500,4.0500,-24.1500,2.5700,3.1500,-8.5500,0.6370,0.0044,-0.5356,6.5625,-28.0625,17.5000,134.1250,12.8750,-140.1875,0
269.205,8.0828,2.9425,-2.5690,1.4655,-0.0941,-0.1231,-49.3500,31.8000,19.9500,9.0740,-0.5100,-0.3543,0.7725,-0.7400,0.3120,-52.3500,4.2000,-23.2500,2.5100,3.1800,-8.3600,0.6370,0.0044,-0.5356,6.5625,-28.0625,17.5000,133.8125,12.7500,-140.5000,0
269.214,8.4084,2.5307,-2.0638,1.2151,-0.1966,-0.0930,-49.2000,31.6500,20.1000,9.0190,-0.2394,-0.1891,0.8239,-0.6800,0.3536,-52.3500,4.2000,-23.2500,3.1000,3.4300,-8.3400,0.6829,-0.0011,-0.4811,6.5625,-28.0625,17.5000,133.8125,12.7500,-140.5000,0
269.224,8.2289,1.7645,-2.3248,1.2484,-0.2419,-0.0536,-49.5000,30.9000,19.6500,8.9352,-0.1413,-0.0287,0.8791,-0.6411,0.3701,-52.3500,4.2000,-23.2500,3.4600,3.5600,-8.2900,0.7505,0.0458,-0.4821,6.5625,-28.0625,17.5000,133.5000,12.5625,-140.8750,0
269.229,8.2289,1.7645,-2.3248,1.2484,-0.2419,-0.0536,-48.6000,31.0500,19.9500,8.9352,-0.1413,-0.0287,0.8791,-0.6411,0.3701,-52.9500,2.4000,-24.1500,3.4600,3.5600,-8.2900,0.7505,0.0458,-0.4821,6.5625,-28.0625,17.5000,133.5000,12.5625,-140.8750,0
269.234,7.9272,1.8244,-2.6169,1.0968,-0.2297,-0.0133,-48.6000,31.0500,19.9500,8.8945,-0.1700,0.1460,0.9102,-0.5947,0.4026,-52.9500,2.4000,-24.1500,3.4700,3.5200,-8.1300,0.8454,-0.0055,-0.5269,6.6875,-28.0000,17.0000,133.1250,12.3750,-141.3125,0
269.239,7.9272,1.8244,-2.6169,0.8663,-0.0783,0.0413,-48.6000,31.0500,19.9500,8.8945,-0.1700,0.1460,0.9102,-0.5947,0.4026,-52.5000,1.3500,-25.6500,3.4700,3.5200,-8.1300,0.8454,-0.0055,-0.5269,6.6875,-28.0000,17.0000,133.1250,12.3750,-141.3125,0
269.244,7.8506,1.4724,-2.9688,0.8663,-0.0783,0.0413,-48.6000,31.0500,19.9500,8.7173,-0.2729,0.1891,0.8948,-0.5375,0.4034,-52.5000,1.3500,-25.6500,3.2200,3.2800,-7.3900,0.9512,-0.0894,-0.5618,6.6875,-28.0000,17.0000,132.8125,12.1875,-141.7500,0
269.250,7.8817,1.4916,-3.0454,0.7288,-0.0349,0.0839,-48.6000,31.0500,19.9500,8.7173,-0.2729,0.1891,0.8948,-0.5375,0.4034,-53.2500,3.6000,-24.1500,3.2200,3.2800,-7.3900,0.9599,-0.0142,-0.5825,6.6875,-28.0000,17.0000,132.4375,11.9375,-142.2500,0
269.255,7.8817,1.4916,-3.0454,0.7288,-0.0349,0.0839,-48.6000,31.0500,19.9500,8.6694,-0.1317,0.2011,0.8756,-0.4748,0.4159,-52.5000,1.3500,-26.1000,3.4000,3.1800,-7.1200,0.9599,-0.0142,-0.5825,6.6875,-28.0000,17.0000,132.0000,11.8125,-142.6875,0
269.264,7.7692,1.3623,-3.1795,0.5140,0.0863,0.1252,-50.2500,32.4000,18.3000,8.6455,-0.0551,0.3831,0.8700,-0.4080,0.4154,-54.0000,2.4000,-26.7000,3.5900,3.1200,-6.9100,0.9141,0.1276,-0.5934,6.6875,-28.0000,17.0000,132.0000,11.8125,-142.6875,0
269.274,8.0972,1.2186,-3.0023,0.3941,0.0765,0.1599,-49.2000,31.6500,17.5500,8.5904,0.1173,0.5986,0.8295,-0.3429,0.4088,-54.0000,2.4000,-26.7000,3.7000,3.1500,-6.6600,0.8781,0.2116,-0.5672,6.6875,-28.0000,17.0000,131.5625,11.6875,-143.1250,0
269.279,8.1235,1.2761,-3.2513,0.1673,0.1447,0.1599,-49.5000,32.4000,17.2500,8.5952,0.0096,0.5962,0.8295,-0.3429,0.4088,-53.1000,1.5000,-25.5000,3.7000,3.1500,-6.6600,0.8781,0.2116,-0.5672,6.6875,-28.0000,17.0000,131.5625,11.6875,-143.1250,0
269.284,8.1235,1.2761,-3.2513,0.1673,0.1447,0.1599,-49.5000,32.4000,17.2500,8.5952,0.0096,0.5962,0.7911,-0.2939,0.3765,-53.1000,1.5000,-25.5000,4.1600,3.1200,-6.5500,0.8759,0.2716,-0.5061,7.8750,-28.0000,18.6875,131.1875,11.6875,-143.5625,0
269.289,8.3462,1.3096,-3.3016,-0.0120,0.2590,0.1519,-50.8500,31.5000,18.7500,8.6311,-0.1389,1.0511,0.7911,-0.2939,0.3765,-53.1000,1.5000,-25.5000,4.1600,3.1200,-6.5500,0.8759,0.2716,-0.5061,7.8750,-28.0000,18.6875,131.1875,11.6875,-143.5625,0
269.294,8.3462,1.3096,-3.3016,-0.0120,0.2590,0.1519,-50.8500,31.5000,18.7500,8.6311,-0.1389,1.0511,0.7248,-0.2454,0.3624,-53.1000,1.5000,-25.5000,4.3500,2.9100,-6.7500,0.9010,0.3218,-0.4309,7.8750,-28.0000,18.6875,130.8750,11.6875,-144.0000,0
269.299,8.4827,1.2761,-3.2250,-0.0027,0.4325,0.1721,-50.8500,31.5000,18.7500,8.6383,-0.5818,1.2402,0.7248,-0.2454,0.3624,-53.1000,0.7500,-24.0000,4.3500,2.9100,-6.7500,0.8847,0.2880,-0.3502,7.8750,-28.0000,18.6875,130.5625,11.6875,-144.4375,0
269.305,8.4827,1.2761,-3.2250,-0.0027,0.4325,0.1721,-50.8500,31.5000,18.7500,8.6383,-0.5818,1.2402,0.5670,-0.2193,0.3397,-53.1000,0.7500,-24.0000,4.7500,2.8300,-7.0700,0.8847,0.2880,-0.3502,7.8750,-28.0000,18.6875,130.3125,11.6875,-144.8125,0
269.315,8.6790,1.2761,-2.9377,-0.0008,0.3898,0.1863,-51.0000,31.2000,17.5500,8.3558,-0.9529,1.5060,0.2539,-0.1927,0.2793,-53.1000,0.7500,-24.0000,6.0400,2.4800,-7.3100,0.7516,0.1778,-0.2967,7.8750,-28.0000,18.6875,130.3125,11.6875,-144.8125,0
269.325,8.5617,1.3767,-2.6743,0.0778,0.2475,0.1935,-50.4000,31.8000,17.7000,8.1906,-1.0032,1.0774,-0.1298,-0.1458,0.1937,-52.6500,1.0500,-25.0500,6.9600,2.4200,-6.7700,0.4701,0.0785,-0.2553,7.8750,-28.0000,18.6875,130.1250,11.6250,-145.0000,0
269.329,8.2528,1.5658,-2.5474,-0.3560,0.4644,0.1873,-50.1000,30.7500,18.4500,8.0996,-0.8021,0.7015,-0.4053,-0.0837,0.1026,-52.2000,2.1000,-26.4000,6.9600,2.4200,-6.7700,0.4701,0.0785,-0.2553,7.8750,-28.0000,18.6875,130.0625,11.5625,-145.1250,0
269.334,8.2528,1.5658,-2.5474,-0.3560,0.4644,0.1873,-50.1000,30.7500,18.4500,8.0996,-0.8021,0.7015,-0.4053,-0.0837,0.1026,-52.2000,2.1000,-26.4000,7.6300,2.0600,-5.6200,0.1691,-0.0535,-0.1342,9.3750,-28.2500,19.8750,130.0625,11.5625,-145.1250,0
269.339,8.9064,1.6712,-2.7390,-0.3778,0.5502,0.1974,-51.7500,30.9000,17.2500,8.3653,0.1676,-0.5148,-0.4064,0.0264,-0.0469,-51.9000,0.7500,-26.2500,7.6300,2.0600,-5.6200,0.1691,-0.0535,-0.1342,9.3750,-28.2500,19.8750,130.0625,11.5625,-145.1250,0
269.344,8.9064,1.6712,-2.7390,-0.3778,0.5502,0.1974,-51.7500,30.9000,17.2500,8.3653,0.1676,-0.5148,-0.4064,0.0264,-0.0469,-51.9000,0.7500,-26.2500,11.1400,-0.9500,-0.2300,-0.0873,-0.1484,0.1942,9.3750,-28.2500,19.8750,130.1875,11.5625,-145.0625,0
269.350,9.8593,2.0830,-3.9169,-0.2976,0.4919,0.2337,-49.6500,31.0500,19.9500,8.1954,2.4277,1.1181,-0.0410,0.3056,-0.2926,-52.3500,0.7500,-25.8000,15.8500,-5.3400,5.5900,-0.4134,0.1396,0.7799,9.3750,-28.2500,19.8750,130.6250,11.8750,-144.9375,0
269.355,8.7508,4.5753,-4.5562,0.8641,-0.6030,0.2113,-49.6500,31.0500,19.9500,8.1954,2.4277,1.1181,-0.0410,0.3056,-0.2926,-51.9000,-0.3000,-25.0500,15.8500,-5.3400,5.5900,-0.4134,0.1396,0.7799,9.3750,-28.2500,19.8750,131.3750,12.8750,-144.5625,0
269.365,12.0955,6.0358,-7.8434,0.2870,0.0927,0.1266,-51.0000,31.0500,19.9500,7.0964,5.4923,8.6910,-0.3054,0.9105,-0.5894,-51.9000,-0.3000,-25.0500,21.1000,-8.8600,9.1500,-0.7919,1.0221,1.6242,9.3750,-28.2500,19.8750,132.6875,14.7500,-144.4375,0
269.375,11.7962,7.8458,-2.8323,0.4226,-0.4770,-0.0027,-50.8500,30.3000,18.4500,9.5074,0.7829,0.7661,-1.4450,1.2556,-0.5929,-52.3500,2.7000,-25.5000,11.8900,-1.1000,-0.5500,-0.4865,2.1740,2.9049,9.3750,-28.2500,19.8750,132.6875,14.7500,-144.4375,0
269.380,11.7962,7.8458,-2.8323,0.4226,-0.4770,-0.0027,-50.8500,30.3000,18.4500,16.1896,-1.9513,-6.3590,-1.5902,1.0515,-0.2395,-52.3500,2.7000,-25.5000,11.8900,-1.1000,-0.5500,-0.4865,2.1740,2.9049,9.3750,-28.2500,19.8750,132.6875,14.7500,-144.4375,0
269.385,13.0364,6.6846,1.2043,-0.4522,0.4620,0.0096,-50.1000,31.0500,17.7000,16.1896,-1.9513,-6.3590,-1.5902,1.0515,-0.2395,-52.3500,2.7000,-25.5000,19.2200,1.1200,-24.1200,0.1876,2.7249,4.1452,9.6875,-28.2500,19.8750,134.5000,17.3125,-144.8750,0
269.390,13.0364,6.6846,1.2043,-0.4522,0.4620,0.0096,-50.1000,31.0500,17.7000,17.6716,1.9537,-4.7932,-1.1591,0.8282,-0.0802,-52.5000,2.8500,-25.6500,19.2200,1.1200,-24.1200,0.1876,2.7249,4.1452,9.6875,-28.2500,19.8750,134.5000,17.3125,-144.8750,0
269.395,13.8026,4.6759,-1.1157,-0.5489,0.6603,0.0165,-50.1000,30.7500,17.4000,12.3996,7.7069,0.1125,-1.1591,0.8282,-0.0802,-52.5000,2.8500,-25.6500,-16.8300,24.6500,-16.7500,0.3567,1.1017,4.9273,9.6875,-28.2500,19.8750,137.0000,19.3750,-145.6875,0
269.400,13.8026,4.6759,-1.1157,-0.5489,0.6603,0.0165,-50.1000,30.7500,17.4000,12.3996,7.7069,0.1125,-0.6041,0.8756,-0.3813,-52.5000,2.8500,-25.6500,-16.8300,24.6500,-16.7500,1.9100,-0.1254,3.4612,9.6875,-28.2500,19.8750,138.7500,20.3750,-147.3125,0
269.405,10.3142,5.2744,-3.4740,0.1103,0.7349,-0.1284,-50.1000,30.7500,17.4000,8.4132,8.0373,4.8937,0.0866,1.1343,-0.6057,-52.5000,2.8500,-25.6500,-2.1100,22.4500,-12.1300,1.9100,-0.1254,3.4612,9.6875,-28.2500,19.8750,139.7500,21.3125,-148.3750,0
269.415,8.7293,6.9336,-1.7717,0.6043,0.8175,-0.2942,-51.3000,30.9000,16.8000,7.5609,2.2936,4.3694,0.0866,1.1343,-0.6057,-54.4500,1.6500,-25.3500,10.2200,6.8900,-4.9700,1.2414,0.5792,2.2646,9.6875,-28.2500,19.8750,139.7500,21.3125,-148.3750,0
269.425,8.0756,5.5210,2.9999,0.5646,0.7117,-0.3211,-51.7500,27.9000,19.6500,10.2544,-0.8643,1.2522,1.0826,1.3752,-0.4469,-53.7000,1.6500,-24.9000,10.8300,-0.3700,-10.0000,1.3548,-0.1124,0.4778,9.6875,-28.2500,19.8750,139.8750,21.4375,-149.1875,0
269.429,8.0756,5.5210,2.9999,0.5646,0.7117,-0.3211,-51.7500,27.9000,19.6500,10.2544,-0.8643,1.2522,1.0826,1.3752,-0.4469,-52.9500,1.6500,-24.1500,10.8300,-0.3700,-10.0000,1.3548,-0.1124,0.4778,9.6875,-28.2500,19.8750,139.6250,21.3125,-150.0000,0
269.435,8.0373,1.8244,3.9456,0.2641,0.8018,-0.1820,-49.9500,27.9000,18.6000,10.7476,0.0622,1.6472,1.4266,1.1650,-0.4684,-52.9500,1.6500,-24.1500,3.6900,-0.9700,-11.4400,1.4094,-0.0709,-0.1473,3.7500,-30.0000,20.6875,139.6250,21.3125,-150.0000,0
269.439,8.0373,1.8244,3.9456,0.2641,0.8018,-0.1820,-49.9500,27.9000,18.6000,10.7476,0.0622,1.6472,1.4266,1.1650,-0.4684,-54.1500,1.5000,-24.7500,3.6900,-0.9700,-11.4400,1.4094,-0.0709,-0.1473,3.7500,-30.0000,20.6875,139.5000,21.1250,-150.6250,0
269.444,7.8865,-0.1030,1.8124,0.5875,0.8724,0.0101,-51.4500,29.2500,18.7500,9.6630,0.2849,3.3423,0.8799,1.1191,-0.4221,-54.1500,1.5000,-24.7500,3.1500,5.9500,-7.7000,1.1159,-0.3632,-0.1265,3.7500,-30.0000,20.6875,139.5000,21.1250,-150.6250,0
269.451,7.8865,-0.1030,1.8124,0.5875,0.8724,0.0101,-51.4500,29.2500,18.7500,9.6630,0.2849,3.3423,0.8799,1.1191,-0.4221,-54.0000,2.1000,-23.8500,4.5000,4.1400,-8.1700,0.8268,-0.1800,0.0698,3.7500,-30.0000,20.6875,139.5000,21.0625,-151.1250,0
269.456,8.7915,0.1891,0.4621,1.0595,0.8340,0.1132,-51.0000,27.4500,17.8500,9.2775,-1.0008,3.1819,0.2254,1.0397,-0.2563,-54.0000,2.1000,-23.8500,4.5000,4.1400,-8.1700,0.8268,-0.1800,0.0698,3.7500,-30.0000,20.6875,139.3750,21.0625,-151.4375,0
269.465,10.3022,0.8164,0.9673,0.9928,0.7325,0.1900,-51.0000,27.4500,17.8500,10.1227,-0.8332,4.0869,-0.3267,0.9960,-0.2044,-54.4500,1.6500,-23.8500,4.9800,1.8200,-8.9700,0.6654,0.0273,-0.0687,3.7500,-30.0000,20.6875,139.2500,21.0000,-151.6875,0
269.475,10.6877,0.2035,3.0430,0.3952,0.7757,0.2851,-49.9500,27.9000,16.5000,11.4754,0.3184,3.6248,-0.6344,0.9843,-0.2822,-54.4500,1.6500,-23.8500,3.9100,3.2100,-8.4200,0.4865,0.0033,-0.0687,3.7500,-30.0000,20.6875,139.2500,21.0000,-151.6875,0
269.480,10.6877,0.2035,3.0430,0.3952,0.7757,0.2851,-49.9500,27.9000,16.5000,11.4754,0.3184,3.6248,-0.6344,0.9843,-0.2822,-54.6000,2.2500,-23.2500,3.9100,3.2100,-8.4200,0.4865,0.0033,-0.0687,3.7500,-30.0000,20.6875,139.2500,21.0000,-151.9375,0
269.485,10.5656,-0.3687,2.3798,0.0179,0.7376,0.3616,-50.2500,27.9000,16.8000,11.4515,0.9481,2.8587,-0.3704,0.7898,-0.3549,-54.6000,2.2500,-23.2500,3.8800,4.1200,-8.2800,0.3578,-0.0164,-0.0120,2.6875,-28.5625,20.6875,139.2500,21.0000,-151.9375,0
269.490,10.5656,-0.3687,2.3798,0.0179,0.7376,0.3616,-50.2500,27.9000,16.8000,11.4515,0.9481,2.8587,-0.3704,0.7898,-0.3549,-54.6000,2.2500,-23.2500,3.8800,4.1200,-8.2800,0.3578,-0.0164,-0.0120,2.6875,-28.5625,20.6875,139.1875,21.0000,-152.0625,0
269.495,10.0078,-0.3208,1.0391,-0.1143,0.8649,0.4274,-49.6500,29.2500,19.2000,10.3813,1.0894,2.9042,-0.1370,0.5436,-0.4016,-54.6000,2.2500,-23.2500,3.4800,3.1800,-8.7300,0.2989,0.0371,-0.0665,2.6875,-28.5625,20.6875,139.1875,21.0000,-152.0625,0
269.501,10.0030,0.6823,1.0870,-0.1095,0.9246,0.4623,-49.6500,29.2500,19.2000,9.0381,0.6297,3.0646,-0.1370,0.5436,-0.4016,-53.1000,3.4500,-22.9500,3.2200,3.8500,-8.4300,0.2073,0.0284,-0.0545,2.6875,-28.5625,20.6875,139.1250,21.0000,-152.1875,0
269.506,10.0030,0.6823,1.0870,-0.1095,0.9246,0.4623,-50.4000,27.3000,18.1500,9.0381,0.6297,3.0646,-0.2702,0.4948,-0.3331,-53.1000,3.4500,-22.9500,3.2200,3.8500,-8.4300,0.2073,0.0284,-0.0545,2.6875,-28.5625,20.6875,139.0625,21.0625,-152.1875,0
269.515,9.5026,1.5778,1.5778,-0.1524,0.9955,0.4602,-50.4000,27.3000,18.1500,9.7659,0.3663,2.5402,-0.4740,0.4970,-0.2121,-54.0000,2.8500,-23.1000,3.7100,3.9800,-7.9900,0.0971,0.0382,-0.0218,2.6875,-28.5625,20.6875,139.0625,21.0625,-152.1875,0
269.525,9.6630,1.6735,1.4246,-0.1367,1.0203,0.4295,-51.1500,28.5000,18.1500,10.3573,0.7183,1.6185,-0.5934,0.4572,-0.1748,-55.9500,4.5000,-23.8500,3.6600,4.1200,-7.8900,0.0524,0.0622,-0.0295,2.6875,-28.5625,20.6875,139.0625,21.0625,-152.2500,0
269.530,9.5648,1.7358,0.6345,-0.1863,1.0443,0.4045,-51.1500,28.5000,18.1500,9.9431,1.0271,1.0918,-0.5934,0.4572,-0.1748,-54.4500,3.6000,-23.1000,3.6600,4.1200,-7.8900,0.0524,0.0622,-0.0295,2.6875,-28.5625,20.6875,139.0625,21.0625,-152.2500,0
269.535,9.5648,1.7358,0.6345,-0.1863,1.0443,0.4045,-52.6500,29.2500,19.9500,9.9431,1.0271,1.0918,-0.5446,0.3989,-0.2350,-54.4500,3.6000,-23.1000,3.5100,4.0300,-8.0500,0.0611,0.0393,-0.0415,3.7500,-28.8750,21.8750,139.0000,21.0625,-152.2500,0
269.540,9.6630,2.0686,0.3448,-0.1828,0.9507,0.3920,-52.6500,29.2500,19.9500,9.3733,1.5945,0.7566,-0.4503,0.3224,-0.2737,-54.7500,4.0500,-23.1000,3.5100,4.0300,-8.0500,0.0611,0.0393,-0.0415,3.7500,-28.8750,21.8750,139.0000,21.0625,-152.2500,0
269.545,9.6630,2.0686,0.3448,-0.1828,0.9507,0.3920,-51.4500,29.5500,19.9500,9.3733,1.5945,0.7566,-0.4503,0.3224,-0.2737,-54.7500,4.0500,-23.1000,3.5200,4.1500,-8.0100,0.0622,0.0338,-0.0469,3.7500,-28.8750,21.8750,139.0000,21.0625,-152.2500,0
269.554,9.6965,2.3391,-0.0694,-0.1687,0.8956,0.4048,-50.8500,27.7500,19.9500,9.4427,1.9154,0.9816,-0.2459,0.2992,-0.2459,-56.1000,4.9500,-23.2500,3.4800,4.3100,-7.9600,0.0567,0.0371,-0.0524,3.7500,-28.8750,21.8750,138.9375,21.0625,-152.3125,0
269.559,9.6654,2.4780,-0.4860,-0.1466,0.8383,0.4239,-50.8500,27.7500,19.9500,9.5624,1.7142,0.7925,-0.0573,0.2888,-0.2292,-56.1000,4.9500,-23.2500,3.4800,4.3100,-7.9600,0.0676,0.0218,-0.0600,3.7500,-28.8750,21.8750,138.8750,21.0625,-152.3125,0
269.566,9.6654,2.4780,-0.4860,-0.1466,0.8383,0.4239,-51.9000,29.5500,20.5500,9.5624,1.7142,0.7925,-0.0573,0.2888,-0.2292,-56.1000,4.9500,-23.2500,3.4600,4.2400,-8.0300,0.0676,0.0218,-0.0600,3.7500,-28.8750,21.8750,138.8750,21.0625,-152.3750,0
269.575,9.6103,2.8754,-0.5842,-0.0887,0.7802,0.4343,-51.9000,29.5500,20.5500,9.8162,1.0463,0.4166,0.0240,0.2992,-0.2270,-54.4500,4.8000,-21.6000,3.5500,4.0200,-8.1400,0.0938,-0.0065,-0.0513,3.7500,-28.8750,21.8750,138.8750,21.0625,-152.3750,0
269.580,9.4691,3.3567,-0.2825,-0.0397,0.7234,0.4346,-51.9000,29.5500,20.5500,10.0604,0.6560,0.2179,-0.0530,0.3027,-0.2193,-54.4500,4.8000,-21.6000,3.5500,4.0200,-8.1400,0.0938,-0.0065,-0.0513,3.7500,-28.8750,21.8750,138.8125,21.0625,-152.3750,0
269.585,9.4691,3.3567,-0.2825,-0.0397,0.7234,0.4346,-52.8000,28.2000,18.6000,10.0604,0.6560,0.2179,-0.0530,0.3027,-0.2193,-54.4500,4.8000,-21.6000,3.4400,3.9900,-8.2000,0.1014,-0.0207,-0.0458,2.6875,-28.0625,23.0000,138.8125,21.0625,-152.3750,0
269.590,9.3278,3.6344,-0.1676,0.0405,0.6971,0.4223,-52.8000,28.2000,18.6000,9.8402,1.0582,0.1460,-0.1958,0.2891,-0.2281,-54.1500,5.8500,-23.2500,3.4400,3.9900,-8.2000,0.1014,-0.0207,-0.0458,2.6875,-28.0625,23.0000,138.8125,21.0000,-152.4375,0
269.595,9.3278,3.6344,-0.1676,0.0405,0.6971,0.4223,-52.3500,29.4000,20.1000,9.8402,1.0582,0.1460,-0.1958,0.2891,-0.2281,-54.1500,5.8500,-23.2500,3.4000,4.1000,-8.1700,0.0829,-0.0295,-0.0425,2.6875,-28.0625,23.0000,138.8125,21.0000,-152.4375,0
269.600,9.1937,3.7134,-0.0431,0.1127,0.6989,0.3992,-52.3500,29.4000,20.1000,9.5385,1.5107,0.2131,-0.3072,0.2777,-0.2132,-56.2500,3.6000,-23.4000,3.4000,4.1000,-8.1700,0.0513,-0.0316,-0.0425,2.6875,-28.0625,23.0000,138.7500,21.0000,-152.5000,0
269.606,9.1937,3.7134,-0.0431,0.1127,0.6989,0.3992,-52.6500,28.8000,20.5500,9.3972,2.0446,0.1269,-0.3072,0.2777,-0.2132,-56.2500,3.6000,-23.4000,3.4300,4.2000,-8.1500,0.0513,-0.0316,-0.0425,2.6875,-28.0625,23.0000,138.7500,20.9375,-152.5000,0
269.615,9.2656,3.8092,0.1580,0.1841,0.6864,0.3592,-53.4000,29.5500,20.2500,9.3972,2.0446,0.1269,-0.3688,0.2920,-0.1801,-54.1500,4.6500,-21.7500,3.5000,4.4700,-7.9900,0.0196,-0.0305,-0.0404,2.6875,-28.0625,23.0000,138.7500,20.9375,-152.5000,0
269.625,9.1435,3.4884,0.4381,0.2260,0.6651,0.3075,-53.4000,29.5500,20.2500,9.5577,2.3942,0.3376,-0.2729,0.2729,-0.1604,-55.3500,3.9000,-21.4500,3.4900,4.6200,-7.9700,0.0044,-0.0327,-0.0404,2.6875,-28.0625,23.0000,138.7500,20.9375,-152.5000,0
269.630,9.2320,3.3806,0.5363,0.1607,0.6587,0.2729,-53.4000,29.5500,20.2500,9.5577,2.3942,0.3376,-0.2062,0.2577,-0.1247,-54.7500,4.0500,-22.6500,3.4900,4.6200,-7.9700,0.0044,-0.0327,-0.0404,2.6875,-28.0625,23.0000,138.7500,20.9375,-152.5000,0
269.635,9.2320,3.3806,0.5363,0.1607,0.6587,0.2729,-53.4000,29.5500,20.2500,9.3446,1.6951,-0.0766,-0.2062,0.2577,-0.1247,-54.7500,4.0500,-22.6500,3.5600,4.5600,-7.9600,0.0000,-0.0349,-0.0338,3.3750,-28.5000,22.0625,138.6875,20.8750,-152.5000,0
269.640,9.1243,3.2226,0.2107,0.1172,0.6241,0.2483,-53.4000,27.7500,20.2500,9.3446,1.6951,-0.0766,-0.1660,0.2902,-0.0989,-54.4500,4.0500,-21.9000,3.5600,4.5600,-7.9600,0.0000,-0.0349,-0.0338,3.3750,-28.5000,22.0625,138.6875,20.8750,-152.5000,0
269.645,9.1243,3.2226,0.2107,0.0493,0.6198,0.2204,-53.4000,27.7500,21.3000,9.5720,1.3886,-0.1221,-0.1660,0.2902,-0.0989,-54.4500,4.0500,-21.9000,3.5700,4.4000,-8.0400,0.0109,-0.0371,-0.0240,3.3750,-28.5000,22.0625,138.6875,20.8750,-152.5000,0
269.654,9.1387,2.9209,-0.0335,0.0493,0.6198,0.2204,-52.3500,30.1500,20.1000,9.4954,1.1301,-0.1341,-0.1647,0.2968,-0.0863,-54.4500,4.0500,-21.9000,3.5300,4.3900,-8.0300,0.0218,-0.0447,-0.0164,3.3750,-28.5000,22.0625,138.6875,20.8750,-152.5000,0
269.662,9.2608,2.7629,-0.6105,-0.0059,0.5774,0.2052,-53.4000,28.8000,21.3000,9.4954,1.1301,-0.1341,-0.1982,0.3176,-0.0941,-55.3500,4.9500,-21.4500,3.4800,4.2700,-8.0800,0.0360,-0.0436,-0.0164,3.3750,-28.5000,22.0625,138.6875,20.8125,-152.5000,0
269.667,9.2464,2.6767,-0.8475,-0.0296,0.5316,0.1900,-53.4000,28.8000,21.3000,9.4739,1.3838,-0.2753,-0.2435,0.3427,-0.0893,-55.3500,4.9500,-21.4500,3.4800,4.2700,-8.0800,0.0360,-0.0436,-0.0164,3.3750,-28.5000,22.0625,138.6875,20.8125,-152.5625,0
269.676,9.3996,2.5091,-0.7757,-0.1026,0.5465,0.1727,-52.6500,30.0000,19.9500,9.5696,1.6688,0.1125,-0.2006,0.3800,-0.0794,-55.8000,3.9000,-21.0000,3.4600,4.2200,-8.0900,0.0447,-0.0589,-0.0142,3.3750,-28.5000,22.0625,138.6875,20.8125,-152.5625,0
269.681,9.3996,2.5091,-0.7757,-0.1026,0.5465,0.1727,-52.6500,30.0000,19.9500,9.5696,1.6688,0.1125,-0.2006,0.3800,-0.0794,-56.2500,4.5000,-21.9000,3.4600,4.2200,-8.0900,0.0447,-0.0589,-0.0142,3.7500,-28.0625,23.0000,138.6875,20.7500,-152.5625,0
269.686,9.4475,2.1021,-0.3759,-0.3062,0.5055,0.1775,-52.6500,30.0000,19.9500,9.6079,1.8962,0.5722,-0.0733,0.3946,-0.0837,-56.2500,4.5000,-21.9000,3.2900,4.3500,-8.0800,0.0371,-0.0687,-0.0087,3.7500,-28.0625,23.0000,138.6875,20.7500,-152.5625,0
269.690,9.4475,2.1021,-0.3759,-0.3062,0.5055,0.1775,-54.4500,29.5500,21.0000,9.6079,1.8962,0.5722,-0.0733,0.3946,-0.0837,-54.6000,5.4000,-20.2500,3.2900,4.3500,-8.0800,0.0371,-0.0687,-0.0087,3.7500,-28.0625,23.0000,138.6875,20.6875,-152.5625,0
269.696,9.3446,1.7645,-0.4597,-0.4652,0.5135,0.2004,-54.4500,29.5500,21.0000,9.4379,1.5610,0.6680,-0.0093,0.4098,-0.0967,-54.6000,5.4000,-20.2500,3.3800,4.3400,-8.0200,0.0295,-0.0687,-0.0065,3.7500,-28.0625,23.0000,138.6875,20.6875,-152.5625,0
269.700,9.3446,1.7645,-0.4597,-0.4652,0.5135,0.2004,-54.0000,29.5500,20.2500,9.4379,1.5610,0.6680,-0.0093,0.4098,-0.0967,-55.3500,6.6000,-22.2000,3.3800,4.3400,-8.0200,0.0218,-0.0764,0.0033,3.7500,-28.0625,23.0000,138.6875,20.6875,-152.6250,0
269.706,9.3158,1.7837,-0.2634,-0.6323,0.5212,0.2124,-54.0000,29.5500,20.2500,9.5337,1.1732,0.7350,-0.0176,0.4053,-0.0941,-55.3500,6.6000,-22.2000,3.4300,4.2700,-8.0600,0.0218,-0.0764,0.0033,3.7500,-28.0625,23.0000,138.6875,20.6875,-152.6250,0
269.715,9.1842,1.9920,0.0886,-0.7605,0.5097,0.2222,-55.5000,29.2500,22.3500,9.5146,1.0199,0.7781,-0.0714,0.4077,-0.0877,-55.0500,6.1500,-20.2500,3.4400,4.1600,-8.0900,0.0229,-0.0916,0.0044,3.7500,-28.0625,23.0000,138.6875,20.6250,-152.6250,0
269.720,9.1842,1.9920,0.0886,-0.7605,0.5097,0.2222,-56.4000,30.1500,22.5000,9.5146,1.0199,0.7781,-0.0714,0.4077,-0.0877,-55.0500,6.1500,-20.2500,3.4400,4.1600,-8.0900,0.0316,-0.0829,0.0033,3.7500,-28.0625,23.0000,138.6875,20.5625,-152.6250,0
269.726,9.4547,2.1979,0.3376,-0.8234,0.5167,0.2308,-56.4000,30.1500,22.5000,9.5720,1.0271,0.8116,-0.1348,0.4000,-0.0738,-55.0500,6.1500,-20.2500,3.4300,4.1700,-8.1200,0.0316,-0.0829,0.0033,3.7500,-28.0625,23.0000,138.6875,20.5625,-152.6250,0
269.731,9.4547,2.1979,0.3376,-0.8234,0.5167,0.2308,-54.9000,29.7000,22.2000,9.4379,1.3001,0.8954,-0.1348,0.4000,-0.0738,-56.5500,4.9500,-19.9500,3.4200,4.2100,-8.1100,0.0436,-0.0785,0.0011,3.3750,-27.6875,22.0625,138.7500,20.5625,-152.6875,0
269.736,9.2703,2.1955,0.4142,-0.8577,0.4994,0.2316,-54.9000,29.7000,22.2000,9.4379,1.3001,0.8954,-0.1961,0.4042,-0.0693,-56.5500,4.9500,-19.9500,3.4200,4.2100,-8.1100,0.0436,-0.0785,0.0011,3.3750,-27.6875,22.0625,138.7500,20.5625,-152.6875,0
269.741,9.2703,2.1955,0.4142,-0.8577,0.4994,0.2316,-54.9000,29.7000,22.2000,9.4906,1.4916,0.8595,-0.1961,0.4042,-0.0693,-56.5500,4.9500,-19.9500,3.4200,4.2100,-8.1100,0.0491,-0.0709,0.0065,3.3750,-27.6875,22.0625,138.7500,20.5000,-152.6875,0
269.746,9.1387,2.3750,0.7997,-0.7647,0.4868,0.2177,-54.9000,29.7000,22.2000,9.4906,1.4916,0.8595,-0.2121,0.4109,-0.0605,-56.5500,4.9500,-19.9500,3.4000,4.2300,-8.0900,0.0491,-0.0709,0.0065,3.3750,-27.6875,22.0625,138.7500,20.5000,-152.6875,0
269.751,9.1387,2.3750,0.7997,-0.7647,0.4868,0.2177,-54.3000,29.4000,24.0000,9.5744,1.4222,1.1899,-0.1335,0.4213,-0.0586,-55.0500,3.0000,-19.9500,3.4000,4.2300,-8.0900,0.0524,-0.0698,0.0076,3.3750,-27.6875,22.0625,138.7500,20.5000,-152.7500,0
269.756,9.4403,2.6624,0.9720,-0.6590,0.5164,0.1980,-54.3000,29.4000,24.0000,9.5744,1.4222,1.1899,-0.1335,0.4213,-0.0586,-55.0500,3.0000,-19.9500,3.4100,4.2700,-8.1000,0.0524,-0.0698,0.0076,3.3750,-27.6875,22.0625,138.7500,20.5000,-152.7500,0
269.765,9.4236,2.5833,0.9170,-0.6195,0.5055,0.1937,-53.1000,30.4500,24.3000,9.4164,1.3958,1.3336,-0.0869,0.4128,-0.0570,-54.1500,5.8500,-20.2500,3.3800,4.2700,-8.0600,0.0556,-0.0654,0.0055,3.3750,-27.6875,22.0625,138.7500,20.4375,-152.8125,0
269.770,9.4236,2.5833,0.9170,-0.6195,0.5055,0.1937,-56.4000,30.9000,23.5500,9.4403,1.0630,1.4198,-0.0919,0.4114,-0.0621,-55.9500,5.2500,-21.1500,3.3800,4.2700,-8.0600,0.0611,-0.0687,0.0011,3.3750,-27.6875,22.0625,138.7500,20.4375,-152.8125,0
269.777,9.3182,2.8515,0.8356,-0.4959,0.4980,0.1919,-56.4000,30.9000,23.5500,9.4403,1.0630,1.4198,-0.0919,0.4114,-0.0621,-55.9500,5.2500,-21.1500,3.4500,4.2300,-8.0800,0.0611,-0.0687,0.0011,3.3750,-27.6875,22.0625,138.7500,20.4375,-152.8125,0
269.781,9.2464,2.8563,0.7278,-0.3826,0.4858,0.1940,-54.0000,31.8000,23.8500,9.5385,0.9146,1.4126,-0.1031,0.4133,-0.0600,-55.9500,6.4500,-20.1000,3.4500,4.2300,-8.0800,0.0611,-0.0687,0.0011,2.6875,-28.5000,22.0625,138.9375,20.3750,-152.8750,0
269.786,9.2464,2.8563,0.7278,-0.3826,0.4858,0.1940,-54.0000,31.8000,23.8500,9.5385,0.9146,1.4126,-0.1031,0.4133,-0.0600,-55.9500,6.4500,-20.1000,3.4300,4.1500,-8.1400,0.0676,-0.0731,0.0022,2.6875,-28.5000,22.0625,138.9375,20.3750,-152.8750,0
269.791,9.2081,2.7964,0.5411,-0.2713,0.4772,0.2033,-54.0000,31.8000,23.8500,9.4547,0.9505,1.1444,-0.1316,0.4167,-0.0645,-54.6000,4.9500,-18.7500,3.4300,4.1500,-8.1400,0.0676,-0.0731,0.0022,2.6875,-28.5000,22.0625,138.9375,20.3125,-152.9375,0
269.796,9.2081,2.7964,0.5411,-0.2713,0.4772,0.2033,-54.0000,31.8000,23.8500,9.4547,0.9505,1.1444,-0.1316,0.4167,-0.0645,-54.6000,4.9500,-18.7500,3.3900,4.1200,-8.1700,0.0807,-0.0764,0.0011,2.6875,-28.5000,22.0625,138.9375,20.3125,-152.9375,0
269.801,9.1147,2.8012,0.5387,-0.1663,0.4884,0.2166,-54.6000,33.1500,22.9500,9.3206,1.1779,0.8954,-0.1298,0.4266,-0.0616,-57.4500,6.0000,-19.3500,3.3900,4.1200,-8.1700,0.0884,-0.0742,0.0011,2.6875,-28.5000,22.0625,138.9375,20.3125,-153.0000,0
269.807,9.1147,2.8012,0.5387,-0.1663,0.4884,0.2166,-54.6000,33.1500,22.9500,9.3206,1.1779,0.8954,-0.1298,0.4266,-0.0616,-57.4500,6.0000,-19.3500,3.3900,4.0900,-8.1500,0.0884,-0.0742,0.0011,2.6875,-28.5000,22.0625,138.9375,20.3125,-153.0000,0
269.815,9.1961,2.7845,0.4429,-0.0568,0.4844,0.2060,-53.8500,32.4000,25.3500,9.3901,1.5754,0.7781,-0.0509,0.4519,-0.0717,-57.4500,6.0000,-19.3500,3.3600,4.1400,-8.1100,0.0796,-0.0654,0.0000,2.6875,-28.5000,22.0625,138.9375,20.2500,-153.0000,0
269.820,9.2201,2.7605,0.3184,0.0266,0.4714,0.1966,-55.6500,33.4500,24.3000,9.3805,1.7071,0.8404,0.0853,0.4652,-0.0797,-56.7000,5.5500,-18.6000,3.3600,4.1400,-8.1100,0.0687,-0.0513,-0.0033,2.6875,-28.5000,22.0625,138.9375,20.2500,-153.0625,0
269.827,9.2201,2.7605,0.3184,0.0266,0.4714,0.1966,-55.5000,33.3000,24.9000,9.3805,1.7071,0.8404,0.0853,0.4652,-0.0797,-56.7000,5.5500,-18.6000,3.2700,4.2400,-8.0900,0.0687,-0.0513,-0.0033,2.6875,-28.5000,22.0625,138.9375,20.2500,-153.0625,0
269.831,9.3039,2.6360,0.3017,0.0866,0.4639,0.1716,-55.5000,33.3000,24.9000,9.2273,1.4916,0.9074,0.1338,0.4722,-0.0927,-56.7000,5.5500,-18.6000,3.2700,4.2400,-8.0900,0.0611,-0.0382,-0.0076,3.3750,-28.7500,21.7500,139.0625,20.2500,-153.1250,0
269.836,9.3039,2.6360,0.3017,0.0866,0.4639,0.1716,-56.2500,33.3000,25.2000,9.3518,1.3791,0.7853,0.1338,0.4722,-0.0927,-56.7000,5.5500,-18.6000,3.3200,4.1600,-8.1300,0.0611,-0.0382,-0.0076,3.3750,-28.7500,21.7500,139.0625,20.2500,-153.1250,0
269.841,9.3781,2.4732,0.2586,0.1364,0.4338,0.1431,-56.2500,33.3000,25.2000,9.3518,1.3791,0.7853,0.1108,0.4791,-0.0890,-56.5500,6.1500,-19.5000,3.3200,4.1600,-8.1300,0.0545,-0.0393,-0.0055,3.3750,-28.7500,21.7500,139.0625,20.1875,-153.1250,0
269.846,9.3781,2.4732,0.2586,0.1364,0.4338,0.1431,-56.2500,33.3000,25.2000,9.4619,1.4030,0.8260,0.1108,0.4791,-0.0890,-56.5500,6.1500,-19.5000,3.3200,4.1700,-8.1200,0.0545,-0.0393,-0.0055,3.3750,-28.7500,21.7500,139.0625,20.1875,-153.1250,0
269.851,9.1937,2.4301,0.3448,0.1378,0.4197,0.1162,-56.2500,33.3000,25.2000,9.4619,1.4030,0.8260,0.0690,0.5119,-0.0938,-55.8000,4.6500,-18.4500,3.3200,4.1700,-8.1200,0.0567,-0.0513,-0.0033,3.3750,-28.7500,21.7500,139.0625,20.1875,-153.1875,0
269.857,9.1937,2.4301,0.3448,0.1378,0.4197,0.1162,-55.5000,33.0000,25.2000,9.4691,1.5467,0.9697,0.0690,0.5119,-0.0938,-55.8000,4.6500,-18.4500,3.3400,4.2500,-8.1200,0.0567,-0.0513,-0.0033,3.3750,-28.7500,21.7500,139.0625,20.1875,-153.1875,0
269.865,9.3278,2.2984,0.3615,0.1069,0.4317,0.0991,-55.5000,33.0000,25.2000,9.3422,1.5347,0.9002,0.0322,0.5303,-0.0938,-55.5000,4.5000,-17.1000,3.2800,4.2600,-8.1500,0.0578,-0.0578,0.0011,3.3750,-28.7500,21.7500,139.0625,20.1250,-153.1875,0
269.870,9.3254,2.1979,0.4381,0.0245,0.4042,0.0895,-55.3500,34.2000,25.8000,9.3422,1.5347,0.9002,-0.0019,0.5425,-0.0946,-55.5000,4.5000,-17.1000,3.2800,4.2600,-8.1500,0.0600,-0.0654,0.0033,3.3750,-28.7500,21.7500,139.0625,20.1250,-153.2500,0
269.877,9.3254,2.1979,0.4381,0.0245,0.4042,0.0895,-56.1000,34.6500,25.8000,9.3805,1.2665,0.8906,-0.0285,0.5572,-0.0895,-56.5500,6.6000,-19.2000,3.2900,4.2200,-8.1500,0.0600,-0.0654,0.0033,3.3750,-28.7500,21.7500,139.0625,20.1250,-153.2500,0
269.882,9.4068,2.1261,0.4190,-0.0663,0.3853,0.0858,-56.1000,34.6500,25.8000,9.3805,1.2665,0.8906,-0.0285,0.5572,-0.0895,-56.5500,3.9000,-19.2000,3.3000,4.2500,-8.1400,0.0654,-0.0785,0.0055,2.2500,-28.0625,23.2500,139.1875,20.0625,-153.3125,0
269.887,9.4068,2.1261,0.4190,-0.0663,0.3853,0.0858,-56.8500,33.1500,26.4000,9.3398,1.5227,0.9074,-0.0741,0.5822,-0.0922,-56.5500,3.9000,-19.2000,3.3000,4.2500,-8.1400,0.0654,-0.0785,0.0055,2.2500,-28.0625,23.2500,139.1875,20.0625,-153.3125,0
269.895,9.4355,1.9872,0.3519,-0.1567,0.3872,0.0842,-56.8500,33.1500,26.4000,9.4475,1.4653,0.9002,-0.1204,0.5966,-0.0783,-55.2000,6.4500,-16.8000,3.2800,4.2300,-8.1800,0.0698,-0.0851,0.0076,2.2500,-28.0625,23.2500,139.1875,20.0000,-153.3125,0
269.900,9.4284,1.9154,0.3208,-0.2443,0.3693,0.0890,-56.8500,33.1500,26.4000,9.4475,1.4653,0.9002,-0.1204,0.5966,-0.0783,-55.2000,6.4500,-16.8000,3.2800,4.2300,-8.1800,0.0753,-0.0993,0.0131,2.2500,-28.0625,23.2500,139.1875,20.0000,-153.3750,0
269.907,9.5337,1.8890,0.2059,-0.3048,0.3549,0.0853,-56.8500,33.1500,26.4000,9.5313,1.6975,1.0798,-0.1090,0.6078,-0.0594,-55.2000,6.4500,-16.8000,3.2600,4.1800,-8.2000,0.0753,-0.0993,0.0131,2.2500,-28.0625,23.2500,139.1875,20.0000,-153.3750,0
269.915,9.5337,1.8890,0.2059,-0.3048,0.3549,0.0853,-55.5000,34.8000,27.0000,9.5361,1.7502,1.5443,-0.0922,0.6163,-0.0568,-55.5000,5.2500,-19.0500,3.1300,4.3000,-8.2200,0.0796,-0.1004,0.0164,2.2500,-28.0625,23.2500,139.1875,19.9375,-153.4375,0
269.920,9.5816,1.8172,0.3089,-0.4261,0.3147,0.0810,-55.5000,34.8000,27.0000,9.5361,1.7502,1.5443,-0.0922,0.6163,-0.0568,-55.5000,5.2500,-19.0500,3.1300,4.3000,-8.2200,0.0873,-0.1047,0.0196,2.2500,-28.0625,23.2500,139.1875,19.8750,-153.5000,0
269.927,9.5433,1.6927,0.6800,-0.5748,0.2830,0.0778,-55.8000,33.7500,27.7500,9.5241,1.5323,1.7669,-0.1386,0.6281,-0.0498,-55.5000,5.2500,-19.0500,3.2000,4.3300,-8.2100,0.0873,-0.1047,0.0196,2.2500,-28.0625,23.2500,139.1875,19.8750,-153.5000,0
269.932,9.5433,1.6927,0.6800,-0.5748,0.2830,0.0778,-55.8000,33.7500,27.7500,9.5241,1.5323,1.7669,-0.1386,0.6281,-0.0498,-56.7000,4.8000,-18.3000,3.2000,4.3300,-8.2100,0.0796,-0.1004,0.0273,3.0625,-27.6875,22.0625,139.3125,19.8125,-153.5625,0
269.937,9.3350,1.5514,1.0798,-0.6694,0.2819,0.0930,-54.9000,33.1500,26.8500,9.6391,1.3384,2.0638,-0.1426,0.6398,-0.0469,-56.7000,4.8000,-18.3000,3.2000,4.3000,-8.1900,0.0796,-0.1004,0.0273,3.0625,-27.6875,22.0625,139.3125,19.8125,-153.5625,0
269.941,9.3350,1.5514,1.0798,-0.6694,0.2819,0.0930,-54.9000,33.1500,26.8500,9.6391,1.3384,2.0638,-0.1426,0.6398,-0.0469,-56.7000,5.5500,-18.6000,3.2000,4.3000,-8.1900,0.0611,-0.0993,0.0316,3.0625,-27.6875,22.0625,139.3125,19.8125,-153.5625,0
269.947,9.4619,1.4820,1.3599,-0.7826,0.2982,0.1194,-55.6500,34.2000,26.1000,9.5792,1.0774,2.4828,-0.1823,0.6219,-0.0394,-56.7000,5.5500,-18.6000,3.2300,4.2800,-8.2100,0.0611,-0.0993,0.0316,3.0625,-27.6875,22.0625,139.3125,19.8125,-153.5625,0
269.952,9.4619,1.4820,1.3599,-0.7826,0.2982,0.1194,-55.6500,34.2000,26.1000,9.5505,0.9625,2.4684,-0.1823,0.6219,-0.0394,-56.1000,5.8500,-16.9500,3.2600,4.1700,-8.2400,0.0480,-0.1004,0.0404,3.0625,-27.6875,22.0625,139.3750,19.7500,-153.6250,0
269.957,9.5289,1.3575,1.5538,-0.8700,0.2891,0.1596,-55.6500,34.2000,26.1000,9.5505,0.9625,2.4684,-0.2785,0.6089,-0.0352,-56.1000,5.8500,-16.9500,3.2600,4.1700,-8.2400,0.0480,-0.1004,0.0404,3.0625,-27.6875,22.0625,139.3750,19.7500,-153.6250,0
269.966,9.6271,1.6113,1.6089,-0.9116,0.2803,0.2052,-55.3500,35.4000,27.1500,9.5744,1.1564,2.3296,-0.3139,0.5857,-0.0195,-56.2500,5.5500,-17.1000,3.2700,4.0800,-8.3000,0.0349,-0.0927,0.0371,3.0625,-27.6875,22.0625,139.3750,19.6875,-153.6250,0
269.972,9.6271,1.6113,1.6089,-0.9116,0.2803,0.2052,-55.3500,35.4000,27.1500,9.7540,1.3958,2.3607,-0.3139,0.5857,-0.0195,-55.2000,6.4500,-16.0500,3.2700,4.0800,-8.3000,0.0218,-0.0796,0.0393,3.0625,-27.6875,22.0625,139.4375,19.6875,-153.6875,0
269.977,9.5720,1.8124,1.5921,-0.9340,0.2494,0.2502,-55.2000,33.7500,27.3000,9.7540,1.3958,2.3607,-0.3238,0.5921,-0.0005,-55.2000,6.4500,-16.0500,3.2600,4.0900,-8.3200,0.0218,-0.0796,0.0393,3.0625,-27.6875,22.0625,139.4375,19.6875,-153.6875,0
269.982,9.5720,1.8124,1.5921,-0.9340,0.2494,0.2502,-55.2000,33.7500,27.3000,9.5960,1.4054,2.2601,-0.3389,0.5812,0.0093,-57.0000,7.5000,-16.8000,3.2400,4.1600,-8.3400,-0.0011,-0.0567,0.0436,3.7500,-27.3750,22.5625,139.4375,19.6250,-153.6875,0
269.987,9.6247,2.0901,1.5538,-0.9238,0.2086,0.2856,-56.2500,33.0000,28.8000,9.5960,1.4054,2.2601,-0.3389,0.5812,0.0093,-57.0000,7.5000,-16.8000,3.2400,4.1600,-8.3400,-0.0011,-0.0567,0.0436,3.7500,-27.3750,22.5625,139.4375,19.6250,-153.6875,0
269.996,9.5170,2.4325,1.6041,-0.8559,0.1852,0.2950,-54.3000,35.4000,28.2000,9.5002,1.4988,2.1380,-0.3344,0.6014,0.0144,-57.0000,7.5000,-16.8000,3.2700,4.1600,-8.3300,-0.0284,-0.0284,0.0436,3.7500,-27.3750,22.5625,139.5000,19.6250,-153.6875,0
270.001,9.5170,2.4325,1.6041,-0.8559,0.1852,0.2950,-54.3000,35.4000,28.2000,9.4619,1.6544,2.3032,-0.3344,0.6014,0.0144,-57.0000,7.5000,-16.8000,3.2700,4.1600,-8.3300,-0.0633,0.0000,0.0458,3.7500,-27.3750,22.5625,139.5000,19.6875,-153.6250,0
270.007,9.6127,2.9018,1.6041,-0.7655,0.1572,0.2872,-54.9000,33.4500,28.2000,9.4619,1.6544,2.3032,-0.2867,0.6129,0.0141,-56.7000,6.4500,-16.3500,3.2500,4.2100,-8.3400,-0.0633,0.0000,0.0458,3.7500,-27.3750,22.5625,139.5000,19.6875,-153.6250,0
270.016,9.5840,2.9018,1.6257,-0.6941,0.1495,0.2811,-54.9000,33.4500,28.2000,9.5481,1.6664,2.2386,-0.2369,0.6195,0.0173,-56.7000,6.4500,-16.3500,3.2200,4.2200,-8.4000,-0.0949,0.0196,0.0502,3.7500,-27.3750,22.5625,139.5625,19.6875,-153.6250,0
270.020,9.5840,2.9018,1.6257,-0.6941,0.1495,0.2811,-54.9000,33.4500,28.2000,9.6223,1.3767,2.2027,-0.2257,0.6360,0.0237,-56.7000,6.4500,-16.3500,3.2200,4.2200,-8.4000,-0.1254,0.0415,0.0524,3.7500,-27.3750,22.5625,139.5625,19.6875,-153.5625,0
270.027,9.4451,2.9161,1.6664,-0.5870,0.1601,0.2745,-54.6000,34.2000,28.9500,9.6223,1.3767,2.2027,-0.2257,0.6360,0.0237,-57.6000,5.4000,-15.4500,3.2500,4.1800,-8.4000,-0.1254,0.0415,0.0524,3.7500,-27.3750,22.5625,139.5625,19.6875,-153.5625,0
270.032,9.4451,2.9161,1.6664,-0.5870,0.1601,0.2745,-54.6000,34.2000,28.9500,9.6486,1.1779,2.4205,-0.2041,0.6582,0.0314,-57.6000,5.4000,-15.4500,3.2500,4.1800,-8.4000,-0.1647,0.0709,0.0589,3.7500,-27.3750,23.0000,139.6250,19.7500,-153.4375,0
270.037,9.5624,2.9305,1.6352,-0.4727,0.1892,0.2699,-55.8000,33.7500,29.5500,9.6486,1.1779,2.4205,-0.2041,0.6582,0.0314,-56.8500,4.9500,-15.4500,3.2500,4.1900,-8.4200,-0.1647,0.0709,0.0589,3.7500,-27.3750,23.0000,139.6250,19.7500,-153.4375,0
270.042,9.5624,2.9305,1.6352,-0.3874,0.1998,0.2710,-55.8000,33.7500,29.5500,9.5577,1.0487,2.3607,-0.2771,0.6707,0.0293,-57.3000,4.9500,-15.4500,3.2500,4.1900,-8.4200,-0.2062,0.1080,0.0589,3.7500,-27.3750,23.0000,139.6875,19.8125,-153.3125,0
270.047,9.5984,2.8156,1.5107,-0.3874,0.1998,0.2710,-54.4500,33.7500,30.1500,9.5577,1.0487,2.3607,-0.2771,0.6707,0.0293,-57.3000,4.9500,-15.9000,3.3200,3.9800,-8.4200,-0.2062,0.1080,0.0589,3.7500,-27.3750,23.0000,139.6875,19.8125,-153.3125,0
270.052,9.4739,2.6480,1.4868,-0.2920,0.2161,0.2785,-54.4500,33.7500,30.1500,9.6798,1.0415,2.3008,-0.3349,0.6848,0.0448,-57.3000,4.9500,-15.9000,3.3200,3.9800,-8.4200,-0.2585,0.1309,0.0535,3.7500,-27.3750,23.0000,139.6875,19.8750,-153.1875,0
270.057,9.4739,2.6480,1.4868,-0.2920,0.2161,0.2785,-54.6000,34.9500,29.7000,9.6798,1.0415,2.3008,-0.3349,0.6848,0.0448,-58.0500,4.9500,-14.7000,3.2800,4.2400,-8.4500,-0.2585,0.1309,0.0535,3.7500,-27.3750,23.0000,139.6875,19.8750,-153.1875,0
270.066,9.6534,2.7222,1.5730,-0.1799,0.2491,0.2883,-54.6000,34.9500,29.7000,9.6127,1.4940,2.3655,-0.3134,0.6989,0.0602,-57.9000,6.0000,-15.3000,3.3200,4.1300,-8.4900,-0.3043,0.1614,0.0524,3.7500,-27.3750,23.0000,139.7500,20.0000,-153.0000,0
270.071,9.6534,2.7222,1.5730,-0.1069,0.2337,0.2846,-54.6000,34.9500,29.7000,9.8090,1.6089,2.4876,-0.2249,0.7181,0.0858,-57.9000,6.0000,-15.3000,3.3200,4.1300,-8.4900,-0.3447,0.1974,0.0513,3.7500,-27.3750,23.0000,139.7500,20.1250,-152.8125,0
270.077,9.8641,2.7605,1.4126,-0.1069,0.2337,0.2846,-54.3000,33.4500,28.9500,9.8067,1.3671,2.7390,-0.2249,0.7181,0.0858,-58.2000,6.0000,-14.8500,3.2500,4.1400,-8.5000,-0.3447,0.1974,0.0513,3.7500,-27.3750,23.0000,139.7500,20.1250,-152.8125,0
270.082,9.8713,2.6408,1.3958,-0.0349,0.2230,0.2947,-54.3000,33.4500,28.9500,9.8067,1.3671,2.7390,-0.1244,0.7432,0.1063,-58.2000,6.0000,-14.8500,3.4000,4.0100,-8.6900,-0.4287,0.2945,0.0338,3.7500,-27.6875,22.0625,139.8125,20.2500,-152.5625,0
270.087,9.8713,2.6408,1.3958,-0.0349,0.2230,0.2947,-57.9000,34.6500,29.7000,9.8521,1.2498,2.7007,-0.1244,0.7432,0.1063,-58.2000,6.0000,-14.8500,3.4000,4.0100,-8.6900,-0.4287,0.2945,0.0338,3.7500,-27.6875,22.0625,139.8125,20.2500,-152.5625,0
270.095,9.8737,2.8587,1.5012,0.0400,0.2113,0.3040,-56.4000,33.9000,30.4500,9.8521,1.2498,2.7007,-0.1284,0.7839,0.1498,-56.5500,5.8500,-14.4000,3.4100,4.4000,-8.6100,-0.4287,0.2945,0.0338,3.7500,-27.6875,22.0625,139.8125,20.3750,-152.3125,0
270.100,9.8737,2.8587,1.5012,0.0472,0.2150,0.3142,-56.4000,33.9000,30.4500,9.9359,0.8164,2.9353,-0.0999,0.8154,0.2038,-56.5500,5.8500,-14.4000,3.4100,4.4000,-8.6100,-0.4287,0.2945,0.0338,3.7500,-27.6875,22.0625,139.8750,20.5625,-152.0625,0
270.107,9.9407,2.7605,1.4916,0.0472,0.2150,0.3142,-54.9000,33.9000,29.7000,10.2328,2.0159,2.8108,0.0741,0.8484,0.2230,-56.5500,5.8500,-14.4000,3.5000,4.0000,-8.8600,-0.4614,0.3785,0.0109,3.7500,-27.6875,22.0625,139.8125,20.8125,-151.7500,0
270.116,9.8689,2.6408,1.5897,0.0136,0.2308,0.3357,-55.6500,34.2000,30.0000,9.8067,1.9872,2.5522,0.2164,0.8015,0.1447,-58.6500,6.0000,-14.5500,2.6000,6.2500,-8.1700,-0.4505,0.4920,-0.0382,3.7500,-27.6875,22.0625,139.8125,20.8125,-151.7500,0
270.126,9.9958,2.5235,1.4940,-0.0216,0.2665,0.3648,-55.6500,34.2000,30.0000,10.0030,1.2234,2.9161,0.0999,0.8343,0.1663,-57.4500,6.0000,-12.7500,3.0100,5.1500,-8.5500,-0.4407,0.7167,-0.0185,3.7500,-27.6875,22.0625,139.7500,21.1250,-151.4375,0
270.131,10.0987,2.3966,0.9625,-0.0051,0.2372,0.3853,-55.6500,34.2000,30.0000,10.0030,1.2234,2.9161,0.0999,0.8343,0.1663,-57.4500,6.0000,-12.7500,3.0100,5.1500,-8.5500,-0.4407,0.7167,-0.0185,3.7500,-27.6875,22.0625,139.6875,21.5625,-151.1250,0
270.136,10.0987,2.3966,0.9625,-0.0051,0.2372,0.3853,-56.2500,31.8000,29.8500,10.0054,0.9840,2.5163,-0.0655,0.8335,0.1998,-59.1000,4.9500,-14.4000,3.2700,4.9600,-8.3700,-0.3807,0.8410,0.0316,3.3750,-27.6875,22.0625,139.6875,21.5625,-151.1250,0
270.141,9.9359,2.2601,0.8523,-0.0266,0.2116,0.3957,-56.2500,31.8000,29.8500,10.0054,0.9840,2.5163,-0.0655,0.8335,0.1998,-59.1000,4.9500,-14.4000,3.2700,4.9600,-8.3700,-0.3807,0.8410,0.0316,3.3750,-27.6875,22.0625,139.6250,22.0000,-150.8125,0
270.146,9.9359,2.2601,0.8523,-0.0266,0.2116,0.3957,-55.3500,33.1500,30.4500,9.6917,1.0319,2.6456,-0.2574,0.8351,0.1855,-58.2000,6.4500,-12.3000,3.3100,5.6200,-8.1300,-0.3807,0.8410,0.0316,3.3750,-27.6875,22.0625,139.6250,22.0000,-150.8125,0
270.151,9.8737,1.9393,0.9337,-0.0344,0.1996,0.3837,-56.8500,33.1500,30.4500,9.6917,1.0319,2.6456,-0.2574,0.8351,0.1855,-58.2000,6.4500,-12.3000,3.3100,5.6200,-8.1300,-0.3371,0.9599,0.0894,3.3750,-27.6875,22.0625,139.6250,22.5000,-150.5625,0
270.157,9.8737,1.9393,0.9337,-0.0344,0.1996,0.3837,-56.8500,33.1500,28.9500,9.5265,1.2210,2.5259,-0.3491,0.8596,0.1612,-58.2000,4.0500,-11.5500,3.2500,5.3500,-8.0200,-0.3371,0.9599,0.0894,3.3750,-27.6875,22.0625,139.6250,23.1250,-150.3750,0
270.166,9.8306,1.5275,0.9864,0.0115,0.2577,0.3605,-56.8500,33.9000,30.0000,9.6534,1.2546,2.5594,-0.4056,0.8881,0.1561,-57.4500,5.5500,-11.5500,3.4800,5.1500,-7.9600,-0.1942,1.1836,0.2771,3.3750,-27.6875,22.0625,139.6250,23.1250,-150.3750,0
270.176,10.0006,1.3024,0.6153,0.0490,0.2254,0.3317,-56.8500,33.9000,30.0000,9.7444,1.2378,2.6288,-0.4213,0.9046,0.1503,-57.4500,5.5500,-11.5500,3.5200,4.9800,-7.9400,-0.1254,1.3101,0.3807,3.3750,-27.6875,22.0625,139.6250,23.8750,-150.2500,0
270.181,9.8689,1.2234,0.1844,-0.0168,0.2137,0.3163,-56.8500,33.9000,30.0000,9.7444,1.2378,2.6288,-0.4213,0.9046,0.1503,-57.4500,5.5500,-11.5500,3.5200,4.9800,-7.9400,-0.1254,1.3101,0.3807,3.3750,-27.6875,22.0625,139.6250,23.8750,-150.2500,0
270.186,9.8689,1.2234,0.1844,-0.0168,0.2137,0.3163,-56.8500,33.9000,30.0000,9.7181,1.2234,2.5786,-0.4189,0.9334,0.1519,-58.8000,5.4000,-10.6500,3.7400,4.6300,-7.8500,-0.0796,1.4388,0.4614,2.2500,-28.0625,21.3750,139.7500,24.6875,-150.1250,0
270.191,9.8138,1.4054,-0.1484,-0.1471,0.1958,0.3208,-55.8000,33.3000,31.3500,9.7181,1.2234,2.5786,-0.4189,0.9334,0.1519,-58.8000,5.4000,-10.6500,3.7400,4.6300,-7.8500,-0.0796,1.4388,0.4614,2.2500,-28.0625,21.3750,139.7500,24.6875,-150.1250,0
270.196,9.8138,1.4054,-0.1484,-0.1471,0.1958,0.3208,-55.8000,33.3000,31.3500,9.5577,1.2019,2.5379,-0.4253,0.9598,0.1628,-58.8000,5.4000,-10.6500,3.8700,4.5400,-7.7600,-0.0687,1.5719,0.5301,2.2500,-28.0625,21.3750,139.8125,25.5625,-150.0000,0
270.201,9.8114,1.8435,-0.0359,-0.3395,0.1178,0.3437,-55.8000,34.8000,31.6500,9.5577,1.2019,2.5379,-0.4253,0.9598,0.1628,-58.8000,5.4000,-10.6500,3.8700,4.5400,-7.7600,-0.0633,1.7017,0.6010,2.2500,-28.0625,21.3750,139.9375,26.5625,-149.8750,0
270.207,10.1155,2.5714,0.1460,-0.5431,-0.0080,0.3605,-55.8000,34.8000,31.6500,9.7061,1.7933,2.4301,-0.4463,0.9824,0.1905,-58.0500,4.6500,-10.3500,3.9800,3.9000,-7.7700,-0.0633,1.7017,0.6010,2.2500,-28.0625,21.3750,140.0625,27.6250,-149.7500,0
270.217,10.8074,3.1556,0.0742,-0.6896,-0.1180,0.3523,-55.2000,33.7500,31.3500,10.3046,2.5379,1.5874,-0.4572,1.0323,0.2499,-58.8000,6.1500,-10.3500,4.1200,3.5400,-8.1600,-0.0622,1.8119,0.6872,2.2500,-28.0625,21.3750,140.0625,27.6250,-149.7500,0
270.226,10.9798,3.7086,-0.1077,-0.8087,-0.1873,0.3104,-55.6500,34.9500,30.4500,11.0780,1.3120,1.7047,-0.2222,1.0888,0.2694,-58.0500,5.8500,-8.8500,4.6700,5.8300,-8.6200,-0.1178,1.9177,0.7527,2.2500,-28.0625,21.3750,140.2500,28.7500,-149.5625,0
270.231,10.9798,3.7086,-0.1077,-0.8087,-0.1873,0.3104,-55.6500,34.9500,30.4500,11.0804,0.6273,1.6400,-0.2222,1.0888,0.2694,-58.0500,5.8500,-8.8500,4.6700,5.8300,-8.6200,-0.1178,1.9177,0.7527,2.2500,-28.0625,21.3750,140.2500,28.7500,-149.5625,0
270.236,10.8625,3.7445,-0.5411,-0.8298,-0.1348,0.2403,-55.6500,34.9500,30.4500,11.0804,0.6273,1.6400,-0.1833,1.1426,0.2366,-59.1000,4.2000,-9.6000,4.4000,5.2800,-8.0600,-0.0949,1.9537,0.7821,0.8750,-29.5000,21.3750,140.4375,29.9375,-149.4375,0
270.241,10.8625,3.7445,-0.5411,-0.8298,-0.1348,0.2403,-56.1000,33.4500,32.1000,10.5848,0.4429,0.6393,-0.3259,1.2095,0.1913,-59.1000,4.2000,-9.6000,4.4000,5.2800,-8.0600,-0.0949,1.9537,0.7821,0.8750,-29.5000,21.3750,140.4375,29.9375,-149.4375,0
270.246,10.4004,3.9552,-1.1971,-0.6297,-0.1418,0.1753,-56.1000,33.4500,32.1000,10.5848,0.4429,0.6393,-0.3259,1.2095,0.1913,-58.6500,2.4000,-9.7500,4.5600,5.1100,-7.7100,-0.0862,2.0529,0.9403,0.8750,-29.5000,21.3750,140.6875,31.1875,-149.3125,0
270.251,10.4004,3.9552,-1.1971,-0.6297,-0.1418,0.1753,-56.4000,33.9000,32.5500,10.5201,0.9601,0.1484,-0.4367,1.3006,0.2001,-58.6500,2.4000,-9.7500,4.5600,5.1100,-7.7100,-0.1309,2.1009,1.1476,0.8750,-29.5000,21.3750,141.0625,32.5000,-149.1875,0
270.257,10.2592,4.5633,-1.6233,-0.4860,-0.1953,0.1271,-56.4000,33.9000,32.5500,10.5201,0.9601,0.1484,-0.4367,1.3006,0.2001,-60.1500,4.8000,-8.7000,4.6000,4.5300,-8.0300,-0.1309,2.1009,1.1476,0.8750,-29.5000,21.3750,141.5000,33.9375,-149.1250,0
270.267,10.1466,5.1404,-1.8052,-0.4253,-0.3600,0.0621,-54.7500,34.8000,31.9500,10.9080,1.3072,-0.1269,-0.4938,1.4019,0.2531,-60.1500,4.8000,-8.7000,4.5900,4.7000,-8.1900,-0.0982,2.2602,1.3264,0.8750,-29.5000,21.3750,141.5000,33.9375,-149.1250,0
270.276,10.4244,5.4851,-2.1021,-0.3251,-0.5348,-0.0200,-55.6500,34.2000,30.7500,11.4634,1.1684,-0.4717,-0.3427,1.4946,0.2960,-58.2000,4.5000,-7.5000,4.4500,4.7500,-8.3300,0.0196,2.4936,1.4835,0.8750,-29.5000,21.3750,213.2500,35.5625,-149.1250,0
270.281,10.4244,5.4851,-2.1021,-0.3251,-0.5348,-0.0200,-54.6000,33.9000,30.0000,12.2009,0.6009,-0.5004,-0.2313,1.5769,0.2952,-58.2000,4.5000,-7.5000,4.4500,4.7500,-8.3300,0.0196,2.4936,1.4835,0.8750,-29.5000,21.3750,213.2500,35.5625,-149.1250,0
270.286,10.2711,5.3917,-2.4612,-0.1290,-0.7096,-0.1087,-54.6000,33.9000,30.0000,12.2009,0.6009,-0.5004,-0.2313,1.5769,0.2952,-58.8000,4.2000,-7.6500,4.7900,5.7100,-8.2500,0.1418,2.7402,1.6733,-2.0625,-28.3750,21.0000,210.1250,37.3125,-149.2500,0
270.291,10.2711,5.3917,-2.4612,-0.1290,-0.7096,-0.1087,-54.6000,33.9000,30.0000,12.5241,0.1077,-1.5945,-0.2547,1.6952,0.2473,-58.8000,4.2000,-7.6500,4.7900,5.7100,-8.2500,0.1418,2.7402,1.6733,-2.0625,-28.3750,21.0000,210.1250,37.3125,-149.2500,0
270.296,10.1993,5.1691,-3.2657,0.1964,-0.8202,-0.2158,-54.6000,33.9000,30.0000,12.5241,0.1077,-1.5945,-0.2547,1.6952,0.2473,-59.5500,4.2000,-6.6000,4.8100,5.5400,-8.1300,0.2498,3.0052,1.9646,-2.0625,-28.3750,21.0000,206.7500,39.3125,-149.4375,0
270.301,10.1993,5.1691,-3.2657,0.1964,-0.8202,-0.2158,-53.7000,35.5500,29.8500,13.1849,0.0958,-2.0375,-0.3504,1.7824,0.2094,-59.5500,4.2000,-6.6000,4.8100,5.5400,-8.1300,0.2782,3.2474,2.3202,-2.0625,-28.3750,21.0000,203.1250,41.5000,-149.7500,0
270.307,10.0940,5.1571,-3.8858,0.5356,-0.9848,-0.3227,-53.7000,35.5500,29.8500,13.8816,0.3855,-2.3296,-0.3504,1.7824,0.2094,-58.3500,3.9000,-4.8000,4.9100,5.3800,-8.1900,0.2782,3.2474,2.3202,-2.0625,-28.3750,21.0000,199.3750,43.8750,-150.3125,0
270.317,10.0221,4.8890,-4.1635,0.7821,-1.2281,-0.4167,-53.7000,34.8000,29.8500,13.8816,0.3855,-2.3296,-0.5396,1.8429,0.2313,-59.7000,4.5000,-5.7000,4.9200,5.8600,-8.5100,0.3578,3.3936,2.7118,-2.0625,-28.3750,21.0000,199.3750,43.8750,-150.3125,0
270.327,9.4691,4.5921,-4.0223,0.9683,-1.4930,-0.5172,-53.7000,35.2500,29.8500,14.3987,0.9433,-3.2848,-0.7048,1.8423,0.2984,-58.0500,2.2500,-3.6000,4.9500,6.5300,-8.6400,0.5901,3.5070,3.1329,-2.0625,-28.3750,21.0000,195.3125,46.4375,-151.1875,0
270.331,9.4691,4.5921,-4.0223,0.9683,-1.4930,-0.5172,-54.3000,36.1500,28.9500,14.3987,0.9433,-3.2848,-0.7863,1.8077,0.3419,-58.0500,2.2500,-3.6000,4.9500,6.5300,-8.6400,0.5901,3.5070,3.1329,-2.0625,-28.3750,21.0000,195.3125,46.4375,-151.1875,0
270.336,9.4523,4.2617,-3.5889,1.0496,-1.7142,-0.6193,-54.3000,36.1500,28.9500,13.9534,1.3360,-3.3830,-0.7863,1.8077,0.3419,-58.0500,2.2500,-3.6000,4.9900,6.7300,-8.4500,0.9207,3.7405,3.6401,-5.7500,-28.0625,21.7500,190.7500,49.2500,-152.6250,0
270.341,9.4523,4.2617,-3.5889,1.0496,-1.7142,-0.6193,-54.3000,36.1500,28.9500,13.9534,1.3360,-3.3830,-0.8215,1.6782,0.3216,-58.0500,2.2500,-3.6000,4.9900,6.7300,-8.4500,0.9207,3.7405,3.6401,-5.7500,-28.0625,21.7500,190.7500,49.2500,-152.6250,0
270.346,8.4467,3.4884,-3.4309,0.9614,-1.8082,-0.7029,-54.3000,36.1500,28.9500,12.7012,2.2146,-2.4588,-0.8215,1.6782,0.3216,-58.0500,2.7000,-2.1000,4.5200,7.1900,-8.8800,1.3166,3.7285,3.9957,-5.7500,-28.0625,21.7500,185.8750,52.0625,-154.6250,0
270.351,8.4467,3.4884,-3.4309,0.9614,-1.8082,-0.7029,-52.3500,37.9500,27.9000,12.7012,2.2146,-2.4588,-0.8306,1.5394,0.2198,-58.0500,2.7000,-2.1000,4.5200,7.1900,-8.8800,1.7759,3.6445,4.2957,-5.7500,-28.0625,21.7500,180.6875,54.8750,-157.4375,0
270.357,9.2680,2.6504,-2.3200,0.7165,-1.7448,-0.8039,-52.3500,37.9500,27.9000,10.9894,3.0718,-1.7454,-0.6555,1.4512,0.0282,-58.0500,2.7000,-2.1000,5.3500,7.9900,-8.1300,1.7759,3.6445,4.2957,-5.7500,-28.0625,21.7500,175.2500,57.7500,-160.9375,0
270.367,9.6893,1.6424,-1.5036,0.5335,-1.8143,-0.9334,-50.5500,39.4500,25.0500,9.3398,4.1348,0.9337,-0.1863,1.2279,-0.1980,-59.7000,1.6500,1.6500,6.3600,7.1800,-7.8200,2.1958,3.8943,4.4070,-5.7500,-28.0625,21.7500,175.2500,57.7500,-160.9375,0
270.377,10.7188,0.6033,-0.4262,0.4938,-1.9505,-1.0627,-50.8500,37.5000,25.6500,6.7828,6.0549,5.9352,0.0658,1.4115,-0.2510,-58.9500,3.3000,1.2000,7.7100,6.2900,-7.3800,2.3366,4.1899,4.1877,-5.7500,-28.0625,21.7500,170.0625,60.6875,-164.8125,0
270.382,10.9056,-0.0048,-0.2825,0.3328,-1.8772,-1.1788,-49.9500,39.4500,24.0000,6.7828,6.0549,5.9352,0.0658,1.4115,-0.2510,-58.9500,3.3000,1.2000,7.7100,6.2900,-7.3800,2.3366,4.1899,4.1877,-5.7500,-28.0625,21.7500,165.6875,63.5000,-168.5625,0
270.387,10.9056,-0.0048,-0.2825,0.3328,-1.8772,-1.1788,-49.6500,40.8000,22.8000,6.5673,5.9089,8.9040,0.3797,1.6012,-0.1737,-58.9500,2.8500,3.0000,18.3500,3.8700,-8.7700,2.1642,4.3840,3.5179,-13.7500,-26.5625,18.5625,165.6875,63.5000,-168.5625,0
270.392,11.0588,-0.4166,0.7039,-0.3786,-1.6702,-1.2804,-49.6500,40.8000,22.8000,6.5673,5.9089,8.9040,0.3797,1.6012,-0.1737,-58.9500,2.8500,3.0000,18.3500,3.8700,-8.7700,2.1642,4.3840,3.5179,-13.7500,-26.5625,18.5625,162.6250,66.0625,-171.5000,0
270.397,11.0588,-0.4166,0.7039,-0.3786,-1.6702,-1.2804,-49.6500,40.8000,22.8000,7.8841,5.0542,12.3254,1.0168,1.7800,-0.0544,-56.5500,1.9500,2.8500,18.6300,5.4700,-8.5600,1.5762,4.2302,2.4980,-13.7500,-26.5625,18.5625,162.6250,66.0625,-171.5000,0
270.402,11.6669,-0.3687,1.7861,-1.1125,-1.5428,-1.3624,-49.6500,40.8000,22.8000,7.8841,5.0542,12.3254,1.0168,1.7800,-0.0544,-56.5500,1.9500,2.8500,18.6300,5.4700,-8.5600,0.9457,3.5016,1.5970,-13.7500,-26.5625,18.5625,160.8125,68.0625,-173.5000,0
270.408,11.6669,-0.3687,1.7861,-1.1125,-1.5428,-1.3624,-46.2000,40.6500,22.2000,11.2863,4.4508,11.8633,1.3014,1.3691,-0.0895,-58.0500,0.7500,4.8000,15.3000,10.5000,-9.7300,0.9457,3.5016,1.5970,-13.7500,-26.5625,18.5625,159.5000,69.6250,-175.1250,0
270.417,12.7515,0.2538,2.9353,-1.5705,-1.4903,-1.3901,-48.0000,43.2000,21.4500,11.4610,3.6751,9.5553,1.5207,0.8154,-0.1799,-56.8500,1.9500,4.8000,12.5600,10.9600,-11.3900,0.7690,2.6889,1.1214,-13.7500,-26.5625,18.5625,159.5000,69.6250,-175.1250,0
270.427,13.2232,0.8571,3.1268,-1.6470,-1.3600,-1.3765,-47.1000,45.0000,19.9500,10.7548,2.5833,8.0661,0.8809,0.3139,-0.2558,-56.8500,1.9500,4.8000,7.4000,6.3700,-19.0800,0.7418,1.6177,1.4181,-13.7500,-26.5625,18.5625,158.0625,70.5625,-177.5625,0
270.432,13.5703,0.7638,2.9497,-1.3720,-1.1778,-1.3137,-47.1000,45.0000,19.9500,10.7548,2.5833,8.0661,0.8809,0.3139,-0.2558,-56.8500,1.9500,4.8000,7.4000,6.3700,-19.0800,0.7418,1.6177,1.4181,-13.7500,-26.5625,18.5625,158.0625,70.5625,-177.5625,0
270.437,13.5703,0.7638,2.9497,-1.3720,-1.1778,-1.3137,-47.5500,44.2500,21.0000,8.3246,0.4070,5.5115,0.3810,0.1061,-0.3064,-56.1000,0.7500,4.3500,3.0300,15.0400,-15.1700,0.2007,-0.0687,1.3766,-21.1875,-22.1875,17.6875,157.3750,70.5625,-179.8125,0
270.441,12.7826,0.8763,3.1388,-1.0504,-1.0214,-1.2377,-47.5500,44.2500,21.0000,8.3246,0.4070,5.5115,0.3810,0.1061,-0.3064,-56.1000,0.7500,4.3500,3.0300,15.0400,-15.1700,0.2007,-0.0687,1.3766,-21.1875,-22.1875,17.6875,157.3750,70.5625,-179.8125,0
270.447,12.7826,0.8763,3.1388,-1.0504,-1.0214,-1.2377,-47.5500,44.2500,21.0000,8.9519,0.3591,3.1771,0.3861,-0.0490,-0.3997,-56.1000,0.7500,4.3500,2.6900,16.0000,-10.7400,0.6174,-1.9962,0.6229,-21.1875,-22.1875,17.6875,156.5000,69.4375,178.8125,0
270.451,11.7747,1.7526,3.3016,-0.6558,-0.8362,-1.2124,-47.5500,44.2500,21.0000,7.1563,0.6057,4.1779,0.3861,-0.0490,-0.3997,-56.1000,0.7500,4.3500,2.6900,16.0000,-10.7400,0.8323,-2.7282,-0.2749,-21.1875,-22.1875,17.6875,155.9375,67.9375,178.8125,0
270.458,11.7747,1.7526,3.3016,-0.3520,-0.8319,-1.2127,-47.1000,43.0500,20.2500,7.1563,0.6057,4.1779,0.3536,-0.1948,-0.4466,-57.9000,1.3500,4.9500,-1.5800,7.2600,-3.8600,0.8323,-2.7282,-0.2749,-21.1875,-22.1875,17.6875,155.8125,66.3750,179.5000,0
270.467,10.7763,2.5379,3.1125,-0.3520,-0.8319,-1.2127,-48.4500,43.9500,18.3000,6.0190,1.2713,4.7597,0.3293,-0.3576,-0.3882,-58.8000,2.7000,4.3500,-2.7500,6.8600,-1.7400,0.6370,-2.8034,-0.7167,-21.1875,-22.1875,17.6875,155.8125,66.3750,179.5000,0
270.477,9.7420,3.2729,2.8347,-0.2577,-0.7354,-1.2652,-47.7000,44.4000,19.3500,5.2050,1.0822,4.2760,0.2230,-0.5105,-0.2353,-57.0000,2.1000,1.6500,-3.8100,7.3200,0.1600,0.2029,-2.5667,-1.2915,-21.1875,-22.1875,17.6875,156.3750,64.9375,-179.0000,0
270.482,9.8545,3.5913,2.4181,-0.2577,-0.7354,-1.2652,-47.7000,44.4000,19.3500,4.8818,0.6919,3.5817,0.3166,-0.7013,-0.1156,-57.0000,2.1000,1.6500,-3.8100,7.3200,0.1600,0.2029,-2.5667,-1.2915,-21.1875,-22.1875,17.6875,156.3750,64.9375,-179.0000,0
270.487,10.4124,3.6559,1.7813,-0.0021,-0.7805,-1.3598,-47.1000,43.5000,18.4500,4.8818,0.6919,3.5817,0.3166,-0.7013,-0.1156,-58.3500,2.7000,1.8000,-3.4300,7.7100,0.4000,-0.5869,-1.6450,-2.1271,-23.0625,-20.2500,17.5625,158.0625,64.0000,-176.2500,0
270.492,10.4124,3.6559,1.7813,-0.0021,-0.7805,-1.3598,-47.1000,43.5000,18.4500,5.0063,1.3408,5.0159,0.6462,-0.9840,-0.0778,-58.3500,2.7000,1.8000,-3.4300,7.7100,0.4000,-0.5869,-1.6450,-2.1271,-23.0625,-20.2500,17.5625,158.0625,64.0000,-176.2500,0
270.497,10.0772,3.2489,1.2785,0.1990,-0.7421,-1.4458,-46.0500,43.5000,19.2000,5.0063,1.3408,5.0159,0.6462,-0.9840,-0.0778,-56.2500,3.3000,1.6500,-0.4800,8.4700,-1.2000,-1.1836,-0.4058,-3.0129,-23.0625,-20.2500,17.5625,160.8125,63.6250,-172.2500,0
270.502,10.0772,3.2489,1.2785,0.1990,-0.7421,-1.4458,-46.0500,43.5000,19.2000,5.2720,2.3607,5.0374,0.6142,-1.2737,-0.0608,-56.2500,3.3000,1.6500,-0.4800,8.4700,-1.2000,-1.3025,0.2727,-3.7688,-23.0625,-20.2500,17.5625,164.0625,63.3750,-167.3750,0
270.508,9.4427,3.2178,0.3519,0.2848,-0.7256,-1.4687,-46.0500,43.5000,19.2000,5.2720,2.3607,5.0374,0.6142,-1.2737,-0.0608,-56.5500,3.0000,0.6000,1.5100,7.6200,-2.6700,-1.3025,0.2727,-3.7688,-23.0625,-20.2500,17.5625,167.4375,62.8750,-162.1250,0
270.517,9.5193,3.1364,-0.6345,0.5788,-0.8247,-1.4101,-45.4500,44.4000,18.3000,5.5282,1.8531,6.0094,0.8540,-1.5609,-0.0797,-56.5500,3.0000,0.6000,2.1800,5.0500,-4.5400,-1.2217,0.1636,-4.2564,-23.0625,-20.2500,17.5625,167.4375,62.8750,-162.1250,0
270.527,9.2847,2.9018,-0.8116,0.8881,-0.7975,-1.3078,-44.2500,42.3000,17.7000,5.6814,1.4916,5.7940,1.1493,-1.7304,-0.1375,-58.3500,3.0000,-0.6000,2.7900,3.0100,-6.5600,-1.1792,-0.3818,-4.4637,-23.0625,-20.2500,17.5625,171.0000,61.8125,-157.1875,0
270.532,9.2847,2.9018,-0.8116,0.8881,-0.7975,-1.3078,-44.2500,42.3000,17.7000,5.7102,0.9313,5.6383,1.2601,-1.8274,-0.1735,-58.3500,3.0000,-0.6000,2.7900,3.0100,-6.5600,-1.1792,-0.3818,-4.4637,-23.0625,-20.2500,17.5625,174.7500,60.3125,-152.8125,0
270.537,9.2656,2.4517,-0.1891,1.1586,-0.6971,-1.2081,-45.0000,42.3000,19.2000,5.7102,0.9313,5.6383,1.2601,-1.8274,-0.1735,-58.3500,3.0000,-0.6000,3.4900,1.4100,-7.7100,-1.2926,-0.9021,-4.4440,-19.2500,-22.0000,19.5625,174.7500,60.3125,-152.8125,0
270.542,9.2656,2.4517,-0.1891,1.1586,-0.6971,-1.2081,-45.0000,42.3000,19.2000,6.3997,0.4334,5.5354,1.2921,-1.9513,-0.1791,-58.3500,3.0000,-0.6000,3.4900,1.4100,-7.7100,-1.2926,-0.9021,-4.4440,-19.2500,-22.0000,19.5625,178.7500,58.5000,-149.0625,0
270.547,9.0860,2.1213,0.8068,1.4037,-0.7368,-1.1181,-45.4500,41.7000,17.5500,6.3997,0.4334,5.5354,1.2921,-1.9513,-0.1791,-57.4500,3.6000,-1.6500,4.1000,0.4200,-8.4400,-1.5250,-1.3341,-4.2597,-19.2500,-22.0000,19.5625,178.7500,58.5000,-149.0625,0
270.552,9.0860,2.1213,0.8068,1.4037,-0.7368,-1.1181,-45.4500,41.7000,17.5500,6.8498,-0.2251,5.1380,1.2670,-2.0526,-0.1551,-57.4500,3.6000,-1.6500,4.1000,0.4200,-8.4400,-1.6395,-1.7977,-3.8888,-19.2500,-22.0000,19.5625,182.8750,56.5000,-146.1250,0
270.558,7.0390,2.3463,1.8771,1.7315,-0.5636,-1.0099,-45.4500,41.7000,17.5500,6.8929,-0.6416,5.5617,1.1620,-2.1762,-0.0765,-57.9000,3.6000,-3.0000,4.9000,1.2500,-9.3800,-1.6395,-1.7977,-3.8888,-19.2500,-22.0000,19.5625,186.6875,54.4375,-144.1875,0
270.567,10.1299,1.6400,1.1061,1.7259,-0.1588,-0.9366,-45.4500,41.7000,17.5500,7.4579,-1.1420,5.9855,1.1620,-2.1762,-0.0765,-56.8500,4.9500,-4.3500,4.9300,1.1100,-9.4000,-1.4388,-2.2558,-3.3358,-19.2500,-22.0000,19.5625,186.6875,54.4375,-144.1875,0
270.577,8.3199,1.5921,1.0104,1.9228,-0.7586,-0.8402,-42.4500,41.2500,16.6500,8.2935,-1.3982,6.3686,0.6075,-2.5141,0.1631,-56.7000,4.5000,-4.9500,4.7300,0.6600,-9.3500,-1.0559,-2.6289,-2.7413,-19.2500,-22.0000,19.5625,190.1250,52.3125,-143.1250,0
