timestamp,thigh_acc_x,thigh_acc_y,thigh_acc_z,thigh_gyro_x,thigh_gyro_y,thigh_gyro_z,thigh_mag_x,thigh_mag_y,thigh_mag_z,shank_acc_x,shank_acc_y,shank_acc_z,shank_gyro_x,shank_gyro_y,shank_gyro_z,shank_mag_x,shank_mag_y,shank_mag_z,foot_acc_x,foot_acc_y,foot_acc_z,foot_gyro_x,foot_gyro_y,foot_gyro_z,foot_mag_x,foot_mag_y,foot_mag_z,foot_euler_x,foot_euler_y,foot_euler_z,perturbation_event
1776971245.976,10.3765,0.7685,0.9098,-0.4794,1.5378,0.8535,-28.2,-2.55,50.55,9.9766,1.9465,0.9912,-0.3056,0.0144,0.3091,-83.7,-17.7,7.2,7.59,-2.09,-7.19,-0.2323,0.5258,0.0044,-21.5625,21.5625,25.1875,326.625,43.9375,169.9375,0
1776971245.981,10.3765,0.7685,0.9098,-0.4794,1.5378,0.8535,-28.2,-2.55,50.55,9.9766,1.9465,0.9912,-0.3712,-0.0554,0.3107,-85.05,-18.3,5.55,6.11,-1.98,-7.31,-0.1778,0.4811,-0.1734,-21.5625,21.5625,25.1875,306.625,44.25,170.0625,0
1776971245.987,10.6087,0.5986,1.2737,-0.5321,1.5815,0.8847,-28.95,-3.75,52.65,10.0221,1.9704,0.8595,-0.4783,-0.097,0.2934,-84.45,-18.15,7.2,6.61,-2.26,-7.11,-0.192,0.48,-0.3251,-21.5625,21.5625,25.1875,307.1875,44.5625,170.3125,0
1776971245.992,10.6087,0.5986,1.2737,-0.5321,1.5815,0.8847,-28.95,-3.75,52.65,10.0221,1.9704,0.8595,-0.4783,-0.097,0.2934,-84.45,-18.15,7.2,6.61,-2.26,-7.11,-0.192,0.48,-0.3251,-21.5625,21.5625,25.1875,307.9375,44.8125,170.6875,0
1776971246.001,10.7978,-0.2203,1.2641,-0.6334,1.6198,0.9398,-28.95,-3.75,52.65,10.2807,1.9034,0.4812,-0.6305,-0.0163,0.2723,-84.45,-18.15,7.2,6.33,-2.02,-6.86,-0.2705,0.468,-0.5007,-21.5625,21.5625,25.1875,307.9375,44.8125,170.6875,0
1776971246.011,11.2456,-0.9529,1.2737,-0.8108,1.6606,0.9838,-27.6,-4.5,53.7,10.3262,2.2242,0.6129,-0.6243,-0.1705,0.2467,-83.85,-19.5,4.8,7.15,-1.26,-7.49,-0.4265,0.4222,-0.5967,-21.5625,21.5625,25.1875,308.875,45.125,171.25,0
1776971246.016,11.9471,-0.8021,0.5411,-1.0693,1.6968,1.0488,-27.0,-4.65,54.6,11.0516,2.4445,0.1939,-0.648,-0.2137,0.2198,-83.85,-19.5,4.8,7.15,-1.26,-7.49,-0.4265,0.4222,-0.5967,-21.5625,21.5625,25.1875,310.0625,45.4375,171.8125,0
1776971246.021,11.9471,-0.8021,0.5411,-1.0693,1.6968,1.0488,-27.0,-4.65,54.6,11.0516,2.4445,0.1939,-0.648,-0.2137,0.2198,-83.1,-18.3,6.15,5.47,-1.3,-8.58,-0.5552,0.516,-0.6109,-23.0625,21.1875,24.75,310.0625,45.4375,171.8125,0
1776971246.026,12.6079,-0.5962,-0.3543,-1.3869,1.7243,1.1335,-26.1,-4.8,54.75,11.4682,2.727,-0.6273,-0.5958,-0.2721,0.2036,-83.1,-18.3,6.15,5.47,-1.3,-8.58,-0.5552,0.516,-0.6109,-23.0625,21.1875,24.75,311.25,46.0,172.4375,0
1776971246.031,12.6079,-0.5962,-0.3543,-1.3869,1.7243,1.1335,-25.95,-6.15,53.55,11.4682,2.727,-0.6273,-0.5958,-0.2721,0.2036,-84.15,-19.95,6.6,5.43,0.63,-8.87,-0.5432,0.8803,-0.6665,-23.0625,21.1875,24.75,311.25,46.0,172.4375,0
1776971246.036,13.0484,-0.3136,-1.0151,-1.663,1.7525,1.2438,-25.95,-6.15,53.55,11.5209,3.2561,-0.9697,-0.4319,-0.3579,0.1732,-84.15,-19.95,6.6,5.43,0.63,-8.87,-0.4669,1.4977,-0.7374,-23.0625,21.1875,24.75,312.5,46.875,173.0,0
1776971246.042,13.3094,0.4381,-1.4605,-1.8727,1.809,1.4067,-25.2,-6.45,53.25,11.5209,3.2561,-0.9697,-0.4319,-0.3579,0.1732,-85.05,-17.55,4.8,4.89,0.76,-9.38,-0.4669,1.4977,-0.7374,-23.0625,21.1875,24.75,313.25,48.25,173.3125,0
1776971246.051,13.3094,0.4381,-1.4605,-1.9761,1.8325,1.5327,-25.2,-6.45,53.25,11.8106,4.039,-1.6903,-0.3696,-0.5196,0.1236,-83.25,-20.1,4.2,3.66,2.35,-9.2,-0.0305,2.4184,-0.7439,-23.0625,21.1875,24.75,313.25,48.25,173.3125,0
1776971246.061,12.1123,1.6759,-2.7653,-1.8429,1.9049,1.5993,-24.15,-9.15,55.35,11.9926,4.1587,-1.9848,-0.4852,-0.8508,0.0807,-85.05,-19.05,3.3,3.3,5.09,-5.2,0.2793,3.0336,-0.5018,-23.0625,21.1875,24.75,313.5625,49.9375,173.25,0
1776971246.066,12.1123,1.6759,-2.7653,-1.8429,1.9049,1.5993,-24.15,-9.15,55.35,12.536,2.4804,-2.4588,-0.3906,-1.3315,0.0661,-85.05,-19.05,3.3,3.3,5.09,-5.2,0.2793,3.0336,-0.5018,-23.0625,21.1875,24.75,313.5625,49.9375,173.25,0
1776971246.071,10.7859,1.9201,-1.64,-1.5295,2.0177,1.6209,-23.25,-9.3,54.15,12.536,2.4804,-2.4588,-0.3906,-1.3315,0.0661,-85.05,-19.05,3.3,4.68,0.93,-9.18,0.5127,3.6597,-0.9054,-23.5,20.375,25.1875,313.875,52.0,173.3125,0
1776971246.076,10.7859,1.9201,-1.64,-1.5295,2.0177,1.6209,-23.25,-9.3,54.15,12.1937,1.3408,-1.5562,-0.0469,-1.8202,0.0943,-85.05,-19.05,3.3,4.68,0.93,-9.18,0.5127,3.6597,-0.9054,-23.5,20.375,25.1875,313.875,52.0,173.3125,0
1776971246.081,10.1203,2.217,-0.7661,-1.1349,2.0853,1.5679,-20.1,-11.4,54.9,11.1833,1.0798,-0.8978,-0.0469,-1.8202,0.0943,-84.75,-19.35,3.75,12.19,-3.44,-6.58,0.4396,4.0208,-1.7759,-23.5,20.375,25.1875,314.75,54.375,174.0,0
1776971246.088,10.1203,2.217,-0.7661,-1.1349,2.0853,1.5679,-20.1,-11.4,54.9,11.1833,1.0798,-0.8978,0.0986,-2.0792,0.0823,-84.75,-19.35,3.75,7.6,1.81,-7.37,0.6469,4.8618,-0.5825,-23.5,20.375,25.1875,314.75,57.0625,173.75,0
1776971246.092,9.8282,2.0303,0.2969,-0.8271,2.113,1.4695,-20.85,-12.45,55.65,10.2472,0.9649,-0.7494,0.2289,-2.2543,0.0115,-84.75,-19.35,3.75,7.6,1.81,-7.37,0.6469,4.8618,-0.5825,-23.5,20.375,25.1875,314.1875,59.6875,172.3125,0
1776971246.101,9.9862,2.1332,1.3838,-0.6371,2.1242,1.3587,-20.7,-11.25,57.0,9.1387,1.2617,0.2322,0.2619,-2.4912,-0.0986,-85.95,-18.9,0.45,9.78,1.01,-7.83,0.5552,4.8738,0.6654,-23.5,20.375,25.1875,314.1875,59.6875,172.3125,0
1776971246.111,10.5058,1.7885,2.9856,-0.5002,2.1658,1.2998,-20.7,-11.25,57.0,8.1283,1.3767,1.7214,0.2241,-2.424,-0.2028,-85.05,-19.05,1.05,10.34,0.42,-8.16,0.9163,5.1684,0.9414,-23.5,20.375,25.1875,313.25,62.4375,170.0625,0
1776971246.116,10.5058,1.7885,2.9856,-0.5002,2.1658,1.2998,-20.7,-11.25,57.0,8.1283,1.3767,1.7214,0.2241,-2.424,-0.2028,-85.05,-19.05,1.05,10.34,0.42,-8.16,0.9163,5.1684,0.9414,-23.5,20.375,25.1875,312.0,65.1875,166.9375,0
1776971246.121,10.7452,1.1325,4.288,-0.3709,2.2271,1.2737,-17.85,-12.9,57.75,8.6167,1.4676,2.5714,0.1617,-2.2034,-0.3467,-87.0,-18.9,-1.65,12.62,-0.37,-8.02,1.213,5.2229,1.1356,-27.5,19.5625,18.5,312.0,65.1875,166.9375,0
1776971246.126,10.7452,1.1325,4.288,-0.3709,2.2271,1.2737,-17.85,-12.9,57.75,8.6167,1.4676,2.5714,0.1617,-2.2034,-0.3467,-87.0,-18.9,-1.65,12.62,-0.37,-8.02,1.213,5.2229,1.1356,-27.5,19.5625,18.5,310.6875,67.6875,163.0625,0
1776971246.131,10.0293,0.7278,5.3893,-0.3893,2.3222,1.2718,-16.95,-14.55,58.35,9.3877,0.9912,3.4093,0.0408,-2.1168,-0.5025,-85.95,-17.7,-0.9,13.17,0.13,-7.87,1.3188,4.9884,1.2065,-27.5,19.5625,18.5,310.6875,67.6875,163.0625,0
1776971246.136,10.0293,0.7278,5.3893,-0.3893,2.3222,1.2718,-16.95,-14.55,58.35,9.3877,0.9912,3.4093,0.0408,-2.1168,-0.5025,-85.95,-17.7,-0.9,13.17,0.13,-7.87,1.2425,4.816,1.2392,-27.5,19.5625,18.5,309.5,69.9375,158.4375,0
1776971246.142,10.8314,-0.0144,6.9001,-0.3339,2.3566,1.3398,-15.75,-12.9,58.5,9.7133,0.316,3.893,0.0437,-2.0206,-0.6928,-86.1,-18.0,-2.55,14.6,-0.68,-9.61,1.2425,4.816,1.2392,-27.5,19.5625,18.5,308.4375,72.0625,152.75,0
1776971246.151,10.3238,-0.0455,7.592,-0.1503,2.3369,1.3566,-15.3,-15.15,59.55,9.8426,-1.2378,3.8307,0.0965,-1.8714,-0.8471,-87.0,-16.95,-3.75,19.26,0.19,-12.84,1.1268,4.7909,1.2948,-27.5,19.5625,18.5,308.4375,72.0625,152.75,0
1776971246.161,10.1514,-1.7478,8.2911,-0.125,2.2012,1.3885,-15.3,-15.15,59.55,10.635,-1.822,3.3303,0.1298,-1.7139,-0.9494,-87.0,-16.95,-3.75,17.44,-0.08,-13.07,0.9861,4.7887,1.2152,-27.5,19.5625,18.5,307.625,74.0,145.8125,0
1776971246.166,10.1514,-1.7478,8.2911,-0.125,2.2012,1.3885,-15.3,-15.15,59.55,10.635,-1.822,3.3303,0.1298,-1.7139,-0.9494,-87.0,-16.95,-3.75,17.44,-0.08,-13.07,0.9861,4.7887,1.2152,-27.5,19.5625,18.5,306.6875,75.3125,138.25,0
1776971246.171,9.2488,-2.4277,7.8913,-0.0016,2.0515,1.3467,-15.3,-15.15,59.55,11.7196,-1.2234,3.2034,0.1772,-1.5593,-1.0365,-88.65,-16.5,-6.0,14.38,0.68,-12.1,0.9098,3.9793,1.3046,-30.5,22.1875,7.5,306.6875,75.3125,138.25,0
1776971246.176,9.2488,-2.4277,7.8913,-0.0016,2.0515,1.3467,-15.3,-15.15,59.55,11.7196,-1.2234,3.2034,0.1772,-1.5593,-1.0365,-88.65,-16.5,-6.0,14.38,0.68,-12.1,0.9098,3.9793,1.3046,-30.5,22.1875,7.5,306.6875,75.3125,138.25,0
1776971246.181,8.9639,-3.4285,7.7835,0.04,1.8788,1.2812,-10.35,-15.9,61.8,12.5911,-0.2825,3.2346,0.2838,-1.4581,-1.1218,-88.65,-16.5,-6.0,5.83,1.71,-10.43,1.1596,2.8503,1.4355,-30.5,22.1875,7.5,305.5,75.875,131.0,0
1776971246.188,7.4555,-4.0869,7.2784,0.0341,1.5207,1.1295,-10.35,-15.9,61.8,13.2974,0.0311,3.5027,0.3757,-1.3888,-1.178,-88.65,-16.5,-6.0,-1.94,0.69,-10.53,1.5479,2.0028,1.6864,-30.5,22.1875,7.5,303.8125,75.8125,124.375,0
1776971246.193,7.4555,-4.0869,7.2784,0.0341,1.5207,1.1295,-10.35,-15.9,62.1,13.2974,0.0311,3.5027,0.3757,-1.3888,-1.178,-88.05,-13.95,-7.65,-1.94,0.69,-10.53,1.5479,2.0028,1.6864,-30.5,22.1875,7.5,301.625,75.1875,118.375,0
1776971246.202,7.1635,-5.5282,8.5712,0.2321,1.189,0.9542,-10.95,-15.15,62.1,13.2232,-0.0838,3.4237,0.5028,-1.3344,-1.1866,-88.05,-14.4,-8.1,1.85,-4.47,-10.53,1.9362,1.3734,2.1598,-30.5,22.1875,7.5,301.625,75.1875,118.375,0
1776971246.211,5.8634,-4.1827,8.248,0.1311,0.8279,0.7453,-11.4,-15.45,62.85,12.9359,-0.644,3.1292,0.6483,-1.2596,-1.1437,-88.8,-14.85,-9.9,15.81,-7.45,-12.81,1.9373,1.9242,2.3322,-30.5,22.1875,7.5,299.4375,74.4375,111.6875,0
1776971246.216,5.9687,-3.8547,6.2944,-0.4812,0.5311,0.5532,-11.4,-15.45,62.85,12.9311,-0.7781,2.9616,0.6483,-1.2596,-1.1437,-88.8,-14.85,-9.9,15.81,-7.45,-12.81,1.9373,1.9242,2.3322,-30.5,22.1875,7.5,299.4375,74.4375,111.6875,0
1776971246.221,5.9687,-3.8547,6.2944,-0.4812,0.5311,0.5532,-11.4,-15.45,62.85,12.9311,-0.7781,2.9616,0.8316,-1.2255,-1.1197,-88.35,-13.95,-11.1,8.93,-0.21,-19.51,0.4549,3.4285,1.633,-29.875,25.875,0.0,298.8125,74.1875,104.0,0
1776971246.226,7.0916,-3.2992,5.6216,-0.9054,0.0727,0.3027,-11.4,-15.45,62.85,12.4115,-0.4214,2.8635,0.9912,-1.2279,-1.1335,-88.35,-13.95,-11.1,8.93,-0.21,-19.51,0.4549,3.4285,1.633,-29.875,25.875,0.0,298.8125,74.1875,104.0,0
1776971246.231,7.0916,-3.2992,5.6216,-0.9054,0.0727,0.3027,-11.25,-16.8,62.25,12.4115,-0.4214,2.8635,0.9912,-1.2279,-1.1335,-87.75,-11.4,-11.25,4.64,2.55,-13.2,-0.8759,1.7857,1.6864,-29.875,25.875,0.0,298.625,73.5,100.4375,0
1776971246.236,7.2856,-2.6959,5.0709,-1.0698,-0.3808,0.0874,-11.25,-16.8,62.25,11.9566,0.2801,2.7007,1.1197,-1.1892,-1.1652,-87.75,-11.4,-11.25,4.64,2.55,-13.2,-0.3752,-1.5533,2.2373,-29.875,25.875,0.0,297.375,72.125,102.5625,0
1776971246.242,7.2856,-2.6959,5.0709,-1.0698,-0.3808,0.0874,-10.05,-18.0,61.95,11.9566,0.2801,2.7007,1.1197,-1.1892,-1.1652,-88.35,-11.7,-11.4,0.86,3.17,-8.1,-0.3752,-1.5533,2.2373,-29.875,25.875,0.0,295.4375,70.4375,105.875,0
1776971246.252,6.6679,-2.5929,5.466,-0.9539,-0.8647,-0.0805,-10.8,-17.55,61.2,11.7388,0.8475,2.5211,1.2351,-1.0901,-1.1791,-88.35,-11.7,-11.4,0.25,2.85,-5.73,0.1876,-2.7565,2.3835,-29.875,25.875,0.0,295.4375,70.4375,105.875,0
1776971246.262,5.8826,-2.3224,5.5545,-0.7775,-1.1357,-0.199,-11.85,-16.05,61.5,11.3868,1.0127,2.3846,1.3025,-1.0584,-1.1532,-90.45,-10.35,-12.0,1.1,2.83,-6.97,0.1549,-1.9166,1.9711,-29.875,25.875,0.0,293.8125,69.0625,107.6875,0
1776971246.266,5.7269,-2.8994,5.5881,-0.648,-1.4264,-0.3549,-11.85,-16.05,61.5,11.1642,0.9768,2.32,1.3267,-1.0491,-1.1226,-90.45,-10.35,-12.0,1.1,2.83,-6.97,0.1549,-1.9166,1.9711,-29.875,25.875,0.0,292.9375,68.25,109.375,0
1776971246.272,5.7269,-2.8994,5.5881,-0.648,-1.4264,-0.3549,-12.3,-16.8,59.4,11.1642,0.9768,2.32,1.3267,-1.0491,-1.1226,-90.45,-10.35,-12.0,1.44,2.74,-7.41,-0.1287,-1.5686,1.1028,-27.1875,30.375,-5.0,292.9375,68.25,109.375,0
1776971246.276,5.3558,-2.7677,5.6551,-0.4314,-1.781,-0.6009,-12.3,-16.8,59.4,10.7907,0.6369,2.0638,1.3824,-0.9798,-1.089,-90.45,-10.35,-12.0,1.44,2.74,-7.41,-0.1287,-1.5686,1.1028,-27.1875,30.375,-5.0,292.0625,67.375,110.9375,0
1776971246.281,5.3558,-2.7677,5.6551,-0.4314,-1.781,-0.6009,-12.3,-16.8,59.4,10.7907,0.6369,2.0638,1.3824,-0.9798,-1.089,-88.05,-9.3,-12.15,2.37,3.36,-6.97,-0.1287,-1.5686,1.1028,-27.1875,30.375,-5.0,292.0625,67.375,110.9375,0
1776971246.287,5.102,-2.7342,5.8059,-0.1226,-1.9907,-0.8111,-14.7,-16.95,57.75,10.5249,0.2514,1.9225,1.5159,-0.9006,-1.0712,-88.05,-9.3,-12.15,2.37,3.36,-6.97,-0.0545,-2.2209,0.7821,-27.1875,30.375,-5.0,291.125,66.5,113.25,0
1776971246.293,5.102,-2.7342,5.8059,-0.1226,-1.9907,-0.8111,-14.7,-16.95,57.75,10.0078,0.1173,1.7789,1.5159,-0.9006,-1.0712,-88.8,-9.3,-11.85,3.3,2.23,-7.74,-0.0545,-2.2209,0.7821,-27.1875,30.375,-5.0,290.6875,65.875,116.4375,0
1776971246.302,5.1068,-2.8515,5.2553,0.3214,-2.1354,-0.9489,-14.25,-17.4,57.15,10.0078,0.1173,1.7789,1.6414,-0.8665,-1.0288,-88.65,-8.7,-13.05,4.39,1.58,-8.42,-0.2716,-2.6333,-0.0076,-27.1875,30.375,-5.0,290.6875,65.875,116.4375,0
1776971246.312,5.4564,-2.5211,4.6615,0.7786,-2.2292,-1.0568,-16.2,-16.5,57.3,9.6055,-0.1077,1.4557,1.7797,-0.833,-0.9814,-89.7,-8.4,-12.0,5.6,1.36,-8.63,-0.2716,-2.6333,-0.0076,-27.1875,30.375,-5.0,290.1875,65.1875,119.4375,0
1776971246.317,6.5769,-2.5259,4.2808,1.1431,-2.299,-1.1306,-18.6,-15.45,58.95,9.6055,-0.1077,1.4557,1.8882,-0.846,-0.9305,-89.7,-8.4,-12.0,5.6,1.36,-8.63,-0.2716,-2.6333,-0.0076,-27.1875,30.375,-5.0,290.1875,65.1875,119.4375,0
1776971246.321,6.5769,-2.5259,4.2808,1.1431,-2.299,-1.1306,-18.6,-15.45,58.95,9.5385,-0.2538,1.482,1.8882,-0.846,-0.9305,-88.8,-6.9,-13.65,5.11,0.7,-6.22,-0.4701,-3.5147,-0.589,-26.375,33.75,-6.1875,289.9375,64.4375,123.5625,0
1776971246.326,6.8474,-2.7749,4.0414,1.6574,-2.465,-1.2175,-19.65,-14.7,56.1,9.5385,-0.2538,1.482,2.0203,-0.829,-0.8855,-88.8,-6.9,-13.65,5.11,0.7,-6.22,-0.4701,-3.5147,-0.589,-26.375,33.75,-6.1875,289.9375,64.4375,123.5625,0
1776971246.331,6.8474,-2.7749,4.0414,1.6574,-2.465,-1.2175,-19.65,-14.7,56.1,9.5385,-0.8691,1.312,2.0203,-0.829,-0.8855,-89.7,-6.0,-14.25,4.45,0.19,-5.06,-0.5421,-3.7819,-0.8476,-26.375,33.75,-6.1875,289.75,63.625,127.9375,0
1776971246.336,6.8091,-3.644,4.0151,2.1269,-2.6572,-1.3691,-19.65,-14.7,56.1,9.5385,-0.8691,1.312,2.1365,-0.8537,-0.8497,-89.7,-6.0,-14.25,4.45,0.19,-5.06,-0.6392,-3.687,-1.1606,-26.375,33.75,-6.1875,289.8125,62.75,132.25,0
1776971246.343,7.1323,-4.1468,4.1396,2.4448,-2.7704,-1.4805,-19.65,-14.7,56.1,9.3446,-1.4916,0.8404,2.185,-0.9094,-0.7639,-89.7,-6.0,-14.25,4.6,-0.33,-4.34,-0.6392,-3.687,-1.1606,-26.375,33.75,-6.1875,290.25,62.0,136.375,0
1776971246.352,7.8219,-4.9799,4.8746,2.4845,-2.9055,-1.5023,-21.6,-11.4,56.7,9.0836,-1.8244,0.4334,2.2271,-0.9478,-0.6571,-88.35,-5.85,-13.65,6.37,-1.03,-5.12,-0.721,-3.4874,-1.4923,-26.375,33.75,-6.1875,290.25,62.0,136.375,0
1776971246.362,8.8298,-5.5306,5.4899,2.1618,-3.0662,-1.4669,-22.8,-10.5,55.8,8.9711,-1.7238,0.1053,2.2745,-0.9771,-0.5566,-90.3,-4.65,-14.7,7.37,-1.25,-5.87,-0.7069,-3.3554,-1.7813,-26.375,33.75,-6.1875,290.875,61.25,140.4375,0
1776971246.367,8.8298,-5.5306,5.4899,2.1618,-3.0662,-1.4669,-24.3,-10.8,54.15,8.9711,-1.7238,0.1053,2.2745,-0.9771,-0.5566,-90.3,-4.65,-14.7,7.37,-1.25,-5.87,-0.7069,-3.3554,-1.7813,-26.375,33.75,-6.1875,291.5,60.4375,144.3125,0
1776971246.372,9.3541,-5.7676,6.2153,1.4458,-3.2436,-1.3752,-24.3,-10.8,54.15,9.1028,-1.4293,-0.1628,2.2567,-0.9934,-0.4874,-89.55,-5.4,-14.7,7.82,-1.59,-6.52,-0.5934,-3.3369,-1.9482,-33.6875,37.875,-3.6875,291.5,60.4375,144.3125,0
1776971246.377,9.3541,-5.7676,6.2153,1.4458,-3.2436,-1.3752,-25.5,-8.7,53.85,9.1028,-1.4293,-0.1628,2.2567,-0.9934,-0.4874,-89.55,-5.4,-14.7,7.82,-1.59,-6.52,-0.5934,-3.3369,-1.9482,-33.6875,37.875,-3.6875,292.0625,59.5625,147.9375,0
1776971246.382,9.8881,-4.6831,6.189,0.8942,-3.4307,-1.3507,-25.5,-8.7,53.85,8.9352,-1.0918,-0.2107,2.1154,-1.0523,-0.4623,-88.35,-5.85,-15.15,8.02,-2.05,-6.76,-0.4102,-3.3314,-1.9548,-33.6875,37.875,-3.6875,292.0625,59.5625,147.9375,0
1776971246.39,8.2672,-4.3622,5.7581,0.4455,-3.3692,-1.4128,-25.5,-8.7,53.85,8.8921,-0.6943,-0.0694,1.8727,-1.0331,-0.4429,-88.35,-5.85,-15.15,9.76,-3.83,-7.79,-0.3218,-3.267,-1.8293,-33.6875,37.875,-3.6875,292.5,58.5,151.0625,0
1776971246.395,8.2672,-4.3622,5.7581,0.4455,-3.3692,-1.4128,-25.5,-8.7,53.85,8.8921,-0.6943,-0.0694,1.8727,-1.0331,-0.4429,-89.1,-4.95,-13.65,9.76,-3.83,-7.79,-0.3218,-3.267,-1.8293,-33.6875,37.875,-3.6875,292.9375,57.3125,153.9375,0
1776971246.402,8.691,-3.0646,5.2289,0.3206,-3.3358,-1.4154,-25.5,-8.7,53.85,8.588,-0.5435,-0.2825,1.6475,-1.0011,-0.4207,-86.85,-4.2,-16.2,11.12,-4.51,-8.39,-0.4025,-3.2659,-1.6635,-33.6875,37.875,-3.6875,293.4375,55.9375,156.5625,0
1776971246.412,8.8107,-2.4612,5.1284,0.4061,-3.358,-1.4802,-28.2,-6.0,48.75,8.4252,-0.6776,-0.5507,1.5226,-0.943,-0.3984,-86.85,-4.2,-16.2,11.77,-4.37,-8.81,-0.5574,-3.3772,-1.4563,-33.6875,37.875,-3.6875,293.4375,55.9375,156.5625,0
1776971246.417,8.8107,-2.4612,5.1284,0.4061,-3.358,-1.4802,-29.85,-5.4,48.15,8.4252,-0.6776,-0.5507,1.5226,-0.943,-0.3984,-86.85,-4.2,-16.2,11.77,-4.37,-8.81,-0.5574,-3.3772,-1.4563,-33.6875,37.875,-3.6875,293.8125,54.375,158.875,0
1776971246.422,9.2584,-2.1811,5.3367,0.4999,-3.3231,-1.5375,-29.85,-5.4,48.15,8.442,-0.8356,-0.723,1.3851,-0.931,-0.3523,-89.4,-4.5,-15.3,11.8,-3.54,-8.04,-0.6556,-3.507,-1.2337,-48.5,40.5,13.0,293.8125,54.375,158.875,0
1776971246.427,9.2584,-2.1811,5.3367,0.4999,-3.3231,-1.5375,-31.35,-4.65,45.75,8.4108,-1.0487,-0.7494,1.3851,-0.931,-0.3523,-89.4,-4.5,-15.3,11.8,-3.54,-8.04,-0.6556,-3.507,-1.2337,-48.5,40.5,13.0,294.375,52.8125,160.9375,0
1776971246.432,9.6702,-2.1596,5.8442,0.6864,-3.3417,-1.5998,-31.35,-4.65,45.75,8.4108,-1.0487,-0.7494,1.1722,-0.8711,-0.3352,-89.4,-4.5,-15.3,12.09,-3.01,-8.06,-0.8236,-3.4667,-1.0156,-48.5,40.5,13.0,294.375,52.8125,160.9375,0
1776971246.437,9.6702,-2.1596,5.8442,0.6864,-3.3417,-1.5998,-31.95,-3.75,46.2,8.5162,-1.1301,-0.9218,1.1722,-0.8711,-0.3352,-89.4,-4.5,-15.3,12.09,-3.01,-8.06,-0.9283,-3.3968,-0.853,-48.5,40.5,13.0,294.9375,51.125,162.8125,0
1776971246.443,9.3925,-2.2458,5.94,0.9014,-3.3524,-1.6641,-31.95,-3.75,46.2,8.5162,-1.1301,-0.9218,0.9662,-0.83,-0.3392,-87.75,-4.05,-17.55,12.58,-2.49,-8.51,-0.9283,-3.3968,-0.853,-48.5,40.5,13.0,295.5625,49.4375,164.5,0
1776971246.452,9.1722,-2.217,5.624,1.0363,-3.331,-1.6598,-31.95,-3.75,46.2,8.5784,-0.7542,-1.257,0.7826,-0.725,-0.3464,-88.2,-3.6,-17.85,12.86,-1.66,-8.92,-0.9577,-3.4438,-0.7592,-48.5,40.5,13.0,295.5625,49.4375,164.5,0
1776971246.462,8.7891,-2.138,5.0182,1.1095,-3.3193,-1.6129,-33.75,-0.3,41.25,9.7229,0.0958,-1.585,0.7458,-0.7045,-0.3349,-88.35,-3.9,-18.0,12.72,-1.22,-8.7,-0.9741,-3.5376,-0.7494,-48.5,40.5,13.0,296.1875,47.625,166.0,0
1776971246.467,8.7891,-2.138,5.0182,1.1095,-3.3193,-1.6129,-32.25,-0.75,40.2,7.6974,0.1939,-0.8308,0.494,-0.5742,-0.3317,-88.35,-3.9,-18.0,12.72,-1.22,-8.7,-0.9741,-3.5376,-0.7494,-48.5,40.5,13.0,296.1875,47.625,166.0,0
1776971246.472,8.5305,-2.0279,4.6256,1.0664,-3.3039,-1.5713,-32.25,-0.75,40.2,7.6974,0.1939,-0.8308,0.494,-0.5742,-0.3317,-87.75,-4.5,-19.8,12.31,-0.63,-8.2,-0.9719,-3.5877,-0.8301,-44.375,29.5625,37.75,296.875,45.8125,167.5,0
1776971246.477,8.5305,-2.0279,4.6256,1.0664,-3.3039,-1.5713,-33.75,1.05,38.1,7.3789,-0.1341,-0.4262,0.1708,-0.2313,-0.3216,-87.75,-4.5,-19.8,12.31,-0.63,-8.2,-0.9719,-3.5877,-0.8301,-44.375,29.5625,37.75,296.875,45.8125,167.5,0
1776971246.482,8.2193,-1.8148,4.6998,0.9854,-3.269,-1.5252,-33.75,1.05,38.1,7.3789,-0.1341,-0.4262,0.1708,-0.2313,-0.3216,-87.45,-4.05,-18.6,11.84,-0.21,-7.51,-0.8814,-3.6008,-0.9457,-44.375,29.5625,37.75,297.5625,43.9375,168.9375,0
1776971246.489,8.3222,-1.4078,4.5466,0.8777,-3.2828,-1.4703,-33.15,2.7,38.25,7.8123,-0.2586,-0.5052,-0.0117,-0.1354,-0.259,-87.45,-4.05,-18.6,10.93,0.01,-6.58,-0.6807,-3.5648,-1.0417,-44.375,29.5625,37.75,319.4375,42.125,170.1875,0
1776971246.494,8.3222,-1.4078,4.5466,0.8777,-3.2828,-1.4703,-33.6,3.15,35.4,7.5776,-0.0814,-0.5578,-0.0117,-0.1354,-0.259,-88.35,-3.45,-17.7,10.93,0.01,-6.58,-0.6807,-3.5648,-1.0417,-44.375,29.5625,37.75,318.8125,40.25,171.1875,0
1776971246.502,8.5138,-1.0056,4.4221,0.8199,-3.3308,-1.4711,-33.6,3.15,35.4,7.5776,-0.0814,-0.5578,-0.093,-0.041,-0.21,-88.35,-3.45,-17.7,10.29,-0.05,-6.19,-0.4363,-3.5343,-1.0701,-44.375,29.5625,37.75,318.125,38.4375,172.0,0
1776971246.512,8.7388,-0.5818,4.2689,0.8394,-3.3945,-1.5055,-33.6,3.15,35.4,7.2185,0.5243,-0.5291,-0.0751,0.1879,-0.1815,-87.6,-1.95,-18.45,9.86,-0.26,-5.91,-0.1647,-3.4743,-1.009,-44.375,29.5625,37.75,318.125,38.4375,172.0,0
1776971246.517,8.8538,-0.4788,4.0606,0.9936,-3.4526,-1.5633,-33.0,2.55,31.95,7.2137,1.1181,-0.2969,-0.0104,0.4562,-0.1455,-87.6,-1.95,-18.45,9.86,-0.26,-5.91,-0.1647,-3.4743,-1.009,-44.375,29.5625,37.75,317.5,36.75,172.5625,0
1776971246.522,8.8538,-0.4788,4.0606,0.9936,-3.4526,-1.5633,-33.0,2.55,31.95,7.2137,1.1181,-0.2969,-0.0104,0.4562,-0.1455,-87.6,-1.95,-18.45,9.28,-1.42,-5.99,0.0098,-3.2496,-0.9207,-22.5625,16.75,43.1875,317.5,36.75,172.5625,0
1776971246.527,9.256,-0.6776,3.4836,1.1716,-3.4813,-1.6006,-34.5,3.3,31.65,7.1443,1.3503,-0.0694,0.1116,0.6134,-0.1087,-87.6,-1.95,-18.45,9.28,-1.42,-5.99,0.0098,-3.2496,-0.9207,-22.5625,16.75,43.1875,316.9375,35.1875,173.0,0
1776971246.532,9.256,-0.6776,3.4836,1.1716,-3.4813,-1.6006,-34.5,3.3,31.65,7.1443,1.3503,-0.0694,0.1116,0.6134,-0.1087,-88.05,-3.9,-18.45,9.28,-2.12,-6.49,0.0469,-2.9354,-0.8268,-22.5625,16.75,43.1875,316.9375,35.1875,173.0,0
1776971246.537,9.2608,-0.905,3.0095,1.3195,-3.472,-1.6036,-33.9,4.65,28.95,7.0318,1.2977,0.2298,0.206,0.7429,-0.0719,-88.05,-3.9,-18.45,9.28,-2.12,-6.49,-0.0022,-2.7969,-0.6796,-22.5625,16.75,43.1875,316.5,33.6875,173.375,0
1776971246.543,9.2608,-0.905,3.0095,1.3195,-3.472,-1.6036,-33.9,4.95,28.65,7.0174,0.9002,0.1604,0.206,0.7429,-0.0719,-87.3,-3.45,-18.45,9.3,-2.61,-6.84,-0.0022,-2.7969,-0.6796,-22.5625,16.75,43.1875,316.125,32.1875,173.8125,0
1776971246.552,9.6343,-1.2115,2.2338,1.2729,-3.4685,-1.5476,-32.4,4.95,27.6,6.9887,0.7638,-0.0575,0.2558,0.7906,-0.0456,-87.75,-2.85,-18.6,9.68,-2.99,-7.06,-0.1385,-2.7271,-0.5934,-22.5625,16.75,43.1875,316.125,32.1875,173.8125,0
1776971246.562,9.5289,-1.5083,1.5802,1.1575,-3.3982,-1.4727,-32.4,4.95,27.6,7.0533,0.7566,-0.3807,0.2273,0.8663,-0.0021,-87.75,-2.85,-18.6,10.21,-2.93,-7.16,-0.3196,-2.6453,-0.564,-22.5625,16.75,43.1875,315.8125,30.8125,174.25,0
1776971246.567,9.4667,-1.482,1.1205,0.8926,-3.3071,-1.3699,-32.4,4.95,27.6,7.0533,0.7566,-0.3807,0.1804,0.8652,0.0695,-87.6,-3.45,-16.95,10.21,-2.93,-7.16,-0.3196,-2.6453,-0.564,-22.5625,16.75,43.1875,315.8125,30.8125,174.25,0
1776971246.572,9.4667,-1.482,1.1205,0.8926,-3.3071,-1.3699,-33.6,5.4,24.0,7.5465,1.0894,-0.7853,0.1335,0.8127,0.1287,-88.2,-4.05,-17.55,10.87,-2.98,-7.53,-0.4494,-2.6213,-0.5291,-7.1875,13.1875,36.75,315.5,29.375,174.75,0
1776971246.577,9.1482,-1.3144,0.4573,0.4636,-3.2223,-1.2963,-33.6,5.4,24.0,7.5465,1.0894,-0.7853,0.1335,0.8127,0.1287,-88.2,-4.05,-17.55,10.87,-2.98,-7.53,-0.4494,-2.6213,-0.5291,-7.1875,13.1875,36.75,315.5,29.375,174.75,0
1776971246.582,9.1482,-1.3144,0.4573,0.4636,-3.2223,-1.2963,-32.1,7.95,23.25,8.0278,1.3431,-1.3096,0.1306,0.7189,0.1719,-88.2,-4.05,-17.55,11.6,-2.92,-7.53,-0.5585,-2.7576,-0.408,-7.1875,13.1875,36.75,315.3125,27.875,175.25,0
1776971246.591,8.6718,-1.0032,0.2274,0.0429,-3.0627,-1.2684,-32.1,7.95,23.25,8.2839,1.5347,-1.968,0.1306,0.7189,0.1719,-88.65,-2.85,-16.35,13.27,-2.6,-7.32,-0.6774,-2.81,-0.2705,-7.1875,13.1875,36.75,315.1875,26.3125,175.75,0
1776971246.595,8.849,0.0192,0.2634,-0.2294,-2.8011,-1.2801,-32.1,8.7,21.45,8.2839,1.5347,-1.968,0.1916,0.6054,0.1905,-88.65,-2.85,-16.35,13.27,-2.6,-7.32,-0.6774,-2.81,-0.2705,-7.1875,13.1875,36.75,315.0625,25.0,176.3125,0
1776971246.603,7.853,0.6776,-0.1628,-0.2499,-2.5247,-1.2164,-33.0,10.5,20.55,8.6981,1.8028,-2.7629,0.3184,0.6025,0.2137,-85.8,-3.0,-15.9,13.27,-2.55,-6.91,-0.733,-2.3813,-0.3283,-7.1875,13.1875,36.75,314.9375,24.0,176.875,0
1776971246.613,7.8745,0.9337,-0.7039,-0.2273,-2.2159,-1.145,-33.0,10.5,20.55,8.8466,2.162,-3.5961,0.4519,0.6003,0.1974,-85.8,-3.0,-15.9,13.79,-2.77,-7.35,-0.8279,-1.8337,-0.3742,-7.1875,13.1875,36.75,314.9375,24.0,176.875,0
1776971246.617,7.8745,0.9337,-0.7039,-0.2273,-2.2159,-1.145,-33.0,10.5,20.55,8.8466,2.162,-3.5961,0.4519,0.6003,0.1974,-85.8,-3.0,-15.9,13.79,-2.77,-7.35,-0.8279,-1.8337,-0.3742,-7.1875,13.1875,36.75,314.875,22.9375,177.4375,0
1776971246.622,8.3797,0.8164,-0.9313,-0.1282,-1.9084,-1.1114,-33.0,10.5,20.55,8.3246,2.5642,-4.0462,0.5287,0.5753,0.158,-85.8,-3.0,-15.9,12.64,-3.52,-5.62,-0.8236,-1.9777,-0.2149,-4.375,13.75,30.5,314.875,22.9375,177.4375,0
1776971246.627,8.3797,0.8164,-0.9313,-0.1282,-1.9084,-1.1114,-33.0,10.5,20.55,8.3246,2.5642,-4.0462,0.5287,0.5753,0.158,-88.05,-3.0,-15.15,12.64,-3.52,-5.62,-0.8236,-1.9777,-0.2149,-4.375,13.75,30.5,314.875,21.6875,177.9375,0
1776971246.632,8.5545,0.6249,-0.0311,0.1522,-1.6691,-1.0469,-32.55,10.05,17.1,8.406,2.964,-4.9728,0.4647,0.595,0.1498,-88.05,-3.0,-15.15,11.82,-3.72,-4.41,-0.8519,-2.2133,-0.072,-4.375,13.75,30.5,314.875,21.6875,177.9375,0
1776971246.639,8.5545,0.6249,-0.0311,0.1522,-1.6691,-1.0469,-32.55,10.05,17.1,8.7819,2.7869,-5.6551,0.4647,0.595,0.1498,-87.6,-2.25,-16.65,10.84,-3.61,-2.95,-0.9697,-2.1588,-0.0382,-4.375,13.75,30.5,314.9375,20.5,178.5,0
1776971246.644,7.8099,0.735,-1.3527,0.061,-1.4719,-0.8868,-31.65,10.95,17.85,8.7819,2.7869,-5.6551,0.3909,0.7815,0.0301,-88.2,-4.8,-15.6,10.84,-3.61,-2.95,-0.9697,-2.1588,-0.0382,-4.375,13.75,30.5,315.0,19.5,179.125,0
1776971246.653,7.5872,-0.2658,-2.3607,-0.1332,-1.1141,-0.7253,-31.65,10.2,17.25,8.5114,3.1005,-5.5809,0.2513,1.0608,0.0285,-88.2,-4.8,-15.6,10.27,-3.68,-1.19,-1.0897,-1.7748,-0.0982,-4.375,13.75,30.5,315.0625,18.6875,179.75,0
1776971246.663,6.8929,-0.0263,-2.3152,-0.1271,-0.8164,-0.6185,-29.1,10.65,15.0,8.8969,3.0047,-4.8052,0.0863,1.1679,-0.0037,-87.3,-3.45,-15.45,10.83,-3.37,-0.64,-1.1257,-1.4519,-0.1069,-4.375,13.75,30.5,315.0625,18.6875,179.75,0
1776971246.667,6.8929,-0.0263,-2.3152,-0.1271,-0.8164,-0.6185,-29.1,10.65,15.0,9.6941,2.8611,-4.4963,0.0863,1.1679,-0.0037,-88.05,-5.85,-14.7,10.83,-3.37,-0.64,-1.1257,-1.4519,-0.1069,-4.375,13.75,30.5,315.0625,18.6875,179.75,0
1776971246.673,6.6343,0.7781,-2.1715,-0.2044,-0.4069,-0.5124,-29.1,10.65,15.0,9.6941,2.8611,-4.4963,-0.1085,1.2348,-0.0224,-88.05,-5.85,-14.7,10.66,-2.83,0.74,-1.0265,-1.2097,-0.0273,-2.875,14.0,28.375,315.125,18.0625,-179.5625,0
1776971246.677,6.6343,0.7781,-2.1715,-0.2044,-0.4069,-0.5124,-29.1,10.65,15.0,9.4188,2.6815,-4.5466,-0.1085,1.2348,-0.0224,-86.1,-5.4,-15.15,10.66,-2.83,0.74,-1.0265,-1.2097,-0.0273,-2.875,14.0,28.375,315.125,18.0625,-179.5625,0
1776971246.683,6.6391,1.3048,-2.4086,-0.3467,0.0245,-0.3565,-30.75,10.05,16.65,9.4188,2.6815,-4.5466,-0.048,1.3121,0.0309,-86.1,-5.4,-15.15,11.27,-2.95,0.75,-0.8454,-0.9043,0.0611,-2.875,14.0,28.375,315.25,17.5625,-179.125,0
1776971246.692,6.1818,1.7837,-2.5307,-0.2793,0.4482,-0.2124,-30.15,10.05,15.6,9.6917,2.6121,-4.6471,0.0962,1.3848,0.0213,-86.1,-5.4,-15.15,11.19,-3.04,2.55,-0.648,-0.6349,0.1036,-2.875,14.0,28.375,315.3125,17.1875,-178.8125,0
1776971246.702,5.9879,1.7142,-2.5618,-0.0544,0.8873,-0.0586,-29.55,11.7,16.2,9.4571,2.6624,-4.6974,0.2782,1.2798,-0.0344,-87.45,-3.3,-14.25,11.68,-2.97,2.85,-0.516,-0.2454,0.0687,-2.875,14.0,28.375,315.4375,17.0625,-178.5,0
1776971246.71,6.0573,1.6113,-1.221,0.3198,1.3464,0.0234,-30.15,10.05,15.6,9.2344,2.8419,-4.7429,0.4887,1.3496,-0.0304,-87.45,-3.3,-14.25,12.31,-2.9,2.57,-0.4549,0.1614,0.0,-2.875,14.0,28.375,315.4375,17.125,-178.25,0
1776971246.715,6.0573,1.6113,-1.221,0.3198,1.3464,0.0234,-30.15,10.05,15.6,9.2344,2.8419,-4.7429,0.4887,1.3496,-0.0304,-86.7,-3.3,-12.3,12.31,-2.9,2.57,-0.4549,0.1614,0.0,-2.875,14.0,28.375,315.4375,17.125,-178.25,0
1776971246.72,9.6893,2.4397,-3.5937,-0.1775,1.5926,0.0325,-29.55,10.2,17.85,9.0932,2.1979,-3.8307,0.534,1.3837,0.0461,-86.7,-3.3,-12.3,5.79,6.34,4.02,-0.3502,0.4429,-0.0524,-3.0,14.1875,29.5,315.4375,17.375,-178.0625,0
1776971246.725,9.6893,2.4397,-3.5937,-0.1775,1.5926,0.0325,-29.55,10.2,17.85,9.1913,0.8835,-2.0949,0.534,1.3837,0.0461,-87.3,-3.45,-10.35,5.79,6.34,4.02,-0.3502,0.4429,-0.0524,-3.0,14.1875,29.5,315.4375,17.375,-178.0625,0
1776971246.73,13.5632,1.6544,-3.1651,-0.2678,1.5239,-0.0834,-29.55,10.2,17.85,9.1913,0.8835,-2.0949,0.1623,1.3206,0.1148,-87.3,-3.45,-10.35,0.12,11.58,-3.95,1.862,1.3101,0.6785,-3.0,14.1875,29.5,315.6875,18.125,-179.1875,0
1776971246.734,13.5632,1.6544,-3.1651,-0.2678,1.5239,-0.0834,-29.55,10.2,17.85,9.347,1.1277,-0.6105,0.1623,1.3206,0.1148,-85.35,-3.9,-11.1,0.12,11.58,-3.95,1.862,1.3101,0.6785,-3.0,14.1875,29.5,315.625,19.25,179.25,0
1776971246.743,13.1897,3.237,-7.4795,-0.3032,1.0208,-0.2561,-31.2,11.55,17.4,9.347,1.1277,-0.6105,-0.2731,1.3278,0.2326,-85.35,-3.9,-11.1,-0.98,-2.66,-6.55,2.4915,1.9831,0.4025,-3.0,14.1875,29.5,315.625,20.5625,178.25,0
1776971246.753,15.7993,-2.9616,-8.8155,0.3259,0.5625,-0.2995,-29.7,11.25,19.95,9.7396,0.7733,0.51,-0.5273,1.4261,0.3429,-85.5,-5.25,-11.25,2.71,-3.86,-19.76,1.7519,2.4162,0.216,-3.0,14.1875,29.5,315.0625,21.6875,177.625,0
1776971246.763,13.0628,-4.0294,-8.9591,2.2044,0.0208,-0.3176,-30.6,10.95,19.05,12.0333,-1.008,1.0606,-0.6019,1.5799,0.5007,-85.8,-4.2,-11.4,0.77,-9.21,-10.78,1.429,2.0257,-0.7549,-3.0,14.1875,29.5,315.0625,21.6875,177.625,0
1776971246.767,10.4866,-4.8602,-6.2082,1.9481,0.3267,-0.1519,-30.6,10.95,19.05,13.7092,-2.4948,1.2522,-0.3437,1.2721,0.6451,-85.35,-4.95,-9.9,0.77,-9.21,-10.78,1.429,2.0257,-0.7549,-3.0,14.1875,29.5,314.4375,22.5625,177.1875,0
1776971246.773,10.4866,-4.8602,-6.2082,1.9481,0.3267,-0.1519,-30.3,10.65,20.1,13.7092,-2.4948,1.2522,-0.3437,1.2721,0.6451,-85.35,-4.95,-9.9,-1.18,-12.51,-3.65,1.1203,1.4933,-0.9905,-1.5625,15.1875,25.5,314.4375,22.5625,177.1875,0
1776971246.777,13.1777,-3.4572,-4.1108,1.2156,0.7943,-0.105,-30.3,10.65,20.1,14.8608,-2.8443,-0.0311,0.6968,1.4621,0.7895,-85.35,-4.95,-9.9,-1.18,-12.51,-3.65,1.1203,1.4933,-0.9905,-1.5625,15.1875,25.5,314.4375,22.5625,177.1875,0
1776971246.782,13.1777,-3.4572,-4.1108,1.2156,0.7943,-0.105,-29.7,9.3,18.75,17.097,-1.4916,-1.1564,0.6968,1.4621,0.7895,-85.35,-4.95,-9.9,1.83,-9.31,-10.87,1.2566,2.114,-0.7799,-1.5625,15.1875,25.5,313.875,23.75,176.625,0
1776971246.791,16.338,2.9784,-1.4844,0.2779,1.0603,-0.1703,-29.7,9.3,18.75,17.097,-1.4916,-1.1564,1.9161,1.4698,0.992,-85.95,-5.55,-9.3,22.85,-4.49,-16.62,2.3726,2.1478,-0.312,-1.5625,15.1875,25.5,313.4375,24.9375,175.375,0
1776971246.795,16.338,2.9784,-1.4844,0.2779,1.0603,-0.1703,-29.7,9.3,18.75,17.1497,-0.8667,-2.2745,2.1551,1.4706,0.9417,-85.95,-5.55,-9.3,22.85,-4.49,-16.62,2.3726,2.1478,-0.312,-1.5625,15.1875,25.5,314.25,26.9375,174.125,0
1776971246.803,14.6549,6.5936,0.091,0.4567,1.6233,-0.319,-29.4,10.5,19.95,17.2095,1.4724,-4.7764,1.8895,1.2921,0.6539,-85.95,-5.55,-9.3,22.41,3.27,-18.31,1.2905,3.7208,1.6155,-1.5625,15.1875,25.5,314.1875,27.375,173.375,0
1776971246.813,11.9758,4.8674,-0.6608,1.3627,1.4986,-0.0786,-29.4,11.25,21.6,14.2742,2.6528,-4.8435,0.9617,0.9246,0.2883,-85.2,-7.95,-7.2,12.36,11.01,-7.59,1.2654,0.8127,0.1309,-1.5625,15.1875,25.5,314.1875,27.375,173.375,0
1776971246.818,8.0373,3.5578,-0.0646,2.7291,1.3603,0.0863,-29.1,10.2,22.5,14.2742,2.6528,-4.8435,0.9617,0.9246,0.2883,-84.15,-5.85,-7.65,12.36,11.01,-7.59,1.2654,0.8127,0.1309,-1.5625,15.1875,25.5,314.1875,27.375,173.375,0
1776971246.823,8.0373,3.5578,-0.0646,2.7291,1.3603,0.0863,-29.1,10.2,22.5,9.5241,0.8045,-1.4341,0.0245,0.6654,-0.1103,-84.15,-5.85,-7.65,2.26,-12.87,-11.56,1.3155,-0.8061,0.8454,-1.25,17.5625,22.6875,314.4375,26.875,172.4375,0
1776971246.828,7.0485,1.7382,0.5148,3.5229,1.2396,0.0608,-29.4,10.5,23.85,9.5241,0.8045,-1.4341,0.0245,0.6654,-0.1103,-84.15,-5.4,-6.9,2.26,-12.87,-11.56,1.3155,-0.8061,0.8454,-1.25,17.5625,22.6875,314.4375,26.875,172.4375,0
1776971246.833,7.0485,1.7382,0.5148,3.5229,1.2396,0.0608,-29.4,10.5,23.85,7.3167,-1.2019,3.4429,-0.8423,0.6254,-0.4181,-84.15,-5.4,-6.9,0.15,-15.32,-6.87,0.6174,-0.1898,0.2116,-1.25,17.5625,22.6875,314.5,26.75,172.0625,0
1776971246.838,8.7747,-0.34,-0.2562,3.2802,1.2129,0.0195,-29.4,10.05,24.15,7.3167,-1.2019,3.4429,-0.8423,0.6254,-0.4181,-84.0,-6.45,-6.75,0.15,-15.32,-6.87,0.1069,1.033,0.3294,-1.25,17.5625,22.6875,314.6875,27.25,171.875,0
1776971246.844,8.7747,-0.34,-0.2562,3.2802,1.2129,0.0195,-29.4,10.05,24.15,6.3566,-1.7382,8.2911,-1.8183,0.9254,-0.4434,-84.0,-6.45,-6.75,3.72,-1.78,-7.76,0.1069,1.033,0.3294,-1.25,17.5625,22.6875,314.875,28.0625,171.8125,0
1776971246.853,9.4379,-1.3791,-0.6943,2.0422,1.1743,-0.0821,-29.4,10.05,24.15,7.3789,-1.2019,7.9703,-2.0107,1.1269,-0.315,-84.0,-4.8,-6.0,5.1,2.81,-9.74,-0.1222,1.4846,0.1691,-1.25,17.5625,22.6875,314.875,28.75,171.75,0
1776971246.863,8.6431,-1.1851,-2.0638,0.6408,1.0754,-0.1737,-30.15,9.3,25.2,6.8594,0.5315,4.7309,-1.5108,1.1365,-0.2062,-84.15,-4.65,-6.9,4.89,-0.69,-8.73,0.0469,1.1748,-0.0153,-1.25,17.5625,22.6875,314.875,28.75,171.75,0
1776971246.868,8.2528,-0.8068,-1.8316,-0.4106,0.9864,-0.2582,-29.55,10.2,24.75,6.8594,0.5315,4.7309,-1.5108,1.1365,-0.2062,-84.15,-4.65,-6.9,4.89,-0.69,-8.73,0.0469,1.1748,-0.0153,-1.25,17.5625,22.6875,314.875,29.25,171.4375,0
1776971246.873,8.2528,-0.8068,-1.8316,-0.4106,0.9864,-0.2582,-29.55,10.2,24.75,5.4971,0.814,2.8515,-0.8111,1.0323,-0.0536,-84.15,-4.65,-6.9,4.29,-2.05,-8.85,0.4581,0.9021,0.0633,-0.375,19.6875,19.25,314.875,29.25,171.4375,0
1776971246.878,8.4252,-0.1604,-1.142,-1.1596,0.9995,-0.2337,-29.4,10.05,24.9,5.4971,0.814,2.8515,-0.8111,1.0323,-0.0536,-83.85,-5.85,-5.55,4.29,-2.05,-8.85,0.4581,0.9021,0.0633,-0.375,19.6875,19.25,314.875,29.5625,171.0,0
1776971246.883,8.4252,-0.1604,-1.142,-1.1596,0.9995,-0.2337,-29.4,10.05,24.9,5.5976,-0.5243,2.9305,-0.3027,1.2225,0.0727,-83.85,-5.85,-5.55,4.34,-2.57,-8.79,0.6883,0.6578,0.1102,-0.375,19.6875,19.25,314.875,29.5625,171.0,0
1776971246.891,9.6606,0.1484,-0.5698,-1.595,1.0533,-0.1228,-28.8,10.2,23.55,7.0653,0.1437,1.1277,-0.2801,1.2068,0.2241,-81.9,-5.4,-5.85,5.02,-2.06,-8.46,0.552,0.4854,0.1865,-0.375,19.6875,19.25,314.9375,29.8125,170.5625,0
1776971246.896,10.0748,0.6009,-0.5842,-1.7653,1.0315,-0.0666,-28.8,10.2,23.55,7.0653,0.1437,1.1277,-0.2801,1.2068,0.2241,-84.15,-5.85,-4.35,5.02,-2.06,-8.46,0.552,0.4854,0.1865,-0.375,19.6875,19.25,315.0,30.1875,170.3125,0
1776971246.903,10.1562,1.0822,-0.7877,-1.7043,0.9273,-0.0874,-28.8,10.2,23.55,8.4204,1.0247,0.0934,-0.7357,1.2561,0.3525,-84.15,-5.85,-4.35,4.61,-2.54,-8.59,0.3316,0.6392,0.1298,-0.375,19.6875,19.25,315.0,30.5625,170.125,0
1776971246.913,9.7157,2.399,-1.2689,-1.4067,0.9193,-0.1034,-30.15,9.3,27.3,9.6678,1.2282,0.8452,-1.2015,1.2017,0.3954,-83.4,-6.9,-4.35,4.93,-1.68,-8.28,0.2258,0.8039,0.0665,-0.375,19.6875,19.25,315.0,30.5625,170.125,0
1776971246.918,9.7157,2.399,-1.2689,-1.4067,0.9193,-0.1034,-30.15,11.55,25.95,10.4651,1.1779,1.9992,-1.2814,0.9537,0.4234,-82.95,-7.2,-5.25,4.93,-1.68,-8.28,0.2258,0.8039,0.0665,-0.375,19.6875,19.25,315.0,30.5625,170.125,0
1776971246.923,9.5912,3.395,-1.8531,-0.7512,0.9028,-0.0717,-30.15,11.55,25.95,10.4651,1.1779,1.9992,-1.2814,0.9537,0.4234,-82.95,-7.2,-5.25,5.44,-1.89,-8.63,0.1963,0.7123,0.0535,-1.1875,19.75,19.0625,315.0625,31.0,169.9375,0
1776971246.928,9.5912,3.395,-1.8531,-0.7512,0.9028,-0.0717,-30.75,10.5,27.3,10.2999,1.6735,3.1939,-0.9649,0.6438,0.4463,-82.35,-6.6,-5.1,5.44,-1.89,-8.63,0.1963,0.7123,0.0535,-1.1875,19.75,19.0625,315.0625,31.0,169.9375,0
1776971246.933,9.232,3.6631,-2.4565,0.0392,0.9065,-0.0019,-30.75,10.5,27.3,10.2999,1.6735,3.1939,-0.9649,0.6438,0.4463,-82.35,-6.6,-5.1,5.05,-2.32,-8.49,0.1527,0.5858,0.0175,-1.1875,19.75,19.0625,315.0625,31.3125,169.8125,0
1776971246.938,9.232,3.6631,-2.4565,0.0392,0.9065,-0.0019,-30.15,9.0,28.05,10.9343,2.6983,3.7062,-0.4335,0.4655,0.4463,-82.35,-6.6,-5.1,5.05,-2.32,-8.49,0.0131,0.6981,-0.0153,-1.1875,19.75,19.0625,315.0625,31.6875,169.8125,0
1776971246.944,9.0501,3.541,-2.6432,0.651,0.8993,0.0456,-30.15,9.0,28.05,10.9343,2.6983,3.7062,-0.4335,0.4655,0.4463,-82.35,-6.6,-5.1,5.09,-1.84,-8.42,0.0131,0.6981,-0.0153,-1.1875,19.75,19.0625,315.125,32.125,169.875,0
1776971246.953,9.3541,4.0055,-2.3487,1.1213,0.8985,0.0418,-29.1,10.65,28.65,10.7069,4.1037,3.2872,0.033,0.4197,0.4471,-83.1,-7.35,-4.35,5.06,-2.0,-8.35,-0.2062,0.8476,-0.0709,-1.1875,19.75,19.0625,315.125,32.125,169.875,0
1776971246.963,9.1051,4.2976,-2.0231,1.489,0.9118,0.0218,-29.1,10.65,28.65,10.2352,4.1683,2.6169,0.3552,0.551,0.3565,-83.1,-7.35,-4.35,4.62,-1.85,-8.38,-0.3862,0.9872,-0.072,-1.1875,19.75,19.0625,315.1875,32.6875,170.0625,0
1776971246.968,9.1051,4.2976,-2.0231,1.489,0.9118,0.0218,-30.3,10.2,28.95,10.058,3.8499,2.3104,0.4956,0.6161,0.2222,-82.95,-8.4,-3.0,4.62,-1.85,-8.38,-0.3862,0.9872,-0.072,-1.1875,19.75,19.0625,315.25,33.3125,170.25,0
1776971246.973,9.0501,3.6943,-2.1476,1.6036,0.943,0.0181,-30.3,10.2,28.95,10.058,3.8499,2.3104,0.4956,0.6161,0.2222,-82.95,-8.4,-3.0,4.9,-1.51,-8.1,-0.4734,1.1006,-0.048,-0.0625,19.5,17.25,315.25,33.3125,170.25,0
1776971246.978,9.0501,3.6943,-2.1476,1.6036,0.943,0.0181,-30.45,10.5,29.55,9.3709,3.4141,1.9656,0.578,0.5321,0.1522,-81.75,-7.2,-3.45,4.9,-1.51,-8.1,-0.4734,1.1006,-0.048,-0.0625,19.5,17.25,315.375,33.875,170.4375,0
1776971246.983,9.1698,2.8228,-1.5993,1.457,0.987,-0.0109,-30.45,10.5,29.55,9.3709,3.4141,1.9656,0.578,0.5321,0.1522,-81.75,-7.2,-3.45,4.9,-1.54,-9.51,-0.4134,1.0352,-0.0491,-0.0625,19.5,17.25,315.375,33.875,170.4375,0
1776971246.99,9.3254,1.4269,-0.9529,1.0032,0.9816,-0.025,-29.7,10.5,29.1,9.2967,2.2673,1.5586,0.6217,0.5825,0.0674,-81.9,-7.8,-3.6,5.14,-1.29,-8.31,-0.2345,0.6458,0.0327,-0.0625,19.5,17.25,315.4375,34.25,170.5625,0
1776971246.995,9.3254,1.4269,-0.9529,1.0032,0.9816,-0.025,-30.15,11.25,28.05,9.2895,1.0295,1.7023,0.4698,0.7277,0.0211,-81.9,-7.8,-3.6,5.14,-1.29,-8.31,-0.2345,0.6458,0.0327,-0.0625,19.5,17.25,315.5,34.5,170.5625,0
1776971247.003,9.5912,0.3376,-0.5746,0.2238,0.9355,0.0181,-30.15,11.25,28.05,9.347,0.2442,1.8459,0.4698,0.7277,0.0211,-81.75,-7.95,-1.65,5.3,-1.3,-8.29,-0.108,0.5061,0.0622,-0.0625,19.5,17.25,315.5625,34.8125,170.5,0
1776971247.013,9.9383,-0.3112,-0.4621,-0.6462,0.8977,0.0815,-31.05,9.45,29.25,9.663,-0.1341,1.9273,0.1212,0.813,-0.0277,-82.35,-6.9,-3.3,5.07,-1.44,-8.26,-0.0229,0.5825,0.0338,-0.0625,19.5,17.25,315.5625,34.8125,170.5,0
1776971247.018,9.9383,-0.3112,-0.4621,-0.6462,0.8977,0.0815,-31.05,9.45,29.25,9.663,-0.1341,1.9273,-0.4186,0.9118,-0.0973,-82.35,-7.8,-1.35,5.07,-1.44,-8.26,-0.0229,0.5825,0.0338,-0.0625,19.5,17.25,315.625,35.1875,170.5,0
1776971247.023,10.1275,0.0311,-0.6249,-1.27,0.919,0.1759,-31.05,9.45,29.25,9.8138,-0.3232,2.0231,-0.4186,0.9118,-0.0973,-82.35,-7.8,-1.35,5.65,-1.72,-8.16,-0.0327,0.6752,0.0142,-1.875,20.25,19.1875,315.625,35.1875,170.5,0
1776971247.028,10.1275,0.0311,-0.6249,-1.4703,0.9177,0.2478,-29.7,10.5,29.85,9.8138,-0.3232,2.0231,-0.9571,0.8335,-0.1386,-82.35,-7.8,-1.35,5.65,-1.72,-8.16,-0.0327,0.6752,0.0142,-1.875,20.25,19.1875,315.625,35.5625,170.4375,0
1776971247.033,10.3166,0.7949,-0.9313,-1.4703,0.9177,0.2478,-29.7,10.5,29.85,9.8641,-0.4429,1.9537,-1.3832,0.6622,-0.1556,-82.35,-7.8,-1.35,5.75,-1.57,-8.08,0.024,0.6621,0.0131,-1.875,20.25,19.1875,315.625,35.5625,170.4375,0
1776971247.038,9.9144,1.719,-1.2881,-1.364,0.8942,0.2966,-28.95,9.0,30.15,9.8641,-0.4429,1.9537,-1.3832,0.6622,-0.1556,-81.15,-7.8,-1.05,5.75,-1.57,-8.08,0.0829,0.5181,0.0218,-1.875,20.25,19.1875,315.6875,35.8125,170.3125,0
1776971247.044,9.9144,1.719,-1.2881,-1.364,0.8942,0.2966,-28.65,10.5,31.65,9.4763,-0.5387,1.6951,-1.501,0.4437,-0.145,-81.15,-7.8,-1.05,6.08,-2.3,-8.73,0.0829,0.5181,0.0218,-1.875,20.25,19.1875,315.625,36.0625,170.25,0
1776971247.053,9.8521,2.5426,-1.5299,-1.0158,0.8641,0.3056,-30.15,9.3,32.4,9.4475,-0.8667,1.3479,-1.4088,0.2321,-0.1162,-81.15,-7.8,-1.05,5.9,-2.63,-8.02,0.1156,0.4287,-0.0185,-1.875,20.25,19.1875,315.625,36.0625,170.25,0
1776971247.063,9.0118,3.1532,-1.3958,-0.489,0.8386,0.2769,-29.4,9.3,31.95,9.232,-0.893,1.4269,-1.1277,0.0474,-0.049,-81.3,-6.75,-1.65,5.26,-1.46,-7.92,0.0829,0.4385,0.0076,-1.875,20.25,19.1875,315.625,36.3125,170.1875,0
1776971247.068,8.9663,3.1915,-1.0223,0.077,0.8378,0.2409,-29.4,9.3,31.95,9.232,-0.893,1.4269,-1.1277,0.0474,-0.049,-81.15,-9.0,-0.3,5.26,-1.46,-7.92,0.0829,0.4385,0.0076,-1.875,20.25,19.1875,315.625,36.3125,170.1875,0
1776971247.073,8.9663,3.1915,-1.0223,0.077,0.8378,0.2409,-29.4,9.3,31.95,9.0549,-0.6201,1.7142,-0.7978,-0.061,-0.0149,-81.15,-9.0,-0.3,4.83,-1.5,-8.27,0.0513,0.4058,0.0011,-0.875,20.0,18.0625,315.6875,36.5,170.125,0
1776971247.078,9.4978,2.6863,-0.3879,0.4325,0.8279,0.2172,-29.4,9.3,31.95,9.0549,-0.6201,1.7142,-0.7978,-0.061,-0.0149,-80.55,-9.15,-1.65,4.83,-1.5,-8.27,0.0513,0.4058,0.0011,-0.875,20.0,18.0625,315.6875,36.5,170.125,0
1776971247.083,9.4978,2.6863,-0.3879,0.4325,0.8279,0.2172,-28.95,12.0,31.95,9.0094,0.0527,2.0973,-0.5337,-0.0973,-0.0008,-80.55,-9.15,-1.65,5.53,-1.98,-7.97,-0.024,0.4898,-0.0567,-0.875,20.0,18.0625,315.625,36.8125,170.125,0
1776971247.091,9.4451,1.8627,0.1173,0.5697,0.8066,0.1865,-28.95,12.0,31.95,8.4946,0.8835,3.1771,-0.5337,-0.0973,-0.0008,-80.85,-9.3,-2.1,5.57,-1.75,-8.02,-0.0818,0.5934,-0.0938,-0.875,20.0,18.0625,315.625,37.125,170.125,0
1776971247.096,9.4451,1.8627,0.1173,0.5697,0.8066,0.1865,-29.4,9.0,31.35,8.4946,0.8835,3.1771,-0.4748,0.0586,0.0242,-80.85,-9.3,-2.1,5.57,-1.75,-8.02,-0.0818,0.5934,-0.0938,-0.875,20.0,18.0625,315.625,37.5,170.25,0
1776971247.104,9.7468,0.9074,0.5028,0.4879,0.7837,0.1767,-28.5,8.4,30.75,9.0309,1.4126,3.8116,-0.3706,0.0834,0.0005,-81.15,-11.25,-0.6,5.49,-1.69,-7.95,-0.132,0.6174,-0.1124,-0.875,20.0,18.0625,315.625,37.875,170.3125,0
1776971247.113,9.5002,0.5938,1.0271,0.1825,0.7605,0.1732,-28.5,9.15,32.55,8.8825,1.6855,4.525,-0.4183,0.2028,-0.0338,-80.25,-9.45,-0.45,5.73,-1.53,-7.91,-0.1734,0.7058,-0.1189,-0.875,20.0,18.0625,315.625,37.875,170.3125,0
1776971247.118,9.6989,0.5028,1.1229,-0.138,0.7418,0.1873,-28.5,9.15,32.55,8.8825,1.6855,4.525,-0.4183,0.2028,-0.0338,-80.25,-9.45,-0.45,5.73,-1.53,-7.91,-0.1734,0.7058,-0.1189,-0.875,20.0,18.0625,315.625,38.25,170.4375,0
1776971247.123,9.6989,0.5028,1.1229,-0.138,0.7418,0.1873,-28.5,9.15,32.55,8.8992,1.834,4.7166,-0.5391,0.2766,-0.0509,-80.25,-9.45,-0.45,6.25,-1.25,-7.75,-0.1734,0.7199,-0.1331,-1.6875,20.25,17.6875,315.625,38.25,170.4375,0
1776971247.128,9.6462,0.6201,1.2665,-0.3565,0.712,0.2094,-28.5,9.15,32.55,8.8992,1.5036,4.7046,-0.5391,0.2766,-0.0509,-80.1,-9.75,-1.35,6.25,-1.25,-7.75,-0.1734,0.7199,-0.1331,-1.6875,20.25,17.6875,315.625,38.625,170.5,0
1776971247.133,9.6462,0.6201,1.2665,-0.3565,0.712,0.2094,-28.5,9.15,32.55,8.8992,1.5036,4.7046,-0.6875,0.2582,-0.0549,-80.1,-9.75,-1.35,6.13,-1.57,-7.75,-0.1516,0.5825,-0.1004,-1.6875,20.25,17.6875,315.625,38.625,170.5,0
1776971247.138,9.7396,0.9529,1.1253,-0.5425,0.6888,0.2278,-28.5,9.15,32.55,8.8514,1.166,4.3,-0.6875,0.2582,-0.0549,-80.1,-9.75,-1.35,6.13,-1.57,-7.75,-0.0971,0.4538,-0.0818,-1.6875,20.25,17.6875,315.625,38.875,170.5625,0
1776971247.144,9.7396,0.9529,1.1253,-0.6129,0.6579,0.2385,-26.25,7.95,33.9,8.8514,1.166,4.3,-0.7592,0.2699,-0.0298,-80.1,-9.75,-1.35,6.01,-1.56,-7.79,-0.0971,0.4538,-0.0818,-1.6875,20.25,17.6875,315.625,39.125,170.625,0
1776971247.154,9.6702,1.2498,1.0534,-0.6129,0.6579,0.2385,-28.5,9.45,33.9,8.8274,0.6081,3.8044,-0.733,0.2729,-0.0088,-78.9,-10.5,-0.3,6.13,-1.41,-7.78,-0.0905,0.4331,-0.0622,-1.6875,20.25,17.6875,315.625,39.125,170.625,0
1776971247.163,9.5433,1.4293,0.9218,-0.4588,0.611,0.2382,-27.9,8.55,33.0,8.7149,0.3567,3.3471,-0.6241,0.2891,0.0221,-79.35,-9.75,-1.05,6.26,-1.3,-7.72,-0.0851,0.42,-0.0447,-1.6875,20.25,17.6875,315.625,39.3125,170.625,0
1776971247.168,9.4116,1.4844,0.9194,-0.4588,0.611,0.2382,-27.9,8.55,33.0,8.6479,0.0383,3.0574,-0.5268,0.2958,0.0429,-78.9,-9.0,-0.6,6.26,-1.3,-7.72,-0.0851,0.42,-0.0447,-1.6875,20.25,17.6875,315.625,39.3125,170.625,0
1776971247.173,9.2656,1.4006,0.8475,-0.3365,0.5758,0.2214,-29.1,8.4,34.65,8.6479,0.0383,3.0574,-0.5268,0.2958,0.0429,-78.9,-9.0,-0.6,6.28,-1.28,-7.6,-0.072,0.396,-0.024,-2.0625,19.5625,17.6875,315.625,39.5625,170.6875,0
1776971247.178,9.2656,1.4006,0.8475,-0.3365,0.5758,0.2214,-29.1,8.4,34.65,8.6287,-0.249,2.9018,-0.4543,0.2974,0.0565,-79.65,-9.75,0.0,6.28,-1.28,-7.6,-0.072,0.396,-0.024,-2.0625,19.5625,17.6875,315.625,39.5625,170.6875,0
1776971247.183,9.4547,1.0726,0.929,-0.2361,0.5694,0.1919,-29.1,8.4,34.65,8.6287,-0.249,2.9018,-0.4543,0.2974,0.0565,-79.65,-9.75,0.0,6.24,-1.24,-7.64,-0.0633,0.3142,-0.0065,-2.0625,19.5625,17.6875,315.625,39.75,170.6875,0
1776971247.188,9.4547,1.0726,0.929,-0.2361,0.5694,0.1919,-29.1,8.4,34.65,8.7245,-0.6393,2.6887,-0.4557,0.2912,0.0711,-79.35,-10.05,-0.6,6.24,-1.24,-7.64,-0.0393,0.2454,-0.0044,-2.0625,19.5625,17.6875,315.6875,39.875,170.6875,0
1776971247.194,9.6893,0.7614,1.1396,-0.1839,0.5183,0.1868,-28.5,8.4,34.65,8.7245,-0.6393,2.6887,-0.4557,0.2912,0.0711,-79.35,-10.05,-0.6,6.13,-1.46,-7.64,-0.0393,0.2454,-0.0044,-2.0625,19.5625,17.6875,315.6875,39.875,170.6875,0
1776971247.203,9.651,0.6009,1.0247,-0.3512,0.5116,0.1567,-28.05,6.9,35.7,8.8538,-0.9218,2.6695,-0.5561,0.284,0.0901,-79.65,-10.5,-0.6,6.1,-1.62,-7.68,-0.0175,0.2029,-0.0011,-2.0625,19.5625,17.6875,315.6875,39.9375,170.625,0
1776971247.213,9.991,0.6967,0.7829,-0.5942,0.5041,0.1676,-29.1,7.2,36.15,8.9519,-0.9457,2.466,-0.7205,0.2795,0.1186,-79.65,-10.5,-0.6,6.01,-1.76,-7.71,-0.0011,0.2018,-0.0076,-2.0625,19.5625,17.6875,315.6875,40.0625,170.625,0
1776971247.218,9.991,0.6967,0.7829,-0.5942,0.5041,0.1676,-29.1,7.2,36.15,9.1482,-0.5555,2.3104,-0.8732,0.2467,0.1375,-79.65,-10.5,-0.6,6.01,-1.76,-7.71,-0.0011,0.2018,-0.0076,-2.0625,19.5625,17.6875,315.6875,40.0625,170.625,0
1776971247.223,9.7181,0.8188,0.589,-0.7874,0.4887,0.2137,-27.15,8.25,34.8,9.1482,-0.5555,2.3104,-0.8732,0.2467,0.1375,-79.05,-11.4,-0.15,6.34,-1.56,-7.72,0.0011,0.2247,-0.0076,-1.375,19.5625,16.5,315.6875,40.1875,170.625,0
1776971247.227,9.7181,0.8188,0.589,-0.7874,0.4887,0.2137,-27.15,8.25,34.8,9.2416,-0.2155,2.2482,-0.9848,0.239,0.1311,-79.05,-11.4,-0.15,6.34,-1.56,-7.72,0.0011,0.2247,-0.0076,-1.375,19.5625,16.5,315.6875,40.1875,170.625,0
1776971247.232,9.2871,1.0702,0.4717,-0.826,0.49,0.2473,-28.65,8.25,35.25,9.2416,-0.2155,2.2482,-0.9848,0.239,0.1311,-79.05,-11.4,-0.15,6.43,-1.51,-7.61,-0.0131,0.2062,0.0065,-1.375,19.5625,16.5,315.75,40.3125,170.625,0
1776971247.237,9.2871,1.0702,0.4717,-0.826,0.49,0.2473,-28.65,8.25,35.25,9.0884,0.1915,2.229,-1.1437,0.3475,0.1066,-79.05,-11.4,-0.15,6.43,-1.51,-7.61,-0.0131,0.2062,0.0065,-1.375,19.5625,16.5,315.75,40.375,170.5625,0
1776971247.244,9.1411,1.4198,0.6009,-0.8793,0.5148,0.2755,-28.65,8.25,35.25,9.0908,0.6752,2.15,-1.1437,0.3475,0.1066,-79.5,-11.4,0.9,6.42,-1.57,-7.61,-0.0098,0.1156,0.0382,-1.375,19.5625,16.5,315.75,40.375,170.5625,0
1776971247.254,9.335,1.4748,0.2035,-0.9571,0.5228,0.2942,-27.3,7.95,35.4,9.1889,1.1109,1.9178,-1.1703,0.2049,0.0903,-79.5,-13.8,0.9,6.35,-1.65,-7.53,0.0262,0.0327,0.0415,-1.375,19.5625,16.5,315.8125,40.375,170.5,0
1776971247.264,9.8857,1.6041,-0.1748,-1.0658,0.5257,0.3083,-28.05,6.9,36.15,9.4954,1.4509,1.8579,-1.307,0.1889,0.1194,-78.75,-11.4,-0.45,5.98,-1.54,-7.44,0.0393,-0.0098,0.0524,-1.375,19.5625,16.5,315.8125,40.375,170.5,0
1776971247.269,9.8857,1.6041,-0.1748,-1.0658,0.5257,0.3083,-28.05,6.9,36.15,9.4954,1.4509,1.8579,-1.307,0.1889,0.1194,-78.75,-11.4,-0.45,5.98,-1.54,-7.44,0.0393,-0.0098,0.0524,-1.375,19.5625,16.5,315.8125,40.375,170.5,0
1776971247.274,10.0317,1.5754,-0.5842,-1.1253,0.5116,0.3206,-27.15,6.75,37.05,9.5888,1.7837,1.901,-1.2729,0.1865,0.1532,-78.9,-11.7,-1.05,5.72,-1.33,-7.68,0.0491,-0.024,0.06,-0.6875,20.0,16.5,315.8125,40.3125,170.4375,0
1776971247.279,10.0317,1.5754,-0.5842,-1.1253,0.5116,0.3206,-27.15,6.75,37.05,9.5888,1.7837,1.901,-1.2729,0.1865,0.1532,-78.15,-11.7,-1.05,5.72,-1.33,-7.68,0.0491,-0.024,0.06,-0.6875,20.0,16.5,315.8125,40.3125,170.4375,0
1776971247.284,9.6965,1.9058,-0.8356,-1.0848,0.5324,0.3624,-25.95,7.2,36.45,9.5265,2.0423,1.7573,-1.182,0.2374,0.1676,-78.15,-11.7,-1.35,5.7,-1.22,-7.63,0.0425,0.0698,0.0458,-0.6875,20.0,16.5,315.8125,40.375,170.375,0
1776971247.292,9.3853,2.2314,-1.0247,-0.9888,0.5833,0.4149,-27.9,6.0,36.6,9.7947,2.6719,1.3575,-1.182,0.2374,0.1676,-79.35,-12.0,0.0,5.86,-1.61,-7.59,0.0218,0.1647,0.0382,-0.6875,20.0,16.5,315.875,40.4375,170.375,0
1776971247.296,9.3853,2.2314,-1.0247,-0.9888,0.5833,0.4149,-27.9,6.0,36.6,9.7947,2.6719,1.3575,-1.0496,0.1916,0.1788,-79.35,-12.0,0.0,5.86,-1.61,-7.59,0.0218,0.1647,0.0382,-0.6875,20.0,16.5,315.875,40.5625,170.3125,0
1776971247.304,9.1985,2.7773,-1.3024,-0.8559,0.6424,0.4586,-27.9,6.0,36.6,9.7181,3.213,1.0032,-0.9763,0.1599,0.1839,-79.35,-12.0,0.0,5.98,-1.47,-7.58,0.012,0.2171,0.0305,-0.6875,20.0,16.5,315.875,40.6875,170.3125,0
1776971247.314,9.1339,3.1388,-1.4653,-0.6584,0.7109,0.4839,-27.9,4.8,35.85,9.754,3.5362,0.6608,-0.9012,0.1487,0.1708,-77.55,-12.3,-0.45,6.07,-1.36,-7.56,-0.0065,0.2553,0.0262,-0.6875,20.0,16.5,315.875,40.6875,170.3125,0
1776971247.319,9.0237,3.0287,-1.7717,-0.4735,0.7751,0.5201,-25.5,6.9,36.45,9.754,3.5362,0.6608,-0.9012,0.1487,0.1708,-77.55,-12.3,-0.45,6.07,-1.36,-7.56,-0.0065,0.2553,0.0262,-0.6875,20.0,16.5,315.9375,40.875,170.25,0
1776971247.324,9.0237,3.0287,-1.7717,-0.4735,0.7751,0.5201,-25.5,6.9,36.45,9.6582,3.8403,0.6081,-0.7951,0.1306,0.1529,-77.55,-12.3,-0.45,6.06,-1.42,-7.55,-0.0262,0.2662,0.0415,-1.0625,19.1875,17.5625,315.9375,40.875,170.25,0
1776971247.329,9.0046,2.9544,-1.8627,-0.3856,0.8479,0.562,-25.35,4.8,36.6,9.6582,3.8403,0.6081,-0.7951,0.1306,0.1529,-77.55,-12.3,-0.45,6.06,-1.42,-7.55,-0.0262,0.2662,0.0415,-1.0625,19.1875,17.5625,316.0,40.9375,170.1875,0
1776971247.334,9.0046,2.9544,-1.8627,-0.3856,0.8479,0.562,-25.35,4.8,36.6,9.7157,4.1013,0.4022,-0.6792,0.1207,0.1332,-78.75,-13.05,-1.65,5.95,-1.38,-7.55,-0.0371,0.3098,0.0382,-1.0625,19.1875,17.5625,316.0,40.9375,170.1875,0
1776971247.339,9.2249,2.8299,-1.968,-0.3403,0.9273,0.6142,-26.25,4.65,37.8,9.7157,4.1013,0.4022,-0.6792,0.1207,0.1332,-78.75,-13.05,-1.65,5.95,-1.38,-7.55,-0.0513,0.3883,0.0262,-1.0625,19.1875,17.5625,316.0625,41.125,170.1875,0
1776971247.345,9.2249,2.8299,-1.968,-0.3403,0.9273,0.6142,-26.25,4.65,37.8,9.8043,4.0725,0.3376,-0.5907,0.1058,0.1106,-78.45,-13.95,0.0,6.0,-1.36,-7.56,-0.0513,0.3883,0.0262,-1.0625,19.1875,17.5625,316.0625,41.125,170.1875,0
1776971247.353,9.4355,2.6001,-1.8507,-0.2896,1.0048,0.6616,-26.25,4.65,37.8,9.8569,3.9935,0.3591,-0.5478,0.0815,0.0901,-78.3,-14.25,-1.2,5.85,-1.2,-7.6,-0.0774,0.4614,0.0382,-1.0625,19.1875,17.5625,316.125,41.3125,170.1875,0
1776971247.364,9.8713,2.8683,-1.6113,-0.1793,1.0421,0.6904,-26.25,4.65,37.8,9.9096,3.8259,0.4142,-0.5257,0.0586,0.0621,-79.05,-14.55,-0.9,5.71,-0.99,-7.64,-0.0894,0.5269,0.0415,-1.0625,19.1875,17.5625,316.1875,41.5625,170.1875,0
1776971247.368,10.3477,2.399,-0.5267,-0.0818,1.0661,0.6939,-25.65,4.05,38.7,9.9814,3.3495,0.9361,-0.5257,0.0586,0.0621,-79.05,-14.55,-0.9,5.71,-0.99,-7.64,-0.0894,0.5269,0.0415,-1.0625,19.1875,17.5625,316.1875,41.5625,170.1875,0
1776971247.374,10.3477,2.399,-0.5267,-0.0818,1.0661,0.6939,-25.65,4.05,38.7,9.9814,3.3495,0.9361,-0.5926,0.0581,0.0522,-79.8,-14.25,0.15,5.48,-0.85,-7.75,-0.0698,0.6021,0.0131,-2.25,19.1875,16.75,316.1875,41.875,170.125,0
1776971247.378,10.0341,2.0997,-0.2322,-0.0093,1.097,0.6803,-26.4,3.75,39.45,10.003,2.8395,1.0965,-0.5926,0.0581,0.0522,-79.8,-14.25,0.15,5.48,-0.85,-7.75,-0.0698,0.6021,0.0131,-2.25,19.1875,16.75,316.1875,41.875,170.125,0
1776971247.383,10.0341,2.0997,-0.2322,-0.0093,1.097,0.6803,-26.4,3.75,39.45,10.003,2.8395,1.0965,-0.6422,0.0298,0.0309,-77.7,-15.6,-0.6,5.44,-1.05,-7.82,-0.0589,0.7047,0.0447,-2.25,19.1875,16.75,316.3125,42.25,170.125,0
1776971247.39,10.2807,1.5467,0.3735,0.0983,1.1679,0.6872,-26.1,3.0,39.45,9.7947,2.2194,1.6161,-0.6523,0.0266,0.0269,-77.7,-15.6,-0.6,6.07,-1.37,-7.52,-0.0567,0.7799,0.0742,-2.25,19.1875,16.75,316.375,42.6875,170.0,0
1776971247.395,10.2807,1.5467,0.3735,0.0983,1.1679,0.6872,-26.1,3.0,39.45,9.7947,2.2194,1.6161,-0.6523,0.0266,0.0269,-77.7,-15.6,-0.6,6.07,-1.37,-7.52,-0.0567,0.7799,0.0742,-2.25,19.1875,16.75,316.4375,43.125,169.9375,0
1776971247.404,10.5752,0.2993,1.0463,0.2395,1.182,0.6888,-25.2,1.95,39.0,9.8306,1.3575,2.1021,-0.7141,0.0887,0.0629,-77.7,-14.85,-1.35,6.09,-1.82,-7.68,-0.036,0.7789,0.072,-2.25,19.1875,16.75,316.5,43.5,169.8125,0
1776971247.414,10.3262,-1.0223,1.1851,0.1652,1.2111,0.6901,-25.2,1.95,39.0,9.9742,0.4621,2.0662,-0.7408,0.1263,0.1247,-77.55,-16.2,-0.15,6.48,-2.46,-7.56,-0.0087,0.7134,0.0894,-2.25,19.1875,16.75,316.5,43.5,169.8125,0
1776971247.419,10.2831,-1.8124,0.9553,-0.053,1.2625,0.7099,-25.95,0.9,40.35,9.8569,-0.1101,1.8268,-0.7373,0.1863,0.1892,-77.55,-16.2,-0.15,6.48,-2.46,-7.56,-0.0087,0.7134,0.0894,-2.25,19.1875,16.75,316.625,43.875,169.6875,0
1776971247.424,10.2831,-1.8124,0.9553,-0.053,1.2625,0.7099,-25.95,0.9,40.35,9.8569,-0.1101,1.8268,-0.7373,0.1863,0.1892,-78.9,-15.6,-1.8,6.74,-2.58,-7.57,0.0011,0.745,0.1134,-2.0,20.25,16.75,316.625,43.875,169.6875,0
1776971247.429,10.6686,-2.624,1.008,-0.4058,1.2926,0.7597,-24.75,-0.9,40.05,10.094,-0.3496,1.5897,-0.765,0.1961,0.2641,-78.9,-15.6,-1.8,6.74,-2.58,-7.57,0.0011,0.745,0.1134,-2.0,20.25,16.75,295.6875,44.3125,169.5,0
1776971247.434,10.6686,-2.624,1.008,-0.4058,1.2926,0.7597,-24.75,-0.9,40.05,10.094,-0.3496,1.5897,-0.765,0.1961,0.2641,-77.7,-15.6,-2.55,6.57,-1.36,-7.38,0.0349,0.8279,0.1418,-2.0,20.25,16.75,295.6875,44.3125,169.5,0
1776971247.439,11.0301,-2.739,0.9266,-0.8098,1.303,0.8362,-25.2,1.2,42.15,10.3382,-0.5818,1.1013,-0.7967,0.1807,0.3283,-77.7,-15.6,-2.55,6.57,-1.36,-7.38,0.0055,0.6905,0.06,-2.0,20.25,16.75,295.875,44.6875,169.4375,0
1776971247.445,11.0756,-2.2218,0.4357,-1.0123,1.2804,0.8767,-25.2,1.2,42.15,10.3382,-0.5818,1.1013,-0.7967,0.1807,0.3283,-78.3,-15.0,-1.2,6.45,-1.33,-7.15,0.0055,0.6905,0.06,-2.0,20.25,16.75,295.9375,44.9375,169.375,0
1776971247.454,10.4579,-0.4597,0.6009,-1.0405,1.3057,0.895,-24.75,1.95,41.85,10.5441,-0.4764,0.7183,-0.7685,0.1543,0.3941,-78.75,-16.5,-1.2,6.14,-3.7,-7.6,-0.0262,0.3905,0.0567,-2.0,20.25,16.75,295.9375,44.9375,169.375,0
1776971247.464,10.0556,0.7398,0.328,-0.8439,1.3435,0.9116,-24.3,0.0,41.55,10.2448,-0.2394,0.1221,-0.6614,0.1434,0.4477,-78.75,-16.5,-1.2,7.01,-1.55,-7.25,0.0142,0.3545,0.0218,-2.0,20.25,16.75,296.0,45.125,169.3125,0
1776971247.469,10.0556,0.7398,0.328,-0.8439,1.3435,0.9116,-24.3,0.0,41.55,10.1203,0.1532,-0.3136,-0.5492,0.0981,0.4967,-78.75,-16.5,-1.2,7.01,-1.55,-7.25,0.0142,0.3545,0.0218,-2.0,20.25,16.75,296.125,45.25,169.3125,0
1776971247.474,9.6965,1.0942,0.1963,-0.5452,1.4035,0.9425,-24.3,0.0,41.55,10.1203,0.1532,-0.3136,-0.5492,0.0981,0.4967,-77.55,-16.95,-2.4,6.21,-1.24,-7.65,-0.036,0.3152,-0.0044,-2.0,19.1875,17.1875,296.125,45.25,169.3125,0
1776971247.479,9.6965,1.0942,0.1963,-0.5452,1.4035,0.9425,-23.85,-1.5,42.0,9.7851,0.7709,-0.3208,-0.4695,0.0061,0.5068,-77.55,-16.95,-2.4,6.21,-1.24,-7.65,-0.036,0.3152,-0.0044,-2.0,19.1875,17.1875,296.125,45.25,169.3125,0
1776971247.484,9.4355,1.0367,0.4788,-0.263,1.469,0.9593,-23.85,-1.5,42.0,9.3733,1.2737,-0.2418,-0.4695,0.0061,0.5068,-77.55,-16.95,-2.4,6.8,-2.34,-7.24,-0.0218,0.2454,-0.1822,-2.0,19.1875,17.1875,296.3125,45.4375,169.375,0
1776971247.49,9.4355,1.0367,0.4788,-0.263,1.469,0.9593,-23.85,-1.5,42.75,9.3733,1.2737,-0.2418,-0.4557,-0.0328,0.5002,-77.55,-16.95,-2.4,6.53,-1.0,-7.81,-0.1091,0.1963,-0.3371,-2.0,19.1875,17.1875,296.6875,45.5625,169.625,0
1776971247.495,9.3853,1.0271,0.9002,-0.1378,1.5178,0.9643,-21.0,-2.25,43.05,9.1698,1.9225,-0.1437,-0.4788,-0.0418,0.4698,-78.3,-18.15,-1.2,6.53,-1.0,-7.81,-0.1091,0.1963,-0.3371,-2.0,19.1875,17.1875,297.3125,45.8125,169.9375,0
1776971247.504,9.6055,0.9529,1.142,-0.1585,1.5636,0.9681,-21.0,-2.25,43.05,9.0812,2.3104,0.1389,-0.5502,-0.0549,0.4439,-78.45,-17.1,-1.8,5.81,-1.0,-7.19,-0.2836,0.3523,-0.3665,-2.0,19.1875,17.1875,297.3125,45.8125,169.9375,0
1776971247.514,10.5153,0.8811,1.3048,-0.2601,1.5961,1.0059,-22.2,0.15,45.0,9.3829,2.6863,0.7829,-0.6688,-0.0877,0.4351,-77.55,-17.7,-2.7,6.68,-0.32,-7.54,-0.4178,0.6327,-0.3545,-2.0,19.1875,17.1875,298.1875,46.1875,170.3125,0
1776971247.519,10.5153,0.8811,1.3048,-0.2601,1.5961,1.0059,-21.3,-4.5,45.6,9.3829,2.6863,0.7829,-0.6688,-0.0877,0.4351,-77.55,-17.7,-2.7,6.68,-0.32,-7.54,-0.4178,0.6327,-0.3545,-2.0,19.1875,17.1875,298.1875,46.1875,170.3125,0
1776971247.524,11.4946,-0.1844,0.3496,-0.4189,1.6462,1.0496,-21.3,-4.5,45.6,10.2544,2.873,1.4246,-0.756,-0.118,0.3978,-78.3,-18.9,-1.95,6.01,-0.76,-7.94,-0.4647,0.7898,-0.3589,-2.25,20.0,16.0,299.125,46.625,170.6875,0
1776971247.529,11.4946,-0.1844,0.3496,-0.4189,1.6462,1.0496,-21.3,-4.5,45.6,10.2544,2.873,1.4246,-0.756,-0.118,0.3978,-78.3,-18.9,-1.95,6.01,-0.76,-7.94,-0.4647,0.7898,-0.3589,-2.25,20.0,16.0,299.125,46.625,170.6875,0
1776971247.534,11.6143,-1.4748,0.249,-0.5017,1.6766,1.0651,-21.3,-4.5,45.6,10.9607,3.0167,1.7358,-0.7328,-0.1402,0.3717,-77.55,-19.65,-2.7,4.87,-0.22,-9.05,-0.2596,1.0996,-0.4331,-2.25,20.0,16.0,299.875,47.25,171.0,0
1776971247.539,11.6143,-1.4748,0.249,-0.5017,1.6766,1.0651,-20.25,-3.75,47.7,10.9607,3.0167,1.7358,-0.7328,-0.1402,0.3717,-77.55,-19.65,-2.7,4.87,-0.22,-9.05,0.3043,1.8915,-0.6141,-2.25,20.0,16.0,300.1875,48.375,171.0,0
1776971247.545,11.3964,-0.4908,0.4597,-0.7562,1.7648,1.1093,-21.15,-4.65,46.05,11.0277,3.4261,1.4078,-0.5239,-0.1316,0.3536,-76.2,-20.25,-3.3,2.73,1.57,-7.95,0.3043,1.8915,-0.6141,-2.25,20.0,16.0,300.3125,49.6875,171.1875,0
1776971247.554,11.6646,0.1221,0.1628,-1.0134,1.8008,1.2007,-19.35,-5.7,46.35,11.1953,3.9097,0.7518,-0.3291,-0.1993,0.3587,-76.2,-20.25,-3.3,3.49,1.75,-7.28,0.7745,2.15,-1.3046,-2.25,20.0,16.0,300.3125,49.6875,171.1875,0
1776971247.564,12.4283,-0.7781,-0.5986,-1.0858,1.8255,1.3169,-19.5,-6.75,48.0,11.8274,3.984,0.5435,-0.2025,-0.2825,0.3333,-76.8,-20.85,-3.75,6.31,-3.14,-4.72,0.7232,2.2253,-1.5097,-2.25,20.0,16.0,300.625,51.0,171.5625,0
1776971247.569,12.4283,-0.7781,-0.5986,-1.0858,1.8255,1.3169,-19.5,-6.75,48.0,11.8274,3.984,0.5435,-0.2025,-0.2825,0.3333,-76.8,-20.85,-3.75,6.31,-3.14,-4.72,0.7232,2.2253,-1.5097,-2.25,20.0,16.0,301.3125,52.375,171.75,0
1776971247.574,13.0771,-1.585,-0.2682,-1.0509,1.841,1.4016,-19.5,-6.75,48.0,11.8489,3.5865,0.589,-0.0626,-0.4239,0.3251,-76.8,-20.85,-3.75,10.72,-5.13,-8.22,-0.0796,2.4358,-0.5345,-2.25,19.5625,14.5,301.3125,52.375,171.75,0
1776971247.579,13.0771,-1.585,-0.2682,-1.0509,1.841,1.4016,-19.5,-6.75,48.0,11.8489,3.5865,0.589,-0.0626,-0.4239,0.3251,-76.8,-20.85,-3.75,10.72,-5.13,-8.22,-0.0796,2.4358,-0.5345,-2.25,19.5625,14.5,301.5625,54.125,170.75,0
1776971247.584,13.0723,-1.4317,-0.565,-1.0805,1.87,1.4336,-19.5,-6.75,48.0,11.8968,3.0742,-0.0503,0.1553,-0.4309,0.311,-77.7,-20.25,-4.8,7.82,-0.03,-6.69,-0.4331,3.3554,1.1781,-2.25,19.5625,14.5,301.5625,54.125,170.75,0
1776971247.591,12.6031,-0.8116,-2.0375,-1.2939,1.9233,1.4504,-19.5,-6.75,48.0,11.7843,2.7988,-0.4573,0.6582,-0.4453,0.2902,-77.7,-20.25,-4.8,6.39,-1.34,-6.36,0.0338,4.8215,0.3371,-2.25,19.5625,14.5,301.9375,56.75,169.8125,0
1776971247.596,12.6031,-0.8116,-2.0375,-1.2939,1.9233,1.4504,-17.4,-8.55,48.0,11.7843,2.7988,-0.4573,0.6582,-0.4453,0.2902,-76.8,-22.05,-6.45,6.39,-1.34,-6.36,0.0338,4.8215,0.3371,-2.25,19.5625,14.5,302.1875,59.5625,168.6875,0
1776971247.605,12.3062,-0.1676,-2.229,-1.602,1.9604,1.4655,-16.65,-8.25,48.45,11.0014,3.2537,-2.3128,0.8708,-0.6518,0.2854,-77.4,-20.25,-6.6,8.02,-0.16,-6.81,0.2291,5.2643,0.1462,-2.25,19.5625,14.5,302.0,62.5,166.625,0
1776971247.614,11.1378,1.2713,-2.0806,-1.9745,1.9436,1.5183,-15.3,-11.7,47.55,11.485,1.2043,-4.4101,0.7719,-1.6009,0.3102,-78.3,-21.3,-6.0,7.48,1.14,-8.55,0.5541,5.5043,0.5781,-2.25,19.5625,14.5,302.0,62.5,166.625,0
1776971247.619,9.7252,2.8108,-0.565,-2.0664,1.9961,1.5263,-15.3,-11.7,47.55,10.7931,0.2466,-2.2505,1.0,-1.9737,0.3011,-78.3,-21.3,-6.0,7.48,1.14,-8.55,0.5541,5.5043,0.5781,-2.25,19.5625,14.5,302.0,62.5,166.625,0
1776971247.624,9.7252,2.8108,-0.565,-2.0664,1.9961,1.5263,-15.0,-12.45,48.9,10.7931,0.2466,-2.2505,1.0,-1.9737,0.3011,-77.25,-22.5,-6.75,9.94,1.12,-7.55,1.2555,5.4138,0.8661,-2.75,18.5,13.5,301.0,65.25,163.375,0
1776971247.629,8.6191,3.6248,1.8603,-1.7174,1.9883,1.4778,-15.0,-12.45,48.9,10.3477,0.5171,-0.8835,0.8172,-2.2671,0.0925,-77.25,-22.5,-6.75,9.94,1.12,-7.55,1.2555,5.4138,0.8661,-2.75,18.5,13.5,301.0,65.25,163.375,0
1776971247.634,8.6191,3.6248,1.8603,-1.7174,1.9883,1.4778,-15.0,-12.45,48.9,10.3477,0.5171,-0.8835,0.8172,-2.2671,0.0925,-77.7,-22.65,-8.4,11.45,0.39,-7.36,1.753,5.0407,1.081,-2.75,18.5,13.5,299.5625,67.75,159.0,0
1776971247.64,8.7628,3.3471,3.6248,-1.2433,2.0566,1.3883,-15.0,-12.45,48.9,8.6574,1.1061,0.3232,0.3824,-2.4165,-0.0693,-77.7,-22.65,-8.4,11.45,0.39,-7.36,1.7726,4.7244,1.2665,-2.75,18.5,13.5,298.0,69.8125,153.6875,0
1776971247.645,8.7628,3.3471,3.6248,-1.2433,2.0566,1.3883,-13.5,-15.15,48.9,8.6574,1.1061,0.3232,0.3824,-2.4165,-0.0693,-77.7,-22.65,-8.4,14.55,-1.08,-6.86,1.7726,4.7244,1.2665,-2.75,18.5,13.5,296.75,71.75,147.3125,0
1776971247.654,9.833,2.7222,4.6136,-0.7834,2.0704,1.3379,-13.8,-15.3,48.75,8.4132,1.4341,2.0207,0.0701,-2.4539,-0.2449,-78.15,-20.7,-9.9,14.35,-1.75,-7.52,1.6068,4.7135,1.2806,-2.75,18.5,13.5,296.75,71.75,147.3125,0
1776971247.664,11.0492,2.49,5.6336,-0.4698,2.1317,1.3139,-14.4,-17.25,49.5,8.4707,1.0487,4.1108,-0.037,-2.2322,-0.429,-78.15,-20.7,-9.9,16.94,-0.87,-7.63,1.3974,4.4059,1.3166,-2.75,18.5,13.5,295.5625,73.3125,140.0,0
1776971247.669,10.8745,2.0399,5.9544,-0.3267,2.1781,1.2939,-14.4,-17.25,49.5,9.1937,-0.2203,5.1691,0.0802,-2.0089,-0.5961,-78.15,-20.7,-9.9,16.94,-0.87,-7.63,1.3974,4.4059,1.3166,-2.75,18.5,13.5,294.5625,74.5,131.5625,0
1776971247.674,10.8745,2.0399,5.9544,-0.3267,2.1781,1.2939,-13.2,-17.7,49.95,9.1937,-0.2203,5.1691,0.0802,-2.0089,-0.5961,-79.35,-21.45,-11.85,18.55,-0.29,-12.22,1.1399,4.3306,1.4639,-2.75,18.375,6.875,294.5625,74.5,131.5625,0
1776971247.679,10.9463,0.8811,6.0813,-0.2046,2.1138,1.3323,-13.2,-17.7,49.95,9.5816,-1.4533,5.3486,0.2531,-1.9007,-0.7738,-79.35,-21.45,-11.85,18.55,-0.29,-12.22,1.1399,4.3306,1.4639,-2.75,18.375,6.875,293.6875,75.25,122.1875,0
1776971247.684,10.9463,0.8811,6.0813,-0.2046,2.1138,1.3323,-12.15,-18.45,51.45,9.5816,-1.4533,5.3486,0.2531,-1.9007,-0.7738,-78.45,-23.4,-13.65,16.96,-0.27,-12.77,1.1366,4.2739,1.4115,-2.75,18.375,6.875,293.6875,75.25,122.1875,0
1776971247.691,10.7212,-0.8906,6.948,-0.0362,1.9913,1.3137,-12.15,-18.45,51.45,10.4291,-1.8986,4.9273,0.3152,-1.7176,-0.9659,-78.45,-23.4,-13.65,15.44,-0.27,-13.04,1.1716,3.231,1.5762,-2.75,18.375,6.875,292.5,75.3125,113.875,0
1776971247.696,9.8689,-1.9944,7.4196,0.1724,1.8626,1.2518,-12.15,-18.45,51.45,11.3485,-1.3551,4.2425,0.3152,-1.7176,-0.9659,-78.3,-22.5,-13.8,15.44,-0.27,-13.04,1.1716,3.231,1.5762,-2.75,18.375,6.875,291.25,74.9375,107.4375,0
1776971247.705,9.8689,-1.9944,7.4196,0.1724,1.8626,1.2518,-10.8,-21.3,52.95,12.208,-0.3496,3.6943,0.3238,-1.5383,-1.1245,-79.5,-23.25,-13.5,8.99,0.18,-11.17,1.1836,2.3257,1.6373,-2.75,18.375,6.875,291.25,74.9375,107.4375,0
1776971247.714,8.7867,-2.9616,7.3215,0.2622,1.63,1.2148,-10.8,-20.55,53.7,12.9478,0.0,3.3519,0.3898,-1.4077,-1.279,-81.3,-22.8,-14.85,3.94,1.17,-9.64,1.3112,1.5675,1.8391,-2.75,18.375,6.875,289.75,74.1875,102.6875,0
1776971247.719,8.1235,-4.2353,7.1994,0.2238,1.3979,1.1207,-10.8,-20.55,53.7,12.9478,0.0,3.3519,0.6134,-1.3515,-1.3558,-81.3,-22.8,-14.85,3.94,1.17,-9.64,1.3112,1.5675,1.8391,-2.75,18.375,6.875,289.75,74.1875,102.6875,0
1776971247.724,8.1235,-4.2353,7.1994,0.2238,1.3979,1.1207,-9.6,-24.15,52.5,12.9024,-0.2993,2.9018,0.6134,-1.3515,-1.3558,-80.25,-22.5,-15.6,-3.1,-3.89,-12.52,1.5577,1.1094,2.2144,-3.5,19.0625,1.1875,287.8125,73.125,99.0,0
1776971247.729,7.0677,-5.2529,8.7819,0.6408,1.0323,0.9827,-9.6,-24.15,52.5,12.9024,-0.2993,2.9018,0.8937,-1.3384,-1.3507,-80.25,-22.5,-15.6,-3.1,-3.89,-12.52,1.5577,1.1094,2.2144,-3.5,19.0625,1.1875,287.8125,73.125,99.0,0
1776971247.734,7.0677,-5.2529,8.7819,0.2888,0.7285,0.8103,-9.6,-23.7,54.6,12.8617,-0.7542,2.5211,0.8937,-1.3384,-1.3507,-80.25,-22.5,-15.6,15.61,-5.21,-19.7,1.3286,1.8239,2.3529,-3.5,19.0625,1.1875,286.0625,71.9375,94.5625,0
1776971247.739,6.292,-4.2665,7.8386,0.2888,0.7285,0.8103,-9.6,-23.7,54.6,12.8617,-0.7542,2.5211,1.1061,-1.3019,-1.2961,-80.25,-22.5,-15.6,15.61,-5.21,-19.7,-0.3251,3.2779,1.6875,-3.5,19.0625,1.1875,285.875,71.0625,89.25,0
1776971247.745,6.0166,-4.3934,6.6248,-0.2108,0.4663,0.6078,-8.7,-23.55,55.8,12.785,-0.8475,2.375,1.2225,-1.2668,-1.2316,-81.0,-21.6,-16.35,11.2,-0.79,-21.88,-0.3251,3.2779,1.6875,-3.5,19.0625,1.1875,285.875,70.0625,87.625,0
1776971247.755,7.4675,-4.2832,5.2577,-0.7877,0.1244,0.3848,-8.7,-23.55,55.8,12.5336,-0.5507,2.5498,1.2548,-1.279,-1.2097,-81.0,-21.6,-16.35,8.3,1.52,-18.64,-1.237,1.4999,1.7519,-3.5,19.0625,1.1875,285.875,70.0625,87.625,0
1776971247.765,7.7021,-3.0335,5.3654,-1.1828,-0.3336,0.1919,-10.05,-24.75,54.45,12.1649,0.2705,2.7533,1.2492,-1.2686,-1.2105,-82.65,-19.95,-16.65,3.13,4.76,-8.24,-0.6447,-1.5904,2.4784,-3.5,19.0625,1.1875,284.5,68.6875,90.375,0
1776971247.77,7.7021,-3.0335,5.3654,-1.1828,-0.3336,0.1919,-10.05,-24.75,54.45,12.1649,0.2705,2.7533,1.2492,-1.2686,-1.2105,-82.65,-19.95,-16.65,3.13,4.76,-8.24,-0.6447,-1.5904,2.4784,-3.5,19.0625,1.1875,282.5,67.1875,94.1875,0
1776971247.775,7.1778,-2.1739,5.6958,-1.2271,-0.8556,-0.004,-9.6,-25.65,53.85,11.904,0.8188,2.8611,1.3507,-1.194,-1.2316,-83.1,-20.25,-15.9,1.54,4.78,-6.87,-0.0993,-2.8318,2.5853,-6.0625,21.1875,-9.0625,282.5,67.1875,94.1875,0
1776971247.779,7.1778,-2.1739,5.6958,-1.2271,-0.8556,-0.004,-9.6,-25.65,53.85,11.904,0.8188,2.8611,1.3507,-1.194,-1.2316,-83.1,-20.25,-15.9,1.54,4.78,-6.87,-0.0993,-2.8318,2.5853,-6.0625,21.1875,-9.0625,280.875,65.9375,97.0625,0
1776971247.785,6.2321,-1.4509,5.5138,-1.0443,-1.1954,-0.141,-11.4,-26.4,52.8,11.7675,1.2953,2.8922,1.5455,-1.1234,-1.2308,-82.2,-18.15,-17.1,1.11,5.22,-6.11,-0.12,-2.4304,2.0453,-6.0625,21.1875,-9.0625,280.875,65.9375,97.0625,0
1776971247.792,6.2321,-1.4509,5.5138,-0.6302,-1.4599,-0.311,-10.35,-26.7,52.05,11.5927,1.4437,3.0598,1.6848,-1.1138,-1.234,-82.2,-18.15,-17.1,0.89,5.42,-6.05,-0.204,-1.8533,1.3799,-6.0625,21.1875,-9.0625,279.8125,65.0,99.1875,0
1776971247.797,5.8754,-1.561,5.7006,-0.6302,-1.4599,-0.311,-10.35,-26.7,52.05,11.5927,1.4437,3.0598,1.6848,-1.1138,-1.234,-83.1,-19.5,-15.45,0.89,5.42,-6.05,-0.204,-1.8533,1.3799,-6.0625,21.1875,-9.0625,279.0,64.375,101.125,0
1776971247.805,5.4803,-1.6328,5.5378,-0.0927,-1.7142,-0.5361,-10.35,-26.7,52.05,10.8242,1.1157,3.0885,1.7992,-1.0515,-1.2057,-83.4,-19.05,-16.65,3.06,4.59,-7.19,-0.204,-1.7246,0.8421,-6.0625,21.1875,-9.0625,278.375,63.9375,103.5,0
1776971247.815,5.5306,-1.7621,5.8442,0.3877,-1.9332,-0.769,-12.15,-28.65,51.45,10.6638,0.6249,2.873,2.0001,-0.9481,-1.1844,-83.4,-18.0,-17.7,4.18,4.28,-7.72,-0.2422,-2.0715,0.3567,-6.0625,21.1875,-9.0625,278.375,63.9375,103.5,0
1776971247.82,5.5306,-1.7621,5.8442,0.3877,-1.9332,-0.769,-13.95,-28.2,50.4,10.6638,0.6249,2.873,2.0001,-0.9481,-1.1844,-83.4,-18.0,-17.7,4.18,4.28,-7.72,-0.2422,-2.0715,0.3567,-6.0625,21.1875,-9.0625,277.8125,63.625,106.5,0
1776971247.825,5.9759,-1.992,5.8826,0.8106,-2.153,-0.9478,-13.95,-28.2,50.4,10.3406,0.3998,2.6025,2.1994,-0.8609,-1.1767,-83.4,-18.0,-17.7,4.71,3.58,-8.18,-0.1014,-2.6649,-0.0927,-16.875,30.1875,-17.1875,277.8125,63.625,106.5,0
1776971247.83,5.9759,-1.992,5.8826,0.8106,-2.153,-0.9478,-14.85,-28.5,50.55,10.3166,0.1532,2.2338,2.1994,-0.8609,-1.1767,-83.4,-18.0,-17.7,4.71,3.58,-8.18,-0.1014,-2.6649,-0.0927,-16.875,30.1875,-17.1875,277.25,63.375,110.0625,0
1776971247.835,6.4212,-2.0877,5.5881,1.1674,-2.4128,-1.1,-14.85,-28.5,50.55,10.3166,0.1532,2.2338,2.3659,-0.8143,-1.1823,-83.85,-18.0,-16.2,4.83,1.95,-7.97,-0.0087,-3.2169,-0.5552,-16.875,30.1875,-17.1875,277.25,63.375,110.0625,0
1776971247.84,6.4212,-2.0877,5.5881,1.1674,-2.4128,-1.1,-15.3,-28.2,49.95,10.2951,-0.0814,2.3559,2.3659,-0.8143,-1.1823,-83.85,-18.0,-16.2,4.83,1.95,-7.97,-0.0938,-3.5725,-0.9239,-16.875,30.1875,-17.1875,276.8125,63.0625,114.1875,0
1776971247.846,6.3853,-2.3032,5.2984,1.5679,-2.6273,-1.2327,-15.3,-28.2,49.95,10.2951,-0.0814,2.3559,2.4752,-0.7914,-1.1738,-83.85,-18.0,-16.2,4.65,1.15,-7.35,-0.0938,-3.5725,-0.9239,-16.875,30.1875,-17.1875,276.5625,62.75,118.5625,0
1776971247.855,6.2034,-2.7126,5.0039,2.0792,-2.7797,-1.3712,-17.7,-27.0,50.1,10.1323,-0.747,2.4373,2.5306,-0.7978,-1.1423,-84.75,-16.5,-14.85,4.74,0.35,-6.67,-0.2618,-3.8135,-1.1901,-16.875,30.1875,-17.1875,276.5625,62.75,118.5625,0
1776971247.865,6.0885,-3.4524,5.1763,2.5759,-2.898,-1.4829,-17.7,-27.0,50.1,9.7396,-1.4988,2.4134,2.5173,-0.7735,-1.0749,-83.7,-16.2,-15.6,6.2,-0.44,-6.14,-0.4581,-3.9357,-1.3974,-16.875,30.1875,-17.1875,276.5,62.25,123.1875,0
1776971247.87,6.0885,-3.4524,5.1763,3.0105,-3.0126,-1.5809,-20.7,-25.8,51.9,9.426,-2.1715,2.1883,2.4552,-0.793,-0.991,-83.7,-16.2,-15.6,6.2,-0.44,-6.14,-0.4581,-3.9357,-1.3974,-16.875,30.1875,-17.1875,276.5,62.25,123.1875,0
1776971247.875,6.2321,-3.8978,4.5921,3.0105,-3.0126,-1.5809,-20.7,-25.8,51.9,9.426,-2.1715,2.1883,2.4552,-0.793,-0.991,-84.15,-16.35,-14.7,7.12,-0.53,-6.24,-0.6578,-3.9892,-1.609,-39.5,43.375,-16.75,276.6875,61.6875,127.9375,0
1776971247.88,7.0988,-4.2784,4.5514,3.1509,-3.1685,-1.639,-22.05,-25.8,52.35,9.1171,-2.8323,1.8148,2.3931,-0.8412,-0.9017,-84.15,-16.35,-14.7,7.12,-0.53,-6.24,-0.6578,-3.9892,-1.609,-39.5,43.375,-16.75,276.6875,61.6875,127.9375,0
1776971247.885,7.0988,-4.2784,4.5514,3.1509,-3.1685,-1.639,-22.05,-25.8,52.35,9.1171,-2.8323,1.8148,2.3931,-0.8412,-0.9017,-85.05,-15.15,-15.45,7.36,-0.51,-5.93,-0.769,-4.0535,-1.8533,-39.5,43.375,-16.75,277.0625,61.0625,132.75,0
1776971247.89,7.9104,-4.8914,5.0589,3.1147,-3.3977,-1.6574,-22.65,-23.7,53.85,8.7101,-2.7869,1.4557,2.3249,-0.8761,-0.8106,-85.05,-15.15,-15.45,7.36,-0.51,-5.93,-0.7494,-4.1582,-2.1118,-39.5,43.375,-16.75,277.5625,60.25,137.5,0
1776971247.896,7.9104,-4.8914,5.0589,3.1147,-3.3977,-1.6574,-22.65,-23.7,53.85,8.7101,-2.7869,1.4557,2.3249,-0.8761,-0.8106,-85.5,-15.75,-15.6,6.89,-0.59,-5.35,-0.7494,-4.1582,-2.1118,-39.5,43.375,-16.75,278.125,59.3125,142.125,0
1776971247.905,9.0214,-6.0573,6.3231,2.7187,-3.6135,-1.59,-23.7,-22.65,52.5,8.4563,-2.6743,1.2594,2.2308,-0.8865,-0.725,-86.7,-14.55,-14.85,7.82,-1.27,-6.23,-0.6327,-4.1342,-2.3627,-39.5,43.375,-16.75,278.125,59.3125,142.125,0
1776971247.915,8.6981,-6.0861,6.3901,1.9068,-3.7808,-1.4661,-26.85,-20.25,52.65,8.1762,-2.1476,0.9625,2.0909,-0.9148,-0.6648,-86.7,-14.55,-14.85,8.76,-1.89,-7.28,-0.5116,-3.963,-2.558,-39.5,43.375,-16.75,278.875,58.375,146.4375,0
1776971247.92,9.4571,-5.7389,6.2537,1.0784,-3.8991,-1.3651,-26.85,-20.25,52.65,8.2121,-1.9034,0.7207,1.9585,-0.8881,-0.5897,-86.7,-14.55,-14.85,8.76,-1.89,-7.28,-0.5116,-3.963,-2.558,-39.5,43.375,-16.75,278.875,58.375,146.4375,0
1776971247.925,9.4571,-5.7389,6.2537,1.0784,-3.8991,-1.3651,-26.85,-20.25,52.65,8.2121,-1.9034,0.7207,1.9585,-0.8881,-0.5897,-86.1,-14.55,-14.85,9.82,-2.45,-8.02,-0.4483,-3.8528,-2.6965,-64.375,55.5,10.0625,279.625,57.3125,150.5,0
1776971247.93,8.9687,-4.3335,5.4875,0.5718,-3.897,-1.3989,-29.7,-18.75,49.8,7.8985,-1.5179,0.3591,1.829,-0.8127,-0.5558,-86.1,-15.9,-16.65,9.82,-2.45,-8.02,-0.4483,-3.8528,-2.6965,-64.375,55.5,10.0625,279.625,57.3125,150.5,0
1776971247.935,8.9687,-4.3335,5.4875,0.5718,-3.897,-1.3989,-29.7,-18.75,49.8,7.8985,-1.5179,0.3591,1.829,-0.8127,-0.5558,-86.1,-15.9,-16.65,12.07,-3.16,-8.94,-0.4712,-3.8146,-2.7478,-64.375,55.5,10.0625,280.5625,56.125,154.3125,0
1776971247.94,9.0573,-3.0358,5.0853,0.4218,-3.8666,-1.4389,-29.85,-19.65,48.6,8.1451,-1.3599,-0.1006,1.7552,-0.7216,-0.5316,-86.55,-14.4,-15.9,12.07,-3.16,-8.94,-0.5607,-3.8354,-2.6682,-64.375,55.5,10.0625,281.5625,54.8125,157.875,0
1776971247.946,9.0573,-3.0358,5.0853,0.4218,-3.8666,-1.4389,-29.85,-19.65,48.6,8.1187,-1.4174,-0.0168,1.7552,-0.7216,-0.5316,-86.25,-14.25,-15.6,12.59,-3.33,-9.29,-0.5607,-3.8354,-2.6682,-64.375,55.5,10.0625,282.5625,53.25,161.0625,0
1776971247.955,9.1889,-1.9106,4.9847,0.5689,-3.8429,-1.5388,-30.6,-17.7,45.75,7.9487,-1.5682,-0.1484,1.6355,-0.7442,-0.5113,-86.25,-14.25,-15.6,13.06,-3.45,-9.28,-0.5945,-3.9314,-2.5111,-64.375,55.5,10.0625,282.5625,53.25,161.0625,0
1776971247.965,9.4475,-1.4102,5.0973,0.9425,-3.7992,-1.6441,-32.85,-17.7,45.3,7.9487,-1.6113,-0.4477,1.3622,-0.6177,-0.4759,-87.0,-14.25,-16.8,13.62,-3.03,-9.47,-0.6196,-4.0579,-2.2853,-64.375,55.5,10.0625,283.5,51.5,163.875,0
1776971247.97,9.9072,-1.664,5.442,1.356,-3.78,-1.7205,-33.75,-18.3,44.85,7.9487,-1.6113,-0.4477,1.3622,-0.6177,-0.4759,-87.0,-14.25,-16.8,13.62,-3.03,-9.47,-0.6196,-4.0579,-2.2853,-64.375,55.5,10.0625,283.5,51.5,163.875,0
1776971247.975,9.9072,-1.664,5.442,1.356,-3.78,-1.7205,-33.75,-18.3,44.85,8.0541,-1.2881,-0.8332,1.2414,-0.4668,-0.4173,-87.0,-14.25,-16.8,13.97,-2.63,-9.87,-0.7996,-3.9772,-2.0377,-59.375,47.0625,46.6875,284.5625,49.625,166.3125,0
1776971247.98,9.8234,-2.2577,5.3774,1.663,-3.7896,-1.7589,-33.75,-18.3,44.85,8.0541,-1.2881,-0.8332,1.2414,-0.4668,-0.4173,-86.1,-13.65,-16.65,13.97,-2.63,-9.87,-0.7996,-3.9772,-2.0377,-59.375,47.0625,46.6875,284.5625,49.625,166.3125,0
1776971247.985,9.8234,-2.2577,5.3774,1.663,-3.7896,-1.7589,-33.75,-18.3,44.85,8.576,-0.7254,-1.0534,1.1591,-0.4098,-0.3381,-86.1,-13.65,-16.65,14.05,-2.25,-10.03,-0.9043,-3.8888,-1.8315,-59.375,47.0625,46.6875,285.75,47.75,168.5,0
1776971247.99,9.5193,-2.6719,4.9464,1.7714,-3.8379,-1.7555,-37.05,-15.0,42.3,8.576,-0.7254,-1.0534,1.1591,-0.4098,-0.3381,-86.1,-13.65,-16.65,14.05,-2.25,-10.03,-0.9043,-3.9499,-1.6635,-59.375,47.0625,46.6875,287.0,45.75,170.375,0
1776971247.996,9.1602,-3.0023,4.4436,1.7083,-3.8107,-1.7264,-37.05,-15.0,42.3,8.3175,-0.5842,-0.8571,1.0192,-0.397,-0.2731,-87.0,-13.5,-15.3,13.86,-1.78,-9.83,-0.9043,-3.9499,-1.6635,-59.375,47.0625,46.6875,304.5625,43.6875,172.0625,0
1776971248.005,9.268,-3.043,4.1827,1.5068,-3.7838,-1.6715,-37.05,-13.5,40.95,8.1379,-0.7302,-0.8571,0.757,-0.3299,-0.223,-87.0,-13.5,-15.3,12.6,-0.74,-8.53,-0.8596,-4.0404,-1.5752,-59.375,47.0625,46.6875,304.5625,43.6875,172.0625,0
1776971248.015,9.7995,-2.6911,4.0247,1.1866,-3.8109,-1.6014,-39.15,-12.3,40.5,7.9296,-0.8643,-0.929,0.3627,-0.1559,-0.1703,-87.0,-13.5,-15.3,11.57,-0.48,-7.64,-0.7821,-4.0557,-1.5599,-59.375,47.0625,46.6875,303.75,41.5625,173.5,0
1776971248.02,9.7995,-2.6911,4.0247,1.1866,-3.8109,-1.6014,-37.5,-11.7,37.5,7.9296,-0.8643,-0.929,0.3627,-0.1559,-0.1703,-85.35,-12.9,-16.2,11.57,-0.48,-7.64,-0.7821,-4.0557,-1.5599,-59.375,47.0625,46.6875,302.9375,39.5,174.8125,0
1776971248.025,10.0604,-2.1117,3.8954,0.8881,-3.8946,-1.5692,-37.5,-11.7,37.5,7.9368,-0.6943,-1.1085,0.0394,0.0168,-0.0997,-85.35,-12.9,-16.2,10.54,-0.18,-7.55,-0.6545,-3.9368,-1.5795,-40.5625,36.0,44.375,302.9375,39.5,174.8125,0
1776971248.03,10.0604,-2.1117,3.8954,0.8881,-3.8946,-1.5692,-37.5,-11.7,37.5,7.9368,-0.6943,-1.1085,0.0394,0.0168,-0.0997,-87.0,-13.5,-14.85,10.54,-0.18,-7.55,-0.6545,-3.9368,-1.5795,-40.5625,36.0,44.375,302.0625,37.5,175.875,0
1776971248.035,9.6103,-1.3671,3.4117,0.6616,-3.978,-1.5905,-37.5,-11.7,37.5,7.7428,-0.34,-1.1205,-0.1919,0.1769,-0.0264,-87.0,-13.5,-14.85,9.8,-0.92,-7.52,-0.4134,-3.7612,-1.5915,-40.5625,36.0,44.375,302.0625,37.5,175.875,0
1776971248.04,9.6103,-1.3671,3.4117,0.6616,-3.978,-1.5905,-40.65,-10.8,34.2,7.7428,-0.34,-1.1205,-0.1919,0.1769,-0.0264,-86.1,-12.0,-14.7,9.8,-0.92,-7.52,-0.4974,-3.6794,-1.4879,-40.5625,36.0,44.375,301.25,35.5,176.875,0
1776971248.046,10.1562,-0.5195,2.6911,0.5265,-4.0481,-1.6041,-42.6,-9.45,33.9,7.5058,-0.1772,-0.9864,-0.3147,0.3826,0.0397,-86.1,-12.0,-14.7,9.86,-1.12,-7.82,-0.4974,-3.6794,-1.4879,-40.5625,36.0,44.375,300.5,33.6875,177.5625,0
1776971248.055,10.094,0.1173,1.8148,0.4975,-4.0755,-1.6502,-42.6,-9.45,33.9,7.4723,-0.0646,-0.7638,-0.3445,0.5926,0.0842,-87.6,-12.0,-15.9,10.02,-1.66,-8.07,-0.2291,-3.3739,-1.3504,-40.5625,36.0,44.375,300.5,33.6875,177.5625,0
1776971248.065,10.3501,0.5555,1.2378,0.5891,-4.039,-1.6763,-42.6,-8.4,29.25,7.4939,0.1748,-0.486,-0.2497,0.7029,0.1087,-87.0,-12.3,-15.3,12.37,-2.85,-10.15,-0.1233,-3.1198,-1.1377,-40.5625,36.0,44.375,299.875,31.9375,178.0625,0
1776971248.07,10.3501,0.5555,1.2378,0.5891,-4.039,-1.6763,-42.6,-8.4,29.25,7.7381,0.589,-0.4525,-0.2497,0.7029,0.1087,-87.0,-12.6,-16.8,12.37,-2.85,-10.15,-0.1233,-3.1198,-1.1377,-40.5625,36.0,44.375,299.875,31.9375,178.0625,0
1776971248.075,10.8362,0.9074,0.9098,0.7687,-3.9727,-1.6859,-41.7,-6.0,28.8,7.7381,0.589,-0.4525,-0.0975,0.7237,0.1364,-87.0,-12.6,-16.8,13.48,-2.86,-11.07,-0.0654,-2.918,-0.913,-47.5,33.875,44.5,299.375,30.375,178.4375,0
1776971248.08,10.8362,0.9074,0.9098,0.7687,-3.9727,-1.6859,-41.7,-6.0,28.8,8.1211,0.9218,-0.6153,-0.0975,0.7237,0.1364,-87.0,-12.6,-16.8,13.48,-2.86,-11.07,-0.0654,-2.918,-0.913,-47.5,33.875,44.5,299.375,30.375,178.4375,0
1776971248.085,10.5512,0.3065,0.2394,0.8996,-3.8618,-1.5799,-41.7,-6.0,28.8,8.1211,0.9218,-0.6153,0.0935,0.6307,0.1404,-87.0,-12.6,-16.8,13.71,-2.93,-11.22,0.0098,-2.9452,-0.648,-47.5,33.875,44.5,299.0,28.75,178.6875,0
1776971248.093,10.5321,-0.759,0.5052,1.0605,-3.6711,-1.5316,-41.7,-6.0,28.8,8.4755,1.7717,-1.257,0.2673,0.5153,0.1098,-87.3,-13.2,-14.4,13.91,-3.11,-11.08,0.1189,-3.1274,-0.3491,-47.5,33.875,44.5,298.75,27.0,178.75,0
1776971248.098,10.5321,-0.759,0.5052,1.0605,-3.6711,-1.5316,-41.7,-6.0,24.45,8.4755,1.7717,-1.257,0.2673,0.5153,0.1098,-87.3,-13.2,-14.4,13.91,-3.11,-11.08,0.1189,-3.1274,-0.3491,-47.5,33.875,44.5,298.6875,25.1875,178.6875,0
1776971248.106,9.9096,-0.3998,-0.3759,0.9785,-3.5024,-1.433,-42.3,-4.2,21.45,8.7891,2.5786,-2.0399,0.4016,0.3738,0.0354,-87.3,-13.2,-14.4,12.33,-4.19,-8.91,0.2062,-3.3172,-0.0753,-47.5,33.875,44.5,298.6875,23.375,178.5625,0
1776971248.116,9.007,-1.6185,-1.5083,0.4407,-3.2692,-1.3118,-41.85,-3.45,22.2,8.9232,3.1196,-2.9712,0.4868,0.3328,-0.0674,-87.3,-13.95,-16.65,11.65,-4.83,-8.09,0.1593,-3.219,0.0665,-47.5,33.875,44.5,298.6875,23.375,178.5625,0
1776971248.12,9.007,-1.6185,-1.5083,0.4407,-3.2692,-1.3118,-41.85,-3.45,22.2,9.0644,3.5243,-3.9121,0.4895,0.3043,-0.1764,-88.65,-13.05,-13.5,11.65,-4.83,-8.09,0.1593,-3.219,0.0665,-47.5,33.875,44.5,298.75,21.6875,178.5625,0
1776971248.125,7.7093,-1.9992,-1.8172,0.0442,-3.0358,-1.2196,-42.45,-3.75,19.95,9.0644,3.5243,-3.9121,0.4895,0.3043,-0.1764,-88.65,-13.05,-13.5,11.5,-5.84,-7.05,-0.0687,-3.0347,0.2083,-42.6875,30.25,59.375,298.75,21.6875,178.5625,0
1776971248.13,7.7093,-1.9992,-1.8172,0.0442,-3.0358,-1.2196,-42.45,-3.75,19.95,9.1506,3.5865,-5.0398,0.388,0.2478,-0.2214,-88.65,-13.5,-13.8,11.5,-5.84,-7.05,-0.0687,-3.0347,0.2083,-42.6875,30.25,59.375,298.75,21.6875,178.5625,0
1776971248.135,7.003,-1.5203,-1.9201,-0.5513,-2.7059,-1.1151,-43.5,-1.8,15.9,9.1506,3.5865,-5.0398,0.388,0.2478,-0.2214,-88.65,-13.5,-13.8,11.44,-6.66,-5.45,-0.4298,-2.8351,0.3338,-42.6875,30.25,59.375,299.0,20.125,178.75,0
1776971248.141,6.5122,-0.5507,-2.3367,-1.2921,-2.3643,-0.9723,-43.5,-1.8,15.9,9.2847,3.5171,-6.1746,0.1322,0.3179,-0.2678,-88.65,-13.05,-14.25,11.44,-6.66,-5.45,-0.8858,-2.6093,0.5323,-42.6875,30.25,59.375,299.3125,18.6875,179.1875,0
1776971248.146,6.5122,-0.5507,-2.3367,-1.2921,-2.3643,-0.9723,-43.5,-1.8,15.9,9.2847,3.5171,-6.1746,0.1322,0.3179,-0.2678,-88.65,-13.05,-14.25,11.12,-7.03,-4.24,-0.8858,-2.6093,0.5323,-42.6875,30.25,59.375,299.875,17.25,179.75,0
1776971248.156,5.5905,0.3998,-4.0965,-2.0563,-1.9809,-0.7634,-40.65,0.0,15.6,9.0309,3.5841,-7.2664,-0.125,0.3842,-0.3304,-88.2,-12.6,-13.5,10.77,-7.33,-2.86,-1.2872,-2.5056,0.8192,-42.6875,30.25,59.375,300.6875,15.9375,-179.5,0
1776971248.166,4.0701,1.4748,-6.4212,-2.7006,-1.4997,-0.4927,-42.0,0.0,12.0,8.5904,3.9289,-8.2337,-0.2715,0.4245,-0.3544,-88.65,-13.5,-12.3,10.63,-7.95,-1.04,-1.5643,-2.4206,1.1574,-42.6875,30.25,59.375,300.6875,15.9375,-179.5,0
1776971248.171,2.7078,2.1404,-8.2648,-2.9937,-0.854,-0.23,-42.0,0.0,12.0,9.3111,4.9057,-9.6558,-0.2454,0.5836,-0.3826,-88.65,-13.5,-12.3,10.63,-7.95,-1.04,-1.5643,-2.4206,1.1574,-27.5625,27.0,60.5625,301.6875,14.6875,-178.75,0
1776971248.176,2.7078,2.1404,-8.2648,-2.9937,-0.854,-0.23,-41.85,0.45,13.35,10.5249,5.3271,-10.58,-0.2454,0.5836,-0.3826,-88.65,-13.5,-12.3,11.81,-8.68,4.2,-1.8108,-2.2253,1.5228,-27.5625,27.0,60.5625,301.6875,14.6875,-178.75,0
1776971248.181,2.9736,2.4086,-6.9145,-2.7099,-0.1162,-0.0458,-41.85,0.45,13.35,10.5249,5.3271,-10.58,-0.0221,0.5905,-0.408,-88.65,-12.3,-13.05,11.81,-8.68,4.2,-1.8108,-2.2253,1.5228,-27.5625,27.0,60.5625,302.875,13.75,-177.875,0
1776971248.186,2.9736,2.4086,-6.9145,-2.7099,-0.1162,-0.0458,-42.75,0.3,12.0,10.5919,5.0973,-9.4212,-0.0221,0.5905,-0.408,-88.65,-12.3,-13.05,12.23,-8.13,7.11,-2.078,-1.825,1.8457,-27.5625,27.0,60.5625,302.875,13.75,-177.875,0
1776971248.195,4.7908,2.2625,-4.0007,-2.1085,0.4453,0.0525,-41.1,1.65,12.6,9.9575,3.0718,-7.094,0.4013,0.3352,-0.4692,-88.65,-12.3,-13.05,11.18,-6.49,9.13,-2.2318,-1.3145,2.1009,-27.5625,27.0,60.5625,304.1875,13.0625,-176.9375,0
1776971248.205,8.5617,1.8794,-1.7023,-1.7685,0.8106,0.1396,-41.1,1.65,12.6,9.5529,1.4365,-4.7932,0.263,0.3307,-0.4719,-88.35,-12.9,-12.15,6.8,-3.19,8.81,-1.9831,-0.7254,2.3726,-27.5625,27.0,60.5625,305.625,12.75,-176.125,0
1776971248.214,8.6838,0.9409,-1.2282,-1.3947,0.9971,0.1178,-41.7,3.0,12.75,8.6095,0.4549,-3.067,-0.109,0.3651,-0.376,-89.4,-12.6,-11.55,6.1,-2.98,6.53,-1.249,0.1265,2.7293,-27.5625,27.0,60.5625,307.1875,12.875,-175.75,0
1776971248.219,8.5018,-0.17,-0.8428,-1.2436,1.0171,0.203,-41.7,3.0,12.75,8.6095,0.4549,-3.067,-0.7099,0.6904,-0.2657,-90.45,-11.4,-11.55,6.1,-2.98,6.53,-1.249,0.1265,2.7293,-27.5625,27.0,60.5625,307.1875,12.875,-175.75,0
1776971248.224,8.5018,-0.17,-0.8428,-1.2436,1.0171,0.203,-42.3,1.95,13.65,8.5162,-0.0934,-2.0375,-0.7099,0.6904,-0.2657,-90.45,-11.4,-11.55,7.37,-3.6,3.05,-0.4461,1.2654,3.0631,-18.5,20.875,59.875,308.9375,13.75,-175.9375,0
1776971248.229,8.1499,-0.8188,-0.6776,-1.1711,1.1517,0.3022,-42.3,1.95,13.65,8.5162,-0.0934,-2.0375,-1.1687,0.8607,-0.1871,-89.1,-11.25,-10.35,7.37,-3.6,3.05,-0.4461,1.2654,3.0631,-18.5,20.875,59.875,308.9375,13.75,-175.9375,0
1776971248.234,8.1499,-0.8188,-0.6776,-1.1711,1.1517,0.3022,-42.3,1.2,14.4,7.8171,-0.9601,-1.2785,-1.1687,0.8607,-0.1871,-89.1,-11.25,-10.35,9.99,-4.16,-2.27,0.0087,2.1991,3.255,-18.5,20.875,59.875,310.6875,15.0625,-176.375,0
1776971248.239,7.9248,-0.893,0.2514,-1.2252,1.3089,0.388,-42.3,1.2,14.4,7.8171,-0.9601,-1.2785,-1.5809,1.0861,-0.1274,-90.3,-12.0,-10.35,9.99,-4.16,-2.27,0.0087,2.1991,3.255,-18.5,20.875,59.875,312.4375,16.6875,-176.875,0
1776971248.246,7.9248,-0.893,0.2514,-1.2252,1.3089,0.388,-42.45,2.25,14.85,7.8099,-0.7254,-0.7494,-1.5306,1.267,-0.0802,-90.3,-12.0,-10.35,11.14,-3.54,-4.71,0.0851,2.7085,3.2856,-18.5,20.875,59.875,314.1875,18.3125,-177.4375,0
1776971248.256,7.9703,-0.7278,1.2378,-1.1615,1.5436,0.4916,-42.45,2.25,14.85,6.9887,-0.0958,-0.2083,-1.1519,1.4445,0.04,-89.7,-11.85,-9.75,12.44,-3.27,-6.27,-0.0513,2.7653,3.2136,-18.5,20.875,59.875,314.1875,18.3125,-177.4375,0
1776971248.266,8.1187,-0.4741,1.3647,-1.0451,1.7664,0.6033,-43.5,2.55,16.35,6.9647,-0.1245,0.316,-0.7789,1.5505,0.2017,-89.7,-11.85,-9.75,13.34,-2.18,-7.9,-0.2978,2.6584,3.0041,-18.5,20.875,59.875,315.875,19.8125,-177.8125,0
1776971248.271,8.6646,-0.1532,1.2617,-0.9398,1.9526,0.684,-43.5,2.55,16.35,6.9647,-0.1245,0.316,-0.7789,1.5505,0.2017,-87.75,-12.3,-9.3,13.34,-2.18,-7.9,-0.2978,2.6584,3.0041,-18.5,20.875,59.875,317.375,21.1875,-178.0625,0
1776971248.276,8.6646,-0.1532,1.2617,-0.9398,1.9526,0.684,-43.5,1.05,17.1,6.8833,-0.3879,0.8523,-0.514,1.4514,0.2739,-87.75,-12.3,-9.3,12.61,0.62,-8.07,-0.4843,2.3758,2.6987,-16.5625,19.875,58.0,317.375,21.1875,-178.0625,0
1776971248.281,8.983,0.0479,0.5962,-0.8079,2.0627,0.7194,-43.5,1.05,17.1,6.8833,-0.3879,0.8523,-0.514,1.4514,0.2739,-87.75,-12.3,-9.3,12.61,0.62,-8.07,-0.4843,2.3758,2.6987,-16.5625,19.875,58.0,317.375,21.1875,-178.0625,0
1776971248.286,13.374,3.6919,-2.1308,-1.2041,2.011,0.6675,-42.9,2.4,18.6,6.7493,-0.3687,1.743,-0.3459,1.4578,0.3413,-87.75,-12.3,-9.3,11.36,1.81,-6.74,-0.4189,1.7126,2.3126,-16.5625,19.875,58.0,318.6875,22.1875,-178.3125,0
1776971248.294,13.374,3.6919,-2.1308,-1.2041,2.011,0.6675,-43.2,0.3,20.25,6.6583,-0.0742,2.4972,-0.1346,1.4096,0.4362,-88.8,-11.7,-6.6,1.64,3.28,-5.14,-0.1254,1.1454,1.813,-16.5625,19.875,58.0,319.6875,22.8125,-178.6875,0
1776971248.299,15.129,4.3096,-2.9281,-1.4067,1.7115,0.2867,-43.2,0.3,20.25,6.6583,-0.0742,2.4972,-0.1346,1.4096,0.4362,-89.55,-10.95,-8.4,1.64,3.28,-5.14,-0.1254,1.1454,1.813,-16.5625,19.875,58.0,320.6875,23.6875,-179.3125,0
1776971248.306,19.1752,4.4388,-10.8745,-1.7853,0.4612,0.041,-42.75,1.5,21.0,7.7524,-0.2155,3.5362,-0.052,1.4914,0.5444,-89.55,-10.95,-8.4,-13.59,7.81,-14.86,0.4134,1.4497,1.8162,-16.5625,19.875,58.0,321.4375,25.375,178.8125,0
1776971248.316,17.8919,-1.087,-8.746,0.9278,-0.3384,-0.4175,-42.75,1.5,21.0,9.6367,-1.1492,4.2497,-0.1239,1.5332,0.6757,-89.55,-13.95,-5.85,0.09,4.57,-30.9,2.3017,3.1187,1.8828,-16.5625,19.875,58.0,321.4375,25.375,178.8125,0
1776971248.321,17.8919,-1.087,-8.746,0.9278,-0.3384,-0.4175,-43.2,0.75,20.25,13.1968,-2.2003,4.8483,-0.2795,1.7357,1.012,-88.35,-13.65,-5.85,0.09,4.57,-30.9,2.3017,3.1187,1.8828,-16.5625,19.875,58.0,322.125,27.4375,177.4375,0
1776971248.326,13.7523,2.0063,-3.5698,3.0899,-0.4487,-0.5279,-43.2,0.75,20.25,13.1968,-2.2003,4.8483,-0.2795,1.7357,1.012,-88.35,-13.65,-5.85,7.68,6.96,-23.28,1.6548,3.7437,1.6144,-19.1875,20.0,57.1875,322.125,27.4375,177.4375,0
1776971248.331,13.7523,2.0063,-3.5698,3.0899,-0.4487,-0.5279,-43.35,1.95,20.1,17.911,-2.6911,4.695,-0.3373,1.6715,1.4226,-88.2,-15.0,-3.75,7.68,6.96,-23.28,1.6548,3.7437,1.6144,-19.1875,20.0,57.1875,321.875,29.4375,176.0625,0
1776971248.336,14.4921,0.8619,2.1404,3.3524,0.4559,-0.5915,-43.35,1.95,20.1,17.911,-2.6911,4.695,-0.3373,1.6715,1.4226,-88.2,-15.0,-3.75,9.79,-3.54,-7.84,2.4031,3.6237,-0.0065,-19.1875,20.0,57.1875,321.875,29.4375,176.0625,0
1776971248.341,14.4921,0.8619,2.1404,3.3524,0.4559,-0.5915,-42.9,2.4,21.9,20.6428,-2.3846,3.6057,0.5324,1.7448,1.5087,-88.05,-14.4,-4.35,9.79,-3.54,-7.84,2.8558,2.0006,0.8868,-19.1875,20.0,57.1875,322.0,30.5,174.125,0
1776971248.347,15.8305,-2.8802,-0.9481,3.3465,1.0251,-0.7565,-42.9,2.4,21.9,20.6428,-2.3846,3.6057,0.5324,1.7448,1.5087,-88.05,-14.4,-4.35,17.79,-25.38,-17.15,2.8558,2.0006,0.8868,-19.1875,20.0,57.1875,322.3125,32.0625,172.25,0
1776971248.356,15.8688,-3.134,-1.4988,2.6207,1.0786,-0.3725,-42.6,3.15,21.15,22.0985,1.3743,0.9888,2.4965,2.0701,1.0784,-88.05,-14.4,-4.35,17.52,-6.64,-12.83,2.4718,2.9234,1.165,-19.1875,20.0,57.1875,322.3125,32.0625,172.25,0
1776971248.366,9.2584,-2.1931,-1.9728,1.9745,1.355,-0.1705,-45.45,1.65,20.7,20.6404,1.6376,-0.4405,3.1267,1.7805,0.2771,-87.3,-15.6,-2.1,10.7,-4.76,-10.39,1.309,1.321,-0.1102,-19.1875,20.0,57.1875,322.125,32.75,171.5,0
1776971248.371,9.2584,-2.1931,-1.9728,1.9745,1.355,-0.1705,-45.45,1.65,20.7,13.7738,0.9385,-1.8292,1.776,1.8591,-0.3384,-87.3,-15.6,-2.1,10.7,-4.76,-10.39,1.309,1.321,-0.1102,-19.1875,20.0,57.1875,322.125,32.75,171.5,0
1776971248.376,7.8266,-0.4645,-1.889,1.4194,1.3907,0.0799,-45.45,1.65,20.7,13.7738,0.9385,-1.8292,1.776,1.8591,-0.3384,-87.3,-15.6,-2.1,7.2,-5.51,-9.7,0.7156,-0.1767,-0.2585,-22.5,23.0,52.5625,321.8125,32.6875,171.1875,0
1776971248.381,7.8266,-0.4645,-1.889,1.4194,1.3907,0.0799,-44.25,2.25,24.45,8.5186,0.6033,-2.7509,0.0032,1.6934,-0.6001,-88.05,-13.95,-1.05,7.2,-5.51,-9.7,0.7156,-0.1767,-0.2585,-22.5,23.0,52.5625,321.8125,32.6875,171.1875,0
1776971248.386,7.1611,1.482,-1.6305,0.9697,1.327,0.2787,-44.25,2.25,24.45,8.5186,0.6033,-2.7509,0.0032,1.6934,-0.6001,-88.05,-13.95,-1.05,5.44,-2.48,-8.3,0.372,0.3818,-0.3687,-22.5,23.0,52.5625,321.5625,32.9375,171.125,0
1776971248.394,8.1116,2.7078,-2.8611,0.7418,1.2628,0.2926,-43.95,1.8,26.25,5.5162,0.6153,-0.5219,-1.4778,1.7293,-0.4916,-87.45,-14.55,-0.15,4.38,-3.01,-8.19,0.3589,-0.1811,-0.3218,-22.5,23.0,52.5625,321.3125,32.875,171.0625,0
1776971248.399,8.1116,2.7078,-2.8611,0.7418,1.2628,0.2926,-43.95,1.8,26.25,5.2361,0.6776,1.7789,-2.1677,1.3672,-0.3379,-87.3,-13.95,-0.15,4.38,-3.01,-8.19,0.3589,-0.1811,-0.3218,-22.5,23.0,52.5625,321.125,32.75,170.875,0
1776971248.406,7.7069,4.2162,-4.7262,0.8623,1.1413,0.0221,-44.1,1.2,27.15,6.7109,-0.3567,3.304,-2.1677,1.3672,-0.3379,-87.3,-13.95,1.05,4.17,-0.41,-7.72,0.4603,-0.2378,-0.2683,-22.5,23.0,52.5625,320.9375,32.8125,170.875,0
1776971248.416,6.5457,5.8179,-4.6926,1.3376,1.1261,-0.3741,-44.1,1.2,26.85,8.3318,-0.7661,2.4301,-2.2465,1.0818,-0.2318,-86.1,-15.9,1.35,4.25,-1.35,-8.07,0.2258,0.0502,-0.2487,-22.5,23.0,52.5625,320.9375,32.8125,170.875,0
1776971248.421,7.4819,4.8052,-3.0215,1.5457,1.1623,-0.5023,-44.1,1.2,26.85,8.3318,-0.7661,2.4301,-1.3254,0.5329,-0.0312,-86.85,-15.15,1.8,4.25,-1.35,-8.07,0.2258,0.0502,-0.2487,-22.5,23.0,52.5625,320.8125,33.0625,170.875,0
1776971248.426,7.4819,4.8052,-3.0215,1.5457,1.1623,-0.5023,-44.1,1.2,26.85,7.0246,-0.1413,0.8835,-1.3254,0.5329,-0.0312,-86.85,-15.15,1.8,4.55,-1.37,-8.14,-0.0087,0.4069,-0.2313,-24.0,25.375,51.375,320.8125,33.0625,170.875,0
1776971248.431,8.7149,2.0135,-1.549,1.1532,1.1186,-0.3933,-44.1,1.2,26.85,7.0246,-0.1413,0.8835,-0.0887,0.4746,0.0139,-85.8,-15.15,1.8,4.55,-1.37,-8.14,-0.0087,0.4069,-0.2313,-24.0,25.375,51.375,320.75,33.5,171.0,0
1776971248.436,8.7149,2.0135,-1.549,1.1532,1.1186,-0.3933,-44.1,1.2,26.85,6.0071,-0.2179,1.1037,0.7197,0.7906,-0.0051,-85.8,-15.15,1.8,4.89,-0.94,-8.73,-0.1244,0.781,-0.2029,-24.0,25.375,51.375,320.75,33.5,171.0,0
1776971248.443,9.3494,-0.0814,-0.3567,0.5502,1.1373,-0.2987,-43.65,0.9,30.45,6.0071,-0.2179,1.1037,0.7197,0.7906,-0.0051,-85.8,-15.15,1.8,4.81,-1.95,-7.87,-0.12,0.7156,-0.1102,-24.0,25.375,51.375,320.75,33.875,171.0625,0
1776971248.448,9.3494,-0.0814,-0.3567,0.5502,1.1373,-0.2987,-43.65,0.9,30.45,7.0102,0.5411,1.5682,0.8239,0.9888,0.0248,-85.8,-15.15,1.8,4.81,-1.95,-7.87,-0.12,0.7156,-0.1102,-24.0,25.375,51.375,320.75,34.1875,171.125,0
1776971248.456,10.1801,-0.5315,0.6632,-0.2574,1.1234,-0.2318,-45.0,0.75,30.6,8.8442,1.7789,1.7119,0.292,1.0698,0.114,-85.35,-15.9,3.6,5.52,-2.19,-8.33,-0.0971,0.5563,-0.0273,-24.0,25.375,51.375,320.8125,34.625,171.125,0
1776971248.466,10.6518,0.2682,0.9409,-0.9822,1.1042,-0.1612,-44.55,2.55,30.6,10.4291,1.889,2.8371,-0.4855,1.0461,0.0565,-85.35,-15.9,3.6,5.62,-2.13,-8.47,-0.1178,0.7625,0.0,-24.0,25.375,51.375,320.8125,34.625,171.125,0
1776971248.471,10.4483,1.9609,0.2442,-1.2713,1.0469,-0.1034,-43.5,2.25,31.35,10.4291,1.889,2.8371,-0.4855,1.0461,0.0565,-85.95,-15.45,4.2,5.62,-2.13,-8.47,-0.1178,0.7625,0.0,-24.0,25.375,51.375,320.8125,34.625,171.125,0
1776971248.476,10.4483,1.9609,0.2442,-1.2713,1.0469,-0.1034,-43.5,2.25,31.35,10.6829,1.4964,4.4628,-1.2979,0.7256,-0.0914,-85.95,-15.45,4.2,6.18,-1.79,-8.83,-0.0764,0.8487,-0.0338,-24.5625,26.5625,50.5625,320.8125,35.125,171.125,0
1776971248.481,10.0102,3.1891,-0.6847,-1.0488,0.9819,-0.0461,-43.5,2.25,31.35,10.6829,1.4964,4.4628,-1.2979,0.7256,-0.0914,-85.05,-13.95,3.6,6.18,-1.79,-8.83,-0.0764,0.8487,-0.0338,-24.5625,26.5625,50.5625,320.8125,35.125,171.125,0
1776971248.486,10.0102,3.1891,-0.6847,-1.0488,0.9819,-0.0461,-43.5,2.25,31.35,9.8497,1.0606,5.4947,-1.6952,0.3872,-0.1953,-85.05,-13.95,3.6,6.03,-2.03,-8.22,-0.0425,0.6829,-0.0131,-24.5625,26.5625,50.5625,320.875,35.5,171.125,0
1776971248.496,9.2344,3.4261,-0.7422,-0.6422,0.922,-0.0072,-45.0,1.05,31.95,9.5912,1.2833,5.8826,-1.6233,0.1615,-0.2046,-84.75,-16.5,3.75,5.54,-1.98,-8.25,0.0207,0.3294,-0.0055,-24.5625,26.5625,50.5625,320.875,35.625,171.0625,0
1776971248.505,9.0237,3.5721,-0.8643,-0.2814,0.8687,0.0128,-45.0,2.25,31.95,9.2895,3.0071,5.5833,-1.3648,0.1428,-0.1924,-85.95,-17.7,3.75,5.53,-1.49,-8.21,0.0404,0.2738,-0.0218,-24.5625,26.5625,50.5625,320.875,35.8125,171.0625,0
1776971248.51,8.8059,3.2609,-1.1779,0.0075,0.8324,-0.0072,-44.25,2.55,33.0,9.2895,3.0071,5.5833,-1.3648,0.1428,-0.1924,-85.95,-17.7,3.75,5.53,-1.49,-8.21,0.0404,0.2738,-0.0218,-24.5625,26.5625,50.5625,320.875,36.0,171.0,0
1776971248.517,8.8059,3.2609,-1.1779,0.0075,0.8324,-0.0072,-44.85,1.65,32.55,9.3685,4.6088,4.367,-1.1682,0.2611,-0.2193,-85.5,-16.5,3.0,5.51,-1.45,-8.05,0.0382,0.2967,-0.0371,-24.5625,26.5625,50.5625,320.875,36.0,171.0,0
1776971248.522,9.1889,3.1843,-1.494,0.267,0.8223,-0.0437,-44.85,1.65,32.55,9.2943,4.9249,3.3471,-1.1682,0.2611,-0.2193,-84.0,-16.5,2.7,5.51,-1.45,-8.05,0.0338,0.252,-0.0502,-26.0625,26.0,50.5625,320.8125,36.125,171.0,0
1776971248.527,9.1889,3.1843,-1.494,0.267,0.8223,-0.0437,-45.15,1.95,32.85,9.2943,4.9249,3.3471,-1.0722,0.4173,-0.316,-84.0,-16.5,2.7,5.2,-1.34,-8.03,0.0338,0.252,-0.0502,-26.0625,26.0,50.5625,320.8125,36.125,171.0,0
1776971248.532,9.1028,3.0933,-1.6352,0.3659,0.822,-0.0642,-45.15,1.95,32.85,8.9663,3.6727,2.5881,-1.0722,0.4173,-0.316,-84.0,-16.5,2.7,5.2,-1.34,-8.03,0.0316,0.2793,-0.0611,-26.0625,26.0,50.5625,320.8125,36.25,171.0,0
1776971248.537,9.1028,3.0933,-1.6352,0.3659,0.822,-0.0642,-45.15,1.95,32.85,8.9663,3.6727,2.5881,-0.9766,0.5057,-0.3842,-84.0,-16.5,2.7,5.31,-1.37,-8.05,0.0316,0.2793,-0.0611,-26.0625,26.0,50.5625,320.8125,36.25,171.0,0
1776971248.542,9.2967,2.6887,-1.5826,0.3296,0.8228,-0.0437,-45.15,1.95,32.85,8.7053,2.0375,1.913,-0.8588,0.5183,-0.4048,-83.7,-16.5,3.45,5.22,-1.34,-7.91,0.0273,0.3,-0.0393,-26.0625,26.0,50.5625,320.8125,36.4375,171.0,0
1776971248.547,9.3254,1.9058,-1.0798,0.1516,0.8415,-0.0234,-44.55,3.75,34.2,8.7053,2.0375,1.913,-0.8588,0.5183,-0.4048,-83.7,-16.5,3.45,5.22,-1.34,-7.91,0.0273,0.3,-0.0393,-26.0625,26.0,50.5625,320.75,36.625,170.9375,0
1776971248.556,9.3254,1.9058,-1.0798,-0.2316,0.8159,-0.0104,-44.55,3.75,34.2,8.5736,0.6416,1.3024,-0.6736,0.5428,-0.3659,-83.7,-16.95,3.45,5.18,-1.29,-7.94,0.048,0.3022,-0.0251,-26.0625,26.0,50.5625,320.75,36.625,170.9375,0
1776971248.566,9.5002,0.8452,-0.4764,-0.635,0.7938,0.0035,-42.9,1.95,35.7,9.3206,-0.668,1.2761,-0.5407,0.5782,-0.3467,-85.05,-15.9,5.1,5.41,-1.48,-8.01,0.0676,0.3294,-0.0109,-26.0625,26.0,50.5625,320.75,36.8125,170.875,0
1776971248.571,9.5002,0.8452,-0.4764,-0.635,0.7938,0.0035,-42.9,1.95,35.7,9.4403,-1.2737,1.8531,-0.4423,0.5121,-0.3099,-83.85,-16.8,5.55,5.41,-1.48,-8.01,0.0676,0.3294,-0.0109,-26.0625,26.0,50.5625,320.75,37.0,170.8125,0
1776971248.576,9.7324,1.0511,-0.3903,-0.9121,0.7719,0.02,-45.0,2.55,35.85,9.4403,-1.2737,1.8531,-0.4423,0.5121,-0.3099,-83.85,-16.8,5.55,5.73,-2.09,-8.24,0.0774,0.3545,-0.0098,-26.75,26.0625,50.1875,320.75,37.0,170.8125,0
1776971248.576,9.7324,1.0511,-0.3903,-0.9121,0.7719,0.02,-45.0,2.55,35.85,9.4403,-1.2737,1.8531,-0.4423,0.5121,-0.3099,-83.85,-16.8,5.55,5.73,-2.09,-8.24,0.0774,0.3545,-0.0098,-26.75,26.0625,50.1875,320.75,37.0,170.8125,0
1776971248.581,9.7324,1.0511,-0.3903,-0.9121,0.7719,0.02,-45.0,2.55,35.85,9.56,-0.9792,2.1668,-0.5089,0.4517,-0.2848,-84.0,-15.0,6.0,5.73,-2.09,-8.24,0.0774,0.3545,-0.0098,-26.75,26.0625,50.1875,320.75,37.1875,170.8125,0
1776971248.587,9.9742,1.5443,0.0646,-1.0613,0.7384,0.0386,-43.95,1.5,36.6,9.56,-0.9792,2.1668,-0.5089,0.4517,-0.2848,-84.0,-15.0,6.0,5.59,-1.7,-8.03,0.0502,0.3687,-0.024,-26.75,26.0625,50.1875,320.75,37.1875,170.8125,0
1776971248.595,9.9742,1.5443,0.0646,-1.0613,0.7384,0.0386,-43.95,1.5,36.6,9.3374,-0.3112,2.8323,-0.6877,0.3472,-0.3094,-84.6,-17.55,5.1,5.53,-1.5,-8.04,0.0164,0.4058,-0.0469,-26.75,26.0625,50.1875,320.75,37.4375,170.75,0
1776971248.599,9.7707,1.8052,0.2562,-1.0781,0.692,0.0589,-43.95,1.5,36.6,9.0501,0.34,3.3686,-0.9619,0.2422,-0.3616,-84.6,-17.55,5.1,5.53,-1.5,-8.04,0.0164,0.4058,-0.0469,-26.75,26.0625,50.1875,320.75,37.625,170.75,0
1776971248.607,9.675,2.0494,0.3543,-1.0078,0.6547,0.0719,-44.25,2.55,36.3,9.0501,0.34,3.3686,-0.9619,0.2422,-0.3616,-84.6,-17.55,5.1,5.8,-1.55,-7.93,-0.0196,0.4156,-0.0469,-26.75,26.0625,50.1875,320.75,37.875,170.8125,0
1776971248.617,9.4451,2.0806,0.2274,-0.919,0.6137,0.0528,-44.25,3.3,37.35,8.6167,0.2873,3.8666,-1.3163,0.1362,-0.4389,-84.75,-16.5,4.2,5.69,-1.54,-7.9,-0.0425,0.3982,-0.0447,-26.75,26.0625,50.1875,320.75,37.875,170.8125,0
1776971248.622,9.4451,2.0806,0.2274,-0.919,0.6137,0.0528,-44.25,3.3,37.35,8.9304,0.2873,3.6009,-1.5394,0.1588,-0.4935,-84.75,-16.5,4.2,5.69,-1.54,-7.9,-0.0425,0.3982,-0.0447,-26.75,26.0625,50.1875,320.75,37.875,170.8125,0
1776971248.627,9.5146,2.4229,0.1963,-0.8274,0.575,0.0408,-42.75,0.3,37.35,8.9304,0.2873,3.6009,-1.5394,0.1588,-0.4935,-84.75,-16.5,4.2,5.74,-1.62,-7.91,-0.0698,0.3643,-0.0665,-27.5,26.0625,49.0,320.75,38.0625,170.8125,0
1776971248.631,9.5146,2.4229,0.1963,-0.8274,0.575,0.0408,-42.75,0.3,37.35,8.7532,0.1149,3.5267,-1.6148,0.0794,-0.5012,-83.4,-16.8,4.35,5.74,-1.62,-7.91,-0.0698,0.3643,-0.0665,-27.5,26.0625,49.0,320.75,38.0625,170.8125,0
1776971248.636,9.5481,2.4086,0.1221,-0.7258,0.5569,0.0195,-44.1,0.9,36.75,8.7532,0.1149,3.5267,-1.6148,0.0794,-0.5012,-83.4,-16.8,4.35,5.78,-1.4,-7.87,-0.0698,0.3643,-0.0665,-27.5,26.0625,49.0,320.75,38.25,170.8125,0
1776971248.641,9.5481,2.4086,0.1221,-0.7258,0.5569,0.0195,-44.1,0.9,36.75,8.6072,0.34,3.2848,-1.5847,0.0184,-0.4636,-83.4,-16.8,4.35,5.78,-1.4,-7.87,-0.1036,0.3916,-0.0698,-27.5,26.0625,49.0,320.75,38.4375,170.875,0
1776971248.647,9.4451,2.1021,0.2131,-0.7277,0.5191,0.0024,-44.25,1.05,37.35,8.7532,0.5267,3.2513,-1.5535,0.0024,-0.4445,-84.45,-18.9,5.7,5.85,-1.34,-7.86,-0.1036,0.3916,-0.0698,-27.5,26.0625,49.0,320.75,38.4375,170.875,0
1776971248.656,9.5313,1.7861,0.1939,-0.8172,0.4978,0.0112,-44.25,1.05,37.35,8.6886,0.9074,3.0239,-1.5535,0.0024,-0.4445,-83.1,-16.8,4.35,5.81,-1.4,-7.83,-0.132,0.4058,-0.0709,-27.5,26.0625,49.0,320.75,38.625,170.9375,0
1776971248.661,9.5313,1.7861,0.1939,-0.8172,0.4978,0.0112,-44.25,1.05,37.35,8.6886,0.9074,3.0239,-1.5852,-0.0322,-0.4154,-83.1,-16.8,4.35,5.81,-1.4,-7.83,-0.144,0.408,-0.0731,-27.5,26.0625,49.0,320.75,38.8125,171.0,0
1776971248.667,9.6103,1.7549,0.1197,-0.9481,0.47,0.02,-44.25,2.25,37.05,8.7867,1.4796,3.134,-1.6665,-0.0424,-0.3933,-85.2,-18.45,4.95,5.82,-1.38,-7.84,-0.144,0.408,-0.0731,-27.5,26.0625,49.0,320.75,38.8125,171.0,0
1776971248.672,9.6103,1.7549,0.1197,-0.9481,0.47,0.02,-44.25,2.25,37.05,8.7867,1.4796,3.134,-1.6665,-0.0424,-0.3933,-84.75,-18.45,3.45,5.82,-1.38,-7.84,-0.144,0.408,-0.0731,-28.1875,25.6875,49.25,320.8125,39.0,171.0625,0
1776971248.677,9.5217,2.0758,0.1077,-1.0493,0.4514,0.0336,-43.95,0.0,38.7,9.0692,1.7741,3.2777,-1.7312,-0.0226,-0.3725,-84.75,-18.45,3.45,5.76,-1.38,-7.84,-0.1625,0.4385,-0.0578,-28.1875,25.6875,49.25,320.8125,39.0,171.0625,0
1776971248.682,9.5217,2.0758,0.1077,-1.0917,0.4399,0.0405,-43.95,0.0,38.7,9.0692,1.7741,3.2777,-1.7312,-0.0226,-0.3725,-84.15,-19.5,6.15,5.76,-1.38,-7.84,-0.1625,0.4385,-0.0578,-28.1875,25.6875,49.25,320.8125,39.1875,171.125,0
1776971248.687,9.402,2.3918,0.0718,-1.0917,0.4399,0.0405,-43.65,1.65,37.8,9.402,2.0255,3.3279,-1.7368,0.0333,-0.3712,-84.15,-19.5,6.15,5.92,-1.34,-7.77,-0.1625,0.4385,-0.0578,-28.1875,25.6875,49.25,320.8125,39.1875,171.125,0
1776971248.692,9.6199,2.4541,0.0359,-1.0685,0.4455,0.0514,-43.65,1.65,37.8,9.402,2.0255,3.3279,-1.7368,0.0333,-0.3712,-84.15,-19.5,6.15,5.92,-1.34,-7.77,-0.1604,0.4712,-0.0535,-28.1875,25.6875,49.25,320.8125,39.4375,171.1875,0
1776971248.697,9.6199,2.4541,0.0359,-1.0685,0.4455,0.0514,-42.3,1.65,37.2,9.1482,2.1787,3.6655,-1.7059,-0.0115,-0.3717,-84.15,-19.5,6.15,6.1,-1.26,-7.77,-0.1604,0.4712,-0.0535,-28.1875,25.6875,49.25,320.8125,39.4375,171.1875,0
1776971248.706,9.5672,2.332,-0.0311,-0.9968,0.4399,0.064,-42.3,1.65,37.2,9.2727,2.0638,3.7278,-1.6939,0.032,-0.3813,-82.95,-20.85,3.75,6.08,-1.31,-7.72,-0.1527,0.4276,-0.0404,-28.1875,25.6875,49.25,320.875,39.625,171.25,0
1776971248.716,9.493,2.1907,-0.0718,-0.9292,0.4421,0.0514,-42.75,-0.3,38.1,9.2847,1.9369,3.4572,-1.6529,0.0123,-0.3904,-82.95,-20.85,3.75,6.07,-1.36,-7.68,-0.1396,0.3807,-0.0284,-28.1875,25.6875,49.25,320.875,39.8125,171.3125,0
1776971248.721,9.3374,2.0614,-0.0072,-0.8953,0.4399,0.0456,-42.75,-0.3,38.1,9.2847,1.9369,3.4572,-1.6529,0.0123,-0.3904,-82.95,-20.85,3.75,6.07,-1.36,-7.68,-0.1396,0.3807,-0.0284,-28.1875,25.6875,49.25,320.875,39.8125,171.3125,0
1776971248.726,9.3374,2.0614,-0.0072,-0.8953,0.4399,0.0456,-42.6,-0.45,38.55,9.3326,1.7262,2.9712,-1.6339,0.0242,-0.3952,-84.0,-20.85,4.5,6.1,-1.35,-7.75,-0.1287,0.3654,-0.0109,-29.5625,25.375,47.25,320.9375,40.0625,171.375,0
1776971248.731,9.6103,2.0399,-0.0024,-0.9366,0.4415,0.0533,-42.6,-0.45,38.55,9.3326,1.7262,2.9712,-1.6339,0.0242,-0.3952,-84.0,-20.85,4.5,6.1,-1.35,-7.75,-0.1287,0.3654,-0.0109,-29.5625,25.375,47.25,320.9375,40.0625,171.375,0
1776971248.736,9.6103,2.0399,-0.0024,-0.9366,0.4415,0.0533,-43.5,0.0,38.1,9.1291,1.6281,2.545,-1.607,-0.0141,-0.3752,-85.5,-20.1,3.45,6.17,-1.3,-7.63,-0.1113,0.3371,0.0033,-29.5625,25.375,47.25,320.9375,40.25,171.4375,0
1776971248.741,9.6031,1.9848,-0.0694,-0.9774,0.4463,0.0671,-43.5,0.0,38.1,9.1291,1.6281,2.545,-1.607,-0.0141,-0.3752,-85.5,-20.1,3.45,6.17,-1.3,-7.63,-0.0884,0.2782,0.0284,-29.5625,25.375,47.25,321.0,40.375,171.4375,0
1776971248.748,9.6031,1.9848,-0.0694,-0.9774,0.4463,0.0671,-42.0,-0.75,38.1,9.3015,1.4605,2.1835,-1.6177,0.0232,-0.3714,-84.6,-21.0,3.6,6.28,-1.35,-7.73,-0.0884,0.2782,0.0284,-29.5625,25.375,47.25,321.0,40.375,171.4375,0
1776971248.756,9.5816,2.1045,-0.1197,-1.0301,0.4572,0.0762,-40.65,-0.75,39.15,9.1506,1.2881,2.0207,-1.6166,0.0397,-0.3608,-85.35,-21.45,4.8,6.2,-1.24,-7.68,-0.0687,0.2465,0.0502,-29.5625,25.375,47.25,321.0625,40.4375,171.4375,0
1776971248.761,9.4571,2.1045,-0.2682,-1.0885,0.4692,0.0893,-40.65,-0.75,39.15,9.1506,1.2881,2.0207,-1.6166,0.0397,-0.3608,-85.35,-21.45,4.8,6.2,-1.24,-7.68,-0.0556,0.2062,0.0578,-29.5625,25.375,47.25,321.125,40.5625,171.375,0
1776971248.768,9.4571,2.1045,-0.2682,-1.0885,0.4692,0.0893,-40.65,-0.75,39.15,9.2775,1.2043,1.8172,-1.6409,0.0549,-0.3648,-84.75,-21.3,1.95,6.17,-1.29,-7.55,-0.0556,0.2062,0.0578,-29.5625,25.375,47.25,321.125,40.5625,171.375,0
1776971248.772,9.4332,2.1883,-0.2274,-1.1346,0.4751,0.0973,-40.65,-0.75,39.15,9.1506,1.2713,1.8076,-1.6848,0.0925,-0.3597,-84.75,-21.3,1.95,6.17,-1.29,-7.55,-0.0556,0.2062,0.0578,-30.0,24.0,47.25,321.1875,40.625,171.375,0
1776971248.778,9.4332,2.1883,-0.2274,-1.1346,0.4751,0.0973,-42.9,-0.45,39.0,9.1506,1.2713,1.8076,-1.6848,0.0925,-0.3597,-84.0,-22.5,2.7,6.05,-1.32,-7.6,-0.0382,0.1974,0.0458,-30.0,24.0,47.25,321.1875,40.625,171.375,0
1776971248.782,9.4164,2.411,-0.1796,-1.1722,0.4948,0.0994,-42.9,-0.45,39.0,9.1602,1.482,1.9106,-1.7195,0.0405,-0.3387,-84.0,-22.5,2.7,6.05,-1.32,-7.6,-0.0382,0.1974,0.0458,-30.0,24.0,47.25,321.1875,40.6875,171.3125,0
1776971248.788,9.4164,2.411,-0.1796,-1.1722,0.4948,0.0994,-42.9,1.95,39.0,9.1602,1.482,1.9106,-1.7195,0.0405,-0.3387,-84.0,-22.5,2.7,6.26,-1.19,-7.64,-0.0295,0.2018,0.0262,-30.0,24.0,47.25,321.1875,40.6875,171.3125,0
1776971248.792,9.4523,2.5019,-0.0814,-1.161,0.4996,0.1212,-42.6,0.45,39.6,9.3254,1.64,2.1237,-1.7738,0.0104,-0.3272,-84.0,-22.5,2.7,6.26,-1.19,-7.64,-0.0305,0.2029,0.0273,-30.0,24.0,47.25,321.25,40.8125,171.3125,0
1776971248.798,9.4523,2.5019,-0.0814,-1.161,0.4996,0.1212,-42.6,0.45,39.6,9.3254,1.64,2.1237,-1.7738,0.0104,-0.3272,-84.45,-21.3,1.95,6.15,-1.2,-7.58,-0.0305,0.2029,0.0273,-30.0,24.0,47.25,321.25,40.8125,171.3125,0
1776971248.806,9.3901,2.715,-0.1963,-1.1178,0.5356,0.1308,-42.9,-0.9,38.25,9.177,2.0758,2.3008,-1.8234,-0.0413,-0.3096,-84.45,-21.3,1.95,6.43,-1.15,-7.49,-0.0273,0.2094,0.0087,-30.0,24.0,47.25,321.25,40.875,171.3125,0
1776971248.811,9.4667,2.7007,-0.2705,-1.0648,0.5465,0.1452,-42.9,-0.9,38.25,9.3087,2.2482,2.4995,-1.8703,-0.0338,-0.3147,-84.45,-21.3,1.95,6.43,-1.15,-7.49,-0.0316,0.18,0.0273,-30.0,24.0,47.25,321.3125,40.9375,171.3125,0
1776971248.818,9.5026,2.7222,-0.1987,-1.0003,0.5742,0.1668,-40.8,0.45,40.05,9.3087,2.2482,2.4995,-1.8703,-0.0338,-0.3147,-84.45,-22.8,1.65,6.02,-1.15,-7.6,-0.0316,0.18,0.0273,-30.0,24.0,47.25,321.3125,40.9375,171.3125,0
1776971248.823,9.5026,2.7222,-0.1987,-1.0003,0.5742,0.1668,-40.8,0.45,40.05,9.3613,2.5091,2.4588,-1.8826,-0.0381,-0.2835,-84.45,-22.8,1.65,6.02,-1.15,-7.6,-0.0284,0.1898,0.0044,-30.375,24.25,49.25,321.3125,41.0625,171.3125,0
1776971248.828,9.4595,2.6743,-0.3328,-0.9537,0.6179,0.1887,-40.8,0.45,40.05,9.3613,2.5091,2.4588,-1.8826,-0.0381,-0.2835,-85.2,-23.55,1.65,6.25,-1.12,-7.66,-0.0284,0.1898,0.0044,-30.375,24.25,49.25,321.3125,41.0625,171.3125,0
1776971248.833,9.4595,2.6743,-0.3328,-0.9537,0.6179,0.1887,-40.65,-1.05,38.7,9.4044,2.6863,2.4205,-1.8285,-0.0477,-0.2854,-85.2,-23.55,1.65,6.25,-1.12,-7.66,-0.0295,0.2018,-0.0055,-30.375,24.25,49.25,321.3125,41.125,171.3125,0
1776971248.838,9.5433,2.4924,-0.3448,-0.9228,0.6435,0.1964,-40.65,-1.05,38.7,9.4044,2.6863,2.4205,-1.8285,-0.0477,-0.2854,-84.0,-23.55,2.4,6.26,-1.06,-7.53,-0.0295,0.2018,-0.0055,-30.375,24.25,49.25,321.3125,41.125,171.3125,0
1776971248.843,9.5433,2.4924,-0.3448,-0.9228,0.6435,0.1964,-41.85,-0.9,40.65,9.3685,2.4852,2.3607,-1.805,-0.024,-0.2875,-84.0,-23.55,2.4,6.26,-1.06,-7.53,-0.0371,0.1953,0.0011,-30.375,24.25,49.25,321.3125,41.1875,171.3125,0
1776971248.848,9.426,2.3607,-0.1604,-0.9116,0.6744,0.2094,-41.85,-0.9,40.65,9.165,2.7581,2.15,-1.805,-0.024,-0.2875,-85.05,-22.95,0.3,6.19,-1.16,-7.63,-0.0371,0.1953,0.0011,-30.375,24.25,49.25,321.3125,41.1875,171.3125,0
1776971248.857,9.3613,2.0087,-0.182,-0.9161,0.704,0.2158,-40.95,-2.25,39.9,9.165,2.7581,2.15,-1.7144,-0.0285,-0.2718,-84.15,-23.85,1.05,6.18,-1.11,-7.6,-0.0404,0.1974,0.0076,-30.375,24.25,49.25,321.375,41.25,171.3125,0
1776971248.862,9.3613,2.0087,-0.182,-0.9161,0.704,0.2158,-42.0,-1.5,39.9,9.0477,2.7007,1.9776,-1.5969,0.0107,-0.2454,-84.15,-23.85,1.05,6.18,-1.11,-7.6,-0.0469,0.2073,0.0109,-30.375,24.25,49.25,321.375,41.375,171.3125,0
1776971248.868,9.3063,1.9201,-0.1532,-0.9595,0.7432,0.2225,-42.0,-1.5,39.9,9.0357,2.8515,1.968,-1.5969,0.0107,-0.2454,-84.6,-24.6,1.05,6.18,-1.12,-7.52,-0.0469,0.2073,0.0109,-30.375,24.25,49.25,321.375,41.375,171.3125,0
1776971248.873,9.3063,1.9201,-0.1532,-0.9595,0.7432,0.2225,-41.7,-2.25,40.5,9.0357,2.8515,1.968,-1.4687,0.044,-0.235,-84.6,-24.6,1.05,6.27,-1.13,-7.53,-0.0545,0.2193,0.0175,-31.875,24.0,48.5,321.375,41.4375,171.375,0
1776971248.878,9.323,1.9273,-0.2011,-0.9872,0.7831,0.235,-41.7,-2.25,40.5,8.9735,2.9233,1.9201,-1.3608,0.0781,-0.2068,-84.6,-24.6,1.05,6.27,-1.13,-7.53,-0.0545,0.2193,0.0175,-31.875,24.0,48.5,321.375,41.4375,171.375,0
1776971248.883,9.323,1.9273,-0.2011,-0.9872,0.7831,0.235,-41.7,-2.25,40.5,8.9735,2.9233,1.9201,-1.3608,0.0781,-0.2068,-84.6,-24.6,1.05,6.27,-1.13,-7.53,-0.06,0.2116,0.0273,-31.875,24.0,48.5,321.4375,41.5,171.375,0
1776971248.888,9.3877,2.1284,-0.0335,-0.9563,0.8119,0.2313,-41.7,-2.25,40.5,8.9711,2.806,1.8531,-1.2902,0.1042,-0.1708,-85.05,-23.85,0.3,6.08,-1.11,-7.57,-0.06,0.2116,0.0273,-31.875,24.0,48.5,321.4375,41.5,171.375,0
1776971248.893,9.3877,2.1284,-0.0335,-0.9563,0.8119,0.2313,-40.65,-3.0,42.3,8.9711,2.806,1.8531,-1.2902,0.1042,-0.1708,-85.05,-23.85,0.3,6.08,-1.11,-7.57,-0.048,0.2291,0.0327,-31.875,24.0,48.5,321.5,41.5625,171.375,0
1776971248.898,9.4571,2.5786,-0.0359,-0.8545,0.8348,0.2281,-40.65,-3.0,42.3,9.0405,2.7318,1.8244,-1.2236,0.0981,-0.1298,-85.05,-23.85,0.3,6.27,-1.17,-7.58,-0.048,0.2291,0.0327,-31.875,24.0,48.5,321.5,41.5625,171.375,0
1776971248.907,9.4978,2.5163,0.1437,-0.7208,0.8601,0.235,-40.65,-4.05,42.0,9.1578,2.624,1.9824,-1.1644,0.1045,-0.1077,-85.05,-25.05,0.6,6.24,-1.14,-7.46,-0.0382,0.2563,0.0273,-31.875,24.0,48.5,321.5,41.6875,171.3125,0
1776971248.912,9.4978,2.5163,0.1437,-0.7208,0.8601,0.235,-42.0,-4.5,42.0,9.1578,2.624,1.9824,-1.1644,0.1045,-0.1077,-85.05,-25.05,0.6,6.24,-1.14,-7.46,-0.0491,0.2913,0.0447,-31.875,24.0,48.5,321.5625,41.8125,171.3125,0
1776971248.918,9.5074,2.5211,0.3855,-0.5764,0.8831,0.226,-42.0,-4.5,42.0,9.1698,2.5953,2.1261,-1.1183,0.0959,-0.0975,-84.6,-25.35,0.3,5.95,-1.15,-7.58,-0.0491,0.2913,0.0447,-31.875,24.0,48.5,321.5625,41.8125,171.3125,0
1776971248.923,9.5074,2.5211,0.3855,-0.5764,0.8831,0.226,-41.1,-3.45,41.1,9.1698,2.5953,2.1261,-1.1183,0.0959,-0.0975,-84.6,-25.35,0.3,5.95,-1.15,-7.58,-0.0491,0.2913,0.0447,-31.875,24.25,48.1875,321.625,41.875,171.3125,0
1776971248.928,9.5648,2.2075,0.7829,-0.4554,0.9212,0.2182,-41.1,-3.45,41.1,9.1961,2.3559,2.3583,-1.0765,0.1156,-0.089,-85.05,-25.8,3.3,6.13,-1.19,-7.57,-0.0295,0.3087,0.0218,-31.875,24.25,48.1875,321.625,41.875,171.3125,0
1776971248.933,9.5648,2.2075,0.7829,-0.4554,0.9212,0.2182,-41.1,-3.45,41.1,9.1961,2.3559,2.3583,-1.0765,0.1156,-0.089,-85.05,-25.8,3.3,6.13,-1.19,-7.57,-0.0295,0.3087,0.0218,-31.875,24.25,48.1875,321.625,42.0,171.3125,0
1776971248.938,9.2847,2.4445,0.9457,-0.4255,0.9435,0.2214,-41.1,-3.45,41.1,9.1028,2.2194,2.4397,-1.0168,0.121,-0.0791,-85.95,-26.7,-0.15,6.21,-1.17,-7.51,-0.0458,0.3403,0.0262,-31.875,24.25,48.1875,321.625,42.0,171.3125,0
1776971248.943,9.2847,2.4445,0.9457,-0.4255,0.9435,0.2214,-39.9,-5.55,42.75,9.1028,2.2194,2.4397,-1.0168,0.121,-0.0791,-85.95,-26.7,-0.15,6.21,-1.17,-7.51,-0.0862,0.3392,0.0513,-31.875,24.25,48.1875,321.6875,42.125,171.25,0
1776971248.948,9.3087,2.2051,0.7566,-0.4335,1.0011,0.2366,-39.9,-5.55,42.75,8.9878,2.2984,2.3487,-0.9268,0.1362,-0.0746,-85.2,-26.4,0.15,6.34,-1.19,-7.4,-0.0862,0.3392,0.0513,-31.875,24.25,48.1875,321.6875,42.125,171.25,0
1776971248.957,9.6247,1.257,0.6225,-0.4189,1.0155,0.2595,-39.3,-3.15,43.2,8.9878,2.2577,2.4732,-0.8831,0.1577,-0.0581,-84.15,-26.55,0.0,6.29,-1.41,-7.24,-0.1014,0.3218,0.0393,-31.875,24.25,48.1875,321.75,42.3125,171.25,0
1776971248.967,9.7061,1.0822,0.8715,-0.518,1.0539,0.3022,-39.9,-3.3,45.6,9.1866,2.2625,2.3894,-0.8705,0.1684,-0.0424,-84.15,-26.55,0.0,5.8,-1.88,-7.47,-0.1189,0.3163,-0.0098,-31.875,24.25,48.1875,321.8125,42.5,171.3125,0
1776971248.971,9.7061,1.0822,0.8715,-0.518,1.0539,0.3022,-39.0,-4.95,43.2,9.1866,2.2625,2.3894,-0.8705,0.1684,-0.0424,-84.15,-26.55,0.0,5.8,-1.88,-7.47,-0.1189,0.3163,-0.0098,-31.875,24.25,48.1875,321.8125,42.5,171.3125,0
1776971248.976,9.6151,1.3982,0.8859,-0.651,1.0981,0.332,-39.0,-4.95,43.2,9.1746,2.3032,1.9058,-0.854,0.1982,-0.0141,-84.15,-27.0,0.3,6.44,-1.3,-7.37,-0.1636,0.3752,-0.0393,-31.875,24.0,46.5,321.8125,42.6875,171.375,0
1776971248.981,9.6151,1.3982,0.8859,-0.651,1.0981,0.332,-39.0,-4.2,44.7,9.1746,2.3032,1.9058,-0.854,0.1982,-0.0141,-84.15,-27.0,0.3,6.44,-1.3,-7.37,-0.1636,0.3752,-0.0393,-31.875,24.0,46.5,321.8125,42.6875,171.375,0
1776971248.986,9.4667,1.6975,0.8739,-0.6909,1.1413,0.3376,-39.0,-4.2,44.7,9.3206,2.478,1.7861,-0.8479,0.1881,-0.0099,-84.15,-27.0,0.3,6.58,-1.34,-7.46,-0.1865,0.3654,-0.0611,-31.875,24.0,46.5,321.875,42.875,171.5,0
1776971248.991,9.4667,1.6975,0.8739,-0.6909,1.1413,0.3376,-39.0,-4.2,44.7,9.3206,2.478,1.7861,-0.8479,0.1881,-0.0099,-84.15,-27.0,0.3,6.58,-1.34,-7.46,-0.1865,0.3654,-0.0611,-31.875,24.0,46.5,321.875,43.0625,171.625,0
1776971248.998,9.6822,1.9896,0.9744,-0.6352,1.1751,0.3613,-39.0,-4.2,44.7,9.3853,2.4756,1.8579,-0.8663,0.1612,-0.0064,-84.15,-27.3,0.3,6.77,-1.15,-7.27,-0.1942,0.3316,-0.0905,-31.875,24.0,46.5,321.875,43.1875,171.75,0
1776971249.007,9.7492,1.8794,1.3001,-0.5177,1.2009,0.3651,-37.95,-6.15,46.35,9.6319,2.2458,2.0446,-0.8911,0.1724,-0.0053,-83.85,-28.5,2.1,6.17,-1.05,-7.49,-0.1734,0.2433,-0.1189,-31.875,24.0,46.5,321.875,43.1875,171.75,0
1776971249.017,9.9503,1.5634,1.4772,-0.4586,1.2153,0.352,-37.35,-5.55,46.65,9.3326,1.7933,2.3559,-0.9209,0.1452,0.0043,-83.7,-28.35,-0.45,6.26,-1.13,-7.54,-0.1658,0.2509,-0.1407,-31.875,24.0,46.5,321.8125,43.375,171.9375,0
1776971249.022,9.7755,1.3671,1.6831,-0.412,1.2377,0.3344,-37.95,-4.95,46.05,9.4763,1.4748,2.2793,-0.9225,0.1623,0.0091,-83.7,-28.35,-0.45,6.26,-1.13,-7.54,-0.1658,0.2509,-0.1407,-31.875,24.0,46.5,321.8125,43.375,171.9375,0
1776971249.027,9.7755,1.3671,1.6831,-0.412,1.2377,0.3344,-37.95,-4.95,46.05,9.4763,1.4748,2.2793,-0.9225,0.1623,0.0091,-83.85,-27.3,1.05,6.43,-1.3,-7.46,-0.1811,0.3338,-0.1571,-33.25,24.0,47.0,321.75,43.5625,172.0625,0
1776971249.032,9.7109,1.0702,1.8004,-0.4317,1.2654,0.3309,-36.3,-5.25,49.05,9.5385,1.1564,2.1883,-0.9236,0.1815,0.0131,-83.85,-27.3,1.05,6.43,-1.3,-7.46,-0.1811,0.3338,-0.1571,-33.25,24.0,47.0,321.75,43.5625,172.0625,0
1776971249.037,9.7109,1.0702,1.8004,-0.4317,1.2654,0.3309,-36.3,-5.25,49.05,9.5385,1.1564,2.1883,-0.9236,0.1815,0.0131,-83.1,-27.3,1.05,6.57,-1.54,-7.29,-0.2269,0.4091,-0.1898,-33.25,24.0,47.0,321.75,43.8125,172.25,0
1776971249.042,9.7037,0.7997,1.9872,-0.4932,1.3059,0.3421,-37.05,-7.8,48.45,9.4236,0.7614,2.1715,-0.9334,0.1295,0.0131,-83.1,-27.3,1.05,6.57,-1.54,-7.29,-0.2771,0.4527,-0.216,-33.25,24.0,47.0,321.6875,44.0625,172.5,0
1776971249.048,9.7037,0.7997,1.9872,-0.4932,1.3059,0.3421,-37.05,-7.8,48.45,9.4236,0.7614,2.1715,-0.9334,0.1295,0.0131,-83.85,-28.95,1.35,6.65,-1.63,-7.37,-0.2771,0.4527,-0.216,-33.25,24.0,47.0,321.625,44.3125,172.8125,0
1776971249.057,9.6031,0.5124,2.0758,-0.6011,1.3312,0.3467,-37.05,-7.8,48.45,9.572,0.5435,1.9537,-0.9566,0.117,0.0059,-83.85,-28.95,1.35,6.6,-1.18,-7.12,-0.2913,0.4669,-0.264,-33.25,24.0,47.0,321.625,44.3125,172.8125,0
1776971249.067,9.5289,0.1101,1.9824,-0.7749,1.3534,0.3325,-35.85,-7.5,49.5,9.4763,0.2801,1.798,-1.0312,0.1348,-0.0141,-84.6,-28.5,1.05,6.72,-1.29,-7.35,-0.3131,0.5029,-0.3,-33.25,24.0,47.0,307.75,44.625,173.0625,0
1776971249.072,9.5936,-0.2993,1.913,-0.9638,1.3795,0.3083,-34.65,-7.95,49.65,9.6702,0.0742,1.5419,-1.1018,0.0975,-0.0296,-84.6,-28.5,1.05,6.72,-1.29,-7.35,-0.3131,0.5029,-0.3,-33.25,24.0,47.0,307.75,44.625,173.0625,0
1776971249.077,9.5936,-0.2993,1.913,-0.9638,1.3795,0.3083,-36.45,-6.9,49.95,9.6702,0.0742,1.5419,-1.1018,0.0975,-0.0296,-83.25,-29.1,0.15,6.46,-1.78,-7.34,-0.3829,0.5563,-0.3349,-33.0,23.1875,46.1875,308.5,44.9375,173.4375,0
1776971249.082,9.5672,-0.5483,1.8651,-1.202,1.4125,0.2928,-36.45,-6.9,49.95,9.5912,-0.2442,1.2905,-1.2143,0.1002,-0.0565,-83.25,-29.1,0.15,6.46,-1.78,-7.34,-0.3829,0.5563,-0.3349,-33.0,23.1875,46.1875,308.5,44.9375,173.4375,0
1776971249.087,9.5672,-0.5483,1.8651,-1.202,1.4125,0.2928,-35.4,-7.2,50.4,9.5912,-0.2442,1.2905,-1.2143,0.1002,-0.0565,-83.25,-28.35,0.9,5.88,-1.02,-7.68,-0.5083,0.793,-0.3829,-33.0,23.1875,46.1875,309.5,45.4375,173.875,0
1776971249.094,9.3972,-0.68,1.8842,-1.4317,1.4346,0.275,-35.4,-7.2,50.4,9.6055,-0.4238,0.8404,-1.2838,0.0589,-0.0853,-83.25,-28.35,0.9,6.81,-2.75,-7.66,-0.6338,1.333,-0.4603,-33.0,23.1875,46.1875,310.75,46.1875,174.4375,0
1776971249.099,9.3613,-0.3998,2.1404,-1.6395,1.4757,0.2809,-35.4,-7.2,50.4,9.493,-0.498,0.2538,-1.3717,0.0474,-0.1077,-82.35,-29.25,0.3,6.81,-2.75,-7.66,-0.6338,1.333,-0.4603,-33.0,23.1875,46.1875,312.125,47.0625,175.0625,0
1776971249.108,9.3613,-0.3998,2.1404,-1.6395,1.4757,0.2809,-35.4,-7.2,50.4,9.2632,-0.6033,-0.0072,-1.3717,0.0474,-0.1077,-83.1,-29.7,-1.05,6.16,0.6,-7.02,-0.7614,1.5664,-0.4778,-33.0,23.1875,46.1875,313.5,48.0,175.625,0
1776971249.118,9.8067,-0.0622,2.1356,-1.8738,1.5468,0.2907,-32.4,-8.4,52.8,9.5816,-0.3687,-0.1389,-1.513,-0.0205,-0.1106,-83.85,-30.45,0.6,6.22,-0.24,-7.59,-0.7745,1.5817,-0.4058,-33.0,23.1875,46.1875,313.5,48.0,175.625,0
1776971249.122,9.8067,-0.0622,2.1356,-1.8738,1.5468,0.2907,-32.4,-8.4,52.8,9.5816,-0.3687,-0.1389,-1.7166,-0.0805,-0.1119,-83.85,-30.45,0.6,6.22,-0.24,-7.59,-0.7745,1.5817,-0.4058,-33.0,23.1875,46.1875,314.625,48.9375,176.125,0
1776971249.128,10.3118,0.091,2.0063,-1.9369,1.615,0.2875,-33.0,-9.3,51.6,9.7731,-0.1269,-0.0455,-1.9478,-0.141,-0.1045,-83.85,-30.45,0.6,6.22,0.26,-7.31,-0.6981,1.7421,-0.3033,-34.75,22.75,45.25,314.625,48.9375,176.125,0
1776971249.132,10.3118,0.091,2.0063,-1.9369,1.615,0.2875,-33.0,-9.3,51.6,9.7731,-0.1269,-0.0455,-1.9478,-0.141,-0.1045,-83.85,-30.45,0.6,6.22,0.26,-7.31,-0.6981,1.7421,-0.3033,-34.75,22.75,45.25,315.8125,50.0625,176.625,0
1776971249.137,10.8266,-0.1484,1.391,-2.0693,1.6763,0.292,-32.85,-11.4,52.5,10.3597,0.1987,0.1891,-2.1879,-0.2438,-0.1071,-82.5,-30.3,0.15,6.33,-0.29,-7.16,-0.7669,2.0137,-0.1778,-34.75,22.75,45.25,315.8125,50.0625,176.625,0
1776971249.142,10.8266,-0.1484,1.391,-2.0693,1.6763,0.292,-32.85,-11.4,52.5,10.3597,0.1987,0.1891,-2.1879,-0.2438,-0.1071,-82.5,-30.3,0.15,6.33,-0.29,-7.16,-0.7101,2.294,-0.1004,-34.75,22.75,45.25,316.8125,51.375,177.0,0
1776971249.148,11.3198,-1.0582,0.9194,-2.2082,1.7171,0.2739,-31.95,-12.0,52.95,11.0181,0.8188,0.3208,-2.3667,-0.344,-0.141,-82.5,-30.3,0.15,6.67,0.76,-7.87,-0.7101,2.294,-0.1004,-34.75,22.75,45.25,317.375,52.75,177.1875,0
1776971249.158,11.5329,-0.7207,0.9026,-2.4253,1.7728,0.3016,-31.95,-12.0,52.95,11.4467,1.5802,0.0359,-2.4642,-0.4549,-0.1844,-82.35,-29.7,-0.6,5.27,2.85,-7.81,-0.3436,2.5122,-0.1353,-34.75,22.75,45.25,317.375,52.75,177.1875,0
1776971249.168,11.9878,-0.2274,0.5986,-2.6865,1.8631,0.3573,-31.2,-13.05,52.95,11.4275,2.3032,-0.5291,-2.4976,-0.5969,-0.2419,-82.35,-30.9,-2.1,4.7,4.22,-7.65,0.2607,3.0183,-0.3829,-34.75,22.75,45.25,317.4375,54.4375,177.1875,0
1776971249.172,11.9878,-0.2274,0.5986,-2.6865,1.8631,0.3573,-31.2,-13.05,52.95,11.4275,2.3032,-0.5291,-2.4976,-0.5969,-0.2419,-82.35,-30.9,-2.1,4.7,4.22,-7.65,0.2607,3.0183,-0.3829,-34.75,22.75,45.25,317.4375,54.4375,177.1875,0
1776971249.177,12.3613,-0.8188,0.7949,-2.8037,1.9257,0.3912,-29.7,-13.5,54.75,11.7627,2.806,-1.0582,-2.4885,-0.7176,-0.315,-81.6,-30.9,-2.85,12.92,-13.04,-2.75,0.2149,3.3183,-0.829,-38.5,21.375,43.375,317.75,56.25,177.625,0
1776971249.182,12.3613,-0.8188,0.7949,-2.8037,1.9257,0.3912,-29.7,-13.5,54.75,11.7627,2.806,-1.0582,-2.4885,-0.7176,-0.315,-81.6,-30.9,-2.85,12.92,-13.04,-2.75,0.2149,3.3183,-0.829,-38.5,21.375,43.375,317.75,56.25,177.625,0
1776971249.187,12.7012,-1.8555,-0.6057,-3.0534,2.0334,0.4596,-27.9,-14.25,53.4,11.825,2.9904,-0.9529,-2.4416,-0.7821,-0.3853,-82.35,-30.9,-3.6,6.05,0.18,-7.4,-1.2577,3.3783,0.0065,-38.5,21.375,43.375,319.125,58.125,178.25,0
1776971249.194,12.7012,-1.8555,-0.6057,-3.0534,2.0334,0.4596,-27.9,-14.25,53.4,11.7244,3.2681,-1.1684,-2.4416,-0.7821,-0.3853,-82.35,-30.9,-3.6,7.64,-1.17,-7.57,-1.4541,3.8801,0.2596,-38.5,21.375,43.375,320.4375,60.3125,178.6875,0
1776971249.199,12.6629,-2.4972,-1.8603,-3.4691,2.1426,0.4391,-28.05,-16.65,52.8,11.7244,3.2681,-1.1684,-2.6113,-0.9366,-0.4109,-82.95,-30.6,-4.95,7.64,-1.17,-7.57,-1.4541,3.8801,0.2596,-38.5,21.375,43.375,322.0625,62.625,179.375,0
1776971249.208,11.9279,-2.2098,-1.221,-3.9897,2.2039,0.3829,-26.85,-16.5,52.95,12.9263,0.1173,-3.3471,-2.5863,-1.5631,-0.4277,-81.75,-31.05,-5.25,7.9,-1.0,-8.13,-1.8348,4.1593,0.2716,-38.5,21.375,43.375,323.875,64.875,-179.75,0
1776971249.218,9.9096,-1.2689,0.8284,-4.2698,2.2138,0.3717,-26.85,-16.5,52.95,12.821,-1.9537,-2.8108,-2.2551,-2.1599,-0.3853,-81.75,-31.05,-5.25,9.41,1.79,-8.02,-2.3027,4.1255,0.396,-38.5,21.375,43.375,323.875,64.875,-179.75,0
1776971249.223,9.9096,-1.2689,0.8284,-4.2698,2.2138,0.3717,-26.85,-16.5,52.95,11.2934,-1.992,-1.6281,-2.2551,-2.1599,-0.3853,-81.75,-31.05,-5.25,9.41,1.79,-8.02,-2.3027,4.1255,0.396,-38.5,21.375,43.375,325.75,67.3125,-178.875,0
1776971249.228,8.928,0.2131,2.5187,-4.221,2.2551,0.2891,-26.1,-20.25,52.35,11.2934,-1.992,-1.6281,-2.1573,-2.5735,-0.3874,-82.65,-31.2,-7.65,10.37,2.4,-8.84,-2.4936,4.4048,0.4658,-43.25,20.25,37.375,325.75,67.3125,-178.875,0
1776971249.233,8.928,0.2131,2.5187,-4.221,2.2551,0.2891,-26.1,-20.25,52.35,10.6087,-1.6879,-0.2298,-2.1573,-2.5735,-0.3874,-82.65,-31.2,-7.65,10.37,2.4,-8.84,-2.4936,4.4048,0.4658,-43.25,20.25,37.375,327.375,69.875,-178.1875,0
1776971249.238,9.7205,0.7733,3.9792,-3.9615,2.298,0.2012,-24.6,-21.0,52.65,10.6087,-1.6879,-0.2298,-2.2945,-2.6668,-0.4434,-82.65,-31.2,-7.65,11.17,2.16,-9.96,-2.4522,4.6175,0.6,-43.25,20.25,37.375,327.375,69.875,-178.1875,0
1776971249.243,9.7205,0.7733,3.9792,-3.9615,2.298,0.2012,-24.6,-21.0,52.65,10.6805,-1.6209,1.8244,-2.3148,-2.6899,-0.5737,-82.65,-31.2,-7.65,11.17,2.16,-9.96,-2.4282,4.5586,0.6,-43.25,20.25,37.375,328.875,72.4375,-177.5625,0
1776971249.249,9.7444,0.996,5.1092,-3.6124,2.3763,0.048,-22.95,-22.2,52.05,10.6805,-1.6209,1.8244,-2.3148,-2.6899,-0.5737,-82.95,-33.0,-10.5,11.99,0.49,-8.15,-2.4282,4.5586,0.6,-43.25,20.25,37.375,330.3125,75.0,-177.25,0
1776971249.258,11.4251,0.0742,5.6024,-3.3316,2.496,-0.0733,-20.7,-23.25,52.65,10.6039,-1.3743,3.9528,-2.1434,-2.699,-0.6667,-83.25,-30.6,-12.0,14.26,1.61,-9.55,-2.6398,4.6306,0.7985,-43.25,20.25,37.375,330.3125,75.0,-177.25,0
1776971249.268,11.9471,-1.1396,7.9176,-2.9894,2.5149,-0.0922,-20.85,-23.4,50.7,10.1634,-1.5299,5.0302,-1.8767,-2.4741,-0.7482,-83.7,-32.25,-13.05,15.92,1.38,-7.72,-2.8362,4.6688,0.672,-43.25,20.25,37.375,331.875,77.625,-176.625,0
1776971249.273,11.3796,-1.1612,7.7764,-2.7677,2.5181,-0.13,-20.85,-23.4,50.7,10.7069,-2.1261,4.9919,-1.7299,-2.2135,-0.8777,-83.7,-32.25,-13.05,15.92,1.38,-7.72,-2.8362,4.6688,0.672,-43.25,20.25,37.375,331.875,77.625,-176.625,0
1776971249.278,11.3796,-1.1612,7.7764,-2.7677,2.5181,-0.13,-20.85,-23.4,50.7,10.7069,-2.1261,4.9919,-1.7299,-2.2135,-0.8777,-85.05,-31.2,-13.2,17.04,-1.56,-12.24,-3.7208,4.8357,0.4254,-47.5625,18.5,28.375,334.125,80.3125,-174.75,0
1776971249.283,11.4994,-2.0446,7.0078,-2.9814,2.4072,-0.0813,-20.85,-23.4,50.7,11.3126,-2.7653,4.142,-1.7834,-2.096,-1.0275,-85.05,-31.2,-13.2,17.04,-1.56,-12.24,-3.7208,4.8357,0.4254,-47.5625,18.5,28.375,334.125,80.3125,-174.75,0
1776971249.288,11.4994,-2.0446,7.0078,-2.9814,2.4072,-0.0813,-17.55,-24.9,51.45,11.3126,-2.7653,4.142,-1.7834,-2.096,-1.0275,-82.65,-30.9,-14.4,14.18,0.55,-11.02,-4.4408,4.3568,0.6567,-47.5625,18.5,28.375,336.5625,82.75,-173.0,0
1776971249.295,10.161,-2.2889,7.0964,-3.015,2.2713,-0.1055,-17.85,-25.95,49.2,12.4115,-2.6408,3.0263,-1.7861,-1.9665,-1.1413,-82.65,-30.9,-14.4,11.61,0.18,-9.18,-4.5804,3.6728,0.9905,-47.5625,18.5,28.375,338.8125,84.875,-179.375,0
