timestamp,thigh_acc_x,thigh_acc_y,thigh_acc_z,thigh_gyro_x,thigh_gyro_y,thigh_gyro_z,thigh_mag_x,thigh_mag_y,thigh_mag_z,shank_acc_x,shank_acc_y,shank_acc_z,shank_gyro_x,shank_gyro_y,shank_gyro_z,shank_mag_x,shank_mag_y,shank_mag_z,foot_acc_x,foot_acc_y,foot_acc_z,foot_gyro_x,foot_gyro_y,foot_gyro_z,foot_mag_x,foot_mag_y,foot_mag_z,foot_euler_x,foot_euler_y,foot_euler_z,perturbation_event
1776973480.947,8.1858,0.9577,-0.4717,-2.2953,0.0213,0.3661,-96.6,22.8,-0.3,9.1291,1.2857,0.3735,-2.5029,0.0437,-0.2294,-84.15,-6.9,-11.1,-2.47,-5.21,-9.07,0.7745,0.913,2.6682,35.0625,-2.0,41.0,141.1875,-20.0,158.4375,0
1776973480.954,8.2887,0.7278,-0.2658,-2.4283,0.174,0.3437,-97.05,19.2,-1.5,8.6694,0.8571,0.5291,-2.4661,-0.024,-0.3019,-84.45,-7.5,-11.55,-1.85,-4.25,-8.65,0.7167,1.0483,2.7194,35.0625,-2.0,41.0,142.875,-20.0,158.6875,0
1776973480.959,8.0685,0.5291,-0.1796,-2.4701,0.32,0.3483,-97.05,19.2,-1.5,8.6694,0.8571,0.5291,-2.4661,-0.024,-0.3019,-84.45,-7.5,-11.55,-1.85,-4.25,-8.65,0.7167,1.0483,2.7194,35.0625,-2.0,41.0,144.625,-19.9375,158.8125,0
1776973480.967,8.0685,0.5291,-0.1796,-2.6303,0.4197,0.3752,-97.05,18.45,1.2,8.4396,0.5674,0.6345,-2.4776,-0.0815,-0.3656,-83.85,-7.35,-11.4,-1.86,-3.86,-8.33,0.769,1.1606,2.7413,35.0625,-2.0,41.0,146.3125,-19.8125,158.9375,0
1776973480.977,7.5729,0.9266,-0.3041,-2.7448,0.4922,0.3821,-97.05,18.45,1.2,8.2408,0.2538,0.6129,-2.5889,-0.1314,-0.4122,-83.85,-7.35,-11.4,-1.8,-3.76,-7.94,0.9087,1.2588,2.7162,35.0625,-2.0,41.0,146.3125,-19.8125,158.9375,0
1776973480.982,7.5729,0.9266,-0.3041,-2.7448,0.4922,0.3821,-96.75,15.45,0.15,8.1283,0.0407,0.7829,-2.6985,-0.2134,-0.4596,-85.8,-4.2,-12.9,-1.8,-3.76,-7.94,0.9087,1.2588,2.7162,35.0625,-2.0,41.0,148.0625,-19.6875,158.9375,0
1776973480.987,7.3215,1.257,-0.6153,-3.0763,0.6659,0.4032,-96.75,15.45,0.15,8.1283,0.0407,0.7829,-2.6985,-0.2134,-0.4596,-85.8,-4.2,-12.9,-1.85,-3.98,-7.1,1.0516,1.3232,2.6747,32.5,-4.5,41.0,148.0625,-19.6875,158.9375,0
1776973480.992,7.3215,1.257,-0.6153,-3.0763,0.6659,0.4032,-97.35,14.55,0.6,8.0996,0.0239,0.929,-2.8202,-0.2521,-0.4895,-85.8,-4.2,-12.9,-1.85,-3.98,-7.1,1.0516,1.3232,2.6747,32.5,-4.5,41.0,149.75,-19.5,158.875,0
1776973480.997,7.367,1.9201,-0.5315,-3.2967,0.7538,0.4636,-97.35,14.55,0.6,8.0996,0.0239,0.929,-2.8202,-0.2521,-0.4895,-85.8,-4.2,-12.9,-2.11,-3.59,-6.93,1.1432,1.3363,2.6376,32.5,-4.5,41.0,149.75,-19.5,158.875,0
1776973481.005,7.367,1.9201,-0.5315,-3.2967,0.7538,0.4636,-95.4,11.55,0.3,8.1547,0.1939,1.0032,-2.918,-0.2753,-0.4916,-84.15,-4.65,-12.45,-2.61,-3.16,-6.84,1.2414,1.3264,2.594,32.5,-4.5,41.0,151.4375,-19.375,158.75,0
1776973481.01,7.2042,2.478,-0.7111,-3.3915,0.81,0.5161,-96.75,11.7,1.2,8.2624,0.6009,0.9505,-2.9812,-0.2878,-0.4748,-84.15,-4.65,-12.45,-2.61,-3.16,-6.84,1.2414,1.3264,2.594,32.5,-4.5,41.0,153.125,-19.1875,158.5625,0
1776973481.018,7.9152,3.395,-0.4357,-3.3684,0.8135,0.579,-96.75,11.7,1.2,8.4946,1.0151,1.0343,-2.9812,-0.2878,-0.4748,-86.1,-3.9,-14.4,-3.38,-2.98,-6.4,1.3712,1.3003,2.5275,32.5,-4.5,41.0,154.75,-19.0625,158.25,0
1776973481.028,7.9655,3.9696,-0.3089,-3.2426,0.8031,0.6558,-96.6,10.5,2.1,8.8394,1.4269,0.972,-3.0009,-0.2872,-0.4506,-84.45,-2.85,-14.55,-3.66,-2.95,-6.29,1.4683,1.2512,2.4555,32.5,-4.5,41.0,154.75,-19.0625,158.25,0
1776973481.033,7.9655,3.9696,-0.3089,-3.2426,0.8031,0.6558,-96.6,10.5,2.1,8.8394,1.4269,0.972,-2.9639,-0.2769,-0.4066,-84.15,-3.9,-14.4,-3.66,-2.95,-6.29,1.4683,1.2512,2.4555,32.5,-4.5,41.0,156.375,-18.9375,157.9375,0
1776973481.038,8.0086,4.6591,-0.3448,-3.1749,0.8817,0.7168,-96.6,10.5,2.1,9.3948,2.0135,0.8978,-2.8376,-0.2729,-0.3459,-84.15,-3.9,-14.4,-4.08,-2.97,-6.29,1.5086,1.1683,2.402,28.875,-6.375,43.0,156.375,-18.9375,157.9375,0
1776973481.043,8.0086,4.6591,-0.3448,-3.1749,0.8817,0.7168,-96.75,7.95,1.2,9.3948,2.0135,0.8978,-2.8376,-0.2729,-0.3459,-83.85,-1.05,-16.2,-4.08,-2.97,-6.29,1.5086,1.1683,2.402,28.875,-6.375,43.0,157.875,-18.875,157.5625,0
1776973481.048,9.0692,5.2385,-0.6752,-2.8706,1.0722,0.7589,-96.75,7.95,1.2,11.2168,2.727,0.7709,-2.654,-0.3043,-0.2478,-83.85,-1.05,-16.2,-4.56,-2.73,-6.25,1.5217,1.045,2.3507,28.875,-6.375,43.0,157.875,-18.875,157.5625,0
1776973481.054,9.0692,5.2385,-0.6752,-2.8706,1.0722,0.7589,-96.0,3.9,2.55,11.2168,2.727,0.7709,-2.654,-0.3043,-0.2478,-82.95,-0.9,-16.35,-7.23,-17.9,-12.05,1.6188,0.6872,1.885,28.875,-6.375,43.0,159.1875,-18.9375,157.0625,0
1776973481.058,10.9104,5.7006,-0.9074,-2.5023,1.177,0.8729,-94.8,5.55,2.1,12.7515,6.1866,0.0239,-2.3068,-0.211,-0.0818,-82.95,-0.9,-16.35,-7.23,-17.9,-12.05,1.6188,0.6872,1.885,28.875,-6.375,43.0,159.875,-19.3125,157.1875,0
1776973481.068,12.651,6.5817,-1.3695,-2.1504,1.2281,1.0269,-95.85,5.55,2.1,13.1394,10.41,0.0622,-2.2375,0.0767,-0.0176,-82.95,-0.9,-16.35,-7.71,-12.93,-7.83,0.1789,-0.156,1.2555,28.875,-6.375,43.0,160.0,-19.3125,157.4375,0
1776973481.078,14.0707,7.9703,-2.3176,-1.7014,1.2614,1.1474,-95.85,3.75,2.4,13.5201,11.5161,-1.4365,-1.5047,0.1695,-0.0735,-84.75,-1.65,-16.35,-3.99,-19.14,-5.1,-0.3643,0.0764,0.3065,28.875,-6.375,43.0,160.0,-19.3125,157.4375,0
1776973481.083,14.0707,7.9703,-2.3176,-1.7014,1.2614,1.1474,-95.85,3.75,2.4,13.5201,11.5161,-1.4365,-1.5047,0.1695,-0.0735,-84.75,-1.65,-16.35,-3.99,-19.14,-5.1,-0.3643,0.0764,0.3065,28.875,-6.375,43.0,160.0,-19.3125,157.4375,0
1776973481.088,13.9606,9.7636,-3.6057,-1.3059,1.2001,1.1631,-95.85,3.75,2.4,12.5983,9.7396,-2.4852,0.1921,0.0341,-0.0874,-84.75,-1.65,-16.35,-0.81,-2.42,-8.0,-0.4505,-0.0098,0.0447,24.75,-7.1875,44.1875,160.0,-19.3125,157.6875,0
1776973481.093,13.9606,9.7636,-3.6057,-1.3059,1.2001,1.1631,-94.5,3.45,3.0,12.5983,9.7396,-2.4852,0.1921,0.0341,-0.0874,-84.0,-1.35,-17.1,-0.81,-2.42,-8.0,-0.4505,-0.0098,0.0447,24.75,-7.1875,44.1875,160.0,-19.3125,157.6875,0
1776973481.098,12.5408,10.884,-4.4317,-0.8881,0.8748,1.0749,-94.2,0.9,1.95,10.5512,6.0741,-3.0239,1.7962,0.0445,0.0013,-84.0,-1.35,-17.1,-5.32,1.37,-12.12,-0.6316,-0.4123,0.4254,24.75,-7.1875,44.1875,160.125,-19.625,158.125,0
1776973481.107,10.9966,10.5536,-3.4931,-0.5281,0.3834,0.9281,-94.35,2.55,3.45,8.2911,3.0239,-2.4445,2.4571,0.2571,0.0749,-84.15,-0.3,-16.65,-6.99,-1.15,-11.11,-0.4952,-0.5443,0.3829,24.75,-7.1875,44.1875,160.25,-20.0,158.375,0
1776973481.117,9.8282,8.8107,-1.8723,0.0184,-0.0083,0.6989,-95.25,2.7,3.3,7.1802,0.984,-2.4924,2.3547,0.4104,0.1508,-85.35,-1.95,-16.2,-3.77,-4.78,-7.75,-0.3229,-0.2029,0.1625,24.75,-7.1875,44.1875,160.25,-20.125,158.625,0
1776973481.127,8.8298,6.5553,-0.8068,0.4173,0.2081,0.5454,-95.25,0.9,3.6,7.8027,-0.4046,-2.9401,1.9153,0.4191,0.1833,-84.45,-0.9,-16.8,-3.21,-3.34,-8.55,-0.3698,-0.0218,0.096,24.75,-7.1875,44.1875,160.3125,-20.125,158.8125,0
1776973481.132,8.8298,6.5553,-0.8068,0.8367,0.7088,0.4863,-95.25,0.9,3.6,7.8027,-0.4046,-2.9401,1.9153,0.4191,0.1833,-84.45,-0.9,-16.8,-3.21,-3.34,-8.55,-0.3698,-0.0218,0.096,24.75,-7.1875,44.1875,160.3125,-20.125,158.8125,0
1776973481.136,8.7293,5.5306,-0.3615,0.8367,0.7088,0.4863,-95.25,0.9,3.6,8.8322,-1.7526,-3.3136,1.3928,0.3608,0.2236,-84.45,-0.9,-16.8,-3.04,-2.1,-8.9,-0.36,-0.0175,0.1145,24.5,-8.6875,44.5625,160.3125,-20.1875,159.0625,0
1776973481.141,8.7293,5.5306,-0.3615,1.3083,1.0195,0.4088,-95.25,0.9,3.6,8.8322,-1.7526,-3.3136,1.3928,0.3608,0.2236,-84.45,-0.9,-16.8,-3.04,-2.1,-8.9,-0.36,-0.0175,0.1145,24.5,-8.6875,44.5625,160.3125,-20.1875,159.0625,0
1776973481.146,9.3039,4.9009,-0.407,1.3083,1.0195,0.4088,-95.25,0.9,3.6,9.0118,-2.2649,-2.7126,0.943,0.4493,0.2273,-85.05,-2.25,-15.15,-3.17,-1.87,-8.79,-0.3,-0.12,0.1276,24.5,-8.6875,44.5625,160.3125,-20.25,159.25,0
1776973481.151,9.3039,4.9009,-0.407,1.6603,0.8604,0.3341,-97.35,1.5,4.5,9.0118,-2.2649,-2.7126,0.943,0.4493,0.2273,-85.05,-2.25,-15.15,-3.17,-1.87,-8.79,-0.3,-0.12,0.1276,24.5,-8.6875,44.5625,160.375,-20.4375,159.375,0
1776973481.158,9.1435,3.8499,-0.644,1.6603,0.8604,0.3341,-97.95,0.75,3.9,9.2632,-1.5251,-2.2386,0.6249,0.5484,0.1596,-85.05,-2.25,-15.15,-3.41,-2.45,-8.76,-0.2662,-0.2422,0.12,24.5,-8.6875,44.5625,160.375,-20.625,159.5,0
1776973481.168,8.8178,2.2362,-1.0032,1.813,0.5718,0.3869,-99.15,0.75,6.0,9.5888,0.2993,-1.3144,0.5031,0.5769,0.0797,-85.5,-2.85,-14.55,-3.35,-2.61,-8.7,-0.2323,-0.3392,0.1134,24.5,-8.6875,44.5625,160.375,-20.625,159.5,0
1776973481.178,8.0972,0.5028,-1.3695,1.6507,0.3347,0.5545,-99.9,0.0,5.7,9.5672,2.4636,-0.0335,0.3914,0.5865,0.0762,-85.5,-1.35,-14.55,-3.45,-2.81,-8.66,-0.1844,-0.4658,0.1134,24.5,-8.6875,44.5625,160.375,-20.875,159.625,0
1776973481.183,8.2552,-0.905,-1.5275,1.4578,0.1455,0.7714,-99.9,0.0,5.7,9.4499,3.7493,1.2713,0.316,0.5742,0.1218,-85.05,-2.7,-16.2,-3.45,-2.81,-8.66,-0.1844,-0.4658,0.1134,24.5,-8.6875,44.5625,160.375,-21.1875,159.6875,0
1776973481.188,8.2552,-0.905,-1.5275,1.4578,0.1455,0.7714,-99.9,0.0,5.7,9.4499,3.7493,1.2713,0.316,0.5742,0.1218,-85.05,-2.7,-16.2,-4.17,-3.7,-8.34,-0.1418,-0.5541,0.1113,25.1875,-9.75,44.25,160.375,-21.1875,159.6875,0
1776973481.193,8.7412,-1.6328,-1.0415,1.3009,0.114,0.8623,-99.9,0.0,5.7,9.5457,3.9002,1.913,0.2918,0.542,0.1735,-84.6,-3.9,-15.15,-4.17,-3.7,-8.34,-0.1418,-0.5541,0.1113,25.1875,-9.75,44.25,160.375,-21.5,159.6875,0
1776973481.198,8.7412,-1.6328,-1.0415,1.3009,0.114,0.8623,-100.5,-2.25,6.3,9.5457,3.9002,1.913,0.2918,0.542,0.1735,-84.6,-3.9,-15.15,-4.03,-4.03,-8.08,-0.1364,-0.5247,0.1047,25.1875,-9.75,44.25,160.375,-21.5,159.6875,0
1776973481.205,9.3134,-2.2529,-0.3136,1.0123,0.1252,0.8066,-100.5,-2.25,6.3,9.4332,2.9281,1.8459,0.3035,0.4986,0.1756,-84.15,-3.9,-13.65,-3.83,-4.01,-7.93,-0.1996,-0.4385,0.1047,25.1875,-9.75,44.25,160.375,-21.75,159.8125,0
1776973481.209,9.6295,-2.9904,0.1532,0.6638,0.21,0.6739,-102.0,-4.05,4.95,9.4332,2.9281,1.8459,0.3035,0.4986,0.1756,-84.15,-3.9,-13.65,-3.83,-4.01,-7.93,-0.1996,-0.4385,0.1047,25.1875,-9.75,44.25,160.375,-21.9375,160.0,0
1776973481.218,9.6295,-2.9904,0.1532,0.6638,0.21,0.6739,-100.2,-5.55,7.05,9.0597,1.0343,1.1301,0.2707,0.5841,0.1633,-86.25,-3.6,-13.8,-4.19,-3.77,-8.1,-0.2836,-0.372,0.1265,25.1875,-9.75,44.25,160.375,-22.1875,160.1875,0
1776973481.228,10.1251,-3.0765,0.9098,0.3349,0.3616,0.5484,-101.1,-5.7,5.85,9.6462,-0.2801,0.7207,0.1274,0.6003,0.1831,-86.25,-3.6,-13.8,-4.24,-3.36,-8.31,-0.3414,-0.3272,0.1527,25.1875,-9.75,44.25,160.375,-22.1875,160.1875,0
1776973481.233,10.8409,-2.8922,1.1181,0.0029,0.3573,0.4218,-101.1,-5.7,5.85,10.2999,-1.1061,0.1652,-0.1761,0.5681,0.178,-85.95,-3.3,-12.3,-4.24,-3.36,-8.31,-0.3414,-0.3272,0.1527,25.1875,-9.75,44.25,160.375,-22.1875,160.1875,0
1776973481.238,10.8409,-2.8922,1.1181,-0.3171,0.6011,0.2635,-98.25,-6.15,6.45,10.2999,-1.1061,0.1652,-0.1761,0.5681,0.178,-85.95,-3.3,-12.3,-4.22,-2.85,-8.6,-0.3752,-0.2738,0.1549,26.75,-9.75,44.5625,160.375,-22.3125,160.375,0
1776973481.243,10.3837,-2.4924,1.1468,-0.3171,0.6011,0.2635,-98.25,-6.15,6.45,10.5608,-1.1516,-0.5124,-0.4788,0.4839,0.174,-85.95,-3.3,-12.3,-4.22,-2.85,-8.6,-0.3752,-0.2738,0.1549,26.75,-9.75,44.5625,160.375,-22.3125,160.375,0
1776973481.248,10.1394,-2.1021,0.5914,-0.6787,0.6358,0.1244,-98.25,-6.15,6.45,10.5608,-1.1516,-0.5124,-0.4788,0.4839,0.174,-85.95,-3.3,-12.3,-4.18,-2.72,-8.75,-0.3502,-0.2313,0.144,26.75,-9.75,44.5625,160.375,-22.5,160.625,0
1776973481.254,10.1394,-2.1021,0.5914,-0.6787,0.6358,0.1244,-98.25,-6.15,6.45,10.0868,-0.9481,-0.7733,-0.6765,0.4458,0.1743,-85.35,-2.7,-12.45,-5.0,-2.5,-9.07,-0.3011,-0.2138,0.1298,26.75,-9.75,44.5625,160.4375,-22.625,160.75,0
1776973481.259,10.0485,-1.8531,0.2251,-1.0744,0.6099,0.0376,-98.55,-8.7,5.1,9.7061,-0.2155,-0.5028,-0.7357,0.4599,0.1847,-85.35,-2.7,-12.45,-5.0,-2.5,-9.07,-0.3011,-0.2138,0.1298,26.75,-9.75,44.5625,160.4375,-22.6875,160.9375,0
1776973481.268,9.8497,-1.5945,-0.3783,-1.3627,0.538,0.0061,-97.5,-8.7,5.4,9.7157,1.1157,-0.5387,-0.7357,0.4599,0.1847,-85.5,-2.4,-12.75,-4.22,-2.14,-8.77,-0.2367,-0.1582,0.0971,26.75,-9.75,44.5625,160.4375,-22.75,161.0,0
1776973481.278,10.2352,-1.1157,-0.8619,-1.6017,0.5476,0.04,-96.15,-9.0,6.3,9.4332,2.2434,-0.3926,-0.5233,0.4679,0.1817,-84.45,-2.4,-13.5,-4.11,-2.5,-8.75,-0.1745,-0.1004,0.0578,26.75,-9.75,44.5625,160.4375,-22.75,161.0,0
1776973481.283,10.2352,-1.1157,-0.8619,-1.6017,0.5476,0.04,-96.15,-9.0,6.3,9.4332,2.2434,-0.3926,-0.5233,0.4679,0.1817,-84.45,-2.4,-13.5,-4.11,-2.5,-8.75,-0.1745,-0.1004,0.0578,26.75,-9.75,44.5625,160.4375,-22.8125,161.125,0
1776973481.288,10.5273,-0.34,-1.1133,-1.7453,0.4162,0.0746,-96.9,-9.3,4.2,9.2991,2.6791,-0.2394,-0.2348,0.5017,0.1817,-85.95,-2.1,-12.0,-4.14,-2.82,-8.53,-0.1516,-0.1091,0.0404,26.75,-11.5625,42.5625,160.4375,-22.8125,161.125,0
1776973481.293,10.5273,-0.34,-1.1133,-1.7453,0.4162,0.0746,-96.9,-9.3,4.2,9.2991,2.6791,-0.2394,-0.2348,0.5017,0.1817,-85.95,-2.1,-12.0,-4.14,-2.82,-8.53,-0.1516,-0.1091,0.0404,26.75,-11.5625,42.5625,160.4375,-22.8125,161.125,0
1776973481.298,9.9048,0.3448,-1.4629,-1.9524,0.2185,0.1127,-96.9,-9.3,4.2,9.3661,2.4421,0.2586,0.1391,0.5268,0.1753,-85.95,-2.1,-12.0,-4.12,-2.95,-8.46,-0.1396,-0.1036,0.0349,26.75,-11.5625,42.5625,160.4375,-22.875,161.1875,0
1776973481.307,9.5146,1.063,-0.4453,-2.117,0.0797,0.1708,-96.45,-10.65,5.1,9.4763,1.7358,0.905,0.3312,0.5494,0.1665,-85.35,-2.25,-12.15,-4.08,-2.98,-8.42,-0.1353,-0.0818,0.0295,26.75,-11.5625,42.5625,160.4375,-22.9375,161.25,0
1776973481.312,9.5146,1.063,-0.4453,-2.117,0.0797,0.1708,-96.45,-10.65,5.1,9.4763,1.7358,0.905,0.3312,0.5494,0.1665,-85.35,-2.25,-12.15,-4.08,-2.98,-8.42,-0.1331,-0.0774,0.0349,26.75,-11.5625,42.5625,160.4375,-23.0,161.3125,0
1776973481.319,10.082,1.4629,0.328,-2.1067,-0.0274,0.2246,-95.7,-9.15,4.05,9.8713,0.6105,1.3264,0.2028,0.4908,0.142,-85.35,-2.25,-12.15,-4.09,-2.93,-8.41,-0.1331,-0.0774,0.0349,26.75,-11.5625,42.5625,160.4375,-23.0625,161.4375,0
1776973481.328,9.3853,1.7119,0.917,-1.9145,-0.0991,0.2236,-96.15,-11.25,4.2,9.8809,-0.6153,1.5969,0.0687,0.4375,0.1282,-84.75,-2.85,-11.25,-3.88,-3.15,-8.36,-0.1418,-0.0698,0.0436,26.75,-11.5625,42.5625,160.4375,-23.0625,161.4375,0
1776973481.333,9.3853,1.7119,0.917,-1.9145,-0.0991,0.2236,-96.6,-11.25,4.2,9.8809,-0.6153,1.5969,0.0687,0.4375,0.1282,-84.75,-2.85,-11.25,-3.88,-3.15,-8.36,-0.1418,-0.0698,0.0436,26.75,-11.5625,42.5625,160.4375,-23.125,161.5,0
1776973481.338,9.1243,1.9082,1.4796,-1.5977,-0.0426,0.2025,-96.6,-12.0,5.25,10.0365,-1.1325,1.798,-0.0693,0.4522,0.1452,-86.55,-2.7,-11.4,-4.12,-2.77,-8.53,-0.1614,-0.0971,0.0731,27.5,-12.0,41.875,160.4375,-23.125,161.5,0
1776973481.343,9.1243,1.9082,1.4796,-1.5977,-0.0426,0.2025,-97.05,-10.95,5.4,10.0365,-1.1325,1.798,-0.0693,0.4522,0.1452,-86.55,-2.7,-11.4,-4.12,-2.77,-8.53,-0.1614,-0.0971,0.0731,27.5,-12.0,41.875,160.4375,-23.1875,161.625,0
1776973481.348,9.0429,2.0877,2.4349,-1.4011,0.0751,0.2185,-97.05,-10.95,5.4,10.2687,-0.6081,1.7406,-0.3,0.4181,0.166,-86.25,-3.6,-10.05,-4.33,-2.6,-8.56,-0.1451,-0.1047,0.0753,27.5,-12.0,41.875,160.4375,-23.1875,161.625,0
1776973481.353,9.0429,2.0877,2.4349,-1.4011,0.0751,0.2185,-97.05,-10.95,5.4,10.2687,-0.6081,1.7406,-0.3,0.4181,0.166,-86.25,-3.6,-10.05,-4.33,-2.6,-8.56,-0.1091,-0.0818,0.0622,27.5,-12.0,41.875,160.5,-23.25,161.6875,0
1776973481.359,9.0644,2.4732,3.5291,-1.1032,0.1631,0.2422,-97.05,-10.95,5.4,9.9742,0.4573,1.6688,-0.5081,0.3733,0.1692,-86.1,-4.65,-11.1,-4.27,-2.61,-8.66,-0.1091,-0.0818,0.0622,27.5,-12.0,41.875,160.5,-23.3125,161.75,0
1776973481.368,8.9735,2.5786,4.4388,-0.8082,0.417,0.2438,-97.05,-12.15,5.1,9.8976,1.2234,1.4317,-0.4714,0.3784,0.1623,-84.6,-3.0,-10.65,-4.3,-2.66,-8.63,-0.0687,-0.0589,0.0447,27.5,-12.0,41.875,160.5,-23.3125,161.75,0
1776973481.378,9.0812,2.5187,4.8195,-0.5585,0.5332,0.2324,-97.05,-10.2,3.3,9.845,1.7765,1.5203,-0.3115,0.368,0.1716,-86.25,-3.3,-10.05,-4.27,-2.72,-8.61,-0.0393,-0.0513,0.0273,27.5,-12.0,41.875,160.5,-23.3125,161.75,0
1776973481.383,9.0812,2.5187,4.8195,-0.2332,0.6909,0.2078,-98.85,-10.2,5.4,9.7348,2.0183,1.4748,-0.3115,0.368,0.1716,-86.25,-3.3,-10.05,-4.27,-2.72,-8.61,-0.0393,-0.0513,0.0273,27.5,-12.0,41.875,160.5,-23.3125,161.75,0
1776973481.388,9.3158,2.5211,4.8866,-0.2332,0.6909,0.2078,-98.85,-10.2,5.4,9.7348,2.0183,1.4748,-0.1924,0.3299,0.1836,-86.25,-3.3,-10.05,-4.2,-2.79,-8.51,-0.0218,-0.0305,0.0153,27.5,-11.5625,42.5625,160.5,-23.375,161.75,0
1776973481.393,9.5648,2.1979,4.3096,0.036,0.7088,0.1823,-98.25,-12.15,6.45,9.6438,2.1883,1.312,-0.1924,0.3299,0.1836,-86.25,-3.3,-10.05,-4.2,-2.79,-8.51,-0.0218,-0.0305,0.0153,27.5,-11.5625,42.5625,160.5,-23.375,161.75,0
1776973481.398,9.5648,2.1979,4.3096,0.036,0.7088,0.1823,-98.25,-12.15,6.45,9.6438,2.1883,1.312,-0.0472,0.3142,0.2025,-86.25,-5.25,-10.5,-4.15,-2.84,-8.47,-0.0109,-0.0218,0.0076,27.5,-11.5625,42.5625,160.5,-23.375,161.75,0
1776973481.403,9.7109,2.1165,3.3591,0.0698,0.6014,0.1745,-98.25,-12.15,6.45,9.8043,2.1117,1.233,0.0719,0.2974,0.2262,-86.25,-5.25,-10.5,-4.15,-2.84,-8.47,-0.0164,-0.0131,0.0044,27.5,-11.5625,42.5625,160.5,-23.375,161.75,0
1776973481.409,9.7109,2.1165,3.3591,0.0698,0.6014,0.1745,-98.25,-12.15,6.45,9.8043,2.1117,1.233,0.0719,0.2974,0.2262,-86.25,-5.25,-10.5,-4.17,-2.85,-8.5,-0.0164,-0.0131,0.0044,27.5,-11.5625,42.5625,160.5,-23.4375,161.8125,0
1776973481.418,9.4691,1.9154,2.5283,0.1215,0.5526,0.1735,-97.5,-9.45,8.7,9.7109,1.743,1.2091,0.0648,0.2785,0.259,-84.75,-2.4,-10.8,-4.13,-2.88,-8.45,-0.0262,-0.012,0.0055,27.5,-11.5625,42.5625,160.5,-23.4375,161.8125,0
1776973481.427,9.572,1.5897,1.6017,0.1204,0.5337,0.1647,-99.15,-10.05,9.15,9.5457,1.1851,1.0965,0.0029,0.2659,0.2771,-85.8,-3.45,-10.35,-4.09,-2.96,-8.37,-0.0327,-0.0153,0.0098,27.5,-11.5625,42.5625,160.5,-23.4375,161.8125,0
1776973481.432,9.572,1.5897,1.6017,0.0104,0.5404,0.1561,-99.15,-10.05,9.15,9.6319,0.6105,0.893,0.0029,0.2659,0.2771,-85.8,-3.45,-10.35,-4.09,-2.96,-8.37,-0.0327,-0.0153,0.0098,27.5,-11.5625,42.5625,160.5,-23.4375,161.8125,0
1776973481.436,9.7085,1.008,0.826,0.0104,0.5404,0.1561,-98.7,-11.25,9.15,9.6319,0.6105,0.893,-0.089,0.2761,0.2907,-84.0,-4.8,-10.5,-4.07,-2.84,-8.39,-0.0513,-0.0218,0.0207,27.875,-12.0,41.875,160.4375,-23.4375,161.8125,0
1776973481.441,9.7085,1.008,0.826,-0.0493,0.5521,0.1394,-98.7,-11.25,9.15,9.6247,0.5315,0.759,-0.296,0.2689,0.3206,-84.0,-4.8,-10.5,-4.07,-2.84,-8.39,-0.0513,-0.0218,0.0207,27.875,-12.0,41.875,160.4375,-23.4375,161.8125,0
1776973481.446,9.8665,0.7614,0.237,-0.0493,0.5521,0.1394,-100.5,-9.75,9.9,9.6247,0.5315,0.759,-0.296,0.2689,0.3206,-84.75,-3.6,-10.5,-4.11,-2.81,-8.38,-0.0545,-0.0218,0.0262,27.875,-12.0,41.875,160.4375,-23.5,161.875,0
1776973481.451,9.8665,0.7614,0.237,-0.1122,0.5737,0.093,-100.5,-9.75,9.9,9.6343,0.9816,0.6608,-0.4826,0.2585,0.3549,-84.75,-3.6,-10.5,-4.11,-2.81,-8.38,-0.0545,-0.0218,0.0262,27.875,-12.0,41.875,160.4375,-23.5,161.875,0
1776973481.456,9.8976,0.5339,-0.2155,-0.1122,0.5737,0.093,-99.3,-9.15,11.1,9.6343,0.9816,0.6608,-0.4826,0.2585,0.3549,-84.75,-3.6,-10.5,-4.1,-2.76,-8.44,-0.0524,-0.024,0.0305,27.875,-12.0,41.875,160.4375,-23.5,161.875,0
1776973481.461,9.8976,0.5339,-0.2155,-0.2185,0.5271,0.0578,-99.3,-9.15,11.1,9.4284,1.5874,0.4812,-0.5446,0.2649,0.372,-84.75,-3.6,-10.5,-4.1,-2.76,-8.44,-0.0524,-0.024,0.0305,27.875,-12.0,41.875,160.4375,-23.5625,161.9375,0
1776973481.469,9.809,0.4693,-0.5076,-0.2185,0.5271,0.0578,-99.3,-9.15,11.1,9.4284,1.5874,0.4812,-0.5446,0.2649,0.372,-85.2,-3.6,-10.05,-4.08,-2.84,-8.39,-0.0502,-0.024,0.0327,27.875,-12.0,41.875,160.4375,-23.5625,161.9375,0
1776973481.477,9.8617,0.3208,-0.5842,-0.376,0.4948,0.0232,-101.25,-10.8,11.7,9.3685,1.9728,0.3543,-0.5817,0.2438,0.3821,-85.2,-3.6,-10.05,-4.0,-2.92,-8.32,-0.0578,-0.0284,0.0371,27.875,-12.0,41.875,160.5,-23.5625,161.9375,0
1776973481.481,9.7947,0.2562,-0.4214,-0.5649,0.397,0.0021,-101.85,-9.45,11.1,9.3565,1.7023,0.2155,-0.5156,0.2694,0.3978,-85.2,-3.6,-10.05,-4.0,-2.92,-8.32,-0.0578,-0.0284,0.0371,27.875,-12.0,41.875,160.5,-23.5625,161.9375,0
1776973481.486,9.7947,0.2562,-0.4214,-0.5649,0.397,0.0021,-101.85,-9.45,11.1,9.3565,1.7023,0.2155,-0.5156,0.2694,0.3978,-85.05,-4.95,-8.85,-4.04,-2.87,-8.32,-0.0742,-0.0349,0.0556,28.1875,-13.0625,41.875,160.5,-23.625,162.0,0
1776973481.491,9.7947,0.3232,-0.1963,-0.7112,0.4207,-0.0123,-99.3,-12.15,12.15,9.6175,1.3192,0.419,-0.4818,0.2731,0.4202,-85.05,-4.95,-8.85,-4.04,-2.87,-8.32,-0.0742,-0.0349,0.0556,28.1875,-13.0625,41.875,160.5,-23.625,162.0,0
1776973481.496,9.7947,0.3232,-0.1963,-0.7112,0.4207,-0.0123,-99.3,-12.15,12.15,9.6175,1.3192,0.419,-0.4818,0.2731,0.4202,-85.5,-5.55,-8.7,-4.03,-2.85,-8.38,-0.1014,-0.0393,0.0731,28.1875,-13.0625,41.875,160.5,-23.625,162.0625,0
1776973481.501,9.7636,0.2442,-0.0814,-0.8098,0.3371,-0.0051,-99.9,-10.8,10.65,9.4427,0.9457,0.5986,-0.393,0.2987,0.4386,-85.5,-5.55,-8.7,-4.03,-2.85,-8.38,-0.1014,-0.0393,0.0731,28.1875,-13.0625,41.875,160.5,-23.625,162.0625,0
1776973481.506,9.7636,0.2442,-0.0814,-0.8098,0.3371,-0.0051,-99.9,-10.8,10.65,9.4427,0.9457,0.5986,-0.393,0.2987,0.4386,-86.55,-6.15,-9.15,-4.12,-2.69,-8.44,-0.1222,-0.0447,0.0873,28.1875,-13.0625,41.875,160.5,-23.6875,162.125,0
1776973481.511,9.7636,0.3065,0.0958,-0.8631,0.3096,-0.0059,-99.9,-10.8,10.65,9.5696,0.4764,0.7685,-0.3176,0.3144,0.4514,-86.55,-6.15,-9.15,-4.12,-2.69,-8.44,-0.1222,-0.0447,0.0873,28.1875,-13.0625,41.875,160.5625,-23.75,162.25,0
1776973481.519,9.505,0.1676,0.5339,-0.8985,0.2137,-0.008,-99.9,-10.8,10.65,9.5217,0.3184,0.8547,-0.2769,0.328,0.4684,-85.05,-6.15,-9.15,-4.24,-2.63,-8.52,-0.1265,-0.0491,0.096,28.1875,-13.0625,41.875,160.5625,-23.75,162.25,0
1776973481.525,9.505,0.1676,0.5339,-0.8985,0.2137,-0.008,-99.9,-10.8,10.65,9.5217,0.3184,0.8547,-0.2769,0.328,0.4684,-84.45,-7.5,-8.25,-4.29,-2.53,-8.54,-0.1222,-0.0469,0.0894,28.1875,-13.0625,41.875,160.625,-23.8125,162.3125,0
1776973481.53,9.3182,0.1245,0.7757,-0.9726,0.2324,-0.0032,-98.55,-10.8,10.65,9.4643,0.2035,0.8475,-0.307,0.3371,0.4775,-84.45,-7.5,-8.25,-4.29,-2.53,-8.54,-0.1222,-0.0469,0.0894,28.1875,-13.0625,41.875,160.625,-23.8125,162.3125,0
1776973481.535,9.3182,0.1245,0.7757,-0.9726,0.2324,-0.0032,-98.55,-12.9,11.85,9.4643,0.2035,0.8475,-0.307,0.3371,0.4775,-84.45,-7.5,-8.25,-4.26,-2.56,-8.51,-0.1113,-0.0415,0.0807,26.75,-13.0625,41.0625,160.625,-23.8125,162.375,0
1776973481.54,9.4116,0.1053,1.0702,-1.0651,0.2872,0.0008,-98.7,-12.0,10.2,9.4643,0.0144,0.9768,-0.3416,0.3501,0.489,-85.8,-5.4,-8.1,-4.26,-2.56,-8.51,-0.1113,-0.0415,0.0807,26.75,-13.0625,41.0625,160.625,-23.8125,162.375,0
1776973481.545,9.4116,0.1053,1.0702,-1.0651,0.2872,0.0008,-98.7,-12.0,10.2,9.4643,0.0144,0.9768,-0.3416,0.3501,0.489,-85.8,-5.4,-8.1,-4.26,-2.6,-8.45,-0.1004,-0.0371,0.0709,26.75,-13.0625,41.0625,160.625,-23.875,162.4375,0
1776973481.55,9.5672,0.079,1.3072,-1.1229,0.2627,0.0093,-98.4,-14.25,10.65,9.517,-0.0862,1.0247,-0.3698,0.3496,0.4791,-85.8,-5.4,-8.1,-4.26,-2.6,-8.45,-0.1004,-0.0371,0.0709,26.75,-13.0625,41.0625,160.625,-23.875,162.4375,0
1776973481.555,9.5672,0.079,1.3072,-1.1229,0.2627,0.0093,-98.4,-14.25,10.65,9.517,-0.0862,1.0247,-0.3698,0.3496,0.4791,-85.8,-5.4,-8.1,-4.17,-2.64,-8.46,-0.1014,-0.0295,0.0676,26.75,-13.0625,41.0625,160.6875,-23.875,162.5625,0
1776973481.56,9.5193,0.1748,1.5897,-1.1008,0.2313,0.0144,-98.7,-13.05,10.95,9.5481,0.0694,1.1277,-0.3864,0.3659,0.4788,-84.75,-8.7,-7.95,-4.17,-2.64,-8.46,-0.1014,-0.0295,0.0676,26.75,-13.0625,41.0625,160.6875,-23.9375,162.625,0
1776973481.569,9.4188,0.2921,1.9082,-1.0104,0.2443,0.0136,-98.7,-13.05,10.95,9.6917,0.2251,1.1756,-0.4133,0.3786,0.4834,-84.75,-8.7,-7.95,-4.18,-2.62,-8.48,-0.1004,-0.0305,0.0644,26.75,-13.0625,41.0625,160.6875,-23.9375,162.625,0
1776973481.573,9.4188,0.2921,1.9082,-1.0104,0.2443,0.0136,-98.7,-13.05,10.95,9.6917,0.2251,1.1756,-0.4133,0.3786,0.4834,-84.75,-8.7,-7.95,-4.18,-2.62,-8.48,-0.0993,-0.0393,0.0654,26.75,-13.0625,41.0625,160.75,-23.9375,162.6875,0
1776973481.58,9.5984,0.4118,2.0016,-0.9246,0.1935,0.0242,-97.65,-12.75,10.65,9.7899,0.1556,1.5658,-0.4221,0.3794,0.4887,-85.35,-8.55,-8.1,-4.18,-2.63,-8.42,-0.0993,-0.0393,0.0654,26.75,-13.0625,41.0625,160.75,-23.9375,162.6875,0
1776973481.584,9.5984,0.4118,2.0016,-0.9246,0.1935,0.0242,-97.65,-12.75,10.65,9.7899,0.1556,1.5658,-0.4221,0.3794,0.4887,-85.35,-8.55,-8.1,-4.18,-2.63,-8.42,-0.0993,-0.0393,0.0654,27.0625,-13.5,42.25,160.8125,-24.0,162.75,0
1776973481.589,9.2177,0.7183,2.2051,-0.8148,0.1852,0.0301,-96.45,-14.7,9.3,9.7013,-0.1053,1.4653,-0.4469,0.348,0.4866,-85.5,-9.45,-7.95,-4.09,-2.74,-8.43,-0.0971,-0.0404,0.0687,27.0625,-13.5,42.25,160.8125,-24.0,162.75,0
1776973481.594,9.2177,0.7183,2.2051,-0.8148,0.1852,0.0301,-96.45,-14.7,9.3,9.6414,-0.4501,1.4676,-0.4469,0.348,0.4866,-85.5,-9.45,-7.95,-4.09,-2.74,-8.43,-0.0971,-0.0404,0.0687,27.0625,-13.5,42.25,160.8125,-24.0625,162.8125,0
1776973481.599,9.4188,0.8715,2.241,-0.7887,0.2308,0.0392,-96.6,-13.5,8.85,9.6414,-0.4501,1.4676,-0.4215,0.34,0.4727,-83.1,-6.9,-6.9,-4.13,-2.71,-8.41,-0.1004,-0.0458,0.0774,27.0625,-13.5,42.25,160.8125,-24.0625,162.8125,0
1776973481.604,9.4188,0.8715,2.241,-0.7887,0.2308,0.0392,-96.6,-13.5,8.85,9.5577,-0.6871,1.3072,-0.4215,0.34,0.4727,-83.1,-6.9,-6.9,-4.13,-2.71,-8.41,-0.1036,-0.0502,0.0862,27.0625,-13.5,42.25,160.875,-24.125,162.875,0
1776973481.61,9.2512,0.7063,2.2003,-0.806,0.2547,0.0709,-97.95,-13.05,8.55,9.5577,-0.6871,1.3072,-0.4482,0.3496,0.4804,-85.2,-9.15,-7.5,-4.18,-2.63,-8.45,-0.1036,-0.0502,0.0862,27.0625,-13.5,42.25,160.875,-24.125,162.875,0
1776973481.619,9.596,0.7159,1.9656,-0.7975,0.2214,0.097,-97.95,-13.05,8.55,9.5816,-0.51,1.494,-0.433,0.3589,0.4804,-85.2,-9.15,-7.5,-4.25,-2.54,-8.51,-0.1047,-0.0545,0.0894,27.0625,-13.5,42.25,160.875,-24.125,162.9375,0
1776973481.624,9.596,0.7159,1.9656,-0.7975,0.2214,0.097,-97.95,-13.05,8.55,9.572,-0.261,1.5179,-0.433,0.3589,0.4804,-85.2,-9.15,-7.5,-4.25,-2.54,-8.51,-0.1014,-0.0567,0.0862,27.0625,-13.5,42.25,160.9375,-24.1875,163.0625,0
1776973481.63,9.3948,0.7111,1.7621,-0.7925,0.2481,0.1348,-97.95,-13.05,8.55,9.572,-0.261,1.5179,-0.409,0.3565,0.4815,-84.75,-8.7,-7.5,-4.31,-2.43,-8.56,-0.1014,-0.0567,0.0862,27.0625,-13.5,42.25,160.9375,-24.1875,163.0625,0
1776973481.635,9.3948,0.7111,1.7621,-0.7706,0.2268,0.1631,-97.95,-13.05,8.55,9.5026,-0.0024,1.1899,-0.3877,0.3722,0.494,-84.75,-8.7,-7.5,-4.31,-2.43,-8.56,-0.0905,-0.0556,0.0731,27.875,-14.1875,41.5,160.9375,-24.25,163.125,0
1776973481.64,9.4355,0.7566,1.5634,-0.7706,0.2268,0.1631,-97.35,-13.8,11.4,9.5026,-0.0024,1.1899,-0.3877,0.3722,0.494,-84.75,-8.7,-7.5,-4.32,-2.43,-8.55,-0.0905,-0.0556,0.0731,27.875,-14.1875,41.5,160.9375,-24.25,163.125,0
1776973481.644,9.3901,0.8523,1.4341,-0.7218,0.2284,0.1791,-97.35,-13.8,11.4,9.4739,0.1676,0.9457,-0.3656,0.388,0.5004,-84.75,-8.7,-7.5,-4.32,-2.43,-8.55,-0.0709,-0.0545,0.0654,27.875,-14.1875,41.5,161.0,-24.3125,163.1875,0
1776973481.65,9.3901,0.8523,1.4341,-0.7218,0.2284,0.1791,-97.5,-12.9,10.8,9.4739,0.1676,0.9457,-0.3656,0.388,0.5004,-85.05,-9.3,-6.6,-4.31,-2.54,-8.52,-0.0709,-0.0545,0.0654,27.875,-14.1875,41.5,161.0,-24.3125,163.1875,0
1776973481.654,9.505,1.0726,1.3216,-0.671,0.2635,0.1953,-97.5,-12.9,10.8,9.5768,0.0455,1.403,-0.3277,0.3917,0.5081,-85.05,-9.3,-6.6,-4.31,-2.54,-8.52,-0.0578,-0.0556,0.0611,27.875,-14.1875,41.5,161.0,-24.375,163.1875,0
1776973481.66,9.505,1.0726,1.3216,-0.671,0.2635,0.1953,-96.6,-13.8,10.2,9.5768,0.0455,1.403,-0.3277,0.3917,0.5081,-85.8,-8.55,-8.1,-4.17,-2.58,-8.44,-0.0578,-0.0556,0.0611,27.875,-14.1875,41.5,161.0,-24.375,163.1875,0
1776973481.669,9.7803,1.1899,1.2139,-0.6297,0.2891,0.1881,-96.6,-13.5,9.9,9.9359,-0.146,1.3048,-0.3794,0.3738,0.4959,-84.45,-9.45,-7.2,-4.05,-2.71,-8.37,-0.0556,-0.0535,0.0578,27.875,-14.1875,41.5,161.0,-24.375,163.25,0
1776973481.679,9.8138,1.1588,1.1277,-0.6081,0.304,0.1857,-96.6,-13.5,9.9,9.7683,-0.3903,1.0894,-0.4263,0.385,0.49,-85.2,-10.35,-7.5,-3.95,-2.89,-8.37,-0.0524,-0.06,0.0665,27.875,-14.1875,41.5,161.0625,-24.4375,163.3125,0
1776973481.684,9.675,1.1564,1.0774,-0.6283,0.292,0.1927,-96.6,-13.5,9.9,10.0724,-0.8499,1.5275,-0.4026,0.3989,0.5071,-85.2,-10.35,-7.5,-3.95,-2.89,-8.37,-0.0524,-0.06,0.0665,27.875,-14.1875,41.5,161.0625,-24.4375,163.3125,0
1776973481.689,9.675,1.1564,1.0774,-0.6283,0.292,0.1927,-96.75,-13.95,10.05,10.0724,-0.8499,1.5275,-0.4026,0.3989,0.5071,-84.6,-11.25,-6.9,-4.23,-2.44,-8.55,-0.0502,-0.0796,0.0862,27.5,-14.1875,41.875,161.125,-24.5,163.3125,0
1776973481.694,9.6726,1.0798,1.1444,-0.6797,0.3373,0.2001,-96.75,-13.95,10.05,9.9288,-1.008,1.5299,-0.4338,0.397,0.5292,-84.6,-11.25,-6.9,-4.23,-2.44,-8.55,-0.0502,-0.0796,0.0862,27.5,-14.1875,41.875,161.125,-24.5,163.3125,0
1776973481.699,9.6726,1.0798,1.1444,-0.6797,0.3373,0.2001,-96.9,-13.05,12.0,9.9288,-1.008,1.5299,-0.4338,0.397,0.5292,-85.8,-10.95,-6.6,-4.31,-2.32,-8.64,-0.0469,-0.0938,0.096,27.5,-14.1875,41.875,161.125,-24.5625,163.375,0
1776973481.703,9.6127,0.8859,1.2258,-0.7229,0.3709,0.2308,-96.9,-13.05,12.0,9.6941,-0.9888,1.5395,-0.4431,0.4133,0.5348,-85.8,-10.95,-6.6,-4.31,-2.32,-8.64,-0.0251,-0.0993,0.0916,27.5,-14.1875,41.875,161.1875,-24.625,163.4375,0
1776973481.71,9.6127,0.8859,1.2258,-0.7229,0.3709,0.2308,-96.75,-14.7,10.5,9.7707,-1.0223,1.81,-0.4431,0.4133,0.5348,-85.8,-10.95,-6.6,-4.41,-2.25,-8.66,-0.0251,-0.0993,0.0916,27.5,-14.1875,41.875,161.25,-24.6875,163.4375,0
1776973481.719,9.6486,0.7087,1.1947,-0.7546,0.3866,0.2606,-97.35,-14.25,10.95,9.7755,-1.1205,1.6568,-0.5167,0.4064,0.5311,-84.15,-12.0,-7.35,-4.44,-2.09,-8.68,0.0022,-0.1036,0.0829,27.5,-14.1875,41.875,161.25,-24.6875,163.4375,0
1776973481.729,9.4786,0.4597,1.2115,-0.7594,0.404,0.2923,-97.35,-14.25,10.95,9.6678,-1.0558,1.7789,-0.5249,0.4122,0.53,-83.85,-11.25,-6.15,-4.36,-2.39,-8.59,0.0218,-0.0971,0.0633,27.5,-14.1875,41.875,161.25,-24.75,163.4375,0
1776973481.734,9.4858,0.2969,1.154,-0.7424,0.4293,0.3304,-97.35,-14.25,10.95,9.6678,-1.0558,1.7789,-0.5239,0.4223,0.546,-83.85,-11.25,-6.15,-4.36,-2.39,-8.59,0.0218,-0.0971,0.0633,27.5,-14.1875,41.875,161.25,-24.8125,163.375,0
1776973481.739,9.4858,0.2969,1.154,-0.7424,0.4293,0.3304,-97.35,-14.25,10.95,9.5792,-0.4022,1.573,-0.5239,0.4223,0.546,-84.15,-10.95,-6.9,-4.36,-2.42,-8.56,0.0338,-0.0949,0.06,28.5625,-13.75,41.5,161.25,-24.8125,163.375,0
1776973481.744,9.5002,0.2777,1.142,-0.7565,0.4485,0.3571,-97.35,-14.25,10.95,9.5792,-0.4022,1.573,-0.5164,0.4333,0.5446,-84.15,-10.95,-6.9,-4.36,-2.42,-8.56,0.0338,-0.0949,0.06,28.5625,-13.75,41.5,161.25,-24.875,163.375,0
1776973481.749,9.5002,0.2777,1.142,-0.7565,0.4485,0.3571,-96.6,-14.55,10.95,9.4882,0.0407,1.3192,-0.5217,0.4405,0.5545,-83.25,-12.3,-6.45,-4.35,-2.47,-8.51,0.0469,-0.0971,0.0622,28.5625,-13.75,41.5,161.25,-24.875,163.375,0
1776973481.754,9.4619,0.4453,1.2234,-0.684,0.377,0.3653,-96.6,-14.55,10.95,9.4882,0.0407,1.3192,-0.5217,0.4405,0.5545,-83.25,-12.3,-6.45,-4.35,-2.47,-8.51,0.0556,-0.0993,0.0633,28.5625,-13.75,41.5,161.3125,-24.9375,163.375,0
1776973481.76,9.4619,0.4453,1.2234,-0.684,0.377,0.3653,-96.9,-14.25,11.7,9.6845,0.1891,1.3527,-0.5332,0.4551,0.5806,-84.6,-12.45,-5.85,-4.33,-2.5,-8.55,0.0556,-0.0993,0.0633,28.5625,-13.75,41.5,161.3125,-24.9375,163.375,0
1776973481.768,9.6774,0.7518,1.2354,-0.6161,0.3632,0.3568,-96.75,-14.4,12.15,9.6127,0.2993,1.1612,-0.5329,0.4655,0.6009,-83.25,-13.05,-5.25,-4.33,-2.57,-8.52,0.0676,-0.1036,0.0687,28.5625,-13.75,41.5,161.375,-25.0625,163.3125,0
1776973481.773,9.6055,1.1732,1.4246,-0.5582,0.3451,0.3312,-96.75,-14.4,12.15,9.6127,0.2993,1.1612,-0.5329,0.4655,0.6009,-83.25,-13.05,-5.25,-4.33,-2.57,-8.52,0.0742,-0.1004,0.0698,28.5625,-13.75,41.5,161.375,-25.125,163.3125,0
1776973481.78,9.5289,1.5107,1.5251,-0.5388,0.3179,0.3088,-96.6,-15.75,10.95,9.7037,0.1652,1.6161,-0.567,0.4922,0.636,-83.25,-13.05,-5.25,-4.24,-2.7,-8.5,0.0742,-0.1004,0.0698,28.5625,-13.75,41.5,161.375,-25.125,163.3125,0
1776973481.785,9.5289,1.5107,1.5251,-0.5388,0.3179,0.3088,-96.6,-15.75,10.95,9.7037,0.1652,1.6161,-0.567,0.4922,0.636,-83.25,-13.05,-5.25,-4.24,-2.7,-8.5,0.0742,-0.1004,0.0698,28.5625,-13.75,41.5,161.4375,-25.1875,163.25,0
1776973481.79,9.5433,1.7741,1.7813,-0.5702,0.304,0.2851,-96.6,-15.75,10.95,9.8234,-0.0622,1.6664,-0.4791,0.5129,0.6704,-84.15,-11.7,-6.15,-4.21,-2.67,-8.52,0.0753,-0.1102,0.0753,27.875,-13.75,41.875,161.4375,-25.1875,163.25,0
1776973481.795,9.5433,1.7741,1.7813,-0.5702,0.304,0.2851,-96.6,-15.75,10.95,9.8234,-0.0622,1.6664,-0.4791,0.5129,0.6704,-84.15,-11.7,-6.15,-4.21,-2.67,-8.52,0.0753,-0.1102,0.0753,27.875,-13.75,41.875,161.5,-25.25,163.25,0
1776973481.8,9.5026,1.8938,1.9752,-0.6667,0.3179,0.2814,-96.0,-15.9,12.15,9.9168,-0.0527,1.8196,-0.3866,0.5249,0.7043,-84.15,-11.7,-6.15,-4.32,-2.45,-8.62,0.0654,-0.1244,0.0785,27.875,-13.75,41.875,161.5,-25.25,163.25,0
1776973481.805,9.5026,1.8938,1.9752,-0.6667,0.3179,0.2814,-96.0,-15.9,12.15,9.9168,-0.0527,1.8196,-0.3866,0.5249,0.7043,-84.15,-11.7,-6.15,-4.32,-2.45,-8.62,0.0654,-0.1418,0.084,27.875,-13.75,41.875,161.5625,-25.375,163.25,0
1776973481.81,9.4643,1.9345,2.15,-0.7309,0.2625,0.2867,-95.4,-15.0,12.45,9.7755,0.2011,1.7717,-0.3768,0.5169,0.7458,-83.1,-13.2,-5.55,-4.38,-2.33,-8.7,0.0654,-0.1418,0.084,27.875,-13.75,41.875,161.5625,-25.375,163.25,0
1776973481.819,10.2352,1.8627,2.0806,-0.7554,0.3746,0.2806,-96.15,-16.05,13.05,10.058,-0.17,1.4964,-0.3421,0.5249,0.7882,-83.7,-14.55,-4.5,-4.54,-2.39,-8.57,0.1025,-0.168,0.1004,27.875,-13.75,41.875,161.5625,-25.4375,163.1875,0
1776973481.829,9.6822,1.731,2.2745,-0.7059,0.2108,0.271,-95.1,-15.3,12.75,10.094,-0.6249,1.1325,-0.3507,0.5012,0.8388,-82.65,-15.9,-3.6,-3.59,-2.0,-9.53,0.1516,-0.1898,0.1178,27.875,-13.75,41.875,161.6875,-25.5625,163.125,0
1776973481.834,9.6822,1.731,2.2745,-0.7059,0.2108,0.271,-95.1,-15.3,12.75,10.094,-0.6249,1.1325,-0.3507,0.5012,0.8388,-82.65,-15.9,-3.6,-3.59,-2.0,-9.53,0.1516,-0.1898,0.1178,27.875,-13.75,41.875,161.6875,-25.75,163.0625,0
1776973481.839,9.821,1.415,2.3439,-0.6011,0.3019,0.247,-95.7,-16.95,13.95,9.7492,-0.7614,1.3001,-0.2822,0.5612,0.8961,-83.25,-16.5,-4.95,-4.57,-2.53,-8.5,0.1451,-0.2574,0.0905,28.1875,-13.5,40.25,161.6875,-25.75,163.0625,0
1776973481.844,9.821,1.415,2.3439,-0.6011,0.3019,0.247,-95.7,-16.95,13.95,9.9407,-0.5555,1.6257,-0.2822,0.5612,0.8961,-83.25,-16.5,-4.95,-4.57,-2.53,-8.5,0.1451,-0.2574,0.0905,28.1875,-13.5,40.25,161.6875,-25.75,163.0625,0
1776973481.849,10.137,0.9649,2.2146,-0.4844,0.2553,0.2204,-95.7,-16.95,13.95,9.9407,-0.5555,1.6257,-0.239,0.5718,0.9017,-82.65,-16.35,-6.15,-4.08,-2.49,-8.84,0.1767,-0.3283,0.0884,28.1875,-13.5,40.25,161.75,-25.9375,162.9375,0
1776973481.854,10.137,0.9649,2.2146,-0.4844,0.2553,0.2204,-95.7,-16.95,13.95,10.1442,-0.8763,1.5826,-0.239,0.5718,0.9017,-82.65,-16.35,-6.15,-4.08,-2.49,-8.84,0.1953,-0.372,0.0949,28.1875,-13.5,40.25,161.75,-26.125,162.8125,0
1776973481.86,10.161,0.8236,2.0686,-0.3936,0.288,0.1844,-95.85,-17.25,12.75,10.1442,-0.8763,1.5826,-0.2358,0.599,0.9294,-81.75,-17.4,-4.2,-4.1,-2.38,-9.1,0.1953,-0.372,0.0949,28.1875,-13.5,40.25,161.8125,-26.375,162.6875,0
1776973481.869,10.6925,0.5866,1.7166,-0.3746,0.2753,0.1338,-96.45,-16.95,12.9,10.4028,-0.7638,1.5083,-0.223,0.6118,0.9577,-81.75,-17.4,-4.2,-4.0,-2.76,-9.05,0.2291,-0.4538,0.1102,28.1875,-13.5,40.25,161.8125,-26.375,162.6875,0
1776973481.879,10.6925,0.6488,1.3384,-0.3541,0.2691,0.069,-96.0,-17.4,13.65,10.2663,-0.7518,1.4533,-0.3003,0.6246,0.9824,-80.55,-16.95,-2.4,-4.13,-2.77,-8.92,0.2422,-0.576,0.1331,28.1875,-13.5,40.25,161.875,-26.75,162.5625,0
1776973481.884,10.6925,0.6488,1.3384,-0.3541,0.2691,0.069,-96.15,-18.0,13.5,10.1634,-0.5986,1.3312,-0.3323,0.652,1.0229,-80.55,-16.95,-2.4,-4.13,-2.77,-8.92,0.2422,-0.576,0.1331,28.1875,-13.5,40.25,161.875,-26.75,162.5625,0
1776973481.889,10.5105,0.668,0.9888,-0.3355,0.231,-0.0072,-96.15,-18.0,13.5,10.1634,-0.5986,1.3312,-0.3323,0.652,1.0229,-82.65,-18.75,-2.4,-4.11,-2.92,-8.94,0.2793,-0.6556,0.156,28.5625,-13.5,41.875,161.9375,-27.0625,162.375,0
1776973481.894,10.5105,0.668,0.9888,-0.3355,0.231,-0.0072,-96.15,-18.0,13.5,10.1825,-0.2801,1.0942,-0.3539,0.6811,1.0744,-82.65,-18.75,-3.3,-4.11,-2.92,-8.94,0.2793,-0.6556,0.156,28.5625,-13.5,41.875,161.9375,-27.0625,162.375,0
1776973481.899,10.5177,0.8571,0.5722,-0.3848,0.1756,-0.064,-96.15,-18.0,13.5,10.1825,-0.2801,1.0942,-0.3539,0.6811,1.0744,-81.75,-18.9,-2.4,-4.12,-2.95,-9.04,0.2989,-0.7309,0.1745,28.5625,-13.5,41.875,162.0625,-27.5,162.1875,0
1776973481.904,10.5177,0.8571,0.5722,-0.3848,0.1756,-0.064,-95.4,-18.0,12.45,10.3477,0.1317,0.9433,-0.3176,0.7013,1.1199,-81.75,-18.9,-2.4,-4.12,-2.95,-9.04,0.2793,-0.8388,0.2029,28.5625,-13.5,41.875,162.125,-28.0,162.0,0
1776973481.91,10.3573,0.972,0.316,-0.5057,0.2353,-0.1212,-95.4,-18.0,12.45,10.3477,0.1317,0.9433,-0.3176,0.7013,1.1199,-80.55,-20.1,-4.2,-4.04,-2.88,-9.11,0.2793,-0.8388,0.2029,28.5625,-13.5,41.875,162.1875,-28.5625,161.875,0
1776973481.92,11.0756,1.415,0.1413,-0.5478,0.057,-0.1756,-97.05,-17.4,11.55,10.5249,0.4621,1.0008,-0.2372,0.7229,1.1783,-81.6,-19.05,-2.85,-4.11,-2.86,-9.09,0.2367,-0.9927,0.2476,28.5625,-13.5,41.875,162.3125,-29.25,161.75,0
1776973481.93,11.1737,1.9968,0.1269,-0.6131,0.0301,-0.2545,-95.7,-18.45,12.6,11.1929,0.6345,0.4286,-0.125,0.7634,1.2335,-80.4,-19.95,-2.1,-3.91,-3.06,-9.7,0.1931,-1.1803,0.3022,28.5625,-13.5,41.875,162.3125,-29.25,161.75,0
1776973481.935,11.1737,1.9968,0.1269,-0.7525,-0.0813,-0.3373,-96.45,-18.45,13.35,11.3749,0.1556,0.3903,-0.044,0.8271,1.2921,-80.4,-19.95,-2.1,-3.91,-3.06,-9.7,0.1931,-1.1803,0.3022,28.5625,-13.5,41.875,162.3125,-29.25,161.75,0
1776973481.94,11.2216,2.3918,0.158,-0.7525,-0.0813,-0.3373,-96.45,-18.45,13.35,11.3749,0.1556,0.3903,-0.044,0.8271,1.2921,-80.4,-19.95,-2.1,-4.08,-3.0,-9.48,0.1364,-1.3821,0.3785,30.0625,-13.5,41.0625,162.4375,-30.0,161.625,0
1776973481.945,10.9056,2.873,0.3304,-0.7264,-0.1031,-0.4335,-94.5,-16.95,11.55,11.5808,-0.0742,0.0742,0.0187,0.8969,1.3499,-80.4,-19.95,-2.1,-4.08,-3.0,-9.48,0.1364,-1.3821,0.3785,30.0625,-13.5,41.0625,162.4375,-30.0,161.625,0
1776973481.95,10.9056,2.873,0.3304,-0.7264,-0.1031,-0.4335,-94.5,-16.95,11.55,11.825,-0.2442,-0.0096,0.0187,0.8969,1.3499,-78.45,-21.45,-1.05,-4.1,-3.16,-9.51,0.1025,-1.597,0.4625,30.0625,-13.5,41.0625,162.5625,-30.9375,161.5625,0
1776973481.954,11.4299,3.2154,0.2969,-0.6944,-0.2273,-0.5436,-94.5,-16.95,11.55,11.825,-0.2442,-0.0096,-0.0053,0.9601,1.4053,-78.45,-21.45,-1.05,-4.1,-3.16,-9.51,0.1429,-1.7933,0.5738,30.0625,-13.5,41.0625,162.75,-32.0,161.5,0
1776973481.96,11.4299,3.2154,0.2969,-0.6944,-0.2273,-0.5436,-94.5,-16.95,11.55,11.9016,-0.6704,-0.5195,-0.0922,1.0136,1.449,-78.45,-21.45,-1.05,-3.98,-2.75,-9.81,0.1429,-1.7933,0.5738,30.0625,-13.5,41.0625,163.0,-33.1875,161.375,0
1776973481.97,11.5424,3.1939,0.3232,-0.6662,-0.3709,-0.6771,-96.75,-16.65,11.85,11.9997,-1.0463,-0.6871,-0.1721,1.0834,1.489,-78.75,-22.5,-1.05,-3.76,-3.52,-9.73,0.2214,-1.9984,0.6992,30.0625,-13.5,41.0625,163.0,-33.1875,161.375,0
1776973481.98,11.406,3.0526,0.091,-0.6222,-0.4306,-0.8194,-98.4,-17.25,10.95,12.1817,-1.5897,-0.8021,-0.2891,1.1498,1.5191,-78.75,-22.5,0.15,-3.98,-3.44,-9.6,0.2596,-2.2078,0.8563,30.0625,-13.5,41.0625,163.375,-34.5,161.25,0
1776973481.985,11.7053,3.0598,-0.4022,-0.526,-0.5566,-0.9422,-97.95,-16.8,9.6,12.1817,-1.5897,-0.8021,-0.2891,1.1498,1.5191,-78.45,-22.95,0.3,-3.98,-3.44,-9.6,0.2596,-2.2078,0.8563,30.0625,-13.5,41.0625,163.75,-35.9375,161.1875,0
1776973481.99,11.7053,3.0598,-0.4022,-0.526,-0.5566,-0.9422,-97.95,-16.8,9.6,12.5384,-1.9848,-0.4741,-0.4349,1.2137,1.5428,-78.0,-24.75,0.3,-4.0,-3.69,-9.56,0.2225,-2.4696,1.0221,31.875,-13.5,39.0625,163.75,-35.9375,161.1875,0
1776973481.995,11.2623,2.7677,-1.1301,-0.3722,-0.7887,-1.0371,-100.05,-16.2,10.05,12.5384,-1.9848,-0.4741,-0.4349,1.2137,1.5428,-78.0,-24.75,1.2,-4.0,-3.69,-9.56,0.2225,-2.4696,1.0221,31.875,-13.5,39.0625,164.25,-37.625,161.1875,0
1776973482.0,11.2623,2.7677,-1.1301,-0.3722,-0.7887,-1.0371,-100.05,-16.2,10.05,12.8353,-1.4222,-0.984,-0.5812,1.262,1.598,-78.0,-24.75,1.2,-4.12,-3.2,-9.53,0.2007,-2.7456,1.2228,31.875,-13.5,39.0625,164.25,-37.625,161.1875,0
1776973482.005,10.4339,2.636,-2.1548,-0.2033,-1.0389,-1.0984,-100.05,-16.2,10.05,12.8353,-1.4222,-0.984,-0.5812,1.262,1.598,-76.95,-24.6,1.05,-4.12,-3.2,-9.53,0.1942,-3.0543,1.4279,31.875,-13.5,39.0625,164.8125,-39.5,161.25,0
1776973482.01,10.4339,2.636,-2.1548,-0.2033,-1.0389,-1.0984,-100.05,-16.2,10.05,13.3453,-1.3695,-1.8938,-0.8759,1.3057,1.6465,-77.7,-27.0,-0.6,-4.55,-3.05,-9.66,0.1942,-3.0543,1.4279,31.875,-13.5,39.0625,165.5,-41.5625,161.375,0
1776973482.02,9.8354,2.4565,-1.0582,0.1439,-1.1263,-1.1503,-100.2,-14.25,8.85,13.2375,-1.4724,-1.1349,-1.1229,1.3432,1.6441,-77.7,-27.0,-0.6,-4.57,-3.69,-9.68,0.2334,-3.3728,1.6395,31.875,-13.5,39.0625,165.5,-41.5625,161.375,0
1776973482.03,9.7827,2.1907,-0.237,0.4445,-1.1253,-1.2825,-100.95,-16.05,7.8,12.2392,-1.6472,-0.3687,-1.2875,1.3915,1.6228,-76.5,-28.35,0.15,-6.44,-4.33,-9.92,0.2378,-3.7306,1.8217,31.875,-13.5,39.0625,202.8125,-43.8125,161.5,0
1776973482.035,9.8258,1.2139,-1.8579,0.4298,-1.336,-1.3544,-102.75,-15.3,6.75,12.2392,-1.6472,-0.3687,-1.2875,1.3915,1.6228,-76.5,-28.35,0.15,-6.44,-4.33,-9.92,0.2378,-3.7306,1.8217,31.875,-13.5,39.0625,200.4375,-46.375,161.6875,0
1776973482.04,9.8258,1.2139,-1.8579,0.4298,-1.336,-1.3544,-102.75,-15.3,6.75,11.382,-1.6041,1.221,-1.3043,1.4469,1.6129,-76.5,-28.35,0.15,-7.24,-3.61,-9.61,0.2476,-4.1321,2.0159,36.0,-13.75,34.75,200.4375,-46.375,161.6875,0
1776973482.045,9.4643,0.5507,-1.4365,0.6222,-1.4674,-1.3702,-98.85,-13.2,6.45,11.382,-1.6041,1.221,-1.3043,1.4469,1.6129,-75.3,-29.85,2.4,-7.24,-3.61,-9.61,0.2476,-4.1321,2.0159,36.0,-13.75,34.75,200.4375,-46.375,161.6875,0
1776973482.05,9.4643,0.5507,-1.4365,0.6222,-1.4674,-1.3702,-98.85,-13.2,6.45,11.0061,-1.1157,2.1596,-1.2846,1.5455,1.63,-75.3,-29.85,2.4,-9.54,-2.78,-10.31,0.3392,-4.4909,2.1751,36.0,-13.75,34.75,198.1875,-49.0625,161.9375,0
1776973482.055,10.2328,0.2514,-1.1564,0.5468,-1.5303,-1.3851,-103.5,-11.55,4.95,11.0061,-1.1157,2.1596,-1.2846,1.5455,1.63,-74.4,-29.7,2.1,-9.54,-2.78,-10.31,0.6458,-4.7877,2.2177,36.0,-13.75,34.75,196.3125,-52.0,162.0,0
1776973482.061,10.999,0.1604,-0.9505,0.1324,-1.7717,-1.4186,-103.5,-11.55,4.95,11.0181,-0.7446,2.1811,-1.2596,1.5569,1.6438,-73.65,-29.7,2.55,-10.14,-2.96,-10.4,0.6458,-4.7877,2.2177,36.0,-13.75,34.75,195.0625,-54.9375,161.75,0
1776973482.07,10.999,0.1604,-0.9505,-0.137,-1.8194,-1.485,-103.5,-11.55,4.95,10.5297,-0.9242,3.0167,-1.1221,1.6044,1.5769,-73.65,-29.7,2.55,-10.46,-3.65,-10.08,1.0974,-4.9393,2.1631,36.0,-13.75,34.75,195.0625,-54.9375,161.75,0
1776973482.08,11.3389,-0.1676,-0.0551,-0.2638,-1.7874,-1.5362,-101.85,-12.9,2.55,9.7396,-1.7957,4.0701,-0.9318,1.6433,1.4946,-73.2,-30.45,1.8,-11.82,-4.21,-10.13,1.5173,-4.9764,2.1184,36.0,-13.75,34.75,194.375,-57.9375,161.3125,0
1776973482.085,11.2575,-0.7925,0.9577,-0.2638,-1.7874,-1.5362,-99.9,-12.0,2.85,9.0956,-2.9473,4.3934,-0.9318,1.6433,1.4946,-73.05,-30.6,3.0,-11.82,-4.21,-10.13,1.5173,-4.9764,2.1184,36.0,-13.75,34.75,194.375,-57.9375,161.3125,0
1776973482.09,11.2958,-1.221,1.7765,-0.3309,-1.6739,-1.5516,-99.9,-12.0,2.85,9.0956,-2.9473,4.3934,-0.659,1.6667,1.4093,-73.05,-30.6,3.0,-12.24,-4.44,-10.33,1.8795,-4.8738,2.0715,42.1875,-16.0,29.6875,194.0625,-60.875,160.625,0
1776973482.095,11.2958,-1.221,1.7765,-0.3309,-1.6739,-1.5516,-100.2,-10.5,2.1,8.8514,-4.3455,4.2138,-0.659,1.6667,1.4093,-72.45,-31.65,3.6,-12.24,-4.44,-10.33,1.8795,-4.8738,2.0715,42.1875,-16.0,29.6875,194.0625,-60.875,160.625,0
1776973482.1,11.2025,-1.8914,1.8172,-0.5468,-1.514,-1.5148,-100.2,-10.5,2.1,8.8514,-4.3455,4.2138,-0.5841,1.7224,1.2849,-72.45,-31.65,3.6,-8.98,-4.51,-8.75,2.1369,-4.5586,2.1108,42.1875,-16.0,29.6875,194.0625,-63.6875,159.875,0
1776973482.105,11.2025,-1.8914,1.8172,-0.5468,-1.514,-1.5148,-101.4,-9.9,0.45,8.5042,-6.2848,4.1994,-0.5351,1.7243,1.1421,-72.45,-31.65,3.6,-8.98,-4.51,-8.75,2.2602,-4.2641,2.198,42.1875,-16.0,29.6875,194.125,-66.3125,159.3125,0
1776973482.111,11.1929,-1.9776,2.2338,-0.8649,-1.3139,-1.4583,-101.4,-9.9,0.45,8.5042,-6.2848,4.1994,-0.5351,1.7243,1.1421,-72.45,-31.65,3.6,-7.4,-4.38,-8.49,2.2602,-4.2641,2.198,42.1875,-16.0,29.6875,194.3125,-68.8125,159.0,0
1776973482.12,11.3868,-1.9776,2.9497,-1.1783,-1.0802,-1.4189,-101.4,-9.9,0.45,8.1307,-7.2592,4.9536,-0.3882,1.7296,0.9739,-71.7,-34.8,4.35,-5.3,-4.28,-7.86,2.45,-3.9728,2.3507,42.1875,-16.0,29.6875,194.3125,-68.8125,159.0,0
1776973482.13,11.0445,-1.8052,2.9521,-1.3414,-0.8639,-1.4003,-101.1,-9.9,0.75,7.4172,-6.9767,5.5881,-0.3515,1.5473,0.7682,-71.7,-34.8,4.35,-3.29,-3.66,-6.11,2.6682,-3.7176,2.5405,42.1875,-16.0,29.6875,194.625,-71.25,159.125,0
1776973482.135,11.0445,-1.8052,2.9521,-1.3414,-0.8639,-1.4003,-101.4,-8.7,-1.2,6.4835,-6.4236,5.3486,-0.5644,1.3582,0.5436,-70.8,-34.2,3.75,-3.29,-3.66,-6.11,2.6682,-3.7176,2.5405,42.1875,-16.0,29.6875,194.8125,-73.6875,159.875,0
1776973482.14,11.2288,-1.6879,2.4181,-1.4639,-0.9129,-1.3515,-100.8,-7.2,-0.75,6.4835,-6.4236,5.3486,-0.5644,1.3582,0.5436,-70.8,-34.2,3.75,-0.78,-3.64,-4.3,2.7489,-3.6292,2.7303,45.75,-17.375,21.0625,194.8125,-73.6875,159.875,0
1776973482.145,11.2288,-1.6879,2.4181,-1.4639,-0.9129,-1.3515,-100.8,-7.2,-0.75,6.4931,-6.6679,5.8562,-0.6757,1.0848,0.3216,-70.8,-34.95,4.95,-0.78,-3.64,-4.3,2.7489,-3.6292,2.7303,45.75,-17.375,21.0625,194.8125,-73.6875,159.875,0
1776973482.15,11.1522,-0.9409,2.1596,-1.3494,-0.9792,-1.3416,-100.95,-6.75,-1.35,6.4931,-6.6679,5.8562,-0.6757,1.0848,0.3216,-70.8,-34.95,4.95,-5.08,-1.73,-5.68,2.6147,-3.5114,2.9114,45.75,-17.375,21.0625,194.8125,-76.0625,161.6875,0
1776973482.155,11.1522,-0.9409,2.1596,-1.3494,-0.9792,-1.3416,-100.95,-6.75,-1.35,5.1978,-6.6391,7.4891,-0.3898,0.7576,0.1575,-69.6,-34.2,5.7,-5.08,-1.73,-5.68,2.366,-2.6289,2.7653,45.75,-17.375,21.0625,194.8125,-77.875,164.9375,0
1776973482.161,10.6997,-0.3304,1.6496,-1.1474,-1.0288,-1.2979,-102.75,-5.25,-3.15,5.1978,-6.6391,7.4891,-0.3898,0.7576,0.1575,-69.6,-34.2,5.7,-9.03,-10.66,-12.46,2.366,-2.6289,2.7653,45.75,-17.375,21.0625,195.3125,-78.3125,168.625,0
1776973482.17,10.7691,0.6823,1.0918,-0.9702,-0.9196,-1.2857,-102.75,-5.25,-3.15,4.379,-5.1643,8.4084,-0.3075,0.6987,-0.0277,-69.75,-33.15,4.35,-5.87,-11.29,-11.58,2.3595,-0.3033,2.0137,45.75,-17.375,21.0625,195.3125,-78.3125,168.625,0
1776973482.18,10.8074,1.585,1.1851,-0.8583,-0.9537,-1.2966,-101.85,-2.4,-1.95,5.2265,-1.8675,3.4668,-0.6137,0.323,-0.3651,-70.5,-34.05,5.1,-2.97,-12.16,-8.17,1.9068,1.4454,1.1606,45.75,-17.375,21.0625,196.0,-77.625,171.1875,0
1776973482.185,10.8074,1.585,1.1851,-0.8583,-0.9537,-1.2966,-101.85,-2.4,-1.95,5.2265,-1.8675,3.4668,-1.2153,-0.0589,-0.8058,-69.6,-34.2,3.75,-2.97,-12.16,-8.17,1.9068,1.4454,1.1606,45.75,-17.375,21.0625,196.375,-76.4375,172.875,0
1776973482.19,10.4148,2.411,1.0702,-0.8735,-0.9305,-1.3099,-101.7,-1.5,0.0,5.1643,-1.6664,2.6264,-1.2153,-0.0589,-0.8058,-69.6,-34.2,3.75,0.35,-10.93,-5.94,1.0319,2.2558,0.624,48.25,-20.375,17.5625,196.375,-76.4375,172.875,0
1776973482.195,10.4148,2.411,1.0702,-0.8735,-0.9305,-1.3099,-101.7,-1.5,0.0,5.1643,-1.6664,2.6264,-1.4906,-0.315,-1.1692,-69.6,-34.2,3.75,0.35,-10.93,-5.94,1.0319,2.2558,0.624,48.25,-20.375,17.5625,196.25,-75.0625,174.25,0
1776973482.2,9.9383,2.9449,0.9313,-0.728,-0.8412,-1.2918,-103.8,0.0,-3.15,5.2074,-2.3343,2.4612,-1.4906,-0.315,-1.1692,-69.6,-34.2,3.75,-0.15,-5.88,-5.49,0.0425,2.4969,0.3622,48.25,-20.375,17.5625,196.25,-75.0625,174.25,0
1776973482.207,9.8809,2.2721,0.5004,-0.6811,-0.6829,-1.2201,-103.8,0.0,-3.15,5.2074,-2.3343,2.4612,-1.1991,-0.4636,-1.4349,-70.95,-33.15,3.6,-0.28,-4.08,-5.35,-0.6381,2.4904,0.0818,48.25,-20.375,17.5625,195.8125,-73.6875,175.25,0
1776973482.212,9.8809,2.2721,0.5004,-0.6811,-0.6829,-1.2201,-102.6,0.9,-1.95,5.2601,-3.0885,2.0375,-0.7879,-0.587,-1.6137,-70.95,-33.15,3.6,-0.28,-4.08,-5.35,-0.6381,2.4904,0.0818,48.25,-20.375,17.5625,195.4375,-72.3125,175.375,0
1776973482.22,9.7659,2.2003,0.6608,-0.7568,-0.9758,-1.0914,-102.6,0.9,-1.95,5.679,-3.9002,2.3679,-0.4698,-0.6336,-1.7232,-71.85,-32.55,2.7,0.17,-3.11,-4.98,-0.8138,2.5187,-0.3818,48.25,-20.375,17.5625,195.4375,-72.3125,175.375,0
1776973482.23,9.3541,3.4668,3.0981,0.1908,-0.7389,-1.0936,-103.8,1.8,-1.65,6.2968,-3.1963,3.1843,-0.1596,-0.8228,-1.768,-72.45,-31.95,1.35,0.8,-2.14,-4.57,-0.6665,2.5351,-0.9119,48.25,-20.375,17.5625,195.5,-70.875,174.5625,0
1776973482.235,9.0477,3.6847,2.1787,0.3656,-0.578,-1.0856,-103.8,1.8,-1.65,6.2968,-3.1963,3.1843,-0.1596,-0.8228,-1.768,-72.6,-33.45,2.7,0.8,-2.14,-4.57,-0.6665,2.5351,-0.9119,48.25,-20.375,17.5625,195.5,-70.875,174.5625,0
1776973482.24,9.0477,3.6847,2.1787,0.3656,-0.578,-1.0856,-104.25,3.75,-1.35,6.596,-2.6911,2.2625,-0.2555,-0.9678,-1.8556,-72.6,-33.45,2.7,0.57,-1.59,-4.65,-0.4069,2.4882,-1.3963,47.375,-21.0625,22.75,196.0625,-69.375,173.0625,0
1776973482.245,8.7029,3.4213,1.652,0.462,-0.5481,-1.0496,-104.25,3.75,-1.35,6.596,-2.6911,2.2625,-0.2555,-0.9678,-1.8556,-73.95,-30.9,0.6,0.57,-1.59,-4.65,-0.4069,2.4882,-1.3963,47.375,-21.0625,22.75,196.0625,-69.375,173.0625,0
1776973482.25,8.7029,3.4213,1.652,0.462,-0.5481,-1.0496,-104.25,4.5,-1.05,6.5481,-2.3463,1.7597,-0.1879,-1.1418,-1.9748,-73.95,-30.9,0.6,-0.21,-1.43,-5.18,-0.12,2.3736,-1.7682,47.375,-21.0625,22.75,197.0,-67.9375,171.125,0
1776973482.255,8.5497,4.0079,1.5347,0.6568,-0.4692,-0.9952,-104.25,4.5,-1.05,6.5481,-2.3463,1.7597,-0.1879,-1.1418,-1.9748,-75.9,-31.2,0.6,-0.21,-1.43,-5.18,0.1767,2.2646,-2.0049,47.375,-21.0625,22.75,198.4375,-66.5,168.9375,0
1776973482.261,8.5497,4.0079,1.5347,0.6568,-0.4692,-0.9952,-104.7,2.7,-1.2,6.4356,-2.4301,1.7142,0.0477,-1.3201,-2.0923,-75.9,-31.2,0.6,-1.28,-1.55,-5.87,0.1767,2.2646,-2.0049,47.375,-21.0625,22.75,200.125,-65.0625,166.6875,0
1776973482.27,8.3989,3.2896,0.972,0.9947,-0.3874,-0.9609,-104.7,3.45,-2.25,6.3686,-2.8323,2.3966,0.3312,-1.3885,-2.2106,-75.9,-31.2,0.6,-3.3,-1.82,-7.26,0.4178,2.2187,-2.1544,47.375,-21.0625,22.75,200.125,-65.0625,166.6875,0
1776973482.28,8.0325,2.8922,0.3519,1.1975,-0.4519,-0.8785,-104.7,3.45,-2.25,6.7924,-3.1651,2.7725,0.5654,-1.485,-2.3545,-77.25,-28.35,0.45,-4.12,-2.09,-7.88,0.5694,2.2733,-2.2471,47.375,-21.0625,22.75,202.125,-63.5625,164.5,0
1776973482.285,7.7021,2.4062,0.0,1.2833,-0.5614,-0.7791,-104.7,3.45,-2.25,6.7924,-3.1651,2.7725,0.5654,-1.485,-2.3545,-77.25,-28.35,0.45,-4.12,-2.09,-7.88,0.5694,2.2733,-2.2471,47.375,-21.0625,22.75,204.25,-61.875,162.5625,0
1776973482.29,7.7021,2.4062,0.0,1.2833,-0.5614,-0.7791,-104.7,3.9,-4.35,7.1635,-3.4213,2.6791,0.7011,-1.6542,-2.5191,-77.25,-28.35,0.45,-4.56,-2.3,-8.39,0.6283,2.4216,-2.2787,48.25,-18.5625,28.75,204.25,-61.875,162.5625,0
1776973482.295,7.5968,1.8771,-0.2155,1.3366,-0.4975,-0.6688,-104.7,3.9,-4.35,7.1635,-3.4213,2.6791,0.7011,-1.6542,-2.5191,-79.5,-27.15,-0.45,-4.56,-2.3,-8.39,0.6283,2.4216,-2.2787,48.25,-18.5625,28.75,206.4375,-60.125,160.9375,0
1776973482.3,7.5968,1.8771,-0.2155,1.3366,-0.4975,-0.6688,-105.6,5.55,-2.85,7.4795,-3.3782,2.4708,0.748,-1.7392,-2.634,-79.5,-27.15,-0.45,-5.31,-2.09,-9.18,0.5912,2.6387,-2.2209,48.25,-18.5625,28.75,206.4375,-60.125,160.9375,0
1776973482.307,7.501,1.652,-0.158,1.2865,-0.5601,-0.5574,-105.15,5.55,-2.85,8.1834,-3.4716,2.059,0.7101,-1.8301,-2.7019,-81.15,-25.05,-0.3,-5.68,-1.77,-9.52,0.516,2.8765,-2.0977,48.25,-18.5625,28.75,208.5625,-58.25,159.6875,0
1776973482.312,7.501,1.652,-0.158,1.2865,-0.5601,-0.5574,-105.15,4.65,-4.8,8.1834,-3.4716,2.059,0.7101,-1.8301,-2.7019,-81.15,-25.05,-0.3,-5.68,-1.77,-9.52,0.516,2.8765,-2.0977,48.25,-18.5625,28.75,210.75,-56.1875,158.8125,0
1776973482.321,7.4029,1.5586,-0.5459,1.3344,-0.4612,-0.49,-104.85,4.8,-4.2,8.8897,-3.9528,2.2242,0.6616,-1.9249,-2.7246,-82.2,-24.45,-0.9,-5.94,-1.44,-9.68,0.4429,3.1361,-1.9395,48.25,-18.5625,28.75,210.75,-56.1875,158.8125,0
1776973482.331,7.7357,1.4174,-0.3639,1.3752,-0.4258,-0.4415,-104.85,4.8,-4.2,9.2847,-4.3311,2.2817,0.5494,-2.0478,-2.7408,-82.95,-23.25,-0.45,-5.94,-1.0,-9.71,0.4461,3.4012,-1.7737,48.25,-18.5625,28.75,213.0,-54.125,158.25,0
1776973482.335,7.671,1.3192,-0.5722,1.5266,-0.3914,-0.381,-104.85,4.8,-4.2,9.414,-4.5203,2.1596,0.389,-2.1653,-2.7536,-83.85,-21.45,-2.55,-5.94,-1.0,-9.71,0.4461,3.4012,-1.7737,48.25,-18.5625,28.75,215.5,-51.875,157.875,0
1776973482.341,7.671,1.3192,-0.5722,1.5266,-0.3914,-0.381,-106.35,3.75,-4.5,9.414,-4.5203,2.1596,0.389,-2.1653,-2.7536,-83.85,-21.45,-2.55,-5.8,-1.32,-9.7,0.5367,3.6237,-1.6352,49.1875,-10.875,36.25,215.5,-51.875,157.875,0
1776973482.345,7.6782,0.7997,-0.7063,1.3707,-0.3637,-0.3104,-106.35,3.75,-4.5,9.4499,-4.4867,1.8316,0.2081,-2.2799,-2.7611,-84.45,-20.85,-3.75,-5.8,-1.32,-9.7,0.5367,3.6237,-1.6352,49.1875,-10.875,36.25,218.25,-49.625,157.5,0
1776973482.35,7.6782,0.7997,-0.7063,1.3683,-0.2094,-0.2814,-106.2,2.4,-4.35,9.4499,-4.4867,1.8316,0.2081,-2.2799,-2.7611,-84.45,-20.85,-3.75,-5.78,-1.95,-9.71,0.6752,3.7699,-1.5457,49.1875,-10.875,36.25,218.25,-49.625,157.5,0
1776973482.355,7.513,0.6129,-0.8164,1.3683,-0.2094,-0.2814,-106.2,2.4,-4.35,9.596,-4.2018,1.8052,0.0669,-2.3659,-2.76,-84.45,-20.85,-3.75,-5.78,-1.95,-9.71,0.7767,3.8157,-1.5032,49.1875,-10.875,36.25,221.3125,-47.375,157.0625,0
1776973482.361,7.6854,0.2274,-1.2115,1.133,-0.2606,-0.2531,-106.2,4.2,-3.6,9.596,-4.2018,1.8052,0.0669,-2.3659,-2.76,-84.45,-20.85,-3.75,-5.9,-2.57,-9.79,0.7767,3.8157,-1.5032,49.1875,-10.875,36.25,224.5625,-45.125,156.6875,0
1776973482.371,7.5369,-0.0766,-1.1875,0.9611,-0.3152,-0.238,-106.8,3.0,-5.7,9.7396,-3.9504,1.7071,-0.0869,-2.4459,-2.7512,-85.8,-18.3,-6.6,-6.2,-3.26,-10.12,0.7974,3.7721,-1.5043,49.1875,-10.875,36.25,228.0,-42.875,156.3125,0
1776973482.381,7.6184,-0.0886,-1.312,0.6949,-0.2177,-0.234,-107.85,3.0,-6.75,10.1203,-3.5099,1.7286,-0.1921,-2.525,-2.7579,-87.6,-16.35,-6.9,-6.3,-3.56,-10.29,0.7549,3.6826,-1.5599,49.1875,-10.875,36.25,228.0,-42.875,156.3125,0
1776973482.386,7.6184,-0.0886,-1.312,0.6949,-0.2177,-0.234,-107.85,3.0,-6.75,10.3932,-3.1747,1.7238,-0.2745,-2.5927,-2.7723,-88.35,-13.65,-7.65,-6.3,-3.56,-10.29,0.7549,3.6826,-1.5599,49.1875,-10.875,36.25,228.0,-42.875,156.3125,0
1776973482.391,7.6112,0.2514,-1.2258,0.4572,-0.1124,-0.2385,-107.85,3.0,-6.75,10.3932,-3.1747,1.7238,-0.2745,-2.5927,-2.7723,-88.35,-13.65,-7.65,-6.51,-3.83,-10.54,0.5661,3.4078,-1.7879,45.375,-0.6875,43.75,231.4375,-40.75,155.875,0
1776973482.396,7.6112,0.2514,-1.2258,0.4572,-0.1124,-0.2385,-106.35,2.55,-5.7,10.4794,-2.6336,1.7717,-0.3206,-2.6382,-2.7803,-88.05,-13.65,-9.15,-6.51,-3.83,-10.54,0.5661,3.4078,-1.7879,45.375,-0.6875,43.75,231.4375,-40.75,155.875,0
1776973482.401,7.5753,0.4836,-1.2833,0.1484,-0.1212,-0.2633,-106.35,2.55,-5.7,10.4794,-2.6336,1.7717,-0.3206,-2.6382,-2.7803,-88.05,-13.65,-9.15,-6.92,-4.29,-10.82,0.5661,3.4078,-1.7879,45.375,-0.6875,43.75,180.25,-38.625,155.4375,0
1776973482.407,7.5753,0.4836,-1.2833,0.1484,-0.1212,-0.2633,-106.8,3.0,-3.9,10.5058,-2.1261,1.6089,-0.3456,-2.6569,-2.8027,-88.95,-13.05,-11.25,-7.27,-4.23,-11.1,0.4374,3.2583,-1.8959,45.375,-0.6875,43.75,179.6875,-36.5625,155.0625,0
1776973482.412,5.612,0.3591,-1.5155,-0.1039,-0.0733,-0.2702,-106.8,3.0,-3.9,10.5417,-1.573,1.5538,-0.3208,-2.6854,-2.8069,-88.95,-13.05,-11.25,-7.27,-4.23,-11.1,0.4374,3.2583,-1.8959,45.375,-0.6875,43.75,178.9375,-34.5625,154.6875,0
1776973482.421,8.1738,0.9098,-1.0989,-0.23,-0.0637,-0.2494,-105.75,3.15,-5.85,10.5943,-1.2115,1.4126,-0.3208,-2.6854,-2.8069,-88.95,-11.85,-11.25,-7.7,-4.06,-11.37,0.2553,3.0194,-1.9766,45.375,-0.6875,43.75,178.25,-32.625,154.375,0
1776973482.431,7.5322,1.0175,-1.2929,-0.4466,-0.3568,-0.2286,-106.2,3.15,-4.8,10.6207,-0.9385,1.415,-0.1543,-2.6404,-2.7979,-88.95,-11.85,-11.25,-8.32,-3.85,-11.71,0.2705,2.9801,-1.9362,45.375,-0.6875,43.75,178.25,-32.625,154.375,0
1776973482.436,7.5322,1.0175,-1.2929,-0.4466,-0.3568,-0.2286,-106.2,3.15,-4.8,10.6207,-0.9385,1.415,-0.1543,-2.6404,-2.7979,-89.7,-7.95,-17.1,-8.32,-3.85,-11.71,0.2705,2.9801,-1.9362,45.375,-0.6875,43.75,177.625,-30.6875,154.0625,0
1776973482.441,7.5441,1.2426,-1.4006,-0.728,-0.0938,-0.1684,-106.2,3.15,-4.8,10.9319,-0.9266,1.1995,-0.1175,-2.5908,-2.7731,-89.7,-7.95,-17.1,-8.55,-3.81,-11.82,0.3382,2.9834,-1.849,34.0,9.75,48.1875,177.625,-30.6875,154.0625,0
1776973482.446,7.5441,1.2426,-1.4006,-0.728,-0.0938,-0.1684,-106.8,4.05,-4.95,10.9319,-0.9266,1.1995,-0.1175,-2.5908,-2.7731,-89.7,-7.95,-17.1,-8.55,-3.81,-11.82,0.3382,2.9834,-1.849,34.0,9.75,48.1875,177.125,-28.75,153.75,0
1776973482.451,7.3167,1.6305,-1.2474,-0.9052,-0.0245,-0.1079,-106.8,4.05,-4.95,10.9846,-1.2043,1.0104,-0.0786,-2.5596,-2.743,-89.7,-7.95,-17.1,-8.75,-3.91,-11.82,0.4396,2.9998,-1.7224,34.0,9.75,48.1875,177.125,-28.75,153.75,0
1776973482.458,7.853,2.0327,-1.506,-1.1114,0.0653,-0.0312,-105.45,2.7,-6.45,10.9846,-1.2043,1.0104,-0.0786,-2.5596,-2.743,-88.8,-4.2,-17.7,-8.99,-4.01,-11.85,0.5432,3.0391,-1.585,34.0,9.75,48.1875,176.6875,-26.875,153.4375,0
1776973482.462,7.853,2.0327,-1.506,-1.1114,0.0653,-0.0312,-105.45,2.7,-6.45,11.1522,-1.415,0.7374,-0.0568,-2.5058,-2.707,-88.8,-4.2,-17.7,-8.99,-4.01,-11.85,0.5432,3.0391,-1.585,34.0,9.75,48.1875,176.3125,-25.0,153.125,0
1776973482.471,8.102,2.8036,-1.664,-1.2654,-0.0376,0.0384,-105.3,5.55,-4.5,11.1426,-1.5826,0.4908,-0.1159,-2.4515,-2.6566,-90.45,-3.3,-20.1,-9.32,-4.38,-11.59,0.6185,3.0816,-1.4519,34.0,9.75,48.1875,176.0625,-23.125,152.8125,0
1776973482.481,7.9966,3.4165,-1.9609,-1.3997,-0.0536,0.0906,-105.6,4.8,-5.25,10.9774,-1.5826,0.3735,-0.2185,-2.3856,-2.6025,-90.45,-0.9,-20.85,-9.36,-4.41,-11.38,0.6589,3.1209,-1.3395,34.0,9.75,48.1875,176.0625,-23.125,152.8125,0
1776973482.486,7.9966,3.4165,-1.9609,-1.3262,0.0072,0.1071,-103.65,4.2,-5.85,10.9774,-1.5826,0.3735,-0.2185,-2.3856,-2.6025,-89.85,0.0,-21.75,-9.36,-4.41,-11.38,0.6589,3.1209,-1.3395,34.0,9.75,48.1875,175.875,-21.25,152.5,0
1776973482.491,8.1523,4.2617,-2.1739,-1.3262,0.0072,0.1071,-103.65,4.2,-5.85,10.829,-1.5874,0.4429,-0.3712,-2.3486,-2.5407,-89.85,0.0,-21.75,-9.27,-4.43,-11.15,0.673,3.1318,-1.2632,20.875,12.375,46.1875,175.875,-21.25,152.5,0
1776973482.496,8.0541,5.2864,-2.3966,-1.2161,-0.0277,0.1236,-103.65,4.2,-5.85,10.829,-1.5874,0.4429,-0.3712,-2.3486,-2.5407,-90.6,1.05,-22.2,-9.27,-4.43,-11.15,0.673,3.1318,-1.2632,20.875,12.375,46.1875,175.625,-19.375,152.1875,0
1776973482.501,8.0541,5.2864,-2.3966,-1.2161,-0.0277,0.1236,-103.65,4.2,-5.85,10.6063,-1.5203,0.3855,-0.4263,-2.3086,-2.4802,-90.6,1.05,-22.2,-9.25,-4.58,-10.63,0.66,3.1209,-1.2217,20.875,12.375,46.1875,175.625,-19.375,152.1875,0
1776973482.509,8.0349,6.1268,-2.818,-1.0666,-0.0522,0.1164,-102.9,6.45,-5.1,10.1754,-1.3695,0.4429,-0.5252,-2.287,-2.4019,-88.65,2.4,-24.6,-9.36,-4.65,-10.23,0.6218,3.1001,-1.2174,20.875,12.375,46.1875,175.4375,-17.5625,151.9375,0
1776973482.514,8.0349,6.1268,-2.818,-1.0666,-0.0522,0.1164,-103.5,7.05,-4.95,10.1754,-1.3695,0.4429,-0.5252,-2.287,-2.4019,-88.65,2.4,-24.6,-9.36,-4.65,-10.23,0.6218,3.1001,-1.2174,20.875,12.375,46.1875,175.25,-15.6875,151.6875,0
1776973482.522,8.3629,6.7421,-3.0574,-0.8676,0.02,0.1092,-103.5,7.05,-4.95,9.4044,-0.6943,0.3711,-0.5161,-2.222,-2.3049,-88.65,2.4,-24.6,-9.27,-4.59,-9.67,0.5672,3.0892,-1.2326,20.875,12.375,46.1875,175.0,-13.875,151.4375,0
1776973482.531,8.5305,7.3741,-3.3567,-0.5697,0.0037,0.1745,-103.65,7.95,-6.15,9.0884,0.0359,-0.4884,-0.5939,-2.1043,-2.21,-87.45,3.6,-27.15,-8.76,-4.0,-8.4,0.5269,3.05,-1.2643,20.875,12.375,46.1875,175.0,-13.875,151.4375,0
1776973482.536,8.5162,7.7189,-3.4261,-0.2385,0.0831,0.2324,-103.65,7.2,-5.4,9.1363,0.8404,-0.7685,-0.5939,-2.1043,-2.21,-87.75,6.45,-26.4,-8.76,-4.0,-8.4,0.5269,3.05,-1.2643,20.875,12.375,46.1875,175.0,-13.875,151.4375,0
1776973482.541,8.5162,7.7189,-3.4261,-0.2385,0.0831,0.2324,-103.65,7.2,-5.4,9.1363,0.8404,-0.7685,-0.5425,-1.9582,-2.1037,-87.75,6.45,-26.4,-8.73,-3.84,-7.8,0.5149,2.9398,-1.2905,12.5625,8.0,47.25,174.75,-12.125,151.1875,0
1776973482.546,8.5018,7.5705,-3.5291,0.0938,0.113,0.2694,-103.65,7.2,-5.4,9.0477,1.8004,-1.0319,-0.3512,-1.8229,-1.9902,-86.25,6.45,-28.95,-8.73,-3.84,-7.8,0.5149,2.9398,-1.2905,12.5625,8.0,47.25,174.75,-12.125,151.1875,0
1776973482.551,8.5018,7.5705,-3.5291,0.0938,0.113,0.2694,-103.65,7.2,-5.4,9.0477,1.8004,-1.0319,-0.3512,-1.8229,-1.9902,-86.25,6.45,-28.95,-8.68,-3.61,-7.15,0.5192,2.762,-1.3025,12.5625,8.0,47.25,174.4375,-10.4375,150.9375,0
1776973482.556,8.0732,7.3909,-3.4716,0.4101,0.1031,0.2702,-104.25,6.75,-6.3,8.7628,2.6671,-1.1971,-0.0818,-1.651,-1.853,-85.95,8.4,-29.4,-8.68,-3.61,-7.15,0.5083,2.5285,-1.321,12.5625,8.0,47.25,174.0625,-8.875,150.625,0
1776973482.562,8.0732,7.3909,-3.4716,0.4101,0.1031,0.2702,-104.25,6.75,-6.3,8.7628,2.6671,-1.1971,-0.0818,-1.651,-1.853,-85.95,8.4,-29.4,-8.75,-3.47,-6.53,0.5083,2.5285,-1.321,12.5625,8.0,47.25,173.6875,-7.375,150.375,0
1776973482.571,7.8075,7.1826,-3.304,0.6744,0.0861,0.2809,-103.5,8.55,-4.95,8.3246,2.7869,-1.4102,0.3102,-1.4645,-1.6851,-87.0,9.9,-31.65,-8.68,-3.34,-5.51,0.4461,2.2286,-1.3723,12.5625,8.0,47.25,173.6875,-7.375,150.375,0
1776973482.581,7.7524,7.0461,-3.1723,0.9046,0.1988,0.2939,-103.65,7.95,-5.4,8.0613,2.5474,-1.8364,0.7029,-1.2452,-1.4837,-84.6,9.75,-31.35,-9.09,-3.39,-5.07,0.3076,1.8828,-1.453,12.5625,8.0,47.25,173.125,-6.0625,150.1875,0
1776973482.586,8.0445,6.9456,-3.201,1.2156,0.3563,0.3259,-102.75,6.3,-4.5,7.8913,2.1668,-1.8483,0.9707,-0.9872,-1.2633,-84.6,9.75,-31.35,-9.09,-3.39,-5.07,0.3076,1.8828,-1.453,12.5625,8.0,47.25,172.5,-4.9375,150.125,0
1776973482.591,8.0445,6.9456,-3.201,1.2156,0.3563,0.3259,-102.75,6.3,-4.5,7.8913,2.1668,-1.8483,0.9707,-0.9872,-1.2633,-84.6,9.75,-31.35,-9.65,-3.3,-4.58,0.1047,1.5348,-1.5206,6.5625,7.375,51.375,172.5,-4.9375,150.125,0
1776973482.596,8.667,6.948,-3.4812,1.4842,0.4301,0.3797,-103.65,7.2,-5.1,7.6375,1.5419,-1.7573,1.141,-0.7413,-1.0219,-84.75,10.35,-32.4,-9.65,-3.3,-4.58,0.1047,1.5348,-1.5206,6.5625,7.375,51.375,171.875,-3.9375,150.125,0
1776973482.601,8.667,6.948,-3.4812,1.4842,0.4301,0.3797,-103.65,7.2,-5.1,7.6375,1.5419,-1.7573,1.141,-0.7413,-1.0219,-84.75,10.35,-32.4,-11.05,-1.93,-3.6,-0.0982,1.2261,-1.5359,6.5625,7.375,51.375,171.875,-3.9375,150.125,0
1776973482.609,9.2919,7.2951,-4.0414,1.7736,0.3733,0.4381,-103.65,7.2,-5.1,7.3885,0.996,-1.3958,1.2055,-0.4711,-0.756,-84.75,10.35,-32.4,-11.79,-0.93,-3.08,-0.1963,0.9839,-1.5032,6.5625,7.375,51.375,171.1875,-3.0,150.1875,0
1776973482.614,10.6422,7.4819,-3.8499,2.0123,0.2934,0.4594,-104.55,5.55,-4.95,7.1754,0.2897,-0.4788,1.2393,-0.2116,-0.474,-84.75,10.35,-32.4,-11.79,-0.93,-3.08,-0.1963,0.9839,-1.5032,6.5625,7.375,51.375,170.5,-2.25,150.3125,0
1776973482.622,12.3972,7.4172,-3.0718,1.9057,0.6267,0.5612,-103.8,6.0,-2.85,7.1754,0.2897,-0.4788,1.2393,-0.2116,-0.474,-85.95,11.4,-32.7,-12.24,-0.05,-2.54,-0.1734,0.7876,-1.4334,6.5625,7.375,51.375,169.8125,-1.625,150.3125,0
1776973482.631,11.3964,6.213,-2.4157,2.2495,0.1769,0.6121,-104.4,4.65,-3.6,7.276,-0.2753,0.5531,1.2561,0.0504,-0.186,-85.5,10.65,-33.0,-12.13,0.97,-1.4,-0.0982,0.5672,-1.3254,6.5625,7.375,51.375,169.8125,-1.625,150.3125,0
1776973482.636,11.3964,6.213,-2.4157,2.2495,0.1769,0.6121,-104.4,4.65,-3.6,7.944,-0.0862,1.8076,1.1338,0.2995,0.0719,-84.75,9.45,-31.95,-12.13,0.97,-1.4,-0.0982,0.5672,-1.3254,6.5625,7.375,51.375,169.8125,-1.625,150.3125,0
1776973482.641,11.825,5.9927,-3.1891,2.8032,0.7005,0.4818,-103.95,4.2,-4.8,9.493,0.7326,2.5259,1.1338,0.2995,0.0719,-84.75,9.45,-31.95,-11.46,0.71,-1.45,-0.0665,0.2673,-1.189,2.875,7.0625,53.875,169.1875,-1.1875,150.375,0
1776973482.646,11.825,5.9927,-3.1891,2.8032,0.7005,0.4818,-103.95,4.2,-4.8,9.493,0.7326,2.5259,1.1183,0.5598,0.207,-84.75,9.45,-31.95,-11.46,0.71,-1.45,-0.0665,0.2673,-1.189,2.875,7.0625,53.875,169.1875,-1.1875,150.375,0
1776973482.651,10.8984,5.5617,-2.8611,3.0417,0.1791,0.3136,-103.95,4.2,-4.8,8.1211,0.4693,2.4876,1.1183,0.5598,0.207,-83.7,9.9,-32.4,-12.09,-1.13,-2.06,-0.4036,-0.5607,-0.9152,2.875,7.0625,53.875,168.625,-1.1875,150.5625,0
1776973482.656,10.8984,5.5617,-2.8611,3.0417,0.1791,0.3136,-103.95,4.2,-4.8,8.1211,0.4693,2.4876,0.9102,0.5817,0.4479,-85.2,8.7,-32.4,-12.09,-1.13,-2.06,-0.637,-1.861,-0.2531,2.875,7.0625,53.875,168.1875,-2.0,150.875,0
1776973482.662,9.0381,4.051,-1.834,2.7352,-0.0149,0.0943,-104.85,4.05,-4.5,6.5122,-0.9601,5.2385,1.104,1.1053,0.8399,-85.2,8.7,-30.45,-13.19,0.96,2.04,-0.637,-1.861,-0.2531,2.875,7.0625,53.875,167.875,-3.25,151.1875,0
1776973482.671,8.6526,2.4972,-0.6249,2.0166,0.3048,0.1212,-105.6,4.8,-4.2,8.6431,0.51,5.1499,1.0461,1.4714,1.1021,-85.2,7.95,-30.9,-19.64,3.34,2.39,-0.576,-2.4958,0.0545,2.875,7.0625,53.875,167.875,-3.25,151.1875,0
1776973482.681,10.6734,1.6831,0.0383,1.3539,0.814,0.2574,-105.15,1.65,-4.8,13.0628,2.8898,-1.5706,0.2201,1.3352,1.0112,-85.2,7.95,-30.9,-4.73,2.4,1.0,-0.3611,-2.7074,0.3262,2.875,7.0625,53.875,167.625,-4.625,151.375,0
1776973482.686,10.6734,1.6831,0.0383,1.3539,0.814,0.2574,-105.15,1.65,-4.8,13.0628,2.8898,-1.5706,0.2201,1.3352,1.0112,-85.2,7.95,-30.9,-4.73,2.4,1.0,-0.3611,-2.7074,0.3262,2.875,7.0625,53.875,167.625,-4.625,151.375,0
1776973482.691,11.9973,0.6153,0.1604,0.4711,0.9662,0.3688,-104.55,3.3,-3.45,17.0443,2.6121,-8.7747,-0.696,0.5356,0.6568,-85.35,5.85,-28.05,-0.34,-4.61,-9.29,-0.6196,-3.0663,0.601,2.0625,6.375,55.375,167.5625,-6.3125,151.625,0
1776973482.696,11.9973,0.6153,0.1604,0.4711,0.9662,0.3688,-104.55,3.3,-3.45,17.0443,2.6121,-8.7747,-0.696,0.5356,0.6568,-85.35,5.85,-28.05,-0.34,-4.61,-9.29,-0.6196,-3.0663,0.601,2.0625,6.375,55.375,167.5625,-6.3125,151.625,0
1776973482.701,12.0524,-0.9577,0.2155,-0.3317,0.7927,0.1532,-104.7,2.7,-4.35,12.797,1.2594,-4.9919,0.234,0.6257,0.4684,-84.6,5.85,-26.55,-6.96,-11.25,-12.89,-0.5978,-2.9529,0.9981,2.0625,6.375,55.375,167.6875,-8.0,151.9375,0
1776973482.708,12.0524,-0.9577,0.2155,-0.3317,0.7927,0.1532,-104.7,2.7,-4.35,12.797,1.2594,-4.9919,0.234,0.6257,0.4684,-85.8,5.4,-29.25,-6.09,-0.61,-8.02,-0.7625,-2.3147,1.2752,2.0625,6.375,55.375,168.0,-9.5,152.375,0
1776973482.712,12.4403,-2.3583,-1.1013,-0.6923,0.4533,-0.0442,-104.7,2.7,-4.35,10.3406,-1.3671,-6.4332,0.5756,0.9894,0.5868,-85.8,5.4,-29.25,-6.09,-0.61,-8.02,-0.7625,-2.3147,1.2752,2.0625,6.375,55.375,168.25,-10.9375,152.6875,0
1776973482.722,13.9893,-2.2242,-2.7174,-0.7573,0.6211,-0.1234,-102.15,3.15,-4.8,13.6206,-3.5626,-9.0214,0.1665,0.999,0.765,-86.55,6.15,-28.05,-0.95,1.19,-8.54,-0.6512,-2.3627,1.0941,2.0625,6.375,55.375,168.25,-10.9375,152.6875,0
1776973482.732,16.0196,-1.257,-6.2704,-0.5201,0.6387,0.0237,-102.15,5.7,-5.85,13.9175,-3.3519,-4.4341,0.3043,1.206,0.9145,-87.0,4.05,-28.2,-10.14,-2.33,-15.25,-0.1822,-3.1525,1.0101,2.0625,6.375,55.375,168.375,-12.75,152.75,0
1776973482.736,16.0196,-1.257,-6.2704,-0.5201,0.6387,0.0237,-102.15,5.7,-5.85,13.9175,-3.3519,-4.4341,0.3043,1.206,0.9145,-87.0,4.05,-28.2,-10.14,-2.33,-15.25,-0.1822,-3.1525,1.0101,2.0625,6.375,55.375,168.625,-14.5625,152.75,0
1776973482.742,16.2471,-0.1413,-10.2807,0.542,0.4269,0.2182,-100.35,5.4,-7.2,13.2088,-3.0909,-2.9568,0.206,1.4109,1.0864,-86.85,4.2,-27.3,-12.47,-0.62,-15.6,-0.084,-3.1601,1.1683,10.875,3.6875,56.5,168.625,-14.5625,152.75,0
1776973482.746,16.2471,-0.1413,-10.2807,0.542,0.4269,0.2182,-100.35,5.4,-7.2,13.2088,-3.0909,-2.9568,0.206,1.4109,1.0864,-86.85,4.2,-27.3,-12.47,-0.62,-15.6,-0.084,-3.1601,1.1683,10.875,3.6875,56.5,169.0,-16.125,152.8125,0
1776973482.752,14.1976,0.8643,-12.809,1.7296,-0.2822,0.223,-98.7,5.25,-8.1,12.8401,-2.5833,1.5131,-0.2489,1.5266,1.1367,-86.85,4.2,-27.3,-10.0,-1.88,-14.69,-0.1724,-2.5318,1.2686,10.875,3.6875,56.5,169.0,-16.125,152.8125,0
1776973482.756,14.1976,0.8643,-12.809,1.7296,-0.2822,0.223,-98.7,5.25,-8.1,12.8401,-2.5833,1.5131,-0.2489,1.5266,1.1367,-86.85,4.2,-27.3,-10.0,-1.88,-14.69,-0.2629,-2.1293,1.2359,10.875,3.6875,56.5,169.375,-17.5,153.0,0
1776973482.762,9.7468,2.5714,-10.3214,1.1197,-0.9878,-0.2182,-98.7,5.25,-8.1,11.4132,-0.917,4.3048,-0.7671,1.6073,1.1338,-87.45,2.85,-26.1,-10.47,-6.9,-13.87,-0.2629,-2.1293,1.2359,10.875,3.6875,56.5,169.6875,-18.5625,153.25,0
1776973482.772,3.3136,-1.1349,1.5778,-0.4197,-0.5822,0.1148,-97.65,6.0,-9.15,10.0868,1.889,3.3232,-0.9745,1.4946,1.1437,-87.45,2.85,-26.1,-6.22,-5.11,-9.17,-0.4189,-1.6057,1.0657,10.875,3.6875,56.5,169.9375,-19.375,153.5,0
1776973482.782,6.7086,-4.13,9.5385,-0.3014,0.5084,0.1943,-98.7,6.75,-9.9,9.3925,3.1412,1.6496,-0.7496,1.3246,1.1365,-88.05,3.0,-25.05,-5.2,-2.29,-10.06,-0.3883,-1.2621,0.805,10.875,3.6875,56.5,169.9375,-19.375,153.5,0
1776973482.787,7.0964,-2.8204,10.1418,-0.9348,1.154,-0.1857,-98.7,6.75,-9.9,8.2839,3.4405,1.4557,-0.2185,1.1834,1.0507,-88.05,3.0,-25.05,-5.2,-2.29,-10.06,-0.3883,-1.2621,0.805,10.875,3.6875,56.5,169.9375,-19.375,153.5,0
1776973482.792,7.0964,-2.8204,10.1418,-0.9348,1.154,-0.1857,-98.4,7.5,-6.75,8.2839,3.4405,1.4557,-0.2185,1.1834,1.0507,-87.75,2.1,-23.1,-5.35,-4.45,-8.93,-0.2945,-1.069,0.6992,18.25,1.0625,54.875,170.1875,-20.125,153.6875,0
1776973482.797,6.1507,-3.5602,8.9328,-2.2271,0.9822,-0.0869,-98.4,7.5,-6.75,7.6902,2.7198,1.8914,0.1911,1.0557,0.8988,-87.75,2.1,-23.1,-5.35,-4.45,-8.93,-0.2945,-1.069,0.6992,18.25,1.0625,54.875,170.1875,-20.125,153.6875,0
1776973482.802,6.1507,-3.5602,8.9328,-2.2271,0.9822,-0.0869,-99.15,5.55,-7.35,7.6902,2.7198,1.8914,0.1911,1.0557,0.8988,-88.65,1.35,-21.9,-3.55,-5.0,-7.76,-0.3109,-0.9261,0.6305,18.25,1.0625,54.875,170.375,-20.75,153.9375,0
1776973482.81,6.0789,-4.4125,5.7772,-2.8098,0.6968,0.0703,-98.25,6.9,-7.2,8.181,0.1939,3.2896,0.3925,1.0253,0.7746,-88.2,-0.15,-21.15,-4.73,-2.97,-8.88,-0.3731,-0.9828,0.5956,18.25,1.0625,54.875,170.5625,-21.375,154.125,0
1776973482.815,6.9839,-1.8483,2.6791,-2.5282,0.3989,0.368,-98.25,6.9,-7.2,9.9,-1.8459,2.7677,0.2801,1.0222,0.7981,-88.2,-0.15,-21.15,-4.73,-2.97,-8.88,-0.3731,-0.9828,0.5956,18.25,1.0625,54.875,170.6875,-21.9375,154.375,0
1776973482.822,6.9839,-1.8483,2.6791,-2.5282,0.3989,0.368,-98.25,6.9,-7.2,9.9,-1.8459,2.7677,0.2801,1.0222,0.7981,-89.7,1.35,-21.15,-5.14,-3.77,-8.81,-0.3534,-0.8759,0.5443,18.25,1.0625,54.875,170.875,-22.375,154.5625,0
1776973482.832,8.4611,3.2346,2.6647,-2.0382,0.6025,0.6656,-97.8,4.2,-6.45,11.1498,-2.727,1.7693,-0.0104,0.9769,0.8383,-88.8,0.0,-21.0,-4.49,-4.21,-8.46,-0.2989,-0.6894,0.456,18.25,1.0625,54.875,170.875,-22.375,154.5625,0
1776973482.837,10.7619,7.2113,2.2984,-1.8346,0.5785,0.8079,-97.8,4.2,-6.45,11.3629,-2.9233,1.324,-0.2646,0.9118,0.8191,-88.8,0.0,-21.0,-4.49,-4.21,-8.46,-0.2989,-0.6894,0.456,22.5,-1.375,54.5,171.0,-22.75,154.75,0
1776973482.842,10.7619,7.2113,2.2984,-1.8346,0.5785,0.8079,-98.55,4.2,-5.1,11.3629,-2.9233,1.324,-0.2646,0.9118,0.8191,-88.8,0.0,-21.0,-4.44,-3.31,-8.87,-0.3065,-0.5269,0.396,22.5,-1.375,54.5,171.0,-22.75,154.75,0
1776973482.847,11.1594,8.7245,1.4246,-1.2553,0.377,0.8487,-98.55,4.2,-5.1,10.4914,-2.3176,1.6831,-0.5308,0.8324,0.7773,-88.8,0.0,-21.0,-4.44,-3.31,-8.87,-0.3065,-0.5269,0.396,22.5,-1.375,54.5,171.0625,-23.0625,154.9375,0
1776973482.852,11.1594,8.7245,1.4246,-1.2553,0.377,0.8487,-97.95,4.5,-4.5,10.4914,-2.3176,1.6831,-0.5308,0.8324,0.7773,-89.55,-0.75,-21.0,-4.62,-3.5,-8.86,-0.2847,-0.4363,0.348,22.5,-1.375,54.5,171.0625,-23.0625,154.9375,0
1776973482.858,10.568,7.2472,0.8882,-0.2675,0.372,0.8015,-98.85,4.95,-5.85,9.9838,-1.4222,1.3455,-0.8599,0.8279,0.7562,-89.55,-0.75,-21.0,-4.63,-3.84,-8.65,-0.2138,-0.3534,0.2902,22.5,-1.375,54.5,171.1875,-23.3125,155.125,0
1776973482.863,9.7181,4.3718,0.5602,0.5971,0.4983,0.7613,-98.85,4.95,-5.85,10.0509,-0.6584,1.0295,-1.1021,0.8346,0.7743,-88.65,-0.9,-19.8,-4.63,-3.84,-8.65,-0.2138,-0.3534,0.2902,22.5,-1.375,54.5,171.25,-23.5,155.1875,0
1776973482.872,9.7181,4.3718,0.5602,0.5971,0.4983,0.7613,-98.85,4.95,-5.85,10.0509,0.4717,0.4597,-1.1021,0.8346,0.7743,-89.85,-0.75,-19.5,-4.35,-3.16,-8.8,-0.1516,-0.276,0.2302,22.5,-1.375,54.5,171.3125,-23.625,155.3125,0
1776973482.882,9.4619,1.6424,0.2322,0.9806,0.7157,0.7522,-99.9,6.3,-4.95,9.7492,1.1684,0.2729,-1.2055,0.8138,0.7951,-89.1,-0.75,-19.5,-4.14,-3.19,-8.73,-0.1058,-0.2018,0.1822,22.5,-1.375,54.5,171.3125,-23.625,155.3125,0
1776973482.887,9.6606,0.3711,0.1724,0.9896,0.6683,0.7461,-99.9,6.3,-4.95,9.7492,1.1684,0.2729,-1.1618,0.7762,0.7666,-89.1,-0.75,-19.5,-4.14,-3.19,-8.73,-0.1058,-0.2018,0.1822,22.5,-1.375,54.5,171.375,-23.75,155.3125,0
1776973482.892,9.6606,0.3711,0.1724,0.9896,0.6683,0.7461,-102.15,9.45,-4.8,9.6774,1.7957,0.1628,-1.1618,0.7762,0.7666,-88.35,-1.05,-17.7,-4.27,-3.29,-8.72,-0.0785,-0.1734,0.1418,24.375,-3.25,52.875,171.375,-23.75,155.3125,0
1776973482.897,9.098,0.2274,0.249,0.8644,0.6419,0.732,-102.15,9.45,-4.8,9.6774,1.7957,0.1628,-0.9065,0.7394,0.7067,-88.35,-1.05,-17.7,-4.27,-3.29,-8.72,-0.0785,-0.1734,0.1418,24.375,-3.25,52.875,171.375,-23.8125,155.375,0
1776973482.902,9.098,0.2274,0.249,0.6915,0.676,0.7317,-103.8,11.25,-4.95,9.5409,2.1739,-0.182,-0.6496,0.6779,0.6323,-91.2,-2.4,-18.6,-3.43,-3.63,-8.12,-0.0676,-0.1407,0.1047,24.375,-3.25,52.875,171.375,-23.8125,155.375,0
1776973482.909,8.6072,0.3783,0.2634,0.6915,0.676,0.7317,-103.8,13.05,-5.7,9.5409,2.1739,-0.182,-0.6496,0.6779,0.6323,-91.2,-2.4,-18.6,-3.18,-3.66,-7.98,-0.0665,-0.1593,0.1091,24.375,-3.25,52.875,171.4375,-23.9375,155.4375,0
1776973482.914,8.5736,-0.0311,-0.2993,0.4522,0.7472,0.7373,-103.8,13.05,-5.7,9.3948,2.3296,-0.6393,-0.2443,0.636,0.5713,-91.2,-2.4,-18.6,-3.18,-3.66,-7.98,-0.0665,-0.1593,0.1091,24.375,-3.25,52.875,171.4375,-24.125,155.5,0
1776973482.922,9.2871,0.905,-0.2227,0.234,0.9329,0.7293,-103.5,15.0,-4.2,9.5217,1.9872,-0.261,0.218,0.6291,0.5431,-89.1,-2.25,-16.95,-3.65,-3.53,-8.21,-0.0905,-0.2487,0.1364,24.375,-3.25,52.875,171.5,-24.3125,155.5625,0
1776973482.932,9.1913,1.9776,0.838,0.5817,0.753,0.7349,-103.5,15.0,-4.2,9.8138,1.3455,0.261,0.3786,0.6118,0.5372,-89.1,-2.25,-16.95,-3.96,-3.52,-8.31,-0.0873,-0.2956,0.1418,24.375,-3.25,52.875,171.5,-24.3125,155.5625,0
1776973482.937,9.1913,1.9776,0.838,0.5817,0.753,0.7349,-105.45,16.65,-5.1,9.8138,1.3455,0.261,0.3786,0.6118,0.5372,-89.1,-2.25,-16.95,-3.96,-3.52,-8.31,-0.0873,-0.2956,0.1418,24.375,-3.25,52.875,171.5,-24.3125,155.5625,0
1776973482.942,8.9232,2.727,0.5842,0.4903,0.7234,0.7565,-105.45,16.65,-5.1,9.5816,0.4214,0.7853,0.3136,0.6209,0.5404,-89.4,-3.3,-18.6,-3.73,-3.61,-8.1,-0.0807,-0.2891,0.1385,24.6875,-3.25,52.875,171.5625,-24.4375,155.5625,0
1776973482.947,8.9232,2.727,0.5842,0.4903,0.7234,0.7565,-107.1,16.8,-3.45,9.5816,0.4214,0.7853,0.3136,0.6209,0.5404,-89.4,-3.3,-18.6,-3.73,-3.61,-8.1,-0.0807,-0.2891,0.1385,24.6875,-3.25,52.875,171.5625,-24.4375,155.5625,0
1776973482.952,9.2153,2.5163,0.9649,0.4261,0.6696,0.7392,-107.1,16.8,-3.45,9.5792,-0.3328,1.1516,0.1159,0.6222,0.5646,-90.15,-4.5,-16.05,-3.79,-3.83,-8.03,-0.0938,-0.3109,0.1473,24.6875,-3.25,52.875,171.5625,-24.625,155.625,0
1776973482.957,9.2153,2.5163,0.9649,0.4261,0.6696,0.7392,-108.3,19.2,-2.25,9.5792,-0.3328,1.1516,0.1159,0.6222,0.5646,-90.15,-4.5,-16.05,-3.79,-3.83,-8.03,-0.0993,-0.3294,0.156,24.6875,-3.25,52.875,171.625,-24.875,155.6875,0
1776973482.963,9.1219,1.5371,0.5986,0.2475,0.7101,0.7088,-108.3,19.2,-2.25,10.0317,-0.4812,1.2977,-0.1519,0.586,0.5929,-90.9,-3.3,-16.05,-4.02,-3.56,-8.14,-0.0993,-0.3294,0.156,24.6875,-3.25,52.875,171.6875,-25.0625,155.75,0
1776973482.972,8.928,0.5028,0.9194,0.0576,0.7064,0.6957,-110.25,18.9,-2.55,9.5265,-0.3783,1.075,-0.3331,0.5561,0.6041,-90.15,-5.25,-15.3,-4.16,-4.4,-7.71,-0.1025,-0.3098,0.1887,24.6875,-3.25,52.875,171.6875,-25.0625,155.75,0
1776973482.982,9.6343,0.1221,0.8859,-0.1162,0.6182,0.6877,-110.25,18.9,-2.55,9.4451,-0.0479,1.1372,-0.3981,0.5641,0.6305,-88.8,-4.95,-14.7,-4.06,-3.71,-7.97,-0.1484,-0.2629,0.2236,24.6875,-3.25,52.875,171.75,-25.25,155.875,0
1776973482.987,9.6343,0.1221,0.8859,-0.1162,0.6182,0.6877,-113.25,16.5,-0.3,9.4451,-0.0479,1.1372,-0.3981,0.5641,0.6305,-88.8,-4.95,-14.7,-4.06,-3.71,-7.97,-0.1484,-0.2629,0.2236,24.6875,-3.25,52.875,171.8125,-25.4375,156.0,0
1776973482.992,9.2368,0.0192,0.7709,-0.2963,0.6315,0.6891,-113.25,16.5,-0.3,9.584,0.146,0.6632,-0.4988,0.5566,0.6502,-89.55,-4.65,-16.2,-4.44,-3.54,-8.13,-0.2073,-0.2662,0.2509,25.5,-3.6875,52.0625,171.8125,-25.4375,156.0,0
1776973482.997,9.2368,0.0192,0.7709,-0.2963,0.6315,0.6891,-113.7,15.3,-0.3,9.7588,0.4908,0.51,-0.4988,0.5566,0.6502,-89.55,-4.65,-16.2,-4.44,-3.54,-8.13,-0.2073,-0.2662,0.2509,25.5,-3.6875,52.0625,171.8125,-25.4375,156.0,0
1776973483.002,9.3709,0.0048,0.656,-0.5564,0.6611,0.7269,-113.7,15.3,-0.3,9.7588,0.4908,0.51,-0.5292,0.5412,0.6611,-89.55,-4.65,-16.2,-4.16,-3.42,-8.17,-0.2389,-0.2269,0.2345,25.5,-3.6875,52.0625,171.875,-25.625,156.1875,0
1776973483.008,9.3709,0.0048,0.656,-0.7831,0.5596,0.773,-112.95,13.05,0.6,9.7516,0.7614,0.3304,-0.4485,0.5217,0.6478,-89.55,-4.65,-16.2,-4.22,-3.41,-8.23,-0.2662,-0.2138,0.2149,25.5,-3.6875,52.0625,171.9375,-25.75,156.375,0
1776973483.013,9.73,0.419,0.1604,-0.7831,0.5596,0.773,-112.95,13.05,0.6,9.7516,0.7614,0.3304,-0.4485,0.5217,0.6478,-89.7,-5.25,-15.6,-4.22,-3.41,-8.23,-0.2662,-0.2138,0.2149,25.5,-3.6875,52.0625,172.0,-25.9375,156.5625,0
1776973483.022,9.4954,1.2594,-0.0479,-0.8055,0.6502,0.842,-111.75,10.05,1.05,9.5696,0.8882,0.5459,-0.2435,0.5164,0.6408,-91.5,-5.4,-15.9,-4.33,-3.32,-8.25,-0.2825,-0.2083,0.2083,25.5,-3.6875,52.0625,172.0,-25.9375,156.5625,0
1776973483.032,11.485,1.6233,-0.5052,-0.8431,0.5119,0.8676,-112.2,7.05,1.05,9.8378,0.7973,0.6823,-0.1085,0.5332,0.627,-89.85,-5.4,-15.45,-4.33,-3.24,-8.23,-0.2902,-0.1876,0.1931,25.5,-3.6875,52.0625,172.0625,-26.0625,156.75,0
1776973483.037,11.485,1.6233,-0.5052,-0.8431,0.5119,0.8676,-112.2,7.05,1.05,9.6678,0.4645,1.0175,0.0021,0.5127,0.5977,-89.85,-5.4,-15.45,-4.33,-3.24,-8.23,-0.2902,-0.1876,0.1931,25.5,-3.6875,52.0625,172.125,-26.1875,156.9375,0
1776973483.042,10.2424,1.6927,0.1317,-0.8759,0.4823,0.8671,-112.2,7.05,1.05,9.6678,0.4645,1.0175,0.0021,0.5127,0.5977,-89.7,-6.0,-15.6,-4.19,-3.4,-8.14,-0.288,-0.1865,0.1844,26.1875,-4.6875,52.1875,172.125,-26.1875,156.9375,0
1776973483.047,10.2424,1.6927,0.1317,-0.9579,0.5713,0.8607,-109.8,1.95,0.45,9.6031,0.0694,1.2402,0.0866,0.5252,0.6019,-89.7,-6.0,-15.6,-4.19,-3.4,-8.14,-0.288,-0.1865,0.1844,26.1875,-4.6875,52.1875,172.125,-26.3125,157.125,0
1776973483.052,9.0668,1.7813,0.6273,-0.9579,0.5713,0.8607,-109.8,1.95,0.45,9.6031,0.0694,1.2402,0.0866,0.5252,0.6019,-90.3,-6.9,-14.7,-4.28,-3.38,-8.17,-0.2858,-0.1844,0.1876,26.1875,-4.6875,52.1875,172.125,-26.3125,157.125,0
1776973483.198,9.3422,0.3496,0.2658,-0.2798,0.7376,0.5391,-103.35,-14.4,6.45,9.3158,0.5363,0.68,-0.0477,0.6739,0.8487,-90.15,-10.35,-11.55,-4.24,-3.26,-8.15,-0.2356,-0.0654,0.1473,27.25,-7.1875,51.75,172.875,-27.25,159.6875,0
1776973483.203,9.5265,0.2705,-0.0168,-0.3866,0.712,0.5287,-103.95,-16.95,6.9,9.6247,-0.0072,0.7254,-0.1418,0.7131,0.8839,-88.8,-10.05,-11.1,-4.32,-3.07,-8.34,-0.2422,-0.0709,0.1593,27.25,-7.1875,51.75,172.875,-27.25,159.6875,0
1776973483.208,9.5265,0.2705,-0.0168,-0.3866,0.712,0.5287,-103.95,-16.95,6.9,9.9575,-0.4094,0.9697,-0.1418,0.7131,0.8839,-88.8,-10.05,-11.1,-4.32,-3.07,-8.34,-0.2302,-0.0764,0.1658,27.25,-7.1875,51.75,172.9375,-27.25,159.875,0
1776973483.214,9.6367,0.0982,-0.103,-0.4748,0.6989,0.51,-103.8,-15.75,7.05,9.9575,-0.4094,0.9697,-0.2539,0.7354,0.9206,-89.55,-12.9,-10.35,-4.18,-3.13,-8.33,-0.2302,-0.0764,0.1658,27.25,-7.1875,51.75,172.9375,-27.25,159.875,0
1776973483.222,9.8282,0.0886,0.3328,-0.6105,0.6805,0.4842,-103.5,-16.5,8.55,9.8641,-0.2825,1.0487,-0.3653,0.7282,0.9457,-89.4,-9.9,-10.5,-4.13,-3.26,-8.31,-0.2138,-0.0927,0.1789,27.25,-7.1875,51.75,172.9375,-27.3125,160.0,0
1776973483.227,9.8282,0.0886,0.3328,-0.6105,0.6805,0.4842,-103.5,-16.5,8.55,9.8641,-0.2825,1.0487,-0.3653,0.7282,0.9457,-89.4,-9.9,-10.5,-4.13,-3.26,-8.31,-0.2029,-0.1167,0.2018,27.25,-7.1875,51.75,173.0,-27.375,160.125,0
1776973483.234,10.1179,0.2107,0.8619,-0.7418,0.6773,0.4706,-102.6,-17.7,7.95,9.9599,-0.5674,1.2929,-0.4543,0.7418,0.9755,-89.4,-9.9,-10.5,-4.25,-3.08,-8.38,-0.2029,-0.1167,0.2018,27.25,-7.1875,51.75,173.0,-27.375,160.125,0
1776973483.239,10.1179,0.2107,0.8619,-0.7418,0.6773,0.4706,-102.6,-17.7,7.95,10.3645,-0.723,1.6376,-0.4956,0.7434,0.9838,-89.4,-9.9,-10.5,-4.25,-3.08,-8.38,-0.2029,-0.1167,0.2018,28.0625,-8.25,51.75,173.25,-27.5,160.3125,0
1776973483.244,10.1442,0.3663,1.2881,-0.8753,0.6976,0.474,-101.4,-16.95,6.45,10.3645,-0.723,1.6376,-0.4956,0.7434,0.9838,-88.2,-12.3,-10.5,-4.38,-2.95,-8.43,-0.18,-0.1374,0.2138,28.0625,-8.25,51.75,173.25,-27.5,160.3125,0
1776973483.248,10.1442,0.3663,1.2881,-0.8753,0.6976,0.474,-101.4,-16.95,6.45,10.319,-0.8332,1.5251,-0.4751,0.765,1.0056,-88.2,-12.3,-10.5,-4.38,-2.95,-8.43,-0.18,-0.1374,0.2138,28.0625,-8.25,51.75,173.375,-27.5625,160.4375,0
1776973483.254,9.7085,0.3136,1.4916,-1.084,0.7069,0.4818,-101.4,-16.95,6.45,10.319,-0.8332,1.5251,-0.4751,0.765,1.0056,-88.2,-12.3,-10.5,-4.38,-3.01,-8.56,-0.1647,-0.1374,0.2171,28.0625,-8.25,51.75,173.375,-27.5625,160.4375,0
1776973483.258,9.7085,0.3136,1.4916,-1.084,0.7069,0.4818,-101.4,-16.95,6.45,10.2208,-1.4509,1.7238,-0.4594,0.7642,1.052,-88.2,-12.3,-10.5,-4.38,-3.01,-8.56,-0.1385,-0.1571,0.2247,28.0625,-8.25,51.75,173.4375,-27.6875,160.5625,0
1776973483.264,9.3589,0.4693,1.6017,-1.2375,0.7232,0.5057,-101.1,-17.7,7.95,10.2208,-1.4509,1.7238,-0.4594,0.7642,1.052,-88.8,-15.15,-9.9,-4.6,-2.52,-8.77,-0.1385,-0.1571,0.2247,28.0625,-8.25,51.75,173.5625,-27.8125,160.625,0
1776973483.273,9.8569,0.8452,1.415,-1.3472,0.7178,0.5542,-101.7,-16.8,8.55,10.4004,-1.0175,1.2857,-0.5348,0.7442,1.0834,-88.65,-15.45,-9.9,-3.66,-2.73,-9.3,-0.0829,-0.1724,0.2247,28.0625,-8.25,51.75,173.5625,-27.8125,160.625,0
1776973483.283,9.8809,1.1229,1.0989,-1.3907,0.6051,0.5708,-101.1,-16.95,9.3,10.5082,-0.8643,0.7422,-0.6352,0.708,1.1439,-88.05,-14.4,-6.9,-3.98,-1.58,-9.82,-0.0567,-0.2269,0.2073,28.0625,-8.25,51.75,173.625,-28.0,160.6875,0
1776973483.288,9.8809,1.1229,1.0989,-1.3907,0.6051,0.5708,-101.1,-16.95,9.3,9.9623,0.2753,0.5387,-0.5428,0.6987,1.2343,-88.05,-14.4,-6.9,-3.98,-1.58,-9.82,-0.0567,-0.2269,0.2073,28.0625,-8.25,51.75,173.625,-28.0,160.6875,0
1776973483.293,9.9048,1.5945,0.5818,-1.3808,0.5377,0.5564,-99.9,-18.0,8.85,9.9623,0.2753,0.5387,-0.5428,0.6987,1.2343,-88.05,-14.4,-6.9,-4.89,-2.65,-8.47,0.0033,-0.3327,0.1604,28.375,-9.0625,51.375,173.8125,-28.1875,160.75,0
1776973483.298,9.9048,1.5945,0.5818,-1.3808,0.5377,0.5564,-99.9,-18.0,8.85,9.9982,1.4461,0.4693,-0.4722,0.7442,1.2638,-87.75,-15.45,-9.75,-4.89,-2.65,-8.47,0.0033,-0.3327,0.1604,28.375,-9.0625,51.375,173.8125,-28.1875,160.75,0
1776973483.303,10.2951,1.8196,-0.0359,-1.2396,0.4226,0.5119,-99.9,-18.0,8.85,9.9982,1.4461,0.4693,-0.4722,0.7442,1.2638,-87.6,-18.0,-7.35,-3.87,-2.9,-9.11,0.0742,-0.4036,0.156,28.375,-9.0625,51.375,173.875,-28.4375,160.6875,0
1776973483.307,10.2951,1.8196,-0.0359,-1.2396,0.4226,0.5119,-99.9,-18.0,8.85,10.4794,1.2115,0.656,-0.4162,0.8263,1.3478,-87.6,-18.0,-7.35,-3.87,-2.9,-9.11,0.1364,-0.5072,0.1778,28.375,-9.0625,51.375,173.9375,-28.75,160.625,0
1776973483.314,10.4651,2.1117,-0.2322,-1.0528,0.3128,0.4463,-99.9,-18.0,8.85,10.4794,1.2115,0.656,-0.4162,0.8263,1.3478,-87.3,-15.9,-7.35,-4.06,-2.65,-9.31,0.1364,-0.5072,0.1778,28.375,-9.0625,51.375,174.0,-29.125,160.5,0
1776973483.323,10.9152,2.7916,0.1939,-0.947,0.2601,0.3813,-101.7,-19.5,9.15,10.9152,0.9816,0.2155,-0.2465,0.8697,1.4554,-87.3,-15.9,-7.35,-3.79,-2.95,-9.41,0.1985,-0.6578,0.2083,28.375,-9.0625,51.375,174.0,-29.125,160.5,0
1776973483.333,11.1259,3.7972,0.1101,-0.8103,0.2489,0.3107,-99.15,-17.55,9.15,11.3198,0.0646,-0.5507,-0.2846,0.9182,1.5444,-87.3,-15.9,-7.35,-3.79,-3.05,-9.4,0.2454,-0.8094,0.2345,28.375,-9.0625,51.375,174.125,-29.5625,160.3125,0
1776973483.338,10.9798,4.7285,-0.1365,-0.7663,0.1671,0.2196,-99.15,-17.55,9.15,11.3198,0.0646,-0.5507,-0.307,0.9832,1.6529,-86.25,-18.45,-6.0,-3.79,-3.05,-9.4,0.2454,-0.8094,0.2345,28.375,-9.0625,51.375,174.3125,-30.125,160.1875,0
1776973483.343,10.9798,4.7285,-0.1365,-0.7663,0.1671,0.2196,-101.25,-19.5,9.15,11.5951,0.2634,-0.7925,-0.307,0.9832,1.6529,-86.25,-18.45,-6.0,-3.71,-2.97,-9.68,0.2869,-0.9665,0.2683,28.375,-9.375,50.25,174.3125,-30.125,160.1875,0
1776973483.348,10.7691,5.2385,-0.17,-0.7938,0.1005,0.118,-101.25,-19.5,9.15,11.5951,0.2634,-0.7925,-0.3472,1.0096,1.7784,-85.95,-19.65,-7.95,-3.71,-2.97,-9.68,0.2869,-0.9665,0.2683,28.375,-9.375,50.25,174.4375,-30.8125,159.9375,0
1776973483.353,10.7691,5.2385,-0.17,-0.7938,0.1005,0.118,-102.3,-19.5,9.9,11.9135,1.0223,-0.3208,-0.3472,1.0096,1.7784,-85.95,-19.65,-7.95,-3.57,-3.04,-9.84,0.3087,-1.1956,0.3152,28.375,-9.375,50.25,174.4375,-30.8125,159.9375,0
1776973483.358,10.999,5.8251,0.0718,-0.8199,0.016,0.0083,-102.3,-19.5,9.9,11.9135,1.0223,-0.3208,-0.3443,1.0504,1.91,-86.85,-19.5,-7.35,-3.57,-3.04,-9.84,0.2978,-1.5206,0.4069,28.375,-9.375,50.25,174.5625,-31.6875,159.75,0
1776973483.364,10.999,5.8251,0.0718,-0.8199,0.016,0.0083,-102.3,-19.5,9.9,12.797,2.0231,-0.6105,-0.3008,1.0666,2.0486,-86.55,-20.25,-5.85,-3.6,-2.72,-10.05,0.2978,-1.5206,0.4069,28.375,-9.375,50.25,174.6875,-32.75,159.5,0
1776973483.373,11.5329,6.4404,0.1963,-0.7213,-0.0613,-0.1159,-100.8,-18.15,9.75,13.6517,2.0901,-1.1037,-0.2284,1.1032,2.1743,-86.55,-20.25,-5.85,-3.17,-2.66,-10.95,0.276,-1.885,0.5181,28.375,-9.375,50.25,174.6875,-32.75,159.5,0
1776973483.383,12.3756,6.8091,-0.2753,-0.5236,-0.1927,-0.2356,-103.05,-19.5,10.2,14.382,1.3312,-2.6935,-0.1756,1.1679,2.3118,-85.05,-23.85,-5.1,-3.19,-2.83,-10.79,0.3022,-2.2897,0.6436,28.375,-9.375,50.25,174.875,-34.125,159.3125,0
1776973483.388,12.4977,7.1443,-1.3719,-0.2337,-0.3874,-0.3643,-103.05,-19.5,10.2,14.382,1.3312,-2.6935,-0.1756,1.1679,2.3118,-85.35,-23.85,-5.55,-3.19,-2.83,-10.79,0.3022,-2.2897,0.6436,28.375,-9.375,50.25,175.25,-35.625,158.9375,0
1776973483.393,12.4977,7.1443,-1.3719,-0.2337,-0.3874,-0.3643,-104.55,-19.5,10.65,15.1912,0.5004,-3.0574,-0.2081,1.2468,2.4413,-85.35,-23.85,-5.55,-2.72,-3.18,-11.06,0.4701,-2.678,0.8301,30.1875,-9.375,49.5,175.25,-35.625,158.9375,0
1776973483.398,11.7076,7.6327,-2.6145,0.2046,-0.6265,-0.5031,-104.55,-19.5,10.65,15.1912,0.5004,-3.0574,-0.2081,1.2468,2.4413,-85.35,-23.85,-5.55,-2.72,-3.18,-11.06,0.4701,-2.678,0.8301,30.1875,-9.375,49.5,175.6875,-37.5,158.5625,0
1776973483.403,11.7076,7.6327,-2.6145,0.2046,-0.6265,-0.5031,-105.6,-21.75,10.65,15.5743,2.0734,-3.8403,-0.2185,1.3049,2.6319,-85.35,-23.85,-5.55,-2.18,-4.38,-11.11,0.6087,-3.1285,1.1039,30.1875,-9.375,49.5,175.6875,-37.5,158.5625,0
1776973483.408,10.6877,7.5346,-2.9832,0.6411,-0.7226,-0.684,-105.6,-21.75,10.65,15.5743,2.0734,-3.8403,-0.2185,1.3049,2.6319,-82.95,-26.7,-3.75,-2.18,-4.38,-11.11,0.6621,-3.6685,1.4039,30.1875,-9.375,49.5,176.25,-39.6875,158.1875,0
1776973483.414,10.6877,7.5346,-2.9832,0.6411,-0.7226,-0.684,-105.6,-21.75,10.65,16.8935,2.9449,-5.2888,-0.5676,1.323,2.8221,-82.95,-26.7,-3.75,-2.09,-3.19,-11.52,0.6621,-3.6685,1.4039,30.1875,-9.375,49.5,222.125,-42.1875,157.8125,0
1776973483.423,9.9096,7.7596,-2.648,0.9252,-0.725,-0.8855,-105.6,-21.75,10.65,16.7474,3.8834,-5.1547,-0.7282,1.3011,2.93,-82.95,-26.7,-3.75,-1.59,-3.04,-11.98,0.7079,-4.167,1.6984,30.1875,-9.375,49.5,222.125,-42.1875,157.8125,0
1776973483.433,9.979,7.2401,-1.8364,1.1522,-0.8482,-1.0206,-108.3,-21.45,9.0,16.4218,4.4412,-3.4907,-0.6302,1.3025,2.9953,-80.55,-29.55,-1.95,-1.57,-4.19,-11.68,0.7199,-4.7146,2.0224,30.1875,-9.375,49.5,219.6875,-45.0,157.4375,0
1776973483.438,11.3988,5.3079,-1.4365,1.5039,-1.4277,-1.1293,-110.55,-19.2,9.0,16.4218,4.4412,-3.4907,-0.6302,1.3025,2.9953,-79.65,-30.45,-2.1,-1.57,-4.19,-11.68,0.7199,-4.7146,2.0224,30.1875,-9.375,49.5,219.6875,-45.0,157.4375,0
1776973483.443,11.3988,5.3079,-1.4365,1.5039,-1.4277,-1.1293,-110.55,-19.2,9.0,15.9885,4.1827,-2.2098,-0.4383,1.2406,2.9844,-79.65,-30.45,-2.1,-3.17,-5.6,-11.83,0.6861,-5.4694,2.3955,35.6875,-8.25,47.5,216.9375,-48.3125,157.125,0
1776973483.448,11.1546,4.4269,1.3288,2.5263,-1.4893,-1.3917,-110.4,-20.25,7.8,15.9885,4.1827,-2.2098,-0.4383,1.2406,2.9844,-78.0,-31.05,-2.7,-3.17,-5.6,-11.83,0.6861,-5.4694,2.3955,35.6875,-8.25,47.5,216.9375,-48.3125,157.125,0
1776973483.452,11.1546,4.4269,1.3288,2.5263,-1.4893,-1.3917,-110.4,-20.25,7.8,14.6669,3.4069,-0.0958,-0.2217,1.2121,2.9023,-78.0,-31.05,-2.7,-6.22,-6.61,-12.76,0.5705,-6.4054,2.7543,35.6875,-8.25,47.5,213.8125,-52.1875,156.8125,0
1776973483.457,11.6023,2.9975,-0.2418,2.3491,-1.603,-1.5076,-109.5,-18.15,7.2,14.6669,3.4069,-0.0958,-0.2217,1.2121,2.9023,-76.5,-34.5,-1.65,-6.22,-6.61,-12.76,0.5705,-6.4054,2.7543,35.6875,-8.25,47.5,210.625,-56.5625,156.4375,0
1776973483.464,13.1633,1.4605,1.087,2.1013,-1.865,-1.5777,-109.5,-18.15,7.2,12.9526,2.4612,3.6631,0.1154,1.2662,2.7406,-76.5,-34.5,-1.65,-10.95,-7.03,-13.92,0.5007,-7.2998,3.014,35.6875,-8.25,47.5,207.6875,-61.25,155.8125,0
1776973483.473,14.0013,0.2945,2.8898,2.0022,-1.8013,-1.7086,-109.5,-18.15,7.2,12.2607,1.2809,6.0669,0.5993,1.2574,2.5564,-77.4,-32.85,-1.05,-16.95,-6.98,-14.57,0.5487,-7.8376,3.0761,35.6875,-8.25,47.5,207.6875,-61.25,155.8125,0
1776973483.483,14.5089,-0.3424,4.4269,1.6723,-1.6843,-1.8554,-106.05,-18.0,6.0,12.5911,0.079,7.853,1.1892,1.2638,2.4205,-74.85,-34.5,0.45,-18.07,-7.28,-15.39,0.5552,-7.8202,3.0609,35.6875,-8.25,47.5,205.125,-65.875,155.0,0
1776973483.488,14.5089,-0.3424,4.4269,1.6723,-1.6843,-1.8554,-104.7,-18.45,4.35,13.3836,-1.3934,6.8163,1.4914,1.3939,2.3699,-74.85,-34.5,0.45,-18.07,-7.28,-15.39,0.5552,-7.8202,3.0609,35.6875,-8.25,47.5,203.0,-70.25,153.875,0
1776973483.493,14.6765,-1.5897,5.193,1.0203,-1.591,-1.9825,-104.7,-18.45,4.35,13.3836,-1.3934,6.8163,1.4914,1.3939,2.3699,-74.85,-34.5,0.45,-17.4,-8.71,-15.48,0.673,-7.4133,2.918,45.5625,-11.25,37.25,203.0,-70.25,153.875,0
1776973483.498,14.6765,-1.5897,5.193,1.0203,-1.591,-1.9825,-103.8,-15.3,3.45,13.8505,-3.3088,5.9137,1.9838,1.4517,2.3076,-72.45,-37.05,2.55,-17.4,-8.71,-15.48,0.673,-7.4133,2.918,45.5625,-11.25,37.25,201.3125,-74.3125,152.375,0
1776973483.503,14.8536,-1.6065,5.102,0.1372,-1.3323,-1.9897,-103.8,-15.3,3.45,13.8505,-3.3088,5.9137,1.9838,1.4517,2.3076,-72.45,-37.05,2.55,-12.08,-9.56,-14.48,0.7407,-6.7784,2.75,45.5625,-11.25,37.25,201.3125,-74.3125,152.375,0
1776973483.51,14.8536,-1.6065,5.102,0.1372,-1.3323,-1.9897,-100.2,-15.0,2.4,13.2735,-4.0917,7.1682,2.5479,1.457,2.1863,-72.45,-37.95,4.05,-2.91,-10.76,-12.69,0.6774,-6.2286,2.7696,45.5625,-11.25,37.25,199.75,-78.0625,150.8125,0
1776973483.514,14.868,-1.7693,4.8842,-0.4956,-1.0789,-1.926,-100.2,-15.0,2.4,13.2735,-4.0917,7.1682,2.5479,1.457,2.1863,-72.45,-37.95,4.05,-2.91,-10.76,-12.69,0.6774,-6.2286,2.7696,45.5625,-11.25,37.25,198.125,-81.625,149.625,0
1776973483.524,14.0228,-1.6041,4.3144,-0.4295,-1.068,-1.8508,-100.2,-15.0,2.4,11.5855,-3.5865,7.2472,2.8786,1.2327,2.0171,-71.7,-37.05,4.35,-0.29,-10.83,-10.55,0.4592,-5.7018,2.9125,45.5625,-11.25,37.25,198.125,-81.625,149.625,0
1776973483.534,13.0723,-1.1947,4.0079,-0.2286,-1.21,-1.8285,-100.2,-15.0,2.4,9.3972,-3.9576,7.5537,2.7574,0.8623,1.8093,-70.05,-36.9,5.7,1.43,-5.21,-10.6,-0.024,-5.428,2.966,45.5625,-11.25,37.25,196.25,-85.0625,177.375,0
1776973483.538,13.0723,-1.1947,4.0079,-0.2286,-1.21,-1.8285,-96.15,-10.05,0.6,6.8666,-5.9161,9.845,2.885,0.3864,1.6779,-68.25,-38.25,7.65,1.43,-5.21,-10.6,-0.024,-5.428,2.966,45.5625,-11.25,37.25,196.25,-85.0625,177.375,0
1776973483.543,12.1458,-0.723,4.7405,-0.2627,-1.436,-1.8317,-96.15,-10.05,0.6,6.8666,-5.9161,9.845,2.885,0.3864,1.6779,-68.25,-38.25,7.65,-21.51,-13.93,-12.97,-0.4592,-4.8498,2.9954,55.0625,-15.5625,20.875,194.25,-88.1875,179.0625,0
1776973483.548,12.1458,-0.723,4.7405,-0.2627,-1.436,-1.8317,-95.7,-8.7,-0.15,6.0837,-5.6503,12.9263,3.088,0.1045,1.5828,-67.35,-37.65,9.3,-21.51,-13.93,-12.97,-0.4592,-4.8498,2.9954,55.0625,-15.5625,20.875,194.25,-88.1875,179.0625,0
1776973483.553,11.1809,0.237,4.8435,-0.2918,-1.5985,-1.8596,-95.7,-8.7,-0.15,6.0837,-5.6503,12.9263,3.088,0.1045,1.5828,-67.35,-37.65,9.3,-7.72,-13.82,-12.25,-0.3403,-2.2133,2.0606,55.0625,-15.5625,20.875,192.875,-89.5625,-179.6875,0
1776973483.558,11.1809,0.237,4.8435,-0.2918,-1.5985,-1.8596,-94.8,-9.0,-1.05,4.4053,-4.0031,10.9918,2.691,-0.1159,1.363,-67.35,-37.65,9.3,-7.72,-13.82,-12.25,-0.5967,0.4658,0.8345,55.0625,-15.5625,20.875,192.125,-89.0625,-179.25,0
1776973483.564,9.8833,1.8651,4.2497,-0.0597,-1.3888,-1.8932,-94.8,-9.0,-1.05,3.96,-1.6592,7.9152,2.691,-0.1159,1.363,-67.35,-37.65,9.3,-5.0,-15.22,-12.37,-0.5967,0.4658,0.8345,55.0625,-15.5625,20.875,191.125,-88.1875,-179.125,0
1776973483.574,8.9902,3.4213,3.7924,0.0533,-1.2881,-1.9494,-93.6,-6.0,-2.4,3.9361,-0.7901,5.2816,1.8098,-0.6113,0.9537,-65.4,-35.7,11.25,-0.09,-11.6,-7.0,-1.6046,1.874,0.1396,55.0625,-15.5625,20.875,191.125,-88.1875,-179.125,0
1776973483.584,9.3637,4.8076,4.0366,0.2918,-1.0163,-1.9865,-93.6,-6.0,-2.4,3.9265,-1.1229,4.1515,0.9212,-0.9689,0.4258,-65.4,-35.7,11.25,1.65,-7.83,-4.68,-2.714,2.5067,0.0545,55.0625,-15.5625,20.875,189.5,-86.875,-179.0625,0
1776973483.588,9.3637,4.8076,4.0366,0.2918,-1.0163,-1.9865,-96.45,-4.95,-1.5,3.9265,-1.1229,4.1515,0.5105,-1.2441,-0.0245,-67.65,-34.2,10.8,1.65,-7.83,-4.68,-2.714,2.5067,0.0545,55.0625,-15.5625,20.875,189.5,-86.875,-179.0625,0
1776973483.594,9.177,5.545,3.3303,0.5204,-0.7357,-1.9857,-96.45,-4.95,-1.5,3.6416,-2.0327,4.5969,0.5564,-1.4642,-0.2819,-67.65,-34.2,10.8,1.82,-4.07,-3.61,-3.3968,2.6954,0.1647,56.875,-20.0625,11.0,187.375,-85.4375,-178.875,0
1776973483.598,9.177,5.545,3.3303,0.7389,-0.5846,-1.9612,-96.45,-3.15,-1.5,3.6416,-2.0327,4.5969,0.5564,-1.4642,-0.2819,-66.9,-36.45,11.55,1.82,-4.07,-3.61,-3.3968,2.6954,0.1647,56.875,-20.0625,11.0,187.375,-85.4375,-178.875,0
1776973483.603,9.3302,5.4971,2.9712,0.7389,-0.5846,-1.9612,-96.45,-3.15,-1.5,3.5027,-2.909,6.1699,0.7701,-1.6603,-0.4461,-66.9,-36.45,11.55,1.81,-1.83,-3.18,-3.4088,2.7707,0.1287,56.875,-20.0625,11.0,185.1875,-83.9375,-178.625,0
1776973483.611,9.56,4.8937,1.968,1.0261,-0.3086,-1.9566,-98.55,-2.4,-1.95,3.5027,-2.909,6.1699,0.7701,-1.6603,-0.4461,-67.65,-34.5,8.7,1.89,-1.36,-2.68,-2.9463,2.8362,-0.0644,56.875,-20.0625,11.0,183.3125,-82.375,-168.4375,0
1776973483.616,9.56,4.8937,1.968,1.0261,-0.3086,-1.9566,-99.6,-1.95,-0.15,3.5506,-2.7725,7.5824,0.9054,-1.918,-0.5729,-65.55,-33.15,9.15,1.89,-1.36,-2.68,-2.9463,2.8362,-0.0644,56.875,-20.0625,11.0,182.0,-80.875,-170.25,0
1776973483.624,10.2711,1.5275,-1.4198,0.9132,-0.1783,-1.9321,-99.6,-1.95,-0.15,3.7804,-2.4972,7.0342,0.7128,-2.2775,-0.6792,-65.55,-33.15,9.15,1.91,-2.38,-2.5,-2.3017,2.8645,-0.2989,56.875,-20.0625,11.0,181.0625,-79.3125,-172.375,0
1776973483.634,7.5896,0.9481,3.7972,-0.2659,-0.8905,-1.9521,-99.6,-1.95,-0.15,3.8259,-1.9704,6.8498,0.5982,-2.6257,-0.753,-67.95,-32.4,9.6,1.54,-3.53,-2.71,-1.7421,2.8831,-0.5323,56.875,-20.0625,11.0,181.0625,-79.3125,-172.375,0
1776973483.639,7.7117,4.367,7.1658,2.4,-0.118,-1.8546,-99.6,-1.95,-0.15,3.8259,-1.9704,6.8498,0.5982,-2.6257,-0.753,-68.7,-33.15,8.4,1.54,-3.53,-2.71,-1.7421,2.8831,-0.5323,55.375,-19.25,16.875,180.5625,-77.75,-174.6875,0
1776973483.644,7.7117,4.367,7.1658,2.4,-0.118,-1.8546,-99.6,-1.95,-0.15,3.6919,-1.2977,6.541,0.6153,-2.9356,-0.8274,-68.7,-33.15,8.4,-0.59,-6.73,-3.58,-1.3592,2.9158,-0.7909,55.375,-19.25,16.875,180.5625,-77.75,-174.6875,0
1776973483.649,7.7093,4.6208,4.6615,2.0014,0.1442,-1.591,-103.5,1.05,-0.3,3.6919,-1.2977,6.541,0.6153,-2.9356,-0.8274,-68.7,-33.15,8.4,-0.59,-6.73,-3.58,-1.3592,2.9158,-0.7909,55.375,-19.25,16.875,180.3125,-76.125,-177.1875,0
1776973483.654,7.7093,4.6208,4.6615,2.0014,0.1442,-1.591,-103.5,1.05,-0.3,3.6152,-1.5131,6.3446,0.7293,-3.1389,-0.9635,-68.7,-33.15,8.4,-1.86,-8.2,-4.06,-1.2228,2.9976,-1.1225,55.375,-19.25,16.875,180.3125,-76.125,-177.1875,0
1776973483.659,7.865,4.5849,3.9887,2.1671,0.2486,-1.4677,-105.15,1.65,0.75,3.6152,-1.5131,6.3446,0.7293,-3.1389,-0.9635,-68.85,-31.8,7.5,-1.86,-8.2,-4.06,-1.3243,3.1558,-1.5283,55.375,-19.25,16.875,180.1875,-74.4375,-179.875,0
1776973483.664,7.865,4.5849,3.9887,2.1671,0.2486,-1.4677,-104.25,0.75,2.1,3.4213,-1.7957,6.5362,0.9574,-3.3036,-1.1309,-68.85,-31.8,7.5,-3.18,-9.18,-4.44,-1.3243,3.1558,-1.5283,55.375,-19.25,16.875,180.125,-72.5,177.3125,0
1776973483.674,7.9464,3.7972,3.5099,2.1821,0.4082,-1.3608,-106.05,1.05,1.65,3.3375,-2.0734,6.1746,1.1255,-3.3684,-1.3105,-71.7,-31.65,6.6,-4.39,-9.87,-4.53,-1.6133,3.3892,-2.0148,55.375,-19.25,16.875,180.0625,-70.375,174.75,0
1776973483.684,8.4683,2.9209,2.8826,2.2335,0.3027,-1.2257,-106.05,1.05,1.65,3.5841,-2.49,5.6479,1.2561,-3.4272,-1.5031,-72.45,-29.7,6.9,-4.66,-9.4,-4.49,-1.9755,3.6532,-2.5013,55.375,-19.25,16.875,180.0625,-70.375,174.75,0
1776973483.689,8.4156,2.0423,2.7677,2.3824,0.141,-1.0757,-106.05,1.05,1.65,4.0223,-2.308,4.5801,1.2561,-3.4272,-1.5031,-71.1,-27.9,5.7,-4.66,-9.4,-4.49,-1.9755,3.6532,-2.5013,55.375,-19.25,16.875,180.0625,-70.375,174.75,0
1776973483.694,8.4156,2.0423,2.7677,2.3824,0.141,-1.0757,-104.55,2.25,3.15,4.0223,-2.308,4.5801,1.3392,-3.504,-1.6582,-71.1,-27.9,5.7,-4.81,-8.73,-4.36,-2.2809,3.8735,-2.9431,51.1875,-17.5,24.25,180.0,-68.0625,172.3125,0
1776973483.699,8.1163,2.1069,3.5841,3.1986,-0.0767,-0.8684,-104.55,2.25,3.15,4.8578,-2.5283,5.0135,1.3392,-3.504,-1.6582,-72.6,-27.9,5.25,-4.81,-8.73,-4.36,-2.2809,3.8735,-2.9431,51.1875,-17.5,24.25,180.0,-68.0625,172.3125,0
1776973483.704,8.1163,2.1069,3.5841,3.1986,-0.0767,-0.8684,-106.8,3.75,1.65,4.8578,-2.5283,5.0135,1.295,-3.5543,-1.8005,-72.6,-27.9,5.25,-4.99,-8.01,-4.1,-2.4467,4.0263,-3.3085,51.1875,-17.5,24.25,180.0,-65.625,170.25,0
1776973483.711,7.1251,2.2434,3.7062,3.6191,-0.1905,-0.655,-106.8,3.75,1.65,5.8059,-2.1644,6.2369,1.3147,-3.6711,-1.9319,-74.55,-26.4,4.95,-5.6,-6.3,-4.27,-2.4467,4.1037,-3.5594,51.1875,-17.5,24.25,180.1875,-63.0,168.4375,0
1776973483.716,7.0773,1.3072,3.3615,3.9897,-0.1756,-0.4932,-108.15,3.75,1.65,5.8059,-2.1644,6.2369,1.3147,-3.6711,-1.9319,-74.55,-26.4,4.95,-5.6,-6.3,-4.27,-2.4467,4.1037,-3.5594,51.1875,-17.5,24.25,180.5625,-60.3125,166.875,0
1776973483.724,7.0773,1.3072,3.3615,4.2842,0.0176,-0.3858,-107.7,3.15,1.5,6.5003,-2.2625,5.6048,1.2843,-3.7688,-2.1032,-74.55,-26.4,4.95,-5.85,-5.54,-4.83,-2.2635,4.1266,-3.6946,51.1875,-17.5,24.25,181.4375,-57.625,165.5,0
1776973483.734,6.2153,-0.5531,2.5905,4.1656,0.4165,-0.3086,-107.7,3.15,1.5,7.197,-1.8244,5.5713,1.3238,-3.9098,-2.2663,-74.4,-24.6,2.55,-6.27,-5.61,-5.28,-1.8882,4.119,-3.7317,51.1875,-17.5,24.25,181.4375,-57.625,165.5,0
1776973483.739,6.2153,-0.5531,2.5905,4.1656,0.4165,-0.3086,-107.7,3.15,1.5,7.446,-1.8411,5.6383,1.3704,-4.0153,-2.461,-74.4,-24.6,2.55,-6.27,-5.61,-5.28,-1.8882,4.119,-3.7317,51.1875,-17.5,24.25,181.4375,-57.625,165.5,0
1776973483.744,7.1994,-1.5969,2.2505,3.8983,0.6142,-0.291,-107.7,3.15,1.5,7.446,-1.8411,5.6383,1.3704,-4.0153,-2.461,-74.4,-24.6,2.55,-7.16,-6.99,-5.88,-1.453,4.0993,-3.675,44.375,-10.5,30.375,182.75,-54.875,164.25,0
1776973483.749,7.1994,-1.5969,2.2505,3.8983,0.6142,-0.291,-107.7,3.15,1.5,7.3885,-1.5323,5.849,1.4719,-4.0486,-2.6697,-76.95,-22.95,1.35,-7.16,-6.99,-5.88,-1.453,4.0993,-3.675,44.375,-10.5,30.375,182.75,-54.875,164.25,0
1776973483.754,7.5346,-2.648,1.5227,3.5373,0.6662,-0.2955,-113.25,3.75,2.85,7.3885,-1.5323,5.849,1.4719,-4.0486,-2.6697,-76.95,-22.95,1.35,-7.38,-7.44,-6.09,-1.1312,4.0819,-3.5299,44.375,-10.5,30.375,184.375,-52.1875,163.1875,0
1776973483.759,7.5346,-2.648,1.5227,3.5373,0.6662,-0.2955,-113.25,3.75,2.85,7.7764,-1.6305,5.5737,1.6182,-4.0524,-2.861,-76.2,-22.2,-0.3,-7.38,-7.44,-6.09,-0.9425,4.047,-3.339,44.375,-10.5,30.375,186.3125,-49.5,162.3125,0
1776973483.765,8.1882,-3.5458,1.3695,3.0537,0.5812,-0.307,-112.95,4.5,5.7,7.7764,-1.6305,5.5737,1.6182,-4.0524,-2.861,-76.2,-22.2,-0.3,-7.59,-7.84,-6.21,-0.9425,4.047,-3.339,44.375,-10.5,30.375,188.25,-46.875,161.75,0
1776973483.774,7.2425,-3.7733,0.8308,2.3763,0.4453,-0.2694,-114.6,5.4,5.85,8.9352,-2.3511,4.8315,1.6609,-3.9908,-2.9628,-78.15,-21.45,-1.35,-8.7,-8.25,-7.06,-0.8574,3.951,-3.1089,44.375,-10.5,30.375,188.25,-46.875,161.75,0
1776973483.784,7.4316,-4.0797,0.5722,1.7317,0.4802,-0.2166,-114.75,4.05,7.05,9.9623,-3.2848,4.1396,1.7794,-3.8901,-2.9375,-78.15,-18.3,-3.3,-9.98,-8.4,-7.95,-0.7745,3.7677,-2.8602,44.375,-10.5,30.375,190.3125,-44.375,161.3125,0
1776973483.789,7.4316,-4.0797,0.5722,1.7317,0.4802,-0.2166,-114.75,4.05,7.05,10.6446,-3.8642,4.0917,1.8802,-3.7859,-2.8309,-78.75,-19.35,-4.2,-9.98,-8.4,-7.95,-0.7745,3.7677,-2.8602,44.375,-10.5,30.375,192.5625,-42.0,160.9375,0
1776973483.794,7.4555,-3.2585,0.1772,1.2737,0.4303,-0.2012,-114.75,4.05,7.05,10.6446,-3.8642,4.0917,1.8802,-3.7859,-2.8309,-78.75,-19.35,-4.2,-11.37,-8.72,-8.83,-0.6087,3.5768,-2.6791,36.0,-3.5,33.1875,192.5625,-42.0,160.9375,0
1776973483.799,7.4555,-3.2585,0.1772,1.2737,0.4303,-0.2012,-114.75,4.05,7.05,11.078,-4.7118,4.5705,1.7579,-3.7374,-2.7552,-79.35,-18.0,-4.05,-11.37,-8.72,-8.83,-0.6087,3.5768,-2.6791,36.0,-3.5,33.1875,192.5625,-42.0,160.9375,0
1776973483.804,7.094,-3.5434,-0.5866,0.8569,0.4892,-0.2326,-114.0,3.3,7.8,11.078,-4.7118,4.5705,1.7579,-3.7374,-2.7552,-79.35,-18.0,-4.05,-12.63,-9.16,-9.67,-0.3622,3.495,-2.6354,36.0,-3.5,33.1875,151.5,-39.6875,160.5,0
1776973483.809,7.094,-3.5434,-0.5866,0.8569,0.4892,-0.2326,-114.0,3.3,7.8,11.0421,-5.0853,4.8842,1.3326,-3.7374,-2.7579,-79.35,-18.0,-4.05,-12.63,-9.16,-9.67,-0.1102,3.5485,-2.7445,36.0,-3.5,33.1875,150.25,-37.3125,159.9375,0
1776973483.815,6.6511,-3.1747,-1.0798,0.5622,0.4263,-0.1729,-115.05,2.25,7.05,10.8122,-5.4061,4.9919,0.7701,-3.6873,-2.8301,-79.35,-18.0,-4.05,-13.16,-10.33,-10.11,-0.1102,3.5485,-2.7445,36.0,-3.5,33.1875,149.0,-34.875,159.3125,0
1776973483.824,6.5649,-2.4756,-1.6089,0.344,0.4639,-0.0333,-112.65,2.4,7.95,10.8026,-5.5186,4.5993,0.2617,-3.6276,-2.9537,-79.65,-14.85,-5.55,-12.59,-10.56,-10.02,0.0349,3.6554,-2.918,36.0,-3.5,33.1875,149.0,-34.875,159.3125,0
1776973483.834,6.9097,-1.7717,-2.1332,0.1162,0.5239,0.1372,-112.95,0.3,9.6,10.9415,-4.8387,4.7549,0.0053,-3.5394,-3.0747,-79.65,-14.85,-6.9,-12.32,-10.29,-10.01,0.0567,3.6925,-3.0412,36.0,-3.5,33.1875,147.625,-32.375,158.75,0
1776973483.839,6.9097,-1.7717,-2.1332,0.1162,0.5239,0.1372,-112.95,0.3,9.6,10.9415,-4.8387,4.7549,0.0053,-3.5394,-3.0747,-80.85,-12.45,-8.1,-12.32,-10.29,-10.01,0.0567,3.6925,-3.0412,36.0,-3.5,33.1875,146.3125,-29.875,158.1875,0
1776973483.844,7.5513,-0.7614,-2.5714,-0.2534,0.6328,0.315,-112.95,0.3,9.6,10.659,-3.8092,4.0199,-0.1945,-3.4571,-3.1709,-80.85,-12.45,-8.1,-12.71,-9.16,-10.33,0.0382,3.6456,-3.0783,25.75,-2.25,33.1875,146.3125,-29.875,158.1875,0
1776973483.849,7.5513,-0.7614,-2.5714,-0.2534,0.6328,0.315,-112.95,0.3,9.6,10.659,-3.8092,4.0199,-0.1945,-3.4571,-3.1709,-81.75,-10.65,-9.75,-12.71,-9.16,-10.33,0.0382,3.6456,-3.0783,25.75,-2.25,33.1875,146.3125,-29.875,158.1875,0
1776973483.854,8.3246,0.3855,-2.7318,-0.4988,0.5212,0.4855,-112.95,0.3,9.6,10.5872,-2.9233,3.3208,-0.4026,-3.3718,-3.277,-81.75,-10.65,-9.75,-13.37,-8.38,-10.53,0.0644,3.5899,-3.0325,25.75,-2.25,33.1875,145.0,-27.375,157.6875,0
1776973483.859,8.3246,0.3855,-2.7318,-0.4988,0.5212,0.4855,-112.95,0.3,9.6,10.5872,-2.9233,3.3208,-0.4026,-3.3718,-3.277,-83.1,-9.75,-10.35,-13.37,-8.38,-10.53,0.1963,3.5856,-2.9485,25.75,-2.25,33.1875,143.75,-24.9375,157.25,0
1776973483.865,8.7987,1.4102,-2.8683,-0.684,0.5252,0.6011,-108.6,-1.5,9.15,9.9503,-2.1811,2.9329,-0.5697,-3.2213,-3.3657,-83.1,-9.75,-10.35,-14.07,-8.14,-10.48,0.1963,3.5856,-2.9485,25.75,-2.25,33.1875,142.625,-22.4375,156.75,0
1776973483.874,8.6143,2.7461,-3.4141,-0.5636,0.3352,0.6835,-107.85,-0.75,7.8,10.058,-1.5514,2.8395,-0.6869,-3.0555,-3.3811,-82.95,-7.5,-13.8,-14.63,-8.11,-10.11,0.4047,3.6401,-2.834,25.75,-2.25,33.1875,142.625,-22.4375,156.75,0
1776973483.884,8.8226,3.45,-4.5562,-0.4479,0.429,0.7378,-105.75,-0.9,7.95,9.821,-1.3312,2.4325,-0.8727,-2.7653,-3.3305,-82.95,-7.5,-13.8,-16.07,-7.59,-9.1,0.6163,3.7274,-2.6769,25.75,-2.25,33.1875,141.625,-19.9375,156.1875,0
1776973483.889,9.1243,4.6687,-5.794,0.037,0.4175,0.8236,-105.75,-0.9,7.95,9.821,-1.3312,2.4325,-0.8727,-2.7653,-3.3305,-81.15,-4.65,-15.45,-16.07,-7.59,-9.1,0.6163,3.7274,-2.6769,25.75,-2.25,33.1875,141.625,-19.9375,156.1875,0
1776973483.894,9.1243,4.6687,-5.794,0.037,0.4175,0.8236,-105.6,-0.75,7.05,9.7636,-1.4533,2.0686,-0.9803,-2.4576,-3.2298,-81.15,-4.65,-15.45,-16.56,-7.09,-8.3,0.8192,3.8386,-2.5067,22.5625,-5.6875,32.875,140.75,-17.4375,155.5625,0
1776973483.899,11.1881,6.4141,-6.45,0.5977,0.6992,0.8743,-105.6,-0.75,7.05,9.7636,-1.4533,2.0686,-0.9803,-2.4576,-3.2298,-81.15,-4.65,-15.45,-16.56,-7.09,-8.3,0.8192,3.8386,-2.5067,22.5625,-5.6875,32.875,140.75,-17.4375,155.5625,0
1776973483.904,11.1881,6.4141,-6.45,0.5977,0.6992,0.8743,-105.6,-0.75,7.05,9.6798,-1.7286,2.217,-0.9142,-2.1314,-3.0752,-81.15,-4.65,-15.45,-16.8,-6.46,-7.42,1.0123,3.951,-2.3387,22.5625,-5.6875,32.875,140.0,-14.9375,154.9375,0
1776973483.911,9.7037,7.3358,-6.8115,1.1357,0.4389,0.841,-105.3,0.0,7.35,9.3182,-1.8076,1.98,-0.9025,-1.7858,-2.8919,-82.35,-1.5,-18.75,-16.86,-4.46,-5.32,1.1868,4.0263,-2.1609,22.5625,-5.6875,32.875,139.375,-12.375,154.25,0
1776973483.916,9.7037,7.3358,-6.8115,1.1357,0.4389,0.841,-105.3,0.0,7.35,9.3182,-1.8076,1.98,-0.9025,-1.7858,-2.8919,-82.35,-1.5,-18.75,-16.86,-4.46,-5.32,1.1868,4.0263,-2.1609,22.5625,-5.6875,32.875,138.875,-9.875,153.5,0
1776973483.924,12.2966,8.6455,-6.3829,1.6859,0.2904,0.7837,-104.85,1.8,8.85,9.0932,-1.5706,1.9944,-0.9481,-1.4333,-2.6785,-82.35,0.3,-19.95,-16.7,-3.33,-4.02,1.3592,4.0186,-1.9897,22.5625,-5.6875,32.875,138.4375,-7.5,152.625,0
1776973483.934,11.1809,8.746,-4.0127,1.8341,0.2827,0.6334,-107.7,0.45,8.7,8.8322,-0.8667,2.0063,-0.9723,-1.0925,-2.4285,-82.2,0.45,-19.8,-16.83,-2.0,-2.74,1.5457,3.879,-1.8042,22.5625,-5.6875,32.875,138.4375,-7.5,152.625,0
1776973483.939,10.5656,8.7987,-1.6544,1.521,0.1268,0.4724,-106.2,1.65,7.95,8.3486,0.5507,1.7621,-0.9814,-0.7053,-2.0478,-81.3,1.35,-20.55,-16.83,-2.0,-2.74,1.5457,3.879,-1.8042,24.1875,-2.6875,39.6875,138.125,-5.375,151.6875,0
1776973483.945,10.5656,8.7987,-1.6544,1.521,0.1268,0.4724,-106.2,1.65,7.95,8.3486,0.5507,1.7621,-0.9814,-0.7053,-2.0478,-81.3,1.35,-20.55,-17.73,0.68,-0.03,1.777,3.555,-1.5981,24.1875,-2.6875,39.6875,138.125,-5.375,151.6875,0
1776973483.949,9.8282,8.2504,0.1413,0.9894,0.3379,0.2609,-106.2,1.65,7.95,7.829,1.7214,1.3503,-1.0376,-0.3408,-1.5431,-81.3,1.35,-20.55,-17.73,0.68,-0.03,1.777,3.555,-1.5981,24.1875,-2.6875,39.6875,137.8125,-3.5,150.5625,0
1776973483.954,9.8282,8.2504,0.1413,0.9894,0.3379,0.2609,-106.2,1.65,7.95,7.829,1.7214,1.3503,-1.0376,-0.3408,-1.5431,-81.3,1.35,-20.55,-18.59,2.18,1.09,2.0737,3.087,-1.4028,24.1875,-2.6875,39.6875,137.8125,-3.5,150.5625,0
1776973483.96,9.742,8.4467,0.2011,0.6518,0.4612,0.0027,-106.2,1.65,7.95,6.9863,2.66,0.9194,-0.8727,0.0565,-0.9523,-81.75,4.8,-20.1,-19.34,3.01,2.2,2.4271,2.4838,-1.249,24.1875,-2.6875,39.6875,137.5625,-1.9375,149.1875,0
1776973483.965,9.742,8.4467,0.2011,0.6518,0.4612,0.0027,-106.2,1.65,7.95,6.9863,2.66,0.9194,-0.8727,0.0565,-0.9523,-81.75,4.8,-20.1,-19.34,3.01,2.2,2.4271,2.4838,-1.249,24.1875,-2.6875,39.6875,137.1875,-0.75,147.6875,0
1776973483.974,9.7564,8.327,-1.5107,0.3389,0.8484,-0.202,-106.2,5.7,10.8,6.1866,3.0382,0.7566,-0.5558,0.5004,-0.3757,-81.75,4.8,-20.1,-19.94,2.6,3.32,2.7031,1.8064,-1.1956,24.1875,-2.6875,39.6875,136.6875,0.0625,146.1875,0
1776973483.985,10.5417,8.5162,-2.7797,-0.0325,0.9542,-0.2422,-104.85,6.75,9.15,8.2863,3.3279,1.3144,-0.1196,0.8908,0.0405,-81.9,4.95,-19.95,-17.79,-9.1,3.93,2.6834,1.0559,-1.189,24.1875,-2.6875,39.6875,136.6875,0.0625,146.1875,0
1776973483.989,9.7995,8.8083,-3.2657,-0.2686,0.8138,-0.3826,-104.25,5.25,10.65,8.0732,2.162,0.7039,0.5716,1.0643,0.477,-81.9,4.95,-19.95,-17.79,-9.1,3.93,2.6834,1.0559,-1.189,24.1875,-2.6875,39.6875,136.6875,0.0625,146.1875,0
1776973483.994,9.7995,8.8083,-3.2657,-0.2686,0.8138,-0.3826,-104.25,5.25,10.65,8.0732,2.162,0.7039,0.5716,1.0643,0.477,-82.65,3.9,-20.7,-19.26,-6.17,8.35,1.0897,-0.6916,-1.1966,18.1875,7.5,51.0,135.9375,0.125,145.625,0
1776973483.999,8.1714,7.9966,-2.6983,-0.3019,0.6688,-0.4287,-103.95,4.65,11.1,7.3933,0.3543,3.7781,1.7531,1.4767,0.9609,-82.65,3.9,-20.7,-19.26,-6.17,8.35,1.0897,-0.6916,-1.1966,18.1875,7.5,51.0,135.9375,0.125,145.625,0
1776973484.004,8.1714,7.9966,-2.6983,-0.271,0.6654,-0.3115,-103.95,4.65,11.1,7.3933,0.3543,3.7781,1.7531,1.4767,0.9609,-83.1,3.45,-19.2,-23.78,-4.21,6.69,-0.8618,-2.6976,-0.6654,18.1875,7.5,51.0,135.0625,-0.875,146.0625,0
1776973484.013,8.0038,6.031,-1.3838,-0.271,0.6654,-0.3115,-103.95,4.65,11.1,8.7388,2.2865,3.4955,2.303,1.9404,1.1636,-85.05,3.9,-18.45,3.1,9.6,-2.94,-2.4206,-3.9772,-0.4342,18.1875,7.5,51.0,134.1875,-2.5625,147.375,0
1776973484.017,8.9567,3.6536,0.8356,-0.3557,0.8495,0.0224,-103.95,4.65,11.1,14.552,4.4556,-5.3008,1.2913,1.4701,0.8279,-85.05,3.9,-18.45,3.1,9.6,-2.94,-2.4206,-3.9772,-0.4342,18.1875,7.5,51.0,133.125,-4.4375,148.75,0
1776973484.026,8.5377,2.2577,2.7198,-0.3056,0.8378,0.376,-104.25,4.05,9.9,17.2574,4.2617,-11.9375,1.2913,1.4701,0.8279,-82.95,3.3,-16.8,-1.93,-5.36,-13.54,-2.6027,-4.2651,-0.5072,18.1875,7.5,51.0,132.0,-6.4375,149.625,0
1776973484.035,7.4747,1.5514,2.8706,0.0671,0.566,0.595,-104.4,3.9,10.05,10.9104,-0.3735,-5.5426,0.5942,0.4796,0.3629,-83.25,2.4,-15.6,-0.17,-10.19,-14.32,-1.9482,-4.6044,-0.6981,18.1875,7.5,51.0,132.0,-6.4375,149.625,0
1776973484.04,7.4747,1.5514,2.8706,0.0671,0.566,0.595,-103.5,4.8,9.15,10.9104,-0.3735,-5.5426,2.5554,0.6616,0.1719,-83.25,2.4,-15.6,-0.17,-10.19,-14.32,-1.9482,-4.6044,-0.6981,18.1875,7.5,51.0,132.0,-6.4375,149.625,0
1776973484.045,13.963,1.3288,0.1508,0.5955,1.3696,1.0043,-103.5,4.8,9.15,13.5272,-6.8187,-12.0979,3.2447,0.8596,0.5462,-83.25,2.4,-15.6,-8.43,17.02,-15.1,-1.5239,-4.4866,0.2651,14.75,17.5625,53.875,131.4375,-8.6875,150.375,0
1776973484.05,13.963,1.3288,0.1508,0.5955,1.3696,1.0043,-103.05,4.5,9.9,13.5272,-6.8187,-12.0979,3.2447,0.8596,0.5462,-83.25,2.4,-15.6,-8.43,17.02,-15.1,-1.5239,-4.4866,0.2651,14.75,17.5625,53.875,131.4375,-8.6875,150.375,0
1776973484.055,17.5232,1.1971,-1.6903,1.6446,1.1692,1.5623,-103.05,4.5,9.9,16.3476,-12.074,-7.7668,2.4858,0.93,0.9054,-84.15,3.45,-15.45,-6.81,14.14,-20.08,-1.3199,-4.0404,0.9359,14.75,17.5625,53.875,131.3125,-10.875,150.9375,0
1776973484.06,17.5232,1.1971,-1.6903,1.6446,1.1692,1.5623,-103.05,4.5,9.9,16.3476,-12.074,-7.7668,2.4858,0.93,0.9054,-84.15,3.45,-15.45,-6.81,14.14,-20.08,-0.4963,-4.2368,1.1759,14.75,17.5625,53.875,131.3125,-13.25,151.125,0
1776973484.065,21.0977,0.8835,-3.9361,2.6945,1.0158,1.9374,-103.05,4.5,9.9,16.4194,-10.8362,-0.0239,1.7067,1.4903,1.2215,-84.15,3.45,-15.45,-13.17,7.12,-21.69,-0.4963,-4.2368,1.1759,14.75,17.5625,53.875,131.8125,-15.75,151.1875,0
1776973484.075,25.0242,1.992,-6.2489,4.0505,0.9329,1.7485,-103.05,4.5,9.9,14.5639,-4.9392,3.8355,0.6294,1.8919,1.3662,-84.15,1.95,-15.15,-18.04,-3.5,-18.96,-0.1276,-4.0972,1.9831,14.75,17.5625,53.875,132.625,-18.0625,151.4375,0
1776973484.085,22.0745,3.644,-8.4348,5.4063,-0.2353,0.7647,-98.4,4.8,9.9,14.3939,-1.2617,2.3559,-0.2835,1.8572,1.2462,-84.15,0.3,-14.4,-12.6,-16.3,-7.17,-0.4287,-3.4154,2.2777,14.75,17.5625,53.875,132.625,-18.0625,151.4375,0
1776973484.09,22.0745,3.644,-8.4348,5.4063,-0.2353,0.7647,-96.6,6.75,6.3,14.3939,-1.2617,2.3559,-0.2835,1.8572,1.2462,-84.15,0.3,-14.4,-12.6,-16.3,-7.17,-0.4287,-3.4154,2.2777,14.75,17.5625,53.875,133.1875,-19.5625,151.9375,0
1776973484.095,13.386,5.3271,-7.8745,5.5302,-1.4376,-0.4263,-96.6,6.75,6.3,12.3589,0.7159,3.4453,-0.3312,1.6438,1.1463,-83.7,-1.35,-13.05,-8.54,2.97,-13.51,-0.7309,-2.2166,1.7497,22.6875,14.6875,53.375,133.1875,-19.5625,151.9375,0
1776973484.1,13.386,5.3271,-7.8745,5.5302,-1.4376,-0.4263,-94.05,10.5,6.0,12.3589,0.7159,3.4453,-0.3312,1.6438,1.1463,-83.7,-1.35,-13.05,-8.54,2.97,-13.51,-0.7309,-2.2166,1.7497,22.6875,14.6875,53.375,133.5625,-20.75,152.5625,0
1776973484.105,5.4348,3.6272,-4.2641,3.8829,-1.6174,-1.1389,-94.05,10.5,6.0,8.4276,5.0087,2.0566,-0.6251,1.5655,1.2542,-82.65,0.0,-13.2,-10.0,3.0,-14.63,-0.9883,-1.7333,1.2086,22.6875,14.6875,53.375,133.5625,-20.75,152.5625,0
1776973484.112,0.6847,0.4693,1.7597,1.0896,-1.1948,-1.2998,-92.25,13.05,3.45,7.3047,6.5481,1.7885,-0.6251,1.5655,1.2542,-82.65,0.0,-13.2,-3.2,-9.29,-6.34,-0.685,-1.1508,0.8061,22.6875,14.6875,53.375,133.75,-21.5,153.0,0
1776973484.117,0.6847,0.4693,1.7597,1.0896,-1.1948,-1.2998,-92.25,13.05,3.45,7.3047,6.5481,1.7885,-0.3802,1.4629,1.3081,-82.65,0.0,-13.2,-3.2,-9.29,-6.34,-0.685,-1.1508,0.8061,22.6875,14.6875,53.375,133.9375,-22.0625,153.3125,0
1776973484.125,-3.4812,-5.43,7.1611,-1.7237,0.0253,-1.3403,-92.25,13.05,3.45,6.5122,6.1651,2.8754,0.3757,1.3739,1.2406,-83.85,-1.95,-10.65,-3.36,-4.25,-8.07,-0.5552,-0.7799,0.5858,22.6875,14.6875,53.375,134.0625,-22.625,153.6875,0
1776973484.135,4.9656,-15.3013,14.4825,-2.6012,1.5031,-0.555,-91.05,18.3,4.2,5.9328,4.1875,1.3096,0.6323,1.3638,1.2167,-83.85,-1.95,-10.65,-3.92,-2.58,-7.98,-0.6305,-0.8618,0.5978,22.6875,14.6875,53.375,134.0625,-22.625,153.6875,0
1776973484.14,4.9656,-15.3013,14.4825,-2.6012,1.5031,-0.555,-95.1,20.55,6.75,5.9328,4.1875,1.3096,0.6323,1.3638,1.2167,-83.85,-1.95,-10.65,-3.92,-2.58,-7.98,-0.6305,-0.8618,0.5978,22.6875,14.6875,53.375,134.0625,-22.625,153.6875,0
1776973484.145,5.8419,-15.6724,9.4427,-0.2204,1.3459,-0.3691,-95.1,20.55,6.75,6.4476,0.2993,0.7278,0.4247,1.4272,1.1343,-84.6,-2.7,-9.6,-4.39,-4.17,-8.43,-0.6949,-0.8498,0.6272,30.875,13.0625,52.5,134.25,-23.1875,154.125,0
1776973484.15,5.8419,-15.6724,9.4427,0.6718,1.3411,0.352,-95.7,20.7,8.25,8.9663,-3.4788,1.0846,0.4247,1.4272,1.1343,-84.6,-2.7,-9.6,-4.39,-4.17,-8.43,-0.6949,-0.8498,0.6272,30.875,13.0625,52.5,134.25,-23.1875,154.125,0
1776973484.155,4.0079,-8.1954,3.395,0.6718,1.3411,0.352,-95.7,20.7,8.25,8.9663,-3.4788,1.0846,0.4533,1.4538,1.0768,-83.25,-2.4,-8.7,-5.36,-2.87,-9.37,-0.7636,-0.7189,0.6207,30.875,13.0625,52.5,134.375,-23.6875,154.625,0
1776973484.16,4.6112,-1.6113,-1.5969,-0.3198,1.2809,0.9702,-97.35,14.25,9.6,11.4275,-3.9863,2.1021,0.4533,1.4538,1.0768,-83.25,-2.4,-8.7,-5.36,-2.87,-9.37,-0.7341,-0.5727,0.5749,30.875,13.0625,52.5,134.5625,-24.125,155.125,0
1776973484.166,4.6112,-1.6113,-1.5969,-0.3198,1.2809,0.9702,-97.5,12.15,10.05,11.4275,-3.9863,2.1021,0.2531,1.5124,1.0954,-85.5,-3.3,-8.25,-6.0,-4.47,-8.86,-0.7341,-0.5727,0.5749,30.875,13.0625,52.5,134.75,-24.4375,155.5,0
1776973484.175,8.5832,1.968,-0.8356,-1.2548,1.0432,0.9212,-97.5,12.15,10.05,12.5863,-4.4412,3.2298,-0.348,1.1927,1.081,-85.5,-3.3,-7.2,-4.05,-3.72,-8.44,-0.6152,-0.4047,0.528,30.875,13.0625,52.5,134.75,-24.4375,155.5,0
1776973484.185,12.8233,6.0765,2.3583,-2.2441,1.0816,0.6198,-97.5,12.15,10.05,10.4435,-4.1276,3.9097,-0.907,0.8609,1.0968,-84.6,-6.15,-7.35,-4.22,-3.96,-7.81,-0.5345,-0.3698,0.48,30.875,13.0625,52.5,134.875,-24.75,155.875,0
1776973484.19,15.4594,7.367,2.9712,-2.7901,0.9992,0.5684,-99.15,1.05,9.6,9.9719,-4.525,2.3774,-1.2303,0.8122,1.1024,-84.6,-6.15,-7.35,-4.22,-3.96,-7.81,-0.5345,-0.3698,0.48,30.875,13.0625,52.5,134.875,-24.75,155.875,0
1776973484.195,15.4594,7.367,2.9712,-2.7901,0.9992,0.5684,-97.8,1.05,9.6,9.9719,-4.525,2.3774,-1.2303,0.8122,1.1024,-84.75,-4.5,-4.95,-4.0,-3.91,-7.8,-0.4603,-0.3371,0.4865,32.5,10.75,50.0625,135.0625,-25.0625,156.25,0
1776973484.2,13.7212,6.2608,2.0303,-2.1314,0.389,0.6035,-97.8,0.15,10.5,10.5536,-4.2808,1.5993,-1.1263,0.8135,1.0536,-84.75,-4.5,-4.95,-4.0,-3.91,-7.8,-0.4603,-0.3371,0.4865,32.5,10.75,50.0625,135.0625,-25.0625,156.25,0
1776973484.205,13.7212,6.2608,2.0303,-2.1314,0.389,0.6035,-98.55,-3.15,10.05,10.5536,-4.2808,1.5993,-1.1263,0.8135,1.0536,-84.75,-4.5,-4.95,-5.24,-2.74,-8.67,-0.4745,-0.2629,0.4832,32.5,10.75,50.0625,135.25,-25.25,156.5625,0
1776973484.209,12.0141,3.7278,1.9082,-1.1455,0.251,0.6158,-98.55,-3.15,10.05,11.4203,-2.6552,0.7949,-1.0166,0.7309,0.9249,-84.75,-4.5,-4.95,-5.24,-2.74,-8.67,-0.4352,-0.1658,0.4276,32.5,10.75,50.0625,135.375,-25.4375,156.875,0
1776973484.216,12.0141,3.7278,1.9082,-1.1455,0.251,0.6158,-98.7,-0.75,9.9,11.4203,-2.6552,0.7949,-1.0166,0.7309,0.9249,-83.1,-4.65,-5.85,-4.96,-2.09,-9.35,-0.4352,-0.1658,0.4276,32.5,10.75,50.0625,135.5,-25.5625,157.125,0
1776973484.225,10.1394,1.1133,1.2474,-0.3491,0.2998,0.6869,-98.7,-0.75,9.9,10.9439,-0.7111,0.4262,-0.8577,0.6432,0.7666,-83.1,-4.65,-5.85,-4.64,-2.42,-9.08,-0.3218,-0.0829,0.2978,32.5,10.75,50.0625,135.5,-25.5625,157.125,0
1776973484.235,8.9663,-0.3615,0.6105,-0.036,0.4194,0.8628,-94.5,-0.9,10.8,9.991,1.324,0.4501,-0.3115,0.6328,0.6691,-83.4,-5.85,-5.85,-4.47,-2.78,-8.63,-0.2051,-0.0731,0.2018,32.5,10.75,50.0625,135.5625,-25.625,157.3125,0
1776973484.24,8.5976,-0.7566,0.6632,-0.028,0.6344,1.0635,-94.5,-0.9,10.8,9.5648,2.1093,0.8643,0.2489,0.6265,0.5598,-83.4,-5.85,-5.85,-4.47,-2.78,-8.63,-0.2051,-0.0731,0.2018,32.5,10.75,50.0625,135.5625,-25.625,157.3125,0
1776973484.245,8.5976,-0.7566,0.6632,-0.028,0.6344,1.0635,-95.25,-1.2,9.0,9.5648,2.1093,0.8643,0.2489,0.6265,0.5598,-84.75,-6.45,-6.75,-4.24,-3.0,-8.44,-0.1614,-0.0938,0.144,33.5625,8.1875,50.6875,135.625,-25.75,157.4375,0
1776973484.25,8.4132,-0.6369,0.7422,0.0096,0.8591,1.1922,-95.25,-1.2,9.0,9.4571,1.482,0.9768,0.5676,0.6139,0.4455,-84.75,-6.45,-6.75,-4.24,-3.0,-8.44,-0.1614,-0.0938,0.144,33.5625,8.1875,50.6875,135.625,-25.75,157.4375,0
1776973484.255,8.4132,-0.6369,0.7422,0.0096,0.8591,1.1922,-93.15,-0.15,9.0,9.4571,1.482,0.9768,0.5676,0.6139,0.4455,-83.7,-6.45,-5.7,-3.92,-3.27,-8.19,-0.1713,-0.1113,0.1233,33.5625,8.1875,50.6875,135.6875,-25.8125,157.5625,0
1776973484.26,8.9783,0.8116,0.2873,0.1812,1.3347,1.2292,-93.15,-0.15,9.0,9.4595,-0.261,0.5267,0.7922,0.6126,0.4199,-83.7,-6.45,-5.7,-3.92,-3.27,-8.19,-0.2127,-0.1244,0.1298,33.5625,8.1875,50.6875,135.6875,-25.875,157.6875,0
1776973484.266,9.8713,1.9561,0.419,0.4631,1.2303,1.2105,-91.8,-1.5,10.95,10.0676,-2.0063,0.2514,0.8191,0.6339,0.4804,-84.15,-6.9,-5.85,-4.11,-3.13,-8.24,-0.2127,-0.1244,0.1298,33.5625,8.1875,50.6875,135.75,-26.0,157.8125,0
1776973484.275,9.8713,1.9561,0.419,0.4596,1.1407,1.2199,-90.75,-2.25,11.7,10.4267,-2.9473,0.4118,0.8191,0.6339,0.4804,-84.15,-6.9,-5.85,-4.34,-2.98,-8.37,-0.252,-0.156,0.1429,33.5625,8.1875,50.6875,135.75,-26.0,157.8125,0
1776973484.285,10.3118,3.0263,0.2322,0.3845,0.8996,1.2345,-90.75,-2.25,11.7,10.1634,-2.9281,0.9074,0.203,0.6081,0.5167,-84.15,-5.85,-5.85,-4.32,-3.01,-8.36,-0.2553,-0.1713,0.1353,33.5625,8.1875,50.6875,135.75,-26.125,158.0,0
1776973484.29,10.3118,3.0263,0.2322,0.3845,0.8996,1.2345,-90.75,-2.25,11.7,10.1634,-2.9281,0.9074,0.203,0.6081,0.5167,-84.15,-5.85,-5.85,-4.32,-3.01,-8.36,-0.2553,-0.1713,0.1353,33.5625,8.1875,50.6875,135.75,-26.125,158.0,0
1776973484.295,9.6271,2.4612,0.5267,0.3368,0.7498,1.254,-89.4,-3.15,12.9,9.8904,-2.4253,1.4964,-0.1434,0.5532,0.5023,-84.15,-5.85,-5.85,-4.45,-2.94,-8.43,-0.2236,-0.1582,0.1156,34.0,8.1875,51.0,135.75,-26.25,158.125,0
1776973484.3,9.6271,2.4612,0.5267,0.3368,0.7498,1.254,-89.4,-3.15,12.9,9.8904,-2.4253,1.4964,-0.1434,0.5532,0.5023,-84.15,-5.85,-5.85,-4.45,-2.94,-8.43,-0.2236,-0.1582,0.1156,34.0,8.1875,51.0,135.75,-26.25,158.125,0
1776973484.305,9.0118,1.6209,1.1349,0.4655,0.6496,1.2217,-91.5,-1.8,12.45,9.4786,-1.5275,1.5514,-0.2494,0.5265,0.4772,-83.85,-6.9,-5.85,-4.51,-2.91,-8.42,-0.1844,-0.1451,0.1014,34.0,8.1875,51.0,135.8125,-26.3125,158.25,0
1776973484.311,9.0118,1.6209,1.1349,0.4655,0.6496,1.2217,-91.5,-1.8,12.45,9.4786,-1.5275,1.5514,-0.2494,0.5265,0.4772,-83.85,-6.9,-5.85,-4.51,-2.91,-8.42,-0.1254,-0.1342,0.0829,34.0,8.1875,51.0,135.8125,-26.4375,158.3125,0
1776973484.316,8.1738,0.7135,1.7166,0.5836,0.9302,1.2007,-90.9,-4.2,15.45,9.4978,-0.6105,0.9601,-0.5025,0.5089,0.4588,-82.35,-9.0,-6.6,-4.57,-2.95,-8.32,-0.1254,-0.1342,0.0829,34.0,8.1875,51.0,135.8125,-26.5,158.375,0
1776973484.325,8.7747,0.249,1.7933,0.7642,0.9068,1.1892,-93.0,-6.3,16.35,9.5672,0.7709,0.1365,-0.5572,0.5529,0.458,-83.7,-4.8,-6.0,-4.51,-3.02,-8.24,-0.0785,-0.1156,0.0611,34.0,8.1875,51.0,135.8125,-26.5,158.375,0
1776973484.331,8.7747,0.249,1.7933,0.7642,0.9068,1.1892,-93.0,-6.3,16.35,9.5672,0.7709,0.1365,-0.5572,0.5529,0.458,-83.7,-4.8,-6.0,-4.51,-3.02,-8.24,-0.06,-0.096,0.0436,34.0,8.1875,51.0,135.8125,-26.5625,158.4375,0
1776973484.336,9.1195,0.0862,1.5036,0.9025,0.8066,1.1826,-93.0,-6.3,16.35,9.56,2.1189,-0.3998,-0.4056,0.5609,0.4639,-85.35,-6.6,-6.6,-4.41,-3.09,-8.13,-0.06,-0.096,0.0436,34.0,8.1875,51.0,135.8125,-26.5625,158.4375,0
1776973484.341,9.1195,0.0862,1.5036,0.9025,0.8066,1.1826,-93.0,-6.3,16.35,9.56,2.1189,-0.3998,-0.4056,0.5609,0.4639,-85.35,-6.6,-6.6,-4.41,-3.09,-8.13,-0.0687,-0.0829,0.0327,35.0,8.0,50.875,135.8125,-26.625,158.4375,0
1776973484.346,9.4595,0.6153,1.063,0.8913,0.874,1.1716,-91.65,-9.45,16.5,9.8019,3.0191,-0.5219,-0.0674,0.5564,0.4607,-85.2,-6.75,-5.25,-4.31,-3.07,-8.14,-0.0687,-0.0829,0.0327,35.0,8.0,50.875,135.8125,-26.625,158.4375,0
1776973484.351,9.4595,0.6153,1.063,0.8913,0.874,1.1716,-91.65,-9.45,16.5,9.8019,3.0191,-0.5219,-0.0674,0.5564,0.4607,-85.2,-6.75,-5.25,-4.31,-3.07,-8.14,-0.0829,-0.0862,0.036,35.0,8.0,50.875,135.8125,-26.625,158.5,0
1776973484.356,9.4379,1.2881,0.6752,0.6877,0.9182,1.1016,-91.95,-10.2,16.2,9.9192,2.5163,0.0646,0.2292,0.5462,0.4594,-85.8,-7.8,-5.55,-4.12,-3.01,-8.32,-0.0829,-0.0862,0.036,35.0,8.0,50.875,135.8125,-26.625,158.5,0
1776973484.361,9.4379,1.2881,0.6752,0.6877,0.9182,1.1016,-91.95,-10.2,16.2,9.9192,2.5163,0.0646,0.2292,0.5462,0.4594,-85.8,-7.8,-5.55,-4.12,-3.01,-8.32,-0.0993,-0.1047,0.0491,35.0,8.0,50.875,135.8125,-26.6875,158.5625,0
1776973484.366,9.347,1.6999,0.0168,0.417,0.8772,1.0051,-92.7,-10.65,16.2,9.517,1.2234,0.5986,0.3219,0.5228,0.4871,-85.8,-7.8,-5.55,-4.23,-3.02,-8.33,-0.0993,-0.1047,0.0491,35.0,8.0,50.875,135.8125,-26.6875,158.5625,0
