timestamp,thigh_acc_x,thigh_acc_y,thigh_acc_z,thigh_gyro_x,thigh_gyro_y,thigh_gyro_z,thigh_mag_x,thigh_mag_y,thigh_mag_z,shank_acc_x,shank_acc_y,shank_acc_z,shank_gyro_x,shank_gyro_y,shank_gyro_z,shank_mag_x,shank_mag_y,shank_mag_z,foot_acc_x,foot_acc_y,foot_acc_z,foot_gyro_x,foot_gyro_y,foot_gyro_z,foot_mag_x,foot_mag_y,foot_mag_z,foot_euler_x,foot_euler_y,foot_euler_z,perturbation_event
305.415,9.2799,2.8084,-0.4788,-0.2697,0.0314,-0.0115,-51.4500,4.8000,23.8500,9.6151,1.1995,-0.4238,-0.0072,-0.0839,-0.0594,-69.6000,29.1000,-12.0000,3.1700,3.8400,-8.3400,0.0480,-0.0131,0.0382,-26.7500,-13.1875,17.0625,257.1875,19.0625,-154.8125,0
305.423,9.2225,2.8132,-0.5028,-0.2944,0.0482,-0.0029,-49.6500,5.2500,24.4500,9.5720,1.0080,-0.4094,-0.0213,-0.0863,-0.0626,-70.2000,28.0500,-8.4000,3.1600,3.8200,-8.3600,0.0480,-0.0175,0.0382,-26.7500,-13.1875,17.0625,257.1875,19.0625,-154.8750,0
305.428,9.2368,2.8108,-0.5459,-0.2944,0.0546,0.0000,-50.8500,5.2500,23.1000,9.5888,1.0080,-0.4597,-0.0282,-0.0935,-0.0557,-70.2000,28.0500,-8.4000,3.1600,3.8200,-8.3600,0.0480,-0.0175,0.0382,-26.7500,-13.1875,17.0625,257.1875,19.0625,-154.8750,0
305.433,9.2368,2.8108,-0.5459,-0.2944,0.0546,0.0000,-50.8500,5.2500,23.1000,9.5888,1.0080,-0.4597,-0.0282,-0.0935,-0.0557,-68.4000,27.1500,-9.7500,3.1700,3.7900,-8.3900,0.0535,-0.0207,0.0349,-26.3750,-13.5000,15.8750,257.1875,19.0625,-154.8750,0
305.438,9.3757,2.8443,-0.5770,-0.2675,0.0578,0.0141,-49.9500,5.4000,24.3000,9.6534,0.9888,-0.6656,-0.0650,-0.1013,-0.0661,-68.4000,27.1500,-9.7500,3.1700,3.7900,-8.3900,0.0535,-0.0207,0.0349,-26.3750,-13.5000,15.8750,257.1875,19.0625,-154.8750,0
305.443,9.3757,2.8443,-0.5770,-0.2675,0.0578,0.0141,-49.9500,5.4000,24.3000,9.6534,0.9888,-0.6656,-0.0650,-0.1013,-0.0661,-68.4000,27.1500,-9.7500,3.1700,3.7300,-8.4300,0.0535,-0.0295,0.0327,-26.3750,-13.5000,15.8750,257.1875,19.0625,-154.9375,0
305.447,9.4427,2.8659,-0.6728,-0.1908,0.0456,0.0274,-49.3500,4.8000,24.1500,9.5816,0.8523,-0.5339,-0.0815,-0.1077,-0.0730,-68.4000,27.1500,-9.7500,3.1700,3.7300,-8.4300,0.0535,-0.0295,0.0327,-26.3750,-13.5000,15.8750,257.1875,19.0625,-154.9375,0
305.452,9.4427,2.8659,-0.6728,-0.1908,0.0456,0.0274,-49.3500,4.8000,24.1500,9.5816,0.8523,-0.5339,-0.0815,-0.1077,-0.0730,-69.0000,27.7500,-10.6500,3.1900,3.7700,-8.4300,0.0404,-0.0240,0.0338,-26.3750,-13.5000,15.8750,257.2500,19.0625,-154.9375,0
305.457,9.4379,2.8276,-0.7685,-0.1156,0.0173,0.0298,-49.3500,4.8000,24.1500,9.6079,0.9984,-0.7015,-0.1282,-0.1111,-0.0674,-69.0000,27.7500,-10.6500,3.1900,3.7700,-8.4300,0.0404,-0.0240,0.0338,-26.3750,-13.5000,15.8750,257.2500,19.0625,-155.0000,0
305.465,9.3134,2.9257,-0.7997,-0.0749,-0.0035,0.0293,-49.3500,4.8000,24.1500,9.6367,1.2570,-0.8811,-0.1282,-0.1111,-0.0674,-70.2000,28.0500,-9.1500,3.1600,3.7500,-8.4100,0.0196,-0.0185,0.0349,-26.3750,-13.5000,15.8750,257.2500,19.0625,-155.0000,0
305.474,9.3134,2.9257,-0.7997,-0.0749,-0.0035,0.0293,-49.2000,3.4500,24.7500,9.6367,1.2570,-0.8811,-0.1468,-0.1223,-0.0690,-70.0500,27.9000,-10.0500,3.1800,3.7100,-8.4500,0.0142,-0.0142,0.0349,-26.3750,-13.5000,15.8750,257.2500,19.0625,-155.0000,0
305.479,9.2727,2.9377,-0.8188,-0.0813,0.0069,0.0384,-51.0000,4.2000,24.0000,9.4739,1.6640,-0.7422,-0.1074,-0.1098,-0.0762,-70.0500,27.9000,-10.0500,3.1800,3.7100,-8.4500,0.0142,-0.0142,0.0349,-26.3750,-13.5000,15.8750,257.2500,19.0625,-155.0000,0
305.483,9.2727,2.9377,-0.8188,-0.0813,0.0069,0.0384,-51.0000,4.2000,24.0000,9.4739,1.6640,-0.7422,-0.1074,-0.1098,-0.0762,-71.2500,27.3000,-10.6500,3.1100,3.8300,-8.4200,0.0065,-0.0109,0.0349,-26.0000,-13.8750,17.5000,257.3125,19.0625,-155.0000,0
305.488,9.2009,3.0143,-0.9816,-0.1199,0.0080,0.0381,-50.4000,4.8000,24.4500,9.4332,1.5610,-0.6560,-0.0794,-0.0983,-0.0775,-71.2500,27.3000,-10.6500,3.1100,3.8300,-8.4200,0.0065,-0.0109,0.0349,-26.0000,-13.8750,17.5000,257.3125,19.0625,-155.0000,0
305.493,9.2009,3.0143,-0.9816,-0.1199,0.0080,0.0381,-50.4000,4.8000,24.4500,9.4332,1.5610,-0.6560,-0.0794,-0.0983,-0.0775,-70.3500,28.3500,-11.2500,3.2000,3.8400,-8.4100,0.0000,-0.0065,0.0393,-26.0000,-13.8750,17.5000,257.3125,19.0625,-155.0000,0
305.498,9.1770,3.1580,-0.9409,-0.1900,0.0059,0.0333,-51.4500,5.5500,24.1500,9.4906,1.3695,-0.6129,-0.0922,-0.0901,-0.0757,-70.3500,28.3500,-11.2500,3.2000,3.8400,-8.4100,0.0000,-0.0065,0.0393,-26.0000,-13.8750,17.5000,257.3125,19.0625,-155.0000,0
305.505,9.0740,3.1939,-0.7949,-0.2635,0.0053,0.0373,-50.5500,5.4000,22.5000,9.6031,1.4557,-0.6800,-0.1687,-0.0959,-0.0735,-70.9500,27.7500,-9.1500,3.1900,3.8400,-8.3500,0.0000,-0.0109,0.0393,-26.0000,-13.8750,17.5000,257.3125,19.0625,-155.0000,0
305.515,9.0214,3.2561,-0.6129,-0.3155,0.0181,0.0413,-50.5500,5.4000,22.5000,9.5385,1.8723,-0.8523,-0.1796,-0.0922,-0.0706,-70.9500,27.7500,-9.1500,3.2000,3.8600,-8.3800,0.0022,-0.0164,0.0393,-26.0000,-13.8750,17.5000,257.3750,19.0625,-155.0000,0
305.521,9.0214,3.2561,-0.6129,-0.3155,0.0181,0.0413,-50.5500,5.4000,22.5000,9.5385,1.8723,-0.8523,-0.1796,-0.0922,-0.0706,-69.6000,28.3500,-10.5000,3.2000,3.8600,-8.3800,0.0022,-0.0175,0.0404,-26.0000,-13.8750,17.5000,257.3750,19.0625,-155.0625,0
305.526,9.0764,3.4093,-0.6153,-0.3195,0.0450,0.0464,-48.9000,4.8000,24.1500,9.3853,1.9201,-0.8619,-0.0970,-0.0733,-0.0650,-69.6000,28.3500,-10.5000,3.2000,3.8500,-8.3800,0.0022,-0.0175,0.0404,-26.0000,-13.8750,17.5000,257.3750,19.0625,-155.0625,0
305.531,9.0764,3.4093,-0.6153,-0.3195,0.0450,0.0464,-48.9000,4.8000,24.1500,9.3853,1.9201,-0.8619,-0.0970,-0.0733,-0.0650,-69.6000,28.3500,-10.5000,3.2000,3.8500,-8.3800,0.0055,-0.0153,0.0382,-26.7500,-14.2500,15.5000,257.4375,19.0625,-155.0625,0
305.536,9.0788,3.6368,-0.5746,-0.2822,0.0432,0.0498,-51.1500,4.0500,23.8500,9.4308,2.0853,-0.8763,-0.0533,-0.0584,-0.0536,-69.6000,28.3500,-10.5000,3.1800,3.8900,-8.3400,0.0055,-0.0153,0.0382,-26.7500,-14.2500,15.5000,257.4375,19.0625,-155.0625,0
305.541,9.0788,3.6368,-0.5746,-0.2822,0.0432,0.0498,-51.1500,4.0500,23.8500,9.4308,2.0853,-0.8763,-0.0533,-0.0584,-0.0536,-68.4000,28.3500,-10.0500,3.1800,3.8900,-8.3400,0.0098,-0.0142,0.0327,-26.7500,-14.2500,15.5000,257.4375,19.0625,-155.0625,0
305.546,9.1123,3.7876,-0.6321,-0.2054,0.0464,0.0520,-48.6000,4.5000,24.9000,9.5744,2.1117,-0.8930,-0.0045,-0.0432,-0.0453,-68.4000,28.3500,-10.0500,3.1600,3.8800,-8.3400,0.0098,-0.0142,0.0327,-26.7500,-14.2500,15.5000,257.4375,19.0625,-155.0625,0
305.551,9.1123,3.7876,-0.6321,-0.2054,0.0464,0.0520,-48.6000,4.5000,24.9000,9.5744,2.1117,-0.8930,-0.0045,-0.0432,-0.0453,-70.5000,30.4500,-9.9000,3.1600,3.8800,-8.3400,0.0142,-0.0076,0.0338,-26.7500,-14.2500,15.5000,257.4375,19.0625,-155.0625,0
305.556,9.2009,3.9600,-0.6393,-0.1442,0.0632,0.0389,-50.1000,3.7500,24.1500,9.5074,1.8172,-0.9457,-0.0072,-0.0450,-0.0333,-70.5000,30.4500,-9.9000,3.1700,3.9500,-8.3200,0.0142,-0.0076,0.0338,-26.7500,-14.2500,15.5000,257.4375,19.0625,-155.0625,0
305.565,9.2608,3.9504,-0.6536,-0.1244,0.0621,0.0266,-50.1000,3.7500,24.1500,9.3948,1.5945,-0.9673,-0.0456,-0.0405,-0.0381,-69.1500,29.8500,-9.3000,3.1600,3.9900,-8.3000,0.0153,-0.0044,0.0305,-26.7500,-14.2500,15.5000,257.4375,19.0625,-155.0625,0
305.574,9.1746,4.0294,-0.6608,-0.0663,0.0562,0.0120,-50.1000,3.7500,24.1500,9.4667,1.5586,-1.0511,-0.0799,-0.0320,-0.0312,-69.7500,28.5000,-10.6500,3.1600,3.9200,-8.3400,0.0175,-0.0055,0.0240,-26.7500,-14.2500,15.5000,257.5000,19.0625,-155.1250,0
305.578,9.1746,4.0294,-0.6608,-0.0663,0.0562,0.0120,-51.0000,3.9000,23.5500,9.4667,1.5586,-1.0511,-0.0799,-0.0320,-0.0312,-69.7500,28.5000,-10.6500,3.1600,3.9200,-8.3400,0.0175,-0.0055,0.0240,-26.7500,-14.2500,15.5000,257.5000,19.0625,-155.1250,0
305.583,9.2273,4.0606,-0.5722,-0.0008,0.0512,0.0139,-51.0000,3.9000,23.5500,9.5146,1.9321,-1.3838,-0.0853,-0.0173,-0.0200,-70.3500,30.3000,-10.5000,3.1600,3.8500,-8.3500,0.0185,-0.0131,0.0229,-26.7500,-13.8750,17.0625,257.5000,19.0625,-155.1250,0
305.588,9.2273,4.0606,-0.5722,-0.0008,0.0512,0.0139,-50.4000,3.7500,23.4000,9.5146,1.9321,-1.3838,-0.0853,-0.0173,-0.0200,-70.3500,30.3000,-10.5000,3.1600,3.8500,-8.3500,0.0185,-0.0131,0.0229,-26.7500,-13.8750,17.0625,257.5000,19.0625,-155.1250,0
305.593,9.4379,4.0151,-0.6680,0.0679,0.0195,0.0117,-50.4000,3.7500,23.4000,9.3565,1.9944,-1.1085,-0.0085,0.0080,-0.0213,-68.8500,29.5500,-11.2500,3.1500,3.8300,-8.4100,0.0273,-0.0142,0.0175,-26.7500,-13.8750,17.0625,257.5000,19.0625,-155.1250,0
305.598,9.4379,4.0151,-0.6680,0.0679,0.0195,0.0117,-50.2500,4.6500,25.0500,9.3565,1.9944,-1.1085,-0.0085,0.0080,-0.0213,-68.8500,29.5500,-11.2500,3.1500,3.8300,-8.4100,0.0273,-0.0142,0.0175,-26.7500,-13.8750,17.0625,257.5000,19.0625,-155.1250,0
305.605,9.3757,3.9744,-0.7111,0.1143,-0.0109,0.0072,-51.3000,4.9500,23.2500,9.4499,1.9082,-1.0558,0.0314,0.0341,-0.0125,-68.8500,29.5500,-11.2500,3.1700,3.8800,-8.4100,0.0196,-0.0087,0.0196,-26.7500,-13.8750,17.0625,257.5000,19.0625,-155.1250,0
305.612,9.2919,3.8714,-0.8140,0.1324,-0.0370,-0.0115,-51.3000,4.9500,23.2500,9.5193,1.8268,-0.9218,0.0234,0.0498,-0.0107,-70.3500,27.9000,-10.0500,3.1800,3.8600,-8.4100,0.0131,-0.0087,0.0175,-26.7500,-13.8750,17.0625,257.5000,19.0625,-155.1250,0
305.617,9.2919,3.8714,-0.8140,0.1324,-0.0370,-0.0115,-50.4000,5.2500,23.8500,9.5193,1.8268,-0.9218,0.0234,0.0498,-0.0107,-70.3500,27.9000,-10.0500,3.1800,3.8600,-8.4100,0.0131,-0.0087,0.0175,-26.7500,-13.8750,17.0625,257.5000,19.1250,-155.1875,0
305.626,9.2416,3.7134,-0.7853,0.1082,-0.0477,-0.0216,-50.4000,5.2500,23.8500,9.5433,1.9082,-0.8571,0.0059,0.0618,0.0008,-70.5000,27.3000,-10.3500,3.2100,3.9000,-8.3300,0.0087,-0.0065,0.0185,-26.7500,-13.8750,17.0625,257.5000,19.1250,-155.1875,0
305.630,9.1530,3.5817,-0.5986,0.0794,-0.0469,-0.0221,-50.4000,5.2500,23.8500,9.4427,2.1237,-0.8787,0.0072,0.0693,0.0056,-70.5000,27.3000,-10.3500,3.2100,3.9000,-8.3300,0.0076,-0.0055,0.0153,-26.7500,-12.3750,15.8750,257.5625,19.1250,-155.1875,0
305.636,9.1530,3.5817,-0.5986,0.0794,-0.0469,-0.0221,-50.5500,4.9500,23.2500,9.4427,2.1237,-0.8787,0.0072,0.0693,0.0056,-71.1000,28.3500,-11.2500,3.1600,3.9100,-8.3900,0.0076,-0.0055,0.0153,-26.7500,-12.3750,15.8750,257.5625,19.1250,-155.1875,0
305.646,9.1482,3.4357,-0.4932,0.0570,-0.0437,-0.0229,-48.7500,5.4000,24.3000,9.4858,2.3727,-0.9505,0.0266,0.0770,0.0197,-71.1000,29.5500,-10.0500,3.1700,3.9100,-8.3400,0.0055,-0.0055,0.0087,-26.7500,-12.3750,15.8750,257.5625,19.1250,-155.1875,0
305.655,9.1602,3.5003,-0.3591,0.0554,-0.0309,-0.0440,-48.9000,4.5000,24.1500,9.4068,2.1883,-0.7278,0.1074,0.0863,0.0197,-69.1500,27.1500,-10.8000,3.1400,3.9800,-8.2800,0.0109,-0.0011,0.0044,-26.7500,-12.3750,15.8750,257.5625,19.1250,-155.1875,0
305.663,9.2919,3.4285,-0.3328,0.0685,-0.0242,-0.0490,-50.4000,5.2500,24.1500,9.5505,1.6759,-0.5435,0.1132,0.1031,0.0285,-71.8500,28.6500,-10.5000,3.1900,3.9700,-8.3000,0.0131,0.0011,0.0011,-26.7500,-12.3750,15.8750,257.5625,19.1250,-155.1875,0
305.668,9.3781,3.2250,-0.1580,0.0807,-0.0080,-0.0618,-50.4000,5.2500,24.1500,9.6534,1.4198,-0.3041,0.0693,0.0887,0.0234,-71.8500,28.6500,-10.5000,3.1900,3.9700,-8.3000,0.0131,0.0011,0.0011,-26.7500,-12.3750,15.8750,257.5625,19.1250,-155.1875,0
305.676,9.3781,3.2250,-0.1580,0.0807,-0.0080,-0.0618,-50.4000,5.2500,24.1500,9.6534,1.4198,-0.3041,0.0693,0.0887,0.0234,-71.8500,28.6500,-10.5000,3.1100,4.1500,-8.3000,0.0251,-0.0055,-0.0022,-26.7500,-12.3750,15.8750,257.5625,19.1250,-155.1875,0
305.681,9.4643,2.9760,0.0479,0.0525,-0.0109,-0.0690,-50.4000,5.2500,24.1500,9.5648,1.1923,-0.1389,0.0394,0.0706,0.0155,-71.8500,28.6500,-10.5000,3.1100,4.1500,-8.3000,0.0251,-0.0055,-0.0022,-26.7500,-13.1875,15.8750,257.5000,19.1250,-155.1875,0
305.686,9.4643,2.9760,0.0479,0.0525,-0.0109,-0.0690,-50.8500,5.2500,23.8500,9.7468,1.0678,-0.3089,0.0394,0.0706,0.0155,-70.2000,30.0000,-10.3500,3.1900,3.8800,-8.3400,0.0415,-0.0087,0.0000,-26.7500,-13.1875,15.8750,257.5000,19.1250,-155.1875,0
305.691,9.3685,2.7701,0.1867,0.0392,0.0203,-0.0669,-50.8500,5.2500,23.8500,9.7468,1.0678,-0.3089,0.0344,0.0578,0.0123,-70.2000,30.0000,-10.3500,3.1900,3.8800,-8.3400,0.0415,-0.0087,0.0000,-26.7500,-13.1875,15.8750,257.5000,19.1250,-155.2500,0
305.696,9.3685,2.7701,0.1867,0.0392,0.0203,-0.0669,-50.5500,5.7000,23.5500,9.7205,0.8523,-0.0168,0.0344,0.0578,0.0123,-70.2000,30.0000,-10.3500,3.1900,3.7900,-8.4000,0.0687,-0.0055,0.0011,-26.7500,-13.1875,15.8750,257.5000,19.1250,-155.2500,0
305.701,9.4547,2.3894,0.2777,0.0346,0.0258,-0.0472,-50.5500,5.7000,23.5500,9.7205,0.8523,-0.0168,0.0655,0.0370,0.0000,-70.2000,30.0000,-10.3500,3.1900,3.7900,-8.4000,0.0753,-0.0044,0.0000,-26.7500,-13.1875,15.8750,257.5000,19.1250,-155.3125,0
305.706,9.4547,2.3894,0.2777,0.0855,0.0189,-0.0264,-49.6500,6.3000,24.1500,9.6941,0.6943,-0.0910,0.0789,0.0285,-0.0168,-70.5000,28.5000,-10.6500,3.1800,3.7600,-8.4600,0.0753,-0.0044,0.0000,-26.7500,-13.1875,15.8750,257.5000,19.1250,-155.3125,0
305.716,9.5648,2.1404,0.0862,0.0855,0.0189,-0.0264,-50.5500,4.9500,24.0000,9.8210,0.4884,-0.2370,0.0789,0.0285,-0.0168,-70.3500,28.3500,-11.5500,3.2200,3.5500,-8.4700,0.0687,-0.0022,0.0011,-26.7500,-13.1875,15.8750,257.5000,19.1250,-155.3750,0
305.726,9.5936,2.0231,-0.1125,0.1860,-0.0051,-0.0045,-48.9000,4.8000,22.0500,9.7755,0.4573,-0.1389,0.0067,-0.0029,-0.0453,-70.9500,29.2500,-10.6500,3.1800,3.5900,-8.5100,0.0535,-0.0011,0.0055,-26.7500,-13.1875,15.8750,257.5000,19.1250,-155.3750,0
305.731,9.6630,1.9537,-0.3926,0.3240,-0.0141,0.0242,-48.9000,4.8000,22.0500,9.7755,0.4573,-0.1389,0.0067,-0.0029,-0.0453,-70.9500,29.2500,-10.6500,3.1800,3.5900,-8.5100,0.0535,-0.0011,0.0055,-26.7500,-13.1875,15.8750,257.5000,19.1250,-155.3750,0
305.736,9.4930,1.8962,-0.6823,0.4338,-0.0512,0.0461,-48.9000,4.8000,22.0500,9.7779,0.7973,-0.2394,-0.0488,-0.0179,-0.0533,-70.9500,28.5000,-11.1000,3.1500,3.6300,-8.5100,0.0305,0.0000,0.0065,-26.0000,-13.5000,16.2500,257.5000,19.1250,-155.3750,0
305.740,9.4930,1.8962,-0.6823,0.4338,-0.0512,0.0461,-48.9000,4.8000,22.0500,9.7779,0.7973,-0.2394,-0.0488,-0.0179,-0.0533,-70.9500,28.5000,-11.1000,3.1500,3.6300,-8.5100,0.0305,0.0000,0.0065,-26.0000,-13.5000,16.2500,257.5000,19.1250,-155.3750,0
305.746,9.4691,1.8459,-0.8930,0.4815,-0.0773,0.0522,-49.2000,4.6500,24.7500,9.7612,1.2713,-0.2705,-0.0717,-0.0282,-0.0549,-70.9500,28.5000,-11.1000,3.1700,3.5700,-8.5200,0.0033,0.0055,0.0055,-26.0000,-13.5000,16.2500,257.5000,19.1250,-155.3750,0
305.750,9.4691,1.8459,-0.8930,0.4815,-0.0773,0.0522,-49.2000,4.6500,24.7500,9.7612,1.2713,-0.2705,-0.0717,-0.0282,-0.0549,-70.9500,28.5000,-11.1000,3.1700,3.5700,-8.5200,-0.0131,0.0087,0.0109,-26.0000,-13.5000,16.2500,257.5000,19.1250,-155.3750,0
305.756,9.3733,1.8651,-0.8906,0.4751,-0.0767,0.0528,-51.1500,6.7500,23.1000,9.5624,1.7789,-0.5866,-0.0373,-0.0165,-0.0525,-69.6000,28.6500,-10.5000,3.1600,3.6200,-8.5500,-0.0131,0.0087,0.0109,-26.0000,-13.5000,16.2500,257.5000,19.1250,-155.3750,0
305.765,9.1698,2.1380,-0.9553,0.3762,-0.0685,0.0333,-51.0000,4.9500,23.2500,9.5385,1.8723,-0.4429,-0.0136,-0.0386,-0.0546,-69.6000,28.6500,-10.5000,3.2100,3.6700,-8.5300,-0.0316,0.0196,0.0164,-26.0000,-13.5000,16.2500,257.5000,19.1250,-155.3750,0
305.771,9.1698,2.1380,-0.9553,0.3762,-0.0685,0.0333,-50.2500,4.9500,23.2500,9.5385,1.8723,-0.4429,-0.0136,-0.0386,-0.0546,-69.6000,28.6500,-10.5000,3.2100,3.6700,-8.5300,-0.0382,0.0229,0.0109,-26.0000,-13.5000,16.2500,257.5000,19.1250,-155.3750,0
305.777,9.0453,2.4373,-0.8930,0.2110,-0.0389,0.0173,-50.2500,4.9500,23.2500,9.4571,1.9752,-0.5842,-0.0091,-0.0490,-0.0474,-70.8000,27.9000,-10.0500,3.1600,3.8200,-8.4300,-0.0382,0.0229,0.0109,-26.0000,-13.5000,16.2500,257.5000,19.1250,-155.3750,0
305.782,9.0453,2.4373,-0.8930,0.2110,-0.0389,0.0173,-50.2500,4.9500,23.2500,9.4571,1.9752,-0.5842,-0.0091,-0.0490,-0.0474,-70.8000,27.9000,-10.0500,3.1600,3.8200,-8.4300,-0.0218,0.0393,0.0033,-27.1875,-13.5000,16.6875,257.5000,19.1250,-155.3125,0
305.787,8.9974,2.7797,-0.7350,0.0600,-0.0128,-0.0024,-50.2500,4.9500,23.2500,9.5313,2.0758,-0.5914,-0.0011,-0.0509,-0.0405,-69.7500,28.0500,-10.6500,3.2100,3.8400,-8.3600,-0.0218,0.0393,0.0033,-27.1875,-13.5000,16.6875,257.5000,19.1250,-155.3125,0
305.791,8.9974,2.7797,-0.7350,0.0600,-0.0128,-0.0024,-51.3000,4.6500,23.5500,9.5313,2.0758,-0.5914,-0.0011,-0.0509,-0.0405,-69.7500,28.0500,-10.6500,3.2100,3.8400,-8.3600,-0.0218,0.0393,0.0033,-27.1875,-13.5000,16.6875,257.5000,19.1875,-155.3125,0
305.796,9.0309,3.1244,-0.6369,-0.0626,0.0141,-0.0163,-51.3000,4.6500,23.5500,9.5577,1.9992,-0.7685,0.0482,-0.0440,-0.0301,-71.1000,27.9000,-10.0500,3.1700,3.8800,-8.3400,-0.0175,0.0469,-0.0033,-27.1875,-13.5000,16.6875,257.5000,19.1875,-155.3125,0
305.801,9.0309,3.1244,-0.6369,-0.0626,0.0141,-0.0163,-50.8500,5.5500,23.4000,9.5577,1.9992,-0.7685,0.0482,-0.0440,-0.0301,-71.1000,27.9000,-10.0500,3.1700,3.8800,-8.3400,-0.0273,0.0502,-0.0065,-27.1875,-13.5000,16.6875,257.5000,19.1875,-155.3125,0
305.807,9.1578,3.4572,-0.6488,-0.1375,0.0272,-0.0229,-50.8500,5.5500,23.4000,9.4739,1.7262,-0.8380,0.0834,-0.0360,-0.0317,-71.7000,28.0500,-11.4000,3.1700,3.9000,-8.3400,-0.0273,0.0502,-0.0065,-27.1875,-13.5000,16.6875,257.5000,19.1875,-155.3125,0
305.815,9.1937,3.6703,-0.6512,-0.1431,0.0197,-0.0306,-51.4500,6.0000,22.3500,9.5361,1.4174,-1.0175,0.0429,-0.0290,-0.0250,-69.7500,28.9500,-10.6500,3.2000,3.8600,-8.3300,-0.0327,0.0469,-0.0076,-27.1875,-13.5000,16.6875,257.5000,19.1875,-155.3125,0
305.820,9.1937,3.6703,-0.6512,-0.1431,0.0197,-0.0306,-50.8500,4.5000,21.6000,9.5361,1.4174,-1.0175,0.0429,-0.0290,-0.0250,-69.7500,28.9500,-10.6500,3.2000,3.8600,-8.3300,-0.0327,0.0469,-0.0076,-27.1875,-13.5000,16.6875,257.5000,19.2500,-155.2500,0
305.827,9.4092,3.8235,-0.7949,-0.0805,0.0064,-0.0437,-50.8500,4.5000,21.6000,9.4284,1.1612,-0.9792,0.0128,-0.0144,-0.0272,-72.3000,29.1000,-11.5500,3.2100,3.7600,-8.4100,-0.0382,0.0425,-0.0120,-27.1875,-13.5000,16.6875,257.5000,19.2500,-155.2500,0
305.831,9.4092,3.8235,-0.7949,-0.0805,0.0064,-0.0437,-49.9500,6.4500,24.0000,9.4739,1.4317,-1.1133,-0.0155,0.0011,-0.0213,-72.3000,29.1000,-11.5500,3.2100,3.7600,-8.4100,-0.0469,0.0393,-0.0098,-26.7500,-13.5000,17.0625,257.5000,19.2500,-155.2500,0
305.836,9.3829,3.9768,-0.9050,0.0181,-0.0165,-0.0493,-49.9500,6.4500,24.0000,9.4739,1.4317,-1.1133,-0.0155,0.0011,-0.0213,-72.3000,29.1000,-11.5500,3.2100,3.7100,-8.4100,-0.0469,0.0393,-0.0098,-26.7500,-13.5000,17.0625,257.5000,19.2500,-155.2500,0
305.841,9.3829,3.9768,-0.9050,0.0181,-0.0165,-0.0493,-49.9500,6.4500,24.0000,9.5170,2.0423,-1.1444,-0.0163,0.0077,-0.0109,-72.3000,29.1000,-11.5500,3.2100,3.7100,-8.4100,-0.0513,0.0415,-0.0109,-26.7500,-13.5000,17.0625,257.5000,19.2500,-155.1875,0
305.846,9.2177,4.2832,-0.9218,0.1607,-0.0376,-0.0381,-49.9500,6.4500,24.0000,9.5170,2.0423,-1.1444,-0.0163,0.0077,-0.0109,-70.5000,28.0500,-11.1000,3.1700,3.6600,-8.4000,-0.0513,0.0415,-0.0109,-26.7500,-13.5000,17.0625,257.5000,19.2500,-155.1875,0
305.851,9.2177,4.2832,-0.9218,0.1607,-0.0376,-0.0381,-50.2500,5.4000,24.0000,9.3948,2.3248,-1.0056,0.0448,0.0437,-0.0011,-70.5000,28.0500,-11.1000,3.1700,3.6600,-8.4000,-0.0578,0.0436,-0.0055,-26.7500,-13.5000,17.0625,257.5000,19.3125,-155.1875,0
305.857,9.2153,4.5226,-0.8882,0.3448,-0.0695,-0.0304,-50.2500,5.4000,24.0000,9.3948,2.3248,-1.0056,0.0448,0.0437,-0.0011,-70.5000,29.2500,-9.6000,3.2200,3.7300,-8.3800,-0.0578,0.0436,-0.0055,-26.7500,-13.5000,17.0625,257.5000,19.3125,-155.1875,0
305.866,9.2105,4.4724,-0.8811,0.4994,-0.0978,-0.0312,-50.5500,6.4500,23.2500,9.4475,2.4636,-0.7470,0.0842,0.0632,0.0059,-68.7000,28.5000,-10.3500,3.1700,3.9100,-8.2700,-0.0644,0.0502,-0.0022,-26.7500,-13.5000,17.0625,257.5000,19.3125,-155.1250,0
305.871,9.2105,4.4724,-0.8811,0.4994,-0.0978,-0.0312,-51.9000,5.5500,23.1000,9.3063,2.3990,-0.7853,0.1498,0.0775,0.0120,-68.7000,28.5000,-10.3500,3.1700,3.9100,-8.2700,-0.0600,0.0447,0.0011,-26.7500,-13.5000,17.0625,257.5000,19.3125,-155.0625,0
305.877,9.1267,4.3503,-0.7135,0.5441,-0.0997,-0.0482,-51.9000,5.5500,23.1000,9.3063,2.3990,-0.7853,0.1498,0.0775,0.0120,-69.6000,28.3500,-10.0500,3.1300,4.0100,-8.2300,-0.0600,0.0447,0.0011,-26.7500,-13.5000,17.0625,257.5000,19.3125,-155.0625,0
305.882,9.0908,4.3742,-0.3735,0.5127,-0.0874,-0.0645,-51.0000,6.1500,23.5500,9.4547,2.4852,-0.5602,0.0810,0.0877,0.0179,-69.6000,28.3500,-10.0500,3.1300,4.0100,-8.2300,-0.0600,0.0447,0.0011,-26.7500,-13.5000,16.2500,257.5000,19.3750,-155.0625,0
305.887,9.0908,4.3742,-0.3735,0.5127,-0.0874,-0.0645,-51.0000,6.1500,23.5500,9.4547,2.4852,-0.5602,0.0810,0.0877,0.0179,-69.7500,28.0500,-11.4000,3.1300,4.1100,-8.1400,-0.0491,0.0382,0.0011,-26.7500,-13.5000,16.2500,257.5000,19.3750,-155.0625,0
305.891,9.3087,4.0869,0.4286,0.4191,-0.1255,-0.0933,-51.0000,6.1500,23.5500,9.5313,2.6480,-0.1341,0.1074,0.0570,0.0234,-69.7500,28.0500,-11.4000,3.1300,4.1100,-8.1400,-0.0491,0.0382,0.0011,-26.7500,-13.5000,16.2500,257.5000,19.3750,-155.0625,0
305.897,9.3087,4.0869,0.4286,0.4191,-0.1255,-0.0933,-51.0000,6.1500,23.5500,9.5313,2.6480,-0.1341,0.1074,0.0570,0.0234,-70.2000,29.2500,-10.6500,3.0600,4.1800,-8.1400,-0.0273,0.0295,0.0000,-26.7500,-13.5000,16.2500,257.5000,19.3750,-155.0625,0
305.906,9.2608,3.9002,1.8747,0.4517,-0.1202,-0.0986,-50.8500,5.5500,23.4000,9.2943,2.7533,-0.1245,0.1679,0.0730,0.0386,-70.2000,29.2500,-10.6500,3.2800,3.9800,-8.2200,-0.0109,0.0251,0.0022,-26.7500,-13.5000,16.2500,257.5000,19.3750,-155.0625,0
305.916,10.0317,3.7469,2.2841,0.3765,0.0632,-0.1215,-48.6000,5.5500,23.1000,9.8976,2.1668,-0.1532,0.2129,0.0536,0.0392,-69.1500,26.7000,-10.8000,3.2000,3.9700,-8.1400,0.0153,0.0087,0.0000,-26.7500,-13.5000,16.2500,257.5000,19.3750,-155.0625,0
305.924,10.6710,3.1675,1.8962,0.3637,0.1330,-0.1982,-50.8500,6.3000,21.3000,10.0006,1.1181,0.8380,0.2960,0.0029,0.0211,-69.1500,26.7000,-10.8000,3.1300,4.1100,-8.3600,0.0415,0.0065,-0.0142,-26.7500,-13.5000,16.2500,257.5000,19.3750,-155.0625,0
305.929,10.6710,3.1675,1.8962,0.3637,0.1330,-0.1982,-50.8500,7.8000,23.8500,10.0269,0.4669,1.1013,0.2502,-0.0530,0.0304,-69.1500,26.7000,-10.8000,3.1300,4.1100,-8.3600,0.0415,0.0065,-0.0142,-26.7500,-13.5000,16.2500,257.5000,19.3750,-155.0625,0
305.933,10.4172,2.5019,0.9816,0.3954,-0.0040,-0.2809,-50.8500,7.8000,23.8500,10.0269,0.4669,1.1013,0.2502,-0.0530,0.0304,-69.1500,26.7000,-10.8000,3.2000,3.8400,-8.4800,0.0469,-0.0044,-0.0153,-27.1875,-14.2500,15.8750,257.5000,19.3750,-155.0625,0
305.938,10.4172,2.5019,0.9816,0.3954,-0.0040,-0.2809,-50.5500,7.2000,23.2500,10.0987,0.6464,0.6225,0.1199,-0.1250,0.0482,-69.6000,28.3500,-10.0500,3.2000,3.8400,-8.4800,0.0469,-0.0044,-0.0153,-27.1875,-14.2500,15.8750,257.5000,19.3750,-155.0625,0
305.943,9.6654,1.9944,-0.0431,0.4738,-0.0357,-0.2958,-50.5500,7.2000,23.2500,10.0987,0.6464,0.6225,0.1199,-0.1250,0.0482,-69.6000,28.3500,-10.0500,3.2800,3.5300,-8.5100,0.0382,-0.0098,-0.0087,-27.1875,-14.2500,15.8750,257.4375,19.3750,-155.1250,0
305.948,9.6654,1.9944,-0.0431,0.4738,-0.0357,-0.2958,-50.5500,7.2000,23.2500,10.0748,1.1396,0.6416,0.1593,-0.1735,0.0418,-69.0000,28.5000,-11.8500,3.2800,3.5300,-8.5100,0.0382,-0.0098,-0.0087,-27.1875,-14.2500,15.8750,257.4375,19.3750,-155.1250,0
305.956,8.9902,1.6879,0.1173,0.6153,0.0738,-0.2185,-50.5500,7.2000,23.2500,9.9503,1.3144,0.9912,0.2411,-0.2198,0.0189,-69.6000,29.5500,-11.2500,3.2100,3.5800,-8.5600,0.0338,-0.0033,-0.0087,-27.1875,-14.2500,15.8750,257.4375,19.3750,-155.1250,0
305.966,8.7484,1.4988,0.9457,0.7298,0.1066,-0.1170,-50.1000,7.5000,23.4000,9.9766,1.3001,1.4293,0.2742,-0.2723,0.0165,-70.5000,28.9500,-11.4000,3.1700,3.6200,-8.5600,0.0229,0.0098,-0.0055,-27.1875,-14.2500,15.8750,257.4375,19.3750,-155.1250,0
305.976,8.5258,1.3815,1.4006,0.7218,0.2102,-0.0304,-49.2000,7.6500,23.2500,9.9958,1.0630,1.6400,0.2641,-0.3123,0.0147,-70.5000,28.9500,-11.4000,3.2200,3.6500,-8.5400,-0.0076,0.0273,0.0000,-27.1875,-14.2500,15.8750,257.4375,19.3750,-155.1250,0
305.981,8.6790,0.9649,1.2234,0.6451,0.2025,0.0480,-50.2500,6.9000,21.4500,9.9958,1.0630,1.6400,0.2641,-0.3123,0.0147,-70.5000,28.9500,-11.4000,3.2200,3.6500,-8.5400,-0.0076,0.0273,0.0000,-27.1875,-14.2500,15.8750,257.4375,19.3750,-155.1250,0
305.986,8.6790,0.9649,1.2234,0.6451,0.2025,0.0480,-50.2500,6.9000,21.4500,10.0269,1.1516,1.3479,0.2273,-0.3901,0.0088,-70.0500,28.6500,-10.8000,3.2800,3.8100,-8.4200,-0.0316,0.0349,0.0022,-26.3750,-13.5000,16.6875,257.4375,19.4375,-155.1250,0
305.991,9.1243,0.6177,1.2857,0.5921,0.1705,0.1199,-49.9500,7.6500,21.9000,10.0269,1.1516,1.3479,0.2273,-0.3901,0.0088,-70.0500,28.6500,-10.8000,3.2800,3.8100,-8.4200,-0.0316,0.0349,0.0022,-26.3750,-13.5000,16.6875,257.4375,19.4375,-155.0625,0
305.996,9.1243,0.6177,1.2857,0.5921,0.1705,0.1199,-49.9500,7.6500,21.9000,9.9240,1.2115,0.9170,0.2113,-0.4636,-0.0053,-70.0500,28.6500,-10.8000,3.3200,3.7300,-8.4600,-0.0458,0.0338,-0.0033,-26.3750,-13.5000,16.6875,257.4375,19.4375,-155.0625,0
306.001,9.3302,0.6536,1.5227,0.6123,0.1114,0.2068,-49.9500,7.6500,21.9000,9.9240,1.2115,0.9170,0.2113,-0.4636,-0.0053,-70.0500,28.6500,-10.8000,3.3200,3.7300,-8.4600,-0.0567,0.0360,-0.0153,-26.3750,-13.5000,16.6875,257.4375,19.4375,-155.0625,0
306.007,9.4308,0.9385,1.6544,0.6278,0.1284,0.2934,-49.9500,7.6500,21.9000,10.0269,1.0439,0.9529,0.1972,-0.5641,-0.0200,-70.0500,28.6500,-11.2500,3.3300,3.7300,-8.4900,-0.0567,0.0360,-0.0153,-26.3750,-13.5000,16.6875,257.4375,19.4375,-155.0625,0
306.015,9.4308,0.9385,1.6544,0.6278,0.1284,0.2934,-49.9500,7.6500,21.9000,9.9431,0.7326,0.9792,0.2164,-0.6462,-0.0504,-70.0500,28.6500,-11.2500,3.2800,3.7500,-8.4600,-0.0742,0.0458,-0.0316,-26.3750,-13.5000,16.6875,257.4375,19.4375,-155.0000,0
306.020,9.5361,1.3934,1.4222,0.6294,0.2124,0.3581,-49.9500,6.1500,20.7000,9.9431,0.7326,0.9792,0.2164,-0.6462,-0.0504,-69.4500,29.2500,-11.8500,3.2800,3.7500,-8.4600,-0.0742,0.0458,-0.0316,-26.3750,-13.5000,16.6875,257.4375,19.5000,-154.9375,0
306.027,9.4930,1.9585,1.1157,0.6742,0.1982,0.3981,-50.5500,7.2000,21.4500,9.9766,0.5076,0.6345,0.2017,-0.7224,-0.0650,-68.4000,28.3500,-12.7500,3.2700,3.7100,-8.4500,-0.1014,0.0600,-0.0469,-26.3750,-13.5000,16.6875,257.4375,19.5000,-154.9375,0
306.032,9.4930,1.9585,1.1157,0.6742,0.1982,0.3981,-50.5500,7.2000,21.4500,9.9766,0.5076,0.6345,0.2017,-0.7224,-0.0650,-68.4000,28.3500,-12.7500,3.2700,3.7100,-8.4500,-0.1014,0.0600,-0.0469,-26.3750,-13.5000,16.6875,257.3750,19.5000,-154.8750,0
306.037,9.5146,2.1069,0.7230,0.7605,0.2076,0.4383,-49.6500,7.5000,21.0000,10.1131,0.5986,0.3184,0.1306,-0.8124,-0.0751,-69.1500,28.3500,-12.0000,3.3200,3.6400,-8.4700,-0.1440,0.0764,-0.0611,-27.5000,-13.5000,17.5000,257.3750,19.5000,-154.8750,0
306.042,9.5146,2.1069,0.7230,0.7605,0.2076,0.4383,-49.6500,7.5000,21.0000,9.8976,1.2378,-0.3424,0.1306,-0.8124,-0.0751,-69.1500,28.3500,-12.0000,3.3200,3.6400,-8.4700,-0.1440,0.0764,-0.0611,-27.5000,-13.5000,17.5000,257.3750,19.5625,-154.7500,0
306.047,9.2584,2.2673,0.5028,0.9308,0.2380,0.4754,-49.6500,7.8000,22.8000,9.8976,1.2378,-0.3424,-0.0093,-0.9353,-0.1069,-70.3500,29.5500,-12.3000,3.3000,3.6300,-8.4800,-0.1931,0.0905,-0.0742,-27.5000,-13.5000,17.5000,257.3750,19.5625,-154.7500,0
306.052,9.2584,2.2673,0.5028,0.9308,0.2380,0.4754,-49.6500,7.8000,22.8000,9.7468,1.5586,-0.2562,-0.0093,-0.9353,-0.1069,-70.3500,29.5500,-12.3000,3.3000,3.6300,-8.4800,-0.2422,0.0905,-0.0774,-27.5000,-13.5000,17.5000,257.3125,19.5625,-154.6250,0
306.057,9.2416,2.3774,0.2705,1.0925,0.1828,0.5007,-49.6500,7.8000,22.8000,9.7468,1.5586,-0.2562,-0.0346,-1.0448,-0.1458,-70.0500,28.3500,-12.0000,3.3700,3.5300,-8.5900,-0.2422,0.0905,-0.0774,-27.5000,-13.5000,17.5000,257.3125,19.5625,-154.6250,0
306.066,9.1698,2.5714,-0.0287,1.1714,0.1266,0.5276,-49.3500,8.5500,21.3000,9.5553,1.8699,-0.3950,0.1463,-1.0821,-0.1735,-70.0500,28.3500,-12.0000,3.3000,3.7900,-8.5300,-0.2934,0.1047,-0.0862,-27.5000,-13.5000,17.5000,257.3125,19.6250,-154.4375,0
306.071,9.1698,2.5714,-0.0287,1.1714,0.1266,0.5276,-49.3500,8.5500,21.3000,9.5600,2.1476,-0.7901,0.1463,-1.0821,-0.1735,-70.0500,28.3500,-12.0000,3.3000,3.7900,-8.5300,-0.3403,0.1527,-0.1036,-27.5000,-13.5000,17.5000,257.2500,19.6250,-154.2500,0
306.077,9.1459,2.6480,-0.3184,1.2135,0.1418,0.5292,-51.0000,8.7000,21.4500,9.5600,2.1476,-0.7901,0.2310,-1.1183,-0.1732,-69.6000,29.5500,-13.0500,3.1300,3.8600,-8.3600,-0.3403,0.1527,-0.1036,-27.5000,-13.5000,17.5000,257.2500,19.6250,-154.2500,0
306.082,9.1459,2.6480,-0.3184,1.2135,0.1418,0.5292,-51.0000,8.7000,21.4500,9.4715,1.9010,-0.7374,0.4034,-1.1141,-0.1583,-69.6000,29.5500,-13.0500,3.1300,3.8600,-8.3600,-0.3851,0.2269,-0.1134,-26.7500,-13.8750,15.5000,257.1875,19.7500,-154.0000,0
306.087,9.0405,2.6121,-0.2586,1.1671,0.0634,0.5359,-49.2000,8.4000,19.6500,9.4715,1.9010,-0.7374,0.4034,-1.1141,-0.1583,-71.1000,29.8500,-12.7500,3.3300,3.8000,-8.3400,-0.3851,0.2269,-0.1134,-26.7500,-13.8750,15.5000,257.1875,19.7500,-154.0000,0
306.092,9.0405,2.6121,-0.2586,1.1671,0.0634,0.5359,-49.2000,8.4000,19.6500,9.3302,1.6712,-1.2210,0.5068,-1.0898,-0.1431,-71.1000,29.8500,-12.7500,3.3300,3.8000,-8.3400,-0.4440,0.2727,-0.1233,-26.7500,-13.8750,15.5000,257.1875,19.8125,-153.6875,0
306.097,8.9112,2.4995,-0.2969,1.1564,0.1148,0.5159,-51.3000,8.4000,21.1500,9.3302,1.6712,-1.2210,0.5068,-1.0898,-0.1431,-68.7000,28.9500,-12.9000,3.2600,3.9600,-8.0700,-0.4440,0.2727,-0.1233,-26.7500,-13.8750,15.5000,257.1875,19.8125,-153.6875,0
306.102,8.9112,2.4995,-0.2969,1.1564,0.1148,0.5159,-51.3000,8.4000,21.1500,9.2249,1.6544,-1.5012,0.4823,-1.1213,-0.1434,-68.7000,28.9500,-12.9000,3.2600,3.9600,-8.0700,-0.4527,0.2313,-0.1254,-26.7500,-13.8750,15.5000,257.1250,19.9375,-153.4375,0
306.107,8.8394,2.6408,-0.0215,1.0869,0.1775,0.4860,-51.3000,8.4000,21.1500,9.2249,1.6544,-1.5012,0.4823,-1.1213,-0.1434,-70.2000,30.0000,-14.4000,3.2100,4.0300,-8.1400,-0.4527,0.2313,-0.1254,-26.7500,-13.8750,15.5000,257.0625,19.9375,-153.1250,0
306.116,9.0860,2.5786,0.0263,0.9611,0.1860,0.4570,-51.3000,8.4000,21.1500,9.2368,1.7693,-1.7717,0.4098,-1.1487,-0.1383,-71.8500,29.1000,-14.2500,3.3300,4.3200,-8.1500,-0.4102,0.1702,-0.1374,-26.7500,-13.8750,15.5000,257.0000,20.0000,-152.8750,0
306.126,9.2751,2.7533,-0.3065,0.9515,0.1836,0.4303,-50.2500,7.2000,20.4000,9.1147,1.6281,-2.0853,0.4754,-1.1293,-0.1106,-70.5000,28.9500,-16.6500,3.3700,4.0900,-8.2600,-0.4091,0.1385,-0.1298,-26.7500,-13.8750,15.5000,257.0000,20.0000,-152.8750,0
306.131,9.2751,2.7533,-0.3065,0.9515,0.1836,0.4303,-50.2500,7.2000,20.4000,9.1698,2.0973,-2.5450,0.4852,-1.1002,-0.0730,-70.5000,28.9500,-16.6500,3.3700,4.0900,-8.2600,-0.4091,0.1385,-0.1298,-26.7500,-13.8750,15.5000,257.0000,20.0000,-152.8750,0
306.136,9.6151,3.2106,-0.3280,0.9856,0.1119,0.3792,-51.4500,6.7500,21.0000,9.1698,2.0973,-2.5450,0.4852,-1.1002,-0.0730,-70.5000,28.9500,-16.6500,3.5000,4.2900,-8.1100,-0.4123,0.0785,-0.1353,-26.7500,-14.5625,16.2500,256.9375,20.0000,-152.6250,0
306.141,9.6151,3.2106,-0.3280,0.9856,0.1119,0.3792,-51.4500,6.7500,21.0000,9.2009,2.3200,-2.0207,0.6281,-1.0408,-0.0509,-70.5000,28.9500,-16.6500,3.5000,4.2900,-8.1100,-0.4123,0.0785,-0.1353,-26.7500,-14.5625,16.2500,256.9375,20.0000,-152.6250,0
306.146,10.1658,3.3998,-0.6584,0.9006,0.1228,0.3088,-50.5500,7.2000,20.4000,9.2009,2.3200,-2.0207,0.6281,-1.0408,-0.0509,-70.2000,28.9500,-16.6500,3.1100,4.0700,-8.3300,-0.3982,0.0044,-0.1625,-26.7500,-14.5625,16.2500,256.9375,19.9375,-152.3750,0
306.152,10.2280,3.0598,-1.7573,0.8135,-0.0077,0.2052,-50.5500,7.2000,20.4000,9.5241,3.0646,-1.9393,0.6310,-0.9824,0.0109,-70.2000,29.7000,-15.1500,4.5200,4.0500,-9.1200,-0.3971,-0.0480,-0.1571,-26.7500,-14.5625,16.2500,256.8750,19.8750,-152.1250,0
306.157,10.2280,3.0598,-1.7573,0.8135,-0.0077,0.2052,-51.3000,9.1500,20.1000,9.6917,2.2434,-2.2386,0.6310,-0.9824,0.0109,-70.2000,29.7000,-15.1500,4.5200,4.0500,-9.1200,-0.3971,-0.0480,-0.1571,-26.7500,-14.5625,16.2500,256.8125,19.7500,-151.8750,0
306.166,9.6151,2.4181,-2.6959,0.8644,-0.0757,0.1332,-51.3000,9.1500,20.1000,9.3589,1.7166,-2.9257,0.7226,-0.8793,0.0759,-69.7500,29.7000,-15.1500,4.5300,4.0000,-9.0800,-0.4331,-0.1440,-0.2083,-26.7500,-14.5625,16.2500,256.8125,19.7500,-151.8750,0
306.176,9.0860,2.2482,-2.8156,0.8407,-0.0248,0.0909,-51.3000,9.1500,19.6500,8.9399,1.5706,-3.5793,0.7080,-0.8180,0.1162,-69.7500,29.7000,-17.4000,3.9600,4.8100,-7.7500,-0.3523,-0.4156,-0.3360,-26.7500,-14.5625,16.2500,256.7500,19.5000,-151.6875,0
306.181,9.0908,2.6863,-2.8299,0.7538,0.0983,0.0877,-51.3000,9.1500,19.6500,8.9399,1.5706,-3.5793,0.6630,-0.7413,0.1356,-69.1500,30.3000,-17.1000,3.9600,4.8100,-7.7500,-0.3523,-0.4156,-0.3360,-26.7500,-14.5625,16.2500,256.5625,19.1250,-151.5000,0
306.186,9.0908,2.6863,-2.8299,0.7538,0.0983,0.0877,-51.0000,7.9500,19.6500,8.7508,1.5347,-4.1611,0.6630,-0.7413,0.1356,-69.1500,30.3000,-17.1000,3.6400,4.7200,-7.6300,-0.2509,-0.4952,-0.4745,-27.1875,-14.6875,14.6875,256.5625,19.1250,-151.5000,0
306.191,9.5241,3.5506,-2.8635,0.7152,0.1367,0.1047,-51.0000,7.9500,19.6500,8.7508,1.5347,-4.1611,0.5332,-0.6779,0.1708,-70.5000,29.2500,-16.6500,3.6400,4.7200,-7.6300,-0.2509,-0.4952,-0.4745,-27.1875,-14.6875,14.6875,256.5625,19.1250,-151.5000,0
306.196,9.5241,3.5506,-2.8635,0.7152,0.1367,0.1047,-51.9000,8.2500,19.9500,8.5784,1.8962,-4.6855,0.5332,-0.6779,0.1708,-70.5000,29.2500,-16.6500,3.8500,4.2100,-8.5000,-0.1494,-0.3883,-0.6120,-27.1875,-14.6875,14.6875,256.2500,18.7500,-151.3125,0
306.201,9.8545,4.3096,-3.2370,0.7160,0.0941,0.0911,-51.9000,8.2500,19.9500,8.5784,1.8962,-4.6855,0.4719,-0.5857,0.1964,-70.8000,28.6500,-15.6000,3.8500,4.2100,-8.5000,-0.0818,-0.4571,-0.7047,-27.1875,-14.6875,14.6875,255.9375,18.3750,-151.1875,0
306.207,9.8545,4.3096,-3.2370,0.7160,0.0941,0.0911,-51.0000,8.7000,19.6500,8.6287,2.5929,-4.7238,0.4263,-0.5177,0.2012,-70.8000,28.6500,-15.6000,3.6900,4.6200,-8.0900,-0.0818,-0.4571,-0.7047,-27.1875,-14.6875,14.6875,255.6250,17.8750,-151.1250,0
306.216,10.0485,4.9799,-3.9720,0.7504,-0.0477,0.0671,-52.6500,8.2500,19.5000,8.6239,3.4548,-4.4939,0.4277,-0.4490,0.1953,-70.8000,28.6500,-15.6000,3.0700,4.9700,-8.0000,-0.0698,-0.5629,-0.7854,-27.1875,-14.6875,14.6875,255.6250,17.8750,-151.1250,0
306.226,9.8234,5.4300,-4.3072,0.7541,-0.2281,0.0557,-52.6500,8.2500,19.5000,8.7580,4.0247,-4.4556,0.5073,-0.3397,0.2198,-70.9500,29.7000,-16.9500,3.5000,4.7500,-8.4200,-0.1494,-0.6218,-0.8214,-27.1875,-14.6875,14.6875,255.2500,17.3750,-150.9375,0
306.231,10.3094,5.4564,-4.0318,0.7506,-0.2934,0.0069,-52.6500,8.2500,19.5000,8.7580,4.0247,-4.4556,0.5073,-0.3397,0.2198,-70.9500,29.7000,-16.9500,3.5000,4.7500,-8.4200,-0.1494,-0.6218,-0.8214,-27.1875,-14.6875,14.6875,254.8750,16.8125,-150.6875,0
306.236,10.3094,5.4564,-4.0318,0.7506,-0.2934,0.0069,-53.1000,8.4000,19.3500,8.8633,4.7118,-4.4532,0.6001,-0.2206,0.2539,-70.9500,29.7000,-16.9500,3.7100,5.0100,-8.7200,-0.2716,-0.6458,-0.8432,-25.6875,-15.0000,15.5000,254.8750,16.8125,-150.6875,0
306.241,10.9774,5.3582,-4.3335,0.7237,-0.3920,-0.0946,-53.1000,8.4000,19.3500,8.8633,4.7118,-4.4532,0.6001,-0.2206,0.2539,-70.2000,28.9500,-16.6500,3.7100,5.0100,-8.7200,-0.2716,-0.6458,-0.8432,-25.6875,-15.0000,15.5000,254.5625,16.2500,-150.4375,0
306.246,10.9774,5.3582,-4.3335,0.7237,-0.3920,-0.0946,-52.8000,9.4500,19.3500,8.9376,5.5091,-4.9536,0.6694,-0.1108,0.2793,-70.2000,28.9500,-16.6500,3.8600,5.9700,-8.6600,-0.3687,-0.7036,-0.8945,-25.6875,-15.0000,15.5000,254.5625,16.2500,-150.4375,0
306.251,11.3509,5.3271,-3.6200,0.6318,-0.4349,-0.2092,-52.8000,9.4500,19.3500,8.9376,5.5091,-4.9536,0.6694,-0.1108,0.2793,-70.3500,31.5000,-18.3000,3.8600,5.9700,-8.6600,-0.3371,-0.7930,-1.0679,-25.6875,-15.0000,15.5000,254.0625,15.5625,-150.1875,0
306.257,11.3509,5.3271,-3.6200,0.6318,-0.4349,-0.2092,-51.9000,8.2500,19.2000,9.1267,5.5881,-4.6759,0.9102,-0.0280,0.2686,-71.7000,29.2500,-18.3000,2.4400,7.1000,-7.1200,-0.3371,-0.7930,-1.0679,-25.6875,-15.0000,15.5000,253.5000,15.0000,-150.0625,0
306.266,11.4634,5.3175,-3.4477,0.4149,-0.4596,-0.2899,-51.3000,9.9000,18.6000,8.8370,5.5474,-3.4740,1.4107,0.1937,0.2755,-71.7000,29.2500,-17.4000,2.9700,9.7200,-7.3100,0.0164,-0.4429,-1.2250,-25.6875,-15.0000,15.5000,253.5000,15.0000,-150.0625,0
306.276,11.1570,5.2385,-3.4213,0.3248,-0.6747,-0.3555,-51.3000,9.9000,18.6000,8.9447,7.5106,-3.6344,1.4578,0.4122,0.2441,-70.8000,29.5500,-18.6000,6.1800,8.9000,-7.3700,0.2203,0.1156,-1.2937,-25.6875,-15.0000,15.5000,252.6875,14.6875,-150.0000,0
306.281,10.1083,5.2241,-2.7988,0.2665,-0.7197,-0.4367,-51.3000,9.9000,18.6000,8.9447,7.5106,-3.6344,1.4578,0.4122,0.2441,-70.0500,30.6000,-17.8500,6.1800,8.9000,-7.3700,0.2203,0.1156,-1.2937,-25.6875,-15.0000,15.5000,252.6875,14.6875,-150.0000,0
306.286,10.1083,5.2241,-2.7988,0.2665,-0.7197,-0.4367,-52.3500,9.1500,16.8000,9.7899,7.2568,-4.8339,1.2113,0.3445,0.2212,-70.0500,30.6000,-17.8500,10.2700,8.4300,-6.6200,0.6883,0.4789,-1.3723,-25.2500,-16.5000,16.6875,251.8125,14.5625,-150.1875,0
306.291,9.1123,5.6647,-2.8946,0.1801,-0.4575,-0.4706,-52.3500,9.1500,16.8000,9.7899,7.2568,-4.8339,1.2113,0.3445,0.2212,-69.6000,30.3000,-17.8500,10.2700,8.4300,-6.6200,0.6883,0.4789,-1.3723,-25.2500,-16.5000,16.6875,251.8125,14.5625,-150.1875,0
306.296,9.1123,5.6647,-2.8946,0.1801,-0.4575,-0.4706,-52.6500,11.2500,18.1500,9.1770,7.2137,-3.8283,1.7669,0.5087,0.2076,-69.6000,30.3000,-17.8500,-0.8900,10.3700,0.4400,1.2599,0.0076,-1.9962,-25.2500,-16.5000,16.6875,250.6250,14.0000,-150.6250,0
306.301,8.5042,6.9671,-3.1268,0.4064,-0.3453,-0.5420,-50.1000,10.0500,18.1500,8.5665,6.8019,-2.6791,1.7669,0.5087,0.2076,-69.6000,30.3000,-17.8500,-0.8900,10.3700,0.4400,1.7541,-0.2749,-2.4685,-25.2500,-16.5000,16.6875,249.1875,13.1875,-151.3125,0
306.307,7.4795,8.4683,-2.0877,0.5569,-0.1943,-0.6566,-50.1000,10.0500,17.4000,8.5665,6.8019,-2.6791,2.1954,0.6739,0.2403,-69.6000,30.3000,-17.8500,0.5300,8.7600,-1.2000,1.7541,-0.2749,-2.4685,-25.2500,-16.5000,16.6875,247.1875,13.1250,-152.0000,0
306.317,7.4077,9.0573,-1.0319,0.7850,-0.0453,-0.7514,-52.8000,10.2000,18.6000,8.4491,6.3351,-2.5115,2.5029,0.7954,0.2747,-70.8000,30.3000,-19.0500,7.0700,11.0900,-4.8000,1.9406,1.4388,-2.9692,-25.2500,-16.5000,16.6875,247.1875,13.1250,-152.0000,0
306.327,7.6734,8.8370,-0.5650,1.0552,0.1759,-0.7397,-49.9500,9.4500,18.3000,8.8155,5.6814,-2.4229,2.7480,0.9124,0.2782,-70.5000,29.7000,-17.7000,5.0200,7.9900,-5.0900,2.1697,1.5643,-3.4285,-25.2500,-16.5000,16.6875,244.9375,13.0000,-152.6875,0
306.331,7.6734,8.8370,-0.5650,1.0552,0.1759,-0.7397,-49.9500,9.4500,18.3000,8.8945,4.9440,-1.5897,3.1253,1.0605,0.2491,-72.3000,30.3000,-19.0500,5.0200,7.9900,-5.0900,2.1697,1.5643,-3.4285,-25.2500,-16.5000,16.6875,244.9375,13.0000,-152.6875,0
306.337,7.6902,7.7141,-0.3855,1.3430,0.3744,-0.6512,-49.9500,9.4500,18.3000,8.8945,4.9440,-1.5897,3.1253,1.0605,0.2491,-72.3000,30.3000,-19.0500,4.2400,6.6100,-4.1100,2.4424,1.2468,-3.5834,-23.7500,-17.8750,17.8750,242.6250,12.7500,-153.5625,0
306.341,7.6902,7.7141,-0.3855,1.3430,0.3744,-0.6512,-50.4000,11.5500,17.4000,8.7676,5.4995,-0.5746,3.3817,1.2489,0.1652,-72.3000,29.5500,-18.3000,4.2400,6.6100,-4.1100,2.4424,1.2468,-3.5834,-23.7500,-17.8750,17.8750,242.6250,12.7500,-153.5625,0
306.347,8.0924,6.9192,-0.9194,1.8945,0.4453,-0.5561,-50.4000,11.5500,17.4000,8.7676,5.4995,-0.5746,3.3817,1.2489,0.1652,-72.3000,29.5500,-18.3000,5.9500,5.7600,-4.2200,2.4773,1.6952,-3.5768,-23.7500,-17.8750,17.8750,240.2500,12.6875,-154.4375,0
306.354,8.0924,6.9192,-0.9194,1.8945,0.4453,-0.5561,-50.5500,10.6500,18.3000,8.2839,4.5274,1.1444,3.3228,1.4328,0.0253,-70.8000,29.8500,-19.0500,11.1400,0.5200,-2.9800,2.3060,2.3126,-3.1776,-23.7500,-17.8750,17.8750,238.0625,13.1250,-155.2500,0
306.359,8.5449,6.1435,-1.0942,2.4392,0.5774,-0.5289,-50.5500,10.6500,18.3000,8.3797,3.2537,1.6496,3.3228,1.4328,0.0253,-73.2000,29.7000,-19.2000,11.1400,0.5200,-2.9800,2.3060,2.3126,-3.1776,-23.7500,-17.8750,17.8750,236.2500,14.1250,-155.8125,0
306.367,9.1435,5.6000,-1.7837,2.9220,0.7109,-0.5486,-50.1000,10.0500,16.3500,8.3797,3.2537,1.6496,3.5741,1.6827,-0.0554,-73.2000,29.7000,-19.2000,10.0100,0.5400,-6.9900,1.9144,3.0423,-2.3551,-23.7500,-17.8750,17.8750,234.6875,14.7500,-156.3750,0
306.377,9.0597,5.2720,-2.0686,3.2077,0.7096,-0.5915,-51.1500,12.3000,14.8500,9.0501,2.9449,1.5371,3.6055,1.7429,-0.1575,-73.2000,29.7000,-19.2000,9.9800,2.4600,-5.9100,1.6701,2.1980,-2.1871,-23.7500,-17.8750,17.8750,234.6875,14.7500,-156.3750,0
306.382,9.0597,5.2720,-2.0686,3.2077,0.7096,-0.5915,-51.1500,12.3000,14.8500,9.2703,2.3894,1.2785,3.4392,1.8540,-0.2238,-71.7000,29.2500,-21.0000,9.9800,2.4600,-5.9100,1.6701,2.1980,-2.1871,-21.2500,-20.7500,16.6875,233.1250,14.9375,-156.4375,0
306.387,8.7221,5.1164,-1.5538,3.3998,0.7128,-0.6262,-51.1500,12.3000,14.8500,9.2703,2.3894,1.2785,3.4392,1.8540,-0.2238,-71.7000,29.2500,-21.0000,7.4300,6.7200,-6.5100,0.7538,1.3057,-2.0115,-21.2500,-20.7500,16.6875,233.1250,14.9375,-156.4375,0
306.392,8.7221,5.1164,-1.5538,3.3998,0.7128,-0.6262,-48.9000,11.5500,14.5500,9.3805,1.7597,0.6009,3.2530,1.8924,-0.2462,-71.7000,29.2500,-21.0000,7.4300,6.7200,-6.5100,0.7538,1.3057,-2.0115,-21.2500,-20.7500,16.6875,231.8125,15.3750,-156.4375,0
306.397,8.3270,5.0015,-0.6656,3.5418,0.8108,-0.6374,-48.9000,11.5500,14.5500,9.3805,1.7597,0.6009,3.2530,1.8924,-0.2462,-71.7000,29.2500,-21.0000,6.9300,6.9800,-7.2200,0.6796,1.7126,-1.9275,-21.2500,-20.7500,16.6875,231.8125,15.3750,-156.4375,0
306.402,8.3270,5.0015,-0.6656,3.5418,0.8108,-0.6374,-50.8500,11.2500,14.5500,9.5122,1.2210,0.2682,2.9500,1.8796,-0.2230,-71.2500,31.2000,-19.2000,6.9300,6.9800,-7.2200,1.1574,2.0529,-1.9831,-21.2500,-20.7500,16.6875,230.4375,16.0000,-156.6875,0
306.407,8.0900,4.9536,0.0096,3.6031,0.8745,-0.6251,-50.8500,11.2500,14.5500,9.5529,0.9481,0.3998,2.9500,1.8796,-0.2230,-71.2500,31.2000,-19.2000,5.7000,5.0600,-6.7700,1.1574,2.0529,-1.9831,-21.2500,-20.7500,16.6875,228.8750,16.4375,-156.9375,0
306.417,7.9607,4.7405,0.6345,3.6814,0.9395,-0.6097,-50.1000,11.2500,13.5000,9.4140,1.3048,0.2251,2.6670,1.8119,-0.1737,-70.8000,30.6000,-19.3500,4.4600,4.5600,-5.8400,1.2534,1.8151,-2.1751,-21.2500,-20.7500,16.6875,228.8750,16.4375,-156.9375,0
306.427,8.0086,4.4293,1.2689,3.7782,0.9569,-0.6049,-49.2000,13.2000,13.3500,9.0692,1.4198,0.3328,2.4304,1.7288,-0.1476,-71.1000,31.5000,-20.8500,4.5100,4.8500,-6.1000,1.0908,1.9460,-2.3900,-21.2500,-20.7500,16.6875,227.2500,16.9375,-157.0000,0
306.432,8.0086,4.4293,1.2689,3.7782,0.9569,-0.6049,-48.0000,12.9000,13.3500,9.0692,1.4198,0.3328,2.2886,1.7104,-0.1708,-71.2500,31.9500,-19.5000,4.5100,4.8500,-6.1000,1.0908,1.9460,-2.3900,-21.2500,-20.7500,16.6875,227.2500,16.9375,-157.0000,0
306.436,7.6830,3.9816,1.4054,3.7329,0.9316,-0.5891,-48.0000,12.9000,13.3500,8.9759,1.4988,0.7709,2.2886,1.7104,-0.1708,-71.2500,31.9500,-19.5000,4.2700,4.1300,-6.4900,0.9872,2.1708,-2.4838,-19.7500,-22.6875,15.5000,225.5000,17.5000,-157.0625,0
306.441,7.6830,3.9816,1.4054,3.7329,0.9316,-0.5891,-48.0000,12.9000,13.3500,8.9759,1.4988,0.7709,2.2841,1.6633,-0.2206,-72.9000,31.9500,-18.4500,4.2700,4.1300,-6.4900,0.9872,2.1708,-2.4838,-19.7500,-22.6875,15.5000,225.5000,17.5000,-157.0625,0
306.446,8.0948,3.5793,1.1444,3.6428,0.9721,-0.5966,-48.0000,12.9000,13.3500,9.1889,1.6616,0.9816,2.2841,1.6633,-0.2206,-72.9000,31.9500,-18.4500,4.1100,3.5200,-7.0900,0.9032,2.3049,-2.4435,-19.7500,-22.6875,15.5000,223.8125,18.1875,-157.0000,0
306.451,8.0948,3.5793,1.1444,3.6428,0.9721,-0.5966,-48.7500,14.7000,11.5500,9.1889,1.6616,0.9816,2.2934,1.6262,-0.2619,-71.7000,32.8500,-19.2000,4.1100,3.5200,-7.0900,0.7079,2.3289,-2.3736,-19.7500,-22.6875,15.5000,222.1875,18.8125,-156.8125,0
306.457,8.2887,3.1580,0.9601,3.5112,1.0030,-0.5918,-48.7500,14.7000,11.5500,9.4236,1.8411,1.0558,2.2543,1.5585,-0.2907,-71.7000,32.8500,-19.2000,3.7700,2.9400,-8.4100,0.7079,2.3289,-2.3736,-19.7500,-22.6875,15.5000,220.6250,19.3750,-156.5000,0
306.467,8.6742,2.5618,0.6488,3.4187,1.0541,-0.6011,-47.4000,14.4000,12.9000,9.6223,1.8699,0.7302,2.2681,1.4663,-0.3115,-71.7000,32.8500,-19.2000,3.0900,2.8500,-8.5300,0.4527,2.0900,-2.2897,-19.7500,-22.6875,15.5000,220.6250,19.3750,-156.5000,0
306.477,8.8945,2.0830,0.5722,3.3700,1.0946,-0.6118,-49.9500,15.4500,9.7500,9.6343,1.6568,0.4357,2.2846,1.3992,-0.2974,-71.2500,34.3500,-18.4500,2.6100,2.8400,-8.7900,0.2225,1.9122,-2.1446,-19.7500,-22.6875,15.5000,219.1875,19.8750,-156.0625,0
306.482,8.8107,1.7813,0.6847,3.3201,1.1018,-0.6355,-46.9500,13.2000,11.5500,9.6343,1.6568,0.4357,2.2846,1.3992,-0.2974,-70.8000,33.7500,-19.8000,2.6100,2.8400,-8.7900,0.2225,1.9122,-2.1446,-19.7500,-22.6875,15.5000,219.1875,19.8750,-156.0625,0
306.487,8.8107,1.7813,0.6847,3.3201,1.1018,-0.6355,-46.9500,13.2000,11.5500,9.6654,1.4461,0.3304,2.3105,1.3227,-0.2673,-70.8000,33.7500,-19.8000,2.2400,3.0600,-8.8800,0.0600,1.8642,-1.9842,-18.7500,-25.2500,13.3750,217.3125,20.3750,-155.5625,0
306.492,8.8107,1.6544,0.9744,3.2407,1.0531,-0.6749,-46.9500,13.2000,11.5500,9.6654,1.4461,0.3304,2.3105,1.3227,-0.2673,-70.5000,32.8500,-19.9500,2.2400,3.0600,-8.8800,0.0600,1.8642,-1.9842,-18.7500,-25.2500,13.3750,217.3125,20.3750,-155.5625,0
306.497,8.8107,1.6544,0.9744,3.2407,1.0531,-0.6749,-46.9500,13.2000,11.5500,9.7372,1.2641,0.3065,2.3603,1.1983,-0.2372,-70.5000,32.8500,-19.9500,2.0100,4.1200,-9.0400,-0.0295,1.7901,-1.8719,-18.7500,-25.2500,13.3750,216.0625,20.8750,-155.0625,0
306.502,8.9807,1.6544,1.1803,3.0595,1.0067,-0.7152,-48.3000,14.5500,10.2000,9.7372,1.2641,0.3065,2.3603,1.1983,-0.2372,-71.2500,31.9500,-19.5000,2.0100,4.1200,-9.0400,0.0175,1.7224,-1.7966,-18.7500,-25.2500,13.3750,214.8750,21.3125,-154.5625,0
306.508,8.9807,1.6544,1.1803,3.0595,1.0067,-0.7152,-47.1000,14.5500,10.2000,9.5936,1.1301,0.6009,2.3662,1.0741,-0.1958,-71.2500,31.9500,-19.5000,1.7900,4.6300,-9.1000,0.0175,1.7224,-1.7966,-18.7500,-25.2500,13.3750,213.6250,21.6875,-154.1250,0
306.517,8.8849,1.5658,1.3623,2.8661,0.9920,-0.7687,-47.1000,13.5000,9.1500,9.6534,0.8667,0.3448,2.3752,0.9507,-0.1724,-70.5000,33.6000,-20.2500,1.6800,4.8700,-9.2400,0.1909,1.6919,-1.7748,-18.7500,-25.2500,13.3750,213.6250,21.6875,-154.1250,0
306.527,8.8801,1.4772,1.1923,2.7046,0.9721,-0.8180,-47.5500,15.3000,7.0500,9.7252,0.6321,0.2370,2.3803,0.8207,-0.1519,-72.3000,34.2000,-19.0500,1.4100,5.0500,-9.0000,0.3829,1.6657,-1.8610,-18.7500,-25.2500,13.3750,212.3750,22.0625,-153.8125,0
306.532,8.8729,1.4269,1.0702,2.6007,0.9574,-0.8559,-45.9000,14.4000,8.7000,9.8090,0.5267,0.1580,2.3803,0.8207,-0.1519,-72.3000,34.2000,-19.0500,1.4100,5.0500,-9.0000,0.3829,1.6657,-1.8610,-18.7500,-25.2500,13.3750,211.0000,22.3750,-153.5625,0
306.537,8.8729,1.4269,1.0702,2.6007,0.9574,-0.8559,-46.6500,14.7000,6.1500,9.8090,0.5267,0.1580,2.3942,0.6867,-0.1551,-72.3000,34.2000,-19.0500,0.8300,5.0200,-8.5600,0.5400,1.5643,-2.0082,-15.8750,-27.1875,12.1875,211.0000,22.3750,-153.5625,0
306.542,9.0668,1.2737,0.7877,2.5245,0.9483,-0.8644,-46.6500,14.7000,6.1500,9.8282,0.4693,0.2466,2.3942,0.6867,-0.1551,-71.7000,34.3500,-20.2500,0.8300,5.0200,-8.5600,0.5400,1.5643,-2.0082,-15.8750,-27.1875,12.1875,209.5000,22.5625,-153.3125,0
306.547,9.0668,1.2737,0.7877,2.5245,0.9483,-0.8644,-46.6500,14.7000,6.1500,9.8282,0.4693,0.2466,2.4181,0.5505,-0.1785,-71.7000,34.3500,-20.2500,0.5100,4.8600,-8.1700,0.6490,1.4955,-2.1577,-15.8750,-27.1875,12.1875,209.5000,22.5625,-153.3125,0
306.556,9.2608,1.2186,0.4070,2.4088,0.8908,-0.8524,-46.6500,14.7000,6.1500,9.8258,0.4764,0.3543,2.4552,0.4138,-0.2214,-71.7000,34.3500,-20.2500,0.5200,4.7500,-8.0700,0.6720,1.5250,-2.2897,-15.8750,-27.1875,12.1875,208.0000,22.7500,-153.0625,0
306.561,9.5217,1.0582,-0.0311,2.2671,0.8455,-0.8362,-43.5000,15.3000,6.3000,9.8258,0.4836,0.2849,2.4552,0.4138,-0.2214,-71.2500,34.8000,-21.7500,0.5200,4.7500,-8.0700,0.6720,1.5250,-2.2897,-15.8750,-27.1875,12.1875,206.3750,22.9375,-152.7500,0
306.568,9.6534,0.9266,-0.4741,2.0861,0.8175,-0.8068,-45.1500,15.1500,6.9000,9.8258,0.4836,0.2849,2.4784,0.2811,-0.2755,-71.2500,34.8000,-21.7500,0.8700,4.7800,-8.0000,0.6120,1.5457,-2.3933,-15.8750,-27.1875,12.1875,204.7500,23.0000,-152.3125,0
306.577,9.6534,0.9266,-0.4741,1.8951,0.8207,-0.7823,-46.5000,16.0500,6.7500,9.8114,0.4357,0.0670,2.5109,0.1713,-0.3293,-70.0500,34.9500,-20.8500,0.8500,4.8700,-8.0000,0.4854,1.5021,-2.4718,-15.8750,-27.1875,12.1875,204.7500,23.0000,-152.3125,0
306.582,9.4619,0.8859,-0.7614,1.8951,0.8207,-0.7823,-46.5000,16.0500,6.7500,9.7899,0.3184,0.2634,2.5767,0.1010,-0.3885,-70.5000,35.5500,-21.4500,0.8500,4.8700,-8.0000,0.4854,1.5021,-2.4718,-14.5625,-29.6875,10.8750,203.1250,23.0625,-151.8125,0
306.587,9.3948,0.9744,-1.0870,1.7509,0.8143,-0.7552,-46.0500,15.3000,5.7000,9.7899,0.3184,0.2634,2.5767,0.1010,-0.3885,-70.5000,35.5500,-21.4500,0.8900,5.0500,-7.9000,0.3709,1.4268,-2.5209,-14.5625,-29.6875,10.8750,203.1250,23.0625,-151.8125,0
306.592,9.3948,0.9744,-1.0870,1.7509,0.8143,-0.7552,-46.0500,15.3000,5.7000,9.7755,0.2298,0.3017,2.6103,0.0021,-0.4477,-71.2500,34.3500,-24.3000,0.8900,5.0500,-7.9000,0.3709,1.4268,-2.5209,-14.5625,-29.6875,10.8750,201.5000,23.0625,-151.3125,0
306.597,9.3350,1.0175,-1.3408,1.6305,0.8348,-0.7256,-46.0500,15.3000,5.7000,9.7755,0.2298,0.3017,2.6103,0.0021,-0.4477,-71.2500,34.3500,-24.3000,1.7500,5.4100,-8.3300,0.2782,1.4061,-2.5515,-14.5625,-29.6875,10.8750,201.5000,23.0625,-151.3125,0
306.602,9.3350,1.0175,-1.3408,1.6305,0.8348,-0.7256,-46.0500,15.3000,5.7000,9.8474,0.1077,0.2322,2.5508,-0.0997,-0.4871,-71.2500,34.3500,-24.3000,1.7500,5.4100,-8.3300,0.1974,1.3395,-2.5940,-14.5625,-29.6875,10.8750,199.8750,23.0625,-150.7500,0
306.608,9.2943,1.2186,-1.4341,1.5665,0.8021,-0.6920,-44.8500,13.9500,5.1000,9.8474,0.1077,0.2322,2.5508,-0.0997,-0.4871,-71.2500,34.3500,-24.3000,1.7800,5.4700,-8.3700,0.1974,1.3395,-2.5940,-14.5625,-29.6875,10.8750,198.1875,22.9375,-150.1250,0
306.617,9.3757,1.4964,-1.5419,1.5396,0.8010,-0.6574,-45.1500,16.2000,5.1000,10.0126,0.0215,0.1676,2.4672,-0.1996,-0.5065,-69.6000,35.7000,-24.1500,2.0000,5.5700,-8.2500,0.1625,1.2119,-2.6344,-14.5625,-29.6875,10.8750,198.1875,22.9375,-150.1250,0
306.627,9.3757,1.9297,-1.6855,1.4837,0.7618,-0.6459,-44.8500,16.9500,4.8000,10.0413,-0.1125,0.0503,2.3995,-0.2856,-0.5209,-69.6000,35.7000,-24.1500,2.1000,5.2000,-8.3900,0.1418,1.1257,-2.6518,-14.5625,-29.6875,10.8750,196.5625,22.6875,-149.5625,0
306.632,9.3757,1.9297,-1.6855,1.4837,0.7618,-0.6459,-44.8500,16.9500,4.8000,10.0389,-0.1939,-0.1101,2.2926,-0.3656,-0.5367,-70.3500,35.7000,-25.3500,2.1000,5.2000,-8.3900,0.1418,1.1257,-2.6518,-14.5625,-29.6875,10.8750,194.8750,22.4375,-148.9375,0
306.637,9.4020,2.2889,-1.6783,1.4040,0.7458,-0.6398,-43.5000,16.0500,3.4500,10.0365,-0.3160,-0.2634,2.2926,-0.3656,-0.5367,-70.3500,35.7000,-25.3500,2.2100,5.0300,-8.3900,0.1309,1.0319,-2.6649,-11.0000,-31.1875,9.5625,194.8750,22.4375,-148.9375,0
306.642,9.4020,2.2889,-1.6783,1.4040,0.7458,-0.6398,-43.5000,16.0500,3.4500,10.0365,-0.3160,-0.2634,2.1669,-0.4333,-0.5574,-68.7000,35.5500,-25.8000,2.2100,5.0300,-8.3900,0.1309,1.0319,-2.6649,-11.0000,-31.1875,9.5625,193.2500,22.1250,-148.3750,0
306.647,9.4786,2.4948,-1.7454,1.3347,0.7048,-0.6336,-45.1500,14.7000,3.6000,10.1011,-0.3184,-0.2682,2.1669,-0.4333,-0.5574,-68.7000,35.5500,-25.8000,2.4400,4.9900,-8.3900,0.1124,0.9730,-2.6704,-11.0000,-31.1875,9.5625,193.2500,22.1250,-148.3750,0
306.656,9.4020,2.5953,-1.8220,1.2902,0.6582,-0.6067,-45.1500,14.7000,3.6000,10.1011,-0.3184,-0.2682,2.0616,-0.4884,-0.5702,-68.8500,36.1500,-26.4000,2.7300,4.9200,-8.5900,0.1025,0.9119,-2.6409,-11.0000,-31.1875,9.5625,191.6250,21.8125,-147.8125,0
306.660,9.4020,2.5953,-1.8220,1.2902,0.6582,-0.6067,-45.1500,14.7000,3.6000,10.0533,-0.4190,-0.4573,1.9529,-0.5297,-0.5915,-68.8500,36.1500,-26.4000,2.7300,4.9200,-8.5900,0.1025,0.9119,-2.6409,-11.0000,-31.1875,9.5625,190.0625,21.4375,-147.3125,0
306.668,9.2464,2.4948,-1.8986,1.3217,0.6936,-0.5891,-44.8500,16.2000,4.8000,10.0341,-0.5770,-0.4980,1.8421,-0.5630,-0.6139,-69.7500,36.0000,-27.0000,3.1300,4.5300,-8.5800,0.1058,0.8214,-2.5755,-11.0000,-31.1875,9.5625,188.5625,21.0000,-146.8750,0
306.677,9.5002,2.4157,-1.9393,1.3840,0.6981,-0.5870,-43.2000,16.0500,2.4000,10.0173,-0.6129,-0.5004,1.7312,-0.5844,-0.6342,-68.7000,36.7500,-28.5000,3.1400,4.3100,-8.5000,0.1036,0.7189,-2.4816,-11.0000,-31.1875,9.5625,188.5625,21.0000,-146.8750,0
306.682,9.5002,2.4157,-1.9393,1.3840,0.6981,-0.5870,-43.2000,16.0500,2.4000,10.0173,-0.6129,-0.5004,1.7312,-0.5844,-0.6342,-67.3500,37.3500,-28.9500,3.1400,4.3100,-8.5000,0.1036,0.7189,-2.4816,-11.0000,-31.1875,9.5625,188.5625,21.0000,-146.8750,0
306.687,9.1722,2.2697,-1.9034,1.4226,0.6960,-0.5910,-41.4000,15.3000,2.4000,9.9503,-0.5483,-0.6393,1.5921,-0.6019,-0.6582,-67.3500,37.3500,-28.9500,3.2800,4.1800,-8.3500,0.0676,0.6218,-2.3693,-7.3750,-32.0000,9.5000,187.1875,20.5625,-146.3750,0
306.692,9.1722,2.2697,-1.9034,1.4226,0.6960,-0.5910,-41.4000,15.3000,2.4000,9.9503,-0.5483,-0.6393,1.5921,-0.6019,-0.6582,-67.3500,37.3500,-28.9500,3.2800,4.1800,-8.3500,0.0676,0.6218,-2.3693,-7.3750,-32.0000,9.5000,187.1875,20.5625,-146.3750,0
306.697,9.4834,2.1213,-2.2865,1.4701,0.6928,-0.5758,-41.8500,16.6500,2.5500,10.0030,-0.5722,-0.6225,1.4815,-0.6203,-0.6808,-67.3500,37.3500,-28.9500,3.4600,3.9200,-8.2200,-0.0098,0.5378,-2.2373,-7.3750,-32.0000,9.5000,185.8125,20.1250,-145.9375,0
306.702,9.4834,2.1213,-2.2865,1.4701,0.6928,-0.5758,-41.8500,16.6500,2.5500,10.0030,-0.5722,-0.6225,1.4815,-0.6203,-0.6808,-67.3500,37.3500,-28.9500,3.4600,3.9200,-8.2200,-0.1167,0.4440,-2.1086,-7.3750,-32.0000,9.5000,184.6250,19.6875,-145.5000,0
306.708,9.4523,2.0518,-2.4852,1.4917,0.6494,-0.5423,-41.8500,16.6500,2.5500,9.9910,-0.4860,-0.5267,1.3845,-0.6267,-0.6840,-68.8500,36.1500,-28.6500,3.5100,3.9500,-8.2600,-0.1167,0.4440,-2.1086,-7.3750,-32.0000,9.5000,183.4375,19.2500,-145.0000,0
306.717,9.4092,2.1500,-2.5690,1.5402,0.5569,-0.5172,-41.8500,16.6500,2.5500,9.8809,-0.3759,-0.5698,1.2782,-0.6083,-0.6880,-67.9500,36.0000,-28.8000,3.8000,4.2200,-8.4000,-0.2476,0.4025,-1.9897,-7.3750,-32.0000,9.5000,183.4375,19.2500,-145.0000,0
306.727,9.1626,2.2098,-2.6935,1.5721,0.4975,-0.4967,-40.5000,15.4500,1.9500,9.7396,-0.2298,-0.8571,1.1714,-0.5702,-0.6795,-66.6000,37.6500,-30.1500,4.2500,4.3300,-8.3600,-0.3360,0.4058,-1.9002,-7.3750,-32.0000,9.5000,182.3750,18.8125,-144.4375,0
306.732,8.8921,2.1907,-2.8012,1.5737,0.5308,-0.4940,-40.5000,15.4500,1.9500,9.7396,-0.2298,-0.8571,1.1714,-0.5702,-0.6795,-66.6000,37.6500,-30.1500,4.2500,4.3300,-8.3600,-0.3360,0.4058,-1.9002,-3.7500,-33.0625,8.5625,181.3125,18.3750,-143.9375,0
306.737,8.8921,2.1907,-2.8012,1.5737,0.5308,-0.4940,-41.4000,16.8000,2.4000,9.6798,-0.1221,-0.7781,1.1069,-0.5436,-0.6715,-65.8500,39.3000,-30.4500,4.0800,4.0100,-8.3500,-0.3425,0.3720,-1.8097,-3.7500,-33.0625,8.5625,181.3125,18.3750,-143.9375,0
306.742,9.2225,2.2051,-2.8108,1.5423,0.5553,-0.4919,-41.4000,16.8000,2.4000,9.6798,-0.1221,-0.7781,1.1069,-0.5436,-0.6715,-67.3500,37.6500,-31.9500,4.0800,4.0100,-8.3500,-0.3425,0.3720,-1.8097,-3.7500,-33.0625,8.5625,180.3750,17.9375,-143.5000,0
306.747,9.2225,2.2051,-2.8108,1.5423,0.5553,-0.4919,-40.0500,16.6500,1.5000,9.5720,0.0072,-0.7877,1.0733,-0.5002,-0.6464,-67.3500,37.6500,-31.9500,4.0000,3.7800,-8.2800,-0.3251,0.3000,-1.7126,-3.7500,-33.0625,8.5625,180.3750,17.9375,-143.5000,0
306.756,9.2392,2.3080,-2.3655,1.4618,0.5063,-0.4930,-41.5500,16.2000,1.5000,9.6007,0.1365,-0.9840,1.0627,-0.4676,-0.6283,-66.6000,36.9000,-31.6500,4.1700,3.7100,-8.2700,-0.3360,0.2662,-1.6352,-3.7500,-33.0625,8.5625,179.4375,17.5625,-143.0625,0
306.763,9.4212,2.3774,-2.3655,1.2953,0.4559,-0.4938,-41.5500,16.2000,1.5000,9.5409,0.0742,-0.8954,1.0627,-0.4676,-0.6283,-66.6000,36.9000,-31.6500,4.1700,3.7100,-8.2700,-0.3436,0.2673,-1.5817,-3.7500,-33.0625,8.5625,178.5625,17.1250,-142.6250,0
306.768,9.4212,2.3774,-2.3655,1.2953,0.4559,-0.4938,-41.5500,16.2000,1.5000,9.5409,0.0742,-0.8954,1.0648,-0.4498,-0.6014,-66.6000,36.9000,-31.6500,4.0300,3.8100,-8.0300,-0.3436,0.2673,-1.5817,-3.7500,-33.0625,8.5625,177.6875,16.6875,-142.1875,0
306.777,9.2105,2.3152,-2.4612,1.1064,0.4237,-0.4863,-42.3000,15.4500,2.2500,9.5672,0.2514,-1.0798,1.0597,-0.4069,-0.5729,-66.0000,37.9500,-32.1000,3.8800,3.7200,-7.8900,-0.3109,0.2498,-1.5228,-3.7500,-33.0625,8.5625,177.6875,16.6875,-142.1875,0
306.782,9.0046,2.2027,-2.2529,0.9673,0.4602,-0.4594,-42.3000,15.4500,2.2500,9.5457,0.3759,-1.1349,1.0597,-0.4069,-0.5729,-66.0000,37.9500,-32.1000,3.8800,3.7200,-7.8900,-0.3109,0.2498,-1.5228,-3.7500,-33.0625,8.5625,176.8125,16.3750,-141.8125,0
306.787,9.0046,2.2027,-2.2529,0.9673,0.4602,-0.4594,-42.6000,15.4500,1.5000,9.5457,0.3759,-1.1349,1.0765,-0.3733,-0.5486,-66.0000,37.9500,-32.1000,3.9500,3.6200,-7.9200,-0.2814,0.3163,-1.4584,-1.0000,-34.6875,6.5625,176.8125,16.3750,-141.8125,0
306.792,8.9040,2.1739,-2.2482,0.8423,0.5705,-0.4202,-42.6000,15.4500,1.5000,9.4643,0.6033,-1.0870,1.1314,-0.3501,-0.5052,-66.0000,37.9500,-32.1000,3.9500,3.6200,-7.9200,-0.2814,0.3163,-1.4584,-1.0000,-34.6875,6.5625,176.0000,16.0625,-141.4375,0
306.797,8.9040,2.1739,-2.2482,0.8423,0.5705,-0.4202,-40.5000,14.7000,1.2000,9.4643,0.6033,-1.0870,1.1314,-0.3501,-0.5052,-66.3000,37.5000,-32.5500,3.8100,3.9800,-7.9900,-0.2574,0.3905,-1.4246,-1.0000,-34.6875,6.5625,176.0000,16.0625,-141.4375,0
306.802,8.8107,2.2338,-2.1787,0.6947,0.5201,-0.3938,-40.5000,14.7000,1.2000,9.2775,0.8499,-1.1109,1.2375,-0.3216,-0.4519,-66.3000,37.5000,-32.5500,3.8100,3.9800,-7.9900,-0.2040,0.4058,-1.4301,-1.0000,-34.6875,6.5625,175.1250,15.6875,-141.1250,0
306.808,8.8107,2.2338,-2.1787,0.6947,0.5201,-0.3938,-41.8500,15.1500,2.2500,9.2775,0.8499,-1.1109,1.2375,-0.3216,-0.4519,-65.5500,37.5000,-32.1000,3.7400,4.2400,-7.8800,-0.2040,0.4058,-1.4301,-1.0000,-34.6875,6.5625,174.2500,15.4375,-140.8750,0
306.817,8.5736,2.6049,-2.1045,0.5995,0.4922,-0.3714,-41.8500,15.1500,2.2500,9.1171,0.9409,-1.1899,1.3843,-0.2819,-0.3872,-66.9000,37.3500,-32.4000,3.7700,4.3700,-7.8300,-0.0654,0.5007,-1.4803,-1.0000,-34.6875,6.5625,174.2500,15.4375,-140.8750,0
306.827,8.4563,2.8419,-1.8890,0.5009,0.5311,-0.3459,-41.8500,15.1500,2.2500,9.1028,0.9146,-1.0343,1.6425,-0.2358,-0.3083,-64.8000,38.7000,-35.1000,3.8600,4.1600,-7.6400,0.1571,0.6589,-1.5773,-1.0000,-34.6875,6.5625,173.1875,15.1250,-140.6875,0
306.832,8.4563,3.0047,-1.9704,0.4708,0.5862,-0.3075,-41.8500,15.1500,2.2500,9.0956,0.7949,-0.8787,1.8727,-0.2004,-0.2430,-64.8000,38.7000,-35.1000,3.8600,4.1600,-7.6400,0.1571,0.6589,-1.5773,-1.0000,-34.6875,6.5625,173.1875,15.1250,-140.6875,0
306.837,8.4563,3.0047,-1.9704,0.4708,0.5862,-0.3075,-40.8000,15.1500,-0.1500,9.0956,0.7949,-0.8787,1.8727,-0.2004,-0.2430,-64.8000,38.7000,-35.1000,3.8100,3.9900,-7.5100,0.4112,0.8039,-1.7137,0.3750,-34.6875,6.1875,172.0625,14.8750,-140.6250,0
306.842,8.2504,3.2010,-2.2027,0.5185,0.6070,-0.2462,-41.1000,15.1500,0.4500,9.0716,0.4621,-0.7374,2.0864,-0.1274,-0.1916,-64.8000,38.7000,-35.1000,3.8100,3.9900,-7.5100,0.4112,0.8039,-1.7137,0.3750,-34.6875,6.1875,172.0625,14.8750,-140.6250,0
306.847,8.2504,3.2010,-2.2027,0.5185,0.6070,-0.2462,-41.1000,15.1500,0.4500,9.0716,0.4621,-0.7374,2.0864,-0.1274,-0.1916,-64.3500,38.1000,-34.2000,4.1300,3.7400,-7.4600,0.6294,0.9272,-1.8664,0.3750,-34.6875,6.1875,170.8125,14.6250,-140.6875,0
306.857,8.2001,3.2034,-2.2098,0.6328,0.6720,-0.1580,-40.2000,17.2500,0.3000,9.2009,0.0215,-0.4286,2.2740,-0.0775,-0.1665,-64.3500,38.1000,-34.2000,4.5000,3.2300,-7.6700,0.7559,1.0756,-2.0028,0.3750,-34.6875,6.1875,169.4375,14.3750,-140.8125,0
306.867,8.4683,3.1795,-2.2386,0.8340,0.7386,-0.0578,-39.9000,14.5500,1.0500,9.2249,-0.4645,-0.1245,2.3310,-0.0133,-0.1332,-65.1000,37.3500,-34.5000,5.0400,2.5200,-7.8300,0.7898,1.1639,-2.1053,0.3750,-34.6875,6.1875,168.0000,14.1875,-140.9375,0
306.874,8.6790,3.0933,-2.2697,1.0320,0.8063,0.0128,-39.9000,14.5500,1.0500,9.1842,-0.9888,0.0431,2.3377,0.0562,-0.1159,-64.8000,36.7500,-35.5500,5.0700,2.1000,-7.7700,0.7745,1.1879,-2.1555,0.3750,-34.6875,6.1875,166.5000,13.9375,-141.0000,0
306.879,8.6862,2.7797,-2.2841,1.0909,0.8508,0.0522,-39.9000,14.5500,1.0500,9.0237,-1.3575,0.3280,2.2298,0.1138,-0.1079,-64.8000,36.7500,-35.5500,5.0700,2.1000,-7.7700,0.7745,1.1879,-2.1555,0.3750,-34.6875,6.1875,166.5000,13.9375,-141.0000,0
306.884,8.6862,2.7797,-2.2841,1.0909,0.8508,0.0522,-39.3000,14.4000,1.5000,9.0237,-1.3575,0.3280,2.2298,0.1138,-0.1079,-64.5000,36.3000,-37.6500,5.0400,1.5800,-7.7200,0.7679,1.1781,-2.1228,2.8750,-34.6875,6.1875,165.0000,13.6875,-141.1250,0
306.888,8.7628,2.5355,-2.0303,1.0984,0.8815,0.0794,-39.3000,14.4000,1.5000,8.8202,-1.7238,0.3903,2.0683,0.1793,-0.0751,-64.5000,36.3000,-37.6500,5.0400,1.5800,-7.7200,0.7679,1.1781,-2.1228,2.8750,-34.6875,6.1875,165.0000,13.6875,-141.1250,0
306.893,8.7628,2.5355,-2.0303,1.0984,0.8815,0.0794,-40.6500,15.0000,0.6000,8.8202,-1.7238,0.3903,2.0683,0.1793,-0.0751,-64.5000,36.3000,-37.6500,5.0400,1.5800,-7.7200,0.7603,1.1563,-2.0137,2.8750,-34.6875,6.1875,163.6250,13.5000,-141.1875,0
306.898,8.8035,2.4900,-1.6065,1.0797,0.8716,0.0970,-40.6500,15.0000,0.6000,8.7388,-1.9369,0.5698,1.8892,0.2332,-0.0541,-64.0500,37.5000,-36.6000,5.4100,1.1100,-7.8000,0.7603,1.1563,-2.0137,2.8750,-34.6875,6.1875,163.6250,13.5000,-141.1875,0
306.906,8.8155,2.2936,-0.8499,0.9926,0.8769,0.1290,-38.8500,15.0000,-0.6000,8.5545,-2.3128,0.7135,1.8892,0.2332,-0.0541,-63.7500,37.0500,-37.3500,5.7800,0.9500,-7.9100,0.7210,1.1552,-1.8653,2.8750,-34.6875,6.1875,162.3125,13.3125,-141.3125,0
306.911,8.8155,2.2936,-0.8499,0.9926,0.8769,0.1290,-40.8000,15.1500,1.2000,8.5545,-2.3128,0.7135,1.6808,0.2638,-0.0325,-63.7500,37.0500,-37.3500,5.7800,0.9500,-7.9100,0.7210,1.1552,-1.8653,2.8750,-34.6875,6.1875,161.1250,13.2500,-141.4375,0
306.918,8.7795,1.9178,-0.9170,1.0115,0.8532,0.1828,-40.8000,15.1500,1.2000,8.5856,-2.3822,0.7422,1.4157,0.3078,-0.0021,-64.0500,36.7500,-38.1000,5.8700,0.6500,-7.8100,0.6916,1.1203,-1.6842,2.8750,-34.6875,6.1875,160.0625,13.1875,-141.5625,0
306.928,8.8705,1.4820,-1.3503,1.1098,0.8303,0.2478,-40.6500,15.3000,0.0000,8.6838,-2.6384,0.7278,1.1040,0.3613,0.0187,-64.0500,36.7500,-38.1000,6.3500,0.0300,-7.2100,0.6676,1.0374,-1.4584,2.8750,-34.6875,6.1875,160.0625,13.1875,-141.5625,0
306.932,8.8705,1.4820,-1.3503,1.1098,0.8303,0.2478,-40.6500,15.3000,0.0000,8.6838,-2.6384,0.7278,1.1040,0.3613,0.0187,-64.0500,36.7500,-38.1000,6.3500,0.0300,-7.2100,0.6676,1.0374,-1.4584,2.8750,-34.6875,6.1875,160.0625,13.1875,-141.5625,0
306.937,9.0716,1.3671,-1.6281,1.2017,0.7845,0.3102,-40.6500,15.3000,0.0000,8.7652,-2.5666,0.9673,0.7605,0.4415,0.0474,-65.1000,36.4500,-37.2000,6.7600,-0.4500,-6.6700,0.6141,1.0287,-1.1639,6.0000,-34.6875,7.3750,159.1875,13.2500,-141.7500,0
306.942,9.0716,1.3671,-1.6281,1.2017,0.7845,0.3102,-39.7500,12.9000,0.4500,8.7652,-2.5666,0.9673,0.7605,0.4415,0.0474,-65.1000,36.4500,-37.2000,6.7600,-0.4500,-6.6700,0.6141,1.0287,-1.1639,6.0000,-34.6875,7.3750,159.1875,13.2500,-141.7500,0
306.947,9.3326,1.1899,-2.2458,1.2420,0.8013,0.3440,-39.7500,12.9000,0.4500,9.0956,-1.8579,0.7757,0.3166,0.5553,0.0746,-64.0500,35.5500,-39.1500,8.2700,-0.6800,-6.1100,0.5345,1.1214,-0.8149,6.0000,-34.6875,7.3750,158.5000,13.4375,-141.8125,0
306.956,9.9910,1.5012,-3.1316,1.2430,0.7586,0.3408,-40.5000,13.9500,0.4500,9.7612,-0.9361,0.5770,-0.1247,0.7719,0.1364,-66.6000,34.9500,-36.7500,10.6300,-1.5800,-4.5900,0.3632,1.4104,-0.3982,6.0000,-34.6875,7.3750,157.9375,13.9375,-141.8750,0
306.960,9.9910,1.5012,-3.1316,1.2430,0.7586,0.3408,-41.1000,13.9500,0.1500,9.7612,-0.9361,0.5770,-0.1247,0.7719,0.1364,-66.6000,34.9500,-36.7500,10.6300,-1.5800,-4.5900,0.3632,1.4104,-0.3982,6.0000,-34.6875,7.3750,157.6875,14.8125,-141.8125,0
306.968,10.7141,2.3535,-4.1396,1.2380,0.8471,0.3848,-41.1000,13.9500,0.1500,11.4323,-1.3024,0.0407,-0.3456,0.8631,0.2358,-65.4000,36.9000,-38.2500,11.1700,-6.9400,-4.7600,0.1963,1.9417,0.1309,6.0000,-34.6875,7.3750,157.5625,15.8750,-141.8750,0
306.978,13.1514,3.3232,-3.7637,1.0376,0.7560,0.4186,-41.5500,13.6500,0.4500,13.4626,-0.5171,-3.8954,-0.6821,0.7306,0.3040,-65.4000,35.7000,-39.0000,25.6900,7.9500,-11.3200,0.3403,1.9875,0.5509,6.0000,-34.6875,7.3750,157.5625,15.8750,-141.8750,0
306.983,13.1514,3.3232,-3.7637,1.0376,0.7560,0.4186,-41.5500,13.6500,0.4500,13.4626,-0.5171,-3.8954,-0.6821,0.7306,0.3040,-65.4000,35.7000,-39.0000,25.6900,7.9500,-11.3200,0.3403,1.9875,0.5509,6.0000,-34.6875,7.3750,157.5625,15.8750,-141.8750,0
306.988,14.9111,3.5554,-2.6480,0.6773,0.6110,0.4024,-41.5500,13.6500,0.4500,14.4011,0.7374,-5.6312,-0.2545,0.6403,0.2867,-64.5000,36.0000,-36.9000,7.6000,-9.3900,-21.7600,0.6490,1.3854,1.6406,7.5000,-33.8750,9.7500,158.1875,17.0625,-142.3125,0
306.993,14.9111,3.5554,-2.6480,0.6773,0.6110,0.4024,-41.5500,14.7000,0.1500,14.4011,0.7374,-5.6312,-0.2545,0.6403,0.2867,-64.5000,36.0000,-36.9000,7.6000,-9.3900,-21.7600,0.6490,1.3854,1.6406,7.5000,-33.8750,9.7500,158.1875,17.0625,-142.3125,0
306.998,14.5879,3.1795,-2.6935,0.4586,0.5705,0.2928,-41.5500,14.7000,0.1500,13.5296,1.4269,-3.5721,0.3040,0.7272,0.0663,-64.5000,36.0000,-36.9000,-11.4900,12.0800,-4.0200,3.3521,-2.4784,2.5700,7.5000,-33.8750,9.7500,159.7500,16.7500,-144.8125,0
307.002,14.5879,3.1795,-2.6935,0.4586,0.5705,0.2928,-42.7500,14.2500,-1.0500,10.2999,0.5339,1.6017,0.3040,0.7272,0.0663,-64.5000,36.0000,-36.9000,-11.4900,12.0800,-4.0200,2.1566,0.2858,2.2722,7.5000,-33.8750,9.7500,160.7500,17.6250,-146.3125,0
307.008,11.7076,3.2441,-3.8618,0.5089,0.6512,0.1428,-42.7500,14.2500,-1.0500,10.2999,0.5339,1.6017,0.2443,0.9912,-0.0560,-64.8000,35.1000,-37.6500,7.3800,7.9100,-13.5400,2.1566,0.2858,2.2722,7.5000,-33.8750,9.7500,161.1250,20.4375,-145.3750,0
307.018,8.9447,3.1556,-2.1021,0.5004,0.7013,0.0296,-41.4000,13.0500,0.6000,8.5784,-0.4812,4.1899,0.4032,1.2151,-0.0616,-64.8000,35.1000,-37.6500,12.2100,6.5600,-13.5000,-1.2250,4.7986,1.9002,7.5000,-33.8750,9.7500,161.4375,21.4375,-145.3125,0
307.028,8.0637,2.7653,0.6776,0.2038,0.8263,0.0466,-42.0000,13.0500,1.0500,8.2193,-0.6440,1.3958,-0.1588,1.1415,0.0226,-66.9000,36.9000,-37.9500,6.8300,1.6600,-7.4500,-0.1625,1.5675,1.0363,7.5000,-33.8750,9.7500,161.4375,21.4375,-145.3125,0
307.033,8.6215,1.4892,2.5666,-0.3285,0.9156,0.0839,-42.3000,12.9000,0.1500,9.6630,0.9242,-1.4461,-0.1956,0.9033,0.1727,-66.9000,36.9000,-37.9500,6.8300,1.6600,-7.4500,-0.1625,1.5675,1.0363,7.5000,-33.8750,9.7500,161.2500,21.8125,-145.6875,0
307.038,8.6215,1.4892,2.5666,-0.3285,0.9156,0.0839,-42.3000,12.9000,0.1500,9.6630,0.9242,-1.4461,-0.1956,0.9033,0.1727,-66.7500,37.5000,-35.8500,4.6700,3.6800,-9.3000,0.5792,0.3840,0.6316,4.8750,-33.1875,11.3750,161.2500,21.8125,-145.6875,0
307.043,8.1283,0.2442,2.4493,-0.6009,0.9465,0.1298,-42.3000,12.9000,0.1500,9.7851,3.5362,1.0702,-0.0466,0.9204,0.1964,-66.7500,37.5000,-35.8500,4.6700,3.6800,-9.3000,0.5792,0.3840,0.6316,4.8750,-33.1875,11.3750,161.3125,21.9375,-146.0000,0
307.048,8.1283,0.2442,2.4493,-0.6009,0.9465,0.1298,-42.3000,12.9000,0.1500,9.7851,3.5362,1.0702,-0.0466,0.9204,0.1964,-66.3000,34.8000,-37.3500,-0.2600,5.5700,-6.3000,0.5541,0.0644,0.2225,4.8750,-33.1875,11.3750,161.3125,21.9375,-146.0000,0
307.053,8.4587,0.3424,1.7669,-0.4415,0.9265,0.2046,-42.9000,13.2000,0.1500,9.9335,3.0335,2.9640,0.0706,0.9995,0.2172,-66.3000,34.8000,-37.3500,-0.2600,5.5700,-6.3000,0.3174,0.1462,0.1963,4.8750,-33.1875,11.3750,161.3125,22.0625,-146.1875,0
307.058,8.4587,0.3424,1.7669,-0.4415,0.9265,0.2046,-42.0000,14.2500,0.6000,9.9335,3.0335,2.9640,0.0706,0.9995,0.2172,-66.1500,35.4000,-36.7500,3.4200,6.2200,-7.5700,0.3174,0.1462,0.1963,4.8750,-33.1875,11.3750,161.3750,22.3125,-146.3125,0
307.068,8.2504,1.2354,2.5786,-0.3517,0.6869,0.2806,-42.0000,14.2500,0.6000,9.3948,1.8483,2.1332,0.1458,0.9305,0.2044,-66.1500,35.4000,-36.7500,4.2900,5.1900,-7.1400,0.1625,0.3894,0.2323,4.8750,-33.1875,11.3750,161.3750,22.3125,-146.3125,0
307.078,7.9966,1.6041,3.0957,-0.3251,0.7719,0.3754,-41.8500,13.6500,1.5000,10.0820,0.7614,1.8220,0.0770,0.8383,0.1796,-66.0000,36.7500,-35.1000,4.0900,5.1300,-7.2600,0.2836,0.0862,0.1254,4.8750,-33.1875,11.3750,161.3750,22.3750,-146.5000,0
307.083,9.5050,1.7454,2.9808,-0.1636,0.8391,0.4098,-41.8500,13.6500,1.5000,10.5824,0.7614,1.2306,0.0810,0.7128,0.1527,-66.0000,36.7500,-35.1000,4.0900,5.1300,-7.2600,0.2836,0.0862,0.1254,4.8750,-33.1875,11.3750,161.3750,22.4375,-146.6875,0
307.088,9.5050,1.7454,2.9808,-0.1636,0.8391,0.4098,-41.8500,13.6500,1.5000,10.5824,0.7614,1.2306,0.0810,0.7128,0.1527,-66.0000,36.7500,-35.1000,3.8300,4.9200,-7.4800,0.3632,0.0698,0.0665,2.2500,-33.8750,11.7500,161.3750,22.4375,-146.6875,0
307.093,9.8928,1.5754,2.1715,-0.1130,0.8655,0.4495,-41.8500,13.6500,1.5000,10.0317,0.5794,0.8475,0.2419,0.6600,0.1106,-66.0000,36.7500,-35.1000,3.8300,4.9200,-7.4800,0.3632,0.0698,0.0665,2.2500,-33.8750,11.7500,161.3750,22.4375,-146.6875,0
307.098,9.8928,1.5754,2.1715,-0.1130,0.8655,0.4495,-41.8500,13.6500,1.5000,10.0317,0.5794,0.8475,0.2419,0.6600,0.1106,-67.9500,36.3000,-36.9000,3.7300,4.7600,-7.7200,0.4134,0.0480,0.0044,2.2500,-33.8750,11.7500,161.3125,22.4375,-146.8750,0
307.102,9.9671,1.5371,0.8691,-0.0269,0.8279,0.5111,-41.1000,14.7000,1.5000,9.6391,0.1580,1.1779,0.3086,0.5910,0.0783,-67.9500,36.3000,-36.9000,3.7300,4.7600,-7.7200,0.4178,0.0131,-0.0502,2.2500,-33.8750,11.7500,161.2500,22.4375,-147.1250,0
307.109,9.9671,1.5371,0.8691,-0.0269,0.8279,0.5111,-40.9500,13.0500,0.6000,9.5289,-0.5435,0.6704,0.3086,0.5910,0.0783,-67.9500,36.0000,-36.1500,3.6600,4.7400,-7.7200,0.4178,0.0131,-0.0502,2.2500,-33.8750,11.7500,161.1250,22.4375,-147.3750,0
307.118,9.9551,2.1859,0.3136,0.1183,0.8050,0.5393,-40.6500,14.5500,2.4000,9.7109,-0.8691,-0.0670,0.0965,0.5404,0.0786,-67.9500,35.5500,-36.1500,3.6700,4.4800,-7.8800,0.4298,-0.0480,-0.0851,2.2500,-33.8750,11.7500,161.0625,22.3125,-147.5625,0
307.128,9.7444,2.4181,-0.0934,0.2713,0.7898,0.5420,-40.9500,15.0000,2.1000,9.8689,-0.2562,-0.4573,-0.0360,0.5313,0.0901,-67.2000,35.5500,-35.1000,3.7900,4.2200,-8.0100,0.4265,-0.0796,-0.0938,2.2500,-33.8750,11.7500,161.0625,22.3125,-147.5625,0
307.133,9.8090,2.4229,-0.4094,0.5476,0.7589,0.5159,-40.9500,15.0000,2.1000,9.8689,-0.2562,-0.4573,-0.1620,0.5401,0.0679,-67.2000,35.5500,-35.1000,3.7900,4.2200,-8.0100,0.4265,-0.0796,-0.0938,2.2500,-33.8750,11.7500,161.0625,22.3125,-147.5625,0
307.138,9.8090,2.4229,-0.4094,0.5476,0.7589,0.5159,-42.3000,14.4000,3.0000,9.8090,0.5148,-0.1365,-0.1338,0.5737,0.0336,-68.1000,36.1500,-35.7000,3.5700,3.9600,-8.1900,0.4298,-0.0982,-0.0916,1.5625,-33.0625,12.1875,161.0000,22.2500,-147.8125,0
307.143,9.7324,2.5809,-0.0694,0.7970,0.6816,0.4887,-42.3000,14.4000,3.0000,9.8090,0.5148,-0.1365,-0.1338,0.5737,0.0336,-68.1000,36.1500,-35.7000,3.5700,3.9600,-8.1900,0.4298,-0.0982,-0.0916,1.5625,-33.0625,12.1875,161.0000,22.2500,-147.8125,0
307.148,9.8474,2.7557,0.4190,0.8791,0.5969,0.4655,-42.3000,14.4000,3.0000,9.7827,1.4126,0.5770,-0.0224,0.5963,0.0184,-68.4000,35.4000,-34.2000,3.4000,3.8500,-8.4100,0.4112,-0.0993,-0.0916,1.5625,-33.0625,12.1875,160.8750,22.1875,-148.0625,0
307.156,9.8474,2.7557,0.4190,0.8791,0.5969,0.4655,-42.3000,14.4000,3.0000,9.7827,1.4126,0.5770,-0.0224,0.5963,0.0184,-68.4000,35.4000,-34.2000,3.4400,3.8900,-8.4400,0.3491,-0.0665,-0.0709,1.5625,-33.0625,12.1875,160.8125,22.1250,-148.2500,0
307.161,9.5792,2.8276,1.2426,0.8913,0.5788,0.4455,-41.1000,14.4000,3.0000,9.7516,2.1213,0.8547,0.1929,0.6067,0.0053,-68.4000,35.4000,-34.2000,3.4400,3.8900,-8.4400,0.3491,-0.0665,-0.0709,1.5625,-33.0625,12.1875,160.7500,22.1250,-148.3750,0
307.168,9.5265,2.6935,1.6520,0.8703,0.6075,0.4199,-40.9500,15.0000,1.0500,9.9144,2.2458,0.6512,0.4306,0.6225,-0.0115,-67.6500,36.4500,-36.0000,3.6100,4.1300,-8.2500,0.2640,-0.0360,-0.0273,1.5625,-33.0625,12.1875,160.7500,22.1250,-148.5000,0
307.178,9.1794,2.4804,1.3384,0.8218,0.6678,0.3898,-42.7500,14.5500,2.1000,9.8665,1.8459,0.8116,0.6928,0.6283,-0.0282,-69.0000,35.1000,-34.3500,3.6400,4.3000,-8.0500,0.1931,-0.0251,0.0055,1.5625,-33.0625,12.1875,160.7500,22.1250,-148.5000,0
307.183,9.1794,2.4804,1.3384,0.8218,0.6678,0.3898,-42.7500,14.5500,2.1000,9.8665,1.8459,0.8116,0.6928,0.6283,-0.0282,-69.0000,35.1000,-34.3500,3.6400,4.3000,-8.0500,0.1931,-0.0251,0.0055,2.2500,-33.5000,13.0625,160.3125,22.1250,-148.5625,0
307.188,9.3781,2.4924,1.3168,0.8218,0.7298,0.3866,-42.3000,12.9000,1.9500,9.9168,1.4748,0.9864,0.7805,0.6355,-0.0352,-67.9500,35.5500,-35.5500,3.5600,4.3800,-7.9500,0.1374,-0.0076,0.0033,2.2500,-33.5000,13.0625,160.3125,22.1250,-148.5625,0
307.193,9.3781,2.4924,1.3168,0.8218,0.7298,0.3866,-42.3000,12.9000,1.9500,9.9168,1.4748,0.9864,0.7805,0.6355,-0.0352,-67.9500,35.5500,-35.5500,3.5600,4.3800,-7.9500,0.1374,-0.0076,0.0033,2.2500,-33.5000,13.0625,160.3125,22.1250,-148.6250,0
307.198,9.3805,2.6647,1.4748,0.8791,0.7421,0.3603,-42.3000,12.9000,1.9500,10.0221,0.9170,1.1277,0.6664,0.5950,-0.0197,-69.1500,35.7000,-35.7000,3.6200,4.3400,-8.0100,0.1036,0.0087,-0.0076,2.2500,-33.5000,13.0625,160.3125,22.1250,-148.6250,0
307.203,9.3805,2.6647,1.4748,0.8791,0.7421,0.3603,-42.3000,12.9000,1.9500,10.0221,0.9170,1.1277,0.6664,0.5950,-0.0197,-69.1500,35.7000,-35.7000,3.6200,4.3400,-8.0100,0.0764,0.0109,-0.0142,2.2500,-33.5000,13.0625,160.3125,22.1250,-148.6250,0
307.209,9.3374,2.3918,1.6448,0.8817,0.7887,0.3421,-43.2000,12.7500,2.8500,9.9671,0.4190,1.4461,0.4754,0.5622,0.0019,-68.4000,34.5000,-34.9500,3.5100,4.3600,-7.9800,0.0764,0.0109,-0.0142,2.2500,-33.5000,13.0625,160.3125,22.1250,-148.6875,0
307.218,9.4092,2.0159,1.3791,0.8865,0.7781,0.3397,-43.9500,13.0500,1.6500,9.9455,0.1844,1.4341,0.2196,0.5044,0.0338,-69.0000,36.3000,-35.1000,3.4700,4.4100,-7.8400,0.0633,0.0076,-0.0229,2.2500,-33.5000,13.0625,160.2500,22.0625,-148.6875,0
307.228,9.5792,1.4293,1.2833,0.7981,0.8076,0.3419,-42.7500,14.5500,2.1000,9.9240,-0.0048,1.2210,-0.0152,0.4506,0.0544,-69.0000,36.3000,-35.1000,3.6100,4.3900,-7.8400,0.0513,0.0076,-0.0305,2.2500,-33.5000,13.0625,160.2500,22.0625,-148.6875,0
307.233,9.5792,1.4293,1.2833,0.7981,0.8076,0.3419,-42.7500,14.5500,2.1000,9.9240,-0.0048,1.2210,-0.0152,0.4506,0.0544,-69.0000,36.3000,-35.1000,3.6100,4.3900,-7.8400,0.0513,0.0076,-0.0305,2.2500,-33.5000,13.0625,160.2500,22.0625,-148.6875,0
307.238,9.8450,0.8859,0.8643,0.6406,0.8143,0.3685,-43.9500,12.7500,3.4500,9.9192,0.1173,1.1779,-0.1974,0.4096,0.0749,-68.4000,36.9000,-36.4500,3.6000,4.2700,-7.9700,0.0545,0.0087,-0.0404,2.2500,-32.7500,13.0000,159.8750,22.0625,-148.7500,0
307.243,9.8450,0.8859,0.8643,0.6406,0.8143,0.3685,-43.9500,12.7500,3.4500,9.9072,0.2227,0.7159,-0.1974,0.4096,0.0749,-68.4000,36.9000,-36.4500,3.6000,4.2700,-7.9700,0.0545,0.0087,-0.0404,2.2500,-32.7500,13.0000,159.8750,22.0625,-148.7500,0
307.248,9.7612,0.3543,0.7350,0.3933,0.7925,0.4061,-44.1000,11.4000,1.5000,9.9072,0.2227,0.7159,-0.3387,0.3765,0.0871,-68.4000,36.9000,-36.4500,3.4700,4.2000,-7.9900,0.0524,0.0076,-0.0589,2.2500,-32.7500,13.0000,159.8750,22.0625,-148.8125,0
307.253,9.7612,0.3543,0.7350,0.3933,0.7925,0.4061,-44.1000,11.4000,1.5000,9.8689,0.6560,0.4645,-0.3387,0.3765,0.0871,-68.4000,36.9000,-36.4500,3.4700,4.2000,-7.9900,0.0436,0.0164,-0.0665,2.2500,-32.7500,13.0000,159.8125,22.0000,-148.9375,0
307.259,9.7372,0.3232,0.5770,0.1535,0.7893,0.4596,-44.1000,11.4000,1.5000,9.8689,0.6560,0.4645,-0.3885,0.3688,0.0767,-69.4500,35.5500,-33.3000,3.4900,4.1900,-8.0700,0.0436,0.0164,-0.0665,2.2500,-32.7500,13.0000,159.8125,22.0000,-148.9375,0
307.268,9.8186,0.7446,0.3208,-0.0706,0.6169,0.4871,-43.3500,13.2000,1.9500,9.7540,1.1229,0.3974,-0.3483,0.3680,0.0743,-68.8500,35.7000,-34.2000,3.5700,4.1400,-8.1400,0.0295,0.0153,-0.0600,2.2500,-32.7500,13.0000,159.8125,22.0000,-149.0000,0
307.274,9.8186,0.7446,0.3208,-0.2888,0.6427,0.5199,-43.3500,13.2000,1.9500,9.5098,1.4844,0.2298,-0.2294,0.3850,0.0717,-68.8500,35.7000,-34.2000,3.5700,4.1400,-8.1400,0.0207,0.0393,-0.0600,2.2500,-32.7500,13.0000,159.7500,22.0000,-149.0625,0
307.279,9.4954,1.1827,0.3424,-0.2888,0.6427,0.5199,-42.6000,13.9500,2.5500,9.5098,1.4844,0.2298,-0.2294,0.3850,0.0717,-70.0500,34.5000,-34.9500,3.5400,4.1700,-7.9800,0.0207,0.0393,-0.0600,2.2500,-32.7500,13.0000,159.7500,22.0000,-149.0625,0
307.284,9.5624,1.5921,0.3328,-0.4620,0.6291,0.5164,-42.6000,13.9500,2.5500,9.4786,1.8794,0.2251,-0.0453,0.3949,0.0722,-70.0500,34.5000,-34.9500,3.4000,4.0400,-8.2100,-0.0011,0.0654,-0.0654,1.8750,-32.3750,13.3750,159.4375,21.9375,-149.1250,0
307.289,9.5624,1.5921,0.3328,-0.4620,0.6291,0.5164,-42.9000,11.4000,3.6000,9.4786,1.8794,0.2251,-0.0453,0.3949,0.0722,-69.6000,36.1500,-33.0000,3.4000,4.0400,-8.2100,-0.0011,0.0654,-0.0654,1.8750,-32.3750,13.3750,159.4375,21.9375,-149.1250,0
307.297,9.3278,1.7549,0.3687,-0.6094,0.5945,0.4911,-42.9000,12.1500,3.0000,9.3709,1.9154,0.2490,0.1527,0.4351,0.0573,-69.6000,36.1500,-33.0000,3.4200,4.0600,-8.0600,-0.0295,0.0644,-0.0611,1.8750,-32.3750,13.3750,159.3750,21.9375,-149.1875,0
307.301,9.3278,1.7549,0.3687,-0.6094,0.5945,0.4911,-42.9000,12.1500,3.0000,9.3422,1.7023,0.2825,0.2888,0.4551,0.0493,-68.4000,34.9500,-34.2000,3.4200,4.0600,-8.0600,-0.0295,0.0644,-0.0611,1.8750,-32.3750,13.3750,159.3750,21.9375,-149.1875,0
307.309,9.3733,1.9968,0.3519,-0.7376,0.6185,0.4684,-42.9000,12.1500,3.0000,9.3422,1.7023,0.2825,0.2888,0.4551,0.0493,-68.2500,36.3000,-34.0500,3.5200,4.1800,-7.8200,-0.0447,0.0698,-0.0545,1.8750,-32.3750,13.3750,159.3750,21.9375,-149.1875,0
307.318,9.3494,2.0614,0.3855,-0.8266,0.5468,0.4290,-44.1000,13.2000,2.2500,9.3589,1.2881,0.0982,0.3187,0.4802,0.0536,-68.2500,36.3000,-34.0500,3.5600,4.1400,-7.9200,-0.0415,0.0622,-0.0469,1.8750,-32.3750,13.3750,159.3125,21.9375,-149.2500,0
307.323,9.1602,2.1284,0.5291,-0.8561,0.5087,0.3976,-44.1000,13.2000,2.2500,9.4044,0.9457,0.1556,0.1961,0.5036,0.0629,-68.2500,36.3000,-34.0500,3.5600,4.1400,-7.9200,-0.0229,0.0578,-0.0524,1.8750,-32.3750,13.3750,159.3125,21.9375,-149.2500,0
307.329,9.1602,2.1284,0.5291,-0.8561,0.5087,0.3976,-44.2500,13.5000,3.1500,9.4643,1.0104,0.2777,0.1961,0.5036,0.0629,-68.1000,35.4000,-34.5000,3.3800,4.1300,-7.8800,-0.0229,0.0578,-0.0524,1.8750,-32.3750,13.3750,159.3125,21.9375,-149.2500,0
307.334,9.1315,2.2769,0.6776,-0.8458,0.5276,0.3608,-43.9500,13.0500,3.9000,9.4643,1.0104,0.2777,-0.0091,0.4999,0.0829,-68.1000,35.4000,-34.5000,3.3800,4.1300,-7.8800,-0.0076,0.0545,-0.0469,2.2500,-33.0625,13.0000,159.0625,21.9375,-149.3125,0
307.339,9.1315,2.2769,0.6776,-0.8458,0.5276,0.3608,-43.9500,13.0500,3.9000,9.2608,1.1612,0.5243,-0.0091,0.4999,0.0829,-69.0000,36.0000,-33.3000,3.3300,4.4100,-7.7800,-0.0076,0.0545,-0.0469,2.2500,-33.0625,13.0000,159.0625,21.9375,-149.3125,0
307.344,9.2009,2.5498,1.0199,-0.8444,0.4802,0.3283,-43.6500,14.7000,4.0500,9.2608,1.1612,0.5243,-0.2422,0.4919,0.1026,-69.0000,36.0000,-33.3000,3.3300,4.4100,-7.7800,-0.0076,0.0545,-0.0469,2.2500,-33.0625,13.0000,159.0000,21.9375,-149.3125,0
307.349,9.2009,2.5498,1.0199,-0.8444,0.4802,0.3283,-43.6500,14.7000,4.0500,9.4020,1.2570,0.5794,-0.2422,0.4919,0.1026,-68.1000,34.2000,-33.7500,3.5300,4.4800,-7.7400,0.0142,0.0513,-0.0447,2.2500,-33.0625,13.0000,159.0000,21.9375,-149.3125,0
307.354,9.1866,2.7078,1.1516,-0.8087,0.4735,0.2974,-43.2000,13.5000,5.2500,9.4020,1.2570,0.5794,-0.3861,0.4751,0.1220,-68.1000,34.2000,-33.7500,3.5300,4.4800,-7.7400,0.0338,0.0284,-0.0316,2.2500,-33.0625,13.0000,159.0000,21.9375,-149.3125,0
307.359,9.1866,2.7078,1.1516,-0.8087,0.4735,0.2974,-43.2000,13.5000,5.2500,9.4092,1.2905,0.5674,-0.4583,0.4599,0.1407,-68.7000,35.1000,-32.8500,3.4900,4.4900,-7.7100,0.0338,0.0284,-0.0316,2.2500,-33.0625,13.0000,158.9375,21.9375,-149.3125,0
307.368,9.1746,2.9999,0.9577,-0.7685,0.4831,0.3000,-43.2000,13.5000,5.2500,9.2943,1.5730,0.4764,-0.4583,0.4599,0.1407,-68.8500,36.1500,-32.4000,3.4300,4.4100,-7.7800,0.0785,0.0076,-0.0316,2.2500,-33.0625,13.0000,158.9375,21.9375,-149.3750,0
307.378,8.9687,3.1843,0.8260,-0.6539,0.4628,0.3051,-42.7500,15.0000,5.2500,9.3278,1.6759,0.2346,-0.4183,0.4772,0.1703,-68.8500,36.1500,-32.4000,3.6600,4.3300,-7.8300,0.1178,-0.0044,-0.0251,2.2500,-33.0625,13.0000,158.9375,21.9375,-149.3750,0
307.383,9.0309,3.3232,0.7925,-0.5023,0.4692,0.3168,-44.4000,13.2000,4.0500,9.3278,1.6759,0.2346,-0.4183,0.4772,0.1703,-67.9500,36.0000,-32.5500,3.6600,4.3300,-7.8300,0.1178,-0.0044,-0.0251,2.2500,-33.0625,13.0000,158.9375,21.9375,-149.3750,0
307.388,9.0309,3.3232,0.7925,-0.5023,0.4692,0.3168,-44.4000,13.2000,4.0500,9.3374,1.7262,0.0958,-0.2769,0.5100,0.1756,-67.9500,36.0000,-32.5500,3.6000,4.2900,-7.8700,0.1560,-0.0295,-0.0164,2.2500,-33.7500,13.0000,158.8125,21.9375,-149.5000,0
307.393,8.9854,3.1627,0.7230,-0.3304,0.5025,0.3043,-43.3500,13.9500,6.4500,9.3374,1.7262,0.0958,-0.2769,0.5100,0.1756,-67.9500,36.0000,-32.5500,3.6000,4.2900,-7.8700,0.1560,-0.0295,-0.0164,2.2500,-33.7500,13.0000,158.8125,21.9375,-149.5000,0
307.398,8.9854,3.1627,0.7230,-0.3304,0.5025,0.3043,-43.3500,13.9500,6.4500,9.2799,1.6807,0.2945,-0.0871,0.5740,0.1671,-67.9500,36.0000,-32.5500,3.5300,4.1900,-7.9600,0.1822,-0.0480,-0.0262,2.2500,-33.7500,13.0000,158.7500,21.8750,-149.6250,0
307.403,9.2081,2.8060,0.3519,-0.1282,0.4903,0.2923,-45.1500,13.6500,6.9000,9.2799,1.6807,0.2945,-0.0871,0.5740,0.1671,-68.1000,33.7500,-30.1500,3.5300,4.1900,-7.9600,0.1767,-0.0458,-0.0327,2.2500,-33.7500,13.0000,158.7500,21.8750,-149.7500,0
307.409,9.3254,2.6959,0.1891,-0.0069,0.4762,0.3056,-45.1500,13.6500,6.9000,9.2943,1.5036,0.2346,0.0416,0.6051,0.1623,-68.1000,33.7500,-30.1500,3.5000,4.0800,-8.0500,0.1767,-0.0458,-0.0327,2.2500,-33.7500,13.0000,158.6875,21.8125,-149.8125,0
307.418,9.3254,2.6959,0.1891,-0.0069,0.4762,0.3056,-45.1500,13.6500,6.9000,9.3158,1.4629,0.2993,0.0965,0.6275,0.1673,-68.1000,33.7500,-30.1500,3.5200,4.0300,-7.9900,0.1625,-0.0404,-0.0316,2.2500,-33.7500,13.0000,158.6875,21.8125,-149.8125,0
307.428,9.3111,2.6336,0.4310,0.0994,0.4810,0.3030,-45.1500,13.6500,6.9000,9.2273,1.4820,0.3998,0.1047,0.6499,0.1753,-71.1000,34.9500,-30.4500,3.4700,4.0600,-7.9800,0.1462,-0.0469,-0.0305,2.2500,-33.7500,13.0000,158.6875,21.8125,-149.9375,0
307.433,9.3039,2.5139,0.6847,0.0994,0.4810,0.3030,-44.8500,13.2000,4.3500,9.2273,1.4820,0.3998,0.1047,0.6499,0.1753,-69.1500,37.3500,-30.4500,3.4700,4.0600,-7.9800,0.1462,-0.0469,-0.0305,2.2500,-33.7500,13.0000,158.6875,21.8125,-149.9375,0
307.438,9.4284,2.1955,0.8212,0.0701,0.4770,0.2827,-44.8500,13.2000,4.3500,9.2967,1.2785,0.7853,0.1244,0.6973,0.1974,-69.1500,37.3500,-30.4500,3.5300,4.2600,-7.9600,0.1353,-0.0578,-0.0327,2.2500,-32.3750,11.7500,158.6250,21.7500,-150.0000,0
307.443,9.4284,2.1955,0.8212,0.0701,0.4770,0.2827,-43.3500,13.6500,7.6500,9.2967,1.2785,0.7853,0.1244,0.6973,0.1974,-69.1500,36.1500,-31.2000,3.5300,4.2600,-7.9600,0.1353,-0.0578,-0.0327,2.2500,-32.3750,11.7500,158.6250,21.7500,-150.0000,0
307.448,9.4284,2.1955,0.8212,0.0083,0.4962,0.2718,-43.3500,13.6500,7.6500,9.4451,1.0798,1.0295,0.0695,0.6952,0.1927,-69.1500,36.1500,-31.2000,3.3300,4.4100,-7.9500,0.1244,-0.0644,-0.0349,2.2500,-32.3750,11.7500,158.5625,21.6875,-150.0625,0
307.452,9.3039,1.8507,0.8164,0.0083,0.4962,0.2718,-44.8500,12.9000,5.4000,9.4451,1.0798,1.0295,0.0695,0.6952,0.1927,-69.1500,35.7000,-28.6500,3.3300,4.4100,-7.9500,0.1265,-0.0698,-0.0425,2.2500,-32.3750,11.7500,158.5625,21.6250,-150.1250,0
307.459,9.2273,1.6712,0.9792,-0.0546,0.4970,0.2734,-44.8500,12.9000,5.4000,9.4068,0.7614,1.2450,-0.0408,0.7016,0.1993,-69.1500,35.7000,-28.6500,3.3100,4.4400,-7.8700,0.1265,-0.0698,-0.0425,2.2500,-32.3750,11.7500,158.5000,21.6250,-150.2500,0
307.469,9.0908,1.6616,0.9816,-0.1343,0.5212,0.2851,-44.8500,13.6500,6.1500,9.3805,0.5219,1.2115,-0.1839,0.7197,0.2041,-69.1500,35.7000,-28.6500,3.4300,4.3400,-7.8400,0.1331,-0.0742,-0.0273,2.2500,-32.3750,11.7500,158.5000,21.6250,-150.2500,0
307.478,9.2392,1.4940,1.2977,-0.2233,0.5423,0.3067,-44.8500,13.6500,6.1500,9.6534,0.6440,1.2234,-0.3083,0.6816,0.2193,-69.6000,34.2000,-29.7000,3.4300,4.3000,-7.7500,0.1702,-0.1364,-0.0295,2.2500,-32.3750,11.7500,158.5000,21.5625,-150.3125,0
307.483,9.2392,1.4940,1.2977,-0.2233,0.5423,0.3067,-43.6500,11.4000,5.4000,9.5960,0.9050,1.6496,-0.3083,0.6816,0.2193,-69.6000,34.2000,-29.7000,3.4300,4.3000,-7.7500,0.1702,-0.1364,-0.0295,2.2500,-32.3750,11.7500,158.4375,21.4375,-150.4375,0
307.488,9.2608,1.4317,1.5107,-0.3158,0.5548,0.3371,-43.6500,11.4000,5.4000,9.5960,0.9050,1.6496,-0.2388,0.6643,0.2076,-69.6000,34.2000,-29.7000,3.0900,4.3800,-7.8300,0.1963,-0.1876,-0.0295,2.2500,-32.0000,12.2500,158.4375,21.4375,-150.4375,0
307.493,9.2608,1.4317,1.5107,-0.3158,0.5548,0.3371,-44.2500,12.7500,6.0000,9.4978,0.9553,1.5275,-0.2388,0.6643,0.2076,-70.8000,33.4500,-31.2000,3.0900,4.3800,-7.8300,0.1963,-0.1876,-0.0295,2.2500,-32.0000,12.2500,158.4375,21.4375,-150.4375,0
307.498,9.1770,1.4820,1.6041,-0.4287,0.5542,0.3533,-44.2500,12.7500,6.0000,9.4978,0.9553,1.5275,-0.1551,0.6797,0.2276,-70.8000,33.4500,-31.2000,3.2200,4.2100,-8.0100,0.1963,-0.1876,-0.0295,2.2500,-32.0000,12.2500,158.4375,21.3125,-150.5625,0
307.503,9.1770,1.4820,1.6041,-0.4287,0.5542,0.3533,-45.1500,13.2000,7.2000,9.6438,1.1349,1.4772,-0.1308,0.6795,0.2406,-70.0500,33.7500,-29.4000,3.2200,4.2100,-8.0100,0.1985,-0.2302,-0.0022,2.2500,-32.0000,12.2500,158.4375,21.1875,-150.7500,0
307.509,9.0261,1.5083,1.6472,-0.5526,0.5913,0.3672,-45.1500,13.2000,7.2000,9.6438,1.1349,1.4772,-0.1308,0.6795,0.2406,-70.0500,33.7500,-29.4000,3.3700,4.1300,-8.1300,0.1985,-0.2302,-0.0022,2.2500,-32.0000,12.2500,158.4375,21.1875,-150.7500,0
307.518,9.5409,1.5610,1.6448,-0.6518,0.5804,0.3821,-44.1000,11.4000,7.2000,9.6845,1.2785,1.2258,-0.0701,0.7061,0.2443,-69.0000,33.6000,-28.5000,3.2300,4.1100,-8.1000,0.1844,-0.2116,-0.0022,2.2500,-32.0000,12.2500,158.4375,21.0625,-150.8750,0
307.523,9.5409,1.5610,1.6448,-0.6518,0.5804,0.3821,-44.1000,11.4000,7.2000,9.8713,1.7023,1.3527,-0.0197,0.6931,0.2558,-68.7000,34.3500,-29.2500,3.2300,4.1100,-8.1000,0.1538,-0.1942,0.0109,2.2500,-32.0000,12.2500,158.4375,21.0000,-151.0000,0
307.530,9.3709,1.7980,1.8459,-0.7906,0.5572,0.3949,-44.1000,11.4000,7.2000,9.8713,1.7023,1.3527,-0.0197,0.6931,0.2558,-68.7000,34.3500,-29.2500,3.1600,4.1900,-8.0900,0.1538,-0.1942,0.0109,2.2500,-32.0000,12.2500,158.4375,21.0000,-151.0000,0
307.534,9.3709,1.7980,1.8459,-0.7906,0.5572,0.3949,-44.1000,11.4000,7.2000,9.6917,1.6209,1.3599,0.0861,0.6688,0.2409,-69.0000,34.3500,-28.8000,2.9400,4.4300,-8.0000,0.1473,-0.2029,0.0153,2.2500,-32.0000,13.8750,158.3125,20.8750,-151.1250,0
307.539,9.3111,1.9010,1.9058,-0.8775,0.5401,0.3946,-44.1000,11.4000,7.2000,9.6917,1.6209,1.3599,0.0861,0.6688,0.2409,-69.0000,34.3500,-28.8000,2.9400,4.4300,-8.0000,0.1473,-0.2029,0.0153,2.2500,-32.0000,13.8750,158.3125,20.8750,-151.1250,0
307.544,9.3111,1.9010,1.9058,-0.8775,0.5401,0.3946,-44.8500,12.1500,7.9500,9.3925,1.0367,1.7837,0.1585,0.6952,0.2462,-68.8500,34.5000,-29.4000,2.9400,4.4300,-8.0000,0.1473,-0.2029,0.0153,2.2500,-32.0000,13.8750,158.3125,20.7500,-151.2500,0
307.549,9.2249,1.9680,1.8675,-0.9451,0.5084,0.3821,-44.8500,12.1500,7.9500,9.3925,1.0367,1.7837,0.1585,0.6952,0.2462,-68.8500,34.5000,-29.4000,3.1300,4.2500,-8.1800,0.1309,-0.2334,0.0338,2.2500,-32.0000,13.8750,158.3125,20.7500,-151.2500,0
307.554,9.1123,1.8603,1.8411,-0.9406,0.4748,0.3656,-45.1500,11.7000,7.9500,9.4355,0.2442,1.5299,0.0274,0.7309,0.2691,-68.8500,34.5000,-29.4000,3.3300,4.1800,-8.2900,0.1156,-0.2356,0.0447,2.2500,-32.0000,13.8750,158.3750,20.6250,-151.3125,0
307.560,9.1123,1.8603,1.8411,-0.9406,0.4748,0.3656,-45.1500,12.4500,9.3000,9.5864,0.2298,1.4557,0.0274,0.7309,0.2691,-68.8500,34.5000,-29.4000,3.3300,4.1800,-8.2900,0.1156,-0.2356,0.0447,2.2500,-32.0000,13.8750,158.3750,20.6250,-151.3125,0
307.568,9.3877,1.5179,1.6640,-0.9062,0.4730,0.3605,-45.1500,12.4500,9.3000,9.5864,0.2298,1.4557,-0.1199,0.7799,0.3206,-70.3500,35.7000,-30.1500,3.3100,4.0400,-8.4100,0.0938,-0.2105,0.0502,2.2500,-32.0000,13.8750,158.4375,20.5000,-151.4375,0
307.578,9.2033,1.3216,1.6640,-0.9172,0.4445,0.3488,-43.9500,13.0500,9.9000,9.5768,0.5626,1.4581,-0.3099,0.7725,0.3315,-69.4500,33.6000,-28.0500,3.2700,4.1100,-8.3800,0.0633,-0.1560,0.0622,2.2500,-32.0000,13.8750,158.5000,20.4375,-151.5000,0
307.583,9.1075,0.9050,1.7334,-0.9249,0.3885,0.3323,-43.9500,13.0500,9.9000,9.4595,1.1181,1.4964,-0.3312,0.8074,0.3432,-70.3500,34.5000,-27.4500,3.2700,4.1100,-8.3800,0.0633,-0.1560,0.0622,2.2500,-32.0000,13.8750,158.3750,20.4375,-151.5625,0
307.588,9.1075,0.9050,1.7334,-0.9249,0.3885,0.3323,-43.9500,13.0500,9.9000,9.5074,1.3479,1.9776,-0.3312,0.8074,0.3432,-70.3500,34.5000,-27.4500,3.3200,4.1000,-8.3800,0.0218,-0.1167,0.0720,2.6875,-32.7500,14.2500,158.3750,20.4375,-151.5625,0
307.593,9.4643,1.0104,2.1548,-0.8399,0.3722,0.3016,-45.0000,12.3000,8.1000,9.5074,1.3479,1.9776,-0.3192,0.8311,0.3648,-70.5000,34.8000,-27.3000,3.3200,4.1000,-8.3800,0.0218,-0.1167,0.0720,2.6875,-32.7500,14.2500,158.3750,20.4375,-151.5625,0
307.598,9.4643,1.0104,2.1548,-0.8399,0.3722,0.3016,-45.0000,12.3000,8.1000,9.5840,1.4437,2.5498,-0.3192,0.8311,0.3648,-70.5000,34.8000,-27.3000,3.2600,4.1700,-8.3000,-0.0109,-0.0905,0.0785,2.6875,-32.7500,14.2500,158.4375,20.3750,-151.5625,0
307.603,9.7683,1.2474,2.5522,-0.9030,0.3451,0.2862,-44.2500,11.2500,9.1500,9.5840,1.4437,2.5498,-0.2233,0.8647,0.3832,-70.0500,35.4000,-26.4000,3.2600,4.1700,-8.3000,-0.0436,-0.0654,0.0807,2.6875,-32.7500,14.2500,158.5000,20.3750,-151.5625,0
307.609,9.7683,1.2474,2.5522,-0.9030,0.3451,0.2862,-43.6500,12.4500,9.0000,9.9790,1.1444,2.7102,-0.1807,0.8908,0.4141,-70.0500,35.4000,-26.4000,3.3600,4.2100,-8.4200,-0.0436,-0.0654,0.0807,2.6875,-32.7500,14.2500,158.5000,20.3750,-151.5625,0
307.618,9.8928,1.5897,2.8204,-1.0104,0.2846,0.2942,-43.6500,10.9500,9.0000,10.2328,0.6153,2.8395,-0.1609,0.8804,0.4509,-71.2500,34.3500,-27.0000,3.4100,4.1300,-8.4900,-0.0785,-0.0349,0.0764,2.6875,-32.7500,14.2500,158.5625,20.3750,-151.5625,0
307.623,10.0437,2.0662,3.0095,-1.0896,0.2289,0.3083,-43.6500,10.9500,9.7500,10.2328,0.6153,2.8395,-0.1609,0.8804,0.4509,-71.2500,34.3500,-27.0000,3.4100,4.1300,-8.4900,-0.1364,0.0098,0.0698,2.6875,-32.7500,14.2500,158.6250,20.3750,-151.5625,0
307.630,10.0437,2.0662,3.0095,-1.0896,0.2289,0.3083,-44.1000,10.9500,11.1000,10.3741,0.1484,2.6767,-0.2689,0.8767,0.4818,-71.2500,34.3500,-27.0000,3.3300,4.0800,-8.6000,-0.1364,0.0098,0.0698,2.6875,-32.7500,14.2500,158.6250,20.3750,-151.5625,0
307.635,9.9216,2.2242,2.9904,-1.0821,0.2134,0.3309,-44.1000,10.9500,11.1000,10.3741,0.1484,2.6767,-0.2689,0.8767,0.4818,-70.8000,34.2000,-28.2000,3.3300,4.0800,-8.6000,-0.1364,0.0098,0.0698,3.3750,-32.3750,13.0625,158.5000,20.4375,-151.4375,0
307.640,9.9216,2.2242,2.9904,-1.0821,0.2134,0.3309,-44.1000,10.9500,11.1000,10.4004,-0.1149,2.2266,-0.4024,0.8796,0.5116,-70.8000,34.2000,-28.2000,3.2300,4.2300,-8.7000,-0.2378,0.0774,0.0676,3.3750,-32.3750,13.0625,158.5000,20.4375,-151.4375,0
307.644,10.1538,2.2482,2.7533,-0.9702,0.2334,0.3416,-44.1000,10.9500,11.1000,10.4004,-0.1149,2.2266,-0.4024,0.8796,0.5116,-70.8000,34.2000,-28.2000,3.2300,4.2300,-8.7000,-0.2378,0.0774,0.0676,3.3750,-32.3750,13.0625,158.5625,20.5000,-151.1875,0
307.649,10.1538,2.2482,2.7533,-0.9702,0.2334,0.3416,-44.8500,12.1500,9.7500,10.4818,0.1437,1.9537,-0.5231,0.8799,0.5460,-70.8000,34.2000,-28.2000,3.1400,4.2800,-8.7600,-0.3622,0.1473,0.0764,3.3750,-32.3750,13.0625,158.5625,20.5000,-151.1875,0
307.654,10.4914,2.3750,2.3942,-0.8196,0.2166,0.3584,-44.8500,12.1500,9.7500,10.4818,0.1437,1.9537,-0.5231,0.8799,0.5460,-71.1000,33.7500,-26.1000,3.1400,4.2800,-8.7600,-0.4898,0.2280,0.0993,3.3750,-32.3750,13.0625,158.6875,20.6875,-150.9375,0
307.660,10.4914,2.3750,2.3942,-0.8196,0.2166,0.3584,-44.2500,13.0500,12.0000,10.4507,0.3112,1.4748,-0.5756,0.8911,0.6022,-71.1000,33.7500,-26.1000,3.1200,4.2800,-8.8900,-0.4898,0.2280,0.0993,3.3750,-32.3750,13.0625,158.7500,20.8750,-150.5625,0
307.669,10.6949,2.6288,1.7813,-0.7104,0.1631,0.3659,-43.6500,11.7000,11.1000,10.5105,-0.3807,0.7135,-0.5974,1.0011,0.6995,-72.3000,33.4500,-24.6000,4.6000,4.0200,-8.8800,-0.6196,0.3491,0.1200,3.3750,-32.3750,13.0625,158.7500,20.8750,-150.5625,0
307.679,10.5943,2.5187,1.2330,-0.6059,0.1082,0.3704,-45.0000,12.0000,10.2000,10.8098,0.7949,0.1389,-0.3504,1.0515,0.7250,-72.0000,34.0500,-25.8000,2.4300,3.2200,-9.6900,-0.8312,0.4996,0.1353,3.3750,-32.3750,13.0625,158.8125,21.1250,-150.0625,0
307.684,10.6925,2.5953,0.8667,-0.5348,0.0336,0.3933,-45.0000,12.0000,10.2000,10.8098,0.7949,0.1389,-0.3504,1.0515,0.7250,-70.8000,33.7500,-25.6500,2.4300,3.2200,-9.6900,-0.8312,0.4996,0.1353,3.3750,-32.3750,13.0625,158.9375,21.5000,-149.5000,0
307.689,10.6925,2.5953,0.8667,-0.5348,0.0336,0.3933,-45.0000,12.0000,10.2000,10.5225,2.4876,1.5969,-0.3304,1.0770,0.6739,-70.8000,33.7500,-25.6500,2.0600,6.0000,-8.4700,-1.0014,0.6578,0.2062,2.8750,-32.7500,12.6875,158.9375,21.5000,-149.5000,0
307.693,11.0277,2.7964,0.1915,-0.4477,-0.0738,0.3659,-45.0000,12.0000,10.2000,10.5225,2.4876,1.5969,-0.3304,1.0770,0.6739,-70.8000,33.7500,-25.6500,2.0600,6.0000,-8.4700,-1.0014,0.6578,0.2062,2.8750,-32.7500,12.6875,158.9375,21.5000,-149.5000,0
307.699,11.0277,2.7964,0.1915,-0.4477,-0.0738,0.3659,-43.9500,12.0000,12.0000,11.4658,3.4453,-0.3591,-0.4541,1.1362,0.7653,-70.8000,33.7500,-25.6500,2.3100,6.4200,-9.1500,-0.9665,0.9010,0.3720,2.8750,-32.7500,12.6875,159.1250,22.0625,-148.9375,0
307.704,11.7053,2.8467,-0.4525,-0.3842,-0.1801,0.2803,-43.9500,12.0000,12.0000,11.4658,3.4453,-0.3591,-0.4541,1.1362,0.7653,-73.6500,31.2000,-24.0000,2.3100,6.4200,-9.1500,-0.6872,1.3057,0.5683,2.8750,-32.7500,12.6875,159.3125,22.8125,-148.5000,0
307.710,11.8154,3.1220,-0.1413,-0.4810,-0.2697,0.1809,-46.0500,12.0000,11.7000,11.6765,-0.1053,-0.2538,-0.2044,1.3115,0.8082,-73.6500,31.2000,-24.0000,0.9700,7.0000,-9.4000,-0.6872,1.3057,0.5683,2.8750,-32.7500,12.6875,159.5000,23.9375,-148.3125,0
307.719,11.5664,3.3255,-1.1277,-0.4890,-0.3323,0.0887,-44.5500,10.8000,10.2000,11.4419,-0.9697,-0.1939,-0.3584,1.4504,0.7530,-73.6500,31.2000,-24.0000,1.3900,7.7700,-8.4100,-0.1571,1.9002,0.7483,2.8750,-32.7500,12.6875,159.5000,23.9375,-148.3125,0
307.729,11.4778,3.9097,-2.5786,-0.3285,-0.4106,0.0155,-45.3000,12.0000,11.7000,11.1977,0.6656,-1.0295,-0.7866,1.4663,0.7112,-70.9500,31.9500,-23.2500,1.8100,5.9700,-8.0900,0.4363,2.3344,1.0799,2.8750,-32.7500,12.6875,159.6875,25.3750,-148.5000,0
307.734,11.4778,3.9097,-2.5786,-0.3285,-0.4106,0.0155,-45.3000,12.0000,11.7000,12.0261,1.2234,-0.7350,-1.0837,1.5338,0.7991,-73.0500,31.8000,-22.6500,1.8100,5.9700,-8.0900,0.4363,2.3344,1.0799,2.8750,-32.7500,12.6875,160.0000,26.9375,-148.7500,0
307.739,11.2456,4.6615,-2.8611,-0.3597,-0.5351,-0.0733,-45.0000,12.3000,9.6000,12.0261,1.2234,-0.7350,-1.0837,1.5338,0.7991,-73.0500,31.8000,-22.6500,3.5400,3.4300,-8.8700,0.4701,2.4925,1.3886,2.5000,-33.0625,12.6875,160.0000,26.9375,-148.7500,0
307.744,11.2456,4.6615,-2.8611,-0.3597,-0.5351,-0.0733,-45.0000,12.3000,9.6000,12.8640,1.1229,-1.1923,-1.0203,1.6249,0.9782,-72.6000,31.8000,-22.3500,3.5400,3.4300,-8.8700,0.4701,2.4925,1.3886,2.5000,-33.0625,12.6875,160.3750,28.6250,-148.7500,0
307.749,11.1761,5.0398,-2.7461,-0.4703,-0.6582,-0.2161,-45.0000,12.3000,9.6000,12.8640,1.1229,-1.1923,-1.0203,1.6249,0.9782,-72.6000,31.8000,-22.3500,4.2100,6.7300,-9.3300,0.0709,2.5951,1.4639,2.5000,-33.0625,12.6875,160.3750,28.6250,-148.7500,0
307.753,11.1761,5.0398,-2.7461,-0.4703,-0.6582,-0.2161,-45.0000,12.3000,9.6000,13.3956,0.3711,-1.7478,-0.8934,1.7224,1.0864,-71.7000,31.9500,-21.0000,4.2100,6.7300,-9.3300,-0.1920,2.7587,1.6395,2.5000,-33.0625,12.6875,160.9375,30.3750,-148.6250,0
307.760,11.9399,5.0374,-2.9928,-0.5287,-0.8335,-0.3765,-44.8500,10.9500,13.6500,13.3956,0.3711,-1.7478,-0.8934,1.7224,1.0864,-71.7000,31.9500,-21.0000,4.8000,5.5700,-9.5400,-0.1920,2.7587,1.6395,2.5000,-33.0625,12.6875,161.6250,32.4375,-148.5000,0
307.769,12.2272,4.9225,-3.3375,-0.4431,-1.1559,-0.5196,-45.1500,11.4000,12.6000,14.2000,-0.4070,-1.3695,-0.6955,1.8333,1.1349,-73.2000,31.9500,-21.4500,3.1900,6.2500,-9.7500,-0.2411,3.1721,1.9537,2.5000,-33.0625,12.6875,161.6250,32.4375,-148.5000,0
307.779,11.7316,4.7309,-3.7062,-0.2030,-1.4837,-0.6507,-43.5000,11.5500,11.7000,14.6789,0.1580,-2.3535,-0.6869,1.9614,1.1724,-73.0500,33.0000,-19.3500,3.8900,6.4800,-10.1200,-0.1516,3.5474,2.3137,2.5000,-33.0625,12.6875,236.2500,34.8125,-148.4375,0
307.784,11.7316,4.7309,-3.7062,-0.2030,-1.4837,-0.6507,-43.5000,11.5500,11.7000,15.5432,0.7781,-3.1867,-0.8015,2.0091,1.2255,-73.0500,33.0000,-19.3500,3.8900,6.4800,-10.1200,-0.1516,3.5474,2.3137,2.5000,-33.0625,12.6875,236.2500,34.8125,-148.4375,0
307.789,11.0540,4.2784,-3.4884,0.0272,-1.7496,-0.7855,-44.1000,12.1500,11.5500,15.5432,0.7781,-3.1867,-0.8015,2.0091,1.2255,-73.0500,33.0000,-19.3500,3.8300,6.1700,-10.2600,0.0447,3.7437,2.7325,-1.0625,-33.0625,11.8750,231.8750,37.3750,-148.6250,0
307.794,11.0540,4.2784,-3.4884,0.0272,-1.7496,-0.7855,-44.1000,12.1500,11.5500,15.5479,1.3408,-3.5865,-0.8375,2.0368,1.2689,-72.6000,30.6000,-18.6000,3.8300,6.1700,-10.2600,0.0447,3.7437,2.7325,-1.0625,-33.0625,11.8750,231.8750,37.3750,-148.6250,0
307.799,10.3621,3.7565,-2.8323,0.2515,-1.8961,-0.9164,-44.1000,12.1500,11.5500,15.5479,1.3408,-3.5865,-0.8375,2.0368,1.2689,-72.6000,30.6000,-18.6000,3.2700,6.8300,-10.5100,0.3414,4.0023,3.0838,-1.0625,-33.0625,11.8750,227.1250,40.1250,-149.0625,0
307.803,10.3621,3.7565,-2.8323,0.2515,-1.8961,-0.9164,-44.1000,12.1500,11.5500,14.5280,2.1859,-3.7062,-0.8370,2.0496,1.2609,-71.8500,29.1000,-17.5500,3.2700,6.8300,-10.5100,0.7821,4.3808,3.5332,-1.0625,-33.0625,11.8750,221.7500,43.2500,-149.9375,0
307.810,10.0197,3.2250,-1.6759,0.4490,-1.9145,-1.0110,-44.8500,13.6500,10.5000,13.1226,2.9018,-2.5786,-0.8370,2.0496,1.2609,-71.8500,29.1000,-17.5500,3.8800,8.3700,-8.3900,0.7821,4.3808,3.5332,-1.0625,-33.0625,11.8750,215.6875,46.7500,-151.3125,0
307.819,10.4555,2.5618,-0.3903,0.4287,-1.9545,-1.0970,-45.3000,13.8000,8.8500,11.2408,3.3806,-1.7454,-0.7256,1.9814,1.1655,-73.0500,28.6500,-17.1000,4.5200,9.7300,-8.4400,1.3155,4.9796,4.0906,-1.0625,-33.0625,11.8750,215.6875,46.7500,-151.3125,0
307.829,10.6111,1.7119,0.8739,0.4048,-1.9702,-1.1402,-44.1000,12.4500,8.7000,8.9711,3.3064,0.0048,-0.5883,1.9108,1.0131,-73.3500,29.1000,-16.8000,4.3100,9.3200,-9.4200,1.7835,4.9840,4.2673,-1.0625,-33.0625,11.8750,209.4375,50.3125,-153.1875,0
307.834,10.6111,1.7119,0.8739,0.4048,-1.9702,-1.1402,-44.1000,12.4500,8.7000,8.9711,3.3064,0.0048,-0.4405,1.8866,0.8364,-74.4000,28.9500,-15.9000,4.3100,9.3200,-9.4200,1.7835,4.9840,4.2673,-1.0625,-33.0625,11.8750,209.4375,50.3125,-153.1875,0
307.839,11.1618,0.6009,1.7142,0.3168,-1.9572,-1.1882,-43.3500,13.9500,7.9500,7.4915,3.9217,2.4397,-0.4405,1.8866,0.8364,-74.4000,28.9500,-15.9000,3.4200,6.6800,-7.2800,2.3398,4.7080,4.4037,-7.0000,-32.7500,11.8750,203.1250,53.6875,-155.8750,0
307.844,11.1618,0.6009,1.7142,0.3168,-1.9572,-1.1882,-43.3500,13.9500,7.9500,7.4915,3.9217,2.4397,-0.6403,1.9377,0.6880,-73.2000,27.7500,-15.1500,3.4200,6.6800,-7.2800,2.3398,4.7080,4.4037,-7.0000,-32.7500,11.8750,203.1250,53.6875,-155.8750,0
307.849,11.1354,-0.7302,2.4277,0.1474,-1.7251,-1.2324,-43.2000,14.2500,8.8500,7.4412,0.7733,5.6264,-0.6403,1.9377,0.6880,-73.2000,27.7500,-15.1500,7.5500,5.9400,-6.6400,2.7958,5.2513,4.1844,-7.0000,-32.7500,11.8750,196.8125,57.2500,-158.9375,0
307.853,11.1354,-0.7302,2.4277,0.1474,-1.7251,-1.2324,-43.2000,14.2500,8.8500,7.4412,0.7733,5.6264,-0.5289,1.9343,0.5971,-73.2000,27.7500,-15.1500,7.5500,5.9400,-6.6400,2.9245,6.0890,3.6772,-7.0000,-32.7500,11.8750,191.0000,61.1250,-161.8750,0
307.860,10.4770,-1.5251,2.5833,-0.3328,-1.3003,-1.2225,-43.2000,14.2500,8.8500,8.8107,-2.6791,13.9941,1.1191,2.0720,0.5665,-73.2000,27.7500,-15.1500,11.1200,7.0700,-9.7400,2.9245,6.0890,3.6772,-7.0000,-32.7500,11.8750,186.3125,64.8125,-164.4375,0
307.869,11.3892,-2.0063,2.3296,-0.8895,-0.9366,-1.2161,-42.6000,12.9000,8.7000,10.6326,-0.2251,17.5399,2.1983,1.7285,0.4932,-73.0500,28.3500,-12.0000,16.4500,7.2000,-10.4400,2.5645,6.0574,2.9278,-7.0000,-32.7500,11.8750,186.3125,64.8125,-164.4375,0
307.879,13.0077,-1.9393,3.5482,-1.2065,-1.0629,-1.2268,-43.2000,13.8000,7.3500,9.1459,0.8356,8.5569,0.9204,0.8641,0.4162,-73.0500,28.3500,-12.0000,13.6800,11.6900,-17.9100,1.4279,4.5040,1.7464,-7.0000,-32.7500,11.8750,183.7500,67.5000,-165.8750,0
307.884,13.0628,-0.9361,3.4716,-1.4080,-1.3171,-1.2564,-43.2000,13.8000,7.3500,9.1459,0.8356,8.5569,0.9204,0.8641,0.4162,-71.5500,27.4500,-12.0000,13.6800,11.6900,-17.9100,1.4279,4.5040,1.7464,-7.0000,-32.7500,11.8750,183.3750,68.8125,-166.5000,0
307.889,13.0628,-0.9361,3.4716,-1.4080,-1.3171,-1.2564,-41.8500,13.2000,10.0500,9.8617,-1.6783,6.6679,0.5073,0.6819,0.2411,-71.5500,27.4500,-12.0000,8.4600,6.7100,-24.0900,-0.4123,2.1686,1.1377,-16.8750,-29.3750,11.0625,183.3750,68.8125,-166.5000,0
307.894,13.1968,-0.4621,3.6751,-1.4352,-1.3843,-1.3400,-41.8500,13.2000,10.0500,9.8617,-1.6783,6.6679,0.5073,0.6819,0.2411,-71.5500,27.4500,-12.0000,8.4600,6.7100,-24.0900,-0.4123,2.1686,1.1377,-16.8750,-29.3750,11.0625,183.3750,68.8125,-166.5000,0
307.898,13.1968,-0.4621,3.6751,-1.4352,-1.3843,-1.3400,-42.9000,13.6500,8.7000,10.0533,-0.5363,5.3319,0.3501,0.3752,-0.0722,-71.5500,27.4500,-10.0500,2.3300,8.1000,-18.7800,-0.5007,-0.8814,1.5664,-16.8750,-29.3750,11.0625,182.9375,68.5000,-168.6250,0
307.903,12.4522,0.0838,4.1827,-1.2223,-1.2540,-1.3355,-42.9000,13.6500,8.7000,10.0533,-0.5363,5.3319,0.3501,0.3752,-0.0722,-71.5500,27.4500,-10.0500,2.3300,8.1000,-18.7800,-0.5007,-0.8814,1.5664,-16.8750,-29.3750,11.0625,181.4375,67.1250,-172.3125,0
307.910,12.4522,0.0838,4.1827,-1.2223,-1.2540,-1.3355,-42.9000,13.6500,8.7000,8.1523,0.1556,3.5171,-0.1761,0.1652,-0.4309,-71.2500,27.7500,-11.1000,0.0200,7.9200,-9.6900,0.7145,-2.8776,1.9580,-16.8750,-29.3750,11.0625,180.1875,65.5000,-175.1875,0
307.919,11.3461,0.6871,3.5195,-0.6659,-1.0944,-1.2638,-40.0500,16.2000,9.7500,6.4308,-0.0431,3.8020,-0.1053,0.0418,-0.6675,-71.5500,27.4500,-10.8000,-0.0500,5.3100,-8.1600,0.4843,-3.1394,1.7213,-16.8750,-29.3750,11.0625,180.1875,65.5000,-175.1875,0
307.929,10.5465,1.5012,3.6344,-0.2939,-0.9864,-1.2465,-40.2000,16.5000,7.0500,7.0437,-1.5107,4.6711,0.0501,-0.1609,-0.8242,-72.3000,28.6500,-11.5500,-3.0700,5.7200,-4.2500,-0.0982,-3.4361,1.3821,-16.8750,-29.3750,11.0625,179.6250,63.6250,-177.0000,0
307.934,9.6630,2.1811,3.0909,0.0051,-0.9483,-1.2436,-40.6500,15.0000,7.8000,7.0437,-1.5107,4.6711,0.0501,-0.1609,-0.8242,-72.3000,28.6500,-11.5500,-3.0700,5.7200,-4.2500,-0.0982,-3.4361,1.3821,-16.8750,-29.3750,11.0625,179.6250,63.6250,-177.0000,0
307.939,9.6630,2.1811,3.0909,0.0051,-0.9483,-1.2436,-40.6500,15.0000,7.8000,5.7054,-2.2386,5.4516,-0.1561,-0.6491,-0.7456,-71.1000,28.3500,-12.7500,0.3300,6.0200,-5.0300,-0.4581,-1.9548,0.9785,-23.1875,-25.7500,10.2500,179.5625,62.5625,-177.9375,0
307.944,9.2703,2.7869,2.2913,0.2878,-1.0139,-1.2241,-40.5000,16.2000,8.2500,5.2625,-2.6863,5.3798,-0.1561,-0.6491,-0.7456,-71.1000,28.3500,-12.7500,0.3300,6.0200,-5.0300,-0.4581,-1.9548,0.9785,-23.1875,-25.7500,10.2500,179.5625,62.5625,-177.9375,0
307.949,9.2703,2.7869,2.2913,0.2878,-1.0139,-1.2241,-40.5000,16.2000,8.2500,5.2625,-2.6863,5.3798,-0.6803,-1.1080,-0.6262,-71.1000,28.3500,-12.7500,-0.1900,6.7500,-4.1200,-0.4625,-2.3955,0.5661,-23.1875,-25.7500,10.2500,179.6875,61.2500,-178.3125,0
307.954,9.3134,2.8108,2.1787,0.4104,-0.9694,-1.1946,-40.5000,15.1500,7.9500,5.3582,-2.0830,4.3120,-0.6803,-1.1080,-0.6262,-71.1000,28.3500,-12.7500,-0.1900,6.7500,-4.1200,-0.4396,-3.0172,-0.1025,-23.1875,-25.7500,10.2500,180.1875,59.5625,-178.0625,0
307.960,9.3134,2.8108,2.1787,0.4104,-0.9694,-1.1946,-40.5000,15.1500,7.9500,5.3582,-2.0830,4.3120,-1.0962,-1.4823,-0.5047,-71.1000,29.5500,-13.0500,-3.6000,7.7500,-0.9800,-0.4396,-3.0172,-0.1025,-23.1875,-25.7500,10.2500,181.2500,58.3750,-177.1250,0
307.969,9.2799,2.2817,2.2386,0.4072,-0.8761,-1.2044,-40.5000,15.1500,7.9500,5.3486,-1.3384,4.4101,-1.0904,-1.7515,-0.5305,-71.7000,27.3000,-12.9000,-2.9000,7.3400,-1.4400,-0.5280,-2.1631,-0.8116,-23.1875,-25.7500,10.2500,183.0625,57.5625,-175.3125,0
307.979,9.3039,1.7334,2.2266,0.3808,-0.8015,-1.2265,-41.1000,14.4000,6.4500,4.6807,0.5411,4.4556,-1.0259,-1.9071,-0.6009,-71.8500,29.1000,-12.7500,1.3300,6.6300,-3.6900,-0.8868,-1.4159,-1.5533,-23.1875,-25.7500,10.2500,183.0625,57.5625,-175.3125,0
307.984,9.0070,1.3288,1.8483,0.2966,-0.6145,-1.2228,-41.4000,15.3000,7.0500,4.8195,1.0463,4.1037,-0.9348,-2.0659,-0.7504,-71.8500,29.1000,-12.7500,1.3300,6.6300,-3.6900,-0.8868,-1.4159,-1.5533,-23.1875,-25.7500,10.2500,183.0625,57.5625,-175.3125,0
307.989,9.0070,1.3288,1.8483,0.2577,-0.4999,-1.1906,-41.4000,15.3000,7.0500,4.8195,1.0463,4.1037,-0.9348,-2.0659,-0.7504,-71.1000,29.1000,-13.5000,3.1800,5.5000,-5.2500,-1.1781,-1.6373,-2.2177,-21.6875,-24.3750,14.8750,185.3750,56.5000,-172.9375,0
307.994,8.6718,0.7566,1.3695,0.2577,-0.4999,-1.1906,-40.5000,15.1500,7.9500,5.2529,1.6281,4.2353,-0.4445,-2.2319,-0.9294,-71.1000,29.1000,-13.5000,3.1800,5.5000,-5.2500,-1.1781,-1.6373,-2.2177,-21.6875,-24.3750,14.8750,185.3750,56.5000,-172.9375,0
307.999,8.6048,0.3543,1.1636,0.3246,-0.4858,-1.1522,-40.5000,15.1500,7.9500,5.2529,1.6281,4.2353,-0.4445,-2.2319,-0.9294,-69.6000,27.1500,-13.5000,2.1000,4.7600,-4.4400,-1.3101,-2.3071,-2.7413,-21.6875,-24.3750,14.8750,188.5000,55.0000,-170.2500,0
308.004,8.6048,0.3543,1.1636,0.3246,-0.4858,-1.1522,-40.9500,15.3000,7.8000,5.8155,1.7071,4.1204,0.0093,-2.3486,-1.1056,-69.6000,27.1500,-13.5000,2.1000,4.7600,-4.4400,-1.3723,-2.2918,-2.9365,-21.6875,-24.3750,14.8750,191.9375,53.4375,-167.6250,0
308.010,8.1403,0.4262,1.1684,0.4199,-0.4892,-1.0802,-40.9500,15.3000,7.8000,5.8155,1.7071,4.1204,0.0093,-2.3486,-1.1056,-70.8000,27.9000,-13.0500,1.6500,3.3500,-4.8100,-1.3723,-2.2918,-2.9365,-21.6875,-24.3750,14.8750,195.3750,52.0000,-165.2500,0
308.019,7.7668,0.7374,1.4174,0.5409,-0.4338,-0.9904,-40.9500,15.3000,7.8000,6.5649,0.6752,4.1204,0.3946,-2.3305,-1.3051,-70.8000,27.9000,-13.0500,2.8300,2.3400,-6.1100,-1.4028,-2.0759,-2.7565,-21.6875,-24.3750,14.8750,195.3750,52.0000,-165.2500,0
308.029,7.8314,1.0558,1.4341,0.7184,-0.3048,-0.8964,-39.0000,16.9500,5.8500,8.0685,-0.1987,5.4324,0.6254,-2.4016,-1.5074,-69.7500,30.9000,-15.9000,3.7500,2.4100,-7.3600,-1.5315,-2.2646,-2.4031,-21.6875,-24.3750,14.8750,198.8750,50.4375,-163.2500,0
308.034,7.8314,1.0558,1.4341,0.7184,-0.3048,-0.8964,-38.4000,15.7500,6.7500,8.3079,-0.5650,6.2704,0.7877,-2.6955,-1.6065,-69.7500,30.9000,-15.9000,3.7500,2.4100,-7.3600,-1.5315,-2.2646,-2.4031,-21.6875,-24.3750,14.8750,198.8750,50.4375,-163.2500,0
308.039,8.4156,1.1420,1.4796,0.9070,-0.2651,-0.7823,-38.4000,15.7500,6.7500,8.3079,-0.5650,6.2704,0.7877,-2.6955,-1.6065,-69.7500,30.9000,-15.9000,3.2200,3.3600,-8.1900,-1.6079,-2.7871,-2.0006,-18.2500,-27.6875,14.5000,202.5625,48.6250,-161.6250,0
308.044,8.4156,1.1420,1.4796,0.9070,-0.2651,-0.7823,-39.0000,16.6500,5.8500,7.5154,-1.2186,5.0781,0.9393,-2.8682,-1.6315,-69.7500,30.9000,-15.9000,3.2200,3.3600,-8.1900,-1.6079,-2.7871,-2.0006,-18.2500,-27.6875,14.5000,202.5625,48.6250,-161.6250,0
308.049,8.2408,1.1923,1.6352,1.1223,-0.3557,-0.6710,-39.0000,16.6500,5.8500,7.5154,-1.2186,5.0781,0.9393,-2.8682,-1.6315,-71.2500,30.9000,-17.4000,3.8300,2.9700,-8.3800,-1.5348,-3.0707,-1.6788,-18.2500,-27.6875,14.5000,206.2500,46.6875,-160.4375,0
308.054,8.2408,1.1923,1.6352,1.1223,-0.3557,-0.6710,-38.4000,15.7500,7.0500,8.0493,-2.6312,4.3574,0.8839,-2.9596,-1.6142,-71.2500,30.9000,-17.4000,3.8300,2.9700,-8.3800,-1.5304,-3.1460,-1.4857,-18.2500,-27.6875,14.5000,210.0625,44.7500,-159.3750,0
308.060,8.1977,1.1109,1.8364,1.2449,-0.2707,-0.6035,-38.4000,15.7500,7.0500,8.8298,-3.6919,4.1061,0.8839,-2.9596,-1.6142,-70.5000,32.8500,-19.9500,4.8300,2.6400,-8.5200,-1.5304,-3.1460,-1.4857,-18.2500,-27.6875,14.5000,214.1250,42.8125,-158.4375,0
308.070,8.1858,0.8523,1.7023,1.3358,-0.2188,-0.5606,-39.0000,15.9000,4.8000,8.9040,-4.0941,4.1899,0.4764,-3.0691,-1.5247,-70.9500,34.0500,-20.2500,5.4200,2.2700,-8.3700,-1.5893,-3.2092,-1.3963,-18.2500,-27.6875,14.5000,214.1250,42.8125,-158.4375,0
308.079,7.6255,0.0311,1.1516,1.4453,-0.1436,-0.5409,-39.0000,15.9000,4.8000,9.1889,-3.7541,4.4628,-0.6896,-3.3977,-1.3595,-70.9500,34.0500,-21.4500,5.9000,2.5300,-8.4100,-1.6450,-3.1721,-1.3777,-18.2500,-27.6875,14.5000,218.4375,40.9375,-157.5000,0
308.084,7.6255,0.0311,1.1516,1.4453,-0.1436,-0.5409,-38.5500,13.9500,4.3500,9.1889,-3.7541,4.4628,-0.6896,-3.3977,-1.3595,-70.9500,34.0500,-21.4500,5.9000,2.5300,-8.4100,-1.6450,-3.1721,-1.3777,-18.2500,-27.6875,14.5000,170.7500,39.0000,-156.5625,0
308.089,7.4962,-0.4190,0.8499,1.3102,0.0250,-0.5148,-38.5500,13.9500,4.3500,9.7468,-2.6815,4.7692,-1.2582,-3.5730,-1.3600,-70.9500,34.0500,-21.4500,5.9500,2.9500,-8.7700,-1.6373,-3.1100,-1.3821,-12.7500,-29.8750,12.8750,170.7500,39.0000,-156.5625,0
308.094,7.4962,-0.4190,0.8499,1.3102,0.0250,-0.5148,-37.5000,13.6500,4.8000,9.7468,-2.6815,4.7692,-1.2582,-3.5730,-1.3600,-70.9500,34.0500,-21.4500,5.9500,2.9500,-8.7700,-1.6373,-3.1100,-1.3821,-12.7500,-29.8750,12.8750,170.5625,37.1875,-155.6250,0
308.099,7.4651,-0.1891,0.2514,1.1349,0.0695,-0.4666,-37.5000,13.6500,4.8000,9.8593,-1.6472,4.9847,-1.5487,-3.7438,-1.4477,-69.6000,33.4500,-22.6500,5.9400,3.5100,-9.0300,-1.5533,-2.9911,-1.4017,-12.7500,-29.8750,12.8750,170.5625,37.1875,-155.6250,0
308.104,7.4651,-0.1891,0.2514,1.1349,0.0695,-0.4666,-38.5500,15.4500,5.1000,9.8593,-1.6472,4.9847,-1.5487,-3.7438,-1.4477,-69.6000,33.4500,-22.6500,5.9400,3.5100,-9.0300,-1.4519,-2.8525,-1.4028,-12.7500,-29.8750,12.8750,170.3750,35.4375,-154.8125,0
308.110,7.5585,-0.2945,-0.2945,0.9691,0.0208,-0.4301,-37.5000,15.9000,4.0500,9.3948,-0.5267,4.6017,-1.4197,-3.7920,-1.5908,-69.6000,33.4500,-22.6500,6.3600,4.1800,-9.6400,-1.4519,-2.8525,-1.4028,-12.7500,-29.8750,12.8750,170.1875,33.7500,-154.0000,0
308.120,7.8243,-0.4956,-0.5866,0.8495,0.0440,-0.3720,-37.5000,15.9000,4.0500,8.8274,0.3089,4.0199,-0.9300,-3.6385,-1.7557,-69.7500,31.6500,-22.2000,7.1000,4.4500,-9.7200,-1.4006,-2.7413,-1.3843,-12.7500,-29.8750,12.8750,170.1875,33.7500,-154.0000,0
308.130,7.8171,-0.7039,-0.8595,0.6414,-0.0187,-0.3142,-37.5000,15.9000,4.0500,8.8705,0.6728,3.6081,-0.2004,-3.4267,-1.8847,-68.2500,34.8000,-23.7000,7.9300,4.6100,-9.7300,-1.4541,-2.7282,-1.4334,-12.7500,-29.8750,12.8750,169.9375,32.0000,-153.1875,0
308.134,7.8171,-0.7039,-0.8595,0.3501,-0.0810,-0.2598,-37.2000,15.9000,5.4000,8.8705,0.6728,3.6081,-0.2004,-3.4267,-1.8847,-68.2500,34.8000,-23.7000,7.9300,4.6100,-9.7300,-1.4541,-2.7282,-1.4334,-12.7500,-29.8750,12.8750,169.9375,32.0000,-153.1875,0
308.140,7.9200,-0.9744,-1.1349,0.3501,-0.0810,-0.2598,-37.2000,15.9000,5.4000,9.2296,0.6393,3.3232,0.5500,-3.2293,-1.9404,-69.4500,34.8000,-24.3000,8.4700,5.2000,-9.7200,-1.4901,-2.4609,-1.4835,-8.3750,-30.5625,9.2500,169.6875,30.4375,-152.3125,0
308.144,8.1116,-0.7949,-1.1588,0.0901,-0.1295,-0.2281,-37.6500,14.5500,4.9500,9.2296,0.6393,3.3232,0.5500,-3.2293,-1.9404,-69.4500,34.8000,-24.3000,8.4700,5.2000,-9.7200,-1.4901,-2.4609,-1.4835,-8.3750,-30.5625,9.2500,169.6875,30.4375,-152.3125,0
308.149,8.1116,-0.7949,-1.1588,0.0901,-0.1295,-0.2281,-0.4500,14.5500,4.9500,9.8378,0.3160,3.1077,1.1024,-3.0550,-1.8820,-67.5000,37.5000,-24.7500,8.3500,5.4400,-9.1400,-1.5119,-2.3955,-1.6515,-8.3750,-30.5625,9.2500,169.3125,28.8125,-151.3750,0
308.157,8.0134,-0.5507,-1.2641,-0.1593,-0.0746,-0.2038,-38.8500,14.5500,3.9000,10.4267,-0.4501,3.1388,1.4213,-2.9543,-1.7603,-67.2000,36.0000,-27.7500,8.3100,5.5900,-9.2500,-1.4824,-2.1762,-1.8413,-8.3750,-30.5625,9.2500,168.8125,27.2500,-150.3750,0
308.162,8.0134,-0.5507,-1.2641,-0.1593,-0.0746,-0.2038,-37.9500,14.7000,2.5500,10.4267,-0.4501,3.1388,1.4213,-2.9543,-1.7603,-67.2000,36.0000,-27.7500,8.3100,5.5900,-9.2500,-1.4824,-2.1762,-1.8413,-8.3750,-30.5625,9.2500,168.1250,25.8125,-149.3750,0
308.170,7.4340,0.0120,-1.4676,-0.3698,-0.0530,-0.1785,-37.5000,15.4500,3.6000,10.7643,-1.0606,3.2322,1.4783,-2.9058,-1.6033,-68.7000,36.7500,-27.0000,8.5400,5.3500,-9.5400,-1.3766,-1.9242,-2.0377,-8.3750,-30.5625,9.2500,167.3125,24.3125,-148.4375,0
308.180,8.0996,0.6560,-1.8172,-0.6131,-0.1138,-0.1383,-37.5000,15.4500,3.6000,11.1690,-1.4844,3.0526,1.2950,-2.9052,-1.4410,-68.7000,36.7500,-27.0000,8.8200,4.8300,-10.5500,-1.2305,-1.7039,-2.2515,-8.3750,-30.5625,9.2500,167.3125,24.3125,-148.4375,0
308.185,7.8338,1.3336,-1.9752,-0.8681,-0.0349,-0.0933,-37.5000,15.4500,3.6000,11.3054,-1.8986,2.8898,1.2950,-2.9052,-1.4410,-68.7000,36.7500,-27.0000,8.8200,4.8300,-10.5500,-1.2305,-1.7039,-2.2515,-8.3750,-30.5625,9.2500,167.3125,24.3125,-148.4375,0
308.190,7.8338,1.3336,-1.9752,-0.8681,-0.0349,-0.0933,-37.3500,16.5000,3.9000,11.3054,-1.8986,2.8898,1.1130,-2.8837,-1.2961,-66.6000,36.4500,-30.1500,9.0000,4.2800,-11.0700,-1.0865,-1.5228,-2.4642,-9.0625,-27.6875,8.5000,166.3125,22.8750,-147.5000,0
308.195,8.0373,2.1500,-1.9465,-1.1687,0.0655,-0.0658,-37.3500,16.5000,3.9000,11.3557,-1.6999,3.3016,1.1130,-2.8837,-1.2961,-66.6000,36.4500,-30.1500,9.0000,4.2800,-11.0700,-1.0865,-1.5228,-2.4642,-9.0625,-27.6875,8.5000,166.3125,22.8750,-147.5000,0
308.200,8.0373,2.1500,-1.9465,-1.1687,0.0655,-0.0658,-36.7500,13.9500,4.0500,11.3557,-1.6999,3.3016,0.8689,-2.9234,-1.1780,-65.5500,36.0000,-28.5000,9.0400,3.7600,-11.4300,-0.9817,-1.4508,-2.6365,-9.0625,-27.6875,8.5000,165.1875,21.4375,-146.6250,0
308.204,8.6287,2.7725,-1.8148,-1.5183,0.0266,-0.0264,-36.7500,13.9500,4.0500,10.5177,-1.5562,2.3918,0.4794,-2.9258,-1.0898,-65.5500,36.0000,-28.5000,9.0400,3.7600,-11.4300,-0.8999,-1.3679,-2.7205,-9.0625,-27.6875,8.5000,164.0000,19.9375,-145.8125,0
308.210,8.6287,2.7725,-1.8148,-1.5183,0.0266,-0.0264,-37.5000,15.4500,4.0500,10.5177,-1.5562,2.3918,0.4794,-2.9258,-1.0898,-66.3000,37.5000,-29.8500,9.5100,2.7800,-12.1300,-0.8999,-1.3679,-2.7205,-9.0625,-27.6875,8.5000,162.8125,18.5000,-145.0625,0
308.220,8.8681,3.6536,-1.6209,-1.7091,0.0261,0.0168,-38.2500,15.9000,4.0500,10.2328,-1.5730,2.3272,0.2766,-2.8280,-1.0243,-67.2000,37.0500,-30.3000,10.0700,1.7800,-12.4000,-0.8508,-1.3286,-2.6889,-9.0625,-27.6875,8.5000,162.8125,18.5000,-145.0625,0
308.230,8.7412,4.6471,-1.4581,-1.6958,0.1124,0.0043,-38.2500,15.9000,4.0500,9.8067,-1.3838,1.9225,0.0293,-2.6923,-0.9657,-64.8000,38.2500,-30.6000,10.6800,1.0100,-12.4900,-0.8956,-1.4432,-2.5275,-9.0625,-27.6875,8.5000,161.7500,17.0625,-144.3750,0
308.235,8.9232,5.1427,-1.2617,-1.5532,0.2217,-0.0269,-38.2500,15.9000,4.0500,9.5864,-1.6616,1.2689,-0.2542,-2.5455,-0.9297,-64.8000,38.2500,-30.6000,10.6800,1.0100,-12.4900,-0.8956,-1.4432,-2.5275,-9.0625,-27.6875,8.5000,160.8750,15.5000,-143.6875,0
308.240,8.9232,5.1427,-1.2617,-1.5532,0.2217,-0.0269,-38.2500,15.9000,4.0500,9.5864,-1.6616,1.2689,-0.2542,-2.5455,-0.9297,-66.3000,37.0500,-31.0500,10.8500,0.4800,-12.0900,-0.9610,-1.7268,-2.2711,-10.0625,-29.5625,12.7500,160.8750,15.5000,-143.6875,0
308.244,9.1267,5.1284,-1.3599,-1.2452,0.3048,-0.0288,-38.2500,15.9000,4.0500,9.1842,-2.3583,0.6464,-0.4794,-2.3720,-0.9214,-66.3000,37.0500,-31.0500,10.8500,0.4800,-12.0900,-0.9610,-1.7268,-2.2711,-10.0625,-29.5625,12.7500,160.2500,14.0000,-143.1250,0
308.249,9.1267,5.1284,-1.3599,-1.2452,0.3048,-0.0288,-37.9500,16.6500,5.4000,9.1842,-2.3583,0.6464,-0.4794,-2.3720,-0.9214,-66.3000,37.0500,-31.0500,10.1700,0.1000,-9.7000,-0.9577,-2.0082,-1.8610,-10.0625,-29.5625,12.7500,160.2500,14.0000,-143.1250,0
308.257,9.4068,5.0470,-1.8196,-0.7240,0.3256,0.0133,-37.9500,16.6500,5.4000,8.8777,-2.7366,0.9577,-0.5966,-2.1786,-0.9340,-66.3000,37.0500,-31.0500,10.2500,0.2200,-8.4000,-0.9283,-2.0998,-1.3603,-10.0625,-29.5625,12.7500,159.9375,12.6250,-142.6250,0
308.262,9.3996,4.7333,-2.3415,-0.1903,0.2947,0.0850,-37.6500,16.5000,7.3500,8.6431,-2.3894,0.9242,-0.5966,-2.1786,-0.9340,-66.0000,37.0500,-32.5500,10.2500,0.2200,-8.4000,-0.9283,-2.0998,-1.3603,-10.0625,-29.5625,12.7500,159.9375,11.4375,-142.1250,0
308.270,9.3398,4.5059,-2.7485,0.2388,0.1815,0.1567,-37.6500,15.0000,7.0500,8.6431,-2.3894,0.9242,-0.9185,-2.0038,-0.9483,-66.0000,37.0500,-32.5500,10.3800,-0.2100,-7.6100,-0.9850,-2.0802,-0.8934,-10.0625,-29.5625,12.7500,160.0625,10.3125,-141.5625,0
308.280,9.1530,4.3455,-3.1244,0.4871,0.0637,0.2150,-37.9500,16.6500,5.8500,8.6024,-1.6544,0.7183,-1.2412,-1.8016,-0.9382,-63.7500,39.0000,-32.8500,10.0500,-1.0500,-6.9600,-1.2152,-2.0431,-0.5334,-10.0625,-29.5625,12.7500,160.0625,10.3125,-141.5625,0
308.285,9.1530,4.3455,-3.1244,0.4871,0.0637,0.2150,-37.9500,16.6500,5.8500,8.7245,-0.8643,0.5387,-1.4767,-1.5692,-0.8692,-63.7500,39.0000,-32.8500,10.0500,-1.0500,-6.9600,-1.2152,-2.0431,-0.5334,-10.0625,-29.5625,12.7500,160.3750,9.3750,-140.8125,0
308.290,9.1339,4.6280,-3.3662,0.5577,0.0099,0.2609,-37.9500,16.6500,5.8500,8.5760,-0.0215,-0.0886,-1.4767,-1.5692,-0.8692,-64.0500,37.0500,-32.8500,9.8700,-0.9900,-6.7500,-1.4901,-1.9493,-0.2607,-4.0625,-35.6875,14.7500,160.3750,9.3750,-140.8125,0
308.295,9.1339,4.6280,-3.3662,0.5577,0.0099,0.2609,-37.9500,16.6500,5.8500,8.5760,-0.0215,-0.0886,-1.6148,-1.3121,-0.7461,-64.0500,37.0500,-32.8500,9.8700,-0.9900,-6.7500,-1.4901,-1.9493,-0.2607,-4.0625,-35.6875,14.7500,160.8125,8.6875,-140.0000,0
308.300,8.9783,4.9225,-3.4285,0.4946,0.0019,0.2545,-37.2000,16.9500,6.4500,8.3103,0.6584,0.0407,-1.6148,-1.3121,-0.7461,-61.9500,38.8500,-31.2000,9.7400,-1.3700,-6.6700,-1.6264,-1.7017,-0.0044,-4.0625,-35.6875,14.7500,160.8125,8.6875,-140.0000,0
308.306,8.9783,4.9225,-3.4285,0.4946,0.0019,0.2545,-37.2000,16.9500,6.4500,8.3103,0.6584,0.0407,-1.5785,-1.0557,-0.5878,-61.9500,38.8500,-31.2000,9.3300,-1.3500,-6.8300,-1.6362,-1.4388,0.1920,-4.0625,-35.6875,14.7500,161.2500,8.1250,-139.1875,0
308.311,8.8633,4.8866,-2.9832,0.3501,0.0517,0.2057,-38.4000,16.8000,5.7000,7.9440,1.3862,0.2777,-1.3083,-0.7714,-0.4109,-60.3000,38.7000,-31.8000,9.3300,-1.3500,-6.8300,-1.6362,-1.4388,0.1920,-4.0625,-35.6875,14.7500,161.7500,7.7500,-138.3750,0
308.320,8.7580,4.7525,-2.3463,0.2326,0.1740,0.1860,-38.8500,15.3000,4.5000,7.6591,1.8220,0.5698,-0.9438,-0.4756,-0.2268,-60.3000,38.7000,-31.8000,10.5200,-0.3800,-7.3800,-1.5762,-1.1094,0.2803,-4.0625,-35.6875,14.7500,162.0625,7.5625,-137.7500,0
308.330,8.8298,4.5442,-1.7957,0.2294,0.3685,0.2161,-39.0000,15.4500,5.8500,7.7117,1.7549,0.3017,-0.4986,-0.1831,-0.0386,-63.1500,39.6000,-31.6500,11.7900,0.2900,-7.9600,-1.3166,-0.7407,0.2280,-4.0625,-35.6875,14.7500,162.0625,7.5625,-137.7500,0
308.335,8.8298,4.5442,-1.7957,0.2294,0.3685,0.2161,-39.0000,15.4500,5.8500,7.7117,1.7549,0.3017,-0.4986,-0.1831,-0.0386,-63.1500,39.6000,-31.6500,11.7900,0.2900,-7.9600,-1.3166,-0.7407,0.2280,-4.0625,-35.6875,14.7500,162.0625,7.5625,-137.7500,0
308.340,8.9783,3.9887,-1.3336,0.3056,0.4319,0.2390,-39.0000,15.4500,5.8500,7.7285,1.1971,0.2873,-0.0165,0.1039,0.1322,-63.1500,39.6000,-31.6500,11.8300,0.1400,-7.4700,-0.7679,-0.6632,0.1440,0.5000,-38.0625,11.3750,162.3125,7.3125,-137.3125,0
308.345,8.9783,3.9887,-1.3336,0.3056,0.4319,0.2390,-39.0000,15.4500,5.8500,7.7285,1.1971,0.2873,-0.0165,0.1039,0.1322,-63.1500,39.6000,-31.6500,11.8300,0.1400,-7.4700,-0.7679,-0.6632,0.1440,0.5000,-38.0625,11.3750,162.3125,7.3125,-137.3125,0
308.350,8.6838,3.4261,-0.5219,0.3094,0.4234,0.2734,-39.0000,15.4500,5.8500,7.8554,0.4884,0.6393,0.3858,0.3640,0.2574,-61.9500,39.3000,-30.4500,10.0500,-1.5400,-4.8500,-0.2127,-0.6327,0.1222,0.5000,-38.0625,11.3750,162.5625,7.1250,-137.2500,0
308.360,8.3127,3.0837,0.0599,0.3533,0.4636,0.3611,-39.3000,15.1500,4.8000,8.2720,0.4764,0.3496,0.5660,0.6190,0.3328,-61.6500,38.8500,-32.4000,10.7300,-1.0500,-4.0500,0.0894,-0.2793,0.1887,0.5000,-38.0625,11.3750,162.6875,7.0625,-137.3125,0
308.368,9.0405,2.7821,-0.0407,0.4429,0.5265,0.5172,-37.6500,15.7500,5.7000,10.7212,3.1819,-1.7478,0.1378,0.7602,0.3643,-63.4500,39.6000,-32.4000,12.2400,-0.7900,-3.2700,0.2356,0.4123,0.3447,0.5000,-38.0625,11.3750,162.8125,7.3750,-137.4375,0
308.373,9.0405,2.7821,-0.0407,0.4429,0.5265,0.5172,-37.6500,15.7500,5.7000,10.7212,3.1819,-1.7478,0.1378,0.7602,0.3643,-63.4500,39.6000,-31.6500,12.2400,-0.7900,-3.2700,0.2356,0.4123,0.3447,0.5000,-38.0625,11.3750,162.8750,8.3125,-137.6250,0
308.381,11.8082,2.5426,0.1987,0.5758,0.6523,0.8308,-40.0500,13.9500,5.1000,15.1146,4.0845,-2.6025,-0.5518,0.4474,0.3355,-63.0000,39.0000,-31.8000,11.4300,-7.0400,-2.3800,0.3360,1.5686,0.7767,0.5000,-38.0625,11.3750,162.8750,8.3125,-137.6250,0
308.386,11.8082,2.5426,0.1987,0.5758,0.6523,0.8308,-40.0500,15.9000,4.3500,15.1146,4.0845,-2.6025,-0.5518,0.4474,0.3355,-63.0000,39.0000,-31.8000,3.7900,-7.0500,-4.2500,0.9098,1.7955,1.1508,1.8750,-39.0625,8.5000,163.0625,9.5000,-138.0625,0
308.391,13.9079,2.6073,-0.1580,0.6803,0.7637,1.2311,-40.0500,15.9000,4.3500,16.3787,-0.7278,-2.6671,1.4581,0.2883,0.3738,-64.6500,38.5500,-33.4500,3.7900,-7.0500,-4.2500,0.9098,1.7955,1.1508,1.8750,-39.0625,8.5000,163.0625,9.5000,-138.0625,0
308.395,13.9079,2.6073,-0.1580,0.6803,0.7637,1.2311,-40.0500,15.9000,4.3500,14.2694,-2.0016,-4.2186,1.4581,0.2883,0.3738,-64.6500,38.5500,-33.4500,3.7900,-7.0500,-4.2500,0.9807,1.4661,2.4358,1.8750,-39.0625,8.5000,164.0625,11.0000,-138.6875,0
