timestamp,thigh_acc_x,thigh_acc_y,thigh_acc_z,thigh_gyro_x,thigh_gyro_y,thigh_gyro_z,thigh_mag_x,thigh_mag_y,thigh_mag_z,shank_acc_x,shank_acc_y,shank_acc_z,shank_gyro_x,shank_gyro_y,shank_gyro_z,shank_mag_x,shank_mag_y,shank_mag_z,foot_acc_x,foot_acc_y,foot_acc_z,foot_gyro_x,foot_gyro_y,foot_gyro_z,foot_mag_x,foot_mag_y,foot_mag_z,foot_euler_x,foot_euler_y,foot_euler_z,perturbation_event
1776973833.248,9.572,3.0287,-0.644,1.303,0.9507,0.4104,-58.8,12.0,28.8,9.6007,-2.1691,2.0758,1.9556,-0.5068,-0.5516,-69.6,14.25,-4.95,-5.96,-5.61,-6.95,0.8967,-0.6687,-3.1623,-2.0,20.375,37.5,255.75,-7.25,147.375,0
1776973833.253,10.058,3.2226,-0.5435,1.4202,0.9619,0.4191,-58.8,12.0,28.8,9.8857,-1.6927,2.5235,1.8495,-0.3605,-0.5588,-69.6,14.25,-4.95,-5.96,-5.61,-6.95,0.8967,-0.6687,-3.1623,-2.0,20.375,37.5,253.9375,-6.75,146.6875,0
1776973833.26,9.9479,3.4333,-1.2713,1.6038,0.9038,0.385,-58.95,12.15,27.9,11.315,-2.6264,-0.7063,1.5793,-0.3086,-0.4431,-69.15,14.25,-6.75,-5.33,-10.11,-7.44,0.9512,-0.817,-3.099,-2.0,20.375,37.5,252.125,-6.6875,146.125,0
1776973833.27,9.8282,3.8259,-2.1284,1.8604,0.8463,0.3293,-58.65,12.9,29.7,9.9024,-3.6655,3.7589,1.9905,-0.1356,-0.1796,-69.75,14.85,-7.35,-6.87,-2.09,-0.94,0.6381,-1.7431,-2.7227,-2.0,20.375,37.5,252.125,-6.6875,146.125,0
1776973833.275,9.8282,3.8259,-2.1284,1.8604,0.8463,0.3293,-58.65,12.9,29.7,9.9024,-3.6655,3.7589,1.9905,-0.1356,-0.1796,-69.75,14.85,-7.35,-6.87,-2.09,-0.94,0.6381,-1.7431,-2.7227,-2.0,20.375,37.5,250.375,-7.125,145.6875,0
1776973833.28,9.7588,4.2928,-2.727,2.0736,0.8034,0.2587,-58.65,12.9,29.7,8.758,-4.221,2.5379,1.8668,0.0922,0.0962,-70.35,14.25,-7.5,-11.58,-2.69,-2.85,0.3109,-2.6322,-2.4238,-4.75,21.1875,35.0625,250.375,-7.125,145.6875,0
1776973833.285,9.7588,4.2928,-2.727,2.0736,0.8034,0.2587,-58.65,12.9,29.7,8.758,-4.221,2.5379,1.8668,0.0922,0.0962,-70.35,14.25,-7.5,-11.58,-2.69,-2.85,0.3109,-2.6322,-2.4238,-4.75,21.1875,35.0625,248.5625,-7.875,145.3125,0
1776973833.29,9.7492,4.5394,-2.873,2.2268,0.8191,0.1919,-58.65,12.9,29.7,8.3677,-3.8882,3.2801,1.9132,0.2907,0.3443,-69.45,13.65,-7.65,-12.79,-4.45,-5.4,0.2302,-3.1678,-2.2351,-4.75,21.1875,35.0625,248.5625,-7.875,145.3125,0
1776973833.295,9.7492,4.5394,-2.873,2.2268,0.8191,0.1919,-59.85,9.75,31.95,8.3677,-3.8882,3.2801,1.9132,0.2907,0.3443,-69.45,13.65,-7.65,-12.79,-4.45,-5.4,0.1385,-3.4688,-2.2657,-4.75,21.1875,35.0625,246.75,-8.75,144.875,0
1776973833.301,9.4499,4.8052,-2.2529,2.3025,0.7842,0.1545,-59.85,9.75,31.95,8.5377,-2.8252,2.7749,1.8282,0.4876,0.5159,-70.35,13.8,-8.7,-11.6,-4.46,-6.66,0.1385,-3.4688,-2.2657,-4.75,21.1875,35.0625,244.6875,-9.5625,144.5625,0
1776973833.31,9.5672,4.4843,-0.8811,2.1733,0.8005,0.1807,-59.1,9.0,32.4,9.6702,-1.4126,1.2306,1.7003,0.5441,0.5129,-69.45,11.7,-6.6,-7.85,-4.45,-8.32,-0.0611,-3.5321,-2.5045,-4.75,21.1875,35.0625,244.6875,-9.5625,144.5625,0
1776973833.32,9.2895,3.486,0.419,1.9041,0.9686,0.2806,-59.55,8.55,32.4,10.4483,-0.3567,0.3304,1.7171,0.4229,0.3632,-69.45,11.7,-6.6,-4.95,-5.55,-8.8,-0.2171,-3.4525,-2.7576,-4.75,21.1875,35.0625,242.5625,-10.25,144.25,0
1776973833.325,9.2895,3.486,0.419,1.9041,0.9686,0.2806,-59.85,5.55,32.4,10.4483,-0.3567,0.3304,1.7171,0.4229,0.3632,-69.45,11.7,-6.6,-4.95,-5.55,-8.8,-0.2171,-3.4525,-2.7576,-4.75,21.1875,35.0625,242.5625,-10.25,144.25,0
1776973833.33,9.2249,2.387,1.2785,1.6177,1.1868,0.4026,-59.85,5.55,32.4,10.3741,0.4717,0.3783,1.8578,0.1311,0.1178,-71.25,12.45,-6.15,0.15,-4.67,-6.64,-0.3447,-3.3772,-2.6944,-5.75,21.75,35.0625,240.4375,-10.875,144.0625,0
1776973833.335,9.2249,2.387,1.2785,1.6177,1.1868,0.4026,-59.85,5.55,32.4,10.3741,0.4717,0.3783,1.8578,0.1311,0.1178,-71.25,12.45,-6.15,0.15,-4.67,-6.64,-0.3447,-3.3772,-2.6944,-5.75,21.75,35.0625,240.4375,-10.875,144.0625,0
1776973833.34,9.2009,2.1021,1.7717,1.4418,1.343,0.4719,-59.85,5.55,32.4,9.7229,0.1772,-0.3089,2.0973,-0.101,-0.0834,-69.6,11.4,-6.75,0.9,-4.0,-6.31,-0.5792,-3.4481,-2.2689,-5.75,21.75,35.0625,238.5625,-11.6875,143.9375,0
1776973833.347,9.1866,2.0758,2.1524,1.0949,1.4781,0.462,-60.75,5.7,34.65,9.0621,-0.6776,0.158,2.3222,-0.2241,-0.198,-69.15,11.85,-7.2,-0.39,-3.14,-7.4,-0.7832,-3.5725,-1.6777,-5.75,21.75,35.0625,236.9375,-12.75,143.9375,0
1776973833.352,9.1866,2.0758,2.1524,1.0949,1.4781,0.462,-62.7,7.05,32.4,9.0621,-0.6776,0.158,2.3222,-0.2241,-0.198,-69.15,11.85,-7.2,-0.39,-3.14,-7.4,-0.7832,-3.5725,-1.6777,-5.75,21.75,35.0625,235.625,-13.9375,144.125,0
1776973833.36,9.4643,1.5443,1.9776,0.862,1.4754,0.5252,-62.7,7.05,32.4,9.0309,-1.5634,0.4477,2.238,-0.1956,-0.2489,-69.0,10.95,-8.4,-2.65,-3.45,-7.84,-1.0297,-3.5201,-1.1126,-5.75,21.75,35.0625,234.625,-15.3125,144.625,0
1776973833.37,9.8785,1.3216,0.4788,0.7032,1.4141,0.5833,-62.25,6.9,32.55,9.5122,-3.6536,0.8045,1.8775,-0.0368,-0.2537,-70.95,10.5,-8.4,-6.49,1.36,-9.02,-1.489,-3.3423,-0.4821,-5.75,21.75,35.0625,234.625,-15.3125,144.625,0
1776973833.375,10.0054,0.8116,-1.5179,0.756,1.4378,0.7312,-63.0,7.2,32.85,9.6534,-4.9991,1.3934,1.4075,0.0096,-0.2886,-70.95,10.5,-8.4,-6.49,1.36,-9.02,-1.489,-3.3423,-0.4821,-2.75,21.6875,34.25,234.1875,-16.625,145.5,0
1776973833.38,10.0054,0.8116,-1.5179,0.756,1.4378,0.7312,-63.0,7.2,32.85,9.6534,-4.9991,1.3934,1.4075,0.0096,-0.2886,-69.6,11.85,-7.95,-10.67,-4.08,-18.36,-1.9766,-2.7151,0.2836,-2.75,21.6875,34.25,234.1875,-16.625,145.5,0
1776973833.385,10.2328,0.419,-3.3471,1.1538,1.3965,0.7514,-63.0,7.2,32.85,9.426,-6.1172,1.8699,0.6587,0.1092,-0.4226,-69.6,11.85,-7.95,-10.67,-4.08,-18.36,-1.9766,-2.7151,0.2836,-2.75,21.6875,34.25,234.625,-17.6875,147.125,0
1776973833.39,10.2328,0.419,-3.3471,1.1538,1.3965,0.7514,-63.0,7.2,32.85,9.426,-6.1172,1.8699,0.6587,0.1092,-0.4226,-69.6,11.85,-7.95,-4.59,-8.37,-8.17,-2.6769,-1.2086,1.5632,-2.75,21.6875,34.25,234.625,-17.6875,147.125,0
1776973833.395,10.2113,-0.0599,-4.2066,1.5871,1.2167,0.6707,-63.45,9.75,27.0,8.7795,-6.3638,2.5211,0.0131,0.2729,-0.5337,-69.6,11.85,-7.95,-4.59,-8.37,-8.17,-2.7096,-0.4571,1.6853,-2.75,21.6875,34.25,235.1875,-18.375,148.8125,0
1776973833.401,10.2113,-0.0599,-4.2066,1.5871,1.2167,0.6707,-64.8,11.4,27.15,8.7795,-6.3638,2.5211,0.0131,0.2729,-0.5337,-70.05,10.65,-8.25,-0.97,-6.82,-4.47,-2.7096,-0.4571,1.6853,-2.75,21.6875,34.25,235.875,-19.1875,150.5625,0
1776973833.41,9.3948,-0.4334,-2.2362,1.8375,0.7517,0.6214,-64.8,11.4,27.15,9.2584,-4.5681,1.5921,-0.8775,0.4501,-0.5311,-70.05,10.65,-8.25,2.09,-6.98,-4.36,-2.7522,-0.6021,1.8882,-2.75,21.6875,34.25,236.6875,-20.3125,152.4375,0
1776973833.42,10.0102,-0.7398,-1.9058,1.7027,0.5785,0.6765,-67.2,10.5,24.15,12.3876,-1.652,-2.7677,-1.9073,0.389,-0.4471,-70.2,11.7,-8.85,-0.78,-6.08,-5.81,-2.7925,-1.1323,2.2264,-2.75,21.6875,34.25,236.6875,-20.3125,152.4375,0
1776973833.425,11.4132,-0.3519,-2.0997,1.3987,0.6312,0.7464,-67.2,10.5,24.15,16.1249,-0.8667,-5.6336,-1.8756,0.2651,-0.1388,-70.2,11.7,-8.85,-0.78,-6.08,-5.81,-2.7925,-1.1323,2.2264,-2.75,21.6875,34.25,237.4375,-21.875,153.8125,0
1776973833.43,11.4132,-0.3519,-2.0997,1.3987,0.6312,0.7464,-65.7,9.75,24.45,16.1249,-0.8667,-5.6336,-1.8756,0.2651,-0.1388,-70.05,12.6,-7.95,-10.94,6.25,-15.64,-2.0802,-1.9973,2.1893,1.5625,18.1875,37.5625,237.4375,-21.875,153.8125,0
1776973833.435,11.7005,0.9888,-1.2857,0.4005,0.4442,0.7392,-65.7,9.75,24.45,15.3492,-2.9066,-3.0598,-1.3422,0.2212,0.0187,-70.05,12.6,-7.95,-10.94,6.25,-15.64,-2.0802,-1.9973,2.1893,1.5625,18.1875,37.5625,237.75,-23.25,154.625,0
1776973833.44,11.7005,0.9888,-1.2857,0.4005,0.4442,0.7392,-65.7,9.75,24.45,15.3492,-2.9066,-3.0598,-1.3422,0.2212,0.0187,-70.2,12.45,-9.15,-15.79,3.85,-18.0,-1.3984,-2.1468,1.3864,1.5625,18.1875,37.5625,237.75,-23.25,154.625,0
1776973833.448,10.3262,1.5012,-0.6416,-0.3989,0.6853,0.7893,-65.7,9.75,24.45,11.4634,-1.1732,-0.8571,-0.9494,-0.1729,0.1263,-69.6,14.25,-9.3,-8.67,-2.35,-11.29,-0.4363,-0.6981,0.5411,1.5625,18.1875,37.5625,237.9375,-23.75,154.9375,0
1776973833.453,10.5824,1.5083,-2.9928,-0.4455,0.9595,0.7594,-65.25,5.55,21.0,7.5226,1.8028,-1.4293,-0.7554,-0.0778,0.0472,-69.6,14.25,-9.3,-8.67,-2.35,-11.29,-0.4363,-0.6981,0.5411,1.5625,18.1875,37.5625,238.0625,-24.0,155.0625,0
1776973833.461,10.5824,1.5083,-2.9928,-0.4455,0.9595,0.7594,-66.45,4.05,21.3,7.276,3.4333,0.9936,-0.7554,-0.0778,0.0472,-69.6,14.25,-9.3,-1.7,-4.68,-7.86,-0.1767,-0.396,0.3152,1.5625,18.1875,37.5625,238.1875,-24.5625,155.3125,0
1776973833.47,10.2783,1.4557,-4.446,-0.2705,0.3461,0.736,-66.15,1.65,20.1,8.4443,3.3591,-0.1245,-0.3675,0.2699,-0.0693,-69.0,12.0,-8.1,-6.99,-2.41,-10.72,-0.3905,-0.7821,0.5563,1.5625,18.1875,37.5625,238.1875,-24.5625,155.3125,0
1776973833.475,10.7835,1.6448,0.1652,0.7522,0.4658,0.6416,-66.15,1.65,20.1,8.4443,3.3591,-0.1245,0.2753,0.8503,-0.1641,-69.0,12.0,-8.1,-6.99,-2.41,-10.72,-0.3905,-0.7821,0.5563,1.5625,18.1875,37.5625,238.1875,-24.5625,155.3125,0
1776973833.48,10.7835,1.6448,0.1652,0.7522,0.4658,0.6416,-66.75,3.3,19.2,9.8545,1.6281,2.6791,0.2753,0.8503,-0.1641,-69.0,12.0,-8.1,-8.67,-1.95,-9.89,-0.3392,-0.5858,0.4789,6.5,13.75,37.1875,238.375,-24.9375,155.5625,0
1776973833.485,9.7205,2.2889,2.1237,0.7386,0.2422,0.7194,-66.75,3.3,19.2,9.8545,1.6281,2.6791,0.9539,0.7509,-0.23,-69.0,12.0,-8.1,-8.67,-1.95,-9.89,-0.3392,-0.5858,0.4789,6.5,13.75,37.1875,238.375,-24.9375,155.5625,0
1776973833.49,9.7205,2.2889,2.1237,0.7386,0.2422,0.7194,-66.75,3.3,19.2,10.7763,0.2969,3.0478,1.1618,0.4541,-0.0962,-70.2,13.2,-7.65,-4.3,-4.28,-7.85,-0.1429,-0.3534,0.2073,6.5,13.75,37.1875,238.4375,-25.1875,155.6875,0
1776973833.495,8.7269,3.3136,2.4948,0.0797,0.3408,0.6518,-66.75,3.3,19.2,10.7763,0.2969,3.0478,1.1618,0.4541,-0.0962,-70.2,13.2,-7.65,-4.3,-4.28,-7.85,-0.1331,-0.1276,0.1625,6.5,13.75,37.1875,238.5,-25.3125,155.75,0
1776973833.501,8.746,3.6919,2.8228,-0.2598,0.6563,0.6177,-68.7,4.65,18.3,10.9942,0.0072,2.0399,1.3366,0.2177,0.0392,-70.05,14.25,-8.7,-4.28,-3.13,-8.36,-0.1331,-0.1276,0.1625,6.5,13.75,37.1875,238.5625,-25.4375,155.8125,0
1776973833.51,8.746,3.6919,2.8228,-0.2276,0.9414,0.5812,-68.7,6.15,17.85,10.173,-1.1109,2.0782,1.3272,-0.0512,-0.0043,-70.05,13.8,-6.75,-4.39,-3.63,-7.87,-0.0218,-0.1745,0.1604,6.5,13.75,37.1875,238.5625,-25.4375,155.8125,0
1776973833.52,8.4467,3.0742,2.0949,-0.2403,1.0749,0.5889,-71.7,7.2,18.6,9.1363,-2.873,2.5139,1.0789,-0.1018,-0.0576,-69.6,13.5,-9.0,-4.32,-3.87,-7.63,-0.0447,-0.276,0.1625,6.5,13.75,37.1875,238.625,-25.5625,155.8125,0
1776973833.525,8.4467,3.0742,2.0949,-0.2403,1.0749,0.5889,-71.7,7.2,18.6,9.1363,-2.873,2.5139,1.0789,-0.1018,-0.0576,-69.6,13.5,-9.0,-4.32,-3.87,-7.63,-0.0447,-0.276,0.1625,6.5,13.75,37.1875,238.625,-25.75,155.875,0
1776973833.53,8.6359,2.6073,1.8435,-0.0671,0.6403,0.7386,-70.95,10.95,17.85,8.5162,-2.964,2.1787,0.3147,-0.0533,-0.109,-70.95,12.9,-8.4,-4.39,-3.63,-7.87,-0.1102,-0.2454,0.1604,7.1875,14.0,38.75,238.625,-25.75,155.875,0
1776973833.535,8.6359,2.6073,1.8435,-0.0671,0.6403,0.7386,-70.95,10.95,17.85,8.5162,-2.964,2.1787,0.3147,-0.0533,-0.109,-70.95,12.9,-8.4,-4.39,-3.63,-7.87,-0.1102,-0.2454,0.1604,7.1875,14.0,38.75,238.6875,-25.875,156.0,0
1776973833.54,8.6886,2.6935,2.7581,0.643,0.4533,0.8258,-70.95,10.95,17.85,8.351,-1.2617,0.984,-0.2595,0.1375,-0.138,-71.1,13.5,-7.2,-4.45,-3.87,-7.66,-0.1854,-0.1745,0.1658,7.1875,14.0,38.75,238.6875,-25.875,156.0,0
1776973833.547,8.6886,2.6935,2.7581,0.643,0.4533,0.8258,-70.95,10.95,17.85,8.351,-1.2617,0.984,-0.2595,0.1375,-0.138,-71.1,13.5,-7.2,-4.49,-3.66,-7.75,-0.2553,-0.1549,0.1745,7.1875,14.0,38.75,238.75,-26.0,156.1875,0
1776973833.552,9.3398,2.9999,2.6025,1.1831,0.4583,0.8516,-70.95,10.95,17.85,9.3278,1.0534,-0.0838,-0.5164,0.3224,-0.1095,-71.1,13.5,-7.2,-4.49,-3.66,-7.75,-0.2553,-0.1549,0.1745,7.1875,14.0,38.75,238.8125,-26.125,156.375,0
1776973833.561,9.5577,3.3447,2.0423,1.5535,0.4628,0.83,-72.15,11.25,17.7,10.0221,2.5953,-0.9888,-0.2454,0.312,-0.0584,-72.3,13.05,-6.75,-4.28,-3.33,-8.21,-0.2814,-0.1494,0.1865,7.1875,14.0,38.75,238.8125,-26.25,156.5625,0
1776973833.571,9.7348,2.7294,1.1109,1.8604,0.5348,0.7623,-72.0,12.15,17.85,9.8617,2.411,-0.2466,0.1607,0.2734,-0.0195,-70.35,13.5,-7.2,-4.87,-2.75,-8.42,-0.2531,-0.1549,0.192,7.1875,14.0,38.75,238.8125,-26.25,156.5625,0
1776973833.575,9.7348,2.7294,1.1109,1.8604,0.5348,0.7623,-72.0,12.15,17.85,9.8617,2.411,-0.2466,0.1607,0.2734,-0.0195,-70.35,13.5,-7.2,-4.87,-2.75,-8.42,-0.2531,-0.1549,0.192,7.1875,14.0,38.75,239.3125,-26.3125,156.6875,0
1776973833.581,9.9096,2.3655,0.1293,2.0094,0.542,0.6736,-74.25,13.2,17.85,9.651,1.9393,0.2753,0.5729,0.1743,0.004,-70.8,12.6,-6.45,-4.84,-2.73,-8.42,-0.1898,-0.12,0.1614,8.25,12.5,38.75,239.3125,-26.3125,156.6875,0
1776973833.585,9.9096,2.3655,0.1293,2.0094,0.542,0.6736,-74.25,13.2,17.85,9.6414,1.913,0.1508,0.5729,0.1743,0.004,-70.8,12.6,-6.45,-4.84,-2.73,-8.42,-0.1898,-0.12,0.1614,8.25,12.5,38.75,239.3125,-26.3125,156.6875,0
1776973833.59,9.821,1.98,-0.1269,2.0728,0.6403,0.5923,-74.4,13.05,18.75,9.6414,1.913,0.1508,0.7847,0.2057,0.0123,-71.7,13.2,-6.6,-4.56,-2.81,-8.4,-0.1505,-0.0862,0.1287,8.25,12.5,38.75,239.3125,-26.375,156.8125,0
1776973833.595,9.821,1.98,-0.1269,2.0728,0.6403,0.5923,-74.4,13.05,18.75,9.8976,1.6496,1.3288,0.7847,0.2057,0.0123,-71.7,13.2,-6.6,-4.56,-2.81,-8.4,-0.1778,-0.0785,0.1058,8.25,12.5,38.75,239.375,-26.4375,156.9375,0
1776973833.601,9.8641,2.0686,-0.1389,2.051,0.7061,0.5175,-74.4,13.05,18.75,9.8976,1.6496,1.3288,0.8487,0.2686,0.0314,-70.2,12.9,-7.65,-4.6,-3.09,-8.33,-0.1778,-0.0785,0.1058,8.25,12.5,38.75,239.375,-26.5,157.0625,0
1776973833.611,9.73,2.2075,-0.0886,1.9545,0.7621,0.4674,-73.8,12.45,17.55,10.307,1.0127,1.1205,0.8825,0.2896,0.0485,-69.6,11.4,-6.0,-4.53,-3.34,-8.19,-0.2116,-0.0436,0.0905,8.25,12.5,38.75,239.375,-26.5,157.0625,0
1776973833.62,9.8234,1.8818,0.5746,1.7147,0.8079,0.4367,-73.5,13.95,18.6,10.501,0.5219,0.7733,0.8471,0.283,0.0861,-69.6,11.4,-6.0,-4.2,-3.4,-8.11,-0.2116,-0.0295,0.0862,8.25,12.5,38.75,239.375,-26.5625,157.1875,0
1776973833.625,9.8234,1.8818,0.5746,1.7147,0.8079,0.4367,-73.5,13.95,18.6,10.3884,-0.4549,1.0223,0.6632,0.2667,0.1212,-69.6,11.4,-6.0,-4.2,-3.4,-8.11,-0.2116,-0.0295,0.0862,8.25,12.5,38.75,239.375,-26.5625,157.1875,0
1776973833.63,10.0461,1.2857,1.2761,1.4642,0.8298,0.4221,-72.15,14.25,19.2,10.3884,-0.4549,1.0223,0.6632,0.2667,0.1212,-70.8,13.5,-6.75,-4.42,-3.08,-8.35,-0.1909,-0.0611,0.1025,8.6875,11.6875,38.0625,239.8125,-26.625,157.3125,0
1776973833.635,10.0461,1.2857,1.2761,1.4642,0.8298,0.4221,-72.15,14.25,19.2,10.1131,-1.0008,1.063,0.4892,0.2481,0.1314,-70.8,13.5,-6.75,-4.42,-3.08,-8.35,-0.1909,-0.0611,0.1025,8.6875,11.6875,38.0625,239.8125,-26.625,157.3125,0
1776973833.64,9.8761,0.6752,1.5443,1.2297,0.8692,0.3845,-72.15,10.5,19.2,10.1131,-1.0008,1.063,0.4892,0.2481,0.1314,-70.8,13.5,-6.75,-4.38,-3.11,-8.35,-0.1527,-0.0916,0.1047,8.6875,11.6875,38.0625,239.8125,-26.6875,157.4375,0
1776973833.645,9.8761,0.6752,1.5443,1.2297,0.8692,0.3845,-72.15,10.5,19.2,9.7755,-0.8308,1.798,0.316,0.2803,0.1474,-70.8,13.5,-6.75,-4.38,-3.11,-8.35,-0.1145,-0.1145,0.1036,8.6875,11.6875,38.0625,239.875,-26.75,157.5,0
1776973833.651,10.1562,0.3472,1.4198,0.9755,0.9539,0.3387,-72.15,10.5,19.2,9.7755,-0.8308,1.798,0.316,0.2803,0.1474,-70.2,13.2,-6.9,-4.53,-3.03,-8.35,-0.1145,-0.1145,0.1036,8.6875,11.6875,38.0625,239.875,-26.8125,157.5625,0
1776973833.661,10.3453,0.146,1.5634,0.7344,1.0419,0.2955,-72.0,8.4,21.15,10.0413,-0.2658,1.2713,0.1711,0.3395,0.178,-71.1,12.6,-7.2,-4.57,-2.89,-8.32,-0.0905,-0.1287,0.0949,8.6875,11.6875,38.0625,239.875,-26.8125,157.5625,0
1776973833.671,10.2999,0.2897,1.8675,0.6102,1.0285,0.2795,-72.75,3.45,19.65,10.5656,-0.0527,1.4246,0.0682,0.3544,0.1721,-71.85,11.4,-7.2,-4.4,-2.98,-8.38,-0.0524,-0.1342,0.0884,8.6875,11.6875,38.0625,239.875,-26.9375,157.5625,0
1776973833.676,9.9719,0.5363,2.2098,0.5593,1.0256,0.2771,-72.75,3.45,19.65,10.6805,-0.182,1.8962,0.004,0.2859,0.1564,-71.85,11.4,-7.2,-4.4,-2.98,-8.38,-0.0524,-0.1342,0.0884,8.6875,11.6875,38.0625,240.5,-27.0,157.625,0
1776973833.681,9.9719,0.5363,2.2098,0.5593,1.0256,0.2771,-73.2,2.7,17.55,10.6805,-0.182,1.8962,0.004,0.2859,0.1564,-70.8,11.85,-6.75,-4.36,-3.16,-8.33,-0.0273,-0.1549,0.096,8.0,12.0625,37.0,240.5,-27.0,157.625,0
1776973833.686,9.5146,0.3543,1.0558,0.4042,0.7754,0.2681,-72.0,2.7,17.55,10.5297,-0.3879,1.4102,-0.0016,0.1721,0.1777,-70.8,11.85,-6.75,-4.36,-3.16,-8.33,-0.0273,-0.1549,0.096,8.0,12.0625,37.0,240.5,-27.125,157.625,0
1776973833.691,9.5146,0.3543,1.0558,0.4042,0.7754,0.2681,-72.0,-0.9,16.2,10.5297,-0.3879,1.4102,-0.0016,0.1721,0.1777,-70.8,11.85,-6.75,-4.58,-3.01,-8.4,0.0011,-0.1745,0.0993,8.0,12.0625,37.0,240.5,-27.125,157.625,0
1776973833.696,9.5936,0.0072,3.3208,0.6784,0.6459,0.3168,-71.7,-3.15,14.4,10.137,-0.6728,1.1971,-0.061,0.1463,0.2166,-70.8,11.85,-6.75,-4.58,-3.01,-8.4,0.0218,-0.1844,0.0927,8.0,12.0625,37.0,240.5625,-27.25,157.6875,0
1776973833.701,9.5936,0.0072,3.3208,0.6784,0.6459,0.3168,-71.7,-3.15,14.4,9.8593,-0.8763,0.3519,-0.061,0.1463,0.2166,-71.85,11.85,-5.7,-4.74,-2.96,-8.24,0.0218,-0.1844,0.0927,8.0,12.0625,37.0,240.5625,-27.25,157.6875,0
1776973833.71,9.8043,0.7829,3.9672,0.9619,0.6475,0.2787,-71.7,-3.15,14.4,9.5265,-0.4788,0.7374,-0.145,0.1439,0.2313,-71.85,11.85,-5.7,-4.75,-2.97,-8.16,0.0185,-0.1745,0.0807,8.0,12.0625,37.0,240.625,-27.375,157.6875,0
1776973833.715,9.754,0.9337,2.3822,0.5713,0.5694,0.2742,-71.7,-3.15,14.4,9.5265,-0.4788,0.7374,-0.1482,0.1948,0.21,-71.85,11.85,-5.7,-4.75,-2.97,-8.16,0.0033,-0.1527,0.0698,8.0,12.0625,37.0,240.625,-27.4375,157.6875,0
1776973833.722,9.754,0.9337,2.3822,0.5713,0.5694,0.2742,-72.0,-3.45,10.05,9.4427,0.0407,0.8284,-0.122,0.2273,0.1948,-73.05,11.4,-5.7,-4.66,-3.04,-8.19,0.0033,-0.1527,0.0698,8.0,12.0625,37.0,240.625,-27.4375,157.6875,0
1776973833.726,9.6295,1.0654,1.2737,0.0655,0.5518,0.2931,-71.1,-4.8,7.8,9.4427,0.0407,0.8284,-0.122,0.2273,0.1948,-73.05,11.4,-5.7,-4.66,-3.04,-8.19,0.0033,-0.1527,0.0698,8.6875,11.5625,37.375,241.125,-27.5625,157.75,0
1776973833.731,9.6295,1.0654,1.2737,0.0655,0.5518,0.2931,-71.1,-4.8,7.8,9.3757,0.3424,1.0989,-0.0759,0.2545,0.2044,-72.45,10.95,-5.1,-4.74,-2.77,-8.22,-0.0022,-0.1364,0.0622,8.6875,11.5625,37.375,241.125,-27.5625,157.75,0
1776973833.736,9.2656,0.9194,0.6369,0.0139,0.4221,0.2958,-70.65,-4.65,8.7,9.3757,0.3424,1.0989,-0.0759,0.2545,0.2044,-72.45,10.95,-5.1,-4.74,-2.77,-8.22,-0.0022,-0.1364,0.0622,8.6875,11.5625,37.375,241.1875,-27.625,157.8125,0
1776973833.741,9.2656,0.9194,0.6369,0.0139,0.4221,0.2958,-70.65,-4.65,8.7,9.4092,0.0814,1.6927,-0.0485,0.2827,0.2057,-72.0,10.95,-5.85,-4.73,-2.77,-8.19,0.0273,-0.12,0.0633,8.6875,11.5625,37.375,241.1875,-27.625,157.8125,0
1776973833.746,9.1291,0.8499,0.5674,0.0258,0.3459,0.2896,-70.8,-6.75,7.05,9.4092,0.0814,1.6927,-0.0485,0.2827,0.2057,-72.0,10.95,-5.85,-4.73,-2.77,-8.19,0.0491,-0.1178,0.0567,8.6875,11.5625,37.375,241.1875,-27.75,157.8125,0
1776973833.752,9.1291,0.8499,0.5674,0.0258,0.3459,0.2896,-70.8,-6.75,7.05,9.5409,-0.0168,1.3024,-0.0568,0.2497,0.2161,-71.85,10.35,-5.7,-4.69,-2.74,-8.2,0.0491,-0.1178,0.0567,8.6875,11.5625,37.375,241.1875,-27.75,157.8125,0
1776973833.761,9.1818,0.9912,0.7901,0.0842,0.283,0.3115,-70.8,-6.75,7.05,9.3374,-0.2203,1.1588,-0.0488,0.2214,0.2217,-70.8,10.65,-5.25,-4.8,-3.01,-7.98,0.0709,-0.1254,0.0535,8.6875,11.5625,37.375,241.25,-27.8125,157.8125,0
1776973833.765,8.8921,1.1492,1.2139,0.2228,0.2641,0.2982,-71.25,-7.2,6.45,9.3374,-0.2203,1.1588,-0.0488,0.2214,0.2217,-70.8,10.65,-5.25,-4.8,-3.01,-7.98,0.0818,-0.1298,0.0545,8.6875,11.5625,37.375,241.25,-27.875,157.8125,0
1776973833.772,8.8418,0.9768,1.2977,0.3733,0.3925,0.2819,-71.25,-7.2,6.45,8.995,-0.1939,1.1229,-0.0091,0.2185,0.2214,-71.85,10.65,-6.0,-4.77,-3.06,-7.91,0.0818,-0.1298,0.0545,8.6875,11.5625,37.375,241.25,-27.875,157.8125,0
1776973833.777,8.8418,0.9768,1.2977,0.3733,0.3925,0.2819,-71.85,-5.25,6.0,8.995,-0.1939,1.1229,-0.0091,0.2185,0.2214,-71.85,10.65,-6.0,-4.77,-3.06,-7.91,0.0676,-0.1069,0.0502,9.0,11.5625,37.75,241.75,-28.0,157.75,0
1776973833.782,8.9878,0.9002,1.2833,0.4266,0.4202,0.2817,-71.85,-5.25,6.0,8.9376,0.1556,1.245,0.0706,0.2451,0.2356,-71.85,10.65,-6.0,-4.79,-2.95,-7.91,0.0676,-0.1069,0.0502,9.0,11.5625,37.75,241.75,-28.0,157.75,0
1776973833.787,8.9878,0.9002,1.2833,0.4266,0.4202,0.2817,-72.15,-6.75,4.5,8.9376,0.1556,1.245,0.0706,0.2451,0.2356,-71.85,10.65,-6.0,-4.79,-2.95,-7.91,0.0535,-0.0851,0.0447,9.0,11.5625,37.75,241.8125,-28.0625,157.75,0
1776973833.792,8.8346,0.8284,1.2282,0.5337,0.3893,0.2755,-72.15,-6.75,4.5,9.0932,0.6823,0.9385,0.2081,0.2603,0.2614,-72.0,10.5,-4.35,-4.85,-2.75,-7.95,0.0535,-0.0851,0.0447,9.0,11.5625,37.75,241.8125,-28.0625,157.75,0
1776973833.797,8.8346,0.8284,1.2282,0.5337,0.3893,0.2755,-70.2,-5.7,6.15,9.0932,0.6823,0.9385,0.2081,0.2603,0.2614,-72.0,10.5,-4.35,-4.85,-2.75,-7.95,0.048,-0.0807,0.0327,9.0,11.5625,37.75,241.8125,-28.125,157.75,0
1776973833.802,8.8825,0.9002,1.7693,0.6773,0.2742,0.2923,-70.2,-5.7,6.15,9.0644,1.1181,1.2522,0.2939,0.2515,0.3024,-72.6,11.85,-4.95,-4.76,-2.79,-8.05,0.048,-0.0807,0.0327,9.0,11.5625,37.75,241.8125,-28.1875,157.75,0
1776973833.811,9.1004,0.8523,2.4038,0.7853,0.2134,0.3056,-72.45,-6.15,5.85,9.0764,0.9912,1.7597,0.2521,0.2622,0.3166,-72.9,10.95,-5.85,-4.79,-2.95,-7.87,0.0415,-0.0927,0.0229,9.0,11.5625,37.75,241.8125,-28.1875,157.75,0
1776973833.816,9.1004,0.8523,2.4038,0.7853,0.2134,0.3056,-72.45,-6.15,5.85,9.0764,0.9912,1.7597,0.2521,0.2622,0.3166,-72.9,10.95,-5.85,-4.79,-2.95,-7.87,0.0295,-0.0927,0.0153,9.0,11.5625,37.75,241.8125,-28.25,157.75,0
1776973833.822,9.6007,1.0558,2.8371,0.829,0.1508,0.3059,-72.45,-6.15,5.85,9.347,0.2251,2.1308,0.1721,0.2587,0.3091,-71.7,10.05,-4.8,-4.68,-3.11,-7.88,0.0295,-0.0927,0.0153,9.0,11.5625,37.75,241.8125,-28.25,157.75,0
1776973833.827,9.6007,1.0558,2.8371,0.829,0.1508,0.3059,-72.45,-4.65,6.15,9.6007,-1.0798,2.4541,0.1756,0.2489,0.3211,-71.7,10.05,-4.8,-4.77,-3.33,-7.75,0.0,-0.0665,0.0251,9.5,11.1875,38.1875,242.1875,-28.3125,157.75,0
1776973833.832,9.0525,0.9792,3.0837,0.7192,0.1511,0.2827,-72.45,-4.65,6.15,9.6007,-1.0798,2.4541,0.1756,0.2489,0.3211,-72.6,9.15,-4.95,-4.77,-3.33,-7.75,0.0,-0.0665,0.0251,9.5,11.1875,38.1875,242.1875,-28.3125,157.75,0
1776973833.837,9.0525,0.9792,3.0837,0.7192,0.1511,0.2827,-73.65,-6.75,8.1,9.7588,-1.889,2.3104,0.1178,0.2201,0.3259,-72.6,9.15,-4.95,-4.77,-3.33,-7.75,0.0,-0.0665,0.0251,9.5,11.1875,38.1875,242.25,-28.3125,157.8125,0
1776973833.842,8.9495,0.6488,3.0143,0.5273,0.3256,0.2542,-73.65,-6.75,8.1,9.7588,-1.889,2.3104,0.1178,0.2201,0.3259,-73.8,10.35,-5.25,-4.8,-3.17,-7.8,-0.0305,-0.0295,0.0349,9.5,11.1875,38.1875,242.25,-28.3125,157.8125,0
1776973833.847,8.9495,0.6488,3.0143,0.5273,0.3256,0.2542,-72.6,-6.0,7.05,9.6151,-2.1811,1.9704,0.0442,0.1788,0.3139,-73.8,10.35,-5.25,-4.8,-3.17,-7.8,-0.072,0.0022,0.0404,9.5,11.1875,38.1875,242.25,-28.3125,157.8125,0
1776973833.852,9.0381,0.1245,3.2585,0.3949,0.3925,0.2582,-72.6,-6.0,7.05,9.6151,-2.1811,1.9704,0.0442,0.1788,0.3139,-73.8,10.35,-5.25,-4.85,-2.99,-7.89,-0.072,0.0022,0.0404,9.5,11.1875,38.1875,242.25,-28.3125,157.875,0
1776973833.861,9.3087,0.1748,3.1843,0.3107,0.4418,0.3054,-72.45,-4.95,7.2,9.256,-1.822,2.1356,0.0437,0.1783,0.2707,-73.8,10.35,-5.25,-4.82,-2.85,-7.95,-0.096,0.0251,0.0316,9.5,11.1875,38.1875,242.25,-28.3125,158.0,0
1776973833.871,9.596,0.3448,3.0765,0.3472,0.466,0.3459,-72.45,-4.95,7.2,9.2033,-1.0582,2.162,0.0661,0.1871,0.2449,-72.6,10.35,-4.95,-4.83,-2.73,-8.05,-0.108,0.0458,0.0175,9.5,11.1875,38.1875,242.25,-28.3125,158.0,0
1776973833.876,9.596,0.3448,3.0765,0.3472,0.466,0.3459,-72.6,-7.5,8.1,9.5241,-0.7446,2.047,0.0863,0.1993,0.2433,-72.6,10.35,-4.95,-4.83,-2.73,-8.05,-0.108,0.0458,0.0175,9.5,11.1875,38.1875,242.625,-28.25,158.0625,0
1776973833.881,9.2751,0.4812,3.0885,0.4714,0.4266,0.3616,-72.6,-7.5,8.1,9.5241,-0.7446,2.047,0.0863,0.1993,0.2433,-72.6,10.35,-4.95,-4.81,-2.84,-8.05,-0.1069,0.0545,0.0,9.0625,11.1875,37.375,242.625,-28.25,158.0625,0
1776973833.886,9.2751,0.4812,3.0885,0.4714,0.4266,0.3616,-72.0,-5.4,8.25,9.596,-0.2849,1.9561,0.1108,0.1577,0.2388,-73.35,9.45,-5.7,-4.81,-2.84,-8.05,-0.1069,0.0545,0.0,9.0625,11.1875,37.375,242.625,-28.25,158.125,0
1776973833.891,9.0142,0.7949,3.0622,0.6262,0.4509,0.3637,-72.0,-5.4,8.25,9.596,-0.2849,1.9561,0.1108,0.1577,0.2388,-73.35,9.45,-5.7,-4.77,-2.94,-8.04,-0.1025,0.0589,-0.0076,9.0625,11.1875,37.375,242.625,-28.25,158.125,0
1776973833.896,9.0142,0.7949,3.0622,0.6262,0.4509,0.3637,-73.8,-9.15,8.25,9.572,-0.2298,1.8986,0.1031,0.109,0.2324,-72.3,9.15,-4.2,-4.77,-2.94,-8.04,-0.1134,0.0633,-0.0109,9.0625,11.1875,37.375,242.625,-28.1875,158.1875,0
1776973833.902,8.9232,1.087,2.5019,0.3864,0.7967,0.3773,-73.2,-7.95,7.65,9.572,-0.2298,1.8986,0.1031,0.109,0.2324,-72.9,10.05,-5.1,-4.74,-3.03,-8.0,-0.1134,0.0633,-0.0109,9.0625,11.1875,37.375,242.625,-28.1875,158.1875,0
1776973833.911,9.2656,1.233,1.9489,0.4191,0.5438,0.3717,-73.2,-7.95,7.65,9.4786,-0.1365,1.9345,0.0975,0.109,0.2515,-72.9,10.05,-5.1,-4.7,-3.02,-7.98,-0.1265,0.084,-0.0142,9.0625,11.1875,37.375,242.625,-28.1875,158.25,0
1776973833.916,9.2656,1.233,1.9489,0.4191,0.5438,0.3717,-73.2,-7.95,7.65,9.7085,0.0407,1.7909,0.0981,0.1351,0.2753,-71.7,8.55,-4.05,-4.7,-3.02,-7.98,-0.1385,0.0873,-0.0185,9.0625,11.1875,37.375,242.5625,-28.125,158.3125,0
1776973833.922,9.4427,1.0367,1.834,0.4924,0.3139,0.3746,-73.2,-7.95,7.65,10.1323,-0.0862,1.4054,0.0981,0.1351,0.2753,-72.9,9.0,-5.55,-4.66,-2.99,-8.02,-0.1385,0.0873,-0.0185,9.0625,11.1875,37.375,242.5625,-28.125,158.3125,0
1776973833.927,9.7085,0.9744,2.1332,0.441,0.3219,0.3941,-73.2,-7.95,7.65,10.1323,-0.0862,1.4054,0.0794,0.1194,0.2758,-72.9,9.0,-5.55,-4.66,-2.99,-8.02,-0.1385,0.0873,-0.0185,9.0625,12.0,37.75,243.0625,-28.0625,158.4375,0
1776973833.932,9.7085,0.9744,2.1332,0.441,0.3219,0.3941,-73.5,-9.15,7.2,10.3142,-0.3328,1.4557,0.0794,0.1194,0.2758,-72.9,9.0,-5.55,-4.61,-3.0,-8.14,-0.1494,0.0927,-0.0142,9.0625,12.0,37.75,243.0625,-28.0625,158.4375,0
1776973833.937,10.0724,0.9744,2.3176,0.4375,0.3144,0.413,-73.5,-9.15,7.2,10.3142,-0.3328,1.4557,0.1572,0.1242,0.2766,-73.35,8.7,-4.5,-4.61,-3.0,-8.14,-0.1494,0.0927,-0.0142,9.0625,12.0,37.75,243.0625,-28.0,158.5625,0
1776973833.942,10.0724,0.9744,2.3176,0.4375,0.3144,0.413,-72.9,-8.25,6.75,10.4866,-0.1413,0.6943,0.2923,0.1021,0.2923,-73.35,8.7,-4.5,-4.52,-2.95,-8.21,-0.1484,0.0905,-0.0098,9.0625,12.0,37.75,243.0625,-28.0,158.5625,0
1776973833.947,10.149,1.0056,2.3343,0.4706,0.2779,0.4365,-72.9,-8.25,6.75,10.4866,-0.1413,0.6943,0.2923,0.1021,0.2923,-73.35,8.7,-4.5,-4.52,-2.95,-8.21,-0.1353,0.0753,0.0022,9.0625,12.0,37.75,243.0625,-28.0,158.625,0
1776973833.952,10.149,1.0056,2.3343,0.4706,0.2779,0.4365,-72.45,-8.4,8.7,10.2113,-0.1413,1.3886,0.2459,0.1079,0.3216,-72.9,8.7,-4.5,-4.54,-2.88,-8.31,-0.1353,0.0753,0.0022,9.0625,12.0,37.75,243.0625,-27.9375,158.6875,0
1776973833.961,10.2089,1.008,2.3918,0.105,0.6025,0.4684,-73.8,-9.45,8.25,9.8904,-0.2107,0.7302,0.2896,0.0504,0.3224,-72.9,9.75,-5.55,-4.59,-2.72,-8.37,-0.1025,0.0447,0.0076,9.0625,12.0,37.75,243.0625,-27.9375,158.75,0
1776973833.971,9.6462,0.893,2.1668,0.4567,0.21,0.4578,-73.8,-9.45,8.25,9.5553,-0.4238,1.1564,0.3328,0.1034,0.3464,-73.35,9.45,-6.45,-4.57,-2.92,-8.32,-0.0556,0.0142,0.0153,9.0625,12.0,37.75,243.0625,-27.9375,158.75,0
1776973833.976,9.809,0.6369,2.1213,0.4671,0.3187,0.4322,-73.8,-9.45,8.25,9.5553,-0.4238,1.1564,0.3328,0.1034,0.3464,-73.35,7.5,-4.95,-4.57,-2.92,-8.32,-0.0196,-0.0055,0.0196,9.875,11.5625,36.5625,243.5,-27.9375,158.75,0
1776973833.982,9.809,0.6369,2.1213,0.4671,0.3187,0.4322,-72.9,-9.0,8.1,9.5624,-0.486,1.7837,0.2697,0.1359,0.3701,-73.35,7.5,-4.95,-4.59,-2.82,-8.3,-0.0196,-0.0055,0.0196,9.875,11.5625,36.5625,243.5,-27.9375,158.75,0
1776973833.991,9.5744,0.3903,2.0016,0.5343,0.3579,0.397,-74.25,-9.45,9.75,9.6606,-0.6225,1.7502,0.202,0.1202,0.3973,-72.45,8.55,-5.85,-4.61,-2.79,-8.27,0.012,-0.0349,0.0284,9.875,11.5625,36.5625,243.5,-28.0,158.75,0
1776973833.996,9.2009,0.3065,2.1213,0.6062,0.2779,0.3914,-74.25,-9.45,9.75,9.6606,-0.6225,1.7502,0.202,0.1202,0.3973,-72.6,7.95,-6.45,-4.61,-2.79,-8.27,0.0207,-0.0545,0.0371,9.875,11.5625,36.5625,243.5625,-28.0,158.8125,0
1776973834.002,9.2009,0.3065,2.1213,0.6062,0.2779,0.3914,-73.5,-9.15,7.95,9.5409,-0.905,1.8723,0.1572,0.0933,0.3981,-72.6,7.95,-6.45,-4.68,-2.89,-8.17,0.0207,-0.0545,0.0371,9.875,11.5625,36.5625,243.5625,-28.0,158.8125,0
1776973834.011,9.0405,0.3926,2.1811,0.6297,0.2955,0.4002,-74.25,-9.9,8.7,9.3685,-0.814,1.9752,0.1274,0.0855,0.3992,-73.65,7.35,-3.6,-4.69,-2.96,-8.07,0.0295,-0.06,0.0393,9.875,11.5625,36.5625,243.5625,-28.0625,158.8125,0
1776973834.016,9.2416,0.3735,2.1141,0.5676,0.2353,0.4229,-74.25,-9.9,8.7,9.3685,-0.814,1.9752,0.1274,0.0855,0.3992,-73.65,7.35,-3.6,-4.69,-2.96,-8.07,0.0273,-0.0567,0.0371,9.875,11.5625,36.5625,243.625,-28.0625,158.8125,0
1776973834.022,9.2416,0.3735,2.1141,0.5676,0.2353,0.4229,-74.25,-9.9,8.7,9.5002,0.0646,1.3719,0.1657,0.11,0.4314,-73.65,7.35,-3.6,-4.7,-2.95,-8.02,0.0273,-0.0567,0.0371,9.875,11.5625,36.5625,243.625,-28.0625,158.8125,0
1776973834.027,9.6438,0.6129,2.1141,0.4117,0.2435,0.445,-74.25,-9.9,8.7,9.5002,0.0646,1.3719,0.1657,0.11,0.4314,-71.85,7.5,-6.0,-4.7,-2.95,-8.02,0.0175,-0.0524,0.0349,9.5,11.5625,38.875,244.0625,-28.125,158.8125,0
1776973834.032,9.6438,0.6129,2.1141,0.4117,0.2435,0.445,-72.9,-10.5,8.55,9.7851,0.9433,1.5586,0.1447,0.1284,0.4724,-71.85,7.5,-6.0,-4.67,-2.66,-8.16,0.0175,-0.0524,0.0349,9.5,11.5625,38.875,244.0625,-28.125,158.8125,0
1776973834.037,9.8378,0.759,2.2625,0.3208,0.1383,0.4509,-72.9,-10.5,8.55,9.8952,0.8859,1.5682,0.1447,0.1284,0.4724,-71.85,7.5,-6.0,-4.67,-2.66,-8.16,0.0175,-0.0524,0.0349,9.5,11.5625,38.875,244.0625,-28.1875,158.8125,0
1776973834.042,9.8378,0.759,2.2625,0.3208,0.1383,0.4509,-73.65,-12.0,8.85,9.8952,0.8859,1.5682,0.1977,0.0767,0.493,-71.85,7.5,-6.0,-4.62,-2.8,-8.23,0.0055,-0.0589,0.0349,9.5,11.5625,38.875,244.0625,-28.1875,158.8125,0
1776973834.047,9.9551,0.8906,2.4948,0.2017,0.0605,0.4423,-73.65,-12.0,8.85,9.8545,0.0766,2.1093,0.1977,0.0767,0.493,-73.2,6.6,-5.1,-4.62,-2.8,-8.23,0.0,-0.0807,0.0404,9.5,11.5625,38.875,244.125,-28.1875,158.875,0
1776973834.052,10.094,0.8691,2.7174,0.1039,-0.012,0.3946,-73.65,-11.25,8.85,9.8545,0.0766,2.1093,0.247,0.1031,0.5305,-73.2,6.6,-5.1,-4.55,-3.02,-8.26,0.0,-0.0807,0.0404,9.5,11.5625,38.875,244.125,-28.1875,158.875,0
1776973834.061,10.094,0.8691,2.7174,0.1039,-0.012,0.3946,-72.9,-11.25,10.65,10.2232,-0.6919,1.8699,0.1809,0.1114,0.558,-73.05,6.0,-3.75,-4.53,-2.99,-8.29,0.0065,-0.0884,0.0436,9.5,11.5625,38.875,244.125,-28.25,158.875,0
1776973834.066,10.0054,0.838,2.7725,0.0477,-0.0861,0.344,-72.9,-11.25,10.65,10.3046,-1.2091,1.9824,0.1809,0.1114,0.558,-73.2,6.15,-4.8,-4.53,-2.99,-8.29,0.0076,-0.1014,0.0502,9.5,11.5625,38.875,244.125,-28.3125,158.875,0
1776973834.072,9.9,0.8212,2.8395,0.0498,-0.0962,0.2936,-73.2,-10.65,9.0,10.3046,-1.2091,1.9824,0.1058,0.1002,0.5881,-73.2,6.15,-4.8,-4.57,-2.99,-8.26,0.0076,-0.1014,0.0502,9.5,11.5625,38.875,244.125,-28.3125,158.875,0
1776973834.077,9.9,0.8212,2.8395,0.0498,-0.0962,0.2936,-73.2,-10.65,9.0,10.3214,-1.0965,1.7717,0.0965,0.0738,0.6105,-73.05,5.55,-4.2,-4.57,-2.99,-8.26,0.012,-0.1244,0.0502,10.25,11.5625,37.0,244.5625,-28.375,158.875,0
1776973834.082,9.9192,0.8835,2.9808,0.0597,-0.0901,0.2702,-73.2,-10.65,9.0,10.3214,-1.0965,1.7717,0.0965,0.0738,0.6105,-73.05,5.55,-4.2,-4.68,-2.9,-8.21,0.012,-0.1244,0.0502,10.25,11.5625,37.0,244.5625,-28.375,158.875,0
1776973834.09,9.9192,0.8835,2.9808,0.0597,-0.0901,0.2702,-73.5,-12.15,9.0,10.0413,-0.7685,1.652,0.0517,0.0322,0.6225,-73.05,5.55,-4.2,-4.62,-2.69,-8.34,0.024,-0.1407,0.0502,10.25,11.5625,37.0,244.5625,-28.4375,158.9375,0
1776973834.095,10.1873,0.7973,2.7414,-0.1596,0.0653,0.2787,-73.5,-12.15,9.0,9.8138,-0.9505,1.7621,0.0517,0.0322,0.6225,-72.0,6.15,-3.6,-4.62,-2.69,-8.34,0.024,-0.1407,0.0502,10.25,11.5625,37.0,244.625,-28.5625,158.9375,0
1776973834.102,9.6989,0.929,2.7414,-0.1436,0.0112,0.2934,-74.7,-11.55,8.85,9.8138,-0.9505,1.7621,0.06,0.0179,0.6179,-72.0,6.15,-3.6,-4.62,-2.79,-8.34,0.0436,-0.1756,0.0545,10.25,11.5625,37.0,244.625,-28.5625,158.9375,0
1776973834.11,9.6989,0.929,2.7414,-0.0546,0.0365,0.2928,-75.0,-11.4,9.3,9.7276,-1.4916,1.9489,0.0464,0.0381,0.6416,-72.0,6.15,-3.6,-4.67,-2.84,-8.34,0.0731,-0.2225,0.0589,10.25,11.5625,37.0,244.625,-28.6875,158.875,0
1776973834.115,9.6893,1.0008,2.5714,-0.0546,0.0365,0.2928,-75.0,-11.4,9.3,9.9838,-1.4772,2.1189,-0.0354,0.044,0.6608,-72.9,5.4,-3.6,-4.67,-2.84,-8.34,0.0731,-0.2225,0.0589,10.25,11.5625,37.0,244.6875,-28.8125,158.875,0
1776973834.122,9.6151,0.9601,2.4828,-0.1506,0.0645,0.2923,-76.05,-12.45,8.7,9.9838,-1.4772,2.1189,-0.0354,0.044,0.6608,-72.9,5.4,-3.6,-4.71,-2.79,-8.2,0.1091,-0.252,0.0556,10.25,11.5625,37.0,244.6875,-28.8125,158.875,0
1776973834.127,9.6151,0.9601,2.4828,-0.1506,0.0645,0.2923,-76.05,-12.45,8.7,10.1825,-1.1684,2.3224,-0.0834,0.0163,0.6656,-73.8,4.05,-5.25,-4.71,-2.79,-8.2,0.1091,-0.252,0.0556,11.0,10.5,37.0,244.9375,-28.9375,158.8125,0
1776973834.132,9.5744,0.7111,2.5666,-0.0693,0.1207,0.2907,-76.05,-12.45,8.7,10.1825,-1.1684,2.3224,-0.0834,0.0163,0.6656,-73.8,4.05,-5.25,-4.72,-2.73,-8.35,0.1265,-0.2738,0.06,11.0,10.5,37.0,244.9375,-28.9375,158.8125,0
1776973834.137,9.5744,0.7111,2.5666,-0.0693,0.1207,0.2907,-76.05,-12.45,8.7,10.0916,-1.4676,2.0183,-0.0914,-0.0442,0.6776,-73.65,4.2,-3.3,-4.72,-2.73,-8.35,0.1265,-0.2738,0.06,11.0,10.5,37.0,244.9375,-29.125,158.75,0
1776973834.142,9.5912,0.4717,2.5139,-0.0962,0.1005,0.291,-73.2,-11.4,9.3,10.0916,-1.4676,2.0183,-0.0914,-0.0442,0.6776,-73.65,4.2,-3.3,-4.74,-2.96,-8.25,0.1407,-0.2956,0.0622,11.0,10.5,37.0,244.9375,-29.125,158.75,0
1776973834.147,9.5912,0.4717,2.5139,-0.0962,0.1005,0.291,-73.2,-11.4,9.3,9.7157,-1.4557,1.9513,-0.0706,-0.0512,0.6726,-74.4,3.45,-4.35,-4.74,-2.96,-8.25,0.1538,-0.324,0.0633,11.0,10.5,37.0,245.0,-29.25,158.625,0
1776973834.153,9.584,0.2011,2.5618,-0.0706,0.0885,0.3086,-73.35,-12.3,10.2,9.4954,-1.3264,1.5682,-0.0706,-0.0512,0.6726,-74.4,3.45,-4.35,-4.78,-3.15,-8.12,0.1538,-0.324,0.0633,11.0,10.5,37.0,245.0,-29.25,158.625,0
1776973834.161,9.5744,0.2083,2.3296,-0.0043,0.0309,0.3211,-75.15,-11.25,9.6,9.4954,-1.3264,1.5682,-0.0741,-0.0389,0.6752,-73.05,2.85,-4.2,-4.86,-2.95,-8.15,0.1593,-0.3305,0.0644,11.0,10.5,37.0,245.0,-29.4375,158.5625,0
1776973834.166,9.5744,0.2083,2.3296,-0.0043,0.0309,0.3211,-75.15,-11.25,9.6,9.5241,-1.3623,1.6209,-0.1095,-0.0269,0.6995,-72.9,3.45,-3.3,-4.86,-2.95,-8.15,0.168,-0.3414,0.0654,11.0,10.5,37.0,245.0625,-29.625,158.4375,0
1776973834.173,9.1889,0.1724,2.2865,0.036,0.0402,0.3317,-72.45,-10.95,8.7,9.4044,-1.4964,1.1396,-0.1252,-0.032,0.7125,-72.9,3.45,-3.3,-4.84,-2.79,-8.15,0.168,-0.3414,0.0654,11.0,10.5,37.0,245.0625,-29.625,158.4375,0
1776973834.177,9.1889,0.1724,2.2865,0.036,0.0402,0.3317,-74.55,-10.95,8.7,9.4044,-1.4964,1.1396,-0.1252,-0.032,0.7125,-72.9,3.45,-3.3,-4.84,-2.79,-8.15,0.1669,-0.3534,0.0611,10.25,11.1875,37.75,245.4375,-29.8125,158.375,0
1776973834.182,9.0429,0.1197,2.071,0.0117,0.0935,0.3451,-74.55,-10.95,8.7,9.1291,-1.3551,1.3048,-0.1386,-0.0109,0.7131,-72.9,3.45,-3.3,-4.82,-2.97,-8.02,0.1669,-0.3534,0.0611,10.25,11.1875,37.75,245.4375,-29.8125,158.375,0
1776973834.191,9.1698,0.0599,2.047,0.0645,-0.032,0.3589,-74.55,-10.95,8.7,9.1291,-1.3551,1.3048,-0.1386,-0.0109,0.7131,-72.45,3.0,-4.8,-4.95,-3.11,-7.84,0.1625,-0.3731,0.0567,10.25,11.1875,37.75,245.4375,-30.0,158.25,0
1776973834.195,9.1698,0.0599,2.047,0.0645,-0.032,0.3589,-74.55,-10.95,8.7,9.3254,-0.9912,1.6017,-0.1215,0.0392,0.7216,-72.3,1.65,-4.2,-4.95,-3.11,-7.84,0.1625,-0.3731,0.0567,10.25,11.1875,37.75,245.5,-30.25,158.1875,0
1776973834.202,9.8761,0.4022,1.7238,0.1119,-0.0674,0.3539,-73.65,-10.5,8.55,10.0748,-0.4932,1.2426,-0.1108,0.0624,0.7882,-72.3,1.65,-4.2,-4.92,-2.65,-8.09,0.1647,-0.3687,0.0578,10.25,11.1875,37.75,245.5,-30.25,158.1875,0
1776973834.21,10.5536,0.7302,1.4389,0.1348,-0.1162,0.34,-75.45,-12.3,8.55,10.0748,-0.4932,1.2426,-0.1108,0.0624,0.7882,-73.2,2.25,-3.3,-4.84,-2.77,-8.3,0.1571,-0.3632,0.0567,10.25,11.1875,37.75,245.5,-30.4375,158.0625,0
1776973834.215,10.5536,0.7302,1.4389,0.1348,-0.1162,0.34,-75.45,-12.3,8.55,10.5943,-0.5363,0.8667,-0.0701,0.0314,0.8306,-73.2,2.25,-3.3,-4.84,-2.77,-8.3,0.1571,-0.3632,0.0567,10.25,11.1875,37.75,245.5,-30.625,158.0,0
1776973834.222,10.7212,0.8763,1.3096,0.1966,-0.113,0.2992,-73.8,-12.15,8.7,10.6805,-0.498,0.7614,-0.0525,0.0384,0.8599,-72.45,1.5,-4.05,-4.8,-3.07,-8.28,0.1745,-0.3818,0.0556,10.25,11.1875,37.75,245.5,-30.625,158.0,0
1776973834.227,11.1833,0.9792,1.0511,0.1543,-0.0778,0.2411,-75.15,-12.0,9.15,10.6805,-0.498,0.7614,-0.0525,0.0384,0.8599,-72.9,1.95,-2.85,-4.8,-3.07,-8.28,0.1745,-0.3818,0.0556,11.25,11.1875,37.375,245.875,-30.8125,157.875,0
1776973834.232,11.1833,0.9792,1.0511,0.1543,-0.0778,0.2411,-75.15,-12.0,9.15,10.7284,-0.3807,0.4381,-0.1394,0.0552,0.9169,-72.9,1.95,-2.85,-4.64,-3.26,-8.54,0.204,-0.4254,0.0644,11.25,11.1875,37.375,245.875,-30.8125,157.875,0
1776973834.237,11.1067,0.9625,0.8739,0.1487,-0.1061,0.1498,-75.15,-12.0,9.15,10.7284,-0.3807,0.4381,-0.1394,0.0552,0.9169,-72.45,1.05,-4.35,-4.64,-3.26,-8.54,0.204,-0.4254,0.0644,11.25,11.1875,37.375,245.875,-31.125,157.6875,0
1776973834.242,11.1067,0.9625,0.8739,0.1487,-0.1061,0.1498,-75.15,-12.0,9.15,10.8074,-0.4764,-0.1413,-0.2475,0.097,0.9907,-72.45,1.05,-4.35,-4.62,-3.09,-8.68,0.2378,-0.4963,0.0774,11.25,11.1875,37.375,245.875,-31.125,157.6875,0
1776973834.247,11.0253,1.1492,0.182,0.0746,-0.1495,0.0618,-74.7,-12.3,8.55,10.8074,-0.4764,-0.1413,-0.2475,0.097,0.9907,-72.45,1.05,-4.35,-4.62,-3.09,-8.68,0.2923,-0.588,0.0982,11.25,11.1875,37.375,245.9375,-31.4375,157.5,0
1776973834.253,11.0253,1.1492,0.182,0.0746,-0.1495,0.0618,-74.7,-12.3,8.55,10.7715,-0.1341,-1.1205,-0.3411,0.0986,1.0616,-72.45,1.05,-4.35,-4.65,-3.18,-8.64,0.2923,-0.588,0.0982,11.25,11.1875,37.375,246.0,-31.8125,157.25,0
1776973834.262,10.3908,1.324,-0.1437,0.2017,-0.2579,-0.0258,-73.65,-12.0,7.35,10.3094,0.4334,-1.9225,-0.4026,0.1559,1.137,-73.2,-0.3,-2.85,-4.61,-3.4,-8.56,0.3316,-0.6938,0.1222,11.25,11.1875,37.375,246.0,-31.8125,157.25,0
1776973834.272,10.0772,1.5897,-0.8595,0.2483,-0.2968,-0.0927,-73.8,-13.95,5.4,10.0413,0.9026,-2.1213,-0.4343,0.2401,1.2369,-73.2,-0.3,-2.85,-4.59,-2.81,-8.53,0.3458,-0.8116,0.1658,11.25,11.1875,37.375,246.0625,-32.25,157.0,0
1776973834.277,10.2711,2.1668,-1.6328,0.3094,-0.4999,-0.1823,-74.4,-14.25,8.1,10.0413,0.9026,-2.1213,-0.4343,0.2401,1.2369,-71.7,-1.05,-3.6,-4.59,-2.81,-8.53,0.3458,-0.8116,0.1658,11.25,11.1875,37.375,246.0625,-32.25,157.0,0
1776973834.282,10.2711,2.1668,-1.6328,0.3094,-0.4999,-0.1823,-74.4,-14.25,8.1,10.1227,1.3503,-2.0949,-0.4994,0.3443,1.3691,-71.7,-1.05,-3.6,-4.54,-2.44,-8.68,0.3927,-0.949,0.2094,12.75,12.0,36.1875,246.5,-32.8125,156.6875,0
1776973834.287,10.0509,2.6695,-2.6911,0.3714,-0.7895,-0.3115,-74.4,-14.25,8.1,10.1227,1.3503,-2.0949,-0.4994,0.3443,1.3691,-72.6,-2.1,-2.7,-4.54,-2.44,-8.68,0.3927,-0.949,0.2094,12.75,12.0,36.1875,246.5,-32.8125,156.6875,0
1776973834.292,10.0509,2.6695,-2.6911,0.3714,-0.7895,-0.3115,-74.4,-14.25,8.1,10.477,1.6041,-1.9513,-0.5055,0.4415,1.5415,-72.6,-2.1,-2.7,-4.75,-2.47,-8.71,0.432,-1.1094,0.252,12.75,12.0,36.1875,246.5625,-33.4375,156.375,0
1776973834.297,9.9264,3.2441,-2.4325,0.8314,-1.007,-0.393,-74.4,-14.25,8.1,11.0205,1.8459,-1.6927,-0.5055,0.4415,1.5415,-72.6,-3.6,-1.65,-4.75,-2.47,-8.71,0.4494,-1.2643,0.2913,12.75,12.0,36.1875,246.6875,-34.125,156.0625,0
1776973834.303,9.9264,3.2441,-2.4325,0.8314,-1.007,-0.393,-74.4,-14.25,8.1,11.0205,1.8459,-1.6927,-0.4314,0.5665,1.6811,-72.6,-3.6,-1.65,-4.46,-3.25,-8.72,0.4494,-1.2643,0.2913,12.75,12.0,36.1875,246.8125,-34.9375,155.6875,0
1776973834.312,9.6103,3.9959,-2.4277,1.3017,-1.3272,-0.4565,-73.35,-16.5,3.45,11.6574,2.466,-1.9704,-0.3405,0.6704,1.8469,-73.35,-4.05,-2.7,-4.4,-4.08,-8.8,0.4374,-1.4257,0.3534,12.75,12.0,36.1875,246.8125,-34.9375,155.6875,0
1776973834.322,9.4116,4.5729,-2.988,1.5404,-1.6369,-0.5367,-73.5,-14.4,4.35,12.5313,2.2697,-2.229,-0.4434,0.7677,1.9676,-73.35,-4.05,-2.7,-4.25,-4.09,-8.89,0.4298,-1.6352,0.4472,12.75,12.0,36.1875,246.9375,-35.875,155.375,0
1776973834.327,9.3206,5.0781,-3.632,1.5612,-1.9585,-0.6539,-73.8,-15.45,3.3,13.2471,2.1476,-1.9537,-0.6147,0.8276,2.0342,-72.3,-5.25,-1.2,-4.25,-4.09,-8.89,0.4298,-1.6352,0.4472,12.75,12.0,36.1875,247.5,-36.9375,155.0,0
1776973834.332,9.3206,5.0781,-3.632,1.5612,-1.9585,-0.6539,-73.8,-15.45,3.3,13.2471,2.1476,-1.9537,-0.6147,0.8276,2.0342,-72.3,-5.25,-1.2,-3.79,-5.59,-9.33,0.4309,-1.8893,0.5727,14.25,12.6875,35.375,247.5,-36.9375,155.0,0
1776973834.337,9.4284,5.3367,-4.5729,1.2468,-2.1333,-0.7853,-72.9,-15.0,0.0,13.6134,2.1332,-0.5507,-0.6312,0.8639,2.0677,-72.3,-5.25,-1.2,-3.79,-5.59,-9.33,0.4309,-1.8893,0.5727,14.25,12.6875,35.375,247.75,-38.25,154.6875,0
1776973834.342,9.4284,5.3367,-4.5729,1.2468,-2.1333,-0.7853,-72.9,-15.0,0.0,13.6134,2.1332,-0.5507,-0.6312,0.8639,2.0677,-72.3,-5.25,-1.2,-4.05,-5.86,-9.62,0.3818,-2.2351,0.7625,14.25,12.6875,35.375,247.75,-38.25,154.6875,0
1776973834.347,10.2735,4.8052,-4.4532,0.809,-2.5703,-1.0152,-72.9,-15.0,0.0,13.5081,1.9848,0.4501,-0.6142,0.8569,2.0827,-72.9,-7.8,-1.8,-4.05,-5.86,-9.62,0.3076,-2.6605,1.0505,14.25,12.6875,35.375,302.75,-39.8125,154.4375,0
1776973834.353,10.4627,4.2665,-3.2274,0.2505,-2.7406,-1.3827,-72.9,-15.0,0.0,13.5081,1.9848,0.4501,-0.6142,0.8569,2.0827,-72.9,-7.8,-1.8,-4.22,-5.9,-9.7,0.3076,-2.6605,1.0505,14.25,12.6875,35.375,300.5,-41.6875,154.25,0
1776973834.362,10.2759,3.1532,-1.233,-0.0061,-2.6249,-1.5442,-72.9,-14.25,-0.3,13.3764,1.6257,2.2529,-0.2683,0.7147,2.0885,-70.95,-6.9,-0.6,-5.32,-6.33,-9.61,0.2182,-3.0641,1.3668,14.25,12.6875,35.375,300.5,-41.6875,154.25,0
1776973834.372,11.0899,1.2689,1.1253,-0.4812,-2.5039,-1.4224,-71.7,-13.65,-3.0,12.9095,2.569,3.5506,0.1871,0.5108,2.1011,-71.25,-10.5,0.3,-7.85,-5.56,-10.74,0.0131,-3.3848,1.5981,14.25,12.6875,35.375,297.8125,-43.75,154.25,0
1776973834.377,11.0899,1.2689,1.1253,-0.4812,-2.5039,-1.4224,-72.45,-12.15,-3.3,12.1769,2.8778,3.699,0.4309,0.3773,2.1181,-71.55,-10.35,1.65,-7.85,-5.56,-10.74,0.0131,-3.3848,1.5981,14.25,12.6875,35.375,297.8125,-43.75,154.25,0
1776973834.382,12.481,0.1149,2.6528,-0.8045,-2.5309,-1.3691,-72.45,-12.15,-3.3,12.1769,2.8778,3.699,0.4309,0.3773,2.1181,-71.55,-10.35,1.65,-10.93,-8.07,-11.23,-0.1222,-3.6357,1.7682,18.25,13.0625,33.75,295.0,-46.0,154.3125,0
1776973834.387,12.481,0.1149,2.6528,-0.8045,-2.5309,-1.3691,-71.55,-13.5,-3.15,10.7284,2.138,5.43,0.615,0.4112,2.1615,-70.5,-11.7,1.35,-10.93,-8.07,-11.23,-0.1222,-3.6357,1.7682,18.25,13.0625,33.75,295.0,-46.0,154.3125,0
1776973834.392,12.4091,1.0367,3.5721,-1.1639,-2.2993,-1.4306,-71.55,-13.5,-3.15,10.7284,2.138,5.43,0.615,0.4112,2.1615,-70.5,-11.7,1.35,-13.39,-8.06,-11.35,-0.2923,-3.7001,1.9537,18.25,13.0625,33.75,292.0625,-48.3125,154.5625,0
1776973834.397,12.4091,1.0367,3.5721,-1.1639,-2.2993,-1.4306,-71.55,-13.5,-3.15,10.0796,-0.0886,6.9216,1.4186,0.502,2.1282,-70.5,-11.7,1.35,-13.39,-8.06,-11.35,-0.5738,-3.4677,2.0464,18.25,13.0625,33.75,289.0625,-50.5625,155.1875,0
1776973834.403,12.5552,1.9872,3.7685,-1.4538,-2.0936,-1.5303,-71.55,-13.5,-3.15,9.7396,-2.4541,7.2832,1.4186,0.502,2.1282,-69.45,-12.9,1.05,-13.83,-8.61,-11.5,-0.5738,-3.4677,2.0464,18.25,13.0625,33.75,286.0,-52.5625,156.125,0
1776973834.412,11.9327,2.976,3.4931,-1.5567,-1.5044,-1.6681,-71.1,-8.55,-7.35,9.3925,-4.3335,7.8673,2.3369,0.49,2.1189,-69.45,-12.9,1.05,-14.53,-10.96,-12.55,-0.901,-3.0685,2.0988,18.25,13.0625,33.75,286.0,-52.5625,156.125,0
1776973834.422,11.6813,2.8946,3.2394,-1.6129,-0.9931,-1.8434,-70.8,-8.55,-5.25,9.2416,-6.3686,7.5537,2.9993,0.6797,2.0976,-68.85,-15.75,2.7,-10.45,-11.19,-10.36,-1.333,-2.5733,2.0377,18.25,13.0625,33.75,282.8125,-54.3125,157.5,0
1776973834.427,11.6813,2.8946,3.2394,-1.6129,-0.9931,-1.8434,-70.2,-7.2,-7.2,9.2416,-6.3686,7.5537,2.9993,0.6797,2.0976,-68.85,-15.75,2.7,-10.45,-11.19,-10.36,-1.333,-2.5733,2.0377,18.25,13.0625,33.75,282.8125,-54.3125,157.5,0
1776973834.432,11.7531,2.7845,2.66,-1.5561,-0.5574,-1.9422,-70.2,-7.2,-7.2,9.4403,-7.8362,7.367,3.0854,0.7735,2.1456,-69.0,-15.6,4.8,-6.63,-11.99,-5.4,-2.0213,-2.2471,2.0202,25.25,12.0,31.0625,279.1875,-55.875,159.4375,0
1776973834.437,11.7531,2.7845,2.66,-1.5561,-0.5574,-1.9422,-70.2,-5.4,-5.85,9.4403,-7.8362,7.367,3.0854,0.7735,2.1456,-67.5,-15.6,4.8,-6.63,-11.99,-5.4,-2.0213,-2.2471,2.0202,25.25,12.0,31.0625,279.1875,-55.875,159.4375,0
1776973834.442,11.7867,2.976,2.4924,-1.2838,-0.5212,-1.9841,-70.2,-5.4,-5.85,9.0285,-7.9679,8.8466,2.9188,0.9782,2.1663,-67.5,-17.55,5.1,-18.96,-10.53,-6.69,-2.9791,-2.3475,1.6679,25.25,12.0,31.0625,274.875,-57.4375,161.8125,0
1776973834.447,11.7867,2.976,2.4924,-1.2838,-0.5212,-1.9841,-70.95,-4.2,-6.45,9.0285,-7.9679,8.8466,2.9188,0.9782,2.1663,-67.5,-17.55,5.1,-18.96,-10.53,-6.69,-3.711,-2.3213,0.5629,25.25,12.0,31.0625,270.625,-58.75,163.6875,0
1776973834.453,10.9056,3.134,2.648,-0.8151,-0.4277,-1.8668,-70.95,-4.2,-6.45,9.0022,-7.4819,7.2903,2.5095,0.9657,2.1061,-69.15,-18.15,5.25,-15.22,-9.85,-8.82,-3.711,-2.3213,0.5629,25.25,12.0,31.0625,267.25,-59.375,165.0,0
1776973834.462,11.327,3.1603,2.5833,-0.1228,-0.3954,-1.7544,-70.95,-4.2,-6.45,8.8059,-6.292,6.4548,2.0158,0.9172,1.9705,-68.25,-17.55,7.65,-10.07,-6.26,-6.11,-3.6543,-1.2763,-0.4778,25.25,12.0,31.0625,267.25,-59.375,165.0,0
1776973834.472,9.8019,3.881,3.7565,0.526,-0.3741,-1.7118,-69.15,-2.4,-3.3,7.9344,-6.0501,6.7301,1.6587,0.822,1.8229,-67.65,-20.4,8.7,-7.24,-4.2,-5.3,-3.267,-0.6501,-1.0603,25.25,12.0,31.0625,264.6875,-59.5625,165.6875,0
1776973834.477,9.8019,3.881,3.7565,0.526,-0.3741,-1.7118,-67.8,-1.05,-2.4,7.9344,-6.0501,6.7301,1.6587,0.822,1.8229,-67.65,-20.4,8.7,-7.24,-4.2,-5.3,-3.267,-0.6501,-1.0603,25.25,12.0,31.0625,262.625,-59.6875,166.0625,0
1776973834.482,10.0748,4.1348,3.553,1.1242,-0.044,-1.7147,-67.8,-1.05,-2.4,6.9264,-5.6455,7.5968,1.518,0.7378,1.6651,-67.65,-20.4,8.7,-7.4,-3.35,-5.45,-2.7849,-0.492,-1.1137,31.5,6.0625,31.5,262.625,-59.6875,166.0625,0
1776973834.487,10.0748,4.1348,3.553,1.3376,-0.1354,-1.7168,-67.8,-0.75,-2.1,6.9264,-5.6455,7.5968,1.518,0.7378,1.6651,-67.65,-20.4,8.7,-7.4,-3.35,-5.45,-2.7849,-0.492,-1.1137,31.5,6.0625,31.5,261.125,-59.75,166.25,0
1776973834.492,10.0987,3.5937,0.7853,1.3376,-0.1354,-1.7168,-68.1,-1.2,1.95,6.0023,-5.442,7.2664,1.3134,0.6193,1.5082,-66.0,-20.7,9.6,-7.35,-3.46,-5.47,-2.2144,-0.3709,-1.0788,31.5,6.0625,31.5,261.125,-59.75,166.25,0
1776973834.497,10.1227,3.6536,0.838,1.6132,-0.0245,-1.7059,-68.1,-1.2,1.95,6.0023,-5.442,7.2664,1.3134,0.6193,1.5082,-66.0,-20.7,9.6,-7.35,-3.46,-5.47,-1.6842,-0.1145,-1.0352,31.5,6.0625,31.5,260.0625,-59.625,166.1875,0
1776973834.503,10.1227,3.6536,0.838,1.6132,-0.0245,-1.7059,-68.1,-1.2,1.95,5.205,-5.3846,7.1898,1.1034,0.5945,1.3752,-66.0,-20.7,9.6,-6.88,-4.55,-5.15,-1.6842,-0.1145,-1.0352,31.5,6.0625,31.5,259.375,-59.375,166.125,0
1776973834.512,10.4291,3.474,0.5411,1.9788,-0.0461,-1.6606,-66.6,0.15,5.85,5.0518,-4.5657,7.1012,0.8228,0.5257,1.1983,-66.15,-23.25,10.5,-5.6,-4.76,-4.27,-1.369,0.2302,-0.9817,31.5,6.0625,31.5,259.375,-59.375,166.125,0
1776973834.522,10.6231,3.2848,1.154,2.6111,-0.1767,-1.6025,-66.45,-0.75,6.75,5.2146,-4.4556,6.2632,0.635,0.4719,1.036,-64.8,-22.2,10.65,-4.37,-4.71,-3.44,-1.3145,0.5476,-0.9141,31.5,6.0625,31.5,258.6875,-59.0,166.125,0
1776973834.527,10.5967,3.1316,1.8603,3.0835,-0.1892,-1.517,-66.45,-0.75,6.75,5.2074,-4.5729,6.4907,0.635,0.4719,1.036,-64.8,-22.2,10.65,-4.37,-4.71,-3.44,-1.3145,0.5476,-0.9141,31.5,6.0625,31.5,257.875,-58.5,166.375,0
1776973834.532,10.5967,3.1316,1.8603,3.0835,-0.1892,-1.517,-64.65,-1.8,7.8,5.2074,-4.5729,6.4907,0.6616,0.376,0.9084,-65.1,-23.55,10.05,-3.91,-3.89,-3.33,-1.4094,0.7298,-0.7898,34.0,1.75,31.5,257.875,-58.5,166.375,0
1776973834.537,10.0796,2.9521,2.0734,3.1704,-0.2297,-1.3904,-64.65,-1.8,7.8,4.6807,-4.2473,6.5769,0.6616,0.376,0.9084,-65.1,-23.55,10.05,-3.91,-3.89,-3.33,-1.4094,0.7298,-0.7898,34.0,1.75,31.5,257.875,-58.5,166.375,0
1776973834.542,10.0796,2.9521,2.0734,3.1704,-0.2297,-1.3904,-63.0,-4.65,10.5,4.6807,-4.2473,6.5769,0.728,0.2425,0.8071,-64.65,-23.55,10.8,-3.53,-3.5,-3.41,-1.4988,0.8585,-0.6861,34.0,1.75,31.5,256.9375,-57.9375,166.75,0
1776973834.548,9.3039,2.9377,1.9058,3.0102,-0.3027,-1.198,-63.0,-4.65,10.5,4.2377,-3.9456,5.9089,0.7762,0.0536,0.7051,-64.65,-23.55,10.8,-3.46,-2.73,-3.46,-1.5021,1.0047,-0.6687,34.0,1.75,31.5,256.0,-57.3125,167.25,0
1776973834.553,9.3039,2.9377,1.9058,3.0102,-0.3027,-1.198,-63.0,-4.65,10.5,4.2377,-3.9456,5.9089,0.7762,0.0536,0.7051,-64.65,-23.55,10.8,-3.46,-2.73,-3.46,-1.5021,1.0047,-0.6687,34.0,1.75,31.5,255.1875,-56.5625,167.625,0
1776973834.563,8.6814,3.225,2.2673,2.9878,-0.0863,-1.0906,-63.0,-4.65,10.5,3.7637,-3.5769,5.5545,0.7893,-0.1021,0.5545,-63.15,-23.25,12.3,-2.54,-2.33,-2.74,-1.3788,1.1923,-0.7472,34.0,1.75,31.5,255.1875,-56.5625,167.625,0
1776973834.573,9.505,1.9992,1.9872,2.7006,0.0163,-1.0757,-58.8,-10.5,10.65,3.6057,-4.1252,4.8578,0.7957,-0.2174,0.3635,-63.15,-23.25,12.3,-1.01,-2.25,-1.82,-1.1988,1.3712,-0.8738,34.0,1.75,31.5,254.6875,-55.75,167.8125,0
1776973834.577,9.7133,0.4381,1.0989,2.3457,0.2904,-1.0682,-58.8,-10.5,10.65,3.3136,-4.1563,5.0015,0.89,-0.3448,0.1695,-63.15,-23.25,12.3,-1.01,-2.25,-1.82,-1.1988,1.3712,-0.8738,34.0,1.75,31.5,254.6875,-55.75,167.8125,0
1776973834.582,9.7133,0.4381,1.0989,2.3457,0.2904,-1.0682,-58.05,-11.55,9.15,3.3136,-4.1563,5.0015,0.89,-0.3448,0.1695,-65.55,-24.6,12.15,-0.67,-2.07,-1.75,-1.0287,1.4399,-0.9697,33.1875,0.0,35.1875,254.375,-54.8125,167.875,0
1776973834.587,10.0892,0.4621,0.5435,2.0896,0.393,-1.0627,-58.05,-11.55,9.15,3.2705,-4.3383,4.5681,0.8868,-0.5281,-0.0506,-65.55,-24.6,12.15,-0.67,-2.07,-1.75,-1.0287,1.4399,-0.9697,33.1875,0.0,35.1875,254.375,-54.8125,167.875,0
1776973834.592,10.0892,0.4621,0.5435,2.0896,0.393,-1.0627,-57.75,-12.0,10.65,3.2705,-4.3383,4.5681,0.8868,-0.5281,-0.0506,-62.25,-23.85,12.45,-0.38,-2.08,-1.75,-0.8858,1.4573,-1.0723,33.1875,0.0,35.1875,254.25,-53.9375,167.75,0
1776973834.597,10.5728,-0.0718,-0.0311,2.0771,0.2161,-1.0813,-57.75,-12.0,10.65,3.3806,-4.5322,4.1611,0.9478,-0.6861,-0.2409,-62.25,-23.85,12.45,-0.38,-2.08,-1.75,-0.7625,1.4628,-1.1956,33.1875,0.0,35.1875,254.375,-53.0,167.5625,0
1776973834.603,10.5728,-0.0718,-0.0311,1.873,0.0946,-1.1466,-57.9,-10.65,9.75,3.3806,-4.5322,4.1611,0.9478,-0.6861,-0.2409,-64.8,-23.85,11.85,-0.98,-2.13,-2.47,-0.7625,1.4628,-1.1956,33.1875,0.0,35.1875,254.6875,-52.0,167.1875,0
1776973834.613,10.2879,-0.4453,-0.0838,1.873,0.0946,-1.1466,-57.9,-10.65,9.75,3.4453,-4.0007,3.9911,1.0256,-0.8029,-0.4072,-64.5,-22.65,11.85,-0.87,-2.26,-2.55,-0.6229,1.4955,-1.3581,33.1875,0.0,35.1875,254.6875,-52.0,167.1875,0
1776973834.623,10.3525,-0.7925,-0.1101,1.5084,-0.3096,-1.27,-58.8,-10.05,7.8,3.8595,-3.869,3.3016,1.0693,-0.9462,-0.5617,-66.15,-21.6,12.3,-0.64,-2.33,-2.66,-0.5203,1.5697,-1.549,33.1875,0.0,35.1875,255.3125,-50.9375,166.625,0
1776973834.628,9.5026,-0.3831,0.2011,1.5084,-0.3096,-1.27,-58.8,-10.05,7.8,4.2737,-3.5171,3.4285,1.1572,-1.1032,-0.6947,-66.15,-21.6,12.3,-0.64,-2.33,-2.66,-0.5203,1.5697,-1.549,33.1875,0.0,35.1875,256.125,-49.875,166.0,0
1776973834.633,9.5026,-0.3831,0.2011,1.4554,-0.4727,-1.2955,-60.45,-9.9,8.7,4.209,-3.8403,3.4333,1.1572,-1.1032,-0.6947,-65.1,-21.6,12.0,-0.75,-2.37,-2.75,-0.4374,1.6068,-1.7235,30.75,-0.5625,38.375,256.125,-49.875,166.0,0
1776973834.638,8.7101,-0.5004,0.0934,1.4554,-0.4727,-1.2955,-60.45,-9.9,8.7,4.209,-3.8403,3.4333,1.3118,-1.1956,-0.8132,-65.1,-21.6,12.0,-0.75,-2.37,-2.75,-0.4374,1.6068,-1.7235,30.75,-0.5625,38.375,257.125,-48.75,165.3125,0
1776973834.643,8.0206,-0.4812,-0.0335,1.3408,-0.2345,-1.2894,-58.35,-10.5,6.3,4.1324,-3.9863,3.4836,1.3118,-1.1956,-0.8132,-65.1,-21.6,12.0,-1.07,-2.39,-3.21,-0.3807,1.6013,-1.8795,30.75,-0.5625,38.375,257.125,-48.75,165.3125,0
1776973834.649,8.0206,-0.4812,-0.0335,1.3408,-0.2345,-1.2894,-58.35,-10.5,6.3,4.1324,-3.9863,3.4836,1.4602,-1.2937,-0.9563,-65.55,-21.6,12.0,-1.51,-2.42,-3.64,-0.3185,1.597,-2.0399,30.75,-0.5625,38.375,258.3125,-47.625,164.5,0
1776973834.654,7.6016,-0.5818,-0.2322,1.3033,-0.093,-1.2878,-60.45,-10.65,6.9,3.8666,-3.8307,3.2657,1.5972,-1.3965,-1.0597,-65.55,-21.9,12.45,-1.51,-2.42,-3.64,-0.3185,1.597,-2.0399,30.75,-0.5625,38.375,259.75,-46.375,163.625,0
1776973834.663,7.2664,-0.0694,-0.1077,1.2327,0.1295,-1.2484,-60.45,-10.65,6.9,3.711,-3.6607,3.4022,1.7885,-1.4568,-1.1764,-65.25,-21.0,11.85,-1.86,-2.58,-4.06,-0.2422,1.6373,-2.2351,30.75,-0.5625,38.375,261.5,-45.0625,162.6875,0
1776973834.673,6.9719,0.3328,-0.0048,1.08,0.2737,-1.1532,-59.1,-9.3,6.75,3.9313,-3.2848,3.4812,1.9694,-1.5226,-1.3145,-67.65,-18.9,12.75,-2.29,-2.87,-4.24,-0.1614,1.7257,-2.4456,30.75,-0.5625,38.375,261.5,-45.0625,162.6875,0
1776973834.678,6.9719,0.3328,-0.0048,1.08,0.2737,-1.1532,-59.1,-9.3,6.75,3.9313,-3.2848,3.4812,1.9694,-1.5226,-1.3145,-67.65,-18.9,12.75,-2.29,-2.87,-4.24,-0.1614,1.7257,-2.4456,30.75,-0.5625,38.375,263.5625,-43.6875,161.6875,0
1776973834.683,7.4579,0.3615,-0.2035,0.8431,0.4234,-1.1037,-58.35,-10.5,6.75,4.4293,-2.9999,3.3519,2.1583,-1.6214,-1.4677,-67.65,-18.15,12.3,-1.89,-2.8,-3.9,-0.1102,1.8555,-2.6518,27.875,0.5,39.5625,263.5625,-43.6875,161.6875,0
1776973834.688,7.4579,0.3615,-0.2035,0.8431,0.4234,-1.1037,-58.35,-10.5,6.75,4.4293,-2.9999,3.3519,2.1583,-1.6214,-1.4677,-67.65,-18.15,12.3,-1.89,-2.8,-3.9,-0.1102,1.8555,-2.6518,27.875,0.5,39.5625,265.8125,-42.125,160.6875,0
1776973834.693,7.9344,0.34,-0.4238,0.6227,0.5689,-1.0501,-58.8,-10.5,6.0,4.5322,-3.5027,3.5171,2.3454,-1.7094,-1.6038,-67.35,-18.9,13.05,-1.54,-2.76,-3.68,-0.108,1.9504,-2.8154,27.875,0.5,39.5625,265.8125,-42.125,160.6875,0
1776973834.698,7.9344,0.34,-0.4238,0.6227,0.5689,-1.0501,-58.8,-10.5,6.0,4.5322,-3.5027,3.5171,2.3454,-1.7094,-1.6038,-67.35,-18.9,13.05,-1.54,-2.76,-3.68,-0.1113,1.9264,-2.9082,27.875,0.5,39.5625,224.25,-40.5625,159.75,0
1776973834.704,7.6519,0.2179,-0.6081,0.5159,0.3925,-0.9657,-58.65,-9.45,5.1,4.8076,-4.051,4.3886,2.5394,-1.8298,-1.7299,-67.65,-17.4,11.55,-2.36,-2.88,-4.46,-0.1113,1.9264,-2.9082,27.875,0.5,39.5625,222.75,-39.0,158.8125,0
1776973834.713,7.6878,0.3591,-0.8188,0.4173,0.4626,-0.8194,-58.8,-9.3,6.75,5.0039,-4.3263,4.6639,2.5482,-1.9196,-1.8178,-67.65,-17.4,11.55,-2.38,-2.96,-4.72,-0.0742,1.8817,-2.9965,27.875,0.5,39.5625,222.75,-39.0,158.8125,0
1776973834.723,7.5992,0.7087,-1.2905,0.2872,0.5228,-0.6606,-58.8,-9.3,6.75,5.2912,-4.6663,4.7333,2.407,-2.0262,-1.8778,-70.5,-16.8,12.45,-2.29,-2.94,-4.85,-0.0142,1.898,-3.1023,27.875,0.5,39.5625,221.1875,-37.375,157.875,0
1776973834.728,7.5992,0.7087,-1.2905,0.2872,0.5228,-0.6606,-58.8,-9.3,6.75,5.2912,-4.6663,4.7333,2.407,-2.0262,-1.8778,-70.5,-16.8,12.45,-2.29,-2.94,-4.85,-0.0142,1.898,-3.1023,27.875,0.5,39.5625,221.1875,-37.375,157.875,0
1776973834.733,8.09,0.8404,-1.7669,0.0152,0.8647,-0.5177,-58.65,-7.95,6.45,5.7581,-5.2529,4.9344,2.2516,-2.1197,-1.9649,-70.5,-16.8,12.45,-2.41,-2.82,-5.13,0.0502,1.9308,-3.1776,24.25,3.0625,41.0625,219.625,-35.75,156.9375,0
1776973834.738,8.09,0.8404,-1.7669,0.0152,0.8647,-0.5177,-58.65,-7.95,6.45,5.7581,-5.2529,4.9344,2.2516,-2.1197,-1.9649,-70.5,-16.8,12.45,-2.41,-2.82,-5.13,0.0502,1.9308,-3.1776,24.25,3.0625,41.0625,219.625,-35.75,156.9375,0
1776973834.743,8.181,1.1325,-1.6735,-0.2086,1.1783,-0.3635,-58.95,-8.7,5.85,5.4779,-5.351,5.0398,2.027,-2.1853,-2.0534,-70.35,-11.85,10.05,-3.43,-2.86,-6.19,0.1265,1.9482,-3.1841,24.25,3.0625,41.0625,218.125,-34.0625,156.0,0
1776973834.749,8.0756,1.0534,-1.8651,-0.1769,0.7104,-0.2681,-59.1,-7.05,6.3,6.5003,-6.5553,4.6687,1.7752,-2.3331,-2.1735,-70.35,-11.85,10.05,-4.04,-3.0,-6.79,0.1996,1.9984,-3.0958,24.25,3.0625,41.0625,216.625,-32.3125,155.1875,0
1776973834.754,8.0756,1.0534,-1.8651,-0.1769,0.7104,-0.2681,-59.1,-7.05,6.3,6.5003,-6.5553,4.6687,1.7752,-2.3331,-2.1735,-70.05,-12.3,9.75,-4.04,-3.0,-6.79,0.1996,1.9984,-3.0958,24.25,3.0625,41.0625,215.3125,-30.5625,154.4375,0
1776973834.763,7.9631,0.8164,-1.1756,-0.4746,1.072,-0.1663,-60.3,-7.5,6.0,6.3446,-7.0485,4.8339,1.3267,-2.2916,-2.27,-72.3,-9.15,8.7,-4.5,-3.01,-7.25,0.2476,2.1118,-2.9169,24.25,3.0625,41.0625,214.125,-28.8125,153.875,0
1776973834.773,8.9687,0.9026,-1.3958,-0.563,1.0341,-0.049,-60.3,-7.5,6.0,7.0749,-7.4053,4.7956,0.8705,-2.476,-2.3763,-71.85,-9.45,7.5,-4.65,-2.51,-7.65,0.2825,2.2646,-2.6573,24.25,3.0625,41.0625,214.125,-28.8125,153.875,0
1776973834.778,7.5322,0.7877,-0.3639,-0.5923,0.9068,0.0903,-60.0,-4.95,6.9,7.2329,-7.0413,5.0542,0.3016,-2.4448,-2.4501,-71.85,-9.45,7.5,-4.65,-2.51,-7.65,0.2825,2.2646,-2.6573,18.25,7.5,42.25,213.1875,-27.0,153.375,0
1776973834.783,7.5322,0.7877,-0.3639,-0.5923,0.9068,0.0903,-60.0,-4.95,6.9,7.2329,-7.0413,5.0542,0.3016,-2.4448,-2.4501,-71.85,-9.45,7.5,-4.51,-2.4,-7.81,0.3403,2.4238,-2.3158,18.25,7.5,42.25,213.1875,-27.0,153.375,0
1776973834.788,8.078,0.9792,-0.2586,-0.5345,0.7863,0.2403,-60.6,-5.25,7.8,7.2856,-6.6559,4.7357,-0.174,-2.5026,-2.5636,-71.85,-9.45,7.5,-4.51,-2.4,-7.81,0.3403,2.4238,-2.3158,18.25,7.5,42.25,212.5,-25.3125,153.0,0
1776973834.793,8.078,0.9792,-0.2586,-0.5345,0.7863,0.2403,-60.6,-5.25,7.8,7.2856,-6.6559,4.7357,-0.174,-2.5026,-2.5636,-74.1,-6.75,6.45,-4.52,-2.63,-8.14,0.4396,2.5613,-1.8915,18.25,7.5,42.25,212.5,-25.3125,153.0,0
1776973834.798,7.9009,0.8164,-0.091,-0.4293,0.7882,0.4125,-60.0,-5.4,8.7,7.1778,-6.189,4.8578,-0.6821,-2.4749,-2.6969,-74.1,-6.75,6.45,-4.52,-2.63,-8.14,0.5421,2.6704,-1.4192,18.25,7.5,42.25,212.125,-23.625,152.6875,0
1776973834.804,7.9009,0.8164,-0.091,-0.4293,0.7882,0.4125,-60.0,-5.4,8.7,7.1778,-6.189,4.8578,-0.6821,-2.4749,-2.6969,-74.1,-6.75,6.45,-4.7,-3.21,-8.85,0.5421,2.6704,-1.4192,18.25,7.5,42.25,212.0625,-22.0,152.4375,0
1776973834.813,7.9942,0.3136,-0.0742,-0.2553,0.559,0.55,-63.9,-6.3,8.55,7.3646,-5.6503,4.4029,-1.1724,-2.432,-2.8432,-73.05,-4.5,3.0,-4.45,-3.18,-8.73,0.5978,2.7751,-0.9741,18.25,7.5,42.25,212.0625,-22.0,152.4375,0
1776973834.823,7.5824,0.1317,-0.0263,-0.101,0.5998,0.6691,-63.9,-6.3,8.55,7.592,-5.0781,4.0318,-1.5183,-2.3286,-2.9751,-74.55,-3.3,1.2,-4.46,-3.08,-8.71,0.5945,2.8405,-0.5498,18.25,7.5,42.25,212.1875,-20.4375,152.25,0
1776973834.828,7.8961,-0.1844,0.0527,-0.0322,0.5902,0.8191,-63.9,-6.3,8.55,7.8985,-4.9249,3.9768,-1.687,-2.2817,-3.0886,-74.55,-3.3,1.2,-4.46,-3.08,-8.71,0.5945,2.8405,-0.5498,18.25,7.5,42.25,212.1875,-20.4375,152.25,0
1776973834.833,7.8961,-0.1844,0.0527,-0.0322,0.5902,0.8191,-63.9,-6.3,8.55,7.8985,-4.9249,3.9768,-1.687,-2.2817,-3.0886,-73.95,-0.3,0.0,-4.49,-3.05,-8.71,0.5749,2.8209,-0.0905,12.0625,11.1875,43.0625,212.5625,-19.0625,152.1875,0
1776973834.838,7.4843,-0.012,-0.2945,0.0144,0.6789,0.9172,-63.9,-5.25,8.85,7.9775,-4.9823,3.6583,-1.7328,-2.2036,-3.1946,-73.95,-0.3,0.0,-4.49,-3.05,-8.71,0.5749,2.8209,-0.0905,12.0625,11.1875,43.0625,212.5625,-19.0625,152.1875,0
1776973834.843,7.4843,-0.012,-0.2945,0.0144,0.6789,0.9172,-63.9,-5.25,8.85,7.9775,-4.9823,3.6583,-1.7328,-2.2036,-3.1946,-73.95,1.05,-2.85,-5.22,-3.06,-9.38,0.5432,2.7238,0.4189,12.0625,11.1875,43.0625,213.1875,-17.8125,152.1875,0
1776973834.85,7.5106,-0.1939,-0.3376,-0.0634,0.8127,1.0459,-65.25,-3.75,9.9,7.8458,-4.5921,3.8355,-1.829,-2.1877,-3.2285,-73.95,1.05,-2.85,-5.19,-3.25,-9.44,0.5421,2.6016,0.925,12.0625,11.1875,43.0625,214.125,-16.75,152.25,0
1776973834.855,7.8195,-0.3831,-0.2849,-0.0935,0.7989,1.1679,-65.25,-3.75,9.9,8.1427,-4.7022,3.4979,-2.0097,-2.0944,-3.2455,-76.5,2.1,-3.0,-5.19,-3.25,-9.44,0.5421,2.6016,0.925,12.0625,11.1875,43.0625,215.25,-15.875,152.3125,0
1776973834.863,7.8195,-0.3831,-0.2849,-0.0935,0.7989,1.1679,-64.95,-3.3,9.6,8.418,-4.2042,3.7661,-2.0097,-2.0944,-3.2455,-73.2,4.65,-2.85,-4.89,-3.64,-9.56,0.6174,2.4925,1.3177,12.0625,11.1875,43.0625,216.4375,-15.1875,152.25,0
1776973834.873,8.1283,-0.6752,-0.2921,-0.4655,0.8577,1.3219,-66.45,-5.55,10.65,9.2033,-4.1204,4.9512,-2.4384,-1.9827,-3.2242,-73.2,4.65,-2.85,-7.36,-3.94,-11.0,0.7559,2.3093,1.5413,12.0625,11.1875,43.0625,216.4375,-15.1875,152.25,0
1776973834.878,8.5688,-0.4549,-0.3687,-0.6912,0.8268,1.4634,-66.45,-5.55,10.65,9.2033,-4.1204,4.9512,-2.7979,-1.7568,-3.2522,-73.2,4.65,-2.85,-7.36,-3.94,-11.0,0.7559,2.3093,1.5413,12.0625,11.1875,43.0625,216.4375,-15.1875,152.25,0
1776973834.883,8.5688,-0.4549,-0.3687,-0.6912,0.8268,1.4634,-66.45,-5.55,10.65,10.3573,-3.4405,4.9057,-2.7979,-1.7568,-3.2522,-74.1,7.95,-3.75,-6.83,-4.88,-12.62,0.997,2.1653,1.585,6.25,14.0625,42.0625,217.6875,-14.5,152.0625,0
1776973834.888,9.074,0.1652,-0.1604,-0.9888,0.6861,1.5471,-65.25,-3.3,8.85,10.3573,-3.4405,4.9057,-2.7579,-1.7176,-3.2652,-74.1,7.95,-3.75,-6.83,-4.88,-12.62,0.997,2.1653,1.585,6.25,14.0625,42.0625,217.6875,-14.5,152.0625,0
1776973834.893,9.074,0.1652,-0.1604,-0.9888,0.6861,1.5471,-65.25,-3.3,8.85,10.9463,-1.6257,3.9528,-2.7323,-1.5266,-3.1427,-74.55,9.45,-6.0,-8.87,-4.83,-13.52,1.0505,2.0126,1.4857,6.25,14.0625,42.0625,218.875,-13.9375,151.8125,0
1776973834.899,9.1554,0.7638,-0.079,-1.2324,0.4871,1.5503,-66.6,-2.7,9.3,10.9463,-1.6257,3.9528,-2.7323,-1.5266,-3.1427,-74.55,9.45,-6.0,-8.87,-4.83,-13.52,1.1497,2.0453,1.3515,6.25,14.0625,42.0625,220.0,-13.25,151.4375,0
1776973834.904,9.56,1.7885,-0.4214,-1.4666,0.393,1.53,-66.6,-2.7,9.3,11.8752,-0.6512,2.6624,-2.5274,-1.4528,-2.917,-73.05,11.1,-7.2,-9.77,-1.93,-13.53,1.1497,2.0453,1.3515,6.25,14.0625,42.0625,221.0625,-12.5625,151.0625,0
1776973834.914,9.7061,3.1556,-0.7398,-1.6347,0.3235,1.5295,-68.7,-0.9,9.75,12.0979,-0.5555,2.241,-2.0638,-1.4421,-2.6148,-74.1,11.85,-7.2,-10.22,-0.31,-12.83,1.1323,2.126,1.2425,6.25,14.0625,42.0625,222.0625,-11.875,150.6875,0
1776973834.923,10.3573,4.3958,-0.5076,-1.7355,0.2462,1.5167,-69.3,-1.8,10.95,11.7005,-0.7446,2.636,-1.6566,-1.3592,-2.3028,-73.2,15.15,-6.6,-10.61,0.76,-12.02,1.2043,2.0977,1.1825,6.25,14.0625,42.0625,222.0625,-11.875,150.6875,0
1776973834.928,10.3573,4.3958,-0.5076,-1.7355,0.2462,1.5167,-69.3,-1.8,10.95,11.7005,-0.7446,2.636,-1.6566,-1.3592,-2.3028,-73.2,15.15,-6.6,-10.61,0.76,-12.02,1.2043,2.0977,1.1825,6.25,14.0625,42.0625,223.0625,-11.25,150.125,0
1776973834.933,11.2911,6.0621,-0.5028,-1.8151,0.3477,1.4682,-69.3,-1.8,10.95,11.4826,-0.5578,2.8491,-1.4346,-1.2673,-1.9508,-71.55,16.2,-7.2,-10.45,1.72,-10.97,1.3646,1.8991,1.1279,2.1875,15.5625,40.875,223.0625,-11.25,150.125,0
1776973834.938,11.2911,6.0621,-0.5028,-1.8151,0.3477,1.4682,-69.9,-0.9,11.55,11.4826,-0.5578,2.8491,-1.4346,-1.2673,-1.9508,-71.55,16.2,-7.2,-10.45,1.72,-10.97,1.3646,1.8991,1.1279,2.1875,15.5625,40.875,224.0,-10.8125,149.4375,0
1776973834.943,11.6669,7.5106,0.0168,-1.4778,-0.1386,1.3105,-69.9,-0.9,11.55,12.0644,1.8914,4.1779,-1.1935,-1.2297,-1.4882,-71.55,16.2,-7.2,-5.59,-9.48,-12.31,1.5457,1.6101,1.0559,2.1875,15.5625,40.875,224.0,-10.8125,149.4375,0
1776973834.952,11.6669,7.5106,0.0168,-1.5516,0.1998,1.0802,-70.8,0.75,10.95,11.9231,1.0798,-1.3623,-1.5354,-1.1727,-1.1064,-71.55,16.2,-7.2,-8.07,3.54,-3.28,0.8519,0.769,0.877,2.1875,15.5625,40.875,224.625,-10.6875,149.125,0
1776973834.957,11.2312,8.9519,-0.8308,-1.5516,0.1998,1.0802,-71.7,0.15,15.45,11.9231,1.0798,-1.3623,-1.5354,-1.1727,-1.1064,-71.85,18.15,-9.0,-8.07,3.54,-3.28,0.8519,0.769,0.877,2.1875,15.5625,40.875,225.25,-11.5,149.75,0
1776973834.964,11.0588,9.4451,-0.8428,-1.5087,0.2758,0.9478,-71.7,0.15,15.45,10.7069,1.063,0.7805,-0.652,-1.1431,-0.6885,-70.05,17.7,-8.25,-15.8,6.87,-5.18,-0.9981,-0.9588,1.4355,2.1875,15.5625,40.875,225.5625,-12.75,150.375,0
1776973834.974,10.7404,9.4308,-0.9768,-1.278,0.1471,0.9222,-72.15,0.0,14.55,9.5768,0.7542,0.7422,-0.1783,-0.943,-0.2753,-69.6,19.35,-9.0,-16.08,5.68,-4.44,-1.1486,-1.7682,1.2479,2.1875,15.5625,40.875,225.5625,-12.75,150.375,0
1776973834.978,10.7404,9.4308,-0.9768,-1.278,0.1471,0.9222,-73.65,-0.3,15.3,9.5768,0.7542,0.7422,-0.1783,-0.943,-0.2753,-69.6,19.35,-9.0,-16.08,5.68,-4.44,-1.1486,-1.7682,1.2479,2.1875,15.5625,40.875,225.8125,-14.0,150.875,0
1776973834.984,10.7476,9.3589,-0.4812,-1.1532,0.4842,0.7504,-73.65,-0.3,15.3,8.2145,2.4181,1.2809,0.2883,-0.6936,0.1127,-70.05,18.15,-10.05,-15.19,4.58,-3.41,-0.9316,-2.0889,1.0407,-1.75,18.875,38.5,225.8125,-14.0,150.875,0
1776973834.988,10.7476,9.3589,-0.4812,-1.1532,0.4842,0.7504,-73.65,-0.3,15.3,7.7716,3.1388,-0.328,0.2883,-0.6936,0.1127,-70.05,18.15,-10.05,-15.19,4.58,-3.41,-0.9316,-2.0889,1.0407,-1.75,18.875,38.5,225.8125,-14.0,150.875,0
1776973834.993,11.2264,8.6335,0.1269,-0.8743,0.9534,0.6899,-73.65,-0.3,15.3,7.7716,3.1388,-0.328,0.486,-0.3877,0.1966,-69.75,16.8,-8.4,-5.71,3.72,-7.54,-1.0014,-2.6038,0.9665,-1.75,18.875,38.5,225.875,-15.5625,151.375,0
1776973834.998,11.2264,8.6335,0.1269,-0.8743,0.9534,0.6899,-72.9,-0.75,18.15,7.7716,3.1388,-0.328,0.486,-0.3877,0.1966,-69.75,16.8,-8.4,-5.71,3.72,-7.54,-1.2774,-2.6736,1.141,-1.75,18.875,38.5,226.0625,-17.125,152.0625,0
1776973835.004,11.236,7.6519,-0.7111,-0.4058,0.9254,0.704,-72.9,-0.3,17.1,8.2576,5.5665,0.8164,0.5825,0.2465,-0.1471,-69.6,18.45,-8.25,-9.13,-6.91,-11.69,-1.2774,-2.6736,1.141,-1.75,18.875,38.5,226.1875,-18.6875,152.875,0
1776973835.014,9.1171,7.8578,-2.0159,-0.0248,0.8031,0.6235,-74.4,-0.3,16.35,10.5824,12.1913,0.8811,-0.3432,0.4743,-0.5473,-69.6,18.45,-8.25,-18.67,-24.82,-14.29,-1.5904,-2.5798,1.093,-1.75,18.875,38.5,226.875,-20.0625,154.625,0
1776973835.024,12.0859,9.3709,-3.2154,0.0725,1.5559,0.6371,-74.7,0.3,17.7,14.0683,13.3189,-0.9601,-0.0735,0.6539,-0.4032,-69.6,16.95,-7.2,-10.42,-4.43,-9.37,-2.6584,-1.6995,2.1522,-1.75,18.875,38.5,226.875,-20.0625,154.625,0
1776973835.029,12.0859,9.3709,-3.2154,0.0725,1.5559,0.6371,-74.7,0.3,17.7,18.6891,6.869,-8.1068,1.9244,0.15,0.2193,-69.6,16.95,-7.2,-10.42,-4.43,-9.37,-2.6584,-1.6995,2.1522,-1.75,18.875,38.5,226.875,-20.0625,154.625,0
1776973835.034,15.2894,9.6534,-2.229,-0.2236,1.2156,1.0264,-74.7,0.3,17.7,18.6891,6.869,-8.1068,1.9244,0.15,0.2193,-69.6,16.95,-7.2,-1.53,13.77,-11.94,-2.6736,-0.3567,1.5664,3.6875,17.0625,40.0625,227.4375,-20.625,156.375,0
1776973835.039,15.2894,9.6534,-2.229,-0.6384,1.0685,1.2494,-74.7,0.3,17.7,17.7769,-0.8906,-7.3095,2.9412,-0.74,0.3677,-69.6,16.95,-7.2,-1.53,13.77,-11.94,-2.6736,-0.3567,1.5664,3.6875,17.0625,40.0625,227.6875,-20.9375,157.375,0
1776973835.044,13.3118,5.952,-1.6161,-0.6384,1.0685,1.2494,-73.2,-0.45,19.35,17.7769,-0.8906,-7.3095,2.9412,-0.74,0.3677,-69.6,18.15,-7.95,-3.83,0.09,-12.88,-1.5904,-0.3502,0.7767,3.6875,17.0625,40.0625,227.875,-21.4375,158.0625,0
1776973835.053,13.7619,2.059,-1.9704,-0.554,0.9617,1.1064,-73.8,-1.95,19.35,12.6749,-2.1596,-0.6871,2.9631,-0.7171,0.3627,-69.6,18.15,-7.95,-5.25,-6.76,-9.0,-1.0679,-0.5989,0.733,3.6875,17.0625,40.0625,227.875,-21.4375,158.0625,0
1776973835.063,13.3166,0.9864,-2.15,0.101,1.1072,0.8223,-74.4,-2.25,19.95,8.4803,-2.6935,-0.6225,2.4339,-0.3022,0.4402,-69.45,16.35,-8.4,-5.83,-3.29,-9.48,-0.6687,-0.8323,0.6174,3.6875,17.0625,40.0625,228.0625,-22.0,158.5,0
1776973835.071,12.2224,1.6688,-2.4948,1.1746,0.8764,0.724,-74.4,-2.25,19.95,7.2496,-3.8595,-0.9433,1.291,0.3304,0.3957,-70.8,18.15,-7.95,-6.36,1.42,-11.92,-0.5334,-0.9316,0.5018,3.6875,17.0625,40.0625,228.1875,-22.5625,158.8125,0
1776973835.076,12.2224,1.6688,-2.4948,1.1746,0.8764,0.724,-74.55,-3.45,20.7,8.3534,-3.7972,-0.1245,-0.1484,0.8892,0.3427,-70.8,14.55,-10.05,-6.36,1.42,-11.92,-0.5334,-0.9316,0.5018,3.6875,17.0625,40.0625,228.1875,-22.5625,158.8125,0
1776973835.081,10.2903,2.1644,-2.1811,2.0675,0.4463,0.6009,-74.55,-3.45,20.7,8.3534,-3.7972,-0.1245,-0.1484,0.8892,0.3427,-70.8,14.55,-10.05,-4.54,-3.66,-8.89,-0.2989,-0.6458,0.3,5.375,13.0625,40.375,228.25,-22.9375,159.0,0
1776973835.086,10.2903,2.1644,-2.1811,2.0675,0.4463,0.6009,-73.8,-4.2,19.65,9.7947,-0.7302,0.9242,-1.4373,0.9635,0.2729,-70.8,14.55,-10.05,-4.54,-3.66,-8.89,-0.2989,-0.6458,0.3,5.375,13.0625,40.375,228.25,-22.9375,159.0,0
1776973835.09,8.4132,1.719,-1.743,2.3593,0.4226,0.3906,-73.8,-4.2,19.65,9.7947,-0.7302,0.9242,-1.4373,0.9635,0.2729,-70.8,14.55,-10.05,-3.73,-4.62,-7.86,-0.0535,-0.3251,0.0916,5.375,13.0625,40.375,228.25,-23.125,159.0,0
1776973835.095,8.4132,1.719,-1.743,2.3593,0.4226,0.3906,-73.8,-4.2,19.65,10.5273,3.6703,0.2586,-1.9031,0.9513,0.1823,-71.85,15.0,-10.05,-3.73,-4.62,-7.86,-0.0535,-0.3251,0.0916,5.375,13.0625,40.375,228.3125,-23.3125,159.0,0
1776973835.104,7.9775,1.1157,-1.5179,1.9505,1.0459,0.2534,-73.35,-8.25,18.15,9.9862,7.4915,-0.8021,-1.9031,0.9513,0.1823,-71.85,15.0,-10.05,-3.79,-3.04,-8.38,-0.0305,-0.252,0.0676,5.375,13.0625,40.375,228.3125,-23.4375,159.0625,0
1776973835.114,9.2464,0.5148,-1.5299,1.3137,0.8124,0.1836,-72.6,-9.0,18.45,8.6407,9.1626,-1.4269,-1.3355,0.7698,0.3307,-71.85,15.0,-10.05,-3.67,-4.29,-7.52,-0.0491,-0.2891,0.0905,5.375,13.0625,40.375,228.3125,-23.4375,159.0625,0
1776973835.124,9.5433,-0.51,-0.8643,0.4692,1.2713,0.1359,-72.9,-9.75,15.9,6.4739,8.7077,-0.6009,0.7927,0.0799,0.4978,-70.95,16.35,-7.65,-3.87,-4.33,-7.5,-0.0665,-0.4058,0.1254,5.375,13.0625,40.375,228.3125,-23.6875,159.0625,0
1776973835.128,7.9033,-1.5921,0.3352,-0.1476,0.7663,0.1156,-72.9,-9.75,15.9,6.4739,8.7077,-0.6009,0.7927,0.0799,0.4978,-69.75,16.8,-8.4,-3.87,-4.33,-7.5,-0.0665,-0.4058,0.1254,5.375,13.0625,40.375,228.3125,-23.6875,159.0625,0
1776973835.133,7.9033,-1.5921,0.3352,-0.1476,0.7663,0.1156,-72.75,-9.15,16.5,5.9807,4.4604,0.7901,1.0507,0.2822,0.4359,-69.75,16.8,-8.4,-3.81,-3.82,-7.67,-0.1462,-0.4472,0.1636,6.875,12.75,39.75,228.375,-23.9375,159.125,0
1776973835.138,7.9966,-1.5227,1.4174,-0.3262,0.765,0.1745,-72.75,-9.15,16.5,5.9807,4.4604,0.7901,1.0507,0.2822,0.4359,-70.35,17.7,-8.25,-3.81,-3.82,-7.67,-0.1462,-0.4472,0.1636,6.875,12.75,39.75,228.375,-23.9375,159.125,0
1776973835.143,7.9966,-1.5227,1.4174,-0.3262,0.765,0.1745,-72.75,-9.15,16.5,7.5944,0.7302,-0.1915,1.0291,0.7232,0.4199,-70.35,17.7,-8.25,-3.59,-3.53,-7.66,-0.2476,-0.3894,0.1974,6.875,12.75,39.75,228.375,-24.1875,159.3125,0
1776973835.149,8.1954,-0.3304,1.6759,-0.1719,0.6784,0.2513,-72.75,-9.15,16.5,7.5944,0.7302,-0.1915,1.0291,0.7232,0.4199,-70.95,15.15,-7.35,-3.59,-3.53,-7.66,-0.3371,-0.3403,0.2345,6.875,12.75,39.75,228.4375,-24.4375,159.5,0
1776973835.155,8.1954,-0.3304,1.6759,-0.1719,0.6784,0.2513,-75.45,-8.55,14.25,9.335,-1.1205,0.4693,0.9073,1.0272,0.4253,-72.6,14.55,-7.5,-3.55,-3.76,-7.93,-0.3371,-0.3403,0.2345,6.875,12.75,39.75,228.5,-24.625,159.8125,0
1776973835.164,8.9854,0.34,1.4341,-0.0051,0.4746,0.3621,-75.45,-6.3,10.2,10.8553,-2.1021,0.3496,0.6768,0.6246,0.482,-72.6,14.55,-7.5,-6.4,-2.91,-8.82,-0.432,-0.3545,0.2825,6.875,12.75,39.75,228.5,-24.625,159.8125,0
1776973835.174,10.3238,0.3496,0.7494,0.1588,0.2081,0.4199,-76.05,-7.2,12.15,10.7452,-1.7717,0.1915,0.4253,0.6611,0.4397,-71.85,14.55,-7.2,-4.48,-2.85,-8.67,-0.4636,-0.2738,0.2749,6.875,12.75,39.75,228.5625,-24.875,160.0625,0
1776973835.179,9.9958,0.0838,0.8859,0.1855,-0.1196,0.494,-76.05,-7.2,12.15,10.7452,-1.7717,0.1915,0.4253,0.6611,0.4397,-71.85,14.55,-7.2,-4.48,-2.85,-8.67,-0.4636,-0.2738,0.2749,6.875,12.75,39.75,228.5625,-24.875,160.0625,0
1776973835.184,9.9958,0.0838,0.8859,0.1082,0.1868,0.5303,-76.95,-6.0,12.0,10.2328,-0.3304,1.2785,0.239,0.7168,0.3738,-71.85,14.55,-7.2,-4.71,-2.26,-8.85,-0.36,-0.1156,0.1942,8.0,12.25,39.0,228.625,-24.9375,160.3125,0
1776973835.189,9.9455,-0.0599,1.6233,0.1082,0.1868,0.5303,-76.95,-6.0,12.0,10.2328,-0.3304,1.2785,0.239,0.7168,0.3738,-71.85,12.3,-6.75,-4.71,-2.26,-8.85,-0.36,-0.1156,0.1942,8.0,12.25,39.0,228.625,-24.9375,160.3125,0
1776973835.194,9.979,-0.3687,1.8459,-0.101,0.4541,0.5271,-76.95,-6.0,12.0,9.9599,0.7542,2.3248,0.2254,0.8266,0.2771,-71.85,12.3,-6.75,-4.77,-2.01,-8.91,-0.36,-0.1156,0.1942,8.0,12.25,39.0,228.6875,-25.0625,160.5625,0
1776973835.199,9.979,-0.3687,1.8459,-0.101,0.4541,0.5271,-76.95,-6.0,12.0,9.9599,0.7542,2.3248,0.2254,0.8266,0.2771,-72.6,14.55,-7.2,-4.77,-2.01,-8.91,-0.2869,-0.144,0.1385,8.0,12.25,39.0,228.75,-25.125,160.75,0
1776973835.205,10.5417,-0.0287,2.5642,-0.3459,0.3842,0.4796,-76.95,-6.0,12.0,10.2975,2.1859,2.399,0.3277,0.7293,0.2646,-71.7,14.4,-7.2,-4.57,-2.29,-8.74,-0.2869,-0.144,0.1385,8.0,12.25,39.0,228.75,-25.25,160.8125,0
1776973835.214,9.9383,0.4884,3.0909,-0.4399,0.1982,0.3909,-77.7,-7.05,8.55,10.3286,2.5618,2.8922,0.352,0.6059,0.2659,-71.7,14.4,-6.6,-4.51,-2.64,-8.72,-0.1724,-0.1931,0.0796,8.0,12.25,39.0,228.75,-25.25,160.8125,0
1776973835.224,9.1842,1.0199,3.5961,-0.3952,0.1964,0.2886,-77.25,-8.25,7.05,9.9527,1.8244,3.8283,0.4466,0.3331,0.2721,-71.7,13.65,-7.35,-4.67,-2.53,-8.55,-0.1385,-0.2236,0.0698,8.0,12.25,39.0,228.75,-25.375,160.9375,0
1776973835.229,9.1842,1.0199,3.5961,-0.3952,0.1964,0.2886,-77.25,-8.25,7.05,9.6654,1.0846,3.0454,0.4466,0.3331,0.2721,-73.05,13.8,-5.7,-4.67,-2.53,-8.55,-0.1385,-0.2236,0.0698,8.0,12.25,39.0,228.75,-25.5,161.0,0
1776973835.234,8.6431,1.1708,4.0462,-0.3317,0.3917,0.2204,-76.65,-8.55,8.1,9.6654,1.0846,3.0454,0.3006,0.182,0.2486,-73.05,13.8,-5.7,-4.28,-2.87,-8.48,-0.1244,-0.1996,0.06,9.0625,12.25,41.25,228.75,-25.5,161.0,0
1776973835.239,8.6431,1.1708,4.0462,-0.3317,0.3917,0.2204,-76.65,-8.55,8.1,9.6367,-0.249,2.7725,0.0749,0.2289,0.2388,-73.2,13.65,-5.85,-4.28,-2.87,-8.48,-0.1244,-0.1996,0.06,9.0625,12.25,41.25,228.75,-25.625,161.0625,0
1776973835.244,8.9471,1.1636,4.4293,-0.2864,0.5979,0.1929,-75.6,-8.7,8.7,9.6367,-0.249,2.7725,0.0749,0.2289,0.2388,-73.2,13.65,-5.85,-4.72,-2.96,-8.3,-0.1331,-0.1658,0.0644,9.0625,12.25,41.25,228.75,-25.625,161.0625,0
1776973835.25,8.9471,1.1636,4.4293,-0.2864,0.5979,0.1929,-75.6,-8.7,8.7,9.9407,-0.7661,1.913,-0.1791,0.1863,0.2579,-73.2,13.65,-5.85,-4.61,-2.73,-8.43,-0.1538,-0.1036,0.06,9.0625,12.25,41.25,228.75,-25.6875,161.125,0
1776973835.255,9.6438,1.1372,4.8028,-0.1005,0.7016,0.2153,-75.6,-8.7,8.7,9.9407,-0.7661,1.913,-0.1791,0.1863,0.2579,-73.2,13.65,-5.85,-4.61,-2.73,-8.43,-0.1538,-0.1036,0.06,9.0625,12.25,41.25,228.75,-25.6875,161.25,0
1776973835.264,9.8545,1.2306,4.7166,0.0759,0.6091,0.2494,-78.15,-7.95,10.8,9.6486,0.5028,1.482,-0.457,0.2113,0.2419,-71.7,12.45,-5.55,-4.62,-2.5,-8.5,-0.1571,-0.0524,0.0545,9.0625,12.25,41.25,228.75,-25.6875,161.25,0
1776973835.274,9.7276,1.5706,4.0749,0.2819,0.461,0.2598,-77.85,-5.7,13.35,9.4523,2.2913,1.2234,-0.571,0.2984,0.2654,-71.7,12.45,-5.55,-4.51,-2.42,-8.61,-0.1342,-0.0338,0.0393,9.0625,12.25,41.25,228.75,-25.75,161.3125,0
1776973835.279,9.7276,1.5706,4.0749,0.2819,0.461,0.2598,-77.85,-5.7,13.35,9.5984,3.3878,1.2857,-0.4549,0.3488,0.2771,-73.65,13.2,-4.35,-4.51,-2.42,-8.61,-0.1342,-0.0338,0.0393,9.0625,12.25,41.25,228.75,-25.75,161.3125,0
1776973835.284,9.4691,1.403,3.4453,0.3376,0.4202,0.2292,-78.15,-4.95,13.65,9.5984,3.3878,1.2857,-0.4549,0.3488,0.2771,-73.65,13.2,-4.35,-4.52,-2.45,-8.63,-0.0938,-0.0316,0.0295,9.5,11.5,40.0625,228.75,-25.75,161.375,0
1776973835.289,9.4691,1.403,3.4453,0.3376,0.4202,0.2292,-78.15,-4.95,13.65,9.7803,3.2106,1.9417,-0.2478,0.3062,0.3115,-72.3,12.6,-4.95,-4.52,-2.45,-8.63,-0.0938,-0.0316,0.0295,9.5,11.5,40.0625,228.75,-25.75,161.375,0
1776973835.294,9.5409,1.415,2.6647,0.2611,0.4141,0.1793,-77.55,-3.45,14.7,9.7803,3.2106,1.9417,-0.2478,0.3062,0.3115,-72.3,12.6,-4.95,-4.55,-2.43,-8.6,-0.0513,-0.0393,0.0218,9.5,11.5,40.0625,228.75,-25.75,161.4375,0
1776973835.299,9.5409,1.415,2.6647,0.2611,0.4141,0.1793,-77.55,-3.45,14.7,9.8138,2.5762,1.9297,-0.1463,0.1871,0.3232,-73.2,12.45,-4.8,-4.55,-2.43,-8.6,-0.0295,-0.0415,0.0196,9.5,11.5,40.0625,228.75,-25.8125,161.4375,0
1776973835.305,9.5217,1.3096,2.162,0.222,0.3363,0.1026,-77.55,-3.45,14.7,9.8138,2.5762,1.9297,-0.1463,0.1871,0.3232,-73.2,12.45,-4.8,-4.41,-2.64,-8.49,-0.0295,-0.0415,0.0196,9.5,11.5,40.0625,228.75,-25.8125,161.4375,0
1776973835.314,9.2871,1.3886,1.6017,0.0773,0.3126,0.0549,-78.6,-3.15,18.3,9.5217,1.7238,1.64,-0.2438,0.149,0.3549,-72.3,13.5,-5.25,-4.41,-2.78,-8.38,-0.0229,-0.0545,0.024,9.5,11.5,40.0625,228.75,-25.8125,161.4375,0
1776973835.321,9.2751,1.7023,1.3886,-0.1186,0.3762,0.0059,-80.55,-3.0,19.2,9.414,1.1157,1.7071,-0.3552,0.1729,0.3952,-72.3,13.5,-5.25,-4.46,-2.74,-8.32,-0.0207,-0.0578,0.0262,9.5,11.5,40.0625,228.75,-25.875,161.4375,0
1776973835.326,9.2751,1.7023,1.3886,-0.1186,0.3762,0.0059,-80.55,-3.0,19.2,9.6798,0.8859,1.7071,-0.5734,0.1761,0.3968,-72.3,13.5,-5.25,-4.46,-2.74,-8.32,-0.0207,-0.0578,0.0262,9.5,11.5,40.0625,228.75,-25.875,161.4375,0
1776973835.33,9.5553,1.7549,1.3408,-0.1974,0.4072,-0.0163,-78.0,-3.3,19.95,9.6798,0.8859,1.7071,-0.5734,0.1761,0.3968,-73.95,11.7,-4.8,-4.42,-2.75,-8.31,-0.0295,-0.0556,0.0262,8.6875,11.875,41.5625,228.75,-25.9375,161.5,0
1776973835.335,9.5553,1.7549,1.3408,-0.1974,0.4072,-0.0163,-78.0,-3.3,19.95,9.6822,1.0965,1.4461,-0.671,0.166,0.3941,-73.95,11.7,-4.8,-4.42,-2.75,-8.31,-0.0295,-0.0556,0.0262,8.6875,11.875,41.5625,228.75,-25.9375,161.5,0
1776973835.34,9.584,1.2857,1.3671,-0.3355,0.393,-0.0461,-77.7,-4.5,20.55,9.6822,1.0965,1.4461,-0.671,0.166,0.3941,-73.95,11.7,-4.8,-4.42,-2.75,-8.31,-0.0404,-0.0513,0.0327,8.6875,11.875,41.5625,228.8125,-25.9375,161.5,0
1776973835.345,9.584,1.2857,1.3671,-0.3355,0.393,-0.0461,-77.7,-4.5,20.55,9.5672,1.4317,1.1684,-0.6763,0.1804,0.4016,-73.95,11.7,-4.8,-4.49,-2.65,-8.31,-0.0404,-0.0513,0.0327,8.6875,11.875,41.5625,228.8125,-25.9375,161.5,0
1776973835.35,9.2823,0.6823,1.7382,-0.4642,0.3214,-0.0488,-77.7,-6.0,19.5,9.5672,1.4317,1.1684,-0.6763,0.1804,0.4016,-74.1,13.05,-4.95,-4.49,-2.65,-8.31,-0.0436,-0.0447,0.0262,8.6875,11.875,41.5625,228.8125,-26.0,161.5625,0
1776973835.355,9.2823,0.6823,1.7382,-0.4642,0.3214,-0.0488,-77.7,-6.0,19.5,9.4906,1.9465,0.7398,-0.6632,0.1745,0.3914,-74.1,13.05,-4.95,-4.45,-2.61,-8.28,-0.0436,-0.0447,0.0262,8.6875,11.875,41.5625,228.8125,-26.0,161.5625,0
1776973835.364,9.4355,0.4405,1.8938,-0.5617,0.3451,-0.052,-77.7,-6.0,19.5,9.232,1.8124,0.838,-0.5931,0.1721,0.3981,-75.45,12.45,-4.05,-4.31,-2.59,-8.34,-0.0393,-0.0436,0.0185,8.6875,11.875,41.5625,228.8125,-26.0,161.5625,0
1776973835.369,9.7444,0.7063,1.2234,-0.6702,0.288,-0.0544,-77.1,-9.45,19.35,9.232,1.8124,0.838,-0.5931,0.1721,0.3981,-73.05,11.4,-5.7,-4.31,-2.59,-8.34,-0.036,-0.0491,0.0131,8.6875,11.875,41.5625,228.8125,-26.0625,161.625,0
1776973835.375,9.7444,0.7063,1.2234,-0.6702,0.288,-0.0544,-77.1,-9.45,19.35,9.0477,1.5155,0.9529,-0.497,0.1833,0.3962,-73.05,11.4,-5.7,-4.5,-2.6,-8.3,-0.036,-0.0491,0.0131,8.6875,11.875,41.5625,228.8125,-26.0625,161.625,0
1776973835.38,9.5696,0.7159,0.9313,-0.7541,0.1998,-0.0701,-77.55,-9.45,17.55,9.0477,1.5155,0.9529,-0.497,0.1833,0.3962,-71.7,11.25,-5.55,-4.5,-2.6,-8.3,-0.0371,-0.0415,0.0065,8.6875,10.75,38.875,229.6875,-26.0625,161.625,0
1776973835.385,9.5696,0.7159,0.9313,-0.7541,0.1998,-0.0701,-77.55,-9.45,17.55,9.1722,1.1875,1.2546,-0.49,0.2132,0.4146,-71.7,11.25,-5.55,-4.48,-2.58,-8.29,-0.0371,-0.0415,0.0065,8.6875,10.75,38.875,229.6875,-26.0625,161.625,0
1776973835.39,9.3901,0.7398,0.9146,-0.8164,0.2675,-0.0759,-76.8,-8.7,16.5,9.1722,1.1875,1.2546,-0.49,0.2132,0.4146,-73.35,12.3,-3.75,-4.48,-2.61,-8.25,-0.0447,-0.0251,0.0011,8.6875,10.75,38.875,229.6875,-26.125,161.625,0
1776973835.395,9.3901,0.7398,0.9146,-0.8164,0.2675,-0.0759,-76.8,-8.7,16.5,9.3972,0.7709,1.2426,-0.5247,0.2094,0.4199,-73.35,12.3,-3.75,-4.48,-2.61,-8.25,-0.0447,-0.0251,0.0011,8.6875,10.75,38.875,229.6875,-26.125,161.625,0
1776973835.4,9.3494,0.7661,0.9409,-0.8074,0.2284,-0.0791,-76.65,-9.0,15.6,9.3972,0.7709,1.2426,-0.5247,0.2094,0.4199,-73.05,12.3,-4.95,-4.48,-2.61,-8.25,-0.0524,-0.0065,-0.0055,8.6875,10.75,38.875,229.6875,-26.125,161.6875,0
1776973835.405,9.3494,0.7661,0.9409,-0.8074,0.2284,-0.0791,-76.65,-9.0,15.6,9.4691,0.6752,1.4868,-0.5132,0.2302,0.4133,-73.05,12.3,-4.95,-4.45,-2.64,-8.29,-0.0524,-0.0065,-0.0055,8.6875,10.75,38.875,229.6875,-26.125,161.6875,0
1776973835.414,9.414,0.7757,1.1301,-0.8132,0.1703,-0.0594,-76.65,-9.0,15.6,9.7468,0.8595,1.5203,-0.5095,0.2241,0.3938,-73.05,12.3,-4.95,-4.35,-2.66,-8.22,-0.0535,-0.0055,-0.0055,8.6875,10.75,38.875,229.6875,-26.125,161.6875,0
1776973835.424,9.6007,0.5626,1.3455,-0.8833,-0.0013,0.0013,-75.45,-9.0,13.05,9.9216,0.6345,1.2546,-0.5316,0.226,0.3946,-74.1,12.3,-4.5,-4.27,-2.66,-8.36,-0.0436,-0.0196,-0.0022,8.6875,10.75,38.875,229.6875,-26.125,161.75,0
1776973835.429,9.6678,0.4764,1.8292,-0.8972,-0.0616,0.0282,-78.0,-10.05,12.75,9.9216,0.6345,1.2546,-0.5316,0.226,0.3946,-74.1,11.4,-4.2,-4.27,-2.66,-8.36,-0.0436,-0.0196,-0.0022,8.6875,10.75,38.875,230.5,-26.125,161.75,0
1776973835.434,9.6678,0.4764,1.8292,-0.8972,-0.0616,0.0282,-78.0,-10.05,12.75,9.7564,0.486,1.0439,-0.4639,0.1908,0.4013,-74.1,11.4,-4.2,-4.45,-2.63,-8.3,-0.0229,-0.0425,0.0,9.0625,10.5,40.375,230.5,-26.125,161.75,0
1776973835.439,9.4188,0.5555,2.2625,-0.9166,-0.0989,0.0554,-77.1,-9.9,12.6,9.7564,0.486,1.0439,-0.4639,0.1908,0.4013,-74.55,9.45,-3.45,-4.45,-2.63,-8.3,-0.0229,-0.0425,0.0,9.0625,10.5,40.375,230.5,-26.1875,161.75,0
1776973835.444,9.4188,0.5555,2.2625,-0.9166,-0.0989,0.0554,-77.1,-9.9,12.6,9.5912,0.1891,1.2186,-0.5955,0.2132,0.408,-74.55,9.45,-3.45,-4.57,-2.52,-8.31,-0.024,-0.0393,0.0044,9.0625,10.5,40.375,230.5,-26.1875,161.75,0
1776973835.449,9.3829,0.7494,2.4421,-0.8777,0.0679,0.0743,-75.6,-8.7,11.55,9.5912,0.1891,1.2186,-0.5955,0.2132,0.408,-73.95,10.05,-2.85,-4.57,-2.52,-8.31,-0.0327,-0.0011,0.0011,9.0625,10.5,40.375,230.5,-26.1875,161.8125,0
1776973835.455,9.4092,0.7183,2.569,-0.9883,0.1183,0.1074,-75.6,-8.7,11.55,9.5193,0.2562,1.506,-0.5905,0.198,0.3832,-73.95,10.05,-2.85,-4.42,-2.61,-8.39,-0.0327,-0.0011,0.0011,9.0625,10.5,40.375,230.5,-26.1875,161.8125,0
1776973835.464,9.4092,0.7183,2.569,-0.9721,0.0269,0.1279,-76.05,-10.65,10.8,9.4763,0.4717,1.7071,-0.5199,0.1812,0.3869,-74.7,11.25,-1.35,-4.52,-2.59,-8.3,-0.0185,-0.0131,0.0044,9.0625,10.5,40.375,230.5,-26.1875,161.8125,0
1776973835.471,9.2536,0.9625,2.7366,-0.9721,0.0269,0.1279,-76.05,-10.65,10.8,9.4619,0.7638,1.6999,-0.4687,0.1719,0.3848,-73.8,9.9,-3.0,-4.55,-2.52,-8.3,-0.0338,-0.0153,0.0033,9.0625,10.5,40.375,230.5,-26.1875,161.8125,0
1776973835.476,9.1219,1.2067,2.4277,-0.9361,-0.0349,0.1609,-76.05,-10.65,10.8,9.4619,0.7638,1.6999,-0.4687,0.1719,0.3848,-73.8,9.9,-3.0,-4.55,-2.52,-8.3,-0.0338,-0.0153,0.0033,9.0625,10.5,40.375,230.5,-26.1875,161.8125,0
1776973835.481,9.1219,1.2067,2.4277,-0.9361,-0.0349,0.1609,-76.95,-9.0,13.05,9.4882,0.9098,1.5203,-0.4317,0.1721,0.3898,-73.8,9.9,-3.0,-4.56,-2.6,-8.33,-0.0273,-0.0087,0.0055,9.0625,10.75,40.75,231.375,-26.25,161.875,0
1776973835.485,9.0405,1.3168,2.0853,-0.9286,-0.0376,0.2054,-76.95,-9.0,13.05,9.4882,0.9098,1.5203,-0.4317,0.1721,0.3898,-73.8,9.9,-3.0,-4.56,-2.6,-8.33,-0.0273,-0.0087,0.0055,9.0625,10.75,40.75,231.375,-26.25,161.875,0
1776973835.49,9.0405,1.3168,2.0853,-0.9286,-0.0376,0.2054,-77.25,-9.75,14.25,9.4236,0.7518,1.4892,-0.3464,0.1474,0.3949,-72.6,10.35,-3.0,-4.62,-2.68,-8.23,-0.024,-0.0087,0.0022,9.0625,10.75,40.75,231.375,-26.25,161.875,0
1776973835.495,9.0118,1.5251,1.64,-0.9121,0.0208,0.2268,-78.45,-9.75,14.25,9.4236,0.7518,1.4892,-0.3464,0.1474,0.3949,-72.6,10.35,-3.0,-4.62,-2.68,-8.23,-0.024,-0.0087,0.0022,9.0625,10.75,40.75,231.375,-26.25,161.875,0
1776973835.5,9.0118,1.5251,1.64,-0.9121,0.0208,0.2268,-78.45,-10.5,13.8,9.244,0.5052,1.1612,-0.2979,0.1577,0.401,-72.6,10.35,-3.0,-4.62,-2.68,-8.23,-0.0295,0.0044,0.0022,9.0625,10.75,40.75,231.375,-26.25,161.875,0
1776973835.505,9.8641,1.6568,1.2115,-0.8513,0.1516,0.2486,-78.6,-9.15,12.9,9.244,0.5052,1.1612,-0.2979,0.1577,0.401,-72.6,10.35,-3.0,-4.6,-2.61,-8.28,-0.0295,0.0044,0.0022,9.0625,10.75,40.75,231.375,-26.25,161.9375,0
1776973835.514,9.3613,1.8052,1.3647,-0.6683,0.052,0.2435,-78.6,-9.15,12.9,9.323,0.2658,1.1636,-0.3019,0.223,0.4186,-74.1,9.15,-4.2,-4.48,-2.67,-8.3,-0.0393,0.0218,-0.0011,9.0625,10.75,40.75,231.375,-26.25,161.9375,0
1776973835.521,9.3613,1.8052,1.3647,-0.6683,0.052,0.2435,-78.6,-9.15,12.9,9.6127,0.4166,1.1349,-0.3352,0.2665,0.4114,-73.8,9.15,-1.65,-4.46,-2.68,-8.32,-0.0567,0.036,-0.0065,9.0625,10.75,40.75,231.375,-26.25,161.9375,0
1776973835.526,9.8928,1.9273,1.2306,-0.5804,0.3595,0.2422,-77.7,-9.3,14.85,9.6127,0.4166,1.1349,-0.3352,0.2665,0.4114,-73.8,9.15,-1.65,-4.46,-2.68,-8.32,-0.0567,0.036,-0.0065,9.0625,10.75,40.75,231.375,-26.25,161.9375,0
1776973835.531,9.8928,1.9273,1.2306,-0.5804,0.3595,0.2422,-77.7,-9.3,14.85,9.7516,0.6943,1.2091,-0.2886,0.2705,0.3914,-73.05,8.4,-3.0,-4.46,-2.68,-8.32,-0.0567,0.036,-0.0065,9.5,10.5,40.375,232.1875,-26.25,162.0,0
1776973835.535,9.3805,2.0159,1.4006,-0.4077,0.182,0.2358,-77.25,-9.0,14.85,9.7516,0.6943,1.2091,-0.2886,0.2705,0.3914,-73.05,8.4,-3.0,-4.46,-2.68,-8.34,-0.06,0.0273,-0.0044,9.5,10.5,40.375,232.1875,-26.25,162.0,0
1776973835.54,9.3805,2.0159,1.4006,-0.4077,0.182,0.2358,-77.25,-9.0,14.85,9.7899,0.6656,1.5227,-0.223,0.2942,0.3978,-73.05,9.15,-3.0,-4.46,-2.68,-8.34,-0.06,0.0273,-0.0044,9.5,10.5,40.375,232.1875,-26.25,162.0,0
1776973835.545,9.3111,2.0925,1.5921,-0.323,0.2883,0.2172,-77.55,-10.2,15.75,9.7612,0.5459,1.1133,-0.223,0.2942,0.3978,-73.05,9.15,-3.0,-4.42,-2.6,-8.4,-0.0545,0.0185,-0.0011,9.5,10.5,40.375,232.1875,-26.25,162.0,0
1776973835.55,9.3111,2.0925,1.5921,-0.323,0.2883,0.2172,-77.55,-10.2,15.75,9.7612,0.5459,1.1133,-0.1972,0.2753,0.401,-73.05,9.15,-3.0,-4.42,-2.6,-8.4,-0.0425,0.0,0.0,9.5,10.5,40.375,232.1875,-26.25,162.0625,0
1776973835.555,9.3948,2.0016,1.5371,-0.255,0.3555,0.1974,-77.7,-9.75,15.3,9.4571,0.3639,1.5395,-0.1972,0.2753,0.401,-73.05,9.15,-3.0,-4.46,-2.62,-8.41,-0.0425,0.0,0.0,9.5,10.5,40.375,232.125,-26.25,162.0625,0
1776973835.565,9.347,1.8052,1.5897,-0.2052,0.4159,0.1839,-77.7,-9.75,15.3,9.2296,0.4836,1.6568,-0.1689,0.2577,0.3896,-74.1,9.45,-3.0,-4.45,-2.6,-8.38,-0.0393,-0.0055,0.0044,9.5,10.5,40.375,232.125,-26.25,162.0625,0
1776973835.572,8.6335,1.5131,1.8723,-0.1871,0.551,0.1751,-77.7,-9.75,15.3,9.2296,0.4836,1.6568,-0.2089,0.2819,0.4032,-74.1,9.45,-3.0,-4.52,-2.55,-8.36,-0.0382,-0.0087,0.0033,9.5,10.5,40.375,232.125,-26.25,162.125,0
1776973835.577,8.6335,1.5131,1.8723,-0.1871,0.551,0.1751,-77.7,-9.75,15.3,9.2656,0.7422,1.7166,-0.2276,0.2931,0.404,-74.1,9.45,-3.0,-4.52,-2.55,-8.36,-0.0382,-0.0087,0.0033,9.5,10.5,40.375,232.125,-26.25,162.125,0
1776973835.582,9.493,1.2546,1.7214,-0.1095,0.3824,0.1799,-77.7,-9.75,15.3,9.2656,0.7422,1.7166,-0.2276,0.2931,0.404,-74.85,8.7,-3.0,-4.46,-2.66,-8.34,-0.0425,-0.0076,0.0033,9.875,10.0625,40.375,232.8125,-26.25,162.125,0
1776973835.587,9.493,1.2546,1.7214,-0.1095,0.3824,0.1799,-77.1,-9.15,15.0,9.584,0.8021,1.5443,-0.267,0.2958,0.4101,-74.85,8.7,-3.0,-4.46,-2.66,-8.34,-0.0425,-0.0076,0.0033,9.875,10.0625,40.375,232.8125,-26.25,162.125,0
1776973835.591,9.2703,0.9122,1.9465,-0.0751,0.3437,0.1905,-77.1,-9.15,15.0,9.584,0.8021,1.5443,-0.267,0.2958,0.4101,-73.8,7.5,-2.4,-4.43,-2.71,-8.33,-0.0371,-0.012,0.0044,9.875,10.0625,40.375,232.8125,-26.25,162.125,0
1776973835.596,9.2703,0.9122,1.9465,-0.0751,0.3437,0.1905,-77.55,-10.2,15.0,9.6941,0.328,1.7071,-0.2777,0.2867,0.404,-73.8,7.5,-2.4,-4.43,-2.71,-8.33,-0.0371,-0.012,0.0044,9.875,10.0625,40.375,232.8125,-26.25,162.125,0
1776973835.601,10.0963,0.7805,1.8579,-0.1476,0.5329,0.2054,-77.55,-10.2,15.0,9.6941,0.328,1.7071,-0.2777,0.2867,0.404,-72.9,7.8,-0.6,-4.45,-2.67,-8.33,-0.0218,0.0,0.0076,9.875,10.0625,40.375,232.8125,-26.25,162.1875,0
1776973835.606,10.0963,0.7805,1.8579,-0.1476,0.5329,0.2054,-77.25,-8.55,14.55,9.6989,0.2442,1.6759,-0.3499,0.3094,0.4181,-72.9,7.8,-0.6,-4.45,-2.67,-8.33,-0.0218,0.0,0.0076,9.875,10.0625,40.375,232.8125,-26.25,162.1875,0
1776973835.615,9.4164,0.7278,2.2745,-0.1039,0.2955,0.2124,-76.95,-9.75,16.65,9.7372,0.1724,1.5155,-0.364,0.2918,0.4423,-73.65,9.0,-1.05,-4.41,-2.63,-8.38,-0.0185,-0.0033,0.0109,9.875,10.0625,40.375,232.8125,-26.25,162.1875,0
1776973835.622,9.3565,0.6297,2.3391,-0.1937,0.2737,0.2246,-76.95,-9.75,16.65,9.7372,0.1724,1.5155,-0.364,0.2918,0.4423,-73.8,7.95,-1.95,-4.46,-2.61,-8.31,-0.0131,-0.0098,0.0153,9.875,10.0625,40.375,232.8125,-26.25,162.1875,0
1776973835.627,9.3565,0.6297,2.3391,-0.1937,0.2737,0.2246,-76.95,-9.75,16.65,9.596,0.2849,2.217,-0.3317,0.2952,0.4466,-73.8,7.95,-1.95,-4.46,-2.61,-8.31,-0.0131,-0.0098,0.0153,9.875,10.0625,40.375,232.8125,-26.25,162.1875,0
1776973835.632,9.4332,0.6129,2.5881,-0.307,0.303,0.2326,-76.95,-9.75,16.65,9.6941,0.4573,2.0446,-0.3317,0.2952,0.4466,-74.4,7.8,-1.8,-4.44,-2.64,-8.32,-0.012,-0.0076,0.0175,9.5,11.1875,40.75,233.75,-26.25,162.1875,0
1776973835.637,9.4332,0.6129,2.5881,-0.307,0.303,0.2326,-76.95,-11.25,14.85,9.6941,0.4573,2.0446,-0.2896,0.3171,0.4485,-74.4,7.8,-1.8,-4.44,-2.64,-8.32,-0.012,-0.0076,0.0175,9.5,11.1875,40.75,233.75,-26.25,162.1875,0
1776973835.645,9.5313,0.51,2.6695,-0.408,0.32,0.2409,-76.2,-10.05,16.65,9.8689,0.2825,1.8771,-0.206,0.2982,0.458,-74.4,7.8,-1.8,-4.45,-2.57,-8.4,-0.0142,-0.0131,0.0207,9.5,11.1875,40.75,233.75,-26.25,162.1875,0
1776973835.655,9.3613,0.5052,2.5163,-0.5175,0.3331,0.2545,-77.25,-10.5,17.7,9.5768,-0.1006,1.8435,-0.2145,0.2566,0.4772,-74.1,6.45,-1.95,-4.48,-2.52,-8.37,-0.0076,-0.0175,0.0229,9.5,11.1875,40.75,233.75,-26.3125,162.1875,0
1776973835.661,9.4379,0.5387,2.2314,-0.6273,0.3688,0.2705,-77.25,-10.5,17.7,9.2656,0.0383,1.5299,-0.2145,0.2566,0.4772,-74.85,6.45,-0.15,-4.46,-2.56,-8.38,-0.0033,-0.0218,0.0262,9.5,11.1875,40.75,233.75,-26.3125,162.25,0
1776973835.666,9.4379,0.5387,2.2314,-0.6273,0.3688,0.2705,-78.0,-10.05,17.1,9.2656,0.0383,1.5299,-0.2566,0.2649,0.4847,-74.85,6.45,-0.15,-4.46,-2.56,-8.38,-0.0033,-0.0218,0.0262,9.5,11.1875,40.75,233.75,-26.3125,162.25,0
1776973835.675,9.4403,0.7614,1.8316,-0.6835,0.3635,0.2814,-78.0,-10.05,17.1,9.2057,0.4381,1.5299,-0.3262,0.3128,0.5095,-75.45,6.15,-0.6,-4.53,-2.58,-8.34,0.0033,-0.0218,0.0251,9.5,11.1875,40.75,233.75,-26.3125,162.25,0
1776973835.68,9.4308,0.9481,1.5993,-0.6664,0.3307,0.2702,-78.0,-10.05,17.1,9.3733,0.8021,1.8818,-0.3262,0.3128,0.5095,-74.1,5.55,-0.6,-4.53,-2.58,-8.34,0.0033,-0.0218,0.0251,9.5,11.1875,40.75,234.5,-26.375,162.25,0
1776973835.685,9.4308,0.9481,1.5993,-0.6664,0.3307,0.2702,-76.95,-10.8,18.15,9.3733,0.8021,1.8818,-0.3869,0.3667,0.526,-74.1,5.55,-0.15,-4.47,-2.55,-8.36,0.0044,-0.0175,0.0251,9.875,10.5,39.6875,234.5,-26.375,162.25,0
1776973835.69,9.5624,1.1708,1.5969,-0.6627,0.2649,0.2491,-76.95,-10.8,18.15,9.7755,1.0104,1.8723,-0.3869,0.3667,0.526,-73.8,5.55,0.45,-4.47,-2.55,-8.36,0.0044,-0.0175,0.0251,9.875,10.5,39.6875,234.5,-26.375,162.25,0
1776973835.695,9.5624,1.1708,1.5969,-0.6627,0.2649,0.2491,-76.8,-13.65,18.3,9.7755,1.0104,1.8723,-0.3789,0.3832,0.5415,-73.8,5.55,0.45,-4.41,-2.67,-8.33,-0.0011,-0.0218,0.0284,9.875,10.5,39.6875,234.5,-26.375,162.25,0
1776973835.7,9.596,1.336,1.8771,-0.6899,0.1927,0.2332,-76.8,-13.65,18.3,10.1035,0.2658,2.0423,-0.3789,0.3832,0.5415,-73.8,5.55,0.45,-4.41,-2.67,-8.33,0.0011,-0.0207,0.0295,9.875,10.5,39.6875,234.5625,-26.375,162.25,0
1776973835.706,9.596,1.336,1.8771,-0.6899,0.1927,0.2332,-77.55,-11.4,18.3,10.1035,0.2658,2.0423,-0.3035,0.3357,0.5521,-74.55,5.55,-0.45,-4.41,-2.7,-8.45,0.0011,-0.0207,0.0295,9.875,10.5,39.6875,234.5625,-26.375,162.25,0
1776973835.715,9.5122,1.1133,2.3056,-0.7674,0.1769,0.2121,-77.55,-11.7,19.05,9.9264,-0.419,1.9249,-0.2521,0.3003,0.5734,-74.55,5.55,-0.45,-4.45,-2.61,-8.46,0.0196,-0.0175,0.0371,9.875,10.5,39.6875,234.5625,-26.375,162.25,0
1776973835.72,9.3948,0.8547,2.7102,-0.8029,0.1681,0.2076,-77.55,-11.7,19.05,9.6151,-0.5555,1.3144,-0.2393,0.2998,0.5979,-73.8,7.5,-0.45,-4.45,-2.61,-8.46,0.0404,-0.0371,0.0393,9.875,10.5,39.6875,234.5625,-26.4375,162.25,0
1776973835.726,9.4403,0.656,2.8323,-0.7837,0.1601,0.199,-76.95,-12.3,17.4,9.6151,-0.5555,1.3144,-0.2393,0.2998,0.5979,-73.8,7.5,-0.45,-4.5,-2.52,-8.42,0.0404,-0.0371,0.0393,9.875,10.5,39.6875,234.5625,-26.4375,162.25,0
1776973835.731,9.4403,0.656,2.8323,-0.7837,0.1601,0.199,-76.95,-12.3,17.4,9.2823,-0.0958,1.506,-0.2793,0.3254,0.6035,-73.8,7.5,-0.45,-4.47,-2.43,-8.48,0.0611,-0.0436,0.0404,8.6875,10.75,40.0625,235.5,-26.4375,162.25,0
1776973835.736,9.5313,0.6177,2.6983,-0.7131,0.1383,0.1895,-76.95,-12.3,17.4,9.2823,-0.0958,1.506,-0.2793,0.3254,0.6035,-73.8,7.5,-0.45,-4.47,-2.43,-8.48,0.0611,-0.0436,0.0404,8.6875,10.75,40.0625,235.5,-26.4375,162.25,0
1776973835.741,9.5313,0.6177,2.6983,-0.7131,0.1383,0.1895,-76.95,-12.3,17.4,9.1698,0.17,1.6257,-0.2675,0.3621,0.6041,-74.1,4.5,0.45,-4.47,-2.43,-8.48,0.0731,-0.0676,0.0404,8.6875,10.75,40.0625,235.5,-26.5,162.1875,0
1776973835.746,9.56,0.723,2.4086,-0.6054,0.1106,0.1772,-76.8,-12.45,18.6,9.1698,0.17,1.6257,-0.2675,0.3621,0.6041,-74.1,4.5,0.45,-4.45,-2.49,-8.46,0.0731,-0.0676,0.0404,8.6875,10.75,40.0625,235.5,-26.5,162.1875,0
1776973835.751,9.56,0.723,2.4086,-0.6054,0.1106,0.1772,-76.8,-12.45,18.6,9.3925,0.1197,2.1811,-0.2427,0.4205,0.6185,-74.1,4.5,0.45,-4.45,-2.49,-8.46,0.084,-0.084,0.0393,8.6875,10.75,40.0625,235.5625,-26.5625,162.1875,0
1776973835.756,9.8545,0.9529,2.1715,-0.5561,0.1895,0.162,-76.2,-11.25,19.5,9.3925,0.1197,2.1811,-0.2427,0.4205,0.6185,-74.4,3.9,0.3,-4.45,-2.52,-8.45,0.084,-0.084,0.0393,8.6875,10.75,40.0625,235.5625,-26.5625,162.1875,0
1776973835.765,9.6103,0.8428,2.3391,-0.5124,0.1085,0.1466,-78.0,-11.55,18.45,9.9479,0.0814,2.3104,-0.2483,0.445,0.6275,-73.35,4.8,0.9,-4.42,-2.61,-8.45,0.0916,-0.0949,0.036,8.6875,10.75,40.0625,235.5625,-26.625,162.125,0
1776973835.77,9.6103,0.8428,2.3391,-0.5124,0.1085,0.1466,-78.0,-11.55,18.45,10.3358,-0.3041,2.2482,-0.2284,0.3906,0.6523,-73.35,4.8,0.9,-4.42,-2.61,-8.45,0.0938,-0.1178,0.0338,8.6875,10.75,40.0625,235.5625,-26.6875,162.0625,0
1776973835.776,9.6606,0.6656,2.5881,-0.5446,0.0749,0.1391,-77.85,-11.4,18.3,10.173,-1.008,2.0638,-0.2284,0.3906,0.6523,-73.65,3.0,2.55,-4.3,-2.68,-8.55,0.0938,-0.1178,0.0338,8.6875,10.75,40.0625,235.5625,-26.6875,162.0625,0
1776973835.781,9.6606,0.6656,2.5881,-0.5446,0.0749,0.1391,-77.85,-11.4,18.3,10.173,-1.008,2.0638,-0.2395,0.3304,0.6784,-73.65,3.0,2.55,-4.3,-2.68,-8.55,0.0938,-0.1178,0.0338,9.875,11.1875,41.1875,236.375,-26.8125,162.0,0
1776973835.786,9.4858,0.6009,2.8946,-0.615,0.1434,0.1268,-77.85,-11.4,18.3,9.56,-0.7781,2.2697,-0.2395,0.3304,0.6784,-73.65,3.0,2.55,-4.48,-2.6,-8.51,0.1374,-0.1745,0.0469,9.875,11.1875,41.1875,236.375,-26.8125,162.0,0
1776973835.791,9.4858,0.6009,2.8946,-0.615,0.1434,0.1268,-77.85,-11.4,18.3,9.56,-0.7781,2.2697,-0.283,0.3168,0.6893,-73.65,3.0,2.55,-4.48,-2.6,-8.51,0.1374,-0.1745,0.0469,9.875,11.1875,41.1875,236.4375,-26.9375,161.875,0
1776973835.796,9.505,0.6225,2.9257,-0.6281,0.1681,0.1095,-78.15,-11.7,19.05,9.4044,-0.6393,2.4636,-0.283,0.3168,0.6893,-73.65,3.45,2.1,-4.49,-2.61,-8.43,0.1767,-0.2203,0.0545,9.875,11.1875,41.1875,236.4375,-26.9375,161.875,0
1776973835.801,9.505,0.6225,2.9257,-0.6281,0.1681,0.1095,-77.7,-12.3,19.2,9.4044,-0.6393,2.4636,-0.3544,0.3786,0.7027,-73.65,3.45,2.1,-4.49,-2.61,-8.43,0.1953,-0.2356,0.0545,9.875,11.1875,41.1875,236.5,-27.0625,161.8125,0
1776973835.806,9.6343,0.644,3.0311,-0.6155,0.1652,0.0914,-77.7,-12.3,19.2,9.7683,-0.182,2.8539,-0.377,0.4258,0.6995,-73.65,3.45,2.1,-4.42,-2.5,-8.58,0.1953,-0.2356,0.0545,9.875,11.1875,41.1875,236.5,-27.0625,161.8125,0
1776973835.815,9.7707,0.4693,3.0981,-0.6033,0.137,0.0837,-77.25,-12.0,18.15,10.1873,-0.4046,2.8826,-0.377,0.4258,0.6995,-72.9,3.45,1.35,-4.41,-2.7,-8.55,0.2094,-0.2629,0.0502,9.875,11.1875,41.1875,236.5,-27.1875,161.6875,0
1776973835.82,9.7707,0.4693,3.0981,-0.6033,0.137,0.0837,-77.25,-12.0,18.15,10.1873,-0.4046,2.8826,-0.3235,0.3864,0.712,-72.9,3.45,1.35,-4.41,-2.7,-8.55,0.2258,-0.2902,0.0524,9.875,11.1875,41.1875,236.5625,-27.3125,161.5625,0
1776973835.826,9.6798,0.2873,3.2226,-0.5891,0.1231,0.0869,-78.75,-11.25,19.5,10.2185,-0.8284,3.1963,-0.2537,0.3709,0.7288,-74.4,2.25,1.35,-4.46,-2.84,-8.49,0.2258,-0.2902,0.0524,9.875,11.1875,41.1875,236.5625,-27.3125,161.5625,0
1776973835.831,9.6798,0.2873,3.2226,-0.5891,0.1231,0.0869,-78.75,-11.25,19.5,10.2185,-0.8284,3.1963,-0.2537,0.3709,0.7288,-74.4,2.25,1.35,-4.46,-2.84,-8.49,0.2596,-0.3054,0.0589,10.1875,10.75,40.875,237.3125,-27.5,161.375,0
1776973835.836,9.7468,0.2825,3.3303,-0.5556,0.1079,0.0951,-78.75,-11.25,19.5,10.2855,-1.0654,2.5235,-0.3048,0.3187,0.7509,-73.8,2.85,3.0,-4.4,-2.82,-8.55,0.2596,-0.3054,0.0589,10.1875,10.75,40.875,237.3125,-27.5,161.375,0
1776973835.841,9.7468,0.2825,3.3303,-0.5556,0.1079,0.0951,-78.75,-11.25,19.5,10.2855,-1.0654,2.5235,-0.3048,0.3187,0.7509,-73.8,2.85,3.0,-4.4,-2.82,-8.55,0.2989,-0.3425,0.0676,10.1875,10.75,40.875,237.3125,-27.6875,161.1875,0
1776973835.846,9.8617,0.3328,3.5123,-0.5127,0.1092,0.0973,-78.75,-11.25,19.5,10.0987,-0.9912,2.6671,-0.3296,0.324,0.756,-75.3,2.4,2.7,-4.45,-2.62,-8.65,0.2989,-0.3425,0.0676,10.1875,10.75,40.875,237.3125,-27.6875,161.1875,0
1776973835.851,9.8617,0.3328,3.5123,-0.5127,0.1092,0.0973,-79.5,-11.55,20.25,10.0987,-0.9912,2.6671,-0.3296,0.324,0.756,-75.3,2.4,2.7,-4.45,-2.62,-8.65,0.3163,-0.4058,0.0796,10.1875,10.75,40.875,237.375,-27.9375,161.0,0
1776973835.856,9.9742,0.6081,3.6368,-0.4399,0.113,0.0882,-79.5,-11.55,20.25,9.9335,-0.3591,2.6049,-0.3195,0.3003,0.7634,-73.95,1.05,2.85,-4.32,-3.19,-8.72,0.3163,-0.4058,0.0796,10.1875,10.75,40.875,237.4375,-28.1875,160.8125,0
1776973835.865,10.0868,0.8667,3.5793,-0.3408,0.0858,0.0701,-78.6,-11.4,19.35,9.9982,-0.1317,2.3008,-0.2864,0.3142,0.785,-73.65,-0.3,2.1,-4.52,-2.48,-8.69,0.2934,-0.5083,0.0894,10.1875,10.75,40.875,237.4375,-28.1875,160.8125,0
1776973835.875,10.0197,1.1372,3.4357,-0.2598,0.0565,0.0426,-78.0,-11.55,20.55,10.0556,-0.4166,2.1668,-0.2819,0.323,0.8207,-73.65,-0.3,2.1,-4.55,-2.64,-8.63,0.3523,-0.552,0.0938,10.1875,10.75,40.875,237.5,-28.5,160.625,0
1776973835.88,10.0197,1.1372,3.4357,-0.198,0.045,0.0115,-78.75,-11.25,20.55,10.0556,-0.4166,2.1668,-0.2819,0.323,0.8207,-73.65,-0.3,2.1,-4.55,-2.64,-8.63,0.3523,-0.552,0.0938,10.1875,10.75,40.875,237.5,-28.5,160.625,0
1776973835.885,10.1035,1.2905,3.1843,-0.198,0.045,0.0115,-78.75,-11.25,20.55,10.137,-0.6345,2.0758,-0.2678,0.3312,0.8577,-72.6,0.15,3.75,-4.48,-2.92,-8.54,0.3774,-0.5705,0.0905,10.1875,11.875,40.0625,238.375,-28.8125,160.375,0
1776973835.89,9.663,1.4796,3.0526,-0.1724,0.093,-0.0192,-78.75,-11.25,20.55,10.137,-0.6345,2.0758,-0.2678,0.3312,0.8577,-72.6,0.15,3.75,-4.48,-2.92,-8.54,0.3774,-0.5705,0.0905,10.1875,11.875,40.0625,238.375,-28.8125,160.375,0
1776973835.895,9.663,1.4796,3.0526,-0.1724,0.093,-0.0192,-78.75,-11.25,20.55,10.161,-0.7805,1.9872,-0.2848,0.3371,0.8823,-73.05,-0.45,3.45,-4.45,-2.96,-8.6,0.4069,-0.6283,0.108,10.1875,11.875,40.0625,238.4375,-29.0625,160.125,0
1776973835.9,10.2472,1.5658,2.6983,-0.0453,-0.0181,-0.0538,-78.75,-11.55,21.0,10.161,-0.7805,1.9872,-0.2848,0.3371,0.8823,-73.05,-0.45,3.45,-4.45,-2.96,-8.6,0.4069,-0.6283,0.108,10.1875,11.875,40.0625,238.5,-29.4375,159.9375,0
1776973835.906,10.2472,1.5658,2.6983,-0.0453,-0.0181,-0.0538,-78.75,-11.55,21.0,10.2352,-1.0175,1.7765,-0.319,0.3616,0.9212,-73.35,-0.15,4.95,-4.47,-2.95,-8.67,0.4112,-0.7101,0.144,10.1875,11.875,40.0625,238.5,-29.4375,159.9375,0
1776973835.912,10.1179,1.4772,2.6695,-0.1066,0.0986,-0.0933,-77.55,-10.65,19.05,10.1873,-1.2785,1.6496,-0.3608,0.377,0.9483,-73.35,-0.15,4.95,-4.58,-2.86,-8.48,0.4232,-0.8138,0.1713,10.1875,11.875,40.0625,238.5625,-29.875,159.6875,0
1776973835.917,10.1179,1.4772,2.6695,-0.1066,0.0986,-0.0933,-77.55,-10.65,19.05,10.1873,-1.2785,1.6496,-0.3608,0.377,0.9483,-72.9,-0.3,4.35,-4.58,-2.86,-8.48,0.4232,-0.8138,0.1713,10.1875,11.875,40.0625,238.6875,-30.3125,159.4375,0
1776973835.926,9.9814,1.5155,2.3559,0.0147,-0.0067,-0.1394,-78.45,-12.3,20.55,10.1227,-1.2306,1.4078,-0.4114,0.404,0.9699,-73.65,-1.95,3.3,-4.56,-2.94,-8.52,0.4265,-0.9283,0.204,10.1875,11.875,40.0625,238.6875,-30.3125,159.4375,0
1776973835.931,10.2065,1.4293,2.0566,0.0309,0.0107,-0.1807,-78.15,-11.7,19.35,10.1754,-1.2115,1.3862,-0.4114,0.404,0.9699,-73.65,-1.95,3.3,-4.56,-2.94,-8.52,0.4265,-0.9283,0.204,10.875,11.875,39.1875,239.5,-30.875,159.125,0
1776973835.936,10.2065,1.4293,2.0566,0.0309,0.0107,-0.1807,-78.15,-11.7,19.35,10.1754,-1.2115,1.3862,-0.4612,0.4295,1.0008,-74.55,-2.4,4.95,-4.47,-3.36,-8.78,0.4287,-1.0876,0.2574,10.875,11.875,39.1875,239.5,-30.875,159.125,0
1776973835.94,10.1634,1.3144,1.8148,0.1005,-0.0346,-0.2094,-78.15,-11.7,19.35,10.2544,-1.1253,1.1157,-0.4826,0.4338,1.015,-74.55,-2.4,4.95,-4.47,-3.36,-8.78,0.4287,-1.0876,0.2574,10.875,11.875,39.1875,239.625,-31.4375,158.9375,0
1776973835.946,10.1634,1.3144,1.8148,0.1005,-0.0346,-0.2094,-78.15,-11.7,19.35,10.2544,-1.1253,1.1157,-0.4826,0.4338,1.015,-74.55,-2.4,4.95,-4.59,-2.44,-8.68,0.3611,-1.213,0.3022,10.875,11.875,39.1875,239.625,-31.4375,158.9375,0
1776973835.95,9.9479,1.1779,1.6568,0.1266,-0.0794,-0.2217,-79.05,-12.3,17.4,10.1394,-1.3695,1.2713,-0.4439,0.4325,1.0456,-74.55,-2.4,4.95,-4.59,-2.44,-8.68,0.4123,-1.2872,0.3578,10.875,11.875,39.1875,239.75,-32.125,158.75,0
1776973835.956,9.9479,1.1779,1.6568,0.1266,-0.0794,-0.2217,-79.05,-12.3,17.4,10.1394,-1.3695,1.2713,-0.4439,0.4325,1.0456,-71.85,-4.05,5.7,-4.56,-2.64,-8.36,0.4123,-1.2872,0.3578,10.875,11.875,39.1875,239.9375,-32.9375,158.4375,0
1776973835.966,9.8067,1.1899,1.494,0.1069,-0.0805,-0.2297,-77.85,-11.4,17.25,9.9527,-1.5945,1.3384,-0.4202,0.4357,1.0845,-71.85,-4.05,5.7,-4.89,-2.54,-8.29,0.4571,-1.3995,0.4134,10.875,11.875,39.1875,239.9375,-32.9375,158.4375,0
1776973835.976,9.7252,1.2258,1.3264,0.0658,-0.1223,-0.2321,-78.0,-13.05,17.4,9.7396,-1.7286,1.4844,-0.4282,0.445,1.1162,-73.95,-4.95,4.05,-5.03,-2.65,-8.18,0.4832,-1.5021,0.4581,10.875,11.875,39.1875,240.125,-33.8125,158.125,0
1776973835.98,9.5337,1.4581,1.1349,-0.0005,-0.1873,-0.2545,-78.75,-13.5,17.4,9.7252,-1.9273,1.6568,-0.4165,0.4652,1.1535,-73.95,-4.95,4.05,-5.03,-2.65,-8.18,0.4832,-1.5021,0.4581,10.875,11.875,39.1875,240.125,-33.8125,158.125,0
1776973835.985,9.5337,1.4581,1.1349,-0.0005,-0.1873,-0.2545,-78.75,-13.5,17.4,9.7252,-1.9273,1.6568,-0.4165,0.4652,1.1535,-73.65,-4.95,5.85,-5.11,-2.64,-8.01,0.4767,-1.5643,0.5083,13.875,13.375,38.875,241.0625,-34.6875,157.8125,0
1776973835.99,9.5888,1.6712,0.8571,-0.0898,-0.2737,-0.2952,-76.95,-13.5,17.4,9.6869,-1.5299,1.6616,-0.3797,0.4738,1.1898,-73.65,-4.95,5.85,-5.11,-2.64,-8.01,0.4767,-1.5643,0.5083,13.875,13.375,38.875,241.0625,-34.6875,157.8125,0
1776973835.995,9.5888,1.6712,0.8571,-0.0898,-0.2737,-0.2952,-76.95,-13.5,17.4,9.6869,-1.5299,1.6616,-0.3797,0.4738,1.1898,-72.9,-5.85,6.15,-5.36,-2.46,-7.87,0.5007,-1.6384,0.5367,13.875,13.375,38.875,241.25,-35.6875,157.5,0
1776973836.0,9.3565,2.0303,0.6536,-0.2153,-0.4477,-0.3451,-76.95,-13.5,17.4,9.9503,-1.075,1.2761,-0.4415,0.5105,1.2508,-72.9,-5.85,6.15,-5.36,-2.46,-7.87,0.5443,-1.7279,0.5618,13.875,13.375,38.875,241.5,-36.6875,157.125,0
1776973836.006,9.165,2.1955,0.2011,-0.2481,-0.6723,-0.4072,-76.95,-13.5,17.4,9.9503,-1.075,1.2761,-0.4415,0.5105,1.2508,-72.6,-5.25,5.25,-5.51,-2.5,-7.83,0.5443,-1.7279,0.5618,13.875,13.375,38.875,241.75,-37.75,156.6875,0
1776973836.015,9.165,2.1955,0.2011,-0.2481,-0.6723,-0.4072,-78.15,-14.4,14.7,10.2639,-0.6345,1.1325,-0.5489,0.5377,1.3227,-70.5,-5.85,6.6,-5.39,-2.61,-7.95,0.6032,-1.8479,0.5934,13.875,13.375,38.875,242.0625,-38.875,156.25,0
1776973836.026,8.5281,2.4828,-0.8619,-0.0248,-1.303,-0.5337,-77.25,-14.55,15.3,10.5393,0.1867,0.6273,-0.6534,0.5116,1.4208,-71.85,-7.5,7.2,-5.42,-2.9,-7.89,0.612,-1.9809,0.6305,13.875,13.375,38.875,242.0625,-38.875,156.25,0
1776973836.031,8.5281,2.4828,-0.8619,-0.0248,-1.303,-0.5337,-78.0,-12.75,14.55,10.6326,0.9361,-0.1987,-0.748,0.5452,1.5439,-71.85,-7.5,7.2,-5.42,-2.9,-7.89,0.612,-1.9809,0.6305,13.875,13.375,38.875,242.0625,-38.875,156.25,0
1776973836.036,8.3749,2.6288,-0.7015,0.4716,-1.5607,-0.6334,-78.0,-12.75,14.55,10.7308,1.0008,-1.1061,-0.748,0.5452,1.5439,-71.85,-7.5,7.2,-5.39,-2.99,-7.92,0.637,-2.1588,0.6807,16.375,13.0,38.0625,294.6875,-40.125,155.8125,0
1776973836.041,8.3749,2.6288,-0.7015,0.4716,-1.5607,-0.6334,-78.45,-15.0,14.55,10.7308,1.0008,-1.1061,-0.9014,0.5947,1.6553,-71.85,-7.5,7.2,-5.39,-2.99,-7.92,0.637,-2.1588,0.6807,16.375,13.0,38.0625,294.6875,-40.125,155.8125,0
1776973836.046,8.3582,3.5985,-0.4453,0.6398,-1.4573,-0.7725,-78.45,-15.0,14.55,10.398,0.3041,-1.5467,-0.9014,0.5947,1.6553,-72.45,-8.1,7.35,-5.31,-3.45,-7.89,0.6534,-2.3442,0.7505,16.375,13.0,38.0625,293.6875,-41.5,155.3125,0
1776973836.05,8.3582,3.5985,-0.4453,0.6398,-1.4573,-0.7725,-78.45,-15.0,14.55,10.398,0.3041,-1.5467,-1.0277,0.6563,1.7064,-72.45,-8.1,7.35,-5.31,-3.45,-7.89,0.5945,-2.5962,0.8596,16.375,13.0,38.0625,292.5625,-43.0,154.8125,0
1776973836.056,8.5736,3.0526,-1.47,0.6566,-1.6017,-0.9188,-77.85,-11.7,13.65,9.7683,0.0527,-1.2833,-0.9915,0.7432,1.692,-70.8,-11.1,7.5,-5.61,-4.39,-7.87,0.5945,-2.5962,0.8596,16.375,13.0,38.0625,291.125,-44.6875,154.375,0
1776973836.066,9.086,2.3607,-1.4102,0.7909,-1.6132,-0.9438,-77.85,-11.7,13.65,9.5265,-0.0982,-0.9984,-0.9302,0.8556,1.683,-70.5,-11.25,8.4,-5.78,-4.51,-7.76,0.5138,-2.846,1.0232,16.375,13.0,38.0625,291.125,-44.6875,154.375,0
1776973836.076,9.1387,2.1883,-0.7422,1.1223,-1.6611,-0.9385,-77.25,-13.5,13.8,9.8545,-0.4286,-0.0862,-0.8495,0.9433,1.6702,-70.8,-12.3,8.7,-6.11,-4.13,-7.87,0.432,-3.0696,1.2021,16.375,13.0,38.0625,289.5625,-46.5,154.0,0
1776973836.08,9.1387,2.1883,-0.7422,1.1223,-1.6611,-0.9385,-77.1,-13.95,10.5,9.8545,-0.4286,-0.0862,-0.8495,0.9433,1.6702,-70.8,-12.3,8.7,-6.11,-4.13,-7.87,0.432,-3.0696,1.2021,16.375,13.0,38.0625,287.8125,-48.5,153.625,0
1776973836.086,9.5505,2.3822,-0.34,1.3057,-1.6134,-0.9766,-76.95,-13.05,11.7,10.4052,-0.4405,0.9864,-0.6603,0.9968,1.6974,-70.2,-13.95,9.15,-7.38,-3.58,-8.29,0.3763,-3.3172,1.3592,19.6875,13.375,34.875,287.8125,-48.5,153.625,0
1776973836.09,9.5505,2.3822,-0.34,1.3057,-1.6134,-0.9766,-76.95,-13.05,11.7,10.4052,-0.4405,0.9864,-0.6603,0.9968,1.6974,-70.2,-13.95,9.15,-7.38,-3.58,-8.29,0.3763,-3.3172,1.3592,19.6875,13.375,34.875,286.0,-50.625,153.25,0
1776973836.095,9.754,2.4756,-0.1987,1.5047,-1.7874,-1.0523,-76.35,-12.9,10.5,10.9319,-0.3974,1.8172,-0.4317,1.0142,1.7192,-70.2,-14.85,8.85,-7.85,-3.32,-8.55,0.3523,-3.5507,1.4454,19.6875,13.375,34.875,286.0,-50.625,153.25,0
1776973836.1,9.754,2.4756,-0.1987,1.5047,-1.7874,-1.0523,-76.35,-12.9,10.5,10.9319,-0.3974,1.8172,-0.4317,1.0142,1.7192,-70.2,-14.85,8.85,-7.85,-3.32,-8.55,0.348,-3.7743,1.4933,19.6875,13.375,34.875,284.1875,-52.8125,152.75,0
1776973836.106,10.2639,2.3703,0.0982,1.5076,-1.8215,-1.1175,-76.35,-12.9,10.5,11.1187,0.1341,3.0071,-0.2654,0.9963,1.6968,-70.2,-14.85,8.85,-8.88,-3.43,-8.58,0.348,-3.7743,1.4933,19.6875,13.375,34.875,282.4375,-55.1875,152.25,0
1776973836.116,10.7524,2.0423,0.6584,1.5199,-1.8732,-1.1754,-76.8,-11.7,9.0,11.1498,-0.0072,3.7996,-0.1551,0.9545,1.5561,-68.4,-15.0,9.0,-10.73,-4.45,-8.39,0.3687,-3.9543,1.5326,19.6875,13.375,34.875,282.4375,-55.1875,152.25,0
1776973836.126,10.8529,1.482,1.1756,1.4064,-1.8165,-1.2324,-76.35,-10.95,7.65,11.0253,0.0862,4.956,0.23,1.0008,1.3763,-68.4,-15.0,9.0,-11.8,-4.92,-8.52,0.3872,-4.0263,1.5708,19.6875,13.375,34.875,280.75,-57.5625,151.5625,0
1776973836.131,10.8529,1.482,1.1756,1.4064,-1.8165,-1.2324,-76.35,-10.95,7.65,11.0253,0.0862,4.956,0.23,1.0008,1.3763,-68.4,-15.0,9.0,-11.8,-4.92,-8.52,0.3872,-4.0263,1.5708,19.6875,13.375,34.875,280.75,-57.5625,151.5625,0
1776973836.136,11.3916,1.0726,1.4293,1.161,-1.7035,-1.2628,-75.45,-10.8,5.25,10.5441,-0.668,5.2672,0.8663,0.9816,1.2804,-68.25,-18.3,11.1,-12.1,-5.93,-8.04,0.4222,-3.9586,1.6155,25.5625,12.25,32.1875,279.25,-59.9375,150.875,0
1776973836.141,11.3916,1.0726,1.4293,1.161,-1.7035,-1.2628,-75.45,-10.8,5.25,10.5441,-0.668,5.2672,0.8663,0.9816,1.2804,-68.25,-18.3,11.1,-12.1,-5.93,-8.04,0.4222,-3.9586,1.6155,25.5625,12.25,32.1875,277.6875,-62.1875,150.375,0
1776973836.146,12.3756,0.8188,1.7861,0.8697,-1.6547,-1.2548,-75.15,-11.55,5.25,9.8043,-1.7645,5.8275,1.6747,0.9078,1.3619,-66.75,-16.8,11.85,-12.98,-6.27,-8.55,0.2869,-3.7601,1.6821,25.5625,12.25,32.1875,277.6875,-62.1875,150.375,0
1776973836.151,12.3756,0.8188,1.7861,0.8697,-1.6547,-1.2548,-75.15,-11.55,5.25,9.8043,-1.7645,5.8275,1.6747,0.9078,1.3619,-66.75,-16.8,11.85,-12.98,-6.27,-8.55,0.0709,-3.5114,1.7301,25.5625,12.25,32.1875,276.0625,-64.375,150.0625,0
1776973836.157,12.56,0.2729,2.3008,0.3914,-1.869,-1.2521,-75.15,-11.55,5.25,9.4475,-3.2178,5.6168,2.1442,1.0504,1.4346,-66.75,-18.3,13.2,-10.68,-5.74,-7.45,0.0709,-3.5114,1.7301,25.5625,12.25,32.1875,274.375,-66.4375,150.0,0
1776973836.166,12.9263,-0.8068,2.7677,-0.044,-1.4957,-1.2143,-74.55,-8.7,1.95,9.2536,-4.7501,6.6487,2.5698,1.1604,1.4346,-66.75,-18.3,15.15,-9.87,-6.19,-7.26,-0.1298,-3.3292,1.7911,25.5625,12.25,32.1875,274.375,-66.4375,150.0,0
1776973836.176,12.7874,-2.059,3.6943,-0.559,-1.4003,-1.21,-74.4,-10.05,2.1,8.7101,-6.1794,8.9088,2.8781,1.1626,1.3299,-66.75,-18.3,15.15,-8.55,-6.34,-6.98,-0.324,-3.1394,1.8588,25.5625,12.25,32.1875,272.625,-68.5,150.25,0
1776973836.181,12.56,-2.3774,4.0917,-0.9025,-1.1263,-1.2417,-74.4,-10.05,2.1,7.8673,-7.5106,10.1275,2.8485,0.8207,1.2321,-66.75,-18.3,15.15,-8.55,-6.34,-6.98,-0.324,-3.1394,1.8588,25.5625,12.25,32.1875,272.625,-68.5,150.25,0
1776973836.186,12.56,-2.3774,4.0917,-0.9025,-1.1263,-1.2417,-74.4,-7.5,3.15,7.8673,-7.5106,10.1275,2.8485,0.8207,1.2321,-66.6,-18.15,16.05,-6.61,-5.71,-6.77,-0.504,-2.9769,1.9395,33.375,10.0625,26.1875,270.75,-70.4375,150.875,0
1776973836.191,11.8154,-1.6664,3.7661,-1.0011,-1.2068,-1.25,-74.4,-7.5,3.15,6.9695,-7.695,10.2376,2.5455,0.4706,1.0621,-66.6,-18.15,16.05,-6.61,-5.71,-6.77,-0.504,-2.9769,1.9395,33.375,10.0625,26.1875,270.75,-70.4375,150.875,0
1776973836.196,11.8154,-1.6664,3.7661,-1.0011,-1.2068,-1.25,-74.1,-5.25,2.1,6.9695,-7.695,10.2376,2.5455,0.4706,1.0621,-66.6,-18.15,16.05,-5.76,-4.69,-6.64,-0.6687,-2.8296,2.0169,33.375,10.0625,26.1875,268.8125,-72.375,151.9375,0
1776973836.2,11.3629,-0.5148,2.8419,-0.939,-1.2582,-1.3113,-74.1,-5.25,2.1,5.77,-7.6614,9.4188,2.2111,0.2571,0.8436,-66.6,-18.15,16.05,-5.76,-4.69,-6.64,-0.925,-2.8056,2.0366,33.375,10.0625,26.1875,266.75,-74.25,153.4375,0
1776973836.207,11.3629,-0.5148,2.8419,-0.939,-1.2582,-1.3113,-74.1,-5.25,2.1,5.77,-7.6614,9.4188,2.2111,0.2571,0.8436,-66.75,-18.0,17.7,-2.36,-4.47,-6.82,-0.925,-2.8056,2.0366,33.375,10.0625,26.1875,264.5,-75.9375,155.1875,0
1776973836.216,10.7811,0.4286,2.727,-1.1215,-1.1969,-1.3686,-74.1,-5.25,2.1,4.7333,-6.7852,6.5841,1.7283,0.0157,0.6534,-65.25,-18.0,17.4,-16.53,-8.15,-6.99,-1.5435,-2.5035,1.7017,33.375,10.0625,26.1875,264.5,-75.9375,155.1875,0
1776973836.226,10.6159,1.7526,2.4732,-1.2097,-0.6523,-1.417,-71.7,-3.9,0.45,3.7781,-7.1587,5.2098,1.2574,0.0205,0.5055,-65.25,-17.55,19.95,-14.07,-10.76,-5.78,-1.9057,-1.5228,0.648,33.375,10.0625,26.1875,262.75,-76.8125,156.1875,0
1776973836.231,10.5704,2.9233,2.3846,-1.2289,-0.4426,-1.4072,-71.7,-3.9,0.45,3.0813,-6.2417,6.9288,1.1964,0.2334,0.4205,-65.25,-17.55,19.95,-14.07,-10.76,-5.78,-1.9057,-1.5228,0.648,33.375,10.0625,26.1875,262.0625,-76.5,156.625,0
1776973836.236,10.5704,2.9233,2.3846,-1.2289,-0.4426,-1.4072,-71.85,-3.0,2.1,3.0813,-6.2417,6.9288,1.1964,0.2334,0.4205,-65.4,-18.45,19.8,-5.28,-5.18,-5.82,-1.6799,0.4941,-0.4363,37.0,6.0,21.5,262.0625,-76.5,156.625,0
1776973836.241,10.0006,3.7014,1.8579,-1.0291,-0.3954,-1.3083,-71.85,-3.0,2.1,3.7541,-5.5976,5.5976,0.8444,0.0687,0.3411,-65.4,-18.45,19.8,-5.28,-5.18,-5.82,-1.6799,0.4941,-0.4363,37.0,6.0,21.5,261.6875,-75.3125,156.5625,0
1776973836.246,10.0006,3.7014,1.8579,-1.0291,-0.3954,-1.3083,-72.45,-0.45,1.5,3.7541,-5.5976,5.5976,0.8444,0.0687,0.3411,-66.6,-18.15,20.1,-2.55,-2.79,-5.51,-1.7551,1.7922,-1.2926,37.0,6.0,21.5,261.6875,-75.3125,156.5625,0
1776973836.251,9.2727,4.4293,1.0391,-0.7352,-0.3136,-1.258,-72.45,-0.45,1.5,4.7884,-4.7238,4.8435,0.2915,-0.1884,0.2896,-66.6,-18.15,20.1,-2.55,-2.79,-5.51,-1.6395,2.1904,-1.7344,37.0,6.0,21.5,261.625,-73.8125,156.0625,0
1776973836.257,9.2727,4.4293,1.0391,-0.7352,-0.3136,-1.258,-70.05,-2.25,3.15,5.5306,-3.7781,5.1164,0.2915,-0.1884,0.2896,-66.15,-17.7,19.8,-1.87,-1.85,-3.15,-1.6395,2.1904,-1.7344,37.0,6.0,21.5,261.75,-72.3125,155.5,0
1776973836.266,8.9256,4.6855,0.7087,-0.3834,-0.2038,-1.2417,-70.05,-2.25,3.15,5.7533,-3.1627,5.3798,-0.247,-0.5185,0.1287,-66.15,-17.7,19.8,-1.51,-1.05,-2.24,-1.4508,2.1129,-1.7584,37.0,6.0,21.5,261.75,-72.3125,155.5,0
1776973836.276,9.4667,4.8243,1.1013,0.0352,0.0264,-1.2239,-71.55,-0.75,6.3,5.3367,-2.988,5.5019,-0.3088,-0.9025,-0.0711,-65.1,-17.7,19.35,-1.77,-0.76,-1.89,-1.2632,1.9286,-1.6297,37.0,6.0,21.5,261.9375,-71.0,155.0625,0
1776973836.281,8.9447,4.8554,1.7358,0.5244,0.1164,-1.1583,-71.55,-0.75,6.3,5.3367,-2.988,5.5019,-0.2249,-1.2628,-0.2507,-65.1,-17.7,19.35,-1.77,-0.76,-1.89,-1.2632,1.9286,-1.6297,37.0,6.0,21.5,261.9375,-71.0,155.0625,0
1776973836.286,8.9447,4.8554,1.7358,0.5244,0.1164,-1.1583,-70.35,-0.75,7.8,4.5681,-3.2872,6.1004,-0.2249,-1.2628,-0.2507,-65.1,-17.7,19.35,-3.39,-1.67,-2.44,-1.153,1.8446,-1.4944,38.0625,2.6875,19.5,262.375,-69.6875,154.8125,0
1776973836.291,9.1602,4.8459,2.0494,1.1064,0.2276,-1.0808,-70.35,-0.75,7.8,4.5681,-3.2872,6.1004,0.0035,-1.4445,-0.4493,-66.75,-19.95,18.0,-3.39,-1.67,-2.44,-1.153,1.8446,-1.4944,38.0625,2.6875,19.5,262.5,-68.4375,154.8125,0
1776973836.296,9.1602,4.8459,2.0494,1.5884,0.2012,-0.991,-71.1,0.3,8.1,4.0869,-3.5123,6.0047,0.2233,-1.5175,-0.6062,-66.15,-17.4,17.85,-3.97,-1.96,-2.96,-1.1301,1.8959,-1.3526,38.0625,2.6875,19.5,262.5,-68.4375,154.8125,0
1776973836.301,8.8178,4.628,2.3439,1.5884,0.2012,-0.991,-71.1,0.3,8.1,4.0869,-3.5123,6.0047,0.2233,-1.5175,-0.6062,-66.15,-17.4,17.85,-3.97,-1.96,-2.96,-1.1596,2.0159,-1.2174,38.0625,2.6875,19.5,262.5,-67.125,155.125,0
1776973836.307,8.7939,3.6727,2.2482,2.0483,0.1482,-0.8705,-70.8,-0.3,9.15,4.0821,-3.7661,5.3917,0.2761,-1.4954,-0.7381,-68.25,-16.8,17.4,-4.3,-2.18,-3.21,-1.1596,2.0159,-1.2174,38.0625,2.6875,19.5,262.5,-65.75,155.6875,0
1776973836.316,8.5641,2.9497,1.7789,2.1879,0.1852,-0.7325,-70.8,-0.3,9.15,4.5538,-4.1803,5.3032,0.0999,-1.3872,-0.8521,-67.5,-16.8,16.95,-4.39,-2.26,-3.21,-1.2086,2.1751,-1.1006,38.0625,2.6875,19.5,262.5,-65.75,155.6875,0
1776973836.326,8.3127,2.0279,1.5562,2.2244,0.117,-0.6035,-70.35,0.0,11.7,5.0039,-4.6136,4.9081,-0.0203,-1.4288,-0.9297,-67.5,-16.8,16.95,-5.15,-2.07,-3.86,-1.2119,2.3453,-0.9861,38.0625,2.6875,19.5,262.375,-64.375,156.4375,0
1776973836.331,8.3127,2.0279,1.5562,2.2244,0.117,-0.6035,-70.35,0.0,11.7,5.0039,-4.6136,4.9081,-0.0203,-1.4288,-0.9297,-68.25,-15.9,17.4,-5.15,-2.07,-3.86,-1.2119,2.3453,-0.9861,38.0625,2.6875,19.5,262.375,-64.375,156.4375,0
1776973836.336,8.1906,1.4006,1.1803,2.1242,0.1116,-0.4698,-69.0,-0.3,10.95,5.3367,-4.8147,4.9033,-0.0445,-1.4893,-0.996,-68.25,-15.9,17.4,-5.92,-1.91,-4.31,-1.1072,2.5176,-0.8999,37.0,3.75,23.5,262.5,-62.875,157.1875,0
1776973836.341,8.1906,1.4006,1.1803,2.1242,0.1116,-0.4698,-69.0,-0.3,10.95,5.3367,-4.8147,4.9033,-0.0445,-1.4893,-0.996,-68.25,-15.9,17.4,-5.92,-1.91,-4.31,-1.1072,2.5176,-0.8999,37.0,3.75,23.5,262.5,-62.875,157.1875,0
1776973836.346,7.841,0.9433,1.1396,2.0616,0.1202,-0.356,-69.0,-2.25,11.7,5.3774,-4.2425,5.217,-0.0509,-1.5154,-1.0738,-68.25,-15.9,17.4,-6.16,-2.0,-4.36,-0.8901,2.7609,-0.8661,37.0,3.75,23.5,262.6875,-61.3125,158.0,0
1776973836.351,7.841,0.9433,1.1396,2.0616,0.1202,-0.356,-69.15,-2.7,11.7,5.3774,-4.2425,5.217,-0.0509,-1.5154,-1.0738,-69.75,-15.6,15.9,-6.16,-2.0,-4.36,-0.648,3.0401,-0.8628,37.0,3.75,23.5,263.125,-59.5625,158.625,0
1776973836.357,7.7859,1.1516,1.2977,2.0512,0.2385,-0.2593,-69.15,-2.7,12.15,5.5522,-3.3974,4.6878,-0.0642,-1.6046,-1.1948,-69.75,-15.6,15.9,-5.29,-2.17,-4.01,-0.648,3.0401,-0.8628,37.0,3.75,23.5,263.875,-57.6875,159.1875,0
1776973836.366,7.5465,0.7566,0.9218,2.0398,0.2654,-0.2228,-68.25,-2.25,11.7,5.849,-2.4349,4.1276,-0.0203,-1.707,-1.3387,-69.75,-15.6,15.9,-4.84,-2.36,-3.78,-0.4178,3.2365,-0.8585,37.0,3.75,23.5,263.875,-57.6875,159.1875,0
1776973836.376,7.9655,0.5435,0.4334,1.9113,0.2705,-0.178,-68.25,-2.25,11.7,6.3135,-1.7909,3.4548,0.0903,-1.7984,-1.4805,-71.7,-14.85,15.9,-4.48,-2.71,-3.58,-0.24,3.2823,-0.8399,37.0,3.75,23.5,264.8125,-55.8125,159.625,0
1776973836.381,7.9655,0.5435,0.4334,1.9113,0.2705,-0.178,-66.9,-5.7,11.55,6.3135,-1.7909,3.4548,0.0903,-1.7984,-1.4805,-69.45,-13.65,13.95,-4.48,-2.71,-3.58,-0.24,3.2823,-0.8399,37.0,3.75,23.5,264.8125,-55.8125,159.625,0
1776973836.386,7.9775,0.3711,0.0048,1.7499,0.3469,-0.1969,-66.9,-5.7,11.55,6.7995,-1.3408,2.9808,0.3216,-1.866,-1.5868,-69.45,-13.65,13.95,-4.58,-3.69,-3.8,-0.1287,3.182,-0.8279,34.75,4.1875,24.0,265.9375,-54.0,160.0,0
1776973836.391,7.9775,0.3711,0.0048,1.7499,0.3469,-0.1969,-67.8,-5.25,11.7,7.1658,-1.3695,2.727,0.3216,-1.866,-1.5868,-70.2,-13.65,14.7,-4.58,-3.69,-3.8,-0.1287,3.182,-0.8279,34.75,4.1875,24.0,265.9375,-54.0,160.0,0
1776973836.396,8.1187,0.1006,-0.5435,1.4645,0.2737,-0.215,-67.8,-5.25,11.7,7.1658,-1.3695,2.727,0.6488,-1.8866,-1.647,-70.2,-13.65,14.7,-5.11,-4.36,-4.31,-0.0916,2.9954,-0.8519,34.75,4.1875,24.0,267.0625,-52.3125,160.1875,0
1776973836.401,8.1187,0.1006,-0.5435,1.4645,0.2737,-0.215,-68.25,-6.3,10.65,7.6638,-1.3623,3.45,0.6488,-1.8866,-1.647,-72.0,-11.25,13.2,-5.11,-4.36,-4.31,-0.1276,2.7794,-0.9599,34.75,4.1875,24.0,268.25,-50.625,160.25,0
1776973836.407,8.3965,0.2394,-0.759,1.1298,0.3032,-0.2787,-68.25,-6.3,10.65,7.6638,-1.3623,3.45,1.1349,-1.885,-1.6566,-72.0,-11.25,13.2,-5.82,-5.08,-5.03,-0.1276,2.7794,-0.9599,34.75,4.1875,24.0,269.4375,-49.0625,160.25,0
1776973836.416,8.4563,0.3783,-1.2546,0.8138,0.348,-0.3528,-67.35,-5.4,11.55,8.2744,-1.3024,3.6799,1.4858,-1.8932,-1.6379,-72.0,-11.25,13.2,-6.16,-5.69,-5.54,-0.2596,2.6245,-1.1639,34.75,4.1875,24.0,269.4375,-49.0625,160.25,0
1776973836.426,8.6167,0.7278,-1.3527,0.5921,0.3317,-0.3826,-67.35,-5.4,11.55,8.8657,-1.4437,3.6703,1.6899,-1.8929,-1.6062,-74.85,-11.4,12.0,-6.13,-6.3,-6.38,-0.4538,2.5035,-1.4388,34.75,4.1875,24.0,270.5625,-47.5,160.1875,0
1776973836.431,8.6167,0.7278,-1.3527,0.5921,0.3317,-0.3826,-66.45,-5.25,9.9,9.5553,-1.9321,3.8068,1.804,-1.978,-1.5737,-74.85,-11.4,12.0,-6.13,-6.3,-6.38,-0.4538,2.5035,-1.4388,31.0625,6.375,29.1875,271.6875,-45.9375,160.125,0
1776973836.437,8.6957,1.0151,-1.3479,0.3104,0.3597,-0.4045,-66.45,-5.25,9.9,9.5553,-1.9321,3.8068,1.804,-1.978,-1.5737,-74.85,-11.4,12.0,-6.02,-6.16,-6.63,-0.6807,2.3616,-1.7311,31.0625,6.375,29.1875,271.6875,-45.9375,160.125,0
1776973836.441,8.6957,1.0151,-1.3479,0.0322,0.3395,-0.3922,-68.4,-5.4,10.8,9.8378,-2.3894,3.7828,1.8266,-2.0254,-1.533,-72.9,-9.75,10.65,-6.02,-6.16,-6.63,-0.6807,2.3616,-1.7311,31.0625,6.375,29.1875,272.6875,-44.375,159.9375,0
1776973836.446,8.7939,1.2426,-1.2953,0.0322,0.3395,-0.3922,-68.4,-5.4,10.8,9.8378,-2.3894,3.7828,1.8266,-2.0254,-1.533,-72.9,-9.75,10.65,-5.81,-5.61,-6.87,-0.8585,2.2111,-2.018,31.0625,6.375,29.1875,272.6875,-44.375,159.9375,0
1776973836.451,8.7317,1.0606,-1.4964,-0.2105,0.2928,-0.3829,-67.65,-6.15,10.05,10.1059,-2.9161,3.8116,1.8762,-2.1005,-1.4933,-73.2,-7.35,10.65,-5.81,-5.61,-6.87,-0.9207,2.0551,-2.2853,31.0625,6.375,29.1875,273.75,-42.875,159.6875,0
1776973836.457,8.7317,1.0606,-1.4964,-0.2105,0.2928,-0.3829,-67.65,-6.15,10.05,10.1059,-2.9161,3.8116,1.8762,-2.1005,-1.4933,-73.2,-7.35,10.65,-5.82,-4.47,-7.64,-0.9207,2.0551,-2.2853,31.0625,6.375,29.1875,275.0,-41.375,159.3125,0
1776973836.467,8.6766,1.5945,-1.233,-0.3893,0.3054,-0.3603,-68.55,-6.75,9.9,10.0868,-3.2825,3.5195,1.8485,-2.185,-1.4725,-74.1,-5.55,9.3,-6.09,-4.35,-7.92,-0.8508,1.9188,-2.5285,31.0625,6.375,29.1875,275.0,-41.375,159.3125,0
1776973836.477,8.667,1.8794,-0.9864,-0.4104,0.3347,-0.3448,-68.55,-6.75,9.9,9.8952,-3.4979,3.0861,1.7344,-2.237,-1.4671,-75.6,-5.25,8.25,-6.25,-4.53,-8.12,-0.7254,1.8184,-2.7162,31.0625,6.375,29.1875,229.9375,-39.9375,158.8125,0
1776973836.481,8.5114,2.2936,-0.9601,-0.3208,0.3238,-0.2777,-68.55,-6.75,9.9,9.8067,-3.7517,2.7821,1.5473,-2.2868,-1.4989,-75.9,-4.95,7.35,-6.25,-4.53,-8.12,-0.7254,1.8184,-2.7162,31.0625,6.375,29.1875,229.9375,-39.9375,158.8125,0
1776973836.487,8.5114,2.2936,-0.9601,-0.3208,0.3238,-0.2777,-68.55,-6.75,9.9,9.8067,-3.7517,2.7821,1.5473,-2.2868,-1.4989,-75.9,-4.95,7.35,-6.26,-4.69,-8.41,-0.6425,1.7519,-2.8242,28.875,9.5625,31.1875,228.375,-38.4375,158.25,0
1776973836.491,8.4827,2.6432,-0.8691,-0.1727,0.3166,-0.1729,-68.55,-5.55,11.4,9.7109,-3.7565,2.6671,1.3384,-2.3329,-1.5487,-75.45,-4.2,7.65,-6.26,-4.69,-8.41,-0.6425,1.7519,-2.8242,28.875,9.5625,31.1875,228.375,-38.4375,158.25,0
1776973836.496,8.4827,2.6432,-0.8691,-0.1727,0.3166,-0.1729,-68.55,-5.55,11.4,9.7109,-3.7565,2.6671,1.3384,-2.3329,-1.5487,-75.45,-4.2,7.65,-6.45,-4.57,-8.73,-0.625,1.6853,-2.8383,28.875,9.5625,31.1875,226.875,-37.0,157.75,0
1776973836.501,8.7173,2.9042,-1.0175,-0.0306,0.2638,-0.0818,-68.1,-4.2,12.6,9.821,-3.7158,2.1428,1.1421,-2.3233,-1.6004,-75.45,-4.2,7.65,-6.45,-4.57,-8.73,-0.6338,1.621,-2.7762,28.875,9.5625,31.1875,225.375,-35.5625,157.3125,0
1776973836.507,8.7173,2.9042,-1.0175,-0.0306,0.2638,-0.0818,-68.1,-4.2,12.6,9.8258,-3.5027,2.3535,1.0206,-2.3084,-1.6739,-75.45,-4.2,7.65,-6.84,-4.53,-9.1,-0.6338,1.621,-2.7762,28.875,9.5625,31.1875,223.9375,-34.1875,157.0,0
1776973836.517,8.7221,3.1795,-1.1396,-0.0197,0.2811,0.0056,-68.4,-5.7,12.9,9.9311,-3.146,2.0542,0.8497,-2.2868,-1.7056,-76.65,-1.05,4.8,-7.11,-4.52,-9.35,-0.6687,1.6122,-2.6474,28.875,9.5625,31.1875,223.9375,-34.1875,157.0,0
1776973836.527,8.7963,3.3351,-1.1732,0.0232,0.2137,0.0701,-68.4,-6.15,13.95,9.9431,-2.739,1.8747,0.6678,-2.2918,-1.7496,-77.7,-1.5,3.6,-6.78,-4.02,-9.47,-0.7352,1.6493,-2.4653,28.875,9.5625,31.1875,222.625,-32.8125,156.8125,0
