timestamp,thigh_acc_x,thigh_acc_y,thigh_acc_z,thigh_gyro_x,thigh_gyro_y,thigh_gyro_z,thigh_mag_x,thigh_mag_y,thigh_mag_z,shank_acc_x,shank_acc_y,shank_acc_z,shank_gyro_x,shank_gyro_y,shank_gyro_z,shank_mag_x,shank_mag_y,shank_mag_z,foot_acc_x,foot_acc_y,foot_acc_z,foot_gyro_x,foot_gyro_y,foot_gyro_z,foot_mag_x,foot_mag_y,foot_mag_z,foot_euler_x,foot_euler_y,foot_euler_z,perturbation_event
405.790,9.4739,3.7469,-2.0183,1.0184,-0.0711,-0.2297,-63.4500,16.8000,35.8500,9.4834,0.6608,-1.8699,1.3640,0.1868,-0.0679,-57.6000,9.0000,-1.8000,3.7500,3.5800,-8.1400,-0.2869,0.2640,-0.1167,-22.0625,-24.1875,19.2500,224.8125,21.7500,-153.6250,0
405.794,9.4739,3.7469,-2.0183,1.0184,-0.0711,-0.2297,-63.4500,16.8000,35.8500,9.3541,0.3974,-1.7071,1.3640,0.1868,-0.0679,-57.6000,9.0000,-1.8000,4.0400,3.6700,-8.0700,-0.2913,0.3229,-0.1745,-22.5000,-24.5000,19.2500,224.6875,21.8750,-153.3750,0
405.800,9.5002,3.6727,-2.1620,1.2052,-0.0661,-0.2854,-63.1500,17.2500,35.5500,9.3541,0.3974,-1.7071,1.6105,0.2947,-0.0738,-57.6000,9.0000,-1.8000,4.0400,3.6700,-8.0700,-0.2913,0.3229,-0.1745,-22.5000,-24.5000,19.2500,224.6875,21.8750,-153.3750,0
405.804,9.5002,3.6727,-2.1620,1.2052,-0.0661,-0.2854,-63.1500,17.2500,35.5500,9.2392,0.2849,-1.2785,1.6105,0.2947,-0.0738,-58.6500,7.9500,-2.7000,4.2900,4.7000,-7.6300,-0.3196,0.4276,-0.3338,-22.5000,-24.5000,19.2500,224.5000,22.0000,-153.1250,0
405.809,9.4930,3.4069,-2.2649,1.3699,-0.1031,-0.3493,-63.3000,15.4500,35.7000,9.2392,0.2849,-1.2785,1.6643,0.3760,-0.0802,-58.6500,7.9500,-2.7000,4.2900,4.7000,-7.6300,-0.3196,0.4276,-0.3338,-22.5000,-24.5000,19.2500,224.1250,22.1875,-152.8125,0
405.817,9.4930,3.4069,-2.2649,1.3699,-0.1031,-0.3493,-63.3000,16.9500,35.4000,9.3853,0.0670,-1.4389,1.6662,0.4253,-0.0890,-58.6500,7.9500,-2.7000,4.3900,4.7900,-7.5200,-0.2738,0.5509,-0.5029,-22.5000,-24.5000,19.2500,223.7500,22.2500,-152.5000,0
405.827,9.3685,3.0861,-2.3727,1.4903,-0.1308,-0.4229,-63.9000,15.7500,34.5000,9.3996,-0.1389,-0.9960,1.6800,0.4786,-0.1231,-58.6500,7.9500,-0.4500,3.8000,2.1800,-8.8300,-0.2029,0.5661,-0.6523,-22.5000,-24.5000,19.2500,223.7500,22.2500,-152.5000,0
405.838,9.3877,2.2218,-2.2410,1.5671,-0.1644,-0.5249,-63.9000,15.7500,34.5000,9.5529,-0.4429,-0.9337,1.5625,0.4986,-0.1615,-56.8500,8.5500,-4.3500,3.9500,2.8800,-8.5800,-0.2040,0.4887,-0.6250,-22.5000,-24.5000,19.2500,223.3750,22.3750,-152.1875,0
405.843,9.3877,2.2218,-2.2410,1.5671,-0.1644,-0.5249,-63.9000,15.7500,34.5000,9.3494,-0.5842,-0.4166,1.5625,0.4986,-0.1615,-58.8000,9.3000,-0.6000,3.9500,2.8800,-8.5800,-0.2040,0.4887,-0.6250,-23.1875,-23.5000,17.3750,223.0000,22.3750,-151.9375,0
405.848,9.3039,1.8483,-2.1476,1.5005,-0.1434,-0.5287,-62.4000,14.5500,35.2500,9.3494,-0.5842,-0.4166,1.4053,0.5385,-0.1974,-58.8000,9.3000,-0.6000,3.6200,4.5700,-7.6500,-0.2280,0.3818,-0.6196,-23.1875,-23.5000,17.3750,223.0000,22.3750,-151.9375,0
405.853,9.3039,1.8483,-2.1476,1.5005,-0.1434,-0.5287,-62.4000,14.5500,35.2500,9.1004,-0.1844,0.2107,1.4053,0.5385,-0.1974,-57.0000,9.1500,-2.7000,3.6200,4.5700,-7.6500,-0.2280,0.3818,-0.6196,-23.1875,-23.5000,17.3750,222.5625,22.5000,-151.6250,0
405.858,9.2488,1.5131,-2.1979,1.4575,-0.1026,-0.5492,-60.7500,16.9500,35.4000,9.1004,-0.1844,0.2107,1.2071,0.5748,-0.2284,-57.0000,9.1500,-2.7000,4.3000,4.7100,-7.5100,-0.1898,0.5367,-0.6512,-23.1875,-23.5000,17.3750,222.5625,22.5000,-151.6250,0
405.864,9.2488,1.5131,-2.1979,1.4575,-0.1026,-0.5492,-60.7500,16.9500,35.4000,8.7819,-0.0886,0.0407,0.9827,0.6443,-0.2086,-57.0000,8.7000,-1.9500,4.3800,4.5500,-7.6700,-0.1113,0.6054,-0.7472,-23.1875,-23.5000,17.3750,222.1250,22.5625,-151.3125,0
405.869,8.6000,1.5490,-1.9848,1.3955,-0.1428,-0.5828,-61.3500,15.3000,36.3000,8.7819,-0.0886,0.0407,0.9827,0.6443,-0.2086,-57.0000,8.7000,-1.9500,4.3800,4.5500,-7.6700,-0.1113,0.6054,-0.7472,-23.1875,-23.5000,17.3750,221.4375,22.5625,-151.2500,0
405.877,8.1666,1.3551,-2.1548,1.3339,-0.1583,-0.6502,-59.8500,15.3000,36.6000,8.4491,-1.5706,1.6041,0.9270,0.8748,0.0149,-57.3000,9.7500,-2.1000,0.4500,10.4200,-10.7000,0.3163,0.5672,-1.0003,-23.1875,-23.5000,17.3750,219.6875,22.7500,-152.1875,0
405.888,7.8482,1.2713,-2.0686,1.2913,-0.1164,-0.6792,-60.9000,15.0000,36.6000,8.8370,-1.0104,2.1715,0.9310,0.9966,0.3448,-57.3000,9.7500,-2.1000,12.5000,-9.0800,-6.7800,2.8089,1.4759,-2.1817,-23.1875,-23.5000,17.3750,219.6875,22.7500,-152.1875,0
405.892,7.8482,1.2713,-2.0686,1.2913,-0.1164,-0.6792,-60.9000,15.0000,36.6000,7.9799,1.3336,2.8587,1.3241,1.0501,0.4794,-57.0000,8.4000,-3.7500,12.5000,-9.0800,-6.7800,2.8089,1.4759,-2.1817,-23.1875,-23.5000,17.3750,219.6875,22.7500,-152.1875,0
405.897,7.7907,1.2905,-1.5945,1.0965,0.0490,-0.6915,-60.9000,15.0000,36.6000,7.9799,1.3336,2.8587,1.3241,1.0501,0.4794,-57.0000,8.4000,-3.7500,14.3600,-4.3200,-7.3100,2.6758,2.5296,-2.3955,-22.0625,-26.0000,17.6875,217.6875,23.3750,-152.8750,0
405.902,7.7907,1.2905,-1.5945,1.0965,0.0490,-0.6915,-60.9000,15.0000,36.6000,8.2552,1.8411,3.1484,2.0073,1.1639,0.2753,-57.0000,8.4000,-3.7500,14.3600,-4.3200,-7.3100,2.6758,2.5296,-2.3955,-22.0625,-26.0000,17.6875,217.6875,23.3750,-152.8750,0
405.907,7.8961,1.1899,-1.0846,0.8426,0.2667,-0.6742,-59.8500,16.5000,36.6000,8.2552,1.8411,3.1484,2.0073,1.1639,0.2753,-57.0000,8.4000,-3.7500,7.3500,1.5400,-6.7000,1.6799,1.0996,-2.6082,-22.0625,-26.0000,17.6875,215.9375,23.2500,-153.1875,0
405.912,7.8961,1.1899,-1.0846,0.8426,0.2667,-0.6742,-59.8500,16.5000,36.6000,8.6622,1.8459,3.2801,2.7728,1.4221,-0.0261,-58.2000,10.3500,-1.6500,7.3500,1.5400,-6.7000,1.4759,0.9283,-2.4129,-22.0625,-26.0000,17.6875,214.3125,23.1250,-153.3750,0
405.918,8.2265,1.0942,-0.8954,0.8423,0.3701,-0.6209,-58.6500,15.4500,36.7500,8.6622,1.8459,3.2801,2.7728,1.4221,-0.0261,-58.2000,10.3500,-1.6500,5.5200,2.6800,-6.3900,1.4759,0.9283,-2.4129,-22.0625,-26.0000,17.6875,212.6875,23.3750,-153.5625,0
405.927,8.1283,0.9242,-0.9481,0.9233,0.4128,-0.5510,-57.1500,16.9500,36.7500,8.0876,1.2857,4.3646,3.2447,1.5015,-0.2102,-58.6500,10.6500,-2.4000,9.4200,-0.5600,-5.7000,1.4759,1.5577,-2.1904,-22.0625,-26.0000,17.6875,212.6875,23.3750,-153.5625,0
405.938,8.1187,0.9146,-0.7709,1.0293,0.3861,-0.4706,-55.6500,16.9500,36.7500,8.2217,-0.0407,4.1731,3.4251,1.5948,-0.1921,-58.3500,9.0000,-2.8500,5.7300,-0.2600,-4.8300,1.0799,1.5653,-2.2002,-22.0625,-26.0000,17.6875,211.1875,23.5625,-153.5000,0
405.942,8.1187,0.9146,-0.7709,1.0293,0.3861,-0.4706,-55.6500,16.9500,36.7500,8.9902,-1.2665,4.3766,3.1357,1.6651,-0.0877,-58.3500,9.0000,-2.8500,5.7300,-0.2600,-4.8300,1.0799,1.5653,-2.2002,-22.0625,-26.0000,17.6875,209.5625,23.8750,-153.3125,0
405.947,8.1810,0.7901,-0.6440,1.0296,0.5279,-0.4143,-55.6500,16.9500,36.7500,8.9902,-1.2665,4.3766,3.1357,1.6651,-0.0877,-57.0000,10.3500,-1.9500,6.3100,0.5200,-6.2200,0.9032,1.6712,-2.2460,-20.6875,-25.6875,18.5000,209.5625,23.8750,-153.3125,0
405.952,8.1810,0.7901,-0.6440,1.0296,0.5279,-0.4143,-55.6500,16.9500,36.7500,9.1650,-1.9968,4.2952,2.4952,1.6843,0.0245,-58.3500,10.5000,-1.3500,6.3100,0.5200,-6.2200,0.9032,1.6712,-2.2460,-20.6875,-25.6875,18.5000,208.0000,24.1875,-153.2500,0
405.957,8.8945,0.7829,-0.7063,1.0341,0.6059,-0.3776,-56.4000,18.9000,36.7500,9.0190,-2.8371,3.7900,2.4952,1.6843,0.0245,-58.3500,10.5000,-1.3500,7.8800,1.0600,-9.4300,1.0308,1.8326,-2.1893,-20.6875,-25.6875,18.5000,208.0000,24.1875,-153.2500,0
405.962,8.8945,0.7829,-0.7063,1.0341,0.6059,-0.3776,-56.4000,18.9000,36.7500,9.0190,-2.8371,3.7900,1.7824,1.6398,0.0813,-58.3500,10.5000,-1.3500,7.8800,1.0600,-9.4300,1.2490,1.5784,-2.0508,-20.6875,-25.6875,18.5000,206.5000,24.5000,-153.2500,0
405.968,9.2081,0.3759,-0.4310,0.9531,0.5577,-0.3704,-54.4500,17.5500,37.3500,8.9328,-2.7557,3.4069,1.1959,1.5449,0.0757,-57.0000,9.9000,-1.6500,6.5600,0.3800,-9.3600,1.2490,1.5784,-2.0508,-20.6875,-25.6875,18.5000,205.1250,24.6250,-153.4375,0
405.978,9.2153,0.2274,0.3232,0.8087,0.5833,-0.3613,-55.3500,18.9000,37.8000,8.5353,-2.0111,2.9449,0.7043,1.3712,0.0181,-57.0000,9.9000,-1.6500,4.8500,0.0400,-8.7500,1.2763,1.2425,-1.8642,-20.6875,-25.6875,18.5000,205.1250,24.6250,-153.4375,0
405.988,9.0118,-0.0311,1.0702,0.7035,0.7741,-0.3032,-54.6000,19.2000,37.8000,8.3941,-1.4916,2.5259,0.3930,1.1762,-0.0544,-57.4500,10.3500,-0.9000,4.1100,1.8300,-8.9900,1.0843,1.0854,-1.6057,-20.6875,-25.6875,18.5000,203.9375,24.7500,-153.5000,0
405.992,9.1985,-0.3974,1.4676,0.6923,0.8529,-0.2278,-54.6000,19.2000,37.8000,8.3941,-1.4916,2.5259,0.3930,1.1762,-0.0544,-57.4500,10.3500,-0.9000,4.1100,1.8300,-8.9900,1.0843,1.0854,-1.6057,-20.6875,-25.6875,18.5000,203.9375,24.7500,-153.5000,0
405.998,9.1985,-0.3974,1.4676,0.6923,0.8529,-0.2278,-54.4500,18.7500,38.4000,8.5712,-1.2953,1.9178,0.2041,0.9622,-0.1255,-57.4500,10.3500,-0.9000,2.5000,2.7200,-8.5300,0.8847,0.7941,-1.3439,-19.5000,-26.6875,18.8750,202.9375,24.8125,-153.6250,0
406.002,8.7700,-0.8763,1.6113,0.8876,0.6736,-0.1490,-54.4500,18.7500,38.4000,8.5712,-1.2953,1.9178,0.2041,0.9622,-0.1255,-57.4500,10.3500,-0.9000,2.5000,2.7200,-8.5300,0.8847,0.7941,-1.3439,-19.5000,-26.6875,18.8750,202.9375,24.8125,-153.6250,0
406.008,8.7700,-0.8763,1.6113,0.8876,0.6736,-0.1490,-54.4500,18.7500,38.4000,9.2560,-0.6871,1.3575,0.0211,0.7037,-0.1471,-58.2000,11.4000,-0.9000,2.0700,4.6000,-8.1100,0.6654,0.4178,-1.1192,-19.5000,-26.6875,18.8750,202.1875,24.7500,-153.6875,0
406.013,8.8585,-1.4581,1.5251,0.7858,0.9910,-0.0536,-54.4500,18.7500,38.4000,9.2560,-0.6871,1.3575,0.0211,0.7037,-0.1471,-58.2000,11.4000,-0.9000,2.0700,4.6000,-8.1100,0.4265,-0.1069,-0.8639,-19.5000,-26.6875,18.8750,201.6875,24.5000,-153.7500,0
406.018,8.8585,-1.4581,1.5251,0.7858,0.9910,-0.0536,-53.7000,19.8000,37.3500,9.8378,-0.6560,0.1844,-0.2497,0.3547,-0.1375,-56.7000,10.3500,-1.6500,1.7200,5.5200,-8.6000,0.4265,-0.1069,-0.8639,-19.5000,-26.6875,18.8750,201.3125,24.0000,-153.6875,0
406.028,9.2871,-1.5778,1.4293,0.7266,0.9076,0.0192,-53.5500,19.9500,38.2500,10.9200,0.1724,-1.9585,-0.6043,-0.1378,-0.0890,-58.2000,11.1000,-1.9500,-4.8300,6.2200,-8.5500,0.1691,-0.6752,-0.8268,-19.5000,-26.6875,18.8750,200.9375,23.1250,-153.5000,0
406.038,9.6247,-1.7238,1.3886,0.5287,0.6891,0.1119,-53.4000,20.5500,38.4000,11.9327,3.3686,-2.4876,-0.4533,-0.5870,-0.1636,-58.2000,9.1500,-0.4500,-8.0900,6.3200,-8.8700,-0.2138,-1.2294,-0.9774,-19.5000,-26.6875,18.8750,200.9375,23.1250,-153.5000,0
406.043,10.2759,-1.4269,0.1437,0.1514,0.5971,0.2707,-54.7500,20.5500,37.3500,11.9327,3.3686,-2.4876,-0.4533,-0.5870,-0.1636,-58.2000,9.1500,-0.4500,-8.0900,6.3200,-8.8700,-0.2138,-1.2294,-0.9774,-19.5000,-26.6875,18.8750,200.9375,23.1250,-153.5000,0
406.048,10.2759,-1.4269,0.1437,0.1514,0.5971,0.2707,-54.7500,20.5500,37.3500,12.4666,7.5346,-2.5235,-0.2529,-0.7903,-0.4972,-57.3000,9.7500,-2.1000,-8.3200,10.7000,-5.7600,-0.5989,-1.3472,-0.9643,-18.7500,-27.0625,18.5000,200.6250,22.1875,-153.1250,0
406.053,13.1394,0.2849,-2.0782,-0.0077,0.6448,0.4114,-55.3500,19.9500,38.5500,12.4666,7.5346,-2.5235,-0.2529,-0.7903,-0.4972,-57.3000,9.7500,-2.1000,-8.3200,10.7000,-5.7600,-0.5989,-1.3472,-0.9643,-18.7500,-27.0625,18.5000,200.6250,22.1875,-153.1250,0
406.058,13.1394,0.2849,-2.0782,-0.0077,0.6448,0.4114,-55.3500,19.9500,38.5500,15.0739,1.6065,-4.9153,-0.0783,-0.3970,-0.7602,-58.0500,10.5000,-1.3500,11.5100,12.9000,-6.7500,0.1844,-0.7221,-0.7374,-18.7500,-27.0625,18.5000,200.3125,21.6875,-153.1250,0
406.063,15.4402,5.1356,-5.3343,0.4831,0.2811,0.3499,-55.3500,19.9500,38.5500,15.0739,1.6065,-4.9153,-0.0783,-0.3970,-0.7602,-58.0500,10.5000,-1.3500,11.5100,12.9000,-6.7500,0.9250,-0.6916,-0.4723,-18.7500,-27.0625,18.5000,200.0000,21.1875,-153.6250,0
406.068,15.4402,5.1356,-5.3343,0.4831,0.2811,0.3499,-55.3500,19.9500,38.5500,16.6229,-4.9249,-0.2442,-0.0168,0.3968,-0.6787,-58.0500,10.5000,-1.3500,5.2500,7.2000,-9.3100,0.9250,-0.6916,-0.4723,-18.7500,-27.0625,18.5000,199.7500,20.8125,-154.0000,0
406.078,14.7650,11.1043,-9.3685,1.1213,-0.4269,-0.0171,-57.0000,19.8000,37.0500,14.2359,-3.9672,4.0318,-1.0363,0.2510,-0.3701,-56.8500,10.5000,0.0000,-3.1900,2.7700,-11.3500,0.6872,-0.6392,-0.4396,-18.7500,-27.0625,18.5000,199.7500,20.8125,-154.0000,0
406.088,10.7811,12.1554,-3.0143,0.9611,-0.5151,-0.4786,-57.1500,19.2000,37.2000,7.6351,-3.9456,3.1963,-2.0544,-0.1074,-0.1708,-56.8500,10.5000,0.0000,-0.0800,2.0300,-9.8000,0.3927,-0.2465,0.0513,-18.7500,-27.0625,18.5000,199.8125,20.6875,-154.2500,0
406.093,10.6159,5.5761,0.5938,0.5598,-0.4503,-0.8018,-58.0500,18.3000,37.0500,4.7070,-3.6248,1.5730,-2.0544,-0.1074,-0.1708,-56.8500,10.5000,0.0000,-0.0800,2.0300,-9.8000,0.3927,-0.2465,0.0513,-18.7500,-27.0625,18.5000,199.8750,20.6250,-154.4375,0
406.098,10.6159,5.5761,0.5938,0.5598,-0.4503,-0.8018,-58.0500,18.3000,37.0500,4.7070,-3.6248,1.5730,-2.5349,-0.1745,-0.0767,-57.0000,9.9000,1.9500,4.8200,2.2700,-8.9600,0.2269,-0.1724,0.1844,-17.0000,-28.1875,20.8750,199.8750,20.6250,-154.4375,0
406.102,7.1898,-0.1077,-5.1188,0.2545,0.1601,-0.7594,-56.8500,18.4500,34.9500,7.7955,1.5371,1.7071,-2.5349,-0.1745,-0.0767,-57.0000,9.9000,1.9500,4.8200,2.2700,-8.9600,0.2269,-0.1724,0.1844,-17.0000,-28.1875,20.8750,199.8750,20.6250,-154.4375,0
406.107,7.1898,-0.1077,-5.1188,0.2545,0.1601,-0.7594,-56.8500,18.4500,34.9500,7.7955,1.5371,1.7071,-2.6649,-0.1468,-0.1700,-56.5500,11.2500,0.3000,2.7100,0.9900,-9.5400,0.0578,-0.2302,0.0698,-17.0000,-28.1875,20.8750,199.9375,20.5000,-154.5000,0
406.112,8.1259,-2.1979,-5.9161,-0.9569,0.9289,-0.5204,-56.8500,18.4500,34.9500,9.6486,7.3287,1.3336,-1.7304,-0.2707,-0.3128,-56.5500,11.2500,0.3000,2.7100,0.9900,-9.5400,-0.0524,-0.1178,0.0731,-17.0000,-28.1875,20.8750,200.0000,20.5000,-154.5000,0
406.119,8.7364,-1.3264,-3.5602,-1.3856,0.3283,-0.1580,-56.8500,18.4500,34.9500,9.6486,7.3287,1.3336,-1.7304,-0.2707,-0.3128,-57.3000,10.9500,1.0500,3.1400,2.2400,-8.4400,-0.0524,-0.1178,0.0731,-17.0000,-28.1875,20.8750,200.0000,20.5000,-154.4375,0
406.128,7.1850,0.7374,1.9680,-1.4392,0.1868,0.2105,-56.8500,18.4500,34.9500,9.6103,8.0972,0.6225,-0.0813,-0.1348,-0.3730,-56.2500,9.9000,0.4500,3.3100,4.8400,-7.9000,-0.1353,-0.0098,-0.0305,-17.0000,-28.1875,20.8750,199.9375,20.4375,-154.3125,0
406.138,6.6798,3.7038,4.3024,-1.4341,0.2502,0.3275,-58.6500,19.9500,37.2000,10.0724,5.1284,0.8284,1.2692,0.1820,-0.4008,-56.7000,10.3500,-0.1500,3.2100,4.8300,-7.9400,-0.1538,0.0098,-0.0731,-17.0000,-28.1875,20.8750,199.9375,20.4375,-154.3125,0
406.143,6.6798,3.7038,4.3024,-1.4341,0.2502,0.3275,-57.7500,19.5000,37.6500,10.2855,1.6041,1.6017,1.6481,0.3762,-0.3640,-56.7000,10.3500,-0.1500,3.2100,4.8300,-7.9400,-0.1538,0.0098,-0.0731,-17.0000,-28.1875,20.8750,199.9375,20.4375,-154.3125,0
406.148,7.8075,6.3973,2.3080,-1.1716,0.3166,0.2337,-57.7500,19.5000,37.6500,10.2855,1.6041,1.6017,1.6481,0.3762,-0.3640,-56.8500,12.9000,0.0000,3.3500,4.9800,-7.8100,-0.1004,0.0164,-0.0447,-16.5000,-28.1875,20.5000,199.9375,20.4375,-154.2500,0
406.153,7.8075,6.3973,2.3080,-1.1716,0.3166,0.2337,-57.3000,22.0500,38.1000,9.8426,-0.4597,1.7334,1.2169,0.3757,-0.2657,-56.8500,12.9000,0.0000,3.3500,4.9800,-7.8100,-0.1004,0.0164,-0.0447,-16.5000,-28.1875,20.5000,199.9375,20.4375,-154.2500,0
406.158,8.6311,8.2169,2.2721,-0.5833,0.3541,0.1311,-57.3000,22.0500,38.1000,9.8426,-0.4597,1.7334,1.2169,0.3757,-0.2657,-56.8500,12.9000,0.0000,3.5800,4.1100,-8.0200,0.0185,-0.0055,-0.0240,-16.5000,-28.1875,20.5000,199.9375,20.4375,-154.2500,0
406.163,8.6311,8.2169,2.2721,-0.5833,0.3541,0.1311,-55.6500,22.9500,38.2500,9.2296,-0.9385,1.9656,0.4652,0.2563,-0.1884,-56.8500,12.9000,0.0000,3.5800,4.1100,-8.0200,0.0971,-0.0556,-0.0229,-16.5000,-28.1875,20.5000,199.9375,20.4375,-154.3125,0
406.169,9.2656,8.9591,2.3703,0.2340,0.4034,0.0618,-55.6500,22.9500,38.2500,8.6359,0.0407,2.5690,0.4652,0.2563,-0.1884,-56.2500,9.9000,0.4500,3.4100,4.0600,-8.0800,0.0971,-0.0556,-0.0229,-16.5000,-28.1875,20.5000,199.8750,20.3750,-154.3750,0
406.178,9.6822,8.3270,1.6017,0.7416,0.4887,0.0165,-55.6500,22.9500,38.2500,8.6359,0.0407,2.5690,-0.2374,0.0882,-0.1162,-56.2500,9.9000,0.4500,3.4500,4.4500,-7.9200,0.1396,-0.0862,-0.0229,-16.5000,-28.1875,20.5000,199.8750,20.3125,-154.5000,0
406.188,9.2344,6.2465,0.8428,1.0461,0.5854,0.0155,-54.7500,22.0500,38.4000,9.7133,2.1189,2.4349,-0.6995,-0.0147,-0.0573,-56.1000,10.9500,1.0500,3.6700,4.6900,-7.7900,0.2280,-0.1167,-0.0229,-16.5000,-28.1875,20.5000,199.8750,20.3125,-154.5000,0
406.193,9.2344,6.2465,0.8428,1.0461,0.5854,0.0155,-54.0000,21.3000,38.1000,9.7133,2.1189,2.4349,-0.7410,-0.0245,-0.0045,-56.1000,10.9500,1.0500,3.6700,4.6900,-7.7900,0.2280,-0.1167,-0.0229,-15.8750,-27.0625,21.2500,199.8125,20.2500,-154.6875,0
406.198,8.8609,4.1875,0.6512,1.2905,0.5814,0.0637,-54.0000,21.3000,38.1000,10.3022,2.1189,2.4636,-0.7410,-0.0245,-0.0045,-56.8500,10.5000,1.0500,3.5600,4.2700,-8.0300,0.2923,-0.1516,-0.0371,-15.8750,-27.0625,21.2500,199.8125,20.2500,-154.6875,0
406.203,8.8609,4.1875,0.6512,1.2905,0.5814,0.0637,-52.9500,21.7500,39.1500,10.3022,2.1189,2.4636,-0.3997,0.0157,0.0253,-56.8500,10.5000,1.0500,3.5600,4.2700,-8.0300,0.2923,-0.1516,-0.0371,-15.8750,-27.0625,21.2500,199.8125,20.1250,-154.8750,0
406.208,9.4643,2.7821,1.1564,1.4421,0.1788,0.1396,-52.9500,21.7500,39.1500,10.2759,1.9010,2.3966,0.0059,0.0568,0.0248,-56.8500,12.0000,1.3500,3.3800,4.1500,-8.1400,0.3076,-0.1920,-0.0513,-15.8750,-27.0625,21.2500,199.8125,20.1250,-154.8750,0
406.213,9.4643,2.7821,1.1564,1.4421,0.1788,0.1396,-53.8500,21.1500,40.3500,10.2759,1.9010,2.3966,0.0059,0.0568,0.0248,-56.8500,12.0000,1.3500,3.3800,4.1500,-8.1400,0.2847,-0.1909,-0.0578,-15.8750,-27.0625,21.2500,199.7500,20.0000,-155.0000,0
406.219,9.5600,1.6759,0.8595,1.4839,0.6046,0.2113,-53.8500,21.1500,40.3500,10.0269,1.5778,2.3894,0.3805,0.0722,0.0043,-55.5000,10.6500,1.9500,3.2700,3.9000,-8.2900,0.2847,-0.1909,-0.0578,-15.8750,-27.0625,21.2500,199.7500,19.9375,-155.1250,0
406.228,9.9934,1.4820,0.6393,1.5580,0.4421,0.2118,-53.1000,21.1500,39.0000,9.7947,1.2139,2.7150,0.6664,0.0746,-0.0163,-57.3000,10.0500,0.3000,3.0900,3.8400,-8.4800,0.2323,-0.1342,-0.0545,-15.8750,-27.0625,21.2500,199.7500,19.9375,-155.1250,0
406.238,9.8617,1.6113,0.8667,1.4621,0.5782,0.2097,-53.1000,21.1500,39.0000,9.7157,1.0223,2.8347,0.8039,0.0498,-0.0312,-57.0000,11.4000,0.1500,3.2200,3.7000,-8.3600,0.1942,-0.0556,-0.0327,-15.8750,-27.0625,21.2500,199.6875,19.8750,-155.2500,0
406.243,9.8617,1.6113,0.8667,1.4621,0.5782,0.2097,-54.0000,21.0000,39.4500,9.7157,1.0223,2.8347,0.8039,0.0498,-0.0312,-57.0000,11.4000,0.1500,3.2200,3.7000,-8.3600,0.1942,-0.0556,-0.0327,-15.8750,-27.0625,21.2500,199.6875,19.8750,-155.2500,0
406.248,10.4675,2.2075,0.7183,1.3590,0.5359,0.2361,-54.0000,21.0000,39.4500,9.8258,0.7230,2.9497,0.8492,0.0224,-0.0290,-57.0000,11.4000,0.1500,3.2900,3.6600,-8.4000,0.1756,-0.0164,-0.0218,-15.3750,-28.5625,21.2500,199.5000,19.8750,-155.3750,0
406.253,10.4675,2.2075,0.7183,1.3590,0.5359,0.2361,-54.6000,22.6500,39.0000,9.8258,0.7230,2.9497,0.8492,0.0224,-0.0290,-57.0000,11.4000,0.1500,3.2900,3.6600,-8.4000,0.1756,-0.0164,-0.0218,-15.3750,-28.5625,21.2500,199.5000,19.8750,-155.3750,0
406.258,9.8019,2.2410,0.6057,1.2526,0.5305,0.2438,-54.6000,22.6500,39.0000,9.9072,0.3687,2.8419,0.7831,0.0011,-0.0016,-55.5000,10.3500,-0.1500,3.3100,3.6900,-8.3900,0.1658,-0.0055,-0.0240,-15.3750,-28.5625,21.2500,199.5000,19.8750,-155.4375,0
406.263,9.8019,2.2410,0.6057,1.2526,0.5305,0.2438,-54.7500,19.8000,37.0500,9.9072,0.3687,2.8419,0.7831,0.0011,-0.0016,-55.5000,10.3500,-0.1500,3.3100,3.6900,-8.3900,0.1462,-0.0033,-0.0218,-15.3750,-28.5625,21.2500,199.5000,19.8750,-155.5000,0
406.269,10.5201,1.8651,0.6847,1.2894,0.5241,0.2427,-54.9000,21.4500,39.0000,9.8665,0.0431,2.5043,0.6265,-0.0200,0.0157,-55.5000,10.3500,-0.1500,3.3000,3.6900,-8.4100,0.1462,-0.0033,-0.0218,-15.3750,-28.5625,21.2500,199.4375,19.8750,-155.5625,0
406.278,9.8617,1.0175,-0.2729,1.0816,0.5556,0.2563,-54.9000,21.4500,39.0000,9.8306,-0.1844,2.4229,0.4559,-0.0488,0.0333,-55.5000,11.4000,0.1500,3.2700,3.6700,-8.3700,0.1124,0.0044,-0.0240,-15.3750,-28.5625,21.2500,199.4375,19.8750,-155.6250,0
406.288,9.6367,0.4262,0.0670,0.8359,0.6723,0.2862,-54.9000,21.4500,39.0000,9.7588,0.0359,2.2434,0.2332,-0.0733,0.0480,-55.8000,10.9500,1.0500,3.2200,3.7300,-8.3600,0.0774,0.0120,-0.0229,-15.3750,-28.5625,21.2500,199.4375,19.8750,-155.6250,0
406.293,9.4978,0.9744,0.4645,0.6957,0.6027,0.2990,-54.9000,21.4500,39.0000,9.7588,0.0359,2.2434,0.2332,-0.0733,0.0480,-55.8000,10.9500,1.0500,3.2200,3.7300,-8.3600,0.0774,0.0120,-0.0229,-15.3750,-28.5625,21.2500,199.4375,19.8750,-155.6250,0
406.298,9.4978,0.9744,0.4645,0.6957,0.6027,0.2990,-54.9000,21.4500,39.0000,9.5385,0.4262,2.0614,0.0269,-0.1021,0.0685,-56.2500,10.6500,-0.1500,3.3000,3.7400,-8.2800,0.0567,0.0164,-0.0164,-15.8750,-27.0625,20.0625,199.4375,19.8750,-155.6250,0
406.303,9.4643,1.8603,0.1389,0.4860,0.6017,0.3144,-57.9000,22.6500,36.1500,9.5385,0.4262,2.0614,0.0269,-0.1021,0.0685,-56.2500,10.6500,-0.1500,3.3000,3.7400,-8.2800,0.0567,0.0164,-0.0164,-15.8750,-27.0625,20.0625,199.4375,19.8750,-155.6250,0
406.308,9.4643,1.8603,0.1389,0.4860,0.6017,0.3144,-58.2000,23.7000,35.4000,9.6055,0.7661,1.8890,-0.0687,-0.1215,0.0933,-57.3000,9.7500,0.6000,3.2800,3.8100,-8.2600,0.0589,0.0175,-0.0196,-15.8750,-27.0625,20.0625,199.4375,19.8750,-155.6875,0
406.313,9.4355,2.6863,0.0814,0.3312,0.5793,0.3368,-58.2000,23.7000,35.4000,9.6103,1.1660,1.6520,-0.0687,-0.1215,0.0933,-57.3000,9.7500,0.6000,3.2800,3.8100,-8.2600,0.0535,0.0196,-0.0196,-15.8750,-27.0625,20.0625,199.3750,19.8750,-155.6875,0
406.319,9.4355,2.6863,0.0814,0.3312,0.5793,0.3368,-59.1000,23.2500,34.8000,9.6103,1.1660,1.6520,-0.0663,-0.1061,0.1087,-56.2500,10.3500,0.1500,3.3200,3.8200,-8.2800,0.0535,0.0196,-0.0196,-15.8750,-27.0625,20.0625,199.3750,19.8750,-155.6875,0
406.328,9.5122,3.3064,0.1676,0.2859,0.5556,0.3472,-59.8500,27.0000,35.8500,9.6247,1.6209,1.3910,0.0088,-0.1047,0.1215,-56.5500,10.5000,0.0000,3.2700,3.8000,-8.2800,0.0513,0.0207,-0.0218,-15.8750,-27.0625,20.0625,199.3750,19.8750,-155.6875,0
406.333,9.3829,3.5745,0.2418,0.3349,0.5247,0.3611,-59.8500,27.0000,35.8500,9.5217,1.6616,1.5586,0.0088,-0.1047,0.1215,-56.5500,10.5000,0.0000,3.2700,3.8000,-8.2800,0.0447,0.0251,-0.0196,-15.8750,-27.0625,20.0625,199.3750,19.8750,-155.7500,0
406.339,9.3829,3.5745,0.2418,0.3349,0.5247,0.3611,-59.8500,27.0000,35.8500,9.5217,1.6616,1.5586,0.1929,-0.0826,0.1276,-56.5500,10.5000,0.0000,3.1900,3.7800,-8.2800,0.0447,0.0251,-0.0196,-15.8750,-27.0625,20.0625,199.3750,19.8750,-155.7500,0
406.344,9.1028,3.6464,0.1963,0.4282,0.4810,0.3698,-59.8500,27.0000,35.8500,9.3829,1.7190,1.2953,0.3254,-0.0671,0.1162,-56.5500,10.5000,0.0000,3.1900,3.7800,-8.2800,0.0447,0.0251,-0.0196,-15.0625,-27.5000,21.7500,199.2500,19.8750,-155.7500,0
406.349,9.1028,3.6464,0.1963,0.4282,0.4810,0.3698,-62.1000,27.7500,34.8000,9.3829,1.7190,1.2953,0.3254,-0.0671,0.1162,-56.1000,10.5000,0.3000,3.2500,3.9400,-8.1800,0.0502,0.0295,-0.0175,-15.0625,-27.5000,21.7500,199.2500,19.8750,-155.7500,0
406.354,8.9399,3.7565,0.3232,0.5966,0.4485,0.3749,-62.1000,27.7500,34.8000,9.3661,1.4341,1.1133,0.4413,-0.0344,0.1151,-56.1000,10.5000,0.3000,3.2500,3.9400,-8.1800,0.0502,0.0295,-0.0175,-15.0625,-27.5000,21.7500,199.2500,19.9375,-155.7500,0
406.359,8.9399,3.7565,0.3232,0.5966,0.4485,0.3749,-63.7500,29.4000,35.4000,9.3661,1.4341,1.1133,0.4413,-0.0344,0.1151,-56.1000,10.5000,0.3000,3.2500,3.9100,-8.2300,0.0622,0.0327,-0.0175,-15.0625,-27.5000,21.7500,199.2500,19.9375,-155.7500,0
406.364,8.7652,3.5219,0.2251,0.7221,0.4455,0.3688,-63.7500,29.4000,35.4000,9.4260,1.1349,1.1061,0.5345,-0.0125,0.1271,-56.1000,10.5000,0.3000,3.2500,3.9100,-8.2300,0.0873,0.0273,-0.0185,-15.0625,-27.5000,21.7500,199.1875,19.9375,-155.8125,0
406.369,8.7652,3.5219,0.2251,0.8918,0.4743,0.3728,-64.3500,27.9000,33.6000,9.4260,1.1349,1.1061,0.5345,-0.0125,0.1271,-55.8000,10.0500,-0.3000,3.3100,3.9700,-8.1700,0.0873,0.0273,-0.0185,-15.0625,-27.5000,21.7500,199.1875,19.9375,-155.8125,0
406.378,8.8777,3.4500,0.1293,0.8918,0.4743,0.3728,-64.8000,31.6500,34.6500,9.2967,0.9337,1.0271,0.5188,0.0048,0.1364,-56.2500,10.3500,0.4500,3.3700,3.8800,-8.1600,0.1156,0.0295,-0.0207,-15.0625,-27.5000,21.7500,199.1875,19.9375,-155.8750,0
406.383,9.1051,3.5961,-0.1269,1.0224,0.4642,0.3656,-64.8000,31.6500,34.6500,9.3230,0.7829,1.0918,0.5023,0.0234,0.1535,-56.2500,10.3500,0.4500,3.3700,3.8800,-8.1600,0.1440,0.0196,-0.0196,-15.0625,-27.5000,21.7500,199.1875,19.9375,-155.9375,0
406.389,9.0932,3.3830,-0.0407,1.1064,0.5063,0.3619,-64.6500,32.5500,34.8000,9.3230,0.7829,1.0918,0.5023,0.0234,0.1535,-55.8000,12.9000,0.3000,3.3400,3.8100,-8.2000,0.1440,0.0196,-0.0196,-15.0625,-27.5000,21.7500,199.1875,19.9375,-155.9375,0
406.394,9.0932,3.3830,-0.0407,1.1064,0.5063,0.3619,-64.6500,32.5500,34.8000,9.3805,0.9146,1.1492,0.4735,0.0357,0.1641,-55.8000,12.9000,0.3000,3.3400,3.8100,-8.2000,0.1658,0.0153,-0.0240,-15.0625,-27.7500,21.6875,199.0625,19.9375,-156.0000,0
406.399,9.2129,2.9640,-0.3448,1.1935,0.5161,0.3496,-64.6500,32.5500,34.8000,9.3709,0.8691,1.1540,0.4735,0.0357,0.1641,-56.1000,10.5000,1.3500,3.3200,3.8600,-8.2200,0.1658,0.0153,-0.0240,-15.0625,-27.7500,21.6875,199.0625,19.9375,-156.0000,0
406.404,9.2129,2.9640,-0.3448,1.1935,0.5161,0.3496,-64.6500,32.5500,34.8000,9.3709,0.8691,1.1540,0.4628,0.0538,0.1727,-56.1000,10.5000,1.3500,3.3200,3.8600,-8.2200,0.1811,0.0120,-0.0229,-15.0625,-27.7500,21.6875,199.0000,19.9375,-156.0625,0
406.409,9.0884,2.7174,-0.1484,1.2441,0.5273,0.3307,-65.7000,34.8000,35.8500,9.3901,0.8045,1.2234,0.4628,0.0538,0.1727,-55.8000,10.5000,-0.6000,3.3200,3.8600,-8.2400,0.1811,0.0120,-0.0229,-15.0625,-27.7500,21.6875,199.0000,19.9375,-156.0625,0
406.414,9.0884,2.7174,-0.1484,1.2441,0.5273,0.3307,-65.7000,34.8000,35.8500,9.3901,0.8045,1.2234,0.4527,0.0568,0.1772,-55.8000,10.5000,-0.6000,3.3200,3.8600,-8.2400,0.1996,0.0065,-0.0229,-15.0625,-27.7500,21.6875,199.0000,19.9375,-156.1875,0
406.419,9.2440,2.6671,0.0215,1.2620,0.5300,0.3283,-64.9500,36.0000,34.5000,9.3733,0.5124,0.8643,0.4527,0.0568,0.1772,-57.3000,10.9500,0.0000,3.2900,3.7800,-8.2800,0.1996,0.0065,-0.0229,-15.0625,-27.7500,21.6875,199.0000,19.9375,-156.1875,0
406.428,9.4212,2.4445,-0.2035,1.2247,0.4927,0.3214,-65.7000,35.5500,33.7500,9.5265,0.6273,1.1109,0.4972,0.0978,0.1825,-57.3000,10.9500,0.0000,3.2700,3.6600,-8.2800,0.2094,0.0033,-0.0218,-15.0625,-27.7500,21.6875,198.9375,19.9375,-156.3125,0
406.433,9.4212,2.4445,-0.2035,1.2247,0.4927,0.3214,-65.7000,35.5500,33.7500,9.5265,0.6273,1.1109,0.5316,0.1154,0.1887,-57.3000,10.9500,0.0000,3.2700,3.6600,-8.2800,0.1996,0.0098,-0.0185,-15.0625,-27.7500,21.6875,198.8750,19.9375,-156.3750,0
406.440,9.4044,2.3679,-0.1269,1.2303,0.4991,0.3176,-64.2000,36.7500,34.2000,9.4403,0.6440,1.1564,0.5023,0.1516,0.1876,-55.9500,10.6500,0.4500,3.3300,3.5600,-8.2800,0.1996,0.0098,-0.0185,-15.0625,-27.7500,21.6875,198.8750,19.9375,-156.3750,0
406.445,9.4044,2.3679,-0.1269,1.2303,0.4991,0.3176,-64.2000,36.7500,34.2000,9.4403,0.6440,1.1564,0.5023,0.1516,0.1876,-55.9500,10.6500,0.4500,3.2400,3.3800,-8.3700,0.1724,0.0175,-0.0305,-15.1875,-27.5000,21.1875,198.8125,19.9375,-156.5000,0
406.450,9.6271,2.3296,-0.2993,1.1866,0.4674,0.3216,-64.2000,35.5500,34.5000,9.5888,0.5698,1.0343,0.5409,0.1735,0.2012,-55.9500,10.6500,0.4500,3.2400,3.3800,-8.3700,0.1724,0.0175,-0.0305,-15.1875,-27.5000,21.1875,198.8125,19.9375,-156.5000,0
406.454,9.6271,2.3296,-0.2993,1.1866,0.4674,0.3216,-64.2000,35.5500,34.5000,9.5888,0.5698,1.0343,0.5409,0.1735,0.2012,-55.9500,10.6500,0.4500,3.2400,3.3800,-8.3700,0.1396,0.0251,-0.0305,-15.1875,-27.5000,21.1875,198.8125,19.9375,-156.5625,0
406.459,9.6055,2.4636,-0.3879,1.1964,0.4016,0.3158,-64.2000,35.5500,34.5000,9.3757,0.4741,0.9720,0.4895,0.1924,0.1966,-55.0500,10.5000,0.6000,3.3300,3.3700,-8.3600,0.1396,0.0251,-0.0305,-15.1875,-27.5000,21.1875,198.8125,19.9375,-156.5625,0
406.464,9.6055,2.4636,-0.3879,1.1964,0.4016,0.3158,-64.2000,35.5500,34.5000,9.3757,0.4741,0.9720,0.4895,0.1924,0.1966,-55.0500,10.5000,0.6000,3.3300,3.3700,-8.3600,0.0982,0.0382,-0.0349,-15.1875,-27.5000,21.1875,198.7500,19.9375,-156.6250,0
406.470,9.3111,2.2697,-0.1437,1.1498,0.4186,0.3088,-65.1000,38.4000,35.4000,9.5050,0.3615,0.9816,0.4485,0.2297,0.2140,-57.0000,10.6500,-0.9000,3.3300,3.3300,-8.4100,0.0982,0.0382,-0.0349,-15.1875,-27.5000,21.1875,198.7500,19.9375,-156.6250,0
406.479,9.2488,1.8818,0.0000,1.0877,0.3645,0.3072,-64.2000,38.5500,34.5000,9.4164,0.5028,1.2546,0.4775,0.2451,0.2172,-55.2000,9.9000,-0.4500,3.2000,3.5200,-8.3500,0.0567,0.0480,-0.0447,-15.1875,-27.5000,21.1875,198.6875,20.0000,-156.6250,0
406.489,9.5433,1.5323,-0.0287,1.0072,0.3880,0.3072,-64.2000,38.2500,35.8500,9.4140,0.4549,1.3072,0.4610,0.2649,0.2262,-56.2500,11.4000,0.4500,3.2200,3.5700,-8.3700,0.0338,0.0633,-0.0491,-15.1875,-27.5000,21.1875,198.6875,20.0000,-156.6250,0
406.494,9.5433,1.5323,-0.0287,1.0072,0.3880,0.3072,-64.2000,38.2500,35.8500,9.4140,0.4549,1.3072,0.4610,0.2649,0.2262,-56.2500,11.4000,0.4500,3.2200,3.5700,-8.3700,0.0338,0.0633,-0.0491,-15.1875,-27.5000,21.1875,198.5000,20.0000,-156.6250,0
406.499,9.4044,1.5586,-0.2514,0.9518,0.3355,0.3088,-63.4500,39.3000,34.8000,9.4954,0.2634,1.3743,0.3395,0.2912,0.2606,-56.5500,10.9500,0.0000,3.3200,3.3300,-8.3500,0.0153,0.0764,-0.0458,-14.7500,-26.6875,23.1875,198.5000,20.0000,-156.6250,0
406.504,9.4044,1.5586,-0.2514,0.9518,0.3355,0.3088,-63.4500,39.3000,34.8000,9.4954,0.2634,1.3743,0.3395,0.2912,0.2606,-56.5500,10.9500,0.0000,3.3200,3.3300,-8.3500,0.0153,0.0764,-0.0458,-14.7500,-26.6875,23.1875,198.5000,20.0625,-156.5625,0
406.509,9.5026,1.6041,-0.0838,0.8402,0.3152,0.3104,-63.4500,39.3000,34.8000,9.6582,0.2753,1.4964,0.2332,0.3067,0.2798,-57.3000,10.9500,-0.3000,3.2800,3.4400,-8.3900,-0.0458,0.1047,-0.0545,-14.7500,-26.6875,23.1875,198.5000,20.0625,-156.5625,0
406.514,9.5026,1.6041,-0.0838,0.8402,0.3152,0.3104,-63.4500,39.3000,34.8000,9.6582,0.2753,1.4964,0.2332,0.3067,0.2798,-57.3000,10.9500,-0.3000,3.2800,3.4400,-8.3900,-0.0949,0.1276,-0.0535,-14.7500,-26.6875,23.1875,198.4375,20.1250,-156.5000,0
406.519,9.6199,1.5850,0.1365,0.6731,0.3203,0.3328,-63.9000,38.5500,35.8500,9.4810,0.4884,1.6041,0.1287,0.3230,0.2875,-57.3000,10.9500,-0.3000,3.1800,3.5500,-8.4600,-0.0949,0.1276,-0.0535,-14.7500,-26.6875,23.1875,198.4375,20.1250,-156.5000,0
406.529,9.3948,1.6855,0.4405,0.6126,0.1852,0.3320,-63.9000,37.5000,36.3000,9.5624,0.8954,1.3886,0.0464,0.3467,0.3040,-56.7000,10.3500,-0.4500,3.2800,3.5000,-8.3400,-0.1189,0.1440,-0.0480,-14.7500,-26.6875,23.1875,198.4375,20.1875,-156.4375,0
406.533,9.3948,1.6855,0.4405,0.6126,0.1852,0.3320,-63.9000,37.5000,36.3000,9.5624,0.8954,1.3886,0.0464,0.3467,0.3040,-56.7000,10.3500,-0.4500,3.2800,3.5000,-8.3400,-0.1320,0.1364,-0.0556,-14.7500,-26.6875,23.1875,198.3750,20.1875,-156.3750,0
406.540,9.3781,1.9872,0.5387,0.5391,0.2446,0.3432,-64.0500,40.2000,36.7500,9.5840,1.4485,1.5060,0.1079,0.3254,0.3032,-56.7000,10.3500,-0.4500,3.1000,3.6100,-8.2300,-0.1320,0.1364,-0.0556,-14.7500,-26.6875,23.1875,198.3750,20.1875,-156.3750,0
406.545,9.2632,2.1069,0.8859,0.4418,0.1577,0.3416,-64.2000,38.5500,35.8500,9.2751,1.5227,1.6664,0.1170,0.3243,0.3277,-56.7000,10.3500,-0.4500,3.1000,3.6100,-8.2300,-0.1178,0.1058,-0.0698,-15.8750,-27.0625,22.0625,198.3750,20.2500,-156.2500,0
406.550,9.2632,2.1069,0.8859,0.4418,0.1577,0.3416,-64.2000,38.5500,35.8500,9.2751,1.5227,1.6664,0.1170,0.3243,0.3277,-57.4500,10.6500,-0.9000,3.1300,3.8900,-8.2300,-0.1178,0.1058,-0.0698,-15.8750,-27.0625,22.0625,198.3750,20.2500,-156.2500,0
406.554,9.2847,2.2410,1.6089,0.3837,0.1998,0.3355,-63.9000,39.7500,36.3000,9.6079,1.2091,1.7406,0.1519,0.3291,0.3477,-57.4500,10.6500,-0.9000,3.1300,3.8900,-8.2300,-0.0894,0.0774,-0.0720,-15.8750,-27.0625,22.0625,198.3125,20.2500,-156.1875,0
406.560,9.2847,2.2410,1.6089,0.3837,0.1998,0.3355,-63.9000,39.7500,36.3000,9.6079,1.2091,1.7406,0.1519,0.3291,0.3477,-56.1000,9.7500,1.0500,3.3200,3.8600,-8.2000,-0.0894,0.0774,-0.0720,-15.8750,-27.0625,22.0625,198.3125,20.2500,-156.1875,0
406.564,9.3541,2.0806,1.4724,0.3107,0.2265,0.3480,-63.9000,39.7500,36.3000,9.7205,1.1636,2.6217,0.2558,0.3208,0.3483,-56.1000,9.7500,1.0500,3.3200,3.8600,-8.2000,-0.0425,0.0425,-0.0665,-15.8750,-27.0625,22.0625,198.2500,20.3125,-156.1250,0
406.570,9.3541,2.0806,1.4724,0.3107,0.2265,0.3480,-63.9000,39.7500,36.3000,9.7205,1.1636,2.6217,0.2558,0.3208,0.3483,-57.4500,10.6500,0.4500,3.2000,4.1800,-8.1800,-0.0425,0.0425,-0.0665,-15.8750,-27.0625,22.0625,198.2500,20.2500,-156.1250,0
406.579,9.5457,1.9680,1.4389,0.2697,0.2129,0.3685,-62.7000,42.0000,36.3000,9.5457,0.8835,2.9497,0.2707,0.2936,0.3549,-56.8500,10.5000,0.3000,3.3400,4.0900,-8.2200,0.0142,0.0120,-0.0513,-15.8750,-27.0625,22.0625,198.2500,20.2500,-156.1875,0
406.589,9.4810,2.1763,1.5107,0.2713,0.2204,0.3930,-63.1500,39.7500,37.6500,9.8114,0.1604,2.8276,0.2094,0.2915,0.3864,-56.7000,10.6500,-0.9000,3.4400,3.7800,-8.3500,0.0556,-0.0251,-0.0393,-15.8750,-27.0625,22.0625,198.2500,20.2500,-156.1875,0
406.594,9.7851,2.2482,1.6544,0.2446,0.2204,0.4362,-62.7000,42.0000,36.6000,9.9503,0.0838,2.6935,0.0973,0.2864,0.4221,-56.7000,10.6500,-0.9000,3.4400,3.7800,-8.3500,0.0556,-0.0251,-0.0393,-15.8750,-27.0625,22.0625,198.1875,20.2500,-156.1875,0
406.599,9.7851,2.2482,1.6544,0.2446,0.2204,0.4362,-62.7000,42.0000,36.6000,9.9503,0.0838,2.6935,0.0973,0.2864,0.4221,-57.0000,8.4000,0.4500,3.2700,3.6200,-8.4200,0.0567,-0.0393,-0.0273,-15.1875,-27.5000,21.1875,198.1875,20.2500,-156.1875,0
406.604,9.5193,2.1165,1.5826,0.2585,0.1977,0.4650,-63.0000,40.9500,38.5500,9.7109,0.4741,2.6145,0.0165,0.2651,0.4378,-57.0000,8.4000,0.4500,3.2700,3.6200,-8.4200,0.0567,-0.0393,-0.0273,-15.1875,-27.5000,21.1875,198.1875,20.1875,-156.2500,0
406.609,9.5193,2.1165,1.5826,0.2585,0.1977,0.4650,-63.0000,40.9500,38.5500,9.7109,0.4741,2.6145,0.0165,0.2651,0.4378,-57.0000,8.4000,0.4500,3.2400,3.6400,-8.4700,0.0436,-0.0425,-0.0240,-15.1875,-27.5000,21.1875,198.1875,20.1875,-156.2500,0
406.614,9.3182,2.1859,1.4964,0.2723,0.1609,0.4842,-61.5000,41.7000,38.5500,9.6007,1.0295,2.3176,-0.0109,0.2369,0.4631,-57.0000,8.4000,0.4500,3.2400,3.6400,-8.4700,0.0284,-0.0360,-0.0185,-15.1875,-27.5000,21.1875,198.1250,20.1875,-156.2500,0
406.620,9.3182,2.1859,1.4964,0.2723,0.1609,0.4842,-61.5000,41.7000,38.5500,9.6007,1.0295,2.3176,-0.0109,0.2369,0.4631,-57.0000,8.4000,0.9000,3.3400,3.6700,-8.4200,0.0284,-0.0360,-0.0185,-15.1875,-27.5000,21.1875,198.1250,20.1875,-156.2500,0
406.629,9.2799,2.1907,1.7382,0.3323,0.1703,0.4991,-61.5000,41.7000,38.5500,9.5624,1.3479,2.0303,0.0658,0.2214,0.4804,-57.0000,8.4000,0.9000,3.2000,3.8900,-8.3800,0.0098,-0.0371,-0.0175,-15.1875,-27.5000,21.1875,198.1250,20.1250,-156.2500,0
406.639,9.7181,2.1835,1.8651,0.4029,0.1511,0.4999,-61.2000,43.6500,40.0500,9.8330,1.2474,2.4900,0.2481,0.2233,0.5012,-55.8000,7.3500,0.6000,3.0500,4.1100,-8.3500,-0.0055,-0.0360,-0.0087,-15.1875,-27.5000,21.1875,198.1250,20.1250,-156.2500,0
406.644,9.6367,1.9201,1.9992,0.3936,0.1298,0.5023,-60.6000,44.2500,40.2000,9.6798,0.9050,2.3679,0.2316,0.1751,0.5377,-55.8000,7.3500,0.6000,3.0500,4.1100,-8.3500,-0.0055,-0.0360,-0.0087,-15.1875,-27.5000,21.1875,198.1250,20.1250,-156.2500,0
406.649,9.6367,1.9201,1.9992,0.3936,0.1298,0.5023,-60.6000,44.2500,40.2000,9.5289,0.3831,1.9944,0.2316,0.1751,0.5377,-55.8000,7.3500,0.6000,3.1600,4.1400,-8.3200,-0.0022,-0.0436,0.0044,-15.8750,-27.5000,21.2500,198.1875,20.1250,-156.2500,0
406.654,9.4978,2.0016,1.7980,0.4048,0.1031,0.4940,-60.9000,45.0000,39.4500,9.5289,0.3831,1.9944,0.2473,0.1764,0.5529,-55.9500,8.4000,1.2000,3.1600,4.1400,-8.3200,-0.0022,-0.0436,0.0044,-15.8750,-27.5000,21.2500,198.1875,20.1250,-156.2500,0
406.659,9.4978,2.0016,1.7980,0.4048,0.1031,0.4940,-60.9000,45.0000,39.4500,9.8114,0.2705,1.8100,0.2473,0.1764,0.5529,-57.4500,9.4500,1.2000,3.2600,3.9900,-8.3200,0.0000,-0.0491,0.0229,-15.8750,-27.5000,21.2500,198.1875,20.1250,-156.2500,0
406.664,9.6055,2.0087,1.5921,0.4431,0.0725,0.4994,-60.7500,45.9000,40.3500,9.8114,0.2705,1.8100,0.2286,0.1929,0.5905,-57.4500,9.4500,1.2000,3.2600,3.9900,-8.3200,-0.0055,-0.0425,0.0295,-15.8750,-27.5000,21.2500,198.1875,20.0625,-156.2500,0
406.670,9.5002,2.0973,1.1013,0.5028,0.0413,0.5012,-60.7500,45.9000,40.3500,9.4882,0.0000,1.6544,0.1812,0.2054,0.6158,-57.3000,8.1000,0.3000,3.2700,3.7800,-8.5400,-0.0055,-0.0425,0.0295,-15.8750,-27.5000,21.2500,198.2500,20.0625,-156.2500,0
406.679,9.5840,1.9848,0.6584,0.5300,0.0392,0.5025,-60.7500,45.9000,40.3500,9.2656,0.1125,1.4246,0.1700,0.2377,0.6243,-57.3000,10.0500,1.0500,3.2600,3.8400,-8.5400,-0.0393,-0.0175,0.0284,-15.8750,-27.5000,21.2500,198.2500,20.0625,-156.2500,0
406.686,9.5840,1.9848,0.6584,0.5300,0.0392,0.5025,-59.7000,47.7000,41.8500,9.2656,0.1125,1.4246,0.1700,0.2377,0.6243,-57.3000,10.0500,1.0500,3.2200,3.7500,-8.6500,-0.0796,0.0076,0.0295,-15.8750,-27.5000,21.2500,198.2500,20.0625,-156.1875,0
406.691,9.4236,1.8555,0.3519,0.6137,-0.0109,0.4935,-59.7000,47.7000,41.8500,9.3254,0.1197,1.4030,0.0882,0.2787,0.6448,-56.5500,9.7500,0.3000,3.2200,3.7500,-8.6500,-0.0796,0.0076,0.0295,-15.8750,-27.5000,21.2500,198.2500,20.0625,-156.1875,0
406.696,9.4236,1.8555,0.3519,0.6137,-0.0109,0.4935,-59.7000,48.9000,43.2000,9.3254,0.1197,1.4030,0.0882,0.2787,0.6448,-56.5500,9.7500,0.3000,3.3000,3.8600,-8.5900,-0.1364,0.0480,0.0327,-15.8750,-27.0625,21.6875,198.3125,20.1250,-156.1250,0
406.701,9.5816,2.0662,0.0096,0.6121,-0.0706,0.4802,-59.7000,48.9000,43.2000,9.4810,0.0479,1.2234,-0.0272,0.3230,0.6829,-56.5500,9.7500,0.3000,3.3000,3.8600,-8.5900,-0.1364,0.0480,0.0327,-15.8750,-27.0625,21.6875,198.3125,20.1250,-156.1250,0
406.706,9.5816,2.0662,0.0096,0.6121,-0.0706,0.4802,-58.6500,49.2000,43.9500,9.4810,0.0479,1.2234,-0.0272,0.3230,0.6829,-56.5500,9.7500,0.3000,3.3000,3.8600,-8.5900,-0.1865,0.0785,0.0207,-15.8750,-27.0625,21.6875,198.3125,20.1250,-156.0000,0
406.710,9.9024,2.6312,-0.1269,0.5689,-0.1463,0.4514,-58.6500,49.2000,43.9500,9.8426,0.3160,1.0056,-0.1178,0.3717,0.7344,-57.3000,9.0000,2.5500,3.2800,3.8800,-8.6100,-0.1865,0.0785,0.0207,-15.8750,-27.0625,21.6875,198.3125,20.1250,-156.0000,0
406.715,9.9024,2.6312,-0.1269,0.5689,-0.1463,0.4514,-59.2500,49.6500,43.2000,9.8426,0.3160,1.0056,-0.1178,0.3717,0.7344,-57.3000,9.0000,2.5500,3.3200,3.9400,-8.6200,-0.2356,0.1025,0.0011,-15.8750,-27.0625,21.6875,198.3125,20.1875,-155.8750,0
406.720,10.0341,3.3399,-0.1652,0.5084,-0.1943,0.4002,-59.2500,49.6500,43.2000,10.3837,0.7374,0.4310,-0.1783,0.4183,0.7869,-57.3000,9.0000,2.5500,3.3200,3.9400,-8.6200,-0.2356,0.1025,0.0011,-15.8750,-27.0625,21.6875,198.3125,20.2500,-155.6875,0
406.729,10.2592,3.8427,-0.3735,0.4191,-0.2811,0.3192,-58.6500,51.9000,44.2500,10.7141,0.0886,-0.1939,-0.1889,0.5231,0.8388,-58.0500,9.0000,2.5500,2.8700,3.9800,-9.1300,-0.3000,0.1440,-0.0076,-15.8750,-27.0625,21.6875,198.3125,20.3750,-155.4375,0
406.739,9.9048,3.7900,-0.4477,0.4831,-0.3312,0.2475,-58.6500,51.9000,44.2500,10.8936,-0.7111,-0.2322,-0.2870,0.6001,0.8977,-58.0500,6.9000,2.1000,2.7200,4.3500,-9.2900,-0.4014,0.2160,-0.0251,-15.8750,-27.0625,21.6875,198.3125,20.3750,-155.4375,0
406.744,9.9048,3.7900,-0.4477,0.4831,-0.3312,0.2475,-56.1000,56.4000,46.0500,10.8936,-0.7111,-0.2322,-0.2870,0.6001,0.8977,-56.8500,7.8000,1.3500,2.7200,4.3500,-9.2900,-0.4014,0.2160,-0.0251,-15.8750,-27.0625,21.6875,198.3125,20.5000,-155.1250,0
406.749,9.2632,3.5578,-1.0175,0.4938,-0.3336,0.1905,-56.1000,56.4000,46.0500,10.3094,-5.4061,0.5028,-0.1450,0.6736,1.0813,-56.8500,7.8000,1.3500,2.9900,4.8100,-9.0800,-0.4985,0.3262,-0.0393,-15.1875,-27.5000,21.2500,198.3125,20.5000,-155.1250,0
406.754,9.2632,3.5578,-1.0175,0.4938,-0.3336,0.1905,-56.1000,56.4000,47.1000,10.3094,-5.4061,0.5028,-0.1450,0.6736,1.0813,-58.0500,6.9000,1.0500,2.9900,4.8100,-9.0800,-0.4985,0.3262,-0.0393,-15.1875,-27.5000,21.2500,198.2500,20.7500,-154.8750,0
406.759,9.4308,3.0119,-1.6640,0.7578,-0.3341,0.1322,-56.1000,56.4000,47.1000,10.2807,0.8404,-0.6584,-0.7043,0.8545,1.3555,-58.0500,6.9000,1.0500,-1.2600,9.0700,-10.7700,-0.4461,0.4276,-0.0894,-15.1875,-27.5000,21.2500,198.2500,20.7500,-154.8750,0
406.764,9.4308,3.0119,-1.6640,0.7578,-0.3341,0.1322,-56.5500,58.0500,48.0000,10.2807,0.8404,-0.6584,-0.7043,0.8545,1.3555,-56.5500,7.3500,0.6000,-1.2600,9.0700,-10.7700,0.0589,0.7603,-0.5214,-15.1875,-27.5000,21.2500,197.8750,21.0000,-154.6875,0
406.770,11.7867,2.7174,-1.7669,0.9052,-0.1527,0.1106,-54.7500,58.8000,48.0000,11.3461,5.9089,0.2251,0.6089,0.8889,1.3363,-56.5500,7.8000,1.8000,4.7600,7.3100,-8.1500,0.0589,0.7603,-0.5214,-15.1875,-27.5000,21.2500,197.5000,21.4375,-154.5000,0
406.780,13.4650,2.6528,-2.5426,0.8271,-0.2822,0.1402,-55.2000,59.5500,48.0000,11.3270,5.2337,-1.0942,1.7387,1.0150,0.9489,-56.5500,7.8000,1.8000,2.0100,6.7100,-9.7700,-0.0644,1.0996,-0.4167,-15.1875,-27.5000,21.2500,197.5000,21.4375,-154.5000,0
406.790,12.4139,2.7653,-2.8778,0.7965,-0.6011,0.1074,-55.2000,59.5500,48.0000,12.8138,2.9808,-0.2298,1.9049,1.1000,0.9254,-59.5500,6.9000,2.8500,1.0800,8.4600,-9.3400,0.2160,1.3406,-0.1713,-15.1875,-27.5000,21.2500,197.2500,22.0625,-154.4375,0
406.794,12.4139,2.7653,-2.8778,0.7965,-0.6011,0.1074,-55.2000,59.5500,48.0000,12.2535,3.0047,-0.8021,1.5207,1.1293,1.1692,-59.5500,6.9000,2.8500,1.0800,8.4600,-9.3400,0.2160,1.3406,-0.1713,-15.1875,-27.5000,21.2500,197.0625,22.9375,-154.7500,0
406.799,11.0325,3.9073,-2.7797,0.8857,-0.7717,0.0285,-55.2000,59.5500,48.0000,12.2535,3.0047,-0.8021,1.5207,1.1293,1.1692,-59.5500,6.9000,2.8500,3.2200,6.7800,-8.2600,0.7876,1.6701,0.2171,-15.5000,-27.0625,20.5000,197.0625,22.9375,-154.7500,0
406.804,11.0325,3.9073,-2.7797,0.8857,-0.7717,0.0285,-55.8000,61.5000,46.2000,12.1985,3.3255,-0.5171,0.8567,1.0467,1.3486,-58.6500,5.2500,3.0000,3.2200,6.7800,-8.2600,0.7876,1.6701,0.2171,-15.5000,-27.0625,20.5000,197.0625,22.9375,-154.7500,0
406.809,9.6295,5.8203,-2.6049,1.0083,-0.9076,-0.1314,-54.7500,65.2500,48.4500,12.1985,3.3255,-0.5171,0.8567,1.0467,1.3486,-58.6500,5.2500,3.0000,2.1300,6.4800,-8.2200,1.0614,1.8391,0.6720,-15.5000,-27.0625,20.5000,197.0625,24.0625,-155.3125,0
406.814,9.6295,5.8203,-2.6049,1.0083,-0.9076,-0.1314,-54.7500,65.2500,48.4500,11.7483,4.1851,-0.5626,0.5265,1.0531,1.4488,-58.6500,5.2500,3.0000,2.1300,6.4800,-8.2200,0.9807,2.2013,1.0025,-15.5000,-27.0625,20.5000,197.2500,25.3750,-155.8750,0
406.820,8.2839,7.0437,-2.1093,1.0850,-0.8116,-0.3800,-55.5000,66.3000,46.2000,11.7483,4.1851,-0.5626,0.5265,1.0531,1.4488,-58.0500,5.2500,3.0000,3.8100,7.2200,-7.6900,0.9807,2.2013,1.0025,-15.5000,-27.0625,20.5000,197.5000,26.8750,-156.3125,0
406.830,7.8290,7.3933,-1.5921,1.1660,-0.6467,-0.6630,-55.2000,66.3000,45.6000,11.4251,3.4285,0.5411,0.4493,1.1141,1.5170,-58.0500,3.9000,2.8500,5.9900,7.2000,-7.4700,0.7636,2.4358,1.0930,-15.5000,-27.0625,20.5000,197.8125,28.4375,-156.9375,0
406.840,8.1475,7.1228,-0.9050,1.2151,-0.5508,-0.9241,-55.2000,66.3000,45.6000,11.1594,2.7007,0.1772,0.7120,1.1314,1.4981,-57.3000,4.6500,3.3000,5.3500,8.6800,-7.5400,1.0276,2.4729,1.3494,-15.5000,-27.0625,20.5000,197.8125,28.4375,-156.9375,0
406.845,8.1954,6.0621,0.0311,1.2905,-0.4722,-1.0941,-55.2000,66.3000,45.6000,10.3860,1.8603,0.3352,0.9894,1.1930,1.3925,-57.9000,4.0500,3.4500,5.3500,8.6800,-7.5400,1.0276,2.4729,1.3494,-15.5000,-27.0625,20.5000,197.8125,28.4375,-156.9375,0
406.850,8.1954,6.0621,0.0311,1.2905,-0.4722,-1.0941,-54.9000,66.4500,42.9000,10.3860,1.8603,0.3352,0.9894,1.1930,1.3925,-57.9000,4.0500,3.4500,6.1900,9.1400,-7.3300,1.5762,2.3726,1.6537,-17.2500,-26.6875,19.6875,198.3125,30.0000,-158.0000,0
406.855,9.6510,4.2904,0.6393,1.2833,-0.3091,-1.1346,-54.9000,66.4500,42.9000,9.8713,1.9944,1.0918,1.1543,1.1325,1.2167,-59.4000,3.3000,4.2000,6.1900,9.1400,-7.3300,1.5762,2.3726,1.6537,-17.2500,-26.6875,19.6875,198.3125,30.0000,-158.0000,0
406.860,9.6510,4.2904,0.6393,1.2833,-0.3091,-1.1346,-55.8000,65.5500,42.3000,9.8713,1.9944,1.0918,1.1543,1.1325,1.2167,-59.4000,3.3000,4.2000,6.7900,9.0600,-7.3700,2.1828,2.0846,1.9602,-17.2500,-26.6875,19.6875,198.8750,31.4375,-159.5625,0
406.864,11.2216,2.4205,0.9625,1.3062,-0.4050,-1.0480,-55.8000,65.5500,42.3000,9.1698,2.8371,1.6951,1.2327,1.0826,1.0539,-58.9500,4.0500,4.2000,6.7900,9.0600,-7.3700,2.6387,1.6733,2.1686,-17.2500,-26.6875,19.6875,199.5000,32.7500,-161.5625,0
406.870,11.2216,2.4205,0.9625,1.3062,-0.4050,-1.0480,-54.9000,65.4000,40.6500,8.6574,3.0765,4.1731,1.2327,1.0826,1.0539,-58.9500,4.0500,4.2000,7.2100,11.4000,-6.9500,2.6387,1.6733,2.1686,-17.2500,-26.6875,19.6875,200.0625,33.8125,-163.9375,0
406.880,12.0572,0.8428,0.7829,1.4440,-0.5670,-0.8775,-56.4000,64.2000,38.5500,7.7931,4.4580,6.2369,1.7387,1.1370,0.9329,-58.8000,4.2000,5.1000,6.0900,10.8900,-7.7900,3.1678,1.3897,2.2635,-17.2500,-26.6875,19.6875,200.0625,33.8125,-163.9375,0
406.890,12.0692,-0.0096,-0.0766,1.6078,-0.7272,-0.7035,-55.5000,65.5500,37.6500,8.1331,8.1977,1.1181,2.1178,1.2660,0.8338,-58.8000,4.2000,5.1000,4.4600,10.6800,-6.3600,3.6968,1.2065,2.0682,-17.2500,-26.6875,19.6875,200.5000,34.7500,-166.6250,0
406.895,11.8393,-0.0407,-0.4980,1.6193,-0.8250,-0.6123,-55.5000,65.5500,37.6500,8.1331,8.1977,1.1181,2.1919,1.4911,0.8617,-57.9000,3.6000,4.2000,4.4600,10.6800,-6.3600,3.6968,1.2065,2.0682,-17.2500,-26.6875,19.6875,200.3125,35.8125,-169.1875,0
406.899,11.8393,-0.0407,-0.4980,1.6193,-0.8250,-0.6123,-55.5000,65.5500,37.6500,10.9056,8.5712,3.4117,2.1919,1.4911,0.8617,-57.9000,3.6000,4.2000,11.7600,30.1700,7.4100,4.1124,1.7366,1.1203,-22.0625,-23.5000,19.7500,200.3125,35.8125,-169.1875,0
406.904,10.9846,0.4525,-0.6584,1.4994,-0.5492,-0.6360,-55.5000,65.5500,37.6500,10.9056,8.5712,3.4117,2.3518,1.3435,1.0245,-57.9000,3.6000,4.2000,11.7600,30.1700,7.4100,4.1124,1.7366,1.1203,-22.0625,-23.5000,19.7500,200.3125,35.8125,-169.1875,0
406.909,10.9846,0.4525,-0.6584,1.4994,-0.5492,-0.6360,-54.3000,66.9000,35.7000,11.3725,12.0452,3.2370,3.6764,1.2833,1.0368,-57.9000,3.6000,4.2000,2.0500,26.2900,2.4700,4.2379,3.5245,-1.9384,-22.0625,-23.5000,19.7500,198.3125,37.5625,-170.5000,0
406.914,9.9264,1.5682,-0.4956,1.5801,-0.3816,-0.8108,-54.3000,66.9000,35.7000,11.3725,12.0452,3.2370,3.6764,1.2833,1.0368,-58.6500,4.5000,3.4500,2.0500,26.2900,2.4700,3.8910,3.1820,-4.7626,-22.0625,-23.5000,19.7500,194.7500,38.8750,-170.3750,0
406.920,9.9264,1.5682,-0.4956,1.5801,-0.3816,-0.8108,-54.6000,69.4500,33.6000,9.0094,11.4610,5.3056,5.6892,1.2577,0.7272,-58.6500,4.5000,3.4500,4.1500,12.2500,4.6600,3.8910,3.1820,-4.7626,-22.0625,-23.5000,19.7500,190.5625,40.7500,-169.5625,0
406.930,8.5258,2.8036,-0.4429,1.7621,-0.1500,-1.0355,-55.8000,69.7500,31.6500,8.6814,7.5465,6.8235,7.7650,1.2209,0.1985,-58.0500,4.2000,2.8500,9.0300,7.9800,-4.5000,4.0208,4.5008,-5.8272,-22.0625,-23.5000,19.7500,190.5625,40.7500,-169.5625,0
406.940,8.6910,4.0438,-0.2777,1.9100,0.0983,-1.2425,-55.6500,67.2000,31.0500,8.9495,3.3040,7.9607,8.6475,1.0666,-0.2638,-56.5500,3.0000,5.1000,5.8900,4.4100,-5.9000,3.9499,4.2630,-5.9548,-22.0625,-23.5000,19.7500,186.1875,42.5000,-168.5000,0
406.945,8.7604,4.7405,0.1915,2.0081,0.2276,-1.4205,-55.6500,67.2000,31.0500,8.9495,3.3040,7.9607,8.6475,1.0666,-0.2638,-57.0000,3.3000,4.2000,5.8900,4.4100,-5.9000,3.9499,4.2630,-5.9548,-22.0625,-23.5000,19.7500,186.1875,42.5000,-168.5000,0
406.950,8.7604,4.7405,0.1915,1.8016,0.2814,-1.5308,-56.4000,67.6500,28.6500,9.6869,-0.4429,7.4891,8.6307,0.8319,-0.5436,-57.0000,3.3000,4.2000,5.6500,2.0800,-7.7600,3.5834,3.5027,-5.5600,-24.6875,-19.7500,20.1875,208.0000,43.7500,-167.2500,0
406.955,9.0381,4.7238,0.9864,1.8016,0.2814,-1.5308,-56.4000,67.6500,28.6500,9.6869,-0.4429,7.4891,8.6307,0.8319,-0.5436,-56.8500,5.4000,3.6000,5.6500,2.0800,-7.7600,3.5834,3.5027,-5.5600,-24.6875,-19.7500,20.1875,208.0000,43.7500,-167.2500,0
406.960,9.7468,4.2737,1.5682,1.4554,0.2763,-1.5170,-56.4000,67.6500,28.6500,10.1442,-3.8858,6.4428,7.6699,0.5590,-0.5915,-56.8500,5.4000,3.6000,4.7800,0.5900,-8.5700,2.9551,2.7653,-4.8357,-24.6875,-19.7500,20.1875,206.0625,44.6250,-166.0625,0
406.964,9.7468,4.2737,1.5682,1.4554,0.2763,-1.5170,-56.4000,67.6500,28.6500,10.1442,-3.8858,6.4428,7.6699,0.5590,-0.5915,-55.9500,4.8000,2.4000,4.7800,0.5900,-8.5700,2.1937,1.8959,-4.0317,-24.6875,-19.7500,20.1875,204.9375,45.0625,-164.8125,0
406.971,9.8881,3.4477,1.7765,1.2721,0.1905,-1.4064,-59.5500,62.2500,26.2500,9.6869,-7.4867,5.7964,5.7300,0.2014,-0.4743,-55.9500,4.8000,2.4000,3.0100,0.8600,-8.8100,2.1937,1.8959,-4.0317,-24.6875,-19.7500,20.1875,204.6250,45.1875,-163.7500,0
406.980,10.5943,2.4804,1.4844,1.3360,0.0770,-1.2476,-58.9500,61.2000,25.0500,8.9830,-9.2081,4.8602,3.2639,-0.2036,-0.2915,-55.9500,4.8000,2.4000,2.3800,1.3900,-8.7600,1.4355,1.1192,-3.2027,-24.6875,-19.7500,20.1875,204.6250,45.1875,-163.7500,0
406.990,9.8809,1.3886,0.8547,1.4413,-0.1132,-1.1048,-59.7000,56.7000,24.0000,8.4348,-7.7045,4.4365,0.8849,-0.5622,-0.1356,-56.7000,3.3000,1.6500,2.1200,1.8200,-8.8700,0.8334,0.5498,-2.5351,-24.6875,-19.7500,20.1875,204.8125,45.0625,-162.7500,0
406.995,9.8809,1.3886,0.8547,1.4413,-0.1132,-1.1048,-59.7000,56.7000,24.0000,8.4348,-7.7045,4.4365,0.8849,-0.5622,-0.1356,-56.7000,3.3000,1.6500,2.1200,1.8200,-8.8700,0.8334,0.5498,-2.5351,-24.6875,-19.7500,20.1875,205.4375,44.7500,-161.8750,0
407.000,10.1586,0.9337,0.2298,1.7533,-0.1242,-1.0078,-59.1000,55.0500,22.8000,8.5018,-4.8914,4.0199,-0.7735,-0.8721,-0.0594,-56.7000,3.3000,1.6500,1.6500,3.0100,-8.3900,0.4320,0.1004,-2.0693,-21.0000,-23.7500,18.5625,205.4375,44.7500,-161.8750,0
407.005,10.1586,0.9337,0.2298,1.7533,-0.1242,-1.0078,-59.1000,55.0500,22.8000,8.6574,-2.7892,3.5051,-0.7735,-0.8721,-0.0594,-57.3000,6.1500,0.6000,1.6500,3.0100,-8.3900,0.4320,0.1004,-2.0693,-21.0000,-23.7500,18.5625,206.1875,44.2500,-161.2500,0
407.010,10.4148,0.6057,-0.1508,1.8780,-0.0767,-0.9750,-59.1000,55.0500,22.8000,8.6574,-2.7892,3.5051,-1.8575,-1.0962,-0.0056,-57.3000,6.1500,0.6000,1.2000,2.5600,-7.9700,0.2913,-0.4134,-1.7442,-21.0000,-23.7500,18.5625,206.1875,44.2500,-161.2500,0
407.015,10.4148,0.6057,-0.1508,1.8780,-0.0767,-0.9750,-59.1000,55.0500,22.8000,8.9352,-1.0918,3.4213,-1.8575,-1.0962,-0.0056,-57.3000,5.4000,-0.6000,1.2000,2.5600,-7.9700,0.1800,-0.7909,-1.5239,-21.0000,-23.7500,18.5625,207.1250,43.5625,-160.6875,0
407.021,10.5105,0.4381,-0.7566,1.8815,-0.1146,-1.0088,-57.3000,49.5000,21.6000,8.9352,-1.0918,3.4213,-2.5786,-1.3094,0.0389,-57.3000,5.4000,-0.6000,1.4000,2.4600,-7.8900,0.1800,-0.7909,-1.5239,-21.0000,-23.7500,18.5625,208.3750,42.7500,-160.1875,0
407.030,10.2903,-0.0311,-1.1540,1.8082,-0.1426,-1.0922,-57.1500,49.2000,21.9000,9.3709,0.5483,3.3710,-2.9138,-1.5346,0.0642,-57.9000,4.5000,0.4500,2.2000,3.1800,-7.6300,-0.0316,-1.0723,-1.3537,-21.0000,-23.7500,18.5625,208.3750,42.7500,-160.1875,0
407.040,10.0556,-0.2801,-1.3384,1.5775,-0.1697,-1.1564,-56.8500,46.6500,19.0500,9.2799,1.8723,3.4692,-2.8940,-1.7038,0.0402,-58.0500,4.9500,-0.6000,2.4100,3.6000,-7.5300,-0.2923,-1.3003,-1.1748,-21.0000,-23.7500,18.5625,210.0000,41.8750,-159.6875,0
407.045,10.0556,-0.2801,-1.3384,1.5775,-0.1697,-1.1564,-57.0000,44.5500,19.0500,8.9160,2.8180,3.0023,-2.4989,-1.7986,-0.1066,-58.2000,4.8000,-1.2000,2.4100,3.6000,-7.5300,-0.2923,-1.3003,-1.1748,-17.7500,-25.8750,20.0625,211.8750,40.8750,-159.2500,0
407.051,9.5696,-0.5171,-1.1205,1.3025,-0.1903,-1.2025,-57.0000,44.5500,19.2000,8.9160,2.8180,3.0023,-2.4989,-1.7986,-0.1066,-58.2000,4.8000,-1.2000,2.3500,3.7900,-7.2700,-0.5269,-1.5512,-0.9708,-17.7500,-25.8750,20.0625,211.8750,40.8750,-159.2500,0
407.056,9.5696,-0.5171,-1.1205,1.3025,-0.1903,-1.2025,-57.3000,45.0000,20.2500,8.6862,3.5985,3.3088,-1.7885,-1.7962,-0.3184,-57.3000,5.4000,-3.3000,2.3500,3.7900,-7.2700,-0.7734,-1.7693,-0.7723,-17.7500,-25.8750,20.0625,167.3125,39.8125,-158.7500,0
407.061,9.4882,-0.3496,-0.8021,1.0307,-0.2385,-1.2103,-57.3000,45.0000,20.2500,8.6862,3.5985,3.3088,-1.7885,-1.7962,-0.3184,-57.3000,5.4000,-3.3000,2.4500,4.0500,-7.0600,-0.7734,-1.7693,-0.7723,-17.7500,-25.8750,20.0625,167.3125,39.8125,-158.7500,0
407.067,9.1291,0.0646,-1.0439,0.8287,-0.2313,-1.1980,-57.3000,45.0000,20.2500,8.8011,4.2162,3.4668,-0.8972,-1.7656,-0.5047,-57.3000,5.4000,-3.3000,2.7300,5.1500,-7.0000,-1.0123,-1.9220,-0.6240,-17.7500,-25.8750,20.0625,167.3125,38.6875,-158.2500,0
407.072,9.1291,0.0646,-1.0439,0.8287,-0.2313,-1.1980,-57.3000,45.0000,20.2500,8.8011,4.2162,3.4668,-0.8972,-1.7656,-0.5047,-57.3000,5.4000,-3.3000,2.7300,5.1500,-7.0000,-1.0123,-1.9220,-0.6240,-17.7500,-25.8750,20.0625,167.4375,37.5000,-157.6875,0
407.080,9.0405,0.5267,-1.0870,0.7701,-0.3477,-1.1594,-56.2500,43.8000,17.7000,8.9256,3.6344,3.5865,0.0080,-1.7922,-0.6289,-57.6000,6.6000,-2.1000,2.3400,5.7800,-7.0100,-1.2054,-2.0289,-0.5596,-17.7500,-25.8750,20.0625,167.5625,36.3125,-157.0625,0
407.090,8.6191,0.7422,-1.3288,0.7504,-0.3549,-1.1237,-57.4500,40.9500,16.8000,9.0405,2.7821,3.2633,0.8111,-1.7933,-0.6696,-57.6000,6.6000,-2.1000,2.0300,6.9000,-7.1000,-1.2926,-2.0846,-0.5956,-17.7500,-25.8750,20.0625,167.5625,36.3125,-157.0625,0
407.095,8.8346,1.0439,-1.8148,0.6552,-0.2358,-1.0725,-54.6000,41.7000,16.8000,9.3206,1.6209,3.2010,1.3888,-1.8508,-0.6273,-57.6000,6.1500,-6.6000,2.0300,6.9000,-7.1000,-1.2926,-2.0846,-0.5956,-17.7500,-25.8750,20.0625,167.5625,36.3125,-157.0625,0
407.100,8.8346,1.0439,-1.8148,0.6552,-0.2358,-1.0725,-54.6000,41.7000,16.8000,9.3206,1.6209,3.2010,1.3888,-1.8508,-0.6273,-57.6000,6.1500,-6.6000,2.6100,7.6100,-6.9900,-1.2850,-2.0399,-0.7941,-13.1875,-27.6875,19.1875,167.5625,35.1250,-156.3750,0
407.105,8.7604,1.2282,-1.9585,0.5201,-0.2236,-1.0261,-53.8500,41.4000,16.5000,9.6917,1.0343,3.0861,1.8309,-1.8983,-0.5127,-57.4500,5.5500,-7.2000,2.6100,7.6100,-6.9900,-1.2850,-2.0399,-0.7941,-13.1875,-27.6875,19.1875,167.5625,35.1250,-156.3750,0
407.110,8.7604,1.2282,-1.9585,0.5201,-0.2236,-1.0261,-53.8500,41.4000,16.5000,9.8833,0.4884,3.1939,1.8309,-1.8983,-0.5127,-57.4500,5.5500,-7.2000,1.9600,7.4000,-6.6200,-1.1836,-1.9308,-1.1585,-13.1875,-27.6875,19.1875,167.3125,33.8750,-155.6250,0
407.115,8.7700,1.4174,-2.1476,0.4040,-0.1927,-0.9843,-55.3500,41.7000,17.2500,9.8833,0.4884,3.1939,2.1043,-1.9558,-0.3730,-57.9000,6.4500,-8.2500,1.9600,7.4000,-6.6200,-1.0516,-1.7050,-1.6177,-13.1875,-27.6875,19.1875,166.8125,32.6250,-154.7500,0
407.121,8.7700,1.4174,-2.1476,0.4040,-0.1927,-0.9843,-55.3500,41.7000,17.2500,9.9311,0.1772,3.2992,2.2569,-2.0041,-0.2393,-57.9000,6.4500,-8.2500,1.6900,7.0900,-6.5400,-1.0516,-1.7050,-1.6177,-13.1875,-27.6875,19.1875,165.9375,31.4375,-153.7500,0
407.130,8.7628,1.7166,-2.2601,0.2622,-0.1897,-0.9534,-55.3500,41.7000,17.2500,9.9096,0.0311,3.1556,2.4115,-2.0885,-0.1322,-56.8500,6.1500,-9.6000,2.1200,6.4400,-7.1200,-0.9370,-1.2741,-2.1566,-13.1875,-27.6875,19.1875,165.9375,31.4375,-153.7500,0
407.140,8.7771,1.9513,-2.2721,0.1900,-0.2401,-0.9403,-55.3500,41.7000,17.2500,9.6558,-0.1149,3.2801,2.5866,-2.1706,-0.0645,-57.9000,6.7500,-9.3000,2.7100,6.0900,-7.6800,-0.8247,-0.7789,-2.6998,-13.1875,-27.6875,19.1875,164.6250,30.4375,-152.6250,0
407.145,8.6311,2.2697,-2.1739,0.0709,-0.3296,-0.9193,-56.1000,41.4000,16.5000,9.6558,-0.1149,3.2801,2.5866,-2.1706,-0.0645,-56.5500,6.1500,-11.1000,2.7100,6.0900,-7.6800,-0.8247,-0.7789,-2.6998,-13.1875,-27.6875,19.1875,163.0625,29.4375,-151.4375,0
407.150,8.6311,2.2697,-2.1739,0.0709,-0.3296,-0.9193,-56.1000,41.4000,16.5000,9.6055,-0.5076,3.3088,2.7688,-2.2250,-0.0096,-56.5500,6.1500,-11.1000,2.6800,5.3500,-7.8800,-0.6829,-0.3480,-3.1525,-7.8750,-27.7500,17.8750,163.0625,29.4375,-151.4375,0
407.155,8.5305,2.5379,-2.0327,-0.0469,-0.3230,-0.8911,-56.1000,42.1500,16.8000,9.6055,-0.5076,3.3088,2.7688,-2.2250,-0.0096,-56.5500,6.1500,-11.1000,2.6800,5.3500,-7.8800,-0.6829,-0.3480,-3.1525,-7.8750,-27.7500,17.8750,161.1875,28.5000,-150.1250,0
407.160,8.5305,2.5379,-2.0327,-0.0469,-0.3230,-0.8911,-56.1000,42.1500,16.8000,9.5912,-0.5507,3.2058,2.7208,-2.2316,0.0437,-56.5500,6.1500,-11.1000,3.6700,4.5800,-9.0700,-0.5869,0.0905,-3.4612,-7.8750,-27.7500,17.8750,161.1875,28.5000,-150.1250,0
407.167,8.4372,2.8730,-1.7669,-0.1788,-0.2713,-0.8540,-53.8500,40.9500,16.8000,9.5912,-0.5507,3.2058,2.7208,-2.2316,0.0437,-57.9000,4.0500,-14.2500,4.4000,2.1400,-10.8900,-0.4571,0.2247,-3.6172,-7.8750,-27.7500,17.8750,159.2500,27.6250,-148.9375,0
407.172,8.4372,2.8730,-1.7669,-0.1788,-0.2713,-0.8540,-53.8500,40.9500,16.8000,10.1562,-1.0391,3.4165,2.5279,-2.2918,0.0981,-57.9000,4.0500,-14.2500,4.4000,2.1400,-10.8900,-0.4571,0.2247,-3.6172,-7.8750,-27.7500,17.8750,157.3125,26.5625,-147.8125,0
407.180,8.3414,3.0957,-1.4892,-0.2825,-0.1932,-0.8167,-53.8500,40.9500,16.8000,10.3525,-1.7238,3.3375,2.2351,-2.3126,0.1572,-57.9000,4.0500,-14.2500,4.7600,2.1800,-11.6600,-0.4963,-0.0327,-3.6281,-7.8750,-27.7500,17.8750,157.3125,26.5625,-147.8125,0
407.190,8.0876,3.2872,-1.1971,-0.2928,-0.1290,-0.7498,-54.4500,42.0000,16.3500,10.3118,-2.2649,3.2777,1.8223,-2.3446,0.2052,-56.2500,4.0500,-16.0500,5.6300,3.2300,-12.6000,-0.5585,-0.2018,-3.4034,-7.8750,-27.7500,17.8750,155.5000,25.4375,-146.7500,0
407.195,8.0230,3.4716,-1.2234,-0.2302,0.0216,-0.6614,-53.7000,41.5500,17.4000,10.3118,-2.2649,3.2777,1.8223,-2.3446,0.2052,-56.7000,4.5000,-17.5500,5.6300,3.2300,-12.6000,-0.5585,-0.2018,-3.4034,-7.8750,-27.7500,17.8750,155.5000,25.4375,-146.7500,0
407.200,8.0230,3.4716,-1.2234,-0.2302,0.0216,-0.6614,-53.7000,41.5500,17.4000,10.3262,-2.7701,3.0526,1.3459,-2.3744,0.2324,-56.7000,4.5000,-17.5500,6.0500,2.3200,-12.3600,-0.5040,-0.4363,-3.0434,-2.6875,-27.5625,17.0625,154.0000,24.3125,-145.8750,0
407.205,8.1547,3.4955,-1.3503,-0.0805,0.0943,-0.5569,-52.9500,42.3000,15.9000,10.3262,-2.7701,3.0526,1.3459,-2.3744,0.2324,-56.1000,3.4500,-19.5000,6.0500,2.3200,-12.3600,-0.5040,-0.4363,-3.0434,-2.6875,-27.5625,17.0625,152.7500,23.0625,-145.3125,0
407.211,8.1547,3.4955,-1.3503,-0.0805,0.0943,-0.5569,-52.9500,42.3000,15.9000,10.3382,-2.9257,2.9257,0.7997,-2.4149,0.2566,-56.1000,3.4500,-19.5000,5.7800,2.1300,-11.6700,-0.3065,-0.9032,-2.5973,-2.6875,-27.5625,17.0625,152.7500,23.0625,-145.3125,0
407.215,8.1642,3.5913,-1.4485,0.1913,0.1148,-0.4599,-54.3000,41.7000,16.8000,10.3382,-2.9257,2.9257,0.7997,-2.4149,0.2566,-56.7000,4.0500,-19.3500,5.7800,2.1300,-11.6700,-0.2138,-1.2588,-2.1828,-2.6875,-27.5625,17.0625,151.7500,21.8125,-144.9375,0
407.221,8.5329,3.6248,-1.6783,0.4690,0.0725,-0.3688,-54.3000,41.7000,16.8000,10.2807,-2.6743,2.7749,0.2697,-2.4576,0.2601,-56.7000,4.0500,-19.3500,5.4200,2.7000,-10.8400,-0.2138,-1.2588,-2.1828,-2.6875,-27.5625,17.0625,151.0000,20.5000,-144.6875,0
407.231,8.4779,3.4524,-1.8220,0.6539,-0.0016,-0.2878,-52.9500,40.5000,16.3500,10.1538,-2.0159,2.6839,-0.1735,-2.4882,0.2254,-55.2000,4.0500,-20.1000,5.0200,3.0700,-9.8000,-0.2116,-1.5686,-1.8610,-2.6875,-27.5625,17.0625,151.0000,20.5000,-144.6875,0
407.241,8.6143,3.2322,-1.9369,0.7522,-0.0211,-0.2060,-52.9500,40.5000,16.3500,10.0197,-1.2881,2.5570,-0.4495,-2.4938,0.1617,-55.3500,4.2000,-20.7000,4.9500,3.2700,-8.8000,-0.2422,-1.6537,-1.5588,-2.6875,-27.5625,17.0625,150.4375,19.2500,-144.5000,0
407.245,8.6143,3.2322,-1.9369,0.7522,-0.0211,-0.2060,-53.1000,40.6500,15.4500,9.9455,-0.4908,2.4684,-0.4495,-2.4938,0.1617,-55.3500,4.2000,-20.7000,4.9500,3.2700,-8.8000,-0.2422,-1.6537,-1.5588,-2.6875,-27.5625,17.0625,150.4375,19.2500,-144.5000,0
407.250,8.4420,2.8060,-1.9225,0.8234,-0.0274,-0.1348,-53.1000,40.6500,15.4500,9.9455,-0.4908,2.4684,-0.5673,-2.4776,0.0866,-55.3500,4.2000,-20.7000,4.7500,3.3200,-8.5000,-0.2738,-1.6821,-1.2861,2.7500,-28.0625,16.2500,150.0625,18.0625,-144.3125,0
407.255,8.4420,2.8060,-1.9225,0.8234,-0.0274,-0.1348,-52.2000,40.8000,14.5500,9.8067,0.1580,2.3583,-0.5518,-2.4528,0.0024,-55.2000,5.5500,-23.4000,4.7500,3.3200,-8.5000,-0.2738,-1.6821,-1.2861,2.7500,-28.0625,16.2500,150.0625,18.0625,-144.3125,0
407.260,9.0285,2.5019,-2.0853,0.8452,-0.1727,-0.0861,-52.2000,40.8000,14.5500,9.8067,0.1580,2.3583,-0.5518,-2.4528,0.0024,-55.2000,5.5500,-23.4000,4.5200,3.3300,-8.1700,-0.3512,-1.6548,-1.0276,2.7500,-28.0625,16.2500,149.8125,17.0000,-144.1250,0
407.267,9.0285,2.5019,-2.0853,0.8452,-0.1727,-0.0861,-53.7000,39.0000,14.5500,9.6151,0.6153,2.2793,-0.4546,-2.3987,-0.0581,-55.2000,5.5500,-23.4000,4.2700,3.2200,-7.9800,-0.4167,-1.5446,-0.7538,2.7500,-28.0625,16.2500,149.6875,16.0625,-143.9375,0
407.272,8.2313,2.2505,-2.1500,0.9086,-0.2606,-0.0413,-54.9000,38.7000,15.4500,9.6151,0.6153,2.2793,-0.4546,-2.3987,-0.0581,-55.2000,5.5500,-23.4000,4.2700,3.2200,-7.9800,-0.4167,-1.5446,-0.7538,2.7500,-28.0625,16.2500,149.6875,15.2500,-143.7500,0
407.281,8.4132,2.3080,-2.1931,0.9241,-0.1228,-0.0075,-52.9500,37.8000,15.6000,9.6223,0.9194,2.0087,-0.2753,-2.3299,-0.0951,-54.1500,4.2000,-24.7500,5.1200,3.3200,-8.8000,-0.4581,-1.4595,-0.4974,2.7500,-28.0625,16.2500,149.8125,14.5625,-143.5625,0
407.291,8.4156,2.2027,-2.0997,0.8849,-0.1290,0.0072,-52.9500,37.8000,15.6000,9.1171,0.7398,2.0686,-0.0445,-2.1778,-0.0895,-55.2000,5.2500,-25.6500,5.7300,3.5100,-9.1500,-0.4931,-1.2610,-0.2836,2.7500,-28.0625,16.2500,149.8125,14.5625,-143.5625,0
407.296,8.4156,2.2027,-2.0997,0.8849,-0.1290,0.0072,-52.9500,37.8000,15.6000,9.3374,0.7230,2.4804,0.1002,-2.1389,-0.0597,-53.2500,4.0500,-26.4000,5.7300,3.5100,-9.1500,-0.4931,-1.2610,-0.2836,7.1875,-28.6875,15.0625,150.0000,13.8750,-143.4375,0
407.301,8.1547,2.3415,-2.2889,0.8175,-0.1242,0.0013,-54.4500,39.7500,13.0500,9.3374,0.7230,2.4804,0.1002,-2.1389,-0.0597,-53.2500,4.0500,-26.4000,5.4900,3.4200,-8.9600,-0.4538,-1.4312,-0.1669,7.1875,-28.6875,15.0625,150.0000,13.8750,-143.4375,0
407.306,8.1547,2.3415,-2.2889,0.8175,-0.1242,0.0013,-54.4500,39.7500,13.0500,9.1243,0.4334,2.5283,0.1668,-2.0843,-0.0096,-53.4000,3.0000,-27.0000,5.4900,3.4200,-8.9600,-0.4538,-1.4312,-0.1669,7.1875,-28.6875,15.0625,150.2500,13.1875,-143.2500,0
407.311,8.2480,2.6288,-2.6121,0.7554,-0.0277,0.0139,-55.2000,37.5000,13.0500,9.1243,0.4334,2.5283,0.1668,-2.0843,-0.0096,-53.4000,3.0000,-27.0000,5.9000,3.3600,-9.2000,-0.5040,-1.4388,-0.1745,7.1875,-28.6875,15.0625,150.2500,13.1875,-143.2500,0
407.319,8.2983,2.7294,-3.1244,0.6787,0.0530,0.0381,-55.2000,37.5000,13.0500,9.0621,0.2035,2.4397,0.1793,-1.9620,0.0424,-53.7000,4.5000,-27.4500,6.3600,3.4400,-9.0700,-0.6698,-1.1770,-0.3360,7.1875,-28.6875,15.0625,150.3125,12.5625,-142.9375,0
407.323,8.2983,2.7294,-3.1244,0.6787,0.0530,0.0381,-55.3500,39.4500,13.6500,9.1267,0.0790,2.5809,0.1740,-1.8876,0.0687,-53.7000,4.5000,-27.4500,6.3600,3.4400,-9.0700,-0.6698,-1.1770,-0.3360,7.1875,-28.6875,15.0625,150.2500,11.9375,-142.5000,0
407.331,8.5569,2.7222,-3.0885,0.7453,0.1657,0.0626,-54.4500,38.5500,12.7500,9.1267,0.0790,2.5809,0.1740,-1.8876,0.0687,-53.2500,4.5000,-27.1500,6.6300,3.2000,-8.8600,-0.7527,-0.9752,-0.5421,7.1875,-28.6875,15.0625,150.0625,11.3125,-142.1250,0
407.341,8.3007,2.5498,-2.7270,0.7661,0.1756,0.0802,-54.4500,38.5500,12.7500,8.7819,0.1676,2.7294,0.1447,-1.8021,0.0813,-53.2500,4.5000,-27.1500,6.9000,2.3700,-7.7400,-0.7167,-0.9425,-0.6621,7.1875,-28.6875,15.0625,150.0625,11.3125,-142.1250,0
407.346,8.3007,2.5498,-2.7270,0.7661,0.1756,0.0802,-54.4500,38.5500,12.7500,8.7819,0.1676,2.7294,0.1034,-1.6888,0.0831,-52.6500,4.2000,-28.8000,6.9000,2.3700,-7.7400,-0.7167,-0.9425,-0.6621,7.1875,-28.6875,15.0625,150.0625,11.3125,-142.1250,0
407.351,8.0397,2.3224,-2.4565,0.8362,0.1695,0.0850,-55.6500,37.6500,12.9000,8.3534,0.1604,2.5809,0.1034,-1.6888,0.0831,-52.6500,4.2000,-28.8000,7.2600,1.8400,-7.3200,-0.6632,-0.8149,-0.7341,9.7500,-29.6875,12.2500,149.8750,10.6875,-141.7500,0
407.356,8.0397,2.3224,-2.4565,0.8362,0.1695,0.0850,-55.6500,37.6500,12.9000,8.3534,0.1604,2.5809,0.0549,-1.5122,0.0629,-52.6500,4.2000,-28.8000,7.2600,1.8400,-7.3200,-0.6632,-0.8149,-0.7341,9.7500,-29.6875,12.2500,149.8750,10.6875,-141.7500,0
407.361,7.9847,2.5474,-2.9066,0.8367,0.4458,0.1087,-56.2500,37.8000,12.7500,8.0373,0.3304,2.5211,0.0549,-1.5122,0.0629,-52.6500,4.2000,-28.8000,9.2700,1.3900,-8.1100,-0.5847,-0.3622,-0.7625,9.7500,-29.6875,12.2500,149.5625,10.2500,-141.3750,0
407.367,8.0397,2.9664,-3.0167,0.7906,0.5606,0.1354,-56.2500,37.8000,12.7500,8.0373,0.3304,2.5211,0.0293,-1.3123,0.0456,-50.4000,3.0000,-30.3000,9.5600,0.4200,-6.6200,-0.4647,-0.4265,-0.7047,9.7500,-29.6875,12.2500,149.2500,9.8750,-141.1250,0
407.372,8.0397,2.9664,-3.0167,0.7906,0.5606,0.1354,-56.4000,36.4500,12.6000,7.4962,0.5076,2.2410,-0.0136,-1.0802,0.0293,-50.4000,3.0000,-30.3000,9.5600,0.4200,-6.6200,-0.4647,-0.4265,-0.7047,9.7500,-29.6875,12.2500,149.0625,9.3750,-140.8125,0
407.381,8.1499,3.3160,-3.0167,0.5958,0.6158,0.1423,-58.3500,36.3000,12.7500,7.2568,0.5626,2.2027,0.0746,-0.8314,0.0061,-51.6000,3.9000,-30.3000,10.4000,0.0200,-6.2000,-0.4636,-0.5836,-0.6512,9.7500,-29.6875,12.2500,148.8125,9.0000,-140.6250,0
407.391,8.6239,3.8164,-3.1005,0.2438,0.6957,0.1612,-56.4000,34.9500,13.3500,7.1156,0.4453,2.2984,0.2094,-0.5207,-0.0168,-51.6000,4.9500,-30.3000,11.3000,-0.4200,-5.8300,-0.4167,-0.4451,-0.5749,9.7500,-29.6875,12.2500,148.8125,9.0000,-140.6250,0
407.396,9.3470,4.0103,-3.6751,-0.0989,0.6883,0.1500,-56.4000,34.9500,13.3500,7.1156,0.4453,2.2984,0.2094,-0.5207,-0.0168,-50.1000,3.4500,-30.3000,11.3000,-0.4200,-5.8300,-0.4167,-0.4451,-0.5749,9.7500,-29.6875,12.2500,148.6875,8.6250,-140.3750,0
407.401,9.3470,4.0103,-3.6751,-0.0989,0.6883,0.1500,-56.4000,34.9500,13.3500,7.1371,0.4381,2.6217,0.2201,-0.2382,-0.0461,-50.1000,3.4500,-29.8500,11.7800,-1.2900,-4.9100,-0.3523,-0.4603,-0.4712,11.5625,-30.5625,12.3750,148.6875,8.6250,-140.3750,0
407.406,8.8777,3.8259,-4.1731,-0.2070,0.4858,0.1234,-56.4000,34.9500,13.3500,7.1371,0.4381,2.6217,0.2201,-0.2382,-0.0461,-50.1000,3.9000,-30.3000,11.7800,-1.2900,-4.9100,-0.3523,-0.4603,-0.4712,11.5625,-30.5625,12.3750,148.5625,8.2500,-140.2500,0
407.411,8.8777,3.8259,-4.1731,-0.2070,0.4858,0.1234,-56.5500,36.0000,12.7500,7.1898,0.3711,2.7150,0.0877,0.0514,-0.0834,-50.1000,3.9000,-30.3000,12.4400,-1.3600,-4.6500,-0.2913,-0.5051,-0.3622,11.5625,-30.5625,12.3750,148.5625,8.2500,-140.2500,0
407.416,8.0685,3.4189,-4.0079,-0.2390,0.3925,0.0898,-56.5500,36.0000,12.7500,7.1898,0.3711,2.7150,0.0877,0.0514,-0.0834,-49.6500,3.9000,-30.3000,12.4400,-1.3600,-4.6500,-0.2749,-0.3163,-0.2596,11.5625,-30.5625,12.3750,148.5000,8.0625,-140.0625,0
407.422,8.0685,3.4189,-4.0079,-0.2390,0.3925,0.0898,-56.5500,36.0000,12.4500,7.3191,0.1508,2.4660,-0.0011,0.3685,-0.1058,-49.6500,3.9000,-28.5000,13.2400,-1.3800,-4.4800,-0.2749,-0.3163,-0.2596,11.5625,-30.5625,12.3750,148.4375,8.0000,-139.9375,0
407.431,7.9655,3.1603,-4.4412,-0.2068,0.6190,0.0901,-57.4500,35.7000,13.9500,8.2361,0.3496,0.6440,0.1298,0.7584,-0.0810,-49.6500,3.9000,-28.5000,14.0600,-1.4700,-3.5800,-0.2443,0.0185,-0.1265,11.5625,-30.5625,12.3750,148.4375,8.0000,-139.9375,0
407.441,9.3494,3.3806,-5.1284,0.0091,0.8580,0.1868,-58.8000,36.3000,12.7500,11.6765,1.2019,-2.3774,0.4559,1.1935,0.0573,-49.8000,2.4000,-30.1500,18.4000,-6.5500,1.7800,-0.1124,0.5563,0.1134,11.5625,-30.5625,12.3750,148.4375,8.2500,-139.8750,0
407.446,12.5887,4.2713,-5.0087,0.1593,1.0706,0.3691,-58.8000,36.3000,12.7500,11.6765,1.2019,-2.3774,0.4559,1.1935,0.0573,-49.8000,2.4000,-30.1500,18.4000,-6.5500,1.7800,-0.1124,0.5563,0.1134,11.5625,-30.5625,12.3750,148.5000,9.1875,-139.8750,0
407.451,12.5887,4.2713,-5.0087,0.1593,1.0706,0.3691,-57.0000,35.2500,12.7500,16.5272,-0.8595,-5.3750,0.5769,1.2582,0.1495,-49.8000,2.4000,-30.1500,10.6900,-13.7700,0.2900,0.0513,1.5457,0.7025,12.6875,-30.6875,10.0625,148.5000,9.1875,-139.8750,0
407.456,16.6182,5.7269,-5.0326,0.1887,1.1924,0.5324,-57.0000,35.2500,12.7500,16.5272,-0.8595,-5.3750,0.5769,1.2582,0.1495,-49.8000,2.4000,-30.1500,10.6900,-13.7700,0.2900,0.0513,1.5457,0.7025,12.6875,-30.6875,10.0625,148.9375,10.5000,-140.4375,0
407.461,16.6182,5.7269,-5.0326,0.1887,1.1924,0.5324,-57.0000,35.2500,12.7500,17.1353,-2.0063,-3.0598,0.7735,1.2031,0.0602,-52.2000,4.5000,-28.6500,2.9900,-4.2900,-4.4900,1.0734,1.7508,1.5239,12.6875,-30.6875,10.0625,148.9375,10.5000,-140.4375,0
407.468,17.1999,6.1603,-4.2473,0.1687,0.6411,0.3826,-57.0000,35.2500,12.7500,15.0595,-1.9201,-1.7047,0.7869,1.0357,-0.2366,-50.4000,3.4500,-29.8500,1.8300,11.9900,-36.7300,1.5904,2.2406,2.4347,12.6875,-30.6875,10.0625,149.7500,12.3125,-141.3750,0
407.473,13.5536,5.5929,-3.8618,0.4732,0.1868,0.1308,-59.8500,35.2500,11.4000,15.0595,-1.9201,-1.7047,0.7869,1.0357,-0.2366,-50.4000,3.4500,-29.8500,1.8300,11.9900,-36.7300,1.5904,2.2406,2.4347,12.6875,-30.6875,10.0625,151.6875,15.6875,-142.2500,0
407.481,13.5536,5.5929,-3.8618,0.4732,0.1868,0.1308,-61.3500,33.0000,12.0000,11.9471,-3.0478,-1.5083,0.8926,0.8484,-0.3925,-49.8000,2.4000,-30.1500,1.3500,9.6600,-16.3800,1.1421,3.8321,5.0167,12.6875,-30.6875,10.0625,151.6875,15.6875,-142.2500,0
407.491,11.1761,3.3303,-5.1140,0.6336,0.1372,-0.1252,-62.5500,32.7000,12.1500,7.3765,-1.4365,0.8380,0.3539,0.7821,-0.5073,-50.5500,2.1000,-28.2000,-3.9800,11.3300,-6.4100,2.9202,-1.0308,4.5477,12.6875,-30.6875,10.0625,154.1875,16.7500,-144.5625,0
407.496,5.9592,3.7110,-4.6735,0.3810,-0.1977,-0.0863,-62.5500,32.7000,12.1500,5.8227,3.8666,3.1077,-0.8410,1.1130,-0.5961,-50.5500,2.1000,-28.2000,-3.9800,11.3300,-6.4100,2.9202,-1.0308,4.5477,12.6875,-30.6875,10.0625,154.1875,16.7500,-144.5625,0
407.501,7.1898,1.8890,-0.5938,-0.1556,0.4916,-0.0080,-60.7500,31.6500,9.7500,5.8227,3.8666,3.1077,-0.8410,1.1130,-0.5961,-50.4000,3.4500,-29.5500,11.4200,9.6700,-6.5900,1.4683,1.1792,3.7830,11.5625,-31.5625,11.2500,155.9375,18.4375,-145.8125,0
407.506,7.1898,1.8890,-0.5938,-0.1556,0.4916,-0.0080,-60.7500,31.6500,9.7500,8.4420,5.1619,-1.0774,-1.7291,1.3312,-0.4202,-50.4000,3.4500,-29.5500,11.4200,9.6700,-6.5900,1.4683,1.1792,3.7830,11.5625,-31.5625,11.2500,155.9375,18.4375,-145.8125,0
407.511,8.4420,0.4932,0.7350,-0.4021,1.0912,0.2521,-60.7500,31.6500,9.7500,8.4420,5.1619,-1.0774,-1.7291,1.3312,-0.4202,-51.0000,1.6500,-28.2000,18.2800,16.2200,-11.4700,1.1236,3.0696,2.8263,11.5625,-31.5625,11.2500,156.8750,20.7500,-146.5625,0
407.516,8.4420,0.4932,0.7350,-0.4021,1.0912,0.2521,-60.7500,31.6500,9.7500,11.1378,7.2544,0.3591,-0.6616,1.3869,-0.3070,-51.0000,1.6500,-28.2000,18.2800,16.2200,-11.4700,0.6250,3.2409,1.2643,11.5625,-31.5625,11.2500,157.0000,22.6250,-146.7500,0
407.522,6.9911,1.7933,1.8028,-0.5524,0.7565,0.3736,-60.7500,31.6500,9.7500,11.1378,7.2544,0.3591,-0.6616,1.3869,-0.3070,-51.0000,1.6500,-28.2000,7.6800,7.8800,-7.8700,0.6250,3.2409,1.2643,11.5625,-31.5625,11.2500,156.8125,23.0000,-146.8750,0
407.531,5.2816,1.5634,5.6838,-0.4469,0.7242,0.1396,-61.8000,33.9000,12.6000,10.6614,7.7428,1.7334,0.4786,1.3448,-0.2830,-51.7500,4.5000,-27.9000,1.9900,6.5100,-5.8900,0.4701,0.8432,-0.0240,11.5625,-31.5625,11.2500,156.8125,23.0000,-146.8750,0
407.541,7.0916,0.0958,5.9735,-0.7392,1.3219,0.0549,-59.5500,33.0000,13.5000,9.1411,4.1228,2.3750,1.1556,1.4288,-0.2601,-51.7500,4.5000,-27.9000,3.3500,2.6800,-8.4700,0.7996,0.6447,-0.1407,11.5625,-31.5625,11.2500,156.5000,23.2500,-147.1875,0
407.546,7.0916,0.0958,5.9735,-0.7392,1.3219,0.0549,-59.5500,33.0000,13.5000,9.2608,1.3575,2.2697,1.2111,1.3520,-0.2441,-51.7500,4.5000,-27.9000,3.3500,2.6800,-8.4700,0.7996,0.6447,-0.1407,11.5625,-31.5625,11.2500,156.2500,23.3750,-147.6250,0
407.551,8.9615,-0.0168,2.7198,-0.6163,1.5455,0.1455,-57.9000,33.4500,13.3500,9.2608,1.3575,2.2697,1.2111,1.3520,-0.2441,-52.2000,4.0500,-27.4500,6.2800,5.4900,-7.9600,0.8476,0.3316,-0.1680,4.1875,-32.6875,12.1875,156.2500,23.3750,-147.6250,0
407.556,8.9615,-0.0168,2.7198,-0.6163,1.5455,0.1455,-57.0000,34.5000,13.8000,9.9024,-1.2498,2.4445,0.8082,1.2481,-0.2086,-52.2000,4.0500,-27.4500,6.2800,5.4900,-7.9600,0.8476,0.3316,-0.1680,4.1875,-32.6875,12.1875,156.2500,23.3750,-147.6250,0
407.561,9.8162,0.8667,1.1684,-0.5748,1.3715,0.2529,-57.0000,34.5000,13.8000,9.9024,-1.2498,2.4445,0.8082,1.2481,-0.2086,-52.5000,3.6000,-26.7000,4.4300,5.7100,-6.8400,0.9381,0.0447,-0.1102,4.1875,-32.6875,12.1875,156.0625,23.3750,-148.0625,0
407.567,9.8162,0.8667,1.1684,-0.5748,1.3715,0.2529,-57.0000,34.5000,13.8000,10.5656,-2.6647,2.1045,0.3046,1.0269,-0.1863,-52.5000,3.6000,-26.7000,4.4300,5.7100,-6.8400,0.9567,-0.1473,-0.2258,4.1875,-32.6875,12.1875,155.8750,23.2500,-148.5625,0
407.572,10.3717,1.1803,0.9026,-0.7144,1.1167,0.3709,-57.0000,34.5000,13.8000,10.3430,-3.0406,1.9130,0.3046,1.0269,-0.1863,-51.9000,3.9000,-27.0000,3.8600,4.4500,-7.9300,0.9567,-0.1473,-0.2258,4.1875,-32.6875,12.1875,155.6250,23.0625,-149.0625,0
407.581,12.3325,1.4940,-0.7398,-0.6281,0.8207,0.4834,-56.4000,35.4000,14.4000,9.6438,-2.2434,1.4341,-0.2539,0.8143,-0.2310,-54.6000,4.2000,-26.2500,3.7900,3.9200,-7.9700,0.9174,-0.1462,-0.2542,4.1875,-32.6875,12.1875,155.6250,23.0625,-149.0625,0
407.591,9.7252,2.2314,-0.9481,-0.3693,0.8759,0.6099,-55.6500,34.9500,17.5500,9.6247,-0.8140,1.4054,-0.8796,0.7442,-0.2611,-52.6500,4.6500,-25.5000,4.1700,2.8500,-8.6400,0.8530,-0.1451,-0.2422,4.1875,-32.6875,12.1875,155.3750,22.9375,-149.5000,0
407.596,9.7252,2.2314,-0.9481,-0.3693,0.8759,0.6099,-56.4000,33.9000,18.3000,9.6247,-0.8140,1.4054,-1.3291,0.7637,-0.2435,-52.6500,4.6500,-25.5000,4.1700,2.8500,-8.6400,0.8530,-0.1451,-0.2422,4.1875,-32.6875,12.1875,155.3750,22.9375,-149.5000,0
407.601,10.1203,3.3591,-0.7661,-0.0149,0.4826,0.6488,-56.4000,33.9000,18.3000,9.7803,1.0056,1.0223,-1.5505,0.8647,-0.2310,-53.1000,4.2000,-24.7500,3.8500,2.6700,-8.8700,0.7625,-0.1167,-0.2563,4.1875,-31.1875,14.1875,155.1875,22.8125,-149.8750,0
407.606,10.1203,3.3591,-0.7661,-0.0149,0.4826,0.6488,-55.6500,34.2000,17.8500,9.7803,1.0056,1.0223,-1.5505,0.8647,-0.2310,-53.1000,4.2000,-24.7500,3.8500,2.6700,-8.8700,0.7625,-0.1167,-0.2563,4.1875,-31.1875,14.1875,155.1875,22.8125,-149.8750,0
407.611,9.1387,3.8164,0.0335,0.1607,0.6448,0.6123,-55.6500,34.2000,17.8500,10.1059,2.6791,1.0080,-1.4975,0.9729,-0.2542,-53.1000,4.2000,-24.7500,3.6200,3.6400,-8.4300,0.6141,-0.1167,-0.2149,4.1875,-31.1875,14.1875,155.0000,22.6875,-150.1875,0
407.616,9.1387,3.8164,0.0335,0.1607,0.6448,0.6123,-55.2000,34.5000,18.4500,10.1059,2.6791,1.0080,-1.4975,0.9729,-0.2542,-53.1000,4.2000,-24.7500,3.6200,3.6400,-8.4300,0.3949,-0.0905,-0.1560,4.1875,-31.1875,14.1875,154.8750,22.6250,-150.3750,0
407.622,9.0285,3.8547,0.7973,0.2630,0.7797,0.5361,-55.2000,34.5000,18.4500,10.2951,4.0893,0.8691,-1.2193,0.9614,-0.2635,-53.2500,4.8000,-25.3500,3.5700,4.0700,-8.2500,0.3949,-0.0905,-0.1560,4.1875,-31.1875,14.1875,154.8125,22.5625,-150.5000,0
407.631,8.7317,3.5410,1.6712,0.1977,0.9145,0.4652,-55.2000,34.5000,18.4500,9.8067,6.0645,0.2801,-0.5804,0.9012,-0.2481,-53.2500,4.8000,-25.3500,3.5400,4.0900,-8.1600,0.2323,-0.0218,-0.1244,4.1875,-31.1875,14.1875,154.8125,22.5625,-150.5000,0
407.641,8.5736,3.3112,2.3655,0.1615,0.9236,0.4175,-55.6500,34.6500,16.8000,9.4403,7.3263,0.0120,0.4322,0.7570,-0.2174,-54.7500,6.0000,-25.3500,3.0200,5.1400,-7.3600,0.1658,0.0142,-0.1080,4.1875,-31.1875,14.1875,154.6875,22.5625,-150.5625,0
407.646,8.5497,3.3591,2.7533,0.1865,0.9406,0.3786,-57.3000,34.8000,18.1500,9.4403,7.3263,0.0120,0.4322,0.7570,-0.2174,-54.7500,6.0000,-25.3500,3.0200,5.1400,-7.3600,0.1658,0.0142,-0.1080,4.1875,-31.1875,14.1875,154.6875,22.5625,-150.5625,0
407.651,8.5497,3.3591,2.7533,0.1865,0.9406,0.3786,-57.3000,34.8000,18.1500,8.6311,5.9640,0.2298,1.4506,0.6726,-0.1873,-54.7500,6.0000,-26.7000,3.0700,5.4300,-7.2300,0.2105,-0.0087,-0.1014,5.2500,-32.0000,14.5625,154.6250,22.5000,-150.6875,0
407.656,8.5569,3.4836,2.8204,0.1935,0.9494,0.3480,-57.0000,34.8000,18.4500,8.6311,5.9640,0.2298,1.4506,0.6726,-0.1873,-54.7500,6.0000,-26.7000,3.0700,5.4300,-7.2300,0.2105,-0.0087,-0.1014,5.2500,-32.0000,14.5625,154.6250,22.5000,-150.6875,0
407.661,8.5569,3.4836,2.8204,0.1935,0.9494,0.3480,-57.0000,34.8000,18.4500,8.8107,3.4381,1.2617,1.8437,0.6941,-0.1524,-53.2500,6.4500,-24.9000,2.6700,5.8300,-7.3100,0.3098,-0.0665,-0.1058,5.2500,-32.0000,14.5625,154.5625,22.4375,-150.8125,0
407.668,8.8992,3.4477,2.4900,0.1132,0.8300,0.3429,-56.4000,32.4000,17.5500,9.7468,-0.4908,1.6376,1.8437,0.6941,-0.1524,-53.2500,6.4500,-24.9000,3.6000,5.3800,-7.5900,0.3971,-0.1494,-0.1004,5.2500,-32.0000,14.5625,154.4375,22.3750,-151.0625,0
407.673,8.8992,3.4477,2.4900,0.1132,0.8300,0.3429,-56.4000,32.4000,17.5500,9.7468,-0.4908,1.6376,1.4024,0.6664,-0.0965,-54.0000,5.2500,-25.3500,3.6000,5.3800,-7.5900,0.3971,-0.1494,-0.1004,5.2500,-32.0000,14.5625,154.3750,22.2500,-151.3125,0
407.682,9.3326,3.2250,1.4868,0.0341,0.8268,0.3770,-56.4000,32.4000,17.5500,10.3501,-3.2920,1.0558,0.3024,0.6334,-0.0144,-54.6000,5.4000,-24.7500,4.1000,4.5800,-8.0400,0.4440,-0.1876,-0.0567,5.2500,-32.0000,14.5625,154.3750,22.1250,-151.5625,0
407.692,9.4308,2.5738,0.8260,0.0067,0.7552,0.4016,-56.4000,32.4000,17.5500,10.5105,-3.1340,0.7470,-1.0541,0.5239,0.0149,-54.4500,5.5500,-25.6500,3.9000,3.9600,-8.3100,0.4592,-0.1865,-0.0251,5.2500,-32.0000,14.5625,154.3750,22.1250,-151.5625,0
407.696,9.6343,1.7406,0.7183,-0.0306,0.7546,0.4122,-57.1500,32.7000,17.8500,10.1706,0.1365,0.2634,-1.0541,0.5239,0.0149,-54.4500,5.5500,-25.6500,3.9000,3.9600,-8.3100,0.4592,-0.1865,-0.0251,5.2500,-32.0000,14.5625,154.3125,22.0625,-151.8125,0
407.702,9.6343,1.7406,0.7183,-0.0306,0.7546,0.4122,-57.1500,32.7000,17.8500,10.1706,0.1365,0.2634,-1.8282,0.4746,-0.0216,-54.4500,5.5500,-25.6500,3.7500,4.4000,-8.1500,0.4189,-0.1996,0.0044,4.8750,-31.5000,15.2500,154.3125,22.0625,-151.8125,0
407.706,10.0580,1.2617,0.5746,-0.1932,0.7360,0.4477,-59.2500,32.7000,19.0500,10.1035,3.5123,-0.2227,-1.8282,0.4746,-0.0216,-54.4500,5.5500,-25.6500,3.7500,4.4000,-8.1500,0.4189,-0.1996,0.0044,4.8750,-31.5000,15.2500,154.3125,21.9375,-152.0625,0
407.712,10.0580,1.2617,0.5746,-0.1932,0.7360,0.4477,-59.2500,32.7000,19.0500,10.1035,3.5123,-0.2227,-1.6507,0.4815,-0.1100,-55.0500,6.1500,-25.8000,3.2100,4.4100,-8.1700,0.3774,-0.2182,0.0240,4.8750,-31.5000,15.2500,154.3125,21.9375,-152.0625,0
407.717,10.1634,1.4772,0.1867,-0.4503,0.6611,0.4871,-58.3500,30.0000,19.2000,10.5776,5.6360,-0.9026,-0.8420,0.5279,-0.0799,-55.0500,6.1500,-25.8000,3.2100,4.4100,-8.1700,0.3818,-0.1898,0.0316,4.8750,-31.5000,15.2500,154.3125,21.8750,-152.3125,0
407.723,10.1634,1.4772,0.1867,-0.4503,0.6611,0.4871,-58.3500,30.0000,19.2000,10.5776,5.6360,-0.9026,-0.8420,0.5279,-0.0799,-55.0500,6.1500,-25.8000,2.9600,4.8200,-8.2200,0.3818,-0.1898,0.0316,4.8750,-31.5000,15.2500,154.3125,21.8125,-152.5000,0
407.732,10.1921,2.0997,-0.3879,-0.6968,0.5958,0.5033,-58.6500,30.4500,19.3500,10.1131,5.0853,-1.0463,0.2273,0.5588,-0.0330,-55.2000,6.4500,-23.8500,2.9700,4.3000,-8.3000,0.3698,-0.1462,0.0382,4.8750,-31.5000,15.2500,154.3125,21.8125,-152.5000,0
407.742,10.2735,2.9880,-0.9505,-0.9161,0.4991,0.4978,-58.6500,30.4500,19.3500,9.8713,2.3990,-1.2905,0.7706,0.6182,-0.0053,-54.4500,6.0000,-24.6000,3.1300,4.4800,-8.5700,0.3589,-0.0687,0.0393,4.8750,-31.5000,15.2500,154.3125,21.8125,-152.7500,0
407.747,10.0724,3.6009,-1.3240,-1.0784,0.3536,0.4354,-58.0500,30.3000,19.2000,10.0796,0.0527,-1.1349,0.5910,0.6800,0.0101,-54.4500,6.0000,-24.6000,3.1300,4.4800,-8.5700,0.3589,-0.0687,0.0393,4.8750,-31.5000,15.2500,154.3125,21.8125,-152.7500,0
407.752,10.0724,3.6009,-1.3240,-1.0784,0.3536,0.4354,-58.0500,30.3000,19.2000,10.0796,0.0527,-1.1349,0.5910,0.6800,0.0101,-54.1500,6.9000,-25.5000,3.0700,3.8400,-8.9300,0.2171,0.1014,-0.0611,5.1875,-30.7500,15.2500,154.2500,21.8125,-152.8125,0
407.757,10.0269,3.7326,-0.9146,-1.2617,0.3179,0.3144,-60.0000,29.7000,19.0500,9.9359,-1.0798,-1.1995,0.0922,0.7189,0.0258,-54.1500,6.9000,-25.5000,3.0700,3.8400,-8.9300,0.2171,0.1014,-0.0611,5.1875,-30.7500,15.2500,154.2500,21.8125,-152.8125,0
407.762,10.0269,3.7326,-0.9146,-1.2617,0.3179,0.3144,-60.0000,29.7000,19.0500,9.9359,-1.0798,-1.1995,0.0922,0.7189,0.0258,-55.2000,6.0000,-25.3500,3.2400,4.0800,-8.7600,0.2171,0.1014,-0.0611,5.1875,-30.7500,15.2500,154.1875,21.8750,-152.9375,0
407.770,10.0149,3.4141,-0.6081,-1.3819,0.2918,0.1631,-59.5500,31.8000,19.5000,10.0628,-0.8164,-1.4844,-0.5108,0.7706,0.0245,-54.4500,7.9500,-23.8500,3.1400,3.9500,-8.8800,0.1102,0.1887,-0.0829,5.1875,-30.7500,15.2500,154.1250,21.9375,-152.9375,0
407.775,10.1011,3.6847,-0.1245,-1.2425,0.2987,0.0469,-58.8000,31.0500,20.5500,10.3094,0.1724,-1.1708,-0.7107,0.7997,0.0400,-54.4500,7.9500,-23.8500,3.1400,3.9500,-8.8800,0.1102,0.1887,-0.0829,5.1875,-30.7500,15.2500,154.0000,22.0625,-152.8750,0
407.782,10.6470,3.0574,-0.1628,-1.1122,0.2665,-0.0509,-58.6500,31.6500,20.7000,10.3094,0.1724,-1.1708,-0.7107,0.7997,0.0400,-55.8000,7.3500,-24.7500,3.1800,3.8000,-8.9800,-0.1047,0.3643,-0.1200,5.1875,-30.7500,15.2500,153.8750,22.2500,-152.6875,0
407.792,9.9144,2.7964,0.2586,-0.9635,0.1188,-0.0839,-58.6500,31.6500,20.7000,10.4267,0.7135,-0.8954,-0.6166,0.8098,0.0749,-55.8000,7.3500,-24.7500,2.3200,3.8100,-9.4200,-0.1800,0.4571,-0.1931,5.1875,-30.7500,15.2500,153.8750,22.2500,-152.6875,0
407.797,9.9144,2.7964,0.2586,-0.9635,0.1188,-0.0839,-58.6500,31.6500,20.7000,10.1107,-1.1133,1.7717,-0.5697,0.8849,0.2164,-55.8000,7.3500,-24.7500,2.3200,3.8100,-9.4200,-0.1800,0.4571,-0.1931,5.1875,-30.7500,16.0625,153.1250,22.4375,-152.4375,0
407.802,9.9503,3.2082,0.5818,-0.5913,0.1164,-0.0821,-60.0000,32.4000,20.7000,9.8689,1.6209,2.3104,-0.5697,0.8849,0.2164,-55.5000,6.4500,-24.1500,1.6900,5.2900,-9.6700,-0.1473,0.5651,-0.4080,5.1875,-30.7500,16.0625,153.1250,22.4375,-152.4375,0
407.807,9.9503,3.2082,0.5818,-0.5913,0.1164,-0.0821,-60.0000,32.4000,20.7000,9.8689,1.6209,2.3104,0.0157,0.9113,0.3174,-55.5000,6.4500,-24.1500,1.6900,5.2900,-9.6700,-0.1473,0.5651,-0.4080,5.1875,-30.7500,16.0625,152.6250,22.6250,-152.2500,0
407.812,10.3046,3.1987,0.7470,-0.2585,0.0959,-0.0229,-58.0500,31.0500,20.5500,9.2799,2.2458,2.1715,0.0157,0.9113,0.3174,-56.8500,6.1500,-22.9500,5.9200,3.5500,-8.1200,0.0185,0.7952,-0.7014,5.1875,-30.7500,16.0625,152.6250,22.6250,-152.2500,0
407.817,10.3046,3.1987,0.7470,-0.2585,0.0959,-0.0229,-58.0500,31.0500,20.5500,9.2799,2.2458,2.1715,0.9073,1.0770,0.2070,-56.8500,6.1500,-22.9500,5.9200,3.5500,-8.1200,-0.1222,0.9228,-0.7930,5.1875,-30.7500,16.0625,152.0625,22.8750,-151.8750,0
407.823,9.8330,3.0095,0.3711,0.0938,0.0264,0.0648,-59.2500,31.9500,22.2000,9.7659,1.5179,3.1556,1.1378,1.1583,0.1167,-55.8000,5.8500,-24.3000,4.3800,2.8200,-9.0600,-0.1222,0.9228,-0.7930,5.1875,-30.7500,16.0625,151.5000,23.1875,-151.4375,0
407.832,8.8226,3.6919,0.9266,0.4399,0.0258,0.1439,-59.2500,30.1500,21.9000,9.4619,1.0032,3.1196,0.9297,1.0848,0.1679,-55.0500,4.9500,-22.2000,2.9900,4.3800,-9.0800,-0.2640,1.0188,-0.8268,5.1875,-30.7500,16.0625,151.5000,23.1875,-151.4375,0
407.842,8.3342,3.9456,1.6783,0.6062,0.1167,0.1932,-59.2500,30.1500,21.9000,9.2105,1.5921,2.9880,0.7397,0.9859,0.2006,-56.8500,5.4000,-22.5000,4.6500,4.6000,-7.6300,-0.3305,1.0952,-0.8716,5.1875,-30.7500,16.0625,150.9375,23.4375,-150.9375,0
407.847,8.3342,3.9456,1.6783,0.6062,0.1167,0.1932,-59.2500,30.1500,21.9000,9.2105,1.5921,2.9880,0.7397,0.9859,0.2006,-56.8500,5.4000,-22.5000,4.6500,4.6000,-7.6300,-0.3305,1.0952,-0.8716,5.1875,-30.7500,16.0625,150.9375,23.4375,-150.9375,0
407.852,8.7149,3.2082,2.7461,0.6656,0.1990,0.2356,-59.2500,30.1500,21.9000,8.9064,2.0016,3.0718,0.5897,0.8980,0.1482,-54.6000,5.4000,-22.5000,4.4200,5.7800,-7.0400,-0.3491,1.1301,-0.8639,4.3750,-30.7500,17.2500,149.9375,23.7500,-150.4375,0
407.857,8.7149,3.2082,2.7461,0.6656,0.1990,0.2356,-59.2500,30.1500,21.9000,8.9064,2.0016,3.0718,0.5897,0.8980,0.1482,-54.6000,5.4000,-22.5000,4.4200,5.7800,-7.0400,-0.3491,1.1301,-0.8639,4.3750,-30.7500,17.2500,149.9375,23.7500,-150.4375,0
407.862,9.1099,2.4038,2.4062,0.7397,0.5756,0.2766,-57.0000,30.3000,24.1500,8.4827,2.5786,3.1029,0.2617,0.8082,0.0560,-55.0500,6.6000,-21.7500,4.1800,5.4700,-6.8300,-0.2978,1.1290,-0.7254,4.3750,-30.7500,17.2500,149.3750,24.1250,-150.0000,0
407.867,9.1099,2.4038,2.4062,0.7397,0.5756,0.2766,-57.0000,30.3000,24.1500,8.4827,2.5786,3.1029,0.2617,0.8082,0.0560,-55.0500,6.6000,-21.7500,4.1800,5.4700,-6.8300,-0.2607,1.0548,-0.5640,4.3750,-30.7500,17.2500,149.0000,24.5000,-149.5625,0
407.873,8.9136,1.4365,2.8323,0.6957,0.1647,0.3070,-57.7500,29.5500,22.0500,8.6239,2.4756,3.0430,-0.0005,0.7024,-0.0176,-57.3000,4.6500,-20.7000,5.2400,6.4900,-5.7900,-0.2607,1.0548,-0.5640,4.3750,-30.7500,17.2500,148.6875,24.8125,-149.2500,0
407.882,9.8019,0.6345,2.2673,0.5135,0.3206,0.2931,-56.5500,30.3000,22.0500,8.9280,2.4301,2.5115,-0.2814,0.5979,-0.0671,-57.3000,4.6500,-20.7000,5.0900,6.3400,-5.9100,-0.2771,0.9338,-0.3240,4.3750,-30.7500,17.2500,148.6875,24.8125,-149.2500,0
407.892,9.0980,-0.1197,1.6975,0.3032,0.1924,0.2422,-57.7500,28.5000,22.0500,8.7652,1.7142,2.2553,-0.5489,0.4895,-0.0829,-56.8500,4.6500,-21.4500,4.2200,6.8800,-6.0400,-0.3894,0.7396,-0.1069,4.3750,-30.7500,17.2500,148.5625,25.1250,-148.9375,0
407.897,9.0980,-0.1197,1.6975,0.3032,0.1924,0.2422,-57.7500,28.5000,22.0500,8.7652,1.7142,2.2553,-0.5489,0.4895,-0.0829,-56.8500,4.6500,-21.4500,4.2200,6.8800,-6.0400,-0.3894,0.7396,-0.1069,4.3750,-30.7500,17.2500,148.2500,25.4375,-148.6250,0
407.902,8.7867,-0.5962,1.1349,-0.0472,0.2265,0.1719,-57.7500,28.5000,22.0500,8.2408,0.7925,2.0806,-0.7741,0.4501,-0.0674,-56.1000,4.9500,-20.2500,4.3200,6.0700,-6.3300,-0.4407,0.5541,0.0644,5.5000,-30.0625,15.5625,148.2500,25.4375,-148.6250,0
407.907,8.7867,-0.5962,1.1349,-0.0472,0.2265,0.1719,-57.7500,28.5000,22.0500,8.2408,0.7925,2.0806,-0.7741,0.4501,-0.0674,-56.1000,4.9500,-20.2500,4.3200,6.0700,-6.3300,-0.4407,0.5541,0.0644,5.5000,-30.0625,15.5625,148.2500,25.4375,-148.6250,0
407.912,8.7508,-0.5626,0.5387,-0.4565,0.2553,0.1282,-55.3500,28.9500,20.4000,8.2552,0.1460,2.0901,-0.9633,0.4205,-0.0618,-57.4500,4.8000,-21.1500,4.4200,5.3700,-6.8000,-0.4571,0.3992,0.1473,5.5000,-30.0625,15.5625,148.3125,25.6875,-148.3125,0
407.917,8.7508,-0.5626,0.5387,-0.4565,0.2553,0.1282,-55.3500,28.9500,20.4000,8.2552,0.1460,2.0901,-0.9633,0.4205,-0.0618,-57.4500,4.8000,-21.1500,4.4200,5.3700,-6.8000,-0.4472,0.2891,0.2018,5.5000,-30.0625,15.5625,148.4375,25.8750,-148.0625,0
407.923,9.3709,-0.3687,0.1724,-0.8436,0.1657,0.1247,-55.3500,27.4500,21.9000,8.5305,0.0287,1.6233,-1.2116,0.4255,-0.0794,-55.8000,6.6000,-20.7000,4.6500,4.7400,-6.8900,-0.4472,0.2891,0.2018,5.5000,-30.0625,15.5625,148.6250,26.0000,-147.8125,0
407.932,9.9838,-0.1556,-0.0838,-1.1519,0.0394,0.1308,-55.3500,28.9500,22.9500,9.2105,0.4094,1.0965,-1.4536,0.4335,-0.0999,-58.2000,7.5000,-21.6000,4.6100,4.5300,-7.1400,-0.5312,0.2007,0.2531,5.5000,-30.0625,15.5625,148.6250,26.0000,-147.8125,0
407.942,10.1179,0.2227,-0.5483,-1.4482,-0.1431,0.1319,-55.5000,28.5000,21.6000,9.7348,0.8667,0.9960,-1.5695,0.4338,-0.1319,-56.5500,6.6000,-21.7500,4.3800,5.0300,-7.4000,-0.6327,0.1331,0.3109,5.5000,-30.0625,15.5625,148.8750,26.1875,-147.5000,0
407.947,10.1538,0.4525,-0.8882,-1.7781,-0.2851,0.1260,-55.5000,28.5000,21.6000,9.6175,1.0558,0.8619,-1.5695,0.4338,-0.1319,-56.5500,6.6000,-21.7500,4.3800,5.0300,-7.4000,-0.6327,0.1331,0.3109,5.5000,-30.0625,15.5625,148.8750,26.1875,-147.5000,0
407.952,10.1538,0.4525,-0.8882,-1.7781,-0.2851,0.1260,-56.4000,30.1500,23.2500,9.6175,1.0558,0.8619,-1.6180,0.4692,-0.1737,-56.5500,6.6000,-21.7500,4.4500,5.1900,-7.3700,-0.7058,0.1102,0.3796,4.3750,-31.0625,15.5625,149.0000,26.3750,-147.1875,0
407.957,9.4643,0.8715,-1.1971,-2.0763,-0.3930,0.1018,-56.4000,30.1500,23.2500,9.1219,1.0798,0.2466,-1.7062,0.5588,-0.2065,-56.5500,6.6000,-21.7500,4.4500,5.1900,-7.3700,-0.7058,0.1102,0.3796,4.3750,-31.0625,15.5625,149.0000,26.3750,-147.1875,0
407.962,9.4643,0.8715,-1.1971,-2.0763,-0.3930,0.1018,-56.4000,30.1500,23.2500,9.1219,1.0798,0.2466,-1.7062,0.5588,-0.2065,-56.7000,7.2000,-20.5500,4.5200,4.9700,-7.3800,-0.7647,0.1091,0.4767,4.3750,-31.0625,15.5625,149.3750,26.5625,-146.8750,0
407.967,8.5976,1.7023,-1.4389,-2.3854,-0.4727,0.0709,-56.4000,30.1500,23.2500,8.6143,1.0750,-0.7350,-1.8029,0.6443,-0.2201,-56.7000,7.2000,-20.5500,4.5200,4.9700,-7.3800,-0.8465,0.0884,0.5541,4.3750,-31.0625,15.5625,149.7500,26.7500,-146.5000,0
407.973,8.5976,1.7023,-1.4389,-2.3854,-0.4727,0.0709,-57.4500,31.2000,23.5500,8.6143,1.0750,-0.7350,-1.8029,0.6443,-0.2201,-56.7000,7.2000,-20.5500,4.6600,4.4700,-7.5100,-0.8465,0.0884,0.5541,4.3750,-31.0625,15.5625,150.2500,26.9375,-146.1250,0
407.982,7.7764,2.8994,-1.4246,-2.5855,-0.5825,0.0485,-57.3000,30.7500,23.4000,8.6383,1.4461,-1.1947,-1.8564,0.7999,-0.2249,-57.3000,8.1000,-17.7000,4.5800,4.4400,-7.4000,-0.9425,0.0611,0.6109,4.3750,-31.0625,15.5625,150.2500,26.9375,-146.1250,0
407.992,7.7476,3.4453,-1.8028,-2.5972,-0.6454,0.0109,-56.4000,31.9500,25.3500,8.7580,1.4964,-0.9098,-1.7874,0.9001,-0.2566,-57.4500,9.1500,-18.6000,4.5200,5.0800,-6.8800,-1.0003,0.0567,0.6381,4.3750,-31.0625,15.5625,150.7500,27.1875,-145.6875,0
407.997,8.6024,3.5913,-2.1548,-2.3987,-0.6845,-0.0773,-56.4000,31.9500,25.3500,9.1291,2.0997,-0.0120,-1.7749,0.9324,-0.2856,-57.4500,9.1500,-18.6000,4.5200,5.0800,-6.8800,-1.0003,0.0567,0.6381,4.3750,-31.0625,15.5625,150.7500,27.1875,-145.6875,0
408.002,8.6024,3.5913,-2.1548,-2.3987,-0.6845,-0.0773,-57.3000,31.8000,25.2000,9.1291,2.0997,-0.0120,-1.7749,0.9324,-0.2856,-56.7000,7.9500,-17.5500,4.0200,5.4900,-6.8900,-1.0210,0.0469,0.7014,4.3750,-30.7500,14.8750,150.9375,27.4375,-145.3125,0
408.007,10.0006,3.9145,-1.5251,-2.2652,-0.7256,-0.1362,-57.3000,31.8000,25.2000,9.6223,2.1332,0.8930,-1.7224,0.9675,-0.3549,-56.7000,7.9500,-17.5500,4.0200,5.4900,-6.8900,-1.0210,0.0469,0.7014,4.3750,-30.7500,14.8750,150.9375,27.4375,-145.3125,0
408.012,10.0006,3.9145,-1.5251,-2.2652,-0.7256,-0.1362,-57.3000,32.2500,24.4500,9.6223,2.1332,0.8930,-1.7224,0.9675,-0.3549,-56.2500,9.1500,-16.3500,3.5000,6.7200,-6.9400,-1.0003,0.0447,0.8290,4.3750,-30.7500,14.8750,151.5625,27.6875,-144.9375,0
408.017,10.3908,4.3263,-0.4573,-2.2516,-0.9006,-0.1527,-57.3000,32.2500,24.4500,9.7109,0.8452,1.1923,-1.7110,1.1064,-0.4533,-56.2500,9.1500,-16.3500,3.5000,6.7200,-6.9400,-0.9403,0.0829,1.0090,4.3750,-30.7500,14.8750,152.2500,28.0625,-144.6250,0
408.023,10.3908,4.3263,-0.4573,-2.2516,-0.9006,-0.1527,-57.3000,32.2500,24.4500,10.3693,0.0790,1.4533,-1.7110,1.1064,-0.4533,-57.4500,9.9000,-15.6000,4.3900,5.8100,-7.0300,-0.9403,0.0829,1.0090,4.3750,-30.7500,14.8750,153.0625,28.5000,-144.4375,0
408.032,10.3669,3.9361,0.5291,-2.3363,-0.9081,-0.1330,-54.9000,31.9500,26.4000,10.2663,0.2921,1.0558,-1.8317,1.1122,-0.5241,-56.1000,10.0500,-14.4000,4.2100,6.4100,-7.1900,-0.9348,0.0905,1.2414,4.3750,-30.7500,14.8750,154.0000,29.0625,-144.1875,0
408.043,9.9096,3.4381,0.0958,-2.3073,-0.9443,-0.1002,-56.2500,31.5000,27.3000,10.7619,2.3559,0.4669,-2.0843,1.1890,-0.6014,-56.1000,10.0500,-14.4000,4.2500,5.7900,-6.6600,-0.9959,0.1276,1.4966,4.3750,-30.7500,14.8750,154.0000,29.0625,-144.1875,0
408.047,9.6965,4.1084,-0.0862,-2.2199,-0.9912,-0.0765,-54.4500,32.2500,27.7500,10.7619,2.3559,0.4669,-2.2950,1.1628,-0.6209,-56.1000,10.0500,-14.4000,4.2500,5.7900,-6.6600,-0.9959,0.1276,1.4966,4.3750,-30.7500,14.8750,246.5000,29.6875,-143.9375,0
408.053,10.9822,5.4612,-0.2131,-2.1272,-1.1186,-0.0882,-54.4500,32.2500,27.7500,13.2974,2.1787,-1.2378,-2.2950,1.1628,-0.6209,-57.3000,10.5000,-14.4000,3.4900,4.5700,-7.1900,-1.1606,0.2116,1.6864,3.6875,-31.8750,13.6875,246.5000,29.6875,-143.9375,0
408.058,10.9822,5.4612,-0.2131,-2.1272,-1.1186,-0.0882,-53.5500,30.9000,27.6000,13.2974,2.1787,-1.2378,-2.1765,1.2478,-0.5825,-57.3000,10.5000,-14.4000,3.4900,4.5700,-7.1900,-1.4486,0.3774,1.8446,3.6875,-31.8750,13.6875,246.5000,30.5000,-143.5625,0
408.063,11.2240,5.6551,-0.9673,-2.0280,-1.2910,-0.1335,-53.5500,30.9000,27.6000,14.0540,-0.1724,0.1437,-1.6856,1.3129,-0.6206,-57.3000,10.5000,-14.4000,5.4700,4.8300,-9.1200,-1.4486,0.3774,1.8446,3.6875,-31.8750,13.6875,246.5000,30.5000,-143.5625,0
408.068,11.2240,5.6551,-0.9673,-2.0280,-1.2910,-0.1335,-53.5500,30.9000,27.6000,14.0540,-0.1724,0.1437,-1.6856,1.3129,-0.6206,-57.3000,10.5000,-14.4000,5.4700,4.8300,-9.1200,-1.7191,0.6545,1.9133,3.6875,-31.8750,13.6875,246.3750,31.3750,-143.0000,0
408.073,10.8481,4.6352,-3.0215,-1.7187,-1.2686,-0.1649,-53.5500,30.9000,27.6000,14.0923,-0.7997,-0.6464,-1.5508,1.4714,-0.7021,-57.0000,11.8500,-12.0000,3.5600,6.4000,-8.0100,-1.7191,0.6545,1.9133,3.6875,-31.8750,13.6875,245.9375,32.6250,-142.2500,0
408.083,11.5137,3.5219,-5.4588,-1.2585,-1.0674,-0.2014,-54.0000,30.7500,29.1000,14.0683,-2.3463,-0.7374,-1.3819,1.5966,-0.8426,-57.6000,10.5000,-12.4500,4.5000,4.9100,-8.1000,-1.9253,1.1803,2.0388,3.6875,-31.8750,13.6875,245.9375,32.6250,-142.2500,0
408.092,10.2041,2.4301,-4.8267,-0.9188,-1.7640,-0.3200,-53.4000,30.3000,27.7500,12.8640,-2.2697,1.0391,-1.4189,1.7413,-0.9350,-56.5500,12.0000,-11.1000,4.4400,5.7000,-8.1000,-2.1740,1.5348,2.2602,3.6875,-31.8750,13.6875,245.3750,34.0625,-141.3125,0
408.097,10.2041,2.4301,-4.8267,-0.9188,-1.7640,-0.3200,-53.1000,28.9500,28.9500,12.8640,-2.2697,1.0391,-1.4189,1.7413,-0.9350,-56.5500,12.0000,-11.1000,4.4400,5.7000,-8.1000,-2.1740,1.5348,2.2602,3.6875,-31.8750,13.6875,245.3750,34.0625,-141.3125,0
408.102,10.2208,0.9433,-2.9449,-0.7157,-1.8109,-0.4287,-53.1000,28.9500,28.9500,12.6581,-1.1827,1.5586,-1.6510,1.7448,-0.9385,-56.5500,12.0000,-11.1000,6.5700,10.1800,-8.7000,-2.4446,1.7781,2.4696,0.6875,-32.2500,11.7500,244.6875,35.6875,-140.2500,0
408.107,10.2208,0.9433,-2.9449,-0.7157,-1.8109,-0.4287,-52.3500,28.2000,29.2500,12.6581,-1.1827,1.5586,-1.6510,1.7448,-0.9385,-57.9000,11.4000,-11.2500,6.5700,10.1800,-8.7000,-2.4446,1.7781,2.4696,0.6875,-32.2500,11.7500,244.6875,35.6875,-140.2500,0
408.112,10.5608,-0.0096,-0.3903,-1.0128,-2.0432,-0.5204,-52.3500,28.2000,29.2500,12.3110,0.8332,1.9154,-1.6659,1.6414,-0.9169,-57.4500,11.4000,-10.0500,4.6500,5.5100,-9.2900,-2.7129,1.7868,2.5722,0.6875,-32.2500,11.7500,244.2500,37.3750,-139.1250,0
408.117,10.5608,-0.0096,-0.3903,-1.0128,-2.0432,-0.5204,-51.9000,27.7500,28.5000,12.3110,0.8332,1.9154,-1.6659,1.6414,-0.9169,-57.4500,11.4000,-10.0500,4.6500,5.5100,-9.2900,-2.6900,1.7322,2.8133,0.6875,-32.2500,11.7500,243.7500,39.1250,-138.0000,0
408.123,11.5855,-0.6201,0.4381,-1.3057,-2.3334,-0.5116,-51.9000,27.7500,28.5000,11.2934,1.6376,5.8706,-1.6276,1.4941,-0.8807,-55.3500,12.9000,-7.6500,2.4500,7.4900,-10.2800,-2.6900,1.7322,2.8133,0.6875,-32.2500,11.7500,242.8750,40.9375,-137.2500,0
408.133,11.8130,-1.1325,2.1284,-1.8394,-2.3782,-0.4543,-51.9000,27.7500,28.5000,9.1866,2.3846,8.9878,-1.3979,1.4365,-0.9038,-55.3500,12.9000,-7.6500,2.8000,6.2900,-7.0400,-2.3213,1.6941,3.0281,0.6875,-32.2500,11.7500,242.8750,40.9375,-137.2500,0
408.143,13.0484,-2.3966,2.9329,-2.6732,-2.0675,-0.3637,-52.3500,30.4500,27.6000,7.5561,2.6576,10.2568,-1.2430,1.3446,-0.9433,-56.7000,12.3000,-6.7500,4.9700,8.3500,-7.4300,-1.9788,2.1304,3.0281,0.6875,-32.2500,11.7500,241.4375,42.9375,-136.5625,0
408.148,13.0484,-2.3966,2.9329,-2.6732,-2.0675,-0.3637,-49.5000,32.4000,26.8500,7.5561,2.6576,10.2568,-1.2430,1.3446,-0.9433,-56.7000,12.3000,-6.7500,4.9700,8.3500,-7.4300,-1.9788,2.1304,3.0281,0.6875,-32.2500,11.7500,240.3125,44.7500,-136.0000,0
408.153,13.4817,-4.0486,4.3311,-3.0137,-1.8820,-0.2316,-49.5000,32.4000,26.8500,6.4356,2.4277,10.5848,-1.2001,1.0936,-0.9966,-56.7000,12.3000,-6.7500,5.3100,6.0000,-9.3800,-1.8053,1.7824,2.8667,-3.5625,-34.3750,9.0000,240.3125,44.7500,-136.0000,0
408.157,13.4817,-4.0486,4.3311,-3.0137,-1.8820,-0.2316,-48.4500,31.9500,28.2000,6.0406,1.1875,9.6414,-1.2001,1.0936,-0.9966,-56.7000,12.3000,-6.7500,5.3100,6.0000,-9.3800,-1.8053,1.7824,2.8667,-3.5625,-34.3750,9.0000,239.8125,46.1250,-135.6250,0
408.163,14.1593,-5.5043,4.5849,-3.5058,-1.4000,-0.0538,-48.4500,31.9500,28.2000,6.0406,1.1875,9.6414,-1.6486,0.6973,-1.0579,-56.7000,12.3000,-6.7500,7.1900,5.7000,-11.9500,-1.8991,0.9218,2.6464,-3.5625,-34.3750,9.0000,239.8125,46.1250,-135.6250,0
408.167,14.1593,-5.5043,4.5849,-3.5058,-1.4000,-0.0538,-51.0000,32.7000,27.9000,6.5841,-0.0479,5.6838,-1.6486,0.6973,-1.0579,-55.5000,14.2500,-7.9500,7.1900,5.7000,-11.9500,-1.7901,-0.7330,2.5591,-3.5625,-34.3750,9.0000,240.2500,46.8750,-136.0000,0
408.174,12.2439,-5.2840,4.0414,-3.6721,-1.3097,0.0759,-51.0000,32.7000,27.9000,6.5841,-0.0479,5.6838,-2.6692,0.1727,-0.9678,-55.3500,12.4500,-5.5500,7.1200,5.4300,-12.1300,-1.7901,-0.7330,2.5591,-3.5625,-34.3750,9.0000,241.1250,46.9375,-137.1250,0
408.183,11.9303,-1.7669,5.3271,-3.7590,-1.3917,0.0882,-49.6500,33.3000,28.0500,7.4196,0.3184,5.9496,-3.4342,-0.3419,-0.7586,-55.3500,14.8500,-5.5500,5.6300,10.5700,-11.5400,-1.4170,-2.1173,2.4075,-3.5625,-34.3750,9.0000,241.1250,46.9375,-137.1250,0
408.193,9.6510,2.0327,5.9903,-3.8616,-1.0203,0.0703,-49.6500,33.3000,28.0500,5.8826,2.9688,7.1611,-3.6178,-0.7003,-0.5372,-55.3500,14.8500,-5.1000,0.3900,4.9300,-3.6100,-0.6545,-3.5027,2.2166,-3.5625,-34.3750,9.0000,242.2500,46.3125,-139.1250,0
408.198,9.6510,2.0327,5.9903,-3.3265,-0.7767,0.0131,-51.1500,34.8000,28.8000,3.8092,3.0263,7.7668,-3.3801,-0.8964,-0.3853,-55.0500,15.1500,-5.8500,0.3900,4.9300,-3.6100,-0.6545,-3.5027,2.2166,-3.5625,-34.3750,9.0000,242.2500,46.3125,-139.1250,0
408.203,7.7524,4.5059,6.3159,-3.3265,-0.7767,0.0131,-51.1500,34.8000,28.8000,3.8092,3.0263,7.7668,-3.3801,-0.8964,-0.3853,-55.0500,15.1500,-5.8500,1.0900,3.7900,-2.0600,-0.1680,-3.1885,2.4140,-9.8750,-33.3750,4.6875,242.7500,45.8125,-141.2500,0
408.207,7.0174,5.8969,5.6886,-2.4483,-0.4922,-0.0205,-51.3000,36.4500,30.4500,3.6751,2.5450,7.3789,-2.9708,-0.8788,-0.3563,-54.4500,13.8000,-4.5000,1.0900,3.7900,-2.0600,-0.1680,-3.1885,2.4140,-9.8750,-33.3750,4.6875,242.7500,45.8125,-141.2500,0
408.213,7.0174,5.8969,5.6886,-2.4483,-0.4922,-0.0205,-51.3000,36.4500,30.4500,3.6751,2.5450,7.3789,-2.9708,-0.8788,-0.3563,-54.4500,13.8000,-4.5000,2.6800,5.9600,-0.9200,-0.2454,-3.0631,1.9689,-9.8750,-33.3750,4.6875,243.5000,45.1250,-143.0625,0
408.217,6.8235,5.8012,3.9193,-1.3920,-0.3930,-0.0711,-50.8500,36.7500,30.6000,4.2473,2.9928,7.5657,-2.3014,-0.9185,-0.4114,-54.1500,14.8500,-3.6000,2.6800,5.9600,-0.9200,-0.1047,-3.0500,1.6537,-9.8750,-33.3750,4.6875,244.3750,44.3125,-144.7500,0
408.224,6.8235,5.8012,3.9193,-1.3920,-0.3930,-0.0711,-50.8500,36.7500,30.6000,4.2473,2.9928,7.5657,-2.3014,-0.9185,-0.4114,-54.1500,14.8500,-3.6000,2.9200,4.5500,-0.1600,-0.1047,-3.0500,1.6537,-9.8750,-33.3750,4.6875,245.2500,43.5000,-146.0000,0
408.233,7.3574,4.8698,2.5762,-0.2545,-0.2289,-0.1287,-52.3500,36.4500,30.0000,3.8307,3.2633,7.4484,-1.4759,-0.9958,-0.4708,-54.1500,14.8500,-3.6000,3.9900,2.9500,-0.1300,-0.1047,-2.6562,1.2774,-9.8750,-33.3750,4.6875,245.2500,43.5000,-146.0000,0
408.243,8.1307,3.4093,1.9728,0.5979,-0.0941,-0.1801,-52.3500,36.4500,30.0000,3.7661,3.2298,7.2209,-0.5385,-0.9499,-0.5087,-56.2500,15.7500,-3.7500,5.2800,2.8100,-0.3900,-0.2934,-2.2286,0.8498,-9.8750,-33.3750,4.6875,246.3125,42.6875,-146.8750,0
408.248,8.7005,2.0830,2.1021,1.0477,-0.1503,-0.2225,-49.5000,36.4500,29.7000,4.3574,2.8299,6.9240,0.2337,-0.8708,-0.5183,-56.2500,15.7500,-3.7500,5.2800,2.8100,-0.3900,-0.2934,-2.2286,0.8498,-9.8750,-33.3750,4.6875,246.3125,42.6875,-146.8750,0
408.253,8.7005,2.0830,2.1021,1.0477,-0.1503,-0.2225,-49.5000,36.4500,29.7000,4.3574,2.8299,6.9240,0.2337,-0.8708,-0.5183,-56.2500,15.7500,-3.7500,5.7700,2.3800,-1.4000,-0.4865,-1.7148,0.4156,-11.6875,-33.0000,6.2500,247.0000,42.0000,-147.2500,0
408.258,9.0525,1.1277,2.1548,1.2308,-0.3277,-0.2076,-49.9500,37.2000,30.7500,5.1044,2.2290,6.5242,0.7120,-0.8029,-0.4596,-55.9500,15.4500,-3.0000,5.7700,2.3800,-1.4000,-0.4865,-1.7148,0.4156,-11.6875,-33.0000,6.2500,247.0000,42.0000,-147.2500,0
408.263,9.0525,1.1277,2.1548,1.2308,-0.3277,-0.2076,-49.9500,37.2000,30.7500,5.1044,2.2290,6.5242,0.7120,-0.8029,-0.4596,-55.9500,15.4500,-3.0000,5.8800,1.8300,-2.2600,-0.5836,-1.3090,-0.0611,-11.6875,-33.0000,6.2500,248.4375,41.3750,-147.2500,0
408.268,8.9399,0.6680,1.9824,1.1588,-0.5041,-0.1274,-49.6500,35.2500,30.9000,5.8275,1.6376,6.3087,0.9148,-0.7621,-0.3317,-54.7500,15.4500,-3.0000,5.8800,1.8300,-2.2600,-0.6120,-0.9567,-0.4320,-11.6875,-33.0000,6.2500,249.8750,40.8125,-147.0000,0
408.274,8.9399,0.6680,1.9824,1.1588,-0.5041,-0.1274,-51.1500,35.5500,29.5500,6.4356,0.9026,6.0047,0.8751,-0.7615,-0.1775,-53.4000,15.1500,-3.3000,6.1000,1.4800,-3.3200,-0.6120,-0.9567,-0.4320,-11.6875,-33.0000,6.2500,251.2500,40.2500,-146.6250,0
408.283,8.6550,0.5890,1.5826,0.8966,-0.5638,-0.0453,-47.8500,34.8000,30.6000,7.0581,-0.1245,5.4636,0.8751,-0.7615,-0.1775,-53.4000,15.1500,-3.3000,6.7600,1.4500,-5.3100,-0.5716,-0.7276,-0.6720,-11.6875,-33.0000,6.2500,251.2500,40.2500,-146.6250,0
408.293,8.3965,0.7254,1.1061,0.5998,-0.5215,0.0173,-47.8500,34.8000,30.6000,7.3861,-0.7638,5.0589,0.2723,-0.8783,0.0544,-54.4500,15.0000,-4.5000,6.5200,1.3100,-5.7100,-0.4385,-0.6992,-0.7876,-11.6875,-33.0000,6.2500,252.5625,39.6875,-146.2500,0
408.298,8.0732,0.9553,1.1085,0.3584,-0.3563,0.0400,-47.8500,34.8000,30.6000,7.3861,-0.7638,5.0589,0.2723,-0.8783,0.0544,-54.4500,15.4500,-4.9500,6.5200,1.3100,-5.7100,-0.4385,-0.6992,-0.7876,-11.6875,-33.0000,6.2500,253.5625,39.1250,-146.0000,0
408.303,8.0732,0.9553,1.1085,0.3584,-0.3563,0.0400,-47.8500,34.8000,30.6000,7.5154,-0.7973,4.5466,-0.1692,-0.9694,0.0882,-54.4500,15.4500,-4.9500,5.9700,1.3500,-5.8600,-0.2891,-0.7734,-0.7723,-13.5625,-32.5000,5.7500,253.5625,39.1250,-146.0000,0
408.308,7.8530,1.1756,1.0487,0.3235,-0.2300,0.0197,-49.2000,36.1500,29.7000,7.5154,-0.7973,4.5466,-0.1692,-0.9694,0.0882,-54.1500,15.1500,-5.1000,5.9700,1.3500,-5.8600,-0.2891,-0.7734,-0.7723,-13.5625,-32.5000,5.7500,254.6875,38.5000,-145.8125,0
408.313,7.8530,1.1756,1.0487,0.3235,-0.2300,0.0197,-48.9000,36.7500,28.8000,7.8865,-0.2658,3.9145,-0.5431,-1.0592,0.0719,-54.1500,15.1500,-5.1000,5.3200,1.5400,-6.3900,-0.1713,-0.8705,-0.6883,-13.5625,-32.5000,5.7500,254.6875,38.5000,-145.8125,0
408.318,7.7907,1.7573,1.1205,0.3762,-0.2803,-0.0045,-48.9000,36.7500,28.8000,7.8865,-0.2658,3.9145,-0.5431,-1.0592,0.0719,-54.1500,15.1500,-5.1000,5.3200,1.5400,-6.3900,-0.1025,-1.0090,-0.5672,-13.5625,-32.5000,5.7500,255.8125,37.8750,-145.8125,0
408.324,8.0972,2.1308,0.3496,0.2590,-0.1636,-0.0544,-49.2000,37.6500,29.2500,8.4013,0.4741,3.7373,-0.8159,-1.1471,0.0834,-54.1500,15.1500,-5.1000,4.8800,1.5200,-6.8500,-0.1025,-1.0090,-0.5672,-13.5625,-32.5000,5.7500,257.0625,37.1875,-145.8750,0
408.333,8.4970,2.0183,-0.8691,0.1801,-0.0077,-0.1338,-49.5000,37.6500,27.9000,9.2153,0.7685,3.4357,-0.8825,-1.2127,0.0442,-54.7500,15.7500,-6.7500,4.8700,2.0300,-7.7500,-0.1844,-1.1596,-0.4232,-13.5625,-32.5000,5.7500,257.0625,37.1875,-145.8750,0
408.343,9.2703,1.6807,-1.5586,0.0117,0.0520,-0.2020,-49.2000,35.7000,27.9000,9.8162,0.7997,3.6057,-0.9076,-1.2955,0.0320,-54.7500,15.7500,-6.7500,4.7600,3.8200,-8.1400,-0.3131,-1.3854,-0.2814,-13.5625,-32.5000,5.7500,258.5625,36.5000,-145.8750,0
408.348,9.2703,1.6807,-1.5586,0.0117,0.0520,-0.2020,-49.2000,35.7000,27.9000,9.8162,0.7997,3.6057,-0.9076,-1.2955,0.0320,-53.4000,14.8500,-5.5500,4.7600,3.8200,-8.1400,-0.3131,-1.3854,-0.2814,-13.5625,-32.5000,5.7500,258.5625,36.5000,-145.8750,0
408.353,10.0987,1.2115,-1.9561,-0.1599,0.0019,-0.2361,-49.2000,35.7000,27.9000,10.8242,1.0726,3.0215,-1.0267,-1.3747,0.0482,-53.4000,14.8500,-5.5500,3.6700,4.2600,-7.8200,-0.3763,-1.6646,-0.1254,-12.0000,-33.2500,6.5625,259.8750,35.6875,-146.0000,0
408.358,10.0987,1.2115,-1.9561,-0.1599,0.0019,-0.2361,-49.2000,35.7000,27.9000,10.8242,1.0726,3.0215,-1.0267,-1.3747,0.0482,-54.6000,16.8000,-4.8000,3.6700,4.2600,-7.8200,-0.3763,-1.6646,-0.1254,-12.0000,-33.2500,6.5625,259.8750,35.6875,-146.0000,0
408.363,10.7835,0.9673,-2.6121,-0.2209,-0.1458,-0.2078,-49.5000,36.4500,28.6500,10.8553,0.9744,2.2936,-1.1730,-1.4256,0.0850,-54.6000,16.8000,-4.8000,3.3600,5.4200,-7.7400,-0.4712,-1.7781,-0.0316,-12.0000,-33.2500,6.5625,261.7500,34.8750,-146.1250,0
408.368,10.7835,0.9673,-2.6121,-0.2209,-0.1458,-0.2078,-49.5000,36.4500,28.6500,10.8553,0.9744,2.2936,-1.1730,-1.4256,0.0850,-54.4500,17.4000,-4.9500,3.3600,5.4200,-7.7400,-0.5236,-1.8064,-0.0982,-12.0000,-33.2500,6.5625,263.8125,34.0000,-146.1875,0
408.374,11.3892,0.9936,-2.9712,-0.3379,-0.2180,-0.1348,-50.4000,36.0000,29.1000,10.7332,1.1277,2.2984,-1.1421,-1.4858,0.1108,-54.4500,17.4000,-4.9500,3.3400,6.7500,-7.5500,-0.5236,-1.8064,-0.0982,-12.0000,-33.2500,6.5625,265.8750,33.0625,-146.2500,0
408.383,11.2408,1.3934,-2.6671,-0.5233,-0.3347,-0.0866,-48.7500,35.4000,29.2500,10.4579,1.5658,2.1428,-1.0051,-1.5625,0.0922,-53.8500,17.1000,-6.9000,2.1900,7.7400,-6.5300,-0.4527,-1.7759,-0.2629,-12.0000,-33.2500,6.5625,265.8750,33.0625,-146.2500,0
408.393,10.8386,1.7861,-1.6712,-0.6145,-0.2923,-0.0642,-51.1500,37.0500,28.5000,10.1730,1.5562,2.3511,-0.7139,-1.6382,0.0496,-54.0000,15.7500,-6.4500,1.0500,7.2900,-6.0700,-0.3829,-1.6766,-0.4778,-12.0000,-33.2500,6.5625,267.9375,32.1875,-146.1875,0
408.398,10.8386,1.7861,-1.6712,-0.6145,-0.2923,-0.0642,-51.1500,37.0500,28.5000,9.5577,1.6065,2.2027,-0.7139,-1.6382,0.0496,-54.0000,15.4500,-7.2000,1.0500,7.2900,-6.0700,-0.3829,-1.6766,-0.4778,-12.0000,-33.2500,6.5625,267.9375,32.1875,-146.1875,0
408.403,9.8354,1.7597,-1.3791,-1.0571,-0.0999,-0.0999,-51.1500,37.0500,28.5000,9.5577,1.6065,2.2027,-0.3800,-1.7339,0.0069,-54.0000,15.4500,-7.2000,-0.0100,7.2000,-6.0200,-0.4811,-1.4988,-0.7363,-11.5625,-33.1875,6.5625,184.8125,31.2500,-146.0000,0
408.408,9.8354,1.7597,-1.3791,-1.0571,-0.0999,-0.0999,-51.1500,37.0500,28.5000,9.5337,1.3815,1.7190,-0.3800,-1.7339,0.0069,-54.0000,15.4500,-7.2000,-0.0100,7.2000,-6.0200,-0.4811,-1.4988,-0.7363,-11.5625,-33.1875,6.5625,184.8125,31.2500,-146.0000,0
408.413,9.4834,1.7071,-1.2019,-1.4906,0.0320,-0.0994,-52.6500,36.0000,28.5000,9.5337,1.3815,1.7190,-0.0903,-1.8695,-0.0384,-54.0000,15.4500,-7.2000,-0.7200,6.7500,-6.7700,-0.6556,-1.2785,-1.0177,-11.5625,-33.1875,6.5625,184.5625,30.3125,-145.6250,0
408.418,9.4834,1.7071,-1.2019,-1.4906,0.0320,-0.0994,-52.6500,36.0000,28.5000,9.5672,1.2402,1.6137,0.1399,-1.9625,-0.0442,-54.7500,15.7500,-6.7500,-0.7200,6.7500,-6.7700,-0.8225,-1.1203,-1.2643,-11.5625,-33.1875,6.5625,184.1875,29.4375,-145.0000,0
408.424,8.2983,1.8435,-1.0056,-1.4714,0.0067,-0.0717,-52.6500,36.3000,28.8000,9.5672,1.2402,1.6137,0.1399,-1.9625,-0.0442,-54.7500,15.7500,-6.7500,-0.5700,6.1800,-7.3800,-0.8225,-1.1203,-1.2643,-11.5625,-33.1875,6.5625,183.6875,28.5000,-144.3125,0
408.433,8.2815,2.9544,0.0551,-1.5191,0.1212,-0.0264,-52.0500,35.4000,29.2500,9.9671,0.9888,1.6903,0.2854,-2.0885,-0.0024,-54.7500,15.7500,-6.7500,0.0000,6.0800,-8.1200,-0.9828,-1.0090,-1.4541,-11.5625,-33.1875,6.5625,183.6875,28.5000,-144.3125,0
408.443,8.6670,3.5075,0.6345,-1.7874,0.1940,0.0266,-50.8500,34.8000,28.8000,10.2161,0.5363,2.0351,0.4048,-2.2034,0.0725,-54.1500,15.9000,-8.8500,0.6100,5.7400,-9.0900,-1.0341,-0.9621,-1.5741,-11.5625,-33.1875,6.5625,183.1250,27.5625,-143.5000,0
408.448,8.6670,3.5075,0.6345,-1.7874,0.1940,0.0266,-50.8500,34.8000,28.8000,10.3549,0.1724,1.9513,0.3821,-2.3142,0.1617,-55.0500,16.3500,-9.6000,0.6100,5.7400,-9.0900,-1.0341,-0.9621,-1.5741,-11.5625,-33.1875,6.5625,183.1250,27.5625,-143.5000,0
408.453,8.6455,3.3112,0.7278,-1.9923,0.0083,0.0727,-52.8000,34.6500,31.0500,10.3549,0.1724,1.9513,0.3821,-2.3142,0.1617,-55.0500,16.3500,-9.6000,-0.3400,4.9900,-8.5200,-0.9479,-0.9348,-1.5719,-10.8750,-33.1875,7.3750,182.3750,26.6250,-142.8125,0
408.458,8.6455,3.3112,0.7278,-1.9923,0.0083,0.0727,-52.8000,34.6500,31.0500,10.3142,-0.6895,1.6975,0.2846,-2.3939,0.2571,-53.8500,17.5500,-9.9000,-0.3400,4.9900,-8.5200,-0.9479,-0.9348,-1.5719,-10.8750,-33.1875,7.3750,182.3750,26.6250,-142.8125,0
408.463,7.9607,3.1244,0.2873,-1.9073,-0.0821,0.1476,-52.8000,34.6500,31.0500,10.3142,-0.6895,1.6975,0.2846,-2.3939,0.2571,-53.8500,17.5500,-9.9000,0.8700,4.5800,-9.5100,-0.8498,-0.6305,-1.4781,-10.8750,-33.1875,7.3750,181.8125,25.8750,-142.1250,0
408.468,7.9607,3.1244,0.2873,-1.9073,-0.0821,0.1476,-52.8000,34.6500,31.0500,10.0533,-0.7973,2.0303,0.0229,-2.4272,0.3552,-55.0500,15.6000,-11.1000,0.8700,4.5800,-9.5100,-0.6043,-0.8192,-1.2741,-10.8750,-33.1875,7.3750,181.3125,25.0625,-141.6250,0
408.474,7.6519,3.3902,0.1772,-1.5108,-0.1444,0.2470,-50.4000,32.2500,32.4000,10.0533,-0.7973,2.0303,0.0229,-2.4272,0.3552,-55.0500,15.6000,-11.1000,2.0200,2.8000,-9.2100,-0.6043,-0.8192,-1.2741,-10.8750,-33.1875,7.3750,181.1875,24.3750,-141.1875,0
408.483,7.2520,3.8666,0.1460,-1.3392,-0.1172,0.2968,-51.0000,31.9500,32.5500,9.9527,-0.8404,1.8411,-0.5836,-2.4701,0.4445,-55.3500,14.8500,-12.1500,12.5200,5.7500,-10.9700,-0.7679,-0.9283,-0.7199,-10.8750,-33.1875,7.3750,181.1875,24.3750,-141.1875,0
408.493,7.8314,4.0797,-0.2658,-1.2905,-0.0037,0.3240,-51.0000,32.7000,33.3000,9.8497,-0.8164,2.5139,-1.0504,-2.4658,0.4991,-54.0000,14.5500,-11.2500,3.4600,1.8800,-8.4800,-0.2705,-1.0254,0.8934,-10.8750,-33.1875,7.3750,181.9375,24.2500,-141.3750,0
408.498,8.0254,3.9385,-0.5794,-1.2268,-0.0290,0.3254,-51.0000,32.7000,33.3000,9.2440,-0.0982,2.6360,-1.4759,-2.3734,0.4999,-54.0000,14.5500,-11.2500,3.4600,1.8800,-8.4800,-0.2705,-1.0254,0.8934,-10.8750,-33.1875,7.3750,181.9375,24.2500,-141.3750,0
408.503,8.0254,3.9385,-0.5794,-1.2268,-0.0290,0.3254,-50.8500,30.3000,33.4500,8.3869,0.5435,2.9784,-1.4759,-2.3734,0.4999,-54.0000,14.5500,-11.2500,1.6200,-0.6300,-5.8700,0.3054,-1.3308,1.3526,-8.3750,-35.1875,5.0625,182.8125,24.1250,-142.0625,0
408.508,7.6231,4.0223,-1.1157,-1.0664,-0.0179,0.3277,-50.8500,30.3000,33.4500,8.3869,0.5435,2.9784,-1.7762,-2.1925,0.4415,-53.4000,14.8500,-12.9000,1.6200,-0.6300,-5.8700,0.3054,-1.3308,1.3526,-8.3750,-35.1875,5.0625,182.8125,24.1250,-142.0625,0
408.513,7.6231,4.0223,-1.1157,-1.0664,-0.0179,0.3277,-49.9500,29.7000,33.3000,7.6782,0.8045,2.7581,-1.7762,-2.1925,0.4415,-53.4000,14.8500,-12.9000,10.8100,1.2800,-12.0600,0.5149,0.0338,1.7279,-8.3750,-35.1875,5.0625,183.6875,24.7500,-142.6875,0
408.518,7.6184,4.7238,-2.2505,-0.8583,0.0277,0.3035,-49.9500,29.7000,33.3000,7.6782,0.8045,2.7581,-2.0193,-1.9289,0.3691,-53.4000,14.8500,-12.9000,10.8100,1.2800,-12.0600,1.2337,-0.7079,1.7944,-8.3750,-35.1875,5.0625,184.6875,25.0000,-143.8125,0
408.524,7.6184,4.7238,-2.2505,-0.8583,0.0277,0.3035,-49.9500,29.7000,33.3000,6.5146,0.9984,4.2928,-1.8969,-1.5063,0.2832,-53.4000,14.8500,-12.9000,11.9700,1.6800,-10.1800,1.2337,-0.7079,1.7944,-8.3750,-35.1875,5.0625,185.7500,25.1875,-145.5000,0
408.534,7.2880,5.5043,-3.8044,-0.7906,0.0754,0.2033,-50.5500,29.4000,36.1500,5.4181,1.5586,5.6192,-1.8527,-1.0853,0.1210,-55.0500,15.1500,-12.9000,16.0400,-2.6600,-8.5400,1.8871,-1.1628,2.0388,-8.3750,-35.1875,5.0625,187.0000,25.0000,-147.1250,0
408.544,5.7964,6.0765,-5.3822,-1.3225,-0.2526,0.0863,-51.7500,28.6500,35.4000,4.2449,2.5498,7.8985,-2.0254,-0.3637,0.0570,-53.8500,15.6000,-11.1000,27.2300,-3.4200,-3.1500,1.7224,-1.7126,2.1478,-8.3750,-35.1875,5.0625,187.0000,25.0000,-147.1250,0
408.549,7.7428,8.1714,-6.8331,-0.7973,-0.6744,-0.0677,-51.3000,28.2000,34.9500,4.2449,2.5498,7.8985,-2.0254,-0.3637,0.0570,-54.0000,16.9500,-13.5000,27.2300,-3.4200,-3.1500,1.7224,-1.7126,2.1478,-9.7500,-35.1875,5.5000,187.9375,24.5625,-148.5000,0
408.554,7.7428,8.1714,-6.8331,-0.7973,-0.6744,-0.0677,-51.3000,28.2000,34.9500,6.3949,0.0263,4.3958,-3.1850,0.4714,0.3331,-54.0000,16.9500,-13.5000,34.8900,-4.5600,2.0600,1.3701,-1.9733,1.4770,-9.7500,-35.1875,5.5000,187.9375,24.5625,-148.5000,0
408.559,9.5529,10.0844,-6.4093,-1.0024,-0.3099,-0.2113,-50.4000,28.0500,35.8500,6.3949,0.0263,4.3958,-3.1850,0.4714,0.3331,-53.8500,15.1500,-12.1500,34.8900,-4.5600,2.0600,1.3701,-1.9733,1.4770,-9.7500,-35.1875,5.5000,188.2500,23.8125,-149.6875,0
408.564,9.5529,10.0844,-6.4093,-1.0024,-0.3099,-0.2113,-50.4000,28.0500,35.8500,15.0715,-1.1396,-3.2106,-4.1275,0.8045,0.7703,-53.8500,15.1500,-12.1500,19.7800,7.1900,0.5700,1.5719,-1.7453,0.4527,-9.7500,-35.1875,5.5000,188.2500,23.8125,-149.6875,0
408.569,11.5760,9.2225,-1.5634,-1.3374,-0.3291,-0.2467,-50.4000,28.0500,35.8500,15.0715,-1.1396,-3.2106,-4.1275,0.8045,0.7703,-54.6000,17.1000,-13.2000,19.7800,7.1900,0.5700,2.1795,-1.2381,-0.6927,-9.7500,-35.1875,5.5000,187.7500,23.0625,-150.9375,0
408.574,11.5760,9.2225,-1.5634,-1.3374,-0.3291,-0.2467,-50.4000,28.0500,35.8500,20.6835,3.4764,-6.9480,-2.6769,0.7927,1.0730,-54.6000,17.1000,-13.2000,4.1500,-3.3700,-11.5100,2.1795,-1.2381,-0.6927,-9.7500,-35.1875,5.5000,187.4375,22.4375,-151.8750,0
408.584,13.1178,5.3558,1.4724,-1.6379,0.1836,-0.1418,-50.4000,27.3000,35.8500,14.4370,5.0757,-7.3694,1.0035,0.4570,0.5225,-53.1000,16.3500,-11.1000,-2.9000,6.9900,-10.5800,1.7235,-1.0101,-0.4080,-9.7500,-35.1875,5.5000,187.3125,22.1250,-152.5000,0
408.594,13.5703,2.2338,-1.8124,-1.0107,0.4964,-0.1170,-51.4500,27.7500,35.8500,6.9001,3.6224,-1.7190,3.3087,0.1871,-0.0330,-53.1000,16.3500,-11.1000,1.2200,7.8900,-8.3000,1.0505,-0.5214,-0.1451,-9.7500,-35.1875,5.5000,187.3125,22.1250,-152.5000,0
408.599,11.2551,2.4995,-4.6926,0.1266,0.1031,-0.0975,-51.1500,24.7500,36.6000,6.9001,3.6224,-1.7190,3.3087,0.1871,-0.0330,-54.7500,15.7500,-10.0500,1.2200,7.8900,-8.3000,1.0505,-0.5214,-0.1451,-9.7500,-35.1875,5.5000,187.3125,22.1250,-152.5000,0
408.604,11.2551,2.4995,-4.6926,1.0608,-0.3698,-0.0184,-51.1500,24.7500,36.6000,2.3343,-0.7254,3.0454,3.2985,0.2172,-0.4695,-54.7500,15.7500,-10.0500,3.6200,5.6300,-9.5800,0.6196,-0.3556,-0.0022,-11.1875,-34.7500,10.0000,187.1250,22.0000,-152.8750,0
408.609,7.9248,5.7485,-6.2584,1.0608,-0.3698,-0.0184,-53.4000,25.0500,37.6500,2.3343,-0.7254,3.0454,3.2985,0.2172,-0.4695,-54.7500,15.7500,-10.0500,3.6200,5.6300,-9.5800,0.6196,-0.3556,-0.0022,-11.1875,-34.7500,10.0000,187.1250,22.0000,-152.8750,0
408.614,7.9248,5.7485,-6.2584,1.6164,-0.8010,-0.0573,-53.4000,25.0500,37.6500,4.8698,-4.6017,4.2186,2.3816,0.5668,-0.3262,-54.7500,15.7500,-10.0500,3.6100,3.2400,-7.9200,0.5770,-0.4756,0.1854,-11.1875,-34.7500,10.0000,187.2500,21.8125,-153.3125,0
408.618,6.5290,6.7804,-3.1915,1.6164,-0.8010,-0.0573,-53.8500,24.4500,34.3500,4.8698,-4.6017,4.2186,2.3816,0.5668,-0.3262,-53.2500,16.2000,-11.5500,3.6100,3.2400,-7.9200,0.6981,-0.4691,0.2018,-11.1875,-34.7500,10.0000,187.3125,21.6250,-153.7500,0
408.624,6.4476,3.0335,0.8811,1.8354,-0.9502,-0.2132,-53.8500,24.4500,34.3500,11.1785,-4.4508,3.1125,1.4807,1.1999,0.0648,-53.2500,16.2000,-11.5500,4.1800,2.5500,-8.1300,0.6981,-0.4691,0.2018,-11.1875,-34.7500,10.0000,187.3750,21.4375,-154.2500,0
408.634,8.2097,-0.7111,0.8787,1.8892,-0.3035,-0.3011,-53.8500,24.4500,34.3500,12.2032,-3.2537,2.0877,0.2931,1.0749,0.2430,-53.1000,13.9500,-10.6500,4.7200,2.2600,-8.2300,0.7985,-0.4178,0.1276,-11.1875,-34.7500,10.0000,187.3750,21.4375,-154.2500,0
408.644,11.9375,-2.1524,-0.2586,1.7717,-0.1063,-0.1239,-51.7500,24.4500,34.3500,11.8585,-2.2458,1.5897,-0.5692,0.7056,0.2057,-54.1500,15.6000,-11.4000,3.3400,4.4000,-8.4100,0.7309,-0.3851,0.0338,-11.1875,-34.7500,10.0000,187.3750,21.2500,-154.6875,0
408.648,11.9375,-2.1524,-0.2586,1.7717,-0.1063,-0.1239,-51.3000,25.9500,32.1000,11.2216,0.1245,1.8268,-1.1564,0.2257,0.1031,-53.7000,16.2000,-9.3000,3.3400,4.4000,-8.4100,0.7309,-0.3851,0.0338,-11.1875,-34.7500,10.0000,187.3750,21.2500,-154.6875,0
408.653,11.2767,-2.4205,-0.9720,1.2883,0.0695,0.0637,-51.3000,25.9500,32.1000,11.2216,0.1245,1.8268,-1.1564,0.2257,0.1031,-53.7000,16.2000,-9.3000,3.3000,5.1100,-8.2500,0.5607,-0.3305,-0.0011,-10.5000,-33.2500,12.0000,187.2500,21.0625,-155.0625,0
408.658,11.2767,-2.4205,-0.9720,1.2883,0.0695,0.0637,-54.3000,24.1500,33.3000,9.1842,2.0399,2.4397,-1.2196,0.0906,0.0866,-54.4500,15.0000,-9.7500,3.3000,5.1100,-8.2500,0.5607,-0.3305,-0.0011,-10.5000,-33.2500,12.0000,187.2500,21.0625,-155.0625,0
408.663,10.7763,-1.8387,-0.0790,0.4924,0.0925,-0.0304,-54.3000,24.1500,33.3000,9.1842,2.0399,2.4397,-1.2196,0.0906,0.0866,-54.4500,15.0000,-9.7500,3.3900,5.1700,-8.1300,0.4974,-0.2880,0.0076,-10.5000,-33.2500,12.0000,187.2500,20.9375,-155.3750,0
408.668,10.7763,-1.8387,-0.0790,0.4924,0.0925,-0.0304,-53.5500,24.9000,32.5500,9.3446,2.6384,3.1484,-0.7274,0.2531,0.1514,-54.6000,17.1000,-9.1500,3.3900,5.1700,-8.1300,0.4974,-0.2880,0.0076,-10.5000,-33.2500,12.0000,187.2500,20.8125,-155.6875,0
408.674,9.5553,-0.9720,1.1277,-0.2667,-0.0645,-0.1972,-53.5500,24.9000,32.5500,9.3446,2.6384,3.1484,-0.7274,0.2531,0.1514,-54.6000,17.1000,-9.1500,3.1800,4.9000,-7.9800,0.5389,-0.2378,0.0349,-10.5000,-33.2500,12.0000,187.2500,20.7500,-156.0625,0
408.684,9.6630,0.3567,0.2562,-0.6472,0.0783,-0.2723,-53.7000,25.5000,31.6500,10.3597,1.6759,2.8970,-0.1300,0.3965,0.1897,-54.6000,17.1000,-9.1500,3.5900,3.9000,-8.3600,0.5727,-0.1833,0.0589,-10.5000,-33.2500,12.0000,187.2500,20.7500,-156.0625,0
408.694,10.2208,1.8914,-1.2737,-0.4775,-0.0115,-0.2249,-53.7000,25.5000,31.6500,10.7476,-0.2562,3.1196,0.3123,0.3877,0.1508,-53.7000,15.0000,-9.0000,3.4300,3.7100,-8.4800,0.5661,-0.2302,0.0611,-10.5000,-33.2500,12.0000,187.2500,20.6250,-156.3750,0
408.699,10.2208,1.8914,-1.2737,-0.4775,-0.0115,-0.2249,-55.2000,26.5500,31.6500,10.6039,-1.1588,2.6624,0.3773,0.2622,0.0949,-53.7000,15.0000,-9.0000,3.4300,3.7100,-8.4800,0.5661,-0.2302,0.0611,-10.5000,-33.2500,12.0000,187.2500,20.6250,-156.3750,0
408.704,10.0102,3.3974,-1.2785,-0.2875,-0.1127,-0.0994,-55.2000,26.5500,31.6500,10.6039,-1.1588,2.6624,0.3773,0.2622,0.0949,-53.7000,15.0000,-9.0000,3.3600,3.5400,-8.6200,0.5258,-0.2105,0.0502,-10.5625,-33.0000,13.5625,187.1875,20.5625,-156.6875,0
408.709,10.0102,3.3974,-1.2785,-0.2875,-0.1127,-0.0994,-54.6000,25.6500,30.7500,9.6558,-1.1253,2.4924,0.4226,0.1476,0.0741,-54.7500,16.2000,-9.7500,3.3600,3.5400,-8.6200,0.5258,-0.2105,0.0502,-10.5625,-33.0000,13.5625,187.1875,20.5625,-156.6875,0
408.714,9.6414,4.0486,-1.0056,-0.1863,-0.0109,0.0149,-54.6000,25.6500,30.7500,9.6558,-1.1253,2.4924,0.4226,0.1476,0.0741,-54.7500,16.2000,-9.7500,3.2400,3.4400,-8.6900,0.4472,-0.1789,0.0305,-10.5625,-33.0000,13.5625,187.1875,20.4375,-156.9375,0
408.719,9.6414,4.0486,-1.0056,-0.1863,-0.0109,0.0149,-56.4000,26.4000,31.8000,9.0884,-1.1684,2.4995,0.2356,0.1966,0.0850,-55.8000,15.1500,-10.3500,3.2400,3.4400,-8.6900,0.3512,-0.1364,0.0142,-10.5625,-33.0000,13.5625,187.1875,20.3750,-157.1875,0
408.725,9.5409,3.7996,-1.0606,0.0978,-0.0584,0.0730,-56.4000,26.4000,31.8000,9.8090,-0.8308,2.0255,0.2356,0.1966,0.0850,-55.8000,15.1500,-10.3500,3.2800,3.4600,-8.6400,0.3512,-0.1364,0.0142,-10.5625,-33.0000,13.5625,187.1875,20.3125,-157.3125,0
408.734,10.4555,3.1412,-1.4581,0.3190,-0.0280,0.0909,-57.3000,26.2500,30.1500,10.2041,-0.4214,1.9824,0.0850,0.1855,0.0759,-54.6000,15.1500,-9.6000,3.3100,3.5800,-8.5800,0.2825,-0.1113,0.0076,-10.5625,-33.0000,13.5625,187.1250,20.2500,-157.5000,0
408.744,9.4643,2.2601,-1.3192,0.3960,0.1636,0.0954,-57.3000,26.2500,30.1500,10.1801,0.1796,2.0063,-0.0906,0.1652,0.0778,-54.1500,15.9000,-10.3500,3.2200,3.7600,-8.5300,0.2313,-0.0971,0.0011,-10.5625,-33.0000,13.5625,187.1250,20.2500,-157.5000,0
408.749,9.2512,2.2075,-1.1779,0.3701,0.2902,0.1170,-58.2000,26.4000,30.4500,10.1801,0.1796,2.0063,-0.1263,0.0775,0.0578,-55.8000,15.1500,-9.6000,3.2200,3.7600,-8.5300,0.2313,-0.0971,0.0011,-10.5625,-33.0000,13.5625,187.1250,20.2500,-157.5000,0
408.754,9.2512,2.2075,-1.1779,0.3701,0.2902,0.1170,-58.2000,26.4000,30.4500,9.8545,0.4094,1.8364,-0.0909,0.0853,0.0621,-55.8000,15.1500,-9.6000,3.2700,3.8500,-8.5100,0.1756,-0.0698,-0.0011,-10.5625,-33.3750,12.8750,187.1250,20.2500,-157.5625,0
408.759,9.8234,2.3463,-0.9840,0.3256,0.3325,0.1487,-57.9000,25.6500,30.0000,9.8545,0.4094,1.8364,-0.0909,0.0853,0.0621,-54.7500,15.4500,-10.5000,3.2700,3.8500,-8.5100,0.1756,-0.0698,-0.0011,-10.5625,-33.3750,12.8750,187.1250,20.2500,-157.5625,0
408.764,9.8234,2.3463,-0.9840,0.3256,0.3325,0.1487,-57.9000,25.6500,30.0000,9.6941,0.5195,1.7190,0.0013,0.0853,0.0605,-54.7500,15.4500,-10.5000,3.2700,3.9300,-8.4300,0.1178,-0.0524,-0.0033,-10.5625,-33.3750,12.8750,187.1250,20.1875,-157.6250,0
408.769,9.5720,2.3679,-1.2258,0.3134,0.2366,0.1458,-58.2000,26.7000,29.7000,9.6941,0.5195,1.7190,0.0013,0.0853,0.0605,-54.7500,15.4500,-10.5000,3.2700,3.9300,-8.4300,0.0884,-0.0393,-0.0044,-10.5625,-33.3750,12.8750,187.1250,20.1875,-157.6875,0
408.775,9.5720,2.3679,-1.2258,0.3134,0.2366,0.1458,-57.1500,26.7000,30.0000,9.6151,0.3280,1.5538,0.0954,0.0965,0.0578,-54.7500,15.4500,-10.5000,3.2500,3.9400,-8.4100,0.0884,-0.0393,-0.0044,-10.5625,-33.3750,12.8750,187.1250,20.1875,-157.7500,0
408.784,9.5505,2.3631,-1.3001,0.1711,0.3445,0.1388,-57.4500,27.1500,30.0000,9.8330,0.0622,1.3216,0.1729,0.0751,0.0687,-54.6000,15.1500,-11.1000,3.3000,3.8000,-8.4600,0.0840,-0.0284,-0.0065,-10.5625,-33.3750,12.8750,187.1250,20.1875,-157.8125,0
408.794,9.4212,2.4948,-1.3862,0.0853,0.2348,0.1330,-57.4500,27.1500,28.9500,9.6893,0.0599,1.4413,0.1785,0.0629,0.0610,-54.6000,15.1500,-11.1000,3.2100,3.8600,-8.4700,0.0742,-0.0284,-0.0065,-10.5625,-33.3750,12.8750,187.1250,20.1875,-157.8125,0
408.799,9.0980,2.7749,-1.1779,-0.0195,0.2134,0.1394,-57.4500,27.1500,28.9500,9.6893,0.0599,1.4413,0.1785,0.0629,0.0610,-54.4500,15.0000,-9.3000,3.2100,3.8600,-8.4700,0.0742,-0.0284,-0.0065,-10.5625,-33.3750,12.8750,187.0625,20.1250,-157.8125,0
