timestamp,thigh_acc_x,thigh_acc_y,thigh_acc_z,thigh_gyro_x,thigh_gyro_y,thigh_gyro_z,thigh_mag_x,thigh_mag_y,thigh_mag_z,shank_acc_x,shank_acc_y,shank_acc_z,shank_gyro_x,shank_gyro_y,shank_gyro_z,shank_mag_x,shank_mag_y,shank_mag_z,foot_acc_x,foot_acc_y,foot_acc_z,foot_gyro_x,foot_gyro_y,foot_gyro_z,foot_mag_x,foot_mag_y,foot_mag_z,foot_euler_x,foot_euler_y,foot_euler_z,perturbation_event
154.462,9.1698,2.8754,-1.7119,0.0549,0.0362,0.0354,-51.9000,9.0000,11.4000,9.6510,0.0503,-1.4700,-0.0064,-0.0831,0.0101,-78.0000,35.4000,-13.0500,3.6100,3.8200,-8.2700,0.0164,0.0033,0.0011,-25.1875,-28.7500,20.6875,225.1250,21.4375,-154.1250,0
154.467,9.1698,2.8754,-1.7119,0.0549,0.0362,0.0354,-51.9000,9.0000,11.4000,9.6510,0.0503,-1.4700,0.0000,-0.0887,0.0043,-78.0000,35.4000,-13.0500,3.6100,3.8200,-8.2700,0.0087,0.0022,0.0000,-25.8750,-29.5000,21.5000,225.1250,21.4375,-154.1250,0
154.472,9.2296,3.0167,-1.7478,0.0277,0.0157,0.0384,-51.9000,9.0000,12.0000,9.6343,0.0287,-1.4389,0.0005,-0.0874,0.0075,-79.0500,33.7500,-15.6000,3.5900,3.8200,-8.2300,0.0087,0.0022,0.0000,-25.8750,-29.5000,21.5000,225.1250,21.4375,-154.1250,0
154.482,9.1004,3.0885,-1.8028,-0.0115,0.0141,0.0384,-51.9000,8.5500,12.0000,9.6654,-0.0120,-1.4988,-0.0211,-0.0853,0.0101,-79.0500,33.7500,-15.6000,3.5900,3.8300,-8.2600,0.0044,-0.0044,0.0011,-25.8750,-29.5000,21.5000,225.1250,21.4375,-154.1250,0
154.491,9.1051,3.1460,-1.8627,-0.0461,0.0389,0.0293,-51.7500,7.2000,11.8500,9.6510,-0.0192,-1.4892,-0.0437,-0.0917,0.0104,-78.3000,34.5000,-14.5500,3.6100,3.8100,-8.2600,-0.0033,0.0000,0.0011,-25.8750,-29.5000,21.5000,225.1250,21.4375,-154.1250,0
154.499,9.1051,3.1460,-1.8627,-0.0461,0.0389,0.0293,-51.7500,7.2000,11.8500,9.6510,-0.0192,-1.4892,-0.0437,-0.0917,0.0104,-78.3000,34.5000,-14.5500,3.5500,3.8400,-8.2600,-0.0120,-0.0055,-0.0011,-25.8750,-29.5000,21.5000,225.1250,21.4375,-154.1250,0
154.504,9.1459,3.1484,-1.7813,-0.0799,0.0402,0.0301,-51.7500,7.2000,11.8500,9.5864,0.0263,-1.5347,-0.0624,-0.0911,0.0115,-78.3000,34.5000,-14.5500,3.5500,3.8400,-8.2600,-0.0120,-0.0055,-0.0011,-25.8750,-29.5000,21.5000,225.1250,21.4375,-154.0625,0
154.512,9.0357,3.1723,-1.6712,-0.0858,0.0224,0.0285,-51.7500,7.6500,12.6000,9.6127,0.0551,-1.5850,-0.0837,-0.1053,0.0147,-78.7500,34.9500,-14.5500,3.6200,3.8500,-8.2300,-0.0207,-0.0055,-0.0044,-25.8750,-29.5000,21.5000,225.1250,21.4375,-154.0625,0
154.517,9.0357,3.1723,-1.6712,-0.0858,0.0224,0.0285,-51.7500,7.6500,12.6000,9.6127,0.0551,-1.5850,-0.0837,-0.1053,0.0147,-78.7500,34.9500,-14.5500,3.6200,3.8500,-8.2300,-0.0207,-0.0055,-0.0044,-25.8750,-29.5000,21.5000,225.1250,21.4375,-154.0625,0
154.522,9.0166,3.2729,-1.6328,-0.0799,0.0253,0.0317,-54.3000,8.7000,11.8500,9.5433,0.1867,-1.6520,-0.0959,-0.0973,0.0208,-79.0500,35.4000,-15.3000,3.6100,3.8400,-8.2700,-0.0273,-0.0065,-0.0044,-26.2500,-29.8750,22.2500,225.1250,21.4375,-154.0625,0
154.527,9.0166,3.2729,-1.6328,-0.0799,0.0253,0.0317,-54.3000,8.7000,11.8500,9.5433,0.1867,-1.6520,-0.0959,-0.0973,0.0208,-79.0500,35.4000,-15.3000,3.6100,3.8400,-8.2700,-0.0273,-0.0065,-0.0044,-26.2500,-29.8750,22.2500,225.1250,21.4375,-154.0625,0
154.532,9.0261,3.3567,-1.7573,-0.0818,0.0394,0.0333,-52.0500,7.9500,12.6000,9.5361,0.2227,-1.6735,-0.0906,-0.0965,0.0189,-79.8000,34.5000,-16.0500,3.6100,3.8500,-8.2200,-0.0327,-0.0076,-0.0055,-26.2500,-29.8750,22.2500,225.1250,21.4375,-154.0625,0
154.537,9.0261,3.3567,-1.7573,-0.0818,0.0394,0.0333,-52.0500,7.9500,12.6000,9.5361,0.2227,-1.6735,-0.0906,-0.0965,0.0189,-79.8000,34.5000,-16.0500,3.6100,3.8500,-8.2200,-0.0349,-0.0109,-0.0098,-26.2500,-29.8750,22.2500,225.1250,21.4375,-154.0625,0
154.543,9.0453,3.3926,-1.9010,-0.0858,0.0205,0.0304,-51.4500,7.8000,12.0000,9.5768,0.2586,-1.6664,-0.0754,-0.0930,0.0200,-79.5000,34.9500,-14.5500,3.5600,3.8500,-8.2600,-0.0349,-0.0109,-0.0098,-26.2500,-29.8750,22.2500,225.1250,21.4375,-154.0000,0
154.552,8.9495,3.3615,-1.8340,-0.0786,0.0277,0.0320,-51.4500,7.8000,12.0000,9.5720,0.1963,-1.7454,-0.0709,-0.0895,0.0195,-79.5000,34.9500,-14.5500,3.5400,3.8400,-8.2400,-0.0338,-0.0109,-0.0076,-26.2500,-29.8750,22.2500,225.1250,21.4375,-154.0000,0
154.559,9.0453,3.4046,-1.7238,-0.0741,0.0187,0.0274,-51.9000,8.2500,11.7000,9.5912,0.1652,-1.7645,-0.0853,-0.0799,0.0248,-79.5000,34.9500,-14.5500,3.5900,3.8600,-8.2400,-0.0284,-0.0142,-0.0109,-26.2500,-29.8750,22.2500,225.1250,21.4375,-154.0000,0
154.564,9.0453,3.4046,-1.7238,-0.0741,0.0187,0.0274,-51.9000,8.2500,11.7000,9.5912,0.1652,-1.7645,-0.0853,-0.0799,0.0248,-80.1000,32.4000,-15.1500,3.5900,3.8600,-8.2400,-0.0284,-0.0142,-0.0109,-26.2500,-29.8750,22.2500,225.1250,21.4375,-154.0000,0
154.569,9.0908,3.2777,-1.7813,-0.0584,0.0139,0.0266,-52.0500,8.4000,11.1000,9.5888,0.0982,-1.6281,-0.0898,-0.0863,0.0250,-80.1000,32.4000,-15.1500,3.5500,3.8400,-8.2400,-0.0273,-0.0185,-0.0109,-26.2500,-29.1875,22.6875,225.1250,21.4375,-154.0000,0
154.574,9.0908,3.2777,-1.7813,-0.0584,0.0139,0.0266,-52.0500,8.4000,11.1000,9.5888,0.0982,-1.6281,-0.0898,-0.0863,0.0250,-80.1000,32.4000,-15.1500,3.5500,3.8400,-8.2400,-0.0273,-0.0185,-0.0109,-26.2500,-29.1875,22.6875,225.1250,21.4375,-154.0000,0
154.579,9.0740,3.2537,-1.8531,-0.0597,-0.0077,0.0258,-52.2000,6.0000,11.4000,9.6367,0.0575,-1.8028,-0.0991,-0.0767,0.0280,-80.1000,32.4000,-15.1500,3.5500,3.8400,-8.2100,-0.0295,-0.0196,-0.0109,-26.2500,-29.1875,22.6875,225.1250,21.4375,-153.9375,0
154.584,9.0740,3.2537,-1.8531,-0.0597,-0.0077,0.0258,-52.2000,6.0000,11.4000,9.6367,0.0575,-1.8028,-0.0991,-0.0767,0.0280,-79.3500,34.0500,-14.7000,3.5500,3.8400,-8.2100,-0.0295,-0.0196,-0.0109,-26.2500,-29.1875,22.6875,225.1250,21.4375,-153.9375,0
154.592,9.0118,3.1292,-1.9154,-0.0360,-0.0061,0.0234,-51.7500,9.1500,11.1000,9.5409,0.0622,-1.9201,-0.1063,-0.0666,0.0269,-79.3500,34.0500,-14.7000,3.5700,3.8200,-8.2500,-0.0251,-0.0153,-0.0087,-26.2500,-29.1875,22.6875,225.1250,21.4375,-153.9375,0
154.602,9.0597,3.2537,-1.9920,-0.0163,-0.0261,0.0240,-52.2000,6.3000,12.0000,9.5313,-0.0072,-1.9489,-0.1135,-0.0618,0.0277,-79.6500,35.5500,-13.9500,3.5600,3.8200,-8.2200,-0.0229,-0.0175,-0.0076,-26.2500,-29.1875,22.6875,225.1250,21.3750,-153.9375,0
154.610,9.0716,3.2705,-2.0399,0.0085,-0.0445,0.0240,-52.2000,6.3000,12.0000,9.5385,0.0096,-1.9704,-0.1226,-0.0600,0.0248,-78.9000,31.9500,-14.4000,3.5400,3.8200,-8.2200,-0.0207,-0.0175,-0.0087,-26.2500,-29.1875,22.6875,225.1250,21.3750,-153.9375,0
154.614,9.0716,3.2705,-2.0399,0.0085,-0.0445,0.0240,-52.2000,6.3000,12.0000,9.4786,0.0622,-1.9058,-0.1226,-0.0600,0.0248,-80.2500,34.9500,-14.8500,3.5400,3.8200,-8.2200,-0.0207,-0.0175,-0.0087,-26.2500,-29.1875,22.6875,225.1250,21.3750,-153.9375,0
154.619,9.0860,3.3686,-2.2003,-0.0192,-0.0314,0.0176,-51.7500,8.7000,12.9000,9.4786,0.0622,-1.9058,-0.1127,-0.0544,0.0192,-80.2500,34.9500,-14.8500,3.5300,3.8200,-8.2300,-0.0218,-0.0185,-0.0087,-25.8750,-29.8750,22.2500,225.1250,21.3750,-153.9375,0
154.624,9.0860,3.3686,-2.2003,-0.0192,-0.0314,0.0176,-51.7500,8.7000,12.9000,9.5792,0.0599,-1.9393,-0.1127,-0.0544,0.0192,-80.2500,33.7500,-14.8500,3.5300,3.8200,-8.2300,-0.0218,-0.0185,-0.0087,-25.8750,-29.8750,22.2500,225.1250,21.3750,-153.9375,0
154.632,9.0333,3.1675,-2.2865,-0.0735,-0.0290,0.0109,-50.4000,7.5000,13.5000,9.5792,0.0599,-1.9393,-0.1066,-0.0448,0.0296,-80.2500,33.7500,-14.8500,3.5700,3.8300,-8.2000,-0.0251,-0.0185,-0.0033,-25.8750,-29.8750,22.2500,225.1250,21.3750,-153.9375,0
154.642,9.0214,3.1747,-2.2793,-0.0975,-0.0181,0.0083,-53.5500,7.2000,12.6000,9.5409,0.1532,-1.9872,-0.1045,-0.0293,0.0173,-79.0500,34.2000,-15.6000,3.5900,3.8200,-8.2400,-0.0262,-0.0196,-0.0022,-25.8750,-29.8750,22.2500,225.1875,21.3750,-153.8750,0
154.650,9.0309,3.2513,-2.1213,-0.1119,-0.0160,0.0021,-52.3500,7.9500,12.6000,9.4858,0.1748,-1.9561,-0.0906,-0.0306,0.0242,-79.0500,34.2000,-15.6000,3.5300,3.8000,-8.2300,-0.0305,-0.0218,-0.0033,-25.8750,-29.8750,22.2500,225.1875,21.3750,-153.8750,0
154.655,9.0908,3.4213,-2.0614,-0.1588,-0.0389,-0.0160,-52.3500,7.9500,12.6000,9.4930,0.1700,-1.9800,-0.0906,-0.0197,0.0248,-79.3500,34.8000,-14.4000,3.5300,3.8000,-8.2300,-0.0305,-0.0218,-0.0033,-25.8750,-29.8750,22.2500,225.1875,21.3125,-153.8750,0
154.663,9.0908,3.4213,-2.0614,-0.1588,-0.0389,-0.0160,-52.3500,7.9500,12.6000,9.4930,0.1245,-2.0255,-0.0906,-0.0197,0.0248,-79.3500,34.8000,-14.4000,3.5100,3.8200,-8.2300,-0.0316,-0.0240,0.0000,-25.8750,-29.8750,22.2500,225.1875,21.3125,-153.8750,0
154.668,8.9854,3.4261,-1.9704,-0.1948,-0.0317,-0.0330,-52.8000,8.4000,11.8500,9.4930,0.1245,-2.0255,-0.0866,-0.0160,0.0211,-79.3500,34.8000,-14.4000,3.5100,3.8200,-8.2300,-0.0338,-0.0240,0.0011,-25.1875,-30.2500,21.8750,225.1875,21.3125,-153.8750,0
154.673,8.9854,3.4261,-1.9704,-0.1948,-0.0317,-0.0330,-52.8000,8.4000,11.8500,9.5936,0.1580,-1.8244,-0.0866,-0.0160,0.0211,-79.3500,34.8000,-14.4000,3.5000,3.8300,-8.2000,-0.0338,-0.0240,0.0011,-25.1875,-30.2500,21.8750,225.1875,21.3125,-153.8750,0
154.678,8.9783,3.2537,-2.0446,-0.2084,-0.0240,-0.0330,-51.4500,7.5000,12.7500,9.5936,0.1580,-1.8244,-0.0829,-0.0107,0.0192,-80.8500,35.1000,-15.4500,3.5000,3.8300,-8.2000,-0.0338,-0.0240,0.0011,-25.1875,-30.2500,21.8750,225.1875,21.3125,-153.8125,0
154.683,8.9783,3.2537,-2.0446,-0.2084,-0.0240,-0.0330,-51.4500,7.5000,12.7500,9.5193,0.1365,-1.8052,-0.0829,-0.0107,0.0192,-80.8500,35.1000,-15.4500,3.5400,3.8600,-8.2300,-0.0327,-0.0207,0.0033,-25.1875,-30.2500,21.8750,225.1875,21.3125,-153.8125,0
154.688,8.9854,3.1819,-2.1452,-0.1873,-0.0306,-0.0333,-52.3500,6.4500,11.8500,9.5193,0.1365,-1.8052,-0.0938,-0.0056,0.0280,-77.7000,34.3500,-14.7000,3.5300,3.8400,-8.2200,-0.0316,-0.0153,0.0076,-25.1875,-30.2500,21.8750,225.1875,21.3125,-153.8125,0
154.693,8.9950,3.2441,-2.0686,-0.1463,-0.0280,-0.0312,-52.3500,6.4500,11.8500,9.5457,0.0383,-1.8651,-0.0970,0.0139,0.0258,-79.0500,34.9500,-13.8000,3.5300,3.8400,-8.2200,-0.0316,-0.0153,0.0076,-25.1875,-30.2500,21.8750,225.1875,21.3125,-153.8125,0
154.702,8.9950,3.2441,-2.0686,-0.1463,-0.0280,-0.0312,-52.2000,7.5000,12.7500,9.5840,-0.1101,-1.8914,-0.1202,0.0266,0.0248,-79.0500,34.9500,-13.8000,3.5300,3.8300,-8.2400,-0.0284,-0.0164,0.0055,-25.1875,-30.2500,21.8750,225.1875,21.3125,-153.8125,0
154.710,9.0309,3.3375,-2.0039,-0.1386,-0.0226,-0.0280,-51.9000,7.5000,12.7500,9.5840,-0.1101,-1.8914,-0.1202,0.0266,0.0248,-78.0000,35.4000,-13.0500,3.5200,3.8300,-8.2200,-0.0295,-0.0175,0.0087,-25.1875,-30.2500,21.8750,225.1875,21.3125,-153.8125,0
154.715,9.0261,3.4213,-2.0087,-0.1436,-0.0242,-0.0195,-51.9000,7.5000,12.7500,9.6127,-0.0455,-1.8268,-0.1468,0.0301,0.0301,-78.0000,35.4000,-13.0500,3.5200,3.8300,-8.2200,-0.0295,-0.0175,0.0087,-25.1875,-30.2500,21.8750,225.1875,21.3125,-153.8125,0
154.720,9.0261,3.4213,-2.0087,-0.1436,-0.0242,-0.0195,-51.9000,7.5000,12.7500,9.6127,-0.0455,-1.8268,-0.1468,0.0301,0.0301,-78.0000,35.4000,-13.0500,3.5700,3.7800,-8.2400,-0.0284,-0.0218,0.0076,-24.7500,-29.1875,21.8750,225.1875,21.2500,-153.7500,0
154.724,8.9232,3.4453,-2.0877,-0.1271,-0.0317,-0.0104,-51.9000,7.5000,12.7500,9.5888,0.0239,-1.9178,-0.1689,0.0277,0.0147,-79.6500,33.1500,-13.9500,3.5700,3.7800,-8.2400,-0.0284,-0.0218,0.0076,-24.7500,-29.1875,21.8750,225.1875,21.2500,-153.7500,0
154.729,8.9232,3.4453,-2.0877,-0.1271,-0.0317,-0.0104,-52.0500,8.7000,12.6000,9.5888,0.0239,-1.9178,-0.1689,0.0277,0.0147,-79.6500,33.1500,-13.9500,3.6200,3.7900,-8.2500,-0.0338,-0.0218,0.0109,-24.7500,-29.1875,21.8750,225.2500,21.2500,-153.7500,0
154.734,8.9040,3.5171,-2.1045,-0.0930,-0.0195,-0.0117,-52.0500,8.7000,12.6000,9.5553,0.2035,-1.9178,-0.1524,0.0368,0.0256,-79.6500,33.1500,-13.9500,3.6200,3.7900,-8.2500,-0.0338,-0.0218,0.0109,-24.7500,-29.1875,21.8750,225.2500,21.2500,-153.7500,0
154.742,8.8992,3.6631,-2.1380,-0.0690,-0.0176,-0.0189,-50.8500,7.8000,12.4500,9.4619,0.3280,-1.9321,-0.1170,0.0480,0.0272,-79.6500,33.1500,-13.9500,3.5700,3.8300,-8.2600,-0.0436,-0.0229,0.0098,-24.7500,-29.1875,21.8750,225.2500,21.2500,-153.7500,0
154.751,8.9974,3.7445,-2.0590,-0.0815,-0.0131,-0.0160,-52.8000,7.9500,12.9000,9.3829,0.4238,-1.9369,-0.0725,0.0621,0.0245,-79.0500,33.7500,-14.5500,3.5200,3.8500,-8.2100,-0.0469,-0.0262,0.0076,-24.7500,-29.1875,21.8750,225.2500,21.2500,-153.6875,0
154.756,8.9974,3.7445,-2.0590,-0.0815,-0.0131,-0.0160,-52.3500,7.6500,12.9000,9.3829,0.4238,-1.9369,-0.0725,0.0621,0.0245,-78.7500,33.0000,-13.0500,3.5200,3.8500,-8.2100,-0.0469,-0.0262,0.0076,-24.7500,-29.1875,21.8750,225.2500,21.2500,-153.6875,0
154.763,8.9256,3.6488,-2.0039,-0.0743,-0.0032,-0.0336,-52.3500,7.6500,12.9000,9.4451,0.4142,-1.9728,-0.0264,0.0826,0.0189,-78.7500,33.0000,-13.0500,3.4800,3.9000,-8.2100,-0.0458,-0.0305,0.0076,-24.7500,-29.1875,21.8750,225.2500,21.2500,-153.6875,0
154.768,8.9256,3.6488,-2.0039,-0.0743,-0.0032,-0.0336,-52.3500,8.4000,12.6000,9.4451,0.4142,-1.9728,-0.0264,0.0826,0.0189,-78.1500,33.1500,-14.4000,3.4800,3.9000,-8.2100,-0.0393,-0.0316,0.0087,-25.5000,-28.7500,22.2500,225.2500,21.1875,-153.6875,0
154.773,8.9735,3.6009,-1.8699,-0.0749,-0.0101,-0.0485,-52.3500,8.4000,12.6000,9.5433,0.3591,-2.0135,0.0048,0.0898,0.0176,-78.1500,33.1500,-14.4000,3.5000,3.9100,-8.1400,-0.0393,-0.0316,0.0087,-25.5000,-28.7500,22.2500,225.2500,21.1875,-153.6875,0
154.778,8.9735,3.6009,-1.8699,-0.0749,-0.0101,-0.0485,-52.3500,8.4000,12.6000,9.5361,0.2011,-1.8842,0.0048,0.0898,0.0176,-79.3500,33.6000,-14.4000,3.5000,3.9100,-8.1400,-0.0207,-0.0295,0.0087,-25.5000,-28.7500,22.2500,225.2500,21.1875,-153.6875,0
154.783,8.9304,3.4788,-1.9537,-0.0711,-0.0053,-0.0512,-52.3500,8.4000,12.6000,9.5361,0.2011,-1.8842,-0.0064,0.1085,0.0109,-79.3500,33.6000,-14.4000,3.4600,3.9600,-8.2000,-0.0207,-0.0295,0.0087,-25.5000,-28.7500,22.2500,225.2500,21.1875,-153.6875,0
154.791,8.8609,3.3878,-2.0111,-0.0501,-0.0085,-0.0474,-52.9500,8.5500,11.4000,9.6462,0.1772,-1.7741,-0.0392,0.0943,0.0088,-78.0000,34.9500,-13.8000,3.5200,3.8900,-8.2300,-0.0098,-0.0240,0.0044,-25.5000,-28.7500,22.2500,225.2500,21.1875,-153.6875,0
154.795,8.8609,3.3878,-2.0111,-0.0501,-0.0085,-0.0474,-52.0500,7.9500,11.8500,9.6462,0.1772,-1.7741,-0.0392,0.0943,0.0088,-78.3000,34.5000,-13.0500,3.5200,3.8900,-8.2300,-0.0098,-0.0240,0.0044,-25.5000,-28.7500,22.2500,225.2500,21.1875,-153.6875,0
154.803,8.8777,3.3399,-2.0423,-0.0112,0.0048,-0.0429,-52.0500,7.9500,11.8500,9.5888,0.1173,-1.6712,-0.0408,0.0839,0.0128,-78.3000,34.5000,-13.0500,3.5900,3.8400,-8.2300,-0.0055,-0.0251,0.0011,-25.5000,-28.7500,22.2500,225.2500,21.1875,-153.6875,0
154.812,8.9016,3.4022,-2.1045,0.0312,0.0229,-0.0314,-51.1500,7.5000,12.7500,9.5648,0.1197,-1.5993,-0.0360,0.0850,0.0136,-78.3000,34.5000,-13.0500,3.5000,3.8900,-8.1800,-0.0055,-0.0262,-0.0044,-25.5000,-28.7500,22.2500,225.2500,21.1875,-153.6875,0
154.817,8.9016,3.4022,-2.1045,0.0312,0.0229,-0.0314,-52.0500,7.9500,12.6000,9.5864,0.1604,-1.6089,-0.0360,0.0850,0.0136,-78.7500,33.7500,-13.0500,3.5000,3.8900,-8.1800,-0.0055,-0.0262,-0.0044,-25.5000,-28.7500,22.2500,225.2500,21.1875,-153.6875,0
154.822,8.9759,3.6200,-2.0830,0.0528,0.0298,-0.0218,-52.0500,7.9500,12.6000,9.5864,0.1604,-1.6089,-0.0211,0.0901,0.0189,-78.7500,33.7500,-13.0500,3.5200,3.8600,-8.1800,-0.0065,-0.0262,-0.0044,-24.7500,-30.2500,22.2500,225.2500,21.1250,-153.6875,0
154.827,8.9759,3.6200,-2.0830,0.0528,0.0298,-0.0218,-52.0500,7.9500,12.6000,9.6510,0.0599,-1.7717,0.0107,0.0823,0.0157,-78.1500,32.8500,-14.4000,3.5200,3.8600,-8.1800,-0.0065,-0.0262,-0.0044,-24.7500,-30.2500,22.2500,225.2500,21.1250,-153.6875,0
154.832,8.9543,3.6129,-1.9489,0.0743,0.0490,-0.0179,-52.0500,7.9500,12.6000,9.6510,0.0599,-1.7717,0.0107,0.0823,0.0157,-78.1500,32.8500,-14.4000,3.4400,3.8800,-8.1600,-0.0011,-0.0240,-0.0065,-24.7500,-30.2500,22.2500,225.2500,21.1250,-153.6875,0
154.837,8.9543,3.6129,-1.9489,0.0743,0.0490,-0.0179,-51.9000,7.0500,13.0500,9.6510,-0.1460,-1.7621,0.0408,0.0874,0.0195,-78.1500,34.8000,-14.7000,3.4400,3.8800,-8.1600,0.0109,-0.0251,-0.0087,-24.7500,-30.2500,22.2500,225.2500,21.1250,-153.6875,0
154.843,9.1339,3.6296,-1.9920,0.0674,0.0576,-0.0109,-52.8000,7.2000,10.8000,9.6510,-0.1460,-1.7621,0.0408,0.0874,0.0195,-78.1500,34.8000,-14.7000,3.4500,3.9100,-8.1600,0.0109,-0.0251,-0.0087,-24.7500,-30.2500,22.2500,225.2500,21.1250,-153.6875,0
154.852,9.1650,3.5506,-1.8723,0.0429,0.0397,-0.0024,-51.0000,9.4500,12.1500,9.6055,-0.2945,-1.7382,0.0509,0.0906,0.0120,-78.1500,34.0500,-14.4000,3.5200,3.8200,-8.3000,0.0098,-0.0055,-0.0065,-24.7500,-30.2500,22.2500,225.2500,21.1250,-153.6875,0
154.862,9.1842,3.4093,-1.9273,0.0232,0.0504,-0.0035,-51.9000,7.0500,12.4500,9.5912,-0.3280,-1.6592,0.0226,0.0885,0.0056,-79.0500,34.2000,-13.8000,3.4700,3.8100,-8.2400,-0.0076,0.0022,-0.0065,-24.7500,-30.2500,22.2500,225.2500,21.1250,-153.6875,0
154.867,9.1842,3.4093,-1.9273,0.0232,0.0504,-0.0035,-51.9000,7.0500,12.4500,9.5792,-0.3519,-1.6640,-0.0104,0.1002,0.0008,-80.1000,34.0500,-13.2000,3.4700,3.8100,-8.2400,-0.0076,0.0022,-0.0065,-24.7500,-30.2500,22.2500,225.2500,21.1250,-153.6875,0
154.872,9.1411,3.1532,-2.0470,0.0139,0.0397,-0.0048,-51.7500,8.7000,11.1000,9.5792,-0.3519,-1.6640,-0.0104,0.1002,0.0008,-80.1000,34.0500,-13.2000,3.5100,3.7700,-8.2500,-0.0262,0.0055,-0.0055,-25.8750,-28.7500,21.0625,225.2500,21.1250,-153.6875,0
154.877,9.1099,2.9784,-1.9752,0.0352,0.0237,-0.0056,-51.7500,8.7000,11.1000,9.5888,-0.2586,-1.7669,-0.0306,0.1172,0.0045,-80.1000,34.0500,-13.2000,3.5100,3.7700,-8.2500,-0.0262,0.0055,-0.0055,-25.8750,-28.7500,21.0625,225.2500,21.1250,-153.6875,0
154.882,9.1099,2.9784,-1.9752,0.0352,0.0237,-0.0056,-51.7500,8.7000,11.1000,9.5888,-0.2586,-1.7669,-0.0306,0.1172,0.0045,-80.1000,34.0500,-13.2000,3.6000,3.7700,-8.3600,-0.0393,0.0175,-0.0033,-25.8750,-28.7500,21.0625,225.3125,21.1250,-153.6875,0
154.887,9.1243,3.0047,-2.0806,0.0536,0.0139,0.0024,-51.7500,8.7000,11.1000,9.6295,-0.0192,-1.5658,-0.0155,0.1151,-0.0043,-78.4500,33.1500,-13.2000,3.6000,3.7700,-8.3600,-0.0600,0.0240,-0.0076,-25.8750,-28.7500,21.0625,225.3125,21.1250,-153.6250,0
154.893,9.1243,3.0047,-2.0806,0.0536,0.0139,0.0024,-51.4500,8.2500,12.0000,9.6678,0.1700,-1.4700,-0.0155,0.1151,-0.0043,-78.4500,33.1500,-13.2000,3.5100,3.8100,-8.3500,-0.0600,0.0240,-0.0076,-25.8750,-28.7500,21.0625,225.3125,21.1250,-153.6250,0
154.902,9.0046,3.0167,-2.0494,0.0413,0.0211,0.0032,-52.3500,7.9500,11.1000,9.6678,0.1700,-1.4700,0.0051,0.1108,-0.0037,-78.4500,33.1500,-13.2000,3.5000,3.7900,-8.2700,-0.0709,0.0295,-0.0131,-25.8750,-28.7500,21.0625,225.3125,21.1875,-153.6250,0
154.907,9.0309,3.0382,-1.9465,0.0352,0.0221,-0.0011,-52.3500,7.9500,11.1000,9.6319,0.1077,-1.5155,0.0314,0.1092,-0.0085,-78.9000,34.8000,-13.2000,3.5000,3.7900,-8.2700,-0.0873,0.0535,-0.0120,-25.8750,-28.7500,21.0625,225.3125,21.1875,-153.5625,0
154.913,9.0309,3.0382,-1.9465,0.0352,0.0221,-0.0011,-51.1500,8.2500,11.7000,9.5936,0.0910,-1.4437,0.0458,0.1167,-0.0109,-78.9000,34.8000,-13.2000,3.5200,3.7900,-8.1700,-0.0873,0.0535,-0.0120,-25.8750,-28.7500,21.0625,225.3125,21.1875,-153.5625,0
154.918,9.0812,3.0933,-1.7382,0.0360,0.0096,-0.0043,-51.1500,8.2500,11.7000,9.5936,0.0910,-1.4437,0.0458,0.1167,-0.0109,-79.6500,34.8000,-14.7000,3.5200,3.7900,-8.1700,-0.1014,0.0654,-0.0098,-26.2500,-29.5000,21.8750,225.3125,21.1875,-153.5000,0
154.923,9.0812,3.0933,-1.7382,0.0360,0.0096,-0.0043,-51.1500,9.0000,11.4000,9.5744,0.0742,-1.3312,0.0224,0.1058,-0.0077,-79.6500,34.8000,-14.7000,3.5400,3.8400,-8.1800,-0.1014,0.0654,-0.0098,-26.2500,-29.5000,21.8750,225.3125,21.1875,-153.5000,0
154.928,9.0261,3.1747,-1.6807,0.0195,0.0064,-0.0069,-51.1500,9.0000,11.4000,9.5744,0.0742,-1.3312,0.0224,0.1058,-0.0077,-79.6500,33.6000,-13.9500,3.5400,3.8400,-8.1800,-0.1014,0.0654,-0.0098,-26.2500,-29.5000,21.8750,225.3125,21.2500,-153.5000,0
154.933,9.0261,3.1747,-1.6807,0.0195,0.0064,-0.0069,-51.1500,9.0000,11.4000,9.6678,0.2466,-1.3096,-0.0088,0.0919,-0.0125,-79.6500,33.6000,-13.9500,3.5200,3.8600,-8.1500,-0.1080,0.0785,-0.0098,-26.2500,-29.5000,21.8750,225.3125,21.2500,-153.5000,0
154.938,8.9304,3.1125,-1.5251,-0.0139,0.0410,-0.0149,-51.1500,9.0000,11.4000,9.6678,0.2466,-1.3096,-0.0088,0.0919,-0.0125,-78.9000,32.8500,-12.4500,3.5200,3.8600,-8.1500,-0.1058,0.0720,-0.0076,-26.2500,-29.5000,21.8750,225.3125,21.3125,-153.4375,0
154.943,8.9304,3.1125,-1.5251,-0.0139,0.0410,-0.0149,-50.8500,7.5000,12.7500,9.6438,0.2155,-1.1875,-0.0109,0.0821,-0.0125,-78.9000,32.8500,-12.4500,3.4700,3.9200,-8.1500,-0.1058,0.0720,-0.0076,-26.2500,-29.5000,21.8750,225.3125,21.3125,-153.4375,0
154.952,8.9687,2.9521,-1.4389,-0.0285,0.0693,-0.0221,-51.7500,7.2000,10.8000,9.5505,0.2634,-1.2210,-0.0266,0.0730,-0.0075,-79.0500,33.4500,-14.5500,3.5100,3.9400,-8.1100,-0.0971,0.0720,-0.0011,-26.2500,-29.5000,21.8750,225.3125,21.3125,-153.3750,0
154.957,8.9447,2.9688,-1.5347,-0.0240,0.0741,-0.0216,-51.7500,7.2000,10.8000,9.5505,0.2634,-1.2210,-0.0266,0.0730,-0.0075,-79.3500,34.0500,-13.9500,3.5100,3.9400,-8.1100,-0.0818,0.0698,0.0000,-26.2500,-29.5000,21.8750,225.3125,21.3750,-153.3125,0
154.963,8.9447,2.9688,-1.5347,-0.0240,0.0741,-0.0216,-51.9000,9.3000,12.0000,9.6199,0.3017,-1.1588,-0.0322,0.0655,-0.0064,-79.3500,34.0500,-13.9500,3.5400,3.9600,-8.0800,-0.0818,0.0698,0.0000,-26.2500,-29.5000,21.8750,225.3125,21.3750,-153.3125,0
154.968,8.9663,2.9951,-1.5874,-0.0168,0.0600,-0.0168,-51.9000,9.3000,12.0000,9.6199,0.3017,-1.1588,-0.0322,0.0655,-0.0064,-79.3500,34.0500,-13.9500,3.5400,3.9600,-8.0800,-0.0567,0.0545,0.0033,-25.5625,-29.1875,21.5000,225.3125,21.3750,-153.2500,0
154.973,8.9663,2.9951,-1.5874,-0.0168,0.0600,-0.0168,-52.9500,8.5500,12.4500,9.7013,0.2490,-1.2498,-0.0269,0.0592,-0.0045,-79.3500,34.0500,-13.9500,3.5400,3.9900,-8.0600,-0.0567,0.0545,0.0033,-25.5625,-29.1875,21.5000,225.3125,21.3750,-153.2500,0
154.978,9.0429,3.0885,-1.4533,-0.0261,0.0578,-0.0147,-52.9500,8.5500,12.4500,9.7013,0.2490,-1.2498,-0.0269,0.0592,-0.0045,-79.6500,34.0500,-13.6500,3.5400,3.9900,-8.0600,-0.0316,0.0447,0.0044,-25.5625,-29.1875,21.5000,225.3125,21.4375,-153.2500,0
154.983,9.0453,3.1101,-1.4365,-0.0336,0.0589,-0.0179,-51.9000,7.5000,12.4500,9.7157,0.1963,-1.2067,-0.0155,0.0474,-0.0035,-79.6500,34.0500,-13.6500,3.5400,3.9600,-8.1500,-0.0316,0.0447,0.0044,-25.5625,-29.1875,21.5000,225.3125,21.4375,-153.2500,0
154.988,9.0453,3.1101,-1.4365,-0.0336,0.0589,-0.0179,-51.9000,7.5000,12.4500,9.7157,0.1963,-1.2067,-0.0155,0.0474,-0.0035,-78.1500,34.3500,-12.9000,3.5400,3.9600,-8.1500,-0.0098,0.0327,0.0022,-25.5625,-29.1875,21.5000,225.3125,21.4375,-153.2500,0
154.993,9.1913,3.1915,-1.5155,-0.0245,0.0394,-0.0136,-51.9000,7.5000,12.4500,9.7181,0.0766,-1.1971,-0.0264,0.0370,-0.0032,-78.1500,34.3500,-12.9000,3.5800,3.9100,-8.2000,-0.0098,0.0327,0.0022,-25.5625,-29.1875,21.5000,225.3125,21.4375,-153.2500,0
155.002,9.1913,3.1915,-1.5155,-0.0245,0.0394,-0.0136,-52.8000,8.4000,12.1500,9.7276,0.0551,-1.2282,-0.0282,0.0290,-0.0016,-78.7500,34.2000,-14.5500,3.5900,3.9300,-8.1400,0.0011,0.0229,0.0044,-25.5625,-29.1875,21.5000,225.3125,21.4375,-153.2500,0
155.009,9.1602,3.1723,-1.5299,0.0005,0.0413,-0.0011,-52.8000,8.4000,12.1500,9.6414,0.0670,-1.2378,-0.0282,0.0290,-0.0016,-78.7500,32.5500,-13.0500,3.5500,3.9100,-8.1700,0.0055,0.0120,0.0011,-25.5625,-29.1875,21.5000,225.3125,21.4375,-153.2500,0
155.014,9.1387,3.2058,-1.5730,-0.0088,0.0490,-0.0048,-53.4000,8.2500,11.7000,9.6414,0.0670,-1.2378,-0.0410,0.0221,0.0019,-78.7500,32.5500,-13.0500,3.5500,3.9100,-8.1700,0.0055,0.0120,0.0011,-25.5625,-29.1875,21.5000,225.3125,21.4375,-153.2500,0
155.019,9.1387,3.2058,-1.5730,-0.0088,0.0490,-0.0048,-53.4000,8.2500,11.7000,9.6295,-0.0622,-1.4916,-0.0410,0.0221,0.0019,-79.0500,35.7000,-13.5000,3.5900,3.8700,-8.1700,0.0142,0.0087,0.0022,-24.5000,-30.2500,21.0625,225.3125,21.4375,-153.2500,0
155.024,9.1339,3.0670,-1.7358,-0.0160,0.0397,-0.0077,-53.5500,7.6500,11.8500,9.6295,-0.0622,-1.4916,-0.0767,0.0498,0.0005,-79.0500,35.7000,-13.5000,3.5900,3.8700,-8.1700,0.0142,0.0087,0.0022,-24.5000,-30.2500,21.0625,225.3125,21.4375,-153.3125,0
155.033,9.0884,3.0789,-1.8435,-0.0272,0.0280,-0.0051,-52.0500,9.1500,11.1000,9.7109,-0.0120,-1.4437,-0.0930,0.0536,0.0013,-78.4500,33.1500,-13.6500,3.6000,3.8800,-8.2100,0.0164,0.0000,0.0055,-24.5000,-30.2500,21.0625,225.3125,21.4375,-153.3125,0
155.041,9.0884,3.0789,-1.8435,-0.0272,0.0280,-0.0051,-52.0500,9.1500,11.1000,9.6271,0.0407,-1.7406,-0.1282,0.0586,-0.0019,-78.4500,33.1500,-13.6500,3.6600,3.8500,-8.2800,0.0175,-0.0109,0.0055,-24.5000,-30.2500,21.0625,225.3125,21.4375,-153.3125,0
155.046,9.0764,3.1364,-1.8723,-0.0181,0.0269,-0.0024,-52.0500,9.1500,11.1000,9.6271,0.0407,-1.7406,-0.1282,0.0586,-0.0019,-78.4500,33.1500,-13.6500,3.6600,3.8500,-8.2800,0.0175,-0.0109,0.0055,-24.5000,-30.2500,21.0625,225.3125,21.4375,-153.3125,0
155.053,9.0644,3.2202,-1.8555,-0.0131,0.0112,-0.0024,-52.0500,9.1500,11.1000,9.6750,0.1652,-1.6472,-0.1492,0.0589,-0.0072,-78.9000,34.0500,-13.6500,3.6000,3.8700,-8.2700,0.0055,-0.0098,-0.0022,-24.5000,-30.2500,21.0625,225.3125,21.4375,-153.3125,0
155.063,9.0692,3.3447,-1.8962,-0.0397,0.0189,-0.0061,-50.5500,7.9500,12.6000,9.6989,0.2753,-1.3767,-0.1146,0.0418,-0.0112,-78.9000,34.0500,-13.6500,3.6500,3.8400,-8.3000,-0.0087,-0.0120,-0.0098,-24.5000,-30.2500,21.0625,225.3125,21.4375,-153.3750,0
155.067,9.0692,3.3447,-1.8962,-0.0397,0.0189,-0.0061,-50.5500,7.9500,12.6000,9.6534,0.2442,-1.1803,-0.0464,0.0312,-0.0013,-77.4000,34.3500,-14.4000,3.6500,3.8400,-8.3000,-0.0087,-0.0120,-0.0098,-24.5000,-30.2500,21.0625,225.3125,21.4375,-153.3750,0
155.072,8.9423,3.3806,-1.7334,-0.0597,0.0354,-0.0029,-51.7500,7.2000,11.5500,9.6534,0.2442,-1.1803,-0.0464,0.0312,-0.0013,-77.4000,34.3500,-14.4000,3.5800,3.9300,-8.1500,-0.0349,-0.0033,-0.0196,-25.1875,-30.2500,21.0625,225.3125,21.4375,-153.3125,0
155.077,8.9423,3.3806,-1.7334,-0.0597,0.0354,-0.0029,-51.7500,7.2000,11.5500,9.5984,0.2251,-1.3240,-0.0168,0.0298,-0.0003,-78.1500,34.3500,-14.4000,3.5800,3.9300,-8.1500,-0.0349,-0.0033,-0.0196,-25.1875,-30.2500,21.0625,225.3125,21.4375,-153.3125,0
155.082,8.9088,3.5147,-1.7526,-0.0370,0.0456,-0.0093,-51.1500,9.7500,12.0000,9.5984,0.2251,-1.3240,-0.0168,0.0298,-0.0003,-78.1500,34.0500,-13.2000,3.5800,3.8800,-8.1600,-0.0535,0.0033,-0.0284,-25.1875,-30.2500,21.0625,225.3125,21.4375,-153.3125,0
155.087,8.9088,3.5147,-1.7526,-0.0370,0.0456,-0.0093,-51.1500,9.7500,12.0000,9.6151,0.2322,-1.2881,0.0173,0.0370,-0.0051,-79.6500,33.1500,-13.2000,3.5800,3.8800,-8.1600,-0.0633,-0.0033,-0.0305,-25.1875,-30.2500,21.0625,225.3125,21.4375,-153.2500,0
155.094,8.9591,3.4405,-1.8340,-0.0075,0.0573,-0.0032,-49.6500,6.7500,11.7000,9.6151,0.2322,-1.2881,0.0173,0.0370,-0.0051,-79.6500,33.1500,-13.2000,3.5500,3.9300,-8.1300,-0.0633,-0.0033,-0.0305,-25.1875,-30.2500,21.0625,225.3125,21.4375,-153.2500,0
155.102,9.0309,3.6152,-1.7478,0.0000,0.0557,0.0005,-49.6500,6.7500,11.7000,9.6702,0.2586,-1.3192,0.0418,0.0296,-0.0072,-78.9000,33.6000,-12.9000,3.4800,3.9900,-8.0800,-0.0698,-0.0087,-0.0284,-25.1875,-30.2500,21.0625,225.2500,21.4375,-153.2500,0
155.109,9.0309,3.6152,-1.7478,0.0000,0.0557,0.0005,-50.8500,9.3000,11.7000,9.6510,0.2370,-1.2498,0.0589,0.0317,-0.0125,-77.7000,34.0500,-13.9500,3.5300,3.9500,-8.0800,-0.0491,-0.0131,-0.0229,-25.1875,-30.2500,21.0625,225.2500,21.3750,-153.1875,0
155.114,8.9759,3.5219,-1.4964,-0.0226,0.0845,-0.0040,-50.8500,9.3000,11.7000,9.6414,0.1939,-1.0726,0.0589,0.0317,-0.0125,-77.7000,34.0500,-13.9500,3.5300,3.9500,-8.0800,-0.0491,-0.0131,-0.0229,-25.1875,-30.2500,21.0625,225.2500,21.3750,-153.1875,0
155.119,9.1219,3.4213,-1.3096,-0.0336,0.1135,0.0056,-51.7500,8.7000,12.9000,9.6414,0.1939,-1.0726,0.0839,0.0226,-0.0205,-78.9000,34.3500,-12.4500,3.4000,4.0500,-8.0300,-0.0218,-0.0175,-0.0175,-25.5000,-29.5000,20.6875,225.2500,21.3750,-153.1875,0
155.124,9.1219,3.4213,-1.3096,-0.0336,0.1135,0.0056,-51.7500,8.7000,12.9000,9.6462,0.2059,-0.9673,0.0839,0.0226,-0.0205,-78.9000,34.3500,-12.4500,3.4000,4.0500,-8.0300,-0.0218,-0.0175,-0.0175,-25.5000,-29.5000,20.6875,225.2500,21.3750,-153.1875,0
155.133,9.0166,3.0957,-1.5131,0.0120,0.1404,0.0149,-51.7500,9.4500,10.5000,9.6462,0.2059,-0.9673,0.1010,0.0040,-0.0296,-78.9000,34.3500,-12.4500,3.4500,4.0300,-8.0300,0.0087,-0.0240,-0.0153,-25.5000,-29.5000,20.6875,225.2500,21.3750,-153.1875,0
155.141,8.9399,3.0550,-1.6400,0.0855,0.1418,0.0330,-51.3000,8.4000,10.5000,9.6965,0.0455,-1.0295,0.1188,-0.0083,-0.0397,-78.9000,33.1500,-13.9500,3.5400,3.9900,-8.0900,0.0491,-0.0196,-0.0076,-25.5000,-29.5000,20.6875,225.2500,21.3750,-153.2500,0
155.146,8.9399,3.0550,-1.6400,0.0855,0.1418,0.0330,-51.3000,8.4000,10.5000,9.8426,-0.1006,-1.1756,0.1588,-0.0266,-0.0442,-78.9000,33.1500,-13.9500,3.5400,3.9900,-8.0900,0.0491,-0.0196,-0.0076,-25.5000,-29.5000,20.6875,225.2500,21.3750,-153.2500,0
155.153,9.1267,3.1316,-1.7430,0.1753,0.1561,0.0629,-50.5500,8.4000,11.5500,9.8043,-0.4741,-1.1540,0.1588,-0.0266,-0.0442,-78.4500,34.3500,-12.9000,3.4000,4.1000,-8.0500,0.0916,-0.0273,-0.0022,-25.5000,-29.5000,20.6875,225.2500,21.3750,-153.2500,0
155.161,9.2153,3.1843,-1.9297,0.2446,0.1745,0.0855,-50.5500,8.4000,11.5500,9.8043,-0.4741,-1.1540,0.1615,-0.0322,-0.0514,-78.9000,35.1000,-13.2000,3.5500,3.8900,-8.1900,0.1222,-0.0284,-0.0022,-25.5000,-29.5000,20.6875,225.2500,21.3125,-153.3750,0
155.166,9.2153,3.1843,-1.9297,0.2446,0.1745,0.0855,-50.5500,8.4000,11.5500,9.7157,-0.7111,-1.1684,0.1418,-0.0336,-0.0501,-78.9000,35.1000,-13.2000,3.5500,3.8900,-8.1900,0.1222,-0.0284,-0.0022,-25.5000,-29.5000,20.6875,225.2500,21.3125,-153.3750,0
155.171,9.2680,3.2034,-2.1404,0.2835,0.1836,0.1103,-53.1000,8.4000,11.8500,9.7157,-0.7111,-1.1684,0.1418,-0.0336,-0.0501,-78.1500,33.6000,-13.6500,3.6200,3.7500,-8.2500,0.1254,0.0033,-0.0022,-25.1875,-29.8750,22.6875,225.2500,21.3125,-153.4375,0
155.175,9.2680,3.2034,-2.1404,0.2835,0.1836,0.1103,-53.1000,8.4000,11.8500,9.6702,-0.6800,-1.3192,0.0778,-0.0538,-0.0541,-78.1500,33.6000,-13.6500,3.6200,3.7500,-8.2500,0.1254,0.0033,-0.0022,-25.1875,-29.8750,22.6875,225.2500,21.3125,-153.4375,0
155.180,9.3230,3.0167,-2.2410,0.3152,0.1812,0.1239,-51.3000,9.4500,10.8000,9.6702,-0.6800,-1.3192,0.0778,-0.0538,-0.0541,-78.3000,34.9500,-13.5000,3.6100,3.7000,-8.3100,0.1047,0.0065,-0.0065,-25.1875,-29.8750,22.6875,225.2500,21.3125,-153.5000,0
155.185,9.3230,3.0167,-2.2410,0.3152,0.1812,0.1239,-51.3000,9.4500,10.8000,9.6391,-0.4118,-1.7047,0.0069,-0.0586,-0.0602,-78.3000,34.9500,-13.5000,3.6100,3.7000,-8.3100,0.1047,0.0065,-0.0065,-25.1875,-29.8750,22.6875,225.1875,21.3125,-153.5625,0
155.193,9.2656,2.8395,-2.3990,0.3277,0.1884,0.1335,-51.9000,7.8000,10.9500,9.5098,-0.1867,-2.1596,-0.0853,-0.0304,-0.0807,-78.4500,34.8000,-13.9500,3.5400,3.7100,-8.2900,0.0840,0.0022,-0.0044,-25.1875,-29.8750,22.6875,225.1875,21.3125,-153.5625,0
155.203,9.3111,2.6839,-2.4852,0.3030,0.2030,0.1359,-51.7500,8.7000,11.8500,9.5912,-0.0287,-2.0901,-0.0967,-0.0458,-0.1037,-78.4500,34.8000,-13.9500,3.5700,3.7500,-8.3000,0.0611,-0.0044,-0.0044,-25.1875,-29.8750,22.6875,225.1875,21.3125,-153.6250,0
155.213,9.2703,2.6695,-2.6264,0.2425,0.2142,0.1292,-51.7500,8.7000,11.8500,9.6103,-0.0287,-2.0207,-0.0839,-0.0306,-0.1103,-79.3500,33.6000,-13.6500,3.7300,3.6800,-8.4100,0.0316,0.0000,-0.0022,-25.1875,-29.8750,22.6875,225.1875,21.3125,-153.6250,0
155.218,9.2009,2.6480,-2.5762,0.2012,0.1865,0.1260,-52.8000,7.9500,11.1000,9.6103,-0.0287,-2.0207,-0.0839,-0.0306,-0.1103,-79.3500,33.6000,-13.6500,3.7300,3.6800,-8.4100,-0.0185,-0.0065,-0.0109,-25.8750,-29.8750,21.8750,225.1875,21.3125,-153.6250,0
155.224,9.2009,2.6480,-2.5762,0.2012,0.1865,0.1260,-52.8000,7.9500,11.1000,9.5481,-0.1317,-1.7741,-0.0288,-0.0333,-0.1207,-79.3500,33.6000,-13.6500,3.6000,3.7800,-8.3400,-0.0185,-0.0065,-0.0109,-25.8750,-29.8750,21.8750,225.1875,21.3125,-153.6250,0
155.232,8.9878,2.7940,-2.3918,0.1895,0.1636,0.1055,-51.3000,8.4000,13.3500,9.5600,-0.1820,-1.4485,0.0245,-0.0216,-0.1279,-79.3500,35.1000,-13.2000,3.6700,3.7400,-8.3200,-0.0785,-0.0153,-0.0240,-25.8750,-29.8750,21.8750,225.1875,21.3125,-153.6250,0
155.237,9.0549,2.8252,-2.5139,0.1236,0.1969,0.0791,-52.0500,6.4500,12.1500,9.5600,-0.1820,-1.4485,0.0245,-0.0216,-0.1279,-79.3500,35.1000,-13.2000,3.6700,3.7400,-8.3200,-0.1385,-0.0175,-0.0327,-25.8750,-29.8750,21.8750,225.1875,21.3125,-153.5625,0
155.244,9.0549,2.8252,-2.5139,0.1236,0.1969,0.0791,-52.0500,6.4500,12.1500,9.5792,0.0646,-1.4198,0.0115,-0.0328,-0.1391,-80.4000,34.8000,-15.1500,3.4800,3.7800,-8.2100,-0.1385,-0.0175,-0.0327,-25.8750,-29.8750,21.8750,225.1875,21.3125,-153.5625,0
155.252,8.9088,2.8299,-2.5474,0.0557,0.2265,0.0829,-52.8000,9.9000,12.9000,9.4858,0.2442,-1.6951,-0.0341,-0.0149,-0.1404,-78.7500,33.7500,-14.8500,3.5800,3.8400,-8.1300,-0.1647,-0.0185,-0.0327,-25.8750,-29.8750,21.8750,225.1875,21.3125,-153.4375,0
155.257,8.7795,2.9760,-2.5498,0.0871,0.2361,0.0887,-52.6500,9.3000,12.0000,9.4858,0.2442,-1.6951,-0.0341,-0.0149,-0.1404,-78.7500,33.7500,-14.8500,3.5800,3.8400,-8.1300,-0.1647,-0.0185,-0.0327,-25.8750,-29.8750,21.8750,225.2500,21.3125,-153.3750,0
155.264,8.6622,3.3303,-2.4828,0.1332,0.2475,0.0727,-52.6500,9.3000,12.0000,9.4020,0.3687,-1.7526,-0.0469,-0.0021,-0.1391,-77.7000,35.1000,-14.4000,3.6000,3.9000,-8.0900,-0.1614,-0.0087,-0.0196,-25.8750,-29.8750,21.8750,225.2500,21.3125,-153.3750,0
155.269,8.6622,3.3303,-2.4828,0.1332,0.2475,0.0727,-52.6500,9.3000,12.0000,9.4308,0.5914,-2.0566,-0.0469,-0.0021,-0.1391,-78.9000,35.1000,-14.4000,3.6000,3.9000,-8.0900,-0.1614,-0.0087,-0.0196,-25.1875,-29.1875,21.5000,225.2500,21.3125,-153.3125,0
155.274,8.8681,3.5817,-2.1069,0.1543,0.2470,0.0698,-52.6500,9.3000,12.0000,9.4308,0.5914,-2.0566,-0.0757,0.0195,-0.1444,-78.9000,34.8000,-13.6500,3.5000,3.9000,-8.0800,-0.1462,-0.0185,-0.0153,-25.1875,-29.1875,21.5000,225.2500,21.3125,-153.3125,0
155.279,8.8681,3.5817,-2.1069,0.1543,0.2470,0.0698,-51.4500,9.3000,11.4000,9.4547,0.5698,-2.2075,-0.1316,0.0056,-0.1596,-78.9000,34.8000,-13.6500,3.5000,3.9000,-8.0800,-0.1462,-0.0185,-0.0153,-25.1875,-29.1875,21.5000,225.2500,21.2500,-153.2500,0
155.284,8.8059,3.7589,-1.9824,0.0962,0.2902,0.0608,-51.4500,9.3000,11.4000,9.4547,0.5698,-2.2075,-0.1316,0.0056,-0.1596,-78.9000,34.3500,-13.9500,3.4000,3.9900,-8.0300,-0.1244,-0.0305,-0.0131,-25.1875,-29.1875,21.5000,225.2500,21.2500,-153.2500,0
155.289,8.8059,3.7589,-1.9824,0.0962,0.2902,0.0608,-50.4000,7.8000,12.0000,9.5696,0.2035,-1.8723,-0.1793,-0.0080,-0.1857,-78.9000,34.3500,-13.9500,3.4000,3.9900,-8.0300,-0.0949,-0.0305,-0.0022,-25.1875,-29.1875,21.5000,225.2500,21.2500,-153.1875,0
155.294,8.8801,3.7828,-1.9920,0.0027,0.3677,0.0645,-50.4000,7.8000,12.0000,9.5696,0.2035,-1.8723,-0.1793,-0.0080,-0.1857,-78.9000,34.3500,-13.9500,3.4100,3.9900,-8.1900,-0.0949,-0.0305,-0.0022,-25.1875,-29.1875,21.5000,225.2500,21.2500,-153.1875,0
155.303,8.9974,3.6871,-1.9896,-0.0632,0.3920,0.0783,-51.4500,8.2500,12.0000,9.6103,-0.0239,-1.5083,-0.1495,-0.0221,-0.1852,-79.5000,34.2000,-13.5000,3.6500,3.8400,-8.3000,-0.0731,-0.0229,0.0065,-25.1875,-29.1875,21.5000,225.2500,21.2500,-153.1875,0
155.309,8.9974,3.6871,-1.9896,-0.0632,0.3920,0.0783,-52.0500,9.9000,12.1500,9.5170,-0.1221,-1.6640,-0.2268,-0.0237,-0.1775,-79.5000,34.2000,-13.5000,3.5900,3.7700,-8.2200,-0.0916,-0.0240,0.0076,-25.1875,-29.1875,21.5000,225.3125,21.2500,-153.1250,0
155.314,9.1004,3.5602,-2.1739,-0.0296,0.3936,0.0946,-52.0500,9.9000,12.1500,9.5170,-0.1221,-1.6640,-0.2268,-0.0237,-0.1775,-79.6500,36.0000,-14.7000,3.5900,3.7700,-8.2200,-0.0916,-0.0240,0.0076,-25.1875,-29.1875,21.5000,225.3125,21.2500,-153.1250,0
155.319,9.1004,3.5602,-2.1739,-0.0296,0.3936,0.0946,-52.0500,9.9000,12.1500,9.5744,0.0790,-1.8986,-0.3331,-0.0442,-0.1676,-77.7000,36.0000,-14.7000,3.4600,3.8300,-8.1900,-0.1189,-0.0338,0.0076,-25.1875,-30.5625,21.8750,225.3125,21.1875,-153.0625,0
155.324,8.9232,3.7828,-2.3128,0.1508,0.4013,0.1090,-52.0500,9.9000,12.1500,9.5744,0.0790,-1.8986,-0.3331,-0.0442,-0.1676,-77.7000,34.8000,-13.9500,3.4600,3.8300,-8.1900,-0.1189,-0.0338,0.0076,-25.1875,-30.5625,21.8750,225.3125,21.1875,-153.0625,0
155.329,8.9232,3.7828,-2.3128,0.1508,0.4013,0.1090,-52.0500,9.9000,12.1500,9.4308,0.1030,-1.8914,-0.4090,-0.0416,-0.1708,-77.7000,34.8000,-13.9500,3.4600,3.8300,-8.1900,-0.1254,-0.0360,0.0153,-25.1875,-30.5625,21.8750,225.3125,21.1875,-153.0625,0
155.334,8.8729,3.8858,-2.3559,0.2939,0.4290,0.1250,-52.0500,9.9000,12.1500,9.4308,0.1030,-1.8914,-0.4090,-0.0416,-0.1708,-78.3000,33.7500,-13.8000,3.6100,3.8300,-8.2100,-0.1254,-0.0360,0.0153,-25.1875,-30.5625,21.8750,225.3125,21.1875,-153.0625,0
155.339,8.8729,3.8858,-2.3559,0.2939,0.4290,0.1250,-50.5500,9.1500,11.5500,9.5936,0.1556,-2.0183,-0.4740,-0.0402,-0.1740,-78.3000,33.7500,-13.8000,3.6100,3.8300,-8.2100,-0.1364,-0.0415,0.0262,-25.1875,-30.5625,21.8750,225.3750,21.1875,-153.0000,0
155.344,9.2249,3.7900,-2.6600,0.4189,0.4791,0.1380,-51.1500,8.2500,11.7000,9.5936,0.1556,-2.0183,-0.4740,-0.0402,-0.1740,-78.9000,33.6000,-15.1500,3.6200,3.7200,-8.2200,-0.1364,-0.0415,0.0262,-25.1875,-30.5625,21.8750,225.3750,21.1875,-153.0000,0
155.353,9.7181,3.7182,-2.7174,0.4517,0.5089,0.1356,-51.1500,8.2500,11.7000,9.7516,-0.1987,-1.9130,-0.5089,-0.0256,-0.1743,-80.1000,34.0500,-12.9000,3.5700,3.3900,-8.6200,-0.1625,-0.0622,0.0295,-25.1875,-30.5625,21.8750,225.4375,21.1875,-153.0000,0
155.363,9.9192,2.9760,-2.6863,0.4383,0.5167,0.1364,-51.3000,8.4000,12.1500,9.7205,-0.5674,-1.3479,-0.3645,0.0405,-0.1471,-80.1000,34.0500,-12.9000,3.7200,3.3300,-8.6500,-0.2138,-0.0644,0.0393,-25.1875,-30.5625,21.8750,225.5000,21.1250,-152.8750,0
155.368,9.9192,2.9760,-2.6863,0.4383,0.5167,0.1364,-51.7500,9.9000,11.8500,9.8354,-0.6345,-1.1827,-0.4101,0.0573,-0.1506,-80.1000,34.0500,-12.9000,3.7200,3.3300,-8.6500,-0.2138,-0.0644,0.0393,-25.1875,-30.5625,21.8750,225.5000,21.1250,-152.8750,0
155.373,9.4978,2.2003,-1.8651,0.3896,0.4831,0.1564,-51.7500,9.9000,11.8500,9.8354,-0.6345,-1.1827,-0.4101,0.0573,-0.1506,-78.7500,35.4000,-13.8000,3.5000,3.2900,-8.5600,-0.3556,-0.0807,0.0491,-25.1875,-30.5625,20.6875,225.5625,21.1250,-152.7500,0
155.378,9.4978,2.2003,-1.8651,0.3896,0.4831,0.1564,-51.7500,9.9000,11.8500,9.8521,-0.4836,-1.3024,-0.4812,0.0613,-0.1593,-78.7500,35.4000,-13.8000,3.5000,3.2900,-8.5600,-0.3556,-0.0807,0.0491,-25.1875,-30.5625,20.6875,225.5625,21.1250,-152.7500,0
155.382,9.1770,1.7071,-0.8116,0.2856,0.3973,0.1548,-51.7500,9.9000,11.8500,9.8521,-0.4836,-1.3024,-0.4812,0.0613,-0.1593,-78.7500,35.4000,-13.8000,3.4300,3.2900,-8.5900,-0.4920,-0.1244,0.0676,-25.1875,-30.5625,20.6875,225.6875,21.0625,-152.5000,0
155.387,9.1770,1.7071,-0.8116,0.2856,0.3973,0.1548,-52.0500,9.1500,12.6000,9.9000,-0.0694,-0.9744,-0.5801,0.0328,-0.1553,-78.7500,35.4000,-13.8000,3.4300,3.2900,-8.5900,-0.6010,-0.1571,0.0949,-25.1875,-30.5625,20.6875,225.8125,21.0000,-152.1875,0
155.394,8.8633,1.5778,-0.3208,0.1580,0.3485,0.1769,-51.7500,9.1500,11.1000,9.5720,0.7973,-0.7518,-0.5774,0.0544,-0.1506,-76.2000,35.1000,-12.4500,2.8600,3.5400,-8.6500,-0.6010,-0.1571,0.0949,-25.1875,-30.5625,20.6875,226.0000,20.9375,-151.8125,0
155.403,8.9232,1.9776,-0.1341,0.0328,0.3304,0.1887,-50.4000,11.2500,10.9500,9.6606,1.5850,-0.7685,-0.5774,0.0544,-0.1506,-78.4500,34.8000,-13.2000,4.9200,2.6900,-9.1700,-0.7112,-0.2149,0.0960,-25.1875,-30.5625,20.6875,226.0000,20.9375,-151.8125,0
155.413,8.8466,2.5331,0.2873,-0.1180,0.3373,0.2057,-51.1500,9.3000,10.9500,9.7731,1.9034,-0.3328,-0.4623,0.0301,-0.1228,-78.9000,35.1000,-12.9000,1.5700,6.3900,-6.5500,-0.7625,-0.3589,0.1865,-25.1875,-30.5625,20.6875,226.1875,20.8125,-151.5000,0
155.418,8.8466,2.5331,0.2873,-0.1180,0.3373,0.2057,-51.1500,9.3000,10.9500,9.7731,1.9034,-0.3328,-0.4623,0.0301,-0.1228,-78.9000,35.1000,-12.9000,1.5700,6.3900,-6.5500,-0.7625,-0.3589,0.1865,-25.1875,-30.5625,20.6875,226.1875,20.8125,-151.5000,0
155.423,8.8585,3.6129,-0.0455,-0.1066,0.3893,0.2065,-51.0000,10.9500,10.5000,9.6989,2.7342,-0.5004,-0.3019,0.0019,-0.1218,-78.9000,34.8000,-12.4500,2.9900,5.3800,-7.0700,-0.6643,-0.3774,0.1713,-25.5000,-30.5625,21.5000,226.4375,20.6875,-151.1875,0
155.428,8.8585,3.6129,-0.0455,-0.1066,0.3893,0.2065,-51.0000,10.9500,10.5000,9.6989,2.7342,-0.5004,-0.3019,0.0019,-0.1218,-78.9000,34.8000,-12.4500,2.9900,5.3800,-7.0700,-0.6643,-0.3774,0.1713,-25.5000,-30.5625,21.5000,226.4375,20.6875,-151.1875,0
155.433,8.7173,4.3981,0.8667,-0.1266,0.4602,0.1961,-51.0000,10.9500,10.5000,9.8043,2.3774,-0.5459,-0.1311,-0.0093,-0.1074,-78.3000,34.2000,-12.3000,3.4600,7.1800,-6.3200,-0.5825,-0.3829,0.1680,-25.5000,-30.5625,21.5000,226.6250,20.5625,-150.9375,0
155.438,8.5569,4.4269,0.5770,-0.0589,0.4439,0.2137,-51.0000,10.9500,10.5000,9.8043,2.3774,-0.5459,-0.1311,-0.0093,-0.1074,-78.3000,34.2000,-12.3000,3.4600,7.1800,-6.3200,-0.4734,-0.2062,0.0524,-25.5000,-30.5625,21.5000,226.7500,20.4375,-150.6875,0
155.444,8.5569,4.4269,0.5770,-0.0589,0.4439,0.2137,-49.9500,9.4500,10.0500,9.5600,1.8675,-0.8260,0.0506,-0.0120,-0.0930,-78.3000,36.9000,-12.3000,3.5000,4.8500,-7.8400,-0.4734,-0.2062,0.0524,-25.5000,-30.5625,21.5000,226.8125,20.3750,-150.5000,0
155.453,8.9807,4.4963,0.2442,0.1092,0.4743,0.2313,-50.1000,11.5500,11.7000,9.6702,1.4653,-0.9505,0.1250,-0.0272,-0.0714,-78.3000,36.9000,-12.3000,3.4500,5.3000,-7.3400,-0.3512,-0.0971,-0.0131,-25.5000,-30.5625,21.5000,226.8125,20.3750,-150.5000,0
155.463,9.1746,4.6232,0.1125,0.2467,0.4780,0.2545,-49.9500,10.9500,11.1000,9.7276,1.2378,-0.9816,0.1591,-0.0245,-0.0541,-78.1500,35.5500,-11.8500,3.3900,5.2600,-7.3300,-0.2934,-0.1462,-0.0065,-25.5000,-30.5625,21.5000,226.8750,20.3125,-150.3750,0
155.468,9.3158,4.4317,0.0838,0.4207,0.4682,0.2726,-49.9500,10.9500,11.1000,9.7276,1.2378,-0.9816,0.1591,-0.0245,-0.0541,-78.1500,35.5500,-11.8500,3.3900,5.2600,-7.3300,-0.2934,-0.1462,-0.0065,-25.5000,-30.5625,21.5000,226.8125,20.2500,-150.2500,0
155.473,9.3158,4.4317,0.0838,0.4207,0.4682,0.2726,-51.9000,9.7500,11.4000,9.6750,0.9553,-0.9888,0.1860,-0.0253,-0.0424,-78.0000,35.4000,-13.0500,3.2300,4.9200,-7.6800,-0.1527,-0.0665,-0.0829,-25.5000,-31.3750,20.6875,226.8125,20.2500,-150.2500,0
155.478,9.4140,3.9720,-0.1437,0.5796,0.4551,0.3014,-51.9000,9.7500,11.4000,9.6750,0.9553,-0.9888,0.1860,-0.0253,-0.0424,-78.0000,35.4000,-13.0500,3.2300,4.9200,-7.6800,-0.1527,-0.0665,-0.0829,-25.5000,-31.3750,20.6875,226.8125,20.2500,-150.2500,0
155.483,9.4140,3.9720,-0.1437,0.5796,0.4551,0.3014,-51.9000,9.7500,11.4000,9.5984,0.9170,-1.2139,0.2014,0.0024,-0.0421,-77.4000,35.1000,-12.4500,3.2300,4.6900,-7.7600,-0.1527,-0.0665,-0.0829,-25.5000,-31.3750,20.6875,226.8125,20.2500,-150.1875,0
155.488,9.4116,3.4620,-0.1389,0.6496,0.4210,0.3243,-51.9000,9.7500,11.4000,9.5984,0.9170,-1.2139,0.2014,0.0024,-0.0421,-77.4000,35.1000,-12.4500,3.2300,4.6900,-7.7600,-0.0949,-0.0436,-0.0807,-25.5000,-31.3750,20.6875,226.7500,20.1875,-150.1250,0
155.494,9.4116,3.4620,-0.1389,0.6496,0.4210,0.3243,-50.1000,12.0000,11.7000,9.5888,0.9481,-1.1612,0.2787,0.0053,-0.0440,-78.1500,34.8000,-12.9000,3.0800,4.7900,-7.7300,-0.0949,-0.0436,-0.0807,-25.5000,-31.3750,20.6875,226.7500,20.1250,-150.0625,0
155.503,9.3398,3.1053,-0.2634,0.7429,0.3850,0.3488,-51.1500,11.5500,12.4500,9.5864,0.7207,-1.2570,0.3275,-0.0032,-0.0458,-78.4500,34.8000,-13.6500,3.4800,4.7300,-7.9400,-0.0305,-0.0415,-0.0720,-25.5000,-31.3750,20.6875,226.7500,20.1250,-150.0625,0
155.513,9.3302,2.8635,-0.5267,0.8250,0.3624,0.3531,-51.4500,10.8000,11.7000,9.6438,0.8619,-1.2306,0.3070,-0.0336,-0.0477,-78.0000,34.5000,-12.3000,3.4500,4.4100,-7.9900,0.0109,-0.0044,-0.0654,-25.5000,-31.3750,20.6875,226.6875,20.1250,-150.0625,0
155.518,9.2943,2.6001,-0.2322,0.8577,0.3437,0.3507,-51.4500,10.8000,11.7000,9.6798,0.8835,-1.1636,0.3070,-0.0336,-0.0477,-78.0000,34.5000,-12.3000,3.4500,4.4100,-7.9900,0.0109,-0.0044,-0.0654,-25.5000,-31.3750,20.6875,226.6875,20.1250,-150.0625,0
155.523,9.2943,2.6001,-0.2322,0.8577,0.3437,0.3507,-50.4000,11.5500,12.0000,9.6798,0.8835,-1.1636,0.2931,-0.0581,-0.0533,-78.0000,34.5000,-12.3000,3.1400,4.7100,-7.8100,0.0611,-0.0055,-0.0644,-24.7500,-31.0000,19.8750,226.6875,20.1250,-150.0625,0
155.528,9.3206,2.5355,-0.5938,0.8745,0.3403,0.3344,-50.4000,11.5500,12.0000,9.6845,0.6369,-1.2426,0.2931,-0.0581,-0.0533,-78.0000,34.5000,-12.3000,3.1400,4.7100,-7.8100,0.0611,-0.0055,-0.0644,-24.7500,-31.0000,19.8750,226.6875,20.1250,-150.0625,0
155.533,9.3206,2.5355,-0.5938,0.8745,0.3403,0.3344,-51.3000,10.9500,10.5000,9.6845,0.6369,-1.2426,0.3621,-0.0594,-0.0490,-78.9000,36.0000,-12.9000,3.5000,4.5600,-7.9300,0.0611,-0.0055,-0.0644,-24.7500,-31.0000,19.8750,226.6250,20.0625,-150.1250,0
155.538,9.4451,2.1093,-0.6201,0.8607,0.3251,0.3283,-51.3000,10.9500,10.5000,9.6151,0.3950,-1.3527,0.3986,-0.0634,-0.0544,-78.9000,36.0000,-12.9000,3.5000,4.5600,-7.9300,0.1004,0.0175,-0.0545,-24.7500,-31.0000,19.8750,226.5625,20.0625,-150.1875,0
155.544,9.4451,2.1093,-0.6201,0.8042,0.3211,0.3331,-51.3000,10.9500,10.5000,9.6151,0.3950,-1.3527,0.3986,-0.0634,-0.0544,-78.9000,36.0000,-12.9000,3.3500,4.4500,-7.9400,0.1004,0.0175,-0.0545,-24.7500,-31.0000,19.8750,226.5000,20.0625,-150.1875,0
155.554,9.5002,2.1189,-0.8715,0.8042,0.3211,0.3331,-51.0000,10.6500,11.1000,9.6606,0.1676,-1.5275,0.3906,-0.0653,-0.0522,-79.3500,35.5500,-13.9500,3.5300,4.2400,-8.1100,0.1244,0.0229,-0.0611,-24.7500,-31.0000,19.8750,226.5000,20.0625,-150.1875,0
155.563,9.4212,2.3607,-1.0894,0.7653,0.3155,0.3232,-51.9000,11.5500,10.2000,9.8067,0.0958,-1.8316,0.3445,-0.0557,-0.0416,-78.0000,35.7000,-14.5500,3.6300,4.1100,-8.2500,0.0851,0.0251,-0.0796,-24.7500,-31.0000,19.8750,226.5000,20.0625,-150.2500,0
155.568,9.7109,2.5857,-1.3431,0.6917,0.3136,0.3222,-51.9000,11.5500,10.2000,9.6151,0.2059,-1.8268,0.2475,-0.0530,-0.0192,-78.0000,35.7000,-14.5500,3.6300,4.1100,-8.2500,0.0851,0.0251,-0.0796,-24.7500,-31.0000,19.8750,226.5000,20.0625,-150.2500,0
155.573,9.5170,2.7677,-1.3288,0.6328,0.2934,0.3168,-50.8500,12.3000,9.6000,9.6151,0.2059,-1.8268,0.2475,-0.0530,-0.0192,-76.9500,36.0000,-15.1500,3.4600,4.1700,-8.2500,0.0120,0.0131,-0.1025,-24.0625,-31.3750,20.2500,226.4375,20.0625,-150.2500,0
155.578,9.5170,2.7677,-1.3288,0.6328,0.2934,0.3168,-50.8500,12.3000,9.6000,9.5600,0.7805,-2.0446,0.1919,-0.0378,-0.0128,-76.9500,36.0000,-15.1500,3.4600,4.1700,-8.2500,0.0120,0.0131,-0.1025,-24.0625,-31.3750,20.2500,226.4375,20.0625,-150.2500,0
155.583,9.3996,2.7054,-1.4509,0.6123,0.2974,0.3019,-51.7500,12.9000,11.5500,9.5600,0.7805,-2.0446,0.1919,-0.0378,-0.0128,-79.3500,35.5500,-14.4000,3.3800,4.2600,-8.1200,-0.0371,0.0109,-0.1167,-24.0625,-31.3750,20.2500,226.3750,20.0000,-150.1875,0
155.588,9.3996,2.7054,-1.4509,0.6123,0.2974,0.3019,-51.7500,12.9000,11.5500,9.3829,1.0487,-1.9752,0.2300,-0.0365,-0.0059,-79.3500,35.5500,-14.4000,3.3800,4.2600,-8.1200,-0.0502,0.0164,-0.1124,-24.0625,-31.3750,20.2500,226.3125,20.0000,-150.1250,0
155.594,9.2057,2.6911,-1.1444,0.5505,0.2995,0.2822,-51.7500,12.9000,11.5500,9.3829,1.0487,-1.9752,0.2300,-0.0365,-0.0059,-77.7000,35.1000,-13.6500,3.2200,4.4000,-7.9400,-0.0502,0.0164,-0.1124,-24.0625,-31.3750,20.2500,226.2500,20.0000,-150.0625,0
155.604,9.1913,2.7318,-0.9912,0.4706,0.3003,0.2721,-51.7500,12.9000,11.5500,9.3158,1.2570,-1.8938,0.3107,-0.0189,-0.0080,-78.4500,36.7500,-15.4500,3.2700,4.4000,-7.9100,-0.0545,0.0240,-0.1025,-24.0625,-31.3750,20.2500,226.2500,20.0000,-150.0625,0
155.609,9.1913,2.7318,-0.9912,0.4706,0.3003,0.2721,-51.7500,12.9000,11.5500,9.3494,1.4341,-2.1332,0.3573,0.0176,0.0083,-78.4500,36.7500,-15.4500,3.2700,4.4000,-7.9100,-0.0436,0.0229,-0.0753,-24.0625,-31.3750,20.2500,226.1875,19.9375,-150.0625,0
155.615,9.1435,3.0454,-1.1181,0.4631,0.2617,0.2755,-52.0500,12.9000,10.5000,9.1961,1.3910,-2.3367,0.4016,0.0538,0.0221,-78.4500,36.7500,-15.4500,3.2300,4.2500,-8.0700,-0.0436,0.0229,-0.0753,-24.0625,-31.3750,20.2500,226.1875,19.9375,-150.0625,0
155.620,9.1435,3.0454,-1.1181,0.4631,0.2617,0.2755,-51.3000,13.2000,10.5000,9.1961,1.3910,-2.3367,0.4016,0.0538,0.0221,-78.4500,36.7500,-15.4500,3.2300,4.2500,-8.0700,0.0022,0.0327,-0.0720,-25.1875,-31.0000,19.8750,226.1250,19.9375,-150.0625,0
155.624,9.1818,3.4453,-0.7685,0.4914,0.2308,0.2625,-51.3000,13.2000,10.5000,9.2536,1.5155,-2.2889,0.4245,0.0719,0.0394,-78.3000,35.7000,-13.5000,3.2300,4.5800,-7.7100,0.0022,0.0327,-0.0720,-25.1875,-31.0000,19.8750,226.1250,19.9375,-150.0625,0
155.629,9.1818,3.4453,-0.7685,0.4914,0.2308,0.2625,-50.5500,15.1500,9.3000,9.2536,1.5155,-2.2889,0.4245,0.0719,0.0394,-78.3000,35.7000,-13.5000,3.2300,4.5800,-7.7100,0.0022,0.0327,-0.0720,-25.1875,-31.0000,19.8750,226.1250,19.9375,-150.0625,0
155.634,9.0884,3.6751,-0.6536,0.5574,0.1972,0.2457,-50.5500,15.1500,9.3000,9.2009,1.7693,-2.1237,0.4543,0.0799,0.0514,-76.6500,35.5500,-13.2000,3.0500,4.5900,-7.6800,0.0535,0.0513,-0.0698,-25.1875,-31.0000,19.8750,226.1250,19.9375,-150.0625,0
155.643,9.0166,3.7876,-0.7853,0.6099,0.1418,0.2190,-51.0000,14.4000,10.5000,9.1147,1.9848,-2.2673,0.4543,0.0799,0.0514,-77.7000,36.0000,-13.9500,3.0300,4.5300,-7.7600,0.1167,0.0698,-0.0393,-25.1875,-31.0000,19.8750,226.0625,20.0000,-150.1250,0
155.653,9.0333,4.0223,-0.7661,0.6752,0.1191,0.2020,-51.0000,14.4000,10.5000,9.2488,2.1739,-2.2577,0.5875,0.1234,0.0879,-78.7500,34.9500,-12.7500,3.1800,4.7100,-7.6700,0.1854,0.0818,-0.0142,-25.1875,-31.0000,19.8750,226.0000,20.0000,-150.1875,0
155.662,9.0788,4.2066,-0.7302,0.7831,0.0770,0.1820,-50.4000,13.5000,10.9500,9.3518,2.1763,-2.1237,0.5875,0.1234,0.0879,-78.7500,34.9500,-12.7500,3.3000,4.7700,-7.7400,0.2531,0.1014,-0.0022,-25.1875,-31.0000,19.8750,226.0000,20.0625,-150.3125,0
155.667,9.0788,4.2066,-0.7302,0.7831,0.0770,0.1820,-50.4000,13.5000,10.9500,9.3518,2.1763,-2.1237,0.6667,0.1495,0.1103,-78.4500,35.5500,-14.7000,3.3000,4.7700,-7.7400,0.2531,0.1014,-0.0022,-25.1875,-31.0000,19.8750,226.0000,20.0625,-150.3125,0
155.672,9.1602,4.7645,-0.4597,0.8857,0.0373,0.1857,-50.5500,14.7000,9.7500,9.5361,2.0303,-1.9130,0.6667,0.1495,0.1103,-78.4500,35.5500,-14.7000,3.0900,4.8000,-7.6700,0.3371,0.1156,-0.0022,-25.5000,-31.3750,20.2500,225.9375,20.1250,-150.5000,0
155.677,9.1602,4.7645,-0.4597,0.8857,0.0373,0.1857,-50.5500,14.7000,9.7500,9.5361,2.0303,-1.9130,0.8087,0.1876,0.1388,-79.3500,36.3000,-15.1500,3.0900,4.8000,-7.6700,0.3371,0.1156,-0.0022,-25.5000,-31.3750,20.2500,225.9375,20.1250,-150.5000,0
155.681,9.5529,5.4468,0.2490,1.0139,-0.0402,0.1793,-50.4000,12.7500,10.6500,9.9719,2.0399,-0.9840,0.8087,0.1876,0.1388,-79.3500,36.3000,-15.1500,3.2200,4.7500,-7.8000,0.4134,0.1462,0.0033,-25.5000,-31.3750,20.2500,225.8750,20.1875,-150.7500,0
155.686,9.5529,5.4468,0.2490,1.0139,-0.0402,0.1793,-50.4000,12.7500,10.6500,9.9719,2.0399,-0.9840,0.9523,0.2070,0.1956,-79.3500,36.3000,-15.1500,3.2200,4.7500,-7.8000,0.4134,0.1462,0.0033,-25.5000,-31.3750,20.2500,225.7500,20.2500,-150.9375,0
155.694,9.6654,5.8251,1.2905,1.1215,-0.0967,0.1719,-51.0000,14.4000,9.0000,10.1897,1.9345,-0.4764,1.0075,0.2364,0.2691,-76.9500,36.0000,-13.9500,3.6700,4.4100,-8.8600,0.4320,0.1789,-0.0164,-25.5000,-31.3750,20.2500,225.6875,20.3750,-151.0625,0
155.704,9.4403,4.6495,1.7310,1.1514,-0.0930,0.1604,-49.9500,13.9500,9.7500,10.0963,1.9944,0.1604,1.0517,0.2297,0.3134,-76.9500,36.0000,-13.9500,4.1700,4.3400,-8.9700,0.3262,0.2083,-0.0960,-25.5000,-31.3750,20.2500,225.5000,20.3750,-151.1875,0
155.714,9.2751,3.5195,1.7957,1.2092,-0.1026,0.1727,-49.9500,13.9500,9.7500,10.0628,2.1644,0.3424,1.0688,0.2094,0.3483,-78.4500,36.0000,-15.1500,3.6900,4.9700,-8.1700,0.2509,0.2029,-0.1833,-25.5000,-31.3750,20.2500,225.5000,20.3750,-151.1875,0
155.719,9.2775,2.9377,1.6616,1.2843,-0.1172,0.1705,-50.4000,13.5000,9.6000,10.0628,2.1644,0.3424,1.0688,0.2094,0.3483,-78.4500,36.0000,-15.1500,3.6900,4.9700,-8.1700,0.2509,0.2029,-0.1833,-25.5000,-31.3750,20.2500,225.5000,20.3750,-151.1875,0
155.724,9.2775,2.9377,1.6616,1.2843,-0.1172,0.1705,-50.4000,13.5000,9.6000,9.9862,1.8555,0.8140,1.1802,0.2145,0.3874,-79.0500,35.4000,-14.5500,4.0100,6.0600,-8.3000,0.2018,0.2454,-0.2138,-24.5000,-30.5625,20.2500,225.3125,20.4375,-151.2500,0
155.729,9.4667,2.4493,0.9505,1.2825,-0.0695,0.1735,-50.8500,13.5000,8.1000,9.9862,1.8555,0.8140,1.1802,0.2145,0.3874,-79.0500,35.4000,-14.5500,4.0100,6.0600,-8.3000,0.2018,0.2454,-0.2138,-24.5000,-30.5625,20.2500,225.3125,20.4375,-151.2500,0
155.734,9.4667,2.4493,0.9505,1.2825,-0.0695,0.1735,-50.8500,13.5000,8.1000,9.7205,1.3503,0.3711,1.2055,0.2369,0.3933,-78.3000,35.4000,-14.8500,4.6600,6.7600,-8.3800,0.2182,0.2694,-0.2978,-24.5000,-30.5625,20.2500,225.1250,20.5000,-151.2500,0
155.739,9.5002,1.9800,0.2035,1.2446,-0.0400,0.1695,-51.1500,13.8000,9.1500,9.8186,1.1588,-0.3065,1.2055,0.2369,0.3933,-78.3000,35.4000,-14.8500,4.6600,6.7600,-8.3800,0.3142,0.2105,-0.4254,-24.5000,-30.5625,20.2500,224.8125,20.5000,-151.3125,0
155.745,9.5002,1.9800,0.2035,1.2446,-0.0400,0.1695,-51.1500,13.8000,9.1500,9.8186,1.1588,-0.3065,1.1538,0.2332,0.3890,-78.7500,35.7000,-15.6000,4.6700,6.7000,-8.0600,0.3142,0.2105,-0.4254,-24.5000,-30.5625,20.2500,224.3750,20.3750,-151.4375,0
155.754,9.7372,1.7214,-0.1939,1.2828,-0.0360,0.1732,-51.0000,13.6500,7.6500,9.8881,0.9625,-0.5004,1.0986,0.2507,0.3933,-77.4000,36.0000,-14.4000,4.3000,5.9400,-7.6200,0.4451,0.0382,-0.6250,-24.5000,-30.5625,20.2500,224.3750,20.3750,-151.4375,0
155.764,10.0102,1.8340,-0.8523,1.2950,-0.0418,0.1823,-51.0000,13.6500,7.6500,9.8234,0.7111,-0.9313,1.0690,0.3054,0.4064,-77.4000,35.5500,-13.2000,5.3200,7.3700,-7.8900,0.6403,-0.0262,-0.8083,-24.5000,-30.5625,20.2500,223.8750,20.1250,-151.6875,0
155.769,10.0772,2.3774,-1.3767,1.3017,-0.1042,0.2062,-50.8500,15.0000,7.8000,9.8474,1.0223,-1.3671,1.0952,0.3709,0.4253,-77.4000,35.5500,-13.2000,5.3200,7.3700,-7.8900,0.6403,-0.0262,-0.8083,-24.5000,-30.5625,20.2500,223.2500,19.8125,-152.0000,0
155.774,10.0772,2.3774,-1.3767,1.3017,-0.1042,0.2062,-50.8500,15.0000,7.8000,9.8474,1.0223,-1.3671,1.0952,0.3709,0.4253,-77.4000,35.5500,-13.2000,5.4200,6.4500,-8.0600,0.8378,-0.0927,-0.9730,-25.8750,-30.2500,21.0625,223.2500,19.8125,-152.0000,0
155.779,10.3789,3.1460,-1.7933,1.3265,-0.1279,0.2046,-50.1000,14.2500,9.9000,9.9647,1.7717,-1.9992,1.0469,0.4591,0.4317,-77.4000,35.5500,-13.2000,5.4200,6.4500,-8.0600,0.8378,-0.0927,-0.9730,-25.8750,-30.2500,21.0625,222.4375,19.3750,-152.3750,0
155.784,10.3789,3.1460,-1.7933,1.3265,-0.1279,0.2046,-50.1000,14.2500,9.9000,9.9647,1.7717,-1.9992,1.0469,0.4591,0.4317,-77.4000,35.5500,-13.2000,5.5200,6.6300,-8.4900,1.0516,-0.2476,-1.3581,-25.8750,-30.2500,21.0625,222.4375,19.3750,-152.3750,0
155.790,10.0173,3.7493,-2.0399,1.4184,-0.1633,0.1716,-51.3000,13.9500,7.9500,9.1339,2.7390,-1.4126,1.2758,0.5806,0.4450,-78.3000,34.5000,-14.8500,3.0900,6.3600,-5.5000,1.0428,-0.2574,-1.8762,-25.8750,-30.2500,21.0625,221.3125,18.7500,-152.6250,0
155.795,10.0173,3.7493,-2.0399,1.4184,-0.1633,0.1716,-51.3000,13.9500,7.9500,9.1339,2.7390,-1.4126,1.2758,0.5806,0.4450,-79.5000,34.5000,-16.8000,3.0900,6.3600,-5.5000,1.0428,-0.2574,-1.8762,-25.8750,-30.2500,21.0625,220.1250,18.3750,-152.9375,0
155.804,10.0293,4.9153,-1.8387,1.5948,-0.2044,0.0802,-52.6500,16.5000,8.5500,9.2823,3.0574,-2.1237,1.5167,0.7053,0.4668,-78.7500,34.9500,-15.6000,6.0300,5.3100,-8.2800,1.1541,0.1996,-1.9886,-25.8750,-30.2500,21.0625,218.7500,17.8125,-153.2500,0
155.814,9.6917,5.0996,-1.7071,1.7118,-0.4714,-0.0592,-50.4000,15.3000,7.8000,9.7731,2.8347,-1.9225,1.8834,0.7794,0.4762,-78.7500,34.9500,-15.6000,5.4000,5.8100,-8.4400,1.2075,0.0098,-2.2362,-25.8750,-30.2500,21.0625,218.7500,17.8125,-153.2500,0
155.819,8.8825,4.3000,-1.8028,1.7912,-0.4394,-0.1503,-50.4000,15.3000,7.8000,9.9431,2.3703,-1.2019,2.2314,0.8037,0.4517,-78.0000,36.1500,-15.6000,5.4000,5.8100,-8.4400,1.2075,0.0098,-2.2362,-25.8750,-30.2500,21.0625,217.3750,17.2500,-153.5625,0
155.824,8.8825,4.3000,-1.8028,1.7912,-0.4394,-0.1503,-50.4000,15.3000,7.8000,9.9431,2.3703,-1.2019,2.2314,0.8037,0.4517,-78.0000,36.1500,-15.6000,2.7900,4.9700,-7.5800,1.2534,-0.0316,-2.2275,-23.2500,-31.3750,21.0625,217.3750,17.2500,-153.5625,0
155.829,9.5960,3.7565,-1.0942,1.8506,-0.2097,-0.1988,-51.7500,17.4000,7.2000,10.1490,2.1021,-0.7422,2.4512,0.7981,0.4407,-78.9000,34.8000,-16.9500,2.7900,4.9700,-7.5800,1.2534,-0.0316,-2.2275,-23.2500,-31.3750,21.0625,216.0625,16.7500,-153.9375,0
155.834,9.5960,3.7565,-1.0942,1.8506,-0.2097,-0.1988,-51.7500,17.4000,7.2000,10.1490,2.1021,-0.7422,2.4512,0.7981,0.4407,-78.9000,34.8000,-16.9500,2.6800,5.1500,-7.5400,1.2752,0.1156,-2.2417,-23.2500,-31.3750,21.0625,216.0625,16.7500,-153.9375,0
155.839,9.6893,3.4740,-0.7135,1.9606,-0.1998,-0.2324,-53.5500,15.1500,6.1500,10.5704,2.0566,-0.4741,2.5594,0.7738,0.4727,-77.7000,36.3000,-15.4500,2.6800,5.1500,-7.5400,1.2446,0.2214,-2.3813,-23.2500,-31.3750,21.0625,214.5625,16.2500,-154.2500,0
155.845,9.4978,3.2561,-0.4717,1.9542,-0.1119,-0.2340,-53.5500,15.1500,6.1500,10.9415,2.7677,-0.1676,2.5594,0.7738,0.4727,-77.7000,36.3000,-15.4500,2.2900,5.4000,-7.0800,1.2446,0.2214,-2.3813,-23.2500,-31.3750,21.0625,213.0000,15.8750,-154.5625,0
155.854,9.7085,3.0742,-0.3472,1.8850,0.1178,-0.2475,-50.5500,17.4000,6.1500,11.2887,3.2801,0.0886,2.6055,0.7240,0.5100,-77.7000,36.3000,-15.4500,1.6900,6.2000,-6.4100,1.2195,0.4211,-2.5907,-23.2500,-31.3750,21.0625,213.0000,15.8750,-154.5625,0
155.864,10.1514,2.9592,-0.1867,1.8005,0.2638,-0.2587,-50.2500,14.7000,3.6000,11.4179,3.6152,0.0407,2.7979,0.6960,0.5529,-78.1500,35.5500,-14.4000,1.6800,7.5900,-6.3500,1.1934,0.7832,-2.9180,-23.2500,-31.3750,21.0625,211.1875,15.5625,-154.7500,0
155.869,10.1514,2.9592,-0.1867,1.8005,0.2638,-0.2587,-51.4500,15.0000,5.2500,11.4179,3.6152,0.0407,3.0108,0.6499,0.5734,-78.1500,35.5500,-14.4000,1.6800,7.5900,-6.3500,1.1934,0.7832,-2.9180,-23.2500,-31.3750,21.0625,211.1875,15.5625,-154.7500,0
155.874,10.2424,3.1460,-0.2610,1.6995,0.4021,-0.2611,-51.4500,15.0000,5.2500,11.1953,3.5578,0.1317,3.0108,0.6499,0.5734,-78.1500,35.5500,-14.4000,2.1400,7.3800,-6.2300,1.1541,1.1661,-3.3652,-20.0000,-32.5000,22.6875,209.0625,15.3750,-154.8125,0
155.879,10.2424,3.1460,-0.2610,1.6995,0.4021,-0.2611,-51.4500,15.0000,5.2500,11.1953,3.5578,0.1317,3.3646,0.6552,0.5753,-77.7000,35.5500,-15.9000,2.1400,7.3800,-6.2300,1.1541,1.1661,-3.3652,-20.0000,-32.5000,22.6875,209.0625,15.3750,-154.8125,0
155.884,10.2663,3.5027,-0.6752,1.6659,0.6099,-0.2585,-51.4500,15.0000,5.2500,10.8864,3.0335,0.3998,3.7638,0.7080,0.5577,-77.7000,35.5500,-15.9000,2.1400,7.6300,-5.9500,1.1443,1.5610,-3.7503,-20.0000,-32.5000,22.6875,206.7500,15.2500,-154.8750,0
155.890,10.2663,3.5027,-0.6752,1.6659,0.6099,-0.2585,-51.0000,15.1500,4.0500,10.8864,3.0335,0.3998,3.7638,0.7080,0.5577,-78.3000,35.4000,-15.6000,5.4800,6.2200,-6.0600,1.1356,2.0006,-4.0263,-20.0000,-32.5000,22.6875,204.1875,15.3125,-154.8125,0
155.895,10.1347,3.9624,-0.9577,1.7451,0.7264,-0.2888,-52.0500,14.4000,4.8000,10.5393,2.2122,0.8092,4.0540,0.7685,0.5348,-78.0000,33.7500,-16.3500,5.4800,6.2200,-6.0600,1.1356,2.0006,-4.0263,-20.0000,-32.5000,22.6875,201.5625,15.5000,-154.6250,0
155.904,10.0221,4.5969,-1.0726,1.8964,0.7935,-0.3296,-52.0500,15.1500,3.3000,10.1730,1.2881,0.6536,4.1344,0.8186,0.4879,-78.0000,33.7500,-16.3500,5.7200,5.8500,-6.2300,0.9239,2.2951,-4.0121,-20.0000,-32.5000,22.6875,199.0000,15.7500,-154.3125,0
155.914,9.6869,5.2194,-0.9697,2.1525,0.7703,-0.3821,-51.4500,16.5000,3.9000,9.9647,0.5315,0.4884,4.0806,0.8913,0.4759,-78.1500,34.8000,-16.2000,2.3400,5.6600,-5.7900,0.7669,2.4031,-3.9946,-20.0000,-32.5000,22.6875,199.0000,15.7500,-154.3125,0
155.919,9.6869,5.2194,-0.9697,2.1525,0.7703,-0.3821,-51.4500,16.5000,3.9000,9.9647,0.5315,0.4884,4.0806,0.8913,0.4759,-78.1500,34.8000,-16.2000,2.3400,5.6600,-5.7900,0.7669,2.4031,-3.9946,-20.0000,-32.5000,22.6875,196.4375,16.1875,-153.9375,0
155.924,9.6558,5.7533,-0.6177,2.4568,0.7373,-0.4218,-51.4500,16.5000,3.9000,9.7779,0.0646,0.7877,3.9591,0.9201,0.4943,-78.1500,34.8000,-16.2000,4.9600,4.4900,-6.9300,0.6610,2.7413,-3.9619,-15.6875,-33.8750,22.6875,196.4375,16.1875,-153.9375,0
155.929,9.6558,5.7533,-0.6177,2.4568,0.7373,-0.4218,-51.4500,16.5000,3.9000,9.7779,0.0646,0.7877,3.9591,0.9201,0.4943,-79.6500,34.3500,-18.7500,4.9600,4.4900,-6.9300,0.6610,2.7413,-3.9619,-15.6875,-33.8750,22.6875,193.8750,16.6250,-153.3750,0
155.934,9.4786,6.0669,-0.0575,2.7344,0.6675,-0.4663,-50.5500,14.4000,3.3000,9.7037,0.1197,0.9074,3.7806,0.9145,0.5420,-79.6500,34.3500,-18.7500,4.3600,5.0300,-7.5400,0.4560,2.8929,-3.8932,-15.6875,-33.8750,22.6875,193.8750,16.6250,-153.3750,0
155.940,9.4786,6.0669,-0.0575,2.7344,0.6675,-0.4663,-50.5500,14.4000,3.3000,9.7037,0.1197,0.9074,3.7806,0.9145,0.5420,-79.6500,34.3500,-18.7500,4.3600,5.0300,-7.5400,0.3807,2.9485,-3.9041,-15.6875,-33.8750,22.6875,191.2500,17.1250,-152.8125,0
155.945,9.3733,5.6790,0.3256,3.0313,0.6336,-0.4815,-50.8500,15.7500,2.8500,9.6893,0.4022,0.4788,3.6007,0.9006,0.5836,-79.6500,34.3500,-18.7500,4.5700,5.4800,-7.9700,0.3807,2.9485,-3.9041,-15.6875,-33.8750,22.6875,188.6875,17.6250,-152.2500,0
155.954,9.2680,5.1092,0.7183,3.2815,0.5974,-0.5119,-51.0000,13.9500,2.2500,9.6414,0.3998,0.5842,3.5352,0.8916,0.6006,-79.3500,32.4000,-18.4500,4.3800,5.1600,-7.9600,0.4843,2.9692,-3.8397,-15.6875,-33.8750,22.6875,188.6875,17.6250,-152.2500,0
155.964,9.0501,4.0773,0.8404,3.5703,0.5433,-0.5644,-51.0000,13.2000,3.3000,9.4786,0.3400,0.8428,3.4896,0.8777,0.6121,-79.6500,32.4000,-19.2000,3.6400,3.8900,-8.0400,0.6207,3.0183,-3.6586,-15.6875,-33.8750,22.6875,186.1875,18.1250,-151.7500,0
155.969,9.0501,4.0773,0.8404,3.5703,0.5433,-0.5644,-51.0000,13.2000,3.3000,9.4786,0.3400,0.8428,3.4896,0.8777,0.6121,-79.8000,32.2500,-17.5500,3.6400,3.8900,-8.0400,0.6207,3.0183,-3.6586,-15.6875,-33.8750,22.6875,183.8125,18.6875,-151.3125,0
155.974,9.0309,3.1101,0.9050,3.7640,0.5345,-0.6198,-49.9500,10.9500,1.2000,9.3733,-0.0383,0.9481,3.4675,0.8513,0.6099,-79.8000,32.2500,-17.5500,3.5700,3.6500,-8.2900,0.7025,3.0216,-3.4328,-11.5625,-35.3750,21.0625,183.8125,18.6875,-151.3125,0
155.979,9.0309,3.1101,0.9050,3.7640,0.5345,-0.6198,-49.9500,10.9500,1.2000,9.2919,-0.3519,0.9433,3.4675,0.8513,0.6099,-79.8000,31.5000,-19.0500,3.5700,3.6500,-8.2900,0.7025,3.0216,-3.4328,-11.5625,-35.3750,21.0625,183.8125,18.6875,-151.3125,0
155.984,8.9184,2.0758,0.4884,3.8403,0.5348,-0.6694,-49.9500,10.9500,1.2000,9.2919,-0.3519,0.9433,3.3769,0.8314,0.5857,-79.8000,31.5000,-19.0500,3.2600,3.4800,-8.4200,0.7352,2.9365,-3.1918,-11.5625,-35.3750,21.0625,181.5625,19.2500,-150.9375,0
155.991,8.8921,1.1325,0.1963,3.7609,0.5830,-0.6837,-49.9500,10.9500,1.2000,9.4284,-0.4741,1.0894,3.2599,0.7602,0.5620,-79.8000,29.8500,-20.1000,2.4100,3.4800,-8.3700,0.7679,2.8165,-2.9540,-11.5625,-35.3750,21.0625,179.5000,19.8125,-150.5625,0
155.996,8.8921,1.1325,0.1963,3.7609,0.5830,-0.6837,-50.1000,12.3000,0.3000,9.4284,-0.4741,1.0894,3.2599,0.7602,0.5620,-79.8000,29.8500,-20.1000,2.4100,3.4800,-8.3700,0.7679,2.8165,-2.9540,-11.5625,-35.3750,21.0625,177.5000,20.3750,-150.2500,0
156.004,8.9184,0.3926,0.0718,3.6391,0.6611,-0.6805,-47.8500,10.8000,-0.3000,9.3015,-0.6033,1.0032,3.1408,0.6848,0.5518,-80.5500,32.2500,-19.8000,2.0800,3.5100,-8.3900,0.7701,2.6933,-2.7293,-11.5625,-35.3750,21.0625,175.6250,20.9375,-149.9375,0
156.014,8.9639,-0.0335,-0.1700,3.4520,0.7088,-0.6835,-47.8500,11.2500,0.0000,9.3685,-0.6991,1.1684,3.0603,0.6049,0.5484,-80.5500,32.2500,-19.8000,1.7700,3.6200,-8.4100,0.7396,2.5678,-2.5482,-11.5625,-35.3750,21.0625,175.6250,20.9375,-149.9375,0
156.019,9.0525,-0.1556,-0.2777,3.2482,0.7370,-0.7051,-47.8500,11.2500,0.0000,9.3518,-0.6249,0.9242,2.9178,0.5041,0.5630,-78.3000,31.8000,-20.5500,1.7700,3.6200,-8.4100,0.7396,2.5678,-2.5482,-11.5625,-35.3750,21.0625,175.6250,20.9375,-149.9375,0
156.024,9.0525,-0.1556,-0.2777,3.2482,0.7370,-0.7051,-47.7000,10.6500,-1.9500,9.3518,-0.6249,0.9242,2.9178,0.5041,0.5630,-78.3000,31.8000,-20.5500,1.1900,4.2000,-8.1900,0.7025,2.4566,-2.4456,-6.7500,-37.5625,19.0625,173.8750,21.3750,-149.5625,0
156.029,8.9854,-0.2011,-0.2011,3.0984,0.7418,-0.7147,-47.7000,10.6500,-1.9500,9.2847,-0.7661,0.9409,2.8325,0.4026,0.5665,-78.3000,31.8000,-20.5500,1.1900,4.2000,-8.1900,0.7025,2.4566,-2.4456,-6.7500,-37.5625,19.0625,173.8750,21.3750,-149.5625,0
156.034,8.9854,-0.2011,-0.2011,3.0984,0.7418,-0.7147,-47.7000,10.6500,-1.9500,9.2847,-0.7661,0.9409,2.8325,0.4026,0.5665,-78.3000,31.8000,-20.5500,0.8400,4.2900,-7.8300,0.7003,2.3540,-2.3944,-6.7500,-37.5625,19.0625,172.1250,21.8750,-149.2500,0
156.039,8.9376,-0.0766,-0.1101,2.9785,0.7378,-0.7229,-47.7000,10.6500,-1.9500,9.1913,-0.9170,1.0582,2.7776,0.3080,0.5582,-79.6500,30.4500,-21.7500,0.8400,4.2900,-7.8300,0.7079,2.3213,-2.3638,-6.7500,-37.5625,19.0625,170.3750,22.3125,-148.9375,0
156.045,8.9376,-0.0766,-0.1101,2.9785,0.7378,-0.7229,-47.4000,10.9500,-0.7500,9.1913,-0.9170,1.0582,2.7776,0.3080,0.5582,-79.6500,30.4500,-21.7500,0.7300,4.3800,-7.6300,0.7079,2.3213,-2.3638,-6.7500,-37.5625,19.0625,168.6250,22.6875,-148.5625,0
156.054,8.8562,0.0575,-0.1053,2.8045,0.7000,-0.7160,-47.4000,10.2000,-1.2000,9.1243,-1.0391,1.1013,2.6979,0.2158,0.5438,-79.6500,30.9000,-21.7500,0.7500,4.6800,-7.4500,0.6741,2.2984,-2.3715,-6.7500,-37.5625,19.0625,166.8750,23.0625,-148.1250,0
156.064,9.0716,0.0886,-0.3089,2.6089,0.6904,-0.6952,-47.1000,9.7500,-1.0500,9.0501,-0.8212,1.1420,2.6446,0.0954,0.5252,-78.4500,31.2000,-22.5000,0.4300,5.1100,-6.9100,0.6414,2.2580,-2.4042,-6.7500,-37.5625,19.0625,166.8750,23.0625,-148.1250,0
156.069,8.9735,0.0168,-0.6488,2.4016,0.6821,-0.6726,-47.1000,9.7500,-1.0500,9.0285,-0.4764,1.1875,2.6193,-0.0157,0.4839,-78.9000,29.2500,-22.2000,0.4300,5.1100,-6.9100,0.6414,2.2580,-2.4042,-6.7500,-37.5625,19.0625,165.1250,23.3750,-147.6875,0
156.074,8.9735,0.0168,-0.6488,2.4016,0.6821,-0.6726,-47.5500,11.5500,-2.1000,9.0285,-0.4764,1.1875,2.6193,-0.0157,0.4839,-78.9000,29.2500,-22.2000,0.5500,5.3900,-6.7300,0.6076,2.2537,-2.4456,-5.1875,-36.5000,19.0000,165.1250,23.3750,-147.6875,0
156.079,9.0237,-0.0431,-0.9290,2.2066,0.7141,-0.6616,-47.5500,11.5500,-2.1000,8.9352,-0.2418,1.1325,2.6763,-0.1053,0.4239,-78.9000,29.2500,-22.2000,0.5500,5.3900,-6.7300,0.6076,2.2537,-2.4456,-5.1875,-36.5000,19.0000,165.1250,23.3750,-147.6875,0
156.084,9.0237,-0.0431,-0.9290,2.2066,0.7141,-0.6616,-47.4000,10.9500,-1.9500,8.8657,-0.3543,0.9553,2.6763,-0.1053,0.4239,-78.9000,29.2500,-22.2000,0.7300,5.6900,-6.6100,0.6436,2.2427,-2.4729,-5.1875,-36.5000,19.0000,163.3125,23.6875,-147.2500,0
156.092,9.1363,0.0934,-1.1444,2.0142,0.7173,-0.6502,-47.4000,10.9500,-1.9500,8.8657,-0.3543,0.9553,2.7701,-0.1649,0.3517,-80.2500,29.8500,-23.1000,1.0500,5.3000,-6.1900,0.7330,2.2177,-2.4391,-5.1875,-36.5000,19.0000,161.5000,24.0000,-146.8750,0
156.097,9.3182,0.2418,-1.1899,1.8607,0.7240,-0.6414,-47.4000,10.9500,-1.9500,8.9830,-0.9146,1.2306,2.8069,-0.2169,0.2803,-80.2500,29.8500,-23.1000,1.0500,5.3000,-6.1900,0.7330,2.2177,-2.4391,-5.1875,-36.5000,19.0000,159.7500,24.3125,-146.5000,0
156.105,9.3182,0.2418,-1.1899,1.8607,0.7240,-0.6414,-46.8000,9.3000,-4.2000,9.1459,-1.4246,1.4413,2.6673,-0.2801,0.2353,-80.2500,29.8500,-23.1000,1.0400,5.0900,-5.9000,0.7658,2.1718,-2.3758,-5.1875,-36.5000,19.0000,158.0000,24.5625,-146.0625,0
156.115,9.1889,0.2729,-1.2474,1.7325,0.7075,-0.6249,-46.2000,10.6500,-3.6000,9.5648,-1.7933,1.2019,2.4912,-0.3528,0.1985,-80.5500,30.3000,-24.6000,0.9000,5.1000,-5.5300,0.6381,2.1653,-2.3562,-5.1875,-36.5000,19.0000,158.0000,24.5625,-146.0625,0
156.120,9.3781,0.3759,-1.2210,1.6116,0.6776,-0.6129,-46.2000,10.6500,-3.6000,9.5648,-1.7933,1.2019,2.4912,-0.3528,0.1985,-79.5000,28.6500,-23.4000,0.9000,5.1000,-5.5300,0.6381,2.1653,-2.3562,-5.1875,-36.5000,19.0000,156.2500,24.8125,-145.4375,0
156.125,9.3781,0.3759,-1.2210,1.6116,0.6776,-0.6129,-47.5500,9.7500,-3.9000,9.7683,-1.6879,1.3934,2.2415,-0.4607,0.1721,-79.5000,28.6500,-23.4000,1.0000,5.5700,-5.2500,0.3360,2.2078,-2.4631,-1.1875,-35.3750,20.1875,156.2500,24.8125,-145.4375,0
156.129,9.6151,0.4453,-1.1444,1.5247,0.6238,-0.5905,-47.5500,9.7500,-3.9000,9.7683,-1.6879,1.3934,2.2415,-0.4607,0.1721,-79.5000,29.1000,-24.9000,1.0000,5.5700,-5.2500,0.3360,2.2078,-2.4631,-1.1875,-35.3750,20.1875,154.3750,25.0000,-144.5000,0
156.134,9.9790,0.3663,-1.1851,1.4344,0.5510,-0.5737,-46.6500,9.1500,-5.4000,9.7659,-1.9345,1.5682,2.0518,-0.4972,0.1460,-79.5000,29.1000,-24.9000,0.9600,6.6300,-4.4000,-0.0480,2.3333,-2.6965,-1.1875,-35.3750,20.1875,154.3750,25.0000,-144.5000,0
156.139,9.9790,0.3663,-1.1851,1.4344,0.5510,-0.5737,-46.6500,9.1500,-5.4000,9.7659,-1.9345,1.5682,2.0518,-0.4972,0.1460,-79.5000,28.6500,-24.9000,0.9600,6.6300,-4.4000,-0.5214,2.5787,-3.0085,-1.1875,-35.3750,20.1875,152.3125,25.1875,-143.1250,0
156.145,10.1825,0.3065,-1.1516,1.2993,0.4906,-0.5614,-46.6500,9.1500,-5.4000,9.7564,-1.3815,1.3144,1.7237,-0.5873,0.1098,-79.5000,28.6500,-24.9000,1.3500,7.3900,-4.4800,-0.5214,2.5787,-3.0085,-1.1875,-35.3750,20.1875,150.1250,25.2500,-141.5000,0
156.155,10.3789,0.1724,-1.1013,1.1463,0.4381,-0.5830,-46.6500,9.1500,-5.4000,9.6869,-0.9170,1.1109,1.5263,-0.6363,0.0322,-79.6500,28.5000,-25.8000,1.7400,8.4000,-3.9200,-0.8781,2.7729,-3.3543,-1.1875,-35.3750,20.1875,150.1250,25.2500,-141.5000,0
156.164,10.2280,-0.0239,-1.4078,0.9249,0.3946,-0.6102,-45.9000,10.2000,-4.8000,9.4236,-0.1413,1.4940,1.4589,-0.6827,-0.0871,-78.7500,28.6500,-27.1500,2.0900,8.7200,-3.9800,-1.1454,2.9878,-3.6106,-1.1875,-35.3750,20.1875,255.3750,25.2500,-139.6875,0
156.169,10.2280,-0.0239,-1.4078,0.9249,0.3946,-0.6102,-45.9000,10.2000,-4.8000,9.4236,-0.1413,1.4940,1.4589,-0.6827,-0.0871,-78.7500,28.6500,-27.1500,2.0900,8.7200,-3.9800,-1.1454,2.9878,-3.6106,-1.1875,-35.3750,20.1875,255.3750,25.2500,-139.6875,0
156.174,9.9383,-0.1413,-1.8675,0.7378,0.3917,-0.6166,-45.7500,8.2500,-5.2500,9.1147,0.3065,1.8028,1.4416,-0.7115,-0.2571,-78.7500,28.6500,-27.1500,3.2700,9.6200,-4.5600,-1.3952,3.1907,-3.7405,1.0000,-35.8750,19.2500,255.1875,25.2500,-137.6250,0
156.179,9.9383,-0.1413,-1.8675,0.7378,0.3917,-0.6166,-46.5000,10.0500,-4.9500,9.1147,0.3065,1.8028,1.4416,-0.7115,-0.2571,-78.1500,26.5500,-26.5500,3.2700,9.6200,-4.5600,-1.3952,3.1907,-3.7405,1.0000,-35.8750,19.2500,255.1875,25.2500,-137.6250,0
156.184,9.6798,0.0431,-2.2170,0.6664,0.3746,-0.5886,-46.5000,10.0500,-4.9500,8.9256,0.4477,1.6879,1.4568,-0.7344,-0.4660,-78.1500,26.5500,-26.5500,4.1200,9.9700,-4.7400,-1.4115,3.0969,-3.7001,1.0000,-35.8750,19.2500,255.0625,25.0625,-135.5625,0
156.192,9.6798,0.0431,-2.2170,0.6664,0.3746,-0.5886,-47.5500,11.5500,-3.4500,8.9998,0.3615,2.0255,1.4256,-0.7725,-0.6765,-78.1500,26.5500,-26.5500,3.6400,8.1100,-4.9400,-1.2654,2.7380,-3.4503,1.0000,-35.8750,19.2500,255.1250,24.8125,-133.7500,0
156.197,9.5289,0.3783,-2.2386,0.6624,0.3357,-0.5590,-47.5500,11.5500,-3.4500,8.9998,0.3615,2.0255,1.4256,-0.7725,-0.6765,-78.1500,26.5500,-26.5500,3.6400,8.1100,-4.9400,-1.2654,2.7380,-3.4503,1.0000,-35.8750,19.2500,255.3125,24.3750,-132.0625,0
156.205,9.1650,0.9050,-2.1428,0.6584,0.2774,-0.5383,-47.5500,11.5500,-3.4500,8.8849,0.1915,2.6145,1.3238,-0.7941,-0.8434,-79.6500,27.7500,-26.5500,3.4800,7.9900,-5.2800,-1.2283,2.3017,-3.0914,1.0000,-35.8750,19.2500,255.8125,23.9375,-130.6250,0
156.215,8.9064,1.2115,-1.9632,0.6033,0.2742,-0.5241,-45.4500,9.9000,-5.8500,8.9974,-0.3304,2.5331,1.1546,-0.8284,-0.9574,-78.7500,26.7000,-28.6500,3.9500,8.7500,-5.8000,-1.2479,1.8446,-2.7434,1.0000,-35.8750,19.2500,255.8125,23.9375,-130.6250,0
156.220,8.9064,1.2115,-1.9632,0.6033,0.2742,-0.5241,-44.8500,9.9000,-4.0500,9.2105,-0.8428,2.4565,1.1546,-0.8284,-0.9574,-77.4000,29.2500,-29.5500,3.9500,8.7500,-5.8000,-1.2479,1.8446,-2.7434,1.0000,-35.8750,19.2500,255.8125,23.9375,-130.6250,0
156.225,8.8011,1.3743,-1.6807,0.5297,0.3032,-0.5161,-44.8500,9.9000,-4.0500,9.2105,-0.8428,2.4565,0.9217,-0.8791,-1.0325,-77.4000,29.2500,-29.5500,4.4800,9.1100,-6.1000,-1.0745,1.3046,-2.4555,5.5625,-34.8750,16.7500,256.5000,23.3750,-129.3750,0
156.230,8.8011,1.3743,-1.6807,0.5297,0.3032,-0.5161,-43.6500,9.9000,-5.4000,9.2751,-1.1325,2.2936,0.9217,-0.8791,-1.0325,-78.4500,27.7500,-28.5000,4.4800,9.1100,-6.1000,-1.0745,1.3046,-2.4555,5.5625,-34.8750,16.7500,256.5000,23.3750,-129.3750,0
156.235,8.6814,1.3815,-1.4653,0.4375,0.3219,-0.4914,-43.6500,9.9000,-5.4000,9.2751,-1.1325,2.2936,0.6203,-0.9425,-1.0928,-78.4500,27.7500,-28.5000,3.5100,7.5900,-5.8500,-0.7996,0.7232,-2.1697,5.5625,-34.8750,16.7500,257.4375,22.6875,-128.5000,0
156.240,8.6814,1.3815,-1.4653,0.4375,0.3219,-0.4914,-45.7500,9.3000,-4.9500,9.1866,-1.4030,2.1548,0.2990,-1.0003,-1.1349,-78.4500,27.7500,-28.5000,3.5100,7.5900,-5.8500,-0.6338,0.2793,-1.8871,5.5625,-34.8750,16.7500,258.5625,21.9375,-127.8125,0
156.245,8.6838,1.3120,-1.2426,0.3230,0.3006,-0.4479,-45.7500,9.3000,-4.9500,9.1866,-1.4030,2.1548,0.2990,-1.0003,-1.1349,-78.4500,27.7500,-28.5000,3.1700,6.9400,-5.7600,-0.6338,0.2793,-1.8871,5.5625,-34.8750,16.7500,259.7500,21.1875,-127.2500,0
156.255,8.4659,1.2354,-0.7997,0.1980,0.3491,-0.4026,-45.3000,10.0500,-5.2500,8.9423,-1.4174,2.2242,-0.0075,-1.0488,-1.1740,-76.9500,31.2000,-29.8500,3.1800,6.8200,-5.7100,-0.5912,-0.0393,-1.6373,5.5625,-34.8750,16.7500,259.7500,21.1875,-127.2500,0
156.265,8.3175,1.0989,-0.1580,0.1218,0.4151,-0.3701,-45.3000,10.0500,-5.2500,8.7053,-1.1803,2.2170,-0.2377,-1.0901,-1.2249,-76.9500,31.2000,-29.8500,3.7700,7.3200,-5.9300,-0.6109,-0.2694,-1.4388,5.5625,-34.8750,16.7500,261.1250,20.5000,-126.8125,0
156.269,8.3175,1.0989,-0.1580,0.1218,0.4151,-0.3701,-43.9500,10.0500,-3.4500,8.7125,-0.9553,1.8747,-0.3805,-1.1170,-1.2740,-75.4500,31.2000,-31.8000,3.7700,7.3200,-5.9300,-0.6109,-0.2694,-1.4388,5.5625,-34.8750,16.7500,262.5625,19.7500,-126.3750,0
156.275,8.1618,1.0439,0.2179,0.1537,0.4714,-0.3387,-43.9500,10.0500,-3.4500,8.7125,-0.9553,1.8747,-0.3805,-1.1170,-1.2740,-75.4500,31.2000,-31.8000,4.0300,7.3800,-5.8800,-0.6054,-0.5029,-1.3286,8.7500,-34.1875,16.1875,262.5625,19.7500,-126.3750,0
156.279,8.3869,1.2282,0.1508,0.2265,0.5529,-0.3230,-44.8500,9.9000,-5.8500,8.7963,-0.6752,1.9465,-0.3608,-1.1418,-1.3435,-76.0500,30.6000,-30.1500,4.0300,7.3800,-5.8800,-0.6054,-0.5029,-1.3286,8.7500,-34.1875,16.1875,264.1875,18.9375,-126.0000,0
156.284,8.3869,1.2282,0.1508,0.2265,0.5529,-0.3230,-44.8500,9.9000,-5.8500,8.7963,-0.6752,1.9465,-0.3608,-1.1418,-1.3435,-76.0500,30.6000,-30.1500,4.0900,7.1200,-5.8600,-0.6087,-0.7090,-1.2457,8.7500,-34.1875,16.1875,264.1875,18.9375,-126.0000,0
156.291,8.5569,1.5012,-0.1149,0.2510,0.5436,-0.2918,-44.5500,10.0500,-4.9500,8.7676,-0.1077,1.9345,-0.3552,-1.1730,-1.3997,-76.5000,31.5000,-31.6500,3.8200,5.8700,-5.9400,-0.5781,-0.9937,-1.1454,8.7500,-34.1875,16.1875,266.0000,18.1250,-125.6875,0
156.296,8.5569,1.5012,-0.1149,0.2510,0.5436,-0.2918,-44.5500,10.0500,-4.9500,8.7676,-0.1077,1.9345,-0.3552,-1.1730,-1.3997,-76.5000,31.5000,-31.6500,3.8200,5.8700,-5.9400,-0.5781,-0.9937,-1.1454,8.7500,-34.1875,16.1875,267.9375,17.2500,-125.5000,0
156.305,8.7197,1.6376,-0.5459,0.2188,0.3717,-0.2886,-44.5500,9.0000,-4.5000,9.1889,-0.6823,1.7382,-0.2521,-1.2036,-1.4218,-74.8500,31.5000,-32.4000,3.8600,4.9700,-6.5100,-0.5400,-1.2370,-0.9545,8.7500,-34.1875,16.1875,267.9375,17.2500,-125.5000,0
156.315,7.9009,1.4676,-0.6728,0.1817,0.4223,-0.2529,-44.5500,9.0000,-4.5000,9.3446,-0.7398,1.6855,-0.2896,-1.2193,-1.3939,-74.5500,31.8000,-31.6500,4.1700,5.0400,-7.2900,-0.5694,-1.3984,-0.7723,8.7500,-34.1875,16.1875,269.9375,16.4375,-125.3125,0
156.320,7.8338,1.4653,-0.5531,0.1140,0.5844,-0.2145,-44.1000,9.4500,-4.3500,9.5912,-1.0247,1.3288,-0.3986,-1.2449,-1.3267,-75.6000,31.5000,-33.7500,4.1700,5.0400,-7.2900,-0.5694,-1.3984,-0.7723,8.7500,-34.1875,16.1875,272.0000,15.6875,-125.1250,0
156.325,7.8338,1.4653,-0.5531,0.1140,0.5844,-0.2145,-44.1000,9.4500,-4.3500,9.3326,-1.0175,0.8308,-0.3986,-1.2449,-1.3267,-75.6000,31.5000,-33.7500,4.8100,4.7600,-8.0300,-0.5552,-1.5588,-0.5836,12.5000,-32.5625,15.2500,272.0000,15.6875,-125.1250,0
156.330,7.9128,1.6113,-0.0311,-0.0213,0.6638,-0.1511,-46.8000,10.5000,-3.4500,9.3326,-1.0175,0.8308,-0.4860,-1.2327,-1.2247,-75.6000,31.5000,-33.7500,4.8100,4.7600,-8.0300,-0.5552,-1.5588,-0.5836,12.5000,-32.5625,15.2500,274.0625,15.0000,-125.1250,0
156.335,7.9128,1.6113,-0.0311,-0.0213,0.6638,-0.1511,-46.8000,10.5000,-3.4500,9.2081,-1.6041,0.2825,-0.4860,-1.2327,-1.2247,-75.6000,31.5000,-33.7500,5.3800,4.8300,-8.3600,-0.4036,-1.7835,-0.3120,12.5000,-32.5625,15.2500,274.0625,15.0000,-125.1250,0
156.340,8.1570,1.8148,0.4980,-0.1010,0.6238,-0.1418,-44.4000,10.2000,-3.6000,9.2081,-1.6041,0.2825,-0.5116,-1.1895,-1.1479,-73.6500,33.6000,-32.1000,5.3800,4.8300,-8.3600,-0.1298,-1.9395,0.0120,12.5000,-32.5625,15.2500,276.0000,14.3750,-125.2500,0
156.346,8.1570,1.8148,0.4980,-0.1010,0.6238,-0.1418,-44.4000,10.2000,-3.6000,9.1554,-2.1356,0.3496,-0.4951,-1.1554,-1.1053,-73.6500,33.6000,-32.1000,5.5200,4.4700,-8.1400,-0.1298,-1.9395,0.0120,12.5000,-32.5625,15.2500,277.8125,13.8750,-125.6250,0
156.355,8.5784,2.2697,0.4310,-0.0930,0.6403,-0.0514,-44.5500,10.0500,-4.2000,9.0381,-2.1620,0.2274,-0.6153,-1.0973,-1.0832,-72.6000,33.4500,-34.2000,5.5700,4.1000,-7.8100,0.1680,-2.0791,0.3436,12.5000,-32.5625,15.2500,277.8125,13.8750,-125.6250,0
156.365,8.8633,2.4684,-0.1197,0.0208,0.7765,0.0384,-45.9000,9.1500,-3.3000,9.2560,-1.9800,0.4860,-0.7493,-1.0384,-1.0619,-73.6500,32.8500,-34.0500,5.8000,3.7600,-7.5300,0.3425,-2.1686,0.6709,12.5000,-32.5625,15.2500,279.5625,13.4375,-126.1250,0
156.370,9.2344,2.6576,-0.2490,0.1729,0.8847,0.0949,-45.9000,9.1500,-3.3000,9.2560,-1.9800,0.4860,-0.7493,-1.0384,-1.0619,-73.6500,32.8500,-34.0500,5.8000,3.7600,-7.5300,0.3425,-2.1686,0.6709,12.5000,-32.5625,15.2500,279.5625,13.4375,-126.1250,0
156.375,9.2344,2.6576,-0.2490,0.1729,0.8847,0.0949,-45.9000,9.1500,-3.3000,9.4236,-1.5275,0.6488,-0.8223,-1.0110,-1.0176,-72.3000,35.7000,-34.9500,6.4200,4.6500,-8.1600,0.4058,-2.2384,1.0057,14.0000,-32.0000,12.2500,281.1875,13.1875,-126.6250,0
156.380,9.2488,2.6815,-0.7087,0.2097,0.9403,0.1188,-45.1500,10.2000,-3.6000,9.4236,-1.5275,0.6488,-0.8223,-1.0110,-1.0176,-70.9500,35.1000,-34.9500,6.4200,4.6500,-8.1600,0.4058,-2.2384,1.0057,14.0000,-32.0000,12.2500,281.1875,13.1875,-126.6250,0
156.385,9.2488,2.6815,-0.7087,0.2097,0.9403,0.1188,-45.1500,10.2000,-3.6000,9.5529,-1.3431,0.1413,-0.8455,-0.9132,-0.9435,-70.9500,35.1000,-34.8000,7.4600,5.2400,-8.8400,0.4112,-2.2569,1.2261,14.0000,-32.0000,12.2500,282.7500,12.9375,-127.1875,0
156.391,9.5074,2.0901,-1.1013,0.1122,0.8207,0.1282,-45.0000,9.3000,-2.8500,9.5529,-1.3431,0.1413,-0.8455,-0.9132,-0.9435,-71.8500,35.4000,-34.9500,8.1800,2.9500,-8.6800,0.4723,-2.4238,1.3101,14.0000,-32.0000,12.2500,284.4375,12.7500,-127.8125,0
156.396,9.3494,2.1931,-1.6831,0.1338,0.5716,0.1551,-44.8500,9.4500,-3.3000,9.4691,-1.3096,-0.4764,-0.7775,-0.7773,-0.8599,-71.8500,35.4000,-34.9500,8.1800,2.9500,-8.6800,0.4723,-2.4238,1.3101,14.0000,-32.0000,12.2500,286.6250,12.3125,-128.6875,0
156.405,9.3494,2.1931,-1.6831,0.1338,0.5716,0.1551,-44.8500,9.4500,-3.3000,9.4284,-1.4700,-0.9290,-0.6531,-0.6233,-0.7464,-71.8500,35.4000,-34.9500,7.1000,4.1100,-7.2100,0.8159,-3.0325,1.4028,14.0000,-32.0000,12.2500,286.6250,12.3125,-128.6875,0
156.415,9.5098,3.2250,-2.2769,0.1034,0.7392,0.2092,-45.4500,10.9500,-3.0000,9.3158,-1.8459,-0.9792,-0.5047,-0.4978,-0.6227,-70.5000,36.7500,-35.5500,7.5400,3.2600,-6.1700,0.8803,-3.1089,1.6144,14.0000,-32.0000,12.2500,288.8750,11.8750,-129.5625,0
156.420,9.5098,3.2250,-2.2769,0.1034,0.7392,0.2092,-45.4500,10.9500,-3.0000,9.3158,-1.8459,-0.9792,-0.5047,-0.4978,-0.6227,-70.5000,36.7500,-35.5500,7.5400,3.2600,-6.1700,0.8803,-3.1089,1.6144,14.0000,-32.0000,12.2500,288.8750,11.8750,-129.5625,0
156.425,9.7157,3.8906,-2.8635,0.1279,0.6928,0.2214,-45.4500,10.9500,-3.0000,9.0764,-1.5754,-1.6927,-0.5990,-0.3933,-0.4378,-70.5000,36.7500,-35.5500,8.4200,3.6700,-6.4000,0.9545,-2.8634,1.9122,14.8750,-32.0625,12.1875,290.7500,11.6875,-130.5000,0
156.430,9.7157,3.8906,-2.8635,0.1279,0.6928,0.2214,-45.4500,10.9500,-3.0000,9.0764,-1.5754,-1.6927,-0.5990,-0.3933,-0.4378,-70.5000,36.7500,-35.5500,8.4200,3.6700,-6.4000,0.9545,-2.8634,1.9122,14.8750,-32.0625,12.1875,290.7500,11.6875,-130.5000,0
156.435,10.4866,4.3814,-4.0917,0.1855,0.7386,0.2222,-45.4500,10.9500,-3.0000,10.1490,-0.9601,-2.4684,-0.7037,-0.2006,-0.1553,-70.3500,35.7000,-36.0000,7.5800,-2.9200,-2.5300,1.2763,-2.4773,2.1577,14.8750,-32.0625,12.1875,292.0000,11.6875,-131.5625,0
156.440,10.4866,4.3814,-4.0917,0.1855,0.7386,0.2222,-46.9500,9.4500,-3.6000,10.1490,-0.9601,-2.4684,-0.7037,-0.2006,-0.1553,-70.3500,35.7000,-36.0000,7.5800,-2.9200,-2.5300,2.2853,-0.5803,2.6954,14.8750,-32.0625,12.1875,290.4375,12.5625,-133.1250,0
156.446,12.5600,5.3774,-5.8610,0.6190,0.7099,0.2196,-45.1500,9.9000,-3.0000,10.1658,-0.6416,2.5355,0.0314,0.3544,0.2846,-70.0500,38.1000,-37.2000,14.9800,-3.3400,-0.0600,2.2853,-0.5803,2.6954,14.8750,-32.0625,12.1875,285.4375,14.7500,-134.0000,0
156.455,14.2216,8.2887,-7.4603,1.0078,0.3946,0.1343,-46.0500,10.8000,-2.8500,11.2001,0.2801,1.6712,0.3986,0.7709,0.5950,-69.4500,38.2500,-36.1500,22.5100,-19.4300,0.0900,1.4672,2.1391,3.3608,14.8750,-32.0625,12.1875,285.4375,14.7500,-134.0000,0
156.465,14.3317,8.6910,-3.7661,0.6001,0.2318,0.0698,-46.6500,9.1500,-3.6000,14.0707,2.5522,-5.4995,0.2571,0.7493,0.4903,-70.2000,37.0500,-36.1500,2.4100,20.0100,-19.9600,1.0505,2.5591,4.4091,14.8750,-32.0625,12.1875,279.5000,17.5000,-134.8125,0
156.470,14.3317,8.6910,-3.7661,0.6001,0.2318,0.0698,-46.6500,9.1500,-3.6000,13.7475,1.8148,-6.9432,0.9041,0.7613,0.0677,-70.2000,37.0500,-36.1500,2.4100,20.0100,-19.9600,1.0505,2.5591,4.4091,14.8750,-32.0625,12.1875,274.6875,19.1250,-137.5000,0
156.475,11.7531,4.7214,-0.9577,0.1212,0.5457,0.1202,-46.6500,9.1500,-3.6000,13.7475,1.8148,-6.9432,0.9041,0.7613,0.0677,-70.3500,37.3500,-34.9500,4.7100,1.7700,-18.7700,4.0404,0.3534,3.8954,13.5000,-32.5000,12.5000,274.6875,19.1250,-137.5000,0
156.480,11.7531,4.7214,-0.9577,0.1212,0.5457,0.1202,-46.6500,9.1500,-3.6000,11.4922,-0.3304,-2.6073,1.6574,0.7506,-0.2094,-70.3500,37.3500,-34.9500,4.7100,1.7700,-18.7700,4.0404,0.3534,3.8954,13.5000,-32.5000,12.5000,274.6875,19.1250,-137.5000,0
156.485,9.3518,0.6800,-1.5562,0.2697,0.6808,0.0360,-45.9000,9.1500,-3.0000,11.4922,-0.3304,-2.6073,1.6574,0.7506,-0.2094,-71.8500,37.3500,-35.2500,-0.3700,7.2300,-15.7200,2.9747,-0.4811,3.3412,13.5000,-32.5000,12.5000,150.8125,20.1250,-139.7500,0
156.491,9.3518,0.6800,-1.5562,0.2697,0.6808,0.0360,-45.9000,9.1500,-3.0000,9.0261,-1.4174,0.6919,1.4919,0.8354,-0.3011,-71.8500,37.3500,-35.2500,-5.5800,7.8700,-4.7300,1.9177,-0.9479,3.1940,13.5000,-32.5000,12.5000,152.5000,20.8750,-141.4375,0
156.496,9.0309,-0.7757,-1.4078,0.8346,0.8183,0.1002,-47.1000,9.3000,-3.9000,9.0261,-1.4174,0.6919,1.4919,0.8354,-0.3011,-71.8500,37.3500,-35.2500,-5.5800,7.8700,-4.7300,1.9177,-0.9479,3.1940,13.5000,-32.5000,12.5000,153.7500,22.1250,-142.7500,0
156.505,9.5217,1.1923,-1.1995,1.2308,0.8124,0.1807,-47.5500,8.2500,-2.4000,7.4555,0.9122,1.0894,0.9113,0.8857,-0.0826,-72.4500,37.0500,-36.1500,14.4900,17.2600,-3.4300,1.7104,0.6916,2.7969,13.5000,-32.5000,12.5000,153.7500,22.1250,-142.7500,0
156.515,8.7676,4.1348,0.0622,1.0003,0.6640,0.1561,-45.7500,9.3000,-2.1000,8.6311,3.1603,0.2993,0.7213,0.8815,0.1732,-73.2000,36.7500,-35.1000,5.2200,9.3600,-4.9200,1.7868,0.3632,1.1388,13.5000,-32.5000,12.5000,154.1250,22.6250,-143.9375,0
156.520,8.7676,4.1348,0.0622,1.0003,0.6640,0.1561,-45.7500,9.3000,-2.1000,9.7372,3.3351,0.7015,1.1037,0.9723,0.2811,-73.2000,36.7500,-35.1000,5.2200,9.3600,-4.9200,1.7868,0.3632,1.1388,13.5000,-32.5000,12.5000,154.1250,22.6250,-143.9375,0
156.525,8.2552,4.6328,1.8675,0.8295,0.6121,0.1543,-47.1000,7.5000,-3.9000,9.7372,3.3351,0.7015,1.1037,0.9723,0.2811,-71.7000,37.5000,-35.5500,3.1000,1.2100,-10.5500,1.7639,0.5607,0.2771,7.1875,-32.5000,15.6875,153.9375,23.0000,-144.8750,0
156.530,8.2552,4.6328,1.8675,0.8295,0.6121,0.1543,-47.1000,7.5000,-3.9000,10.2137,1.4269,2.3918,1.1037,1.0288,0.2475,-71.7000,37.5000,-35.5500,3.1000,1.2100,-10.5500,1.7639,0.5607,0.2771,7.1875,-32.5000,15.6875,153.9375,23.0000,-144.8750,0
156.535,8.6694,3.2298,2.1691,0.9278,0.5931,0.1516,-47.1000,7.5000,-3.9000,10.2137,1.4269,2.3918,1.1037,1.0288,0.2475,-72.4500,37.5000,-34.8000,3.7400,3.9700,-8.9100,1.5555,0.1505,0.4734,7.1875,-32.5000,15.6875,154.0000,23.1875,-145.8125,0
156.540,8.6694,3.2298,2.1691,0.9278,0.5931,0.1516,-47.1000,7.5000,-3.9000,10.2280,-1.0151,2.0758,0.7093,1.0539,0.2382,-72.4500,37.5000,-34.8000,3.7400,3.9700,-8.9100,1.2992,-0.1953,0.5890,7.1875,-32.5000,15.6875,154.1875,23.3125,-146.6875,0
156.546,9.2656,2.0279,2.4062,1.2497,0.5457,0.1825,-47.1000,7.8000,-4.2000,10.6279,-2.3894,1.2186,0.7093,1.0539,0.2382,-71.2500,36.3000,-36.1500,5.1100,6.9800,-6.8000,1.2992,-0.1953,0.5890,7.1875,-32.5000,15.6875,154.1875,23.3750,-147.3750,0
156.555,9.6367,1.0750,2.9688,1.3939,0.5412,0.2398,-46.0500,7.5000,-1.6500,10.6734,-1.5443,1.5419,0.1151,0.9638,0.2305,-71.7000,36.3000,-35.1000,5.2400,5.3300,-7.2700,1.1214,-0.0774,0.2793,7.1875,-32.5000,15.6875,154.1875,23.3750,-147.3750,0
156.565,9.7348,-0.4238,2.5833,1.1786,0.6592,0.3014,-48.3000,7.8000,-4.9500,10.1347,0.1389,1.9225,-0.4061,0.7514,0.1540,-71.7000,36.3000,-35.1000,3.8300,3.8400,-8.5700,0.9992,0.0382,-0.0076,7.1875,-32.5000,15.6875,154.0625,23.3750,-147.9375,0
156.570,9.7875,-0.9194,1.9537,0.9606,0.6331,0.3765,-48.3000,7.8000,-4.9500,10.1347,0.1389,1.9225,-0.6408,0.5809,0.1290,-71.7000,36.3000,-35.1000,3.8300,3.8400,-8.5700,0.9992,0.0382,-0.0076,7.1875,-32.5000,15.6875,154.0625,23.3750,-147.9375,0
156.575,9.7875,-0.9194,1.9537,0.9606,0.6331,0.3765,-46.5000,7.5000,-2.1000,9.7013,0.8978,1.6233,-0.6408,0.5809,0.1290,-72.3000,36.9000,-37.5000,3.3500,5.2600,-7.8900,0.9338,-0.0458,-0.0371,5.3750,-31.8750,18.5625,153.9375,23.3125,-148.4375,0
156.580,9.5313,-0.5578,1.5826,0.8266,0.6171,0.4282,-46.5000,7.5000,-2.1000,9.7013,0.8978,1.6233,-0.4839,0.5151,0.1732,-72.3000,36.9000,-37.5000,3.3500,5.2600,-7.8900,0.9338,-0.0458,-0.0371,5.3750,-31.8750,18.5625,153.9375,23.3125,-148.4375,0
156.585,9.5313,-0.5578,1.5826,0.8266,0.6171,0.4282,-46.5000,7.5000,-2.1000,9.9216,0.5794,1.2450,-0.1785,0.5415,0.2204,-72.3000,36.9000,-37.5000,3.9300,5.1800,-7.6400,0.8945,-0.1113,-0.0513,5.3750,-31.8750,18.5625,153.8125,23.2500,-148.9375,0
156.592,9.8952,-0.4381,1.3982,0.6749,0.6568,0.4802,-46.5000,7.5000,-2.1000,9.9216,0.5794,1.2450,-0.1785,0.5415,0.2204,-72.3000,36.9000,-37.5000,4.6300,3.4300,-7.9700,0.8487,-0.0785,-0.0884,5.3750,-31.8750,18.5625,153.6875,23.1875,-149.3750,0
156.597,9.8952,-0.4381,1.3982,0.6749,0.6568,0.4802,-46.5000,7.5000,-2.1000,10.4627,0.3831,0.8236,0.0450,0.5569,0.2044,-73.2000,36.7500,-35.5500,4.6300,3.4300,-7.9700,0.8487,-0.0785,-0.0884,5.3750,-31.8750,18.5625,153.5625,23.1250,-149.7500,0
156.605,10.3597,-0.2538,1.3312,0.5713,0.5809,0.5135,-46.5000,8.2500,-2.8500,10.3837,0.6201,1.1612,0.3094,0.5428,0.1002,-70.8000,35.7000,-34.5000,3.7200,3.3000,-8.4400,0.7090,-0.0894,-0.1047,5.3750,-31.8750,18.5625,153.5625,23.1250,-149.7500,0
156.615,10.5105,-0.2203,1.3264,0.4517,0.5383,0.5127,-48.3000,9.3000,-1.6500,10.0317,0.7877,1.5538,0.6424,0.5191,-0.0208,-73.8000,36.1500,-34.2000,3.6000,3.8600,-8.2500,0.5421,-0.0611,-0.0731,5.3750,-31.8750,18.5625,153.4375,23.0625,-150.0625,0
156.620,10.6446,-0.5578,1.0415,0.3653,0.5817,0.4876,-48.3000,9.3000,-1.6500,10.0317,0.7877,1.5538,0.6424,0.5191,-0.0208,-73.8000,36.1500,-34.2000,3.6000,3.8600,-8.2500,0.5421,-0.0611,-0.0731,5.3750,-31.8750,18.5625,153.3750,23.0625,-150.3125,0
156.625,10.6446,-0.5578,1.0415,0.3653,0.5817,0.4876,-47.7000,8.4000,-4.3500,9.9551,0.4453,1.7741,0.9425,0.4874,-0.0946,-73.8000,36.1500,-34.2000,3.8500,3.8700,-8.3300,0.4385,-0.0295,-0.0709,4.1875,-30.2500,20.1875,153.3750,23.0625,-150.3125,0
156.630,10.2161,-0.6081,1.0774,0.3259,0.5273,0.4940,-47.7000,8.4000,-4.3500,9.9551,0.4453,1.7741,0.9425,0.4874,-0.0946,-73.8000,36.1500,-34.2000,3.8500,3.8700,-8.3300,0.4385,-0.0295,-0.0709,4.1875,-30.2500,20.1875,153.3125,23.0000,-150.5000,0
156.635,10.2161,-0.6081,1.0774,0.3259,0.5273,0.4940,-47.4000,6.4500,-2.2500,10.0533,-0.3831,1.6879,0.9393,0.4554,-0.1034,-73.6500,36.3000,-33.6000,3.9400,3.8900,-8.1600,0.3512,-0.0360,-0.0578,4.1875,-30.2500,20.1875,153.3125,23.0000,-150.5000,0
156.640,10.0580,0.0622,1.5131,0.2425,0.5761,0.5033,-47.4000,6.4500,-2.2500,10.0533,-0.3831,1.6879,0.9393,0.4554,-0.1034,-73.6500,36.3000,-33.6000,3.9400,3.8900,-8.1600,0.2934,-0.0382,-0.0502,4.1875,-30.2500,20.1875,153.2500,23.0000,-150.6250,0
156.646,10.0580,0.0622,1.5131,0.2425,0.5761,0.5033,-47.4000,6.4500,-2.2500,10.3142,-1.2019,1.2929,0.6638,0.3877,-0.0789,-73.6500,36.7500,-34.8000,3.9500,3.7300,-8.2100,0.2934,-0.0382,-0.0502,4.1875,-30.2500,20.1875,153.1875,22.9375,-150.7500,0
156.655,9.6558,0.6369,1.5802,0.1631,0.5868,0.5044,-48.9000,7.5000,-2.8500,10.0916,-1.1732,1.2522,0.3054,0.3024,-0.0871,-73.6500,36.7500,-34.8000,3.8500,3.8700,-8.1700,0.2400,-0.0458,-0.0393,4.1875,-30.2500,20.1875,153.1875,22.9375,-150.7500,0
156.661,10.0221,0.9098,1.4461,0.0917,0.6238,0.5145,-48.9000,7.5000,-2.8500,10.0916,-1.1732,1.2522,0.3054,0.3024,-0.0871,-73.6500,36.7500,-34.8000,3.8500,3.8700,-8.1700,0.1985,-0.0611,-0.0360,4.1875,-30.2500,20.1875,153.1875,22.9375,-150.9375,0
156.666,9.8019,1.5538,1.4868,0.1007,0.6475,0.5319,-48.9000,7.5000,-3.1500,9.9575,-0.5052,1.2330,-0.1164,0.2390,-0.0847,-74.4000,35.1000,-33.6000,3.8000,4.0100,-8.1100,0.1985,-0.0611,-0.0360,4.1875,-30.2500,20.1875,153.1875,22.9375,-150.9375,0
156.671,9.8019,1.5538,1.4868,0.1007,0.6475,0.5319,-48.4500,8.7000,-1.9500,9.8306,0.6129,1.1564,-0.1164,0.2390,-0.0847,-74.4000,35.1000,-33.6000,3.8400,3.9900,-8.1200,0.1505,-0.0720,-0.0371,6.0000,-30.2500,21.0000,153.1875,22.8750,-151.0625,0
156.676,9.6606,2.0758,1.9441,0.1916,0.6019,0.5244,-48.4500,8.7000,-1.9500,9.8306,0.6129,1.1564,-0.4138,0.1857,-0.0637,-74.5500,35.7000,-34.5000,3.8400,3.9900,-8.1200,0.1505,-0.0720,-0.0371,6.0000,-30.2500,21.0000,153.1875,22.8750,-151.0625,0
156.681,9.6606,2.0758,1.9441,0.1916,0.6019,0.5244,-49.2000,8.4000,-3.0000,9.7827,1.7813,0.9744,-0.4138,0.1857,-0.0637,-74.5500,35.7000,-34.5000,3.8400,3.9900,-8.1200,0.1505,-0.0720,-0.0371,6.0000,-30.2500,21.0000,153.1250,22.8125,-151.1875,0
156.686,9.7348,2.4708,2.1141,0.1951,0.6710,0.5188,-49.2000,8.4000,-3.0000,9.7827,1.7813,0.9744,-0.4053,0.1673,-0.0602,-73.8000,35.7000,-33.4500,3.6100,4.1800,-8.0800,0.1069,-0.0774,-0.0382,6.0000,-30.2500,21.0000,153.1250,22.8125,-151.1875,0
156.691,9.7348,2.4708,2.1141,0.1951,0.6710,0.5188,-49.2000,8.4000,-3.0000,9.7348,2.4660,0.8475,-0.1943,0.1708,-0.0786,-73.8000,35.7000,-33.4500,3.6100,4.1800,-8.0800,0.0764,-0.0742,-0.0316,6.0000,-30.2500,21.0000,153.1250,22.7500,-151.2500,0
156.696,9.5529,2.5570,2.1883,0.2422,0.6233,0.4863,-49.2000,8.4000,-3.0000,9.7348,2.4660,0.8475,-0.1943,0.1708,-0.0786,-74.1000,35.7000,-34.5000,3.7100,4.2000,-8.1400,0.0764,-0.0742,-0.0316,6.0000,-30.2500,21.0000,153.1250,22.7500,-151.2500,0
156.706,9.4978,2.5738,2.0423,0.2926,0.5830,0.4514,-49.2000,8.4000,-3.0000,9.7899,2.7461,0.5555,0.0490,0.2009,-0.0805,-74.4000,36.3000,-35.1000,3.7200,4.1600,-8.1600,0.0480,-0.0709,-0.0295,6.0000,-30.2500,21.0000,153.1250,22.7500,-151.2500,0
156.715,9.4020,2.4181,1.7334,0.3224,0.5684,0.4295,-48.4500,7.2000,-2.5500,9.7181,2.4229,0.5219,0.3059,0.2361,-0.0741,-73.3500,36.1500,-34.9500,3.7600,4.2600,-8.0700,0.0273,-0.0709,-0.0240,6.0000,-30.2500,21.0000,153.1250,22.6875,-151.2500,0
156.720,9.4020,2.4181,1.7334,0.3224,0.5684,0.4295,-48.7500,8.4000,-3.0000,9.8186,1.9321,0.5890,0.4290,0.2356,-0.0693,-73.3500,36.1500,-34.9500,3.7600,4.2600,-8.0700,0.0273,-0.0709,-0.0240,6.0000,-30.2500,21.0000,152.1250,22.6250,-151.3125,0
156.726,9.5026,2.4660,1.5945,0.3704,0.5377,0.4032,-48.7500,8.4000,-3.0000,9.8186,1.9321,0.5890,0.4290,0.2356,-0.0693,-73.3500,36.1500,-34.9500,3.6500,4.2400,-8.1000,0.0404,-0.0764,-0.0240,4.8750,-30.2500,21.3750,152.1250,22.6250,-151.3125,0
156.733,9.5026,2.4660,1.5945,0.3704,0.5377,0.4032,-48.9000,7.5000,-2.1000,9.6534,1.4581,0.5602,0.3962,0.2321,-0.0437,-73.3500,36.1500,-34.9500,3.6600,4.1800,-8.1300,0.0044,-0.0480,-0.0273,4.8750,-30.2500,21.3750,152.1250,22.6250,-151.3125,0
156.738,9.3087,2.5091,1.5562,0.3901,0.5199,0.3869,-48.9000,7.5000,-2.1000,9.5385,1.1947,0.3735,0.3962,0.2321,-0.0437,-74.4000,34.0500,-32.5500,3.6600,4.1800,-8.1300,0.0044,-0.0480,-0.0273,4.8750,-30.2500,21.3750,152.1250,22.5625,-151.3125,0
156.746,9.4188,2.2649,1.4772,0.3781,0.5279,0.3563,-48.9000,9.0000,-4.2000,9.5385,1.1947,0.3735,0.2617,0.2081,-0.0200,-74.4000,34.0500,-32.5500,3.6400,4.2300,-8.0900,-0.0295,-0.0262,-0.0273,4.8750,-30.2500,21.3750,152.1250,22.5625,-151.3125,0
156.755,9.4236,2.0470,1.2809,0.3379,0.5236,0.3341,-48.9000,9.0000,-4.2000,9.5648,1.0463,0.1293,0.0895,0.2044,0.0024,-74.1000,34.9500,-33.0000,3.6300,4.2200,-8.0400,-0.0371,-0.0262,-0.0251,4.8750,-30.2500,21.3750,152.1250,22.5625,-151.3125,0
156.760,9.4236,2.0470,1.2809,0.3379,0.5236,0.3341,-48.9000,9.0000,-2.1000,9.6654,1.5107,0.1437,-0.0584,0.1897,0.0352,-74.1000,34.9500,-33.0000,3.6300,4.2200,-8.0400,-0.0513,-0.0218,-0.0240,4.8750,-30.2500,21.3750,152.1250,22.5000,-151.2500,0
156.767,9.5098,1.8148,1.0487,0.2270,0.5329,0.3107,-48.9000,9.0000,-2.1000,9.6199,1.7980,0.0287,-0.0584,0.1897,0.0352,-73.9500,36.0000,-33.6000,3.6200,4.2400,-8.0600,-0.0513,-0.0218,-0.0240,4.8750,-30.2500,21.3750,152.1250,22.5000,-151.2500,0
156.771,9.5098,1.8148,1.0487,0.2270,0.5329,0.3107,-50.4000,9.3000,-2.1000,9.6199,1.7980,0.0287,-0.1231,0.1911,0.0594,-73.9500,36.0000,-33.6000,3.6200,4.2400,-8.0600,-0.0665,-0.0098,-0.0273,5.5625,-30.0000,21.7500,151.1250,22.5000,-151.2500,0
156.776,9.4284,1.5443,0.9625,0.0935,0.5425,0.2947,-50.4000,9.3000,-2.1000,9.5074,1.9082,0.0263,-0.1231,0.1911,0.0594,-73.8000,36.1500,-33.7500,3.6000,4.2100,-8.0700,-0.0665,-0.0098,-0.0273,5.5625,-30.0000,21.7500,151.1250,22.5000,-151.2500,0
156.781,9.4284,1.5443,0.9625,0.0935,0.5425,0.2947,-49.5000,9.4500,-1.5000,9.5074,1.9082,0.0263,-0.0717,0.2102,0.0544,-73.8000,36.1500,-33.7500,3.6000,4.2100,-8.0700,-0.0731,-0.0044,-0.0229,5.5625,-30.0000,21.7500,151.1250,22.5000,-151.1875,0
156.786,9.4355,1.1588,0.9457,-0.0861,0.5204,0.2734,-49.5000,9.4500,-1.5000,9.4786,2.0997,0.1101,-0.0717,0.2102,0.0544,-74.4000,36.3000,-34.3500,3.5600,4.3000,-8.0100,-0.0731,-0.0044,-0.0229,5.5625,-30.0000,21.7500,151.1250,22.5000,-151.1875,0
156.791,9.4355,1.1588,0.9457,-0.0861,0.5204,0.2734,-48.7500,8.7000,-2.5500,9.4786,2.0997,0.1101,-0.0011,0.2220,0.0562,-74.4000,36.3000,-34.3500,3.5600,4.3000,-8.0100,-0.0720,0.0000,-0.0207,5.5625,-30.0000,21.7500,151.1250,22.5000,-151.1250,0
156.797,9.5505,0.8188,0.8739,-0.2995,0.5031,0.2667,-48.7500,8.7000,-2.5500,9.4571,1.8771,0.0287,0.0333,0.2233,0.0711,-74.4000,36.3000,-34.3500,3.5600,4.3300,-8.0100,-0.0720,0.0000,-0.0207,5.5625,-30.0000,21.7500,151.1250,22.5000,-151.1250,0
156.806,9.4763,0.7159,0.8212,-0.4748,0.4343,0.2723,-50.2500,9.4500,-1.9500,8.9304,1.3862,-0.1939,0.0333,0.2233,0.0711,-74.5500,36.1500,-33.4500,3.6200,4.2200,-8.0200,-0.0633,-0.0044,-0.0164,5.5625,-30.0000,21.7500,151.1250,22.5000,-151.1250,0
156.811,9.4763,0.7159,0.8212,-0.4748,0.4343,0.2723,-50.2500,9.4500,-1.9500,8.9304,1.3862,-0.1939,-0.0613,0.2848,0.1026,-74.5500,36.1500,-33.4500,3.6200,4.2200,-8.0200,-0.0545,-0.0055,-0.0098,5.5625,-30.0000,21.7500,151.1250,22.5000,-151.0625,0
156.817,9.0094,0.8619,1.1660,-0.6131,0.4575,0.2521,-50.2500,9.4500,-1.9500,9.1267,1.7310,0.2610,-0.0341,0.2430,0.1037,-74.5500,36.1500,-33.4500,3.6400,4.2500,-7.9800,-0.0545,-0.0055,-0.0098,5.5625,-30.0000,21.7500,151.1250,22.5000,-151.0625,0
156.822,9.7755,1.0439,1.0558,-0.7871,0.1913,0.2313,-51.4500,8.2500,-0.3000,9.1267,1.7310,0.2610,-0.0341,0.2430,0.1037,-74.5500,36.1500,-33.4500,3.6400,4.2500,-7.9800,-0.0415,-0.0131,-0.0109,6.0000,-30.0000,19.7500,150.3125,22.4375,-151.0625,0
156.827,9.7755,1.0439,1.0558,-0.7871,0.1913,0.2313,-51.4500,8.2500,-0.3000,8.6814,0.9673,0.8787,-0.0933,0.2761,0.1183,-73.3500,35.4000,-32.7000,3.6200,4.2700,-7.9900,-0.0415,-0.0131,-0.0109,6.0000,-30.0000,19.7500,150.3125,22.4375,-151.0625,0
156.832,8.6886,1.3384,1.4437,-0.7807,0.1071,0.2054,-49.2000,9.1500,-0.4500,8.6814,0.9673,0.8787,-0.0933,0.2761,0.1183,-73.3500,35.4000,-32.7000,3.6200,4.2700,-7.9900,-0.0251,-0.0207,-0.0065,6.0000,-30.0000,19.7500,150.3125,22.4375,-151.0625,0
156.837,8.6886,1.3384,1.4437,-0.7807,0.1071,0.2054,-49.2000,9.1500,-0.4500,9.4451,1.4222,0.3926,-0.1785,0.2364,0.1330,-74.5500,34.2000,-33.4500,3.6200,4.4100,-7.9500,-0.0251,-0.0207,-0.0065,6.0000,-30.0000,19.7500,150.3125,22.4375,-151.0625,0
156.841,9.1578,1.5012,1.3623,-0.9854,0.2691,0.1772,-49.5000,9.9000,-0.4500,9.4451,1.4222,0.3926,-0.1785,0.2364,0.1330,-74.5500,34.2000,-33.4500,3.6200,4.4100,-7.9500,0.0000,-0.0393,-0.0022,6.0000,-30.0000,19.7500,150.3750,22.4375,-151.0625,0
156.847,9.1578,1.5012,1.3623,-0.9854,0.2691,0.1772,-49.5000,9.9000,-0.4500,9.0908,1.3623,0.0359,-0.3099,0.2563,0.1519,-73.6500,34.8000,-34.8000,3.6400,4.3600,-7.9400,0.0000,-0.0393,-0.0022,6.0000,-30.0000,19.7500,150.3750,22.4375,-151.0625,0
156.856,9.2703,1.6759,1.1756,-0.9489,0.3784,0.1649,-50.5500,9.4500,-1.5000,9.6007,1.5179,0.0479,-0.2918,0.2380,0.1564,-73.9500,34.8000,-32.5500,3.6100,4.3300,-7.9500,0.0229,-0.0556,-0.0033,6.0000,-30.0000,19.7500,150.3750,22.3750,-151.0625,0
156.862,9.6774,1.9752,1.0630,-0.8388,0.2486,0.1601,-50.5500,9.4500,-1.5000,9.6007,1.5179,0.0479,-0.2918,0.2380,0.1564,-73.9500,34.8000,-32.5500,3.5800,4.2800,-8.0000,0.0458,-0.0622,-0.0011,6.0000,-30.0000,19.7500,150.3750,22.3750,-151.1250,0
156.867,9.6774,1.9752,1.0630,-0.8388,0.2486,0.1601,-50.5500,9.4500,-1.5000,9.3757,1.6975,0.1221,-0.2675,0.2558,0.1679,-75.3000,34.5000,-33.0000,3.5800,4.2800,-8.0000,0.0458,-0.0622,-0.0011,6.0000,-30.0000,19.7500,150.3750,22.3750,-151.1250,0
156.872,9.3565,2.2003,1.4198,-0.7149,0.1559,0.1681,-50.5500,9.4500,-1.5000,9.3757,1.6975,0.1221,-0.2675,0.2558,0.1679,-75.3000,34.5000,-33.0000,3.5800,4.2800,-8.0000,0.0458,-0.0622,-0.0011,5.5625,-29.5625,21.0625,149.5000,22.3125,-151.1875,0
156.877,9.3565,2.2003,1.4198,-0.7149,0.1559,0.1681,-50.5500,9.4500,-1.5000,9.3541,1.5586,0.1413,-0.1863,0.2665,0.1593,-75.1500,34.3500,-32.8500,3.5800,4.2800,-8.0100,0.0665,-0.0709,-0.0011,5.5625,-29.5625,21.0625,149.5000,22.3125,-151.1875,0
156.881,9.3087,2.4229,1.3264,-0.5590,0.2382,0.1537,-49.2000,9.4500,-0.4500,9.3541,1.5586,0.1413,-0.1863,0.2665,0.1593,-75.1500,34.3500,-32.8500,3.5800,4.2800,-8.0100,0.0665,-0.0709,-0.0011,5.5625,-29.5625,21.0625,149.5000,22.3125,-151.2500,0
156.887,9.3087,2.4229,1.3264,-0.5590,0.2382,0.1537,-49.2000,9.4500,-0.4500,9.3613,1.5730,0.3400,-0.0925,0.2971,0.1545,-75.1500,34.3500,-32.8500,3.6000,4.2900,-8.0200,0.0873,-0.0894,0.0033,5.5625,-29.5625,21.0625,149.5000,22.3125,-151.2500,0
156.891,9.3374,2.4086,1.1349,-0.4607,0.1956,0.1577,-50.5500,7.9500,0.7500,9.2847,1.4964,0.2873,-0.0925,0.2971,0.1545,-75.1500,34.3500,-32.8500,3.6000,4.2900,-8.0200,0.1069,-0.1004,0.0044,5.5625,-29.5625,21.0625,149.5000,22.2500,-151.3125,0
156.897,9.3374,2.4086,1.1349,-0.4607,0.1956,0.1577,-50.5500,7.9500,0.7500,9.2847,1.4964,0.2873,-0.0661,0.3027,0.1553,-74.1000,35.4000,-32.4000,3.6000,4.3100,-8.0200,0.1069,-0.1004,0.0044,5.5625,-29.5625,21.0625,149.5000,22.2500,-151.3125,0
156.906,9.2153,2.2769,1.1684,-0.3168,0.2076,0.1569,-50.5500,9.9000,0.1500,10.0556,1.6161,0.3328,-0.0165,0.3269,0.1663,-74.1000,35.4000,-32.4000,3.6200,4.2900,-8.0200,0.1298,-0.1145,0.0033,5.5625,-29.5625,21.0625,149.5000,22.1875,-151.3750,0
156.910,10.8122,2.3655,0.9337,-0.0695,0.1932,0.1652,-50.2500,10.2000,0.7500,10.0556,1.6161,0.3328,-0.0165,0.3269,0.1663,-74.1000,35.4000,-32.4000,3.6200,4.2900,-8.0200,0.1484,-0.1287,0.0000,5.5625,-29.5625,21.0625,149.5000,22.1250,-151.5000,0
156.917,10.8122,2.3655,0.9337,-0.0695,0.1932,0.1652,-50.2500,10.2000,0.7500,9.4068,1.4341,0.4812,0.0120,0.3483,0.1684,-74.7000,36.0000,-31.8000,3.6400,4.2600,-8.0100,0.1484,-0.1287,0.0000,5.5625,-29.5625,21.0625,149.5000,22.1250,-151.5000,0
156.922,8.9208,2.2362,1.4341,-0.0949,0.5092,0.1708,-50.2500,10.2000,0.7500,9.5122,1.2091,0.5674,0.0077,0.3656,0.1668,-74.7000,36.0000,-31.8000,3.6400,4.2600,-8.0100,0.1680,-0.1385,-0.0055,5.5625,-29.1875,21.0625,148.7500,22.0625,-151.5625,0
156.927,8.9208,2.2362,1.4341,-0.0949,0.5092,0.1708,-49.6500,10.0500,0.3000,9.5122,1.2091,0.5674,0.0077,0.3656,0.1668,-73.2000,36.0000,-32.1000,3.5800,4.2600,-8.0400,0.1680,-0.1385,-0.0055,5.5625,-29.1875,21.0625,148.7500,22.0625,-151.5625,0
156.932,10.2639,2.0255,1.4269,0.0538,0.1911,0.1514,-49.6500,10.0500,0.3000,9.7947,1.0295,0.8116,0.0075,0.3869,0.1820,-73.2000,36.0000,-32.1000,3.5800,4.2600,-8.0400,0.1800,-0.1473,-0.0098,5.5625,-29.1875,21.0625,148.7500,21.9375,-151.6875,0
156.937,10.2639,2.0255,1.4269,0.0538,0.1911,0.1514,-49.6500,9.7500,1.3500,9.7947,1.0295,0.8116,0.0075,0.3869,0.1820,-74.1000,34.9500,-31.2000,3.5400,4.2800,-8.1200,0.1800,-0.1473,-0.0098,5.5625,-29.1875,21.0625,148.7500,21.9375,-151.6875,0
156.942,9.5002,1.9489,0.9984,0.0168,0.2755,0.1463,-49.6500,9.7500,1.3500,9.5768,1.0630,0.9122,-0.0125,0.3866,0.1791,-74.1000,34.9500,-31.2000,3.5400,4.2800,-8.1200,0.1811,-0.1462,-0.0142,5.5625,-29.1875,21.0625,148.6875,21.8750,-151.8125,0
156.947,9.1818,1.7286,1.3144,0.0480,0.2713,0.1543,-49.9500,9.1500,0.4500,9.5768,1.0630,0.9122,-0.0125,0.3866,0.1791,-74.1000,36.4500,-31.6500,3.5000,4.1800,-8.1700,0.1811,-0.1462,-0.0142,5.5625,-29.1875,21.0625,148.6875,21.8750,-151.8125,0
156.956,9.1818,1.7286,1.3144,0.0480,0.2713,0.1543,-51.7500,9.4500,0.4500,9.4763,1.1803,0.7207,0.0000,0.3784,0.1839,-74.1000,36.4500,-31.6500,3.5600,4.1400,-8.1500,0.1625,-0.1353,-0.0120,5.5625,-29.1875,21.0625,148.6875,21.8125,-151.9375,0
156.961,9.0261,1.7047,1.4940,0.1569,0.3312,0.1716,-51.7500,9.4500,0.4500,9.3853,1.1109,0.8547,0.0325,0.4064,0.1863,-74.1000,36.4500,-31.6500,3.5600,4.1400,-8.1500,0.1484,-0.1178,-0.0120,5.5625,-29.1875,21.0625,148.6875,21.7500,-152.0000,0
156.967,9.3709,1.7142,1.5682,0.1463,0.3000,0.1817,-50.4000,10.0500,0.6000,9.3853,1.1109,0.8547,0.0325,0.4064,0.1863,-75.3000,34.5000,-32.4000,3.5100,4.1800,-8.1300,0.1484,-0.1178,-0.0120,5.5625,-29.1875,21.0625,148.6875,21.7500,-152.0000,0
156.972,9.3709,1.7142,1.5682,0.1463,0.3000,0.1817,-50.4000,10.0500,0.6000,9.4499,1.1301,0.8906,0.0504,0.4037,0.1852,-75.3000,34.5000,-32.4000,3.5300,4.1800,-8.1100,0.1473,-0.1102,-0.0120,6.0000,-29.5625,22.2500,147.8750,21.6875,-152.1250,0
156.977,9.4691,1.6448,1.4964,0.1631,0.2723,0.1943,-50.4000,10.0500,0.6000,9.4499,1.1301,0.8906,0.0504,0.4037,0.1852,-75.3000,34.5000,-32.4000,3.5300,4.1800,-8.1100,0.1473,-0.1102,-0.0120,6.0000,-29.5625,22.2500,147.8750,21.6875,-152.1250,0
156.982,9.4691,1.6448,1.4964,0.1631,0.2723,0.1943,-50.4000,10.0500,0.6000,9.4810,1.0942,0.7685,0.0157,0.3949,0.1911,-75.3000,34.5000,-32.4000,3.5300,4.1800,-8.1100,0.1538,-0.1145,-0.0142,6.0000,-29.5625,22.2500,147.8750,21.6250,-152.1875,0
156.987,9.4451,1.5395,1.3791,0.1860,0.2284,0.1927,-50.5500,9.4500,1.9500,9.4810,1.0942,0.7685,0.0157,0.3949,0.1911,-74.1000,33.7500,-31.9500,3.4800,4.1500,-8.1300,0.1538,-0.1145,-0.0142,6.0000,-29.5625,22.2500,147.8750,21.6250,-152.1875,0
156.992,9.4451,1.5395,1.3791,0.1860,0.2284,0.1927,-50.5500,9.4500,1.9500,9.5026,1.1732,0.9481,0.0256,0.4050,0.2022,-74.1000,33.7500,-31.9500,3.4800,4.1500,-8.1300,0.1527,-0.1091,-0.0142,6.0000,-29.5625,22.2500,147.8125,21.5625,-152.3125,0
156.997,9.5888,1.3743,1.3312,0.1964,0.2377,0.1841,-49.2000,9.1500,0.7500,9.5026,1.1732,0.9481,0.0256,0.4050,0.2022,-75.6000,34.2000,-30.9000,3.4500,4.1800,-8.1200,0.1527,-0.1091,-0.0142,6.0000,-29.5625,22.2500,147.8125,21.5625,-152.3125,0
157.006,9.6175,1.1492,1.4126,0.1735,0.2835,0.1657,-52.6500,9.3000,0.6000,9.5648,1.1492,0.9266,-0.0272,0.4151,0.2081,-75.3000,35.4000,-30.9000,3.4700,4.1700,-8.2000,0.1527,-0.1145,-0.0120,6.0000,-29.5625,22.2500,147.8125,21.5000,-152.4375,0
157.011,9.6175,1.1492,1.4126,0.1735,0.2835,0.1657,-52.6500,9.3000,0.6000,9.6510,1.1301,0.9074,-0.0938,0.4266,0.2164,-75.3000,35.4000,-30.4500,3.4700,4.1700,-8.2000,0.1494,-0.1178,-0.0098,6.0000,-29.5625,22.2500,147.8125,21.4375,-152.5000,0
157.017,9.7612,1.0415,1.4748,0.1284,0.2561,0.1330,-50.2500,10.2000,1.5000,9.6702,1.1875,1.0247,-0.0938,0.4266,0.2164,-74.5500,33.4500,-30.4500,3.4500,4.1800,-8.1800,0.1494,-0.1178,-0.0098,6.0000,-29.5625,22.2500,147.8125,21.4375,-152.5000,0
157.022,9.7612,1.0415,1.4748,0.1284,0.2561,0.1330,-50.2500,10.2000,1.5000,9.6702,1.1875,1.0247,-0.1092,0.4261,0.2222,-74.5500,33.4500,-30.4500,3.4500,4.1800,-8.1800,0.1494,-0.1178,-0.0098,6.0000,-29.1875,22.2500,147.0625,21.3750,-152.6250,0
157.027,9.4930,1.0247,1.3958,0.0165,0.2233,0.1218,-50.2500,10.2000,1.5000,9.5505,1.0271,1.1564,-0.1092,0.4261,0.2222,-75.1500,34.0500,-31.0500,3.3500,4.2900,-8.1200,0.1473,-0.1178,-0.0076,6.0000,-29.1875,22.2500,147.0625,21.3750,-152.6250,0
157.032,9.4930,1.0247,1.3958,0.0165,0.2233,0.1218,-50.2500,10.2000,1.5000,9.5505,1.0271,1.1564,-0.0941,0.4274,0.2257,-75.1500,34.0500,-31.0500,3.3500,4.2900,-8.1200,0.1473,-0.1178,-0.0076,6.0000,-29.1875,22.2500,147.0625,21.3125,-152.6875,0
157.037,9.4427,0.8428,1.4605,-0.1146,0.2254,0.1242,-50.8500,9.3000,0.3000,9.4834,0.8260,1.2330,-0.1111,0.4261,0.2265,-73.8000,34.5000,-31.2000,3.4000,4.2500,-8.1700,0.1593,-0.1222,-0.0055,6.0000,-29.1875,22.2500,147.0625,21.3125,-152.6875,0
157.042,9.4427,0.8428,1.4605,-0.1146,0.2254,0.1242,-50.8500,9.3000,0.3000,9.4834,0.8260,1.2330,-0.1111,0.4261,0.2265,-73.8000,34.5000,-31.2000,3.4000,4.2500,-8.1700,0.1745,-0.1265,-0.0055,6.0000,-29.1875,22.2500,147.0625,21.2500,-152.8125,0
157.047,9.3853,0.8284,1.4940,-0.2148,0.2198,0.1340,-50.5500,9.4500,-0.1500,9.5768,0.5578,1.2186,-0.1279,0.4327,0.2356,-73.8000,34.5000,-31.2000,3.4500,4.1200,-8.2300,0.1745,-0.1265,-0.0055,6.0000,-29.1875,22.2500,147.0625,21.2500,-152.8125,0
157.056,9.4451,0.7805,1.3743,-0.3051,0.2204,0.1324,-52.0500,9.4500,1.9500,9.5577,0.5291,1.0989,-0.1812,0.4242,0.2417,-73.8000,34.5000,-31.2000,3.4400,4.1200,-8.2300,0.1778,-0.1254,0.0000,6.0000,-29.1875,22.2500,147.0625,21.1875,-152.9375,0
157.061,9.4451,0.7805,1.3743,-0.3051,0.2204,0.1324,-52.0500,9.4500,1.9500,9.5577,0.5291,1.0989,-0.1812,0.4242,0.2417,-75.4500,33.6000,-30.6000,3.4400,4.1200,-8.2300,0.1745,-0.1222,0.0033,6.0000,-29.1875,22.2500,147.0625,21.1250,-153.0000,0
157.067,9.6486,0.8212,1.2689,-0.3693,0.1809,0.1527,-51.0000,12.1500,0.7500,9.6127,0.6704,1.0032,-0.2180,0.4293,0.2491,-75.4500,33.6000,-30.6000,3.4500,4.0400,-8.2500,0.1745,-0.1222,0.0033,6.0000,-29.1875,22.2500,147.0625,21.1250,-153.0000,0
157.072,9.6486,0.8212,1.2689,-0.3693,0.1809,0.1527,-51.0000,12.1500,0.7500,9.6127,0.6704,1.0032,-0.2180,0.4293,0.2491,-75.4500,33.6000,-30.6000,3.4500,4.0400,-8.2500,0.1669,-0.1200,0.0065,5.2500,-29.5625,21.5000,146.5625,21.0625,-153.1250,0
157.077,9.4715,0.9098,1.2953,-0.3997,0.1607,0.1716,-50.5500,8.4000,1.9500,9.5696,0.8906,1.1085,-0.1988,0.4533,0.2483,-75.3000,33.4500,-30.1500,3.4400,3.9500,-8.3000,0.1669,-0.1200,0.0065,5.2500,-29.5625,21.5000,146.5625,21.0625,-153.1250,0
157.082,9.4715,0.9098,1.2953,-0.3997,0.1607,0.1716,-50.5500,8.4000,1.9500,9.5696,0.8906,1.1085,-0.1988,0.4533,0.2483,-75.3000,33.4500,-30.1500,3.4400,3.9500,-8.3000,0.1440,-0.1145,0.0098,5.2500,-29.5625,21.5000,146.5625,21.0000,-153.2500,0
157.087,9.7612,1.0822,1.3815,-0.4077,0.1506,0.1764,-50.5500,8.4000,1.9500,9.6630,0.9481,1.2354,-0.1849,0.4703,0.2582,-74.7000,33.4500,-30.1500,3.4000,3.9600,-8.3400,0.1440,-0.1145,0.0098,5.2500,-29.5625,21.5000,146.5625,21.0000,-153.2500,0
157.092,9.7612,1.0822,1.3815,-0.4053,0.1396,0.1703,-50.5500,8.4000,1.9500,9.6630,0.9481,1.2354,-0.1849,0.4703,0.2582,-74.7000,34.3500,-29.5500,3.4000,3.9600,-8.3400,0.1233,-0.1058,0.0120,5.2500,-29.5625,21.5000,146.5625,20.9375,-153.3125,0
157.097,9.6031,1.1947,1.4700,-0.4053,0.1396,0.1703,-50.8500,9.7500,2.8500,9.6247,0.8787,1.5323,-0.1681,0.4890,0.2574,-75.6000,34.5000,-30.4500,3.3200,4.0600,-8.3200,0.1233,-0.1058,0.0120,5.2500,-29.5625,21.5000,146.5625,20.9375,-153.3125,0
157.106,9.6702,1.2881,1.6975,-0.4671,0.2801,0.1553,-50.8500,10.5000,1.3500,9.6462,0.8021,1.7789,-0.1687,0.4964,0.2558,-75.6000,34.5000,-30.4500,3.3200,4.1500,-8.2500,0.1124,-0.0982,0.0175,5.2500,-29.5625,21.5000,146.5625,20.8750,-153.3750,0
157.111,9.6702,1.2881,1.6975,-0.4671,0.2801,0.1553,-50.8500,10.5000,1.3500,9.6462,0.8021,1.7789,-0.1687,0.4964,0.2558,-75.4500,33.6000,-30.3000,3.3200,4.1500,-8.2500,0.1145,-0.0905,0.0218,5.2500,-29.5625,21.5000,146.5625,20.8750,-153.5000,0
157.117,9.6702,1.2115,1.6137,-0.5023,0.1474,0.1439,-51.1500,8.5500,2.8500,9.6678,0.5962,1.9441,-0.1935,0.4842,0.2595,-75.4500,33.6000,-30.3000,3.2800,4.2200,-8.2400,0.1145,-0.0905,0.0218,5.2500,-29.5625,21.5000,146.5625,20.8750,-153.5000,0
157.122,9.2416,1.1037,1.8148,-0.5785,0.2065,0.1585,-51.1500,8.5500,2.8500,9.6750,0.3879,1.9417,-0.1935,0.4842,0.2595,-75.4500,33.6000,-30.3000,3.2800,4.2200,-8.2400,0.1145,-0.0905,0.0218,6.0000,-28.7500,21.5000,146.0625,20.8125,-153.5625,0
157.127,9.2416,1.1037,1.8148,-0.5785,0.2065,0.1585,-51.4500,9.0000,2.1000,9.6750,0.3879,1.9417,-0.2214,0.4807,0.2630,-76.2000,33.6000,-30.3000,3.3200,4.1500,-8.2600,0.1244,-0.0927,0.0251,6.0000,-28.7500,21.5000,146.0625,20.8125,-153.5625,0
157.132,9.2392,1.1037,2.1380,-0.5995,0.2220,0.1863,-51.4500,9.0000,2.1000,9.6726,0.2849,1.9297,-0.2214,0.4807,0.2630,-76.2000,33.6000,-29.8500,3.3200,4.1500,-8.2600,0.1244,-0.0927,0.0251,6.0000,-28.7500,21.5000,146.0625,20.7500,-153.6250,0
157.137,9.2392,1.1037,2.1380,-0.5995,0.2220,0.1863,-51.4500,9.0000,2.1000,9.6726,0.2849,1.9297,-0.2825,0.4636,0.2721,-76.2000,33.6000,-29.8500,3.4200,4.0100,-8.3600,0.1244,-0.0884,0.0295,6.0000,-28.7500,21.5000,146.0625,20.7500,-153.6250,0
157.142,9.3589,1.1851,2.2170,-0.6086,0.2475,0.2217,-51.4500,9.0000,2.1000,9.6271,0.4693,1.8627,-0.2825,0.4636,0.2721,-76.2000,33.6000,-29.8500,3.4200,4.0100,-8.3600,0.1134,-0.0894,0.0316,6.0000,-28.7500,21.5000,146.0625,20.6875,-153.6875,0
157.147,9.3589,1.1851,2.2170,-0.6086,0.2475,0.2217,-51.4500,9.0000,2.1000,9.6271,0.4693,1.8627,-0.3038,0.4551,0.2779,-76.2000,33.6000,-29.8500,3.3800,3.9600,-8.3500,0.1134,-0.0894,0.0316,6.0000,-28.7500,21.5000,146.0625,20.6875,-153.6875,0
157.156,9.3972,1.3719,2.2649,-0.5814,0.2164,0.2523,-50.4000,9.0000,2.1000,9.6127,0.7997,1.8986,-0.3096,0.4445,0.2918,-76.5000,33.7500,-29.7000,3.4000,3.9700,-8.3600,0.1004,-0.0807,0.0338,6.0000,-28.7500,21.5000,146.0625,20.6875,-153.8125,0
157.161,9.3877,1.4317,2.2146,-0.5596,0.1916,0.2774,-50.4000,9.0000,2.1000,9.6055,0.8835,1.8986,-0.3096,0.4445,0.2918,-74.8500,34.2000,-27.9000,3.4000,3.9700,-8.3600,0.0840,-0.0731,0.0338,6.0000,-28.7500,21.5000,146.1250,20.6250,-153.8750,0
157.167,9.3877,1.4317,2.2146,-0.5596,0.1916,0.2774,-50.2500,9.1500,3.6000,9.6055,0.8835,1.8986,-0.2483,0.4445,0.2878,-74.8500,34.2000,-27.9000,3.3500,4.0400,-8.3400,0.0840,-0.0731,0.0338,6.0000,-28.7500,21.5000,146.1250,20.6250,-153.8750,0
157.172,9.2680,1.4389,2.2601,-0.5473,0.1828,0.2974,-51.1500,11.2500,3.1500,9.6151,0.8308,2.1931,-0.1833,0.4527,0.2934,-74.5500,33.7500,-27.4500,3.3500,4.0400,-8.3400,0.0764,-0.0633,0.0327,6.3750,-28.7500,22.6875,145.5000,20.6250,-153.8750,0
157.177,9.2680,1.4389,2.2601,-0.5473,0.1828,0.2974,-51.1500,11.2500,3.1500,9.6151,0.8308,2.1931,-0.1833,0.4527,0.2934,-74.5500,33.7500,-27.4500,3.3100,4.0900,-8.3400,0.0764,-0.0633,0.0327,6.3750,-28.7500,22.6875,145.5000,20.6250,-153.8750,0
157.182,9.3326,1.4700,2.1931,-0.5604,0.2060,0.3051,-49.6500,9.0000,3.1500,9.5888,0.5602,2.3176,-0.1652,0.4506,0.2912,-76.8000,34.9500,-29.7000,3.3100,4.0900,-8.3400,0.0764,-0.0578,0.0360,6.3750,-28.7500,22.6875,145.5000,20.6250,-153.9375,0
157.187,9.3326,1.4700,2.1931,-0.5604,0.2060,0.3051,-49.6500,9.0000,3.1500,9.5888,0.5602,2.3176,-0.1652,0.4506,0.2912,-76.8000,34.9500,-29.7000,3.3300,4.1200,-8.3500,0.0764,-0.0578,0.0360,6.3750,-28.7500,22.6875,145.5000,20.6250,-153.9375,0
157.192,8.7891,1.3791,2.3248,-0.6265,0.3352,0.3227,-49.6500,9.0000,3.1500,9.6893,0.2873,2.3248,-0.1895,0.4421,0.3006,-76.6500,34.0500,-29.2500,3.3300,4.1200,-8.3500,0.0753,-0.0491,0.0360,6.3750,-28.7500,22.6875,145.5625,20.5625,-154.0000,0
157.197,8.7891,1.3791,2.3248,-0.6265,0.3352,0.3227,-49.6500,9.0000,3.1500,9.6893,0.2873,2.3248,-0.1895,0.4421,0.3006,-76.6500,34.0500,-29.2500,3.3800,4.1100,-8.3600,0.0753,-0.0491,0.0360,6.3750,-28.7500,22.6875,145.5625,20.5625,-154.0625,0
157.206,9.7444,1.0630,2.2242,-0.6416,0.1684,0.3333,-50.8500,10.8000,3.9000,9.7276,0.1772,2.4325,-0.2324,0.4330,0.3080,-76.6500,34.0500,-27.7500,3.3200,4.1200,-8.3800,0.0676,-0.0393,0.0305,6.3750,-28.7500,22.6875,145.5625,20.5625,-154.0625,0
157.213,9.0692,0.8571,2.4565,-0.6190,0.1212,0.3672,-51.3000,9.9000,1.5000,9.7803,0.2825,2.5522,-0.2854,0.4106,0.3195,-76.6500,34.0500,-27.7500,3.3600,4.0500,-8.4400,0.0567,-0.0305,0.0371,6.3750,-28.7500,22.6875,145.5625,20.5625,-154.1250,0
157.218,9.0692,0.8571,2.4565,-0.6190,0.1212,0.3672,-51.3000,9.9000,1.5000,9.7803,0.2825,2.5522,-0.2854,0.4106,0.3195,-76.6500,34.0500,-27.7500,3.3600,4.0500,-8.4400,0.0567,-0.0305,0.0371,6.3750,-28.7500,22.6875,145.5625,20.5625,-154.1250,0
157.222,9.5529,0.6201,2.5235,-0.5713,0.1516,0.3925,-51.7500,10.2000,3.0000,9.7444,0.5219,2.2601,-0.2803,0.3986,0.3309,-76.2000,34.3500,-26.5500,3.3700,3.9700,-8.4400,0.0371,-0.0185,0.0393,6.0000,-30.0000,21.5000,145.2500,20.5625,-154.1250,0
157.227,9.5529,0.6201,2.5235,-0.5161,0.1223,0.4218,-51.7500,10.2000,3.0000,9.7444,0.5219,2.2601,-0.2803,0.3986,0.3309,-76.2000,34.3500,-26.5500,3.3700,3.9700,-8.4400,0.0371,-0.0185,0.0393,6.0000,-30.0000,21.5000,145.2500,20.5625,-154.1250,0
157.232,9.5624,0.4070,2.5139,-0.5161,0.1223,0.4218,-50.2500,9.1500,4.8000,9.8186,0.6273,2.2434,-0.2470,0.3976,0.3424,-76.5000,33.7500,-27.9000,3.3700,3.9700,-8.4400,0.0164,0.0033,0.0404,6.0000,-30.0000,21.5000,145.2500,20.5625,-154.1250,0
157.237,9.6271,0.3615,2.5091,-0.4687,0.1657,0.4271,-50.2500,9.1500,4.8000,9.8186,0.6273,2.2434,-0.2470,0.3976,0.3424,-76.5000,33.7500,-27.9000,3.3900,3.9700,-8.4800,0.0164,0.0033,0.0404,6.0000,-30.0000,21.5000,145.2500,20.5625,-154.1250,0
157.242,9.6271,0.3615,2.5091,-0.4687,0.1657,0.4271,-49.9500,9.4500,5.4000,9.7276,0.6464,2.0111,-0.2507,0.3962,0.3563,-76.2000,33.6000,-27.3000,3.3900,3.9700,-8.4800,-0.0153,0.0251,0.0404,6.0000,-30.0000,21.5000,145.3125,20.5625,-154.1250,0
157.247,9.6774,0.3496,2.5139,-0.3821,0.1119,0.4253,-49.9500,9.4500,5.4000,9.6750,0.6728,1.8364,-0.2507,0.3962,0.3563,-76.2000,33.6000,-27.3000,3.3200,4.0400,-8.4900,-0.0153,0.0251,0.0404,6.0000,-30.0000,21.5000,145.3125,20.5625,-154.1250,0
157.256,9.6774,0.3496,2.5139,-0.3019,0.1021,0.4117,-49.9500,9.4500,5.4000,9.6750,0.6728,1.8364,-0.2681,0.4053,0.3773,-75.3000,33.0000,-28.2000,3.3400,4.0800,-8.4600,-0.0502,0.0458,0.0393,6.0000,-30.0000,21.5000,145.3125,20.6250,-154.1250,0
157.261,9.7516,0.4908,2.4134,-0.3019,0.1021,0.4117,-50.8500,10.8000,4.5000,9.7133,0.6369,1.9273,-0.2891,0.4141,0.3885,-76.5000,33.4500,-28.2000,3.3400,4.0800,-8.4600,-0.0774,0.0687,0.0425,6.0000,-30.0000,21.5000,145.3125,20.6250,-154.0625,0
157.267,9.8210,0.5914,2.3391,-0.2710,0.0962,0.3920,-50.8500,10.8000,4.5000,9.7683,0.5890,1.7909,-0.3312,0.4101,0.4106,-76.5000,33.4500,-28.2000,3.2900,4.1300,-8.4500,-0.0774,0.0687,0.0425,6.0000,-30.0000,21.5000,145.3125,20.6250,-154.0625,0
157.272,9.8210,0.5914,2.3391,-0.2710,0.0962,0.3920,-50.2500,9.4500,4.8000,9.7683,0.5890,1.7909,-0.3312,0.4101,0.4106,-77.2500,33.0000,-27.1500,3.2900,4.1300,-8.4500,-0.0774,0.0687,0.0425,6.0000,-29.5625,21.5000,145.0000,20.6875,-154.0000,0
157.277,9.9551,0.9194,2.3511,-0.2627,0.0930,0.3781,-50.2500,9.4500,4.8000,10.1011,0.8308,1.9800,-0.3512,0.4093,0.4455,-77.2500,33.0000,-27.1500,3.2700,4.1700,-8.4900,-0.1069,0.0938,0.0458,6.0000,-29.5625,21.5000,145.0000,20.6875,-154.0000,0
157.282,9.9551,0.9194,2.3511,-0.2627,0.0930,0.3781,-49.5000,10.2000,3.6000,10.1011,0.8308,1.9800,-0.3512,0.4093,0.4455,-77.2500,33.0000,-27.1500,3.2700,4.1700,-8.4900,-0.1069,0.0938,0.0458,6.0000,-29.5625,21.5000,145.0625,20.7500,-153.9375,0
157.287,10.3334,1.1947,2.2889,-0.2843,0.0464,0.3563,-49.5000,10.2000,3.6000,10.6518,1.8699,2.0566,-0.3802,0.4000,0.4943,-77.2500,33.0000,-27.1500,3.2600,4.1900,-8.5500,-0.1331,0.1189,0.0524,6.0000,-29.5625,21.5000,145.0625,20.7500,-153.9375,0
157.292,10.3334,1.1947,2.2889,-0.2843,0.0464,0.3563,-51.4500,10.0500,6.0000,10.6518,1.8699,2.0566,-0.3802,0.4000,0.4943,-77.4000,34.8000,-26.5500,3.2600,4.1900,-8.5500,-0.1571,0.1560,0.0578,6.0000,-29.5625,21.5000,145.0625,20.8125,-153.8750,0
157.297,11.0612,1.5036,2.1165,-0.3379,-0.0077,0.3240,-51.4500,10.0500,6.0000,10.9798,1.0247,1.4988,-0.3603,0.4154,0.5404,-77.4000,34.8000,-26.5500,3.1700,4.1300,-8.7300,-0.1571,0.1560,0.0578,6.0000,-29.5625,21.5000,145.1250,20.9375,-153.7500,0
157.307,10.9870,1.5443,1.9369,-0.4154,-0.0272,0.3144,-51.4500,10.0500,6.0000,10.6518,-0.5219,1.4198,-0.2489,0.4999,0.5468,-77.4000,34.8000,-26.5500,3.2900,4.1700,-8.9500,-0.2029,0.2291,0.0665,6.0000,-29.5625,21.5000,145.1250,20.9375,-153.7500,0
157.317,10.6303,1.6424,1.7885,-0.4956,0.0197,0.2984,-50.2500,9.9000,4.3500,10.1897,-0.4980,1.0822,-0.4794,0.4996,0.5676,-77.4000,32.4000,-27.0000,3.0500,4.7200,-8.6400,-0.2378,0.3523,0.0796,6.0000,-29.5625,21.5000,145.1250,21.1250,-153.5625,0
157.321,10.6303,1.6424,1.7885,-0.4956,0.0197,0.2984,-50.8500,10.5000,6.3000,10.1897,-0.4980,1.0822,-0.4794,0.4996,0.5676,-76.6500,31.9500,-27.3000,3.0500,4.7200,-8.6400,-0.2378,0.3523,0.0796,6.0000,-29.5625,21.5000,145.1250,21.1250,-153.5625,0
157.327,10.6111,1.6448,1.5826,-0.4732,0.0469,0.2681,-50.8500,10.5000,6.3000,10.4339,0.8811,0.2011,-0.5806,0.5407,0.6430,-76.6500,31.9500,-27.3000,3.5400,5.8100,-8.7000,-0.2531,0.4789,0.1058,6.0000,-30.0000,22.6875,144.7500,21.3750,-153.4375,0
157.331,10.6111,1.6448,1.5826,-0.4732,0.0469,0.2681,-50.8500,10.8000,4.2000,10.4339,0.8811,0.2011,-0.5806,0.5407,0.6430,-76.6500,32.4000,-25.5000,3.5400,5.8100,-8.7000,-0.2531,0.4789,0.1058,6.0000,-30.0000,22.6875,144.7500,21.3750,-153.4375,0
157.336,11.0038,1.7166,1.3527,-0.4357,-0.0075,0.2489,-50.8500,10.8000,4.2000,10.7739,1.6759,0.5722,-0.2958,0.5516,0.6726,-76.6500,32.4000,-25.5000,2.4100,4.5200,-8.8500,-0.0982,0.6894,0.1789,6.0000,-30.0000,22.6875,144.8125,21.7500,-153.3125,0
157.341,11.0038,1.7166,1.3527,-0.4357,-0.0075,0.2489,-51.4500,10.0500,4.9500,10.7739,1.6759,0.5722,-0.2958,0.5516,0.6726,-78.4500,33.1500,-26.2500,2.4100,4.5200,-8.8500,-0.1702,0.7941,0.1854,6.0000,-30.0000,22.6875,144.8125,22.2500,-153.1875,0
157.347,11.3150,1.7573,1.1756,-0.4578,-0.1146,0.2276,-51.4500,10.0500,4.9500,10.6901,1.1827,0.5219,-0.1951,0.6193,0.6795,-78.4500,33.1500,-26.2500,3.2100,4.6900,-8.8600,-0.1702,0.7941,0.1854,6.0000,-30.0000,22.6875,144.8125,22.7500,-153.0625,0
157.357,11.3461,1.8818,0.5962,-0.4405,-0.1977,0.1791,-50.2500,9.9000,4.3500,10.8793,0.5028,-0.2897,-0.1556,0.7077,0.7189,-76.9500,30.9000,-26.2500,3.1100,4.1500,-9.0200,-0.1669,0.9817,0.2138,6.0000,-30.0000,22.6875,144.8125,22.7500,-153.0625,0
157.367,11.4850,2.1141,0.0742,-0.4250,-0.2539,0.1143,-50.2500,9.9000,4.3500,10.8194,0.0168,-0.0144,-0.2662,0.7818,0.7261,-76.6500,31.6500,-24.3000,2.7400,5.0500,-9.0000,-0.1287,1.2010,0.2596,6.0000,-30.0000,22.6875,144.8125,23.4375,-152.8750,0
157.371,11.4850,2.1141,0.0742,-0.4250,-0.2539,0.1143,-50.1000,10.0500,4.9500,10.8194,0.0168,-0.0144,-0.2662,0.7818,0.7261,-76.6500,31.6500,-24.3000,2.7400,5.0500,-9.0000,-0.1287,1.2010,0.2596,6.0000,-30.0000,22.6875,144.3125,24.2500,-152.8125,0
157.377,10.7955,2.3391,-0.2682,-0.4831,-0.2036,0.0501,-50.1000,10.0500,4.9500,10.5872,0.1772,-0.3328,-0.3808,0.8316,0.7202,-76.6500,31.6500,-24.3000,3.3000,6.1300,-8.8100,-0.0556,1.4966,0.3840,5.2500,-28.7500,23.5000,144.3125,24.2500,-152.8125,0
157.381,10.7955,2.3391,-0.2682,-0.4831,-0.2036,0.0501,-50.1000,12.3000,4.5000,10.2783,0.3519,-0.5171,-0.3808,0.8316,0.7202,-78.1500,31.6500,-24.0000,3.3000,6.1300,-8.8100,-0.0556,1.4966,0.3840,5.2500,-28.7500,23.5000,144.4375,25.2500,-152.7500,0
157.387,11.0421,2.2673,-0.6249,-0.4703,-0.3661,-0.0314,-50.1000,12.3000,4.5000,10.2783,0.3519,-0.5171,-0.4863,0.8799,0.7229,-78.1500,31.6500,-24.0000,3.0300,4.9900,-8.5200,-0.0065,1.7344,0.5869,5.2500,-28.7500,23.5000,144.4375,25.2500,-152.7500,0
157.391,11.0421,2.2673,-0.6249,-0.4703,-0.3661,-0.0314,-50.2500,10.9500,4.3500,10.0987,0.4836,-0.3950,-0.4863,0.8799,0.7229,-78.1500,30.4500,-25.0500,3.0300,4.9900,-8.5200,0.0240,1.9253,0.7909,5.2500,-28.7500,23.5000,144.6250,26.4375,-152.6875,0
157.397,10.5848,2.2625,-0.7039,-0.5020,-0.4221,-0.1146,-50.2500,10.9500,4.3500,10.0987,0.4836,-0.3950,-0.5689,0.9542,0.7517,-78.1500,30.4500,-25.0500,3.5700,4.6100,-8.5600,0.0240,1.9253,0.7909,5.2500,-28.7500,23.5000,144.8750,27.6250,-152.6250,0
157.407,10.3837,2.2625,-0.9457,-0.4722,-0.5348,-0.2049,-50.8500,11.5500,4.9500,10.0556,0.4908,-0.7278,-0.6006,1.0267,0.8079,-77.4000,31.9500,-23.2500,4.2200,4.0900,-8.3400,-0.0207,1.9973,0.8988,5.2500,-28.7500,23.5000,144.8750,27.6250,-152.6250,0
