timestamp,thigh_acc_x,thigh_acc_y,thigh_acc_z,thigh_gyro_x,thigh_gyro_y,thigh_gyro_z,thigh_mag_x,thigh_mag_y,thigh_mag_z,shank_acc_x,shank_acc_y,shank_acc_z,shank_gyro_x,shank_gyro_y,shank_gyro_z,shank_mag_x,shank_mag_y,shank_mag_z,foot_acc_x,foot_acc_y,foot_acc_z,foot_gyro_x,foot_gyro_y,foot_gyro_z,foot_mag_x,foot_mag_y,foot_mag_z,foot_euler_x,foot_euler_y,foot_euler_z,perturbation_event
546.526,9.1578,3.2417,-1.1779,-0.0733,0.0016,-0.0376,-60.6000,20.5500,34.8000,9.6223,1.5802,-0.3567,-0.0330,-0.0149,-0.0171,-58.6500,15.7500,-4.9500,3.2900,4.5700,-8.2400,-0.0175,0.0044,0.0022,-21.8750,-27.7500,20.7500,219.6875,19.3750,-151.7500,0
546.535,9.1578,3.2417,-1.1779,-0.0733,0.0016,-0.0376,-61.2000,20.7000,34.9500,9.6223,1.5802,-0.3567,-0.0264,-0.0091,-0.0165,-58.6500,15.7500,-4.9500,3.3000,4.5900,-8.2000,-0.0142,0.0065,0.0011,-21.8750,-27.7500,20.7500,219.6875,19.3750,-151.7500,0
546.543,9.1530,3.2034,-1.0965,-0.0762,-0.0045,-0.0445,-61.2000,20.7000,34.9500,9.5648,1.3838,-0.4310,-0.0301,-0.0195,-0.0245,-57.6000,14.4000,-4.0500,3.2900,4.5900,-8.1800,-0.0142,0.0044,0.0011,-21.8750,-27.7500,20.7500,219.6875,19.3750,-151.7500,0
546.548,9.1363,3.3208,-1.1564,-0.0815,0.0056,-0.0493,-61.2000,20.4000,34.9500,9.5744,1.3671,-0.4334,-0.0341,-0.0096,-0.0176,-58.9500,14.2500,-4.9500,3.2900,4.5900,-8.1800,-0.0142,0.0044,0.0011,-21.8750,-27.7500,20.7500,219.6875,19.3750,-151.7500,0
546.555,9.1363,3.3208,-1.1564,-0.0850,0.0064,-0.0496,-61.2000,20.4000,34.9500,9.5744,1.3671,-0.4334,-0.0341,-0.0096,-0.0176,-58.9500,14.2500,-4.9500,3.2800,4.6000,-8.1600,-0.0120,0.0011,0.0011,-21.8750,-27.7500,20.0625,219.6875,19.3750,-151.7500,0
546.560,9.1291,3.3232,-1.0822,-0.0850,0.0064,-0.0496,-63.0000,21.4500,35.4000,9.5672,1.3743,-0.3232,-0.0253,-0.0104,-0.0157,-59.5500,14.4000,-5.1000,3.2800,4.6000,-8.1600,-0.0109,0.0011,0.0000,-21.8750,-27.7500,20.0625,219.6875,19.3750,-151.6875,0
546.566,9.1099,3.3686,-1.0726,-0.0917,0.0032,-0.0536,-63.0000,21.4500,35.4000,9.6079,1.4030,-0.3855,-0.0472,-0.0144,-0.0205,-59.5500,14.4000,-5.1000,3.2700,4.5600,-8.2000,-0.0109,0.0011,0.0000,-21.8750,-27.7500,20.0625,219.6875,19.3750,-151.6875,0
546.575,9.0932,3.3878,-1.0942,-0.0815,0.0024,-0.0490,-61.5000,21.1500,34.9500,9.5816,1.5897,-0.4166,-0.0472,-0.0144,-0.0205,-57.4500,15.4500,-5.2500,3.3100,4.5600,-8.2100,-0.0076,0.0022,0.0022,-21.8750,-27.7500,20.0625,219.6875,19.3750,-151.6875,0
546.580,9.0932,3.3878,-1.0942,-0.0815,0.0024,-0.0490,-61.5000,19.9500,34.3500,9.5816,1.5897,-0.4166,-0.0352,0.0021,-0.0221,-59.1000,17.1000,-5.5500,3.3100,4.5600,-8.2100,-0.0098,0.0033,0.0022,-21.8750,-27.7500,20.0625,219.6875,19.3750,-151.6875,0
546.586,9.1051,3.4429,-1.0870,-0.0525,-0.0003,-0.0461,-61.5000,19.9500,34.3500,9.5193,1.5634,-0.3519,-0.0165,0.0056,-0.0293,-59.1000,17.1000,-5.5500,3.2900,4.6000,-8.1900,-0.0098,0.0033,0.0022,-21.8750,-27.7500,20.0625,219.6875,19.3750,-151.6875,0
546.595,9.0788,3.5171,-1.0654,-0.0277,-0.0157,-0.0538,-61.5000,19.9500,34.3500,9.5936,1.4868,-0.5124,-0.0171,0.0123,-0.0381,-59.1000,17.1000,-5.5500,3.3200,4.5600,-8.1900,-0.0120,0.0011,0.0033,-21.8750,-27.7500,20.0625,219.6875,19.3750,-151.6875,0
546.600,9.0788,3.5171,-1.0654,-0.0277,-0.0157,-0.0538,-61.5000,19.9500,34.3500,9.5936,1.4868,-0.5124,-0.0171,0.0123,-0.0381,-58.9500,15.0000,-5.7000,3.3200,4.5600,-8.1900,-0.0120,0.0011,0.0033,-22.2500,-27.7500,19.5625,219.6875,19.3750,-151.6875,0
546.606,9.0908,3.5458,-1.0798,-0.0133,-0.0213,-0.0570,-61.5000,19.9500,34.3500,9.6007,1.3958,-0.4549,-0.0184,0.0266,-0.0474,-58.9500,15.0000,-5.7000,3.3100,4.5900,-8.1800,-0.0087,0.0022,0.0044,-22.2500,-27.7500,19.5625,219.6875,19.3750,-151.6875,0
546.615,9.1530,3.4357,-1.1277,-0.0104,-0.0280,-0.0645,-60.9000,21.3000,34.8000,9.5529,1.3216,-0.3184,-0.0256,0.0301,-0.0530,-58.9500,15.0000,-5.7000,3.3200,4.6400,-8.1700,-0.0076,-0.0011,0.0044,-22.2500,-27.7500,19.5625,219.6875,19.3750,-151.6875,0
546.622,9.1530,3.4357,-1.1277,-0.0141,-0.0317,-0.0658,-60.7500,21.4500,34.3500,9.5888,1.2306,-0.4381,-0.0256,0.0301,-0.0530,-58.8000,16.3500,-5.5500,3.3100,4.6100,-8.1600,-0.0055,-0.0044,0.0044,-22.2500,-27.7500,19.5625,219.6875,19.3750,-151.6875,0
546.627,9.1147,3.3184,-1.1803,-0.0141,-0.0317,-0.0658,-61.3500,20.5500,34.5000,9.5888,1.2306,-0.4381,-0.0506,0.0314,-0.0570,-58.8000,16.3500,-5.5500,3.3100,4.6100,-8.1600,-0.0055,-0.0044,0.0044,-22.2500,-27.7500,19.5625,219.6875,19.3750,-151.6875,0
546.635,9.0788,3.1867,-1.1564,-0.0155,-0.0434,-0.0679,-61.3500,20.5500,34.5000,9.5553,1.3408,-0.5315,-0.0701,0.0250,-0.0592,-59.4000,14.5500,-4.2000,3.3100,4.5800,-8.2100,-0.0033,-0.0087,0.0055,-22.2500,-27.7500,19.5625,219.6875,19.3750,-151.6875,0
546.645,9.0668,3.2537,-1.1899,-0.0109,-0.0416,-0.0762,-61.8000,20.4000,34.9500,9.5648,1.5754,-0.5578,-0.0482,0.0314,-0.0522,-59.4000,16.2000,-4.9500,3.2700,4.5900,-8.2200,-0.0055,-0.0033,0.0033,-22.2500,-27.7500,19.5625,219.6875,19.3750,-151.6875,0
546.650,9.0668,3.2537,-1.1899,-0.0109,-0.0416,-0.0762,-61.8000,20.4000,34.9500,9.5648,1.5754,-0.5578,-0.0482,0.0314,-0.0522,-58.8000,14.4000,-5.1000,3.2700,4.5900,-8.2200,-0.0076,-0.0022,0.0055,-21.8750,-27.7500,20.0625,219.6875,19.3750,-151.6875,0
546.656,9.0405,3.2753,-1.2186,0.0120,-0.0410,-0.0818,-59.8500,21.0000,34.9500,9.5217,1.5538,-0.4381,-0.0040,0.0381,-0.0605,-58.8000,14.4000,-5.1000,3.2700,4.6000,-8.2000,-0.0076,-0.0022,0.0055,-21.8750,-27.7500,20.0625,219.6875,19.3750,-151.6875,0
546.665,8.9926,3.3255,-1.3503,0.0304,-0.0306,-0.0999,-59.8500,21.0000,34.5000,9.4858,1.5490,-0.5243,0.0040,0.0525,-0.0666,-57.6000,15.6000,-5.1000,3.2700,4.6300,-8.1700,-0.0120,0.0011,0.0033,-21.8750,-27.7500,20.0625,219.6875,19.3750,-151.6875,0
546.675,9.1722,3.4285,-1.4341,0.0610,-0.0322,-0.1034,-60.3000,19.5000,34.2000,9.5864,1.7358,-0.3256,0.0224,0.0584,-0.0634,-57.9000,15.4500,-5.2500,3.2900,4.6400,-8.1800,-0.0109,0.0011,0.0033,-21.8750,-27.7500,20.0625,219.6875,19.3750,-151.6875,0
546.682,9.1554,3.4644,-1.4293,0.0775,-0.0509,-0.1103,-61.3500,21.3000,34.2000,9.5074,1.4964,-0.3184,0.0354,0.0757,-0.0863,-57.9000,15.4500,-5.2500,3.3100,4.6800,-8.1600,-0.0055,0.0000,0.0044,-21.8750,-27.7500,20.0625,219.6875,19.3750,-151.6875,0
546.687,9.1554,3.4644,-1.4293,0.0775,-0.0509,-0.1103,-61.5000,19.6500,34.6500,9.5074,1.4964,-0.3184,0.0354,0.0757,-0.0863,-57.9000,15.4500,-5.2500,3.3100,4.6800,-8.1600,-0.0055,0.0000,0.0044,-21.8750,-27.7500,20.0625,219.6875,19.3750,-151.6875,0
546.696,9.1482,3.4764,-1.4437,0.0690,-0.0578,-0.1178,-61.8000,21.1500,34.6500,9.5960,1.2282,-0.3160,0.0013,0.0813,-0.1037,-58.3500,15.1500,-5.5500,3.3300,4.6600,-8.1100,0.0055,-0.0065,0.0055,-21.8750,-27.7500,20.0625,219.6875,19.3750,-151.6875,0
546.701,9.0525,3.3615,-1.5107,0.0373,-0.0458,-0.1151,-61.8000,21.1500,34.6500,9.6271,1.2234,-0.5100,-0.0613,0.0922,-0.1053,-58.3500,15.1500,-5.5500,3.3300,4.6600,-8.1100,0.0175,-0.0175,0.0022,-21.5000,-27.7500,18.8750,219.6875,19.3750,-151.6875,0
546.706,9.0525,3.3615,-1.5107,0.0373,-0.0458,-0.1151,-61.8000,21.1500,34.6500,9.6271,1.2234,-0.5100,-0.0613,0.0922,-0.1053,-58.3500,15.1500,-5.5500,3.2800,4.6300,-8.1700,0.0175,-0.0175,0.0022,-21.5000,-27.7500,18.8750,219.6875,19.3750,-151.6875,0
546.715,8.9998,3.3567,-1.5036,0.0117,-0.0312,-0.1069,-60.4500,20.4000,34.3500,9.6319,1.3791,-0.4693,-0.0640,0.0839,-0.0970,-57.6000,15.1500,-4.3500,3.2500,4.6100,-8.2300,0.0164,-0.0185,0.0000,-21.5000,-27.7500,18.8750,219.6875,19.3750,-151.6875,0
546.724,9.0501,3.4069,-1.4820,0.0147,-0.0280,-0.1071,-60.4500,20.4000,34.3500,9.4355,1.5610,-0.4453,-0.0594,0.0901,-0.1154,-58.3500,13.9500,-5.8500,3.2700,4.6400,-8.2300,0.0109,-0.0131,0.0044,-21.5000,-27.7500,18.8750,219.6875,19.3750,-151.6875,0
546.729,8.9759,3.4524,-1.5275,0.0272,-0.0328,-0.1183,-61.8000,21.1500,34.9500,9.4834,1.6496,-0.5124,-0.0317,0.1021,-0.1119,-57.9000,15.4500,-5.2500,3.2700,4.6400,-8.2300,0.0109,-0.0131,0.0044,-21.5000,-27.7500,18.8750,219.6875,19.3750,-151.6875,0
546.736,8.9759,3.4524,-1.5275,0.0272,-0.0328,-0.1183,-60.6000,20.5500,34.5000,9.4834,1.6496,-0.5124,-0.0317,0.1021,-0.1119,-57.9000,15.4500,-5.2500,3.2900,4.6600,-8.2200,0.0098,-0.0109,0.0022,-21.5000,-27.7500,18.8750,219.6875,19.3750,-151.6875,0
546.747,8.9759,3.5362,-1.5682,0.0426,-0.0400,-0.1383,-60.6000,20.5500,33.7500,9.4715,1.8507,-0.4597,0.0248,0.1167,-0.1132,-58.6500,16.2000,-4.5000,3.2500,4.7500,-8.1700,0.0098,-0.0065,0.0033,-21.5000,-27.7500,18.8750,219.6875,19.3750,-151.6875,0
546.751,8.9352,3.6200,-1.5945,0.0504,-0.0450,-0.1495,-60.6000,20.5500,33.7500,9.4308,1.8675,-0.4262,0.0767,0.1244,-0.1180,-58.0500,16.3500,-6.6000,3.2500,4.7500,-8.1700,0.0109,-0.0109,0.0044,-21.5000,-27.3750,20.3750,219.6875,19.3750,-151.6875,0
546.756,8.9352,3.6200,-1.5945,0.0504,-0.0450,-0.1495,-60.6000,20.5500,33.7500,9.4308,1.8675,-0.4262,0.0767,0.1244,-0.1180,-58.0500,16.3500,-6.6000,3.3200,4.7400,-8.1700,0.0109,-0.0109,0.0044,-21.5000,-27.3750,20.3750,219.6875,19.3750,-151.6875,0
546.766,8.9663,3.7062,-1.6017,0.0562,-0.0400,-0.1593,-60.6000,20.5500,33.7500,9.5385,1.6281,-0.3950,0.1154,0.1218,-0.1188,-58.3500,15.6000,-4.0500,3.2700,4.7800,-8.1800,0.0185,-0.0120,0.0022,-21.5000,-27.3750,20.3750,219.6875,19.3750,-151.6875,0
546.774,9.0525,3.6727,-1.6281,0.0624,-0.0147,-0.1492,-61.5000,21.1500,33.7500,9.5241,1.5131,-0.1125,0.1487,0.1356,-0.1199,-58.3500,15.6000,-4.0500,3.2800,4.8100,-8.1900,0.0262,-0.0153,0.0044,-21.5000,-27.3750,20.3750,219.6875,19.3750,-151.6875,0
546.779,8.9376,3.5219,-1.5299,0.0757,0.0005,-0.1343,-61.5000,21.1500,34.3500,9.5122,1.4269,0.0551,0.1383,0.1383,-0.1396,-57.9000,15.7500,-4.9500,3.2800,4.8100,-8.1900,0.0262,-0.0153,0.0044,-21.5000,-27.3750,20.3750,219.6875,19.3125,-151.6875,0
546.786,8.9376,3.5219,-1.5299,0.0757,0.0005,-0.1343,-60.3000,21.0000,35.2500,9.6582,1.3336,0.1245,0.1383,0.1383,-0.1396,-57.9000,15.7500,-4.9500,3.2900,4.7400,-8.1900,0.0338,-0.0142,0.0065,-21.5000,-27.3750,20.3750,219.6875,19.3125,-151.6875,0
546.794,8.9112,3.4907,-1.3551,0.0754,0.0211,-0.1167,-61.3500,21.3000,33.4500,9.6582,1.3336,0.1245,0.0823,0.1276,-0.1367,-57.9000,15.7500,-4.9500,3.3000,4.6900,-8.2000,0.0415,-0.0131,0.0055,-21.5000,-27.3750,20.3750,219.6875,19.3125,-151.6875,0
546.799,8.8705,3.5147,-1.3288,0.0719,0.0589,-0.0959,-61.3500,21.3000,33.4500,9.6031,1.5634,-0.1030,0.0498,0.1244,-0.1274,-57.4500,14.5500,-4.5000,3.3000,4.6900,-8.2000,0.0415,-0.0131,0.0055,-21.5000,-27.3750,20.3750,219.6875,19.3125,-151.6875,0
546.804,8.8705,3.5147,-1.3288,0.0719,0.0589,-0.0959,-61.2000,20.7000,34.3500,9.6031,1.5634,-0.1030,0.0498,0.1244,-0.1274,-57.4500,14.5500,-4.5000,3.3200,4.6300,-8.2300,0.0425,-0.0098,0.0044,-22.2500,-28.8750,20.0625,219.6875,19.3125,-151.6875,0
546.809,8.8849,3.6129,-1.3168,0.0935,0.0861,-0.0751,-61.2000,20.7000,34.3500,9.6462,1.7549,-0.2083,0.0783,0.1306,-0.1255,-57.4500,14.5500,-4.5000,3.3200,4.6300,-8.2300,0.0425,-0.0098,0.0044,-22.2500,-28.8750,20.0625,219.6875,19.3125,-151.6875,0
546.814,8.8849,3.6129,-1.3168,0.0935,0.0861,-0.0751,-61.2000,20.7000,34.3500,9.6462,1.7549,-0.2083,0.0783,0.1306,-0.1255,-58.3500,15.9000,-5.8500,3.2900,4.7200,-8.2500,0.0305,-0.0098,0.0033,-22.2500,-28.8750,20.0625,219.6250,19.3125,-151.6875,0
546.818,8.9519,3.7493,-1.3455,0.1583,0.1069,-0.0634,-61.2000,20.7000,34.3500,9.6007,1.7502,-0.2370,0.1103,0.1356,-0.1356,-58.3500,15.9000,-5.8500,3.2900,4.7200,-8.2500,0.0305,-0.0098,0.0033,-22.2500,-28.8750,20.0625,219.6250,19.3125,-151.6875,0
546.823,8.9519,3.7493,-1.3455,0.1583,0.1069,-0.0634,-61.2000,20.7000,34.3500,9.6007,1.7502,-0.2370,0.1103,0.1356,-0.1356,-58.2000,16.9500,-6.0000,3.2600,4.7400,-8.2500,0.0240,-0.0098,0.0033,-22.2500,-28.8750,20.0625,219.6250,19.3125,-151.6875,0
546.828,9.0357,3.9313,-1.3431,0.2214,0.0858,-0.0573,-60.6000,22.0500,34.5000,9.6055,1.6376,-0.0742,0.1418,0.1434,-0.1327,-58.2000,16.9500,-6.0000,3.2600,4.7400,-8.2500,0.0240,-0.0098,0.0033,-22.2500,-28.8750,20.0625,219.6250,19.3125,-151.6875,0
546.836,9.0908,3.8786,-1.2665,0.2443,0.0781,-0.0440,-61.6500,21.7500,32.7000,9.7252,1.6161,0.1365,0.1204,0.1455,-0.1434,-57.3000,17.1000,-4.8000,3.2400,4.7900,-8.2600,0.0120,-0.0065,0.0055,-22.2500,-28.8750,20.0625,219.6250,19.3125,-151.6875,0
546.845,9.0908,3.8786,-1.2665,0.2108,0.0997,-0.0272,-59.7000,22.9500,34.3500,9.7037,1.7047,0.3974,0.1034,0.1362,-0.1388,-57.9000,16.5000,-4.9500,3.2500,4.7600,-8.2400,-0.0011,-0.0022,0.0131,-22.2500,-28.8750,20.0625,219.6250,19.3125,-151.6875,0
546.850,9.1291,3.7062,-1.2234,0.2108,0.0997,-0.0272,-59.7000,22.9500,34.3500,9.7037,1.7047,0.3974,0.1034,0.1362,-0.1388,-56.7000,15.0000,-5.7000,3.2500,4.7600,-8.2400,-0.0153,0.0011,0.0153,-21.8750,-28.5000,19.5625,219.6250,19.3125,-151.6250,0
546.856,9.0261,3.6176,-0.9505,0.1372,0.1071,-0.0176,-60.4500,22.6500,32.5500,9.5840,1.6951,0.4717,0.0653,0.1228,-0.1386,-56.7000,15.0000,-5.7000,3.2500,4.7400,-8.2800,-0.0153,0.0011,0.0153,-21.8750,-28.5000,19.5625,219.6875,19.3125,-151.6250,0
546.866,9.1195,3.4716,-0.8404,0.0498,0.1348,0.0029,-60.3000,21.0000,34.8000,9.6582,1.7023,0.5746,0.0474,0.1007,-0.1255,-56.7000,15.0000,-5.7000,3.2700,4.6900,-8.2600,-0.0273,0.0065,0.0185,-21.8750,-28.5000,19.5625,219.6875,19.3125,-151.6250,0
546.874,9.1195,3.4716,-0.8404,-0.0226,0.1652,0.0232,-60.3000,21.0000,34.8000,9.5337,1.8555,0.4118,0.0301,0.0845,-0.1226,-57.4500,16.2000,-4.5000,3.2800,4.7100,-8.2600,-0.0404,0.0109,0.0207,-21.8750,-28.5000,19.5625,219.6875,19.3125,-151.5625,0
546.879,8.8825,3.1891,-0.6847,-0.0226,0.1652,0.0232,-60.3000,21.0000,34.8000,9.5337,1.8555,0.4118,0.0301,0.0845,-0.1226,-57.4500,16.2000,-4.5000,3.2800,4.7100,-8.2600,-0.0404,0.0109,0.0207,-21.8750,-28.5000,19.5625,219.6875,19.3125,-151.5625,0
546.886,9.0453,3.1077,-0.6369,-0.1359,0.2246,0.0418,-59.2500,22.9500,33.6000,9.6223,1.7142,0.3591,-0.0069,0.0711,-0.1175,-57.4500,16.2000,-4.5000,3.2900,4.7300,-8.2200,-0.0469,0.0076,0.0196,-21.8750,-28.5000,19.5625,219.6875,19.3125,-151.5625,0
546.894,8.9854,3.0478,-0.6033,-0.1452,0.2230,0.0706,-58.2000,21.9000,33.9000,9.5696,1.7095,0.4238,-0.0258,0.0533,-0.1162,-58.3500,16.3500,-4.3500,3.2700,4.7100,-8.2700,-0.0502,0.0076,0.0207,-21.8750,-28.5000,19.5625,219.6875,19.3125,-151.5000,0
546.899,8.9854,3.0478,-0.6033,-0.1452,0.2230,0.0706,-58.2000,21.9000,33.9000,9.5696,1.7095,0.4238,-0.0258,0.0533,-0.1162,-58.3500,16.3500,-4.3500,3.2700,4.7100,-8.2700,-0.0502,0.0076,0.0207,-21.8750,-28.5000,19.5625,219.6875,19.3125,-151.5000,0
546.904,8.9926,3.0909,-0.6105,-0.1468,0.1903,0.0885,-59.2500,22.2000,34.3500,9.4906,1.8555,0.4190,-0.0759,0.0418,-0.1156,-57.6000,16.3500,-4.3500,3.2900,4.7300,-8.2200,-0.0600,0.0087,0.0251,-22.2500,-27.7500,20.0625,219.6875,19.3125,-151.5000,0
546.909,8.9926,3.0909,-0.6105,-0.1468,0.1903,0.0885,-59.2500,22.2000,34.3500,9.4906,1.8555,0.4190,-0.0759,0.0418,-0.1156,-57.6000,16.3500,-4.3500,3.2900,4.7300,-8.2200,-0.0600,0.0087,0.0251,-22.2500,-27.7500,20.0625,219.6875,19.3125,-151.5000,0
546.914,8.9687,3.0789,-0.5698,-0.1196,0.1785,0.1085,-61.8000,22.6500,33.6000,9.5122,1.9992,0.2993,-0.0874,0.0346,-0.1074,-58.6500,16.2000,-6.0000,3.3200,4.7100,-8.2200,-0.0644,0.0087,0.0240,-22.2500,-27.7500,20.0625,219.7500,19.3125,-151.4375,0
546.918,8.9687,3.0789,-0.5698,-0.1196,0.1785,0.1085,-61.8000,22.6500,33.6000,9.5122,1.9992,0.2993,-0.0874,0.0346,-0.1074,-58.6500,16.2000,-6.0000,3.3200,4.7100,-8.2200,-0.0644,0.0087,0.0240,-22.2500,-27.7500,20.0625,219.7500,19.3125,-151.4375,0
546.924,8.8801,3.1340,-0.5986,-0.0605,0.1745,0.1159,-61.8000,22.6500,33.6000,9.5577,2.1931,0.2993,-0.0682,0.0274,-0.0983,-58.9500,16.2000,-5.2500,3.2700,4.7500,-8.2500,-0.0644,0.0044,0.0218,-22.2500,-27.7500,20.0625,219.7500,19.3750,-151.3750,0
546.928,8.8801,3.1340,-0.5986,-0.0605,0.1745,0.1159,-61.8000,22.6500,33.6000,9.5577,2.1931,0.2993,-0.0682,0.0274,-0.0983,-58.9500,16.2000,-5.2500,3.2700,4.7500,-8.2500,-0.0644,0.0044,0.0218,-22.2500,-27.7500,20.0625,219.7500,19.3750,-151.3750,0
546.936,8.8274,3.2154,-0.6249,-0.0703,0.2366,0.1132,-61.8000,22.6500,33.6000,9.5026,2.1308,0.2011,-0.0530,0.0282,-0.0930,-57.6000,15.9000,-5.8500,3.3100,4.7400,-8.2300,-0.0665,0.0109,0.0229,-22.2500,-27.7500,20.0625,219.7500,19.3750,-151.3750,0
546.943,8.9543,3.2681,-0.6512,-0.0914,0.2558,0.1082,-61.2000,22.6500,33.6000,9.5289,2.0710,-0.0215,-0.0813,0.0059,-0.0885,-57.9000,16.5000,-5.2500,3.2900,4.8100,-8.1600,-0.0665,0.0109,0.0196,-22.2500,-27.7500,20.0625,219.8125,19.3750,-151.3125,0
546.948,8.9543,3.2681,-0.6512,-0.0914,0.2558,0.1082,-61.2000,22.6500,33.6000,9.5289,2.0710,-0.0215,-0.0813,0.0059,-0.0885,-57.9000,16.5000,-5.2500,3.2900,4.8100,-8.1600,-0.0665,0.0109,0.0196,-22.2500,-27.7500,20.0625,219.8125,19.3750,-151.3125,0
546.952,9.0142,3.3710,-0.8212,-0.1303,0.2806,0.1021,-58.9500,22.6500,35.7000,9.5600,1.8699,-0.0455,-0.0501,0.0021,-0.0810,-57.9000,16.5000,-5.2500,3.2800,4.8300,-8.1400,-0.0611,0.0076,0.0164,-21.3750,-28.1875,20.0625,219.8125,19.3750,-151.2500,0
546.957,9.0142,3.3710,-0.8212,-0.1303,0.2806,0.1021,-58.9500,22.6500,35.7000,9.5600,1.8699,-0.0455,-0.0501,0.0021,-0.0810,-57.9000,16.5000,-5.2500,3.2800,4.8300,-8.1400,-0.0611,0.0076,0.0164,-21.3750,-28.1875,20.0625,219.8125,19.3750,-151.2500,0
546.962,9.0860,3.5003,-1.0942,-0.1735,0.2598,0.1037,-60.6000,22.8000,33.7500,9.3637,1.6999,-0.0982,-0.0690,0.0091,-0.0853,-58.3500,16.8000,-4.3500,3.2700,4.8100,-8.1900,-0.0600,0.0076,0.0153,-21.3750,-28.1875,20.0625,219.8125,19.3750,-151.1875,0
546.967,9.0860,3.5003,-1.0942,-0.1735,0.2598,0.1037,-60.6000,22.8000,33.7500,9.3637,1.6999,-0.0982,-0.0690,0.0091,-0.0853,-58.3500,16.8000,-4.3500,3.2700,4.8100,-8.1900,-0.0600,0.0076,0.0153,-21.3750,-28.1875,20.0625,219.8125,19.3750,-151.1875,0
546.972,9.0597,3.6536,-1.2234,-0.2041,0.2297,0.1005,-59.2500,22.2000,34.3500,9.4284,1.6712,-0.3160,-0.1311,0.0104,-0.0845,-58.3500,16.8000,-4.3500,3.2800,4.7100,-8.2300,-0.0600,0.0065,0.0175,-21.3750,-28.1875,20.0625,219.8125,19.3750,-151.1875,0
546.977,9.0597,3.6536,-1.2234,-0.2041,0.2297,0.1005,-59.2500,22.2000,34.3500,9.4284,1.6712,-0.3160,-0.1311,0.0104,-0.0845,-58.3500,16.8000,-4.3500,3.2800,4.7100,-8.2300,-0.0600,0.0065,0.0175,-21.3750,-28.1875,20.0625,219.8125,19.3750,-151.1250,0
546.986,9.0261,3.7350,-1.4269,-0.2004,0.2073,0.1010,-59.2500,22.2000,34.3500,9.4451,1.9920,-0.2921,-0.1545,0.0216,-0.0831,-57.3000,15.9000,-5.1000,3.2900,4.7100,-8.2300,-0.0644,0.0044,0.0142,-21.3750,-28.1875,20.0625,219.8125,19.3750,-151.1250,0
546.993,9.0477,3.8020,-1.4365,-0.2425,0.1929,0.0887,-57.9000,21.4500,34.3500,9.3996,2.1787,-0.3352,-0.1418,0.0226,-0.0866,-57.9000,15.7500,-6.0000,3.2800,4.7800,-8.1800,-0.0687,0.0087,0.0164,-21.3750,-28.1875,20.0625,219.8750,19.3750,-151.0625,0
546.997,9.0477,3.8020,-1.4365,-0.2425,0.1929,0.0887,-57.9000,21.4500,34.3500,9.3350,2.1404,-0.4429,-0.1418,0.0226,-0.0866,-57.9000,15.7500,-6.0000,3.2800,4.7800,-8.1800,-0.0687,0.0087,0.0164,-21.3750,-28.1875,20.0625,219.8750,19.3750,-151.0625,0
547.002,8.9256,3.9193,-1.3886,-0.2854,0.1825,0.0815,-59.5500,21.7500,34.8000,9.3350,2.1404,-0.4429,-0.1087,0.0416,-0.0877,-56.8500,16.3500,-4.8000,3.2900,4.8100,-8.1100,-0.0720,0.0098,0.0164,-21.8750,-27.3750,21.1875,219.8750,19.3750,-151.0000,0
547.007,8.9256,3.9193,-1.3886,-0.2854,0.1825,0.0815,-59.5500,21.7500,34.8000,9.3661,2.2051,-0.4310,-0.1087,0.0416,-0.0877,-56.8500,16.3500,-4.8000,3.2900,4.8100,-8.1100,-0.0720,0.0098,0.0164,-21.8750,-27.3750,21.1875,219.8750,19.3750,-151.0000,0
547.012,9.0118,3.8762,-1.3527,-0.3251,0.1668,0.0690,-60.0000,22.2000,33.6000,9.3661,2.2051,-0.4310,-0.0909,0.0586,-0.0826,-58.2000,15.7500,-5.7000,3.3200,4.8400,-8.1500,-0.0622,0.0076,0.0142,-21.8750,-27.3750,21.1875,219.8750,19.3750,-151.0000,0
547.017,9.0118,3.8762,-1.3527,-0.3251,0.1668,0.0690,-60.0000,22.2000,33.6000,9.3637,2.1213,-0.3903,-0.0909,0.0586,-0.0826,-58.2000,15.7500,-5.7000,3.3200,4.8400,-8.1500,-0.0622,0.0076,0.0142,-21.8750,-27.3750,21.1875,219.8750,19.3750,-151.0000,0
547.022,8.8274,3.8762,-1.2354,-0.3520,0.1431,0.0701,-59.8500,22.0500,35.8500,9.3637,2.1213,-0.3903,-0.0778,0.0829,-0.0877,-57.3000,15.9000,-5.5500,3.3200,4.8400,-8.1500,-0.0545,0.0065,0.0098,-21.8750,-27.3750,21.1875,219.8750,19.3750,-150.9375,0
547.027,8.8274,3.8762,-1.2354,-0.3520,0.1431,0.0701,-59.8500,22.0500,35.8500,9.4355,2.1332,-0.3136,-0.0802,0.0879,-0.0933,-57.3000,15.9000,-5.5500,3.3000,4.8700,-8.1400,-0.0545,0.0065,0.0098,-21.8750,-27.3750,21.1875,219.8750,19.3750,-150.9375,0
547.036,8.7843,3.9337,-1.0894,-0.3712,0.1692,0.0682,-59.2500,20.4000,35.7000,9.3063,2.2697,-0.2514,-0.0802,0.0879,-0.0933,-56.7000,14.5500,-4.5000,3.3200,4.8400,-8.1400,-0.0436,0.0011,0.0120,-21.8750,-27.3750,21.1875,219.8750,19.3750,-150.8750,0
547.042,8.7221,3.9217,-1.0127,-0.3381,0.2132,0.0610,-59.2500,20.4000,35.7000,9.3063,2.2697,-0.2514,-0.0402,0.0949,-0.0834,-56.7000,14.5500,-4.5000,3.3300,4.8500,-8.1200,-0.0273,-0.0033,0.0044,-21.8750,-27.3750,21.1875,219.8750,19.3750,-150.8750,0
547.047,8.7221,3.9217,-1.0127,-0.3381,0.2132,0.0610,-59.2500,20.4000,35.7000,9.2799,2.2242,-0.1891,0.0163,0.1119,-0.0861,-56.7000,14.5500,-4.5000,3.3300,4.8500,-8.1200,-0.0273,-0.0033,0.0044,-21.8750,-27.3750,21.1875,219.8750,19.3750,-150.8750,0
547.052,8.7891,3.9433,-0.9720,-0.2862,0.2446,0.0618,-60.0000,22.6500,34.9500,9.2799,2.2242,-0.1891,0.0163,0.1119,-0.0861,-57.6000,16.8000,-4.3500,3.3400,4.8400,-8.1200,-0.0109,-0.0033,-0.0011,-22.2500,-28.5000,19.5625,219.8750,19.3750,-150.8125,0
547.057,8.7891,3.9433,-0.9720,-0.2862,0.2446,0.0618,-60.0000,22.6500,34.9500,9.3398,1.8747,-0.2083,0.0522,0.1292,-0.0986,-57.6000,16.8000,-4.3500,3.3400,4.8400,-8.1200,-0.0109,-0.0033,-0.0011,-22.2500,-28.5000,19.5625,219.8750,19.3750,-150.8125,0
547.066,8.9112,3.9935,-0.8499,-0.2038,0.2558,0.0698,-59.1000,22.5000,36.3000,9.4571,1.7238,-0.2442,0.0264,0.1519,-0.0949,-57.6000,16.3500,-4.3500,3.3300,4.8100,-8.1600,0.0022,-0.0109,-0.0044,-22.2500,-28.5000,19.5625,219.8750,19.3750,-150.8125,0
547.072,8.8777,4.0103,-0.7350,-0.1063,0.2510,0.0735,-60.9000,22.0500,34.2000,9.4571,1.7238,-0.2442,0.0264,0.1519,-0.0949,-57.0000,16.5000,-4.2000,3.3300,4.8100,-8.1600,0.0120,-0.0164,-0.0076,-22.2500,-28.5000,19.5625,219.8750,19.3750,-150.8125,0
547.077,8.9591,4.0630,-0.7326,0.0187,0.2630,0.0911,-60.9000,22.0500,34.2000,9.4930,1.9465,-0.1963,-0.0245,0.1466,-0.0989,-57.0000,16.5000,-4.2000,3.2600,4.8100,-8.2100,0.0120,-0.0164,-0.0076,-22.2500,-28.5000,19.5625,219.8750,19.3750,-150.8125,0
547.086,8.9591,4.0630,-0.7326,0.0187,0.2630,0.0911,-59.7000,22.9500,34.6500,9.3781,2.2098,-0.2801,-0.0232,0.1639,-0.0938,-57.0000,16.9500,-4.5000,3.2900,4.7700,-8.1900,0.0164,-0.0164,-0.0087,-22.2500,-28.5000,19.5625,219.8750,19.3750,-150.8125,0
547.091,9.0501,4.1324,-0.6297,0.1276,0.2318,0.0997,-60.7500,20.7000,37.2000,9.3781,2.2098,-0.2801,-0.0232,0.1639,-0.0938,-57.9000,16.9500,-4.9500,3.2900,4.7700,-8.1900,0.0131,-0.0164,-0.0087,-22.2500,-28.5000,19.5625,219.8750,19.3125,-150.8125,0
547.097,9.1985,4.0151,-0.6728,0.1903,0.2204,0.0919,-60.7500,20.7000,37.2000,9.4475,2.2721,-0.3304,-0.0021,0.1708,-0.0989,-57.9000,16.9500,-4.9500,3.3000,4.8200,-8.1800,0.0131,-0.0164,-0.0087,-22.2500,-28.5000,19.5625,219.8750,19.3125,-150.8125,0
547.102,9.1985,4.0151,-0.6728,0.1903,0.2204,0.0919,-60.7500,20.7000,37.2000,9.4475,2.2721,-0.3304,-0.0021,0.1708,-0.0989,-57.0000,16.2000,-4.9500,3.2600,4.8900,-8.1400,0.0109,-0.0153,-0.0098,-23.0000,-27.7500,18.8750,219.8750,19.3125,-150.8125,0
547.107,9.0166,3.9576,-0.6967,0.2046,0.1940,0.0722,-60.7500,20.7000,37.2000,9.3925,2.0782,-0.2538,0.0389,0.1769,-0.1005,-57.0000,16.2000,-4.9500,3.2600,4.8900,-8.1400,0.0109,-0.0153,-0.0098,-23.0000,-27.7500,18.8750,219.8750,19.3125,-150.8125,0
547.116,9.1195,3.9193,-0.8021,0.2172,0.1972,0.0570,-61.5000,20.7000,36.4500,9.3518,1.9082,-0.1245,0.0440,0.1860,-0.1085,-56.2500,16.9500,-3.7500,3.2800,4.9000,-8.1500,0.0142,-0.0153,-0.0087,-23.0000,-27.7500,18.8750,219.8750,19.3125,-150.8125,0
547.121,9.1195,3.9193,-0.8021,0.2172,0.1972,0.0570,-60.6000,22.8000,34.8000,9.3518,1.9082,-0.1245,0.0440,0.1860,-0.1085,-56.2500,16.9500,-3.7500,3.2800,4.9000,-8.1500,0.0218,-0.0185,-0.0131,-23.0000,-27.7500,18.8750,219.8750,19.3125,-150.8125,0
547.127,9.0357,3.9600,-0.7661,0.2284,0.1905,0.0485,-60.6000,22.8000,34.8000,9.4619,1.9920,-0.2251,0.0120,0.1956,-0.1050,-56.7000,17.4000,-3.0000,3.2900,4.8400,-8.2000,0.0218,-0.0185,-0.0131,-23.0000,-27.7500,18.8750,219.8750,19.3125,-150.8125,0
547.135,9.0357,3.9600,-0.7661,0.2462,0.1884,0.0346,-58.8000,21.7500,35.8500,9.4355,2.2601,-0.1389,0.0229,0.2044,-0.1010,-56.7000,17.4000,-3.0000,3.2700,4.8200,-8.1800,0.0207,-0.0185,-0.0098,-23.0000,-27.7500,18.8750,219.8750,19.3125,-150.8125,0
547.140,9.0022,3.9169,-0.8571,0.2462,0.1884,0.0346,-60.6000,22.0500,33.4500,9.4355,2.2601,-0.1389,0.0229,0.2044,-0.1010,-56.7000,17.4000,-3.0000,3.2700,4.8200,-8.1800,0.0207,-0.0185,-0.0098,-23.0000,-27.7500,18.8750,219.8750,19.3125,-150.8125,0
547.147,8.9735,3.8188,-1.0080,0.2710,0.2044,0.0352,-60.6000,22.0500,33.4500,9.3661,2.5091,-0.3639,0.0722,0.2060,-0.1034,-56.2500,16.9500,-3.7500,3.2900,4.8400,-8.1700,0.0240,-0.0131,-0.0120,-23.0000,-27.7500,18.8750,219.8750,19.3125,-150.8125,0
547.152,8.9735,3.8188,-1.0080,0.2710,0.2044,0.0352,-60.6000,22.0500,33.4500,9.4092,2.5714,-0.3974,0.1711,0.2260,-0.1050,-56.2500,16.9500,-3.7500,3.2900,4.8400,-8.1700,0.0240,-0.0131,-0.0120,-23.0000,-27.7500,18.8750,219.8125,19.2500,-150.8125,0
547.157,9.0836,3.8307,-1.0774,0.2918,0.2038,0.0274,-60.6000,22.0500,33.4500,9.4092,2.5714,-0.3974,0.1711,0.2260,-0.1050,-58.3500,16.8000,-4.8000,3.2500,4.9100,-8.1700,0.0295,-0.0120,-0.0164,-20.7500,-27.7500,20.7500,219.8125,19.2500,-150.8125,0
547.162,9.0836,3.8307,-1.0774,0.2918,0.2038,0.0274,-58.6500,22.2000,34.3500,9.3302,2.3535,-0.2322,0.2073,0.2361,-0.1047,-57.4500,19.3500,-4.8000,3.2500,4.9100,-8.1700,0.0295,-0.0120,-0.0164,-20.7500,-27.7500,20.7500,219.8125,19.2500,-150.8125,0
547.167,9.0046,3.9025,-1.0894,0.3030,0.1892,0.0149,-60.3000,22.2000,34.3500,9.3302,2.3535,-0.2322,0.2073,0.2361,-0.1047,-57.4500,19.3500,-4.5000,3.2500,4.9800,-8.1400,0.0327,-0.0044,-0.0175,-20.7500,-27.7500,20.7500,219.8125,19.2500,-150.8125,0
547.172,9.0046,3.9025,-1.0894,0.3030,0.1892,0.0149,-60.3000,22.8000,34.8000,9.3374,2.1428,-0.3256,0.1367,0.2595,-0.1013,-57.4500,19.3500,-4.5000,3.2500,4.9800,-8.1400,0.0393,-0.0055,-0.0153,-20.7500,-27.7500,20.7500,219.8125,19.2500,-150.8125,0
547.177,9.0022,3.8379,-0.9146,0.3269,0.1673,0.0075,-60.0000,23.4000,34.3500,9.3374,2.1428,-0.3256,0.1367,0.2595,-0.1013,-56.5500,15.6000,-4.0500,3.2800,4.9100,-8.1800,0.0393,-0.0055,-0.0153,-20.7500,-27.7500,20.7500,219.8125,19.2500,-150.8125,0
547.186,8.9830,3.8906,-0.7350,0.3198,0.1633,-0.0123,-61.3500,23.4000,34.3500,9.6055,2.4517,-0.3663,0.1127,0.2734,-0.0810,-57.3000,17.1000,-3.6000,3.2700,4.9700,-8.1200,0.0458,-0.0131,-0.0175,-20.7500,-27.7500,20.7500,219.8125,19.2500,-150.8125,0
547.191,8.9830,3.8906,-0.7350,0.3198,0.1633,-0.0123,-61.3500,24.3000,34.5000,9.3613,2.7773,-0.1915,0.1836,0.2675,-0.0810,-57.3000,17.1000,-3.6000,3.2700,4.9700,-8.1200,0.0513,-0.0098,-0.0185,-20.7500,-27.7500,20.7500,219.7500,19.2500,-150.8125,0
547.197,9.0142,3.9193,-0.6129,0.2787,0.1535,-0.0312,-59.8500,22.8000,35.8500,9.3613,2.7773,-0.1915,0.1836,0.2675,-0.0810,-58.0500,17.5500,-3.3000,3.1600,5.0400,-8.1200,0.0513,-0.0098,-0.0185,-20.7500,-27.7500,20.7500,219.7500,19.2500,-150.8125,0
547.202,9.0142,3.9193,-0.6129,0.2787,0.1535,-0.0312,-59.8500,22.8000,35.8500,9.2416,2.4804,0.0479,0.2388,0.2872,-0.0855,-58.0500,17.5500,-3.3000,3.1600,5.0400,-8.1200,0.0513,-0.0098,-0.0185,-21.5000,-27.7500,20.0625,219.7500,19.1875,-150.8125,0
547.207,9.0237,3.8116,-0.4836,0.2225,0.1466,-0.0506,-59.8500,22.8000,35.8500,9.2416,2.4804,0.0479,0.2388,0.2872,-0.0855,-58.0500,17.5500,-3.3000,3.2700,5.0000,-8.1400,0.0589,-0.0131,-0.0185,-21.5000,-27.7500,20.0625,219.7500,19.1875,-150.8125,0
547.212,9.0237,3.8116,-0.4836,0.2225,0.1466,-0.0506,-59.8500,22.8000,35.8500,9.3925,2.2721,0.2251,0.2641,0.2928,-0.0834,-58.0500,17.5500,-3.3000,3.2700,5.0000,-8.1400,0.0589,-0.0131,-0.0185,-21.5000,-27.7500,20.0625,219.7500,19.1875,-150.8125,0
547.217,9.0525,3.6871,-0.3136,0.1839,0.1492,-0.0594,-60.3000,23.2500,35.8500,9.3925,2.2721,0.2251,0.2641,0.2928,-0.0834,-56.7000,15.7500,-3.7500,3.2500,4.9700,-8.1500,0.0698,-0.0196,-0.0251,-21.5000,-27.7500,20.0625,219.7500,19.1875,-150.8125,0
547.222,9.0525,3.6871,-0.3136,0.1545,0.1569,-0.0557,-60.3000,23.2500,35.8500,9.5146,2.3104,0.2346,0.2515,0.2795,-0.0693,-56.7000,15.7500,-3.7500,3.2500,4.9700,-8.1500,0.0796,-0.0240,-0.0251,-21.5000,-27.7500,20.0625,219.6875,19.1875,-150.8125,0
547.227,9.0309,3.6966,-0.2107,0.1545,0.1569,-0.0557,-60.0000,24.1500,34.9500,9.4739,2.3367,0.3208,0.2515,0.2795,-0.0693,-56.7000,15.7500,-3.7500,3.2600,4.8900,-8.2600,0.0796,-0.0240,-0.0251,-21.5000,-27.7500,20.0625,219.6875,19.1875,-150.8125,0
547.236,9.0190,3.7206,-0.2658,0.1879,0.1660,-0.0506,-61.2000,23.7000,34.9500,9.4739,2.3367,0.3208,0.2395,0.3000,-0.0629,-56.5500,17.5500,-3.6000,3.2600,4.9000,-8.2200,0.0807,-0.0273,-0.0273,-21.5000,-27.7500,20.0625,219.6875,19.1250,-150.8125,0
547.241,9.0190,3.7206,-0.2658,0.2683,0.1932,-0.0392,-61.2000,23.7000,34.9500,9.5529,2.5019,0.4788,0.2441,0.3006,-0.0624,-56.5500,17.5500,-3.6000,3.2600,4.9000,-8.2200,0.0796,-0.0262,-0.0262,-21.5000,-27.7500,20.0625,219.6250,19.1250,-150.8750,0
547.248,9.0549,3.7206,-0.3065,0.2683,0.1932,-0.0392,-60.7500,22.9500,35.7000,9.4619,2.5833,0.8260,0.2646,0.2886,-0.0576,-56.5500,17.5500,-2.5500,3.1900,4.9800,-8.2200,0.0796,-0.0262,-0.0262,-21.5000,-27.7500,20.0625,219.6250,19.1250,-150.8750,0
547.252,9.0597,3.7493,-0.3160,0.3496,0.2046,-0.0200,-60.7500,22.9500,35.7000,9.4619,2.5833,0.8260,0.2646,0.2886,-0.0576,-56.5500,17.5500,-2.5500,3.1900,4.9800,-8.2200,0.0764,-0.0185,-0.0262,-21.8750,-28.5000,20.0625,219.6250,19.0625,-150.8750,0
547.257,9.0597,3.7493,-0.3160,0.3496,0.2046,-0.0200,-60.7500,25.2000,34.3500,9.4379,2.9521,0.9697,0.2505,0.2902,-0.0496,-56.8500,17.1000,-4.3500,3.1700,5.0500,-8.2400,0.0764,-0.0185,-0.0262,-21.8750,-28.5000,20.0625,219.6250,19.0625,-150.8750,0
547.262,9.1435,3.7733,-0.1173,0.3957,0.2009,-0.0016,-60.7500,25.2000,34.3500,9.4379,2.9521,0.9697,0.2505,0.2902,-0.0496,-56.8500,17.1000,-4.3500,3.1700,5.0500,-8.2400,0.0785,-0.0142,-0.0284,-21.8750,-28.5000,20.0625,219.5625,19.0625,-150.8750,0
547.267,9.1435,3.7733,-0.1173,0.3957,0.2009,-0.0016,-60.7500,25.2000,34.3500,9.4308,2.4756,0.9074,0.2630,0.2843,-0.0322,-58.2000,17.4000,-4.5000,3.2300,5.0000,-8.2000,0.0785,-0.0142,-0.0284,-21.8750,-28.5000,20.0625,219.5625,19.0625,-150.8750,0
547.272,9.0118,3.6488,0.1556,0.4234,0.1964,0.0075,-60.7500,25.2000,34.3500,9.4308,2.4756,0.9074,0.2630,0.2843,-0.0322,-58.2000,17.4000,-4.5000,3.2300,5.0000,-8.2000,0.0862,-0.0087,-0.0305,-21.8750,-28.5000,20.0625,219.5625,19.0625,-150.8750,0
547.278,9.0118,3.6488,0.1556,0.4234,0.1964,0.0075,-59.5500,23.5500,33.0000,9.4116,2.1380,1.0319,0.2710,0.2633,-0.0266,-55.9500,16.2000,-3.0000,3.2600,5.1200,-8.1600,0.0862,-0.0087,-0.0305,-21.8750,-28.5000,20.0625,219.5625,19.0625,-150.8750,0
547.287,9.2560,3.6583,0.3232,0.4493,0.2201,0.0352,-59.7000,24.4500,33.9000,9.5816,1.8699,1.0439,0.2332,0.2236,-0.0189,-57.4500,15.4500,-3.4500,3.2500,5.0300,-8.2000,0.0960,-0.0120,-0.0327,-21.8750,-28.5000,20.0625,219.5000,19.0000,-150.8750,0
547.291,9.4355,3.6966,0.5124,0.4575,0.2220,0.0613,-59.7000,24.4500,33.9000,9.5816,1.8699,1.0439,0.2332,0.2236,-0.0189,-57.4500,15.4500,-3.4500,3.2500,5.0300,-8.2000,0.1014,-0.0098,-0.0327,-21.8750,-28.5000,20.0625,219.5000,19.0000,-150.9375,0
547.298,9.4355,3.6966,0.5124,0.4575,0.2220,0.0613,-58.2000,23.4000,34.9500,9.6223,2.1261,1.1875,0.2012,0.2033,-0.0144,-57.4500,15.4500,-3.4500,3.2100,4.8900,-8.3000,0.1014,-0.0098,-0.0327,-21.8750,-28.5000,20.0625,219.5000,19.0000,-150.9375,0
547.303,9.5960,3.7062,0.5555,0.4716,0.2094,0.0719,-58.2000,23.4000,34.9500,9.6223,2.1261,1.1875,0.2012,0.2033,-0.0144,-57.4500,15.4500,-3.4500,3.1900,4.8200,-8.3400,0.0927,-0.0011,-0.0305,-21.5000,-28.8750,19.5625,219.4375,19.0000,-150.9375,0
547.308,9.5960,3.7062,0.5555,0.4716,0.2094,0.0719,-59.1000,25.5000,34.5000,9.5529,2.3439,1.3312,0.1905,0.1977,-0.0133,-57.0000,15.7500,-3.7500,3.1900,4.8200,-8.3400,0.0927,-0.0011,-0.0305,-21.5000,-28.8750,19.5625,219.4375,19.0000,-150.9375,0
547.312,9.4116,3.7421,0.4788,0.5343,0.2022,0.0757,-59.1000,25.5000,34.5000,9.5529,2.3439,1.3312,0.1905,0.1977,-0.0133,-57.0000,15.7500,-3.7500,3.1900,4.8200,-8.3400,0.0731,0.0131,-0.0284,-21.5000,-28.8750,19.5625,219.4375,19.0000,-150.9375,0
547.317,9.4116,3.7421,0.4788,0.5343,0.2022,0.0757,-59.1000,25.5000,34.5000,9.4930,2.4110,1.4222,0.1889,0.1697,-0.0115,-57.0000,15.7500,-3.7500,3.2200,4.8400,-8.3000,0.0731,0.0131,-0.0284,-21.5000,-28.8750,19.5625,219.4375,19.0000,-150.9375,0
547.322,9.3254,3.6009,0.4669,0.6038,0.2230,0.0765,-59.1000,25.5000,34.5000,9.4930,2.4110,1.4222,0.1889,0.1697,-0.0115,-57.0000,15.7500,-3.7500,3.2200,4.8400,-8.3000,0.0567,0.0240,-0.0262,-21.5000,-28.8750,19.5625,219.4375,19.0000,-151.0000,0
547.328,9.3254,3.6009,0.4669,0.6038,0.2230,0.0765,-59.5500,24.7500,33.7500,9.4499,2.3727,1.2761,0.1569,0.1474,-0.0096,-56.1000,17.1000,-3.3000,3.2700,4.8900,-8.2900,0.0567,0.0240,-0.0262,-21.5000,-28.8750,19.5625,219.4375,19.0000,-151.0000,0
547.336,9.3326,3.3782,0.8859,0.6904,0.2411,0.0741,-61.2000,24.4500,33.6000,9.5026,2.5307,1.1301,0.1135,0.1077,0.0157,-56.8500,16.3500,-2.5500,3.2800,4.8900,-8.2600,0.0458,0.0262,-0.0284,-21.5000,-28.8750,19.5625,219.3750,19.0000,-151.0000,0
547.341,9.5146,3.2968,1.0367,0.7989,0.2923,0.0823,-61.2000,24.4500,33.6000,9.5026,2.5307,1.1301,0.1135,0.1077,0.0157,-56.8500,16.3500,-2.5500,3.2800,4.8900,-8.2600,0.0382,0.0273,-0.0316,-21.5000,-28.8750,19.5625,219.3750,19.0000,-151.0000,0
547.348,9.5146,3.2968,1.0367,0.8388,0.3035,0.0919,-60.6000,25.8000,34.5000,9.6271,2.5355,1.1947,0.1085,0.0703,0.0368,-55.8000,16.8000,-3.3000,3.2800,4.9100,-8.2200,0.0382,0.0273,-0.0316,-21.5000,-28.8750,19.5625,219.3750,19.0000,-151.0000,0
547.353,9.6414,3.2585,0.5650,0.8388,0.3035,0.0919,-60.6000,25.8000,34.5000,9.6223,2.6073,1.3001,0.1085,0.0703,0.0368,-55.8000,16.8000,-3.3000,3.2800,4.9100,-8.2200,0.0382,0.0273,-0.0316,-21.8750,-28.8750,20.3750,219.3125,19.0000,-150.9375,0
547.358,9.4092,3.2705,0.1748,0.8921,0.3525,0.0906,-59.8500,26.2500,33.0000,9.6223,2.6073,1.3001,0.1391,0.0360,0.0506,-55.9500,15.7500,-4.2000,3.2000,5.0500,-8.2400,0.0327,0.0327,-0.0338,-21.8750,-28.8750,20.3750,219.3125,19.0000,-150.9375,0
547.363,9.4092,3.2705,0.1748,0.8921,0.3525,0.0906,-59.8500,26.2500,33.0000,9.4332,2.4038,1.2522,0.1391,0.0360,0.0506,-55.9500,15.7500,-4.2000,3.2000,5.0500,-8.2400,0.0327,0.0327,-0.0338,-21.8750,-28.8750,20.3750,219.3125,19.0000,-150.9375,0
547.368,9.3230,3.2872,-0.0096,0.9489,0.4295,0.0917,-59.2500,26.7000,34.9500,9.4332,2.4038,1.2522,0.1298,0.0115,0.0576,-56.2500,15.7500,-3.7500,3.2500,5.0000,-8.2400,0.0284,0.0360,-0.0349,-21.8750,-28.8750,20.3750,219.3125,19.0000,-150.9375,0
547.373,9.3230,3.2872,-0.0096,0.9489,0.4295,0.0917,-59.2500,26.7000,34.9500,9.6462,2.0423,1.2186,0.1657,-0.0037,0.0600,-56.2500,15.7500,-3.7500,3.2500,5.0000,-8.2400,0.0295,0.0360,-0.0371,-21.8750,-28.8750,20.3750,219.2500,19.0000,-150.9375,0
547.378,9.1315,3.3327,0.0838,0.9254,0.4285,0.0866,-59.2500,26.7000,34.9500,9.6462,2.0423,1.2186,0.1657,-0.0037,0.0600,-55.5000,16.2000,-3.0000,3.2800,5.0000,-8.1900,0.0295,0.0360,-0.0371,-21.8750,-28.8750,20.3750,219.2500,19.0000,-150.9375,0
547.387,9.0142,3.1412,-0.0168,0.8625,0.4530,0.1103,-59.8500,27.7500,33.7500,9.7516,1.8172,1.2570,0.1692,-0.0256,0.0549,-55.5000,16.2000,-3.0000,3.2300,4.9600,-8.2400,0.0338,0.0393,-0.0436,-21.8750,-28.8750,20.3750,219.1875,19.0000,-150.8750,0
547.392,9.0142,3.1412,-0.0168,0.8625,0.4530,0.1103,-59.8500,27.7500,33.7500,9.6606,1.7573,1.1349,0.1692,-0.0256,0.0549,-55.5000,16.2000,-3.0000,3.2300,4.9600,-8.2400,0.0262,0.0360,-0.0436,-21.8750,-28.8750,20.3750,219.1875,19.0000,-150.8750,0
547.398,8.8609,3.0047,-0.1820,0.8354,0.5127,0.1575,-59.2500,27.4500,34.9500,9.6606,1.7573,1.1349,0.1543,-0.0298,0.0490,-56.2500,16.9500,-3.7500,3.2400,4.8700,-8.3100,0.0262,0.0360,-0.0436,-21.8750,-28.8750,20.3750,219.1875,19.0000,-150.8750,0
547.403,8.8609,3.0047,-0.1820,0.8354,0.5127,0.1575,-59.5500,28.0500,34.5000,9.6630,2.2601,1.1468,0.1418,-0.0304,0.0610,-56.2500,16.9500,-3.7500,3.2400,4.8700,-8.3100,0.0262,0.0360,-0.0436,-21.1875,-28.8750,21.1875,219.1250,19.0000,-150.8750,0
547.408,9.0405,2.9066,0.0215,0.7813,0.5159,0.2121,-59.5500,28.0500,34.5000,9.6630,2.2601,1.1468,0.1418,-0.0304,0.0610,-56.2500,16.9500,-3.7500,3.2400,4.8200,-8.3200,0.0142,0.0404,-0.0382,-21.1875,-28.8750,21.1875,219.1250,19.0000,-150.8750,0
547.413,9.0405,2.9066,0.0215,0.7813,0.5159,0.2121,-60.6000,27.3000,33.4500,9.6151,2.5833,1.0343,0.1817,-0.0474,0.0645,-56.2500,16.9500,-3.7500,3.2400,4.8200,-8.3200,0.0142,0.0404,-0.0382,-21.1875,-28.8750,21.1875,219.1250,19.0000,-150.8125,0
547.418,9.0956,2.8898,0.0024,0.7069,0.5263,0.2491,-60.6000,27.3000,33.4500,9.6151,2.5833,1.0343,0.1817,-0.0474,0.0645,-56.1000,18.0000,-4.3500,3.2300,4.9400,-8.2600,0.0022,0.0480,-0.0349,-21.1875,-28.8750,21.1875,219.1250,19.0000,-150.8125,0
547.423,9.0956,2.8898,0.0024,0.7069,0.5263,0.2491,-60.3000,28.8000,33.7500,9.4691,2.8467,0.9050,0.2691,-0.0509,0.0775,-56.1000,18.0000,-4.3500,3.2300,4.9400,-8.2600,-0.0022,0.0491,-0.0349,-21.1875,-28.8750,21.1875,219.0625,19.0625,-150.8125,0
547.428,9.2368,2.9784,0.0287,0.6734,0.5228,0.2798,-60.3000,28.8000,33.7500,9.4691,2.8467,0.9050,0.2691,-0.0509,0.0775,-56.7000,16.9500,-2.7000,3.2700,4.9700,-8.2700,-0.0022,0.0491,-0.0349,-21.1875,-28.8750,21.1875,219.0625,19.0625,-150.8125,0
547.437,9.1123,3.0358,-0.0407,0.6859,0.5441,0.2990,-60.3000,28.8000,33.7500,9.4691,2.7485,0.6632,0.3573,-0.0458,0.0850,-55.9500,16.2000,-3.4500,3.2600,4.9800,-8.2300,0.0011,0.0545,-0.0382,-21.1875,-28.8750,21.1875,219.0625,19.0625,-150.8125,0
547.442,9.1123,3.0358,-0.0407,0.6859,0.5441,0.2990,-60.3000,28.8000,33.7500,9.4355,2.3583,0.5100,0.4026,-0.0533,0.0954,-55.9500,16.2000,-3.4500,3.2600,4.9800,-8.2300,0.0055,0.0556,-0.0404,-21.1875,-28.8750,21.1875,219.0000,19.0625,-150.7500,0
547.448,9.0908,3.1556,-0.1269,0.7051,0.5441,0.2982,-60.4500,28.9500,34.6500,9.4355,2.3583,0.5100,0.4026,-0.0533,0.0954,-57.3000,16.8000,-3.6000,3.3200,5.0500,-8.1400,0.0055,0.0556,-0.0404,-21.1875,-28.8750,21.1875,219.0000,19.0625,-150.7500,0
547.453,9.0908,3.1556,-0.1269,0.7051,0.5441,0.2982,-59.5500,28.5000,34.8000,9.3374,1.9992,0.3903,0.4154,-0.0474,0.0946,-57.3000,16.8000,-3.6000,3.3200,5.0500,-8.1400,0.0055,0.0556,-0.0404,-21.5000,-28.8750,21.1875,219.0000,19.0625,-150.6875,0
547.458,9.2225,3.1244,-0.0072,0.7786,0.5249,0.2942,-59.5500,28.5000,34.8000,9.3374,1.9992,0.3903,0.4154,-0.0474,0.0946,-56.5500,16.8000,-3.6000,3.3000,5.0200,-8.1600,0.0196,0.0480,-0.0436,-21.5000,-28.8750,21.1875,219.0000,19.0625,-150.6875,0
547.462,9.2225,3.1244,-0.0072,0.7786,0.5249,0.2942,-61.6500,29.5500,35.5500,9.4427,2.1021,0.1389,0.4205,-0.0298,0.0949,-56.5500,16.8000,-3.6000,3.3000,5.0200,-8.1600,0.0196,0.0480,-0.0436,-21.5000,-28.8750,21.1875,218.9375,19.0625,-150.6875,0
547.468,9.3254,3.3447,0.2203,0.9270,0.5279,0.2811,-61.6500,29.5500,35.5500,9.4523,2.1404,0.1484,0.4205,-0.0298,0.0949,-56.7000,17.7000,-3.4500,3.2300,4.9700,-8.2200,0.0295,0.0425,-0.0524,-21.5000,-28.8750,21.1875,218.9375,19.0625,-150.6875,0
547.472,9.3254,3.3447,0.2203,0.9270,0.5279,0.2811,-59.1000,30.3000,33.7500,9.4523,2.1404,0.1484,0.4514,-0.0117,0.0909,-56.7000,17.7000,-3.4500,3.2300,4.9700,-8.2200,0.0338,0.0469,-0.0535,-21.5000,-28.8750,21.1875,218.8750,19.0625,-150.6875,0
547.478,9.4332,3.4907,0.1915,1.0421,0.5023,0.2473,-59.1000,30.3000,33.7500,9.4595,2.3966,0.1173,0.4514,-0.0117,0.0909,-56.7000,17.7000,-3.4500,3.2400,4.9600,-8.2400,0.0338,0.0469,-0.0535,-21.5000,-28.8750,21.1875,218.8750,19.0625,-150.6875,0
547.487,9.4619,3.6200,0.4645,1.1173,0.4530,0.2137,-59.1000,30.3000,33.7500,9.2727,2.6264,-0.2107,0.4530,-0.0093,0.0893,-56.1000,15.9000,-5.1000,3.2200,4.9500,-8.2600,0.0360,0.0567,-0.0535,-21.5000,-28.8750,21.1875,218.8750,19.0625,-150.6875,0
547.492,9.4619,3.6200,0.4645,1.1173,0.4530,0.2137,-59.1000,30.3000,33.7500,9.2727,2.6264,-0.2107,0.4415,-0.0003,0.0901,-56.1000,15.9000,-5.1000,3.2200,4.9500,-8.2600,0.0382,0.0644,-0.0589,-21.5000,-28.8750,21.1875,218.8125,19.1250,-150.6250,0
547.498,9.4882,3.6440,0.5387,1.1908,0.4290,0.1697,-59.1000,30.3000,33.7500,9.2895,2.6336,-0.0407,0.5444,0.0123,0.0861,-56.1000,15.9000,-5.1000,3.2300,4.9800,-8.1900,0.0382,0.0644,-0.0589,-21.5000,-28.8750,21.1875,218.8125,19.1250,-150.6250,0
547.503,9.4379,3.5291,0.2155,1.2449,0.3912,0.0967,-61.8000,30.4500,34.6500,9.2895,2.6336,-0.0407,0.5444,0.0123,0.0861,-56.1000,15.9000,-5.1000,3.2900,5.0700,-8.1200,0.0502,0.0709,-0.0665,-21.5000,-28.5000,20.7500,218.7500,19.1250,-150.6250,0
547.508,9.4379,3.5291,0.2155,1.2449,0.3912,0.0967,-61.8000,30.4500,34.6500,9.2943,2.4134,0.0120,0.6145,0.0221,0.0826,-57.0000,16.2000,-4.2000,3.2900,5.0700,-8.1200,0.0502,0.0709,-0.0665,-21.5000,-28.5000,20.7500,218.7500,19.1250,-150.6250,0
547.513,9.2153,3.3830,-0.0670,1.3177,0.3307,0.0253,-60.7500,31.2000,34.9500,9.2943,2.4134,0.0120,0.6145,0.0221,0.0826,-57.0000,16.2000,-4.2000,3.2900,5.0700,-8.1200,0.0709,0.0644,-0.0774,-21.5000,-28.5000,20.7500,218.6875,19.1250,-150.6250,0
547.518,9.2153,3.3830,-0.0670,1.3177,0.3307,0.0253,-60.7500,31.2000,34.9500,9.4308,2.1021,-0.0383,0.6379,0.0128,0.0813,-56.1000,16.3500,-4.0500,3.2400,5.1000,-8.1500,0.0709,0.0644,-0.0774,-21.5000,-28.5000,20.7500,218.6875,19.1250,-150.6250,0
547.523,8.7939,3.1723,-0.0958,1.4056,0.3544,-0.0205,-60.3000,30.0000,34.5000,9.4308,2.1021,-0.0383,0.6379,0.0128,0.0813,-56.1000,16.3500,-4.0500,3.2400,5.1000,-8.1500,0.0916,0.0589,-0.0862,-21.5000,-28.5000,20.7500,218.6250,19.1250,-150.6250,0
547.528,8.7939,3.1723,-0.0958,1.4056,0.3544,-0.0205,-60.3000,30.0000,34.5000,9.3087,2.1237,-0.0263,0.6211,0.0392,0.0911,-55.5000,16.5000,-4.5000,3.2700,5.1000,-8.1700,0.0916,0.0589,-0.0862,-21.5000,-28.5000,20.7500,218.6250,19.1250,-150.6250,0
547.537,9.1818,3.0335,0.0838,1.4568,0.4189,-0.0400,-60.3000,30.3000,33.0000,9.4403,2.3870,0.1269,0.6262,0.0429,0.0935,-57.3000,15.9000,-4.8000,3.2700,4.9600,-8.1500,0.1091,0.0644,-0.0993,-21.5000,-28.5000,20.7500,218.5000,19.1250,-150.6250,0
547.542,9.6199,2.6552,0.2203,1.4514,0.3453,-0.0448,-60.3000,30.3000,33.0000,9.4403,2.3870,0.1269,0.6262,0.0429,0.0935,-57.3000,15.9000,-4.8000,3.2700,4.9600,-8.1500,0.1309,0.0709,-0.1124,-21.5000,-28.5000,20.7500,218.4375,19.1250,-150.6250,0
547.548,9.6199,2.6552,0.2203,1.4514,0.3453,-0.0448,-60.3000,30.3000,33.0000,9.3709,2.4301,0.1867,0.6901,0.0554,0.0695,-57.6000,15.1500,-6.1500,3.2300,5.0500,-8.2500,0.1309,0.0709,-0.1124,-21.5000,-28.5000,20.7500,218.4375,19.1250,-150.6250,0
547.553,9.6438,2.3391,0.0766,1.4791,0.2161,-0.0576,-60.3000,30.3000,34.5000,9.3709,2.4301,0.1867,0.6901,0.0554,0.0695,-57.6000,15.1500,-6.1500,3.2300,5.0500,-8.2500,0.1309,0.0709,-0.1124,-21.8750,-27.3750,18.8750,218.3125,19.1250,-150.6250,0
547.558,9.6438,2.3391,0.0766,1.4791,0.2161,-0.0576,-60.3000,30.3000,34.5000,9.5696,2.3343,0.2969,0.7115,0.0496,0.0594,-58.2000,17.4000,-4.5000,3.2300,5.0100,-8.2500,0.1473,0.0720,-0.1222,-21.8750,-27.3750,18.8750,218.3125,19.1250,-150.6250,0
547.563,9.5361,2.2242,-0.1604,1.5079,0.1823,-0.0730,-60.0000,30.9000,33.3000,9.5696,2.3343,0.2969,0.7115,0.0496,0.0594,-58.2000,17.4000,-4.5000,3.2300,5.0100,-8.2500,0.1473,0.0720,-0.1222,-21.8750,-27.3750,18.8750,218.2500,19.1250,-150.6875,0
547.568,9.5361,2.2242,-0.1604,1.5079,0.1823,-0.0730,-60.0000,30.9000,33.3000,9.5696,2.0159,0.2921,0.7085,0.0466,0.0749,-58.2000,17.4000,-4.5000,3.2500,5.0200,-8.2400,0.1505,0.0785,-0.1178,-21.8750,-27.3750,18.8750,218.2500,19.1250,-150.6875,0
547.573,9.7085,2.3320,-0.3424,1.5076,0.2268,-0.0850,-60.4500,31.6500,33.9000,9.5696,2.0159,0.2921,0.7085,0.0466,0.0749,-58.2000,17.4000,-4.5000,3.2500,5.0200,-8.2400,0.1571,0.0785,-0.1222,-21.8750,-27.3750,18.8750,218.1250,19.1250,-150.6875,0
547.578,9.7085,2.3320,-0.3424,1.5076,0.2268,-0.0850,-60.4500,31.6500,33.9000,9.6989,2.2098,0.2825,0.7325,0.0389,0.0874,-56.5500,17.1000,-5.1000,3.2500,4.9900,-8.2400,0.1571,0.0785,-0.1222,-21.8750,-27.3750,18.8750,218.1250,19.1250,-150.6875,0
547.587,9.7779,2.4445,-0.2849,1.4773,0.1889,-0.0975,-60.6000,31.5000,32.7000,9.5170,2.1548,0.3160,0.7208,0.0330,0.0853,-56.5500,17.1000,-5.1000,3.2200,4.8800,-8.3000,0.1593,0.0873,-0.1276,-21.8750,-27.3750,18.8750,218.0000,19.1250,-150.7500,0
547.592,9.9264,2.6647,-0.1101,1.4048,0.1300,-0.1231,-60.7500,30.9000,33.6000,9.5170,2.1548,0.3160,0.7208,0.0330,0.0853,-56.5500,17.1000,-5.1000,3.2200,4.8800,-8.3000,0.1538,0.0916,-0.1265,-21.8750,-27.3750,18.8750,217.9375,19.1250,-150.8125,0
547.599,9.9264,2.6647,-0.1101,1.4048,0.1300,-0.1231,-60.7500,30.9000,33.6000,9.4691,2.1189,0.3232,0.7178,0.0365,0.0751,-55.2000,16.5000,-4.5000,3.2100,4.8400,-8.3100,0.1538,0.0916,-0.1265,-21.8750,-27.3750,18.8750,217.9375,19.1250,-150.8125,0
547.603,9.8857,2.7509,-0.1772,1.3243,0.0504,-0.1641,-60.7500,30.9000,33.6000,9.5457,2.3272,0.2538,0.6968,0.0330,0.0783,-55.2000,16.5000,-4.5000,3.2100,4.8400,-8.3100,0.1462,0.0960,-0.1233,-21.8750,-27.0625,20.7500,217.8125,19.1250,-150.8125,0
547.608,9.8857,2.7509,-0.1772,1.3243,0.0504,-0.1641,-60.7500,30.9000,33.6000,9.5457,2.3272,0.2538,0.6968,0.0330,0.0783,-55.9500,16.9500,-5.7000,3.2600,4.8400,-8.2900,0.1462,0.0960,-0.1233,-21.8750,-27.0625,20.7500,217.8125,19.1250,-150.8125,0
547.613,9.4355,2.4995,-0.1963,1.2537,-0.0125,-0.2198,-61.2000,31.6500,32.8500,9.5577,2.4612,0.0527,0.6765,0.0104,0.0794,-55.9500,16.9500,-5.7000,3.2600,4.8400,-8.2900,0.1374,0.1014,-0.1200,-21.8750,-27.0625,20.7500,217.7500,19.1250,-150.8750,0
547.618,9.4355,2.4995,-0.1963,1.2537,-0.0125,-0.2198,-61.2000,31.6500,32.8500,9.5577,2.4612,0.0527,0.6765,0.0104,0.0794,-55.9500,16.5000,-5.2500,3.1900,4.8600,-8.3400,0.1374,0.1014,-0.1200,-21.8750,-27.0625,20.7500,217.7500,19.1250,-150.8750,0
547.623,9.1554,2.5067,-0.1556,1.2159,-0.0096,-0.2795,-61.5000,33.1500,32.1000,9.5720,2.4541,-0.1556,0.7091,0.0253,0.0837,-55.9500,16.5000,-5.2500,3.1900,4.8600,-8.3400,0.1331,0.1145,-0.1222,-21.8750,-27.0625,20.7500,217.6250,19.1250,-150.8750,0
547.628,9.1554,2.5067,-0.1556,1.1626,0.0131,-0.3347,-61.5000,33.1500,32.1000,9.5720,2.4541,-0.1556,0.7091,0.0253,0.0837,-56.7000,17.4000,-6.4500,3.3400,4.8700,-8.3300,0.1331,0.1145,-0.1222,-21.8750,-27.0625,20.7500,217.6250,19.1250,-150.8750,0
547.637,9.2416,2.4421,-0.2035,1.1626,0.0131,-0.3347,-61.3500,34.5000,31.9500,9.6079,2.2889,-0.2155,0.7477,0.0381,0.0885,-57.0000,16.2000,-7.2000,3.2100,4.8500,-8.3400,0.1244,0.1287,-0.1200,-21.8750,-27.0625,20.7500,217.5000,19.1875,-150.9375,0
547.642,9.3111,2.4660,-0.2921,1.1247,-0.0131,-0.3834,-62.2500,32.4000,32.1000,9.6055,2.5187,-0.6273,0.8021,0.0522,0.0925,-57.0000,16.2000,-7.2000,3.2100,4.8500,-8.3400,0.1113,0.1484,-0.1265,-21.8750,-27.0625,20.7500,217.4375,19.1875,-150.9375,0
547.649,9.2775,2.7126,-0.3974,1.1631,-0.0464,-0.4370,-62.2500,32.4000,32.1000,9.6055,2.5187,-0.6273,0.8021,0.0522,0.0925,-55.9500,16.9500,-6.0000,3.2000,4.7200,-8.4100,0.1113,0.1484,-0.1265,-21.8750,-27.0625,20.7500,217.4375,19.1875,-150.9375,0
547.653,9.2775,2.7126,-0.3974,1.1631,-0.0464,-0.4370,-62.2500,32.4000,32.1000,9.7468,2.2218,-1.0104,0.9137,0.1087,0.0839,-55.9500,16.9500,-6.0000,3.1300,4.5500,-8.4600,0.1004,0.1702,-0.1342,-21.8750,-28.5000,21.1875,217.3125,19.2500,-151.0000,0
547.658,9.4212,2.8946,-0.5578,1.2804,-0.0565,-0.5151,-62.2500,32.4000,32.1000,9.7468,2.2218,-1.0104,0.9137,0.1087,0.0839,-55.9500,16.9500,-6.0000,3.1300,4.5500,-8.4600,0.1004,0.1702,-0.1342,-21.8750,-28.5000,21.1875,217.3125,19.2500,-151.0000,0
547.663,9.4212,2.8946,-0.5578,1.2804,-0.0565,-0.5151,-62.2500,32.4000,32.1000,9.9048,1.6807,-0.9553,1.1042,0.1817,0.0797,-55.9500,16.9500,-6.0000,3.1300,4.5500,-8.4600,0.0818,0.1996,-0.1614,-21.8750,-28.5000,21.1875,217.1875,19.3125,-151.0000,0
547.668,9.8114,2.8491,-0.6967,1.4504,-0.0504,-0.5939,-59.8500,35.5500,33.4500,9.9048,1.6807,-0.9553,1.1042,0.1817,0.0797,-56.2500,16.2000,-6.4500,3.2100,4.3200,-8.5900,0.0818,0.1996,-0.1614,-21.8750,-28.5000,21.1875,217.1875,19.3125,-151.0000,0
547.673,9.8114,2.8491,-0.6967,1.4504,-0.0504,-0.5939,-59.8500,35.5500,33.4500,10.3070,0.8763,-0.4381,1.2385,0.1985,0.0677,-56.2500,16.2000,-6.4500,3.2100,4.3200,-8.5900,0.0436,0.2422,-0.1822,-21.8750,-28.5000,21.1875,217.0625,19.3750,-150.9375,0
547.679,10.0724,2.9018,-0.9601,1.6020,-0.0941,-0.6917,-60.4500,35.4000,32.5500,10.3070,0.8763,-0.4381,1.2385,0.1985,0.0677,-56.2500,16.2000,-6.4500,3.0800,4.2100,-8.7500,0.0436,0.2422,-0.1822,-21.8750,-28.5000,21.1875,216.8750,19.5000,-150.8750,0
547.688,10.4818,2.8994,-0.8332,1.6987,-0.1559,-0.7458,-60.4500,36.4500,30.0000,10.6015,0.8236,0.2394,1.2462,0.2340,0.0432,-56.2500,16.5000,-6.0000,3.1100,3.6400,-8.9800,-0.0218,0.3109,-0.2007,-21.8750,-28.5000,21.1875,216.7500,19.6250,-150.7500,0
547.698,11.5975,2.5618,-0.3400,1.6992,-0.2659,-0.7210,-61.6500,37.8000,33.0000,11.3006,1.3336,-0.0263,1.1042,0.2411,0.0458,-56.5500,18.0000,-6.6000,2.9700,2.9200,-9.3300,-0.1014,0.3862,-0.2160,-21.8750,-28.5000,21.1875,216.7500,19.6250,-150.7500,0
547.703,11.5975,2.5618,-0.3400,1.6992,-0.2659,-0.7210,-61.6500,37.8000,33.0000,13.1657,0.0934,0.0431,1.1977,0.2651,0.0584,-56.5500,18.0000,-6.6000,2.9700,2.9200,-9.3300,-0.1014,0.3862,-0.2160,-21.8750,-28.5000,21.1875,216.7500,19.6250,-150.7500,0
547.708,12.8401,2.2266,-0.1484,1.6425,-0.3230,-0.6083,-61.6500,37.8000,33.0000,13.7714,-1.0487,1.2258,1.1977,0.2651,0.0584,-57.3000,15.9000,-7.3500,2.8900,2.9200,-9.8200,-0.2378,0.4712,-0.2193,-21.5000,-28.1875,20.3750,216.5625,19.7500,-150.5000,0
547.713,12.8401,2.2266,-0.1484,1.6425,-0.3230,-0.6083,-61.6500,37.8000,33.0000,13.7714,-1.0487,1.2258,1.0136,0.2302,0.0437,-57.3000,15.9000,-7.3500,2.8900,2.9200,-9.8200,-0.2378,0.4712,-0.2193,-21.5000,-28.1875,20.3750,216.3750,20.0000,-150.1875,0
547.718,13.1322,1.9249,-0.6057,1.4938,-0.3978,-0.5508,-60.9000,37.0500,29.8500,12.8281,-0.8595,2.3320,1.0136,0.2302,0.0437,-56.8500,15.6000,-5.8500,3.2100,3.8000,-10.1000,-0.3938,0.6632,-0.2629,-21.5000,-28.1875,20.3750,216.3750,20.0000,-150.1875,0
547.723,13.1322,1.9249,-0.6057,1.4938,-0.3978,-0.5508,-60.9000,37.0500,29.8500,12.8281,-0.8595,2.3320,0.5854,0.1324,0.0288,-56.8500,15.6000,-5.8500,3.2100,3.8000,-10.1000,-0.5378,0.9534,-0.3316,-21.5000,-28.1875,20.3750,216.1250,20.3750,-149.7500,0
547.729,12.8593,1.2953,-1.2546,1.4754,-0.4263,-0.5255,-60.3000,39.7500,29.1000,11.4179,-0.2227,2.2051,0.3038,0.0719,0.0112,-56.1000,15.6000,-6.9000,3.9300,3.5200,-9.6300,-0.5378,0.9534,-0.3316,-21.5000,-28.1875,20.3750,215.8125,20.8125,-149.1250,0
547.738,11.9734,0.4597,-1.2761,1.5135,-0.4559,-0.5292,-62.2500,39.1500,28.9500,10.1658,0.2945,2.0686,0.2859,0.0320,-0.0029,-56.7000,16.9500,-6.7500,3.7600,3.5700,-9.2200,-0.7919,1.0657,-0.3545,-21.5000,-28.1875,20.3750,215.8125,20.8125,-149.1250,0
547.748,10.9798,0.2777,-0.8045,1.4647,-0.4756,-0.5516,-62.5500,38.4000,28.2000,9.9216,-1.1372,-0.0622,0.4175,-0.0402,0.0879,-56.7000,16.9500,-6.7500,2.6700,4.2300,-8.9100,-1.0047,1.0854,-0.3992,-21.5000,-28.1875,20.3750,215.5625,21.1875,-148.3750,0
547.753,10.9798,0.2777,-0.8045,1.4647,-0.4756,-0.5516,-62.5500,38.4000,28.2000,9.9216,-1.1372,-0.0622,0.4175,-0.0402,0.0879,-56.7000,16.9500,-6.7500,2.6700,4.2300,-8.9100,-1.0047,1.0854,-0.3992,-21.5000,-28.1875,20.3750,215.5625,21.1875,-148.3750,0
547.758,9.7205,0.5387,-1.1420,1.1868,-0.5340,-0.5369,-61.8000,40.9500,27.1500,9.1435,-2.4900,3.7014,0.5340,0.2073,0.4021,-55.3500,16.8000,-7.3500,-5.0700,11.6900,-12.4600,-0.9905,1.1792,-0.5247,-21.1875,-28.5000,19.1875,215.1875,21.5625,-147.5625,0
547.763,9.7205,0.5387,-1.1420,1.1868,-0.5340,-0.5369,-61.8000,40.9500,27.1500,9.1435,-2.4900,3.7014,0.5340,0.2073,0.4021,-55.3500,16.8000,-7.3500,-5.0700,11.6900,-12.4600,-0.9905,1.1792,-0.5247,-21.1875,-28.5000,19.1875,215.1875,21.5625,-147.5625,0
547.768,8.8705,0.8092,-1.5131,0.9614,-0.5780,-0.5105,-61.8000,40.9500,27.1500,8.9136,1.5610,3.7972,0.5377,0.2577,0.8247,-55.3500,16.8000,-7.3500,2.6800,-6.6700,-9.4000,0.1178,1.5762,-1.0592,-21.1875,-28.5000,19.1875,214.3750,22.0000,-147.2500,0
547.772,8.8705,0.8092,-1.5131,0.9614,-0.5780,-0.5105,-61.8000,40.9500,27.1500,8.9136,1.5610,3.7972,0.5377,0.2577,0.8247,-55.3500,16.8000,-7.3500,2.6800,-6.6700,-9.4000,1.1977,2.3442,-1.8893,-21.1875,-28.5000,19.1875,212.8125,22.5625,-147.2500,0
547.779,9.3134,1.7957,-1.8076,0.6987,-0.4570,-0.3981,-61.8000,43.2000,28.2000,8.3558,4.8770,1.1756,1.1924,0.3555,0.8777,-57.3000,18.3000,-8.8500,11.0500,-5.6800,-8.9700,1.1977,2.3442,-1.8893,-21.1875,-28.5000,19.1875,211.0625,22.9375,-146.7500,0
547.788,8.6479,2.3559,-1.6975,0.3877,-0.2614,-0.2539,-62.4000,41.5500,28.0500,7.5441,6.4572,3.2681,2.9468,0.5180,0.6880,-57.3000,18.3000,-8.8500,3.4100,5.9100,-8.9700,0.4112,2.3889,-2.4042,-21.1875,-28.5000,19.1875,211.0625,22.9375,-146.7500,0
547.798,8.1906,2.5450,-1.4413,-0.0613,-0.0685,-0.1007,-62.4000,43.5000,28.5000,6.4907,5.2768,3.4069,4.1664,0.5862,0.5076,-58.0500,16.3500,-9.9000,6.0900,-2.5800,-9.4600,0.8301,2.7434,-3.0325,-21.1875,-28.5000,19.1875,208.8125,23.2500,-146.2500,0
547.803,8.1403,2.4876,-1.3982,-0.4647,-0.0850,0.0173,-62.4000,43.5000,28.5000,6.4907,5.2768,3.4069,4.1664,0.5862,0.5076,-58.0500,16.3500,-9.9000,6.0900,-2.5800,-9.4600,0.8301,2.7434,-3.0325,-21.1875,-28.5000,19.1875,208.8125,23.2500,-146.2500,0
547.808,8.1403,2.4876,-1.3982,-0.4647,-0.0850,0.0173,-59.5500,43.5000,26.7000,6.4284,3.1436,3.1843,4.7713,0.7592,0.5774,-58.0500,16.3500,-9.9000,4.4100,2.2400,-7.1600,1.3155,2.6976,-3.0958,-21.1875,-28.5000,17.2500,206.5000,23.5625,-146.0000,0
547.813,7.8410,2.4708,-1.2929,-0.7349,-0.1364,0.1127,-59.5500,43.5000,26.7000,6.4284,3.1436,3.1843,4.7713,0.7592,0.5774,-57.3000,15.9000,-11.1000,4.4100,2.2400,-7.1600,1.3155,2.6976,-3.0958,-21.1875,-28.5000,17.2500,206.5000,23.5625,-146.0000,0
547.818,7.8410,2.4708,-1.2929,-0.7349,-0.1364,0.1127,-59.5500,43.5000,26.7000,7.4867,2.4684,3.4333,4.9200,0.8591,0.7477,-57.3000,15.9000,-11.1000,5.9300,5.1400,-7.7800,1.4933,2.6998,-3.3107,-21.1875,-28.5000,17.2500,204.0625,23.7500,-145.7500,0
547.823,6.4452,2.3846,-1.2570,-0.8415,0.0120,0.1737,-59.5500,43.5000,26.7000,7.4867,2.4684,3.4333,4.9200,0.8591,0.7477,-58.6500,16.2000,-12.0000,5.9300,5.1400,-7.7800,1.7704,2.4816,-3.7721,-21.1875,-28.5000,17.2500,201.3125,23.7500,-145.6875,0
547.829,6.4452,2.3846,-1.2570,-0.8415,0.0120,0.1737,-59.5500,43.5000,26.7000,7.6686,2.7461,3.9935,4.9852,0.9505,0.8367,-58.3500,15.6000,-12.1500,5.2100,3.3400,-6.4100,1.7704,2.4816,-3.7721,-21.1875,-28.5000,17.2500,198.3750,23.5625,-145.7500,0
547.838,6.1938,2.6552,-1.1851,-0.7706,0.2014,0.2172,-57.9000,38.4000,26.8500,7.4436,1.9920,4.0510,4.9399,1.1167,0.9750,-58.3500,15.6000,-12.1500,8.7000,1.7500,-6.5700,2.2798,2.4184,-4.0830,-21.1875,-28.5000,17.2500,198.3750,23.5625,-145.7500,0
547.848,5.7916,3.2537,-0.8380,-0.5577,0.3627,0.2611,-58.0500,38.2500,29.5500,7.9703,0.8523,4.1180,4.8046,1.2588,1.0672,-58.3500,15.6000,-12.1500,7.8600,1.6600,-9.2700,2.6376,2.3224,-4.2695,-21.1875,-28.5000,17.2500,195.3125,23.3125,-146.0625,0
547.853,6.1842,4.1013,-0.5363,-0.2001,0.6859,0.3256,-58.0500,38.2500,29.5500,8.3917,0.2969,4.2497,4.4790,1.2588,1.1016,-58.9500,13.8000,-14.2500,7.8600,1.6600,-9.2700,2.6376,2.3224,-4.2695,-21.1875,-28.5000,17.2500,195.3125,23.3125,-146.0625,0
547.858,6.1842,4.1013,-0.5363,-0.2001,0.6859,0.3256,-57.3000,39.0000,28.5000,8.3917,0.2969,4.2497,4.4790,1.2588,1.1016,-58.9500,13.8000,-14.2500,7.9700,0.2400,-8.9300,2.8416,1.6286,-4.4550,-18.5625,-31.0625,16.8750,192.2500,22.6875,-146.5625,0
547.863,6.7469,5.1092,0.0048,0.2657,0.8055,0.3680,-57.3000,39.0000,28.5000,8.4084,-1.2809,4.7094,4.0084,1.1442,1.0605,-58.9500,13.8000,-14.2500,7.9700,0.2400,-8.9300,2.8416,1.6286,-4.4550,-18.5625,-31.0625,16.8750,192.2500,22.6875,-146.5625,0
547.868,6.7469,5.1092,0.0048,0.2657,0.8055,0.3680,-57.0000,37.0500,29.5500,8.4084,-1.2809,4.7094,4.0084,1.1442,1.0605,-58.9500,13.8000,-14.2500,8.2500,-0.9700,-8.8700,2.8994,1.1868,-4.3917,-18.5625,-31.0625,16.8750,189.2500,21.8750,-147.1875,0
547.873,7.1299,5.7413,0.7781,0.6965,0.8095,0.4221,-57.0000,37.0500,29.5500,8.2337,-3.0957,4.3359,3.3747,1.1175,0.9942,-58.8000,13.2000,-13.6500,8.2500,-0.9700,-8.8700,2.7969,0.7712,-4.0175,-18.5625,-31.0625,16.8750,186.6250,21.0625,-147.8750,0
547.879,7.1299,5.7413,0.7781,0.6965,0.8095,0.4221,-57.0000,37.0500,29.5500,8.2337,-3.0957,4.3359,3.3747,1.1175,0.9942,-58.6500,13.8000,-13.6500,8.5700,-1.9600,-9.4000,2.7969,0.7712,-4.0175,-18.5625,-31.0625,16.8750,184.3750,20.1875,-148.6875,0
547.888,7.7716,5.6503,1.5036,1.0557,0.8572,0.4791,-53.5500,34.6500,30.7500,8.4060,-4.2377,3.7230,2.4315,1.0237,0.8913,-58.6500,13.8000,-12.7500,5.8100,-2.0600,-6.8300,2.5907,0.2225,-3.4263,-18.5625,-31.0625,16.8750,184.3750,20.1875,-148.6875,0
547.898,8.3845,4.9273,1.4437,1.3923,0.9585,0.5233,-54.3000,35.4000,31.0500,8.6718,-4.1372,3.1029,1.4013,0.9419,0.7693,-59.4000,11.8500,-14.8500,7.0000,-0.1000,-7.0000,2.1326,-0.0295,-2.8634,-18.5625,-31.0625,16.8750,182.5625,19.3750,-149.3750,0
547.903,8.9040,3.9911,0.6800,1.7309,1.0214,0.5801,-54.3000,35.4000,31.0500,8.6239,-2.7485,2.6671,0.5119,0.8327,0.6419,-59.4000,12.3000,-13.8000,7.0000,-0.1000,-7.0000,2.1326,-0.0295,-2.8634,-18.5625,-31.0625,16.8750,181.1250,18.6875,-150.0000,0
547.908,8.9040,3.9911,0.6800,1.7309,1.0214,0.5801,-52.8000,34.2000,30.0000,8.6239,-2.7485,2.6671,0.5119,0.8327,0.6419,-59.4000,12.3000,-13.8000,7.0300,0.7800,-6.4800,1.7802,-0.0556,-2.3017,-15.8750,-31.3750,18.8750,181.1250,18.6875,-150.0000,0
547.913,8.8226,3.3351,-0.0599,2.0821,0.9579,0.6360,-52.8000,34.2000,30.0000,8.7101,-1.2163,2.0542,-0.0616,0.7791,0.5036,-60.7500,10.9500,-13.2000,7.0300,0.7800,-6.4800,1.7802,-0.0556,-2.3017,-15.8750,-31.3750,18.8750,180.0000,18.0625,-150.5625,0
547.918,8.8226,3.3351,-0.0599,2.0821,0.9579,0.6360,-53.1000,34.2000,31.0500,8.7101,-1.2163,2.0542,-0.0616,0.7791,0.5036,-60.7500,10.9500,-13.2000,6.0700,1.3800,-5.0800,1.5141,-0.2051,-1.8642,-15.8750,-31.3750,18.8750,180.0000,18.0625,-150.5625,0
547.923,8.4491,2.6169,-0.7661,2.2156,0.8362,0.6606,-51.4500,32.5500,31.0500,8.7460,0.5339,2.1165,-0.3142,0.7877,0.3802,-60.4500,11.1000,-12.0000,6.0700,1.3800,-5.0800,1.1781,-0.1778,-1.4912,-15.8750,-31.3750,18.8750,179.0625,17.5625,-151.0000,0
547.929,9.1099,2.1213,-1.9321,2.1413,0.7898,0.6832,-51.4500,32.5500,30.9000,8.8298,1.7502,1.9896,-0.3142,0.7877,0.3802,-60.4500,11.1000,-12.0000,6.2100,2.0600,-5.2000,1.1781,-0.1778,-1.4912,-15.8750,-31.3750,18.8750,178.3750,17.2500,-151.3125,0
547.938,8.7604,1.7047,-2.5211,2.0283,0.6273,0.6696,-51.4500,32.5500,30.9000,9.0214,2.6049,1.4581,-0.3403,0.8276,0.2627,-60.4500,11.1000,-12.0000,6.9000,2.4700,-5.9800,0.8334,-0.0589,-1.1508,-15.8750,-31.3750,18.8750,178.3750,17.2500,-151.3125,0
547.948,8.9328,1.1995,-2.9233,1.9241,0.7194,0.6448,-51.9000,31.8000,30.9000,9.0405,2.8395,1.3455,-0.1940,0.9001,0.1761,-59.8500,13.6500,-12.1500,6.3200,3.0100,-6.3300,0.5214,-0.0196,-0.8879,-15.8750,-31.3750,18.8750,177.8125,17.0000,-151.4375,0
547.953,8.9328,1.1995,-2.9233,1.9241,0.7194,0.6448,-50.2500,29.7000,30.4500,9.0405,2.8395,1.3455,0.0402,0.9790,0.1066,-60.7500,12.0000,-12.1500,6.3200,3.0100,-6.3300,0.5214,-0.0196,-0.8879,-15.8750,-31.3750,18.8750,177.8125,17.0000,-151.4375,0
547.958,8.8921,0.6225,-3.0239,1.7325,0.6478,0.5801,-50.2500,29.7000,30.4500,9.0549,2.9832,1.5682,0.2899,1.0730,0.0781,-60.7500,12.0000,-12.1500,5.2900,3.1500,-6.0800,0.3371,-0.0491,-0.6589,-11.8750,-31.0625,21.5625,177.6875,16.8125,-151.5625,0
547.963,8.8921,0.6225,-3.0239,1.7325,0.6478,0.5801,-50.5500,30.4500,28.6500,9.0549,2.9832,1.5682,0.2899,1.0730,0.0781,-59.7000,11.8500,-12.7500,5.2900,3.1500,-6.0800,0.3371,-0.0491,-0.6589,-11.8750,-31.0625,21.5625,177.6875,16.8125,-151.5625,0
547.968,8.7460,0.4238,-2.9018,1.5471,0.5185,0.4988,-50.5500,30.4500,28.6500,9.0573,2.7270,1.4341,0.4455,1.1636,0.0933,-59.7000,11.8500,-12.7500,5.4700,3.5600,-6.5600,0.1800,-0.0949,-0.4756,-11.8750,-31.0625,21.5625,177.3750,16.6250,-151.5625,0
547.973,8.7460,0.4238,-2.9018,1.5471,0.5185,0.4988,-50.8500,29.2500,29.8500,9.0573,2.7270,1.4341,0.4455,1.1636,0.0933,-59.4000,14.2500,-11.5500,5.4700,3.5600,-6.5600,0.0284,0.1353,-0.4222,-11.8750,-31.0625,21.5625,177.1250,16.5625,-151.5625,0
547.979,8.4803,0.2801,-2.8204,1.2612,0.4954,0.4533,-50.8500,29.2500,29.8500,9.2201,2.3846,1.5036,0.5732,1.2633,0.1356,-59.4000,14.2500,-11.5500,5.8500,4.1500,-7.0700,0.0284,0.1353,-0.4222,-11.8750,-31.0625,21.5625,176.8750,16.5625,-151.5000,0
547.988,8.9543,0.8308,-3.2298,0.9614,0.6592,0.4354,-51.9000,31.0500,30.1500,9.3972,1.9776,1.5227,0.6259,1.3619,0.1945,-60.1500,12.3000,-11.5500,4.9600,4.1400,-6.9900,0.0393,0.2214,-0.4418,-11.8750,-31.0625,21.5625,176.8750,16.5625,-151.5000,0
547.998,9.2823,1.3336,-3.5602,0.6131,0.7378,0.4048,-51.9000,31.0500,30.1500,9.4834,1.5131,1.3431,0.6225,1.4408,0.2110,-59.7000,11.8500,-10.0500,4.7500,3.9100,-7.0900,0.1582,0.3142,-0.4734,-11.8750,-31.0625,21.5625,176.5625,16.6250,-151.4375,0
548.003,9.2823,1.3336,-3.5602,0.6131,0.7378,0.4048,-50.4000,30.3000,29.1000,9.4834,1.5131,1.3431,0.6225,1.4408,0.2110,-59.7000,11.8500,-10.0500,4.7500,3.9100,-7.0900,0.1582,0.3142,-0.4734,-11.8750,-31.0625,21.5625,176.3750,16.6875,-151.5000,0
548.008,9.3925,1.6376,-3.6895,0.4842,0.8489,0.3632,-50.4000,30.3000,29.1000,9.5744,1.0367,1.6712,0.5748,1.4791,0.1897,-59.7000,11.8500,-10.0500,4.6200,3.8600,-7.1500,0.2465,0.4811,-0.5563,-10.2500,-30.5625,22.7500,176.3750,16.6875,-151.5000,0
548.013,9.3925,1.6376,-3.6895,0.4842,0.8489,0.3632,-51.3000,29.4000,29.7000,9.5744,1.0367,1.6712,0.5748,1.4791,0.1897,-59.8500,11.2500,-11.1000,4.6200,3.8600,-7.1500,0.2465,0.4811,-0.5563,-10.2500,-30.5625,22.7500,176.3750,16.6875,-151.5000,0
548.018,9.5505,1.9178,-3.4141,0.3656,0.9166,0.3046,-51.3000,29.4000,29.7000,9.6726,0.6800,1.4653,0.4818,1.4973,0.1404,-59.8500,11.2500,-11.1000,4.8600,3.6200,-7.6100,0.3000,0.6632,-0.6010,-10.2500,-30.5625,22.7500,175.9375,16.8750,-151.5000,0
548.023,9.5505,1.9178,-3.4141,0.3656,0.9166,0.3046,-51.7500,30.1500,30.0000,9.6726,0.6800,1.4653,0.4818,1.4973,0.1404,-59.8500,11.2500,-11.1000,4.8600,3.6200,-7.6100,0.3131,0.8639,-0.5923,-10.2500,-30.5625,22.7500,175.5000,17.1250,-151.5000,0
548.029,9.7229,2.0973,-2.7940,0.1900,0.9473,0.2673,-51.7500,30.1500,30.0000,9.7659,0.3184,1.6017,0.3800,1.4986,0.0783,-59.8500,11.2500,-11.1000,4.8900,3.5400,-7.7500,0.3131,0.8639,-0.5923,-10.2500,-30.5625,22.7500,175.0000,17.4375,-151.5000,0
548.038,9.5170,2.0016,-1.9465,-0.0538,0.9425,0.2374,-52.9500,30.0000,27.3000,9.7085,0.1173,1.6209,0.2729,1.5026,0.0176,-61.2000,10.6500,-10.0500,4.8100,3.4900,-7.7000,0.3054,0.9916,-0.5443,-10.2500,-30.5625,22.7500,174.6250,17.8750,-151.5625,0
548.049,9.4763,2.0327,-0.8308,-0.2321,0.9737,0.1911,-52.9500,30.0000,27.3000,9.5385,0.0311,1.6616,0.1466,1.4949,-0.0392,-60.1500,11.4000,-8.7000,4.2700,3.0600,-7.3500,0.3305,1.0385,-0.4134,-10.2500,-30.5625,22.7500,174.6250,17.8750,-151.5625,0
548.053,9.4763,2.0327,-0.8308,-0.2321,0.9737,0.1911,-51.3000,28.6500,29.7000,9.5385,0.0311,1.6616,0.1466,1.4949,-0.0392,-59.7000,11.1000,-8.2500,4.2700,3.0600,-7.3500,0.3305,1.0385,-0.4134,-10.2500,-30.5625,22.7500,174.6875,18.3125,-151.6250,0
548.059,8.2265,1.9489,0.8332,-0.2449,1.1098,0.1442,-51.3000,28.6500,29.7000,9.4810,-0.2346,1.3096,0.0309,1.4882,-0.0975,-59.7000,11.1000,-8.2500,3.7800,2.9200,-6.8900,0.3240,1.1083,-0.2291,-10.8750,-31.2500,23.2500,174.6875,18.3125,-151.6250,0
548.063,8.2265,1.9489,0.8332,-0.2449,1.1098,0.1442,-52.2000,31.0500,29.5500,9.9958,-0.8811,2.3846,0.0309,1.4882,-0.0975,-59.7000,9.9000,-8.2500,3.7800,2.9200,-6.8900,0.3240,1.1083,-0.2291,-10.8750,-31.2500,23.2500,174.6875,18.3125,-151.6250,0
548.068,8.6359,2.5163,0.3376,-0.1005,1.1836,0.1180,-52.2000,31.0500,29.5500,9.9958,-0.8811,2.3846,0.0770,1.4474,-0.1500,-59.7000,9.9000,-8.2500,3.0000,2.7700,-6.0400,0.2520,1.2119,-0.0633,-10.8750,-31.2500,23.2500,174.4375,18.8750,-151.6250,0
548.073,8.6359,2.5163,0.3376,-0.5780,0.7568,0.0666,-51.1500,30.0000,29.5500,10.1778,-0.9433,3.6847,0.0770,1.4474,-0.1500,-59.8500,10.5000,-8.1000,3.0000,2.7700,-6.0400,0.1353,1.4290,0.0873,-10.8750,-31.2500,23.2500,174.3125,19.6250,-151.5625,0
548.079,9.8019,2.9425,0.3974,-0.5780,0.7568,0.0666,-51.1500,30.0000,29.5500,10.1778,-0.9433,3.6847,-0.0440,1.2865,-0.1974,-59.8500,10.5000,-8.1000,1.6900,2.9300,-5.3600,0.1353,1.4290,0.0873,-10.8750,-31.2500,23.2500,174.2500,20.5625,-151.5000,0
548.089,9.0932,0.1317,1.9130,-0.9582,0.4082,0.0954,-51.1500,31.0500,30.6000,9.4595,-0.5387,1.7095,-0.4855,1.1253,-0.2212,-59.8500,10.0500,-5.8500,-0.2600,7.0200,-8.2700,0.0622,1.7824,0.2858,-10.8750,-31.2500,23.2500,174.1875,21.6875,-151.3750,0
548.099,8.2624,-2.9473,2.6600,-0.7874,0.8428,0.4002,-51.7500,30.9000,30.7500,10.4698,-0.9553,-1.1516,-0.9374,0.7954,-0.1641,-59.8500,10.0500,-5.8500,1.2800,9.0200,-15.2100,0.0415,2.0355,0.4047,-10.8750,-31.2500,23.2500,174.1875,21.6875,-151.3750,0
548.104,9.0812,-3.0550,0.4597,-0.5457,1.2324,0.6318,-51.7500,30.9000,30.7500,11.3892,-0.8045,-2.1596,-1.1245,0.3336,-0.0016,-60.7500,11.7000,-6.1500,1.2800,9.0200,-15.2100,0.0415,2.0355,0.4047,-10.8750,-31.2500,23.2500,174.1875,21.6875,-151.3750,0
548.109,9.0812,-3.0550,0.4597,-0.5457,1.2324,0.6318,-51.7500,30.9000,30.7500,11.3892,-0.8045,-2.1596,-1.1245,0.3336,-0.0016,-60.7500,11.7000,-6.1500,-4.2900,6.8000,-11.9700,-0.3632,1.6581,-0.2454,-11.6875,-29.7500,23.3750,174.2500,22.4375,-150.9375,0
548.114,10.2975,-2.0303,0.4693,-0.7757,1.0890,0.8841,-50.4000,30.0000,31.6500,12.8425,-0.0192,-4.2521,-1.2708,-0.4266,0.1953,-60.7500,11.7000,-6.1500,-4.2900,6.8000,-11.9700,-0.3632,1.6581,-0.2454,-11.6875,-29.7500,23.3750,174.2500,22.4375,-150.9375,0
548.119,10.2975,-2.0303,0.4693,-0.7757,1.0890,0.8841,-50.4000,30.0000,31.6500,12.8425,-0.0192,-4.2521,-1.2708,-0.4266,0.1953,-60.7500,11.7000,-6.1500,-14.7400,10.6600,-11.9500,-0.7178,0.2629,-0.9185,-11.6875,-29.7500,23.3750,173.8125,22.3125,-150.3750,0
548.124,10.8553,-0.8236,2.0662,-1.1794,0.7416,1.0312,-49.6500,31.8000,32.7000,13.2040,0.6201,-5.3415,-1.0251,-1.3709,0.4437,-61.2000,12.6000,-7.2000,-14.7400,10.6600,-11.9500,-0.6240,-0.4058,-1.0734,-11.6875,-29.7500,23.3750,173.3750,21.8125,-149.8125,0
548.130,10.8553,-0.8236,2.0662,-1.1794,0.7416,1.0312,-49.6500,31.8000,32.7000,13.2040,0.6201,-5.3415,-1.0251,-1.3709,0.4437,-61.2000,12.6000,-7.2000,-25.6100,10.6200,-11.1900,-0.6240,-0.4058,-1.0734,-11.6875,-29.7500,23.3750,172.6250,20.6250,-149.3750,0
548.139,10.2903,0.4884,1.6376,-1.2657,0.8918,1.1335,-49.6500,30.7500,33.4500,10.4052,7.0916,-0.8068,0.1506,-1.9425,0.4293,-61.2000,12.3000,-7.5000,-20.8500,15.5800,-10.0400,-0.5160,-1.4006,-1.7475,-11.6875,-29.7500,23.3750,172.6250,20.6250,-149.3750,0
548.149,9.7923,2.6791,0.0120,-1.0203,0.8833,1.1906,-52.3500,30.4500,34.6500,6.7876,10.0485,3.4046,0.6856,-2.0502,0.2851,-60.9000,12.3000,-9.0000,-2.9200,5.9700,-12.7000,-0.1811,-1.3461,-1.8184,-11.6875,-29.7500,23.3750,171.8750,19.5000,-149.1250,0
548.154,10.6877,6.7684,-2.3846,-0.5508,0.6816,1.1799,-54.0000,30.7500,35.2500,8.8801,10.5704,-0.3759,1.0110,-1.4210,-0.0040,-61.2000,11.8500,-8.2500,-2.9200,5.9700,-12.7000,-0.1811,-1.3461,-1.8184,-11.6875,-29.7500,23.3750,171.3125,18.4375,-149.5625,0
548.159,10.6877,6.7684,-2.3846,-0.5508,0.6816,1.1799,-54.0000,30.7500,35.2500,8.8801,10.5704,-0.3759,1.0110,-1.4210,-0.0040,-61.2000,11.8500,-8.2500,17.6700,9.8100,-2.1100,0.9207,-1.5206,-1.1977,-12.6875,-30.1875,24.1875,171.3125,18.4375,-149.5625,0
548.164,12.2104,11.5424,-3.9935,0.1601,0.4972,0.9438,-54.0000,30.7500,35.2500,17.5016,2.3391,-3.0574,1.2393,-0.4887,-0.1716,-61.2000,11.8500,-8.2500,17.6700,9.8100,-2.1100,0.9207,-1.5206,-1.1977,-12.6875,-30.1875,24.1875,171.0000,17.5625,-150.4375,0
548.169,12.2104,11.5424,-3.9935,0.1601,0.4972,0.9438,-54.0000,30.7500,35.2500,17.5016,2.3391,-3.0574,1.2393,-0.4887,-0.1716,-61.2000,11.8500,-8.2500,11.6600,8.6800,-5.4900,1.5490,-1.3974,-0.6785,-12.6875,-30.1875,24.1875,171.0000,17.5625,-150.4375,0
548.175,15.0595,14.4825,-4.2114,0.7855,0.5233,0.4599,-54.4500,31.8000,33.7500,20.3483,-4.7956,-4.6831,0.8399,0.3427,-0.1484,-60.7500,12.0000,-8.8500,0.8800,2.6700,-11.4800,1.7137,-1.2141,-0.8268,-12.6875,-30.1875,24.1875,170.5625,16.7500,-151.3750,0
548.180,15.3444,13.1777,-1.6065,0.7477,0.5049,-0.1098,-55.5000,30.3000,32.4000,19.1680,-8.1642,-2.0518,0.0549,-0.3240,-0.2244,-60.7500,12.0000,-8.8500,0.8800,2.6700,-11.4800,1.7137,-1.2141,-0.8268,-12.6875,-30.1875,24.1875,170.1875,16.0625,-152.1250,0
548.189,15.3444,13.1777,-1.6065,0.7477,0.5049,-0.1098,-55.2000,31.5000,31.6500,10.6949,-6.6583,1.0582,0.0549,-0.3240,-0.2244,-60.7500,12.0000,-8.8500,-1.1200,4.6100,-10.6500,1.4246,-1.0199,-0.7330,-12.6875,-30.1875,24.1875,170.0625,15.8125,-152.7500,0
548.199,11.1282,7.4555,-2.5594,1.3075,0.4935,-0.4501,-57.9000,29.7000,31.5000,4.8411,-4.8411,1.8699,-1.9969,-0.7762,0.0645,-60.9000,11.4000,-10.8000,2.2400,2.3300,-10.0800,1.0396,-0.4647,-0.1462,-12.6875,-30.1875,24.1875,170.0625,15.8125,-152.7500,0
548.204,7.1539,2.8994,-5.7389,1.3075,0.4935,-0.4501,-57.9000,29.7000,31.5000,4.8411,-4.8411,1.8699,-1.9969,-0.7762,0.0645,-60.9000,11.4000,-10.8000,2.2400,2.3300,-10.0800,1.0396,-0.4647,-0.1462,-12.6875,-30.1875,24.1875,170.0625,15.8125,-152.7500,0
548.209,5.8442,1.0846,-5.4420,1.4293,0.7285,-0.4018,-57.9000,29.7000,31.5000,4.2904,-1.0654,1.2665,-2.6012,-0.5993,0.0951,-60.9000,11.4000,-10.8000,2.3900,1.4800,-9.5900,0.5531,-0.2334,0.1636,-9.2500,-31.5625,26.1875,170.1250,15.6875,-153.0625,0
548.214,5.8442,1.0846,-5.4420,1.4293,0.7285,-0.4018,-57.9000,29.7000,31.5000,4.2904,-1.0654,1.2665,-2.6012,-0.5993,0.0951,-59.5500,11.2500,-9.1500,2.3900,1.4800,-9.5900,0.5531,-0.2334,0.1636,-9.2500,-31.5625,26.1875,170.1250,15.6875,-153.0625,0
548.219,6.8115,0.0599,-3.8642,0.9510,0.8188,-0.2238,-59.7000,29.4000,31.5000,5.9089,4.9273,0.3567,-2.0691,-0.3339,-0.0829,-59.5500,11.2500,-9.1500,3.8700,3.2800,-8.3300,0.1407,-0.1254,0.1822,-9.2500,-31.5625,26.1875,170.2500,15.6875,-153.1875,0
548.224,6.8115,0.0599,-3.8642,0.9510,0.8188,-0.2238,-59.7000,29.4000,31.5000,5.9089,4.9273,0.3567,-2.0691,-0.3339,-0.0829,-59.8500,11.2500,-8.1000,3.8700,3.2800,-8.3300,-0.0153,0.0120,0.1331,-9.2500,-31.5625,26.1875,170.3125,15.7500,-153.1875,0
548.230,9.0381,0.2610,-2.1811,0.3427,0.5724,0.0488,-58.9500,31.2000,33.3000,8.0972,8.2600,0.3783,-0.6075,-0.0887,-0.2286,-59.8500,11.2500,-8.1000,4.0500,3.8600,-7.9200,-0.0153,0.0120,0.1331,-9.2500,-31.5625,26.1875,170.3125,15.7500,-153.1875,0
548.239,8.1858,0.6800,-0.8835,-0.1860,0.3307,0.3432,-59.8500,28.8000,33.4500,10.4579,6.5362,-0.0814,1.0515,0.0344,-0.2787,-61.0500,10.9500,-9.6000,3.5700,4.6600,-7.8200,0.0131,0.0164,0.0371,-9.2500,-31.5625,26.1875,170.3125,15.7500,-153.2500,0
548.249,5.9400,0.4429,1.8196,-0.4293,-0.2960,0.5881,-59.7000,30.1500,33.9000,10.6326,2.8156,-0.0048,1.9990,0.0613,-0.2417,-60.4500,11.8500,-9.3000,3.1600,4.6100,-8.0700,0.0796,-0.0240,-0.0491,-9.2500,-31.5625,26.1875,170.3125,15.7500,-153.2500,0
548.254,5.9400,0.4429,1.8196,-0.4293,-0.2960,0.5881,-59.7000,30.1500,33.9000,10.6326,2.8156,-0.0048,1.9990,0.0613,-0.2417,-60.7500,11.2500,-9.1500,3.1600,4.6100,-8.0700,0.0796,-0.0240,-0.0491,-9.2500,-31.5625,26.1875,170.3750,15.6875,-153.3125,0
548.259,9.2656,1.4365,1.1636,-0.5409,0.3797,0.6203,-60.0000,29.7000,33.9000,9.2273,0.3232,0.2274,2.0078,0.2121,-0.1252,-60.7500,11.2500,-9.1500,3.1800,4.2700,-8.3700,0.1647,-0.0589,-0.0742,-7.7500,-30.1875,26.5625,170.3750,15.6875,-153.3125,0
548.264,9.2656,1.4365,1.1636,-0.5409,0.3797,0.6203,-60.0000,29.7000,33.9000,9.2273,0.3232,0.2274,2.0078,0.2121,-0.1252,-60.1500,11.8500,-9.3000,3.1800,4.2700,-8.3700,0.1647,-0.0589,-0.0742,-7.7500,-30.1875,26.5625,170.3750,15.6250,-153.4375,0
548.269,9.5026,2.3918,1.5036,-0.1474,-0.0586,0.4213,-60.0000,29.7000,33.9000,9.6127,-0.8739,0.2274,1.5079,0.1812,-0.0392,-60.1500,11.8500,-9.3000,3.0000,4.2200,-8.3800,0.2051,-0.0687,-0.0720,-7.7500,-30.1875,26.5625,170.3750,15.6250,-153.4375,0
548.274,9.5026,2.3918,1.5036,-0.1474,-0.0586,0.4213,-60.0000,29.7000,33.9000,9.6127,-0.8739,0.2274,1.5079,0.1812,-0.0392,-60.1500,11.8500,-9.3000,3.0000,4.2200,-8.3800,0.2269,-0.0633,-0.0665,-7.7500,-30.1875,26.5625,170.3125,15.5625,-153.5625,0
548.280,10.1323,3.6200,0.7638,0.2803,0.2579,0.1743,-58.2000,31.2000,32.8500,9.2105,-1.1540,0.9433,0.7981,0.0608,-0.0421,-60.1500,11.8500,-9.3000,2.9100,4.5000,-8.3500,0.2269,-0.0633,-0.0665,-7.7500,-30.1875,26.5625,170.2500,15.5625,-153.6875,0
548.289,10.0317,4.7525,0.2969,0.5593,0.2926,-0.0021,-57.4500,30.4500,34.6500,9.1770,-0.8954,1.4700,0.0520,0.0381,-0.0693,-60.9000,12.6000,-10.0500,3.1800,4.5300,-8.2700,0.2454,-0.0665,-0.0469,-7.7500,-30.1875,26.5625,170.2500,15.5625,-153.6875,0
548.299,9.8378,5.4684,0.1293,0.6997,0.2867,-0.0781,-58.6500,31.9500,32.1000,9.4834,-0.0838,1.6951,-0.4415,0.0264,-0.0882,-60.9000,12.6000,-10.0500,3.1600,4.4700,-8.3100,0.2520,-0.0862,-0.0295,-7.7500,-30.1875,26.5625,170.2500,15.5000,-153.8125,0
548.304,9.8378,5.4684,0.1293,0.6997,0.2867,-0.0781,-58.6500,31.9500,32.1000,9.8306,1.1349,1.7717,-0.4415,0.0264,-0.0882,-60.4500,11.8500,-9.3000,3.1600,4.4700,-8.3100,0.2520,-0.0862,-0.0295,-7.7500,-30.1875,26.5625,170.2500,15.5000,-153.9375,0
548.309,9.4355,4.9129,0.0646,0.6619,0.1940,-0.0965,-57.1500,31.6500,35.4000,9.8306,1.1349,1.7717,-0.5484,0.0762,-0.0866,-60.4500,11.8500,-9.3000,3.1100,4.2500,-8.4400,0.2574,-0.1069,-0.0218,-7.0625,-29.7500,27.3750,170.2500,15.5000,-153.9375,0
548.314,9.4355,4.9129,0.0646,0.6619,0.1940,-0.0965,-57.1500,31.6500,35.4000,10.1227,2.2601,2.0949,-0.3309,0.1015,-0.0642,-59.8500,10.9500,-9.1500,3.1100,4.2500,-8.4400,0.2574,-0.1069,-0.0218,-7.0625,-29.7500,27.3750,170.1875,15.4375,-154.0625,0
548.319,9.3901,3.7134,0.1867,0.6688,0.2931,-0.0719,-57.3000,31.0500,34.2000,10.1227,2.2601,2.0949,-0.3309,0.1015,-0.0642,-59.8500,10.9500,-9.1500,3.0200,4.0700,-8.5700,0.2258,-0.0982,-0.0196,-7.0625,-29.7500,27.3750,170.1875,15.4375,-154.0625,0
548.324,9.3901,3.7134,0.1867,0.6688,0.2931,-0.0719,-57.3000,31.0500,34.2000,9.5840,2.7126,2.0877,-0.0509,0.1284,-0.0565,-58.8000,10.9500,-9.9000,3.0200,4.0700,-8.5700,0.1887,-0.0764,-0.0196,-7.0625,-29.7500,27.3750,170.1875,15.3750,-154.1875,0
548.330,10.5393,2.5905,0.1365,0.6576,0.2971,-0.0424,-57.3000,31.0500,34.2000,9.5840,2.7126,2.0877,-0.0509,0.1284,-0.0565,-58.8000,10.9500,-9.9000,3.0900,4.1200,-8.5500,0.1887,-0.0764,-0.0196,-7.0625,-29.7500,27.3750,170.1875,15.3750,-154.3125,0
548.339,8.9974,2.0518,0.7638,0.6464,0.4770,-0.0120,-59.2500,32.7000,32.8500,9.2775,2.5067,2.0949,0.2395,0.1780,-0.0474,-61.0500,10.0500,-8.8500,3.1400,4.1700,-8.4900,0.1658,-0.0545,-0.0153,-7.0625,-29.7500,27.3750,170.1875,15.3750,-154.3125,0
548.349,9.0788,2.1907,1.1205,0.7059,0.2683,0.0448,-58.2000,30.9000,33.9000,9.3565,2.3200,1.8268,0.4668,0.1743,-0.0328,-60.3000,13.9500,-9.6000,3.1800,4.2700,-8.3900,0.1527,-0.0535,-0.0153,-7.0625,-29.7500,27.3750,170.1875,15.3125,-154.3750,0
548.354,9.2105,2.4684,2.0231,0.8005,0.3365,0.0959,-58.2000,30.9000,33.9000,9.4499,1.6855,2.1811,0.6542,0.1785,-0.0203,-59.1000,10.5000,-9.6000,3.1800,4.2700,-8.3900,0.1527,-0.0535,-0.0153,-7.0625,-29.7500,27.3750,170.1875,15.3125,-154.3750,0
548.359,9.2105,2.4684,2.0231,0.8005,0.3365,0.0959,-58.3500,31.0500,33.4500,9.4499,1.6855,2.1811,0.6542,0.1785,-0.0203,-59.1000,10.5000,-9.6000,3.1000,4.3900,-8.4100,0.1527,-0.0524,-0.0185,-7.5000,-30.5000,28.1875,170.1250,15.3125,-154.4375,0
548.364,9.6462,2.2314,1.8124,0.8556,0.3269,0.1359,-58.3500,31.0500,33.4500,9.5217,1.0343,2.6217,0.7466,0.1998,0.0000,-59.1000,10.5000,-9.6000,3.1000,4.3900,-8.4100,0.1527,-0.0524,-0.0185,-7.5000,-30.5000,28.1875,170.1250,15.3125,-154.4375,0
548.369,9.6462,2.2314,1.8124,0.8556,0.3269,0.1359,-59.5500,33.0000,33.4500,9.5217,1.0343,2.6217,0.7466,0.1998,0.0000,-59.1000,10.5000,-9.6000,3.0300,4.3700,-8.4600,0.1756,-0.0600,-0.0196,-7.5000,-30.5000,28.1875,170.1250,15.3125,-154.5000,0
548.374,9.5936,2.2003,1.3982,0.9228,0.4005,0.1735,-59.5500,33.0000,33.4500,9.5409,0.4525,2.9329,0.6283,0.1836,0.0021,-61.0500,13.2000,-8.8500,3.0300,4.3700,-8.4600,0.1942,-0.0556,-0.0164,-7.5000,-30.5000,28.1875,170.1250,15.3125,-154.6250,0
548.380,9.5936,2.2003,1.3982,0.9228,0.4005,0.1735,-59.5500,33.0000,33.4500,9.5409,0.4525,2.9329,0.6283,0.1836,0.0021,-61.0500,13.2000,-8.8500,3.0300,4.3400,-8.5300,0.1942,-0.0556,-0.0164,-7.5000,-30.5000,28.1875,170.1250,15.3125,-154.6250,0
548.389,9.9024,2.1979,1.2186,0.9294,0.4700,0.1911,-60.4500,33.4500,33.6000,9.6798,0.0431,3.0406,0.4226,0.1399,0.0096,-61.0500,13.2000,-8.8500,3.0500,3.9100,-8.6300,0.1931,-0.0425,-0.0055,-7.5000,-30.5000,28.1875,170.1250,15.3125,-154.6875,0
548.394,9.8067,1.6209,1.2426,0.8950,0.4199,0.2044,-60.4500,33.4500,33.6000,9.8617,0.1413,3.0861,0.2110,0.0975,0.0189,-60.9000,11.4000,-9.3000,3.0500,3.9100,-8.6300,0.1604,-0.0175,0.0011,-7.5000,-30.5000,28.1875,170.1250,15.3750,-154.8125,0
548.400,9.8067,1.6209,1.2426,0.8950,0.4199,0.2044,-59.1000,34.5000,33.4500,9.8593,0.5986,3.1388,0.2110,0.0975,0.0189,-60.9000,11.4000,-9.3000,3.0700,3.9700,-8.5700,0.1604,-0.0175,0.0011,-7.5000,-30.5000,28.1875,170.1250,15.3750,-154.8125,0
548.405,9.7085,1.1325,1.1444,0.8492,0.4002,0.2268,-60.6000,34.0500,33.4500,9.8593,0.5986,3.1388,0.0544,0.0735,0.0208,-61.2000,11.4000,-9.7500,3.0700,3.9700,-8.5700,0.1014,0.0065,-0.0011,-7.0625,-29.7500,28.5625,170.1250,15.3750,-154.8750,0
548.410,9.7085,1.1325,1.1444,0.8492,0.4002,0.2268,-60.6000,34.0500,33.0000,9.8617,0.8284,3.0119,-0.0123,0.0488,0.0352,-61.2000,11.4000,-9.7500,3.0200,4.0200,-8.5300,0.1014,0.0065,-0.0011,-7.0625,-29.7500,28.5625,170.1250,15.3750,-154.8750,0
548.415,9.5457,1.0582,1.3192,0.7605,0.4173,0.2715,-58.9500,35.4000,33.3000,9.8617,0.8284,3.0119,-0.0123,0.0488,0.0352,-60.7500,11.7000,-8.8500,3.0200,4.0200,-8.5300,0.1014,0.0065,-0.0011,-7.0625,-29.7500,28.5625,170.1250,15.3750,-154.8750,0
548.420,9.5457,1.0582,1.3192,0.7605,0.4173,0.2715,-58.9500,35.4000,33.3000,9.6965,1.0894,2.8012,0.0163,0.0266,0.0386,-60.7500,11.7000,-8.8500,3.0600,3.9900,-8.5600,0.0600,0.0164,-0.0044,-7.0625,-29.7500,28.5625,170.1250,15.3750,-154.8750,0
548.429,9.6031,1.3024,1.4868,0.6923,0.4335,0.3118,-57.9000,33.1500,33.3000,9.7133,1.3455,2.7581,0.0163,0.0266,0.0386,-60.4500,9.9000,-8.7000,3.0900,4.0000,-8.5500,0.0305,0.0229,0.0011,-7.0625,-29.7500,28.5625,170.1250,15.3750,-154.8750,0
548.439,9.6941,1.3695,1.6951,0.6744,0.4391,0.3216,-57.9000,33.1500,33.3000,9.6774,1.3623,2.9592,0.2451,0.0003,0.0522,-58.3500,11.2500,-9.9000,3.0300,4.0700,-8.5100,0.0044,0.0305,-0.0011,-7.0625,-29.7500,28.5625,170.1250,15.3750,-154.8750,0
548.445,9.8138,1.1779,1.7310,0.5788,0.4956,0.3323,-59.1000,35.5500,33.7500,9.6774,1.3623,2.9592,0.2451,0.0003,0.0522,-60.3000,12.4500,-8.8500,3.0300,4.0700,-8.5100,-0.0131,0.0305,-0.0022,-7.0625,-29.7500,28.5625,170.1250,15.4375,-154.8750,0
548.451,9.8138,1.1779,1.7310,0.4727,0.5169,0.3512,-59.1000,35.5500,33.7500,9.5170,1.2713,2.8587,0.3056,-0.0216,0.0480,-60.3000,12.4500,-8.8500,3.0200,4.1200,-8.4900,-0.0131,0.0305,-0.0022,-7.0625,-29.7500,28.5625,170.1250,15.4375,-154.8750,0
548.455,9.6869,0.8930,1.4054,0.4727,0.5169,0.3512,-58.8000,37.5000,33.7500,9.5170,1.2713,2.8587,0.3056,-0.0216,0.0480,-60.3000,12.4500,-8.8500,3.0200,4.1200,-8.4900,-0.0131,0.0305,-0.0022,-8.1875,-29.7500,28.1875,170.1250,15.5000,-154.8750,0
548.460,9.5864,0.9266,1.3623,0.4122,0.5249,0.3563,-58.8000,37.5000,33.7500,9.4930,0.8906,2.7845,0.3078,-0.0221,0.0525,-60.3000,12.4500,-8.8500,3.1200,4.0800,-8.4500,-0.0185,0.0349,0.0000,-8.1875,-29.7500,28.1875,170.1250,15.5000,-154.8750,0
548.465,9.5864,0.9266,1.3623,0.4122,0.5249,0.3563,-59.5500,37.8000,33.7500,9.4930,0.8906,2.7845,0.3078,-0.0221,0.0525,-59.4000,10.3500,-9.0000,3.1200,4.0800,-8.4500,-0.0185,0.0349,0.0000,-8.1875,-29.7500,28.1875,170.1250,15.5625,-154.8125,0
548.470,9.6367,1.0965,1.3024,0.4000,0.5052,0.3643,-59.5500,37.8000,33.7500,9.4451,0.6416,2.3104,0.2534,-0.0043,0.0616,-59.4000,10.3500,-9.0000,3.1600,4.0500,-8.4700,-0.0240,0.0393,-0.0011,-8.1875,-29.7500,28.1875,170.1250,15.5625,-154.8125,0
548.475,9.6367,1.0965,1.3024,0.4000,0.5052,0.3643,-58.3500,38.2500,34.8000,9.4451,0.6416,2.3104,0.2534,-0.0043,0.0616,-59.4000,10.3500,-9.0000,3.1600,4.0500,-8.4700,-0.0240,0.0338,-0.0055,-8.1875,-29.7500,28.1875,170.1250,15.6250,-154.8125,0
548.480,9.5816,1.3527,1.1636,0.3853,0.4732,0.3920,-58.3500,38.2500,34.8000,9.6654,0.6009,2.1644,0.1484,-0.0552,0.0730,-59.4000,10.3500,-9.0000,3.1300,4.1000,-8.4600,-0.0240,0.0338,-0.0055,-8.1875,-29.7500,28.1875,170.1250,15.6250,-154.8125,0
548.489,9.5050,1.6017,1.0367,0.3600,0.4498,0.4088,-59.5500,40.5000,35.2500,9.6127,0.6680,1.9513,0.0741,-0.0767,0.0909,-59.5500,10.5000,-9.6000,3.0900,4.1300,-8.4300,-0.0251,0.0305,-0.0098,-8.1875,-29.7500,28.1875,170.1250,15.6250,-154.8125,0
548.496,9.5050,1.6017,1.0367,0.3600,0.4498,0.4088,-59.5500,40.5000,35.2500,9.3996,0.6943,2.0183,0.0741,-0.0767,0.0909,-59.1000,10.9500,-9.6000,3.0600,4.1200,-8.4700,-0.0295,0.0273,-0.0131,-8.1875,-29.7500,28.1875,170.1250,15.6875,-154.7500,0
548.501,9.3661,1.7238,1.1301,0.3472,0.4477,0.4189,-59.5500,40.5000,35.2500,9.3996,0.6943,2.0183,0.0218,-0.0517,0.0943,-59.1000,10.9500,-9.6000,3.0600,4.1200,-8.4700,-0.0295,0.0273,-0.0131,-8.1875,-29.7500,28.1875,170.1250,15.6875,-154.7500,0
548.506,9.3661,1.7238,1.1301,0.3472,0.4477,0.4189,-57.9000,42.4500,36.7500,9.4355,0.8092,1.5754,0.0218,-0.0517,0.0943,-60.4500,11.4000,-9.7500,3.0600,4.1200,-8.4700,-0.0295,0.0273,-0.0131,-8.5000,-29.0000,27.3750,170.1250,15.7500,-154.7500,0
548.511,9.5864,1.7573,0.8140,0.3504,0.4064,0.4143,-57.9000,42.4500,36.7500,9.4355,0.8092,1.5754,-0.0738,-0.0957,0.0981,-60.4500,11.4000,-9.7500,3.0500,4.1300,-8.4500,-0.0349,0.0273,-0.0131,-8.5000,-29.0000,27.3750,170.1250,15.7500,-154.7500,0
548.515,9.5864,1.7573,0.8140,0.3504,0.4064,0.4143,-59.5500,43.5000,38.4000,9.3805,0.9481,1.2665,-0.0738,-0.0957,0.0981,-59.7000,11.4000,-10.8000,3.0500,4.1300,-8.4500,-0.0349,0.0273,-0.0131,-8.5000,-29.0000,27.3750,170.1250,15.7500,-154.6875,0
548.520,9.4571,1.8435,0.7614,0.3595,0.4525,0.4005,-59.5500,43.5000,38.4000,9.3805,0.9481,1.2665,-0.0951,-0.0770,0.0874,-59.7000,11.4000,-10.8000,3.0800,4.1400,-8.4200,-0.0349,0.0273,-0.0142,-8.5000,-29.0000,27.3750,170.1250,15.7500,-154.6875,0
548.525,9.4571,1.8435,0.7614,0.3595,0.4525,0.4005,-59.2500,45.4500,36.7500,9.3709,1.1899,0.9361,-0.0951,-0.0770,0.0874,-59.5500,10.5000,-9.9000,3.0800,4.1400,-8.4200,-0.0251,0.0218,-0.0131,-8.5000,-29.0000,27.3750,170.1250,15.8125,-154.6875,0
548.530,8.3701,2.0734,0.9481,0.4005,0.2579,0.3858,-59.2500,45.4500,36.7500,9.3709,1.1899,0.9361,-0.0288,-0.0370,0.0853,-59.5500,10.5000,-9.9000,3.0400,4.0800,-8.4400,-0.0251,0.0218,-0.0131,-8.5000,-29.0000,27.3750,170.1250,15.8125,-154.6875,0
548.540,9.6367,2.1213,0.2538,0.3427,0.5119,0.3688,-57.9000,47.7000,37.8000,9.3350,1.6472,1.0104,0.1164,-0.0115,0.0733,-60.4500,11.8500,-11.2500,3.0300,4.1200,-8.4200,-0.0185,0.0131,-0.0153,-8.5000,-29.0000,27.3750,170.1250,15.8125,-154.6250,0
548.544,9.6367,2.1213,0.2538,0.3427,0.5119,0.3688,-57.9000,47.7000,37.8000,9.0836,1.5514,0.7829,0.1164,-0.0115,0.0733,-60.4500,11.8500,-11.2500,3.0300,4.1200,-8.4200,-0.0175,0.0175,-0.0153,-8.5000,-29.0000,27.3750,170.1250,15.8750,-154.6250,0
548.551,9.1722,2.2529,0.1437,0.3488,0.3019,0.3619,-57.9000,47.7000,37.8000,9.0836,1.5514,0.7829,0.2864,0.0168,0.0805,-60.4500,11.8500,-11.2500,3.0500,4.0600,-8.4600,-0.0175,0.0175,-0.0153,-8.5000,-29.0000,27.3750,170.1250,15.8750,-154.6250,0
548.555,9.1722,2.2529,0.1437,0.3488,0.3019,0.3619,-57.9000,47.7000,37.8000,9.1961,1.1133,0.5794,0.3946,0.0749,0.0917,-59.7000,12.6000,-11.2500,3.0500,4.0600,-8.4600,-0.0109,0.0218,-0.0153,-7.7500,-29.0000,28.5625,170.1250,15.8750,-154.6250,0
548.561,9.2344,2.2841,0.0431,0.3445,0.4085,0.3469,-57.9000,47.7000,37.8000,9.1961,1.1133,0.5794,0.3946,0.0749,0.0917,-59.7000,12.6000,-11.2500,3.0700,4.0600,-8.4700,-0.0109,0.0218,-0.0153,-7.7500,-29.0000,28.5625,170.1250,15.8750,-154.6250,0
548.570,9.2344,2.3511,0.1317,0.3629,0.3621,0.3291,-55.8000,49.8000,40.5000,9.2488,1.0080,0.6321,0.3531,0.1079,0.0975,-59.7000,12.6000,-11.2500,3.0400,4.1200,-8.4700,-0.0120,0.0240,-0.0185,-7.7500,-29.0000,28.5625,170.1250,15.8750,-154.6250,0
548.576,9.2344,2.3511,0.1317,0.3629,0.3621,0.3291,-55.8000,52.8000,41.2500,9.1267,1.0295,0.5387,0.1791,0.1426,0.1045,-60.3000,10.9500,-9.6000,3.0900,4.1600,-8.4600,-0.0153,0.0284,-0.0142,-7.7500,-29.0000,28.5625,170.1250,15.9375,-154.5625,0
548.581,9.0333,2.0997,0.3400,0.4778,0.3874,0.3104,-55.8000,52.8000,41.2500,9.1267,1.0295,0.5387,0.1791,0.1426,0.1045,-60.3000,10.9500,-9.6000,3.0900,4.1600,-8.4600,-0.0153,0.0284,-0.0142,-7.7500,-29.0000,28.5625,170.1250,16.0000,-154.5625,0
548.590,9.2368,2.3822,0.6297,0.6315,0.4525,0.2955,-54.3000,51.1500,41.1000,9.2608,1.2761,0.5100,0.0810,0.1772,0.1127,-60.7500,10.5000,-10.6500,3.1100,4.3000,-8.3500,-0.0175,0.0251,-0.0131,-7.7500,-29.0000,28.5625,170.1250,16.0000,-154.5625,0
548.598,10.0963,2.0853,0.4381,0.5332,0.3810,0.2627,-54.3000,52.9500,41.1000,9.4427,1.5490,0.9313,0.1700,0.2158,0.1180,-60.9000,11.4000,-11.5500,3.0600,4.2900,-8.3700,-0.0087,0.0229,-0.0153,-7.7500,-29.0000,28.5625,170.1250,16.0000,-154.5625,0
548.603,10.0963,2.0853,0.4381,0.5332,0.3810,0.2627,-54.3000,52.9500,41.1000,9.4643,1.3695,1.5131,0.2113,0.2529,0.1162,-60.9000,11.4000,-11.5500,3.0600,4.2900,-8.3700,-0.0087,0.0229,-0.0153,-7.7500,-29.0000,28.5625,170.1250,16.0000,-154.5625,0
548.608,9.5648,1.6831,0.6800,0.4205,0.2164,0.2268,-54.3000,52.9500,41.1000,9.4643,1.3695,1.5131,0.2113,0.2529,0.1162,-60.7500,11.7000,-9.1500,3.0200,4.2700,-8.4000,0.0175,0.0142,-0.0196,-8.1875,-30.1875,27.7500,170.2500,16.0625,-154.5000,0
548.613,9.5648,1.6831,0.6800,0.4205,0.2164,0.2268,-54.7500,52.5000,42.3000,9.6391,0.9649,2.0614,0.2145,0.2598,0.1300,-60.7500,11.7000,-9.1500,3.0200,4.2700,-8.4000,0.0175,0.0142,-0.0196,-8.1875,-30.1875,27.7500,170.2500,16.0625,-154.5000,0
548.620,9.3398,1.3168,1.3120,0.4263,0.2907,0.2329,-54.7500,52.5000,42.3000,9.6391,0.9649,2.0614,0.2145,0.2598,0.1300,-60.9000,10.6500,-10.0500,2.9900,4.1300,-8.4700,0.0273,0.0131,-0.0164,-8.1875,-30.1875,27.7500,170.2500,16.0625,-154.5000,0
548.628,9.5960,1.2785,1.6305,0.3547,0.3429,0.2518,-54.6000,52.2000,42.9000,9.5624,0.8547,2.2122,0.1468,0.2566,0.1434,-60.4500,12.3000,-8.7000,3.1000,4.0300,-8.5300,0.0273,0.0076,-0.0131,-8.1875,-30.1875,27.7500,170.2500,16.0625,-154.5625,0
548.633,9.5960,1.2785,1.6305,0.3547,0.3429,0.2518,-55.2000,53.2500,42.7500,9.6845,1.0630,2.6121,0.1039,0.2603,0.1743,-60.4500,12.3000,-8.7000,3.1000,4.0300,-8.5300,0.0273,0.0076,-0.0131,-8.1875,-30.1875,27.7500,170.2500,16.0625,-154.5625,0
548.640,9.6031,1.3048,1.9369,0.2188,0.3067,0.2814,-55.2000,53.2500,42.7500,9.7707,1.1995,2.4086,0.1039,0.2603,0.1743,-60.4500,12.3000,-8.7000,3.0200,4.0900,-8.5100,0.0240,0.0076,-0.0076,-8.1875,-30.1875,27.7500,170.2500,16.0625,-154.5625,0
548.650,9.5050,1.2737,2.1237,0.0914,0.3072,0.3160,-54.3000,53.4000,42.9000,9.4571,1.0032,2.1979,0.0226,0.2206,0.1980,-59.5500,10.0500,-9.9000,3.0200,4.1400,-8.4900,0.0065,0.0164,-0.0109,-8.1875,-30.1875,27.7500,170.2500,16.1250,-154.5625,0
548.655,9.4451,1.2713,2.1476,0.0016,0.2931,0.3421,-54.3000,51.9000,43.2000,9.4571,1.0032,2.1979,0.0269,0.2092,0.2052,-59.5500,10.0500,-9.9000,3.0200,4.1400,-8.4900,0.0065,0.0164,-0.0109,-8.1875,-30.1875,27.7500,170.5000,16.1250,-154.5000,0
548.660,9.4451,1.2713,2.1476,0.0016,0.2931,0.3421,-54.3000,51.9000,43.2000,9.6582,0.9864,2.0446,0.0250,0.2118,0.2337,-60.1500,10.3500,-9.0000,3.1200,4.2100,-8.4500,-0.0142,0.0218,-0.0076,-8.5000,-29.7500,27.0000,170.5000,16.1250,-154.5000,0
548.667,9.4451,1.2139,1.8076,-0.0509,0.3107,0.3555,-54.3000,51.9000,43.2000,9.6582,0.9864,2.0446,0.0250,0.2118,0.2337,-61.2000,10.6500,-7.9500,3.0800,4.1500,-8.5300,-0.0142,0.0218,-0.0076,-8.5000,-29.7500,27.0000,170.5000,16.1875,-154.5000,0
548.671,9.4451,1.2139,1.8076,-0.0509,0.3107,0.3555,-56.5500,52.0500,43.8000,9.3709,0.7925,1.9680,-0.0123,0.1953,0.2324,-61.2000,10.6500,-7.9500,3.0800,4.1500,-8.5300,-0.0142,0.0218,-0.0076,-8.5000,-29.7500,27.0000,170.5000,16.1875,-154.5000,0
548.680,9.5217,1.3455,1.4102,-0.0669,0.3293,0.3557,-56.5500,52.0500,43.8000,9.3805,0.7446,1.5897,-0.0442,0.2222,0.2353,-60.1500,11.8500,-9.3000,3.1100,4.1700,-8.5400,-0.0415,0.0327,-0.0065,-8.5000,-29.7500,27.0000,170.5000,16.1875,-154.5000,0
548.686,9.6965,1.3647,1.1492,-0.0786,0.2745,0.3456,-55.6500,51.1500,41.8500,9.3805,0.7446,1.5897,-0.0442,0.2222,0.2353,-60.7500,9.7500,-9.9000,3.0800,4.1600,-8.5100,-0.0600,0.0349,-0.0076,-8.5000,-29.7500,27.0000,170.5000,16.2500,-154.4375,0
548.691,9.6965,1.3647,1.1492,-0.0786,0.2745,0.3456,-54.7500,50.2500,42.3000,9.3470,0.8667,1.7573,-0.0685,0.2422,0.2273,-60.7500,9.7500,-9.9000,3.0800,4.1600,-8.5100,-0.0600,0.0349,-0.0076,-8.5000,-29.7500,27.0000,170.5000,16.2500,-154.4375,0
548.700,9.5840,1.4246,0.9290,-0.1087,0.2156,0.3293,-53.1000,51.1500,44.2500,9.3805,0.9960,1.7741,-0.1034,0.2571,0.2435,-60.4500,11.1000,-9.7500,3.0700,4.1000,-8.5300,-0.0796,0.0415,-0.0033,-8.5000,-29.7500,27.0000,170.5000,16.2500,-154.3750,0
548.705,9.6151,1.3527,0.7590,-0.1476,0.1639,0.3096,-53.1000,51.1500,44.2500,9.3805,0.9960,1.7741,-0.1034,0.2571,0.2435,-60.4500,11.1000,-9.7500,3.0700,4.1000,-8.5300,-0.0796,0.0415,-0.0033,-8.5000,-29.7500,27.0000,170.5000,16.2500,-154.3750,0
548.710,9.6151,1.3527,0.7590,-0.1476,0.1639,0.3096,-53.1000,51.1500,44.2500,9.3661,1.0127,1.6496,-0.1130,0.2673,0.2486,-60.4500,11.1000,-9.7500,3.1000,4.1400,-8.5100,-0.0993,0.0491,-0.0022,-8.8750,-29.3750,28.1875,170.6875,16.3125,-154.3125,0
548.715,9.5170,1.2594,0.7015,-0.1988,0.1085,0.3147,-53.1000,51.1500,44.2500,9.3661,1.0127,1.6496,-0.1130,0.2673,0.2486,-60.4500,11.1000,-9.7500,3.1000,4.1400,-8.5100,-0.0993,0.0491,-0.0022,-8.8750,-29.3750,28.1875,170.6875,16.3125,-154.3125,0
548.720,9.5170,1.2594,0.7015,-0.1988,0.1085,0.3147,-53.1000,51.1500,44.2500,9.2991,1.0511,1.6448,-0.1487,0.2966,0.2582,-60.7500,11.7000,-9.6000,3.1000,4.1600,-8.5300,-0.1178,0.0545,-0.0011,-8.8750,-29.3750,28.1875,170.6875,16.3750,-154.2500,0
548.725,9.4667,1.3527,0.6608,-0.2425,0.0608,0.3136,-53.1000,51.1500,44.2500,9.2991,1.0511,1.6448,-0.1487,0.2966,0.2582,-60.7500,11.7000,-9.6000,3.1000,4.1600,-8.5300,-0.1178,0.0545,-0.0011,-8.8750,-29.3750,28.1875,170.6875,16.3750,-154.1875,0
548.731,9.4667,1.3527,0.6608,-0.2425,0.0608,0.3136,-53.8500,51.1500,42.9000,9.4164,1.1277,1.5419,-0.1703,0.3232,0.2745,-60.7500,11.7000,-9.6000,3.1500,4.2700,-8.4900,-0.1385,0.0600,-0.0011,-8.8750,-29.3750,28.1875,170.6875,16.3750,-154.1875,0
548.739,9.4188,1.4078,0.6416,-0.2617,0.0203,0.3240,-53.8500,51.1500,42.9000,9.3206,1.1660,1.3791,-0.1729,0.3456,0.2888,-61.8000,11.2500,-8.4000,3.1400,4.2800,-8.4800,-0.1484,0.0622,0.0055,-8.8750,-29.3750,28.1875,170.6875,16.4375,-154.0625,0
548.744,9.6295,1.5036,0.7326,-0.2531,-0.0179,0.3323,-54.4500,51.3000,44.4000,9.3206,1.1660,1.3791,-0.1729,0.3456,0.2888,-61.8000,11.2500,-8.4000,3.1400,4.2800,-8.4800,-0.1484,0.0622,0.0055,-8.8750,-29.3750,28.1875,170.7500,16.5000,-154.0000,0
548.751,9.7300,1.7071,0.7973,-0.2145,-0.0749,0.3269,-54.9000,49.9500,45.3000,9.2703,1.1708,1.1349,-0.1745,0.3890,0.3011,-61.0500,10.9500,-8.1000,3.1500,4.2900,-8.4700,-0.1604,0.0709,0.0087,-8.8750,-29.3750,28.1875,170.7500,16.5000,-154.0000,0
548.756,9.7300,1.7071,0.7973,-0.2145,-0.0749,0.3269,-54.9000,49.9500,45.3000,9.3733,1.5778,1.0439,-0.1745,0.3890,0.3011,-61.0500,10.9500,-8.1000,3.1500,4.2900,-8.4700,-0.1604,0.0709,0.0087,-8.8750,-29.3750,28.1875,170.8125,16.5625,-153.8750,0
548.761,10.0604,1.9106,0.9218,-0.1532,-0.0911,0.3056,-54.7500,51.3000,44.1000,9.3733,1.5778,1.0439,-0.1535,0.4290,0.3280,-60.1500,11.4000,-8.7000,3.1200,4.2300,-8.5300,-0.1789,0.0796,0.0098,-8.1875,-30.1875,27.3750,170.8125,16.5625,-153.8750,0
548.766,10.0604,1.9106,0.9218,-0.1532,-0.0911,0.3056,-54.7500,51.3000,44.1000,9.5385,1.8938,0.7614,-0.0970,0.4802,0.3653,-60.1500,11.4000,-8.7000,3.1200,4.2300,-8.5300,-0.1789,0.0796,0.0098,-8.1875,-30.1875,27.3750,170.8125,16.6250,-153.7500,0
548.771,10.3214,2.2745,0.9697,-0.0898,-0.1194,0.2827,-54.7500,51.3000,44.1000,9.5385,1.8938,0.7614,-0.0970,0.4802,0.3653,-60.4500,9.9000,-7.9500,3.0300,4.2000,-8.6000,-0.2051,0.1025,0.0065,-8.1875,-30.1875,27.3750,170.8125,16.6250,-153.7500,0
548.776,10.3214,2.2745,0.9697,-0.0898,-0.1194,0.2827,-54.7500,51.3000,44.1000,9.8593,1.3958,0.8571,0.0245,0.5457,0.3864,-60.4500,9.9000,-7.9500,3.0300,4.2000,-8.6000,-0.2574,0.1473,0.0022,-8.1875,-30.1875,27.3750,170.8125,16.6875,-153.5625,0
548.781,10.6781,2.6121,0.8763,0.0040,-0.1705,0.2542,-53.1000,50.4000,42.4500,9.8593,1.3958,0.8571,0.0245,0.5457,0.3864,-61.8000,9.7500,-7.3500,3.0000,4.1300,-8.7400,-0.2574,0.1473,0.0022,-8.1875,-30.1875,27.3750,170.8125,16.6875,-153.5625,0
548.790,10.5441,2.7869,0.8140,0.0509,-0.1868,0.2142,-55.2000,51.0000,43.8000,10.1466,0.3496,0.8212,-0.0011,0.5937,0.3960,-60.7500,10.0500,-7.6500,3.0100,4.5300,-8.6500,-0.3262,0.2018,0.0055,-8.1875,-30.1875,27.3750,170.8125,16.8125,-153.3750,0
548.795,10.5441,2.7869,0.8140,0.0509,-0.1868,0.2142,-55.2000,51.0000,43.8000,10.1993,-0.1125,0.6728,-0.1823,0.6238,0.3992,-60.7500,10.0500,-7.6500,3.0100,4.5300,-8.6500,-0.4069,0.2520,0.0229,-8.1875,-30.1875,27.3750,170.8750,16.9375,-153.1250,0
548.801,10.4770,2.9473,0.6584,0.0861,-0.1772,0.1753,-54.4500,50.5500,43.8000,10.1993,-0.1125,0.6728,-0.1823,0.6238,0.3992,-60.7500,10.0500,-7.6500,2.9700,4.4400,-8.7100,-0.4069,0.2520,0.0229,-8.1875,-30.1875,27.3750,170.8750,16.9375,-153.1250,0
548.806,10.4770,2.9473,0.6584,0.0861,-0.1772,0.1753,-54.4500,50.5500,43.8000,10.3022,-0.1341,0.6009,-0.3421,0.6606,0.4197,-60.7500,10.0500,-7.6500,2.9700,4.4400,-8.7100,-0.5007,0.3022,0.0578,-7.5000,-30.1875,28.5625,170.8125,17.0625,-152.8750,0
548.811,10.7571,2.9185,0.2777,0.1340,-0.1815,0.1452,-55.3500,51.1500,43.2000,10.3022,-0.1341,0.6009,-0.3421,0.6606,0.4197,-60.7500,9.7500,-8.1000,3.0700,4.2000,-8.8200,-0.5007,0.3022,0.0578,-7.5000,-30.1875,28.5625,170.8125,17.0625,-152.8750,0
548.816,10.7571,2.9185,0.2777,0.1340,-0.1815,0.1452,-55.3500,51.1500,43.2000,10.6422,-0.1820,0.7063,-0.4109,0.7032,0.4421,-60.7500,9.7500,-8.1000,3.0700,4.2000,-8.8200,-0.6120,0.3763,0.0851,-7.5000,-30.1875,28.5625,170.8750,17.3125,-152.5000,0
548.821,11.0253,3.0119,-0.0192,0.1074,-0.2438,0.1175,-56.2500,51.0000,43.8000,10.6422,-0.1820,0.7063,-0.4109,0.7032,0.4421,-60.7500,9.7500,-8.1000,2.9800,4.2100,-9.0300,-0.6120,0.3763,0.0851,-7.5000,-30.1875,28.5625,170.8750,17.3125,-152.5000,0
548.826,11.0253,3.0119,-0.0192,0.1074,-0.2438,0.1175,-56.2500,51.0000,43.8000,10.8936,-0.7709,0.2442,-0.4823,0.7615,0.4580,-60.7500,9.7500,-8.1000,2.9800,4.2100,-9.0300,-0.7516,0.4767,0.1145,-7.5000,-30.1875,28.5625,170.9375,17.5625,-152.0625,0
548.831,11.1474,2.7940,-0.2849,0.0456,-0.3014,0.0799,-56.2500,51.0000,43.8000,10.8936,-0.7709,0.2442,-0.4823,0.7615,0.4580,-61.6500,8.7000,-7.2000,3.0200,4.3600,-9.2600,-0.7516,0.4767,0.1145,-7.5000,-30.1875,28.5625,171.0625,17.8750,-151.5625,0
548.841,11.0852,2.5307,-0.7350,-0.0171,-0.3778,0.0498,-54.6000,52.6500,42.1500,10.9630,-1.1253,-0.1389,-0.6129,0.8378,0.4732,-61.0500,9.7500,-7.3500,2.9600,4.4300,-9.3200,-0.9087,0.5901,0.1538,-7.5000,-30.1875,28.5625,171.0625,17.8750,-151.5625,0
548.850,10.6326,2.4277,-1.2043,-0.0061,-0.4538,0.0077,-54.7500,52.5000,43.0500,10.7476,-1.1253,-0.9625,-0.7338,0.9465,0.4991,-61.8000,10.5000,-5.1000,2.8000,4.6000,-9.3600,-1.0167,0.7418,0.1898,-7.5000,-30.1875,28.5625,171.1250,18.3125,-150.9375,0
548.855,10.6326,2.4277,-1.2043,-0.0061,-0.4538,0.0077,-54.7500,52.5000,43.0500,10.3765,-1.2426,-1.2713,-0.7639,1.1016,0.5500,-61.8000,10.5000,-5.1000,2.8000,4.6000,-9.3600,-1.0167,0.7418,0.1898,-7.5000,-30.1875,28.5625,171.1250,18.3125,-150.9375,0
548.860,10.5536,2.5666,-2.0782,0.0410,-0.5774,-0.0488,-55.8000,53.5500,42.3000,10.3765,-1.2426,-1.2713,-0.7639,1.1016,0.5500,-61.9500,8.7000,-5.7000,2.8600,3.4500,-9.9100,-1.0319,0.9392,0.1778,-8.1875,-30.8750,26.1875,171.2500,18.8125,-150.3125,0
548.865,10.5536,2.5666,-2.0782,0.0410,-0.5774,-0.0488,-55.8000,53.5500,42.3000,10.2975,1.3455,-1.8124,-0.7757,1.2753,0.6235,-61.9500,8.7000,-5.7000,2.8600,3.4500,-9.9100,-1.0319,0.9392,0.1778,-8.1875,-30.8750,26.1875,171.2500,18.8125,-150.3125,0
548.870,10.1634,2.8539,-2.7988,0.1188,-0.7293,-0.1196,-55.6500,53.4000,41.4000,10.7763,1.7454,-2.7533,-0.7757,1.2753,0.6235,-61.6500,9.4500,-4.9500,2.3400,3.8100,-9.4800,-1.0952,1.1432,0.2083,-8.1875,-30.8750,26.1875,171.3125,19.3750,-149.6250,0
548.875,10.1634,2.8539,-2.7988,0.1188,-0.7293,-0.1196,-55.6500,53.4000,41.4000,10.7763,1.7454,-2.7533,-0.5689,1.3616,0.6470,-61.6500,9.4500,-4.9500,2.3400,3.8100,-9.4800,-1.2305,1.3308,0.3469,-8.1875,-30.8750,26.1875,171.4375,20.1250,-148.8750,0
548.881,9.8761,3.2585,-3.2848,0.2313,-0.9438,-0.2334,-55.6500,53.4000,41.4000,10.6255,1.5275,-2.4014,-0.4325,1.5114,0.6595,-60.1500,7.2000,-4.5000,2.7700,5.1700,-9.1900,-1.2305,1.3308,0.3469,-8.1875,-30.8750,26.1875,171.5625,21.0625,-148.1875,0
548.891,9.2177,3.4907,-4.0558,0.3770,-1.1375,-0.3802,-55.6500,53.4000,41.4000,11.3677,1.3144,-1.4700,-0.3720,1.6755,0.6984,-60.1500,7.2000,-4.5000,2.6200,5.4500,-8.6600,-1.0777,1.6439,0.4592,-8.1875,-30.8750,26.1875,171.5625,21.0625,-148.1875,0
548.901,9.0190,3.7685,-5.1068,0.6366,-1.2686,-0.5281,-54.7500,54.0000,41.5500,11.7675,1.0678,-0.9744,-0.4389,1.7328,0.7096,-62.4000,6.0000,-3.4500,2.0000,5.8200,-8.3300,-0.8738,1.9602,0.6720,-8.1875,-30.8750,26.1875,171.7500,22.1875,-147.6250,0
548.905,8.8107,4.0701,-5.5689,0.9092,-1.4117,-0.6840,-54.7500,54.0000,41.5500,11.7675,1.0678,-0.9744,-0.4389,1.7328,0.7096,-62.4000,6.0000,-3.4500,2.0000,5.8200,-8.3300,-0.8738,1.9602,0.6720,-8.1875,-30.8750,26.1875,172.1250,23.5000,-147.1250,0
548.911,8.8107,4.0701,-5.5689,0.9092,-1.4117,-0.6840,-52.8000,54.1500,41.1000,11.7747,1.2546,0.3089,-0.4402,1.6409,0.6550,-62.4000,6.0000,-3.4500,2.0000,6.1500,-7.9700,-0.6981,2.2449,1.0472,-10.0000,-31.1875,24.6875,172.1250,23.5000,-147.1250,0
548.915,9.3302,4.5873,-5.4636,0.8212,-1.5857,-0.8641,-52.8000,54.1500,41.1000,11.7747,1.2546,0.3089,-0.4402,1.6409,0.6550,-62.4000,6.0000,-3.4500,2.0000,6.1500,-7.9700,-0.6981,2.2449,1.0472,-10.0000,-31.1875,24.6875,172.6875,25.1875,-146.8125,0
548.921,9.3302,4.5873,-5.4636,0.8212,-1.5857,-0.8641,-54.0000,53.5500,41.2500,13.1681,1.9393,1.0798,-0.4245,1.7632,0.6606,-61.0500,7.8000,-1.8000,3.1100,5.4400,-7.5200,-0.5203,2.5176,1.5261,-10.0000,-31.1875,24.6875,172.6875,25.1875,-146.8125,0
548.925,9.4547,4.1875,-3.8164,0.3336,-2.0880,-1.0576,-54.0000,53.5500,41.2500,13.1681,1.9393,1.0798,-0.4245,1.7632,0.6606,-61.0500,7.8000,-1.8000,3.1100,5.4400,-7.5200,-0.3905,2.5613,1.8860,-10.0000,-31.1875,24.6875,173.3750,26.9375,-146.6875,0
548.931,9.4547,4.1875,-3.8164,0.3336,-2.0880,-1.0576,-53.5500,55.6500,40.0500,11.2288,2.3439,1.3120,-0.5963,1.8919,0.7400,-60.7500,6.1500,0.0000,4.2500,7.8300,-8.5000,-0.3905,2.5613,1.8860,-10.0000,-31.1875,24.6875,174.2500,28.7500,-146.8125,0
548.941,9.4691,2.7892,-1.4413,0.2108,-1.7824,-1.1218,-53.5500,55.6500,40.0500,11.7962,2.4517,1.7669,-0.5276,1.8370,0.8274,-59.8500,4.2000,0.3000,3.8200,6.0200,-8.1400,0.0098,2.4544,2.2471,-10.0000,-31.1875,24.6875,174.2500,28.7500,-146.8125,0
548.951,10.3406,2.2194,1.1468,0.2689,-1.6345,-1.1119,-52.6500,56.2500,37.0500,11.7292,1.9297,2.2769,-0.2979,1.7704,0.8753,-61.0500,5.8500,2.1000,4.2800,7.4900,-8.1200,0.4374,2.5929,2.5896,-10.0000,-31.1875,24.6875,175.1875,30.7500,-147.3125,0
548.956,11.0468,1.9848,2.1021,-0.0304,-1.4759,-1.1056,-52.0500,55.2000,37.0500,11.7292,1.9297,2.2769,-0.2979,1.7704,0.8753,-61.0500,5.8500,2.1000,4.2800,7.4900,-8.1200,0.4374,2.5929,2.5896,-10.0000,-31.1875,24.6875,175.1875,30.7500,-147.3125,0
548.961,11.0468,1.9848,2.1021,-0.0304,-1.4759,-1.1056,-52.0500,55.2000,36.4500,11.5377,1.9848,2.7892,-0.0951,1.5436,0.8559,-60.9000,4.8000,1.9500,5.3300,11.5400,-7.2400,1.1454,2.6474,2.8656,-12.5625,-31.1875,22.2500,176.2500,32.8125,-148.3125,0
548.965,12.6797,2.0351,2.1955,-0.2595,-1.1977,-1.1080,-52.6500,56.2500,35.5500,11.5377,1.9848,2.7892,-0.0951,1.5436,0.8559,-60.9000,4.8000,1.9500,5.3300,11.5400,-7.2400,1.1454,2.6474,2.8656,-12.5625,-31.1875,22.2500,176.2500,32.8125,-148.3125,0
548.970,12.6797,2.0351,2.1955,-0.2595,-1.1977,-1.1080,-52.6500,56.2500,35.5500,11.6215,2.5498,2.4517,0.0863,1.4019,0.8052,-60.3000,3.4500,3.3000,5.7800,11.1700,-7.2300,1.8620,2.4086,2.9736,-12.5625,-31.1875,22.2500,177.1875,34.8125,-149.8125,0
548.975,12.6893,1.4389,2.1620,-0.4234,-1.3014,-1.1445,-51.4500,58.0500,33.7500,11.6215,2.5498,2.4517,0.0863,1.4019,0.8052,-60.3000,3.4500,3.3000,5.7800,11.1700,-7.2300,2.4587,1.9613,3.0412,-12.5625,-31.1875,22.2500,178.1875,36.5625,-151.8750,0
548.981,12.6893,1.4389,2.1620,-0.4234,-1.3014,-1.1445,-51.4500,58.0500,33.7500,9.9192,3.6919,3.2609,0.0741,1.1892,0.7085,-60.3000,3.4500,3.3000,5.4300,9.4300,-7.3200,2.4587,1.9613,3.0412,-12.5625,-31.1875,22.2500,236.6250,38.3125,-154.2500,0
548.991,12.4953,0.9242,2.0662,-0.4143,-1.3150,-1.1596,-51.9000,57.7500,33.0000,7.8650,4.4580,5.1595,0.4740,1.4464,0.6177,-59.8500,4.2000,3.3000,5.1400,9.1300,-7.6400,2.8885,1.8991,3.0936,-12.5625,-31.1875,22.2500,236.6250,38.3125,-154.2500,0
549.001,11.8202,0.6536,1.9800,-0.4751,-1.2196,-1.1599,-51.9000,57.7500,33.0000,8.4252,5.2936,7.3526,1.4152,1.7176,0.5113,-59.8500,4.2000,3.3000,7.4300,9.5500,-5.8700,3.5485,2.2733,3.0151,-12.5625,-31.1875,22.2500,229.3125,40.1250,-157.0625,0
549.005,10.9247,0.4525,2.1691,-0.4117,-1.0000,-1.1732,-51.0000,58.6500,30.7500,7.9679,5.1499,10.3980,1.4152,1.7176,0.5113,-59.8500,4.2000,3.3000,7.4300,9.5500,-5.8700,3.5485,2.2733,3.0151,-12.5625,-31.1875,22.2500,229.3125,40.1250,-157.0625,0
549.011,10.9247,0.4525,2.1691,-0.4117,-1.0000,-1.1732,-51.0000,58.6500,30.7500,7.9679,5.1499,10.3980,2.3699,1.1868,0.2686,-59.7000,4.8000,3.7500,6.7700,7.4600,-8.9600,4.2346,2.6147,2.5504,-18.7500,-29.0000,21.0000,221.4375,42.0000,-160.0625,0
549.015,9.9934,0.6321,2.1907,-0.3355,-0.6550,-1.1514,-51.7500,59.4000,31.5000,6.9576,1.5610,17.2502,3.6223,1.1119,0.0562,-59.7000,4.8000,3.7500,6.7700,7.4600,-8.9600,4.2346,2.6147,2.5504,-18.7500,-29.0000,21.0000,221.4375,42.0000,-160.0625,0
549.020,9.9934,0.6321,2.1907,-0.3355,-0.6550,-1.1514,-51.7500,59.4000,31.5000,6.9576,1.5610,17.2502,3.6223,1.1119,0.0562,-59.1000,4.2000,4.8000,8.0300,3.3900,-7.4600,4.3022,2.0802,2.1097,-18.7500,-29.0000,21.0000,214.0000,43.4375,-163.1875,0
549.025,9.8904,1.6137,1.6185,-0.0778,-0.5561,-1.0848,-50.8500,59.2500,30.9000,6.3853,3.1867,7.7596,3.8650,1.3531,-0.0597,-59.1000,4.2000,4.8000,8.0300,3.3900,-7.4600,3.6281,1.9068,1.6493,-18.7500,-29.0000,21.0000,207.9375,44.7500,-165.7500,0
549.032,9.1435,2.5953,2.0279,0.4493,-0.5446,-1.0293,-50.8500,59.2500,30.9000,6.3853,3.1867,7.7596,3.8650,1.3531,-0.0597,-59.4000,3.3000,4.2000,10.8900,10.9500,-9.1000,3.6281,1.9068,1.6493,-18.7500,-29.0000,21.0000,204.8125,45.9375,-166.6250,0
549.041,10.4818,2.8180,2.2817,0.5017,-0.1844,-0.9723,-51.0000,59.7000,29.7000,9.8426,-1.9154,2.4517,2.4968,1.0083,-0.0911,-58.9500,5.5500,4.5000,0.5000,19.9800,-13.4500,1.8948,2.1282,0.2345,-18.7500,-29.0000,21.0000,204.8125,45.9375,-166.6250,0
549.051,10.9774,3.1316,2.7461,0.7077,-0.4109,-0.9726,-51.0000,59.7000,29.7000,12.3062,-3.1556,2.8012,2.2154,0.5076,0.0759,-60.1500,5.2500,2.7000,-2.0200,14.7600,-0.6400,0.8694,-0.2236,-1.9755,-18.7500,-29.0000,21.0000,204.8750,45.5000,-166.0625,0
549.056,10.9774,3.1316,2.7461,0.7077,-0.4109,-0.9726,-51.0000,59.7000,29.7000,9.8713,-0.1293,3.8666,1.4115,0.2777,0.1761,-60.1500,5.2500,2.7000,-2.0200,14.7600,-0.6400,0.8694,-0.2236,-1.9755,-18.7500,-29.0000,21.0000,204.6875,44.8125,-165.6875,0
549.061,10.5896,3.3998,3.1149,0.9920,-0.3901,-0.9947,-51.0000,59.7000,29.7000,9.8713,-0.1293,3.8666,1.4115,0.2777,0.1761,-57.6000,5.8500,3.3000,-1.7500,8.2800,0.5000,1.5184,-0.7887,-2.4020,-24.2500,-22.3750,21.3750,204.6875,44.8125,-165.6875,0
549.066,10.5896,3.3998,3.1149,0.9920,-0.3901,-0.9947,-53.1000,60.9000,27.6000,7.2281,1.3767,5.1068,0.9238,-0.2054,0.2004,-57.6000,5.8500,3.3000,-1.7500,8.2800,0.5000,1.5184,-0.7887,-2.4020,-24.2500,-22.3750,21.3750,204.6875,44.8125,-165.6875,0
549.071,10.0102,3.3208,3.3543,1.1183,-0.3248,-0.9798,-53.1000,60.9000,27.6000,7.2281,1.3767,5.1068,0.9238,-0.2054,0.2004,-57.6000,5.8500,3.3000,-2.1400,6.4800,-1.3900,1.6493,0.8890,-2.5067,-24.2500,-22.3750,21.3750,203.6875,44.9375,-165.1875,0
549.076,10.0102,3.3208,3.3543,1.1183,-0.3248,-0.9798,-52.3500,60.4500,27.6000,5.1978,1.8196,5.2888,1.1130,-0.4972,0.2481,-57.6000,5.8500,3.3000,-2.1400,6.4800,-1.3900,0.9010,1.4399,-3.2583,-24.2500,-22.3750,21.3750,203.9375,45.1875,-163.6875,0
549.082,9.7276,2.8778,2.6647,1.1634,-0.2148,-0.9427,-52.3500,60.4500,27.6000,4.6831,2.6097,4.9823,1.1130,-0.4972,0.2481,-58.8000,6.1500,2.8500,-0.7700,2.9400,-3.7300,0.9010,1.4399,-3.2583,-24.2500,-22.3750,21.3750,205.5000,45.1875,-161.6875,0
549.091,9.4475,2.4349,1.6209,1.2017,-0.2819,-0.9326,-55.2000,57.0000,23.4000,4.6831,2.6097,4.9823,1.3502,-0.7165,0.1935,-58.8000,6.1500,2.8500,2.4900,5.6700,-4.9500,-0.0076,1.0952,-3.4743,-24.2500,-22.3750,21.3750,205.5000,45.1875,-161.6875,0
549.101,9.3134,2.2865,0.4477,1.2705,-0.3445,-0.9526,-53.8500,56.4000,25.0500,6.0118,1.8411,3.9672,1.5274,-0.9110,0.0466,-60.3000,6.6000,0.6000,3.9600,6.6200,-7.1800,-0.0535,1.0974,-3.0532,-24.2500,-22.3750,21.3750,206.8125,45.2500,-159.8125,0
549.106,9.3134,2.2865,0.4477,1.2705,-0.3445,-0.9526,-53.8500,56.4000,25.0500,6.0118,1.8411,3.9672,1.6974,-1.1540,-0.0999,-60.3000,6.6000,0.6000,3.9600,6.6200,-7.1800,-0.0535,1.0974,-3.0532,-24.2500,-22.3750,21.3750,206.8125,45.2500,-159.8125,0
549.111,9.0285,2.0039,-0.1053,1.3201,-0.3712,-0.9457,-53.8500,56.4000,25.0500,6.5074,0.7829,4.2784,1.6974,-1.1540,-0.0999,-60.3000,6.1500,0.0000,4.0600,4.8600,-7.7600,0.2094,0.3534,-2.8045,-23.6875,-22.0625,21.3750,208.0625,44.8750,-158.4375,0
549.116,9.0285,2.0039,-0.1053,1.3201,-0.3712,-0.9457,-55.3500,53.4000,22.5000,6.5074,0.7829,4.2784,1.7336,-1.3456,-0.1969,-60.3000,6.1500,0.0000,4.0600,4.8600,-7.7600,0.2094,0.3534,-2.8045,-23.6875,-22.0625,21.3750,208.0625,44.8750,-158.4375,0
549.121,8.7580,1.5874,-0.3376,1.4162,-0.2710,-0.9265,-55.3500,53.4000,22.5000,7.1467,0.3160,4.7405,1.7336,-1.3456,-0.1969,-60.1500,5.2500,0.1500,3.9500,2.5900,-7.4300,0.2956,-0.6283,-2.5024,-23.6875,-22.0625,21.3750,209.3750,44.0000,-157.4375,0
549.126,8.7580,1.5874,-0.3376,1.4162,-0.2710,-0.9265,-56.2500,53.5500,21.6000,7.1467,0.3160,4.7405,1.5005,-1.4965,-0.2172,-60.1500,5.2500,0.1500,3.9500,2.5900,-7.4300,0.0535,-1.3494,-2.0889,-23.6875,-22.0625,21.3750,211.0625,42.8750,-156.7500,0
549.132,8.5449,1.3240,-0.4334,1.5196,-0.1452,-0.8903,-56.2500,53.5500,21.6000,7.6519,-0.8356,4.2952,1.1069,-1.6292,-0.2092,-59.8500,7.3500,-0.3000,2.5900,2.2700,-6.3100,0.0535,-1.3494,-2.0889,-23.6875,-22.0625,21.3750,213.2500,41.6250,-156.1250,0
549.141,8.7245,1.0774,-0.2011,1.5937,-0.0522,-0.8404,-55.3500,52.2000,20.1000,8.4084,-1.5443,4.2904,0.5729,-1.7477,-0.2446,-59.8500,5.8500,-2.8500,3.3200,3.4500,-6.6000,-0.3229,-1.6984,-1.6864,-23.6875,-22.0625,21.3750,213.2500,41.6250,-156.1250,0
549.151,7.8913,0.7757,-0.3543,1.5199,-0.2156,-0.7773,-55.3500,51.4500,20.1000,8.4491,-1.6807,3.7972,-0.0594,-1.9015,-0.2864,-60.7500,7.3500,-3.3000,4.3200,4.4300,-7.0800,-0.4909,-2.0246,-1.3461,-23.6875,-22.0625,21.3750,215.6875,40.3125,-155.6250,0
549.156,7.8913,0.7757,-0.3543,1.5199,-0.2156,-0.7773,-55.2000,51.0000,21.0000,8.4491,-1.6807,3.7972,-0.0594,-1.9015,-0.2864,-60.7500,7.3500,-3.3000,4.3200,4.4300,-7.0800,-0.4909,-2.0246,-1.3461,-23.6875,-22.0625,21.3750,163.6875,38.8125,-155.3750,0
549.161,10.1131,1.3072,-0.2729,1.7624,0.5015,-0.7104,-55.2000,51.0000,21.0000,8.3558,-1.2785,3.4285,-0.5833,-2.1043,-0.3331,-60.7500,7.3500,-3.3000,4.8900,3.8100,-6.7000,-0.4734,-2.4129,-1.0745,-20.5000,-26.3750,21.3750,163.6875,38.8125,-155.3750,0
549.166,10.1131,1.3072,-0.2729,1.7624,0.5015,-0.7104,-55.2000,51.0000,21.0000,8.3558,-1.2785,3.4285,-0.5833,-2.1043,-0.3331,-60.7500,7.3500,-3.3000,4.8900,3.8100,-6.7000,-0.4734,-2.4129,-1.0745,-20.5000,-26.3750,21.3750,163.6250,37.2500,-155.3125,0
549.171,8.9639,1.1947,-0.7111,1.8271,0.1077,-0.6403,-55.2000,51.0000,21.0000,8.5114,-0.3448,4.4101,-0.9228,-2.2540,-0.3499,-61.6500,7.5000,-4.2000,4.3200,2.4600,-5.8100,-0.4298,-2.7718,-0.8410,-20.5000,-26.3750,21.3750,163.6250,37.2500,-155.3125,0
549.176,9.1889,1.0295,-0.7901,1.8213,0.0645,-0.5985,-54.9000,48.9000,19.3500,8.5114,-0.3448,4.4101,-0.9228,-2.2540,-0.3499,-61.6500,7.5000,-4.2000,4.3200,2.4600,-5.8100,-0.5367,-2.8492,-0.5432,-20.5000,-26.3750,21.3750,163.7500,35.6875,-155.3125,0
549.182,9.1889,1.0295,-0.7901,1.8213,0.0645,-0.5985,-54.4500,47.2500,18.1500,8.1786,0.7590,4.1683,-1.3051,-2.2862,-0.4229,-61.6500,7.5000,-4.2000,4.1300,2.3100,-5.7900,-0.5367,-2.8492,-0.5432,-20.5000,-26.3750,21.3750,164.0000,34.2500,-155.3125,0
549.191,8.9280,0.9649,-0.9625,1.6371,-0.0474,-0.5753,-54.3000,46.2000,18.3000,8.8777,0.9792,4.5945,-1.3387,-2.4179,-0.5361,-61.9500,8.4000,-6.7500,6.2700,3.3900,-7.5500,-0.6850,-2.6834,-0.2062,-20.5000,-26.3750,21.3750,164.0000,34.2500,-155.3125,0
549.201,8.8514,0.9170,-1.4317,1.6062,0.0970,-0.5838,-55.2000,46.0500,18.4500,9.2320,1.3192,3.6464,-1.1413,-2.4235,-0.6091,-60.4500,7.2000,-7.5000,6.0500,5.0100,-7.5000,-0.6730,-2.7260,0.0829,-20.5000,-26.3750,21.3750,164.5000,32.9375,-155.3750,0
549.206,8.9304,0.7183,-1.8411,1.4767,-0.0266,-0.5883,-55.2000,46.0500,18.4500,9.2320,1.3192,3.6464,-1.1413,-2.4235,-0.6091,-60.4500,7.2000,-7.5000,6.0500,5.0100,-7.5000,-0.6730,-2.7260,0.0829,-20.5000,-26.3750,21.3750,165.0625,31.6250,-155.7500,0
549.211,8.9304,0.7183,-1.8411,1.4767,-0.0266,-0.5883,-55.2000,46.0500,18.4500,9.4978,1.6257,3.9935,-0.7661,-2.4424,-0.6595,-59.7000,8.7000,-7.9500,6.5200,3.9400,-7.5400,-0.2923,-2.7467,0.4134,-15.7500,-28.5625,21.6875,165.0625,31.6250,-155.7500,0
549.216,9.0980,0.7638,-2.1380,1.1975,-0.1540,-0.6067,-55.2000,46.0500,18.4500,9.1075,1.3743,4.0199,-0.7661,-2.4424,-0.6595,-59.7000,8.7000,-7.9500,6.5200,3.9400,-7.5400,-0.2923,-2.7467,0.4134,-15.7500,-28.5625,21.6875,165.7500,30.3750,-156.3125,0
549.221,9.0980,0.7638,-2.1380,1.1975,-0.1540,-0.6067,-55.2000,46.0500,18.4500,9.1075,1.3743,4.0199,-0.3357,-2.4019,-0.6662,-60.3000,9.0000,-8.4000,5.7700,2.5500,-7.3000,-0.0229,-2.7303,0.6381,-15.7500,-28.5625,21.6875,165.7500,30.3750,-156.3125,0
549.226,8.7819,0.7973,-1.9920,0.9300,-0.2811,-0.6398,-55.2000,46.0500,18.4500,9.0788,0.9242,4.0869,-0.3357,-2.4019,-0.6662,-60.3000,9.0000,-8.4000,5.7700,2.5500,-7.3000,-0.2323,-2.5373,0.5651,-15.7500,-28.5625,21.6875,166.3125,29.2500,-156.6250,0
549.232,8.7819,0.7973,-1.9920,0.9300,-0.2811,-0.6398,-51.9000,44.2500,16.3500,9.0788,0.9242,4.0869,0.0000,-2.3427,-0.6643,-59.7000,8.4000,-9.7500,5.1100,2.9700,-7.3900,-0.2323,-2.5373,0.5651,-15.7500,-28.5625,21.6875,166.8125,28.1875,-156.6875,0
549.241,8.3773,0.8236,-2.0877,0.6566,-0.2542,-0.6472,-52.9500,43.0500,15.6000,9.4499,0.7685,3.6583,0.2928,-2.2580,-0.6155,-58.9500,8.4000,-9.7500,5.2600,3.7900,-7.7200,-0.5694,-2.1609,0.2716,-15.7500,-28.5625,21.6875,166.8125,28.1875,-156.6875,0
549.251,8.3558,0.8523,-2.3415,0.4133,-0.1828,-0.6491,-52.2000,42.7500,16.3500,9.5265,0.9984,3.2657,0.6102,-2.1823,-0.5542,-58.9500,8.4000,-9.7500,5.2600,4.2600,-7.8100,-0.7003,-1.8031,-0.1331,-15.7500,-28.5625,21.6875,167.0000,27.2500,-156.4375,0
549.257,8.4659,0.8763,-2.3990,0.1958,-0.1418,-0.6446,-52.2000,42.7500,16.3500,9.4834,1.3096,3.4069,0.9667,-2.0845,-0.4810,-58.9500,8.4000,-9.7500,5.2600,4.2600,-7.8100,-0.7003,-1.8031,-0.1331,-15.7500,-28.5625,21.6875,166.9375,26.3750,-156.1250,0
549.262,8.4659,0.8763,-2.3990,0.1958,-0.1418,-0.6446,-53.5500,44.7000,15.7500,9.4834,1.3096,3.4069,0.9667,-2.0845,-0.4810,-61.6500,8.4000,-13.5000,4.6300,3.7900,-7.6500,-0.6567,-1.4552,-0.5858,-11.0625,-28.7500,21.2500,166.9375,26.3750,-156.1250,0
549.267,8.4420,0.9457,-2.2960,0.0027,-0.0887,-0.6318,-53.5500,44.7000,15.7500,9.5457,1.5969,3.4572,1.3384,-2.0073,-0.4133,-61.6500,8.4000,-13.5000,4.6300,3.7900,-7.6500,-0.6567,-1.4552,-0.5858,-11.0625,-28.7500,21.2500,166.9375,26.3750,-156.1250,0
549.272,8.4420,0.9457,-2.2960,0.0027,-0.0887,-0.6318,-53.5500,44.7000,15.7500,9.5457,1.5969,3.4572,1.3384,-2.0073,-0.4133,-61.6500,8.4000,-13.5000,4.7500,3.7000,-7.9800,-0.5781,-1.0177,-1.0428,-11.0625,-28.7500,21.2500,166.5625,25.6250,-155.6250,0
549.280,8.3749,1.2785,-2.2865,-0.1625,-0.0983,-0.5950,-52.6500,43.5000,15.6000,9.5840,1.6065,3.5147,1.7035,-1.9329,-0.3480,-61.6500,8.4000,-13.5000,5.1800,3.7900,-8.5400,-0.4560,-0.5967,-1.4355,-11.0625,-28.7500,21.2500,165.8750,25.0000,-155.1250,0
549.285,8.4348,1.6831,-2.3966,-0.2729,-0.0655,-0.5388,-52.6500,43.5000,15.6000,9.6869,1.3695,3.5338,2.0598,-1.8594,-0.2872,-59.1000,9.0000,-15.4500,5.1800,3.7900,-8.5400,-0.4560,-0.5967,-1.4355,-11.0625,-28.7500,21.2500,165.0000,24.4375,-154.6250,0
549.292,8.4348,1.6831,-2.3966,-0.2729,-0.0655,-0.5388,-54.0000,43.5000,14.8500,9.6869,1.3695,3.5338,2.0598,-1.8594,-0.2872,-59.1000,9.0000,-15.4500,5.5100,3.7300,-8.8800,-0.2367,-0.3294,-1.7279,-11.0625,-28.7500,21.2500,163.9375,23.8750,-154.1875,0
549.302,8.3294,2.1500,-2.4110,-0.4154,-0.0306,-0.4911,-52.9500,43.5000,16.6500,9.7348,0.9433,3.5769,2.3574,-1.8087,-0.2321,-60.7500,8.4000,-17.1000,5.2400,2.5200,-8.6700,-0.0185,-0.1800,-1.9569,-11.0625,-28.7500,21.2500,163.9375,23.8750,-154.1875,0
549.306,8.3845,2.6217,-2.2577,-0.5910,0.0109,-0.4229,-52.9500,43.5000,16.6500,9.7564,0.4621,3.6320,2.5437,-1.7738,-0.1636,-60.7500,8.1000,-16.9500,5.2400,2.5200,-8.6700,-0.0185,-0.1800,-1.9569,-11.0625,-28.7500,21.2500,162.7500,23.3125,-153.7500,0
549.311,8.3845,2.6217,-2.2577,-0.7360,-0.0075,-0.3664,-54.3000,42.1500,16.8000,9.7564,0.4621,3.6320,2.5437,-1.7738,-0.1636,-60.7500,8.1000,-16.9500,5.3800,2.5100,-9.0300,0.0960,-0.0382,-2.1228,-7.5000,-29.5625,22.5000,162.7500,23.3125,-153.7500,0
549.316,8.4204,3.0143,-2.1452,-0.7360,-0.0075,-0.3664,-54.3000,42.1500,16.8000,9.6941,-0.1077,3.6033,2.5983,-1.7637,-0.0695,-59.8500,7.3500,-17.7000,5.3800,2.5100,-9.0300,0.0960,-0.0382,-2.1228,-7.5000,-29.5625,22.5000,161.5000,22.7500,-153.3750,0
549.321,8.3893,3.4740,-1.9130,-0.8231,-0.0075,-0.3022,-53.7000,43.0500,18.1500,9.6941,-0.1077,3.6033,2.5983,-1.7637,-0.0695,-59.8500,7.3500,-17.7000,4.9500,1.9900,-8.8000,0.1451,0.0447,-2.2711,-7.5000,-29.5625,22.5000,161.5000,22.7500,-153.3750,0
549.326,8.3893,3.4740,-1.9130,-0.8231,-0.0075,-0.3022,-53.7000,43.0500,18.1500,9.6295,-0.5363,3.4668,2.4885,-1.7765,0.0229,-60.7500,6.9000,-16.6500,4.9500,1.9900,-8.8000,0.1473,0.1953,-2.3627,-7.5000,-29.5625,22.5000,160.1250,22.3125,-152.9375,0
549.332,8.2217,3.8331,-1.7047,-0.8623,0.0632,-0.2443,-53.7000,43.0500,18.1500,9.5960,-0.8571,3.2585,2.2663,-1.7960,0.1063,-58.8000,6.6000,-20.2500,5.2800,1.7100,-9.4400,0.1473,0.1953,-2.3627,-7.5000,-29.5625,22.5000,158.7500,21.7500,-152.5000,0
549.342,8.2480,4.1659,-1.7286,-0.8215,0.1316,-0.1716,-53.8500,41.4000,16.8000,9.6534,-0.9888,3.0143,2.2663,-1.7960,0.1063,-58.8000,6.6000,-20.2500,5.3100,1.3600,-9.5800,0.1014,0.2007,-2.4096,-7.5000,-29.5625,22.5000,157.3750,21.2500,-152.0000,0
549.352,7.9823,4.2880,-1.6065,-0.7663,0.1692,-0.0981,-52.0500,42.4500,16.8000,9.7037,-1.1612,2.7581,1.5689,-1.8487,0.2627,-58.8000,6.6000,-20.2500,5.3000,0.8000,-9.8700,0.0065,0.1604,-2.4096,-7.5000,-29.5625,22.5000,157.3750,21.2500,-152.0000,0
549.356,7.9823,4.2880,-1.6065,-0.7663,0.1692,-0.0981,-52.0500,42.4500,16.8000,9.7037,-1.1612,2.7581,1.5689,-1.8487,0.2627,-59.7000,6.0000,-20.5500,5.3000,0.8000,-9.8700,0.0065,0.1604,-2.4096,-7.5000,-29.5625,22.5000,157.3750,21.2500,-152.0000,0
549.362,8.0924,4.3359,-1.5682,-0.6630,0.2790,-0.0168,-53.4000,42.7500,18.1500,9.8019,-1.1684,2.6647,1.2329,-1.8764,0.3155,-59.7000,6.0000,-20.5500,5.4400,0.6400,-10.3700,-0.1091,0.0938,-2.3442,-3.3750,-28.5625,19.0000,156.0625,20.6875,-151.5000,0
549.366,8.0924,4.3359,-1.5682,-0.6630,0.2790,-0.0168,-53.4000,42.7500,18.1500,9.8019,-1.1684,2.6647,1.2329,-1.8764,0.3155,-59.7000,6.0000,-20.5500,5.4400,0.6400,-10.3700,-0.1091,0.0938,-2.3442,-3.3750,-28.5625,19.0000,156.0625,20.6875,-151.5000,0
549.372,8.2025,4.2401,-1.4988,-0.5385,0.3088,0.0703,-53.4000,40.0500,17.7000,9.7612,-1.0989,2.3822,0.9102,-1.8983,0.3448,-59.7000,6.0000,-20.5500,5.9000,0.8500,-10.5600,-0.1745,0.0338,-2.1991,-3.3750,-28.5625,19.0000,154.8750,20.0625,-151.0000,0
549.380,8.9136,4.1683,-1.6448,-0.3384,0.3110,0.1479,-53.4000,40.0500,17.7000,9.7085,-1.0391,2.2673,0.9102,-1.8983,0.3448,-59.1000,4.6500,-21.4500,5.9500,0.7400,-10.6000,-0.1734,-0.0938,-1.9908,-3.3750,-28.5625,19.0000,153.8125,19.5000,-150.5625,0
549.384,8.9136,4.1683,-1.6448,-0.3384,0.3110,0.1479,-53.4000,40.0500,17.7000,9.7085,-1.0391,2.2673,0.6267,-1.9111,0.3379,-58.9500,5.5500,-23.1000,5.9500,0.7400,-10.6000,-0.1734,-0.0938,-1.9908,-3.3750,-28.5625,19.0000,152.8750,18.9375,-150.1875,0
549.392,7.9990,3.7062,-1.4988,-0.2502,0.4242,0.2329,-53.4000,40.0500,17.7000,9.8402,-0.8475,1.9154,0.4221,-1.8991,0.3195,-58.9500,5.5500,-23.1000,6.1300,0.8700,-10.4600,-0.1614,-0.2574,-1.7344,-3.3750,-28.5625,19.0000,152.1875,18.2500,-149.9375,0
549.402,8.9759,3.6033,-1.7406,0.0269,0.2952,0.3160,-51.4500,39.7500,18.4500,9.2296,-0.9577,1.9824,0.2627,-1.7618,0.3030,-58.9500,4.0500,-24.9000,6.8200,0.7900,-10.1400,-0.1767,-0.4538,-1.4923,-3.3750,-28.5625,19.0000,152.1875,18.2500,-149.9375,0
549.407,8.9759,3.6033,-1.7406,0.0269,0.2952,0.3160,-51.4500,39.7500,18.4500,9.2296,-0.9577,1.9824,0.2627,-1.7618,0.3030,-57.9000,4.5000,-24.6000,6.8200,0.7900,-10.1400,-0.1767,-0.4538,-1.4923,-3.3750,-28.5625,19.0000,151.5625,17.6250,-149.6250,0
549.412,8.6311,3.2968,-2.0686,0.2896,0.4162,0.3890,-52.0500,37.2000,18.3000,9.6989,-0.8930,1.7837,0.1228,-1.7299,0.2566,-57.9000,4.5000,-24.6000,5.4000,0.6800,-8.8300,-0.2422,-0.6632,-1.3003,1.3750,-28.0000,21.3750,151.5625,17.6250,-149.6250,0
549.417,8.6311,3.2968,-2.0686,0.2896,0.4162,0.3890,-52.0500,37.2000,18.3000,9.6989,-0.8930,1.7837,0.1228,-1.7299,0.2566,-58.0500,5.8500,-25.8000,5.4000,0.6800,-8.8300,-0.2422,-0.6632,-1.3003,1.3750,-28.0000,21.3750,151.0625,17.0000,-149.3125,0
549.422,8.8322,3.1627,-2.3990,0.6203,0.5923,0.4514,-52.6500,37.8000,18.4500,9.5433,-0.9122,1.8244,-0.0021,-1.7224,0.2094,-58.0500,5.8500,-25.8000,6.6000,0.8500,-9.2900,-0.3643,-0.6436,-1.1072,1.3750,-28.0000,21.3750,151.0625,17.0000,-149.3125,0
549.427,8.8322,3.1627,-2.3990,0.6203,0.5923,0.4514,-52.6500,37.8000,18.4500,9.5433,-0.9122,1.8244,-0.0021,-1.7224,0.2094,-56.8500,5.4000,-26.5500,6.6000,0.8500,-9.2900,-0.4614,-0.8574,-0.9228,1.3750,-28.0000,21.3750,150.7500,16.3125,-149.0000,0
549.433,9.3637,3.0933,-2.6073,0.9302,0.4791,0.4866,-51.1500,35.2500,18.7500,9.3326,-0.6847,1.8603,-0.1487,-1.6118,0.1764,-56.8500,5.4000,-26.5500,5.7000,0.8800,-8.2000,-0.4614,-0.8574,-0.9228,1.3750,-28.0000,21.3750,150.5000,15.6875,-148.6250,0
549.442,9.0740,2.7605,-2.7366,1.0581,0.4104,0.4775,-51.1500,35.2500,18.7500,9.1339,-0.5938,1.8100,-0.3160,-1.5226,0.1442,-56.8500,5.4000,-26.5500,5.7300,0.7600,-8.1400,-0.6185,-0.8018,-0.7516,1.3750,-28.0000,21.3750,150.5000,15.6875,-148.6250,0
549.452,8.9663,2.5594,-2.6169,1.1357,0.4490,0.4748,-52.6500,34.5000,17.7000,9.0261,-0.7063,1.7166,-0.3973,-1.4370,0.1186,-55.9500,4.8000,-27.4500,6.0300,0.4300,-8.2600,-0.7832,-0.6763,-0.5989,1.3750,-28.0000,21.3750,150.3125,15.1875,-148.1875,0
549.457,8.9663,2.5594,-2.6169,1.0576,0.5127,0.4860,-52.6500,34.5000,17.7000,8.9423,-0.7015,1.9249,-0.3973,-1.4370,0.1186,-56.2500,4.5000,-27.4500,6.0300,0.4300,-8.2600,-0.7832,-0.6763,-0.5989,1.3750,-28.0000,21.3750,150.3125,15.1875,-148.1875,0
549.462,8.8992,2.4660,-2.5762,1.0576,0.5127,0.4860,-52.9500,34.5000,18.4500,8.9423,-0.7015,1.9249,-0.4317,-1.3195,0.1066,-56.2500,4.5000,-27.4500,5.8400,0.1000,-7.5100,-0.8988,-0.6578,-0.4909,4.3750,-27.6875,21.0625,150.2500,14.7500,-147.6875,0
549.466,8.6263,2.1979,-2.4157,0.9502,0.5412,0.5119,-53.5500,32.4000,18.4500,8.8418,-0.6919,1.5179,-0.4317,-1.3195,0.1066,-56.5500,3.4500,-27.7500,5.8400,0.1000,-7.5100,-0.8988,-0.6578,-0.4909,4.3750,-27.6875,21.0625,150.2500,14.7500,-147.6875,0
549.472,8.6263,2.1979,-2.4157,0.9502,0.5412,0.5119,-53.5500,32.4000,17.2500,8.8418,-0.6919,1.5179,-0.4626,-1.2345,0.1106,-56.5500,3.4500,-27.7500,5.9500,-0.2000,-7.2300,-0.9654,-0.5814,-0.4003,4.3750,-27.6875,21.0625,150.1875,14.3750,-147.1250,0
549.478,8.5186,1.8387,-2.3056,0.7735,0.5169,0.5468,-52.9500,31.0500,17.4000,8.6335,-0.3472,1.5395,-0.4311,-1.1154,0.1132,-55.5000,4.5000,-29.4000,5.9500,-0.2000,-7.2300,-1.0276,-0.4854,-0.3033,4.3750,-27.6875,21.0625,150.1250,14.0625,-146.5625,0
