timestamp,thigh_acc_x,thigh_acc_y,thigh_acc_z,thigh_gyro_x,thigh_gyro_y,thigh_gyro_z,thigh_mag_x,thigh_mag_y,thigh_mag_z,shank_acc_x,shank_acc_y,shank_acc_z,shank_gyro_x,shank_gyro_y,shank_gyro_z,shank_mag_x,shank_mag_y,shank_mag_z,foot_acc_x,foot_acc_y,foot_acc_z,foot_gyro_x,foot_gyro_y,foot_gyro_z,foot_mag_x,foot_mag_y,foot_mag_z,foot_euler_x,foot_euler_y,foot_euler_z,perturbation_event
675.557,8.8777,3.6392,-1.1396,-0.0589,-0.0346,-0.0013,-54.6000,9.9000,21.9000,9.6343,1.5730,0.0814,-0.0957,-0.0354,0.0045,-60.1500,21.3000,-8.7000,3.0900,3.8200,-8.3300,0.0087,-0.0142,0.0011,-29.0625,-12.5625,20.0625,266.2500,18.8125,-155.0625,0
675.565,9.0644,3.5698,-1.2498,-0.0578,-0.0458,0.0019,-55.5000,10.5000,21.6000,9.6678,1.4844,-0.0311,-0.1045,-0.0229,-0.0048,-60.1500,21.3000,-8.7000,3.0800,3.8200,-8.3300,0.0109,-0.0142,0.0011,-29.0625,-12.5625,20.0625,266.2500,18.8125,-155.0625,0
675.569,9.0644,3.5698,-1.2498,-0.0578,-0.0458,0.0019,-55.5000,10.5000,21.6000,9.5600,1.5107,0.0670,-0.1092,-0.0069,-0.0147,-61.0500,20.7000,-10.3500,3.0800,3.8200,-8.3300,0.0087,-0.0164,0.0011,-29.5000,-12.2500,18.8750,266.2500,18.8125,-155.0625,0
675.575,8.9950,3.5267,-1.3120,-0.0432,-0.0600,0.0064,-56.2500,8.2500,22.3500,9.5600,1.5107,0.0670,-0.1092,-0.0069,-0.0147,-61.0500,20.7000,-10.3500,3.0700,3.7900,-8.3300,0.0087,-0.0164,0.0011,-29.5000,-12.2500,18.8750,266.2500,18.8125,-155.0625,0
675.584,8.9423,3.5171,-1.4964,-0.0560,-0.0693,0.0099,-54.6000,9.4500,21.4500,9.6199,1.6520,0.0431,-0.1335,-0.0016,-0.0261,-61.8000,20.2500,-9.6000,3.0800,3.7900,-8.3600,0.0022,-0.0120,0.0022,-29.5000,-12.2500,18.8750,266.2500,18.8125,-155.0625,0
675.594,8.9328,3.5027,-1.5275,-0.0746,-0.0719,0.0072,-54.7500,9.0000,22.8000,9.6103,1.6640,0.0215,-0.1423,0.0112,-0.0288,-59.7000,19.6500,-9.3000,3.0700,3.7700,-8.3700,-0.0022,-0.0087,0.0033,-29.5000,-12.2500,18.8750,266.2500,18.8125,-155.0625,0
675.604,8.9495,3.6583,-1.4940,-0.1106,-0.0757,0.0069,-54.9000,9.9000,22.9500,9.5146,1.8531,0.0000,-0.1418,-0.0011,-0.0296,-59.1000,21.4500,-10.3500,3.0700,3.8400,-8.3300,-0.0044,-0.0131,0.0044,-29.5000,-12.2500,18.8750,266.2500,18.8125,-155.0625,0
675.612,8.9184,3.7421,-1.5203,-0.1711,-0.0778,0.0029,-54.9000,9.9000,22.9500,9.5433,1.8340,0.0120,-0.1162,0.0013,-0.0320,-59.8500,21.0000,-9.9000,3.0600,3.8300,-8.3200,-0.0087,-0.0055,0.0065,-29.5000,-12.2500,18.8750,266.2500,18.8125,-155.0625,0
675.617,8.9184,3.7421,-1.5203,-0.1711,-0.0778,0.0029,-54.9000,9.9000,22.9500,9.6271,1.4461,0.0335,-0.1263,0.0083,-0.0416,-59.8500,21.0000,-9.9000,3.0600,3.8300,-8.3200,-0.0087,-0.0055,0.0065,-29.5000,-12.2500,18.8750,266.2500,18.8125,-155.0625,0
675.624,8.8777,3.6895,-1.5467,-0.2206,-0.0698,-0.0048,-55.2000,10.0500,21.6000,9.6271,1.4461,0.0335,-0.1263,0.0083,-0.0416,-61.5000,19.5000,-9.6000,3.0900,3.8400,-8.3200,-0.0087,-0.0044,0.0065,-29.5000,-11.8750,18.8750,266.2500,18.8125,-155.0625,0
675.634,8.8681,3.7254,-1.5730,-0.2145,-0.0530,0.0024,-55.3500,9.1500,21.1500,9.5696,1.1396,-0.1053,-0.1958,0.0221,-0.0565,-61.5000,19.5000,-9.6000,3.1000,3.8300,-8.2800,-0.0098,-0.0044,0.0065,-29.5000,-11.8750,18.8750,266.2500,18.8125,-155.0625,0
675.642,8.8131,3.7589,-1.7573,-0.1969,-0.0277,0.0109,-55.6500,8.7000,22.5000,9.5648,1.4629,-0.2777,-0.2292,0.0115,-0.0637,-59.4000,20.4000,-9.3000,3.0800,3.7100,-8.3600,-0.0076,-0.0087,0.0076,-29.5000,-11.8750,18.8750,266.2500,18.8125,-155.0625,0
675.647,8.8131,3.7589,-1.7573,-0.1969,-0.0277,0.0109,-55.6500,8.7000,22.5000,9.4451,1.6472,-0.4286,-0.1990,0.0274,-0.0557,-59.4000,20.4000,-9.3000,3.0800,3.7100,-8.3600,-0.0076,-0.0087,0.0076,-29.5000,-11.8750,18.8750,266.2500,18.7500,-155.0625,0
675.655,8.8394,3.9433,-1.8890,-0.1825,-0.0234,0.0157,-54.6000,9.1500,21.9000,9.3494,1.7837,-0.5818,-0.1290,0.0282,-0.0440,-61.8000,19.5000,-10.3500,3.0800,3.6400,-8.4100,-0.0098,-0.0131,0.0044,-29.5000,-11.8750,18.8750,266.2500,18.7500,-155.0625,0
675.665,8.7508,4.1970,-1.9297,-0.2006,-0.0362,0.0072,-54.6000,9.1500,21.9000,9.3541,1.7717,-0.5842,-0.1164,0.0389,-0.0386,-59.7000,20.1000,-9.7500,3.1000,3.6600,-8.4000,-0.0142,-0.0087,0.0055,-29.5000,-11.8750,18.8750,266.2500,18.7500,-155.0625,0
675.669,8.6742,4.5179,-2.0997,-0.2481,-0.0386,-0.0131,-54.6000,9.1500,21.9000,9.3541,1.7717,-0.5842,-0.1164,0.0389,-0.0386,-59.7000,19.3500,-10.5000,3.1000,3.6600,-8.4000,-0.0142,-0.0087,0.0055,-29.5000,-11.8750,18.8750,266.2500,18.7500,-155.0625,0
675.674,8.6742,4.5179,-2.0997,-0.2481,-0.0386,-0.0131,-54.9000,9.9000,21.9000,9.3470,1.7478,-0.6776,-0.1332,0.0538,-0.0314,-59.7000,19.3500,-10.5000,3.1300,3.6000,-8.3700,-0.0262,-0.0011,0.0076,-28.6875,-11.8750,18.5000,266.2500,18.7500,-155.0625,0
675.679,8.6095,4.6926,-2.2410,-0.2806,-0.0272,-0.0362,-54.9000,9.9000,21.9000,9.3470,1.7478,-0.6776,-0.1332,0.0538,-0.0314,-61.8000,21.0000,-8.8500,3.1300,3.6000,-8.3700,-0.0262,-0.0011,0.0076,-28.6875,-11.8750,18.5000,266.2500,18.7500,-155.0625,0
675.684,8.6095,4.6926,-2.2410,-0.2806,-0.0272,-0.0362,-53.5500,7.9500,22.5000,9.3206,1.6616,-0.6560,-0.1370,0.0757,-0.0298,-61.8000,21.0000,-8.8500,3.1100,3.6900,-8.3100,-0.0371,-0.0011,0.0098,-28.6875,-11.8750,18.5000,266.2500,18.7500,-155.0625,0
675.689,8.5329,4.5394,-2.2960,-0.2622,-0.0434,-0.0461,-53.5500,7.9500,22.5000,9.3206,1.6616,-0.6560,-0.1370,0.0757,-0.0298,-60.9000,20.1000,-8.7000,3.1100,3.6900,-8.3100,-0.0502,-0.0065,0.0109,-28.6875,-11.8750,18.5000,266.2500,18.7500,-155.0625,0
675.695,8.5329,4.5394,-2.2960,-0.2622,-0.0434,-0.0461,-54.0000,9.7500,22.3500,9.3446,1.8076,-0.9457,-0.1740,0.0927,-0.0189,-60.9000,20.1000,-8.7000,3.0600,3.7900,-8.3100,-0.0502,-0.0065,0.0109,-28.6875,-11.8750,18.5000,266.3125,18.8125,-155.0000,0
675.704,8.3342,4.6591,-2.3296,-0.2835,-0.0336,-0.0685,-56.1000,8.4000,21.4500,9.2488,2.1237,-1.0726,-0.1735,0.1274,0.0027,-60.9000,20.1000,-8.7000,3.1000,3.5700,-8.3700,-0.0545,-0.0076,0.0109,-28.6875,-11.8750,18.5000,266.3125,18.8125,-155.0000,0
675.712,8.1523,5.0087,-2.1811,-0.2388,-0.0576,-0.0839,-55.3500,8.4000,21.9000,9.1530,2.5115,-1.1636,-0.1735,0.1274,0.0027,-62.2500,19.5000,-9.6000,3.0700,3.6200,-8.3500,-0.0589,-0.0153,0.0098,-28.6875,-11.8750,18.5000,266.3125,18.7500,-155.0000,0
675.716,8.4420,5.4157,-2.2027,-0.2364,-0.0405,-0.1122,-55.3500,8.4000,21.9000,9.1530,2.5115,-1.1636,-0.1069,0.1796,0.0093,-62.2500,19.5000,-9.6000,3.0700,3.6200,-8.3500,-0.0589,-0.0153,0.0098,-28.6875,-11.8750,18.5000,266.3125,18.7500,-155.0000,0
675.721,8.4420,5.4157,-2.2027,-0.2364,-0.0405,-0.1122,-55.3500,8.4000,21.9000,9.1435,2.6384,-0.9768,-0.1069,0.1796,0.0093,-60.7500,20.2500,-9.6000,3.0600,3.7100,-8.3300,-0.0851,-0.0142,0.0076,-28.6875,-11.8750,18.5000,266.3125,18.7500,-154.9375,0
675.726,8.4420,5.4157,-2.2027,-0.3083,-0.0115,-0.1743,-55.3500,8.4000,21.9000,9.1435,2.6384,-0.9768,-0.0043,0.2164,0.0192,-60.7500,20.2500,-9.6000,3.0600,3.7100,-8.3300,-0.0851,-0.0142,0.0076,-28.6875,-11.8750,18.5000,266.3125,18.7500,-154.9375,0
675.731,8.2720,5.6838,-1.9369,-0.3083,-0.0115,-0.1743,-54.9000,7.6500,22.5000,9.1363,2.5043,-0.7207,-0.0043,0.2164,0.0192,-59.7000,18.4500,-9.7500,3.0600,3.7100,-8.3300,-0.0851,-0.0142,0.0076,-28.6875,-11.8750,18.5000,266.3125,18.7500,-154.9375,0
675.736,8.2720,5.6838,-1.9369,-0.3083,-0.0115,-0.1743,-54.9000,7.6500,22.5000,9.1363,2.5043,-0.7207,0.0168,0.2438,0.0037,-59.7000,18.4500,-9.7500,3.0200,3.8400,-8.2800,-0.0851,-0.0142,0.0076,-28.6875,-11.8750,18.5000,266.3125,18.7500,-154.9375,0
675.741,7.9320,5.4229,-1.8292,-0.3736,0.0509,-0.1956,-54.6000,8.7000,22.9500,9.1339,2.2601,-0.4310,0.0168,0.2438,0.0037,-60.1500,20.8500,-8.7000,2.9900,4.1000,-8.2000,-0.0851,-0.0120,0.0065,-28.6875,-11.8750,18.5000,266.3125,18.7500,-154.8750,0
675.745,7.9320,5.4229,-1.8292,-0.3587,0.1431,-0.1719,-54.6000,8.7000,22.9500,9.1339,2.2601,-0.4310,0.0019,0.2654,0.0088,-60.1500,20.8500,-8.7000,2.9900,4.1000,-8.2000,-0.0851,-0.0120,0.0065,-28.6875,-11.8750,18.5000,266.3125,18.7500,-154.8125,0
675.754,7.9392,4.7142,-1.8579,-0.3587,0.1431,-0.1719,-55.5000,8.5500,23.1000,9.3015,2.4038,-0.4166,-0.0578,0.2790,0.0208,-61.2000,20.8500,-7.5000,3.0600,4.0600,-8.1500,-0.0458,-0.0109,0.0131,-28.6875,-11.8750,18.5000,266.3125,18.7500,-154.8125,0
675.765,8.0852,4.4484,-1.9800,-0.2955,0.1895,-0.1324,-54.3000,7.6500,22.9500,9.3685,2.4181,-0.1700,-0.0512,0.2819,0.0293,-60.1500,19.3500,-9.3000,3.0000,4.1500,-8.0700,-0.0098,-0.0131,0.0087,-28.6875,-11.8750,18.5000,266.3125,18.7500,-154.8125,0
675.769,8.1738,4.5107,-1.8387,-0.2446,0.1865,-0.1178,-54.3000,7.6500,22.9500,9.2033,2.2242,-0.0575,-0.0512,0.2819,0.0293,-60.1500,19.3500,-9.3000,3.0000,4.1500,-8.0700,0.0175,-0.0033,0.0142,-29.5000,-11.5000,17.6875,266.3750,18.7500,-154.8750,0
675.775,8.6095,4.6687,-1.5323,-0.2217,0.1879,-0.1061,-54.3000,7.6500,22.9500,9.2033,2.2242,-0.0575,0.0027,0.3011,0.0349,-60.1500,19.3500,-9.3000,3.1400,3.8900,-8.2200,0.0175,-0.0033,0.0142,-29.5000,-11.5000,17.6875,266.3125,18.7500,-154.8750,0
675.784,8.4635,4.5945,-1.0726,-0.1639,0.1175,-0.0967,-55.6500,9.4500,23.2500,9.3996,1.7980,-0.0215,-0.0226,0.3038,0.0442,-60.7500,19.5000,-8.1000,3.0400,3.8600,-8.2800,0.0393,-0.0120,0.0098,-29.5000,-11.5000,17.6875,266.3125,18.7500,-154.8750,0
675.791,8.4635,4.5945,-1.0726,-0.1639,0.1175,-0.0967,-52.3500,9.9000,24.0000,9.4834,1.4772,0.0982,-0.0171,0.3176,0.0504,-60.7500,19.5000,-8.1000,3.1200,3.8200,-8.2900,0.0469,-0.0153,0.0044,-29.5000,-11.5000,17.6875,266.3125,18.7500,-154.8750,0
675.796,8.5018,4.4915,-0.8428,-0.0592,0.0703,-0.0568,-52.3500,9.9000,24.0000,9.4834,1.4772,0.0982,-0.0171,0.3176,0.0504,-60.7500,19.5000,-8.1000,3.1200,3.8200,-8.2900,0.0469,-0.0153,0.0044,-29.5000,-11.5000,17.6875,266.3125,18.7500,-154.9375,0
675.805,8.3438,4.9632,-0.9074,0.1815,0.0810,-0.0250,-54.3000,9.9000,23.5500,9.5098,1.6712,0.0910,-0.0285,0.3275,0.0650,-60.4500,20.8500,-7.9500,3.0800,3.5800,-8.4100,0.0524,-0.0185,0.0055,-29.5000,-11.5000,17.6875,266.3125,18.6875,-154.9375,0
675.815,8.3965,5.6455,-0.8068,0.2904,0.0770,-0.0333,-54.4500,8.5500,24.1500,9.4427,2.1572,0.1844,-0.0333,0.3387,0.0741,-60.4500,20.1000,-7.9500,3.0700,3.5800,-8.4500,0.0491,-0.0142,0.0055,-29.5000,-11.5000,17.6875,266.3125,18.6875,-154.9375,0
675.819,8.3965,5.6455,-0.8068,0.2904,0.0770,-0.0333,-53.8500,8.4000,22.9500,9.2847,2.4852,0.3663,0.0280,0.3643,0.0829,-59.7000,19.6500,-7.9500,3.0700,3.5800,-8.4500,0.0491,-0.0142,0.0055,-29.5000,-11.5000,17.6875,266.3125,18.6875,-155.0000,0
675.825,8.5042,5.4947,-0.4549,0.1727,0.0221,-0.0602,-53.8500,8.4000,22.9500,9.2847,2.4852,0.3663,0.0280,0.3643,0.0829,-59.7000,19.6500,-7.9500,3.1100,3.6300,-8.4300,0.0415,-0.0055,0.0109,-29.0625,-11.0625,17.6875,266.3125,18.6875,-155.0000,0
675.829,8.5042,5.4947,-0.4549,0.1727,0.0221,-0.0602,-53.8500,8.4000,22.9500,9.2775,2.2889,0.7422,0.1082,0.3813,0.0893,-59.7000,19.6500,-7.9500,3.1100,3.6300,-8.4300,0.0415,-0.0055,0.0109,-29.0625,-11.0625,17.6875,266.3125,18.7500,-155.0000,0
675.834,8.3055,4.7525,-0.9074,0.1343,0.0842,-0.0184,-53.8500,8.4000,22.9500,9.2775,2.2889,0.7422,0.1082,0.3813,0.0893,-59.7000,20.4000,-7.9500,3.0500,3.6900,-8.3900,0.0349,-0.0033,0.0131,-29.0625,-11.0625,17.6875,266.3125,18.7500,-155.0000,0
675.842,8.1427,5.1667,-1.5706,0.2505,0.1183,0.0671,-54.0000,10.0500,23.1000,9.4260,2.2218,0.6800,0.0735,0.3677,0.1122,-59.7000,20.4000,-7.9500,3.2000,3.5500,-8.4500,0.0284,-0.0131,0.0120,-29.0625,-11.0625,17.6875,266.3750,18.6875,-155.0000,0
675.847,8.1427,5.1667,-1.5706,0.2505,0.1183,0.0671,-54.0000,10.0500,23.1000,9.5289,2.5546,0.3424,0.0298,0.3672,0.1628,-59.7000,20.4000,-7.9500,3.2000,3.5500,-8.4500,0.0284,-0.0131,0.0120,-29.0625,-11.0625,17.6875,266.3750,18.6875,-155.0625,0
675.855,8.1738,5.7557,-1.1923,0.2571,0.1106,0.0981,-54.4500,9.0000,22.0500,9.4379,2.9401,-0.0048,0.0298,0.3672,0.1628,-60.1500,19.6500,-8.2500,3.1700,3.5300,-8.4800,0.0207,-0.0175,0.0065,-29.0625,-11.0625,17.6875,266.3750,18.6875,-155.0625,0
675.863,8.0996,5.9903,-0.4549,0.2369,0.0749,0.0959,-52.3500,9.1500,21.9000,9.4379,2.9401,-0.0048,0.0594,0.3941,0.1881,-60.1500,19.6500,-8.2500,3.1700,3.5300,-8.4600,0.0044,-0.0207,0.0022,-29.0625,-11.0625,17.6875,266.3750,18.6875,-155.0625,0
675.868,8.0996,5.9903,-0.4549,0.2369,0.0749,0.0959,-52.9500,9.3000,23.1000,9.1794,3.0119,0.0527,0.1172,0.4279,0.2089,-60.1500,19.6500,-8.2500,3.1700,3.5300,-8.4600,0.0044,-0.0207,0.0022,-29.0625,-11.0625,17.6875,266.3750,18.6875,-155.0625,0
675.873,8.2791,5.7006,-0.0479,0.4186,0.0866,0.1042,-52.9500,9.3000,23.1000,9.1794,3.0119,0.0527,0.1172,0.4279,0.2089,-60.3000,19.9500,-6.9000,3.0700,3.8800,-8.3100,-0.0109,-0.0240,0.0011,-29.5000,-11.5000,18.5000,266.3750,18.6875,-155.0625,0
675.877,8.2791,5.7006,-0.0479,0.4186,0.0866,0.1042,-52.9500,9.3000,23.1000,9.1004,2.9904,0.4477,0.1783,0.4439,0.2238,-60.3000,19.9500,-6.9000,3.0700,3.8800,-8.3100,-0.0109,-0.0240,0.0011,-29.5000,-11.5000,18.5000,266.3750,18.6875,-155.0625,0
675.882,7.9655,5.0398,0.3232,0.5169,0.0360,0.1045,-52.9500,9.3000,23.1000,9.1004,2.9904,0.4477,0.1783,0.4439,0.2238,-61.2000,18.9000,-7.5000,3.0100,3.9800,-8.2400,-0.0065,-0.0273,0.0044,-29.5000,-11.5000,18.5000,266.3750,18.6875,-155.0625,0
675.887,7.9655,5.0398,0.3232,0.5169,0.0360,0.1045,-53.1000,8.4000,22.9500,9.1387,3.1699,1.0319,0.1916,0.4527,0.2430,-61.2000,18.9000,-7.5000,3.0100,3.9800,-8.2400,-0.0065,-0.0273,0.0044,-29.5000,-11.5000,18.5000,266.3750,18.6875,-155.1250,0
675.895,8.4563,4.4269,0.5076,0.5132,0.0570,0.1234,-53.1000,8.4000,22.9500,9.3111,3.0143,1.4222,0.2747,0.4325,0.2641,-60.1500,18.9000,-7.2000,3.0300,4.0900,-8.1800,0.0207,-0.0338,0.0076,-29.5000,-11.5000,18.5000,266.3750,18.6250,-155.1250,0
675.905,8.5569,3.6966,0.4477,0.5233,0.0861,0.1319,-52.3500,8.7000,21.1500,9.6582,2.3607,1.9249,0.3789,0.3984,0.2859,-60.7500,21.0000,-7.6500,3.0400,4.2000,-8.1200,0.0633,-0.0360,0.0044,-29.5000,-11.5000,18.5000,266.3750,18.6250,-155.1250,0
675.915,8.9663,3.2537,-0.0694,0.5804,0.1175,0.1535,-53.7000,9.3000,21.0000,9.8593,1.3360,1.9249,0.4066,0.3424,0.3115,-61.8000,19.9500,-5.8500,3.1300,4.1100,-8.0200,0.1069,-0.0436,-0.0055,-29.5000,-11.5000,18.5000,266.3750,18.6250,-155.1875,0
675.920,9.4308,3.3926,-0.3136,0.5337,0.1298,0.1804,-52.9500,10.8000,21.0000,9.8593,1.3360,1.9249,0.4066,0.3424,0.3115,-61.8000,19.9500,-5.8500,3.1300,4.1100,-8.0200,0.1069,-0.0436,-0.0055,-29.5000,-11.5000,18.5000,266.3750,18.6250,-155.1875,0
675.925,9.4308,3.3926,-0.3136,0.5337,0.1298,0.1804,-52.9500,10.8000,21.0000,10.0006,0.6823,1.8866,0.3645,0.2963,0.3360,-61.2000,19.6500,-6.4500,3.0600,3.9500,-8.1500,0.1429,-0.0742,-0.0185,-29.0625,-12.2500,18.8750,266.3125,18.5625,-155.2500,0
675.930,9.7995,3.5961,-0.2083,0.5033,0.1636,0.2145,-53.1000,10.2000,21.4500,10.0006,0.6823,1.8866,0.3645,0.2963,0.3360,-61.2000,19.6500,-6.4500,3.0600,3.9500,-8.1500,0.1429,-0.0742,-0.0185,-29.0625,-12.2500,18.8750,266.3125,18.5625,-155.2500,0
675.935,9.7995,3.5961,-0.2083,0.5033,0.1636,0.2145,-53.1000,10.2000,21.4500,10.0963,0.3711,1.6712,0.2185,0.2443,0.3560,-61.2000,19.6500,-6.4500,3.1700,3.8800,-8.2700,0.1658,-0.0884,-0.0196,-29.0625,-12.2500,18.8750,266.3125,18.5000,-155.3750,0
675.939,9.9814,3.6200,0.1221,0.5228,0.1825,0.2419,-53.1000,10.2000,21.4500,10.0963,0.3711,1.6712,0.2185,0.2443,0.3560,-61.2000,19.6500,-6.4500,3.1700,3.8800,-8.2700,0.1767,-0.0862,-0.0055,-29.0625,-12.2500,18.8750,266.3125,18.5000,-155.5000,0
675.946,9.9814,3.6200,0.1221,0.5228,0.1825,0.2419,-53.1000,10.2000,21.4500,9.9048,0.7781,1.4844,0.0618,0.2062,0.3629,-60.7500,19.9500,-6.6000,3.0200,3.7700,-8.4600,0.1767,-0.0862,-0.0055,-29.0625,-12.2500,18.8750,266.3125,18.4375,-155.5625,0
675.955,9.7923,3.0885,0.3256,0.6446,0.1495,0.2260,-53.8500,10.2000,21.1500,9.8450,1.1229,1.8172,0.0173,0.1548,0.3453,-60.1500,18.9000,-7.2000,2.9200,3.4600,-8.4400,0.1811,-0.0676,0.0098,-29.0625,-12.2500,18.8750,266.3125,18.4375,-155.5625,0
675.965,10.0317,2.3583,0.2634,0.6270,0.1199,0.2316,-53.1000,9.9000,22.5000,9.8306,1.1756,2.3296,0.0757,0.1188,0.3152,-61.6500,20.4000,-6.7500,2.9600,3.7800,-8.3700,0.1756,-0.0524,0.0207,-29.0625,-12.2500,18.8750,266.3125,18.4375,-155.6875,0
675.970,10.5752,1.9513,0.0192,0.5875,0.1042,0.2409,-53.5500,11.4000,20.7000,9.8306,1.1756,2.3296,0.0757,0.1188,0.3152,-61.6500,20.4000,-6.7500,2.9600,3.7800,-8.3700,0.1756,-0.0524,0.0207,-29.0625,-12.2500,18.8750,266.3125,18.4375,-155.8125,0
675.975,10.5752,1.9513,0.0192,0.5875,0.1042,0.2409,-53.5500,11.4000,20.7000,9.8976,0.6536,2.1883,0.1564,0.0973,0.2896,-61.0500,19.5000,-8.1000,3.0400,3.6200,-8.4300,0.1898,-0.0142,0.0251,-29.5000,-12.2500,18.8750,266.3125,18.4375,-155.8125,0
675.979,10.4531,2.1213,-0.3974,0.5678,0.2254,0.2729,-52.8000,10.2000,22.5000,9.8976,0.6536,2.1883,0.1564,0.0973,0.2896,-61.0500,19.5000,-8.1000,3.0400,3.6200,-8.4300,0.1898,-0.0142,0.0251,-29.5000,-12.2500,18.8750,266.3125,18.4375,-155.8125,0
675.984,10.4531,2.1213,-0.3974,0.5678,0.2254,0.2729,-52.8000,10.2000,22.5000,10.0987,0.2155,2.2960,0.1633,0.0464,0.2798,-59.7000,19.6500,-6.7500,3.0500,3.4900,-8.4500,0.1876,0.0109,0.0284,-29.5000,-12.2500,18.8750,266.3125,18.4375,-155.9375,0
675.989,9.8306,2.3727,-0.2825,0.4423,0.1913,0.2870,-52.8000,10.2000,22.5000,10.0987,0.2155,2.2960,0.1633,0.0464,0.2798,-59.7000,19.6500,-6.7500,3.0500,3.4900,-8.4500,0.1636,0.0415,0.0273,-29.5000,-12.2500,18.8750,266.3125,18.4375,-156.0000,0
675.996,9.8306,2.3727,-0.2825,0.4423,0.1913,0.2870,-52.8000,10.2000,22.5000,10.1658,0.1317,1.7047,0.0429,0.0253,0.2753,-61.9500,20.8500,-6.4500,3.1100,3.2700,-8.5500,0.1636,0.0415,0.0273,-29.5000,-12.2500,18.8750,266.3125,18.5000,-156.0625,0
676.005,10.3621,2.3487,-0.3639,0.3107,0.1601,0.2782,-52.8000,10.2000,22.5000,10.1418,0.3160,1.5012,-0.0922,-0.0139,0.2539,-61.9500,20.8500,-6.4500,3.0300,3.1200,-8.6100,0.1004,0.0687,0.0207,-29.5000,-12.2500,18.8750,266.3125,18.5625,-156.0625,0
676.015,10.4172,2.7581,-0.4022,0.2515,0.2196,0.3014,-52.9500,11.2500,21.3000,9.9623,0.6440,1.8747,-0.2028,-0.0397,0.2316,-61.8000,21.0000,-6.6000,3.0000,3.3500,-8.5200,0.0305,0.0764,0.0185,-29.5000,-12.2500,18.8750,266.3125,18.5625,-156.0625,0
676.020,9.5672,2.8635,-0.1077,0.1524,0.1799,0.3195,-52.9500,11.2500,21.3000,9.8282,1.0104,1.6783,-0.2862,-0.0698,0.2166,-61.8000,21.0000,-6.6000,3.0000,3.3500,-8.5200,0.0305,0.0764,0.0185,-29.5000,-12.2500,18.8750,266.3125,18.5625,-156.0625,0
676.025,9.5672,2.8635,-0.1077,0.1524,0.1799,0.3195,-52.3500,10.2000,21.4500,9.8282,1.0104,1.6783,-0.2862,-0.0698,0.2166,-61.8000,21.0000,-6.6000,3.0000,3.3500,-8.5200,0.0305,0.0764,0.0185,-29.5000,-12.2500,18.8750,266.3125,18.5625,-156.0625,0
676.030,9.4140,3.0909,-0.0359,0.1412,0.2254,0.3331,-52.3500,10.2000,21.4500,9.8043,1.3910,1.7095,-0.3429,-0.1428,0.1927,-61.8000,21.0000,-6.6000,3.0200,3.2600,-8.5600,-0.0218,0.0654,0.0207,-28.2500,-11.0625,19.6875,266.3125,18.5625,-156.0625,0
676.035,9.4140,3.0909,-0.0359,0.1412,0.2254,0.3331,-53.5500,13.2000,21.1500,9.8043,1.3910,1.7095,-0.3429,-0.1428,0.1927,-61.8000,20.2500,-6.9000,3.0900,3.4400,-8.4600,-0.0480,0.0425,0.0251,-28.2500,-11.0625,19.6875,266.3125,18.6250,-156.0625,0
676.043,9.2153,3.1987,-0.2274,0.1031,0.2100,0.3333,-53.5500,13.2000,21.1500,9.8593,1.2929,1.6807,-0.3552,-0.1985,0.1641,-61.2000,20.4000,-9.0000,3.1900,3.4000,-8.5900,-0.0644,0.0284,0.0240,-28.2500,-11.0625,19.6875,266.3125,18.6250,-156.0000,0
676.048,9.1961,3.5506,-0.6033,0.0831,0.2294,0.3523,-53.5500,13.2000,21.1500,10.0126,1.2689,1.9417,-0.3552,-0.1985,0.1641,-61.2000,20.4000,-9.0000,3.1900,3.4000,-8.5900,-0.0644,0.0284,0.0240,-28.2500,-11.0625,19.6875,266.3750,18.6250,-156.0000,0
676.055,9.0357,4.0175,-0.5124,0.0786,0.2745,0.3539,-52.2000,12.3000,22.3500,10.0126,1.2689,1.9417,-0.2710,-0.2004,0.1436,-62.7000,20.4000,-6.7500,3.1300,3.5600,-8.3000,-0.0785,0.0098,0.0196,-28.2500,-11.0625,19.6875,266.3750,18.6250,-156.0000,0
676.063,9.0357,4.0175,-0.5124,0.0786,0.2745,0.3539,-52.2000,12.3000,22.3500,9.7707,1.4078,1.2402,-0.2446,-0.1860,0.1431,-61.2000,20.4000,-7.9500,3.1700,3.3300,-8.4100,-0.1004,-0.0055,0.0175,-28.2500,-11.0625,19.6875,266.3750,18.6250,-155.9375,0
676.067,8.8538,4.1204,-0.4908,0.0757,0.2790,0.3592,-52.8000,11.7000,22.9500,9.5265,1.6735,0.9409,-0.2923,-0.1724,0.1506,-61.2000,20.4000,-7.9500,3.1700,3.3300,-8.4100,-0.1004,-0.0055,0.0175,-28.2500,-11.0625,19.6875,266.3750,18.6250,-155.9375,0
676.072,8.8538,4.1204,-0.4908,0.0757,0.2790,0.3592,-52.8000,11.7000,22.9500,9.5265,1.6735,0.9409,-0.2923,-0.1724,0.1506,-61.2000,20.4000,-7.9500,3.0400,3.6300,-8.2100,-0.0960,-0.0109,0.0065,-29.0625,-10.3750,19.1875,266.3750,18.6250,-155.8750,0
676.077,8.9184,4.1659,-0.6129,0.0775,0.2899,0.3595,-52.6500,11.5500,22.3500,9.5409,1.9537,0.7685,-0.2923,-0.1724,0.1506,-61.2000,20.4000,-7.9500,3.0400,3.6300,-8.2100,-0.0960,-0.0109,0.0065,-29.0625,-10.3750,19.1875,266.3750,18.6250,-155.8750,0
676.082,8.9184,4.1659,-0.6129,0.0775,0.2899,0.3595,-52.6500,11.5500,22.3500,9.5409,1.9537,0.7685,-0.3664,-0.2124,0.1545,-61.2000,20.4000,-7.9500,3.0900,3.5800,-8.3600,-0.0818,-0.0098,0.0011,-29.0625,-10.3750,19.1875,266.3750,18.6250,-155.8750,0
676.087,8.7221,4.1132,-0.3831,0.1218,0.3219,0.3539,-52.0500,12.9000,22.2000,9.4140,2.2913,0.3687,-0.4450,-0.2601,0.1498,-61.0500,19.9500,-8.4000,3.0900,3.5800,-8.3600,-0.0818,-0.0098,0.0011,-29.0625,-10.3750,19.1875,266.3750,18.6250,-155.8750,0
676.092,8.7221,4.1132,-0.3831,0.1218,0.3219,0.3539,-52.0500,12.9000,22.2000,9.4140,2.2913,0.3687,-0.4450,-0.2601,0.1498,-61.0500,19.9500,-8.4000,3.1000,3.6100,-8.3700,-0.0829,-0.0055,0.0011,-29.0625,-10.3750,19.1875,266.3750,18.6250,-155.8125,0
676.097,8.4443,4.0797,-0.6584,0.1031,0.3128,0.3477,-52.0500,12.9000,22.2000,9.2991,2.1668,0.5722,-0.3168,-0.2686,0.1567,-61.0500,19.9500,-8.4000,3.1000,3.6100,-8.3700,-0.0829,-0.0055,0.0011,-29.0625,-10.3750,19.1875,266.4375,18.6250,-155.7500,0
676.105,8.6215,3.9624,-1.1636,0.1143,0.3227,0.3373,-52.0500,12.9000,22.2000,9.3613,1.9680,0.4549,-0.3168,-0.2686,0.1567,-62.2500,20.2500,-8.8500,3.1600,3.6300,-8.4300,-0.0905,-0.0207,0.0022,-29.0625,-10.3750,19.1875,266.4375,18.6250,-155.7500,0
676.112,8.6215,3.9624,-1.1636,0.1143,0.3227,0.3373,-52.0500,12.9000,22.2000,9.3613,1.9680,0.4549,-0.1258,-0.2257,0.1695,-62.2500,20.2500,-8.8500,3.1400,3.6600,-8.3200,-0.0960,-0.0327,0.0098,-29.0625,-10.3750,19.1875,266.4375,18.6250,-155.6875,0
676.117,8.7771,4.1635,-1.2402,0.1764,0.3062,0.3411,-52.8000,11.4000,24.0000,9.4643,1.5586,0.2179,0.0203,-0.1807,0.1895,-61.0500,20.2500,-8.1000,3.1400,3.6600,-8.3200,-0.0960,-0.0327,0.0098,-29.0625,-10.3750,19.1875,266.4375,18.6250,-155.6875,0
676.121,8.7771,4.1635,-1.2402,0.1764,0.3062,0.3411,-52.8000,11.4000,24.0000,9.4643,1.5586,0.2179,0.0203,-0.1807,0.1895,-61.0500,20.2500,-8.1000,2.9700,3.8500,-8.1300,-0.0687,-0.0469,0.0295,-28.6875,-11.5000,18.8750,266.4375,18.6250,-155.6875,0
676.126,8.9447,4.0845,-1.0008,0.2102,0.3120,0.3320,-51.3000,12.1500,22.2000,9.6319,1.0247,0.3735,0.0360,-0.1569,0.1974,-61.8000,20.7000,-9.9000,2.9700,3.8500,-8.1300,-0.0687,-0.0469,0.0295,-28.6875,-11.5000,18.8750,266.4375,18.6250,-155.6875,0
676.131,8.9447,4.0845,-1.0008,0.2102,0.3120,0.3320,-51.3000,12.1500,22.2000,9.6319,1.0247,0.3735,0.0360,-0.1569,0.1974,-61.8000,20.7000,-9.9000,2.8800,3.5100,-8.5400,-0.0425,-0.0502,0.0491,-28.6875,-11.5000,18.8750,266.5000,18.5625,-155.6875,0
676.136,9.1794,3.8834,-1.3431,0.2830,0.2651,0.3445,-52.8000,10.9500,23.2500,9.4403,1.0798,0.6752,0.0248,-0.1324,0.2078,-61.2000,20.4000,-8.2500,2.8800,3.5100,-8.5400,-0.0425,-0.0502,0.0491,-28.6875,-11.5000,18.8750,266.5000,18.5625,-155.6875,0
676.141,9.1794,3.8834,-1.3431,0.2830,0.2651,0.3445,-52.8000,10.9500,23.2500,9.4403,1.0798,0.6752,0.0248,-0.1324,0.2078,-61.2000,20.4000,-8.2500,2.8800,3.5100,-8.5400,-0.0415,-0.0371,0.0785,-28.6875,-11.5000,18.8750,266.5625,18.5625,-155.6875,0
676.146,8.8969,3.8595,-1.3120,0.3565,0.2022,0.3469,-52.9500,10.8000,22.3500,9.5960,0.8284,0.5028,0.0003,-0.1258,0.2193,-61.8000,20.2500,-7.6500,3.2200,4.3600,-8.0200,-0.0415,-0.0371,0.0785,-28.6875,-11.5000,18.8750,266.5625,18.6250,-155.6875,0
676.155,8.8825,4.0749,-0.7781,0.3355,0.2395,0.3752,-52.9500,10.8000,22.3500,9.5816,1.3743,0.3304,-0.0949,-0.1503,0.2430,-62.2500,19.5000,-8.4000,2.9000,2.8900,-8.5600,-0.0131,0.0011,0.0720,-28.6875,-11.5000,18.8750,266.5625,18.6250,-155.6875,0
676.165,8.8538,3.9217,-0.9242,0.3187,0.2337,0.3936,-51.9000,10.8000,23.1000,9.4164,1.6807,0.4214,-0.0981,-0.1364,0.2561,-62.2500,19.5000,-8.4000,2.8900,3.6100,-8.2400,-0.0033,-0.0076,0.0873,-28.6875,-11.5000,18.8750,266.6250,18.6250,-155.6875,0
676.170,8.8538,3.9217,-0.9242,0.3187,0.2337,0.3936,-51.9000,10.8000,23.1000,9.4164,1.6807,0.4214,-0.0981,-0.1364,0.2561,-62.2500,19.5000,-8.4000,2.8900,3.6100,-8.2400,-0.0033,-0.0076,0.0873,-28.6875,-11.5000,18.8750,266.6875,18.6250,-155.7500,0
676.175,8.6191,4.1779,-1.3096,0.3712,0.1948,0.4034,-51.7500,11.4000,21.9000,9.2991,1.9800,0.0910,-0.0362,-0.1071,0.2793,-61.6500,18.9000,-9.7500,3.1200,3.3400,-8.2700,0.0185,0.0120,0.0785,-28.2500,-11.8750,18.5000,266.6875,18.6250,-155.7500,0
676.180,8.6191,4.1779,-1.3096,0.3712,0.1948,0.4034,-51.7500,11.4000,21.9000,9.2991,1.9800,0.0910,-0.0362,-0.1071,0.2793,-61.6500,18.9000,-9.7500,3.1200,3.3400,-8.2700,0.0185,0.0120,0.0785,-28.2500,-11.8750,18.5000,266.6875,18.6250,-155.7500,0
676.185,8.4252,4.1587,-0.8236,0.3776,0.1801,0.3709,-51.7500,10.6500,23.5500,9.3781,2.2936,-0.1413,0.0051,-0.0941,0.2825,-62.2500,19.5000,-8.8500,3.1100,3.6400,-8.1900,0.0502,-0.0065,0.0654,-28.2500,-11.8750,18.5000,266.6875,18.6875,-155.7500,0
676.189,8.4252,4.1587,-0.8236,0.3776,0.1801,0.3709,-51.7500,10.6500,23.5500,9.3781,2.2936,-0.1413,0.0051,-0.0941,0.2825,-62.2500,19.5000,-8.8500,3.1100,3.6400,-8.1900,0.0916,-0.0033,0.0502,-28.2500,-11.8750,18.5000,266.7500,18.6875,-155.8125,0
676.196,8.7843,3.8020,-0.7039,0.4013,0.2014,0.3403,-51.3000,10.6500,22.2000,9.4260,2.1548,0.2682,0.1434,-0.0810,0.2832,-63.7500,19.9500,-7.6500,3.0700,3.8500,-8.2000,0.0916,-0.0033,0.0502,-28.2500,-11.8750,18.5000,266.7500,18.6875,-155.9375,0
676.205,8.8298,3.6943,-1.0199,0.5025,0.1577,0.3192,-51.0000,10.9500,22.2000,9.4068,1.9465,0.2801,0.2241,-0.0669,0.2896,-63.4500,19.6500,-10.0500,3.0300,3.8900,-8.2700,0.1320,0.0098,0.0425,-28.2500,-11.8750,18.5000,266.7500,18.6875,-156.0000,0
676.215,9.0501,3.6344,-0.6656,0.4967,0.1740,0.3152,-51.0000,10.9500,22.2000,9.5577,1.4485,0.4573,0.3413,-0.0554,0.2947,-62.7000,19.6500,-7.9500,3.0900,3.7900,-8.3300,0.1636,0.0262,0.0425,-28.2500,-11.8750,18.5000,266.7500,18.6875,-156.0000,0
676.220,9.3541,3.4189,-0.9529,0.4501,0.1386,0.3312,-51.0000,10.9500,22.2000,9.6127,1.1301,0.7326,0.3413,-0.0554,0.2947,-62.7000,19.6500,-7.9500,3.0900,3.7900,-8.3300,0.1636,0.0262,0.0425,-28.2500,-11.8750,18.5000,266.7500,18.6875,-156.0000,0
676.225,9.3541,3.4189,-0.9529,0.4501,0.1386,0.3312,-51.7500,11.4000,23.5500,9.6127,1.1301,0.7326,0.3680,-0.0445,0.3056,-62.7000,19.3500,-8.7000,2.9900,4.0500,-8.1300,0.1756,0.0371,0.0404,-28.2500,-11.8750,19.1875,266.7500,18.7500,-156.1250,0
676.230,9.1004,3.1891,-1.1540,0.4663,0.1601,0.3411,-51.7500,11.4000,23.5500,9.6367,0.6991,0.5578,0.3680,-0.0445,0.3056,-62.7000,19.3500,-8.7000,2.9900,4.0500,-8.1300,0.1756,0.0371,0.0404,-28.2500,-11.8750,19.1875,266.7500,18.7500,-156.1250,0
676.235,9.1004,3.1891,-1.1540,0.4663,0.1601,0.3411,-51.4500,12.0000,22.3500,9.6367,0.6991,0.5578,0.2731,-0.0600,0.3120,-62.7000,19.3500,-8.7000,3.1600,3.6700,-8.2600,0.1953,-0.0033,0.0480,-28.2500,-11.8750,19.1875,266.7500,18.7500,-156.2500,0
676.243,9.2081,3.0670,-0.8475,0.4263,0.2028,0.3528,-52.6500,12.3000,23.4000,9.6750,0.3903,0.6656,0.2174,-0.0663,0.3208,-62.7000,19.3500,-8.7000,3.1500,3.5100,-8.4800,0.2476,-0.0164,0.0360,-28.2500,-11.8750,19.1875,266.7500,18.7500,-156.3750,0
676.248,9.2081,3.0670,-0.8475,0.4263,0.2028,0.3528,-52.6500,12.3000,23.4000,9.6750,0.3903,0.6656,0.2174,-0.0663,0.3208,-63.3000,19.0500,-8.8500,3.1500,3.5100,-8.4800,0.2476,-0.0164,0.0360,-28.2500,-11.8750,19.1875,266.7500,18.7500,-156.5000,0
676.256,9.2225,2.9688,-0.7159,0.3976,0.2052,0.3640,-53.5500,11.7000,22.9500,9.7348,0.4525,0.5842,0.1687,-0.0685,0.3301,-63.3000,19.0500,-8.8500,3.1300,3.3300,-8.4100,0.2705,0.0022,0.0262,-28.2500,-11.8750,19.1875,266.7500,18.7500,-156.6875,0
676.266,9.1387,2.9568,-0.7542,0.4357,0.1905,0.3616,-53.5500,11.7000,22.9500,9.7276,0.6704,0.7326,0.1527,-0.0818,0.3344,-64.0500,19.5000,-8.4000,3.0700,3.0100,-8.4300,0.2738,0.0044,0.0164,-28.2500,-11.8750,19.1875,266.7500,18.7500,-156.6875,0
676.270,9.0836,3.0909,-0.9026,0.3986,0.2409,0.3746,-53.5500,11.7000,22.9500,9.6582,0.9625,0.7614,0.1820,-0.0922,0.3411,-64.0500,19.5000,-8.4000,3.0700,3.0100,-8.4300,0.2738,0.0044,0.0164,-28.6875,-11.0625,18.8750,266.6875,18.7500,-156.8125,0
676.275,9.0836,3.0909,-0.9026,0.3986,0.2409,0.3746,-51.4500,10.5000,23.8500,9.6582,0.9625,0.7614,0.1820,-0.0922,0.3411,-63.7500,18.7500,-8.8500,3.0400,3.2500,-8.4700,0.2651,0.0076,0.0098,-28.6875,-11.0625,18.8750,266.6875,18.7500,-156.8125,0
676.280,9.1219,3.2825,-0.5100,0.4170,0.2241,0.3928,-51.9000,11.2500,23.1000,9.6869,1.2522,0.4357,0.2446,-0.0962,0.3440,-63.7500,18.7500,-8.8500,3.0400,3.2500,-8.4700,0.2651,0.0076,0.0098,-28.6875,-11.0625,18.8750,266.6875,18.7500,-157.0000,0
676.285,9.1219,3.2825,-0.5100,0.4170,0.2241,0.3928,-51.9000,11.2500,23.1000,9.6869,1.2522,0.4357,0.2446,-0.0962,0.3440,-63.7500,18.3000,-9.9000,3.1600,3.2600,-8.3900,0.2673,0.0131,0.0055,-28.6875,-11.0625,18.8750,266.6875,18.7500,-157.0000,0
676.290,9.1889,3.7326,-0.4812,0.5044,0.2222,0.3997,-51.4500,12.7500,24.1500,9.5888,1.4030,0.6464,0.3640,-0.0946,0.3448,-63.7500,18.3000,-9.9000,3.1600,3.2600,-8.3900,0.2694,0.0087,-0.0065,-28.6875,-11.0625,18.8750,266.6250,18.7500,-157.1250,0
676.296,9.1889,3.7326,-0.4812,0.5044,0.2222,0.3997,-51.4500,12.7500,24.1500,9.5888,1.4030,0.6464,0.3640,-0.0946,0.3448,-63.0000,19.0500,-8.8500,3.0500,3.3900,-8.4600,0.2694,0.0087,-0.0065,-28.6875,-11.0625,18.8750,266.6250,18.7500,-157.2500,0
676.306,9.3661,3.6248,-0.3687,0.5526,0.1879,0.4040,-51.1500,12.3000,24.1500,9.6654,1.5395,0.7350,0.4882,-0.0743,0.3453,-63.0000,19.0500,-8.8500,3.0500,3.5800,-8.4900,0.2738,0.0164,-0.0044,-28.6875,-11.0625,18.8750,266.6250,18.7500,-157.2500,0
676.312,9.5098,3.3064,0.0455,0.6683,0.1892,0.4085,-51.3000,10.9500,22.9500,9.7300,1.3527,1.0032,0.5910,-0.0778,0.3320,-63.0000,19.0500,-8.8500,3.1100,3.4400,-8.4400,0.2803,0.0153,-0.0098,-28.6875,-11.0625,18.8750,266.6250,18.7500,-157.4375,0
676.317,9.3901,3.0598,0.2107,0.7642,0.1817,0.3925,-51.3000,10.9500,22.9500,9.8090,0.9864,1.2306,0.5910,-0.0778,0.3320,-65.1000,19.3500,-10.5000,3.1100,3.4400,-8.4400,0.2803,0.0153,-0.0098,-28.6875,-11.0625,18.8750,266.6250,18.7500,-157.4375,0
676.322,9.3901,3.0598,0.2107,0.7642,0.1817,0.3925,-51.3000,10.9500,22.9500,9.8090,0.9864,1.2306,0.6728,-0.0925,0.3222,-65.1000,19.3500,-10.5000,3.1400,3.6900,-8.5200,0.2814,0.0196,-0.0065,-29.0625,-11.0625,20.0625,266.5625,18.8125,-157.5625,0
676.327,9.5481,2.5498,-0.0144,0.8026,0.1881,0.3896,-51.3000,10.9500,22.9500,9.8067,0.6033,1.1612,0.7325,-0.1047,0.3222,-65.1000,19.3500,-10.5000,3.1400,3.6900,-8.5200,0.2814,0.0196,-0.0065,-29.0625,-11.0625,20.0625,266.5625,18.8125,-157.5625,0
676.332,9.5481,2.5498,-0.0144,0.8026,0.1881,0.3896,-51.4500,10.8000,24.9000,9.8067,0.6033,1.1612,0.7325,-0.1047,0.3222,-65.1000,19.3500,-10.5000,3.1100,3.4800,-8.4200,0.2913,0.0240,-0.0109,-29.0625,-11.0625,20.0625,266.5000,18.8125,-157.7500,0
676.337,9.4140,2.1955,-0.2131,0.8132,0.2366,0.3954,-51.4500,10.8000,24.9000,9.7803,0.3591,0.9936,0.7424,-0.1148,0.3320,-64.5000,19.5000,-9.9000,3.1100,3.4800,-8.4200,0.2913,0.0240,-0.0109,-29.0625,-11.0625,20.0625,266.5000,18.8125,-157.9375,0
676.346,9.3589,2.2865,-0.1700,0.8138,0.2385,0.3976,-51.4500,12.7500,22.3500,9.7564,0.1125,0.8284,0.7424,-0.1148,0.3320,-63.0000,20.7000,-10.3500,3.1500,3.2900,-8.4000,0.3414,0.0404,-0.0284,-29.0625,-11.0625,20.0625,266.5000,18.8125,-157.9375,0
676.352,9.3589,2.2865,-0.1700,0.8138,0.2385,0.3976,-51.0000,11.4000,23.2500,9.7564,0.1125,0.8284,0.7101,-0.1204,0.3395,-63.0000,20.7000,-10.3500,3.1400,3.0600,-8.4400,0.3949,0.0578,-0.0513,-29.0625,-11.0625,20.0625,266.3750,18.8125,-158.1250,0
676.357,9.3518,2.2793,-0.5411,0.7858,0.1887,0.3981,-51.0000,11.4000,23.2500,9.7444,0.0766,0.6009,0.6611,-0.1263,0.3547,-64.3500,18.1500,-9.7500,3.1400,3.0600,-8.4400,0.3949,0.0578,-0.0513,-29.0625,-11.0625,20.0625,266.3125,18.8750,-158.3750,0
676.366,9.5170,2.2194,-0.6129,0.7682,0.2166,0.3888,-51.9000,11.5500,22.3500,9.7636,0.2610,0.5219,0.5905,-0.1436,0.3653,-64.6500,20.1000,-9.7500,3.1000,2.9500,-8.5200,0.4145,0.0578,-0.0654,-29.0625,-11.0625,20.0625,266.3125,18.8750,-158.3750,0
676.371,9.5170,2.2194,-0.6129,0.7682,0.2166,0.3888,-51.9000,11.5500,22.3500,9.7636,0.2610,0.5219,0.5905,-0.1436,0.3653,-64.6500,20.1000,-9.7500,3.1000,2.9500,-8.5200,0.4145,0.0578,-0.0654,-28.6875,-10.7500,19.6875,266.2500,18.8750,-158.5625,0
676.376,9.4954,2.1644,-0.5124,0.8079,0.2270,0.3933,-51.9000,11.5500,22.3500,9.6438,0.4238,0.3184,0.5454,-0.1532,0.3627,-64.5000,18.7500,-9.6000,3.1000,3.0100,-8.5200,0.4167,0.0535,-0.0654,-28.6875,-10.7500,19.6875,266.2500,18.8750,-158.5625,0
676.381,9.4954,2.1644,-0.5124,0.8079,0.2270,0.3933,-51.0000,11.7000,24.0000,9.6438,0.4238,0.3184,0.5454,-0.1532,0.3627,-64.5000,18.7500,-9.6000,3.1000,3.0100,-8.5200,0.4309,0.0480,-0.0654,-28.6875,-10.7500,19.6875,266.1875,18.8750,-158.8125,0
676.386,9.2153,2.3248,-0.9625,0.7863,0.1895,0.3832,-51.0000,11.7000,24.0000,9.4140,0.5746,0.0934,0.5433,-0.1463,0.3706,-64.8000,19.0500,-9.1500,3.0500,2.8900,-8.5000,0.4309,0.0480,-0.0654,-28.6875,-10.7500,19.6875,266.1875,18.8750,-158.8125,0
676.391,9.2153,2.3248,-0.9625,0.7863,0.1895,0.3832,-49.6500,12.3000,23.8500,9.4140,0.5746,0.0934,0.5433,-0.1463,0.3706,-64.8000,19.0500,-9.1500,3.0500,2.8900,-8.5000,0.4385,0.0491,-0.0687,-28.6875,-10.7500,19.6875,266.0625,18.8750,-159.0000,0
676.396,9.1411,2.2003,-0.9529,0.8095,0.1311,0.3501,-49.6500,12.3000,23.8500,9.4810,0.3615,-0.1652,0.5969,-0.1247,0.3706,-64.8000,19.0500,-9.1500,3.0900,2.9600,-8.4200,0.4385,0.0491,-0.0687,-28.6875,-10.7500,19.6875,266.0000,18.8750,-159.2500,0
676.406,9.3972,2.0566,-0.9936,0.8180,0.1050,0.3163,-49.9500,12.4500,25.8000,9.6630,0.3017,0.0790,0.6744,-0.0983,0.3728,-64.5000,19.9500,-10.3500,3.1600,2.9200,-8.3900,0.4451,0.0404,-0.0742,-28.6875,-10.7500,19.6875,266.0000,18.8750,-159.2500,0
676.416,9.7995,1.8507,-0.4046,0.7893,0.0813,0.3056,-48.0000,12.4500,23.5500,9.7875,0.2131,0.3950,0.7072,-0.0648,0.3736,-64.5000,19.9500,-10.3500,2.9600,2.7100,-8.6800,0.4385,0.0349,-0.0796,-28.6875,-10.7500,19.6875,265.8750,18.8750,-159.5000,0
676.420,9.7995,1.8507,-0.4046,0.7893,0.0813,0.3056,-49.3500,11.5500,24.4500,9.7875,0.2131,0.3950,0.7072,-0.0648,0.3736,-65.5500,19.9500,-8.8500,2.9600,2.7100,-8.6800,0.4385,0.0349,-0.0796,-28.6875,-10.7500,19.6875,265.8750,18.8750,-159.5000,0
676.425,9.7157,1.5921,-0.3735,0.7496,0.0021,0.3104,-49.3500,11.5500,24.4500,9.9431,0.1891,0.9912,0.6339,-0.0685,0.3752,-65.4000,20.1000,-9.3000,3.1000,2.9300,-8.7500,0.4222,0.0425,-0.0633,-29.0625,-11.0625,18.8750,265.8125,18.8750,-159.6875,0
676.430,9.7157,1.5921,-0.3735,0.7496,0.0021,0.3104,-49.3500,11.5500,24.4500,9.9431,0.1891,0.9912,0.6339,-0.0685,0.3752,-65.4000,20.1000,-9.3000,3.1000,2.9300,-8.7500,0.4222,0.0425,-0.0633,-29.0625,-11.0625,18.8750,265.8125,18.8750,-159.6875,0
676.435,9.8593,1.4581,0.0862,0.5985,-0.0096,0.3256,-49.3500,11.5500,24.4500,9.9838,0.1006,1.0942,0.5742,-0.1079,0.3675,-65.4000,20.1000,-9.3000,3.1200,2.9300,-8.7200,0.4189,0.0338,-0.0382,-29.0625,-11.0625,18.8750,265.7500,18.9375,-159.9375,0
676.440,9.8593,1.4581,0.0862,0.5985,-0.0096,0.3256,-48.6000,12.0000,25.2000,9.9838,0.1006,1.0942,0.5742,-0.1079,0.3675,-64.3500,19.3500,-9.7500,3.1200,2.9300,-8.7200,0.4134,0.0131,-0.0262,-29.0625,-11.0625,18.8750,265.6875,18.9375,-160.1875,0
676.446,9.7468,1.4246,0.1125,0.4151,-0.0261,0.3456,-48.6000,12.0000,25.2000,9.8857,0.2131,1.0702,0.4882,-0.1356,0.3709,-63.7500,18.7500,-9.1500,3.2100,2.8500,-8.7100,0.4134,0.0131,-0.0262,-29.0625,-11.0625,18.8750,265.6250,18.9375,-160.3750,0
676.456,9.6079,1.3599,0.0862,0.2630,-0.0131,0.3387,-48.4500,12.4500,24.7500,9.8521,0.2203,1.2234,0.3925,-0.1841,0.3813,-63.7500,18.7500,-9.1500,3.1900,2.9200,-8.7500,0.4112,-0.0065,-0.0175,-29.0625,-11.0625,18.8750,265.6250,18.9375,-160.3750,0
676.466,9.7061,1.3336,0.0144,0.2028,0.0213,0.3307,-47.5500,12.7500,25.9500,9.9527,0.1724,1.1588,0.3549,-0.2105,0.3778,-65.1000,18.1500,-10.8000,3.2600,3.0300,-8.7000,0.4145,-0.0131,-0.0044,-29.0625,-11.0625,18.8750,265.6250,18.8750,-160.6250,0
676.471,9.7061,1.3336,0.0144,0.2028,0.0213,0.3307,-44.5500,15.7500,24.9000,9.8067,-0.0886,0.9481,0.3549,-0.2105,0.3778,-65.1000,18.1500,-10.8000,3.2600,3.0300,-8.7000,0.4145,-0.0131,-0.0044,-29.0625,-11.0625,18.8750,265.6250,18.8750,-160.6250,0
676.476,9.6199,1.3192,-0.2131,0.1764,0.0317,0.3232,-44.5500,15.7500,24.9000,9.8067,-0.0886,0.9481,0.3541,-0.2241,0.3760,-65.1000,18.1500,-10.8000,3.3800,3.0400,-8.6800,0.4352,-0.0262,0.0011,-29.5000,-9.2500,19.1875,265.5625,18.8750,-160.8750,0
676.481,9.6079,1.6831,-0.3998,0.1599,0.0192,0.3195,-44.5500,15.7500,24.9000,9.7947,-0.1820,0.6560,0.2832,-0.2411,0.3714,-65.4000,19.3500,-10.0500,3.3800,3.0400,-8.6800,0.4352,-0.0262,0.0011,-29.5000,-9.2500,19.1875,265.5625,18.8750,-160.8750,0
676.486,9.6079,1.6831,-0.3998,0.1599,0.0192,0.3195,-44.5500,15.7500,24.9000,9.7947,-0.1820,0.6560,0.2832,-0.2411,0.3714,-65.4000,19.3500,-10.0500,3.2800,3.3300,-8.6300,0.4549,-0.0447,-0.0065,-29.5000,-9.2500,19.1875,265.5625,18.8750,-161.1250,0
676.491,9.5098,1.9082,-0.6440,0.1170,0.0237,0.3147,-45.9000,11.7000,26.8500,9.7707,-0.2035,0.3711,0.2025,-0.2366,0.3744,-65.4000,19.3500,-10.0500,3.2800,3.3300,-8.6300,0.4734,-0.0513,-0.0349,-29.5000,-9.2500,19.1875,265.5000,18.8125,-161.3750,0
676.496,9.5098,1.9082,-0.6440,0.1170,0.0237,0.3147,-45.9000,11.7000,26.8500,9.7707,-0.2035,0.3711,0.2025,-0.2366,0.3744,-65.8500,17.7000,-9.7500,3.6000,2.5700,-8.9100,0.4734,-0.0513,-0.0349,-29.5000,-9.2500,19.1875,265.4375,18.7500,-161.6250,0
676.506,9.3278,1.9704,-0.8619,0.1124,0.0434,0.3064,-44.2500,13.5000,26.2500,9.7085,-0.2107,0.0048,0.1108,-0.2441,0.3808,-65.8500,17.7000,-9.7500,3.4800,2.4300,-8.9800,0.4909,-0.1091,-0.0436,-29.5000,-9.2500,19.1875,265.3750,18.6875,-161.9375,0
676.516,9.6127,1.8004,-1.1851,0.0541,0.0314,0.3027,-42.4500,10.5000,28.2000,9.6271,-0.3472,0.0263,0.0909,-0.2174,0.3901,-66.6000,20.4000,-11.2500,3.4800,2.4200,-8.9700,0.4832,-0.1451,-0.0469,-29.5000,-9.2500,19.1875,265.3750,18.6875,-161.9375,0
676.521,9.5744,1.7454,-1.5921,0.0352,0.0064,0.3171,-42.4500,10.5000,28.0500,9.5170,-0.4310,-0.2251,0.0312,-0.1998,0.4010,-64.5000,19.5000,-10.3500,3.4800,2.4200,-8.9700,0.4832,-0.1451,-0.0469,-29.5000,-9.2500,19.1875,265.3125,18.5625,-162.1875,0
676.526,9.5744,1.7454,-1.5921,0.0352,0.0064,0.3171,-44.4000,13.6500,27.9000,9.5170,-0.4310,-0.2251,0.0312,-0.1998,0.4010,-64.5000,19.5000,-10.3500,3.4400,2.3600,-8.9200,0.4789,-0.1811,-0.0404,-29.0625,-8.8750,19.1875,265.3125,18.5625,-162.1875,0
676.531,9.7659,1.9417,-1.8364,0.0000,-0.0059,0.3248,-44.4000,13.6500,27.9000,9.7755,-0.8332,-0.1484,0.0021,-0.1471,0.4154,-64.8000,19.5000,-11.1000,3.4400,2.3600,-8.9200,0.4789,-0.1811,-0.0404,-29.0625,-8.8750,19.1875,265.2500,18.4375,-162.5000,0
676.536,9.7659,1.9417,-1.8364,0.0000,-0.0059,0.3248,-44.4000,13.6500,27.9000,9.7755,-0.8332,-0.1484,0.0021,-0.1471,0.4154,-64.8000,19.5000,-11.1000,3.3700,2.2600,-9.0200,0.5051,-0.2105,-0.0262,-29.0625,-8.8750,19.1875,265.2500,18.4375,-162.5000,0
676.542,9.8928,2.0830,-2.1572,-0.0123,-0.0296,0.3392,-44.4000,13.6500,27.9000,9.7971,-0.7542,0.0144,-0.1188,-0.0855,0.4551,-64.8000,19.5000,-11.1000,3.5000,1.8600,-9.3600,0.4974,-0.2127,-0.0218,-29.0625,-8.8750,19.1875,265.1875,18.3750,-162.7500,0
676.547,9.8928,2.0830,-2.1572,-0.0123,-0.0296,0.3392,-40.9500,10.5000,29.1000,9.9024,-0.7973,-0.1604,-0.1188,-0.0855,0.4551,-64.8000,19.9500,-11.1000,3.5000,1.8600,-9.3600,0.4974,-0.2127,-0.0218,-29.0625,-8.8750,19.1875,265.1875,18.2500,-163.0000,0
676.556,10.1179,2.3056,-2.0303,0.0477,-0.1146,0.3469,-39.9000,9.7500,27.7500,9.9024,-0.7973,-0.1604,-0.3230,-0.0482,0.4868,-64.8000,19.9500,-11.1000,3.6700,1.8400,-9.5600,0.4592,-0.2193,-0.0295,-29.0625,-8.8750,19.1875,265.1250,18.0625,-163.2500,0
676.566,9.6774,2.4828,-1.9704,0.0290,-0.1815,0.3424,-40.0500,10.2000,28.9500,9.6534,0.5076,-0.4262,-0.4652,-0.0152,0.5012,-64.8000,19.9500,-11.1000,3.4800,2.1200,-9.4200,0.4385,-0.2956,-0.0185,-29.0625,-8.8750,19.1875,265.1250,18.0625,-163.2500,0
676.571,9.3541,2.6743,-1.7190,-0.0019,-0.2539,0.3192,-40.0500,10.2000,28.9500,9.6534,0.5076,-0.4262,-0.5947,-0.0037,0.5049,-65.1000,17.7000,-12.3000,3.4800,2.1200,-9.4200,0.4385,-0.2956,-0.0185,-29.0625,-8.8750,19.1875,265.1250,17.8750,-163.5625,0
676.576,9.3541,2.6743,-1.7190,-0.0019,-0.2539,0.3192,-39.1500,10.8000,30.6000,9.5648,1.2905,-0.4884,-0.5947,-0.0037,0.5049,-65.1000,17.7000,-12.3000,3.8100,2.4800,-9.3200,0.4396,-0.3262,-0.0207,-28.2500,-10.3750,20.0625,265.1250,17.8750,-163.5625,0
676.581,8.9232,3.0478,-1.4150,-0.0125,-0.2020,0.2838,-39.1500,10.8000,30.6000,9.5648,1.2905,-0.4884,-0.5441,0.0120,0.5127,-65.8500,18.9000,-11.2500,3.8100,2.4800,-9.3200,0.4396,-0.3262,-0.0207,-28.2500,-10.3750,20.0625,265.0625,17.6875,-163.8125,0
676.586,8.9232,3.0478,-1.4150,-0.0125,-0.2020,0.2838,-39.1500,10.8000,30.6000,9.2201,1.8603,-0.2753,-0.5441,0.0120,0.5127,-65.8500,18.9000,-11.2500,3.3700,2.5900,-9.0500,0.4734,-0.3763,-0.0502,-28.2500,-10.3750,20.0625,265.0625,17.6875,-163.8125,0
676.591,8.5449,3.4692,-1.4772,-0.0370,-0.1620,0.2454,-39.1500,10.8000,30.6000,9.2201,1.8603,-0.2753,-0.3389,0.0759,0.5252,-66.1500,18.1500,-10.0500,3.3700,2.5900,-9.0500,0.5116,-0.3829,-0.1004,-28.2500,-10.3750,20.0625,265.0000,17.4375,-164.1250,0
676.597,8.5449,3.4692,-1.4772,0.0400,-0.1631,0.2225,-39.9000,8.5500,29.8500,9.3374,2.0614,-0.5746,-0.1452,0.1098,0.5305,-66.1500,18.1500,-10.0500,3.7200,2.9000,-9.0000,0.5116,-0.3829,-0.1004,-28.2500,-10.3750,20.0625,264.8750,17.2500,-164.3750,0
676.606,8.9615,4.0582,-1.5826,0.0400,-0.1631,0.2225,-39.3000,8.4000,30.7500,9.2943,1.9010,-0.8021,0.1937,0.2033,0.5521,-66.6000,17.4000,-11.2500,4.3300,4.6100,-9.2000,0.5672,-0.3752,-0.1985,-28.2500,-10.3750,20.0625,264.6250,16.8750,-164.6875,0
676.616,8.7604,4.6064,-1.5969,0.3011,-0.0975,0.1772,-39.9000,9.3000,29.1000,9.5672,1.4078,-0.5698,0.4634,0.2721,0.5668,-66.6000,17.4000,-9.3000,2.9800,2.7600,-9.2000,0.5651,-0.5127,-0.4123,-28.2500,-10.3750,20.0625,264.6250,16.8750,-164.6875,0
676.621,8.8011,4.8459,-1.6209,0.3011,-0.0975,0.1772,-39.9000,9.3000,29.1000,9.5672,1.4078,-0.5698,0.4634,0.2721,0.5668,-66.6000,18.1500,-11.2500,2.9800,2.7600,-9.2000,0.5651,-0.5127,-0.4123,-28.2500,-10.3750,20.0625,264.6250,16.8750,-164.6875,0
676.626,9.0333,4.9752,-1.3503,0.5412,-0.1314,0.1487,-39.3000,9.9000,31.0500,9.6845,1.3096,0.0838,0.7109,0.3619,0.5817,-66.6000,18.1500,-11.2500,3.8900,3.2400,-9.7600,0.5552,-0.5203,-0.5171,-28.6875,-8.8750,20.8750,264.3750,16.5625,-164.9375,0
676.631,9.0333,4.9752,-1.3503,0.5412,-0.1314,0.1487,-39.3000,9.9000,31.0500,9.6845,1.3096,0.0838,0.7109,0.3619,0.5817,-66.6000,18.1500,-11.2500,3.8900,3.2400,-9.7600,0.5552,-0.5203,-0.5171,-28.6875,-8.8750,20.8750,264.3750,16.5625,-164.9375,0
676.636,9.0357,4.8650,-0.8667,0.7829,-0.0895,0.1106,-41.4000,9.3000,28.8000,9.3996,3.2130,0.3017,0.8034,0.4319,0.6027,-66.6000,18.1500,-11.2500,4.0000,3.7300,-9.2400,0.5367,-0.5454,-0.6338,-28.6875,-8.8750,20.8750,264.0000,16.1875,-165.1250,0
676.643,9.0357,4.8650,-0.8667,0.7829,-0.0895,0.1106,-41.4000,9.3000,28.8000,9.9623,3.8618,0.5435,0.8034,0.4319,0.6027,-66.6000,16.9500,-10.5000,1.6400,9.0800,-5.7400,0.5770,-0.4974,-0.8716,-28.6875,-8.8750,20.8750,263.5000,15.7500,-165.3125,0
676.648,9.2177,4.6112,-0.3208,1.0339,-0.0360,0.0815,-41.4000,9.3000,28.8000,9.9623,3.8618,0.5435,0.4575,0.2966,0.6046,-66.6000,16.9500,-10.5000,1.6400,9.0800,-5.7400,0.5770,-0.4974,-0.8716,-28.6875,-8.8750,20.8750,262.5625,15.5625,-165.3125,0
676.656,8.9783,4.4245,0.4070,1.1796,0.0133,0.0605,-41.7000,9.0000,28.0500,10.0485,4.7166,1.0822,1.2239,0.3896,0.6257,-66.3000,18.0000,-10.3500,2.9400,10.4900,-7.6700,0.4265,-0.0055,-1.6275,-28.6875,-8.8750,20.8750,261.5000,15.1250,-165.3125,0
676.666,9.2249,4.2880,0.5602,1.2902,0.1412,0.0373,-40.0500,7.9500,29.7000,10.0580,4.1659,1.1444,1.7189,0.3816,0.5950,-65.1000,15.0000,-9.3000,2.9200,3.6000,-8.6900,0.4712,-0.2345,-1.9024,-28.6875,-8.8750,20.8750,261.5000,15.1250,-165.3125,0
676.671,9.2249,4.2880,0.5602,1.2902,0.1412,0.0373,-40.0500,7.9500,29.7000,10.0580,4.1659,1.1444,1.7189,0.3816,0.5950,-67.5000,17.1000,-9.6000,2.9200,3.6000,-8.6900,0.4712,-0.2345,-1.9024,-28.6875,-8.8750,20.8750,260.3750,14.8750,-165.5000,0
676.676,9.3709,4.1803,0.7422,1.3576,0.2268,0.0011,-39.7500,7.9500,29.2500,9.9048,3.2513,1.3192,2.3283,0.4042,0.5990,-67.5000,17.1000,-9.6000,3.0800,4.8500,-9.0700,0.8258,0.0164,-1.9406,-28.0000,-8.1875,21.1875,260.3750,14.8750,-165.5000,0
676.681,9.3709,4.1803,0.7422,1.3576,0.2268,0.0011,-39.7500,7.9500,29.2500,9.9048,3.2513,1.3192,2.3283,0.4042,0.5990,-66.1500,17.4000,-9.0000,3.0800,4.8500,-9.0700,0.8258,0.0164,-1.9406,-28.0000,-8.1875,21.1875,259.1250,14.5625,-165.6250,0
676.686,9.2584,4.2329,0.9146,1.4035,0.2928,-0.0368,-41.4000,9.0000,28.8000,9.9000,2.3487,1.6951,2.5791,0.4143,0.6265,-66.1500,17.4000,-9.0000,2.3800,4.8600,-7.6500,0.7298,-0.0916,-2.1653,-28.0000,-8.1875,21.1875,259.1250,14.5625,-165.6250,0
676.691,9.2584,4.2329,0.9146,1.4035,0.2928,-0.0368,-41.4000,9.0000,28.8000,10.0700,2.4325,1.7573,2.5791,0.4143,0.6265,-66.3000,19.0500,-9.9000,2.3800,4.8600,-7.6500,0.8574,0.1091,-2.3126,-28.0000,-8.1875,21.1875,257.7500,14.2500,-165.7500,0
676.697,9.1770,4.3551,1.0606,1.5186,0.3893,-0.0810,-41.4000,9.0000,28.8000,10.0700,2.4325,1.7573,2.6590,0.3826,0.6931,-66.3000,19.0500,-9.9000,2.4400,5.0200,-7.3300,0.8574,0.1091,-2.3126,-28.0000,-8.1875,21.1875,256.2500,14.1250,-165.8750,0
676.706,9.1626,4.3622,0.9840,1.6955,0.5484,-0.1071,-40.6500,9.3000,28.5000,10.0820,2.9161,1.7430,2.7033,0.3429,0.7613,-66.3000,19.0500,-9.9000,2.3300,5.0400,-7.1900,0.9196,0.3152,-2.5645,-28.0000,-8.1875,21.1875,254.5000,14.0000,-166.0000,0
676.716,9.1746,4.4939,0.8188,1.9979,0.6496,-0.1399,-42.0000,8.2500,28.0500,10.0676,3.4213,1.8842,2.9948,0.3597,0.8170,-65.4000,18.9000,-10.0500,2.7500,5.7400,-7.3000,0.9163,0.5607,-2.9169,-28.0000,-8.1875,21.1875,254.5000,14.0000,-166.0000,0
676.721,9.1746,4.4939,0.8188,1.9979,0.6496,-0.1399,-42.0000,8.2500,28.0500,10.0772,3.7565,1.7597,3.3894,0.4213,0.8415,-65.4000,18.9000,-10.0500,2.7500,5.7400,-7.3000,0.9163,0.5607,-2.9169,-28.0000,-8.1875,21.1875,252.6250,14.0000,-166.0625,0
676.726,9.1554,4.4819,0.6153,2.3707,0.7730,-0.1767,-40.6500,8.5500,27.3000,10.0772,3.7565,1.7597,3.3894,0.4213,0.8415,-65.4000,18.9000,-10.0500,3.5400,5.8900,-7.5100,0.9381,0.7996,-3.2627,-25.3750,-10.7500,23.1875,252.6250,14.0000,-166.0625,0
676.731,9.1554,4.4819,0.6153,2.3707,0.7730,-0.1767,-40.6500,8.5500,27.3000,10.0389,3.5937,2.0039,3.8629,0.5015,0.8482,-67.5000,18.3000,-9.9000,3.5400,5.8900,-7.5100,0.9381,0.7996,-3.2627,-25.3750,-10.7500,23.1875,250.4375,14.0625,-166.0625,0
676.736,9.5744,4.5083,0.6728,2.7680,0.8676,-0.1966,-40.8000,10.6500,27.1500,10.0389,3.5937,2.0039,3.8629,0.5015,0.8482,-67.5000,18.3000,-9.9000,3.6700,6.1900,-7.3300,0.9894,1.0090,-3.6041,-25.3750,-10.7500,23.1875,250.4375,14.0625,-166.0625,0
676.741,9.5744,4.5083,0.6728,2.7680,0.8676,-0.1966,-40.8000,10.6500,27.1500,10.0461,3.0837,2.1165,4.2197,0.5873,0.8327,-66.9000,17.7000,-9.0000,3.6700,6.1900,-7.3300,1.0494,1.2097,-3.8975,-25.3750,-10.7500,23.1875,248.1250,14.1875,-166.0625,0
676.747,9.8186,4.5945,0.8571,3.1520,0.9697,-0.2305,-42.0000,10.0500,26.2500,10.0461,3.0837,2.1165,4.2197,0.5873,0.8327,-66.9000,17.7000,-9.0000,3.7600,6.1200,-7.0200,1.0494,1.2097,-3.8975,-25.3750,-10.7500,23.1875,245.6875,14.4375,-166.0625,0
676.756,9.9000,4.6711,1.0223,3.5074,1.0296,-0.2665,-42.0000,10.0500,26.2500,9.5577,2.8395,2.7509,4.4315,0.6744,0.7568,-67.2000,19.5000,-10.6500,7.9900,4.5600,-5.7000,1.0014,1.4726,-4.0753,-25.3750,-10.7500,23.1875,245.6875,14.4375,-166.0625,0
676.766,9.7875,4.6998,1.1085,3.8275,1.0818,-0.3078,-40.5000,12.9000,25.0500,9.5122,2.1284,2.8515,4.5584,0.7480,0.6720,-66.6000,19.3500,-10.5000,0.8400,8.2800,-5.2000,0.7167,1.4683,-4.0721,-25.3750,-10.7500,23.1875,243.3125,14.6875,-165.8125,0
676.771,9.6558,4.6112,1.1899,4.1206,1.1285,-0.3496,-40.5000,12.9000,25.0500,9.7779,1.9800,3.3327,4.6495,0.8274,0.6166,-66.6000,19.3500,-10.5000,0.8400,8.2800,-5.2000,0.7167,1.4683,-4.0721,-25.3750,-10.7500,23.1875,243.3125,14.6875,-165.8125,0
676.776,9.6558,4.6112,1.1899,4.1206,1.1285,-0.3496,-40.5000,13.9500,25.0500,9.7779,1.9800,3.3327,4.6495,0.8274,0.6166,-66.6000,19.3500,-10.5000,6.4800,6.8100,-6.2900,0.8836,2.0660,-4.2444,-24.2500,-13.2500,21.6875,240.7500,15.2500,-165.6250,0
676.781,9.6917,4.6400,1.4509,4.3993,1.1559,-0.4128,-40.5000,13.9500,25.0500,9.9240,2.0087,3.1508,4.6436,0.8332,0.5937,-66.7500,20.7000,-11.1000,6.4800,6.8100,-6.2900,0.8836,2.0660,-4.2444,-24.2500,-13.2500,21.6875,240.7500,15.2500,-165.6250,0
676.786,9.6917,4.6400,1.4509,4.3993,1.1559,-0.4128,-39.3000,13.2000,24.0000,9.9240,2.0087,3.1508,4.6436,0.8332,0.5937,-66.7500,20.7000,-11.1000,3.9200,5.9100,-6.1800,0.8039,2.1533,-4.2946,-24.2500,-13.2500,21.6875,238.1250,15.8125,-165.3125,0
676.791,9.8976,4.6471,1.6257,4.6412,1.2279,-0.4786,-40.9500,13.8000,24.0000,9.8162,2.0662,3.2968,4.5845,0.8146,0.5694,-66.7500,20.7000,-11.1000,3.9200,5.9100,-6.1800,0.5945,2.2297,-4.4800,-24.2500,-13.2500,21.6875,235.4375,16.3750,-164.8750,0
676.797,9.8976,4.6471,1.6257,4.6412,1.2279,-0.4786,-40.9500,13.8000,21.6000,9.9335,1.9537,3.5219,4.5845,0.8146,0.5694,-66.7500,20.7000,-11.1000,4.2800,5.8800,-6.3100,0.5945,2.2297,-4.4800,-24.2500,-13.2500,21.6875,232.7500,17.0000,-164.3125,0
676.806,9.9024,4.4388,1.8364,4.7372,1.1295,-0.5513,-40.9500,13.8000,21.6000,9.9599,2.1596,3.4812,4.5717,0.7978,0.5548,-66.7500,21.9000,-12.9000,4.6800,5.5600,-6.9800,0.4789,2.4795,-4.5433,-24.2500,-13.2500,21.6875,229.9375,17.6875,-163.6250,0
676.817,10.0078,4.2928,2.1093,4.7214,1.1109,-0.5923,-40.9500,13.8000,21.6000,10.0628,2.2625,3.2729,4.5554,0.7600,0.5255,-66.9000,22.5000,-12.0000,4.2700,5.7200,-7.7400,0.3731,2.5722,-4.5684,-24.2500,-13.2500,21.6875,229.9375,17.6875,-163.6250,0
676.822,9.9575,4.1875,2.3535,4.6239,1.1101,-0.6297,-39.4500,16.8000,20.2500,10.0628,2.2625,3.2729,4.5232,0.7152,0.4999,-66.0000,23.4000,-13.9500,4.2700,5.7200,-7.7400,0.3731,2.5722,-4.5684,-22.5000,-17.8750,21.1875,227.1875,18.3125,-162.8750,0
676.827,9.9575,4.1875,2.3535,4.6239,1.1101,-0.6297,-39.4500,16.8000,20.2500,10.2041,2.2697,3.4644,4.5128,0.6590,0.4740,-66.0000,23.4000,-13.9500,3.7900,5.5800,-7.6500,0.2989,2.5700,-4.6011,-22.5000,-17.8750,21.1875,227.1875,18.3125,-162.8750,0
676.832,9.6055,3.9241,2.7222,4.5490,1.1181,-0.6646,-41.4000,17.5500,18.7500,10.2041,2.2697,3.4644,4.5128,0.6590,0.4740,-67.5000,23.4000,-12.9000,3.7900,5.5800,-7.6500,0.2989,2.5700,-4.6011,-22.5000,-17.8750,21.1875,227.1875,18.3125,-162.8750,0
676.837,9.6055,3.9241,2.7222,4.5490,1.1181,-0.6646,-41.4000,17.5500,18.7500,10.2065,2.3798,3.5961,4.4878,0.5686,0.4426,-67.5000,23.4000,-12.9000,3.4900,5.3500,-7.6100,0.2891,2.5929,-4.5608,-22.5000,-17.8750,21.1875,224.4375,18.9375,-162.0625,0
676.846,10.0413,3.6176,2.8659,4.4776,1.1890,-0.6995,-41.8500,17.7000,18.3000,10.2208,2.3990,3.3208,4.4377,0.5089,0.4341,-67.3500,24.0000,-13.8000,3.2100,5.4500,-7.6800,0.3065,2.6071,-4.4789,-22.5000,-17.8750,21.1875,221.6875,19.5000,-161.2500,0
676.856,9.9599,3.2872,2.6576,4.2922,1.2867,-0.7695,-40.5000,19.2000,17.2500,10.1011,2.1572,2.9951,4.4443,0.4474,0.4271,-67.3500,24.0000,-14.2500,3.0500,5.8000,-8.2700,0.2989,2.5809,-4.3982,-22.5000,-17.8750,21.1875,219.0000,20.0625,-160.4375,0
676.863,10.3358,2.8922,2.5833,4.1315,1.3800,-0.8468,-40.5000,19.2000,17.2500,10.1011,2.1572,2.9951,4.4443,0.4474,0.4271,-67.3500,24.0000,-14.2500,2.7700,6.1600,-8.2200,0.2934,2.4805,-4.3197,-22.5000,-17.8750,21.1875,216.3125,20.5625,-159.5625,0
676.868,10.7859,2.3679,2.5833,3.9698,1.4538,-0.9246,-40.5000,19.2000,17.2500,10.1562,1.3168,3.0694,4.4766,0.3877,0.4013,-67.3500,24.0000,-14.2500,2.7700,6.1600,-8.2200,0.2934,2.4805,-4.3197,-22.5000,-17.8750,21.1875,216.3125,20.5625,-159.5625,0
676.873,10.7859,2.3679,2.5833,3.9698,1.4538,-0.9246,-42.4500,18.3000,14.2500,10.1562,1.3168,3.0694,4.4766,0.3877,0.4013,-66.6000,25.5000,-16.3500,2.5700,6.2200,-7.8600,0.3523,2.3966,-4.2542,-18.8750,-23.0000,18.0625,213.6875,20.9375,-158.7500,0
676.878,10.9774,1.5874,2.4397,3.8469,1.5180,-0.9761,-42.4500,18.3000,14.2500,10.0844,0.2298,3.0933,4.4321,0.3144,0.3640,-66.6000,25.5000,-16.3500,2.5700,6.2200,-7.8600,0.3523,2.3966,-4.2542,-18.8750,-23.0000,18.0625,213.6875,20.9375,-158.7500,0
676.883,10.9774,1.5874,2.4397,3.8469,1.5180,-0.9761,-41.7000,18.3000,14.5500,10.0844,0.2298,3.0933,4.4321,0.3144,0.3640,-66.7500,25.3500,-16.9500,2.1000,5.8300,-7.1300,0.4102,2.3420,-4.1964,-18.8750,-23.0000,18.0625,211.0625,21.3125,-157.9375,0
676.888,11.0899,0.6393,2.5043,3.8165,1.4583,-0.9944,-41.7000,18.3000,14.5500,10.1394,-0.5866,3.0622,4.2773,0.2156,0.3083,-66.7500,25.3500,-16.9500,2.1000,5.8300,-7.1300,0.4102,2.3420,-4.1964,-18.8750,-23.0000,18.0625,208.5000,21.6250,-157.1250,0
676.897,11.1235,-0.2873,2.4900,3.7217,1.4165,-1.0000,-43.3500,19.2000,12.6000,10.0245,-1.0439,2.9784,4.0084,0.0765,0.2419,-68.4000,25.5000,-18.3000,1.7900,5.6600,-6.8600,0.3687,2.3017,-4.1582,-18.8750,-23.0000,18.0625,205.9375,21.8125,-156.2500,0
676.907,10.9583,-0.9816,2.2338,3.6375,1.3344,-1.0040,-42.7500,18.7500,13.5000,9.9120,-1.1923,2.9999,3.7561,-0.0552,0.1615,-67.9500,25.8000,-17.4000,1.4200,5.5300,-6.6200,0.2258,2.2493,-4.1124,-18.8750,-23.0000,18.0625,205.9375,21.8125,-156.2500,0
676.916,10.8649,-1.3623,1.9609,3.5394,1.1279,-0.9739,-42.7500,18.7500,13.5000,9.9359,-0.9409,2.9185,3.5192,-0.2110,0.0743,-68.2500,26.1000,-19.9500,1.5600,5.3600,-7.1100,0.0567,2.2253,-4.0306,-18.8750,-23.0000,18.0625,203.4375,22.0625,-155.2500,0
676.921,10.8649,-1.3623,1.9609,3.5394,1.1279,-0.9739,-42.7500,18.7500,13.5000,9.9359,-0.9409,2.9185,3.5192,-0.2110,0.0743,-67.2000,26.5500,-19.5000,1.5600,5.3600,-7.1100,0.0567,2.2253,-4.0306,-18.8750,-23.0000,18.0625,203.4375,22.0625,-155.2500,0
676.926,10.6973,-1.4269,1.7909,3.4278,0.9441,-0.9300,-42.7500,18.7500,13.5000,9.9383,-0.4717,2.9353,3.3241,-0.3611,0.0027,-67.2000,26.5500,-19.5000,1.5600,5.0600,-7.3700,-0.0676,2.1533,-3.9095,-15.1875,-27.0625,15.0625,201.0000,22.1875,-154.1875,0
676.931,10.6973,-1.4269,1.7909,3.4278,0.9441,-0.9300,-45.0000,18.3000,10.2000,9.8138,0.0383,2.9305,3.3241,-0.3611,0.0027,-67.2000,26.5500,-19.5000,1.5600,5.0600,-7.3700,-0.0676,2.1533,-3.9095,-15.1875,-27.0625,15.0625,201.0000,22.1875,-154.1875,0
676.936,10.2328,-1.3671,1.4629,3.3646,0.7975,-0.9009,-45.0000,18.3000,10.2000,9.8138,0.0383,2.9305,3.2061,-0.5100,-0.0445,-67.2000,26.5500,-19.5000,1.4300,4.6800,-7.7000,-0.1484,1.9897,-3.7535,-15.1875,-27.0625,15.0625,198.6875,22.2500,-153.1250,0
676.942,10.2328,-1.3671,1.4629,3.3646,0.7975,-0.9009,-44.5500,18.0000,8.8500,9.8210,-0.2107,2.7438,3.2061,-0.5100,-0.0445,-67.9500,27.0000,-20.7000,1.4300,4.6800,-7.7000,-0.2018,1.8391,-3.5768,-15.1875,-27.0625,15.0625,196.5000,22.2500,-152.1250,0
676.947,10.0030,-0.9266,1.3240,3.2095,0.7064,-0.8745,-44.5500,18.0000,8.8500,9.8210,-0.2107,2.7438,3.1224,-0.6270,-0.0727,-67.9500,27.0000,-20.7000,1.7300,4.4500,-8.2000,-0.2018,1.8391,-3.5768,-15.1875,-27.0625,15.0625,194.4375,22.1875,-151.1250,0
676.957,9.7396,-0.5148,1.1277,2.9497,0.6182,-0.8724,-42.4500,16.8000,8.8500,9.8761,-0.4381,2.7629,3.0006,-0.7386,-0.0722,-67.9500,27.0000,-20.7000,1.4400,4.5100,-8.3800,-0.2291,1.6264,-3.4252,-15.1875,-27.0625,15.0625,194.4375,22.1875,-151.1250,0
676.967,9.6630,-0.1460,1.1372,2.7542,0.5740,-0.8948,-44.1000,17.7000,9.0000,9.6845,-0.9409,2.7749,2.8613,-0.8290,-0.0810,-66.9000,27.9000,-23.8500,1.6600,4.5600,-8.3600,-0.2160,1.4508,-3.2998,-15.1875,-27.0625,15.0625,192.4375,21.9375,-150.1875,0
676.972,9.6630,-0.1460,1.1372,2.7542,0.5740,-0.8948,-44.1000,17.7000,9.0000,9.6127,-1.2857,2.8084,2.7126,-0.9126,-0.0858,-66.6000,28.3500,-25.6500,1.6600,4.5600,-8.3600,-0.2160,1.4508,-3.2998,-15.1875,-27.0625,15.0625,192.4375,21.9375,-150.1875,0
676.977,9.4954,-0.0886,1.0415,2.4669,0.5801,-0.8918,-44.1000,17.7000,9.0000,9.6127,-1.2857,2.8084,2.7126,-0.9126,-0.0858,-66.6000,28.3500,-25.6500,1.8100,4.7100,-8.2100,-0.2073,1.3308,-3.2027,-10.2500,-29.7500,13.8750,190.4375,21.6875,-149.3125,0
676.981,9.4954,-0.0886,1.0415,2.4669,0.5801,-0.8918,-43.3500,18.1500,6.9000,9.5050,-1.3288,2.9425,2.5165,-1.0155,-0.1098,-68.1000,26.4000,-25.6500,1.8100,4.7100,-8.2100,-0.2073,1.3308,-3.2027,-10.2500,-29.7500,13.8750,190.4375,21.6875,-149.3125,0
676.987,9.4332,-0.0766,0.8188,2.1658,0.5995,-0.8332,-43.3500,18.1500,6.9000,9.5050,-1.3288,2.9425,2.5165,-1.0155,-0.1098,-68.1000,26.4000,-25.6500,2.2900,5.9600,-8.1600,-0.2411,1.2577,-3.1590,-10.2500,-29.7500,13.8750,188.5625,21.3750,-148.4375,0
676.991,9.4332,-0.0766,0.8188,2.1658,0.5995,-0.8332,-44.1000,16.9500,6.4500,9.2871,-1.1588,2.7007,2.3784,-1.1061,-0.1583,-67.6500,28.6500,-24.9000,2.2900,5.9600,-8.1600,-0.2902,1.0559,-3.2245,-10.2500,-29.7500,13.8750,186.6250,20.9375,-147.5625,0
676.998,9.2105,-0.1269,0.3112,1.9033,0.6302,-0.7309,-44.1000,16.9500,6.4500,9.2871,-1.1588,2.7007,2.3784,-1.1061,-0.1583,-67.6500,28.6500,-24.9000,2.0700,5.6100,-6.8100,-0.2902,1.0559,-3.2245,-10.2500,-29.7500,13.8750,184.7500,20.4375,-146.7500,0
677.007,9.1530,0.0048,0.1221,1.7661,0.6350,-0.6137,-43.9500,18.3000,4.9500,8.9088,-0.6560,2.5067,2.3446,-1.1818,-0.2292,-67.6500,28.6500,-24.9000,2.7900,6.0300,-6.8600,-0.2825,1.0341,-3.2169,-10.2500,-29.7500,13.8750,184.7500,20.4375,-146.7500,0
677.017,9.4882,-0.0215,-0.2059,1.7752,0.6126,-0.5454,-40.8000,16.9500,5.8500,8.6383,-0.2203,2.9113,2.4075,-1.2252,-0.3166,-66.9000,29.1000,-26.7000,3.2300,6.2500,-6.0700,-0.2836,0.9807,-3.2038,-10.2500,-29.7500,13.8750,182.8125,19.9375,-145.9375,0
677.022,9.4882,-0.0215,-0.2059,1.7752,0.6126,-0.5454,-40.8000,16.9500,5.8500,8.6095,0.1413,2.9904,2.5631,-1.2465,-0.3984,-66.9000,29.1000,-26.7000,3.2300,6.2500,-6.0700,-0.2836,0.9807,-3.2038,-10.2500,-29.7500,13.8750,182.8125,19.9375,-145.9375,0
677.027,9.3182,-0.1077,-0.3926,1.8135,0.5846,-0.4714,-40.8000,16.9500,5.8500,8.6095,0.1413,2.9904,2.5631,-1.2465,-0.3984,-66.9000,29.1000,-26.7000,4.2300,7.2600,-6.3600,-0.3382,1.0527,-3.1689,-4.0625,-32.8750,11.7500,180.9375,19.4375,-145.1250,0
677.031,9.3182,-0.1077,-0.3926,1.8135,0.5846,-0.4714,-40.8000,16.9500,5.8500,8.6503,0.2705,3.2801,2.7901,-1.2359,-0.4610,-66.9000,29.1000,-26.7000,4.2300,7.2600,-6.3600,-0.3382,1.0527,-3.1689,-4.0625,-32.8750,11.7500,180.9375,19.4375,-145.1250,0
677.036,9.3063,-0.0263,-0.3879,1.9790,0.5209,-0.4170,-40.8000,16.9500,5.8500,8.6503,0.2705,3.2801,2.7901,-1.2359,-0.4610,-67.3500,27.9000,-29.7000,4.7900,7.7100,-6.3600,-0.2902,1.0297,-3.1940,-4.0625,-32.8750,11.7500,179.0000,18.8750,-144.3125,0
677.041,9.3063,-0.0263,-0.3879,1.9790,0.5209,-0.4170,-43.5000,16.8000,4.9500,8.6072,0.3376,3.2346,3.0419,-1.1967,-0.4988,-67.3500,27.9000,-29.7000,4.7900,7.7100,-6.3600,-0.1276,0.9850,-3.2299,-4.0625,-32.8750,11.7500,177.0625,18.2500,-143.6250,0
677.048,9.1554,0.1724,-0.7590,2.1733,0.3675,-0.3962,-42.0000,18.0000,5.2500,8.5449,-0.3400,2.4565,3.2591,-1.1365,-0.5223,-66.7500,27.7500,-31.8000,4.9500,7.5400,-6.0900,-0.1276,0.9850,-3.2299,-4.0625,-32.8750,11.7500,175.0625,17.5625,-143.0625,0
677.057,9.2344,0.9625,-0.8499,2.2479,0.2086,-0.4042,-42.4500,17.5500,4.2000,8.0852,-1.3120,4.2234,3.2591,-1.1365,-0.5223,-67.3500,26.7000,-31.9500,4.7600,6.1500,-5.2900,0.0273,0.9468,-3.3030,-4.0625,-32.8750,11.7500,175.0625,17.5625,-143.0625,0
677.067,9.0022,2.0806,-1.2163,2.1946,0.1404,-0.4509,-42.4500,17.5500,2.1000,8.8131,-2.1524,4.0725,2.9417,-1.1056,-0.4482,-66.6000,27.4500,-33.4500,4.6700,4.7400,-5.0800,0.0873,0.9577,-3.4045,-4.0625,-32.8750,11.7500,173.0000,16.8750,-142.5625,0
677.072,8.2313,2.4517,-0.4142,1.7837,0.1775,-0.4876,-42.4500,17.5500,2.1000,8.8131,-2.1524,4.0725,2.9417,-1.1056,-0.4482,-65.2500,28.9500,-32.5500,4.6700,4.7400,-5.0800,0.0873,0.9577,-3.4045,-4.0625,-32.8750,11.7500,170.8750,16.1875,-142.0000,0
677.077,8.2313,2.4517,-0.4142,1.7837,0.1775,-0.4876,-42.4500,17.5500,2.1000,9.1099,-2.8156,4.3981,2.7664,-1.1852,-0.3248,-65.2500,28.9500,-32.5500,4.7400,-0.1100,-5.9900,-0.0164,1.0788,-3.4830,-0.5625,-32.5000,11.1875,170.8750,16.1875,-142.0000,0
677.082,7.7237,1.1899,1.5251,1.4831,0.2481,-0.4687,-42.4500,17.5500,2.1000,9.1099,-2.8156,4.3981,2.7664,-1.1852,-0.3248,-65.2500,28.9500,-32.5500,4.7400,-0.1100,-5.9900,-0.0164,1.0788,-3.4830,-0.5625,-32.5000,11.1875,168.7500,15.5000,-141.1875,0
677.087,7.7237,1.1899,1.5251,1.4831,0.2481,-0.4687,-42.7500,18.0000,2.1000,8.6431,-3.0335,3.9792,2.1996,-1.2777,-0.2108,-65.8500,29.8500,-35.7000,5.4500,3.0100,-8.0600,-0.5280,1.1661,-3.4514,-0.5625,-32.5000,11.1875,168.7500,15.5000,-141.1875,0
677.092,7.1778,0.1796,2.6504,1.4797,0.4999,-0.3962,-42.7500,18.0000,2.1000,8.6431,-3.0335,3.9792,2.1996,-1.2777,-0.2108,-65.8500,29.8500,-35.7000,5.4500,3.0100,-8.0600,-0.7603,1.2359,-3.2321,-0.5625,-32.5000,11.1875,166.8125,14.8750,-140.2500,0
677.098,7.1778,0.1796,2.6504,1.4797,0.4999,-0.3962,-41.7000,18.0000,1.3500,8.3103,-3.0622,3.9361,1.8266,-1.2969,-0.1516,-65.8500,29.8500,-35.7000,7.2900,2.9800,-8.4100,-0.7603,1.2359,-3.2321,-0.5625,-32.5000,11.1875,165.0000,14.3750,-139.6250,0
677.107,7.3837,-0.2969,2.7222,1.4650,0.7365,-0.2777,-42.6000,18.1500,3.0000,7.7859,-2.6480,3.6703,1.3731,-1.2833,-0.1298,-65.5500,28.0500,-36.1500,7.3300,1.8500,-8.0900,-0.3556,1.1814,-2.8122,-0.5625,-32.5000,11.1875,165.0000,14.3750,-139.6250,0
677.117,7.8530,-0.1676,2.4349,1.3360,0.7679,-0.1537,-41.8500,18.4500,1.9500,7.1275,-2.6217,4.2186,1.1032,-1.2092,-0.1825,-65.2500,27.0000,-36.6000,7.7900,0.5100,-6.5000,0.1265,1.0297,-2.3409,-0.5625,-32.5000,11.1875,163.5000,14.0000,-139.3750,0
677.122,8.4348,0.1365,2.5331,1.1242,0.7581,-0.0099,-41.8500,18.4500,1.9500,7.1275,-2.6217,4.2186,1.1032,-1.2092,-0.1825,-65.2500,27.0000,-36.6000,7.7900,0.5100,-6.5000,0.1265,1.0297,-2.3409,-0.5625,-32.5000,11.1875,163.5000,14.0000,-139.3750,0
677.127,8.4348,0.1365,2.5331,1.1242,0.7581,-0.0099,-41.8500,18.4500,1.9500,6.7253,-2.3990,4.9799,0.9944,-1.1575,-0.2817,-66.6000,27.4500,-36.7500,8.2600,1.4200,-6.5500,0.4440,0.8858,-1.8904,5.1875,-33.1875,11.8750,162.2500,13.6875,-139.3125,0
677.132,8.1499,0.0718,1.8004,1.0182,0.8972,0.1308,-41.8500,18.4500,1.9500,6.7253,-2.3990,4.9799,0.9944,-1.1575,-0.2817,-66.6000,27.4500,-36.7500,8.2600,1.4200,-6.5500,0.4440,0.8858,-1.8904,5.1875,-33.1875,11.8750,162.2500,13.6875,-139.3125,0
677.137,8.1499,0.0718,1.8004,1.0182,0.8972,0.1308,-41.8500,18.4500,1.9500,6.7947,-2.7988,5.4516,0.9169,-1.1588,-0.3962,-65.1000,27.4500,-37.2000,9.5400,2.4600,-7.3100,0.6043,0.8378,-1.4148,5.1875,-33.1875,11.8750,161.2500,13.5000,-139.4375,0
677.143,8.1283,-0.1724,-0.0072,1.0621,0.8756,0.2606,-41.8500,18.4500,1.9500,7.1730,-3.0215,5.6790,0.9169,-1.1588,-0.3962,-65.4000,29.5500,-37.9500,10.2000,2.5300,-8.1700,0.6676,0.6741,-1.0614,5.1875,-33.1875,11.8750,160.5000,13.4375,-139.6250,0
677.148,7.3239,-0.5770,-0.3903,1.0419,0.6419,0.4378,-41.7000,18.0000,2.1000,7.1730,-3.0215,5.6790,0.8641,-1.1053,-0.4642,-65.4000,29.5500,-37.9500,10.2000,2.5300,-8.1700,0.6676,0.6741,-1.0614,5.1875,-33.1875,11.8750,159.8750,13.1875,-139.8750,0
677.157,7.3239,-0.5770,-0.3903,1.0419,0.6419,0.4378,-40.8000,18.1500,0.7500,7.7668,-2.6815,4.5274,0.6254,-1.0826,-0.4333,-65.4000,26.7000,-40.5000,10.4200,1.4200,-7.1800,0.5552,0.2149,-0.8836,5.1875,-33.1875,11.8750,159.4375,12.8125,-139.8750,0
677.167,7.0342,-0.3400,-0.9002,1.0312,0.6574,0.6171,-42.6000,15.9000,3.0000,8.7628,-1.2833,2.2410,0.3613,-0.9824,-0.2920,-65.4000,26.7000,-40.5000,11.0000,1.1300,-5.5500,0.2258,-0.1407,-0.8814,5.1875,-33.1875,11.8750,159.4375,12.8125,-139.8750,0
677.172,8.1810,0.7446,-2.2889,0.9635,0.6440,0.7898,-42.6000,15.9000,3.0000,9.5864,0.8835,2.7126,0.3613,-0.9824,-0.2920,-65.4000,26.7000,-40.5000,11.0000,1.1300,-5.5500,0.2258,-0.1407,-0.8814,5.1875,-33.1875,11.8750,158.9375,12.5000,-139.8125,0
677.177,10.2256,3.1675,-5.8131,1.1972,0.4040,0.9355,-41.5500,16.6500,2.2500,9.5864,0.8835,2.7126,0.0778,-0.5327,-0.0053,-63.3000,28.9500,-39.9000,15.0200,0.9900,-1.6900,-0.0654,0.0251,-0.8323,8.0625,-32.0000,12.1875,158.9375,12.5000,-139.8125,0
677.182,10.2256,3.1675,-5.8131,1.1972,0.4040,0.9355,-41.5500,16.6500,2.2500,7.4603,-2.0494,16.1178,0.0778,-0.5327,-0.0053,-63.3000,28.9500,-39.9000,15.0200,0.9900,-1.6900,-0.0654,0.0251,-0.8323,8.0625,-32.0000,12.1875,158.6875,13.3125,-139.7500,0
677.187,12.0165,8.3294,-7.8817,1.8551,0.1681,0.8183,-41.5500,16.6500,2.2500,7.4603,-2.0494,16.1178,1.6705,0.6702,0.4077,-63.3000,28.9500,-39.9000,30.1100,-19.4700,9.7500,0.1745,1.7137,0.1374,8.0625,-32.0000,12.1875,158.6875,13.3125,-139.7500,0
677.192,12.0165,8.3294,-7.8817,1.8551,0.1681,0.8183,-41.5500,16.6500,2.2500,8.7580,-0.7853,3.9456,1.6705,0.6702,0.4077,-63.3000,28.9500,-39.9000,30.1100,-19.4700,9.7500,2.8689,3.4448,1.9450,8.0625,-32.0000,12.1875,158.8750,15.4375,-141.2500,0
677.198,12.7946,9.8569,-2.6432,2.1962,-0.0365,0.5710,-42.0000,14.2500,1.0500,8.7580,-0.7853,3.9456,1.0475,1.0635,0.5681,-64.0500,27.7500,-39.6000,22.5100,-16.3800,-7.4900,2.8689,3.4448,1.9450,8.0625,-32.0000,12.1875,159.2500,18.3125,-144.0000,0
677.207,17.9062,7.0581,2.4014,1.8024,0.7184,0.4698,-43.5000,14.2500,2.1000,18.7729,2.4780,-9.1411,0.5425,0.8045,0.4730,-65.2500,26.1000,-41.4000,19.0100,6.8700,-29.0300,5.0767,4.2531,2.9365,8.0625,-32.0000,12.1875,159.2500,18.3125,-144.0000,0
677.217,16.7570,2.2362,-2.0039,1.5348,0.9217,0.4389,-42.9000,14.7000,1.5000,17.7769,0.8882,-8.9974,1.4695,0.4676,0.1703,-64.8000,27.0000,-40.6500,-10.0700,16.9400,-12.9500,4.7058,1.0897,1.4912,8.0625,-32.0000,12.1875,159.4375,19.3125,-146.7500,0
677.222,16.7570,2.2362,-2.0039,1.5348,0.9217,0.4389,-42.9000,14.7000,1.5000,11.6885,1.6281,3.1939,1.5636,0.8809,-0.1996,-64.8000,27.0000,-40.6500,-10.0700,16.9400,-12.9500,4.7058,1.0897,1.4912,8.0625,-32.0000,12.1875,159.4375,19.3125,-146.7500,0
677.227,8.4827,-0.5914,-4.3359,1.7507,0.7514,0.2787,-44.2500,15.3000,0.3000,11.6885,1.6281,3.1939,1.5636,0.8809,-0.1996,-64.3500,27.1500,-40.0500,-2.9200,11.0800,-4.9000,2.2755,-1.2108,0.8945,9.7500,-33.1875,13.3750,159.8750,19.0000,-148.2500,0
677.232,8.4827,-0.5914,-4.3359,1.7507,0.7514,0.2787,-44.2500,15.3000,0.3000,9.0788,-1.9656,3.8954,1.2140,0.9894,-0.2403,-64.3500,27.1500,-40.0500,-2.9200,11.0800,-4.9000,2.2755,-1.2108,0.8945,9.7500,-33.1875,13.3750,159.8750,19.0000,-148.2500,0
677.237,7.4675,0.5435,-1.7334,1.4378,1.1724,0.1450,-43.6500,15.9000,0.4500,9.0788,-1.9656,3.8954,1.2140,0.9894,-0.2403,-64.3500,27.1500,-40.0500,8.1900,5.2800,-9.3600,0.7843,0.2989,0.9654,9.7500,-33.1875,13.3750,160.3125,19.3750,-148.8750,0
677.243,7.4675,0.5435,-1.7334,1.4378,1.1724,0.1450,-43.6500,15.9000,0.4500,6.0789,-3.8020,0.3950,0.5574,0.7573,-0.0943,-64.3500,27.1500,-40.0500,12.6400,0.6900,-10.5200,0.9414,0.7385,0.4898,9.7500,-33.1875,13.3750,160.3750,19.8750,-149.3750,0
677.248,9.7540,0.1939,1.2139,0.3509,1.3371,0.1500,-43.6500,15.9000,0.4500,8.1594,-0.4812,-0.5866,0.5574,0.7573,-0.0943,-64.6500,27.1500,-40.8000,12.6400,0.6900,-10.5200,0.9414,0.7385,0.4898,9.7500,-33.1875,13.3750,160.1250,19.8125,-149.8125,0
677.257,8.4467,-0.6321,2.3080,0.0962,0.7472,0.1721,-43.5000,15.3000,0.3000,8.1594,-0.4812,-0.5866,0.1447,0.7136,0.0874,-64.6500,27.1500,-40.8000,1.5600,2.9900,-9.0400,0.8225,-0.0807,-0.2454,9.7500,-33.1875,13.3750,160.1250,19.8125,-149.8125,0
677.267,7.4531,0.4310,1.4102,0.5700,0.7488,0.1628,-43.6500,16.2000,-0.4500,10.4531,2.1045,0.8068,0.0965,0.8497,0.2622,-65.4000,27.1500,-41.5500,2.3200,6.4700,-7.7200,0.6032,-0.1800,-0.0982,9.7500,-33.1875,13.3750,160.0625,19.6875,-150.1250,0
677.272,7.4531,0.4310,1.4102,0.5700,0.7488,0.1628,-43.6500,16.2000,-0.4500,10.3837,1.7573,2.5355,0.0552,0.9457,0.3269,-65.4000,27.1500,-41.5500,2.3200,6.4700,-7.7200,0.6032,-0.1800,-0.0982,9.7500,-33.1875,13.3750,160.0625,19.6875,-150.1250,0
677.277,9.2081,1.3743,1.9106,0.6901,0.5175,0.1370,-44.4000,15.4500,-0.1500,9.8593,0.2634,3.4093,0.0552,0.9457,0.3269,-66.9000,27.1500,-41.2500,3.5800,5.1400,-7.9400,0.4963,-0.0545,-0.0065,5.7500,-31.5000,16.8750,160.0000,19.6250,-150.4375,0
677.282,9.2081,1.3743,1.9106,0.6901,0.5175,0.1370,-44.4000,15.4500,-0.1500,9.8593,0.2634,3.4093,-0.1135,0.8551,0.2878,-66.9000,27.1500,-41.2500,3.5800,5.1400,-7.9400,0.4963,-0.0545,-0.0065,5.7500,-31.5000,16.8750,160.0000,19.6250,-150.4375,0
677.287,10.5632,1.4916,2.3200,0.6683,0.3904,0.1404,-42.6000,15.1500,1.5000,10.5584,-0.2825,2.2793,-0.1135,0.8551,0.2878,-65.5500,27.3000,-41.1000,4.0800,3.8800,-8.0700,0.5040,-0.0164,-0.0720,5.7500,-31.5000,16.8750,159.9375,19.6250,-150.6875,0
677.292,10.5632,1.4916,2.3200,0.6683,0.3904,0.1404,-42.6000,15.1500,1.5000,10.5584,-0.2825,2.2793,-0.1202,0.7163,0.2180,-65.5500,27.3000,-41.1000,4.0800,3.8800,-8.0700,0.4931,-0.0305,-0.0469,5.7500,-31.5000,16.8750,159.8750,19.5625,-150.9375,0
677.298,10.4507,0.1963,3.3974,0.3656,0.6153,0.1879,-42.6000,15.1500,1.5000,10.5058,0.0790,2.0039,0.1743,0.5833,0.0815,-66.0000,29.2500,-39.9000,3.6300,4.9300,-7.8100,0.4931,-0.0305,-0.0469,5.7500,-31.5000,16.8750,159.7500,19.5000,-151.2500,0
677.307,10.4579,-1.1588,2.8419,0.2939,0.5894,0.2393,-43.5000,13.8000,0.6000,9.6893,-0.0886,3.5530,0.3501,0.5492,0.0234,-66.1500,26.7000,-41.5500,2.9500,4.4300,-8.2900,0.4974,-0.1244,-0.0589,5.7500,-31.5000,16.8750,159.7500,19.5000,-151.2500,0
677.317,10.2735,-1.1827,1.3408,0.2427,0.5758,0.2883,-42.7500,15.0000,1.0500,10.0963,-0.8667,2.8228,0.3744,0.5473,0.1034,-65.4000,28.3500,-40.5000,3.0700,3.6200,-8.5000,0.5149,-0.0960,-0.0404,5.7500,-31.5000,16.8750,159.6875,19.4375,-151.5000,0
677.322,10.2735,-1.1827,1.3408,0.1820,0.6467,0.3651,-42.7500,15.0000,1.0500,10.0963,-0.8667,2.8228,0.3744,0.5473,0.1034,-65.4000,28.3500,-40.5000,3.0700,3.6200,-8.5000,0.5149,-0.0960,-0.0404,5.7500,-31.5000,16.8750,159.6875,19.4375,-151.8125,0
677.327,10.1370,0.3950,1.4078,0.1820,0.6467,0.3651,-43.9500,14.2500,1.3500,10.6614,-1.5107,1.5299,0.3024,0.5100,0.1492,-65.4000,28.3500,-40.5000,3.6300,3.5100,-8.2400,0.5007,-0.0894,-0.0055,5.2500,-30.2500,18.0625,159.6875,19.4375,-151.8125,0
677.332,10.4196,1.3743,1.1349,0.1591,0.7053,0.4277,-43.5000,14.5500,1.3500,10.6614,-1.5107,1.5299,0.3024,0.5100,0.1492,-65.4000,28.3500,-40.5000,3.6300,3.5100,-8.2400,0.5007,-0.0894,-0.0055,5.2500,-30.2500,18.0625,159.6250,19.3750,-152.0625,0
677.337,10.4196,1.3743,1.1349,0.1591,0.7053,0.4277,-43.5000,14.5500,1.3500,10.3765,-1.2306,1.3575,0.2145,0.4519,0.0746,-64.6500,26.4000,-40.0500,3.3500,3.0000,-8.4400,0.4647,-0.1025,-0.0196,5.2500,-30.2500,18.0625,159.6250,19.3750,-152.0625,0
677.345,10.7643,1.8962,0.5746,0.2971,0.7027,0.4354,-43.5000,15.0000,0.3000,10.1155,-0.4525,1.4126,0.2145,0.4519,0.0746,-64.6500,26.4000,-40.0500,3.3400,2.9900,-8.6300,0.3982,-0.1178,-0.0338,5.2500,-30.2500,18.0625,159.5625,19.3125,-152.3125,0
677.350,10.7643,1.8962,0.5746,0.2971,0.7027,0.4354,-43.5000,15.0000,0.3000,10.1155,-0.4525,1.4126,0.1082,0.4138,0.0101,-68.2500,25.3500,-39.9000,3.3400,2.9900,-8.6300,0.3982,-0.1178,-0.0338,5.2500,-30.2500,18.0625,159.5625,19.2500,-152.5000,0
677.358,9.6917,1.8100,0.9122,0.5079,0.5540,0.4317,-43.5000,15.0000,0.3000,9.9647,0.1939,1.4054,0.0597,0.4010,-0.0115,-65.8500,26.7000,-40.5000,3.1400,3.4400,-8.5100,0.3196,-0.1069,-0.0338,5.2500,-30.2500,18.0625,159.5000,19.1875,-152.6250,0
677.368,9.8545,1.5012,0.8835,0.6174,0.5252,0.3762,-41.8500,16.2000,2.2500,9.8928,0.6105,1.5443,0.1375,0.3960,-0.0325,-66.3000,26.1000,-39.9000,3.0900,3.7000,-8.4600,0.2498,-0.0884,-0.0284,5.2500,-30.2500,18.0625,159.5000,19.1875,-152.6250,0
677.372,9.8474,1.3288,1.2450,0.5321,0.5955,0.3416,-42.7500,14.2500,1.6500,9.8928,0.6105,1.5443,0.1375,0.3960,-0.0325,-66.3000,26.1000,-39.9000,3.0900,3.7000,-8.4600,0.2498,-0.0884,-0.0284,5.2500,-30.2500,18.0625,158.3750,19.1250,-152.7500,0
677.378,9.8474,1.3288,1.2450,0.5321,0.5955,0.3416,-42.7500,14.2500,1.6500,10.0078,0.8188,1.6352,0.1823,0.3698,-0.0061,-66.7500,28.0500,-39.6000,3.3000,3.6200,-8.4600,0.1942,-0.0807,-0.0131,6.3750,-30.0000,18.8750,158.3750,19.1250,-152.7500,0
677.382,9.8881,1.3072,1.6688,0.4141,0.5177,0.3102,-44.5500,14.2500,1.0500,10.0078,0.8188,1.6352,0.1823,0.3698,-0.0061,-66.7500,28.0500,-39.6000,3.3000,3.6200,-8.4600,0.1942,-0.0807,-0.0131,6.3750,-30.0000,18.8750,158.3750,19.1250,-152.8125,0
677.387,9.8881,1.3072,1.6688,0.4141,0.5177,0.3102,-44.5500,14.2500,1.0500,9.9479,0.7207,1.7095,0.1218,0.3315,0.0195,-67.9500,25.3500,-39.6000,3.2000,3.8700,-8.4000,0.1484,-0.0764,-0.0065,6.3750,-30.0000,18.8750,158.3750,19.1250,-152.8125,0
677.392,9.8737,1.3791,1.5850,0.2427,0.5028,0.2931,-43.5000,15.0000,3.1500,9.8114,0.6009,1.7358,0.1218,0.3315,0.0195,-67.9500,25.3500,-39.6000,3.2000,3.8700,-8.4000,0.1047,-0.0578,-0.0022,6.3750,-30.0000,18.8750,158.3750,19.0625,-152.8750,0
677.398,9.8737,1.3791,1.5850,0.2427,0.5028,0.2931,-43.5000,15.0000,3.1500,9.8114,0.6009,1.7358,-0.0093,0.2771,0.0237,-67.9500,25.3500,-39.6000,3.2800,3.9800,-8.3000,0.1047,-0.0578,-0.0022,6.3750,-30.0000,18.8750,158.3750,19.0625,-152.9375,0
677.407,9.1842,1.4413,1.4557,0.1228,0.5119,0.2715,-43.5000,15.0000,3.1500,9.7899,0.6369,1.4581,-0.1692,0.2606,0.0301,-67.2000,25.3500,-39.1500,3.3100,4.0200,-8.1900,0.0764,-0.0469,0.0011,6.3750,-30.0000,18.8750,158.3125,19.0625,-153.0000,0
677.418,9.2967,1.6831,1.0199,-0.0498,0.5836,0.2822,-42.4500,15.3000,2.4000,9.7324,1.0582,1.0678,-0.2771,0.2324,0.0413,-67.2000,25.3500,-39.1500,3.3100,3.9700,-8.2900,0.0818,-0.0207,-0.0055,6.3750,-30.0000,18.8750,158.3125,19.0625,-153.0000,0
677.422,9.5696,1.5251,1.4126,-0.1887,0.6312,0.2835,-42.9000,13.6500,1.9500,9.7444,1.3791,0.9720,-0.2372,0.2217,0.0552,-67.2000,25.3500,-39.1500,3.3100,3.9700,-8.2900,0.0818,-0.0207,-0.0055,6.3750,-30.0000,18.8750,158.3125,19.0625,-153.0000,0
677.428,9.5696,1.5251,1.4126,-0.1887,0.6312,0.2835,-42.9000,13.6500,1.9500,9.7444,1.3791,0.9720,-0.2372,0.2217,0.0552,-67.9500,26.5500,-38.8500,3.2100,3.9700,-8.3000,0.0938,-0.0371,-0.0087,6.0000,-29.5625,19.1875,157.3125,19.0000,-153.0625,0
677.432,9.5241,1.6616,1.3455,-0.2702,0.5550,0.3086,-43.3500,13.9500,3.0000,9.5289,1.5538,0.8212,-0.1279,0.2158,0.0698,-67.9500,26.5500,-38.8500,3.2100,3.9700,-8.3000,0.0938,-0.0371,-0.0087,6.0000,-29.5625,19.1875,157.3125,19.0000,-153.0625,0
677.438,9.5241,1.6616,1.3455,-0.2702,0.5550,0.3086,-43.3500,13.9500,3.0000,9.5289,1.5538,0.8212,-0.1279,0.2158,0.0698,-66.3000,27.0000,-37.6500,3.2400,3.9100,-8.3000,0.0949,-0.0840,-0.0153,6.0000,-29.5625,19.1875,157.3125,18.9375,-153.0625,0
677.442,9.5289,1.8268,1.1516,-0.3011,0.5002,0.3094,-45.4500,13.6500,3.0000,9.5409,1.2617,0.9697,-0.0234,0.2348,0.0794,-66.3000,27.0000,-37.6500,3.2400,3.9100,-8.3000,0.0774,-0.0796,-0.0164,6.0000,-29.5625,19.1875,157.3125,18.9375,-153.1250,0
677.448,9.6103,1.8028,0.9744,-0.4314,0.4421,0.3214,-45.4500,13.6500,3.0000,9.5409,1.2617,0.9697,-0.0234,0.2348,0.0794,-66.0000,27.0000,-37.6500,3.1300,3.8500,-8.3800,0.0774,-0.0796,-0.0164,6.0000,-29.5625,19.1875,157.3125,18.9375,-153.1250,0
677.457,9.6103,1.8028,0.9744,-0.4314,0.4421,0.3214,-44.5500,16.0500,2.4000,9.7540,1.0391,0.7278,-0.0482,0.2070,0.0677,-66.0000,27.0000,-38.1000,3.1000,3.8700,-8.2600,0.0633,-0.0774,-0.0120,6.0000,-29.5625,19.1875,157.3125,18.8750,-153.1875,0
677.462,9.4547,1.6233,1.0391,-0.5796,0.3917,0.3320,-44.5500,16.0500,2.4000,9.5960,0.7111,0.7374,-0.0184,0.2340,0.0616,-66.0000,27.0000,-38.1000,3.1000,3.8700,-8.2600,0.0676,-0.0851,-0.0087,6.0000,-29.5625,19.1875,157.3125,18.8125,-153.2500,0
677.469,9.4403,1.5730,0.8188,-0.6859,0.3368,0.3376,-44.5500,16.0500,2.4000,9.5960,0.7111,0.7374,-0.0184,0.2340,0.0616,-66.0000,27.0000,-38.1000,3.0600,3.9100,-8.3100,0.0676,-0.0851,-0.0087,6.0000,-29.5625,19.1875,157.3125,18.8125,-153.2500,0
677.473,9.4403,1.5730,0.8188,-0.6859,0.3368,0.3376,-44.4000,14.7000,3.3000,9.5840,0.5746,0.8284,-0.0781,0.2438,0.0730,-66.0000,27.0000,-38.1000,3.0600,3.9100,-8.3100,0.0742,-0.0873,0.0000,6.0000,-28.8750,19.1875,156.3750,18.8125,-153.3125,0
677.479,9.4667,1.7526,0.8571,-0.7909,0.3312,0.3624,-44.4000,14.7000,3.3000,9.5840,0.5746,0.8284,-0.0781,0.2438,0.0730,-66.0000,27.7500,-37.3500,3.1700,3.7400,-8.3700,0.0742,-0.0873,0.0000,6.0000,-28.8750,19.1875,156.3750,18.8125,-153.3125,0
677.483,9.4667,1.7526,0.8571,-0.7909,0.3312,0.3624,-45.0000,15.0000,5.2500,9.5050,0.6153,0.8619,-0.2113,0.2369,0.0946,-66.0000,27.7500,-37.3500,3.1700,3.7400,-8.3700,0.0698,-0.0862,0.0065,6.0000,-28.8750,19.1875,156.3750,18.7500,-153.3750,0
677.488,9.4140,2.0231,0.8787,-0.8687,0.3006,0.3635,-45.0000,15.0000,5.2500,9.5170,0.9457,0.9912,-0.2113,0.2369,0.0946,-66.0000,27.7500,-37.3500,3.1400,3.7300,-8.3800,0.0698,-0.0862,0.0065,6.0000,-28.8750,19.1875,156.3750,18.7500,-153.3750,0
677.493,9.4140,2.0231,0.8787,-0.8687,0.3006,0.3635,-42.9000,13.9500,4.8000,9.5170,0.9457,0.9912,-0.2670,0.2401,0.1092,-66.0000,27.7500,-37.3500,3.1400,3.7300,-8.3800,0.0600,-0.0840,0.0109,6.0000,-28.8750,19.1875,156.4375,18.6875,-153.4375,0
677.499,9.4834,2.1045,0.8356,-0.9273,0.2817,0.3704,-42.9000,13.9500,4.8000,9.4092,1.1277,0.6105,-0.2670,0.2401,0.1092,-66.9000,25.9500,-37.9500,3.1200,3.8400,-8.3700,0.0600,-0.0840,0.0109,6.0000,-28.8750,19.1875,156.4375,18.6875,-153.4375,0
677.508,9.3901,2.3272,0.7230,-0.9912,0.2380,0.3709,-45.0000,13.0500,5.2500,9.4954,1.1875,0.2753,-0.3267,0.2246,0.1234,-67.3500,24.4500,-37.2000,3.1600,3.9000,-8.3300,0.0524,-0.0851,0.0142,6.0000,-28.8750,19.1875,156.4375,18.6875,-153.5000,0
677.513,9.3901,2.3272,0.7230,-0.9912,0.2380,0.3709,-45.0000,13.0500,5.2500,9.4954,1.1875,0.2753,-0.3072,0.2545,0.1292,-67.3500,24.4500,-37.2000,3.1600,3.9000,-8.3300,0.0415,-0.0862,0.0153,6.0000,-28.8750,19.1875,156.4375,18.6250,-153.5625,0
677.519,9.3757,2.6576,0.5555,-0.9763,0.2102,0.3435,-45.0000,13.0500,5.2500,9.6750,1.3408,0.0215,-0.3078,0.2731,0.1492,-66.7500,26.5500,-36.9000,3.1300,3.9000,-8.3000,0.0415,-0.0862,0.0153,6.0000,-28.8750,19.1875,156.4375,18.6250,-153.5625,0
677.524,9.3757,2.6576,0.5555,-0.9763,0.2102,0.3435,-45.0000,13.0500,5.2500,9.6750,1.3408,0.0215,-0.3078,0.2731,0.1492,-66.7500,26.5500,-36.9000,2.9800,3.8600,-8.3600,0.0425,-0.0840,0.0131,6.0000,-28.5625,18.7500,155.6250,18.6250,-153.6250,0
677.529,9.4739,3.0119,0.4190,-0.9009,0.2278,0.3198,-45.0000,13.0500,5.2500,9.5529,1.5562,0.1891,-0.2140,0.2878,0.1612,-67.2000,25.8000,-35.8500,2.9800,3.8600,-8.3600,0.0425,-0.0840,0.0131,6.0000,-28.5625,18.7500,155.6250,18.6250,-153.6250,0
677.534,9.4739,3.0119,0.4190,-0.9009,0.2278,0.3198,-45.3000,13.0500,4.5000,9.5529,1.5562,0.1891,-0.2140,0.2878,0.1612,-67.2000,25.8000,-35.8500,2.9800,3.9400,-8.3400,0.0458,-0.0840,0.0185,6.0000,-28.5625,18.7500,155.6250,18.5625,-153.6250,0
677.539,9.4691,3.1173,0.4573,-0.8045,0.2308,0.2888,-44.8500,14.4000,7.2000,9.2392,1.2522,0.3400,-0.0706,0.3307,0.1380,-66.6000,27.1500,-36.7500,2.9800,3.9400,-8.3400,0.0458,-0.0840,0.0185,6.0000,-28.5625,18.7500,155.6250,18.5625,-153.6250,0
677.544,9.4691,3.1173,0.4573,-0.8045,0.2308,0.2888,-44.8500,14.4000,7.2000,9.2392,1.2522,0.3400,-0.0706,0.3307,0.1380,-66.6000,27.1500,-36.7500,2.9800,3.9400,-8.3400,0.0502,-0.0840,0.0305,6.0000,-28.5625,18.7500,155.6250,18.5000,-153.6875,0
677.549,9.1674,2.9999,0.4621,-0.6552,0.2305,0.2598,-44.1000,13.6500,5.8500,9.1530,0.5507,0.3496,-0.0610,0.3858,0.1458,-66.9000,26.4000,-36.4500,3.0000,3.8800,-8.3800,0.0502,-0.0840,0.0305,6.0000,-28.5625,18.7500,155.6250,18.5000,-153.6875,0
677.558,8.9902,2.8036,0.5555,-0.4863,0.2300,0.2284,-44.1000,13.6500,5.8500,9.2608,0.4717,0.3974,-0.1522,0.4197,0.1753,-66.9000,26.4000,-36.4500,3.0900,3.8300,-8.3400,0.0545,-0.0873,0.0382,6.0000,-28.5625,18.7500,155.6875,18.5000,-153.7500,0
677.562,8.9902,2.8036,0.5555,-0.4863,0.2300,0.2284,-44.2500,13.8000,6.7500,9.2608,0.4717,0.3974,-0.1522,0.4197,0.1753,-66.9000,26.4000,-36.4500,3.0900,3.8300,-8.3400,0.0589,-0.0949,0.0458,6.0000,-28.5625,18.7500,155.6875,18.4375,-153.8125,0
677.569,9.0309,2.6073,0.6560,-0.3595,0.2180,0.2081,-44.2500,13.8000,6.7500,9.2991,0.7254,0.2514,-0.2182,0.4263,0.1990,-67.2000,27.0000,-36.6000,3.1200,3.7300,-8.3800,0.0589,-0.0949,0.0458,6.0000,-28.5625,18.7500,155.6875,18.4375,-153.8125,0
677.574,9.2033,2.4636,0.9409,-0.2190,0.1748,0.2060,-44.2500,13.8000,6.7500,9.2991,0.7254,0.2514,-0.2182,0.4263,0.1990,-67.2000,27.0000,-36.6000,3.1200,3.7300,-8.3800,0.0589,-0.0949,0.0458,6.0000,-29.6875,19.1875,155.0000,18.4375,-153.8750,0
677.579,9.2033,2.4636,0.9409,-0.2190,0.1748,0.2060,-45.0000,12.0000,6.3000,9.2440,1.1181,0.4525,-0.2268,0.4325,0.2100,-67.9500,25.0500,-36.1500,3.1200,3.7200,-8.4100,0.0665,-0.0960,0.0447,6.0000,-29.6875,19.1875,155.0000,18.4375,-153.8750,0
677.584,9.3709,2.3128,1.0367,-0.0168,0.1268,0.1516,-45.0000,12.0000,6.3000,9.2440,1.1181,0.4525,-0.2268,0.4325,0.2100,-67.9500,25.0500,-36.1500,3.1200,3.7200,-8.4100,0.0665,-0.0960,0.0447,6.0000,-29.6875,19.1875,155.0000,18.3750,-153.9375,0
677.589,9.3709,2.3128,1.0367,-0.0168,0.1268,0.1516,-45.0000,13.5000,6.0000,9.4978,1.2761,1.0798,-0.2102,0.4730,0.2134,-67.5000,25.3500,-35.5500,2.9400,3.8500,-8.4200,0.0654,-0.0873,0.0415,6.0000,-29.6875,19.1875,155.0000,18.3750,-153.9375,0
677.593,9.8114,1.8292,1.2043,0.0053,0.1340,0.1191,-45.0000,13.5000,6.0000,9.4978,1.2761,1.0798,-0.2102,0.4730,0.2134,-67.5000,25.3500,-35.5500,2.9400,3.8500,-8.4200,0.0524,-0.0796,0.0469,6.0000,-29.6875,19.1875,155.0625,18.3750,-154.0000,0
677.599,9.8114,1.8292,1.2043,0.0053,0.1340,0.1191,-44.2500,13.0500,5.7000,9.5768,0.9744,2.2314,-0.1138,0.4887,0.2081,-67.5000,25.3500,-36.1500,2.9000,4.1100,-8.3700,0.0524,-0.0796,0.0469,6.0000,-29.6875,19.1875,155.0625,18.3750,-154.0000,0
677.608,9.7564,1.1756,1.8890,-0.1050,0.0624,0.1295,-45.0000,12.7500,4.9500,9.6534,0.3950,2.5307,-0.1380,0.4815,0.2214,-66.7500,25.8000,-36.9000,3.0800,4.0600,-8.3400,0.0447,-0.0829,0.0589,6.0000,-29.6875,19.1875,155.0625,18.3125,-154.0625,0
677.612,9.7564,1.1756,1.8890,-0.1993,0.0706,0.1484,-45.0000,12.7500,4.9500,9.6534,0.3950,2.5307,-0.1380,0.4815,0.2214,-66.7500,25.8000,-36.9000,3.0800,4.0600,-8.3400,0.0349,-0.0873,0.0698,6.0000,-29.6875,19.1875,155.1250,18.3125,-154.0625,0
677.619,9.6606,0.6440,2.1644,-0.1993,0.0706,0.1484,-45.0000,12.7500,4.9500,9.6750,0.0144,2.4421,-0.1985,0.4628,0.2369,-67.6500,25.2000,-35.7000,3.2400,3.9600,-8.3100,0.0349,-0.0873,0.0698,6.0000,-29.6875,19.1875,155.1250,18.3125,-154.0625,0
677.624,9.7468,0.3208,2.2817,-0.2910,0.0757,0.1644,-45.0000,12.7500,4.9500,9.5624,-0.1915,2.3272,-0.1985,0.4628,0.2369,-67.6500,25.2000,-35.7000,3.2400,3.9600,-8.3100,0.0393,-0.0884,0.0622,6.6875,-29.6875,19.5625,154.3750,18.2500,-154.1250,0
677.629,9.7468,0.3208,2.2817,-0.2910,0.0757,0.1644,-45.0000,12.7500,4.9500,9.5624,-0.1915,2.3272,-0.2598,0.4234,0.2390,-67.6500,25.2000,-35.7000,3.2300,3.9000,-8.3500,0.0393,-0.0884,0.0622,6.6875,-29.6875,19.5625,154.3750,18.2500,-154.1250,0
677.634,9.7468,0.2298,2.2458,-0.3504,0.0810,0.1961,-45.0000,12.7500,4.9500,9.5888,-0.2011,2.2266,-0.2934,0.3912,0.2380,-67.6500,25.2000,-35.7000,3.2300,3.9000,-8.3500,0.0425,-0.0851,0.0491,6.6875,-29.6875,19.5625,154.3750,18.2500,-154.1875,0
677.639,9.7468,0.2298,2.2458,-0.3504,0.0810,0.1961,-44.4000,13.9500,6.1500,9.5888,-0.2011,2.2266,-0.2934,0.3912,0.2380,-66.9000,25.5000,-34.5000,3.2000,3.8900,-8.3600,0.0425,-0.0851,0.0491,6.6875,-29.6875,19.5625,154.3750,18.2500,-154.1875,0
677.644,9.8521,0.4884,1.8364,-0.4069,0.0589,0.2401,-44.4000,13.9500,6.1500,9.5553,0.2538,2.0327,-0.3568,0.3371,0.2515,-66.9000,25.5000,-34.5000,3.1700,3.7800,-8.4100,0.0425,-0.0840,0.0404,6.6875,-29.6875,19.5625,154.4375,18.1875,-154.1875,0
677.649,9.8521,0.4884,1.8364,-0.4069,0.0589,0.2401,-44.8500,13.9500,6.1500,9.5553,0.2538,2.0327,-0.3568,0.3371,0.2515,-66.7500,25.3500,-36.1500,3.1700,3.7800,-8.4100,0.0425,-0.0840,0.0404,6.6875,-29.6875,19.5625,154.4375,18.1875,-154.1875,0
677.658,9.8641,1.0774,1.5754,-0.4655,0.0187,0.2662,-43.5000,13.5000,5.7000,9.7037,0.5962,1.9321,-0.3453,0.3333,0.2603,-67.2000,25.0500,-36.1500,3.0800,3.7900,-8.4500,0.0436,-0.0873,0.0360,6.6875,-29.6875,19.5625,154.4375,18.1875,-154.2500,0
677.663,9.9838,1.4461,1.5347,-0.5217,-0.0019,0.2713,-43.5000,13.5000,5.7000,9.8450,0.7470,2.0590,-0.3123,0.3472,0.2705,-67.2000,25.0500,-35.1000,3.0800,3.7900,-8.4500,0.0404,-0.0818,0.0349,6.6875,-29.6875,19.5625,154.5000,18.1250,-154.3125,0
677.669,9.9838,1.4461,1.5347,-0.5217,-0.0019,0.2713,-45.0000,15.0000,5.7000,9.8450,0.7470,2.0590,-0.3123,0.3472,0.2705,-66.6000,25.5000,-35.7000,3.0200,3.8700,-8.4100,0.0404,-0.0818,0.0349,6.6875,-29.6875,19.5625,154.5000,18.1250,-154.3125,0
677.674,10.0030,1.6999,1.4796,-0.5556,-0.0477,0.2566,-45.0000,15.0000,5.7000,10.1035,0.5363,2.1428,-0.3533,0.3312,0.2633,-66.6000,25.5000,-35.7000,3.0200,3.8700,-8.4100,0.0404,-0.0818,0.0349,5.8750,-29.6875,19.1875,153.8750,18.1250,-154.3125,0
677.679,10.0030,1.6999,1.4796,-0.5556,-0.0477,0.2566,-45.0000,15.0000,5.7000,10.1035,0.5363,2.1428,-0.3533,0.3312,0.2633,-69.1500,25.2000,-34.9500,3.0000,3.9500,-8.3900,0.0305,-0.0774,0.0349,5.8750,-29.6875,19.1875,153.8750,18.1250,-154.3125,0
677.684,9.9647,1.7262,1.4485,-0.6155,-0.0770,0.2438,-45.0000,15.0000,5.7000,9.8138,0.0670,1.9968,-0.3850,0.3240,0.2771,-69.1500,25.2000,-34.9500,3.0000,3.9500,-8.3900,0.0305,-0.0774,0.0349,5.8750,-29.6875,19.1875,153.9375,18.1250,-154.3750,0
677.689,9.9647,1.7262,1.4485,-0.6155,-0.0770,0.2438,-45.1500,15.4500,6.1500,9.8138,0.0670,1.9968,-0.3850,0.3240,0.2771,-67.6500,25.9500,-34.2000,2.9600,4.0100,-8.4400,0.0109,-0.0731,0.0382,5.8750,-29.6875,19.1875,153.9375,18.1250,-154.3750,0
677.694,9.6343,1.6113,1.3048,-0.6893,-0.0429,0.2316,-45.1500,15.4500,6.1500,9.6223,-0.1173,1.8555,-0.4287,0.3096,0.2856,-67.6500,25.9500,-34.2000,2.9600,4.0100,-8.4400,-0.0087,-0.0709,0.0480,5.8750,-29.6875,19.1875,153.9375,18.0625,-154.3750,0
677.699,9.6343,1.6113,1.3048,-0.6893,-0.0429,0.2316,-43.2000,13.5000,7.3500,9.6223,-0.1173,1.8555,-0.4287,0.3096,0.2856,-67.6500,25.9500,-34.2000,3.0600,3.9500,-8.3900,-0.0087,-0.0709,0.0480,5.8750,-29.6875,19.1875,153.9375,18.0625,-154.3750,0
677.708,9.4284,1.4269,1.2354,-0.7509,0.0189,0.2334,-44.2500,15.0000,6.0000,9.3781,0.3376,1.3934,-0.4930,0.2923,0.3051,-67.6500,25.9500,-34.2000,3.0600,3.8200,-8.4900,-0.0251,-0.0654,0.0556,5.8750,-29.6875,19.1875,154.0000,18.0625,-154.3750,0
677.713,9.3901,1.4437,1.4676,-0.7783,0.0269,0.2451,-44.2500,15.0000,6.0000,9.3613,0.6943,1.1492,-0.4303,0.3126,0.3206,-68.1000,24.7500,-34.5000,3.0600,3.8200,-8.4900,-0.0284,-0.0644,0.0589,5.8750,-29.6875,19.1875,154.0625,18.0625,-154.3750,0
677.719,9.3805,1.6544,1.3743,-0.7581,-0.0101,0.2411,-45.9000,12.9000,5.8500,9.3901,0.9194,1.2450,-0.4303,0.3126,0.3206,-68.1000,24.7500,-34.5000,3.0600,3.7200,-8.5100,-0.0284,-0.0644,0.0589,5.8750,-29.6875,19.1875,154.0625,18.0625,-154.3750,0
677.724,9.3805,1.6544,1.3743,-0.7581,-0.0101,0.2411,-45.9000,12.9000,5.8500,9.3901,0.9194,1.2450,-0.2971,0.3405,0.3296,-68.1000,24.7500,-34.5000,3.0600,3.7200,-8.5100,-0.0371,-0.0436,0.0545,5.8750,-29.6875,20.0000,153.4375,18.0000,-154.3750,0
677.729,9.3901,1.8268,1.0989,-0.6960,-0.0842,0.2268,-43.9500,13.8000,7.8000,9.3470,0.8691,1.0942,-0.2971,0.3405,0.3296,-68.2500,26.5500,-35.1000,2.9900,3.8800,-8.4700,-0.0371,-0.0436,0.0545,5.8750,-29.6875,20.0000,153.4375,18.0000,-154.3750,0
677.734,9.3901,1.8268,1.0989,-0.6960,-0.0842,0.2268,-43.9500,13.8000,7.8000,9.3470,0.8691,1.0942,-0.2574,0.3725,0.3405,-68.2500,26.5500,-35.1000,2.9900,3.8800,-8.4700,-0.0524,-0.0229,0.0589,5.8750,-29.6875,20.0000,153.5000,18.0000,-154.3750,0
677.739,9.2871,2.2697,1.0798,-0.5774,-0.1636,0.1865,-43.9500,13.8000,7.8000,9.4739,0.7254,1.1229,-0.2574,0.3725,0.3405,-68.2500,26.5500,-35.1000,3.0200,3.8100,-8.4800,-0.0524,-0.0229,0.0589,5.8750,-29.6875,20.0000,153.5000,18.0000,-154.3750,0
677.744,9.2871,2.2697,1.0798,-0.5774,-0.1636,0.1865,-43.9500,13.8000,7.8000,9.4739,0.7254,1.1229,-0.2686,0.4106,0.3784,-67.9500,25.0500,-33.3000,3.0200,3.8100,-8.4800,-0.0764,-0.0153,0.0654,5.8750,-29.6875,20.0000,153.5625,18.0625,-154.3750,0
677.749,9.5289,2.5331,1.1372,-0.5148,-0.2110,0.1362,-44.2500,14.2500,6.7500,9.5864,0.7087,1.5945,-0.2926,0.4154,0.4026,-66.9000,25.5000,-33.7500,3.0200,3.7900,-8.5200,-0.0764,-0.0153,0.0654,5.8750,-29.6875,20.0000,153.5625,18.0625,-154.3750,0
677.758,9.6055,2.3966,1.3791,-0.5625,-0.2771,0.0863,-44.8500,12.9000,5.1000,9.5193,0.3926,1.6161,-0.2926,0.4154,0.4026,-66.9000,25.5000,-33.7500,2.9500,4.0800,-8.4200,-0.1047,0.0000,0.0687,5.8750,-29.6875,20.0000,153.6250,18.0625,-154.3125,0
677.763,9.6055,2.3966,1.3791,-0.5625,-0.2771,0.0863,-44.8500,12.9000,5.1000,9.5193,0.3926,1.6161,-0.3198,0.4530,0.4191,-68.7000,25.8000,-33.6000,2.9500,4.0800,-8.4200,-0.1265,0.0076,0.0731,5.8750,-29.6875,20.0000,153.6250,18.0625,-154.2500,0
677.769,9.6079,2.2553,1.3791,-0.5676,-0.3208,0.0632,-45.0000,12.7500,6.7500,9.6558,0.2322,1.2977,-0.3733,0.4740,0.4495,-68.7000,23.8500,-33.6000,3.0200,4.0000,-8.4600,-0.1265,0.0076,0.0731,5.8750,-29.6875,20.0000,153.6250,18.0625,-154.2500,0
677.774,9.6079,2.2553,1.3791,-0.5676,-0.3208,0.0632,-45.0000,12.7500,6.7500,9.6558,0.2322,1.2977,-0.3733,0.4740,0.4495,-68.7000,23.8500,-33.6000,3.0100,3.9100,-8.5100,-0.1560,0.0196,0.0840,5.1875,-29.6875,20.0000,153.1875,18.1250,-154.1875,0
677.779,9.7013,2.2913,1.1756,-0.4756,-0.3352,0.0325,-45.4500,13.2000,7.6500,9.7468,0.3998,0.7949,-0.4282,0.4708,0.4927,-68.7000,23.8500,-33.6000,3.0100,3.9100,-8.5100,-0.1560,0.0196,0.0840,5.1875,-29.6875,20.0000,153.1875,18.1250,-154.1875,0
677.787,9.8952,2.5331,0.8882,-0.2777,-0.3528,-0.0075,-45.4500,13.2000,7.6500,9.7468,0.6919,0.1987,-0.4013,0.4903,0.5311,-68.4000,24.7500,-33.4500,3.0300,3.8700,-8.5700,-0.1974,0.0327,0.0960,5.1875,-29.6875,20.0000,153.2500,18.1250,-154.1250,0
677.792,9.8952,2.5331,0.8882,-0.2777,-0.3528,-0.0075,-45.4500,13.2000,7.6500,9.7468,0.6919,0.1987,-0.4013,0.4903,0.5311,-68.4000,24.7500,-33.4500,3.0300,3.8700,-8.5700,-0.2585,0.0654,0.1069,5.1875,-29.6875,20.0000,153.3750,18.1875,-154.0000,0
677.799,10.0006,3.1651,0.6512,-0.0442,-0.3797,-0.0592,-44.8500,13.6500,7.2000,9.6391,1.1157,-0.3472,-0.3150,0.5423,0.5814,-68.4000,24.7500,-33.4500,2.9300,3.8700,-8.7600,-0.2585,0.0654,0.1069,5.1875,-29.6875,20.0000,153.4375,18.3125,-153.8125,0
677.808,9.6941,4.1276,0.4118,0.1793,-0.4255,-0.1311,-46.6500,13.9500,5.4000,9.7564,1.5850,-0.9361,-0.1663,0.6265,0.6462,-67.2000,25.3500,-31.3500,2.8600,3.8200,-8.9000,-0.3425,0.1516,0.1200,5.1875,-29.6875,20.0000,153.4375,18.3125,-153.8125,0
677.818,9.4858,4.8794,0.0862,0.3917,-0.5063,-0.2337,-46.0500,13.5000,6.7500,10.1418,3.2489,-1.5945,0.0176,0.7871,0.7597,-67.9500,24.6000,-32.1000,2.8800,3.6900,-9.0700,-0.4527,0.2705,0.1353,5.1875,-29.6875,20.0000,153.5000,18.4375,-153.5625,0
677.823,9.4858,4.8794,0.0862,0.3917,-0.5063,-0.2337,-46.0500,13.5000,6.7500,10.1418,3.2489,-1.5945,0.0176,0.7871,0.7597,-67.9500,24.1500,-31.0500,2.8800,3.6900,-9.0700,-0.4527,0.2705,0.1353,5.1875,-29.6875,20.0000,153.5000,18.4375,-153.5625,0
677.828,9.6750,5.2241,-0.3065,0.5415,-0.6435,-0.3840,-45.7500,13.8000,5.7000,11.5831,1.7573,-3.6296,0.0698,0.9848,0.8388,-67.9500,24.1500,-31.0500,2.7100,3.5000,-9.6800,-0.6000,0.4211,0.1614,6.6875,-30.0625,18.7500,153.0000,18.6875,-153.1875,0
677.833,9.6750,5.2241,-0.3065,0.5415,-0.6435,-0.3840,-45.7500,13.8000,5.7000,11.5831,1.7573,-3.6296,0.0698,0.9848,0.8388,-69.7500,24.1500,-30.6000,2.7100,3.5000,-9.6800,-0.6000,0.4211,0.1614,6.6875,-30.0625,18.7500,153.0000,18.6875,-153.1875,0
677.838,10.0868,5.3726,-1.2546,0.6731,-0.8474,-0.5478,-45.7500,14.5500,5.7000,12.0309,0.0551,-3.4836,0.2465,1.2212,0.8697,-69.7500,24.1500,-30.6000,2.8500,4.9500,-9.4900,-0.8247,0.6218,0.2018,6.6875,-30.0625,18.7500,153.1250,19.0625,-152.7500,0
677.845,10.0868,5.3726,-1.2546,0.6731,-0.8474,-0.5478,-45.7500,14.5500,5.7000,13.3405,-0.7494,-2.8970,0.2465,1.2212,0.8697,-69.1500,24.4500,-31.6500,2.8500,4.9500,-9.4900,-1.1203,0.8596,0.2738,6.6875,-30.0625,18.7500,153.2500,19.5625,-152.0625,0
677.849,11.1713,5.0087,-2.8563,0.9795,-1.2516,-0.7434,-45.7500,14.5500,5.7000,13.3405,-0.7494,-2.8970,-0.0059,1.4040,0.8735,-69.1500,24.4500,-31.6500,2.9000,6.5600,-9.3700,-1.1203,0.8596,0.2738,6.6875,-30.0625,18.7500,153.5000,20.1875,-151.3125,0
677.858,12.8186,4.6735,-4.2665,1.4232,-1.7112,-0.9891,-46.0500,16.0500,4.9500,15.2870,0.3256,-2.3655,-0.4093,1.4965,0.8705,-69.7500,24.1500,-31.3500,-0.4300,8.4700,-10.5000,-1.3570,1.0886,0.3894,6.6875,-30.0625,18.7500,153.5000,20.1875,-151.3125,0
677.868,14.7986,4.3766,-4.2593,1.9385,-2.1146,-1.1999,-45.9000,14.4000,2.5500,16.4362,-0.1820,-0.6632,-0.7458,1.5372,0.8151,-69.7500,24.1500,-31.3500,-0.3300,7.7600,-10.5600,-1.3461,1.3395,0.6185,6.6875,-30.0625,18.7500,153.8125,21.0000,-150.5000,0
677.873,14.7986,4.3766,-4.2593,1.9385,-2.1146,-1.1999,-46.8000,13.5000,1.6500,15.8257,-0.9361,1.0726,-0.7458,1.5372,0.8151,-69.6000,24.0000,-30.1500,-0.3300,7.7600,-10.5600,-1.3461,1.3395,0.6185,6.6875,-30.0625,18.7500,153.7500,22.2500,-150.1250,0
677.878,17.3532,2.9521,-2.8395,2.1485,-2.6295,-1.3366,-46.8000,13.5000,1.6500,15.8257,-0.9361,1.0726,-1.0677,1.5924,0.7229,-69.6000,24.0000,-30.1500,0.0600,6.9100,-10.4600,-0.7363,1.8708,1.1345,5.5625,-29.3750,18.3750,153.7500,22.2500,-150.1250,0
677.883,17.4920,-0.2969,-1.5251,2.0749,-3.0113,-1.3259,-45.9000,14.4000,1.2000,13.4458,-1.0032,1.7837,-1.0677,1.5924,0.7229,-71.1000,22.0500,-29.4000,0.0600,6.9100,-10.4600,-0.7363,1.8708,1.1345,5.5625,-29.3750,18.3750,154.3125,23.9375,-150.2500,0
677.888,17.4920,-0.2969,-1.5251,2.0749,-3.0113,-1.3259,-45.9000,14.4000,1.2000,13.4458,-1.0032,1.7837,-1.4442,1.6049,0.5958,-71.1000,22.0500,-29.4000,1.1900,6.2100,-9.3500,0.0829,2.5045,1.7584,5.5625,-29.3750,18.3750,154.3125,23.9375,-150.2500,0
677.893,15.1744,-4.3191,-0.6488,1.7019,-2.9271,-1.2825,-45.9000,14.4000,1.2000,11.4491,-0.8332,3.4429,-1.7845,1.5673,0.4759,-69.6000,23.5500,-29.7000,1.1900,6.2100,-9.3500,0.3043,3.0358,2.2122,5.5625,-29.3750,18.3750,155.1250,26.0000,-150.5000,0
677.899,15.1744,-4.3191,-0.6488,1.7019,-2.9271,-1.2825,-45.9000,14.4000,1.2000,11.4491,-0.8332,3.4429,-1.7845,1.5673,0.4759,-69.6000,23.5500,-29.7000,9.5100,9.3300,-9.5900,0.3043,3.0358,2.2122,5.5625,-29.3750,18.3750,156.0625,28.1875,-150.6875,0
677.909,12.2487,-6.7516,1.0175,0.9990,-2.6095,-1.2430,-45.9000,12.9000,-1.5000,9.8737,-1.1636,5.9400,-1.7733,1.4698,0.3688,-70.2000,22.2000,-27.3000,6.4300,8.8000,-9.7400,-0.0349,3.1972,2.4762,5.5625,-29.3750,18.3750,156.0625,28.1875,-150.6875,0
677.918,9.9910,-6.7277,2.3152,-0.1804,-2.3145,-1.2079,-46.9500,14.4000,-2.5500,8.9830,-1.5658,8.3486,-1.7419,1.1972,0.1982,-70.0500,21.6000,-27.9000,1.6900,5.4500,-6.5700,0.2705,2.3736,2.7882,5.5625,-29.3750,18.3750,157.2500,30.1250,-151.1875,0
677.923,7.8051,-5.4827,3.3303,-1.5700,-2.0438,-1.2020,-44.8500,12.4500,-1.9500,8.1714,-0.8715,6.7157,-1.6681,0.8788,-0.0376,-69.6000,22.5000,-25.6500,1.6900,5.4500,-6.5700,0.2705,2.3736,2.7882,5.5625,-29.3750,18.3750,157.2500,30.1250,-151.1875,0
677.928,7.8051,-5.4827,3.3303,-1.5700,-2.0438,-1.2020,-44.8500,12.4500,-1.9500,8.1714,-0.8715,6.7157,-1.6681,0.8788,-0.0376,-69.6000,22.5000,-25.6500,5.4800,7.4300,-7.6100,0.4745,2.0660,2.8580,1.1875,-32.2500,18.2500,158.5000,31.8750,-152.0000,0
677.933,8.2672,-4.1707,3.9169,-2.6963,-1.6441,-1.2081,-45.4500,12.9000,-3.3000,7.5800,-0.2131,5.7676,-1.2622,0.6155,-0.3832,-69.6000,22.5000,-25.6500,5.4800,7.4300,-7.6100,0.4745,2.0660,2.8580,1.1875,-32.2500,18.2500,158.5000,31.8750,-152.0000,0
677.938,8.2672,-4.1707,3.9169,-2.6963,-1.6441,-1.2081,-45.4500,12.9000,-3.3000,7.5800,-0.2131,5.7676,-1.2622,0.6155,-0.3832,-69.6000,22.5000,-25.6500,2.2700,6.6400,-10.9000,0.4451,1.9875,2.8983,1.1875,-32.2500,18.2500,159.7500,33.5625,-152.8125,0
677.943,9.1554,-3.0382,4.5250,-3.5208,-1.4421,-1.1122,-45.4500,15.9000,-0.7500,9.1866,-0.3926,6.8474,-0.9766,0.0927,-0.7829,-69.1500,22.5000,-26.1000,2.2700,6.6400,-10.9000,0.0774,1.0243,2.7140,1.1875,-32.2500,18.2500,161.1250,34.7500,-153.6250,0
677.949,9.1554,-3.0382,4.5250,-3.5208,-1.4421,-1.1122,-45.4500,15.9000,-0.7500,9.1866,-0.3926,6.8474,-0.9766,0.0927,-0.7829,-69.1500,22.5000,-26.1000,-3.6200,6.7500,-10.3800,0.0774,1.0243,2.7140,1.1875,-32.2500,18.2500,162.6250,35.2500,-154.2500,0
677.959,9.5624,-1.6089,4.7214,-3.7928,-1.3566,-0.9795,-45.4500,15.9000,-0.7500,8.1235,1.1636,2.0255,-1.2351,-0.4143,-1.0704,-69.1500,22.5000,-26.1000,-5.9300,20.5000,-14.5200,-0.4680,-0.2836,2.4326,1.1875,-32.2500,18.2500,162.6250,35.2500,-154.2500,0
677.969,12.0644,-0.3496,4.9321,-4.3860,-1.3384,-0.9710,-43.3500,16.6500,-0.1500,10.5943,-0.6680,1.4078,-1.6665,-1.0856,-1.2295,-71.2500,23.4000,-27.7500,-8.6900,12.9200,-8.0700,-0.8050,-1.0886,2.2133,1.1875,-32.2500,18.2500,164.1250,35.1875,-154.7500,0
677.973,12.2104,1.7813,3.7230,-4.1640,-1.1535,-1.0541,-43.2000,16.0500,1.0500,10.3477,0.0431,3.7541,-1.8890,-1.6630,-1.2625,-69.7500,23.4000,-26.5500,-8.6900,12.9200,-8.0700,-0.8050,-1.0886,2.2133,1.1875,-32.2500,18.2500,164.1250,35.1875,-154.7500,0
677.979,12.2104,1.7813,3.7230,-4.1640,-1.1535,-1.0541,-43.2000,16.0500,1.0500,9.3757,0.9720,3.5219,-1.8890,-1.6630,-1.2625,-69.7500,23.4000,-26.5500,-12.6200,9.8200,-2.2200,-0.7930,-2.6245,1.3363,-4.6875,-31.5625,17.5625,165.2500,34.1875,-155.2500,0
677.983,11.2671,3.4884,2.2936,-4.1070,-1.1650,-1.1221,-43.2000,17.5500,1.6500,9.3757,0.9720,3.5219,-1.9835,-2.0749,-1.3480,-69.4500,23.4000,-27.7500,-12.6200,9.8200,-2.2200,-0.7930,-2.6245,1.3363,-4.6875,-31.5625,17.5625,165.2500,34.1875,-155.2500,0
677.988,11.2671,3.4884,2.2936,-4.1070,-1.1650,-1.1221,-43.2000,17.5500,1.6500,8.7747,1.4246,2.5331,-1.9835,-2.0749,-1.3480,-69.4500,23.4000,-27.7500,-4.9100,10.7900,-6.3300,-0.5934,-2.7980,0.9556,-4.6875,-31.5625,17.5625,166.1875,33.0000,-155.6250,0
677.993,10.2568,4.0199,1.2977,-4.1054,-1.1167,-1.1082,-42.0000,16.5000,4.2000,8.7747,1.4246,2.5331,-1.8530,-2.3329,-1.4890,-69.6000,24.4500,-26.4000,-4.9100,10.7900,-6.3300,-1.1181,-2.3126,0.5029,-4.6875,-31.5625,17.5625,166.9375,31.9375,-155.5000,0
677.999,9.0477,4.1563,0.9792,-3.5807,-1.1977,-1.0317,-42.0000,16.5000,4.2000,8.4803,1.8340,1.9680,-1.5878,-2.4181,-1.5668,-69.6000,24.4500,-26.4000,-4.9900,11.1700,-5.2400,-1.1181,-2.3126,0.5029,-4.6875,-31.5625,17.5625,167.4375,30.2500,-155.2500,0
678.009,9.0477,4.1563,0.9792,-3.5807,-1.1977,-1.0317,-42.0000,16.5000,4.2000,7.3981,2.2051,1.3024,-1.1095,-2.4131,-1.6217,-69.6000,24.4500,-26.4000,-4.2100,9.7300,-4.8500,-1.2555,-3.3172,-0.1102,-4.6875,-31.5625,17.5625,167.4375,30.2500,-155.2500,0
678.019,6.8426,4.6926,1.1564,-1.8437,-1.3744,-0.9582,-42.3000,18.9000,3.0000,6.9863,2.1739,1.5227,-0.6307,-2.3728,-1.6369,-69.0000,24.1500,-27.3000,-1.9800,8.2400,-5.4000,-1.4017,-3.1623,-0.6403,-4.6875,-31.5625,17.5625,167.6250,28.5000,-154.6875,0
678.024,6.8426,4.6926,1.1564,-1.8437,-1.3744,-0.9582,-42.4500,19.8000,3.9000,6.9863,2.1739,1.5227,-0.6307,-2.3728,-1.6369,-69.0000,24.1500,-27.3000,-1.9800,8.2400,-5.4000,-1.4017,-3.1623,-0.6403,-4.6875,-31.5625,17.5625,167.5625,26.7500,-153.8750,0
678.029,5.6862,5.1068,1.3431,-1.0595,-1.3467,-0.9787,-42.4500,19.8000,3.9000,8.0756,1.6137,1.7549,-0.4082,-2.4419,-1.6859,-69.0000,24.1500,-27.3000,-0.4500,4.3000,-6.1400,-1.5752,-2.9791,-1.1726,-5.0625,-31.1875,16.3750,167.5625,26.7500,-153.8750,0
678.033,5.6862,5.1068,1.3431,-1.0595,-1.3467,-0.9787,-41.4000,19.8000,3.9000,8.0756,1.6137,1.7549,-0.4082,-2.4419,-1.6859,-66.7500,26.5500,-29.2500,-0.4500,4.3000,-6.1400,-1.5752,-2.9791,-1.1726,-5.0625,-31.1875,16.3750,167.5625,26.7500,-153.8750,0
678.038,5.2409,4.9153,1.3695,-0.4074,-1.0954,-1.0493,-41.4000,19.8000,3.9000,9.2153,1.3240,2.4493,-0.0754,-2.5431,-1.7512,-66.7500,26.5500,-29.2500,0.4300,3.4100,-7.4300,-1.8173,-2.8667,-1.6297,-5.0625,-31.1875,16.3750,167.2500,24.9375,-152.8750,0
678.043,5.2409,4.9153,1.3695,-0.4074,-1.0954,-1.0493,-41.7000,19.8000,3.9000,9.2153,1.3240,2.4493,-0.0754,-2.5431,-1.7512,-66.9000,27.9000,-28.6500,0.4300,3.4100,-7.4300,-2.1064,-2.6365,-1.8402,-5.0625,-31.1875,16.3750,166.8750,23.1250,-151.5625,0
678.050,5.5186,4.5179,1.1971,0.1508,-0.8799,-1.1085,-40.9500,20.2500,3.1500,9.8665,0.7829,2.7270,0.2822,-2.6044,-1.7536,-66.9000,27.9000,-28.6500,1.9400,4.3500,-9.3100,-2.1064,-2.6365,-1.8402,-5.0625,-31.1875,16.3750,166.4375,21.4375,-150.3125,0
678.059,6.5218,3.8355,0.6057,0.4445,-0.7003,-1.0757,-40.9500,20.2500,3.1500,10.1634,-0.2346,2.6983,0.6161,-2.6340,-1.6483,-66.6000,27.9000,-30.4500,2.6200,4.1300,-10.4900,-2.1315,-2.5089,-1.7977,-5.0625,-31.1875,16.3750,166.0625,19.7500,-149.2500,0
678.069,6.9959,3.4524,0.4214,0.4986,-0.4903,-0.9771,-40.9500,20.2500,3.1500,10.3118,-1.7621,2.2865,0.6110,-2.6385,-1.4706,-66.9000,28.6500,-33.4500,2.3400,3.1100,-10.2400,-1.8457,-2.5264,-1.6832,-5.0625,-31.1875,16.3750,166.0625,19.7500,-149.2500,0
678.074,6.9959,3.4524,0.4214,0.4986,-0.4903,-0.9771,-40.6500,19.0500,3.4500,10.3118,-1.7621,2.2865,0.6110,-2.6385,-1.4706,-65.4000,28.6500,-33.4500,2.3400,3.1100,-10.2400,-1.8457,-2.5264,-1.6832,-5.0625,-31.1875,16.3750,165.7500,18.1250,-148.3750,0
678.079,7.1802,3.5626,0.0503,0.3717,-0.2372,-0.8479,-40.6500,19.0500,3.4500,9.8569,-2.9425,2.2122,0.3448,-2.6630,-1.2748,-65.4000,28.6500,-33.4500,2.6600,2.4800,-10.0500,-1.5392,-2.4816,-1.5675,-1.0000,-32.2500,14.8750,165.7500,18.1250,-148.3750,0
678.084,7.1802,3.5626,0.0503,0.3717,-0.2372,-0.8479,-40.8000,19.9500,2.5500,9.8569,-2.9425,2.2122,0.3448,-2.6630,-1.2748,-65.5500,29.7000,-33.6000,2.6600,2.4800,-10.0500,-1.5392,-2.4816,-1.5675,-1.0000,-32.2500,14.8750,165.7500,18.1250,-148.3750,0
678.089,6.6152,3.7948,-0.8068,0.3118,-0.1095,-0.7418,-40.8000,19.9500,2.5500,9.2536,-3.1580,2.7294,-0.0261,-2.7376,-1.1279,-65.5500,29.7000,-33.6000,3.2900,2.4900,-10.0800,-1.3952,-2.3344,-1.5053,-1.0000,-32.2500,14.8750,165.3750,16.6250,-147.6250,0
678.094,6.6152,3.7948,-0.8068,0.3118,-0.1095,-0.7418,-40.5000,18.9000,2.5500,8.3893,-2.2697,2.5498,-0.0261,-2.7376,-1.1279,-65.5500,29.7000,-33.6000,3.2900,2.4900,-10.0800,-1.2861,-2.1031,-1.4966,-1.0000,-32.2500,14.8750,165.0000,15.1875,-146.8750,0
678.100,5.7030,4.6687,-1.4748,0.5183,-0.0562,-0.6608,-39.3000,19.2000,2.5500,8.3893,-2.2697,2.5498,-0.3421,-2.8032,-1.0325,-65.5500,29.7000,-33.6000,5.0300,2.4400,-11.0100,-1.2861,-2.1031,-1.4966,-1.0000,-32.2500,14.8750,164.5625,13.8750,-146.1875,0
678.109,5.4803,4.9416,-2.0351,0.9462,-0.0245,-0.6011,-39.3000,19.2000,2.5500,7.8003,-1.3791,2.4588,-0.3765,-2.8032,-0.9539,-63.9000,29.5500,-34.9500,5.5900,2.3300,-11.2200,-1.1628,-1.8402,-1.5370,-1.0000,-32.2500,14.8750,164.5625,13.8750,-146.1875,0
678.119,5.7293,4.8171,-2.0470,1.4416,-0.1684,-0.5652,-40.0500,19.9500,1.5000,7.3502,-0.8595,2.3894,-0.1095,-2.6854,-0.8988,-63.7500,30.0000,-37.6500,5.9800,1.7900,-10.6600,-1.0177,-1.7191,-1.6515,-1.0000,-32.2500,14.8750,164.0000,12.5625,-145.5625,0
678.124,5.7293,4.8171,-2.0470,1.4416,-0.1684,-0.5652,-40.0500,19.9500,1.5000,7.1180,-0.7278,2.0901,0.2470,-2.5127,-0.8567,-62.4000,29.1000,-36.7500,5.9800,1.7900,-10.6600,-1.0177,-1.7191,-1.6515,-1.0000,-32.2500,14.8750,164.0000,12.5625,-145.5625,0
678.129,5.8706,4.7525,-1.3886,1.9636,-0.2571,-0.4924,-39.3000,18.9000,0.7500,7.1180,-0.7278,2.0901,0.2470,-2.5127,-0.8567,-62.4000,29.1000,-36.7500,7.1800,1.4000,-9.4400,-0.8268,-1.6624,-1.7257,2.2500,-33.6875,12.8750,163.3750,11.2500,-145.0625,0
678.134,5.8706,4.7525,-1.3886,1.9636,-0.2571,-0.4924,-39.3000,18.9000,0.7500,6.9456,-1.3288,2.2769,0.5891,-2.2793,-0.8455,-63.3000,30.4500,-36.6000,7.1800,1.4000,-9.4400,-0.8268,-1.6624,-1.7257,2.2500,-33.6875,12.8750,163.3750,11.2500,-145.0625,0
678.139,6.0382,4.4101,-1.2426,2.2575,-0.2233,-0.3669,-40.5000,20.4000,1.2000,6.9456,-1.3288,2.2769,0.5891,-2.2793,-0.8455,-63.3000,30.4500,-36.6000,7.3600,1.2800,-8.5800,-0.5869,-1.5882,-1.6962,2.2500,-33.6875,12.8750,162.7500,10.0000,-144.6875,0
678.145,6.5386,3.9265,-1.6352,2.4104,-0.4674,-0.1897,-40.5000,20.4000,1.2000,7.3622,-1.6400,2.8563,0.8370,-2.1019,-0.8314,-61.0500,31.2000,-38.8500,7.3600,1.2800,-8.5800,-0.3676,-1.5424,-1.5773,2.2500,-33.6875,12.8750,162.1250,8.7500,-144.4375,0
678.150,6.5386,3.9265,-1.6352,2.4104,-0.4674,-0.1897,-39.0000,20.4000,1.2000,7.3622,-1.6400,2.8563,0.8370,-2.1019,-0.8314,-61.0500,31.2000,-38.8500,7.4700,1.1700,-8.2600,-0.3676,-1.5424,-1.5773,2.2500,-33.6875,12.8750,161.6250,7.6250,-144.2500,0
678.159,7.0126,3.1388,-2.1644,2.2180,-0.4159,0.0365,-40.0500,19.6500,0.4500,7.6327,-1.6951,2.7725,0.8505,-1.9625,-0.7890,-60.7500,30.0000,-39.1500,8.8500,1.6800,-9.0100,-0.2967,-1.4595,-1.4268,2.2500,-33.6875,12.8750,161.6250,7.6250,-144.2500,0
678.169,7.1539,2.8156,-2.3966,1.7901,-0.2729,0.2574,-40.0500,19.6500,0.4500,8.0565,-1.6017,2.7557,0.6995,-1.8530,-0.6904,-60.7500,30.0000,-39.1500,8.7200,1.6300,-9.0300,-0.3829,-1.3734,-1.3755,2.2500,-33.6875,12.8750,161.1250,6.5625,-144.0000,0
678.174,6.8953,2.3415,-2.1739,1.0032,-0.4250,0.3667,-40.0500,19.6500,0.4500,7.9392,-1.0630,2.9209,0.6038,-1.7120,-0.5484,-60.3000,31.6500,-41.1000,8.7200,1.6300,-9.0300,-0.3829,-1.3734,-1.3755,2.2500,-33.6875,12.8750,160.6250,5.5000,-143.7500,0
678.179,6.8953,2.3415,-2.1739,1.0032,-0.4250,0.3667,-40.2000,18.7500,-1.0500,7.9392,-1.0630,2.9209,0.6038,-1.7120,-0.5484,-60.3000,31.6500,-41.1000,9.0200,1.7200,-9.3600,-0.4854,-1.4421,-1.4094,7.0000,-34.0625,10.8750,160.6250,5.5000,-143.7500,0
678.184,5.9544,1.8747,-1.6568,0.3086,-0.4303,0.3800,-40.2000,18.7500,-1.0500,7.9392,-0.4453,2.6121,0.5031,-1.5841,-0.3946,-60.3000,31.6500,-41.1000,9.0200,1.7200,-9.3600,-0.4854,-1.4421,-1.4094,7.0000,-34.0625,10.8750,160.0625,4.3750,-143.4375,0
678.189,5.9544,1.8747,-1.6568,0.3086,-0.4303,0.3800,-40.9500,19.8000,-2.8500,7.9392,-0.4453,2.6121,0.5031,-1.5841,-0.3946,-60.3000,31.6500,-41.1000,9.7700,1.4400,-9.3900,-0.5127,-1.4279,-1.4726,7.0000,-34.0625,10.8750,160.0625,4.3750,-143.4375,0
678.194,5.7006,1.5060,-1.1516,-0.0749,-0.2158,0.3704,-40.9500,19.8000,-2.8500,7.6926,0.0383,1.8771,0.4591,-1.4109,-0.2449,-59.8500,30.0000,-40.6500,9.7700,1.4400,-9.3900,-0.4025,-1.4388,-1.5381,7.0000,-34.0625,10.8750,159.5000,3.1875,-143.1875,0
678.200,5.7006,1.5060,-1.1516,-0.0749,-0.2158,0.3704,-40.5000,19.9500,-1.2000,7.3215,0.3424,1.2641,0.4591,-1.4109,-0.2449,-59.8500,30.0000,-40.6500,9.5000,0.9400,-7.0500,-0.4025,-1.4388,-1.5381,7.0000,-34.0625,10.8750,158.9375,2.0625,-143.0625,0
678.209,5.8251,1.5874,-1.0175,-0.2643,0.0032,0.3331,-40.2000,20.2500,-0.3000,8.0613,2.0782,-0.4812,0.4991,-1.1477,-0.1119,-58.6500,30.3000,-39.7500,10.3600,1.2600,-5.8000,-0.1876,-1.4857,-1.4966,7.0000,-34.0625,10.8750,158.3750,1.1250,-143.1250,0
678.219,6.6679,3.0598,-1.8627,-0.1031,0.2659,0.2193,-40.2000,20.2500,-0.3000,10.7739,3.1484,-2.0351,0.3445,-0.8833,0.0368,-58.9500,30.3000,-40.0500,13.4700,1.2800,-4.0400,0.0502,-1.0494,-1.3384,7.0000,-34.0625,10.8750,158.3750,1.1250,-143.1250,0
678.224,8.3031,5.8849,-4.5059,0.2643,0.4298,0.0005,-40.2000,20.2500,-0.3000,10.7739,3.1484,-2.0351,0.2641,-0.3333,0.3549,-59.1000,30.0000,-41.1000,13.4700,1.2800,-4.0400,0.0502,-1.0494,-1.3384,7.0000,-34.0625,10.8750,157.6250,1.2500,-143.6250,0
678.229,8.3031,5.8849,-4.5059,0.2643,0.4298,0.0005,-40.2000,20.2500,-0.3000,13.8457,1.3599,-1.2402,0.2641,-0.3333,0.3549,-59.1000,30.0000,-41.1000,16.6500,-8.9400,-2.2900,0.9785,1.0014,-0.9817,10.2500,-34.0625,10.0625,157.6250,1.2500,-143.6250,0
678.234,12.1290,11.4060,-10.5058,0.5196,0.3581,-0.4010,-40.2000,20.2500,-0.3000,13.8457,1.3599,-1.2402,1.4408,0.2976,0.7584,-59.1000,30.0000,-41.1000,16.6500,-8.9400,-2.2900,0.9785,1.0014,-0.9817,10.2500,-34.0625,10.0625,157.6250,1.2500,-143.6250,0
678.239,12.1290,11.4060,-10.5058,0.5196,0.3581,-0.4010,-39.3000,18.1500,-1.5000,16.5535,-0.2753,-6.1124,2.2913,0.7693,0.8407,-59.1000,30.0000,-41.1000,12.3900,-5.7600,-7.1900,0.9785,1.0014,-0.9817,10.2500,-34.0625,10.0625,156.9375,1.3750,-144.1875,0
678.246,18.0762,17.9541,-14.3987,1.1445,-0.3954,-1.0198,-39.3000,18.1500,-1.5000,16.5535,-0.2753,-6.1124,2.2913,0.7693,0.8407,-59.8500,29.2500,-40.6500,11.6800,7.4600,-20.6900,2.1904,1.9646,-0.3971,10.2500,-34.0625,10.0625,156.3125,2.1250,-145.3750,0
678.251,18.0762,17.9541,-14.3987,1.1445,-0.3954,-1.0198,-39.1500,21.3000,-2.8500,15.2439,-2.3343,-5.8802,2.7299,0.9998,0.5521,-59.8500,29.2500,-40.6500,11.6800,7.4600,-20.6900,2.1904,1.9646,-0.3971,10.2500,-34.0625,10.0625,155.8125,2.0625,-146.0000,0
678.259,20.1975,17.0707,-7.3382,2.3265,-0.5332,-1.2971,-40.5000,19.9500,-2.5500,10.4387,-2.3774,-3.8235,2.4283,0.9918,0.3003,-59.8500,29.2500,-40.6500,3.0400,10.5600,-26.0600,1.1606,0.3872,-0.8508,10.2500,-34.0625,10.0625,155.5000,1.7500,-146.7500,0
678.269,16.4769,8.3270,-3.1627,3.8706,-0.7053,-0.9196,-40.9500,19.0500,-4.5000,8.4827,-2.9975,-2.0494,1.5436,0.5609,0.0901,-60.3000,28.5000,-41.7000,-8.0300,2.9500,-8.3900,1.4432,-0.3545,-0.5629,10.2500,-34.0625,10.0625,155.5000,1.7500,-146.7500,0
678.274,7.5968,-1.1444,-3.5195,5.0940,-0.9009,-0.5185,-40.9500,19.0500,-4.5000,8.4827,-2.9975,-2.0494,1.5436,0.5609,0.0901,-60.3000,28.5000,-41.7000,-8.0300,2.9500,-8.3900,1.4432,-0.3545,-0.5629,10.2500,-34.0625,10.0625,155.5000,1.7500,-146.7500,0
678.279,7.5968,-1.1444,-3.5195,5.0940,-0.9009,-0.5185,-40.9500,19.0500,-4.5000,5.5474,-3.0382,-0.6608,1.0062,0.1010,0.0879,-61.0500,28.0500,-42.4500,-1.0600,-1.7100,-6.1300,1.2872,0.3512,-0.4625,12.8750,-33.6875,11.6875,155.1875,1.7500,-147.5000,0
678.284,3.3447,-6.5481,-5.4516,4.9951,-0.3970,-0.5833,-40.9500,19.0500,-4.5000,5.5474,-3.0382,-0.6608,1.0062,0.1010,0.0879,-60.3000,28.0500,-42.4500,-1.0600,-1.7100,-6.1300,1.2872,0.3512,-0.4625,12.8750,-33.6875,11.6875,155.1875,1.7500,-147.5000,0
678.289,3.3447,-6.5481,-5.4516,4.9951,-0.3970,-0.5833,-41.8500,18.1500,-7.6500,6.3686,-1.6712,-0.2753,1.0056,0.0232,0.1524,-60.3000,28.0500,-43.6500,-1.6400,0.2800,-3.9700,0.7221,0.1811,-0.5432,12.8750,-33.6875,11.6875,154.8750,1.6875,-147.8750,0
678.294,5.7557,-7.6016,-5.9975,4.0489,0.1919,-0.7645,-41.8500,18.1500,-7.6500,6.3686,-1.6712,-0.2753,1.0056,0.0232,0.1524,-60.3000,28.0500,-43.6500,-1.6400,0.2800,-3.9700,0.4309,0.7636,-0.5389,12.8750,-33.6875,11.6875,154.4375,1.8750,-148.0625,0
678.300,6.8570,-5.9424,-5.1499,2.0819,0.9846,-0.6350,-42.6000,15.1500,-8.7000,9.9862,-0.9122,0.6249,1.2630,0.2281,0.2201,-60.1500,27.9000,-43.0500,2.5400,4.7700,-9.7400,0.4309,0.7636,-0.5389,12.8750,-33.6875,11.6875,154.0625,2.0625,-148.3750,0
678.309,7.8027,-3.1173,-2.9640,0.4882,1.2148,-0.2864,-42.0000,15.3000,-9.1500,12.4882,-2.3463,1.3719,1.1698,0.4882,0.3405,-61.2000,27.4500,-44.8500,1.6600,3.1400,-10.0100,0.4941,0.6338,-0.4549,12.8750,-33.6875,11.6875,154.0625,2.0625,-148.3750,0
678.319,9.3446,-0.7494,-0.5124,-0.6344,0.8455,0.1575,-41.8500,14.7000,-9.0000,12.0787,-4.3431,0.8906,0.5638,0.4676,0.3789,-60.1500,29.5500,-45.3000,2.4700,1.1100,-10.4400,0.4156,0.5203,-0.3436,12.8750,-33.6875,11.6875,153.8125,2.1875,-148.5625,0
678.324,9.3446,-0.7494,-0.5124,-0.6344,0.8455,0.1575,-41.8500,14.7000,-9.0000,12.0787,-4.3431,0.8906,0.5638,0.4676,0.3789,-60.1500,29.5500,-45.3000,2.4700,1.1100,-10.4400,0.4156,0.5203,-0.3436,12.8750,-33.6875,11.6875,153.8125,2.1875,-148.5625,0
678.329,11.7100,0.1437,-0.3735,-1.2641,-0.3182,0.3992,-41.8500,14.7000,-9.0000,11.0636,-4.6543,0.1939,-0.3451,0.2987,0.3062,-60.1500,29.5500,-45.3000,3.5900,0.9700,-11.1700,0.3327,0.1560,-0.1898,13.2500,-32.6875,13.7500,153.6875,2.1875,-148.7500,0
678.334,11.7100,0.1437,-0.3735,-1.2641,-0.3182,0.3992,-41.8500,14.7000,-9.0000,11.0636,-4.6543,0.1939,-0.3451,0.2987,0.3062,-60.1500,29.5500,-45.3000,3.5900,0.9700,-11.1700,0.3327,0.1560,-0.1898,13.2500,-32.6875,13.7500,153.6875,2.1875,-148.7500,0
678.338,11.9016,-0.1149,-0.8428,-1.4000,-1.2596,0.3285,-41.8500,14.7000,-9.0000,10.3238,-2.7677,-0.1197,-1.0789,0.0895,0.2092,-60.7500,29.2500,-44.7000,2.4300,1.6100,-11.1700,0.2880,-0.1822,0.0229,13.2500,-32.6875,13.7500,153.6875,2.1250,-148.9375,0
678.343,11.9016,-0.1149,-0.8428,-1.4000,-1.2596,0.3285,-41.8500,14.7000,-9.0000,9.6367,-0.7494,-0.3831,-1.0789,0.0895,0.2092,-60.7500,29.2500,-44.7000,2.4300,1.6100,-11.1700,0.2280,-0.4123,0.1669,13.2500,-32.6875,13.7500,153.8750,2.0000,-149.0625,0
678.350,10.9535,-0.2059,-2.9329,-1.3446,-1.5052,0.0997,-39.1500,16.0500,-7.8000,9.6367,-0.7494,-0.3831,-1.3976,-0.0711,0.1343,-61.5000,27.3000,-43.6500,1.5000,2.9700,-10.6000,0.2280,-0.4123,0.1669,13.2500,-32.6875,13.7500,154.1250,1.7500,-149.1875,0
678.359,9.7707,1.8723,-3.8978,-1.1466,-1.0467,-0.1556,-37.6500,18.0000,-7.0500,9.4164,0.6033,-1.1133,-1.2590,-0.0658,0.1396,-60.1500,27.4500,-42.7500,0.4300,4.0500,-9.3900,0.2062,-0.5989,0.2869,13.2500,-32.6875,13.7500,154.1250,1.7500,-149.1875,0
678.369,8.9902,4.1420,-4.1755,-1.0248,-0.4850,-0.3264,-38.8500,18.0000,-6.3000,10.0006,1.2043,-1.4365,-0.9289,-0.0184,0.1655,-60.7500,28.9500,-43.6500,0.6500,4.6200,-8.0200,0.1440,-0.6610,0.2923,13.2500,-32.6875,13.7500,154.3750,1.5625,-149.2500,0
678.374,8.9902,4.1420,-4.1755,-1.0248,-0.4850,-0.3264,-37.3500,18.7500,-7.0500,10.0580,1.4269,-1.2953,-0.5891,0.0597,0.1665,-60.7500,28.9500,-43.6500,0.6500,4.6200,-8.0200,0.1440,-0.6610,0.2923,13.2500,-32.6875,13.7500,154.5625,1.3125,-149.3125,0
678.379,8.4060,5.5809,-3.6751,-1.0523,-0.2292,-0.4247,-37.3500,18.7500,-7.0500,10.0580,1.4269,-1.2953,-0.5891,0.0597,0.1665,-61.6500,28.6500,-42.3000,0.3100,5.1700,-7.9900,0.0491,-0.5836,0.1800,13.1875,-32.6875,15.0000,154.5625,1.3125,-149.3125,0
678.384,8.4060,5.5809,-3.6751,-1.0523,-0.2292,-0.4247,-37.3500,18.7500,-7.0500,9.8043,1.2929,-1.4988,-0.3789,0.1292,0.1522,-61.6500,28.6500,-42.3000,0.3100,5.1700,-7.9900,0.0491,-0.5836,0.1800,13.1875,-32.6875,15.0000,154.5625,1.3125,-149.3125,0
678.389,8.0110,6.1723,-3.4716,-0.8692,-0.3259,-0.4117,-37.3500,18.7500,-7.0500,9.8043,1.2929,-1.4988,-0.3789,0.1292,0.1522,-60.9000,27.1500,-43.8000,0.3800,5.3300,-8.2600,-0.0065,-0.4865,0.0415,13.1875,-32.6875,15.0000,154.6250,1.1250,-149.3125,0
678.394,8.0110,6.1723,-3.4716,-0.8692,-0.3259,-0.4117,-37.3500,18.7500,-7.0500,9.5409,1.0343,-0.9936,-0.1679,0.1668,0.1300,-60.9000,27.1500,-43.8000,0.3800,5.3300,-8.2600,-0.0796,-0.4712,-0.0556,13.1875,-32.6875,15.0000,154.6875,0.8750,-149.2500,0
678.400,7.6184,5.2720,-3.8666,-0.6179,-0.4671,-0.3813,-36.4500,18.1500,-6.9000,9.5409,1.0343,-0.9936,-0.1679,0.1668,0.1300,-60.9000,27.1500,-43.8000,0.1200,3.7500,-8.4800,-0.0796,-0.4712,-0.0556,13.1875,-32.6875,15.0000,154.6875,0.6250,-149.1875,0
678.410,6.9983,3.7757,-4.2114,-0.6305,-0.4650,-0.3030,-37.0500,18.3000,-5.7000,9.3158,0.5962,-1.0343,-0.0298,0.1847,0.1236,-60.3000,28.5000,-41.4000,0.5000,3.7800,-8.7400,-0.1636,-0.4669,-0.1036,13.1875,-32.6875,15.0000,154.6875,0.6250,-149.1875,0
678.420,6.6798,3.1963,-4.2329,-0.6947,-0.4378,-0.1913,-35.8500,18.3000,-7.0500,9.1626,0.3017,-1.8962,-0.0562,0.1895,0.1495,-60.3000,28.5000,-41.4000,0.8000,3.5600,-8.8200,-0.1756,-0.4898,-0.0949,13.1875,-32.6875,15.0000,154.7500,0.3125,-149.0625,0
678.424,6.6798,3.1963,-4.2329,-0.6947,-0.4378,-0.1913,-37.5000,18.4500,-4.3500,9.5744,-0.2634,-1.7645,-0.1330,0.1759,0.1732,-60.3000,28.5000,-41.4000,0.8000,3.5600,-8.8200,-0.1756,-0.4898,-0.0949,13.1875,-32.6875,15.0000,154.7500,0.3125,-149.0625,0
678.429,6.7612,3.4500,-4.3527,-0.7088,-0.1876,-0.1452,-37.5000,18.4500,-4.3500,9.5744,-0.2634,-1.7645,-0.1330,0.1759,0.1732,-60.4500,27.9000,-42.7500,0.3700,3.4500,-8.4500,-0.1494,-0.5312,-0.0447,13.1875,-32.2500,14.5000,154.8125,0.0625,-149.0000,0
678.434,6.7612,3.4500,-4.3527,-0.7088,-0.1876,-0.1452,-37.2000,17.4000,-5.4000,10.0509,-0.5962,-1.1516,-0.2473,0.1713,0.1817,-60.4500,27.9000,-42.7500,0.3700,3.4500,-8.4500,-0.1494,-0.5312,-0.0447,13.1875,-32.2500,14.5000,154.8125,0.0625,-149.0000,0
678.439,6.6080,4.1683,-4.0486,-0.6480,0.1319,-0.1623,-37.2000,17.4000,-5.4000,10.0509,-0.5962,-1.1516,-0.2473,0.1713,0.1817,-62.7000,28.3500,-42.7500,0.0800,4.1800,-8.9700,-0.1385,-0.5672,0.0295,13.1875,-32.2500,14.5000,154.8750,-0.1250,-148.9375,0
678.444,6.6080,4.1683,-4.0486,-0.8716,-0.2483,-0.1753,-37.2000,17.4000,-5.4000,9.9168,-0.7997,-1.1540,-0.5007,0.1367,0.1700,-62.7000,28.3500,-42.7500,0.0800,4.1800,-8.9700,-0.1058,-0.6294,0.0742,13.1875,-32.2500,14.5000,155.0000,-0.3750,-148.8750,0
678.450,8.6862,4.7453,-3.0694,-0.8716,-0.2483,-0.1753,-37.2000,17.4000,-5.4000,10.0149,-0.5770,-0.3112,-0.7091,0.0861,0.1306,-62.4000,27.4500,-42.3000,0.6500,4.5700,-9.1400,-0.1058,-0.6294,0.0742,13.1875,-32.2500,14.5000,155.1875,-0.6875,-148.8125,0
678.460,9.2177,5.1380,-3.3734,-0.7125,-0.0224,-0.1077,-37.5000,17.4000,-4.8000,9.9647,-0.0551,-0.4070,-0.7091,0.0861,0.1306,-62.4000,28.6500,-42.7500,0.2900,4.1600,-8.3100,-0.0600,-0.7199,0.1124,13.1875,-32.2500,14.5000,155.3750,-1.0000,-148.7500,0
678.470,10.0437,5.0661,-4.1731,-0.6419,-0.1625,-0.0426,-39.0000,18.4500,-5.4000,9.5888,0.6776,-0.8906,-0.8652,0.0648,0.1420,-62.4000,28.6500,-42.7500,0.6500,4.5400,-8.8900,-0.0764,-0.6785,0.1451,13.1875,-32.2500,14.5000,155.3750,-1.0000,-148.7500,0
678.475,9.3111,5.1260,-4.1396,-0.4642,-0.3030,0.0088,-38.5500,17.7000,-5.8500,9.5888,0.6776,-0.8906,-0.8652,0.0648,0.1420,-62.4000,28.6500,-42.7500,0.6500,4.5400,-8.8900,-0.0764,-0.6785,0.1451,13.1875,-32.2500,14.5000,155.3750,-1.0000,-148.7500,0
678.480,9.3111,5.1260,-4.1396,-0.4642,-0.3030,0.0088,-38.5500,17.7000,-5.8500,9.3565,0.7925,-1.4317,-0.7626,0.0927,0.1431,-61.8000,28.0500,-41.4000,0.8300,4.6100,-8.6300,-0.0818,-0.7429,0.1200,13.1875,-32.2500,13.7500,155.0625,-1.3125,-148.6875,0
678.484,8.1259,5.8299,-4.0486,-0.2633,-0.2798,0.0978,-38.8500,17.5500,-4.9500,9.3565,0.7925,-1.4317,-0.7626,0.0927,0.1431,-61.8000,28.0500,-41.4000,0.8300,4.6100,-8.6300,-0.0818,-0.7429,0.1200,13.1875,-32.2500,13.7500,155.0625,-1.3125,-148.6875,0
678.490,8.1259,5.8299,-4.0486,-0.2633,-0.2798,0.0978,-38.8500,17.5500,-4.9500,8.9759,1.0056,-2.8635,-0.7008,0.1207,0.1639,-61.8000,28.0500,-41.4000,0.4300,3.9200,-8.0600,-0.0382,-0.7865,0.1353,13.1875,-32.2500,13.7500,155.2500,-1.6250,-148.6875,0
678.494,7.7165,6.3566,-4.7070,-0.2225,-0.4445,0.1783,-38.8500,17.5500,-4.9500,8.9759,1.0056,-2.8635,-0.7008,0.1207,0.1639,-61.8000,28.0500,-41.4000,0.4300,3.9200,-8.0600,-0.0316,-0.7723,0.1407,13.1875,-32.2500,13.7500,155.4375,-1.9375,-148.6250,0
678.500,7.7165,6.3566,-4.7070,-0.2225,-0.4445,0.1783,-38.8500,17.5500,-4.9500,8.9926,0.9026,-3.7661,-0.5958,0.1252,0.1532,-61.2000,28.6500,-42.0000,-0.2800,3.8200,-7.6400,-0.0316,-0.7723,0.1407,13.1875,-32.2500,13.7500,155.6875,-2.2500,-148.6250,0
678.510,7.1706,6.1052,-4.8794,-0.1484,-0.2974,0.2278,-39.3000,16.9500,-5.1000,9.3302,0.7614,-3.4333,-0.3874,0.1124,0.1380,-60.4500,28.6500,-40.8000,-1.5100,3.7100,-7.2500,-0.0109,-0.7330,0.1680,13.1875,-32.2500,13.7500,155.6875,-2.2500,-148.6250,0
678.520,7.2161,5.5641,-4.8339,-0.0045,-0.2523,0.2646,-37.9500,17.7000,-4.3500,9.5002,0.6297,-2.8036,-0.3024,0.0959,0.1258,-61.2000,27.4500,-42.3000,-2.2200,3.8000,-7.5700,-0.0284,-0.6229,0.2007,13.1875,-32.2500,13.7500,155.8750,-2.5000,-148.6250,0
678.525,7.4723,5.3798,-4.9680,0.2952,-0.1140,0.2931,-39.0000,17.7000,-4.3500,9.5002,0.6297,-2.8036,-0.3024,0.0959,0.1258,-61.2000,27.4500,-42.3000,-2.2200,3.8000,-7.5700,-0.0284,-0.6229,0.2007,13.1875,-32.2500,13.7500,155.4375,-2.6875,-148.5625,0
678.530,7.4723,5.3798,-4.9680,0.2952,-0.1140,0.2931,-39.0000,17.7000,-4.3500,9.5074,0.4573,-1.6041,-0.2651,0.0911,0.1290,-63.1500,28.3500,-42.0000,-1.9400,3.8300,-7.6000,-0.0785,-0.5454,0.2040,14.6875,-32.6875,13.7500,155.4375,-2.6875,-148.5625,0
678.534,7.3263,4.9847,-4.4652,0.3597,-0.1271,0.2992,-38.5500,17.7000,-5.1000,9.5074,0.4573,-1.6041,-0.2651,0.0911,0.1290,-63.1500,28.3500,-42.0000,-1.9400,3.8300,-7.6000,-0.0785,-0.5454,0.2040,14.6875,-32.6875,13.7500,155.6250,-2.8750,-148.5000,0
678.540,7.3263,4.9847,-4.4652,0.3597,-0.1271,0.2992,-38.5500,17.7000,-5.1000,9.3709,0.7111,-1.2905,-0.3437,0.1236,0.1543,-63.1500,28.3500,-42.0000,-1.0400,4.0700,-7.8800,-0.1113,-0.4647,0.2302,14.6875,-32.6875,13.7500,155.6250,-2.8750,-148.5000,0
678.544,7.5226,3.9624,-4.1851,0.4120,-0.1553,0.2713,-37.9500,17.7000,-4.8000,9.3709,0.7111,-1.2905,-0.3437,0.1236,0.1543,-63.1500,28.3500,-42.0000,-1.0400,4.0700,-7.8800,-0.1331,-0.4080,0.2182,14.6875,-32.6875,13.7500,155.8125,-3.0000,-148.3750,0
678.551,7.5226,3.9624,-4.1851,0.3016,-0.1951,0.2156,-37.9500,17.7000,-4.8000,9.3541,0.8978,-1.4940,-0.4306,0.1743,0.1777,-60.9000,29.5500,-43.0500,0.0200,4.5100,-8.0500,-0.1331,-0.4080,0.2182,14.6875,-32.6875,13.7500,156.0000,-3.1250,-148.3125,0
678.560,7.3670,2.8347,-4.5274,0.3016,-0.1951,0.2156,-37.9500,17.7000,-4.8000,9.6055,0.9218,-1.6616,-0.4016,0.1921,0.1740,-60.9000,29.5500,-43.0500,0.0400,4.6300,-7.6200,-0.1047,-0.3949,0.1942,14.6875,-32.6875,13.7500,156.0000,-3.1250,-148.3125,0
