timestamp,thigh_acc_x,thigh_acc_y,thigh_acc_z,thigh_gyro_x,thigh_gyro_y,thigh_gyro_z,thigh_mag_x,thigh_mag_y,thigh_mag_z,shank_acc_x,shank_acc_y,shank_acc_z,shank_gyro_x,shank_gyro_y,shank_gyro_z,shank_mag_x,shank_mag_y,shank_mag_z,foot_acc_x,foot_acc_y,foot_acc_z,foot_gyro_x,foot_gyro_y,foot_gyro_z,foot_mag_x,foot_mag_y,foot_mag_z,foot_euler_x,foot_euler_y,foot_euler_z,perturbation_event
510.851,9.0764,3.5698,-0.9050,-0.1292,-0.0941,-0.0282,-51.9000,10.5000,23.8500,9.5361,1.6376,0.5914,-0.1127,0.0501,0.0357,-59.7000,25.2000,-16.0500,3.1600,4.1300,-8.3100,0.0436,-0.0240,0.0033,-21.5625,-18.8750,22.8750,244.7500,18.7500,-153.8125,0
510.856,9.0764,3.5698,-0.9050,-0.1292,-0.0941,-0.0282,-51.9000,10.5000,23.8500,9.5361,1.6376,0.5914,-0.1015,0.0464,0.0328,-59.7000,25.2000,-16.0500,3.1600,4.1300,-8.3100,0.0436,-0.0240,0.0033,-21.5625,-18.8750,22.8750,244.7500,18.7500,-153.8125,0
510.861,8.9711,3.6847,-0.8882,-0.1972,-0.0909,-0.0336,-51.9000,10.5000,23.8500,9.5984,1.5203,0.4166,-0.1015,0.0464,0.0328,-58.8000,25.8000,-17.7000,3.1800,4.1200,-8.2900,0.0382,-0.0240,0.0044,-22.2500,-17.7500,22.5000,244.8750,18.7500,-153.8125,0
510.866,8.9711,3.6847,-0.8882,-0.1972,-0.0909,-0.0336,-53.5500,10.6500,24.7500,9.5984,1.5203,0.4166,-0.1122,0.0512,0.0325,-58.8000,25.8000,-17.7000,3.1800,4.1200,-8.2900,0.0382,-0.0240,0.0044,-22.2500,-17.7500,22.5000,244.8750,18.7500,-153.8125,0
510.874,8.9471,3.7038,-0.8835,-0.2489,-0.0637,-0.0370,-52.8000,12.1500,22.5000,9.5241,1.6161,0.4453,-0.1178,0.0354,0.0338,-59.5500,24.6000,-16.2000,3.1700,4.0900,-8.2900,0.0316,-0.0207,0.0022,-22.2500,-17.7500,22.5000,244.8750,18.6875,-153.8750,0
510.881,8.8083,3.8068,-0.8739,-0.2731,-0.0520,-0.0309,-52.8000,12.1500,22.5000,9.5696,1.7789,0.4046,-0.1282,0.0370,0.0309,-60.1500,26.4000,-15.6000,3.1700,4.0800,-8.3100,0.0262,-0.0196,0.0011,-22.2500,-17.7500,22.5000,244.8750,18.6875,-153.8750,0
510.886,8.8083,3.8068,-0.8739,-0.2731,-0.0520,-0.0309,-52.0500,10.9500,23.5500,9.5696,1.7789,0.4046,-0.1282,0.0370,0.0309,-60.1500,26.4000,-15.6000,3.1700,4.0800,-8.3100,0.0262,-0.0196,0.0011,-22.2500,-17.7500,22.5000,244.8750,18.6875,-153.8750,0
510.895,8.8921,3.9169,-0.9816,-0.2451,-0.0203,-0.0101,-52.6500,12.0000,23.8500,9.5936,1.7430,0.3807,-0.0986,0.0440,0.0306,-60.1500,26.4000,-15.6000,3.1500,4.1000,-8.3000,0.0229,-0.0218,0.0033,-22.2500,-17.7500,22.5000,244.8750,18.6875,-153.8750,0
510.902,8.8992,3.8882,-0.9242,-0.2076,-0.0133,0.0093,-52.6500,12.0000,23.8500,9.5481,1.6664,0.4764,-0.0946,0.0517,0.0306,-59.5500,26.5500,-16.2000,3.1500,4.1400,-8.2800,0.0251,-0.0196,0.0011,-22.2500,-17.7500,22.5000,244.8750,18.6875,-153.8750,0
510.907,8.8992,3.8882,-0.9242,-0.2076,-0.0133,0.0093,-52.6500,12.0000,23.8500,9.5481,1.6664,0.4764,-0.0946,0.0517,0.0306,-59.5500,26.5500,-16.2000,3.1500,4.1400,-8.2800,0.0251,-0.0196,0.0011,-22.2500,-17.7500,22.5000,244.8750,18.6875,-153.8750,0
510.912,8.7843,3.9672,-0.8116,-0.1908,-0.0245,0.0107,-52.6500,12.0000,23.8500,9.6007,1.8866,0.3663,-0.1071,0.0464,0.0317,-61.6500,25.9500,-17.1000,3.1500,4.1300,-8.2800,0.0196,-0.0185,0.0033,-22.6875,-18.1875,22.5000,244.9375,18.6875,-153.9375,0
510.916,8.7843,3.9672,-0.8116,-0.1908,-0.0245,0.0107,-52.0500,12.4500,23.2500,9.6007,1.8866,0.3663,-0.1071,0.0464,0.0317,-61.6500,25.9500,-17.1000,3.1500,4.1300,-8.2800,0.0196,-0.0185,0.0033,-22.6875,-18.1875,22.5000,244.9375,18.6875,-153.9375,0
510.925,8.8011,4.0606,-0.7518,-0.1857,-0.0112,0.0240,-52.0500,10.6500,23.2500,9.5433,1.8244,0.4190,-0.0703,0.0424,0.0336,-59.4000,26.4000,-15.6000,3.1400,4.1600,-8.2600,0.0185,-0.0175,0.0000,-22.6875,-18.1875,22.5000,244.9375,18.6875,-153.9375,0
510.931,8.7915,4.1300,-0.7901,-0.1391,0.0093,0.0384,-52.0500,10.6500,23.2500,9.5217,1.7573,0.3687,-0.0690,0.0381,0.0357,-60.1500,25.9500,-15.6000,3.1500,4.1600,-8.2900,0.0175,-0.0142,0.0011,-22.6875,-18.1875,22.5000,244.9375,18.6875,-153.9375,0
510.936,8.7915,4.1300,-0.7901,-0.1391,0.0093,0.0384,-52.3500,11.4000,23.2500,9.5217,1.7573,0.3687,-0.0690,0.0381,0.0357,-60.1500,25.9500,-15.6000,3.1500,4.1600,-8.2900,0.0175,-0.0142,0.0011,-22.6875,-18.1875,22.5000,244.9375,18.6250,-153.9375,0
510.945,8.8442,4.3646,-0.7470,-0.0794,0.0096,0.0525,-52.8000,12.4500,23.5500,9.5720,1.7669,0.4573,-0.0762,0.0389,0.0410,-60.3000,25.8000,-16.6500,3.1600,4.1200,-8.3000,0.0142,-0.0120,0.0022,-22.6875,-18.1875,22.5000,244.9375,18.6250,-153.9375,0
510.953,8.7747,4.4245,-0.7805,-0.0541,0.0421,0.0687,-52.8000,11.4000,23.5500,9.5337,1.9273,0.4310,-0.0530,0.0373,0.0442,-60.7500,25.3500,-15.1500,3.1600,4.1300,-8.2700,0.0120,-0.0120,0.0022,-22.6875,-18.1875,22.5000,244.9375,18.6250,-153.9375,0
510.958,8.7460,4.3311,-0.8021,-0.0719,0.0562,0.0829,-52.8000,11.4000,23.5500,9.4619,1.8914,0.4453,-0.0309,0.0354,0.0416,-60.7500,25.3500,-15.1500,3.1600,4.1300,-8.2700,0.0120,-0.0120,0.0022,-22.6875,-18.1875,22.5000,244.9375,18.6250,-153.9375,0
510.963,8.7460,4.3311,-0.8021,-0.0719,0.0562,0.0829,-52.8000,11.4000,23.5500,9.4619,1.8914,0.4453,-0.0309,0.0354,0.0416,-60.7500,25.3500,-15.1500,3.1600,4.1800,-8.2400,0.0120,-0.0109,0.0011,-22.6875,-18.8750,22.8750,244.9375,18.6250,-153.9375,0
510.967,8.6503,4.3694,-0.8212,-0.0725,0.0773,0.1023,-52.8000,11.4000,23.5500,9.5313,1.8292,0.3615,-0.0157,0.0453,0.0448,-60.7500,25.3500,-15.1500,3.1600,4.1800,-8.2400,0.0120,-0.0109,0.0011,-22.6875,-18.8750,22.8750,244.9375,18.6250,-153.9375,0
510.975,8.6503,4.3694,-0.8212,-0.0725,0.0773,0.1023,-52.3500,9.4500,23.5500,9.5313,1.8292,0.3615,-0.0157,0.0453,0.0448,-59.1000,25.3500,-14.7000,3.1700,4.1600,-8.2600,0.0131,-0.0065,0.0011,-22.6875,-18.8750,22.8750,244.9375,18.6250,-153.9375,0
510.983,8.7460,4.5083,-0.8715,-0.0584,0.0938,0.1143,-51.4500,12.3000,23.1000,9.4332,1.9992,0.2251,-0.0203,0.0429,0.0552,-59.1000,25.3500,-14.7000,3.1600,4.1300,-8.2900,0.0196,-0.0142,-0.0022,-22.6875,-18.8750,22.8750,244.9375,18.6250,-153.9375,0
510.988,8.6550,4.5226,-0.9337,-0.0437,0.0983,0.1162,-51.4500,12.3000,23.1000,9.3781,1.9680,0.1508,0.0128,0.0608,0.0586,-59.1000,25.3500,-14.7000,3.1600,4.1300,-8.2900,0.0196,-0.0142,-0.0022,-22.6875,-18.8750,22.8750,244.9375,18.6250,-154.0000,0
510.995,8.6550,4.5226,-0.9337,-0.0437,0.0983,0.1162,-52.0500,10.9500,23.2500,9.4571,1.7310,0.0263,0.0128,0.0608,0.0586,-59.4000,24.7500,-16.3500,3.1800,4.1200,-8.2600,0.0207,-0.0142,-0.0044,-22.6875,-18.8750,22.8750,244.9375,18.6250,-154.0000,0
511.005,8.6981,4.5346,-1.0463,-0.0061,0.1039,0.1140,-51.7500,11.7000,23.2500,9.5672,1.4772,0.2729,0.0035,0.0815,0.0538,-59.5500,25.0500,-15.9000,3.1500,4.1700,-8.2500,0.0305,-0.0131,-0.0076,-22.6875,-18.8750,22.8750,244.9375,18.6250,-154.0000,0
511.010,8.7676,4.4293,-1.0942,0.0565,0.1292,0.1330,-51.7500,11.7000,23.2500,9.5672,1.4772,0.2729,0.0029,0.0959,0.0576,-59.5500,25.0500,-16.2000,3.1500,4.1700,-8.2500,0.0305,-0.0131,-0.0076,-22.6875,-18.8750,22.8750,244.9375,18.6250,-154.0000,0
511.015,8.7676,4.4293,-1.0942,0.0565,0.1292,0.1330,-51.7500,11.7000,23.2500,9.6869,1.5921,0.4238,0.0029,0.0959,0.0576,-59.5500,25.0500,-16.2000,3.1100,4.1500,-8.2800,0.0349,-0.0196,-0.0076,-22.2500,-17.3750,23.2500,245.1250,18.6250,-154.0000,0
511.019,8.8873,4.3742,-1.0151,0.0941,0.1287,0.1444,-51.7500,11.7000,23.2500,9.6869,1.5921,0.4238,-0.0442,0.1178,0.0613,-59.8500,23.8500,-13.9500,3.1100,4.1500,-8.2800,0.0349,-0.0196,-0.0076,-22.2500,-17.3750,23.2500,245.1250,18.6250,-154.0000,0
511.024,8.8873,4.3742,-1.0151,0.0941,0.1287,0.1444,-51.9000,10.8000,22.3500,9.5696,1.6831,0.3831,-0.0442,0.1178,0.0613,-59.8500,23.8500,-13.9500,3.1200,4.0900,-8.3300,0.0415,-0.0153,-0.0109,-22.2500,-17.3750,23.2500,245.0625,18.6250,-154.0000,0
511.029,8.8657,4.1635,-1.0127,0.1263,0.1306,0.1556,-51.9000,10.8000,22.3500,9.5696,1.6831,0.3831,-0.0538,0.1252,0.0634,-59.8500,23.8500,-13.9500,3.1200,4.0900,-8.3300,0.0305,-0.0142,-0.0065,-22.2500,-17.3750,23.2500,245.0625,18.6250,-154.0625,0
511.036,8.9663,3.9480,-0.9840,0.1442,0.1511,0.1772,-51.4500,11.5500,22.3500,9.4978,1.7573,0.4573,-0.0309,0.1204,0.0674,-59.8500,23.8500,-13.9500,3.1300,4.0900,-8.3100,0.0305,-0.0142,-0.0065,-22.2500,-17.3750,23.2500,245.0625,18.5625,-154.0625,0
511.045,8.9423,3.8451,-1.0630,0.1055,0.1596,0.1817,-53.4000,10.8000,23.4000,9.5050,1.7023,0.4214,-0.0203,0.1287,0.0632,-59.7000,24.7500,-13.0500,3.1400,4.0600,-8.3400,0.0262,-0.0120,-0.0022,-22.2500,-17.3750,23.2500,245.0625,18.5625,-154.0625,0
511.051,8.9423,3.8451,-1.0630,0.1055,0.1596,0.1817,-51.9000,11.5500,24.4500,9.5050,1.7023,0.4214,-0.0203,0.1287,0.0632,-59.7000,24.7500,-13.0500,3.1600,4.0200,-8.3000,0.0229,-0.0131,0.0022,-22.2500,-17.3750,23.2500,245.0625,18.5625,-154.0625,0
511.056,9.0285,3.7804,-1.0439,0.0578,0.1580,0.1969,-51.9000,11.5500,24.4500,9.4810,1.6137,0.5794,0.0011,0.1274,0.0640,-59.7000,24.7500,-13.0500,3.1600,4.0200,-8.3000,0.0229,-0.0131,0.0022,-22.2500,-17.3750,23.2500,245.0625,18.5625,-154.0625,0
511.061,9.0285,3.7804,-1.0439,0.0578,0.1580,0.1969,-51.9000,11.5500,24.4500,9.4810,1.6137,0.5794,0.0011,0.1274,0.0640,-59.5500,24.6000,-15.1500,3.1600,4.0200,-8.3000,0.0229,-0.0131,0.0022,-21.8750,-18.5000,24.0625,245.0625,18.5625,-154.0625,0
511.066,8.8992,3.7086,-0.9385,0.0165,0.1743,0.2086,-52.8000,12.4500,23.5500,9.6247,1.5299,0.5028,0.0115,0.1268,0.0608,-59.5500,24.6000,-15.1500,3.1500,4.0800,-8.2500,0.0175,-0.0120,0.0044,-21.8750,-18.5000,24.0625,245.0625,18.5625,-154.0625,0
511.072,8.8992,3.7086,-0.9385,0.0165,0.1743,0.2086,-52.8000,12.4500,23.5500,9.6582,1.5060,0.6488,0.0115,0.1268,0.0608,-57.9000,24.4500,-14.8500,3.1300,4.0200,-8.3200,0.0207,-0.0142,0.0033,-21.8750,-18.5000,24.0625,245.0625,18.5625,-154.1250,0
511.076,8.9256,3.7038,-0.8164,0.0051,0.1753,0.2193,-52.8000,12.4500,23.5500,9.6582,1.5060,0.6488,0.0035,0.1247,0.0589,-57.9000,24.4500,-14.8500,3.1300,4.0200,-8.3200,0.0207,-0.0142,0.0033,-21.8750,-18.5000,24.0625,245.0625,18.5625,-154.1250,0
511.085,8.8585,3.6320,-0.6680,0.0163,0.2028,0.2388,-51.9000,11.2500,22.8000,9.6103,1.7095,0.5986,0.0224,0.1103,0.0562,-60.3000,24.6000,-15.1500,3.1200,4.0500,-8.3400,0.0240,-0.0185,0.0022,-21.8750,-18.5000,24.0625,245.0625,18.5625,-154.1250,0
511.091,8.8585,3.6320,-0.6680,0.0163,0.2028,0.2388,-53.1000,10.9500,23.2500,9.5098,1.7645,0.6249,0.0224,0.1103,0.0562,-59.8500,26.1000,-15.1500,3.1100,4.0300,-8.3600,0.0218,-0.0131,0.0022,-21.8750,-18.5000,24.0625,245.0625,18.5625,-154.1250,0
511.096,8.9447,3.6057,-0.6536,0.1037,0.2044,0.2470,-53.1000,10.9500,23.2500,9.5098,1.7645,0.6249,0.0450,0.1172,0.0557,-59.8500,26.1000,-15.1500,3.1100,4.0300,-8.3600,0.0218,-0.0131,0.0022,-21.8750,-18.5000,24.0625,245.0625,18.5625,-154.1250,0
511.105,8.8992,3.5602,-0.4764,0.1855,0.1929,0.2531,-51.4500,11.2500,23.8500,9.5648,1.8172,0.7087,0.0671,0.1290,0.0578,-59.4000,24.4500,-15.6000,3.1400,4.0300,-8.3300,0.0175,-0.0055,0.0011,-21.8750,-18.5000,24.0625,245.0625,18.5625,-154.1250,0
511.110,8.8992,3.5602,-0.4764,0.1855,0.1929,0.2531,-51.4500,11.2500,23.8500,9.5648,1.8172,0.7087,0.0671,0.1290,0.0578,-59.4000,24.4500,-15.6000,3.1400,4.0300,-8.3300,0.0175,-0.0055,0.0011,-21.5625,-18.5000,23.2500,245.0625,18.5625,-154.1250,0
511.115,8.9711,3.4955,-0.3759,0.1998,0.2737,0.2590,-52.0500,11.4000,24.0000,9.5385,1.7382,0.8643,0.1242,0.1242,0.0506,-58.6500,24.7500,-14.8500,3.1400,4.1100,-8.2500,0.0131,-0.0044,0.0011,-21.5625,-18.5000,23.2500,245.0625,18.5625,-154.1250,0
511.122,9.1339,3.2944,-0.0048,0.1474,0.1759,0.2529,-52.0500,11.4000,24.0000,9.5840,1.3767,1.1229,0.1258,0.1167,0.0464,-58.6500,24.7500,-14.8500,3.1200,4.0900,-8.2700,0.0142,-0.0033,0.0022,-21.5625,-18.5000,23.2500,245.0625,18.5625,-154.1250,0
511.127,9.1339,3.2944,-0.0048,0.1474,0.1759,0.2529,-52.0500,11.4000,24.0000,9.5840,1.3767,1.1229,0.1258,0.1167,0.0464,-58.6500,24.7500,-14.8500,3.1200,4.0900,-8.2700,0.0142,-0.0033,0.0022,-21.5625,-18.5000,23.2500,245.0625,18.5625,-154.1875,0
511.135,9.3494,3.1651,0.0287,0.1138,0.3920,0.2467,-51.3000,11.7000,22.5000,9.6917,1.3934,1.0726,0.1002,0.1058,0.0426,-58.8000,25.3500,-15.4500,3.1600,4.0000,-8.2700,0.0207,-0.0055,0.0000,-21.5625,-18.5000,23.2500,245.0625,18.5625,-154.1875,0
511.142,9.1482,3.0287,0.1389,0.1378,0.1668,0.2188,-51.4500,11.5500,23.1000,9.7061,1.4653,0.9864,0.0674,0.0757,0.0541,-59.8500,24.1500,-15.4500,3.1600,3.9400,-8.3700,0.0284,-0.0087,-0.0022,-21.5625,-18.5000,23.2500,245.0625,18.5625,-154.1875,0
511.147,9.1482,3.0287,0.1389,0.1378,0.1668,0.2188,-51.4500,11.5500,23.1000,9.7061,1.4653,0.9864,0.0674,0.0757,0.0541,-59.8500,24.1500,-15.4500,3.1600,3.9400,-8.3700,0.0284,-0.0087,-0.0022,-21.5625,-18.5000,23.2500,245.0625,18.5625,-154.1875,0
511.155,9.2895,2.9760,-0.1101,0.1884,0.3714,0.2470,-50.8500,12.0000,23.1000,9.6917,1.3408,1.0678,0.0733,0.0594,0.0413,-58.2000,25.2000,-15.3000,3.1400,4.0100,-8.3300,0.0295,-0.0044,-0.0055,-21.5625,-18.5000,23.2500,245.0625,18.5625,-154.1875,0
511.160,9.3805,3.0047,-0.0886,0.2662,0.2667,0.2545,-52.2000,12.7500,23.1000,9.6247,1.2833,0.9577,0.0682,0.0400,0.0338,-58.2000,25.2000,-15.3000,3.1400,4.0100,-8.3300,0.0295,-0.0044,-0.0055,-21.5625,-18.5000,23.2500,245.0625,18.5625,-154.1875,0
511.165,9.3805,3.0047,-0.0886,0.2662,0.2667,0.2545,-52.2000,12.7500,23.1000,9.6247,1.2833,0.9577,0.0682,0.0400,0.0338,-59.4000,24.4500,-14.8500,3.1400,3.9500,-8.3600,0.0327,-0.0044,-0.0065,-21.8750,-17.7500,24.5000,245.1875,18.5625,-154.1875,0
511.170,9.1818,3.0071,-0.2011,0.3064,0.2894,0.2675,-51.9000,12.3000,23.8500,9.7133,1.4150,0.7829,0.0506,0.0200,0.0386,-59.4000,24.4500,-14.8500,3.1400,3.9500,-8.3600,0.0327,-0.0044,-0.0065,-21.8750,-17.7500,24.5000,245.1875,18.5625,-154.1875,0
511.175,9.1818,3.0071,-0.2011,0.3064,0.2894,0.2675,-51.9000,12.3000,23.8500,9.7133,1.4150,0.7829,0.0506,0.0200,0.0386,-59.4000,24.4500,-15.3000,3.1200,3.9100,-8.3300,0.0273,-0.0022,-0.0076,-21.8750,-17.7500,24.5000,245.1875,18.5625,-154.2500,0
511.180,9.3541,3.1699,-0.3903,0.3365,0.3256,0.2883,-51.9000,12.3000,23.8500,9.6702,1.2881,0.6823,0.0687,0.0115,0.0333,-59.4000,24.4500,-15.3000,3.1200,3.9100,-8.3300,0.0218,0.0022,-0.0044,-21.8750,-17.7500,24.5000,245.1875,18.5625,-154.2500,0
511.186,9.3541,3.1699,-0.3903,0.3365,0.3256,0.2883,-51.9000,12.3000,23.8500,9.6702,1.2881,0.6823,0.0687,0.0115,0.0333,-59.1000,25.0500,-15.1500,3.1200,3.9600,-8.3200,0.0218,0.0022,-0.0044,-21.8750,-17.7500,24.5000,245.1875,18.5625,-154.2500,0
511.195,9.3494,3.2513,-0.4046,0.3693,0.2809,0.2923,-51.7500,12.1500,22.9500,9.6007,1.6281,0.4860,0.0434,0.0021,0.0346,-59.1000,25.0500,-15.1500,3.0900,3.9800,-8.3300,0.0185,0.0044,-0.0076,-21.8750,-17.7500,24.5000,245.1875,18.5625,-154.2500,0
511.203,9.1842,3.3136,-0.5243,0.4026,0.2702,0.2734,-52.0500,12.1500,22.2000,9.5457,1.7741,0.5531,0.0767,-0.0016,0.0432,-59.8500,25.0500,-14.7000,3.1200,3.9600,-8.3200,0.0055,0.0098,-0.0055,-21.8750,-17.7500,24.5000,245.1875,18.5625,-154.2500,0
511.208,9.1842,3.3136,-0.5243,0.4026,0.2702,0.2734,-52.0500,12.1500,22.2000,9.3829,1.9680,0.5866,0.1122,0.0085,0.0482,-59.8500,25.0500,-14.7000,3.1200,3.9600,-8.3200,0.0055,0.0098,-0.0055,-21.8750,-17.7500,24.5000,245.1875,18.5625,-154.2500,0
511.213,9.1243,3.3519,-0.4214,0.4016,0.2417,0.2547,-51.0000,11.4000,22.2000,9.3829,1.9680,0.5866,0.1122,0.0085,0.0482,-59.8500,25.0500,-14.7000,3.1000,4.0300,-8.3300,-0.0055,0.0153,0.0000,-21.8750,-18.5000,22.0625,245.1250,18.5625,-154.2500,0
511.218,9.1243,3.3519,-0.4214,0.4016,0.2417,0.2547,-51.0000,11.4000,22.2000,9.4068,1.9728,0.5602,0.1266,0.0013,0.0501,-59.8500,25.0500,-14.7000,3.1000,4.0300,-8.3300,-0.0055,0.0153,0.0000,-21.8750,-18.5000,22.0625,245.1250,18.5625,-154.2500,0
511.226,9.2440,3.3495,-0.2801,0.3469,0.2268,0.2289,-52.3500,11.7000,22.2000,9.4188,1.9609,0.5890,0.1266,0.0013,0.0501,-60.7500,24.6000,-15.1500,3.1500,4.0000,-8.2900,-0.0098,0.0196,0.0011,-21.8750,-18.5000,22.0625,245.1250,18.5625,-154.2500,0
511.232,9.1674,3.5314,0.0120,0.2920,0.2188,0.1948,-52.3500,11.7000,22.2000,9.4188,1.9609,0.5890,0.1066,0.0035,0.0624,-59.1000,23.8500,-13.9500,3.1700,4.0200,-8.2700,-0.0142,0.0185,0.0055,-21.8750,-18.5000,22.0625,245.1250,18.5625,-154.2500,0
511.237,9.1674,3.5314,0.0120,0.2920,0.2188,0.1948,-52.3500,11.7000,22.2000,9.5265,2.0135,0.4645,0.0989,-0.0069,0.0727,-59.1000,23.8500,-13.9500,3.1700,4.0200,-8.2700,-0.0142,0.0185,0.0055,-21.8750,-18.5000,22.0625,245.1250,18.6250,-154.2500,0
511.246,9.3853,3.4979,0.5794,0.2118,0.2561,0.1609,-52.0500,12.9000,22.5000,9.4978,1.8148,0.4046,0.0989,-0.0069,0.0727,-59.5500,25.0500,-14.4000,3.1200,4.0900,-8.2900,-0.0065,0.0142,0.0011,-21.8750,-18.5000,22.0625,245.1250,18.6250,-154.2500,0
511.252,9.2991,3.4931,0.7135,0.2076,0.2265,0.1199,-51.4500,13.0500,23.4000,9.4978,1.8148,0.4046,0.0759,-0.0136,0.0861,-61.0500,24.6000,-14.4000,3.1400,4.0600,-8.2700,0.0011,0.0087,-0.0033,-21.8750,-18.5000,22.0625,245.1250,18.6250,-154.2500,0
511.257,9.4499,3.5099,0.2059,0.2673,0.2006,0.0818,-51.4500,13.0500,23.4000,9.7324,1.5730,0.8835,0.0861,-0.0285,0.0927,-61.0500,24.6000,-14.4000,3.1400,4.0600,-8.2700,0.0011,0.0087,-0.0033,-21.8750,-18.5000,22.0625,245.1250,18.6250,-154.2500,0
511.262,9.4499,3.5099,0.2059,0.2673,0.2006,0.0818,-50.5500,11.7000,24.0000,9.7324,1.5730,0.8835,0.0861,-0.0285,0.0927,-61.0500,24.6000,-14.4000,3.1000,3.9800,-8.3900,0.0065,0.0065,-0.0044,-21.8750,-17.3750,22.8750,245.2500,18.6250,-154.2500,0
511.266,8.9543,3.9241,-0.4980,0.3600,0.1927,0.0317,-50.5500,11.7000,24.0000,9.6774,1.5562,1.2522,0.0493,-0.0437,0.0991,-61.0500,24.6000,-14.4000,3.1000,3.9800,-8.3900,0.0065,0.0065,-0.0044,-21.8750,-17.3750,22.8750,245.2500,18.6250,-154.2500,0
511.276,8.9543,3.9241,-0.4980,0.3600,0.1927,0.0317,-52.3500,10.6500,24.7500,9.5529,1.9106,1.1301,0.0240,-0.0610,0.1234,-59.5500,26.1000,-15.9000,3.1000,3.9400,-8.3600,0.0109,0.0055,-0.0022,-21.8750,-17.3750,22.8750,245.2500,18.6250,-154.2500,0
511.282,8.7795,3.9121,-0.2634,0.1689,0.2411,0.0213,-51.4500,12.0000,22.8000,9.5529,1.9106,1.1301,0.0240,-0.0610,0.1234,-59.5500,26.1000,-15.9000,3.2000,3.9100,-8.3400,0.0011,0.0120,0.0033,-21.8750,-17.3750,22.8750,245.2500,18.6250,-154.2500,0
511.287,8.7843,3.1556,0.7997,-0.0141,0.3171,0.1407,-51.4500,12.0000,22.8000,9.4643,2.0303,0.8068,0.0250,-0.0709,0.1247,-59.5500,26.1000,-15.9000,3.2000,3.9100,-8.3400,0.0011,0.0120,0.0033,-21.8750,-17.3750,22.8750,245.2500,18.6250,-154.2500,0
511.296,8.8585,2.6887,0.9170,0.0496,0.3592,0.2246,-51.4500,12.0000,22.8000,9.4954,1.8459,0.7087,0.0879,-0.0733,0.1314,-59.8500,23.8500,-16.2000,3.2100,3.9700,-8.3100,-0.0055,0.0164,0.0065,-21.8750,-17.3750,22.8750,245.2500,18.6250,-154.2500,0
511.304,8.8585,2.6887,0.9170,0.0496,0.3592,0.2246,-51.4500,13.5000,22.8000,9.4667,1.5131,1.0654,0.1228,-0.0842,0.1386,-59.1000,25.3500,-14.4000,3.1400,3.9900,-8.3100,0.0022,0.0164,0.0011,-21.8750,-17.3750,22.8750,245.2500,18.6250,-154.2500,0
511.309,9.0621,2.8371,0.2634,0.1700,0.3104,0.2382,-51.3000,11.4000,24.0000,9.4667,1.5131,1.0654,0.1228,-0.0842,0.1386,-59.1000,25.3500,-14.4000,3.1400,3.9900,-8.3100,0.0022,0.0164,0.0011,-21.8750,-17.3750,22.8750,245.2500,18.6250,-154.2500,0
511.314,9.0621,2.8371,0.2634,0.1700,0.3104,0.2382,-51.3000,11.4000,24.0000,9.5074,1.9632,0.5866,0.0466,-0.1045,0.1673,-60.3000,25.0500,-14.4000,3.1800,3.9100,-8.2900,0.0022,0.0109,-0.0011,-22.2500,-18.1875,22.5000,245.2500,18.6250,-154.2500,0
511.318,9.1578,3.4692,0.4166,0.2758,0.3035,0.2193,-50.8500,12.7500,24.1500,9.5074,1.9632,0.5866,0.0466,-0.1045,0.1673,-60.3000,25.0500,-14.4000,3.1800,3.9100,-8.2900,0.0022,0.0109,-0.0011,-22.2500,-18.1875,22.5000,245.2500,18.6250,-154.2500,0
511.326,9.5457,3.7948,1.1157,0.2529,0.3152,0.1668,-50.8500,12.7500,24.1500,9.7109,1.9513,1.0846,0.0498,-0.1346,0.1852,-60.4500,24.4500,-14.8500,3.1500,3.8900,-8.3200,0.0022,0.0109,-0.0011,-22.2500,-18.1875,22.5000,245.2500,18.6250,-154.2500,0
511.334,9.5457,3.7948,1.1157,0.2041,0.2848,0.1492,-51.7500,11.7000,25.3500,9.6558,1.6783,1.5107,0.0810,-0.1649,0.1817,-60.4500,24.4500,-14.8500,3.1300,4.1200,-8.2800,0.0098,0.0087,-0.0022,-22.2500,-18.1875,22.5000,245.2500,18.6250,-154.2500,0
511.339,9.5672,3.4884,1.2713,0.2041,0.2848,0.1492,-51.7500,11.7000,25.3500,9.6558,1.6783,1.5107,0.0810,-0.1649,0.1817,-60.4500,24.4500,-14.8500,3.1300,4.1200,-8.2800,0.0098,0.0087,-0.0022,-22.2500,-18.1875,22.5000,245.2500,18.6250,-154.2500,0
511.346,9.2249,2.8898,0.7063,0.3464,0.3163,0.2166,-51.7500,11.7000,25.3500,9.7181,1.0343,1.4365,0.0698,-0.1761,0.1825,-60.1500,24.7500,-15.6000,3.1800,3.9900,-8.3000,0.0142,0.0109,-0.0044,-22.2500,-18.1875,22.5000,245.2500,18.6250,-154.2500,0
511.355,9.3374,2.6887,0.3615,0.4922,0.3605,0.2686,-50.2500,12.9000,23.2500,9.8713,1.0104,1.4198,0.0131,-0.2145,0.1908,-60.1500,24.7500,-15.6000,3.2300,3.8600,-8.2900,0.0175,0.0011,-0.0098,-22.2500,-18.1875,22.5000,245.2500,18.6250,-154.2500,0
511.360,9.3374,2.6887,0.3615,0.4922,0.3605,0.2686,-49.9500,11.7000,23.2500,9.9216,1.0989,1.0774,0.0131,-0.2145,0.1908,-60.1500,24.7500,-15.6000,3.2300,3.8600,-8.2900,0.0175,0.0011,-0.0098,-22.2500,-18.1875,22.5000,245.2500,18.6250,-154.2500,0
511.365,9.6678,2.8706,-0.0215,0.5015,0.3147,0.2955,-49.9500,11.7000,23.2500,9.9216,1.0989,1.0774,-0.0533,-0.2302,0.2012,-59.5500,25.0500,-15.1500,3.2100,3.8000,-8.3100,0.0196,-0.0011,-0.0142,-23.0000,-18.1875,23.2500,245.2500,18.6250,-154.2500,0
511.370,9.6678,2.8706,-0.0215,0.5015,0.3147,0.2955,-49.9500,11.7000,25.3500,9.8976,1.2713,1.0056,-0.0533,-0.2302,0.2012,-59.5500,25.0500,-15.1500,3.2100,3.8000,-8.3100,0.0131,0.0033,-0.0164,-23.0000,-18.1875,23.2500,245.2500,18.6250,-154.2500,0
511.376,9.7875,3.2274,0.0670,0.4700,0.2449,0.3038,-50.1000,11.5500,25.2000,9.8976,1.2713,1.0056,-0.0498,-0.2523,0.1916,-59.5500,24.1500,-15.1500,3.1700,3.8300,-8.3800,0.0131,0.0033,-0.0164,-23.0000,-18.1875,23.2500,245.2500,18.6250,-154.2500,0
511.385,9.5098,3.4500,-0.0215,0.5009,0.1908,0.3309,-49.6500,13.5000,25.9500,9.6965,1.4317,0.8236,-0.0282,-0.2457,0.1759,-59.7000,22.8000,-13.8000,3.1600,3.8200,-8.4000,0.0011,0.0164,-0.0153,-23.0000,-18.1875,23.2500,245.2500,18.6250,-154.2500,0
511.390,9.5098,3.4500,-0.0215,0.5009,0.1908,0.3309,-49.6500,13.5000,25.9500,9.6486,1.5419,0.4884,0.0242,-0.2249,0.1703,-59.7000,22.8000,-13.8000,3.1600,3.8200,-8.4000,-0.0098,0.0196,-0.0142,-23.0000,-18.1875,23.2500,245.2500,18.6250,-154.3125,0
511.396,9.3685,3.6368,-0.0335,0.6123,0.1903,0.3645,-49.6500,13.5000,25.9500,9.6486,1.5419,0.4884,0.0242,-0.2249,0.1703,-59.7000,24.7500,-14.8500,3.1700,3.7600,-8.3700,-0.0098,0.0196,-0.0142,-23.0000,-18.1875,23.2500,245.2500,18.6250,-154.3125,0
511.405,9.3254,3.7373,0.1413,0.7389,0.1825,0.3608,-49.6500,13.5000,25.9500,9.6367,1.6951,0.2753,0.0506,-0.2169,0.1687,-61.5000,23.4000,-14.4000,3.1200,3.7300,-8.3400,-0.0218,0.0262,-0.0153,-23.0000,-18.1875,23.2500,245.2500,18.6875,-154.2500,0
511.410,9.3254,3.7373,0.1413,0.7389,0.1825,0.3608,-48.4500,13.6500,25.0500,9.5768,1.7047,0.2298,0.1252,-0.2276,0.1537,-61.5000,23.4000,-14.4000,3.1200,3.7300,-8.3400,-0.0218,0.0262,-0.0153,-23.0000,-18.1875,23.2500,245.2500,18.6875,-154.2500,0
511.415,9.2536,3.5291,0.0982,0.7661,0.2028,0.3597,-48.4500,13.6500,25.0500,9.5768,1.7047,0.2298,0.1252,-0.2276,0.1537,-59.4000,24.7500,-14.2500,3.0800,3.8700,-8.2700,-0.0371,0.0305,-0.0196,-22.6875,-18.1875,23.2500,245.2500,18.6875,-154.2500,0
511.419,9.2536,3.5291,0.0982,0.7661,0.2028,0.3597,-49.6500,13.0500,24.4500,9.4858,1.8124,0.0958,0.1748,-0.2257,0.1452,-59.4000,24.7500,-14.2500,3.0800,3.8700,-8.2700,-0.0371,0.0305,-0.0196,-22.6875,-18.1875,23.2500,245.2500,18.6875,-154.2500,0
511.424,9.1818,3.2537,0.1915,0.7701,0.1617,0.3448,-49.6500,13.0500,24.4500,9.4858,1.8124,0.0958,0.1748,-0.2257,0.1452,-59.4000,24.7500,-14.2500,3.1500,3.9800,-8.2700,-0.0360,0.0327,-0.0196,-22.6875,-18.1875,23.2500,245.2500,18.6875,-154.2500,0
511.429,9.1818,3.2537,0.1915,0.7701,0.1617,0.3448,-49.6500,12.3000,23.8500,9.3541,1.6664,-0.1676,0.2161,-0.2044,0.1442,-59.4000,24.7500,-14.2500,3.1500,3.9800,-8.2700,-0.0360,0.0327,-0.0196,-22.6875,-18.1875,23.2500,245.2500,18.6875,-154.2500,0
511.435,9.2775,2.9568,-0.1077,0.7631,0.1609,0.3243,-51.0000,12.1500,22.9500,9.3541,1.6664,-0.1676,0.2161,-0.2044,0.1442,-60.4500,25.9500,-13.5000,3.1600,3.9100,-8.2600,-0.0316,0.0327,-0.0196,-22.6875,-18.1875,23.2500,245.2500,18.6875,-154.1875,0
511.440,9.2775,2.9568,-0.1077,0.7631,0.1609,0.3243,-51.0000,12.1500,22.9500,9.4858,1.5706,0.3160,0.2553,-0.2041,0.1452,-60.4500,25.9500,-13.5000,3.1600,3.9100,-8.2600,-0.0218,0.0284,-0.0251,-22.6875,-18.1875,23.2500,245.2500,18.6875,-154.1875,0
511.447,9.2919,2.5833,0.0551,0.7517,0.1671,0.2934,-51.0000,12.1500,22.9500,9.7420,1.5874,0.2777,0.2553,-0.2041,0.1452,-60.7500,25.3500,-14.7000,3.1200,4.0000,-8.2200,-0.0218,0.0284,-0.0251,-22.6875,-18.1875,23.2500,245.1875,18.7500,-154.1875,0
511.456,9.2799,2.1787,-0.2586,0.7067,0.1370,0.2990,-51.0000,12.1500,22.9500,9.6007,1.3791,0.3089,0.2308,-0.2190,0.1545,-59.1000,24.1500,-14.7000,3.1300,3.9000,-8.3000,-0.0164,0.0273,-0.0207,-22.6875,-18.1875,23.2500,245.1875,18.7500,-154.1875,0
511.461,9.2249,2.2960,-0.6057,0.6912,0.1186,0.3118,-51.0000,12.1500,22.9500,9.6007,1.3791,0.3089,0.2022,-0.2348,0.1673,-59.1000,24.1500,-14.7000,3.1300,3.9000,-8.3000,-0.0164,0.0273,-0.0207,-22.6875,-18.1875,23.2500,245.1875,18.7500,-154.1875,0
511.466,9.2249,2.2960,-0.6057,0.6912,0.1186,0.3118,-49.9500,13.2000,24.3000,9.6438,1.3551,0.2897,0.2022,-0.2348,0.1673,-61.2000,24.4500,-14.2500,3.1700,3.9000,-8.3000,-0.0185,0.0338,-0.0196,-22.2500,-18.1875,24.0625,245.2500,18.7500,-154.1875,0
511.471,9.3613,2.5498,-0.3974,0.5620,0.1140,0.2992,-49.9500,13.2000,24.3000,9.6438,1.3551,0.2897,0.1756,-0.2284,0.1737,-61.2000,24.4500,-14.2500,3.1700,3.9000,-8.3000,-0.0185,0.0338,-0.0196,-22.2500,-18.1875,24.0625,245.2500,18.7500,-154.1875,0
511.476,9.3613,2.5498,-0.3974,0.5620,0.1140,0.2992,-49.3500,14.2500,24.4500,9.6031,1.3695,0.3328,0.1756,-0.2284,0.1737,-60.4500,22.5000,-14.2500,3.2000,3.9500,-8.2500,-0.0196,0.0305,-0.0218,-22.2500,-18.1875,24.0625,245.2500,18.7500,-154.1250,0
511.481,9.3661,2.7581,-0.2921,0.4207,0.1311,0.3107,-49.3500,14.2500,24.4500,9.6031,1.3695,0.3328,0.1210,-0.2393,0.1868,-60.4500,22.5000,-14.2500,3.2000,3.9500,-8.2500,-0.0175,0.0305,-0.0240,-22.2500,-18.1875,24.0625,245.1875,18.7500,-154.1250,0
511.487,9.3661,2.7581,-0.2921,0.4207,0.1311,0.3107,-49.5000,13.6500,23.5500,9.6391,1.6544,0.1796,0.1029,-0.2513,0.1948,-60.9000,22.5000,-15.3000,3.1300,3.9000,-8.2800,-0.0175,0.0305,-0.0240,-22.2500,-18.1875,24.0625,245.1875,18.7500,-154.1250,0
511.496,9.3709,3.0861,-0.0670,0.3773,0.0909,0.3123,-49.3500,13.5000,23.8500,9.6845,2.2697,-0.0479,0.1362,-0.2459,0.2177,-60.9000,22.5000,-15.3000,3.1900,3.8800,-8.3000,-0.0175,0.0316,-0.0251,-22.2500,-18.1875,24.0625,245.1875,18.7500,-154.1250,0
511.500,9.3901,3.6033,-0.1101,0.3680,0.0687,0.3014,-49.3500,13.5000,23.8500,9.6845,2.2697,-0.0479,0.1362,-0.2459,0.2177,-60.9000,22.5000,-15.3000,3.1900,3.8800,-8.3000,-0.0164,0.0338,-0.0262,-22.2500,-18.1875,24.0625,245.1875,18.7500,-154.1250,0
511.507,9.3901,3.6033,-0.1101,0.3680,0.0687,0.3014,-49.3500,13.5000,23.8500,9.7827,2.5091,0.0766,0.2148,-0.2388,0.2281,-61.0500,24.6000,-13.9500,3.1500,3.8700,-8.3600,-0.0164,0.0338,-0.0262,-22.2500,-18.1875,24.0625,245.1875,18.7500,-154.1250,0
511.512,9.2775,3.6799,0.2705,0.3507,0.0632,0.2761,-49.3500,13.5000,23.8500,9.7827,2.5091,0.0766,0.2148,-0.2388,0.2281,-61.0500,24.6000,-13.9500,3.1500,3.8700,-8.3600,-0.0240,0.0447,-0.0284,-21.8750,-18.5000,24.5000,245.1875,18.8125,-154.0625,0
511.517,9.2775,3.6799,0.2705,0.3507,0.0632,0.2761,-47.1000,13.0500,24.1500,9.6774,1.6855,0.4932,0.4066,-0.2188,0.2049,-61.0500,24.6000,-13.9500,3.1300,3.9900,-8.3500,-0.0240,0.0447,-0.0284,-21.8750,-18.5000,24.5000,245.1875,18.8125,-154.0625,0
511.522,9.3470,3.2441,0.5100,0.3123,0.0927,0.2609,-47.1000,13.0500,24.1500,9.6774,1.6855,0.4932,0.4066,-0.2188,0.2049,-61.0500,24.6000,-13.9500,3.1300,3.9900,-8.3500,-0.0338,0.0524,-0.0240,-21.8750,-18.5000,24.5000,245.1250,18.8125,-154.0625,0
511.527,9.3470,3.2441,0.5100,0.3123,0.0927,0.2609,-49.6500,12.0000,24.1500,9.6678,1.0750,0.8571,0.5244,-0.2134,0.1940,-60.3000,25.0500,-13.6500,3.2200,4.1700,-8.2300,-0.0338,0.0524,-0.0240,-21.8750,-18.5000,24.5000,245.1250,18.8125,-154.0625,0
511.531,9.2512,2.6097,0.5507,0.3517,0.0847,0.2790,-49.6500,12.0000,24.1500,9.6678,1.0750,0.8571,0.5244,-0.2134,0.1940,-60.3000,25.0500,-13.6500,3.2200,4.1700,-8.2300,-0.0338,0.0404,-0.0295,-21.8750,-18.5000,24.5000,245.1250,18.8125,-154.0625,0
511.537,9.2512,2.6097,0.5507,0.3517,0.0847,0.2790,-47.8500,12.0000,24.1500,9.7588,0.9984,0.2131,0.4146,-0.2292,0.2169,-61.5000,24.1500,-16.2000,3.2100,3.6800,-8.3600,-0.0338,0.0404,-0.0295,-21.8750,-18.5000,24.5000,245.1250,18.8125,-154.0625,0
511.546,9.4571,2.2673,0.5267,0.4077,0.0898,0.2971,-49.3500,12.7500,24.1500,10.0078,0.9290,0.4166,0.3805,-0.2595,0.2459,-61.9500,24.4500,-14.5500,3.1200,3.8400,-8.4200,-0.0316,0.0415,-0.0305,-21.8750,-18.5000,24.5000,245.1250,18.8125,-154.0000,0
511.552,9.5409,2.1644,0.3855,0.3608,0.1100,0.3160,-49.3500,12.7500,24.1500,9.9383,1.2953,0.9625,0.3805,-0.2595,0.2459,-61.9500,24.4500,-14.5500,3.1600,3.9600,-8.3100,-0.0327,0.0535,-0.0273,-21.8750,-18.5000,24.5000,245.0625,18.8750,-154.0000,0
511.557,9.5696,2.3032,0.3256,0.3080,0.1210,0.3651,-49.3500,12.7500,24.1500,9.9383,1.2953,0.9625,0.3709,-0.2878,0.2433,-63.0000,24.1500,-14.7000,3.1600,3.9600,-8.3100,-0.0327,0.0535,-0.0273,-21.8750,-18.5000,24.5000,245.0625,18.8750,-154.0000,0
511.562,9.5696,2.3032,0.3256,0.3080,0.1210,0.3651,-49.3500,12.7500,24.1500,9.7181,1.3503,0.4070,0.3709,-0.2878,0.2433,-63.0000,24.1500,-14.7000,3.1600,3.9700,-8.2500,-0.0349,0.0633,-0.0240,-21.8750,-18.1875,23.6875,245.0625,18.8750,-153.9375,0
511.567,9.3015,2.6264,0.2825,0.3195,0.1255,0.3952,-49.3500,12.7500,24.1500,9.7181,1.3503,0.4070,0.3459,-0.3032,0.2366,-63.0000,24.1500,-14.7000,3.1600,3.9700,-8.2500,-0.0349,0.0633,-0.0240,-21.8750,-18.1875,23.6875,245.0625,18.9375,-153.9375,0
511.576,9.2440,2.9592,0.1580,0.3541,0.1396,0.4018,-48.6000,12.0000,24.1500,9.5385,1.3312,-0.0527,0.3629,-0.3040,0.2318,-62.2500,24.1500,-15.9000,3.2500,3.9500,-8.2700,-0.0229,0.0622,-0.0229,-21.8750,-18.1875,23.6875,245.0625,18.9375,-153.9375,0
511.583,9.2440,2.9592,0.1580,0.3541,0.1396,0.4018,-47.8500,12.7500,25.2000,9.3733,1.3815,-0.1844,0.4205,-0.2920,0.2286,-62.2500,24.1500,-15.9000,3.2400,4.0000,-8.2100,0.0000,0.0600,-0.0273,-21.8750,-18.1875,23.6875,245.0625,18.9375,-153.9375,0
511.588,9.0022,3.1244,0.2897,0.4618,0.1351,0.3920,-47.8500,12.7500,25.2000,9.3733,1.3815,-0.1844,0.4205,-0.2920,0.2286,-62.2500,24.1500,-15.9000,3.2400,4.0000,-8.2100,0.0000,0.0600,-0.0273,-21.8750,-18.1875,23.6875,245.0000,18.9375,-153.9375,0
511.596,9.0046,3.0023,0.0742,0.5881,0.1204,0.3786,-47.4000,12.4500,25.8000,9.4332,1.4461,-0.4262,0.4700,-0.2886,0.2292,-59.5500,23.8500,-15.1500,3.2200,4.0100,-8.1300,0.0273,0.0524,-0.0305,-21.8750,-18.1875,23.6875,245.0000,18.9375,-153.9375,0
511.603,9.0046,3.0023,0.0742,0.5881,0.1204,0.3786,-48.0000,13.6500,24.3000,9.5146,1.3048,-0.6081,0.5175,-0.2958,0.2364,-59.5500,23.8500,-15.1500,3.2100,3.8700,-8.2100,0.0502,0.0480,-0.0338,-21.8750,-18.1875,23.6875,245.0000,19.0000,-153.9375,0
511.608,9.0860,2.8299,-0.2466,0.7365,0.0730,0.3613,-48.0000,13.6500,24.3000,9.5146,1.3048,-0.6081,0.5175,-0.2958,0.2364,-62.4000,23.5500,-16.0500,3.2100,3.8700,-8.2100,0.0502,0.0480,-0.0338,-21.8750,-18.1875,23.6875,245.0000,19.0000,-153.9375,0
511.612,9.0860,2.8299,-0.2466,0.7365,0.0730,0.3613,-48.0000,13.6500,24.3000,9.5265,1.3024,-0.8475,0.5574,-0.2814,0.2443,-62.4000,23.5500,-16.0500,3.2300,3.7500,-8.2700,0.0709,0.0415,-0.0327,-22.2500,-18.1875,23.2500,245.0000,19.0000,-154.0000,0
511.617,9.3182,2.9544,-0.4142,0.8705,0.0099,0.3504,-48.0000,13.6500,24.3000,9.5265,1.3024,-0.8475,0.5574,-0.2814,0.2443,-61.5000,24.1500,-16.2000,3.2300,3.7500,-8.2700,0.0709,0.0415,-0.0327,-22.2500,-18.1875,23.2500,245.0000,19.0000,-154.0000,0
511.622,9.3182,2.9544,-0.4142,0.8705,0.0099,0.3504,-47.8500,13.5000,23.4000,9.5337,1.4222,-0.9625,0.5756,-0.2563,0.2579,-61.5000,24.1500,-16.2000,3.2300,3.7500,-8.2700,0.0753,0.0382,-0.0251,-22.2500,-18.1875,23.2500,244.9375,19.0000,-154.0625,0
511.627,9.4810,2.9521,-0.5411,0.9246,-0.0530,0.3275,-47.8500,13.5000,23.4000,9.5337,1.4222,-0.9625,0.5756,-0.2563,0.2579,-60.9000,24.4500,-15.6000,3.2000,3.7100,-8.3300,0.0753,0.0382,-0.0251,-22.2500,-18.1875,23.2500,244.9375,19.0000,-154.0625,0
511.632,9.4810,2.9521,-0.5411,0.9246,-0.0530,0.3275,-48.7500,12.9000,23.2500,9.4284,1.2857,-1.3599,0.5100,-0.2014,0.2627,-60.9000,24.4500,-15.6000,3.2000,3.7100,-8.3300,0.0698,0.0415,-0.0175,-22.2500,-18.1875,23.2500,244.9375,19.0000,-154.0625,0
511.637,9.4643,3.1220,-0.5004,0.9326,-0.0762,0.3035,-48.7500,12.9000,23.2500,9.4284,1.2857,-1.3599,0.5100,-0.2014,0.2627,-62.7000,24.4500,-15.6000,3.1700,3.6900,-8.3800,0.0698,0.0415,-0.0175,-22.2500,-18.1875,23.2500,244.9375,19.0000,-154.0625,0
511.646,9.4475,3.1101,-0.6464,0.9665,-0.1164,0.2777,-49.6500,13.0500,22.3500,9.5409,1.4246,-1.5874,0.4165,-0.1719,0.2595,-61.8000,25.3500,-16.6500,3.2300,3.7300,-8.3900,0.0687,0.0371,-0.0087,-22.2500,-18.1875,23.2500,244.9375,19.0625,-154.1250,0
511.651,9.4475,3.1101,-0.6464,0.9665,-0.1164,0.2777,-49.2000,13.6500,22.9500,9.5624,1.4988,-1.5107,0.2563,-0.1831,0.2483,-61.8000,25.3500,-16.6500,3.2300,3.7300,-8.3900,0.0611,0.0218,0.0087,-22.2500,-18.1875,23.2500,244.9375,19.0625,-154.1875,0
511.657,9.5026,3.1915,-0.9697,0.9920,-0.1479,0.2502,-49.2000,13.6500,22.9500,9.5624,1.4988,-1.5107,0.2563,-0.1831,0.2483,-61.8000,25.3500,-16.6500,3.2100,3.6500,-8.4900,0.0611,0.0218,0.0087,-22.2500,-18.1875,23.2500,244.9375,19.0625,-154.1875,0
511.662,9.5026,3.1915,-0.9697,0.9920,-0.1479,0.2502,-49.2000,13.6500,22.9500,9.6199,1.3910,-1.2833,0.2177,-0.1956,0.2364,-61.8000,25.3500,-16.6500,3.3400,3.6800,-8.5500,0.0491,0.0142,0.0240,-22.2500,-18.5000,23.6875,244.9375,19.0625,-154.2500,0
511.667,9.4284,3.4548,-1.2163,1.0144,-0.2105,0.2297,-49.2000,13.6500,22.9500,9.6199,1.3910,-1.2833,0.2177,-0.1956,0.2364,-61.9500,26.4000,-17.5500,3.3400,3.6800,-8.5500,0.0491,0.0142,0.0240,-22.2500,-18.5000,23.6875,244.9375,19.0625,-154.2500,0
511.672,9.4284,3.4548,-1.2163,1.0144,-0.2105,0.2297,-49.2000,13.6500,22.9500,9.4619,1.3575,-1.2019,0.2409,-0.1210,0.2753,-61.9500,26.4000,-17.5500,3.3400,3.6800,-8.5500,0.0076,0.0251,0.0022,-22.2500,-18.5000,23.6875,244.9375,19.1250,-154.2500,0
511.677,9.4092,3.6392,-1.5610,1.0440,-0.2617,0.1988,-49.2000,13.6500,22.9500,9.4643,1.5706,-1.3671,0.2409,-0.1210,0.2753,-63.0000,25.3500,-18.4500,3.4500,3.7700,-8.5400,0.0076,0.0251,0.0022,-22.2500,-18.5000,23.6875,244.9375,19.1250,-154.2500,0
511.682,9.4092,3.6392,-1.5610,1.0440,-0.2617,0.1988,-50.2500,14.4000,22.5000,9.4643,1.5706,-1.3671,0.1905,-0.1119,0.3038,-63.0000,25.3500,-18.4500,3.4500,3.7700,-8.5400,-0.0513,0.0033,-0.0142,-22.2500,-18.5000,23.6875,244.9375,19.1250,-154.2500,0
511.687,9.1171,3.7565,-1.6807,1.0741,-0.2795,0.1649,-50.2500,14.4000,22.5000,9.3565,1.5514,-1.4605,0.1905,-0.1119,0.3038,-62.5500,24.1500,-18.4500,3.4100,3.6500,-8.5300,-0.0513,0.0033,-0.0142,-22.2500,-18.5000,23.6875,244.9375,19.1250,-154.1875,0
511.696,9.0405,3.6655,-1.8435,1.1215,-0.2761,0.1298,-49.2000,12.4500,23.2500,9.5577,1.7071,-1.5778,0.1247,-0.0448,0.3309,-62.5500,24.6000,-16.2000,3.7600,3.5400,-8.3800,-0.1036,-0.0240,0.0087,-22.2500,-18.5000,23.6875,244.9375,19.1250,-154.1875,0
511.706,9.3326,3.4836,-2.1644,1.1346,-0.2531,0.1018,-48.4500,13.2000,22.2000,9.5912,1.6281,-1.2617,0.0304,0.0197,0.3483,-63.1500,24.7500,-17.5500,3.6100,4.0700,-8.3800,-0.1604,-0.0840,0.0360,-22.2500,-18.5000,23.6875,245.0000,19.0625,-154.1250,0
511.711,9.3326,3.4836,-2.1644,1.1346,-0.2531,0.1018,-48.7500,13.9500,22.5000,9.5912,1.6281,-1.2617,-0.0064,0.0477,0.3584,-63.1500,24.7500,-17.5500,3.6100,4.0700,-8.3800,-0.1604,-0.0840,0.0360,-22.2500,-18.5000,23.6875,245.0625,19.0000,-154.0625,0
511.716,9.1267,3.2848,-2.2649,1.1370,-0.2342,0.0528,-48.7500,13.9500,22.5000,9.5289,1.6281,-1.1588,-0.0064,0.0477,0.3584,-64.0500,23.8500,-17.7000,3.2300,4.1500,-8.5800,-0.1778,-0.1549,0.0305,-22.2500,-18.1875,22.8750,245.0625,19.0000,-154.0625,0
511.721,9.1267,3.2848,-2.2649,1.0968,-0.1793,0.0021,-48.7500,13.9500,22.5000,9.5289,1.6281,-1.1588,0.0557,0.1218,0.3901,-64.0500,23.8500,-17.7000,3.2300,4.1500,-8.5800,-0.1778,-0.1549,0.0305,-22.2500,-18.1875,22.8750,245.0625,18.8750,-154.0000,0
511.726,9.2273,3.2609,-2.5043,1.0968,-0.1793,0.0021,-48.7500,13.9500,22.5000,9.5289,2.0710,-1.1875,0.0365,0.2118,0.4407,-64.0500,23.8500,-17.7000,3.6100,4.4700,-8.3400,-0.0840,-0.2356,-0.0273,-22.2500,-18.1875,22.8750,245.0625,18.8750,-154.0000,0
511.731,9.2273,3.2609,-2.5043,0.9931,-0.1711,-0.0589,-48.7500,13.9500,22.2000,9.5289,2.0710,-1.1875,0.0365,0.2118,0.4407,-64.0500,23.8500,-17.7000,3.6100,4.4700,-8.3400,0.0196,-0.3262,-0.1407,-22.2500,-18.1875,22.8750,245.0625,18.6875,-154.0625,0
511.737,9.1387,3.2250,-2.8036,0.9931,-0.1711,-0.0589,-48.7500,13.9500,22.2000,9.7492,2.5857,-0.9122,-0.0442,0.2603,0.5073,-64.0500,25.0500,-15.9000,4.3200,4.4500,-8.3100,0.0196,-0.3262,-0.1407,-22.2500,-18.1875,22.8750,244.9375,18.4375,-154.0625,0
511.746,9.2105,3.4644,-2.6671,0.8833,-0.1564,-0.1428,-47.1000,13.5000,22.3500,9.8857,2.8922,-0.2203,-0.0645,0.2454,0.5836,-64.0500,25.0500,-15.9000,3.1800,2.3000,-8.8700,0.0753,-0.3305,-0.2313,-22.2500,-18.1875,22.8750,244.9375,18.4375,-154.0625,0
511.756,9.3158,3.7948,-2.3942,0.7901,-0.1476,-0.2286,-48.4500,12.4500,21.9000,9.6151,3.0789,-0.0072,0.0586,0.3120,0.6835,-62.4000,24.4500,-16.8000,3.5500,2.8400,-9.0600,0.0611,-0.2487,-0.3382,-22.2500,-18.1875,22.8750,244.8125,18.2500,-154.0625,0
511.761,9.5624,3.9169,-2.0351,0.7210,-0.1410,-0.3056,-47.4000,15.1500,21.9000,9.6151,3.0789,-0.0072,0.0586,0.3120,0.6835,-62.4000,24.4500,-16.8000,3.5500,2.8400,-9.0600,0.0611,-0.2487,-0.3382,-22.2500,-18.1875,22.8750,244.6250,18.0625,-154.0625,0
511.766,9.5624,3.9169,-2.0351,0.7210,-0.1410,-0.3056,-47.4000,15.1500,21.9000,9.7085,3.3782,-0.0742,0.1383,0.3539,0.7552,-62.4000,24.4500,-16.8000,3.8100,3.4600,-9.1800,0.1298,-0.1942,-0.3731,-21.5625,-17.7500,22.0625,244.6250,18.0625,-154.0625,0
511.771,9.3829,4.0725,-1.5419,0.6928,-0.1471,-0.3842,-47.4000,15.1500,21.9000,9.7085,3.3782,-0.0742,0.1383,0.3539,0.7552,-63.9000,24.0000,-16.0500,3.8100,3.4600,-9.1800,0.1298,-0.1942,-0.3731,-21.5625,-17.7500,22.0625,244.3750,17.8750,-154.1875,0
511.776,9.3829,4.0725,-1.5419,0.6928,-0.1471,-0.3842,-47.4000,15.1500,21.9000,9.9383,2.9975,-0.0862,0.3344,0.3909,0.7874,-64.0500,24.0000,-16.0500,3.8800,5.5400,-8.6600,0.2542,-0.1538,-0.4342,-21.5625,-17.7500,22.0625,244.3750,17.8750,-154.1875,0
511.781,9.7348,4.0438,-0.8068,0.6374,-0.1348,-0.4189,-47.4000,15.1500,21.9000,9.9383,2.9975,-0.0862,0.3344,0.3909,0.7874,-64.0500,23.4000,-17.4000,3.8800,5.5400,-8.6600,0.4254,-0.2051,-0.4811,-21.5625,-17.7500,22.0625,244.0625,17.6250,-154.3750,0
511.787,9.7348,4.0438,-0.8068,0.6374,-0.1348,-0.4189,-47.4000,15.1500,21.9000,10.0126,2.4014,-0.2610,0.5151,0.4058,0.7626,-63.3000,23.4000,-16.2000,3.3300,5.7600,-8.2700,0.4254,-0.2051,-0.4811,-21.5625,-17.7500,22.0625,243.7500,17.4375,-154.5625,0
511.797,9.6319,3.8403,0.0024,0.6776,-0.1188,-0.4402,-47.5500,15.3000,22.0500,10.0652,1.2282,-0.4142,0.7096,0.4503,0.7048,-63.3000,23.4000,-16.2000,2.9500,5.9600,-8.1100,0.5629,-0.1691,-0.5203,-21.5625,-17.7500,22.0625,243.4375,17.3125,-154.9375,0
511.806,9.6367,3.5961,0.5794,0.7682,-0.0514,-0.4269,-46.2000,13.9500,21.4500,10.1466,0.0239,-0.2251,0.8625,0.5007,0.6411,-63.3000,23.4000,-16.2000,3.7000,5.4100,-8.9200,0.7374,-0.0011,-0.4952,-21.5625,-17.7500,22.0625,243.4375,17.3125,-154.9375,0
511.811,9.4858,3.0957,0.8811,0.8788,0.0218,-0.3986,-46.5000,15.3000,21.6000,10.2615,-0.9218,3.3184,0.8625,0.5007,0.6411,-63.0000,25.0500,-15.1500,3.7000,5.4100,-8.9200,0.7374,-0.0011,-0.4952,-21.5625,-17.7500,22.0625,243.4375,17.3125,-154.9375,0
511.816,9.4858,3.0957,0.8811,0.8788,0.0218,-0.3986,-46.5000,15.3000,21.6000,10.2615,-0.9218,3.3184,1.1714,0.5284,0.5966,-63.0000,25.0500,-15.1500,4.0200,3.8300,-8.0700,0.9218,0.0033,-0.3796,-21.1875,-18.5000,22.8750,243.1250,17.2500,-155.3750,0
511.821,9.7899,2.6695,0.8140,1.0917,0.1199,-0.3661,-47.4000,16.6500,21.4500,8.7269,3.0550,-0.3855,1.1714,0.5284,0.5966,-63.0000,25.0500,-15.1500,4.0200,3.8300,-8.0700,0.9218,0.0033,-0.3796,-21.1875,-18.5000,22.8750,243.1250,17.2500,-155.3750,0
511.826,9.7899,2.6695,0.8140,1.0917,0.1199,-0.3661,-47.4000,16.6500,21.4500,8.7269,3.0550,-0.3855,1.1266,0.7232,0.5955,-63.0000,25.0500,-15.1500,5.1800,7.5400,-9.0200,1.1126,0.0033,-0.1178,-21.1875,-18.5000,22.8750,242.9375,17.1875,-155.9375,0
511.831,10.6973,2.5809,0.7805,1.2873,0.1444,-0.2992,-47.4000,16.6500,21.4500,10.8362,4.8650,-0.7254,1.1266,0.7232,0.5955,-63.9000,23.2500,-14.8500,5.1800,7.5400,-9.0200,1.1017,0.3054,-0.9043,-21.1875,-18.5000,22.8750,242.3125,17.1875,-156.4375,0
511.837,10.3669,2.9616,0.2897,1.4693,0.1583,-0.2649,-47.4000,16.6500,21.4500,10.8362,4.8650,-0.7254,0.0448,0.6243,0.5756,-63.9000,23.2500,-14.8500,10.4700,19.5200,-11.9100,1.1017,0.3054,-0.9043,-21.1875,-18.5000,22.8750,240.5625,16.4375,-156.8750,0
511.847,10.3669,2.9616,0.2897,1.4693,0.1583,-0.2649,-46.6500,14.7000,21.1500,11.4802,6.0908,-1.6017,0.8503,0.5111,0.6187,-63.7500,24.1500,-14.7000,-5.7900,11.1300,2.3700,1.5828,-0.1484,-2.9736,-21.1875,-18.5000,22.8750,240.5625,16.4375,-156.8750,0
511.857,8.9639,4.1683,-1.2713,1.4847,0.1972,-0.4005,-47.1000,15.7500,20.2500,9.4379,8.0445,1.4174,1.9652,0.6432,0.5673,-65.8500,22.0500,-16.0500,-7.3900,6.2800,6.3600,1.5468,0.2989,-3.0674,-21.1875,-18.5000,22.8750,238.6875,15.9375,-157.2500,0
511.861,8.9639,4.1683,-1.2713,1.4847,0.1972,-0.4005,-46.8000,16.5000,20.2500,8.6095,8.1618,2.2625,3.0699,0.7592,0.4676,-64.6500,22.8000,-14.8500,-7.3900,6.2800,6.3600,1.5468,0.2989,-3.0674,-21.1875,-18.5000,22.8750,236.3750,17.0000,-157.1875,0
511.866,8.7269,4.7980,-1.0487,1.3835,0.2401,-0.4647,-46.8000,16.5000,20.2500,8.6095,8.1618,2.2625,3.0699,0.7592,0.4676,-64.6500,22.8000,-14.8500,3.4900,5.7500,-5.2800,1.2075,3.4187,-3.2594,-21.1875,-18.1875,23.6875,236.3750,17.0000,-157.1875,0
511.871,8.7269,4.7980,-1.0487,1.3835,0.2401,-0.4647,-46.0500,16.0500,21.3000,7.9440,6.9743,2.5690,4.3074,0.9049,0.3499,-66.0000,24.1500,-16.2000,3.4900,5.7500,-5.2800,1.2075,3.4187,-3.2594,-21.1875,-18.1875,23.6875,236.3750,17.0000,-157.1875,0
511.876,8.4396,5.1140,-0.3783,1.4434,0.3592,-0.4714,-46.0500,16.0500,21.3000,7.9440,6.9743,2.5690,4.3074,0.9049,0.3499,-66.0000,24.1500,-16.2000,8.3300,9.8100,-7.7200,0.7123,3.3892,-3.5605,-21.1875,-18.1875,23.6875,234.0000,17.9375,-156.8125,0
511.881,8.4396,5.1140,-0.3783,1.4434,0.3592,-0.4714,-46.0500,16.0500,21.3000,8.4156,5.0781,3.1627,4.9658,1.0547,0.2177,-65.2500,24.6000,-15.4500,8.3300,9.8100,-7.7200,0.8923,1.8206,-3.9663,-21.1875,-18.1875,23.6875,231.5000,18.0000,-156.5000,0
511.887,8.0469,5.3199,0.1030,1.6326,0.4016,-0.4746,-46.0500,16.0500,21.3000,8.4156,5.0781,3.1627,4.9658,1.0547,0.2177,-65.2500,24.6000,-15.4500,-0.6200,8.9100,-5.7200,0.8923,1.8206,-3.9663,-21.1875,-18.1875,23.6875,228.8750,18.3125,-156.5000,0
511.897,8.0613,5.5306,0.4812,2.0057,0.4706,-0.4930,-46.0500,16.0500,21.3000,9.6750,3.5171,3.1819,5.5312,1.1298,0.1873,-65.2500,24.6000,-15.4500,7.7400,6.4400,-6.7100,1.5730,2.4173,-4.0306,-21.1875,-18.1875,23.6875,226.3125,18.6250,-156.5000,0
511.907,7.9152,5.5450,0.9936,2.5111,0.5449,-0.5217,-46.6500,17.4000,17.8500,10.0126,1.5562,3.7182,5.5504,1.1562,0.1943,-65.4000,24.7500,-16.8000,1.6500,4.0500,-6.6800,1.4203,2.2766,-3.8474,-21.1875,-18.1875,23.6875,226.3125,18.6250,-156.5000,0
511.912,7.9152,5.5450,0.9936,2.5111,0.5449,-0.5217,-46.6500,17.4000,17.8500,9.8090,-0.5650,3.6057,5.4212,1.0893,0.1921,-64.8000,26.1000,-19.5000,1.6500,4.0500,-6.6800,1.4203,2.2766,-3.8474,-21.1875,-18.1875,23.6875,223.8750,18.9375,-156.5000,0
511.917,8.0038,5.4324,1.2067,2.9356,0.6768,-0.5446,-46.0500,18.3000,19.9500,9.8090,-0.5650,3.6057,5.4212,1.0893,0.1921,-64.8000,26.1000,-19.5000,2.6400,2.9500,-6.9000,1.4475,2.1631,-3.7405,-20.0625,-20.3750,20.0625,223.8750,18.9375,-156.5000,0
511.921,8.0038,5.4324,1.2067,2.9356,0.6768,-0.5446,-46.0500,18.3000,19.9500,9.4451,-2.0734,2.8515,4.7492,0.9553,0.1604,-65.1000,27.1500,-20.8500,2.6400,2.9500,-6.9000,1.4475,2.1631,-3.7405,-20.0625,-20.3750,20.0625,221.5625,19.1875,-156.3750,0
511.927,8.1092,5.1571,1.5371,3.2708,0.7751,-0.5601,-45.1500,18.4500,17.2500,9.7157,-3.1244,2.4732,4.7492,0.9553,0.1604,-65.1000,27.1500,-20.8500,3.8900,2.6400,-7.8100,1.2894,2.1249,-3.5387,-20.0625,-20.3750,20.0625,221.5625,19.1875,-156.3750,0
511.935,8.5832,4.5729,2.0255,3.4491,0.9025,-0.5569,-45.1500,18.4500,17.2500,9.7157,-3.1244,2.4732,3.8613,0.7274,0.1426,-64.5000,27.0000,-19.9500,2.8300,2.2900,-8.2500,1.1672,1.8577,-3.2474,-20.0625,-20.3750,20.0625,219.4375,19.4375,-156.3125,0
511.939,8.5832,4.5729,2.0255,3.4491,0.9025,-0.5569,-45.1500,18.4500,17.2500,9.7779,-3.0239,2.0255,2.8813,0.4381,0.1697,-64.5000,28.0500,-19.9500,2.8300,2.2900,-8.2500,1.1672,1.8577,-3.2474,-20.0625,-20.3750,20.0625,217.5000,19.6250,-156.2500,0
511.947,9.2201,3.8235,2.3391,3.4760,1.0006,-0.5287,-46.0500,18.3000,15.9000,9.7252,-2.5905,1.7358,1.9604,0.1809,0.1948,-64.5000,28.0500,-19.9500,2.6200,1.6400,-8.4800,1.0548,1.6581,-2.9147,-20.0625,-20.3750,20.0625,215.8750,19.8125,-156.1875,0
511.957,9.7707,2.9066,2.1596,3.4126,1.0315,-0.4930,-47.1000,19.0500,14.2500,9.6199,-1.7238,1.6209,1.2470,-0.0157,0.2025,-65.1000,27.1500,-20.8500,2.4600,1.5300,-8.5300,0.9152,1.4726,-2.5307,-20.0625,-20.3750,20.0625,215.8750,19.8125,-156.1875,0
511.962,9.7707,2.9066,2.1596,3.4126,1.0315,-0.4930,-47.1000,19.0500,14.2500,9.6199,-1.7238,1.6209,1.2470,-0.0157,0.2025,-65.1000,27.1500,-20.8500,2.4600,1.5300,-8.5300,0.9152,1.4726,-2.5307,-20.0625,-20.3750,20.0625,214.4375,19.9375,-156.1250,0
511.967,9.7013,2.1332,1.6544,3.3518,0.9643,-0.4628,-45.7500,19.5000,14.8500,9.5648,-0.6584,1.4389,0.7288,-0.1516,0.1543,-65.1000,27.1500,-20.8500,2.1900,1.6400,-8.5500,0.7385,1.2435,-2.1184,-18.0000,-24.2500,18.5000,214.4375,19.9375,-156.1250,0
511.972,9.7013,2.1332,1.6544,3.3518,0.9643,-0.4628,-45.7500,19.5000,14.8500,9.5648,-0.6584,1.4389,0.7288,-0.1516,0.1543,-67.5000,28.5000,-20.7000,2.1900,1.6400,-8.5500,0.7385,1.2435,-2.1184,-18.0000,-24.2500,18.5000,213.3125,20.0625,-156.0000,0
511.977,9.7971,1.3767,0.9002,3.3276,0.9137,-0.4565,-45.1500,18.1500,13.3500,9.5648,0.0599,1.1349,0.4924,-0.2406,0.0741,-67.5000,28.5000,-20.7000,2.2100,2.5800,-8.7000,0.5531,1.0123,-1.7159,-18.0000,-24.2500,18.5000,213.3125,20.0625,-156.0000,0
511.982,9.7971,1.3767,0.9002,3.3276,0.9137,-0.4565,-45.1500,18.1500,13.3500,9.5648,0.0599,1.1349,0.4924,-0.2406,0.0741,-66.3000,27.0000,-22.2000,2.2100,2.5800,-8.7000,0.3796,0.7570,-1.3592,-18.0000,-24.2500,18.5000,212.4375,20.1875,-155.8750,0
511.988,9.6822,0.7039,0.0431,3.2333,0.8244,-0.4714,-45.1500,18.1500,13.3500,9.3637,0.4334,1.0774,0.4242,-0.2902,-0.0293,-66.3000,27.0000,-22.2000,2.1600,3.1200,-8.5600,0.3796,0.7570,-1.3592,-18.0000,-24.2500,18.5000,211.8125,20.1875,-155.7500,0
511.997,9.5577,0.3759,-0.5578,3.1083,0.7381,-0.4850,-45.1500,18.1500,13.3500,9.2273,0.8739,0.9888,0.4650,-0.3371,-0.1404,-64.0500,26.1000,-21.0000,2.4000,3.8500,-8.5000,0.1942,0.5225,-1.0723,-18.0000,-24.2500,18.5000,211.8125,20.1875,-155.7500,0
512.007,9.6510,0.0622,-0.8978,2.9655,0.6432,-0.5033,-47.4000,18.9000,11.5500,9.2464,1.0918,0.8667,0.5417,-0.3874,-0.2377,-65.8500,27.4500,-21.9000,2.3500,5.5100,-7.6100,0.0229,0.2531,-0.8999,-18.0000,-24.2500,18.5000,211.2500,20.1250,-155.5625,0
512.012,9.4667,-0.1963,-0.9697,2.8043,0.5622,-0.5185,-47.4000,18.9000,11.5500,9.2464,1.0918,0.8667,0.5417,-0.3874,-0.2377,-64.6500,27.4500,-20.8500,2.3500,5.5100,-7.6100,0.0229,0.2531,-0.8999,-18.0000,-24.2500,18.5000,210.8125,19.9375,-155.3750,0
512.017,9.4667,-0.1963,-0.9697,2.8043,0.5622,-0.5185,-47.5500,18.3000,10.2000,9.3326,1.3791,0.8140,0.6923,-0.4263,-0.3158,-64.6500,27.4500,-20.8500,1.9200,5.8800,-6.8600,-0.0862,0.0360,-0.8301,-15.5625,-26.3750,17.6875,210.8125,19.9375,-155.3750,0
512.022,9.4188,-0.1772,-0.8643,2.6883,0.5609,-0.5079,-47.5500,18.3000,10.2000,9.3326,1.3791,0.8140,0.6923,-0.4263,-0.3158,-65.4000,27.1500,-20.8500,1.9200,5.8800,-6.8600,-0.0862,0.0360,-0.8301,-15.5625,-26.3750,17.6875,210.8125,19.9375,-155.3750,0
512.027,9.4188,-0.1772,-0.8643,2.6883,0.5609,-0.5079,-44.8500,18.1500,10.0500,9.3733,1.7382,0.9218,0.9044,-0.4578,-0.3864,-65.4000,27.1500,-20.8500,1.6400,6.1400,-6.2500,-0.1778,-0.0404,-0.8388,-15.5625,-26.3750,17.6875,210.3750,19.7500,-155.1250,0
512.035,9.6893,-0.0622,-0.8428,2.5210,0.5790,-0.4764,-46.2000,18.9000,9.3000,9.3039,1.9369,0.8068,1.1855,-0.4778,-0.4610,-65.4000,27.1500,-20.8500,1.7200,6.5600,-6.0300,-0.2814,0.0087,-0.9327,-15.5625,-26.3750,17.6875,209.8750,19.5000,-154.8125,0
512.039,9.6893,-0.0622,-0.8428,2.5210,0.5790,-0.4764,-46.2000,18.9000,9.3000,9.3039,1.9369,0.8068,1.1855,-0.4778,-0.4610,-65.4000,27.1500,-20.8500,1.7200,6.5600,-6.0300,-0.2814,0.0087,-0.9327,-15.5625,-26.3750,17.6875,209.2500,19.3125,-154.4375,0
512.047,9.7636,0.0886,-0.9098,2.3100,0.5620,-0.4748,-46.2000,18.9000,9.3000,9.3589,2.0231,0.8428,1.5194,-0.4866,-0.5327,-64.6500,27.4500,-22.3500,1.9300,7.3800,-5.8500,-0.3360,0.1178,-1.1181,-15.5625,-26.3750,17.6875,208.5000,19.1250,-154.0000,0
512.057,9.4284,0.1413,-1.0415,2.0701,0.5247,-0.4980,-45.3000,19.5000,7.8000,9.5002,2.0542,0.7063,1.8490,-0.4860,-0.5881,-64.6500,27.4500,-22.3500,2.1100,7.3800,-5.9100,-0.3338,0.2716,-1.3668,-15.5625,-26.3750,17.6875,208.5000,19.1250,-154.0000,0
512.062,9.3446,0.1844,-1.3072,1.7757,0.5097,-0.5295,-45.3000,19.5000,7.8000,9.6750,1.8220,0.7470,1.8490,-0.4860,-0.5881,-65.4000,28.6500,-21.6000,2.1100,7.3800,-5.9100,-0.3338,0.2716,-1.3668,-15.5625,-26.3750,17.6875,207.5625,18.9375,-153.4375,0
512.067,9.3446,0.1844,-1.3072,1.7757,0.5097,-0.5295,-45.4500,20.4000,7.2000,9.6750,1.8220,0.7470,2.1642,-0.4898,-0.6235,-65.4000,28.6500,-21.6000,2.3100,7.2900,-5.9900,-0.3240,0.4461,-1.6679,-15.3750,-27.8750,16.7500,207.5625,18.9375,-153.4375,0
512.072,9.3039,0.3232,-1.5706,1.4591,0.4927,-0.5673,-45.4500,20.4000,7.2000,9.8282,1.5754,0.7949,2.3992,-0.5060,-0.6467,-65.4000,29.8500,-24.9000,2.3100,7.2900,-5.9900,-0.3240,0.4461,-1.6679,-15.3750,-27.8750,16.7500,206.3750,18.7500,-152.9375,0
512.077,9.3039,0.3232,-1.5706,1.4591,0.4927,-0.5673,-44.4000,19.2000,6.1500,9.8282,1.5754,0.7949,2.3992,-0.5060,-0.6467,-65.4000,29.8500,-24.9000,2.7300,6.8200,-6.2600,-0.2989,0.6381,-1.9875,-15.3750,-27.8750,16.7500,206.3750,18.7500,-152.9375,0
512.082,9.3948,0.5746,-1.6783,1.1799,0.4882,-0.5806,-44.4000,19.2000,6.1500,9.8617,1.2665,0.7422,2.6103,-0.5041,-0.6622,-65.4000,27.9000,-24.9000,2.7300,6.8200,-6.2600,-0.2662,0.8323,-2.2744,-15.3750,-27.8750,16.7500,205.0625,18.5625,-152.3125,0
512.088,9.3948,0.5746,-1.6783,1.1799,0.4882,-0.5806,-45.0000,19.5000,6.3000,9.8617,1.2665,0.7422,2.6103,-0.5041,-0.6622,-65.4000,27.9000,-24.9000,2.9000,6.5300,-6.4900,-0.2662,0.8323,-2.2744,-15.3750,-27.8750,16.7500,203.5625,18.4375,-151.6875,0
512.097,9.4643,0.9457,-1.5107,0.9715,0.5239,-0.5838,-45.1500,18.4500,5.8500,9.9216,0.9505,0.9122,2.7624,-0.5095,-0.6704,-64.6500,28.6500,-26.1000,3.1400,6.2300,-6.7300,-0.2269,1.0145,-2.5187,-15.3750,-27.8750,16.7500,203.5625,18.4375,-151.6875,0
512.107,9.3637,1.2402,-1.3695,0.8092,0.5351,-0.5833,-45.1500,18.4500,5.8500,9.9024,0.6057,1.0271,2.8837,-0.5252,-0.6901,-64.6500,28.6500,-26.1000,3.9500,5.8000,-7.4600,-0.2138,1.1683,-2.7238,-15.3750,-27.8750,16.7500,201.8750,18.2500,-151.0000,0
512.112,9.5385,1.4964,-1.3575,0.6845,0.5822,-0.5729,-45.1500,18.4500,5.8500,9.9335,0.3400,1.0008,2.9074,-0.5316,-0.7011,-65.8500,29.1000,-27.1500,3.9500,5.8000,-7.4600,-0.2138,1.1683,-2.7238,-15.3750,-27.8750,16.7500,201.8750,18.2500,-151.0000,0
512.117,9.5385,1.4964,-1.3575,0.6845,0.5822,-0.5729,-44.5500,19.5000,6.7500,9.9335,0.3400,1.0008,2.9074,-0.5316,-0.7011,-65.8500,29.1000,-27.1500,4.2900,5.6400,-7.7400,-0.2062,1.2599,-2.9158,-12.2500,-30.7500,15.8750,200.1250,18.0625,-150.3125,0
512.122,9.4954,1.7119,-1.3431,0.6035,0.6273,-0.5641,-44.5500,19.5000,6.7500,9.9479,0.0766,0.9720,2.8956,-0.5526,-0.7208,-65.8500,29.1000,-27.1500,4.2900,5.6400,-7.7400,-0.2062,1.2599,-2.9158,-12.2500,-30.7500,15.8750,200.1250,18.0625,-150.3125,0
512.127,9.4954,1.7119,-1.3431,0.6035,0.6273,-0.5641,-44.8500,19.6500,7.6500,9.9479,0.0766,0.9720,2.8956,-0.5526,-0.7208,-65.8500,29.1000,-27.1500,4.3100,5.2800,-7.7700,-0.1582,1.2774,-3.0500,-12.2500,-30.7500,15.8750,198.2500,17.8125,-149.6250,0
512.133,9.4332,1.8100,-1.3671,0.5889,0.6534,-0.5351,-43.9500,19.8000,6.7500,9.8330,-0.0838,0.7542,2.8482,-0.5620,-0.7272,-64.5000,29.2500,-28.0500,4.4100,4.8500,-7.8200,-0.1178,1.3112,-3.1132,-12.2500,-30.7500,15.8750,196.3750,17.5625,-149.0000,0
512.138,9.2895,2.1500,-1.4054,0.6190,0.6387,-0.5153,-43.9500,19.8000,6.7500,9.8881,-0.2418,0.7135,2.8482,-0.5620,-0.7272,-64.5000,29.2500,-28.0500,4.4100,4.8500,-7.8200,-0.1178,1.3112,-3.1132,-12.2500,-30.7500,15.8750,194.4375,17.3125,-148.3750,0
512.147,9.1243,2.4852,-1.5203,0.6734,0.6131,-0.4820,-44.4000,20.4000,6.1500,9.8881,-0.2418,0.7135,2.7984,-0.5606,-0.7237,-64.5000,28.9500,-28.5000,4.9100,4.1200,-7.8100,-0.1014,1.3494,-3.1340,-12.2500,-30.7500,15.8750,194.4375,17.3125,-148.3750,0
512.157,8.8729,2.8946,-1.5443,0.7975,0.6297,-0.4493,-44.4000,20.4000,6.1500,9.6678,0.2274,1.1085,2.7875,-0.5660,-0.7147,-63.4500,31.0500,-27.9000,4.7200,3.8300,-7.6100,-0.0894,1.3275,-3.1165,-12.2500,-30.7500,15.8750,192.5000,17.0625,-147.7500,0
512.162,8.8729,2.8946,-1.5443,0.7975,0.6297,-0.4493,-44.4000,20.4000,6.1500,9.6678,0.2274,1.1085,2.6303,-0.6155,-0.6592,-61.5000,30.0000,-30.3000,4.7200,3.8300,-7.6100,-0.0894,1.3275,-3.1165,-12.2500,-30.7500,15.8750,190.5625,16.7500,-147.1250,0
512.167,8.6119,3.3758,-1.5634,0.9012,0.5926,-0.4186,-44.1000,19.2000,6.4500,9.7420,-0.5962,0.7757,2.6303,-0.6155,-0.6592,-61.5000,30.0000,-30.3000,4.5000,3.2800,-7.7900,-0.0436,1.3537,-3.0598,-8.8750,-32.2500,13.0625,190.5625,16.7500,-147.1250,0
512.172,8.6119,3.3758,-1.5634,0.9012,0.5926,-0.4186,-44.1000,19.2000,6.4500,9.7420,-0.5962,0.7757,2.6300,-0.6427,-0.5769,-64.3500,29.5500,-30.4500,4.5000,3.2800,-7.7900,-0.0436,1.3537,-3.0598,-8.8750,-32.2500,13.0625,190.5625,16.7500,-147.1250,0
512.177,8.3606,3.6775,-1.6712,0.9465,0.5375,-0.4085,-44.4000,19.6500,7.6500,9.6343,-0.6919,1.0942,2.6300,-0.6427,-0.5769,-64.3500,29.5500,-30.4500,3.7500,2.2600,-8.1800,0.0185,1.3701,-3.0161,-8.8750,-32.2500,13.0625,188.6875,16.5000,-146.6250,0
512.182,8.3606,3.6775,-1.6712,0.9465,0.5375,-0.4085,-44.4000,19.6500,7.6500,9.6343,-0.6919,1.0942,2.6049,-0.6718,-0.4748,-62.7000,30.6000,-31.9500,3.7500,2.2600,-8.1800,0.0884,1.4617,-3.0031,-8.8750,-32.2500,13.0625,186.7500,16.2500,-146.1250,0
512.188,8.0062,3.8188,-1.4796,0.9425,0.5375,-0.3712,-42.7500,19.8000,6.7500,9.4954,-1.0750,0.8021,2.3806,-0.6915,-0.4013,-62.7000,30.6000,-31.9500,4.2500,1.6600,-8.6900,0.0884,1.4617,-3.0031,-8.8750,-32.2500,13.0625,184.8750,16.0625,-145.6875,0
512.197,8.2097,3.5027,-1.1827,0.8068,0.5907,-0.3035,-43.6500,19.2000,6.4500,9.4930,-1.6616,0.6297,2.3289,-0.6773,-0.3395,-62.7000,30.6000,-31.9500,4.3700,1.1300,-8.7800,0.1702,1.5370,-2.9005,-8.8750,-32.2500,13.0625,184.8750,16.0625,-145.6875,0
512.207,7.9416,3.0789,-0.8859,0.8021,0.7029,-0.1764,-42.9000,19.2000,5.1000,9.4260,-1.9609,0.7230,2.2015,-0.6648,-0.3094,-62.7000,30.6000,-33.4500,5.3300,1.3500,-8.9500,0.1713,1.4944,-2.6998,-8.8750,-32.2500,13.0625,183.1250,15.8750,-145.3125,0
512.212,7.9416,3.0789,-0.8859,0.8021,0.7029,-0.1764,-42.9000,19.2000,5.1000,9.4260,-1.9609,0.7230,2.2015,-0.6648,-0.3094,-64.5000,29.7000,-33.3000,5.3300,1.3500,-8.9500,0.1713,1.4944,-2.6998,-8.8750,-32.2500,13.0625,181.5000,15.7500,-144.9375,0
512.217,8.2528,2.5738,-0.8284,0.9078,0.8921,-0.0221,-42.9000,19.2000,5.1000,9.3254,-1.9752,0.8092,1.9931,-0.6456,-0.3019,-64.5000,29.7000,-33.3000,5.5300,1.4500,-8.7500,0.1658,1.3864,-2.4631,-5.1875,-33.7500,12.5625,181.5000,15.7500,-144.9375,0
512.222,8.2528,2.5738,-0.8284,0.9078,0.8921,-0.0221,-42.9000,19.9500,7.2000,9.3254,-1.9752,0.8092,1.9931,-0.6456,-0.3019,-63.9000,30.6000,-34.2000,5.5300,1.4500,-8.7500,0.1658,1.3864,-2.4631,-5.1875,-33.7500,12.5625,180.0625,15.5625,-144.6250,0
512.227,8.4491,2.1691,-0.8404,1.1213,0.9673,0.1023,-42.9000,19.9500,7.2000,9.2680,-1.9393,0.9505,1.8050,-0.6027,-0.3043,-63.9000,30.6000,-34.2000,5.3600,1.5100,-8.4900,0.1767,1.2435,-2.2417,-5.1875,-33.7500,12.5625,180.0625,15.5625,-144.6250,0
512.234,8.4491,2.1691,-0.8404,1.2828,0.9883,0.2068,-44.4000,18.1500,5.8500,9.2680,-1.9393,0.9505,1.8050,-0.6027,-0.3043,-61.9500,30.3000,-34.2000,5.2200,1.5900,-8.1900,0.1920,1.1225,-2.0508,-5.1875,-33.7500,12.5625,178.6875,15.4375,-144.3750,0
512.238,8.9711,1.7980,-0.8452,1.2828,0.9883,0.2068,-44.4000,18.1500,5.8500,9.2201,-1.7214,0.5770,1.6214,-0.5692,-0.2995,-61.9500,30.3000,-34.2000,5.2200,1.5900,-8.1900,0.1920,1.1225,-2.0508,-5.1875,-33.7500,12.5625,177.4375,15.2500,-144.1875,0
512.247,9.0333,1.5467,-0.8140,1.3408,1.0192,0.3176,-43.6500,17.7000,5.4000,9.0860,-1.7693,0.7446,1.5143,-0.5407,-0.2928,-62.5500,30.4500,-35.1000,4.9700,1.6200,-7.7300,0.2018,1.0450,-1.9090,-5.1875,-33.7500,12.5625,177.4375,15.2500,-144.1875,0
512.257,9.2392,1.3264,-1.0846,1.3915,1.0387,0.4191,-43.5000,18.3000,4.2000,9.0190,-1.5538,1.0032,1.4922,-0.5095,-0.2774,-62.2500,29.2500,-36.6000,5.0200,1.6900,-7.6900,0.2007,1.0199,-1.8097,-5.1875,-33.7500,12.5625,176.2500,15.1250,-144.0000,0
512.262,9.2392,1.3264,-1.0846,1.3915,1.0387,0.4191,-43.5000,18.3000,4.2000,9.0190,-1.5538,1.0032,1.4922,-0.5095,-0.2774,-62.2500,29.2500,-36.6000,5.0200,1.6900,-7.6900,0.2007,1.0199,-1.8097,-5.1875,-33.7500,12.5625,176.2500,15.1250,-144.0000,0
512.267,9.3877,1.2019,-1.0175,1.3755,0.9569,0.4754,-43.5000,18.3000,4.2000,8.9567,-1.5419,0.9433,1.4133,-0.4876,-0.2582,-62.2500,29.2500,-36.6000,5.3700,1.6300,-7.9400,0.1745,1.0756,-1.7235,-2.3750,-33.5000,11.7500,175.0625,15.0625,-143.7500,0
512.272,9.3877,1.2019,-1.0175,1.3755,0.9569,0.4754,-42.0000,18.0000,5.2500,8.9567,-1.5419,0.9433,1.4133,-0.4876,-0.2582,-61.0500,30.4500,-36.1500,5.3700,1.6300,-7.9400,0.1745,1.0756,-1.7235,-2.3750,-33.5000,11.7500,175.0625,15.0625,-143.7500,0
512.277,9.3470,1.1923,-0.9697,1.3214,0.8532,0.4999,-42.0000,18.0000,5.2500,8.9639,-1.5874,0.8404,1.3891,-0.4386,-0.2230,-61.0500,30.4500,-36.1500,5.8500,1.2000,-8.2400,0.1320,1.0766,-1.6613,-2.3750,-33.5000,11.7500,173.9375,15.0000,-143.5625,0
512.282,9.3541,1.2067,-1.0199,1.1551,0.6744,0.5108,-42.4500,18.0000,5.7000,8.9735,-1.6807,0.6680,1.3891,-0.4386,-0.2230,-61.0500,30.4500,-36.1500,5.8500,1.2000,-8.2400,0.0905,0.9883,-1.6024,-2.3750,-33.5000,11.7500,172.8750,14.8750,-143.3125,0
512.288,9.3541,1.2067,-1.0199,1.1551,0.6744,0.5108,-42.4500,18.0000,5.7000,8.9735,-1.6807,0.6680,1.3683,-0.3856,-0.1868,-61.0500,30.4500,-36.1500,5.8200,1.2300,-8.2300,0.0905,0.9883,-1.6024,-2.3750,-33.5000,11.7500,171.8750,14.8125,-143.1250,0
512.297,8.8609,1.0247,-1.0151,1.0658,0.7365,0.5236,-43.9500,19.0500,4.5000,9.0764,-1.7549,0.6895,1.3515,-0.3102,-0.1364,-61.2000,30.3000,-37.9500,5.6200,0.6600,-7.8400,0.0894,0.8748,-1.5304,-2.3750,-33.5000,11.7500,171.8750,14.8125,-143.1250,0
512.307,8.9687,0.6249,-1.1205,0.9201,0.9281,0.5431,-41.8500,18.1500,4.0500,9.1051,-2.2266,0.7111,1.3336,-0.2513,-0.0901,-61.8000,28.9500,-37.6500,5.5200,0.3400,-7.5900,0.1276,0.8105,-1.4377,-2.3750,-33.5000,11.7500,170.9375,14.6875,-142.9375,0
512.312,8.9519,0.3950,-1.2186,0.7600,0.9228,0.6078,-44.1000,17.4000,4.3500,9.2608,-2.6839,1.0606,1.3006,-0.1817,-0.0349,-62.4000,30.6000,-38.2500,5.5200,0.3400,-7.5900,0.1276,0.8105,-1.4377,-2.3750,-33.5000,11.7500,170.9375,14.6875,-142.9375,0
512.317,8.9519,0.3950,-1.2186,0.7600,0.9228,0.6078,-44.1000,17.4000,4.3500,9.2608,-2.6839,1.0606,1.3006,-0.1817,-0.0349,-62.4000,30.6000,-38.2500,5.7200,-0.2200,-7.0300,0.1713,0.8345,-1.3068,0.2500,-34.3750,12.8750,170.0000,14.6250,-142.8125,0
512.322,9.2416,0.1891,-1.4365,0.6446,0.9153,0.7003,-44.1000,17.4000,4.3500,9.3925,-3.0406,1.4126,1.1527,-0.1015,-0.0112,-61.5000,30.6000,-38.2500,5.7200,-0.2200,-7.0300,0.1713,0.8345,-1.3068,0.2500,-34.3750,12.8750,170.0000,14.6250,-142.8125,0
512.327,9.2416,0.1891,-1.4365,0.6446,0.9153,0.7003,-44.1000,17.4000,4.3500,9.3925,-3.0406,1.4126,1.1527,-0.1015,-0.0112,-61.5000,28.5000,-38.8500,11.8700,0.9400,-6.1700,0.1451,1.0494,-1.0766,0.2500,-34.3750,12.8750,169.1875,14.6875,-142.6875,0
512.335,9.2512,-0.1221,-1.4246,0.5987,0.8796,0.7711,-43.6500,17.7000,2.5500,9.2943,-3.0622,1.3312,0.8364,-0.0613,0.0245,-61.5000,28.5000,-38.8500,13.6200,0.9800,-15.1300,0.9327,1.0690,0.1189,0.2500,-34.3750,12.8750,169.0000,15.1875,-143.1250,0
512.340,9.2512,-0.1221,-1.4246,0.4986,0.8839,0.8308,-43.9500,16.0500,4.2000,9.0046,-2.1644,2.1644,0.8364,-0.0613,0.0245,-61.5000,28.5000,-38.8500,13.6200,0.9800,-15.1300,0.9327,1.0690,0.1189,0.2500,-34.3750,12.8750,169.5000,15.0625,-144.1875,0
512.348,9.2895,-0.4405,-1.4557,0.4986,0.8839,0.8308,-43.9500,16.0500,4.2000,9.0046,-2.1644,2.1644,0.5473,0.0783,0.0730,-61.2000,27.9000,-38.2500,3.2200,-4.3800,-2.3100,1.6046,-0.9338,0.8192,0.2500,-34.3750,12.8750,169.8125,16.3125,-145.1875,0
512.358,9.8617,-0.1460,-1.2594,0.4517,0.7615,0.9017,-43.2000,17.2500,4.2000,9.6055,0.7207,2.5426,0.1223,0.2382,0.0045,-61.2000,27.9000,-38.2500,3.4200,-5.9900,-5.3300,1.8293,1.8010,1.3406,0.2500,-34.3750,12.8750,169.8125,16.3125,-145.1875,0
512.363,11.1809,0.1700,-1.2282,0.4373,0.7464,0.9819,-44.4000,17.4000,3.6000,11.1929,3.1867,0.7829,-0.4759,0.3027,-0.1178,-61.6500,28.3500,-39.3000,3.4200,-5.9900,-5.3300,1.8293,1.8010,1.3406,1.5625,-35.1875,12.0625,169.8125,19.2500,-145.8750,0
512.368,11.1809,0.1700,-1.2282,0.4373,0.7464,0.9819,-44.4000,17.4000,3.6000,11.1929,3.1867,0.7829,-0.4759,0.3027,-0.1178,-61.6500,28.3500,-39.3000,17.4900,1.2800,-23.1600,1.6679,5.1247,1.8915,1.5625,-35.1875,12.0625,169.8125,19.2500,-145.8750,0
512.372,13.4458,0.7254,-1.0008,0.3397,0.8031,1.0427,-44.4000,17.4000,3.6000,14.1737,4.1396,-2.8563,-0.6598,0.1162,-0.0810,-61.6500,28.3500,-39.3000,17.4900,1.2800,-23.1600,1.6679,5.1247,1.8915,1.5625,-35.1875,12.0625,169.8125,20.0625,-146.4375,0
512.378,13.4458,0.7254,-1.0008,0.3397,0.8031,1.0427,-44.4000,17.4000,3.6000,14.1737,4.1396,-2.8563,-0.6598,0.1162,-0.0810,-61.2000,29.8500,-40.0500,2.7700,10.2400,-9.0300,1.0363,1.4006,0.5520,1.5625,-35.1875,12.0625,169.8125,20.0625,-146.4375,0
512.382,14.7291,1.6783,-0.9768,-0.0016,0.7517,1.0261,-43.6500,16.9500,3.6000,15.2942,4.0342,-5.4540,-0.0959,0.0211,-0.0895,-61.2000,29.8500,-40.0500,2.7700,10.2400,-9.0300,0.1734,-0.9665,-0.8323,1.5625,-35.1875,12.0625,169.4375,19.3750,-146.5000,0
512.388,14.7291,1.6783,-0.9768,-0.0016,0.7517,1.0261,-43.6500,16.9500,3.6000,13.1753,1.9848,-2.8443,-0.0959,0.0211,-0.0895,-62.4000,31.0500,-37.9500,-7.4600,13.8400,-4.2200,0.1734,-0.9665,-0.8323,1.5625,-35.1875,12.0625,169.5000,19.3750,-146.8125,0
512.398,14.2503,2.9209,-1.0080,-0.4466,0.6163,0.8482,-44.5500,16.5000,4.5000,10.9008,-1.4222,1.8651,1.0541,0.2769,-0.2414,-61.8000,30.0000,-39.9000,4.8400,12.9000,-5.1800,0.6000,-0.0349,0.1418,1.5625,-35.1875,12.0625,169.5000,19.3750,-146.8125,0
512.408,13.0173,3.7230,-0.5052,-0.5820,0.5585,0.6563,-45.1500,16.6500,3.3000,10.0963,-5.7102,2.3894,1.8087,0.5969,-0.3419,-61.2000,29.5500,-41.2500,5.2000,4.5900,-9.0300,0.8345,0.6152,0.1494,1.5625,-35.1875,12.0625,169.3750,19.7500,-147.2500,0
512.413,11.6238,3.6176,0.7685,-0.4234,0.6014,0.5993,-46.5000,16.5000,5.7000,10.0963,-5.7102,2.3894,1.5202,0.5431,-0.2457,-61.2000,29.5500,-41.2500,5.2000,4.5900,-9.0300,0.8345,0.6152,0.1494,1.5625,-35.1875,12.0625,169.2500,19.8750,-147.6250,0
512.418,10.3046,2.5402,1.7813,-0.1119,0.7458,0.6030,-46.6500,15.9000,5.7000,10.2232,-5.9161,-0.3926,1.5202,0.5431,-0.2457,-63.3000,28.9500,-39.9000,5.8000,-1.2600,-11.2200,0.7669,0.3502,0.0567,-1.0625,-34.5000,13.2500,169.2500,19.8750,-147.6250,0
512.422,10.3046,2.5402,1.7813,-0.1119,0.7458,0.6030,-46.6500,15.9000,4.0500,10.2232,-5.9161,-0.3926,0.3512,0.3352,-0.0541,-63.3000,28.9500,-39.9000,5.8000,-1.2600,-11.2200,0.7669,0.3502,0.0567,-1.0625,-34.5000,13.2500,169.2500,19.8750,-147.6250,0
512.427,9.0573,1.2953,1.5706,0.1823,0.8703,0.6350,-46.6500,15.9000,4.0500,9.7205,-3.2537,-2.1739,-1.0245,0.1972,-0.0464,-63.3000,28.9500,-39.9000,2.2200,3.5900,-8.8200,0.3971,-0.1484,-0.0774,-1.0625,-34.5000,13.2500,169.1875,19.8125,-147.8750,0
512.435,9.0573,1.2953,1.5706,0.1823,0.8703,0.6350,-46.6500,15.9000,4.0500,9.7205,-3.2537,-2.1739,-1.0245,0.1972,-0.0464,-61.5000,28.9500,-39.1500,2.6600,4.1500,-8.0100,0.0458,-0.0022,-0.0654,-1.0625,-34.5000,13.2500,169.1875,19.8125,-147.8750,0
512.440,8.0182,0.9074,0.5722,0.3504,0.8620,0.7053,-45.9000,15.1500,5.1000,8.7891,-0.6081,-2.1093,-1.7587,0.1769,-0.1268,-61.5000,28.9500,-39.1500,2.6600,4.1500,-8.0100,0.0458,-0.0022,-0.0654,-1.0625,-34.5000,13.2500,169.1875,19.8125,-147.8125,0
512.448,7.1539,1.3072,-0.0982,0.4013,0.7418,0.7959,-46.0500,17.2500,4.9500,8.3390,2.7485,-1.2833,-1.9199,0.2289,-0.1812,-62.2500,29.7000,-38.1000,3.4300,3.1600,-8.1700,-0.1244,0.0873,-0.0153,-1.0625,-34.5000,13.2500,169.1875,19.8125,-147.6875,0
512.458,7.1946,1.9752,-0.3304,0.3616,0.7229,0.8953,-46.5000,15.3000,6.0000,8.6670,5.6647,-0.9744,-1.5892,0.2625,-0.1908,-62.4000,30.6000,-39.7500,3.4700,5.4400,-7.3700,-0.2585,0.0022,-0.0316,-1.0625,-34.5000,13.2500,169.1875,19.8125,-147.6875,0
512.463,7.1946,1.9752,-0.3304,0.3616,0.7229,0.8953,-46.5000,15.3000,6.0000,8.6670,5.6647,-0.9744,-1.5892,0.2625,-0.1908,-62.4000,30.6000,-39.7500,3.4700,5.4400,-7.3700,-0.2585,0.0022,-0.0316,-1.0625,-34.5000,13.2500,169.1875,19.8125,-147.6875,0
512.468,8.3558,2.1189,-0.3065,0.3403,0.7983,0.9435,-45.9000,14.4000,6.1500,9.1219,7.6471,-1.3671,-0.4405,0.3232,-0.1876,-61.9500,29.5500,-39.3000,3.2300,5.9200,-7.2500,-0.2574,0.0109,-0.0851,-1.1875,-33.2500,14.8750,169.1250,19.8125,-147.5000,0
512.473,8.3558,2.1189,-0.3065,0.3403,0.7983,0.9435,-45.9000,14.4000,6.1500,9.1219,7.6471,-1.3671,-0.4405,0.3232,-0.1876,-61.9500,29.5500,-39.3000,3.2300,5.9200,-7.2500,-0.2574,0.0109,-0.0851,-1.1875,-33.2500,14.8750,169.1250,19.8125,-147.5000,0
512.478,8.8657,1.8579,0.6991,0.4199,0.7874,0.9571,-45.9000,14.4000,6.1500,8.9663,7.6591,-1.8004,1.0477,0.4069,-0.1394,-63.3000,30.0000,-39.1500,3.7100,5.4000,-7.4700,-0.1429,0.0513,-0.1167,-1.1875,-33.2500,14.8750,169.1250,19.8125,-147.3750,0
512.486,9.4403,1.3862,1.9920,0.6694,0.8242,0.9126,-45.9000,14.4000,6.1500,8.7747,5.3798,-1.8052,2.1882,0.5057,-0.0962,-61.2000,30.3000,-39.0000,3.4800,5.5500,-7.3400,-0.0164,0.0349,-0.1080,-1.1875,-33.2500,14.8750,169.0625,19.7500,-147.3750,0
512.491,9.4403,1.3862,1.9920,0.6694,0.8242,0.9126,-45.1500,14.7000,5.8500,8.7747,5.3798,-1.8052,2.1882,0.5057,-0.0962,-61.2000,30.3000,-39.0000,3.4800,5.5500,-7.3400,-0.0164,0.0349,-0.1080,-1.1875,-33.2500,14.8750,168.9375,19.7500,-147.4375,0
512.498,10.0604,1.3503,2.9592,1.0333,0.7714,0.8045,-44.2500,15.0000,6.0000,8.8585,2.3631,-1.8124,2.4954,0.5766,-0.1050,-61.2000,30.3000,-39.0000,3.4500,5.2600,-7.4000,0.1189,0.0044,-0.1080,-1.1875,-33.2500,14.8750,168.8750,19.6875,-147.5000,0
512.508,10.4220,1.7023,2.8156,1.3936,0.7144,0.6526,-44.8500,11.4000,6.9000,9.0501,-0.3376,-1.7789,2.1525,0.5966,-0.1295,-60.4500,30.3000,-38.5500,3.4100,5.0000,-7.6200,0.2040,0.0033,-0.1080,-1.1875,-33.2500,14.8750,168.8750,19.6875,-147.5000,0
512.513,10.4220,1.7023,2.8156,1.3936,0.7144,0.6526,-44.8500,11.4000,6.9000,9.4068,-1.5778,-1.8818,2.1525,0.5966,-0.1295,-60.4500,30.3000,-38.5500,3.4100,5.0000,-7.6200,0.2040,0.0033,-0.1080,-1.2500,-34.3750,14.3750,168.8125,19.6875,-147.6250,0
512.518,10.6039,2.1907,2.1069,1.6446,0.5977,0.4903,-44.8500,13.9500,6.1500,9.4068,-1.5778,-1.8818,1.3395,0.5604,-0.1428,-60.4500,30.3000,-38.5500,3.3400,4.7100,-7.8200,0.2389,-0.0011,-0.1069,-1.2500,-34.3750,14.3750,168.8125,19.6875,-147.6250,0
512.523,10.6039,2.1907,2.1069,1.6446,0.5977,0.4903,-44.8500,13.9500,6.1500,9.6558,-1.1875,-1.8555,1.3395,0.5604,-0.1428,-60.4500,30.3000,-38.5500,3.3400,4.7100,-7.8200,0.2389,-0.0011,-0.1069,-1.2500,-34.3750,14.3750,168.6875,19.6250,-147.7500,0
512.528,10.1418,2.4062,1.3384,1.6737,0.5276,0.3741,-45.3000,12.3000,5.2500,9.6558,-1.1875,-1.8555,0.4077,0.5185,-0.1495,-61.0500,29.7000,-39.9000,3.3200,4.5200,-7.9700,0.2280,0.0011,-0.1047,-1.2500,-34.3750,14.3750,168.6875,19.6250,-147.7500,0
512.536,9.7851,2.1261,0.4788,1.5204,0.5708,0.2982,-45.3000,12.3000,5.2500,9.5696,0.4693,-1.6472,-0.2310,0.4762,-0.1386,-62.2500,28.5000,-39.6000,3.3000,4.5100,-8.0000,0.2160,-0.0044,-0.0982,-1.2500,-34.3750,14.3750,168.6250,19.6250,-147.8125,0
512.541,9.7851,2.1261,0.4788,1.5204,0.5708,0.2982,-45.3000,12.3000,5.2500,9.5696,0.4693,-1.6472,-0.2310,0.4762,-0.1386,-62.2500,28.5000,-39.6000,3.3000,4.5100,-8.0000,0.2160,-0.0044,-0.0982,-1.2500,-34.3750,14.3750,168.5625,19.5625,-147.9375,0
512.548,9.6893,1.8364,-0.0982,1.2606,0.5612,0.2606,-45.0000,13.0500,3.9000,9.4667,2.0853,-1.4006,-0.3938,0.4583,-0.1426,-63.1500,29.1000,-39.3000,3.3000,4.7600,-7.8400,0.2029,-0.0011,-0.0862,-1.2500,-34.3750,14.3750,168.5000,19.5625,-148.0000,0
512.558,9.5768,1.0846,-0.2227,0.8849,0.4815,0.2577,-45.4500,12.4500,5.4000,9.2608,3.1316,-1.0199,-0.2425,0.4970,-0.1426,-61.6500,29.1000,-38.5500,3.2600,4.8100,-7.8100,0.1953,-0.0142,-0.0764,-1.2500,-34.3750,14.3750,168.5000,19.5625,-148.0000,0
512.563,9.7157,0.4980,-0.2801,0.6520,0.4826,0.2507,-45.4500,12.4500,5.4000,9.2009,3.2872,-0.7159,0.0288,0.5023,-0.1255,-61.6500,29.1000,-38.5500,3.2600,4.8100,-7.8100,0.1953,-0.0142,-0.0764,-1.2500,-34.3750,14.3750,168.4375,19.5000,-148.1250,0
512.568,9.7157,0.4980,-0.2801,0.6520,0.4826,0.2507,-46.5000,12.7500,5.2500,9.2009,3.2872,-0.7159,0.0288,0.5023,-0.1255,-61.6500,29.1000,-38.5500,3.2600,4.8000,-7.8300,0.1898,-0.0262,-0.0633,-1.0000,-33.1875,15.5625,168.4375,19.5000,-148.1250,0
512.573,9.7995,-0.1101,-0.1269,0.4077,0.4543,0.2380,-46.5000,12.7500,5.2500,9.2464,2.5929,-0.6560,0.2971,0.5156,-0.0951,-61.6500,29.1000,-38.5500,3.2600,4.8000,-7.8300,0.1898,-0.0262,-0.0633,-1.0000,-33.1875,15.5625,168.4375,19.5000,-148.2500,0
512.578,9.7995,-0.1101,-0.1269,0.4077,0.4543,0.2380,-47.4000,12.9000,4.3500,9.2464,2.5929,-0.6560,0.2971,0.5156,-0.0951,-61.5000,29.7000,-38.4000,3.3700,4.8100,-7.8400,0.2040,-0.0469,-0.0535,-1.0000,-33.1875,15.5625,168.4375,19.5000,-148.2500,0
512.583,9.9958,-0.5195,0.3232,0.2851,0.3661,0.2238,-47.4000,12.9000,4.3500,9.4547,1.6975,-0.3687,0.4812,0.5263,-0.0695,-61.5000,29.7000,-38.4000,3.3700,4.8100,-7.8400,0.2225,-0.0654,-0.0491,-1.0000,-33.1875,15.5625,168.3750,19.4375,-148.3750,0
512.589,9.9958,-0.5195,0.3232,0.2851,0.3661,0.2238,-47.4000,12.9000,4.3500,9.4547,1.6975,-0.3687,0.4812,0.5263,-0.0695,-61.5000,29.7000,-38.4000,3.3400,4.6300,-7.9200,0.2225,-0.0654,-0.0491,-1.0000,-33.1875,15.5625,168.3750,19.4375,-148.3750,0
512.598,10.0269,-0.7973,0.8116,0.2702,0.3435,0.2073,-47.4000,12.9000,4.3500,9.7612,1.1372,-0.3089,0.4922,0.5271,-0.0592,-61.8000,29.7000,-39.1500,3.3300,4.4600,-8.0000,0.2367,-0.0742,-0.0502,-1.0000,-33.1875,15.5625,168.3125,19.3750,-148.5000,0
512.607,10.0221,-0.5650,1.3862,0.3435,0.2854,0.2097,-46.5000,14.5500,5.2500,9.8689,0.9625,-0.1484,0.4572,0.5247,-0.0552,-62.2500,28.5000,-40.3500,3.3500,4.3700,-8.0300,0.2302,-0.0731,-0.0458,-1.0000,-33.1875,15.5625,168.3125,19.3750,-148.6250,0
512.612,9.9000,-0.1413,1.8603,0.4258,0.2046,0.2009,-46.5000,14.5500,5.2500,9.9240,1.1947,0.0670,0.3933,0.5121,-0.0549,-62.2500,28.5000,-40.3500,3.3500,4.3700,-8.0300,0.2302,-0.0731,-0.0458,-1.0000,-33.1875,15.5625,168.3125,19.3750,-148.6250,0
512.616,9.9000,-0.1413,1.8603,0.4258,0.2046,0.2009,-46.6500,13.6500,4.8000,9.9240,1.1947,0.0670,0.3933,0.5121,-0.0549,-62.5500,30.4500,-37.6500,3.3400,4.2900,-8.0900,0.2018,-0.0600,-0.0436,-0.6875,-34.0000,15.5625,168.2500,19.3125,-148.7500,0
512.621,9.7755,0.3017,2.1739,0.4533,0.1442,0.1620,-46.6500,13.6500,4.8000,9.8043,1.6352,0.0527,0.3011,0.4972,-0.0400,-62.5500,30.4500,-37.6500,3.3400,4.2900,-8.0900,0.2018,-0.0600,-0.0436,-0.6875,-34.0000,15.5625,168.2500,19.3125,-148.7500,0
512.626,9.7755,0.3017,2.1739,0.4533,0.1442,0.1620,-46.6500,13.6500,5.8500,9.8043,1.6352,0.0527,0.3011,0.4972,-0.0400,-62.5500,28.0500,-39.6000,3.3400,4.3200,-8.1000,0.1593,-0.0447,-0.0393,-0.6875,-34.0000,15.5625,168.2500,19.2500,-148.8125,0
512.631,9.5984,0.8475,1.8052,0.3965,0.1703,0.1274,-46.6500,13.6500,5.8500,9.5744,2.1141,0.2394,0.2531,0.4842,-0.0256,-62.5500,28.0500,-39.6000,3.3400,4.3200,-8.1000,0.1593,-0.0447,-0.0393,-0.6875,-34.0000,15.5625,168.1875,19.2500,-148.8750,0
512.638,9.5984,0.8475,1.8052,0.3965,0.1703,0.1274,-47.1000,13.0500,6.3000,9.5122,2.3535,0.3448,0.2531,0.4842,-0.0256,-63.0000,29.2500,-39.1500,3.3600,4.4100,-8.0800,0.1134,-0.0229,-0.0393,-0.6875,-34.0000,15.5625,168.1875,19.2500,-148.9375,0
512.648,9.5170,1.3862,1.5083,0.3230,0.2411,0.0901,-47.1000,13.0500,6.3000,9.6367,2.2529,0.2107,0.1927,0.4679,-0.0032,-62.5500,29.7000,-39.1500,3.3100,4.6400,-7.9400,0.0818,-0.0076,-0.0404,-0.6875,-34.0000,15.5625,168.1875,19.2500,-148.9375,0
512.653,9.4978,1.8411,1.6759,0.1985,0.3054,0.0565,-47.1000,13.0500,6.3000,9.6367,2.2529,0.2107,0.1037,0.4575,0.0093,-62.5500,29.7000,-39.1500,3.3100,4.6400,-7.9400,0.0665,-0.0022,-0.0425,-0.6875,-34.0000,15.5625,168.1250,19.2500,-148.9375,0
512.659,9.4978,1.8411,1.6759,0.1985,0.3054,0.0565,-47.5500,12.7500,6.0000,9.6893,1.8435,0.0120,0.0083,0.4239,0.0301,-62.5500,29.7000,-39.1500,3.3500,4.7200,-7.8900,0.0665,-0.0022,-0.0425,-0.6875,-34.0000,15.5625,168.1250,19.2500,-148.9375,0
512.664,9.4308,1.9776,1.8771,0.0671,0.3760,0.0224,-46.2000,14.7000,7.2000,9.6893,1.8435,0.0120,0.0083,0.4239,0.0301,-62.5500,29.7000,-39.1500,3.3500,4.7200,-7.8900,0.0665,-0.0022,-0.0425,-1.3750,-33.1875,15.5625,167.7500,19.1875,-149.0000,0
512.669,9.4308,1.9776,1.8771,0.0671,0.3760,0.0224,-46.2000,14.7000,7.2000,9.4643,1.5107,-0.0838,-0.1399,0.3981,0.0605,-63.4500,30.3000,-38.2500,3.3100,4.7500,-7.9000,0.0665,-0.0109,-0.0425,-1.3750,-33.1875,15.5625,167.7500,19.1875,-149.0000,0
512.674,9.5337,1.8244,1.9489,0.0328,0.3997,-0.0040,-46.6500,13.6500,6.4500,9.4643,1.5107,-0.0838,-0.1399,0.3981,0.0605,-63.4500,30.3000,-38.2500,3.3100,4.7500,-7.9000,0.0665,-0.0109,-0.0425,-1.3750,-33.1875,15.5625,167.6875,19.1875,-149.0000,0
512.679,9.5672,1.5778,1.8914,0.0176,0.3962,-0.0229,-46.6500,13.6500,6.4500,9.6582,1.2905,-0.3496,-0.3094,0.4088,0.0530,-62.2500,28.5000,-38.4000,3.2800,4.7200,-7.9000,0.0676,-0.0229,-0.0425,-1.3750,-33.1875,15.5625,167.6875,19.1875,-149.0000,0
512.684,9.5672,1.5778,1.8914,0.0176,0.3962,-0.0229,-46.9500,12.1500,5.4000,9.6582,1.2905,-0.3496,-0.3094,0.4088,0.0530,-62.2500,28.5000,-38.4000,3.2800,4.7200,-7.9000,0.0753,-0.0415,-0.0382,-1.3750,-33.1875,15.5625,167.6875,19.1875,-149.0625,0
512.689,9.5672,1.2306,1.5802,0.0019,0.3850,-0.0160,-46.9500,12.1500,5.4000,9.5241,1.2977,-0.4788,-0.4612,0.3728,0.0717,-63.4500,30.3000,-37.2000,3.2700,4.6000,-7.9500,0.0753,-0.0415,-0.0382,-1.3750,-33.1875,15.5625,167.6875,19.1250,-149.1250,0
512.698,9.6199,1.0151,1.2665,-0.0445,0.3376,0.0043,-46.9500,12.1500,5.4000,9.4906,1.4437,-0.5938,-0.5111,0.3837,0.0887,-62.7000,31.0500,-39.0000,3.2600,4.5900,-7.9400,0.0829,-0.0469,-0.0349,-1.3750,-33.1875,15.5625,167.6875,19.1250,-149.1250,0
512.703,9.6199,1.0151,1.2665,-0.0445,0.3376,0.0043,-46.9500,12.1500,5.4000,9.4906,1.4437,-0.5938,-0.5111,0.3837,0.0887,-62.7000,31.0500,-39.0000,3.2600,4.5900,-7.9400,0.0916,-0.0589,-0.0295,-1.3750,-33.1875,15.5625,167.6250,19.1250,-149.1875,0
512.709,9.5912,0.9601,1.0798,-0.1266,0.2971,0.0218,-46.9500,12.1500,5.4000,9.4523,1.9249,-0.5483,-0.4844,0.3912,0.0983,-63.4500,29.8500,-38.2500,3.2500,4.5100,-7.9900,0.0916,-0.0589,-0.0295,-1.3750,-33.1875,15.5625,167.6250,19.1250,-149.1875,0
512.714,9.5912,0.9601,1.0798,-0.1266,0.2971,0.0218,-46.0500,13.5000,6.0000,9.4523,1.9249,-0.5483,-0.4844,0.3912,0.0983,-63.4500,29.8500,-38.2500,3.2500,4.5100,-7.9900,0.0905,-0.0622,-0.0218,-1.3750,-32.8750,14.7500,167.3750,19.0625,-149.2500,0
512.719,9.5744,1.0534,0.7877,-0.1913,0.2340,0.0368,-46.0500,13.5000,6.0000,9.4236,2.0710,-0.4932,-0.3448,0.4167,0.1100,-63.3000,30.9000,-38.1000,3.2300,4.5100,-7.9900,0.0905,-0.0622,-0.0218,-1.3750,-32.8750,14.7500,167.3750,19.0625,-149.2500,0
512.724,9.5744,1.0534,0.7877,-0.1913,0.2340,0.0368,-46.5000,12.3000,7.8000,9.4236,2.0710,-0.4932,-0.3448,0.4167,0.1100,-63.3000,30.9000,-38.1000,3.2300,4.5100,-7.9900,0.0862,-0.0589,-0.0196,-1.3750,-32.8750,14.7500,167.3125,19.0625,-149.3125,0
512.729,9.5265,1.1396,0.6847,-0.2308,0.1812,0.0493,-46.5000,12.3000,7.8000,9.3398,2.0494,-0.3926,-0.1657,0.4325,0.1074,-63.3000,30.9000,-38.1000,3.2400,4.5000,-8.0000,0.0862,-0.0589,-0.0196,-1.3750,-32.8750,14.7500,167.3125,19.0625,-149.3125,0
512.734,9.5265,1.1396,0.6847,-0.2308,0.1812,0.0493,-46.8000,12.7500,5.7000,9.3206,1.7789,-0.2107,-0.1657,0.4325,0.1074,-63.3000,30.9000,-38.1000,3.2400,4.5000,-8.0000,0.0796,-0.0480,-0.0164,-1.3750,-32.8750,14.7500,167.3125,19.0000,-149.3125,0
512.739,9.4332,1.2354,0.7638,-0.2443,0.1580,0.0584,-46.8000,12.7500,5.7000,9.3206,1.7789,-0.2107,-0.0008,0.4599,0.1074,-61.6500,30.6000,-36.4500,3.2100,4.5200,-7.9900,0.0796,-0.0480,-0.0164,-1.3750,-32.8750,14.7500,167.3125,19.0000,-149.3125,0
512.748,9.4451,1.1971,0.7901,-0.2142,0.1639,0.0602,-47.5500,12.0000,6.3000,9.3637,1.4246,-0.0575,-0.0056,0.4682,0.1098,-61.6500,30.6000,-36.4500,3.2800,4.4000,-8.0200,0.0829,-0.0469,-0.0142,-1.3750,-32.8750,14.7500,167.3125,19.0000,-149.3750,0
512.753,9.4451,1.1971,0.7901,-0.2142,0.1639,0.0602,-47.5500,12.0000,6.3000,9.3637,1.4246,-0.0575,-0.0056,0.4682,0.1098,-61.6500,30.6000,-36.4500,3.2800,4.4000,-8.0200,0.0851,-0.0513,-0.0109,-1.3750,-32.8750,14.7500,167.3125,18.9375,-149.4375,0
512.759,9.4355,1.1205,0.9409,-0.1681,0.1639,0.0626,-47.5500,12.0000,6.3000,9.4667,1.3623,0.0599,-0.0554,0.4810,0.1074,-62.7000,29.5500,-36.4500,3.2500,4.5000,-7.9700,0.0851,-0.0513,-0.0109,-1.3750,-32.8750,14.7500,167.3125,18.9375,-149.4375,0
512.764,9.4355,1.1205,0.9409,-0.1681,0.1639,0.0626,-46.8000,12.7500,6.7500,9.4834,1.4748,0.1652,-0.1228,0.4655,0.1007,-62.7000,29.5500,-36.4500,3.2500,4.5000,-7.9700,0.0851,-0.0513,-0.0109,-0.6875,-34.3750,16.3750,166.8750,18.9375,-149.5000,0
512.769,9.4930,1.1372,1.0726,-0.1434,0.1599,0.0493,-46.8000,12.7500,6.7500,9.4834,1.4748,0.1652,-0.1228,0.4655,0.1007,-63.3000,29.7000,-36.6000,3.2400,4.5000,-7.9600,0.0905,-0.0491,-0.0098,-0.6875,-34.3750,16.3750,166.8750,18.9375,-149.5000,0
512.774,9.4930,1.1372,1.0726,-0.1434,0.1599,0.0493,-47.7000,13.2000,6.4500,9.4164,1.5227,0.2705,-0.1868,0.4567,0.1050,-63.3000,29.7000,-36.6000,3.2400,4.5000,-7.9600,0.0905,-0.0491,-0.0098,-0.6875,-34.3750,16.3750,166.8750,18.9375,-149.5625,0
512.779,9.4763,1.1636,1.3240,-0.1284,0.1559,0.0386,-47.7000,13.2000,6.4500,9.4164,1.5227,0.2705,-0.1868,0.4567,0.1050,-63.4500,30.3000,-36.0000,3.2100,4.5700,-7.9600,0.0949,-0.0513,-0.0109,-0.6875,-34.3750,16.3750,166.8750,18.9375,-149.5625,0
512.784,9.4763,1.1636,1.3240,-0.1284,0.1559,0.0386,-45.1500,12.4500,8.7000,9.5026,1.5299,0.4693,-0.2302,0.4463,0.1124,-63.4500,30.3000,-36.0000,3.2100,4.5700,-7.9600,0.1080,-0.0611,-0.0087,-0.6875,-34.3750,16.3750,166.8750,18.8750,-149.6250,0
512.789,9.3733,1.1516,1.5682,-0.1029,0.1849,0.0277,-45.1500,12.4500,8.7000,9.5026,1.5299,0.4693,-0.2302,0.4463,0.1124,-64.0500,30.9000,-36.9000,3.2000,4.6500,-7.9400,0.1080,-0.0611,-0.0087,-0.6875,-34.3750,16.3750,166.8750,18.8750,-149.6250,0
512.798,9.3637,1.0271,1.8004,-0.0679,0.2126,0.0242,-46.5000,13.0500,8.5500,9.5337,1.4509,0.4693,-0.2230,0.4394,0.1228,-64.0500,30.9000,-36.9000,3.2200,4.6700,-7.9700,0.1331,-0.0720,-0.0033,-0.6875,-34.3750,16.3750,166.8750,18.8750,-149.7500,0
512.803,9.3637,1.0271,1.8004,-0.0679,0.2126,0.0242,-46.5000,13.0500,8.5500,9.5696,1.3647,0.4429,-0.2262,0.4327,0.1231,-64.0500,30.9000,-36.9000,3.2200,4.6700,-7.9700,0.1527,-0.0818,0.0000,-0.6875,-34.3750,16.3750,166.8750,18.8125,-149.8125,0
512.809,9.4643,0.9816,1.8076,-0.0290,0.2457,0.0338,-46.5000,13.0500,8.5500,9.5696,1.3647,0.4429,-0.2262,0.4327,0.1231,-64.5000,29.7000,-36.6000,3.2600,4.6500,-7.9400,0.1527,-0.0818,0.0000,-0.6875,-34.3750,16.3750,166.8750,18.8125,-149.8125,0
512.815,9.5840,0.9194,1.8220,0.0216,0.2643,0.0488,-46.5000,13.0500,8.5500,9.6774,1.3958,0.5962,-0.1990,0.4338,0.1378,-64.5000,29.7000,-36.6000,3.2100,4.5100,-8.0100,0.1691,-0.0905,0.0044,-0.6875,-33.5625,15.1875,166.5625,18.7500,-149.9375,0
512.819,9.5840,0.9194,1.8220,0.0216,0.2643,0.0488,-46.5000,13.0500,8.5500,9.6774,1.3958,0.5962,-0.1990,0.4338,0.1378,-64.5000,29.7000,-36.6000,3.2100,4.5100,-8.0100,0.1691,-0.0905,0.0044,-0.6875,-33.5625,15.1875,166.5625,18.7500,-149.9375,0
512.824,9.5672,0.9194,1.8028,0.0320,0.2659,0.0690,-46.6500,12.4500,6.9000,9.7109,1.4581,0.6464,-0.1671,0.4319,0.1367,-64.5000,29.7000,-36.6000,3.2100,4.5100,-8.0100,0.1778,-0.0927,0.0044,-0.6875,-33.5625,15.1875,166.5625,18.7500,-150.0000,0
512.829,9.5672,0.9194,1.8028,0.0320,0.2659,0.0690,-46.6500,12.4500,6.9000,9.7109,1.4581,0.6464,-0.1671,0.4319,0.1367,-63.0000,29.7000,-35.5500,3.1800,4.5200,-8.0400,0.1778,-0.0927,0.0044,-0.6875,-33.5625,15.1875,166.5625,18.7500,-150.0000,0
512.834,9.4763,0.8284,1.7789,0.0216,0.2659,0.0762,-46.2000,12.4500,7.6500,9.6630,1.3815,0.6201,-0.0786,0.4279,0.1359,-63.0000,29.7000,-35.5500,3.1800,4.5200,-8.0400,0.1822,-0.0905,0.0076,-0.6875,-33.5625,15.1875,166.5625,18.6875,-150.1250,0
512.839,9.4763,0.8284,1.7789,0.0216,0.2659,0.0762,-46.2000,12.4500,7.6500,9.6486,1.3120,0.6632,-0.0786,0.4279,0.1359,-63.4500,29.8500,-34.9500,3.2000,4.4800,-8.0500,0.1822,-0.0905,0.0076,-0.6875,-33.5625,15.1875,166.5625,18.6875,-150.1250,0
512.848,9.4906,0.8068,1.6472,0.0005,0.2694,0.0943,-46.6500,13.6500,7.2000,9.6486,1.3120,0.6632,-0.0085,0.4391,0.1324,-63.1500,29.8500,-33.7500,3.1900,4.4500,-8.1000,0.1778,-0.0905,0.0087,-0.6875,-33.5625,15.1875,166.5625,18.6250,-150.2500,0
512.853,9.5289,0.7757,1.6017,0.0075,0.2606,0.1050,-47.4000,12.4500,6.9000,9.6534,1.0295,0.7614,0.0157,0.4413,0.1362,-63.1500,29.8500,-33.7500,3.1900,4.4500,-8.1000,0.1767,-0.0862,0.0055,-0.6875,-33.5625,15.1875,166.5625,18.6250,-150.3750,0
512.859,9.5289,0.7757,1.6017,0.0075,0.2606,0.1050,-47.4000,12.4500,6.9000,9.6271,0.9002,0.7159,0.0157,0.4413,0.1362,-65.2500,28.9500,-35.8500,3.2100,4.3700,-8.1100,0.1767,-0.0862,0.0055,-0.6875,-33.5625,15.1875,166.5625,18.6250,-150.3750,0
512.864,9.4786,0.7207,1.5251,0.0365,0.2475,0.1218,-47.4000,12.4500,6.9000,9.6271,0.9002,0.7159,0.0021,0.4373,0.1271,-65.2500,28.9500,-35.8500,3.2100,4.3700,-8.1100,0.1680,-0.0851,0.0033,-0.6875,-33.5625,14.7500,166.3125,18.5625,-150.4375,0
512.869,9.4786,0.7207,1.5251,0.0365,0.2475,0.1218,-47.4000,12.4500,6.9000,9.6391,0.8547,0.7087,-0.0536,0.4287,0.1266,-64.8000,28.5000,-34.8000,3.2000,4.4000,-8.1000,0.1680,-0.0851,0.0033,-0.6875,-33.5625,14.7500,166.3125,18.5625,-150.4375,0
512.877,9.5313,0.7326,1.4389,0.0730,0.2481,0.1340,-45.9000,12.9000,7.9500,9.6391,0.8547,0.7087,-0.0536,0.4287,0.1266,-64.8000,28.5000,-34.8000,3.1900,4.3700,-8.1000,0.1593,-0.0796,0.0000,-0.6875,-33.5625,14.7500,166.3125,18.5000,-150.5625,0
512.882,9.5481,0.8332,1.3695,0.1106,0.2510,0.1516,-47.1000,13.5000,7.3500,9.6031,0.9792,0.7135,-0.1042,0.4261,0.1194,-63.1500,28.3500,-34.5000,3.1900,4.3700,-8.1000,0.1593,-0.0796,0.0000,-0.6875,-33.5625,14.7500,166.3125,18.5000,-150.6875,0
512.889,9.5481,0.8332,1.3695,0.1106,0.2510,0.1516,-47.1000,13.5000,7.3500,9.6127,1.1779,0.7685,-0.1082,0.4282,0.1186,-63.1500,28.3500,-34.5000,3.1300,4.4000,-8.1500,0.1516,-0.0753,-0.0022,-0.6875,-33.5625,14.7500,166.3125,18.5000,-150.6875,0
512.897,9.4739,0.9577,1.2785,0.1330,0.2486,0.1548,-46.5000,12.3000,7.8000,9.5768,1.3838,0.8595,-0.1082,0.4282,0.1186,-63.1500,28.3500,-34.5000,3.1300,4.4100,-8.1000,0.1484,-0.0731,-0.0011,-0.6875,-33.5625,14.7500,166.3125,18.4375,-150.7500,0
512.902,9.4619,1.0367,1.2761,0.1415,0.2681,0.1665,-47.4000,11.4000,7.2000,9.5768,1.3838,0.8595,-0.0674,0.4341,0.1162,-64.5000,29.2500,-35.5500,3.1300,4.4100,-8.1000,0.1484,-0.0731,-0.0011,-0.6875,-33.5625,14.7500,166.3125,18.4375,-150.8125,0
512.909,9.4619,1.0367,1.2761,0.1415,0.2681,0.1665,-45.1500,11.4000,7.2000,9.7013,1.5514,0.9457,-0.0312,0.4373,0.1242,-64.5000,28.9500,-34.8000,3.1300,4.4300,-8.1100,0.1429,-0.0731,0.0000,-0.6875,-33.5625,14.7500,166.3125,18.4375,-150.8125,0
512.914,9.5457,1.0127,1.3791,0.1314,0.2795,0.1721,-45.1500,13.2000,7.2000,9.7013,1.5514,0.9457,-0.0312,0.4373,0.1242,-64.5000,28.9500,-34.8000,3.1300,4.4300,-8.1100,0.1429,-0.0731,0.0000,-0.6875,-32.8750,16.7500,165.9375,18.3750,-150.9375,0
512.919,9.5457,1.0127,1.3791,0.1314,0.2795,0.1721,-45.1500,13.2000,7.2000,9.6774,1.3934,1.1037,0.0445,0.4293,0.1148,-64.3500,28.6500,-33.7500,3.0600,4.5300,-8.0900,0.1440,-0.0731,0.0000,-0.6875,-32.8750,16.7500,165.9375,18.3750,-150.9375,0
512.924,9.4260,0.9146,1.5658,0.1130,0.3024,0.1780,-45.1500,13.2000,7.2000,9.6774,1.3934,1.1037,0.0445,0.4293,0.1148,-64.3500,28.6500,-33.7500,3.0600,4.5300,-8.0900,0.1440,-0.0731,0.0000,-0.6875,-32.8750,16.7500,165.9375,18.3750,-151.0000,0
512.929,9.4260,0.9146,1.5658,0.1130,0.3024,0.1780,-45.1500,13.2000,7.2000,9.7037,1.1109,1.2857,0.0682,0.4322,0.1202,-64.3500,29.8500,-34.9500,3.1100,4.5300,-8.0900,0.1473,-0.0753,0.0033,-0.6875,-32.8750,16.7500,165.9375,18.3750,-151.0000,0
512.934,9.4451,0.9337,1.7119,0.0770,0.3331,0.1927,-46.8000,11.5500,9.1500,9.7037,1.1109,1.2857,0.0682,0.4322,0.1202,-64.3500,29.8500,-34.9500,3.1100,4.5300,-8.0900,0.1494,-0.0720,0.0055,-0.6875,-32.8750,16.7500,165.9375,18.3125,-151.1250,0
512.939,9.4451,0.9337,1.7119,0.0770,0.3331,0.1927,-46.0500,12.7500,7.3500,9.7205,1.1372,1.2043,0.0450,0.4221,0.1287,-64.5000,30.4500,-34.3500,3.1800,4.4700,-8.1400,0.1494,-0.0720,0.0055,-0.6875,-32.8750,16.7500,165.9375,18.3125,-151.1250,0
512.948,9.4379,0.7997,1.7597,0.0517,0.3635,0.2156,-46.0500,12.7500,7.3500,9.6247,0.8404,1.1205,0.0408,0.4234,0.1287,-64.5000,30.4500,-34.3500,3.1500,4.3100,-8.1900,0.1494,-0.0687,0.0044,-0.6875,-32.8750,16.7500,165.9375,18.3125,-151.1875,0
512.953,9.4451,0.5986,1.9106,0.0338,0.3794,0.2262,-47.5500,13.0500,8.5500,9.6247,0.8404,1.1205,0.0408,0.4234,0.1287,-64.0500,29.2500,-34.8000,3.1500,4.3100,-8.1900,0.1396,-0.0622,0.0033,-0.6875,-32.8750,16.7500,165.9375,18.2500,-151.3125,0
512.960,9.4810,0.5507,1.9417,0.0312,0.4026,0.2446,-46.8000,11.5500,8.5500,9.5816,0.8284,1.0558,-0.0179,0.4170,0.1287,-64.0500,29.2500,-34.8000,3.1500,4.2700,-8.2000,0.1396,-0.0622,0.0033,-0.6875,-32.8750,16.7500,165.9375,18.2500,-151.3125,0
512.964,9.4810,0.5507,1.9417,0.0312,0.4026,0.2446,-46.8000,11.5500,8.5500,9.5984,0.9936,0.9529,-0.0179,0.4170,0.1287,-64.0500,29.2500,-34.8000,3.1500,4.2500,-8.2200,0.1309,-0.0622,0.0022,-0.6875,-33.1875,15.5625,165.7500,18.2500,-151.3750,0
512.969,9.4092,0.4860,1.8818,0.0301,0.3981,0.2558,-46.8000,11.5500,8.5500,9.5984,0.9936,0.9529,-0.0794,0.4093,0.1410,-64.8000,29.2500,-34.8000,3.1500,4.2500,-8.2200,0.1309,-0.0622,0.0022,-0.6875,-33.1875,15.5625,165.7500,18.2500,-151.3750,0
512.978,9.4092,0.4860,1.8818,0.0301,0.3981,0.2558,-46.8000,11.5500,8.5500,9.4523,1.3551,0.8571,-0.0975,0.4080,0.1423,-64.8000,29.2500,-34.8000,3.1300,4.2400,-8.2200,0.1167,-0.0600,-0.0022,-0.6875,-33.1875,15.5625,165.7500,18.1875,-151.4375,0
512.983,9.5744,0.6081,1.7454,0.0229,0.4016,0.2561,-46.5000,11.5500,7.8000,9.4523,1.3551,0.8571,-0.0975,0.4080,0.1423,-64.8000,29.2500,-34.8000,3.1300,4.2400,-8.2200,0.1047,-0.0556,-0.0022,-0.6875,-33.1875,15.5625,165.7500,18.1875,-151.5000,0
512.989,9.5577,0.8835,1.6065,-0.0093,0.3565,0.2550,-47.4000,12.1500,7.9500,9.4475,1.7430,0.7446,-0.0858,0.4056,0.1492,-64.5000,28.5000,-34.8000,3.1300,4.3500,-8.2100,0.1047,-0.0556,-0.0022,-0.6875,-33.1875,15.5625,165.7500,18.1875,-151.5000,0
512.998,9.5529,1.0965,1.4269,-0.0330,0.3246,0.2348,-46.8000,12.7500,8.8500,9.2656,1.8771,0.2610,-0.0933,0.4325,0.1623,-64.5000,28.5000,-34.8000,3.1400,4.3000,-8.1600,0.0971,-0.0535,-0.0065,-0.6875,-33.1875,15.5625,165.7500,18.1875,-151.5625,0
513.003,9.5529,1.0965,1.4269,-0.0330,0.3246,0.2348,-46.8000,12.7500,8.8500,9.3518,2.1668,0.2705,-0.0933,0.4325,0.1623,-66.3000,28.9500,-33.6000,3.1400,4.3000,-8.1600,0.0971,-0.0535,-0.0087,-0.6875,-33.1875,15.5625,165.7500,18.1250,-151.6250,0
513.010,9.5768,1.2737,1.2881,-0.0200,0.2907,0.2121,-46.9500,13.2000,7.6500,9.3518,2.1668,0.2705,-0.0072,0.4626,0.1705,-64.6500,29.8500,-32.7000,3.1200,4.4300,-8.1300,0.0971,-0.0535,-0.0087,-0.6875,-33.1875,15.5625,165.7500,18.1250,-151.6250,0
513.014,9.5768,1.2737,1.2881,-0.0200,0.2907,0.2121,-46.9500,13.2000,7.6500,9.3948,1.7645,0.4046,0.0711,0.4719,0.1753,-64.6500,29.8500,-32.7000,3.1200,4.4300,-8.1300,0.1025,-0.0611,-0.0131,0.0000,-33.1875,16.7500,165.3750,18.1250,-151.6875,0
513.019,9.5600,1.4365,1.3910,-0.0056,0.2681,0.1791,-46.9500,12.9000,9.7500,9.3948,1.7645,0.4046,0.0711,0.4719,0.1753,-65.1000,29.8500,-32.4000,2.9800,4.5100,-8.1300,0.1025,-0.0611,-0.0131,0.0000,-33.1875,16.7500,165.3750,18.1250,-151.6875,0
513.025,9.5600,1.4365,1.3910,-0.0056,0.2681,0.1791,-46.9500,12.9000,9.7500,9.3901,1.2498,0.7087,0.0080,0.4871,0.1833,-65.1000,29.8500,-32.4000,2.9300,4.5200,-8.1300,0.1124,-0.0687,-0.0087,0.0000,-33.1875,16.7500,165.3750,18.0625,-151.7500,0
513.030,9.4427,1.3408,1.4820,-0.0043,0.2678,0.1556,-46.9500,12.9000,9.7500,9.3901,1.2498,0.7087,0.0080,0.4871,0.1833,-65.1000,29.8500,-32.4000,2.9300,4.5200,-8.1300,0.1124,-0.0687,-0.0087,0.0000,-33.1875,16.7500,165.3750,18.0625,-151.7500,0
513.035,9.4427,1.3408,1.4820,-0.0043,0.2678,0.1556,-46.9500,12.9000,9.7500,9.3781,1.1899,1.1349,-0.1170,0.4903,0.1974,-65.1000,29.8500,-32.4000,2.9300,4.5200,-8.1300,0.1309,-0.0753,0.0011,0.0000,-33.1875,16.7500,165.3750,18.0000,-151.8125,0
513.040,9.4379,1.2929,1.6305,-0.0485,0.2547,0.1351,-46.8000,12.0000,10.9500,9.3781,1.1899,1.1349,-0.1170,0.4903,0.1974,-64.8000,28.5000,-33.3000,2.9700,4.5100,-8.2000,0.1309,-0.0753,0.0011,0.0000,-33.1875,16.7500,165.3750,18.0000,-151.8125,0
513.049,9.2895,1.0822,1.7286,-0.1186,0.2409,0.1250,-47.5500,13.8000,10.2000,9.4523,1.2091,1.3144,-0.2276,0.4935,0.2185,-64.8000,28.5000,-33.3000,3.1000,4.4200,-8.2000,0.1396,-0.0884,0.0164,0.0000,-33.1875,16.7500,165.3750,18.0000,-151.9375,0
513.053,9.2895,1.0822,1.7286,-0.1186,0.2409,0.1250,-47.5500,13.8000,10.2000,9.4475,1.3360,1.2737,-0.2731,0.4922,0.2449,-64.8000,28.5000,-33.3000,3.1000,4.4200,-8.2000,0.1418,-0.0993,0.0251,0.0000,-33.1875,16.7500,165.3750,17.9375,-152.0000,0
513.060,9.4930,0.8691,1.8196,-0.2249,0.2505,0.1218,-46.9500,11.4000,8.7000,9.4475,1.3360,1.2737,-0.2731,0.4922,0.2449,-66.1500,29.1000,-33.7500,3.0900,4.3900,-8.1800,0.1418,-0.0993,0.0251,0.0000,-33.1875,16.7500,165.3750,17.9375,-152.0000,0
513.064,9.4930,0.8691,1.8196,-0.2249,0.2505,0.1218,-46.9500,11.4000,8.7000,9.3901,1.4892,0.9122,-0.3144,0.4858,0.2657,-66.1500,29.1000,-33.7500,3.0900,4.3900,-8.1800,0.1418,-0.0993,0.0251,0.0000,-33.1875,16.7500,165.0625,17.8750,-152.1250,0
513.069,9.6127,0.7757,1.8675,-0.3104,0.2268,0.1207,-46.9500,11.4000,9.3000,9.3901,1.4892,0.9122,-0.3144,0.4858,0.2657,-66.1500,29.1000,-33.7500,3.1400,4.3600,-8.2500,0.1385,-0.1004,0.0262,0.0000,-33.1875,17.1875,165.0625,17.8750,-152.1250,0
513.074,9.6127,0.7757,1.8675,-0.3104,0.2268,0.1207,-46.9500,11.4000,9.3000,9.2105,1.6999,0.7973,-0.2734,0.5049,0.2939,-67.2000,27.7500,-32.5500,3.1400,4.3600,-8.2500,0.1385,-0.1004,0.0262,0.0000,-33.1875,17.1875,165.1250,17.8750,-152.1875,0
513.079,9.6175,0.7350,1.7885,-0.3621,0.1956,0.1159,-46.9500,11.4000,9.3000,9.2105,1.6999,0.7973,-0.2734,0.5049,0.2939,-67.2000,27.7500,-32.5500,3.0800,4.3000,-8.2800,0.1385,-0.1047,0.0240,0.0000,-33.1875,17.1875,165.1250,17.8750,-152.1875,0
513.084,9.6175,0.7350,1.7885,-0.3621,0.1956,0.1159,-46.9500,11.4000,9.3000,9.2632,1.9393,0.7901,-0.2406,0.5231,0.3006,-63.4500,28.6500,-32.7000,3.0800,4.3000,-8.2800,0.1276,-0.0960,0.0218,0.0000,-33.1875,17.1875,165.1250,17.8125,-152.2500,0
513.090,9.5960,0.8930,1.6688,-0.3770,0.1564,0.1071,-45.9000,11.7000,8.2500,9.4020,1.9321,1.0271,-0.2406,0.5231,0.3006,-63.4500,28.6500,-32.7000,3.0400,4.4100,-8.2500,0.1276,-0.0960,0.0218,0.0000,-33.1875,17.1875,165.1250,17.8125,-152.2500,0
513.098,9.4858,1.0127,1.6735,-0.3794,0.1207,0.0799,-47.7000,12.4500,9.7500,9.4020,1.9321,1.0271,-0.1756,0.5606,0.3187,-65.5500,30.0000,-33.3000,2.9000,4.4600,-8.2800,0.1254,-0.0905,0.0175,0.0000,-33.1875,17.1875,165.1250,17.7500,-152.3750,0
513.103,9.4858,1.0127,1.6735,-0.3794,0.1207,0.0799,-47.7000,12.4500,9.7500,9.6223,1.6592,1.6328,-0.1809,0.5726,0.3203,-66.6000,29.1000,-33.0000,2.9000,4.4600,-8.2800,0.1320,-0.0862,0.0175,0.0000,-33.1875,17.1875,165.1250,17.7500,-152.4375,0
513.110,9.4667,1.1732,1.8962,-0.4205,0.1005,0.0514,-47.8500,12.7500,9.6000,9.7372,1.1492,2.2194,-0.1990,0.5790,0.3304,-66.6000,29.1000,-33.0000,2.8700,4.5500,-8.2300,0.1320,-0.0862,0.0175,0.0000,-33.1875,17.1875,165.1250,17.7500,-152.4375,0
513.115,9.3829,0.9840,2.2290,-0.5153,0.1055,0.0341,-47.8500,12.7500,9.6000,9.7372,1.1492,2.2194,-0.1990,0.5790,0.3304,-65.1000,28.6500,-31.6500,2.8700,4.5500,-8.2300,0.1396,-0.0884,0.0295,-0.6875,-33.1875,16.7500,165.0000,17.6875,-152.5000,0
513.120,9.3829,0.9840,2.2290,-0.5153,0.1055,0.0341,-46.9500,10.6500,8.7000,9.7372,0.6297,2.6456,-0.2705,0.5612,0.3451,-65.1000,28.6500,-31.6500,2.8800,4.6600,-8.2800,0.1396,-0.0884,0.0295,-0.6875,-33.1875,16.7500,165.0000,17.6875,-152.5000,0
513.125,9.2727,0.7661,2.7078,-0.6523,0.1378,0.0362,-46.9500,10.6500,8.7000,9.7372,0.6297,2.6456,-0.2705,0.5612,0.3451,-65.1000,28.6500,-31.6500,2.8800,4.6600,-8.2800,0.1494,-0.0916,0.0480,-0.6875,-33.1875,16.7500,165.0625,17.6875,-152.6250,0
513.130,9.2727,0.7661,2.7078,-0.6523,0.1378,0.0362,-48.0000,11.4000,9.7500,9.7229,0.3496,2.4828,-0.4042,0.5417,0.3744,-65.1000,28.6500,-31.6500,3.0000,4.5000,-8.3000,0.1494,-0.0916,0.0480,-0.6875,-33.1875,16.7500,165.0625,17.6875,-152.6250,0
513.135,9.3326,0.4214,2.9497,-0.7674,0.1612,0.0687,-48.0000,11.4000,9.7500,9.7229,0.3496,2.4828,-0.4042,0.5417,0.3744,-65.5500,28.0500,-31.0500,3.0000,4.5000,-8.3000,0.1462,-0.0938,0.0687,-0.6875,-33.1875,16.7500,165.0625,17.6250,-152.6875,0
513.140,9.3326,0.4214,2.9497,-0.7674,0.1612,0.0687,-48.0000,11.4000,9.7500,9.7899,0.6057,2.2913,-0.4778,0.5052,0.4034,-65.5500,28.0500,-31.0500,3.0800,4.3600,-8.3500,0.1462,-0.0938,0.0687,-0.6875,-33.1875,16.7500,165.0625,17.6250,-152.6875,0
513.149,9.3470,0.0982,3.1005,-0.8338,0.1737,0.1085,-45.7500,9.7500,9.9000,9.5792,0.8906,1.8387,-0.4882,0.4679,0.4197,-66.3000,29.2500,-32.5500,3.0700,4.2500,-8.3900,0.1298,-0.0807,0.0676,-0.6875,-33.1875,16.7500,165.1250,17.6250,-152.7500,0
513.159,9.7803,0.0072,2.8898,-0.8287,0.1767,0.1274,-47.1000,12.0000,10.9500,9.5505,1.0008,1.6975,-0.4082,0.4764,0.4367,-68.1000,29.5500,-30.9000,3.0000,4.2100,-8.4100,0.1047,-0.0676,0.0622,-0.6875,-33.1875,16.7500,165.1875,17.6250,-152.8750,0
513.164,9.9455,0.1149,2.5187,-0.7770,0.1343,0.1410,-47.1000,12.0000,10.9500,9.5505,1.0008,1.6975,-0.4082,0.4764,0.4367,-66.7500,27.7500,-31.3500,3.0000,4.2100,-8.4100,0.1047,-0.0676,0.0622,-0.6875,-33.1875,16.7500,165.1875,17.6250,-152.8750,0
513.169,9.9455,0.1149,2.5187,-0.7770,0.1343,0.1410,-46.9500,11.4000,10.5000,9.5289,0.8332,1.6879,-0.3643,0.4780,0.4415,-66.7500,27.7500,-31.3500,3.0000,4.2200,-8.4100,0.0753,-0.0436,0.0556,-0.2500,-34.0000,17.5625,165.0000,17.5625,-152.9375,0
513.173,9.8474,0.3759,2.2170,-0.7011,0.0927,0.1372,-46.9500,11.4000,10.5000,9.5289,0.8332,1.6879,-0.3643,0.4780,0.4415,-66.3000,27.0000,-30.3000,3.0000,4.2200,-8.4100,0.0753,-0.0436,0.0556,-0.2500,-34.0000,17.5625,165.0000,17.5625,-152.9375,0
513.179,9.8474,0.3759,2.2170,-0.7011,0.0927,0.1372,-45.3000,12.3000,10.9500,9.5672,0.9266,1.5730,-0.3653,0.5012,0.4557,-66.3000,27.0000,-30.3000,2.9600,4.2100,-8.4400,0.0393,-0.0240,0.0513,-0.2500,-34.0000,17.5625,165.0000,17.5625,-152.9375,0
513.183,9.7205,0.7685,1.9968,-0.6161,0.0640,0.1116,-45.3000,12.3000,10.9500,9.5672,0.9266,1.5730,-0.3653,0.5012,0.4557,-66.3000,29.7000,-31.8000,2.9600,4.2100,-8.4400,-0.0033,0.0055,0.0567,-0.2500,-34.0000,17.5625,165.0625,17.6250,-152.9375,0
513.190,9.7205,0.7685,1.9968,-0.6161,0.0640,0.1116,-45.3000,12.3000,10.9500,9.6941,1.6137,2.2122,-0.3616,0.4874,0.4767,-66.3000,29.7000,-31.8000,2.8700,4.2900,-8.4200,-0.0033,0.0055,0.0567,-0.2500,-34.0000,17.5625,165.0625,17.6250,-152.9375,0
513.198,9.7588,1.1061,1.9130,-0.5862,0.0226,0.0735,-46.9500,11.4000,10.0500,10.1394,2.3703,1.8196,-0.4311,0.4660,0.5244,-66.3000,29.7000,-31.8000,2.7500,4.3100,-8.4100,-0.0491,0.0327,0.0644,-0.2500,-34.0000,17.5625,165.0625,17.6250,-152.9375,0
513.203,10.3621,1.3479,1.9728,-0.6131,-0.0258,0.0250,-46.9500,11.4000,10.0500,10.1394,2.3703,1.8196,-0.4311,0.4660,0.5244,-67.5000,27.7500,-29.8500,2.7500,4.3100,-8.4100,-0.1058,0.0665,0.0851,-0.2500,-34.0000,17.5625,165.1250,17.6875,-152.8750,0
513.210,10.3621,1.3479,1.9728,-0.6131,-0.0258,0.0250,-45.4500,11.7000,11.5500,10.3046,0.3783,1.6209,-0.2697,0.5255,0.5295,-67.5000,27.7500,-29.8500,2.9900,4.2100,-8.9200,-0.1058,0.0665,0.0851,-0.2500,-34.0000,17.5625,165.1250,17.6875,-152.8750,0
513.215,10.5896,1.5107,2.0925,-0.6928,-0.0536,0.0000,-46.8000,10.8000,9.9000,10.1969,-1.0558,1.5993,-0.2697,0.5255,0.5295,-67.5000,27.7500,-29.8500,2.9900,4.2100,-8.9200,-0.1778,0.1254,0.0938,0.0000,-32.8750,17.1875,164.9375,17.7500,-152.8125,0
513.220,10.5896,1.5107,2.0925,-0.6928,-0.0536,0.0000,-46.8000,10.8000,9.9000,10.1969,-1.0558,1.5993,-0.4069,0.5604,0.5260,-67.5000,27.7500,-29.8500,2.9400,4.9400,-8.3300,-0.1778,0.1254,0.0938,0.0000,-32.8750,17.1875,164.9375,17.7500,-152.8125,0
513.225,10.1778,1.3671,2.0399,-0.7490,-0.0181,-0.0144,-45.3000,13.0500,12.0000,9.7205,-0.4621,0.9553,-0.8207,0.5351,0.5521,-65.8500,28.6500,-29.4000,2.9400,4.9400,-8.3300,-0.2771,0.1724,0.1124,0.0000,-32.8750,17.1875,165.0000,17.8750,-152.6250,0
513.230,10.1778,1.3671,2.0399,-0.7490,-0.0181,-0.0144,-45.3000,13.0500,12.0000,9.7205,-0.4621,0.9553,-0.8207,0.5351,0.5521,-65.8500,28.6500,-29.4000,2.8400,4.7400,-8.4500,-0.2771,0.1724,0.1124,0.0000,-32.8750,17.1875,165.0000,17.8750,-152.6250,0
513.235,10.2017,1.3455,1.6137,-0.6851,-0.0043,-0.0253,-47.4000,12.9000,12.6000,9.8617,1.1660,0.7973,-0.8873,0.5500,0.6214,-67.3500,28.3500,-28.9500,2.8400,4.7400,-8.4500,-0.3676,0.1876,0.1516,0.0000,-32.8750,17.1875,165.1250,18.0000,-152.4375,0
513.240,10.5441,1.5730,1.3886,-0.6251,-0.1047,-0.0472,-47.4000,12.9000,12.6000,9.8617,1.1660,0.7973,-0.8873,0.5500,0.6214,-67.3500,28.3500,-28.9500,2.9500,4.3600,-8.7300,-0.3676,0.1876,0.1516,0.0000,-32.8750,17.1875,165.1875,18.1875,-152.1875,0
513.249,10.5441,1.5730,1.3886,-0.6440,-0.2230,-0.0786,-47.4000,12.9000,12.6000,10.5345,1.9441,0.7661,-0.6547,0.5891,0.6728,-67.3500,28.6500,-28.9500,3.0400,3.8600,-8.9900,-0.4265,0.2454,0.1833,0.0000,-32.8750,17.1875,165.1875,18.1875,-152.1875,0
513.259,11.2647,1.7310,0.8308,-0.6286,-0.2960,-0.1306,-45.3000,10.5000,10.6500,10.9702,1.4174,0.6057,-0.3904,0.6515,0.6912,-67.5000,27.7500,-28.0500,2.9300,4.6800,-9.0300,-0.4931,0.3545,0.1953,0.0000,-32.8750,17.1875,165.3125,18.3750,-151.9375,0
513.264,11.2647,1.7310,0.8308,-0.6286,-0.2960,-0.1306,-46.0500,11.5500,12.7500,11.2001,0.3711,0.6632,-0.2825,0.7293,0.6952,-67.5000,27.7500,-28.0500,2.9300,4.6800,-9.0300,-0.4931,0.3545,0.1953,0.0000,-32.8750,17.1875,165.3125,18.3750,-151.9375,0
513.269,11.7005,1.8579,0.3903,-0.5268,-0.3291,-0.1796,-46.0500,11.5500,12.7500,11.2001,0.3711,0.6632,-0.2825,0.7293,0.6952,-67.5000,27.7500,-28.0500,2.8700,5.1600,-9.0000,-0.5890,0.4909,0.2214,-1.0000,-32.1875,17.5625,165.3125,18.6875,-151.6250,0
513.274,11.7005,1.8579,0.3903,-0.5268,-0.3291,-0.1796,-46.5000,12.0000,11.4000,11.3030,-0.7805,0.2849,-0.4303,0.7831,0.7139,-66.1500,27.4500,-27.1500,2.8700,5.1600,-9.0000,-0.5890,0.4909,0.2214,-1.0000,-32.1875,17.5625,165.3125,18.6875,-151.6250,0
513.279,11.5760,1.9106,0.2179,-0.4037,-0.3624,-0.2206,-46.5000,12.0000,11.4000,11.3030,-0.7805,0.2849,-0.4303,0.7831,0.7139,-66.1500,27.4500,-27.1500,2.9200,5.3400,-8.9700,-0.6949,0.6207,0.2880,-1.0000,-32.1875,17.5625,165.4375,19.0625,-151.1875,0
513.283,11.5760,1.9106,0.2179,-0.4037,-0.3624,-0.2206,-45.7500,11.5500,11.4000,11.2887,-0.8619,0.3855,-0.4991,0.8948,0.7533,-66.1500,27.4500,-27.1500,2.9200,5.3400,-8.9700,-0.7767,0.7778,0.3829,-1.0000,-32.1875,17.5625,165.6250,19.5625,-150.7500,0
513.290,11.3318,1.7454,0.1867,-0.3027,-0.3653,-0.2489,-45.7500,11.5500,11.4000,11.2887,-0.8619,0.3855,-0.4991,0.8948,0.7533,-66.1500,27.4500,-27.1500,1.7100,4.0800,-9.6000,-0.7767,0.7778,0.3829,-1.0000,-32.1875,17.5625,165.8125,20.1875,-150.3125,0
513.299,11.3461,1.7597,0.3687,-0.2697,-0.3962,-0.2593,-45.7500,11.5500,11.4000,11.4203,-0.0790,1.1899,-0.4237,0.9118,0.7165,-66.6000,26.4000,-28.2000,1.9900,6.4700,-8.5000,-0.7789,0.9927,0.4265,-1.0000,-32.1875,17.5625,165.8125,20.1875,-150.3125,0
513.309,11.0373,1.6233,0.2969,-0.2779,-0.4365,-0.2694,-46.0500,11.5500,10.9500,10.6877,-0.3184,1.0151,-0.5681,0.9475,0.6800,-69.7500,27.0000,-27.3000,2.3600,5.3100,-8.7900,-0.6741,1.2675,0.5847,-1.0000,-32.1875,17.5625,166.0625,20.9375,-149.9375,0
513.314,11.0373,1.6233,0.2969,-0.2779,-0.4365,-0.2694,-47.4000,11.7000,11.8500,10.5752,-0.5387,0.7709,-0.5830,1.0352,0.7197,-66.7500,26.5500,-26.5500,2.3600,5.3100,-8.7900,-0.6741,1.2675,0.5847,-1.0000,-32.1875,17.5625,166.0625,20.9375,-149.9375,0
513.319,10.6925,1.6592,0.0479,-0.2918,-0.5081,-0.2739,-47.4000,11.7000,11.8500,10.5752,-0.5387,0.7709,-0.5830,1.0352,0.7197,-66.7500,26.5500,-26.5500,2.8100,4.3300,-8.6700,-0.4865,1.5141,0.7450,-1.7500,-32.8750,16.3750,166.2500,21.8750,-149.6250,0
513.324,10.6925,1.6592,0.0479,-0.2918,-0.5081,-0.2739,-46.5000,12.0000,10.2000,10.7332,-0.6393,1.0056,-0.7037,1.0674,0.7738,-67.9500,26.5500,-27.7500,2.8100,4.3300,-8.6700,-0.4865,1.5141,0.7450,-1.7500,-32.8750,16.3750,166.2500,21.8750,-149.6250,0
513.329,10.5153,1.9130,-0.2418,-0.3312,-0.6099,-0.2734,-46.5000,12.0000,10.2000,10.7045,-0.6345,1.1109,-0.7037,1.0674,0.7738,-67.9500,26.5500,-27.7500,3.0500,4.2900,-8.3900,-0.4091,1.7170,0.8912,-1.7500,-32.8750,16.3750,166.5625,22.9375,-149.3750,0
513.334,10.5153,1.9130,-0.2418,-0.3312,-0.6099,-0.2734,-46.0500,13.8000,11.4000,10.7045,-0.6345,1.1109,-0.7432,1.0752,0.8143,-68.2500,25.0500,-26.2500,3.0500,4.2900,-8.3900,-0.3022,1.8686,1.0221,-1.7500,-32.8750,16.3750,166.8750,24.1250,-149.1875,0
513.340,10.3166,2.2362,-0.5387,-0.3762,-0.7173,-0.2894,-46.0500,13.8000,11.4000,10.6877,0.0934,0.4453,-0.7117,1.0842,0.8402,-68.2500,25.0500,-26.2500,3.4600,4.2000,-8.2900,-0.3022,1.8686,1.0221,-1.7500,-32.8750,16.3750,167.3125,25.3750,-149.0625,0
513.350,10.0628,2.4756,-0.9481,-0.3826,-0.8279,-0.3285,-46.2000,11.7000,12.6000,10.8673,0.6847,-0.2897,-0.7117,1.0842,0.8402,-68.1000,26.4000,-25.3500,3.6100,3.4000,-8.0400,-0.1931,2.0159,1.1672,-1.7500,-32.8750,16.3750,167.7500,26.8125,-148.9375,0
513.360,9.6941,2.7653,-1.3767,-0.3046,-0.9137,-0.3853,-46.2000,11.7000,12.6000,11.1402,1.1971,-0.2514,-0.7690,1.2047,0.9702,-68.1000,26.4000,-25.3500,6.2300,6.5600,-8.8800,-0.2116,2.1926,1.3221,-1.7500,-32.8750,16.3750,167.7500,26.8125,-148.9375,0
513.364,9.6941,2.7653,-1.3767,-0.3046,-0.9137,-0.3853,-45.1500,13.6500,10.5000,11.1402,1.1971,-0.2514,-0.7690,1.2047,0.9702,-68.7000,25.3500,-24.3000,6.2300,6.5600,-8.8800,-0.2116,2.1926,1.3221,-1.7500,-32.8750,16.3750,168.2500,28.3750,-148.8125,0
513.369,9.2177,3.1005,-2.0949,-0.1154,-0.9446,-0.4887,-45.1500,13.6500,10.5000,11.2791,1.5658,0.1269,-0.7155,1.2598,1.0413,-68.7000,25.3500,-24.3000,4.1300,4.9900,-8.4000,-0.3196,2.3606,1.5283,-3.1875,-34.3750,15.1875,168.2500,28.3750,-148.8125,0
513.374,9.2177,3.1005,-2.0949,-0.1154,-0.9446,-0.4887,-46.5000,13.5000,9.9000,11.2791,1.5658,0.1269,-0.7155,1.2598,1.0413,-68.1000,24.0000,-24.1500,4.1300,4.9900,-8.4000,-0.3196,2.3606,1.5283,-3.1875,-34.3750,15.1875,168.2500,28.3750,-148.8125,0
513.379,8.7245,3.8642,-3.6248,0.0552,-0.9177,-0.6366,-46.5000,13.5000,9.9000,11.3916,1.3934,-0.2945,-0.5700,1.3257,1.1138,-68.1000,24.0000,-24.1500,3.8800,4.7200,-8.4000,-0.0938,2.2962,1.7104,-3.1875,-34.3750,15.1875,168.9375,29.9375,-148.8125,0
513.384,8.7245,3.8642,-3.6248,0.0552,-0.9177,-0.6366,-44.8500,12.1500,11.1000,11.3916,1.3934,-0.2945,-0.5700,1.3257,1.1138,-69.6000,24.7500,-22.6500,3.8800,4.7200,-8.4000,0.0905,2.4184,1.8730,-3.1875,-34.3750,15.1875,169.5625,31.6250,-149.0000,0
513.390,9.3948,4.1946,-3.6009,0.1058,-1.1469,-0.8394,-44.8500,12.1500,11.1000,11.1498,0.8092,-1.0319,-0.4746,1.4035,1.1514,-69.6000,24.7500,-22.6500,4.5100,5.2500,-8.7300,0.0905,2.4184,1.8730,-3.1875,-34.3750,15.1875,170.3125,33.4375,-149.3750,0
513.400,8.9567,4.0007,-1.8364,-0.1847,-1.4669,-0.9888,-45.3000,13.5000,11.4000,10.9654,0.3184,-1.2977,-0.3661,1.4879,1.1215,-69.4500,23.4000,-22.9500,4.5500,5.4800,-8.3900,0.3512,2.5187,2.0311,-3.1875,-34.3750,15.1875,170.3125,33.4375,-149.3750,0
513.410,8.6287,2.9305,-0.2442,-0.2388,-1.3001,-0.9753,-45.3000,13.5000,11.4000,10.6326,0.7781,-1.2570,-0.3400,1.5370,1.0515,-69.7500,22.9500,-21.7500,4.8200,5.8300,-7.9600,0.5858,2.5820,2.1566,-3.1875,-34.3750,15.1875,241.6250,35.2500,-149.8750,0
513.414,8.9615,1.9968,0.0766,0.3965,-1.3235,-0.9417,-46.5000,14.5500,10.6500,10.6326,0.7781,-1.2570,-0.3400,1.5370,1.0515,-68.8500,24.0000,-21.1500,4.8200,5.8300,-7.9600,0.5858,2.5820,2.1566,-3.1875,-34.3750,15.1875,237.4375,37.2500,-150.6250,0
513.420,8.9615,1.9968,0.0766,0.3965,-1.3235,-0.9417,-46.5000,14.5500,10.6500,10.5656,1.4533,-1.0175,-0.3238,1.5404,0.9846,-68.8500,24.0000,-21.1500,4.9600,5.6900,-7.8000,0.7810,2.7151,2.3464,-6.8750,-33.1875,14.3750,237.4375,37.2500,-150.6250,0
513.424,9.9766,1.9752,0.3783,0.6217,-1.3531,-1.0099,-45.4500,13.2000,10.5000,10.5656,1.4533,-1.0175,-0.3238,1.5404,0.9846,-68.8500,24.0000,-21.1500,4.9600,5.6900,-7.8000,0.7810,2.7151,2.3464,-6.8750,-33.1875,14.3750,233.0000,39.3125,-151.5625,0
513.429,9.9766,1.9752,0.3783,0.6217,-1.3531,-1.0099,-45.4500,13.2000,10.5000,10.4076,1.8364,0.0527,-0.2566,1.4645,0.9121,-68.8500,24.0000,-21.1500,4.6900,5.3200,-8.2600,0.9665,2.7936,2.6714,-6.8750,-33.1875,14.3750,233.0000,39.3125,-151.5625,0
513.434,10.5034,1.6616,0.1125,0.6488,-1.4882,-1.1040,-45.0000,15.0000,8.5500,10.4076,1.8364,0.0527,-0.2566,1.4645,0.9121,-68.1000,23.5500,-20.8500,4.6900,5.3200,-8.2600,1.0559,2.6660,2.8820,-6.8750,-33.1875,14.3750,228.6250,41.3750,-152.8125,0
513.440,10.5034,1.6616,0.1125,0.6488,-1.4882,-1.1040,-42.7500,14.5500,8.1000,9.4786,1.8866,0.9218,-0.1964,1.4597,0.8052,-68.1000,23.5500,-20.8500,4.8400,5.7500,-7.9000,1.0559,2.6660,2.8820,-6.8750,-33.1875,14.3750,224.1250,43.4375,-154.2500,0
513.450,10.5824,1.2977,-0.0311,0.6376,-1.4781,-1.1660,-42.7500,14.5500,8.1000,8.7173,1.8699,1.8866,-0.1711,1.4727,0.7083,-68.1000,23.5500,-20.8500,5.6400,5.9100,-8.5000,1.2359,2.6616,3.0685,-6.8750,-33.1875,14.3750,224.1250,43.4375,-154.2500,0
513.459,10.5560,0.7159,0.1030,0.4954,-1.4959,-1.1788,-43.6500,15.9000,6.9000,8.3893,1.0391,3.1005,-0.0525,1.4509,0.6267,-70.3500,22.8000,-20.1000,6.2700,4.3400,-7.7200,1.6253,2.7478,3.2496,-6.8750,-33.1875,14.3750,219.2500,45.5625,-156.1250,0
513.464,9.9096,0.0694,0.5842,0.3099,-1.2995,-1.1570,-43.6500,15.9000,6.9000,8.3917,-0.2107,4.4843,-0.0525,1.4509,0.6267,-69.4500,22.9500,-19.5000,6.2700,4.3400,-7.7200,1.6253,2.7478,3.2496,-6.8750,-33.1875,14.3750,219.2500,45.5625,-156.1250,0
513.469,9.9096,0.0694,0.5842,0.3099,-1.2995,-1.1570,-43.6500,15.9000,6.9000,8.3917,-0.2107,4.4843,0.0456,1.5034,0.5862,-69.4500,22.9500,-19.5000,7.3100,5.6000,-7.5900,1.7879,2.7194,3.1700,-13.1875,-32.8750,15.1875,214.4375,47.6250,-158.2500,0
513.474,9.6103,-0.5507,1.1420,-0.0322,-1.0509,-1.1215,-43.5000,15.7500,6.7500,8.9735,-1.9178,8.3199,0.0456,1.5034,0.5862,-70.2000,22.9500,-19.2000,7.3100,5.6000,-7.5900,1.7879,2.7194,3.1700,-13.1875,-32.8750,15.1875,214.4375,47.6250,-158.2500,0
513.479,9.6103,-0.5507,1.1420,-0.0322,-1.0509,-1.1215,-43.5000,15.7500,6.7500,8.9735,-1.9178,8.3199,0.3869,1.5564,0.5657,-70.2000,22.9500,-19.2000,8.7200,7.3000,-8.0100,1.7639,2.8231,2.9267,-13.1875,-32.8750,15.1875,209.9375,49.6875,-160.3125,0
513.484,10.0149,-0.8499,1.6616,-0.6209,-0.7210,-1.0733,-42.6000,15.9000,6.1500,10.0748,-3.0406,12.3445,0.3869,1.5564,0.5657,-70.2000,22.9500,-19.2000,8.7200,7.3000,-8.0100,1.8457,3.0925,2.5253,-13.1875,-32.8750,15.1875,205.6875,51.7500,-162.3125,0
513.490,10.0149,-0.8499,1.6616,-0.6209,-0.7210,-1.0733,-43.6500,14.7000,6.9000,10.0748,-3.0406,12.3445,0.7647,1.5005,0.5505,-68.1000,21.3000,-18.6000,12.4900,5.5600,-8.4300,1.8457,3.0925,2.5253,-13.1875,-32.8750,15.1875,202.0625,53.7500,-164.0000,0
513.500,11.4610,-1.1420,1.7454,-1.1362,-0.6616,-1.0224,-43.9500,16.0500,7.0500,10.5225,-1.7741,13.9175,1.1026,1.2598,0.4964,-68.1000,21.3000,-18.6000,12.1500,7.0300,-9.3500,1.7377,3.1274,1.9875,-13.1875,-32.8750,15.1875,202.0625,53.7500,-164.0000,0
513.510,12.6486,-0.9840,2.9401,-1.3784,-0.9249,-1.0267,-43.9500,16.0500,7.0500,9.1626,-1.0175,7.0701,0.2904,0.8665,0.3930,-68.4000,20.1000,-17.1000,8.5800,10.4600,-9.8600,1.4988,2.6387,1.4835,-13.1875,-32.8750,15.1875,199.1875,55.3750,-165.3750,0
513.515,13.0364,-0.4405,3.6129,-1.3955,-1.1525,-1.0789,-43.9500,16.0500,7.0500,8.7005,-0.4669,6.5074,0.4908,0.8652,0.2899,-68.4000,20.1000,-17.1000,8.5800,10.4600,-9.8600,1.4988,2.6387,1.4835,-13.1875,-32.8750,15.1875,199.1875,55.3750,-165.3750,0
513.520,13.0364,-0.4405,3.6129,-1.3955,-1.1525,-1.0789,-41.5500,17.4000,6.4500,8.7005,-0.4669,6.5074,0.4908,0.8652,0.2899,-68.4000,20.1000,-17.1000,2.7100,4.4200,-12.5800,0.8738,1.6242,0.9272,-19.0000,-29.1875,16.3750,197.3125,56.3750,-166.3125,0
513.524,12.3876,0.2849,4.0151,-1.2409,-1.2433,-1.1231,-41.5500,17.4000,6.4500,9.1770,0.2610,6.6343,0.0994,0.5268,0.1178,-68.8500,20.8500,-16.3500,2.7100,4.4200,-12.5800,0.8738,1.6242,0.9272,-19.0000,-29.1875,16.3750,197.3125,56.3750,-166.3125,0
513.529,12.3876,0.2849,4.0151,-1.2409,-1.2433,-1.1231,-40.6500,15.3000,8.5500,9.1770,0.2610,6.6343,0.0994,0.5268,0.1178,-68.8500,20.8500,-16.3500,-1.0500,11.0800,-10.9400,0.2585,0.7636,0.7309,-19.0000,-29.1875,16.3750,196.5000,56.8750,-166.8750,0
513.534,11.5855,0.7374,4.1611,-1.0376,-1.0653,-1.0917,-40.6500,15.3000,8.5500,7.7548,0.5866,3.7493,0.2326,0.2539,-0.0890,-68.8500,20.8500,-16.3500,-1.0500,11.0800,-10.9400,0.1189,-0.2618,0.6272,-19.0000,-29.1875,16.3750,196.1250,56.8125,-167.5000,0
513.541,10.9271,1.1349,3.5195,-0.8340,-0.8988,-1.0611,-41.8500,17.4000,9.0000,7.7548,0.5866,3.7493,0.2326,0.2539,-0.0890,-68.7000,21.9000,-17.4000,-2.4100,12.0700,-8.3000,0.1189,-0.2618,0.6272,-19.0000,-29.1875,16.3750,195.6250,56.0625,-168.1875,0
513.550,9.8474,1.6209,3.2106,-0.6110,-0.7639,-1.0584,-40.6500,18.0000,7.0500,6.9911,0.3567,3.5602,0.4687,0.0450,-0.3248,-69.0000,22.6500,-16.9500,-1.5600,8.0800,-6.5700,0.6850,-1.4094,0.0175,-19.0000,-29.1875,16.3750,195.6250,56.0625,-168.1875,0
513.560,9.1435,2.1165,2.9353,-0.4162,-0.5921,-1.0307,-41.5500,17.7000,8.2500,6.5122,-0.2083,5.0302,0.6030,-0.2369,-0.5353,-68.4000,21.6000,-17.1000,-2.8300,5.6800,-3.0300,0.5869,-1.7922,-0.7243,-19.0000,-29.1875,16.3750,195.6250,55.0000,-168.1875,0
513.565,9.1435,2.1165,2.9353,-0.4162,-0.5921,-1.0307,-41.5500,17.7000,8.2500,5.6527,-0.9170,5.4875,0.5734,-0.6265,-0.5828,-69.1500,23.2500,-17.5500,-2.8300,5.6800,-3.0300,0.5869,-1.7922,-0.7243,-19.0000,-29.1875,16.3750,196.0000,54.0625,-167.6250,0
513.570,8.8490,2.3559,2.5977,-0.1985,-0.5255,-0.9982,-41.5500,17.7000,8.2500,5.2098,-0.7230,5.0877,0.5734,-0.6265,-0.5828,-69.1500,23.2500,-17.5500,0.4700,6.5400,-5.4200,0.0491,-1.4421,-1.1432,-21.5625,-27.3750,15.5625,196.0000,54.0625,-167.6250,0
513.575,8.8490,2.3559,2.5977,-0.1985,-0.5255,-0.9982,-41.5500,17.7000,8.2500,5.2098,-0.7230,5.0877,0.3933,-0.9430,-0.5700,-69.1500,23.2500,-17.5500,0.4700,6.5400,-5.4200,0.0491,-1.4421,-1.1432,-21.5625,-27.3750,15.5625,196.0000,54.0625,-167.6250,0
513.580,8.7652,2.4014,2.3918,0.0858,-0.4967,-0.9686,-40.8000,18.1500,6.4500,5.2768,-0.2634,4.3551,0.3933,-0.9430,-0.5700,-68.7000,23.4000,-17.4000,1.7000,6.5300,-6.0100,-0.1789,-1.1006,-1.3363,-21.5625,-27.3750,15.5625,197.1250,53.3125,-166.6875,0
513.584,8.7652,2.4014,2.3918,0.0858,-0.4967,-0.9686,-40.8000,18.1500,6.4500,5.2768,-0.2634,4.3551,0.2054,-1.2143,-0.5915,-68.7000,23.4000,-17.4000,1.7000,6.5300,-6.0100,-0.1233,-2.0857,-1.6515,-21.5625,-27.3750,15.5625,198.5625,51.9375,-165.8125,0
513.591,8.7508,2.5307,2.3894,0.2571,-0.4282,-0.9342,-40.9500,16.8000,9.1500,5.6216,-0.1077,3.4644,0.0789,-1.4216,-0.6467,-68.7000,23.4000,-17.4000,-1.0100,4.6600,-3.0800,-0.1233,-2.0857,-1.6515,-21.5625,-27.3750,15.5625,200.3750,50.4375,-164.8750,0
513.600,8.5928,2.5235,2.0279,0.2971,-0.2859,-0.8719,-39.4500,17.2500,8.8500,5.7293,-0.6321,3.5793,0.0917,-1.6497,-0.7562,-68.1000,22.8000,-18.6000,0.1100,4.1600,-3.1600,-0.1756,-2.3529,-1.9013,-21.5625,-27.3750,15.5625,200.3750,50.4375,-164.8750,0
513.610,8.5114,2.3056,1.6400,0.2627,-0.1423,-0.7938,-39.4500,18.0000,7.8000,5.7772,-0.0455,3.6679,-0.0549,-1.8532,-0.8884,-67.5000,24.1500,-19.2000,0.6200,4.1100,-3.0300,-0.3687,-2.1915,-1.9908,-21.5625,-27.3750,15.5625,202.4375,48.9375,-163.8125,0
513.615,8.5114,2.3056,1.6400,0.2627,-0.1423,-0.7938,-39.4500,18.0000,7.8000,5.7772,-0.0455,3.6679,-0.0549,-1.8532,-0.8884,-67.5000,24.1500,-19.2000,0.6200,4.1100,-3.0300,-0.3687,-2.1915,-1.9908,-21.5625,-27.3750,15.5625,202.4375,48.9375,-163.8125,0
513.620,8.3294,1.9944,1.5060,0.2278,-0.0496,-0.7131,-39.4500,18.0000,7.8000,6.3135,0.1820,3.6488,-0.2793,-1.9987,-1.0403,-69.4500,24.6000,-20.2500,2.5900,2.7300,-4.2100,-0.6392,-2.0824,-2.0617,-19.5625,-28.0000,17.0625,204.5625,47.5000,-162.5625,0
513.625,8.3294,1.9944,1.5060,0.2278,-0.0496,-0.7131,-39.4500,18.0000,7.8000,6.3135,0.1820,3.6488,-0.2793,-1.9987,-1.0403,-69.4500,24.6000,-20.2500,2.5900,2.7300,-4.2100,-0.6392,-2.0824,-2.0617,-19.5625,-28.0000,17.0625,204.5625,47.5000,-162.5625,0
513.630,8.0086,1.7502,1.3743,0.3467,-0.0005,-0.6395,-38.4000,17.5500,8.5500,7.4484,0.0192,4.3215,-0.1468,-2.1357,-1.1698,-68.2500,24.1500,-22.5000,2.8600,2.4700,-4.8300,-0.8563,-2.0355,-2.0355,-19.5625,-28.0000,17.0625,207.3750,46.1250,-161.3125,0
513.635,8.0086,1.7502,1.3743,0.3467,-0.0005,-0.6395,-38.4000,17.5500,8.5500,7.4484,0.0192,4.3215,-0.1468,-2.1357,-1.1698,-68.2500,24.1500,-22.5000,2.8600,2.4700,-4.8300,-1.0625,-2.1053,-1.9046,-19.5625,-28.0000,17.0625,210.5000,44.6250,-160.1250,0
513.641,7.9440,1.6137,1.2306,0.5758,0.0354,-0.5465,-39.4500,18.0000,6.0000,8.2624,0.1891,5.2433,-0.0288,-2.2804,-1.2692,-68.4000,24.7500,-22.6500,2.8700,3.0800,-5.1500,-1.0625,-2.1053,-1.9046,-19.5625,-28.0000,17.0625,213.8125,43.1875,-159.0625,0
513.650,8.0804,1.4629,0.9194,0.8236,0.0208,-0.4101,-39.9000,17.5500,6.7500,8.5665,-0.4549,5.2026,0.1058,-2.4416,-1.3395,-67.6500,25.5000,-24.1500,3.1800,3.2000,-5.8300,-1.2174,-2.2187,-1.6515,-19.5625,-28.0000,17.0625,213.8125,43.1875,-159.0625,0
513.660,7.7333,1.7334,0.8667,0.9537,-0.2276,-0.2859,-39.9000,17.2500,7.3500,8.8202,-1.4916,4.8339,0.0160,-2.5682,-1.4101,-67.6500,25.5000,-24.1500,3.3700,3.8900,-6.3400,-1.2959,-2.3889,-1.3166,-19.5625,-28.0000,17.0625,217.1875,41.6875,-158.1250,0
513.665,7.7333,1.7334,0.8667,0.9537,-0.2276,-0.2859,-39.9000,17.2500,7.3500,8.8202,-1.4916,4.8339,0.0160,-2.5682,-1.4101,-67.6500,25.5000,-24.1500,3.3700,3.8900,-6.3400,-1.2959,-2.3889,-1.3166,-19.5625,-28.0000,17.0625,217.1875,41.6875,-158.1250,0
513.670,7.8913,1.8842,0.6416,1.1261,-0.1298,-0.2081,-39.3000,17.4000,7.2000,9.0094,-2.0590,4.9368,-0.3011,-2.7019,-1.4226,-67.5000,27.7500,-25.0500,3.8200,4.2700,-6.3700,-1.3581,-2.6409,-1.0745,-15.1875,-30.5625,18.1875,220.6250,40.1250,-157.3750,0
513.675,7.8913,1.8842,0.6416,1.1261,-0.1298,-0.2081,-39.3000,17.4000,7.2000,9.0094,-2.0590,4.9368,-0.3011,-2.7019,-1.4226,-67.5000,27.7500,-25.0500,3.8200,4.2700,-6.3700,-1.3581,-2.6409,-1.0745,-15.1875,-30.5625,18.1875,220.6250,40.1250,-157.3750,0
513.679,7.7620,1.9561,0.5890,1.2681,0.0189,-0.1732,-39.3000,17.4000,7.2000,9.1004,-1.6855,4.5729,-0.6507,-2.8117,-1.3803,-67.5000,27.7500,-25.0500,4.6000,4.6100,-6.6200,-1.3908,-2.7053,-0.9523,-15.1875,-30.5625,18.1875,171.6250,38.5000,-156.6875,0
513.684,7.7620,1.9561,0.5890,1.2681,0.0189,-0.1732,-39.3000,17.4000,7.2000,9.1004,-1.6855,4.5729,-0.6507,-2.8117,-1.3803,-67.5000,27.7500,-25.0500,4.6000,4.6100,-6.6200,-1.4104,-2.6027,-0.9447,-15.1875,-30.5625,18.1875,171.6875,37.0000,-156.0000,0
513.691,7.9871,1.8866,0.6129,1.3651,0.1242,-0.1812,-38.1000,18.0000,6.0000,9.2943,-0.8859,4.4604,-0.8426,-2.9079,-1.3816,-67.9500,27.7500,-26.2500,5.0600,5.0100,-6.6900,-1.4104,-2.6027,-0.9447,-15.1875,-30.5625,18.1875,171.6250,35.5000,-155.2500,0
513.700,8.0589,1.7837,0.5914,1.4091,0.2201,-0.2001,-38.8500,19.5000,5.7000,9.2416,0.1772,4.2569,-0.8066,-2.9511,-1.4170,-67.5000,28.9500,-25.8000,5.1300,5.2300,-6.5100,-1.4246,-2.5155,-1.0123,-15.1875,-30.5625,18.1875,171.5625,34.0625,-154.4375,0
513.710,8.1882,1.7262,0.5363,1.4573,0.3182,-0.2078,-38.2500,15.9000,5.8500,9.0884,0.8499,4.2521,-0.5063,-2.9098,-1.4759,-66.0000,28.5000,-27.7500,5.7000,5.3200,-7.2200,-1.4224,-2.3333,-1.0865,-15.1875,-30.5625,18.1875,171.5625,34.0625,-154.4375,0
513.715,8.2648,1.5371,0.3687,1.4797,0.4000,-0.2116,-38.2500,15.9000,5.8500,8.9543,1.3886,4.0103,-0.0424,-2.8138,-1.5268,-66.0000,28.5000,-27.7500,5.7000,5.3200,-7.2200,-1.4224,-2.3333,-1.0865,-11.5000,-32.0000,16.5000,171.3750,32.7500,-153.6250,0
513.720,8.2648,1.5371,0.3687,1.4797,0.4000,-0.2116,-39.0000,17.7000,3.6000,8.9543,1.3886,4.0103,-0.0424,-2.8138,-1.5268,-66.6000,29.5500,-28.9500,6.4000,5.5500,-7.8900,-1.4344,-2.0693,-1.1759,-11.5000,-32.0000,16.5000,171.3750,32.7500,-153.6250,0
513.725,8.3701,1.4102,0.2107,1.4805,0.5127,-0.2166,-39.0000,17.7000,3.6000,9.3446,1.4629,3.8164,0.4906,-2.6899,-1.5716,-66.6000,29.5500,-28.9500,6.4000,5.5500,-7.8900,-1.4344,-2.0693,-1.1759,-11.5000,-32.0000,16.5000,171.1250,31.5000,-152.6250,0
513.730,8.3701,1.4102,0.2107,1.4805,0.5127,-0.2166,-39.0000,17.7000,3.6000,9.3446,1.4629,3.8164,0.4906,-2.6899,-1.5716,-66.6000,29.5500,-28.9500,7.5800,6.4900,-8.9700,-1.5021,-1.8588,-1.3657,-11.5000,-32.0000,16.5000,171.1250,31.5000,-152.6250,0
513.739,8.6143,1.2474,0.0120,1.4234,0.5428,-0.2334,-38.8500,18.0000,4.9500,9.7851,1.3958,3.6847,1.0371,-2.5674,-1.5652,-64.8000,30.9000,-30.3000,7.6100,6.7900,-9.0600,-1.5741,-1.7464,-1.6537,-11.5000,-32.0000,16.5000,170.6875,30.1875,-151.5625,0
513.743,8.6814,1.0630,-0.2682,1.3310,0.5372,-0.2342,-38.8500,18.0000,4.9500,10.1945,1.2522,3.4500,1.0371,-2.5674,-1.5652,-64.8000,30.9000,-30.3000,7.6100,6.7900,-9.0600,-1.5741,-1.7464,-1.6537,-11.5000,-32.0000,16.5000,170.0625,28.8125,-150.4375,0
513.751,8.6814,1.0630,-0.2682,1.3310,0.5372,-0.2342,-38.8500,18.3000,4.2000,10.1945,1.2522,3.4500,1.4962,-2.4882,-1.5074,-64.8000,30.9000,-30.3000,7.5200,6.7900,-9.0700,-1.5403,-1.6908,-1.9515,-11.5000,-32.0000,16.5000,169.2500,27.4375,-149.2500,0
513.760,8.6622,1.1588,-0.5100,1.2089,0.4413,-0.2326,-39.4500,17.5500,2.4000,10.2975,0.9026,3.1412,1.8303,-2.4360,-1.3989,-63.9000,30.3000,-32.4000,7.4100,6.5400,-9.0900,-1.4388,-1.5828,-2.2373,-11.5000,-32.0000,16.5000,169.2500,27.4375,-149.2500,0
513.765,8.7987,1.4605,-0.6033,1.0461,0.3616,-0.1948,-38.2500,17.4000,3.3000,10.4722,0.5914,3.0071,1.9878,-2.4128,-1.2742,-63.9000,30.3000,-32.4000,7.4100,6.5400,-9.0900,-1.4388,-1.5828,-2.2373,-11.5000,-32.0000,16.5000,168.2500,26.0625,-148.1875,0
513.770,8.7987,1.4605,-0.6033,1.0461,0.3616,-0.1948,-38.2500,17.4000,3.3000,10.4722,0.5914,3.0071,1.9878,-2.4128,-1.2742,-63.9000,30.3000,-32.7000,7.2100,6.1800,-9.0200,-1.3101,-1.4595,-2.5285,-9.6875,-35.2500,15.2500,168.2500,26.0625,-148.1875,0
513.775,8.7029,1.8962,-0.6584,0.7989,0.2859,-0.1791,-38.2500,18.4500,1.5000,10.6590,0.3136,2.9066,2.0238,-2.3955,-1.1469,-63.9000,30.3000,-32.7000,7.2100,6.1800,-9.0200,-1.3101,-1.4595,-2.5285,-9.6875,-35.2500,15.2500,167.0625,24.5625,-147.0625,0
513.780,8.7029,1.8962,-0.6584,0.7989,0.2859,-0.1791,-38.2500,18.4500,1.5000,10.6590,0.3136,2.9066,2.0238,-2.3955,-1.1469,-63.1500,31.8000,-33.4500,7.0100,5.9200,-9.1000,-1.1770,-1.3145,-2.8176,-9.6875,-35.2500,15.2500,167.0625,24.5625,-147.0625,0
513.785,8.7628,2.2290,-0.7135,0.4583,0.1351,-0.1721,-38.2500,18.4500,1.5000,10.7883,0.1963,2.6647,1.9979,-2.4016,-1.0206,-63.1500,31.8000,-33.4500,7.0100,5.9200,-9.1000,-1.0559,-1.1192,-3.0685,-9.6875,-35.2500,15.2500,165.6250,23.1250,-146.0000,0
513.791,8.6550,2.5450,-0.7039,0.1636,0.1823,-0.1735,-38.2500,18.4500,1.5000,10.8290,0.0311,2.4684,1.9979,-2.4016,-1.0206,-62.7000,31.8000,-35.2500,7.1100,5.2600,-9.4100,-1.0559,-1.1192,-3.0685,-9.6875,-35.2500,15.2500,164.0000,21.7500,-145.0625,0
513.800,8.6550,2.5450,-0.7039,0.1636,0.1823,-0.1735,-38.4000,18.0000,1.6500,10.7883,-0.0670,2.3032,1.9678,-2.3875,-0.9254,-62.7000,31.8000,-35.2500,7.1200,5.2000,-9.5500,-0.7810,-0.7418,-3.3510,-9.6875,-35.2500,15.2500,162.3750,20.3125,-144.1250,0
