timestamp,thigh_acc_x,thigh_acc_y,thigh_acc_z,thigh_gyro_x,thigh_gyro_y,thigh_gyro_z,thigh_mag_x,thigh_mag_y,thigh_mag_z,shank_acc_x,shank_acc_y,shank_acc_z,shank_gyro_x,shank_gyro_y,shank_gyro_z,shank_mag_x,shank_mag_y,shank_mag_z,foot_acc_x,foot_acc_y,foot_acc_z,foot_gyro_x,foot_gyro_y,foot_gyro_z,foot_mag_x,foot_mag_y,foot_mag_z,foot_euler_x,foot_euler_y,foot_euler_z,perturbation_event
619.946,9.0932,2.8635,-2.4110,-0.0978,-0.0357,-0.0410,-66.1500,22.6500,28.9500,9.7851,0.3639,-0.6009,-0.0578,0.0839,-0.0485,-63.4500,13.5000,-7.9500,3.4300,3.6800,-8.2200,-0.0535,0.0262,0.0076,-20.0625,-24.7500,23.5000,214.9375,20.8125,-155.4375,0
619.951,9.0932,2.8635,-2.4110,-0.0938,-0.0362,-0.0453,-66.1500,22.6500,28.9500,9.7851,0.3639,-0.6009,-0.0578,0.0839,-0.0485,-63.4500,13.5000,-7.9500,3.4300,3.6800,-8.2200,-0.0535,0.0262,0.0076,-20.0625,-24.7500,23.5000,214.9375,20.8125,-155.4375,0
619.956,9.1482,3.0167,-2.4110,-0.0938,-0.0362,-0.0453,-66.1500,22.6500,28.9500,9.7468,0.3615,-0.7183,-0.0626,0.0994,-0.0496,-63.1500,13.0500,-7.9500,3.4300,3.7100,-8.2100,-0.0545,0.0262,0.0044,-20.7500,-24.0625,23.0625,214.9375,20.8750,-155.4375,0
619.961,9.1459,3.1196,-2.4732,-0.0989,-0.0405,-0.0514,-66.0000,22.5000,27.0000,9.7468,0.3615,-0.7183,-0.0626,0.0994,-0.0496,-63.1500,13.0500,-7.9500,3.4300,3.7100,-8.2100,-0.0545,0.0262,0.0044,-20.7500,-24.0625,23.0625,214.9375,20.8750,-155.4375,0
619.965,9.1459,3.1196,-2.4732,-0.0989,-0.0405,-0.0514,-66.0000,22.5000,27.0000,9.6774,0.3783,-0.6895,-0.0405,0.1164,-0.0610,-62.5500,12.4500,-9.6000,3.4400,3.7100,-8.2200,-0.0600,0.0273,0.0044,-20.7500,-24.0625,23.0625,214.9375,20.8750,-155.3750,0
619.970,9.1459,3.1196,-2.4732,-0.0989,-0.0405,-0.0514,-65.8500,21.4500,28.2000,9.6774,0.3783,-0.6895,-0.0405,0.1164,-0.0610,-62.5500,12.4500,-9.6000,3.4400,3.7100,-8.2200,-0.0600,0.0273,0.0044,-20.7500,-24.0625,23.0625,214.9375,20.8750,-155.3125,0
619.977,9.1674,3.2322,-2.4924,-0.1005,-0.0442,-0.0533,-65.5500,20.7000,28.2000,9.7492,0.3496,-0.6800,-0.0072,0.1260,-0.0655,-62.7000,13.0500,-7.9500,3.4000,3.7600,-8.2100,-0.0709,0.0295,0.0044,-20.7500,-24.0625,23.0625,214.9375,20.8750,-155.3125,0
619.986,9.2129,3.3255,-2.4828,-0.1007,-0.0312,-0.0544,-66.4500,24.0000,28.5000,9.7875,0.2753,-0.6345,0.0067,0.1543,-0.0674,-62.7000,13.0500,-7.9500,3.4500,3.7100,-8.2100,-0.0785,0.0338,0.0055,-20.7500,-24.0625,23.0625,214.9375,20.8750,-155.3125,0
619.995,9.2081,3.3495,-2.5402,-0.0885,-0.0163,-0.0645,-66.4500,24.0000,28.5000,9.7444,0.3424,-0.5411,0.0365,0.1633,-0.0778,-62.7000,13.0500,-7.9500,3.4600,3.7300,-8.2300,-0.0905,0.0360,0.0044,-20.7500,-24.0625,23.0625,214.9375,20.9375,-155.2500,0
619.999,9.3134,3.3710,-2.5450,-0.0642,-0.0131,-0.0600,-66.4500,24.0000,28.5000,9.7444,0.3424,-0.5411,0.0365,0.1633,-0.0778,-63.4500,13.5000,-9.0000,3.4600,3.7300,-8.2300,-0.0905,0.0360,0.0044,-20.7500,-24.0625,23.0625,214.9375,20.9375,-155.2500,0
620.004,9.3134,3.3710,-2.5450,-0.0642,-0.0131,-0.0600,-66.4500,24.0000,28.5000,9.7348,0.1796,-0.8595,0.0706,0.2129,-0.0986,-63.4500,13.5000,-9.0000,3.4700,3.7000,-8.2500,-0.1058,0.0425,0.0065,-19.7500,-24.0625,22.6875,214.9375,20.9375,-155.1875,0
620.009,9.2632,3.3255,-2.5450,-0.0480,-0.0250,-0.0663,-65.2500,24.0000,29.1000,9.7348,0.1796,-0.8595,0.0706,0.2129,-0.0986,-63.4500,13.5000,-9.0000,3.4700,3.7000,-8.2500,-0.1058,0.0425,0.0065,-19.7500,-24.0625,22.6875,214.9375,20.9375,-155.1875,0
620.014,9.2632,3.3255,-2.5450,-0.0480,-0.0250,-0.0663,-65.2500,24.0000,29.1000,9.7875,0.2083,-1.0175,0.1292,0.2427,-0.1175,-63.4500,13.5000,-9.0000,3.5200,3.6900,-8.2500,-0.1178,0.0458,0.0055,-19.7500,-24.0625,22.6875,214.9375,20.9375,-155.1250,0
620.019,9.0477,3.3495,-2.6121,-0.0136,-0.0674,-0.0738,-66.6000,24.1500,28.2000,9.7875,0.2083,-1.0175,0.1292,0.2427,-0.1175,-62.4000,13.8000,-7.9500,3.5200,3.6900,-8.2500,-0.1178,0.0458,0.0055,-19.7500,-24.0625,22.6875,215.0000,21.0000,-155.0000,0
620.026,9.0477,3.3495,-2.6121,-0.0136,-0.0674,-0.0738,-65.2500,22.5000,27.7500,9.7564,0.3256,-0.8188,0.1604,0.2403,-0.1370,-62.2500,13.9500,-8.4000,3.5900,3.5900,-8.3300,-0.1364,0.0545,0.0022,-19.7500,-24.0625,22.6875,215.0000,21.0000,-155.0000,0
620.034,9.1961,3.3567,-2.6791,0.0488,-0.0426,-0.0890,-65.5500,23.7000,28.6500,9.6031,0.5267,-0.6488,0.1916,0.2646,-0.1492,-62.2500,13.9500,-8.4000,3.6100,3.6700,-8.2600,-0.1505,0.0502,-0.0044,-19.7500,-24.0625,22.6875,215.0000,21.0000,-154.9375,0
620.039,9.2392,3.3998,-2.7629,0.0967,-0.0650,-0.1045,-65.5500,23.7000,28.6500,9.5481,0.6129,-0.8523,0.1916,0.2646,-0.1492,-61.9500,13.8000,-8.2500,3.6100,3.6700,-8.2600,-0.1505,0.0502,-0.0044,-19.7500,-24.0625,22.6875,215.0000,21.0000,-154.8750,0
620.047,9.2392,3.3998,-2.7629,0.0967,-0.0650,-0.1045,-64.9500,24.3000,28.5000,9.5481,0.6129,-0.8523,0.2745,0.3238,-0.1516,-63.3000,14.4000,-9.1500,3.5600,3.7200,-8.2400,-0.1505,0.0131,-0.0153,-19.7500,-24.0625,22.6875,215.0000,21.0000,-154.8750,0
620.052,8.9711,3.3830,-2.7869,0.1527,-0.0783,-0.1242,-64.9500,24.3000,28.5000,9.7875,0.7542,-0.9768,0.3547,0.3488,-0.1407,-63.3000,14.4000,-9.1500,3.5600,3.7200,-8.2400,-0.1505,0.0131,-0.0153,-19.7500,-24.0625,22.6875,215.0000,21.0000,-154.7500,0
620.057,8.9711,3.3830,-2.7869,0.1527,-0.0783,-0.1242,-64.9500,24.3000,28.5000,9.7875,0.7542,-0.9768,0.3547,0.3488,-0.1407,-62.5500,13.9500,-9.1500,3.6000,3.4600,-8.3900,-0.1614,-0.0065,-0.0382,-21.1875,-24.0625,22.6875,215.0000,21.0000,-154.7500,0
620.062,9.1219,3.4572,-2.8730,0.2145,-0.0480,-0.1466,-64.9500,24.3000,28.5000,9.9359,0.8260,-0.8739,0.3893,0.3627,-0.1364,-62.5500,13.9500,-9.1500,3.6000,3.4600,-8.3900,-0.1614,-0.0065,-0.0382,-21.1875,-24.0625,22.6875,215.0000,21.0000,-154.6875,0
620.067,9.1219,3.4572,-2.8730,0.2521,-0.0413,-0.1836,-64.3500,22.2000,28.6500,9.9359,0.8260,-0.8739,0.3893,0.3627,-0.1364,-62.7000,15.4500,-7.9500,3.5800,3.7800,-8.4000,-0.1876,0.0044,-0.0644,-21.1875,-24.0625,22.6875,215.0000,21.0000,-154.6875,0
620.072,9.1578,3.5195,-3.0119,0.2521,-0.0413,-0.1836,-64.3500,22.2000,28.6500,9.8665,0.8859,-0.9122,0.4474,0.3813,-0.1348,-62.7000,15.4500,-7.9500,3.5800,3.7800,-8.4000,-0.2127,0.0076,-0.0905,-21.1875,-24.0625,22.6875,214.9375,21.0000,-154.5625,0
620.077,9.1482,3.4165,-3.0143,0.2678,-0.0560,-0.2409,-64.3500,22.2000,27.9000,9.7133,0.6177,-0.4477,0.4474,0.3813,-0.1348,-62.7000,15.4500,-7.9500,3.5400,3.9100,-8.2700,-0.2127,0.0076,-0.0905,-21.1875,-24.0625,22.6875,214.9375,21.0000,-154.5625,0
620.086,9.1482,3.4165,-3.0143,0.2633,-0.0453,-0.2899,-66.0000,24.0000,29.5500,9.7133,0.6177,-0.4477,0.5033,0.4285,-0.1396,-63.0000,13.6500,-9.1500,3.5700,3.8900,-8.2300,-0.2662,0.0109,-0.1025,-21.1875,-24.0625,22.6875,214.9375,20.9375,-154.3750,0
620.096,9.0932,3.4046,-3.0742,0.2385,-0.0080,-0.3304,-65.5500,24.1500,27.9000,9.7636,0.4334,-0.6632,0.4970,0.4530,-0.1484,-63.0000,13.6500,-9.1500,3.4900,3.9000,-8.1700,-0.3305,0.0109,-0.1145,-21.1875,-24.0625,22.6875,214.8750,20.9375,-154.1875,0
620.101,9.0932,3.4046,-3.0742,0.2385,-0.0080,-0.3304,-65.5500,24.1500,27.9000,9.9000,0.2921,-0.6345,0.4700,0.5188,-0.1524,-63.0000,13.6500,-9.1500,3.4900,3.9000,-8.1700,-0.3305,0.0109,-0.1145,-21.1875,-24.0625,22.6875,214.8750,20.9375,-154.1875,0
620.106,8.8825,3.2178,-3.2657,0.1697,-0.0147,-0.3485,-64.9500,24.7500,29.5500,9.7372,0.5986,-0.2490,0.4700,0.5188,-0.1524,-63.0000,14.4000,-10.6500,3.5400,3.8400,-8.2900,-0.3992,0.0349,-0.1364,-20.5000,-24.5000,22.2500,214.8750,20.9375,-153.9375,0
620.111,8.8825,3.2178,-3.2657,0.1697,-0.0147,-0.3485,-64.9500,24.7500,29.5500,9.7372,0.5986,-0.2490,0.4700,0.5974,-0.1514,-63.0000,14.4000,-10.6500,3.5400,3.8400,-8.2900,-0.3992,0.0349,-0.1364,-20.5000,-24.5000,22.2500,214.8750,20.9375,-153.9375,0
620.116,8.8107,3.1149,-3.3495,0.1394,0.0208,-0.3424,-64.9500,24.7500,29.5500,9.8928,0.6728,0.0622,0.4700,0.5974,-0.1514,-63.0000,14.4000,-10.6500,4.2300,4.4300,-8.0300,-0.4472,0.0840,-0.1636,-20.5000,-24.5000,22.2500,214.8125,20.9375,-153.6250,0
620.121,8.8107,3.1149,-3.3495,0.1394,0.0208,-0.3424,-64.9500,24.7500,29.5500,9.8928,0.6728,0.0622,0.5241,0.6270,-0.1511,-63.4500,16.5000,-9.0000,4.2300,4.4300,-8.0300,-0.4985,0.1745,-0.2553,-20.5000,-24.5000,22.2500,214.6875,20.9375,-153.3125,0
620.127,8.7891,2.9090,-3.1651,0.1402,0.0722,-0.3352,-65.1000,23.7000,28.9500,9.8354,0.7973,0.7063,0.6448,0.6797,-0.1471,-62.5500,13.6500,-9.9000,3.7200,3.5700,-8.4800,-0.4985,0.1745,-0.2553,-20.5000,-24.5000,22.2500,214.5000,21.0000,-152.8750,0
620.137,9.3374,2.9329,-3.0215,0.1396,0.0757,-0.3227,-64.2000,24.7500,27.3000,9.7564,0.6823,0.8763,0.6864,0.7330,-0.1330,-63.7500,14.4000,-9.1500,4.0000,3.7600,-8.3500,-0.5301,0.2596,-0.3360,-20.5000,-24.5000,22.2500,214.3750,21.0000,-152.5000,0
620.147,9.2967,3.0406,-2.7725,0.1271,0.0176,-0.3179,-63.1500,26.5500,29.5500,9.6702,0.9936,0.8452,0.7325,0.7578,-0.1124,-62.5500,15.6000,-9.1500,3.9900,3.8900,-8.4400,-0.5651,0.2422,-0.3589,-20.5000,-24.5000,22.2500,214.3750,21.0000,-152.5000,0
620.152,9.2967,3.0406,-2.7725,0.1271,0.0176,-0.3179,-63.1500,26.5500,29.5500,9.6702,0.9936,0.8452,0.7325,0.7578,-0.1124,-62.5500,15.6000,-9.1500,3.9900,3.8900,-8.4400,-0.5651,0.2422,-0.3589,-20.5000,-24.5000,22.2500,214.1250,21.0000,-152.0625,0
620.157,9.1578,2.8419,-2.4349,0.1378,0.0163,-0.3280,-64.3500,25.9500,28.6500,9.6343,1.2809,0.8212,0.8284,0.7762,-0.0901,-62.5500,15.6000,-9.1500,3.8900,3.8300,-8.3500,-0.6000,0.1931,-0.5127,-20.5000,-24.7500,23.0625,214.1250,21.0000,-152.0625,0
620.161,9.1578,2.8419,-2.4349,0.1378,0.0163,-0.3280,-64.3500,25.9500,28.6500,9.6343,1.2809,0.8212,0.8284,0.7762,-0.0901,-64.3500,16.2000,-9.0000,3.8900,3.8300,-8.3500,-0.6000,0.1931,-0.5127,-20.5000,-24.7500,23.0625,213.8750,20.9375,-151.6250,0
620.167,9.0501,2.8108,-2.0877,0.1990,0.1013,-0.3293,-64.3500,25.9500,28.6500,9.4475,1.3120,1.3408,1.0515,0.7943,-0.0895,-62.4000,15.7500,-9.3000,3.6600,2.5000,-9.1400,-0.6000,0.1931,-0.5127,-20.5000,-24.7500,23.0625,213.8750,20.9375,-151.6250,0
620.171,9.0501,2.8108,-2.0877,0.1990,0.1013,-0.3293,-64.3500,25.9500,28.6500,9.4475,1.3120,1.3408,1.0515,0.7943,-0.0895,-62.4000,15.7500,-9.3000,3.6600,2.5000,-9.1400,-0.6141,0.2596,-0.6174,-20.5000,-24.7500,23.0625,213.5625,20.9375,-151.1250,0
620.177,9.0118,3.0095,-1.6520,0.2225,0.0930,-0.3269,-63.4500,26.5500,28.0500,9.4523,0.6440,1.2139,1.0946,0.7818,-0.0970,-63.0000,16.8000,-8.1000,3.2600,2.2700,-8.9800,-0.6141,0.2596,-0.6174,-20.5000,-24.7500,23.0625,213.2500,20.8750,-150.6250,0
620.187,8.5832,2.8252,-1.3072,0.2617,0.1468,-0.3110,-62.1000,26.2500,27.7500,9.3637,0.6632,1.6831,1.1530,0.7642,-0.1005,-63.0000,16.8000,-8.1000,3.1300,4.2900,-8.0800,-0.6152,0.2062,-0.6021,-20.5000,-24.7500,23.0625,213.2500,20.8750,-150.6250,0
620.197,8.4898,2.9161,-0.9050,0.2707,0.2630,-0.2803,-61.8000,26.7000,28.9500,9.1674,0.9529,1.8962,1.1503,0.7621,-0.1087,-63.0000,16.8000,-8.1000,2.6800,5.2100,-7.3600,-0.5149,0.0764,-0.6120,-20.5000,-24.7500,23.0625,213.0000,20.7500,-150.2500,0
620.201,8.4898,2.9161,-0.9050,0.2707,0.2630,-0.2803,-64.0500,25.6500,28.9500,9.1674,0.9529,1.8962,1.1503,0.7621,-0.1087,-63.1500,16.2000,-9.7500,2.6800,5.2100,-7.3600,-0.5149,0.0764,-0.6120,-20.5000,-24.7500,23.0625,213.0000,20.7500,-150.2500,0
620.207,8.0996,2.8515,-0.7470,0.2617,0.3704,-0.2409,-64.0500,25.6500,28.2000,9.0644,0.4717,2.0111,0.9920,0.7674,-0.0946,-63.1500,16.2000,-9.7500,4.2900,5.4200,-7.2600,-0.4331,0.4636,-0.7821,-20.0625,-26.0000,21.0625,212.5625,20.7500,-149.8125,0
620.212,8.0996,2.8515,-0.7470,0.2617,0.3704,-0.2409,-61.3500,27.0000,28.5000,9.0644,0.4717,2.0111,0.9920,0.7674,-0.0946,-63.1500,16.2000,-9.7500,4.2900,5.4200,-7.2600,-0.4331,0.4636,-0.7821,-20.0625,-26.0000,21.0625,212.5625,20.7500,-149.8125,0
620.217,8.1235,3.0837,-0.5578,0.3581,0.5343,-0.1807,-61.3500,27.0000,28.5000,9.1722,0.8523,2.2098,0.9030,0.7615,-0.0695,-63.1500,16.2000,-9.7500,3.7500,4.7600,-7.9300,-0.2705,0.4407,-0.9599,-20.0625,-26.0000,21.0625,212.0000,20.6875,-149.4375,0
620.222,8.1235,3.0837,-0.5578,0.5081,0.5388,-0.1271,-61.3500,27.0000,28.5000,8.2887,1.1995,3.3136,0.9030,0.7615,-0.0695,-62.4000,16.2000,-8.2500,3.7500,4.7600,-7.9300,-0.1440,0.5160,-1.1159,-20.0625,-26.0000,21.0625,211.3125,20.6250,-149.1250,0
620.227,8.0780,3.2609,-0.7733,0.5081,0.5388,-0.1271,-61.3500,27.0000,28.5000,8.2887,1.1995,3.3136,1.0048,0.8180,-0.0322,-63.1500,15.7500,-9.0000,3.5900,4.3100,-6.9800,-0.1440,0.5160,-1.1159,-20.0625,-26.0000,21.0625,210.3125,20.5625,-148.9375,0
620.237,8.0325,3.7158,-1.0415,0.6201,0.5708,-0.1343,-60.9000,26.2500,29.8500,7.2496,2.2434,5.2122,1.1429,1.0728,0.0594,-63.1500,15.7500,-9.0000,-0.9600,15.9600,-7.6300,0.3120,0.7963,-1.5337,-20.0625,-26.0000,21.0625,210.3125,20.5625,-148.9375,0
620.247,7.4915,4.3527,-1.0870,0.9438,0.5529,-0.1990,-60.7500,26.7000,30.0000,7.2712,3.0622,5.6623,1.1029,1.2598,0.2830,-63.9000,15.4500,-8.7000,10.5300,-0.6200,5.7900,1.9744,2.8231,-2.6758,-20.0625,-26.0000,21.0625,208.1875,21.1250,-149.1875,0
620.252,7.3310,5.3941,-1.1205,1.3331,0.7221,-0.2617,-60.3000,28.8000,29.1000,7.8626,5.8227,4.7836,1.7293,1.4861,0.4991,-62.7000,16.2000,-9.3000,10.5300,-0.6200,5.7900,1.9744,2.8231,-2.6758,-20.0625,-26.0000,21.0625,205.4375,22.6250,-148.5625,0
620.257,7.3310,5.3941,-1.1205,1.3331,0.7221,-0.2617,-60.3000,28.8000,29.1000,7.8626,5.8227,4.7836,1.7293,1.4861,0.4991,-62.7000,16.2000,-9.3000,19.8000,-0.6000,-5.1800,1.0996,5.1389,-3.3554,-19.7500,-27.0000,20.0000,205.4375,22.6250,-148.5625,0
620.262,7.9368,6.3829,-0.8787,1.4943,0.8439,-0.3128,-59.1000,27.7500,29.1000,6.9767,5.9113,5.1858,2.8082,1.8093,0.4852,-63.4500,16.5000,-7.9500,19.8000,-0.6000,-5.1800,1.0996,5.1389,-3.3554,-19.7500,-27.0000,20.0000,203.0625,22.7500,-148.0625,0
620.267,7.9368,6.3829,-0.8787,1.4943,0.8439,-0.3128,-59.1000,27.7500,29.1000,6.9767,5.9113,5.1858,2.8082,1.8093,0.4852,-63.4500,16.5000,-7.9500,18.8900,-0.3100,-7.2000,0.8094,2.4598,-3.3827,-19.7500,-27.0000,20.0000,203.0625,22.7500,-148.0625,0
620.271,7.1946,6.6559,0.1796,1.5436,0.9643,-0.3325,-60.6000,26.5500,30.6000,6.4643,2.9928,5.7844,3.9578,2.0448,0.3635,-62.2500,15.6000,-6.6000,18.8900,-0.3100,-7.2000,0.8345,1.2981,-3.2507,-19.7500,-27.0000,20.0000,201.0000,22.4375,-147.7500,0
620.278,7.1946,6.6559,0.1796,1.5436,0.9643,-0.3325,-60.6000,26.5500,30.6000,6.4643,2.9928,5.7844,3.9578,2.0448,0.3635,-62.2500,15.6000,-6.6000,6.8000,-0.7600,-5.8500,0.8345,1.2981,-3.2507,-19.7500,-27.0000,20.0000,199.1250,22.6250,-147.4375,0
620.287,7.2472,6.1052,1.7885,1.5852,1.2063,-0.2928,-60.6000,26.5500,30.6000,6.4356,-0.3759,6.6008,4.3537,2.0853,0.2006,-62.2500,15.6000,-6.6000,8.3900,-3.8800,-7.0400,0.8345,2.0333,-2.6114,-19.7500,-27.0000,20.0000,199.1250,22.6250,-147.4375,0
620.297,7.0437,5.5665,3.5386,1.5319,1.5188,-0.2052,-58.0500,27.7500,29.8500,6.9935,-3.8235,6.2632,4.0811,1.9905,0.0866,-63.9000,15.7500,-7.9500,9.1700,-2.6500,-9.0600,0.6512,2.1391,-1.8402,-19.7500,-27.0000,20.0000,197.6875,23.0625,-147.1875,0
620.302,7.1539,4.5825,5.1811,1.3312,1.9377,-0.0962,-56.1000,26.7000,30.0000,8.1139,-6.0406,5.8849,3.0774,1.8010,0.1026,-63.9000,15.7500,-7.9500,9.1700,-2.6500,-9.0600,0.6512,2.1391,-1.8402,-19.7500,-27.0000,20.0000,196.3125,23.3125,-147.0000,0
620.307,7.1539,4.5825,5.1811,1.3312,1.9377,-0.0962,-56.1000,26.7000,30.0000,8.1139,-6.0406,5.8849,3.0774,1.8010,0.1026,-63.9000,15.7500,-7.9500,5.1300,1.1100,-8.4700,0.6829,1.5839,-1.5970,-17.1875,-28.8750,19.5000,196.3125,23.3125,-147.0000,0
620.312,7.9487,2.4038,5.7748,1.3147,2.2913,0.0624,-54.3000,27.9000,30.4500,8.8969,-6.6702,5.4516,1.4575,1.5473,0.2241,-61.9500,16.2000,-7.9500,5.1300,1.1100,-8.4700,0.6829,1.5839,-1.5970,-17.1875,-28.8750,19.5000,195.2500,23.4375,-146.9375,0
620.317,7.9487,2.4038,5.7748,1.3147,2.2913,0.0624,-54.3000,27.9000,30.4500,8.8969,-6.6702,5.4516,1.4575,1.5473,0.2241,-61.9500,16.2000,-7.9500,2.6300,0.8300,-7.3500,0.6970,1.2174,-1.4519,-17.1875,-28.8750,19.5000,195.2500,23.4375,-146.9375,0
620.322,9.1195,-1.5347,5.6958,1.7589,2.2378,0.3043,-54.3000,25.6500,31.5000,8.9304,-4.8315,4.2162,0.0791,1.2036,0.3533,-63.3000,14.4000,-6.9000,2.6300,0.8300,-7.3500,0.4276,1.2937,-1.3221,-17.1875,-28.8750,19.5000,194.2500,23.6250,-146.7500,0
620.328,9.1195,-1.5347,5.6958,1.7589,2.2378,0.3043,-54.3000,25.6500,31.5000,8.3749,-1.5634,3.0047,0.0791,1.2036,0.3533,-63.3000,14.4000,-6.9000,0.3900,1.7200,-8.3300,0.4276,1.2937,-1.3221,-17.1875,-28.8750,19.5000,193.2500,23.6875,-146.4375,0
620.337,9.3446,-6.1268,3.7158,2.1845,1.9532,0.6206,-54.3000,25.6500,31.5000,7.8865,0.9912,1.7502,-0.8055,0.7109,0.4354,-62.4000,15.7500,-7.2000,-8.0700,4.3200,-13.0600,0.2836,1.1214,-1.4803,-17.1875,-28.8750,19.5000,193.2500,23.6875,-146.4375,0
620.347,8.8298,-7.7021,0.6249,2.1602,1.7557,0.9545,-52.9500,24.7500,33.7500,7.9871,4.2641,0.2298,-0.6726,-0.4016,0.5998,-63.7500,15.1500,-5.1000,-11.2500,5.1400,-8.6600,1.3766,0.5967,-1.8217,-17.1875,-28.8750,19.5000,191.9375,23.4375,-146.8125,0
620.352,8.4851,-5.9113,0.6057,1.9963,1.3081,1.1543,-50.5500,25.2000,33.9000,7.9871,4.2641,0.2298,-0.6726,-0.4016,0.5998,-63.1500,15.0000,-4.5000,-11.2500,5.1400,-8.6600,1.3766,0.5967,-1.8217,-17.1875,-28.8750,19.5000,191.9375,23.4375,-146.8125,0
620.357,9.7348,-2.9999,3.8211,2.0121,0.9747,1.2470,-50.5500,25.2000,33.9000,10.0868,9.1171,-2.1476,0.1042,-0.9670,0.4900,-63.1500,15.0000,-4.5000,-9.1700,4.9300,-10.6600,1.6144,0.7396,-1.9602,-15.6875,-30.2500,19.1875,190.5000,23.1875,-147.1875,0
620.362,9.7348,-2.9999,3.8211,2.0121,0.9747,1.2470,-52.0500,24.4500,34.9500,10.0868,9.1171,-2.1476,0.1042,-0.9670,0.4900,-63.3000,15.1500,-6.6000,-9.1700,4.9300,-10.6600,1.6144,0.7396,-1.9602,-15.6875,-30.2500,19.1875,190.5000,23.1875,-147.1875,0
620.367,15.2654,-0.0096,-1.3479,1.9582,0.8471,1.2145,-52.0500,24.4500,34.9500,18.6293,14.8752,-13.6924,1.2009,-1.4170,-0.1841,-63.3000,15.1500,-6.6000,-8.1200,6.2300,-9.6900,1.6352,0.0098,-1.9580,-15.6875,-30.2500,19.1875,189.1875,22.6250,-147.6875,0
620.372,15.2654,-0.0096,-1.3479,1.9582,0.8471,1.2145,-51.9000,26.2500,34.2000,18.6293,14.8752,-13.6924,1.2009,-1.4170,-0.1841,-63.3000,14.8500,-8.1000,-8.1200,6.2300,-9.6900,1.3374,0.2891,-1.2075,-15.6875,-30.2500,19.1875,188.3125,22.3750,-148.1875,0
620.378,22.4576,5.9640,-12.2583,2.0773,0.3627,1.1082,-51.9000,26.2500,34.2000,24.4879,-3.3016,-1.6065,3.9857,-0.0775,-1.1445,-63.3000,14.8500,-8.1000,14.1200,20.3100,-2.1100,1.3374,0.2891,-1.2075,-15.6875,-30.2500,19.1875,188.1250,21.9375,-149.0625,0
620.387,18.9884,18.1696,-13.1681,2.8426,-0.2467,0.2022,-52.6500,25.8000,33.4500,19.2302,-7.6591,0.7111,1.8735,0.7469,-0.7338,-62.7000,16.2000,-7.9500,17.9900,17.5500,-10.3200,1.5315,-0.7265,-0.2738,-15.6875,-30.2500,19.1875,188.1250,21.9375,-149.0625,0
620.397,15.2152,6.1483,-3.6200,1.3222,1.6920,-0.4783,-52.6500,25.8000,33.4500,15.2080,-6.0717,3.4740,0.3059,-0.4165,0.0568,-62.7000,16.2000,-7.9500,-12.2700,1.8400,-17.4500,1.1966,-2.0606,0.2640,-15.6875,-30.2500,19.1875,188.4375,21.0625,-150.0000,0
620.402,15.2152,6.1483,-3.6200,1.3222,1.6920,-0.4783,-54.9000,23.7000,29.7000,15.2080,-6.0717,3.4740,0.3059,-0.4165,0.0568,-62.4000,14.5500,-8.7000,-12.2700,1.8400,-17.4500,1.1966,-2.0606,0.2640,-15.6875,-30.2500,19.1875,188.2500,21.1875,-150.5000,0
620.407,9.0764,-3.1460,-6.2656,1.8831,1.1692,-0.5569,-54.9000,23.7000,29.7000,4.6807,-2.9736,5.7126,-0.8620,-0.7346,0.2713,-62.4000,14.5500,-8.7000,5.3500,5.9200,-9.6600,0.7461,0.0567,0.3272,-14.0000,-30.0000,21.5000,188.2500,21.1875,-150.5000,0
620.412,9.0764,-3.1460,-6.2656,1.8831,1.1692,-0.5569,-55.5000,24.3000,28.8000,4.6807,-2.9736,5.7126,-0.8620,-0.7346,0.2713,-62.4000,14.5500,-8.7000,5.3500,5.9200,-9.6600,0.7461,0.0567,0.3272,-14.0000,-30.0000,21.5000,188.4375,21.6250,-150.8750,0
620.417,2.5379,-4.1827,-3.0981,1.0467,0.7842,-0.7762,-55.5000,24.3000,28.8000,-0.2562,-5.2529,3.4261,-2.3473,-0.7506,0.1713,-62.4000,14.5500,-8.7000,10.0400,2.9900,-9.8600,0.5978,0.6229,0.5683,-14.0000,-30.0000,21.5000,188.4375,21.6250,-150.8750,0
620.422,2.5379,-4.1827,-3.0981,1.0467,0.7842,-0.7762,-60.0000,22.6500,28.6500,-0.2562,-5.2529,3.4261,-2.3473,-0.7506,0.1713,-63.0000,14.4000,-7.3500,10.0400,2.9900,-9.8600,0.4352,-0.1124,0.1822,-14.0000,-30.0000,21.5000,188.5000,21.6250,-151.1250,0
620.428,9.8857,-2.2242,6.8259,-0.0655,-0.5934,-0.5332,-62.5500,24.4500,29.7000,5.9304,-1.7190,2.9353,-3.3508,-0.5097,-0.1266,-63.0000,14.4000,-7.3500,4.0900,0.7800,-9.0300,0.4352,-0.1124,0.1822,-14.0000,-30.0000,21.5000,188.5625,21.5625,-151.3750,0
620.437,5.6527,-2.1548,-0.4812,-0.6760,-0.2286,0.1439,-62.1000,26.2500,29.7000,12.1171,6.2153,2.2529,-2.7955,-1.0419,-0.3733,-62.5500,13.9500,-7.6500,3.3700,4.2800,-7.3700,0.3142,-0.2083,0.0971,-14.0000,-30.0000,21.5000,188.5625,21.5625,-151.3750,0
620.447,9.3565,-4.2042,-3.2465,-1.7531,1.6808,0.3589,-62.1000,26.2500,27.7500,12.0716,7.8147,0.6871,-1.4853,-0.5137,-0.2086,-62.2500,13.2000,-4.8000,3.7200,4.5500,-7.6500,0.1996,0.0185,0.0164,-14.0000,-30.0000,21.5000,188.5000,21.5625,-151.4375,0
620.452,9.3565,-4.2042,-3.2465,-1.7531,1.6808,0.3589,-62.1000,26.2500,27.7500,10.3453,7.4603,0.3759,-1.4853,-0.5137,-0.2086,-63.1500,15.0000,-6.4500,3.7200,4.5500,-7.6500,0.1996,0.0185,0.0164,-14.0000,-30.0000,21.5000,188.5000,21.5625,-151.4375,0
620.457,8.8442,0.6584,-0.3232,-1.5423,0.5745,0.4674,-62.1000,26.2500,27.7500,10.3453,7.4603,0.3759,0.3643,-0.5436,-0.0616,-63.1500,15.0000,-6.4500,3.6900,4.4400,-7.7900,0.1418,0.0338,-0.0251,-14.2500,-28.8750,23.0000,188.5000,21.5625,-151.5625,0
620.462,8.8442,0.6584,-0.3232,-1.5423,0.5745,0.4674,-60.9000,28.0500,29.5500,9.3087,4.5753,1.4748,0.3643,-0.5436,-0.0616,-62.4000,15.0000,-6.4500,3.6900,4.4400,-7.7900,0.1418,0.0338,-0.0251,-14.2500,-28.8750,23.0000,188.5000,21.5625,-151.5625,0
620.467,8.6287,7.3023,3.9528,-1.9833,0.8332,0.5100,-60.9000,28.0500,29.5500,9.3087,4.5753,1.4748,1.4834,-0.1071,-0.0533,-62.4000,15.0000,-6.4500,3.5000,4.8400,-7.5900,0.1745,0.0513,-0.0491,-14.2500,-28.8750,23.0000,188.4375,21.5625,-151.6250,0
620.472,8.6287,7.3023,3.9528,-1.9833,0.8332,0.5100,-60.9000,26.5500,30.1500,8.7508,1.5826,2.5762,1.7930,0.1404,-0.0488,-63.3000,14.4000,-7.6500,3.5000,4.8400,-7.5900,0.1963,-0.0153,-0.0404,-14.2500,-28.8750,23.0000,188.4375,21.5625,-151.7500,0
620.478,9.7181,10.8936,2.0494,-2.0837,0.5039,0.5287,-58.8000,27.0000,30.9000,8.7508,1.5826,2.5762,1.7930,0.1404,-0.0488,-63.3000,14.4000,-7.6500,3.4300,4.3100,-8.1200,0.1963,-0.0153,-0.0404,-14.2500,-28.8750,23.0000,188.3750,21.5000,-151.8125,0
620.487,9.0429,10.5776,-0.3831,-0.6827,0.3453,0.4143,-57.0000,26.5500,31.3500,9.8952,0.4597,2.6073,1.6867,-0.0765,-0.0469,-63.3000,14.4000,-7.6500,3.3200,4.0100,-8.0400,0.1713,-0.1178,-0.0175,-14.2500,-28.8750,23.0000,188.3750,21.5000,-151.8125,0
620.497,9.1267,9.2751,-0.1724,0.3008,0.7458,0.3048,-57.0000,26.5500,31.3500,8.7580,-0.5387,2.1356,0.6869,-0.1553,-0.0072,-62.4000,15.0000,-6.7500,3.6300,4.0500,-8.0600,0.1756,-0.1036,-0.0109,-14.2500,-28.8750,23.0000,188.3750,21.4375,-151.9375,0
620.502,9.1267,9.2751,-0.1724,0.5553,0.6963,0.1865,-57.0000,26.5500,31.3500,8.4324,-0.2682,1.4222,0.0416,-0.2070,0.0597,-62.4000,15.0000,-6.7500,3.6300,4.0500,-8.0600,0.1756,-0.1036,-0.0109,-14.2500,-28.8750,23.0000,188.2500,21.3750,-152.0625,0
620.507,9.2177,6.9121,0.3017,0.5553,0.6963,0.1865,-57.0000,26.5500,31.3500,8.4324,-0.2682,1.4222,0.0416,-0.2070,0.0597,-62.4000,15.0000,-6.7500,3.5500,4.6000,-7.7000,0.2313,-0.1178,-0.0295,-13.0625,-27.7500,23.0000,188.2500,21.3750,-152.0625,0
620.512,7.7165,4.9895,0.0287,0.7424,0.5958,0.1601,-57.0000,26.5500,31.3500,9.0142,0.4429,0.8906,-0.3248,-0.1412,0.1029,-61.0500,14.4000,-6.9000,3.5500,4.6000,-7.7000,0.2313,-0.1178,-0.0295,-13.0625,-27.7500,23.0000,188.1875,21.3125,-152.1875,0
620.517,7.7165,4.9895,0.0287,0.7424,0.5958,0.1601,-54.6000,26.4000,33.6000,9.0142,0.4429,0.8906,-0.3248,-0.1412,0.1029,-61.0500,14.4000,-6.9000,3.4300,4.5500,-7.8500,0.2171,-0.0960,-0.0513,-13.0625,-27.7500,23.0000,188.1875,21.3125,-152.1875,0
620.522,8.3629,3.6943,0.1891,1.0384,0.5705,0.2356,-54.6000,26.4000,33.6000,9.6798,1.2426,0.8212,-0.3030,-0.1180,0.0786,-61.5000,13.2000,-6.9000,3.4300,4.5500,-7.8500,0.1833,-0.1025,-0.0535,-13.0625,-27.7500,23.0000,188.1250,21.2500,-152.2500,0
620.528,8.3629,3.6943,0.1891,1.0384,0.5705,0.2356,-53.7000,25.5000,33.4500,9.6798,1.2426,0.8212,-0.3030,-0.1180,0.0786,-61.5000,13.2000,-6.9000,3.3200,4.4600,-7.9800,0.1833,-0.1025,-0.0535,-13.0625,-27.7500,23.0000,188.1250,21.2500,-152.2500,0
620.537,8.6957,3.0502,-0.0168,1.1439,0.3946,0.3206,-53.7000,25.5000,34.5000,9.6462,1.5107,0.5818,-0.2926,-0.0562,0.0440,-61.6500,15.4500,-7.9500,3.3300,4.1400,-8.1600,0.1309,-0.0851,-0.0360,-13.0625,-27.7500,23.0000,188.1250,21.1875,-152.3125,0
620.542,8.6000,2.9951,0.2562,1.1279,0.4287,0.3547,-53.7000,25.5000,34.5000,9.5505,1.6065,0.8667,-0.2398,-0.0011,0.0373,-61.8000,14.8500,-7.3500,3.3300,4.1400,-8.1600,0.1145,-0.0545,-0.0175,-13.0625,-27.7500,23.0000,188.1250,21.1250,-152.3750,0
620.548,8.6000,2.9951,0.2562,1.1279,0.4287,0.3547,-53.8500,25.9500,33.6000,9.6175,1.8938,1.4581,-0.2398,-0.0011,0.0373,-61.8000,14.8500,-7.3500,3.3100,4.2800,-8.0700,0.1145,-0.0545,-0.0175,-13.0625,-27.7500,23.0000,188.1250,21.1250,-152.3750,0
620.553,8.9711,3.0622,0.5411,1.1804,0.4644,0.3331,-53.8500,25.9500,33.6000,9.6175,1.8938,1.4581,-0.1804,-0.0109,0.0762,-61.9500,15.4500,-5.2500,3.3100,4.2800,-8.0700,0.1145,-0.0545,-0.0175,-13.0625,-28.5625,24.5625,187.8750,21.1250,-152.5000,0
620.558,8.9711,3.0622,0.5411,1.1804,0.4644,0.3331,-53.8500,25.9500,33.6000,9.5529,2.3727,1.8507,-0.1804,-0.0109,0.0762,-61.9500,15.4500,-5.2500,3.3400,4.4600,-7.9100,0.1516,-0.0469,-0.0044,-13.0625,-28.5625,24.5625,187.8750,21.1250,-152.5000,0
620.563,8.7628,3.5913,0.8547,1.2780,0.5161,0.2902,-53.8500,25.9500,33.6000,9.5529,2.3727,1.8507,-0.0509,-0.0405,0.1100,-62.7000,14.2500,-7.2000,3.3400,4.4600,-7.9100,0.1516,-0.0469,-0.0044,-13.0625,-28.5625,24.5625,187.8750,21.0625,-152.6250,0
620.568,8.7628,3.5913,0.8547,1.2780,0.5161,0.2902,-55.3500,26.4000,36.4500,9.4595,2.6169,1.8938,0.2606,0.0144,0.1239,-62.7000,14.2500,-7.2000,3.4900,4.4500,-7.9300,0.2302,-0.0949,0.0098,-13.0625,-28.5625,24.5625,187.8750,21.0625,-152.6250,0
620.573,8.6646,4.5346,0.5531,1.3776,0.5907,0.3142,-55.3500,26.4000,36.4500,9.4595,2.6169,1.8938,0.2606,0.0144,0.1239,-62.7000,15.4500,-9.0000,3.4900,4.4500,-7.9300,0.2716,-0.0949,0.0153,-13.0625,-28.5625,24.5625,187.8750,21.0000,-152.7500,0
620.578,8.6646,4.5346,0.5531,1.3776,0.5907,0.3142,-54.0000,24.7500,33.7500,9.3805,2.5235,1.7142,0.6547,0.1250,0.1178,-62.7000,15.4500,-9.0000,3.4600,4.2600,-8.0100,0.2716,-0.0949,0.0153,-13.0625,-28.5625,24.5625,187.8750,21.0000,-152.7500,0
620.587,9.4643,3.9576,-0.2107,1.2457,0.7871,0.3661,-56.1000,24.4500,32.8500,9.6798,2.0327,1.4174,0.9745,0.1053,0.0890,-61.5000,14.8500,-6.6000,3.5000,4.0300,-8.0200,0.2749,-0.0753,0.0109,-13.0625,-28.5625,24.5625,187.8750,21.0000,-152.9375,0
620.597,9.4739,2.6719,0.1389,1.3526,0.7813,0.3451,-55.8000,23.2500,35.2500,9.6558,1.2689,1.2689,1.1391,0.1450,0.0999,-61.5000,14.8500,-6.6000,3.4600,3.9400,-8.0800,0.2629,-0.0633,-0.0022,-13.0625,-28.5625,24.5625,187.8125,20.9375,-153.0625,0
620.602,9.5217,1.7119,0.3663,1.3608,0.6989,0.3587,-55.8000,23.2500,35.2500,9.6558,1.2689,1.2689,1.1391,0.1450,0.0999,-61.5000,12.9000,-7.3500,3.4600,3.9400,-8.0800,0.2629,-0.0633,-0.0022,-13.0625,-28.5625,24.5625,187.6875,20.9375,-153.2500,0
620.607,9.5217,1.7119,0.3663,1.3608,0.6989,0.3587,-56.4000,23.7000,33.9000,9.6989,0.7566,1.5682,1.1461,0.1140,0.1050,-61.5000,12.9000,-7.3500,3.1500,4.4800,-7.9300,0.2716,-0.0742,-0.0087,-13.0625,-28.1875,24.1875,187.6875,20.9375,-153.2500,0
620.612,9.5122,1.2402,0.1580,1.3158,0.5708,0.3741,-56.4000,23.7000,33.9000,9.6989,0.7566,1.5682,1.1461,0.1140,0.1050,-61.5000,12.9000,-7.3500,3.1500,4.4800,-7.9300,0.2716,-0.0742,-0.0087,-13.0625,-28.1875,24.1875,187.6875,20.8750,-153.4375,0
620.617,9.5122,1.2402,0.1580,1.3158,0.5708,0.3741,-56.4000,23.7000,33.9000,9.4379,-0.0024,1.6496,1.0040,0.0602,0.0943,-61.5000,12.9000,-7.3500,3.2400,4.3900,-7.9800,0.3163,-0.0774,0.0087,-13.0625,-28.1875,24.1875,187.6875,20.8750,-153.4375,0
620.622,9.5241,1.1923,-0.1939,1.2316,0.5140,0.3845,-56.4000,23.7000,33.9000,9.4379,-0.0024,1.6496,1.0040,0.0602,0.0943,-63.1500,14.5500,-7.2000,3.2400,4.3900,-7.9800,0.3327,-0.0774,0.0218,-13.0625,-28.1875,24.1875,187.6250,20.8125,-153.5625,0
620.628,9.4595,1.4916,-0.1317,1.1303,0.5033,0.3941,-57.9000,24.4500,33.6000,9.2249,-0.4118,1.5897,0.6486,0.0498,0.0941,-63.1500,14.5500,-7.2000,3.3500,4.1600,-8.1000,0.3327,-0.0774,0.0218,-13.0625,-28.1875,24.1875,187.6250,20.8125,-153.5625,0
620.637,9.4595,1.4916,-0.1317,1.1303,0.5033,0.3941,-59.5500,25.8000,33.4500,9.4475,-0.2514,1.4246,0.2435,0.0709,0.1170,-61.6500,13.8000,-7.2000,3.3400,3.8500,-8.1900,0.3240,-0.0742,0.0196,-13.0625,-28.1875,24.1875,187.6250,20.8125,-153.8125,0
620.644,9.5098,1.7933,-0.0766,0.9585,0.5660,0.3842,-59.2500,27.9000,33.3000,9.6534,0.4741,1.4030,0.2435,0.0709,0.1170,-62.7000,14.2500,-6.7500,3.3400,3.8500,-8.2500,0.3033,-0.0644,0.0109,-13.0625,-28.1875,24.1875,187.6250,20.7500,-153.9375,0
620.649,9.4954,1.7741,-0.1101,0.8162,0.5316,0.3643,-59.2500,27.9000,33.3000,9.6534,0.4741,1.4030,-0.0354,0.0791,0.1450,-62.7000,14.2500,-6.7500,3.3400,3.8500,-8.2500,0.3033,-0.0644,0.0109,-13.0625,-28.1875,24.1875,187.6250,20.7500,-153.9375,0
620.654,9.4954,1.7741,-0.1101,0.8162,0.5316,0.3643,-57.4500,26.4000,32.5500,9.6175,1.2809,1.1013,-0.0354,0.0791,0.1450,-61.8000,13.6500,-5.8500,3.3300,3.8400,-8.2000,0.2923,-0.0611,0.0065,-13.0625,-27.8750,24.1875,187.5000,20.7500,-154.1250,0
620.659,9.5050,1.9082,-0.2538,0.7043,0.5596,0.3635,-57.4500,26.4000,32.5500,9.6175,1.2809,1.1013,-0.0981,0.1039,0.1372,-61.8000,13.6500,-5.8500,3.3300,3.8400,-8.2000,0.2923,-0.0611,0.0065,-13.0625,-27.8750,24.1875,187.5000,20.7500,-154.1250,0
620.664,9.5050,1.9082,-0.2538,0.7043,0.5596,0.3635,-57.4500,26.4000,32.5500,9.3685,1.6927,0.9026,-0.0981,0.1039,0.1372,-61.9500,14.2500,-7.2000,3.3200,3.8800,-8.1600,0.2869,-0.0589,0.0044,-13.0625,-27.8750,24.1875,187.5000,20.6875,-154.3125,0
620.669,9.3134,1.9968,-0.2801,0.5729,0.5249,0.3595,-57.4500,26.4000,32.5500,9.3685,1.6927,0.9026,-0.0043,0.1362,0.1194,-61.9500,14.2500,-7.2000,3.3200,3.8800,-8.1600,0.2869,-0.0589,0.0044,-13.0625,-27.8750,24.1875,187.5000,20.6875,-154.3125,0
620.674,9.3134,1.9968,-0.2801,0.5729,0.5249,0.3595,-57.4500,26.4000,32.5500,9.3015,1.9489,0.9601,-0.0043,0.1362,0.1194,-61.5000,14.4000,-6.9000,3.1800,4.0100,-8.1300,0.2760,-0.0425,0.0022,-13.0625,-27.8750,24.1875,187.4375,20.6875,-154.4375,0
620.679,9.3709,2.3511,0.2155,0.5023,0.5566,0.3600,-57.4500,26.4000,32.5500,9.3015,1.9489,0.9601,0.2038,0.1503,0.1045,-61.5000,14.4000,-6.9000,3.1800,4.0100,-8.1300,0.2760,-0.0425,0.0022,-13.0625,-27.8750,24.1875,187.4375,20.6875,-154.6250,0
620.688,9.2967,2.5115,0.2418,0.4519,0.4940,0.3619,-61.5000,30.4500,33.3000,9.3829,1.8411,1.0056,0.3680,0.1793,0.1162,-61.5000,14.4000,-6.9000,3.3700,4.0800,-8.1100,0.2651,0.0076,0.0011,-13.0625,-27.8750,24.1875,187.4375,20.6875,-154.6250,0
620.694,9.2967,2.5115,0.2418,0.4519,0.4940,0.3619,-60.4500,29.4000,32.5500,9.4547,1.5299,1.2450,0.5388,0.1873,0.1127,-61.6500,13.8000,-7.9500,3.2500,4.2400,-8.0900,0.2913,-0.0076,0.0087,-13.0625,-27.8750,24.1875,187.3750,20.6875,-154.7500,0
620.699,9.2105,2.6695,0.0215,0.4477,0.5287,0.3608,-60.4500,29.4000,32.5500,9.4547,1.5299,1.2450,0.5388,0.1873,0.1127,-61.6500,13.8000,-7.9500,3.2500,4.2400,-8.0900,0.2913,-0.0076,0.0087,-13.0625,-27.8750,24.1875,187.3750,20.6875,-154.7500,0
620.704,9.2105,2.6695,0.0215,0.4477,0.5287,0.3608,-62.5500,31.2000,32.1000,9.4236,1.2067,1.2713,0.6161,0.2097,0.1223,-61.6500,13.8000,-7.9500,3.2900,4.1100,-8.0800,0.3196,-0.0207,0.0196,-12.3750,-28.5625,24.5625,187.1875,20.6875,-154.8750,0
620.709,9.2105,2.8826,-0.1293,0.5273,0.5065,0.3555,-62.5500,31.2000,32.1000,9.4236,1.2067,1.2713,0.6161,0.2097,0.1223,-61.6500,13.8000,-7.9500,3.2900,4.1100,-8.0800,0.3196,-0.0207,0.0196,-12.3750,-28.5625,24.5625,187.1875,20.6875,-154.8750,0
620.714,9.2105,2.8826,-0.1293,0.5273,0.5065,0.3555,-62.5500,32.7000,31.8000,9.3661,0.6560,1.1971,0.6081,0.2126,0.1234,-61.6500,13.8000,-7.5000,3.3600,3.9100,-8.2100,0.3491,-0.0436,0.0273,-12.3750,-28.5625,24.5625,187.1250,20.6250,-155.1250,0
620.719,9.1363,3.0550,-0.0862,0.5654,0.5057,0.3515,-62.5500,32.7000,31.8000,9.3661,0.6560,1.1971,0.6081,0.2126,0.1234,-61.6500,13.8000,-7.5000,3.3600,3.9100,-8.2100,0.3491,-0.0436,0.0273,-12.3750,-28.5625,24.5625,187.1250,20.6250,-155.1250,0
620.723,9.1363,3.0550,-0.0862,0.5654,0.5057,0.3515,-62.5500,32.7000,31.8000,9.3350,0.6321,1.1923,0.5002,0.2526,0.1199,-62.4000,15.0000,-7.2000,3.3600,3.9100,-8.2100,0.3622,-0.0633,0.0316,-12.3750,-28.5625,24.5625,187.1250,20.6250,-155.3125,0
620.729,9.2799,3.1460,0.0718,0.8428,0.4271,0.3405,-62.5500,32.7000,31.8000,9.3350,0.6321,1.1923,0.5002,0.2526,0.1199,-62.4000,15.0000,-7.2000,3.3800,3.7400,-8.2300,0.3622,-0.0633,0.0316,-12.3750,-28.5625,24.5625,187.1250,20.5625,-155.5000,0
620.738,9.3948,2.8970,0.5722,0.9777,0.4876,0.3389,-63.3000,36.9000,33.9000,9.4786,0.6345,1.3767,0.4439,0.2817,0.1375,-62.5500,14.8500,-7.3500,3.3400,3.4900,-8.3000,0.3676,-0.0807,0.0240,-12.3750,-28.5625,24.5625,187.1250,20.5625,-155.5000,0
620.748,9.4906,2.5426,0.6488,1.0509,0.4892,0.3496,-63.9000,36.3000,34.5000,9.5026,1.0008,1.6568,0.4644,0.2998,0.1428,-62.4000,14.2500,-7.2000,3.1900,3.8100,-8.3000,0.3665,-0.0873,0.0164,-12.3750,-28.5625,24.5625,187.0625,20.5625,-155.7500,0
620.753,9.4906,2.5426,0.6488,1.0509,0.4892,0.3496,-63.0000,38.7000,32.5500,9.5002,1.2857,2.0063,0.4599,0.3086,0.1450,-61.9500,14.2500,-7.9500,3.1900,3.8100,-8.3000,0.3665,-0.0873,0.0164,-12.3750,-28.5625,24.5625,187.0625,20.5625,-155.7500,0
620.758,9.3158,2.5187,0.8092,1.1008,0.4871,0.3472,-63.0000,38.7000,32.5500,9.5002,1.2857,2.0063,0.4599,0.3086,0.1450,-61.9500,14.2500,-7.9500,3.2500,3.5900,-8.2400,0.3327,-0.0676,0.0153,-12.7500,-27.5000,26.8750,186.8750,20.5000,-155.9375,0
620.763,9.3158,2.5187,0.8092,1.1008,0.4871,0.3472,-63.0000,39.9000,33.3000,9.5050,1.2689,2.2218,0.4439,0.3030,0.1386,-61.9500,13.5000,-6.7500,3.2500,3.5900,-8.2400,0.3327,-0.0676,0.0153,-12.7500,-27.5000,26.8750,186.8750,20.5000,-155.9375,0
620.768,9.3230,2.6695,1.0463,1.0954,0.4951,0.3448,-63.0000,39.9000,33.3000,9.5050,1.2689,2.2218,0.4439,0.3030,0.1386,-61.9500,13.5000,-6.7500,3.2700,3.5700,-8.2900,0.2662,-0.0425,0.0098,-12.7500,-27.5000,26.8750,186.8125,20.5000,-156.0625,0
620.772,9.3230,2.6695,1.0463,1.0954,0.4951,0.3448,-62.7000,43.0500,33.7500,9.5912,1.1875,2.1859,0.4250,0.3083,0.1535,-63.0000,12.9000,-6.9000,3.2700,3.5700,-8.2900,0.2509,-0.0404,0.0033,-12.7500,-27.5000,26.8750,186.8125,20.4375,-156.2500,0
620.779,9.3661,2.7940,1.3048,1.0869,0.5220,0.3677,-62.7000,43.0500,33.7500,9.6343,1.2354,2.1428,0.4250,0.3083,0.1535,-63.0000,12.9000,-6.9000,3.3600,3.6400,-8.2900,0.2509,-0.0404,0.0033,-12.7500,-27.5000,26.8750,186.8125,20.4375,-156.3750,0
620.788,9.3422,2.6983,1.3072,1.0858,0.4964,0.3762,-62.7000,43.0500,33.7500,9.6343,1.2354,2.1428,0.4610,0.3107,0.1759,-62.7000,14.2500,-8.2500,3.2600,3.5400,-8.3600,0.2553,-0.0535,0.0011,-12.7500,-27.5000,26.8750,186.8125,20.4375,-156.3750,0
620.793,9.1482,2.6480,1.2857,1.1101,0.4874,0.3773,-63.7500,42.9000,34.9500,9.4595,1.2857,2.0351,0.4879,0.3240,0.1777,-62.7000,14.2500,-8.2500,3.2600,3.5400,-8.3600,0.2465,-0.0687,-0.0022,-12.7500,-27.5000,26.8750,186.7500,20.3750,-156.5000,0
620.799,9.1482,2.6480,1.2857,1.1101,0.4874,0.3773,-63.7500,42.9000,34.9500,9.4355,1.2163,1.7885,0.4802,0.3179,0.2041,-62.7000,14.2500,-8.2500,3.3500,3.4600,-8.3800,0.2465,-0.0687,-0.0022,-12.7500,-27.5000,26.8750,186.7500,20.3750,-156.5000,0
620.804,9.1674,2.4588,1.2737,1.1583,0.4887,0.3714,-63.1500,45.0000,33.7500,9.4355,1.2163,1.7885,0.4802,0.3179,0.2041,-62.7000,13.8000,-7.9500,3.3500,3.4600,-8.3800,0.2313,-0.0709,-0.0087,-13.0625,-26.7500,26.0625,186.6875,20.3750,-156.6250,0
620.809,9.1674,2.4588,1.2737,1.1583,0.4887,0.3714,-63.1500,45.0000,33.7500,9.5385,1.3862,1.5634,0.4311,0.3227,0.2292,-62.7000,13.8000,-7.9500,3.3100,3.5000,-8.3800,0.2313,-0.0709,-0.0087,-13.0625,-26.7500,26.0625,186.6875,20.3750,-156.6250,0
620.814,9.4164,2.3152,1.3024,1.2180,0.4799,0.3704,-63.3000,44.7000,35.4000,9.5385,1.3862,1.5634,0.4311,0.3227,0.2292,-62.7000,13.8000,-7.9500,3.3100,3.5000,-8.3800,0.2203,-0.0742,-0.0109,-13.0625,-26.7500,26.0625,186.6875,20.3125,-156.7500,0
620.819,9.4164,2.3152,1.3024,1.2180,0.4799,0.3704,-63.3000,44.7000,35.4000,9.5672,1.5395,1.7980,0.4255,0.3195,0.2505,-62.7000,13.8000,-7.9500,3.2000,3.7000,-8.3000,0.2203,-0.0742,-0.0109,-13.0625,-26.7500,26.0625,186.6875,20.3125,-156.7500,0
620.824,9.5816,2.0806,2.0279,1.2039,0.4930,0.3581,-62.4000,45.3000,34.2000,9.5672,1.5395,1.7980,0.4255,0.3195,0.2505,-62.7000,12.3000,-8.2500,3.2000,3.7000,-8.3000,0.2203,-0.0764,-0.0131,-13.0625,-26.7500,26.0625,186.6875,20.2500,-156.8750,0
620.829,9.5816,2.0806,2.0279,1.2039,0.4930,0.3581,-62.4000,45.3000,34.2000,9.4140,1.6496,2.6719,0.5500,0.3243,0.2555,-62.7000,12.3000,-8.2500,3.0500,3.7700,-8.3600,0.2203,-0.0764,-0.0131,-13.0625,-26.7500,26.0625,186.6250,20.2500,-157.0000,0
620.838,9.5840,1.4820,2.1117,1.1258,0.4706,0.3587,-62.4000,45.3000,34.2000,9.4906,1.4629,3.1436,0.5977,0.3030,0.2483,-61.6500,14.2500,-9.0000,3.0800,4.0300,-8.3100,0.2236,-0.0742,-0.0011,-13.0625,-26.7500,26.0625,186.6250,20.1875,-157.1875,0
620.848,9.3996,0.8835,1.8699,1.0091,0.4780,0.3675,-62.4000,45.3000,34.2000,9.5696,0.6919,3.1460,0.5601,0.2915,0.2625,-63.7500,13.6500,-8.1000,3.3700,3.6500,-8.4000,0.2378,-0.0709,0.0000,-13.0625,-26.7500,26.0625,186.6250,20.1875,-157.1875,0
620.853,9.4906,0.8045,1.8220,0.9324,0.4740,0.3872,-63.4500,45.3000,35.5500,9.5696,0.6919,3.1460,0.5601,0.2915,0.2625,-62.7000,13.8000,-9.3000,3.3700,3.6500,-8.4000,0.2378,-0.0709,0.0000,-13.0625,-26.7500,26.0625,186.6250,20.1875,-157.1875,0
620.858,9.4906,0.8045,1.8220,0.9324,0.4740,0.3872,-63.4500,45.3000,35.5500,9.7659,0.3687,3.0311,0.4439,0.2745,0.2907,-62.7000,13.8000,-9.3000,3.3700,3.3200,-8.5100,0.2443,-0.0731,0.0000,-12.7500,-27.5000,27.2500,186.4375,20.1875,-157.3125,0
620.863,9.7037,0.9744,1.8244,0.8124,0.4938,0.4277,-60.9000,46.0500,36.3000,9.7659,0.3687,3.0311,0.4439,0.2745,0.2907,-61.9500,12.6000,-8.7000,3.3700,3.3200,-8.5100,0.2443,-0.0731,0.0000,-12.7500,-27.5000,27.2500,186.4375,20.1875,-157.3125,0
620.868,9.7037,0.9744,1.8244,0.8124,0.4938,0.4277,-60.9000,46.0500,36.3000,9.6869,0.2682,2.4038,0.2638,0.2270,0.3096,-61.9500,12.6000,-8.7000,3.3800,3.2000,-8.4700,0.2247,-0.0720,-0.0087,-12.7500,-27.5000,27.2500,186.4375,20.1250,-157.4375,0
620.873,9.5265,1.0104,1.7765,0.6776,0.4482,0.4647,-60.9000,46.8000,36.3000,9.6869,0.2682,2.4038,0.2638,0.2270,0.3096,-63.4500,12.6000,-8.7000,3.3800,3.2000,-8.4700,0.2051,-0.0709,-0.0153,-12.7500,-27.5000,27.2500,186.3750,20.0625,-157.5625,0
620.879,9.5265,1.0104,1.7765,0.5907,0.4466,0.4858,-60.9000,46.8000,36.3000,9.6103,0.1796,2.3128,0.1202,0.2403,0.2923,-63.4500,13.5000,-7.2000,3.1900,3.2800,-8.4300,0.2051,-0.0709,-0.0153,-12.7500,-27.5000,27.2500,186.3750,20.0625,-157.6875,0
620.888,9.6079,1.0439,1.7621,0.5907,0.4466,0.4858,-60.7500,46.9500,37.2000,9.5864,1.0391,2.3511,0.1479,0.2233,0.2912,-63.4500,13.5000,-7.2000,3.1100,3.5700,-8.3900,0.1942,-0.0731,-0.0142,-12.7500,-27.5000,27.2500,186.3750,20.0000,-157.7500,0
620.898,9.5960,1.1396,1.7310,0.5577,0.4423,0.4959,-60.7500,46.9500,37.2000,9.4954,1.2067,2.5211,0.2883,0.2174,0.3014,-62.5500,13.6500,-8.1000,3.0500,3.4800,-8.4900,0.1811,-0.0698,-0.0142,-12.7500,-27.5000,27.2500,186.3750,20.0000,-157.7500,0
620.903,9.6774,1.0582,1.7765,0.4746,0.4410,0.5060,-61.8000,48.4500,37.2000,9.4954,1.2067,2.5211,0.2883,0.2174,0.3014,-62.5500,13.6500,-8.1000,3.0500,3.4800,-8.4900,0.1811,-0.0698,-0.0142,-12.7500,-27.5000,27.2500,186.3750,20.0000,-157.7500,0
620.908,9.6774,1.0582,1.7765,0.4407,0.3834,0.5028,-61.8000,48.4500,37.2000,9.6462,0.7422,2.2027,0.3515,0.2073,0.3176,-62.5500,13.6500,-8.1000,3.1300,3.2700,-8.5900,0.1625,-0.0611,-0.0098,-12.0000,-26.7500,25.7500,186.1875,20.0000,-157.8750,0
620.913,9.4882,1.0654,1.5802,0.4407,0.3834,0.5028,-58.8000,47.5500,38.4000,9.4284,0.6129,1.9800,0.3515,0.2073,0.3176,-63.1500,13.8000,-7.9500,3.1300,3.2700,-8.5900,0.1625,-0.0611,-0.0098,-12.0000,-26.7500,25.7500,186.1875,20.0000,-157.8750,0
620.918,9.4523,1.0942,1.2857,0.3352,0.3874,0.5060,-58.8000,47.5500,38.4000,9.4284,0.6129,1.9800,0.2819,0.2161,0.3309,-63.1500,13.8000,-7.9500,3.1900,3.2400,-8.6100,0.1385,-0.0415,-0.0022,-12.0000,-26.7500,25.7500,186.1875,19.9375,-157.9375,0
620.923,9.4523,1.0942,1.2857,0.3352,0.3874,0.5060,-60.3000,49.0500,38.7000,9.2368,0.8212,1.5060,0.2819,0.2161,0.3309,-63.1500,13.8000,-7.9500,3.1900,3.2400,-8.6100,0.1058,-0.0164,0.0011,-12.0000,-26.7500,25.7500,186.1250,19.9375,-158.0000,0
620.929,9.3996,1.2953,1.2210,0.2502,0.3301,0.5007,-59.2500,50.7000,40.3500,9.2368,0.8212,1.5060,0.2126,0.2300,0.3267,-62.4000,13.5000,-7.2000,3.2600,3.1900,-8.6600,0.1058,-0.0164,0.0011,-12.0000,-26.7500,25.7500,186.1250,19.9375,-158.0000,0
620.938,9.5050,1.7166,0.9457,0.1551,0.2561,0.5039,-59.2500,50.7000,40.3500,9.2751,0.7661,1.0127,0.1266,0.2478,0.3355,-62.5500,13.2000,-8.8500,3.2300,3.3300,-8.5900,0.0764,0.0055,0.0055,-12.0000,-26.7500,25.7500,186.1250,19.9375,-158.0625,0
620.944,9.5050,1.7166,0.9457,0.1551,0.2561,0.5039,-57.7500,49.5000,39.9000,9.2823,1.1684,0.4980,0.0104,0.2587,0.3680,-63.1500,13.5000,-7.2000,3.1400,3.3300,-8.5400,0.0556,0.0251,0.0076,-12.0000,-26.7500,25.7500,186.1250,19.9375,-158.1250,0
620.949,9.7372,1.9848,0.6225,0.1476,0.1338,0.4927,-57.7500,49.5000,39.9000,9.2823,1.1684,0.4980,0.0104,0.2587,0.3680,-63.1500,13.5000,-7.2000,3.1400,3.3300,-8.5400,0.0556,0.0251,0.0076,-12.0000,-26.7500,25.7500,186.1250,19.9375,-158.1250,0
620.954,9.7372,1.9848,0.6225,0.1476,0.1338,0.4927,-57.7500,49.5000,39.9000,9.3470,1.5897,0.6440,0.0261,0.3176,0.3952,-62.7000,14.2500,-7.5000,3.1400,3.3300,-8.5400,0.0556,0.0251,0.0076,-12.3750,-26.7500,26.5000,186.0625,19.9375,-158.1250,0
620.959,9.8713,2.3607,0.2729,0.2198,0.0885,0.4706,-57.7500,51.0000,41.5500,9.3470,1.5897,0.6440,0.0261,0.3176,0.3952,-62.7000,14.2500,-7.5000,3.0500,3.3300,-8.5300,0.0371,0.0327,0.0120,-12.3750,-26.7500,26.5000,186.0625,19.9375,-158.1250,0
620.964,9.8713,2.3607,0.2729,0.2198,0.0885,0.4706,-57.7500,51.0000,41.5500,9.6965,1.8962,0.9888,0.0517,0.3627,0.4402,-62.2500,12.0000,-6.9000,3.0500,3.3300,-8.5300,0.0371,0.0327,0.0120,-12.3750,-26.7500,26.5000,186.0625,19.9375,-158.1250,0
620.969,10.0197,2.3439,0.0766,0.2771,0.0493,0.4429,-58.2000,50.4000,41.8500,9.6965,1.8962,0.9888,0.0517,0.3627,0.4402,-62.2500,12.0000,-6.9000,3.0400,3.3600,-8.6200,0.0229,0.0469,0.0098,-12.3750,-26.7500,26.5000,186.0625,19.9375,-158.1250,0
620.974,10.0197,2.3439,0.0766,0.2771,0.0493,0.4429,-58.2000,50.4000,41.8500,9.5337,1.5060,1.3336,0.1111,0.4120,0.4557,-63.3000,10.9500,-6.6000,3.0400,3.3600,-8.6200,0.0098,0.0698,0.0065,-12.3750,-26.7500,26.5000,186.0000,20.0000,-158.1250,0
620.979,9.7947,2.1739,0.0694,0.2505,0.0112,0.3976,-56.4000,52.2000,42.9000,9.5337,1.5060,1.3336,0.1111,0.4120,0.4557,-63.3000,10.9500,-6.6000,3.1100,3.4600,-8.6800,0.0098,0.0698,0.0065,-12.3750,-26.7500,26.5000,186.0000,20.0000,-158.1250,0
620.988,9.5816,2.0111,0.2538,0.1961,0.0232,0.3544,-57.4500,51.4500,43.2000,9.5840,0.8452,2.0135,0.0703,0.4924,0.4852,-63.4500,12.6000,-7.5000,3.2500,2.9000,-8.7400,-0.0098,0.0971,0.0033,-12.3750,-26.7500,26.5000,186.0000,20.0000,-158.1250,0
620.993,9.5816,2.0111,0.2538,0.1961,0.0232,0.3544,-57.4500,51.4500,43.2000,9.5122,0.7111,1.8818,-0.0205,0.4802,0.5028,-63.4500,12.6000,-7.5000,3.2500,2.9000,-8.7400,-0.0425,0.1287,-0.0251,-12.3750,-26.7500,26.5000,186.0000,20.0625,-158.1250,0
620.999,9.6175,1.7957,0.6057,0.0938,0.0160,0.3363,-57.4500,51.4500,43.2000,9.5122,0.7111,1.8818,-0.0205,0.4802,0.5028,-63.4500,12.6000,-7.5000,3.2400,3.6400,-8.6200,-0.0425,0.1287,-0.0251,-12.3750,-26.7500,26.5000,186.0000,20.0625,-158.1250,0
621.004,9.6175,1.7957,0.6057,0.0938,0.0160,0.3363,-57.4500,51.4500,43.2000,9.3494,0.5842,2.0949,-0.1423,0.4994,0.5225,-63.7500,11.7000,-8.1000,3.2400,3.6400,-8.6200,-0.0862,0.1451,-0.0371,-12.3750,-26.3750,27.2500,185.8125,20.1250,-158.0625,0
621.009,9.7013,1.6328,0.6823,-0.0085,-0.0341,0.3264,-57.4500,51.4500,43.2000,9.3565,0.4645,2.1428,-0.1423,0.4994,0.5225,-63.7500,11.7000,-8.1000,3.1000,3.3300,-8.7200,-0.0862,0.1451,-0.0371,-12.3750,-26.3750,27.2500,185.8125,20.1250,-158.0625,0
621.014,9.7013,1.6328,0.6823,-0.0085,-0.0341,0.3264,-57.4500,51.4500,43.2000,9.3565,0.4645,2.1428,-0.2904,0.5132,0.5838,-63.7500,11.7000,-8.1000,3.1000,3.3300,-8.7200,-0.1254,0.1625,-0.0753,-12.3750,-26.3750,27.2500,185.7500,20.1875,-158.0000,0
621.019,9.7324,1.5897,0.5986,-0.1018,-0.0874,0.3078,-57.9000,52.6500,42.9000,9.6247,0.6416,2.0231,-0.2904,0.5132,0.5838,-63.7500,11.7000,-8.1000,3.1500,3.2300,-8.9000,-0.1254,0.1625,-0.0753,-12.3750,-26.3750,27.2500,185.7500,20.1875,-158.0000,0
621.024,9.7324,1.5897,0.5986,-0.1018,-0.0874,0.3078,-57.9000,52.6500,42.9000,9.6247,0.6416,2.0231,-0.3952,0.5662,0.6664,-63.1500,11.8500,-6.7500,3.1500,3.2300,-8.9000,-0.1364,0.1942,-0.1320,-12.3750,-26.3750,27.2500,185.6875,20.2500,-157.8750,0
621.029,9.6271,1.9321,0.7230,-0.1697,-0.1444,0.2990,-56.8500,53.7000,44.7000,9.2847,0.1269,1.4988,-0.3685,0.5593,0.7815,-63.1500,11.8500,-6.7500,3.2000,3.2400,-8.8200,-0.1364,0.1942,-0.1320,-12.3750,-26.3750,27.2500,185.6875,20.2500,-157.8750,0
621.038,8.8585,2.6576,1.0008,-0.2673,-0.2462,0.2635,-55.8000,51.3000,44.1000,7.8051,-4.8315,5.5498,-0.3685,0.5593,0.7815,-61.9500,12.3000,-7.2000,2.9500,3.4400,-9.0000,-0.1244,0.2400,-0.1844,-12.3750,-26.3750,27.2500,185.5625,20.2500,-157.8125,0
621.048,9.3278,2.2817,0.0024,-0.3445,-0.2886,0.2238,-56.1000,53.7000,42.9000,13.0604,1.4916,2.8994,-0.5105,0.7989,1.0456,-64.3500,11.4000,-7.5000,1.9800,-7.0500,-13.9600,0.0654,0.3283,-0.4178,-12.3750,-26.3750,27.2500,185.3125,20.3750,-157.7500,0
621.053,9.3278,2.2817,0.0024,-0.3445,-0.2886,0.2238,-56.1000,53.7000,42.9000,13.0604,1.4916,2.8994,-0.2459,0.9310,1.4536,-64.3500,11.4000,-7.5000,1.9800,-7.0500,-13.9600,0.0654,0.3283,-0.4178,-12.3750,-26.3750,27.2500,185.3125,20.3750,-157.7500,0
621.058,11.3916,2.9880,1.0247,-0.2699,-0.1911,0.2729,-56.1000,53.7000,42.9000,12.1769,6.5194,0.5483,1.2697,0.6374,1.2121,-62.5500,11.2500,-6.9000,2.0600,6.2600,-8.7900,0.3960,0.6600,-1.0897,-12.3750,-27.0625,26.5000,184.5000,20.4375,-157.6875,0
621.063,11.3916,2.9880,1.0247,-0.2699,-0.1911,0.2729,-56.1000,53.7000,42.9000,12.1769,6.5194,0.5483,1.2697,0.6374,1.2121,-62.5500,11.2500,-6.9000,2.0600,6.2600,-8.7900,0.3960,0.6600,-1.0897,-12.3750,-27.0625,26.5000,184.5000,20.4375,-157.6875,0
621.068,12.8976,3.1627,2.1476,-0.4191,-0.1988,0.4207,-57.4500,51.4500,43.2000,9.9814,5.5545,2.3200,2.2958,0.7965,0.6366,-61.9500,11.4000,-5.7000,2.4800,6.5200,-8.6600,0.2716,1.0636,-1.1574,-12.3750,-27.0625,26.5000,183.7500,20.7500,-157.5000,0
621.073,12.8976,3.1627,2.1476,-0.4104,-0.1596,0.5081,-57.4500,51.4500,43.2000,9.9814,5.5545,2.3200,2.2958,0.7965,0.6366,-61.9500,11.4000,-5.7000,2.4800,6.5200,-8.6600,0.1822,1.2315,-0.8421,-12.3750,-27.0625,26.5000,183.1250,21.1875,-157.3750,0
621.079,12.2511,2.4612,2.1907,-0.4104,-0.1596,0.5081,-57.9000,52.2000,43.2000,11.3916,2.3439,2.8994,2.3758,0.9076,0.6102,-62.5500,10.0500,-5.1000,3.2400,5.7900,-8.6100,0.1822,1.2315,-0.8421,-12.3750,-27.0625,26.5000,182.6250,21.7500,-157.2500,0
621.089,11.2743,1.7980,0.9505,-0.0528,-0.1404,0.5481,-58.0500,50.5500,43.3500,12.5959,-1.4102,3.4261,1.3912,0.8543,0.8314,-62.5500,10.0500,-5.1000,4.3200,5.6700,-7.8500,0.1854,1.3526,-0.5749,-12.3750,-27.0625,26.5000,182.6250,21.7500,-157.2500,0
621.099,10.5728,2.5570,-0.0838,0.2262,-0.3683,0.5745,-57.0000,52.8000,43.0500,11.9375,-2.0039,1.2953,0.0112,0.6547,0.9062,-63.7500,11.2500,-6.1500,3.4100,6.4100,-8.0700,0.2203,1.3810,-0.3098,-12.3750,-27.0625,26.5000,182.2500,22.4375,-157.1875,0
621.103,9.8067,4.0438,-0.0287,0.3571,-0.5300,0.4911,-57.0000,52.8000,43.0500,11.9375,-2.0039,1.2953,0.0112,0.6547,0.9062,-63.7500,11.2500,-6.1500,3.4100,6.4100,-8.0700,0.2203,1.3810,-0.3098,-12.3750,-27.0625,26.5000,182.2500,22.4375,-157.1875,0
621.108,9.8067,4.0438,-0.0287,0.3571,-0.5300,0.4911,-58.6500,54.4500,42.4500,11.0325,-0.5195,0.8715,-0.8852,0.6486,0.7781,-63.7500,11.2500,-6.1500,4.3600,6.2100,-7.8200,0.2847,1.3188,-0.0774,-12.3750,-26.7500,25.7500,182.0000,23.0625,-157.1875,0
621.113,9.3972,5.1715,0.3304,0.4586,-0.3528,0.3432,-58.6500,54.4500,42.4500,11.0325,-0.5195,0.8715,-0.8852,0.6486,0.7781,-63.7500,11.2500,-6.1500,4.3600,6.2100,-7.8200,0.2847,1.3188,-0.0774,-12.3750,-26.7500,25.7500,182.0000,23.0625,-157.1875,0
621.118,9.3972,5.1715,0.3304,0.4586,-0.3528,0.3432,-58.6500,54.4500,42.4500,10.7332,1.1061,0.3615,-1.3859,0.7352,0.7019,-64.8000,9.3000,-4.3500,4.5000,4.9800,-8.1900,0.3414,1.2392,0.1920,-12.3750,-26.7500,25.7500,181.9375,23.7500,-157.3125,0
621.123,9.6175,5.5138,0.3160,0.7298,-0.1266,0.2118,-58.6500,54.4500,42.4500,10.7332,1.1061,0.3615,-1.3859,0.7352,0.7019,-64.8000,9.3000,-4.3500,4.5000,4.9800,-8.1900,0.4134,1.2370,0.5596,-12.3750,-26.7500,25.7500,182.1250,24.5000,-157.5625,0
621.129,9.6175,5.5138,0.3160,0.7298,-0.1266,0.2118,-58.2000,56.4000,43.9500,10.8936,2.3679,-1.2330,-1.4226,0.7576,0.7544,-64.8000,9.0000,-4.3500,4.4100,4.1600,-7.6000,0.4134,1.2370,0.5596,-12.3750,-26.7500,25.7500,182.5000,25.3125,-157.7500,0
621.139,10.2615,5.3702,-0.2179,1.1642,0.0120,0.1146,-59.1000,56.5500,43.0500,11.1761,3.1580,-2.4636,-1.0365,0.7885,0.8474,-65.2500,11.2500,-5.1000,4.7800,4.7500,-8.8100,0.1996,1.2108,0.9556,-12.3750,-26.7500,25.7500,183.1250,26.1875,-158.0625,0
621.149,10.5536,4.9249,-0.8930,1.5761,-0.1140,0.0027,-59.8500,58.0500,42.7500,11.1211,3.8810,-1.9728,-0.5553,0.8567,0.9526,-65.5500,9.3000,-6.1500,3.5400,4.6800,-9.4300,0.1527,1.0799,1.3646,-12.3750,-26.7500,25.7500,183.1250,26.1875,-158.0625,0
621.154,10.2568,4.7860,-1.7142,1.7882,-0.3064,-0.1138,-59.8500,58.0500,42.7500,10.4890,4.8171,-1.0798,-0.5553,0.8567,0.9526,-65.5500,9.3000,-6.1500,3.5400,4.6800,-9.4300,0.1527,1.0799,1.3646,-12.3750,-26.7500,25.7500,183.1250,26.1875,-158.0625,0
621.159,10.2568,4.7860,-1.7142,1.7882,-0.3064,-0.1138,-59.2500,58.9500,41.8500,10.4890,4.8171,-1.0798,-0.0117,1.0493,1.0941,-64.6500,9.1500,-5.2500,3.8200,5.0500,-9.6600,0.1025,1.2272,1.7148,-13.5000,-26.3750,26.5000,183.8750,27.1250,-158.4375,0
621.164,9.8354,5.2385,-2.5474,1.8189,-0.3906,-0.2462,-59.2500,58.9500,41.8500,10.5584,4.8459,-1.0534,-0.0117,1.0493,1.0941,-64.6500,9.1500,-5.2500,3.8200,5.0500,-9.6600,0.1025,1.2272,1.7148,-13.5000,-26.3750,26.5000,183.8750,27.1250,-158.4375,0
621.169,9.8354,5.2385,-2.5474,1.8189,-0.3906,-0.2462,-59.2500,58.9500,41.8500,10.5584,4.8459,-1.0534,0.5518,1.0928,1.2859,-66.1500,10.6500,-4.9500,3.8300,4.7000,-9.7200,0.1647,1.3744,1.9471,-13.5000,-26.3750,26.5000,184.8125,28.2500,-158.9375,0
621.174,8.8777,5.8012,-3.0502,1.8546,-0.5289,-0.3954,-59.2500,58.9500,41.8500,10.6063,3.5650,-0.9744,0.6749,1.2351,1.5068,-66.1500,10.6500,-4.9500,3.8300,4.7000,-9.7200,0.4254,1.4770,1.9668,-13.5000,-26.3750,26.5000,185.6875,29.3750,-159.5625,0
621.179,8.5641,6.3231,-3.1005,1.8716,-0.7099,-0.5870,-59.2500,58.9500,41.8500,10.6063,3.5650,-0.9744,0.6749,1.2351,1.5068,-66.1500,10.6500,-4.9500,3.4800,4.7300,-10.2800,0.4254,1.4770,1.9668,-13.5000,-26.3750,26.5000,186.4375,30.6250,-160.4375,0
621.189,8.5641,6.3231,-3.1005,1.7650,-0.8716,-0.8127,-61.6500,59.2500,39.9000,10.9511,2.7126,-0.6632,0.8644,1.3211,1.6521,-64.8000,9.0000,-4.3500,4.6300,6.2400,-10.1300,0.8967,1.6253,1.8522,-13.5000,-26.3750,26.5000,186.4375,30.6250,-160.4375,0
621.199,8.0086,5.5162,-1.8387,1.6443,-0.8713,-0.9723,-60.3000,59.5500,38.7000,10.9056,2.1141,-0.8643,1.0328,1.3536,1.6878,-64.8000,9.0000,-4.3500,6.2600,7.1200,-10.0000,1.5152,1.8490,1.8380,-13.5000,-26.3750,26.5000,187.0625,31.8750,-161.6875,0
621.204,8.0086,5.5162,-1.8387,1.6443,-0.8713,-0.9723,-60.3000,59.5500,38.7000,10.4435,2.0159,-0.2705,1.3296,1.2593,1.5966,-64.8000,9.0000,-4.3500,6.2600,7.1200,-10.0000,1.5152,1.8490,1.8380,-13.5000,-26.3750,26.5000,187.6250,33.1875,-163.4375,0
621.209,8.6838,4.3790,-1.0822,1.4997,-0.7176,-1.0320,-60.3000,61.8000,37.6500,10.4435,2.0159,-0.2705,1.3296,1.2593,1.5966,-65.4000,6.7500,-2.7000,6.0600,7.7900,-10.6800,2.3224,1.8097,1.9788,-17.1875,-25.2500,25.7500,187.6250,33.1875,-163.4375,0
621.213,8.6838,4.3790,-1.0822,1.4997,-0.7176,-1.0320,-60.3000,61.8000,37.6500,8.7484,1.6520,0.5746,1.5657,1.3171,1.5119,-65.4000,6.7500,-2.7000,6.0600,7.7900,-10.6800,2.3224,1.8097,1.9788,-17.1875,-25.2500,25.7500,188.1250,34.2500,-165.6875,0
621.219,9.3901,2.8371,-0.3280,1.3502,-0.6558,-0.9678,-60.3000,60.0000,35.8500,8.7484,1.6520,0.5746,1.5657,1.3171,1.5119,-65.4000,6.7500,-2.7000,5.6000,8.7200,-8.2200,3.0216,1.3875,1.9951,-17.1875,-25.2500,25.7500,188.1250,34.2500,-165.6875,0
621.224,9.3901,2.8371,-0.3280,1.3502,-0.6558,-0.9678,-60.3000,60.0000,35.8500,8.3845,2.1811,2.9233,1.8762,1.3784,1.4080,-65.4000,6.7500,-2.7000,5.6000,8.7200,-8.2200,3.5114,1.1966,1.8959,-17.1875,-25.2500,25.7500,188.5000,35.1250,-168.2500,0
621.230,10.1227,1.5802,-0.5483,1.2742,-0.5937,-0.8458,-60.3000,60.0000,35.8500,8.3845,2.1811,2.9233,1.8762,1.3784,1.4080,-64.3500,6.4500,-2.7000,5.5000,8.1900,-8.2100,3.5114,1.1966,1.8959,-17.1875,-25.2500,25.7500,188.6250,35.8750,-171.0000,0
621.239,10.2711,0.7853,-0.6081,1.2132,-0.5550,-0.7330,-60.6000,59.2500,33.4500,7.4364,2.3870,6.0118,2.2204,1.4802,1.2891,-64.6500,7.5000,-2.7000,4.5500,7.4600,-6.3800,3.9226,1.1410,1.6221,-17.1875,-25.2500,25.7500,188.6250,35.8750,-171.0000,0
621.249,10.4196,0.6560,-0.4238,1.2564,-0.4527,-0.6678,-59.8500,58.5000,33.0000,6.8331,3.9289,8.5952,2.5151,1.6896,1.1791,-64.8000,4.6500,-1.3500,9.0100,7.9800,-3.9000,4.0513,1.5664,1.1486,-17.1875,-25.2500,25.7500,188.5000,36.8125,-173.6250,0
621.254,10.4196,0.6560,-0.4238,1.2564,-0.4527,-0.6678,-59.8500,60.0000,30.1500,7.7476,6.6822,3.9265,2.1325,1.8914,1.1154,-64.8000,4.6500,-1.3500,9.0100,7.9800,-3.9000,4.0513,1.5664,1.1486,-17.1875,-25.2500,25.7500,188.5000,36.8125,-173.6250,0
621.259,12.2559,1.6017,0.8619,1.5287,-0.4874,-0.6606,-59.8500,60.0000,30.1500,7.7476,6.6822,3.9265,2.1325,1.8914,1.1154,-64.6500,4.8000,-1.2000,13.1000,21.5900,0.9200,4.0666,2.8034,0.3338,-21.1875,-22.3750,25.7500,187.8125,38.3750,-175.8750,0
621.264,12.2559,1.6017,0.8619,1.5287,-0.4874,-0.6606,-58.6500,61.2000,28.9500,10.3573,8.1882,4.4915,1.9788,1.8847,1.2196,-64.6500,4.8000,-1.2000,13.1000,21.5900,0.9200,4.0666,2.8034,0.3338,-21.1875,-22.3750,25.7500,187.8125,38.3750,-175.8750,0
621.268,10.9846,1.4653,-0.0479,1.2665,-0.2864,-0.7778,-58.6500,61.2000,28.9500,10.3573,8.1882,4.4915,1.9788,1.8847,1.2196,-63.4500,4.8000,-0.4500,10.4900,28.8100,-3.7300,4.1670,4.2913,-1.6395,-21.1875,-22.3750,25.7500,186.0625,40.7500,-177.3125,0
621.273,10.9846,1.4653,-0.0479,1.2665,-0.2864,-0.7778,-58.6500,60.1500,28.2000,11.0205,11.7124,3.9049,2.8368,1.7922,1.3259,-63.4500,4.8000,-0.4500,10.4900,28.8100,-3.7300,4.4604,4.3011,-4.1561,-21.1875,-22.3750,25.7500,182.7500,43.0000,-177.6250,0
621.280,10.6015,2.2146,0.1700,0.9934,0.1063,-0.9731,-58.6500,60.1500,28.2000,9.0261,11.8465,5.2337,4.7284,1.6649,1.1738,-65.1000,4.8000,-1.6500,9.3500,11.1300,-0.7700,4.4604,4.3011,-4.1561,-21.1875,-22.3750,25.7500,183.8750,45.1250,-177.3125,0
621.289,9.8809,3.7685,0.6249,1.0355,0.2936,-1.1919,-58.6500,60.1500,28.2000,7.6184,8.6550,6.8594,6.9877,1.7304,0.8084,-65.1000,4.8000,-1.6500,10.5900,9.4200,-4.1500,4.8378,4.0110,-5.4182,-21.1875,-22.3750,25.7500,183.8750,45.1250,-177.3125,0
621.299,9.3182,4.9871,1.7190,1.1575,0.3869,-1.3829,-59.7000,60.9000,25.8000,7.5968,4.7477,8.7867,8.4554,1.7650,0.3456,-63.4500,5.2500,0.1500,8.5100,6.3900,-5.3700,4.6131,3.7448,-5.8174,-21.1875,-22.3750,25.7500,180.8125,47.0000,-176.4375,0
621.304,9.3182,4.9871,1.7190,1.1575,0.3869,-1.3829,-59.1000,59.2500,24.4500,7.5968,4.7477,8.7867,8.4554,1.7650,0.3456,-63.4500,5.2500,0.1500,8.5100,6.3900,-5.3700,4.6131,3.7448,-5.8174,-21.1875,-22.3750,25.7500,180.8125,47.0000,-176.4375,0
621.309,9.2847,5.2720,3.2513,1.1575,0.6150,-1.4885,-59.1000,59.2500,24.4500,9.1459,1.1301,8.8155,8.7312,1.5588,-0.0655,-63.4500,5.2500,0.1500,5.9600,3.5400,-5.1800,4.3862,2.6682,-5.6570,-24.0625,-17.5625,25.2500,178.3125,48.2500,-175.3125,0
621.314,9.2847,5.2720,3.2513,1.1575,0.6150,-1.4885,-59.1000,59.2500,24.9000,9.1459,1.1301,8.8155,8.7312,1.5588,-0.0655,-63.4500,5.2500,0.1500,5.9600,3.5400,-5.1800,4.3862,2.6682,-5.6570,-24.0625,-17.5625,25.2500,178.3125,48.2500,-175.3125,0
621.319,9.8928,4.5825,4.7932,1.2207,0.4069,-1.5199,-59.1000,59.2500,24.9000,10.0245,-2.7054,7.4962,8.2233,1.3107,-0.2987,-63.0000,4.6500,1.0500,4.3800,0.0100,-7.2300,3.5834,2.3475,-5.1182,-24.0625,-17.5625,25.2500,176.5625,49.3125,-173.9375,0
621.324,9.8928,4.5825,4.7932,1.2207,0.4069,-1.5199,-58.6500,54.9000,22.5000,10.0245,-2.7054,7.4962,8.2233,1.3107,-0.2987,-63.0000,4.6500,1.0500,4.3800,0.0100,-7.2300,2.5187,1.9024,-4.3437,-24.0625,-17.5625,25.2500,175.7500,50.0625,-172.3750,0
621.330,10.5752,3.4477,5.7820,1.4048,0.2118,-1.4602,-58.6500,54.9000,22.5000,10.7284,-7.0174,6.2656,6.5187,0.9931,-0.3661,-61.8000,4.9500,-0.3000,3.1300,-0.1600,-7.3000,2.5187,1.9024,-4.3437,-24.0625,-17.5625,25.2500,175.6250,50.5625,-170.8125,0
621.339,11.3820,2.3966,5.4660,1.4546,0.1063,-1.3251,-58.6500,54.9000,22.5000,10.3980,-9.4044,5.5952,4.1003,0.5156,-0.3107,-63.3000,4.9500,-0.6000,2.4600,0.3500,-7.2600,1.5806,1.4246,-3.4383,-24.0625,-17.5625,25.2500,175.6250,50.5625,-170.8125,0
621.349,11.2719,1.4126,3.9265,1.8341,-0.2164,-1.1866,-58.6500,54.9000,22.5000,8.9088,-8.3773,5.3582,1.6086,0.0208,-0.2286,-62.5500,4.9500,-1.0500,1.8400,1.8100,-7.2400,0.8792,1.0494,-2.5940,-24.0625,-17.5625,25.2500,175.8750,50.8750,-169.4375,0
621.354,11.4515,0.6632,2.1141,2.2902,-0.3632,-1.0904,-58.8000,48.3000,22.0500,8.9088,-8.3773,5.3582,1.6086,0.0208,-0.2286,-62.5500,4.9500,-1.0500,1.8400,1.8100,-7.2400,0.8792,1.0494,-2.5940,-24.0625,-17.5625,25.2500,176.3125,51.1250,-168.2500,0
621.359,11.4515,0.6632,2.1141,2.2902,-0.3632,-1.0904,-58.8000,48.3000,22.0500,8.0349,-5.4300,5.3032,-0.2457,-0.3842,-0.1199,-63.0000,6.9000,-0.6000,1.5800,2.8200,-7.5200,0.4320,0.7876,-1.9711,-22.6875,-20.0625,25.1875,176.3125,51.1250,-168.2500,0
621.364,11.3222,0.0048,0.5794,2.5508,-0.5239,-1.0219,-56.5500,46.5000,19.9500,8.0349,-5.4300,5.3032,-0.2457,-0.3842,-0.1199,-63.0000,6.9000,-0.6000,1.5800,2.8200,-7.5200,0.4320,0.7876,-1.9711,-22.6875,-20.0625,25.1875,176.3125,51.1250,-168.2500,0
621.369,11.3222,0.0048,0.5794,2.5508,-0.5239,-1.0219,-56.5500,46.5000,19.9500,8.1810,-3.2657,4.6615,-1.4093,-0.7256,-0.0205,-63.1500,6.4500,-0.4500,1.4000,3.4600,-7.9400,0.2313,0.4865,-1.6057,-22.6875,-20.0625,25.1875,176.8125,51.1875,-167.2500,0
621.374,11.5113,-0.5124,-0.8284,2.5975,-0.5556,-0.9963,-56.2500,44.5500,19.2000,8.1810,-3.2657,4.6615,-1.4093,-0.7256,-0.0205,-63.1500,6.4500,-0.4500,1.4000,3.4600,-7.9400,0.0818,0.0218,-1.4683,-22.6875,-20.0625,25.1875,177.5625,51.0000,-166.3125,0
621.380,11.5113,-0.5124,-0.8284,2.5975,-0.5556,-0.9963,-56.2500,44.5500,19.2000,8.4755,-2.0375,4.0917,-2.2095,-1.0608,0.0735,-63.1500,5.2500,-0.9000,0.9400,4.0900,-7.8600,0.0818,0.0218,-1.4683,-22.6875,-20.0625,25.1875,178.5625,50.6250,-165.3125,0
621.389,11.6023,-0.9313,-2.2290,2.5559,-0.6310,-1.0371,-56.1000,43.2000,17.8500,8.5569,-0.9409,3.8092,-2.6905,-1.3030,0.1500,-64.0500,5.4000,-1.0500,1.3500,4.1500,-7.6100,-0.0851,-0.3676,-1.4890,-22.6875,-20.0625,25.1875,179.8125,50.0000,-164.3125,0
621.399,11.6885,-1.6927,-2.6097,2.3950,-0.7682,-1.1317,-56.1000,43.2000,17.8500,8.8538,-0.1796,3.7996,-2.8919,-1.4674,0.1604,-64.0500,5.4000,-1.0500,1.6300,4.1300,-7.3500,-0.2531,-0.7254,-1.5173,-22.6875,-20.0625,25.1875,179.8125,50.0000,-164.3125,0
621.404,11.3988,-2.2314,-1.3599,2.0827,-1.0680,-1.2337,-55.8000,41.2500,16.6500,8.6670,0.7542,4.5035,-2.8429,-1.7168,0.1268,-64.0500,5.4000,-1.0500,1.6300,4.1300,-7.3500,-0.2531,-0.7254,-1.5173,-22.6875,-20.0625,25.1875,179.8125,50.0000,-164.3125,0
621.409,11.3988,-2.2314,-1.3599,2.0827,-1.0680,-1.2337,-55.8000,41.2500,16.6500,8.6670,0.7542,4.5035,-2.8429,-1.7168,0.1268,-63.0000,4.2000,-2.1000,1.5500,4.1400,-6.9600,-0.3862,-1.0810,-1.4530,-20.1875,-22.2500,26.1875,181.3750,49.1875,-163.3750,0
621.414,10.2161,-2.1835,-0.9673,1.8791,-1.0656,-1.3081,-54.9000,42.1500,16.5000,8.2863,2.1500,4.8195,-2.5005,-1.8477,0.0064,-63.0000,4.2000,-2.1000,1.5500,4.1400,-6.9600,-0.3862,-1.0810,-1.4530,-20.1875,-22.2500,26.1875,181.3750,49.1875,-163.3750,0
621.419,10.2161,-2.1835,-0.9673,1.8791,-1.0656,-1.3081,-54.9000,42.1500,16.5000,8.2863,2.1500,4.8195,-2.5005,-1.8477,0.0064,-63.0000,4.2000,-2.1000,1.5500,4.1100,-6.9400,-0.5661,-1.3417,-1.3352,-20.1875,-22.2500,26.1875,183.1250,48.2500,-162.5000,0
621.426,8.9471,-0.8882,-0.8428,1.6585,-1.1828,-1.2167,-53.7000,39.7500,15.6000,8.5928,2.6743,4.1396,-1.9713,-1.8711,-0.2313,-63.0000,4.2000,-2.1000,1.5000,3.9900,-7.1000,-0.8039,-1.5293,-1.2326,-20.1875,-22.2500,26.1875,185.2500,47.2500,-161.6250,0
621.431,8.9471,-0.8882,-0.8428,1.6585,-1.1828,-1.2167,-54.6000,40.2000,14.7000,8.5928,2.6743,4.1396,-1.9713,-1.8711,-0.2313,-63.4500,4.5000,-2.7000,1.5000,3.9900,-7.1000,-0.8039,-1.5293,-1.2326,-20.1875,-22.2500,26.1875,187.6250,46.1250,-160.8125,0
621.439,8.1116,0.3998,-1.6855,1.2977,-0.9286,-1.0166,-54.6000,40.2000,14.7000,7.8961,2.1668,4.1420,-1.0365,-1.8602,-0.4650,-64.0500,4.9500,-4.3500,0.9800,3.8600,-7.5100,-1.0134,-1.7650,-1.1476,-20.1875,-22.2500,26.1875,190.3750,44.8750,-159.9375,0
621.450,9.0956,0.5195,-2.7174,0.9116,-0.4628,-0.8748,-54.7500,40.8000,14.5500,8.0469,2.0446,3.6033,0.0013,-1.7773,-0.6614,-63.1500,4.8000,-4.2000,1.1100,4.9400,-7.6600,-1.1301,-2.0224,-1.1159,-20.1875,-22.2500,26.1875,190.3750,44.8750,-159.9375,0
621.454,9.3613,0.4070,-3.3255,0.5985,-0.2553,-0.8108,-54.7500,40.8000,14.5500,8.3749,1.3719,3.7038,0.8479,-1.8442,-0.7909,-63.1500,4.8000,-4.2000,1.1100,4.9400,-7.6600,-1.1301,-2.0224,-1.1159,-16.1875,-23.7500,25.5625,193.2500,43.5625,-159.0625,0
621.460,9.3613,0.4070,-3.3255,0.5985,-0.2553,-0.8108,-54.7500,40.8000,14.5500,8.3749,1.3719,3.7038,0.8479,-1.8442,-0.7909,-65.4000,6.0000,-5.7000,1.5400,4.6000,-8.0400,-1.1934,-2.0039,-1.1661,-16.1875,-23.7500,25.5625,193.2500,43.5625,-159.0625,0
621.464,9.5720,0.3280,-2.9473,0.3637,-0.2539,-0.7981,-52.0500,39.9000,13.3500,8.8969,0.2945,3.7421,1.5204,-1.9462,-0.8018,-65.4000,6.0000,-5.7000,1.5400,4.6000,-8.0400,-1.1934,-2.0039,-1.1661,-16.1875,-23.7500,25.5625,196.4375,42.2500,-158.1875,0
621.469,9.3877,0.3160,-2.4469,0.2318,-0.3408,-0.7898,-53.8500,39.9000,13.3500,8.8969,0.2945,3.7421,1.5204,-1.9462,-0.8018,-63.4500,6.0000,-7.9500,0.9100,4.4700,-7.8700,-1.2370,-2.1173,-1.2828,-16.1875,-23.7500,25.5625,196.4375,42.2500,-158.1875,0
621.474,9.3877,0.3160,-2.4469,0.2318,-0.3408,-0.7898,-53.8500,41.7000,13.3500,9.0908,-0.7015,3.7757,1.9454,-2.0286,-0.7386,-63.4500,6.0000,-7.9500,0.9100,4.4700,-7.8700,-1.2959,-2.2482,-1.4759,-16.1875,-23.7500,25.5625,199.9375,40.7500,-157.1875,0
621.480,9.4882,0.1939,-1.8579,0.1460,-0.4378,-0.7677,-52.3500,39.9000,14.7000,9.2057,-1.5658,4.0917,1.9454,-2.0286,-0.7386,-63.3000,6.6000,-9.1500,0.7500,4.0200,-7.9600,-1.2959,-2.2482,-1.4759,-16.1875,-23.7500,25.5625,151.1875,39.3125,-156.1250,0
621.489,9.2464,0.0407,-1.4509,0.1748,-0.7232,-0.7512,-54.3000,38.4000,13.9500,9.3374,-2.3343,4.1061,2.1208,-2.1538,-0.6161,-63.3000,6.6000,-9.1500,1.0000,3.7400,-8.5100,-1.3624,-2.1064,-1.6908,-16.1875,-23.7500,25.5625,151.1875,39.3125,-156.1250,0
621.499,9.1602,0.1580,-0.8475,0.1569,-0.9038,-0.7205,-54.3000,38.4000,13.9500,9.6774,-2.7390,4.2665,2.0859,-2.3164,-0.4767,-64.0500,6.1500,-10.3500,1.2800,3.6000,-9.1800,-1.4312,-1.8588,-1.9395,-16.1875,-23.7500,25.5625,150.5625,37.9375,-154.8750,0
621.504,9.1602,0.1580,-0.8475,0.1569,-0.9038,-0.7205,-54.3000,38.4000,13.9500,9.6774,-2.7390,4.2665,1.9228,-2.4717,-0.3403,-64.0500,6.1500,-10.3500,1.2800,3.6000,-9.1800,-1.4312,-1.8588,-1.9395,-16.1875,-23.7500,25.5625,150.5625,37.9375,-154.8750,0
621.509,8.4707,0.0599,-0.8547,-0.0946,-0.7919,-0.6771,-54.3000,38.4000,13.9500,9.9335,-3.0789,4.3934,1.9228,-2.4717,-0.3403,-64.0500,6.1500,-10.3500,1.5100,3.3800,-9.8900,-1.4235,-1.6526,-2.1915,-10.3750,-26.0000,25.5000,149.8125,36.5625,-153.5625,0
621.514,8.4707,0.0599,-0.8547,-0.0946,-0.7919,-0.6771,-54.3000,38.4000,13.9500,9.9335,-3.0789,4.3934,1.6998,-2.6279,-0.1892,-64.0500,6.1500,-10.3500,1.5100,3.3800,-9.8900,-1.4235,-1.6526,-2.1915,-10.3750,-26.0000,25.5000,149.8125,36.5625,-153.5625,0
621.519,8.4060,-0.0646,-0.7661,-0.2750,-0.7973,-0.6185,-50.8500,41.5500,13.5000,10.1131,-3.1651,4.1875,1.3638,-2.7856,-0.0506,-64.5000,5.8500,-13.2000,2.1600,2.6900,-11.2900,-1.3025,-1.5304,-2.3627,-10.3750,-26.0000,25.5000,148.9375,35.2500,-152.2500,0
621.526,8.4060,-0.0646,-0.7661,-0.2750,-0.7973,-0.6185,-50.8500,41.5500,13.5000,10.1131,-3.1651,4.1875,1.3638,-2.7856,-0.0506,-64.5000,5.8500,-13.2000,2.5300,2.1700,-12.0500,-1.1388,-1.5184,-2.4358,-10.3750,-26.0000,25.5000,148.0000,33.8750,-151.0625,0
621.531,8.2720,0.0646,-0.8954,-0.3746,-0.7778,-0.5454,-50.4000,40.8000,13.5000,10.0963,-3.1460,4.1444,0.9654,-2.8895,0.0560,-64.3500,5.5500,-14.5500,2.5300,2.1700,-12.0500,-1.1388,-1.5184,-2.4358,-10.3750,-26.0000,25.5000,147.0625,32.4375,-150.0625,0
621.540,8.1211,0.0192,-0.8595,-0.4306,-0.7639,-0.4764,-51.9000,40.0500,13.0500,10.1155,-3.0167,4.1515,0.5484,-2.9588,0.1354,-64.6500,6.7500,-15.6000,2.7600,1.7700,-12.6000,-0.9981,-1.6079,-2.4195,-10.3750,-26.0000,25.5000,146.1250,30.9375,-149.1250,0
621.550,7.8602,0.2586,-0.9409,-0.4954,-0.7706,-0.3909,-50.1000,41.5500,13.8000,10.3382,-2.7629,4.1180,0.1388,-3.0702,0.1799,-63.3000,5.4000,-18.0000,3.3000,1.5400,-13.2700,-0.9218,-1.7530,-2.3322,-10.3750,-26.0000,25.5000,146.1250,30.9375,-149.1250,0
621.555,7.8602,0.2586,-0.9409,-0.4954,-0.7706,-0.3909,-50.1000,41.5500,13.8000,10.3382,-2.7629,4.1180,0.1388,-3.0702,0.1799,-63.3000,5.4000,-18.0000,3.3000,1.5400,-13.2700,-0.9218,-1.7530,-2.3322,-4.5625,-25.6875,24.1875,145.3750,29.3750,-148.4375,0
621.560,7.7021,0.6009,-0.9385,-0.6107,-0.6877,-0.2947,-50.1000,41.5500,13.8000,10.3765,-2.3320,4.2210,-0.1940,-3.1664,0.2030,-64.3500,5.2500,-18.6000,3.2300,1.4200,-12.8300,-0.8508,-1.9253,-2.1577,-4.5625,-25.6875,24.1875,145.3750,29.3750,-148.4375,0
621.564,7.7021,0.6009,-0.9385,-0.6107,-0.6877,-0.2947,-50.1000,41.5500,13.8000,10.3765,-2.3320,4.2210,-0.1940,-3.1664,0.2030,-64.3500,5.2500,-18.6000,3.2300,1.4200,-12.8300,-0.8508,-1.9253,-2.1577,-4.5625,-25.6875,24.1875,144.7500,27.9375,-147.8125,0
621.571,7.6638,0.9744,-0.7973,-0.7490,-0.6150,-0.2004,-50.4000,40.8000,13.0500,10.3837,-1.8148,4.1228,-0.4415,-3.2466,0.1998,-63.3000,4.6500,-20.2500,4.0200,1.9200,-13.3700,-0.7898,-1.9897,-1.8544,-4.5625,-25.6875,24.1875,144.7500,27.9375,-147.8125,0
621.578,7.6567,1.2043,-0.7877,-0.8961,-0.5860,-0.1077,-51.1500,40.8000,14.2500,10.3956,-1.3120,4.3000,-0.5566,-3.3247,0.1836,-63.3000,4.6500,-20.2500,4.2000,2.0900,-12.7400,-0.7014,-2.3682,-1.5915,-4.5625,-25.6875,24.1875,144.3125,26.3125,-147.3750,0
621.583,7.6567,1.2043,-0.7877,-0.8961,-0.5860,-0.1077,-51.1500,40.8000,14.2500,10.3956,-1.3120,4.3000,-0.5566,-3.3247,0.1836,-63.1500,4.5000,-20.1000,4.2000,2.0900,-12.7400,-0.7014,-2.3682,-1.5915,-4.5625,-25.6875,24.1875,144.1250,24.6875,-147.1875,0
621.590,7.8147,1.3360,-0.6009,-1.0669,-0.5689,-0.0197,-52.6500,41.5500,12.7500,10.2783,-0.8523,4.5945,-0.5993,-3.4115,0.1455,-62.4000,4.0500,-22.6500,3.1900,2.5000,-10.9500,-0.5574,-2.6682,-1.2403,-4.5625,-25.6875,24.1875,144.1250,23.1875,-147.1250,0
621.600,7.9966,1.5443,-0.5459,-1.1588,-0.5100,0.0717,-50.8500,41.2500,13.8000,10.1873,-0.4214,4.5274,-0.6344,-3.4747,0.0917,-62.4000,4.0500,-22.6500,3.4100,3.0700,-10.6500,-0.4451,-2.6224,-0.8879,-4.5625,-25.6875,24.1875,144.1250,23.1875,-147.1250,0
621.605,7.9966,1.5443,-0.5459,-1.2668,-0.3768,0.1679,-50.8500,41.2500,13.8000,10.0317,-0.1915,4.7764,-0.6344,-3.4747,0.0917,-62.4000,4.0500,-22.6500,3.4100,3.0700,-10.6500,-0.4451,-2.6224,-0.8879,-4.5625,-25.6875,24.1875,144.1875,21.8750,-147.1250,0
621.610,8.0685,1.8794,-0.8236,-1.2668,-0.3768,0.1679,-52.9500,41.5500,13.5000,10.0317,-0.1915,4.7764,-0.6507,-3.5013,0.0336,-61.6500,6.0000,-25.3500,4.1400,3.3200,-10.8500,-0.3916,-2.4675,-0.5738,0.8750,-25.7500,21.8750,144.1875,21.8750,-147.1250,0
621.615,8.2217,2.1715,-1.3360,-1.2724,-0.3211,0.2574,-52.9500,41.5500,13.5000,9.7372,0.0694,5.0925,-0.6507,-3.5013,0.0336,-61.6500,6.0000,-25.3500,4.1400,3.3200,-10.8500,-0.3916,-2.4675,-0.5738,0.8750,-25.7500,21.8750,144.1875,21.8750,-147.1250,0
621.620,8.2217,2.1715,-1.3360,-1.2724,-0.3211,0.2574,-52.9500,41.5500,13.5000,9.7372,0.0694,5.0925,-0.6811,-3.5090,0.0029,-61.6500,6.0000,-25.3500,5.2000,3.4800,-11.0200,-0.3916,-2.4446,-0.2978,0.8750,-25.7500,21.8750,144.5000,20.6875,-147.1250,0
621.628,8.5808,2.4325,-1.6424,-1.1194,-0.3491,0.3280,-51.9000,41.2500,14.8500,9.4810,0.1532,5.3151,-0.7538,-3.4656,-0.0256,-61.6500,6.0000,-25.3500,6.2900,3.4200,-11.5000,-0.4745,-2.3856,-0.0894,0.8750,-25.7500,21.8750,144.8750,19.5000,-147.1250,0
621.633,8.5808,2.4325,-1.6424,-1.1194,-0.3491,0.3280,-51.9000,41.2500,14.8500,9.4810,0.1532,5.3151,-0.7538,-3.4656,-0.0256,-61.6500,6.7500,-27.9000,6.2900,3.4200,-11.5000,-0.4745,-2.3856,-0.0894,0.8750,-25.7500,21.8750,145.3125,18.4375,-146.9375,0
621.640,8.4228,2.7940,-1.6544,-0.9694,-0.3547,0.4109,-53.1000,41.7000,13.9500,9.3087,0.0814,5.6671,-0.8295,-3.4083,-0.0509,-61.0500,4.2000,-29.2500,7.2100,3.0400,-11.7800,-0.7003,-2.3660,-0.0044,0.8750,-25.7500,21.8750,145.8125,17.2500,-146.6250,0
621.650,8.0062,2.8060,-1.8531,-0.8591,-0.4167,0.4724,-52.9500,42.3000,14.8500,9.1889,-0.0910,5.7724,-0.9974,-3.3316,-0.0693,-59.5500,4.6500,-28.0500,8.4600,2.1600,-11.5100,-1.0603,-2.4849,-0.0044,0.8750,-25.7500,21.8750,145.8125,17.2500,-146.6250,0
621.655,7.9176,3.0718,-1.9872,-0.6043,-0.4461,0.5273,-52.9500,42.3000,14.8500,9.1985,-0.4190,5.8275,-1.3129,-3.2061,-0.0807,-59.5500,4.6500,-28.0500,8.4600,2.1600,-11.5100,-1.0603,-2.4849,-0.0044,0.8750,-25.7500,21.8750,146.3125,16.0625,-146.0000,0
621.660,7.9176,3.0718,-1.9872,-0.6043,-0.4461,0.5273,-54.4500,42.7500,14.5500,9.1985,-0.4190,5.8275,-1.3129,-3.2061,-0.0807,-59.8500,4.6500,-29.2500,9.0200,1.7600,-11.0000,-1.5293,-2.6256,-0.0753,5.2500,-27.0000,21.5000,146.3125,16.0625,-146.0000,0
621.665,8.2935,3.0622,-2.0207,-0.5769,-0.1692,0.6342,-54.4500,42.7500,14.5500,9.1267,-0.2394,5.2313,-1.6222,-3.0046,-0.0898,-59.8500,4.6500,-29.2500,9.0200,1.7600,-11.0000,-1.5293,-2.6256,-0.0753,5.2500,-27.0000,21.5000,146.8125,14.7500,-145.0625,0
621.670,8.2935,3.0622,-2.0207,-0.5769,-0.1692,0.6342,-54.4500,42.7500,14.5500,9.1267,-0.2394,5.2313,-1.6222,-3.0046,-0.0898,-60.1500,5.5500,-31.6500,9.9300,1.3000,-10.2900,-2.0028,-2.6584,-0.1887,5.2500,-27.0000,21.5000,146.8125,14.7500,-145.0625,0
621.674,7.9344,3.5147,-2.2266,-0.2217,-0.1026,0.7008,-54.4500,42.7500,14.5500,8.9160,0.2753,5.0685,-1.8983,-2.9156,-0.1266,-60.1500,5.5500,-31.6500,9.9300,1.3000,-10.2900,-2.3333,-2.6114,-0.2694,5.2500,-27.0000,21.5000,147.3125,13.5000,-144.0000,0
621.680,7.9344,3.5147,-2.2266,-0.2217,-0.1026,0.7008,-54.4500,42.7500,14.5500,8.9160,0.2753,5.0685,-1.8983,-2.9156,-0.1266,-58.3500,6.6000,-29.8500,10.2800,0.9300,-9.6900,-2.3333,-2.6114,-0.2694,5.2500,-27.0000,21.5000,147.6875,12.4375,-142.7500,0
621.690,8.3965,3.5506,-2.4565,0.0821,0.1791,0.7333,-56.5500,40.5000,12.7500,8.4228,1.4198,5.2313,-2.0033,-2.6534,-0.1420,-58.3500,6.6000,-29.8500,13.3400,-0.3800,-9.4500,-2.4544,-2.1391,-0.3294,5.2500,-27.0000,21.5000,147.6875,12.4375,-142.7500,0
621.700,8.4180,3.8690,-2.4636,0.2025,0.2992,0.7285,-56.4000,40.2000,14.7000,7.8961,2.5259,5.3702,-1.9668,-2.3182,-0.1276,-58.3500,6.6000,-29.8500,14.7100,-0.8100,-9.1800,-2.2569,-1.8326,-0.2989,5.2500,-27.0000,21.5000,148.0000,11.5000,-141.6250,0
621.705,8.0182,4.5849,-2.4469,0.0645,0.3557,0.6574,-56.4000,40.2000,14.7000,7.3933,2.9951,5.2601,-1.6164,-1.9625,-0.1071,-57.4500,7.9500,-33.0000,14.7100,-0.8100,-9.1800,-2.2569,-1.8326,-0.2989,5.2500,-27.0000,21.5000,148.3750,10.6875,-140.6250,0
621.710,8.0182,4.5849,-2.4469,0.0645,0.3557,0.6574,-59.8500,39.7500,14.2500,7.3933,2.9951,5.2601,-1.6164,-1.9625,-0.1071,-57.4500,7.9500,-33.0000,15.8200,-1.4100,-8.6900,-1.9657,-1.8315,-0.2182,9.0000,-29.0000,17.2500,148.3750,10.6875,-140.6250,0
621.715,7.5226,5.3606,-2.4588,-0.2491,0.4858,0.5862,-59.8500,39.7500,14.2500,6.7014,2.9736,5.8610,-1.0480,-1.5263,-0.0655,-57.4500,7.9500,-33.0000,15.8200,-1.4100,-8.6900,-1.9657,-1.8315,-0.2182,9.0000,-29.0000,17.2500,148.3750,10.6875,-140.6250,0
621.720,7.5226,5.3606,-2.4588,-0.2491,0.4858,0.5862,-58.6500,39.4500,15.0000,6.7014,2.9736,5.8610,-1.0480,-1.5263,-0.0655,-57.4500,7.9500,-33.0000,18.2200,-3.6100,-7.2400,-1.6144,-1.5937,-0.1614,9.0000,-29.0000,17.2500,148.6875,9.9375,-139.8125,0
621.727,7.2688,6.2273,-2.7438,-0.5796,0.6979,0.5462,-58.6500,39.4500,15.0000,6.2560,2.7270,5.7772,-0.4874,-1.0461,-0.0160,-57.3000,6.9000,-33.6000,18.6800,-4.8100,-5.4400,-1.1421,-1.4017,-0.0327,9.0000,-29.0000,17.2500,149.0000,9.3125,-139.2500,0
621.732,7.2999,7.0246,-3.4764,-0.8676,0.9872,0.5385,-58.6500,39.4500,15.0000,5.9256,2.0542,4.9273,-0.0762,-0.5361,0.0312,-57.0000,7.9500,-32.7000,18.6800,-4.8100,-5.4400,-1.1421,-1.4017,-0.0327,9.0000,-29.0000,17.2500,149.4375,8.8750,-138.9375,0
621.740,7.2999,7.0246,-3.4764,-0.9537,1.1559,0.6102,-58.2000,37.9500,15.0000,6.5888,2.5570,3.7158,0.6528,0.1543,0.1167,-55.3500,6.9000,-34.0500,19.4800,-6.4900,-3.2600,-0.7036,-1.1923,0.2083,9.0000,-29.0000,17.2500,149.9375,8.8750,-138.8125,0
621.750,9.8641,8.3989,-4.4819,-0.7855,1.2665,0.8170,-58.9500,37.6500,15.0000,6.8666,4.8746,6.8115,1.6750,1.3611,0.0453,-55.3500,6.9000,-34.0500,30.1800,-18.1900,9.5600,-0.3502,-0.6316,0.6698,9.0000,-29.0000,17.2500,149.9375,8.8750,-138.8125,0
621.755,9.8641,8.3989,-4.4819,-0.7855,1.2665,0.8170,-57.7500,37.0500,14.2500,6.8666,4.8746,6.8115,1.6750,1.3611,0.0453,-56.2500,6.4500,-34.2000,30.1800,-18.1900,9.5600,-0.3502,-0.6316,0.6698,9.0000,-29.0000,17.2500,149.9375,8.8750,-138.8125,0
621.760,12.2655,8.5904,-4.0247,-0.3397,1.4101,1.1109,-57.7500,37.0500,14.2500,12.3684,0.9673,1.8340,0.5804,1.6939,0.1079,-56.2500,6.4500,-34.2000,22.8400,-20.7900,4.6600,-0.0349,0.7767,1.7551,12.0000,-29.8750,12.6875,150.7500,9.8750,-138.8750,0
621.765,12.2655,8.5904,-4.0247,-0.3397,1.4101,1.1109,-59.1000,36.3000,14.5500,12.3684,0.9673,1.8340,0.5804,1.6939,0.1079,-57.3000,6.6000,-33.6000,22.8400,-20.7900,4.6600,-0.0349,0.7767,1.7551,12.0000,-29.8750,12.6875,150.7500,9.8750,-138.8750,0
621.770,14.3413,8.1906,-2.4493,0.0528,1.3355,1.3057,-59.1000,36.3000,14.5500,19.9916,-1.2737,-8.6814,0.1316,0.8130,0.3893,-57.3000,6.6000,-33.6000,21.2500,-8.1300,-1.5700,1.6253,2.6365,2.8056,12.0000,-29.8750,12.6875,151.6875,11.9375,-139.8125,0
621.775,14.3413,8.1906,-2.4493,0.0528,1.3355,1.3057,-59.5500,35.5500,14.8500,19.9916,-1.2737,-8.6814,0.1316,0.8130,0.3893,-57.6000,8.1000,-32.8500,21.2500,-8.1300,-1.5700,3.2027,4.2804,4.4811,12.0000,-29.8750,12.6875,153.0625,15.3750,-141.6875,0
621.781,14.5663,6.2489,-0.8236,0.0533,0.9630,1.3113,-59.5500,35.5500,14.8500,19.7091,0.7398,-6.4643,0.9854,-0.1018,0.1103,-56.2500,6.4500,-33.0000,8.7900,-2.9000,-28.6700,3.2027,4.2804,4.4811,12.0000,-29.8750,12.6875,156.0625,17.6250,-145.5000,0
621.790,14.0779,3.5338,-0.1867,-0.1508,0.8039,1.3291,-59.5500,35.5500,14.8500,13.7403,-0.1053,1.6448,2.0600,-0.0528,0.0064,-56.2500,6.4500,-33.0000,-5.3600,34.8700,-20.0600,5.3843,0.3087,6.3857,12.0000,-29.8750,12.6875,156.0625,17.6250,-145.5000,0
621.800,12.9598,2.0590,0.5986,-0.4775,0.5865,1.0898,-61.3500,33.3000,12.7500,6.6559,5.6743,3.4405,1.5620,0.6328,-0.5007,-56.8500,5.8500,-34.0500,-9.9800,9.4600,-5.3700,1.6384,0.1745,4.8171,12.0000,-29.8750,12.6875,158.5625,19.1875,-147.1250,0
621.805,12.9598,2.0590,0.5986,-0.4775,0.5865,1.0898,-61.6500,33.0000,13.5000,6.6559,5.6743,3.4405,1.5620,0.6328,-0.5007,-56.8500,5.8500,-34.0500,-9.9800,9.4600,-5.3700,1.6384,0.1745,4.8171,12.0000,-29.8750,12.6875,158.5625,19.1875,-147.1250,0
621.810,13.5536,2.0303,0.0311,-0.1279,1.0357,0.9654,-61.6500,33.0000,13.5000,5.2840,-2.2865,4.1324,0.1809,1.2428,-0.6049,-56.8500,5.8500,-34.0500,12.3100,2.5600,11.6500,-0.1091,2.3660,1.8217,10.7500,-31.8750,15.1875,159.1875,20.8125,-147.1250,0
621.814,13.5536,2.0303,0.0311,-0.1279,1.0357,0.9654,-63.4500,30.3000,12.7500,5.2840,-2.2865,4.1324,0.1809,1.2428,-0.6049,-56.2500,5.2500,-33.0000,12.3100,2.5600,11.6500,-0.1091,2.3660,1.8217,10.7500,-31.8750,15.1875,159.1875,20.8125,-147.1250,0
621.819,12.5073,2.2122,-2.2338,0.6528,1.0501,0.7605,-63.4500,30.3000,12.7500,14.4945,-2.0111,-1.4102,0.1583,1.7954,-0.2747,-56.2500,5.2500,-33.0000,5.8400,-5.4600,-15.9000,1.1246,5.0789,0.5520,10.7500,-31.8750,15.1875,158.6250,23.3750,-147.2500,0
621.824,12.5073,2.2122,-2.2338,0.6528,1.0501,0.7605,-63.3000,30.9000,12.1500,14.4945,-2.0111,-1.4102,0.1583,1.7954,-0.2747,-56.2500,5.2500,-33.0000,5.8400,-5.4600,-15.9000,1.1246,5.0789,0.5520,10.7500,-31.8750,15.1875,158.1250,23.1250,-147.9375,0
621.831,10.0461,1.3144,-2.3200,1.3059,0.7285,0.3627,-63.3000,30.9000,12.1500,12.9670,3.1532,-1.2617,0.2081,1.1509,-0.2750,-56.2500,5.2500,-33.0000,-5.4000,1.4700,-6.9400,1.3919,-0.1407,-0.5770,10.7500,-31.8750,15.1875,158.0625,22.8750,-148.2500,0
621.840,9.5457,0.1532,-0.4860,1.0824,0.4778,0.0429,-64.8000,30.1500,12.1500,9.5577,2.6193,-1.1013,0.1343,0.8367,-0.3022,-57.6000,6.6000,-33.3000,4.7900,6.4700,-6.9500,0.5661,-0.3862,-0.1276,10.7500,-31.8750,15.1875,157.9375,23.1250,-148.3125,0
621.850,6.9288,-1.1732,0.7039,0.7341,0.4346,-0.0544,-64.8000,30.1500,12.1500,4.8483,1.7142,-2.0494,-0.0831,0.7517,-0.3304,-56.8500,5.4000,-31.8000,2.9700,4.3400,-7.5700,0.2258,0.4756,-0.0447,10.7500,-31.8750,15.1875,157.9375,23.1250,-148.3125,0
621.855,6.9288,-1.1732,0.7039,0.7341,0.4346,-0.0544,-65.2500,30.7500,13.5000,6.9743,0.9625,0.5842,-0.0831,0.7517,-0.3304,-57.9000,7.5000,-31.9500,2.9700,4.3400,-7.5700,0.2258,0.4756,-0.0447,10.7500,-31.8750,15.1875,157.7500,23.1250,-148.3750,0
621.860,6.0358,-1.6233,1.1444,0.3456,0.7658,-0.0306,-65.2500,30.7500,13.5000,6.9743,0.9625,0.5842,-0.6859,1.1157,-0.2435,-57.9000,7.5000,-31.9500,4.5800,4.9200,-7.4100,0.2193,0.2127,-0.2073,3.0625,-31.5625,18.5000,157.7500,23.1250,-148.3750,0
621.865,6.0358,-1.6233,1.1444,0.3456,0.7658,-0.0306,-64.8000,31.9500,13.6500,9.1985,1.4126,0.1987,-0.6859,1.1157,-0.2435,-57.4500,7.5000,-32.4000,4.5800,4.9200,-7.4100,0.2193,0.2127,-0.2073,3.0625,-31.5625,18.5000,157.6250,23.1250,-148.5625,0
621.870,5.6671,-1.7430,0.8691,-0.1545,0.9737,0.0685,-64.8000,31.9500,13.6500,9.1985,1.4126,0.1987,-0.9899,1.0928,-0.2185,-57.4500,7.5000,-32.4000,3.7800,5.7700,-6.5300,0.3643,0.0524,-0.1571,3.0625,-31.5625,18.5000,157.6250,23.1250,-148.5625,0
621.875,5.6671,-1.7430,0.8691,-0.1545,0.9737,0.0685,-62.4000,31.5000,13.5000,10.5010,1.8507,-0.9290,-0.6872,0.9923,-0.2577,-58.3500,6.9000,-33.3000,3.7800,5.7700,-6.5300,0.5443,-0.0087,-0.1778,3.0625,-31.5625,18.5000,157.4375,23.0625,-148.8125,0
621.881,6.1268,-1.9609,0.5507,-0.7863,1.2572,0.1929,-62.4000,31.5000,13.5000,10.5010,1.8507,-0.9290,-0.6872,0.9923,-0.2577,-58.3500,6.9000,-33.3000,3.8400,5.4600,-6.9500,0.5443,-0.0087,-0.1778,3.0625,-31.5625,18.5000,157.2500,23.0000,-149.1250,0
621.890,7.7237,-1.7214,0.6488,-1.3424,1.2854,0.3472,-61.2000,33.1500,18.6000,10.2352,2.4086,-0.4788,-0.3589,0.9180,-0.3235,-58.8000,6.9000,-31.0500,3.4600,3.9200,-8.1500,0.6534,-0.0295,-0.2269,3.0625,-31.5625,18.5000,157.2500,23.0000,-149.1250,0
621.900,9.2847,-1.3120,0.2370,-1.7054,1.1999,0.5055,-61.2000,33.1500,18.6000,9.3518,1.7980,-0.5531,-0.2891,0.9244,-0.3198,-58.8000,6.9000,-31.0500,3.5700,4.1400,-8.0600,0.6458,-0.0774,-0.2083,3.0625,-31.5625,18.5000,157.0625,22.8750,-149.4375,0
621.905,10.8433,-0.7877,-0.3687,-1.6142,0.9870,0.5764,-59.7000,32.4000,19.0500,8.9998,1.8148,-0.2586,-0.4346,0.9681,-0.3038,-58.0500,6.1500,-30.6000,3.5700,4.1400,-8.0600,0.6458,-0.0774,-0.2083,3.0625,-30.3750,18.5000,156.9375,22.8125,-149.7500,0
621.911,10.8433,-0.7877,-0.3687,-1.6142,0.9870,0.5764,-59.7000,32.4000,19.0500,8.9998,1.8148,-0.2586,-0.4346,0.9681,-0.3038,-58.0500,6.1500,-30.6000,3.5800,4.3600,-7.9200,0.6218,-0.1069,-0.1571,3.0625,-30.3750,18.5000,156.9375,22.8125,-149.7500,0
621.916,11.0445,0.1748,-0.5195,-1.1453,0.6707,0.5486,-57.0000,34.5000,19.2000,9.1243,2.0925,0.2274,-0.5793,0.9345,-0.2790,-58.0500,6.1500,-30.6000,3.5800,4.3600,-7.9200,0.6218,-0.1069,-0.1571,3.0625,-30.3750,18.5000,156.7500,22.6875,-150.1250,0
621.921,11.0445,0.1748,-0.5195,-1.1453,0.6707,0.5486,-57.0000,34.5000,19.2000,9.1243,2.0925,0.2274,-0.5793,0.9345,-0.2790,-58.0500,6.1500,-30.6000,2.9000,4.0900,-7.8600,0.6141,-0.1167,-0.1385,3.0625,-30.3750,18.5000,156.7500,22.6875,-150.1250,0
621.930,11.0660,1.3216,-0.2466,-0.6115,0.4343,0.4820,-54.6000,35.4000,20.1000,9.4044,3.3662,1.1732,-0.4855,0.8953,-0.1961,-59.1000,7.3500,-31.3500,3.8300,4.4200,-8.1100,0.5225,0.0327,-0.0960,3.0625,-30.3750,18.5000,156.6250,22.6875,-150.3750,0
621.940,10.9822,2.2242,0.3280,-0.3357,0.3208,0.4032,-56.1000,34.9500,20.4000,9.7061,3.6799,1.8579,-0.1527,0.8484,-0.1143,-57.0000,7.9500,-32.4000,3.4200,4.2000,-7.9900,0.5476,0.0382,-0.0480,3.0625,-30.3750,18.5000,156.5625,22.6875,-150.6250,0
621.948,9.6079,3.4572,1.4174,-0.5305,0.5476,0.3285,-54.3000,34.9500,21.4500,9.6822,2.6097,1.5347,0.0157,0.8497,-0.0850,-59.8500,7.8000,-30.3000,3.9300,3.8900,-8.2200,0.4418,-0.0393,-0.0273,3.0625,-30.3750,18.5000,156.5000,22.6875,-150.8750,0
621.953,9.6079,3.4572,1.4174,-0.5305,0.5476,0.3285,-54.3000,34.9500,21.4500,10.2592,1.5299,0.5363,-0.0280,0.8687,-0.1127,-60.7500,8.5500,-31.0500,3.9300,3.8900,-8.2200,0.4418,-0.0393,-0.0273,3.0625,-30.3750,18.5000,156.5000,22.6875,-150.8750,0
621.958,9.1530,4.2737,2.5498,-0.8135,0.4786,0.2537,-54.3000,34.9500,21.4500,10.2592,1.5299,0.5363,-0.0280,0.8687,-0.1127,-60.7500,8.5500,-31.0500,3.6100,4.1100,-8.1200,0.3611,-0.0633,-0.0098,3.7500,-30.7500,19.6875,156.4375,22.6250,-151.1250,0
621.962,9.1530,4.2737,2.5498,-0.8135,0.4786,0.2537,-55.6500,35.4000,20.4000,10.1634,0.9194,0.1293,-0.3885,0.7925,-0.1306,-59.7000,7.2000,-29.4000,3.6100,4.1100,-8.1200,0.3611,-0.0633,-0.0098,3.7500,-30.7500,19.6875,156.4375,22.6250,-151.1250,0
621.967,8.5449,4.8507,3.4069,-1.2449,0.6014,0.2377,-55.6500,35.4000,20.4000,10.1634,0.9194,0.1293,-0.3885,0.7925,-0.1306,-59.7000,7.2000,-29.4000,3.5900,4.2100,-8.0800,0.2869,-0.0785,-0.0033,3.7500,-30.7500,19.6875,156.4375,22.6250,-151.2500,0
621.972,8.5449,4.8507,3.4069,-1.2449,0.6014,0.2377,-55.8000,34.8000,22.0500,9.3015,1.1013,0.1173,-0.7525,0.7277,-0.0866,-59.7000,7.2000,-29.4000,3.5900,4.2100,-8.0800,0.2869,-0.0785,-0.0033,3.7500,-30.7500,19.6875,156.4375,22.5625,-151.3750,0
621.981,8.6862,4.9823,3.6823,-1.3435,0.6608,0.2318,-55.5000,35.5500,22.8000,9.0716,1.5467,0.2682,-1.1138,0.7141,-0.0266,-59.5500,6.1500,-28.8000,3.4900,4.2500,-7.9900,0.2203,-0.0687,0.0055,3.7500,-30.7500,19.6875,156.4375,22.5625,-151.3750,0
621.987,8.5712,4.7118,3.5602,-1.1999,0.6411,0.2601,-55.5000,35.5500,22.8000,9.0716,1.5467,0.2682,-1.1138,0.7141,-0.0266,-59.5500,6.9000,-28.8000,3.5900,4.3800,-7.8500,0.1822,-0.0633,0.0142,3.7500,-30.7500,19.6875,156.4375,22.5625,-151.5000,0
621.992,8.7771,4.3838,2.9760,-0.9417,0.7181,0.2747,-56.1000,36.1500,23.2500,9.2560,2.3176,0.2059,-1.2636,0.7184,0.0021,-59.5500,6.9000,-28.8000,3.5900,4.3800,-7.8500,0.1822,-0.0633,0.0142,3.7500,-30.7500,19.6875,156.4375,22.5000,-151.6250,0
622.001,8.7771,4.3838,2.9760,-0.9417,0.7181,0.2747,-57.0000,34.8000,22.8000,9.3350,3.0646,-0.2059,-1.1802,0.7075,-0.0123,-57.9000,8.7000,-28.2000,3.6200,4.3100,-7.9100,0.1789,-0.0807,0.0153,3.7500,-30.7500,19.6875,156.4375,22.5000,-151.6250,0
622.006,8.5593,3.9337,2.5498,-0.7384,0.6371,0.2753,-57.0000,34.8000,22.8000,9.3350,3.0646,-0.2059,-1.1802,0.7075,-0.0123,-57.9000,8.7000,-28.2000,3.6200,4.3100,-7.9100,0.1789,-0.0807,0.0153,3.7500,-30.0625,20.0625,156.3750,22.4375,-151.7500,0
622.011,8.5593,3.9337,2.5498,-0.7384,0.6371,0.2753,-57.0000,34.8000,22.8000,9.3182,3.4596,-0.2203,-0.8948,0.7152,0.0147,-57.9000,8.7000,-28.2000,3.5500,4.3800,-7.8600,0.1822,-0.1102,0.0098,3.7500,-30.0625,20.0625,156.3750,22.4375,-151.7500,0
622.015,8.5210,3.4716,1.8340,-0.6179,0.7317,0.2966,-57.0000,34.8000,22.8000,9.3182,3.4596,-0.2203,-0.8948,0.7152,0.0147,-59.4000,9.4500,-28.2000,3.5500,4.3800,-7.8600,0.1822,-0.1102,0.0098,3.7500,-30.0625,20.0625,156.3750,22.3750,-151.8750,0
622.021,8.5210,3.4716,1.8340,-0.4578,0.7040,0.3131,-55.2000,33.0000,24.4500,9.2751,3.6655,-0.0886,-0.4631,0.7741,0.0701,-59.4000,9.4500,-28.2000,3.4800,4.5200,-7.8800,0.1887,-0.1571,0.0098,3.7500,-30.0625,20.0625,156.3750,22.3750,-151.8750,0
622.025,8.6359,3.0574,1.0942,-0.4578,0.7040,0.3131,-55.2000,33.0000,24.4500,9.2751,3.6655,-0.0886,-0.4631,0.7741,0.0701,-59.4000,9.4500,-28.2000,3.4800,4.5200,-7.8800,0.2160,-0.2029,0.0044,3.7500,-30.0625,20.0625,156.3750,22.2500,-152.0000,0
622.031,8.7915,2.7533,0.3926,-0.3741,0.6539,0.3288,-58.2000,31.6500,24.3000,9.0166,2.7366,0.2825,-0.1551,0.7586,0.0863,-59.4000,9.4500,-28.2000,3.4800,4.4800,-7.9300,0.2160,-0.2029,0.0044,3.7500,-30.0625,20.0625,156.3750,22.2500,-152.0000,0
622.040,9.0118,2.4517,0.1077,-0.2848,0.6286,0.3341,-55.8000,30.3000,23.4000,8.9064,2.1165,0.2274,0.0059,0.7933,0.0874,-59.8500,9.3000,-27.7500,3.5000,4.3500,-8.0200,0.2498,-0.2236,0.0044,3.7500,-30.0625,20.0625,156.3750,22.1250,-152.1250,0
622.045,9.0118,2.4517,0.1077,-0.2848,0.6286,0.3341,-55.8000,30.3000,23.4000,8.9064,2.1165,0.2274,0.0059,0.7933,0.0874,-60.3000,9.0000,-27.0000,3.5000,4.3500,-8.0200,0.2640,-0.2236,0.0065,3.7500,-30.0625,20.0625,156.3750,22.0000,-152.3125,0
622.051,9.3805,2.1979,0.0862,-0.1972,0.6182,0.3142,-55.5000,30.0000,26.2500,9.2368,1.3982,-0.0383,-0.0336,0.8316,0.0498,-60.3000,9.0000,-27.0000,3.5300,4.1600,-8.0800,0.2640,-0.2236,0.0065,3.7500,-30.0625,20.0625,156.3750,22.0000,-152.3125,0
622.056,9.3805,2.1979,0.0862,-0.1972,0.6182,0.3142,-55.5000,30.0000,26.2500,9.4739,1.0654,0.2011,-0.0336,0.8316,0.0498,-60.1500,8.4000,-27.1500,3.4800,4.1000,-8.1100,0.2716,-0.2138,0.0131,5.1875,-30.0625,19.1875,156.3750,21.9375,-152.5000,0
622.061,9.8545,1.7980,-0.1053,-0.1615,0.6155,0.2665,-55.5000,30.0000,26.2500,9.4739,1.0654,0.2011,-0.2270,0.8316,0.0501,-60.1500,8.4000,-27.1500,3.4800,4.1000,-8.1100,0.2716,-0.2138,0.0131,5.1875,-30.0625,19.1875,156.3750,21.9375,-152.5000,0
622.066,9.8545,1.7980,-0.1053,-0.1615,0.6155,0.2665,-55.5000,30.0000,26.2500,9.3589,1.3168,-0.0048,-0.2270,0.8316,0.0501,-60.9000,8.7000,-25.6500,3.4800,4.1000,-8.1100,0.2553,-0.1974,0.0131,5.1875,-30.0625,19.1875,156.3750,21.8125,-152.6250,0
622.071,9.4810,0.9529,0.4310,-0.1029,0.5428,0.1655,-55.5000,30.0000,26.2500,9.3589,1.3168,-0.0048,-0.4612,0.8231,0.0554,-60.9000,8.7000,-25.6500,3.4300,4.2300,-8.0800,0.2553,-0.1974,0.0131,5.1875,-30.0625,19.1875,156.3750,21.8125,-152.6250,0
622.076,9.4810,0.9529,0.4310,-0.1029,0.5428,0.1655,-55.5000,30.0000,26.2500,9.1913,1.6017,-0.0287,-0.4612,0.8231,0.0554,-59.8500,9.3000,-27.7500,3.4300,4.2300,-8.0800,0.2367,-0.1800,0.0175,5.1875,-30.0625,19.1875,156.3750,21.7500,-152.8125,0
622.082,9.6007,0.6273,0.7638,-0.0258,0.3541,0.0586,-54.7500,29.2500,28.0500,9.1913,1.6017,-0.0287,-0.5865,0.8492,0.0474,-59.8500,9.3000,-27.7500,3.3800,4.2300,-8.0900,0.2367,-0.1800,0.0175,5.1875,-30.0625,19.1875,156.3750,21.7500,-152.8125,0
622.090,9.5289,1.2043,0.0311,-0.1548,0.2974,0.0384,-54.6000,31.2000,26.8500,9.0166,1.9537,0.0407,-0.6142,0.8879,0.0357,-59.8500,8.5500,-24.7500,3.3800,4.2300,-8.0300,0.2258,-0.1767,0.0284,5.1875,-30.0625,19.1875,156.4375,21.6250,-152.9375,0
622.095,9.5289,1.2043,0.0311,-0.1548,0.2974,0.0384,-54.6000,31.2000,26.8500,9.2919,2.1763,0.4525,-0.6142,0.8879,0.0357,-59.8500,8.5500,-24.7500,3.3800,4.2300,-8.0300,0.2313,-0.1854,0.0371,5.1875,-30.0625,19.1875,156.4375,21.5625,-153.0625,0
622.101,8.6910,1.8364,-0.5076,-0.5308,0.4559,0.0842,-55.8000,29.2500,27.7500,9.2919,2.1763,0.4525,-0.5462,0.9236,0.0418,-59.8500,8.5500,-24.7500,3.3200,4.2400,-8.0400,0.2313,-0.1854,0.0371,5.1875,-30.0625,19.1875,156.4375,21.5625,-153.0625,0
622.106,8.6910,1.8364,-0.5076,-0.5308,0.4559,0.0842,-55.8000,29.2500,27.7500,9.4595,2.0734,1.0702,-0.4210,0.9004,0.0525,-58.3500,9.3000,-25.0500,3.3200,4.2400,-8.0400,0.2313,-0.1854,0.0371,5.1875,-30.0625,19.1875,156.4375,21.4375,-153.2500,0
622.111,8.9160,1.7382,-0.6129,-0.7706,0.6702,0.1252,-56.1000,29.4000,26.1000,9.4595,2.0734,1.0702,-0.4210,0.9004,0.0525,-58.3500,9.3000,-25.0500,3.1900,4.4200,-8.0100,0.2487,-0.2094,0.0491,4.8750,-29.6875,19.6875,156.4375,21.4375,-153.2500,0
622.116,8.9160,1.7382,-0.6129,-0.7706,0.6702,0.1252,-56.1000,29.4000,26.1000,9.3398,1.8148,1.5179,-0.4090,0.8903,0.0432,-58.3500,9.3000,-25.0500,3.1900,4.4200,-8.0100,0.2487,-0.2094,0.0491,4.8750,-29.6875,19.6875,156.5000,21.3125,-153.4375,0
622.121,8.9208,1.2115,0.1006,-0.9334,0.6592,0.1319,-56.1000,29.4000,26.1000,9.3398,1.8148,1.5179,-0.4090,0.8903,0.0432,-58.3500,9.3000,-25.0500,3.4200,4.2300,-8.1100,0.2771,-0.2313,0.0676,4.8750,-29.6875,19.6875,156.5000,21.3125,-153.4375,0
622.126,8.9208,1.2115,0.1006,-0.9334,0.6592,0.1319,-56.1000,29.4000,26.1000,9.3972,1.3791,1.7573,-0.5153,0.9038,0.0642,-61.5000,9.0000,-24.3000,3.4200,4.2300,-8.1100,0.2989,-0.2553,0.0884,4.8750,-29.6875,19.6875,156.5000,21.1875,-153.6250,0
622.132,8.9878,0.7973,0.8380,-1.0917,0.6853,0.1428,-56.8500,29.4000,28.9500,9.3972,1.3791,1.7573,-0.5153,0.9038,0.0642,-61.5000,9.0000,-24.3000,3.4400,4.0300,-8.2100,0.2989,-0.2553,0.0884,4.8750,-29.6875,19.6875,156.5000,21.1875,-153.6250,0
622.140,8.9304,0.6081,1.2977,-1.2151,0.6648,0.1788,-56.5500,29.5500,29.1000,9.6702,1.1037,1.8004,-0.6297,0.8884,0.0890,-61.8000,9.7500,-24.7500,3.4100,4.0200,-8.1600,0.3000,-0.2629,0.0971,4.8750,-29.6875,19.6875,156.5625,21.1250,-153.8125,0
622.145,8.9304,0.6081,1.2977,-1.2151,0.6648,0.1788,-56.5500,29.5500,29.1000,9.5529,0.8571,1.4054,-0.7717,0.8689,0.0914,-61.2000,7.9500,-22.6500,3.4100,4.0200,-8.1600,0.2869,-0.2465,0.0894,4.8750,-29.6875,19.6875,156.6250,21.0000,-154.0000,0
622.152,9.4068,0.5650,1.6568,-1.3182,0.5657,0.2358,-55.6500,31.2000,28.9500,9.5529,0.8571,1.4054,-0.7717,0.8689,0.0914,-61.2000,7.9500,-22.6500,3.3600,4.0300,-8.1900,0.2869,-0.2465,0.0894,4.8750,-29.6875,19.6875,156.6250,21.0000,-154.0000,0
622.157,9.5313,0.5914,1.7238,-1.3931,0.5100,0.2766,-55.6500,31.2000,28.9500,9.5505,0.8428,1.1588,-0.8396,0.8636,0.0922,-60.4500,9.1500,-23.1000,3.3600,4.0300,-8.1900,0.2869,-0.2465,0.0894,4.8750,-29.6875,20.3750,156.6875,20.8750,-154.1875,0
622.162,9.5313,0.5914,1.7238,-1.3931,0.5100,0.2766,-56.2500,31.8000,28.8000,9.5505,0.8428,1.1588,-0.8396,0.8636,0.0922,-60.4500,9.1500,-23.1000,3.3100,3.9300,-8.2200,0.2640,-0.2258,0.0894,4.8750,-29.6875,20.3750,156.6875,20.8750,-154.1875,0
622.166,9.6391,0.7494,1.7430,-1.4200,0.4546,0.3190,-56.2500,31.8000,28.8000,9.6319,1.2115,1.3862,-0.8074,0.8484,0.0983,-60.7500,9.3000,-24.3000,3.3100,3.9300,-8.2200,0.2640,-0.2258,0.0894,4.8750,-29.6875,20.3750,156.7500,20.8125,-154.3750,0
622.172,9.6391,0.7494,1.7430,-1.4200,0.4546,0.3190,-55.5000,32.2500,29.8500,9.6678,1.5897,1.8771,-0.8074,0.8484,0.0983,-60.7500,9.3000,-24.3000,3.1800,4.0400,-8.2500,0.2323,-0.2029,0.0884,4.8750,-29.6875,20.3750,156.7500,20.8125,-154.3750,0
622.180,9.5624,1.1636,1.6065,-1.3904,0.4143,0.3296,-55.5000,32.2500,29.8500,9.6678,1.5897,1.8771,-0.7250,0.8447,0.0821,-61.0500,9.3000,-22.5000,3.0900,4.2200,-8.3000,0.2051,-0.1865,0.0927,4.8750,-29.6875,20.3750,156.7500,20.7500,-154.5000,0
622.185,9.5624,1.1636,1.6065,-1.3904,0.4143,0.3296,-55.5000,32.2500,29.8500,9.8521,1.3264,2.1979,-0.7056,0.8751,0.0773,-61.0500,9.3000,-22.5000,3.0900,4.2200,-8.3000,0.1756,-0.1702,0.1167,4.8750,-29.6875,20.3750,156.8125,20.6875,-154.6250,0
622.191,9.4786,1.4509,1.4916,-1.3864,0.4133,0.3456,-55.3500,33.9000,31.0500,9.8641,1.1301,2.1715,-0.7056,0.8751,0.0773,-61.0500,9.3000,-22.5000,3.2200,3.8100,-8.4300,0.1756,-0.1702,0.1167,4.8750,-29.6875,20.3750,156.8125,20.6875,-154.6250,0
622.200,9.3877,1.6664,1.4413,-1.4051,0.4258,0.3693,-55.6500,31.9500,32.8500,9.8641,1.1301,2.1715,-0.7568,0.8921,0.0781,-63.0000,8.5500,-21.7500,3.3100,3.8500,-8.4600,0.1309,-0.1462,0.1353,4.8750,-29.6875,20.3750,156.9375,20.6250,-154.7500,0
622.204,9.3877,1.6664,1.4413,-1.3917,0.5327,0.3949,-55.6500,31.9500,32.8500,9.8785,1.3647,2.2051,-0.7749,0.9118,0.0869,-63.0000,8.5500,-21.7500,3.3100,3.8500,-8.4600,0.1309,-0.1462,0.1353,4.8750,-29.6875,20.3750,156.9375,20.6250,-154.7500,0
622.209,9.6031,2.1739,0.9026,-1.3917,0.5327,0.3949,-56.2500,34.5000,32.4000,9.8785,1.3647,2.2051,-0.7749,0.9118,0.0869,-63.0000,8.5500,-21.7500,3.2900,3.8000,-8.4600,0.0753,-0.1178,0.1440,4.1875,-28.8750,20.3750,157.0000,20.6250,-154.8125,0
622.214,9.6031,2.1739,0.9026,-1.3542,0.4980,0.4189,-56.2500,34.5000,32.4000,9.8904,1.4533,2.4229,-0.7639,0.9092,0.0690,-63.0000,8.5500,-21.7500,3.2900,3.8000,-8.4600,0.0753,-0.1178,0.1440,4.1875,-28.8750,20.3750,157.0000,20.6250,-154.8125,0
622.219,9.8857,2.0997,1.6305,-1.3542,0.4980,0.4189,-56.2500,34.0500,31.6500,9.8904,1.4533,2.4229,-0.7639,0.9092,0.0690,-61.6500,8.4000,-20.8500,3.2600,4.0600,-8.4900,0.0109,-0.0818,0.1538,4.1875,-28.8750,20.3750,157.0625,20.5625,-154.8750,0
622.224,9.8857,2.0997,1.6305,-1.3105,0.4690,0.4490,-56.2500,34.0500,31.6500,9.8952,1.5179,2.4157,-0.7469,0.8969,0.0602,-61.6500,8.4000,-20.8500,3.2600,4.0600,-8.4900,0.0109,-0.0818,0.1538,4.1875,-28.8750,20.3750,157.1875,20.5625,-154.8750,0
622.231,10.3190,2.2553,1.9585,-1.3105,0.4690,0.4490,-56.2500,34.0500,31.6500,10.1083,1.4006,2.3008,-0.7341,0.9174,0.0695,-61.6500,8.4000,-20.8500,3.2900,4.0700,-8.5800,-0.0611,-0.0502,0.1669,4.1875,-28.8750,20.3750,157.1875,20.5625,-154.8750,0
622.237,10.3453,2.3846,2.2170,-1.1908,0.3677,0.4599,-56.2500,34.0500,31.6500,10.1083,1.4006,2.3008,-0.7341,0.9174,0.0695,-61.6500,9.4500,-21.6000,3.3400,3.9300,-8.6400,-0.1374,-0.0153,0.1898,4.1875,-28.8750,20.3750,157.3125,20.6250,-154.8750,0
622.242,10.3453,2.3846,2.2170,-1.1908,0.3677,0.4599,-56.2500,34.0500,31.6500,10.2328,1.1995,1.8411,-0.7997,0.9137,0.0791,-61.6500,9.4500,-21.6000,3.3400,3.9300,-8.6400,-0.1374,-0.0153,0.1898,4.1875,-28.8750,20.3750,157.4375,20.6875,-154.7500,0
622.251,10.5129,2.6863,2.1859,-1.0818,0.4098,0.4604,-57.0000,36.3000,34.5000,10.1897,1.0439,1.1037,-0.8420,0.9470,0.0775,-61.5000,9.3000,-21.4500,3.3400,3.9700,-8.6400,-0.2073,0.0349,0.2149,4.1875,-28.8750,20.3750,157.4375,20.6875,-154.7500,0
622.256,10.3166,3.0454,1.7262,-0.9371,0.3741,0.4375,-56.1000,36.1500,33.6000,10.1897,1.0439,1.1037,-0.8420,0.9470,0.0775,-63.0000,10.0500,-19.5000,3.3400,3.9700,-8.6400,-0.2073,0.0349,0.2149,4.1875,-28.8750,20.3750,157.6250,20.7500,-154.6875,0
622.261,10.3166,3.0454,1.7262,-0.9371,0.3741,0.4375,-56.1000,36.1500,33.6000,10.1299,3.5554,2.1811,-0.7317,1.0240,0.0386,-63.0000,10.0500,-19.5000,3.3600,3.9700,-8.7900,-0.2836,0.0971,0.2334,4.8750,-29.2500,20.7500,157.6250,20.7500,-154.6875,0
622.266,10.4962,3.3950,0.9002,-0.7842,0.4042,0.3960,-57.1500,38.4000,33.9000,10.1299,3.5554,2.1811,-0.7317,1.0240,0.0386,-64.8000,10.9500,-19.2000,3.3600,3.9700,-8.7900,-0.2836,0.0971,0.2334,4.8750,-29.2500,20.7500,157.6250,20.7500,-154.6875,0
622.271,10.4962,3.3950,0.9002,-0.7842,0.4042,0.3960,-57.1500,38.4000,33.9000,9.7157,2.4732,0.1053,-0.5028,0.9609,-0.0863,-64.8000,10.9500,-19.2000,4.7100,4.7200,-7.9500,-0.3556,0.1778,0.2596,4.8750,-29.2500,20.7500,157.7500,20.9375,-154.5000,0
622.276,9.9503,3.7469,0.0982,-0.6403,0.3917,0.3467,-56.5500,39.3000,35.2500,9.7157,2.4732,0.1053,-0.5028,0.9609,-0.0863,-63.0000,10.5000,-19.9500,4.7100,4.7200,-7.9500,-0.4952,0.2902,0.3960,4.8750,-29.2500,20.7500,158.0000,21.1250,-154.2500,0
622.282,9.9503,3.7469,0.0982,-0.5271,0.3773,0.2630,-56.5500,39.3000,35.2500,10.3430,0.2131,-0.0934,-0.9566,1.1586,-0.1156,-63.0000,10.5000,-19.9500,3.7400,8.2800,-7.8600,-0.4952,0.2902,0.3960,4.8750,-29.2500,20.7500,158.4375,21.4375,-154.0000,0
622.291,9.6917,3.8834,-1.3120,-0.5271,0.3773,0.2630,-56.5500,39.3000,35.2500,10.0437,0.7278,0.7470,-1.1676,1.1442,0.0895,-62.7000,10.3500,-19.0500,3.9300,3.6400,-8.7400,-0.6381,0.2858,0.6861,4.8750,-29.2500,20.7500,158.4375,21.4375,-154.0000,0
622.301,9.4379,4.0007,-1.3192,-0.7016,0.3264,0.1769,-57.0000,38.2500,34.5000,9.8354,1.9273,-0.5602,-1.0203,1.2319,0.0994,-62.7000,10.3500,-19.0500,3.3600,4.2300,-8.7700,-0.5967,0.3894,0.7069,4.8750,-29.2500,20.7500,158.8125,21.8125,-153.8125,0
622.306,9.9431,3.7062,-1.3767,-0.8130,0.3778,0.1716,-57.9000,37.9500,33.9000,9.8354,1.9273,-0.5602,-1.0203,1.2319,0.0994,-61.8000,10.9500,-18.4500,3.3600,4.2300,-8.7700,-0.5967,0.3894,0.7069,4.8750,-29.2500,20.7500,158.2500,22.2500,-153.5625,0
622.311,9.9431,3.7062,-1.3767,-0.8665,0.3595,0.2009,-57.9000,37.9500,33.9000,10.2663,1.9728,0.2418,-0.6843,1.3555,0.0594,-61.8000,10.9500,-18.4500,2.3900,5.4800,-8.8400,-0.6163,0.5640,0.6829,4.8750,-30.0625,21.1875,158.2500,22.2500,-153.5625,0
622.316,10.4842,3.6344,-1.1779,-0.8665,0.3595,0.2009,-56.5500,37.0500,35.5500,10.5153,1.2330,-0.3112,-0.6843,1.3555,0.0594,-61.8000,10.9500,-18.4500,2.3900,5.4800,-8.8400,-0.6163,0.5640,0.6829,4.8750,-30.0625,21.1875,158.2500,22.2500,-153.5625,0
622.321,10.7548,3.6727,-1.4796,-0.9443,0.2587,0.2260,-56.5500,37.0500,35.5500,10.5153,1.2330,-0.3112,-0.6043,1.4946,0.0829,-61.8000,10.9500,-18.4500,2.8100,3.7100,-9.3600,-0.5094,0.7843,0.7701,4.8750,-30.0625,21.1875,158.6250,22.8750,-153.3125,0
622.325,10.7548,3.6727,-1.4796,-0.9443,0.2587,0.2260,-57.3000,39.0000,35.8500,10.5608,0.8188,-0.2322,-0.6043,1.4946,0.0829,-62.4000,11.1000,-18.6000,2.8100,3.7100,-9.3600,-0.3916,1.0385,0.8138,4.8750,-30.0625,21.1875,159.0000,23.5625,-153.1875,0
622.332,10.6638,3.6847,-1.5467,-0.9950,0.0877,0.2435,-57.3000,39.0000,35.8500,10.5608,0.8188,-0.2322,-0.5036,1.5599,0.1415,-62.4000,11.1000,-18.6000,2.6900,3.6000,-9.3300,-0.3916,1.0385,0.8138,4.8750,-30.0625,21.1875,159.3125,24.4375,-153.0000,0
622.341,10.6686,4.1108,-1.2354,-1.1333,-0.0517,0.2705,-57.3000,37.5000,34.8000,10.1730,0.6488,-0.7638,-0.4588,1.6856,0.1631,-62.2500,10.9500,-16.6500,2.7300,3.4700,-9.4500,-0.3294,1.3090,0.7974,4.8750,-30.0625,21.1875,159.6250,25.3750,-152.8125,0
622.351,10.5345,4.4508,-1.2186,-1.2151,-0.2121,0.2358,-57.3000,37.5000,34.8000,10.2879,0.3256,-1.1899,-0.4096,1.8109,0.1839,-63.9000,10.3500,-15.6000,2.9100,3.6200,-9.4100,-0.3065,1.5686,0.7538,4.8750,-30.0625,21.1875,159.6250,25.3750,-152.8125,0
622.356,10.5345,4.4508,-1.2186,-1.2151,-0.2121,0.2358,-57.4500,37.9500,36.1500,10.5225,1.1540,-0.7997,-0.4413,1.9076,0.1919,-63.7500,10.5000,-15.1500,2.9100,3.6200,-9.4100,-0.3065,1.5686,0.7538,4.8750,-30.0625,21.1875,159.0000,26.5000,-152.6250,0
622.361,10.7308,4.8914,-1.4772,-1.2188,-0.3544,0.1575,-57.4500,37.9500,36.1500,10.5225,1.1540,-0.7997,-0.4413,1.9076,0.1919,-63.7500,10.5000,-15.1500,3.1900,3.6200,-9.1200,-0.2509,1.8468,0.7461,3.3750,-30.0625,19.6875,159.0000,26.5000,-152.6250,0
622.366,10.7308,4.8914,-1.4772,-1.2188,-0.3544,0.1575,-57.3000,37.5000,36.3000,11.2001,2.8994,-2.3463,-0.5255,2.0163,0.2262,-63.0000,10.5000,-15.9000,3.1900,3.6200,-9.1200,-0.2509,1.8468,0.7461,3.3750,-30.0625,19.6875,159.0000,26.5000,-152.6250,0
622.371,11.8369,5.5091,-1.0798,-1.1210,-0.4338,0.0195,-57.3000,37.5000,36.3000,11.2001,2.8994,-2.3463,-0.5255,2.0163,0.2262,-63.0000,10.5000,-15.9000,3.4600,4.8900,-9.2800,-0.1080,2.1271,0.8149,3.3750,-30.0625,19.6875,159.1875,27.7500,-152.5000,0
622.376,11.8369,5.5091,-1.0798,-1.1210,-0.4338,0.0195,-56.5500,38.2500,36.6000,12.9838,0.5459,-1.0654,-0.2148,2.1570,0.2142,-64.5000,10.5000,-15.9000,3.4600,4.8900,-9.2800,-0.0851,2.4566,0.9850,3.3750,-30.0625,19.6875,159.4375,29.1875,-152.3750,0
622.382,12.2200,5.6288,-1.5371,-0.9518,-0.6909,-0.1783,-56.5500,38.2500,36.6000,12.9838,0.5459,-1.0654,-0.2148,2.1570,0.2142,-64.5000,11.2500,-14.4000,3.9700,5.8600,-10.4800,-0.0851,2.4566,0.9850,3.3750,-30.0625,19.6875,159.8125,30.8125,-152.2500,0
622.391,11.9016,5.7724,-1.5610,-0.7514,-0.6406,-0.3611,-57.0000,38.2500,37.0500,13.6709,-0.8859,-1.4102,-0.2401,2.3092,0.1633,-64.5000,11.2500,-14.4000,3.7000,6.5100,-8.8900,-0.0927,2.6725,1.1966,3.3750,-30.0625,19.6875,159.8125,30.8125,-152.2500,0
622.401,11.2480,6.2991,-2.3846,-0.3464,-0.7274,-0.4924,-57.1500,37.6500,36.1500,13.5560,-0.6560,-2.4469,-0.3842,2.4168,0.0458,-63.9000,11.1000,-14.2500,4.2700,5.7700,-8.8200,0.0120,3.0325,1.4508,3.3750,-30.0625,19.6875,160.2500,32.6875,-152.2500,0
622.406,11.2480,6.2991,-2.3846,-0.3464,-0.7274,-0.4924,-57.1500,37.6500,36.1500,13.8074,0.1197,-1.9106,-0.4186,2.5586,-0.0725,-63.9000,11.1000,-14.2500,4.2700,5.7700,-8.8200,0.0120,3.0325,1.4508,3.3750,-30.0625,19.6875,160.2500,32.6875,-152.2500,0
622.411,10.8098,7.1204,-4.0438,0.0709,-0.8966,-0.6259,-57.1500,37.6500,36.1500,13.8074,0.1197,-1.9106,-0.4186,2.5586,-0.0725,-63.9000,11.1000,-14.2500,4.1000,5.8300,-9.4200,-0.0087,3.3303,1.9275,0.0625,-30.7500,19.1875,160.8750,34.8125,-152.3125,0
622.416,10.8098,7.1204,-4.0438,0.0709,-0.8966,-0.6259,-55.5000,40.5000,35.8500,14.8704,0.6440,-2.2194,-0.6861,2.6321,-0.0671,-63.9000,11.1000,-14.2500,4.1000,5.8300,-9.4200,-0.0087,3.3303,1.9275,0.0625,-30.7500,19.1875,160.8750,34.8125,-152.3125,0
622.421,9.7109,6.4548,-5.3582,0.5710,-1.2337,-0.7514,-55.5000,40.5000,35.8500,14.8704,0.6440,-2.2194,-0.6861,2.6321,-0.0671,-63.0000,11.2500,-12.1500,3.7400,6.0400,-9.6400,-0.1036,3.6106,2.4784,0.0625,-30.7500,19.1875,224.3750,37.2500,-152.4375,0
622.426,9.7109,6.4548,-5.3582,0.5710,-1.2337,-0.7514,-57.1500,40.9500,36.1500,17.1928,-0.3400,-4.1300,-0.8148,2.7528,0.0021,-63.0000,11.2500,-12.1500,3.7400,6.0400,-9.6400,-0.0753,4.0099,2.9900,0.0625,-30.7500,19.1875,220.1875,39.9375,-152.7500,0
622.432,10.4004,7.2832,-5.6647,1.1650,-1.4128,-0.8812,-57.1500,40.9500,36.1500,19.5175,-0.2729,-3.3902,-0.8663,2.6390,0.1303,-61.6500,11.8500,-10.8000,2.5800,5.9600,-11.1900,-0.0753,4.0099,2.9900,0.0625,-30.7500,19.1875,215.7500,43.0000,-153.3750,0
622.441,10.7835,6.2106,-3.1819,0.9689,-1.9780,-1.0611,-57.0000,40.5000,34.2000,21.8327,0.6177,-3.7254,-1.1469,1.9718,0.0253,-62.7000,11.1000,-9.0000,2.6300,9.2500,-10.9400,0.0393,4.2968,3.4928,0.0625,-30.7500,19.1875,215.7500,43.0000,-153.3750,0
622.451,9.5241,2.4421,-2.5450,1.0549,-2.0107,-1.1258,-57.0000,39.3000,32.7000,13.6709,0.4621,-3.3375,-1.2337,1.8871,-0.0703,-63.7500,10.5000,-7.3500,2.7500,9.9400,-9.9400,0.1898,4.8106,4.1375,0.0625,-30.7500,19.1875,211.0000,46.3750,-154.3750,0
622.456,9.5241,2.4421,-2.5450,1.3153,-2.1469,-1.0869,-57.0000,39.3000,32.7000,13.6709,0.4621,-3.3375,-1.2337,1.8871,-0.0703,-63.7500,10.5000,-7.3500,2.7500,9.9400,-9.9400,0.1898,4.8106,4.1375,0.0625,-30.7500,19.1875,211.0000,46.3750,-154.3750,0
622.461,10.4148,0.6991,-2.9473,1.3153,-2.1469,-1.0869,-57.0000,39.3000,32.7000,13.8409,0.6488,-3.2346,-1.2532,1.9188,-0.2324,-62.4000,8.7000,-3.7500,15.3600,1.1700,-1.0500,0.4941,5.0375,5.0080,-5.0000,-30.0625,20.0625,205.6875,50.0625,-156.1250,0
622.466,10.7548,0.5483,-0.8619,1.3288,-2.4027,-1.0624,-54.6000,40.9500,30.7500,13.8409,0.6488,-3.2346,-1.2532,1.9188,-0.2324,-62.4000,8.7000,-3.7500,15.3600,1.1700,-1.0500,0.4941,5.0375,5.0080,-5.0000,-30.0625,20.0625,205.6875,50.0625,-156.1250,0
622.471,10.7548,0.5483,-0.8619,1.3288,-2.4027,-1.0624,-54.6000,40.9500,30.7500,9.3039,4.6519,-1.0463,-1.1924,1.2545,-0.4191,-63.7500,10.0500,-4.0500,9.0100,10.2000,-10.5800,1.0799,5.1520,6.0672,-5.0000,-30.0625,20.0625,199.6875,54.0000,-159.3750,0
622.476,11.3581,-0.6273,0.0790,1.1663,-2.3070,-1.1178,-54.4500,41.5500,27.7500,9.3039,4.6519,-1.0463,-1.1924,1.2545,-0.4191,-63.7500,10.0500,-4.0500,9.0100,10.2000,-10.5800,1.4421,6.1436,6.7588,-5.0000,-30.0625,20.0625,193.2500,58.3750,-163.8750,0
622.482,11.3581,-0.6273,0.0790,1.1663,-2.3070,-1.1178,-53.4000,43.0500,28.0500,5.7030,5.9879,2.9257,-2.0193,2.2841,-0.5918,-61.8000,10.0500,-2.8500,9.0000,8.0000,-12.5900,1.4421,6.1436,6.7588,-5.0000,-30.0625,20.0625,187.2500,62.0625,-169.8750,0
622.491,13.0221,-1.8316,2.3511,0.5375,-2.6183,-1.2212,-51.1500,45.0000,27.7500,6.1076,4.6208,8.0206,-2.0422,2.4408,-0.7155,-61.6500,9.4500,-1.2000,13.5300,15.1000,-17.6800,1.9242,5.2425,6.4512,-5.0000,-30.0625,20.0625,187.2500,62.0625,-169.8750,0
622.501,13.6350,-3.2585,3.9289,-0.4479,-2.1847,-1.3121,-52.6500,46.5000,26.7000,10.1131,4.6902,19.2254,-0.4221,1.3265,-0.6355,-61.6500,9.4500,-1.2000,18.2100,22.2900,-19.5200,0.2138,5.1924,4.7353,-5.0000,-30.0625,20.0625,184.1250,65.2500,-174.5000,0
622.506,15.6030,-5.1691,5.6982,-1.2361,-1.9553,-1.3795,-52.6500,46.5000,26.7000,10.1131,4.6902,19.2254,-0.4221,1.3265,-0.6355,-61.6500,9.4500,-1.2000,18.2100,22.2900,-19.5200,0.2138,5.1924,4.7353,-5.0000,-30.0625,20.0625,184.1250,65.2500,-174.5000,0
622.511,15.6030,-5.1691,5.6982,-1.2361,-1.9553,-1.3795,-52.6500,46.5000,26.7000,11.3557,6.2465,10.3094,-0.5028,0.1927,-0.2763,-60.3000,10.5000,2.1000,14.6600,16.9100,-23.3300,-0.3862,3.9543,2.4118,-15.5625,-27.0625,16.8750,183.0000,67.5625,-176.9375,0
622.516,15.2798,-3.3184,5.6048,-1.7158,-1.8959,-1.4493,-52.6500,46.5000,26.7000,11.3557,6.2465,10.3094,-0.5028,0.1927,-0.2763,-60.3000,10.5000,2.1000,14.6600,16.9100,-23.3300,-0.3862,3.9543,2.4118,-15.5625,-27.0625,16.8750,183.0000,67.5625,-176.9375,0
622.521,15.2798,-3.3184,5.6048,-1.7158,-1.8959,-1.4493,-48.4500,51.9000,26.8500,13.6805,2.4636,4.0175,-1.1562,-0.3267,-0.3467,-60.3000,10.5000,2.1000,4.4800,12.4700,-18.2800,-0.3862,3.9543,2.4118,-15.5625,-27.0625,16.8750,181.9375,69.7500,179.9375,0
622.527,13.5775,-1.6735,3.0909,-1.8975,-1.7634,-1.4266,-48.4500,51.9000,26.8500,13.6805,2.4636,4.0175,-1.1562,-0.3267,-0.3467,-60.3000,10.5000,2.1000,4.4800,12.4700,-18.2800,1.2610,0.1920,2.9834,-15.5625,-27.0625,16.8750,179.3125,69.8125,174.6875,0
622.532,13.5775,-1.6735,3.0909,-1.8975,-1.7634,-1.4266,-49.3500,52.5000,27.0000,11.0899,2.3583,6.6056,-0.1239,-0.1346,-0.3131,-61.2000,7.9500,2.7000,-0.5500,13.1300,-11.9500,1.2610,0.1920,2.9834,-15.5625,-27.0625,16.8750,176.5000,68.8750,170.1875,0
622.542,13.5440,0.3759,2.3487,-1.6830,-1.7555,-1.4384,-48.3000,54.7500,26.7000,10.4483,1.6735,4.3742,-0.3048,-0.3563,-0.1990,-61.2000,9.9000,3.4500,-0.3200,11.7000,-9.6300,1.6613,-1.3046,2.6180,-15.5625,-27.0625,16.8750,176.0625,67.8750,169.9375,0
622.552,12.4331,1.1253,3.2633,-1.5668,-1.3419,-1.4016,-46.2000,54.9000,27.6000,7.0318,-0.1365,4.2425,-0.4215,-0.5041,-0.3264,-60.1500,9.4500,2.7000,-1.1600,10.5500,-7.1900,0.0513,-1.8315,0.4756,-15.5625,-27.0625,16.8750,176.0625,67.8750,169.9375,0
622.556,11.1666,2.3535,3.6895,-1.2846,-1.5036,-1.3574,-46.2000,54.9000,27.6000,5.8203,-0.2514,4.5442,-0.4215,-0.5041,-0.3264,-60.1500,9.4500,2.7000,-1.1600,10.5500,-7.1900,0.0513,-1.8315,0.4756,-15.5625,-27.0625,16.8750,175.2500,66.8125,170.4375,0
622.561,11.1666,2.3535,3.6895,-1.2846,-1.5036,-1.3574,-45.3000,57.3000,27.0000,5.8203,-0.2514,4.5442,-0.3637,-0.4045,-0.4588,-59.7000,10.3500,0.4500,-1.8000,8.3300,-4.3100,-0.0393,-1.8871,-0.0480,-23.6875,-23.3750,14.6875,175.2500,66.8125,170.4375,0
622.566,10.3022,3.2848,3.9648,-1.1711,-1.7805,-1.4144,-45.3000,57.3000,27.0000,5.1691,0.8452,5.2816,-0.3637,-0.4045,-0.4588,-59.7000,10.3500,0.4500,-1.8000,8.3300,-4.3100,-0.0393,-1.8871,-0.0480,-23.6875,-23.3750,14.6875,175.2500,66.8125,170.4375,0
622.571,10.3022,3.2848,3.9648,-1.1711,-1.7805,-1.4144,-45.3000,57.3000,27.0000,5.1691,0.8452,5.2816,-0.1687,-0.4615,-0.5092,-60.7500,11.2500,0.0000,-3.1600,6.6600,-2.5900,-0.0393,-1.8871,-0.0480,-23.6875,-23.3750,14.6875,175.1875,65.8125,170.9375,0
622.576,9.2177,3.8930,3.9983,-0.9486,-1.8914,-1.4136,-45.3000,57.3000,27.0000,3.9792,0.9361,5.7604,-0.1476,-0.6979,-0.5433,-60.7500,11.2500,0.0000,-3.1600,6.6600,-2.5900,-0.2214,-2.0497,-0.5323,-23.6875,-23.3750,14.6875,175.5625,64.6875,172.0625,0
622.582,8.7077,3.7828,3.6344,-0.3331,-1.8594,-1.4237,-45.3000,58.5000,27.3000,3.9792,0.9361,5.7604,-0.1476,-0.6979,-0.5433,-59.8500,11.2500,0.6000,-3.5600,5.8300,-2.3300,-0.2214,-2.0497,-0.5323,-23.6875,-23.3750,14.6875,177.0625,63.7500,174.5625,0
622.592,9.2177,3.0358,2.5618,0.2443,-1.5934,-1.4821,-45.9000,60.9000,28.2000,3.2825,0.6440,6.0741,-0.2984,-0.9305,-0.4860,-59.8500,11.2500,0.6000,-1.8800,6.0100,-3.4000,-0.9076,-1.9199,-1.5337,-23.6875,-23.3750,14.6875,177.0625,63.7500,174.5625,0
622.602,9.3637,2.6839,0.7661,0.5135,-1.1506,-1.5434,-45.4500,59.4000,26.8500,3.5530,0.8045,5.4971,-0.5033,-1.3704,-0.4218,-60.1500,11.8500,-0.1500,-1.0000,6.1200,-3.5500,-1.0625,-2.0486,-1.9799,-23.6875,-23.3750,14.6875,179.0625,62.6875,177.5000,0
622.606,9.3637,2.6839,0.7661,0.5135,-1.1506,-1.5434,-45.4500,59.4000,26.8500,3.7828,1.4365,4.9919,-0.6270,-1.7581,-0.3989,-60.1500,11.8500,-0.1500,-1.0000,6.1200,-3.5500,-1.0625,-2.0486,-1.9799,-23.6875,-23.3750,14.6875,179.0625,62.6875,177.5000,0
622.611,9.2967,2.3727,-0.1820,0.2022,-0.8047,-1.6315,-46.5000,60.0000,25.2000,3.7828,1.4365,4.9919,-0.6270,-1.7581,-0.3989,-60.1500,11.8500,-0.1500,0.0800,6.2100,-3.9400,-1.1639,-2.1948,-2.3671,-23.6875,-23.0000,15.5625,181.2500,61.5000,-179.3125,0
622.616,9.2967,2.3727,-0.1820,0.2022,-0.8047,-1.6315,-46.5000,60.0000,25.2000,3.8475,1.8340,5.2026,-0.4197,-2.1266,-0.4050,-60.1500,11.8500,-0.1500,0.0800,6.2100,-3.9400,-1.1639,-2.1948,-2.3671,-23.6875,-23.0000,15.5625,181.2500,61.5000,-179.3125,0
622.621,9.1075,2.2051,-0.6536,-0.0834,-0.7392,-1.6675,-46.5000,60.0000,25.2000,3.8475,1.8340,5.2026,-0.4197,-2.1266,-0.4050,-59.7000,13.5000,-1.2000,1.0100,6.1100,-4.4100,-1.1956,-2.4795,-2.6758,-23.6875,-23.0000,15.5625,183.9375,60.0625,-176.0625,0
622.626,9.1075,2.2051,-0.6536,-0.0834,-0.7392,-1.6675,-46.5000,60.0000,25.2000,3.3950,2.7078,4.4149,0.0005,-2.4126,-0.4077,-59.7000,13.5000,-1.2000,1.0100,6.1100,-4.4100,-1.1814,-2.9038,-2.9485,-23.6875,-23.0000,15.5625,186.8750,58.3125,-172.9375,0
622.632,8.4180,2.1620,-0.2083,-0.1066,-0.9212,-1.5902,-47.1000,58.0500,23.8500,3.3950,2.7078,4.4149,0.0005,-2.4126,-0.4077,-60.1500,12.3000,-2.7000,1.1200,4.6300,-4.2600,-1.1814,-2.9038,-2.9485,-23.6875,-23.0000,15.5625,190.1875,56.3125,-169.9375,0
622.642,7.9703,2.6432,0.4046,0.0077,-0.9787,-1.4144,-47.7000,55.2000,24.0000,3.2298,2.8706,4.4029,0.6486,-2.4661,-0.4988,-61.2000,13.5000,-3.4500,0.7400,2.8000,-4.3800,-1.2806,-3.1220,-3.1689,-23.6875,-23.0000,15.5625,190.1875,56.3125,-169.9375,0
622.652,7.2712,2.4541,1.5060,0.1777,-0.8769,-1.2716,-47.7000,55.2000,25.0500,3.9121,2.1141,5.4468,1.3840,-2.4882,-0.6566,-60.4500,14.2500,-5.7000,1.0700,2.0700,-4.9400,-1.6417,-3.0151,-3.3194,-23.6875,-23.0000,15.5625,194.1875,54.3125,-166.8750,0
622.656,7.2712,2.4541,1.5060,0.1777,-0.8769,-1.2716,-47.7000,55.2000,25.0500,5.4636,1.3384,5.5091,1.9223,-2.6231,-0.7440,-60.4500,14.2500,-5.7000,1.0700,2.0700,-4.9400,-1.6417,-3.0151,-3.3194,-23.6875,-23.0000,15.5625,194.1875,54.3125,-166.8750,0
622.661,7.0773,2.2434,1.9944,0.4493,-0.6696,-1.1122,-46.8000,54.3000,24.1500,6.1459,0.2825,5.1643,1.9223,-2.6231,-0.7440,-59.4000,15.7500,-7.2000,3.0200,2.0100,-7.1400,-2.1751,-2.8231,-3.3674,-21.0000,-25.1875,17.0625,198.8750,52.3125,-163.7500,0
622.666,7.0773,2.2434,1.9944,0.4493,-0.6696,-1.1122,-46.8000,54.3000,24.1500,6.1459,0.2825,5.1643,2.1525,-2.7773,-0.7314,-59.4000,15.7500,-7.2000,3.0200,2.0100,-7.1400,-2.1751,-2.8231,-3.3674,-21.0000,-25.1875,17.0625,198.8750,52.3125,-163.7500,0
622.671,6.9504,2.1093,2.1237,0.7855,-0.6526,-0.9585,-44.5500,52.8000,23.8500,7.9631,-0.6033,4.7836,2.1525,-2.7773,-0.7314,-59.5500,15.9000,-10.3500,3.8100,1.9200,-8.2200,-2.5427,-2.8263,-3.2572,-21.0000,-25.1875,17.0625,204.1250,50.3125,-160.8125,0
622.676,6.9504,2.1093,2.1237,0.7855,-0.6526,-0.9585,-44.5500,52.8000,23.8500,7.9631,-0.6033,4.7836,2.1186,-2.9127,-0.7101,-59.5500,15.9000,-10.3500,3.8100,1.9200,-8.2200,-2.5787,-3.1220,-3.0052,-21.0000,-25.1875,17.0625,209.6250,48.0625,-158.2500,0
622.683,6.7780,1.7597,2.2577,1.1133,-0.5247,-0.8119,-44.5500,52.8000,23.8500,9.2656,-1.5060,5.4636,1.7352,-3.1701,-0.5694,-61.5000,17.5500,-10.3500,4.1900,1.5200,-8.8500,-2.5787,-3.1220,-3.0052,-21.0000,-25.1875,17.0625,215.0625,45.7500,-156.3125,0
622.692,6.7038,1.2115,2.4277,1.3363,-0.5201,-0.6819,-45.4500,50.7000,24.0000,9.2440,-2.3846,6.1124,1.2646,-3.4989,-0.2915,-57.6000,16.8000,-11.1000,4.0300,0.4000,-9.1100,-2.4053,-3.4994,-2.6322,-21.0000,-25.1875,17.0625,215.0625,45.7500,-156.3125,0
622.702,6.4332,0.9792,2.2601,1.5583,-0.4570,-0.5510,-43.9500,48.0000,22.0500,8.3055,-3.0454,5.9568,0.5910,-3.8496,-0.0445,-57.6000,16.8000,-11.1000,4.5500,0.5100,-9.4600,-2.1948,-3.5910,-2.1958,-21.0000,-25.1875,17.0625,220.3750,43.4375,-154.8125,0
622.707,6.4332,0.9792,2.2601,1.5583,-0.4570,-0.5510,-43.9500,48.0000,22.0500,8.3055,-3.0454,5.9568,0.5910,-3.8496,-0.0445,-57.6000,16.8000,-11.1000,4.5500,0.5100,-9.4600,-2.1948,-3.5910,-2.1958,-21.0000,-25.1875,17.0625,220.3750,43.4375,-154.8125,0
622.712,6.3303,0.5243,2.0087,1.7267,-0.3331,-0.4714,-43.3500,47.7000,22.5000,7.8721,-3.1268,5.8251,-0.3238,-4.0196,0.0727,-57.6000,17.1000,-15.4500,5.7600,0.7000,-10.3900,-2.0224,-3.4416,-1.8457,-16.6875,-30.5625,16.2500,225.5000,41.2500,-153.5625,0
622.717,6.3303,0.5243,2.0087,1.7267,-0.3331,-0.4714,-43.3500,47.7000,22.5000,7.8721,-3.1268,5.8251,-0.3238,-4.0196,0.0727,-57.6000,17.1000,-15.4500,5.7600,0.7000,-10.3900,-2.0224,-3.4416,-1.8457,-16.6875,-30.5625,16.2500,225.5000,41.2500,-153.5625,0
622.722,6.3638,0.2634,1.3815,1.7941,-0.2995,-0.4157,-43.3500,46.2000,22.2000,8.5808,-2.4349,6.0190,-1.1069,-4.1360,0.1279,-57.6000,17.1000,-15.4500,7.1200,0.7700,-11.5500,-1.9231,-3.3859,-1.6570,-16.6875,-30.5625,16.2500,230.6250,39.1875,-152.5625,0
622.728,6.3015,-0.0886,0.7805,1.7112,-0.1793,-0.3938,-43.5000,44.5500,21.3000,8.5808,-2.4349,6.0190,-1.1069,-4.1360,0.1279,-57.6000,17.1000,-15.4500,7.8800,1.4900,-12.5900,-1.8086,-3.4830,-1.5588,-16.6875,-30.5625,16.2500,235.8750,37.0625,-151.6250,0
622.733,6.3015,-0.0886,0.7805,1.7112,-0.1793,-0.3938,-43.5000,44.5500,21.3000,9.0788,-1.0942,6.5960,-1.5015,-4.3090,0.1383,-58.9500,16.9500,-17.8500,7.8800,1.4900,-12.5900,-1.8086,-3.4830,-1.5588,-16.6875,-30.5625,16.2500,171.5625,34.8750,-150.9375,0
622.742,6.4117,-0.5148,0.1963,1.5066,-0.0853,-0.3725,-43.5000,44.5500,21.3000,9.7899,0.1676,6.6918,-1.7722,-4.4060,0.1178,-57.4500,18.1500,-17.8500,7.5800,1.5500,-12.3600,-1.6264,-3.6303,-1.4835,-16.6875,-30.5625,16.2500,171.5625,32.8125,-150.3750,0
622.752,6.5984,-0.8547,-0.4741,1.1866,-0.0226,-0.3389,-42.3000,44.4000,20.7000,10.0987,1.3791,6.7253,-1.6465,-4.5195,0.0538,-58.6500,20.1000,-19.8000,6.6400,1.7800,-11.7300,-1.4115,-3.5125,-1.3548,-16.6875,-30.5625,16.2500,171.5625,32.8125,-150.3750,0
622.757,6.5601,-0.7805,-0.8332,0.8226,0.1114,-0.2790,-43.5000,45.0000,21.6000,10.0987,1.3791,6.7253,-1.6465,-4.5195,0.0538,-58.6500,20.1000,-19.8000,6.6400,1.7800,-11.7300,-1.4115,-3.5125,-1.3548,-16.6875,-30.5625,16.2500,171.5625,32.8125,-150.3750,0
622.762,6.5601,-0.7805,-0.8332,0.8226,0.1114,-0.2790,-43.5000,45.0000,21.6000,9.5265,2.3511,6.8881,-1.0864,-4.4704,-0.0671,-56.8500,20.2500,-20.2500,8.6400,3.7900,-12.7300,-1.3275,-3.2147,-1.2359,-11.1875,-34.5625,13.1875,171.5000,30.9375,-149.8125,0
622.767,6.8450,-0.8595,-1.3024,0.4799,0.2952,-0.1775,-45.0000,44.5500,19.5000,9.5265,2.3511,6.8881,-1.0864,-4.4704,-0.0671,-56.8500,20.2500,-20.2500,8.6400,3.7900,-12.7300,-1.3275,-3.2147,-1.2359,-11.1875,-34.5625,13.1875,171.5000,30.9375,-149.8125,0
622.772,6.8450,-0.8595,-1.3024,0.4799,0.2952,-0.1775,-45.0000,44.5500,19.5000,8.8083,2.5953,6.1244,-0.2137,-4.2807,-0.1657,-56.8500,19.9500,-23.2500,9.0200,4.3300,-11.7200,-1.2239,-3.4841,-1.2719,-11.1875,-34.5625,13.1875,171.5000,28.9375,-149.3125,0
622.777,6.8666,-0.6249,-1.4724,0.0432,0.3938,-0.0402,-44.2500,43.5000,19.9500,8.8681,2.1093,5.1140,-0.2137,-4.2807,-0.1657,-56.8500,19.9500,-23.2500,9.0200,4.3300,-11.7200,-1.2970,-3.4787,-1.4039,-11.1875,-34.5625,13.1875,171.3750,26.8750,-148.7500,0
622.783,6.8666,-0.6249,-1.4724,0.0432,0.3938,-0.0402,-44.2500,43.5000,19.9500,8.8681,2.1093,5.1140,0.7218,-4.0993,-0.2033,-57.4500,20.1000,-20.8500,9.0500,4.6700,-11.5700,-1.2970,-3.4787,-1.4039,-11.1875,-34.5625,13.1875,171.1250,24.7500,-148.0000,0
622.792,7.4101,-0.4357,-1.4557,-0.3792,0.5329,0.0703,-44.2500,43.5000,19.9500,9.6510,1.4102,4.6064,1.3952,-3.9341,-0.1668,-57.4500,20.1000,-20.8500,9.0200,5.7100,-10.3600,-1.4792,-3.3554,-1.7541,-11.1875,-34.5625,13.1875,171.1250,24.7500,-148.0000,0
622.802,7.7979,-0.2897,-1.4868,-0.6366,0.5220,0.1767,-44.2500,43.5000,19.9500,10.4627,0.7661,4.5203,1.6465,-3.8104,-0.0613,-55.9500,20.4000,-25.6500,9.1400,6.2300,-10.8100,-1.6166,-3.0772,-2.1915,-11.1875,-34.5625,13.1875,170.5625,22.6875,-147.0625,0
622.807,7.8937,0.2083,-1.3527,-0.9859,0.5907,0.2872,-47.1000,47.2500,19.5000,11.4227,-0.1365,4.2976,1.6598,-3.6990,0.0879,-55.9500,20.4000,-25.6500,9.1400,6.2300,-10.8100,-1.6166,-3.0772,-2.1915,-11.1875,-34.5625,13.1875,169.7500,20.5625,-146.0000,0
622.812,7.8937,0.2083,-1.3527,-0.9859,0.5907,0.2872,-47.1000,47.2500,19.5000,11.4227,-0.1365,4.2976,1.6598,-3.6990,0.0879,-55.9500,20.4000,-25.6500,9.4200,5.8200,-10.6300,-1.6526,-2.7631,-2.6660,-6.0000,-36.1875,10.5000,169.7500,20.5625,-146.0000,0
622.817,7.9799,0.8475,-1.6616,-1.3150,0.6249,0.3925,-45.7500,44.5500,20.2500,11.9423,-0.6919,4.5322,1.5250,-3.6066,0.2361,-55.9500,20.4000,-25.6500,9.4200,5.8200,-10.6300,-1.6526,-2.7631,-2.6660,-6.0000,-36.1875,10.5000,168.6250,18.5000,-144.8750,0
622.822,7.9799,0.8475,-1.6616,-1.3150,0.6249,0.3925,-45.7500,44.5500,20.2500,11.9423,-0.6919,4.5322,1.5250,-3.6066,0.2361,-54.7500,18.1500,-27.1500,9.4500,5.5200,-10.6700,-1.6013,-2.4456,-3.0227,-6.0000,-36.1875,10.5000,168.6250,18.5000,-144.8750,0
622.830,8.6526,1.5634,-2.3104,-1.5044,0.5633,0.4975,-46.2000,45.4500,22.2000,11.9542,-1.0056,4.1899,1.0645,-3.5733,0.3333,-54.7500,18.1500,-27.1500,9.7200,2.9800,-9.7200,-1.5937,-2.1915,-3.2289,-6.0000,-36.1875,10.5000,167.3750,16.5000,-143.8125,0
622.835,9.0309,2.3846,-2.3703,-1.6009,0.4690,0.6054,-46.2000,45.4500,22.2000,10.6781,-1.1636,3.7230,1.0645,-3.5733,0.3333,-54.7500,18.1500,-27.1500,9.7200,2.9800,-9.7200,-1.5937,-2.1915,-3.2289,-6.0000,-36.1875,10.5000,166.0000,14.5000,-142.5625,0
622.843,9.0309,2.3846,-2.3703,-1.6009,0.4690,0.6054,-46.9500,46.2000,21.9000,10.6781,-1.1636,3.7230,0.6781,-3.3718,0.4029,-52.9500,16.9500,-27.9000,9.4100,2.7100,-8.4600,-1.8315,-1.9569,-3.3674,-6.0000,-36.1875,10.5000,164.5000,12.7500,-141.0625,0
622.852,9.7683,3.6536,-3.1987,-0.9555,0.4935,0.7909,-46.9500,46.2000,21.9000,10.3262,-0.7135,3.8954,0.3784,-3.1512,0.3635,-53.1000,18.0000,-29.5500,9.7300,2.8100,-7.8400,-2.2438,-1.3221,-3.4416,-6.0000,-36.1875,10.5000,164.5000,12.7500,-141.0625,0
622.857,10.5225,5.4851,-4.1611,-0.9555,0.4935,0.7909,-47.8500,42.7500,24.4500,9.4020,0.6057,4.0055,0.1751,-3.0435,0.2499,-53.1000,18.0000,-29.5500,9.7300,2.8100,-7.8400,-2.2438,-1.3221,-3.4416,-6.0000,-36.1875,10.5000,164.5000,12.7500,-141.0625,0
622.862,10.5225,5.4851,-4.1611,-0.2230,0.3946,0.7394,-47.8500,42.7500,24.4500,9.4020,0.6057,4.0055,0.1751,-3.0435,0.2499,-53.4000,18.0000,-28.5000,14.3200,2.8800,-9.5500,-2.4631,-0.4636,-3.3532,-2.5625,-34.6875,7.7500,162.9375,11.3750,-139.3750,0
622.867,11.0205,6.9671,-4.6232,-0.2230,0.3946,0.7394,-48.6000,43.0500,23.1000,8.5329,0.9936,3.9433,-0.0677,-2.7936,0.0986,-53.4000,18.0000,-28.5000,14.3200,2.8800,-9.5500,-2.4631,-0.4636,-3.3532,-2.5625,-34.6875,7.7500,162.9375,11.3750,-139.3750,0
622.872,11.0205,6.9671,-4.6232,-0.2230,0.3946,0.7394,-48.6000,43.0500,23.1000,8.5329,0.9936,3.9433,-0.0677,-2.7936,0.0986,-52.5000,16.2000,-28.2000,15.9900,1.4500,-10.5600,-2.3082,-0.1865,-3.0554,-2.5625,-34.6875,7.7500,161.3750,10.1250,-137.8750,0
622.876,11.3150,7.7979,-4.7956,0.4938,0.3206,0.5926,-49.3500,41.5500,23.8500,8.4156,0.6297,3.8595,-0.1311,-2.4666,-0.0530,-52.5000,16.2000,-28.2000,15.9900,1.4500,-10.5600,-1.9766,-0.5890,-2.5209,-2.5625,-34.6875,7.7500,160.2500,8.9375,-136.6250,0
622.883,10.3956,8.0685,-4.4508,1.1378,0.2966,0.4104,-49.3500,41.5500,23.8500,7.7548,-0.0215,4.2210,-0.1311,-2.4666,-0.0530,-52.3500,18.7500,-30.6000,17.0500,0.1900,-11.0100,-1.9766,-0.5890,-2.5209,-2.5625,-34.6875,7.7500,159.5000,7.8125,-135.6875,0
622.892,9.6893,7.5729,-4.7333,1.3230,0.3603,0.2308,-50.5500,41.7000,25.3500,7.4675,-0.7757,4.1707,-0.2518,-2.0494,-0.1895,-51.9000,15.9000,-29.8500,18.2100,-2.8200,-9.6100,-1.7170,-1.1268,-1.8860,-2.5625,-34.6875,7.7500,159.5000,7.8125,-135.6875,0
622.902,9.1123,6.8235,-4.9823,1.0120,0.2086,0.1167,-52.0500,39.9000,23.5500,7.1012,-1.4988,3.7757,-0.4591,-1.7152,-0.2585,-51.9000,15.9000,-29.8500,18.9900,-4.8500,-9.1100,-1.6090,-1.4672,-1.2686,-2.5625,-34.6875,7.7500,320.3125,6.6875,-134.7500,0
622.907,9.1123,6.8235,-4.9823,1.0120,0.2086,0.1167,-52.0500,39.9000,23.5500,7.1012,-1.4988,3.7757,-0.8418,-1.3051,-0.3075,-51.9000,15.9000,-29.8500,18.9900,-4.8500,-9.1100,-1.6090,-1.4672,-1.2686,-2.5625,-34.6875,7.7500,320.3125,6.6875,-134.7500,0
