timestamp,thigh_acc_x,thigh_acc_y,thigh_acc_z,thigh_gyro_x,thigh_gyro_y,thigh_gyro_z,thigh_mag_x,thigh_mag_y,thigh_mag_z,shank_acc_x,shank_acc_y,shank_acc_z,shank_gyro_x,shank_gyro_y,shank_gyro_z,shank_mag_x,shank_mag_y,shank_mag_z,foot_acc_x,foot_acc_y,foot_acc_z,foot_gyro_x,foot_gyro_y,foot_gyro_z,foot_mag_x,foot_mag_y,foot_mag_z,foot_euler_x,foot_euler_y,foot_euler_z,perturbation_event
223.835,9.1123,2.9808,0.6249,-0.1687,-0.0370,-0.0845,-57.0000,4.8000,23.4000,9.5098,1.7023,0.8667,0.1069,0.0424,0.0584,-68.4000,29.8500,-4.9500,3.4600,4.2400,-8.1800,0.1429,-0.0622,0.0349,-27.0000,-14.0000,18.5000,259.6875,20.1250,-154.6875,0
223.841,9.1123,2.9808,0.6249,-0.1687,-0.0370,-0.0845,-58.0500,5.2500,23.4000,9.5672,1.6999,0.8140,0.1013,0.0432,0.0637,-68.4000,29.8500,-4.9500,3.5000,4.0200,-8.2000,0.1778,-0.0807,0.0415,-26.6875,-13.5625,20.8750,259.6875,20.1250,-154.6875,0
223.845,9.2105,3.0670,0.5243,-0.1687,-0.0091,-0.0637,-58.0500,5.2500,23.4000,9.5672,1.6999,0.8140,0.1013,0.0432,0.0637,-68.7000,29.8500,-4.9500,3.5000,4.0200,-8.2000,0.1778,-0.0807,0.0415,-26.6875,-13.5625,20.8750,259.6875,20.1250,-154.8125,0
223.850,9.2105,3.0670,0.5243,-0.1687,-0.0091,-0.0637,-56.4000,4.9500,23.2500,9.5313,1.6999,0.5722,0.0962,0.0434,0.0554,-68.7000,27.7500,-6.9000,3.4500,3.8300,-8.3700,0.1909,-0.1058,0.0382,-26.6875,-13.5625,20.8750,259.6875,20.1250,-154.8125,0
223.855,9.3278,3.1484,0.3376,-0.1100,-0.0141,-0.0477,-56.4000,4.9500,23.2500,9.5313,1.6999,0.5722,0.0962,0.0434,0.0554,-68.7000,27.7500,-6.9000,3.4500,3.8300,-8.3700,0.1876,-0.1233,0.0338,-26.6875,-13.5625,20.8750,259.6875,20.0625,-154.9375,0
223.861,9.3278,3.1484,0.3376,-0.1100,-0.0141,-0.0477,-56.4000,4.9500,23.2500,9.5457,1.5060,0.6728,0.0983,0.0597,0.0490,-68.2500,28.5000,-5.8500,3.4600,3.8100,-8.3800,0.1876,-0.1233,0.0338,-26.6875,-13.5625,20.8750,259.6875,20.0000,-155.0625,0
223.871,9.4451,3.1436,0.1820,-0.0112,-0.0402,-0.0330,-56.8500,4.6500,23.5500,9.5912,1.5443,0.7302,0.0746,0.0634,0.0538,-66.6000,29.1000,-5.2500,3.4000,3.7700,-8.3900,0.1756,-0.1276,0.0305,-26.6875,-13.5625,20.8750,259.6875,20.0000,-155.0625,0
223.881,9.5170,2.9975,0.1341,0.1029,-0.0477,-0.0181,-57.0000,4.0500,24.4500,9.6486,1.6424,0.8356,0.0434,0.0648,0.0501,-67.6500,28.3500,-6.0000,3.3600,3.7900,-8.3700,0.1571,-0.1189,0.0284,-26.6875,-13.5625,20.8750,259.7500,19.9375,-155.1875,0
223.885,9.5409,2.8706,-0.0287,0.1615,-0.0440,-0.0149,-57.0000,4.0500,24.4500,9.6486,1.6424,0.8356,0.0434,0.0648,0.0501,-67.6500,28.3500,-6.0000,3.3600,3.7900,-8.3700,0.1571,-0.1189,0.0284,-26.6875,-13.5625,20.8750,259.7500,19.9375,-155.1875,0
223.891,9.5409,2.8706,-0.0287,0.1615,-0.0440,-0.0149,-56.5500,6.0000,22.8000,9.6247,1.6735,0.9984,0.0288,0.0501,0.0522,-67.6500,28.3500,-6.0000,3.3300,3.8800,-8.3800,0.1364,-0.1036,0.0262,-26.6875,-14.0000,20.0625,259.7500,19.8750,-155.2500,0
223.895,9.5361,2.8060,0.0263,0.1484,-0.0450,-0.0200,-56.5500,6.0000,22.8000,9.6199,1.7262,0.8930,0.0288,0.0501,0.0522,-67.6500,28.3500,-6.0000,3.3300,3.8800,-8.3800,0.1364,-0.1036,0.0262,-26.6875,-14.0000,20.0625,259.7500,19.8750,-155.2500,0
223.900,9.5361,2.8060,0.0263,0.1484,-0.0450,-0.0200,-55.8000,4.0500,24.9000,9.6199,1.7262,0.8930,0.0125,0.0493,0.0554,-69.1500,29.1000,-6.4500,3.3400,3.9200,-8.4200,0.1222,-0.0720,0.0273,-26.6875,-14.0000,20.0625,259.7500,19.8750,-155.3125,0
223.905,9.4571,2.6480,0.1030,0.0831,-0.0453,-0.0200,-55.8000,4.0500,24.9000,9.5170,1.9321,1.0319,0.0125,0.0493,0.0554,-69.1500,29.1000,-6.4500,3.3400,3.9200,-8.4200,0.1069,-0.0491,0.0262,-26.6875,-14.0000,20.0625,259.7500,19.8125,-155.4375,0
223.911,9.4571,2.6480,0.1030,0.0831,-0.0453,-0.0200,-55.8000,4.0500,24.9000,9.5170,1.9321,1.0319,0.0128,0.0525,0.0568,-69.1500,29.1000,-6.4500,3.3300,3.8900,-8.4500,0.1069,-0.0491,0.0262,-26.6875,-14.0000,20.0625,259.7500,19.8125,-155.4375,0
223.919,9.3853,2.5498,0.2274,0.0069,-0.0498,-0.0197,-57.1500,3.9000,24.0000,9.5098,1.8148,1.0391,0.0221,0.0581,0.0474,-69.1500,29.5500,-6.7500,3.3400,3.9600,-8.3800,0.0916,-0.0273,0.0273,-26.6875,-14.0000,20.0625,259.7500,19.8125,-155.4375,0
223.924,9.3948,2.5283,0.3136,-0.0693,-0.0488,-0.0168,-57.1500,3.9000,24.0000,9.5098,1.8148,1.0391,0.0221,0.0581,0.0474,-69.1500,29.5500,-6.7500,3.3400,3.9600,-8.3800,0.0916,-0.0273,0.0273,-26.6875,-14.0000,20.0625,259.7500,19.8125,-155.5000,0
223.932,9.3996,2.4708,0.4142,-0.1292,-0.0424,-0.0131,-56.8500,4.9500,23.5500,9.4739,1.6951,0.9074,0.0370,0.0605,0.0394,-68.8500,30.6000,-5.7000,3.3400,3.9700,-8.3800,0.0894,-0.0185,0.0262,-26.6875,-14.0000,20.0625,259.7500,19.8125,-155.5000,0
223.936,9.3996,2.4708,0.4142,-0.1292,-0.0424,-0.0131,-56.5500,4.0500,24.9000,9.5912,1.4605,1.2522,0.0242,0.0474,0.0416,-68.8500,30.6000,-5.7000,3.3400,3.9700,-8.3800,0.0894,-0.0185,0.0262,-27.0000,-13.5625,20.5000,259.8125,19.8125,-155.5625,0
223.941,9.2727,2.4253,0.4262,-0.1639,-0.0261,0.0024,-56.5500,4.0500,24.9000,9.5912,1.4605,1.2522,0.0242,0.0474,0.0416,-67.3500,30.6000,-6.0000,3.3200,3.9300,-8.3900,0.0927,-0.0142,0.0273,-27.0000,-13.5625,20.5000,259.8125,19.8125,-155.5625,0
223.946,9.2727,2.4253,0.4262,-0.1639,-0.0261,0.0024,-57.3000,5.5500,24.4500,9.6175,1.5012,1.0487,-0.0104,0.0320,0.0389,-67.3500,30.6000,-6.0000,3.3200,3.9300,-8.3900,0.0927,-0.0142,0.0273,-27.0000,-13.5625,20.5000,259.8125,19.8125,-155.6250,0
223.951,9.2847,2.3750,0.4214,-0.1916,-0.0133,0.0045,-57.3000,5.5500,24.4500,9.6175,1.5012,1.0487,-0.0104,0.0320,0.0389,-68.7000,30.0000,-5.5500,3.3700,3.8200,-8.4200,0.1025,-0.0120,0.0284,-27.0000,-13.5625,20.5000,259.8125,19.8125,-155.6250,0
223.956,9.2847,2.3750,0.4214,-0.1916,-0.0133,0.0045,-57.0000,5.2500,24.1500,9.6893,1.6951,1.0822,-0.0218,0.0386,0.0389,-68.7000,30.0000,-5.5500,3.3700,3.8200,-8.4200,0.1047,-0.0033,0.0316,-27.0000,-13.5625,20.5000,259.8125,19.8125,-155.6875,0
223.962,9.3948,2.4804,0.4118,-0.1927,0.0139,0.0115,-57.0000,5.2500,24.1500,9.6893,1.6951,1.0822,-0.0218,0.0386,0.0389,-68.1000,29.8500,-5.7000,3.4000,3.7700,-8.4700,0.1047,-0.0033,0.0316,-27.0000,-13.5625,20.5000,259.8125,19.8125,-155.6875,0
223.971,9.3134,2.5019,0.4214,-0.1775,0.0234,0.0195,-57.0000,5.2500,24.1500,9.5433,1.6448,1.1157,-0.0128,0.0229,0.0376,-70.2000,28.5000,-6.9000,3.3800,3.7700,-8.4200,0.0993,-0.0011,0.0295,-27.0000,-13.5625,20.5000,259.8125,19.8125,-155.7500,0
223.975,9.3134,2.5019,0.4214,-0.1775,0.0234,0.0195,-57.0000,5.5500,23.8500,9.5553,1.7645,1.0223,-0.0195,0.0234,0.0336,-70.2000,28.5000,-6.9000,3.3800,3.7700,-8.4200,0.0862,0.0098,0.0316,-27.0000,-13.5625,20.5000,259.8125,19.8750,-155.8125,0
223.982,9.3063,2.4876,0.4573,-0.1330,0.0208,0.0131,-57.0000,5.5500,23.8500,9.5553,1.7645,1.0223,-0.0195,0.0234,0.0336,-70.2000,28.5000,-6.9000,3.3700,3.7700,-8.4300,0.0862,0.0098,0.0316,-27.0000,-13.5625,20.5000,259.8125,19.8750,-155.8125,0
223.986,9.3063,2.4876,0.4573,-0.1330,0.0208,0.0131,-56.8500,5.7000,24.0000,9.5217,1.8579,1.1061,-0.0165,0.0144,0.0400,-70.2000,28.5000,-6.9000,3.3700,3.7700,-8.4300,0.0862,0.0098,0.0316,-27.0000,-13.5625,20.5000,259.8125,19.8750,-155.8750,0
223.991,9.4116,2.5953,0.4166,-0.0885,0.0088,0.0099,-56.8500,5.7000,24.0000,9.6079,1.7885,1.2378,-0.0165,0.0144,0.0400,-66.7500,31.2000,-5.5500,3.3900,3.8200,-8.4200,0.0753,0.0185,0.0295,-27.0000,-14.0000,20.5000,259.8125,19.8750,-155.8750,0
223.996,9.4116,2.5953,0.4166,-0.0885,0.0088,0.0099,-55.6500,4.2000,24.0000,9.6079,1.7885,1.2378,0.0107,0.0072,0.0304,-66.7500,31.2000,-5.5500,3.3900,3.8200,-8.4200,0.0753,0.0185,0.0295,-27.0000,-14.0000,20.5000,259.8125,19.8750,-155.8750,0
224.001,9.3039,2.5450,0.5746,-0.0853,0.0088,0.0077,-55.6500,4.2000,24.0000,9.6175,1.5083,1.0391,0.0107,0.0072,0.0304,-68.8500,29.1000,-5.7000,3.3800,3.9500,-8.4100,0.0654,0.0218,0.0273,-27.0000,-14.0000,20.5000,259.8125,19.8750,-155.8750,0
224.006,9.3039,2.5450,0.5746,-0.0853,0.0088,0.0077,-56.1000,4.9500,23.5500,9.6175,1.5083,1.0391,-0.0176,-0.0005,0.0304,-68.8500,29.1000,-5.7000,3.3800,3.9500,-8.4100,0.0665,0.0273,0.0218,-27.0000,-14.0000,20.5000,259.8125,19.8750,-155.9375,0
224.012,9.3158,2.6288,0.6871,-0.1061,0.0386,0.0115,-56.1000,4.9500,23.5500,9.6175,1.4461,1.2163,-0.0245,-0.0123,0.0269,-67.5000,29.7000,-5.8500,3.3800,3.8800,-8.4200,0.0665,0.0273,0.0218,-27.0000,-14.0000,20.5000,259.8125,19.8750,-155.9375,0
224.021,9.3470,2.6217,0.6823,-0.1098,0.0528,0.0213,-56.1000,4.9500,23.5500,9.6438,1.5179,0.9553,-0.0245,-0.0123,0.0269,-69.1500,29.5500,-5.7000,3.4000,3.8100,-8.4200,0.0665,0.0229,0.0207,-27.0000,-14.0000,20.5000,259.8125,19.9375,-156.0000,0
224.026,9.3470,2.6217,0.6823,-0.1098,0.0528,0.0213,-56.2500,5.5500,24.4500,9.6438,1.5179,0.9553,-0.0306,-0.0253,0.0176,-69.1500,29.5500,-5.7000,3.4000,3.8100,-8.4200,0.0611,0.0218,0.0196,-27.0000,-14.0000,20.5000,259.8125,19.9375,-156.0000,0
224.032,9.3901,2.7892,0.7422,-0.0799,0.0677,0.0384,-56.2500,5.5500,24.4500,9.5624,1.6783,0.9361,-0.0021,-0.0349,0.0176,-68.2500,29.2500,-5.8500,3.3800,3.8200,-8.4300,0.0611,0.0218,0.0196,-27.0000,-14.0000,20.5000,259.8125,19.9375,-156.0000,0
224.037,9.3901,2.7892,0.7422,-0.0799,0.0677,0.0384,-57.4500,4.2000,23.5500,9.5624,1.6783,0.9361,-0.0021,-0.0349,0.0176,-68.2500,29.2500,-5.8500,3.3800,3.8200,-8.4300,0.0502,0.0262,0.0153,-27.0000,-14.0000,20.5000,259.8125,19.9375,-156.0625,0
224.042,9.4308,2.9449,0.6560,-0.0317,0.0749,0.0565,-57.4500,4.2000,23.5500,9.5026,1.6209,1.1372,0.0234,-0.0149,0.0192,-68.7000,30.9000,-6.6000,3.3900,3.6900,-8.4800,0.0502,0.0262,0.0153,-27.0000,-14.0000,20.5000,259.8125,19.9375,-156.0625,0
224.047,9.4308,2.9449,0.6560,-0.0317,0.0749,0.0565,-57.1500,4.2000,24.0000,9.5026,1.6209,1.1372,0.0234,-0.0149,0.0192,-68.7000,30.9000,-6.6000,3.3900,3.6900,-8.4800,0.0502,0.0262,0.0153,-27.0000,-14.0000,20.5000,259.8125,20.0000,-156.0625,0
224.052,9.4188,3.0047,0.5195,-0.0011,0.0584,0.0733,-57.1500,4.2000,24.0000,9.5313,1.6448,1.2617,0.0059,-0.0221,0.0115,-68.7000,30.9000,-6.6000,3.3900,3.7200,-8.4700,0.0502,0.0262,0.0153,-27.0000,-14.0000,20.5000,259.8125,20.0000,-156.0625,0
224.057,9.4188,3.0047,0.5195,-0.0011,0.0584,0.0733,-56.2500,4.0500,23.1000,9.5313,1.6448,1.2617,0.0059,-0.0221,0.0115,-68.7000,30.9000,-6.6000,3.3900,3.7200,-8.4700,0.0305,0.0404,0.0175,-27.0000,-14.0000,20.5000,259.8125,20.0000,-156.0625,0
224.062,9.4834,2.8587,0.4812,-0.0043,0.0501,0.0818,-56.2500,4.0500,23.1000,9.5505,1.7549,1.2665,-0.0101,-0.0373,0.0160,-68.1000,30.6000,-5.2500,3.4000,3.7300,-8.4500,0.0305,0.0404,0.0175,-27.0000,-14.0000,20.5000,259.8125,20.0000,-156.0625,0
224.071,9.3518,2.7318,0.5890,-0.0144,0.0544,0.0794,-57.1500,5.4000,24.3000,9.4403,1.6783,1.2761,-0.0341,-0.0488,0.0131,-68.1000,30.6000,-5.2500,3.4500,3.8100,-8.4200,0.0076,0.0545,0.0142,-27.0000,-14.0000,20.5000,259.8125,20.0000,-156.0625,0
224.077,9.2273,2.7701,0.5578,-0.0514,0.0589,0.0938,-57.1500,5.4000,24.3000,9.4403,1.6783,1.2761,-0.0341,-0.0488,0.0131,-68.1000,30.6000,-5.2500,3.4700,3.9000,-8.3700,0.0055,0.0480,0.0153,-27.0000,-14.0000,20.5000,259.8125,20.0625,-156.0625,0
224.082,9.2273,2.7701,0.5578,-0.0514,0.0589,0.0938,-57.1500,5.4000,24.3000,9.4164,1.6688,1.1971,-0.0381,-0.0653,0.0117,-70.8000,29.5500,-5.2500,3.4700,3.9000,-8.3700,0.0055,0.0480,0.0153,-27.0000,-14.0000,20.5000,259.8125,20.0625,-156.0625,0
224.087,9.1937,2.7246,0.6919,-0.0775,0.0578,0.1013,-58.6500,4.9500,23.2500,9.4164,1.6688,1.1971,-0.0381,-0.0653,0.0117,-70.8000,29.5500,-5.2500,3.4800,3.8300,-8.3600,0.0055,0.0393,0.0120,-26.6875,-12.8750,20.5000,259.8750,20.0625,-156.0625,0
224.092,9.1937,2.7246,0.6919,-0.0775,0.0578,0.1013,-58.6500,4.9500,23.2500,9.4116,1.5395,1.0750,-0.0218,-0.0677,0.0053,-69.6000,30.6000,-6.4500,3.4800,3.8300,-8.3600,0.0055,0.0393,0.0120,-26.6875,-12.8750,20.5000,259.8750,20.0625,-156.0625,0
224.097,9.2799,2.7246,0.7590,-0.0909,0.0882,0.1191,-57.0000,6.0000,23.8500,9.4116,1.5395,1.0750,-0.0218,-0.0677,0.0053,-69.6000,30.6000,-6.4500,3.4900,3.7600,-8.4000,0.0098,0.0207,0.0109,-26.6875,-12.8750,20.5000,259.8750,20.1250,-156.0625,0
224.102,9.2799,2.7246,0.7590,-0.0909,0.0882,0.1191,-57.0000,6.0000,23.8500,9.4188,1.5754,0.9984,0.0011,-0.0703,0.0053,-69.7500,28.5000,-6.9000,3.4900,3.7600,-8.4000,0.0098,0.0207,0.0109,-26.6875,-12.8750,20.5000,259.8750,20.1250,-156.0625,0
224.107,9.2584,2.8563,0.6632,-0.0671,0.1090,0.1412,-56.5500,6.3000,23.4000,9.3925,1.6879,1.1157,0.0011,-0.0703,0.0053,-69.7500,28.5000,-6.9000,3.4900,3.7600,-8.4000,0.0055,0.0065,0.0087,-26.6875,-12.8750,20.5000,259.8750,20.1250,-156.0625,0
224.112,9.2584,2.8563,0.6632,-0.0671,0.1090,0.1412,-57.0000,5.2500,23.4000,9.3925,1.6879,1.1157,0.0248,-0.0690,0.0019,-67.6500,29.5500,-6.7500,3.4800,3.7200,-8.4500,0.0055,0.0065,0.0087,-26.6875,-12.8750,20.5000,259.8750,20.1250,-156.0625,0
224.121,9.2273,2.8922,0.5962,-0.0346,0.1372,0.1354,-57.0000,5.2500,23.4000,9.4451,1.8627,0.9409,0.0061,-0.0749,0.0061,-67.6500,29.5500,-6.7500,3.4700,3.7400,-8.4400,-0.0022,-0.0033,0.0065,-26.6875,-12.8750,20.5000,259.8750,20.1250,-156.0625,0
224.127,9.3733,2.8299,0.4788,0.0253,0.1407,0.1412,-57.0000,5.2500,23.4000,9.6079,1.7526,0.9577,0.0061,-0.0749,0.0061,-67.6500,29.5500,-6.7500,3.4700,3.7400,-8.4400,-0.0033,-0.0120,0.0044,-26.6875,-12.8750,20.5000,259.8750,20.1250,-156.0625,0
224.132,9.3733,2.8299,0.4788,0.0253,0.1407,0.1412,-57.0000,5.2500,23.4000,9.6079,1.7526,0.9577,0.0080,-0.0655,0.0027,-69.4500,30.4500,-5.5500,3.4600,3.7900,-8.4300,-0.0033,-0.0120,0.0044,-26.6875,-12.8750,20.5000,259.8750,20.1250,-156.0625,0
224.137,9.4571,2.8347,0.3663,0.0679,0.1252,0.1450,-57.0000,5.2500,23.4000,9.6965,1.7023,0.7063,-0.0280,-0.0778,0.0003,-69.4500,30.4500,-5.5500,3.4300,3.8400,-8.3700,-0.0022,-0.0142,0.0033,-27.3750,-13.5625,20.5000,259.8750,20.0625,-156.0625,0
224.142,9.4571,2.8347,0.3663,0.0679,0.1252,0.1450,-56.4000,3.4500,23.5500,9.6965,1.7023,0.7063,-0.0280,-0.0778,0.0003,-69.4500,30.4500,-5.5500,3.4300,3.8400,-8.3700,-0.0022,-0.0142,0.0033,-27.3750,-13.5625,20.5000,259.8750,20.0625,-156.0625,0
224.151,9.4667,2.6719,0.3926,0.0943,0.1039,0.1556,-56.4000,3.4500,23.5500,9.4978,1.6592,0.7638,-0.0314,-0.0791,-0.0008,-69.1500,28.6500,-6.0000,3.3800,3.8600,-8.4400,0.0033,-0.0087,0.0033,-27.3750,-13.5625,20.5000,259.8750,20.0625,-156.0625,0
224.159,9.4954,2.5690,0.5626,0.0858,0.1071,0.1567,-56.4000,3.9000,23.2500,9.5984,1.7334,0.6800,-0.0389,-0.0754,0.0043,-69.1500,28.6500,-6.0000,3.3900,3.7800,-8.4500,0.0044,0.0033,0.0022,-27.3750,-13.5625,20.5000,259.8750,20.0625,-156.0625,0
224.163,9.4954,2.5690,0.5626,0.0858,0.1071,0.1567,-56.2500,4.5000,24.9000,9.5984,1.7334,0.6800,-0.0389,-0.0754,0.0043,-68.4000,29.5500,-5.7000,3.3900,3.7800,-8.4500,0.0044,0.0033,0.0022,-27.3750,-13.5625,20.5000,259.8750,20.0625,-156.0625,0
224.171,9.4810,2.5929,0.5267,0.0962,0.0973,0.1553,-57.1500,4.2000,24.3000,9.5050,1.7957,0.9553,-0.0043,-0.0746,-0.0043,-69.6000,29.5500,-6.0000,3.4000,3.7900,-8.4700,0.0011,0.0076,0.0022,-27.3750,-13.5625,20.5000,259.8750,20.0625,-156.0625,0
224.181,9.5361,2.5498,0.5818,0.1079,0.0874,0.1487,-57.1500,4.2000,24.3000,9.4715,1.7885,1.0223,0.0328,-0.0597,-0.0085,-68.4000,29.5500,-6.4500,3.4000,3.8000,-8.4300,-0.0033,0.0076,0.0065,-27.3750,-13.5625,20.5000,259.8750,20.0625,-156.0625,0
224.186,9.4332,2.5905,0.5986,0.0895,0.0813,0.1388,-57.1500,4.2000,24.3000,9.5074,1.5538,0.9720,0.0306,-0.0613,-0.0059,-68.4000,29.5500,-6.4500,3.4000,3.8000,-8.4300,-0.0076,0.0065,0.0065,-27.0000,-14.3750,20.0625,259.8750,20.0625,-156.0625,0
224.192,9.4332,2.5905,0.5986,0.0895,0.0813,0.1388,-56.8500,4.9500,23.5500,9.5074,1.5538,0.9720,0.0306,-0.0613,-0.0059,-67.6500,28.6500,-6.4500,3.4600,3.7700,-8.4100,-0.0076,0.0065,0.0065,-27.0000,-14.3750,20.0625,259.8750,20.0625,-156.0625,0
224.201,9.3733,2.5738,0.5411,0.0637,0.0746,0.1359,-55.5000,4.0500,25.2000,9.4715,1.5802,0.7685,-0.0019,-0.0703,0.0021,-68.7000,30.4500,-5.8500,3.4700,3.7600,-8.4100,-0.0120,0.0087,0.0033,-27.0000,-14.3750,20.0625,259.8750,20.0625,-156.0625,0
224.207,9.3254,2.6097,0.5578,0.0360,0.0775,0.1402,-55.5000,4.0500,25.2000,9.4571,1.7119,0.8140,-0.0149,-0.0821,-0.0027,-68.7000,30.4500,-5.8500,3.4300,3.8400,-8.3900,-0.0120,0.0065,0.0044,-27.0000,-14.3750,20.0625,259.8750,20.0625,-156.0625,0
224.212,9.2895,2.5953,0.4381,0.0147,0.0898,0.1404,-55.5000,4.8000,23.8500,9.4571,1.7119,0.8140,-0.0149,-0.0821,-0.0027,-68.7000,30.4500,-5.8500,3.4300,3.8400,-8.3900,-0.0120,0.0065,0.0044,-27.0000,-14.3750,20.0625,259.8750,20.0625,-156.0625,0
224.221,9.2895,2.5953,0.4381,0.0147,0.0898,0.1404,-56.5500,4.5000,24.1500,9.3853,2.0351,0.6488,-0.0322,-0.0863,0.0029,-68.1000,29.5500,-6.7500,3.4200,3.8200,-8.4800,-0.0120,0.0076,0.0033,-27.0000,-14.3750,20.0625,259.8750,20.0625,-156.0625,0
224.228,9.2991,2.6001,0.4429,0.0051,0.0767,0.1346,-56.5500,4.5000,24.1500,9.3901,2.2410,0.7087,0.0101,-0.0719,0.0053,-68.1000,29.5500,-6.7500,3.4500,3.8200,-8.4200,-0.0098,0.0065,0.0044,-27.0000,-14.3750,20.0625,259.8750,20.0625,-156.0625,0
224.233,9.3685,2.7581,0.4980,0.0088,0.0794,0.1292,-55.8000,5.2500,23.8500,9.4595,2.1356,0.8523,0.0711,-0.0663,0.0019,-68.8500,30.3000,-4.5000,3.4500,3.8200,-8.4200,-0.0098,0.0065,0.0044,-27.0000,-14.3750,20.0625,259.8750,20.0625,-156.0625,0
224.238,9.3685,2.7581,0.4980,0.0088,0.0794,0.1292,-55.8000,5.2500,23.8500,9.4595,2.1356,0.8523,0.0711,-0.0663,0.0019,-68.8500,30.3000,-4.5000,3.4100,3.9100,-8.3600,-0.0098,0.0033,0.0033,-27.3750,-13.2500,20.0625,259.8750,20.1250,-156.0625,0
224.243,9.4284,2.7485,0.5986,0.0056,0.0919,0.1159,-55.8000,5.2500,23.8500,9.4858,1.8052,0.8595,0.0781,-0.0560,0.0093,-67.6500,29.8500,-5.7000,3.4100,3.9100,-8.3600,-0.0098,0.0033,0.0033,-27.3750,-13.2500,20.0625,259.8750,20.1250,-156.0625,0
224.251,9.4619,2.6217,0.6728,-0.0061,0.0914,0.1148,-55.6500,4.2000,25.3500,9.6654,1.6185,0.6153,0.0781,-0.0560,0.0093,-70.9500,29.2500,-5.8500,3.4700,3.8500,-8.3800,-0.0011,0.0033,0.0022,-27.3750,-13.2500,20.0625,259.8750,20.1250,-156.0625,0
224.258,9.4619,2.6217,0.6728,-0.0061,0.0914,0.1148,-55.6500,4.2000,25.3500,9.6654,1.6185,0.6153,0.0248,-0.0584,0.0131,-70.9500,29.2500,-5.8500,3.4100,3.8600,-8.3900,0.0033,-0.0022,-0.0011,-27.3750,-13.2500,20.0625,259.8750,20.1250,-156.0000,0
224.263,9.4834,2.6911,0.6991,-0.0072,0.0877,0.1124,-57.0000,4.8000,24.4500,9.5744,1.7669,0.5387,-0.0088,-0.0722,0.0091,-68.4000,29.5500,-5.7000,3.4100,3.8600,-8.3900,0.0033,-0.0022,-0.0011,-27.3750,-13.2500,20.0625,259.8750,20.1250,-156.0000,0
224.272,9.4451,2.7557,0.6895,0.0197,0.0834,0.1023,-55.8000,4.5000,25.2000,9.4068,1.8316,0.5124,0.0141,-0.0778,0.0109,-68.4000,29.8500,-6.4500,3.4100,3.8400,-8.4300,0.0011,0.0033,-0.0011,-27.3750,-13.2500,20.0625,259.8750,20.1250,-156.0000,0
224.279,9.4451,2.7557,0.6895,0.0197,0.0834,0.1023,-55.8000,4.5000,25.2000,9.4068,1.8316,0.5124,0.0141,-0.0778,0.0109,-68.4000,29.8500,-6.4500,3.3800,3.7500,-8.4100,-0.0022,0.0120,-0.0011,-27.3750,-13.2500,20.0625,259.8750,20.1250,-156.0000,0
224.284,9.4906,2.8299,0.6416,0.0821,0.0602,0.1018,-55.5000,4.5000,23.8500,9.4284,1.9225,0.5555,0.0562,-0.0695,0.0112,-68.4000,29.8500,-6.4500,3.3800,3.7500,-8.4100,-0.0022,0.0120,-0.0011,-27.3750,-13.2500,20.0625,259.8750,20.1250,-156.0000,0
224.288,9.4906,2.8299,0.6416,0.0821,0.0602,0.1018,-55.5000,4.5000,23.8500,9.4284,1.9225,0.5555,0.0562,-0.0695,0.0112,-68.4000,29.8500,-6.4500,3.4400,3.7800,-8.4400,-0.0065,0.0098,0.0011,-27.3750,-14.0000,20.0625,259.8750,20.1250,-156.0000,0
224.293,9.4978,2.8706,0.5291,0.1428,0.0517,0.0911,-55.5000,4.5000,23.8500,9.3063,1.9632,0.6321,0.0885,-0.0464,0.0120,-68.2500,31.2000,-4.3500,3.4400,3.7800,-8.4400,-0.0065,0.0098,0.0011,-27.3750,-14.0000,20.0625,259.8750,20.1250,-156.0000,0
224.301,9.3446,2.8730,0.4836,0.1761,0.0229,0.0765,-55.2000,4.8000,25.6500,9.4044,1.9944,0.7207,0.0608,-0.0450,0.0229,-68.2500,31.2000,-4.3500,3.4800,3.7500,-8.4200,-0.0109,0.0065,0.0000,-27.3750,-14.0000,20.0625,259.8750,20.1250,-156.0000,0
224.310,9.3422,2.8706,0.4693,0.2092,0.0139,0.0650,-55.5000,6.0000,23.8500,9.3948,1.9896,0.8667,0.0610,-0.0485,0.0157,-68.1000,31.0500,-4.3500,3.4700,3.7800,-8.4000,-0.0087,0.0022,0.0022,-27.3750,-14.0000,20.0625,259.8750,20.1250,-156.0000,0
224.315,9.3422,2.8706,0.4693,0.2092,0.0139,0.0650,-55.5000,6.0000,23.8500,9.3948,1.9896,0.8667,0.0610,-0.0485,0.0157,-68.1000,31.0500,-5.2500,3.4700,3.7800,-8.4000,-0.0087,0.0022,0.0022,-27.3750,-14.0000,20.0625,259.8750,20.1250,-156.0000,0
224.322,9.3015,2.7031,0.5626,0.2108,0.0029,0.0701,-55.6500,4.9500,24.0000,9.4858,1.8986,0.7207,0.0274,-0.0453,0.0266,-68.2500,29.7000,-5.5500,3.4700,3.9100,-8.3700,0.0033,-0.0033,0.0000,-27.3750,-14.0000,20.0625,259.8750,20.1250,-156.0000,0
224.331,9.3996,2.7031,0.6871,0.1961,0.0021,0.0655,-56.4000,5.7000,24.7500,9.4763,1.8531,0.6728,-0.0043,-0.0386,0.0349,-70.0500,29.5500,-5.7000,3.4300,3.8400,-8.3600,0.0087,-0.0098,-0.0022,-27.3750,-14.0000,20.0625,259.8750,20.1250,-156.0000,0
224.336,9.3996,2.7031,0.6871,0.1961,0.0021,0.0655,-56.4000,5.7000,24.7500,9.4763,1.8531,0.6728,-0.0043,-0.0386,0.0349,-70.0500,29.5500,-5.7000,3.4300,3.8400,-8.3600,0.0120,-0.0098,-0.0022,-27.3750,-13.2500,20.5000,259.8750,20.1250,-156.0000,0
224.342,9.3781,2.6264,0.8380,0.1753,-0.0080,0.0669,-55.3500,4.2000,24.3000,9.4715,2.0375,0.6871,0.0123,-0.0445,0.0282,-68.8500,30.3000,-7.9500,3.4800,3.8400,-8.3900,0.0120,-0.0098,-0.0022,-27.3750,-13.2500,20.5000,259.8750,20.1250,-156.0000,0
224.351,9.3972,2.5714,1.0127,0.1604,-0.0003,0.0733,-55.3500,4.2000,24.3000,9.4786,1.9393,0.7207,0.0626,-0.0336,0.0203,-68.8500,29.5500,-6.0000,3.4000,3.8500,-8.4200,0.0131,-0.0065,-0.0076,-27.3750,-13.2500,20.5000,259.8750,20.1250,-156.0000,0
224.358,9.4763,2.5019,0.9601,0.1591,0.0211,0.0717,-55.3500,4.2000,24.3000,9.5624,1.6424,0.8212,0.0927,-0.0360,0.0197,-68.8500,29.5500,-6.0000,3.4500,3.8000,-8.4300,0.0207,-0.0087,-0.0033,-27.3750,-13.2500,20.5000,259.8750,20.1250,-156.0000,0
224.363,9.4763,2.5019,0.9601,0.1591,0.0211,0.0717,-56.5500,4.5000,23.4000,9.5624,1.6424,0.8212,0.0927,-0.0360,0.0197,-68.7000,30.0000,-6.9000,3.4500,3.8000,-8.4300,0.0207,-0.0087,-0.0033,-27.3750,-13.2500,20.5000,259.8750,20.1250,-156.0625,0
224.372,9.5720,2.4780,0.9122,0.1719,0.0288,0.0722,-56.4000,4.9500,22.9500,9.6151,1.5155,1.0367,0.0997,-0.0349,0.0160,-68.7000,30.0000,-6.9000,3.3800,3.8500,-8.3900,0.0240,-0.0087,-0.0076,-27.3750,-13.2500,20.5000,259.8750,20.1250,-156.0625,0
224.379,9.5792,2.4876,0.8667,0.2148,0.0181,0.0765,-55.8000,4.8000,24.9000,9.7109,1.4724,0.9984,0.0488,-0.0616,0.0195,-68.7000,30.0000,-6.9000,3.4300,3.7700,-8.4700,0.0305,-0.0098,-0.0022,-27.3750,-13.2500,20.5000,259.8125,20.1250,-156.0625,0
224.384,9.5792,2.4876,0.8667,0.2148,0.0181,0.0765,-55.8000,4.8000,24.9000,9.7109,1.4724,0.9984,0.0488,-0.0616,0.0195,-69.1500,29.5500,-4.5000,3.4300,3.7700,-8.4700,0.0305,-0.0098,-0.0022,-27.3750,-13.2500,20.5000,259.8125,20.1250,-156.0625,0
224.389,9.6055,2.4134,0.8140,0.2577,0.0072,0.0858,-55.3500,4.2000,22.9500,9.6774,1.8292,0.9122,0.0000,-0.0898,0.0179,-69.1500,29.5500,-4.5000,3.4200,3.7900,-8.4300,0.0316,-0.0087,-0.0011,-27.0000,-12.5625,21.2500,259.8125,20.1250,-156.0625,0
224.394,9.6055,2.4134,0.8140,0.2577,0.0072,0.0858,-55.3500,4.2000,22.9500,9.6774,1.8292,0.9122,0.0000,-0.0898,0.0179,-69.4500,30.0000,-6.1500,3.4200,3.7900,-8.4300,0.0316,-0.0087,-0.0011,-27.0000,-12.5625,21.2500,259.8125,20.1250,-156.0625,0
224.399,9.5912,2.3032,0.7757,0.2968,-0.0144,0.0842,-55.3500,4.2000,22.9500,9.5002,2.1404,0.6871,0.0504,-0.1015,0.0240,-69.4500,30.0000,-6.1500,3.4100,3.8300,-8.4200,0.0262,-0.0087,-0.0033,-27.0000,-12.5625,21.2500,259.8125,20.1250,-156.0625,0
224.404,9.5912,2.3032,0.7757,0.2968,-0.0144,0.0842,-55.3500,4.2000,22.9500,9.5002,2.1404,0.6871,0.0504,-0.1015,0.0240,-69.4500,29.2500,-8.4000,3.4100,3.8300,-8.4200,0.0262,-0.0087,-0.0033,-27.0000,-12.5625,21.2500,259.8125,20.1250,-156.0625,0
224.409,9.5696,2.3822,0.8308,0.3056,-0.0418,0.0829,-54.9000,5.7000,22.9500,9.5337,2.1069,0.6416,0.1114,-0.0997,0.0245,-69.4500,29.2500,-8.4000,3.4300,3.7900,-8.4600,0.0229,-0.0109,-0.0033,-27.0000,-12.5625,21.2500,259.8125,20.1250,-156.1250,0
224.414,9.5696,2.3822,0.8308,0.3056,-0.0418,0.0829,-54.9000,5.7000,22.9500,9.5337,2.1069,0.6416,0.1114,-0.0997,0.0245,-68.4000,30.6000,-5.2500,3.4300,3.7900,-8.4600,0.0229,-0.0109,-0.0033,-27.0000,-12.5625,21.2500,259.8125,20.1250,-156.1250,0
224.422,9.5433,2.3439,0.7398,0.3296,-0.0378,0.0725,-55.8000,6.0000,23.4000,9.4834,1.7166,0.7757,0.1548,-0.0919,0.0258,-68.8500,31.0500,-6.7500,3.3900,3.8800,-8.4300,0.0185,-0.0044,-0.0055,-27.0000,-12.5625,21.2500,259.8125,20.1250,-156.1250,0
224.430,9.5888,2.3559,0.7973,0.3483,-0.0488,0.0693,-55.5000,5.5500,22.0500,9.5624,1.5275,0.9481,0.1210,-0.1077,0.0160,-68.8500,31.0500,-6.7500,3.3800,3.8200,-8.4400,0.0229,-0.0022,-0.0055,-27.0000,-12.5625,21.2500,259.8125,20.1250,-156.1250,0
224.435,9.5074,2.2936,0.9170,0.3656,-0.0674,0.0512,-55.5000,5.5500,22.0500,9.6175,1.5850,0.7973,0.0762,-0.1210,0.0301,-68.8500,29.5500,-5.7000,3.3800,3.8200,-8.4400,0.0229,-0.0022,-0.0055,-27.0000,-12.5625,21.2500,259.8125,20.1250,-156.1250,0
224.440,9.5074,2.2936,0.9170,0.3656,-0.0674,0.0512,-55.2000,4.8000,22.3500,9.6175,1.5850,0.7973,0.0762,-0.1210,0.0301,-68.8500,29.5500,-5.7000,3.4100,3.7700,-8.4600,0.0229,-0.0033,-0.0065,-27.0000,-13.5625,21.6875,259.8125,20.1250,-156.1250,0
224.445,9.4858,2.3080,0.9409,0.3792,-0.0592,0.0496,-55.2000,4.8000,22.3500,9.6271,1.6161,0.8691,0.0474,-0.1340,0.0269,-68.8500,29.5500,-5.7000,3.4100,3.7700,-8.4600,0.0229,-0.0033,-0.0065,-27.0000,-13.5625,21.6875,259.8125,20.1250,-156.1250,0
224.450,9.4858,2.3080,0.9409,0.3792,-0.0592,0.0496,-54.7500,5.5500,24.1500,9.6271,1.6161,0.8691,0.0474,-0.1340,0.0269,-68.8500,29.5500,-5.7000,3.4100,3.8100,-8.4100,0.0153,-0.0022,0.0000,-27.0000,-13.5625,21.6875,259.8125,20.1250,-156.1250,0
224.455,9.4332,2.1979,0.9457,0.3672,-0.0456,0.0488,-54.7500,5.5500,24.1500,9.4475,1.7549,0.9385,0.0600,-0.1428,0.0234,-68.2500,30.0000,-5.8500,3.4100,3.8100,-8.4100,0.0153,-0.0022,0.0000,-27.0000,-13.5625,21.6875,259.8125,20.1250,-156.1250,0
224.462,9.4332,2.1979,0.9457,0.3672,-0.0456,0.0488,-54.7500,5.5500,24.1500,9.4475,1.7549,0.9385,0.0600,-0.1428,0.0234,-68.2500,30.0000,-5.8500,3.4100,3.8100,-8.4200,0.0142,-0.0022,-0.0055,-27.0000,-13.5625,21.6875,259.8125,20.1250,-156.1250,0
224.470,9.4547,2.1811,0.8715,0.3493,-0.0554,0.0488,-55.5000,6.0000,23.4000,9.4739,1.8435,1.0223,0.0677,-0.1545,0.0280,-68.2500,30.0000,-5.8500,3.4500,3.7400,-8.4200,0.0142,-0.0044,-0.0022,-27.0000,-13.5625,21.6875,259.8125,20.1250,-156.1250,0
224.475,9.4212,2.1715,0.7781,0.3176,-0.0578,0.0517,-55.5000,6.0000,23.4000,9.6079,1.8771,0.9050,0.0799,-0.1583,0.0346,-68.8500,30.3000,-7.2000,3.4500,3.7400,-8.4200,0.0142,-0.0044,-0.0022,-27.0000,-13.5625,21.6875,259.8125,20.1250,-156.1875,0
224.482,9.4212,2.1715,0.7781,0.3176,-0.0578,0.0517,-54.7500,6.0000,22.8000,9.6151,1.9800,0.7877,0.0799,-0.1583,0.0346,-69.1500,28.6500,-5.7000,3.4600,3.7700,-8.4100,0.0142,-0.0087,-0.0011,-27.0000,-13.5625,21.6875,259.8125,20.1250,-156.1875,0
224.487,9.4739,2.1644,0.8380,0.3043,-0.0717,0.0560,-55.5000,5.2500,22.3500,9.6151,1.9800,0.7877,0.0821,-0.1761,0.0314,-69.1500,28.6500,-5.7000,3.4600,3.7700,-8.4100,0.0131,-0.0120,-0.0055,-27.3750,-13.5625,20.0625,259.8125,20.1250,-156.1875,0
224.492,9.5409,2.2146,0.7949,0.2856,-0.1018,0.0554,-55.5000,5.2500,22.3500,9.6319,1.9130,0.7518,0.0759,-0.1799,0.0301,-69.6000,29.1000,-7.5000,3.4200,3.8400,-8.3700,0.0131,-0.0120,-0.0055,-27.3750,-13.5625,20.0625,259.8125,20.1250,-156.1875,0
224.502,9.5409,2.2146,0.7949,0.2856,-0.1018,0.0554,-56.2500,4.5000,22.3500,9.6726,1.8028,0.7542,0.0914,-0.1889,0.0338,-69.6000,29.1000,-7.5000,3.4200,3.8400,-8.3900,0.0153,-0.0131,-0.0033,-27.3750,-13.5625,20.0625,259.8125,20.1250,-156.1875,0
224.508,9.5170,2.2913,0.8475,0.3035,-0.1005,0.0594,-56.2500,4.5000,22.3500,9.6726,1.8028,0.7542,0.0914,-0.1889,0.0338,-69.6000,31.0500,-7.2000,3.4200,3.8800,-8.4500,0.0185,-0.0142,-0.0055,-27.3750,-13.5625,20.0625,259.8125,20.1250,-156.1875,0
224.513,9.4810,2.3990,0.9050,0.3158,-0.0879,0.0671,-56.2500,4.5000,22.3500,9.7252,1.6568,0.7829,0.0847,-0.2030,0.0405,-69.6000,31.0500,-7.2000,3.4200,3.8800,-8.4500,0.0185,-0.0142,-0.0055,-27.3750,-13.5625,20.0625,259.8125,20.1250,-156.1875,0
224.522,9.6175,2.4517,0.8811,0.3368,-0.0831,0.0711,-56.2500,4.5000,22.3500,9.6822,1.5993,0.8188,0.0919,-0.2129,0.0381,-69.6000,31.0500,-7.2000,3.3900,3.7800,-8.4600,0.0175,-0.0109,-0.0022,-27.3750,-13.5625,20.0625,259.8125,20.0625,-156.1875,0
224.526,9.6175,2.4517,0.8811,0.3368,-0.0831,0.0711,-55.5000,6.7500,24.4500,9.6822,1.5993,0.8188,0.0919,-0.2129,0.0381,-69.6000,30.3000,-7.5000,3.3900,3.7800,-8.4600,0.0098,-0.0022,-0.0033,-27.3750,-13.5625,20.0625,259.8125,20.0625,-156.1875,0
224.533,9.5433,2.5498,0.9170,0.3706,-0.0866,0.0794,-55.5000,6.7500,24.4500,9.6869,1.5155,0.9074,0.1023,-0.2257,0.0306,-69.6000,30.3000,-7.5000,3.3900,3.7500,-8.4400,0.0098,-0.0022,-0.0033,-27.3750,-13.5625,20.0625,259.8125,20.0625,-156.1875,0
224.538,9.5433,2.5498,0.9170,0.3706,-0.0866,0.0794,-55.8000,6.7500,22.8000,9.6869,1.5155,0.9074,0.1023,-0.2257,0.0306,-69.6000,30.3000,-7.5000,3.4100,3.7500,-8.4600,0.0011,0.0076,0.0011,-27.3750,-13.2500,20.0625,259.8125,20.0625,-156.1875,0
224.543,9.5624,2.4014,0.9385,0.3741,-0.0850,0.0746,-55.8000,6.7500,22.8000,9.6822,1.4676,0.8571,0.1111,-0.2284,0.0344,-68.4000,30.3000,-7.5000,3.4100,3.7500,-8.4600,0.0011,0.0076,0.0011,-27.3750,-13.2500,20.0625,259.8125,20.1250,-156.1875,0
224.552,9.4427,2.3104,0.9433,0.3640,-0.0746,0.0917,-55.2000,7.0500,23.1000,9.5864,1.6903,0.9385,0.1274,-0.2539,0.0253,-68.4000,30.3000,-7.5000,3.4400,3.6800,-8.5100,-0.0098,0.0153,0.0022,-27.3750,-13.2500,20.0625,259.8125,20.1250,-156.1875,0
224.560,9.4427,2.3104,0.9433,0.3640,-0.0746,0.0917,-54.7500,6.3000,22.8000,9.5624,2.0111,0.8667,0.1439,-0.2830,0.0290,-69.0000,28.9500,-7.3500,3.4600,3.6600,-8.4800,-0.0240,0.0185,0.0022,-27.3750,-13.2500,20.0625,259.8125,20.1250,-156.1875,0
224.565,9.4284,2.2793,0.8140,0.3613,-0.0871,0.0943,-54.7500,6.3000,22.8000,9.5624,2.0111,0.8667,0.1439,-0.2830,0.0290,-69.7500,31.2000,-6.6000,3.4600,3.6600,-8.4800,-0.0240,0.0185,0.0022,-27.3750,-13.2500,20.0625,259.8125,20.1250,-156.1250,0
224.572,9.4403,2.3104,0.8045,0.3738,-0.1029,0.1002,-54.7500,6.3000,22.8000,9.6055,2.1739,0.8236,0.1865,-0.2982,0.0386,-69.7500,31.2000,-6.6000,3.4800,3.6800,-8.4200,-0.0338,0.0185,0.0000,-27.3750,-13.2500,20.0625,259.8125,20.1250,-156.1250,0
224.581,9.3350,2.4684,0.8691,0.3885,-0.1124,0.1183,-53.4000,6.3000,21.6000,9.4715,2.0279,0.7853,0.2188,-0.3171,0.0413,-68.8500,30.6000,-6.7500,3.4700,3.7400,-8.4300,-0.0404,0.0185,-0.0044,-27.3750,-13.2500,20.0625,259.8125,20.1250,-156.1250,0
224.585,9.3350,2.4684,0.8691,0.3885,-0.1124,0.1183,-54.0000,6.3000,22.8000,9.4715,2.0279,0.7853,0.2188,-0.3171,0.0413,-69.4500,30.9000,-8.4000,3.4700,3.7400,-8.4300,-0.0404,0.0185,-0.0044,-27.3750,-13.2500,20.0625,259.8125,20.1250,-156.1250,0
224.590,9.3925,2.5163,0.9601,0.3960,-0.1071,0.1282,-54.0000,6.3000,22.8000,9.5888,1.9417,0.7614,0.2558,-0.3275,0.0464,-69.4500,30.9000,-8.4000,3.4400,3.8200,-8.3800,-0.0436,0.0164,-0.0098,-27.3750,-13.5625,20.0625,259.8125,20.1250,-156.1250,0
224.595,9.3925,2.5163,0.9601,0.3960,-0.1071,0.1282,-54.3000,7.2000,22.2000,9.5888,1.9417,0.7614,0.2558,-0.3275,0.0464,-69.1500,30.3000,-7.9500,3.4400,3.8200,-8.3800,-0.0436,0.0164,-0.0098,-27.3750,-13.5625,20.0625,259.8125,20.1250,-156.1250,0
224.600,9.4978,2.5163,0.9529,0.4298,-0.0938,0.1487,-54.3000,7.2000,22.2000,9.6319,1.6807,0.7973,0.2657,-0.3472,0.0578,-69.1500,30.3000,-7.9500,3.4500,3.8100,-8.4000,-0.0415,0.0153,-0.0131,-27.3750,-13.5625,20.0625,259.8125,20.1250,-156.0625,0
224.605,9.4978,2.5163,0.9529,0.4298,-0.0938,0.1487,-54.0000,7.0500,21.6000,9.6319,1.6807,0.7973,0.2657,-0.3472,0.0578,-69.1500,30.3000,-7.9500,3.4500,3.8100,-8.4000,-0.0415,0.0153,-0.0131,-27.3750,-13.5625,20.0625,259.8125,20.1250,-156.0625,0
224.612,9.4834,2.5283,1.0630,0.4501,-0.0879,0.1631,-54.0000,7.0500,21.6000,9.6774,1.7478,0.5866,0.2515,-0.3648,0.0586,-69.1500,30.3000,-7.9500,3.4400,3.7600,-8.4400,-0.0425,0.0098,-0.0164,-27.3750,-13.5625,20.0625,259.8125,20.1250,-156.0625,0
224.621,9.4882,2.4349,1.1325,0.4690,-0.0850,0.1775,-56.4000,6.9000,21.4500,9.6726,1.8651,0.7398,0.2838,-0.3722,0.0626,-70.0500,30.3000,-7.2000,3.4600,3.7300,-8.4600,-0.0469,0.0120,-0.0185,-27.3750,-13.5625,20.0625,259.8125,20.1250,-156.0000,0
224.625,9.4882,2.4349,1.1325,0.4690,-0.0850,0.1775,-56.4000,6.9000,21.4500,9.6845,1.8818,0.6009,0.2838,-0.3722,0.0626,-69.4500,30.9000,-8.1000,3.4600,3.7300,-8.4600,-0.0469,0.0120,-0.0185,-27.3750,-13.5625,20.0625,259.8125,20.1250,-156.0000,0
224.633,9.3613,2.3822,1.1468,0.4916,-0.0791,0.1807,-56.4000,6.9000,21.4500,9.6845,1.8818,0.6009,0.3112,-0.3978,0.0562,-69.4500,30.9000,-8.1000,3.4500,3.7400,-8.4100,-0.0567,0.0153,-0.0196,-27.3750,-13.5625,20.0625,259.8125,20.1250,-156.0000,0
224.637,9.3613,2.3822,1.1468,0.4890,-0.0757,0.1833,-54.4500,7.8000,20.5500,9.6343,1.9417,0.5459,0.3341,-0.4085,0.0645,-69.7500,30.4500,-8.4000,3.4500,3.7400,-8.4100,-0.0633,0.0131,-0.0229,-27.0000,-13.2500,20.0625,259.8125,20.1250,-155.9375,0
224.643,9.4116,2.4397,1.1444,0.4890,-0.0757,0.1833,-54.4500,7.8000,20.5500,9.6343,1.9417,0.5459,0.3341,-0.4085,0.0645,-69.7500,30.4500,-8.4000,3.4400,3.7700,-8.4200,-0.0633,0.0131,-0.0229,-27.0000,-13.2500,20.0625,259.8125,20.1250,-155.9375,0
224.647,9.4523,2.4301,0.9984,0.5180,-0.0751,0.1831,-54.6000,5.4000,21.9000,9.7276,2.0710,0.4549,0.3784,-0.4234,0.0719,-70.5000,30.4500,-7.3500,3.4400,3.7700,-8.4200,-0.0698,0.0131,-0.0295,-27.0000,-13.2500,20.0625,259.8125,20.1250,-155.8750,0
224.653,9.4523,2.4301,0.9984,0.5180,-0.0751,0.1831,-55.3500,5.4000,21.9000,9.7276,2.0710,0.4549,0.3784,-0.4234,0.0719,-70.5000,30.4500,-7.3500,3.4600,3.7600,-8.4400,-0.0698,0.0131,-0.0295,-27.0000,-13.2500,20.0625,259.8125,20.1250,-155.8750,0
224.657,9.2991,2.5091,0.9074,0.5929,-0.0749,0.1855,-55.3500,6.9000,22.2000,9.6606,1.9465,0.3352,0.4077,-0.4391,0.0762,-68.4000,30.6000,-9.3000,3.4600,3.7600,-8.4400,-0.0742,0.0098,-0.0349,-27.0000,-13.2500,20.0625,259.7500,20.1250,-155.8125,0
224.663,9.2991,2.5091,0.9074,0.5929,-0.0749,0.1855,-56.1000,6.1500,21.1500,9.6606,1.9465,0.3352,0.4077,-0.4391,0.0762,-68.4000,30.6000,-9.3000,3.4200,3.8600,-8.4400,-0.0742,0.0098,-0.0349,-27.0000,-13.2500,20.0625,259.7500,20.1250,-155.8125,0
224.672,9.5026,2.4732,0.6967,0.6843,-0.0626,0.1982,-56.1000,6.1500,21.1500,9.5816,1.7166,0.3160,0.4223,-0.4354,0.0823,-71.1000,30.3000,-8.2500,3.4400,3.8500,-8.4300,-0.0785,0.0196,-0.0371,-27.0000,-13.2500,20.0625,259.7500,20.1250,-155.8125,0
224.677,9.3805,2.5857,0.5818,0.7586,-0.0674,0.2052,-56.1000,6.1500,21.1500,9.6702,1.4868,0.2490,0.3922,-0.4700,0.0847,-71.1000,30.3000,-8.2500,3.4400,3.8500,-8.4300,-0.0774,0.0240,-0.0371,-27.0000,-13.2500,20.0625,259.7500,20.1250,-155.7500,0
224.683,9.3805,2.5857,0.5818,0.7586,-0.0674,0.2052,-53.8500,9.1500,21.9000,9.6007,1.5131,0.1532,0.3922,-0.4700,0.0847,-71.1000,30.3000,-8.2500,3.4100,3.8400,-8.4100,-0.0774,0.0240,-0.0371,-27.0000,-13.2500,20.0625,259.7500,20.1250,-155.7500,0
224.688,9.5026,2.4876,0.5171,0.8063,-0.0663,0.2132,-53.8500,9.1500,21.9000,9.6007,1.5131,0.1532,0.3706,-0.4764,0.0767,-69.6000,30.3000,-9.0000,3.4100,3.8400,-8.4100,-0.0774,0.0240,-0.0371,-27.3750,-13.5625,19.6875,259.7500,20.1250,-155.6875,0
224.693,9.5026,2.4876,0.5171,0.8063,-0.0663,0.2132,-53.7000,7.8000,21.6000,9.6510,1.6017,0.0742,0.3706,-0.4764,0.0767,-69.6000,30.3000,-9.0000,3.4100,3.8000,-8.4000,-0.0774,0.0251,-0.0393,-27.3750,-13.5625,19.6875,259.7500,20.1250,-155.6875,0
224.698,9.3565,2.3056,0.4357,0.8476,-0.0592,0.2246,-53.7000,7.8000,21.6000,9.6510,1.6017,0.0742,0.3419,-0.4959,0.0807,-69.6000,30.3000,-9.0000,3.4100,3.8000,-8.4000,-0.0774,0.0251,-0.0393,-27.3750,-13.5625,19.6875,259.6875,20.1875,-155.6250,0
224.703,9.3565,2.3056,0.4357,0.8476,-0.0592,0.2246,-56.4000,8.7000,22.2000,9.5385,1.6185,-0.0838,0.3419,-0.4959,0.0807,-69.6000,30.3000,-9.0000,3.4400,3.7500,-8.4000,-0.0796,0.0251,-0.0393,-27.3750,-13.5625,19.6875,259.6875,20.1875,-155.6250,0
224.707,9.3948,2.1763,0.4046,0.8519,-0.0554,0.2270,-56.4000,8.7000,22.2000,9.5385,1.6185,-0.0838,0.3741,-0.4940,0.0791,-71.1000,32.2500,-8.2500,3.4400,3.7500,-8.4000,-0.0862,0.0327,-0.0393,-27.3750,-13.5625,19.6875,259.6875,20.1875,-155.5625,0
224.713,9.3948,2.1763,0.4046,0.8519,-0.0554,0.2270,-53.7000,7.5000,22.0500,9.5241,1.5778,-0.0072,0.3741,-0.4940,0.0791,-71.1000,32.2500,-8.2500,3.4600,3.7600,-8.4200,-0.0862,0.0327,-0.0393,-27.3750,-13.5625,19.6875,259.6875,20.1875,-155.5625,0
224.722,9.4978,1.9561,0.2753,0.8671,-0.0453,0.2353,-54.9000,8.7000,21.4500,9.6582,1.6041,-0.0575,0.4128,-0.4946,0.0743,-69.1500,30.6000,-9.3000,3.4100,3.7800,-8.4000,-0.0905,0.0327,-0.0425,-27.3750,-13.5625,19.6875,259.6875,20.1875,-155.5000,0
224.727,9.5984,1.8459,0.1939,0.8711,-0.0456,0.2417,-54.9000,8.7000,21.4500,9.6582,1.6041,-0.0575,0.4159,-0.5175,0.0794,-69.7500,32.8500,-9.9000,3.4100,3.7800,-8.4000,-0.0960,0.0436,-0.0425,-27.3750,-13.5625,19.6875,259.6250,20.1875,-155.4375,0
224.733,9.5984,1.8459,0.1939,0.8711,-0.0456,0.2417,-54.9000,8.7000,21.4500,9.6127,1.7573,-0.1556,0.4474,-0.5321,0.0765,-69.7500,32.8500,-9.9000,3.4000,3.7500,-8.4000,-0.0960,0.0436,-0.0425,-27.3750,-13.5625,19.6875,259.6250,20.1875,-155.4375,0
224.738,9.3972,1.6903,0.1006,0.8713,-0.0541,0.2422,-54.9000,8.7000,21.4500,9.6127,1.7573,-0.1556,0.4474,-0.5321,0.0765,-69.7500,31.6500,-8.8500,3.4400,3.7200,-8.3800,-0.1014,0.0425,-0.0535,-26.2500,-14.0000,20.0625,259.6250,20.1875,-155.3750,0
224.743,9.3972,1.6903,0.1006,0.8713,-0.0541,0.2422,-55.2000,9.0000,21.3000,9.5744,1.8435,-0.2466,0.5380,-0.5241,0.0767,-69.7500,31.6500,-8.8500,3.4400,3.7200,-8.3800,-0.1014,0.0425,-0.0535,-26.2500,-14.0000,20.0625,259.6250,20.1875,-155.3750,0
224.748,9.3589,1.5443,0.0862,0.8796,-0.0663,0.2366,-55.2000,9.0000,21.3000,9.5744,1.8435,-0.2466,0.5380,-0.5241,0.0767,-69.7500,31.6500,-8.8500,3.4400,3.7200,-8.3800,-0.1069,0.0458,-0.0578,-26.2500,-14.0000,20.0625,259.6250,20.1875,-155.3125,0
224.753,9.3589,1.5443,0.0862,0.8796,-0.0663,0.2366,-54.9000,7.9500,21.1500,9.5170,1.8052,-0.2897,0.5758,-0.5348,0.0706,-69.7500,31.6500,-8.8500,3.5100,3.7100,-8.3400,-0.1069,0.0458,-0.0578,-26.2500,-14.0000,20.0625,259.6250,20.1875,-155.3125,0
224.758,9.3972,1.4605,0.0455,0.8825,-0.0450,0.2308,-54.9000,7.9500,21.1500,9.5170,1.8052,-0.2897,0.5758,-0.5348,0.0706,-70.2000,31.6500,-9.1500,3.5100,3.7100,-8.3400,-0.1069,0.0513,-0.0545,-26.2500,-14.0000,20.0625,259.5625,20.2500,-155.2500,0
224.763,9.3972,1.4605,0.0455,0.8825,-0.0450,0.2308,-53.8500,11.4000,22.2000,9.3422,1.7621,-0.8236,0.5438,-0.4911,0.0778,-70.2000,31.6500,-9.1500,3.4500,3.7200,-8.4000,-0.1069,0.0513,-0.0545,-26.2500,-14.0000,20.0625,259.5625,20.2500,-155.2500,0
224.772,9.3063,1.4461,0.0503,0.8948,-0.0493,0.2230,-54.4500,9.0000,21.3000,9.5888,1.6879,-0.6632,0.5180,-0.5161,0.0661,-70.2000,31.6500,-9.1500,3.5000,3.6800,-8.3700,-0.1134,0.0545,-0.0567,-26.2500,-14.0000,20.0625,259.5625,20.2500,-155.1875,0
224.777,9.4475,1.4293,-0.0838,0.8982,-0.0424,0.2142,-54.4500,9.0000,21.3000,9.5888,1.6879,-0.6632,0.5180,-0.5161,0.0661,-70.0500,31.5000,-10.0500,3.5000,3.6800,-8.3700,-0.1298,0.0513,-0.0622,-26.2500,-14.0000,20.0625,259.5000,20.2500,-155.0625,0
224.783,9.5026,1.4700,-0.0215,0.9124,-0.0466,0.1977,-54.4500,9.0000,21.3000,9.5337,1.7382,-0.7039,0.5556,-0.5337,0.0618,-70.0500,31.5000,-10.0500,3.4800,3.6900,-8.3600,-0.1298,0.0513,-0.0622,-26.2500,-14.0000,20.0625,259.5000,20.2500,-155.0625,0
224.788,9.5026,1.4700,-0.0215,0.9124,-0.0466,0.1977,-54.4500,9.0000,21.3000,9.5337,1.7382,-0.7039,0.5556,-0.5337,0.0618,-71.2500,32.4000,-10.3500,3.4800,3.6900,-8.3600,-0.1298,0.0513,-0.0622,-27.0000,-12.8750,19.6875,259.5000,20.2500,-155.0000,0
224.793,9.5050,1.5826,-0.0982,0.9262,-0.0445,0.1777,-54.4500,9.0000,21.3000,9.5146,1.7837,-0.9744,0.5649,-0.5420,0.0661,-71.2500,32.4000,-10.3500,3.4900,3.7300,-8.3900,-0.1538,0.0524,-0.0665,-27.0000,-12.8750,19.6875,259.5000,20.2500,-155.0000,0
224.798,9.5050,1.5826,-0.0982,0.9262,-0.0445,0.1777,-54.4500,9.0000,21.3000,9.5146,1.7837,-0.9744,0.5649,-0.5420,0.0661,-70.3500,32.2500,-10.0500,3.4900,3.7300,-8.3900,-0.1538,0.0524,-0.0665,-27.0000,-12.8750,19.6875,259.5000,20.3125,-154.8750,0
224.803,9.4954,1.7262,-0.2538,0.9475,-0.0578,0.1484,-53.7000,9.7500,21.3000,9.4523,1.6879,-1.1899,0.5151,-0.5348,0.0682,-70.3500,32.2500,-10.0500,3.5100,3.7300,-8.3600,-0.1702,0.0633,-0.0665,-27.0000,-12.8750,19.6875,259.5000,20.3125,-154.8750,0
224.807,9.4954,1.7262,-0.2538,0.9475,-0.0578,0.1484,-53.7000,9.7500,21.3000,9.4523,1.6879,-1.1899,0.5151,-0.5348,0.0682,-71.1000,31.5000,-11.2500,3.5100,3.7300,-8.3600,-0.1887,0.0785,-0.0753,-27.0000,-12.8750,19.6875,259.4375,20.3125,-154.7500,0
224.813,9.5505,1.8507,-0.4453,0.9699,-0.0847,0.1172,-54.4500,10.8000,21.0000,9.4188,1.7334,-1.2689,0.5180,-0.5239,0.0637,-71.1000,31.5000,-11.2500,3.5100,3.7300,-8.4000,-0.1887,0.0785,-0.0753,-27.0000,-12.8750,19.6875,259.4375,20.3125,-154.7500,0
224.822,9.6606,2.0375,-0.6847,1.0144,-0.0903,0.0829,-55.2000,11.5500,19.9500,9.4595,2.0303,-1.6879,0.4722,-0.5092,0.0741,-70.9500,31.9500,-12.1500,3.5000,3.7200,-8.4600,-0.2149,0.0927,-0.0905,-27.0000,-12.8750,19.6875,259.4375,20.3125,-154.6250,0
224.827,9.6606,2.0375,-0.6847,1.0144,-0.0903,0.0829,-55.2000,11.5500,19.9500,9.4595,2.0303,-1.6879,0.4722,-0.5092,0.0741,-70.8000,33.4500,-11.2500,3.5000,3.7200,-8.4600,-0.2498,0.1124,-0.1091,-27.0000,-12.8750,19.6875,259.3750,20.3750,-154.5000,0
224.833,9.7348,2.1668,-0.8547,1.0496,-0.1274,0.0413,-52.2000,11.2500,22.0500,9.5361,1.9728,-1.8723,0.4189,-0.5087,0.0797,-70.8000,33.4500,-11.2500,3.5400,3.6400,-8.5400,-0.2498,0.1124,-0.1091,-27.0000,-12.8750,19.6875,259.3750,20.3750,-154.5000,0
224.838,9.7348,2.1668,-0.8547,1.0496,-0.1274,0.0413,-52.2000,11.2500,22.0500,9.4260,1.9585,-1.6352,0.4189,-0.5087,0.0797,-70.8000,33.4500,-11.2500,3.5400,3.6400,-8.5400,-0.2498,0.1124,-0.1091,-27.0000,-14.3750,18.8750,259.3125,20.4375,-154.3125,0
224.843,9.8210,2.2793,-1.0223,1.0850,-0.1729,-0.0072,-52.2000,11.2500,22.0500,9.4260,1.9585,-1.6352,0.5372,-0.4780,0.0858,-70.8000,33.4500,-11.2500,3.7100,3.6100,-8.6000,-0.3076,0.1276,-0.1429,-27.0000,-14.3750,18.8750,259.3125,20.4375,-154.3125,0
224.848,9.8210,2.2793,-1.0223,1.0850,-0.1729,-0.0072,-52.2000,11.2500,22.0500,9.4763,1.6472,-1.4892,0.6075,-0.4263,0.1082,-72.6000,33.0000,-11.5500,3.7100,3.6100,-8.6000,-0.3076,0.1276,-0.1429,-27.0000,-14.3750,18.8750,259.2500,20.5000,-154.0625,0
224.853,9.9144,2.2625,-1.2210,1.1234,-0.2033,-0.0589,-52.9500,13.0500,20.5500,9.4763,1.6472,-1.4892,0.6075,-0.4263,0.1082,-72.6000,33.0000,-11.5500,3.7000,3.7300,-8.4800,-0.3905,0.1713,-0.1822,-27.0000,-14.3750,18.8750,259.2500,20.5000,-154.0625,0
224.857,9.9144,2.2625,-1.2210,1.1234,-0.2033,-0.0589,-52.9500,13.0500,20.5500,9.5792,1.2306,-1.4317,0.5953,-0.3957,0.1292,-70.5000,32.8500,-11.4000,3.7000,3.7300,-8.4800,-0.4418,0.1942,-0.2105,-27.0000,-14.3750,18.8750,259.1250,20.5000,-153.7500,0
224.863,10.0413,2.1907,-1.4676,1.1538,-0.2340,-0.0978,-52.3500,13.6500,21.4500,9.5792,1.2306,-1.4317,0.5953,-0.3957,0.1292,-70.5000,32.8500,-11.4000,3.5400,3.8200,-8.3100,-0.4418,0.1942,-0.2105,-27.0000,-14.3750,18.8750,259.1250,20.5000,-153.7500,0
224.871,10.0509,2.0662,-1.5251,1.1895,-0.2566,-0.1258,-51.9000,14.5500,22.0500,9.6510,0.9553,-1.6328,0.5191,-0.3560,0.1346,-71.2500,32.8500,-12.1500,3.5800,3.8600,-8.2600,-0.4614,0.2182,-0.2247,-27.0000,-14.3750,18.8750,259.0625,20.5625,-153.5000,0
224.876,10.0509,2.0662,-1.5251,1.1895,-0.2566,-0.1258,-51.9000,14.5500,22.0500,9.6678,0.8523,-1.6999,0.5191,-0.3560,0.1346,-71.2500,32.8500,-12.1500,3.5800,3.8600,-8.2600,-0.4614,0.2182,-0.2247,-27.0000,-14.3750,18.8750,258.9375,20.6875,-153.1875,0
224.883,10.1323,1.9010,-1.6544,1.2201,-0.3072,-0.1444,-51.7500,15.9000,20.7000,9.6678,0.8523,-1.6999,0.3901,-0.3184,0.1362,-71.2500,32.8500,-13.9500,3.6300,3.8900,-8.2600,-0.4625,0.2509,-0.2345,-27.0000,-14.3750,18.8750,258.9375,20.6875,-153.1875,0
224.888,10.1323,1.9010,-1.6544,1.2201,-0.3072,-0.1444,-51.7500,15.9000,20.7000,9.6199,0.7614,-1.4988,0.2638,-0.2851,0.1511,-70.9500,32.8500,-11.4000,3.6300,3.8900,-8.2600,-0.4625,0.2509,-0.2345,-26.6875,-15.5000,19.6875,258.8125,20.7500,-152.8750,0
224.893,10.2041,1.6807,-1.7310,1.1890,-0.3147,-0.1551,-53.1000,16.2000,21.4500,9.6199,0.7614,-1.4988,0.2638,-0.2851,0.1511,-70.9500,32.8500,-11.4000,3.6000,3.7600,-8.4600,-0.4636,0.3011,-0.2585,-26.6875,-15.5000,19.6875,258.8125,20.7500,-152.8750,0
224.897,10.2041,1.6807,-1.7310,1.1890,-0.3147,-0.1551,-53.1000,16.2000,21.4500,9.5529,0.7973,-1.4078,0.1426,-0.2817,0.1604,-71.8500,32.5500,-12.7500,3.6000,3.7600,-8.4600,-0.4636,0.3011,-0.2585,-26.6875,-15.5000,19.6875,258.6875,20.8750,-152.5625,0
224.902,10.2472,1.5658,-1.8220,1.1474,-0.3091,-0.1580,-53.1000,16.2000,21.4500,9.5529,0.7973,-1.4078,0.1426,-0.2817,0.1604,-71.8500,32.5500,-12.7500,3.6800,3.8400,-8.3500,-0.4887,0.3611,-0.2749,-26.6875,-15.5000,19.6875,258.6875,20.8750,-152.5625,0
224.907,10.2472,1.5658,-1.8220,1.1474,-0.3091,-0.1580,-53.1000,16.2000,21.4500,9.6510,0.6895,-1.3216,-0.0109,-0.2649,0.1649,-71.8500,32.5500,-12.7500,3.6800,3.8400,-8.3500,-0.4952,0.4069,-0.2923,-26.6875,-15.5000,19.6875,258.5000,21.0000,-152.1875,0
224.913,10.2041,1.4964,-1.9010,1.0765,-0.3027,-0.1572,-52.8000,15.1500,21.1500,9.6510,0.6895,-1.3216,-0.0109,-0.2649,0.1649,-71.8500,32.5500,-12.7500,3.7200,3.8800,-8.3400,-0.4952,0.4069,-0.2923,-26.6875,-15.5000,19.6875,258.5000,21.0000,-152.1875,0
224.922,10.1945,1.4293,-2.0207,0.9595,-0.3301,-0.1378,-55.2000,16.0500,19.2000,9.8019,0.8787,-1.2857,-0.1780,-0.2702,0.1735,-71.5500,31.8000,-13.0500,3.8600,3.9600,-8.4300,-0.4800,0.3807,-0.3065,-26.6875,-15.5000,19.6875,258.3750,21.1250,-151.8750,0
224.927,10.1945,1.4293,-2.0207,0.9595,-0.3301,-0.1378,-55.2000,16.0500,19.2000,9.9383,1.1349,-1.2186,-0.3930,-0.3056,0.1825,-71.5500,31.8000,-13.0500,3.8600,3.9600,-8.4300,-0.4265,0.2836,-0.3251,-26.6875,-15.5000,19.6875,258.1875,21.1875,-151.6250,0
224.933,10.2400,1.5012,-2.0806,0.8244,-0.3691,-0.1130,-52.8000,18.1500,20.7000,9.9096,1.4461,-1.2019,-0.3930,-0.3056,0.1825,-71.5500,31.8000,-13.0500,3.8600,3.8300,-8.4900,-0.4265,0.2836,-0.3251,-26.6875,-15.5000,19.6875,258.1875,21.1875,-151.6250,0
224.938,10.3477,1.7142,-2.1021,0.6813,-0.3579,-0.0813,-53.1000,17.4000,20.7000,9.9096,1.4461,-1.2019,-0.5644,-0.3568,0.1831,-70.8000,33.0000,-12.0000,3.8600,3.8300,-8.4900,-0.4265,0.2836,-0.3251,-27.3750,-14.7500,17.6875,258.0625,21.1875,-151.3125,0
224.943,10.3477,1.7142,-2.1021,0.6813,-0.3579,-0.0813,-53.1000,17.4000,20.7000,9.7229,2.0351,-1.5131,-0.5644,-0.3568,0.1831,-70.8000,33.0000,-12.0000,4.3700,4.2400,-8.6000,-0.3600,0.1658,-0.3382,-27.3750,-14.7500,17.6875,258.0625,21.1875,-151.3125,0
224.948,10.0556,1.9776,-2.2122,0.5372,-0.3909,-0.0624,-53.1000,17.4000,20.7000,9.7229,2.0351,-1.5131,-0.6491,-0.2926,0.2060,-71.1000,32.5500,-12.7500,4.3700,4.2400,-8.6000,-0.3600,0.1658,-0.3382,-27.3750,-14.7500,17.6875,257.8750,21.1250,-151.0625,0
224.953,10.0556,1.9776,-2.2122,0.5372,-0.3909,-0.0624,-53.1000,17.4000,20.7000,10.1299,2.3320,-1.0487,-0.6491,-0.2926,0.2060,-71.1000,32.5500,-12.7500,4.5800,4.1900,-7.5800,-0.2858,0.0316,-0.3720,-27.3750,-14.7500,17.6875,257.8750,21.1250,-151.0625,0
224.958,9.9407,2.3439,-2.1308,0.3816,-0.3837,-0.0589,-53.1000,17.4000,20.7000,10.1299,2.3320,-1.0487,-0.6033,-0.2747,0.2273,-71.5500,32.2500,-13.8000,4.5800,4.1900,-7.5800,-0.2629,0.0065,-0.4396,-27.3750,-14.7500,17.6875,257.6250,21.0000,-150.8750,0
224.963,9.9407,2.3439,-2.1308,0.3816,-0.3837,-0.0589,-51.1500,16.5000,21.6000,10.0772,2.7031,-0.7326,-0.4852,-0.2465,0.2470,-71.5500,32.2500,-13.8000,4.2500,2.7200,-8.5200,-0.2629,0.0065,-0.4396,-27.3750,-14.7500,17.6875,257.4375,20.8750,-150.6875,0
224.972,9.8689,2.4612,-2.1356,0.2630,-0.3309,-0.0650,-51.9000,17.5500,21.6000,9.7612,3.7757,-1.5897,-0.4860,-0.1905,0.2819,-72.0000,32.4000,-13.2000,4.9000,3.6200,-8.4700,-0.1931,0.0316,-0.4374,-27.3750,-14.7500,17.6875,257.1875,20.6875,-150.4375,0
224.982,10.2256,2.5762,-2.0135,0.1308,-0.2665,-0.0626,-52.2000,19.0500,21.3000,9.8426,3.7589,-1.9249,-0.4082,-0.1865,0.2902,-72.0000,32.4000,-13.2000,5.1000,5.5500,-7.0800,-0.2542,-0.1342,-0.4996,-27.3750,-14.7500,17.6875,257.1875,20.6875,-150.4375,0
224.987,9.7444,2.7461,-1.8723,-0.0029,-0.2113,-0.0903,-51.7500,18.4500,21.1500,9.8426,3.7589,-1.9249,-0.4082,-0.1865,0.2902,-73.0500,32.2500,-12.0000,5.1000,5.5500,-7.0800,-0.2542,-0.1342,-0.4996,-27.3750,-14.7500,17.6875,256.7500,20.5000,-150.1875,0
224.992,9.7444,2.7461,-1.8723,-0.0029,-0.2113,-0.0903,-51.7500,18.4500,21.1500,9.5960,3.9504,-2.1045,0.0906,-0.1375,0.3067,-73.0500,32.2500,-12.0000,4.3500,5.1100,-9.2800,-0.1734,0.0262,-0.7625,-27.7500,-15.8750,17.6875,256.7500,20.5000,-150.1875,0
224.997,9.2177,2.9185,-1.9848,-0.0754,-0.1460,-0.1314,-52.3500,17.4000,21.1500,9.5960,3.9504,-2.1045,0.0906,-0.1375,0.3067,-73.0500,32.2500,-12.0000,4.3500,5.1100,-9.2800,-0.1734,0.0262,-0.7625,-27.7500,-15.8750,17.6875,256.3125,20.1875,-150.1875,0
225.002,9.2177,2.9185,-1.9848,-0.0754,-0.1460,-0.1314,-52.3500,17.4000,21.1500,9.3733,3.6416,-2.0207,0.3973,-0.1037,0.3091,-73.0500,32.2500,-12.0000,4.4100,2.4200,-9.8600,0.1745,-0.1058,-0.8378,-27.7500,-15.8750,17.6875,256.3125,20.1875,-150.1875,0
225.007,9.0525,3.1388,-1.8986,-0.1095,-0.0893,-0.1937,-52.3500,17.4000,21.1500,9.3733,3.6416,-2.0207,0.3973,-0.1037,0.3091,-73.0500,32.2500,-12.0000,4.4100,2.4200,-9.8600,0.1800,-0.4996,-0.7767,-27.7500,-15.8750,17.6875,255.9375,19.7500,-150.1875,0
225.013,9.0525,3.1388,-1.8986,-0.1095,-0.0893,-0.1937,-52.3500,17.4000,21.1500,9.2919,2.6887,-2.2482,0.7080,-0.0853,0.3168,-71.5500,31.0500,-12.3000,3.1600,3.3100,-9.7800,0.1800,-0.4996,-0.7767,-27.7500,-15.8750,17.6875,255.6250,19.2500,-150.2500,0
225.023,8.9807,3.3351,-1.6400,-0.0296,-0.0274,-0.2425,-50.2500,20.4000,22.2000,9.1411,2.3559,-1.9034,0.9513,0.0109,0.3086,-71.1000,30.3000,-14.2500,3.6100,5.6500,-7.9400,0.2389,-0.6654,-0.6327,-27.7500,-15.8750,17.6875,255.6250,19.2500,-150.2500,0
225.033,9.4595,3.3926,-1.3791,0.0909,0.0237,-0.2467,-51.9000,18.0000,21.6000,9.1626,1.7645,0.8954,1.0451,0.1966,0.2683,-71.7000,31.6500,-13.2000,4.6800,7.9600,-7.7900,0.2367,-0.3949,-0.7156,-27.7500,-15.8750,17.6875,255.3125,18.8750,-150.3125,0
225.038,10.0149,3.1292,-1.2641,0.2497,0.0376,-0.2297,-51.7500,18.9000,21.4500,9.1626,1.7645,0.8954,1.0451,0.1966,0.2683,-70.8000,31.6500,-13.2000,4.6800,7.9600,-7.7900,0.2367,-0.3949,-0.7156,-27.7500,-15.8750,17.6875,255.3125,18.8750,-150.3125,0
225.043,10.0149,3.1292,-1.2641,0.2497,0.0376,-0.2297,-51.7500,18.9000,21.4500,8.8729,5.9783,-2.2601,0.7266,0.3848,0.2470,-70.8000,30.3000,-12.3000,4.6800,7.9600,-7.7900,0.2367,-0.3949,-0.7156,-27.7500,-15.8750,17.6875,255.3125,18.8750,-150.3125,0
225.047,10.5105,3.1627,-0.6393,0.4770,0.0413,-0.1855,-52.3500,18.1500,21.1500,8.8729,5.9783,-2.2601,0.7266,0.3848,0.2470,-72.4500,31.9500,-14.7000,8.4600,7.7500,-6.5900,0.1636,0.0556,-0.9457,-27.0000,-15.8750,18.8750,254.9375,18.6250,-150.2500,0
225.053,10.5105,3.1627,-0.6393,0.4770,0.0413,-0.1855,-52.3500,18.1500,21.1500,9.7995,7.1036,-4.2713,0.4072,0.3722,0.0970,-72.4500,31.9500,-14.7000,12.9200,18.1500,-2.8400,0.4451,0.3720,-0.8694,-27.0000,-15.8750,18.8750,254.3125,18.5625,-150.3125,0
225.057,10.4435,3.0406,-1.0606,0.6691,0.0922,-0.1990,-52.3500,18.1500,21.1500,9.7995,7.1036,-4.2713,0.4072,0.3722,0.0970,-72.4500,31.9500,-14.7000,12.9200,18.1500,-2.8400,1.6133,-0.1636,-2.2886,-27.0000,-15.8750,18.8750,252.9375,17.8750,-150.8750,0
225.063,9.6678,3.4213,-1.9130,0.8178,0.0035,-0.2814,-52.3500,18.1500,21.1500,10.1634,8.3797,-2.6983,1.5095,0.4069,0.0714,-72.3000,30.6000,-13.0500,-3.3800,5.9500,5.0200,1.6133,-0.1636,-2.2886,-27.0000,-15.8750,18.8750,251.1250,16.8125,-151.4375,0
225.073,9.6678,3.4213,-1.9130,0.8178,0.0035,-0.2814,-50.5500,19.9500,21.1500,8.5090,9.4403,-0.6201,2.4059,0.5337,0.0709,-72.3000,30.6000,-13.0500,-8.0100,5.7600,3.6200,1.8064,-0.4920,-3.0925,-27.0000,-15.8750,18.8750,251.1250,16.8125,-151.4375,0
225.082,8.0278,4.3694,-3.0622,1.0219,-0.1324,-0.5156,-51.3000,18.9000,20.4000,7.6998,8.3773,1.1396,3.5120,0.7485,0.1279,-72.3000,30.3000,-12.3000,4.8500,11.6300,-1.9200,1.5424,2.3595,-3.2943,-27.0000,-15.8750,18.8750,248.8125,17.0625,-151.6250,0
225.087,8.0278,4.3694,-3.0622,1.0219,-0.1324,-0.5156,-51.9000,18.7500,18.7500,7.0844,6.7397,2.4445,3.5120,0.7485,0.1279,-72.3000,30.3000,-12.3000,4.8500,11.6300,-1.9200,1.5424,2.3595,-3.2943,-27.0000,-15.8750,18.8750,248.8125,17.0625,-151.6250,0
225.092,7.4220,5.1044,-2.5809,1.3011,-0.0759,-0.6526,-51.9000,18.7500,18.7500,7.0844,6.7397,2.4445,4.6876,1.0584,0.2332,-71.1000,32.5500,-13.5000,14.0200,4.7800,-7.4600,2.1958,3.3979,-3.8070,-25.1875,-17.6875,18.8750,246.0625,17.7500,-152.0000,0
225.097,7.4220,5.1044,-2.5809,1.3011,-0.0759,-0.6526,-51.4500,18.7500,18.7500,7.4819,5.8203,1.8387,5.4833,1.2596,0.3312,-71.1000,32.5500,-13.5000,14.0200,4.7800,-7.4600,2.1958,3.3979,-3.8070,-25.1875,-17.6875,18.8750,246.0625,17.7500,-152.0000,0
225.102,7.2880,6.2728,-1.8603,1.6934,0.1231,-0.8026,-51.4500,18.7500,18.7500,7.4819,5.8203,1.8387,5.4833,1.2596,0.3312,-72.9000,32.4000,-14.4000,10.6300,-0.1100,-5.9400,3.1787,3.1525,-4.2662,-25.1875,-17.6875,18.8750,243.0000,18.1875,-152.8125,0
225.109,7.2880,6.2728,-1.8603,1.6934,0.1231,-0.8026,-51.3000,19.6500,18.3000,8.4563,4.6831,1.6951,5.9075,1.4138,0.3112,-72.4500,32.4000,-13.6500,8.6100,2.0300,-4.4600,2.9212,2.0475,-4.8455,-25.1875,-17.6875,18.8750,239.7500,18.0000,-153.4375,0
225.114,7.7381,7.4172,-1.1540,2.0310,0.2102,-0.9494,-51.3000,19.6500,18.3000,8.4563,4.6831,1.6951,5.9075,1.4138,0.3112,-72.4500,32.4000,-13.6500,8.6100,2.0300,-4.4600,2.9212,2.0475,-4.8455,-25.1875,-17.6875,18.8750,236.5000,17.8125,-153.8125,0
225.123,7.7907,7.8769,-0.4788,2.2836,0.3104,-1.0632,-51.3000,19.6500,18.3000,9.0501,3.1005,2.5402,6.2632,1.5863,0.2113,-73.3500,33.0000,-14.8500,5.7600,5.1000,-3.6600,2.3889,2.0780,-5.0691,-25.1875,-17.6875,18.8750,233.2500,18.0000,-154.3125,0
225.133,7.6136,7.3694,0.2825,2.4688,0.5537,-1.1173,-51.0000,19.2000,17.5500,9.2536,0.9433,3.0885,6.4071,1.6939,0.1087,-71.5500,34.2000,-16.0500,8.4100,1.0500,-5.1700,2.6354,2.7511,-4.7462,-25.1875,-17.6875,18.8750,233.2500,18.0000,-154.3125,0
225.138,7.6136,7.3694,0.2825,2.4688,0.5537,-1.1173,-51.1500,18.7500,18.1500,13.3573,-1.7549,2.7054,6.5067,1.5966,0.0557,-71.5500,34.2000,-16.0500,8.4100,1.0500,-5.1700,2.6354,2.7511,-4.7462,-25.1875,-17.6875,18.8750,230.1875,18.3750,-154.7500,0
225.142,7.4771,6.3805,0.4980,2.6276,1.0866,-1.1056,-51.1500,18.7500,18.1500,13.3573,-1.7549,2.7054,6.5067,1.5966,0.0557,-71.5500,34.2000,-16.0500,8.5400,0.5500,-6.3700,2.5656,2.9398,-4.5062,-23.6875,-20.5625,17.6875,230.1875,18.3750,-154.7500,0
225.147,7.4771,6.3805,0.4980,2.6276,1.0866,-1.1056,-52.0500,19.9500,17.2500,6.7301,-3.2274,2.6336,4.8792,1.8743,-0.0043,-71.5500,34.2000,-16.0500,8.5400,0.5500,-6.3700,2.5656,2.9398,-4.5062,-23.6875,-20.5625,17.6875,230.1875,18.3750,-154.7500,0
225.152,7.9200,5.3654,1.0870,2.8120,0.9065,-1.0467,-52.0500,19.9500,17.2500,6.7301,-3.2274,2.6336,4.8792,1.8743,-0.0043,-71.8500,35.4000,-17.1000,6.8100,2.0500,-6.2000,2.1871,2.7413,-4.5095,-23.6875,-20.5625,17.6875,227.1250,18.6875,-154.9375,0
225.157,7.9200,5.3654,1.0870,2.8120,0.9065,-1.0467,-51.4500,18.0000,15.6000,9.2775,-2.2745,2.3631,4.7915,1.4922,-0.0445,-71.8500,35.4000,-17.1000,6.8100,2.0500,-6.2000,1.8588,2.7511,-4.4430,-23.6875,-20.5625,17.6875,224.1250,19.0625,-155.0000,0
225.163,8.2049,4.9081,1.6065,3.1869,1.0930,-0.9294,-51.4500,18.0000,15.6000,9.2775,-2.2745,2.3631,4.7915,1.4922,-0.0445,-71.8500,35.4000,-17.1000,6.5100,1.0400,-6.9300,1.8588,2.7511,-4.4430,-23.6875,-20.5625,17.6875,221.3125,19.4375,-154.8750,0
225.173,7.8841,4.2114,1.8794,3.3263,0.7727,-0.7853,-51.4500,18.0000,15.6000,9.5457,-1.8914,1.5754,3.9956,1.4280,-0.0197,-72.6000,34.9500,-17.8500,5.8600,-0.0100,-7.4700,1.5152,2.7434,-4.2182,-23.6875,-20.5625,17.6875,221.3125,19.4375,-154.8750,0
225.183,7.8458,3.6440,1.5514,3.4765,0.9337,-0.6595,-51.4500,18.0000,15.6000,9.6007,-1.7957,1.2905,3.2018,1.3789,0.0099,-71.5500,35.7000,-18.3000,5.1800,-0.1500,-7.8100,1.0777,2.7009,-3.9477,-23.6875,-20.5625,17.6875,218.6875,19.8750,-154.5625,0
225.187,7.8458,3.6440,1.5514,3.4765,0.9337,-0.6595,-51.4500,19.5000,13.8000,9.6989,-1.1899,1.1779,2.5791,1.2814,0.0314,-71.5500,35.7000,-18.3000,5.1800,-0.1500,-7.8100,1.0777,2.7009,-3.9477,-23.6875,-20.5625,17.6875,218.6875,19.8750,-154.5625,0
225.192,8.0876,3.2250,0.8763,3.5575,1.0690,-0.5393,-51.4500,19.5000,13.8000,9.5648,-0.7087,0.9433,2.5791,1.2814,0.0314,-71.5500,34.9500,-17.8500,4.8200,1.1300,-8.8800,0.5923,2.6333,-3.6390,-21.5625,-24.2500,14.5000,216.3125,20.3125,-154.0000,0
225.197,8.0876,3.2250,0.8763,3.5575,1.0690,-0.5393,-51.9000,18.3000,12.7500,9.5648,-0.7087,0.9433,2.0129,1.1743,0.0189,-71.5500,34.9500,-17.8500,4.8200,1.1300,-8.8800,0.5923,2.6333,-3.6390,-21.5625,-24.2500,14.5000,216.3125,20.3125,-154.0000,0
225.202,8.8442,2.5115,0.2035,3.5951,1.0509,-0.4303,-51.9000,18.3000,12.7500,9.2632,-0.1963,0.8021,2.0129,1.1743,0.0189,-71.7000,36.3000,-17.7000,4.6500,1.7800,-9.2200,0.2716,2.5165,-3.2747,-21.5625,-24.2500,14.5000,214.1250,20.7500,-153.3125,0
225.207,8.8442,2.5115,0.2035,3.5951,1.0509,-0.4303,-50.2500,17.4000,12.6000,9.2632,-0.1963,0.8021,1.6766,1.0970,0.0027,-71.7000,36.3000,-17.7000,4.6500,1.7800,-9.2200,0.2716,2.5165,-3.2747,-21.5625,-24.2500,14.5000,212.2500,21.1875,-152.5625,0
225.213,9.2919,1.9034,-0.1365,3.6772,0.9699,-0.3539,-49.5000,16.6500,10.5000,9.1698,0.3591,0.7709,1.4647,1.0102,-0.0280,-73.8000,34.5000,-17.5500,4.4000,2.4800,-9.4600,0.1396,2.3616,-2.8798,-21.5625,-24.2500,14.5000,210.5625,21.6250,-151.9375,0
225.223,9.5888,1.1540,-0.5890,3.6761,0.8545,-0.3429,-49.5000,16.6500,10.5000,9.1123,0.9409,1.1492,1.3555,0.8929,-0.0677,-72.0000,35.1000,-18.4500,3.3100,3.1400,-9.2000,0.1244,2.1478,-2.5013,-21.5625,-24.2500,14.5000,209.1250,21.9375,-151.4375,0
225.233,9.4667,0.3831,-0.5363,3.6340,0.8148,-0.3906,-49.9500,15.1500,10.0500,8.8155,1.7166,0.9984,1.2716,0.8066,-0.0791,-72.0000,35.1000,-18.4500,2.3700,3.3000,-8.8800,0.1298,1.8271,-2.1489,-21.5625,-24.2500,14.5000,209.1250,21.9375,-151.4375,0
225.238,9.1291,-0.1652,-0.3352,3.4923,0.7389,-0.4708,-49.9500,15.1500,10.0500,8.8155,1.7166,0.9984,1.2716,0.8066,-0.0791,-72.0000,35.1000,-18.4500,2.3700,3.3000,-8.8800,0.1298,1.8271,-2.1489,-21.5625,-24.2500,14.5000,209.1250,21.9375,-151.4375,0
225.243,9.1291,-0.1652,-0.3352,3.4923,0.7389,-0.4708,-49.5000,16.2000,9.3000,8.9615,1.7406,0.6632,1.3512,0.6267,-0.1026,-72.9000,34.3500,-17.7000,1.4600,3.3500,-8.8200,0.0949,1.5173,-1.8282,-18.0000,-27.3750,14.0625,207.4375,22.1875,-150.9375,0
225.248,8.8945,-0.5770,0.0958,3.2623,0.7568,-0.5646,-49.5000,16.2000,9.3000,8.9615,1.7406,0.6632,1.3512,0.6267,-0.1026,-72.9000,34.3500,-17.7000,1.4600,3.3500,-8.8200,0.0949,1.5173,-1.8282,-18.0000,-27.3750,14.0625,207.4375,22.1875,-150.9375,0
225.253,8.8945,-0.5770,0.0958,3.2623,0.7568,-0.5646,-49.6500,14.5500,8.5500,9.4284,1.7358,0.4741,1.5234,0.5153,-0.1322,-70.9500,35.1000,-18.4500,1.0600,4.0300,-8.8100,0.0164,1.3079,-1.5959,-18.0000,-27.3750,14.0625,206.3750,22.3750,-150.5000,0
225.258,8.9567,-0.6369,0.4525,2.9889,0.7722,-0.6315,-49.6500,14.5500,8.5500,9.4284,1.7358,0.4741,1.5234,0.5153,-0.1322,-70.9500,35.1000,-18.4500,1.0600,4.0300,-8.8100,0.0316,1.1159,-1.4693,-18.0000,-27.3750,14.0625,205.4375,22.5000,-150.0625,0
225.264,8.9567,-0.6369,0.4525,2.9889,0.7722,-0.6315,-48.4500,15.4500,7.6500,9.4164,1.4006,0.3256,1.7714,0.4021,-0.1703,-72.6000,34.9500,-18.3000,0.9000,5.7200,-8.6700,0.0316,1.1159,-1.4693,-18.0000,-27.3750,14.0625,204.5000,22.5625,-149.8125,0
225.273,9.1099,-0.6201,0.7302,2.5905,0.8236,-0.6757,-50.4000,13.5000,6.7500,9.6391,0.9673,0.2394,1.9614,0.2771,-0.2070,-70.9500,36.0000,-18.4500,0.5000,6.0700,-8.2700,0.1636,0.9523,-1.4006,-18.0000,-27.3750,14.0625,204.5000,22.5625,-149.8125,0
225.283,9.1746,-0.5052,0.7949,2.1725,0.8961,-0.6813,-50.4000,13.5000,6.7500,9.6199,0.4812,0.1580,2.1045,0.1767,-0.2406,-71.8500,36.1500,-19.3500,0.0800,6.2100,-7.8200,0.3240,0.8301,-1.4268,-18.0000,-27.3750,14.0625,203.5625,22.5625,-149.5625,0
225.288,9.3589,-0.2274,0.4980,1.7568,0.9132,-0.6656,-50.4000,13.5000,6.7500,9.6199,0.4812,0.1580,2.1045,0.1767,-0.2406,-71.8500,36.1500,-19.3500,0.0800,6.2100,-7.8200,0.3240,0.8301,-1.4268,-18.0000,-27.3750,14.0625,202.0625,22.5000,-149.3750,0
225.293,9.3589,-0.2274,0.4980,1.7568,0.9132,-0.6656,-50.2500,14.7000,7.6500,9.8665,0.1269,0.2227,2.2335,0.0602,-0.2747,-71.5500,36.4500,-19.0500,0.0300,6.6800,-7.3400,0.3862,0.8050,-1.5719,-15.6875,-29.5625,12.0000,202.0625,22.5000,-149.3750,0
225.298,9.1315,0.1221,0.1532,1.3872,0.9483,-0.6230,-50.2500,14.7000,7.6500,9.8665,0.1269,0.2227,2.2335,0.0602,-0.2747,-71.5500,36.4500,-19.0500,0.0300,6.6800,-7.3400,0.3862,0.8050,-1.5719,-15.6875,-29.5625,12.0000,200.8750,22.4375,-149.1250,0
225.303,9.1315,0.1221,0.1532,1.3872,0.9483,-0.6230,-49.3500,15.7500,5.2500,9.8545,0.1269,0.2251,2.3017,-0.0632,-0.2950,-71.5500,36.4500,-19.0500,0.0800,6.8100,-7.2300,0.3774,0.8432,-1.8228,-15.6875,-29.5625,12.0000,200.8750,22.4375,-149.1250,0
225.308,9.1746,0.5028,-0.3807,1.1101,1.0088,-0.5801,-49.3500,15.7500,5.2500,9.7875,0.2729,0.0694,2.3017,-0.0632,-0.2950,-71.5500,36.4500,-19.0500,0.0800,6.8100,-7.2300,0.3960,0.9185,-2.1206,-15.6875,-29.5625,12.0000,199.5625,22.2500,-148.8125,0
225.314,9.1746,0.5028,-0.3807,1.1101,1.0088,-0.5801,-48.0000,14.7000,6.4500,9.7875,0.2729,0.0694,2.3862,-0.1740,-0.3006,-72.0000,39.0000,-21.4500,0.1400,6.5500,-7.2200,0.3960,0.9185,-2.1206,-15.6875,-29.5625,12.0000,198.0000,22.0625,-148.5000,0
225.323,9.4308,0.7925,-0.8068,0.8863,1.0664,-0.5343,-49.2000,14.7000,7.2000,9.8114,0.1867,0.0694,2.5628,-0.2675,-0.3075,-72.0000,39.0000,-21.4500,0.3000,6.2100,-7.3500,0.4407,1.0352,-2.4064,-15.6875,-29.5625,12.0000,196.3125,21.8125,-148.1250,0
225.333,9.2320,1.2546,-1.1301,0.7568,1.0941,-0.5060,-49.2000,14.7000,7.2000,9.9455,0.0000,0.2011,2.7275,-0.3589,-0.3163,-71.1000,36.9000,-21.9000,1.1700,5.6000,-7.7100,0.5018,1.1508,-2.6780,-15.6875,-29.5625,12.0000,196.3125,21.8125,-148.1250,0
225.338,9.3518,1.7047,-1.4030,0.6872,1.1154,-0.4684,-49.2000,14.7000,7.2000,10.0293,-0.2945,0.1580,2.8237,-0.4495,-0.3248,-71.1000,36.9000,-21.9000,1.1700,5.6000,-7.7100,0.5018,1.1508,-2.6780,-15.6875,-29.5625,12.0000,194.4375,21.5625,-147.7500,0
225.343,9.3518,1.7047,-1.4030,0.6872,1.1154,-0.4684,-46.6500,15.4500,6.4500,10.0293,-0.2945,0.1580,2.8237,-0.4495,-0.3248,-70.9500,37.5000,-22.5000,1.8100,5.1500,-7.9800,0.5901,1.2446,-2.8929,-13.3750,-30.6875,11.1875,194.4375,21.5625,-147.7500,0
225.348,9.4619,2.0662,-1.6664,0.6702,1.0925,-0.4253,-46.6500,15.4500,6.4500,9.9096,-0.6800,0.3543,2.9130,-0.4970,-0.3269,-70.9500,37.5000,-22.5000,1.8100,5.1500,-7.9800,0.5901,1.2446,-2.8929,-13.3750,-30.6875,11.1875,192.5000,21.2500,-147.4375,0
225.353,9.4619,2.0662,-1.6664,0.6702,1.0925,-0.4253,-48.7500,15.4500,6.1500,9.9096,-0.6800,0.3543,2.9130,-0.4970,-0.3269,-70.9500,37.0500,-22.9500,2.3900,4.5700,-8.2900,0.6490,1.2926,-3.0183,-13.3750,-30.6875,11.1875,192.5000,21.2500,-147.4375,0
225.359,9.3087,2.5283,-1.9800,0.7314,1.0235,-0.3706,-48.7500,15.4500,6.1500,10.0461,-1.0199,0.5100,2.9428,-0.5076,-0.3112,-70.9500,37.0500,-22.9500,2.3900,4.5700,-8.2900,0.6207,1.3014,-3.0892,-13.3750,-30.6875,11.1875,190.5000,20.9375,-147.0625,0
225.364,9.2871,2.8898,-2.1452,0.8332,1.0144,-0.2798,-46.5000,15.3000,7.0500,10.0461,-1.0199,0.5100,2.9428,-0.5076,-0.3112,-70.8000,37.3500,-24.1500,3.9800,3.8400,-9.2400,0.6207,1.3014,-3.0892,-13.3750,-30.6875,11.1875,188.5000,20.5625,-146.6875,0
225.373,9.1722,3.1699,-2.2553,0.9902,1.0280,-0.1697,-48.0000,16.2000,6.1500,10.1011,-1.4581,0.3759,2.8831,-0.5281,-0.2793,-70.8000,37.3500,-24.1500,4.3700,3.6000,-9.2300,0.5487,1.2152,-3.1558,-13.3750,-30.6875,11.1875,188.5000,20.5625,-146.6875,0
225.383,9.2775,3.0263,-2.3248,1.1461,1.0603,-0.0597,-46.8000,14.2500,6.0000,10.1610,-1.9944,0.1604,2.7843,-0.5257,-0.2627,-71.1000,36.9000,-26.4000,4.2600,3.3000,-8.9400,0.5574,1.0647,-3.1645,-13.3750,-30.6875,11.1875,186.5000,20.0625,-146.3125,0
225.388,9.2775,3.0263,-2.3248,1.1461,1.0603,-0.0597,-46.8000,14.2500,6.0000,10.0341,-2.6097,0.4046,2.7075,-0.5012,-0.2465,-71.1000,36.9000,-26.4000,4.2600,3.3000,-8.9400,0.5574,1.0647,-3.1645,-13.3750,-30.6875,11.1875,186.5000,20.0625,-146.3125,0
225.393,9.2081,2.6336,-2.4421,1.3574,1.0826,0.0898,-46.8000,14.2500,6.0000,10.0341,-2.6097,0.4046,2.7075,-0.5012,-0.2465,-71.1000,36.9000,-26.4000,4.6600,2.3200,-8.4700,0.6392,1.0188,-3.0729,-11.7500,-32.8750,9.8750,184.5625,19.5625,-146.0625,0
225.398,9.2081,2.6336,-2.4421,1.3574,1.0826,0.0898,-46.8000,14.2500,6.0000,9.7444,-2.8491,0.4070,2.5018,-0.4772,-0.2276,-71.1000,36.9000,-26.4000,4.6600,2.3200,-8.4700,0.6392,1.0188,-3.0729,-11.7500,-32.8750,9.8750,184.5625,19.5625,-146.0625,0
225.403,9.0692,2.1787,-2.4086,1.5087,1.1037,0.2132,-46.5000,14.5500,6.3000,9.7444,-2.8491,0.4070,2.5018,-0.4772,-0.2276,-70.0500,36.9000,-27.9000,4.8600,1.7000,-8.3200,0.7025,1.0308,-2.9354,-11.7500,-32.8750,9.8750,182.6875,19.1250,-145.8750,0
225.409,9.0692,2.1787,-2.4086,1.5087,1.1037,0.2132,-46.5000,14.5500,6.3000,9.5002,-3.0287,0.3543,2.2625,-0.4658,-0.2025,-70.0500,36.9000,-27.9000,4.8400,1.3200,-8.1700,0.6981,1.0090,-2.7751,-11.7500,-32.8750,9.8750,180.9375,18.7500,-145.6875,0
225.414,8.7460,1.5299,-1.9082,1.4850,1.1191,0.3096,-47.1000,13.5000,4.2000,9.2871,-2.9042,0.2634,2.2625,-0.4658,-0.2025,-70.5000,36.7500,-27.7500,4.8400,1.3200,-8.1700,0.6981,1.0090,-2.7751,-11.7500,-32.8750,9.8750,179.2500,18.3750,-145.5625,0
225.423,8.6646,0.7494,-1.5083,1.3853,1.0960,0.4274,-46.8000,14.5500,6.3000,9.0142,-2.4660,-0.0120,2.0384,-0.4503,-0.1921,-70.9500,37.5000,-27.3000,5.0900,1.1800,-8.1100,0.6327,1.0134,-2.6049,-11.7500,-32.8750,9.8750,177.6875,18.1250,-145.3750,0
225.433,8.4036,0.2370,-1.5060,1.2790,1.0669,0.5388,-46.8000,14.2500,6.3000,8.9016,-2.1284,-0.2682,1.8410,-0.4189,-0.1716,-69.6000,37.3500,-28.9500,5.8500,0.5700,-7.8700,0.5716,1.0385,-2.4173,-11.7500,-32.8750,9.8750,177.6875,18.1250,-145.3750,0
225.438,8.4036,0.2370,-1.5060,1.2790,1.0669,0.5388,-46.8000,14.2500,6.3000,8.9016,-2.1284,-0.2682,1.7102,-0.3541,-0.1428,-69.6000,37.3500,-28.9500,5.8500,0.5700,-7.8700,0.5716,1.0385,-2.4173,-11.7500,-32.8750,9.8750,176.2500,17.8750,-145.2500,0
225.443,8.6742,0.4501,-2.5570,1.1767,1.1618,0.6043,-46.8000,14.2500,6.3000,8.6957,-2.2338,-0.5507,1.6395,-0.2499,-0.0917,-69.7500,37.0500,-30.3000,5.7900,0.1500,-7.3500,0.5291,1.0363,-2.2046,-6.2500,-32.7500,10.6875,176.2500,17.8750,-145.2500,0
225.448,8.6742,0.4501,-2.5570,1.1767,1.1618,0.6043,-46.8000,14.2500,6.3000,8.6957,-2.2338,-0.5507,1.6395,-0.2499,-0.0917,-69.7500,37.0500,-30.3000,5.7900,0.1500,-7.3500,0.5291,1.0363,-2.2046,-6.2500,-32.7500,10.6875,174.9375,17.7500,-145.1250,0
225.453,9.1985,0.7590,-1.4246,1.1559,1.0994,0.6931,-46.8000,14.2500,6.3000,8.6455,-2.5905,-0.1006,1.5857,-0.1207,-0.0517,-70.5000,37.0500,-30.6000,5.8000,-0.0700,-6.5900,0.4952,1.0701,-1.9602,-6.2500,-32.7500,10.6875,174.9375,17.7500,-145.1250,0
225.458,9.1985,0.7590,-1.4246,1.1559,1.0994,0.6931,-46.8000,14.2500,6.3000,8.6455,-2.5905,-0.1006,1.5857,-0.1207,-0.0517,-70.5000,37.0500,-30.6000,5.8000,-0.0700,-6.5900,0.4909,1.2588,-1.6690,-6.2500,-32.7500,10.6875,173.7500,17.8125,-145.0000,0
225.464,9.6702,1.0008,-0.9625,1.2889,1.2580,0.6555,-46.2000,13.6500,6.1500,8.7221,-2.8802,0.1556,1.4493,-0.0536,-0.0051,-70.5000,37.0500,-30.6000,6.1600,-0.6300,-5.9400,0.4909,1.2588,-1.6690,-6.2500,-32.7500,10.6875,172.6875,18.0625,-144.8750,0
225.473,10.6039,1.2306,-1.7502,1.3014,1.5756,0.4810,-46.8000,12.3000,5.7000,8.9591,-3.3998,0.7230,1.2628,0.0437,0.0442,-70.8000,36.4500,-31.9500,7.3600,-0.8100,-6.1000,0.4363,1.5686,-1.3581,-6.2500,-32.7500,10.6875,172.6875,18.0625,-144.8750,0
225.483,11.3246,0.3160,-3.4261,1.2383,1.3150,0.2832,-44.5500,12.3000,5.2500,9.5026,-3.1484,1.2498,1.0677,0.1921,0.0890,-70.0500,37.3500,-31.2000,8.8200,-0.6100,-6.6200,0.1963,1.9231,-1.1356,-6.2500,-32.7500,10.6875,171.6875,18.5625,-144.6250,0
225.488,11.3246,0.3160,-3.4261,1.2383,1.3150,0.2832,-47.4000,12.1500,5.8500,9.5026,-3.1484,1.2498,1.0677,0.1921,0.0890,-70.0500,37.3500,-31.2000,8.8200,-0.6100,-6.6200,0.1963,1.9231,-1.1356,-6.2500,-32.7500,10.6875,171.6875,18.5625,-144.6250,0
225.493,11.0277,0.8835,-4.2306,1.3747,0.9108,0.1367,-47.4000,12.1500,5.8500,10.2161,-2.4828,0.8188,0.6742,0.2590,0.1476,-69.0000,35.5500,-31.3500,13.3000,-6.2000,-11.2000,-0.1854,2.2722,-0.6305,-3.1875,-33.6875,11.0000,170.9375,19.4375,-144.1875,0
225.498,11.0277,0.8835,-4.2306,1.3747,0.9108,0.1367,-47.4000,12.1500,5.8500,10.2161,-2.4828,0.8188,0.6742,0.2590,0.1476,-69.0000,35.5500,-31.3500,13.3000,-6.2000,-11.2000,-0.1854,2.2722,-0.6305,-3.1875,-33.6875,11.0000,170.9375,19.4375,-144.1875,0
225.503,10.6303,1.9417,-2.7031,1.0251,0.6835,0.1903,-47.4000,12.1500,5.8500,12.0644,-1.5802,-0.8739,0.2529,0.2798,0.1684,-71.1000,35.7000,-31.2000,6.5200,-4.4900,-11.7100,0.9937,1.2926,0.1974,-3.1875,-33.6875,11.0000,170.7500,20.0625,-144.6250,0
225.511,12.0716,0.7781,-1.2857,0.6662,0.8426,0.4104,-45.9000,12.1500,4.8000,13.7188,-1.2833,-3.3686,-0.0053,0.2028,0.0866,-71.1000,35.7000,-31.2000,5.2800,-4.2900,-15.8100,1.1323,0.5138,0.2902,-3.1875,-33.6875,11.0000,170.6875,20.3750,-145.2500,0
225.516,12.0716,0.7781,-1.2857,0.6662,0.8426,0.4104,-45.9000,12.1500,4.8000,13.7188,-1.2833,-3.3686,-0.0053,0.2028,0.0866,-69.4500,36.3000,-31.3500,5.2800,-4.2900,-15.8100,1.1323,0.5138,0.2902,-3.1875,-33.6875,11.0000,171.0000,20.5625,-145.8125,0
225.524,14.2072,0.2849,-2.5833,0.3938,0.8761,0.5460,-45.3000,12.3000,6.3000,13.1059,-1.7573,-3.1963,-0.0557,0.1231,-0.0893,-69.1500,36.1500,-30.9000,5.6000,-0.6800,-17.5400,0.8258,-0.0807,0.6949,-3.1875,-33.6875,11.0000,171.6250,20.2500,-146.6875,0
225.534,13.4027,0.2035,-3.7062,0.1636,0.3456,0.5561,-46.0500,12.3000,5.2500,11.4850,-1.6927,-1.2522,0.0778,0.1002,-0.2489,-69.1500,36.1500,-30.9000,-3.0700,5.4900,-5.5100,1.0188,-1.3526,0.8999,-3.1875,-33.6875,11.0000,171.6250,20.2500,-146.6875,0
225.539,9.3733,-0.3448,-1.7789,-0.4154,0.0863,0.4991,-46.8000,12.7500,5.2500,9.5720,-1.5826,0.6488,0.0778,0.1002,-0.2489,-69.1500,36.1500,-30.9000,-3.0700,5.4900,-5.5100,1.0188,-1.3526,0.8999,-3.1875,-33.6875,11.0000,172.3125,20.6250,-147.1250,0
225.544,9.3733,-0.3448,-1.7789,-0.4154,0.0863,0.4991,-46.8000,12.7500,5.2500,9.5720,-1.5826,0.6488,-0.2137,0.2081,-0.2755,-70.0500,36.4500,-31.6500,6.0400,9.4800,-8.0400,0.3742,-0.0076,1.3384,-1.8750,-33.6875,12.1875,172.3125,20.6250,-147.1250,0
225.548,9.4451,0.4717,-1.0391,-0.3624,1.1810,0.4098,-47.5500,13.8000,6.7500,8.8849,-1.2761,1.1420,-0.2137,0.2081,-0.2755,-70.0500,36.4500,-31.6500,6.0400,9.4800,-8.0400,0.3742,-0.0076,1.3384,-1.8750,-33.6875,12.1875,172.3125,20.6250,-147.1250,0
225.554,9.4451,0.4717,-1.0391,-0.3624,1.1810,0.4098,-47.5500,13.8000,6.7500,8.8849,-1.2761,1.1420,-0.6400,0.2166,-0.2076,-70.0500,36.4500,-31.6500,3.8900,9.3700,-4.3700,0.3294,-0.0764,1.3046,-1.8750,-33.6875,12.1875,173.0000,21.0000,-147.5625,0
225.560,10.0221,1.5107,0.1820,-0.6579,0.6206,0.3488,-47.5500,13.8000,6.7500,9.1051,-0.2753,-0.0192,-0.9342,0.2771,-0.0466,-70.0500,36.4500,-31.6500,6.9600,2.8100,-10.2400,0.4843,0.3218,0.7025,-1.8750,-33.6875,12.1875,173.3125,21.3125,-147.9375,0
225.565,10.0221,1.5107,0.1820,-0.6579,0.6206,0.3488,-47.5500,13.8000,6.7500,9.1051,-0.2753,-0.0192,-0.9342,0.2771,-0.0466,-70.9500,37.5000,-31.3500,6.9600,2.8100,-10.2400,0.4843,0.3218,0.7025,-1.8750,-33.6875,12.1875,173.3125,21.5625,-148.1875,0
225.574,8.8825,2.4349,0.9505,-0.8375,0.4378,0.3624,-47.8500,11.5500,8.5500,9.7420,1.2402,-1.1229,-1.1341,0.2409,0.1071,-70.0500,36.1500,-29.7000,3.7200,1.8000,-9.9100,0.4701,0.3065,0.2073,-1.8750,-33.6875,12.1875,173.3750,21.5625,-148.3750,0
225.584,8.8322,2.8874,0.3472,-0.9164,0.5558,0.4287,-47.7000,12.1500,6.9000,9.5529,2.8874,-1.2043,-1.1098,0.2867,0.1298,-70.8000,36.9000,-30.1500,2.8500,3.3900,-8.6600,0.3098,-0.0622,0.1069,-1.8750,-33.6875,12.1875,173.3750,21.5625,-148.3750,0
225.588,8.9399,3.1963,0.2873,-0.8431,0.5545,0.4519,-46.2000,9.9000,8.7000,9.1842,3.7733,-0.9313,-0.9278,0.3549,0.0613,-70.8000,36.9000,-30.1500,2.8500,3.3900,-8.6600,0.3098,-0.0622,0.1069,-1.8750,-33.6875,12.1875,173.4375,21.5000,-148.5000,0
225.593,8.9399,3.1963,0.2873,-0.8431,0.5545,0.4519,-46.2000,9.9000,8.7000,9.1842,3.7733,-0.9313,-0.9278,0.3549,0.0613,-69.4500,37.5000,-29.5500,3.9600,6.1500,-6.9700,0.1505,-0.1593,0.1691,-4.1875,-33.0000,12.0625,173.4375,21.5000,-148.5000,0
225.598,8.6024,3.4477,1.2905,-0.7853,0.6305,0.4199,-47.5500,12.7500,7.3500,9.2680,3.6655,-0.9433,-0.4860,0.4183,0.0080,-69.4500,37.5000,-29.5500,3.9600,6.1500,-6.9700,0.1505,-0.1593,0.1691,-4.1875,-33.0000,12.0625,173.4375,21.5000,-148.5000,0
225.603,8.6024,3.4477,1.2905,-0.7853,0.6305,0.4199,-47.5500,12.7500,7.3500,9.2680,3.6655,-0.9433,-0.4860,0.4183,0.0080,-70.0500,39.3000,-31.2000,3.9400,5.5400,-7.4100,0.1462,-0.0742,0.1222,-4.1875,-33.0000,12.0625,173.5000,21.5000,-148.6250,0
225.613,8.7891,3.3088,2.2410,-0.7240,0.7568,0.3794,-47.5500,12.7500,7.3500,9.5864,3.5338,-1.1588,0.0261,0.4269,-0.0141,-70.0500,39.3000,-31.2000,3.6100,4.9100,-7.7200,0.2258,-0.0251,0.0491,-4.1875,-33.0000,12.0625,173.5000,21.5000,-148.7500,0
225.619,9.1435,3.2920,2.0063,-0.4122,0.6328,0.3448,-47.1000,13.0500,8.1000,9.4954,2.9185,-1.3958,0.4954,0.4671,-0.0053,-70.5000,37.0500,-30.3000,3.6100,4.9100,-7.7200,0.2913,-0.0687,0.0447,-4.1875,-33.0000,12.0625,173.5000,21.5000,-148.9375,0
225.624,9.4475,3.6033,1.5203,-0.0682,0.5620,0.3285,-47.1000,13.0500,8.1000,9.4954,2.9185,-1.3958,0.4954,0.4671,-0.0053,-70.5000,37.0500,-30.3000,3.6000,4.9700,-7.8100,0.2913,-0.0687,0.0447,-4.1875,-33.0000,12.0625,173.5000,21.4375,-149.1250,0
225.634,9.4523,4.0151,1.2546,0.1556,0.4253,0.3363,-46.8000,12.0000,8.8500,9.3685,2.1021,-0.5555,0.7759,0.5305,0.0378,-70.0500,36.1500,-29.7000,3.4800,4.8700,-7.6100,0.3283,-0.1167,0.0513,-4.1875,-33.0000,12.0625,173.5000,21.4375,-149.1250,0
225.639,9.4523,4.0151,1.2546,0.1556,0.4253,0.3363,-46.8000,12.7500,10.6500,9.3254,0.8045,-0.3591,0.6856,0.5774,0.0730,-70.0500,36.1500,-29.7000,3.4800,4.8700,-7.6100,0.3283,-0.1167,0.0513,-4.1875,-33.3750,12.8750,173.5000,21.4375,-149.3750,0
225.644,9.1004,3.9792,0.9816,0.3808,0.3411,0.3112,-46.8000,12.7500,10.6500,9.2919,-0.2035,-0.2658,0.6856,0.5774,0.0730,-70.3500,37.6500,-29.7000,3.6900,4.5700,-7.6700,0.3491,-0.1244,0.0360,-4.1875,-33.3750,12.8750,173.5000,21.4375,-149.3750,0
225.649,9.1004,3.9792,0.9816,0.3808,0.3411,0.3112,-45.9000,11.4000,9.3000,9.2919,-0.2035,-0.2658,0.4628,0.5891,0.0775,-70.3500,37.6500,-29.7000,3.6900,4.5700,-7.6700,0.3491,-0.1244,0.0360,-4.1875,-33.3750,12.8750,173.5000,21.3125,-149.5625,0
225.654,10.2448,3.3854,0.6033,0.5724,0.3794,0.2971,-45.9000,11.4000,9.3000,9.6726,-0.1867,-0.1628,0.4628,0.5891,0.0775,-70.8000,37.6500,-31.2000,3.7700,4.3400,-8.3100,0.3534,-0.1865,0.0076,-4.1875,-33.3750,12.8750,173.5000,21.3125,-149.5625,0
225.660,10.2448,3.3854,0.6033,0.5724,0.3794,0.2971,-46.8000,12.7500,8.1000,9.6726,-0.1867,-0.1628,0.1623,0.5790,0.0618,-70.8000,37.6500,-31.2000,3.5600,4.2400,-8.2100,0.3054,-0.1014,-0.0262,-4.1875,-33.3750,12.8750,173.5000,21.2500,-149.7500,0
225.665,9.0525,2.7916,0.9720,0.8026,0.1119,0.2785,-46.8000,12.7500,8.1000,9.6893,0.5578,-0.0982,-0.0536,0.5662,0.0733,-69.4500,36.7500,-29.8500,3.5600,4.2400,-8.2100,0.3054,-0.1014,-0.0262,-4.1875,-33.3750,12.8750,173.4375,21.2500,-149.8750,0
225.674,9.5241,1.9154,1.0989,0.7837,0.4418,0.2622,-46.8000,12.7500,8.1000,9.6079,1.2234,0.0742,-0.0666,0.5609,0.0911,-70.9500,36.7500,-29.5500,3.4800,4.2700,-8.1600,0.2651,-0.0316,-0.0436,-4.1875,-33.3750,12.8750,173.3750,21.2500,-150.0000,0
225.684,9.3685,1.6233,1.2905,0.8687,0.4690,0.2563,-48.9000,13.0500,8.8500,9.7731,1.6017,-0.0527,0.0330,0.5401,0.0986,-70.9500,36.7500,-29.5500,3.4900,4.3500,-8.0900,0.2193,-0.0076,-0.0436,-4.1875,-33.3750,12.8750,173.3750,21.2500,-150.0000,0
225.689,9.3685,1.6233,1.2905,0.8687,0.4690,0.2563,-46.9500,13.6500,8.7000,9.7731,1.6017,-0.0527,0.0330,0.5401,0.0986,-70.3500,38.1000,-29.4000,3.4900,4.3500,-8.0900,0.2193,-0.0076,-0.0436,-4.1875,-33.3750,12.8750,173.3750,21.2500,-150.0000,0
225.694,9.5481,1.2330,1.0798,0.7671,0.3259,0.2401,-46.9500,13.6500,8.7000,9.4739,1.8052,-0.0910,0.1815,0.5423,0.0906,-70.3500,38.1000,-29.4000,3.5300,4.3900,-8.0200,0.1942,0.0011,-0.0425,-3.5000,-32.6875,12.5000,173.0000,21.1875,-150.1250,0
225.699,9.5481,1.2330,1.0798,0.7671,0.3259,0.2401,-47.7000,14.7000,8.2500,9.4739,1.8052,-0.0910,0.1815,0.5423,0.0906,-70.3500,38.1000,-29.4000,3.5300,4.3900,-8.0200,0.1942,0.0011,-0.0425,-3.5000,-32.6875,12.5000,173.0000,21.1875,-150.1250,0
225.704,8.9783,1.3360,1.2450,0.8068,0.3408,0.2238,-47.7000,14.7000,8.2500,9.4763,1.7406,0.0120,0.3147,0.5601,0.0829,-70.3500,38.1000,-29.4000,3.4400,4.3800,-7.9500,0.1931,0.0022,-0.0491,-3.5000,-32.6875,12.5000,173.0000,21.1875,-150.1875,0
225.709,8.9783,1.3360,1.2450,0.8068,0.3408,0.2238,-48.6000,13.0500,10.2000,9.4763,1.7406,0.0120,0.3147,0.5601,0.0829,-70.8000,36.9000,-28.2000,3.4400,4.3800,-7.9500,0.2094,-0.0076,-0.0611,-3.5000,-32.6875,12.5000,172.9375,21.1875,-150.3125,0
225.715,9.2440,1.6520,1.6735,0.7938,0.4378,0.1961,-48.6000,13.0500,10.2000,9.5002,1.4413,0.3903,0.4373,0.5612,0.0698,-70.8000,36.9000,-28.2000,3.4400,4.3600,-7.9900,0.2094,-0.0076,-0.0611,-3.5000,-32.6875,12.5000,172.9375,21.1875,-150.3125,0
225.723,9.3206,1.5730,1.5371,0.7554,0.4780,0.1908,-48.6000,13.0500,10.2000,9.5648,1.1181,0.7590,0.5151,0.5353,0.0514,-70.8000,36.9000,-28.2000,3.3300,4.4400,-7.9700,0.2323,-0.0196,-0.0644,-3.5000,-32.6875,12.5000,172.8750,21.1250,-150.4375,0
225.728,9.3206,1.5730,1.5371,0.7554,0.4780,0.1908,-48.6000,13.0500,10.2000,9.5648,1.1181,0.7590,0.5151,0.5353,0.0514,-71.5500,36.1500,-28.6500,3.3300,4.4400,-7.9700,0.2607,-0.0436,-0.0676,-3.5000,-32.6875,12.5000,172.8125,21.1250,-150.5625,0
225.735,9.5840,1.3408,1.1133,0.8087,0.4261,0.1988,-48.4500,13.6500,9.0000,9.6055,0.6273,0.7446,0.5494,0.5319,0.0416,-71.5500,36.1500,-28.6500,3.5300,4.5900,-7.8000,0.2607,-0.0436,-0.0676,-3.5000,-32.6875,12.5000,172.8125,21.1250,-150.5625,0
225.739,9.5840,1.3408,1.1133,0.8087,0.4261,0.1988,-48.4500,13.6500,9.0000,9.6055,0.6273,0.7446,0.5494,0.5319,0.0416,-72.0000,37.9500,-29.5500,3.5300,4.5900,-7.8000,0.3142,-0.0709,-0.0753,-4.5625,-33.0000,12.5000,172.6875,21.0625,-150.7500,0
225.745,9.7181,1.3431,0.7685,0.8903,0.3365,0.2025,-48.6000,13.0500,7.8000,9.1435,0.0192,0.3160,0.4615,0.5748,0.0482,-71.5500,38.1000,-30.4500,3.6200,4.4400,-7.8800,0.3142,-0.0709,-0.0753,-4.5625,-33.0000,12.5000,172.6875,21.0625,-150.7500,0
225.749,9.7181,1.3431,0.7685,0.8903,0.3365,0.2025,-48.6000,13.0500,7.8000,10.0078,-0.1963,0.5052,0.4615,0.5748,0.0482,-71.5500,38.1000,-30.4500,3.6200,4.4400,-7.8800,0.3611,-0.0993,-0.0796,-4.5625,-33.0000,12.5000,172.6250,21.0000,-150.9375,0
225.755,9.7516,1.2091,0.6895,0.9212,0.3099,0.2212,-47.5500,13.0500,8.5500,10.0078,-0.1963,0.5052,0.4346,0.5252,0.0557,-71.5500,38.1000,-30.4500,3.4600,4.3400,-8.0300,0.3611,-0.0993,-0.0796,-4.5625,-33.0000,12.5000,172.6250,21.0000,-150.9375,0
225.759,9.7516,1.2091,0.6895,0.9212,0.3099,0.2212,-47.5500,13.0500,8.5500,9.9910,0.1939,0.5315,0.4346,0.5252,0.0557,-70.5000,37.5000,-28.8000,3.4600,4.3400,-8.0300,0.3785,-0.1069,-0.0829,-4.5625,-33.0000,12.5000,172.5625,20.9375,-151.1250,0
225.765,9.9647,1.2809,0.8859,0.9281,0.2888,0.2310,-48.0000,12.4500,8.7000,9.9910,0.1939,0.5315,0.3547,0.4916,0.0629,-70.5000,37.5000,-28.8000,3.3800,4.0100,-8.2900,0.3785,-0.1069,-0.0829,-4.5625,-33.0000,12.5000,172.5000,20.8125,-151.3750,0
225.774,9.8306,1.1492,1.3599,0.8391,0.1761,0.2334,-48.0000,12.4500,8.7000,9.8593,0.4717,0.7757,0.2286,0.4951,0.0637,-70.5000,37.5000,-28.8000,3.1500,4.1700,-8.2900,0.3578,-0.1014,-0.0840,-4.5625,-33.0000,12.5000,172.5000,20.8125,-151.3750,0
225.784,9.3111,0.9385,1.4557,0.6869,0.2974,0.2278,-47.8500,13.0500,8.1000,9.7252,0.7518,0.7925,0.2185,0.4732,0.0509,-71.5500,37.3500,-29.4000,3.3700,4.2400,-8.2500,0.3272,-0.0905,-0.0698,-4.5625,-33.0000,12.5000,172.4375,20.7500,-151.5000,0
225.788,9.3111,0.9385,1.4557,0.6869,0.2974,0.2278,-47.8500,13.0500,8.1000,9.5648,1.0894,0.5602,0.2185,0.4732,0.0509,-71.5500,37.3500,-29.4000,3.3700,4.2400,-8.2500,0.3272,-0.0905,-0.0698,-4.5625,-33.0000,12.5000,172.4375,20.7500,-151.5000,0
225.793,9.4212,1.0127,1.3695,0.5897,0.3826,0.2158,-49.2000,12.9000,7.2000,9.5648,1.0894,0.5602,0.2214,0.4698,0.0445,-71.5500,37.3500,-29.4000,3.5400,4.1500,-8.1700,0.2989,-0.0840,-0.0589,-4.5625,-32.8750,13.2500,172.3125,20.6875,-151.6875,0
225.798,9.4786,1.4916,1.4222,0.4674,0.4175,0.2100,-49.2000,12.9000,7.2000,9.6798,1.1732,0.6393,0.2214,0.4698,0.0445,-72.3000,38.1000,-28.6500,3.5400,4.1500,-8.1700,0.2989,-0.0840,-0.0589,-4.5625,-32.8750,13.2500,172.3125,20.6875,-151.6875,0
225.803,9.4786,1.4916,1.4222,0.4674,0.4175,0.2100,-49.2000,13.6500,6.9000,9.6798,1.1732,0.6393,0.2196,0.4722,0.0557,-72.3000,38.1000,-28.6500,3.3700,4.2000,-8.1900,0.2880,-0.0894,-0.0578,-4.5625,-32.8750,13.2500,172.3125,20.6875,-151.8750,0
225.808,9.6630,1.9034,1.2402,0.4008,0.4322,0.1980,-49.2000,13.6500,6.9000,9.8282,1.2019,0.8906,0.2403,0.4668,0.0762,-72.3000,37.3500,-28.6500,3.3700,4.2000,-8.1900,0.2934,-0.0949,-0.0535,-4.5625,-32.8750,13.2500,172.2500,20.6250,-152.0000,0
225.815,9.6630,1.9034,1.2402,0.4008,0.4322,0.1980,-47.8500,14.5500,7.8000,9.8282,1.2019,0.8906,0.2403,0.4668,0.0762,-72.3000,37.3500,-28.6500,3.3200,4.3000,-8.1600,0.2934,-0.0949,-0.0535,-4.5625,-32.8750,13.2500,172.2500,20.6250,-152.0000,0
225.824,9.4978,1.9944,1.3527,0.3395,0.3800,0.1953,-48.6000,14.2500,7.0500,9.7636,1.0965,0.8260,0.2702,0.4578,0.0818,-72.0000,37.0500,-27.3000,3.3800,4.3100,-8.1900,0.2934,-0.1004,-0.0436,-4.5625,-32.8750,13.2500,172.1875,20.5625,-152.1875,0
225.828,9.5792,1.9920,1.3671,0.3525,0.3467,0.1977,-48.6000,14.2500,7.0500,9.8474,0.7063,0.9864,0.2539,0.4495,0.0850,-72.0000,37.5000,-27.3000,3.3800,4.3100,-8.1900,0.2956,-0.1058,-0.0360,-4.5625,-32.8750,13.2500,172.1875,20.4375,-152.3750,0
225.835,9.5792,1.9920,1.3671,0.3525,0.3467,0.1977,-48.6000,14.2500,7.0500,9.8474,0.7063,0.9864,0.2539,0.4495,0.0850,-72.0000,37.5000,-27.3000,3.2300,4.2500,-8.2000,0.2956,-0.1058,-0.0360,-4.5625,-32.8750,13.2500,172.1875,20.4375,-152.3750,0
225.840,9.3661,1.5850,1.5754,0.3075,0.3757,0.2278,-48.6000,14.2500,7.0500,9.9790,0.4166,1.6113,0.2393,0.4389,0.0778,-71.2500,36.7500,-29.2500,3.2200,4.3000,-8.2200,0.2967,-0.1113,-0.0284,-4.3750,-32.5625,13.6875,172.1250,20.3750,-152.5000,0
225.845,9.3661,1.5850,1.5754,0.3075,0.3757,0.2278,-48.6000,14.5500,7.0500,9.9790,0.4166,1.6113,0.2393,0.4389,0.0778,-71.2500,36.7500,-29.2500,3.2200,4.3000,-8.2200,0.2967,-0.1113,-0.0284,-4.3750,-32.5625,13.6875,172.1250,20.3750,-152.5000,0
225.850,9.5672,1.4126,1.6688,0.3155,0.4026,0.2710,-48.6000,14.5500,7.0500,9.8904,0.1772,1.5850,0.1522,0.4141,0.0842,-72.4500,35.5500,-28.8000,3.2200,4.3000,-8.2200,0.2902,-0.1156,-0.0185,-4.3750,-32.5625,13.6875,172.0625,20.3125,-152.6875,0
225.855,9.5672,1.4126,1.6688,0.3155,0.4026,0.2710,-47.1000,15.7500,7.0500,9.8904,0.1772,1.5850,0.1522,0.4141,0.0842,-72.4500,35.5500,-28.8000,3.3500,4.1700,-8.2400,0.2902,-0.1156,-0.0185,-4.3750,-32.5625,13.6875,172.0625,20.3125,-152.6875,0
225.859,9.6367,1.1636,1.5993,0.2771,0.3906,0.3152,-47.1000,15.7500,7.0500,9.9383,0.0934,1.4581,0.1172,0.3789,0.0922,-72.4500,35.5500,-28.8000,3.3500,4.1700,-8.2400,0.2880,-0.1167,-0.0120,-4.3750,-32.5625,13.6875,172.0625,20.2500,-152.8750,0
225.865,9.6367,1.1636,1.5993,0.2771,0.3906,0.3152,-48.0000,13.2000,9.0000,9.9934,0.1484,1.4676,0.1172,0.3789,0.0922,-72.4500,35.5500,-28.8000,3.3300,3.9500,-8.2800,0.2880,-0.1167,-0.0120,-4.3750,-32.5625,13.6875,172.0625,20.1875,-153.0000,0
225.874,9.8138,1.0367,1.4940,0.2220,0.4141,0.3573,-49.3500,14.2500,7.0500,9.9934,0.1484,1.4676,0.1018,0.3565,0.0930,-71.5500,36.9000,-27.4500,3.2900,3.8800,-8.3400,0.2771,-0.1113,-0.0087,-4.3750,-32.5625,13.6875,172.0000,20.1875,-153.1875,0
225.884,9.5816,0.8523,1.5107,0.1855,0.4602,0.4048,-49.3500,14.2500,7.0500,9.7205,0.2322,1.0558,0.1114,0.3341,0.0829,-70.9500,37.5000,-27.3000,3.3500,3.9100,-8.3400,0.2542,-0.1036,-0.0065,-4.3750,-32.5625,13.6875,172.0000,20.1875,-153.1875,0
225.889,9.6295,0.9002,1.4916,0.1466,0.4703,0.4421,-49.3500,14.2500,7.0500,9.7205,0.2322,1.0558,0.0749,0.3094,0.0871,-72.3000,36.4500,-26.4000,3.3500,3.9100,-8.3400,0.2542,-0.1036,-0.0065,-4.3750,-32.5625,13.6875,171.8750,20.1250,-153.3125,0
225.894,9.6295,0.9002,1.4916,0.1466,0.4703,0.4421,-49.2000,13.2000,9.3000,9.7971,0.4334,0.8092,0.0749,0.3094,0.0871,-72.3000,36.4500,-26.4000,3.3800,3.8600,-8.3600,0.2214,-0.0916,-0.0055,-4.0000,-32.1875,14.8750,171.8750,20.1250,-153.3125,0
225.899,9.4786,1.1588,1.5131,0.1338,0.4610,0.4580,-49.2000,13.2000,9.3000,9.7971,0.4334,0.8092,0.0608,0.2907,0.0877,-71.8500,36.9000,-27.4500,3.3800,3.8600,-8.3600,0.2214,-0.0916,-0.0055,-4.0000,-32.1875,14.8750,171.8750,20.0625,-153.4375,0
225.904,9.4786,1.1588,1.5131,0.1338,0.4610,0.4580,-48.4500,13.9500,8.2500,9.7420,0.6201,0.6823,0.0608,0.2907,0.0877,-71.8500,36.9000,-27.4500,3.3200,3.9100,-8.3500,0.1920,-0.0829,-0.0109,-4.0000,-32.1875,14.8750,171.8750,20.0625,-153.4375,0
225.909,9.5624,1.3958,1.2665,0.1255,0.4549,0.4647,-48.4500,13.9500,8.2500,9.7420,0.6201,0.6823,0.1180,0.2878,0.0813,-72.3000,35.7000,-26.7000,3.3200,3.9100,-8.3500,0.1680,-0.0720,-0.0142,-4.0000,-32.1875,14.8750,171.8750,20.0625,-153.5000,0
225.915,9.5672,1.6664,1.1756,0.1415,0.4493,0.4682,-47.7000,13.6500,7.2000,9.5696,0.8380,0.7159,0.1348,0.2840,0.0778,-72.3000,35.7000,-26.7000,3.2700,3.8900,-8.3400,0.1680,-0.0720,-0.0142,-4.0000,-32.1875,14.8750,171.8750,20.0625,-153.5000,0
225.924,9.5672,1.6664,1.1756,0.1415,0.4493,0.4682,-49.6500,12.3000,8.1000,9.5600,0.8212,0.7230,0.1426,0.2995,0.0754,-71.8500,36.1500,-26.7000,3.2200,3.8500,-8.3700,0.1451,-0.0578,-0.0131,-4.0000,-32.1875,14.8750,171.8750,20.0000,-153.6250,0
225.928,9.6103,1.7765,1.1133,0.1490,0.4335,0.4479,-49.6500,12.3000,8.1000,9.5600,0.8212,0.7230,0.1426,0.2995,0.0754,-71.8500,36.1500,-26.7000,3.2200,3.8500,-8.3700,0.1265,-0.0491,-0.0131,-4.0000,-32.1875,14.8750,171.8125,19.9375,-153.6875,0
225.935,9.5074,1.5754,1.4102,0.1540,0.4386,0.4210,-48.4500,12.4500,6.1500,9.5792,0.7973,0.9385,0.1252,0.3038,0.0866,-71.8500,36.1500,-26.7000,3.2500,4.0200,-8.3100,0.1265,-0.0491,-0.0131,-4.0000,-32.1875,14.8750,171.8125,19.9375,-153.6875,0
225.940,9.5074,1.5754,1.4102,0.1540,0.4386,0.4210,-48.4500,12.4500,6.1500,9.5792,0.7973,0.9385,0.1252,0.3038,0.0866,-70.3500,36.4500,-26.4000,3.2500,4.1100,-8.2800,0.1200,-0.0480,-0.0055,-4.0000,-32.5625,14.0625,171.8125,19.9375,-153.7500,0
225.945,9.4212,1.3431,1.5969,0.1351,0.4445,0.4120,-48.4500,12.4500,6.1500,9.6079,0.7207,1.1971,0.1263,0.3104,0.0842,-70.3500,36.4500,-26.4000,3.2500,4.1100,-8.2800,0.1200,-0.0480,-0.0055,-4.0000,-32.5625,14.0625,171.8125,19.9375,-153.7500,0
225.953,9.3494,1.4102,1.6305,0.1188,0.4692,0.4032,-48.7500,13.2000,8.2500,9.6007,0.5219,1.0774,0.0211,0.3067,0.1047,-70.3500,36.4500,-26.4000,3.3000,4.1000,-8.2700,0.1244,-0.0502,-0.0033,-4.0000,-32.5625,14.0625,171.8125,19.9375,-153.8125,0
225.958,9.3494,1.4102,1.6305,0.1188,0.4692,0.4032,-48.7500,13.2000,8.2500,9.6007,0.5219,1.0774,0.0211,0.3067,0.1047,-70.8000,36.4500,-27.1500,3.3000,4.1000,-8.2700,0.1244,-0.0502,-0.0033,-4.0000,-32.5625,14.0625,171.8125,19.8750,-153.9375,0
225.965,9.4475,1.3743,1.7047,0.1354,0.4602,0.3890,-49.5000,13.9500,8.7000,9.6510,0.5219,1.0175,-0.0357,0.3107,0.1223,-70.8000,36.4500,-27.1500,3.3400,3.9800,-8.3500,0.1298,-0.0567,-0.0044,-4.0000,-32.5625,14.0625,171.8125,19.8750,-153.9375,0
225.973,9.4020,1.5826,1.5107,0.1460,0.4684,0.3848,-48.9000,15.0000,8.8500,9.6750,0.7326,1.1013,-0.0437,0.3160,0.1266,-71.7000,37.0500,-28.5000,3.3200,3.9700,-8.3600,0.1331,-0.0665,-0.0055,-4.0000,-32.5625,14.0625,171.8125,19.8750,-154.0000,0
225.978,9.4020,1.5826,1.5107,0.1460,0.4684,0.3848,-48.9000,15.0000,8.8500,9.6750,0.7326,1.1013,-0.0437,0.3160,0.1266,-72.4500,36.7500,-26.5500,3.3200,3.9700,-8.3600,0.1331,-0.0665,-0.0055,-4.0000,-32.5625,14.0625,171.8125,19.8125,-154.0625,0
225.985,9.3757,1.5706,1.4676,0.1276,0.4930,0.3957,-49.5000,13.2000,9.3000,9.5792,0.8691,0.9266,-0.0418,0.3091,0.1322,-72.4500,36.7500,-26.5500,3.2900,3.9200,-8.3800,0.1309,-0.0676,-0.0087,-4.0000,-32.5625,14.0625,171.8125,19.8125,-154.0625,0
225.990,9.3757,1.5706,1.4676,0.1276,0.4930,0.3957,-49.5000,13.2000,9.3000,9.5146,0.9146,0.8404,-0.0418,0.3091,0.1322,-70.5000,36.3000,-28.0500,3.2900,3.9200,-8.3800,0.1309,-0.0676,-0.0087,-3.5625,-32.1875,15.2500,171.6875,19.8125,-154.1250,0
225.995,9.3518,1.6951,1.3743,0.1399,0.5047,0.4088,-49.5000,13.2000,9.3000,9.5146,0.9146,0.8404,-0.0008,0.3317,0.1444,-70.5000,36.3000,-28.0500,3.2900,3.8700,-8.3900,0.1222,-0.0644,-0.0098,-3.5625,-32.1875,15.2500,171.6875,19.8125,-154.1250,0
226.000,9.3518,1.6951,1.3743,0.1399,0.5047,0.4088,-49.5000,13.2000,9.3000,9.6247,1.0127,0.7111,-0.0008,0.3317,0.1444,-72.4500,36.3000,-26.5500,3.2900,3.8700,-8.3900,0.1222,-0.0644,-0.0098,-3.5625,-32.1875,15.2500,171.6875,19.7500,-154.1875,0
226.005,9.3063,1.7597,1.4317,0.1340,0.5151,0.4018,-50.4000,15.7500,9.1500,9.6247,1.0127,0.7111,0.0242,0.3472,0.1524,-72.4500,36.3000,-26.5500,3.2400,3.9400,-8.3600,0.1036,-0.0611,-0.0098,-3.5625,-32.1875,15.2500,171.6875,19.7500,-154.1875,0
226.010,9.3063,1.7597,1.4317,0.1340,0.5151,0.4018,-48.7500,13.2000,7.9500,9.5265,0.9649,0.8164,0.0242,0.3472,0.1524,-72.3000,36.1500,-27.4500,3.2400,3.9400,-8.3600,0.0916,-0.0513,-0.0153,-3.5625,-32.1875,15.2500,171.6250,19.7500,-154.2500,0
226.015,9.3757,1.7478,1.3144,0.1316,0.5177,0.4130,-48.7500,13.2000,7.9500,9.5265,0.9649,0.8164,0.0565,0.3627,0.1535,-72.3000,36.1500,-27.4500,3.1900,3.9600,-8.3700,0.0916,-0.0513,-0.0153,-3.5625,-32.1875,15.2500,171.6250,19.7500,-154.2500,0
226.024,9.2632,1.7406,1.3408,0.1183,0.5105,0.4088,-48.3000,13.0500,9.1500,9.5002,1.0080,0.7302,0.0277,0.3712,0.1617,-72.3000,36.1500,-27.4500,3.2300,3.9700,-8.3500,0.0884,-0.0447,-0.0131,-3.5625,-32.1875,15.2500,171.6250,19.6875,-154.3125,0
226.029,9.2632,1.7406,1.3408,0.1183,0.5105,0.4088,-49.9500,13.0500,9.1500,9.4403,0.8499,0.7997,0.0277,0.3712,0.1617,-70.9500,36.0000,-28.0500,3.2300,3.9700,-8.3500,0.0873,-0.0469,-0.0087,-3.5625,-32.1875,15.2500,171.6250,19.6875,-154.3750,0
226.035,9.2416,1.6496,1.4030,0.1132,0.5007,0.4090,-49.9500,13.6500,9.3000,9.4403,0.8499,0.7997,0.0029,0.3778,0.1700,-70.9500,36.0000,-28.0500,3.1600,4.0400,-8.2800,0.0873,-0.0469,-0.0087,-3.5625,-32.1875,15.2500,171.6250,19.6875,-154.3750,0
226.040,9.3685,1.5203,1.2546,0.0858,0.4914,0.4066,-47.5500,13.5000,8.5500,9.5026,0.7829,0.8667,-0.0205,0.4048,0.1921,-72.3000,35.7000,-26.4000,3.2200,4.0200,-8.2900,0.0938,-0.0535,-0.0087,-2.5000,-32.8750,15.6875,171.3125,19.6250,-154.4375,0
226.045,9.3685,1.5203,1.2546,0.0858,0.4914,0.4066,-47.5500,13.5000,8.5500,9.5026,0.7829,0.8667,-0.0205,0.4048,0.1921,-72.3000,35.7000,-26.4000,3.2200,4.0200,-8.2900,0.0938,-0.0535,-0.0087,-2.5000,-32.8750,15.6875,171.3125,19.6250,-154.4375,0
226.054,9.4930,1.4605,1.2761,0.0504,0.4543,0.4096,-47.5500,13.5000,8.5500,9.4954,0.7997,0.9074,-0.0597,0.4101,0.2132,-72.9000,36.7500,-27.7500,3.1700,4.0200,-8.3900,0.1036,-0.0644,-0.0109,-2.5000,-32.8750,15.6875,171.3125,19.6250,-154.5000,0
226.059,9.4930,1.4605,1.2761,0.0504,0.4543,0.4096,-48.4500,14.4000,10.0500,9.4332,0.9792,0.8308,-0.0866,0.4226,0.2385,-73.2000,36.7500,-27.0000,3.1700,4.0200,-8.3900,0.1102,-0.0654,-0.0087,-2.5000,-32.8750,15.6875,171.3125,19.5625,-154.5625,0
226.065,9.3446,1.5227,1.2785,-0.0016,0.4245,0.4159,-48.4500,14.4000,10.0500,9.4332,0.9792,0.8308,-0.0866,0.4226,0.2385,-73.2000,36.7500,-27.0000,3.2100,3.9500,-8.4000,0.1102,-0.0654,-0.0087,-2.5000,-32.8750,15.6875,171.3125,19.5625,-154.5625,0
226.074,9.3877,1.5778,1.2881,-0.0514,0.4024,0.4080,-47.8500,14.5500,9.6000,9.3925,1.1947,0.3855,-0.0895,0.4423,0.2681,-73.6500,36.7500,-25.0500,3.2100,3.8800,-8.3900,0.1058,-0.0665,-0.0065,-2.5000,-32.8750,15.6875,171.3125,19.5625,-154.6250,0
226.079,9.4858,1.7885,1.2115,-0.1023,0.3171,0.3952,-48.7500,13.9500,11.5500,9.2871,1.3791,0.1125,-0.0911,0.4831,0.2793,-72.0000,35.5500,-25.8000,3.2100,3.8800,-8.3900,0.0993,-0.0698,-0.0044,-2.5000,-32.8750,15.6875,171.3125,19.5000,-154.6875,0
226.085,9.4858,1.7885,1.2115,-0.1023,0.3171,0.3952,-48.7500,13.9500,11.5500,9.2871,1.3791,0.1125,-0.0911,0.4831,0.2793,-72.0000,35.5500,-25.8000,3.1700,3.8900,-8.3800,0.0993,-0.0698,-0.0044,-2.5000,-32.8750,15.6875,171.3125,19.5000,-154.6875,0
226.090,9.1315,1.9393,1.2809,-0.1210,0.3219,0.3683,-48.4500,14.4000,9.3000,9.3877,1.6592,0.2107,-0.0392,0.5308,0.2899,-72.0000,35.5500,-25.8000,3.1700,3.8900,-8.3800,0.0894,-0.0644,-0.0055,-3.5625,-31.5000,14.8750,171.2500,19.4375,-154.7500,0
226.095,9.1315,1.9393,1.2809,-0.1210,0.3219,0.3683,-48.4500,14.4000,9.3000,9.3877,1.6592,0.2107,-0.0392,0.5308,0.2899,-72.0000,35.5500,-25.8000,3.1100,3.9600,-8.3800,0.0894,-0.0644,-0.0055,-3.5625,-31.5000,14.8750,171.2500,19.4375,-154.7500,0
226.100,9.4379,1.9632,1.2306,-0.1836,0.2771,0.3371,-48.4500,14.4000,9.3000,9.2751,1.5275,0.5195,0.0346,0.5524,0.3056,-72.6000,36.9000,-26.1000,3.1100,3.9600,-8.3800,0.0796,-0.0600,-0.0011,-3.5625,-31.5000,14.8750,171.2500,19.4375,-154.8125,0
226.105,9.4379,1.9632,1.2306,-0.1836,0.2771,0.3371,-48.4500,14.4000,9.3000,9.3996,1.1013,0.7853,0.0346,0.5524,0.3056,-72.6000,36.9000,-26.1000,2.9800,4.1000,-8.3800,0.0796,-0.0600,-0.0011,-3.5625,-31.5000,14.8750,171.2500,19.4375,-154.8125,0
226.110,9.4403,2.0111,1.2474,-0.2289,0.1601,0.3192,-48.4500,14.4000,9.3000,9.3996,1.1013,0.7853,0.0213,0.5804,0.3387,-72.6000,36.9000,-26.1000,2.9800,4.1000,-8.3800,0.0851,-0.0644,0.0055,-3.5625,-31.5000,14.8750,171.2500,19.3750,-154.8125,0
226.115,9.4403,2.0111,1.2474,-0.2289,0.1601,0.3192,-48.4500,14.4000,9.3000,9.4739,0.9553,1.0127,0.0213,0.5804,0.3387,-72.6000,36.9000,-26.1000,3.0700,4.0400,-8.4100,0.0851,-0.0644,0.0055,-3.5625,-31.5000,14.8750,171.2500,19.3750,-154.8125,0
226.124,9.5409,2.0039,1.5490,-0.2854,0.1463,0.2891,-50.4000,13.8000,9.9000,9.4739,0.9553,1.0127,-0.1053,0.5910,0.3714,-73.3500,35.4000,-24.1500,3.0500,4.0300,-8.4400,0.0949,-0.0742,0.0098,-3.5625,-31.5000,14.8750,171.2500,19.3125,-154.8750,0
226.129,9.4523,1.9848,1.6783,-0.3837,0.1394,0.2673,-48.7500,13.2000,8.7000,9.5433,0.9098,1.2594,-0.1585,0.6038,0.4032,-72.9000,35.5500,-26.5500,3.0500,4.0300,-8.4400,0.0960,-0.0829,0.0185,-3.5625,-31.5000,14.8750,171.2500,19.3125,-154.9375,0
226.135,9.4523,1.9848,1.6783,-0.3837,0.1394,0.2673,-48.7500,13.2000,8.7000,9.6103,0.7877,1.4198,-0.2084,0.6073,0.4333,-72.9000,35.5500,-26.5500,3.1300,4.0900,-8.4500,0.0960,-0.0829,0.0185,-3.5625,-31.5000,14.8750,171.2500,19.3125,-154.9375,0
226.141,9.5122,1.6999,1.5036,-0.4802,0.1649,0.2603,-48.0000,13.6500,10.8000,9.6103,0.7877,1.4198,-0.2084,0.6073,0.4333,-73.6500,37.0500,-25.0500,3.1400,4.0600,-8.5100,0.0938,-0.0818,0.0262,-3.5625,-31.8750,15.2500,171.2500,19.2500,-155.0000,0
226.145,9.5122,1.6999,1.5036,-0.4802,0.1649,0.2603,-48.0000,13.6500,10.8000,9.5888,0.6823,1.3479,-0.2870,0.6158,0.4610,-73.6500,37.0500,-25.0500,3.1400,4.0600,-8.5100,0.0938,-0.0818,0.0262,-3.5625,-31.8750,15.2500,171.2500,19.1875,-155.0625,0
226.155,9.2416,1.3862,1.6185,-0.5401,0.1641,0.2683,-48.4500,15.4500,10.0500,9.6007,0.6369,1.4030,-0.3232,0.6384,0.4972,-73.8000,35.7000,-26.1000,3.1600,4.0100,-8.5100,0.0807,-0.0785,0.0316,-3.5625,-31.8750,15.2500,171.2500,19.1875,-155.0625,0
226.160,9.3302,1.2641,1.7693,-0.5686,0.1260,0.2742,-48.4500,15.4500,10.0500,9.6007,0.6369,1.4030,-0.3232,0.6384,0.4972,-73.8000,35.7000,-26.1000,3.1600,4.0100,-8.5100,0.0644,-0.0742,0.0404,-3.5625,-31.8750,15.2500,171.3125,19.1875,-155.1250,0
226.165,9.3302,1.2641,1.7693,-0.5686,0.1260,0.2742,-48.4500,15.4500,10.0500,9.5624,0.8308,1.2498,-0.2785,0.6392,0.5119,-73.8000,35.7000,-26.1000,3.1500,3.9700,-8.5400,0.0644,-0.0742,0.0404,-3.5625,-31.8750,15.2500,171.3125,19.1875,-155.1250,0
226.174,9.3853,1.0942,1.9154,-0.5958,0.0922,0.2787,-49.3500,13.8000,10.2000,9.6127,0.5794,1.2881,-0.2249,0.6752,0.5287,-73.3500,35.7000,-24.9000,3.1100,3.9800,-8.6000,0.0524,-0.0622,0.0415,-3.5625,-31.8750,15.2500,171.3125,19.1250,-155.1250,0
226.179,9.4954,1.0391,1.8411,-0.5740,0.0719,0.2878,-50.1000,13.0500,10.6500,9.6127,0.5794,1.2881,-0.2249,0.6752,0.5287,-73.3500,35.7000,-24.9000,3.1100,3.9800,-8.6000,0.0284,-0.0436,0.0458,-3.5625,-31.8750,15.2500,171.3125,19.1250,-155.1875,0
226.185,9.8665,1.0032,1.8459,-0.5431,0.0264,0.2880,-50.1000,13.0500,10.6500,9.7923,0.6177,1.4676,-0.1684,0.7013,0.5612,-73.3500,35.7000,-24.9000,3.1800,3.9100,-8.6300,0.0284,-0.0436,0.0458,-3.5625,-31.8750,15.2500,171.3125,19.1250,-155.1875,0
226.190,9.8665,1.0032,1.8459,-0.5431,0.0264,0.2880,-49.3500,12.3000,10.9500,9.7923,0.6177,1.4676,-0.1684,0.7013,0.5612,-74.1000,35.4000,-24.1500,3.1800,3.9100,-8.6300,-0.0033,-0.0153,0.0491,-4.3750,-32.5625,15.2500,171.3750,19.1250,-155.1875,0
226.195,9.7899,1.0199,1.8292,-0.4868,-0.0256,0.2886,-49.3500,12.3000,10.9500,9.7995,0.4669,1.8076,-0.1085,0.7221,0.5814,-74.1000,35.4000,-24.1500,3.0300,3.9100,-8.6900,-0.0033,-0.0153,0.0491,-4.3750,-32.5625,15.2500,171.3750,19.1250,-155.1875,0
226.200,9.7899,1.0199,1.8292,-0.4868,-0.0256,0.2886,-49.3500,13.0500,12.4500,9.7995,0.4669,1.8076,-0.1085,0.7221,0.5814,-72.6000,35.4000,-24.1500,3.0300,3.9100,-8.6900,-0.0425,0.0229,0.0513,-4.3750,-32.5625,15.2500,171.4375,19.1250,-155.1875,0
226.205,9.8761,1.1540,1.9225,-0.4586,-0.0775,0.2939,-49.3500,13.0500,12.4500,10.1418,0.1915,2.0518,-0.1215,0.7338,0.6057,-72.6000,35.4000,-24.1500,3.1300,4.0000,-8.7800,-0.0425,0.0229,0.0513,-4.3750,-32.5625,15.2500,171.4375,19.1250,-155.1875,0
226.210,9.8761,1.1540,1.9225,-0.4586,-0.0775,0.2939,-48.7500,13.9500,11.5500,10.1418,0.1915,2.0518,-0.1215,0.7338,0.6057,-74.7000,34.8000,-24.3000,3.1300,4.0000,-8.7800,-0.0938,0.0709,0.0567,-4.3750,-32.5625,15.2500,171.4375,19.1875,-155.1250,0
226.215,9.9288,1.2953,1.9896,-0.4855,-0.0962,0.3150,-48.7500,13.9500,11.5500,10.0987,-0.0599,2.0853,-0.1708,0.7354,0.6411,-74.7000,34.8000,-24.3000,3.0800,3.9300,-8.8200,-0.0938,0.0709,0.0567,-4.3750,-32.5625,15.2500,171.4375,19.1875,-155.1250,0
226.224,9.9264,1.5371,2.1691,-0.5135,-0.1183,0.3280,-48.7500,13.9500,11.5500,10.0892,0.0144,2.1883,-0.2180,0.7522,0.6760,-75.6000,34.2000,-21.9000,3.1600,3.9700,-8.8500,-0.1604,0.1156,0.0633,-4.3750,-32.5625,15.2500,171.5000,19.2500,-155.0625,0
226.229,9.9264,1.5371,2.1691,-0.5135,-0.1183,0.3280,-49.3500,13.0500,11.4000,10.0892,0.0144,2.1883,-0.2180,0.7522,0.6760,-74.8500,35.4000,-24.6000,3.1600,3.9700,-8.8500,-0.2356,0.1734,0.0633,-4.3750,-32.5625,15.2500,171.5000,19.3750,-154.9375,0
226.235,10.0987,1.7549,2.3679,-0.5044,-0.1370,0.3376,-49.3500,13.0500,11.4000,10.3884,0.3208,2.1356,-0.2681,0.7546,0.7282,-74.8500,35.4000,-24.6000,3.0600,4.0300,-8.8700,-0.2356,0.1734,0.0633,-4.3750,-32.5625,15.2500,171.5000,19.3750,-154.9375,0
226.240,10.0987,1.7549,2.3679,-0.5044,-0.1370,0.3376,-49.2000,13.6500,11.1000,11.0181,1.2163,1.6257,-0.2681,0.7546,0.7282,-74.7000,35.1000,-23.2500,3.0600,4.0300,-8.8700,-0.2356,0.1734,0.0633,-4.3750,-32.5625,15.2500,171.3125,19.5000,-154.7500,0
226.245,10.9008,1.8579,2.3607,-0.4708,-0.1788,0.3200,-49.9500,13.2000,12.6000,11.0181,1.2163,1.6257,-0.2971,0.7442,0.7954,-74.7000,35.1000,-23.2500,2.8300,4.1100,-9.2100,-0.3218,0.2389,0.0633,-3.1875,-32.0625,17.1875,171.3125,19.5000,-154.7500,0
226.250,10.9008,1.8579,2.3607,-0.4708,-0.1788,0.3200,-49.9500,13.2000,12.6000,11.3772,0.1532,1.1564,-0.2971,0.7442,0.7954,-74.7000,35.1000,-23.2500,2.8300,4.1100,-9.2100,-0.3218,0.2389,0.0633,-3.1875,-32.0625,17.1875,171.3750,19.6875,-154.5000,0
226.255,11.5041,1.9656,2.3774,-0.3965,-0.2499,0.3115,-48.4500,13.9500,12.1500,11.3772,0.1532,1.1564,-0.1426,0.7727,0.8274,-74.7000,35.1000,-23.2500,2.7900,4.3600,-9.4400,-0.3676,0.3491,0.0698,-3.1875,-32.0625,17.1875,171.3750,19.6875,-154.5000,0
226.260,11.5041,1.9656,2.3774,-0.3965,-0.2499,0.3115,-48.4500,13.9500,12.1500,11.3892,-2.1452,1.0558,-0.2891,0.8474,0.9206,-74.7000,35.1000,-23.7000,2.7900,4.3600,-9.4400,-0.3894,0.5105,0.0753,-3.1875,-32.0625,17.1875,171.3750,19.9375,-154.2500,0
226.265,11.5688,1.9513,2.2218,-0.2374,-0.2705,0.2931,-48.4500,13.9500,12.1500,11.3892,-2.1452,1.0558,-0.2891,0.8474,0.9206,-74.7000,35.1000,-23.7000,2.6100,5.0100,-9.3500,-0.3894,0.5105,0.0753,-3.1875,-32.0625,17.1875,171.3125,20.3125,-154.0625,0
226.275,11.6167,2.0806,1.9704,0.0426,-0.2249,0.2649,-48.4500,13.9500,12.1500,11.7819,-0.1173,0.2274,-0.1053,0.9268,1.0253,-73.3500,34.5000,-22.6500,2.5400,2.3800,-9.9200,-0.2673,0.7418,0.0055,-3.1875,-32.0625,17.1875,171.3125,20.3125,-154.0625,0
226.285,11.8058,2.6839,1.6376,0.2515,-0.2214,0.2494,-50.2500,14.4000,11.4000,11.3892,2.2889,1.2306,0.0733,0.8985,0.9326,-74.1000,33.4500,-23.1000,2.1900,5.8700,-9.0300,-0.0164,1.0832,-0.0578,-3.1875,-32.0625,17.1875,171.1250,20.8750,-153.9375,0
226.290,11.8058,2.6839,1.6376,0.2515,-0.2214,0.2494,-50.2500,14.4000,12.6000,12.0668,1.1061,1.5347,0.1743,1.0120,0.9459,-74.1000,33.4500,-23.1000,2.1900,5.8700,-9.0300,-0.0164,1.0832,-0.0578,-3.1875,-32.0625,17.1875,170.8750,21.5625,-153.7500,0
226.295,11.6765,3.0358,1.0199,0.3802,-0.2803,0.1919,-50.4000,13.5000,10.9500,12.0668,1.1061,1.5347,0.1743,1.0120,0.9459,-75.4500,33.6000,-22.9500,2.4300,5.8900,-9.4300,-0.1505,1.3755,0.1724,-2.8750,-31.5000,16.3750,170.8750,21.5625,-153.7500,0
226.300,11.6765,3.0358,1.0199,0.3802,-0.2803,0.1919,-50.4000,13.5000,10.9500,12.7850,0.8188,0.6728,0.1812,1.0794,1.0856,-75.4500,33.6000,-22.9500,2.4300,5.8900,-9.4300,-0.1505,1.3755,0.1724,-2.8750,-31.5000,16.3750,170.8125,22.5625,-153.6875,0
226.305,11.6717,3.4285,0.3639,0.4463,-0.3349,0.1164,-49.3500,15.0000,12.4500,12.7850,0.8188,0.6728,0.1812,1.0794,1.0856,-74.7000,32.8500,-21.7500,3.1800,4.2300,-9.2300,0.0120,1.7551,0.3720,-2.8750,-31.5000,16.3750,170.8125,22.5625,-153.6875,0
226.309,11.6717,3.4285,0.3639,0.4463,-0.3349,0.1164,-49.3500,15.0000,12.4500,13.0269,-0.0982,0.0862,-0.0967,1.0765,1.1700,-74.7000,32.8500,-21.7500,3.1800,4.2300,-9.2300,0.1724,2.2613,0.5563,-2.8750,-31.5000,16.3750,170.8125,23.8125,-153.6250,0
226.315,12.1099,4.0007,-0.1532,0.4293,-0.4178,0.0112,-50.1000,13.8000,12.0000,13.0269,-0.0982,0.0862,-0.0967,1.0765,1.1700,-75.6000,32.2500,-21.1500,3.1200,7.5600,-9.6100,0.1724,2.2613,0.5563,-2.8750,-31.5000,16.3750,170.9375,25.1875,-153.5625,0
226.325,11.7005,4.3479,-0.9146,0.3714,-0.5263,-0.0946,-50.1000,13.8000,12.0000,12.6414,0.0551,-0.2059,-0.3528,1.1221,1.1583,-75.6000,32.2500,-21.1500,2.8100,5.0900,-9.0700,0.0513,2.4936,0.7090,-2.8750,-31.5000,16.3750,170.9375,25.1875,-153.5625,0
226.335,11.2168,4.2593,-1.9992,0.4261,-0.6030,-0.1865,-50.1000,15.0000,10.6500,12.4211,0.4645,-0.8523,-0.5473,1.2105,1.1660,-76.9500,31.9500,-20.7000,4.0100,4.9400,-8.8100,-0.0404,2.4566,0.8487,-2.8750,-31.5000,16.3750,171.1250,26.6250,-153.4375,0
226.339,11.2168,4.2593,-1.9992,0.4261,-0.6030,-0.1865,-50.1000,15.0000,10.6500,12.3565,1.0558,-1.5850,-0.7789,1.2817,1.2241,-76.9500,31.9500,-20.7000,4.0100,4.9400,-8.8100,-0.0404,2.4566,0.8487,-2.8750,-31.5000,16.3750,171.1250,26.6250,-153.4375,0
226.344,11.1187,4.0773,-2.7797,0.4810,-0.7730,-0.2832,-48.9000,15.0000,10.6500,12.3565,1.0558,-1.5850,-0.7789,1.2817,1.2241,-76.9500,31.9500,-20.7000,3.3700,5.2800,-9.1400,-0.1276,2.6224,1.1966,-4.3750,-32.1875,14.7500,171.4375,28.2500,-153.3125,0
226.349,11.1187,4.0773,-2.7797,0.4810,-0.7730,-0.2832,-48.9000,15.0000,10.6500,12.3589,1.5467,-1.6879,-0.8777,1.3467,1.3315,-76.9500,31.9500,-20.7000,3.3700,5.2800,-9.1400,-0.1276,2.6224,1.1966,-4.3750,-32.1875,14.7500,171.4375,28.2500,-153.3125,0
226.354,10.6039,3.7948,-3.1244,0.4583,-1.0714,-0.3808,-50.8500,15.0000,12.4500,12.3589,1.5467,-1.6879,-0.8777,1.3467,1.3315,-77.4000,32.8500,-19.2000,3.2800,5.0600,-8.9200,-0.1342,2.9180,1.6068,-4.3750,-32.1875,14.7500,172.0000,30.0625,-153.3125,0
226.359,10.6039,3.7948,-3.1244,0.3874,-1.3662,-0.4698,-50.8500,15.0000,12.4500,12.1793,1.7885,-2.2745,-0.8458,1.3843,1.4485,-77.4000,32.8500,-19.2000,3.2800,5.0600,-8.9200,-0.0371,3.3259,1.9657,-4.3750,-32.1875,14.7500,172.6875,32.2500,-153.3750,0
226.365,10.0892,3.4093,-3.2058,0.3874,-1.3662,-0.4698,-49.9500,14.4000,10.5000,11.6095,1.9968,-3.1101,-0.8458,1.3843,1.4485,-76.5000,31.8000,-17.8500,3.3700,5.3200,-9.1800,-0.0371,3.3259,1.9657,-4.3750,-32.1875,14.7500,173.5000,34.5625,-153.6250,0
226.375,9.4834,3.0215,-2.5283,0.4026,-1.5162,-0.5558,-49.9500,14.4000,10.5000,11.2408,2.0901,-3.4405,-0.7346,1.4035,1.5346,-75.4500,30.4500,-18.0000,4.3000,6.1600,-8.9000,0.1702,3.5834,2.2831,-4.3750,-32.1875,14.7500,173.5000,34.5625,-153.6250,0
226.385,8.9807,2.7581,-1.5730,0.4735,-1.5434,-0.6344,-49.5000,14.4000,9.7500,10.6877,2.7438,-3.4477,-0.5281,1.4394,1.5713,-76.9500,28.5000,-16.6500,4.7800,6.2200,-8.6600,0.5138,3.5779,2.5820,-4.3750,-32.1875,14.7500,174.4375,37.0000,-154.1875,0
226.389,8.8705,2.4541,-0.5674,0.6041,-1.5607,-0.6984,-49.5000,14.4000,9.7500,10.6877,2.7438,-3.4477,-0.2718,1.4962,1.5604,-76.9500,28.5000,-16.6500,4.7800,6.2200,-8.6600,0.5138,3.5779,2.5820,-4.3750,-32.1875,14.7500,174.4375,37.0000,-154.1875,0
226.395,8.8705,2.4541,-0.5674,0.6041,-1.5607,-0.6984,-49.3500,15.7500,8.5500,10.1155,3.3591,-2.3703,-0.0749,1.5199,1.4765,-77.2500,28.6500,-17.5500,5.5600,7.0300,-8.0200,0.9392,3.4721,2.8700,-8.7500,-31.5000,14.7500,229.4375,39.3750,-155.1875,0
226.399,9.3637,2.1883,-0.0718,0.7893,-1.6012,-0.7914,-49.3500,15.7500,8.5500,10.1155,3.3591,-2.3703,-0.0749,1.5199,1.4765,-77.2500,28.6500,-17.5500,5.5600,7.0300,-8.0200,0.9392,3.4721,2.8700,-8.7500,-31.5000,14.7500,229.4375,39.3750,-155.1875,0
226.404,9.3637,2.1883,-0.0718,0.7893,-1.6012,-0.7914,-48.0000,16.6500,9.3000,9.2273,3.8595,-0.6464,0.0576,1.5087,1.3448,-76.2000,30.0000,-15.4500,6.3600,7.7900,-9.8700,1.4148,3.5757,3.3358,-8.7500,-31.5000,14.7500,223.9375,41.9375,-156.7500,0
226.409,8.2552,1.7669,0.2490,0.7839,-1.4983,-0.9214,-48.0000,16.6500,9.3000,9.2273,3.8595,-0.6464,0.0576,1.5087,1.3448,-76.2000,30.0000,-15.4500,6.3600,7.7900,-9.8700,2.0268,3.5637,3.7743,-8.7500,-31.5000,14.7500,217.8125,44.5625,-159.0000,0
226.416,8.2552,1.7669,0.2490,0.7839,-1.4983,-0.9214,-48.9000,15.7500,8.8500,8.7364,3.7876,0.5076,0.0328,1.4330,1.2199,-76.2000,30.0000,-15.4500,5.1100,6.3200,-9.3800,2.0268,3.5637,3.7743,-8.7500,-31.5000,14.7500,211.6875,46.8125,-161.8750,0
226.425,9.8641,1.0511,-0.0335,0.9297,-1.0744,-1.0621,-48.9000,16.0500,8.5500,7.6088,3.0981,2.3008,0.3336,1.3752,1.1514,-76.9500,28.9500,-14.7000,4.6300,6.4000,-8.2200,2.5056,2.9202,3.7699,-8.7500,-31.5000,14.7500,211.6875,46.8125,-161.8750,0
226.435,10.6518,0.2514,0.3926,0.9995,-1.5905,-1.1666,-48.9000,16.0500,8.5500,6.8785,1.0391,4.4963,0.8236,1.4831,1.1279,-75.3000,27.4500,-14.5500,4.8000,6.5800,-7.4600,2.9474,2.6158,3.6652,-8.7500,-31.5000,14.7500,205.5000,48.7500,-165.1875,0
226.440,9.7612,-0.3496,1.2426,0.8729,-1.5783,-1.2412,-48.9000,16.0500,8.5500,6.8785,1.0391,4.4963,0.8236,1.4831,1.1279,-75.3000,27.4500,-14.5500,4.8000,6.5800,-7.4600,2.9474,2.6158,3.6652,-8.7500,-31.5000,14.7500,205.5000,48.7500,-165.1875,0
226.445,9.7612,-0.3496,1.2426,0.8729,-1.5783,-1.2412,-46.0500,16.8000,6.7500,7.1994,-0.7901,8.0924,1.5180,1.7621,1.1586,-76.6500,27.7500,-14.7000,9.2800,5.6500,-7.9400,3.2234,3.1590,3.3096,-15.3750,-30.0000,14.5000,199.3125,50.8750,-168.6250,0
226.449,8.9591,-0.5890,1.8818,0.4311,-1.1956,-1.2865,-46.0500,16.8000,6.7500,7.1994,-0.7901,8.0924,1.5180,1.7621,1.1586,-76.6500,27.7500,-14.7000,9.2800,5.6500,-7.9400,3.2234,3.1590,3.3096,-15.3750,-30.0000,14.5000,199.3125,50.8750,-168.6250,0
226.454,8.9591,-0.5890,1.8818,0.4311,-1.1956,-1.2865,-47.1000,16.5000,7.8000,10.5321,-5.2457,15.7706,2.4261,1.9348,1.0056,-76.9500,27.7500,-13.2000,12.8800,4.3700,-9.4400,3.3598,4.0644,2.6496,-15.3750,-30.0000,14.5000,193.5625,53.3750,-171.8750,0
226.459,9.8258,-0.8236,1.7693,-0.2646,-0.8460,-1.2436,-47.1000,16.5000,7.8000,10.5321,-5.2457,15.7706,2.4261,1.9348,1.0056,-76.9500,27.7500,-13.2000,12.8800,4.3700,-9.4400,3.0707,4.3077,1.9493,-15.3750,-30.0000,14.5000,188.8125,55.8750,-174.6875,0
226.466,9.8258,-0.8236,1.7693,-0.2646,-0.8460,-1.2436,-44.4000,15.1500,5.1000,10.0437,0.1724,10.5584,1.9875,1.0555,0.8897,-75.4500,27.3000,-13.2000,15.4300,5.6700,-11.2500,3.0707,4.3077,1.9493,-15.3750,-30.0000,14.5000,185.0625,58.0000,-177.2500,0
226.475,11.8872,-1.2929,2.4181,-0.4016,-0.7677,-1.1735,-45.7500,16.5000,7.3500,9.6822,-3.8810,7.5202,2.4331,1.0682,0.7584,-76.2000,27.3000,-14.4000,9.1700,13.3700,-18.0800,2.6824,3.7677,1.5381,-15.3750,-30.0000,14.5000,185.0625,58.0000,-177.2500,0
226.485,12.5217,-1.0104,0.9122,-0.1937,-1.1106,-1.1471,-45.7500,16.5000,7.3500,10.7500,-1.3695,6.2584,1.5849,0.7456,0.5798,-76.2000,27.3000,-14.4000,3.7900,12.8300,-14.4300,2.0562,2.3551,1.3341,-15.3750,-30.0000,14.5000,182.2500,59.3125,-179.5625,0
226.490,13.3549,-0.7111,1.9369,-0.3376,-1.1743,-1.1831,-45.7500,16.5000,7.3500,6.4620,-1.9225,3.0191,1.5849,0.7456,0.5798,-76.2000,27.3000,-14.4000,3.7900,12.8300,-14.4300,2.0562,2.3551,1.3341,-15.3750,-30.0000,14.5000,180.3750,59.5625,178.9375,0
226.495,13.1753,-0.0024,3.9816,-0.5177,-0.7317,-1.1671,-45.7500,18.7500,5.7000,6.4620,-1.9225,3.0191,1.5799,0.6712,0.3440,-75.3000,26.7000,-14.5500,-2.6700,18.4400,-8.9400,1.8206,0.4592,0.4636,-23.0625,-25.5625,14.0625,180.3750,59.5625,178.9375,0
226.500,13.1753,-0.0024,3.9816,-0.5177,-0.7317,-1.1671,-45.7500,18.7500,5.7000,6.8977,-0.9194,3.8211,1.5799,0.6712,0.3440,-75.3000,26.7000,-14.5500,-2.6700,18.4400,-8.9400,1.8206,0.4592,0.4636,-23.0625,-25.5625,14.0625,180.3750,59.5625,178.9375,0
226.505,10.8793,-0.0144,4.5131,-0.5348,-1.0818,-1.1181,-45.7500,18.7500,5.7000,6.8977,-0.9194,3.8211,1.4698,0.4357,0.1258,-75.3000,26.7000,-14.5500,-0.4500,-0.2200,-5.1700,2.6791,-1.2446,-0.9054,-23.0625,-25.5625,14.0625,178.2500,58.8750,178.3125,0
226.510,10.8793,-0.0144,4.5131,-0.5348,-1.0818,-1.1181,-45.7500,18.7500,5.7000,7.2927,-0.3926,5.2409,1.4698,0.4357,0.1258,-75.3000,26.7000,-14.5500,-0.4500,-0.2200,-5.1700,2.4729,-1.5948,-1.7791,-23.0625,-25.5625,14.0625,176.7500,58.0625,178.5625,0
226.516,9.6654,0.0814,4.7812,-0.3832,-0.5135,-1.0597,-46.0500,18.7500,5.2500,7.2927,-0.3926,5.2409,1.3494,0.0959,-0.1159,-75.6000,27.9000,-13.0500,-4.1300,1.6200,-1.7900,2.4729,-1.5948,-1.7791,-23.0625,-25.5625,14.0625,176.4375,57.0625,179.3750,0
226.525,10.0006,0.5722,4.2713,-0.2401,-0.3696,-1.0280,-45.9000,18.1500,5.8500,5.8849,-1.4485,5.8754,1.2100,-0.3461,-0.2486,-76.0500,27.1500,-12.7500,-5.6500,4.0100,-0.9600,1.2163,-1.8042,-1.6297,-23.0625,-25.5625,14.0625,176.4375,57.0625,179.3750,0
226.535,9.9192,1.5036,3.2705,0.0077,-0.7048,-1.0216,-47.4000,19.2000,6.4500,5.4564,-1.1684,5.5952,1.0808,-0.6424,-0.3288,-76.2000,27.7500,-14.7000,2.0300,4.0400,-7.4800,0.2553,-0.2618,-1.4879,-23.0625,-25.5625,14.0625,177.0000,56.9375,-179.4375,0
226.540,9.9192,1.5036,3.2705,0.0077,-0.7048,-1.0216,-47.4000,19.2000,6.4500,6.3255,-1.0558,5.0996,0.8076,-0.9880,-0.4090,-76.2000,27.7500,-14.7000,2.0300,4.0400,-7.4800,0.2553,-0.2618,-1.4879,-23.0625,-25.5625,14.0625,177.0000,56.9375,-179.4375,0
226.545,9.5936,1.8938,2.5642,0.1847,-0.8362,-1.0355,-47.4000,19.2000,6.4500,6.3255,-1.0558,5.0996,0.8076,-0.9880,-0.4090,-75.9000,28.0500,-13.2000,-0.7000,5.4200,-5.0600,-0.0720,-0.8628,-1.4214,-23.3750,-23.3750,17.0000,177.3125,56.4375,-178.2500,0
226.549,9.5936,1.8938,2.5642,0.1847,-0.8362,-1.0355,-47.4000,19.2000,6.4500,6.4428,-1.2354,4.6328,0.6318,-1.2521,-0.4887,-75.9000,28.0500,-13.2000,-0.7000,5.4200,-5.0600,-0.0720,-0.8628,-1.4214,-23.3750,-23.3750,17.0000,177.3125,56.4375,-178.2500,0
226.554,9.8114,2.0327,1.9680,0.3568,-0.7610,-1.0579,-46.6500,18.1500,4.8000,6.4428,-1.2354,4.6328,0.6318,-1.2521,-0.4887,-75.9000,28.0500,-13.2000,1.9100,5.6400,-6.4600,-0.3578,-1.2850,-1.5828,-23.3750,-23.3750,17.0000,178.6250,55.6875,-176.7500,0
226.559,9.8114,2.0327,1.9680,0.3568,-0.7610,-1.0579,-46.6500,18.1500,4.8000,6.8259,-1.8866,4.5250,0.5161,-1.5012,-0.5985,-75.9000,28.0500,-13.2000,1.9100,5.6400,-6.4600,-0.3611,-1.4410,-1.6602,-23.3750,-23.3750,17.0000,180.0000,54.8125,-175.3125,0
226.566,10.2304,1.8196,1.0942,0.4053,-0.7626,-1.0762,-44.5500,19.0500,5.7000,6.8259,-1.8866,4.5250,0.5161,-1.5012,-0.5985,-76.2000,29.7000,-15.1500,1.8400,5.9900,-5.5300,-0.3611,-1.4410,-1.6602,-23.3750,-23.3750,17.0000,181.5625,53.6250,-173.8750,0
226.575,9.9000,1.5036,0.6345,0.4807,-0.7005,-1.0682,-46.8000,18.0000,6.3000,6.5266,-1.3599,4.2497,0.2321,-1.7304,-0.6555,-76.2000,29.7000,-15.1500,1.1900,4.0600,-4.4500,-0.3676,-2.0355,-1.7966,-23.3750,-23.3750,17.0000,181.5625,53.6250,-173.8750,0
226.585,9.6486,1.2881,0.6728,0.6177,-0.5742,-1.0320,-46.2000,17.7000,2.5500,6.7086,-1.0654,3.4524,-0.1119,-1.9481,-0.6955,-75.4500,29.2500,-15.9000,2.5500,3.0000,-5.2700,-0.5007,-1.7377,-1.8850,-23.3750,-23.3750,17.0000,183.3125,52.5000,-172.3750,0
226.590,9.6486,1.2881,0.6728,0.6177,-0.5742,-1.0320,-46.2000,17.7000,2.5500,7.4795,-0.8667,4.1108,-0.2020,-2.0925,-0.7730,-75.4500,29.2500,-15.9000,2.5500,3.0000,-5.2700,-0.5007,-1.7377,-1.8850,-23.3750,-23.3750,17.0000,183.3125,52.5000,-172.3750,0
226.594,9.3302,0.8547,0.8667,0.7815,-0.5145,-0.9808,-46.2000,17.7000,2.5500,7.4795,-0.8667,4.1108,-0.2020,-2.0925,-0.7730,-75.6000,30.3000,-17.5500,1.5400,2.9700,-4.9600,-0.6567,-1.9406,-1.8817,-21.0625,-25.8750,18.3750,185.2500,51.3125,-170.8750,0
226.599,9.3302,0.8547,0.8667,0.7815,-0.5145,-0.9808,-46.2000,17.7000,2.5500,8.0661,-0.8595,5.0206,-0.3325,-2.3209,-0.8876,-75.6000,30.3000,-17.5500,1.5400,2.9700,-4.9600,-0.6567,-1.9406,-1.8817,-21.0625,-25.8750,18.3750,185.2500,51.3125,-170.8750,0
226.604,8.9878,0.7422,0.9649,0.9230,-0.4245,-0.9238,-46.2000,17.7000,2.5500,8.0661,-0.8595,5.0206,-0.3325,-2.3209,-0.8876,-74.7000,30.9000,-17.4000,3.8400,4.3900,-7.2300,-0.9119,-2.1468,-1.8348,-21.0625,-25.8750,18.3750,187.6250,49.9375,-169.4375,0
226.608,8.9878,0.7422,0.9649,0.9230,-0.4245,-0.9238,-46.2000,17.7000,2.5500,8.1139,-1.1516,5.0877,-0.5284,-2.5452,-0.9875,-74.7000,30.9000,-17.4000,3.8400,4.3900,-7.2300,-0.9119,-2.1468,-1.8348,-21.0625,-25.8750,18.3750,190.3125,48.6875,-167.9375,0
226.616,8.6311,0.8284,0.8452,1.0267,-0.2923,-0.8537,-42.0000,17.5500,3.4500,7.9871,-1.3791,4.7453,-0.6925,-2.6867,-1.0861,-78.1500,32.4000,-19.5000,4.6100,4.0400,-7.7500,-1.1257,-1.9951,-1.7148,-21.0625,-25.8750,18.3750,193.1875,47.3125,-166.6250,0
226.625,8.5928,1.0080,0.5578,1.0936,-0.2374,-0.7866,-44.4000,19.2000,3.0000,8.1235,-1.5658,4.7573,-0.8466,-2.7691,-1.1855,-75.1500,31.2000,-18.0000,4.3000,3.2800,-7.4200,-1.2381,-2.1849,-1.6090,-21.0625,-25.8750,18.3750,193.1875,47.3125,-166.6250,0
226.635,8.4132,0.9720,0.2921,1.1413,-0.2651,-0.7373,-43.9500,19.8000,2.8500,8.5114,-1.6616,4.8004,-0.9481,-2.8282,-1.2934,-76.8000,32.5500,-21.6000,4.3100,2.7800,-7.1000,-1.3581,-2.5340,-1.5141,-21.0625,-25.8750,18.3750,196.3750,45.7500,-165.3750,0
226.640,8.2217,0.8380,0.1269,1.1999,-0.2390,-0.7072,-43.3500,19.2000,1.5000,8.5114,-1.6616,4.8004,-0.9481,-2.8282,-1.2934,-76.8000,32.5500,-21.6000,4.3100,2.7800,-7.1000,-1.3581,-2.5340,-1.5141,-21.0625,-25.8750,18.3750,196.3750,45.7500,-165.3750,0
226.645,8.2217,0.8380,0.1269,1.1999,-0.2390,-0.7072,-43.3500,19.2000,1.5000,8.8418,-1.5826,4.4891,-0.8620,-2.8845,-1.4000,-76.8000,32.5500,-21.6000,5.9600,3.3600,-7.6300,-1.5239,-2.6191,-1.3603,-16.6875,-27.3750,17.0625,199.8125,44.1250,-164.1250,0
226.650,8.1906,0.6656,0.0862,1.2255,-0.2020,-0.6896,-43.3500,19.2000,1.5000,8.8418,-1.5826,4.4891,-0.8620,-2.8845,-1.4000,-76.8000,32.5500,-21.6000,5.9600,3.3600,-7.6300,-1.5239,-2.6191,-1.3603,-16.6875,-27.3750,17.0625,199.8125,44.1250,-164.1250,0
226.655,8.1906,0.6656,0.0862,1.2255,-0.2020,-0.6896,-43.3500,19.2000,1.5000,9.1554,-1.2881,4.0438,-0.7823,-2.9151,-1.5026,-75.3000,33.4500,-22.3500,6.4100,4.1100,-7.7700,-1.6668,-2.6584,-1.1901,-16.6875,-27.3750,17.0625,203.6250,42.5625,-163.0000,0
226.660,8.2791,0.3903,0.0048,1.2169,-0.1266,-0.6587,-42.6000,18.4500,1.9500,9.1554,-1.2881,4.0438,-0.7823,-2.9151,-1.5026,-75.3000,33.4500,-22.3500,6.4100,4.1100,-7.7700,-1.7279,-2.7718,-1.0603,-16.6875,-27.3750,17.0625,168.3750,40.8750,-162.0000,0
226.666,8.2791,0.3903,0.0048,1.2169,-0.1266,-0.6587,-42.6000,18.4500,1.9500,9.3398,-1.1013,3.7637,-0.6976,-2.9210,-1.5799,-74.5500,33.7500,-23.4000,6.5100,4.7600,-7.6500,-1.7279,-2.7718,-1.0603,-16.6875,-27.3750,17.0625,168.3750,39.2500,-161.0625,0
226.675,7.7117,0.2610,-0.3017,1.1410,0.0059,-0.6147,-42.0000,18.3000,0.6000,9.4715,-1.0008,3.7709,-0.5993,-2.9250,-1.6337,-74.5500,33.7500,-24.6000,6.1700,4.8100,-7.1900,-1.6821,-2.8372,-0.9719,-16.6875,-27.3750,17.0625,168.3750,39.2500,-161.0625,0
226.685,9.0549,0.2155,-0.6680,1.0437,0.1247,-0.5995,-42.9000,18.9000,-0.1500,9.4882,-0.8763,3.4524,-0.4636,-2.9058,-1.6734,-73.8000,34.5000,-24.1500,6.2800,5.0800,-7.2300,-1.6264,-2.7707,-0.9643,-16.6875,-27.3750,17.0625,168.4375,37.6250,-160.1250,0
226.690,8.8849,0.0407,-0.9505,0.9934,-0.1788,-0.5710,-42.4500,18.3000,-0.6000,9.4882,-0.8763,3.4524,-0.4636,-2.9058,-1.6734,-73.8000,34.5000,-24.1500,6.2800,5.0800,-7.2300,-1.6264,-2.7707,-0.9643,-16.6875,-27.3750,17.0625,168.4375,37.6250,-160.1250,0
226.695,8.8849,0.0407,-0.9505,0.9934,-0.1788,-0.5710,-42.4500,18.3000,-0.6000,9.2823,-0.5507,3.2346,-0.2081,-2.8533,-1.7030,-72.9000,36.7500,-24.3000,6.4800,5.2700,-7.4700,-1.6242,-2.5700,-1.0570,-13.0000,-30.3750,17.5000,168.3750,36.0625,-159.1875,0
226.700,8.5545,-0.1939,-1.1612,0.8540,-0.1665,-0.5612,-41.1000,19.2000,0.7500,9.2823,-0.5507,3.2346,-0.2081,-2.8533,-1.7030,-72.9000,36.7500,-24.3000,6.4800,5.2700,-7.4700,-1.6242,-2.5700,-1.0570,-13.0000,-30.3750,17.5000,168.3750,36.0625,-159.1875,0
226.705,8.5545,-0.1939,-1.1612,0.8540,-0.1665,-0.5612,-41.1000,19.2000,0.7500,9.3015,-0.0862,3.0430,0.1335,-2.7707,-1.7261,-72.3000,36.9000,-26.7000,7.2000,5.5300,-8.2500,-1.6559,-2.3169,-1.2534,-13.0000,-30.3750,17.5000,168.1875,34.6250,-158.1250,0
226.713,8.6167,-0.0982,-1.2617,0.7061,-0.1945,-0.5452,-41.1000,19.2000,0.7500,9.6199,0.2658,2.7078,0.5457,-2.6894,-1.7253,-72.3000,36.9000,-26.7000,7.5700,5.6400,-8.8400,-1.6853,-2.0289,-1.5381,-13.0000,-30.3750,17.5000,167.8125,33.2500,-156.9375,0
226.718,8.2696,-0.3926,-1.3838,0.5329,-0.1159,-0.5377,-42.0000,18.3000,-0.3000,9.6199,0.2658,2.7078,0.5457,-2.6894,-1.7253,-72.3000,36.9000,-26.7000,7.5700,5.6400,-8.8400,-1.6853,-2.0289,-1.5381,-13.0000,-30.3750,17.5000,167.2500,31.9375,-155.6875,0
226.726,8.2696,-0.3926,-1.3838,0.5329,-0.1159,-0.5377,-42.0000,18.3000,-0.3000,9.9359,0.5148,2.5642,0.9318,-2.6326,-1.6830,-71.1000,36.4500,-27.1500,7.6200,5.6100,-8.8700,-1.6810,-1.7290,-1.8817,-13.0000,-30.3750,17.5000,166.4375,30.6250,-154.3125,0
226.736,8.0756,-0.1987,-1.5371,0.3179,-0.0301,-0.5484,-44.2500,16.8000,-2.1000,10.1849,0.2442,2.5426,1.2646,-2.5706,-1.6385,-71.1000,36.4500,-27.1500,7.6400,5.3600,-8.9400,-1.5915,-1.5304,-2.2286,-13.0000,-30.3750,17.5000,166.4375,30.6250,-154.3125,0
226.740,8.1259,0.2298,-1.6400,0.1769,-0.0400,-0.5708,-42.6000,18.4500,0.4500,10.3956,-0.2227,2.7773,1.5652,-2.5207,-1.5681,-71.1000,36.4500,-27.1500,7.6400,5.3600,-8.9400,-1.5915,-1.5304,-2.2286,-13.0000,-30.3750,17.5000,165.3125,29.4375,-153.0000,0
226.745,8.1259,0.2298,-1.6400,0.1769,-0.0400,-0.5708,-42.6000,18.4500,0.4500,10.3956,-0.2227,2.7773,1.5652,-2.5207,-1.5681,-70.8000,38.1000,-28.9500,7.9500,4.6500,-9.4800,-1.2621,-1.1017,-2.6333,-10.7500,-33.2500,15.8750,165.3125,29.4375,-153.0000,0
226.750,8.0828,0.6345,-1.6041,-0.0032,-0.0671,-0.5740,-43.2000,19.0500,-1.3500,10.6973,-0.7159,2.8347,1.7813,-2.4682,-1.4855,-70.8000,38.1000,-28.9500,7.9500,4.6500,-9.4800,-1.2621,-1.1017,-2.6333,-10.7500,-33.2500,15.8750,164.1875,28.2500,-151.7500,0
226.755,8.0828,0.6345,-1.6041,-0.0032,-0.0671,-0.5740,-43.2000,19.0500,-1.3500,10.6973,-0.7159,2.8347,1.7813,-2.4682,-1.4855,-69.1500,39.6000,-31.6500,8.4900,4.6900,-9.9500,-1.2621,-1.1017,-2.6333,-10.7500,-33.2500,15.8750,164.1875,28.2500,-151.7500,0
226.760,8.1475,1.0439,-1.4461,-0.2446,-0.0637,-0.5593,-43.2000,19.0500,-1.3500,11.0732,-1.2953,2.7294,1.9004,-2.4269,-1.3795,-69.1500,39.6000,-31.6500,8.4900,4.6900,-9.9500,-1.0974,-0.9676,-2.7565,-10.7500,-33.2500,15.8750,162.9375,27.0625,-150.5625,0
226.766,8.4036,1.6999,-1.0104,-0.4900,-0.0197,-0.5300,-43.2000,19.0500,-1.3500,11.0732,-1.2953,2.7294,1.9004,-2.4269,-1.3795,-69.4500,39.0000,-30.3000,8.3900,4.3400,-10.0000,-1.0974,-0.9676,-2.7565,-10.7500,-33.2500,15.8750,161.6250,25.8125,-149.5000,0
226.775,8.7101,2.3008,-0.3591,-0.7168,0.0107,-0.4988,-42.7500,18.7500,-0.3000,11.1522,-1.7526,2.6719,1.9031,-2.3790,-1.2817,-67.9500,38.2500,-32.8500,8.1100,3.5300,-9.9700,-0.9141,-0.9043,-2.8263,-10.7500,-33.2500,15.8750,161.6250,25.8125,-149.5000,0
